key_resp.keys,key_resp.rt,key_resp_14.keys,key_resp_14.rt,key_resp_15.keys,key_resp_15.rt,key_resp_17.keys,key_resp_17.rt,key_resp_9.keys,key_resp_9.rt,key_resp_10.keys,key_resp_10.rt,practice_comparison,Ecc,mouse_5.x,mouse_5.y,mouse_5.leftButton,mouse_5.midButton,mouse_5.rightButton,mouse_5.clicked_name,pracsimilarity,response_time,mouse_10.x,mouse_10.y,mouse_10.leftButton,mouse_10.midButton,mouse_10.rightButton,mouse_10.clicked_name,mouse_7.x,mouse_7.y,mouse_7.leftButton,mouse_7.midButton,mouse_7.rightButton,mouse_6.x,mouse_6.y,mouse_6.leftButton,mouse_6.midButton,mouse_6.rightButton,duringprac.thisRepN,duringprac.thisTrialN,duringprac.thisN,duringprac.thisIndex,duringprac.ran,participant,session,date,expName,psychopyVersion,OS,frameRate,study_id,mouse_7.clicked_name,catchpracsimilarity,catch_response_time,catchnumberprac,catchtrialorderprac,mouse_6.clicked_name,key_resp_22.keys,key_resp_22.rt,realcomparison,mouse.x,mouse.y,mouse.leftButton,mouse.midButton,mouse.rightButton,mouse.clicked_name,Colour2,similarity,mouse_2.x,mouse_2.y,mouse_2.leftButton,mouse_2.midButton,mouse_2.rightButton,mouse_2.clicked_name,mouse_3.x,mouse_3.y,mouse_3.leftButton,mouse_3.midButton,mouse_3.rightButton,mouse_11.x,mouse_11.y,mouse_11.leftButton,mouse_11.midButton,mouse_11.rightButton,trials_2.thisRepN,trials_2.thisTrialN,trials_2.thisN,trials_2.thisIndex,trials_2.ran,Colour1,mouse_3.clicked_name,catchornah,catchsimilarity,catchnumber,catchtrialorder,catchRT,mouse_11.clicked_name
space,1.353,space,2.993,space,15.954,space,6.268,space,0.912,space,6.064,30,FF,65,-74,1,0,0,response3disk_5,4,15.747,-2,-7,1,0,0,rectangle_8,-2,-7,1,0,0,-2,-7,1,0,0,0,0,0,0,1,60fd55ed264098eb4692f1d9,61036ae405f315829a6dd535,2021-07-30_12h59.51.023,Simcolourproject_2stim_asymm_v5,2020.2.10,MacIntel,60,61025ae37ef11b136ea224fe,,,,,,,,,,,,,,,,,,,,,,,,,,,,,,,,,,,,,,,,,,,,,,
,,,,,,,,,,,,26,PF,47,103,1,0,0,response1disk_5,7,3.2,5,1,1,0,0,rectangle_8,41,-113,1,0,0,-1,-1,1,0,0,0,1,1,2,1,60fd55ed264098eb4692f1d9,61036ae405f315829a6dd535,2021-07-30_12h59.51.023,Simcolourproject_2stim_asymm_v5,2020.2.10,MacIntel,60,61025ae37ef11b136ea224fe,response3disk_7,4,4.187,4,"[2,5]",rectangle_4,,,,,,,,,,,,,,,,,,,,,,,,,,,,,,,,,,,,,,,,
,,,,,,,,,,,,148,FF,99,41,1,0,0,response1disk_5,6,3.32,-12,-4,1,0,0,rectangle_8,-12,-4,1,0,0,-12,-4,1,0,0,0,2,2,5,1,60fd55ed264098eb4692f1d9,61036ae405f315829a6dd535,2021-07-30_12h59.51.023,Simcolourproject_2stim_asymm_v5,2020.2.10,MacIntel,60,61025ae37ef11b136ea224fe,,,,,,,,,,,,,,,,,,,,,,,,,,,,,,,,,,,,,,,,,,,,,,
,,,,,,,,,,,,63,PF,-46,96,1,0,0,response7disk_5,0,2.6,-2,-1,1,0,0,rectangle_8,-2,-1,1,0,0,-2,-1,1,0,0,0,3,3,1,1,60fd55ed264098eb4692f1d9,61036ae405f315829a6dd535,2021-07-30_12h59.51.023,Simcolourproject_2stim_asymm_v5,2020.2.10,MacIntel,60,61025ae37ef11b136ea224fe,,,,,,,,,,,,,,,,,,,,,,,,,,,,,,,,,,,,,,,,,,,,,,
,,,,,,,,,,,,65,PF,41,100,1,0,0,response1disk_5,7,1.351,-2,0,1,0,0,rectangle_8,43,-101,1,0,0,-2,-5,1,0,0,0,4,4,4,1,60fd55ed264098eb4692f1d9,61036ae405f315829a6dd535,2021-07-30_12h59.51.023,Simcolourproject_2stim_asymm_v5,2020.2.10,MacIntel,60,61025ae37ef11b136ea224fe,response3disk_7,4,2.036,4,"[2,5]",rectangle_4,,,,,,,,,,,,,,,,,,,,,,,,,,,,,,,,,,,,,,,,
,,,,,,,,,,,,124,PF,46,101,1,0,0,response1disk_5,7,2.37,6,-3,1,0,0,rectangle_8,6,-3,1,0,0,6,-3,1,0,0,0,5,5,6,1,60fd55ed264098eb4692f1d9,61036ae405f315829a6dd535,2021-07-30_12h59.51.023,Simcolourproject_2stim_asymm_v5,2020.2.10,MacIntel,60,61025ae37ef11b136ea224fe,,,,,,,,,,,,,,,,,,,,,,,,,,,,,,,,,,,,,,,,,,,,,,
,,,,,,,,,,,,159,FF,46,111,1,0,0,response1disk_5,7,1.104,-12,-4,1,0,0,rectangle_8,-12,-4,1,0,0,-12,-4,1,0,0,0,6,6,3,1,60fd55ed264098eb4692f1d9,61036ae405f315829a6dd535,2021-07-30_12h59.51.023,Simcolourproject_2stim_asymm_v5,2020.2.10,MacIntel,60,61025ae37ef11b136ea224fe,,,,,,,,,,,,,,,,,,,,,,,,,,,,,,,,,,,,,,,,,,,,,,
,,,,,,,,,,,,,FF,,,,,,,,1.502,,,,,,,,,,,,,,,,,,,,,,60fd55ed264098eb4692f1d9,61036ae405f315829a6dd535,2021-07-30_12h59.51.023,Simcolourproject_2stim_asymm_v5,2020.2.10,MacIntel,60,61025ae37ef11b136ea224fe,,,,,,,space,1.891,1302,108,38,1,0,0,response1disk,,6,8,-1,1,0,0,rectangle,8,-1,1,0,0,8,-1,1,0,0,0,0,0,15,1,,,,,,,,
,,,,,,,,,,,,,FF,,,,,,,,1.055,,,,,,,,,,,,,,,,,,,,,,60fd55ed264098eb4692f1d9,61036ae405f315829a6dd535,2021-07-30_12h59.51.023,Simcolourproject_2stim_asymm_v5,2020.2.10,MacIntel,60,61025ae37ef11b136ea224fe,,,,,,,,,1639,41,102,1,0,0,response1disk,,7,12,0,1,0,0,rectangle,12,0,1,0,0,12,0,1,0,0,0,1,1,99,1,,,,,,,,
,,,,,,,,,,,,,FF,,,,,,,,2.585,,,,,,,,,,,,,,,,,,,,,,60fd55ed264098eb4692f1d9,61036ae405f315829a6dd535,2021-07-30_12h59.51.023,Simcolourproject_2stim_asymm_v5,2020.2.10,MacIntel,60,61025ae37ef11b136ea224fe,,,,,,,,,2297,46,-107,1,0,0,response3disk,,4,3,-2,1,0,0,rectangle,3,-2,1,0,0,3,-2,1,0,0,0,2,2,152,1,,,,,,,,
,,,,,,,,,,,,,FF,,,,,,,,0.971,,,,,,,,,,,,,,,,,,,,,,60fd55ed264098eb4692f1d9,61036ae405f315829a6dd535,2021-07-30_12h59.51.023,Simcolourproject_2stim_asymm_v5,2020.2.10,MacIntel,60,61025ae37ef11b136ea224fe,,,,,,,,,3172,42,114,1,0,0,response1disk,,7,6,5,1,0,0,rectangle,6,5,1,0,0,6,5,1,0,0,0,3,3,147,1,,,,,,,,
,,,,,,,,,,,,,FF,,,,,,,,1.216,,,,,,,,,,,,,,,,,,,,,,60fd55ed264098eb4692f1d9,61036ae405f315829a6dd535,2021-07-30_12h59.51.023,Simcolourproject_2stim_asymm_v5,2020.2.10,MacIntel,60,61025ae37ef11b136ea224fe,,,,,,,,,4368,-35,107,1,0,0,response7disk,,0,0,0,1,0,0,rectangle,0,0,1,0,0,0,0,1,0,0,0,4,4,133,1,,,,,,,,
,,,,,,,,,,,,,FF,,,,,,,,0.888,,,,,,,,,,,,,,,,,,,,,,60fd55ed264098eb4692f1d9,61036ae405f315829a6dd535,2021-07-30_12h59.51.023,Simcolourproject_2stim_asymm_v5,2020.2.10,MacIntel,60,61025ae37ef11b136ea224fe,,,,,,,,,2968,38,98,1,0,0,response1disk,,7,11,-4,1,0,0,rectangle,11,-4,1,0,0,11,-4,1,0,0,0,5,5,5,1,,,,,,,,
,,,,,,,,,,,,,FF,,,,,,,,0.688,,,,,,,,,,,,,,,,,,,,,,60fd55ed264098eb4692f1d9,61036ae405f315829a6dd535,2021-07-30_12h59.51.023,Simcolourproject_2stim_asymm_v5,2020.2.10,MacIntel,60,61025ae37ef11b136ea224fe,,,,,,,,,579,41,95,1,0,0,response1disk,,7,15,-3,1,0,0,rectangle,15,-3,1,0,0,15,-3,1,0,0,0,6,6,54,1,,,,,,,,
,,,,,,,,,,,,,FF,,,,,,,,0.621,,,,,,,,,,,,,,,,,,,,,,60fd55ed264098eb4692f1d9,61036ae405f315829a6dd535,2021-07-30_12h59.51.023,Simcolourproject_2stim_asymm_v5,2020.2.10,MacIntel,60,61025ae37ef11b136ea224fe,,,,,,,,,1637,31,71,1,0,0,response1disk,,7,21,1,1,0,0,rectangle,21,1,1,0,0,21,1,1,0,0,0,7,7,73,1,,,,,,,,
,,,,,,,,,,,,,FF,,,,,,,,0.567,,,,,,,,,,,,,,,,,,,,,,60fd55ed264098eb4692f1d9,61036ae405f315829a6dd535,2021-07-30_12h59.51.023,Simcolourproject_2stim_asymm_v5,2020.2.10,MacIntel,60,61025ae37ef11b136ea224fe,,,,,,,,,2205,33,51,1,0,0,response1disk,,7,18,6,1,0,0,rectangle,18,6,1,0,0,18,6,1,0,0,0,8,8,109,1,,,,,,,,
,,,,,,,,,,,,,FF,,,,,,,,1.467,,,,,,,,,,,,,,,,,,,,,,60fd55ed264098eb4692f1d9,61036ae405f315829a6dd535,2021-07-30_12h59.51.023,Simcolourproject_2stim_asymm_v5,2020.2.10,MacIntel,60,61025ae37ef11b136ea224fe,,,,,,,,,631,80,-40,1,0,0,response3disk,,5,0,-3,1,0,0,rectangle,0,-3,1,0,0,0,-3,1,0,0,0,9,9,49,1,,,,,,,,
,,,,,,,,,,,,,FF,,,,,,,,1.005,,,,,,,,,,,,,,,,,,,,,,60fd55ed264098eb4692f1d9,61036ae405f315829a6dd535,2021-07-30_12h59.51.023,Simcolourproject_2stim_asymm_v5,2020.2.10,MacIntel,60,61025ae37ef11b136ea224fe,,,,,,,,,716,-71,28,1,0,0,response7disk,,1,-3,1,1,0,0,rectangle,-3,1,1,0,0,-3,1,1,0,0,0,10,10,35,1,,,,,,,,
,,,,,,,,,,,,,FF,,,,,,,,1.865,,,,,,,,,,,,,,,,,,,,,,60fd55ed264098eb4692f1d9,61036ae405f315829a6dd535,2021-07-30_12h59.51.023,Simcolourproject_2stim_asymm_v5,2020.2.10,MacIntel,60,61025ae37ef11b136ea224fe,,,,,,,,,1757,84,-41,1,0,0,response3disk,,5,15,4,1,0,0,rectangle,15,4,1,0,0,15,4,1,0,0,0,11,11,20,1,,,,,,,,
,,,,,,,,,,,,,FF,,,,,,,,0.665,,,,,,,,,,,,,,,,,,,,,,60fd55ed264098eb4692f1d9,61036ae405f315829a6dd535,2021-07-30_12h59.51.023,Simcolourproject_2stim_asymm_v5,2020.2.10,MacIntel,60,61025ae37ef11b136ea224fe,,,,,,,,,1562,44,103,1,0,0,response1disk,,7,22,-4,1,0,0,rectangle,22,-4,1,0,0,22,-4,1,0,0,0,12,12,115,1,,,,,,,,
,,,,,,,,,,,,,FF,,,,,,,,0.618,,,,,,,,,,,,,,,,,,,,,,60fd55ed264098eb4692f1d9,61036ae405f315829a6dd535,2021-07-30_12h59.51.023,Simcolourproject_2stim_asymm_v5,2020.2.10,MacIntel,60,61025ae37ef11b136ea224fe,,,,,,,,,2858,34,94,1,0,0,response1disk,,7,28,12,1,0,0,rectangle,28,12,1,0,0,28,12,1,0,0,0,13,13,77,1,,,,,,,,
,,,,,,,,,,,,,FF,,,,,,,,1.254,,,,,,,,,,,,,,,,,,,,,,60fd55ed264098eb4692f1d9,61036ae405f315829a6dd535,2021-07-30_12h59.51.023,Simcolourproject_2stim_asymm_v5,2020.2.10,MacIntel,60,61025ae37ef11b136ea224fe,,,,,,,,,3162,90,-39,1,0,0,response3disk,,5,13,1,1,0,0,rectangle,13,1,1,0,0,13,1,1,0,0,0,14,14,13,1,,,,,,,,
,,,,,,,,,,,,,FF,,,,,,,,0.654,,,,,,,,,,,,,,,,,,,,,,60fd55ed264098eb4692f1d9,61036ae405f315829a6dd535,2021-07-30_12h59.51.023,Simcolourproject_2stim_asymm_v5,2020.2.10,MacIntel,60,61025ae37ef11b136ea224fe,,,,,,,,,985,37,93,1,0,0,response1disk,,7,11,-9,1,0,0,rectangle,11,-9,1,0,0,11,-9,1,0,0,0,15,15,96,1,,,,,,,,
,,,,,,,,,,,,,FF,,,,,,,,0.684,,,,,,,,,,,,,,,,,,,,,,60fd55ed264098eb4692f1d9,61036ae405f315829a6dd535,2021-07-30_12h59.51.023,Simcolourproject_2stim_asymm_v5,2020.2.10,MacIntel,60,61025ae37ef11b136ea224fe,,,,,,,,,1043,24,55,1,0,0,response1disk,,7,5,-12,1,0,0,rectangle,5,-12,1,0,0,5,-12,1,0,0,0,16,16,97,1,,,,,,,,
,,,,,,,,,,,,,FF,,,,,,,,0.583,,,,,,,,,,,,,,,,,,,,,,60fd55ed264098eb4692f1d9,61036ae405f315829a6dd535,2021-07-30_12h59.51.023,Simcolourproject_2stim_asymm_v5,2020.2.10,MacIntel,60,61025ae37ef11b136ea224fe,,,,,,,,,732,27,63,1,0,0,response1disk,,7,15,9,1,0,0,rectangle,15,9,1,0,0,15,9,1,0,0,0,17,17,17,1,,,,,,,,
,,,,,,,,,,,,,FF,,,,,,,,0.667,,,,,,,,,,,,,,,,,,,,,,60fd55ed264098eb4692f1d9,61036ae405f315829a6dd535,2021-07-30_12h59.51.023,Simcolourproject_2stim_asymm_v5,2020.2.10,MacIntel,60,61025ae37ef11b136ea224fe,,,,,,,,,4009,38,71,1,0,0,response1disk,,7,18,-6,1,0,0,rectangle,18,-6,1,0,0,18,-6,1,0,0,0,18,18,11,1,,,,,,,,
,,,,,,,,,,,,,FF,,,,,,,,0.489,,,,,,,,,,,,,,,,,,,,,,60fd55ed264098eb4692f1d9,61036ae405f315829a6dd535,2021-07-30_12h59.51.023,Simcolourproject_2stim_asymm_v5,2020.2.10,MacIntel,60,61025ae37ef11b136ea224fe,,,,,,,,,2343,29,60,1,0,0,response1disk,,7,11,-4,1,0,0,rectangle,11,-4,1,0,0,11,-4,1,0,0,0,19,19,40,1,,,,,,,,
,,,,,,,,,,,,,FF,,,,,,,,0.904,,,,,,,,,,,,,,,,,,,,,,60fd55ed264098eb4692f1d9,61036ae405f315829a6dd535,2021-07-30_12h59.51.023,Simcolourproject_2stim_asymm_v5,2020.2.10,MacIntel,60,61025ae37ef11b136ea224fe,,,,,,,,,2824,95,34,1,0,0,response1disk,,6,6,8,1,0,0,rectangle,6,8,1,0,0,6,8,1,0,0,0,20,20,76,1,,,,,,,,
,,,,,,,,,,,,,FF,,,,,,,,0.605,,,,,,,,,,,,,,,,,,,,,,60fd55ed264098eb4692f1d9,61036ae405f315829a6dd535,2021-07-30_12h59.51.023,Simcolourproject_2stim_asymm_v5,2020.2.10,MacIntel,60,61025ae37ef11b136ea224fe,,,,,,,,,2600,38,90,1,0,0,response1disk,,7,16,6,1,0,0,rectangle,16,6,1,0,0,16,6,1,0,0,0,21,21,34,1,,,,,,,,
,,,,,,,,,,,,,FF,,,,,,,,1.183,,,,,,,,,,,,,,,,,,,,,,60fd55ed264098eb4692f1d9,61036ae405f315829a6dd535,2021-07-30_12h59.51.023,Simcolourproject_2stim_asymm_v5,2020.2.10,MacIntel,60,61025ae37ef11b136ea224fe,,,,,,,,,2298,-34,-83,1,0,0,response5disk,,3,-9,-8,1,0,0,rectangle,-9,-8,1,0,0,-9,-8,1,0,0,0,22,22,71,1,,,,,,,,
,,,,,,,,,,,,,FF,,,,,,,,0.901,,,,,,,,,,,,,,,,,,,,,,60fd55ed264098eb4692f1d9,61036ae405f315829a6dd535,2021-07-30_12h59.51.023,Simcolourproject_2stim_asymm_v5,2020.2.10,MacIntel,60,61025ae37ef11b136ea224fe,,,,,,,,,4361,-36,97,1,0,0,response7disk,,0,-6,7,1,0,0,rectangle,-6,7,1,0,0,-6,7,1,0,0,0,23,23,148,1,,,,,,,,
,,,,,,,,,,,,,FF,,,,,,,,0.634,,,,,,,,,,,,,,,,,,,,,,60fd55ed264098eb4692f1d9,61036ae405f315829a6dd535,2021-07-30_12h59.51.023,Simcolourproject_2stim_asymm_v5,2020.2.10,MacIntel,60,61025ae37ef11b136ea224fe,,,,,,,,,403,28,82,1,0,0,response1disk,,7,0,-4,1,0,0,rectangle,0,-4,1,0,0,0,-4,1,0,0,0,24,24,45,1,,,,,,,,
,,,,,,,,,,,,,FF,,,,,,,,1.35,,,,,,,,,,,,,,,,,,,,,,60fd55ed264098eb4692f1d9,61036ae405f315829a6dd535,2021-07-30_12h59.51.023,Simcolourproject_2stim_asymm_v5,2020.2.10,MacIntel,60,61025ae37ef11b136ea224fe,,,,,,,,,3835,33,101,1,0,0,response1disk,,7,3,-3,1,0,0,rectangle,3,-3,1,0,0,3,-3,1,0,0,0,25,25,38,1,,,,,,,,
,,,,,,,,,,,,,FF,,,,,,,,0.651,,,,,,,,,,,,,,,,,,,,,,60fd55ed264098eb4692f1d9,61036ae405f315829a6dd535,2021-07-30_12h59.51.023,Simcolourproject_2stim_asymm_v5,2020.2.10,MacIntel,60,61025ae37ef11b136ea224fe,,,,,,,,,1546,32,71,1,0,0,response1disk,,7,16,-3,1,0,0,rectangle,16,-3,1,0,0,16,-3,1,0,0,0,26,26,83,1,,,,,,,,
,,,,,,,,,,,,,FF,,,,,,,,0.559,,,,,,,,,,,,,,,,,,,,,,60fd55ed264098eb4692f1d9,61036ae405f315829a6dd535,2021-07-30_12h59.51.023,Simcolourproject_2stim_asymm_v5,2020.2.10,MacIntel,60,61025ae37ef11b136ea224fe,,,,,,,,,294,36,68,1,0,0,response1disk,,7,17,0,1,0,0,rectangle,17,0,1,0,0,17,0,1,0,0,0,27,27,102,1,,,,,,,,
,,,,,,,,,,,,,FF,,,,,,,,0.983,,,,,,,,,,,,,,,,,,,,,,60fd55ed264098eb4692f1d9,61036ae405f315829a6dd535,2021-07-30_12h59.51.023,Simcolourproject_2stim_asymm_v5,2020.2.10,MacIntel,60,61025ae37ef11b136ea224fe,,,,,,,,,2020,38,99,1,0,0,response1disk,,7,1,-14,1,0,0,rectangle,-97,43,1,0,0,-6,3,1,0,0,0,28,28,101,1,,response7disk_3,TRUE,1,1,"[183,177,66,290,240,69,196,207,250,124,133,29,275,120,303,134,223,322,0,294]",1.488,rectangle
,,,,,,,,,,,,,FF,,,,,,,,0.954,,,,,,,,,,,,,,,,,,,,,,60fd55ed264098eb4692f1d9,61036ae405f315829a6dd535,2021-07-30_12h59.51.023,Simcolourproject_2stim_asymm_v5,2020.2.10,MacIntel,60,61025ae37ef11b136ea224fe,,,,,,,,,3890,36,72,1,0,0,response1disk,,7,16,-1,1,0,0,rectangle,16,-1,1,0,0,16,-1,1,0,0,0,29,29,27,1,,,,,,,,
,,,,,,,,,,,,,FF,,,,,,,,0.6,,,,,,,,,,,,,,,,,,,,,,60fd55ed264098eb4692f1d9,61036ae405f315829a6dd535,2021-07-30_12h59.51.023,Simcolourproject_2stim_asymm_v5,2020.2.10,MacIntel,60,61025ae37ef11b136ea224fe,,,,,,,,,1322,21,64,1,0,0,response1disk,,7,7,-2,1,0,0,rectangle,7,-2,1,0,0,7,-2,1,0,0,0,30,30,72,1,,,,,,,,
,,,,,,,,,,,,,FF,,,,,,,,0.617,,,,,,,,,,,,,,,,,,,,,,60fd55ed264098eb4692f1d9,61036ae405f315829a6dd535,2021-07-30_12h59.51.023,Simcolourproject_2stim_asymm_v5,2020.2.10,MacIntel,60,61025ae37ef11b136ea224fe,,,,,,,,,2773,30,70,1,0,0,response1disk,,7,13,3,1,0,0,rectangle,13,3,1,0,0,13,3,1,0,0,0,31,31,114,1,,,,,,,,
,,,,,,,,,,,,,FF,,,,,,,,0.419,,,,,,,,,,,,,,,,,,,,,,60fd55ed264098eb4692f1d9,61036ae405f315829a6dd535,2021-07-30_12h59.51.023,Simcolourproject_2stim_asymm_v5,2020.2.10,MacIntel,60,61025ae37ef11b136ea224fe,,,,,,,,,182,40,60,1,0,0,response1disk,,7,18,4,1,0,0,rectangle,18,4,1,0,0,18,4,1,0,0,0,32,32,19,1,,,,,,,,
,,,,,,,,,,,,,FF,,,,,,,,0.866,,,,,,,,,,,,,,,,,,,,,,60fd55ed264098eb4692f1d9,61036ae405f315829a6dd535,2021-07-30_12h59.51.023,Simcolourproject_2stim_asymm_v5,2020.2.10,MacIntel,60,61025ae37ef11b136ea224fe,,,,,,,,,2544,88,35,1,0,0,response1disk,,6,11,2,1,0,0,rectangle,11,2,1,0,0,11,2,1,0,0,0,33,33,151,1,,,,,,,,
,,,,,,,,,,,,,FF,,,,,,,,0.602,,,,,,,,,,,,,,,,,,,,,,60fd55ed264098eb4692f1d9,61036ae405f315829a6dd535,2021-07-30_12h59.51.023,Simcolourproject_2stim_asymm_v5,2020.2.10,MacIntel,60,61025ae37ef11b136ea224fe,,,,,,,,,3207,32,68,1,0,0,response1disk,,7,8,0,1,0,0,rectangle,8,0,1,0,0,8,0,1,0,0,0,34,34,89,1,,,,,,,,
,,,,,,,,,,,,,FF,,,,,,,,1.037,,,,,,,,,,,,,,,,,,,,,,60fd55ed264098eb4692f1d9,61036ae405f315829a6dd535,2021-07-30_12h59.51.023,Simcolourproject_2stim_asymm_v5,2020.2.10,MacIntel,60,61025ae37ef11b136ea224fe,,,,,,,,,2291,-92,37,1,0,0,response7disk,,1,-5,7,1,0,0,rectangle,-5,7,1,0,0,-5,7,1,0,0,0,35,35,116,1,,,,,,,,
,,,,,,,,,,,,,FF,,,,,,,,0.599,,,,,,,,,,,,,,,,,,,,,,60fd55ed264098eb4692f1d9,61036ae405f315829a6dd535,2021-07-30_12h59.51.023,Simcolourproject_2stim_asymm_v5,2020.2.10,MacIntel,60,61025ae37ef11b136ea224fe,,,,,,,,,3944,28,57,1,0,0,response1disk,,7,15,-3,1,0,0,rectangle,15,-3,1,0,0,15,-3,1,0,0,0,36,36,48,1,,,,,,,,
,,,,,,,,,,,,,FF,,,,,,,,0.685,,,,,,,,,,,,,,,,,,,,,,60fd55ed264098eb4692f1d9,61036ae405f315829a6dd535,2021-07-30_12h59.51.023,Simcolourproject_2stim_asymm_v5,2020.2.10,MacIntel,60,61025ae37ef11b136ea224fe,,,,,,,,,14,26,49,1,0,0,response1disk,,7,17,-1,1,0,0,rectangle,17,-1,1,0,0,17,-1,1,0,0,0,37,37,62,1,,,,,,,,
,,,,,,,,,,,,,FF,,,,,,,,0.521,,,,,,,,,,,,,,,,,,,,,,60fd55ed264098eb4692f1d9,61036ae405f315829a6dd535,2021-07-30_12h59.51.023,Simcolourproject_2stim_asymm_v5,2020.2.10,MacIntel,60,61025ae37ef11b136ea224fe,,,,,,,,,2372,27,64,1,0,0,response1disk,,7,16,5,1,0,0,rectangle,16,5,1,0,0,16,5,1,0,0,0,38,38,79,1,,,,,,,,
,,,,,,,,,,,,,FF,,,,,,,,0.516,,,,,,,,,,,,,,,,,,,,,,60fd55ed264098eb4692f1d9,61036ae405f315829a6dd535,2021-07-30_12h59.51.023,Simcolourproject_2stim_asymm_v5,2020.2.10,MacIntel,60,61025ae37ef11b136ea224fe,,,,,,,,,2334,26,61,1,0,0,response1disk,,7,20,-5,1,0,0,rectangle,20,-5,1,0,0,20,-5,1,0,0,0,39,39,16,1,,,,,,,,
,,,,,,,,,,,,,FF,,,,,,,,0.9,,,,,,,,,,,,,,,,,,,,,,60fd55ed264098eb4692f1d9,61036ae405f315829a6dd535,2021-07-30_12h59.51.023,Simcolourproject_2stim_asymm_v5,2020.2.10,MacIntel,60,61025ae37ef11b136ea224fe,,,,,,,,,2242,27,44,1,0,0,response1disk,,7,14,-10,1,0,0,rectangle,14,-10,1,0,0,14,-10,1,0,0,0,40,40,63,1,,,,,,,,
,,,,,,,,,,,,,FF,,,,,,,,0.555,,,,,,,,,,,,,,,,,,,,,,60fd55ed264098eb4692f1d9,61036ae405f315829a6dd535,2021-07-30_12h59.51.023,Simcolourproject_2stim_asymm_v5,2020.2.10,MacIntel,60,61025ae37ef11b136ea224fe,,,,,,,,,2809,25,53,1,0,0,response1disk,,7,19,-7,1,0,0,rectangle,19,-7,1,0,0,19,-7,1,0,0,0,41,41,69,1,,,,,,,,
,,,,,,,,,,,,,FF,,,,,,,,0.77,,,,,,,,,,,,,,,,,,,,,,60fd55ed264098eb4692f1d9,61036ae405f315829a6dd535,2021-07-30_12h59.51.023,Simcolourproject_2stim_asymm_v5,2020.2.10,MacIntel,60,61025ae37ef11b136ea224fe,,,,,,,,,1596,-32,69,1,0,0,response7disk,,0,-9,9,1,0,0,rectangle,-9,9,1,0,0,-9,9,1,0,0,0,42,42,129,1,,,,,,,,
,,,,,,,,,,,,,FF,,,,,,,,1.037,,,,,,,,,,,,,,,,,,,,,,60fd55ed264098eb4692f1d9,61036ae405f315829a6dd535,2021-07-30_12h59.51.023,Simcolourproject_2stim_asymm_v5,2020.2.10,MacIntel,60,61025ae37ef11b136ea224fe,,,,,,,,,4126,72,28,1,0,0,response1disk,,6,1,1,1,0,0,rectangle,1,1,1,0,0,1,1,1,0,0,0,43,43,21,1,,,,,,,,
,,,,,,,,,,,,,FF,,,,,,,,0.575,,,,,,,,,,,,,,,,,,,,,,60fd55ed264098eb4692f1d9,61036ae405f315829a6dd535,2021-07-30_12h59.51.023,Simcolourproject_2stim_asymm_v5,2020.2.10,MacIntel,60,61025ae37ef11b136ea224fe,,,,,,,,,2499,22,62,1,0,0,response1disk,,7,14,0,1,0,0,rectangle,14,0,1,0,0,14,0,1,0,0,0,44,44,149,1,,,,,,,,
,,,,,,,,,,,,,FF,,,,,,,,0.804,,,,,,,,,,,,,,,,,,,,,,60fd55ed264098eb4692f1d9,61036ae405f315829a6dd535,2021-07-30_12h59.51.023,Simcolourproject_2stim_asymm_v5,2020.2.10,MacIntel,60,61025ae37ef11b136ea224fe,,,,,,,,,2545,77,30,1,0,0,response1disk,,6,7,2,1,0,0,rectangle,7,2,1,0,0,7,2,1,0,0,0,45,45,68,1,,,,,,,,
,,,,,,,,,,,,,FF,,,,,,,,0.722,,,,,,,,,,,,,,,,,,,,,,60fd55ed264098eb4692f1d9,61036ae405f315829a6dd535,2021-07-30_12h59.51.023,Simcolourproject_2stim_asymm_v5,2020.2.10,MacIntel,60,61025ae37ef11b136ea224fe,,,,,,,,,1166,32,70,1,0,0,response1disk,,7,21,2,1,0,0,rectangle,21,2,1,0,0,21,2,1,0,0,0,46,46,94,1,,,,,,,,
,,,,,,,,,,,,,FF,,,,,,,,0.946,,,,,,,,,,,,,,,,,,,,,,60fd55ed264098eb4692f1d9,61036ae405f315829a6dd535,2021-07-30_12h59.51.023,Simcolourproject_2stim_asymm_v5,2020.2.10,MacIntel,60,61025ae37ef11b136ea224fe,,,,,,,,,4305,-26,113,1,0,0,response7disk,,0,15,-5,1,0,0,rectangle,15,-5,1,0,0,15,-5,1,0,0,0,47,47,131,1,,,,,,,,
,,,,,,,,,,,,,FF,,,,,,,,17.835,,,,,,,,,,,,,,,,,,,,,,60fd55ed264098eb4692f1d9,61036ae405f315829a6dd535,2021-07-30_12h59.51.023,Simcolourproject_2stim_asymm_v5,2020.2.10,MacIntel,60,61025ae37ef11b136ea224fe,,,,,,,,,3048,37,66,1,0,0,response1disk,,7,11,-1,1,0,0,rectangle,11,-1,1,0,0,11,-1,1,0,0,0,48,48,1,1,,,,,,,,
,,,,,,,,,,,,,FF,,,,,,,,0.586,,,,,,,,,,,,,,,,,,,,,,60fd55ed264098eb4692f1d9,61036ae405f315829a6dd535,2021-07-30_12h59.51.023,Simcolourproject_2stim_asymm_v5,2020.2.10,MacIntel,60,61025ae37ef11b136ea224fe,,,,,,,,,2404,21,75,1,0,0,response1disk,,7,12,6,1,0,0,rectangle,12,6,1,0,0,12,6,1,0,0,0,49,49,33,1,,,,,,,,
,,,,,,,,,,,,,FF,,,,,,,,0.551,,,,,,,,,,,,,,,,,,,,,,60fd55ed264098eb4692f1d9,61036ae405f315829a6dd535,2021-07-30_12h59.51.023,Simcolourproject_2stim_asymm_v5,2020.2.10,MacIntel,60,61025ae37ef11b136ea224fe,,,,,,,,,1075,40,88,1,0,0,response1disk,,7,10,-1,1,0,0,rectangle,10,-1,1,0,0,10,-1,1,0,0,0,50,50,12,1,,,,,,,,
,,,,,,,,,,,,,FF,,,,,,,,0.619,,,,,,,,,,,,,,,,,,,,,,60fd55ed264098eb4692f1d9,61036ae405f315829a6dd535,2021-07-30_12h59.51.023,Simcolourproject_2stim_asymm_v5,2020.2.10,MacIntel,60,61025ae37ef11b136ea224fe,,,,,,,,,2716,30,74,1,0,0,response1disk,,7,15,-5,1,0,0,rectangle,15,-5,1,0,0,15,-5,1,0,0,0,51,51,43,1,,,,,,,,
,,,,,,,,,,,,,FF,,,,,,,,0.666,,,,,,,,,,,,,,,,,,,,,,60fd55ed264098eb4692f1d9,61036ae405f315829a6dd535,2021-07-30_12h59.51.023,Simcolourproject_2stim_asymm_v5,2020.2.10,MacIntel,60,61025ae37ef11b136ea224fe,,,,,,,,,5,77,28,1,0,0,response1disk,,6,3,2,1,0,0,rectangle,3,2,1,0,0,3,2,1,0,0,0,52,52,134,1,,,,,,,,
,,,,,,,,,,,,,FF,,,,,,,,0.784,,,,,,,,,,,,,,,,,,,,,,60fd55ed264098eb4692f1d9,61036ae405f315829a6dd535,2021-07-30_12h59.51.023,Simcolourproject_2stim_asymm_v5,2020.2.10,MacIntel,60,61025ae37ef11b136ea224fe,,,,,,,,,4127,89,33,1,0,0,response1disk,,6,6,0,1,0,0,rectangle,6,0,1,0,0,6,0,1,0,0,0,53,53,100,1,,,,,,,,
,,,,,,,,,,,,,FF,,,,,,,,0.722,,,,,,,,,,,,,,,,,,,,,,60fd55ed264098eb4692f1d9,61036ae405f315829a6dd535,2021-07-30_12h59.51.023,Simcolourproject_2stim_asymm_v5,2020.2.10,MacIntel,60,61025ae37ef11b136ea224fe,,,,,,,,,1131,-38,67,1,0,0,response7disk,,0,1,-6,1,0,0,rectangle,1,-6,1,0,0,1,-6,1,0,0,0,54,54,51,1,,,,,,,,
,,,,,,,,,,,,,FF,,,,,,,,0.751,,,,,,,,,,,,,,,,,,,,,,60fd55ed264098eb4692f1d9,61036ae405f315829a6dd535,2021-07-30_12h59.51.023,Simcolourproject_2stim_asymm_v5,2020.2.10,MacIntel,60,61025ae37ef11b136ea224fe,,,,,,,,,3873,34,75,1,0,0,response1disk,,7,21,5,1,0,0,rectangle,21,5,1,0,0,21,5,1,0,0,0,55,55,127,1,,,,,,,,
,,,,,,,,,,,,,FF,,,,,,,,1.452,,,,,,,,,,,,,,,,,,,,,,60fd55ed264098eb4692f1d9,61036ae405f315829a6dd535,2021-07-30_12h59.51.023,Simcolourproject_2stim_asymm_v5,2020.2.10,MacIntel,60,61025ae37ef11b136ea224fe,,,,,,,,,3635,90,45,1,0,0,response1disk,,6,1,0,1,0,0,rectangle,1,0,1,0,0,1,0,1,0,0,0,56,56,42,1,,,,,,,,
,,,,,,,,,,,,,FF,,,,,,,,0.985,,,,,,,,,,,,,,,,,,,,,,60fd55ed264098eb4692f1d9,61036ae405f315829a6dd535,2021-07-30_12h59.51.023,Simcolourproject_2stim_asymm_v5,2020.2.10,MacIntel,60,61025ae37ef11b136ea224fe,,,,,,,,,1136,-81,-50,1,0,0,response5disk,,2,6,-5,1,0,0,rectangle,6,-5,1,0,0,6,-5,1,0,0,0,57,57,8,1,,,,,,,,
,,,,,,,,,,,,,FF,,,,,,,,0.816,,,,,,,,,,,,,,,,,,,,,,60fd55ed264098eb4692f1d9,61036ae405f315829a6dd535,2021-07-30_12h59.51.023,Simcolourproject_2stim_asymm_v5,2020.2.10,MacIntel,60,61025ae37ef11b136ea224fe,,,,,,,,,2836,-78,-44,1,0,0,response5disk,,2,12,-14,1,0,0,rectangle,12,-14,1,0,0,12,-14,1,0,0,0,58,58,156,1,,,,,,,,
,,,,,,,,,,,,,FF,,,,,,,,0.968,,,,,,,,,,,,,,,,,,,,,,60fd55ed264098eb4692f1d9,61036ae405f315829a6dd535,2021-07-30_12h59.51.023,Simcolourproject_2stim_asymm_v5,2020.2.10,MacIntel,60,61025ae37ef11b136ea224fe,,,,,,,,,1357,30,54,1,0,0,response1disk,,7,15,-4,1,0,0,rectangle,15,-4,1,0,0,15,-4,1,0,0,0,59,59,25,1,,,,,,,,
,,,,,,,,,,,,,FF,,,,,,,,0.719,,,,,,,,,,,,,,,,,,,,,,60fd55ed264098eb4692f1d9,61036ae405f315829a6dd535,2021-07-30_12h59.51.023,Simcolourproject_2stim_asymm_v5,2020.2.10,MacIntel,60,61025ae37ef11b136ea224fe,,,,,,,,,4235,-48,75,1,0,0,response7disk,,0,-21,12,1,0,0,rectangle,-21,12,1,0,0,-21,12,1,0,0,0,60,60,41,1,,,,,,,,
,,,,,,,,,,,,,FF,,,,,,,,0.666,,,,,,,,,,,,,,,,,,,,,,60fd55ed264098eb4692f1d9,61036ae405f315829a6dd535,2021-07-30_12h59.51.023,Simcolourproject_2stim_asymm_v5,2020.2.10,MacIntel,60,61025ae37ef11b136ea224fe,,,,,,,,,2403,26,63,1,0,0,response1disk,,7,4,-8,1,0,0,rectangle,4,-8,1,0,0,4,-8,1,0,0,0,61,61,107,1,,,,,,,,
,,,,,,,,,,,,,FF,,,,,,,,0.571,,,,,,,,,,,,,,,,,,,,,,60fd55ed264098eb4692f1d9,61036ae405f315829a6dd535,2021-07-30_12h59.51.023,Simcolourproject_2stim_asymm_v5,2020.2.10,MacIntel,60,61025ae37ef11b136ea224fe,,,,,,,,,13,32,49,1,0,0,response1disk,,7,8,-6,1,0,0,rectangle,8,-6,1,0,0,8,-6,1,0,0,0,62,62,61,1,,,,,,,,
,,,,,,,,,,,,,FF,,,,,,,,0.9,,,,,,,,,,,,,,,,,,,,,,60fd55ed264098eb4692f1d9,61036ae405f315829a6dd535,2021-07-30_12h59.51.023,Simcolourproject_2stim_asymm_v5,2020.2.10,MacIntel,60,61025ae37ef11b136ea224fe,,,,,,,,,1886,-32,70,1,0,0,response7disk,,0,-5,15,1,0,0,rectangle,-5,15,1,0,0,-5,15,1,0,0,0,63,63,59,1,,,,,,,,
,,,,,,,,,,,,,FF,,,,,,,,0.666,,,,,,,,,,,,,,,,,,,,,,60fd55ed264098eb4692f1d9,61036ae405f315829a6dd535,2021-07-30_12h59.51.023,Simcolourproject_2stim_asymm_v5,2020.2.10,MacIntel,60,61025ae37ef11b136ea224fe,,,,,,,,,1004,32,70,1,0,0,response1disk,,7,12,-5,1,0,0,rectangle,12,-5,1,0,0,12,-5,1,0,0,0,64,64,50,1,,,,,,,,
,,,,,,,,,,,,,FF,,,,,,,,0.635,,,,,,,,,,,,,,,,,,,,,,60fd55ed264098eb4692f1d9,61036ae405f315829a6dd535,2021-07-30_12h59.51.023,Simcolourproject_2stim_asymm_v5,2020.2.10,MacIntel,60,61025ae37ef11b136ea224fe,,,,,,,,,1417,32,61,1,0,0,response1disk,,7,19,-2,1,0,0,rectangle,97,33,1,0,0,0,-7,1,0,0,0,65,65,143,1,,response1disk_3,TRUE,6,6,"[183,177,66,290,240,69,196,207,250,124,133,29,275,120,303,134,223,322,0,294]",1.67,rectangle
,,,,,,,,,,,,,FF,,,,,,,,0.701,,,,,,,,,,,,,,,,,,,,,,60fd55ed264098eb4692f1d9,61036ae405f315829a6dd535,2021-07-30_12h59.51.023,Simcolourproject_2stim_asymm_v5,2020.2.10,MacIntel,60,61025ae37ef11b136ea224fe,,,,,,,,,2505,34,81,1,0,0,response1disk,,7,4,-12,1,0,0,rectangle,4,-12,1,0,0,4,-12,1,0,0,0,66,66,84,1,,,,,,,,
,,,,,,,,,,,,,FF,,,,,,,,1.05,,,,,,,,,,,,,,,,,,,,,,60fd55ed264098eb4692f1d9,61036ae405f315829a6dd535,2021-07-30_12h59.51.023,Simcolourproject_2stim_asymm_v5,2020.2.10,MacIntel,60,61025ae37ef11b136ea224fe,,,,,,,,,164,-45,-66,1,0,0,response5disk,,3,12,1,1,0,0,rectangle,12,1,1,0,0,12,1,1,0,0,0,67,67,111,1,,,,,,,,
,,,,,,,,,,,,,FF,,,,,,,,3.52,,,,,,,,,,,,,,,,,,,,,,60fd55ed264098eb4692f1d9,61036ae405f315829a6dd535,2021-07-30_12h59.51.023,Simcolourproject_2stim_asymm_v5,2020.2.10,MacIntel,60,61025ae37ef11b136ea224fe,,,,,,,,,2333,37,44,1,0,0,response1disk,,7,18,-1,1,0,0,rectangle,39,-103,1,0,0,11,-10,1,0,0,0,68,68,87,1,,response3disk_3,TRUE,4,4,"[183,177,66,290,240,69,196,207,250,124,133,29,275,120,303,134,223,322,0,294]",1.371,rectangle
,,,,,,,,,,,,,FF,,,,,,,,1.135,,,,,,,,,,,,,,,,,,,,,,60fd55ed264098eb4692f1d9,61036ae405f315829a6dd535,2021-07-30_12h59.51.023,Simcolourproject_2stim_asymm_v5,2020.2.10,MacIntel,60,61025ae37ef11b136ea224fe,,,,,,,,,4105,105,34,1,0,0,response1disk,,6,19,-5,1,0,0,rectangle,19,-5,1,0,0,19,-5,1,0,0,0,69,69,6,1,,,,,,,,
,,,,,,,,,,,,,FF,,,,,,,,0.633,,,,,,,,,,,,,,,,,,,,,,60fd55ed264098eb4692f1d9,61036ae405f315829a6dd535,2021-07-30_12h59.51.023,Simcolourproject_2stim_asymm_v5,2020.2.10,MacIntel,60,61025ae37ef11b136ea224fe,,,,,,,,,499,26,48,1,0,0,response1disk,,7,12,-4,1,0,0,rectangle,12,-4,1,0,0,12,-4,1,0,0,0,70,70,125,1,,,,,,,,
,,,,,,,,,,,,,FF,,,,,,,,1.305,,,,,,,,,,,,,,,,,,,,,,60fd55ed264098eb4692f1d9,61036ae405f315829a6dd535,2021-07-30_12h59.51.023,Simcolourproject_2stim_asymm_v5,2020.2.10,MacIntel,60,61025ae37ef11b136ea224fe,,,,,,,,,4147,38,-101,1,0,0,response3disk,,4,9,-8,1,0,0,rectangle,9,-8,1,0,0,9,-8,1,0,0,0,71,71,64,1,,,,,,,,
,,,,,,,,,,,,,FF,,,,,,,,0.684,,,,,,,,,,,,,,,,,,,,,,60fd55ed264098eb4692f1d9,61036ae405f315829a6dd535,2021-07-30_12h59.51.023,Simcolourproject_2stim_asymm_v5,2020.2.10,MacIntel,60,61025ae37ef11b136ea224fe,,,,,,,,,3603,22,60,1,0,0,response1disk,,7,11,7,1,0,0,rectangle,11,7,1,0,0,11,7,1,0,0,0,72,72,92,1,,,,,,,,
,,,,,,,,,,,,,FF,,,,,,,,1.337,,,,,,,,,,,,,,,,,,,,,,60fd55ed264098eb4692f1d9,61036ae405f315829a6dd535,2021-07-30_12h59.51.023,Simcolourproject_2stim_asymm_v5,2020.2.10,MacIntel,60,61025ae37ef11b136ea224fe,,,,,,,,,2220,89,37,1,0,0,response1disk,,6,11,1,1,0,0,rectangle,11,1,1,0,0,11,1,1,0,0,0,73,73,130,1,,,,,,,,
,,,,,,,,,,,,,FF,,,,,,,,0.584,,,,,,,,,,,,,,,,,,,,,,60fd55ed264098eb4692f1d9,61036ae405f315829a6dd535,2021-07-30_12h59.51.023,Simcolourproject_2stim_asymm_v5,2020.2.10,MacIntel,60,61025ae37ef11b136ea224fe,,,,,,,,,2375,25,54,1,0,0,response1disk,,7,22,8,1,0,0,rectangle,22,8,1,0,0,22,8,1,0,0,0,74,74,67,1,,,,,,,,
,,,,,,,,,,,,,FF,,,,,,,,0.618,,,,,,,,,,,,,,,,,,,,,,60fd55ed264098eb4692f1d9,61036ae405f315829a6dd535,2021-07-30_12h59.51.023,Simcolourproject_2stim_asymm_v5,2020.2.10,MacIntel,60,61025ae37ef11b136ea224fe,,,,,,,,,3954,31,57,1,0,0,response1disk,,7,15,-15,1,0,0,rectangle,15,-15,1,0,0,15,-15,1,0,0,0,75,75,91,1,,,,,,,,
,,,,,,,,,,,,,FF,,,,,,,,0.684,,,,,,,,,,,,,,,,,,,,,,60fd55ed264098eb4692f1d9,61036ae405f315829a6dd535,2021-07-30_12h59.51.023,Simcolourproject_2stim_asymm_v5,2020.2.10,MacIntel,60,61025ae37ef11b136ea224fe,,,,,,,,,2015,26,36,1,0,0,response1disk,,7,19,-13,1,0,0,rectangle,19,-13,1,0,0,19,-13,1,0,0,0,76,76,90,1,,,,,,,,
,,,,,,,,,,,,,FF,,,,,,,,0.616,,,,,,,,,,,,,,,,,,,,,,60fd55ed264098eb4692f1d9,61036ae405f315829a6dd535,2021-07-30_12h59.51.023,Simcolourproject_2stim_asymm_v5,2020.2.10,MacIntel,60,61025ae37ef11b136ea224fe,,,,,,,,,4231,26,73,1,0,0,response1disk,,7,19,13,1,0,0,rectangle,19,13,1,0,0,19,13,1,0,0,0,77,77,153,1,,,,,,,,
,,,,,,,,,,,,,FF,,,,,,,,0.821,,,,,,,,,,,,,,,,,,,,,,60fd55ed264098eb4692f1d9,61036ae405f315829a6dd535,2021-07-30_12h59.51.023,Simcolourproject_2stim_asymm_v5,2020.2.10,MacIntel,60,61025ae37ef11b136ea224fe,,,,,,,,,2847,104,41,1,0,0,response1disk,,6,8,3,1,0,0,rectangle,8,3,1,0,0,8,3,1,0,0,0,78,78,80,1,,,,,,,,
,,,,,,,,,,,,,FF,,,,,,,,0.519,,,,,,,,,,,,,,,,,,,,,,60fd55ed264098eb4692f1d9,61036ae405f315829a6dd535,2021-07-30_12h59.51.023,Simcolourproject_2stim_asymm_v5,2020.2.10,MacIntel,60,61025ae37ef11b136ea224fe,,,,,,,,,832,32,51,1,0,0,response1disk,,7,26,-3,1,0,0,rectangle,26,-3,1,0,0,26,-3,1,0,0,0,79,79,74,1,,,,,,,,
,,,,,,,,,,,,,FF,,,,,,,,0.622,,,,,,,,,,,,,,,,,,,,,,60fd55ed264098eb4692f1d9,61036ae405f315829a6dd535,2021-07-30_12h59.51.023,Simcolourproject_2stim_asymm_v5,2020.2.10,MacIntel,60,61025ae37ef11b136ea224fe,,,,,,,,,939,35,76,1,0,0,response1disk,,7,24,-3,1,0,0,rectangle,24,-3,1,0,0,24,-3,1,0,0,0,80,80,105,1,,,,,,,,
,,,,,,,,,,,,,FF,,,,,,,,0.636,,,,,,,,,,,,,,,,,,,,,,60fd55ed264098eb4692f1d9,61036ae405f315829a6dd535,2021-07-30_12h59.51.023,Simcolourproject_2stim_asymm_v5,2020.2.10,MacIntel,60,61025ae37ef11b136ea224fe,,,,,,,,,1025,34,60,1,0,0,response1disk,,7,24,-14,1,0,0,rectangle,24,-14,1,0,0,24,-14,1,0,0,0,81,81,117,1,,,,,,,,
,,,,,,,,,,,,,FF,,,,,,,,1.072,,,,,,,,,,,,,,,,,,,,,,60fd55ed264098eb4692f1d9,61036ae405f315829a6dd535,2021-07-30_12h59.51.023,Simcolourproject_2stim_asymm_v5,2020.2.10,MacIntel,60,61025ae37ef11b136ea224fe,,,,,,,,,1470,86,39,1,0,0,response1disk,,6,19,7,1,0,0,rectangle,19,7,1,0,0,19,7,1,0,0,0,82,82,4,1,,,,,,,,
,,,,,,,,,,,,,FF,,,,,,,,0.5,,,,,,,,,,,,,,,,,,,,,,60fd55ed264098eb4692f1d9,61036ae405f315829a6dd535,2021-07-30_12h59.51.023,Simcolourproject_2stim_asymm_v5,2020.2.10,MacIntel,60,61025ae37ef11b136ea224fe,,,,,,,,,140,26,72,1,0,0,response1disk,,7,5,0,1,0,0,rectangle,5,0,1,0,0,5,0,1,0,0,0,83,83,110,1,,,,,,,,
,,,,,,,,,,,,,FF,,,,,,,,0.637,,,,,,,,,,,,,,,,,,,,,,60fd55ed264098eb4692f1d9,61036ae405f315829a6dd535,2021-07-30_12h59.51.023,Simcolourproject_2stim_asymm_v5,2020.2.10,MacIntel,60,61025ae37ef11b136ea224fe,,,,,,,,,500,28,68,1,0,0,response1disk,,7,15,1,1,0,0,rectangle,15,1,1,0,0,15,1,1,0,0,0,84,84,56,1,,,,,,,,
,,,,,,,,,,,,,FF,,,,,,,,1.1,,,,,,,,,,,,,,,,,,,,,,60fd55ed264098eb4692f1d9,61036ae405f315829a6dd535,2021-07-30_12h59.51.023,Simcolourproject_2stim_asymm_v5,2020.2.10,MacIntel,60,61025ae37ef11b136ea224fe,,,,,,,,,2299,-23,-94,1,0,0,response5disk,,3,4,-6,1,0,0,rectangle,4,-6,1,0,0,4,-6,1,0,0,0,85,85,122,1,,,,,,,,
,,,,,,,,,,,,,FF,,,,,,,,0.583,,,,,,,,,,,,,,,,,,,,,,60fd55ed264098eb4692f1d9,61036ae405f315829a6dd535,2021-07-30_12h59.51.023,Simcolourproject_2stim_asymm_v5,2020.2.10,MacIntel,60,61025ae37ef11b136ea224fe,,,,,,,,,4285,24,64,1,0,0,response1disk,,7,17,6,1,0,0,rectangle,17,6,1,0,0,17,6,1,0,0,0,86,86,70,1,,,,,,,,
,,,,,,,,,,,,,FF,,,,,,,,0.633,,,,,,,,,,,,,,,,,,,,,,60fd55ed264098eb4692f1d9,61036ae405f315829a6dd535,2021-07-30_12h59.51.023,Simcolourproject_2stim_asymm_v5,2020.2.10,MacIntel,60,61025ae37ef11b136ea224fe,,,,,,,,,1625,31,57,1,0,0,response1disk,,7,24,3,1,0,0,rectangle,24,3,1,0,0,24,3,1,0,0,0,87,87,3,1,,,,,,,,
,,,,,,,,,,,,,FF,,,,,,,,0.717,,,,,,,,,,,,,,,,,,,,,,60fd55ed264098eb4692f1d9,61036ae405f315829a6dd535,2021-07-30_12h59.51.023,Simcolourproject_2stim_asymm_v5,2020.2.10,MacIntel,60,61025ae37ef11b136ea224fe,,,,,,,,,488,35,61,1,0,0,response1disk,,7,25,-9,1,0,0,rectangle,25,-9,1,0,0,25,-9,1,0,0,0,88,88,141,1,,,,,,,,
,,,,,,,,,,,,,FF,,,,,,,,0.516,,,,,,,,,,,,,,,,,,,,,,60fd55ed264098eb4692f1d9,61036ae405f315829a6dd535,2021-07-30_12h59.51.023,Simcolourproject_2stim_asymm_v5,2020.2.10,MacIntel,60,61025ae37ef11b136ea224fe,,,,,,,,,923,35,73,1,0,0,response1disk,,7,29,15,1,0,0,rectangle,29,15,1,0,0,29,15,1,0,0,0,89,89,145,1,,,,,,,,
,,,,,,,,,,,,,FF,,,,,,,,0.75,,,,,,,,,,,,,,,,,,,,,,60fd55ed264098eb4692f1d9,61036ae405f315829a6dd535,2021-07-30_12h59.51.023,Simcolourproject_2stim_asymm_v5,2020.2.10,MacIntel,60,61025ae37ef11b136ea224fe,,,,,,,,,4095,-25,72,1,0,0,response7disk,,0,-7,7,1,0,0,rectangle,-7,7,1,0,0,-7,7,1,0,0,0,90,90,36,1,,,,,,,,
,,,,,,,,,,,,,FF,,,,,,,,0.734,,,,,,,,,,,,,,,,,,,,,,60fd55ed264098eb4692f1d9,61036ae405f315829a6dd535,2021-07-30_12h59.51.023,Simcolourproject_2stim_asymm_v5,2020.2.10,MacIntel,60,61025ae37ef11b136ea224fe,,,,,,,,,3426,-31,62,1,0,0,response7disk,,0,-6,6,1,0,0,rectangle,-6,6,1,0,0,-6,6,1,0,0,0,91,91,31,1,,,,,,,,
,,,,,,,,,,,,,FF,,,,,,,,0.917,,,,,,,,,,,,,,,,,,,,,,60fd55ed264098eb4692f1d9,61036ae405f315829a6dd535,2021-07-30_12h59.51.023,Simcolourproject_2stim_asymm_v5,2020.2.10,MacIntel,60,61025ae37ef11b136ea224fe,,,,,,,,,1238,20,57,1,0,0,response1disk,,7,4,-5,1,0,0,rectangle,4,-5,1,0,0,4,-5,1,0,0,0,92,92,0,1,,,,,,,,
,,,,,,,,,,,,,FF,,,,,,,,1.317,,,,,,,,,,,,,,,,,,,,,,60fd55ed264098eb4692f1d9,61036ae405f315829a6dd535,2021-07-30_12h59.51.023,Simcolourproject_2stim_asymm_v5,2020.2.10,MacIntel,60,61025ae37ef11b136ea224fe,,,,,,,,,1603,-83,27,1,0,0,response7disk,,1,-15,-2,1,0,0,rectangle,-15,-2,1,0,0,-15,-2,1,0,0,0,93,93,26,1,,,,,,,,
,,,,,,,,,,,,,FF,,,,,,,,0.933,,,,,,,,,,,,,,,,,,,,,,60fd55ed264098eb4692f1d9,61036ae405f315829a6dd535,2021-07-30_12h59.51.023,Simcolourproject_2stim_asymm_v5,2020.2.10,MacIntel,60,61025ae37ef11b136ea224fe,,,,,,,,,2675,19,67,1,0,0,response1disk,,7,-4,-10,1,0,0,rectangle,-4,-10,1,0,0,-4,-10,1,0,0,0,94,94,86,1,,,,,,,,
,,,,,,,,,,,,,FF,,,,,,,,8.121,,,,,,,,,,,,,,,,,,,,,,60fd55ed264098eb4692f1d9,61036ae405f315829a6dd535,2021-07-30_12h59.51.023,Simcolourproject_2stim_asymm_v5,2020.2.10,MacIntel,60,61025ae37ef11b136ea224fe,,,,,,,,,336,37,82,1,0,0,response1disk,,7,-1,-5,1,0,0,rectangle,-1,-5,1,0,0,-1,-5,1,0,0,0,95,95,65,1,,,,,,,,
,,,,,,,,,,,,,FF,,,,,,,,0.918,,,,,,,,,,,,,,,,,,,,,,60fd55ed264098eb4692f1d9,61036ae405f315829a6dd535,2021-07-30_12h59.51.023,Simcolourproject_2stim_asymm_v5,2020.2.10,MacIntel,60,61025ae37ef11b136ea224fe,,,,,,,,,1214,115,39,1,0,0,response1disk,,6,0,-1,1,0,0,rectangle,0,-1,1,0,0,0,-1,1,0,0,0,96,96,88,1,,,,,,,,
,,,,,,,,,,,,,FF,,,,,,,,0.635,,,,,,,,,,,,,,,,,,,,,,60fd55ed264098eb4692f1d9,61036ae405f315829a6dd535,2021-07-30_12h59.51.023,Simcolourproject_2stim_asymm_v5,2020.2.10,MacIntel,60,61025ae37ef11b136ea224fe,,,,,,,,,1181,20,59,1,0,0,response1disk,,7,6,-10,1,0,0,rectangle,6,-10,1,0,0,6,-10,1,0,0,0,97,97,57,1,,,,,,,,
,,,,,,,,,,,,,FF,,,,,,,,0.833,,,,,,,,,,,,,,,,,,,,,,60fd55ed264098eb4692f1d9,61036ae405f315829a6dd535,2021-07-30_12h59.51.023,Simcolourproject_2stim_asymm_v5,2020.2.10,MacIntel,60,61025ae37ef11b136ea224fe,,,,,,,,,724,-87,-44,1,0,0,response5disk,,2,-2,-5,1,0,0,rectangle,-2,-5,1,0,0,-2,-5,1,0,0,0,98,98,47,1,,,,,,,,
,,,,,,,,,,,,,FF,,,,,,,,0.65,,,,,,,,,,,,,,,,,,,,,,60fd55ed264098eb4692f1d9,61036ae405f315829a6dd535,2021-07-30_12h59.51.023,Simcolourproject_2stim_asymm_v5,2020.2.10,MacIntel,60,61025ae37ef11b136ea224fe,,,,,,,,,3014,26,50,1,0,0,response1disk,,7,-2,1,1,0,0,rectangle,-2,1,1,0,0,-2,1,1,0,0,0,99,99,124,1,,,,,,,,
,,,,,,,,,,,,,FF,,,,,,,,1.003,,,,,,,,,,,,,,,,,,,,,,60fd55ed264098eb4692f1d9,61036ae405f315829a6dd535,2021-07-30_12h59.51.023,Simcolourproject_2stim_asymm_v5,2020.2.10,MacIntel,60,61025ae37ef11b136ea224fe,,,,,,,,,492,32,70,1,0,0,response1disk,,7,13,0,1,0,0,rectangle,13,0,1,0,0,13,0,1,0,0,0,100,100,123,1,,,,,,,,
,,,,,,,,,,,,,FF,,,,,,,,0.589,,,,,,,,,,,,,,,,,,,,,,60fd55ed264098eb4692f1d9,61036ae405f315829a6dd535,2021-07-30_12h59.51.023,Simcolourproject_2stim_asymm_v5,2020.2.10,MacIntel,60,61025ae37ef11b136ea224fe,,,,,,,,,4307,50,64,1,0,0,response1disk,,7,15,-2,1,0,0,rectangle,15,-2,1,0,0,15,-2,1,0,0,0,101,101,108,1,,,,,,,,
,,,,,,,,,,,,,FF,,,,,,,,0.602,,,,,,,,,,,,,,,,,,,,,,60fd55ed264098eb4692f1d9,61036ae405f315829a6dd535,2021-07-30_12h59.51.023,Simcolourproject_2stim_asymm_v5,2020.2.10,MacIntel,60,61025ae37ef11b136ea224fe,,,,,,,,,950,30,62,1,0,0,response1disk,,7,23,2,1,0,0,rectangle,23,2,1,0,0,23,2,1,0,0,0,102,102,23,1,,,,,,,,
,,,,,,,,,,,,,FF,,,,,,,,0.602,,,,,,,,,,,,,,,,,,,,,,60fd55ed264098eb4692f1d9,61036ae405f315829a6dd535,2021-07-30_12h59.51.023,Simcolourproject_2stim_asymm_v5,2020.2.10,MacIntel,60,61025ae37ef11b136ea224fe,,,,,,,,,2008,32,60,1,0,0,response1disk,,7,15,4,1,0,0,rectangle,15,4,1,0,0,15,4,1,0,0,0,103,103,106,1,,,,,,,,
,,,,,,,,,,,,,FF,,,,,,,,0.903,,,,,,,,,,,,,,,,,,,,,,60fd55ed264098eb4692f1d9,61036ae405f315829a6dd535,2021-07-30_12h59.51.023,Simcolourproject_2stim_asymm_v5,2020.2.10,MacIntel,60,61025ae37ef11b136ea224fe,,,,,,,,,3097,-93,34,1,0,0,response7disk,,1,0,-2,1,0,0,rectangle,0,-2,1,0,0,0,-2,1,0,0,0,104,104,93,1,,,,,,,,
,,,,,,,,,,,,,FF,,,,,,,,0.701,,,,,,,,,,,,,,,,,,,,,,60fd55ed264098eb4692f1d9,61036ae405f315829a6dd535,2021-07-30_12h59.51.023,Simcolourproject_2stim_asymm_v5,2020.2.10,MacIntel,60,61025ae37ef11b136ea224fe,,,,,,,,,2330,32,83,1,0,0,response1disk,,7,21,-2,1,0,0,rectangle,21,-2,1,0,0,21,-2,1,0,0,0,105,105,132,1,,,,,,,,
,,,,,,,,,,,,,FF,,,,,,,,0.934,,,,,,,,,,,,,,,,,,,,,,60fd55ed264098eb4692f1d9,61036ae405f315829a6dd535,2021-07-30_12h59.51.023,Simcolourproject_2stim_asymm_v5,2020.2.10,MacIntel,60,61025ae37ef11b136ea224fe,,,,,,,,,2767,61,28,1,0,0,response1disk,,6,3,3,1,0,0,rectangle,3,3,1,0,0,3,3,1,0,0,0,106,106,44,1,,,,,,,,
,,,,,,,,,,,,,FF,,,,,,,,0.519,,,,,,,,,,,,,,,,,,,,,,60fd55ed264098eb4692f1d9,61036ae405f315829a6dd535,2021-07-30_12h59.51.023,Simcolourproject_2stim_asymm_v5,2020.2.10,MacIntel,60,61025ae37ef11b136ea224fe,,,,,,,,,317,28,71,1,0,0,response1disk,,7,16,15,1,0,0,rectangle,16,15,1,0,0,16,15,1,0,0,0,107,107,95,1,,,,,,,,
,,,,,,,,,,,,,FF,,,,,,,,0.568,,,,,,,,,,,,,,,,,,,,,,60fd55ed264098eb4692f1d9,61036ae405f315829a6dd535,2021-07-30_12h59.51.023,Simcolourproject_2stim_asymm_v5,2020.2.10,MacIntel,60,61025ae37ef11b136ea224fe,,,,,,,,,586,41,74,1,0,0,response1disk,,7,15,-2,1,0,0,rectangle,15,-2,1,0,0,15,-2,1,0,0,0,108,108,159,1,,,,,,,,
,,,,,,,,,,,,,FF,,,,,,,,0.619,,,,,,,,,,,,,,,,,,,,,,60fd55ed264098eb4692f1d9,61036ae405f315829a6dd535,2021-07-30_12h59.51.023,Simcolourproject_2stim_asymm_v5,2020.2.10,MacIntel,60,61025ae37ef11b136ea224fe,,,,,,,,,2336,34,69,1,0,0,response1disk,,7,23,2,1,0,0,rectangle,23,2,1,0,0,23,2,1,0,0,0,109,109,24,1,,,,,,,,
,,,,,,,,,,,,,FF,,,,,,,,0.6,,,,,,,,,,,,,,,,,,,,,,60fd55ed264098eb4692f1d9,61036ae405f315829a6dd535,2021-07-30_12h59.51.023,Simcolourproject_2stim_asymm_v5,2020.2.10,MacIntel,60,61025ae37ef11b136ea224fe,,,,,,,,,230,42,68,1,0,0,response1disk,,7,24,3,1,0,0,rectangle,24,3,1,0,0,24,3,1,0,0,0,110,110,85,1,,,,,,,,
,,,,,,,,,,,,,FF,,,,,,,,1.438,,,,,,,,,,,,,,,,,,,,,,60fd55ed264098eb4692f1d9,61036ae405f315829a6dd535,2021-07-30_12h59.51.023,Simcolourproject_2stim_asymm_v5,2020.2.10,MacIntel,60,61025ae37ef11b136ea224fe,,,,,,,,,1522,38,-75,1,0,0,response3disk,,4,20,-14,1,0,0,rectangle,20,-14,1,0,0,20,-14,1,0,0,0,111,111,104,1,,,,,,,,
,,,,,,,,,,,,,FF,,,,,,,,0.684,,,,,,,,,,,,,,,,,,,,,,60fd55ed264098eb4692f1d9,61036ae405f315829a6dd535,2021-07-30_12h59.51.023,Simcolourproject_2stim_asymm_v5,2020.2.10,MacIntel,60,61025ae37ef11b136ea224fe,,,,,,,,,42,29,87,1,0,0,response1disk,,7,21,3,1,0,0,rectangle,21,3,1,0,0,21,3,1,0,0,0,112,112,126,1,,,,,,,,
,,,,,,,,,,,,,FF,,,,,,,,0.866,,,,,,,,,,,,,,,,,,,,,,60fd55ed264098eb4692f1d9,61036ae405f315829a6dd535,2021-07-30_12h59.51.023,Simcolourproject_2stim_asymm_v5,2020.2.10,MacIntel,60,61025ae37ef11b136ea224fe,,,,,,,,,2341,36,69,1,0,0,response1disk,,7,20,4,1,0,0,rectangle,20,4,1,0,0,20,4,1,0,0,0,113,113,155,1,,,,,,,,
,,,,,,,,,,,,,FF,,,,,,,,0.97,,,,,,,,,,,,,,,,,,,,,,60fd55ed264098eb4692f1d9,61036ae405f315829a6dd535,2021-07-30_12h59.51.023,Simcolourproject_2stim_asymm_v5,2020.2.10,MacIntel,60,61025ae37ef11b136ea224fe,,,,,,,,,2895,77,-29,1,0,0,response3disk,,5,17,-8,1,0,0,rectangle,17,-8,1,0,0,17,-8,1,0,0,0,114,114,154,1,,,,,,,,
,,,,,,,,,,,,,FF,,,,,,,,0.852,,,,,,,,,,,,,,,,,,,,,,60fd55ed264098eb4692f1d9,61036ae405f315829a6dd535,2021-07-30_12h59.51.023,Simcolourproject_2stim_asymm_v5,2020.2.10,MacIntel,60,61025ae37ef11b136ea224fe,,,,,,,,,3966,-92,22,1,0,0,response7disk,,1,-7,7,1,0,0,rectangle,-7,7,1,0,0,-7,7,1,0,0,0,115,115,14,1,,,,,,,,
,,,,,,,,,,,,,FF,,,,,,,,0.582,,,,,,,,,,,,,,,,,,,,,,60fd55ed264098eb4692f1d9,61036ae405f315829a6dd535,2021-07-30_12h59.51.023,Simcolourproject_2stim_asymm_v5,2020.2.10,MacIntel,60,61025ae37ef11b136ea224fe,,,,,,,,,1875,27,67,1,0,0,response1disk,,7,7,-2,1,0,0,rectangle,7,-2,1,0,0,7,-2,1,0,0,0,116,116,9,1,,,,,,,,
,,,,,,,,,,,,,FF,,,,,,,,1.858,,,,,,,,,,,,,,,,,,,,,,60fd55ed264098eb4692f1d9,61036ae405f315829a6dd535,2021-07-30_12h59.51.023,Simcolourproject_2stim_asymm_v5,2020.2.10,MacIntel,60,61025ae37ef11b136ea224fe,,,,,,,,,3799,32,51,1,0,0,response1disk,,7,12,-3,1,0,0,rectangle,12,-3,1,0,0,12,-3,1,0,0,0,117,117,150,1,,,,,,,,
,,,,,,,,,,,,,FF,,,,,,,,0.553,,,,,,,,,,,,,,,,,,,,,,60fd55ed264098eb4692f1d9,61036ae405f315829a6dd535,2021-07-30_12h59.51.023,Simcolourproject_2stim_asymm_v5,2020.2.10,MacIntel,60,61025ae37ef11b136ea224fe,,,,,,,,,2552,28,59,1,0,0,response1disk,,7,12,3,1,0,0,rectangle,12,3,1,0,0,12,3,1,0,0,0,118,118,60,1,,,,,,,,
,,,,,,,,,,,,,FF,,,,,,,,1.302,,,,,,,,,,,,,,,,,,,,,,60fd55ed264098eb4692f1d9,61036ae405f315829a6dd535,2021-07-30_12h59.51.023,Simcolourproject_2stim_asymm_v5,2020.2.10,MacIntel,60,61025ae37ef11b136ea224fe,,,,,,,,,3663,96,41,1,0,0,response1disk,,6,10,3,1,0,0,rectangle,-36,99,1,0,0,-9,0,1,0,0,0,119,119,82,1,,response7disk_3,TRUE,0,0,"[183,177,66,290,240,69,196,207,250,124,133,29,275,120,303,134,223,322,0,294]",1.718,rectangle
,,,,,,,,,,,,,FF,,,,,,,,0.601,,,,,,,,,,,,,,,,,,,,,,60fd55ed264098eb4692f1d9,61036ae405f315829a6dd535,2021-07-30_12h59.51.023,Simcolourproject_2stim_asymm_v5,2020.2.10,MacIntel,60,61025ae37ef11b136ea224fe,,,,,,,,,2463,26,62,1,0,0,response1disk,,7,10,-4,1,0,0,rectangle,10,-4,1,0,0,10,-4,1,0,0,0,120,120,144,1,,,,,,,,
,,,,,,,,,,,,,FF,,,,,,,,0.823,,,,,,,,,,,,,,,,,,,,,,60fd55ed264098eb4692f1d9,61036ae405f315829a6dd535,2021-07-30_12h59.51.023,Simcolourproject_2stim_asymm_v5,2020.2.10,MacIntel,60,61025ae37ef11b136ea224fe,,,,,,,,,1870,29,54,1,0,0,response1disk,,7,10,3,1,0,0,rectangle,10,3,1,0,0,10,3,1,0,0,0,121,121,52,1,,,,,,,,
,,,,,,,,,,,,,FF,,,,,,,,0.703,,,,,,,,,,,,,,,,,,,,,,60fd55ed264098eb4692f1d9,61036ae405f315829a6dd535,2021-07-30_12h59.51.023,Simcolourproject_2stim_asymm_v5,2020.2.10,MacIntel,60,61025ae37ef11b136ea224fe,,,,,,,,,2996,80,37,1,0,0,response1disk,,6,6,2,1,0,0,rectangle,6,2,1,0,0,6,2,1,0,0,0,122,122,136,1,,,,,,,,
,,,,,,,,,,,,,FF,,,,,,,,1.116,,,,,,,,,,,,,,,,,,,,,,60fd55ed264098eb4692f1d9,61036ae405f315829a6dd535,2021-07-30_12h59.51.023,Simcolourproject_2stim_asymm_v5,2020.2.10,MacIntel,60,61025ae37ef11b136ea224fe,,,,,,,,,1229,82,33,1,0,0,response1disk,,6,6,1,1,0,0,rectangle,-30,94,1,0,0,3,-2,1,0,0,0,123,123,46,1,,response7disk_3,TRUE,0,0,"[183,177,66,290,240,69,196,207,250,124,133,29,275,120,303,134,223,322,0,294]",1.549,rectangle
,,,,,,,,,,,,,FF,,,,,,,,0.651,,,,,,,,,,,,,,,,,,,,,,60fd55ed264098eb4692f1d9,61036ae405f315829a6dd535,2021-07-30_12h59.51.023,Simcolourproject_2stim_asymm_v5,2020.2.10,MacIntel,60,61025ae37ef11b136ea224fe,,,,,,,,,2376,34,68,1,0,0,response1disk,,7,11,1,1,0,0,rectangle,11,1,1,0,0,11,1,1,0,0,0,124,124,22,1,,,,,,,,
,,,,,,,,,,,,,FF,,,,,,,,0.487,,,,,,,,,,,,,,,,,,,,,,60fd55ed264098eb4692f1d9,61036ae405f315829a6dd535,2021-07-30_12h59.51.023,Simcolourproject_2stim_asymm_v5,2020.2.10,MacIntel,60,61025ae37ef11b136ea224fe,,,,,,,,,3018,27,60,1,0,0,response1disk,,7,19,7,1,0,0,rectangle,19,7,1,0,0,19,7,1,0,0,0,125,125,81,1,,,,,,,,
,,,,,,,,,,,,,FF,,,,,,,,0.52,,,,,,,,,,,,,,,,,,,,,,60fd55ed264098eb4692f1d9,61036ae405f315829a6dd535,2021-07-30_12h59.51.023,Simcolourproject_2stim_asymm_v5,2020.2.10,MacIntel,60,61025ae37ef11b136ea224fe,,,,,,,,,1337,36,75,1,0,0,response1disk,,7,14,-5,1,0,0,rectangle,14,-5,1,0,0,14,-5,1,0,0,0,126,126,53,1,,,,,,,,
,,,,,,,,,,,,,FF,,,,,,,,0.599,,,,,,,,,,,,,,,,,,,,,,60fd55ed264098eb4692f1d9,61036ae405f315829a6dd535,2021-07-30_12h59.51.023,Simcolourproject_2stim_asymm_v5,2020.2.10,MacIntel,60,61025ae37ef11b136ea224fe,,,,,,,,,734,33,54,1,0,0,response1disk,,7,14,-5,1,0,0,rectangle,14,-5,1,0,0,14,-5,1,0,0,0,127,127,98,1,,,,,,,,
,,,,,,,,,,,,,FF,,,,,,,,1.203,,,,,,,,,,,,,,,,,,,,,,60fd55ed264098eb4692f1d9,61036ae405f315829a6dd535,2021-07-30_12h59.51.023,Simcolourproject_2stim_asymm_v5,2020.2.10,MacIntel,60,61025ae37ef11b136ea224fe,,,,,,,,,1597,-79,31,1,0,0,response7disk,,1,0,4,1,0,0,rectangle,0,4,1,0,0,0,4,1,0,0,0,128,128,28,1,,,,,,,,
,,,,,,,,,,,,,FF,,,,,,,,0.637,,,,,,,,,,,,,,,,,,,,,,60fd55ed264098eb4692f1d9,61036ae405f315829a6dd535,2021-07-30_12h59.51.023,Simcolourproject_2stim_asymm_v5,2020.2.10,MacIntel,60,61025ae37ef11b136ea224fe,,,,,,,,,3530,19,66,1,0,0,response1disk,,7,14,-7,1,0,0,rectangle,14,-7,1,0,0,14,-7,1,0,0,0,129,129,128,1,,,,,,,,
,,,,,,,,,,,,,FF,,,,,,,,0.435,,,,,,,,,,,,,,,,,,,,,,60fd55ed264098eb4692f1d9,61036ae405f315829a6dd535,2021-07-30_12h59.51.023,Simcolourproject_2stim_asymm_v5,2020.2.10,MacIntel,60,61025ae37ef11b136ea224fe,,,,,,,,,1398,29,58,1,0,0,response1disk,,7,20,10,1,0,0,rectangle,20,10,1,0,0,20,10,1,0,0,0,130,130,121,1,,,,,,,,
,,,,,,,,,,,,,FF,,,,,,,,0.485,,,,,,,,,,,,,,,,,,,,,,60fd55ed264098eb4692f1d9,61036ae405f315829a6dd535,2021-07-30_12h59.51.023,Simcolourproject_2stim_asymm_v5,2020.2.10,MacIntel,60,61025ae37ef11b136ea224fe,,,,,,,,,712,34,66,1,0,0,response1disk,,7,23,4,1,0,0,rectangle,23,4,1,0,0,23,4,1,0,0,0,131,131,30,1,,,,,,,,
,,,,,,,,,,,,,FF,,,,,,,,0.535,,,,,,,,,,,,,,,,,,,,,,60fd55ed264098eb4692f1d9,61036ae405f315829a6dd535,2021-07-30_12h59.51.023,Simcolourproject_2stim_asymm_v5,2020.2.10,MacIntel,60,61025ae37ef11b136ea224fe,,,,,,,,,2682,37,67,1,0,0,response1disk,,7,25,-3,1,0,0,rectangle,-42,-110,1,0,0,-4,-2,1,0,0,0,132,132,158,1,,response5disk_3,TRUE,3,3,"[183,177,66,290,240,69,196,207,250,124,133,29,275,120,303,134,223,322,0,294]",1.718,rectangle
,,,,,,,,,,,,,FF,,,,,,,,0.601,,,,,,,,,,,,,,,,,,,,,,60fd55ed264098eb4692f1d9,61036ae405f315829a6dd535,2021-07-30_12h59.51.023,Simcolourproject_2stim_asymm_v5,2020.2.10,MacIntel,60,61025ae37ef11b136ea224fe,,,,,,,,,251,19,53,1,0,0,response1disk,,7,17,-11,1,0,0,rectangle,-81,34,1,0,0,4,6,1,0,0,0,133,133,118,1,,response7disk_3,TRUE,1,1,"[183,177,66,290,240,69,196,207,250,124,133,29,275,120,303,134,223,322,0,294]",1.621,rectangle
,,,,,,,,,,,,,FF,,,,,,,,1.101,,,,,,,,,,,,,,,,,,,,,,60fd55ed264098eb4692f1d9,61036ae405f315829a6dd535,2021-07-30_12h59.51.023,Simcolourproject_2stim_asymm_v5,2020.2.10,MacIntel,60,61025ae37ef11b136ea224fe,,,,,,,,,71,99,32,1,0,0,response1disk,,6,-12,-13,1,0,0,rectangle,-12,-13,1,0,0,-12,-13,1,0,0,0,134,134,29,1,,,,,,,,
,,,,,,,,,,,,,FF,,,,,,,,0.917,,,,,,,,,,,,,,,,,,,,,,60fd55ed264098eb4692f1d9,61036ae405f315829a6dd535,2021-07-30_12h59.51.023,Simcolourproject_2stim_asymm_v5,2020.2.10,MacIntel,60,61025ae37ef11b136ea224fe,,,,,,,,,4364,116,37,1,0,0,response1disk,,6,9,0,1,0,0,rectangle,9,0,1,0,0,9,0,1,0,0,0,135,135,140,1,,,,,,,,
,,,,,,,,,,,,,FF,,,,,,,,0.635,,,,,,,,,,,,,,,,,,,,,,60fd55ed264098eb4692f1d9,61036ae405f315829a6dd535,2021-07-30_12h59.51.023,Simcolourproject_2stim_asymm_v5,2020.2.10,MacIntel,60,61025ae37ef11b136ea224fe,,,,,,,,,4130,21,65,1,0,0,response1disk,,7,15,6,1,0,0,rectangle,15,6,1,0,0,15,6,1,0,0,0,136,136,58,1,,,,,,,,
,,,,,,,,,,,,,FF,,,,,,,,0.571,,,,,,,,,,,,,,,,,,,,,,60fd55ed264098eb4692f1d9,61036ae405f315829a6dd535,2021-07-30_12h59.51.023,Simcolourproject_2stim_asymm_v5,2020.2.10,MacIntel,60,61025ae37ef11b136ea224fe,,,,,,,,,4311,42,61,1,0,0,response1disk,,7,21,14,1,0,0,rectangle,21,14,1,0,0,21,14,1,0,0,0,137,137,119,1,,,,,,,,
,,,,,,,,,,,,,FF,,,,,,,,0.483,,,,,,,,,,,,,,,,,,,,,,60fd55ed264098eb4692f1d9,61036ae405f315829a6dd535,2021-07-30_12h59.51.023,Simcolourproject_2stim_asymm_v5,2020.2.10,MacIntel,60,61025ae37ef11b136ea224fe,,,,,,,,,3618,26,70,1,0,0,response1disk,,7,11,8,1,0,0,rectangle,11,8,1,0,0,11,8,1,0,0,0,138,138,137,1,,,,,,,,
,,,,,,,,,,,,,FF,,,,,,,,0.534,,,,,,,,,,,,,,,,,,,,,,60fd55ed264098eb4692f1d9,61036ae405f315829a6dd535,2021-07-30_12h59.51.023,Simcolourproject_2stim_asymm_v5,2020.2.10,MacIntel,60,61025ae37ef11b136ea224fe,,,,,,,,,3540,24,60,1,0,0,response1disk,,7,6,-5,1,0,0,rectangle,6,-5,1,0,0,6,-5,1,0,0,0,139,139,103,1,,,,,,,,
,,,,,,,,,,,,,FF,,,,,,,,0.421,,,,,,,,,,,,,,,,,,,,,,60fd55ed264098eb4692f1d9,61036ae405f315829a6dd535,2021-07-30_12h59.51.023,Simcolourproject_2stim_asymm_v5,2020.2.10,MacIntel,60,61025ae37ef11b136ea224fe,,,,,,,,,3012,30,50,1,0,0,response1disk,,7,22,3,1,0,0,rectangle,22,3,1,0,0,22,3,1,0,0,0,140,140,112,1,,,,,,,,
,,,,,,,,,,,,,FF,,,,,,,,0.367,,,,,,,,,,,,,,,,,,,,,,60fd55ed264098eb4692f1d9,61036ae405f315829a6dd535,2021-07-30_12h59.51.023,Simcolourproject_2stim_asymm_v5,2020.2.10,MacIntel,60,61025ae37ef11b136ea224fe,,,,,,,,,2808,38,69,1,0,0,response1disk,,7,20,0,1,0,0,rectangle,20,0,1,0,0,20,0,1,0,0,0,141,141,138,1,,,,,,,,
,,,,,,,,,,,,,FF,,,,,,,,1.405,,,,,,,,,,,,,,,,,,,,,,60fd55ed264098eb4692f1d9,61036ae405f315829a6dd535,2021-07-30_12h59.51.023,Simcolourproject_2stim_asymm_v5,2020.2.10,MacIntel,60,61025ae37ef11b136ea224fe,,,,,,,,,2778,35,-105,1,0,0,response3disk,,4,5,1,1,0,0,rectangle,5,1,1,0,0,5,1,1,0,0,0,142,142,39,1,,,,,,,,
,,,,,,,,,,,,,FF,,,,,,,,0.567,,,,,,,,,,,,,,,,,,,,,,60fd55ed264098eb4692f1d9,61036ae405f315829a6dd535,2021-07-30_12h59.51.023,Simcolourproject_2stim_asymm_v5,2020.2.10,MacIntel,60,61025ae37ef11b136ea224fe,,,,,,,,,3179,16,58,1,0,0,response1disk,,7,12,-8,1,0,0,rectangle,12,-8,1,0,0,12,-8,1,0,0,0,143,143,113,1,,,,,,,,
,,,,,,,,,,,,,FF,,,,,,,,1.35,,,,,,,,,,,,,,,,,,,,,,60fd55ed264098eb4692f1d9,61036ae405f315829a6dd535,2021-07-30_12h59.51.023,Simcolourproject_2stim_asymm_v5,2020.2.10,MacIntel,60,61025ae37ef11b136ea224fe,,,,,,,,,3757,39,87,1,0,0,response1disk,,7,11,-8,1,0,0,rectangle,11,-8,1,0,0,11,-8,1,0,0,0,144,144,78,1,,,,,,,,
,,,,,,,,,,,,,FF,,,,,,,,0.735,,,,,,,,,,,,,,,,,,,,,,60fd55ed264098eb4692f1d9,61036ae405f315829a6dd535,2021-07-30_12h59.51.023,Simcolourproject_2stim_asymm_v5,2020.2.10,MacIntel,60,61025ae37ef11b136ea224fe,,,,,,,,,3668,-23,80,1,0,0,response7disk,,0,9,-4,1,0,0,rectangle,9,-4,1,0,0,9,-4,1,0,0,0,145,145,32,1,,,,,,,,
,,,,,,,,,,,,,FF,,,,,,,,0.538,,,,,,,,,,,,,,,,,,,,,,60fd55ed264098eb4692f1d9,61036ae405f315829a6dd535,2021-07-30_12h59.51.023,Simcolourproject_2stim_asymm_v5,2020.2.10,MacIntel,60,61025ae37ef11b136ea224fe,,,,,,,,,3951,25,50,1,0,0,response1disk,,7,15,1,1,0,0,rectangle,15,1,1,0,0,15,1,1,0,0,0,146,146,75,1,,,,,,,,
,,,,,,,,,,,,,FF,,,,,,,,0.751,,,,,,,,,,,,,,,,,,,,,,60fd55ed264098eb4692f1d9,61036ae405f315829a6dd535,2021-07-30_12h59.51.023,Simcolourproject_2stim_asymm_v5,2020.2.10,MacIntel,60,61025ae37ef11b136ea224fe,,,,,,,,,1610,-64,24,1,0,0,response7disk,,1,-18,12,1,0,0,rectangle,-18,12,1,0,0,-18,12,1,0,0,0,147,147,139,1,,,,,,,,
,,,,,,,,,,,,,FF,,,,,,,,0.601,,,,,,,,,,,,,,,,,,,,,,60fd55ed264098eb4692f1d9,61036ae405f315829a6dd535,2021-07-30_12h59.51.023,Simcolourproject_2stim_asymm_v5,2020.2.10,MacIntel,60,61025ae37ef11b136ea224fe,,,,,,,,,386,31,64,1,0,0,response1disk,,7,7,5,1,0,0,rectangle,7,5,1,0,0,7,5,1,0,0,0,148,148,142,1,,,,,,,,
,,,,,,,,,,,,,FF,,,,,,,,0.519,,,,,,,,,,,,,,,,,,,,,,60fd55ed264098eb4692f1d9,61036ae405f315829a6dd535,2021-07-30_12h59.51.023,Simcolourproject_2stim_asymm_v5,2020.2.10,MacIntel,60,61025ae37ef11b136ea224fe,,,,,,,,,2405,23,57,1,0,0,response1disk,,7,14,4,1,0,0,rectangle,14,4,1,0,0,14,4,1,0,0,0,149,149,135,1,,,,,,,,
,,,,,,,,,,,,,FF,,,,,,,,0.6,,,,,,,,,,,,,,,,,,,,,,60fd55ed264098eb4692f1d9,61036ae405f315829a6dd535,2021-07-30_12h59.51.023,Simcolourproject_2stim_asymm_v5,2020.2.10,MacIntel,60,61025ae37ef11b136ea224fe,,,,,,,,,1484,40,88,1,0,0,response1disk,,7,11,6,1,0,0,rectangle,11,6,1,0,0,11,6,1,0,0,0,150,150,66,1,,,,,,,,
,,,,,,,,,,,,,FF,,,,,,,,0.732,,,,,,,,,,,,,,,,,,,,,,60fd55ed264098eb4692f1d9,61036ae405f315829a6dd535,2021-07-30_12h59.51.023,Simcolourproject_2stim_asymm_v5,2020.2.10,MacIntel,60,61025ae37ef11b136ea224fe,,,,,,,,,628,39,59,1,0,0,response1disk,,7,3,-12,1,0,0,rectangle,3,-12,1,0,0,3,-12,1,0,0,0,151,151,55,1,,,,,,,,
,,,,,,,,,,,,,FF,,,,,,,,0.55,,,,,,,,,,,,,,,,,,,,,,60fd55ed264098eb4692f1d9,61036ae405f315829a6dd535,2021-07-30_12h59.51.023,Simcolourproject_2stim_asymm_v5,2020.2.10,MacIntel,60,61025ae37ef11b136ea224fe,,,,,,,,,3265,22,55,1,0,0,response1disk,,7,13,6,1,0,0,rectangle,13,6,1,0,0,13,6,1,0,0,0,152,152,37,1,,,,,,,,
,,,,,,,,,,,,,FF,,,,,,,,0.556,,,,,,,,,,,,,,,,,,,,,,60fd55ed264098eb4692f1d9,61036ae405f315829a6dd535,2021-07-30_12h59.51.023,Simcolourproject_2stim_asymm_v5,2020.2.10,MacIntel,60,61025ae37ef11b136ea224fe,,,,,,,,,300,34,70,1,0,0,response1disk,,7,13,10,1,0,0,rectangle,13,10,1,0,0,13,10,1,0,0,0,153,153,146,1,,,,,,,,
,,,,,,,,,,,,,FF,,,,,,,,0.419,,,,,,,,,,,,,,,,,,,,,,60fd55ed264098eb4692f1d9,61036ae405f315829a6dd535,2021-07-30_12h59.51.023,Simcolourproject_2stim_asymm_v5,2020.2.10,MacIntel,60,61025ae37ef11b136ea224fe,,,,,,,,,3158,27,61,1,0,0,response1disk,,7,15,-16,1,0,0,rectangle,15,-16,1,0,0,15,-16,1,0,0,0,154,154,120,1,,,,,,,,
,,,,,,,,,,,,,FF,,,,,,,,0.8,,,,,,,,,,,,,,,,,,,,,,60fd55ed264098eb4692f1d9,61036ae405f315829a6dd535,2021-07-30_12h59.51.023,Simcolourproject_2stim_asymm_v5,2020.2.10,MacIntel,60,61025ae37ef11b136ea224fe,,,,,,,,,2673,75,39,1,0,0,response1disk,,6,5,5,1,0,0,rectangle,5,5,1,0,0,5,5,1,0,0,0,155,155,10,1,,,,,,,,
,,,,,,,,,,,,,FF,,,,,,,,0.565,,,,,,,,,,,,,,,,,,,,,,60fd55ed264098eb4692f1d9,61036ae405f315829a6dd535,2021-07-30_12h59.51.023,Simcolourproject_2stim_asymm_v5,2020.2.10,MacIntel,60,61025ae37ef11b136ea224fe,,,,,,,,,4179,35,66,1,0,0,response1disk,,7,21,1,1,0,0,rectangle,21,1,1,0,0,21,1,1,0,0,0,156,156,18,1,,,,,,,,
,,,,,,,,,,,,,FF,,,,,,,,1.205,,,,,,,,,,,,,,,,,,,,,,60fd55ed264098eb4692f1d9,61036ae405f315829a6dd535,2021-07-30_12h59.51.023,Simcolourproject_2stim_asymm_v5,2020.2.10,MacIntel,60,61025ae37ef11b136ea224fe,,,,,,,,,255,-29,-100,1,0,0,response5disk,,3,-1,-5,1,0,0,rectangle,-1,-5,1,0,0,-1,-5,1,0,0,0,157,157,157,1,,,,,,,,
,,,,,,,,,,,,,FF,,,,,,,,0.533,,,,,,,,,,,,,,,,,,,,,,60fd55ed264098eb4692f1d9,61036ae405f315829a6dd535,2021-07-30_12h59.51.023,Simcolourproject_2stim_asymm_v5,2020.2.10,MacIntel,60,61025ae37ef11b136ea224fe,,,,,,,,,2756,21,63,1,0,0,response1disk,,7,9,-8,1,0,0,rectangle,9,-8,1,0,0,9,-8,1,0,0,0,158,158,2,1,,,,,,,,
,,,,,,,,,,,,,FF,,,,,,,,0.567,,,,,,,,,,,,,,,,,,,,,,60fd55ed264098eb4692f1d9,61036ae405f315829a6dd535,2021-07-30_12h59.51.023,Simcolourproject_2stim_asymm_v5,2020.2.10,MacIntel,60,61025ae37ef11b136ea224fe,,,,,,,,,4038,41,61,1,0,0,response1disk,,7,-6,-6,1,0,0,rectangle,-6,-6,1,0,0,-6,-6,1,0,0,0,159,159,7,1,,,,,,,,
,,,,,,,,,,,,,FF,,,,,,,,2.569,,,,,,,,,,,,,,,,,,,,,,60fd55ed264098eb4692f1d9,61036ae405f315829a6dd535,2021-07-30_12h59.51.023,Simcolourproject_2stim_asymm_v5,2020.2.10,MacIntel,60,61025ae37ef11b136ea224fe,,,,,,,,,1302,89,40,1,0,0,response1disk,,6,4,0,1,0,0,rectangle,4,0,1,0,0,4,0,1,0,0,1,0,160,49,1,,,,,,,,
,,,,,,,,,,,,,FF,,,,,,,,2.251,,,,,,,,,,,,,,,,,,,,,,60fd55ed264098eb4692f1d9,61036ae405f315829a6dd535,2021-07-30_12h59.51.023,Simcolourproject_2stim_asymm_v5,2020.2.10,MacIntel,60,61025ae37ef11b136ea224fe,,,,,,,,,1639,40,98,1,0,0,response1disk,,7,-5,4,1,0,0,rectangle,-5,4,1,0,0,-5,4,1,0,0,1,1,161,41,1,,,,,,,,
,,,,,,,,,,,,,FF,,,,,,,,1.116,,,,,,,,,,,,,,,,,,,,,,60fd55ed264098eb4692f1d9,61036ae405f315829a6dd535,2021-07-30_12h59.51.023,Simcolourproject_2stim_asymm_v5,2020.2.10,MacIntel,60,61025ae37ef11b136ea224fe,,,,,,,,,2297,-95,-34,1,0,0,response5disk,,2,-14,-9,1,0,0,rectangle,-14,-9,1,0,0,-14,-9,1,0,0,1,2,162,7,1,,,,,,,,
,,,,,,,,,,,,,FF,,,,,,,,0.566,,,,,,,,,,,,,,,,,,,,,,60fd55ed264098eb4692f1d9,61036ae405f315829a6dd535,2021-07-30_12h59.51.023,Simcolourproject_2stim_asymm_v5,2020.2.10,MacIntel,60,61025ae37ef11b136ea224fe,,,,,,,,,3172,33,73,1,0,0,response1disk,,7,5,-2,1,0,0,rectangle,5,-2,1,0,0,5,-2,1,0,0,1,3,163,12,1,,,,,,,,
,,,,,,,,,,,,,FF,,,,,,,,0.752,,,,,,,,,,,,,,,,,,,,,,60fd55ed264098eb4692f1d9,61036ae405f315829a6dd535,2021-07-30_12h59.51.023,Simcolourproject_2stim_asymm_v5,2020.2.10,MacIntel,60,61025ae37ef11b136ea224fe,,,,,,,,,4368,-38,85,1,0,0,response7disk,,0,-1,6,1,0,0,rectangle,-1,6,1,0,0,-1,6,1,0,0,1,4,164,18,1,,,,,,,,
,,,,,,,,,,,,,FF,,,,,,,,0.571,,,,,,,,,,,,,,,,,,,,,,60fd55ed264098eb4692f1d9,61036ae405f315829a6dd535,2021-07-30_12h59.51.023,Simcolourproject_2stim_asymm_v5,2020.2.10,MacIntel,60,61025ae37ef11b136ea224fe,,,,,,,,,2968,26,80,1,0,0,response1disk,,7,15,-2,1,0,0,rectangle,15,-2,1,0,0,15,-2,1,0,0,1,5,165,40,1,,,,,,,,
,,,,,,,,,,,,,FF,,,,,,,,1.871,,,,,,,,,,,,,,,,,,,,,,60fd55ed264098eb4692f1d9,61036ae405f315829a6dd535,2021-07-30_12h59.51.023,Simcolourproject_2stim_asymm_v5,2020.2.10,MacIntel,60,61025ae37ef11b136ea224fe,,,,,,,,,579,37,75,1,0,0,response1disk,,7,19,-2,1,0,0,rectangle,19,-2,1,0,0,19,-2,1,0,0,1,6,166,106,1,,,,,,,,
,,,,,,,,,,,,,FF,,,,,,,,0.616,,,,,,,,,,,,,,,,,,,,,,60fd55ed264098eb4692f1d9,61036ae405f315829a6dd535,2021-07-30_12h59.51.023,Simcolourproject_2stim_asymm_v5,2020.2.10,MacIntel,60,61025ae37ef11b136ea224fe,,,,,,,,,1637,30,53,1,0,0,response1disk,,7,13,10,1,0,0,rectangle,13,10,1,0,0,13,10,1,0,0,1,7,167,74,1,,,,,,,,
,,,,,,,,,,,,,FF,,,,,,,,0.502,,,,,,,,,,,,,,,,,,,,,,60fd55ed264098eb4692f1d9,61036ae405f315829a6dd535,2021-07-30_12h59.51.023,Simcolourproject_2stim_asymm_v5,2020.2.10,MacIntel,60,61025ae37ef11b136ea224fe,,,,,,,,,2205,35,53,1,0,0,response1disk,,7,14,-9,1,0,0,rectangle,14,-9,1,0,0,14,-9,1,0,0,1,8,168,101,1,,,,,,,,
,,,,,,,,,,,,,FF,,,,,,,,0.967,,,,,,,,,,,,,,,,,,,,,,60fd55ed264098eb4692f1d9,61036ae405f315829a6dd535,2021-07-30_12h59.51.023,Simcolourproject_2stim_asymm_v5,2020.2.10,MacIntel,60,61025ae37ef11b136ea224fe,,,,,,,,,631,-76,-47,1,0,0,response5disk,,2,12,3,1,0,0,rectangle,12,3,1,0,0,12,3,1,0,0,1,9,169,76,1,,,,,,,,
,,,,,,,,,,,,,FF,,,,,,,,0.689,,,,,,,,,,,,,,,,,,,,,,60fd55ed264098eb4692f1d9,61036ae405f315829a6dd535,2021-07-30_12h59.51.023,Simcolourproject_2stim_asymm_v5,2020.2.10,MacIntel,60,61025ae37ef11b136ea224fe,,,,,,,,,716,-36,70,1,0,0,response7disk,,0,-12,10,1,0,0,rectangle,-12,10,1,0,0,-12,10,1,0,0,1,10,170,11,1,,,,,,,,
,,,,,,,,,,,,,FF,,,,,,,,1.033,,,,,,,,,,,,,,,,,,,,,,60fd55ed264098eb4692f1d9,61036ae405f315829a6dd535,2021-07-30_12h59.51.023,Simcolourproject_2stim_asymm_v5,2020.2.10,MacIntel,60,61025ae37ef11b136ea224fe,,,,,,,,,1757,-91,27,1,0,0,response7disk,,1,-8,-10,1,0,0,rectangle,-8,-10,1,0,0,-8,-10,1,0,0,1,11,171,9,1,,,,,,,,
,,,,,,,,,,,,,FF,,,,,,,,0.816,,,,,,,,,,,,,,,,,,,,,,60fd55ed264098eb4692f1d9,61036ae405f315829a6dd535,2021-07-30_12h59.51.023,Simcolourproject_2stim_asymm_v5,2020.2.10,MacIntel,60,61025ae37ef11b136ea224fe,,,,,,,,,1562,29,52,1,0,0,response1disk,,7,13,-1,1,0,0,rectangle,13,-1,1,0,0,13,-1,1,0,0,1,12,172,148,1,,,,,,,,
,,,,,,,,,,,,,FF,,,,,,,,0.505,,,,,,,,,,,,,,,,,,,,,,60fd55ed264098eb4692f1d9,61036ae405f315829a6dd535,2021-07-30_12h59.51.023,Simcolourproject_2stim_asymm_v5,2020.2.10,MacIntel,60,61025ae37ef11b136ea224fe,,,,,,,,,2858,35,52,1,0,0,response1disk,,7,14,-9,1,0,0,rectangle,14,-9,1,0,0,14,-9,1,0,0,1,13,173,100,1,,,,,,,,
,,,,,,,,,,,,,FF,,,,,,,,0.95,,,,,,,,,,,,,,,,,,,,,,60fd55ed264098eb4692f1d9,61036ae405f315829a6dd535,2021-07-30_12h59.51.023,Simcolourproject_2stim_asymm_v5,2020.2.10,MacIntel,60,61025ae37ef11b136ea224fe,,,,,,,,,3162,74,-36,1,0,0,response3disk,,5,12,-8,1,0,0,rectangle,12,-8,1,0,0,12,-8,1,0,0,1,14,174,155,1,,,,,,,,
,,,,,,,,,,,,,FF,,,,,,,,0.569,,,,,,,,,,,,,,,,,,,,,,60fd55ed264098eb4692f1d9,61036ae405f315829a6dd535,2021-07-30_12h59.51.023,Simcolourproject_2stim_asymm_v5,2020.2.10,MacIntel,60,61025ae37ef11b136ea224fe,,,,,,,,,985,31,61,1,0,0,response1disk,,7,20,9,1,0,0,rectangle,20,9,1,0,0,20,9,1,0,0,1,15,175,22,1,,,,,,,,
,,,,,,,,,,,,,FF,,,,,,,,0.583,,,,,,,,,,,,,,,,,,,,,,60fd55ed264098eb4692f1d9,61036ae405f315829a6dd535,2021-07-30_12h59.51.023,Simcolourproject_2stim_asymm_v5,2020.2.10,MacIntel,60,61025ae37ef11b136ea224fe,,,,,,,,,1043,26,61,1,0,0,response1disk,,7,13,-3,1,0,0,rectangle,46,-86,1,0,0,9,-6,1,0,0,1,16,176,25,1,,response3disk_3,TRUE,4,4,"[183,177,66,290,240,69,196,207,250,124,133,29,275,120,303,134,223,322,0,294]",1.566,rectangle
,,,,,,,,,,,,,FF,,,,,,,,1.154,,,,,,,,,,,,,,,,,,,,,,60fd55ed264098eb4692f1d9,61036ae405f315829a6dd535,2021-07-30_12h59.51.023,Simcolourproject_2stim_asymm_v5,2020.2.10,MacIntel,60,61025ae37ef11b136ea224fe,,,,,,,,,732,82,24,1,0,0,response1disk,,6,1,2,1,0,0,rectangle,1,2,1,0,0,1,2,1,0,0,1,17,177,21,1,,,,,,,,
,,,,,,,,,,,,,FF,,,,,,,,0.552,,,,,,,,,,,,,,,,,,,,,,60fd55ed264098eb4692f1d9,61036ae405f315829a6dd535,2021-07-30_12h59.51.023,Simcolourproject_2stim_asymm_v5,2020.2.10,MacIntel,60,61025ae37ef11b136ea224fe,,,,,,,,,4009,19,58,1,0,0,response1disk,,7,15,-2,1,0,0,rectangle,15,-2,1,0,0,15,-2,1,0,0,1,18,178,142,1,,,,,,,,
,,,,,,,,,,,,,FF,,,,,,,,0.516,,,,,,,,,,,,,,,,,,,,,,60fd55ed264098eb4692f1d9,61036ae405f315829a6dd535,2021-07-30_12h59.51.023,Simcolourproject_2stim_asymm_v5,2020.2.10,MacIntel,60,61025ae37ef11b136ea224fe,,,,,,,,,2343,36,62,1,0,0,response1disk,,7,15,6,1,0,0,rectangle,15,6,1,0,0,15,6,1,0,0,1,19,179,136,1,,,,,,,,
,,,,,,,,,,,,,FF,,,,,,,,0.767,,,,,,,,,,,,,,,,,,,,,,60fd55ed264098eb4692f1d9,61036ae405f315829a6dd535,2021-07-30_12h59.51.023,Simcolourproject_2stim_asymm_v5,2020.2.10,MacIntel,60,61025ae37ef11b136ea224fe,,,,,,,,,2824,98,39,1,0,0,response1disk,,6,-9,-1,1,0,0,rectangle,-9,-1,1,0,0,-9,-1,1,0,0,1,20,180,158,1,,,,,,,,
,,,,,,,,,,,,,FF,,,,,,,,0.482,,,,,,,,,,,,,,,,,,,,,,60fd55ed264098eb4692f1d9,61036ae405f315829a6dd535,2021-07-30_12h59.51.023,Simcolourproject_2stim_asymm_v5,2020.2.10,MacIntel,60,61025ae37ef11b136ea224fe,,,,,,,,,2600,24,65,1,0,0,response1disk,,7,13,1,1,0,0,rectangle,13,1,1,0,0,13,1,1,0,0,1,21,181,82,1,,,,,,,,
,,,,,,,,,,,,,FF,,,,,,,,1.268,,,,,,,,,,,,,,,,,,,,,,60fd55ed264098eb4692f1d9,61036ae405f315829a6dd535,2021-07-30_12h59.51.023,Simcolourproject_2stim_asymm_v5,2020.2.10,MacIntel,60,61025ae37ef11b136ea224fe,,,,,,,,,2298,-79,26,1,0,0,response7disk,,1,11,-7,1,0,0,rectangle,31,72,1,0,0,12,3,1,0,0,1,22,182,147,1,,response1disk_3,TRUE,7,6,"[183,177,66,290,240,69,196,207,250,124,133,29,275,120,303,134,223,322,0,294]",1.505,rectangle
,,,,,,,,,,,,,FF,,,,,,,,0.633,,,,,,,,,,,,,,,,,,,,,,60fd55ed264098eb4692f1d9,61036ae405f315829a6dd535,2021-07-30_12h59.51.023,Simcolourproject_2stim_asymm_v5,2020.2.10,MacIntel,60,61025ae37ef11b136ea224fe,,,,,,,,,4361,-22,77,1,0,0,response7disk,,0,-2,0,1,0,0,rectangle,-2,0,1,0,0,-2,0,1,0,0,1,23,183,59,1,,,,,,,,
,,,,,,,,,,,,,FF,,,,,,,,0.487,,,,,,,,,,,,,,,,,,,,,,60fd55ed264098eb4692f1d9,61036ae405f315829a6dd535,2021-07-30_12h59.51.023,Simcolourproject_2stim_asymm_v5,2020.2.10,MacIntel,60,61025ae37ef11b136ea224fe,,,,,,,,,403,43,66,1,0,0,response1disk,,7,3,7,1,0,0,rectangle,3,7,1,0,0,3,7,1,0,0,1,24,184,88,1,,,,,,,,
,,,,,,,,,,,,,FF,,,,,,,,0.788,,,,,,,,,,,,,,,,,,,,,,60fd55ed264098eb4692f1d9,61036ae405f315829a6dd535,2021-07-30_12h59.51.023,Simcolourproject_2stim_asymm_v5,2020.2.10,MacIntel,60,61025ae37ef11b136ea224fe,,,,,,,,,3835,82,36,1,0,0,response1disk,,6,15,8,1,0,0,rectangle,15,8,1,0,0,15,8,1,0,0,1,25,185,28,1,,,,,,,,
,,,,,,,,,,,,,FF,,,,,,,,0.532,,,,,,,,,,,,,,,,,,,,,,60fd55ed264098eb4692f1d9,61036ae405f315829a6dd535,2021-07-30_12h59.51.023,Simcolourproject_2stim_asymm_v5,2020.2.10,MacIntel,60,61025ae37ef11b136ea224fe,,,,,,,,,1546,30,66,1,0,0,response1disk,,7,15,-13,1,0,0,rectangle,15,-13,1,0,0,15,-13,1,0,0,1,26,186,78,1,,,,,,,,
,,,,,,,,,,,,,FF,,,,,,,,0.516,,,,,,,,,,,,,,,,,,,,,,60fd55ed264098eb4692f1d9,61036ae405f315829a6dd535,2021-07-30_12h59.51.023,Simcolourproject_2stim_asymm_v5,2020.2.10,MacIntel,60,61025ae37ef11b136ea224fe,,,,,,,,,294,33,70,1,0,0,response1disk,,7,20,6,1,0,0,rectangle,20,6,1,0,0,20,6,1,0,0,1,27,187,153,1,,,,,,,,
,,,,,,,,,,,,,FF,,,,,,,,0.618,,,,,,,,,,,,,,,,,,,,,,60fd55ed264098eb4692f1d9,61036ae405f315829a6dd535,2021-07-30_12h59.51.023,Simcolourproject_2stim_asymm_v5,2020.2.10,MacIntel,60,61025ae37ef11b136ea224fe,,,,,,,,,2020,28,55,1,0,0,response1disk,,7,24,9,1,0,0,rectangle,24,9,1,0,0,24,9,1,0,0,1,28,188,131,1,,,,,,,,
,,,,,,,,,,,,,FF,,,,,,,,0.567,,,,,,,,,,,,,,,,,,,,,,60fd55ed264098eb4692f1d9,61036ae405f315829a6dd535,2021-07-30_12h59.51.023,Simcolourproject_2stim_asymm_v5,2020.2.10,MacIntel,60,61025ae37ef11b136ea224fe,,,,,,,,,3890,39,64,1,0,0,response1disk,,7,21,4,1,0,0,rectangle,21,4,1,0,0,21,4,1,0,0,1,29,189,52,1,,,,,,,,
,,,,,,,,,,,,,FF,,,,,,,,0.518,,,,,,,,,,,,,,,,,,,,,,60fd55ed264098eb4692f1d9,61036ae405f315829a6dd535,2021-07-30_12h59.51.023,Simcolourproject_2stim_asymm_v5,2020.2.10,MacIntel,60,61025ae37ef11b136ea224fe,,,,,,,,,1322,28,46,1,0,0,response1disk,,7,16,2,1,0,0,rectangle,16,2,1,0,0,16,2,1,0,0,1,30,190,114,1,,,,,,,,
,,,,,,,,,,,,,FF,,,,,,,,0.45,,,,,,,,,,,,,,,,,,,,,,60fd55ed264098eb4692f1d9,61036ae405f315829a6dd535,2021-07-30_12h59.51.023,Simcolourproject_2stim_asymm_v5,2020.2.10,MacIntel,60,61025ae37ef11b136ea224fe,,,,,,,,,2773,31,59,1,0,0,response1disk,,7,12,-10,1,0,0,rectangle,12,-10,1,0,0,12,-10,1,0,0,1,31,191,1,1,,,,,,,,
,,,,,,,,,,,,,FF,,,,,,,,0.453,,,,,,,,,,,,,,,,,,,,,,60fd55ed264098eb4692f1d9,61036ae405f315829a6dd535,2021-07-30_12h59.51.023,Simcolourproject_2stim_asymm_v5,2020.2.10,MacIntel,60,61025ae37ef11b136ea224fe,,,,,,,,,182,26,50,1,0,0,response1disk,,7,15,2,1,0,0,rectangle,15,2,1,0,0,15,2,1,0,0,1,32,192,50,1,,,,,,,,
,,,,,,,,,,,,,FF,,,,,,,,0.901,,,,,,,,,,,,,,,,,,,,,,60fd55ed264098eb4692f1d9,61036ae405f315829a6dd535,2021-07-30_12h59.51.023,Simcolourproject_2stim_asymm_v5,2020.2.10,MacIntel,60,61025ae37ef11b136ea224fe,,,,,,,,,2544,69,-34,1,0,0,response3disk,,5,5,-16,1,0,0,rectangle,5,-16,1,0,0,5,-16,1,0,0,1,33,193,123,1,,,,,,,,
,,,,,,,,,,,,,FF,,,,,,,,0.533,,,,,,,,,,,,,,,,,,,,,,60fd55ed264098eb4692f1d9,61036ae405f315829a6dd535,2021-07-30_12h59.51.023,Simcolourproject_2stim_asymm_v5,2020.2.10,MacIntel,60,61025ae37ef11b136ea224fe,,,,,,,,,3207,19,51,1,0,0,response1disk,,7,5,-12,1,0,0,rectangle,5,-12,1,0,0,5,-12,1,0,0,1,34,194,16,1,,,,,,,,
,,,,,,,,,,,,,FF,,,,,,,,0.636,,,,,,,,,,,,,,,,,,,,,,60fd55ed264098eb4692f1d9,61036ae405f315829a6dd535,2021-07-30_12h59.51.023,Simcolourproject_2stim_asymm_v5,2020.2.10,MacIntel,60,61025ae37ef11b136ea224fe,,,,,,,,,2291,-38,76,1,0,0,response7disk,,0,-1,6,1,0,0,rectangle,105,52,1,0,0,14,-5,1,0,0,1,35,195,126,1,,response1disk_3,TRUE,6,6,"[183,177,66,290,240,69,196,207,250,124,133,29,275,120,303,134,223,322,0,294]",2.033,rectangle
,,,,,,,,,,,,,FF,,,,,,,,5.184,,,,,,,,,,,,,,,,,,,,,,60fd55ed264098eb4692f1d9,61036ae405f315829a6dd535,2021-07-30_12h59.51.023,Simcolourproject_2stim_asymm_v5,2020.2.10,MacIntel,60,61025ae37ef11b136ea224fe,,,,,,,,,3944,29,58,1,0,0,response1disk,,7,-3,1,1,0,0,rectangle,-3,1,1,0,0,-3,1,1,0,0,1,36,196,85,1,,,,,,,,
,,,,,,,,,,,,,FF,,,,,,,,0.619,,,,,,,,,,,,,,,,,,,,,,60fd55ed264098eb4692f1d9,61036ae405f315829a6dd535,2021-07-30_12h59.51.023,Simcolourproject_2stim_asymm_v5,2020.2.10,MacIntel,60,61025ae37ef11b136ea224fe,,,,,,,,,14,22,44,1,0,0,response1disk,,7,5,-4,1,0,0,rectangle,5,-4,1,0,0,5,-4,1,0,0,1,37,197,125,1,,,,,,,,
,,,,,,,,,,,,,FF,,,,,,,,0.468,,,,,,,,,,,,,,,,,,,,,,60fd55ed264098eb4692f1d9,61036ae405f315829a6dd535,2021-07-30_12h59.51.023,Simcolourproject_2stim_asymm_v5,2020.2.10,MacIntel,60,61025ae37ef11b136ea224fe,,,,,,,,,2372,25,39,1,0,0,response1disk,,7,11,2,1,0,0,rectangle,11,2,1,0,0,11,2,1,0,0,1,38,198,58,1,,,,,,,,
,,,,,,,,,,,,,FF,,,,,,,,0.467,,,,,,,,,,,,,,,,,,,,,,60fd55ed264098eb4692f1d9,61036ae405f315829a6dd535,2021-07-30_12h59.51.023,Simcolourproject_2stim_asymm_v5,2020.2.10,MacIntel,60,61025ae37ef11b136ea224fe,,,,,,,,,2334,30,48,1,0,0,response1disk,,7,2,5,1,0,0,rectangle,2,5,1,0,0,2,5,1,0,0,1,39,199,55,1,,,,,,,,
,,,,,,,,,,,,,FF,,,,,,,,0.599,,,,,,,,,,,,,,,,,,,,,,60fd55ed264098eb4692f1d9,61036ae405f315829a6dd535,2021-07-30_12h59.51.023,Simcolourproject_2stim_asymm_v5,2020.2.10,MacIntel,60,61025ae37ef11b136ea224fe,,,,,,,,,2242,27,48,1,0,0,response1disk,,7,13,-4,1,0,0,rectangle,13,-4,1,0,0,13,-4,1,0,0,1,40,200,61,1,,,,,,,,
,,,,,,,,,,,,,FF,,,,,,,,0.37,,,,,,,,,,,,,,,,,,,,,,60fd55ed264098eb4692f1d9,61036ae405f315829a6dd535,2021-07-30_12h59.51.023,Simcolourproject_2stim_asymm_v5,2020.2.10,MacIntel,60,61025ae37ef11b136ea224fe,,,,,,,,,2809,26,42,1,0,0,response1disk,,7,14,-4,1,0,0,rectangle,14,-4,1,0,0,14,-4,1,0,0,1,41,201,96,1,,,,,,,,
,,,,,,,,,,,,,FF,,,,,,,,0.553,,,,,,,,,,,,,,,,,,,,,,60fd55ed264098eb4692f1d9,61036ae405f315829a6dd535,2021-07-30_12h59.51.023,Simcolourproject_2stim_asymm_v5,2020.2.10,MacIntel,60,61025ae37ef11b136ea224fe,,,,,,,,,1596,-45,77,1,0,0,response7disk,,0,-16,15,1,0,0,rectangle,-16,15,1,0,0,-16,15,1,0,0,1,42,202,70,1,,,,,,,,
,,,,,,,,,,,,,FF,,,,,,,,1.687,,,,,,,,,,,,,,,,,,,,,,60fd55ed264098eb4692f1d9,61036ae405f315829a6dd535,2021-07-30_12h59.51.023,Simcolourproject_2stim_asymm_v5,2020.2.10,MacIntel,60,61025ae37ef11b136ea224fe,,,,,,,,,4126,96,37,1,0,0,response1disk,,6,5,-6,1,0,0,rectangle,5,-6,1,0,0,5,-6,1,0,0,1,43,203,43,1,,,,,,,,
,,,,,,,,,,,,,FF,,,,,,,,0.6,,,,,,,,,,,,,,,,,,,,,,60fd55ed264098eb4692f1d9,61036ae405f315829a6dd535,2021-07-30_12h59.51.023,Simcolourproject_2stim_asymm_v5,2020.2.10,MacIntel,60,61025ae37ef11b136ea224fe,,,,,,,,,2499,16,36,1,0,0,response1disk,,7,10,-12,1,0,0,rectangle,10,-12,1,0,0,10,-12,1,0,0,1,44,204,35,1,,,,,,,,
,,,,,,,,,,,,,FF,,,,,,,,0.917,,,,,,,,,,,,,,,,,,,,,,60fd55ed264098eb4692f1d9,61036ae405f315829a6dd535,2021-07-30_12h59.51.023,Simcolourproject_2stim_asymm_v5,2020.2.10,MacIntel,60,61025ae37ef11b136ea224fe,,,,,,,,,2545,68,-45,1,0,0,response3disk,,5,7,-14,1,0,0,rectangle,7,-14,1,0,0,7,-14,1,0,0,1,45,205,10,1,,,,,,,,
,,,,,,,,,,,,,FF,,,,,,,,0.521,,,,,,,,,,,,,,,,,,,,,,60fd55ed264098eb4692f1d9,61036ae405f315829a6dd535,2021-07-30_12h59.51.023,Simcolourproject_2stim_asymm_v5,2020.2.10,MacIntel,60,61025ae37ef11b136ea224fe,,,,,,,,,1166,29,56,1,0,0,response1disk,,7,6,4,1,0,0,rectangle,-88,-35,1,0,0,15,-5,1,0,0,1,46,206,81,1,,response5disk_3,TRUE,2,2,"[183,177,66,290,240,69,196,207,250,124,133,29,275,120,303,134,223,322,0,294]",1.668,rectangle
,,,,,,,,,,,,,FF,,,,,,,,0.835,,,,,,,,,,,,,,,,,,,,,,60fd55ed264098eb4692f1d9,61036ae405f315829a6dd535,2021-07-30_12h59.51.023,Simcolourproject_2stim_asymm_v5,2020.2.10,MacIntel,60,61025ae37ef11b136ea224fe,,,,,,,,,4305,-29,74,1,0,0,response7disk,,0,6,4,1,0,0,rectangle,6,4,1,0,0,6,4,1,0,0,1,47,207,111,1,,,,,,,,
,,,,,,,,,,,,,FF,,,,,,,,0.917,,,,,,,,,,,,,,,,,,,,,,60fd55ed264098eb4692f1d9,61036ae405f315829a6dd535,2021-07-30_12h59.51.023,Simcolourproject_2stim_asymm_v5,2020.2.10,MacIntel,60,61025ae37ef11b136ea224fe,,,,,,,,,3048,-74,-46,1,0,0,response5disk,,2,-1,0,1,0,0,rectangle,-1,0,1,0,0,-1,0,1,0,0,1,48,208,6,1,,,,,,,,
,,,,,,,,,,,,,FF,,,,,,,,0.582,,,,,,,,,,,,,,,,,,,,,,60fd55ed264098eb4692f1d9,61036ae405f315829a6dd535,2021-07-30_12h59.51.023,Simcolourproject_2stim_asymm_v5,2020.2.10,MacIntel,60,61025ae37ef11b136ea224fe,,,,,,,,,2404,27,65,1,0,0,response1disk,,7,20,3,1,0,0,rectangle,20,3,1,0,0,20,3,1,0,0,1,49,209,141,1,,,,,,,,
,,,,,,,,,,,,,FF,,,,,,,,0.588,,,,,,,,,,,,,,,,,,,,,,60fd55ed264098eb4692f1d9,61036ae405f315829a6dd535,2021-07-30_12h59.51.023,Simcolourproject_2stim_asymm_v5,2020.2.10,MacIntel,60,61025ae37ef11b136ea224fe,,,,,,,,,1075,36,69,1,0,0,response1disk,,7,17,-4,1,0,0,rectangle,17,-4,1,0,0,17,-4,1,0,0,1,50,210,133,1,,,,,,,,
,,,,,,,,,,,,,FF,,,,,,,,0.799,,,,,,,,,,,,,,,,,,,,,,60fd55ed264098eb4692f1d9,61036ae405f315829a6dd535,2021-07-30_12h59.51.023,Simcolourproject_2stim_asymm_v5,2020.2.10,MacIntel,60,61025ae37ef11b136ea224fe,,,,,,,,,2716,69,27,1,0,0,response1disk,,6,-1,-9,1,0,0,rectangle,-1,-9,1,0,0,-1,-9,1,0,0,1,51,211,37,1,,,,,,,,
,,,,,,,,,,,,,FF,,,,,,,,0.833,,,,,,,,,,,,,,,,,,,,,,60fd55ed264098eb4692f1d9,61036ae405f315829a6dd535,2021-07-30_12h59.51.023,Simcolourproject_2stim_asymm_v5,2020.2.10,MacIntel,60,61025ae37ef11b136ea224fe,,,,,,,,,5,85,42,1,0,0,response1disk,,6,20,11,1,0,0,rectangle,20,11,1,0,0,20,11,1,0,0,1,52,212,51,1,,,,,,,,
,,,,,,,,,,,,,FF,,,,,,,,0.832,,,,,,,,,,,,,,,,,,,,,,60fd55ed264098eb4692f1d9,61036ae405f315829a6dd535,2021-07-30_12h59.51.023,Simcolourproject_2stim_asymm_v5,2020.2.10,MacIntel,60,61025ae37ef11b136ea224fe,,,,,,,,,4127,80,28,1,0,0,response1disk,,6,3,-1,1,0,0,rectangle,3,-1,1,0,0,3,-1,1,0,0,1,53,213,29,1,,,,,,,,
,,,,,,,,,,,,,FF,,,,,,,,0.798,,,,,,,,,,,,,,,,,,,,,,60fd55ed264098eb4692f1d9,61036ae405f315829a6dd535,2021-07-30_12h59.51.023,Simcolourproject_2stim_asymm_v5,2020.2.10,MacIntel,60,61025ae37ef11b136ea224fe,,,,,,,,,1131,-39,65,1,0,0,response7disk,,0,1,0,1,0,0,rectangle,1,0,1,0,0,1,0,1,0,0,1,54,214,124,1,,,,,,,,
,,,,,,,,,,,,,FF,,,,,,,,0.549,,,,,,,,,,,,,,,,,,,,,,60fd55ed264098eb4692f1d9,61036ae405f315829a6dd535,2021-07-30_12h59.51.023,Simcolourproject_2stim_asymm_v5,2020.2.10,MacIntel,60,61025ae37ef11b136ea224fe,,,,,,,,,3873,28,56,1,0,0,response1disk,,7,22,7,1,0,0,rectangle,22,7,1,0,0,22,7,1,0,0,1,55,215,5,1,,,,,,,,
,,,,,,,,,,,,,FF,,,,,,,,1.185,,,,,,,,,,,,,,,,,,,,,,60fd55ed264098eb4692f1d9,61036ae405f315829a6dd535,2021-07-30_12h59.51.023,Simcolourproject_2stim_asymm_v5,2020.2.10,MacIntel,60,61025ae37ef11b136ea224fe,,,,,,,,,3635,73,-37,1,0,0,response3disk,,5,14,-8,1,0,0,rectangle,14,-8,1,0,0,14,-8,1,0,0,1,56,216,86,1,,,,,,,,
,,,,,,,,,,,,,FF,,,,,,,,0.783,,,,,,,,,,,,,,,,,,,,,,60fd55ed264098eb4692f1d9,61036ae405f315829a6dd535,2021-07-30_12h59.51.023,Simcolourproject_2stim_asymm_v5,2020.2.10,MacIntel,60,61025ae37ef11b136ea224fe,,,,,,,,,1136,68,-33,1,0,0,response3disk,,5,-12,-6,1,0,0,rectangle,-12,-6,1,0,0,-12,-6,1,0,0,1,57,217,151,1,,,,,,,,
,,,,,,,,,,,,,FF,,,,,,,,0.918,,,,,,,,,,,,,,,,,,,,,,60fd55ed264098eb4692f1d9,61036ae405f315829a6dd535,2021-07-30_12h59.51.023,Simcolourproject_2stim_asymm_v5,2020.2.10,MacIntel,60,61025ae37ef11b136ea224fe,,,,,,,,,2836,-31,-72,1,0,0,response5disk,,3,-8,16,1,0,0,rectangle,-8,16,1,0,0,-8,16,1,0,0,1,58,218,95,1,,,,,,,,
,,,,,,,,,,,,,FF,,,,,,,,0.574,,,,,,,,,,,,,,,,,,,,,,60fd55ed264098eb4692f1d9,61036ae405f315829a6dd535,2021-07-30_12h59.51.023,Simcolourproject_2stim_asymm_v5,2020.2.10,MacIntel,60,61025ae37ef11b136ea224fe,,,,,,,,,1357,20,44,1,0,0,response1disk,,7,0,-11,1,0,0,rectangle,0,-11,1,0,0,0,-11,1,0,0,1,59,219,75,1,,,,,,,,
,,,,,,,,,,,,,FF,,,,,,,,0.719,,,,,,,,,,,,,,,,,,,,,,60fd55ed264098eb4692f1d9,61036ae405f315829a6dd535,2021-07-30_12h59.51.023,Simcolourproject_2stim_asymm_v5,2020.2.10,MacIntel,60,61025ae37ef11b136ea224fe,,,,,,,,,4235,-24,62,1,0,0,response7disk,,0,8,2,1,0,0,rectangle,8,2,1,0,0,8,2,1,0,0,1,60,220,98,1,,,,,,,,
,,,,,,,,,,,,,FF,,,,,,,,0.968,,,,,,,,,,,,,,,,,,,,,,60fd55ed264098eb4692f1d9,61036ae405f315829a6dd535,2021-07-30_12h59.51.023,Simcolourproject_2stim_asymm_v5,2020.2.10,MacIntel,60,61025ae37ef11b136ea224fe,,,,,,,,,2403,30,43,1,0,0,response1disk,,7,16,-4,1,0,0,rectangle,16,-4,1,0,0,16,-4,1,0,0,1,61,221,93,1,,,,,,,,
,,,,,,,,,,,,,FF,,,,,,,,0.468,,,,,,,,,,,,,,,,,,,,,,60fd55ed264098eb4692f1d9,61036ae405f315829a6dd535,2021-07-30_12h59.51.023,Simcolourproject_2stim_asymm_v5,2020.2.10,MacIntel,60,61025ae37ef11b136ea224fe,,,,,,,,,13,26,60,1,0,0,response1disk,,7,17,7,1,0,0,rectangle,-32,-107,1,0,0,-3,-6,1,0,0,1,62,222,156,1,,response5disk_3,TRUE,3,3,"[183,177,66,290,240,69,196,207,250,124,133,29,275,120,303,134,223,322,0,294]",1.449,rectangle
,,,,,,,,,,,,,FF,,,,,,,,0.666,,,,,,,,,,,,,,,,,,,,,,60fd55ed264098eb4692f1d9,61036ae405f315829a6dd535,2021-07-30_12h59.51.023,Simcolourproject_2stim_asymm_v5,2020.2.10,MacIntel,60,61025ae37ef11b136ea224fe,,,,,,,,,1886,-33,69,1,0,0,response7disk,,0,-10,10,1,0,0,rectangle,-10,10,1,0,0,-10,10,1,0,0,1,63,223,137,1,,,,,,,,
,,,,,,,,,,,,,FF,,,,,,,,0.703,,,,,,,,,,,,,,,,,,,,,,60fd55ed264098eb4692f1d9,61036ae405f315829a6dd535,2021-07-30_12h59.51.023,Simcolourproject_2stim_asymm_v5,2020.2.10,MacIntel,60,61025ae37ef11b136ea224fe,,,,,,,,,1004,25,54,1,0,0,response1disk,,7,16,0,1,0,0,rectangle,16,0,1,0,0,16,0,1,0,0,1,64,224,13,1,,,,,,,,
,,,,,,,,,,,,,FF,,,,,,,,0.667,,,,,,,,,,,,,,,,,,,,,,60fd55ed264098eb4692f1d9,61036ae405f315829a6dd535,2021-07-30_12h59.51.023,Simcolourproject_2stim_asymm_v5,2020.2.10,MacIntel,60,61025ae37ef11b136ea224fe,,,,,,,,,1417,26,55,1,0,0,response1disk,,7,11,-8,1,0,0,rectangle,11,-8,1,0,0,11,-8,1,0,0,1,65,225,103,1,,,,,,,,
,,,,,,,,,,,,,FF,,,,,,,,0.754,,,,,,,,,,,,,,,,,,,,,,60fd55ed264098eb4692f1d9,61036ae405f315829a6dd535,2021-07-30_12h59.51.023,Simcolourproject_2stim_asymm_v5,2020.2.10,MacIntel,60,61025ae37ef11b136ea224fe,,,,,,,,,2505,37,64,1,0,0,response1disk,,7,19,15,1,0,0,rectangle,19,15,1,0,0,19,15,1,0,0,1,66,226,31,1,,,,,,,,
,,,,,,,,,,,,,FF,,,,,,,,0.783,,,,,,,,,,,,,,,,,,,,,,60fd55ed264098eb4692f1d9,61036ae405f315829a6dd535,2021-07-30_12h59.51.023,Simcolourproject_2stim_asymm_v5,2020.2.10,MacIntel,60,61025ae37ef11b136ea224fe,,,,,,,,,164,-28,-73,1,0,0,response5disk,,3,-4,-1,1,0,0,rectangle,-4,-1,1,0,0,-4,-1,1,0,0,1,67,227,140,1,,,,,,,,
,,,,,,,,,,,,,FF,,,,,,,,0.601,,,,,,,,,,,,,,,,,,,,,,60fd55ed264098eb4692f1d9,61036ae405f315829a6dd535,2021-07-30_12h59.51.023,Simcolourproject_2stim_asymm_v5,2020.2.10,MacIntel,60,61025ae37ef11b136ea224fe,,,,,,,,,2333,32,64,1,0,0,response1disk,,7,10,1,1,0,0,rectangle,10,1,1,0,0,10,1,1,0,0,1,68,228,89,1,,,,,,,,
,,,,,,,,,,,,,FF,,,,,,,,1.017,,,,,,,,,,,,,,,,,,,,,,60fd55ed264098eb4692f1d9,61036ae405f315829a6dd535,2021-07-30_12h59.51.023,Simcolourproject_2stim_asymm_v5,2020.2.10,MacIntel,60,61025ae37ef11b136ea224fe,,,,,,,,,4105,55,28,1,0,0,response1disk,,6,2,-4,1,0,0,rectangle,2,-4,1,0,0,2,-4,1,0,0,1,69,229,109,1,,,,,,,,
,,,,,,,,,,,,,FF,,,,,,,,0.532,,,,,,,,,,,,,,,,,,,,,,60fd55ed264098eb4692f1d9,61036ae405f315829a6dd535,2021-07-30_12h59.51.023,Simcolourproject_2stim_asymm_v5,2020.2.10,MacIntel,60,61025ae37ef11b136ea224fe,,,,,,,,,499,23,62,1,0,0,response1disk,,7,19,3,1,0,0,rectangle,19,3,1,0,0,19,3,1,0,0,1,70,230,33,1,,,,,,,,
,,,,,,,,,,,,,FF,,,,,,,,0.933,,,,,,,,,,,,,,,,,,,,,,60fd55ed264098eb4692f1d9,61036ae405f315829a6dd535,2021-07-30_12h59.51.023,Simcolourproject_2stim_asymm_v5,2020.2.10,MacIntel,60,61025ae37ef11b136ea224fe,,,,,,,,,4147,-40,-94,1,0,0,response5disk,,3,-14,-12,1,0,0,rectangle,-14,-12,1,0,0,-14,-12,1,0,0,1,71,231,83,1,,,,,,,,
,,,,,,,,,,,,,FF,,,,,,,,0.555,,,,,,,,,,,,,,,,,,,,,,60fd55ed264098eb4692f1d9,61036ae405f315829a6dd535,2021-07-30_12h59.51.023,Simcolourproject_2stim_asymm_v5,2020.2.10,MacIntel,60,61025ae37ef11b136ea224fe,,,,,,,,,3603,37,74,1,0,0,response1disk,,7,0,-8,1,0,0,rectangle,0,-8,1,0,0,0,-8,1,0,0,1,72,232,143,1,,,,,,,,
,,,,,,,,,,,,,FF,,,,,,,,0.77,,,,,,,,,,,,,,,,,,,,,,60fd55ed264098eb4692f1d9,61036ae405f315829a6dd535,2021-07-30_12h59.51.023,Simcolourproject_2stim_asymm_v5,2020.2.10,MacIntel,60,61025ae37ef11b136ea224fe,,,,,,,,,2220,72,25,1,0,0,response1disk,,6,10,-2,1,0,0,rectangle,10,-2,1,0,0,10,-2,1,0,0,1,73,233,23,1,,,,,,,,
,,,,,,,,,,,,,FF,,,,,,,,2.268,,,,,,,,,,,,,,,,,,,,,,60fd55ed264098eb4692f1d9,61036ae405f315829a6dd535,2021-07-30_12h59.51.023,Simcolourproject_2stim_asymm_v5,2020.2.10,MacIntel,60,61025ae37ef11b136ea224fe,,,,,,,,,2375,31,60,1,0,0,response1disk,,7,23,12,1,0,0,rectangle,23,12,1,0,0,23,12,1,0,0,1,74,234,60,1,,,,,,,,
,,,,,,,,,,,,,FF,,,,,,,,0.55,,,,,,,,,,,,,,,,,,,,,,60fd55ed264098eb4692f1d9,61036ae405f315829a6dd535,2021-07-30_12h59.51.023,Simcolourproject_2stim_asymm_v5,2020.2.10,MacIntel,60,61025ae37ef11b136ea224fe,,,,,,,,,3954,39,72,1,0,0,response1disk,,7,19,1,1,0,0,rectangle,19,1,1,0,0,19,1,1,0,0,1,75,235,46,1,,,,,,,,
,,,,,,,,,,,,,FF,,,,,,,,0.416,,,,,,,,,,,,,,,,,,,,,,60fd55ed264098eb4692f1d9,61036ae405f315829a6dd535,2021-07-30_12h59.51.023,Simcolourproject_2stim_asymm_v5,2020.2.10,MacIntel,60,61025ae37ef11b136ea224fe,,,,,,,,,2015,33,62,1,0,0,response1disk,,7,27,4,1,0,0,rectangle,27,4,1,0,0,27,4,1,0,0,1,76,236,91,1,,,,,,,,
,,,,,,,,,,,,,FF,,,,,,,,0.484,,,,,,,,,,,,,,,,,,,,,,60fd55ed264098eb4692f1d9,61036ae405f315829a6dd535,2021-07-30_12h59.51.023,Simcolourproject_2stim_asymm_v5,2020.2.10,MacIntel,60,61025ae37ef11b136ea224fe,,,,,,,,,4231,40,59,1,0,0,response1disk,,7,22,-12,1,0,0,rectangle,22,-12,1,0,0,22,-12,1,0,0,1,77,237,8,1,,,,,,,,
,,,,,,,,,,,,,FF,,,,,,,,0.801,,,,,,,,,,,,,,,,,,,,,,60fd55ed264098eb4692f1d9,61036ae405f315829a6dd535,2021-07-30_12h59.51.023,Simcolourproject_2stim_asymm_v5,2020.2.10,MacIntel,60,61025ae37ef11b136ea224fe,,,,,,,,,2847,53,31,1,0,0,response1disk,,6,9,-3,1,0,0,rectangle,9,-3,1,0,0,9,-3,1,0,0,1,78,238,17,1,,,,,,,,
,,,,,,,,,,,,,FF,,,,,,,,0.466,,,,,,,,,,,,,,,,,,,,,,60fd55ed264098eb4692f1d9,61036ae405f315829a6dd535,2021-07-30_12h59.51.023,Simcolourproject_2stim_asymm_v5,2020.2.10,MacIntel,60,61025ae37ef11b136ea224fe,,,,,,,,,832,27,51,1,0,0,response1disk,,7,27,6,1,0,0,rectangle,-34,-110,1,0,0,-8,-7,1,0,0,1,79,239,45,1,,response5disk_3,TRUE,3,3,"[183,177,66,290,240,69,196,207,250,124,133,29,275,120,303,134,223,322,0,294]",1.272,rectangle
,,,,,,,,,,,,,FF,,,,,,,,1.485,,,,,,,,,,,,,,,,,,,,,,60fd55ed264098eb4692f1d9,61036ae405f315829a6dd535,2021-07-30_12h59.51.023,Simcolourproject_2stim_asymm_v5,2020.2.10,MacIntel,60,61025ae37ef11b136ea224fe,,,,,,,,,939,26,61,1,0,0,response1disk,,7,5,-4,1,0,0,rectangle,5,-4,1,0,0,5,-4,1,0,0,1,80,240,139,1,,,,,,,,
,,,,,,,,,,,,,FF,,,,,,,,0.684,,,,,,,,,,,,,,,,,,,,,,60fd55ed264098eb4692f1d9,61036ae405f315829a6dd535,2021-07-30_12h59.51.023,Simcolourproject_2stim_asymm_v5,2020.2.10,MacIntel,60,61025ae37ef11b136ea224fe,,,,,,,,,1025,31,70,1,0,0,response1disk,,7,14,7,1,0,0,rectangle,14,7,1,0,0,14,7,1,0,0,1,81,241,30,1,,,,,,,,
,,,,,,,,,,,,,FF,,,,,,,,0.715,,,,,,,,,,,,,,,,,,,,,,60fd55ed264098eb4692f1d9,61036ae405f315829a6dd535,2021-07-30_12h59.51.023,Simcolourproject_2stim_asymm_v5,2020.2.10,MacIntel,60,61025ae37ef11b136ea224fe,,,,,,,,,1470,80,31,1,0,0,response1disk,,6,17,-1,1,0,0,rectangle,17,-1,1,0,0,17,-1,1,0,0,1,82,242,36,1,,,,,,,,
,,,,,,,,,,,,,FF,,,,,,,,0.649,,,,,,,,,,,,,,,,,,,,,,60fd55ed264098eb4692f1d9,61036ae405f315829a6dd535,2021-07-30_12h59.51.023,Simcolourproject_2stim_asymm_v5,2020.2.10,MacIntel,60,61025ae37ef11b136ea224fe,,,,,,,,,140,38,69,1,0,0,response1disk,,7,19,-3,1,0,0,rectangle,19,-3,1,0,0,19,-3,1,0,0,1,83,243,99,1,,,,,,,,
,,,,,,,,,,,,,FF,,,,,,,,0.588,,,,,,,,,,,,,,,,,,,,,,60fd55ed264098eb4692f1d9,61036ae405f315829a6dd535,2021-07-30_12h59.51.023,Simcolourproject_2stim_asymm_v5,2020.2.10,MacIntel,60,61025ae37ef11b136ea224fe,,,,,,,,,500,30,53,1,0,0,response1disk,,7,16,-6,1,0,0,rectangle,16,-6,1,0,0,16,-6,1,0,0,1,84,244,79,1,,,,,,,,
,,,,,,,,,,,,,FF,,,,,,,,1.066,,,,,,,,,,,,,,,,,,,,,,60fd55ed264098eb4692f1d9,61036ae405f315829a6dd535,2021-07-30_12h59.51.023,Simcolourproject_2stim_asymm_v5,2020.2.10,MacIntel,60,61025ae37ef11b136ea224fe,,,,,,,,,2299,84,-47,1,0,0,response3disk,,5,-7,2,1,0,0,rectangle,-7,2,1,0,0,-7,2,1,0,0,1,85,245,14,1,,,,,,,,
,,,,,,,,,,,,,FF,,,,,,,,0.666,,,,,,,,,,,,,,,,,,,,,,60fd55ed264098eb4692f1d9,61036ae405f315829a6dd535,2021-07-30_12h59.51.023,Simcolourproject_2stim_asymm_v5,2020.2.10,MacIntel,60,61025ae37ef11b136ea224fe,,,,,,,,,4285,17,57,1,0,0,response1disk,,7,12,-18,1,0,0,rectangle,12,-18,1,0,0,12,-18,1,0,0,1,86,246,120,1,,,,,,,,
,,,,,,,,,,,,,FF,,,,,,,,0.916,,,,,,,,,,,,,,,,,,,,,,60fd55ed264098eb4692f1d9,61036ae405f315829a6dd535,2021-07-30_12h59.51.023,Simcolourproject_2stim_asymm_v5,2020.2.10,MacIntel,60,61025ae37ef11b136ea224fe,,,,,,,,,1625,93,40,1,0,0,response1disk,,6,15,1,1,0,0,rectangle,15,1,1,0,0,15,1,1,0,0,1,87,247,113,1,,,,,,,,
,,,,,,,,,,,,,FF,,,,,,,,0.583,,,,,,,,,,,,,,,,,,,,,,60fd55ed264098eb4692f1d9,61036ae405f315829a6dd535,2021-07-30_12h59.51.023,Simcolourproject_2stim_asymm_v5,2020.2.10,MacIntel,60,61025ae37ef11b136ea224fe,,,,,,,,,488,20,35,1,0,0,response1disk,,7,9,-5,1,0,0,rectangle,9,-5,1,0,0,9,-5,1,0,0,1,88,248,26,1,,,,,,,,
,,,,,,,,,,,,,FF,,,,,,,,0.601,,,,,,,,,,,,,,,,,,,,,,60fd55ed264098eb4692f1d9,61036ae405f315829a6dd535,2021-07-30_12h59.51.023,Simcolourproject_2stim_asymm_v5,2020.2.10,MacIntel,60,61025ae37ef11b136ea224fe,,,,,,,,,923,34,66,1,0,0,response1disk,,7,16,9,1,0,0,rectangle,47,-96,1,0,0,8,-3,1,0,0,1,89,249,119,1,,response3disk_3,TRUE,4,4,"[183,177,66,290,240,69,196,207,250,124,133,29,275,120,303,134,223,322,0,294]",1.807,rectangle
,,,,,,,,,,,,,FF,,,,,,,,0.634,,,,,,,,,,,,,,,,,,,,,,60fd55ed264098eb4692f1d9,61036ae405f315829a6dd535,2021-07-30_12h59.51.023,Simcolourproject_2stim_asymm_v5,2020.2.10,MacIntel,60,61025ae37ef11b136ea224fe,,,,,,,,,4095,-30,88,1,0,0,response7disk,,0,-11,3,1,0,0,rectangle,-11,3,1,0,0,-11,3,1,0,0,1,90,250,47,1,,,,,,,,
,,,,,,,,,,,,,FF,,,,,,,,1.233,,,,,,,,,,,,,,,,,,,,,,60fd55ed264098eb4692f1d9,61036ae405f315829a6dd535,2021-07-30_12h59.51.023,Simcolourproject_2stim_asymm_v5,2020.2.10,MacIntel,60,61025ae37ef11b136ea224fe,,,,,,,,,3426,-74,31,1,0,0,response7disk,,1,13,7,1,0,0,rectangle,13,7,1,0,0,13,7,1,0,0,1,91,251,3,1,,,,,,,,
,,,,,,,,,,,,,FF,,,,,,,,0.569,,,,,,,,,,,,,,,,,,,,,,60fd55ed264098eb4692f1d9,61036ae405f315829a6dd535,2021-07-30_12h59.51.023,Simcolourproject_2stim_asymm_v5,2020.2.10,MacIntel,60,61025ae37ef11b136ea224fe,,,,,,,,,1238,24,60,1,0,0,response1disk,,7,11,-5,1,0,0,rectangle,11,-5,1,0,0,11,-5,1,0,0,1,92,252,117,1,,,,,,,,
,,,,,,,,,,,,,FF,,,,,,,,0.868,,,,,,,,,,,,,,,,,,,,,,60fd55ed264098eb4692f1d9,61036ae405f315829a6dd535,2021-07-30_12h59.51.023,Simcolourproject_2stim_asymm_v5,2020.2.10,MacIntel,60,61025ae37ef11b136ea224fe,,,,,,,,,1603,-83,28,1,0,0,response7disk,,1,-7,5,1,0,0,rectangle,-7,5,1,0,0,-7,5,1,0,0,1,93,253,87,1,,,,,,,,
,,,,,,,,,,,,,FF,,,,,,,,1.301,,,,,,,,,,,,,,,,,,,,,,60fd55ed264098eb4692f1d9,61036ae405f315829a6dd535,2021-07-30_12h59.51.023,Simcolourproject_2stim_asymm_v5,2020.2.10,MacIntel,60,61025ae37ef11b136ea224fe,,,,,,,,,2675,26,-82,1,0,0,response3disk,,4,15,0,1,0,0,rectangle,15,0,1,0,0,15,0,1,0,0,1,94,254,19,1,,,,,,,,
,,,,,,,,,,,,,FF,,,,,,,,0.533,,,,,,,,,,,,,,,,,,,,,,60fd55ed264098eb4692f1d9,61036ae405f315829a6dd535,2021-07-30_12h59.51.023,Simcolourproject_2stim_asymm_v5,2020.2.10,MacIntel,60,61025ae37ef11b136ea224fe,,,,,,,,,336,31,59,1,0,0,response1disk,,7,12,-1,1,0,0,rectangle,12,-1,1,0,0,12,-1,1,0,0,1,95,255,20,1,,,,,,,,
,,,,,,,,,,,,,FF,,,,,,,,1.183,,,,,,,,,,,,,,,,,,,,,,60fd55ed264098eb4692f1d9,61036ae405f315829a6dd535,2021-07-30_12h59.51.023,Simcolourproject_2stim_asymm_v5,2020.2.10,MacIntel,60,61025ae37ef11b136ea224fe,,,,,,,,,1214,42,-80,1,0,0,response3disk,,4,11,-7,1,0,0,rectangle,11,-7,1,0,0,11,-7,1,0,0,1,96,256,42,1,,,,,,,,
,,,,,,,,,,,,,FF,,,,,,,,0.8,,,,,,,,,,,,,,,,,,,,,,60fd55ed264098eb4692f1d9,61036ae405f315829a6dd535,2021-07-30_12h59.51.023,Simcolourproject_2stim_asymm_v5,2020.2.10,MacIntel,60,61025ae37ef11b136ea224fe,,,,,,,,,1181,19,66,1,0,0,response1disk,,7,17,-2,1,0,0,rectangle,17,-2,1,0,0,17,-2,1,0,0,1,97,257,84,1,,,,,,,,
,,,,,,,,,,,,,FF,,,,,,,,0.937,,,,,,,,,,,,,,,,,,,,,,60fd55ed264098eb4692f1d9,61036ae405f315829a6dd535,2021-07-30_12h59.51.023,Simcolourproject_2stim_asymm_v5,2020.2.10,MacIntel,60,61025ae37ef11b136ea224fe,,,,,,,,,724,-71,-37,1,0,0,response5disk,,2,8,-14,1,0,0,rectangle,8,-14,1,0,0,8,-14,1,0,0,1,98,258,92,1,,,,,,,,
,,,,,,,,,,,,,FF,,,,,,,,0.834,,,,,,,,,,,,,,,,,,,,,,60fd55ed264098eb4692f1d9,61036ae405f315829a6dd535,2021-07-30_12h59.51.023,Simcolourproject_2stim_asymm_v5,2020.2.10,MacIntel,60,61025ae37ef11b136ea224fe,,,,,,,,,3014,34,53,1,0,0,response1disk,,7,15,-8,1,0,0,rectangle,15,-8,1,0,0,15,-8,1,0,0,1,99,259,116,1,,,,,,,,
,,,,,,,,,,,,,FF,,,,,,,,0.551,,,,,,,,,,,,,,,,,,,,,,60fd55ed264098eb4692f1d9,61036ae405f315829a6dd535,2021-07-30_12h59.51.023,Simcolourproject_2stim_asymm_v5,2020.2.10,MacIntel,60,61025ae37ef11b136ea224fe,,,,,,,,,492,33,62,1,0,0,response1disk,,7,25,3,1,0,0,rectangle,25,3,1,0,0,25,3,1,0,0,1,100,260,62,1,,,,,,,,
,,,,,,,,,,,,,FF,,,,,,,,0.607,,,,,,,,,,,,,,,,,,,,,,60fd55ed264098eb4692f1d9,61036ae405f315829a6dd535,2021-07-30_12h59.51.023,Simcolourproject_2stim_asymm_v5,2020.2.10,MacIntel,60,61025ae37ef11b136ea224fe,,,,,,,,,4307,40,78,1,0,0,response1disk,,7,23,-3,1,0,0,rectangle,23,-3,1,0,0,23,-3,1,0,0,1,101,261,115,1,,,,,,,,
,,,,,,,,,,,,,FF,,,,,,,,0.485,,,,,,,,,,,,,,,,,,,,,,60fd55ed264098eb4692f1d9,61036ae405f315829a6dd535,2021-07-30_12h59.51.023,Simcolourproject_2stim_asymm_v5,2020.2.10,MacIntel,60,61025ae37ef11b136ea224fe,,,,,,,,,950,41,61,1,0,0,response1disk,,7,17,-3,1,0,0,rectangle,17,-3,1,0,0,17,-3,1,0,0,1,102,262,15,1,,,,,,,,
,,,,,,,,,,,,,FF,,,,,,,,0.45,,,,,,,,,,,,,,,,,,,,,,60fd55ed264098eb4692f1d9,61036ae405f315829a6dd535,2021-07-30_12h59.51.023,Simcolourproject_2stim_asymm_v5,2020.2.10,MacIntel,60,61025ae37ef11b136ea224fe,,,,,,,,,2008,33,59,1,0,0,response1disk,,7,21,-8,1,0,0,rectangle,21,-8,1,0,0,21,-8,1,0,0,1,103,263,32,1,,,,,,,,
,,,,,,,,,,,,,FF,,,,,,,,1.387,,,,,,,,,,,,,,,,,,,,,,60fd55ed264098eb4692f1d9,61036ae405f315829a6dd535,2021-07-30_12h59.51.023,Simcolourproject_2stim_asymm_v5,2020.2.10,MacIntel,60,61025ae37ef11b136ea224fe,,,,,,,,,3097,-72,-49,1,0,0,response5disk,,2,7,-10,1,0,0,rectangle,7,-10,1,0,0,7,-10,1,0,0,1,104,264,134,1,,,,,,,,
,,,,,,,,,,,,,FF,,,,,,,,0.533,,,,,,,,,,,,,,,,,,,,,,60fd55ed264098eb4692f1d9,61036ae405f315829a6dd535,2021-07-30_12h59.51.023,Simcolourproject_2stim_asymm_v5,2020.2.10,MacIntel,60,61025ae37ef11b136ea224fe,,,,,,,,,2330,32,67,1,0,0,response1disk,,7,17,0,1,0,0,rectangle,17,0,1,0,0,17,0,1,0,0,1,105,265,69,1,,,,,,,,
,,,,,,,,,,,,,FF,,,,,,,,1.386,,,,,,,,,,,,,,,,,,,,,,60fd55ed264098eb4692f1d9,61036ae405f315829a6dd535,2021-07-30_12h59.51.023,Simcolourproject_2stim_asymm_v5,2020.2.10,MacIntel,60,61025ae37ef11b136ea224fe,,,,,,,,,2767,54,-91,1,0,0,response3disk,,4,20,-11,1,0,0,rectangle,20,-11,1,0,0,20,-11,1,0,0,1,106,266,64,1,,,,,,,,
,,,,,,,,,,,,,FF,,,,,,,,0.75,,,,,,,,,,,,,,,,,,,,,,60fd55ed264098eb4692f1d9,61036ae405f315829a6dd535,2021-07-30_12h59.51.023,Simcolourproject_2stim_asymm_v5,2020.2.10,MacIntel,60,61025ae37ef11b136ea224fe,,,,,,,,,317,30,61,1,0,0,response1disk,,7,20,8,1,0,0,rectangle,20,8,1,0,0,20,8,1,0,0,1,107,267,44,1,,,,,,,,
,,,,,,,,,,,,,FF,,,,,,,,0.599,,,,,,,,,,,,,,,,,,,,,,60fd55ed264098eb4692f1d9,61036ae405f315829a6dd535,2021-07-30_12h59.51.023,Simcolourproject_2stim_asymm_v5,2020.2.10,MacIntel,60,61025ae37ef11b136ea224fe,,,,,,,,,586,30,52,1,0,0,response1disk,,7,12,0,1,0,0,rectangle,12,0,1,0,0,12,0,1,0,0,1,108,268,110,1,,,,,,,,
,,,,,,,,,,,,,FF,,,,,,,,0.656,,,,,,,,,,,,,,,,,,,,,,60fd55ed264098eb4692f1d9,61036ae405f315829a6dd535,2021-07-30_12h59.51.023,Simcolourproject_2stim_asymm_v5,2020.2.10,MacIntel,60,61025ae37ef11b136ea224fe,,,,,,,,,2336,30,65,1,0,0,response1disk,,7,24,8,1,0,0,rectangle,24,8,1,0,0,24,8,1,0,0,1,109,269,90,1,,,,,,,,
,,,,,,,,,,,,,FF,,,,,,,,0.466,,,,,,,,,,,,,,,,,,,,,,60fd55ed264098eb4692f1d9,61036ae405f315829a6dd535,2021-07-30_12h59.51.023,Simcolourproject_2stim_asymm_v5,2020.2.10,MacIntel,60,61025ae37ef11b136ea224fe,,,,,,,,,230,46,63,1,0,0,response1disk,,7,24,-1,1,0,0,rectangle,24,-1,1,0,0,24,-1,1,0,0,1,110,270,108,1,,,,,,,,
,,,,,,,,,,,,,FF,,,,,,,,0.8,,,,,,,,,,,,,,,,,,,,,,60fd55ed264098eb4692f1d9,61036ae405f315829a6dd535,2021-07-30_12h59.51.023,Simcolourproject_2stim_asymm_v5,2020.2.10,MacIntel,60,61025ae37ef11b136ea224fe,,,,,,,,,1522,-74,-43,1,0,0,response5disk,,2,4,-8,1,0,0,rectangle,4,-8,1,0,0,4,-8,1,0,0,1,111,271,150,1,,,,,,,,
,,,,,,,,,,,,,FF,,,,,,,,0.6,,,,,,,,,,,,,,,,,,,,,,60fd55ed264098eb4692f1d9,61036ae405f315829a6dd535,2021-07-30_12h59.51.023,Simcolourproject_2stim_asymm_v5,2020.2.10,MacIntel,60,61025ae37ef11b136ea224fe,,,,,,,,,42,37,76,1,0,0,response1disk,,7,12,-1,1,0,0,rectangle,12,-1,1,0,0,12,-1,1,0,0,1,112,272,72,1,,,,,,,,
,,,,,,,,,,,,,FF,,,,,,,,0.684,,,,,,,,,,,,,,,,,,,,,,60fd55ed264098eb4692f1d9,61036ae405f315829a6dd535,2021-07-30_12h59.51.023,Simcolourproject_2stim_asymm_v5,2020.2.10,MacIntel,60,61025ae37ef11b136ea224fe,,,,,,,,,2341,32,63,1,0,0,response1disk,,7,19,-2,1,0,0,rectangle,19,-2,1,0,0,19,-2,1,0,0,1,113,273,149,1,,,,,,,,
,,,,,,,,,,,,,FF,,,,,,,,1.186,,,,,,,,,,,,,,,,,,,,,,60fd55ed264098eb4692f1d9,61036ae405f315829a6dd535,2021-07-30_12h59.51.023,Simcolourproject_2stim_asymm_v5,2020.2.10,MacIntel,60,61025ae37ef11b136ea224fe,,,,,,,,,2895,34,-93,1,0,0,response3disk,,4,-11,4,1,0,0,rectangle,-109,23,1,0,0,-1,3,1,0,0,1,114,274,122,1,,response7disk_3,TRUE,1,1,"[183,177,66,290,240,69,196,207,250,124,133,29,275,120,303,134,223,322,0,294]",1.286,rectangle
,,,,,,,,,,,,,FF,,,,,,,,0.783,,,,,,,,,,,,,,,,,,,,,,60fd55ed264098eb4692f1d9,61036ae405f315829a6dd535,2021-07-30_12h59.51.023,Simcolourproject_2stim_asymm_v5,2020.2.10,MacIntel,60,61025ae37ef11b136ea224fe,,,,,,,,,3966,-80,37,1,0,0,response7disk,,1,-3,-10,1,0,0,rectangle,-3,-10,1,0,0,-3,-10,1,0,0,1,115,275,57,1,,,,,,,,
,,,,,,,,,,,,,FF,,,,,,,,0.67,,,,,,,,,,,,,,,,,,,,,,60fd55ed264098eb4692f1d9,61036ae405f315829a6dd535,2021-07-30_12h59.51.023,Simcolourproject_2stim_asymm_v5,2020.2.10,MacIntel,60,61025ae37ef11b136ea224fe,,,,,,,,,1875,30,82,1,0,0,response1disk,,7,7,-1,1,0,0,rectangle,7,-1,1,0,0,7,-1,1,0,0,1,116,276,56,1,,,,,,,,
,,,,,,,,,,,,,FF,,,,,,,,0.552,,,,,,,,,,,,,,,,,,,,,,60fd55ed264098eb4692f1d9,61036ae405f315829a6dd535,2021-07-30_12h59.51.023,Simcolourproject_2stim_asymm_v5,2020.2.10,MacIntel,60,61025ae37ef11b136ea224fe,,,,,,,,,3799,43,60,1,0,0,response1disk,,7,9,-2,1,0,0,rectangle,9,-2,1,0,0,9,-2,1,0,0,1,117,277,68,1,,,,,,,,
,,,,,,,,,,,,,FF,,,,,,,,0.619,,,,,,,,,,,,,,,,,,,,,,60fd55ed264098eb4692f1d9,61036ae405f315829a6dd535,2021-07-30_12h59.51.023,Simcolourproject_2stim_asymm_v5,2020.2.10,MacIntel,60,61025ae37ef11b136ea224fe,,,,,,,,,2552,31,59,1,0,0,response1disk,,7,15,-8,1,0,0,rectangle,15,-8,1,0,0,15,-8,1,0,0,1,118,278,77,1,,,,,,,,
,,,,,,,,,,,,,FF,,,,,,,,2.55,,,,,,,,,,,,,,,,,,,,,,60fd55ed264098eb4692f1d9,61036ae405f315829a6dd535,2021-07-30_12h59.51.023,Simcolourproject_2stim_asymm_v5,2020.2.10,MacIntel,60,61025ae37ef11b136ea224fe,,,,,,,,,3663,96,39,1,0,0,response1disk,,6,9,3,1,0,0,rectangle,9,3,1,0,0,9,3,1,0,0,1,119,279,145,1,,,,,,,,
,,,,,,,,,,,,,FF,,,,,,,,0.473,,,,,,,,,,,,,,,,,,,,,,60fd55ed264098eb4692f1d9,61036ae405f315829a6dd535,2021-07-30_12h59.51.023,Simcolourproject_2stim_asymm_v5,2020.2.10,MacIntel,60,61025ae37ef11b136ea224fe,,,,,,,,,2463,21,57,1,0,0,response1disk,,7,6,-4,1,0,0,rectangle,6,-4,1,0,0,6,-4,1,0,0,1,120,280,135,1,,,,,,,,
,,,,,,,,,,,,,FF,,,,,,,,0.499,,,,,,,,,,,,,,,,,,,,,,60fd55ed264098eb4692f1d9,61036ae405f315829a6dd535,2021-07-30_12h59.51.023,Simcolourproject_2stim_asymm_v5,2020.2.10,MacIntel,60,61025ae37ef11b136ea224fe,,,,,,,,,1870,30,65,1,0,0,response1disk,,7,12,2,1,0,0,rectangle,12,2,1,0,0,12,2,1,0,0,1,121,281,102,1,,,,,,,,
,,,,,,,,,,,,,FF,,,,,,,,1.383,,,,,,,,,,,,,,,,,,,,,,60fd55ed264098eb4692f1d9,61036ae405f315829a6dd535,2021-07-30_12h59.51.023,Simcolourproject_2stim_asymm_v5,2020.2.10,MacIntel,60,61025ae37ef11b136ea224fe,,,,,,,,,2996,100,-32,1,0,0,response3disk,,5,13,-14,1,0,0,rectangle,13,-14,1,0,0,13,-14,1,0,0,1,122,282,39,1,,,,,,,,
,,,,,,,,,,,,,FF,,,,,,,,0.838,,,,,,,,,,,,,,,,,,,,,,60fd55ed264098eb4692f1d9,61036ae405f315829a6dd535,2021-07-30_12h59.51.023,Simcolourproject_2stim_asymm_v5,2020.2.10,MacIntel,60,61025ae37ef11b136ea224fe,,,,,,,,,1229,77,-32,1,0,0,response3disk,,5,20,-2,1,0,0,rectangle,20,-2,1,0,0,20,-2,1,0,0,1,123,283,152,1,,,,,,,,
,,,,,,,,,,,,,FF,,,,,,,,1.151,,,,,,,,,,,,,,,,,,,,,,60fd55ed264098eb4692f1d9,61036ae405f315829a6dd535,2021-07-30_12h59.51.023,Simcolourproject_2stim_asymm_v5,2020.2.10,MacIntel,60,61025ae37ef11b136ea224fe,,,,,,,,,2376,26,57,1,0,0,response1disk,,7,8,-7,1,0,0,rectangle,8,-7,1,0,0,8,-7,1,0,0,1,124,284,66,1,,,,,,,,
,,,,,,,,,,,,,FF,,,,,,,,0.466,,,,,,,,,,,,,,,,,,,,,,60fd55ed264098eb4692f1d9,61036ae405f315829a6dd535,2021-07-30_12h59.51.023,Simcolourproject_2stim_asymm_v5,2020.2.10,MacIntel,60,61025ae37ef11b136ea224fe,,,,,,,,,3018,29,53,1,0,0,response1disk,,7,8,-9,1,0,0,rectangle,8,-9,1,0,0,8,-9,1,0,0,1,125,285,97,1,,,,,,,,
,,,,,,,,,,,,,FF,,,,,,,,0.534,,,,,,,,,,,,,,,,,,,,,,60fd55ed264098eb4692f1d9,61036ae405f315829a6dd535,2021-07-30_12h59.51.023,Simcolourproject_2stim_asymm_v5,2020.2.10,MacIntel,60,61025ae37ef11b136ea224fe,,,,,,,,,1337,40,65,1,0,0,response1disk,,7,19,-1,1,0,0,rectangle,19,-1,1,0,0,19,-1,1,0,0,1,126,286,138,1,,,,,,,,
,,,,,,,,,,,,,FF,,,,,,,,0.751,,,,,,,,,,,,,,,,,,,,,,60fd55ed264098eb4692f1d9,61036ae405f315829a6dd535,2021-07-30_12h59.51.023,Simcolourproject_2stim_asymm_v5,2020.2.10,MacIntel,60,61025ae37ef11b136ea224fe,,,,,,,,,734,89,35,1,0,0,response1disk,,6,8,-3,1,0,0,rectangle,8,-3,1,0,0,8,-3,1,0,0,1,127,287,63,1,,,,,,,,
,,,,,,,,,,,,,FF,,,,,,,,0.817,,,,,,,,,,,,,,,,,,,,,,60fd55ed264098eb4692f1d9,61036ae405f315829a6dd535,2021-07-30_12h59.51.023,Simcolourproject_2stim_asymm_v5,2020.2.10,MacIntel,60,61025ae37ef11b136ea224fe,,,,,,,,,1597,-77,35,1,0,0,response7disk,,1,2,3,1,0,0,rectangle,2,3,1,0,0,2,3,1,0,0,1,128,288,121,1,,,,,,,,
,,,,,,,,,,,,,FF,,,,,,,,1,,,,,,,,,,,,,,,,,,,,,,60fd55ed264098eb4692f1d9,61036ae405f315829a6dd535,2021-07-30_12h59.51.023,Simcolourproject_2stim_asymm_v5,2020.2.10,MacIntel,60,61025ae37ef11b136ea224fe,,,,,,,,,3530,40,55,1,0,0,response1disk,,7,5,-4,1,0,0,rectangle,-34,103,1,0,0,-11,0,1,0,0,1,129,289,67,1,,response7disk_3,TRUE,0,0,"[183,177,66,290,240,69,196,207,250,124,133,29,275,120,303,134,223,322,0,294]",1.252,rectangle
,,,,,,,,,,,,,FF,,,,,,,,1.072,,,,,,,,,,,,,,,,,,,,,,60fd55ed264098eb4692f1d9,61036ae405f315829a6dd535,2021-07-30_12h59.51.023,Simcolourproject_2stim_asymm_v5,2020.2.10,MacIntel,60,61025ae37ef11b136ea224fe,,,,,,,,,1398,37,90,1,0,0,response1disk,,7,16,-9,1,0,0,rectangle,16,-9,1,0,0,16,-9,1,0,0,1,130,290,154,1,,,,,,,,
,,,,,,,,,,,,,FF,,,,,,,,0.473,,,,,,,,,,,,,,,,,,,,,,60fd55ed264098eb4692f1d9,61036ae405f315829a6dd535,2021-07-30_12h59.51.023,Simcolourproject_2stim_asymm_v5,2020.2.10,MacIntel,60,61025ae37ef11b136ea224fe,,,,,,,,,712,50,66,1,0,0,response1disk,,7,17,-10,1,0,0,rectangle,17,-10,1,0,0,17,-10,1,0,0,1,131,291,130,1,,,,,,,,
,,,,,,,,,,,,,FF,,,,,,,,0.403,,,,,,,,,,,,,,,,,,,,,,60fd55ed264098eb4692f1d9,61036ae405f315829a6dd535,2021-07-30_12h59.51.023,Simcolourproject_2stim_asymm_v5,2020.2.10,MacIntel,60,61025ae37ef11b136ea224fe,,,,,,,,,2682,48,108,1,0,0,response1disk,,7,17,-4,1,0,0,rectangle,17,-4,1,0,0,17,-4,1,0,0,1,132,292,128,1,,,,,,,,
,,,,,,,,,,,,,FF,,,,,,,,0.467,,,,,,,,,,,,,,,,,,,,,,60fd55ed264098eb4692f1d9,61036ae405f315829a6dd535,2021-07-30_12h59.51.023,Simcolourproject_2stim_asymm_v5,2020.2.10,MacIntel,60,61025ae37ef11b136ea224fe,,,,,,,,,251,40,93,1,0,0,response1disk,,7,17,-8,1,0,0,rectangle,43,-105,1,0,0,11,-12,1,0,0,1,133,293,34,1,,response3disk_3,TRUE,4,4,"[183,177,66,290,240,69,196,207,250,124,133,29,275,120,303,134,223,322,0,294]",1.568,rectangle
,,,,,,,,,,,,,FF,,,,,,,,0.856,,,,,,,,,,,,,,,,,,,,,,60fd55ed264098eb4692f1d9,61036ae405f315829a6dd535,2021-07-30_12h59.51.023,Simcolourproject_2stim_asymm_v5,2020.2.10,MacIntel,60,61025ae37ef11b136ea224fe,,,,,,,,,71,83,28,1,0,0,response1disk,,6,4,8,1,0,0,rectangle,4,8,1,0,0,4,8,1,0,0,1,134,294,73,1,,,,,,,,
,,,,,,,,,,,,,FF,,,,,,,,0.788,,,,,,,,,,,,,,,,,,,,,,60fd55ed264098eb4692f1d9,61036ae405f315829a6dd535,2021-07-30_12h59.51.023,Simcolourproject_2stim_asymm_v5,2020.2.10,MacIntel,60,61025ae37ef11b136ea224fe,,,,,,,,,4364,69,31,1,0,0,response1disk,,6,2,-3,1,0,0,rectangle,2,-3,1,0,0,2,-3,1,0,0,1,135,295,53,1,,,,,,,,
,,,,,,,,,,,,,FF,,,,,,,,0.536,,,,,,,,,,,,,,,,,,,,,,60fd55ed264098eb4692f1d9,61036ae405f315829a6dd535,2021-07-30_12h59.51.023,Simcolourproject_2stim_asymm_v5,2020.2.10,MacIntel,60,61025ae37ef11b136ea224fe,,,,,,,,,4130,24,53,1,0,0,response1disk,,7,14,1,1,0,0,rectangle,14,1,1,0,0,14,1,1,0,0,1,136,296,2,1,,,,,,,,
,,,,,,,,,,,,,FF,,,,,,,,0.471,,,,,,,,,,,,,,,,,,,,,,60fd55ed264098eb4692f1d9,61036ae405f315829a6dd535,2021-07-30_12h59.51.023,Simcolourproject_2stim_asymm_v5,2020.2.10,MacIntel,60,61025ae37ef11b136ea224fe,,,,,,,,,4311,34,75,1,0,0,response1disk,,7,24,9,1,0,0,rectangle,24,9,1,0,0,24,9,1,0,0,1,137,297,127,1,,,,,,,,
,,,,,,,,,,,,,FF,,,,,,,,0.585,,,,,,,,,,,,,,,,,,,,,,60fd55ed264098eb4692f1d9,61036ae405f315829a6dd535,2021-07-30_12h59.51.023,Simcolourproject_2stim_asymm_v5,2020.2.10,MacIntel,60,61025ae37ef11b136ea224fe,,,,,,,,,3618,29,55,1,0,0,response1disk,,7,2,-13,1,0,0,rectangle,2,-13,1,0,0,2,-13,1,0,0,1,138,298,146,1,,,,,,,,
,,,,,,,,,,,,,FF,,,,,,,,0.716,,,,,,,,,,,,,,,,,,,,,,60fd55ed264098eb4692f1d9,61036ae405f315829a6dd535,2021-07-30_12h59.51.023,Simcolourproject_2stim_asymm_v5,2020.2.10,MacIntel,60,61025ae37ef11b136ea224fe,,,,,,,,,3540,33,83,1,0,0,response1disk,,7,16,1,1,0,0,rectangle,16,1,1,0,0,16,1,1,0,0,1,139,299,118,1,,,,,,,,
,,,,,,,,,,,,,FF,,,,,,,,0.684,,,,,,,,,,,,,,,,,,,,,,60fd55ed264098eb4692f1d9,61036ae405f315829a6dd535,2021-07-30_12h59.51.023,Simcolourproject_2stim_asymm_v5,2020.2.10,MacIntel,60,61025ae37ef11b136ea224fe,,,,,,,,,3012,28,60,1,0,0,response1disk,,7,18,-9,1,0,0,rectangle,18,-9,1,0,0,18,-9,1,0,0,1,140,300,94,1,,,,,,,,
,,,,,,,,,,,,,FF,,,,,,,,0.536,,,,,,,,,,,,,,,,,,,,,,60fd55ed264098eb4692f1d9,61036ae405f315829a6dd535,2021-07-30_12h59.51.023,Simcolourproject_2stim_asymm_v5,2020.2.10,MacIntel,60,61025ae37ef11b136ea224fe,,,,,,,,,2808,29,51,1,0,0,response1disk,,7,21,-6,1,0,0,rectangle,21,-6,1,0,0,21,-6,1,0,0,1,141,301,0,1,,,,,,,,
