key_resp.keys,key_resp.rt,key_resp_14.keys,key_resp_14.rt,key_resp_15.keys,key_resp_15.rt,key_resp_17.keys,key_resp_17.rt,key_resp_9.keys,key_resp_9.rt,key_resp_10.keys,key_resp_10.rt,practice_comparison,Ecc,mouse_5.x,mouse_5.y,mouse_5.leftButton,mouse_5.midButton,mouse_5.rightButton,mouse_5.clicked_name,pracsimilarity,response_time,mouse_10.x,mouse_10.y,mouse_10.leftButton,mouse_10.midButton,mouse_10.rightButton,mouse_10.clicked_name,mouse_7.x,mouse_7.y,mouse_7.leftButton,mouse_7.midButton,mouse_7.rightButton,mouse_6.x,mouse_6.y,mouse_6.leftButton,mouse_6.midButton,mouse_6.rightButton,duringprac.thisRepN,duringprac.thisTrialN,duringprac.thisN,duringprac.thisIndex,duringprac.ran,participant,session,date,expName,psychopyVersion,OS,frameRate,study_id,mouse_7.clicked_name,catchpracsimilarity,catch_response_time,catchnumberprac,catchtrialorderprac,mouse_6.clicked_name,key_resp_22.keys,key_resp_22.rt,realcomparison,mouse.x,mouse.y,mouse.leftButton,mouse.midButton,mouse.rightButton,mouse.clicked_name,Colour2,similarity,mouse_2.x,mouse_2.y,mouse_2.leftButton,mouse_2.midButton,mouse_2.rightButton,mouse_2.clicked_name,mouse_3.x,mouse_3.y,mouse_3.leftButton,mouse_3.midButton,mouse_3.rightButton,mouse_11.x,mouse_11.y,mouse_11.leftButton,mouse_11.midButton,mouse_11.rightButton,trials_2.thisRepN,trials_2.thisTrialN,trials_2.thisN,trials_2.thisIndex,trials_2.ran,Colour1,mouse_3.clicked_name,catchornah,catchsimilarity,catchnumber,catchtrialorder,catchRT,mouse_11.clicked_name
space,1.4361,space,10.5863,space,33.2867,space,10.9154,space,3.2494,space,5.9481,28,PF,30.25891113,-78.99969482,1,0,0,response3disk_5,4,7.122,-1.922729492,7.989959717,1,0,0,rectangle_8,-1.922729492,7.989959717,1,0,0,-1.922729492,7.989959717,1,0,0,0,0,0,4,1,60fde3c7557aa5fc22be0e18,61036d76af6d8f4cd65ba720,2021-07-29_20h10.34.758,Simcolourproject_2stim_asymm_v5,2020.2.10,MacIntel,60,61025ae37ef11b136ea224fe,,,,,,,,,,,,,,,,,,,,,,,,,,,,,,,,,,,,,,,,,,,,,,
,,,,,,,,,,,,117,FF,-87.40991211,-36.46459961,1,0,0,response5disk_5,2,6.6344,11.79278564,-1.971893311,1,0,0,rectangle_8,93.20288086,45.84197998,1,0,0,-10.88781738,-7.657348633,1,0,0,0,1,1,3,1,60fde3c7557aa5fc22be0e18,61036d76af6d8f4cd65ba720,2021-07-29_20h10.34.758,Simcolourproject_2stim_asymm_v5,2020.2.10,MacIntel,60,61025ae37ef11b136ea224fe,response1disk_7,6,3.5829,6,"[2,5]",rectangle_4,,,,,,,,,,,,,,,,,,,,,,,,,,,,,,,,,,,,,,,,
,,,,,,,,,,,,81,PF,-64.55218506,34.31045532,1,0,0,response7disk_5,1,2.1167,-0.245849609,-5.788299561,1,0,0,rectangle_8,-0.245849609,-5.788299561,1,0,0,-0.245849609,-5.788299561,1,0,0,0,2,2,6,1,60fde3c7557aa5fc22be0e18,61036d76af6d8f4cd65ba720,2021-07-29_20h10.34.758,Simcolourproject_2stim_asymm_v5,2020.2.10,MacIntel,60,61025ae37ef11b136ea224fe,,,,,,,,,,,,,,,,,,,,,,,,,,,,,,,,,,,,,,,,,,,,,,
,,,,,,,,,,,,160,FF,-77.19812012,-54.33236694,1,0,0,response5disk_5,2,1.3662,-5.22845459,-4.822235107,1,0,0,rectangle_8,-5.22845459,-4.822235107,1,0,0,-5.22845459,-4.822235107,1,0,0,0,3,3,0,1,60fde3c7557aa5fc22be0e18,61036d76af6d8f4cd65ba720,2021-07-29_20h10.34.758,Simcolourproject_2stim_asymm_v5,2020.2.10,MacIntel,60,61025ae37ef11b136ea224fe,,,,,,,,,,,,,,,,,,,,,,,,,,,,,,,,,,,,,,,,,,,,,,
,,,,,,,,,,,,140,PF,-33.65411377,-77.8482666,1,0,0,response5disk_5,3,1.7158,11.82836914,-2.109161377,1,0,0,rectangle_8,85.71850586,36.22473145,1,0,0,2.41192627,-6.391540527,1,0,0,0,4,4,1,1,60fde3c7557aa5fc22be0e18,61036d76af6d8f4cd65ba720,2021-07-29_20h10.34.758,Simcolourproject_2stim_asymm_v5,2020.2.10,MacIntel,60,61025ae37ef11b136ea224fe,response1disk_7,6,2.552,6,"[2,5]",rectangle_4,,,,,,,,,,,,,,,,,,,,,,,,,,,,,,,,,,,,,,,,
,,,,,,,,,,,,144,FF,67.75830078,49.22958374,1,0,0,response1disk_5,6,1.6348,-1.200317383,-0.542694092,1,0,0,rectangle_8,-1.200317383,-0.542694092,1,0,0,-1.200317383,-0.542694092,1,0,0,0,5,5,5,1,60fde3c7557aa5fc22be0e18,61036d76af6d8f4cd65ba720,2021-07-29_20h10.34.758,Simcolourproject_2stim_asymm_v5,2020.2.10,MacIntel,60,61025ae37ef11b136ea224fe,,,,,,,,,,,,,,,,,,,,,,,,,,,,,,,,,,,,,,,,,,,,,,
,,,,,,,,,,,,32,PF,53.27630615,-98.89910889,1,0,0,response3disk_5,4,3.9825,1.955078125,-11.24804688,1,0,0,rectangle_8,1.955078125,-11.24804688,1,0,0,1.955078125,-11.24804688,1,0,0,0,6,6,2,1,60fde3c7557aa5fc22be0e18,61036d76af6d8f4cd65ba720,2021-07-29_20h10.34.758,Simcolourproject_2stim_asymm_v5,2020.2.10,MacIntel,60,61025ae37ef11b136ea224fe,,,,,,,,,,,,,,,,,,,,,,,,,,,,,,,,,,,,,,,,,,,,,,
,,,,,,,,,,,,,FF,,,,,,,,2.0663,,,,,,,,,,,,,,,,,,,,,,60fde3c7557aa5fc22be0e18,61036d76af6d8f4cd65ba720,2021-07-29_20h10.34.758,Simcolourproject_2stim_asymm_v5,2020.2.10,MacIntel,60,61025ae37ef11b136ea224fe,,,,,,,space,5.0421,1294,-82.61450195,-41.32046509,1,0,0,response5disk,,2,-9.355407715,-10.00469971,1,0,0,rectangle,-9.355407715,-10.00469971,1,0,0,-9.355407715,-10.00469971,1,0,0,0,0,0,98,1,,,,,,,,
,,,,,,,,,,,,,FF,,,,,,,,3.6332,,,,,,,,,,,,,,,,,,,,,,60fde3c7557aa5fc22be0e18,61036d76af6d8f4cd65ba720,2021-07-29_20h10.34.758,Simcolourproject_2stim_asymm_v5,2020.2.10,MacIntel,60,61025ae37ef11b136ea224fe,,,,,,,,,3131,41.05169678,83.75326538,1,0,0,response1disk,,7,1.982849121,-4.363067627,1,0,0,rectangle,1.982849121,-4.363067627,1,0,0,1.982849121,-4.363067627,1,0,0,0,1,1,7,1,,,,,,,,
,,,,,,,,,,,,,FF,,,,,,,,1.3499,,,,,,,,,,,,,,,,,,,,,,60fde3c7557aa5fc22be0e18,61036d76af6d8f4cd65ba720,2021-07-29_20h10.34.758,Simcolourproject_2stim_asymm_v5,2020.2.10,MacIntel,60,61025ae37ef11b136ea224fe,,,,,,,,,2513,40.4887085,74.67633057,1,0,0,response1disk,,7,2.712402344,-3.093261719,1,0,0,rectangle,2.712402344,-3.093261719,1,0,0,2.712402344,-3.093261719,1,0,0,0,2,2,123,1,,,,,,,,
,,,,,,,,,,,,,FF,,,,,,,,1.083,,,,,,,,,,,,,,,,,,,,,,60fde3c7557aa5fc22be0e18,61036d76af6d8f4cd65ba720,2021-07-29_20h10.34.758,Simcolourproject_2stim_asymm_v5,2020.2.10,MacIntel,60,61025ae37ef11b136ea224fe,,,,,,,,,2004,35.11529541,73.62393188,1,0,0,response1disk,,7,1.837524414,1.059539795,1,0,0,rectangle,1.837524414,1.059539795,1,0,0,1.837524414,1.059539795,1,0,0,0,3,3,137,1,,,,,,,,
,,,,,,,,,,,,,FF,,,,,,,,2.0995,,,,,,,,,,,,,,,,,,,,,,60fde3c7557aa5fc22be0e18,61036d76af6d8f4cd65ba720,2021-07-29_20h10.34.758,Simcolourproject_2stim_asymm_v5,2020.2.10,MacIntel,60,61025ae37ef11b136ea224fe,,,,,,,,,483,63.33056641,31.0098877,1,0,0,response1disk,,6,-10.96343994,-16.96282959,1,0,0,rectangle,-10.96343994,-16.96282959,1,0,0,-10.96343994,-16.96282959,1,0,0,0,4,4,73,1,,,,,,,,
,,,,,,,,,,,,,FF,,,,,,,,3.1,,,,,,,,,,,,,,,,,,,,,,60fde3c7557aa5fc22be0e18,61036d76af6d8f4cd65ba720,2021-07-29_20h10.34.758,Simcolourproject_2stim_asymm_v5,2020.2.10,MacIntel,60,61025ae37ef11b136ea224fe,,,,,,,,,3248,68.29266357,47.62744141,1,0,0,response1disk,,6,-24.2756958,-0.158447266,1,0,0,rectangle,-24.2756958,-0.158447266,1,0,0,-24.2756958,-0.158447266,1,0,0,0,5,5,56,1,,,,,,,,
,,,,,,,,,,,,,FF,,,,,,,,2.7002,,,,,,,,,,,,,,,,,,,,,,60fde3c7557aa5fc22be0e18,61036d76af6d8f4cd65ba720,2021-07-29_20h10.34.758,Simcolourproject_2stim_asymm_v5,2020.2.10,MacIntel,60,61025ae37ef11b136ea224fe,,,,,,,,,193,41.31964111,-82.62695313,1,0,0,response3disk,,4,-3.853820801,1.926055908,1,0,0,rectangle,-3.853820801,1.926055908,1,0,0,-3.853820801,1.926055908,1,0,0,0,6,6,100,1,,,,,,,,
,,,,,,,,,,,,,FF,,,,,,,,2.0172,,,,,,,,,,,,,,,,,,,,,,60fde3c7557aa5fc22be0e18,61036d76af6d8f4cd65ba720,2021-07-29_20h10.34.758,Simcolourproject_2stim_asymm_v5,2020.2.10,MacIntel,60,61025ae37ef11b136ea224fe,,,,,,,,,936,69.91601563,28.47686768,1,0,0,response1disk,,6,25.69342041,-4.992248535,1,0,0,rectangle,25.69342041,-4.992248535,1,0,0,25.69342041,-4.992248535,1,0,0,0,7,7,77,1,,,,,,,,
,,,,,,,,,,,,,FF,,,,,,,,2.5493,,,,,,,,,,,,,,,,,,,,,,60fde3c7557aa5fc22be0e18,61036d76af6d8f4cd65ba720,2021-07-29_20h10.34.758,Simcolourproject_2stim_asymm_v5,2020.2.10,MacIntel,60,61025ae37ef11b136ea224fe,,,,,,,,,3718,40.06958008,-91.79748535,1,0,0,response3disk,,4,10.12463379,3.215698242,1,0,0,rectangle,10.12463379,3.215698242,1,0,0,10.12463379,3.215698242,1,0,0,0,8,8,135,1,,,,,,,,
,,,,,,,,,,,,,FF,,,,,,,,4.9831,,,,,,,,,,,,,,,,,,,,,,60fde3c7557aa5fc22be0e18,61036d76af6d8f4cd65ba720,2021-07-29_20h10.34.758,Simcolourproject_2stim_asymm_v5,2020.2.10,MacIntel,60,61025ae37ef11b136ea224fe,,,,,,,,,1369,-41.21478271,-103.7468872,1,0,0,response5disk,,3,15.86914063,1.173614502,1,0,0,rectangle,15.86914063,1.173614502,1,0,0,15.86914063,1.173614502,1,0,0,0,9,9,43,1,,,,,,,,
,,,,,,,,,,,,,FF,,,,,,,,2.6658,,,,,,,,,,,,,,,,,,,,,,60fde3c7557aa5fc22be0e18,61036d76af6d8f4cd65ba720,2021-07-29_20h10.34.758,Simcolourproject_2stim_asymm_v5,2020.2.10,MacIntel,60,61025ae37ef11b136ea224fe,,,,,,,,,809,50.12109375,-89.58825684,1,0,0,response3disk,,4,-14.94024658,-11.44198608,1,0,0,rectangle,-14.94024658,-11.44198608,1,0,0,-14.94024658,-11.44198608,1,0,0,0,10,10,154,1,,,,,,,,
,,,,,,,,,,,,,FF,,,,,,,,4.6991,,,,,,,,,,,,,,,,,,,,,,60fde3c7557aa5fc22be0e18,61036d76af6d8f4cd65ba720,2021-07-29_20h10.34.758,Simcolourproject_2stim_asymm_v5,2020.2.10,MacIntel,60,61025ae37ef11b136ea224fe,,,,,,,,,477,75.06793213,-41.88903809,1,0,0,response3disk,,5,-19.78283691,10.27844238,1,0,0,rectangle,-19.78283691,10.27844238,1,0,0,-19.78283691,10.27844238,1,0,0,0,11,11,33,1,,,,,,,,
,,,,,,,,,,,,,FF,,,,,,,,2.3504,,,,,,,,,,,,,,,,,,,,,,60fde3c7557aa5fc22be0e18,61036d76af6d8f4cd65ba720,2021-07-29_20h10.34.758,Simcolourproject_2stim_asymm_v5,2020.2.10,MacIntel,60,61025ae37ef11b136ea224fe,,,,,,,,,3810,-36.42858887,88.76992798,1,0,0,response7disk,,0,-3.267883301,1.357299805,1,0,0,rectangle,-3.267883301,1.357299805,1,0,0,-3.267883301,1.357299805,1,0,0,0,12,12,114,1,,,,,,,,
,,,,,,,,,,,,,FF,,,,,,,,4.7004,,,,,,,,,,,,,,,,,,,,,,60fde3c7557aa5fc22be0e18,61036d76af6d8f4cd65ba720,2021-07-29_20h10.34.758,Simcolourproject_2stim_asymm_v5,2020.2.10,MacIntel,60,61025ae37ef11b136ea224fe,,,,,,,,,4151,-41.20501709,-80.89923096,1,0,0,response5disk,,3,9.423217773,-2.910186768,1,0,0,rectangle,9.423217773,-2.910186768,1,0,0,9.423217773,-2.910186768,1,0,0,0,13,13,47,1,,,,,,,,
,,,,,,,,,,,,,FF,,,,,,,,3.1494,,,,,,,,,,,,,,,,,,,,,,60fde3c7557aa5fc22be0e18,61036d76af6d8f4cd65ba720,2021-07-29_20h10.34.758,Simcolourproject_2stim_asymm_v5,2020.2.10,MacIntel,60,61025ae37ef11b136ea224fe,,,,,,,,,2158,41.86505127,79.11270142,1,0,0,response1disk,,7,5.552246094,0.474060059,1,0,0,rectangle,5.552246094,0.474060059,1,0,0,5.552246094,0.474060059,1,0,0,0,14,14,107,1,,,,,,,,
,,,,,,,,,,,,,FF,,,,,,,,1.7506,,,,,,,,,,,,,,,,,,,,,,60fde3c7557aa5fc22be0e18,61036d76af6d8f4cd65ba720,2021-07-29_20h10.34.758,Simcolourproject_2stim_asymm_v5,2020.2.10,MacIntel,60,61025ae37ef11b136ea224fe,,,,,,,,,3749,-76.09088135,-46.24020386,1,0,0,response5disk,,2,15.35803223,0.943664551,1,0,0,rectangle,15.35803223,0.943664551,1,0,0,15.35803223,0.943664551,1,0,0,0,15,15,28,1,,,,,,,,
,,,,,,,,,,,,,FF,,,,,,,,1.2674,,,,,,,,,,,,,,,,,,,,,,60fde3c7557aa5fc22be0e18,61036d76af6d8f4cd65ba720,2021-07-29_20h10.34.758,Simcolourproject_2stim_asymm_v5,2020.2.10,MacIntel,60,61025ae37ef11b136ea224fe,,,,,,,,,755,94.77935791,43.57144165,1,0,0,response1disk,,6,21.17828369,2.205444336,1,0,0,rectangle,21.17828369,2.205444336,1,0,0,21.17828369,2.205444336,1,0,0,0,16,16,15,1,,,,,,,,
,,,,,,,,,,,,,FF,,,,,,,,1.7665,,,,,,,,,,,,,,,,,,,,,,60fde3c7557aa5fc22be0e18,61036d76af6d8f4cd65ba720,2021-07-29_20h10.34.758,Simcolourproject_2stim_asymm_v5,2020.2.10,MacIntel,60,61025ae37ef11b136ea224fe,,,,,,,,,2564,66.34429932,35.79214478,1,0,0,response1disk,,6,0.971374512,-9.728729248,1,0,0,rectangle,0.971374512,-9.728729248,1,0,0,0.971374512,-9.728729248,1,0,0,0,17,17,19,1,,,,,,,,
,,,,,,,,,,,,,FF,,,,,,,,2.8692,,,,,,,,,,,,,,,,,,,,,,60fde3c7557aa5fc22be0e18,61036d76af6d8f4cd65ba720,2021-07-29_20h10.34.758,Simcolourproject_2stim_asymm_v5,2020.2.10,MacIntel,60,61025ae37ef11b136ea224fe,,,,,,,,,926,60.68634033,-31.51849365,1,0,0,response3disk,,5,-6.402526855,-4.541412354,1,0,0,rectangle,-6.402526855,-4.541412354,1,0,0,-6.402526855,-4.541412354,1,0,0,0,18,18,91,1,,,,,,,,
,,,,,,,,,,,,,FF,,,,,,,,1.617,,,,,,,,,,,,,,,,,,,,,,60fde3c7557aa5fc22be0e18,61036d76af6d8f4cd65ba720,2021-07-29_20h10.34.758,Simcolourproject_2stim_asymm_v5,2020.2.10,MacIntel,60,61025ae37ef11b136ea224fe,,,,,,,,,3763,48.08001709,75.01971436,1,0,0,response1disk,,7,-4.431152344,-2.935668945,1,0,0,rectangle,-4.431152344,-2.935668945,1,0,0,-4.431152344,-2.935668945,1,0,0,0,19,19,36,1,,,,,,,,
,,,,,,,,,,,,,FF,,,,,,,,1.9164,,,,,,,,,,,,,,,,,,,,,,60fde3c7557aa5fc22be0e18,61036d76af6d8f4cd65ba720,2021-07-29_20h10.34.758,Simcolourproject_2stim_asymm_v5,2020.2.10,MacIntel,60,61025ae37ef11b136ea224fe,,,,,,,,,2589,93.29333496,48.19854736,1,0,0,response1disk,,6,19.0848999,5.746887207,1,0,0,rectangle,19.0848999,5.746887207,1,0,0,19.0848999,5.746887207,1,0,0,0,20,20,49,1,,,,,,,,
,,,,,,,,,,,,,FF,,,,,,,,1.8009,,,,,,,,,,,,,,,,,,,,,,60fde3c7557aa5fc22be0e18,61036d76af6d8f4cd65ba720,2021-07-29_20h10.34.758,Simcolourproject_2stim_asymm_v5,2020.2.10,MacIntel,60,61025ae37ef11b136ea224fe,,,,,,,,,1563,90.40283203,37.98043823,1,0,0,response1disk,,6,11.86743164,4.026367188,1,0,0,rectangle,11.86743164,4.026367188,1,0,0,11.86743164,4.026367188,1,0,0,0,21,21,74,1,,,,,,,,
,,,,,,,,,,,,,FF,,,,,,,,1.9668,,,,,,,,,,,,,,,,,,,,,,60fde3c7557aa5fc22be0e18,61036d76af6d8f4cd65ba720,2021-07-29_20h10.34.758,Simcolourproject_2stim_asymm_v5,2020.2.10,MacIntel,60,61025ae37ef11b136ea224fe,,,,,,,,,1944,54.61352539,-81.56896973,1,0,0,response3disk,,4,2.316223145,1.983947754,1,0,0,rectangle,2.316223145,1.983947754,1,0,0,2.316223145,1.983947754,1,0,0,0,22,22,66,1,,,,,,,,
,,,,,,,,,,,,,FF,,,,,,,,2.084,,,,,,,,,,,,,,,,,,,,,,60fde3c7557aa5fc22be0e18,61036d76af6d8f4cd65ba720,2021-07-29_20h10.34.758,Simcolourproject_2stim_asymm_v5,2020.2.10,MacIntel,60,61025ae37ef11b136ea224fe,,,,,,,,,2989,52.84259033,-86.9163208,1,0,0,response3disk,,4,20.12042236,-4.389373779,1,0,0,rectangle,20.12042236,-4.389373779,1,0,0,20.12042236,-4.389373779,1,0,0,0,23,23,12,1,,,,,,,,
,,,,,,,,,,,,,FF,,,,,,,,4.0501,,,,,,,,,,,,,,,,,,,,,,60fde3c7557aa5fc22be0e18,61036d76af6d8f4cd65ba720,2021-07-29_20h10.34.758,Simcolourproject_2stim_asymm_v5,2020.2.10,MacIntel,60,61025ae37ef11b136ea224fe,,,,,,,,,3589,92.16955566,58.08410645,1,0,0,response1disk,,6,-11.69830322,-0.169464111,1,0,0,rectangle,-11.69830322,-0.169464111,1,0,0,-11.69830322,-0.169464111,1,0,0,0,24,24,133,1,,,,,,,,
,,,,,,,,,,,,,FF,,,,,,,,1.3334,,,,,,,,,,,,,,,,,,,,,,60fde3c7557aa5fc22be0e18,61036d76af6d8f4cd65ba720,2021-07-29_20h10.34.758,Simcolourproject_2stim_asymm_v5,2020.2.10,MacIntel,60,61025ae37ef11b136ea224fe,,,,,,,,,484,73.65362549,-56.75680542,1,0,0,response3disk,,5,13.27874756,5.367431641,1,0,0,rectangle,13.27874756,5.367431641,1,0,0,13.27874756,5.367431641,1,0,0,0,25,25,151,1,,,,,,,,
,,,,,,,,,,,,,FF,,,,,,,,1.8492,,,,,,,,,,,,,,,,,,,,,,60fde3c7557aa5fc22be0e18,61036d76af6d8f4cd65ba720,2021-07-29_20h10.34.758,Simcolourproject_2stim_asymm_v5,2020.2.10,MacIntel,60,61025ae37ef11b136ea224fe,,,,,,,,,2549,-75.56439209,-42.0418396,1,0,0,response5disk,,2,-6.297058105,13.36758423,1,0,0,rectangle,-6.297058105,13.36758423,1,0,0,-6.297058105,13.36758423,1,0,0,0,26,26,32,1,,,,,,,,
,,,,,,,,,,,,,FF,,,,,,,,1.0667,,,,,,,,,,,,,,,,,,,,,,60fde3c7557aa5fc22be0e18,61036d76af6d8f4cd65ba720,2021-07-29_20h10.34.758,Simcolourproject_2stim_asymm_v5,2020.2.10,MacIntel,60,61025ae37ef11b136ea224fe,,,,,,,,,2204,92.98632813,31.74621582,1,0,0,response1disk,,6,16.40057373,-16.109375,1,0,0,rectangle,16.40057373,-16.109375,1,0,0,16.40057373,-16.109375,1,0,0,0,27,27,45,1,,,,,,,,
,,,,,,,,,,,,,FF,,,,,,,,1.5844,,,,,,,,,,,,,,,,,,,,,,60fde3c7557aa5fc22be0e18,61036d76af6d8f4cd65ba720,2021-07-29_20h10.34.758,Simcolourproject_2stim_asymm_v5,2020.2.10,MacIntel,60,61025ae37ef11b136ea224fe,,,,,,,,,2121,81.70800781,23.23791504,1,0,0,response1disk,,6,18.23382568,4.003570557,1,0,0,rectangle,18.23382568,4.003570557,1,0,0,18.23382568,4.003570557,1,0,0,0,28,28,54,1,,,,,,,,
,,,,,,,,,,,,,FF,,,,,,,,1.0664,,,,,,,,,,,,,,,,,,,,,,60fde3c7557aa5fc22be0e18,61036d76af6d8f4cd65ba720,2021-07-29_20h10.34.758,Simcolourproject_2stim_asymm_v5,2020.2.10,MacIntel,60,61025ae37ef11b136ea224fe,,,,,,,,,4189,-61.07531738,-88.82568359,1,0,0,response5disk,,3,17.17108154,-12.57748413,1,0,0,rectangle,17.17108154,-12.57748413,1,0,0,17.17108154,-12.57748413,1,0,0,0,29,29,85,1,,,,,,,,
,,,,,,,,,,,,,FF,,,,,,,,1.7828,,,,,,,,,,,,,,,,,,,,,,60fde3c7557aa5fc22be0e18,61036d76af6d8f4cd65ba720,2021-07-29_20h10.34.758,Simcolourproject_2stim_asymm_v5,2020.2.10,MacIntel,60,61025ae37ef11b136ea224fe,,,,,,,,,1378,38.44958496,-56.45846558,1,0,0,response3disk,,4,5.815979004,-8.968078613,1,0,0,rectangle,5.815979004,-8.968078613,1,0,0,5.815979004,-8.968078613,1,0,0,0,30,30,90,1,,,,,,,,
,,,,,,,,,,,,,FF,,,,,,,,1.0831,,,,,,,,,,,,,,,,,,,,,,60fde3c7557aa5fc22be0e18,61036d76af6d8f4cd65ba720,2021-07-29_20h10.34.758,Simcolourproject_2stim_asymm_v5,2020.2.10,MacIntel,60,61025ae37ef11b136ea224fe,,,,,,,,,1312,29.00756836,-80.64172363,1,0,0,response3disk,,4,19.97888184,12.01617432,1,0,0,rectangle,19.97888184,12.01617432,1,0,0,19.97888184,12.01617432,1,0,0,0,31,31,70,1,,,,,,,,
,,,,,,,,,,,,,FF,,,,,,,,0.9842,,,,,,,,,,,,,,,,,,,,,,60fde3c7557aa5fc22be0e18,61036d76af6d8f4cd65ba720,2021-07-29_20h10.34.758,Simcolourproject_2stim_asymm_v5,2020.2.10,MacIntel,60,61025ae37ef11b136ea224fe,,,,,,,,,544,28.98840332,-78.54803467,1,0,0,response3disk,,4,6.231628418,-17.37927246,1,0,0,rectangle,6.231628418,-17.37927246,1,0,0,6.231628418,-17.37927246,1,0,0,0,32,32,127,1,,,,,,,,
,,,,,,,,,,,,,FF,,,,,,,,1.5664,,,,,,,,,,,,,,,,,,,,,,60fde3c7557aa5fc22be0e18,61036d76af6d8f4cd65ba720,2021-07-29_20h10.34.758,Simcolourproject_2stim_asymm_v5,2020.2.10,MacIntel,60,61025ae37ef11b136ea224fe,,,,,,,,,2923,114.357666,-31.99468994,1,0,0,response3disk,,5,15.04193115,6.756469727,1,0,0,rectangle,15.04193115,6.756469727,1,0,0,15.04193115,6.756469727,1,0,0,0,33,33,51,1,,,,,,,,
,,,,,,,,,,,,,FF,,,,,,,,1.017,,,,,,,,,,,,,,,,,,,,,,60fde3c7557aa5fc22be0e18,61036d76af6d8f4cd65ba720,2021-07-29_20h10.34.758,Simcolourproject_2stim_asymm_v5,2020.2.10,MacIntel,60,61025ae37ef11b136ea224fe,,,,,,,,,100,-55.51068115,-94.02264404,1,0,0,response5disk,,3,5.329467773,5.718017578,1,0,0,rectangle,5.329467773,5.718017578,1,0,0,5.329467773,5.718017578,1,0,0,0,34,34,16,1,,,,,,,,
,,,,,,,,,,,,,FF,,,,,,,,0.7,,,,,,,,,,,,,,,,,,,,,,60fde3c7557aa5fc22be0e18,61036d76af6d8f4cd65ba720,2021-07-29_20h10.34.758,Simcolourproject_2stim_asymm_v5,2020.2.10,MacIntel,60,61025ae37ef11b136ea224fe,,,,,,,,,106,-42.10723877,-80.67364502,1,0,0,response5disk,,3,1.581359863,12.73825073,1,0,0,rectangle,1.581359863,12.73825073,1,0,0,1.581359863,12.73825073,1,0,0,0,35,35,44,1,,,,,,,,
,,,,,,,,,,,,,FF,,,,,,,,0.8343,,,,,,,,,,,,,,,,,,,,,,60fde3c7557aa5fc22be0e18,61036d76af6d8f4cd65ba720,2021-07-29_20h10.34.758,Simcolourproject_2stim_asymm_v5,2020.2.10,MacIntel,60,61025ae37ef11b136ea224fe,,,,,,,,,3069,85.32531738,56.65127563,1,0,0,response1disk,,6,-1.080078125,-0.18270874,1,0,0,rectangle,-1.080078125,-0.18270874,1,0,0,-1.080078125,-0.18270874,1,0,0,0,36,36,142,1,,,,,,,,
,,,,,,,,,,,,,FF,,,,,,,,1.617,,,,,,,,,,,,,,,,,,,,,,60fde3c7557aa5fc22be0e18,61036d76af6d8f4cd65ba720,2021-07-29_20h10.34.758,Simcolourproject_2stim_asymm_v5,2020.2.10,MacIntel,60,61025ae37ef11b136ea224fe,,,,,,,,,2090,50.23950195,-65.43261719,1,0,0,response3disk,,4,10.2008667,-0.989776611,1,0,0,rectangle,10.2008667,-0.989776611,1,0,0,10.2008667,-0.989776611,1,0,0,0,37,37,144,1,,,,,,,,
,,,,,,,,,,,,,FF,,,,,,,,0.8999,,,,,,,,,,,,,,,,,,,,,,60fde3c7557aa5fc22be0e18,61036d76af6d8f4cd65ba720,2021-07-29_20h10.34.758,Simcolourproject_2stim_asymm_v5,2020.2.10,MacIntel,60,61025ae37ef11b136ea224fe,,,,,,,,,3600,33.78033447,-46.27420044,1,0,0,response3disk,,4,23.01239014,-7.898773193,1,0,0,rectangle,23.01239014,-7.898773193,1,0,0,23.01239014,-7.898773193,1,0,0,0,38,38,55,1,,,,,,,,
,,,,,,,,,,,,,FF,,,,,,,,1.2015,,,,,,,,,,,,,,,,,,,,,,60fde3c7557aa5fc22be0e18,61036d76af6d8f4cd65ba720,2021-07-29_20h10.34.758,Simcolourproject_2stim_asymm_v5,2020.2.10,MacIntel,60,61025ae37ef11b136ea224fe,,,,,,,,,57,82.16687012,49.82354736,1,0,0,response1disk,,6,-4.354675293,-17.53265381,1,0,0,rectangle,-4.354675293,-17.53265381,1,0,0,-4.354675293,-17.53265381,1,0,0,0,39,39,134,1,,,,,,,,
,,,,,,,,,,,,,FF,,,,,,,,0.7995,,,,,,,,,,,,,,,,,,,,,,60fde3c7557aa5fc22be0e18,61036d76af6d8f4cd65ba720,2021-07-29_20h10.34.758,Simcolourproject_2stim_asymm_v5,2020.2.10,MacIntel,60,61025ae37ef11b136ea224fe,,,,,,,,,3528,44.20013428,71.5864563,1,0,0,response1disk,,7,13.83221436,4.632202148,1,0,0,rectangle,13.83221436,4.632202148,1,0,0,13.83221436,4.632202148,1,0,0,0,40,40,138,1,,,,,,,,
,,,,,,,,,,,,,FF,,,,,,,,1.0167,,,,,,,,,,,,,,,,,,,,,,60fde3c7557aa5fc22be0e18,61036d76af6d8f4cd65ba720,2021-07-29_20h10.34.758,Simcolourproject_2stim_asymm_v5,2020.2.10,MacIntel,60,61025ae37ef11b136ea224fe,,,,,,,,,2236,-85.28894043,-46.98602295,1,0,0,response5disk,,2,-5.259216309,-3.51461792,1,0,0,rectangle,-5.259216309,-3.51461792,1,0,0,-5.259216309,-3.51461792,1,0,0,0,41,41,152,1,,,,,,,,
,,,,,,,,,,,,,FF,,,,,,,,1.7655,,,,,,,,,,,,,,,,,,,,,,60fde3c7557aa5fc22be0e18,61036d76af6d8f4cd65ba720,2021-07-29_20h10.34.758,Simcolourproject_2stim_asymm_v5,2020.2.10,MacIntel,60,61025ae37ef11b136ea224fe,,,,,,,,,729,54.61175537,-57.06604004,1,0,0,response3disk,,4,-0.804443359,2.857696533,1,0,0,rectangle,-0.804443359,2.857696533,1,0,0,-0.804443359,2.857696533,1,0,0,0,42,42,159,1,,,,,,,,
,,,,,,,,,,,,,FF,,,,,,,,0.9506,,,,,,,,,,,,,,,,,,,,,,60fde3c7557aa5fc22be0e18,61036d76af6d8f4cd65ba720,2021-07-29_20h10.34.758,Simcolourproject_2stim_asymm_v5,2020.2.10,MacIntel,60,61025ae37ef11b136ea224fe,,,,,,,,,2202,77.48822021,46.81243896,1,0,0,response1disk,,6,6.339111328,-3.331481934,1,0,0,rectangle,6.339111328,-3.331481934,1,0,0,6.339111328,-3.331481934,1,0,0,0,43,43,1,1,,,,,,,,
,,,,,,,,,,,,,FF,,,,,,,,1.0336,,,,,,,,,,,,,,,,,,,,,,60fde3c7557aa5fc22be0e18,61036d76af6d8f4cd65ba720,2021-07-29_20h10.34.758,Simcolourproject_2stim_asymm_v5,2020.2.10,MacIntel,60,61025ae37ef11b136ea224fe,,,,,,,,,532,-79.28118896,36.10122681,1,0,0,response7disk,,1,-7.479736328,7.387573242,1,0,0,rectangle,-7.479736328,7.387573242,1,0,0,-7.479736328,7.387573242,1,0,0,0,44,44,81,1,,,,,,,,
,,,,,,,,,,,,,FF,,,,,,,,2.2335,,,,,,,,,,,,,,,,,,,,,,60fde3c7557aa5fc22be0e18,61036d76af6d8f4cd65ba720,2021-07-29_20h10.34.758,Simcolourproject_2stim_asymm_v5,2020.2.10,MacIntel,60,61025ae37ef11b136ea224fe,,,,,,,,,1140,77.86157227,38.80996704,1,0,0,response1disk,,6,-19.62030029,-1.58215332,1,0,0,rectangle,-19.62030029,-1.58215332,1,0,0,-19.62030029,-1.58215332,1,0,0,0,45,45,50,1,,,,,,,,
,,,,,,,,,,,,,FF,,,,,,,,3.5005,,,,,,,,,,,,,,,,,,,,,,60fde3c7557aa5fc22be0e18,61036d76af6d8f4cd65ba720,2021-07-29_20h10.34.758,Simcolourproject_2stim_asymm_v5,2020.2.10,MacIntel,60,61025ae37ef11b136ea224fe,,,,,,,,,45,49.46655273,-103.0361938,1,0,0,response3disk,,4,-4.901733398,-10.70825195,1,0,0,rectangle,-4.901733398,-10.70825195,1,0,0,-4.901733398,-10.70825195,1,0,0,0,46,46,23,1,,,,,,,,
,,,,,,,,,,,,,FF,,,,,,,,1.0667,,,,,,,,,,,,,,,,,,,,,,60fde3c7557aa5fc22be0e18,61036d76af6d8f4cd65ba720,2021-07-29_20h10.34.758,Simcolourproject_2stim_asymm_v5,2020.2.10,MacIntel,60,61025ae37ef11b136ea224fe,,,,,,,,,468,-84.80108643,-45.46353149,1,0,0,response5disk,,2,-1.37689209,-11.74783325,1,0,0,rectangle,-1.37689209,-11.74783325,1,0,0,-1.37689209,-11.74783325,1,0,0,0,47,47,35,1,,,,,,,,
,,,,,,,,,,,,,FF,,,,,,,,2.2662,,,,,,,,,,,,,,,,,,,,,,60fde3c7557aa5fc22be0e18,61036d76af6d8f4cd65ba720,2021-07-29_20h10.34.758,Simcolourproject_2stim_asymm_v5,2020.2.10,MacIntel,60,61025ae37ef11b136ea224fe,,,,,,,,,2770,72.15808105,-46.20758057,1,0,0,response3disk,,5,-4.197143555,-4.711120605,1,0,0,rectangle,-4.197143555,-4.711120605,1,0,0,-4.197143555,-4.711120605,1,0,0,0,48,48,18,1,,,,,,,,
,,,,,,,,,,,,,FF,,,,,,,,5.7336,,,,,,,,,,,,,,,,,,,,,,60fde3c7557aa5fc22be0e18,61036d76af6d8f4cd65ba720,2021-07-29_20h10.34.758,Simcolourproject_2stim_asymm_v5,2020.2.10,MacIntel,60,61025ae37ef11b136ea224fe,,,,,,,,,1457,-29.7588501,-78.4296875,1,0,0,response5disk,,3,13.79174805,-2.846343994,1,0,0,rectangle,13.79174805,-2.846343994,1,0,0,13.79174805,-2.846343994,1,0,0,0,49,49,146,1,,,,,,,,
,,,,,,,,,,,,,FF,,,,,,,,1.3085,,,,,,,,,,,,,,,,,,,,,,60fde3c7557aa5fc22be0e18,61036d76af6d8f4cd65ba720,2021-07-29_20h10.34.758,Simcolourproject_2stim_asymm_v5,2020.2.10,MacIntel,60,61025ae37ef11b136ea224fe,,,,,,,,,1881,99.71923828,-64.89569092,1,0,0,response3disk,,5,-1.079406738,-11.57208252,1,0,0,rectangle,-1.079406738,-11.57208252,1,0,0,-1.079406738,-11.57208252,1,0,0,0,50,50,30,1,,,,,,,,
,,,,,,,,,,,,,FF,,,,,,,,0.7836,,,,,,,,,,,,,,,,,,,,,,60fde3c7557aa5fc22be0e18,61036d76af6d8f4cd65ba720,2021-07-29_20h10.34.758,Simcolourproject_2stim_asymm_v5,2020.2.10,MacIntel,60,61025ae37ef11b136ea224fe,,,,,,,,,2717,106.3414917,-34.40661621,1,0,0,response3disk,,5,15.19152832,11.49389648,1,0,0,rectangle,15.19152832,11.49389648,1,0,0,15.19152832,11.49389648,1,0,0,0,51,51,38,1,,,,,,,,
,,,,,,,,,,,,,FF,,,,,,,,1.0176,,,,,,,,,,,,,,,,,,,,,,60fde3c7557aa5fc22be0e18,61036d76af6d8f4cd65ba720,2021-07-29_20h10.34.758,Simcolourproject_2stim_asymm_v5,2020.2.10,MacIntel,60,61025ae37ef11b136ea224fe,,,,,,,,,3942,-62.55621338,-40.36120605,1,0,0,response5disk,,2,-14.72180176,-16.0123291,1,0,0,rectangle,-14.72180176,-16.0123291,1,0,0,-14.72180176,-16.0123291,1,0,0,0,52,52,141,1,,,,,,,,
,,,,,,,,,,,,,FF,,,,,,,,0.7667,,,,,,,,,,,,,,,,,,,,,,60fde3c7557aa5fc22be0e18,61036d76af6d8f4cd65ba720,2021-07-29_20h10.34.758,Simcolourproject_2stim_asymm_v5,2020.2.10,MacIntel,60,61025ae37ef11b136ea224fe,,,,,,,,,255,-36.67041016,-89.40777588,1,0,0,response5disk,,3,-2.131286621,-4.444396973,1,0,0,rectangle,-2.131286621,-4.444396973,1,0,0,-2.131286621,-4.444396973,1,0,0,0,53,53,149,1,,,,,,,,
,,,,,,,,,,,,,FF,,,,,,,,0.7004,,,,,,,,,,,,,,,,,,,,,,60fde3c7557aa5fc22be0e18,61036d76af6d8f4cd65ba720,2021-07-29_20h10.34.758,Simcolourproject_2stim_asymm_v5,2020.2.10,MacIntel,60,61025ae37ef11b136ea224fe,,,,,,,,,3422,77.3190918,43.26815796,1,0,0,response1disk,,6,-7.394226074,5.737670898,1,0,0,rectangle,-69.48968506,-32.32327271,1,0,0,4.604736328,-2.928863525,1,0,0,0,54,54,89,1,,response5disk_3,TRUE,2,2,"[235,76,234,71,263,243,238,293,185,88,182,223,228,320,104,259,169,228,59,55]",2.5679,rectangle
,,,,,,,,,,,,,FF,,,,,,,,2.2675,,,,,,,,,,,,,,,,,,,,,,60fde3c7557aa5fc22be0e18,61036d76af6d8f4cd65ba720,2021-07-29_20h10.34.758,Simcolourproject_2stim_asymm_v5,2020.2.10,MacIntel,60,61025ae37ef11b136ea224fe,,,,,,,,,142,58.85900879,79.6121521,1,0,0,response1disk,,7,10.7010498,3.062988281,1,0,0,rectangle,10.7010498,3.062988281,1,0,0,10.7010498,3.062988281,1,0,0,0,55,55,11,1,,,,,,,,
,,,,,,,,,,,,,FF,,,,,,,,1.5505,,,,,,,,,,,,,,,,,,,,,,60fde3c7557aa5fc22be0e18,61036d76af6d8f4cd65ba720,2021-07-29_20h10.34.758,Simcolourproject_2stim_asymm_v5,2020.2.10,MacIntel,60,61025ae37ef11b136ea224fe,,,,,,,,,1571,78.55895996,37.80505371,1,0,0,response1disk,,6,8.380126953,5.509063721,1,0,0,rectangle,8.380126953,5.509063721,1,0,0,8.380126953,5.509063721,1,0,0,0,56,56,68,1,,,,,,,,
,,,,,,,,,,,,,FF,,,,,,,,0.6827,,,,,,,,,,,,,,,,,,,,,,60fde3c7557aa5fc22be0e18,61036d76af6d8f4cd65ba720,2021-07-29_20h10.34.758,Simcolourproject_2stim_asymm_v5,2020.2.10,MacIntel,60,61025ae37ef11b136ea224fe,,,,,,,,,1993,70.88226318,34.95211792,1,0,0,response1disk,,6,5.332092285,7.583557129,1,0,0,rectangle,5.332092285,7.583557129,1,0,0,5.332092285,7.583557129,1,0,0,0,57,57,158,1,,,,,,,,
,,,,,,,,,,,,,FF,,,,,,,,0.5498,,,,,,,,,,,,,,,,,,,,,,60fde3c7557aa5fc22be0e18,61036d76af6d8f4cd65ba720,2021-07-29_20h10.34.758,Simcolourproject_2stim_asymm_v5,2020.2.10,MacIntel,60,61025ae37ef11b136ea224fe,,,,,,,,,3025,82.44195557,45.35928345,1,0,0,response1disk,,6,5.255004883,8.758361816,1,0,0,rectangle,-90.97979736,-61.66046143,1,0,0,6.373657227,-10.67477417,1,0,0,0,58,58,148,1,,response5disk_3,TRUE,2,2,"[235,76,234,71,263,243,238,293,185,88,182,223,228,320,104,259,169,228,59,55]",1.8316,rectangle
,,,,,,,,,,,,,FF,,,,,,,,1.667,,,,,,,,,,,,,,,,,,,,,,60fde3c7557aa5fc22be0e18,61036d76af6d8f4cd65ba720,2021-07-29_20h10.34.758,Simcolourproject_2stim_asymm_v5,2020.2.10,MacIntel,60,61025ae37ef11b136ea224fe,,,,,,,,,1270,94.17596436,42.70681763,1,0,0,response1disk,,6,17.78771973,2.201080322,1,0,0,rectangle,17.78771973,2.201080322,1,0,0,17.78771973,2.201080322,1,0,0,0,59,59,156,1,,,,,,,,
,,,,,,,,,,,,,FF,,,,,,,,0.8338,,,,,,,,,,,,,,,,,,,,,,60fde3c7557aa5fc22be0e18,61036d76af6d8f4cd65ba720,2021-07-29_20h10.34.758,Simcolourproject_2stim_asymm_v5,2020.2.10,MacIntel,60,61025ae37ef11b136ea224fe,,,,,,,,,1512,100.0410156,60.73400879,1,0,0,response1disk,,6,-11.01098633,8.375579834,1,0,0,rectangle,-11.01098633,8.375579834,1,0,0,-11.01098633,8.375579834,1,0,0,0,60,60,113,1,,,,,,,,
,,,,,,,,,,,,,FF,,,,,,,,0.7998,,,,,,,,,,,,,,,,,,,,,,60fde3c7557aa5fc22be0e18,61036d76af6d8f4cd65ba720,2021-07-29_20h10.34.758,Simcolourproject_2stim_asymm_v5,2020.2.10,MacIntel,60,61025ae37ef11b136ea224fe,,,,,,,,,1692,78.36132813,34.01925659,1,0,0,response1disk,,6,8.465026855,6.807067871,1,0,0,rectangle,8.465026855,6.807067871,1,0,0,8.465026855,6.807067871,1,0,0,0,61,61,64,1,,,,,,,,
,,,,,,,,,,,,,FF,,,,,,,,1.1002,,,,,,,,,,,,,,,,,,,,,,60fde3c7557aa5fc22be0e18,61036d76af6d8f4cd65ba720,2021-07-29_20h10.34.758,Simcolourproject_2stim_asymm_v5,2020.2.10,MacIntel,60,61025ae37ef11b136ea224fe,,,,,,,,,1381,71.30316162,-45.77935791,1,0,0,response3disk,,5,-2.792480469,-3.442260742,1,0,0,rectangle,-2.792480469,-3.442260742,1,0,0,-2.792480469,-3.442260742,1,0,0,0,62,62,112,1,,,,,,,,
,,,,,,,,,,,,,FF,,,,,,,,5.0332,,,,,,,,,,,,,,,,,,,,,,60fde3c7557aa5fc22be0e18,61036d76af6d8f4cd65ba720,2021-07-29_20h10.34.758,Simcolourproject_2stim_asymm_v5,2020.2.10,MacIntel,60,61025ae37ef11b136ea224fe,,,,,,,,,3563,98.53619385,-38.09463501,1,0,0,response3disk,,5,-2.51361084,-6.564880371,1,0,0,rectangle,-2.51361084,-6.564880371,1,0,0,-2.51361084,-6.564880371,1,0,0,0,63,63,117,1,,,,,,,,
,,,,,,,,,,,,,FF,,,,,,,,1.1331,,,,,,,,,,,,,,,,,,,,,,60fde3c7557aa5fc22be0e18,61036d76af6d8f4cd65ba720,2021-07-29_20h10.34.758,Simcolourproject_2stim_asymm_v5,2020.2.10,MacIntel,60,61025ae37ef11b136ea224fe,,,,,,,,,2390,106.0789185,61.39077759,1,0,0,response1disk,,6,10.63580322,4.627929688,1,0,0,rectangle,10.63580322,4.627929688,1,0,0,10.63580322,4.627929688,1,0,0,0,64,64,67,1,,,,,,,,
,,,,,,,,,,,,,FF,,,,,,,,0.9162,,,,,,,,,,,,,,,,,,,,,,60fde3c7557aa5fc22be0e18,61036d76af6d8f4cd65ba720,2021-07-29_20h10.34.758,Simcolourproject_2stim_asymm_v5,2020.2.10,MacIntel,60,61025ae37ef11b136ea224fe,,,,,,,,,3935,88.43878174,55.43255615,1,0,0,response1disk,,6,-5.608276367,1.021606445,1,0,0,rectangle,-5.608276367,1.021606445,1,0,0,-5.608276367,1.021606445,1,0,0,0,65,65,31,1,,,,,,,,
,,,,,,,,,,,,,FF,,,,,,,,1.85,,,,,,,,,,,,,,,,,,,,,,60fde3c7557aa5fc22be0e18,61036d76af6d8f4cd65ba720,2021-07-29_20h10.34.758,Simcolourproject_2stim_asymm_v5,2020.2.10,MacIntel,60,61025ae37ef11b136ea224fe,,,,,,,,,2237,-83.86987305,-71.01153564,1,0,0,response5disk,,2,-10.80834961,1.803161621,1,0,0,rectangle,-10.80834961,1.803161621,1,0,0,-10.80834961,1.803161621,1,0,0,0,66,66,34,1,,,,,,,,
,,,,,,,,,,,,,FF,,,,,,,,1.9341,,,,,,,,,,,,,,,,,,,,,,60fde3c7557aa5fc22be0e18,61036d76af6d8f4cd65ba720,2021-07-29_20h10.34.758,Simcolourproject_2stim_asymm_v5,2020.2.10,MacIntel,60,61025ae37ef11b136ea224fe,,,,,,,,,3785,-60.80511475,-90.59069824,1,0,0,response5disk,,3,0.75213623,-5.128875732,1,0,0,rectangle,0.75213623,-5.128875732,1,0,0,0.75213623,-5.128875732,1,0,0,0,67,67,6,1,,,,,,,,
,,,,,,,,,,,,,FF,,,,,,,,0.9655,,,,,,,,,,,,,,,,,,,,,,60fde3c7557aa5fc22be0e18,61036d76af6d8f4cd65ba720,2021-07-29_20h10.34.758,Simcolourproject_2stim_asymm_v5,2020.2.10,MacIntel,60,61025ae37ef11b136ea224fe,,,,,,,,,94,-69.39324951,43.58837891,1,0,0,response7disk,,1,16.32299805,-5.944396973,1,0,0,rectangle,16.32299805,-5.944396973,1,0,0,16.32299805,-5.944396973,1,0,0,0,68,68,9,1,,,,,,,,
,,,,,,,,,,,,,FF,,,,,,,,0.8665,,,,,,,,,,,,,,,,,,,,,,60fde3c7557aa5fc22be0e18,61036d76af6d8f4cd65ba720,2021-07-29_20h10.34.758,Simcolourproject_2stim_asymm_v5,2020.2.10,MacIntel,60,61025ae37ef11b136ea224fe,,,,,,,,,820,84.88317871,39.30950928,1,0,0,response1disk,,6,3.55670166,4.3203125,1,0,0,rectangle,3.55670166,4.3203125,1,0,0,3.55670166,4.3203125,1,0,0,0,69,69,95,1,,,,,,,,
,,,,,,,,,,,,,FF,,,,,,,,0.6189,,,,,,,,,,,,,,,,,,,,,,60fde3c7557aa5fc22be0e18,61036d76af6d8f4cd65ba720,2021-07-29_20h10.34.758,Simcolourproject_2stim_asymm_v5,2020.2.10,MacIntel,60,61025ae37ef11b136ea224fe,,,,,,,,,1153,80.82666016,36.78253174,1,0,0,response1disk,,6,11.06890869,4.104156494,1,0,0,rectangle,75.45355225,-30.59927368,1,0,0,-8.504150391,-0.724151611,1,0,0,0,70,70,94,1,,response3disk_3,TRUE,5,5,"[235,76,234,71,263,243,238,293,185,88,182,223,228,320,104,259,169,228,59,55]",1.3838,rectangle
,,,,,,,,,,,,,FF,,,,,,,,0.8174,,,,,,,,,,,,,,,,,,,,,,60fde3c7557aa5fc22be0e18,61036d76af6d8f4cd65ba720,2021-07-29_20h10.34.758,Simcolourproject_2stim_asymm_v5,2020.2.10,MacIntel,60,61025ae37ef11b136ea224fe,,,,,,,,,367,-65.32043457,22.96749878,1,0,0,response7disk,,1,-6.146118164,-8.801452637,1,0,0,rectangle,-6.146118164,-8.801452637,1,0,0,-6.146118164,-8.801452637,1,0,0,0,71,71,2,1,,,,,,,,
,,,,,,,,,,,,,FF,,,,,,,,1.3996,,,,,,,,,,,,,,,,,,,,,,60fde3c7557aa5fc22be0e18,61036d76af6d8f4cd65ba720,2021-07-29_20h10.34.758,Simcolourproject_2stim_asymm_v5,2020.2.10,MacIntel,60,61025ae37ef11b136ea224fe,,,,,,,,,3703,61.53283691,-52.83016968,1,0,0,response3disk,,5,-18.3729248,-4.997741699,1,0,0,rectangle,-18.3729248,-4.997741699,1,0,0,-18.3729248,-4.997741699,1,0,0,0,72,72,93,1,,,,,,,,
,,,,,,,,,,,,,FF,,,,,,,,1.4534,,,,,,,,,,,,,,,,,,,,,,60fde3c7557aa5fc22be0e18,61036d76af6d8f4cd65ba720,2021-07-29_20h10.34.758,Simcolourproject_2stim_asymm_v5,2020.2.10,MacIntel,60,61025ae37ef11b136ea224fe,,,,,,,,,3925,97.29754639,46.78231812,1,0,0,response1disk,,6,3.476074219,-3.380828857,1,0,0,rectangle,3.476074219,-3.380828857,1,0,0,3.476074219,-3.380828857,1,0,0,0,73,73,27,1,,,,,,,,
,,,,,,,,,,,,,FF,,,,,,,,0.6496,,,,,,,,,,,,,,,,,,,,,,60fde3c7557aa5fc22be0e18,61036d76af6d8f4cd65ba720,2021-07-29_20h10.34.758,Simcolourproject_2stim_asymm_v5,2020.2.10,MacIntel,60,61025ae37ef11b136ea224fe,,,,,,,,,1254,84.29846191,34.17901611,1,0,0,response1disk,,6,-0.657409668,1.19519043,1,0,0,rectangle,-0.657409668,1.19519043,1,0,0,-0.657409668,1.19519043,1,0,0,0,74,74,78,1,,,,,,,,
,,,,,,,,,,,,,FF,,,,,,,,0.716,,,,,,,,,,,,,,,,,,,,,,60fde3c7557aa5fc22be0e18,61036d76af6d8f4cd65ba720,2021-07-29_20h10.34.758,Simcolourproject_2stim_asymm_v5,2020.2.10,MacIntel,60,61025ae37ef11b136ea224fe,,,,,,,,,1402,74.82897949,34.15884399,1,0,0,response1disk,,6,-0.250610352,-8.604644775,1,0,0,rectangle,-19.14422607,85.12768555,1,0,0,0.86315918,-9.107696533,1,0,0,0,75,75,101,1,,response7disk_3,TRUE,0,0,"[235,76,234,71,263,243,238,293,185,88,182,223,228,320,104,259,169,228,59,55]",1.9498,rectangle
,,,,,,,,,,,,,FF,,,,,,,,0.8994,,,,,,,,,,,,,,,,,,,,,,60fde3c7557aa5fc22be0e18,61036d76af6d8f4cd65ba720,2021-07-29_20h10.34.758,Simcolourproject_2stim_asymm_v5,2020.2.10,MacIntel,60,61025ae37ef11b136ea224fe,,,,,,,,,3328,-61.49786377,35.70776367,1,0,0,response7disk,,1,1.589355469,9.267272949,1,0,0,rectangle,1.589355469,9.267272949,1,0,0,1.589355469,9.267272949,1,0,0,0,76,76,118,1,,,,,,,,
,,,,,,,,,,,,,FF,,,,,,,,0.7332,,,,,,,,,,,,,,,,,,,,,,60fde3c7557aa5fc22be0e18,61036d76af6d8f4cd65ba720,2021-07-29_20h10.34.758,Simcolourproject_2stim_asymm_v5,2020.2.10,MacIntel,60,61025ae37ef11b136ea224fe,,,,,,,,,639,-51.01702881,29.58026123,1,0,0,response7disk,,1,-15.2699585,17.02053833,1,0,0,rectangle,-15.2699585,17.02053833,1,0,0,-15.2699585,17.02053833,1,0,0,0,77,77,76,1,,,,,,,,
,,,,,,,,,,,,,FF,,,,,,,,0.8841,,,,,,,,,,,,,,,,,,,,,,60fde3c7557aa5fc22be0e18,61036d76af6d8f4cd65ba720,2021-07-29_20h10.34.758,Simcolourproject_2stim_asymm_v5,2020.2.10,MacIntel,60,61025ae37ef11b136ea224fe,,,,,,,,,177,85.27825928,48.59967041,1,0,0,response1disk,,6,-10.25018311,2.037597656,1,0,0,rectangle,-10.25018311,2.037597656,1,0,0,-10.25018311,2.037597656,1,0,0,0,78,78,130,1,,,,,,,,
,,,,,,,,,,,,,FF,,,,,,,,0.8839,,,,,,,,,,,,,,,,,,,,,,60fde3c7557aa5fc22be0e18,61036d76af6d8f4cd65ba720,2021-07-29_20h10.34.758,Simcolourproject_2stim_asymm_v5,2020.2.10,MacIntel,60,61025ae37ef11b136ea224fe,,,,,,,,,3276,52.23577881,35.52203369,1,0,0,response1disk,,6,-4.063232422,-16.52853394,1,0,0,rectangle,-4.063232422,-16.52853394,1,0,0,-4.063232422,-16.52853394,1,0,0,0,79,79,128,1,,,,,,,,
,,,,,,,,,,,,,FF,,,,,,,,1.6837,,,,,,,,,,,,,,,,,,,,,,60fde3c7557aa5fc22be0e18,61036d76af6d8f4cd65ba720,2021-07-29_20h10.34.758,Simcolourproject_2stim_asymm_v5,2020.2.10,MacIntel,60,61025ae37ef11b136ea224fe,,,,,,,,,764,43.02844238,69.55349731,1,0,0,response1disk,,7,15.43365479,11.07623291,1,0,0,rectangle,15.43365479,11.07623291,1,0,0,15.43365479,11.07623291,1,0,0,0,80,80,132,1,,,,,,,,
,,,,,,,,,,,,,FF,,,,,,,,0.8838,,,,,,,,,,,,,,,,,,,,,,60fde3c7557aa5fc22be0e18,61036d76af6d8f4cd65ba720,2021-07-29_20h10.34.758,Simcolourproject_2stim_asymm_v5,2020.2.10,MacIntel,60,61025ae37ef11b136ea224fe,,,,,,,,,3943,-72.34106445,52.52307129,1,0,0,response7disk,,1,-18.73834229,16.51730347,1,0,0,rectangle,-18.73834229,16.51730347,1,0,0,-18.73834229,16.51730347,1,0,0,0,81,81,80,1,,,,,,,,
,,,,,,,,,,,,,FF,,,,,,,,1.0668,,,,,,,,,,,,,,,,,,,,,,60fde3c7557aa5fc22be0e18,61036d76af6d8f4cd65ba720,2021-07-29_20h10.34.758,Simcolourproject_2stim_asymm_v5,2020.2.10,MacIntel,60,61025ae37ef11b136ea224fe,,,,,,,,,2588,35.23699951,85.16766357,1,0,0,response1disk,,7,-2.895507813,4.354095459,1,0,0,rectangle,-2.895507813,4.354095459,1,0,0,-2.895507813,4.354095459,1,0,0,0,82,82,129,1,,,,,,,,
,,,,,,,,,,,,,FF,,,,,,,,1.3153,,,,,,,,,,,,,,,,,,,,,,60fde3c7557aa5fc22be0e18,61036d76af6d8f4cd65ba720,2021-07-29_20h10.34.758,Simcolourproject_2stim_asymm_v5,2020.2.10,MacIntel,60,61025ae37ef11b136ea224fe,,,,,,,,,1593,74.09313965,-34.59863281,1,0,0,response3disk,,5,-6.152587891,-5.594482422,1,0,0,rectangle,-6.152587891,-5.594482422,1,0,0,-6.152587891,-5.594482422,1,0,0,0,83,83,116,1,,,,,,,,
,,,,,,,,,,,,,FF,,,,,,,,0.8835,,,,,,,,,,,,,,,,,,,,,,60fde3c7557aa5fc22be0e18,61036d76af6d8f4cd65ba720,2021-07-29_20h10.34.758,Simcolourproject_2stim_asymm_v5,2020.2.10,MacIntel,60,61025ae37ef11b136ea224fe,,,,,,,,,4252,-68.39465332,42.49404907,1,0,0,response7disk,,1,1.201904297,0.781494141,1,0,0,rectangle,1.201904297,0.781494141,1,0,0,1.201904297,0.781494141,1,0,0,0,84,84,59,1,,,,,,,,
,,,,,,,,,,,,,FF,,,,,,,,1.1841,,,,,,,,,,,,,,,,,,,,,,60fde3c7557aa5fc22be0e18,61036d76af6d8f4cd65ba720,2021-07-29_20h10.34.758,Simcolourproject_2stim_asymm_v5,2020.2.10,MacIntel,60,61025ae37ef11b136ea224fe,,,,,,,,,2064,42.82794189,75.0725708,1,0,0,response1disk,,7,20.03887939,17.24407959,1,0,0,rectangle,20.03887939,17.24407959,1,0,0,20.03887939,17.24407959,1,0,0,0,85,85,119,1,,,,,,,,
,,,,,,,,,,,,,FF,,,,,,,,0.7511,,,,,,,,,,,,,,,,,,,,,,60fde3c7557aa5fc22be0e18,61036d76af6d8f4cd65ba720,2021-07-29_20h10.34.758,Simcolourproject_2stim_asymm_v5,2020.2.10,MacIntel,60,61025ae37ef11b136ea224fe,,,,,,,,,1567,49.05371094,69.9387207,1,0,0,response1disk,,7,27.11187744,0.520782471,1,0,0,rectangle,27.11187744,0.520782471,1,0,0,27.11187744,0.520782471,1,0,0,0,86,86,92,1,,,,,,,,
,,,,,,,,,,,,,FF,,,,,,,,1.8162,,,,,,,,,,,,,,,,,,,,,,60fde3c7557aa5fc22be0e18,61036d76af6d8f4cd65ba720,2021-07-29_20h10.34.758,Simcolourproject_2stim_asymm_v5,2020.2.10,MacIntel,60,61025ae37ef11b136ea224fe,,,,,,,,,4092,92.25115967,22.71148682,1,0,0,response1disk,,6,-6.968322754,-1.189422607,1,0,0,rectangle,67.3336792,-32.89852905,1,0,0,-12.171875,-12.40075684,1,0,0,0,87,87,40,1,,response3disk_3,TRUE,5,5,"[235,76,234,71,263,243,238,293,185,88,182,223,228,320,104,259,169,228,59,55]",1.3671,rectangle
,,,,,,,,,,,,,FF,,,,,,,,2.1005,,,,,,,,,,,,,,,,,,,,,,60fde3c7557aa5fc22be0e18,61036d76af6d8f4cd65ba720,2021-07-29_20h10.34.758,Simcolourproject_2stim_asymm_v5,2020.2.10,MacIntel,60,61025ae37ef11b136ea224fe,,,,,,,,,11,-41.63842773,-96.02618408,1,0,0,response5disk,,3,6.309997559,4.429992676,1,0,0,rectangle,6.309997559,4.429992676,1,0,0,6.309997559,4.429992676,1,0,0,0,88,88,21,1,,,,,,,,
,,,,,,,,,,,,,FF,,,,,,,,1.2498,,,,,,,,,,,,,,,,,,,,,,60fde3c7557aa5fc22be0e18,61036d76af6d8f4cd65ba720,2021-07-29_20h10.34.758,Simcolourproject_2stim_asymm_v5,2020.2.10,MacIntel,60,61025ae37ef11b136ea224fe,,,,,,,,,209,69.27386475,27.85818481,1,0,0,response1disk,,6,-9.589782715,3.156097412,1,0,0,rectangle,-9.589782715,3.156097412,1,0,0,-9.589782715,3.156097412,1,0,0,0,89,89,147,1,,,,,,,,
,,,,,,,,,,,,,FF,,,,,,,,1.5323,,,,,,,,,,,,,,,,,,,,,,60fde3c7557aa5fc22be0e18,61036d76af6d8f4cd65ba720,2021-07-29_20h10.34.758,Simcolourproject_2stim_asymm_v5,2020.2.10,MacIntel,60,61025ae37ef11b136ea224fe,,,,,,,,,156,45.88000488,-68.18731689,1,0,0,response3disk,,4,10.14880371,-4.945922852,1,0,0,rectangle,10.14880371,-4.945922852,1,0,0,10.14880371,-4.945922852,1,0,0,0,90,90,136,1,,,,,,,,
,,,,,,,,,,,,,FF,,,,,,,,2.9163,,,,,,,,,,,,,,,,,,,,,,60fde3c7557aa5fc22be0e18,61036d76af6d8f4cd65ba720,2021-07-29_20h10.34.758,Simcolourproject_2stim_asymm_v5,2020.2.10,MacIntel,60,61025ae37ef11b136ea224fe,,,,,,,,,3140,-37.65606689,-88.97259521,1,0,0,response5disk,,3,-10.5526123,6.834106445,1,0,0,rectangle,-10.5526123,6.834106445,1,0,0,-10.5526123,6.834106445,1,0,0,0,91,91,122,1,,,,,,,,
,,,,,,,,,,,,,FF,,,,,,,,1.9834,,,,,,,,,,,,,,,,,,,,,,60fde3c7557aa5fc22be0e18,61036d76af6d8f4cd65ba720,2021-07-29_20h10.34.758,Simcolourproject_2stim_asymm_v5,2020.2.10,MacIntel,60,61025ae37ef11b136ea224fe,,,,,,,,,535,26.62182617,-101.095459,1,0,0,response3disk,,4,13.43127441,-17.48535156,1,0,0,rectangle,13.43127441,-17.48535156,1,0,0,13.43127441,-17.48535156,1,0,0,0,92,92,22,1,,,,,,,,
,,,,,,,,,,,,,FF,,,,,,,,2.0507,,,,,,,,,,,,,,,,,,,,,,60fde3c7557aa5fc22be0e18,61036d76af6d8f4cd65ba720,2021-07-29_20h10.34.758,Simcolourproject_2stim_asymm_v5,2020.2.10,MacIntel,60,61025ae37ef11b136ea224fe,,,,,,,,,2407,82.2713623,30.3260498,1,0,0,response1disk,,6,8.576416016,-0.386474609,1,0,0,rectangle,8.576416016,-0.386474609,1,0,0,8.576416016,-0.386474609,1,0,0,0,93,93,102,1,,,,,,,,
,,,,,,,,,,,,,FF,,,,,,,,0.6497,,,,,,,,,,,,,,,,,,,,,,60fde3c7557aa5fc22be0e18,61036d76af6d8f4cd65ba720,2021-07-29_20h10.34.758,Simcolourproject_2stim_asymm_v5,2020.2.10,MacIntel,60,61025ae37ef11b136ea224fe,,,,,,,,,1718,67.96911621,24.48046875,1,0,0,response1disk,,6,-0.602478027,2.615814209,1,0,0,rectangle,-0.602478027,2.615814209,1,0,0,-0.602478027,2.615814209,1,0,0,0,94,94,103,1,,,,,,,,
,,,,,,,,,,,,,FF,,,,,,,,1.3828,,,,,,,,,,,,,,,,,,,,,,60fde3c7557aa5fc22be0e18,61036d76af6d8f4cd65ba720,2021-07-29_20h10.34.758,Simcolourproject_2stim_asymm_v5,2020.2.10,MacIntel,60,61025ae37ef11b136ea224fe,,,,,,,,,2614,-72.94360352,-57.77142334,1,0,0,response5disk,,2,-11.7409668,-13.3638916,1,0,0,rectangle,-11.7409668,-13.3638916,1,0,0,-11.7409668,-13.3638916,1,0,0,0,95,95,72,1,,,,,,,,
,,,,,,,,,,,,,FF,,,,,,,,1.8172,,,,,,,,,,,,,,,,,,,,,,60fde3c7557aa5fc22be0e18,61036d76af6d8f4cd65ba720,2021-07-29_20h10.34.758,Simcolourproject_2stim_asymm_v5,2020.2.10,MacIntel,60,61025ae37ef11b136ea224fe,,,,,,,,,3187,-37.184021,-97.59387207,1,0,0,response5disk,,3,5.291442871,-16.13327026,1,0,0,rectangle,5.291442871,-16.13327026,1,0,0,5.291442871,-16.13327026,1,0,0,0,96,96,157,1,,,,,,,,
,,,,,,,,,,,,,FF,,,,,,,,1.0507,,,,,,,,,,,,,,,,,,,,,,60fde3c7557aa5fc22be0e18,61036d76af6d8f4cd65ba720,2021-07-29_20h10.34.758,Simcolourproject_2stim_asymm_v5,2020.2.10,MacIntel,60,61025ae37ef11b136ea224fe,,,,,,,,,2340,93.77337646,36.10913086,1,0,0,response1disk,,6,0.082702637,10.62783813,1,0,0,rectangle,0.082702637,10.62783813,1,0,0,0.082702637,10.62783813,1,0,0,0,97,97,8,1,,,,,,,,
,,,,,,,,,,,,,FF,,,,,,,,0.8167,,,,,,,,,,,,,,,,,,,,,,60fde3c7557aa5fc22be0e18,61036d76af6d8f4cd65ba720,2021-07-29_20h10.34.758,Simcolourproject_2stim_asymm_v5,2020.2.10,MacIntel,60,61025ae37ef11b136ea224fe,,,,,,,,,2982,45.93585205,72.41897583,1,0,0,response1disk,,7,10.03143311,12.33590698,1,0,0,rectangle,10.03143311,12.33590698,1,0,0,10.03143311,12.33590698,1,0,0,0,98,98,106,1,,,,,,,,
,,,,,,,,,,,,,FF,,,,,,,,0.8159,,,,,,,,,,,,,,,,,,,,,,60fde3c7557aa5fc22be0e18,61036d76af6d8f4cd65ba720,2021-07-29_20h10.34.758,Simcolourproject_2stim_asymm_v5,2020.2.10,MacIntel,60,61025ae37ef11b136ea224fe,,,,,,,,,84,42.65167236,77.81121826,1,0,0,response1disk,,7,9.91192627,-2.191772461,1,0,0,rectangle,9.91192627,-2.191772461,1,0,0,9.91192627,-2.191772461,1,0,0,0,99,99,121,1,,,,,,,,
,,,,,,,,,,,,,FF,,,,,,,,2.384,,,,,,,,,,,,,,,,,,,,,,60fde3c7557aa5fc22be0e18,61036d76af6d8f4cd65ba720,2021-07-29_20h10.34.758,Simcolourproject_2stim_asymm_v5,2020.2.10,MacIntel,60,61025ae37ef11b136ea224fe,,,,,,,,,3683,-43.86791992,-97.5635376,1,0,0,response5disk,,3,1.12109375,2.251739502,1,0,0,rectangle,1.12109375,2.251739502,1,0,0,1.12109375,2.251739502,1,0,0,0,100,100,120,1,,,,,,,,
,,,,,,,,,,,,,FF,,,,,,,,0.85,,,,,,,,,,,,,,,,,,,,,,60fde3c7557aa5fc22be0e18,61036d76af6d8f4cd65ba720,2021-07-29_20h10.34.758,Simcolourproject_2stim_asymm_v5,2020.2.10,MacIntel,60,61025ae37ef11b136ea224fe,,,,,,,,,620,-78.30395508,44.96755981,1,0,0,response7disk,,1,-11.2588501,10.40298462,1,0,0,rectangle,-11.2588501,10.40298462,1,0,0,-11.2588501,10.40298462,1,0,0,0,101,101,150,1,,,,,,,,
,,,,,,,,,,,,,FF,,,,,,,,1.6168,,,,,,,,,,,,,,,,,,,,,,60fde3c7557aa5fc22be0e18,61036d76af6d8f4cd65ba720,2021-07-29_20h10.34.758,Simcolourproject_2stim_asymm_v5,2020.2.10,MacIntel,60,61025ae37ef11b136ea224fe,,,,,,,,,3458,44.75146484,67.0736084,1,0,0,response1disk,,7,3.134277344,-10.38879395,1,0,0,rectangle,3.134277344,-10.38879395,1,0,0,3.134277344,-10.38879395,1,0,0,0,102,102,139,1,,,,,,,,
,,,,,,,,,,,,,FF,,,,,,,,1.25,,,,,,,,,,,,,,,,,,,,,,60fde3c7557aa5fc22be0e18,61036d76af6d8f4cd65ba720,2021-07-29_20h10.34.758,Simcolourproject_2stim_asymm_v5,2020.2.10,MacIntel,60,61025ae37ef11b136ea224fe,,,,,,,,,4313,73.81744385,-41.71865845,1,0,0,response3disk,,5,-13.68878174,-12.70748901,1,0,0,rectangle,-71.87695313,35.45080566,1,0,0,-5.413757324,0.960693359,1,0,0,0,103,103,111,1,,response7disk_3,TRUE,1,1,"[235,76,234,71,263,243,238,293,185,88,182,223,228,320,104,259,169,228,59,55]",1.3666,rectangle
,,,,,,,,,,,,,FF,,,,,,,,0.7493,,,,,,,,,,,,,,,,,,,,,,60fde3c7557aa5fc22be0e18,61036d76af6d8f4cd65ba720,2021-07-29_20h10.34.758,Simcolourproject_2stim_asymm_v5,2020.2.10,MacIntel,60,61025ae37ef11b136ea224fe,,,,,,,,,2181,-77.24810791,30.15487671,1,0,0,response7disk,,1,-26.22845459,3.1144104,1,0,0,rectangle,-26.22845459,3.1144104,1,0,0,-26.22845459,3.1144104,1,0,0,0,104,104,125,1,,,,,,,,
,,,,,,,,,,,,,FF,,,,,,,,0.6826,,,,,,,,,,,,,,,,,,,,,,60fde3c7557aa5fc22be0e18,61036d76af6d8f4cd65ba720,2021-07-29_20h10.34.758,Simcolourproject_2stim_asymm_v5,2020.2.10,MacIntel,60,61025ae37ef11b136ea224fe,,,,,,,,,2888,-69.08361816,22.24810791,1,0,0,response7disk,,1,-25.24127197,2.979522705,1,0,0,rectangle,-25.24127197,2.979522705,1,0,0,-25.24127197,2.979522705,1,0,0,0,105,105,61,1,,,,,,,,
,,,,,,,,,,,,,FF,,,,,,,,1.2662,,,,,,,,,,,,,,,,,,,,,,60fde3c7557aa5fc22be0e18,61036d76af6d8f4cd65ba720,2021-07-29_20h10.34.758,Simcolourproject_2stim_asymm_v5,2020.2.10,MacIntel,60,61025ae37ef11b136ea224fe,,,,,,,,,1274,-78.17913818,-54.85324097,1,0,0,response5disk,,2,13.72930908,2.116394043,1,0,0,rectangle,13.72930908,2.116394043,1,0,0,13.72930908,2.116394043,1,0,0,0,106,106,88,1,,,,,,,,
,,,,,,,,,,,,,FF,,,,,,,,0.833,,,,,,,,,,,,,,,,,,,,,,60fde3c7557aa5fc22be0e18,61036d76af6d8f4cd65ba720,2021-07-29_20h10.34.758,Simcolourproject_2stim_asymm_v5,2020.2.10,MacIntel,60,61025ae37ef11b136ea224fe,,,,,,,,,1837,-38.15991211,-67.65960693,1,0,0,response5disk,,3,-5.972717285,-11.697052,1,0,0,rectangle,-5.972717285,-11.697052,1,0,0,-5.972717285,-11.697052,1,0,0,0,107,107,84,1,,,,,,,,
,,,,,,,,,,,,,FF,,,,,,,,1.0996,,,,,,,,,,,,,,,,,,,,,,60fde3c7557aa5fc22be0e18,61036d76af6d8f4cd65ba720,2021-07-29_20h10.34.758,Simcolourproject_2stim_asymm_v5,2020.2.10,MacIntel,60,61025ae37ef11b136ea224fe,,,,,,,,,734,42.68157959,-81.19024658,1,0,0,response3disk,,4,1.613708496,2.246459961,1,0,0,rectangle,1.613708496,2.246459961,1,0,0,1.613708496,2.246459961,1,0,0,0,108,108,63,1,,,,,,,,
,,,,,,,,,,,,,FF,,,,,,,,0.7666,,,,,,,,,,,,,,,,,,,,,,60fde3c7557aa5fc22be0e18,61036d76af6d8f4cd65ba720,2021-07-29_20h10.34.758,Simcolourproject_2stim_asymm_v5,2020.2.10,MacIntel,60,61025ae37ef11b136ea224fe,,,,,,,,,1686,75.38354492,-40.42404175,1,0,0,response3disk,,5,8.922668457,6.666809082,1,0,0,rectangle,8.922668457,6.666809082,1,0,0,8.922668457,6.666809082,1,0,0,0,109,109,52,1,,,,,,,,
,,,,,,,,,,,,,FF,,,,,,,,1.216,,,,,,,,,,,,,,,,,,,,,,60fde3c7557aa5fc22be0e18,61036d76af6d8f4cd65ba720,2021-07-29_20h10.34.758,Simcolourproject_2stim_asymm_v5,2020.2.10,MacIntel,60,61025ae37ef11b136ea224fe,,,,,,,,,1751,48.01751709,-76.21826172,1,0,0,response3disk,,4,-6.719482422,-0.044769287,1,0,0,rectangle,-6.719482422,-0.044769287,1,0,0,-6.719482422,-0.044769287,1,0,0,0,110,110,140,1,,,,,,,,
,,,,,,,,,,,,,FF,,,,,,,,0.849,,,,,,,,,,,,,,,,,,,,,,60fde3c7557aa5fc22be0e18,61036d76af6d8f4cd65ba720,2021-07-29_20h10.34.758,Simcolourproject_2stim_asymm_v5,2020.2.10,MacIntel,60,61025ae37ef11b136ea224fe,,,,,,,,,3032,84.39483643,50.23666382,1,0,0,response1disk,,6,-12.57562256,-3.333007813,1,0,0,rectangle,-12.57562256,-3.333007813,1,0,0,-12.57562256,-3.333007813,1,0,0,0,111,111,71,1,,,,,,,,
,,,,,,,,,,,,,FF,,,,,,,,2.967,,,,,,,,,,,,,,,,,,,,,,60fde3c7557aa5fc22be0e18,61036d76af6d8f4cd65ba720,2021-07-29_20h10.34.758,Simcolourproject_2stim_asymm_v5,2020.2.10,MacIntel,60,61025ae37ef11b136ea224fe,,,,,,,,,3499,51.41314697,89.51263428,1,0,0,response1disk,,7,12.25708008,6.853057861,1,0,0,rectangle,12.25708008,6.853057861,1,0,0,12.25708008,6.853057861,1,0,0,0,112,112,0,1,,,,,,,,
,,,,,,,,,,,,,FF,,,,,,,,1.0677,,,,,,,,,,,,,,,,,,,,,,60fde3c7557aa5fc22be0e18,61036d76af6d8f4cd65ba720,2021-07-29_20h10.34.758,Simcolourproject_2stim_asymm_v5,2020.2.10,MacIntel,60,61025ae37ef11b136ea224fe,,,,,,,,,3135,47.06829834,79.64428711,1,0,0,response1disk,,7,18.74987793,15.86099243,1,0,0,rectangle,18.74987793,15.86099243,1,0,0,18.74987793,15.86099243,1,0,0,0,113,113,145,1,,,,,,,,
,,,,,,,,,,,,,FF,,,,,,,,0.8005,,,,,,,,,,,,,,,,,,,,,,60fde3c7557aa5fc22be0e18,61036d76af6d8f4cd65ba720,2021-07-29_20h10.34.758,Simcolourproject_2stim_asymm_v5,2020.2.10,MacIntel,60,61025ae37ef11b136ea224fe,,,,,,,,,3462,62.04101563,82.93704224,1,0,0,response1disk,,7,19.32312012,-6.721679688,1,0,0,rectangle,19.32312012,-6.721679688,1,0,0,19.32312012,-6.721679688,1,0,0,0,114,114,41,1,,,,,,,,
,,,,,,,,,,,,,FF,,,,,,,,0.9347,,,,,,,,,,,,,,,,,,,,,,60fde3c7557aa5fc22be0e18,61036d76af6d8f4cd65ba720,2021-07-29_20h10.34.758,Simcolourproject_2stim_asymm_v5,2020.2.10,MacIntel,60,61025ae37ef11b136ea224fe,,,,,,,,,1059,-52.40185547,-97.29504395,1,0,0,response5disk,,3,1.215148926,-6.431549072,1,0,0,rectangle,1.215148926,-6.431549072,1,0,0,1.215148926,-6.431549072,1,0,0,0,115,115,126,1,,,,,,,,
,,,,,,,,,,,,,FF,,,,,,,,0.9181,,,,,,,,,,,,,,,,,,,,,,60fde3c7557aa5fc22be0e18,61036d76af6d8f4cd65ba720,2021-07-29_20h10.34.758,Simcolourproject_2stim_asymm_v5,2020.2.10,MacIntel,60,61025ae37ef11b136ea224fe,,,,,,,,,1756,-90.48175049,-47.16757202,1,0,0,response5disk,,2,4.231323242,12.24267578,1,0,0,rectangle,4.231323242,12.24267578,1,0,0,4.231323242,12.24267578,1,0,0,0,116,116,24,1,,,,,,,,
,,,,,,,,,,,,,FF,,,,,,,,0.8672,,,,,,,,,,,,,,,,,,,,,,60fde3c7557aa5fc22be0e18,61036d76af6d8f4cd65ba720,2021-07-29_20h10.34.758,Simcolourproject_2stim_asymm_v5,2020.2.10,MacIntel,60,61025ae37ef11b136ea224fe,,,,,,,,,1615,-69.46551514,-52.68585205,1,0,0,response5disk,,2,-7.200378418,-13.28070068,1,0,0,rectangle,-7.200378418,-13.28070068,1,0,0,-7.200378418,-13.28070068,1,0,0,0,117,117,79,1,,,,,,,,
,,,,,,,,,,,,,FF,,,,,,,,0.7335,,,,,,,,,,,,,,,,,,,,,,60fde3c7557aa5fc22be0e18,61036d76af6d8f4cd65ba720,2021-07-29_20h10.34.758,Simcolourproject_2stim_asymm_v5,2020.2.10,MacIntel,60,61025ae37ef11b136ea224fe,,,,,,,,,982,-40.60095215,-78.62615967,1,0,0,response5disk,,3,14.01647949,8.489654541,1,0,0,rectangle,14.01647949,8.489654541,1,0,0,14.01647949,8.489654541,1,0,0,0,118,118,82,1,,,,,,,,
,,,,,,,,,,,,,FF,,,,,,,,1.2326,,,,,,,,,,,,,,,,,,,,,,60fde3c7557aa5fc22be0e18,61036d76af6d8f4cd65ba720,2021-07-29_20h10.34.758,Simcolourproject_2stim_asymm_v5,2020.2.10,MacIntel,60,61025ae37ef11b136ea224fe,,,,,,,,,3912,36.34161377,-80.82861328,1,0,0,response3disk,,4,17.25640869,-15.86749268,1,0,0,rectangle,17.25640869,-15.86749268,1,0,0,17.25640869,-15.86749268,1,0,0,0,119,119,25,1,,,,,,,,
,,,,,,,,,,,,,FF,,,,,,,,0.8836,,,,,,,,,,,,,,,,,,,,,,60fde3c7557aa5fc22be0e18,61036d76af6d8f4cd65ba720,2021-07-29_20h10.34.758,Simcolourproject_2stim_asymm_v5,2020.2.10,MacIntel,60,61025ae37ef11b136ea224fe,,,,,,,,,1426,34.13238525,-58.7975769,1,0,0,response3disk,,4,12.55853271,-2.977416992,1,0,0,rectangle,12.55853271,-2.977416992,1,0,0,12.55853271,-2.977416992,1,0,0,0,120,120,53,1,,,,,,,,
,,,,,,,,,,,,,FF,,,,,,,,1.4164,,,,,,,,,,,,,,,,,,,,,,60fde3c7557aa5fc22be0e18,61036d76af6d8f4cd65ba720,2021-07-29_20h10.34.758,Simcolourproject_2stim_asymm_v5,2020.2.10,MacIntel,60,61025ae37ef11b136ea224fe,,,,,,,,,3286,32.4644165,-91.08557129,1,0,0,response3disk,,4,12.68103027,-13.25332642,1,0,0,rectangle,12.68103027,-13.25332642,1,0,0,12.68103027,-13.25332642,1,0,0,0,121,121,96,1,,,,,,,,
,,,,,,,,,,,,,FF,,,,,,,,0.6509,,,,,,,,,,,,,,,,,,,,,,60fde3c7557aa5fc22be0e18,61036d76af6d8f4cd65ba720,2021-07-29_20h10.34.758,Simcolourproject_2stim_asymm_v5,2020.2.10,MacIntel,60,61025ae37ef11b136ea224fe,,,,,,,,,542,80.57891846,55.95263672,1,0,0,response1disk,,6,-11.77124023,-5.845733643,1,0,0,rectangle,-11.77124023,-5.845733643,1,0,0,-11.77124023,-5.845733643,1,0,0,0,122,122,4,1,,,,,,,,
,,,,,,,,,,,,,FF,,,,,,,,1.6537,,,,,,,,,,,,,,,,,,,,,,60fde3c7557aa5fc22be0e18,61036d76af6d8f4cd65ba720,2021-07-29_20h10.34.758,Simcolourproject_2stim_asymm_v5,2020.2.10,MacIntel,60,61025ae37ef11b136ea224fe,,,,,,,,,2372,74.61157227,-36.85861206,1,0,0,response3disk,,5,11.33856201,6.772338867,1,0,0,rectangle,11.33856201,6.772338867,1,0,0,11.33856201,6.772338867,1,0,0,0,123,123,75,1,,,,,,,,
,,,,,,,,,,,,,FF,,,,,,,,0.7154,,,,,,,,,,,,,,,,,,,,,,60fde3c7557aa5fc22be0e18,61036d76af6d8f4cd65ba720,2021-07-29_20h10.34.758,Simcolourproject_2stim_asymm_v5,2020.2.10,MacIntel,60,61025ae37ef11b136ea224fe,,,,,,,,,1106,79.67510986,56.34210205,1,0,0,response1disk,,6,-4.141296387,10.13861084,1,0,0,rectangle,-4.141296387,10.13861084,1,0,0,-4.141296387,10.13861084,1,0,0,0,124,124,17,1,,,,,,,,
,,,,,,,,,,,,,FF,,,,,,,,0.8677,,,,,,,,,,,,,,,,,,,,,,60fde3c7557aa5fc22be0e18,61036d76af6d8f4cd65ba720,2021-07-29_20h10.34.758,Simcolourproject_2stim_asymm_v5,2020.2.10,MacIntel,60,61025ae37ef11b136ea224fe,,,,,,,,,246,83.65490723,53.46734619,1,0,0,response1disk,,6,20.95245361,10.83520508,1,0,0,rectangle,20.95245361,10.83520508,1,0,0,20.95245361,10.83520508,1,0,0,0,125,125,3,1,,,,,,,,
,,,,,,,,,,,,,FF,,,,,,,,1.0663,,,,,,,,,,,,,,,,,,,,,,60fde3c7557aa5fc22be0e18,61036d76af6d8f4cd65ba720,2021-07-29_20h10.34.758,Simcolourproject_2stim_asymm_v5,2020.2.10,MacIntel,60,61025ae37ef11b136ea224fe,,,,,,,,,2265,95.53320313,-31.50842285,1,0,0,response3disk,,5,-2.80291748,3.047302246,1,0,0,rectangle,-2.80291748,3.047302246,1,0,0,-2.80291748,3.047302246,1,0,0,0,126,126,10,1,,,,,,,,
,,,,,,,,,,,,,FF,,,,,,,,0.8166,,,,,,,,,,,,,,,,,,,,,,60fde3c7557aa5fc22be0e18,61036d76af6d8f4cd65ba720,2021-07-29_20h10.34.758,Simcolourproject_2stim_asymm_v5,2020.2.10,MacIntel,60,61025ae37ef11b136ea224fe,,,,,,,,,3783,-78.11975098,52.0793457,1,0,0,response7disk,,1,8.434082031,8.205047607,1,0,0,rectangle,8.434082031,8.205047607,1,0,0,8.434082031,8.205047607,1,0,0,0,127,127,99,1,,,,,,,,
,,,,,,,,,,,,,FF,,,,,,,,0.7849,,,,,,,,,,,,,,,,,,,,,,60fde3c7557aa5fc22be0e18,61036d76af6d8f4cd65ba720,2021-07-29_20h10.34.758,Simcolourproject_2stim_asymm_v5,2020.2.10,MacIntel,60,61025ae37ef11b136ea224fe,,,,,,,,,1229,-64.74487305,30.91519165,1,0,0,response7disk,,1,-30.20245361,1.366424561,1,0,0,rectangle,-30.20245361,1.366424561,1,0,0,-30.20245361,1.366424561,1,0,0,0,128,128,97,1,,,,,,,,
,,,,,,,,,,,,,FF,,,,,,,,0.7689,,,,,,,,,,,,,,,,,,,,,,60fde3c7557aa5fc22be0e18,61036d76af6d8f4cd65ba720,2021-07-29_20h10.34.758,Simcolourproject_2stim_asymm_v5,2020.2.10,MacIntel,60,61025ae37ef11b136ea224fe,,,,,,,,,1031,80.53717041,41.8432312,1,0,0,response1disk,,6,-4.316345215,-11.01583862,1,0,0,rectangle,-4.316345215,-11.01583862,1,0,0,-4.316345215,-11.01583862,1,0,0,0,129,129,115,1,,,,,,,,
,,,,,,,,,,,,,FF,,,,,,,,1.3331,,,,,,,,,,,,,,,,,,,,,,60fde3c7557aa5fc22be0e18,61036d76af6d8f4cd65ba720,2021-07-29_20h10.34.758,Simcolourproject_2stim_asymm_v5,2020.2.10,MacIntel,60,61025ae37ef11b136ea224fe,,,,,,,,,4255,-23.79309082,-75.074646,1,0,0,response5disk,,3,1.76550293,-3.369018555,1,0,0,rectangle,1.76550293,-3.369018555,1,0,0,1.76550293,-3.369018555,1,0,0,0,130,130,37,1,,,,,,,,
,,,,,,,,,,,,,FF,,,,,,,,0.784,,,,,,,,,,,,,,,,,,,,,,60fde3c7557aa5fc22be0e18,61036d76af6d8f4cd65ba720,2021-07-29_20h10.34.758,Simcolourproject_2stim_asymm_v5,2020.2.10,MacIntel,60,61025ae37ef11b136ea224fe,,,,,,,,,3603,-38.88671875,-71.22088623,1,0,0,response5disk,,3,11.43670654,-10.35940552,1,0,0,rectangle,11.43670654,-10.35940552,1,0,0,11.43670654,-10.35940552,1,0,0,0,131,131,46,1,,,,,,,,
,,,,,,,,,,,,,FF,,,,,,,,2.0506,,,,,,,,,,,,,,,,,,,,,,60fde3c7557aa5fc22be0e18,61036d76af6d8f4cd65ba720,2021-07-29_20h10.34.758,Simcolourproject_2stim_asymm_v5,2020.2.10,MacIntel,60,61025ae37ef11b136ea224fe,,,,,,,,,2630,93.17108154,-41.44110107,1,0,0,response3disk,,5,-1.610656738,-6.835876465,1,0,0,rectangle,-1.610656738,-6.835876465,1,0,0,-1.610656738,-6.835876465,1,0,0,0,132,132,20,1,,,,,,,,
,,,,,,,,,,,,,FF,,,,,,,,0.953,,,,,,,,,,,,,,,,,,,,,,60fde3c7557aa5fc22be0e18,61036d76af6d8f4cd65ba720,2021-07-29_20h10.34.758,Simcolourproject_2stim_asymm_v5,2020.2.10,MacIntel,60,61025ae37ef11b136ea224fe,,,,,,,,,646,-76.61584473,-49.20672607,1,0,0,response5disk,,2,1.02545166,-2.317382813,1,0,0,rectangle,1.02545166,-2.317382813,1,0,0,1.02545166,-2.317382813,1,0,0,0,133,133,62,1,,,,,,,,
,,,,,,,,,,,,,FF,,,,,,,,0.5846,,,,,,,,,,,,,,,,,,,,,,60fde3c7557aa5fc22be0e18,61036d76af6d8f4cd65ba720,2021-07-29_20h10.34.758,Simcolourproject_2stim_asymm_v5,2020.2.10,MacIntel,60,61025ae37ef11b136ea224fe,,,,,,,,,1628,95.86358643,53.30554199,1,0,0,response1disk,,6,2.90625,5.524291992,1,0,0,rectangle,2.90625,5.524291992,1,0,0,2.90625,5.524291992,1,0,0,0,134,134,153,1,,,,,,,,
,,,,,,,,,,,,,FF,,,,,,,,0.7163,,,,,,,,,,,,,,,,,,,,,,60fde3c7557aa5fc22be0e18,61036d76af6d8f4cd65ba720,2021-07-29_20h10.34.758,Simcolourproject_2stim_asymm_v5,2020.2.10,MacIntel,60,61025ae37ef11b136ea224fe,,,,,,,,,565,75.26782227,37.23181152,1,0,0,response1disk,,6,-11.71203613,-7.681213379,1,0,0,rectangle,-11.71203613,-7.681213379,1,0,0,-11.71203613,-7.681213379,1,0,0,0,135,135,87,1,,,,,,,,
,,,,,,,,,,,,,FF,,,,,,,,0.583,,,,,,,,,,,,,,,,,,,,,,60fde3c7557aa5fc22be0e18,61036d76af6d8f4cd65ba720,2021-07-29_20h10.34.758,Simcolourproject_2stim_asymm_v5,2020.2.10,MacIntel,60,61025ae37ef11b136ea224fe,,,,,,,,,4122,77.45263672,40.22970581,1,0,0,response1disk,,6,-0.827819824,-8.875762939,1,0,0,rectangle,-0.827819824,-8.875762939,1,0,0,-0.827819824,-8.875762939,1,0,0,0,136,136,26,1,,,,,,,,
,,,,,,,,,,,,,FF,,,,,,,,1.4164,,,,,,,,,,,,,,,,,,,,,,60fde3c7557aa5fc22be0e18,61036d76af6d8f4cd65ba720,2021-07-29_20h10.34.758,Simcolourproject_2stim_asymm_v5,2020.2.10,MacIntel,60,61025ae37ef11b136ea224fe,,,,,,,,,1021,86.34606934,45.15023804,1,0,0,response1disk,,6,-1.610229492,-6.616760254,1,0,0,rectangle,-1.610229492,-6.616760254,1,0,0,-1.610229492,-6.616760254,1,0,0,0,137,137,65,1,,,,,,,,
,,,,,,,,,,,,,FF,,,,,,,,0.7497,,,,,,,,,,,,,,,,,,,,,,60fde3c7557aa5fc22be0e18,61036d76af6d8f4cd65ba720,2021-07-29_20h10.34.758,Simcolourproject_2stim_asymm_v5,2020.2.10,MacIntel,60,61025ae37ef11b136ea224fe,,,,,,,,,1212,-86.35150146,-41.17193604,1,0,0,response5disk,,2,-20.9151001,-0.229858398,1,0,0,rectangle,-20.9151001,-0.229858398,1,0,0,-20.9151001,-0.229858398,1,0,0,0,138,138,86,1,,,,,,,,
,,,,,,,,,,,,,FF,,,,,,,,0.7026,,,,,,,,,,,,,,,,,,,,,,60fde3c7557aa5fc22be0e18,61036d76af6d8f4cd65ba720,2021-07-29_20h10.34.758,Simcolourproject_2stim_asymm_v5,2020.2.10,MacIntel,60,61025ae37ef11b136ea224fe,,,,,,,,,3220,104.2994385,40.34939575,1,0,0,response1disk,,6,15.98577881,-6.674804688,1,0,0,rectangle,15.98577881,-6.674804688,1,0,0,15.98577881,-6.674804688,1,0,0,0,139,139,83,1,,,,,,,,
,,,,,,,,,,,,,FF,,,,,,,,1.4009,,,,,,,,,,,,,,,,,,,,,,60fde3c7557aa5fc22be0e18,61036d76af6d8f4cd65ba720,2021-07-29_20h10.34.758,Simcolourproject_2stim_asymm_v5,2020.2.10,MacIntel,60,61025ae37ef11b136ea224fe,,,,,,,,,4105,-35.38897705,-80.88647461,1,0,0,response5disk,,3,7.745178223,4.72869873,1,0,0,rectangle,7.745178223,4.72869873,1,0,0,7.745178223,4.72869873,1,0,0,0,140,140,5,1,,,,,,,,
,,,,,,,,,,,,,FF,,,,,,,,1.1515,,,,,,,,,,,,,,,,,,,,,,60fde3c7557aa5fc22be0e18,61036d76af6d8f4cd65ba720,2021-07-29_20h10.34.758,Simcolourproject_2stim_asymm_v5,2020.2.10,MacIntel,60,61025ae37ef11b136ea224fe,,,,,,,,,4361,-47.59155273,93.12713623,1,0,0,response7disk,,0,-22.24572754,15.85501099,1,0,0,rectangle,-22.24572754,15.85501099,1,0,0,-22.24572754,15.85501099,1,0,0,0,141,141,39,1,,,,,,,,
,,,,,,,,,,,,,FF,,,,,,,,1.751,,,,,,,,,,,,,,,,,,,,,,60fde3c7557aa5fc22be0e18,61036d76af6d8f4cd65ba720,2021-07-29_20h10.34.758,Simcolourproject_2stim_asymm_v5,2020.2.10,MacIntel,60,61025ae37ef11b136ea224fe,,,,,,,,,3525,106.5577393,46.06387329,1,0,0,response1disk,,6,6.764465332,-2.275146484,1,0,0,rectangle,6.764465332,-2.275146484,1,0,0,6.764465332,-2.275146484,1,0,0,0,142,142,57,1,,,,,,,,
,,,,,,,,,,,,,FF,,,,,,,,2.883,,,,,,,,,,,,,,,,,,,,,,60fde3c7557aa5fc22be0e18,61036d76af6d8f4cd65ba720,2021-07-29_20h10.34.758,Simcolourproject_2stim_asymm_v5,2020.2.10,MacIntel,60,61025ae37ef11b136ea224fe,,,,,,,,,3927,76.13702393,34.7142334,1,0,0,response1disk,,6,-2.802368164,3.940643311,1,0,0,rectangle,-2.802368164,3.940643311,1,0,0,-2.802368164,3.940643311,1,0,0,0,143,143,105,1,,,,,,,,
,,,,,,,,,,,,,FF,,,,,,,,2.1498,,,,,,,,,,,,,,,,,,,,,,60fde3c7557aa5fc22be0e18,61036d76af6d8f4cd65ba720,2021-07-29_20h10.34.758,Simcolourproject_2stim_asymm_v5,2020.2.10,MacIntel,60,61025ae37ef11b136ea224fe,,,,,,,,,4132,67.22161865,30.42819214,1,0,0,response1disk,,6,12.69476318,8.026184082,1,0,0,rectangle,12.69476318,8.026184082,1,0,0,12.69476318,8.026184082,1,0,0,0,144,144,29,1,,,,,,,,
,,,,,,,,,,,,,FF,,,,,,,,0.9178,,,,,,,,,,,,,,,,,,,,,,60fde3c7557aa5fc22be0e18,61036d76af6d8f4cd65ba720,2021-07-29_20h10.34.758,Simcolourproject_2stim_asymm_v5,2020.2.10,MacIntel,60,61025ae37ef11b136ea224fe,,,,,,,,,1590,-58.50775146,-70.80291748,1,0,0,response5disk,,3,5.782775879,1.153076172,1,0,0,rectangle,5.782775879,1.153076172,1,0,0,5.782775879,1.153076172,1,0,0,0,145,145,58,1,,,,,,,,
,,,,,,,,,,,,,FF,,,,,,,,0.8498,,,,,,,,,,,,,,,,,,,,,,60fde3c7557aa5fc22be0e18,61036d76af6d8f4cd65ba720,2021-07-29_20h10.34.758,Simcolourproject_2stim_asymm_v5,2020.2.10,MacIntel,60,61025ae37ef11b136ea224fe,,,,,,,,,4274,-42.6965332,-76.48199463,1,0,0,response5disk,,3,-21.94903564,1.917022705,1,0,0,rectangle,-21.94903564,1.917022705,1,0,0,-21.94903564,1.917022705,1,0,0,0,146,146,124,1,,,,,,,,
,,,,,,,,,,,,,FF,,,,,,,,3.7826,,,,,,,,,,,,,,,,,,,,,,60fde3c7557aa5fc22be0e18,61036d76af6d8f4cd65ba720,2021-07-29_20h10.34.758,Simcolourproject_2stim_asymm_v5,2020.2.10,MacIntel,60,61025ae37ef11b136ea224fe,,,,,,,,,2457,105.5060425,50.01473999,1,0,0,response1disk,,6,15.84442139,7.07119751,1,0,0,rectangle,15.84442139,7.07119751,1,0,0,15.84442139,7.07119751,1,0,0,0,147,147,143,1,,,,,,,,
,,,,,,,,,,,,,FF,,,,,,,,1.0191,,,,,,,,,,,,,,,,,,,,,,60fde3c7557aa5fc22be0e18,61036d76af6d8f4cd65ba720,2021-07-29_20h10.34.758,Simcolourproject_2stim_asymm_v5,2020.2.10,MacIntel,60,61025ae37ef11b136ea224fe,,,,,,,,,1386,-34.83911133,-102.4458618,1,0,0,response5disk,,3,-20.48339844,-11.01773071,1,0,0,rectangle,-20.48339844,-11.01773071,1,0,0,-20.48339844,-11.01773071,1,0,0,0,148,148,131,1,,,,,,,,
,,,,,,,,,,,,,FF,,,,,,,,0.7675,,,,,,,,,,,,,,,,,,,,,,60fde3c7557aa5fc22be0e18,61036d76af6d8f4cd65ba720,2021-07-29_20h10.34.758,Simcolourproject_2stim_asymm_v5,2020.2.10,MacIntel,60,61025ae37ef11b136ea224fe,,,,,,,,,3814,-63.109375,44.73519897,1,0,0,response7disk,,1,-4.632995605,10.85626221,1,0,0,rectangle,-4.632995605,10.85626221,1,0,0,-4.632995605,10.85626221,1,0,0,0,149,149,14,1,,,,,,,,
,,,,,,,,,,,,,FF,,,,,,,,0.6327,,,,,,,,,,,,,,,,,,,,,,60fde3c7557aa5fc22be0e18,61036d76af6d8f4cd65ba720,2021-07-29_20h10.34.758,Simcolourproject_2stim_asymm_v5,2020.2.10,MacIntel,60,61025ae37ef11b136ea224fe,,,,,,,,,2166,-54.59698486,23.44503784,1,0,0,response7disk,,1,-18.5645752,13.26947021,1,0,0,rectangle,-18.5645752,13.26947021,1,0,0,-18.5645752,13.26947021,1,0,0,0,150,150,13,1,,,,,,,,
,,,,,,,,,,,,,FF,,,,,,,,0.7838,,,,,,,,,,,,,,,,,,,,,,60fde3c7557aa5fc22be0e18,61036d76af6d8f4cd65ba720,2021-07-29_20h10.34.758,Simcolourproject_2stim_asymm_v5,2020.2.10,MacIntel,60,61025ae37ef11b136ea224fe,,,,,,,,,589,86.83898926,43.41586304,1,0,0,response1disk,,6,-3.591430664,-0.107025146,1,0,0,rectangle,-3.591430664,-0.107025146,1,0,0,-3.591430664,-0.107025146,1,0,0,0,151,151,60,1,,,,,,,,
,,,,,,,,,,,,,FF,,,,,,,,1.4672,,,,,,,,,,,,,,,,,,,,,,60fde3c7557aa5fc22be0e18,61036d76af6d8f4cd65ba720,2021-07-29_20h10.34.758,Simcolourproject_2stim_asymm_v5,2020.2.10,MacIntel,60,61025ae37ef11b136ea224fe,,,,,,,,,463,-38.12445068,-85.29266357,1,0,0,response5disk,,3,6.63659668,-0.288269043,1,0,0,rectangle,6.63659668,-0.288269043,1,0,0,6.63659668,-0.288269043,1,0,0,0,152,152,109,1,,,,,,,,
,,,,,,,,,,,,,FF,,,,,,,,1.3001,,,,,,,,,,,,,,,,,,,,,,60fde3c7557aa5fc22be0e18,61036d76af6d8f4cd65ba720,2021-07-29_20h10.34.758,Simcolourproject_2stim_asymm_v5,2020.2.10,MacIntel,60,61025ae37ef11b136ea224fe,,,,,,,,,1568,82.79180908,51.39956665,1,0,0,response1disk,,6,10.89886475,-4.600982666,1,0,0,rectangle,10.89886475,-4.600982666,1,0,0,10.89886475,-4.600982666,1,0,0,0,153,153,110,1,,,,,,,,
,,,,,,,,,,,,,FF,,,,,,,,3.15,,,,,,,,,,,,,,,,,,,,,,60fde3c7557aa5fc22be0e18,61036d76af6d8f4cd65ba720,2021-07-29_20h10.34.758,Simcolourproject_2stim_asymm_v5,2020.2.10,MacIntel,60,61025ae37ef11b136ea224fe,,,,,,,,,972,-29.94403076,-78.37091064,1,0,0,response5disk,,3,21.82476807,-10.21908569,1,0,0,rectangle,21.82476807,-10.21908569,1,0,0,21.82476807,-10.21908569,1,0,0,0,154,154,104,1,,,,,,,,
,,,,,,,,,,,,,FF,,,,,,,,0.6994,,,,,,,,,,,,,,,,,,,,,,60fde3c7557aa5fc22be0e18,61036d76af6d8f4cd65ba720,2021-07-29_20h10.34.758,Simcolourproject_2stim_asymm_v5,2020.2.10,MacIntel,60,61025ae37ef11b136ea224fe,,,,,,,,,2568,71.65509033,39.31256104,1,0,0,response1disk,,6,28.90344238,1.649169922,1,0,0,rectangle,28.90344238,1.649169922,1,0,0,28.90344238,1.649169922,1,0,0,0,155,155,48,1,,,,,,,,
,,,,,,,,,,,,,FF,,,,,,,,1.4334,,,,,,,,,,,,,,,,,,,,,,60fde3c7557aa5fc22be0e18,61036d76af6d8f4cd65ba720,2021-07-29_20h10.34.758,Simcolourproject_2stim_asymm_v5,2020.2.10,MacIntel,60,61025ae37ef11b136ea224fe,,,,,,,,,2268,57.54394531,-58.46466064,1,0,0,response3disk,,4,11.93786621,-2.394317627,1,0,0,rectangle,11.93786621,-2.394317627,1,0,0,11.93786621,-2.394317627,1,0,0,0,156,156,108,1,,,,,,,,
,,,,,,,,,,,,,FF,,,,,,,,0.7325,,,,,,,,,,,,,,,,,,,,,,60fde3c7557aa5fc22be0e18,61036d76af6d8f4cd65ba720,2021-07-29_20h10.34.758,Simcolourproject_2stim_asymm_v5,2020.2.10,MacIntel,60,61025ae37ef11b136ea224fe,,,,,,,,,653,50.36108398,-66.01867676,1,0,0,response3disk,,4,14.41894531,-14.50048828,1,0,0,rectangle,14.41894531,-14.50048828,1,0,0,14.41894531,-14.50048828,1,0,0,0,157,157,69,1,,,,,,,,
,,,,,,,,,,,,,FF,,,,,,,,1.2498,,,,,,,,,,,,,,,,,,,,,,60fde3c7557aa5fc22be0e18,61036d76af6d8f4cd65ba720,2021-07-29_20h10.34.758,Simcolourproject_2stim_asymm_v5,2020.2.10,MacIntel,60,61025ae37ef11b136ea224fe,,,,,,,,,2425,-67.81781006,-86.68359375,1,0,0,response5disk,,3,-23.418396,12.67556763,1,0,0,rectangle,-23.418396,12.67556763,1,0,0,-23.418396,12.67556763,1,0,0,0,158,158,155,1,,,,,,,,
,,,,,,,,,,,,,FF,,,,,,,,1.2499,,,,,,,,,,,,,,,,,,,,,,60fde3c7557aa5fc22be0e18,61036d76af6d8f4cd65ba720,2021-07-29_20h10.34.758,Simcolourproject_2stim_asymm_v5,2020.2.10,MacIntel,60,61025ae37ef11b136ea224fe,,,,,,,,,2250,-36.34136963,-66.99633789,1,0,0,response5disk,,3,-17.24066162,0.13079834,1,0,0,rectangle,-17.24066162,0.13079834,1,0,0,-17.24066162,0.13079834,1,0,0,0,159,159,42,1,,,,,,,,
,,,,,,,,,,,,,FF,,,,,,,,1.4337,,,,,,,,,,,,,,,,,,,,,,60fde3c7557aa5fc22be0e18,61036d76af6d8f4cd65ba720,2021-07-29_20h10.34.758,Simcolourproject_2stim_asymm_v5,2020.2.10,MacIntel,60,61025ae37ef11b136ea224fe,,,,,,,,,1294,-29.60961914,-97.08135986,1,0,0,response5disk,,3,7.403137207,0.244232178,1,0,0,rectangle,7.403137207,0.244232178,1,0,0,7.403137207,0.244232178,1,0,0,1,0,160,155,1,,,,,,,,
,,,,,,,,,,,,,FF,,,,,,,,0.7343,,,,,,,,,,,,,,,,,,,,,,60fde3c7557aa5fc22be0e18,61036d76af6d8f4cd65ba720,2021-07-29_20h10.34.758,Simcolourproject_2stim_asymm_v5,2020.2.10,MacIntel,60,61025ae37ef11b136ea224fe,,,,,,,,,3131,99.38665771,50.20376587,1,0,0,response1disk,,6,4.298522949,-8.299102783,1,0,0,rectangle,4.298522949,-8.299102783,1,0,0,4.298522949,-8.299102783,1,0,0,1,1,161,59,1,,,,,,,,
,,,,,,,,,,,,,FF,,,,,,,,1.95,,,,,,,,,,,,,,,,,,,,,,60fde3c7557aa5fc22be0e18,61036d76af6d8f4cd65ba720,2021-07-29_20h10.34.758,Simcolourproject_2stim_asymm_v5,2020.2.10,MacIntel,60,61025ae37ef11b136ea224fe,,,,,,,,,2513,81.92504883,43.75704956,1,0,0,response1disk,,6,9.448547363,-16.63064575,1,0,0,rectangle,9.448547363,-16.63064575,1,0,0,9.448547363,-16.63064575,1,0,0,1,2,162,1,1,,,,,,,,
,,,,,,,,,,,,,FF,,,,,,,,0.5483,,,,,,,,,,,,,,,,,,,,,,60fde3c7557aa5fc22be0e18,61036d76af6d8f4cd65ba720,2021-07-29_20h10.34.758,Simcolourproject_2stim_asymm_v5,2020.2.10,MacIntel,60,61025ae37ef11b136ea224fe,,,,,,,,,2004,80.99249268,23.50338745,1,0,0,response1disk,,6,6.538452148,2.919921875,1,0,0,rectangle,6.538452148,2.919921875,1,0,0,6.538452148,2.919921875,1,0,0,1,3,163,47,1,,,,,,,,
,,,,,,,,,,,,,FF,,,,,,,,1.0489,,,,,,,,,,,,,,,,,,,,,,60fde3c7557aa5fc22be0e18,61036d76af6d8f4cd65ba720,2021-07-29_20h10.34.758,Simcolourproject_2stim_asymm_v5,2020.2.10,MacIntel,60,61025ae37ef11b136ea224fe,,,,,,,,,483,50.72351074,66.4397583,1,0,0,response1disk,,7,5.456970215,8.485626221,1,0,0,rectangle,5.456970215,8.485626221,1,0,0,5.456970215,8.485626221,1,0,0,1,4,164,98,1,,,,,,,,
,,,,,,,,,,,,,FF,,,,,,,,1.3331,,,,,,,,,,,,,,,,,,,,,,60fde3c7557aa5fc22be0e18,61036d76af6d8f4cd65ba720,2021-07-29_20h10.34.758,Simcolourproject_2stim_asymm_v5,2020.2.10,MacIntel,60,61025ae37ef11b136ea224fe,,,,,,,,,3248,-52.09063721,-77.37133789,1,0,0,response5disk,,3,-24.7454834,-10.2973938,1,0,0,rectangle,-24.7454834,-10.2973938,1,0,0,-24.7454834,-10.2973938,1,0,0,1,5,165,135,1,,,,,,,,
,,,,,,,,,,,,,FF,,,,,,,,1.3532,,,,,,,,,,,,,,,,,,,,,,60fde3c7557aa5fc22be0e18,61036d76af6d8f4cd65ba720,2021-07-29_20h10.34.758,Simcolourproject_2stim_asymm_v5,2020.2.10,MacIntel,60,61025ae37ef11b136ea224fe,,,,,,,,,193,30.20587158,-72.171875,1,0,0,response3disk,,4,17.2980957,-13.88604736,1,0,0,rectangle,17.2980957,-13.88604736,1,0,0,17.2980957,-13.88604736,1,0,0,1,6,166,133,1,,,,,,,,
,,,,,,,,,,,,,FF,,,,,,,,0.6423,,,,,,,,,,,,,,,,,,,,,,60fde3c7557aa5fc22be0e18,61036d76af6d8f4cd65ba720,2021-07-29_20h10.34.758,Simcolourproject_2stim_asymm_v5,2020.2.10,MacIntel,60,61025ae37ef11b136ea224fe,,,,,,,,,936,28.90350342,-58.98928833,1,0,0,response3disk,,4,9.080871582,-16.04858398,1,0,0,rectangle,9.080871582,-16.04858398,1,0,0,9.080871582,-16.04858398,1,0,0,1,7,167,49,1,,,,,,,,
,,,,,,,,,,,,,FF,,,,,,,,0.9001,,,,,,,,,,,,,,,,,,,,,,60fde3c7557aa5fc22be0e18,61036d76af6d8f4cd65ba720,2021-07-29_20h10.34.758,Simcolourproject_2stim_asymm_v5,2020.2.10,MacIntel,60,61025ae37ef11b136ea224fe,,,,,,,,,3718,90.08428955,-33.3500061,1,0,0,response3disk,,5,10.42584229,0.328796387,1,0,0,rectangle,-74.1786499,32.32827759,1,0,0,2.911865234,-3.001281738,1,0,0,1,8,168,69,1,,response7disk_3,TRUE,1,1,"[235,76,234,71,263,243,238,293,185,88,182,223,228,320,104,259,169,228,59,55]",1.2663,rectangle
,,,,,,,,,,,,,FF,,,,,,,,1.3836,,,,,,,,,,,,,,,,,,,,,,60fde3c7557aa5fc22be0e18,61036d76af6d8f4cd65ba720,2021-07-29_20h10.34.758,Simcolourproject_2stim_asymm_v5,2020.2.10,MacIntel,60,61025ae37ef11b136ea224fe,,,,,,,,,1369,-76.95098877,-31.45983887,1,0,0,response5disk,,2,-12.55523682,6.948394775,1,0,0,rectangle,-12.55523682,6.948394775,1,0,0,-12.55523682,6.948394775,1,0,0,1,9,169,57,1,,,,,,,,
,,,,,,,,,,,,,FF,,,,,,,,0.4838,,,,,,,,,,,,,,,,,,,,,,60fde3c7557aa5fc22be0e18,61036d76af6d8f4cd65ba720,2021-07-29_20h10.34.758,Simcolourproject_2stim_asymm_v5,2020.2.10,MacIntel,60,61025ae37ef11b136ea224fe,,,,,,,,,809,-64.14971924,-30.02398682,1,0,0,response5disk,,2,-17.78460693,0.648834229,1,0,0,rectangle,-17.78460693,0.648834229,1,0,0,-17.78460693,0.648834229,1,0,0,1,10,170,97,1,,,,,,,,
,,,,,,,,,,,,,FF,,,,,,,,0.7166,,,,,,,,,,,,,,,,,,,,,,60fde3c7557aa5fc22be0e18,61036d76af6d8f4cd65ba720,2021-07-29_20h10.34.758,Simcolourproject_2stim_asymm_v5,2020.2.10,MacIntel,60,61025ae37ef11b136ea224fe,,,,,,,,,477,74.62640381,-15.86083984,1,0,0,response3disk,,5,-4.281494141,1.768127441,1,0,0,rectangle,-4.281494141,1.768127441,1,0,0,-4.281494141,1.768127441,1,0,0,1,11,171,108,1,,,,,,,,
,,,,,,,,,,,,,FF,,,,,,,,0.9674,,,,,,,,,,,,,,,,,,,,,,60fde3c7557aa5fc22be0e18,61036d76af6d8f4cd65ba720,2021-07-29_20h10.34.758,Simcolourproject_2stim_asymm_v5,2020.2.10,MacIntel,60,61025ae37ef11b136ea224fe,,,,,,,,,3810,-34.15246582,90.88946533,1,0,0,response7disk,,0,-11.73809814,4.186737061,1,0,0,rectangle,-11.73809814,4.186737061,1,0,0,-11.73809814,4.186737061,1,0,0,1,12,172,150,1,,,,,,,,
,,,,,,,,,,,,,FF,,,,,,,,1.5334,,,,,,,,,,,,,,,,,,,,,,60fde3c7557aa5fc22be0e18,61036d76af6d8f4cd65ba720,2021-07-29_20h10.34.758,Simcolourproject_2stim_asymm_v5,2020.2.10,MacIntel,60,61025ae37ef11b136ea224fe,,,,,,,,,4151,55.03790283,-88.09423828,1,0,0,response3disk,,4,-8.311279297,-3.375915527,1,0,0,rectangle,-8.311279297,-3.375915527,1,0,0,-8.311279297,-3.375915527,1,0,0,1,13,173,30,1,,,,,,,,
,,,,,,,,,,,,,FF,,,,,,,,0.7167,,,,,,,,,,,,,,,,,,,,,,60fde3c7557aa5fc22be0e18,61036d76af6d8f4cd65ba720,2021-07-29_20h10.34.758,Simcolourproject_2stim_asymm_v5,2020.2.10,MacIntel,60,61025ae37ef11b136ea224fe,,,,,,,,,2158,76.51849365,63.44976807,1,0,0,response1disk,,6,4.241027832,-4.635742188,1,0,0,rectangle,4.241027832,-4.635742188,1,0,0,4.241027832,-4.635742188,1,0,0,1,14,174,61,1,,,,,,,,
,,,,,,,,,,,,,FF,,,,,,,,0.8166,,,,,,,,,,,,,,,,,,,,,,60fde3c7557aa5fc22be0e18,61036d76af6d8f4cd65ba720,2021-07-29_20h10.34.758,Simcolourproject_2stim_asymm_v5,2020.2.10,MacIntel,60,61025ae37ef11b136ea224fe,,,,,,,,,3749,-80.01031494,29.31784058,1,0,0,response7disk,,1,-24.14776611,5.698699951,1,0,0,rectangle,-24.14776611,5.698699951,1,0,0,-24.14776611,5.698699951,1,0,0,1,15,175,105,1,,,,,,,,
,,,,,,,,,,,,,FF,,,,,,,,0.8334,,,,,,,,,,,,,,,,,,,,,,60fde3c7557aa5fc22be0e18,61036d76af6d8f4cd65ba720,2021-07-29_20h10.34.758,Simcolourproject_2stim_asymm_v5,2020.2.10,MacIntel,60,61025ae37ef11b136ea224fe,,,,,,,,,755,75.82720947,39.05166626,1,0,0,response1disk,,6,-6.93560791,-2.304016113,1,0,0,rectangle,-6.93560791,-2.304016113,1,0,0,-6.93560791,-2.304016113,1,0,0,1,16,176,149,1,,,,,,,,
,,,,,,,,,,,,,FF,,,,,,,,1.3502,,,,,,,,,,,,,,,,,,,,,,60fde3c7557aa5fc22be0e18,61036d76af6d8f4cd65ba720,2021-07-29_20h10.34.758,Simcolourproject_2stim_asymm_v5,2020.2.10,MacIntel,60,61025ae37ef11b136ea224fe,,,,,,,,,2564,47.96240234,99.65148926,1,0,0,response1disk,,7,12.35083008,6.854187012,1,0,0,rectangle,12.35083008,6.854187012,1,0,0,12.35083008,6.854187012,1,0,0,1,17,177,106,1,,,,,,,,
,,,,,,,,,,,,,FF,,,,,,,,0.6996,,,,,,,,,,,,,,,,,,,,,,60fde3c7557aa5fc22be0e18,61036d76af6d8f4cd65ba720,2021-07-29_20h10.34.758,Simcolourproject_2stim_asymm_v5,2020.2.10,MacIntel,60,61025ae37ef11b136ea224fe,,,,,,,,,926,72.96148682,38.08279419,1,0,0,response1disk,,6,11.10693359,1.381988525,1,0,0,rectangle,11.10693359,1.381988525,1,0,0,11.10693359,1.381988525,1,0,0,1,18,178,152,1,,,,,,,,
,,,,,,,,,,,,,FF,,,,,,,,0.5671,,,,,,,,,,,,,,,,,,,,,,60fde3c7557aa5fc22be0e18,61036d76af6d8f4cd65ba720,2021-07-29_20h10.34.758,Simcolourproject_2stim_asymm_v5,2020.2.10,MacIntel,60,61025ae37ef11b136ea224fe,,,,,,,,,3763,35.69042969,69.79776001,1,0,0,response1disk,,7,5.799743652,-7.746856689,1,0,0,rectangle,5.799743652,-7.746856689,1,0,0,5.799743652,-7.746856689,1,0,0,1,19,179,67,1,,,,,,,,
,,,,,,,,,,,,,FF,,,,,,,,0.7169,,,,,,,,,,,,,,,,,,,,,,60fde3c7557aa5fc22be0e18,61036d76af6d8f4cd65ba720,2021-07-29_20h10.34.758,Simcolourproject_2stim_asymm_v5,2020.2.10,MacIntel,60,61025ae37ef11b136ea224fe,,,,,,,,,2589,49.24475098,65.51498413,1,0,0,response1disk,,7,19.35723877,11.18930054,1,0,0,rectangle,19.35723877,11.18930054,1,0,0,19.35723877,11.18930054,1,0,0,1,20,180,70,1,,,,,,,,
,,,,,,,,,,,,,FF,,,,,,,,0.8331,,,,,,,,,,,,,,,,,,,,,,60fde3c7557aa5fc22be0e18,61036d76af6d8f4cd65ba720,2021-07-29_20h10.34.758,Simcolourproject_2stim_asymm_v5,2020.2.10,MacIntel,60,61025ae37ef11b136ea224fe,,,,,,,,,1563,86.27935791,42.52008057,1,0,0,response1disk,,6,9.010437012,1.195739746,1,0,0,rectangle,-40.62109375,-97.3828125,1,0,0,6.469299316,2.785552979,1,0,0,1,21,181,124,1,,response5disk_3,TRUE,3,3,"[235,76,234,71,263,243,238,293,185,88,182,223,228,320,104,259,169,228,59,55]",1.3333,rectangle
,,,,,,,,,,,,,FF,,,,,,,,1.2675,,,,,,,,,,,,,,,,,,,,,,60fde3c7557aa5fc22be0e18,61036d76af6d8f4cd65ba720,2021-07-29_20h10.34.758,Simcolourproject_2stim_asymm_v5,2020.2.10,MacIntel,60,61025ae37ef11b136ea224fe,,,,,,,,,1944,-44.02160645,-80.84887695,1,0,0,response5disk,,3,-10.89459229,-8.965118408,1,0,0,rectangle,-10.89459229,-8.965118408,1,0,0,-10.89459229,-8.965118408,1,0,0,1,22,182,139,1,,,,,,,,
,,,,,,,,,,,,,FF,,,,,,,,1.1511,,,,,,,,,,,,,,,,,,,,,,60fde3c7557aa5fc22be0e18,61036d76af6d8f4cd65ba720,2021-07-29_20h10.34.758,Simcolourproject_2stim_asymm_v5,2020.2.10,MacIntel,60,61025ae37ef11b136ea224fe,,,,,,,,,2989,68.60174561,-71.13446045,1,0,0,response3disk,,4,10.79455566,17.07720947,1,0,0,rectangle,10.79455566,17.07720947,1,0,0,10.79455566,17.07720947,1,0,0,1,23,183,107,1,,,,,,,,
,,,,,,,,,,,,,FF,,,,,,,,1.117,,,,,,,,,,,,,,,,,,,,,,60fde3c7557aa5fc22be0e18,61036d76af6d8f4cd65ba720,2021-07-29_20h10.34.758,Simcolourproject_2stim_asymm_v5,2020.2.10,MacIntel,60,61025ae37ef11b136ea224fe,,,,,,,,,3589,83.33001709,-37.27151489,1,0,0,response3disk,,5,-0.974121094,2.209106445,1,0,0,rectangle,-79.33410645,33.83926392,1,0,0,2.922241211,3.632171631,1,0,0,1,24,184,38,1,,response7disk_3,TRUE,1,1,"[235,76,234,71,263,243,238,293,185,88,182,223,228,320,104,259,169,228,59,55]",1.2508,rectangle
,,,,,,,,,,,,,FF,,,,,,,,1.4341,,,,,,,,,,,,,,,,,,,,,,60fde3c7557aa5fc22be0e18,61036d76af6d8f4cd65ba720,2021-07-29_20h10.34.758,Simcolourproject_2stim_asymm_v5,2020.2.10,MacIntel,60,61025ae37ef11b136ea224fe,,,,,,,,,484,-62.76721191,-62.97839355,1,0,0,response5disk,,3,-7.431945801,2.891265869,1,0,0,rectangle,-7.431945801,2.891265869,1,0,0,-7.431945801,2.891265869,1,0,0,1,25,185,99,1,,,,,,,,
,,,,,,,,,,,,,FF,,,,,,,,1.4163,,,,,,,,,,,,,,,,,,,,,,60fde3c7557aa5fc22be0e18,61036d76af6d8f4cd65ba720,2021-07-29_20h10.34.758,Simcolourproject_2stim_asymm_v5,2020.2.10,MacIntel,60,61025ae37ef11b136ea224fe,,,,,,,,,2549,38.67718506,-74.30584717,1,0,0,response3disk,,4,16.84423828,0.390441895,1,0,0,rectangle,16.84423828,0.390441895,1,0,0,16.84423828,0.390441895,1,0,0,1,26,186,53,1,,,,,,,,
,,,,,,,,,,,,,FF,,,,,,,,0.9174,,,,,,,,,,,,,,,,,,,,,,60fde3c7557aa5fc22be0e18,61036d76af6d8f4cd65ba720,2021-07-29_20h10.34.758,Simcolourproject_2stim_asymm_v5,2020.2.10,MacIntel,60,61025ae37ef11b136ea224fe,,,,,,,,,2204,101.0869751,54.45117188,1,0,0,response1disk,,6,19.22363281,7.262817383,1,0,0,rectangle,19.22363281,7.262817383,1,0,0,19.22363281,7.262817383,1,0,0,1,27,187,89,1,,,,,,,,
,,,,,,,,,,,,,FF,,,,,,,,0.7502,,,,,,,,,,,,,,,,,,,,,,60fde3c7557aa5fc22be0e18,61036d76af6d8f4cd65ba720,2021-07-29_20h10.34.758,Simcolourproject_2stim_asymm_v5,2020.2.10,MacIntel,60,61025ae37ef11b136ea224fe,,,,,,,,,2121,77.15960693,47.21633911,1,0,0,response1disk,,6,10.08258057,-0.394989014,1,0,0,rectangle,10.08258057,-0.394989014,1,0,0,10.08258057,-0.394989014,1,0,0,1,28,188,33,1,,,,,,,,
,,,,,,,,,,,,,FF,,,,,,,,1.1996,,,,,,,,,,,,,,,,,,,,,,60fde3c7557aa5fc22be0e18,61036d76af6d8f4cd65ba720,2021-07-29_20h10.34.758,Simcolourproject_2stim_asymm_v5,2020.2.10,MacIntel,60,61025ae37ef11b136ea224fe,,,,,,,,,4189,97.33935547,-35.35675049,1,0,0,response3disk,,5,7.113647461,-9.285003662,1,0,0,rectangle,7.113647461,-9.285003662,1,0,0,7.113647461,-9.285003662,1,0,0,1,29,189,23,1,,,,,,,,
,,,,,,,,,,,,,FF,,,,,,,,1.0664,,,,,,,,,,,,,,,,,,,,,,60fde3c7557aa5fc22be0e18,61036d76af6d8f4cd65ba720,2021-07-29_20h10.34.758,Simcolourproject_2stim_asymm_v5,2020.2.10,MacIntel,60,61025ae37ef11b136ea224fe,,,,,,,,,1378,49.6831665,-66.99176025,1,0,0,response3disk,,4,0.389526367,-6.907653809,1,0,0,rectangle,0.389526367,-6.907653809,1,0,0,0.389526367,-6.907653809,1,0,0,1,30,190,115,1,,,,,,,,
,,,,,,,,,,,,,FF,,,,,,,,1.8004,,,,,,,,,,,,,,,,,,,,,,60fde3c7557aa5fc22be0e18,61036d76af6d8f4cd65ba720,2021-07-29_20h10.34.758,Simcolourproject_2stim_asymm_v5,2020.2.10,MacIntel,60,61025ae37ef11b136ea224fe,,,,,,,,,1312,-35.52789307,-94.58721924,1,0,0,response5disk,,3,-8.010925293,1.843109131,1,0,0,rectangle,-8.010925293,1.843109131,1,0,0,-8.010925293,1.843109131,1,0,0,1,31,191,56,1,,,,,,,,
,,,,,,,,,,,,,FF,,,,,,,,1.117,,,,,,,,,,,,,,,,,,,,,,60fde3c7557aa5fc22be0e18,61036d76af6d8f4cd65ba720,2021-07-29_20h10.34.758,Simcolourproject_2stim_asymm_v5,2020.2.10,MacIntel,60,61025ae37ef11b136ea224fe,,,,,,,,,544,48.76959229,-71.37756348,1,0,0,response3disk,,4,6.489318848,12.81246948,1,0,0,rectangle,6.489318848,12.81246948,1,0,0,6.489318848,12.81246948,1,0,0,1,32,192,40,1,,,,,,,,
,,,,,,,,,,,,,FF,,,,,,,,0.6835,,,,,,,,,,,,,,,,,,,,,,60fde3c7557aa5fc22be0e18,61036d76af6d8f4cd65ba720,2021-07-29_20h10.34.758,Simcolourproject_2stim_asymm_v5,2020.2.10,MacIntel,60,61025ae37ef11b136ea224fe,,,,,,,,,2923,87.64239502,-48.59246826,1,0,0,response3disk,,5,8.23223877,-2.373931885,1,0,0,rectangle,8.23223877,-2.373931885,1,0,0,8.23223877,-2.373931885,1,0,0,1,33,193,6,1,,,,,,,,
,,,,,,,,,,,,,FF,,,,,,,,0.5994,,,,,,,,,,,,,,,,,,,,,,60fde3c7557aa5fc22be0e18,61036d76af6d8f4cd65ba720,2021-07-29_20h10.34.758,Simcolourproject_2stim_asymm_v5,2020.2.10,MacIntel,60,61025ae37ef11b136ea224fe,,,,,,,,,100,90.38684082,37.83532715,1,0,0,response1disk,,6,7.804016113,1.976531982,1,0,0,rectangle,7.804016113,1.976531982,1,0,0,7.804016113,1.976531982,1,0,0,1,34,194,114,1,,,,,,,,
,,,,,,,,,,,,,FF,,,,,,,,0.5162,,,,,,,,,,,,,,,,,,,,,,60fde3c7557aa5fc22be0e18,61036d76af6d8f4cd65ba720,2021-07-29_20h10.34.758,Simcolourproject_2stim_asymm_v5,2020.2.10,MacIntel,60,61025ae37ef11b136ea224fe,,,,,,,,,106,84.48809814,58.26745605,1,0,0,response1disk,,6,14.95037842,2.536834717,1,0,0,rectangle,14.95037842,2.536834717,1,0,0,14.95037842,2.536834717,1,0,0,1,35,195,66,1,,,,,,,,
,,,,,,,,,,,,,FF,,,,,,,,0.7009,,,,,,,,,,,,,,,,,,,,,,60fde3c7557aa5fc22be0e18,61036d76af6d8f4cd65ba720,2021-07-29_20h10.34.758,Simcolourproject_2stim_asymm_v5,2020.2.10,MacIntel,60,61025ae37ef11b136ea224fe,,,,,,,,,3069,43.53601074,88.57647705,1,0,0,response1disk,,7,-4.28125,3.080535889,1,0,0,rectangle,-4.28125,3.080535889,1,0,0,-4.28125,3.080535889,1,0,0,1,36,196,51,1,,,,,,,,
,,,,,,,,,,,,,FF,,,,,,,,2.0675,,,,,,,,,,,,,,,,,,,,,,60fde3c7557aa5fc22be0e18,61036d76af6d8f4cd65ba720,2021-07-29_20h10.34.758,Simcolourproject_2stim_asymm_v5,2020.2.10,MacIntel,60,61025ae37ef11b136ea224fe,,,,,,,,,2090,-46.83117676,-83.8916626,1,0,0,response5disk,,3,-20.98614502,-5.75579834,1,0,0,rectangle,-20.98614502,-5.75579834,1,0,0,-20.98614502,-5.75579834,1,0,0,1,37,197,112,1,,,,,,,,
,,,,,,,,,,,,,FF,,,,,,,,1.9335,,,,,,,,,,,,,,,,,,,,,,60fde3c7557aa5fc22be0e18,61036d76af6d8f4cd65ba720,2021-07-29_20h10.34.758,Simcolourproject_2stim_asymm_v5,2020.2.10,MacIntel,60,61025ae37ef11b136ea224fe,,,,,,,,,3600,55.38201904,-68.68774414,1,0,0,response3disk,,4,12.85180664,0.888122559,1,0,0,rectangle,12.85180664,0.888122559,1,0,0,12.85180664,0.888122559,1,0,0,1,38,198,9,1,,,,,,,,
,,,,,,,,,,,,,FF,,,,,,,,0.6834,,,,,,,,,,,,,,,,,,,,,,60fde3c7557aa5fc22be0e18,61036d76af6d8f4cd65ba720,2021-07-29_20h10.34.758,Simcolourproject_2stim_asymm_v5,2020.2.10,MacIntel,60,61025ae37ef11b136ea224fe,,,,,,,,,57,97.94915771,48.83779907,1,0,0,response1disk,,6,-2.262756348,-6.729888916,1,0,0,rectangle,-2.262756348,-6.729888916,1,0,0,-2.262756348,-6.729888916,1,0,0,1,39,199,120,1,,,,,,,,
,,,,,,,,,,,,,FF,,,,,,,,0.6176,,,,,,,,,,,,,,,,,,,,,,60fde3c7557aa5fc22be0e18,61036d76af6d8f4cd65ba720,2021-07-29_20h10.34.758,Simcolourproject_2stim_asymm_v5,2020.2.10,MacIntel,60,61025ae37ef11b136ea224fe,,,,,,,,,3528,31.699646,93.13842773,1,0,0,response1disk,,7,12.54638672,-13.66165161,1,0,0,rectangle,12.54638672,-13.66165161,1,0,0,12.54638672,-13.66165161,1,0,0,1,40,200,5,1,,,,,,,,
,,,,,,,,,,,,,FF,,,,,,,,0.9336,,,,,,,,,,,,,,,,,,,,,,60fde3c7557aa5fc22be0e18,61036d76af6d8f4cd65ba720,2021-07-29_20h10.34.758,Simcolourproject_2stim_asymm_v5,2020.2.10,MacIntel,60,61025ae37ef11b136ea224fe,,,,,,,,,2236,-93.27270508,-68.74749756,1,0,0,response5disk,,2,2.034484863,-0.856140137,1,0,0,rectangle,2.034484863,-0.856140137,1,0,0,2.034484863,-0.856140137,1,0,0,1,41,201,45,1,,,,,,,,
,,,,,,,,,,,,,FF,,,,,,,,0.9508,,,,,,,,,,,,,,,,,,,,,,60fde3c7557aa5fc22be0e18,61036d76af6d8f4cd65ba720,2021-07-29_20h10.34.758,Simcolourproject_2stim_asymm_v5,2020.2.10,MacIntel,60,61025ae37ef11b136ea224fe,,,,,,,,,729,86.60345459,-35.11880493,1,0,0,response3disk,,5,16.7510376,-11.54290771,1,0,0,rectangle,16.7510376,-11.54290771,1,0,0,16.7510376,-11.54290771,1,0,0,1,42,202,28,1,,,,,,,,
,,,,,,,,,,,,,FF,,,,,,,,1.3827,,,,,,,,,,,,,,,,,,,,,,60fde3c7557aa5fc22be0e18,61036d76af6d8f4cd65ba720,2021-07-29_20h10.34.758,Simcolourproject_2stim_asymm_v5,2020.2.10,MacIntel,60,61025ae37ef11b136ea224fe,,,,,,,,,2202,59.89324951,-83.96704102,1,0,0,response3disk,,4,14.34960938,-16.31893921,1,0,0,rectangle,14.34960938,-16.31893921,1,0,0,14.34960938,-16.31893921,1,0,0,1,43,203,84,1,,,,,,,,
,,,,,,,,,,,,,FF,,,,,,,,0.899,,,,,,,,,,,,,,,,,,,,,,60fde3c7557aa5fc22be0e18,61036d76af6d8f4cd65ba720,2021-07-29_20h10.34.758,Simcolourproject_2stim_asymm_v5,2020.2.10,MacIntel,60,61025ae37ef11b136ea224fe,,,,,,,,,532,-69.52331543,37.56838989,1,0,0,response7disk,,1,15.89526367,10.24963379,1,0,0,rectangle,15.89526367,10.24963379,1,0,0,15.89526367,10.24963379,1,0,0,1,44,204,16,1,,,,,,,,
,,,,,,,,,,,,,FF,,,,,,,,0.7005,,,,,,,,,,,,,,,,,,,,,,60fde3c7557aa5fc22be0e18,61036d76af6d8f4cd65ba720,2021-07-29_20h10.34.758,Simcolourproject_2stim_asymm_v5,2020.2.10,MacIntel,60,61025ae37ef11b136ea224fe,,,,,,,,,1140,86.99761963,41.04269409,1,0,0,response1disk,,6,-4.736633301,-5.921905518,1,0,0,rectangle,-4.736633301,-5.921905518,1,0,0,-4.736633301,-5.921905518,1,0,0,1,45,205,87,1,,,,,,,,
,,,,,,,,,,,,,FF,,,,,,,,1.4496,,,,,,,,,,,,,,,,,,,,,,60fde3c7557aa5fc22be0e18,61036d76af6d8f4cd65ba720,2021-07-29_20h10.34.758,Simcolourproject_2stim_asymm_v5,2020.2.10,MacIntel,60,61025ae37ef11b136ea224fe,,,,,,,,,45,97.61627197,44.64230347,1,0,0,response1disk,,6,7.052185059,8.205810547,1,0,0,rectangle,7.052185059,8.205810547,1,0,0,7.052185059,8.205810547,1,0,0,1,46,206,11,1,,,,,,,,
,,,,,,,,,,,,,FF,,,,,,,,0.9004,,,,,,,,,,,,,,,,,,,,,,60fde3c7557aa5fc22be0e18,61036d76af6d8f4cd65ba720,2021-07-29_20h10.34.758,Simcolourproject_2stim_asymm_v5,2020.2.10,MacIntel,60,61025ae37ef11b136ea224fe,,,,,,,,,468,-33.33551025,-113.2402954,1,0,0,response5disk,,3,-0.084228516,-8.146942139,1,0,0,rectangle,-0.084228516,-8.146942139,1,0,0,-0.084228516,-8.146942139,1,0,0,1,47,207,93,1,,,,,,,,
,,,,,,,,,,,,,FF,,,,,,,,0.7506,,,,,,,,,,,,,,,,,,,,,,60fde3c7557aa5fc22be0e18,61036d76af6d8f4cd65ba720,2021-07-29_20h10.34.758,Simcolourproject_2stim_asymm_v5,2020.2.10,MacIntel,60,61025ae37ef11b136ea224fe,,,,,,,,,2770,58.16668701,-29.9125061,1,0,0,response3disk,,5,-22.32623291,-9.330444336,1,0,0,rectangle,-22.32623291,-9.330444336,1,0,0,-22.32623291,-9.330444336,1,0,0,1,48,208,92,1,,,,,,,,
,,,,,,,,,,,,,FF,,,,,,,,1.1343,,,,,,,,,,,,,,,,,,,,,,60fde3c7557aa5fc22be0e18,61036d76af6d8f4cd65ba720,2021-07-29_20h10.34.758,Simcolourproject_2stim_asymm_v5,2020.2.10,MacIntel,60,61025ae37ef11b136ea224fe,,,,,,,,,1457,-24.08544922,-72.00274658,1,0,0,response5disk,,3,-12.52923584,-1.736663818,1,0,0,rectangle,-12.52923584,-1.736663818,1,0,0,-12.52923584,-1.736663818,1,0,0,1,49,209,141,1,,,,,,,,
,,,,,,,,,,,,,FF,,,,,,,,0.733,,,,,,,,,,,,,,,,,,,,,,60fde3c7557aa5fc22be0e18,61036d76af6d8f4cd65ba720,2021-07-29_20h10.34.758,Simcolourproject_2stim_asymm_v5,2020.2.10,MacIntel,60,61025ae37ef11b136ea224fe,,,,,,,,,1881,75.85717773,-24.77059937,1,0,0,response3disk,,5,7.829589844,-13.51968384,1,0,0,rectangle,7.829589844,-13.51968384,1,0,0,7.829589844,-13.51968384,1,0,0,1,50,210,32,1,,,,,,,,
,,,,,,,,,,,,,FF,,,,,,,,0.5658,,,,,,,,,,,,,,,,,,,,,,60fde3c7557aa5fc22be0e18,61036d76af6d8f4cd65ba720,2021-07-29_20h10.34.758,Simcolourproject_2stim_asymm_v5,2020.2.10,MacIntel,60,61025ae37ef11b136ea224fe,,,,,,,,,2717,72.03442383,41.31228638,1,0,0,response1disk,,6,-4.272766113,6.118560791,1,0,0,rectangle,-4.272766113,6.118560791,1,0,0,-4.272766113,6.118560791,1,0,0,1,51,211,79,1,,,,,,,,
,,,,,,,,,,,,,FF,,,,,,,,1.3668,,,,,,,,,,,,,,,,,,,,,,60fde3c7557aa5fc22be0e18,61036d76af6d8f4cd65ba720,2021-07-29_20h10.34.758,Simcolourproject_2stim_asymm_v5,2020.2.10,MacIntel,60,61025ae37ef11b136ea224fe,,,,,,,,,3942,32.52972412,-65.65942383,1,0,0,response3disk,,4,13.71740723,3.783630371,1,0,0,rectangle,13.71740723,3.783630371,1,0,0,13.71740723,3.783630371,1,0,0,1,52,212,50,1,,,,,,,,
,,,,,,,,,,,,,FF,,,,,,,,0.833,,,,,,,,,,,,,,,,,,,,,,60fde3c7557aa5fc22be0e18,61036d76af6d8f4cd65ba720,2021-07-29_20h10.34.758,Simcolourproject_2stim_asymm_v5,2020.2.10,MacIntel,60,61025ae37ef11b136ea224fe,,,,,,,,,255,40.06439209,-67.72216797,1,0,0,response3disk,,4,-0.225830078,-6.273101807,1,0,0,rectangle,-0.225830078,-6.273101807,1,0,0,-0.225830078,-6.273101807,1,0,0,1,53,213,35,1,,,,,,,,
,,,,,,,,,,,,,FF,,,,,,,,0.6675,,,,,,,,,,,,,,,,,,,,,,60fde3c7557aa5fc22be0e18,61036d76af6d8f4cd65ba720,2021-07-29_20h10.34.758,Simcolourproject_2stim_asymm_v5,2020.2.10,MacIntel,60,61025ae37ef11b136ea224fe,,,,,,,,,3422,81.57122803,39.26739502,1,0,0,response1disk,,6,0.259094238,-3.810272217,1,0,0,rectangle,0.259094238,-3.810272217,1,0,0,0.259094238,-3.810272217,1,0,0,1,54,214,43,1,,,,,,,,
,,,,,,,,,,,,,FF,,,,,,,,0.9332,,,,,,,,,,,,,,,,,,,,,,60fde3c7557aa5fc22be0e18,61036d76af6d8f4cd65ba720,2021-07-29_20h10.34.758,Simcolourproject_2stim_asymm_v5,2020.2.10,MacIntel,60,61025ae37ef11b136ea224fe,,,,,,,,,142,97.89709473,39.1960144,1,0,0,response1disk,,6,17.71435547,-5.727416992,1,0,0,rectangle,17.71435547,-5.727416992,1,0,0,17.71435547,-5.727416992,1,0,0,1,55,215,102,1,,,,,,,,
,,,,,,,,,,,,,FF,,,,,,,,0.7008,,,,,,,,,,,,,,,,,,,,,,60fde3c7557aa5fc22be0e18,61036d76af6d8f4cd65ba720,2021-07-29_20h10.34.758,Simcolourproject_2stim_asymm_v5,2020.2.10,MacIntel,60,61025ae37ef11b136ea224fe,,,,,,,,,1571,58.20043945,41.15478516,1,0,0,response1disk,,6,-10.87445068,-4.437042236,1,0,0,rectangle,-10.87445068,-4.437042236,1,0,0,-10.87445068,-4.437042236,1,0,0,1,56,216,142,1,,,,,,,,
,,,,,,,,,,,,,FF,,,,,,,,0.733,,,,,,,,,,,,,,,,,,,,,,60fde3c7557aa5fc22be0e18,61036d76af6d8f4cd65ba720,2021-07-29_20h10.34.758,Simcolourproject_2stim_asymm_v5,2020.2.10,MacIntel,60,61025ae37ef11b136ea224fe,,,,,,,,,1993,50.19946289,67.67596436,1,0,0,response1disk,,7,26.44726563,4.173675537,1,0,0,rectangle,26.44726563,4.173675537,1,0,0,26.44726563,4.173675537,1,0,0,1,57,217,111,1,,,,,,,,
,,,,,,,,,,,,,FF,,,,,,,,0.8339,,,,,,,,,,,,,,,,,,,,,,60fde3c7557aa5fc22be0e18,61036d76af6d8f4cd65ba720,2021-07-29_20h10.34.758,Simcolourproject_2stim_asymm_v5,2020.2.10,MacIntel,60,61025ae37ef11b136ea224fe,,,,,,,,,3025,47.52655029,79.32598877,1,0,0,response1disk,,7,22.6762085,1.999694824,1,0,0,rectangle,22.6762085,1.999694824,1,0,0,22.6762085,1.999694824,1,0,0,1,58,218,104,1,,,,,,,,
,,,,,,,,,,,,,FF,,,,,,,,0.8655,,,,,,,,,,,,,,,,,,,,,,60fde3c7557aa5fc22be0e18,61036d76af6d8f4cd65ba720,2021-07-29_20h10.34.758,Simcolourproject_2stim_asymm_v5,2020.2.10,MacIntel,60,61025ae37ef11b136ea224fe,,,,,,,,,1270,48.04449463,71.48934937,1,0,0,response1disk,,7,19.91345215,-5.291656494,1,0,0,rectangle,19.91345215,-5.291656494,1,0,0,19.91345215,-5.291656494,1,0,0,1,59,219,18,1,,,,,,,,
,,,,,,,,,,,,,FF,,,,,,,,0.6693,,,,,,,,,,,,,,,,,,,,,,60fde3c7557aa5fc22be0e18,61036d76af6d8f4cd65ba720,2021-07-29_20h10.34.758,Simcolourproject_2stim_asymm_v5,2020.2.10,MacIntel,60,61025ae37ef11b136ea224fe,,,,,,,,,1512,42.68988037,73.83581543,1,0,0,response1disk,,7,17.85723877,0.472625732,1,0,0,rectangle,17.85723877,0.472625732,1,0,0,17.85723877,0.472625732,1,0,0,1,60,220,143,1,,,,,,,,
,,,,,,,,,,,,,FF,,,,,,,,0.6165,,,,,,,,,,,,,,,,,,,,,,60fde3c7557aa5fc22be0e18,61036d76af6d8f4cd65ba720,2021-07-29_20h10.34.758,Simcolourproject_2stim_asymm_v5,2020.2.10,MacIntel,60,61025ae37ef11b136ea224fe,,,,,,,,,1692,37.89178467,77.26516724,1,0,0,response1disk,,7,17.11456299,-5.00479126,1,0,0,rectangle,17.11456299,-5.00479126,1,0,0,17.11456299,-5.00479126,1,0,0,1,61,221,128,1,,,,,,,,
,,,,,,,,,,,,,FF,,,,,,,,0.6161,,,,,,,,,,,,,,,,,,,,,,60fde3c7557aa5fc22be0e18,61036d76af6d8f4cd65ba720,2021-07-29_20h10.34.758,Simcolourproject_2stim_asymm_v5,2020.2.10,MacIntel,60,61025ae37ef11b136ea224fe,,,,,,,,,1381,75.14031982,28.59606934,1,0,0,response1disk,,6,-5.573486328,-8.341796875,1,0,0,rectangle,-46.78137207,-100.0744019,1,0,0,4.72857666,1.254669189,1,0,0,1,62,222,41,1,,response5disk_3,TRUE,3,3,"[235,76,234,71,263,243,238,293,185,88,182,223,228,320,104,259,169,228,59,55]",1.7671,rectangle
,,,,,,,,,,,,,FF,,,,,,,,1.9501,,,,,,,,,,,,,,,,,,,,,,60fde3c7557aa5fc22be0e18,61036d76af6d8f4cd65ba720,2021-07-29_20h10.34.758,Simcolourproject_2stim_asymm_v5,2020.2.10,MacIntel,60,61025ae37ef11b136ea224fe,,,,,,,,,3563,85.37036133,53.95098877,1,0,0,response1disk,,6,9.720214844,-0.329956055,1,0,0,rectangle,9.720214844,-0.329956055,1,0,0,9.720214844,-0.329956055,1,0,0,1,63,223,46,1,,,,,,,,
,,,,,,,,,,,,,FF,,,,,,,,0.8828,,,,,,,,,,,,,,,,,,,,,,60fde3c7557aa5fc22be0e18,61036d76af6d8f4cd65ba720,2021-07-29_20h10.34.758,Simcolourproject_2stim_asymm_v5,2020.2.10,MacIntel,60,61025ae37ef11b136ea224fe,,,,,,,,,2390,89.97393799,-56.25613403,1,0,0,response3disk,,5,-3.268981934,-5.203399658,1,0,0,rectangle,-3.268981934,-5.203399658,1,0,0,-3.268981934,-5.203399658,1,0,0,1,64,224,145,1,,,,,,,,
,,,,,,,,,,,,,FF,,,,,,,,2.0185,,,,,,,,,,,,,,,,,,,,,,60fde3c7557aa5fc22be0e18,61036d76af6d8f4cd65ba720,2021-07-29_20h10.34.758,Simcolourproject_2stim_asymm_v5,2020.2.10,MacIntel,60,61025ae37ef11b136ea224fe,,,,,,,,,3935,87.15844727,33.25421143,1,0,0,response1disk,,6,-5.695983887,0.436981201,1,0,0,rectangle,-5.695983887,0.436981201,1,0,0,-5.695983887,0.436981201,1,0,0,1,65,225,55,1,,,,,,,,
,,,,,,,,,,,,,FF,,,,,,,,0.8659,,,,,,,,,,,,,,,,,,,,,,60fde3c7557aa5fc22be0e18,61036d76af6d8f4cd65ba720,2021-07-29_20h10.34.758,Simcolourproject_2stim_asymm_v5,2020.2.10,MacIntel,60,61025ae37ef11b136ea224fe,,,,,,,,,2237,-72.86999512,-73.84545898,1,0,0,response5disk,,3,-16.05462646,8.298400879,1,0,0,rectangle,-16.05462646,8.298400879,1,0,0,-16.05462646,8.298400879,1,0,0,1,66,226,151,1,,,,,,,,
,,,,,,,,,,,,,FF,,,,,,,,1.0325,,,,,,,,,,,,,,,,,,,,,,60fde3c7557aa5fc22be0e18,61036d76af6d8f4cd65ba720,2021-07-29_20h10.34.758,Simcolourproject_2stim_asymm_v5,2020.2.10,MacIntel,60,61025ae37ef11b136ea224fe,,,,,,,,,3785,-45.38128662,-79.16973877,1,0,0,response5disk,,3,-9.280212402,-2.746887207,1,0,0,rectangle,41.54064941,102.223999,1,0,0,3.779785156,6.691833496,1,0,0,1,67,227,77,1,,response1disk_3,TRUE,7,7,"[235,76,234,71,263,243,238,293,185,88,182,223,228,320,104,259,169,228,59,55]",1.3836,rectangle
,,,,,,,,,,,,,FF,,,,,,,,0.8179,,,,,,,,,,,,,,,,,,,,,,60fde3c7557aa5fc22be0e18,61036d76af6d8f4cd65ba720,2021-07-29_20h10.34.758,Simcolourproject_2stim_asymm_v5,2020.2.10,MacIntel,60,61025ae37ef11b136ea224fe,,,,,,,,,94,-74.33770752,32.35610962,1,0,0,response7disk,,1,1.588989258,14.384552,1,0,0,rectangle,1.588989258,14.384552,1,0,0,1.588989258,14.384552,1,0,0,1,68,228,71,1,,,,,,,,
,,,,,,,,,,,,,FF,,,,,,,,0.834,,,,,,,,,,,,,,,,,,,,,,60fde3c7557aa5fc22be0e18,61036d76af6d8f4cd65ba720,2021-07-29_20h10.34.758,Simcolourproject_2stim_asymm_v5,2020.2.10,MacIntel,60,61025ae37ef11b136ea224fe,,,,,,,,,820,88.97570801,-41.08123779,1,0,0,response3disk,,5,-3.221618652,-6.290802002,1,0,0,rectangle,-3.221618652,-6.290802002,1,0,0,-3.221618652,-6.290802002,1,0,0,1,69,229,20,1,,,,,,,,
,,,,,,,,,,,,,FF,,,,,,,,0.7822,,,,,,,,,,,,,,,,,,,,,,60fde3c7557aa5fc22be0e18,61036d76af6d8f4cd65ba720,2021-07-29_20h10.34.758,Simcolourproject_2stim_asymm_v5,2020.2.10,MacIntel,60,61025ae37ef11b136ea224fe,,,,,,,,,1153,78.67089844,61.08935547,1,0,0,response1disk,,6,-14.06762695,-12.19186401,1,0,0,rectangle,-14.06762695,-12.19186401,1,0,0,-14.06762695,-12.19186401,1,0,0,1,70,230,123,1,,,,,,,,
,,,,,,,,,,,,,FF,,,,,,,,0.7508,,,,,,,,,,,,,,,,,,,,,,60fde3c7557aa5fc22be0e18,61036d76af6d8f4cd65ba720,2021-07-29_20h10.34.758,Simcolourproject_2stim_asymm_v5,2020.2.10,MacIntel,60,61025ae37ef11b136ea224fe,,,,,,,,,367,-75.45422363,31.86752319,1,0,0,response7disk,,1,-10.19061279,0.364868164,1,0,0,rectangle,-10.19061279,0.364868164,1,0,0,-10.19061279,0.364868164,1,0,0,1,71,231,4,1,,,,,,,,
,,,,,,,,,,,,,FF,,,,,,,,0.9825,,,,,,,,,,,,,,,,,,,,,,60fde3c7557aa5fc22be0e18,61036d76af6d8f4cd65ba720,2021-07-29_20h10.34.758,Simcolourproject_2stim_asymm_v5,2020.2.10,MacIntel,60,61025ae37ef11b136ea224fe,,,,,,,,,3703,-20.88861084,-90.76800537,1,0,0,response5disk,,3,16.91662598,-2.607025146,1,0,0,rectangle,16.91662598,-2.607025146,1,0,0,16.91662598,-2.607025146,1,0,0,1,72,232,13,1,,,,,,,,
,,,,,,,,,,,,,FF,,,,,,,,1.4666,,,,,,,,,,,,,,,,,,,,,,60fde3c7557aa5fc22be0e18,61036d76af6d8f4cd65ba720,2021-07-29_20h10.34.758,Simcolourproject_2stim_asymm_v5,2020.2.10,MacIntel,60,61025ae37ef11b136ea224fe,,,,,,,,,3925,72.14031982,46.82269287,1,0,0,response1disk,,6,-4.647521973,4.086547852,1,0,0,rectangle,51.20880127,-97.07702637,1,0,0,9.407714844,-9.75592041,1,0,0,1,73,233,58,1,,response3disk_3,TRUE,4,4,"[235,76,234,71,263,243,238,293,185,88,182,223,228,320,104,259,169,228,59,55]",1.8836,rectangle
,,,,,,,,,,,,,FF,,,,,,,,0.7169,,,,,,,,,,,,,,,,,,,,,,60fde3c7557aa5fc22be0e18,61036d76af6d8f4cd65ba720,2021-07-29_20h10.34.758,Simcolourproject_2stim_asymm_v5,2020.2.10,MacIntel,60,61025ae37ef11b136ea224fe,,,,,,,,,1254,89.93963623,32.92855835,1,0,0,response1disk,,6,-1.614807129,-4.298339844,1,0,0,rectangle,-84.91485596,-59.80725098,1,0,0,1.117004395,2.9269104,1,0,0,1,74,234,146,1,,response5disk_3,TRUE,2,2,"[235,76,234,71,263,243,238,293,185,88,182,223,228,320,104,259,169,228,59,55]",1.5826,rectangle
,,,,,,,,,,,,,FF,,,,,,,,0.684,,,,,,,,,,,,,,,,,,,,,,60fde3c7557aa5fc22be0e18,61036d76af6d8f4cd65ba720,2021-07-29_20h10.34.758,Simcolourproject_2stim_asymm_v5,2020.2.10,MacIntel,60,61025ae37ef11b136ea224fe,,,,,,,,,1402,103.4659424,55.07290649,1,0,0,response1disk,,6,6.051879883,-6.182037354,1,0,0,rectangle,6.051879883,-6.182037354,1,0,0,6.051879883,-6.182037354,1,0,0,1,75,235,156,1,,,,,,,,
,,,,,,,,,,,,,FF,,,,,,,,0.8343,,,,,,,,,,,,,,,,,,,,,,60fde3c7557aa5fc22be0e18,61036d76af6d8f4cd65ba720,2021-07-29_20h10.34.758,Simcolourproject_2stim_asymm_v5,2020.2.10,MacIntel,60,61025ae37ef11b136ea224fe,,,,,,,,,3328,33.91577148,-84.30462646,1,0,0,response3disk,,4,-11.41137695,-0.703826904,1,0,0,rectangle,-11.41137695,-0.703826904,1,0,0,-11.41137695,-0.703826904,1,0,0,1,76,236,90,1,,,,,,,,
,,,,,,,,,,,,,FF,,,,,,,,1.1666,,,,,,,,,,,,,,,,,,,,,,60fde3c7557aa5fc22be0e18,61036d76af6d8f4cd65ba720,2021-07-29_20h10.34.758,Simcolourproject_2stim_asymm_v5,2020.2.10,MacIntel,60,61025ae37ef11b136ea224fe,,,,,,,,,639,-34.80969238,-91.45544434,1,0,0,response5disk,,3,-11.53302002,2.3253479,1,0,0,rectangle,37.0065918,-85.94329834,1,0,0,-2.641723633,-11.34335327,1,0,0,1,77,237,25,1,,response3disk_3,TRUE,4,4,"[235,76,234,71,263,243,238,293,185,88,182,223,228,320,104,259,169,228,59,55]",1.451,rectangle
,,,,,,,,,,,,,FF,,,,,,,,0.6662,,,,,,,,,,,,,,,,,,,,,,60fde3c7557aa5fc22be0e18,61036d76af6d8f4cd65ba720,2021-07-29_20h10.34.758,Simcolourproject_2stim_asymm_v5,2020.2.10,MacIntel,60,61025ae37ef11b136ea224fe,,,,,,,,,177,66.5668335,49.98474121,1,0,0,response1disk,,6,1.750488281,0.734405518,1,0,0,rectangle,1.750488281,0.734405518,1,0,0,1.750488281,0.734405518,1,0,0,1,78,238,94,1,,,,,,,,
,,,,,,,,,,,,,FF,,,,,,,,0.6184,,,,,,,,,,,,,,,,,,,,,,60fde3c7557aa5fc22be0e18,61036d76af6d8f4cd65ba720,2021-07-29_20h10.34.758,Simcolourproject_2stim_asymm_v5,2020.2.10,MacIntel,60,61025ae37ef11b136ea224fe,,,,,,,,,3276,69.84014893,52.33441162,1,0,0,response1disk,,6,0.421447754,7.204345703,1,0,0,rectangle,0.421447754,7.204345703,1,0,0,0.421447754,7.204345703,1,0,0,1,79,239,153,1,,,,,,,,
,,,,,,,,,,,,,FF,,,,,,,,0.601,,,,,,,,,,,,,,,,,,,,,,60fde3c7557aa5fc22be0e18,61036d76af6d8f4cd65ba720,2021-07-29_20h10.34.758,Simcolourproject_2stim_asymm_v5,2020.2.10,MacIntel,60,61025ae37ef11b136ea224fe,,,,,,,,,764,44.06774902,88.03726196,1,0,0,response1disk,,7,-2.729492188,-1.910308838,1,0,0,rectangle,-2.729492188,-1.910308838,1,0,0,-2.729492188,-1.910308838,1,0,0,1,80,240,140,1,,,,,,,,
,,,,,,,,,,,,,FF,,,,,,,,0.7826,,,,,,,,,,,,,,,,,,,,,,60fde3c7557aa5fc22be0e18,61036d76af6d8f4cd65ba720,2021-07-29_20h10.34.758,Simcolourproject_2stim_asymm_v5,2020.2.10,MacIntel,60,61025ae37ef11b136ea224fe,,,,,,,,,3943,-90.84509277,27.4513855,1,0,0,response7disk,,1,-17.50811768,-0.322357178,1,0,0,rectangle,-17.50811768,-0.322357178,1,0,0,-17.50811768,-0.322357178,1,0,0,1,81,241,96,1,,,,,,,,
