key_resp.keys,key_resp.rt,key_resp_14.keys,key_resp_14.rt,key_resp_15.keys,key_resp_15.rt,key_resp_17.keys,key_resp_17.rt,key_resp_9.keys,key_resp_9.rt,key_resp_10.keys,key_resp_10.rt,practice_comparison,Ecc,mouse_5.x,mouse_5.y,mouse_5.leftButton,mouse_5.midButton,mouse_5.rightButton,mouse_5.clicked_name,pracsimilarity,response_time,mouse_10.x,mouse_10.y,mouse_10.leftButton,mouse_10.midButton,mouse_10.rightButton,mouse_10.clicked_name,mouse_7.x,mouse_7.y,mouse_7.leftButton,mouse_7.midButton,mouse_7.rightButton,mouse_6.x,mouse_6.y,mouse_6.leftButton,mouse_6.midButton,mouse_6.rightButton,duringprac.thisRepN,duringprac.thisTrialN,duringprac.thisN,duringprac.thisIndex,duringprac.ran,participant,session,date,expName,psychopyVersion,OS,frameRate,study_id,mouse_7.clicked_name,catchpracsimilarity,catch_response_time,catchnumberprac,catchtrialorderprac,mouse_6.clicked_name,key_resp_22.keys,key_resp_22.rt,realcomparison,mouse.x,mouse.y,mouse.leftButton,mouse.midButton,mouse.rightButton,mouse.clicked_name,Colour2,similarity,mouse_2.x,mouse_2.y,mouse_2.leftButton,mouse_2.midButton,mouse_2.rightButton,mouse_2.clicked_name,mouse_3.x,mouse_3.y,mouse_3.leftButton,mouse_3.midButton,mouse_3.rightButton,mouse_3.clicked_name,catchornah,catchsimilarity,catchnumber,catchtrialorder,catchRT,mouse_11.x,mouse_11.y,mouse_11.leftButton,mouse_11.midButton,mouse_11.rightButton,mouse_11.clicked_name,trials_2.thisRepN,trials_2.thisTrialN,trials_2.thisN,trials_2.thisIndex,trials_2.ran,Colour1
space,1.038,space,6.446,space,21.947,space,18.101,space,6.945,space,5.643,7,PF,-61,105,1,0,0,response7disk_5,0,9.667,-19,2,1,0,0,rectangle_8,-19,2,1,0,0,-19,2,1,0,0,0,0,0,6,1,60fd8720d6da91884d85d305,610377e293523e7a465e5308,2021-07-29_23h56.07.865,Simcolourproject_2stim_asymm_v5,2020.2.10,MacIntel,60,61025ae37ef11b136ea224fe,,,,,,,,,,,,,,,,,,,,,,,,,,,,,,,,,,,,,,,,,,,,,,
,,,,,,,,,,,,136,FF,26,71,1,0,0,response1disk_5,7,4.216,-6,10,1,0,0,rectangle_8,-74,-22,1,0,0,-4,2,1,0,0,0,1,1,0,1,60fd8720d6da91884d85d305,610377e293523e7a465e5308,2021-07-29_23h56.07.865,Simcolourproject_2stim_asymm_v5,2020.2.10,MacIntel,60,61025ae37ef11b136ea224fe,response5disk_7,2,4.267,2,"[2,5]",rectangle_4,,,,,,,,,,,,,,,,,,,,,,,,,,,,,,,,,,,,,,,,
,,,,,,,,,,,,10,PF,62,35,1,0,0,response1disk_5,6,4.484,8,-2,1,0,0,rectangle_8,8,-2,1,0,0,8,-2,1,0,0,0,2,2,1,1,60fd8720d6da91884d85d305,610377e293523e7a465e5308,2021-07-29_23h56.07.865,Simcolourproject_2stim_asymm_v5,2020.2.10,MacIntel,60,61025ae37ef11b136ea224fe,,,,,,,,,,,,,,,,,,,,,,,,,,,,,,,,,,,,,,,,,,,,,,
,,,,,,,,,,,,58,FF,32,61,1,0,0,response1disk_5,7,3.882,-2,12,1,0,0,rectangle_8,-2,12,1,0,0,-2,12,1,0,0,0,3,3,3,1,60fd8720d6da91884d85d305,610377e293523e7a465e5308,2021-07-29_23h56.07.865,Simcolourproject_2stim_asymm_v5,2020.2.10,MacIntel,60,61025ae37ef11b136ea224fe,,,,,,,,,,,,,,,,,,,,,,,,,,,,,,,,,,,,,,,,,,,,,,
,,,,,,,,,,,,6,PF,57,40,1,0,0,response1disk_5,6,2.65,-8,6,1,0,0,rectangle_8,-76,-35,1,0,0,4,9,1,0,0,0,4,4,4,1,60fd8720d6da91884d85d305,610377e293523e7a465e5308,2021-07-29_23h56.07.865,Simcolourproject_2stim_asymm_v5,2020.2.10,MacIntel,60,61025ae37ef11b136ea224fe,response5disk_7,2,2.282,2,"[2,5]",rectangle_4,,,,,,,,,,,,,,,,,,,,,,,,,,,,,,,,,,,,,,,,
,,,,,,,,,,,,5,PF,-59,-28,1,0,0,response5disk_5,2,1.667,-15,8,1,0,0,rectangle_8,-15,8,1,0,0,-15,8,1,0,0,0,5,5,2,1,60fd8720d6da91884d85d305,610377e293523e7a465e5308,2021-07-29_23h56.07.865,Simcolourproject_2stim_asymm_v5,2020.2.10,MacIntel,60,61025ae37ef11b136ea224fe,,,,,,,,,,,,,,,,,,,,,,,,,,,,,,,,,,,,,,,,,,,,,,
,,,,,,,,,,,,16,FF,65,38,1,0,0,response1disk_5,6,1.266,12,-4,1,0,0,rectangle_8,12,-4,1,0,0,12,-4,1,0,0,0,6,6,5,1,60fd8720d6da91884d85d305,610377e293523e7a465e5308,2021-07-29_23h56.07.865,Simcolourproject_2stim_asymm_v5,2020.2.10,MacIntel,60,61025ae37ef11b136ea224fe,,,,,,,,,,,,,,,,,,,,,,,,,,,,,,,,,,,,,,,,,,,,,,
,,,,,,,,,,,,,FF,,,,,,,,3.084,,,,,,,,,,,,,,,,,,,,,,60fd8720d6da91884d85d305,610377e293523e7a465e5308,2021-07-29_23h56.07.865,Simcolourproject_2stim_asymm_v5,2020.2.10,MacIntel,60,61025ae37ef11b136ea224fe,,,,,,,space,1.919,3820,74,39,1,0,0,response1disk,,6,11,5,1,0,0,rectangle,-82,-30,1,0,0,response5disk_3,TRUE,2,2,"[274,108,97,117,232,120,208,300,117,260,213,175,9,149,280,12,14,189,317,1]",2.3,11,14,1,0,0,rectangle,0,0,0,24,1,
,,,,,,,,,,,,,FF,,,,,,,,2.317,,,,,,,,,,,,,,,,,,,,,,60fd8720d6da91884d85d305,610377e293523e7a465e5308,2021-07-29_23h56.07.865,Simcolourproject_2stim_asymm_v5,2020.2.10,MacIntel,60,61025ae37ef11b136ea224fe,,,,,,,,,743,36,-80,1,0,0,response3disk,,4,0,-1,1,0,0,rectangle,0,-1,1,0,0,,,,,,,0,-1,1,0,0,,0,1,1,57,1,
,,,,,,,,,,,,,FF,,,,,,,,4.216,,,,,,,,,,,,,,,,,,,,,,60fd8720d6da91884d85d305,610377e293523e7a465e5308,2021-07-29_23h56.07.865,Simcolourproject_2stim_asymm_v5,2020.2.10,MacIntel,60,61025ae37ef11b136ea224fe,,,,,,,,,4215,65,25,1,0,0,response1disk,,6,-20,-5,1,0,0,rectangle,-20,-5,1,0,0,,,,,,,-20,-5,1,0,0,,0,2,2,66,1,
,,,,,,,,,,,,,FF,,,,,,,,2.517,,,,,,,,,,,,,,,,,,,,,,60fd8720d6da91884d85d305,610377e293523e7a465e5308,2021-07-29_23h56.07.865,Simcolourproject_2stim_asymm_v5,2020.2.10,MacIntel,60,61025ae37ef11b136ea224fe,,,,,,,,,1814,80,-35,1,0,0,response3disk,,5,13,1,1,0,0,rectangle,13,1,1,0,0,,,,,,,13,1,1,0,0,,0,3,3,75,1,
,,,,,,,,,,,,,FF,,,,,,,,1.817,,,,,,,,,,,,,,,,,,,,,,60fd8720d6da91884d85d305,610377e293523e7a465e5308,2021-07-29_23h56.07.865,Simcolourproject_2stim_asymm_v5,2020.2.10,MacIntel,60,61025ae37ef11b136ea224fe,,,,,,,,,1311,66,-41,1,0,0,response3disk,,5,2,4,1,0,0,rectangle,2,4,1,0,0,,,,,,,2,4,1,0,0,,0,4,4,29,1,
,,,,,,,,,,,,,FF,,,,,,,,3.65,,,,,,,,,,,,,,,,,,,,,,60fd8720d6da91884d85d305,610377e293523e7a465e5308,2021-07-29_23h56.07.865,Simcolourproject_2stim_asymm_v5,2020.2.10,MacIntel,60,61025ae37ef11b136ea224fe,,,,,,,,,3706,-54,-37,1,0,0,response5disk,,2,4,5,1,0,0,rectangle,4,5,1,0,0,,,,,,,4,5,1,0,0,,0,5,5,99,1,
,,,,,,,,,,,,,FF,,,,,,,,2.066,,,,,,,,,,,,,,,,,,,,,,60fd8720d6da91884d85d305,610377e293523e7a465e5308,2021-07-29_23h56.07.865,Simcolourproject_2stim_asymm_v5,2020.2.10,MacIntel,60,61025ae37ef11b136ea224fe,,,,,,,,,87,50,35,1,0,0,response1disk,,6,9,10,1,0,0,rectangle,9,10,1,0,0,,,,,,,9,10,1,0,0,,0,6,6,126,1,
,,,,,,,,,,,,,FF,,,,,,,,2.001,,,,,,,,,,,,,,,,,,,,,,60fd8720d6da91884d85d305,610377e293523e7a465e5308,2021-07-29_23h56.07.865,Simcolourproject_2stim_asymm_v5,2020.2.10,MacIntel,60,61025ae37ef11b136ea224fe,,,,,,,,,2738,94,62,1,0,0,response1disk,,6,2,5,1,0,0,rectangle,2,5,1,0,0,,,,,,,2,5,1,0,0,,0,7,7,52,1,
,,,,,,,,,,,,,FF,,,,,,,,4.516,,,,,,,,,,,,,,,,,,,,,,60fd8720d6da91884d85d305,610377e293523e7a465e5308,2021-07-29_23h56.07.865,Simcolourproject_2stim_asymm_v5,2020.2.10,MacIntel,60,61025ae37ef11b136ea224fe,,,,,,,,,4338,22,-72,1,0,0,response3disk,,4,-6,11,1,0,0,rectangle,-79,-38,1,0,0,response5disk_3,TRUE,2,2,"[274,108,97,117,232,120,208,300,117,260,213,175,9,149,280,12,14,189,317,1]",1.815,-5,-2,1,0,0,rectangle,0,8,8,136,1,
,,,,,,,,,,,,,FF,,,,,,,,3.6,,,,,,,,,,,,,,,,,,,,,,60fd8720d6da91884d85d305,610377e293523e7a465e5308,2021-07-29_23h56.07.865,Simcolourproject_2stim_asymm_v5,2020.2.10,MacIntel,60,61025ae37ef11b136ea224fe,,,,,,,,,1259,38,61,1,0,0,response1disk,,7,18,4,1,0,0,rectangle,18,4,1,0,0,,,,,,,18,4,1,0,0,,0,9,9,154,1,
,,,,,,,,,,,,,FF,,,,,,,,1.8,,,,,,,,,,,,,,,,,,,,,,60fd8720d6da91884d85d305,610377e293523e7a465e5308,2021-07-29_23h56.07.865,Simcolourproject_2stim_asymm_v5,2020.2.10,MacIntel,60,61025ae37ef11b136ea224fe,,,,,,,,,1731,63,-43,1,0,0,response3disk,,5,-10,-12,1,0,0,rectangle,-10,-12,1,0,0,,,,,,,-10,-12,1,0,0,,0,10,10,100,1,
,,,,,,,,,,,,,FF,,,,,,,,5.533,,,,,,,,,,,,,,,,,,,,,,60fd8720d6da91884d85d305,610377e293523e7a465e5308,2021-07-29_23h56.07.865,Simcolourproject_2stim_asymm_v5,2020.2.10,MacIntel,60,61025ae37ef11b136ea224fe,,,,,,,,,15,87,-41,1,0,0,response3disk,,5,7,2,1,0,0,rectangle,41,-82,1,0,0,response3disk_3,TRUE,4,4,"[274,108,97,117,232,120,208,300,117,260,213,175,9,149,280,12,14,189,317,1]",1.701,-2,2,1,0,0,rectangle,0,11,11,76,1,
,,,,,,,,,,,,,FF,,,,,,,,4.1,,,,,,,,,,,,,,,,,,,,,,60fd8720d6da91884d85d305,610377e293523e7a465e5308,2021-07-29_23h56.07.865,Simcolourproject_2stim_asymm_v5,2020.2.10,MacIntel,60,61025ae37ef11b136ea224fe,,,,,,,,,2408,86,44,1,0,0,response1disk,,6,12,11,1,0,0,rectangle,12,11,1,0,0,,,,,,,12,11,1,0,0,,0,12,12,59,1,
,,,,,,,,,,,,,FF,,,,,,,,3.951,,,,,,,,,,,,,,,,,,,,,,60fd8720d6da91884d85d305,610377e293523e7a465e5308,2021-07-29_23h56.07.865,Simcolourproject_2stim_asymm_v5,2020.2.10,MacIntel,60,61025ae37ef11b136ea224fe,,,,,,,,,4362,-46,72,1,0,0,response7disk,,0,-15,13,1,0,0,rectangle,-90,43,1,0,0,response7disk_3,TRUE,1,1,"[274,108,97,117,232,120,208,300,117,260,213,175,9,149,280,12,14,189,317,1]",1.266,-17,2,1,0,0,rectangle,0,13,13,61,1,
,,,,,,,,,,,,,FF,,,,,,,,1.15,,,,,,,,,,,,,,,,,,,,,,60fd8720d6da91884d85d305,610377e293523e7a465e5308,2021-07-29_23h56.07.865,Simcolourproject_2stim_asymm_v5,2020.2.10,MacIntel,60,61025ae37ef11b136ea224fe,,,,,,,,,1831,-30,-70,1,0,0,response5disk,,3,8,1,1,0,0,rectangle,8,1,1,0,0,,,,,,,8,1,1,0,0,,0,14,14,60,1,
,,,,,,,,,,,,,FF,,,,,,,,1.716,,,,,,,,,,,,,,,,,,,,,,60fd8720d6da91884d85d305,610377e293523e7a465e5308,2021-07-29_23h56.07.865,Simcolourproject_2stim_asymm_v5,2020.2.10,MacIntel,60,61025ae37ef11b136ea224fe,,,,,,,,,1165,86,43,1,0,0,response1disk,,6,20,10,1,0,0,rectangle,20,10,1,0,0,,,,,,,20,10,1,0,0,,0,15,15,89,1,
,,,,,,,,,,,,,FF,,,,,,,,1.284,,,,,,,,,,,,,,,,,,,,,,60fd8720d6da91884d85d305,610377e293523e7a465e5308,2021-07-29_23h56.07.865,Simcolourproject_2stim_asymm_v5,2020.2.10,MacIntel,60,61025ae37ef11b136ea224fe,,,,,,,,,1515,29,50,1,0,0,response1disk,,7,1,2,1,0,0,rectangle,1,2,1,0,0,,,,,,,1,2,1,0,0,,0,16,16,152,1,
,,,,,,,,,,,,,FF,,,,,,,,1.733,,,,,,,,,,,,,,,,,,,,,,60fd8720d6da91884d85d305,610377e293523e7a465e5308,2021-07-29_23h56.07.865,Simcolourproject_2stim_asymm_v5,2020.2.10,MacIntel,60,61025ae37ef11b136ea224fe,,,,,,,,,756,24,52,1,0,0,response1disk,,7,6,7,1,0,0,rectangle,6,7,1,0,0,,,,,,,6,7,1,0,0,,0,17,17,143,1,
,,,,,,,,,,,,,FF,,,,,,,,2.766,,,,,,,,,,,,,,,,,,,,,,60fd8720d6da91884d85d305,610377e293523e7a465e5308,2021-07-29_23h56.07.865,Simcolourproject_2stim_asymm_v5,2020.2.10,MacIntel,60,61025ae37ef11b136ea224fe,,,,,,,,,604,91,51,1,0,0,response1disk,,6,-6,7,1,0,0,rectangle,-6,7,1,0,0,,,,,,,-6,7,1,0,0,,0,18,18,135,1,
,,,,,,,,,,,,,FF,,,,,,,,2.432,,,,,,,,,,,,,,,,,,,,,,60fd8720d6da91884d85d305,610377e293523e7a465e5308,2021-07-29_23h56.07.865,Simcolourproject_2stim_asymm_v5,2020.2.10,MacIntel,60,61025ae37ef11b136ea224fe,,,,,,,,,1020,25,60,1,0,0,response1disk,,7,8,7,1,0,0,rectangle,8,7,1,0,0,,,,,,,8,7,1,0,0,,0,19,19,156,1,
,,,,,,,,,,,,,FF,,,,,,,,2.567,,,,,,,,,,,,,,,,,,,,,,60fd8720d6da91884d85d305,610377e293523e7a465e5308,2021-07-29_23h56.07.865,Simcolourproject_2stim_asymm_v5,2020.2.10,MacIntel,60,61025ae37ef11b136ea224fe,,,,,,,,,1790,81,40,1,0,0,response1disk,,6,5,5,1,0,0,rectangle,5,5,1,0,0,,,,,,,5,5,1,0,0,,0,20,20,77,1,
,,,,,,,,,,,,,FF,,,,,,,,2.116,,,,,,,,,,,,,,,,,,,,,,60fd8720d6da91884d85d305,610377e293523e7a465e5308,2021-07-29_23h56.07.865,Simcolourproject_2stim_asymm_v5,2020.2.10,MacIntel,60,61025ae37ef11b136ea224fe,,,,,,,,,215,92,38,1,0,0,response1disk,,6,21,9,1,0,0,rectangle,21,9,1,0,0,,,,,,,21,9,1,0,0,,0,21,21,4,1,
,,,,,,,,,,,,,FF,,,,,,,,1.884,,,,,,,,,,,,,,,,,,,,,,60fd8720d6da91884d85d305,610377e293523e7a465e5308,2021-07-29_23h56.07.865,Simcolourproject_2stim_asymm_v5,2020.2.10,MacIntel,60,61025ae37ef11b136ea224fe,,,,,,,,,3036,68,36,1,0,0,response1disk,,6,-23,0,1,0,0,rectangle,-23,0,1,0,0,,,,,,,-23,0,1,0,0,,0,22,22,44,1,
,,,,,,,,,,,,,FF,,,,,,,,1.734,,,,,,,,,,,,,,,,,,,,,,60fd8720d6da91884d85d305,610377e293523e7a465e5308,2021-07-29_23h56.07.865,Simcolourproject_2stim_asymm_v5,2020.2.10,MacIntel,60,61025ae37ef11b136ea224fe,,,,,,,,,309,83,43,1,0,0,response1disk,,6,15,8,1,0,0,rectangle,15,8,1,0,0,,,,,,,15,8,1,0,0,,0,23,23,105,1,
,,,,,,,,,,,,,FF,,,,,,,,1.016,,,,,,,,,,,,,,,,,,,,,,60fd8720d6da91884d85d305,610377e293523e7a465e5308,2021-07-29_23h56.07.865,Simcolourproject_2stim_asymm_v5,2020.2.10,MacIntel,60,61025ae37ef11b136ea224fe,,,,,,,,,113,70,-26,1,0,0,response3disk,,5,-7,-3,1,0,0,rectangle,-7,-3,1,0,0,,,,,,,-7,-3,1,0,0,,0,24,24,49,1,
,,,,,,,,,,,,,FF,,,,,,,,1.2,,,,,,,,,,,,,,,,,,,,,,60fd8720d6da91884d85d305,610377e293523e7a465e5308,2021-07-29_23h56.07.865,Simcolourproject_2stim_asymm_v5,2020.2.10,MacIntel,60,61025ae37ef11b136ea224fe,,,,,,,,,1641,41,56,1,0,0,response1disk,,7,13,10,1,0,0,rectangle,13,10,1,0,0,,,,,,,13,10,1,0,0,,0,25,25,14,1,
,,,,,,,,,,,,,FF,,,,,,,,2.734,,,,,,,,,,,,,,,,,,,,,,60fd8720d6da91884d85d305,610377e293523e7a465e5308,2021-07-29_23h56.07.865,Simcolourproject_2stim_asymm_v5,2020.2.10,MacIntel,60,61025ae37ef11b136ea224fe,,,,,,,,,2013,28,58,1,0,0,response1disk,,7,2,5,1,0,0,rectangle,2,5,1,0,0,,,,,,,2,5,1,0,0,,0,26,26,30,1,
,,,,,,,,,,,,,FF,,,,,,,,3.7,,,,,,,,,,,,,,,,,,,,,,60fd8720d6da91884d85d305,610377e293523e7a465e5308,2021-07-29_23h56.07.865,Simcolourproject_2stim_asymm_v5,2020.2.10,MacIntel,60,61025ae37ef11b136ea224fe,,,,,,,,,350,33,-71,1,0,0,response3disk,,4,6,9,1,0,0,rectangle,6,9,1,0,0,,,,,,,6,9,1,0,0,,0,27,27,32,1,
,,,,,,,,,,,,,FF,,,,,,,,2.667,,,,,,,,,,,,,,,,,,,,,,60fd8720d6da91884d85d305,610377e293523e7a465e5308,2021-07-29_23h56.07.865,Simcolourproject_2stim_asymm_v5,2020.2.10,MacIntel,60,61025ae37ef11b136ea224fe,,,,,,,,,1860,39,56,1,0,0,response1disk,,7,0,-1,1,0,0,rectangle,0,-1,1,0,0,,,,,,,0,-1,1,0,0,,0,28,28,140,1,
,,,,,,,,,,,,,FF,,,,,,,,1.883,,,,,,,,,,,,,,,,,,,,,,60fd8720d6da91884d85d305,610377e293523e7a465e5308,2021-07-29_23h56.07.865,Simcolourproject_2stim_asymm_v5,2020.2.10,MacIntel,60,61025ae37ef11b136ea224fe,,,,,,,,,815,77,-38,1,0,0,response3disk,,5,12,-2,1,0,0,rectangle,12,-2,1,0,0,,,,,,,12,-2,1,0,0,,0,29,29,118,1,
,,,,,,,,,,,,,FF,,,,,,,,2.116,,,,,,,,,,,,,,,,,,,,,,60fd8720d6da91884d85d305,610377e293523e7a465e5308,2021-07-29_23h56.07.865,Simcolourproject_2stim_asymm_v5,2020.2.10,MacIntel,60,61025ae37ef11b136ea224fe,,,,,,,,,796,69,48,1,0,0,response1disk,,6,4,13,1,0,0,rectangle,4,13,1,0,0,,,,,,,4,13,1,0,0,,0,30,30,129,1,
,,,,,,,,,,,,,FF,,,,,,,,0.966,,,,,,,,,,,,,,,,,,,,,,60fd8720d6da91884d85d305,610377e293523e7a465e5308,2021-07-29_23h56.07.865,Simcolourproject_2stim_asymm_v5,2020.2.10,MacIntel,60,61025ae37ef11b136ea224fe,,,,,,,,,4037,30,55,1,0,0,response1disk,,7,9,10,1,0,0,rectangle,9,10,1,0,0,,,,,,,9,10,1,0,0,,0,31,31,109,1,
,,,,,,,,,,,,,FF,,,,,,,,0.916,,,,,,,,,,,,,,,,,,,,,,60fd8720d6da91884d85d305,610377e293523e7a465e5308,2021-07-29_23h56.07.865,Simcolourproject_2stim_asymm_v5,2020.2.10,MacIntel,60,61025ae37ef11b136ea224fe,,,,,,,,,2273,33,60,1,0,0,response1disk,,7,10,3,1,0,0,rectangle,10,3,1,0,0,,,,,,,10,3,1,0,0,,0,32,32,145,1,
,,,,,,,,,,,,,FF,,,,,,,,1.483,,,,,,,,,,,,,,,,,,,,,,60fd8720d6da91884d85d305,610377e293523e7a465e5308,2021-07-29_23h56.07.865,Simcolourproject_2stim_asymm_v5,2020.2.10,MacIntel,60,61025ae37ef11b136ea224fe,,,,,,,,,950,80,-51,1,0,0,response3disk,,5,11,4,1,0,0,rectangle,11,4,1,0,0,,,,,,,11,4,1,0,0,,0,33,33,115,1,
,,,,,,,,,,,,,FF,,,,,,,,1.382,,,,,,,,,,,,,,,,,,,,,,60fd8720d6da91884d85d305,610377e293523e7a465e5308,2021-07-29_23h56.07.865,Simcolourproject_2stim_asymm_v5,2020.2.10,MacIntel,60,61025ae37ef11b136ea224fe,,,,,,,,,2823,22,-64,1,0,0,response3disk,,4,-11,5,1,0,0,rectangle,-11,5,1,0,0,,,,,,,-11,5,1,0,0,,0,34,34,64,1,
,,,,,,,,,,,,,FF,,,,,,,,1.383,,,,,,,,,,,,,,,,,,,,,,60fd8720d6da91884d85d305,610377e293523e7a465e5308,2021-07-29_23h56.07.865,Simcolourproject_2stim_asymm_v5,2020.2.10,MacIntel,60,61025ae37ef11b136ea224fe,,,,,,,,,2559,67,38,1,0,0,response1disk,,6,-7,4,1,0,0,rectangle,-7,4,1,0,0,,,,,,,-7,4,1,0,0,,0,35,35,122,1,
,,,,,,,,,,,,,FF,,,,,,,,4.551,,,,,,,,,,,,,,,,,,,,,,60fd8720d6da91884d85d305,610377e293523e7a465e5308,2021-07-29_23h56.07.865,Simcolourproject_2stim_asymm_v5,2020.2.10,MacIntel,60,61025ae37ef11b136ea224fe,,,,,,,,,549,-27,-77,1,0,0,response5disk,,3,-9,13,1,0,0,rectangle,-9,13,1,0,0,,,,,,,-9,13,1,0,0,,0,36,36,74,1,
,,,,,,,,,,,,,FF,,,,,,,,0.934,,,,,,,,,,,,,,,,,,,,,,60fd8720d6da91884d85d305,610377e293523e7a465e5308,2021-07-29_23h56.07.865,Simcolourproject_2stim_asymm_v5,2020.2.10,MacIntel,60,61025ae37ef11b136ea224fe,,,,,,,,,2904,64,50,1,0,0,response1disk,,6,2,3,1,0,0,rectangle,2,3,1,0,0,,,,,,,2,3,1,0,0,,0,37,37,148,1,
,,,,,,,,,,,,,FF,,,,,,,,3.017,,,,,,,,,,,,,,,,,,,,,,60fd8720d6da91884d85d305,610377e293523e7a465e5308,2021-07-29_23h56.07.865,Simcolourproject_2stim_asymm_v5,2020.2.10,MacIntel,60,61025ae37ef11b136ea224fe,,,,,,,,,4198,66,-24,1,0,0,response3disk,,5,-10,-3,1,0,0,rectangle,-10,-3,1,0,0,,,,,,,-10,-3,1,0,0,,0,38,38,95,1,
,,,,,,,,,,,,,FF,,,,,,,,1.217,,,,,,,,,,,,,,,,,,,,,,60fd8720d6da91884d85d305,610377e293523e7a465e5308,2021-07-29_23h56.07.865,Simcolourproject_2stim_asymm_v5,2020.2.10,MacIntel,60,61025ae37ef11b136ea224fe,,,,,,,,,585,62,28,1,0,0,response1disk,,6,4,8,1,0,0,rectangle,4,8,1,0,0,,,,,,,4,8,1,0,0,,0,39,39,92,1,
,,,,,,,,,,,,,FF,,,,,,,,1.35,,,,,,,,,,,,,,,,,,,,,,60fd8720d6da91884d85d305,610377e293523e7a465e5308,2021-07-29_23h56.07.865,Simcolourproject_2stim_asymm_v5,2020.2.10,MacIntel,60,61025ae37ef11b136ea224fe,,,,,,,,,3159,55,-24,1,0,0,response3disk,,5,21,4,1,0,0,rectangle,21,4,1,0,0,,,,,,,21,4,1,0,0,,0,40,40,0,1,
,,,,,,,,,,,,,FF,,,,,,,,1.667,,,,,,,,,,,,,,,,,,,,,,60fd8720d6da91884d85d305,610377e293523e7a465e5308,2021-07-29_23h56.07.865,Simcolourproject_2stim_asymm_v5,2020.2.10,MacIntel,60,61025ae37ef11b136ea224fe,,,,,,,,,557,36,-76,1,0,0,response3disk,,4,17,7,1,0,0,rectangle,17,7,1,0,0,,,,,,,17,7,1,0,0,,0,41,41,132,1,
,,,,,,,,,,,,,FF,,,,,,,,1.2,,,,,,,,,,,,,,,,,,,,,,60fd8720d6da91884d85d305,610377e293523e7a465e5308,2021-07-29_23h56.07.865,Simcolourproject_2stim_asymm_v5,2020.2.10,MacIntel,60,61025ae37ef11b136ea224fe,,,,,,,,,1162,80,41,1,0,0,response1disk,,6,4,2,1,0,0,rectangle,4,2,1,0,0,,,,,,,4,2,1,0,0,,0,42,42,144,1,
,,,,,,,,,,,,,FF,,,,,,,,1.667,,,,,,,,,,,,,,,,,,,,,,60fd8720d6da91884d85d305,610377e293523e7a465e5308,2021-07-29_23h56.07.865,Simcolourproject_2stim_asymm_v5,2020.2.10,MacIntel,60,61025ae37ef11b136ea224fe,,,,,,,,,171,-77,-46,1,0,0,response5disk,,2,3,0,1,0,0,rectangle,3,0,1,0,0,,,,,,,3,0,1,0,0,,0,43,43,130,1,
,,,,,,,,,,,,,FF,,,,,,,,1.699,,,,,,,,,,,,,,,,,,,,,,60fd8720d6da91884d85d305,610377e293523e7a465e5308,2021-07-29_23h56.07.865,Simcolourproject_2stim_asymm_v5,2020.2.10,MacIntel,60,61025ae37ef11b136ea224fe,,,,,,,,,1832,31,-72,1,0,0,response3disk,,4,17,-9,1,0,0,rectangle,17,-9,1,0,0,,,,,,,17,-9,1,0,0,,0,44,44,50,1,
,,,,,,,,,,,,,FF,,,,,,,,1.749,,,,,,,,,,,,,,,,,,,,,,60fd8720d6da91884d85d305,610377e293523e7a465e5308,2021-07-29_23h56.07.865,Simcolourproject_2stim_asymm_v5,2020.2.10,MacIntel,60,61025ae37ef11b136ea224fe,,,,,,,,,1447,-71,-39,1,0,0,response5disk,,2,-10,3,1,0,0,rectangle,-10,3,1,0,0,,,,,,,-10,3,1,0,0,,0,45,45,11,1,
,,,,,,,,,,,,,FF,,,,,,,,2.134,,,,,,,,,,,,,,,,,,,,,,60fd8720d6da91884d85d305,610377e293523e7a465e5308,2021-07-29_23h56.07.865,Simcolourproject_2stim_asymm_v5,2020.2.10,MacIntel,60,61025ae37ef11b136ea224fe,,,,,,,,,3662,29,-81,1,0,0,response3disk,,4,4,9,1,0,0,rectangle,4,9,1,0,0,,,,,,,4,9,1,0,0,,0,46,46,8,1,
,,,,,,,,,,,,,FF,,,,,,,,8.716,,,,,,,,,,,,,,,,,,,,,,60fd8720d6da91884d85d305,610377e293523e7a465e5308,2021-07-29_23h56.07.865,Simcolourproject_2stim_asymm_v5,2020.2.10,MacIntel,60,61025ae37ef11b136ea224fe,,,,,,,,,3483,83,55,1,0,0,response1disk,,6,8,9,1,0,0,rectangle,8,9,1,0,0,,,,,,,8,9,1,0,0,,0,47,47,104,1,
,,,,,,,,,,,,,FF,,,,,,,,7.301,,,,,,,,,,,,,,,,,,,,,,60fd8720d6da91884d85d305,610377e293523e7a465e5308,2021-07-29_23h56.07.865,Simcolourproject_2stim_asymm_v5,2020.2.10,MacIntel,60,61025ae37ef11b136ea224fe,,,,,,,,,1106,75,50,1,0,0,response1disk,,6,-15,5,1,0,0,rectangle,-15,5,1,0,0,,,,,,,-15,5,1,0,0,,0,48,48,124,1,
,,,,,,,,,,,,,FF,,,,,,,,0.766,,,,,,,,,,,,,,,,,,,,,,60fd8720d6da91884d85d305,610377e293523e7a465e5308,2021-07-29_23h56.07.865,Simcolourproject_2stim_asymm_v5,2020.2.10,MacIntel,60,61025ae37ef11b136ea224fe,,,,,,,,,4152,32,81,1,0,0,response1disk,,7,-9,9,1,0,0,rectangle,-9,9,1,0,0,,,,,,,-9,9,1,0,0,,0,49,49,22,1,
,,,,,,,,,,,,,FF,,,,,,,,1.516,,,,,,,,,,,,,,,,,,,,,,60fd8720d6da91884d85d305,610377e293523e7a465e5308,2021-07-29_23h56.07.865,Simcolourproject_2stim_asymm_v5,2020.2.10,MacIntel,60,61025ae37ef11b136ea224fe,,,,,,,,,1409,68,37,1,0,0,response1disk,,6,28,2,1,0,0,rectangle,28,2,1,0,0,,,,,,,28,2,1,0,0,,0,50,50,2,1,
,,,,,,,,,,,,,FF,,,,,,,,1.334,,,,,,,,,,,,,,,,,,,,,,60fd8720d6da91884d85d305,610377e293523e7a465e5308,2021-07-29_23h56.07.865,Simcolourproject_2stim_asymm_v5,2020.2.10,MacIntel,60,61025ae37ef11b136ea224fe,,,,,,,,,1665,54,38,1,0,0,response1disk,,6,15,3,1,0,0,rectangle,15,3,1,0,0,,,,,,,15,3,1,0,0,,0,51,51,83,1,
,,,,,,,,,,,,,FF,,,,,,,,0.784,,,,,,,,,,,,,,,,,,,,,,60fd8720d6da91884d85d305,610377e293523e7a465e5308,2021-07-29_23h56.07.865,Simcolourproject_2stim_asymm_v5,2020.2.10,MacIntel,60,61025ae37ef11b136ea224fe,,,,,,,,,3639,42,57,1,0,0,response1disk,,7,16,-1,1,0,0,rectangle,16,-1,1,0,0,,,,,,,16,-1,1,0,0,,0,52,52,97,1,
,,,,,,,,,,,,,FF,,,,,,,,1.216,,,,,,,,,,,,,,,,,,,,,,60fd8720d6da91884d85d305,610377e293523e7a465e5308,2021-07-29_23h56.07.865,Simcolourproject_2stim_asymm_v5,2020.2.10,MacIntel,60,61025ae37ef11b136ea224fe,,,,,,,,,3294,71,-35,1,0,0,response3disk,,5,-2,-10,1,0,0,rectangle,-2,-10,1,0,0,,,,,,,-2,-10,1,0,0,,0,53,53,62,1,
,,,,,,,,,,,,,FF,,,,,,,,1.234,,,,,,,,,,,,,,,,,,,,,,60fd8720d6da91884d85d305,610377e293523e7a465e5308,2021-07-29_23h56.07.865,Simcolourproject_2stim_asymm_v5,2020.2.10,MacIntel,60,61025ae37ef11b136ea224fe,,,,,,,,,1079,54,31,1,0,0,response1disk,,6,-3,-2,1,0,0,rectangle,-3,-2,1,0,0,,,,,,,-3,-2,1,0,0,,0,54,54,67,1,
,,,,,,,,,,,,,FF,,,,,,,,1.649,,,,,,,,,,,,,,,,,,,,,,60fd8720d6da91884d85d305,610377e293523e7a465e5308,2021-07-29_23h56.07.865,Simcolourproject_2stim_asymm_v5,2020.2.10,MacIntel,60,61025ae37ef11b136ea224fe,,,,,,,,,2841,74,29,1,0,0,response1disk,,6,15,1,1,0,0,rectangle,15,1,1,0,0,,,,,,,15,1,1,0,0,,0,55,55,90,1,
,,,,,,,,,,,,,FF,,,,,,,,0.666,,,,,,,,,,,,,,,,,,,,,,60fd8720d6da91884d85d305,610377e293523e7a465e5308,2021-07-29_23h56.07.865,Simcolourproject_2stim_asymm_v5,2020.2.10,MacIntel,60,61025ae37ef11b136ea224fe,,,,,,,,,3137,23,50,1,0,0,response1disk,,7,10,9,1,0,0,rectangle,10,9,1,0,0,,,,,,,10,9,1,0,0,,0,56,56,12,1,
,,,,,,,,,,,,,FF,,,,,,,,2.2,,,,,,,,,,,,,,,,,,,,,,60fd8720d6da91884d85d305,610377e293523e7a465e5308,2021-07-29_23h56.07.865,Simcolourproject_2stim_asymm_v5,2020.2.10,MacIntel,60,61025ae37ef11b136ea224fe,,,,,,,,,4168,18,-72,1,0,0,response3disk,,4,6,3,1,0,0,rectangle,6,3,1,0,0,,,,,,,6,3,1,0,0,,0,57,57,69,1,
,,,,,,,,,,,,,FF,,,,,,,,1.133,,,,,,,,,,,,,,,,,,,,,,60fd8720d6da91884d85d305,610377e293523e7a465e5308,2021-07-29_23h56.07.865,Simcolourproject_2stim_asymm_v5,2020.2.10,MacIntel,60,61025ae37ef11b136ea224fe,,,,,,,,,312,86,54,1,0,0,response1disk,,6,23,9,1,0,0,rectangle,23,9,1,0,0,,,,,,,23,9,1,0,0,,0,58,58,127,1,
,,,,,,,,,,,,,FF,,,,,,,,0.866,,,,,,,,,,,,,,,,,,,,,,60fd8720d6da91884d85d305,610377e293523e7a465e5308,2021-07-29_23h56.07.865,Simcolourproject_2stim_asymm_v5,2020.2.10,MacIntel,60,61025ae37ef11b136ea224fe,,,,,,,,,3730,36,54,1,0,0,response1disk,,7,13,14,1,0,0,rectangle,13,14,1,0,0,,,,,,,13,14,1,0,0,,0,59,59,42,1,
,,,,,,,,,,,,,FF,,,,,,,,6.183,,,,,,,,,,,,,,,,,,,,,,60fd8720d6da91884d85d305,610377e293523e7a465e5308,2021-07-29_23h56.07.865,Simcolourproject_2stim_asymm_v5,2020.2.10,MacIntel,60,61025ae37ef11b136ea224fe,,,,,,,,,1799,66,37,1,0,0,response1disk,,6,14,4,1,0,0,rectangle,14,4,1,0,0,,,,,,,14,4,1,0,0,,0,60,60,108,1,
,,,,,,,,,,,,,FF,,,,,,,,4,,,,,,,,,,,,,,,,,,,,,,60fd8720d6da91884d85d305,610377e293523e7a465e5308,2021-07-29_23h56.07.865,Simcolourproject_2stim_asymm_v5,2020.2.10,MacIntel,60,61025ae37ef11b136ea224fe,,,,,,,,,2683,80,-35,1,0,0,response3disk,,5,-6,11,1,0,0,rectangle,-6,11,1,0,0,,,,,,,-6,11,1,0,0,,0,61,61,33,1,
,,,,,,,,,,,,,FF,,,,,,,,1.333,,,,,,,,,,,,,,,,,,,,,,60fd8720d6da91884d85d305,610377e293523e7a465e5308,2021-07-29_23h56.07.865,Simcolourproject_2stim_asymm_v5,2020.2.10,MacIntel,60,61025ae37ef11b136ea224fe,,,,,,,,,3814,33,-61,1,0,0,response3disk,,4,8,-1,1,0,0,rectangle,8,-1,1,0,0,,,,,,,8,-1,1,0,0,,0,62,62,16,1,
,,,,,,,,,,,,,FF,,,,,,,,1.95,,,,,,,,,,,,,,,,,,,,,,60fd8720d6da91884d85d305,610377e293523e7a465e5308,2021-07-29_23h56.07.865,Simcolourproject_2stim_asymm_v5,2020.2.10,MacIntel,60,61025ae37ef11b136ea224fe,,,,,,,,,1116,75,-20,1,0,0,response3disk,,5,15,0,1,0,0,rectangle,15,0,1,0,0,,,,,,,15,0,1,0,0,,0,63,63,39,1,
,,,,,,,,,,,,,FF,,,,,,,,0.932,,,,,,,,,,,,,,,,,,,,,,60fd8720d6da91884d85d305,610377e293523e7a465e5308,2021-07-29_23h56.07.865,Simcolourproject_2stim_asymm_v5,2020.2.10,MacIntel,60,61025ae37ef11b136ea224fe,,,,,,,,,2920,69,53,1,0,0,response1disk,,6,9,16,1,0,0,rectangle,9,16,1,0,0,,,,,,,9,16,1,0,0,,0,64,64,93,1,
,,,,,,,,,,,,,FF,,,,,,,,1.033,,,,,,,,,,,,,,,,,,,,,,60fd8720d6da91884d85d305,610377e293523e7a465e5308,2021-07-29_23h56.07.865,Simcolourproject_2stim_asymm_v5,2020.2.10,MacIntel,60,61025ae37ef11b136ea224fe,,,,,,,,,2385,32,48,1,0,0,response1disk,,7,20,16,1,0,0,rectangle,20,16,1,0,0,,,,,,,20,16,1,0,0,,0,65,65,94,1,
,,,,,,,,,,,,,FF,,,,,,,,1.465,,,,,,,,,,,,,,,,,,,,,,60fd8720d6da91884d85d305,610377e293523e7a465e5308,2021-07-29_23h56.07.865,Simcolourproject_2stim_asymm_v5,2020.2.10,MacIntel,60,61025ae37ef11b136ea224fe,,,,,,,,,3514,25,-63,1,0,0,response3disk,,4,1,-6,1,0,0,rectangle,1,-6,1,0,0,,,,,,,1,-6,1,0,0,,0,66,66,10,1,
,,,,,,,,,,,,,FF,,,,,,,,1.4,,,,,,,,,,,,,,,,,,,,,,60fd8720d6da91884d85d305,610377e293523e7a465e5308,2021-07-29_23h56.07.865,Simcolourproject_2stim_asymm_v5,2020.2.10,MacIntel,60,61025ae37ef11b136ea224fe,,,,,,,,,2025,-89,-38,1,0,0,response5disk,,2,-27,11,1,0,0,rectangle,-27,11,1,0,0,,,,,,,-27,11,1,0,0,,0,67,67,47,1,
,,,,,,,,,,,,,FF,,,,,,,,1.732,,,,,,,,,,,,,,,,,,,,,,60fd8720d6da91884d85d305,610377e293523e7a465e5308,2021-07-29_23h56.07.865,Simcolourproject_2stim_asymm_v5,2020.2.10,MacIntel,60,61025ae37ef11b136ea224fe,,,,,,,,,3163,48,-73,1,0,0,response3disk,,4,7,-3,1,0,0,rectangle,7,-3,1,0,0,,,,,,,7,-3,1,0,0,,0,68,68,46,1,
,,,,,,,,,,,,,FF,,,,,,,,0.833,,,,,,,,,,,,,,,,,,,,,,60fd8720d6da91884d85d305,610377e293523e7a465e5308,2021-07-29_23h56.07.865,Simcolourproject_2stim_asymm_v5,2020.2.10,MacIntel,60,61025ae37ef11b136ea224fe,,,,,,,,,3325,43,55,1,0,0,response1disk,,7,15,4,1,0,0,rectangle,15,4,1,0,0,,,,,,,15,4,1,0,0,,0,69,69,133,1,
,,,,,,,,,,,,,FF,,,,,,,,2.183,,,,,,,,,,,,,,,,,,,,,,60fd8720d6da91884d85d305,610377e293523e7a465e5308,2021-07-29_23h56.07.865,Simcolourproject_2stim_asymm_v5,2020.2.10,MacIntel,60,61025ae37ef11b136ea224fe,,,,,,,,,1737,75,30,1,0,0,response1disk,,6,32,9,1,0,0,rectangle,32,9,1,0,0,,,,,,,32,9,1,0,0,,0,70,70,121,1,
,,,,,,,,,,,,,FF,,,,,,,,1.617,,,,,,,,,,,,,,,,,,,,,,60fd8720d6da91884d85d305,610377e293523e7a465e5308,2021-07-29_23h56.07.865,Simcolourproject_2stim_asymm_v5,2020.2.10,MacIntel,60,61025ae37ef11b136ea224fe,,,,,,,,,1598,16,-71,1,0,0,response3disk,,4,16,4,1,0,0,rectangle,16,4,1,0,0,,,,,,,16,4,1,0,0,,0,71,71,106,1,
,,,,,,,,,,,,,FF,,,,,,,,1.049,,,,,,,,,,,,,,,,,,,,,,60fd8720d6da91884d85d305,610377e293523e7a465e5308,2021-07-29_23h56.07.865,Simcolourproject_2stim_asymm_v5,2020.2.10,MacIntel,60,61025ae37ef11b136ea224fe,,,,,,,,,2419,-41,-71,1,0,0,response5disk,,3,-11,-3,1,0,0,rectangle,-11,-3,1,0,0,,,,,,,-11,-3,1,0,0,,0,72,72,48,1,
,,,,,,,,,,,,,FF,,,,,,,,1.068,,,,,,,,,,,,,,,,,,,,,,60fd8720d6da91884d85d305,610377e293523e7a465e5308,2021-07-29_23h56.07.865,Simcolourproject_2stim_asymm_v5,2020.2.10,MacIntel,60,61025ae37ef11b136ea224fe,,,,,,,,,2902,31,-61,1,0,0,response3disk,,4,7,7,1,0,0,rectangle,7,7,1,0,0,,,,,,,7,7,1,0,0,,0,73,73,98,1,
,,,,,,,,,,,,,FF,,,,,,,,1.717,,,,,,,,,,,,,,,,,,,,,,60fd8720d6da91884d85d305,610377e293523e7a465e5308,2021-07-29_23h56.07.865,Simcolourproject_2stim_asymm_v5,2020.2.10,MacIntel,60,61025ae37ef11b136ea224fe,,,,,,,,,2051,45,-66,1,0,0,response3disk,,4,9,4,1,0,0,rectangle,9,4,1,0,0,,,,,,,9,4,1,0,0,,0,74,74,1,1,
,,,,,,,,,,,,,FF,,,,,,,,0.984,,,,,,,,,,,,,,,,,,,,,,60fd8720d6da91884d85d305,610377e293523e7a465e5308,2021-07-29_23h56.07.865,Simcolourproject_2stim_asymm_v5,2020.2.10,MacIntel,60,61025ae37ef11b136ea224fe,,,,,,,,,835,79,41,1,0,0,response1disk,,6,8,9,1,0,0,rectangle,8,9,1,0,0,,,,,,,8,9,1,0,0,,0,75,75,37,1,
,,,,,,,,,,,,,FF,,,,,,,,2.266,,,,,,,,,,,,,,,,,,,,,,60fd8720d6da91884d85d305,610377e293523e7a465e5308,2021-07-29_23h56.07.865,Simcolourproject_2stim_asymm_v5,2020.2.10,MacIntel,60,61025ae37ef11b136ea224fe,,,,,,,,,720,25,-70,1,0,0,response3disk,,4,8,0,1,0,0,rectangle,8,0,1,0,0,,,,,,,8,0,1,0,0,,0,76,76,45,1,
,,,,,,,,,,,,,FF,,,,,,,,1.283,,,,,,,,,,,,,,,,,,,,,,60fd8720d6da91884d85d305,610377e293523e7a465e5308,2021-07-29_23h56.07.865,Simcolourproject_2stim_asymm_v5,2020.2.10,MacIntel,60,61025ae37ef11b136ea224fe,,,,,,,,,3878,73,-32,1,0,0,response3disk,,5,9,-3,1,0,0,rectangle,9,-3,1,0,0,,,,,,,9,-3,1,0,0,,0,77,77,159,1,
,,,,,,,,,,,,,FF,,,,,,,,0.75,,,,,,,,,,,,,,,,,,,,,,60fd8720d6da91884d85d305,610377e293523e7a465e5308,2021-07-29_23h56.07.865,Simcolourproject_2stim_asymm_v5,2020.2.10,MacIntel,60,61025ae37ef11b136ea224fe,,,,,,,,,3724,37,48,1,0,0,response1disk,,7,16,-1,1,0,0,rectangle,16,-1,1,0,0,,,,,,,16,-1,1,0,0,,0,78,78,147,1,
,,,,,,,,,,,,,FF,,,,,,,,1.233,,,,,,,,,,,,,,,,,,,,,,60fd8720d6da91884d85d305,610377e293523e7a465e5308,2021-07-29_23h56.07.865,Simcolourproject_2stim_asymm_v5,2020.2.10,MacIntel,60,61025ae37ef11b136ea224fe,,,,,,,,,1638,37,59,1,0,0,response1disk,,7,12,8,1,0,0,rectangle,12,8,1,0,0,,,,,,,12,8,1,0,0,,0,79,79,80,1,
,,,,,,,,,,,,,FF,,,,,,,,1.717,,,,,,,,,,,,,,,,,,,,,,60fd8720d6da91884d85d305,610377e293523e7a465e5308,2021-07-29_23h56.07.865,Simcolourproject_2stim_asymm_v5,2020.2.10,MacIntel,60,61025ae37ef11b136ea224fe,,,,,,,,,2909,76,-33,1,0,0,response3disk,,5,26,-10,1,0,0,rectangle,26,-10,1,0,0,,,,,,,26,-10,1,0,0,,0,80,80,51,1,
,,,,,,,,,,,,,FF,,,,,,,,2.183,,,,,,,,,,,,,,,,,,,,,,60fd8720d6da91884d85d305,610377e293523e7a465e5308,2021-07-29_23h56.07.865,Simcolourproject_2stim_asymm_v5,2020.2.10,MacIntel,60,61025ae37ef11b136ea224fe,,,,,,,,,3810,-86,-40,1,0,0,response5disk,,2,-12,7,1,0,0,rectangle,-12,7,1,0,0,,,,,,,-12,7,1,0,0,,0,81,81,131,1,
,,,,,,,,,,,,,FF,,,,,,,,1.549,,,,,,,,,,,,,,,,,,,,,,60fd8720d6da91884d85d305,610377e293523e7a465e5308,2021-07-29_23h56.07.865,Simcolourproject_2stim_asymm_v5,2020.2.10,MacIntel,60,61025ae37ef11b136ea224fe,,,,,,,,,1616,24,-64,1,0,0,response3disk,,4,9,-12,1,0,0,rectangle,9,-12,1,0,0,,,,,,,9,-12,1,0,0,,0,82,82,153,1,
,,,,,,,,,,,,,FF,,,,,,,,1,,,,,,,,,,,,,,,,,,,,,,60fd8720d6da91884d85d305,610377e293523e7a465e5308,2021-07-29_23h56.07.865,Simcolourproject_2stim_asymm_v5,2020.2.10,MacIntel,60,61025ae37ef11b136ea224fe,,,,,,,,,2816,30,62,1,0,0,response1disk,,7,12,12,1,0,0,rectangle,12,12,1,0,0,,,,,,,12,12,1,0,0,,0,83,83,73,1,
,,,,,,,,,,,,,FF,,,,,,,,0.9,,,,,,,,,,,,,,,,,,,,,,60fd8720d6da91884d85d305,610377e293523e7a465e5308,2021-07-29_23h56.07.865,Simcolourproject_2stim_asymm_v5,2020.2.10,MacIntel,60,61025ae37ef11b136ea224fe,,,,,,,,,3590,36,50,1,0,0,response1disk,,7,27,12,1,0,0,rectangle,27,12,1,0,0,,,,,,,27,12,1,0,0,,0,84,84,63,1,
,,,,,,,,,,,,,FF,,,,,,,,1.499,,,,,,,,,,,,,,,,,,,,,,60fd8720d6da91884d85d305,610377e293523e7a465e5308,2021-07-29_23h56.07.865,Simcolourproject_2stim_asymm_v5,2020.2.10,MacIntel,60,61025ae37ef11b136ea224fe,,,,,,,,,1733,75,48,1,0,0,response1disk,,6,13,14,1,0,0,rectangle,13,14,1,0,0,,,,,,,13,14,1,0,0,,0,85,85,123,1,
,,,,,,,,,,,,,FF,,,,,,,,1.251,,,,,,,,,,,,,,,,,,,,,,60fd8720d6da91884d85d305,610377e293523e7a465e5308,2021-07-29_23h56.07.865,Simcolourproject_2stim_asymm_v5,2020.2.10,MacIntel,60,61025ae37ef11b136ea224fe,,,,,,,,,667,32,68,1,0,0,response1disk,,7,12,7,1,0,0,rectangle,12,7,1,0,0,,,,,,,12,7,1,0,0,,0,86,86,15,1,
,,,,,,,,,,,,,FF,,,,,,,,0.95,,,,,,,,,,,,,,,,,,,,,,60fd8720d6da91884d85d305,610377e293523e7a465e5308,2021-07-29_23h56.07.865,Simcolourproject_2stim_asymm_v5,2020.2.10,MacIntel,60,61025ae37ef11b136ea224fe,,,,,,,,,2444,31,57,1,0,0,response1disk,,7,13,-1,1,0,0,rectangle,13,-1,1,0,0,,,,,,,13,-1,1,0,0,,0,87,87,55,1,
,,,,,,,,,,,,,FF,,,,,,,,2.134,,,,,,,,,,,,,,,,,,,,,,60fd8720d6da91884d85d305,610377e293523e7a465e5308,2021-07-29_23h56.07.865,Simcolourproject_2stim_asymm_v5,2020.2.10,MacIntel,60,61025ae37ef11b136ea224fe,,,,,,,,,510,59,35,1,0,0,response1disk,,6,2,7,1,0,0,rectangle,2,7,1,0,0,,,,,,,2,7,1,0,0,,0,88,88,141,1,
,,,,,,,,,,,,,FF,,,,,,,,1.2,,,,,,,,,,,,,,,,,,,,,,60fd8720d6da91884d85d305,610377e293523e7a465e5308,2021-07-29_23h56.07.865,Simcolourproject_2stim_asymm_v5,2020.2.10,MacIntel,60,61025ae37ef11b136ea224fe,,,,,,,,,1595,66,26,1,0,0,response1disk,,6,5,0,1,0,0,rectangle,5,0,1,0,0,,,,,,,5,0,1,0,0,,0,89,89,23,1,
,,,,,,,,,,,,,FF,,,,,,,,1.316,,,,,,,,,,,,,,,,,,,,,,60fd8720d6da91884d85d305,610377e293523e7a465e5308,2021-07-29_23h56.07.865,Simcolourproject_2stim_asymm_v5,2020.2.10,MacIntel,60,61025ae37ef11b136ea224fe,,,,,,,,,343,59,-41,1,0,0,response3disk,,5,3,-3,1,0,0,rectangle,3,-3,1,0,0,,,,,,,3,-3,1,0,0,,0,90,90,117,1,
,,,,,,,,,,,,,FF,,,,,,,,1.199,,,,,,,,,,,,,,,,,,,,,,60fd8720d6da91884d85d305,610377e293523e7a465e5308,2021-07-29_23h56.07.865,Simcolourproject_2stim_asymm_v5,2020.2.10,MacIntel,60,61025ae37ef11b136ea224fe,,,,,,,,,483,70,30,1,0,0,response1disk,,6,11,2,1,0,0,rectangle,11,2,1,0,0,,,,,,,11,2,1,0,0,,0,91,91,68,1,
,,,,,,,,,,,,,FF,,,,,,,,1.049,,,,,,,,,,,,,,,,,,,,,,60fd8720d6da91884d85d305,610377e293523e7a465e5308,2021-07-29_23h56.07.865,Simcolourproject_2stim_asymm_v5,2020.2.10,MacIntel,60,61025ae37ef11b136ea224fe,,,,,,,,,3475,30,-79,1,0,0,response3disk,,4,1,-3,1,0,0,rectangle,1,-3,1,0,0,,,,,,,1,-3,1,0,0,,0,92,92,96,1,
,,,,,,,,,,,,,FF,,,,,,,,3.567,,,,,,,,,,,,,,,,,,,,,,60fd8720d6da91884d85d305,610377e293523e7a465e5308,2021-07-29_23h56.07.865,Simcolourproject_2stim_asymm_v5,2020.2.10,MacIntel,60,61025ae37ef11b136ea224fe,,,,,,,,,1719,85,48,1,0,0,response1disk,,6,4,13,1,0,0,rectangle,4,13,1,0,0,,,,,,,4,13,1,0,0,,0,93,93,3,1,
,,,,,,,,,,,,,FF,,,,,,,,2.15,,,,,,,,,,,,,,,,,,,,,,60fd8720d6da91884d85d305,610377e293523e7a465e5308,2021-07-29_23h56.07.865,Simcolourproject_2stim_asymm_v5,2020.2.10,MacIntel,60,61025ae37ef11b136ea224fe,,,,,,,,,3031,53,93,1,0,0,response1disk,,7,2,4,1,0,0,rectangle,2,4,1,0,0,,,,,,,2,4,1,0,0,,0,94,94,112,1,
,,,,,,,,,,,,,FF,,,,,,,,0.883,,,,,,,,,,,,,,,,,,,,,,60fd8720d6da91884d85d305,610377e293523e7a465e5308,2021-07-29_23h56.07.865,Simcolourproject_2stim_asymm_v5,2020.2.10,MacIntel,60,61025ae37ef11b136ea224fe,,,,,,,,,2632,35,61,1,0,0,response1disk,,7,1,3,1,0,0,rectangle,1,3,1,0,0,,,,,,,1,3,1,0,0,,0,95,95,149,1,
,,,,,,,,,,,,,FF,,,,,,,,1.8,,,,,,,,,,,,,,,,,,,,,,60fd8720d6da91884d85d305,610377e293523e7a465e5308,2021-07-29_23h56.07.865,Simcolourproject_2stim_asymm_v5,2020.2.10,MacIntel,60,61025ae37ef11b136ea224fe,,,,,,,,,969,-52,-70,1,0,0,response5disk,,3,-2,-3,1,0,0,rectangle,89,-40,1,0,0,response3disk_3,TRUE,5,5,"[274,108,97,117,232,120,208,300,117,260,213,175,9,149,280,12,14,189,317,1]",1.633,17,-15,1,0,0,rectangle,0,96,96,82,1,
,,,,,,,,,,,,,FF,,,,,,,,1.783,,,,,,,,,,,,,,,,,,,,,,60fd8720d6da91884d85d305,610377e293523e7a465e5308,2021-07-29_23h56.07.865,Simcolourproject_2stim_asymm_v5,2020.2.10,MacIntel,60,61025ae37ef11b136ea224fe,,,,,,,,,631,-35,-67,1,0,0,response5disk,,3,1,7,1,0,0,rectangle,1,7,1,0,0,,,,,,,1,7,1,0,0,,0,97,97,87,1,
,,,,,,,,,,,,,FF,,,,,,,,0.966,,,,,,,,,,,,,,,,,,,,,,60fd8720d6da91884d85d305,610377e293523e7a465e5308,2021-07-29_23h56.07.865,Simcolourproject_2stim_asymm_v5,2020.2.10,MacIntel,60,61025ae37ef11b136ea224fe,,,,,,,,,4302,69,-32,1,0,0,response3disk,,5,15,11,1,0,0,rectangle,15,11,1,0,0,,,,,,,15,11,1,0,0,,0,98,98,151,1,
,,,,,,,,,,,,,FF,,,,,,,,0.983,,,,,,,,,,,,,,,,,,,,,,60fd8720d6da91884d85d305,610377e293523e7a465e5308,2021-07-29_23h56.07.865,Simcolourproject_2stim_asymm_v5,2020.2.10,MacIntel,60,61025ae37ef11b136ea224fe,,,,,,,,,4289,57,41,1,0,0,response1disk,,6,16,4,1,0,0,rectangle,16,4,1,0,0,,,,,,,16,4,1,0,0,,0,99,99,9,1,
,,,,,,,,,,,,,FF,,,,,,,,2.365,,,,,,,,,,,,,,,,,,,,,,60fd8720d6da91884d85d305,610377e293523e7a465e5308,2021-07-29_23h56.07.865,Simcolourproject_2stim_asymm_v5,2020.2.10,MacIntel,60,61025ae37ef11b136ea224fe,,,,,,,,,3075,73,38,1,0,0,response1disk,,6,3,0,1,0,0,rectangle,3,0,1,0,0,,,,,,,3,0,1,0,0,,0,100,100,28,1,
,,,,,,,,,,,,,FF,,,,,,,,0.682,,,,,,,,,,,,,,,,,,,,,,60fd8720d6da91884d85d305,610377e293523e7a465e5308,2021-07-29_23h56.07.865,Simcolourproject_2stim_asymm_v5,2020.2.10,MacIntel,60,61025ae37ef11b136ea224fe,,,,,,,,,3361,41,68,1,0,0,response1disk,,7,22,7,1,0,0,rectangle,22,7,1,0,0,,,,,,,22,7,1,0,0,,0,101,101,91,1,
,,,,,,,,,,,,,FF,,,,,,,,0.666,,,,,,,,,,,,,,,,,,,,,,60fd8720d6da91884d85d305,610377e293523e7a465e5308,2021-07-29_23h56.07.865,Simcolourproject_2stim_asymm_v5,2020.2.10,MacIntel,60,61025ae37ef11b136ea224fe,,,,,,,,,3015,44,63,1,0,0,response1disk,,7,22,10,1,0,0,rectangle,22,10,1,0,0,,,,,,,22,10,1,0,0,,0,102,102,138,1,
,,,,,,,,,,,,,FF,,,,,,,,0.883,,,,,,,,,,,,,,,,,,,,,,60fd8720d6da91884d85d305,610377e293523e7a465e5308,2021-07-29_23h56.07.865,Simcolourproject_2stim_asymm_v5,2020.2.10,MacIntel,60,61025ae37ef11b136ea224fe,,,,,,,,,4094,38,56,1,0,0,response1disk,,7,7,8,1,0,0,rectangle,7,8,1,0,0,,,,,,,7,8,1,0,0,,0,103,103,81,1,
,,,,,,,,,,,,,FF,,,,,,,,0.667,,,,,,,,,,,,,,,,,,,,,,60fd8720d6da91884d85d305,610377e293523e7a465e5308,2021-07-29_23h56.07.865,Simcolourproject_2stim_asymm_v5,2020.2.10,MacIntel,60,61025ae37ef11b136ea224fe,,,,,,,,,2399,28,51,1,0,0,response1disk,,7,2,-4,1,0,0,rectangle,2,-4,1,0,0,,,,,,,2,-4,1,0,0,,0,104,104,43,1,
,,,,,,,,,,,,,FF,,,,,,,,2.517,,,,,,,,,,,,,,,,,,,,,,60fd8720d6da91884d85d305,610377e293523e7a465e5308,2021-07-29_23h56.07.865,Simcolourproject_2stim_asymm_v5,2020.2.10,MacIntel,60,61025ae37ef11b136ea224fe,,,,,,,,,191,-21,-79,1,0,0,response5disk,,3,-4,0,1,0,0,rectangle,-4,0,1,0,0,,,,,,,-4,0,1,0,0,,0,105,105,84,1,
,,,,,,,,,,,,,FF,,,,,,,,1.35,,,,,,,,,,,,,,,,,,,,,,60fd8720d6da91884d85d305,610377e293523e7a465e5308,2021-07-29_23h56.07.865,Simcolourproject_2stim_asymm_v5,2020.2.10,MacIntel,60,61025ae37ef11b136ea224fe,,,,,,,,,390,96,-33,1,0,0,response3disk,,5,8,4,1,0,0,rectangle,8,4,1,0,0,,,,,,,8,4,1,0,0,,0,106,106,128,1,
,,,,,,,,,,,,,FF,,,,,,,,1.25,,,,,,,,,,,,,,,,,,,,,,60fd8720d6da91884d85d305,610377e293523e7a465e5308,2021-07-29_23h56.07.865,Simcolourproject_2stim_asymm_v5,2020.2.10,MacIntel,60,61025ae37ef11b136ea224fe,,,,,,,,,804,39,-74,1,0,0,response3disk,,4,4,-11,1,0,0,rectangle,79,62,1,0,0,response1disk_3,TRUE,6,6,"[274,108,97,117,232,120,208,300,117,260,213,175,9,149,280,12,14,189,317,1]",1.349,-25,-11,1,0,0,rectangle,0,107,107,20,1,
,,,,,,,,,,,,,FF,,,,,,,,1.883,,,,,,,,,,,,,,,,,,,,,,60fd8720d6da91884d85d305,610377e293523e7a465e5308,2021-07-29_23h56.07.865,Simcolourproject_2stim_asymm_v5,2020.2.10,MacIntel,60,61025ae37ef11b136ea224fe,,,,,,,,,3839,84,-49,1,0,0,response3disk,,5,7,0,1,0,0,rectangle,7,0,1,0,0,,,,,,,7,0,1,0,0,,0,108,108,54,1,
,,,,,,,,,,,,,FF,,,,,,,,2.4,,,,,,,,,,,,,,,,,,,,,,60fd8720d6da91884d85d305,610377e293523e7a465e5308,2021-07-29_23h56.07.865,Simcolourproject_2stim_asymm_v5,2020.2.10,MacIntel,60,61025ae37ef11b136ea224fe,,,,,,,,,3102,42,-80,1,0,0,response3disk,,4,8,-4,1,0,0,rectangle,8,-4,1,0,0,,,,,,,8,-4,1,0,0,,0,109,109,88,1,
,,,,,,,,,,,,,FF,,,,,,,,1.6,,,,,,,,,,,,,,,,,,,,,,60fd8720d6da91884d85d305,610377e293523e7a465e5308,2021-07-29_23h56.07.865,Simcolourproject_2stim_asymm_v5,2020.2.10,MacIntel,60,61025ae37ef11b136ea224fe,,,,,,,,,1393,57,39,1,0,0,response1disk,,6,2,1,1,0,0,rectangle,2,1,1,0,0,,,,,,,2,1,1,0,0,,0,110,110,155,1,
,,,,,,,,,,,,,FF,,,,,,,,1.566,,,,,,,,,,,,,,,,,,,,,,60fd8720d6da91884d85d305,610377e293523e7a465e5308,2021-07-29_23h56.07.865,Simcolourproject_2stim_asymm_v5,2020.2.10,MacIntel,60,61025ae37ef11b136ea224fe,,,,,,,,,1671,77,-42,1,0,0,response3disk,,5,24,3,1,0,0,rectangle,24,3,1,0,0,,,,,,,24,3,1,0,0,,0,111,111,36,1,
,,,,,,,,,,,,,FF,,,,,,,,1.801,,,,,,,,,,,,,,,,,,,,,,60fd8720d6da91884d85d305,610377e293523e7a465e5308,2021-07-29_23h56.07.865,Simcolourproject_2stim_asymm_v5,2020.2.10,MacIntel,60,61025ae37ef11b136ea224fe,,,,,,,,,2226,-88,-34,1,0,0,response5disk,,2,-14,-2,1,0,0,rectangle,-14,-2,1,0,0,,,,,,,-14,-2,1,0,0,,0,112,112,78,1,
,,,,,,,,,,,,,FF,,,,,,,,1.417,,,,,,,,,,,,,,,,,,,,,,60fd8720d6da91884d85d305,610377e293523e7a465e5308,2021-07-29_23h56.07.865,Simcolourproject_2stim_asymm_v5,2020.2.10,MacIntel,60,61025ae37ef11b136ea224fe,,,,,,,,,2372,33,83,1,0,0,response1disk,,7,-6,-3,1,0,0,rectangle,-6,-3,1,0,0,,,,,,,-6,-3,1,0,0,,0,113,113,139,1,
,,,,,,,,,,,,,FF,,,,,,,,0.616,,,,,,,,,,,,,,,,,,,,,,60fd8720d6da91884d85d305,610377e293523e7a465e5308,2021-07-29_23h56.07.865,Simcolourproject_2stim_asymm_v5,2020.2.10,MacIntel,60,61025ae37ef11b136ea224fe,,,,,,,,,1030,32,58,1,0,0,response1disk,,7,19,0,1,0,0,rectangle,19,0,1,0,0,,,,,,,19,0,1,0,0,,0,114,114,137,1,
,,,,,,,,,,,,,FF,,,,,,,,0.7,,,,,,,,,,,,,,,,,,,,,,60fd8720d6da91884d85d305,610377e293523e7a465e5308,2021-07-29_23h56.07.865,Simcolourproject_2stim_asymm_v5,2020.2.10,MacIntel,60,61025ae37ef11b136ea224fe,,,,,,,,,3136,35,63,1,0,0,response1disk,,7,25,-5,1,0,0,rectangle,25,-5,1,0,0,,,,,,,25,-5,1,0,0,,0,115,115,102,1,
,,,,,,,,,,,,,FF,,,,,,,,2.366,,,,,,,,,,,,,,,,,,,,,,60fd8720d6da91884d85d305,610377e293523e7a465e5308,2021-07-29_23h56.07.865,Simcolourproject_2stim_asymm_v5,2020.2.10,MacIntel,60,61025ae37ef11b136ea224fe,,,,,,,,,491,72,48,1,0,0,response1disk,,6,15,17,1,0,0,rectangle,39,70,1,0,0,response1disk_3,TRUE,7,7,"[274,108,97,117,232,120,208,300,117,260,213,175,9,149,280,12,14,189,317,1]",2.317,13,-5,1,0,0,rectangle,0,116,116,7,1,
,,,,,,,,,,,,,FF,,,,,,,,1.049,,,,,,,,,,,,,,,,,,,,,,60fd8720d6da91884d85d305,610377e293523e7a465e5308,2021-07-29_23h56.07.865,Simcolourproject_2stim_asymm_v5,2020.2.10,MacIntel,60,61025ae37ef11b136ea224fe,,,,,,,,,1957,47,-74,1,0,0,response3disk,,4,18,1,1,0,0,rectangle,18,1,1,0,0,,,,,,,18,1,1,0,0,,0,117,117,18,1,
,,,,,,,,,,,,,FF,,,,,,,,4.149,,,,,,,,,,,,,,,,,,,,,,60fd8720d6da91884d85d305,610377e293523e7a465e5308,2021-07-29_23h56.07.865,Simcolourproject_2stim_asymm_v5,2020.2.10,MacIntel,60,61025ae37ef11b136ea224fe,,,,,,,,,1729,73,33,1,0,0,response1disk,,6,-1,2,1,0,0,rectangle,-1,2,1,0,0,,,,,,,-1,2,1,0,0,,0,118,118,5,1,
,,,,,,,,,,,,,FF,,,,,,,,1.133,,,,,,,,,,,,,,,,,,,,,,60fd8720d6da91884d85d305,610377e293523e7a465e5308,2021-07-29_23h56.07.865,Simcolourproject_2stim_asymm_v5,2020.2.10,MacIntel,60,61025ae37ef11b136ea224fe,,,,,,,,,2595,82,-26,1,0,0,response3disk,,5,9,7,1,0,0,rectangle,-36,-87,1,0,0,response5disk_3,TRUE,3,3,"[274,108,97,117,232,120,208,300,117,260,213,175,9,149,280,12,14,189,317,1]",2.483,-7,0,1,0,0,rectangle,0,119,119,53,1,
,,,,,,,,,,,,,FF,,,,,,,,1.166,,,,,,,,,,,,,,,,,,,,,,60fd8720d6da91884d85d305,610377e293523e7a465e5308,2021-07-29_23h56.07.865,Simcolourproject_2stim_asymm_v5,2020.2.10,MacIntel,60,61025ae37ef11b136ea224fe,,,,,,,,,1008,73,31,1,0,0,response1disk,,6,15,5,1,0,0,rectangle,15,5,1,0,0,,,,,,,15,5,1,0,0,,0,120,120,150,1,
,,,,,,,,,,,,,FF,,,,,,,,1.365,,,,,,,,,,,,,,,,,,,,,,60fd8720d6da91884d85d305,610377e293523e7a465e5308,2021-07-29_23h56.07.865,Simcolourproject_2stim_asymm_v5,2020.2.10,MacIntel,60,61025ae37ef11b136ea224fe,,,,,,,,,3046,29,-57,1,0,0,response3disk,,4,-11,-12,1,0,0,rectangle,-11,-12,1,0,0,,,,,,,-11,-12,1,0,0,,0,121,121,38,1,
,,,,,,,,,,,,,FF,,,,,,,,1.3,,,,,,,,,,,,,,,,,,,,,,60fd8720d6da91884d85d305,610377e293523e7a465e5308,2021-07-29_23h56.07.865,Simcolourproject_2stim_asymm_v5,2020.2.10,MacIntel,60,61025ae37ef11b136ea224fe,,,,,,,,,196,69,-33,1,0,0,response3disk,,5,15,0,1,0,0,rectangle,15,0,1,0,0,,,,,,,15,0,1,0,0,,0,122,122,85,1,
,,,,,,,,,,,,,FF,,,,,,,,1.316,,,,,,,,,,,,,,,,,,,,,,60fd8720d6da91884d85d305,610377e293523e7a465e5308,2021-07-29_23h56.07.865,Simcolourproject_2stim_asymm_v5,2020.2.10,MacIntel,60,61025ae37ef11b136ea224fe,,,,,,,,,913,85,46,1,0,0,response1disk,,6,-11,1,1,0,0,rectangle,-11,1,1,0,0,,,,,,,-11,1,1,0,0,,0,123,123,134,1,
,,,,,,,,,,,,,FF,,,,,,,,1,,,,,,,,,,,,,,,,,,,,,,60fd8720d6da91884d85d305,610377e293523e7a465e5308,2021-07-29_23h56.07.865,Simcolourproject_2stim_asymm_v5,2020.2.10,MacIntel,60,61025ae37ef11b136ea224fe,,,,,,,,,941,32,55,1,0,0,response1disk,,7,-4,5,1,0,0,rectangle,-4,5,1,0,0,,,,,,,-4,5,1,0,0,,0,124,124,116,1,
,,,,,,,,,,,,,FF,,,,,,,,2.1,,,,,,,,,,,,,,,,,,,,,,60fd8720d6da91884d85d305,610377e293523e7a465e5308,2021-07-29_23h56.07.865,Simcolourproject_2stim_asymm_v5,2020.2.10,MacIntel,60,61025ae37ef11b136ea224fe,,,,,,,,,2031,-37,-78,1,0,0,response5disk,,3,-3,-4,1,0,0,rectangle,-3,-4,1,0,0,,,,,,,-3,-4,1,0,0,,0,125,125,65,1,
,,,,,,,,,,,,,FF,,,,,,,,0.833,,,,,,,,,,,,,,,,,,,,,,60fd8720d6da91884d85d305,610377e293523e7a465e5308,2021-07-29_23h56.07.865,Simcolourproject_2stim_asymm_v5,2020.2.10,MacIntel,60,61025ae37ef11b136ea224fe,,,,,,,,,2568,70,43,1,0,0,response1disk,,6,14,6,1,0,0,rectangle,14,6,1,0,0,,,,,,,14,6,1,0,0,,0,126,126,13,1,
,,,,,,,,,,,,,FF,,,,,,,,0.6,,,,,,,,,,,,,,,,,,,,,,60fd8720d6da91884d85d305,610377e293523e7a465e5308,2021-07-29_23h56.07.865,Simcolourproject_2stim_asymm_v5,2020.2.10,MacIntel,60,61025ae37ef11b136ea224fe,,,,,,,,,4329,37,64,1,0,0,response1disk,,7,12,7,1,0,0,rectangle,12,7,1,0,0,,,,,,,12,7,1,0,0,,0,127,127,31,1,
,,,,,,,,,,,,,FF,,,,,,,,1.499,,,,,,,,,,,,,,,,,,,,,,60fd8720d6da91884d85d305,610377e293523e7a465e5308,2021-07-29_23h56.07.865,Simcolourproject_2stim_asymm_v5,2020.2.10,MacIntel,60,61025ae37ef11b136ea224fe,,,,,,,,,3336,-62,-24,1,0,0,response5disk,,2,-25,2,1,0,0,rectangle,-25,2,1,0,0,,,,,,,-25,2,1,0,0,,0,128,128,110,1,
,,,,,,,,,,,,,FF,,,,,,,,1.682,,,,,,,,,,,,,,,,,,,,,,60fd8720d6da91884d85d305,610377e293523e7a465e5308,2021-07-29_23h56.07.865,Simcolourproject_2stim_asymm_v5,2020.2.10,MacIntel,60,61025ae37ef11b136ea224fe,,,,,,,,,615,47,-72,1,0,0,response3disk,,4,9,6,1,0,0,rectangle,9,6,1,0,0,,,,,,,9,6,1,0,0,,0,129,129,17,1,
,,,,,,,,,,,,,FF,,,,,,,,0.983,,,,,,,,,,,,,,,,,,,,,,60fd8720d6da91884d85d305,610377e293523e7a465e5308,2021-07-29_23h56.07.865,Simcolourproject_2stim_asymm_v5,2020.2.10,MacIntel,60,61025ae37ef11b136ea224fe,,,,,,,,,1592,64,31,1,0,0,response1disk,,6,13,9,1,0,0,rectangle,13,9,1,0,0,,,,,,,13,9,1,0,0,,0,130,130,125,1,
,,,,,,,,,,,,,FF,,,,,,,,2.817,,,,,,,,,,,,,,,,,,,,,,60fd8720d6da91884d85d305,610377e293523e7a465e5308,2021-07-29_23h56.07.865,Simcolourproject_2stim_asymm_v5,2020.2.10,MacIntel,60,61025ae37ef11b136ea224fe,,,,,,,,,2591,57,31,1,0,0,response1disk,,6,4,-4,1,0,0,rectangle,4,-4,1,0,0,,,,,,,4,-4,1,0,0,,0,131,131,26,1,
,,,,,,,,,,,,,FF,,,,,,,,0.95,,,,,,,,,,,,,,,,,,,,,,60fd8720d6da91884d85d305,610377e293523e7a465e5308,2021-07-29_23h56.07.865,Simcolourproject_2stim_asymm_v5,2020.2.10,MacIntel,60,61025ae37ef11b136ea224fe,,,,,,,,,4089,60,18,1,0,0,response1disk,,6,2,2,1,0,0,rectangle,2,2,1,0,0,,,,,,,2,2,1,0,0,,0,132,132,58,1,
,,,,,,,,,,,,,FF,,,,,,,,1.132,,,,,,,,,,,,,,,,,,,,,,60fd8720d6da91884d85d305,610377e293523e7a465e5308,2021-07-29_23h56.07.865,Simcolourproject_2stim_asymm_v5,2020.2.10,MacIntel,60,61025ae37ef11b136ea224fe,,,,,,,,,2169,55,-32,1,0,0,response3disk,,5,5,-5,1,0,0,rectangle,5,-5,1,0,0,,,,,,,5,-5,1,0,0,,0,133,133,157,1,
,,,,,,,,,,,,,FF,,,,,,,,0.899,,,,,,,,,,,,,,,,,,,,,,60fd8720d6da91884d85d305,610377e293523e7a465e5308,2021-07-29_23h56.07.865,Simcolourproject_2stim_asymm_v5,2020.2.10,MacIntel,60,61025ae37ef11b136ea224fe,,,,,,,,,1684,30,-56,1,0,0,response3disk,,4,-3,-3,1,0,0,rectangle,-3,-3,1,0,0,,,,,,,-3,-3,1,0,0,,0,134,134,35,1,
,,,,,,,,,,,,,FF,,,,,,,,1.716,,,,,,,,,,,,,,,,,,,,,,60fd8720d6da91884d85d305,610377e293523e7a465e5308,2021-07-29_23h56.07.865,Simcolourproject_2stim_asymm_v5,2020.2.10,MacIntel,60,61025ae37ef11b136ea224fe,,,,,,,,,3942,-44,-61,1,0,0,response5disk,,3,-14,5,1,0,0,rectangle,-14,5,1,0,0,,,,,,,-14,5,1,0,0,,0,135,135,120,1,
,,,,,,,,,,,,,FF,,,,,,,,0.9,,,,,,,,,,,,,,,,,,,,,,60fd8720d6da91884d85d305,610377e293523e7a465e5308,2021-07-29_23h56.07.865,Simcolourproject_2stim_asymm_v5,2020.2.10,MacIntel,60,61025ae37ef11b136ea224fe,,,,,,,,,573,69,33,1,0,0,response1disk,,6,23,14,1,0,0,rectangle,23,14,1,0,0,,,,,,,23,14,1,0,0,,0,136,136,146,1,
,,,,,,,,,,,,,FF,,,,,,,,1.6,,,,,,,,,,,,,,,,,,,,,,60fd8720d6da91884d85d305,610377e293523e7a465e5308,2021-07-29_23h56.07.865,Simcolourproject_2stim_asymm_v5,2020.2.10,MacIntel,60,61025ae37ef11b136ea224fe,,,,,,,,,161,86,38,1,0,0,response1disk,,6,24,7,1,0,0,rectangle,24,7,1,0,0,,,,,,,24,7,1,0,0,,0,137,137,21,1,
,,,,,,,,,,,,,FF,,,,,,,,1.35,,,,,,,,,,,,,,,,,,,,,,60fd8720d6da91884d85d305,610377e293523e7a465e5308,2021-07-29_23h56.07.865,Simcolourproject_2stim_asymm_v5,2020.2.10,MacIntel,60,61025ae37ef11b136ea224fe,,,,,,,,,1036,29,-71,1,0,0,response3disk,,4,-2,5,1,0,0,rectangle,-2,5,1,0,0,,,,,,,-2,5,1,0,0,,0,138,138,111,1,
,,,,,,,,,,,,,FF,,,,,,,,1.383,,,,,,,,,,,,,,,,,,,,,,60fd8720d6da91884d85d305,610377e293523e7a465e5308,2021-07-29_23h56.07.865,Simcolourproject_2stim_asymm_v5,2020.2.10,MacIntel,60,61025ae37ef11b136ea224fe,,,,,,,,,3836,21,-75,1,0,0,response3disk,,4,10,-14,1,0,0,rectangle,10,-14,1,0,0,,,,,,,10,-14,1,0,0,,0,139,139,158,1,
,,,,,,,,,,,,,FF,,,,,,,,0.799,,,,,,,,,,,,,,,,,,,,,,60fd8720d6da91884d85d305,610377e293523e7a465e5308,2021-07-29_23h56.07.865,Simcolourproject_2stim_asymm_v5,2020.2.10,MacIntel,60,61025ae37ef11b136ea224fe,,,,,,,,,3777,25,-63,1,0,0,response3disk,,4,10,-7,1,0,0,rectangle,10,-7,1,0,0,,,,,,,10,-7,1,0,0,,0,140,140,86,1,
,,,,,,,,,,,,,FF,,,,,,,,2.9,,,,,,,,,,,,,,,,,,,,,,60fd8720d6da91884d85d305,610377e293523e7a465e5308,2021-07-29_23h56.07.865,Simcolourproject_2stim_asymm_v5,2020.2.10,MacIntel,60,61025ae37ef11b136ea224fe,,,,,,,,,4000,-20,-89,1,0,0,response5disk,,3,-7,-6,1,0,0,rectangle,-7,-6,1,0,0,,,,,,,-7,-6,1,0,0,,0,141,141,114,1,
,,,,,,,,,,,,,FF,,,,,,,,1.333,,,,,,,,,,,,,,,,,,,,,,60fd8720d6da91884d85d305,610377e293523e7a465e5308,2021-07-29_23h56.07.865,Simcolourproject_2stim_asymm_v5,2020.2.10,MacIntel,60,61025ae37ef11b136ea224fe,,,,,,,,,2079,78,-29,1,0,0,response3disk,,5,3,2,1,0,0,rectangle,3,2,1,0,0,,,,,,,3,2,1,0,0,,0,142,142,113,1,
,,,,,,,,,,,,,FF,,,,,,,,0.883,,,,,,,,,,,,,,,,,,,,,,60fd8720d6da91884d85d305,610377e293523e7a465e5308,2021-07-29_23h56.07.865,Simcolourproject_2stim_asymm_v5,2020.2.10,MacIntel,60,61025ae37ef11b136ea224fe,,,,,,,,,4120,-37,-84,1,0,0,response5disk,,3,-19,-5,1,0,0,rectangle,-19,-5,1,0,0,,,,,,,-19,-5,1,0,0,,0,143,143,25,1,
,,,,,,,,,,,,,FF,,,,,,,,1.45,,,,,,,,,,,,,,,,,,,,,,60fd8720d6da91884d85d305,610377e293523e7a465e5308,2021-07-29_23h56.07.865,Simcolourproject_2stim_asymm_v5,2020.2.10,MacIntel,60,61025ae37ef11b136ea224fe,,,,,,,,,1352,62,-37,1,0,0,response3disk,,5,16,12,1,0,0,rectangle,16,12,1,0,0,,,,,,,16,12,1,0,0,,0,144,144,119,1,
,,,,,,,,,,,,,FF,,,,,,,,2.166,,,,,,,,,,,,,,,,,,,,,,60fd8720d6da91884d85d305,610377e293523e7a465e5308,2021-07-29_23h56.07.865,Simcolourproject_2stim_asymm_v5,2020.2.10,MacIntel,60,61025ae37ef11b136ea224fe,,,,,,,,,1996,41,74,1,0,0,response1disk,,7,-5,14,1,0,0,rectangle,-5,14,1,0,0,,,,,,,-5,14,1,0,0,,0,145,145,56,1,
,,,,,,,,,,,,,FF,,,,,,,,0.783,,,,,,,,,,,,,,,,,,,,,,60fd8720d6da91884d85d305,610377e293523e7a465e5308,2021-07-29_23h56.07.865,Simcolourproject_2stim_asymm_v5,2020.2.10,MacIntel,60,61025ae37ef11b136ea224fe,,,,,,,,,41,24,56,1,0,0,response1disk,,7,5,14,1,0,0,rectangle,5,14,1,0,0,,,,,,,5,14,1,0,0,,0,146,146,101,1,
,,,,,,,,,,,,,FF,,,,,,,,0.767,,,,,,,,,,,,,,,,,,,,,,60fd8720d6da91884d85d305,610377e293523e7a465e5308,2021-07-29_23h56.07.865,Simcolourproject_2stim_asymm_v5,2020.2.10,MacIntel,60,61025ae37ef11b136ea224fe,,,,,,,,,3219,48,71,1,0,0,response1disk,,7,14,7,1,0,0,rectangle,14,7,1,0,0,,,,,,,14,7,1,0,0,,0,147,147,71,1,
,,,,,,,,,,,,,FF,,,,,,,,1.418,,,,,,,,,,,,,,,,,,,,,,60fd8720d6da91884d85d305,610377e293523e7a465e5308,2021-07-29_23h56.07.865,Simcolourproject_2stim_asymm_v5,2020.2.10,MacIntel,60,61025ae37ef11b136ea224fe,,,,,,,,,4270,79,-34,1,0,0,response3disk,,5,16,3,1,0,0,rectangle,-79,-45,1,0,0,response5disk_3,TRUE,2,2,"[274,108,97,117,232,120,208,300,117,260,213,175,9,149,280,12,14,189,317,1]",2,-8,-1,1,0,0,rectangle,0,148,148,27,1,
,,,,,,,,,,,,,FF,,,,,,,,1.417,,,,,,,,,,,,,,,,,,,,,,60fd8720d6da91884d85d305,610377e293523e7a465e5308,2021-07-29_23h56.07.865,Simcolourproject_2stim_asymm_v5,2020.2.10,MacIntel,60,61025ae37ef11b136ea224fe,,,,,,,,,1942,35,-71,1,0,0,response3disk,,4,16,-8,1,0,0,rectangle,16,-8,1,0,0,,,,,,,16,-8,1,0,0,,0,149,149,142,1,
,,,,,,,,,,,,,FF,,,,,,,,1.617,,,,,,,,,,,,,,,,,,,,,,60fd8720d6da91884d85d305,610377e293523e7a465e5308,2021-07-29_23h56.07.865,Simcolourproject_2stim_asymm_v5,2020.2.10,MacIntel,60,61025ae37ef11b136ea224fe,,,,,,,,,3401,50,-41,1,0,0,response3disk,,5,17,-9,1,0,0,rectangle,17,-9,1,0,0,,,,,,,17,-9,1,0,0,,0,150,150,70,1,
,,,,,,,,,,,,,FF,,,,,,,,0.982,,,,,,,,,,,,,,,,,,,,,,60fd8720d6da91884d85d305,610377e293523e7a465e5308,2021-07-29_23h56.07.865,Simcolourproject_2stim_asymm_v5,2020.2.10,MacIntel,60,61025ae37ef11b136ea224fe,,,,,,,,,4370,-49,34,1,0,0,response7disk,,1,-23,-9,1,0,0,rectangle,-23,-9,1,0,0,,,,,,,-23,-9,1,0,0,,0,151,151,34,1,
,,,,,,,,,,,,,FF,,,,,,,,2.05,,,,,,,,,,,,,,,,,,,,,,60fd8720d6da91884d85d305,610377e293523e7a465e5308,2021-07-29_23h56.07.865,Simcolourproject_2stim_asymm_v5,2020.2.10,MacIntel,60,61025ae37ef11b136ea224fe,,,,,,,,,2513,33,80,1,0,0,response1disk,,7,7,10,1,0,0,rectangle,7,10,1,0,0,,,,,,,7,10,1,0,0,,0,152,152,41,1,
,,,,,,,,,,,,,FF,,,,,,,,3.251,,,,,,,,,,,,,,,,,,,,,,60fd8720d6da91884d85d305,610377e293523e7a465e5308,2021-07-29_23h56.07.865,Simcolourproject_2stim_asymm_v5,2020.2.10,MacIntel,60,61025ae37ef11b136ea224fe,,,,,,,,,1268,89,43,1,0,0,response1disk,,6,11,10,1,0,0,rectangle,11,10,1,0,0,,,,,,,11,10,1,0,0,,0,153,153,103,1,
,,,,,,,,,,,,,FF,,,,,,,,1.6,,,,,,,,,,,,,,,,,,,,,,60fd8720d6da91884d85d305,610377e293523e7a465e5308,2021-07-29_23h56.07.865,Simcolourproject_2stim_asymm_v5,2020.2.10,MacIntel,60,61025ae37ef11b136ea224fe,,,,,,,,,4352,34,-82,1,0,0,response3disk,,4,-20,11,1,0,0,rectangle,-20,11,1,0,0,,,,,,,-20,11,1,0,0,,0,154,154,40,1,
,,,,,,,,,,,,,FF,,,,,,,,1.717,,,,,,,,,,,,,,,,,,,,,,60fd8720d6da91884d85d305,610377e293523e7a465e5308,2021-07-29_23h56.07.865,Simcolourproject_2stim_asymm_v5,2020.2.10,MacIntel,60,61025ae37ef11b136ea224fe,,,,,,,,,2796,89,44,1,0,0,response1disk,,6,26,8,1,0,0,rectangle,26,8,1,0,0,,,,,,,26,8,1,0,0,,0,155,155,6,1,
,,,,,,,,,,,,,FF,,,,,,,,0.683,,,,,,,,,,,,,,,,,,,,,,60fd8720d6da91884d85d305,610377e293523e7a465e5308,2021-07-29_23h56.07.865,Simcolourproject_2stim_asymm_v5,2020.2.10,MacIntel,60,61025ae37ef11b136ea224fe,,,,,,,,,2189,38,71,1,0,0,response1disk,,7,15,15,1,0,0,rectangle,15,15,1,0,0,,,,,,,15,15,1,0,0,,0,156,156,79,1,
,,,,,,,,,,,,,FF,,,,,,,,0.817,,,,,,,,,,,,,,,,,,,,,,60fd8720d6da91884d85d305,610377e293523e7a465e5308,2021-07-29_23h56.07.865,Simcolourproject_2stim_asymm_v5,2020.2.10,MacIntel,60,61025ae37ef11b136ea224fe,,,,,,,,,2274,41,80,1,0,0,response1disk,,7,1,-8,1,0,0,rectangle,1,-8,1,0,0,,,,,,,1,-8,1,0,0,,0,157,157,107,1,
,,,,,,,,,,,,,FF,,,,,,,,0.766,,,,,,,,,,,,,,,,,,,,,,60fd8720d6da91884d85d305,610377e293523e7a465e5308,2021-07-29_23h56.07.865,Simcolourproject_2stim_asymm_v5,2020.2.10,MacIntel,60,61025ae37ef11b136ea224fe,,,,,,,,,2082,60,22,1,0,0,response1disk,,6,9,4,1,0,0,rectangle,9,4,1,0,0,,,,,,,9,4,1,0,0,,0,158,158,72,1,
,,,,,,,,,,,,,FF,,,,,,,,0.899,,,,,,,,,,,,,,,,,,,,,,60fd8720d6da91884d85d305,610377e293523e7a465e5308,2021-07-29_23h56.07.865,Simcolourproject_2stim_asymm_v5,2020.2.10,MacIntel,60,61025ae37ef11b136ea224fe,,,,,,,,,459,57,-44,1,0,0,response3disk,,5,-4,1,1,0,0,rectangle,-4,1,1,0,0,,,,,,,-4,1,1,0,0,,0,159,159,19,1,
,,,,,,,,,,,,,FF,,,,,,,,1.966,,,,,,,,,,,,,,,,,,,,,,60fd8720d6da91884d85d305,610377e293523e7a465e5308,2021-07-29_23h56.07.865,Simcolourproject_2stim_asymm_v5,2020.2.10,MacIntel,60,61025ae37ef11b136ea224fe,,,,,,,,,3820,25,42,1,0,0,response1disk,,7,-15,5,1,0,0,rectangle,-15,5,1,0,0,,,,,,,-15,5,1,0,0,,1,0,160,19,1,
,,,,,,,,,,,,,FF,,,,,,,,3.35,,,,,,,,,,,,,,,,,,,,,,60fd8720d6da91884d85d305,610377e293523e7a465e5308,2021-07-29_23h56.07.865,Simcolourproject_2stim_asymm_v5,2020.2.10,MacIntel,60,61025ae37ef11b136ea224fe,,,,,,,,,743,62,40,1,0,0,response1disk,,6,21,14,1,0,0,rectangle,21,14,1,0,0,,,,,,,21,14,1,0,0,,1,1,161,86,1,
,,,,,,,,,,,,,FF,,,,,,,,0.966,,,,,,,,,,,,,,,,,,,,,,60fd8720d6da91884d85d305,610377e293523e7a465e5308,2021-07-29_23h56.07.865,Simcolourproject_2stim_asymm_v5,2020.2.10,MacIntel,60,61025ae37ef11b136ea224fe,,,,,,,,,4215,69,35,1,0,0,response1disk,,6,18,7,1,0,0,rectangle,18,7,1,0,0,,,,,,,18,7,1,0,0,,1,2,162,150,1,
,,,,,,,,,,,,,FF,,,,,,,,1.116,,,,,,,,,,,,,,,,,,,,,,60fd8720d6da91884d85d305,610377e293523e7a465e5308,2021-07-29_23h56.07.865,Simcolourproject_2stim_asymm_v5,2020.2.10,MacIntel,60,61025ae37ef11b136ea224fe,,,,,,,,,1814,69,35,1,0,0,response1disk,,6,21,9,1,0,0,rectangle,21,9,1,0,0,,,,,,,21,9,1,0,0,,1,3,163,147,1,
,,,,,,,,,,,,,FF,,,,,,,,2.184,,,,,,,,,,,,,,,,,,,,,,60fd8720d6da91884d85d305,610377e293523e7a465e5308,2021-07-29_23h56.07.865,Simcolourproject_2stim_asymm_v5,2020.2.10,MacIntel,60,61025ae37ef11b136ea224fe,,,,,,,,,1311,69,45,1,0,0,response1disk,,6,16,6,1,0,0,rectangle,16,6,1,0,0,,,,,,,16,6,1,0,0,,1,4,164,35,1,
,,,,,,,,,,,,,FF,,,,,,,,1.266,,,,,,,,,,,,,,,,,,,,,,60fd8720d6da91884d85d305,610377e293523e7a465e5308,2021-07-29_23h56.07.865,Simcolourproject_2stim_asymm_v5,2020.2.10,MacIntel,60,61025ae37ef11b136ea224fe,,,,,,,,,3706,-62,-30,1,0,0,response5disk,,2,-18,-5,1,0,0,rectangle,-18,-5,1,0,0,,,,,,,-18,-5,1,0,0,,1,5,165,110,1,
,,,,,,,,,,,,,FF,,,,,,,,1.233,,,,,,,,,,,,,,,,,,,,,,60fd8720d6da91884d85d305,610377e293523e7a465e5308,2021-07-29_23h56.07.865,Simcolourproject_2stim_asymm_v5,2020.2.10,MacIntel,60,61025ae37ef11b136ea224fe,,,,,,,,,87,41,61,1,0,0,response1disk,,7,7,4,1,0,0,rectangle,7,4,1,0,0,,,,,,,7,4,1,0,0,,1,6,166,39,1,
,,,,,,,,,,,,,FF,,,,,,,,0.717,,,,,,,,,,,,,,,,,,,,,,60fd8720d6da91884d85d305,610377e293523e7a465e5308,2021-07-29_23h56.07.865,Simcolourproject_2stim_asymm_v5,2020.2.10,MacIntel,60,61025ae37ef11b136ea224fe,,,,,,,,,2738,31,64,1,0,0,response1disk,,7,3,7,1,0,0,rectangle,3,7,1,0,0,,,,,,,3,7,1,0,0,,1,7,167,57,1,
,,,,,,,,,,,,,FF,,,,,,,,2.582,,,,,,,,,,,,,,,,,,,,,,60fd8720d6da91884d85d305,610377e293523e7a465e5308,2021-07-29_23h56.07.865,Simcolourproject_2stim_asymm_v5,2020.2.10,MacIntel,60,61025ae37ef11b136ea224fe,,,,,,,,,4338,-55,-71,1,0,0,response5disk,,3,4,6,1,0,0,rectangle,4,6,1,0,0,,,,,,,4,6,1,0,0,,1,8,168,32,1,
,,,,,,,,,,,,,FF,,,,,,,,0.735,,,,,,,,,,,,,,,,,,,,,,60fd8720d6da91884d85d305,610377e293523e7a465e5308,2021-07-29_23h56.07.865,Simcolourproject_2stim_asymm_v5,2020.2.10,MacIntel,60,61025ae37ef11b136ea224fe,,,,,,,,,1259,54,61,1,0,0,response1disk,,7,17,6,1,0,0,rectangle,17,6,1,0,0,,,,,,,17,6,1,0,0,,1,9,169,67,1,
,,,,,,,,,,,,,FF,,,,,,,,1.249,,,,,,,,,,,,,,,,,,,,,,60fd8720d6da91884d85d305,610377e293523e7a465e5308,2021-07-29_23h56.07.865,Simcolourproject_2stim_asymm_v5,2020.2.10,MacIntel,60,61025ae37ef11b136ea224fe,,,,,,,,,1731,26,-66,1,0,0,response3disk,,4,10,-14,1,0,0,rectangle,10,-14,1,0,0,,,,,,,10,-14,1,0,0,,1,10,170,54,1,
,,,,,,,,,,,,,FF,,,,,,,,2.482,,,,,,,,,,,,,,,,,,,,,,60fd8720d6da91884d85d305,610377e293523e7a465e5308,2021-07-29_23h56.07.865,Simcolourproject_2stim_asymm_v5,2020.2.10,MacIntel,60,61025ae37ef11b136ea224fe,,,,,,,,,15,69,38,1,0,0,response1disk,,6,-11,3,1,0,0,rectangle,-11,3,1,0,0,,,,,,,-11,3,1,0,0,,1,11,171,135,1,
,,,,,,,,,,,,,FF,,,,,,,,3.783,,,,,,,,,,,,,,,,,,,,,,60fd8720d6da91884d85d305,610377e293523e7a465e5308,2021-07-29_23h56.07.865,Simcolourproject_2stim_asymm_v5,2020.2.10,MacIntel,60,61025ae37ef11b136ea224fe,,,,,,,,,2408,31,50,1,0,0,response1disk,,7,-3,3,1,0,0,rectangle,-3,3,1,0,0,,,,,,,-3,3,1,0,0,,1,12,172,113,1,
,,,,,,,,,,,,,FF,,,,,,,,1.134,,,,,,,,,,,,,,,,,,,,,,60fd8720d6da91884d85d305,610377e293523e7a465e5308,2021-07-29_23h56.07.865,Simcolourproject_2stim_asymm_v5,2020.2.10,MacIntel,60,61025ae37ef11b136ea224fe,,,,,,,,,4362,-52,32,1,0,0,response7disk,,1,-12,4,1,0,0,rectangle,-12,4,1,0,0,,,,,,,-12,4,1,0,0,,1,13,173,92,1,
,,,,,,,,,,,,,FF,,,,,,,,1.334,,,,,,,,,,,,,,,,,,,,,,60fd8720d6da91884d85d305,610377e293523e7a465e5308,2021-07-29_23h56.07.865,Simcolourproject_2stim_asymm_v5,2020.2.10,MacIntel,60,61025ae37ef11b136ea224fe,,,,,,,,,1831,-40,-57,1,0,0,response5disk,,3,-17,-4,1,0,0,rectangle,75,-28,1,0,0,response3disk_3,TRUE,5,5,"[274,108,97,117,232,120,208,300,117,260,213,175,9,149,280,12,14,189,317,1]",2.283,15,9,1,0,0,rectangle,1,14,174,96,1,
,,,,,,,,,,,,,FF,,,,,,,,1.05,,,,,,,,,,,,,,,,,,,,,,60fd8720d6da91884d85d305,610377e293523e7a465e5308,2021-07-29_23h56.07.865,Simcolourproject_2stim_asymm_v5,2020.2.10,MacIntel,60,61025ae37ef11b136ea224fe,,,,,,,,,1165,42,63,1,0,0,response1disk,,7,3,8,1,0,0,rectangle,3,8,1,0,0,,,,,,,3,8,1,0,0,,1,15,175,71,1,
,,,,,,,,,,,,,FF,,,,,,,,1.449,,,,,,,,,,,,,,,,,,,,,,60fd8720d6da91884d85d305,610377e293523e7a465e5308,2021-07-29_23h56.07.865,Simcolourproject_2stim_asymm_v5,2020.2.10,MacIntel,60,61025ae37ef11b136ea224fe,,,,,,,,,1515,67,36,1,0,0,response1disk,,6,20,9,1,0,0,rectangle,20,9,1,0,0,,,,,,,20,9,1,0,0,,1,16,176,159,1,
,,,,,,,,,,,,,FF,,,,,,,,0.716,,,,,,,,,,,,,,,,,,,,,,60fd8720d6da91884d85d305,610377e293523e7a465e5308,2021-07-29_23h56.07.865,Simcolourproject_2stim_asymm_v5,2020.2.10,MacIntel,60,61025ae37ef11b136ea224fe,,,,,,,,,756,43,76,1,0,0,response1disk,,7,2,13,1,0,0,rectangle,2,13,1,0,0,,,,,,,2,13,1,0,0,,1,17,177,106,1,
,,,,,,,,,,,,,FF,,,,,,,,0.8,,,,,,,,,,,,,,,,,,,,,,60fd8720d6da91884d85d305,610377e293523e7a465e5308,2021-07-29_23h56.07.865,Simcolourproject_2stim_asymm_v5,2020.2.10,MacIntel,60,61025ae37ef11b136ea224fe,,,,,,,,,604,66,34,1,0,0,response1disk,,6,4,-2,1,0,0,rectangle,4,-2,1,0,0,,,,,,,4,-2,1,0,0,,1,18,178,50,1,
,,,,,,,,,,,,,FF,,,,,,,,0.984,,,,,,,,,,,,,,,,,,,,,,60fd8720d6da91884d85d305,610377e293523e7a465e5308,2021-07-29_23h56.07.865,Simcolourproject_2stim_asymm_v5,2020.2.10,MacIntel,60,61025ae37ef11b136ea224fe,,,,,,,,,1020,63,38,1,0,0,response1disk,,6,15,7,1,0,0,rectangle,15,7,1,0,0,,,,,,,15,7,1,0,0,,1,19,179,91,1,
,,,,,,,,,,,,,FF,,,,,,,,1.282,,,,,,,,,,,,,,,,,,,,,,60fd8720d6da91884d85d305,610377e293523e7a465e5308,2021-07-29_23h56.07.865,Simcolourproject_2stim_asymm_v5,2020.2.10,MacIntel,60,61025ae37ef11b136ea224fe,,,,,,,,,1790,38,65,1,0,0,response1disk,,7,-1,12,1,0,0,rectangle,-1,12,1,0,0,,,,,,,-1,12,1,0,0,,1,20,180,7,1,
,,,,,,,,,,,,,FF,,,,,,,,2.116,,,,,,,,,,,,,,,,,,,,,,60fd8720d6da91884d85d305,610377e293523e7a465e5308,2021-07-29_23h56.07.865,Simcolourproject_2stim_asymm_v5,2020.2.10,MacIntel,60,61025ae37ef11b136ea224fe,,,,,,,,,215,38,61,1,0,0,response1disk,,7,3,11,1,0,0,rectangle,3,11,1,0,0,,,,,,,3,11,1,0,0,,1,21,181,80,1,
,,,,,,,,,,,,,FF,,,,,,,,0.666,,,,,,,,,,,,,,,,,,,,,,60fd8720d6da91884d85d305,610377e293523e7a465e5308,2021-07-29_23h56.07.865,Simcolourproject_2stim_asymm_v5,2020.2.10,MacIntel,60,61025ae37ef11b136ea224fe,,,,,,,,,3036,27,58,1,0,0,response1disk,,7,6,9,1,0,0,rectangle,6,9,1,0,0,,,,,,,6,9,1,0,0,,1,22,182,122,1,
,,,,,,,,,,,,,FF,,,,,,,,1.75,,,,,,,,,,,,,,,,,,,,,,60fd8720d6da91884d85d305,610377e293523e7a465e5308,2021-07-29_23h56.07.865,Simcolourproject_2stim_asymm_v5,2020.2.10,MacIntel,60,61025ae37ef11b136ea224fe,,,,,,,,,309,38,75,1,0,0,response1disk,,7,5,5,1,0,0,rectangle,5,5,1,0,0,,,,,,,5,5,1,0,0,,1,23,183,138,1,
,,,,,,,,,,,,,FF,,,,,,,,1.6,,,,,,,,,,,,,,,,,,,,,,60fd8720d6da91884d85d305,610377e293523e7a465e5308,2021-07-29_23h56.07.865,Simcolourproject_2stim_asymm_v5,2020.2.10,MacIntel,60,61025ae37ef11b136ea224fe,,,,,,,,,113,59,75,1,0,0,response1disk,,7,16,12,1,0,0,rectangle,16,12,1,0,0,,,,,,,16,12,1,0,0,,1,24,184,112,1,
,,,,,,,,,,,,,FF,,,,,,,,0.6,,,,,,,,,,,,,,,,,,,,,,60fd8720d6da91884d85d305,610377e293523e7a465e5308,2021-07-29_23h56.07.865,Simcolourproject_2stim_asymm_v5,2020.2.10,MacIntel,60,61025ae37ef11b136ea224fe,,,,,,,,,1641,45,70,1,0,0,response1disk,,7,-6,-6,1,0,0,rectangle,-6,-6,1,0,0,,,,,,,-6,-6,1,0,0,,1,25,185,123,1,
,,,,,,,,,,,,,FF,,,,,,,,0.616,,,,,,,,,,,,,,,,,,,,,,60fd8720d6da91884d85d305,610377e293523e7a465e5308,2021-07-29_23h56.07.865,Simcolourproject_2stim_asymm_v5,2020.2.10,MacIntel,60,61025ae37ef11b136ea224fe,,,,,,,,,2013,62,34,1,0,0,response1disk,,6,15,-1,1,0,0,rectangle,15,-1,1,0,0,,,,,,,15,-1,1,0,0,,1,26,186,59,1,
,,,,,,,,,,,,,FF,,,,,,,,1.532,,,,,,,,,,,,,,,,,,,,,,60fd8720d6da91884d85d305,610377e293523e7a465e5308,2021-07-29_23h56.07.865,Simcolourproject_2stim_asymm_v5,2020.2.10,MacIntel,60,61025ae37ef11b136ea224fe,,,,,,,,,350,19,-82,1,0,0,response3disk,,4,6,-12,1,0,0,rectangle,6,-12,1,0,0,,,,,,,6,-12,1,0,0,,1,27,187,115,1,
,,,,,,,,,,,,,FF,,,,,,,,0.933,,,,,,,,,,,,,,,,,,,,,,60fd8720d6da91884d85d305,610377e293523e7a465e5308,2021-07-29_23h56.07.865,Simcolourproject_2stim_asymm_v5,2020.2.10,MacIntel,60,61025ae37ef11b136ea224fe,,,,,,,,,1860,85,54,1,0,0,response1disk,,6,27,12,1,0,0,rectangle,77,-18,1,0,0,response3disk_3,TRUE,5,5,"[274,108,97,117,232,120,208,300,117,260,213,175,9,149,280,12,14,189,317,1]",1.933,22,0,1,0,0,rectangle,1,28,188,66,1,
,,,,,,,,,,,,,FF,,,,,,,,1.35,,,,,,,,,,,,,,,,,,,,,,60fd8720d6da91884d85d305,610377e293523e7a465e5308,2021-07-29_23h56.07.865,Simcolourproject_2stim_asymm_v5,2020.2.10,MacIntel,60,61025ae37ef11b136ea224fe,,,,,,,,,815,42,-98,1,0,0,response3disk,,4,-12,2,1,0,0,rectangle,-12,2,1,0,0,,,,,,,-12,2,1,0,0,,1,29,189,21,1,
,,,,,,,,,,,,,FF,,,,,,,,2.982,,,,,,,,,,,,,,,,,,,,,,60fd8720d6da91884d85d305,610377e293523e7a465e5308,2021-07-29_23h56.07.865,Simcolourproject_2stim_asymm_v5,2020.2.10,MacIntel,60,61025ae37ef11b136ea224fe,,,,,,,,,796,68,31,1,0,0,response1disk,,6,15,4,1,0,0,rectangle,15,4,1,0,0,,,,,,,15,4,1,0,0,,1,30,190,140,1,
,,,,,,,,,,,,,FF,,,,,,,,0.633,,,,,,,,,,,,,,,,,,,,,,60fd8720d6da91884d85d305,610377e293523e7a465e5308,2021-07-29_23h56.07.865,Simcolourproject_2stim_asymm_v5,2020.2.10,MacIntel,60,61025ae37ef11b136ea224fe,,,,,,,,,4037,29,55,1,0,0,response1disk,,7,2,3,1,0,0,rectangle,2,3,1,0,0,,,,,,,2,3,1,0,0,,1,31,191,17,1,
,,,,,,,,,,,,,FF,,,,,,,,1.383,,,,,,,,,,,,,,,,,,,,,,60fd8720d6da91884d85d305,610377e293523e7a465e5308,2021-07-29_23h56.07.865,Simcolourproject_2stim_asymm_v5,2020.2.10,MacIntel,60,61025ae37ef11b136ea224fe,,,,,,,,,2273,44,56,1,0,0,response1disk,,7,12,11,1,0,0,rectangle,12,11,1,0,0,,,,,,,12,11,1,0,0,,1,32,192,107,1,
,,,,,,,,,,,,,FF,,,,,,,,1.099,,,,,,,,,,,,,,,,,,,,,,60fd8720d6da91884d85d305,610377e293523e7a465e5308,2021-07-29_23h56.07.865,Simcolourproject_2stim_asymm_v5,2020.2.10,MacIntel,60,61025ae37ef11b136ea224fe,,,,,,,,,950,36,57,1,0,0,response1disk,,7,11,9,1,0,0,rectangle,11,9,1,0,0,,,,,,,11,9,1,0,0,,1,33,193,64,1,
,,,,,,,,,,,,,FF,,,,,,,,1.299,,,,,,,,,,,,,,,,,,,,,,60fd8720d6da91884d85d305,610377e293523e7a465e5308,2021-07-29_23h56.07.865,Simcolourproject_2stim_asymm_v5,2020.2.10,MacIntel,60,61025ae37ef11b136ea224fe,,,,,,,,,2823,45,-47,1,0,0,response3disk,,4,31,5,1,0,0,rectangle,31,5,1,0,0,,,,,,,31,5,1,0,0,,1,34,194,52,1,
,,,,,,,,,,,,,FF,,,,,,,,1.585,,,,,,,,,,,,,,,,,,,,,,60fd8720d6da91884d85d305,610377e293523e7a465e5308,2021-07-29_23h56.07.865,Simcolourproject_2stim_asymm_v5,2020.2.10,MacIntel,60,61025ae37ef11b136ea224fe,,,,,,,,,2559,71,46,1,0,0,response1disk,,6,3,7,1,0,0,rectangle,3,7,1,0,0,,,,,,,3,7,1,0,0,,1,35,195,60,1,
,,,,,,,,,,,,,FF,,,,,,,,1.266,,,,,,,,,,,,,,,,,,,,,,60fd8720d6da91884d85d305,610377e293523e7a465e5308,2021-07-29_23h56.07.865,Simcolourproject_2stim_asymm_v5,2020.2.10,MacIntel,60,61025ae37ef11b136ea224fe,,,,,,,,,549,77,-54,1,0,0,response3disk,,5,13,7,1,0,0,rectangle,13,7,1,0,0,,,,,,,13,7,1,0,0,,1,36,196,41,1,
,,,,,,,,,,,,,FF,,,,,,,,0.817,,,,,,,,,,,,,,,,,,,,,,60fd8720d6da91884d85d305,610377e293523e7a465e5308,2021-07-29_23h56.07.865,Simcolourproject_2stim_asymm_v5,2020.2.10,MacIntel,60,61025ae37ef11b136ea224fe,,,,,,,,,2904,29,69,1,0,0,response1disk,,7,-4,-1,1,0,0,rectangle,-4,-1,1,0,0,,,,,,,-4,-1,1,0,0,,1,37,197,14,1,
,,,,,,,,,,,,,FF,,,,,,,,0.583,,,,,,,,,,,,,,,,,,,,,,60fd8720d6da91884d85d305,610377e293523e7a465e5308,2021-07-29_23h56.07.865,Simcolourproject_2stim_asymm_v5,2020.2.10,MacIntel,60,61025ae37ef11b136ea224fe,,,,,,,,,4198,38,60,1,0,0,response1disk,,7,15,5,1,0,0,rectangle,15,5,1,0,0,,,,,,,15,5,1,0,0,,1,38,198,104,1,
,,,,,,,,,,,,,FF,,,,,,,,0.95,,,,,,,,,,,,,,,,,,,,,,60fd8720d6da91884d85d305,610377e293523e7a465e5308,2021-07-29_23h56.07.865,Simcolourproject_2stim_asymm_v5,2020.2.10,MacIntel,60,61025ae37ef11b136ea224fe,,,,,,,,,585,81,40,1,0,0,response1disk,,6,23,16,1,0,0,rectangle,23,16,1,0,0,,,,,,,23,16,1,0,0,,1,39,199,6,1,
,,,,,,,,,,,,,FF,,,,,,,,1.015,,,,,,,,,,,,,,,,,,,,,,60fd8720d6da91884d85d305,610377e293523e7a465e5308,2021-07-29_23h56.07.865,Simcolourproject_2stim_asymm_v5,2020.2.10,MacIntel,60,61025ae37ef11b136ea224fe,,,,,,,,,3159,41,80,1,0,0,response1disk,,7,21,3,1,0,0,rectangle,21,3,1,0,0,,,,,,,21,3,1,0,0,,1,40,200,139,1,
,,,,,,,,,,,,,FF,,,,,,,,1.566,,,,,,,,,,,,,,,,,,,,,,60fd8720d6da91884d85d305,610377e293523e7a465e5308,2021-07-29_23h56.07.865,Simcolourproject_2stim_asymm_v5,2020.2.10,MacIntel,60,61025ae37ef11b136ea224fe,,,,,,,,,557,-33,-75,1,0,0,response5disk,,3,-24,1,1,0,0,rectangle,-24,1,1,0,0,,,,,,,-24,1,1,0,0,,1,41,201,77,1,
,,,,,,,,,,,,,FF,,,,,,,,1.5,,,,,,,,,,,,,,,,,,,,,,60fd8720d6da91884d85d305,610377e293523e7a465e5308,2021-07-29_23h56.07.865,Simcolourproject_2stim_asymm_v5,2020.2.10,MacIntel,60,61025ae37ef11b136ea224fe,,,,,,,,,1162,66,24,1,0,0,response1disk,,6,17,5,1,0,0,rectangle,17,5,1,0,0,,,,,,,17,5,1,0,0,,1,42,202,84,1,
,,,,,,,,,,,,,FF,,,,,,,,1.115,,,,,,,,,,,,,,,,,,,,,,60fd8720d6da91884d85d305,610377e293523e7a465e5308,2021-07-29_23h56.07.865,Simcolourproject_2stim_asymm_v5,2020.2.10,MacIntel,60,61025ae37ef11b136ea224fe,,,,,,,,,171,-68,-35,1,0,0,response5disk,,2,0,-15,1,0,0,rectangle,0,-15,1,0,0,,,,,,,0,-15,1,0,0,,1,43,203,56,1,
,,,,,,,,,,,,,FF,,,,,,,,1.015,,,,,,,,,,,,,,,,,,,,,,60fd8720d6da91884d85d305,610377e293523e7a465e5308,2021-07-29_23h56.07.865,Simcolourproject_2stim_asymm_v5,2020.2.10,MacIntel,60,61025ae37ef11b136ea224fe,,,,,,,,,1832,26,-73,1,0,0,response3disk,,4,12,5,1,0,0,rectangle,12,5,1,0,0,,,,,,,12,5,1,0,0,,1,44,204,102,1,
,,,,,,,,,,,,,FF,,,,,,,,3.48,,,,,,,,,,,,,,,,,,,,,,60fd8720d6da91884d85d305,610377e293523e7a465e5308,2021-07-29_23h56.07.865,Simcolourproject_2stim_asymm_v5,2020.2.10,MacIntel,60,61025ae37ef11b136ea224fe,,,,,,,,,1447,-81,32,1,0,0,response7disk,,1,-14,-12,1,0,0,rectangle,-14,-12,1,0,0,,,,,,,-14,-12,1,0,0,,1,45,205,70,1,
,,,,,,,,,,,,,FF,,,,,,,,1.065,,,,,,,,,,,,,,,,,,,,,,60fd8720d6da91884d85d305,610377e293523e7a465e5308,2021-07-29_23h56.07.865,Simcolourproject_2stim_asymm_v5,2020.2.10,MacIntel,60,61025ae37ef11b136ea224fe,,,,,,,,,3662,-36,-88,1,0,0,response5disk,,3,4,-5,1,0,0,rectangle,4,-5,1,0,0,,,,,,,4,-5,1,0,0,,1,46,206,101,1,
,,,,,,,,,,,,,FF,,,,,,,,2.517,,,,,,,,,,,,,,,,,,,,,,60fd8720d6da91884d85d305,610377e293523e7a465e5308,2021-07-29_23h56.07.865,Simcolourproject_2stim_asymm_v5,2020.2.10,MacIntel,60,61025ae37ef11b136ea224fe,,,,,,,,,3483,82,-46,1,0,0,response3disk,,5,30,0,1,0,0,rectangle,72,35,1,0,0,response1disk_3,TRUE,6,6,"[274,108,97,117,232,120,208,300,117,260,213,175,9,149,280,12,14,189,317,1]",1.217,18,0,1,0,0,rectangle,1,47,207,36,1,
,,,,,,,,,,,,,FF,,,,,,,,1.1,,,,,,,,,,,,,,,,,,,,,,60fd8720d6da91884d85d305,610377e293523e7a465e5308,2021-07-29_23h56.07.865,Simcolourproject_2stim_asymm_v5,2020.2.10,MacIntel,60,61025ae37ef11b136ea224fe,,,,,,,,,1106,32,73,1,0,0,response1disk,,7,-13,14,1,0,0,rectangle,-13,14,1,0,0,,,,,,,-13,14,1,0,0,,1,48,208,117,1,
,,,,,,,,,,,,,FF,,,,,,,,0.917,,,,,,,,,,,,,,,,,,,,,,60fd8720d6da91884d85d305,610377e293523e7a465e5308,2021-07-29_23h56.07.865,Simcolourproject_2stim_asymm_v5,2020.2.10,MacIntel,60,61025ae37ef11b136ea224fe,,,,,,,,,4152,33,61,1,0,0,response1disk,,7,3,8,1,0,0,rectangle,3,8,1,0,0,,,,,,,3,8,1,0,0,,1,49,209,79,1,
,,,,,,,,,,,,,FF,,,,,,,,0.849,,,,,,,,,,,,,,,,,,,,,,60fd8720d6da91884d85d305,610377e293523e7a465e5308,2021-07-29_23h56.07.865,Simcolourproject_2stim_asymm_v5,2020.2.10,MacIntel,60,61025ae37ef11b136ea224fe,,,,,,,,,1409,88,32,1,0,0,response1disk,,6,13,6,1,0,0,rectangle,13,6,1,0,0,,,,,,,13,6,1,0,0,,1,50,210,125,1,
,,,,,,,,,,,,,FF,,,,,,,,1.465,,,,,,,,,,,,,,,,,,,,,,60fd8720d6da91884d85d305,610377e293523e7a465e5308,2021-07-29_23h56.07.865,Simcolourproject_2stim_asymm_v5,2020.2.10,MacIntel,60,61025ae37ef11b136ea224fe,,,,,,,,,1665,74,32,1,0,0,response1disk,,6,1,9,1,0,0,rectangle,1,9,1,0,0,,,,,,,1,9,1,0,0,,1,51,211,76,1,
,,,,,,,,,,,,,FF,,,,,,,,0.649,,,,,,,,,,,,,,,,,,,,,,60fd8720d6da91884d85d305,610377e293523e7a465e5308,2021-07-29_23h56.07.865,Simcolourproject_2stim_asymm_v5,2020.2.10,MacIntel,60,61025ae37ef11b136ea224fe,,,,,,,,,3639,40,57,1,0,0,response1disk,,7,4,7,1,0,0,rectangle,-32,85,1,0,0,response7disk_3,TRUE,0,0,"[274,108,97,117,232,120,208,300,117,260,213,175,9,149,280,12,14,189,317,1]",1.418,-19,6,1,0,0,rectangle,1,52,212,48,1,
,,,,,,,,,,,,,FF,,,,,,,,2.15,,,,,,,,,,,,,,,,,,,,,,60fd8720d6da91884d85d305,610377e293523e7a465e5308,2021-07-29_23h56.07.865,Simcolourproject_2stim_asymm_v5,2020.2.10,MacIntel,60,61025ae37ef11b136ea224fe,,,,,,,,,3294,-46,-88,1,0,0,response5disk,,3,4,-8,1,0,0,rectangle,4,-8,1,0,0,,,,,,,4,-8,1,0,0,,1,53,213,134,1,
,,,,,,,,,,,,,FF,,,,,,,,2.484,,,,,,,,,,,,,,,,,,,,,,60fd8720d6da91884d85d305,610377e293523e7a465e5308,2021-07-29_23h56.07.865,Simcolourproject_2stim_asymm_v5,2020.2.10,MacIntel,60,61025ae37ef11b136ea224fe,,,,,,,,,1079,67,-24,1,0,0,response3disk,,5,12,2,1,0,0,rectangle,12,2,1,0,0,,,,,,,12,2,1,0,0,,1,54,214,149,1,
,,,,,,,,,,,,,FF,,,,,,,,1.517,,,,,,,,,,,,,,,,,,,,,,60fd8720d6da91884d85d305,610377e293523e7a465e5308,2021-07-29_23h56.07.865,Simcolourproject_2stim_asymm_v5,2020.2.10,MacIntel,60,61025ae37ef11b136ea224fe,,,,,,,,,2841,79,31,1,0,0,response1disk,,6,25,5,1,0,0,rectangle,25,5,1,0,0,,,,,,,25,5,1,0,0,,1,55,215,42,1,
,,,,,,,,,,,,,FF,,,,,,,,0.683,,,,,,,,,,,,,,,,,,,,,,60fd8720d6da91884d85d305,610377e293523e7a465e5308,2021-07-29_23h56.07.865,Simcolourproject_2stim_asymm_v5,2020.2.10,MacIntel,60,61025ae37ef11b136ea224fe,,,,,,,,,3137,35,67,1,0,0,response1disk,,7,-2,4,1,0,0,rectangle,-2,4,1,0,0,,,,,,,-2,4,1,0,0,,1,56,216,127,1,
,,,,,,,,,,,,,FF,,,,,,,,2.366,,,,,,,,,,,,,,,,,,,,,,60fd8720d6da91884d85d305,610377e293523e7a465e5308,2021-07-29_23h56.07.865,Simcolourproject_2stim_asymm_v5,2020.2.10,MacIntel,60,61025ae37ef11b136ea224fe,,,,,,,,,4168,-40,-84,1,0,0,response5disk,,3,-29,-3,1,0,0,rectangle,-29,-3,1,0,0,,,,,,,-29,-3,1,0,0,,1,57,217,141,1,
,,,,,,,,,,,,,FF,,,,,,,,1.05,,,,,,,,,,,,,,,,,,,,,,60fd8720d6da91884d85d305,610377e293523e7a465e5308,2021-07-29_23h56.07.865,Simcolourproject_2stim_asymm_v5,2020.2.10,MacIntel,60,61025ae37ef11b136ea224fe,,,,,,,,,312,69,36,1,0,0,response1disk,,6,20,7,1,0,0,rectangle,20,7,1,0,0,,,,,,,20,7,1,0,0,,1,58,218,146,1,
,,,,,,,,,,,,,FF,,,,,,,,0.583,,,,,,,,,,,,,,,,,,,,,,60fd8720d6da91884d85d305,610377e293523e7a465e5308,2021-07-29_23h56.07.865,Simcolourproject_2stim_asymm_v5,2020.2.10,MacIntel,60,61025ae37ef11b136ea224fe,,,,,,,,,3730,48,77,1,0,0,response1disk,,7,8,16,1,0,0,rectangle,8,16,1,0,0,,,,,,,8,16,1,0,0,,1,59,219,5,1,
,,,,,,,,,,,,,FF,,,,,,,,1.467,,,,,,,,,,,,,,,,,,,,,,60fd8720d6da91884d85d305,610377e293523e7a465e5308,2021-07-29_23h56.07.865,Simcolourproject_2stim_asymm_v5,2020.2.10,MacIntel,60,61025ae37ef11b136ea224fe,,,,,,,,,1799,44,75,1,0,0,response1disk,,7,-8,11,1,0,0,rectangle,-8,11,1,0,0,,,,,,,-8,11,1,0,0,,1,60,220,58,1,
,,,,,,,,,,,,,FF,,,,,,,,1.084,,,,,,,,,,,,,,,,,,,,,,60fd8720d6da91884d85d305,610377e293523e7a465e5308,2021-07-29_23h56.07.865,Simcolourproject_2stim_asymm_v5,2020.2.10,MacIntel,60,61025ae37ef11b136ea224fe,,,,,,,,,2683,39,64,1,0,0,response1disk,,7,-7,10,1,0,0,rectangle,-7,10,1,0,0,,,,,,,-7,10,1,0,0,,1,61,221,155,1,
,,,,,,,,,,,,,FF,,,,,,,,1.416,,,,,,,,,,,,,,,,,,,,,,60fd8720d6da91884d85d305,610377e293523e7a465e5308,2021-07-29_23h56.07.865,Simcolourproject_2stim_asymm_v5,2020.2.10,MacIntel,60,61025ae37ef11b136ea224fe,,,,,,,,,3814,29,-67,1,0,0,response3disk,,4,2,0,1,0,0,rectangle,2,0,1,0,0,,,,,,,2,0,1,0,0,,1,62,222,34,1,
,,,,,,,,,,,,,FF,,,,,,,,2.099,,,,,,,,,,,,,,,,,,,,,,60fd8720d6da91884d85d305,610377e293523e7a465e5308,2021-07-29_23h56.07.865,Simcolourproject_2stim_asymm_v5,2020.2.10,MacIntel,60,61025ae37ef11b136ea224fe,,,,,,,,,1116,36,61,1,0,0,response1disk,,7,1,10,1,0,0,rectangle,1,10,1,0,0,,,,,,,1,10,1,0,0,,1,63,223,148,1,
,,,,,,,,,,,,,FF,,,,,,,,0.767,,,,,,,,,,,,,,,,,,,,,,60fd8720d6da91884d85d305,610377e293523e7a465e5308,2021-07-29_23h56.07.865,Simcolourproject_2stim_asymm_v5,2020.2.10,MacIntel,60,61025ae37ef11b136ea224fe,,,,,,,,,2920,46,78,1,0,0,response1disk,,7,-19,3,1,0,0,rectangle,-19,3,1,0,0,,,,,,,-19,3,1,0,0,,1,64,224,12,1,
,,,,,,,,,,,,,FF,,,,,,,,0.966,,,,,,,,,,,,,,,,,,,,,,60fd8720d6da91884d85d305,610377e293523e7a465e5308,2021-07-29_23h56.07.865,Simcolourproject_2stim_asymm_v5,2020.2.10,MacIntel,60,61025ae37ef11b136ea224fe,,,,,,,,,2385,39,71,1,0,0,response1disk,,7,7,-9,1,0,0,rectangle,7,-9,1,0,0,,,,,,,7,-9,1,0,0,,1,65,225,72,1,
,,,,,,,,,,,,,FF,,,,,,,,1.1,,,,,,,,,,,,,,,,,,,,,,60fd8720d6da91884d85d305,610377e293523e7a465e5308,2021-07-29_23h56.07.865,Simcolourproject_2stim_asymm_v5,2020.2.10,MacIntel,60,61025ae37ef11b136ea224fe,,,,,,,,,3514,39,-83,1,0,0,response3disk,,4,6,-4,1,0,0,rectangle,6,-4,1,0,0,,,,,,,6,-4,1,0,0,,1,66,226,153,1,
,,,,,,,,,,,,,FF,,,,,,,,1.549,,,,,,,,,,,,,,,,,,,,,,60fd8720d6da91884d85d305,610377e293523e7a465e5308,2021-07-29_23h56.07.865,Simcolourproject_2stim_asymm_v5,2020.2.10,MacIntel,60,61025ae37ef11b136ea224fe,,,,,,,,,2025,-71,30,1,0,0,response7disk,,1,-14,8,1,0,0,rectangle,-14,8,1,0,0,,,,,,,-14,8,1,0,0,,1,67,227,3,1,
,,,,,,,,,,,,,FF,,,,,,,,1.383,,,,,,,,,,,,,,,,,,,,,,60fd8720d6da91884d85d305,610377e293523e7a465e5308,2021-07-29_23h56.07.865,Simcolourproject_2stim_asymm_v5,2020.2.10,MacIntel,60,61025ae37ef11b136ea224fe,,,,,,,,,3163,77,-48,1,0,0,response3disk,,5,12,-14,1,0,0,rectangle,12,-14,1,0,0,,,,,,,12,-14,1,0,0,,1,68,228,103,1,
,,,,,,,,,,,,,FF,,,,,,,,0.617,,,,,,,,,,,,,,,,,,,,,,60fd8720d6da91884d85d305,610377e293523e7a465e5308,2021-07-29_23h56.07.865,Simcolourproject_2stim_asymm_v5,2020.2.10,MacIntel,60,61025ae37ef11b136ea224fe,,,,,,,,,3325,27,63,1,0,0,response1disk,,7,14,3,1,0,0,rectangle,14,3,1,0,0,,,,,,,14,3,1,0,0,,1,69,229,1,1,
,,,,,,,,,,,,,FF,,,,,,,,0.749,,,,,,,,,,,,,,,,,,,,,,60fd8720d6da91884d85d305,610377e293523e7a465e5308,2021-07-29_23h56.07.865,Simcolourproject_2stim_asymm_v5,2020.2.10,MacIntel,60,61025ae37ef11b136ea224fe,,,,,,,,,1737,67,20,1,0,0,response1disk,,6,19,-5,1,0,0,rectangle,19,-5,1,0,0,,,,,,,19,-5,1,0,0,,1,70,230,22,1,
,,,,,,,,,,,,,FF,,,,,,,,0.951,,,,,,,,,,,,,,,,,,,,,,60fd8720d6da91884d85d305,610377e293523e7a465e5308,2021-07-29_23h56.07.865,Simcolourproject_2stim_asymm_v5,2020.2.10,MacIntel,60,61025ae37ef11b136ea224fe,,,,,,,,,1598,70,-60,1,0,0,response3disk,,5,32,-16,1,0,0,rectangle,40,-98,1,0,0,response3disk_3,TRUE,4,4,"[274,108,97,117,232,120,208,300,117,260,213,175,9,149,280,12,14,189,317,1]",1.699,14,2,1,0,0,rectangle,1,71,231,116,1,
,,,,,,,,,,,,,FF,,,,,,,,0.95,,,,,,,,,,,,,,,,,,,,,,60fd8720d6da91884d85d305,610377e293523e7a465e5308,2021-07-29_23h56.07.865,Simcolourproject_2stim_asymm_v5,2020.2.10,MacIntel,60,61025ae37ef11b136ea224fe,,,,,,,,,2419,-48,-82,1,0,0,response5disk,,3,-22,3,1,0,0,rectangle,-22,3,1,0,0,,,,,,,-22,3,1,0,0,,1,72,232,37,1,
,,,,,,,,,,,,,FF,,,,,,,,1.666,,,,,,,,,,,,,,,,,,,,,,60fd8720d6da91884d85d305,610377e293523e7a465e5308,2021-07-29_23h56.07.865,Simcolourproject_2stim_asymm_v5,2020.2.10,MacIntel,60,61025ae37ef11b136ea224fe,,,,,,,,,2902,37,-76,1,0,0,response3disk,,4,13,-2,1,0,0,rectangle,13,-2,1,0,0,,,,,,,13,-2,1,0,0,,1,73,233,43,1,
,,,,,,,,,,,,,FF,,,,,,,,1.098,,,,,,,,,,,,,,,,,,,,,,60fd8720d6da91884d85d305,610377e293523e7a465e5308,2021-07-29_23h56.07.865,Simcolourproject_2stim_asymm_v5,2020.2.10,MacIntel,60,61025ae37ef11b136ea224fe,,,,,,,,,2051,79,19,1,0,0,response1disk,,6,27,2,1,0,0,rectangle,27,2,1,0,0,,,,,,,27,2,1,0,0,,1,74,234,130,1,
,,,,,,,,,,,,,FF,,,,,,,,0.75,,,,,,,,,,,,,,,,,,,,,,60fd8720d6da91884d85d305,610377e293523e7a465e5308,2021-07-29_23h56.07.865,Simcolourproject_2stim_asymm_v5,2020.2.10,MacIntel,60,61025ae37ef11b136ea224fe,,,,,,,,,835,43,70,1,0,0,response1disk,,7,-5,7,1,0,0,rectangle,-5,7,1,0,0,,,,,,,-5,7,1,0,0,,1,75,235,124,1,
,,,,,,,,,,,,,FF,,,,,,,,2.183,,,,,,,,,,,,,,,,,,,,,,60fd8720d6da91884d85d305,610377e293523e7a465e5308,2021-07-29_23h56.07.865,Simcolourproject_2stim_asymm_v5,2020.2.10,MacIntel,60,61025ae37ef11b136ea224fe,,,,,,,,,720,-20,-76,1,0,0,response5disk,,3,19,-17,1,0,0,rectangle,19,-17,1,0,0,,,,,,,19,-17,1,0,0,,1,76,236,128,1,
,,,,,,,,,,,,,FF,,,,,,,,1.035,,,,,,,,,,,,,,,,,,,,,,60fd8720d6da91884d85d305,610377e293523e7a465e5308,2021-07-29_23h56.07.865,Simcolourproject_2stim_asymm_v5,2020.2.10,MacIntel,60,61025ae37ef11b136ea224fe,,,,,,,,,3878,61,-34,1,0,0,response3disk,,5,33,-4,1,0,0,rectangle,33,-4,1,0,0,,,,,,,33,-4,1,0,0,,1,77,237,137,1,
,,,,,,,,,,,,,FF,,,,,,,,0.682,,,,,,,,,,,,,,,,,,,,,,60fd8720d6da91884d85d305,610377e293523e7a465e5308,2021-07-29_23h56.07.865,Simcolourproject_2stim_asymm_v5,2020.2.10,MacIntel,60,61025ae37ef11b136ea224fe,,,,,,,,,3724,47,67,1,0,0,response1disk,,7,18,2,1,0,0,rectangle,18,2,1,0,0,,,,,,,18,2,1,0,0,,1,78,238,23,1,
,,,,,,,,,,,,,FF,,,,,,,,0.767,,,,,,,,,,,,,,,,,,,,,,60fd8720d6da91884d85d305,610377e293523e7a465e5308,2021-07-29_23h56.07.865,Simcolourproject_2stim_asymm_v5,2020.2.10,MacIntel,60,61025ae37ef11b136ea224fe,,,,,,,,,1638,41,73,1,0,0,response1disk,,7,8,9,1,0,0,rectangle,8,9,1,0,0,,,,,,,8,9,1,0,0,,1,79,239,158,1,
,,,,,,,,,,,,,FF,,,,,,,,0.832,,,,,,,,,,,,,,,,,,,,,,60fd8720d6da91884d85d305,610377e293523e7a465e5308,2021-07-29_23h56.07.865,Simcolourproject_2stim_asymm_v5,2020.2.10,MacIntel,60,61025ae37ef11b136ea224fe,,,,,,,,,2909,65,26,1,0,0,response1disk,,6,8,5,1,0,0,rectangle,8,5,1,0,0,,,,,,,8,5,1,0,0,,1,80,240,89,1,
,,,,,,,,,,,,,FF,,,,,,,,1.599,,,,,,,,,,,,,,,,,,,,,,60fd8720d6da91884d85d305,610377e293523e7a465e5308,2021-07-29_23h56.07.865,Simcolourproject_2stim_asymm_v5,2020.2.10,MacIntel,60,61025ae37ef11b136ea224fe,,,,,,,,,3810,-61,42,1,0,0,response7disk,,1,-13,-18,1,0,0,rectangle,-13,-18,1,0,0,,,,,,,-13,-18,1,0,0,,1,81,241,143,1,
,,,,,,,,,,,,,FF,,,,,,,,1.849,,,,,,,,,,,,,,,,,,,,,,60fd8720d6da91884d85d305,610377e293523e7a465e5308,2021-07-29_23h56.07.865,Simcolourproject_2stim_asymm_v5,2020.2.10,MacIntel,60,61025ae37ef11b136ea224fe,,,,,,,,,1616,39,-84,1,0,0,response3disk,,4,13,6,1,0,0,rectangle,13,6,1,0,0,,,,,,,13,6,1,0,0,,1,82,242,27,1,
,,,,,,,,,,,,,FF,,,,,,,,1.433,,,,,,,,,,,,,,,,,,,,,,60fd8720d6da91884d85d305,610377e293523e7a465e5308,2021-07-29_23h56.07.865,Simcolourproject_2stim_asymm_v5,2020.2.10,MacIntel,60,61025ae37ef11b136ea224fe,,,,,,,,,2816,35,69,1,0,0,response1disk,,7,7,15,1,0,0,rectangle,7,15,1,0,0,,,,,,,7,15,1,0,0,,1,83,243,25,1,
,,,,,,,,,,,,,FF,,,,,,,,0.682,,,,,,,,,,,,,,,,,,,,,,60fd8720d6da91884d85d305,610377e293523e7a465e5308,2021-07-29_23h56.07.865,Simcolourproject_2stim_asymm_v5,2020.2.10,MacIntel,60,61025ae37ef11b136ea224fe,,,,,,,,,3590,16,59,1,0,0,response1disk,,7,9,10,1,0,0,rectangle,9,10,1,0,0,,,,,,,9,10,1,0,0,,1,84,244,73,1,
,,,,,,,,,,,,,FF,,,,,,,,0.783,,,,,,,,,,,,,,,,,,,,,,60fd8720d6da91884d85d305,610377e293523e7a465e5308,2021-07-29_23h56.07.865,Simcolourproject_2stim_asymm_v5,2020.2.10,MacIntel,60,61025ae37ef11b136ea224fe,,,,,,,,,1733,80,30,1,0,0,response1disk,,6,20,1,1,0,0,rectangle,20,1,1,0,0,,,,,,,20,1,1,0,0,,1,85,245,133,1,
,,,,,,,,,,,,,FF,,,,,,,,0.883,,,,,,,,,,,,,,,,,,,,,,60fd8720d6da91884d85d305,610377e293523e7a465e5308,2021-07-29_23h56.07.865,Simcolourproject_2stim_asymm_v5,2020.2.10,MacIntel,60,61025ae37ef11b136ea224fe,,,,,,,,,667,48,74,1,0,0,response1disk,,7,1,4,1,0,0,rectangle,1,4,1,0,0,,,,,,,1,4,1,0,0,,1,86,246,4,1,
,,,,,,,,,,,,,FF,,,,,,,,0.6,,,,,,,,,,,,,,,,,,,,,,60fd8720d6da91884d85d305,610377e293523e7a465e5308,2021-07-29_23h56.07.865,Simcolourproject_2stim_asymm_v5,2020.2.10,MacIntel,60,61025ae37ef11b136ea224fe,,,,,,,,,2444,31,96,1,0,0,response1disk,,7,-2,17,1,0,0,rectangle,-2,17,1,0,0,,,,,,,-2,17,1,0,0,,1,87,247,88,1,
,,,,,,,,,,,,,FF,,,,,,,,1.05,,,,,,,,,,,,,,,,,,,,,,60fd8720d6da91884d85d305,610377e293523e7a465e5308,2021-07-29_23h56.07.865,Simcolourproject_2stim_asymm_v5,2020.2.10,MacIntel,60,61025ae37ef11b136ea224fe,,,,,,,,,510,52,68,1,0,0,response1disk,,7,13,16,1,0,0,rectangle,13,16,1,0,0,,,,,,,13,16,1,0,0,,1,88,248,131,1,
,,,,,,,,,,,,,FF,,,,,,,,0.849,,,,,,,,,,,,,,,,,,,,,,60fd8720d6da91884d85d305,610377e293523e7a465e5308,2021-07-29_23h56.07.865,Simcolourproject_2stim_asymm_v5,2020.2.10,MacIntel,60,61025ae37ef11b136ea224fe,,,,,,,,,1595,82,46,1,0,0,response1disk,,6,18,3,1,0,0,rectangle,18,3,1,0,0,,,,,,,18,3,1,0,0,,1,89,249,69,1,
,,,,,,,,,,,,,FF,,,,,,,,0.832,,,,,,,,,,,,,,,,,,,,,,60fd8720d6da91884d85d305,610377e293523e7a465e5308,2021-07-29_23h56.07.865,Simcolourproject_2stim_asymm_v5,2020.2.10,MacIntel,60,61025ae37ef11b136ea224fe,,,,,,,,,343,67,-39,1,0,0,response3disk,,5,29,-7,1,0,0,rectangle,29,-7,1,0,0,,,,,,,29,-7,1,0,0,,1,90,250,126,1,
,,,,,,,,,,,,,FF,,,,,,,,0.816,,,,,,,,,,,,,,,,,,,,,,60fd8720d6da91884d85d305,610377e293523e7a465e5308,2021-07-29_23h56.07.865,Simcolourproject_2stim_asymm_v5,2020.2.10,MacIntel,60,61025ae37ef11b136ea224fe,,,,,,,,,483,46,72,1,0,0,response1disk,,7,10,14,1,0,0,rectangle,10,14,1,0,0,,,,,,,10,14,1,0,0,,1,91,251,62,1,
,,,,,,,,,,,,,FF,,,,,,,,2.517,,,,,,,,,,,,,,,,,,,,,,60fd8720d6da91884d85d305,610377e293523e7a465e5308,2021-07-29_23h56.07.865,Simcolourproject_2stim_asymm_v5,2020.2.10,MacIntel,60,61025ae37ef11b136ea224fe,,,,,,,,,3475,-62,-78,1,0,0,response5disk,,3,-4,13,1,0,0,rectangle,-4,13,1,0,0,,,,,,,-4,13,1,0,0,,1,92,252,99,1,
,,,,,,,,,,,,,FF,,,,,,,,1.216,,,,,,,,,,,,,,,,,,,,,,60fd8720d6da91884d85d305,610377e293523e7a465e5308,2021-07-29_23h56.07.865,Simcolourproject_2stim_asymm_v5,2020.2.10,MacIntel,60,61025ae37ef11b136ea224fe,,,,,,,,,1719,21,-82,1,0,0,response3disk,,4,7,0,1,0,0,rectangle,7,0,1,0,0,,,,,,,7,0,1,0,0,,1,93,253,55,1,
,,,,,,,,,,,,,FF,,,,,,,,1.034,,,,,,,,,,,,,,,,,,,,,,60fd8720d6da91884d85d305,610377e293523e7a465e5308,2021-07-29_23h56.07.865,Simcolourproject_2stim_asymm_v5,2020.2.10,MacIntel,60,61025ae37ef11b136ea224fe,,,,,,,,,3031,51,70,1,0,0,response1disk,,7,13,10,1,0,0,rectangle,13,10,1,0,0,,,,,,,13,10,1,0,0,,1,94,254,13,1,
,,,,,,,,,,,,,FF,,,,,,,,0.615,,,,,,,,,,,,,,,,,,,,,,60fd8720d6da91884d85d305,610377e293523e7a465e5308,2021-07-29_23h56.07.865,Simcolourproject_2stim_asymm_v5,2020.2.10,MacIntel,60,61025ae37ef11b136ea224fe,,,,,,,,,2632,32,54,1,0,0,response1disk,,7,-2,3,1,0,0,rectangle,-2,3,1,0,0,,,,,,,-2,3,1,0,0,,1,95,255,38,1,
,,,,,,,,,,,,,FF,,,,,,,,0.965,,,,,,,,,,,,,,,,,,,,,,60fd8720d6da91884d85d305,610377e293523e7a465e5308,2021-07-29_23h56.07.865,Simcolourproject_2stim_asymm_v5,2020.2.10,MacIntel,60,61025ae37ef11b136ea224fe,,,,,,,,,969,-37,-52,1,0,0,response5disk,,3,-18,-4,1,0,0,rectangle,-18,-4,1,0,0,,,,,,,-18,-4,1,0,0,,1,96,256,33,1,
,,,,,,,,,,,,,FF,,,,,,,,0.949,,,,,,,,,,,,,,,,,,,,,,60fd8720d6da91884d85d305,610377e293523e7a465e5308,2021-07-29_23h56.07.865,Simcolourproject_2stim_asymm_v5,2020.2.10,MacIntel,60,61025ae37ef11b136ea224fe,,,,,,,,,631,-40,-66,1,0,0,response5disk,,3,-20,-7,1,0,0,rectangle,-20,-7,1,0,0,,,,,,,-20,-7,1,0,0,,1,97,257,119,1,
,,,,,,,,,,,,,FF,,,,,,,,2.249,,,,,,,,,,,,,,,,,,,,,,60fd8720d6da91884d85d305,610377e293523e7a465e5308,2021-07-29_23h56.07.865,Simcolourproject_2stim_asymm_v5,2020.2.10,MacIntel,60,61025ae37ef11b136ea224fe,,,,,,,,,4302,56,69,1,0,0,response1disk,,7,0,0,1,0,0,rectangle,0,0,1,0,0,,,,,,,0,0,1,0,0,,1,98,258,46,1,
,,,,,,,,,,,,,FF,,,,,,,,0.666,,,,,,,,,,,,,,,,,,,,,,60fd8720d6da91884d85d305,610377e293523e7a465e5308,2021-07-29_23h56.07.865,Simcolourproject_2stim_asymm_v5,2020.2.10,MacIntel,60,61025ae37ef11b136ea224fe,,,,,,,,,4289,35,60,1,0,0,response1disk,,7,-3,3,1,0,0,rectangle,35,-87,1,0,0,response3disk_3,TRUE,4,4,"[274,108,97,117,232,120,208,300,117,260,213,175,9,149,280,12,14,189,317,1]",1.433,7,-13,1,0,0,rectangle,1,99,259,16,1,
,,,,,,,,,,,,,FF,,,,,,,,1.516,,,,,,,,,,,,,,,,,,,,,,60fd8720d6da91884d85d305,610377e293523e7a465e5308,2021-07-29_23h56.07.865,Simcolourproject_2stim_asymm_v5,2020.2.10,MacIntel,60,61025ae37ef11b136ea224fe,,,,,,,,,3075,45,77,1,0,0,response1disk,,7,13,12,1,0,0,rectangle,13,12,1,0,0,,,,,,,13,12,1,0,0,,1,100,260,82,1,
,,,,,,,,,,,,,FF,,,,,,,,0.616,,,,,,,,,,,,,,,,,,,,,,60fd8720d6da91884d85d305,610377e293523e7a465e5308,2021-07-29_23h56.07.865,Simcolourproject_2stim_asymm_v5,2020.2.10,MacIntel,60,61025ae37ef11b136ea224fe,,,,,,,,,3361,37,60,1,0,0,response1disk,,7,3,12,1,0,0,rectangle,3,12,1,0,0,,,,,,,3,12,1,0,0,,1,101,261,78,1,
,,,,,,,,,,,,,FF,,,,,,,,0.617,,,,,,,,,,,,,,,,,,,,,,60fd8720d6da91884d85d305,610377e293523e7a465e5308,2021-07-29_23h56.07.865,Simcolourproject_2stim_asymm_v5,2020.2.10,MacIntel,60,61025ae37ef11b136ea224fe,,,,,,,,,3015,36,72,1,0,0,response1disk,,7,6,15,1,0,0,rectangle,6,15,1,0,0,,,,,,,6,15,1,0,0,,1,102,262,75,1,
,,,,,,,,,,,,,FF,,,,,,,,0.649,,,,,,,,,,,,,,,,,,,,,,60fd8720d6da91884d85d305,610377e293523e7a465e5308,2021-07-29_23h56.07.865,Simcolourproject_2stim_asymm_v5,2020.2.10,MacIntel,60,61025ae37ef11b136ea224fe,,,,,,,,,4094,46,68,1,0,0,response1disk,,7,12,9,1,0,0,rectangle,12,9,1,0,0,,,,,,,12,9,1,0,0,,1,103,263,68,1,
,,,,,,,,,,,,,FF,,,,,,,,0.515,,,,,,,,,,,,,,,,,,,,,,60fd8720d6da91884d85d305,610377e293523e7a465e5308,2021-07-29_23h56.07.865,Simcolourproject_2stim_asymm_v5,2020.2.10,MacIntel,60,61025ae37ef11b136ea224fe,,,,,,,,,2399,55,83,1,0,0,response1disk,,7,9,16,1,0,0,rectangle,9,16,1,0,0,,,,,,,9,16,1,0,0,,1,104,264,15,1,
,,,,,,,,,,,,,FF,,,,,,,,1.118,,,,,,,,,,,,,,,,,,,,,,60fd8720d6da91884d85d305,610377e293523e7a465e5308,2021-07-29_23h56.07.865,Simcolourproject_2stim_asymm_v5,2020.2.10,MacIntel,60,61025ae37ef11b136ea224fe,,,,,,,,,191,16,-79,1,0,0,response3disk,,4,21,6,1,0,0,rectangle,21,6,1,0,0,,,,,,,21,6,1,0,0,,1,105,265,18,1,
,,,,,,,,,,,,,FF,,,,,,,,1.116,,,,,,,,,,,,,,,,,,,,,,60fd8720d6da91884d85d305,610377e293523e7a465e5308,2021-07-29_23h56.07.865,Simcolourproject_2stim_asymm_v5,2020.2.10,MacIntel,60,61025ae37ef11b136ea224fe,,,,,,,,,390,47,80,1,0,0,response1disk,,7,-13,4,1,0,0,rectangle,-13,4,1,0,0,,,,,,,-13,4,1,0,0,,1,106,266,74,1,
,,,,,,,,,,,,,FF,,,,,,,,0.883,,,,,,,,,,,,,,,,,,,,,,60fd8720d6da91884d85d305,610377e293523e7a465e5308,2021-07-29_23h56.07.865,Simcolourproject_2stim_asymm_v5,2020.2.10,MacIntel,60,61025ae37ef11b136ea224fe,,,,,,,,,804,-44,-67,1,0,0,response5disk,,3,-5,2,1,0,0,rectangle,-5,2,1,0,0,,,,,,,-5,2,1,0,0,,1,107,267,30,1,
,,,,,,,,,,,,,FF,,,,,,,,1.467,,,,,,,,,,,,,,,,,,,,,,60fd8720d6da91884d85d305,610377e293523e7a465e5308,2021-07-29_23h56.07.865,Simcolourproject_2stim_asymm_v5,2020.2.10,MacIntel,60,61025ae37ef11b136ea224fe,,,,,,,,,3839,64,-34,1,0,0,response3disk,,5,23,11,1,0,0,rectangle,23,11,1,0,0,,,,,,,23,11,1,0,0,,1,108,268,118,1,
,,,,,,,,,,,,,FF,,,,,,,,0.916,,,,,,,,,,,,,,,,,,,,,,60fd8720d6da91884d85d305,610377e293523e7a465e5308,2021-07-29_23h56.07.865,Simcolourproject_2stim_asymm_v5,2020.2.10,MacIntel,60,61025ae37ef11b136ea224fe,,,,,,,,,3102,-38,-66,1,0,0,response5disk,,3,-3,-5,1,0,0,rectangle,-3,-5,1,0,0,,,,,,,-3,-5,1,0,0,,1,109,269,31,1,
,,,,,,,,,,,,,FF,,,,,,,,1.001,,,,,,,,,,,,,,,,,,,,,,60fd8720d6da91884d85d305,610377e293523e7a465e5308,2021-07-29_23h56.07.865,Simcolourproject_2stim_asymm_v5,2020.2.10,MacIntel,60,61025ae37ef11b136ea224fe,,,,,,,,,1393,44,76,1,0,0,response1disk,,7,8,8,1,0,0,rectangle,8,8,1,0,0,,,,,,,8,8,1,0,0,,1,110,270,9,1,
,,,,,,,,,,,,,FF,,,,,,,,1.566,,,,,,,,,,,,,,,,,,,,,,60fd8720d6da91884d85d305,610377e293523e7a465e5308,2021-07-29_23h56.07.865,Simcolourproject_2stim_asymm_v5,2020.2.10,MacIntel,60,61025ae37ef11b136ea224fe,,,,,,,,,1671,81,-32,1,0,0,response3disk,,5,17,14,1,0,0,rectangle,17,14,1,0,0,,,,,,,17,14,1,0,0,,1,111,271,10,1,
,,,,,,,,,,,,,FF,,,,,,,,1.134,,,,,,,,,,,,,,,,,,,,,,60fd8720d6da91884d85d305,610377e293523e7a465e5308,2021-07-29_23h56.07.865,Simcolourproject_2stim_asymm_v5,2020.2.10,MacIntel,60,61025ae37ef11b136ea224fe,,,,,,,,,2226,-29,68,1,0,0,response7disk,,0,-24,12,1,0,0,rectangle,-24,12,1,0,0,,,,,,,-24,12,1,0,0,,1,112,272,2,1,
,,,,,,,,,,,,,FF,,,,,,,,0.932,,,,,,,,,,,,,,,,,,,,,,60fd8720d6da91884d85d305,610377e293523e7a465e5308,2021-07-29_23h56.07.865,Simcolourproject_2stim_asymm_v5,2020.2.10,MacIntel,60,61025ae37ef11b136ea224fe,,,,,,,,,2372,46,78,1,0,0,response1disk,,7,3,6,1,0,0,rectangle,97,32,1,0,0,response1disk_3,TRUE,6,6,"[274,108,97,117,232,120,208,300,117,260,213,175,9,149,280,12,14,189,317,1]",1.666,15,-1,1,0,0,rectangle,1,113,273,45,1,
,,,,,,,,,,,,,FF,,,,,,,,1.35,,,,,,,,,,,,,,,,,,,,,,60fd8720d6da91884d85d305,610377e293523e7a465e5308,2021-07-29_23h56.07.865,Simcolourproject_2stim_asymm_v5,2020.2.10,MacIntel,60,61025ae37ef11b136ea224fe,,,,,,,,,1030,87,44,1,0,0,response1disk,,6,-10,0,1,0,0,rectangle,-10,0,1,0,0,,,,,,,-10,0,1,0,0,,1,114,274,108,1,
,,,,,,,,,,,,,FF,,,,,,,,0.567,,,,,,,,,,,,,,,,,,,,,,60fd8720d6da91884d85d305,610377e293523e7a465e5308,2021-07-29_23h56.07.865,Simcolourproject_2stim_asymm_v5,2020.2.10,MacIntel,60,61025ae37ef11b136ea224fe,,,,,,,,,3136,39,68,1,0,0,response1disk,,7,6,7,1,0,0,rectangle,6,7,1,0,0,,,,,,,6,7,1,0,0,,1,115,275,90,1,
,,,,,,,,,,,,,FF,,,,,,,,0.649,,,,,,,,,,,,,,,,,,,,,,60fd8720d6da91884d85d305,610377e293523e7a465e5308,2021-07-29_23h56.07.865,Simcolourproject_2stim_asymm_v5,2020.2.10,MacIntel,60,61025ae37ef11b136ea224fe,,,,,,,,,491,40,59,1,0,0,response1disk,,7,7,13,1,0,0,rectangle,7,13,1,0,0,,,,,,,7,13,1,0,0,,1,116,276,53,1,
,,,,,,,,,,,,,FF,,,,,,,,0.9,,,,,,,,,,,,,,,,,,,,,,60fd8720d6da91884d85d305,610377e293523e7a465e5308,2021-07-29_23h56.07.865,Simcolourproject_2stim_asymm_v5,2020.2.10,MacIntel,60,61025ae37ef11b136ea224fe,,,,,,,,,1957,-44,-72,1,0,0,response5disk,,3,-2,9,1,0,0,rectangle,-2,9,1,0,0,,,,,,,-2,9,1,0,0,,1,117,277,29,1,
,,,,,,,,,,,,,FF,,,,,,,,0.633,,,,,,,,,,,,,,,,,,,,,,60fd8720d6da91884d85d305,610377e293523e7a465e5308,2021-07-29_23h56.07.865,Simcolourproject_2stim_asymm_v5,2020.2.10,MacIntel,60,61025ae37ef11b136ea224fe,,,,,,,,,1729,54,95,1,0,0,response1disk,,7,12,2,1,0,0,rectangle,12,2,1,0,0,,,,,,,12,2,1,0,0,,1,118,278,81,1,
,,,,,,,,,,,,,FF,,,,,,,,1.167,,,,,,,,,,,,,,,,,,,,,,60fd8720d6da91884d85d305,610377e293523e7a465e5308,2021-07-29_23h56.07.865,Simcolourproject_2stim_asymm_v5,2020.2.10,MacIntel,60,61025ae37ef11b136ea224fe,,,,,,,,,2595,43,71,1,0,0,response1disk,,7,11,-13,1,0,0,rectangle,-86,36,1,0,0,response7disk_3,TRUE,1,1,"[274,108,97,117,232,120,208,300,117,260,213,175,9,149,280,12,14,189,317,1]",1.316,-13,1,1,0,0,rectangle,1,119,279,121,1,
,,,,,,,,,,,,,FF,,,,,,,,0.816,,,,,,,,,,,,,,,,,,,,,,60fd8720d6da91884d85d305,610377e293523e7a465e5308,2021-07-29_23h56.07.865,Simcolourproject_2stim_asymm_v5,2020.2.10,MacIntel,60,61025ae37ef11b136ea224fe,,,,,,,,,1008,41,67,1,0,0,response1disk,,7,-1,8,1,0,0,rectangle,-1,8,1,0,0,,,,,,,-1,8,1,0,0,,1,120,280,83,1,
,,,,,,,,,,,,,FF,,,,,,,,1.566,,,,,,,,,,,,,,,,,,,,,,60fd8720d6da91884d85d305,610377e293523e7a465e5308,2021-07-29_23h56.07.865,Simcolourproject_2stim_asymm_v5,2020.2.10,MacIntel,60,61025ae37ef11b136ea224fe,,,,,,,,,3046,-38,-79,1,0,0,response5disk,,3,-19,11,1,0,0,rectangle,-19,11,1,0,0,,,,,,,-19,11,1,0,0,,1,121,281,0,1,
,,,,,,,,,,,,,FF,,,,,,,,1.083,,,,,,,,,,,,,,,,,,,,,,60fd8720d6da91884d85d305,610377e293523e7a465e5308,2021-07-29_23h56.07.865,Simcolourproject_2stim_asymm_v5,2020.2.10,MacIntel,60,61025ae37ef11b136ea224fe,,,,,,,,,196,-37,-85,1,0,0,response5disk,,3,6,1,1,0,0,rectangle,6,1,1,0,0,,,,,,,6,1,1,0,0,,1,122,282,120,1,
,,,,,,,,,,,,,FF,,,,,,,,1.334,,,,,,,,,,,,,,,,,,,,,,60fd8720d6da91884d85d305,610377e293523e7a465e5308,2021-07-29_23h56.07.865,Simcolourproject_2stim_asymm_v5,2020.2.10,MacIntel,60,61025ae37ef11b136ea224fe,,,,,,,,,913,64,-34,1,0,0,response3disk,,5,19,2,1,0,0,rectangle,19,2,1,0,0,,,,,,,19,2,1,0,0,,1,123,283,61,1,
,,,,,,,,,,,,,FF,,,,,,,,0.732,,,,,,,,,,,,,,,,,,,,,,60fd8720d6da91884d85d305,610377e293523e7a465e5308,2021-07-29_23h56.07.865,Simcolourproject_2stim_asymm_v5,2020.2.10,MacIntel,60,61025ae37ef11b136ea224fe,,,,,,,,,941,33,70,1,0,0,response1disk,,7,3,-2,1,0,0,rectangle,3,-2,1,0,0,,,,,,,3,-2,1,0,0,,1,124,284,47,1,
,,,,,,,,,,,,,FF,,,,,,,,2.365,,,,,,,,,,,,,,,,,,,,,,60fd8720d6da91884d85d305,610377e293523e7a465e5308,2021-07-29_23h56.07.865,Simcolourproject_2stim_asymm_v5,2020.2.10,MacIntel,60,61025ae37ef11b136ea224fe,,,,,,,,,2031,-43,-77,1,0,0,response5disk,,3,-5,6,1,0,0,rectangle,-5,6,1,0,0,,,,,,,-5,6,1,0,0,,1,125,285,44,1,
,,,,,,,,,,,,,FF,,,,,,,,1.782,,,,,,,,,,,,,,,,,,,,,,60fd8720d6da91884d85d305,610377e293523e7a465e5308,2021-07-29_23h56.07.865,Simcolourproject_2stim_asymm_v5,2020.2.10,MacIntel,60,61025ae37ef11b136ea224fe,,,,,,,,,2568,68,47,1,0,0,response1disk,,6,-15,1,1,0,0,rectangle,-15,1,1,0,0,,,,,,,-15,1,1,0,0,,1,126,286,20,1,
,,,,,,,,,,,,,FF,,,,,,,,0.949,,,,,,,,,,,,,,,,,,,,,,60fd8720d6da91884d85d305,610377e293523e7a465e5308,2021-07-29_23h56.07.865,Simcolourproject_2stim_asymm_v5,2020.2.10,MacIntel,60,61025ae37ef11b136ea224fe,,,,,,,,,4329,72,55,1,0,0,response1disk,,6,-7,17,1,0,0,rectangle,-7,17,1,0,0,,,,,,,-7,17,1,0,0,,1,127,287,142,1,
,,,,,,,,,,,,,FF,,,,,,,,2.7,,,,,,,,,,,,,,,,,,,,,,60fd8720d6da91884d85d305,610377e293523e7a465e5308,2021-07-29_23h56.07.865,Simcolourproject_2stim_asymm_v5,2020.2.10,MacIntel,60,61025ae37ef11b136ea224fe,,,,,,,,,3336,-40,65,1,0,0,response7disk,,0,-25,3,1,0,0,rectangle,-25,3,1,0,0,,,,,,,-25,3,1,0,0,,1,128,288,94,1,
,,,,,,,,,,,,,FF,,,,,,,,1.549,,,,,,,,,,,,,,,,,,,,,,60fd8720d6da91884d85d305,610377e293523e7a465e5308,2021-07-29_23h56.07.865,Simcolourproject_2stim_asymm_v5,2020.2.10,MacIntel,60,61025ae37ef11b136ea224fe,,,,,,,,,615,44,-81,1,0,0,response3disk,,4,6,6,1,0,0,rectangle,6,6,1,0,0,,,,,,,6,6,1,0,0,,1,129,289,154,1,
,,,,,,,,,,,,,FF,,,,,,,,1.717,,,,,,,,,,,,,,,,,,,,,,60fd8720d6da91884d85d305,610377e293523e7a465e5308,2021-07-29_23h56.07.865,Simcolourproject_2stim_asymm_v5,2020.2.10,MacIntel,60,61025ae37ef11b136ea224fe,,,,,,,,,1592,76,-31,1,0,0,response3disk,,5,16,-5,1,0,0,rectangle,16,-5,1,0,0,,,,,,,16,-5,1,0,0,,1,130,290,40,1,
,,,,,,,,,,,,,FF,,,,,,,,1.032,,,,,,,,,,,,,,,,,,,,,,60fd8720d6da91884d85d305,610377e293523e7a465e5308,2021-07-29_23h56.07.865,Simcolourproject_2stim_asymm_v5,2020.2.10,MacIntel,60,61025ae37ef11b136ea224fe,,,,,,,,,2591,35,76,1,0,0,response1disk,,7,5,8,1,0,0,rectangle,5,8,1,0,0,,,,,,,5,8,1,0,0,,1,131,291,97,1,
,,,,,,,,,,,,,FF,,,,,,,,0.75,,,,,,,,,,,,,,,,,,,,,,60fd8720d6da91884d85d305,610377e293523e7a465e5308,2021-07-29_23h56.07.865,Simcolourproject_2stim_asymm_v5,2020.2.10,MacIntel,60,61025ae37ef11b136ea224fe,,,,,,,,,4089,81,47,1,0,0,response1disk,,6,4,5,1,0,0,rectangle,4,5,1,0,0,,,,,,,4,5,1,0,0,,1,132,292,63,1,
,,,,,,,,,,,,,FF,,,,,,,,1.199,,,,,,,,,,,,,,,,,,,,,,60fd8720d6da91884d85d305,610377e293523e7a465e5308,2021-07-29_23h56.07.865,Simcolourproject_2stim_asymm_v5,2020.2.10,MacIntel,60,61025ae37ef11b136ea224fe,,,,,,,,,2169,68,-35,1,0,0,response3disk,,5,8,11,1,0,0,rectangle,8,11,1,0,0,,,,,,,8,11,1,0,0,,1,133,293,144,1,
,,,,,,,,,,,,,FF,,,,,,,,2,,,,,,,,,,,,,,,,,,,,,,60fd8720d6da91884d85d305,610377e293523e7a465e5308,2021-07-29_23h56.07.865,Simcolourproject_2stim_asymm_v5,2020.2.10,MacIntel,60,61025ae37ef11b136ea224fe,,,,,,,,,1684,-77,-43,1,0,0,response5disk,,2,-3,14,1,0,0,rectangle,-3,14,1,0,0,,,,,,,-3,14,1,0,0,,1,134,294,105,1,
,,,,,,,,,,,,,FF,,,,,,,,1.083,,,,,,,,,,,,,,,,,,,,,,60fd8720d6da91884d85d305,610377e293523e7a465e5308,2021-07-29_23h56.07.865,Simcolourproject_2stim_asymm_v5,2020.2.10,MacIntel,60,61025ae37ef11b136ea224fe,,,,,,,,,3942,-65,-33,1,0,0,response5disk,,2,-15,-10,1,0,0,rectangle,-15,-10,1,0,0,,,,,,,-15,-10,1,0,0,,1,135,295,145,1,
,,,,,,,,,,,,,FF,,,,,,,,2.682,,,,,,,,,,,,,,,,,,,,,,60fd8720d6da91884d85d305,610377e293523e7a465e5308,2021-07-29_23h56.07.865,Simcolourproject_2stim_asymm_v5,2020.2.10,MacIntel,60,61025ae37ef11b136ea224fe,,,,,,,,,573,98,35,1,0,0,response1disk,,6,0,-6,1,0,0,rectangle,0,-6,1,0,0,,,,,,,0,-6,1,0,0,,1,136,296,129,1,
,,,,,,,,,,,,,FF,,,,,,,,1.416,,,,,,,,,,,,,,,,,,,,,,60fd8720d6da91884d85d305,610377e293523e7a465e5308,2021-07-29_23h56.07.865,Simcolourproject_2stim_asymm_v5,2020.2.10,MacIntel,60,61025ae37ef11b136ea224fe,,,,,,,,,161,82,52,1,0,0,response1disk,,6,11,7,1,0,0,rectangle,11,7,1,0,0,,,,,,,11,7,1,0,0,,1,137,297,132,1,
,,,,,,,,,,,,,FF,,,,,,,,0.915,,,,,,,,,,,,,,,,,,,,,,60fd8720d6da91884d85d305,610377e293523e7a465e5308,2021-07-29_23h56.07.865,Simcolourproject_2stim_asymm_v5,2020.2.10,MacIntel,60,61025ae37ef11b136ea224fe,,,,,,,,,1036,60,-41,1,0,0,response3disk,,5,13,4,1,0,0,rectangle,13,4,1,0,0,,,,,,,13,4,1,0,0,,1,138,298,111,1,
,,,,,,,,,,,,,FF,,,,,,,,1.101,,,,,,,,,,,,,,,,,,,,,,60fd8720d6da91884d85d305,610377e293523e7a465e5308,2021-07-29_23h56.07.865,Simcolourproject_2stim_asymm_v5,2020.2.10,MacIntel,60,61025ae37ef11b136ea224fe,,,,,,,,,3836,71,48,1,0,0,response1disk,,6,17,5,1,0,0,rectangle,82,48,1,0,0,response1disk_3,TRUE,6,6,"[274,108,97,117,232,120,208,300,117,260,213,175,9,149,280,12,14,189,317,1]",1.367,10,4,1,0,0,rectangle,1,139,299,136,1,
,,,,,,,,,,,,,FF,,,,,,,,1.35,,,,,,,,,,,,,,,,,,,,,,60fd8720d6da91884d85d305,610377e293523e7a465e5308,2021-07-29_23h56.07.865,Simcolourproject_2stim_asymm_v5,2020.2.10,MacIntel,60,61025ae37ef11b136ea224fe,,,,,,,,,3777,-37,-74,1,0,0,response5disk,,3,-9,4,1,0,0,rectangle,-9,4,1,0,0,,,,,,,-9,4,1,0,0,,1,140,300,51,1,
,,,,,,,,,,,,,FF,,,,,,,,1.416,,,,,,,,,,,,,,,,,,,,,,60fd8720d6da91884d85d305,610377e293523e7a465e5308,2021-07-29_23h56.07.865,Simcolourproject_2stim_asymm_v5,2020.2.10,MacIntel,60,61025ae37ef11b136ea224fe,,,,,,,,,4000,-45,-78,1,0,0,response5disk,,3,-19,3,1,0,0,rectangle,-19,3,1,0,0,,,,,,,-19,3,1,0,0,,1,141,301,11,1,
