key_resp.keys,key_resp.rt,key_resp_14.keys,key_resp_14.rt,key_resp_15.keys,key_resp_15.rt,key_resp_17.keys,key_resp_17.rt,key_resp_9.keys,key_resp_9.rt,key_resp_10.keys,key_resp_10.rt,practice_comparison,Ecc,mouse_5.x,mouse_5.y,mouse_5.leftButton,mouse_5.midButton,mouse_5.rightButton,mouse_5.clicked_name,pracsimilarity,response_time,mouse_10.x,mouse_10.y,mouse_10.leftButton,mouse_10.midButton,mouse_10.rightButton,mouse_10.clicked_name,mouse_7.x,mouse_7.y,mouse_7.leftButton,mouse_7.midButton,mouse_7.rightButton,mouse_6.x,mouse_6.y,mouse_6.leftButton,mouse_6.midButton,mouse_6.rightButton,duringprac.thisRepN,duringprac.thisTrialN,duringprac.thisN,duringprac.thisIndex,duringprac.ran,participant,session,date,expName,psychopyVersion,OS,frameRate,study_id,mouse_7.clicked_name,catchpracsimilarity,catch_response_time,catchnumberprac,catchtrialorderprac,mouse_6.clicked_name,key_resp_22.keys,key_resp_22.rt,realcomparison,mouse.x,mouse.y,mouse.leftButton,mouse.midButton,mouse.rightButton,mouse.clicked_name,Colour2,similarity,mouse_2.x,mouse_2.y,mouse_2.leftButton,mouse_2.midButton,mouse_2.rightButton,mouse_2.clicked_name,mouse_3.x,mouse_3.y,mouse_3.leftButton,mouse_3.midButton,mouse_3.rightButton,mouse_11.x,mouse_11.y,mouse_11.leftButton,mouse_11.midButton,mouse_11.rightButton,trials_2.thisRepN,trials_2.thisTrialN,trials_2.thisN,trials_2.thisIndex,trials_2.ran,Colour1,mouse_3.clicked_name,catchornah,catchsimilarity,catchnumber,catchtrialorder,catchRT,mouse_11.clicked_name
space,1.994,space,8.327,space,36.084,space,3.89,space,1.539,space,5.187,8,PF,-28,-88.5,1,0,0,response5disk_5,3,9.019,21,-7.5,1,0,0,rectangle_8,21,-7.5,1,0,0,21,-7.5,1,0,0,0,0,0,2,1,60fdd91a1ede7111c86df9f0,61037184628f7e11517ae597,2021-07-29_21h11.47.183,Simcolourproject_2stim_asymm_v5,2020.2.10,Win32,60,61025ae37ef11b136ea224fe,,,,,,,,,,,,,,,,,,,,,,,,,,,,,,,,,,,,,,,,,,,,,,
,,,,,,,,,,,,126,FF,86,114.5,1,0,0,response1disk_5,7,7.106,-2,-3.5,1,0,0,rectangle_8,41,-113.5,1,0,0,-9,3.5,1,0,0,0,1,1,5,1,60fdd91a1ede7111c86df9f0,61037184628f7e11517ae597,2021-07-29_21h11.47.183,Simcolourproject_2stim_asymm_v5,2020.2.10,Win32,60,61025ae37ef11b136ea224fe,response3disk_7,4,2.278,4,"[2,5]",rectangle_4,,,,,,,,,,,,,,,,,,,,,,,,,,,,,,,,,,,,,,,,
,,,,,,,,,,,,69,PF,61,82.5,1,0,0,response1disk_5,7,1.651,12,-0.5,1,0,0,rectangle_8,12,-0.5,1,0,0,12,-0.5,1,0,0,0,2,2,4,1,60fdd91a1ede7111c86df9f0,61037184628f7e11517ae597,2021-07-29_21h11.47.183,Simcolourproject_2stim_asymm_v5,2020.2.10,Win32,60,61025ae37ef11b136ea224fe,,,,,,,,,,,,,,,,,,,,,,,,,,,,,,,,,,,,,,,,,,,,,,
,,,,,,,,,,,,51,PF,54,85.5,1,0,0,response1disk_5,7,1.293,17,-1.5,1,0,0,rectangle_8,17,-1.5,1,0,0,17,-1.5,1,0,0,0,3,3,1,1,60fdd91a1ede7111c86df9f0,61037184628f7e11517ae597,2021-07-29_21h11.47.183,Simcolourproject_2stim_asymm_v5,2020.2.10,Win32,60,61025ae37ef11b136ea224fe,,,,,,,,,,,,,,,,,,,,,,,,,,,,,,,,,,,,,,,,,,,,,,
,,,,,,,,,,,,92,PF,91,-38.5,1,0,0,response3disk_5,5,3.418,-4,5.5,1,0,0,rectangle_8,27,-102.5,1,0,0,-15,2.5,1,0,0,0,4,4,6,1,60fdd91a1ede7111c86df9f0,61037184628f7e11517ae597,2021-07-29_21h11.47.183,Simcolourproject_2stim_asymm_v5,2020.2.10,Win32,60,61025ae37ef11b136ea224fe,response3disk_7,4,1.413,4,"[2,5]",rectangle_4,,,,,,,,,,,,,,,,,,,,,,,,,,,,,,,,,,,,,,,,
,,,,,,,,,,,,5,FF,100,48.5,1,0,0,response1disk_5,6,2.855,19,5.5,1,0,0,rectangle_8,19,5.5,1,0,0,19,5.5,1,0,0,0,5,5,0,1,60fdd91a1ede7111c86df9f0,61037184628f7e11517ae597,2021-07-29_21h11.47.183,Simcolourproject_2stim_asymm_v5,2020.2.10,Win32,60,61025ae37ef11b136ea224fe,,,,,,,,,,,,,,,,,,,,,,,,,,,,,,,,,,,,,,,,,,,,,,
,,,,,,,,,,,,90,FF,36,70.5,1,0,0,response1disk_5,7,1.536,15,0.5,1,0,0,rectangle_8,15,0.5,1,0,0,15,0.5,1,0,0,0,6,6,3,1,60fdd91a1ede7111c86df9f0,61037184628f7e11517ae597,2021-07-29_21h11.47.183,Simcolourproject_2stim_asymm_v5,2020.2.10,Win32,60,61025ae37ef11b136ea224fe,,,,,,,,,,,,,,,,,,,,,,,,,,,,,,,,,,,,,,,,,,,,,,
,,,,,,,,,,,,,FF,,,,,,,,3.073,,,,,,,,,,,,,,,,,,,,,,60fdd91a1ede7111c86df9f0,61037184628f7e11517ae597,2021-07-29_21h11.47.183,Simcolourproject_2stim_asymm_v5,2020.2.10,Win32,60,61025ae37ef11b136ea224fe,,,,,,,space,5.455,2129,73,102.5,1,0,0,response1disk,,7,19,-4.5,1,0,0,rectangle,19,-4.5,1,0,0,19,-4.5,1,0,0,0,0,0,135,1,,,,,,,,
,,,,,,,,,,,,,FF,,,,,,,,3.288,,,,,,,,,,,,,,,,,,,,,,60fdd91a1ede7111c86df9f0,61037184628f7e11517ae597,2021-07-29_21h11.47.183,Simcolourproject_2stim_asymm_v5,2020.2.10,Win32,60,61025ae37ef11b136ea224fe,,,,,,,,,2723,49,-28.5,1,0,0,response3disk,,5,7,7.5,1,0,0,rectangle,7,7.5,1,0,0,7,7.5,1,0,0,0,1,1,143,1,,,,,,,,
,,,,,,,,,,,,,FF,,,,,,,,2.501,,,,,,,,,,,,,,,,,,,,,,60fdd91a1ede7111c86df9f0,61037184628f7e11517ae597,2021-07-29_21h11.47.183,Simcolourproject_2stim_asymm_v5,2020.2.10,Win32,60,61025ae37ef11b136ea224fe,,,,,,,,,4076,-60,-29.5,1,0,0,response5disk,,2,9,9.5,1,0,0,rectangle,9,9.5,1,0,0,9,9.5,1,0,0,0,2,2,89,1,,,,,,,,
,,,,,,,,,,,,,FF,,,,,,,,4.642,,,,,,,,,,,,,,,,,,,,,,60fdd91a1ede7111c86df9f0,61037184628f7e11517ae597,2021-07-29_21h11.47.183,Simcolourproject_2stim_asymm_v5,2020.2.10,Win32,60,61025ae37ef11b136ea224fe,,,,,,,,,635,59,-33.5,1,0,0,response3disk,,5,9,-8.5,1,0,0,rectangle,9,-8.5,1,0,0,9,-8.5,1,0,0,0,3,3,84,1,,,,,,,,
,,,,,,,,,,,,,FF,,,,,,,,2.151,,,,,,,,,,,,,,,,,,,,,,60fdd91a1ede7111c86df9f0,61037184628f7e11517ae597,2021-07-29_21h11.47.183,Simcolourproject_2stim_asymm_v5,2020.2.10,Win32,60,61025ae37ef11b136ea224fe,,,,,,,,,1777,74,44.5,1,0,0,response1disk,,6,14,-0.5,1,0,0,rectangle,14,-0.5,1,0,0,14,-0.5,1,0,0,0,4,4,11,1,,,,,,,,
,,,,,,,,,,,,,FF,,,,,,,,1.524,,,,,,,,,,,,,,,,,,,,,,60fdd91a1ede7111c86df9f0,61037184628f7e11517ae597,2021-07-29_21h11.47.183,Simcolourproject_2stim_asymm_v5,2020.2.10,Win32,60,61025ae37ef11b136ea224fe,,,,,,,,,900,41,62.5,1,0,0,response1disk,,7,16,-5.5,1,0,0,rectangle,16,-5.5,1,0,0,16,-5.5,1,0,0,0,5,5,86,1,,,,,,,,
,,,,,,,,,,,,,FF,,,,,,,,3.417,,,,,,,,,,,,,,,,,,,,,,60fdd91a1ede7111c86df9f0,61037184628f7e11517ae597,2021-07-29_21h11.47.183,Simcolourproject_2stim_asymm_v5,2020.2.10,Win32,60,61025ae37ef11b136ea224fe,,,,,,,,,4252,-71,-51.5,1,0,0,response5disk,,2,7,8.5,1,0,0,rectangle,7,8.5,1,0,0,7,8.5,1,0,0,0,6,6,158,1,,,,,,,,
,,,,,,,,,,,,,FF,,,,,,,,1.583,,,,,,,,,,,,,,,,,,,,,,60fdd91a1ede7111c86df9f0,61037184628f7e11517ae597,2021-07-29_21h11.47.183,Simcolourproject_2stim_asymm_v5,2020.2.10,Win32,60,61025ae37ef11b136ea224fe,,,,,,,,,2529,60,92.5,1,0,0,response1disk,,7,15,1.5,1,0,0,rectangle,15,1.5,1,0,0,15,1.5,1,0,0,0,7,7,93,1,,,,,,,,
,,,,,,,,,,,,,FF,,,,,,,,1.048,,,,,,,,,,,,,,,,,,,,,,60fdd91a1ede7111c86df9f0,61037184628f7e11517ae597,2021-07-29_21h11.47.183,Simcolourproject_2stim_asymm_v5,2020.2.10,Win32,60,61025ae37ef11b136ea224fe,,,,,,,,,3300,32,61.5,1,0,0,response1disk,,7,25,3.5,1,0,0,rectangle,25,3.5,1,0,0,25,3.5,1,0,0,0,8,8,36,1,,,,,,,,
,,,,,,,,,,,,,FF,,,,,,,,1.733,,,,,,,,,,,,,,,,,,,,,,60fdd91a1ede7111c86df9f0,61037184628f7e11517ae597,2021-07-29_21h11.47.183,Simcolourproject_2stim_asymm_v5,2020.2.10,Win32,60,61025ae37ef11b136ea224fe,,,,,,,,,95,33,-100.5,1,0,0,response3disk,,4,-14,2.5,1,0,0,rectangle,-14,2.5,1,0,0,-14,2.5,1,0,0,0,9,9,99,1,,,,,,,,
,,,,,,,,,,,,,FF,,,,,,,,0.935,,,,,,,,,,,,,,,,,,,,,,60fdd91a1ede7111c86df9f0,61037184628f7e11517ae597,2021-07-29_21h11.47.183,Simcolourproject_2stim_asymm_v5,2020.2.10,Win32,60,61025ae37ef11b136ea224fe,,,,,,,,,418,38,59.5,1,0,0,response1disk,,7,16,-0.5,1,0,0,rectangle,16,-0.5,1,0,0,16,-0.5,1,0,0,0,10,10,64,1,,,,,,,,
,,,,,,,,,,,,,FF,,,,,,,,3.023,,,,,,,,,,,,,,,,,,,,,,60fdd91a1ede7111c86df9f0,61037184628f7e11517ae597,2021-07-29_21h11.47.183,Simcolourproject_2stim_asymm_v5,2020.2.10,Win32,60,61025ae37ef11b136ea224fe,,,,,,,,,2158,45,71.5,1,0,0,response1disk,,7,21,-6.5,1,0,0,rectangle,21,-6.5,1,0,0,21,-6.5,1,0,0,0,11,11,97,1,,,,,,,,
,,,,,,,,,,,,,FF,,,,,,,,1.517,,,,,,,,,,,,,,,,,,,,,,60fdd91a1ede7111c86df9f0,61037184628f7e11517ae597,2021-07-29_21h11.47.183,Simcolourproject_2stim_asymm_v5,2020.2.10,Win32,60,61025ae37ef11b136ea224fe,,,,,,,,,1548,33,55.5,1,0,0,response1disk,,7,19,-10.5,1,0,0,rectangle,19,-10.5,1,0,0,19,-10.5,1,0,0,0,12,12,131,1,,,,,,,,
,,,,,,,,,,,,,FF,,,,,,,,1.92,,,,,,,,,,,,,,,,,,,,,,60fdd91a1ede7111c86df9f0,61037184628f7e11517ae597,2021-07-29_21h11.47.183,Simcolourproject_2stim_asymm_v5,2020.2.10,Win32,60,61025ae37ef11b136ea224fe,,,,,,,,,1888,38,-83.5,1,0,0,response3disk,,4,13,9.5,1,0,0,rectangle,13,9.5,1,0,0,13,9.5,1,0,0,0,13,13,14,1,,,,,,,,
,,,,,,,,,,,,,FF,,,,,,,,0.952,,,,,,,,,,,,,,,,,,,,,,60fdd91a1ede7111c86df9f0,61037184628f7e11517ae597,2021-07-29_21h11.47.183,Simcolourproject_2stim_asymm_v5,2020.2.10,Win32,60,61025ae37ef11b136ea224fe,,,,,,,,,3068,35,71.5,1,0,0,response1disk,,7,8,1.5,1,0,0,rectangle,8,1.5,1,0,0,8,1.5,1,0,0,0,14,14,128,1,,,,,,,,
,,,,,,,,,,,,,FF,,,,,,,,2.06,,,,,,,,,,,,,,,,,,,,,,60fdd91a1ede7111c86df9f0,61037184628f7e11517ae597,2021-07-29_21h11.47.183,Simcolourproject_2stim_asymm_v5,2020.2.10,Win32,60,61025ae37ef11b136ea224fe,,,,,,,,,3190,-34,-74.5,1,0,0,response5disk,,3,0,1.5,1,0,0,rectangle,0,1.5,1,0,0,0,1.5,1,0,0,0,15,15,147,1,,,,,,,,
,,,,,,,,,,,,,FF,,,,,,,,0.828,,,,,,,,,,,,,,,,,,,,,,60fdd91a1ede7111c86df9f0,61037184628f7e11517ae597,2021-07-29_21h11.47.183,Simcolourproject_2stim_asymm_v5,2020.2.10,Win32,60,61025ae37ef11b136ea224fe,,,,,,,,,1087,38,82.5,1,0,0,response1disk,,7,9,-9.5,1,0,0,rectangle,9,-9.5,1,0,0,9,-9.5,1,0,0,0,16,16,83,1,,,,,,,,
,,,,,,,,,,,,,FF,,,,,,,,0.999,,,,,,,,,,,,,,,,,,,,,,60fdd91a1ede7111c86df9f0,61037184628f7e11517ae597,2021-07-29_21h11.47.183,Simcolourproject_2stim_asymm_v5,2020.2.10,Win32,60,61025ae37ef11b136ea224fe,,,,,,,,,995,61,95.5,1,0,0,response1disk,,7,15,-4.5,1,0,0,rectangle,15,-4.5,1,0,0,15,-4.5,1,0,0,0,17,17,26,1,,,,,,,,
,,,,,,,,,,,,,FF,,,,,,,,1.418,,,,,,,,,,,,,,,,,,,,,,60fdd91a1ede7111c86df9f0,61037184628f7e11517ae597,2021-07-29_21h11.47.183,Simcolourproject_2stim_asymm_v5,2020.2.10,Win32,60,61025ae37ef11b136ea224fe,,,,,,,,,3873,41,59.5,1,0,0,response1disk,,7,-3,-2.5,1,0,0,rectangle,-3,-2.5,1,0,0,-3,-2.5,1,0,0,0,18,18,159,1,,,,,,,,
,,,,,,,,,,,,,FF,,,,,,,,3.09,,,,,,,,,,,,,,,,,,,,,,60fdd91a1ede7111c86df9f0,61037184628f7e11517ae597,2021-07-29_21h11.47.183,Simcolourproject_2stim_asymm_v5,2020.2.10,Win32,60,61025ae37ef11b136ea224fe,,,,,,,,,2081,65,92.5,1,0,0,response1disk,,7,22,-13.5,1,0,0,rectangle,22,-13.5,1,0,0,22,-13.5,1,0,0,0,19,19,22,1,,,,,,,,
,,,,,,,,,,,,,FF,,,,,,,,1.066,,,,,,,,,,,,,,,,,,,,,,60fdd91a1ede7111c86df9f0,61037184628f7e11517ae597,2021-07-29_21h11.47.183,Simcolourproject_2stim_asymm_v5,2020.2.10,Win32,60,61025ae37ef11b136ea224fe,,,,,,,,,1731,58,73.5,1,0,0,response1disk,,7,21,-6.5,1,0,0,rectangle,21,-6.5,1,0,0,21,-6.5,1,0,0,0,20,20,139,1,,,,,,,,
,,,,,,,,,,,,,FF,,,,,,,,0.8,,,,,,,,,,,,,,,,,,,,,,60fdd91a1ede7111c86df9f0,61037184628f7e11517ae597,2021-07-29_21h11.47.183,Simcolourproject_2stim_asymm_v5,2020.2.10,Win32,60,61025ae37ef11b136ea224fe,,,,,,,,,2803,31,66.5,1,0,0,response1disk,,7,21,-5.5,1,0,0,rectangle,21,-5.5,1,0,0,21,-5.5,1,0,0,0,21,21,82,1,,,,,,,,
,,,,,,,,,,,,,FF,,,,,,,,1.249,,,,,,,,,,,,,,,,,,,,,,60fdd91a1ede7111c86df9f0,61037184628f7e11517ae597,2021-07-29_21h11.47.183,Simcolourproject_2stim_asymm_v5,2020.2.10,Win32,60,61025ae37ef11b136ea224fe,,,,,,,,,3668,-36,73.5,1,0,0,response7disk,,0,3,-4.5,1,0,0,rectangle,3,-4.5,1,0,0,3,-4.5,1,0,0,0,22,22,56,1,,,,,,,,
,,,,,,,,,,,,,FF,,,,,,,,0.865,,,,,,,,,,,,,,,,,,,,,,60fdd91a1ede7111c86df9f0,61037184628f7e11517ae597,2021-07-29_21h11.47.183,Simcolourproject_2stim_asymm_v5,2020.2.10,Win32,60,61025ae37ef11b136ea224fe,,,,,,,,,222,44,60.5,1,0,0,response1disk,,7,21,5.5,1,0,0,rectangle,21,5.5,1,0,0,21,5.5,1,0,0,0,23,23,106,1,,,,,,,,
,,,,,,,,,,,,,FF,,,,,,,,1.184,,,,,,,,,,,,,,,,,,,,,,60fdd91a1ede7111c86df9f0,61037184628f7e11517ae597,2021-07-29_21h11.47.183,Simcolourproject_2stim_asymm_v5,2020.2.10,Win32,60,61025ae37ef11b136ea224fe,,,,,,,,,655,-27,56.5,1,0,0,response7disk,,0,25,7.5,1,0,0,rectangle,25,7.5,1,0,0,25,7.5,1,0,0,0,24,24,146,1,,,,,,,,
,,,,,,,,,,,,,FF,,,,,,,,1.755,,,,,,,,,,,,,,,,,,,,,,60fdd91a1ede7111c86df9f0,61037184628f7e11517ae597,2021-07-29_21h11.47.183,Simcolourproject_2stim_asymm_v5,2020.2.10,Win32,60,61025ae37ef11b136ea224fe,,,,,,,,,1377,38,92.5,1,0,0,response1disk,,7,8,-8.5,1,0,0,rectangle,8,-8.5,1,0,0,8,-8.5,1,0,0,0,25,25,69,1,,,,,,,,
,,,,,,,,,,,,,FF,,,,,,,,1.006,,,,,,,,,,,,,,,,,,,,,,60fdd91a1ede7111c86df9f0,61037184628f7e11517ae597,2021-07-29_21h11.47.183,Simcolourproject_2stim_asymm_v5,2020.2.10,Win32,60,61025ae37ef11b136ea224fe,,,,,,,,,3352,54,89.5,1,0,0,response1disk,,7,17,-0.5,1,0,0,rectangle,17,-0.5,1,0,0,17,-0.5,1,0,0,0,26,26,16,1,,,,,,,,
,,,,,,,,,,,,,FF,,,,,,,,0.774,,,,,,,,,,,,,,,,,,,,,,60fdd91a1ede7111c86df9f0,61037184628f7e11517ae597,2021-07-29_21h11.47.183,Simcolourproject_2stim_asymm_v5,2020.2.10,Win32,60,61025ae37ef11b136ea224fe,,,,,,,,,1241,48,69.5,1,0,0,response1disk,,7,23,-7.5,1,0,0,rectangle,23,-7.5,1,0,0,23,-7.5,1,0,0,0,27,27,15,1,,,,,,,,
,,,,,,,,,,,,,FF,,,,,,,,0.755,,,,,,,,,,,,,,,,,,,,,,60fdd91a1ede7111c86df9f0,61037184628f7e11517ae597,2021-07-29_21h11.47.183,Simcolourproject_2stim_asymm_v5,2020.2.10,Win32,60,61025ae37ef11b136ea224fe,,,,,,,,,2552,52,77.5,1,0,0,response1disk,,7,19,1.5,1,0,0,rectangle,19,1.5,1,0,0,19,1.5,1,0,0,0,28,28,2,1,,,,,,,,
,,,,,,,,,,,,,FF,,,,,,,,0.883,,,,,,,,,,,,,,,,,,,,,,60fdd91a1ede7111c86df9f0,61037184628f7e11517ae597,2021-07-29_21h11.47.183,Simcolourproject_2stim_asymm_v5,2020.2.10,Win32,60,61025ae37ef11b136ea224fe,,,,,,,,,3118,49,79.5,1,0,0,response1disk,,7,20,0.5,1,0,0,rectangle,20,0.5,1,0,0,20,0.5,1,0,0,0,29,29,152,1,,,,,,,,
,,,,,,,,,,,,,FF,,,,,,,,0.717,,,,,,,,,,,,,,,,,,,,,,60fdd91a1ede7111c86df9f0,61037184628f7e11517ae597,2021-07-29_21h11.47.183,Simcolourproject_2stim_asymm_v5,2020.2.10,Win32,60,61025ae37ef11b136ea224fe,,,,,,,,,2301,39,63.5,1,0,0,response1disk,,7,13,1.5,1,0,0,rectangle,13,1.5,1,0,0,13,1.5,1,0,0,0,30,30,71,1,,,,,,,,
,,,,,,,,,,,,,FF,,,,,,,,1.334,,,,,,,,,,,,,,,,,,,,,,60fdd91a1ede7111c86df9f0,61037184628f7e11517ae597,2021-07-29_21h11.47.183,Simcolourproject_2stim_asymm_v5,2020.2.10,Win32,60,61025ae37ef11b136ea224fe,,,,,,,,,4229,44,71.5,1,0,0,response1disk,,7,16,7.5,1,0,0,rectangle,16,7.5,1,0,0,16,7.5,1,0,0,0,31,31,41,1,,,,,,,,
,,,,,,,,,,,,,FF,,,,,,,,0.575,,,,,,,,,,,,,,,,,,,,,,60fdd91a1ede7111c86df9f0,61037184628f7e11517ae597,2021-07-29_21h11.47.183,Simcolourproject_2stim_asymm_v5,2020.2.10,Win32,60,61025ae37ef11b136ea224fe,,,,,,,,,948,34,63.5,1,0,0,response1disk,,7,11,-2.5,1,0,0,rectangle,11,-2.5,1,0,0,11,-2.5,1,0,0,0,32,32,57,1,,,,,,,,
,,,,,,,,,,,,,FF,,,,,,,,1.384,,,,,,,,,,,,,,,,,,,,,,60fdd91a1ede7111c86df9f0,61037184628f7e11517ae597,2021-07-29_21h11.47.183,Simcolourproject_2stim_asymm_v5,2020.2.10,Win32,60,61025ae37ef11b136ea224fe,,,,,,,,,4335,-80,43.5,1,0,0,response7disk,,1,-6,3.5,1,0,0,rectangle,52,87.5,1,0,0,16,15.5,1,0,0,0,33,33,157,1,,response1disk_3,TRUE,7,7,"[83,70,286,266,264,34,134,299,103,247,256,177,145,295,126,268,125,204,204,197]",1.584,rectangle
,,,,,,,,,,,,,FF,,,,,,,,1.083,,,,,,,,,,,,,,,,,,,,,,60fdd91a1ede7111c86df9f0,61037184628f7e11517ae597,2021-07-29_21h11.47.183,Simcolourproject_2stim_asymm_v5,2020.2.10,Win32,60,61025ae37ef11b136ea224fe,,,,,,,,,3964,55,74.5,1,0,0,response1disk,,7,8,-5.5,1,0,0,rectangle,8,-5.5,1,0,0,8,-5.5,1,0,0,0,34,34,149,1,,,,,,,,
,,,,,,,,,,,,,FF,,,,,,,,0.85,,,,,,,,,,,,,,,,,,,,,,60fdd91a1ede7111c86df9f0,61037184628f7e11517ae597,2021-07-29_21h11.47.183,Simcolourproject_2stim_asymm_v5,2020.2.10,Win32,60,61025ae37ef11b136ea224fe,,,,,,,,,1385,39,67.5,1,0,0,response1disk,,7,17,-2.5,1,0,0,rectangle,17,-2.5,1,0,0,17,-2.5,1,0,0,0,35,35,23,1,,,,,,,,
,,,,,,,,,,,,,FF,,,,,,,,0.636,,,,,,,,,,,,,,,,,,,,,,60fdd91a1ede7111c86df9f0,61037184628f7e11517ae597,2021-07-29_21h11.47.183,Simcolourproject_2stim_asymm_v5,2020.2.10,Win32,60,61025ae37ef11b136ea224fe,,,,,,,,,1684,36,73.5,1,0,0,response1disk,,7,25,11.5,1,0,0,rectangle,25,11.5,1,0,0,25,11.5,1,0,0,0,36,36,73,1,,,,,,,,
,,,,,,,,,,,,,FF,,,,,,,,1.023,,,,,,,,,,,,,,,,,,,,,,60fdd91a1ede7111c86df9f0,61037184628f7e11517ae597,2021-07-29_21h11.47.183,Simcolourproject_2stim_asymm_v5,2020.2.10,Win32,60,61025ae37ef11b136ea224fe,,,,,,,,,2843,89,104.5,1,0,0,response1disk,,7,21,-0.5,1,0,0,rectangle,21,-0.5,1,0,0,21,-0.5,1,0,0,0,37,37,19,1,,,,,,,,
,,,,,,,,,,,,,FF,,,,,,,,0.567,,,,,,,,,,,,,,,,,,,,,,60fdd91a1ede7111c86df9f0,61037184628f7e11517ae597,2021-07-29_21h11.47.183,Simcolourproject_2stim_asymm_v5,2020.2.10,Win32,60,61025ae37ef11b136ea224fe,,,,,,,,,1530,36,77.5,1,0,0,response1disk,,7,15,-2.5,1,0,0,rectangle,15,-2.5,1,0,0,15,-2.5,1,0,0,0,38,38,122,1,,,,,,,,
,,,,,,,,,,,,,FF,,,,,,,,1.45,,,,,,,,,,,,,,,,,,,,,,60fdd91a1ede7111c86df9f0,61037184628f7e11517ae597,2021-07-29_21h11.47.183,Simcolourproject_2stim_asymm_v5,2020.2.10,Win32,60,61025ae37ef11b136ea224fe,,,,,,,,,4059,66,34.5,1,0,0,response1disk,,6,11,0.5,1,0,0,rectangle,11,0.5,1,0,0,11,0.5,1,0,0,0,39,39,51,1,,,,,,,,
,,,,,,,,,,,,,FF,,,,,,,,1.116,,,,,,,,,,,,,,,,,,,,,,60fdd91a1ede7111c86df9f0,61037184628f7e11517ae597,2021-07-29_21h11.47.183,Simcolourproject_2stim_asymm_v5,2020.2.10,Win32,60,61025ae37ef11b136ea224fe,,,,,,,,,523,53,-36.5,1,0,0,response3disk,,5,-7,2.5,1,0,0,rectangle,-7,2.5,1,0,0,-7,2.5,1,0,0,0,40,40,54,1,,,,,,,,
,,,,,,,,,,,,,FF,,,,,,,,1.383,,,,,,,,,,,,,,,,,,,,,,60fdd91a1ede7111c86df9f0,61037184628f7e11517ae597,2021-07-29_21h11.47.183,Simcolourproject_2stim_asymm_v5,2020.2.10,Win32,60,61025ae37ef11b136ea224fe,,,,,,,,,1794,37,65.5,1,0,0,response1disk,,7,19,1.5,1,0,0,rectangle,19,1.5,1,0,0,19,1.5,1,0,0,0,41,41,18,1,,,,,,,,
,,,,,,,,,,,,,FF,,,,,,,,0.884,,,,,,,,,,,,,,,,,,,,,,60fdd91a1ede7111c86df9f0,61037184628f7e11517ae597,2021-07-29_21h11.47.183,Simcolourproject_2stim_asymm_v5,2020.2.10,Win32,60,61025ae37ef11b136ea224fe,,,,,,,,,2704,37,61.5,1,0,0,response1disk,,7,15,0.5,1,0,0,rectangle,15,0.5,1,0,0,15,0.5,1,0,0,0,42,42,129,1,,,,,,,,
,,,,,,,,,,,,,FF,,,,,,,,0.579,,,,,,,,,,,,,,,,,,,,,,60fdd91a1ede7111c86df9f0,61037184628f7e11517ae597,2021-07-29_21h11.47.183,Simcolourproject_2stim_asymm_v5,2020.2.10,Win32,60,61025ae37ef11b136ea224fe,,,,,,,,,592,37,54.5,1,0,0,response1disk,,7,7,-14.5,1,0,0,rectangle,7,-14.5,1,0,0,7,-14.5,1,0,0,0,43,43,113,1,,,,,,,,
,,,,,,,,,,,,,FF,,,,,,,,0.895,,,,,,,,,,,,,,,,,,,,,,60fdd91a1ede7111c86df9f0,61037184628f7e11517ae597,2021-07-29_21h11.47.183,Simcolourproject_2stim_asymm_v5,2020.2.10,Win32,60,61025ae37ef11b136ea224fe,,,,,,,,,4147,-28,-61.5,1,0,0,response5disk,,3,-9,3.5,1,0,0,rectangle,-9,3.5,1,0,0,-9,3.5,1,0,0,0,44,44,1,1,,,,,,,,
,,,,,,,,,,,,,FF,,,,,,,,0.713,,,,,,,,,,,,,,,,,,,,,,60fdd91a1ede7111c86df9f0,61037184628f7e11517ae597,2021-07-29_21h11.47.183,Simcolourproject_2stim_asymm_v5,2020.2.10,Win32,60,61025ae37ef11b136ea224fe,,,,,,,,,220,39,86.5,1,0,0,response1disk,,7,5,2.5,1,0,0,rectangle,5,2.5,1,0,0,5,2.5,1,0,0,0,45,45,60,1,,,,,,,,
,,,,,,,,,,,,,FF,,,,,,,,0.889,,,,,,,,,,,,,,,,,,,,,,60fdd91a1ede7111c86df9f0,61037184628f7e11517ae597,2021-07-29_21h11.47.183,Simcolourproject_2stim_asymm_v5,2020.2.10,Win32,60,61025ae37ef11b136ea224fe,,,,,,,,,4346,-25,-54.5,1,0,0,response5disk,,3,1,2.5,1,0,0,rectangle,1,2.5,1,0,0,1,2.5,1,0,0,0,46,46,33,1,,,,,,,,
,,,,,,,,,,,,,FF,,,,,,,,1.354,,,,,,,,,,,,,,,,,,,,,,60fdd91a1ede7111c86df9f0,61037184628f7e11517ae597,2021-07-29_21h11.47.183,Simcolourproject_2stim_asymm_v5,2020.2.10,Win32,60,61025ae37ef11b136ea224fe,,,,,,,,,546,37,-62.5,1,0,0,response3disk,,4,-1,-1.5,1,0,0,rectangle,-1,-1.5,1,0,0,-1,-1.5,1,0,0,0,47,47,25,1,,,,,,,,
,,,,,,,,,,,,,FF,,,,,,,,1.36,,,,,,,,,,,,,,,,,,,,,,60fdd91a1ede7111c86df9f0,61037184628f7e11517ae597,2021-07-29_21h11.47.183,Simcolourproject_2stim_asymm_v5,2020.2.10,Win32,60,61025ae37ef11b136ea224fe,,,,,,,,,4104,33,-59.5,1,0,0,response3disk,,4,10,-0.5,1,0,0,rectangle,10,-0.5,1,0,0,10,-0.5,1,0,0,0,48,48,20,1,,,,,,,,
,,,,,,,,,,,,,FF,,,,,,,,0.705,,,,,,,,,,,,,,,,,,,,,,60fdd91a1ede7111c86df9f0,61037184628f7e11517ae597,2021-07-29_21h11.47.183,Simcolourproject_2stim_asymm_v5,2020.2.10,Win32,60,61025ae37ef11b136ea224fe,,,,,,,,,3144,31,77.5,1,0,0,response1disk,,7,3,-4.5,1,0,0,rectangle,3,-4.5,1,0,0,3,-4.5,1,0,0,0,49,49,47,1,,,,,,,,
,,,,,,,,,,,,,FF,,,,,,,,0.656,,,,,,,,,,,,,,,,,,,,,,60fdd91a1ede7111c86df9f0,61037184628f7e11517ae597,2021-07-29_21h11.47.183,Simcolourproject_2stim_asymm_v5,2020.2.10,Win32,60,61025ae37ef11b136ea224fe,,,,,,,,,521,39,76.5,1,0,0,response1disk,,7,13,-0.5,1,0,0,rectangle,13,-0.5,1,0,0,13,-0.5,1,0,0,0,50,50,21,1,,,,,,,,
,,,,,,,,,,,,,FF,,,,,,,,0.568,,,,,,,,,,,,,,,,,,,,,,60fdd91a1ede7111c86df9f0,61037184628f7e11517ae597,2021-07-29_21h11.47.183,Simcolourproject_2stim_asymm_v5,2020.2.10,Win32,60,61025ae37ef11b136ea224fe,,,,,,,,,2909,54,76.5,1,0,0,response1disk,,7,16,-6.5,1,0,0,rectangle,16,-6.5,1,0,0,16,-6.5,1,0,0,0,51,51,88,1,,,,,,,,
,,,,,,,,,,,,,FF,,,,,,,,1.223,,,,,,,,,,,,,,,,,,,,,,60fdd91a1ede7111c86df9f0,61037184628f7e11517ae597,2021-07-29_21h11.47.183,Simcolourproject_2stim_asymm_v5,2020.2.10,Win32,60,61025ae37ef11b136ea224fe,,,,,,,,,3463,41,69.5,1,0,0,response1disk,,7,15,-14.5,1,0,0,rectangle,15,-14.5,1,0,0,15,-14.5,1,0,0,0,52,52,49,1,,,,,,,,
,,,,,,,,,,,,,FF,,,,,,,,0.636,,,,,,,,,,,,,,,,,,,,,,60fdd91a1ede7111c86df9f0,61037184628f7e11517ae597,2021-07-29_21h11.47.183,Simcolourproject_2stim_asymm_v5,2020.2.10,Win32,60,61025ae37ef11b136ea224fe,,,,,,,,,1715,49,79.5,1,0,0,response1disk,,7,25,0.5,1,0,0,rectangle,25,0.5,1,0,0,25,0.5,1,0,0,0,53,53,9,1,,,,,,,,
,,,,,,,,,,,,,FF,,,,,,,,1.552,,,,,,,,,,,,,,,,,,,,,,60fdd91a1ede7111c86df9f0,61037184628f7e11517ae597,2021-07-29_21h11.47.183,Simcolourproject_2stim_asymm_v5,2020.2.10,Win32,60,61025ae37ef11b136ea224fe,,,,,,,,,3295,65,38.5,1,0,0,response1disk,,6,19,3.5,1,0,0,rectangle,19,3.5,1,0,0,19,3.5,1,0,0,0,54,54,141,1,,,,,,,,
,,,,,,,,,,,,,FF,,,,,,,,0.832,,,,,,,,,,,,,,,,,,,,,,60fdd91a1ede7111c86df9f0,61037184628f7e11517ae597,2021-07-29_21h11.47.183,Simcolourproject_2stim_asymm_v5,2020.2.10,Win32,60,61025ae37ef11b136ea224fe,,,,,,,,,3658,61,79.5,1,0,0,response1disk,,7,10,7.5,1,0,0,rectangle,10,7.5,1,0,0,10,7.5,1,0,0,0,55,55,105,1,,,,,,,,
,,,,,,,,,,,,,FF,,,,,,,,0.646,,,,,,,,,,,,,,,,,,,,,,60fdd91a1ede7111c86df9f0,61037184628f7e11517ae597,2021-07-29_21h11.47.183,Simcolourproject_2stim_asymm_v5,2020.2.10,Win32,60,61025ae37ef11b136ea224fe,,,,,,,,,939,37,71.5,1,0,0,response1disk,,7,13,-0.5,1,0,0,rectangle,13,-0.5,1,0,0,13,-0.5,1,0,0,0,56,56,77,1,,,,,,,,
,,,,,,,,,,,,,FF,,,,,,,,0.484,,,,,,,,,,,,,,,,,,,,,,60fdd91a1ede7111c86df9f0,61037184628f7e11517ae597,2021-07-29_21h11.47.183,Simcolourproject_2stim_asymm_v5,2020.2.10,Win32,60,61025ae37ef11b136ea224fe,,,,,,,,,2808,47,82.5,1,0,0,response1disk,,7,14,-0.5,1,0,0,rectangle,14,-0.5,1,0,0,14,-0.5,1,0,0,0,57,57,55,1,,,,,,,,
,,,,,,,,,,,,,FF,,,,,,,,1.23,,,,,,,,,,,,,,,,,,,,,,60fdd91a1ede7111c86df9f0,61037184628f7e11517ae597,2021-07-29_21h11.47.183,Simcolourproject_2stim_asymm_v5,2020.2.10,Win32,60,61025ae37ef11b136ea224fe,,,,,,,,,3477,80,32.5,1,0,0,response1disk,,6,14,-6.5,1,0,0,rectangle,14,-6.5,1,0,0,14,-6.5,1,0,0,0,58,58,48,1,,,,,,,,
,,,,,,,,,,,,,FF,,,,,,,,1.159,,,,,,,,,,,,,,,,,,,,,,60fdd91a1ede7111c86df9f0,61037184628f7e11517ae597,2021-07-29_21h11.47.183,Simcolourproject_2stim_asymm_v5,2020.2.10,Win32,60,61025ae37ef11b136ea224fe,,,,,,,,,3844,71,-36.5,1,0,0,response3disk,,5,17,-2.5,1,0,0,rectangle,17,-2.5,1,0,0,17,-2.5,1,0,0,0,59,59,96,1,,,,,,,,
,,,,,,,,,,,,,FF,,,,,,,,1.055,,,,,,,,,,,,,,,,,,,,,,60fdd91a1ede7111c86df9f0,61037184628f7e11517ae597,2021-07-29_21h11.47.183,Simcolourproject_2stim_asymm_v5,2020.2.10,Win32,60,61025ae37ef11b136ea224fe,,,,,,,,,1993,37,61.5,1,0,0,response1disk,,7,13,9.5,1,0,0,rectangle,13,9.5,1,0,0,13,9.5,1,0,0,0,60,60,3,1,,,,,,,,
,,,,,,,,,,,,,FF,,,,,,,,0.647,,,,,,,,,,,,,,,,,,,,,,60fdd91a1ede7111c86df9f0,61037184628f7e11517ae597,2021-07-29_21h11.47.183,Simcolourproject_2stim_asymm_v5,2020.2.10,Win32,60,61025ae37ef11b136ea224fe,,,,,,,,,683,40,50.5,1,0,0,response1disk,,7,7,-5.5,1,0,0,rectangle,7,-5.5,1,0,0,7,-5.5,1,0,0,0,61,61,148,1,,,,,,,,
,,,,,,,,,,,,,FF,,,,,,,,1.001,,,,,,,,,,,,,,,,,,,,,,60fdd91a1ede7111c86df9f0,61037184628f7e11517ae597,2021-07-29_21h11.47.183,Simcolourproject_2stim_asymm_v5,2020.2.10,Win32,60,61025ae37ef11b136ea224fe,,,,,,,,,4055,53,36.5,1,0,0,response1disk,,6,13,-3.5,1,0,0,rectangle,13,-3.5,1,0,0,13,-3.5,1,0,0,0,62,62,87,1,,,,,,,,
,,,,,,,,,,,,,FF,,,,,,,,0.683,,,,,,,,,,,,,,,,,,,,,,60fdd91a1ede7111c86df9f0,61037184628f7e11517ae597,2021-07-29_21h11.47.183,Simcolourproject_2stim_asymm_v5,2020.2.10,Win32,60,61025ae37ef11b136ea224fe,,,,,,,,,3723,35,81.5,1,0,0,response1disk,,7,9,-5.5,1,0,0,rectangle,9,-5.5,1,0,0,9,-5.5,1,0,0,0,63,63,6,1,,,,,,,,
,,,,,,,,,,,,,FF,,,,,,,,1.108,,,,,,,,,,,,,,,,,,,,,,60fdd91a1ede7111c86df9f0,61037184628f7e11517ae597,2021-07-29_21h11.47.183,Simcolourproject_2stim_asymm_v5,2020.2.10,Win32,60,61025ae37ef11b136ea224fe,,,,,,,,,3705,-30,63.5,1,0,0,response7disk,,0,20,-12.5,1,0,0,rectangle,20,-12.5,1,0,0,20,-12.5,1,0,0,0,64,64,150,1,,,,,,,,
,,,,,,,,,,,,,FF,,,,,,,,0.766,,,,,,,,,,,,,,,,,,,,,,60fdd91a1ede7111c86df9f0,61037184628f7e11517ae597,2021-07-29_21h11.47.183,Simcolourproject_2stim_asymm_v5,2020.2.10,Win32,60,61025ae37ef11b136ea224fe,,,,,,,,,822,51,64.5,1,0,0,response1disk,,7,26,-6.5,1,0,0,rectangle,26,-6.5,1,0,0,26,-6.5,1,0,0,0,65,65,42,1,,,,,,,,
,,,,,,,,,,,,,FF,,,,,,,,1.101,,,,,,,,,,,,,,,,,,,,,,60fdd91a1ede7111c86df9f0,61037184628f7e11517ae597,2021-07-29_21h11.47.183,Simcolourproject_2stim_asymm_v5,2020.2.10,Win32,60,61025ae37ef11b136ea224fe,,,,,,,,,1408,27,57.5,1,0,0,response1disk,,7,12,-2.5,1,0,0,rectangle,12,-2.5,1,0,0,12,-2.5,1,0,0,0,66,66,31,1,,,,,,,,
,,,,,,,,,,,,,FF,,,,,,,,2,,,,,,,,,,,,,,,,,,,,,,60fdd91a1ede7111c86df9f0,61037184628f7e11517ae597,2021-07-29_21h11.47.183,Simcolourproject_2stim_asymm_v5,2020.2.10,Win32,60,61025ae37ef11b136ea224fe,,,,,,,,,858,38,72.5,1,0,0,response1disk,,7,21,-7.5,1,0,0,rectangle,21,-7.5,1,0,0,21,-7.5,1,0,0,0,67,67,144,1,,,,,,,,
,,,,,,,,,,,,,FF,,,,,,,,0.752,,,,,,,,,,,,,,,,,,,,,,60fdd91a1ede7111c86df9f0,61037184628f7e11517ae597,2021-07-29_21h11.47.183,Simcolourproject_2stim_asymm_v5,2020.2.10,Win32,60,61025ae37ef11b136ea224fe,,,,,,,,,1982,49,71.5,1,0,0,response1disk,,7,15,-7.5,1,0,0,rectangle,15,-7.5,1,0,0,15,-7.5,1,0,0,0,68,68,39,1,,,,,,,,
,,,,,,,,,,,,,FF,,,,,,,,0.631,,,,,,,,,,,,,,,,,,,,,,60fdd91a1ede7111c86df9f0,61037184628f7e11517ae597,2021-07-29_21h11.47.183,Simcolourproject_2stim_asymm_v5,2020.2.10,Win32,60,61025ae37ef11b136ea224fe,,,,,,,,,1710,26,47.5,1,0,0,response1disk,,7,8,-12.5,1,0,0,rectangle,-68,37.5,1,0,0,-13,2.5,1,0,0,0,69,69,74,1,,response7disk_3,TRUE,1,1,"[83,70,286,266,264,34,134,299,103,247,256,177,145,295,126,268,125,204,204,197]",1.8,rectangle
,,,,,,,,,,,,,FF,,,,,,,,0.834,,,,,,,,,,,,,,,,,,,,,,60fdd91a1ede7111c86df9f0,61037184628f7e11517ae597,2021-07-29_21h11.47.183,Simcolourproject_2stim_asymm_v5,2020.2.10,Win32,60,61025ae37ef11b136ea224fe,,,,,,,,,4017,37,69.5,1,0,0,response1disk,,7,14,2.5,1,0,0,rectangle,14,2.5,1,0,0,14,2.5,1,0,0,0,70,70,75,1,,,,,,,,
,,,,,,,,,,,,,FF,,,,,,,,0.6,,,,,,,,,,,,,,,,,,,,,,60fdd91a1ede7111c86df9f0,61037184628f7e11517ae597,2021-07-29_21h11.47.183,Simcolourproject_2stim_asymm_v5,2020.2.10,Win32,60,61025ae37ef11b136ea224fe,,,,,,,,,3617,40,80.5,1,0,0,response1disk,,7,15,1.5,1,0,0,rectangle,15,1.5,1,0,0,15,1.5,1,0,0,0,71,71,85,1,,,,,,,,
,,,,,,,,,,,,,FF,,,,,,,,0.617,,,,,,,,,,,,,,,,,,,,,,60fdd91a1ede7111c86df9f0,61037184628f7e11517ae597,2021-07-29_21h11.47.183,Simcolourproject_2stim_asymm_v5,2020.2.10,Win32,60,61025ae37ef11b136ea224fe,,,,,,,,,3944,27,67.5,1,0,0,response1disk,,7,19,-13.5,1,0,0,rectangle,19,-13.5,1,0,0,19,-13.5,1,0,0,0,72,72,118,1,,,,,,,,
,,,,,,,,,,,,,FF,,,,,,,,2.264,,,,,,,,,,,,,,,,,,,,,,60fdd91a1ede7111c86df9f0,61037184628f7e11517ae597,2021-07-29_21h11.47.183,Simcolourproject_2stim_asymm_v5,2020.2.10,Win32,60,61025ae37ef11b136ea224fe,,,,,,,,,1835,63,85.5,1,0,0,response1disk,,7,25,12.5,1,0,0,rectangle,25,12.5,1,0,0,25,12.5,1,0,0,0,73,73,7,1,,,,,,,,
,,,,,,,,,,,,,FF,,,,,,,,1.293,,,,,,,,,,,,,,,,,,,,,,60fdd91a1ede7111c86df9f0,61037184628f7e11517ae597,2021-07-29_21h11.47.183,Simcolourproject_2stim_asymm_v5,2020.2.10,Win32,60,61025ae37ef11b136ea224fe,,,,,,,,,2429,49,70.5,1,0,0,response1disk,,7,25,-2.5,1,0,0,rectangle,25,-2.5,1,0,0,25,-2.5,1,0,0,0,74,74,80,1,,,,,,,,
,,,,,,,,,,,,,FF,,,,,,,,1.05,,,,,,,,,,,,,,,,,,,,,,60fdd91a1ede7111c86df9f0,61037184628f7e11517ae597,2021-07-29_21h11.47.183,Simcolourproject_2stim_asymm_v5,2020.2.10,Win32,60,61025ae37ef11b136ea224fe,,,,,,,,,1098,48,87.5,1,0,0,response1disk,,7,10,3.5,1,0,0,rectangle,10,3.5,1,0,0,10,3.5,1,0,0,0,75,75,120,1,,,,,,,,
,,,,,,,,,,,,,FF,,,,,,,,0.415,,,,,,,,,,,,,,,,,,,,,,60fdd91a1ede7111c86df9f0,61037184628f7e11517ae597,2021-07-29_21h11.47.183,Simcolourproject_2stim_asymm_v5,2020.2.10,Win32,60,61025ae37ef11b136ea224fe,,,,,,,,,4199,54,70.5,1,0,0,response1disk,,7,14,-5.5,1,0,0,rectangle,14,-5.5,1,0,0,14,-5.5,1,0,0,0,76,76,114,1,,,,,,,,
,,,,,,,,,,,,,FF,,,,,,,,1.451,,,,,,,,,,,,,,,,,,,,,,60fdd91a1ede7111c86df9f0,61037184628f7e11517ae597,2021-07-29_21h11.47.183,Simcolourproject_2stim_asymm_v5,2020.2.10,Win32,60,61025ae37ef11b136ea224fe,,,,,,,,,528,71,-28.5,1,0,0,response3disk,,5,7,1.5,1,0,0,rectangle,7,1.5,1,0,0,7,1.5,1,0,0,0,77,77,132,1,,,,,,,,
,,,,,,,,,,,,,FF,,,,,,,,1.532,,,,,,,,,,,,,,,,,,,,,,60fdd91a1ede7111c86df9f0,61037184628f7e11517ae597,2021-07-29_21h11.47.183,Simcolourproject_2stim_asymm_v5,2020.2.10,Win32,60,61025ae37ef11b136ea224fe,,,,,,,,,3604,43,79.5,1,0,0,response1disk,,7,16,-5.5,1,0,0,rectangle,16,-5.5,1,0,0,16,-5.5,1,0,0,0,78,78,46,1,,,,,,,,
,,,,,,,,,,,,,FF,,,,,,,,0.574,,,,,,,,,,,,,,,,,,,,,,60fdd91a1ede7111c86df9f0,61037184628f7e11517ae597,2021-07-29_21h11.47.183,Simcolourproject_2stim_asymm_v5,2020.2.10,Win32,60,61025ae37ef11b136ea224fe,,,,,,,,,3448,35,67.5,1,0,0,response1disk,,7,15,-15.5,1,0,0,rectangle,15,-15.5,1,0,0,15,-15.5,1,0,0,0,79,79,24,1,,,,,,,,
,,,,,,,,,,,,,FF,,,,,,,,0.785,,,,,,,,,,,,,,,,,,,,,,60fdd91a1ede7111c86df9f0,61037184628f7e11517ae597,2021-07-29_21h11.47.183,Simcolourproject_2stim_asymm_v5,2020.2.10,Win32,60,61025ae37ef11b136ea224fe,,,,,,,,,3960,37,58.5,1,0,0,response1disk,,7,17,3.5,1,0,0,rectangle,17,3.5,1,0,0,17,3.5,1,0,0,0,80,80,70,1,,,,,,,,
,,,,,,,,,,,,,FF,,,,,,,,0.585,,,,,,,,,,,,,,,,,,,,,,60fdd91a1ede7111c86df9f0,61037184628f7e11517ae597,2021-07-29_21h11.47.183,Simcolourproject_2stim_asymm_v5,2020.2.10,Win32,60,61025ae37ef11b136ea224fe,,,,,,,,,414,39,57.5,1,0,0,response1disk,,7,19,3.5,1,0,0,rectangle,19,3.5,1,0,0,19,3.5,1,0,0,0,81,81,61,1,,,,,,,,
,,,,,,,,,,,,,FF,,,,,,,,0.714,,,,,,,,,,,,,,,,,,,,,,60fdd91a1ede7111c86df9f0,61037184628f7e11517ae597,2021-07-29_21h11.47.183,Simcolourproject_2stim_asymm_v5,2020.2.10,Win32,60,61025ae37ef11b136ea224fe,,,,,,,,,1713,37,65.5,1,0,0,response1disk,,7,19,-0.5,1,0,0,rectangle,36,88.5,1,0,0,19,-8.5,1,0,0,0,82,82,72,1,,response1disk_3,TRUE,7,7,"[83,70,286,266,264,34,134,299,103,247,256,177,145,295,126,268,125,204,204,197]",1.166,rectangle
,,,,,,,,,,,,,FF,,,,,,,,1.409,,,,,,,,,,,,,,,,,,,,,,60fdd91a1ede7111c86df9f0,61037184628f7e11517ae597,2021-07-29_21h11.47.183,Simcolourproject_2stim_asymm_v5,2020.2.10,Win32,60,61025ae37ef11b136ea224fe,,,,,,,,,2515,36,64.5,1,0,0,response1disk,,7,29,13.5,1,0,0,rectangle,29,13.5,1,0,0,29,13.5,1,0,0,0,83,83,43,1,,,,,,,,
,,,,,,,,,,,,,FF,,,,,,,,0.806,,,,,,,,,,,,,,,,,,,,,,60fdd91a1ede7111c86df9f0,61037184628f7e11517ae597,2021-07-29_21h11.47.183,Simcolourproject_2stim_asymm_v5,2020.2.10,Win32,60,61025ae37ef11b136ea224fe,,,,,,,,,1917,43,64.5,1,0,0,response1disk,,7,31,1.5,1,0,0,rectangle,31,1.5,1,0,0,31,1.5,1,0,0,0,84,84,155,1,,,,,,,,
,,,,,,,,,,,,,FF,,,,,,,,0.57,,,,,,,,,,,,,,,,,,,,,,60fdd91a1ede7111c86df9f0,61037184628f7e11517ae597,2021-07-29_21h11.47.183,Simcolourproject_2stim_asymm_v5,2020.2.10,Win32,60,61025ae37ef11b136ea224fe,,,,,,,,,2979,40,68.5,1,0,0,response1disk,,7,24,-14.5,1,0,0,rectangle,24,-14.5,1,0,0,24,-14.5,1,0,0,0,85,85,8,1,,,,,,,,
,,,,,,,,,,,,,FF,,,,,,,,0.466,,,,,,,,,,,,,,,,,,,,,,60fdd91a1ede7111c86df9f0,61037184628f7e11517ae597,2021-07-29_21h11.47.183,Simcolourproject_2stim_asymm_v5,2020.2.10,Win32,60,61025ae37ef11b136ea224fe,,,,,,,,,1332,31,51.5,1,0,0,response1disk,,7,16,-10.5,1,0,0,rectangle,16,-10.5,1,0,0,16,-10.5,1,0,0,0,86,86,111,1,,,,,,,,
,,,,,,,,,,,,,FF,,,,,,,,1.456,,,,,,,,,,,,,,,,,,,,,,60fdd91a1ede7111c86df9f0,61037184628f7e11517ae597,2021-07-29_21h11.47.183,Simcolourproject_2stim_asymm_v5,2020.2.10,Win32,60,61025ae37ef11b136ea224fe,,,,,,,,,4000,51,37.5,1,0,0,response1disk,,6,12,-5.5,1,0,0,rectangle,12,-5.5,1,0,0,12,-5.5,1,0,0,0,87,87,35,1,,,,,,,,
,,,,,,,,,,,,,FF,,,,,,,,0.565,,,,,,,,,,,,,,,,,,,,,,60fdd91a1ede7111c86df9f0,61037184628f7e11517ae597,2021-07-29_21h11.47.183,Simcolourproject_2stim_asymm_v5,2020.2.10,Win32,60,61025ae37ef11b136ea224fe,,,,,,,,,2992,35,70.5,1,0,0,response1disk,,7,17,-6.5,1,0,0,rectangle,17,-6.5,1,0,0,17,-6.5,1,0,0,0,88,88,95,1,,,,,,,,
,,,,,,,,,,,,,FF,,,,,,,,1.113,,,,,,,,,,,,,,,,,,,,,,60fdd91a1ede7111c86df9f0,61037184628f7e11517ae597,2021-07-29_21h11.47.183,Simcolourproject_2stim_asymm_v5,2020.2.10,Win32,60,61025ae37ef11b136ea224fe,,,,,,,,,3983,59,26.5,1,0,0,response1disk,,6,17,0.5,1,0,0,rectangle,17,0.5,1,0,0,17,0.5,1,0,0,0,89,89,127,1,,,,,,,,
,,,,,,,,,,,,,FF,,,,,,,,0.683,,,,,,,,,,,,,,,,,,,,,,60fdd91a1ede7111c86df9f0,61037184628f7e11517ae597,2021-07-29_21h11.47.183,Simcolourproject_2stim_asymm_v5,2020.2.10,Win32,60,61025ae37ef11b136ea224fe,,,,,,,,,2756,39,55.5,1,0,0,response1disk,,7,17,-0.5,1,0,0,rectangle,17,-0.5,1,0,0,17,-0.5,1,0,0,0,90,90,17,1,,,,,,,,
,,,,,,,,,,,,,FF,,,,,,,,0.553,,,,,,,,,,,,,,,,,,,,,,60fdd91a1ede7111c86df9f0,61037184628f7e11517ae597,2021-07-29_21h11.47.183,Simcolourproject_2stim_asymm_v5,2020.2.10,Win32,60,61025ae37ef11b136ea224fe,,,,,,,,,1908,33,55.5,1,0,0,response1disk,,7,24,-2.5,1,0,0,rectangle,24,-2.5,1,0,0,24,-2.5,1,0,0,0,91,91,110,1,,,,,,,,
,,,,,,,,,,,,,FF,,,,,,,,0.465,,,,,,,,,,,,,,,,,,,,,,60fdd91a1ede7111c86df9f0,61037184628f7e11517ae597,2021-07-29_21h11.47.183,Simcolourproject_2stim_asymm_v5,2020.2.10,Win32,60,61025ae37ef11b136ea224fe,,,,,,,,,482,32,39.5,1,0,0,response1disk,,7,27,-7.5,1,0,0,rectangle,27,-7.5,1,0,0,27,-7.5,1,0,0,0,92,92,107,1,,,,,,,,
,,,,,,,,,,,,,FF,,,,,,,,1.716,,,,,,,,,,,,,,,,,,,,,,60fdd91a1ede7111c86df9f0,61037184628f7e11517ae597,2021-07-29_21h11.47.183,Simcolourproject_2stim_asymm_v5,2020.2.10,Win32,60,61025ae37ef11b136ea224fe,,,,,,,,,3922,48,28.5,1,0,0,response1disk,,6,22,5.5,1,0,0,rectangle,22,5.5,1,0,0,22,5.5,1,0,0,0,93,93,32,1,,,,,,,,
,,,,,,,,,,,,,FF,,,,,,,,0.597,,,,,,,,,,,,,,,,,,,,,,60fdd91a1ede7111c86df9f0,61037184628f7e11517ae597,2021-07-29_21h11.47.183,Simcolourproject_2stim_asymm_v5,2020.2.10,Win32,60,61025ae37ef11b136ea224fe,,,,,,,,,1033,35,66.5,1,0,0,response1disk,,7,20,-11.5,1,0,0,rectangle,20,-11.5,1,0,0,20,-11.5,1,0,0,0,94,94,154,1,,,,,,,,
,,,,,,,,,,,,,FF,,,,,,,,0.794,,,,,,,,,,,,,,,,,,,,,,60fdd91a1ede7111c86df9f0,61037184628f7e11517ae597,2021-07-29_21h11.47.183,Simcolourproject_2stim_asymm_v5,2020.2.10,Win32,60,61025ae37ef11b136ea224fe,,,,,,,,,1647,29,57.5,1,0,0,response1disk,,7,19,4.5,1,0,0,rectangle,19,4.5,1,0,0,19,4.5,1,0,0,0,95,95,134,1,,,,,,,,
,,,,,,,,,,,,,FF,,,,,,,,0.499,,,,,,,,,,,,,,,,,,,,,,60fdd91a1ede7111c86df9f0,61037184628f7e11517ae597,2021-07-29_21h11.47.183,Simcolourproject_2stim_asymm_v5,2020.2.10,Win32,60,61025ae37ef11b136ea224fe,,,,,,,,,4061,38,69.5,1,0,0,response1disk,,7,24,-1.5,1,0,0,rectangle,24,-1.5,1,0,0,24,-1.5,1,0,0,0,96,96,109,1,,,,,,,,
,,,,,,,,,,,,,FF,,,,,,,,0.59,,,,,,,,,,,,,,,,,,,,,,60fdd91a1ede7111c86df9f0,61037184628f7e11517ae597,2021-07-29_21h11.47.183,Simcolourproject_2stim_asymm_v5,2020.2.10,Win32,60,61025ae37ef11b136ea224fe,,,,,,,,,2087,41,66.5,1,0,0,response1disk,,7,25,-0.5,1,0,0,rectangle,25,-0.5,1,0,0,25,-0.5,1,0,0,0,97,97,133,1,,,,,,,,
,,,,,,,,,,,,,FF,,,,,,,,0.528,,,,,,,,,,,,,,,,,,,,,,60fdd91a1ede7111c86df9f0,61037184628f7e11517ae597,2021-07-29_21h11.47.183,Simcolourproject_2stim_asymm_v5,2020.2.10,Win32,60,61025ae37ef11b136ea224fe,,,,,,,,,1838,40,62.5,1,0,0,response1disk,,7,21,-7.5,1,0,0,rectangle,21,-7.5,1,0,0,21,-7.5,1,0,0,0,98,98,112,1,,,,,,,,
,,,,,,,,,,,,,FF,,,,,,,,1.191,,,,,,,,,,,,,,,,,,,,,,60fdd91a1ede7111c86df9f0,61037184628f7e11517ae597,2021-07-29_21h11.47.183,Simcolourproject_2stim_asymm_v5,2020.2.10,Win32,60,61025ae37ef11b136ea224fe,,,,,,,,,2820,38,58.5,1,0,0,response1disk,,7,19,-1.5,1,0,0,rectangle,19,-1.5,1,0,0,19,-1.5,1,0,0,0,99,99,37,1,,,,,,,,
,,,,,,,,,,,,,FF,,,,,,,,0.566,,,,,,,,,,,,,,,,,,,,,,60fdd91a1ede7111c86df9f0,61037184628f7e11517ae597,2021-07-29_21h11.47.183,Simcolourproject_2stim_asymm_v5,2020.2.10,Win32,60,61025ae37ef11b136ea224fe,,,,,,,,,2474,35,69.5,1,0,0,response1disk,,7,22,-14.5,1,0,0,rectangle,22,-14.5,1,0,0,22,-14.5,1,0,0,0,100,100,98,1,,,,,,,,
,,,,,,,,,,,,,FF,,,,,,,,0.999,,,,,,,,,,,,,,,,,,,,,,60fdd91a1ede7111c86df9f0,61037184628f7e11517ae597,2021-07-29_21h11.47.183,Simcolourproject_2stim_asymm_v5,2020.2.10,Win32,60,61025ae37ef11b136ea224fe,,,,,,,,,532,61,-30.5,1,0,0,response3disk,,5,5,-17.5,1,0,0,rectangle,5,-17.5,1,0,0,5,-17.5,1,0,0,0,101,101,12,1,,,,,,,,
,,,,,,,,,,,,,FF,,,,,,,,1.435,,,,,,,,,,,,,,,,,,,,,,60fdd91a1ede7111c86df9f0,61037184628f7e11517ae597,2021-07-29_21h11.47.183,Simcolourproject_2stim_asymm_v5,2020.2.10,Win32,60,61025ae37ef11b136ea224fe,,,,,,,,,3682,31,57.5,1,0,0,response1disk,,7,17,7.5,1,0,0,rectangle,-63,25.5,1,0,0,8,1.5,1,0,0,0,102,102,103,1,,response7disk_3,TRUE,1,1,"[83,70,286,266,264,34,134,299,103,247,256,177,145,295,126,268,125,204,204,197]",1.305,rectangle
,,,,,,,,,,,,,FF,,,,,,,,1.012,,,,,,,,,,,,,,,,,,,,,,60fdd91a1ede7111c86df9f0,61037184628f7e11517ae597,2021-07-29_21h11.47.183,Simcolourproject_2stim_asymm_v5,2020.2.10,Win32,60,61025ae37ef11b136ea224fe,,,,,,,,,160,38,77.5,1,0,0,response1disk,,7,17,6.5,1,0,0,rectangle,17,6.5,1,0,0,17,6.5,1,0,0,0,103,103,115,1,,,,,,,,
,,,,,,,,,,,,,FF,,,,,,,,0.571,,,,,,,,,,,,,,,,,,,,,,60fdd91a1ede7111c86df9f0,61037184628f7e11517ae597,2021-07-29_21h11.47.183,Simcolourproject_2stim_asymm_v5,2020.2.10,Win32,60,61025ae37ef11b136ea224fe,,,,,,,,,1378,35,65.5,1,0,0,response1disk,,7,14,-1.5,1,0,0,rectangle,14,-1.5,1,0,0,14,-1.5,1,0,0,0,104,104,28,1,,,,,,,,
,,,,,,,,,,,,,FF,,,,,,,,0.601,,,,,,,,,,,,,,,,,,,,,,60fdd91a1ede7111c86df9f0,61037184628f7e11517ae597,2021-07-29_21h11.47.183,Simcolourproject_2stim_asymm_v5,2020.2.10,Win32,60,61025ae37ef11b136ea224fe,,,,,,,,,2482,40,81.5,1,0,0,response1disk,,7,19,0.5,1,0,0,rectangle,19,0.5,1,0,0,19,0.5,1,0,0,0,105,105,67,1,,,,,,,,
,,,,,,,,,,,,,FF,,,,,,,,1.816,,,,,,,,,,,,,,,,,,,,,,60fdd91a1ede7111c86df9f0,61037184628f7e11517ae597,2021-07-29_21h11.47.183,Simcolourproject_2stim_asymm_v5,2020.2.10,Win32,60,61025ae37ef11b136ea224fe,,,,,,,,,634,39,-62.5,1,0,0,response3disk,,4,9,-0.5,1,0,0,rectangle,9,-0.5,1,0,0,9,-0.5,1,0,0,0,106,106,119,1,,,,,,,,
,,,,,,,,,,,,,FF,,,,,,,,0.652,,,,,,,,,,,,,,,,,,,,,,60fdd91a1ede7111c86df9f0,61037184628f7e11517ae597,2021-07-29_21h11.47.183,Simcolourproject_2stim_asymm_v5,2020.2.10,Win32,60,61025ae37ef11b136ea224fe,,,,,,,,,4090,29,71.5,1,0,0,response1disk,,7,18,5.5,1,0,0,rectangle,18,5.5,1,0,0,18,5.5,1,0,0,0,107,107,65,1,,,,,,,,
,,,,,,,,,,,,,FF,,,,,,,,0.719,,,,,,,,,,,,,,,,,,,,,,60fdd91a1ede7111c86df9f0,61037184628f7e11517ae597,2021-07-29_21h11.47.183,Simcolourproject_2stim_asymm_v5,2020.2.10,Win32,60,61025ae37ef11b136ea224fe,,,,,,,,,1158,47,59.5,1,0,0,response1disk,,7,31,11.5,1,0,0,rectangle,31,11.5,1,0,0,31,11.5,1,0,0,0,108,108,156,1,,,,,,,,
,,,,,,,,,,,,,FF,,,,,,,,0.857,,,,,,,,,,,,,,,,,,,,,,60fdd91a1ede7111c86df9f0,61037184628f7e11517ae597,2021-07-29_21h11.47.183,Simcolourproject_2stim_asymm_v5,2020.2.10,Win32,60,61025ae37ef11b136ea224fe,,,,,,,,,2931,61,94.5,1,0,0,response1disk,,7,29,1.5,1,0,0,rectangle,29,1.5,1,0,0,29,1.5,1,0,0,0,109,109,124,1,,,,,,,,
,,,,,,,,,,,,,FF,,,,,,,,1.967,,,,,,,,,,,,,,,,,,,,,,60fdd91a1ede7111c86df9f0,61037184628f7e11517ae597,2021-07-29_21h11.47.183,Simcolourproject_2stim_asymm_v5,2020.2.10,Win32,60,61025ae37ef11b136ea224fe,,,,,,,,,2549,71,97.5,1,0,0,response1disk,,7,20,1.5,1,0,0,rectangle,20,1.5,1,0,0,20,1.5,1,0,0,0,110,110,4,1,,,,,,,,
,,,,,,,,,,,,,FF,,,,,,,,1.416,,,,,,,,,,,,,,,,,,,,,,60fdd91a1ede7111c86df9f0,61037184628f7e11517ae597,2021-07-29_21h11.47.183,Simcolourproject_2stim_asymm_v5,2020.2.10,Win32,60,61025ae37ef11b136ea224fe,,,,,,,,,291,43,62.5,1,0,0,response1disk,,7,-1,-0.5,1,0,0,rectangle,-1,-0.5,1,0,0,-1,-0.5,1,0,0,0,111,111,117,1,,,,,,,,
,,,,,,,,,,,,,FF,,,,,,,,0.65,,,,,,,,,,,,,,,,,,,,,,60fdd91a1ede7111c86df9f0,61037184628f7e11517ae597,2021-07-29_21h11.47.183,Simcolourproject_2stim_asymm_v5,2020.2.10,Win32,60,61025ae37ef11b136ea224fe,,,,,,,,,1285,55,98.5,1,0,0,response1disk,,7,22,11.5,1,0,0,rectangle,22,11.5,1,0,0,22,11.5,1,0,0,0,112,112,59,1,,,,,,,,
,,,,,,,,,,,,,FF,,,,,,,,0.95,,,,,,,,,,,,,,,,,,,,,,60fdd91a1ede7111c86df9f0,61037184628f7e11517ae597,2021-07-29_21h11.47.183,Simcolourproject_2stim_asymm_v5,2020.2.10,Win32,60,61025ae37ef11b136ea224fe,,,,,,,,,3630,-53,85.5,1,0,0,response7disk,,0,18,9.5,1,0,0,rectangle,18,9.5,1,0,0,18,9.5,1,0,0,0,113,113,138,1,,,,,,,,
,,,,,,,,,,,,,FF,,,,,,,,0.95,,,,,,,,,,,,,,,,,,,,,,60fdd91a1ede7111c86df9f0,61037184628f7e11517ae597,2021-07-29_21h11.47.183,Simcolourproject_2stim_asymm_v5,2020.2.10,Win32,60,61025ae37ef11b136ea224fe,,,,,,,,,3533,51,99.5,1,0,0,response1disk,,7,15,-3.5,1,0,0,rectangle,15,-3.5,1,0,0,15,-3.5,1,0,0,0,114,114,116,1,,,,,,,,
,,,,,,,,,,,,,FF,,,,,,,,0.734,,,,,,,,,,,,,,,,,,,,,,60fdd91a1ede7111c86df9f0,61037184628f7e11517ae597,2021-07-29_21h11.47.183,Simcolourproject_2stim_asymm_v5,2020.2.10,Win32,60,61025ae37ef11b136ea224fe,,,,,,,,,2385,35,80.5,1,0,0,response1disk,,7,21,-2.5,1,0,0,rectangle,21,-2.5,1,0,0,21,-2.5,1,0,0,0,115,115,104,1,,,,,,,,
,,,,,,,,,,,,,FF,,,,,,,,0.393,,,,,,,,,,,,,,,,,,,,,,60fdd91a1ede7111c86df9f0,61037184628f7e11517ae597,2021-07-29_21h11.47.183,Simcolourproject_2stim_asymm_v5,2020.2.10,Win32,60,61025ae37ef11b136ea224fe,,,,,,,,,1323,43,75.5,1,0,0,response1disk,,7,24,7.5,1,0,0,rectangle,24,7.5,1,0,0,24,7.5,1,0,0,0,116,116,0,1,,,,,,,,
,,,,,,,,,,,,,FF,,,,,,,,1.385,,,,,,,,,,,,,,,,,,,,,,60fdd91a1ede7111c86df9f0,61037184628f7e11517ae597,2021-07-29_21h11.47.183,Simcolourproject_2stim_asymm_v5,2020.2.10,Win32,60,61025ae37ef11b136ea224fe,,,,,,,,,1957,38,-59.5,1,0,0,response3disk,,4,-5,13.5,1,0,0,rectangle,-5,13.5,1,0,0,-5,13.5,1,0,0,0,117,117,125,1,,,,,,,,
,,,,,,,,,,,,,FF,,,,,,,,0.733,,,,,,,,,,,,,,,,,,,,,,60fdd91a1ede7111c86df9f0,61037184628f7e11517ae597,2021-07-29_21h11.47.183,Simcolourproject_2stim_asymm_v5,2020.2.10,Win32,60,61025ae37ef11b136ea224fe,,,,,,,,,319,55,89.5,1,0,0,response1disk,,7,21,8.5,1,0,0,rectangle,21,8.5,1,0,0,21,8.5,1,0,0,0,118,118,52,1,,,,,,,,
,,,,,,,,,,,,,FF,,,,,,,,1.256,,,,,,,,,,,,,,,,,,,,,,60fdd91a1ede7111c86df9f0,61037184628f7e11517ae597,2021-07-29_21h11.47.183,Simcolourproject_2stim_asymm_v5,2020.2.10,Win32,60,61025ae37ef11b136ea224fe,,,,,,,,,3912,63,-34.5,1,0,0,response3disk,,5,0,-8.5,1,0,0,rectangle,0,-8.5,1,0,0,0,-8.5,1,0,0,0,119,119,63,1,,,,,,,,
,,,,,,,,,,,,,FF,,,,,,,,2.219,,,,,,,,,,,,,,,,,,,,,,60fdd91a1ede7111c86df9f0,61037184628f7e11517ae597,2021-07-29_21h11.47.183,Simcolourproject_2stim_asymm_v5,2020.2.10,Win32,60,61025ae37ef11b136ea224fe,,,,,,,,,2664,83,27.5,1,0,0,response1disk,,6,7,-3.5,1,0,0,rectangle,7,-3.5,1,0,0,7,-3.5,1,0,0,0,120,120,94,1,,,,,,,,
,,,,,,,,,,,,,FF,,,,,,,,1.866,,,,,,,,,,,,,,,,,,,,,,60fdd91a1ede7111c86df9f0,61037184628f7e11517ae597,2021-07-29_21h11.47.183,Simcolourproject_2stim_asymm_v5,2020.2.10,Win32,60,61025ae37ef11b136ea224fe,,,,,,,,,2361,74,29.5,1,0,0,response1disk,,6,9,-5.5,1,0,0,rectangle,9,-5.5,1,0,0,9,-5.5,1,0,0,0,121,121,145,1,,,,,,,,
,,,,,,,,,,,,,FF,,,,,,,,0.92,,,,,,,,,,,,,,,,,,,,,,60fdd91a1ede7111c86df9f0,61037184628f7e11517ae597,2021-07-29_21h11.47.183,Simcolourproject_2stim_asymm_v5,2020.2.10,Win32,60,61025ae37ef11b136ea224fe,,,,,,,,,3566,33,77.5,1,0,0,response1disk,,7,13,-2.5,1,0,0,rectangle,13,-2.5,1,0,0,13,-2.5,1,0,0,0,122,122,136,1,,,,,,,,
,,,,,,,,,,,,,FF,,,,,,,,1.349,,,,,,,,,,,,,,,,,,,,,,60fdd91a1ede7111c86df9f0,61037184628f7e11517ae597,2021-07-29_21h11.47.183,Simcolourproject_2stim_asymm_v5,2020.2.10,Win32,60,61025ae37ef11b136ea224fe,,,,,,,,,3746,51,-36.5,1,0,0,response3disk,,5,23,1.5,1,0,0,rectangle,23,1.5,1,0,0,23,1.5,1,0,0,0,123,123,91,1,,,,,,,,
,,,,,,,,,,,,,FF,,,,,,,,0.867,,,,,,,,,,,,,,,,,,,,,,60fdd91a1ede7111c86df9f0,61037184628f7e11517ae597,2021-07-29_21h11.47.183,Simcolourproject_2stim_asymm_v5,2020.2.10,Win32,60,61025ae37ef11b136ea224fe,,,,,,,,,1507,41,61.5,1,0,0,response1disk,,7,16,2.5,1,0,0,rectangle,-85,-40.5,1,0,0,10,13.5,1,0,0,0,124,124,30,1,,response5disk_3,TRUE,2,2,"[83,70,286,266,264,34,134,299,103,247,256,177,145,295,126,268,125,204,204,197]",1.634,rectangle
,,,,,,,,,,,,,FF,,,,,,,,1.967,,,,,,,,,,,,,,,,,,,,,,60fdd91a1ede7111c86df9f0,61037184628f7e11517ae597,2021-07-29_21h11.47.183,Simcolourproject_2stim_asymm_v5,2020.2.10,Win32,60,61025ae37ef11b136ea224fe,,,,,,,,,1195,47,70.5,1,0,0,response1disk,,7,15,-1.5,1,0,0,rectangle,-68,23.5,1,0,0,12,2.5,1,0,0,0,125,125,10,1,,response7disk_3,TRUE,1,1,"[83,70,286,266,264,34,134,299,103,247,256,177,145,295,126,268,125,204,204,197]",1.27,rectangle
,,,,,,,,,,,,,FF,,,,,,,,0.969,,,,,,,,,,,,,,,,,,,,,,60fdd91a1ede7111c86df9f0,61037184628f7e11517ae597,2021-07-29_21h11.47.183,Simcolourproject_2stim_asymm_v5,2020.2.10,Win32,60,61025ae37ef11b136ea224fe,,,,,,,,,3466,39,55.5,1,0,0,response1disk,,7,13,-0.5,1,0,0,rectangle,13,-0.5,1,0,0,13,-0.5,1,0,0,0,126,126,62,1,,,,,,,,
,,,,,,,,,,,,,FF,,,,,,,,0.583,,,,,,,,,,,,,,,,,,,,,,60fdd91a1ede7111c86df9f0,61037184628f7e11517ae597,2021-07-29_21h11.47.183,Simcolourproject_2stim_asymm_v5,2020.2.10,Win32,60,61025ae37ef11b136ea224fe,,,,,,,,,3801,24,61.5,1,0,0,response1disk,,7,9,-11.5,1,0,0,rectangle,9,-11.5,1,0,0,9,-11.5,1,0,0,0,127,127,102,1,,,,,,,,
,,,,,,,,,,,,,FF,,,,,,,,0.767,,,,,,,,,,,,,,,,,,,,,,60fdd91a1ede7111c86df9f0,61037184628f7e11517ae597,2021-07-29_21h11.47.183,Simcolourproject_2stim_asymm_v5,2020.2.10,Win32,60,61025ae37ef11b136ea224fe,,,,,,,,,230,33,51.5,1,0,0,response1disk,,7,15,4.5,1,0,0,rectangle,15,4.5,1,0,0,15,4.5,1,0,0,0,128,128,126,1,,,,,,,,
,,,,,,,,,,,,,FF,,,,,,,,0.868,,,,,,,,,,,,,,,,,,,,,,60fdd91a1ede7111c86df9f0,61037184628f7e11517ae597,2021-07-29_21h11.47.183,Simcolourproject_2stim_asymm_v5,2020.2.10,Win32,60,61025ae37ef11b136ea224fe,,,,,,,,,1148,46,68.5,1,0,0,response1disk,,7,1,-17.5,1,0,0,rectangle,1,-17.5,1,0,0,1,-17.5,1,0,0,0,129,129,5,1,,,,,,,,
,,,,,,,,,,,,,FF,,,,,,,,1.167,,,,,,,,,,,,,,,,,,,,,,60fdd91a1ede7111c86df9f0,61037184628f7e11517ae597,2021-07-29_21h11.47.183,Simcolourproject_2stim_asymm_v5,2020.2.10,Win32,60,61025ae37ef11b136ea224fe,,,,,,,,,459,75,48.5,1,0,0,response1disk,,6,17,1.5,1,0,0,rectangle,17,1.5,1,0,0,17,1.5,1,0,0,0,130,130,108,1,,,,,,,,
,,,,,,,,,,,,,FF,,,,,,,,0.851,,,,,,,,,,,,,,,,,,,,,,60fdd91a1ede7111c86df9f0,61037184628f7e11517ae597,2021-07-29_21h11.47.183,Simcolourproject_2stim_asymm_v5,2020.2.10,Win32,60,61025ae37ef11b136ea224fe,,,,,,,,,779,25,70.5,1,0,0,response1disk,,7,10,9.5,1,0,0,rectangle,10,9.5,1,0,0,10,9.5,1,0,0,0,131,131,137,1,,,,,,,,
,,,,,,,,,,,,,FF,,,,,,,,0.813,,,,,,,,,,,,,,,,,,,,,,60fdd91a1ede7111c86df9f0,61037184628f7e11517ae597,2021-07-29_21h11.47.183,Simcolourproject_2stim_asymm_v5,2020.2.10,Win32,60,61025ae37ef11b136ea224fe,,,,,,,,,3949,35,70.5,1,0,0,response1disk,,7,26,-3.5,1,0,0,rectangle,26,-3.5,1,0,0,26,-3.5,1,0,0,0,132,132,151,1,,,,,,,,
,,,,,,,,,,,,,FF,,,,,,,,0.574,,,,,,,,,,,,,,,,,,,,,,60fdd91a1ede7111c86df9f0,61037184628f7e11517ae597,2021-07-29_21h11.47.183,Simcolourproject_2stim_asymm_v5,2020.2.10,Win32,60,61025ae37ef11b136ea224fe,,,,,,,,,3758,52,73.5,1,0,0,response1disk,,7,-4,7.5,1,0,0,rectangle,76,25.5,1,0,0,13,-11.5,1,0,0,0,133,133,81,1,,response1disk_3,TRUE,6,6,"[83,70,286,266,264,34,134,299,103,247,256,177,145,295,126,268,125,204,204,197]",1.38,rectangle
,,,,,,,,,,,,,FF,,,,,,,,1.724,,,,,,,,,,,,,,,,,,,,,,60fdd91a1ede7111c86df9f0,61037184628f7e11517ae597,2021-07-29_21h11.47.183,Simcolourproject_2stim_asymm_v5,2020.2.10,Win32,60,61025ae37ef11b136ea224fe,,,,,,,,,4358,29,73.5,1,0,0,response1disk,,7,14,7.5,1,0,0,rectangle,14,7.5,1,0,0,14,7.5,1,0,0,0,134,134,50,1,,,,,,,,
,,,,,,,,,,,,,FF,,,,,,,,1.184,,,,,,,,,,,,,,,,,,,,,,60fdd91a1ede7111c86df9f0,61037184628f7e11517ae597,2021-07-29_21h11.47.183,Simcolourproject_2stim_asymm_v5,2020.2.10,Win32,60,61025ae37ef11b136ea224fe,,,,,,,,,1052,85,-42.5,1,0,0,response3disk,,5,15,-2.5,1,0,0,rectangle,15,-2.5,1,0,0,15,-2.5,1,0,0,0,135,135,153,1,,,,,,,,
,,,,,,,,,,,,,FF,,,,,,,,0.783,,,,,,,,,,,,,,,,,,,,,,60fdd91a1ede7111c86df9f0,61037184628f7e11517ae597,2021-07-29_21h11.47.183,Simcolourproject_2stim_asymm_v5,2020.2.10,Win32,60,61025ae37ef11b136ea224fe,,,,,,,,,4192,35,55.5,1,0,0,response1disk,,7,13,-0.5,1,0,0,rectangle,13,-0.5,1,0,0,13,-0.5,1,0,0,0,136,136,140,1,,,,,,,,
,,,,,,,,,,,,,FF,,,,,,,,1.749,,,,,,,,,,,,,,,,,,,,,,60fdd91a1ede7111c86df9f0,61037184628f7e11517ae597,2021-07-29_21h11.47.183,Simcolourproject_2stim_asymm_v5,2020.2.10,Win32,60,61025ae37ef11b136ea224fe,,,,,,,,,870,38,61.5,1,0,0,response1disk,,7,11,-10.5,1,0,0,rectangle,11,-10.5,1,0,0,11,-10.5,1,0,0,0,137,137,79,1,,,,,,,,
,,,,,,,,,,,,,FF,,,,,,,,0.584,,,,,,,,,,,,,,,,,,,,,,60fdd91a1ede7111c86df9f0,61037184628f7e11517ae597,2021-07-29_21h11.47.183,Simcolourproject_2stim_asymm_v5,2020.2.10,Win32,60,61025ae37ef11b136ea224fe,,,,,,,,,3279,37,56.5,1,0,0,response1disk,,7,14,-2.5,1,0,0,rectangle,14,-2.5,1,0,0,14,-2.5,1,0,0,0,138,138,100,1,,,,,,,,
,,,,,,,,,,,,,FF,,,,,,,,0.655,,,,,,,,,,,,,,,,,,,,,,60fdd91a1ede7111c86df9f0,61037184628f7e11517ae597,2021-07-29_21h11.47.183,Simcolourproject_2stim_asymm_v5,2020.2.10,Win32,60,61025ae37ef11b136ea224fe,,,,,,,,,3130,35,63.5,1,0,0,response1disk,,7,10,-4.5,1,0,0,rectangle,10,-4.5,1,0,0,10,-4.5,1,0,0,0,139,139,68,1,,,,,,,,
,,,,,,,,,,,,,FF,,,,,,,,0.571,,,,,,,,,,,,,,,,,,,,,,60fdd91a1ede7111c86df9f0,61037184628f7e11517ae597,2021-07-29_21h11.47.183,Simcolourproject_2stim_asymm_v5,2020.2.10,Win32,60,61025ae37ef11b136ea224fe,,,,,,,,,652,46,69.5,1,0,0,response1disk,,7,21,2.5,1,0,0,rectangle,21,2.5,1,0,0,21,2.5,1,0,0,0,140,140,34,1,,,,,,,,
,,,,,,,,,,,,,FF,,,,,,,,0.681,,,,,,,,,,,,,,,,,,,,,,60fdd91a1ede7111c86df9f0,61037184628f7e11517ae597,2021-07-29_21h11.47.183,Simcolourproject_2stim_asymm_v5,2020.2.10,Win32,60,61025ae37ef11b136ea224fe,,,,,,,,,462,34,43.5,1,0,0,response1disk,,7,11,-5.5,1,0,0,rectangle,11,-5.5,1,0,0,11,-5.5,1,0,0,0,141,141,101,1,,,,,,,,
,,,,,,,,,,,,,FF,,,,,,,,2.073,,,,,,,,,,,,,,,,,,,,,,60fdd91a1ede7111c86df9f0,61037184628f7e11517ae597,2021-07-29_21h11.47.183,Simcolourproject_2stim_asymm_v5,2020.2.10,Win32,60,61025ae37ef11b136ea224fe,,,,,,,,,3284,70,-40.5,1,0,0,response3disk,,5,-7,-6.5,1,0,0,rectangle,-7,-6.5,1,0,0,-7,-6.5,1,0,0,0,142,142,53,1,,,,,,,,
,,,,,,,,,,,,,FF,,,,,,,,1.516,,,,,,,,,,,,,,,,,,,,,,60fdd91a1ede7111c86df9f0,61037184628f7e11517ae597,2021-07-29_21h11.47.183,Simcolourproject_2stim_asymm_v5,2020.2.10,Win32,60,61025ae37ef11b136ea224fe,,,,,,,,,3238,63,36.5,1,0,0,response1disk,,6,13,3.5,1,0,0,rectangle,13,3.5,1,0,0,13,3.5,1,0,0,0,143,143,66,1,,,,,,,,
,,,,,,,,,,,,,FF,,,,,,,,0.918,,,,,,,,,,,,,,,,,,,,,,60fdd91a1ede7111c86df9f0,61037184628f7e11517ae597,2021-07-29_21h11.47.183,Simcolourproject_2stim_asymm_v5,2020.2.10,Win32,60,61025ae37ef11b136ea224fe,,,,,,,,,4361,-43,89.5,1,0,0,response7disk,,0,8,11.5,1,0,0,rectangle,30,81.5,1,0,0,6,3.5,1,0,0,0,144,144,76,1,,response1disk_3,TRUE,7,7,"[83,70,286,266,264,34,134,299,103,247,256,177,145,295,126,268,125,204,204,197]",1.449,rectangle
,,,,,,,,,,,,,FF,,,,,,,,0.789,,,,,,,,,,,,,,,,,,,,,,60fdd91a1ede7111c86df9f0,61037184628f7e11517ae597,2021-07-29_21h11.47.183,Simcolourproject_2stim_asymm_v5,2020.2.10,Win32,60,61025ae37ef11b136ea224fe,,,,,,,,,3612,31,65.5,1,0,0,response1disk,,7,9,5.5,1,0,0,rectangle,9,5.5,1,0,0,9,5.5,1,0,0,0,145,145,29,1,,,,,,,,
,,,,,,,,,,,,,FF,,,,,,,,0.763,,,,,,,,,,,,,,,,,,,,,,60fdd91a1ede7111c86df9f0,61037184628f7e11517ae597,2021-07-29_21h11.47.183,Simcolourproject_2stim_asymm_v5,2020.2.10,Win32,60,61025ae37ef11b136ea224fe,,,,,,,,,1851,30,55.5,1,0,0,response1disk,,7,10,-3.5,1,0,0,rectangle,10,-3.5,1,0,0,10,-3.5,1,0,0,0,146,146,38,1,,,,,,,,
,,,,,,,,,,,,,FF,,,,,,,,0.54,,,,,,,,,,,,,,,,,,,,,,60fdd91a1ede7111c86df9f0,61037184628f7e11517ae597,2021-07-29_21h11.47.183,Simcolourproject_2stim_asymm_v5,2020.2.10,Win32,60,61025ae37ef11b136ea224fe,,,,,,,,,1253,37,76.5,1,0,0,response1disk,,7,16,-9.5,1,0,0,rectangle,16,-9.5,1,0,0,16,-9.5,1,0,0,0,147,147,142,1,,,,,,,,
,,,,,,,,,,,,,FF,,,,,,,,0.616,,,,,,,,,,,,,,,,,,,,,,60fdd91a1ede7111c86df9f0,61037184628f7e11517ae597,2021-07-29_21h11.47.183,Simcolourproject_2stim_asymm_v5,2020.2.10,Win32,60,61025ae37ef11b136ea224fe,,,,,,,,,3215,27,51.5,1,0,0,response1disk,,7,14,-1.5,1,0,0,rectangle,14,-1.5,1,0,0,14,-1.5,1,0,0,0,148,148,90,1,,,,,,,,
,,,,,,,,,,,,,FF,,,,,,,,0.61,,,,,,,,,,,,,,,,,,,,,,60fdd91a1ede7111c86df9f0,61037184628f7e11517ae597,2021-07-29_21h11.47.183,Simcolourproject_2stim_asymm_v5,2020.2.10,Win32,60,61025ae37ef11b136ea224fe,,,,,,,,,4113,28,66.5,1,0,0,response1disk,,7,9,-9.5,1,0,0,rectangle,9,-9.5,1,0,0,9,-9.5,1,0,0,0,149,149,130,1,,,,,,,,
,,,,,,,,,,,,,FF,,,,,,,,0.632,,,,,,,,,,,,,,,,,,,,,,60fdd91a1ede7111c86df9f0,61037184628f7e11517ae597,2021-07-29_21h11.47.183,Simcolourproject_2stim_asymm_v5,2020.2.10,Win32,60,61025ae37ef11b136ea224fe,,,,,,,,,4311,33,61.5,1,0,0,response1disk,,7,13,-8.5,1,0,0,rectangle,13,-8.5,1,0,0,13,-8.5,1,0,0,0,150,150,40,1,,,,,,,,
,,,,,,,,,,,,,FF,,,,,,,,0.891,,,,,,,,,,,,,,,,,,,,,,60fdd91a1ede7111c86df9f0,61037184628f7e11517ae597,2021-07-29_21h11.47.183,Simcolourproject_2stim_asymm_v5,2020.2.10,Win32,60,61025ae37ef11b136ea224fe,,,,,,,,,265,57,21.5,1,0,0,response1disk,,6,7,-1.5,1,0,0,rectangle,7,-1.5,1,0,0,7,-1.5,1,0,0,0,151,151,78,1,,,,,,,,
,,,,,,,,,,,,,FF,,,,,,,,0.933,,,,,,,,,,,,,,,,,,,,,,60fdd91a1ede7111c86df9f0,61037184628f7e11517ae597,2021-07-29_21h11.47.183,Simcolourproject_2stim_asymm_v5,2020.2.10,Win32,60,61025ae37ef11b136ea224fe,,,,,,,,,512,34,59.5,1,0,0,response1disk,,7,16,-12.5,1,0,0,rectangle,16,-12.5,1,0,0,16,-12.5,1,0,0,0,152,152,45,1,,,,,,,,
,,,,,,,,,,,,,FF,,,,,,,,2.164,,,,,,,,,,,,,,,,,,,,,,60fdd91a1ede7111c86df9f0,61037184628f7e11517ae597,2021-07-29_21h11.47.183,Simcolourproject_2stim_asymm_v5,2020.2.10,Win32,60,61025ae37ef11b136ea224fe,,,,,,,,,3391,-35,-76.5,1,0,0,response5disk,,3,17,13.5,1,0,0,rectangle,17,13.5,1,0,0,17,13.5,1,0,0,0,153,153,92,1,,,,,,,,
,,,,,,,,,,,,,FF,,,,,,,,0.515,,,,,,,,,,,,,,,,,,,,,,60fdd91a1ede7111c86df9f0,61037184628f7e11517ae597,2021-07-29_21h11.47.183,Simcolourproject_2stim_asymm_v5,2020.2.10,Win32,60,61025ae37ef11b136ea224fe,,,,,,,,,1696,42,79.5,1,0,0,response1disk,,7,5,4.5,1,0,0,rectangle,5,4.5,1,0,0,5,4.5,1,0,0,0,154,154,27,1,,,,,,,,
,,,,,,,,,,,,,FF,,,,,,,,0.872,,,,,,,,,,,,,,,,,,,,,,60fdd91a1ede7111c86df9f0,61037184628f7e11517ae597,2021-07-29_21h11.47.183,Simcolourproject_2stim_asymm_v5,2020.2.10,Win32,60,61025ae37ef11b136ea224fe,,,,,,,,,2449,42,75.5,1,0,0,response1disk,,7,17,15.5,1,0,0,rectangle,17,15.5,1,0,0,17,15.5,1,0,0,0,155,155,44,1,,,,,,,,
,,,,,,,,,,,,,FF,,,,,,,,1.603,,,,,,,,,,,,,,,,,,,,,,60fdd91a1ede7111c86df9f0,61037184628f7e11517ae597,2021-07-29_21h11.47.183,Simcolourproject_2stim_asymm_v5,2020.2.10,Win32,60,61025ae37ef11b136ea224fe,,,,,,,,,2652,61,37.5,1,0,0,response1disk,,6,13,-17.5,1,0,0,rectangle,13,-17.5,1,0,0,13,-17.5,1,0,0,0,156,156,123,1,,,,,,,,
,,,,,,,,,,,,,FF,,,,,,,,0.665,,,,,,,,,,,,,,,,,,,,,,60fdd91a1ede7111c86df9f0,61037184628f7e11517ae597,2021-07-29_21h11.47.183,Simcolourproject_2stim_asymm_v5,2020.2.10,Win32,60,61025ae37ef11b136ea224fe,,,,,,,,,2417,45,81.5,1,0,0,response1disk,,7,16,-2.5,1,0,0,rectangle,16,-2.5,1,0,0,16,-2.5,1,0,0,0,157,157,121,1,,,,,,,,
,,,,,,,,,,,,,FF,,,,,,,,0.551,,,,,,,,,,,,,,,,,,,,,,60fdd91a1ede7111c86df9f0,61037184628f7e11517ae597,2021-07-29_21h11.47.183,Simcolourproject_2stim_asymm_v5,2020.2.10,Win32,60,61025ae37ef11b136ea224fe,,,,,,,,,910,41,75.5,1,0,0,response1disk,,7,15,2.5,1,0,0,rectangle,15,2.5,1,0,0,15,2.5,1,0,0,0,158,158,13,1,,,,,,,,
,,,,,,,,,,,,,FF,,,,,,,,0.476,,,,,,,,,,,,,,,,,,,,,,60fdd91a1ede7111c86df9f0,61037184628f7e11517ae597,2021-07-29_21h11.47.183,Simcolourproject_2stim_asymm_v5,2020.2.10,Win32,60,61025ae37ef11b136ea224fe,,,,,,,,,1585,37,53.5,1,0,0,response1disk,,7,13,3.5,1,0,0,rectangle,13,3.5,1,0,0,13,3.5,1,0,0,0,159,159,58,1,,,,,,,,
,,,,,,,,,,,,,FF,,,,,,,,0.45,,,,,,,,,,,,,,,,,,,,,,60fdd91a1ede7111c86df9f0,61037184628f7e11517ae597,2021-07-29_21h11.47.183,Simcolourproject_2stim_asymm_v5,2020.2.10,Win32,60,61025ae37ef11b136ea224fe,,,,,,,,,2129,35,59.5,1,0,0,response1disk,,7,8,-11.5,1,0,0,rectangle,8,-11.5,1,0,0,8,-11.5,1,0,0,1,0,160,63,1,,,,,,,,
,,,,,,,,,,,,,FF,,,,,,,,0.468,,,,,,,,,,,,,,,,,,,,,,60fdd91a1ede7111c86df9f0,61037184628f7e11517ae597,2021-07-29_21h11.47.183,Simcolourproject_2stim_asymm_v5,2020.2.10,Win32,60,61025ae37ef11b136ea224fe,,,,,,,,,2723,32,82.5,1,0,0,response1disk,,7,13,1.5,1,0,0,rectangle,13,1.5,1,0,0,13,1.5,1,0,0,1,1,161,68,1,,,,,,,,
,,,,,,,,,,,,,FF,,,,,,,,0.681,,,,,,,,,,,,,,,,,,,,,,60fdd91a1ede7111c86df9f0,61037184628f7e11517ae597,2021-07-29_21h11.47.183,Simcolourproject_2stim_asymm_v5,2020.2.10,Win32,60,61025ae37ef11b136ea224fe,,,,,,,,,4076,29,50.5,1,0,0,response1disk,,7,15,3.5,1,0,0,rectangle,15,3.5,1,0,0,15,3.5,1,0,0,1,2,162,134,1,,,,,,,,
,,,,,,,,,,,,,FF,,,,,,,,1.039,,,,,,,,,,,,,,,,,,,,,,60fdd91a1ede7111c86df9f0,61037184628f7e11517ae597,2021-07-29_21h11.47.183,Simcolourproject_2stim_asymm_v5,2020.2.10,Win32,60,61025ae37ef11b136ea224fe,,,,,,,,,635,54,35.5,1,0,0,response1disk,,6,17,7.5,1,0,0,rectangle,17,7.5,1,0,0,17,7.5,1,0,0,1,3,163,46,1,,,,,,,,
,,,,,,,,,,,,,FF,,,,,,,,0.739,,,,,,,,,,,,,,,,,,,,,,60fdd91a1ede7111c86df9f0,61037184628f7e11517ae597,2021-07-29_21h11.47.183,Simcolourproject_2stim_asymm_v5,2020.2.10,Win32,60,61025ae37ef11b136ea224fe,,,,,,,,,1777,30,52.5,1,0,0,response1disk,,7,10,-2.5,1,0,0,rectangle,10,-2.5,1,0,0,10,-2.5,1,0,0,1,4,164,135,1,,,,,,,,
,,,,,,,,,,,,,FF,,,,,,,,0.634,,,,,,,,,,,,,,,,,,,,,,60fdd91a1ede7111c86df9f0,61037184628f7e11517ae597,2021-07-29_21h11.47.183,Simcolourproject_2stim_asymm_v5,2020.2.10,Win32,60,61025ae37ef11b136ea224fe,,,,,,,,,900,27,60.5,1,0,0,response1disk,,7,11,-4.5,1,0,0,rectangle,11,-4.5,1,0,0,11,-4.5,1,0,0,1,5,165,126,1,,,,,,,,
,,,,,,,,,,,,,FF,,,,,,,,1.359,,,,,,,,,,,,,,,,,,,,,,60fdd91a1ede7111c86df9f0,61037184628f7e11517ae597,2021-07-29_21h11.47.183,Simcolourproject_2stim_asymm_v5,2020.2.10,Win32,60,61025ae37ef11b136ea224fe,,,,,,,,,4252,25,-77.5,1,0,0,response3disk,,4,1,-10.5,1,0,0,rectangle,1,-10.5,1,0,0,1,-10.5,1,0,0,1,6,166,118,1,,,,,,,,
,,,,,,,,,,,,,FF,,,,,,,,0.85,,,,,,,,,,,,,,,,,,,,,,60fdd91a1ede7111c86df9f0,61037184628f7e11517ae597,2021-07-29_21h11.47.183,Simcolourproject_2stim_asymm_v5,2020.2.10,Win32,60,61025ae37ef11b136ea224fe,,,,,,,,,2529,35,63.5,1,0,0,response1disk,,7,5,-1.5,1,0,0,rectangle,5,-1.5,1,0,0,5,-1.5,1,0,0,1,7,167,76,1,,,,,,,,
,,,,,,,,,,,,,FF,,,,,,,,0.749,,,,,,,,,,,,,,,,,,,,,,60fdd91a1ede7111c86df9f0,61037184628f7e11517ae597,2021-07-29_21h11.47.183,Simcolourproject_2stim_asymm_v5,2020.2.10,Win32,60,61025ae37ef11b136ea224fe,,,,,,,,,3300,26,53.5,1,0,0,response1disk,,7,7,-7.5,1,0,0,rectangle,7,-7.5,1,0,0,7,-7.5,1,0,0,1,8,168,103,1,,,,,,,,
,,,,,,,,,,,,,FF,,,,,,,,1.283,,,,,,,,,,,,,,,,,,,,,,60fdd91a1ede7111c86df9f0,61037184628f7e11517ae597,2021-07-29_21h11.47.183,Simcolourproject_2stim_asymm_v5,2020.2.10,Win32,60,61025ae37ef11b136ea224fe,,,,,,,,,95,27,-61.5,1,0,0,response3disk,,4,10,-9.5,1,0,0,rectangle,10,-9.5,1,0,0,10,-9.5,1,0,0,1,9,169,22,1,,,,,,,,
,,,,,,,,,,,,,FF,,,,,,,,0.782,,,,,,,,,,,,,,,,,,,,,,60fdd91a1ede7111c86df9f0,61037184628f7e11517ae597,2021-07-29_21h11.47.183,Simcolourproject_2stim_asymm_v5,2020.2.10,Win32,60,61025ae37ef11b136ea224fe,,,,,,,,,418,32,58.5,1,0,0,response1disk,,7,16,-4.5,1,0,0,rectangle,16,-4.5,1,0,0,16,-4.5,1,0,0,1,10,170,81,1,,,,,,,,
,,,,,,,,,,,,,FF,,,,,,,,0.495,,,,,,,,,,,,,,,,,,,,,,60fdd91a1ede7111c86df9f0,61037184628f7e11517ae597,2021-07-29_21h11.47.183,Simcolourproject_2stim_asymm_v5,2020.2.10,Win32,60,61025ae37ef11b136ea224fe,,,,,,,,,2158,31,55.5,1,0,0,response1disk,,7,22,-2.5,1,0,0,rectangle,22,-2.5,1,0,0,22,-2.5,1,0,0,1,11,171,6,1,,,,,,,,
,,,,,,,,,,,,,FF,,,,,,,,0.541,,,,,,,,,,,,,,,,,,,,,,60fdd91a1ede7111c86df9f0,61037184628f7e11517ae597,2021-07-29_21h11.47.183,Simcolourproject_2stim_asymm_v5,2020.2.10,Win32,60,61025ae37ef11b136ea224fe,,,,,,,,,1548,33,51.5,1,0,0,response1disk,,7,13,-8.5,1,0,0,rectangle,13,-8.5,1,0,0,13,-8.5,1,0,0,1,12,172,57,1,,,,,,,,
,,,,,,,,,,,,,FF,,,,,,,,0.966,,,,,,,,,,,,,,,,,,,,,,60fdd91a1ede7111c86df9f0,61037184628f7e11517ae597,2021-07-29_21h11.47.183,Simcolourproject_2stim_asymm_v5,2020.2.10,Win32,60,61025ae37ef11b136ea224fe,,,,,,,,,1888,-45,-80.5,1,0,0,response5disk,,3,-6,-16.5,1,0,0,rectangle,-6,-16.5,1,0,0,-6,-16.5,1,0,0,1,13,173,79,1,,,,,,,,
,,,,,,,,,,,,,FF,,,,,,,,0.582,,,,,,,,,,,,,,,,,,,,,,60fdd91a1ede7111c86df9f0,61037184628f7e11517ae597,2021-07-29_21h11.47.183,Simcolourproject_2stim_asymm_v5,2020.2.10,Win32,60,61025ae37ef11b136ea224fe,,,,,,,,,3068,41,54.5,1,0,0,response1disk,,7,17,-8.5,1,0,0,rectangle,17,-8.5,1,0,0,17,-8.5,1,0,0,1,14,174,44,1,,,,,,,,
,,,,,,,,,,,,,FF,,,,,,,,0.945,,,,,,,,,,,,,,,,,,,,,,60fdd91a1ede7111c86df9f0,61037184628f7e11517ae597,2021-07-29_21h11.47.183,Simcolourproject_2stim_asymm_v5,2020.2.10,Win32,60,61025ae37ef11b136ea224fe,,,,,,,,,3190,-35,-66.5,1,0,0,response5disk,,3,7,-4.5,1,0,0,rectangle,7,-4.5,1,0,0,7,-4.5,1,0,0,1,15,175,96,1,,,,,,,,
,,,,,,,,,,,,,FF,,,,,,,,0.898,,,,,,,,,,,,,,,,,,,,,,60fdd91a1ede7111c86df9f0,61037184628f7e11517ae597,2021-07-29_21h11.47.183,Simcolourproject_2stim_asymm_v5,2020.2.10,Win32,60,61025ae37ef11b136ea224fe,,,,,,,,,1087,35,51.5,1,0,0,response1disk,,7,14,-9.5,1,0,0,rectangle,35,-72.5,1,0,0,14,0.5,1,0,0,1,16,176,120,1,,response3disk_3,TRUE,4,4,"[83,70,286,266,264,34,134,299,103,247,256,177,145,295,126,268,125,204,204,197]",1.246,rectangle
,,,,,,,,,,,,,FF,,,,,,,,0.766,,,,,,,,,,,,,,,,,,,,,,60fdd91a1ede7111c86df9f0,61037184628f7e11517ae597,2021-07-29_21h11.47.183,Simcolourproject_2stim_asymm_v5,2020.2.10,Win32,60,61025ae37ef11b136ea224fe,,,,,,,,,995,27,52.5,1,0,0,response1disk,,7,19,8.5,1,0,0,rectangle,19,8.5,1,0,0,19,8.5,1,0,0,1,17,177,143,1,,,,,,,,
,,,,,,,,,,,,,FF,,,,,,,,0.517,,,,,,,,,,,,,,,,,,,,,,60fdd91a1ede7111c86df9f0,61037184628f7e11517ae597,2021-07-29_21h11.47.183,Simcolourproject_2stim_asymm_v5,2020.2.10,Win32,60,61025ae37ef11b136ea224fe,,,,,,,,,3873,38,43.5,1,0,0,response1disk,,7,18,-3.5,1,0,0,rectangle,18,-3.5,1,0,0,18,-3.5,1,0,0,1,18,178,83,1,,,,,,,,
,,,,,,,,,,,,,FF,,,,,,,,0.798,,,,,,,,,,,,,,,,,,,,,,60fdd91a1ede7111c86df9f0,61037184628f7e11517ae597,2021-07-29_21h11.47.183,Simcolourproject_2stim_asymm_v5,2020.2.10,Win32,60,61025ae37ef11b136ea224fe,,,,,,,,,2081,27,53.5,1,0,0,response1disk,,7,19,-5.5,1,0,0,rectangle,19,-5.5,1,0,0,19,-5.5,1,0,0,1,19,179,153,1,,,,,,,,
,,,,,,,,,,,,,FF,,,,,,,,0.867,,,,,,,,,,,,,,,,,,,,,,60fdd91a1ede7111c86df9f0,61037184628f7e11517ae597,2021-07-29_21h11.47.183,Simcolourproject_2stim_asymm_v5,2020.2.10,Win32,60,61025ae37ef11b136ea224fe,,,,,,,,,1731,31,57.5,1,0,0,response1disk,,7,18,4.5,1,0,0,rectangle,18,4.5,1,0,0,18,4.5,1,0,0,1,20,180,123,1,,,,,,,,
,,,,,,,,,,,,,FF,,,,,,,,0.497,,,,,,,,,,,,,,,,,,,,,,60fdd91a1ede7111c86df9f0,61037184628f7e11517ae597,2021-07-29_21h11.47.183,Simcolourproject_2stim_asymm_v5,2020.2.10,Win32,60,61025ae37ef11b136ea224fe,,,,,,,,,2803,25,51.5,1,0,0,response1disk,,7,17,-0.5,1,0,0,rectangle,17,-0.5,1,0,0,17,-0.5,1,0,0,1,21,181,70,1,,,,,,,,
,,,,,,,,,,,,,FF,,,,,,,,0.809,,,,,,,,,,,,,,,,,,,,,,60fdd91a1ede7111c86df9f0,61037184628f7e11517ae597,2021-07-29_21h11.47.183,Simcolourproject_2stim_asymm_v5,2020.2.10,Win32,60,61025ae37ef11b136ea224fe,,,,,,,,,3668,-19,52.5,1,0,0,response7disk,,0,14,5.5,1,0,0,rectangle,14,5.5,1,0,0,14,5.5,1,0,0,1,22,182,89,1,,,,,,,,
,,,,,,,,,,,,,FF,,,,,,,,0.5,,,,,,,,,,,,,,,,,,,,,,60fdd91a1ede7111c86df9f0,61037184628f7e11517ae597,2021-07-29_21h11.47.183,Simcolourproject_2stim_asymm_v5,2020.2.10,Win32,60,61025ae37ef11b136ea224fe,,,,,,,,,222,34,71.5,1,0,0,response1disk,,7,19,3.5,1,0,0,rectangle,19,3.5,1,0,0,19,3.5,1,0,0,1,23,183,130,1,,,,,,,,
,,,,,,,,,,,,,FF,,,,,,,,1.533,,,,,,,,,,,,,,,,,,,,,,60fdd91a1ede7111c86df9f0,61037184628f7e11517ae597,2021-07-29_21h11.47.183,Simcolourproject_2stim_asymm_v5,2020.2.10,Win32,60,61025ae37ef11b136ea224fe,,,,,,,,,655,59,33.5,1,0,0,response1disk,,6,8,-3.5,1,0,0,rectangle,8,-3.5,1,0,0,8,-3.5,1,0,0,1,24,184,31,1,,,,,,,,
,,,,,,,,,,,,,FF,,,,,,,,0.516,,,,,,,,,,,,,,,,,,,,,,60fdd91a1ede7111c86df9f0,61037184628f7e11517ae597,2021-07-29_21h11.47.183,Simcolourproject_2stim_asymm_v5,2020.2.10,Win32,60,61025ae37ef11b136ea224fe,,,,,,,,,1377,29,68.5,1,0,0,response1disk,,7,-4,-0.5,1,0,0,rectangle,-4,-0.5,1,0,0,-4,-0.5,1,0,0,1,25,185,23,1,,,,,,,,
,,,,,,,,,,,,,FF,,,,,,,,0.453,,,,,,,,,,,,,,,,,,,,,,60fdd91a1ede7111c86df9f0,61037184628f7e11517ae597,2021-07-29_21h11.47.183,Simcolourproject_2stim_asymm_v5,2020.2.10,Win32,60,61025ae37ef11b136ea224fe,,,,,,,,,3352,23,57.5,1,0,0,response1disk,,7,8,-8.5,1,0,0,rectangle,8,-8.5,1,0,0,8,-8.5,1,0,0,1,26,186,133,1,,,,,,,,
,,,,,,,,,,,,,FF,,,,,,,,0.417,,,,,,,,,,,,,,,,,,,,,,60fdd91a1ede7111c86df9f0,61037184628f7e11517ae597,2021-07-29_21h11.47.183,Simcolourproject_2stim_asymm_v5,2020.2.10,Win32,60,61025ae37ef11b136ea224fe,,,,,,,,,1241,35,79.5,1,0,0,response1disk,,7,13,-1.5,1,0,0,rectangle,13,-1.5,1,0,0,13,-1.5,1,0,0,1,27,187,42,1,,,,,,,,
,,,,,,,,,,,,,FF,,,,,,,,0.773,,,,,,,,,,,,,,,,,,,,,,60fdd91a1ede7111c86df9f0,61037184628f7e11517ae597,2021-07-29_21h11.47.183,Simcolourproject_2stim_asymm_v5,2020.2.10,Win32,60,61025ae37ef11b136ea224fe,,,,,,,,,2552,35,69.5,1,0,0,response1disk,,7,22,2.5,1,0,0,rectangle,22,2.5,1,0,0,22,2.5,1,0,0,1,28,188,86,1,,,,,,,,
,,,,,,,,,,,,,FF,,,,,,,,0.517,,,,,,,,,,,,,,,,,,,,,,60fdd91a1ede7111c86df9f0,61037184628f7e11517ae597,2021-07-29_21h11.47.183,Simcolourproject_2stim_asymm_v5,2020.2.10,Win32,60,61025ae37ef11b136ea224fe,,,,,,,,,3118,31,51.5,1,0,0,response1disk,,7,17,-14.5,1,0,0,rectangle,17,-14.5,1,0,0,17,-14.5,1,0,0,1,29,189,17,1,,,,,,,,
,,,,,,,,,,,,,FF,,,,,,,,1.709,,,,,,,,,,,,,,,,,,,,,,60fdd91a1ede7111c86df9f0,61037184628f7e11517ae597,2021-07-29_21h11.47.183,Simcolourproject_2stim_asymm_v5,2020.2.10,Win32,60,61025ae37ef11b136ea224fe,,,,,,,,,2301,45,88.5,1,0,0,response1disk,,7,16,11.5,1,0,0,rectangle,16,11.5,1,0,0,16,11.5,1,0,0,1,30,190,75,1,,,,,,,,
,,,,,,,,,,,,,FF,,,,,,,,0.54,,,,,,,,,,,,,,,,,,,,,,60fdd91a1ede7111c86df9f0,61037184628f7e11517ae597,2021-07-29_21h11.47.183,Simcolourproject_2stim_asymm_v5,2020.2.10,Win32,60,61025ae37ef11b136ea224fe,,,,,,,,,4229,37,62.5,1,0,0,response1disk,,7,13,-0.5,1,0,0,rectangle,13,-0.5,1,0,0,13,-0.5,1,0,0,1,31,191,110,1,,,,,,,,
,,,,,,,,,,,,,FF,,,,,,,,0.454,,,,,,,,,,,,,,,,,,,,,,60fdd91a1ede7111c86df9f0,61037184628f7e11517ae597,2021-07-29_21h11.47.183,Simcolourproject_2stim_asymm_v5,2020.2.10,Win32,60,61025ae37ef11b136ea224fe,,,,,,,,,948,47,54.5,1,0,0,response1disk,,7,19,-2.5,1,0,0,rectangle,19,-2.5,1,0,0,19,-2.5,1,0,0,1,32,192,38,1,,,,,,,,
,,,,,,,,,,,,,FF,,,,,,,,0.765,,,,,,,,,,,,,,,,,,,,,,60fdd91a1ede7111c86df9f0,61037184628f7e11517ae597,2021-07-29_21h11.47.183,Simcolourproject_2stim_asymm_v5,2020.2.10,Win32,60,61025ae37ef11b136ea224fe,,,,,,,,,4335,-23,47.5,1,0,0,response7disk,,0,16,-1.5,1,0,0,rectangle,16,-1.5,1,0,0,16,-1.5,1,0,0,1,33,193,138,1,,,,,,,,
,,,,,,,,,,,,,FF,,,,,,,,0.428,,,,,,,,,,,,,,,,,,,,,,60fdd91a1ede7111c86df9f0,61037184628f7e11517ae597,2021-07-29_21h11.47.183,Simcolourproject_2stim_asymm_v5,2020.2.10,Win32,60,61025ae37ef11b136ea224fe,,,,,,,,,3964,39,70.5,1,0,0,response1disk,,7,17,-0.5,1,0,0,rectangle,17,-0.5,1,0,0,17,-0.5,1,0,0,1,34,194,8,1,,,,,,,,
,,,,,,,,,,,,,FF,,,,,,,,0.574,,,,,,,,,,,,,,,,,,,,,,60fdd91a1ede7111c86df9f0,61037184628f7e11517ae597,2021-07-29_21h11.47.183,Simcolourproject_2stim_asymm_v5,2020.2.10,Win32,60,61025ae37ef11b136ea224fe,,,,,,,,,1385,25,56.5,1,0,0,response1disk,,7,21,-2.5,1,0,0,rectangle,21,-2.5,1,0,0,21,-2.5,1,0,0,1,35,195,97,1,,,,,,,,
,,,,,,,,,,,,,FF,,,,,,,,1.171,,,,,,,,,,,,,,,,,,,,,,60fdd91a1ede7111c86df9f0,61037184628f7e11517ae597,2021-07-29_21h11.47.183,Simcolourproject_2stim_asymm_v5,2020.2.10,Win32,60,61025ae37ef11b136ea224fe,,,,,,,,,1684,57,34.5,1,0,0,response1disk,,6,19,3.5,1,0,0,rectangle,-25,-86.5,1,0,0,7,5.5,1,0,0,1,36,196,93,1,,response5disk_3,TRUE,3,3,"[83,70,286,266,264,34,134,299,103,247,256,177,145,295,126,268,125,204,204,197]",1.574,rectangle
,,,,,,,,,,,,,FF,,,,,,,,0.632,,,,,,,,,,,,,,,,,,,,,,60fdd91a1ede7111c86df9f0,61037184628f7e11517ae597,2021-07-29_21h11.47.183,Simcolourproject_2stim_asymm_v5,2020.2.10,Win32,60,61025ae37ef11b136ea224fe,,,,,,,,,2843,27,63.5,1,0,0,response1disk,,7,4,-0.5,1,0,0,rectangle,4,-0.5,1,0,0,4,-0.5,1,0,0,1,37,197,148,1,,,,,,,,
,,,,,,,,,,,,,FF,,,,,,,,0.933,,,,,,,,,,,,,,,,,,,,,,60fdd91a1ede7111c86df9f0,61037184628f7e11517ae597,2021-07-29_21h11.47.183,Simcolourproject_2stim_asymm_v5,2020.2.10,Win32,60,61025ae37ef11b136ea224fe,,,,,,,,,1530,35,54.5,1,0,0,response1disk,,7,4,-19.5,1,0,0,rectangle,4,-19.5,1,0,0,4,-19.5,1,0,0,1,38,198,157,1,,,,,,,,
,,,,,,,,,,,,,FF,,,,,,,,0.827,,,,,,,,,,,,,,,,,,,,,,60fdd91a1ede7111c86df9f0,61037184628f7e11517ae597,2021-07-29_21h11.47.183,Simcolourproject_2stim_asymm_v5,2020.2.10,Win32,60,61025ae37ef11b136ea224fe,,,,,,,,,4059,22,39.5,1,0,0,response1disk,,7,9,1.5,1,0,0,rectangle,9,1.5,1,0,0,9,1.5,1,0,0,1,39,199,124,1,,,,,,,,
,,,,,,,,,,,,,FF,,,,,,,,0.698,,,,,,,,,,,,,,,,,,,,,,60fdd91a1ede7111c86df9f0,61037184628f7e11517ae597,2021-07-29_21h11.47.183,Simcolourproject_2stim_asymm_v5,2020.2.10,Win32,60,61025ae37ef11b136ea224fe,,,,,,,,,523,34,57.5,1,0,0,response1disk,,7,5,-6.5,1,0,0,rectangle,5,-6.5,1,0,0,5,-6.5,1,0,0,1,40,200,154,1,,,,,,,,
,,,,,,,,,,,,,FF,,,,,,,,0.759,,,,,,,,,,,,,,,,,,,,,,60fdd91a1ede7111c86df9f0,61037184628f7e11517ae597,2021-07-29_21h11.47.183,Simcolourproject_2stim_asymm_v5,2020.2.10,Win32,60,61025ae37ef11b136ea224fe,,,,,,,,,1794,37,47.5,1,0,0,response1disk,,7,21,-2.5,1,0,0,rectangle,21,-2.5,1,0,0,21,-2.5,1,0,0,1,41,201,47,1,,,,,,,,
,,,,,,,,,,,,,FF,,,,,,,,0.448,,,,,,,,,,,,,,,,,,,,,,60fdd91a1ede7111c86df9f0,61037184628f7e11517ae597,2021-07-29_21h11.47.183,Simcolourproject_2stim_asymm_v5,2020.2.10,Win32,60,61025ae37ef11b136ea224fe,,,,,,,,,2704,31,54.5,1,0,0,response1disk,,7,13,-18.5,1,0,0,rectangle,13,-18.5,1,0,0,13,-18.5,1,0,0,1,42,202,129,1,,,,,,,,
,,,,,,,,,,,,,FF,,,,,,,,0.433,,,,,,,,,,,,,,,,,,,,,,60fdd91a1ede7111c86df9f0,61037184628f7e11517ae597,2021-07-29_21h11.47.183,Simcolourproject_2stim_asymm_v5,2020.2.10,Win32,60,61025ae37ef11b136ea224fe,,,,,,,,,592,26,45.5,1,0,0,response1disk,,7,18,1.5,1,0,0,rectangle,-69,-36.5,1,0,0,8,4.5,1,0,0,1,43,203,45,1,,response5disk_3,TRUE,2,2,"[83,70,286,266,264,34,134,299,103,247,256,177,145,295,126,268,125,204,204,197]",1.438,rectangle
,,,,,,,,,,,,,FF,,,,,,,,1.746,,,,,,,,,,,,,,,,,,,,,,60fdd91a1ede7111c86df9f0,61037184628f7e11517ae597,2021-07-29_21h11.47.183,Simcolourproject_2stim_asymm_v5,2020.2.10,Win32,60,61025ae37ef11b136ea224fe,,,,,,,,,4147,-50,-16.5,1,0,0,response5disk,,2,32,16.5,1,0,0,rectangle,32,16.5,1,0,0,32,16.5,1,0,0,1,44,204,150,1,,,,,,,,
,,,,,,,,,,,,,FF,,,,,,,,0.584,,,,,,,,,,,,,,,,,,,,,,60fdd91a1ede7111c86df9f0,61037184628f7e11517ae597,2021-07-29_21h11.47.183,Simcolourproject_2stim_asymm_v5,2020.2.10,Win32,60,61025ae37ef11b136ea224fe,,,,,,,,,220,55,62.5,1,0,0,response1disk,,7,13,-3.5,1,0,0,rectangle,13,-3.5,1,0,0,13,-3.5,1,0,0,1,45,205,53,1,,,,,,,,
,,,,,,,,,,,,,FF,,,,,,,,1.184,,,,,,,,,,,,,,,,,,,,,,60fdd91a1ede7111c86df9f0,61037184628f7e11517ae597,2021-07-29_21h11.47.183,Simcolourproject_2stim_asymm_v5,2020.2.10,Win32,60,61025ae37ef11b136ea224fe,,,,,,,,,4346,-41,-64.5,1,0,0,response5disk,,3,-4,-6.5,1,0,0,rectangle,-4,-6.5,1,0,0,-4,-6.5,1,0,0,1,46,206,155,1,,,,,,,,
,,,,,,,,,,,,,FF,,,,,,,,1.335,,,,,,,,,,,,,,,,,,,,,,60fdd91a1ede7111c86df9f0,61037184628f7e11517ae597,2021-07-29_21h11.47.183,Simcolourproject_2stim_asymm_v5,2020.2.10,Win32,60,61025ae37ef11b136ea224fe,,,,,,,,,546,37,55.5,1,0,0,response1disk,,7,7,-0.5,1,0,0,rectangle,7,-0.5,1,0,0,7,-0.5,1,0,0,1,47,207,13,1,,,,,,,,
,,,,,,,,,,,,,FF,,,,,,,,1.183,,,,,,,,,,,,,,,,,,,,,,60fdd91a1ede7111c86df9f0,61037184628f7e11517ae597,2021-07-29_21h11.47.183,Simcolourproject_2stim_asymm_v5,2020.2.10,Win32,60,61025ae37ef11b136ea224fe,,,,,,,,,4104,24,-64.5,1,0,0,response3disk,,4,2,0.5,1,0,0,rectangle,2,0.5,1,0,0,2,0.5,1,0,0,1,48,208,85,1,,,,,,,,
,,,,,,,,,,,,,FF,,,,,,,,0.49,,,,,,,,,,,,,,,,,,,,,,60fdd91a1ede7111c86df9f0,61037184628f7e11517ae597,2021-07-29_21h11.47.183,Simcolourproject_2stim_asymm_v5,2020.2.10,Win32,60,61025ae37ef11b136ea224fe,,,,,,,,,3144,31,73.5,1,0,0,response1disk,,7,9,0.5,1,0,0,rectangle,9,0.5,1,0,0,9,0.5,1,0,0,1,49,209,104,1,,,,,,,,
,,,,,,,,,,,,,FF,,,,,,,,1.019,,,,,,,,,,,,,,,,,,,,,,60fdd91a1ede7111c86df9f0,61037184628f7e11517ae597,2021-07-29_21h11.47.183,Simcolourproject_2stim_asymm_v5,2020.2.10,Win32,60,61025ae37ef11b136ea224fe,,,,,,,,,521,30,46.5,1,0,0,response1disk,,7,5,-9.5,1,0,0,rectangle,5,-9.5,1,0,0,5,-9.5,1,0,0,1,50,210,66,1,,,,,,,,
,,,,,,,,,,,,,FF,,,,,,,,0.684,,,,,,,,,,,,,,,,,,,,,,60fdd91a1ede7111c86df9f0,61037184628f7e11517ae597,2021-07-29_21h11.47.183,Simcolourproject_2stim_asymm_v5,2020.2.10,Win32,60,61025ae37ef11b136ea224fe,,,,,,,,,2909,35,48.5,1,0,0,response1disk,,7,5,-13.5,1,0,0,rectangle,5,-13.5,1,0,0,5,-13.5,1,0,0,1,51,211,52,1,,,,,,,,
,,,,,,,,,,,,,FF,,,,,,,,0.887,,,,,,,,,,,,,,,,,,,,,,60fdd91a1ede7111c86df9f0,61037184628f7e11517ae597,2021-07-29_21h11.47.183,Simcolourproject_2stim_asymm_v5,2020.2.10,Win32,60,61025ae37ef11b136ea224fe,,,,,,,,,3463,27,43.5,1,0,0,response1disk,,7,8,-0.5,1,0,0,rectangle,8,-0.5,1,0,0,8,-0.5,1,0,0,1,52,212,16,1,,,,,,,,
,,,,,,,,,,,,,FF,,,,,,,,0.45,,,,,,,,,,,,,,,,,,,,,,60fdd91a1ede7111c86df9f0,61037184628f7e11517ae597,2021-07-29_21h11.47.183,Simcolourproject_2stim_asymm_v5,2020.2.10,Win32,60,61025ae37ef11b136ea224fe,,,,,,,,,1715,30,53.5,1,0,0,response1disk,,7,8,-2.5,1,0,0,rectangle,8,-2.5,1,0,0,8,-2.5,1,0,0,1,53,213,71,1,,,,,,,,
,,,,,,,,,,,,,FF,,,,,,,,1.402,,,,,,,,,,,,,,,,,,,,,,60fdd91a1ede7111c86df9f0,61037184628f7e11517ae597,2021-07-29_21h11.47.183,Simcolourproject_2stim_asymm_v5,2020.2.10,Win32,60,61025ae37ef11b136ea224fe,,,,,,,,,3295,41,46.5,1,0,0,response1disk,,7,19,-5.5,1,0,0,rectangle,19,-5.5,1,0,0,19,-5.5,1,0,0,1,54,214,111,1,,,,,,,,
,,,,,,,,,,,,,FF,,,,,,,,0.566,,,,,,,,,,,,,,,,,,,,,,60fdd91a1ede7111c86df9f0,61037184628f7e11517ae597,2021-07-29_21h11.47.183,Simcolourproject_2stim_asymm_v5,2020.2.10,Win32,60,61025ae37ef11b136ea224fe,,,,,,,,,3658,38,70.5,1,0,0,response1disk,,7,13,1.5,1,0,0,rectangle,13,1.5,1,0,0,13,1.5,1,0,0,1,55,215,7,1,,,,,,,,
,,,,,,,,,,,,,FF,,,,,,,,0.402,,,,,,,,,,,,,,,,,,,,,,60fdd91a1ede7111c86df9f0,61037184628f7e11517ae597,2021-07-29_21h11.47.183,Simcolourproject_2stim_asymm_v5,2020.2.10,Win32,60,61025ae37ef11b136ea224fe,,,,,,,,,939,34,67.5,1,0,0,response1disk,,7,15,-2.5,1,0,0,rectangle,15,-2.5,1,0,0,15,-2.5,1,0,0,1,56,216,64,1,,,,,,,,
,,,,,,,,,,,,,FF,,,,,,,,0.399,,,,,,,,,,,,,,,,,,,,,,60fdd91a1ede7111c86df9f0,61037184628f7e11517ae597,2021-07-29_21h11.47.183,Simcolourproject_2stim_asymm_v5,2020.2.10,Win32,60,61025ae37ef11b136ea224fe,,,,,,,,,2808,35,49.5,1,0,0,response1disk,,7,18,0.5,1,0,0,rectangle,18,0.5,1,0,0,18,0.5,1,0,0,1,57,217,106,1,,,,,,,,
,,,,,,,,,,,,,FF,,,,,,,,0.594,,,,,,,,,,,,,,,,,,,,,,60fdd91a1ede7111c86df9f0,61037184628f7e11517ae597,2021-07-29_21h11.47.183,Simcolourproject_2stim_asymm_v5,2020.2.10,Win32,60,61025ae37ef11b136ea224fe,,,,,,,,,3477,35,64.5,1,0,0,response1disk,,7,18,6.5,1,0,0,rectangle,18,6.5,1,0,0,18,6.5,1,0,0,1,58,218,145,1,,,,,,,,
,,,,,,,,,,,,,FF,,,,,,,,0.888,,,,,,,,,,,,,,,,,,,,,,60fdd91a1ede7111c86df9f0,61037184628f7e11517ae597,2021-07-29_21h11.47.183,Simcolourproject_2stim_asymm_v5,2020.2.10,Win32,60,61025ae37ef11b136ea224fe,,,,,,,,,3844,55,35.5,1,0,0,response1disk,,6,23,1.5,1,0,0,rectangle,23,1.5,1,0,0,23,1.5,1,0,0,1,59,219,32,1,,,,,,,,
,,,,,,,,,,,,,FF,,,,,,,,0.493,,,,,,,,,,,,,,,,,,,,,,60fdd91a1ede7111c86df9f0,61037184628f7e11517ae597,2021-07-29_21h11.47.183,Simcolourproject_2stim_asymm_v5,2020.2.10,Win32,60,61025ae37ef11b136ea224fe,,,,,,,,,1993,35,63.5,1,0,0,response1disk,,7,10,-12.5,1,0,0,rectangle,10,-12.5,1,0,0,10,-12.5,1,0,0,1,60,220,90,1,,,,,,,,
,,,,,,,,,,,,,FF,,,,,,,,0.654,,,,,,,,,,,,,,,,,,,,,,60fdd91a1ede7111c86df9f0,61037184628f7e11517ae597,2021-07-29_21h11.47.183,Simcolourproject_2stim_asymm_v5,2020.2.10,Win32,60,61025ae37ef11b136ea224fe,,,,,,,,,683,32,64.5,1,0,0,response1disk,,7,19,0.5,1,0,0,rectangle,19,0.5,1,0,0,19,0.5,1,0,0,1,61,221,35,1,,,,,,,,
,,,,,,,,,,,,,FF,,,,,,,,0.801,,,,,,,,,,,,,,,,,,,,,,60fdd91a1ede7111c86df9f0,61037184628f7e11517ae597,2021-07-29_21h11.47.183,Simcolourproject_2stim_asymm_v5,2020.2.10,Win32,60,61025ae37ef11b136ea224fe,,,,,,,,,4055,46,81.5,1,0,0,response1disk,,7,36,3.5,1,0,0,rectangle,36,3.5,1,0,0,36,3.5,1,0,0,1,62,222,122,1,,,,,,,,
,,,,,,,,,,,,,FF,,,,,,,,1.463,,,,,,,,,,,,,,,,,,,,,,60fdd91a1ede7111c86df9f0,61037184628f7e11517ae597,2021-07-29_21h11.47.183,Simcolourproject_2stim_asymm_v5,2020.2.10,Win32,60,61025ae37ef11b136ea224fe,,,,,,,,,3723,39,105.5,1,0,0,response1disk,,7,7,-4.5,1,0,0,rectangle,7,-4.5,1,0,0,7,-4.5,1,0,0,1,63,223,127,1,,,,,,,,
,,,,,,,,,,,,,FF,,,,,,,,1.188,,,,,,,,,,,,,,,,,,,,,,60fdd91a1ede7111c86df9f0,61037184628f7e11517ae597,2021-07-29_21h11.47.183,Simcolourproject_2stim_asymm_v5,2020.2.10,Win32,60,61025ae37ef11b136ea224fe,,,,,,,,,3705,-23,54.5,1,0,0,response7disk,,0,8,19.5,1,0,0,rectangle,8,19.5,1,0,0,8,19.5,1,0,0,1,64,224,115,1,,,,,,,,
,,,,,,,,,,,,,FF,,,,,,,,1.042,,,,,,,,,,,,,,,,,,,,,,60fdd91a1ede7111c86df9f0,61037184628f7e11517ae597,2021-07-29_21h11.47.183,Simcolourproject_2stim_asymm_v5,2020.2.10,Win32,60,61025ae37ef11b136ea224fe,,,,,,,,,822,55,75.5,1,0,0,response1disk,,7,-5,-14.5,1,0,0,rectangle,-5,-14.5,1,0,0,-5,-14.5,1,0,0,1,65,225,19,1,,,,,,,,
,,,,,,,,,,,,,FF,,,,,,,,0.568,,,,,,,,,,,,,,,,,,,,,,60fdd91a1ede7111c86df9f0,61037184628f7e11517ae597,2021-07-29_21h11.47.183,Simcolourproject_2stim_asymm_v5,2020.2.10,Win32,60,61025ae37ef11b136ea224fe,,,,,,,,,1408,53,87.5,1,0,0,response1disk,,7,20,15.5,1,0,0,rectangle,20,15.5,1,0,0,20,15.5,1,0,0,1,66,226,39,1,,,,,,,,
,,,,,,,,,,,,,FF,,,,,,,,0.53,,,,,,,,,,,,,,,,,,,,,,60fdd91a1ede7111c86df9f0,61037184628f7e11517ae597,2021-07-29_21h11.47.183,Simcolourproject_2stim_asymm_v5,2020.2.10,Win32,60,61025ae37ef11b136ea224fe,,,,,,,,,858,40,63.5,1,0,0,response1disk,,7,14,-0.5,1,0,0,rectangle,14,-0.5,1,0,0,14,-0.5,1,0,0,1,67,227,78,1,,,,,,,,
,,,,,,,,,,,,,FF,,,,,,,,0.529,,,,,,,,,,,,,,,,,,,,,,60fdd91a1ede7111c86df9f0,61037184628f7e11517ae597,2021-07-29_21h11.47.183,Simcolourproject_2stim_asymm_v5,2020.2.10,Win32,60,61025ae37ef11b136ea224fe,,,,,,,,,1982,39,43.5,1,0,0,response1disk,,7,23,-8.5,1,0,0,rectangle,23,-8.5,1,0,0,23,-8.5,1,0,0,1,68,228,51,1,,,,,,,,
,,,,,,,,,,,,,FF,,,,,,,,0.524,,,,,,,,,,,,,,,,,,,,,,60fdd91a1ede7111c86df9f0,61037184628f7e11517ae597,2021-07-29_21h11.47.183,Simcolourproject_2stim_asymm_v5,2020.2.10,Win32,60,61025ae37ef11b136ea224fe,,,,,,,,,1710,29,53.5,1,0,0,response1disk,,7,27,7.5,1,0,0,rectangle,27,7.5,1,0,0,27,7.5,1,0,0,1,69,229,5,1,,,,,,,,
,,,,,,,,,,,,,FF,,,,,,,,0.445,,,,,,,,,,,,,,,,,,,,,,60fdd91a1ede7111c86df9f0,61037184628f7e11517ae597,2021-07-29_21h11.47.183,Simcolourproject_2stim_asymm_v5,2020.2.10,Win32,60,61025ae37ef11b136ea224fe,,,,,,,,,4017,32,53.5,1,0,0,response1disk,,7,22,6.5,1,0,0,rectangle,22,6.5,1,0,0,22,6.5,1,0,0,1,70,230,142,1,,,,,,,,
,,,,,,,,,,,,,FF,,,,,,,,0.413,,,,,,,,,,,,,,,,,,,,,,60fdd91a1ede7111c86df9f0,61037184628f7e11517ae597,2021-07-29_21h11.47.183,Simcolourproject_2stim_asymm_v5,2020.2.10,Win32,60,61025ae37ef11b136ea224fe,,,,,,,,,3617,40,52.5,1,0,0,response1disk,,7,21,8.5,1,0,0,rectangle,21,8.5,1,0,0,21,8.5,1,0,0,1,71,231,98,1,,,,,,,,
,,,,,,,,,,,,,FF,,,,,,,,0.446,,,,,,,,,,,,,,,,,,,,,,60fdd91a1ede7111c86df9f0,61037184628f7e11517ae597,2021-07-29_21h11.47.183,Simcolourproject_2stim_asymm_v5,2020.2.10,Win32,60,61025ae37ef11b136ea224fe,,,,,,,,,3944,41,58.5,1,0,0,response1disk,,7,19,1.5,1,0,0,rectangle,19,1.5,1,0,0,19,1.5,1,0,0,1,72,232,33,1,,,,,,,,
,,,,,,,,,,,,,FF,,,,,,,,0.401,,,,,,,,,,,,,,,,,,,,,,60fdd91a1ede7111c86df9f0,61037184628f7e11517ae597,2021-07-29_21h11.47.183,Simcolourproject_2stim_asymm_v5,2020.2.10,Win32,60,61025ae37ef11b136ea224fe,,,,,,,,,1835,31,65.5,1,0,0,response1disk,,7,15,-3.5,1,0,0,rectangle,15,-3.5,1,0,0,15,-3.5,1,0,0,1,73,233,152,1,,,,,,,,
,,,,,,,,,,,,,FF,,,,,,,,0.501,,,,,,,,,,,,,,,,,,,,,,60fdd91a1ede7111c86df9f0,61037184628f7e11517ae597,2021-07-29_21h11.47.183,Simcolourproject_2stim_asymm_v5,2020.2.10,Win32,60,61025ae37ef11b136ea224fe,,,,,,,,,2429,34,67.5,1,0,0,response1disk,,7,19,5.5,1,0,0,rectangle,19,5.5,1,0,0,19,5.5,1,0,0,1,74,234,149,1,,,,,,,,
,,,,,,,,,,,,,FF,,,,,,,,0.42,,,,,,,,,,,,,,,,,,,,,,60fdd91a1ede7111c86df9f0,61037184628f7e11517ae597,2021-07-29_21h11.47.183,Simcolourproject_2stim_asymm_v5,2020.2.10,Win32,60,61025ae37ef11b136ea224fe,,,,,,,,,1098,39,66.5,1,0,0,response1disk,,7,23,10.5,1,0,0,rectangle,23,10.5,1,0,0,23,10.5,1,0,0,1,75,235,24,1,,,,,,,,
,,,,,,,,,,,,,FF,,,,,,,,0.399,,,,,,,,,,,,,,,,,,,,,,60fdd91a1ede7111c86df9f0,61037184628f7e11517ae597,2021-07-29_21h11.47.183,Simcolourproject_2stim_asymm_v5,2020.2.10,Win32,60,61025ae37ef11b136ea224fe,,,,,,,,,4199,39,69.5,1,0,0,response1disk,,7,16,-0.5,1,0,0,rectangle,16,-0.5,1,0,0,16,-0.5,1,0,0,1,76,236,40,1,,,,,,,,
,,,,,,,,,,,,,FF,,,,,,,,1.201,,,,,,,,,,,,,,,,,,,,,,60fdd91a1ede7111c86df9f0,61037184628f7e11517ae597,2021-07-29_21h11.47.183,Simcolourproject_2stim_asymm_v5,2020.2.10,Win32,60,61025ae37ef11b136ea224fe,,,,,,,,,528,50,-51.5,1,0,0,response3disk,,4,11,-3.5,1,0,0,rectangle,11,-3.5,1,0,0,11,-3.5,1,0,0,1,77,237,147,1,,,,,,,,
,,,,,,,,,,,,,FF,,,,,,,,0.569,,,,,,,,,,,,,,,,,,,,,,60fdd91a1ede7111c86df9f0,61037184628f7e11517ae597,2021-07-29_21h11.47.183,Simcolourproject_2stim_asymm_v5,2020.2.10,Win32,60,61025ae37ef11b136ea224fe,,,,,,,,,3604,39,73.5,1,0,0,response1disk,,7,4,-9.5,1,0,0,rectangle,4,-9.5,1,0,0,4,-9.5,1,0,0,1,78,238,102,1,,,,,,,,
,,,,,,,,,,,,,FF,,,,,,,,0.424,,,,,,,,,,,,,,,,,,,,,,60fdd91a1ede7111c86df9f0,61037184628f7e11517ae597,2021-07-29_21h11.47.183,Simcolourproject_2stim_asymm_v5,2020.2.10,Win32,60,61025ae37ef11b136ea224fe,,,,,,,,,3448,32,45.5,1,0,0,response1disk,,7,6,-9.5,1,0,0,rectangle,6,-9.5,1,0,0,6,-9.5,1,0,0,1,79,239,109,1,,,,,,,,
,,,,,,,,,,,,,FF,,,,,,,,0.553,,,,,,,,,,,,,,,,,,,,,,60fdd91a1ede7111c86df9f0,61037184628f7e11517ae597,2021-07-29_21h11.47.183,Simcolourproject_2stim_asymm_v5,2020.2.10,Win32,60,61025ae37ef11b136ea224fe,,,,,,,,,3960,21,33.5,1,0,0,response1disk,,7,12,-12.5,1,0,0,rectangle,12,-12.5,1,0,0,12,-12.5,1,0,0,1,80,240,14,1,,,,,,,,
,,,,,,,,,,,,,FF,,,,,,,,0.495,,,,,,,,,,,,,,,,,,,,,,60fdd91a1ede7111c86df9f0,61037184628f7e11517ae597,2021-07-29_21h11.47.183,Simcolourproject_2stim_asymm_v5,2020.2.10,Win32,60,61025ae37ef11b136ea224fe,,,,,,,,,414,32,62.5,1,0,0,response1disk,,7,23,-1.5,1,0,0,rectangle,23,-1.5,1,0,0,23,-1.5,1,0,0,1,81,241,132,1,,,,,,,,
,,,,,,,,,,,,,FF,,,,,,,,0.502,,,,,,,,,,,,,,,,,,,,,,60fdd91a1ede7111c86df9f0,61037184628f7e11517ae597,2021-07-29_21h11.47.183,Simcolourproject_2stim_asymm_v5,2020.2.10,Win32,60,61025ae37ef11b136ea224fe,,,,,,,,,1713,30,40.5,1,0,0,response1disk,,7,14,-14.5,1,0,0,rectangle,14,-14.5,1,0,0,14,-14.5,1,0,0,1,82,242,10,1,,,,,,,,
,,,,,,,,,,,,,FF,,,,,,,,0.417,,,,,,,,,,,,,,,,,,,,,,60fdd91a1ede7111c86df9f0,61037184628f7e11517ae597,2021-07-29_21h11.47.183,Simcolourproject_2stim_asymm_v5,2020.2.10,Win32,60,61025ae37ef11b136ea224fe,,,,,,,,,2515,26,67.5,1,0,0,response1disk,,7,24,6.5,1,0,0,rectangle,24,6.5,1,0,0,24,6.5,1,0,0,1,83,243,50,1,,,,,,,,
,,,,,,,,,,,,,FF,,,,,,,,0.459,,,,,,,,,,,,,,,,,,,,,,60fdd91a1ede7111c86df9f0,61037184628f7e11517ae597,2021-07-29_21h11.47.183,Simcolourproject_2stim_asymm_v5,2020.2.10,Win32,60,61025ae37ef11b136ea224fe,,,,,,,,,1917,49,61.5,1,0,0,response1disk,,7,23,-6.5,1,0,0,rectangle,23,-6.5,1,0,0,23,-6.5,1,0,0,1,84,244,61,1,,,,,,,,
,,,,,,,,,,,,,FF,,,,,,,,0.398,,,,,,,,,,,,,,,,,,,,,,60fdd91a1ede7111c86df9f0,61037184628f7e11517ae597,2021-07-29_21h11.47.183,Simcolourproject_2stim_asymm_v5,2020.2.10,Win32,60,61025ae37ef11b136ea224fe,,,,,,,,,2979,41,69.5,1,0,0,response1disk,,7,12,7.5,1,0,0,rectangle,12,7.5,1,0,0,12,7.5,1,0,0,1,85,245,158,1,,,,,,,,
,,,,,,,,,,,,,FF,,,,,,,,0.483,,,,,,,,,,,,,,,,,,,,,,60fdd91a1ede7111c86df9f0,61037184628f7e11517ae597,2021-07-29_21h11.47.183,Simcolourproject_2stim_asymm_v5,2020.2.10,Win32,60,61025ae37ef11b136ea224fe,,,,,,,,,1332,47,60.5,1,0,0,response1disk,,7,21,6.5,1,0,0,rectangle,-26,60.5,1,0,0,13,-1.5,1,0,0,1,86,246,131,1,,response7disk_3,TRUE,0,0,"[83,70,286,266,264,34,134,299,103,247,256,177,145,295,126,268,125,204,204,197]",1.507,rectangle
,,,,,,,,,,,,,FF,,,,,,,,1.235,,,,,,,,,,,,,,,,,,,,,,60fdd91a1ede7111c86df9f0,61037184628f7e11517ae597,2021-07-29_21h11.47.183,Simcolourproject_2stim_asymm_v5,2020.2.10,Win32,60,61025ae37ef11b136ea224fe,,,,,,,,,4000,74,45.5,1,0,0,response1disk,,6,18,-4.5,1,0,0,rectangle,18,-4.5,1,0,0,18,-4.5,1,0,0,1,87,247,105,1,,,,,,,,
,,,,,,,,,,,,,FF,,,,,,,,0.414,,,,,,,,,,,,,,,,,,,,,,60fdd91a1ede7111c86df9f0,61037184628f7e11517ae597,2021-07-29_21h11.47.183,Simcolourproject_2stim_asymm_v5,2020.2.10,Win32,60,61025ae37ef11b136ea224fe,,,,,,,,,2992,48,74.5,1,0,0,response1disk,,7,18,13.5,1,0,0,rectangle,18,13.5,1,0,0,18,13.5,1,0,0,1,88,248,27,1,,,,,,,,
,,,,,,,,,,,,,FF,,,,,,,,1.113,,,,,,,,,,,,,,,,,,,,,,60fdd91a1ede7111c86df9f0,61037184628f7e11517ae597,2021-07-29_21h11.47.183,Simcolourproject_2stim_asymm_v5,2020.2.10,Win32,60,61025ae37ef11b136ea224fe,,,,,,,,,3983,39,51.5,1,0,0,response1disk,,7,15,-9.5,1,0,0,rectangle,15,-9.5,1,0,0,15,-9.5,1,0,0,1,89,249,100,1,,,,,,,,
,,,,,,,,,,,,,FF,,,,,,,,0.4,,,,,,,,,,,,,,,,,,,,,,60fdd91a1ede7111c86df9f0,61037184628f7e11517ae597,2021-07-29_21h11.47.183,Simcolourproject_2stim_asymm_v5,2020.2.10,Win32,60,61025ae37ef11b136ea224fe,,,,,,,,,2756,44,65.5,1,0,0,response1disk,,7,8,-10.5,1,0,0,rectangle,8,-10.5,1,0,0,8,-10.5,1,0,0,1,90,250,128,1,,,,,,,,
,,,,,,,,,,,,,FF,,,,,,,,0.401,,,,,,,,,,,,,,,,,,,,,,60fdd91a1ede7111c86df9f0,61037184628f7e11517ae597,2021-07-29_21h11.47.183,Simcolourproject_2stim_asymm_v5,2020.2.10,Win32,60,61025ae37ef11b136ea224fe,,,,,,,,,1908,36,43.5,1,0,0,response1disk,,7,14,-0.5,1,0,0,rectangle,14,-0.5,1,0,0,14,-0.5,1,0,0,1,91,251,11,1,,,,,,,,
,,,,,,,,,,,,,FF,,,,,,,,0.379,,,,,,,,,,,,,,,,,,,,,,60fdd91a1ede7111c86df9f0,61037184628f7e11517ae597,2021-07-29_21h11.47.183,Simcolourproject_2stim_asymm_v5,2020.2.10,Win32,60,61025ae37ef11b136ea224fe,,,,,,,,,482,34,64.5,1,0,0,response1disk,,7,6,-18.5,1,0,0,rectangle,6,-18.5,1,0,0,6,-18.5,1,0,0,1,92,252,114,1,,,,,,,,
,,,,,,,,,,,,,FF,,,,,,,,0.733,,,,,,,,,,,,,,,,,,,,,,60fdd91a1ede7111c86df9f0,61037184628f7e11517ae597,2021-07-29_21h11.47.183,Simcolourproject_2stim_asymm_v5,2020.2.10,Win32,60,61025ae37ef11b136ea224fe,,,,,,,,,3922,30,40.5,1,0,0,response1disk,,7,11,-2.5,1,0,0,rectangle,11,-2.5,1,0,0,11,-2.5,1,0,0,1,93,253,30,1,,,,,,,,
,,,,,,,,,,,,,FF,,,,,,,,0.467,,,,,,,,,,,,,,,,,,,,,,60fdd91a1ede7111c86df9f0,61037184628f7e11517ae597,2021-07-29_21h11.47.183,Simcolourproject_2stim_asymm_v5,2020.2.10,Win32,60,61025ae37ef11b136ea224fe,,,,,,,,,1033,29,57.5,1,0,0,response1disk,,7,15,4.5,1,0,0,rectangle,15,4.5,1,0,0,15,4.5,1,0,0,1,94,254,72,1,,,,,,,,
,,,,,,,,,,,,,FF,,,,,,,,0.482,,,,,,,,,,,,,,,,,,,,,,60fdd91a1ede7111c86df9f0,61037184628f7e11517ae597,2021-07-29_21h11.47.183,Simcolourproject_2stim_asymm_v5,2020.2.10,Win32,60,61025ae37ef11b136ea224fe,,,,,,,,,1647,33,48.5,1,0,0,response1disk,,7,17,0.5,1,0,0,rectangle,-77,20.5,1,0,0,-6,2.5,1,0,0,1,95,255,12,1,,response7disk_3,TRUE,1,1,"[83,70,286,266,264,34,134,299,103,247,256,177,145,295,126,268,125,204,204,197]",1.171,rectangle
,,,,,,,,,,,,,FF,,,,,,,,0.953,,,,,,,,,,,,,,,,,,,,,,60fdd91a1ede7111c86df9f0,61037184628f7e11517ae597,2021-07-29_21h11.47.183,Simcolourproject_2stim_asymm_v5,2020.2.10,Win32,60,61025ae37ef11b136ea224fe,,,,,,,,,4061,49,27.5,1,0,0,response1disk,,6,9,-12.5,1,0,0,rectangle,9,-12.5,1,0,0,9,-12.5,1,0,0,1,96,256,113,1,,,,,,,,
,,,,,,,,,,,,,FF,,,,,,,,0.507,,,,,,,,,,,,,,,,,,,,,,60fdd91a1ede7111c86df9f0,61037184628f7e11517ae597,2021-07-29_21h11.47.183,Simcolourproject_2stim_asymm_v5,2020.2.10,Win32,60,61025ae37ef11b136ea224fe,,,,,,,,,2087,20,55.5,1,0,0,response1disk,,7,7,-3.5,1,0,0,rectangle,7,-3.5,1,0,0,7,-3.5,1,0,0,1,97,257,28,1,,,,,,,,
,,,,,,,,,,,,,FF,,,,,,,,0.5,,,,,,,,,,,,,,,,,,,,,,60fdd91a1ede7111c86df9f0,61037184628f7e11517ae597,2021-07-29_21h11.47.183,Simcolourproject_2stim_asymm_v5,2020.2.10,Win32,60,61025ae37ef11b136ea224fe,,,,,,,,,1838,39,52.5,1,0,0,response1disk,,7,13,-14.5,1,0,0,rectangle,13,-14.5,1,0,0,13,-14.5,1,0,0,1,98,258,146,1,,,,,,,,
,,,,,,,,,,,,,FF,,,,,,,,0.418,,,,,,,,,,,,,,,,,,,,,,60fdd91a1ede7111c86df9f0,61037184628f7e11517ae597,2021-07-29_21h11.47.183,Simcolourproject_2stim_asymm_v5,2020.2.10,Win32,60,61025ae37ef11b136ea224fe,,,,,,,,,2820,30,67.5,1,0,0,response1disk,,7,22,15.5,1,0,0,rectangle,22,15.5,1,0,0,22,15.5,1,0,0,1,99,259,55,1,,,,,,,,
,,,,,,,,,,,,,FF,,,,,,,,0.4,,,,,,,,,,,,,,,,,,,,,,60fdd91a1ede7111c86df9f0,61037184628f7e11517ae597,2021-07-29_21h11.47.183,Simcolourproject_2stim_asymm_v5,2020.2.10,Win32,60,61025ae37ef11b136ea224fe,,,,,,,,,2474,43,84.5,1,0,0,response1disk,,7,16,-13.5,1,0,0,rectangle,16,-13.5,1,0,0,16,-13.5,1,0,0,1,100,260,139,1,,,,,,,,
,,,,,,,,,,,,,FF,,,,,,,,0.974,,,,,,,,,,,,,,,,,,,,,,60fdd91a1ede7111c86df9f0,61037184628f7e11517ae597,2021-07-29_21h11.47.183,Simcolourproject_2stim_asymm_v5,2020.2.10,Win32,60,61025ae37ef11b136ea224fe,,,,,,,,,532,26,-70.5,1,0,0,response3disk,,4,-9,-8.5,1,0,0,rectangle,-9,-8.5,1,0,0,-9,-8.5,1,0,0,1,101,261,136,1,,,,,,,,
,,,,,,,,,,,,,FF,,,,,,,,0.816,,,,,,,,,,,,,,,,,,,,,,60fdd91a1ede7111c86df9f0,61037184628f7e11517ae597,2021-07-29_21h11.47.183,Simcolourproject_2stim_asymm_v5,2020.2.10,Win32,60,61025ae37ef11b136ea224fe,,,,,,,,,3682,43,75.5,1,0,0,response1disk,,7,13,5.5,1,0,0,rectangle,13,5.5,1,0,0,13,5.5,1,0,0,1,102,262,3,1,,,,,,,,
,,,,,,,,,,,,,FF,,,,,,,,0.517,,,,,,,,,,,,,,,,,,,,,,60fdd91a1ede7111c86df9f0,61037184628f7e11517ae597,2021-07-29_21h11.47.183,Simcolourproject_2stim_asymm_v5,2020.2.10,Win32,60,61025ae37ef11b136ea224fe,,,,,,,,,160,37,63.5,1,0,0,response1disk,,7,20,17.5,1,0,0,rectangle,-47,-33.5,1,0,0,8,5.5,1,0,0,1,103,263,49,1,,response5disk_3,TRUE,2,2,"[83,70,286,266,264,34,134,299,103,247,256,177,145,295,126,268,125,204,204,197]",1.884,rectangle
,,,,,,,,,,,,,FF,,,,,,,,0.685,,,,,,,,,,,,,,,,,,,,,,60fdd91a1ede7111c86df9f0,61037184628f7e11517ae597,2021-07-29_21h11.47.183,Simcolourproject_2stim_asymm_v5,2020.2.10,Win32,60,61025ae37ef11b136ea224fe,,,,,,,,,1378,39,71.5,1,0,0,response1disk,,7,21,7.5,1,0,0,rectangle,21,7.5,1,0,0,21,7.5,1,0,0,1,104,264,37,1,,,,,,,,
,,,,,,,,,,,,,FF,,,,,,,,0.384,,,,,,,,,,,,,,,,,,,,,,60fdd91a1ede7111c86df9f0,61037184628f7e11517ae597,2021-07-29_21h11.47.183,Simcolourproject_2stim_asymm_v5,2020.2.10,Win32,60,61025ae37ef11b136ea224fe,,,,,,,,,2482,40,56.5,1,0,0,response1disk,,7,18,-8.5,1,0,0,rectangle,-65,-35.5,1,0,0,1,7.5,1,0,0,1,105,265,69,1,,response5disk_3,TRUE,2,2,"[83,70,286,266,264,34,134,299,103,247,256,177,145,295,126,268,125,204,204,197]",1.533,rectangle
,,,,,,,,,,,,,FF,,,,,,,,1.15,,,,,,,,,,,,,,,,,,,,,,60fdd91a1ede7111c86df9f0,61037184628f7e11517ae597,2021-07-29_21h11.47.183,Simcolourproject_2stim_asymm_v5,2020.2.10,Win32,60,61025ae37ef11b136ea224fe,,,,,,,,,634,-43,-63.5,1,0,0,response5disk,,3,-7,-11.5,1,0,0,rectangle,-7,-11.5,1,0,0,-7,-11.5,1,0,0,1,106,266,80,1,,,,,,,,
,,,,,,,,,,,,,FF,,,,,,,,0.705,,,,,,,,,,,,,,,,,,,,,,60fdd91a1ede7111c86df9f0,61037184628f7e11517ae597,2021-07-29_21h11.47.183,Simcolourproject_2stim_asymm_v5,2020.2.10,Win32,60,61025ae37ef11b136ea224fe,,,,,,,,,4090,19,58.5,1,0,0,response1disk,,7,-1,3.5,1,0,0,rectangle,-57,-47.5,1,0,0,11,16.5,1,0,0,1,107,267,140,1,,response5disk_3,TRUE,2,2,"[83,70,286,266,264,34,134,299,103,247,256,177,145,295,126,268,125,204,204,197]",1.866,rectangle
,,,,,,,,,,,,,FF,,,,,,,,0.584,,,,,,,,,,,,,,,,,,,,,,60fdd91a1ede7111c86df9f0,61037184628f7e11517ae597,2021-07-29_21h11.47.183,Simcolourproject_2stim_asymm_v5,2020.2.10,Win32,60,61025ae37ef11b136ea224fe,,,,,,,,,1158,22,53.5,1,0,0,response1disk,,7,11,7.5,1,0,0,rectangle,11,7.5,1,0,0,11,7.5,1,0,0,1,108,268,101,1,,,,,,,,
,,,,,,,,,,,,,FF,,,,,,,,0.417,,,,,,,,,,,,,,,,,,,,,,60fdd91a1ede7111c86df9f0,61037184628f7e11517ae597,2021-07-29_21h11.47.183,Simcolourproject_2stim_asymm_v5,2020.2.10,Win32,60,61025ae37ef11b136ea224fe,,,,,,,,,2931,45,67.5,1,0,0,response1disk,,7,-1,-11.5,1,0,0,rectangle,-1,-11.5,1,0,0,-1,-11.5,1,0,0,1,109,269,84,1,,,,,,,,
,,,,,,,,,,,,,FF,,,,,,,,0.393,,,,,,,,,,,,,,,,,,,,,,60fdd91a1ede7111c86df9f0,61037184628f7e11517ae597,2021-07-29_21h11.47.183,Simcolourproject_2stim_asymm_v5,2020.2.10,Win32,60,61025ae37ef11b136ea224fe,,,,,,,,,2549,29,60.5,1,0,0,response1disk,,7,4,3.5,1,0,0,rectangle,4,3.5,1,0,0,4,3.5,1,0,0,1,110,270,99,1,,,,,,,,
,,,,,,,,,,,,,FF,,,,,,,,0.403,,,,,,,,,,,,,,,,,,,,,,60fdd91a1ede7111c86df9f0,61037184628f7e11517ae597,2021-07-29_21h11.47.183,Simcolourproject_2stim_asymm_v5,2020.2.10,Win32,60,61025ae37ef11b136ea224fe,,,,,,,,,291,35,73.5,1,0,0,response1disk,,7,7,-0.5,1,0,0,rectangle,7,-0.5,1,0,0,7,-0.5,1,0,0,1,111,271,0,1,,,,,,,,
,,,,,,,,,,,,,FF,,,,,,,,0.482,,,,,,,,,,,,,,,,,,,,,,60fdd91a1ede7111c86df9f0,61037184628f7e11517ae597,2021-07-29_21h11.47.183,Simcolourproject_2stim_asymm_v5,2020.2.10,Win32,60,61025ae37ef11b136ea224fe,,,,,,,,,1285,33,61.5,1,0,0,response1disk,,7,11,4.5,1,0,0,rectangle,11,4.5,1,0,0,11,4.5,1,0,0,1,112,272,77,1,,,,,,,,
,,,,,,,,,,,,,FF,,,,,,,,0.783,,,,,,,,,,,,,,,,,,,,,,60fdd91a1ede7111c86df9f0,61037184628f7e11517ae597,2021-07-29_21h11.47.183,Simcolourproject_2stim_asymm_v5,2020.2.10,Win32,60,61025ae37ef11b136ea224fe,,,,,,,,,3630,-28,65.5,1,0,0,response7disk,,0,-1,4.5,1,0,0,rectangle,-1,4.5,1,0,0,-1,4.5,1,0,0,1,113,273,21,1,,,,,,,,
,,,,,,,,,,,,,FF,,,,,,,,0.617,,,,,,,,,,,,,,,,,,,,,,60fdd91a1ede7111c86df9f0,61037184628f7e11517ae597,2021-07-29_21h11.47.183,Simcolourproject_2stim_asymm_v5,2020.2.10,Win32,60,61025ae37ef11b136ea224fe,,,,,,,,,3533,48,59.5,1,0,0,response1disk,,7,13,-0.5,1,0,0,rectangle,13,-0.5,1,0,0,13,-0.5,1,0,0,1,114,274,58,1,,,,,,,,
,,,,,,,,,,,,,FF,,,,,,,,0.419,,,,,,,,,,,,,,,,,,,,,,60fdd91a1ede7111c86df9f0,61037184628f7e11517ae597,2021-07-29_21h11.47.183,Simcolourproject_2stim_asymm_v5,2020.2.10,Win32,60,61025ae37ef11b136ea224fe,,,,,,,,,2385,26,47.5,1,0,0,response1disk,,7,9,-15.5,1,0,0,rectangle,9,-15.5,1,0,0,9,-15.5,1,0,0,1,115,275,95,1,,,,,,,,
,,,,,,,,,,,,,FF,,,,,,,,0.433,,,,,,,,,,,,,,,,,,,,,,60fdd91a1ede7111c86df9f0,61037184628f7e11517ae597,2021-07-29_21h11.47.183,Simcolourproject_2stim_asymm_v5,2020.2.10,Win32,60,61025ae37ef11b136ea224fe,,,,,,,,,1323,27,57.5,1,0,0,response1disk,,7,7,-3.5,1,0,0,rectangle,7,-3.5,1,0,0,7,-3.5,1,0,0,1,116,276,56,1,,,,,,,,
,,,,,,,,,,,,,FF,,,,,,,,0.984,,,,,,,,,,,,,,,,,,,,,,60fdd91a1ede7111c86df9f0,61037184628f7e11517ae597,2021-07-29_21h11.47.183,Simcolourproject_2stim_asymm_v5,2020.2.10,Win32,60,61025ae37ef11b136ea224fe,,,,,,,,,1957,49,-35.5,1,0,0,response3disk,,5,-4,-0.5,1,0,0,rectangle,-4,-0.5,1,0,0,-4,-0.5,1,0,0,1,117,277,108,1,,,,,,,,
,,,,,,,,,,,,,FF,,,,,,,,0.442,,,,,,,,,,,,,,,,,,,,,,60fdd91a1ede7111c86df9f0,61037184628f7e11517ae597,2021-07-29_21h11.47.183,Simcolourproject_2stim_asymm_v5,2020.2.10,Win32,60,61025ae37ef11b136ea224fe,,,,,,,,,319,38,67.5,1,0,0,response1disk,,7,16,-2.5,1,0,0,rectangle,16,-2.5,1,0,0,16,-2.5,1,0,0,1,118,278,159,1,,,,,,,,
,,,,,,,,,,,,,FF,,,,,,,,1.012,,,,,,,,,,,,,,,,,,,,,,60fdd91a1ede7111c86df9f0,61037184628f7e11517ae597,2021-07-29_21h11.47.183,Simcolourproject_2stim_asymm_v5,2020.2.10,Win32,60,61025ae37ef11b136ea224fe,,,,,,,,,3912,51,34.5,1,0,0,response1disk,,6,13,-17.5,1,0,0,rectangle,13,-17.5,1,0,0,13,-17.5,1,0,0,1,119,279,65,1,,,,,,,,
,,,,,,,,,,,,,FF,,,,,,,,0.472,,,,,,,,,,,,,,,,,,,,,,60fdd91a1ede7111c86df9f0,61037184628f7e11517ae597,2021-07-29_21h11.47.183,Simcolourproject_2stim_asymm_v5,2020.2.10,Win32,60,61025ae37ef11b136ea224fe,,,,,,,,,2664,35,51.5,1,0,0,response1disk,,7,11,-7.5,1,0,0,rectangle,11,-7.5,1,0,0,11,-7.5,1,0,0,1,120,280,151,1,,,,,,,,
,,,,,,,,,,,,,FF,,,,,,,,1.468,,,,,,,,,,,,,,,,,,,,,,60fdd91a1ede7111c86df9f0,61037184628f7e11517ae597,2021-07-29_21h11.47.183,Simcolourproject_2stim_asymm_v5,2020.2.10,Win32,60,61025ae37ef11b136ea224fe,,,,,,,,,2361,26,48.5,1,0,0,response1disk,,7,10,-4.5,1,0,0,rectangle,10,-4.5,1,0,0,10,-4.5,1,0,0,1,121,281,144,1,,,,,,,,
,,,,,,,,,,,,,FF,,,,,,,,0.55,,,,,,,,,,,,,,,,,,,,,,60fdd91a1ede7111c86df9f0,61037184628f7e11517ae597,2021-07-29_21h11.47.183,Simcolourproject_2stim_asymm_v5,2020.2.10,Win32,60,61025ae37ef11b136ea224fe,,,,,,,,,3566,36,49.5,1,0,0,response1disk,,7,12,-2.5,1,0,0,rectangle,12,-2.5,1,0,0,12,-2.5,1,0,0,1,122,282,62,1,,,,,,,,
,,,,,,,,,,,,,FF,,,,,,,,0.8,,,,,,,,,,,,,,,,,,,,,,60fdd91a1ede7111c86df9f0,61037184628f7e11517ae597,2021-07-29_21h11.47.183,Simcolourproject_2stim_asymm_v5,2020.2.10,Win32,60,61025ae37ef11b136ea224fe,,,,,,,,,3746,52,37.5,1,0,0,response1disk,,6,1,4.5,1,0,0,rectangle,1,4.5,1,0,0,1,4.5,1,0,0,1,123,283,156,1,,,,,,,,
,,,,,,,,,,,,,FF,,,,,,,,0.455,,,,,,,,,,,,,,,,,,,,,,60fdd91a1ede7111c86df9f0,61037184628f7e11517ae597,2021-07-29_21h11.47.183,Simcolourproject_2stim_asymm_v5,2020.2.10,Win32,60,61025ae37ef11b136ea224fe,,,,,,,,,1507,26,61.5,1,0,0,response1disk,,7,13,1.5,1,0,0,rectangle,13,1.5,1,0,0,13,1.5,1,0,0,1,124,284,41,1,,,,,,,,
,,,,,,,,,,,,,FF,,,,,,,,0.405,,,,,,,,,,,,,,,,,,,,,,60fdd91a1ede7111c86df9f0,61037184628f7e11517ae597,2021-07-29_21h11.47.183,Simcolourproject_2stim_asymm_v5,2020.2.10,Win32,60,61025ae37ef11b136ea224fe,,,,,,,,,1195,31,55.5,1,0,0,response1disk,,7,9,-7.5,1,0,0,rectangle,23,59.5,1,0,0,15,9.5,1,0,0,1,125,285,141,1,,response1disk_3,TRUE,7,7,"[83,70,286,266,264,34,134,299,103,247,256,177,145,295,126,268,125,204,204,197]",1.186,rectangle
,,,,,,,,,,,,,FF,,,,,,,,1.016,,,,,,,,,,,,,,,,,,,,,,60fdd91a1ede7111c86df9f0,61037184628f7e11517ae597,2021-07-29_21h11.47.183,Simcolourproject_2stim_asymm_v5,2020.2.10,Win32,60,61025ae37ef11b136ea224fe,,,,,,,,,3466,31,49.5,1,0,0,response1disk,,7,15,1.5,1,0,0,rectangle,15,1.5,1,0,0,15,1.5,1,0,0,1,126,286,34,1,,,,,,,,
,,,,,,,,,,,,,FF,,,,,,,,0.382,,,,,,,,,,,,,,,,,,,,,,60fdd91a1ede7111c86df9f0,61037184628f7e11517ae597,2021-07-29_21h11.47.183,Simcolourproject_2stim_asymm_v5,2020.2.10,Win32,60,61025ae37ef11b136ea224fe,,,,,,,,,3801,24,47.5,1,0,0,response1disk,,7,17,1.5,1,0,0,rectangle,17,1.5,1,0,0,17,1.5,1,0,0,1,127,287,107,1,,,,,,,,
,,,,,,,,,,,,,FF,,,,,,,,0.433,,,,,,,,,,,,,,,,,,,,,,60fdd91a1ede7111c86df9f0,61037184628f7e11517ae597,2021-07-29_21h11.47.183,Simcolourproject_2stim_asymm_v5,2020.2.10,Win32,60,61025ae37ef11b136ea224fe,,,,,,,,,230,29,43.5,1,0,0,response1disk,,7,16,-12.5,1,0,0,rectangle,16,-12.5,1,0,0,16,-12.5,1,0,0,1,128,288,29,1,,,,,,,,
,,,,,,,,,,,,,FF,,,,,,,,0.421,,,,,,,,,,,,,,,,,,,,,,60fdd91a1ede7111c86df9f0,61037184628f7e11517ae597,2021-07-29_21h11.47.183,Simcolourproject_2stim_asymm_v5,2020.2.10,Win32,60,61025ae37ef11b136ea224fe,,,,,,,,,1148,22,39.5,1,0,0,response1disk,,7,15,7.5,1,0,0,rectangle,15,7.5,1,0,0,15,7.5,1,0,0,1,129,289,15,1,,,,,,,,
,,,,,,,,,,,,,FF,,,,,,,,0.906,,,,,,,,,,,,,,,,,,,,,,60fdd91a1ede7111c86df9f0,61037184628f7e11517ae597,2021-07-29_21h11.47.183,Simcolourproject_2stim_asymm_v5,2020.2.10,Win32,60,61025ae37ef11b136ea224fe,,,,,,,,,459,47,27.5,1,0,0,response1disk,,6,23,4.5,1,0,0,rectangle,23,4.5,1,0,0,23,4.5,1,0,0,1,130,290,54,1,,,,,,,,
,,,,,,,,,,,,,FF,,,,,,,,0.782,,,,,,,,,,,,,,,,,,,,,,60fdd91a1ede7111c86df9f0,61037184628f7e11517ae597,2021-07-29_21h11.47.183,Simcolourproject_2stim_asymm_v5,2020.2.10,Win32,60,61025ae37ef11b136ea224fe,,,,,,,,,779,33,41.5,1,0,0,response1disk,,7,13,2.5,1,0,0,rectangle,13,2.5,1,0,0,13,2.5,1,0,0,1,131,291,20,1,,,,,,,,
,,,,,,,,,,,,,FF,,,,,,,,0.85,,,,,,,,,,,,,,,,,,,,,,60fdd91a1ede7111c86df9f0,61037184628f7e11517ae597,2021-07-29_21h11.47.183,Simcolourproject_2stim_asymm_v5,2020.2.10,Win32,60,61025ae37ef11b136ea224fe,,,,,,,,,3949,33,45.5,1,0,0,response1disk,,7,15,-6.5,1,0,0,rectangle,15,-6.5,1,0,0,15,-6.5,1,0,0,1,132,292,1,1,,,,,,,,
,,,,,,,,,,,,,FF,,,,,,,,0.589,,,,,,,,,,,,,,,,,,,,,,60fdd91a1ede7111c86df9f0,61037184628f7e11517ae597,2021-07-29_21h11.47.183,Simcolourproject_2stim_asymm_v5,2020.2.10,Win32,60,61025ae37ef11b136ea224fe,,,,,,,,,3758,26,40.5,1,0,0,response1disk,,7,13,-5.5,1,0,0,rectangle,13,-5.5,1,0,0,13,-5.5,1,0,0,1,133,293,4,1,,,,,,,,
,,,,,,,,,,,,,FF,,,,,,,,1.455,,,,,,,,,,,,,,,,,,,,,,60fdd91a1ede7111c86df9f0,61037184628f7e11517ae597,2021-07-29_21h11.47.183,Simcolourproject_2stim_asymm_v5,2020.2.10,Win32,60,61025ae37ef11b136ea224fe,,,,,,,,,4358,-51,-86.5,1,0,0,response5disk,,3,-16,-2.5,1,0,0,rectangle,29,-92.5,1,0,0,9,-17.5,1,0,0,1,134,294,117,1,,response3disk_3,TRUE,4,4,"[83,70,286,266,264,34,134,299,103,247,256,177,145,295,126,268,125,204,204,197]",1.725,rectangle
,,,,,,,,,,,,,FF,,,,,,,,1.091,,,,,,,,,,,,,,,,,,,,,,60fdd91a1ede7111c86df9f0,61037184628f7e11517ae597,2021-07-29_21h11.47.183,Simcolourproject_2stim_asymm_v5,2020.2.10,Win32,60,61025ae37ef11b136ea224fe,,,,,,,,,1052,55,45.5,1,0,0,response1disk,,6,17,-1.5,1,0,0,rectangle,17,-1.5,1,0,0,17,-1.5,1,0,0,1,135,295,9,1,,,,,,,,
