key_resp.keys,key_resp.rt,key_resp_14.keys,key_resp_14.rt,key_resp_15.keys,key_resp_15.rt,key_resp_17.keys,key_resp_17.rt,key_resp_9.keys,key_resp_9.rt,key_resp_10.keys,key_resp_10.rt,practice_comparison,Ecc,mouse_5.x,mouse_5.y,mouse_5.leftButton,mouse_5.midButton,mouse_5.rightButton,mouse_5.clicked_name,pracsimilarity,response_time,mouse_10.x,mouse_10.y,mouse_10.leftButton,mouse_10.midButton,mouse_10.rightButton,mouse_10.clicked_name,mouse_7.x,mouse_7.y,mouse_7.leftButton,mouse_7.midButton,mouse_7.rightButton,mouse_6.x,mouse_6.y,mouse_6.leftButton,mouse_6.midButton,mouse_6.rightButton,duringprac.thisRepN,duringprac.thisTrialN,duringprac.thisN,duringprac.thisIndex,duringprac.ran,participant,session,date,expName,psychopyVersion,OS,frameRate,study_id,mouse_7.clicked_name,catchpracsimilarity,catch_response_time,catchnumberprac,catchtrialorderprac,mouse_6.clicked_name,key_resp_22.keys,key_resp_22.rt,realcomparison,mouse.x,mouse.y,mouse.leftButton,mouse.midButton,mouse.rightButton,mouse.clicked_name,Colour2,similarity,mouse_2.x,mouse_2.y,mouse_2.leftButton,mouse_2.midButton,mouse_2.rightButton,mouse_2.clicked_name,mouse_3.x,mouse_3.y,mouse_3.leftButton,mouse_3.midButton,mouse_3.rightButton,mouse_11.x,mouse_11.y,mouse_11.leftButton,mouse_11.midButton,mouse_11.rightButton,trials_2.thisRepN,trials_2.thisTrialN,trials_2.thisN,trials_2.thisIndex,trials_2.ran,Colour1,mouse_3.clicked_name,catchornah,catchsimilarity,catchnumber,catchtrialorder,catchRT,mouse_11.clicked_name
space,4.4553,space,10.3068,space,26.4656,space,14.733,space,5.0888,space,12.8986,21,PF,-53.23797607,84.17749023,1,0,0,response7disk_5,0,52.8671,-15.33013916,-8.905517578,1,0,0,rectangle_8,-15.33013916,-8.905517578,1,0,0,-15.33013916,-8.905517578,1,0,0,0,0,0,2,1,60fdee1f5bb38a56c58631bc,610373be6e691fde06967a39,2021-07-29_23h56.25.633,Simcolourproject_2stim_asymm_v5,2020.2.10,MacIntel,60,61025ae37ef11b136ea224fe,,,,,,,,,,,,,,,,,,,,,,,,,,,,,,,,,,,,,,,,,,,,,,
,,,,,,,,,,,,138,PF,31.23724365,85.01635742,1,0,0,response1disk_5,7,7.3503,0.333679199,12.43051147,1,0,0,rectangle_8,-44.57781982,98.37179565,1,0,0,14.56555176,14.64065552,1,0,0,0,1,1,4,1,60fdee1f5bb38a56c58631bc,610373be6e691fde06967a39,2021-07-29_23h56.25.633,Simcolourproject_2stim_asymm_v5,2020.2.10,MacIntel,60,61025ae37ef11b136ea224fe,response7disk_7,0,3.9663,0,"[2,5]",rectangle_4,,,,,,,,,,,,,,,,,,,,,,,,,,,,,,,,,,,,,,,,
,,,,,,,,,,,,1,FF,27.85021973,59.7444458,1,0,0,response1disk_5,7,4.5337,3.565795898,4.114074707,1,0,0,rectangle_8,3.565795898,4.114074707,1,0,0,3.565795898,4.114074707,1,0,0,0,2,2,0,1,60fdee1f5bb38a56c58631bc,610373be6e691fde06967a39,2021-07-29_23h56.25.633,Simcolourproject_2stim_asymm_v5,2020.2.10,MacIntel,60,61025ae37ef11b136ea224fe,,,,,,,,,,,,,,,,,,,,,,,,,,,,,,,,,,,,,,,,,,,,,,
,,,,,,,,,,,,9,PF,26.9619751,62.70080566,1,0,0,response1disk_5,7,3.7161,12.05230713,-4.228149414,1,0,0,rectangle_8,12.05230713,-4.228149414,1,0,0,12.05230713,-4.228149414,1,0,0,0,3,3,1,1,60fdee1f5bb38a56c58631bc,610373be6e691fde06967a39,2021-07-29_23h56.25.633,Simcolourproject_2stim_asymm_v5,2020.2.10,MacIntel,60,61025ae37ef11b136ea224fe,,,,,,,,,,,,,,,,,,,,,,,,,,,,,,,,,,,,,,,,,,,,,,
,,,,,,,,,,,,141,FF,40.34588623,58.98620605,1,0,0,response1disk_5,7,2.2497,2.180664063,-10.17651367,1,0,0,rectangle_8,-38.71813965,79.56652832,1,0,0,5.136535645,0.23828125,1,0,0,0,4,4,3,1,60fdee1f5bb38a56c58631bc,610373be6e691fde06967a39,2021-07-29_23h56.25.633,Simcolourproject_2stim_asymm_v5,2020.2.10,MacIntel,60,61025ae37ef11b136ea224fe,response7disk_7,0,3.0999,0,"[2,5]",rectangle_4,,,,,,,,,,,,,,,,,,,,,,,,,,,,,,,,,,,,,,,,
,,,,,,,,,,,,101,PF,-31.8336792,80.11810303,1,0,0,response7disk_5,0,5.6496,6.585510254,-7.936767578,1,0,0,rectangle_8,6.585510254,-7.936767578,1,0,0,6.585510254,-7.936767578,1,0,0,0,5,5,6,1,60fdee1f5bb38a56c58631bc,610373be6e691fde06967a39,2021-07-29_23h56.25.633,Simcolourproject_2stim_asymm_v5,2020.2.10,MacIntel,60,61025ae37ef11b136ea224fe,,,,,,,,,,,,,,,,,,,,,,,,,,,,,,,,,,,,,,,,,,,,,,
,,,,,,,,,,,,0,FF,-36.93841553,66.54620361,1,0,0,response7disk_5,0,8.7662,-18.06976318,-12.51446533,1,0,0,rectangle_8,-18.06976318,-12.51446533,1,0,0,-18.06976318,-12.51446533,1,0,0,0,6,6,5,1,60fdee1f5bb38a56c58631bc,610373be6e691fde06967a39,2021-07-29_23h56.25.633,Simcolourproject_2stim_asymm_v5,2020.2.10,MacIntel,60,61025ae37ef11b136ea224fe,,,,,,,,,,,,,,,,,,,,,,,,,,,,,,,,,,,,,,,,,,,,,,
,,,,,,,,,,,,,FF,,,,,,,,8.1839,,,,,,,,,,,,,,,,,,,,,,60fdee1f5bb38a56c58631bc,610373be6e691fde06967a39,2021-07-29_23h56.25.633,Simcolourproject_2stim_asymm_v5,2020.2.10,MacIntel,60,61025ae37ef11b136ea224fe,,,,,,,space,5.2685,621,-27.69262695,68.39294434,1,0,0,response7disk,,0,-13.79919434,5.606445313,1,0,0,rectangle,-13.79919434,5.606445313,1,0,0,-13.79919434,5.606445313,1,0,0,0,0,0,41,1,,,,,,,,
,,,,,,,,,,,,,FF,,,,,,,,1.2001,,,,,,,,,,,,,,,,,,,,,,60fdee1f5bb38a56c58631bc,610373be6e691fde06967a39,2021-07-29_23h56.25.633,Simcolourproject_2stim_asymm_v5,2020.2.10,MacIntel,60,61025ae37ef11b136ea224fe,,,,,,,,,3984,-23.22735596,85.33374023,1,0,0,response7disk,,0,-4.156311035,0.781524658,1,0,0,rectangle,-67.72412109,-53.02810669,1,0,0,-3.332702637,-0.241333008,1,0,0,0,1,1,43,1,,response5disk_3,TRUE,2,2,"[69,189,240,172,36,2,300,51,38,17,160,263,92,288,308,131,128,295,232,18]",4.5322,rectangle
,,,,,,,,,,,,,FF,,,,,,,,3.9676,,,,,,,,,,,,,,,,,,,,,,60fdee1f5bb38a56c58631bc,610373be6e691fde06967a39,2021-07-29_23h56.25.633,Simcolourproject_2stim_asymm_v5,2020.2.10,MacIntel,60,61025ae37ef11b136ea224fe,,,,,,,,,2685,-42.52124023,102.899231,1,0,0,response7disk,,0,-10.25512695,1.162597656,1,0,0,rectangle,-10.25512695,1.162597656,1,0,0,-10.25512695,1.162597656,1,0,0,0,2,2,57,1,,,,,,,,
,,,,,,,,,,,,,FF,,,,,,,,6.6001,,,,,,,,,,,,,,,,,,,,,,60fdee1f5bb38a56c58631bc,610373be6e691fde06967a39,2021-07-29_23h56.25.633,Simcolourproject_2stim_asymm_v5,2020.2.10,MacIntel,60,61025ae37ef11b136ea224fe,,,,,,,,,894,-28.66760254,71.87893677,1,0,0,response7disk,,0,-6.027404785,11.65155029,1,0,0,rectangle,-6.027404785,11.65155029,1,0,0,-6.027404785,11.65155029,1,0,0,0,3,3,1,1,,,,,,,,
,,,,,,,,,,,,,FF,,,,,,,,3,,,,,,,,,,,,,,,,,,,,,,60fdee1f5bb38a56c58631bc,610373be6e691fde06967a39,2021-07-29_23h56.25.633,Simcolourproject_2stim_asymm_v5,2020.2.10,MacIntel,60,61025ae37ef11b136ea224fe,,,,,,,,,2293,-21.83569336,55.25915527,1,0,0,response7disk,,0,-6.979431152,-12.42733765,1,0,0,rectangle,-6.979431152,-12.42733765,1,0,0,-6.979431152,-12.42733765,1,0,0,0,4,4,144,1,,,,,,,,
,,,,,,,,,,,,,FF,,,,,,,,13.5501,,,,,,,,,,,,,,,,,,,,,,60fdee1f5bb38a56c58631bc,610373be6e691fde06967a39,2021-07-29_23h56.25.633,Simcolourproject_2stim_asymm_v5,2020.2.10,MacIntel,60,61025ae37ef11b136ea224fe,,,,,,,,,2433,-27.75244141,53.22286987,1,0,0,response7disk,,0,2.377441406,1.622589111,1,0,0,rectangle,2.377441406,1.622589111,1,0,0,2.377441406,1.622589111,1,0,0,0,5,5,64,1,,,,,,,,
,,,,,,,,,,,,,FF,,,,,,,,2.4989,,,,,,,,,,,,,,,,,,,,,,60fdee1f5bb38a56c58631bc,610373be6e691fde06967a39,2021-07-29_23h56.25.633,Simcolourproject_2stim_asymm_v5,2020.2.10,MacIntel,60,61025ae37ef11b136ea224fe,,,,,,,,,3557,-26.43365479,61.35855103,1,0,0,response7disk,,0,-0.331237793,-3.051055908,1,0,0,rectangle,-0.331237793,-3.051055908,1,0,0,-0.331237793,-3.051055908,1,0,0,0,6,6,26,1,,,,,,,,
,,,,,,,,,,,,,FF,,,,,,,,0.5487,,,,,,,,,,,,,,,,,,,,,,60fdee1f5bb38a56c58631bc,610373be6e691fde06967a39,2021-07-29_23h56.25.633,Simcolourproject_2stim_asymm_v5,2020.2.10,MacIntel,60,61025ae37ef11b136ea224fe,,,,,,,,,1840,-32.49713135,64.65814209,1,0,0,response7disk,,0,-1.135192871,-10.62927246,1,0,0,rectangle,-1.135192871,-10.62927246,1,0,0,-1.135192871,-10.62927246,1,0,0,0,7,7,54,1,,,,,,,,
,,,,,,,,,,,,,FF,,,,,,,,1.5968,,,,,,,,,,,,,,,,,,,,,,60fdee1f5bb38a56c58631bc,610373be6e691fde06967a39,2021-07-29_23h56.25.633,Simcolourproject_2stim_asymm_v5,2020.2.10,MacIntel,60,61025ae37ef11b136ea224fe,,,,,,,,,3608,-30.21557617,63.71838379,1,0,0,response7disk,,0,-4.732421875,5.193359375,1,0,0,rectangle,-4.732421875,5.193359375,1,0,0,-4.732421875,5.193359375,1,0,0,0,8,8,114,1,,,,,,,,
,,,,,,,,,,,,,FF,,,,,,,,1.1999,,,,,,,,,,,,,,,,,,,,,,60fdee1f5bb38a56c58631bc,610373be6e691fde06967a39,2021-07-29_23h56.25.633,Simcolourproject_2stim_asymm_v5,2020.2.10,MacIntel,60,61025ae37ef11b136ea224fe,,,,,,,,,147,-25.1819458,58.11541748,1,0,0,response7disk,,0,8.130249023,-13.82995605,1,0,0,rectangle,8.130249023,-13.82995605,1,0,0,8.130249023,-13.82995605,1,0,0,0,9,9,12,1,,,,,,,,
,,,,,,,,,,,,,FF,,,,,,,,0.649,,,,,,,,,,,,,,,,,,,,,,60fdee1f5bb38a56c58631bc,610373be6e691fde06967a39,2021-07-29_23h56.25.633,Simcolourproject_2stim_asymm_v5,2020.2.10,MacIntel,60,61025ae37ef11b136ea224fe,,,,,,,,,362,-41.4732666,72.75375366,1,0,0,response7disk,,0,-7.795837402,8.47756958,1,0,0,rectangle,-7.795837402,8.47756958,1,0,0,-7.795837402,8.47756958,1,0,0,0,10,10,3,1,,,,,,,,
,,,,,,,,,,,,,FF,,,,,,,,0.5163,,,,,,,,,,,,,,,,,,,,,,60fdee1f5bb38a56c58631bc,610373be6e691fde06967a39,2021-07-29_23h56.25.633,Simcolourproject_2stim_asymm_v5,2020.2.10,MacIntel,60,61025ae37ef11b136ea224fe,,,,,,,,,4359,-22.06646729,51.69494629,1,0,0,response7disk,,0,-7.149414063,0.637451172,1,0,0,rectangle,-7.149414063,0.637451172,1,0,0,-7.149414063,0.637451172,1,0,0,0,11,11,9,1,,,,,,,,
,,,,,,,,,,,,,FF,,,,,,,,0.5673,,,,,,,,,,,,,,,,,,,,,,60fdee1f5bb38a56c58631bc,610373be6e691fde06967a39,2021-07-29_23h56.25.633,Simcolourproject_2stim_asymm_v5,2020.2.10,MacIntel,60,61025ae37ef11b136ea224fe,,,,,,,,,3369,-37.47424316,77.7802124,1,0,0,response7disk,,0,-17.05700684,4.074127197,1,0,0,rectangle,-17.05700684,4.074127197,1,0,0,-17.05700684,4.074127197,1,0,0,0,12,12,59,1,,,,,,,,
,,,,,,,,,,,,,FF,,,,,,,,0.9009,,,,,,,,,,,,,,,,,,,,,,60fdee1f5bb38a56c58631bc,610373be6e691fde06967a39,2021-07-29_23h56.25.633,Simcolourproject_2stim_asymm_v5,2020.2.10,MacIntel,60,61025ae37ef11b136ea224fe,,,,,,,,,177,-26.58691406,54.35626221,1,0,0,response7disk,,0,-0.714477539,-8.747741699,1,0,0,rectangle,-0.714477539,-8.747741699,1,0,0,-0.714477539,-8.747741699,1,0,0,0,13,13,78,1,,,,,,,,
,,,,,,,,,,,,,FF,,,,,,,,0.4481,,,,,,,,,,,,,,,,,,,,,,60fdee1f5bb38a56c58631bc,610373be6e691fde06967a39,2021-07-29_23h56.25.633,Simcolourproject_2stim_asymm_v5,2020.2.10,MacIntel,60,61025ae37ef11b136ea224fe,,,,,,,,,1835,-31.3583374,59.4637146,1,0,0,response7disk,,0,8.83770752,-7.843688965,1,0,0,rectangle,8.83770752,-7.843688965,1,0,0,8.83770752,-7.843688965,1,0,0,0,14,14,61,1,,,,,,,,
,,,,,,,,,,,,,FF,,,,,,,,0.5329,,,,,,,,,,,,,,,,,,,,,,60fdee1f5bb38a56c58631bc,610373be6e691fde06967a39,2021-07-29_23h56.25.633,Simcolourproject_2stim_asymm_v5,2020.2.10,MacIntel,60,61025ae37ef11b136ea224fe,,,,,,,,,2045,-25.64874268,63.82220459,1,0,0,response7disk,,0,-2.502929688,3.9715271,1,0,0,rectangle,-2.502929688,3.9715271,1,0,0,-2.502929688,3.9715271,1,0,0,0,15,15,127,1,,,,,,,,
,,,,,,,,,,,,,FF,,,,,,,,0.3827,,,,,,,,,,,,,,,,,,,,,,60fdee1f5bb38a56c58631bc,610373be6e691fde06967a39,2021-07-29_23h56.25.633,Simcolourproject_2stim_asymm_v5,2020.2.10,MacIntel,60,61025ae37ef11b136ea224fe,,,,,,,,,2922,-22.13696289,56.6468811,1,0,0,response7disk,,0,-5.864685059,-1.80355835,1,0,0,rectangle,-32.82421875,50.29608154,1,0,0,-19.07312012,11.73034668,1,0,0,0,16,16,153,1,,response7disk_3,TRUE,0,0,"[69,189,240,172,36,2,300,51,38,17,160,263,92,288,308,131,128,295,232,18]",0.4288,rectangle
,,,,,,,,,,,,,FF,,,,,,,,1.1652,,,,,,,,,,,,,,,,,,,,,,60fdee1f5bb38a56c58631bc,610373be6e691fde06967a39,2021-07-29_23h56.25.633,Simcolourproject_2stim_asymm_v5,2020.2.10,MacIntel,60,61025ae37ef11b136ea224fe,,,,,,,,,3218,-26.90246582,42.84030151,1,0,0,response7disk,,0,-15.06652832,3.689758301,1,0,0,rectangle,70.81817627,-47.15917969,1,0,0,3.283630371,3.930114746,1,0,0,0,17,17,82,1,,response3disk_3,TRUE,5,5,"[69,189,240,172,36,2,300,51,38,17,160,263,92,288,308,131,128,295,232,18]",2.5656,rectangle
,,,,,,,,,,,,,FF,,,,,,,,4.1003,,,,,,,,,,,,,,,,,,,,,,60fdee1f5bb38a56c58631bc,610373be6e691fde06967a39,2021-07-29_23h56.25.633,Simcolourproject_2stim_asymm_v5,2020.2.10,MacIntel,60,61025ae37ef11b136ea224fe,,,,,,,,,329,-40.15667725,78.69238281,1,0,0,response7disk,,0,-7.446411133,-17.82647705,1,0,0,rectangle,-7.446411133,-17.82647705,1,0,0,-7.446411133,-17.82647705,1,0,0,0,18,18,87,1,,,,,,,,
,,,,,,,,,,,,,FF,,,,,,,,5.2824,,,,,,,,,,,,,,,,,,,,,,60fdee1f5bb38a56c58631bc,610373be6e691fde06967a39,2021-07-29_23h56.25.633,Simcolourproject_2stim_asymm_v5,2020.2.10,MacIntel,60,61025ae37ef11b136ea224fe,,,,,,,,,1799,-34.93682861,74.97009277,1,0,0,response7disk,,0,-4.034118652,-8.188781738,1,0,0,rectangle,-4.034118652,-8.188781738,1,0,0,-4.034118652,-8.188781738,1,0,0,0,19,19,2,1,,,,,,,,
,,,,,,,,,,,,,FF,,,,,,,,3.566,,,,,,,,,,,,,,,,,,,,,,60fdee1f5bb38a56c58631bc,610373be6e691fde06967a39,2021-07-29_23h56.25.633,Simcolourproject_2stim_asymm_v5,2020.2.10,MacIntel,60,61025ae37ef11b136ea224fe,,,,,,,,,2785,-29.67480469,82.81845093,1,0,0,response7disk,,0,7.149658203,5.822875977,1,0,0,rectangle,7.149658203,5.822875977,1,0,0,7.149658203,5.822875977,1,0,0,0,20,20,121,1,,,,,,,,
,,,,,,,,,,,,,FF,,,,,,,,2.0335,,,,,,,,,,,,,,,,,,,,,,60fdee1f5bb38a56c58631bc,610373be6e691fde06967a39,2021-07-29_23h56.25.633,Simcolourproject_2stim_asymm_v5,2020.2.10,MacIntel,60,61025ae37ef11b136ea224fe,,,,,,,,,816,-26.13366699,60.69076538,1,0,0,response7disk,,0,2.579040527,10.22650146,1,0,0,rectangle,2.579040527,10.22650146,1,0,0,2.579040527,10.22650146,1,0,0,0,21,21,147,1,,,,,,,,
,,,,,,,,,,,,,FF,,,,,,,,0.7162,,,,,,,,,,,,,,,,,,,,,,60fdee1f5bb38a56c58631bc,610373be6e691fde06967a39,2021-07-29_23h56.25.633,Simcolourproject_2stim_asymm_v5,2020.2.10,MacIntel,60,61025ae37ef11b136ea224fe,,,,,,,,,1486,-29.51263428,49.44515991,1,0,0,response7disk,,0,-4.535522461,6.193847656,1,0,0,rectangle,-4.535522461,6.193847656,1,0,0,-4.535522461,6.193847656,1,0,0,0,22,22,31,1,,,,,,,,
,,,,,,,,,,,,,FF,,,,,,,,0.5498,,,,,,,,,,,,,,,,,,,,,,60fdee1f5bb38a56c58631bc,610373be6e691fde06967a39,2021-07-29_23h56.25.633,Simcolourproject_2stim_asymm_v5,2020.2.10,MacIntel,60,61025ae37ef11b136ea224fe,,,,,,,,,1529,-35.36535645,80.79351807,1,0,0,response7disk,,0,-0.329284668,8.776092529,1,0,0,rectangle,-0.329284668,8.776092529,1,0,0,-0.329284668,8.776092529,1,0,0,0,23,23,83,1,,,,,,,,
,,,,,,,,,,,,,FF,,,,,,,,0.4659,,,,,,,,,,,,,,,,,,,,,,60fdee1f5bb38a56c58631bc,610373be6e691fde06967a39,2021-07-29_23h56.25.633,Simcolourproject_2stim_asymm_v5,2020.2.10,MacIntel,60,61025ae37ef11b136ea224fe,,,,,,,,,2862,-31.94329834,53.53686523,1,0,0,response7disk,,0,-15.19256592,5.589172363,1,0,0,rectangle,-15.19256592,5.589172363,1,0,0,-15.19256592,5.589172363,1,0,0,0,24,24,65,1,,,,,,,,
,,,,,,,,,,,,,FF,,,,,,,,0.3999,,,,,,,,,,,,,,,,,,,,,,60fdee1f5bb38a56c58631bc,610373be6e691fde06967a39,2021-07-29_23h56.25.633,Simcolourproject_2stim_asymm_v5,2020.2.10,MacIntel,60,61025ae37ef11b136ea224fe,,,,,,,,,754,-38.71160889,66.92468262,1,0,0,response7disk,,0,-10.03515625,10.53970337,1,0,0,rectangle,-10.03515625,10.53970337,1,0,0,-10.03515625,10.53970337,1,0,0,0,25,25,60,1,,,,,,,,
,,,,,,,,,,,,,FF,,,,,,,,0.3655,,,,,,,,,,,,,,,,,,,,,,60fdee1f5bb38a56c58631bc,610373be6e691fde06967a39,2021-07-29_23h56.25.633,Simcolourproject_2stim_asymm_v5,2020.2.10,MacIntel,60,61025ae37ef11b136ea224fe,,,,,,,,,1975,-29.38049316,59.55307007,1,0,0,response7disk,,0,-3.377624512,-13.75842285,1,0,0,rectangle,-3.377624512,-13.75842285,1,0,0,-3.377624512,-13.75842285,1,0,0,0,26,26,142,1,,,,,,,,
,,,,,,,,,,,,,FF,,,,,,,,0.6998,,,,,,,,,,,,,,,,,,,,,,60fdee1f5bb38a56c58631bc,610373be6e691fde06967a39,2021-07-29_23h56.25.633,Simcolourproject_2stim_asymm_v5,2020.2.10,MacIntel,60,61025ae37ef11b136ea224fe,,,,,,,,,2391,-29.56854248,67.30691528,1,0,0,response7disk,,0,-2.678039551,-2.907104492,1,0,0,rectangle,-2.678039551,-2.907104492,1,0,0,-2.678039551,-2.907104492,1,0,0,0,27,27,81,1,,,,,,,,
,,,,,,,,,,,,,FF,,,,,,,,0.7669,,,,,,,,,,,,,,,,,,,,,,60fdee1f5bb38a56c58631bc,610373be6e691fde06967a39,2021-07-29_23h56.25.633,Simcolourproject_2stim_asymm_v5,2020.2.10,MacIntel,60,61025ae37ef11b136ea224fe,,,,,,,,,1471,-33.07830811,59.47131348,1,0,0,response7disk,,0,-5.876281738,-4.169250488,1,0,0,rectangle,-5.876281738,-4.169250488,1,0,0,-5.876281738,-4.169250488,1,0,0,0,28,28,120,1,,,,,,,,
,,,,,,,,,,,,,FF,,,,,,,,0.6991,,,,,,,,,,,,,,,,,,,,,,60fdee1f5bb38a56c58631bc,610373be6e691fde06967a39,2021-07-29_23h56.25.633,Simcolourproject_2stim_asymm_v5,2020.2.10,MacIntel,60,61025ae37ef11b136ea224fe,,,,,,,,,3424,-38.67810059,68.07473755,1,0,0,response7disk,,0,-17.16491699,2.42364502,1,0,0,rectangle,-17.16491699,2.42364502,1,0,0,-17.16491699,2.42364502,1,0,0,0,29,29,97,1,,,,,,,,
,,,,,,,,,,,,,FF,,,,,,,,1.1662,,,,,,,,,,,,,,,,,,,,,,60fdee1f5bb38a56c58631bc,610373be6e691fde06967a39,2021-07-29_23h56.25.633,Simcolourproject_2stim_asymm_v5,2020.2.10,MacIntel,60,61025ae37ef11b136ea224fe,,,,,,,,,2641,-48.6987915,99.69943237,1,0,0,response7disk,,0,-12.82855225,10.10943604,1,0,0,rectangle,-12.82855225,10.10943604,1,0,0,-12.82855225,10.10943604,1,0,0,0,30,30,74,1,,,,,,,,
,,,,,,,,,,,,,FF,,,,,,,,0.6666,,,,,,,,,,,,,,,,,,,,,,60fdee1f5bb38a56c58631bc,610373be6e691fde06967a39,2021-07-29_23h56.25.633,Simcolourproject_2stim_asymm_v5,2020.2.10,MacIntel,60,61025ae37ef11b136ea224fe,,,,,,,,,432,-33.9465332,86.84963989,1,0,0,response7disk,,0,-6.222167969,0.260009766,1,0,0,rectangle,-6.222167969,0.260009766,1,0,0,-6.222167969,0.260009766,1,0,0,0,31,31,100,1,,,,,,,,
,,,,,,,,,,,,,FF,,,,,,,,0.5503,,,,,,,,,,,,,,,,,,,,,,60fdee1f5bb38a56c58631bc,610373be6e691fde06967a39,2021-07-29_23h56.25.633,Simcolourproject_2stim_asymm_v5,2020.2.10,MacIntel,60,61025ae37ef11b136ea224fe,,,,,,,,,1056,-33.43493652,76.92752075,1,0,0,response7disk,,0,-1.07232666,-10.51519775,1,0,0,rectangle,-1.07232666,-10.51519775,1,0,0,-1.07232666,-10.51519775,1,0,0,0,32,32,55,1,,,,,,,,
,,,,,,,,,,,,,FF,,,,,,,,0.7841,,,,,,,,,,,,,,,,,,,,,,60fdee1f5bb38a56c58631bc,610373be6e691fde06967a39,2021-07-29_23h56.25.633,Simcolourproject_2stim_asymm_v5,2020.2.10,MacIntel,60,61025ae37ef11b136ea224fe,,,,,,,,,273,-30.69842529,53.78277588,1,0,0,response7disk,,0,1.184387207,1.397521973,1,0,0,rectangle,1.184387207,1.397521973,1,0,0,1.184387207,1.397521973,1,0,0,0,33,33,124,1,,,,,,,,
,,,,,,,,,,,,,FF,,,,,,,,1.0162,,,,,,,,,,,,,,,,,,,,,,60fdee1f5bb38a56c58631bc,610373be6e691fde06967a39,2021-07-29_23h56.25.633,Simcolourproject_2stim_asymm_v5,2020.2.10,MacIntel,60,61025ae37ef11b136ea224fe,,,,,,,,,2348,-26.80596924,60.81906128,1,0,0,response7disk,,0,7.570495605,-4.203857422,1,0,0,rectangle,7.570495605,-4.203857422,1,0,0,7.570495605,-4.203857422,1,0,0,0,34,34,118,1,,,,,,,,
,,,,,,,,,,,,,FF,,,,,,,,1.1676,,,,,,,,,,,,,,,,,,,,,,60fdee1f5bb38a56c58631bc,610373be6e691fde06967a39,2021-07-29_23h56.25.633,Simcolourproject_2stim_asymm_v5,2020.2.10,MacIntel,60,61025ae37ef11b136ea224fe,,,,,,,,,1621,-43.49890137,103.6262817,1,0,0,response7disk,,0,7.212036133,13.60931396,1,0,0,rectangle,-57.19128418,-40.18035889,1,0,0,-22.89715576,-9.69909668,1,0,0,0,35,35,33,1,,response5disk_3,TRUE,2,2,"[69,189,240,172,36,2,300,51,38,17,160,263,92,288,308,131,128,295,232,18]",1.7995,rectangle
,,,,,,,,,,,,,FF,,,,,,,,0.8464,,,,,,,,,,,,,,,,,,,,,,60fdee1f5bb38a56c58631bc,610373be6e691fde06967a39,2021-07-29_23h56.25.633,Simcolourproject_2stim_asymm_v5,2020.2.10,MacIntel,60,61025ae37ef11b136ea224fe,,,,,,,,,4339,-44.69555664,65.09606934,1,0,0,response7disk,,0,-16.22662354,5.448516846,1,0,0,rectangle,-16.22662354,5.448516846,1,0,0,-16.22662354,5.448516846,1,0,0,0,36,36,131,1,,,,,,,,
,,,,,,,,,,,,,FF,,,,,,,,0.4011,,,,,,,,,,,,,,,,,,,,,,60fdee1f5bb38a56c58631bc,610373be6e691fde06967a39,2021-07-29_23h56.25.633,Simcolourproject_2stim_asymm_v5,2020.2.10,MacIntel,60,61025ae37ef11b136ea224fe,,,,,,,,,2298,-41.93823242,71.22369385,1,0,0,response7disk,,0,-15.01525879,0.925476074,1,0,0,rectangle,-40.6829834,61.20730591,1,0,0,-15.55792236,-13.16647339,1,0,0,0,37,37,38,1,,response7disk_3,TRUE,0,5,"[69,189,240,172,36,2,300,51,38,17,160,263,92,288,308,131,128,295,232,18]",0.4665,rectangle
,,,,,,,,,,,,,FF,,,,,,,,1.3169,,,,,,,,,,,,,,,,,,,,,,60fdee1f5bb38a56c58631bc,610373be6e691fde06967a39,2021-07-29_23h56.25.633,Simcolourproject_2stim_asymm_v5,2020.2.10,MacIntel,60,61025ae37ef11b136ea224fe,,,,,,,,,1865,-38.70727539,56.27471924,1,0,0,response7disk,,0,-14.33294678,-1.545532227,1,0,0,rectangle,-14.33294678,-1.545532227,1,0,0,-14.33294678,-1.545532227,1,0,0,0,38,38,150,1,,,,,,,,
,,,,,,,,,,,,,FF,,,,,,,,0.6997,,,,,,,,,,,,,,,,,,,,,,60fdee1f5bb38a56c58631bc,610373be6e691fde06967a39,2021-07-29_23h56.25.633,Simcolourproject_2stim_asymm_v5,2020.2.10,MacIntel,60,61025ae37ef11b136ea224fe,,,,,,,,,2661,-40.25830078,59.41644287,1,0,0,response7disk,,0,-19.99993896,-2.344940186,1,0,0,rectangle,-19.99993896,-2.344940186,1,0,0,-19.99993896,-2.344940186,1,0,0,0,39,39,37,1,,,,,,,,
,,,,,,,,,,,,,FF,,,,,,,,0.6344,,,,,,,,,,,,,,,,,,,,,,60fdee1f5bb38a56c58631bc,610373be6e691fde06967a39,2021-07-29_23h56.25.633,Simcolourproject_2stim_asymm_v5,2020.2.10,MacIntel,60,61025ae37ef11b136ea224fe,,,,,,,,,1038,-38.21984863,72.51702881,1,0,0,response7disk,,0,-8.514038086,-5.33215332,1,0,0,rectangle,-8.514038086,-5.33215332,1,0,0,-8.514038086,-5.33215332,1,0,0,0,40,40,23,1,,,,,,,,
,,,,,,,,,,,,,FF,,,,,,,,0.8838,,,,,,,,,,,,,,,,,,,,,,60fdee1f5bb38a56c58631bc,610373be6e691fde06967a39,2021-07-29_23h56.25.633,Simcolourproject_2stim_asymm_v5,2020.2.10,MacIntel,60,61025ae37ef11b136ea224fe,,,,,,,,,1977,-32.29931641,46.24633789,1,0,0,response7disk,,0,-16.22796631,-2.077697754,1,0,0,rectangle,-16.22796631,-2.077697754,1,0,0,-16.22796631,-2.077697754,1,0,0,0,41,41,69,1,,,,,,,,
,,,,,,,,,,,,,FF,,,,,,,,1.3319,,,,,,,,,,,,,,,,,,,,,,60fdee1f5bb38a56c58631bc,610373be6e691fde06967a39,2021-07-29_23h56.25.633,Simcolourproject_2stim_asymm_v5,2020.2.10,MacIntel,60,61025ae37ef11b136ea224fe,,,,,,,,,1785,-40.5479126,61.80340576,1,0,0,response7disk,,0,2.896484375,-10.43762207,1,0,0,rectangle,2.896484375,-10.43762207,1,0,0,2.896484375,-10.43762207,1,0,0,0,42,42,44,1,,,,,,,,
,,,,,,,,,,,,,FF,,,,,,,,0.8339,,,,,,,,,,,,,,,,,,,,,,60fdee1f5bb38a56c58631bc,610373be6e691fde06967a39,2021-07-29_23h56.25.633,Simcolourproject_2stim_asymm_v5,2020.2.10,MacIntel,60,61025ae37ef11b136ea224fe,,,,,,,,,2209,-48.08435059,93.51260376,1,0,0,response7disk,,0,-4.61517334,-6.239959717,1,0,0,rectangle,-4.61517334,-6.239959717,1,0,0,-4.61517334,-6.239959717,1,0,0,0,43,43,148,1,,,,,,,,
,,,,,,,,,,,,,FF,,,,,,,,0.667,,,,,,,,,,,,,,,,,,,,,,60fdee1f5bb38a56c58631bc,610373be6e691fde06967a39,2021-07-29_23h56.25.633,Simcolourproject_2stim_asymm_v5,2020.2.10,MacIntel,60,61025ae37ef11b136ea224fe,,,,,,,,,1234,-32.34143066,64.53125,1,0,0,response7disk,,0,-4.672912598,-12.09954834,1,0,0,rectangle,-4.672912598,-12.09954834,1,0,0,-4.672912598,-12.09954834,1,0,0,0,44,44,67,1,,,,,,,,
,,,,,,,,,,,,,FF,,,,,,,,0.8176,,,,,,,,,,,,,,,,,,,,,,60fdee1f5bb38a56c58631bc,610373be6e691fde06967a39,2021-07-29_23h56.25.633,Simcolourproject_2stim_asymm_v5,2020.2.10,MacIntel,60,61025ae37ef11b136ea224fe,,,,,,,,,443,-34.93017578,51.58874512,1,0,0,response7disk,,0,-17.25714111,12.19006348,1,0,0,rectangle,-17.25714111,12.19006348,1,0,0,-17.25714111,12.19006348,1,0,0,0,45,45,39,1,,,,,,,,
,,,,,,,,,,,,,FF,,,,,,,,0.6985,,,,,,,,,,,,,,,,,,,,,,60fdee1f5bb38a56c58631bc,610373be6e691fde06967a39,2021-07-29_23h56.25.633,Simcolourproject_2stim_asymm_v5,2020.2.10,MacIntel,60,61025ae37ef11b136ea224fe,,,,,,,,,1586,-23.3737793,39.93936157,1,0,0,response7disk,,0,-8.727844238,-0.263580322,1,0,0,rectangle,-8.727844238,-0.263580322,1,0,0,-8.727844238,-0.263580322,1,0,0,0,46,46,18,1,,,,,,,,
,,,,,,,,,,,,,FF,,,,,,,,0.8833,,,,,,,,,,,,,,,,,,,,,,60fdee1f5bb38a56c58631bc,610373be6e691fde06967a39,2021-07-29_23h56.25.633,Simcolourproject_2stim_asymm_v5,2020.2.10,MacIntel,60,61025ae37ef11b136ea224fe,,,,,,,,,1152,-31.04785156,60.27810669,1,0,0,response7disk,,0,-4.423522949,9.198028564,1,0,0,rectangle,-4.423522949,9.198028564,1,0,0,-4.423522949,9.198028564,1,0,0,0,47,47,108,1,,,,,,,,
,,,,,,,,,,,,,FF,,,,,,,,0.8156,,,,,,,,,,,,,,,,,,,,,,60fdee1f5bb38a56c58631bc,610373be6e691fde06967a39,2021-07-29_23h56.25.633,Simcolourproject_2stim_asymm_v5,2020.2.10,MacIntel,60,61025ae37ef11b136ea224fe,,,,,,,,,1595,-29.65124512,74.45513916,1,0,0,response7disk,,0,1.856506348,-1.53717041,1,0,0,rectangle,1.856506348,-1.53717041,1,0,0,1.856506348,-1.53717041,1,0,0,0,48,48,156,1,,,,,,,,
,,,,,,,,,,,,,FF,,,,,,,,1.0492,,,,,,,,,,,,,,,,,,,,,,60fdee1f5bb38a56c58631bc,610373be6e691fde06967a39,2021-07-29_23h56.25.633,Simcolourproject_2stim_asymm_v5,2020.2.10,MacIntel,60,61025ae37ef11b136ea224fe,,,,,,,,,3722,-24.90380859,46.71838379,1,0,0,response7disk,,0,-0.423156738,-15.64447021,1,0,0,rectangle,-0.423156738,-15.64447021,1,0,0,-0.423156738,-15.64447021,1,0,0,0,49,49,102,1,,,,,,,,
,,,,,,,,,,,,,FF,,,,,,,,0.7671,,,,,,,,,,,,,,,,,,,,,,60fdee1f5bb38a56c58631bc,610373be6e691fde06967a39,2021-07-29_23h56.25.633,Simcolourproject_2stim_asymm_v5,2020.2.10,MacIntel,60,61025ae37ef11b136ea224fe,,,,,,,,,617,-21.76324463,53.9307251,1,0,0,response7disk,,0,-1.816711426,2.391967773,1,0,0,rectangle,86.18548584,-42.77957153,1,0,0,18.45819092,-7.469970703,1,0,0,0,50,50,119,1,,response3disk_3,TRUE,5,5,"[69,189,240,172,36,2,300,51,38,17,160,263,92,288,308,131,128,295,232,18]",1.7493,rectangle
,,,,,,,,,,,,,FF,,,,,,,,0.6837,,,,,,,,,,,,,,,,,,,,,,60fdee1f5bb38a56c58631bc,610373be6e691fde06967a39,2021-07-29_23h56.25.633,Simcolourproject_2stim_asymm_v5,2020.2.10,MacIntel,60,61025ae37ef11b136ea224fe,,,,,,,,,3245,-36.62426758,58.35848999,1,0,0,response7disk,,0,-17.71002197,9.941650391,1,0,0,rectangle,-17.71002197,9.941650391,1,0,0,-17.71002197,9.941650391,1,0,0,0,51,51,75,1,,,,,,,,
,,,,,,,,,,,,,FF,,,,,,,,0.617,,,,,,,,,,,,,,,,,,,,,,60fdee1f5bb38a56c58631bc,610373be6e691fde06967a39,2021-07-29_23h56.25.633,Simcolourproject_2stim_asymm_v5,2020.2.10,MacIntel,60,61025ae37ef11b136ea224fe,,,,,,,,,3275,-36.6350708,62.53839111,1,0,0,response7disk,,0,-17.76641846,12.12786865,1,0,0,rectangle,-17.76641846,12.12786865,1,0,0,-17.76641846,12.12786865,1,0,0,0,52,52,98,1,,,,,,,,
,,,,,,,,,,,,,FF,,,,,,,,0.6331,,,,,,,,,,,,,,,,,,,,,,60fdee1f5bb38a56c58631bc,610373be6e691fde06967a39,2021-07-29_23h56.25.633,Simcolourproject_2stim_asymm_v5,2020.2.10,MacIntel,60,61025ae37ef11b136ea224fe,,,,,,,,,2800,-32.04620361,46.50930786,1,0,0,response7disk,,0,-11.80615234,-6.811004639,1,0,0,rectangle,-11.80615234,-6.811004639,1,0,0,-11.80615234,-6.811004639,1,0,0,0,53,53,11,1,,,,,,,,
,,,,,,,,,,,,,FF,,,,,,,,0.8165,,,,,,,,,,,,,,,,,,,,,,60fdee1f5bb38a56c58631bc,610373be6e691fde06967a39,2021-07-29_23h56.25.633,Simcolourproject_2stim_asymm_v5,2020.2.10,MacIntel,60,61025ae37ef11b136ea224fe,,,,,,,,,2002,-31.8873291,48.42953491,1,0,0,response7disk,,0,-8.104309082,-11.86688232,1,0,0,rectangle,-8.104309082,-11.86688232,1,0,0,-8.104309082,-11.86688232,1,0,0,0,54,54,117,1,,,,,,,,
,,,,,,,,,,,,,FF,,,,,,,,0.7003,,,,,,,,,,,,,,,,,,,,,,60fdee1f5bb38a56c58631bc,610373be6e691fde06967a39,2021-07-29_23h56.25.633,Simcolourproject_2stim_asymm_v5,2020.2.10,MacIntel,60,61025ae37ef11b136ea224fe,,,,,,,,,383,-42.31933594,61.60876465,1,0,0,response7disk,,0,-18.82415771,14.52807617,1,0,0,rectangle,-18.82415771,14.52807617,1,0,0,-18.82415771,14.52807617,1,0,0,0,55,55,159,1,,,,,,,,
,,,,,,,,,,,,,FF,,,,,,,,0.5169,,,,,,,,,,,,,,,,,,,,,,60fdee1f5bb38a56c58631bc,610373be6e691fde06967a39,2021-07-29_23h56.25.633,Simcolourproject_2stim_asymm_v5,2020.2.10,MacIntel,60,61025ae37ef11b136ea224fe,,,,,,,,,1513,-35.51611328,59.17294312,1,0,0,response7disk,,0,-9.076538086,-15.13516235,1,0,0,rectangle,-9.076538086,-15.13516235,1,0,0,-9.076538086,-15.13516235,1,0,0,0,56,56,89,1,,,,,,,,
,,,,,,,,,,,,,FF,,,,,,,,1.3338,,,,,,,,,,,,,,,,,,,,,,60fdee1f5bb38a56c58631bc,610373be6e691fde06967a39,2021-07-29_23h56.25.633,Simcolourproject_2stim_asymm_v5,2020.2.10,MacIntel,60,61025ae37ef11b136ea224fe,,,,,,,,,1954,-28.80993652,40.49804688,1,0,0,response7disk,,0,-3.549316406,-14.84368896,1,0,0,rectangle,-3.549316406,-14.84368896,1,0,0,-3.549316406,-14.84368896,1,0,0,0,57,57,157,1,,,,,,,,
,,,,,,,,,,,,,FF,,,,,,,,1.1843,,,,,,,,,,,,,,,,,,,,,,60fdee1f5bb38a56c58631bc,610373be6e691fde06967a39,2021-07-29_23h56.25.633,Simcolourproject_2stim_asymm_v5,2020.2.10,MacIntel,60,61025ae37ef11b136ea224fe,,,,,,,,,1315,-29.18255615,61.8614502,1,0,0,response7disk,,0,-4.746704102,3.432495117,1,0,0,rectangle,-4.746704102,3.432495117,1,0,0,-4.746704102,3.432495117,1,0,0,0,58,58,96,1,,,,,,,,
,,,,,,,,,,,,,FF,,,,,,,,0.9344,,,,,,,,,,,,,,,,,,,,,,60fdee1f5bb38a56c58631bc,610373be6e691fde06967a39,2021-07-29_23h56.25.633,Simcolourproject_2stim_asymm_v5,2020.2.10,MacIntel,60,61025ae37ef11b136ea224fe,,,,,,,,,1811,-41.44000244,76.52581787,1,0,0,response7disk,,0,-6.529663086,0.663208008,1,0,0,rectangle,-6.529663086,0.663208008,1,0,0,-6.529663086,0.663208008,1,0,0,0,59,59,125,1,,,,,,,,
,,,,,,,,,,,,,FF,,,,,,,,0.6165,,,,,,,,,,,,,,,,,,,,,,60fdee1f5bb38a56c58631bc,610373be6e691fde06967a39,2021-07-29_23h56.25.633,Simcolourproject_2stim_asymm_v5,2020.2.10,MacIntel,60,61025ae37ef11b136ea224fe,,,,,,,,,3300,-15.60083008,56.20355225,1,0,0,response7disk,,0,-8.28314209,7.870361328,1,0,0,rectangle,-8.28314209,7.870361328,1,0,0,-8.28314209,7.870361328,1,0,0,0,60,60,10,1,,,,,,,,
,,,,,,,,,,,,,FF,,,,,,,,0.4499,,,,,,,,,,,,,,,,,,,,,,60fdee1f5bb38a56c58631bc,610373be6e691fde06967a39,2021-07-29_23h56.25.633,Simcolourproject_2stim_asymm_v5,2020.2.10,MacIntel,60,61025ae37ef11b136ea224fe,,,,,,,,,4065,-27.6817627,44.2633667,1,0,0,response7disk,,0,-6.213378906,2.04083252,1,0,0,rectangle,-6.213378906,2.04083252,1,0,0,-6.213378906,2.04083252,1,0,0,0,61,61,116,1,,,,,,,,
,,,,,,,,,,,,,FF,,,,,,,,0.6166,,,,,,,,,,,,,,,,,,,,,,60fdee1f5bb38a56c58631bc,610373be6e691fde06967a39,2021-07-29_23h56.25.633,Simcolourproject_2stim_asymm_v5,2020.2.10,MacIntel,60,61025ae37ef11b136ea224fe,,,,,,,,,2331,-33.73754883,58.32577515,1,0,0,response7disk,,0,-13.85333252,2.353027344,1,0,0,rectangle,-13.85333252,2.353027344,1,0,0,-13.85333252,2.353027344,1,0,0,0,62,62,137,1,,,,,,,,
,,,,,,,,,,,,,FF,,,,,,,,0.7662,,,,,,,,,,,,,,,,,,,,,,60fdee1f5bb38a56c58631bc,610373be6e691fde06967a39,2021-07-29_23h56.25.633,Simcolourproject_2stim_asymm_v5,2020.2.10,MacIntel,60,61025ae37ef11b136ea224fe,,,,,,,,,3474,-36.22515869,53.04650879,1,0,0,response7disk,,0,-14.43988037,11.23666382,1,0,0,rectangle,-14.43988037,11.23666382,1,0,0,-14.43988037,11.23666382,1,0,0,0,63,63,135,1,,,,,,,,
,,,,,,,,,,,,,FF,,,,,,,,0.6003,,,,,,,,,,,,,,,,,,,,,,60fdee1f5bb38a56c58631bc,610373be6e691fde06967a39,2021-07-29_23h56.25.633,Simcolourproject_2stim_asymm_v5,2020.2.10,MacIntel,60,61025ae37ef11b136ea224fe,,,,,,,,,415,-27.88891602,38.87768555,1,0,0,response7disk,,0,-10.03179932,5.34588623,1,0,0,rectangle,-10.03179932,5.34588623,1,0,0,-10.03179932,5.34588623,1,0,0,0,64,64,123,1,,,,,,,,
,,,,,,,,,,,,,FF,,,,,,,,2.0505,,,,,,,,,,,,,,,,,,,,,,60fdee1f5bb38a56c58631bc,610373be6e691fde06967a39,2021-07-29_23h56.25.633,Simcolourproject_2stim_asymm_v5,2020.2.10,MacIntel,60,61025ae37ef11b136ea224fe,,,,,,,,,3855,-33.85198975,63.69900513,1,0,0,response7disk,,0,-5.793334961,7.409118652,1,0,0,rectangle,-5.793334961,7.409118652,1,0,0,-5.793334961,7.409118652,1,0,0,0,65,65,30,1,,,,,,,,
,,,,,,,,,,,,,FF,,,,,,,,0.8654,,,,,,,,,,,,,,,,,,,,,,60fdee1f5bb38a56c58631bc,610373be6e691fde06967a39,2021-07-29_23h56.25.633,Simcolourproject_2stim_asymm_v5,2020.2.10,MacIntel,60,61025ae37ef11b136ea224fe,,,,,,,,,4195,-22.48577881,52.3394165,1,0,0,response7disk,,0,0.857421875,3.541442871,1,0,0,rectangle,0.857421875,3.541442871,1,0,0,0.857421875,3.541442871,1,0,0,0,66,66,79,1,,,,,,,,
,,,,,,,,,,,,,FF,,,,,,,,1.1494,,,,,,,,,,,,,,,,,,,,,,60fdee1f5bb38a56c58631bc,610373be6e691fde06967a39,2021-07-29_23h56.25.633,Simcolourproject_2stim_asymm_v5,2020.2.10,MacIntel,60,61025ae37ef11b136ea224fe,,,,,,,,,3710,-27.95111084,36.3503418,1,0,0,response7disk,,0,-11.94610596,-5.066345215,1,0,0,rectangle,-11.94610596,-5.066345215,1,0,0,-11.94610596,-5.066345215,1,0,0,0,67,67,56,1,,,,,,,,
,,,,,,,,,,,,,FF,,,,,,,,2.8324,,,,,,,,,,,,,,,,,,,,,,60fdee1f5bb38a56c58631bc,610373be6e691fde06967a39,2021-07-29_23h56.25.633,Simcolourproject_2stim_asymm_v5,2020.2.10,MacIntel,60,61025ae37ef11b136ea224fe,,,,,,,,,3921,-46.80151367,109.0379333,1,0,0,response7disk,,0,-0.738830566,13.76916504,1,0,0,rectangle,-56.75775146,-80.20373535,1,0,0,-2.093139648,11.09811401,1,0,0,0,68,68,146,1,,response5disk_3,TRUE,3,3,"[69,189,240,172,36,2,300,51,38,17,160,263,92,288,308,131,128,295,232,18]",2.1816,rectangle
,,,,,,,,,,,,,FF,,,,,,,,0.3839,,,,,,,,,,,,,,,,,,,,,,60fdee1f5bb38a56c58631bc,610373be6e691fde06967a39,2021-07-29_23h56.25.633,Simcolourproject_2stim_asymm_v5,2020.2.10,MacIntel,60,61025ae37ef11b136ea224fe,,,,,,,,,500,-34.19061279,93.86019897,1,0,0,response7disk,,0,-11.61486816,12.08813477,1,0,0,rectangle,-11.61486816,12.08813477,1,0,0,-11.61486816,12.08813477,1,0,0,0,69,69,92,1,,,,,,,,
,,,,,,,,,,,,,FF,,,,,,,,0.4,,,,,,,,,,,,,,,,,,,,,,60fdee1f5bb38a56c58631bc,610373be6e691fde06967a39,2021-07-29_23h56.25.633,Simcolourproject_2stim_asymm_v5,2020.2.10,MacIntel,60,61025ae37ef11b136ea224fe,,,,,,,,,3665,-36.08227539,86.71038818,1,0,0,response7disk,,0,-9.068359375,13.34066772,1,0,0,rectangle,-9.068359375,13.34066772,1,0,0,-9.068359375,13.34066772,1,0,0,0,70,70,113,1,,,,,,,,
,,,,,,,,,,,,,FF,,,,,,,,0.5835,,,,,,,,,,,,,,,,,,,,,,60fdee1f5bb38a56c58631bc,610373be6e691fde06967a39,2021-07-29_23h56.25.633,Simcolourproject_2stim_asymm_v5,2020.2.10,MacIntel,60,61025ae37ef11b136ea224fe,,,,,,,,,4328,-43.09228516,76.59851074,1,0,0,response7disk,,0,-13.23522949,6.853790283,1,0,0,rectangle,-13.23522949,6.853790283,1,0,0,-13.23522949,6.853790283,1,0,0,0,71,71,34,1,,,,,,,,
,,,,,,,,,,,,,FF,,,,,,,,0.3507,,,,,,,,,,,,,,,,,,,,,,60fdee1f5bb38a56c58631bc,610373be6e691fde06967a39,2021-07-29_23h56.25.633,Simcolourproject_2stim_asymm_v5,2020.2.10,MacIntel,60,61025ae37ef11b136ea224fe,,,,,,,,,3845,-38.26947021,73.35897827,1,0,0,response7disk,,0,-11.42510986,1.354980469,1,0,0,rectangle,-11.42510986,1.354980469,1,0,0,-11.42510986,1.354980469,1,0,0,0,72,72,158,1,,,,,,,,
,,,,,,,,,,,,,FF,,,,,,,,0.4158,,,,,,,,,,,,,,,,,,,,,,60fdee1f5bb38a56c58631bc,610373be6e691fde06967a39,2021-07-29_23h56.25.633,Simcolourproject_2stim_asymm_v5,2020.2.10,MacIntel,60,61025ae37ef11b136ea224fe,,,,,,,,,2945,-42.10687256,65.05157471,1,0,0,response7disk,,0,-12.91552734,-2.661956787,1,0,0,rectangle,-12.91552734,-2.661956787,1,0,0,-12.91552734,-2.661956787,1,0,0,0,73,73,7,1,,,,,,,,
,,,,,,,,,,,,,FF,,,,,,,,0.5505,,,,,,,,,,,,,,,,,,,,,,60fdee1f5bb38a56c58631bc,610373be6e691fde06967a39,2021-07-29_23h56.25.633,Simcolourproject_2stim_asymm_v5,2020.2.10,MacIntel,60,61025ae37ef11b136ea224fe,,,,,,,,,2044,-39.67010498,49.54876709,1,0,0,response7disk,,0,-11.49841309,0.584991455,1,0,0,rectangle,-11.49841309,0.584991455,1,0,0,-11.49841309,0.584991455,1,0,0,0,74,74,24,1,,,,,,,,
,,,,,,,,,,,,,FF,,,,,,,,0.5832,,,,,,,,,,,,,,,,,,,,,,60fdee1f5bb38a56c58631bc,610373be6e691fde06967a39,2021-07-29_23h56.25.633,Simcolourproject_2stim_asymm_v5,2020.2.10,MacIntel,60,61025ae37ef11b136ea224fe,,,,,,,,,1435,-28.72839355,69.26382446,1,0,0,response7disk,,0,-18.43847656,-4.53012085,1,0,0,rectangle,-18.43847656,-4.53012085,1,0,0,-18.43847656,-4.53012085,1,0,0,0,75,75,149,1,,,,,,,,
,,,,,,,,,,,,,FF,,,,,,,,0.5505,,,,,,,,,,,,,,,,,,,,,,60fdee1f5bb38a56c58631bc,610373be6e691fde06967a39,2021-07-29_23h56.25.633,Simcolourproject_2stim_asymm_v5,2020.2.10,MacIntel,60,61025ae37ef11b136ea224fe,,,,,,,,,3504,-38.54522705,69.01501465,1,0,0,response7disk,,0,-1.608093262,-5.208526611,1,0,0,rectangle,-1.608093262,-5.208526611,1,0,0,-1.608093262,-5.208526611,1,0,0,0,76,76,27,1,,,,,,,,
,,,,,,,,,,,,,FF,,,,,,,,0.5001,,,,,,,,,,,,,,,,,,,,,,60fdee1f5bb38a56c58631bc,610373be6e691fde06967a39,2021-07-29_23h56.25.633,Simcolourproject_2stim_asymm_v5,2020.2.10,MacIntel,60,61025ae37ef11b136ea224fe,,,,,,,,,3165,-33.8414917,54.18417358,1,0,0,response7disk,,0,-10.55609131,-4.501831055,1,0,0,rectangle,-10.55609131,-4.501831055,1,0,0,-10.55609131,-4.501831055,1,0,0,0,77,77,154,1,,,,,,,,
,,,,,,,,,,,,,FF,,,,,,,,0.5838,,,,,,,,,,,,,,,,,,,,,,60fdee1f5bb38a56c58631bc,610373be6e691fde06967a39,2021-07-29_23h56.25.633,Simcolourproject_2stim_asymm_v5,2020.2.10,MacIntel,60,61025ae37ef11b136ea224fe,,,,,,,,,2327,-30.47033691,59.27038574,1,0,0,response7disk,,0,-13.60931396,9.731994629,1,0,0,rectangle,-13.60931396,9.731994629,1,0,0,-13.60931396,9.731994629,1,0,0,0,78,78,151,1,,,,,,,,
,,,,,,,,,,,,,FF,,,,,,,,0.651,,,,,,,,,,,,,,,,,,,,,,60fdee1f5bb38a56c58631bc,610373be6e691fde06967a39,2021-07-29_23h56.25.633,Simcolourproject_2stim_asymm_v5,2020.2.10,MacIntel,60,61025ae37ef11b136ea224fe,,,,,,,,,2111,-34.76098633,57.95501709,1,0,0,response7disk,,0,-17.31530762,-8.845458984,1,0,0,rectangle,-17.31530762,-8.845458984,1,0,0,-17.31530762,-8.845458984,1,0,0,0,79,79,32,1,,,,,,,,
,,,,,,,,,,,,,FF,,,,,,,,0.5672,,,,,,,,,,,,,,,,,,,,,,60fdee1f5bb38a56c58631bc,610373be6e691fde06967a39,2021-07-29_23h56.25.633,Simcolourproject_2stim_asymm_v5,2020.2.10,MacIntel,60,61025ae37ef11b136ea224fe,,,,,,,,,1197,-33.32550049,66.87597656,1,0,0,response7disk,,0,-4.20916748,2.374328613,1,0,0,rectangle,-4.20916748,2.374328613,1,0,0,-4.20916748,2.374328613,1,0,0,0,80,80,66,1,,,,,,,,
,,,,,,,,,,,,,FF,,,,,,,,0.8504,,,,,,,,,,,,,,,,,,,,,,60fdee1f5bb38a56c58631bc,610373be6e691fde06967a39,2021-07-29_23h56.25.633,Simcolourproject_2stim_asymm_v5,2020.2.10,MacIntel,60,61025ae37ef11b136ea224fe,,,,,,,,,3553,-31.3079834,68.67349243,1,0,0,response7disk,,0,-15.5234375,13.20367432,1,0,0,rectangle,-15.5234375,13.20367432,1,0,0,-15.5234375,13.20367432,1,0,0,0,81,81,139,1,,,,,,,,
,,,,,,,,,,,,,FF,,,,,,,,21.1656,,,,,,,,,,,,,,,,,,,,,,60fdee1f5bb38a56c58631bc,610373be6e691fde06967a39,2021-07-29_23h56.25.633,Simcolourproject_2stim_asymm_v5,2020.2.10,MacIntel,60,61025ae37ef11b136ea224fe,,,,,,,,,1372,-38.4387207,87.44952393,1,0,0,response7disk,,0,-21.57678223,-2.272369385,1,0,0,rectangle,-21.57678223,-2.272369385,1,0,0,-21.57678223,-2.272369385,1,0,0,0,82,82,80,1,,,,,,,,
,,,,,,,,,,,,,FF,,,,,,,,0.5163,,,,,,,,,,,,,,,,,,,,,,60fdee1f5bb38a56c58631bc,610373be6e691fde06967a39,2021-07-29_23h56.25.633,Simcolourproject_2stim_asymm_v5,2020.2.10,MacIntel,60,61025ae37ef11b136ea224fe,,,,,,,,,2658,-30.67840576,68.69448853,1,0,0,response7disk,,0,1.860107422,3.306793213,1,0,0,rectangle,1.860107422,3.306793213,1,0,0,1.860107422,3.306793213,1,0,0,0,83,83,21,1,,,,,,,,
,,,,,,,,,,,,,FF,,,,,,,,0.683,,,,,,,,,,,,,,,,,,,,,,60fdee1f5bb38a56c58631bc,610373be6e691fde06967a39,2021-07-29_23h56.25.633,Simcolourproject_2stim_asymm_v5,2020.2.10,MacIntel,60,61025ae37ef11b136ea224fe,,,,,,,,,2024,-35.10272217,75.39868164,1,0,0,response7disk,,0,-23.21484375,-1.65032959,1,0,0,rectangle,-23.21484375,-1.65032959,1,0,0,-23.21484375,-1.65032959,1,0,0,0,84,84,101,1,,,,,,,,
,,,,,,,,,,,,,FF,,,,,,,,0.5833,,,,,,,,,,,,,,,,,,,,,,60fdee1f5bb38a56c58631bc,610373be6e691fde06967a39,2021-07-29_23h56.25.633,Simcolourproject_2stim_asymm_v5,2020.2.10,MacIntel,60,61025ae37ef11b136ea224fe,,,,,,,,,2148,-36.20300293,50.76245117,1,0,0,response7disk,,0,4.270019531,11.10668945,1,0,0,rectangle,4.270019531,11.10668945,1,0,0,4.270019531,11.10668945,1,0,0,0,85,85,53,1,,,,,,,,
,,,,,,,,,,,,,FF,,,,,,,,0.4668,,,,,,,,,,,,,,,,,,,,,,60fdee1f5bb38a56c58631bc,610373be6e691fde06967a39,2021-07-29_23h56.25.633,Simcolourproject_2stim_asymm_v5,2020.2.10,MacIntel,60,61025ae37ef11b136ea224fe,,,,,,,,,1979,-26.72741699,62.38345337,1,0,0,response7disk,,0,-4.983459473,-3.546447754,1,0,0,rectangle,-4.983459473,-3.546447754,1,0,0,-4.983459473,-3.546447754,1,0,0,0,86,86,103,1,,,,,,,,
,,,,,,,,,,,,,FF,,,,,,,,0.567,,,,,,,,,,,,,,,,,,,,,,60fdee1f5bb38a56c58631bc,610373be6e691fde06967a39,2021-07-29_23h56.25.633,Simcolourproject_2stim_asymm_v5,2020.2.10,MacIntel,60,61025ae37ef11b136ea224fe,,,,,,,,,3769,-27.30975342,55.25485229,1,0,0,response7disk,,0,-4.710998535,-1.843566895,1,0,0,rectangle,-4.710998535,-1.843566895,1,0,0,-4.710998535,-1.843566895,1,0,0,0,87,87,105,1,,,,,,,,
,,,,,,,,,,,,,FF,,,,,,,,0.7006,,,,,,,,,,,,,,,,,,,,,,60fdee1f5bb38a56c58631bc,610373be6e691fde06967a39,2021-07-29_23h56.25.633,Simcolourproject_2stim_asymm_v5,2020.2.10,MacIntel,60,61025ae37ef11b136ea224fe,,,,,,,,,204,-35.80999756,67.41122437,1,0,0,response7disk,,0,-5.669494629,-9.211395264,1,0,0,rectangle,-5.669494629,-9.211395264,1,0,0,-5.669494629,-9.211395264,1,0,0,0,88,88,86,1,,,,,,,,
,,,,,,,,,,,,,FF,,,,,,,,0.7498,,,,,,,,,,,,,,,,,,,,,,60fdee1f5bb38a56c58631bc,610373be6e691fde06967a39,2021-07-29_23h56.25.633,Simcolourproject_2stim_asymm_v5,2020.2.10,MacIntel,60,61025ae37ef11b136ea224fe,,,,,,,,,4263,-27.51123047,49.8739624,1,0,0,response7disk,,0,9.814819336,-14.59786987,1,0,0,rectangle,9.814819336,-14.59786987,1,0,0,9.814819336,-14.59786987,1,0,0,0,89,89,35,1,,,,,,,,
,,,,,,,,,,,,,FF,,,,,,,,1.0328,,,,,,,,,,,,,,,,,,,,,,60fdee1f5bb38a56c58631bc,610373be6e691fde06967a39,2021-07-29_23h56.25.633,Simcolourproject_2stim_asymm_v5,2020.2.10,MacIntel,60,61025ae37ef11b136ea224fe,,,,,,,,,2824,-20.83233643,61.38113403,1,0,0,response7disk,,0,10.14257813,-14.98605347,1,0,0,rectangle,10.14257813,-14.98605347,1,0,0,10.14257813,-14.98605347,1,0,0,0,90,90,36,1,,,,,,,,
,,,,,,,,,,,,,FF,,,,,,,,0.4329,,,,,,,,,,,,,,,,,,,,,,60fdee1f5bb38a56c58631bc,610373be6e691fde06967a39,2021-07-29_23h56.25.633,Simcolourproject_2stim_asymm_v5,2020.2.10,MacIntel,60,61025ae37ef11b136ea224fe,,,,,,,,,1860,-20.98254395,45.08181763,1,0,0,response7disk,,0,-12.11242676,-7.456604004,1,0,0,rectangle,-55.86346436,19.9211731,1,0,0,-35.26586914,13.47738647,1,0,0,0,91,91,22,1,,response7disk_3,TRUE,1,1,"[69,189,240,172,36,2,300,51,38,17,160,263,92,288,308,131,128,295,232,18]",1.6326,rectangle
,,,,,,,,,,,,,FF,,,,,,,,0.3655,,,,,,,,,,,,,,,,,,,,,,60fdee1f5bb38a56c58631bc,610373be6e691fde06967a39,2021-07-29_23h56.25.633,Simcolourproject_2stim_asymm_v5,2020.2.10,MacIntel,60,61025ae37ef11b136ea224fe,,,,,,,,,3500,-31.94036865,51.76922607,1,0,0,response7disk,,0,-15.40374756,8.861968994,1,0,0,rectangle,-15.40374756,8.861968994,1,0,0,-15.40374756,8.861968994,1,0,0,0,92,92,50,1,,,,,,,,
,,,,,,,,,,,,,FF,,,,,,,,0.4157,,,,,,,,,,,,,,,,,,,,,,60fdee1f5bb38a56c58631bc,610373be6e691fde06967a39,2021-07-29_23h56.25.633,Simcolourproject_2stim_asymm_v5,2020.2.10,MacIntel,60,61025ae37ef11b136ea224fe,,,,,,,,,1069,-24.2409668,47.45474243,1,0,0,response7disk,,0,-1.718505859,10.01669312,1,0,0,rectangle,-1.718505859,10.01669312,1,0,0,-1.718505859,10.01669312,1,0,0,0,93,93,138,1,,,,,,,,
,,,,,,,,,,,,,FF,,,,,,,,0.5648,,,,,,,,,,,,,,,,,,,,,,60fdee1f5bb38a56c58631bc,610373be6e691fde06967a39,2021-07-29_23h56.25.633,Simcolourproject_2stim_asymm_v5,2020.2.10,MacIntel,60,61025ae37ef11b136ea224fe,,,,,,,,,3765,-24.87597656,55.125,1,0,0,response7disk,,0,4.333007813,3.58203125,1,0,0,rectangle,4.333007813,3.58203125,1,0,0,4.333007813,3.58203125,1,0,0,0,94,94,68,1,,,,,,,,
,,,,,,,,,,,,,FF,,,,,,,,0.7672,,,,,,,,,,,,,,,,,,,,,,60fdee1f5bb38a56c58631bc,610373be6e691fde06967a39,2021-07-29_23h56.25.633,Simcolourproject_2stim_asymm_v5,2020.2.10,MacIntel,60,61025ae37ef11b136ea224fe,,,,,,,,,4220,-15.39038086,46.46554565,1,0,0,response7disk,,0,2.098876953,11.04083252,1,0,0,rectangle,2.098876953,11.04083252,1,0,0,2.098876953,11.04083252,1,0,0,0,95,95,28,1,,,,,,,,
,,,,,,,,,,,,,FF,,,,,,,,0.5487,,,,,,,,,,,,,,,,,,,,,,60fdee1f5bb38a56c58631bc,610373be6e691fde06967a39,2021-07-29_23h56.25.633,Simcolourproject_2stim_asymm_v5,2020.2.10,MacIntel,60,61025ae37ef11b136ea224fe,,,,,,,,,2007,-25.06414795,48.2041626,1,0,0,response7disk,,0,-5.448303223,-1.946472168,1,0,0,rectangle,-5.448303223,-1.946472168,1,0,0,-5.448303223,-1.946472168,1,0,0,0,96,96,91,1,,,,,,,,
,,,,,,,,,,,,,FF,,,,,,,,0.5006,,,,,,,,,,,,,,,,,,,,,,60fdee1f5bb38a56c58631bc,610373be6e691fde06967a39,2021-07-29_23h56.25.633,Simcolourproject_2stim_asymm_v5,2020.2.10,MacIntel,60,61025ae37ef11b136ea224fe,,,,,,,,,3850,-36.57757568,63.04177856,1,0,0,response7disk,,0,-13.56268311,14.81665039,1,0,0,rectangle,-13.56268311,14.81665039,1,0,0,-13.56268311,14.81665039,1,0,0,0,97,97,45,1,,,,,,,,
,,,,,,,,,,,,,FF,,,,,,,,0.4494,,,,,,,,,,,,,,,,,,,,,,60fdee1f5bb38a56c58631bc,610373be6e691fde06967a39,2021-07-29_23h56.25.633,Simcolourproject_2stim_asymm_v5,2020.2.10,MacIntel,60,61025ae37ef11b136ea224fe,,,,,,,,,1652,-37.17047119,61.59631348,1,0,0,response7disk,,0,-17.94226074,7.826141357,1,0,0,rectangle,-17.94226074,7.826141357,1,0,0,-17.94226074,7.826141357,1,0,0,0,98,98,5,1,,,,,,,,
,,,,,,,,,,,,,FF,,,,,,,,0.45,,,,,,,,,,,,,,,,,,,,,,60fdee1f5bb38a56c58631bc,610373be6e691fde06967a39,2021-07-29_23h56.25.633,Simcolourproject_2stim_asymm_v5,2020.2.10,MacIntel,60,61025ae37ef11b136ea224fe,,,,,,,,,256,-28.24963379,47.45999146,1,0,0,response7disk,,0,-7.725097656,-2.013885498,1,0,0,rectangle,-7.725097656,-2.013885498,1,0,0,-7.725097656,-2.013885498,1,0,0,0,99,99,42,1,,,,,,,,
,,,,,,,,,,,,,FF,,,,,,,,0.5985,,,,,,,,,,,,,,,,,,,,,,60fdee1f5bb38a56c58631bc,610373be6e691fde06967a39,2021-07-29_23h56.25.633,Simcolourproject_2stim_asymm_v5,2020.2.10,MacIntel,60,61025ae37ef11b136ea224fe,,,,,,,,,4118,-34.47052002,50.40307617,1,0,0,response7disk,,0,-16.59063721,-8.946166992,1,0,0,rectangle,-16.59063721,-8.946166992,1,0,0,-16.59063721,-8.946166992,1,0,0,0,100,100,99,1,,,,,,,,
,,,,,,,,,,,,,FF,,,,,,,,0.5663,,,,,,,,,,,,,,,,,,,,,,60fdee1f5bb38a56c58631bc,610373be6e691fde06967a39,2021-07-29_23h56.25.633,Simcolourproject_2stim_asymm_v5,2020.2.10,MacIntel,60,61025ae37ef11b136ea224fe,,,,,,,,,2887,-34.22808838,59.7293396,1,0,0,response7disk,,0,-11.15039063,5.869720459,1,0,0,rectangle,-11.15039063,5.869720459,1,0,0,-11.15039063,5.869720459,1,0,0,0,101,101,14,1,,,,,,,,
,,,,,,,,,,,,,FF,,,,,,,,0.6489,,,,,,,,,,,,,,,,,,,,,,60fdee1f5bb38a56c58631bc,610373be6e691fde06967a39,2021-07-29_23h56.25.633,Simcolourproject_2stim_asymm_v5,2020.2.10,MacIntel,60,61025ae37ef11b136ea224fe,,,,,,,,,4182,-27.1505127,38.2746582,1,0,0,response7disk,,0,-13.75469971,3.700378418,1,0,0,rectangle,-13.75469971,3.700378418,1,0,0,-13.75469971,3.700378418,1,0,0,0,102,102,130,1,,,,,,,,
,,,,,,,,,,,,,FF,,,,,,,,1.0169,,,,,,,,,,,,,,,,,,,,,,60fdee1f5bb38a56c58631bc,610373be6e691fde06967a39,2021-07-29_23h56.25.633,Simcolourproject_2stim_asymm_v5,2020.2.10,MacIntel,60,61025ae37ef11b136ea224fe,,,,,,,,,1475,-39.63635254,51.48471069,1,0,0,response7disk,,0,-17.61938477,10.4831543,1,0,0,rectangle,-17.61938477,10.4831543,1,0,0,-17.61938477,10.4831543,1,0,0,0,103,103,6,1,,,,,,,,
,,,,,,,,,,,,,FF,,,,,,,,0.4994,,,,,,,,,,,,,,,,,,,,,,60fdee1f5bb38a56c58631bc,610373be6e691fde06967a39,2021-07-29_23h56.25.633,Simcolourproject_2stim_asymm_v5,2020.2.10,MacIntel,60,61025ae37ef11b136ea224fe,,,,,,,,,3582,-30.00708008,59.4369812,1,0,0,response7disk,,0,-13.01879883,7.120056152,1,0,0,rectangle,-13.01879883,7.120056152,1,0,0,-13.01879883,7.120056152,1,0,0,0,104,104,25,1,,,,,,,,
,,,,,,,,,,,,,FF,,,,,,,,0.7822,,,,,,,,,,,,,,,,,,,,,,60fdee1f5bb38a56c58631bc,610373be6e691fde06967a39,2021-07-29_23h56.25.633,Simcolourproject_2stim_asymm_v5,2020.2.10,MacIntel,60,61025ae37ef11b136ea224fe,,,,,,,,,2904,-33.03588867,53.16693115,1,0,0,response7disk,,0,-10.9833374,-1.981750488,1,0,0,rectangle,-10.9833374,-1.981750488,1,0,0,-10.9833374,-1.981750488,1,0,0,0,105,105,49,1,,,,,,,,
,,,,,,,,,,,,,FF,,,,,,,,0.5,,,,,,,,,,,,,,,,,,,,,,60fdee1f5bb38a56c58631bc,610373be6e691fde06967a39,2021-07-29_23h56.25.633,Simcolourproject_2stim_asymm_v5,2020.2.10,MacIntel,60,61025ae37ef11b136ea224fe,,,,,,,,,3022,-29.75653076,52.66760254,1,0,0,response7disk,,0,-8.770874023,4.047271729,1,0,0,rectangle,-8.770874023,4.047271729,1,0,0,-8.770874023,4.047271729,1,0,0,0,106,106,70,1,,,,,,,,
,,,,,,,,,,,,,FF,,,,,,,,0.8507,,,,,,,,,,,,,,,,,,,,,,60fdee1f5bb38a56c58631bc,610373be6e691fde06967a39,2021-07-29_23h56.25.633,Simcolourproject_2stim_asymm_v5,2020.2.10,MacIntel,60,61025ae37ef11b136ea224fe,,,,,,,,,465,-32.72198486,73.20205688,1,0,0,response7disk,,0,-16.60412598,2.17590332,1,0,0,rectangle,-16.60412598,2.17590332,1,0,0,-16.60412598,2.17590332,1,0,0,0,107,107,52,1,,,,,,,,
,,,,,,,,,,,,,FF,,,,,,,,0.6833,,,,,,,,,,,,,,,,,,,,,,60fdee1f5bb38a56c58631bc,610373be6e691fde06967a39,2021-07-29_23h56.25.633,Simcolourproject_2stim_asymm_v5,2020.2.10,MacIntel,60,61025ae37ef11b136ea224fe,,,,,,,,,3379,-33.62133789,51.4180603,1,0,0,response7disk,,0,-7.322143555,-13.31533813,1,0,0,rectangle,-7.322143555,-13.31533813,1,0,0,-7.322143555,-13.31533813,1,0,0,0,108,108,8,1,,,,,,,,
,,,,,,,,,,,,,FF,,,,,,,,0.6669,,,,,,,,,,,,,,,,,,,,,,60fdee1f5bb38a56c58631bc,610373be6e691fde06967a39,2021-07-29_23h56.25.633,Simcolourproject_2stim_asymm_v5,2020.2.10,MacIntel,60,61025ae37ef11b136ea224fe,,,,,,,,,3947,-29.49072266,41.05020142,1,0,0,response7disk,,0,-0.436462402,-8.713439941,1,0,0,rectangle,-0.436462402,-8.713439941,1,0,0,-0.436462402,-8.713439941,1,0,0,0,109,109,110,1,,,,,,,,
,,,,,,,,,,,,,FF,,,,,,,,0.9671,,,,,,,,,,,,,,,,,,,,,,60fdee1f5bb38a56c58631bc,610373be6e691fde06967a39,2021-07-29_23h56.25.633,Simcolourproject_2stim_asymm_v5,2020.2.10,MacIntel,60,61025ae37ef11b136ea224fe,,,,,,,,,1421,-20.48419189,34.26040649,1,0,0,response7disk,,0,-1.695617676,-10.69064331,1,0,0,rectangle,-1.695617676,-10.69064331,1,0,0,-1.695617676,-10.69064331,1,0,0,0,110,110,63,1,,,,,,,,
,,,,,,,,,,,,,FF,,,,,,,,0.7326,,,,,,,,,,,,,,,,,,,,,,60fdee1f5bb38a56c58631bc,610373be6e691fde06967a39,2021-07-29_23h56.25.633,Simcolourproject_2stim_asymm_v5,2020.2.10,MacIntel,60,61025ae37ef11b136ea224fe,,,,,,,,,1274,-20.94219971,41.22866821,1,0,0,response7disk,,0,-7.291503906,-1.819519043,1,0,0,rectangle,-7.291503906,-1.819519043,1,0,0,-7.291503906,-1.819519043,1,0,0,0,111,111,85,1,,,,,,,,
,,,,,,,,,,,,,FF,,,,,,,,2.7821,,,,,,,,,,,,,,,,,,,,,,60fdee1f5bb38a56c58631bc,610373be6e691fde06967a39,2021-07-29_23h56.25.633,Simcolourproject_2stim_asymm_v5,2020.2.10,MacIntel,60,61025ae37ef11b136ea224fe,,,,,,,,,2594,-45.7053833,113.1432495,1,0,0,response7disk,,0,-4.081726074,8.921325684,1,0,0,rectangle,-4.081726074,8.921325684,1,0,0,-4.081726074,8.921325684,1,0,0,0,112,112,145,1,,,,,,,,
,,,,,,,,,,,,,FF,,,,,,,,0.4502,,,,,,,,,,,,,,,,,,,,,,60fdee1f5bb38a56c58631bc,610373be6e691fde06967a39,2021-07-29_23h56.25.633,Simcolourproject_2stim_asymm_v5,2020.2.10,MacIntel,60,61025ae37ef11b136ea224fe,,,,,,,,,985,-25.70281982,105.8155823,1,0,0,response7disk,,0,11.32489014,6.726135254,1,0,0,rectangle,11.32489014,6.726135254,1,0,0,11.32489014,6.726135254,1,0,0,0,113,113,58,1,,,,,,,,
,,,,,,,,,,,,,FF,,,,,,,,0.5494,,,,,,,,,,,,,,,,,,,,,,60fdee1f5bb38a56c58631bc,610373be6e691fde06967a39,2021-07-29_23h56.25.633,Simcolourproject_2stim_asymm_v5,2020.2.10,MacIntel,60,61025ae37ef11b136ea224fe,,,,,,,,,133,-49.10717773,107.8184814,1,0,0,response7disk,,0,-11.52484131,3.015136719,1,0,0,rectangle,-11.52484131,3.015136719,1,0,0,-11.52484131,3.015136719,1,0,0,0,114,114,71,1,,,,,,,,
,,,,,,,,,,,,,FF,,,,,,,,0.516,,,,,,,,,,,,,,,,,,,,,,60fdee1f5bb38a56c58631bc,610373be6e691fde06967a39,2021-07-29_23h56.25.633,Simcolourproject_2stim_asymm_v5,2020.2.10,MacIntel,60,61025ae37ef11b136ea224fe,,,,,,,,,3037,-26.24108887,79.60012817,1,0,0,response7disk,,0,-8.606079102,7.975219727,1,0,0,rectangle,-8.606079102,7.975219727,1,0,0,-8.606079102,7.975219727,1,0,0,0,115,115,62,1,,,,,,,,
,,,,,,,,,,,,,FF,,,,,,,,0.6167,,,,,,,,,,,,,,,,,,,,,,60fdee1f5bb38a56c58631bc,610373be6e691fde06967a39,2021-07-29_23h56.25.633,Simcolourproject_2stim_asymm_v5,2020.2.10,MacIntel,60,61025ae37ef11b136ea224fe,,,,,,,,,2605,-28.81640625,88.06021118,1,0,0,response7disk,,0,-10.63006592,-3.221801758,1,0,0,rectangle,-10.63006592,-3.221801758,1,0,0,-10.63006592,-3.221801758,1,0,0,0,116,116,48,1,,,,,,,,
,,,,,,,,,,,,,FF,,,,,,,,0.6501,,,,,,,,,,,,,,,,,,,,,,60fdee1f5bb38a56c58631bc,610373be6e691fde06967a39,2021-07-29_23h56.25.633,Simcolourproject_2stim_asymm_v5,2020.2.10,MacIntel,60,61025ae37ef11b136ea224fe,,,,,,,,,4367,-26.76257324,85.34487915,1,0,0,response7disk,,0,3.02331543,-12.87585449,1,0,0,rectangle,3.02331543,-12.87585449,1,0,0,3.02331543,-12.87585449,1,0,0,0,117,117,112,1,,,,,,,,
,,,,,,,,,,,,,FF,,,,,,,,1.0663,,,,,,,,,,,,,,,,,,,,,,60fdee1f5bb38a56c58631bc,610373be6e691fde06967a39,2021-07-29_23h56.25.633,Simcolourproject_2stim_asymm_v5,2020.2.10,MacIntel,60,61025ae37ef11b136ea224fe,,,,,,,,,166,-33.04943848,83.12213135,1,0,0,response7disk,,0,4.324279785,0.979675293,1,0,0,rectangle,4.324279785,0.979675293,1,0,0,4.324279785,0.979675293,1,0,0,0,118,118,90,1,,,,,,,,
,,,,,,,,,,,,,FF,,,,,,,,0.9095,,,,,,,,,,,,,,,,,,,,,,60fdee1f5bb38a56c58631bc,610373be6e691fde06967a39,2021-07-29_23h56.25.633,Simcolourproject_2stim_asymm_v5,2020.2.10,MacIntel,60,61025ae37ef11b136ea224fe,,,,,,,,,1477,-37.09460449,101.1036682,1,0,0,response7disk,,0,4.619934082,12.14144897,1,0,0,rectangle,4.619934082,12.14144897,1,0,0,4.619934082,12.14144897,1,0,0,0,119,119,143,1,,,,,,,,
,,,,,,,,,,,,,FF,,,,,,,,0.5499,,,,,,,,,,,,,,,,,,,,,,60fdee1f5bb38a56c58631bc,610373be6e691fde06967a39,2021-07-29_23h56.25.633,Simcolourproject_2stim_asymm_v5,2020.2.10,MacIntel,60,61025ae37ef11b136ea224fe,,,,,,,,,43,-26.09942627,78.19992065,1,0,0,response7disk,,0,-20.86029053,-8.297515869,1,0,0,rectangle,-20.86029053,-8.297515869,1,0,0,-20.86029053,-8.297515869,1,0,0,0,120,120,141,1,,,,,,,,
,,,,,,,,,,,,,FF,,,,,,,,0.6501,,,,,,,,,,,,,,,,,,,,,,60fdee1f5bb38a56c58631bc,610373be6e691fde06967a39,2021-07-29_23h56.25.633,Simcolourproject_2stim_asymm_v5,2020.2.10,MacIntel,60,61025ae37ef11b136ea224fe,,,,,,,,,1422,-49.77435303,92.00628662,1,0,0,response7disk,,0,-2.840209961,-1.973571777,1,0,0,rectangle,-2.840209961,-1.973571777,1,0,0,-2.840209961,-1.973571777,1,0,0,0,121,121,152,1,,,,,,,,
,,,,,,,,,,,,,FF,,,,,,,,0.5997,,,,,,,,,,,,,,,,,,,,,,60fdee1f5bb38a56c58631bc,610373be6e691fde06967a39,2021-07-29_23h56.25.633,Simcolourproject_2stim_asymm_v5,2020.2.10,MacIntel,60,61025ae37ef11b136ea224fe,,,,,,,,,1351,-35.18945313,70.00604248,1,0,0,response7disk,,0,-4.389526367,0.139526367,1,0,0,rectangle,-4.389526367,0.139526367,1,0,0,-4.389526367,0.139526367,1,0,0,0,122,122,140,1,,,,,,,,
,,,,,,,,,,,,,FF,,,,,,,,0.615,,,,,,,,,,,,,,,,,,,,,,60fdee1f5bb38a56c58631bc,610373be6e691fde06967a39,2021-07-29_23h56.25.633,Simcolourproject_2stim_asymm_v5,2020.2.10,MacIntel,60,61025ae37ef11b136ea224fe,,,,,,,,,8,-24.28466797,81.64068604,1,0,0,response7disk,,0,9.447753906,0.549377441,1,0,0,rectangle,9.447753906,0.549377441,1,0,0,9.447753906,0.549377441,1,0,0,0,123,123,19,1,,,,,,,,
,,,,,,,,,,,,,FF,,,,,,,,0.5002,,,,,,,,,,,,,,,,,,,,,,60fdee1f5bb38a56c58631bc,610373be6e691fde06967a39,2021-07-29_23h56.25.633,Simcolourproject_2stim_asymm_v5,2020.2.10,MacIntel,60,61025ae37ef11b136ea224fe,,,,,,,,,397,-34.20874023,76.79043579,1,0,0,response7disk,,0,-10.42156982,8.942474365,1,0,0,rectangle,-10.42156982,8.942474365,1,0,0,-10.42156982,8.942474365,1,0,0,0,124,124,73,1,,,,,,,,
,,,,,,,,,,,,,FF,,,,,,,,0.466,,,,,,,,,,,,,,,,,,,,,,60fdee1f5bb38a56c58631bc,610373be6e691fde06967a39,2021-07-29_23h56.25.633,Simcolourproject_2stim_asymm_v5,2020.2.10,MacIntel,60,61025ae37ef11b136ea224fe,,,,,,,,,1226,-21.24871826,59.23223877,1,0,0,response7disk,,0,-8.705688477,7.765136719,1,0,0,rectangle,-8.705688477,7.765136719,1,0,0,-8.705688477,7.765136719,1,0,0,0,125,125,0,1,,,,,,,,
,,,,,,,,,,,,,FF,,,,,,,,0.4826,,,,,,,,,,,,,,,,,,,,,,60fdee1f5bb38a56c58631bc,610373be6e691fde06967a39,2021-07-29_23h56.25.633,Simcolourproject_2stim_asymm_v5,2020.2.10,MacIntel,60,61025ae37ef11b136ea224fe,,,,,,,,,827,-34.82348633,70.83081055,1,0,0,response7disk,,0,-20.04846191,2.259033203,1,0,0,rectangle,-20.04846191,2.259033203,1,0,0,-20.04846191,2.259033203,1,0,0,0,126,126,104,1,,,,,,,,
,,,,,,,,,,,,,FF,,,,,,,,0.3818,,,,,,,,,,,,,,,,,,,,,,60fdee1f5bb38a56c58631bc,610373be6e691fde06967a39,2021-07-29_23h56.25.633,Simcolourproject_2stim_asymm_v5,2020.2.10,MacIntel,60,61025ae37ef11b136ea224fe,,,,,,,,,1933,-30.10174561,52.65325928,1,0,0,response7disk,,0,-19.89013672,7.610473633,1,0,0,rectangle,98.28735352,50.11831665,1,0,0,9.147155762,-7.381835938,1,0,0,0,127,127,29,1,,response1disk_3,TRUE,6,6,"[69,189,240,172,36,2,300,51,38,17,160,263,92,288,308,131,128,295,232,18]",2.7502,rectangle
,,,,,,,,,,,,,FF,,,,,,,,0.4333,,,,,,,,,,,,,,,,,,,,,,60fdee1f5bb38a56c58631bc,610373be6e691fde06967a39,2021-07-29_23h56.25.633,Simcolourproject_2stim_asymm_v5,2020.2.10,MacIntel,60,61025ae37ef11b136ea224fe,,,,,,,,,870,-29.32623291,56.56167603,1,0,0,response7disk,,0,1.675964355,4.179779053,1,0,0,rectangle,1.675964355,4.179779053,1,0,0,1.675964355,4.179779053,1,0,0,0,128,128,126,1,,,,,,,,
,,,,,,,,,,,,,FF,,,,,,,,0.6174,,,,,,,,,,,,,,,,,,,,,,60fdee1f5bb38a56c58631bc,610373be6e691fde06967a39,2021-07-29_23h56.25.633,Simcolourproject_2stim_asymm_v5,2020.2.10,MacIntel,60,61025ae37ef11b136ea224fe,,,,,,,,,654,-20.62469482,56.88702393,1,0,0,response7disk,,0,5.919677734,8.00567627,1,0,0,rectangle,5.919677734,8.00567627,1,0,0,5.919677734,8.00567627,1,0,0,0,129,129,51,1,,,,,,,,
,,,,,,,,,,,,,FF,,,,,,,,0.3494,,,,,,,,,,,,,,,,,,,,,,60fdee1f5bb38a56c58631bc,610373be6e691fde06967a39,2021-07-29_23h56.25.633,Simcolourproject_2stim_asymm_v5,2020.2.10,MacIntel,60,61025ae37ef11b136ea224fe,,,,,,,,,3117,-38.28985596,83.80621338,1,0,0,response7disk,,0,-5.548156738,-11.65270996,1,0,0,rectangle,-79.48168945,-27.88665771,1,0,0,-13.31402588,-11.75094604,1,0,0,0,130,130,136,1,,response5disk_3,TRUE,2,2,"[69,189,240,172,36,2,300,51,38,17,160,263,92,288,308,131,128,295,232,18]",2.1492,rectangle
,,,,,,,,,,,,,FF,,,,,,,,1.1331,,,,,,,,,,,,,,,,,,,,,,60fdee1f5bb38a56c58631bc,610373be6e691fde06967a39,2021-07-29_23h56.25.633,Simcolourproject_2stim_asymm_v5,2020.2.10,MacIntel,60,61025ae37ef11b136ea224fe,,,,,,,,,3515,-40.90820313,72.65682983,1,0,0,response7disk,,0,-0.409179688,-1.405059814,1,0,0,rectangle,-0.409179688,-1.405059814,1,0,0,-0.409179688,-1.405059814,1,0,0,0,131,131,4,1,,,,,,,,
,,,,,,,,,,,,,FF,,,,,,,,1.4666,,,,,,,,,,,,,,,,,,,,,,60fdee1f5bb38a56c58631bc,610373be6e691fde06967a39,2021-07-29_23h56.25.633,Simcolourproject_2stim_asymm_v5,2020.2.10,MacIntel,60,61025ae37ef11b136ea224fe,,,,,,,,,3089,-42.48876953,55.93762207,1,0,0,response7disk,,0,-5.795227051,9.078369141,1,0,0,rectangle,-5.795227051,9.078369141,1,0,0,-5.795227051,9.078369141,1,0,0,0,132,132,115,1,,,,,,,,
,,,,,,,,,,,,,FF,,,,,,,,0.4987,,,,,,,,,,,,,,,,,,,,,,60fdee1f5bb38a56c58631bc,610373be6e691fde06967a39,2021-07-29_23h56.25.633,Simcolourproject_2stim_asymm_v5,2020.2.10,MacIntel,60,61025ae37ef11b136ea224fe,,,,,,,,,3499,-37.8661499,60.58865356,1,0,0,response7disk,,0,-24.21398926,-6.476867676,1,0,0,rectangle,-24.21398926,-6.476867676,1,0,0,-24.21398926,-6.476867676,1,0,0,0,133,133,133,1,,,,,,,,
,,,,,,,,,,,,,FF,,,,,,,,0.4322,,,,,,,,,,,,,,,,,,,,,,60fdee1f5bb38a56c58631bc,610373be6e691fde06967a39,2021-07-29_23h56.25.633,Simcolourproject_2stim_asymm_v5,2020.2.10,MacIntel,60,61025ae37ef11b136ea224fe,,,,,,,,,1192,-52.79888916,64.11016846,1,0,0,response7disk,,0,-31.01776123,10.15344238,1,0,0,rectangle,-31.01776123,10.15344238,1,0,0,-31.01776123,10.15344238,1,0,0,0,134,134,47,1,,,,,,,,
,,,,,,,,,,,,,FF,,,,,,,,0.3501,,,,,,,,,,,,,,,,,,,,,,60fdee1f5bb38a56c58631bc,610373be6e691fde06967a39,2021-07-29_23h56.25.633,Simcolourproject_2stim_asymm_v5,2020.2.10,MacIntel,60,61025ae37ef11b136ea224fe,,,,,,,,,2869,-47.25579834,72.31719971,1,0,0,response7disk,,0,-20.63537598,6.181152344,1,0,0,rectangle,-20.63537598,6.181152344,1,0,0,-20.63537598,6.181152344,1,0,0,0,135,135,13,1,,,,,,,,
,,,,,,,,,,,,,FF,,,,,,,,0.3826,,,,,,,,,,,,,,,,,,,,,,60fdee1f5bb38a56c58631bc,610373be6e691fde06967a39,2021-07-29_23h56.25.633,Simcolourproject_2stim_asymm_v5,2020.2.10,MacIntel,60,61025ae37ef11b136ea224fe,,,,,,,,,3213,-37.51184082,69.84259033,1,0,0,response7disk,,0,-11.38824463,0.679901123,1,0,0,rectangle,-11.38824463,0.679901123,1,0,0,-11.38824463,0.679901123,1,0,0,0,136,136,128,1,,,,,,,,
,,,,,,,,,,,,,FF,,,,,,,,0.382,,,,,,,,,,,,,,,,,,,,,,60fdee1f5bb38a56c58631bc,610373be6e691fde06967a39,2021-07-29_23h56.25.633,Simcolourproject_2stim_asymm_v5,2020.2.10,MacIntel,60,61025ae37ef11b136ea224fe,,,,,,,,,2774,-46.75531006,78.3795166,1,0,0,response7disk,,0,-24.95037842,10.31860352,1,0,0,rectangle,-24.95037842,10.31860352,1,0,0,-24.95037842,10.31860352,1,0,0,0,137,137,155,1,,,,,,,,
,,,,,,,,,,,,,FF,,,,,,,,0.3817,,,,,,,,,,,,,,,,,,,,,,60fdee1f5bb38a56c58631bc,610373be6e691fde06967a39,2021-07-29_23h56.25.633,Simcolourproject_2stim_asymm_v5,2020.2.10,MacIntel,60,61025ae37ef11b136ea224fe,,,,,,,,,982,-39.96191406,67.08166504,1,0,0,response7disk,,0,-20.52502441,14.80712891,1,0,0,rectangle,-20.52502441,14.80712891,1,0,0,-20.52502441,14.80712891,1,0,0,0,138,138,88,1,,,,,,,,
,,,,,,,,,,,,,FF,,,,,,,,0.5668,,,,,,,,,,,,,,,,,,,,,,60fdee1f5bb38a56c58631bc,610373be6e691fde06967a39,2021-07-29_23h56.25.633,Simcolourproject_2stim_asymm_v5,2020.2.10,MacIntel,60,61025ae37ef11b136ea224fe,,,,,,,,,3458,-31.18896484,51.56222534,1,0,0,response7disk,,0,-1.205505371,-12.01141357,1,0,0,rectangle,-1.205505371,-12.01141357,1,0,0,-1.205505371,-12.01141357,1,0,0,0,139,139,93,1,,,,,,,,
,,,,,,,,,,,,,FF,,,,,,,,0.4328,,,,,,,,,,,,,,,,,,,,,,60fdee1f5bb38a56c58631bc,610373be6e691fde06967a39,2021-07-29_23h56.25.633,Simcolourproject_2stim_asymm_v5,2020.2.10,MacIntel,60,61025ae37ef11b136ea224fe,,,,,,,,,3341,-32.68621826,61.97842407,1,0,0,response7disk,,0,0.029052734,-1.833221436,1,0,0,rectangle,0.029052734,-1.833221436,1,0,0,0.029052734,-1.833221436,1,0,0,0,140,140,17,1,,,,,,,,
,,,,,,,,,,,,,FF,,,,,,,,0.6998,,,,,,,,,,,,,,,,,,,,,,60fdee1f5bb38a56c58631bc,610373be6e691fde06967a39,2021-07-29_23h56.25.633,Simcolourproject_2stim_asymm_v5,2020.2.10,MacIntel,60,61025ae37ef11b136ea224fe,,,,,,,,,4173,-28.6517334,67.56903076,1,0,0,response7disk,,0,5.332702637,-6.01361084,1,0,0,rectangle,5.332702637,-6.01361084,1,0,0,5.332702637,-6.01361084,1,0,0,0,141,141,20,1,,,,,,,,
,,,,,,,,,,,,,FF,,,,,,,,0.9328,,,,,,,,,,,,,,,,,,,,,,60fdee1f5bb38a56c58631bc,610373be6e691fde06967a39,2021-07-29_23h56.25.633,Simcolourproject_2stim_asymm_v5,2020.2.10,MacIntel,60,61025ae37ef11b136ea224fe,,,,,,,,,1920,-34.32965088,55.62084961,1,0,0,response7disk,,0,-9.747802734,-9.274780273,1,0,0,rectangle,-9.747802734,-9.274780273,1,0,0,-9.747802734,-9.274780273,1,0,0,0,142,142,132,1,,,,,,,,
,,,,,,,,,,,,,FF,,,,,,,,0.7339,,,,,,,,,,,,,,,,,,,,,,60fdee1f5bb38a56c58631bc,610373be6e691fde06967a39,2021-07-29_23h56.25.633,Simcolourproject_2stim_asymm_v5,2020.2.10,MacIntel,60,61025ae37ef11b136ea224fe,,,,,,,,,1531,-38.24499512,71.33963013,1,0,0,response7disk,,0,-14.88989258,-5.235351563,1,0,0,rectangle,-14.88989258,-5.235351563,1,0,0,-14.88989258,-5.235351563,1,0,0,0,143,143,134,1,,,,,,,,
,,,,,,,,,,,,,FF,,,,,,,,0.7337,,,,,,,,,,,,,,,,,,,,,,60fdee1f5bb38a56c58631bc,610373be6e691fde06967a39,2021-07-29_23h56.25.633,Simcolourproject_2stim_asymm_v5,2020.2.10,MacIntel,60,61025ae37ef11b136ea224fe,,,,,,,,,1856,-38.12408447,76.19311523,1,0,0,response7disk,,0,-2.11932373,4.966827393,1,0,0,rectangle,-2.11932373,4.966827393,1,0,0,-2.11932373,4.966827393,1,0,0,0,144,144,109,1,,,,,,,,
,,,,,,,,,,,,,FF,,,,,,,,0.7663,,,,,,,,,,,,,,,,,,,,,,60fdee1f5bb38a56c58631bc,610373be6e691fde06967a39,2021-07-29_23h56.25.633,Simcolourproject_2stim_asymm_v5,2020.2.10,MacIntel,60,61025ae37ef11b136ea224fe,,,,,,,,,3977,-37.82659912,81.4659729,1,0,0,response7disk,,0,-7.715454102,6.353088379,1,0,0,rectangle,-7.715454102,6.353088379,1,0,0,-7.715454102,6.353088379,1,0,0,0,145,145,40,1,,,,,,,,
,,,,,,,,,,,,,FF,,,,,,,,0.6499,,,,,,,,,,,,,,,,,,,,,,60fdee1f5bb38a56c58631bc,610373be6e691fde06967a39,2021-07-29_23h56.25.633,Simcolourproject_2stim_asymm_v5,2020.2.10,MacIntel,60,61025ae37ef11b136ea224fe,,,,,,,,,2796,-33.39916992,68.59197998,1,0,0,response7disk,,0,-11.24035645,2.605377197,1,0,0,rectangle,-11.24035645,2.605377197,1,0,0,-11.24035645,2.605377197,1,0,0,0,146,146,77,1,,,,,,,,
,,,,,,,,,,,,,FF,,,,,,,,0.5818,,,,,,,,,,,,,,,,,,,,,,60fdee1f5bb38a56c58631bc,610373be6e691fde06967a39,2021-07-29_23h56.25.633,Simcolourproject_2stim_asymm_v5,2020.2.10,MacIntel,60,61025ae37ef11b136ea224fe,,,,,,,,,1884,-40.23358154,71.63653564,1,0,0,response7disk,,0,-17.19024658,3.55557251,1,0,0,rectangle,-17.19024658,3.55557251,1,0,0,-17.19024658,3.55557251,1,0,0,0,147,147,106,1,,,,,,,,
,,,,,,,,,,,,,FF,,,,,,,,0.4989,,,,,,,,,,,,,,,,,,,,,,60fdee1f5bb38a56c58631bc,610373be6e691fde06967a39,2021-07-29_23h56.25.633,Simcolourproject_2stim_asymm_v5,2020.2.10,MacIntel,60,61025ae37ef11b136ea224fe,,,,,,,,,135,-28.25024414,47.21060181,1,0,0,response7disk,,0,-10.67938232,-7.373840332,1,0,0,rectangle,-10.67938232,-7.373840332,1,0,0,-10.67938232,-7.373840332,1,0,0,0,148,148,76,1,,,,,,,,
,,,,,,,,,,,,,FF,,,,,,,,0.7171,,,,,,,,,,,,,,,,,,,,,,60fdee1f5bb38a56c58631bc,610373be6e691fde06967a39,2021-07-29_23h56.25.633,Simcolourproject_2stim_asymm_v5,2020.2.10,MacIntel,60,61025ae37ef11b136ea224fe,,,,,,,,,874,-38.53088379,72.71173096,1,0,0,response7disk,,0,-16.13232422,3.614990234,1,0,0,rectangle,-16.13232422,3.614990234,1,0,0,-16.13232422,3.614990234,1,0,0,0,149,149,129,1,,,,,,,,
,,,,,,,,,,,,,FF,,,,,,,,0.7169,,,,,,,,,,,,,,,,,,,,,,60fdee1f5bb38a56c58631bc,610373be6e691fde06967a39,2021-07-29_23h56.25.633,Simcolourproject_2stim_asymm_v5,2020.2.10,MacIntel,60,61025ae37ef11b136ea224fe,,,,,,,,,2350,-39.77740479,77.49493408,1,0,0,response7disk,,0,2.91217041,7.973388672,1,0,0,rectangle,2.91217041,7.973388672,1,0,0,2.91217041,7.973388672,1,0,0,0,150,150,84,1,,,,,,,,
,,,,,,,,,,,,,FF,,,,,,,,0.6836,,,,,,,,,,,,,,,,,,,,,,60fdee1f5bb38a56c58631bc,610373be6e691fde06967a39,2021-07-29_23h56.25.633,Simcolourproject_2stim_asymm_v5,2020.2.10,MacIntel,60,61025ae37ef11b136ea224fe,,,,,,,,,2279,-22.71081543,54.47076416,1,0,0,response7disk,,0,3.179321289,9.904968262,1,0,0,rectangle,3.179321289,9.904968262,1,0,0,3.179321289,9.904968262,1,0,0,0,151,151,72,1,,,,,,,,
,,,,,,,,,,,,,FF,,,,,,,,0.6504,,,,,,,,,,,,,,,,,,,,,,60fdee1f5bb38a56c58631bc,610373be6e691fde06967a39,2021-07-29_23h56.25.633,Simcolourproject_2stim_asymm_v5,2020.2.10,MacIntel,60,61025ae37ef11b136ea224fe,,,,,,,,,1079,-32.71392822,77.34442139,1,0,0,response7disk,,0,-7.166442871,9.525238037,1,0,0,rectangle,-7.166442871,9.525238037,1,0,0,-7.166442871,9.525238037,1,0,0,0,152,152,95,1,,,,,,,,
,,,,,,,,,,,,,FF,,,,,,,,0.7333,,,,,,,,,,,,,,,,,,,,,,60fdee1f5bb38a56c58631bc,610373be6e691fde06967a39,2021-07-29_23h56.25.633,Simcolourproject_2stim_asymm_v5,2020.2.10,MacIntel,60,61025ae37ef11b136ea224fe,,,,,,,,,3887,-21.08624268,69.6307373,1,0,0,response7disk,,0,10.73022461,5.735717773,1,0,0,rectangle,10.73022461,5.735717773,1,0,0,10.73022461,5.735717773,1,0,0,0,153,153,111,1,,,,,,,,
,,,,,,,,,,,,,FF,,,,,,,,0.601,,,,,,,,,,,,,,,,,,,,,,60fdee1f5bb38a56c58631bc,610373be6e691fde06967a39,2021-07-29_23h56.25.633,Simcolourproject_2stim_asymm_v5,2020.2.10,MacIntel,60,61025ae37ef11b136ea224fe,,,,,,,,,3839,-18.13446045,62.87304688,1,0,0,response7disk,,0,-0.678649902,12.38897705,1,0,0,rectangle,-0.678649902,12.38897705,1,0,0,-0.678649902,12.38897705,1,0,0,0,154,154,46,1,,,,,,,,
,,,,,,,,,,,,,FF,,,,,,,,0.7174,,,,,,,,,,,,,,,,,,,,,,60fdee1f5bb38a56c58631bc,610373be6e691fde06967a39,2021-07-29_23h56.25.633,Simcolourproject_2stim_asymm_v5,2020.2.10,MacIntel,60,61025ae37ef11b136ea224fe,,,,,,,,,1023,-25.9072876,91.16992188,1,0,0,response7disk,,0,4.653869629,-4.382324219,1,0,0,rectangle,4.653869629,-4.382324219,1,0,0,4.653869629,-4.382324219,1,0,0,0,155,155,16,1,,,,,,,,
,,,,,,,,,,,,,FF,,,,,,,,0.634,,,,,,,,,,,,,,,,,,,,,,60fdee1f5bb38a56c58631bc,610373be6e691fde06967a39,2021-07-29_23h56.25.633,Simcolourproject_2stim_asymm_v5,2020.2.10,MacIntel,60,61025ae37ef11b136ea224fe,,,,,,,,,1901,-23.42370605,56.50003052,1,0,0,response7disk,,0,-3.894226074,-2.915344238,1,0,0,rectangle,-3.894226074,-2.915344238,1,0,0,-3.894226074,-2.915344238,1,0,0,0,156,156,107,1,,,,,,,,
,,,,,,,,,,,,,FF,,,,,,,,0.6333,,,,,,,,,,,,,,,,,,,,,,60fdee1f5bb38a56c58631bc,610373be6e691fde06967a39,2021-07-29_23h56.25.633,Simcolourproject_2stim_asymm_v5,2020.2.10,MacIntel,60,61025ae37ef11b136ea224fe,,,,,,,,,661,-45.40686035,49.28387451,1,0,0,response7disk,,0,-19.1887207,-10.20397949,1,0,0,rectangle,-19.1887207,-10.20397949,1,0,0,-19.1887207,-10.20397949,1,0,0,0,157,157,122,1,,,,,,,,
,,,,,,,,,,,,,FF,,,,,,,,0.55,,,,,,,,,,,,,,,,,,,,,,60fdee1f5bb38a56c58631bc,610373be6e691fde06967a39,2021-07-29_23h56.25.633,Simcolourproject_2stim_asymm_v5,2020.2.10,MacIntel,60,61025ae37ef11b136ea224fe,,,,,,,,,2532,-41.29760742,48.79455566,1,0,0,response7disk,,0,-24.96099854,-16.09118652,1,0,0,rectangle,-24.96099854,-16.09118652,1,0,0,-24.96099854,-16.09118652,1,0,0,0,158,158,94,1,,,,,,,,
,,,,,,,,,,,,,FF,,,,,,,,0.7665,,,,,,,,,,,,,,,,,,,,,,60fdee1f5bb38a56c58631bc,610373be6e691fde06967a39,2021-07-29_23h56.25.633,Simcolourproject_2stim_asymm_v5,2020.2.10,MacIntel,60,61025ae37ef11b136ea224fe,,,,,,,,,2424,-30.20690918,38.78131104,1,0,0,response7disk,,0,-10.99902344,9.017150879,1,0,0,rectangle,58.51226807,28.3416748,1,0,0,7.351135254,-1.119873047,1,0,0,0,159,159,15,1,,response1disk_3,TRUE,6,6,"[69,189,240,172,36,2,300,51,38,17,160,263,92,288,308,131,128,295,232,18]",1.8492,rectangle
,,,,,,,,,,,,,FF,,,,,,,,0.367,,,,,,,,,,,,,,,,,,,,,,60fdee1f5bb38a56c58631bc,610373be6e691fde06967a39,2021-07-29_23h56.25.633,Simcolourproject_2stim_asymm_v5,2020.2.10,MacIntel,60,61025ae37ef11b136ea224fe,,,,,,,,,621,-35.23498535,56.0894165,1,0,0,response7disk,,0,-8.129638672,3.94128418,1,0,0,rectangle,-8.129638672,3.94128418,1,0,0,-8.129638672,3.94128418,1,0,0,1,0,160,50,1,,,,,,,,
,,,,,,,,,,,,,FF,,,,,,,,0.3823,,,,,,,,,,,,,,,,,,,,,,60fdee1f5bb38a56c58631bc,610373be6e691fde06967a39,2021-07-29_23h56.25.633,Simcolourproject_2stim_asymm_v5,2020.2.10,MacIntel,60,61025ae37ef11b136ea224fe,,,,,,,,,3984,-28.44787598,60.91015625,1,0,0,response7disk,,0,-10.88201904,13.24493408,1,0,0,rectangle,-10.88201904,13.24493408,1,0,0,-10.88201904,13.24493408,1,0,0,1,1,161,103,1,,,,,,,,
,,,,,,,,,,,,,FF,,,,,,,,0.4825,,,,,,,,,,,,,,,,,,,,,,60fdee1f5bb38a56c58631bc,610373be6e691fde06967a39,2021-07-29_23h56.25.633,Simcolourproject_2stim_asymm_v5,2020.2.10,MacIntel,60,61025ae37ef11b136ea224fe,,,,,,,,,2685,-23.56744385,53.52133179,1,0,0,response7disk,,0,-2.870666504,-4.229553223,1,0,0,rectangle,-2.870666504,-4.229553223,1,0,0,-2.870666504,-4.229553223,1,0,0,1,2,162,141,1,,,,,,,,
,,,,,,,,,,,,,FF,,,,,,,,1.4166,,,,,,,,,,,,,,,,,,,,,,60fdee1f5bb38a56c58631bc,610373be6e691fde06967a39,2021-07-29_23h56.25.633,Simcolourproject_2stim_asymm_v5,2020.2.10,MacIntel,60,61025ae37ef11b136ea224fe,,,,,,,,,894,-26.45269775,60.6697998,1,0,0,response7disk,,0,1.011657715,-3.173034668,1,0,0,rectangle,1.011657715,-3.173034668,1,0,0,1.011657715,-3.173034668,1,0,0,1,3,163,151,1,,,,,,,,
,,,,,,,,,,,,,FF,,,,,,,,0.5671,,,,,,,,,,,,,,,,,,,,,,60fdee1f5bb38a56c58631bc,610373be6e691fde06967a39,2021-07-29_23h56.25.633,Simcolourproject_2stim_asymm_v5,2020.2.10,MacIntel,60,61025ae37ef11b136ea224fe,,,,,,,,,2293,-32.92248535,60.44104004,1,0,0,response7disk,,0,-5.02947998,1.50378418,1,0,0,rectangle,-5.02947998,1.50378418,1,0,0,-5.02947998,1.50378418,1,0,0,1,4,164,81,1,,,,,,,,
,,,,,,,,,,,,,FF,,,,,,,,0.5153,,,,,,,,,,,,,,,,,,,,,,60fdee1f5bb38a56c58631bc,610373be6e691fde06967a39,2021-07-29_23h56.25.633,Simcolourproject_2stim_asymm_v5,2020.2.10,MacIntel,60,61025ae37ef11b136ea224fe,,,,,,,,,2433,-37.01159668,77.18304443,1,0,0,response7disk,,0,-7.22479248,0.192626953,1,0,0,rectangle,-7.22479248,0.192626953,1,0,0,-7.22479248,0.192626953,1,0,0,1,5,165,121,1,,,,,,,,
,,,,,,,,,,,,,FF,,,,,,,,0.4164,,,,,,,,,,,,,,,,,,,,,,60fdee1f5bb38a56c58631bc,610373be6e691fde06967a39,2021-07-29_23h56.25.633,Simcolourproject_2stim_asymm_v5,2020.2.10,MacIntel,60,61025ae37ef11b136ea224fe,,,,,,,,,3557,-21.26397705,57.92297363,1,0,0,response7disk,,0,-8.995300293,7.860229492,1,0,0,rectangle,-8.995300293,7.860229492,1,0,0,-8.995300293,7.860229492,1,0,0,1,6,166,111,1,,,,,,,,
,,,,,,,,,,,,,FF,,,,,,,,0.6168,,,,,,,,,,,,,,,,,,,,,,60fdee1f5bb38a56c58631bc,610373be6e691fde06967a39,2021-07-29_23h56.25.633,Simcolourproject_2stim_asymm_v5,2020.2.10,MacIntel,60,61025ae37ef11b136ea224fe,,,,,,,,,1840,-32.92175293,74.5322876,1,0,0,response7disk,,0,-15.18096924,12.02124023,1,0,0,rectangle,-15.18096924,12.02124023,1,0,0,-15.18096924,12.02124023,1,0,0,1,7,167,23,1,,,,,,,,
,,,,,,,,,,,,,FF,,,,,,,,1.1172,,,,,,,,,,,,,,,,,,,,,,60fdee1f5bb38a56c58631bc,610373be6e691fde06967a39,2021-07-29_23h56.25.633,Simcolourproject_2stim_asymm_v5,2020.2.10,MacIntel,60,61025ae37ef11b136ea224fe,,,,,,,,,3608,-31.71905518,72.71627808,1,0,0,response7disk,,0,-15.53253174,7.278198242,1,0,0,rectangle,-15.53253174,7.278198242,1,0,0,-15.53253174,7.278198242,1,0,0,1,8,168,130,1,,,,,,,,
,,,,,,,,,,,,,FF,,,,,,,,0.5999,,,,,,,,,,,,,,,,,,,,,,60fdee1f5bb38a56c58631bc,610373be6e691fde06967a39,2021-07-29_23h56.25.633,Simcolourproject_2stim_asymm_v5,2020.2.10,MacIntel,60,61025ae37ef11b136ea224fe,,,,,,,,,147,-36.33044434,58.1151123,1,0,0,response7disk,,0,-26.41241455,-10.42779541,1,0,0,rectangle,-26.41241455,-10.42779541,1,0,0,-26.41241455,-10.42779541,1,0,0,1,9,169,91,1,,,,,,,,
,,,,,,,,,,,,,FF,,,,,,,,0.6658,,,,,,,,,,,,,,,,,,,,,,60fdee1f5bb38a56c58631bc,610373be6e691fde06967a39,2021-07-29_23h56.25.633,Simcolourproject_2stim_asymm_v5,2020.2.10,MacIntel,60,61025ae37ef11b136ea224fe,,,,,,,,,362,-41.93139648,73.67599487,1,0,0,response7disk,,0,-29.24804688,15.41564941,1,0,0,rectangle,-29.24804688,15.41564941,1,0,0,-29.24804688,15.41564941,1,0,0,1,10,170,106,1,,,,,,,,
,,,,,,,,,,,,,FF,,,,,,,,0.6663,,,,,,,,,,,,,,,,,,,,,,60fdee1f5bb38a56c58631bc,610373be6e691fde06967a39,2021-07-29_23h56.25.633,Simcolourproject_2stim_asymm_v5,2020.2.10,MacIntel,60,61025ae37ef11b136ea224fe,,,,,,,,,4359,-26.05212402,63.24206543,1,0,0,response7disk,,0,-10.32421875,4.259521484,1,0,0,rectangle,48.05401611,64.0604248,1,0,0,-6.014526367,0.992553711,1,0,0,1,11,171,29,1,,response1disk_3,TRUE,7,7,"[69,189,240,172,36,2,300,51,38,17,160,263,92,288,308,131,128,295,232,18]",1.7335,rectangle
,,,,,,,,,,,,,FF,,,,,,,,0.3996,,,,,,,,,,,,,,,,,,,,,,60fdee1f5bb38a56c58631bc,610373be6e691fde06967a39,2021-07-29_23h56.25.633,Simcolourproject_2stim_asymm_v5,2020.2.10,MacIntel,60,61025ae37ef11b136ea224fe,,,,,,,,,3369,-32.1060791,66.43502808,1,0,0,response7disk,,0,-3.535095215,-0.500457764,1,0,0,rectangle,-3.535095215,-0.500457764,1,0,0,-3.535095215,-0.500457764,1,0,0,1,12,172,62,1,,,,,,,,
,,,,,,,,,,,,,FF,,,,,,,,0.4666,,,,,,,,,,,,,,,,,,,,,,60fdee1f5bb38a56c58631bc,610373be6e691fde06967a39,2021-07-29_23h56.25.633,Simcolourproject_2stim_asymm_v5,2020.2.10,MacIntel,60,61025ae37ef11b136ea224fe,,,,,,,,,177,-32.50970459,71.63995361,1,0,0,response7disk,,0,-11.91772461,10.06958008,1,0,0,rectangle,-11.91772461,10.06958008,1,0,0,-11.91772461,10.06958008,1,0,0,1,13,173,94,1,,,,,,,,
,,,,,,,,,,,,,FF,,,,,,,,0.5002,,,,,,,,,,,,,,,,,,,,,,60fdee1f5bb38a56c58631bc,610373be6e691fde06967a39,2021-07-29_23h56.25.633,Simcolourproject_2stim_asymm_v5,2020.2.10,MacIntel,60,61025ae37ef11b136ea224fe,,,,,,,,,1835,-40.11083984,63.84002686,1,0,0,response7disk,,0,-13.33599854,0.270690918,1,0,0,rectangle,-13.33599854,0.270690918,1,0,0,-13.33599854,0.270690918,1,0,0,1,14,174,158,1,,,,,,,,
,,,,,,,,,,,,,FF,,,,,,,,0.4006,,,,,,,,,,,,,,,,,,,,,,60fdee1f5bb38a56c58631bc,610373be6e691fde06967a39,2021-07-29_23h56.25.633,Simcolourproject_2stim_asymm_v5,2020.2.10,MacIntel,60,61025ae37ef11b136ea224fe,,,,,,,,,2045,-28.75268555,38.43457031,1,0,0,response7disk,,0,-11.87384033,-6.005187988,1,0,0,rectangle,-11.87384033,-6.005187988,1,0,0,-11.87384033,-6.005187988,1,0,0,1,15,175,18,1,,,,,,,,
,,,,,,,,,,,,,FF,,,,,,,,0.5008,,,,,,,,,,,,,,,,,,,,,,60fdee1f5bb38a56c58631bc,610373be6e691fde06967a39,2021-07-29_23h56.25.633,Simcolourproject_2stim_asymm_v5,2020.2.10,MacIntel,60,61025ae37ef11b136ea224fe,,,,,,,,,2922,-34.84063721,67.1618042,1,0,0,response7disk,,0,-19.37115479,6.174682617,1,0,0,rectangle,-19.37115479,6.174682617,1,0,0,-19.37115479,6.174682617,1,0,0,1,16,176,36,1,,,,,,,,
,,,,,,,,,,,,,FF,,,,,,,,0.5164,,,,,,,,,,,,,,,,,,,,,,60fdee1f5bb38a56c58631bc,610373be6e691fde06967a39,2021-07-29_23h56.25.633,Simcolourproject_2stim_asymm_v5,2020.2.10,MacIntel,60,61025ae37ef11b136ea224fe,,,,,,,,,3218,-29.71716309,61.45336914,1,0,0,response7disk,,0,-8.067077637,7.734954834,1,0,0,rectangle,-8.067077637,7.734954834,1,0,0,-8.067077637,7.734954834,1,0,0,1,17,177,140,1,,,,,,,,
,,,,,,,,,,,,,FF,,,,,,,,0.5329,,,,,,,,,,,,,,,,,,,,,,60fdee1f5bb38a56c58631bc,610373be6e691fde06967a39,2021-07-29_23h56.25.633,Simcolourproject_2stim_asymm_v5,2020.2.10,MacIntel,60,61025ae37ef11b136ea224fe,,,,,,,,,329,-29.52185059,67.94445801,1,0,0,response7disk,,0,-12.14849854,-9.407958984,1,0,0,rectangle,-12.14849854,-9.407958984,1,0,0,-12.14849854,-9.407958984,1,0,0,1,18,178,153,1,,,,,,,,
,,,,,,,,,,,,,FF,,,,,,,,0.5333,,,,,,,,,,,,,,,,,,,,,,60fdee1f5bb38a56c58631bc,610373be6e691fde06967a39,2021-07-29_23h56.25.633,Simcolourproject_2stim_asymm_v5,2020.2.10,MacIntel,60,61025ae37ef11b136ea224fe,,,,,,,,,1799,-24.03460693,52.12762451,1,0,0,response7disk,,0,-7.639831543,-8.116455078,1,0,0,rectangle,-7.639831543,-8.116455078,1,0,0,-7.639831543,-8.116455078,1,0,0,1,19,179,2,1,,,,,,,,
,,,,,,,,,,,,,FF,,,,,,,,0.6338,,,,,,,,,,,,,,,,,,,,,,60fdee1f5bb38a56c58631bc,610373be6e691fde06967a39,2021-07-29_23h56.25.633,Simcolourproject_2stim_asymm_v5,2020.2.10,MacIntel,60,61025ae37ef11b136ea224fe,,,,,,,,,2785,-39.91278076,69.78585815,1,0,0,response7disk,,0,-9.196105957,2.679260254,1,0,0,rectangle,-9.196105957,2.679260254,1,0,0,-9.196105957,2.679260254,1,0,0,1,20,180,1,1,,,,,,,,
,,,,,,,,,,,,,FF,,,,,,,,0.6166,,,,,,,,,,,,,,,,,,,,,,60fdee1f5bb38a56c58631bc,610373be6e691fde06967a39,2021-07-29_23h56.25.633,Simcolourproject_2stim_asymm_v5,2020.2.10,MacIntel,60,61025ae37ef11b136ea224fe,,,,,,,,,816,-31.73455811,50.03729248,1,0,0,response7disk,,0,-21.90179443,-2.046875,1,0,0,rectangle,-21.90179443,-2.046875,1,0,0,-21.90179443,-2.046875,1,0,0,1,21,181,125,1,,,,,,,,
,,,,,,,,,,,,,FF,,,,,,,,0.6326,,,,,,,,,,,,,,,,,,,,,,60fdee1f5bb38a56c58631bc,610373be6e691fde06967a39,2021-07-29_23h56.25.633,Simcolourproject_2stim_asymm_v5,2020.2.10,MacIntel,60,61025ae37ef11b136ea224fe,,,,,,,,,1486,-41.85717773,70.3364563,1,0,0,response7disk,,0,-18.4708252,-3.257476807,1,0,0,rectangle,-18.4708252,-3.257476807,1,0,0,-18.4708252,-3.257476807,1,0,0,1,22,182,113,1,,,,,,,,
,,,,,,,,,,,,,FF,,,,,,,,0.6829,,,,,,,,,,,,,,,,,,,,,,60fdee1f5bb38a56c58631bc,610373be6e691fde06967a39,2021-07-29_23h56.25.633,Simcolourproject_2stim_asymm_v5,2020.2.10,MacIntel,60,61025ae37ef11b136ea224fe,,,,,,,,,1529,-48.07330322,54.36364746,1,0,0,response7disk,,0,-16.74304199,1.356079102,1,0,0,rectangle,-16.74304199,1.356079102,1,0,0,-16.74304199,1.356079102,1,0,0,1,23,183,145,1,,,,,,,,
,,,,,,,,,,,,,FF,,,,,,,,0.8162,,,,,,,,,,,,,,,,,,,,,,60fdee1f5bb38a56c58631bc,610373be6e691fde06967a39,2021-07-29_23h56.25.633,Simcolourproject_2stim_asymm_v5,2020.2.10,MacIntel,60,61025ae37ef11b136ea224fe,,,,,,,,,2862,-24.33703613,71.46774292,1,0,0,response7disk,,0,-20.25134277,13.75787354,1,0,0,rectangle,-20.25134277,13.75787354,1,0,0,-20.25134277,13.75787354,1,0,0,1,24,184,15,1,,,,,,,,
,,,,,,,,,,,,,FF,,,,,,,,0.5662,,,,,,,,,,,,,,,,,,,,,,60fdee1f5bb38a56c58631bc,610373be6e691fde06967a39,2021-07-29_23h56.25.633,Simcolourproject_2stim_asymm_v5,2020.2.10,MacIntel,60,61025ae37ef11b136ea224fe,,,,,,,,,754,-27.05633545,62.77856445,1,0,0,response7disk,,0,-18.83374023,-5.07220459,1,0,0,rectangle,-18.83374023,-5.07220459,1,0,0,-18.83374023,-5.07220459,1,0,0,1,25,185,65,1,,,,,,,,
,,,,,,,,,,,,,FF,,,,,,,,1.7514,,,,,,,,,,,,,,,,,,,,,,60fdee1f5bb38a56c58631bc,610373be6e691fde06967a39,2021-07-29_23h56.25.633,Simcolourproject_2stim_asymm_v5,2020.2.10,MacIntel,60,61025ae37ef11b136ea224fe,,,,,,,,,1975,-27.93060303,71.26846313,1,0,0,response7disk,,0,-14.11743164,3.252746582,1,0,0,rectangle,-14.11743164,3.252746582,1,0,0,-14.11743164,3.252746582,1,0,0,1,26,186,31,1,,,,,,,,
,,,,,,,,,,,,,FF,,,,,,,,0.8497,,,,,,,,,,,,,,,,,,,,,,60fdee1f5bb38a56c58631bc,610373be6e691fde06967a39,2021-07-29_23h56.25.633,Simcolourproject_2stim_asymm_v5,2020.2.10,MacIntel,60,61025ae37ef11b136ea224fe,,,,,,,,,2391,-28.83337402,73.62176514,1,0,0,response7disk,,0,-13.94317627,3.63772583,1,0,0,rectangle,-13.94317627,3.63772583,1,0,0,-13.94317627,3.63772583,1,0,0,1,27,187,84,1,,,,,,,,
,,,,,,,,,,,,,FF,,,,,,,,1.2005,,,,,,,,,,,,,,,,,,,,,,60fdee1f5bb38a56c58631bc,610373be6e691fde06967a39,2021-07-29_23h56.25.633,Simcolourproject_2stim_asymm_v5,2020.2.10,MacIntel,60,61025ae37ef11b136ea224fe,,,,,,,,,1471,-31.19299316,71.01135254,1,0,0,response7disk,,0,8.246032715,-11.18695068,1,0,0,rectangle,22.00823975,-81.92407227,1,0,0,-5.505615234,4.679718018,1,0,0,1,28,188,99,1,,response3disk_3,TRUE,4,4,"[69,189,240,172,36,2,300,51,38,17,160,263,92,288,308,131,128,295,232,18]",2.3848,rectangle
,,,,,,,,,,,,,FF,,,,,,,,0.8494,,,,,,,,,,,,,,,,,,,,,,60fdee1f5bb38a56c58631bc,610373be6e691fde06967a39,2021-07-29_23h56.25.633,Simcolourproject_2stim_asymm_v5,2020.2.10,MacIntel,60,61025ae37ef11b136ea224fe,,,,,,,,,3424,-36.23614502,69.78128052,1,0,0,response7disk,,0,-28.16351318,9.702941895,1,0,0,rectangle,-28.16351318,9.702941895,1,0,0,-28.16351318,9.702941895,1,0,0,1,29,189,48,1,,,,,,,,
,,,,,,,,,,,,,FF,,,,,,,,0.4486,,,,,,,,,,,,,,,,,,,,,,60fdee1f5bb38a56c58631bc,610373be6e691fde06967a39,2021-07-29_23h56.25.633,Simcolourproject_2stim_asymm_v5,2020.2.10,MacIntel,60,61025ae37ef11b136ea224fe,,,,,,,,,2641,-32.47668457,43.39453125,1,0,0,response7disk,,0,-12.31958008,-10.13742065,1,0,0,rectangle,-12.31958008,-10.13742065,1,0,0,-12.31958008,-10.13742065,1,0,0,1,30,190,152,1,,,,,,,,
,,,,,,,,,,,,,FF,,,,,,,,31.4159,,,,,,,,,,,,,,,,,,,,,,60fdee1f5bb38a56c58631bc,610373be6e691fde06967a39,2021-07-29_23h56.25.633,Simcolourproject_2stim_asymm_v5,2020.2.10,MacIntel,60,61025ae37ef11b136ea224fe,,,,,,,,,432,-23.29406738,75.09213257,1,0,0,response7disk,,0,-12.10845947,6.630767822,1,0,0,rectangle,-12.10845947,6.630767822,1,0,0,-12.10845947,6.630767822,1,0,0,1,31,191,114,1,,,,,,,,
,,,,,,,,,,,,,FF,,,,,,,,0.3671,,,,,,,,,,,,,,,,,,,,,,60fdee1f5bb38a56c58631bc,610373be6e691fde06967a39,2021-07-29_23h56.25.633,Simcolourproject_2stim_asymm_v5,2020.2.10,MacIntel,60,61025ae37ef11b136ea224fe,,,,,,,,,1056,-35.92333984,61.75213623,1,0,0,response7disk,,0,-5.268371582,8.977111816,1,0,0,rectangle,-5.268371582,8.977111816,1,0,0,-5.268371582,8.977111816,1,0,0,1,32,192,27,1,,,,,,,,
,,,,,,,,,,,,,FF,,,,,,,,1.4166,,,,,,,,,,,,,,,,,,,,,,60fdee1f5bb38a56c58631bc,610373be6e691fde06967a39,2021-07-29_23h56.25.633,Simcolourproject_2stim_asymm_v5,2020.2.10,MacIntel,60,61025ae37ef11b136ea224fe,,,,,,,,,273,-33.54101563,58.78036499,1,0,0,response7disk,,0,-21.10150146,11.3717041,1,0,0,rectangle,-21.10150146,11.3717041,1,0,0,-21.10150146,11.3717041,1,0,0,1,33,193,95,1,,,,,,,,
,,,,,,,,,,,,,FF,,,,,,,,0.7327,,,,,,,,,,,,,,,,,,,,,,60fdee1f5bb38a56c58631bc,610373be6e691fde06967a39,2021-07-29_23h56.25.633,Simcolourproject_2stim_asymm_v5,2020.2.10,MacIntel,60,61025ae37ef11b136ea224fe,,,,,,,,,2348,-38.01452637,54.07330322,1,0,0,response7disk,,0,-24.40185547,10.53656006,1,0,0,rectangle,-24.40185547,10.53656006,1,0,0,-24.40185547,10.53656006,1,0,0,1,34,194,22,1,,,,,,,,
,,,,,,,,,,,,,FF,,,,,,,,0.4331,,,,,,,,,,,,,,,,,,,,,,60fdee1f5bb38a56c58631bc,610373be6e691fde06967a39,2021-07-29_23h56.25.633,Simcolourproject_2stim_asymm_v5,2020.2.10,MacIntel,60,61025ae37ef11b136ea224fe,,,,,,,,,1621,-41.93426514,62.06207275,1,0,0,response7disk,,0,-24.5145874,5.037841797,1,0,0,rectangle,-24.5145874,5.037841797,1,0,0,-24.5145874,5.037841797,1,0,0,1,35,195,46,1,,,,,,,,
,,,,,,,,,,,,,FF,,,,,,,,0.9332,,,,,,,,,,,,,,,,,,,,,,60fdee1f5bb38a56c58631bc,610373be6e691fde06967a39,2021-07-29_23h56.25.633,Simcolourproject_2stim_asymm_v5,2020.2.10,MacIntel,60,61025ae37ef11b136ea224fe,,,,,,,,,4339,-36.80926514,76.85778809,1,0,0,response7disk,,0,-16.05853271,-6.610107422,1,0,0,rectangle,-16.05853271,-6.610107422,1,0,0,-16.05853271,-6.610107422,1,0,0,1,36,196,61,1,,,,,,,,
,,,,,,,,,,,,,FF,,,,,,,,0.5832,,,,,,,,,,,,,,,,,,,,,,60fdee1f5bb38a56c58631bc,610373be6e691fde06967a39,2021-07-29_23h56.25.633,Simcolourproject_2stim_asymm_v5,2020.2.10,MacIntel,60,61025ae37ef11b136ea224fe,,,,,,,,,2298,-30.4175415,57.1244812,1,0,0,response7disk,,0,-17.2935791,9.407073975,1,0,0,rectangle,-17.2935791,9.407073975,1,0,0,-17.2935791,9.407073975,1,0,0,1,37,197,34,1,,,,,,,,
,,,,,,,,,,,,,FF,,,,,,,,0.5994,,,,,,,,,,,,,,,,,,,,,,60fdee1f5bb38a56c58631bc,610373be6e691fde06967a39,2021-07-29_23h56.25.633,Simcolourproject_2stim_asymm_v5,2020.2.10,MacIntel,60,61025ae37ef11b136ea224fe,,,,,,,,,1865,-30.07849121,61.63317871,1,0,0,response7disk,,0,-18.31835938,-0.860351563,1,0,0,rectangle,-18.31835938,-0.860351563,1,0,0,-18.31835938,-0.860351563,1,0,0,1,38,198,44,1,,,,,,,,
,,,,,,,,,,,,,FF,,,,,,,,0.4159,,,,,,,,,,,,,,,,,,,,,,60fdee1f5bb38a56c58631bc,610373be6e691fde06967a39,2021-07-29_23h56.25.633,Simcolourproject_2stim_asymm_v5,2020.2.10,MacIntel,60,61025ae37ef11b136ea224fe,,,,,,,,,2661,-35.49023438,65.22192383,1,0,0,response7disk,,0,-21.3302002,8.074279785,1,0,0,rectangle,-21.3302002,8.074279785,1,0,0,-21.3302002,8.074279785,1,0,0,1,39,199,13,1,,,,,,,,
,,,,,,,,,,,,,FF,,,,,,,,0.4,,,,,,,,,,,,,,,,,,,,,,60fdee1f5bb38a56c58631bc,610373be6e691fde06967a39,2021-07-29_23h56.25.633,Simcolourproject_2stim_asymm_v5,2020.2.10,MacIntel,60,61025ae37ef11b136ea224fe,,,,,,,,,1038,-41.06341553,64.87088013,1,0,0,response7disk,,0,-35.13989258,11.69750977,1,0,0,rectangle,-35.13989258,11.69750977,1,0,0,-35.13989258,11.69750977,1,0,0,1,40,200,129,1,,,,,,,,
,,,,,,,,,,,,,FF,,,,,,,,0.3821,,,,,,,,,,,,,,,,,,,,,,60fdee1f5bb38a56c58631bc,610373be6e691fde06967a39,2021-07-29_23h56.25.633,Simcolourproject_2stim_asymm_v5,2020.2.10,MacIntel,60,61025ae37ef11b136ea224fe,,,,,,,,,1977,-45.06866455,51.14364624,1,0,0,response7disk,,0,-24.49481201,-0.59765625,1,0,0,rectangle,-24.49481201,-0.59765625,1,0,0,-24.49481201,-0.59765625,1,0,0,1,41,201,127,1,,,,,,,,
,,,,,,,,,,,,,FF,,,,,,,,0.5661,,,,,,,,,,,,,,,,,,,,,,60fdee1f5bb38a56c58631bc,610373be6e691fde06967a39,2021-07-29_23h56.25.633,Simcolourproject_2stim_asymm_v5,2020.2.10,MacIntel,60,61025ae37ef11b136ea224fe,,,,,,,,,1785,-27.51733398,47.51873779,1,0,0,response7disk,,0,-14.9465332,-2.349914551,1,0,0,rectangle,-14.9465332,-2.349914551,1,0,0,-14.9465332,-2.349914551,1,0,0,1,42,202,75,1,,,,,,,,
,,,,,,,,,,,,,FF,,,,,,,,0.9168,,,,,,,,,,,,,,,,,,,,,,60fdee1f5bb38a56c58631bc,610373be6e691fde06967a39,2021-07-29_23h56.25.633,Simcolourproject_2stim_asymm_v5,2020.2.10,MacIntel,60,61025ae37ef11b136ea224fe,,,,,,,,,2209,-55.67559814,89.31610107,1,0,0,response7disk,,0,-28.48620605,12.11315918,1,0,0,rectangle,-28.48620605,12.11315918,1,0,0,-28.48620605,12.11315918,1,0,0,1,43,203,68,1,,,,,,,,
,,,,,,,,,,,,,FF,,,,,,,,0.7348,,,,,,,,,,,,,,,,,,,,,,60fdee1f5bb38a56c58631bc,610373be6e691fde06967a39,2021-07-29_23h56.25.633,Simcolourproject_2stim_asymm_v5,2020.2.10,MacIntel,60,61025ae37ef11b136ea224fe,,,,,,,,,1234,-35.16992188,63.25201416,1,0,0,response7disk,,0,-20.63604736,-1.029571533,1,0,0,rectangle,-20.63604736,-1.029571533,1,0,0,-20.63604736,-1.029571533,1,0,0,1,44,204,3,1,,,,,,,,
,,,,,,,,,,,,,FF,,,,,,,,0.649,,,,,,,,,,,,,,,,,,,,,,60fdee1f5bb38a56c58631bc,610373be6e691fde06967a39,2021-07-29_23h56.25.633,Simcolourproject_2stim_asymm_v5,2020.2.10,MacIntel,60,61025ae37ef11b136ea224fe,,,,,,,,,443,-32.42590332,55.42227173,1,0,0,response7disk,,0,-18.96832275,-7.12689209,1,0,0,rectangle,-18.96832275,-7.12689209,1,0,0,-18.96832275,-7.12689209,1,0,0,1,45,205,47,1,,,,,,,,
,,,,,,,,,,,,,FF,,,,,,,,0.3999,,,,,,,,,,,,,,,,,,,,,,60fdee1f5bb38a56c58631bc,610373be6e691fde06967a39,2021-07-29_23h56.25.633,Simcolourproject_2stim_asymm_v5,2020.2.10,MacIntel,60,61025ae37ef11b136ea224fe,,,,,,,,,1586,-38.7008667,53.00671387,1,0,0,response7disk,,0,-20.27661133,-0.544647217,1,0,0,rectangle,-20.27661133,-0.544647217,1,0,0,-20.27661133,-0.544647217,1,0,0,1,46,206,70,1,,,,,,,,
,,,,,,,,,,,,,FF,,,,,,,,0.3823,,,,,,,,,,,,,,,,,,,,,,60fdee1f5bb38a56c58631bc,610373be6e691fde06967a39,2021-07-29_23h56.25.633,Simcolourproject_2stim_asymm_v5,2020.2.10,MacIntel,60,61025ae37ef11b136ea224fe,,,,,,,,,1152,-33.55944824,47.69525146,1,0,0,response7disk,,0,-20.42193604,9.962768555,1,0,0,rectangle,-20.42193604,9.962768555,1,0,0,-20.42193604,9.962768555,1,0,0,1,47,207,138,1,,,,,,,,
,,,,,,,,,,,,,FF,,,,,,,,0.4003,,,,,,,,,,,,,,,,,,,,,,60fdee1f5bb38a56c58631bc,610373be6e691fde06967a39,2021-07-29_23h56.25.633,Simcolourproject_2stim_asymm_v5,2020.2.10,MacIntel,60,61025ae37ef11b136ea224fe,,,,,,,,,1595,-31.05267334,60.43823242,1,0,0,response7disk,,0,-12.18994141,-1.215881348,1,0,0,rectangle,-12.18994141,-1.215881348,1,0,0,-12.18994141,-1.215881348,1,0,0,1,48,208,149,1,,,,,,,,
,,,,,,,,,,,,,FF,,,,,,,,0.4505,,,,,,,,,,,,,,,,,,,,,,60fdee1f5bb38a56c58631bc,610373be6e691fde06967a39,2021-07-29_23h56.25.633,Simcolourproject_2stim_asymm_v5,2020.2.10,MacIntel,60,61025ae37ef11b136ea224fe,,,,,,,,,3722,-32.76855469,57.70645142,1,0,0,response7disk,,0,-17.77203369,2.149108887,1,0,0,rectangle,-17.77203369,2.149108887,1,0,0,-17.77203369,2.149108887,1,0,0,1,49,209,146,1,,,,,,,,
,,,,,,,,,,,,,FF,,,,,,,,0.5503,,,,,,,,,,,,,,,,,,,,,,60fdee1f5bb38a56c58631bc,610373be6e691fde06967a39,2021-07-29_23h56.25.633,Simcolourproject_2stim_asymm_v5,2020.2.10,MacIntel,60,61025ae37ef11b136ea224fe,,,,,,,,,617,-35.28967285,56.35308838,1,0,0,response7disk,,0,-19.45684814,-6.509063721,1,0,0,rectangle,-19.45684814,-6.509063721,1,0,0,-19.45684814,-6.509063721,1,0,0,1,50,210,5,1,,,,,,,,
,,,,,,,,,,,,,FF,,,,,,,,0.5343,,,,,,,,,,,,,,,,,,,,,,60fdee1f5bb38a56c58631bc,610373be6e691fde06967a39,2021-07-29_23h56.25.633,Simcolourproject_2stim_asymm_v5,2020.2.10,MacIntel,60,61025ae37ef11b136ea224fe,,,,,,,,,3245,-32.63543701,52.70245361,1,0,0,response7disk,,0,-8.329040527,-3.87487793,1,0,0,rectangle,-8.329040527,-3.87487793,1,0,0,-8.329040527,-3.87487793,1,0,0,1,51,211,109,1,,,,,,,,
,,,,,,,,,,,,,FF,,,,,,,,0.5991,,,,,,,,,,,,,,,,,,,,,,60fdee1f5bb38a56c58631bc,610373be6e691fde06967a39,2021-07-29_23h56.25.633,Simcolourproject_2stim_asymm_v5,2020.2.10,MacIntel,60,61025ae37ef11b136ea224fe,,,,,,,,,3275,-29.22875977,64.54086304,1,0,0,response7disk,,0,-6.266052246,-2.35369873,1,0,0,rectangle,-6.266052246,-2.35369873,1,0,0,-6.266052246,-2.35369873,1,0,0,1,52,212,58,1,,,,,,,,
,,,,,,,,,,,,,FF,,,,,,,,0.5838,,,,,,,,,,,,,,,,,,,,,,60fdee1f5bb38a56c58631bc,610373be6e691fde06967a39,2021-07-29_23h56.25.633,Simcolourproject_2stim_asymm_v5,2020.2.10,MacIntel,60,61025ae37ef11b136ea224fe,,,,,,,,,2800,-33.93792725,99.08093262,1,0,0,response7disk,,0,-6.352416992,8.24029541,1,0,0,rectangle,-6.352416992,8.24029541,1,0,0,-6.352416992,8.24029541,1,0,0,1,53,213,74,1,,,,,,,,
,,,,,,,,,,,,,FF,,,,,,,,0.5672,,,,,,,,,,,,,,,,,,,,,,60fdee1f5bb38a56c58631bc,610373be6e691fde06967a39,2021-07-29_23h56.25.633,Simcolourproject_2stim_asymm_v5,2020.2.10,MacIntel,60,61025ae37ef11b136ea224fe,,,,,,,,,2002,-26.3682251,50.31896973,1,0,0,response7disk,,0,-3.596923828,-3.972717285,1,0,0,rectangle,-3.596923828,-3.972717285,1,0,0,-3.596923828,-3.972717285,1,0,0,1,54,214,136,1,,,,,,,,
,,,,,,,,,,,,,FF,,,,,,,,0.6998,,,,,,,,,,,,,,,,,,,,,,60fdee1f5bb38a56c58631bc,610373be6e691fde06967a39,2021-07-29_23h56.25.633,Simcolourproject_2stim_asymm_v5,2020.2.10,MacIntel,60,61025ae37ef11b136ea224fe,,,,,,,,,383,-20.81414795,56.27478027,1,0,0,response7disk,,0,6.179321289,-0.784118652,1,0,0,rectangle,6.179321289,-0.784118652,1,0,0,6.179321289,-0.784118652,1,0,0,1,55,215,56,1,,,,,,,,
,,,,,,,,,,,,,FF,,,,,,,,0.9831,,,,,,,,,,,,,,,,,,,,,,60fdee1f5bb38a56c58631bc,610373be6e691fde06967a39,2021-07-29_23h56.25.633,Simcolourproject_2stim_asymm_v5,2020.2.10,MacIntel,60,61025ae37ef11b136ea224fe,,,,,,,,,1513,-49.80474854,82.33700562,1,0,0,response7disk,,0,-11.99755859,0.450439453,1,0,0,rectangle,-11.99755859,0.450439453,1,0,0,-11.99755859,0.450439453,1,0,0,1,56,216,38,1,,,,,,,,
,,,,,,,,,,,,,FF,,,,,,,,0.4999,,,,,,,,,,,,,,,,,,,,,,60fdee1f5bb38a56c58631bc,610373be6e691fde06967a39,2021-07-29_23h56.25.633,Simcolourproject_2stim_asymm_v5,2020.2.10,MacIntel,60,61025ae37ef11b136ea224fe,,,,,,,,,1954,-37.87878418,44.64544678,1,0,0,response7disk,,0,-15.34332275,-14.12106323,1,0,0,rectangle,-15.34332275,-14.12106323,1,0,0,-15.34332275,-14.12106323,1,0,0,1,57,217,119,1,,,,,,,,
,,,,,,,,,,,,,FF,,,,,,,,0.5332,,,,,,,,,,,,,,,,,,,,,,60fdee1f5bb38a56c58631bc,610373be6e691fde06967a39,2021-07-29_23h56.25.633,Simcolourproject_2stim_asymm_v5,2020.2.10,MacIntel,60,61025ae37ef11b136ea224fe,,,,,,,,,1315,-32.18304443,47.6104126,1,0,0,response7disk,,0,-1.371948242,-14.09567261,1,0,0,rectangle,-1.371948242,-14.09567261,1,0,0,-1.371948242,-14.09567261,1,0,0,1,58,218,4,1,,,,,,,,
,,,,,,,,,,,,,FF,,,,,,,,0.5004,,,,,,,,,,,,,,,,,,,,,,60fdee1f5bb38a56c58631bc,610373be6e691fde06967a39,2021-07-29_23h56.25.633,Simcolourproject_2stim_asymm_v5,2020.2.10,MacIntel,60,61025ae37ef11b136ea224fe,,,,,,,,,1811,-36.1072998,52.70819092,1,0,0,response7disk,,0,-8.531982422,3.698974609,1,0,0,rectangle,-8.531982422,3.698974609,1,0,0,-8.531982422,3.698974609,1,0,0,1,59,219,105,1,,,,,,,,
,,,,,,,,,,,,,FF,,,,,,,,0.5005,,,,,,,,,,,,,,,,,,,,,,60fdee1f5bb38a56c58631bc,610373be6e691fde06967a39,2021-07-29_23h56.25.633,Simcolourproject_2stim_asymm_v5,2020.2.10,MacIntel,60,61025ae37ef11b136ea224fe,,,,,,,,,3300,-25.28631592,58.34494019,1,0,0,response7disk,,0,11.65301514,-14.01275635,1,0,0,rectangle,11.65301514,-14.01275635,1,0,0,11.65301514,-14.01275635,1,0,0,1,60,220,115,1,,,,,,,,
,,,,,,,,,,,,,FF,,,,,,,,0.6169,,,,,,,,,,,,,,,,,,,,,,60fdee1f5bb38a56c58631bc,610373be6e691fde06967a39,2021-07-29_23h56.25.633,Simcolourproject_2stim_asymm_v5,2020.2.10,MacIntel,60,61025ae37ef11b136ea224fe,,,,,,,,,4065,-20.45074463,45.17169189,1,0,0,response7disk,,0,1.330444336,-1.762207031,1,0,0,rectangle,1.330444336,-1.762207031,1,0,0,1.330444336,-1.762207031,1,0,0,1,61,221,57,1,,,,,,,,
,,,,,,,,,,,,,FF,,,,,,,,0.516,,,,,,,,,,,,,,,,,,,,,,60fdee1f5bb38a56c58631bc,610373be6e691fde06967a39,2021-07-29_23h56.25.633,Simcolourproject_2stim_asymm_v5,2020.2.10,MacIntel,60,61025ae37ef11b136ea224fe,,,,,,,,,2331,-21.64849854,45.69744873,1,0,0,response7disk,,0,-10.59967041,-3.386199951,1,0,0,rectangle,-10.59967041,-3.386199951,1,0,0,-10.59967041,-3.386199951,1,0,0,1,62,222,137,1,,,,,,,,
,,,,,,,,,,,,,FF,,,,,,,,0.6001,,,,,,,,,,,,,,,,,,,,,,60fdee1f5bb38a56c58631bc,610373be6e691fde06967a39,2021-07-29_23h56.25.633,Simcolourproject_2stim_asymm_v5,2020.2.10,MacIntel,60,61025ae37ef11b136ea224fe,,,,,,,,,3474,-32.96844482,54.0168457,1,0,0,response7disk,,0,-16.88128662,0.884063721,1,0,0,rectangle,-16.88128662,0.884063721,1,0,0,-16.88128662,0.884063721,1,0,0,1,63,223,39,1,,,,,,,,
,,,,,,,,,,,,,FF,,,,,,,,0.6337,,,,,,,,,,,,,,,,,,,,,,60fdee1f5bb38a56c58631bc,610373be6e691fde06967a39,2021-07-29_23h56.25.633,Simcolourproject_2stim_asymm_v5,2020.2.10,MacIntel,60,61025ae37ef11b136ea224fe,,,,,,,,,415,-33.86175537,74.45404053,1,0,0,response7disk,,0,-8.339050293,-7.278686523,1,0,0,rectangle,-8.339050293,-7.278686523,1,0,0,-8.339050293,-7.278686523,1,0,0,1,64,224,135,1,,,,,,,,
,,,,,,,,,,,,,FF,,,,,,,,0.581,,,,,,,,,,,,,,,,,,,,,,60fdee1f5bb38a56c58631bc,610373be6e691fde06967a39,2021-07-29_23h56.25.633,Simcolourproject_2stim_asymm_v5,2020.2.10,MacIntel,60,61025ae37ef11b136ea224fe,,,,,,,,,3855,-31.66387939,69.29034424,1,0,0,response7disk,,0,-13.83770752,10.66009521,1,0,0,rectangle,-13.83770752,10.66009521,1,0,0,-13.83770752,10.66009521,1,0,0,1,65,225,21,1,,,,,,,,
,,,,,,,,,,,,,FF,,,,,,,,0.5368,,,,,,,,,,,,,,,,,,,,,,60fdee1f5bb38a56c58631bc,610373be6e691fde06967a39,2021-07-29_23h56.25.633,Simcolourproject_2stim_asymm_v5,2020.2.10,MacIntel,60,61025ae37ef11b136ea224fe,,,,,,,,,4195,-35.65148926,69.01495361,1,0,0,response7disk,,0,-11.26275635,-16.81964111,1,0,0,rectangle,-11.26275635,-16.81964111,1,0,0,-11.26275635,-16.81964111,1,0,0,1,66,226,112,1,,,,,,,,
,,,,,,,,,,,,,FF,,,,,,,,1.2156,,,,,,,,,,,,,,,,,,,,,,60fdee1f5bb38a56c58631bc,610373be6e691fde06967a39,2021-07-29_23h56.25.633,Simcolourproject_2stim_asymm_v5,2020.2.10,MacIntel,60,61025ae37ef11b136ea224fe,,,,,,,,,3710,-26.44049072,70.28277588,1,0,0,response7disk,,0,-5.320495605,2.79699707,1,0,0,rectangle,-5.320495605,2.79699707,1,0,0,-5.320495605,2.79699707,1,0,0,1,67,227,100,1,,,,,,,,
,,,,,,,,,,,,,FF,,,,,,,,0.3841,,,,,,,,,,,,,,,,,,,,,,60fdee1f5bb38a56c58631bc,610373be6e691fde06967a39,2021-07-29_23h56.25.633,Simcolourproject_2stim_asymm_v5,2020.2.10,MacIntel,60,61025ae37ef11b136ea224fe,,,,,,,,,3921,-40.49694824,82.4309082,1,0,0,response7disk,,0,-21.75958252,10.09906006,1,0,0,rectangle,-21.75958252,10.09906006,1,0,0,-21.75958252,10.09906006,1,0,0,1,68,228,20,1,,,,,,,,
,,,,,,,,,,,,,FF,,,,,,,,0.3831,,,,,,,,,,,,,,,,,,,,,,60fdee1f5bb38a56c58631bc,610373be6e691fde06967a39,2021-07-29_23h56.25.633,Simcolourproject_2stim_asymm_v5,2020.2.10,MacIntel,60,61025ae37ef11b136ea224fe,,,,,,,,,500,-40.26263428,67.15264893,1,0,0,response7disk,,0,-20.42266846,2.373199463,1,0,0,rectangle,-20.42266846,2.373199463,1,0,0,-20.42266846,2.373199463,1,0,0,1,69,229,54,1,,,,,,,,
,,,,,,,,,,,,,FF,,,,,,,,0.5164,,,,,,,,,,,,,,,,,,,,,,60fdee1f5bb38a56c58631bc,610373be6e691fde06967a39,2021-07-29_23h56.25.633,Simcolourproject_2stim_asymm_v5,2020.2.10,MacIntel,60,61025ae37ef11b136ea224fe,,,,,,,,,3665,-46.13098145,76.08465576,1,0,0,response7disk,,0,-24.20202637,3.779663086,1,0,0,rectangle,-24.20202637,3.779663086,1,0,0,-24.20202637,3.779663086,1,0,0,1,70,230,51,1,,,,,,,,
,,,,,,,,,,,,,FF,,,,,,,,0.4,,,,,,,,,,,,,,,,,,,,,,60fdee1f5bb38a56c58631bc,610373be6e691fde06967a39,2021-07-29_23h56.25.633,Simcolourproject_2stim_asymm_v5,2020.2.10,MacIntel,60,61025ae37ef11b136ea224fe,,,,,,,,,4328,-37.38250732,62.53601074,1,0,0,response7disk,,0,-24.05566406,0.62322998,1,0,0,rectangle,-75.59222412,-34.69589233,1,0,0,-32.15032959,-11.39157104,1,0,0,1,71,231,79,1,,response5disk_3,TRUE,2,2,"[69,189,240,172,36,2,300,51,38,17,160,263,92,288,308,131,128,295,232,18]",2.3836,rectangle
,,,,,,,,,,,,,FF,,,,,,,,0.3666,,,,,,,,,,,,,,,,,,,,,,60fdee1f5bb38a56c58631bc,610373be6e691fde06967a39,2021-07-29_23h56.25.633,Simcolourproject_2stim_asymm_v5,2020.2.10,MacIntel,60,61025ae37ef11b136ea224fe,,,,,,,,,3845,-32.92120361,52.81188965,1,0,0,response7disk,,0,-20.53918457,4.902404785,1,0,0,rectangle,-20.53918457,4.902404785,1,0,0,-20.53918457,4.902404785,1,0,0,1,72,232,32,1,,,,,,,,
,,,,,,,,,,,,,FF,,,,,,,,0.3827,,,,,,,,,,,,,,,,,,,,,,60fdee1f5bb38a56c58631bc,610373be6e691fde06967a39,2021-07-29_23h56.25.633,Simcolourproject_2stim_asymm_v5,2020.2.10,MacIntel,60,61025ae37ef11b136ea224fe,,,,,,,,,2945,-29.19873047,57.69189453,1,0,0,response7disk,,0,-20.44128418,-9.203857422,1,0,0,rectangle,-20.44128418,-9.203857422,1,0,0,-20.44128418,-9.203857422,1,0,0,1,73,233,157,1,,,,,,,,
,,,,,,,,,,,,,FF,,,,,,,,0.3826,,,,,,,,,,,,,,,,,,,,,,60fdee1f5bb38a56c58631bc,610373be6e691fde06967a39,2021-07-29_23h56.25.633,Simcolourproject_2stim_asymm_v5,2020.2.10,MacIntel,60,61025ae37ef11b136ea224fe,,,,,,,,,2044,-23.49035645,42.64013672,1,0,0,response7disk,,0,-18.11102295,-7.539855957,1,0,0,rectangle,-18.11102295,-7.539855957,1,0,0,-18.11102295,-7.539855957,1,0,0,1,74,234,116,1,,,,,,,,
,,,,,,,,,,,,,FF,,,,,,,,0.3333,,,,,,,,,,,,,,,,,,,,,,60fdee1f5bb38a56c58631bc,610373be6e691fde06967a39,2021-07-29_23h56.25.633,Simcolourproject_2stim_asymm_v5,2020.2.10,MacIntel,60,61025ae37ef11b136ea224fe,,,,,,,,,1435,-33.53063965,55.01617432,1,0,0,response7disk,,0,-15.31890869,-3.582183838,1,0,0,rectangle,-15.31890869,-3.582183838,1,0,0,-15.31890869,-3.582183838,1,0,0,1,75,235,108,1,,,,,,,,
,,,,,,,,,,,,,FF,,,,,,,,0.3495,,,,,,,,,,,,,,,,,,,,,,60fdee1f5bb38a56c58631bc,610373be6e691fde06967a39,2021-07-29_23h56.25.633,Simcolourproject_2stim_asymm_v5,2020.2.10,MacIntel,60,61025ae37ef11b136ea224fe,,,,,,,,,3504,-35.47302246,57.64172363,1,0,0,response7disk,,0,-17.71356201,-10.12963867,1,0,0,rectangle,-17.71356201,-10.12963867,1,0,0,-17.71356201,-10.12963867,1,0,0,1,76,236,17,1,,,,,,,,
,,,,,,,,,,,,,FF,,,,,,,,0.3677,,,,,,,,,,,,,,,,,,,,,,60fdee1f5bb38a56c58631bc,610373be6e691fde06967a39,2021-07-29_23h56.25.633,Simcolourproject_2stim_asymm_v5,2020.2.10,MacIntel,60,61025ae37ef11b136ea224fe,,,,,,,,,3165,-32.57635498,50.64526367,1,0,0,response7disk,,0,-14.45782471,-4.349456787,1,0,0,rectangle,-14.45782471,-4.349456787,1,0,0,-14.45782471,-4.349456787,1,0,0,1,77,237,30,1,,,,,,,,
,,,,,,,,,,,,,FF,,,,,,,,0.3664,,,,,,,,,,,,,,,,,,,,,,60fdee1f5bb38a56c58631bc,610373be6e691fde06967a39,2021-07-29_23h56.25.633,Simcolourproject_2stim_asymm_v5,2020.2.10,MacIntel,60,61025ae37ef11b136ea224fe,,,,,,,,,2327,-21.93328857,49.43380737,1,0,0,response7disk,,0,-9.49987793,7.949768066,1,0,0,rectangle,-9.49987793,7.949768066,1,0,0,-9.49987793,7.949768066,1,0,0,1,78,238,55,1,,,,,,,,
,,,,,,,,,,,,,FF,,,,,,,,0.6675,,,,,,,,,,,,,,,,,,,,,,60fdee1f5bb38a56c58631bc,610373be6e691fde06967a39,2021-07-29_23h56.25.633,Simcolourproject_2stim_asymm_v5,2020.2.10,MacIntel,60,61025ae37ef11b136ea224fe,,,,,,,,,2111,-35.11401367,94.32940674,1,0,0,response7disk,,0,-8.351196289,12.855896,1,0,0,rectangle,47.37298584,-65.14807129,1,0,0,-13.85632324,4.077392578,1,0,0,1,79,239,90,1,,response3disk_3,TRUE,4,4,"[69,189,240,172,36,2,300,51,38,17,160,263,92,288,308,131,128,295,232,18]",1.9483,rectangle
,,,,,,,,,,,,,FF,,,,,,,,0.3678,,,,,,,,,,,,,,,,,,,,,,60fdee1f5bb38a56c58631bc,610373be6e691fde06967a39,2021-07-29_23h56.25.633,Simcolourproject_2stim_asymm_v5,2020.2.10,MacIntel,60,61025ae37ef11b136ea224fe,,,,,,,,,1197,-36.46588135,65.39959717,1,0,0,response7disk,,0,-23.02392578,13.76306152,1,0,0,rectangle,-23.02392578,13.76306152,1,0,0,-23.02392578,13.76306152,1,0,0,1,80,240,87,1,,,,,,,,
