key_resp.keys,key_resp.rt,key_resp_14.keys,key_resp_14.rt,key_resp_15.keys,key_resp_15.rt,key_resp_17.keys,key_resp_17.rt,key_resp_9.keys,key_resp_9.rt,key_resp_10.keys,key_resp_10.rt,practice_comparison,Ecc,mouse_5.x,mouse_5.y,mouse_5.leftButton,mouse_5.midButton,mouse_5.rightButton,mouse_5.clicked_name,pracsimilarity,response_time,mouse_10.x,mouse_10.y,mouse_10.leftButton,mouse_10.midButton,mouse_10.rightButton,mouse_10.clicked_name,mouse_7.x,mouse_7.y,mouse_7.leftButton,mouse_7.midButton,mouse_7.rightButton,mouse_6.x,mouse_6.y,mouse_6.leftButton,mouse_6.midButton,mouse_6.rightButton,duringprac.thisRepN,duringprac.thisTrialN,duringprac.thisN,duringprac.thisIndex,duringprac.ran,participant,session,date,expName,psychopyVersion,OS,frameRate,study_id,mouse_7.clicked_name,catchpracsimilarity,catch_response_time,catchnumberprac,catchtrialorderprac,mouse_6.clicked_name,key_resp_22.keys,key_resp_22.rt,realcomparison,mouse.x,mouse.y,mouse.leftButton,mouse.midButton,mouse.rightButton,mouse.clicked_name,Colour2,similarity,mouse_2.x,mouse_2.y,mouse_2.leftButton,mouse_2.midButton,mouse_2.rightButton,mouse_2.clicked_name,mouse_3.x,mouse_3.y,mouse_3.leftButton,mouse_3.midButton,mouse_3.rightButton,mouse_11.x,mouse_11.y,mouse_11.leftButton,mouse_11.midButton,mouse_11.rightButton,trials_2.thisRepN,trials_2.thisTrialN,trials_2.thisN,trials_2.thisIndex,trials_2.ran,Colour1,mouse_3.clicked_name,catchornah,catchsimilarity,catchnumber,catchtrialorder,catchRT,mouse_11.clicked_name
space,1.414,space,3.846,space,31.289,space,9.514,space,1.673,space,3.905,149,FF,93,-57,1,0,0,response3disk_5,5,13.83,-2,-1,1,0,0,rectangle_8,-2,-1,1,0,0,-2,-1,1,0,0,0,0,0,5,1,60fde06510c492831b1f4a93,610369cb77f10d45e058ca70,2021-07-29_19h54.46.942,Simcolourproject_2stim_asymm_v5,2020.2.10,MacIntel,60,61025ae37ef11b136ea224fe,,,,,,,,,,,,,,,,,,,,,,,,,,,,,,,,,,,,,,,,,,,,,,
,,,,,,,,,,,,138,FF,-44,-106,1,0,0,response5disk_5,3,6.077,-11,0,1,0,0,rectangle_8,49,-94,1,0,0,-8,1,1,0,0,0,1,1,3,1,60fde06510c492831b1f4a93,610369cb77f10d45e058ca70,2021-07-29_19h54.46.942,Simcolourproject_2stim_asymm_v5,2020.2.10,MacIntel,60,61025ae37ef11b136ea224fe,response3disk_7,4,3.6,4,"[2,5]",rectangle_4,,,,,,,,,,,,,,,,,,,,,,,,,,,,,,,,,,,,,,,,
,,,,,,,,,,,,51,FF,-84,-38,1,0,0,response5disk_5,2,3.051,-8,2,1,0,0,rectangle_8,-8,2,1,0,0,-8,2,1,0,0,0,2,2,0,1,60fde06510c492831b1f4a93,610369cb77f10d45e058ca70,2021-07-29_19h54.46.942,Simcolourproject_2stim_asymm_v5,2020.2.10,MacIntel,60,61025ae37ef11b136ea224fe,,,,,,,,,,,,,,,,,,,,,,,,,,,,,,,,,,,,,,,,,,,,,,
,,,,,,,,,,,,44,PF,-44,-93,1,0,0,response5disk_5,3,2.287,-4,3,1,0,0,rectangle_8,-4,3,1,0,0,-4,3,1,0,0,0,3,3,2,1,60fde06510c492831b1f4a93,610369cb77f10d45e058ca70,2021-07-29_19h54.46.942,Simcolourproject_2stim_asymm_v5,2020.2.10,MacIntel,60,61025ae37ef11b136ea224fe,,,,,,,,,,,,,,,,,,,,,,,,,,,,,,,,,,,,,,,,,,,,,,
,,,,,,,,,,,,94,PF,46,-100,1,0,0,response3disk_5,4,4.262,-5,-4,1,0,0,rectangle_8,62,-96,1,0,0,1,-2,1,0,0,0,4,4,4,1,60fde06510c492831b1f4a93,610369cb77f10d45e058ca70,2021-07-29_19h54.46.942,Simcolourproject_2stim_asymm_v5,2020.2.10,MacIntel,60,61025ae37ef11b136ea224fe,response3disk_7,4,3.265,4,"[2,5]",rectangle_4,,,,,,,,,,,,,,,,,,,,,,,,,,,,,,,,,,,,,,,,
,,,,,,,,,,,,16,PF,-87,-41,1,0,0,response5disk_5,2,1.573,0,3,1,0,0,rectangle_8,0,3,1,0,0,0,3,1,0,0,0,5,5,1,1,60fde06510c492831b1f4a93,610369cb77f10d45e058ca70,2021-07-29_19h54.46.942,Simcolourproject_2stim_asymm_v5,2020.2.10,MacIntel,60,61025ae37ef11b136ea224fe,,,,,,,,,,,,,,,,,,,,,,,,,,,,,,,,,,,,,,,,,,,,,,
,,,,,,,,,,,,31,PF,89,-36,1,0,0,response3disk_5,5,4.182,-7,-3,1,0,0,rectangle_8,-7,-3,1,0,0,-7,-3,1,0,0,0,6,6,6,1,60fde06510c492831b1f4a93,610369cb77f10d45e058ca70,2021-07-29_19h54.46.942,Simcolourproject_2stim_asymm_v5,2020.2.10,MacIntel,60,61025ae37ef11b136ea224fe,,,,,,,,,,,,,,,,,,,,,,,,,,,,,,,,,,,,,,,,,,,,,,
,,,,,,,,,,,,,FF,,,,,,,,3.932,,,,,,,,,,,,,,,,,,,,,,60fde06510c492831b1f4a93,610369cb77f10d45e058ca70,2021-07-29_19h54.46.942,Simcolourproject_2stim_asymm_v5,2020.2.10,MacIntel,60,61025ae37ef11b136ea224fe,,,,,,,space,3.22,650,55,-97,1,0,0,response3disk,,4,17,-2,1,0,0,rectangle,17,-2,1,0,0,17,-2,1,0,0,0,0,0,58,1,,,,,,,,
,,,,,,,,,,,,,FF,,,,,,,,2.151,,,,,,,,,,,,,,,,,,,,,,60fde06510c492831b1f4a93,610369cb77f10d45e058ca70,2021-07-29_19h54.46.942,Simcolourproject_2stim_asymm_v5,2020.2.10,MacIntel,60,61025ae37ef11b136ea224fe,,,,,,,,,485,78,58,1,0,0,response1disk,,6,-6,-2,1,0,0,rectangle,-6,-2,1,0,0,-6,-2,1,0,0,0,1,1,110,1,,,,,,,,
,,,,,,,,,,,,,FF,,,,,,,,2.373,,,,,,,,,,,,,,,,,,,,,,60fde06510c492831b1f4a93,610369cb77f10d45e058ca70,2021-07-29_19h54.46.942,Simcolourproject_2stim_asymm_v5,2020.2.10,MacIntel,60,61025ae37ef11b136ea224fe,,,,,,,,,3904,-46,-84,1,0,0,response5disk,,3,-3,-2,1,0,0,rectangle,-3,-2,1,0,0,-3,-2,1,0,0,0,2,2,127,1,,,,,,,,
,,,,,,,,,,,,,FF,,,,,,,,2.326,,,,,,,,,,,,,,,,,,,,,,60fde06510c492831b1f4a93,610369cb77f10d45e058ca70,2021-07-29_19h54.46.942,Simcolourproject_2stim_asymm_v5,2020.2.10,MacIntel,60,61025ae37ef11b136ea224fe,,,,,,,,,4113,47,-86,1,0,0,response3disk,,4,-1,-5,1,0,0,rectangle,-1,-5,1,0,0,-1,-5,1,0,0,0,3,3,87,1,,,,,,,,
,,,,,,,,,,,,,FF,,,,,,,,1.36,,,,,,,,,,,,,,,,,,,,,,60fde06510c492831b1f4a93,610369cb77f10d45e058ca70,2021-07-29_19h54.46.942,Simcolourproject_2stim_asymm_v5,2020.2.10,MacIntel,60,61025ae37ef11b136ea224fe,,,,,,,,,2935,-41,-79,1,0,0,response5disk,,3,-7,-7,1,0,0,rectangle,-7,-7,1,0,0,-7,-7,1,0,0,0,4,4,130,1,,,,,,,,
,,,,,,,,,,,,,FF,,,,,,,,2.67,,,,,,,,,,,,,,,,,,,,,,60fde06510c492831b1f4a93,610369cb77f10d45e058ca70,2021-07-29_19h54.46.942,Simcolourproject_2stim_asymm_v5,2020.2.10,MacIntel,60,61025ae37ef11b136ea224fe,,,,,,,,,1645,82,46,1,0,0,response1disk,,6,-19,-4,1,0,0,rectangle,-19,-4,1,0,0,-19,-4,1,0,0,0,5,5,37,1,,,,,,,,
,,,,,,,,,,,,,FF,,,,,,,,1.017,,,,,,,,,,,,,,,,,,,,,,60fde06510c492831b1f4a93,610369cb77f10d45e058ca70,2021-07-29_19h54.46.942,Simcolourproject_2stim_asymm_v5,2020.2.10,MacIntel,60,61025ae37ef11b136ea224fe,,,,,,,,,2014,93,59,1,0,0,response1disk,,6,0,-10,1,0,0,rectangle,0,-10,1,0,0,0,-10,1,0,0,0,6,6,67,1,,,,,,,,
,,,,,,,,,,,,,FF,,,,,,,,2.92,,,,,,,,,,,,,,,,,,,,,,60fde06510c492831b1f4a93,610369cb77f10d45e058ca70,2021-07-29_19h54.46.942,Simcolourproject_2stim_asymm_v5,2020.2.10,MacIntel,60,61025ae37ef11b136ea224fe,,,,,,,,,2016,-90,-49,1,0,0,response5disk,,2,-13,5,1,0,0,rectangle,-13,5,1,0,0,-13,5,1,0,0,0,7,7,98,1,,,,,,,,
,,,,,,,,,,,,,FF,,,,,,,,1.318,,,,,,,,,,,,,,,,,,,,,,60fde06510c492831b1f4a93,610369cb77f10d45e058ca70,2021-07-29_19h54.46.942,Simcolourproject_2stim_asymm_v5,2020.2.10,MacIntel,60,61025ae37ef11b136ea224fe,,,,,,,,,266,-76,-47,1,0,0,response5disk,,2,-15,-6,1,0,0,rectangle,-15,-6,1,0,0,-15,-6,1,0,0,0,8,8,145,1,,,,,,,,
,,,,,,,,,,,,,FF,,,,,,,,2.606,,,,,,,,,,,,,,,,,,,,,,60fde06510c492831b1f4a93,610369cb77f10d45e058ca70,2021-07-29_19h54.46.942,Simcolourproject_2stim_asymm_v5,2020.2.10,MacIntel,60,61025ae37ef11b136ea224fe,,,,,,,,,3424,-47,-79,1,0,0,response5disk,,3,-5,10,1,0,0,rectangle,-5,10,1,0,0,-5,10,1,0,0,0,9,9,157,1,,,,,,,,
,,,,,,,,,,,,,FF,,,,,,,,1.817,,,,,,,,,,,,,,,,,,,,,,60fde06510c492831b1f4a93,610369cb77f10d45e058ca70,2021-07-29_19h54.46.942,Simcolourproject_2stim_asymm_v5,2020.2.10,MacIntel,60,61025ae37ef11b136ea224fe,,,,,,,,,1603,-96,57,1,0,0,response7disk,,1,-19,8,1,0,0,rectangle,-19,8,1,0,0,-19,8,1,0,0,0,10,10,84,1,,,,,,,,
,,,,,,,,,,,,,FF,,,,,,,,1.956,,,,,,,,,,,,,,,,,,,,,,60fde06510c492831b1f4a93,610369cb77f10d45e058ca70,2021-07-29_19h54.46.942,Simcolourproject_2stim_asymm_v5,2020.2.10,MacIntel,60,61025ae37ef11b136ea224fe,,,,,,,,,3690,57,-98,1,0,0,response3disk,,4,-15,0,1,0,0,rectangle,-15,0,1,0,0,-15,0,1,0,0,0,11,11,158,1,,,,,,,,
,,,,,,,,,,,,,FF,,,,,,,,1.36,,,,,,,,,,,,,,,,,,,,,,60fde06510c492831b1f4a93,610369cb77f10d45e058ca70,2021-07-29_19h54.46.942,Simcolourproject_2stim_asymm_v5,2020.2.10,MacIntel,60,61025ae37ef11b136ea224fe,,,,,,,,,4259,78,-60,1,0,0,response3disk,,5,-10,0,1,0,0,rectangle,-10,0,1,0,0,-10,0,1,0,0,0,12,12,94,1,,,,,,,,
,,,,,,,,,,,,,FF,,,,,,,,1.445,,,,,,,,,,,,,,,,,,,,,,60fde06510c492831b1f4a93,610369cb77f10d45e058ca70,2021-07-29_19h54.46.942,Simcolourproject_2stim_asymm_v5,2020.2.10,MacIntel,60,61025ae37ef11b136ea224fe,,,,,,,,,2653,-46,-84,1,0,0,response5disk,,3,-7,8,1,0,0,rectangle,-7,8,1,0,0,-7,8,1,0,0,0,13,13,77,1,,,,,,,,
,,,,,,,,,,,,,FF,,,,,,,,1.672,,,,,,,,,,,,,,,,,,,,,,60fde06510c492831b1f4a93,610369cb77f10d45e058ca70,2021-07-29_19h54.46.942,Simcolourproject_2stim_asymm_v5,2020.2.10,MacIntel,60,61025ae37ef11b136ea224fe,,,,,,,,,2464,68,35,1,0,0,response1disk,,6,7,6,1,0,0,rectangle,7,6,1,0,0,7,6,1,0,0,0,14,14,83,1,,,,,,,,
,,,,,,,,,,,,,FF,,,,,,,,1.016,,,,,,,,,,,,,,,,,,,,,,60fde06510c492831b1f4a93,610369cb77f10d45e058ca70,2021-07-29_19h54.46.942,Simcolourproject_2stim_asymm_v5,2020.2.10,MacIntel,60,61025ae37ef11b136ea224fe,,,,,,,,,4346,-114,-60,1,0,0,response5disk,,2,-12,0,1,0,0,rectangle,-12,0,1,0,0,-12,0,1,0,0,0,15,15,114,1,,,,,,,,
,,,,,,,,,,,,,FF,,,,,,,,3.203,,,,,,,,,,,,,,,,,,,,,,60fde06510c492831b1f4a93,610369cb77f10d45e058ca70,2021-07-29_19h54.46.942,Simcolourproject_2stim_asymm_v5,2020.2.10,MacIntel,60,61025ae37ef11b136ea224fe,,,,,,,,,3103,-79,-42,1,0,0,response5disk,,2,0,6,1,0,0,rectangle,35,-102,1,0,0,-10,-7,1,0,0,0,16,16,8,1,,response3disk_3,TRUE,4,4,"[233,223,237,19,274,277,17,257,74,31,78,223,98,74,258,220,150,274,105,174]",1.769,rectangle
,,,,,,,,,,,,,FF,,,,,,,,2.218,,,,,,,,,,,,,,,,,,,,,,60fde06510c492831b1f4a93,610369cb77f10d45e058ca70,2021-07-29_19h54.46.942,Simcolourproject_2stim_asymm_v5,2020.2.10,MacIntel,60,61025ae37ef11b136ea224fe,,,,,,,,,776,80,-58,1,0,0,response3disk,,5,2,-5,1,0,0,rectangle,2,-5,1,0,0,2,-5,1,0,0,0,17,17,126,1,,,,,,,,
,,,,,,,,,,,,,FF,,,,,,,,2.789,,,,,,,,,,,,,,,,,,,,,,60fde06510c492831b1f4a93,610369cb77f10d45e058ca70,2021-07-29_19h54.46.942,Simcolourproject_2stim_asymm_v5,2020.2.10,MacIntel,60,61025ae37ef11b136ea224fe,,,,,,,,,1104,72,93,1,0,0,response1disk,,7,-12,6,1,0,0,rectangle,-99,40,1,0,0,18,-2,1,0,0,0,18,18,154,1,,response7disk_3,TRUE,1,1,"[233,223,237,19,274,277,17,257,74,31,78,223,98,74,258,220,150,274,105,174]",1.608,rectangle
,,,,,,,,,,,,,FF,,,,,,,,1.108,,,,,,,,,,,,,,,,,,,,,,60fde06510c492831b1f4a93,610369cb77f10d45e058ca70,2021-07-29_19h54.46.942,Simcolourproject_2stim_asymm_v5,2020.2.10,MacIntel,60,61025ae37ef11b136ea224fe,,,,,,,,,1807,-38,-77,1,0,0,response5disk,,3,4,-2,1,0,0,rectangle,4,-2,1,0,0,4,-2,1,0,0,0,19,19,53,1,,,,,,,,
,,,,,,,,,,,,,FF,,,,,,,,3.576,,,,,,,,,,,,,,,,,,,,,,60fde06510c492831b1f4a93,610369cb77f10d45e058ca70,2021-07-29_19h54.46.942,Simcolourproject_2stim_asymm_v5,2020.2.10,MacIntel,60,61025ae37ef11b136ea224fe,,,,,,,,,289,52,-80,1,0,0,response3disk,,4,-6,5,1,0,0,rectangle,-6,5,1,0,0,-6,5,1,0,0,0,20,20,18,1,,,,,,,,
,,,,,,,,,,,,,FF,,,,,,,,1.652,,,,,,,,,,,,,,,,,,,,,,60fde06510c492831b1f4a93,610369cb77f10d45e058ca70,2021-07-29_19h54.46.942,Simcolourproject_2stim_asymm_v5,2020.2.10,MacIntel,60,61025ae37ef11b136ea224fe,,,,,,,,,483,31,-71,1,0,0,response3disk,,4,-15,4,1,0,0,rectangle,-15,4,1,0,0,-15,4,1,0,0,0,21,21,95,1,,,,,,,,
,,,,,,,,,,,,,FF,,,,,,,,3.376,,,,,,,,,,,,,,,,,,,,,,60fde06510c492831b1f4a93,610369cb77f10d45e058ca70,2021-07-29_19h54.46.942,Simcolourproject_2stim_asymm_v5,2020.2.10,MacIntel,60,61025ae37ef11b136ea224fe,,,,,,,,,1864,48,81,1,0,0,response1disk,,7,4,-17,1,0,0,rectangle,4,-17,1,0,0,4,-17,1,0,0,0,22,22,0,1,,,,,,,,
,,,,,,,,,,,,,FF,,,,,,,,2.916,,,,,,,,,,,,,,,,,,,,,,60fde06510c492831b1f4a93,610369cb77f10d45e058ca70,2021-07-29_19h54.46.942,Simcolourproject_2stim_asymm_v5,2020.2.10,MacIntel,60,61025ae37ef11b136ea224fe,,,,,,,,,2438,85,-50,1,0,0,response3disk,,5,-5,-7,1,0,0,rectangle,-5,-7,1,0,0,-5,-7,1,0,0,0,23,23,109,1,,,,,,,,
,,,,,,,,,,,,,FF,,,,,,,,1.512,,,,,,,,,,,,,,,,,,,,,,60fde06510c492831b1f4a93,610369cb77f10d45e058ca70,2021-07-29_19h54.46.942,Simcolourproject_2stim_asymm_v5,2020.2.10,MacIntel,60,61025ae37ef11b136ea224fe,,,,,,,,,596,90,58,1,0,0,response1disk,,6,16,3,1,0,0,rectangle,16,3,1,0,0,16,3,1,0,0,0,24,24,63,1,,,,,,,,
,,,,,,,,,,,,,FF,,,,,,,,1.245,,,,,,,,,,,,,,,,,,,,,,60fde06510c492831b1f4a93,610369cb77f10d45e058ca70,2021-07-29_19h54.46.942,Simcolourproject_2stim_asymm_v5,2020.2.10,MacIntel,60,61025ae37ef11b136ea224fe,,,,,,,,,70,-89,-44,1,0,0,response5disk,,2,-11,9,1,0,0,rectangle,-11,9,1,0,0,-11,9,1,0,0,0,25,25,12,1,,,,,,,,
,,,,,,,,,,,,,FF,,,,,,,,2.233,,,,,,,,,,,,,,,,,,,,,,60fde06510c492831b1f4a93,610369cb77f10d45e058ca70,2021-07-29_19h54.46.942,Simcolourproject_2stim_asymm_v5,2020.2.10,MacIntel,60,61025ae37ef11b136ea224fe,,,,,,,,,1404,97,-45,1,0,0,response3disk,,5,-3,-4,1,0,0,rectangle,-3,-4,1,0,0,-3,-4,1,0,0,0,26,26,118,1,,,,,,,,
,,,,,,,,,,,,,FF,,,,,,,,1.899,,,,,,,,,,,,,,,,,,,,,,60fde06510c492831b1f4a93,610369cb77f10d45e058ca70,2021-07-29_19h54.46.942,Simcolourproject_2stim_asymm_v5,2020.2.10,MacIntel,60,61025ae37ef11b136ea224fe,,,,,,,,,937,87,46,1,0,0,response1disk,,6,3,-3,1,0,0,rectangle,3,-3,1,0,0,3,-3,1,0,0,0,27,27,71,1,,,,,,,,
,,,,,,,,,,,,,FF,,,,,,,,1.981,,,,,,,,,,,,,,,,,,,,,,60fde06510c492831b1f4a93,610369cb77f10d45e058ca70,2021-07-29_19h54.46.942,Simcolourproject_2stim_asymm_v5,2020.2.10,MacIntel,60,61025ae37ef11b136ea224fe,,,,,,,,,1023,89,42,1,0,0,response1disk,,6,-18,2,1,0,0,rectangle,-18,2,1,0,0,-18,2,1,0,0,0,28,28,139,1,,,,,,,,
,,,,,,,,,,,,,FF,,,,,,,,3.764,,,,,,,,,,,,,,,,,,,,,,60fde06510c492831b1f4a93,610369cb77f10d45e058ca70,2021-07-29_19h54.46.942,Simcolourproject_2stim_asymm_v5,2020.2.10,MacIntel,60,61025ae37ef11b136ea224fe,,,,,,,,,2467,93,-32,1,0,0,response3disk,,5,21,3,1,0,0,rectangle,21,3,1,0,0,21,3,1,0,0,0,29,29,20,1,,,,,,,,
,,,,,,,,,,,,,FF,,,,,,,,1.567,,,,,,,,,,,,,,,,,,,,,,60fde06510c492831b1f4a93,610369cb77f10d45e058ca70,2021-07-29_19h54.46.942,Simcolourproject_2stim_asymm_v5,2020.2.10,MacIntel,60,61025ae37ef11b136ea224fe,,,,,,,,,2843,-43,-90,1,0,0,response5disk,,3,-8,0,1,0,0,rectangle,-38,-100,1,0,0,-2,-2,1,0,0,0,30,30,156,1,,response5disk_3,TRUE,3,3,"[233,223,237,19,274,277,17,257,74,31,78,223,98,74,258,220,150,274,105,174]",2.094,rectangle
,,,,,,,,,,,,,FF,,,,,,,,1.164,,,,,,,,,,,,,,,,,,,,,,60fde06510c492831b1f4a93,610369cb77f10d45e058ca70,2021-07-29_19h54.46.942,Simcolourproject_2stim_asymm_v5,2020.2.10,MacIntel,60,61025ae37ef11b136ea224fe,,,,,,,,,1954,-73,-41,1,0,0,response5disk,,2,-6,-4,1,0,0,rectangle,-6,-4,1,0,0,-6,-4,1,0,0,0,31,31,119,1,,,,,,,,
,,,,,,,,,,,,,FF,,,,,,,,1.065,,,,,,,,,,,,,,,,,,,,,,60fde06510c492831b1f4a93,610369cb77f10d45e058ca70,2021-07-29_19h54.46.942,Simcolourproject_2stim_asymm_v5,2020.2.10,MacIntel,60,61025ae37ef11b136ea224fe,,,,,,,,,2171,-90,-29,1,0,0,response5disk,,2,-9,6,1,0,0,rectangle,-9,6,1,0,0,-9,6,1,0,0,0,32,32,70,1,,,,,,,,
,,,,,,,,,,,,,FF,,,,,,,,1.106,,,,,,,,,,,,,,,,,,,,,,60fde06510c492831b1f4a93,610369cb77f10d45e058ca70,2021-07-29_19h54.46.942,Simcolourproject_2stim_asymm_v5,2020.2.10,MacIntel,60,61025ae37ef11b136ea224fe,,,,,,,,,590,76,58,1,0,0,response1disk,,6,15,8,1,0,0,rectangle,15,8,1,0,0,15,8,1,0,0,0,33,33,28,1,,,,,,,,
,,,,,,,,,,,,,FF,,,,,,,,1.579,,,,,,,,,,,,,,,,,,,,,,60fde06510c492831b1f4a93,610369cb77f10d45e058ca70,2021-07-29_19h54.46.942,Simcolourproject_2stim_asymm_v5,2020.2.10,MacIntel,60,61025ae37ef11b136ea224fe,,,,,,,,,220,83,-39,1,0,0,response3disk,,5,14,7,1,0,0,rectangle,14,7,1,0,0,14,7,1,0,0,0,34,34,102,1,,,,,,,,
,,,,,,,,,,,,,FF,,,,,,,,1.746,,,,,,,,,,,,,,,,,,,,,,60fde06510c492831b1f4a93,610369cb77f10d45e058ca70,2021-07-29_19h54.46.942,Simcolourproject_2stim_asymm_v5,2020.2.10,MacIntel,60,61025ae37ef11b136ea224fe,,,,,,,,,2232,-91,-44,1,0,0,response5disk,,2,-25,-3,1,0,0,rectangle,-25,-3,1,0,0,-25,-3,1,0,0,0,35,35,92,1,,,,,,,,
,,,,,,,,,,,,,FF,,,,,,,,1.37,,,,,,,,,,,,,,,,,,,,,,60fde06510c492831b1f4a93,610369cb77f10d45e058ca70,2021-07-29_19h54.46.942,Simcolourproject_2stim_asymm_v5,2020.2.10,MacIntel,60,61025ae37ef11b136ea224fe,,,,,,,,,2878,-79,-31,1,0,0,response5disk,,2,-10,-10,1,0,0,rectangle,-10,-10,1,0,0,-10,-10,1,0,0,0,36,36,96,1,,,,,,,,
,,,,,,,,,,,,,FF,,,,,,,,0.849,,,,,,,,,,,,,,,,,,,,,,60fde06510c492831b1f4a93,610369cb77f10d45e058ca70,2021-07-29_19h54.46.942,Simcolourproject_2stim_asymm_v5,2020.2.10,MacIntel,60,61025ae37ef11b136ea224fe,,,,,,,,,442,-80,24,1,0,0,response7disk,,1,-11,-4,1,0,0,rectangle,-11,-4,1,0,0,-11,-4,1,0,0,0,37,37,78,1,,,,,,,,
,,,,,,,,,,,,,FF,,,,,,,,0.833,,,,,,,,,,,,,,,,,,,,,,60fde06510c492831b1f4a93,610369cb77f10d45e058ca70,2021-07-29_19h54.46.942,Simcolourproject_2stim_asymm_v5,2020.2.10,MacIntel,60,61025ae37ef11b136ea224fe,,,,,,,,,3202,-93,43,1,0,0,response7disk,,1,-15,0,1,0,0,rectangle,-15,0,1,0,0,-15,0,1,0,0,0,38,38,42,1,,,,,,,,
,,,,,,,,,,,,,FF,,,,,,,,1.281,,,,,,,,,,,,,,,,,,,,,,60fde06510c492831b1f4a93,610369cb77f10d45e058ca70,2021-07-29_19h54.46.942,Simcolourproject_2stim_asymm_v5,2020.2.10,MacIntel,60,61025ae37ef11b136ea224fe,,,,,,,,,844,98,-58,1,0,0,response3disk,,5,6,-9,1,0,0,rectangle,6,-9,1,0,0,6,-9,1,0,0,0,39,39,136,1,,,,,,,,
,,,,,,,,,,,,,FF,,,,,,,,1.896,,,,,,,,,,,,,,,,,,,,,,60fde06510c492831b1f4a93,610369cb77f10d45e058ca70,2021-07-29_19h54.46.942,Simcolourproject_2stim_asymm_v5,2020.2.10,MacIntel,60,61025ae37ef11b136ea224fe,,,,,,,,,3289,92,46,1,0,0,response1disk,,6,7,5,1,0,0,rectangle,7,5,1,0,0,7,5,1,0,0,0,40,40,16,1,,,,,,,,
,,,,,,,,,,,,,FF,,,,,,,,1.711,,,,,,,,,,,,,,,,,,,,,,60fde06510c492831b1f4a93,610369cb77f10d45e058ca70,2021-07-29_19h54.46.942,Simcolourproject_2stim_asymm_v5,2020.2.10,MacIntel,60,61025ae37ef11b136ea224fe,,,,,,,,,1806,-79,-43,1,0,0,response5disk,,2,-8,-6,1,0,0,rectangle,-8,-6,1,0,0,-8,-6,1,0,0,0,41,41,35,1,,,,,,,,
,,,,,,,,,,,,,FF,,,,,,,,2.969,,,,,,,,,,,,,,,,,,,,,,60fde06510c492831b1f4a93,610369cb77f10d45e058ca70,2021-07-29_19h54.46.942,Simcolourproject_2stim_asymm_v5,2020.2.10,MacIntel,60,61025ae37ef11b136ea224fe,,,,,,,,,2921,85,41,1,0,0,response1disk,,6,14,7,1,0,0,rectangle,14,7,1,0,0,14,7,1,0,0,0,42,42,14,1,,,,,,,,
,,,,,,,,,,,,,FF,,,,,,,,4.443,,,,,,,,,,,,,,,,,,,,,,60fde06510c492831b1f4a93,610369cb77f10d45e058ca70,2021-07-29_19h54.46.942,Simcolourproject_2stim_asymm_v5,2020.2.10,MacIntel,60,61025ae37ef11b136ea224fe,,,,,,,,,4061,-51,-78,1,0,0,response5disk,,3,0,-2,1,0,0,rectangle,0,-2,1,0,0,0,-2,1,0,0,0,43,43,41,1,,,,,,,,
,,,,,,,,,,,,,FF,,,,,,,,1.883,,,,,,,,,,,,,,,,,,,,,,60fde06510c492831b1f4a93,610369cb77f10d45e058ca70,2021-07-29_19h54.46.942,Simcolourproject_2stim_asymm_v5,2020.2.10,MacIntel,60,61025ae37ef11b136ea224fe,,,,,,,,,1414,38,-82,1,0,0,response3disk,,4,-15,13,1,0,0,rectangle,-15,13,1,0,0,-15,13,1,0,0,0,44,44,151,1,,,,,,,,
,,,,,,,,,,,,,FF,,,,,,,,1.418,,,,,,,,,,,,,,,,,,,,,,60fde06510c492831b1f4a93,610369cb77f10d45e058ca70,2021-07-29_19h54.46.942,Simcolourproject_2stim_asymm_v5,2020.2.10,MacIntel,60,61025ae37ef11b136ea224fe,,,,,,,,,1031,54,-92,1,0,0,response3disk,,4,-4,0,1,0,0,rectangle,-4,0,1,0,0,-4,0,1,0,0,0,45,45,149,1,,,,,,,,
,,,,,,,,,,,,,FF,,,,,,,,2.301,,,,,,,,,,,,,,,,,,,,,,60fde06510c492831b1f4a93,610369cb77f10d45e058ca70,2021-07-29_19h54.46.942,Simcolourproject_2stim_asymm_v5,2020.2.10,MacIntel,60,61025ae37ef11b136ea224fe,,,,,,,,,3521,-76,-41,1,0,0,response5disk,,2,-12,8,1,0,0,rectangle,-12,8,1,0,0,-12,8,1,0,0,0,46,46,121,1,,,,,,,,
,,,,,,,,,,,,,FF,,,,,,,,1.144,,,,,,,,,,,,,,,,,,,,,,60fde06510c492831b1f4a93,610369cb77f10d45e058ca70,2021-07-29_19h54.46.942,Simcolourproject_2stim_asymm_v5,2020.2.10,MacIntel,60,61025ae37ef11b136ea224fe,,,,,,,,,3717,97,-35,1,0,0,response3disk,,5,14,-8,1,0,0,rectangle,14,-8,1,0,0,14,-8,1,0,0,0,47,47,27,1,,,,,,,,
,,,,,,,,,,,,,FF,,,,,,,,1.942,,,,,,,,,,,,,,,,,,,,,,60fde06510c492831b1f4a93,610369cb77f10d45e058ca70,2021-07-29_19h54.46.942,Simcolourproject_2stim_asymm_v5,2020.2.10,MacIntel,60,61025ae37ef11b136ea224fe,,,,,,,,,3331,-107,34,1,0,0,response7disk,,1,-15,-2,1,0,0,rectangle,-15,-2,1,0,0,-15,-2,1,0,0,0,48,48,56,1,,,,,,,,
,,,,,,,,,,,,,FF,,,,,,,,2.446,,,,,,,,,,,,,,,,,,,,,,60fde06510c492831b1f4a93,610369cb77f10d45e058ca70,2021-07-29_19h54.46.942,Simcolourproject_2stim_asymm_v5,2020.2.10,MacIntel,60,61025ae37ef11b136ea224fe,,,,,,,,,593,102,41,1,0,0,response1disk,,6,1,-9,1,0,0,rectangle,1,-9,1,0,0,1,-9,1,0,0,0,49,49,124,1,,,,,,,,
,,,,,,,,,,,,,FF,,,,,,,,1.777,,,,,,,,,,,,,,,,,,,,,,60fde06510c492831b1f4a93,610369cb77f10d45e058ca70,2021-07-29_19h54.46.942,Simcolourproject_2stim_asymm_v5,2020.2.10,MacIntel,60,61025ae37ef11b136ea224fe,,,,,,,,,1791,50,76,1,0,0,response1disk,,7,-3,-1,1,0,0,rectangle,-3,-1,1,0,0,-3,-1,1,0,0,0,50,50,11,1,,,,,,,,
,,,,,,,,,,,,,FF,,,,,,,,1.655,,,,,,,,,,,,,,,,,,,,,,60fde06510c492831b1f4a93,610369cb77f10d45e058ca70,2021-07-29_19h54.46.942,Simcolourproject_2stim_asymm_v5,2020.2.10,MacIntel,60,61025ae37ef11b136ea224fe,,,,,,,,,3664,-110,47,1,0,0,response7disk,,1,-5,2,1,0,0,rectangle,-5,2,1,0,0,-5,2,1,0,0,0,51,51,107,1,,,,,,,,
,,,,,,,,,,,,,FF,,,,,,,,1.078,,,,,,,,,,,,,,,,,,,,,,60fde06510c492831b1f4a93,610369cb77f10d45e058ca70,2021-07-29_19h54.46.942,Simcolourproject_2stim_asymm_v5,2020.2.10,MacIntel,60,61025ae37ef11b136ea224fe,,,,,,,,,2887,-89,40,1,0,0,response7disk,,1,-15,3,1,0,0,rectangle,-15,3,1,0,0,-15,3,1,0,0,0,52,52,88,1,,,,,,,,
,,,,,,,,,,,,,FF,,,,,,,,1.038,,,,,,,,,,,,,,,,,,,,,,60fde06510c492831b1f4a93,610369cb77f10d45e058ca70,2021-07-29_19h54.46.942,Simcolourproject_2stim_asymm_v5,2020.2.10,MacIntel,60,61025ae37ef11b136ea224fe,,,,,,,,,2777,-95,39,1,0,0,response7disk,,1,-5,6,1,0,0,rectangle,-5,6,1,0,0,-5,6,1,0,0,0,53,53,152,1,,,,,,,,
,,,,,,,,,,,,,FF,,,,,,,,1.586,,,,,,,,,,,,,,,,,,,,,,60fde06510c492831b1f4a93,610369cb77f10d45e058ca70,2021-07-29_19h54.46.942,Simcolourproject_2stim_asymm_v5,2020.2.10,MacIntel,60,61025ae37ef11b136ea224fe,,,,,,,,,2810,48,-110,1,0,0,response3disk,,4,-14,-1,1,0,0,rectangle,-14,-1,1,0,0,-14,-1,1,0,0,0,54,54,115,1,,,,,,,,
,,,,,,,,,,,,,FF,,,,,,,,2.155,,,,,,,,,,,,,,,,,,,,,,60fde06510c492831b1f4a93,610369cb77f10d45e058ca70,2021-07-29_19h54.46.942,Simcolourproject_2stim_asymm_v5,2020.2.10,MacIntel,60,61025ae37ef11b136ea224fe,,,,,,,,,711,39,-103,1,0,0,response3disk,,4,-17,-7,1,0,0,rectangle,-17,-7,1,0,0,-17,-7,1,0,0,0,55,55,5,1,,,,,,,,
,,,,,,,,,,,,,FF,,,,,,,,3.237,,,,,,,,,,,,,,,,,,,,,,60fde06510c492831b1f4a93,610369cb77f10d45e058ca70,2021-07-29_19h54.46.942,Simcolourproject_2stim_asymm_v5,2020.2.10,MacIntel,60,61025ae37ef11b136ea224fe,,,,,,,,,1337,75,-41,1,0,0,response3disk,,5,-2,-3,1,0,0,rectangle,-2,-3,1,0,0,-2,-3,1,0,0,0,56,56,1,1,,,,,,,,
,,,,,,,,,,,,,FF,,,,,,,,1.12,,,,,,,,,,,,,,,,,,,,,,60fde06510c492831b1f4a93,610369cb77f10d45e058ca70,2021-07-29_19h54.46.942,Simcolourproject_2stim_asymm_v5,2020.2.10,MacIntel,60,61025ae37ef11b136ea224fe,,,,,,,,,2117,84,43,1,0,0,response1disk,,6,20,-1,1,0,0,rectangle,20,-1,1,0,0,20,-1,1,0,0,0,57,57,81,1,,,,,,,,
,,,,,,,,,,,,,FF,,,,,,,,1.68,,,,,,,,,,,,,,,,,,,,,,60fde06510c492831b1f4a93,610369cb77f10d45e058ca70,2021-07-29_19h54.46.942,Simcolourproject_2stim_asymm_v5,2020.2.10,MacIntel,60,61025ae37ef11b136ea224fe,,,,,,,,,4334,59,79,1,0,0,response1disk,,7,2,4,1,0,0,rectangle,2,4,1,0,0,2,4,1,0,0,0,58,58,33,1,,,,,,,,
,,,,,,,,,,,,,FF,,,,,,,,1.62,,,,,,,,,,,,,,,,,,,,,,60fde06510c492831b1f4a93,610369cb77f10d45e058ca70,2021-07-29_19h54.46.942,Simcolourproject_2stim_asymm_v5,2020.2.10,MacIntel,60,61025ae37ef11b136ea224fe,,,,,,,,,1941,87,-50,1,0,0,response3disk,,5,-7,5,1,0,0,rectangle,-7,5,1,0,0,-7,5,1,0,0,0,59,59,7,1,,,,,,,,
,,,,,,,,,,,,,FF,,,,,,,,1.204,,,,,,,,,,,,,,,,,,,,,,60fde06510c492831b1f4a93,610369cb77f10d45e058ca70,2021-07-29_19h54.46.942,Simcolourproject_2stim_asymm_v5,2020.2.10,MacIntel,60,61025ae37ef11b136ea224fe,,,,,,,,,2606,-73,-52,1,0,0,response5disk,,2,-12,5,1,0,0,rectangle,-12,5,1,0,0,-12,5,1,0,0,0,60,60,59,1,,,,,,,,
,,,,,,,,,,,,,FF,,,,,,,,1.885,,,,,,,,,,,,,,,,,,,,,,60fde06510c492831b1f4a93,610369cb77f10d45e058ca70,2021-07-29_19h54.46.942,Simcolourproject_2stim_asymm_v5,2020.2.10,MacIntel,60,61025ae37ef11b136ea224fe,,,,,,,,,1720,93,59,1,0,0,response1disk,,6,9,0,1,0,0,rectangle,9,0,1,0,0,9,0,1,0,0,0,61,61,133,1,,,,,,,,
,,,,,,,,,,,,,FF,,,,,,,,1.958,,,,,,,,,,,,,,,,,,,,,,60fde06510c492831b1f4a93,610369cb77f10d45e058ca70,2021-07-29_19h54.46.942,Simcolourproject_2stim_asymm_v5,2020.2.10,MacIntel,60,61025ae37ef11b136ea224fe,,,,,,,,,2338,69,-31,1,0,0,response3disk,,5,-15,6,1,0,0,rectangle,-15,6,1,0,0,-15,6,1,0,0,0,62,62,4,1,,,,,,,,
,,,,,,,,,,,,,FF,,,,,,,,0.884,,,,,,,,,,,,,,,,,,,,,,60fde06510c492831b1f4a93,610369cb77f10d45e058ca70,2021-07-29_19h54.46.942,Simcolourproject_2stim_asymm_v5,2020.2.10,MacIntel,60,61025ae37ef11b136ea224fe,,,,,,,,,506,28,-95,1,0,0,response3disk,,4,24,5,1,0,0,rectangle,24,5,1,0,0,24,5,1,0,0,0,63,63,135,1,,,,,,,,
,,,,,,,,,,,,,FF,,,,,,,,1.69,,,,,,,,,,,,,,,,,,,,,,60fde06510c492831b1f4a93,610369cb77f10d45e058ca70,2021-07-29_19h54.46.942,Simcolourproject_2stim_asymm_v5,2020.2.10,MacIntel,60,61025ae37ef11b136ea224fe,,,,,,,,,2607,-81,38,1,0,0,response7disk,,1,-12,1,1,0,0,rectangle,-12,1,1,0,0,-12,1,1,0,0,0,64,64,62,1,,,,,,,,
,,,,,,,,,,,,,FF,,,,,,,,0.849,,,,,,,,,,,,,,,,,,,,,,60fde06510c492831b1f4a93,610369cb77f10d45e058ca70,2021-07-29_19h54.46.942,Simcolourproject_2stim_asymm_v5,2020.2.10,MacIntel,60,61025ae37ef11b136ea224fe,,,,,,,,,3503,-70,33,1,0,0,response7disk,,1,-12,0,1,0,0,rectangle,-12,0,1,0,0,-12,0,1,0,0,0,65,65,113,1,,,,,,,,
,,,,,,,,,,,,,FF,,,,,,,,0.958,,,,,,,,,,,,,,,,,,,,,,60fde06510c492831b1f4a93,610369cb77f10d45e058ca70,2021-07-29_19h54.46.942,Simcolourproject_2stim_asymm_v5,2020.2.10,MacIntel,60,61025ae37ef11b136ea224fe,,,,,,,,,3174,105,-57,1,0,0,response3disk,,5,-12,11,1,0,0,rectangle,-12,11,1,0,0,-12,11,1,0,0,0,66,66,26,1,,,,,,,,
,,,,,,,,,,,,,FF,,,,,,,,0.785,,,,,,,,,,,,,,,,,,,,,,60fde06510c492831b1f4a93,610369cb77f10d45e058ca70,2021-07-29_19h54.46.942,Simcolourproject_2stim_asymm_v5,2020.2.10,MacIntel,60,61025ae37ef11b136ea224fe,,,,,,,,,2892,-83,48,1,0,0,response7disk,,1,-18,-6,1,0,0,rectangle,-18,-6,1,0,0,-18,-6,1,0,0,0,67,67,3,1,,,,,,,,
,,,,,,,,,,,,,FF,,,,,,,,1.234,,,,,,,,,,,,,,,,,,,,,,60fde06510c492831b1f4a93,610369cb77f10d45e058ca70,2021-07-29_19h54.46.942,Simcolourproject_2stim_asymm_v5,2020.2.10,MacIntel,60,61025ae37ef11b136ea224fe,,,,,,,,,2790,-70,-31,1,0,0,response5disk,,2,-11,-8,1,0,0,rectangle,-11,-8,1,0,0,-11,-8,1,0,0,0,68,68,150,1,,,,,,,,
,,,,,,,,,,,,,FF,,,,,,,,1.043,,,,,,,,,,,,,,,,,,,,,,60fde06510c492831b1f4a93,610369cb77f10d45e058ca70,2021-07-29_19h54.46.942,Simcolourproject_2stim_asymm_v5,2020.2.10,MacIntel,60,61025ae37ef11b136ea224fe,,,,,,,,,449,88,28,1,0,0,response1disk,,6,23,-1,1,0,0,rectangle,23,-1,1,0,0,23,-1,1,0,0,0,69,69,73,1,,,,,,,,
,,,,,,,,,,,,,FF,,,,,,,,1.051,,,,,,,,,,,,,,,,,,,,,,60fde06510c492831b1f4a93,610369cb77f10d45e058ca70,2021-07-29_19h54.46.942,Simcolourproject_2stim_asymm_v5,2020.2.10,MacIntel,60,61025ae37ef11b136ea224fe,,,,,,,,,3074,60,84,1,0,0,response1disk,,7,15,7,1,0,0,rectangle,15,7,1,0,0,15,7,1,0,0,0,70,70,15,1,,,,,,,,
,,,,,,,,,,,,,FF,,,,,,,,4.037,,,,,,,,,,,,,,,,,,,,,,60fde06510c492831b1f4a93,610369cb77f10d45e058ca70,2021-07-29_19h54.46.942,Simcolourproject_2stim_asymm_v5,2020.2.10,MacIntel,60,61025ae37ef11b136ea224fe,,,,,,,,,627,100,48,1,0,0,response1disk,,6,-15,-8,1,0,0,rectangle,-15,-8,1,0,0,-15,-8,1,0,0,0,71,71,68,1,,,,,,,,
,,,,,,,,,,,,,FF,,,,,,,,2.415,,,,,,,,,,,,,,,,,,,,,,60fde06510c492831b1f4a93,610369cb77f10d45e058ca70,2021-07-29_19h54.46.942,Simcolourproject_2stim_asymm_v5,2020.2.10,MacIntel,60,61025ae37ef11b136ea224fe,,,,,,,,,199,29,-90,1,0,0,response3disk,,4,-10,6,1,0,0,rectangle,-10,6,1,0,0,-10,6,1,0,0,0,72,72,120,1,,,,,,,,
,,,,,,,,,,,,,FF,,,,,,,,1.042,,,,,,,,,,,,,,,,,,,,,,60fde06510c492831b1f4a93,610369cb77f10d45e058ca70,2021-07-29_19h54.46.942,Simcolourproject_2stim_asymm_v5,2020.2.10,MacIntel,60,61025ae37ef11b136ea224fe,,,,,,,,,3390,-111,52,1,0,0,response7disk,,1,-5,1,1,0,0,rectangle,-31,89,1,0,0,4,8,1,0,0,0,73,73,140,1,,response7disk_3,TRUE,0,0,"[233,223,237,19,274,277,17,257,74,31,78,223,98,74,258,220,150,274,105,174]",1.54,rectangle
,,,,,,,,,,,,,FF,,,,,,,,1.117,,,,,,,,,,,,,,,,,,,,,,60fde06510c492831b1f4a93,610369cb77f10d45e058ca70,2021-07-29_19h54.46.942,Simcolourproject_2stim_asymm_v5,2020.2.10,MacIntel,60,61025ae37ef11b136ea224fe,,,,,,,,,3048,-87,34,1,0,0,response7disk,,1,-19,5,1,0,0,rectangle,-19,5,1,0,0,-19,5,1,0,0,0,74,74,97,1,,,,,,,,
,,,,,,,,,,,,,FF,,,,,,,,1.871,,,,,,,,,,,,,,,,,,,,,,60fde06510c492831b1f4a93,610369cb77f10d45e058ca70,2021-07-29_19h54.46.942,Simcolourproject_2stim_asymm_v5,2020.2.10,MacIntel,60,61025ae37ef11b136ea224fe,,,,,,,,,1437,44,-79,1,0,0,response3disk,,4,6,-4,1,0,0,rectangle,6,-4,1,0,0,6,-4,1,0,0,0,75,75,106,1,,,,,,,,
,,,,,,,,,,,,,FF,,,,,,,,1.145,,,,,,,,,,,,,,,,,,,,,,60fde06510c492831b1f4a93,610369cb77f10d45e058ca70,2021-07-29_19h54.46.942,Simcolourproject_2stim_asymm_v5,2020.2.10,MacIntel,60,61025ae37ef11b136ea224fe,,,,,,,,,3749,-78,46,1,0,0,response7disk,,1,-15,6,1,0,0,rectangle,-15,6,1,0,0,-15,6,1,0,0,0,76,76,146,1,,,,,,,,
,,,,,,,,,,,,,FF,,,,,,,,1.476,,,,,,,,,,,,,,,,,,,,,,60fde06510c492831b1f4a93,610369cb77f10d45e058ca70,2021-07-29_19h54.46.942,Simcolourproject_2stim_asymm_v5,2020.2.10,MacIntel,60,61025ae37ef11b136ea224fe,,,,,,,,,2023,-80,-43,1,0,0,response5disk,,2,-9,0,1,0,0,rectangle,-82,-47,1,0,0,-12,-9,1,0,0,0,77,77,89,1,,response5disk_3,TRUE,2,2,"[233,223,237,19,274,277,17,257,74,31,78,223,98,74,258,220,150,274,105,174]",2.26,rectangle
,,,,,,,,,,,,,FF,,,,,,,,1.584,,,,,,,,,,,,,,,,,,,,,,60fde06510c492831b1f4a93,610369cb77f10d45e058ca70,2021-07-29_19h54.46.942,Simcolourproject_2stim_asymm_v5,2020.2.10,MacIntel,60,61025ae37ef11b136ea224fe,,,,,,,,,3023,88,47,1,0,0,response1disk,,6,9,2,1,0,0,rectangle,9,2,1,0,0,9,2,1,0,0,0,78,78,34,1,,,,,,,,
,,,,,,,,,,,,,FF,,,,,,,,1.18,,,,,,,,,,,,,,,,,,,,,,60fde06510c492831b1f4a93,610369cb77f10d45e058ca70,2021-07-29_19h54.46.942,Simcolourproject_2stim_asymm_v5,2020.2.10,MacIntel,60,61025ae37ef11b136ea224fe,,,,,,,,,30,37,-90,1,0,0,response3disk,,4,1,-4,1,0,0,rectangle,1,-4,1,0,0,1,-4,1,0,0,0,79,79,74,1,,,,,,,,
,,,,,,,,,,,,,FF,,,,,,,,2.05,,,,,,,,,,,,,,,,,,,,,,60fde06510c492831b1f4a93,610369cb77f10d45e058ca70,2021-07-29_19h54.46.942,Simcolourproject_2stim_asymm_v5,2020.2.10,MacIntel,60,61025ae37ef11b136ea224fe,,,,,,,,,1879,42,-72,1,0,0,response3disk,,4,-1,0,1,0,0,rectangle,-1,0,1,0,0,-1,0,1,0,0,0,80,80,13,1,,,,,,,,
,,,,,,,,,,,,,FF,,,,,,,,1.781,,,,,,,,,,,,,,,,,,,,,,60fde06510c492831b1f4a93,610369cb77f10d45e058ca70,2021-07-29_19h54.46.942,Simcolourproject_2stim_asymm_v5,2020.2.10,MacIntel,60,61025ae37ef11b136ea224fe,,,,,,,,,1588,-41,-71,1,0,0,response5disk,,3,-10,7,1,0,0,rectangle,-10,7,1,0,0,-10,7,1,0,0,0,81,81,153,1,,,,,,,,
,,,,,,,,,,,,,FF,,,,,,,,1.663,,,,,,,,,,,,,,,,,,,,,,60fde06510c492831b1f4a93,610369cb77f10d45e058ca70,2021-07-29_19h54.46.942,Simcolourproject_2stim_asymm_v5,2020.2.10,MacIntel,60,61025ae37ef11b136ea224fe,,,,,,,,,4173,42,62,1,0,0,response1disk,,7,15,-5,1,0,0,rectangle,15,-5,1,0,0,15,-5,1,0,0,0,82,82,104,1,,,,,,,,
,,,,,,,,,,,,,FF,,,,,,,,1.944,,,,,,,,,,,,,,,,,,,,,,60fde06510c492831b1f4a93,610369cb77f10d45e058ca70,2021-07-29_19h54.46.942,Simcolourproject_2stim_asymm_v5,2020.2.10,MacIntel,60,61025ae37ef11b136ea224fe,,,,,,,,,1779,38,-94,1,0,0,response3disk,,4,-13,2,1,0,0,rectangle,-13,2,1,0,0,-13,2,1,0,0,0,83,83,129,1,,,,,,,,
,,,,,,,,,,,,,FF,,,,,,,,0.986,,,,,,,,,,,,,,,,,,,,,,60fde06510c492831b1f4a93,610369cb77f10d45e058ca70,2021-07-29_19h54.46.942,Simcolourproject_2stim_asymm_v5,2020.2.10,MacIntel,60,61025ae37ef11b136ea224fe,,,,,,,,,3337,-80,-32,1,0,0,response5disk,,2,-13,-5,1,0,0,rectangle,-13,-5,1,0,0,-13,-5,1,0,0,0,84,84,19,1,,,,,,,,
,,,,,,,,,,,,,FF,,,,,,,,1.526,,,,,,,,,,,,,,,,,,,,,,60fde06510c492831b1f4a93,610369cb77f10d45e058ca70,2021-07-29_19h54.46.942,Simcolourproject_2stim_asymm_v5,2020.2.10,MacIntel,60,61025ae37ef11b136ea224fe,,,,,,,,,1121,-44,-81,1,0,0,response5disk,,3,-5,3,1,0,0,rectangle,-5,3,1,0,0,-5,3,1,0,0,0,85,85,25,1,,,,,,,,
,,,,,,,,,,,,,FF,,,,,,,,1.444,,,,,,,,,,,,,,,,,,,,,,60fde06510c492831b1f4a93,610369cb77f10d45e058ca70,2021-07-29_19h54.46.942,Simcolourproject_2stim_asymm_v5,2020.2.10,MacIntel,60,61025ae37ef11b136ea224fe,,,,,,,,,3268,77,51,1,0,0,response1disk,,6,10,-3,1,0,0,rectangle,10,-3,1,0,0,10,-3,1,0,0,0,86,86,46,1,,,,,,,,
,,,,,,,,,,,,,FF,,,,,,,,5.433,,,,,,,,,,,,,,,,,,,,,,60fde06510c492831b1f4a93,610369cb77f10d45e058ca70,2021-07-29_19h54.46.942,Simcolourproject_2stim_asymm_v5,2020.2.10,MacIntel,60,61025ae37ef11b136ea224fe,,,,,,,,,2856,37,-80,1,0,0,response3disk,,4,-15,-3,1,0,0,rectangle,-15,-3,1,0,0,-15,-3,1,0,0,0,87,87,10,1,,,,,,,,
,,,,,,,,,,,,,FF,,,,,,,,1.427,,,,,,,,,,,,,,,,,,,,,,60fde06510c492831b1f4a93,610369cb77f10d45e058ca70,2021-07-29_19h54.46.942,Simcolourproject_2stim_asymm_v5,2020.2.10,MacIntel,60,61025ae37ef11b136ea224fe,,,,,,,,,4207,-91,42,1,0,0,response7disk,,1,-20,6,1,0,0,rectangle,-20,6,1,0,0,-20,6,1,0,0,0,88,88,132,1,,,,,,,,
,,,,,,,,,,,,,FF,,,,,,,,2.961,,,,,,,,,,,,,,,,,,,,,,60fde06510c492831b1f4a93,610369cb77f10d45e058ca70,2021-07-29_19h54.46.942,Simcolourproject_2stim_asymm_v5,2020.2.10,MacIntel,60,61025ae37ef11b136ea224fe,,,,,,,,,1566,95,56,1,0,0,response1disk,,6,-7,2,1,0,0,rectangle,-7,2,1,0,0,-7,2,1,0,0,0,89,89,143,1,,,,,,,,
,,,,,,,,,,,,,FF,,,,,,,,0.984,,,,,,,,,,,,,,,,,,,,,,60fde06510c492831b1f4a93,610369cb77f10d45e058ca70,2021-07-29_19h54.46.942,Simcolourproject_2stim_asymm_v5,2020.2.10,MacIntel,60,61025ae37ef11b136ea224fe,,,,,,,,,829,59,-91,1,0,0,response3disk,,4,2,-1,1,0,0,rectangle,2,-1,1,0,0,2,-1,1,0,0,0,90,90,76,1,,,,,,,,
,,,,,,,,,,,,,FF,,,,,,,,1.929,,,,,,,,,,,,,,,,,,,,,,60fde06510c492831b1f4a93,610369cb77f10d45e058ca70,2021-07-29_19h54.46.942,Simcolourproject_2stim_asymm_v5,2020.2.10,MacIntel,60,61025ae37ef11b136ea224fe,,,,,,,,,2764,111,-55,1,0,0,response3disk,,5,-6,1,1,0,0,rectangle,-6,1,1,0,0,-6,1,1,0,0,0,91,91,57,1,,,,,,,,
,,,,,,,,,,,,,FF,,,,,,,,1.594,,,,,,,,,,,,,,,,,,,,,,60fde06510c492831b1f4a93,610369cb77f10d45e058ca70,2021-07-29_19h54.46.942,Simcolourproject_2stim_asymm_v5,2020.2.10,MacIntel,60,61025ae37ef11b136ea224fe,,,,,,,,,1863,-51,-82,1,0,0,response5disk,,3,2,-5,1,0,0,rectangle,2,-5,1,0,0,2,-5,1,0,0,0,92,92,103,1,,,,,,,,
,,,,,,,,,,,,,FF,,,,,,,,1.938,,,,,,,,,,,,,,,,,,,,,,60fde06510c492831b1f4a93,610369cb77f10d45e058ca70,2021-07-29_19h54.46.942,Simcolourproject_2stim_asymm_v5,2020.2.10,MacIntel,60,61025ae37ef11b136ea224fe,,,,,,,,,925,52,78,1,0,0,response1disk,,7,-1,5,1,0,0,rectangle,-1,5,1,0,0,-1,5,1,0,0,0,93,93,122,1,,,,,,,,
,,,,,,,,,,,,,FF,,,,,,,,5.064,,,,,,,,,,,,,,,,,,,,,,60fde06510c492831b1f4a93,610369cb77f10d45e058ca70,2021-07-29_19h54.46.942,Simcolourproject_2stim_asymm_v5,2020.2.10,MacIntel,60,61025ae37ef11b136ea224fe,,,,,,,,,474,79,-45,1,0,0,response3disk,,5,9,-3,1,0,0,rectangle,9,-3,1,0,0,9,-3,1,0,0,0,94,94,111,1,,,,,,,,
,,,,,,,,,,,,,FF,,,,,,,,0.992,,,,,,,,,,,,,,,,,,,,,,60fde06510c492831b1f4a93,610369cb77f10d45e058ca70,2021-07-29_19h54.46.942,Simcolourproject_2stim_asymm_v5,2020.2.10,MacIntel,60,61025ae37ef11b136ea224fe,,,,,,,,,1449,-88,-61,1,0,0,response5disk,,2,2,-8,1,0,0,rectangle,2,-8,1,0,0,2,-8,1,0,0,0,95,95,23,1,,,,,,,,
,,,,,,,,,,,,,FF,,,,,,,,2.587,,,,,,,,,,,,,,,,,,,,,,60fde06510c492831b1f4a93,610369cb77f10d45e058ca70,2021-07-29_19h54.46.942,Simcolourproject_2stim_asymm_v5,2020.2.10,MacIntel,60,61025ae37ef11b136ea224fe,,,,,,,,,2680,60,-95,1,0,0,response3disk,,4,11,-12,1,0,0,rectangle,11,-12,1,0,0,11,-12,1,0,0,0,96,96,147,1,,,,,,,,
,,,,,,,,,,,,,FF,,,,,,,,0.959,,,,,,,,,,,,,,,,,,,,,,60fde06510c492831b1f4a93,610369cb77f10d45e058ca70,2021-07-29_19h54.46.942,Simcolourproject_2stim_asymm_v5,2020.2.10,MacIntel,60,61025ae37ef11b136ea224fe,,,,,,,,,440,-90,-37,1,0,0,response5disk,,2,-12,1,1,0,0,rectangle,41,-73,1,0,0,-10,-4,1,0,0,0,97,97,24,1,,response3disk_3,TRUE,4,4,"[233,223,237,19,274,277,17,257,74,31,78,223,98,74,258,220,150,274,105,174]",1.754,rectangle
,,,,,,,,,,,,,FF,,,,,,,,2.84,,,,,,,,,,,,,,,,,,,,,,60fde06510c492831b1f4a93,610369cb77f10d45e058ca70,2021-07-29_19h54.46.942,Simcolourproject_2stim_asymm_v5,2020.2.10,MacIntel,60,61025ae37ef11b136ea224fe,,,,,,,,,312,92,37,1,0,0,response1disk,,6,5,-1,1,0,0,rectangle,5,-1,1,0,0,5,-1,1,0,0,0,98,98,66,1,,,,,,,,
,,,,,,,,,,,,,FF,,,,,,,,1.293,,,,,,,,,,,,,,,,,,,,,,60fde06510c492831b1f4a93,610369cb77f10d45e058ca70,2021-07-29_19h54.46.942,Simcolourproject_2stim_asymm_v5,2020.2.10,MacIntel,60,61025ae37ef11b136ea224fe,,,,,,,,,2133,31,75,1,0,0,response1disk,,7,5,1,1,0,0,rectangle,5,1,1,0,0,5,1,1,0,0,0,99,99,30,1,,,,,,,,
,,,,,,,,,,,,,FF,,,,,,,,3.287,,,,,,,,,,,,,,,,,,,,,,60fde06510c492831b1f4a93,610369cb77f10d45e058ca70,2021-07-29_19h54.46.942,Simcolourproject_2stim_asymm_v5,2020.2.10,MacIntel,60,61025ae37ef11b136ea224fe,,,,,,,,,2089,-28,-96,1,0,0,response5disk,,3,-8,2,1,0,0,rectangle,-8,2,1,0,0,-8,2,1,0,0,0,100,100,125,1,,,,,,,,
,,,,,,,,,,,,,FF,,,,,,,,1.241,,,,,,,,,,,,,,,,,,,,,,60fde06510c492831b1f4a93,610369cb77f10d45e058ca70,2021-07-29_19h54.46.942,Simcolourproject_2stim_asymm_v5,2020.2.10,MacIntel,60,61025ae37ef11b136ea224fe,,,,,,,,,175,49,-82,1,0,0,response3disk,,4,-8,5,1,0,0,rectangle,-8,5,1,0,0,-8,5,1,0,0,0,101,101,101,1,,,,,,,,
,,,,,,,,,,,,,FF,,,,,,,,1.153,,,,,,,,,,,,,,,,,,,,,,60fde06510c492831b1f4a93,610369cb77f10d45e058ca70,2021-07-29_19h54.46.942,Simcolourproject_2stim_asymm_v5,2020.2.10,MacIntel,60,61025ae37ef11b136ea224fe,,,,,,,,,2460,48,81,1,0,0,response1disk,,7,14,-8,1,0,0,rectangle,14,-8,1,0,0,14,-8,1,0,0,0,102,102,6,1,,,,,,,,
,,,,,,,,,,,,,FF,,,,,,,,1.325,,,,,,,,,,,,,,,,,,,,,,60fde06510c492831b1f4a93,610369cb77f10d45e058ca70,2021-07-29_19h54.46.942,Simcolourproject_2stim_asymm_v5,2020.2.10,MacIntel,60,61025ae37ef11b136ea224fe,,,,,,,,,3346,-83,-51,1,0,0,response5disk,,2,-15,2,1,0,0,rectangle,-15,2,1,0,0,-15,2,1,0,0,0,103,103,100,1,,,,,,,,
,,,,,,,,,,,,,FF,,,,,,,,2.219,,,,,,,,,,,,,,,,,,,,,,60fde06510c492831b1f4a93,610369cb77f10d45e058ca70,2021-07-29_19h54.46.942,Simcolourproject_2stim_asymm_v5,2020.2.10,MacIntel,60,61025ae37ef11b136ea224fe,,,,,,,,,2361,-84,40,1,0,0,response7disk,,1,-4,8,1,0,0,rectangle,63,-96,1,0,0,-9,-3,1,0,0,0,104,104,45,1,,response3disk_3,TRUE,4,4,"[233,223,237,19,274,277,17,257,74,31,78,223,98,74,258,220,150,274,105,174]",2.219,rectangle
,,,,,,,,,,,,,FF,,,,,,,,2.865,,,,,,,,,,,,,,,,,,,,,,60fde06510c492831b1f4a93,610369cb77f10d45e058ca70,2021-07-29_19h54.46.942,Simcolourproject_2stim_asymm_v5,2020.2.10,MacIntel,60,61025ae37ef11b136ea224fe,,,,,,,,,730,-46,-90,1,0,0,response5disk,,3,1,-5,1,0,0,rectangle,1,-5,1,0,0,1,-5,1,0,0,0,105,105,86,1,,,,,,,,
,,,,,,,,,,,,,FF,,,,,,,,2.577,,,,,,,,,,,,,,,,,,,,,,60fde06510c492831b1f4a93,610369cb77f10d45e058ca70,2021-07-29_19h54.46.942,Simcolourproject_2stim_asymm_v5,2020.2.10,MacIntel,60,61025ae37ef11b136ea224fe,,,,,,,,,475,93,-37,1,0,0,response3disk,,5,20,1,1,0,0,rectangle,20,1,1,0,0,20,1,1,0,0,0,106,106,31,1,,,,,,,,
,,,,,,,,,,,,,FF,,,,,,,,1.319,,,,,,,,,,,,,,,,,,,,,,60fde06510c492831b1f4a93,610369cb77f10d45e058ca70,2021-07-29_19h54.46.942,Simcolourproject_2stim_asymm_v5,2020.2.10,MacIntel,60,61025ae37ef11b136ea224fe,,,,,,,,,859,31,-83,1,0,0,response3disk,,4,-17,7,1,0,0,rectangle,-17,7,1,0,0,-17,7,1,0,0,0,107,107,72,1,,,,,,,,
,,,,,,,,,,,,,FF,,,,,,,,1.071,,,,,,,,,,,,,,,,,,,,,,60fde06510c492831b1f4a93,610369cb77f10d45e058ca70,2021-07-29_19h54.46.942,Simcolourproject_2stim_asymm_v5,2020.2.10,MacIntel,60,61025ae37ef11b136ea224fe,,,,,,,,,2855,-57,-95,1,0,0,response5disk,,3,-24,1,1,0,0,rectangle,-24,1,1,0,0,-24,1,1,0,0,0,108,108,49,1,,,,,,,,
,,,,,,,,,,,,,FF,,,,,,,,1.877,,,,,,,,,,,,,,,,,,,,,,60fde06510c492831b1f4a93,610369cb77f10d45e058ca70,2021-07-29_19h54.46.942,Simcolourproject_2stim_asymm_v5,2020.2.10,MacIntel,60,61025ae37ef11b136ea224fe,,,,,,,,,3737,76,-30,1,0,0,response3disk,,5,14,4,1,0,0,rectangle,14,4,1,0,0,14,4,1,0,0,0,109,109,22,1,,,,,,,,
,,,,,,,,,,,,,FF,,,,,,,,1.841,,,,,,,,,,,,,,,,,,,,,,60fde06510c492831b1f4a93,610369cb77f10d45e058ca70,2021-07-29_19h54.46.942,Simcolourproject_2stim_asymm_v5,2020.2.10,MacIntel,60,61025ae37ef11b136ea224fe,,,,,,,,,22,78,-37,1,0,0,response3disk,,5,3,4,1,0,0,rectangle,3,4,1,0,0,3,4,1,0,0,0,110,110,80,1,,,,,,,,
,,,,,,,,,,,,,FF,,,,,,,,2.517,,,,,,,,,,,,,,,,,,,,,,60fde06510c492831b1f4a93,610369cb77f10d45e058ca70,2021-07-29_19h54.46.942,Simcolourproject_2stim_asymm_v5,2020.2.10,MacIntel,60,61025ae37ef11b136ea224fe,,,,,,,,,1013,115,69,1,0,0,response1disk,,6,9,7,1,0,0,rectangle,9,7,1,0,0,9,7,1,0,0,0,111,111,79,1,,,,,,,,
,,,,,,,,,,,,,FF,,,,,,,,1.08,,,,,,,,,,,,,,,,,,,,,,60fde06510c492831b1f4a93,610369cb77f10d45e058ca70,2021-07-29_19h54.46.942,Simcolourproject_2stim_asymm_v5,2020.2.10,MacIntel,60,61025ae37ef11b136ea224fe,,,,,,,,,3249,-82,-34,1,0,0,response5disk,,2,-7,-9,1,0,0,rectangle,-7,-9,1,0,0,-7,-9,1,0,0,0,112,112,39,1,,,,,,,,
,,,,,,,,,,,,,FF,,,,,,,,1.475,,,,,,,,,,,,,,,,,,,,,,60fde06510c492831b1f4a93,610369cb77f10d45e058ca70,2021-07-29_19h54.46.942,Simcolourproject_2stim_asymm_v5,2020.2.10,MacIntel,60,61025ae37ef11b136ea224fe,,,,,,,,,1116,99,-44,1,0,0,response3disk,,5,2,1,1,0,0,rectangle,2,1,1,0,0,2,1,1,0,0,0,113,113,142,1,,,,,,,,
,,,,,,,,,,,,,FF,,,,,,,,1.413,,,,,,,,,,,,,,,,,,,,,,60fde06510c492831b1f4a93,610369cb77f10d45e058ca70,2021-07-29_19h54.46.942,Simcolourproject_2stim_asymm_v5,2020.2.10,MacIntel,60,61025ae37ef11b136ea224fe,,,,,,,,,4298,86,40,1,0,0,response1disk,,6,6,7,1,0,0,rectangle,6,7,1,0,0,6,7,1,0,0,0,114,114,47,1,,,,,,,,
,,,,,,,,,,,,,FF,,,,,,,,1.881,,,,,,,,,,,,,,,,,,,,,,60fde06510c492831b1f4a93,610369cb77f10d45e058ca70,2021-07-29_19h54.46.942,Simcolourproject_2stim_asymm_v5,2020.2.10,MacIntel,60,61025ae37ef11b136ea224fe,,,,,,,,,3786,77,39,1,0,0,response1disk,,6,-10,0,1,0,0,rectangle,-10,0,1,0,0,-10,0,1,0,0,0,115,115,134,1,,,,,,,,
,,,,,,,,,,,,,FF,,,,,,,,6.162,,,,,,,,,,,,,,,,,,,,,,60fde06510c492831b1f4a93,610369cb77f10d45e058ca70,2021-07-29_19h54.46.942,Simcolourproject_2stim_asymm_v5,2020.2.10,MacIntel,60,61025ae37ef11b136ea224fe,,,,,,,,,689,72,37,1,0,0,response1disk,,6,9,4,1,0,0,rectangle,9,4,1,0,0,9,4,1,0,0,0,116,116,40,1,,,,,,,,
,,,,,,,,,,,,,FF,,,,,,,,3.75,,,,,,,,,,,,,,,,,,,,,,60fde06510c492831b1f4a93,610369cb77f10d45e058ca70,2021-07-29_19h54.46.942,Simcolourproject_2stim_asymm_v5,2020.2.10,MacIntel,60,61025ae37ef11b136ea224fe,,,,,,,,,1923,70,-42,1,0,0,response3disk,,5,-1,-1,1,0,0,rectangle,-1,-1,1,0,0,-1,-1,1,0,0,0,117,117,105,1,,,,,,,,
,,,,,,,,,,,,,FF,,,,,,,,1.532,,,,,,,,,,,,,,,,,,,,,,60fde06510c492831b1f4a93,610369cb77f10d45e058ca70,2021-07-29_19h54.46.942,Simcolourproject_2stim_asymm_v5,2020.2.10,MacIntel,60,61025ae37ef11b136ea224fe,,,,,,,,,4076,-59,-79,1,0,0,response5disk,,3,-19,4,1,0,0,rectangle,-19,4,1,0,0,-19,4,1,0,0,0,118,118,128,1,,,,,,,,
,,,,,,,,,,,,,FF,,,,,,,,1.968,,,,,,,,,,,,,,,,,,,,,,60fde06510c492831b1f4a93,610369cb77f10d45e058ca70,2021-07-29_19h54.46.942,Simcolourproject_2stim_asymm_v5,2020.2.10,MacIntel,60,61025ae37ef11b136ea224fe,,,,,,,,,209,76,48,1,0,0,response1disk,,6,1,-6,1,0,0,rectangle,1,-6,1,0,0,1,-6,1,0,0,0,119,119,65,1,,,,,,,,
,,,,,,,,,,,,,FF,,,,,,,,1.045,,,,,,,,,,,,,,,,,,,,,,60fde06510c492831b1f4a93,610369cb77f10d45e058ca70,2021-07-29_19h54.46.942,Simcolourproject_2stim_asymm_v5,2020.2.10,MacIntel,60,61025ae37ef11b136ea224fe,,,,,,,,,1136,-69,-34,1,0,0,response5disk,,2,-7,-8,1,0,0,rectangle,-7,-8,1,0,0,-7,-8,1,0,0,0,120,120,90,1,,,,,,,,
,,,,,,,,,,,,,FF,,,,,,,,3.55,,,,,,,,,,,,,,,,,,,,,,60fde06510c492831b1f4a93,610369cb77f10d45e058ca70,2021-07-29_19h54.46.942,Simcolourproject_2stim_asymm_v5,2020.2.10,MacIntel,60,61025ae37ef11b136ea224fe,,,,,,,,,13,35,-48,1,0,0,response3disk,,4,-17,8,1,0,0,rectangle,-17,8,1,0,0,-17,8,1,0,0,0,121,121,99,1,,,,,,,,
,,,,,,,,,,,,,FF,,,,,,,,2.196,,,,,,,,,,,,,,,,,,,,,,60fde06510c492831b1f4a93,610369cb77f10d45e058ca70,2021-07-29_19h54.46.942,Simcolourproject_2stim_asymm_v5,2020.2.10,MacIntel,60,61025ae37ef11b136ea224fe,,,,,,,,,4206,-113,42,1,0,0,response7disk,,1,-9,3,1,0,0,rectangle,-9,3,1,0,0,-9,3,1,0,0,0,122,122,52,1,,,,,,,,
,,,,,,,,,,,,,FF,,,,,,,,1.018,,,,,,,,,,,,,,,,,,,,,,60fde06510c492831b1f4a93,610369cb77f10d45e058ca70,2021-07-29_19h54.46.942,Simcolourproject_2stim_asymm_v5,2020.2.10,MacIntel,60,61025ae37ef11b136ea224fe,,,,,,,,,255,-81,36,1,0,0,response7disk,,1,-3,-3,1,0,0,rectangle,-3,-3,1,0,0,-3,-3,1,0,0,0,123,123,108,1,,,,,,,,
,,,,,,,,,,,,,FF,,,,,,,,0.943,,,,,,,,,,,,,,,,,,,,,,60fde06510c492831b1f4a93,610369cb77f10d45e058ca70,2021-07-29_19h54.46.942,Simcolourproject_2stim_asymm_v5,2020.2.10,MacIntel,60,61025ae37ef11b136ea224fe,,,,,,,,,2714,-85,-31,1,0,0,response5disk,,2,7,0,1,0,0,rectangle,7,0,1,0,0,7,0,1,0,0,0,124,124,2,1,,,,,,,,
,,,,,,,,,,,,,FF,,,,,,,,1.609,,,,,,,,,,,,,,,,,,,,,,60fde06510c492831b1f4a93,610369cb77f10d45e058ca70,2021-07-29_19h54.46.942,Simcolourproject_2stim_asymm_v5,2020.2.10,MacIntel,60,61025ae37ef11b136ea224fe,,,,,,,,,1794,90,-39,1,0,0,response3disk,,5,11,0,1,0,0,rectangle,11,0,1,0,0,11,0,1,0,0,0,125,125,131,1,,,,,,,,
,,,,,,,,,,,,,FF,,,,,,,,1.55,,,,,,,,,,,,,,,,,,,,,,60fde06510c492831b1f4a93,610369cb77f10d45e058ca70,2021-07-29_19h54.46.942,Simcolourproject_2stim_asymm_v5,2020.2.10,MacIntel,60,61025ae37ef11b136ea224fe,,,,,,,,,1699,82,44,1,0,0,response1disk,,6,16,2,1,0,0,rectangle,16,2,1,0,0,16,2,1,0,0,0,126,126,116,1,,,,,,,,
,,,,,,,,,,,,,FF,,,,,,,,1.124,,,,,,,,,,,,,,,,,,,,,,60fde06510c492831b1f4a93,610369cb77f10d45e058ca70,2021-07-29_19h54.46.942,Simcolourproject_2stim_asymm_v5,2020.2.10,MacIntel,60,61025ae37ef11b136ea224fe,,,,,,,,,3178,85,26,1,0,0,response1disk,,6,-21,-2,1,0,0,rectangle,-21,-2,1,0,0,-21,-2,1,0,0,0,127,127,51,1,,,,,,,,
,,,,,,,,,,,,,FF,,,,,,,,1.684,,,,,,,,,,,,,,,,,,,,,,60fde06510c492831b1f4a93,610369cb77f10d45e058ca70,2021-07-29_19h54.46.942,Simcolourproject_2stim_asymm_v5,2020.2.10,MacIntel,60,61025ae37ef11b136ea224fe,,,,,,,,,3587,-78,-53,1,0,0,response5disk,,2,-16,-10,1,0,0,rectangle,-16,-10,1,0,0,-16,-10,1,0,0,0,128,128,44,1,,,,,,,,
,,,,,,,,,,,,,FF,,,,,,,,1.005,,,,,,,,,,,,,,,,,,,,,,60fde06510c492831b1f4a93,610369cb77f10d45e058ca70,2021-07-29_19h54.46.942,Simcolourproject_2stim_asymm_v5,2020.2.10,MacIntel,60,61025ae37ef11b136ea224fe,,,,,,,,,1798,87,-34,1,0,0,response3disk,,5,16,-9,1,0,0,rectangle,16,-9,1,0,0,16,-9,1,0,0,0,129,129,148,1,,,,,,,,
,,,,,,,,,,,,,FF,,,,,,,,1.152,,,,,,,,,,,,,,,,,,,,,,60fde06510c492831b1f4a93,610369cb77f10d45e058ca70,2021-07-29_19h54.46.942,Simcolourproject_2stim_asymm_v5,2020.2.10,MacIntel,60,61025ae37ef11b136ea224fe,,,,,,,,,3272,34,68,1,0,0,response1disk,,7,8,-2,1,0,0,rectangle,8,-2,1,0,0,8,-2,1,0,0,0,130,130,155,1,,,,,,,,
,,,,,,,,,,,,,FF,,,,,,,,1.326,,,,,,,,,,,,,,,,,,,,,,60fde06510c492831b1f4a93,610369cb77f10d45e058ca70,2021-07-29_19h54.46.942,Simcolourproject_2stim_asymm_v5,2020.2.10,MacIntel,60,61025ae37ef11b136ea224fe,,,,,,,,,3129,36,63,1,0,0,response1disk,,7,23,3,1,0,0,rectangle,23,3,1,0,0,23,3,1,0,0,0,131,131,75,1,,,,,,,,
,,,,,,,,,,,,,FF,,,,,,,,1.618,,,,,,,,,,,,,,,,,,,,,,60fde06510c492831b1f4a93,610369cb77f10d45e058ca70,2021-07-29_19h54.46.942,Simcolourproject_2stim_asymm_v5,2020.2.10,MacIntel,60,61025ae37ef11b136ea224fe,,,,,,,,,3139,-72,-30,1,0,0,response5disk,,2,-13,-4,1,0,0,rectangle,-13,-4,1,0,0,-13,-4,1,0,0,0,132,132,69,1,,,,,,,,
,,,,,,,,,,,,,FF,,,,,,,,0.975,,,,,,,,,,,,,,,,,,,,,,60fde06510c492831b1f4a93,610369cb77f10d45e058ca70,2021-07-29_19h54.46.942,Simcolourproject_2stim_asymm_v5,2020.2.10,MacIntel,60,61025ae37ef11b136ea224fe,,,,,,,,,2523,112,39,1,0,0,response1disk,,6,-8,-7,1,0,0,rectangle,-8,-7,1,0,0,-8,-7,1,0,0,0,133,133,112,1,,,,,,,,
,,,,,,,,,,,,,FF,,,,,,,,4.406,,,,,,,,,,,,,,,,,,,,,,60fde06510c492831b1f4a93,610369cb77f10d45e058ca70,2021-07-29_19h54.46.942,Simcolourproject_2stim_asymm_v5,2020.2.10,MacIntel,60,61025ae37ef11b136ea224fe,,,,,,,,,992,102,-37,1,0,0,response3disk,,5,19,-5,1,0,0,rectangle,19,-5,1,0,0,19,-5,1,0,0,0,134,134,117,1,,,,,,,,
,,,,,,,,,,,,,FF,,,,,,,,3.203,,,,,,,,,,,,,,,,,,,,,,60fde06510c492831b1f4a93,610369cb77f10d45e058ca70,2021-07-29_19h54.46.942,Simcolourproject_2stim_asymm_v5,2020.2.10,MacIntel,60,61025ae37ef11b136ea224fe,,,,,,,,,725,79,-39,1,0,0,response3disk,,5,-20,6,1,0,0,rectangle,-20,6,1,0,0,-20,6,1,0,0,0,135,135,36,1,,,,,,,,
,,,,,,,,,,,,,FF,,,,,,,,1.058,,,,,,,,,,,,,,,,,,,,,,60fde06510c492831b1f4a93,610369cb77f10d45e058ca70,2021-07-29_19h54.46.942,Simcolourproject_2stim_asymm_v5,2020.2.10,MacIntel,60,61025ae37ef11b136ea224fe,,,,,,,,,3054,-99,-56,1,0,0,response5disk,,2,1,11,1,0,0,rectangle,1,11,1,0,0,1,11,1,0,0,0,136,136,55,1,,,,,,,,
,,,,,,,,,,,,,FF,,,,,,,,1.328,,,,,,,,,,,,,,,,,,,,,,60fde06510c492831b1f4a93,610369cb77f10d45e058ca70,2021-07-29_19h54.46.942,Simcolourproject_2stim_asymm_v5,2020.2.10,MacIntel,60,61025ae37ef11b136ea224fe,,,,,,,,,1535,73,42,1,0,0,response1disk,,6,-11,-3,1,0,0,rectangle,-11,-3,1,0,0,-11,-3,1,0,0,0,137,137,60,1,,,,,,,,
,,,,,,,,,,,,,FF,,,,,,,,1.135,,,,,,,,,,,,,,,,,,,,,,60fde06510c492831b1f4a93,610369cb77f10d45e058ca70,2021-07-29_19h54.46.942,Simcolourproject_2stim_asymm_v5,2020.2.10,MacIntel,60,61025ae37ef11b136ea224fe,,,,,,,,,359,49,-101,1,0,0,response3disk,,4,7,0,1,0,0,rectangle,7,0,1,0,0,7,0,1,0,0,0,138,138,17,1,,,,,,,,
,,,,,,,,,,,,,FF,,,,,,,,1.273,,,,,,,,,,,,,,,,,,,,,,60fde06510c492831b1f4a93,610369cb77f10d45e058ca70,2021-07-29_19h54.46.942,Simcolourproject_2stim_asymm_v5,2020.2.10,MacIntel,60,61025ae37ef11b136ea224fe,,,,,,,,,3142,-67,-43,1,0,0,response5disk,,2,-13,1,1,0,0,rectangle,-13,1,1,0,0,-13,1,1,0,0,0,139,139,61,1,,,,,,,,
,,,,,,,,,,,,,FF,,,,,,,,1.255,,,,,,,,,,,,,,,,,,,,,,60fde06510c492831b1f4a93,610369cb77f10d45e058ca70,2021-07-29_19h54.46.942,Simcolourproject_2stim_asymm_v5,2020.2.10,MacIntel,60,61025ae37ef11b136ea224fe,,,,,,,,,2975,83,62,1,0,0,response1disk,,6,3,0,1,0,0,rectangle,3,0,1,0,0,3,0,1,0,0,0,140,140,48,1,,,,,,,,
,,,,,,,,,,,,,FF,,,,,,,,1.869,,,,,,,,,,,,,,,,,,,,,,60fde06510c492831b1f4a93,610369cb77f10d45e058ca70,2021-07-29_19h54.46.942,Simcolourproject_2stim_asymm_v5,2020.2.10,MacIntel,60,61025ae37ef11b136ea224fe,,,,,,,,,2070,73,-35,1,0,0,response3disk,,5,-15,4,1,0,0,rectangle,-15,4,1,0,0,-15,4,1,0,0,0,141,141,38,1,,,,,,,,
,,,,,,,,,,,,,FF,,,,,,,,2.654,,,,,,,,,,,,,,,,,,,,,,60fde06510c492831b1f4a93,610369cb77f10d45e058ca70,2021-07-29_19h54.46.942,Simcolourproject_2stim_asymm_v5,2020.2.10,MacIntel,60,61025ae37ef11b136ea224fe,,,,,,,,,3987,89,50,1,0,0,response1disk,,6,9,-6,1,0,0,rectangle,9,-6,1,0,0,9,-6,1,0,0,0,142,142,138,1,,,,,,,,
,,,,,,,,,,,,,FF,,,,,,,,1.275,,,,,,,,,,,,,,,,,,,,,,60fde06510c492831b1f4a93,610369cb77f10d45e058ca70,2021-07-29_19h54.46.942,Simcolourproject_2stim_asymm_v5,2020.2.10,MacIntel,60,61025ae37ef11b136ea224fe,,,,,,,,,2134,70,33,1,0,0,response1disk,,6,-9,0,1,0,0,rectangle,-9,0,1,0,0,-9,0,1,0,0,0,143,143,21,1,,,,,,,,
,,,,,,,,,,,,,FF,,,,,,,,1.452,,,,,,,,,,,,,,,,,,,,,,60fde06510c492831b1f4a93,610369cb77f10d45e058ca70,2021-07-29_19h54.46.942,Simcolourproject_2stim_asymm_v5,2020.2.10,MacIntel,60,61025ae37ef11b136ea224fe,,,,,,,,,321,75,-38,1,0,0,response3disk,,5,23,2,1,0,0,rectangle,23,2,1,0,0,23,2,1,0,0,0,144,144,54,1,,,,,,,,
,,,,,,,,,,,,,FF,,,,,,,,0.897,,,,,,,,,,,,,,,,,,,,,,60fde06510c492831b1f4a93,610369cb77f10d45e058ca70,2021-07-29_19h54.46.942,Simcolourproject_2stim_asymm_v5,2020.2.10,MacIntel,60,61025ae37ef11b136ea224fe,,,,,,,,,1182,73,34,1,0,0,response1disk,,6,-9,-5,1,0,0,rectangle,-9,-5,1,0,0,-9,-5,1,0,0,0,145,145,85,1,,,,,,,,
,,,,,,,,,,,,,FF,,,,,,,,3.344,,,,,,,,,,,,,,,,,,,,,,60fde06510c492831b1f4a93,610369cb77f10d45e058ca70,2021-07-29_19h54.46.942,Simcolourproject_2stim_asymm_v5,2020.2.10,MacIntel,60,61025ae37ef11b136ea224fe,,,,,,,,,2871,86,-60,1,0,0,response3disk,,5,-2,3,1,0,0,rectangle,-2,3,1,0,0,-2,3,1,0,0,0,146,146,29,1,,,,,,,,
,,,,,,,,,,,,,FF,,,,,,,,1.458,,,,,,,,,,,,,,,,,,,,,,60fde06510c492831b1f4a93,610369cb77f10d45e058ca70,2021-07-29_19h54.46.942,Simcolourproject_2stim_asymm_v5,2020.2.10,MacIntel,60,61025ae37ef11b136ea224fe,,,,,,,,,2118,-37,-77,1,0,0,response5disk,,3,-13,1,1,0,0,rectangle,-13,1,1,0,0,-13,1,1,0,0,0,147,147,141,1,,,,,,,,
,,,,,,,,,,,,,FF,,,,,,,,2.66,,,,,,,,,,,,,,,,,,,,,,60fde06510c492831b1f4a93,610369cb77f10d45e058ca70,2021-07-29_19h54.46.942,Simcolourproject_2stim_asymm_v5,2020.2.10,MacIntel,60,61025ae37ef11b136ea224fe,,,,,,,,,737,36,-94,1,0,0,response3disk,,4,-16,-4,1,0,0,rectangle,-16,-4,1,0,0,-16,-4,1,0,0,0,148,148,91,1,,,,,,,,
,,,,,,,,,,,,,FF,,,,,,,,1.679,,,,,,,,,,,,,,,,,,,,,,60fde06510c492831b1f4a93,610369cb77f10d45e058ca70,2021-07-29_19h54.46.942,Simcolourproject_2stim_asymm_v5,2020.2.10,MacIntel,60,61025ae37ef11b136ea224fe,,,,,,,,,3206,-91,-46,1,0,0,response5disk,,2,-19,2,1,0,0,rectangle,93,29,1,0,0,-10,-15,1,0,0,0,149,149,43,1,,response1disk_3,TRUE,6,6,"[233,223,237,19,274,277,17,257,74,31,78,223,98,74,258,220,150,274,105,174]",2.29,rectangle
,,,,,,,,,,,,,FF,,,,,,,,1.496,,,,,,,,,,,,,,,,,,,,,,60fde06510c492831b1f4a93,610369cb77f10d45e058ca70,2021-07-29_19h54.46.942,Simcolourproject_2stim_asymm_v5,2020.2.10,MacIntel,60,61025ae37ef11b136ea224fe,,,,,,,,,4241,-47,-75,1,0,0,response5disk,,3,-11,1,1,0,0,rectangle,-11,1,1,0,0,-11,1,1,0,0,0,150,150,93,1,,,,,,,,
,,,,,,,,,,,,,FF,,,,,,,,1.261,,,,,,,,,,,,,,,,,,,,,,60fde06510c492831b1f4a93,610369cb77f10d45e058ca70,2021-07-29_19h54.46.942,Simcolourproject_2stim_asymm_v5,2020.2.10,MacIntel,60,61025ae37ef11b136ea224fe,,,,,,,,,4058,-37,-71,1,0,0,response5disk,,3,-8,2,1,0,0,rectangle,-8,2,1,0,0,-8,2,1,0,0,0,151,151,159,1,,,,,,,,
,,,,,,,,,,,,,FF,,,,,,,,3.515,,,,,,,,,,,,,,,,,,,,,,60fde06510c492831b1f4a93,610369cb77f10d45e058ca70,2021-07-29_19h54.46.942,Simcolourproject_2stim_asymm_v5,2020.2.10,MacIntel,60,61025ae37ef11b136ea224fe,,,,,,,,,1311,-62,-86,1,0,0,response5disk,,3,-17,9,1,0,0,rectangle,-17,9,1,0,0,-17,9,1,0,0,0,152,152,82,1,,,,,,,,
,,,,,,,,,,,,,FF,,,,,,,,1.583,,,,,,,,,,,,,,,,,,,,,,60fde06510c492831b1f4a93,610369cb77f10d45e058ca70,2021-07-29_19h54.46.942,Simcolourproject_2stim_asymm_v5,2020.2.10,MacIntel,60,61025ae37ef11b136ea224fe,,,,,,,,,3112,-53,-74,1,0,0,response5disk,,3,-9,3,1,0,0,rectangle,-9,3,1,0,0,-9,3,1,0,0,0,153,153,64,1,,,,,,,,
,,,,,,,,,,,,,FF,,,,,,,,0.844,,,,,,,,,,,,,,,,,,,,,,60fde06510c492831b1f4a93,610369cb77f10d45e058ca70,2021-07-29_19h54.46.942,Simcolourproject_2stim_asymm_v5,2020.2.10,MacIntel,60,61025ae37ef11b136ea224fe,,,,,,,,,2668,-106,-55,1,0,0,response5disk,,2,-14,-7,1,0,0,rectangle,-14,-7,1,0,0,-14,-7,1,0,0,0,154,154,144,1,,,,,,,,
,,,,,,,,,,,,,FF,,,,,,,,2.905,,,,,,,,,,,,,,,,,,,,,,60fde06510c492831b1f4a93,610369cb77f10d45e058ca70,2021-07-29_19h54.46.942,Simcolourproject_2stim_asymm_v5,2020.2.10,MacIntel,60,61025ae37ef11b136ea224fe,,,,,,,,,3153,-91,49,1,0,0,response7disk,,1,-7,-2,1,0,0,rectangle,-7,-2,1,0,0,-7,-2,1,0,0,0,155,155,137,1,,,,,,,,
,,,,,,,,,,,,,FF,,,,,,,,0.919,,,,,,,,,,,,,,,,,,,,,,60fde06510c492831b1f4a93,610369cb77f10d45e058ca70,2021-07-29_19h54.46.942,Simcolourproject_2stim_asymm_v5,2020.2.10,MacIntel,60,61025ae37ef11b136ea224fe,,,,,,,,,2463,71,-37,1,0,0,response3disk,,5,5,6,1,0,0,rectangle,5,6,1,0,0,5,6,1,0,0,0,156,156,123,1,,,,,,,,
,,,,,,,,,,,,,FF,,,,,,,,2.263,,,,,,,,,,,,,,,,,,,,,,60fde06510c492831b1f4a93,610369cb77f10d45e058ca70,2021-07-29_19h54.46.942,Simcolourproject_2stim_asymm_v5,2020.2.10,MacIntel,60,61025ae37ef11b136ea224fe,,,,,,,,,3340,-93,-44,1,0,0,response5disk,,2,-10,1,1,0,0,rectangle,-10,1,1,0,0,-10,1,1,0,0,0,157,157,9,1,,,,,,,,
,,,,,,,,,,,,,FF,,,,,,,,3.119,,,,,,,,,,,,,,,,,,,,,,60fde06510c492831b1f4a93,610369cb77f10d45e058ca70,2021-07-29_19h54.46.942,Simcolourproject_2stim_asymm_v5,2020.2.10,MacIntel,60,61025ae37ef11b136ea224fe,,,,,,,,,2991,75,-35,1,0,0,response3disk,,5,7,-3,1,0,0,rectangle,7,-3,1,0,0,7,-3,1,0,0,0,158,158,32,1,,,,,,,,
,,,,,,,,,,,,,FF,,,,,,,,4.708,,,,,,,,,,,,,,,,,,,,,,60fde06510c492831b1f4a93,610369cb77f10d45e058ca70,2021-07-29_19h54.46.942,Simcolourproject_2stim_asymm_v5,2020.2.10,MacIntel,60,61025ae37ef11b136ea224fe,,,,,,,,,721,43,-97,1,0,0,response3disk,,4,17,-4,1,0,0,rectangle,17,-4,1,0,0,17,-4,1,0,0,0,159,159,50,1,,,,,,,,
,,,,,,,,,,,,,FF,,,,,,,,1.879,,,,,,,,,,,,,,,,,,,,,,60fde06510c492831b1f4a93,610369cb77f10d45e058ca70,2021-07-29_19h54.46.942,Simcolourproject_2stim_asymm_v5,2020.2.10,MacIntel,60,61025ae37ef11b136ea224fe,,,,,,,,,650,43,-74,1,0,0,response3disk,,4,14,-6,1,0,0,rectangle,14,-6,1,0,0,14,-6,1,0,0,1,0,160,57,1,,,,,,,,
,,,,,,,,,,,,,FF,,,,,,,,3.043,,,,,,,,,,,,,,,,,,,,,,60fde06510c492831b1f4a93,610369cb77f10d45e058ca70,2021-07-29_19h54.46.942,Simcolourproject_2stim_asymm_v5,2020.2.10,MacIntel,60,61025ae37ef11b136ea224fe,,,,,,,,,485,67,28,1,0,0,response1disk,,6,-15,0,1,0,0,rectangle,-15,0,1,0,0,-15,0,1,0,0,1,1,161,92,1,,,,,,,,
,,,,,,,,,,,,,FF,,,,,,,,1.201,,,,,,,,,,,,,,,,,,,,,,60fde06510c492831b1f4a93,610369cb77f10d45e058ca70,2021-07-29_19h54.46.942,Simcolourproject_2stim_asymm_v5,2020.2.10,MacIntel,60,61025ae37ef11b136ea224fe,,,,,,,,,3904,-42,-83,1,0,0,response5disk,,3,1,3,1,0,0,rectangle,1,3,1,0,0,1,3,1,0,0,1,2,162,60,1,,,,,,,,
,,,,,,,,,,,,,FF,,,,,,,,1.396,,,,,,,,,,,,,,,,,,,,,,60fde06510c492831b1f4a93,610369cb77f10d45e058ca70,2021-07-29_19h54.46.942,Simcolourproject_2stim_asymm_v5,2020.2.10,MacIntel,60,61025ae37ef11b136ea224fe,,,,,,,,,4113,44,-56,1,0,0,response3disk,,4,-7,-6,1,0,0,rectangle,-7,-6,1,0,0,-7,-6,1,0,0,1,3,163,7,1,,,,,,,,
,,,,,,,,,,,,,FF,,,,,,,,1.036,,,,,,,,,,,,,,,,,,,,,,60fde06510c492831b1f4a93,610369cb77f10d45e058ca70,2021-07-29_19h54.46.942,Simcolourproject_2stim_asymm_v5,2020.2.10,MacIntel,60,61025ae37ef11b136ea224fe,,,,,,,,,2935,-57,-89,1,0,0,response5disk,,3,-19,-6,1,0,0,rectangle,-19,-6,1,0,0,-19,-6,1,0,0,1,4,164,28,1,,,,,,,,
,,,,,,,,,,,,,FF,,,,,,,,1.425,,,,,,,,,,,,,,,,,,,,,,60fde06510c492831b1f4a93,610369cb77f10d45e058ca70,2021-07-29_19h54.46.942,Simcolourproject_2stim_asymm_v5,2020.2.10,MacIntel,60,61025ae37ef11b136ea224fe,,,,,,,,,1645,74,53,1,0,0,response1disk,,6,13,0,1,0,0,rectangle,13,0,1,0,0,13,0,1,0,0,1,5,165,34,1,,,,,,,,
,,,,,,,,,,,,,FF,,,,,,,,1.174,,,,,,,,,,,,,,,,,,,,,,60fde06510c492831b1f4a93,610369cb77f10d45e058ca70,2021-07-29_19h54.46.942,Simcolourproject_2stim_asymm_v5,2020.2.10,MacIntel,60,61025ae37ef11b136ea224fe,,,,,,,,,2014,29,74,1,0,0,response1disk,,7,5,-5,1,0,0,rectangle,5,-5,1,0,0,5,-5,1,0,0,1,6,166,41,1,,,,,,,,
,,,,,,,,,,,,,FF,,,,,,,,5.407,,,,,,,,,,,,,,,,,,,,,,60fde06510c492831b1f4a93,610369cb77f10d45e058ca70,2021-07-29_19h54.46.942,Simcolourproject_2stim_asymm_v5,2020.2.10,MacIntel,60,61025ae37ef11b136ea224fe,,,,,,,,,2016,67,-40,1,0,0,response3disk,,5,-1,0,1,0,0,rectangle,-1,0,1,0,0,-1,0,1,0,0,1,7,167,44,1,,,,,,,,
,,,,,,,,,,,,,FF,,,,,,,,1.039,,,,,,,,,,,,,,,,,,,,,,60fde06510c492831b1f4a93,610369cb77f10d45e058ca70,2021-07-29_19h54.46.942,Simcolourproject_2stim_asymm_v5,2020.2.10,MacIntel,60,61025ae37ef11b136ea224fe,,,,,,,,,266,-104,-69,1,0,0,response5disk,,2,-1,-7,1,0,0,rectangle,-1,-7,1,0,0,-1,-7,1,0,0,1,8,168,62,1,,,,,,,,
,,,,,,,,,,,,,FF,,,,,,,,1.233,,,,,,,,,,,,,,,,,,,,,,60fde06510c492831b1f4a93,610369cb77f10d45e058ca70,2021-07-29_19h54.46.942,Simcolourproject_2stim_asymm_v5,2020.2.10,MacIntel,60,61025ae37ef11b136ea224fe,,,,,,,,,3424,-108,41,1,0,0,response7disk,,1,-5,-1,1,0,0,rectangle,-5,-1,1,0,0,-5,-1,1,0,0,1,9,169,91,1,,,,,,,,
,,,,,,,,,,,,,FF,,,,,,,,0.785,,,,,,,,,,,,,,,,,,,,,,60fde06510c492831b1f4a93,610369cb77f10d45e058ca70,2021-07-29_19h54.46.942,Simcolourproject_2stim_asymm_v5,2020.2.10,MacIntel,60,61025ae37ef11b136ea224fe,,,,,,,,,1603,-91,33,1,0,0,response7disk,,1,-22,5,1,0,0,rectangle,-22,5,1,0,0,-22,5,1,0,0,1,10,170,12,1,,,,,,,,
,,,,,,,,,,,,,FF,,,,,,,,2.445,,,,,,,,,,,,,,,,,,,,,,60fde06510c492831b1f4a93,610369cb77f10d45e058ca70,2021-07-29_19h54.46.942,Simcolourproject_2stim_asymm_v5,2020.2.10,MacIntel,60,61025ae37ef11b136ea224fe,,,,,,,,,3690,100,-35,1,0,0,response3disk,,5,-8,0,1,0,0,rectangle,-8,0,1,0,0,-8,0,1,0,0,1,11,171,4,1,,,,,,,,
,,,,,,,,,,,,,FF,,,,,,,,1.331,,,,,,,,,,,,,,,,,,,,,,60fde06510c492831b1f4a93,610369cb77f10d45e058ca70,2021-07-29_19h54.46.942,Simcolourproject_2stim_asymm_v5,2020.2.10,MacIntel,60,61025ae37ef11b136ea224fe,,,,,,,,,4259,84,-34,1,0,0,response3disk,,5,-5,-3,1,0,0,rectangle,-5,-3,1,0,0,-5,-3,1,0,0,1,12,172,99,1,,,,,,,,
,,,,,,,,,,,,,FF,,,,,,,,1.178,,,,,,,,,,,,,,,,,,,,,,60fde06510c492831b1f4a93,610369cb77f10d45e058ca70,2021-07-29_19h54.46.942,Simcolourproject_2stim_asymm_v5,2020.2.10,MacIntel,60,61025ae37ef11b136ea224fe,,,,,,,,,2653,-68,-56,1,0,0,response5disk,,2,4,-9,1,0,0,rectangle,30,-92,1,0,0,-15,2,1,0,0,1,13,173,127,1,,response3disk_3,TRUE,4,4,"[233,223,237,19,274,277,17,257,74,31,78,223,98,74,258,220,150,274,105,174]",2.184,rectangle
,,,,,,,,,,,,,FF,,,,,,,,2.339,,,,,,,,,,,,,,,,,,,,,,60fde06510c492831b1f4a93,610369cb77f10d45e058ca70,2021-07-29_19h54.46.942,Simcolourproject_2stim_asymm_v5,2020.2.10,MacIntel,60,61025ae37ef11b136ea224fe,,,,,,,,,2464,103,34,1,0,0,response1disk,,6,16,-13,1,0,0,rectangle,16,-13,1,0,0,16,-13,1,0,0,1,14,174,141,1,,,,,,,,
,,,,,,,,,,,,,FF,,,,,,,,0.836,,,,,,,,,,,,,,,,,,,,,,60fde06510c492831b1f4a93,610369cb77f10d45e058ca70,2021-07-29_19h54.46.942,Simcolourproject_2stim_asymm_v5,2020.2.10,MacIntel,60,61025ae37ef11b136ea224fe,,,,,,,,,4346,-121,-45,1,0,0,response5disk,,2,-17,-6,1,0,0,rectangle,-17,-6,1,0,0,-17,-6,1,0,0,1,15,175,133,1,,,,,,,,
,,,,,,,,,,,,,FF,,,,,,,,0.852,,,,,,,,,,,,,,,,,,,,,,60fde06510c492831b1f4a93,610369cb77f10d45e058ca70,2021-07-29_19h54.46.942,Simcolourproject_2stim_asymm_v5,2020.2.10,MacIntel,60,61025ae37ef11b136ea224fe,,,,,,,,,3103,-83,33,1,0,0,response7disk,,1,-3,-1,1,0,0,rectangle,-3,-1,1,0,0,-3,-1,1,0,0,1,16,176,13,1,,,,,,,,
,,,,,,,,,,,,,FF,,,,,,,,1.599,,,,,,,,,,,,,,,,,,,,,,60fde06510c492831b1f4a93,610369cb77f10d45e058ca70,2021-07-29_19h54.46.942,Simcolourproject_2stim_asymm_v5,2020.2.10,MacIntel,60,61025ae37ef11b136ea224fe,,,,,,,,,776,67,-47,1,0,0,response3disk,,5,3,-11,1,0,0,rectangle,3,-11,1,0,0,3,-11,1,0,0,1,17,177,97,1,,,,,,,,
,,,,,,,,,,,,,FF,,,,,,,,1.271,,,,,,,,,,,,,,,,,,,,,,60fde06510c492831b1f4a93,610369cb77f10d45e058ca70,2021-07-29_19h54.46.942,Simcolourproject_2stim_asymm_v5,2020.2.10,MacIntel,60,61025ae37ef11b136ea224fe,,,,,,,,,1104,27,71,1,0,0,response1disk,,7,0,6,1,0,0,rectangle,0,6,1,0,0,0,6,1,0,0,1,18,178,43,1,,,,,,,,
,,,,,,,,,,,,,FF,,,,,,,,1.274,,,,,,,,,,,,,,,,,,,,,,60fde06510c492831b1f4a93,610369cb77f10d45e058ca70,2021-07-29_19h54.46.942,Simcolourproject_2stim_asymm_v5,2020.2.10,MacIntel,60,61025ae37ef11b136ea224fe,,,,,,,,,1807,85,-46,1,0,0,response3disk,,5,-4,-5,1,0,0,rectangle,-4,-5,1,0,0,-4,-5,1,0,0,1,19,179,113,1,,,,,,,,
,,,,,,,,,,,,,FF,,,,,,,,1.279,,,,,,,,,,,,,,,,,,,,,,60fde06510c492831b1f4a93,610369cb77f10d45e058ca70,2021-07-29_19h54.46.942,Simcolourproject_2stim_asymm_v5,2020.2.10,MacIntel,60,61025ae37ef11b136ea224fe,,,,,,,,,289,46,-85,1,0,0,response3disk,,4,8,-5,1,0,0,rectangle,8,-5,1,0,0,8,-5,1,0,0,1,20,180,10,1,,,,,,,,
,,,,,,,,,,,,,FF,,,,,,,,1.99,,,,,,,,,,,,,,,,,,,,,,60fde06510c492831b1f4a93,610369cb77f10d45e058ca70,2021-07-29_19h54.46.942,Simcolourproject_2stim_asymm_v5,2020.2.10,MacIntel,60,61025ae37ef11b136ea224fe,,,,,,,,,483,90,38,1,0,0,response1disk,,6,9,-9,1,0,0,rectangle,9,-9,1,0,0,9,-9,1,0,0,1,21,181,136,1,,,,,,,,
,,,,,,,,,,,,,FF,,,,,,,,1.251,,,,,,,,,,,,,,,,,,,,,,60fde06510c492831b1f4a93,610369cb77f10d45e058ca70,2021-07-29_19h54.46.942,Simcolourproject_2stim_asymm_v5,2020.2.10,MacIntel,60,61025ae37ef11b136ea224fe,,,,,,,,,1864,49,88,1,0,0,response1disk,,7,-2,6,1,0,0,rectangle,-2,6,1,0,0,-2,6,1,0,0,1,22,182,150,1,,,,,,,,
,,,,,,,,,,,,,FF,,,,,,,,2.3,,,,,,,,,,,,,,,,,,,,,,60fde06510c492831b1f4a93,610369cb77f10d45e058ca70,2021-07-29_19h54.46.942,Simcolourproject_2stim_asymm_v5,2020.2.10,MacIntel,60,61025ae37ef11b136ea224fe,,,,,,,,,2438,76,-35,1,0,0,response3disk,,5,13,4,1,0,0,rectangle,13,4,1,0,0,13,4,1,0,0,1,23,183,142,1,,,,,,,,
,,,,,,,,,,,,,FF,,,,,,,,5.203,,,,,,,,,,,,,,,,,,,,,,60fde06510c492831b1f4a93,610369cb77f10d45e058ca70,2021-07-29_19h54.46.942,Simcolourproject_2stim_asymm_v5,2020.2.10,MacIntel,60,61025ae37ef11b136ea224fe,,,,,,,,,596,48,88,1,0,0,response1disk,,7,2,5,1,0,0,rectangle,2,5,1,0,0,2,5,1,0,0,1,24,184,75,1,,,,,,,,
,,,,,,,,,,,,,FF,,,,,,,,1.478,,,,,,,,,,,,,,,,,,,,,,60fde06510c492831b1f4a93,610369cb77f10d45e058ca70,2021-07-29_19h54.46.942,Simcolourproject_2stim_asymm_v5,2020.2.10,MacIntel,60,61025ae37ef11b136ea224fe,,,,,,,,,70,-108,58,1,0,0,response7disk,,1,-10,-4,1,0,0,rectangle,-10,-4,1,0,0,-10,-4,1,0,0,1,25,185,87,1,,,,,,,,
,,,,,,,,,,,,,FF,,,,,,,,1.753,,,,,,,,,,,,,,,,,,,,,,60fde06510c492831b1f4a93,610369cb77f10d45e058ca70,2021-07-29_19h54.46.942,Simcolourproject_2stim_asymm_v5,2020.2.10,MacIntel,60,61025ae37ef11b136ea224fe,,,,,,,,,1404,88,-38,1,0,0,response3disk,,5,17,-3,1,0,0,rectangle,17,-3,1,0,0,17,-3,1,0,0,1,26,186,0,1,,,,,,,,
,,,,,,,,,,,,,FF,,,,,,,,5.344,,,,,,,,,,,,,,,,,,,,,,60fde06510c492831b1f4a93,610369cb77f10d45e058ca70,2021-07-29_19h54.46.942,Simcolourproject_2stim_asymm_v5,2020.2.10,MacIntel,60,61025ae37ef11b136ea224fe,,,,,,,,,937,84,30,1,0,0,response1disk,,6,5,6,1,0,0,rectangle,5,6,1,0,0,5,6,1,0,0,1,27,187,53,1,,,,,,,,
,,,,,,,,,,,,,FF,,,,,,,,3.326,,,,,,,,,,,,,,,,,,,,,,60fde06510c492831b1f4a93,610369cb77f10d45e058ca70,2021-07-29_19h54.46.942,Simcolourproject_2stim_asymm_v5,2020.2.10,MacIntel,60,61025ae37ef11b136ea224fe,,,,,,,,,1023,69,112,1,0,0,response1disk,,7,-17,-4,1,0,0,rectangle,-17,-4,1,0,0,-17,-4,1,0,0,1,28,188,40,1,,,,,,,,
,,,,,,,,,,,,,FF,,,,,,,,0.813,,,,,,,,,,,,,,,,,,,,,,60fde06510c492831b1f4a93,610369cb77f10d45e058ca70,2021-07-29_19h54.46.942,Simcolourproject_2stim_asymm_v5,2020.2.10,MacIntel,60,61025ae37ef11b136ea224fe,,,,,,,,,2467,112,80,1,0,0,response1disk,,6,2,-9,1,0,0,rectangle,2,-9,1,0,0,2,-9,1,0,0,1,29,189,149,1,,,,,,,,
,,,,,,,,,,,,,FF,,,,,,,,1.472,,,,,,,,,,,,,,,,,,,,,,60fde06510c492831b1f4a93,610369cb77f10d45e058ca70,2021-07-29_19h54.46.942,Simcolourproject_2stim_asymm_v5,2020.2.10,MacIntel,60,61025ae37ef11b136ea224fe,,,,,,,,,2843,-61,-75,1,0,0,response5disk,,3,-7,10,1,0,0,rectangle,-7,10,1,0,0,-7,10,1,0,0,1,30,190,27,1,,,,,,,,
,,,,,,,,,,,,,FF,,,,,,,,1.307,,,,,,,,,,,,,,,,,,,,,,60fde06510c492831b1f4a93,610369cb77f10d45e058ca70,2021-07-29_19h54.46.942,Simcolourproject_2stim_asymm_v5,2020.2.10,MacIntel,60,61025ae37ef11b136ea224fe,,,,,,,,,1954,-107,-39,1,0,0,response5disk,,2,-10,9,1,0,0,rectangle,-10,9,1,0,0,-10,9,1,0,0,1,31,191,147,1,,,,,,,,
,,,,,,,,,,,,,FF,,,,,,,,3.627,,,,,,,,,,,,,,,,,,,,,,60fde06510c492831b1f4a93,610369cb77f10d45e058ca70,2021-07-29_19h54.46.942,Simcolourproject_2stim_asymm_v5,2020.2.10,MacIntel,60,61025ae37ef11b136ea224fe,,,,,,,,,2171,-111,-52,1,0,0,response5disk,,2,2,-3,1,0,0,rectangle,2,-3,1,0,0,2,-3,1,0,0,1,32,192,65,1,,,,,,,,
,,,,,,,,,,,,,FF,,,,,,,,1.153,,,,,,,,,,,,,,,,,,,,,,60fde06510c492831b1f4a93,610369cb77f10d45e058ca70,2021-07-29_19h54.46.942,Simcolourproject_2stim_asymm_v5,2020.2.10,MacIntel,60,61025ae37ef11b136ea224fe,,,,,,,,,590,79,-37,1,0,0,response3disk,,5,-4,3,1,0,0,rectangle,-4,3,1,0,0,-4,3,1,0,0,1,33,193,66,1,,,,,,,,
,,,,,,,,,,,,,FF,,,,,,,,3.118,,,,,,,,,,,,,,,,,,,,,,60fde06510c492831b1f4a93,610369cb77f10d45e058ca70,2021-07-29_19h54.46.942,Simcolourproject_2stim_asymm_v5,2020.2.10,MacIntel,60,61025ae37ef11b136ea224fe,,,,,,,,,220,83,-26,1,0,0,response3disk,,5,0,-11,1,0,0,rectangle,0,-11,1,0,0,0,-11,1,0,0,1,34,194,51,1,,,,,,,,
,,,,,,,,,,,,,FF,,,,,,,,1.923,,,,,,,,,,,,,,,,,,,,,,60fde06510c492831b1f4a93,610369cb77f10d45e058ca70,2021-07-29_19h54.46.942,Simcolourproject_2stim_asymm_v5,2020.2.10,MacIntel,60,61025ae37ef11b136ea224fe,,,,,,,,,2232,-58,-79,1,0,0,response5disk,,3,-17,3,1,0,0,rectangle,-17,3,1,0,0,-17,3,1,0,0,1,35,195,71,1,,,,,,,,
,,,,,,,,,,,,,FF,,,,,,,,1.364,,,,,,,,,,,,,,,,,,,,,,60fde06510c492831b1f4a93,610369cb77f10d45e058ca70,2021-07-29_19h54.46.942,Simcolourproject_2stim_asymm_v5,2020.2.10,MacIntel,60,61025ae37ef11b136ea224fe,,,,,,,,,2878,-40,-67,1,0,0,response5disk,,3,-25,0,1,0,0,rectangle,-25,0,1,0,0,-25,0,1,0,0,1,36,196,64,1,,,,,,,,
,,,,,,,,,,,,,FF,,,,,,,,1.198,,,,,,,,,,,,,,,,,,,,,,60fde06510c492831b1f4a93,610369cb77f10d45e058ca70,2021-07-29_19h54.46.942,Simcolourproject_2stim_asymm_v5,2020.2.10,MacIntel,60,61025ae37ef11b136ea224fe,,,,,,,,,442,-93,-35,1,0,0,response5disk,,2,-2,-3,1,0,0,rectangle,-2,-3,1,0,0,-2,-3,1,0,0,1,37,197,111,1,,,,,,,,
,,,,,,,,,,,,,FF,,,,,,,,1.388,,,,,,,,,,,,,,,,,,,,,,60fde06510c492831b1f4a93,610369cb77f10d45e058ca70,2021-07-29_19h54.46.942,Simcolourproject_2stim_asymm_v5,2020.2.10,MacIntel,60,61025ae37ef11b136ea224fe,,,,,,,,,3202,-113,49,1,0,0,response7disk,,1,-6,-3,1,0,0,rectangle,-6,-3,1,0,0,-6,-3,1,0,0,1,38,198,67,1,,,,,,,,
,,,,,,,,,,,,,FF,,,,,,,,1.061,,,,,,,,,,,,,,,,,,,,,,60fde06510c492831b1f4a93,610369cb77f10d45e058ca70,2021-07-29_19h54.46.942,Simcolourproject_2stim_asymm_v5,2020.2.10,MacIntel,60,61025ae37ef11b136ea224fe,,,,,,,,,844,82,59,1,0,0,response1disk,,6,-13,14,1,0,0,rectangle,-13,14,1,0,0,-13,14,1,0,0,1,39,199,63,1,,,,,,,,
,,,,,,,,,,,,,FF,,,,,,,,1.031,,,,,,,,,,,,,,,,,,,,,,60fde06510c492831b1f4a93,610369cb77f10d45e058ca70,2021-07-29_19h54.46.942,Simcolourproject_2stim_asymm_v5,2020.2.10,MacIntel,60,61025ae37ef11b136ea224fe,,,,,,,,,3289,-84,-58,1,0,0,response5disk,,2,-2,8,1,0,0,rectangle,-2,8,1,0,0,-2,8,1,0,0,1,40,200,109,1,,,,,,,,
,,,,,,,,,,,,,FF,,,,,,,,2.994,,,,,,,,,,,,,,,,,,,,,,60fde06510c492831b1f4a93,610369cb77f10d45e058ca70,2021-07-29_19h54.46.942,Simcolourproject_2stim_asymm_v5,2020.2.10,MacIntel,60,61025ae37ef11b136ea224fe,,,,,,,,,1806,75,-39,1,0,0,response3disk,,5,-19,5,1,0,0,rectangle,-19,5,1,0,0,-19,5,1,0,0,1,41,201,121,1,,,,,,,,
,,,,,,,,,,,,,FF,,,,,,,,4.021,,,,,,,,,,,,,,,,,,,,,,60fde06510c492831b1f4a93,610369cb77f10d45e058ca70,2021-07-29_19h54.46.942,Simcolourproject_2stim_asymm_v5,2020.2.10,MacIntel,60,61025ae37ef11b136ea224fe,,,,,,,,,2921,93,45,1,0,0,response1disk,,6,-2,-2,1,0,0,rectangle,-2,-2,1,0,0,-2,-2,1,0,0,1,42,202,131,1,,,,,,,,
,,,,,,,,,,,,,FF,,,,,,,,1.165,,,,,,,,,,,,,,,,,,,,,,60fde06510c492831b1f4a93,610369cb77f10d45e058ca70,2021-07-29_19h54.46.942,Simcolourproject_2stim_asymm_v5,2020.2.10,MacIntel,60,61025ae37ef11b136ea224fe,,,,,,,,,4061,77,-48,1,0,0,response3disk,,5,6,-8,1,0,0,rectangle,6,-8,1,0,0,6,-8,1,0,0,1,43,203,59,1,,,,,,,,
,,,,,,,,,,,,,FF,,,,,,,,1.566,,,,,,,,,,,,,,,,,,,,,,60fde06510c492831b1f4a93,610369cb77f10d45e058ca70,2021-07-29_19h54.46.942,Simcolourproject_2stim_asymm_v5,2020.2.10,MacIntel,60,61025ae37ef11b136ea224fe,,,,,,,,,1414,44,-78,1,0,0,response3disk,,4,-8,-1,1,0,0,rectangle,-8,-1,1,0,0,-8,-1,1,0,0,1,44,204,46,1,,,,,,,,
,,,,,,,,,,,,,FF,,,,,,,,3.399,,,,,,,,,,,,,,,,,,,,,,60fde06510c492831b1f4a93,610369cb77f10d45e058ca70,2021-07-29_19h54.46.942,Simcolourproject_2stim_asymm_v5,2020.2.10,MacIntel,60,61025ae37ef11b136ea224fe,,,,,,,,,1031,-42,-81,1,0,0,response5disk,,3,-3,-5,1,0,0,rectangle,-3,-5,1,0,0,-3,-5,1,0,0,1,45,205,50,1,,,,,,,,
,,,,,,,,,,,,,FF,,,,,,,,1.173,,,,,,,,,,,,,,,,,,,,,,60fde06510c492831b1f4a93,610369cb77f10d45e058ca70,2021-07-29_19h54.46.942,Simcolourproject_2stim_asymm_v5,2020.2.10,MacIntel,60,61025ae37ef11b136ea224fe,,,,,,,,,3521,-30,-77,1,0,0,response5disk,,3,-10,17,1,0,0,rectangle,-10,17,1,0,0,-10,17,1,0,0,1,46,206,61,1,,,,,,,,
,,,,,,,,,,,,,FF,,,,,,,,1.415,,,,,,,,,,,,,,,,,,,,,,60fde06510c492831b1f4a93,610369cb77f10d45e058ca70,2021-07-29_19h54.46.942,Simcolourproject_2stim_asymm_v5,2020.2.10,MacIntel,60,61025ae37ef11b136ea224fe,,,,,,,,,3717,86,45,1,0,0,response1disk,,6,-3,-8,1,0,0,rectangle,-3,-8,1,0,0,-3,-8,1,0,0,1,47,207,148,1,,,,,,,,
,,,,,,,,,,,,,FF,,,,,,,,0.993,,,,,,,,,,,,,,,,,,,,,,60fde06510c492831b1f4a93,610369cb77f10d45e058ca70,2021-07-29_19h54.46.942,Simcolourproject_2stim_asymm_v5,2020.2.10,MacIntel,60,61025ae37ef11b136ea224fe,,,,,,,,,3331,-117,-42,1,0,0,response5disk,,2,-21,1,1,0,0,rectangle,-21,1,1,0,0,-21,1,1,0,0,1,48,208,102,1,,,,,,,,
,,,,,,,,,,,,,FF,,,,,,,,1.065,,,,,,,,,,,,,,,,,,,,,,60fde06510c492831b1f4a93,610369cb77f10d45e058ca70,2021-07-29_19h54.46.942,Simcolourproject_2stim_asymm_v5,2020.2.10,MacIntel,60,61025ae37ef11b136ea224fe,,,,,,,,,593,78,42,1,0,0,response1disk,,6,10,2,1,0,0,rectangle,10,2,1,0,0,10,2,1,0,0,1,49,209,68,1,,,,,,,,
,,,,,,,,,,,,,FF,,,,,,,,0.808,,,,,,,,,,,,,,,,,,,,,,60fde06510c492831b1f4a93,610369cb77f10d45e058ca70,2021-07-29_19h54.46.942,Simcolourproject_2stim_asymm_v5,2020.2.10,MacIntel,60,61025ae37ef11b136ea224fe,,,,,,,,,1791,61,-49,1,0,0,response3disk,,5,-15,-2,1,0,0,rectangle,-15,-2,1,0,0,-15,-2,1,0,0,1,50,210,49,1,,,,,,,,
,,,,,,,,,,,,,FF,,,,,,,,1.123,,,,,,,,,,,,,,,,,,,,,,60fde06510c492831b1f4a93,610369cb77f10d45e058ca70,2021-07-29_19h54.46.942,Simcolourproject_2stim_asymm_v5,2020.2.10,MacIntel,60,61025ae37ef11b136ea224fe,,,,,,,,,3664,-105,56,1,0,0,response7disk,,1,-6,-2,1,0,0,rectangle,-6,-2,1,0,0,-6,-2,1,0,0,1,51,211,54,1,,,,,,,,
,,,,,,,,,,,,,FF,,,,,,,,1.548,,,,,,,,,,,,,,,,,,,,,,60fde06510c492831b1f4a93,610369cb77f10d45e058ca70,2021-07-29_19h54.46.942,Simcolourproject_2stim_asymm_v5,2020.2.10,MacIntel,60,61025ae37ef11b136ea224fe,,,,,,,,,2887,-87,42,1,0,0,response7disk,,1,-17,8,1,0,0,rectangle,-17,8,1,0,0,-17,8,1,0,0,1,52,212,2,1,,,,,,,,
,,,,,,,,,,,,,FF,,,,,,,,0.88,,,,,,,,,,,,,,,,,,,,,,60fde06510c492831b1f4a93,610369cb77f10d45e058ca70,2021-07-29_19h54.46.942,Simcolourproject_2stim_asymm_v5,2020.2.10,MacIntel,60,61025ae37ef11b136ea224fe,,,,,,,,,2777,-99,39,1,0,0,response7disk,,1,-20,7,1,0,0,rectangle,-20,7,1,0,0,-20,7,1,0,0,1,53,213,25,1,,,,,,,,
,,,,,,,,,,,,,FF,,,,,,,,0.891,,,,,,,,,,,,,,,,,,,,,,60fde06510c492831b1f4a93,610369cb77f10d45e058ca70,2021-07-29_19h54.46.942,Simcolourproject_2stim_asymm_v5,2020.2.10,MacIntel,60,61025ae37ef11b136ea224fe,,,,,,,,,2810,25,-84,1,0,0,response3disk,,4,-18,13,1,0,0,rectangle,-18,13,1,0,0,-18,13,1,0,0,1,54,214,70,1,,,,,,,,
,,,,,,,,,,,,,FF,,,,,,,,1.484,,,,,,,,,,,,,,,,,,,,,,60fde06510c492831b1f4a93,610369cb77f10d45e058ca70,2021-07-29_19h54.46.942,Simcolourproject_2stim_asymm_v5,2020.2.10,MacIntel,60,61025ae37ef11b136ea224fe,,,,,,,,,711,48,-71,1,0,0,response3disk,,4,9,-9,1,0,0,rectangle,9,-9,1,0,0,9,-9,1,0,0,1,55,215,139,1,,,,,,,,
,,,,,,,,,,,,,FF,,,,,,,,0.922,,,,,,,,,,,,,,,,,,,,,,60fde06510c492831b1f4a93,610369cb77f10d45e058ca70,2021-07-29_19h54.46.942,Simcolourproject_2stim_asymm_v5,2020.2.10,MacIntel,60,61025ae37ef11b136ea224fe,,,,,,,,,1337,72,-37,1,0,0,response3disk,,5,2,-10,1,0,0,rectangle,2,-10,1,0,0,2,-10,1,0,0,1,56,216,144,1,,,,,,,,
,,,,,,,,,,,,,FF,,,,,,,,1.774,,,,,,,,,,,,,,,,,,,,,,60fde06510c492831b1f4a93,610369cb77f10d45e058ca70,2021-07-29_19h54.46.942,Simcolourproject_2stim_asymm_v5,2020.2.10,MacIntel,60,61025ae37ef11b136ea224fe,,,,,,,,,2117,32,-85,1,0,0,response3disk,,4,-13,-2,1,0,0,rectangle,-13,-2,1,0,0,-13,-2,1,0,0,1,57,217,157,1,,,,,,,,
,,,,,,,,,,,,,FF,,,,,,,,0.909,,,,,,,,,,,,,,,,,,,,,,60fde06510c492831b1f4a93,610369cb77f10d45e058ca70,2021-07-29_19h54.46.942,Simcolourproject_2stim_asymm_v5,2020.2.10,MacIntel,60,61025ae37ef11b136ea224fe,,,,,,,,,4334,38,87,1,0,0,response1disk,,7,2,0,1,0,0,rectangle,2,0,1,0,0,2,0,1,0,0,1,58,218,38,1,,,,,,,,
,,,,,,,,,,,,,FF,,,,,,,,3.135,,,,,,,,,,,,,,,,,,,,,,60fde06510c492831b1f4a93,610369cb77f10d45e058ca70,2021-07-29_19h54.46.942,Simcolourproject_2stim_asymm_v5,2020.2.10,MacIntel,60,61025ae37ef11b136ea224fe,,,,,,,,,1941,81,27,1,0,0,response1disk,,6,13,4,1,0,0,rectangle,-38,98,1,0,0,-10,-5,1,0,0,1,59,219,89,1,,response7disk_3,TRUE,0,0,"[233,223,237,19,274,277,17,257,74,31,78,223,98,74,258,220,150,274,105,174]",1.64,rectangle
,,,,,,,,,,,,,FF,,,,,,,,3.182,,,,,,,,,,,,,,,,,,,,,,60fde06510c492831b1f4a93,610369cb77f10d45e058ca70,2021-07-29_19h54.46.942,Simcolourproject_2stim_asymm_v5,2020.2.10,MacIntel,60,61025ae37ef11b136ea224fe,,,,,,,,,2606,-54,-89,1,0,0,response5disk,,3,-13,3,1,0,0,rectangle,-13,3,1,0,0,-13,3,1,0,0,1,60,220,120,1,,,,,,,,
,,,,,,,,,,,,,FF,,,,,,,,1.856,,,,,,,,,,,,,,,,,,,,,,60fde06510c492831b1f4a93,610369cb77f10d45e058ca70,2021-07-29_19h54.46.942,Simcolourproject_2stim_asymm_v5,2020.2.10,MacIntel,60,61025ae37ef11b136ea224fe,,,,,,,,,1720,44,96,1,0,0,response1disk,,7,3,-7,1,0,0,rectangle,3,-7,1,0,0,3,-7,1,0,0,1,61,221,78,1,,,,,,,,
,,,,,,,,,,,,,FF,,,,,,,,0.915,,,,,,,,,,,,,,,,,,,,,,60fde06510c492831b1f4a93,610369cb77f10d45e058ca70,2021-07-29_19h54.46.942,Simcolourproject_2stim_asymm_v5,2020.2.10,MacIntel,60,61025ae37ef11b136ea224fe,,,,,,,,,2338,57,50,1,0,0,response1disk,,6,7,1,1,0,0,rectangle,-33,91,1,0,0,-8,-4,1,0,0,1,62,222,152,1,,response7disk_3,TRUE,0,0,"[233,223,237,19,274,277,17,257,74,31,78,223,98,74,258,220,150,274,105,174]",2.675,rectangle
,,,,,,,,,,,,,FF,,,,,,,,1.075,,,,,,,,,,,,,,,,,,,,,,60fde06510c492831b1f4a93,610369cb77f10d45e058ca70,2021-07-29_19h54.46.942,Simcolourproject_2stim_asymm_v5,2020.2.10,MacIntel,60,61025ae37ef11b136ea224fe,,,,,,,,,506,78,-57,1,0,0,response3disk,,5,-2,-2,1,0,0,rectangle,-2,-2,1,0,0,-2,-2,1,0,0,1,63,223,33,1,,,,,,,,
,,,,,,,,,,,,,FF,,,,,,,,1.227,,,,,,,,,,,,,,,,,,,,,,60fde06510c492831b1f4a93,610369cb77f10d45e058ca70,2021-07-29_19h54.46.942,Simcolourproject_2stim_asymm_v5,2020.2.10,MacIntel,60,61025ae37ef11b136ea224fe,,,,,,,,,2607,-104,38,1,0,0,response7disk,,1,-11,2,1,0,0,rectangle,-11,2,1,0,0,-11,2,1,0,0,1,64,224,154,1,,,,,,,,
,,,,,,,,,,,,,FF,,,,,,,,2.033,,,,,,,,,,,,,,,,,,,,,,60fde06510c492831b1f4a93,610369cb77f10d45e058ca70,2021-07-29_19h54.46.942,Simcolourproject_2stim_asymm_v5,2020.2.10,MacIntel,60,61025ae37ef11b136ea224fe,,,,,,,,,3503,-97,-45,1,0,0,response5disk,,2,1,-9,1,0,0,rectangle,1,-9,1,0,0,1,-9,1,0,0,1,65,225,124,1,,,,,,,,
,,,,,,,,,,,,,FF,,,,,,,,2.297,,,,,,,,,,,,,,,,,,,,,,60fde06510c492831b1f4a93,610369cb77f10d45e058ca70,2021-07-29_19h54.46.942,Simcolourproject_2stim_asymm_v5,2020.2.10,MacIntel,60,61025ae37ef11b136ea224fe,,,,,,,,,3174,95,-37,1,0,0,response3disk,,5,12,-3,1,0,0,rectangle,12,-3,1,0,0,12,-3,1,0,0,1,66,226,39,1,,,,,,,,
,,,,,,,,,,,,,FF,,,,,,,,2.057,,,,,,,,,,,,,,,,,,,,,,60fde06510c492831b1f4a93,610369cb77f10d45e058ca70,2021-07-29_19h54.46.942,Simcolourproject_2stim_asymm_v5,2020.2.10,MacIntel,60,61025ae37ef11b136ea224fe,,,,,,,,,2892,-114,-65,1,0,0,response5disk,,2,-34,2,1,0,0,rectangle,-34,2,1,0,0,-34,2,1,0,0,1,67,227,125,1,,,,,,,,
,,,,,,,,,,,,,FF,,,,,,,,1.752,,,,,,,,,,,,,,,,,,,,,,60fde06510c492831b1f4a93,610369cb77f10d45e058ca70,2021-07-29_19h54.46.942,Simcolourproject_2stim_asymm_v5,2020.2.10,MacIntel,60,61025ae37ef11b136ea224fe,,,,,,,,,2790,-95,-62,1,0,0,response5disk,,2,-7,2,1,0,0,rectangle,-7,2,1,0,0,-7,2,1,0,0,1,68,228,35,1,,,,,,,,
,,,,,,,,,,,,,FF,,,,,,,,1.625,,,,,,,,,,,,,,,,,,,,,,60fde06510c492831b1f4a93,610369cb77f10d45e058ca70,2021-07-29_19h54.46.942,Simcolourproject_2stim_asymm_v5,2020.2.10,MacIntel,60,61025ae37ef11b136ea224fe,,,,,,,,,449,86,-34,1,0,0,response3disk,,5,-2,0,1,0,0,rectangle,-2,0,1,0,0,-2,0,1,0,0,1,69,229,42,1,,,,,,,,
,,,,,,,,,,,,,FF,,,,,,,,0.833,,,,,,,,,,,,,,,,,,,,,,60fde06510c492831b1f4a93,610369cb77f10d45e058ca70,2021-07-29_19h54.46.942,Simcolourproject_2stim_asymm_v5,2020.2.10,MacIntel,60,61025ae37ef11b136ea224fe,,,,,,,,,3074,81,-43,1,0,0,response3disk,,5,-1,3,1,0,0,rectangle,-1,3,1,0,0,-1,3,1,0,0,1,70,230,115,1,,,,,,,,
,,,,,,,,,,,,,FF,,,,,,,,1.321,,,,,,,,,,,,,,,,,,,,,,60fde06510c492831b1f4a93,610369cb77f10d45e058ca70,2021-07-29_19h54.46.942,Simcolourproject_2stim_asymm_v5,2020.2.10,MacIntel,60,61025ae37ef11b136ea224fe,,,,,,,,,627,39,-114,1,0,0,response3disk,,4,-11,5,1,0,0,rectangle,-11,5,1,0,0,-11,5,1,0,0,1,71,231,100,1,,,,,,,,
,,,,,,,,,,,,,FF,,,,,,,,1.685,,,,,,,,,,,,,,,,,,,,,,60fde06510c492831b1f4a93,610369cb77f10d45e058ca70,2021-07-29_19h54.46.942,Simcolourproject_2stim_asymm_v5,2020.2.10,MacIntel,60,61025ae37ef11b136ea224fe,,,,,,,,,199,35,-80,1,0,0,response3disk,,4,-10,-1,1,0,0,rectangle,-84,-45,1,0,0,-13,-1,1,0,0,1,72,232,156,1,,response5disk_3,TRUE,2,2,"[233,223,237,19,274,277,17,257,74,31,78,223,98,74,258,220,150,274,105,174]",1.811,rectangle
,,,,,,,,,,,,,FF,,,,,,,,0.925,,,,,,,,,,,,,,,,,,,,,,60fde06510c492831b1f4a93,610369cb77f10d45e058ca70,2021-07-29_19h54.46.942,Simcolourproject_2stim_asymm_v5,2020.2.10,MacIntel,60,61025ae37ef11b136ea224fe,,,,,,,,,3390,-75,44,1,0,0,response7disk,,1,-22,2,1,0,0,rectangle,-22,2,1,0,0,-22,2,1,0,0,1,73,233,117,1,,,,,,,,
,,,,,,,,,,,,,FF,,,,,,,,0.998,,,,,,,,,,,,,,,,,,,,,,60fde06510c492831b1f4a93,610369cb77f10d45e058ca70,2021-07-29_19h54.46.942,Simcolourproject_2stim_asymm_v5,2020.2.10,MacIntel,60,61025ae37ef11b136ea224fe,,,,,,,,,3048,-79,-53,1,0,0,response5disk,,2,-12,1,1,0,0,rectangle,-12,1,1,0,0,-12,1,1,0,0,1,74,234,77,1,,,,,,,,
,,,,,,,,,,,,,FF,,,,,,,,1.8,,,,,,,,,,,,,,,,,,,,,,60fde06510c492831b1f4a93,610369cb77f10d45e058ca70,2021-07-29_19h54.46.942,Simcolourproject_2stim_asymm_v5,2020.2.10,MacIntel,60,61025ae37ef11b136ea224fe,,,,,,,,,1437,92,-55,1,0,0,response3disk,,5,14,5,1,0,0,rectangle,14,5,1,0,0,14,5,1,0,0,1,75,235,108,1,,,,,,,,
,,,,,,,,,,,,,FF,,,,,,,,1.272,,,,,,,,,,,,,,,,,,,,,,60fde06510c492831b1f4a93,610369cb77f10d45e058ca70,2021-07-29_19h54.46.942,Simcolourproject_2stim_asymm_v5,2020.2.10,MacIntel,60,61025ae37ef11b136ea224fe,,,,,,,,,3749,-114,39,1,0,0,response7disk,,1,7,-1,1,0,0,rectangle,59,-95,1,0,0,-6,-1,1,0,0,1,76,236,81,1,,response3disk_3,TRUE,4,4,"[233,223,237,19,274,277,17,257,74,31,78,223,98,74,258,220,150,274,105,174]",2.185,rectangle
,,,,,,,,,,,,,FF,,,,,,,,0.933,,,,,,,,,,,,,,,,,,,,,,60fde06510c492831b1f4a93,610369cb77f10d45e058ca70,2021-07-29_19h54.46.942,Simcolourproject_2stim_asymm_v5,2020.2.10,MacIntel,60,61025ae37ef11b136ea224fe,,,,,,,,,2023,98,-56,1,0,0,response3disk,,5,-3,-2,1,0,0,rectangle,-3,-2,1,0,0,-3,-2,1,0,0,1,77,237,48,1,,,,,,,,
,,,,,,,,,,,,,FF,,,,,,,,1.086,,,,,,,,,,,,,,,,,,,,,,60fde06510c492831b1f4a93,610369cb77f10d45e058ca70,2021-07-29_19h54.46.942,Simcolourproject_2stim_asymm_v5,2020.2.10,MacIntel,60,61025ae37ef11b136ea224fe,,,,,,,,,3023,75,43,1,0,0,response1disk,,6,0,-16,1,0,0,rectangle,0,-16,1,0,0,0,-16,1,0,0,1,78,238,86,1,,,,,,,,
,,,,,,,,,,,,,FF,,,,,,,,2.117,,,,,,,,,,,,,,,,,,,,,,60fde06510c492831b1f4a93,610369cb77f10d45e058ca70,2021-07-29_19h54.46.942,Simcolourproject_2stim_asymm_v5,2020.2.10,MacIntel,60,61025ae37ef11b136ea224fe,,,,,,,,,30,58,-31,1,0,0,response3disk,,5,-13,-3,1,0,0,rectangle,-13,-3,1,0,0,-13,-3,1,0,0,1,79,239,36,1,,,,,,,,
,,,,,,,,,,,,,FF,,,,,,,,1.059,,,,,,,,,,,,,,,,,,,,,,60fde06510c492831b1f4a93,610369cb77f10d45e058ca70,2021-07-29_19h54.46.942,Simcolourproject_2stim_asymm_v5,2020.2.10,MacIntel,60,61025ae37ef11b136ea224fe,,,,,,,,,1879,45,-100,1,0,0,response3disk,,4,-6,-7,1,0,0,rectangle,-6,-7,1,0,0,-6,-7,1,0,0,1,80,240,82,1,,,,,,,,
,,,,,,,,,,,,,FF,,,,,,,,4.069,,,,,,,,,,,,,,,,,,,,,,60fde06510c492831b1f4a93,610369cb77f10d45e058ca70,2021-07-29_19h54.46.942,Simcolourproject_2stim_asymm_v5,2020.2.10,MacIntel,60,61025ae37ef11b136ea224fe,,,,,,,,,1588,78,-56,1,0,0,response3disk,,5,-21,7,1,0,0,rectangle,-21,7,1,0,0,-21,7,1,0,0,1,81,241,17,1,,,,,,,,
,,,,,,,,,,,,,FF,,,,,,,,0.812,,,,,,,,,,,,,,,,,,,,,,60fde06510c492831b1f4a93,610369cb77f10d45e058ca70,2021-07-29_19h54.46.942,Simcolourproject_2stim_asymm_v5,2020.2.10,MacIntel,60,61025ae37ef11b136ea224fe,,,,,,,,,4173,46,72,1,0,0,response1disk,,7,-7,8,1,0,0,rectangle,-7,8,1,0,0,-7,8,1,0,0,1,82,242,130,1,,,,,,,,
,,,,,,,,,,,,,FF,,,,,,,,1.78,,,,,,,,,,,,,,,,,,,,,,60fde06510c492831b1f4a93,610369cb77f10d45e058ca70,2021-07-29_19h54.46.942,Simcolourproject_2stim_asymm_v5,2020.2.10,MacIntel,60,61025ae37ef11b136ea224fe,,,,,,,,,1779,84,-35,1,0,0,response3disk,,5,-9,0,1,0,0,rectangle,-9,0,1,0,0,-9,0,1,0,0,1,83,243,137,1,,,,,,,,
,,,,,,,,,,,,,FF,,,,,,,,1.334,,,,,,,,,,,,,,,,,,,,,,60fde06510c492831b1f4a93,610369cb77f10d45e058ca70,2021-07-29_19h54.46.942,Simcolourproject_2stim_asymm_v5,2020.2.10,MacIntel,60,61025ae37ef11b136ea224fe,,,,,,,,,3337,-48,-61,1,0,0,response5disk,,3,-12,8,1,0,0,rectangle,-12,8,1,0,0,-12,8,1,0,0,1,84,244,32,1,,,,,,,,
,,,,,,,,,,,,,FF,,,,,,,,1.422,,,,,,,,,,,,,,,,,,,,,,60fde06510c492831b1f4a93,610369cb77f10d45e058ca70,2021-07-29_19h54.46.942,Simcolourproject_2stim_asymm_v5,2020.2.10,MacIntel,60,61025ae37ef11b136ea224fe,,,,,,,,,1121,-74,-43,1,0,0,response5disk,,2,-7,-5,1,0,0,rectangle,-7,-5,1,0,0,-7,-5,1,0,0,1,85,245,29,1,,,,,,,,
,,,,,,,,,,,,,FF,,,,,,,,4.619,,,,,,,,,,,,,,,,,,,,,,60fde06510c492831b1f4a93,610369cb77f10d45e058ca70,2021-07-29_19h54.46.942,Simcolourproject_2stim_asymm_v5,2020.2.10,MacIntel,60,61025ae37ef11b136ea224fe,,,,,,,,,3268,89,40,1,0,0,response1disk,,6,11,-1,1,0,0,rectangle,11,-1,1,0,0,11,-1,1,0,0,1,86,246,5,1,,,,,,,,
,,,,,,,,,,,,,FF,,,,,,,,1.749,,,,,,,,,,,,,,,,,,,,,,60fde06510c492831b1f4a93,610369cb77f10d45e058ca70,2021-07-29_19h54.46.942,Simcolourproject_2stim_asymm_v5,2020.2.10,MacIntel,60,61025ae37ef11b136ea224fe,,,,,,,,,2856,69,31,1,0,0,response1disk,,6,-13,1,1,0,0,rectangle,-13,1,1,0,0,-13,1,1,0,0,1,87,247,94,1,,,,,,,,
,,,,,,,,,,,,,FF,,,,,,,,1.068,,,,,,,,,,,,,,,,,,,,,,60fde06510c492831b1f4a93,610369cb77f10d45e058ca70,2021-07-29_19h54.46.942,Simcolourproject_2stim_asymm_v5,2020.2.10,MacIntel,60,61025ae37ef11b136ea224fe,,,,,,,,,4207,-120,44,1,0,0,response7disk,,1,-3,-1,1,0,0,rectangle,-3,-1,1,0,0,-3,-1,1,0,0,1,88,248,80,1,,,,,,,,
,,,,,,,,,,,,,FF,,,,,,,,2.382,,,,,,,,,,,,,,,,,,,,,,60fde06510c492831b1f4a93,610369cb77f10d45e058ca70,2021-07-29_19h54.46.942,Simcolourproject_2stim_asymm_v5,2020.2.10,MacIntel,60,61025ae37ef11b136ea224fe,,,,,,,,,1566,111,-28,1,0,0,response3disk,,5,-15,3,1,0,0,rectangle,-15,3,1,0,0,-15,3,1,0,0,1,89,249,143,1,,,,,,,,
,,,,,,,,,,,,,FF,,,,,,,,2.418,,,,,,,,,,,,,,,,,,,,,,60fde06510c492831b1f4a93,610369cb77f10d45e058ca70,2021-07-29_19h54.46.942,Simcolourproject_2stim_asymm_v5,2020.2.10,MacIntel,60,61025ae37ef11b136ea224fe,,,,,,,,,829,35,-72,1,0,0,response3disk,,4,0,0,1,0,0,rectangle,0,0,1,0,0,0,0,1,0,0,1,90,250,119,1,,,,,,,,
,,,,,,,,,,,,,FF,,,,,,,,0.945,,,,,,,,,,,,,,,,,,,,,,60fde06510c492831b1f4a93,610369cb77f10d45e058ca70,2021-07-29_19h54.46.942,Simcolourproject_2stim_asymm_v5,2020.2.10,MacIntel,60,61025ae37ef11b136ea224fe,,,,,,,,,2764,61,20,1,0,0,response1disk,,6,9,0,1,0,0,rectangle,9,0,1,0,0,9,0,1,0,0,1,91,251,37,1,,,,,,,,
,,,,,,,,,,,,,FF,,,,,,,,1.645,,,,,,,,,,,,,,,,,,,,,,60fde06510c492831b1f4a93,610369cb77f10d45e058ca70,2021-07-29_19h54.46.942,Simcolourproject_2stim_asymm_v5,2020.2.10,MacIntel,60,61025ae37ef11b136ea224fe,,,,,,,,,1863,82,51,1,0,0,response1disk,,6,-18,3,1,0,0,rectangle,-18,3,1,0,0,-18,3,1,0,0,1,92,252,6,1,,,,,,,,
,,,,,,,,,,,,,FF,,,,,,,,2.37,,,,,,,,,,,,,,,,,,,,,,60fde06510c492831b1f4a93,610369cb77f10d45e058ca70,2021-07-29_19h54.46.942,Simcolourproject_2stim_asymm_v5,2020.2.10,MacIntel,60,61025ae37ef11b136ea224fe,,,,,,,,,925,49,75,1,0,0,response1disk,,7,-1,7,1,0,0,rectangle,-1,7,1,0,0,-1,7,1,0,0,1,93,253,23,1,,,,,,,,
,,,,,,,,,,,,,FF,,,,,,,,1.685,,,,,,,,,,,,,,,,,,,,,,60fde06510c492831b1f4a93,610369cb77f10d45e058ca70,2021-07-29_19h54.46.942,Simcolourproject_2stim_asymm_v5,2020.2.10,MacIntel,60,61025ae37ef11b136ea224fe,,,,,,,,,474,61,40,1,0,0,response1disk,,6,18,3,1,0,0,rectangle,18,3,1,0,0,18,3,1,0,0,1,94,254,69,1,,,,,,,,
,,,,,,,,,,,,,FF,,,,,,,,1.24,,,,,,,,,,,,,,,,,,,,,,60fde06510c492831b1f4a93,610369cb77f10d45e058ca70,2021-07-29_19h54.46.942,Simcolourproject_2stim_asymm_v5,2020.2.10,MacIntel,60,61025ae37ef11b136ea224fe,,,,,,,,,1449,-80,-42,1,0,0,response5disk,,2,-11,2,1,0,0,rectangle,-11,2,1,0,0,-11,2,1,0,0,1,95,255,88,1,,,,,,,,
,,,,,,,,,,,,,FF,,,,,,,,1.401,,,,,,,,,,,,,,,,,,,,,,60fde06510c492831b1f4a93,610369cb77f10d45e058ca70,2021-07-29_19h54.46.942,Simcolourproject_2stim_asymm_v5,2020.2.10,MacIntel,60,61025ae37ef11b136ea224fe,,,,,,,,,2680,-47,-94,1,0,0,response5disk,,3,-12,-9,1,0,0,rectangle,-59,-91,1,0,0,-16,1,1,0,0,1,96,256,129,1,,response5disk_3,TRUE,3,3,"[233,223,237,19,274,277,17,257,74,31,78,223,98,74,258,220,150,274,105,174]",2.835,rectangle
,,,,,,,,,,,,,FF,,,,,,,,1.379,,,,,,,,,,,,,,,,,,,,,,60fde06510c492831b1f4a93,610369cb77f10d45e058ca70,2021-07-29_19h54.46.942,Simcolourproject_2stim_asymm_v5,2020.2.10,MacIntel,60,61025ae37ef11b136ea224fe,,,,,,,,,440,-32,-92,1,0,0,response5disk,,3,-17,-3,1,0,0,rectangle,-43,98,1,0,0,4,-7,1,0,0,1,97,257,118,1,,response7disk_3,TRUE,0,0,"[233,223,237,19,274,277,17,257,74,31,78,223,98,74,258,220,150,274,105,174]",2.02,rectangle
,,,,,,,,,,,,,FF,,,,,,,,1.051,,,,,,,,,,,,,,,,,,,,,,60fde06510c492831b1f4a93,610369cb77f10d45e058ca70,2021-07-29_19h54.46.942,Simcolourproject_2stim_asymm_v5,2020.2.10,MacIntel,60,61025ae37ef11b136ea224fe,,,,,,,,,312,50,-66,1,0,0,response3disk,,4,-7,-5,1,0,0,rectangle,-7,-5,1,0,0,-7,-5,1,0,0,1,98,258,90,1,,,,,,,,
,,,,,,,,,,,,,FF,,,,,,,,1,,,,,,,,,,,,,,,,,,,,,,60fde06510c492831b1f4a93,610369cb77f10d45e058ca70,2021-07-29_19h54.46.942,Simcolourproject_2stim_asymm_v5,2020.2.10,MacIntel,60,61025ae37ef11b136ea224fe,,,,,,,,,2133,32,86,1,0,0,response1disk,,7,-19,-5,1,0,0,rectangle,-19,-5,1,0,0,-19,-5,1,0,0,1,99,259,112,1,,,,,,,,
,,,,,,,,,,,,,FF,,,,,,,,2.233,,,,,,,,,,,,,,,,,,,,,,60fde06510c492831b1f4a93,610369cb77f10d45e058ca70,2021-07-29_19h54.46.942,Simcolourproject_2stim_asymm_v5,2020.2.10,MacIntel,60,61025ae37ef11b136ea224fe,,,,,,,,,2089,-51,-84,1,0,0,response5disk,,3,-13,-3,1,0,0,rectangle,-13,-3,1,0,0,-13,-3,1,0,0,1,100,260,158,1,,,,,,,,
,,,,,,,,,,,,,FF,,,,,,,,1.334,,,,,,,,,,,,,,,,,,,,,,60fde06510c492831b1f4a93,610369cb77f10d45e058ca70,2021-07-29_19h54.46.942,Simcolourproject_2stim_asymm_v5,2020.2.10,MacIntel,60,61025ae37ef11b136ea224fe,,,,,,,,,175,-89,-37,1,0,0,response5disk,,2,11,-4,1,0,0,rectangle,11,-4,1,0,0,11,-4,1,0,0,1,101,261,45,1,,,,,,,,
,,,,,,,,,,,,,FF,,,,,,,,0.961,,,,,,,,,,,,,,,,,,,,,,60fde06510c492831b1f4a93,610369cb77f10d45e058ca70,2021-07-29_19h54.46.942,Simcolourproject_2stim_asymm_v5,2020.2.10,MacIntel,60,61025ae37ef11b136ea224fe,,,,,,,,,2460,49,81,1,0,0,response1disk,,7,0,-5,1,0,0,rectangle,0,-5,1,0,0,0,-5,1,0,0,1,102,262,123,1,,,,,,,,
,,,,,,,,,,,,,FF,,,,,,,,1.039,,,,,,,,,,,,,,,,,,,,,,60fde06510c492831b1f4a93,610369cb77f10d45e058ca70,2021-07-29_19h54.46.942,Simcolourproject_2stim_asymm_v5,2020.2.10,MacIntel,60,61025ae37ef11b136ea224fe,,,,,,,,,3346,-98,-37,1,0,0,response5disk,,2,-25,6,1,0,0,rectangle,-25,6,1,0,0,-25,6,1,0,0,1,103,263,74,1,,,,,,,,
,,,,,,,,,,,,,FF,,,,,,,,0.798,,,,,,,,,,,,,,,,,,,,,,60fde06510c492831b1f4a93,610369cb77f10d45e058ca70,2021-07-29_19h54.46.942,Simcolourproject_2stim_asymm_v5,2020.2.10,MacIntel,60,61025ae37ef11b136ea224fe,,,,,,,,,2361,-93,44,1,0,0,response7disk,,1,-16,2,1,0,0,rectangle,-16,2,1,0,0,-16,2,1,0,0,1,104,264,85,1,,,,,,,,
,,,,,,,,,,,,,FF,,,,,,,,1.002,,,,,,,,,,,,,,,,,,,,,,60fde06510c492831b1f4a93,610369cb77f10d45e058ca70,2021-07-29_19h54.46.942,Simcolourproject_2stim_asymm_v5,2020.2.10,MacIntel,60,61025ae37ef11b136ea224fe,,,,,,,,,730,80,-36,1,0,0,response3disk,,5,11,2,1,0,0,rectangle,11,2,1,0,0,11,2,1,0,0,1,105,265,103,1,,,,,,,,
,,,,,,,,,,,,,FF,,,,,,,,0.903,,,,,,,,,,,,,,,,,,,,,,60fde06510c492831b1f4a93,610369cb77f10d45e058ca70,2021-07-29_19h54.46.942,Simcolourproject_2stim_asymm_v5,2020.2.10,MacIntel,60,61025ae37ef11b136ea224fe,,,,,,,,,475,90,-54,1,0,0,response3disk,,5,0,-4,1,0,0,rectangle,0,-4,1,0,0,0,-4,1,0,0,1,106,266,1,1,,,,,,,,
,,,,,,,,,,,,,FF,,,,,,,,1.137,,,,,,,,,,,,,,,,,,,,,,60fde06510c492831b1f4a93,610369cb77f10d45e058ca70,2021-07-29_19h54.46.942,Simcolourproject_2stim_asymm_v5,2020.2.10,MacIntel,60,61025ae37ef11b136ea224fe,,,,,,,,,859,75,32,1,0,0,response1disk,,6,24,8,1,0,0,rectangle,24,8,1,0,0,24,8,1,0,0,1,107,267,132,1,,,,,,,,
,,,,,,,,,,,,,FF,,,,,,,,1.396,,,,,,,,,,,,,,,,,,,,,,60fde06510c492831b1f4a93,610369cb77f10d45e058ca70,2021-07-29_19h54.46.942,Simcolourproject_2stim_asymm_v5,2020.2.10,MacIntel,60,61025ae37ef11b136ea224fe,,,,,,,,,2855,-42,-57,1,0,0,response5disk,,3,-12,10,1,0,0,rectangle,-12,10,1,0,0,-12,10,1,0,0,1,108,268,134,1,,,,,,,,
,,,,,,,,,,,,,FF,,,,,,,,2.166,,,,,,,,,,,,,,,,,,,,,,60fde06510c492831b1f4a93,610369cb77f10d45e058ca70,2021-07-29_19h54.46.942,Simcolourproject_2stim_asymm_v5,2020.2.10,MacIntel,60,61025ae37ef11b136ea224fe,,,,,,,,,3737,57,-85,1,0,0,response3disk,,4,7,0,1,0,0,rectangle,7,0,1,0,0,7,0,1,0,0,1,109,269,26,1,,,,,,,,
,,,,,,,,,,,,,FF,,,,,,,,1.361,,,,,,,,,,,,,,,,,,,,,,60fde06510c492831b1f4a93,610369cb77f10d45e058ca70,2021-07-29_19h54.46.942,Simcolourproject_2stim_asymm_v5,2020.2.10,MacIntel,60,61025ae37ef11b136ea224fe,,,,,,,,,22,89,-45,1,0,0,response3disk,,5,7,9,1,0,0,rectangle,7,9,1,0,0,7,9,1,0,0,1,110,270,151,1,,,,,,,,
,,,,,,,,,,,,,FF,,,,,,,,3.385,,,,,,,,,,,,,,,,,,,,,,60fde06510c492831b1f4a93,610369cb77f10d45e058ca70,2021-07-29_19h54.46.942,Simcolourproject_2stim_asymm_v5,2020.2.10,MacIntel,60,61025ae37ef11b136ea224fe,,,,,,,,,1013,65,-50,1,0,0,response3disk,,5,9,-12,1,0,0,rectangle,9,-12,1,0,0,9,-12,1,0,0,1,111,271,16,1,,,,,,,,
,,,,,,,,,,,,,FF,,,,,,,,1.692,,,,,,,,,,,,,,,,,,,,,,60fde06510c492831b1f4a93,610369cb77f10d45e058ca70,2021-07-29_19h54.46.942,Simcolourproject_2stim_asymm_v5,2020.2.10,MacIntel,60,61025ae37ef11b136ea224fe,,,,,,,,,3249,-40,-71,1,0,0,response5disk,,3,-19,1,1,0,0,rectangle,-19,1,1,0,0,-19,1,1,0,0,1,112,272,15,1,,,,,,,,
,,,,,,,,,,,,,FF,,,,,,,,3.179,,,,,,,,,,,,,,,,,,,,,,60fde06510c492831b1f4a93,610369cb77f10d45e058ca70,2021-07-29_19h54.46.942,Simcolourproject_2stim_asymm_v5,2020.2.10,MacIntel,60,61025ae37ef11b136ea224fe,,,,,,,,,1116,40,-92,1,0,0,response3disk,,4,-9,1,1,0,0,rectangle,107,39,1,0,0,3,1,1,0,0,1,113,273,22,1,,response1disk_3,TRUE,6,6,"[233,223,237,19,274,277,17,257,74,31,78,223,98,74,258,220,150,274,105,174]",2.028,rectangle
,,,,,,,,,,,,,FF,,,,,,,,8.085,,,,,,,,,,,,,,,,,,,,,,60fde06510c492831b1f4a93,610369cb77f10d45e058ca70,2021-07-29_19h54.46.942,Simcolourproject_2stim_asymm_v5,2020.2.10,MacIntel,60,61025ae37ef11b136ea224fe,,,,,,,,,4298,49,-82,1,0,0,response3disk,,4,-6,5,1,0,0,rectangle,-6,5,1,0,0,-6,5,1,0,0,1,114,274,96,1,,,,,,,,
,,,,,,,,,,,,,FF,,,,,,,,1.698,,,,,,,,,,,,,,,,,,,,,,60fde06510c492831b1f4a93,610369cb77f10d45e058ca70,2021-07-29_19h54.46.942,Simcolourproject_2stim_asymm_v5,2020.2.10,MacIntel,60,61025ae37ef11b136ea224fe,,,,,,,,,3786,32,-67,1,0,0,response3disk,,4,-9,-2,1,0,0,rectangle,-9,-2,1,0,0,-9,-2,1,0,0,1,115,275,19,1,,,,,,,,
,,,,,,,,,,,,,FF,,,,,,,,2.792,,,,,,,,,,,,,,,,,,,,,,60fde06510c492831b1f4a93,610369cb77f10d45e058ca70,2021-07-29_19h54.46.942,Simcolourproject_2stim_asymm_v5,2020.2.10,MacIntel,60,61025ae37ef11b136ea224fe,,,,,,,,,689,77,-46,1,0,0,response3disk,,5,-11,2,1,0,0,rectangle,26,-79,1,0,0,-24,1,1,0,0,1,116,276,73,1,,response3disk_3,TRUE,4,4,"[233,223,237,19,274,277,17,257,74,31,78,223,98,74,258,220,150,274,105,174]",3.272,rectangle
,,,,,,,,,,,,,FF,,,,,,,,1.4,,,,,,,,,,,,,,,,,,,,,,60fde06510c492831b1f4a93,610369cb77f10d45e058ca70,2021-07-29_19h54.46.942,Simcolourproject_2stim_asymm_v5,2020.2.10,MacIntel,60,61025ae37ef11b136ea224fe,,,,,,,,,1923,-49,-87,1,0,0,response5disk,,3,-2,-4,1,0,0,rectangle,-2,-4,1,0,0,-2,-4,1,0,0,1,117,277,128,1,,,,,,,,
,,,,,,,,,,,,,FF,,,,,,,,1.384,,,,,,,,,,,,,,,,,,,,,,60fde06510c492831b1f4a93,610369cb77f10d45e058ca70,2021-07-29_19h54.46.942,Simcolourproject_2stim_asymm_v5,2020.2.10,MacIntel,60,61025ae37ef11b136ea224fe,,,,,,,,,4076,-93,-53,1,0,0,response5disk,,2,-11,-7,1,0,0,rectangle,-11,-7,1,0,0,-11,-7,1,0,0,1,118,278,83,1,,,,,,,,
,,,,,,,,,,,,,FF,,,,,,,,2.508,,,,,,,,,,,,,,,,,,,,,,60fde06510c492831b1f4a93,610369cb77f10d45e058ca70,2021-07-29_19h54.46.942,Simcolourproject_2stim_asymm_v5,2020.2.10,MacIntel,60,61025ae37ef11b136ea224fe,,,,,,,,,209,92,-35,1,0,0,response3disk,,5,-2,5,1,0,0,rectangle,-2,5,1,0,0,-2,5,1,0,0,1,119,279,72,1,,,,,,,,
,,,,,,,,,,,,,FF,,,,,,,,1.491,,,,,,,,,,,,,,,,,,,,,,60fde06510c492831b1f4a93,610369cb77f10d45e058ca70,2021-07-29_19h54.46.942,Simcolourproject_2stim_asymm_v5,2020.2.10,MacIntel,60,61025ae37ef11b136ea224fe,,,,,,,,,1136,-109,-45,1,0,0,response5disk,,2,-21,2,1,0,0,rectangle,-21,2,1,0,0,-21,2,1,0,0,1,120,280,31,1,,,,,,,,
,,,,,,,,,,,,,FF,,,,,,,,1,,,,,,,,,,,,,,,,,,,,,,60fde06510c492831b1f4a93,610369cb77f10d45e058ca70,2021-07-29_19h54.46.942,Simcolourproject_2stim_asymm_v5,2020.2.10,MacIntel,60,61025ae37ef11b136ea224fe,,,,,,,,,13,92,53,1,0,0,response1disk,,6,8,-2,1,0,0,rectangle,8,-2,1,0,0,8,-2,1,0,0,1,121,281,84,1,,,,,,,,
,,,,,,,,,,,,,FF,,,,,,,,1.32,,,,,,,,,,,,,,,,,,,,,,60fde06510c492831b1f4a93,610369cb77f10d45e058ca70,2021-07-29_19h54.46.942,Simcolourproject_2stim_asymm_v5,2020.2.10,MacIntel,60,61025ae37ef11b136ea224fe,,,,,,,,,4206,-90,40,1,0,0,response7disk,,1,6,13,1,0,0,rectangle,6,13,1,0,0,6,13,1,0,0,1,122,282,47,1,,,,,,,,
,,,,,,,,,,,,,FF,,,,,,,,0.91,,,,,,,,,,,,,,,,,,,,,,60fde06510c492831b1f4a93,610369cb77f10d45e058ca70,2021-07-29_19h54.46.942,Simcolourproject_2stim_asymm_v5,2020.2.10,MacIntel,60,61025ae37ef11b136ea224fe,,,,,,,,,255,-105,55,1,0,0,response7disk,,1,1,6,1,0,0,rectangle,1,6,1,0,0,1,6,1,0,0,1,123,283,104,1,,,,,,,,
,,,,,,,,,,,,,FF,,,,,,,,1.133,,,,,,,,,,,,,,,,,,,,,,60fde06510c492831b1f4a93,610369cb77f10d45e058ca70,2021-07-29_19h54.46.942,Simcolourproject_2stim_asymm_v5,2020.2.10,MacIntel,60,61025ae37ef11b136ea224fe,,,,,,,,,2714,-101,27,1,0,0,response7disk,,1,-18,8,1,0,0,rectangle,-18,8,1,0,0,-18,8,1,0,0,1,124,284,21,1,,,,,,,,
,,,,,,,,,,,,,FF,,,,,,,,1.143,,,,,,,,,,,,,,,,,,,,,,60fde06510c492831b1f4a93,610369cb77f10d45e058ca70,2021-07-29_19h54.46.942,Simcolourproject_2stim_asymm_v5,2020.2.10,MacIntel,60,61025ae37ef11b136ea224fe,,,,,,,,,1794,76,-46,1,0,0,response3disk,,5,10,-5,1,0,0,rectangle,10,-5,1,0,0,10,-5,1,0,0,1,125,285,18,1,,,,,,,,
,,,,,,,,,,,,,FF,,,,,,,,2.216,,,,,,,,,,,,,,,,,,,,,,60fde06510c492831b1f4a93,610369cb77f10d45e058ca70,2021-07-29_19h54.46.942,Simcolourproject_2stim_asymm_v5,2020.2.10,MacIntel,60,61025ae37ef11b136ea224fe,,,,,,,,,1699,111,64,1,0,0,response1disk,,6,8,-4,1,0,0,rectangle,8,-4,1,0,0,8,-4,1,0,0,1,126,286,105,1,,,,,,,,
,,,,,,,,,,,,,FF,,,,,,,,2.127,,,,,,,,,,,,,,,,,,,,,,60fde06510c492831b1f4a93,610369cb77f10d45e058ca70,2021-07-29_19h54.46.942,Simcolourproject_2stim_asymm_v5,2020.2.10,MacIntel,60,61025ae37ef11b136ea224fe,,,,,,,,,3178,72,-42,1,0,0,response3disk,,5,7,7,1,0,0,rectangle,7,7,1,0,0,7,7,1,0,0,1,127,287,126,1,,,,,,,,
,,,,,,,,,,,,,FF,,,,,,,,1.369,,,,,,,,,,,,,,,,,,,,,,60fde06510c492831b1f4a93,610369cb77f10d45e058ca70,2021-07-29_19h54.46.942,Simcolourproject_2stim_asymm_v5,2020.2.10,MacIntel,60,61025ae37ef11b136ea224fe,,,,,,,,,3587,-94,-55,1,0,0,response5disk,,2,-7,0,1,0,0,rectangle,-7,0,1,0,0,-7,0,1,0,0,1,128,288,8,1,,,,,,,,
,,,,,,,,,,,,,FF,,,,,,,,2.166,,,,,,,,,,,,,,,,,,,,,,60fde06510c492831b1f4a93,610369cb77f10d45e058ca70,2021-07-29_19h54.46.942,Simcolourproject_2stim_asymm_v5,2020.2.10,MacIntel,60,61025ae37ef11b136ea224fe,,,,,,,,,1798,39,-75,1,0,0,response3disk,,4,-2,3,1,0,0,rectangle,-2,3,1,0,0,-2,3,1,0,0,1,129,289,106,1,,,,,,,,
,,,,,,,,,,,,,FF,,,,,,,,0.886,,,,,,,,,,,,,,,,,,,,,,60fde06510c492831b1f4a93,610369cb77f10d45e058ca70,2021-07-29_19h54.46.942,Simcolourproject_2stim_asymm_v5,2020.2.10,MacIntel,60,61025ae37ef11b136ea224fe,,,,,,,,,3272,51,94,1,0,0,response1disk,,7,-1,3,1,0,0,rectangle,-1,3,1,0,0,-1,3,1,0,0,1,130,290,24,1,,,,,,,,
,,,,,,,,,,,,,FF,,,,,,,,1.568,,,,,,,,,,,,,,,,,,,,,,60fde06510c492831b1f4a93,610369cb77f10d45e058ca70,2021-07-29_19h54.46.942,Simcolourproject_2stim_asymm_v5,2020.2.10,MacIntel,60,61025ae37ef11b136ea224fe,,,,,,,,,3129,33,79,1,0,0,response1disk,,7,8,7,1,0,0,rectangle,8,7,1,0,0,8,7,1,0,0,1,131,291,20,1,,,,,,,,
,,,,,,,,,,,,,FF,,,,,,,,4.914,,,,,,,,,,,,,,,,,,,,,,60fde06510c492831b1f4a93,610369cb77f10d45e058ca70,2021-07-29_19h54.46.942,Simcolourproject_2stim_asymm_v5,2020.2.10,MacIntel,60,61025ae37ef11b136ea224fe,,,,,,,,,3139,-33,-96,1,0,0,response5disk,,3,-18,-7,1,0,0,rectangle,-18,-7,1,0,0,-18,-7,1,0,0,1,132,292,98,1,,,,,,,,
,,,,,,,,,,,,,FF,,,,,,,,1.844,,,,,,,,,,,,,,,,,,,,,,60fde06510c492831b1f4a93,610369cb77f10d45e058ca70,2021-07-29_19h54.46.942,Simcolourproject_2stim_asymm_v5,2020.2.10,MacIntel,60,61025ae37ef11b136ea224fe,,,,,,,,,2523,93,80,1,0,0,response1disk,,6,-2,0,1,0,0,rectangle,-2,0,1,0,0,-2,0,1,0,0,1,133,293,107,1,,,,,,,,
,,,,,,,,,,,,,FF,,,,,,,,2.533,,,,,,,,,,,,,,,,,,,,,,60fde06510c492831b1f4a93,610369cb77f10d45e058ca70,2021-07-29_19h54.46.942,Simcolourproject_2stim_asymm_v5,2020.2.10,MacIntel,60,61025ae37ef11b136ea224fe,,,,,,,,,992,61,-29,1,0,0,response3disk,,5,9,-9,1,0,0,rectangle,9,-9,1,0,0,9,-9,1,0,0,1,134,294,110,1,,,,,,,,
,,,,,,,,,,,,,FF,,,,,,,,2.489,,,,,,,,,,,,,,,,,,,,,,60fde06510c492831b1f4a93,610369cb77f10d45e058ca70,2021-07-29_19h54.46.942,Simcolourproject_2stim_asymm_v5,2020.2.10,MacIntel,60,61025ae37ef11b136ea224fe,,,,,,,,,725,36,-86,1,0,0,response3disk,,4,-17,2,1,0,0,rectangle,-17,2,1,0,0,-17,2,1,0,0,1,135,295,122,1,,,,,,,,
,,,,,,,,,,,,,FF,,,,,,,,0.731,,,,,,,,,,,,,,,,,,,,,,60fde06510c492831b1f4a93,610369cb77f10d45e058ca70,2021-07-29_19h54.46.942,Simcolourproject_2stim_asymm_v5,2020.2.10,MacIntel,60,61025ae37ef11b136ea224fe,,,,,,,,,3054,-90,-54,1,0,0,response5disk,,2,-6,-10,1,0,0,rectangle,-6,-10,1,0,0,-6,-10,1,0,0,1,136,296,153,1,,,,,,,,
,,,,,,,,,,,,,FF,,,,,,,,0.946,,,,,,,,,,,,,,,,,,,,,,60fde06510c492831b1f4a93,610369cb77f10d45e058ca70,2021-07-29_19h54.46.942,Simcolourproject_2stim_asymm_v5,2020.2.10,MacIntel,60,61025ae37ef11b136ea224fe,,,,,,,,,1535,-75,-56,1,0,0,response5disk,,2,-6,0,1,0,0,rectangle,-6,0,1,0,0,-6,0,1,0,0,1,137,297,101,1,,,,,,,,
,,,,,,,,,,,,,FF,,,,,,,,3.824,,,,,,,,,,,,,,,,,,,,,,60fde06510c492831b1f4a93,610369cb77f10d45e058ca70,2021-07-29_19h54.46.942,Simcolourproject_2stim_asymm_v5,2020.2.10,MacIntel,60,61025ae37ef11b136ea224fe,,,,,,,,,359,66,-49,1,0,0,response3disk,,5,-1,-1,1,0,0,rectangle,-1,-1,1,0,0,-1,-1,1,0,0,1,138,298,138,1,,,,,,,,
,,,,,,,,,,,,,FF,,,,,,,,0.861,,,,,,,,,,,,,,,,,,,,,,60fde06510c492831b1f4a93,610369cb77f10d45e058ca70,2021-07-29_19h54.46.942,Simcolourproject_2stim_asymm_v5,2020.2.10,MacIntel,60,61025ae37ef11b136ea224fe,,,,,,,,,3142,-77,-46,1,0,0,response5disk,,2,1,-17,1,0,0,rectangle,1,-17,1,0,0,1,-17,1,0,0,1,139,299,135,1,,,,,,,,
,,,,,,,,,,,,,FF,,,,,,,,0.992,,,,,,,,,,,,,,,,,,,,,,60fde06510c492831b1f4a93,610369cb77f10d45e058ca70,2021-07-29_19h54.46.942,Simcolourproject_2stim_asymm_v5,2020.2.10,MacIntel,60,61025ae37ef11b136ea224fe,,,,,,,,,2975,82,55,1,0,0,response1disk,,6,5,1,1,0,0,rectangle,5,1,1,0,0,5,1,1,0,0,1,140,300,79,1,,,,,,,,
