key_resp.keys,key_resp.rt,key_resp_14.keys,key_resp_14.rt,key_resp_15.keys,key_resp_15.rt,key_resp_17.keys,key_resp_17.rt,key_resp_9.keys,key_resp_9.rt,key_resp_10.keys,key_resp_10.rt,practice_comparison,Ecc,mouse_5.x,mouse_5.y,mouse_5.leftButton,mouse_5.midButton,mouse_5.rightButton,mouse_5.clicked_name,pracsimilarity,response_time,mouse_10.x,mouse_10.y,mouse_10.leftButton,mouse_10.midButton,mouse_10.rightButton,mouse_10.clicked_name,mouse_7.x,mouse_7.y,mouse_7.leftButton,mouse_7.midButton,mouse_7.rightButton,mouse_6.x,mouse_6.y,mouse_6.leftButton,mouse_6.midButton,mouse_6.rightButton,duringprac.thisRepN,duringprac.thisTrialN,duringprac.thisN,duringprac.thisIndex,duringprac.ran,participant,session,date,expName,psychopyVersion,OS,frameRate,study_id,mouse_7.clicked_name,catchpracsimilarity,catch_response_time,catchnumberprac,catchtrialorderprac,mouse_6.clicked_name,key_resp_22.keys,key_resp_22.rt,realcomparison,mouse.x,mouse.y,mouse.leftButton,mouse.midButton,mouse.rightButton,mouse.clicked_name,Colour2,similarity,mouse_2.x,mouse_2.y,mouse_2.leftButton,mouse_2.midButton,mouse_2.rightButton,mouse_2.clicked_name,mouse_3.x,mouse_3.y,mouse_3.leftButton,mouse_3.midButton,mouse_3.rightButton,mouse_11.x,mouse_11.y,mouse_11.leftButton,mouse_11.midButton,mouse_11.rightButton,trials_2.thisRepN,trials_2.thisTrialN,trials_2.thisN,trials_2.thisIndex,trials_2.ran,Colour1,mouse_3.clicked_name,catchornah,catchsimilarity,catchnumber,catchtrialorder,catchRT,mouse_11.clicked_name
space,2.6946,space,59.0742,space,20.0206,space,8.0658,space,34.7367,space,2.8643,2,PF,77.36645508,-40.58270264,1,0,0,response3disk_5,5,5.1049,9.361694336,-2.379486084,1,0,0,rectangle_8,9.361694336,-2.379486084,1,0,0,9.361694336,-2.379486084,1,0,0,0,0,0,4,1,60fdfb0996257ffd90d67d2a,61036eb922306843fd58b97c,2021-07-29_22h16.34.850,Simcolourproject_2stim_asymm_v5,2020.2.10,MacIntel,60,61025ae37ef11b136ea224fe,,,,,,,,,,,,,,,,,,,,,,,,,,,,,,,,,,,,,,,,,,,,,,
,,,,,,,,,,,,36,FF,-85.28149414,16.4901123,1,0,0,response7disk_5,1,1.6681,-4.949279785,-6.585021973,1,0,0,rectangle_8,80.54846191,35.9934082,1,0,0,-1.587890625,-1.55657959,1,0,0,0,1,1,3,1,60fdfb0996257ffd90d67d2a,61036eb922306843fd58b97c,2021-07-29_22h16.34.850,Simcolourproject_2stim_asymm_v5,2020.2.10,MacIntel,60,61025ae37ef11b136ea224fe,response1disk_7,6,3.0853,6,"[2,5]",rectangle_4,,,,,,,,,,,,,,,,,,,,,,,,,,,,,,,,,,,,,,,,
,,,,,,,,,,,,48,FF,-64.909729,33.41320801,1,0,0,response7disk_5,1,1.4659,-13.34436035,12.26879883,1,0,0,rectangle_8,-13.34436035,12.26879883,1,0,0,-13.34436035,12.26879883,1,0,0,0,2,2,5,1,60fdfb0996257ffd90d67d2a,61036eb922306843fd58b97c,2021-07-29_22h16.34.850,Simcolourproject_2stim_asymm_v5,2020.2.10,MacIntel,60,61025ae37ef11b136ea224fe,,,,,,,,,,,,,,,,,,,,,,,,,,,,,,,,,,,,,,,,,,,,,,
,,,,,,,,,,,,160,FF,-67.00195313,-48.80639648,1,0,0,response5disk_5,2,1.4159,16.34484863,-15.51617432,1,0,0,rectangle_8,16.34484863,-15.51617432,1,0,0,16.34484863,-15.51617432,1,0,0,0,3,3,0,1,60fdfb0996257ffd90d67d2a,61036eb922306843fd58b97c,2021-07-29_22h16.34.850,Simcolourproject_2stim_asymm_v5,2020.2.10,MacIntel,60,61025ae37ef11b136ea224fe,,,,,,,,,,,,,,,,,,,,,,,,,,,,,,,,,,,,,,,,,,,,,,
,,,,,,,,,,,,2,PF,56.80792236,-86.80432129,1,0,0,response3disk_5,4,1.3163,16.57696533,-0.874938965,1,0,0,rectangle_8,91.30212402,32.91171265,1,0,0,-25.387146,6.117095947,1,0,0,0,4,4,6,1,60fdfb0996257ffd90d67d2a,61036eb922306843fd58b97c,2021-07-29_22h16.34.850,Simcolourproject_2stim_asymm_v5,2020.2.10,MacIntel,60,61025ae37ef11b136ea224fe,response1disk_7,6,1.5672,6,"[2,5]",rectangle_4,,,,,,,,,,,,,,,,,,,,,,,,,,,,,,,,,,,,,,,,
,,,,,,,,,,,,45,PF,-73.66369629,-50.74377441,1,0,0,response5disk_5,2,2.3167,5.739929199,2.9453125,1,0,0,rectangle_8,5.739929199,2.9453125,1,0,0,5.739929199,2.9453125,1,0,0,0,5,5,2,1,60fdfb0996257ffd90d67d2a,61036eb922306843fd58b97c,2021-07-29_22h16.34.850,Simcolourproject_2stim_asymm_v5,2020.2.10,MacIntel,60,61025ae37ef11b136ea224fe,,,,,,,,,,,,,,,,,,,,,,,,,,,,,,,,,,,,,,,,,,,,,,
,,,,,,,,,,,,135,PF,-78.35546875,-55.44616699,1,0,0,response5disk_5,2,1.1335,-2.586242676,-4.327575684,1,0,0,rectangle_8,-2.586242676,-4.327575684,1,0,0,-2.586242676,-4.327575684,1,0,0,0,6,6,1,1,60fdfb0996257ffd90d67d2a,61036eb922306843fd58b97c,2021-07-29_22h16.34.850,Simcolourproject_2stim_asymm_v5,2020.2.10,MacIntel,60,61025ae37ef11b136ea224fe,,,,,,,,,,,,,,,,,,,,,,,,,,,,,,,,,,,,,,,,,,,,,,
,,,,,,,,,,,,,FF,,,,,,,,2.5012,,,,,,,,,,,,,,,,,,,,,,60fdfb0996257ffd90d67d2a,61036eb922306843fd58b97c,2021-07-29_22h16.34.850,Simcolourproject_2stim_asymm_v5,2020.2.10,MacIntel,60,61025ae37ef11b136ea224fe,,,,,,,space,3.5083,1531,-84.70001221,-27.09213257,1,0,0,response5disk,,2,10.30285645,-13.77178955,1,0,0,rectangle,10.30285645,-13.77178955,1,0,0,10.30285645,-13.77178955,1,0,0,0,0,0,63,1,,,,,,,,
,,,,,,,,,,,,,FF,,,,,,,,0.8342,,,,,,,,,,,,,,,,,,,,,,60fdfb0996257ffd90d67d2a,61036eb922306843fd58b97c,2021-07-29_22h16.34.850,Simcolourproject_2stim_asymm_v5,2020.2.10,MacIntel,60,61025ae37ef11b136ea224fe,,,,,,,,,676,-40.44378662,-83.53173828,1,0,0,response5disk,,3,-21.39385986,-11.82318115,1,0,0,rectangle,-21.39385986,-11.82318115,1,0,0,-21.39385986,-11.82318115,1,0,0,0,1,1,53,1,,,,,,,,
,,,,,,,,,,,,,FF,,,,,,,,1.1344,,,,,,,,,,,,,,,,,,,,,,60fdfb0996257ffd90d67d2a,61036eb922306843fd58b97c,2021-07-29_22h16.34.850,Simcolourproject_2stim_asymm_v5,2020.2.10,MacIntel,60,61025ae37ef11b136ea224fe,,,,,,,,,1415,-26.41448975,-77.62432861,1,0,0,response5disk,,3,-9.631347656,-2.335266113,1,0,0,rectangle,-9.631347656,-2.335266113,1,0,0,-9.631347656,-2.335266113,1,0,0,0,2,2,52,1,,,,,,,,
,,,,,,,,,,,,,FF,,,,,,,,2.2669,,,,,,,,,,,,,,,,,,,,,,60fdfb0996257ffd90d67d2a,61036eb922306843fd58b97c,2021-07-29_22h16.34.850,Simcolourproject_2stim_asymm_v5,2020.2.10,MacIntel,60,61025ae37ef11b136ea224fe,,,,,,,,,2745,-97.03082275,-60.96563721,1,0,0,response5disk,,2,0.997619629,6.321655273,1,0,0,rectangle,0.997619629,6.321655273,1,0,0,0.997619629,6.321655273,1,0,0,0,3,3,41,1,,,,,,,,
,,,,,,,,,,,,,FF,,,,,,,,0.9673,,,,,,,,,,,,,,,,,,,,,,60fdfb0996257ffd90d67d2a,61036eb922306843fd58b97c,2021-07-29_22h16.34.850,Simcolourproject_2stim_asymm_v5,2020.2.10,MacIntel,60,61025ae37ef11b136ea224fe,,,,,,,,,1787,46.71759033,-83.21801758,1,0,0,response3disk,,4,0.272155762,3.013763428,1,0,0,rectangle,0.272155762,3.013763428,1,0,0,0.272155762,3.013763428,1,0,0,0,4,4,95,1,,,,,,,,
,,,,,,,,,,,,,FF,,,,,,,,1.1516,,,,,,,,,,,,,,,,,,,,,,60fdfb0996257ffd90d67d2a,61036eb922306843fd58b97c,2021-07-29_22h16.34.850,Simcolourproject_2stim_asymm_v5,2020.2.10,MacIntel,60,61025ae37ef11b136ea224fe,,,,,,,,,1260,48.78900146,-70.31878662,1,0,0,response3disk,,4,7.948181152,2.731750488,1,0,0,rectangle,7.948181152,2.731750488,1,0,0,7.948181152,2.731750488,1,0,0,0,5,5,35,1,,,,,,,,
,,,,,,,,,,,,,FF,,,,,,,,1.7167,,,,,,,,,,,,,,,,,,,,,,60fdfb0996257ffd90d67d2a,61036eb922306843fd58b97c,2021-07-29_22h16.34.850,Simcolourproject_2stim_asymm_v5,2020.2.10,MacIntel,60,61025ae37ef11b136ea224fe,,,,,,,,,3618,-72.25085449,25.20568848,1,0,0,response7disk,,1,-15.84863281,16.22583008,1,0,0,rectangle,-15.84863281,16.22583008,1,0,0,-15.84863281,16.22583008,1,0,0,0,6,6,61,1,,,,,,,,
,,,,,,,,,,,,,FF,,,,,,,,1.417,,,,,,,,,,,,,,,,,,,,,,60fdfb0996257ffd90d67d2a,61036eb922306843fd58b97c,2021-07-29_22h16.34.850,Simcolourproject_2stim_asymm_v5,2020.2.10,MacIntel,60,61025ae37ef11b136ea224fe,,,,,,,,,1667,101.0130615,-36.91204834,1,0,0,response3disk,,5,-12.50939941,0.955200195,1,0,0,rectangle,-12.50939941,0.955200195,1,0,0,-12.50939941,0.955200195,1,0,0,0,7,7,104,1,,,,,,,,
,,,,,,,,,,,,,FF,,,,,,,,3.7,,,,,,,,,,,,,,,,,,,,,,60fdfb0996257ffd90d67d2a,61036eb922306843fd58b97c,2021-07-29_22h16.34.850,Simcolourproject_2stim_asymm_v5,2020.2.10,MacIntel,60,61025ae37ef11b136ea224fe,,,,,,,,,3899,-32.00311279,-79.37963867,1,0,0,response5disk,,3,-19.68011475,1.356811523,1,0,0,rectangle,-19.68011475,1.356811523,1,0,0,-19.68011475,1.356811523,1,0,0,0,8,8,90,1,,,,,,,,
,,,,,,,,,,,,,FF,,,,,,,,0.9501,,,,,,,,,,,,,,,,,,,,,,60fdfb0996257ffd90d67d2a,61036eb922306843fd58b97c,2021-07-29_22h16.34.850,Simcolourproject_2stim_asymm_v5,2020.2.10,MacIntel,60,61025ae37ef11b136ea224fe,,,,,,,,,2303,38.04119873,-75.78277588,1,0,0,response3disk,,4,8.60534668,-7.618041992,1,0,0,rectangle,8.60534668,-7.618041992,1,0,0,8.60534668,-7.618041992,1,0,0,0,9,9,134,1,,,,,,,,
,,,,,,,,,,,,,FF,,,,,,,,11.1327,,,,,,,,,,,,,,,,,,,,,,60fdfb0996257ffd90d67d2a,61036eb922306843fd58b97c,2021-07-29_22h16.34.850,Simcolourproject_2stim_asymm_v5,2020.2.10,MacIntel,60,61025ae37ef11b136ea224fe,,,,,,,,,4294,-36.27423096,-61.40032959,1,0,0,response5disk,,3,-1.12298584,12.90393066,1,0,0,rectangle,-1.12298584,12.90393066,1,0,0,-1.12298584,12.90393066,1,0,0,0,10,10,106,1,,,,,,,,
,,,,,,,,,,,,,FF,,,,,,,,1.0172,,,,,,,,,,,,,,,,,,,,,,60fdfb0996257ffd90d67d2a,61036eb922306843fd58b97c,2021-07-29_22h16.34.850,Simcolourproject_2stim_asymm_v5,2020.2.10,MacIntel,60,61025ae37ef11b136ea224fe,,,,,,,,,1961,-66.9487915,50.54934692,1,0,0,response7disk,,1,-14.27667236,9.868896484,1,0,0,rectangle,-14.27667236,9.868896484,1,0,0,-14.27667236,9.868896484,1,0,0,0,11,11,12,1,,,,,,,,
,,,,,,,,,,,,,FF,,,,,,,,0.8834,,,,,,,,,,,,,,,,,,,,,,60fdfb0996257ffd90d67d2a,61036eb922306843fd58b97c,2021-07-29_22h16.34.850,Simcolourproject_2stim_asymm_v5,2020.2.10,MacIntel,60,61025ae37ef11b136ea224fe,,,,,,,,,4051,-75.64373779,37.31607056,1,0,0,response7disk,,1,8.32043457,6.977661133,1,0,0,rectangle,42.99786377,-93.72045898,1,0,0,5.081420898,-3.679077148,1,0,0,0,12,12,45,1,,response3disk_3,TRUE,4,4,"[127,50,82,220,102,203,32,109,229,202,201,13,234,29,276,303,136,40,257,62]",2.5669,rectangle
,,,,,,,,,,,,,FF,,,,,,,,2.2167,,,,,,,,,,,,,,,,,,,,,,60fdfb0996257ffd90d67d2a,61036eb922306843fd58b97c,2021-07-29_22h16.34.850,Simcolourproject_2stim_asymm_v5,2020.2.10,MacIntel,60,61025ae37ef11b136ea224fe,,,,,,,,,1861,-41.97167969,-79.92340088,1,0,0,response5disk,,3,-23.63366699,0.380737305,1,0,0,rectangle,-23.63366699,0.380737305,1,0,0,-23.63366699,0.380737305,1,0,0,0,13,13,55,1,,,,,,,,
,,,,,,,,,,,,,FF,,,,,,,,1.4504,,,,,,,,,,,,,,,,,,,,,,60fdfb0996257ffd90d67d2a,61036eb922306843fd58b97c,2021-07-29_22h16.34.850,Simcolourproject_2stim_asymm_v5,2020.2.10,MacIntel,60,61025ae37ef11b136ea224fe,,,,,,,,,2022,-63.04510498,33.78912354,1,0,0,response7disk,,1,-7.967590332,-3.642822266,1,0,0,rectangle,-7.967590332,-3.642822266,1,0,0,-7.967590332,-3.642822266,1,0,0,0,14,14,8,1,,,,,,,,
,,,,,,,,,,,,,FF,,,,,,,,1.3005,,,,,,,,,,,,,,,,,,,,,,60fdfb0996257ffd90d67d2a,61036eb922306843fd58b97c,2021-07-29_22h16.34.850,Simcolourproject_2stim_asymm_v5,2020.2.10,MacIntel,60,61025ae37ef11b136ea224fe,,,,,,,,,3531,-34.30187988,-52.02087402,1,0,0,response5disk,,3,-23.38806152,2.204528809,1,0,0,rectangle,-23.38806152,2.204528809,1,0,0,-23.38806152,2.204528809,1,0,0,0,15,15,125,1,,,,,,,,
,,,,,,,,,,,,,FF,,,,,,,,0.8837,,,,,,,,,,,,,,,,,,,,,,60fdfb0996257ffd90d67d2a,61036eb922306843fd58b97c,2021-07-29_22h16.34.850,Simcolourproject_2stim_asymm_v5,2020.2.10,MacIntel,60,61025ae37ef11b136ea224fe,,,,,,,,,1200,23.22125244,-89.26763916,1,0,0,response3disk,,4,-12.35302734,-9.037536621,1,0,0,rectangle,-12.35302734,-9.037536621,1,0,0,-12.35302734,-9.037536621,1,0,0,0,16,16,156,1,,,,,,,,
,,,,,,,,,,,,,FF,,,,,,,,1.7524,,,,,,,,,,,,,,,,,,,,,,60fdfb0996257ffd90d67d2a,61036eb922306843fd58b97c,2021-07-29_22h16.34.850,Simcolourproject_2stim_asymm_v5,2020.2.10,MacIntel,60,61025ae37ef11b136ea224fe,,,,,,,,,2225,-59.73144531,-29.5680542,1,0,0,response5disk,,2,-16.96343994,5.455230713,1,0,0,rectangle,-16.96343994,5.455230713,1,0,0,-16.96343994,5.455230713,1,0,0,0,17,17,18,1,,,,,,,,
,,,,,,,,,,,,,FF,,,,,,,,1.6667,,,,,,,,,,,,,,,,,,,,,,60fdfb0996257ffd90d67d2a,61036eb922306843fd58b97c,2021-07-29_22h16.34.850,Simcolourproject_2stim_asymm_v5,2020.2.10,MacIntel,60,61025ae37ef11b136ea224fe,,,,,,,,,1216,-41.90466309,19.13711548,1,0,0,response7disk,,1,-11.24938965,-9.128173828,1,0,0,rectangle,-11.24938965,-9.128173828,1,0,0,-11.24938965,-9.128173828,1,0,0,0,18,18,124,1,,,,,,,,
,,,,,,,,,,,,,FF,,,,,,,,1.201,,,,,,,,,,,,,,,,,,,,,,60fdfb0996257ffd90d67d2a,61036eb922306843fd58b97c,2021-07-29_22h16.34.850,Simcolourproject_2stim_asymm_v5,2020.2.10,MacIntel,60,61025ae37ef11b136ea224fe,,,,,,,,,2728,-63.34594727,-19.79309082,1,0,0,response5disk,,2,6.217041016,0.261047363,1,0,0,rectangle,6.217041016,0.261047363,1,0,0,6.217041016,0.261047363,1,0,0,0,19,19,25,1,,,,,,,,
,,,,,,,,,,,,,FF,,,,,,,,1.1339,,,,,,,,,,,,,,,,,,,,,,60fdfb0996257ffd90d67d2a,61036eb922306843fd58b97c,2021-07-29_22h16.34.850,Simcolourproject_2stim_asymm_v5,2020.2.10,MacIntel,60,61025ae37ef11b136ea224fe,,,,,,,,,72,-34.14453125,-76.53796387,1,0,0,response5disk,,3,-16.64685059,0.495056152,1,0,0,rectangle,-16.64685059,0.495056152,1,0,0,-16.64685059,0.495056152,1,0,0,0,20,20,29,1,,,,,,,,
,,,,,,,,,,,,,FF,,,,,,,,1.1829,,,,,,,,,,,,,,,,,,,,,,60fdfb0996257ffd90d67d2a,61036eb922306843fd58b97c,2021-07-29_22h16.34.850,Simcolourproject_2stim_asymm_v5,2020.2.10,MacIntel,60,61025ae37ef11b136ea224fe,,,,,,,,,550,-71.02142334,-18.54763794,1,0,0,response5disk,,2,5.806640625,-0.996520996,1,0,0,rectangle,5.806640625,-0.996520996,1,0,0,5.806640625,-0.996520996,1,0,0,0,21,21,101,1,,,,,,,,
,,,,,,,,,,,,,FF,,,,,,,,1.7666,,,,,,,,,,,,,,,,,,,,,,60fdfb0996257ffd90d67d2a,61036eb922306843fd58b97c,2021-07-29_22h16.34.850,Simcolourproject_2stim_asymm_v5,2020.2.10,MacIntel,60,61025ae37ef11b136ea224fe,,,,,,,,,2223,-53.31256104,-19.93136597,1,0,0,response5disk,,2,6.382202148,-8.305786133,1,0,0,rectangle,6.382202148,-8.305786133,1,0,0,6.382202148,-8.305786133,1,0,0,0,22,22,140,1,,,,,,,,
,,,,,,,,,,,,,FF,,,,,,,,0.8339,,,,,,,,,,,,,,,,,,,,,,60fdfb0996257ffd90d67d2a,61036eb922306843fd58b97c,2021-07-29_22h16.34.850,Simcolourproject_2stim_asymm_v5,2020.2.10,MacIntel,60,61025ae37ef11b136ea224fe,,,,,,,,,1371,-70.05297852,26.96417236,1,0,0,response7disk,,1,-5.634338379,7.533508301,1,0,0,rectangle,-5.634338379,7.533508301,1,0,0,-5.634338379,7.533508301,1,0,0,0,23,23,22,1,,,,,,,,
,,,,,,,,,,,,,FF,,,,,,,,1.0165,,,,,,,,,,,,,,,,,,,,,,60fdfb0996257ffd90d67d2a,61036eb922306843fd58b97c,2021-07-29_22h16.34.850,Simcolourproject_2stim_asymm_v5,2020.2.10,MacIntel,60,61025ae37ef11b136ea224fe,,,,,,,,,819,-75.39123535,-41.5664978,1,0,0,response5disk,,2,-1.221618652,-17.38586426,1,0,0,rectangle,-1.221618652,-17.38586426,1,0,0,-1.221618652,-17.38586426,1,0,0,0,24,24,151,1,,,,,,,,
,,,,,,,,,,,,,FF,,,,,,,,1.2354,,,,,,,,,,,,,,,,,,,,,,60fdfb0996257ffd90d67d2a,61036eb922306843fd58b97c,2021-07-29_22h16.34.850,Simcolourproject_2stim_asymm_v5,2020.2.10,MacIntel,60,61025ae37ef11b136ea224fe,,,,,,,,,4232,70.13305664,-63.60137939,1,0,0,response3disk,,5,0.266723633,-11.66296387,1,0,0,rectangle,0.266723633,-11.66296387,1,0,0,0.266723633,-11.66296387,1,0,0,0,25,25,148,1,,,,,,,,
,,,,,,,,,,,,,FF,,,,,,,,0.9176,,,,,,,,,,,,,,,,,,,,,,60fdfb0996257ffd90d67d2a,61036eb922306843fd58b97c,2021-07-29_22h16.34.850,Simcolourproject_2stim_asymm_v5,2020.2.10,MacIntel,60,61025ae37ef11b136ea224fe,,,,,,,,,2489,-52.63134766,-72.47790527,1,0,0,response5disk,,3,-18.05090332,-5.002502441,1,0,0,rectangle,-18.05090332,-5.002502441,1,0,0,-18.05090332,-5.002502441,1,0,0,0,26,26,123,1,,,,,,,,
,,,,,,,,,,,,,FF,,,,,,,,1.0494,,,,,,,,,,,,,,,,,,,,,,60fdfb0996257ffd90d67d2a,61036eb922306843fd58b97c,2021-07-29_22h16.34.850,Simcolourproject_2stim_asymm_v5,2020.2.10,MacIntel,60,61025ae37ef11b136ea224fe,,,,,,,,,3936,-59.83752441,33.09356689,1,0,0,response7disk,,1,-4.563354492,0.960174561,1,0,0,rectangle,-4.563354492,0.960174561,1,0,0,-4.563354492,0.960174561,1,0,0,0,27,27,15,1,,,,,,,,
,,,,,,,,,,,,,FF,,,,,,,,1.066,,,,,,,,,,,,,,,,,,,,,,60fdfb0996257ffd90d67d2a,61036eb922306843fd58b97c,2021-07-29_22h16.34.850,Simcolourproject_2stim_asymm_v5,2020.2.10,MacIntel,60,61025ae37ef11b136ea224fe,,,,,,,,,2402,43.09326172,-63.93786621,1,0,0,response3disk,,4,10.55981445,10.06915283,1,0,0,rectangle,-72.25396729,49.49331665,1,0,0,-11.17352295,7.445861816,1,0,0,0,28,28,64,1,,response7disk_3,TRUE,1,1,"[127,50,82,220,102,203,32,109,229,202,201,13,234,29,276,303,136,40,257,62]",1.3172,rectangle
,,,,,,,,,,,,,FF,,,,,,,,53.9662,,,,,,,,,,,,,,,,,,,,,,60fdfb0996257ffd90d67d2a,61036eb922306843fd58b97c,2021-07-29_22h16.34.850,Simcolourproject_2stim_asymm_v5,2020.2.10,MacIntel,60,61025ae37ef11b136ea224fe,,,,,,,,,261,-82.17297363,39.56976318,1,0,0,response7disk,,1,-14.15203857,0.910583496,1,0,0,rectangle,-14.15203857,0.910583496,1,0,0,-14.15203857,0.910583496,1,0,0,0,29,29,5,1,,,,,,,,
,,,,,,,,,,,,,FF,,,,,,,,0.9336,,,,,,,,,,,,,,,,,,,,,,60fdfb0996257ffd90d67d2a,61036eb922306843fd58b97c,2021-07-29_22h16.34.850,Simcolourproject_2stim_asymm_v5,2020.2.10,MacIntel,60,61025ae37ef11b136ea224fe,,,,,,,,,1312,-30.61633301,-90.84039307,1,0,0,response5disk,,3,-21.31750488,-1.989440918,1,0,0,rectangle,-21.31750488,-1.989440918,1,0,0,-21.31750488,-1.989440918,1,0,0,0,30,30,7,1,,,,,,,,
,,,,,,,,,,,,,FF,,,,,,,,1.7504,,,,,,,,,,,,,,,,,,,,,,60fdfb0996257ffd90d67d2a,61036eb922306843fd58b97c,2021-07-29_22h16.34.850,Simcolourproject_2stim_asymm_v5,2020.2.10,MacIntel,60,61025ae37ef11b136ea224fe,,,,,,,,,242,64.00274658,34.5852356,1,0,0,response1disk,,6,1.103027344,-1.718811035,1,0,0,rectangle,41.06304932,-98.06512451,1,0,0,15.94940186,0.878631592,1,0,0,0,31,31,113,1,,response3disk_3,TRUE,4,4,"[127,50,82,220,102,203,32,109,229,202,201,13,234,29,276,303,136,40,257,62]",1.8518,rectangle
,,,,,,,,,,,,,FF,,,,,,,,1.4174,,,,,,,,,,,,,,,,,,,,,,60fdfb0996257ffd90d67d2a,61036eb922306843fd58b97c,2021-07-29_22h16.34.850,Simcolourproject_2stim_asymm_v5,2020.2.10,MacIntel,60,61025ae37ef11b136ea224fe,,,,,,,,,96,-21.06518555,-102.4562988,1,0,0,response5disk,,3,-6.262084961,9.604248047,1,0,0,rectangle,-6.262084961,9.604248047,1,0,0,-6.262084961,9.604248047,1,0,0,0,32,32,131,1,,,,,,,,
,,,,,,,,,,,,,FF,,,,,,,,1.2989,,,,,,,,,,,,,,,,,,,,,,60fdfb0996257ffd90d67d2a,61036eb922306843fd58b97c,2021-07-29_22h16.34.850,Simcolourproject_2stim_asymm_v5,2020.2.10,MacIntel,60,61025ae37ef11b136ea224fe,,,,,,,,,3187,-37.26690674,-79.83276367,1,0,0,response5disk,,3,-18.22344971,13.89691162,1,0,0,rectangle,-18.22344971,13.89691162,1,0,0,-18.22344971,13.89691162,1,0,0,0,33,33,152,1,,,,,,,,
,,,,,,,,,,,,,FF,,,,,,,,1.0664,,,,,,,,,,,,,,,,,,,,,,60fdfb0996257ffd90d67d2a,61036eb922306843fd58b97c,2021-07-29_22h16.34.850,Simcolourproject_2stim_asymm_v5,2020.2.10,MacIntel,60,61025ae37ef11b136ea224fe,,,,,,,,,3610,56.94299316,-79.94128418,1,0,0,response3disk,,4,15.2545166,-4.787780762,1,0,0,rectangle,15.2545166,-4.787780762,1,0,0,15.2545166,-4.787780762,1,0,0,0,34,34,94,1,,,,,,,,
,,,,,,,,,,,,,FF,,,,,,,,0.7505,,,,,,,,,,,,,,,,,,,,,,60fdfb0996257ffd90d67d2a,61036eb922306843fd58b97c,2021-07-29_22h16.34.850,Simcolourproject_2stim_asymm_v5,2020.2.10,MacIntel,60,61025ae37ef11b136ea224fe,,,,,,,,,780,-43.44793701,-58.20874023,1,0,0,response5disk,,3,-28.91357422,-4.49206543,1,0,0,rectangle,-28.91357422,-4.49206543,1,0,0,-28.91357422,-4.49206543,1,0,0,0,35,35,114,1,,,,,,,,
,,,,,,,,,,,,,FF,,,,,,,,0.95,,,,,,,,,,,,,,,,,,,,,,60fdfb0996257ffd90d67d2a,61036eb922306843fd58b97c,2021-07-29_22h16.34.850,Simcolourproject_2stim_asymm_v5,2020.2.10,MacIntel,60,61025ae37ef11b136ea224fe,,,,,,,,,2824,-21.75079346,-86.24505615,1,0,0,response5disk,,3,-17.46325684,-7.66583252,1,0,0,rectangle,-17.46325684,-7.66583252,1,0,0,-17.46325684,-7.66583252,1,0,0,0,36,36,129,1,,,,,,,,
,,,,,,,,,,,,,FF,,,,,,,,0.8843,,,,,,,,,,,,,,,,,,,,,,60fdfb0996257ffd90d67d2a,61036eb922306843fd58b97c,2021-07-29_22h16.34.850,Simcolourproject_2stim_asymm_v5,2020.2.10,MacIntel,60,61025ae37ef11b136ea224fe,,,,,,,,,51,30.50524902,-89.37115479,1,0,0,response3disk,,4,-7.516418457,-2.864318848,1,0,0,rectangle,-7.516418457,-2.864318848,1,0,0,-7.516418457,-2.864318848,1,0,0,0,37,37,39,1,,,,,,,,
,,,,,,,,,,,,,FF,,,,,,,,0.899,,,,,,,,,,,,,,,,,,,,,,60fdfb0996257ffd90d67d2a,61036eb922306843fd58b97c,2021-07-29_22h16.34.850,Simcolourproject_2stim_asymm_v5,2020.2.10,MacIntel,60,61025ae37ef11b136ea224fe,,,,,,,,,4341,71.48254395,-29.02349854,1,0,0,response3disk,,5,21.59075928,-8.175170898,1,0,0,rectangle,21.59075928,-8.175170898,1,0,0,21.59075928,-8.175170898,1,0,0,0,38,38,20,1,,,,,,,,
,,,,,,,,,,,,,FF,,,,,,,,0.7179,,,,,,,,,,,,,,,,,,,,,,60fdfb0996257ffd90d67d2a,61036eb922306843fd58b97c,2021-07-29_22h16.34.850,Simcolourproject_2stim_asymm_v5,2020.2.10,MacIntel,60,61025ae37ef11b136ea224fe,,,,,,,,,2697,43.10803223,-78.89782715,1,0,0,response3disk,,4,20.6151123,-9.930358887,1,0,0,rectangle,101.604187,-56.57800293,1,0,0,18.79980469,7.403839111,1,0,0,0,39,39,115,1,,response3disk_3,TRUE,5,5,"[127,50,82,220,102,203,32,109,229,202,201,13,234,29,276,303,136,40,257,62]",1.2337,rectangle
,,,,,,,,,,,,,FF,,,,,,,,0.9831,,,,,,,,,,,,,,,,,,,,,,60fdfb0996257ffd90d67d2a,61036eb922306843fd58b97c,2021-07-29_22h16.34.850,Simcolourproject_2stim_asymm_v5,2020.2.10,MacIntel,60,61025ae37ef11b136ea224fe,,,,,,,,,1073,38.48352051,-85.43371582,1,0,0,response3disk,,4,0.174560547,-8.76159668,1,0,0,rectangle,0.174560547,-8.76159668,1,0,0,0.174560547,-8.76159668,1,0,0,0,40,40,157,1,,,,,,,,
,,,,,,,,,,,,,FF,,,,,,,,0.6335,,,,,,,,,,,,,,,,,,,,,,60fdfb0996257ffd90d67d2a,61036eb922306843fd58b97c,2021-07-29_22h16.34.850,Simcolourproject_2stim_asymm_v5,2020.2.10,MacIntel,60,61025ae37ef11b136ea224fe,,,,,,,,,4326,-83.70953369,34.34030151,1,0,0,response7disk,,1,5.899536133,12.75958252,1,0,0,rectangle,5.899536133,12.75958252,1,0,0,5.899536133,12.75958252,1,0,0,0,41,41,16,1,,,,,,,,
,,,,,,,,,,,,,FF,,,,,,,,1.0835,,,,,,,,,,,,,,,,,,,,,,60fdfb0996257ffd90d67d2a,61036eb922306843fd58b97c,2021-07-29_22h16.34.850,Simcolourproject_2stim_asymm_v5,2020.2.10,MacIntel,60,61025ae37ef11b136ea224fe,,,,,,,,,97,39.77056885,-71.74780273,1,0,0,response3disk,,4,-21.57147217,2.769378662,1,0,0,rectangle,-21.57147217,2.769378662,1,0,0,-21.57147217,2.769378662,1,0,0,0,42,42,105,1,,,,,,,,
,,,,,,,,,,,,,FF,,,,,,,,0.6824,,,,,,,,,,,,,,,,,,,,,,60fdfb0996257ffd90d67d2a,61036eb922306843fd58b97c,2021-07-29_22h16.34.850,Simcolourproject_2stim_asymm_v5,2020.2.10,MacIntel,60,61025ae37ef11b136ea224fe,,,,,,,,,1459,-82.9119873,39.99188232,1,0,0,response7disk,,1,-16.54730225,-3.573852539,1,0,0,rectangle,-16.54730225,-3.573852539,1,0,0,-16.54730225,-3.573852539,1,0,0,0,43,43,153,1,,,,,,,,
,,,,,,,,,,,,,FF,,,,,,,,2.1674,,,,,,,,,,,,,,,,,,,,,,60fdfb0996257ffd90d67d2a,61036eb922306843fd58b97c,2021-07-29_22h16.34.850,Simcolourproject_2stim_asymm_v5,2020.2.10,MacIntel,60,61025ae37ef11b136ea224fe,,,,,,,,,516,48.81256104,29.77841187,1,0,0,response1disk,,6,-2.931762695,6.741943359,1,0,0,rectangle,-2.931762695,6.741943359,1,0,0,-2.931762695,6.741943359,1,0,0,0,44,44,149,1,,,,,,,,
,,,,,,,,,,,,,FF,,,,,,,,0.7496,,,,,,,,,,,,,,,,,,,,,,60fdfb0996257ffd90d67d2a,61036eb922306843fd58b97c,2021-07-29_22h16.34.850,Simcolourproject_2stim_asymm_v5,2020.2.10,MacIntel,60,61025ae37ef11b136ea224fe,,,,,,,,,3375,38.76379395,-63.73034668,1,0,0,response3disk,,4,-8.538574219,7.55368042,1,0,0,rectangle,-8.538574219,7.55368042,1,0,0,-8.538574219,7.55368042,1,0,0,0,45,45,137,1,,,,,,,,
,,,,,,,,,,,,,FF,,,,,,,,1.417,,,,,,,,,,,,,,,,,,,,,,60fdfb0996257ffd90d67d2a,61036eb922306843fd58b97c,2021-07-29_22h16.34.850,Simcolourproject_2stim_asymm_v5,2020.2.10,MacIntel,60,61025ae37ef11b136ea224fe,,,,,,,,,3635,68.92810059,-37.89404297,1,0,0,response3disk,,5,-2.758239746,-7.160644531,1,0,0,rectangle,-2.758239746,-7.160644531,1,0,0,-2.758239746,-7.160644531,1,0,0,0,46,46,120,1,,,,,,,,
,,,,,,,,,,,,,FF,,,,,,,,1.0167,,,,,,,,,,,,,,,,,,,,,,60fdfb0996257ffd90d67d2a,61036eb922306843fd58b97c,2021-07-29_22h16.34.850,Simcolourproject_2stim_asymm_v5,2020.2.10,MacIntel,60,61025ae37ef11b136ea224fe,,,,,,,,,3767,24.00061035,70.90637207,1,0,0,response1disk,,7,14.21490479,-11.49581909,1,0,0,rectangle,14.21490479,-11.49581909,1,0,0,14.21490479,-11.49581909,1,0,0,0,47,47,69,1,,,,,,,,
,,,,,,,,,,,,,FF,,,,,,,,0.7505,,,,,,,,,,,,,,,,,,,,,,60fdfb0996257ffd90d67d2a,61036eb922306843fd58b97c,2021-07-29_22h16.34.850,Simcolourproject_2stim_asymm_v5,2020.2.10,MacIntel,60,61025ae37ef11b136ea224fe,,,,,,,,,4315,20.9677124,66.26611328,1,0,0,response1disk,,7,3.450866699,-0.255126953,1,0,0,rectangle,3.450866699,-0.255126953,1,0,0,3.450866699,-0.255126953,1,0,0,0,48,48,23,1,,,,,,,,
,,,,,,,,,,,,,FF,,,,,,,,1.5991,,,,,,,,,,,,,,,,,,,,,,60fdfb0996257ffd90d67d2a,61036eb922306843fd58b97c,2021-07-29_22h16.34.850,Simcolourproject_2stim_asymm_v5,2020.2.10,MacIntel,60,61025ae37ef11b136ea224fe,,,,,,,,,2787,91.20330811,-54.90814209,1,0,0,response3disk,,5,1.776794434,3.496246338,1,0,0,rectangle,91.08398438,-49.07492065,1,0,0,7.977294922,5.262573242,1,0,0,0,49,49,32,1,,response3disk_3,TRUE,5,5,"[127,50,82,220,102,203,32,109,229,202,201,13,234,29,276,303,136,40,257,62]",3.7325,rectangle
,,,,,,,,,,,,,FF,,,,,,,,3.9334,,,,,,,,,,,,,,,,,,,,,,60fdfb0996257ffd90d67d2a,61036eb922306843fd58b97c,2021-07-29_22h16.34.850,Simcolourproject_2stim_asymm_v5,2020.2.10,MacIntel,60,61025ae37ef11b136ea224fe,,,,,,,,,1777,64.26312256,42.50170898,1,0,0,response1disk,,6,-16.52111816,12.17797852,1,0,0,rectangle,-16.52111816,12.17797852,1,0,0,-16.52111816,12.17797852,1,0,0,0,50,50,31,1,,,,,,,,
,,,,,,,,,,,,,FF,,,,,,,,1.1159,,,,,,,,,,,,,,,,,,,,,,60fdfb0996257ffd90d67d2a,61036eb922306843fd58b97c,2021-07-29_22h16.34.850,Simcolourproject_2stim_asymm_v5,2020.2.10,MacIntel,60,61025ae37ef11b136ea224fe,,,,,,,,,2775,-65.16363525,-22.00830078,1,0,0,response5disk,,2,-11.94445801,-10.97198486,1,0,0,rectangle,-11.94445801,-10.97198486,1,0,0,-11.94445801,-10.97198486,1,0,0,0,51,51,122,1,,,,,,,,
,,,,,,,,,,,,,FF,,,,,,,,0.8653,,,,,,,,,,,,,,,,,,,,,,60fdfb0996257ffd90d67d2a,61036eb922306843fd58b97c,2021-07-29_22h16.34.850,Simcolourproject_2stim_asymm_v5,2020.2.10,MacIntel,60,61025ae37ef11b136ea224fe,,,,,,,,,1278,61.29626465,-77.99212646,1,0,0,response3disk,,4,4.165344238,1.334991455,1,0,0,rectangle,4.165344238,1.334991455,1,0,0,4.165344238,1.334991455,1,0,0,0,52,52,100,1,,,,,,,,
,,,,,,,,,,,,,FF,,,,,,,,0.8009,,,,,,,,,,,,,,,,,,,,,,60fdfb0996257ffd90d67d2a,61036eb922306843fd58b97c,2021-07-29_22h16.34.850,Simcolourproject_2stim_asymm_v5,2020.2.10,MacIntel,60,61025ae37ef11b136ea224fe,,,,,,,,,3878,83.89068604,-43.18606567,1,0,0,response3disk,,5,15.85784912,-1.214355469,1,0,0,rectangle,15.85784912,-1.214355469,1,0,0,15.85784912,-1.214355469,1,0,0,0,53,53,84,1,,,,,,,,
,,,,,,,,,,,,,FF,,,,,,,,1.3843,,,,,,,,,,,,,,,,,,,,,,60fdfb0996257ffd90d67d2a,61036eb922306843fd58b97c,2021-07-29_22h16.34.850,Simcolourproject_2stim_asymm_v5,2020.2.10,MacIntel,60,61025ae37ef11b136ea224fe,,,,,,,,,1034,75.70391846,-44.71386719,1,0,0,response3disk,,5,-13.23022461,13.84289551,1,0,0,rectangle,-13.23022461,13.84289551,1,0,0,-13.23022461,13.84289551,1,0,0,0,54,54,117,1,,,,,,,,
,,,,,,,,,,,,,FF,,,,,,,,1.1682,,,,,,,,,,,,,,,,,,,,,,60fdfb0996257ffd90d67d2a,61036eb922306843fd58b97c,2021-07-29_22h16.34.850,Simcolourproject_2stim_asymm_v5,2020.2.10,MacIntel,60,61025ae37ef11b136ea224fe,,,,,,,,,4010,77.9800415,31.50918579,1,0,0,response1disk,,6,16.6217041,14.00543213,1,0,0,rectangle,16.6217041,14.00543213,1,0,0,16.6217041,14.00543213,1,0,0,0,55,55,135,1,,,,,,,,
,,,,,,,,,,,,,FF,,,,,,,,1.65,,,,,,,,,,,,,,,,,,,,,,60fdfb0996257ffd90d67d2a,61036eb922306843fd58b97c,2021-07-29_22h16.34.850,Simcolourproject_2stim_asymm_v5,2020.2.10,MacIntel,60,61025ae37ef11b136ea224fe,,,,,,,,,3341,-66.11376953,-67.32318115,1,0,0,response5disk,,3,7.381469727,9.175231934,1,0,0,rectangle,7.381469727,9.175231934,1,0,0,7.381469727,9.175231934,1,0,0,0,56,56,145,1,,,,,,,,
,,,,,,,,,,,,,FF,,,,,,,,0.8328,,,,,,,,,,,,,,,,,,,,,,60fdfb0996257ffd90d67d2a,61036eb922306843fd58b97c,2021-07-29_22h16.34.850,Simcolourproject_2stim_asymm_v5,2020.2.10,MacIntel,60,61025ae37ef11b136ea224fe,,,,,,,,,597,-43.4942627,-106.3839722,1,0,0,response5disk,,3,-21.56463623,2.634857178,1,0,0,rectangle,-21.56463623,2.634857178,1,0,0,-21.56463623,2.634857178,1,0,0,0,57,57,81,1,,,,,,,,
,,,,,,,,,,,,,FF,,,,,,,,1.9173,,,,,,,,,,,,,,,,,,,,,,60fdfb0996257ffd90d67d2a,61036eb922306843fd58b97c,2021-07-29_22h16.34.850,Simcolourproject_2stim_asymm_v5,2020.2.10,MacIntel,60,61025ae37ef11b136ea224fe,,,,,,,,,3379,34.03979492,-81.44482422,1,0,0,response3disk,,4,-6.501464844,-0.753753662,1,0,0,rectangle,-6.501464844,-0.753753662,1,0,0,-6.501464844,-0.753753662,1,0,0,0,58,58,98,1,,,,,,,,
,,,,,,,,,,,,,FF,,,,,,,,1.6017,,,,,,,,,,,,,,,,,,,,,,60fdfb0996257ffd90d67d2a,61036eb922306843fd58b97c,2021-07-29_22h16.34.850,Simcolourproject_2stim_asymm_v5,2020.2.10,MacIntel,60,61025ae37ef11b136ea224fe,,,,,,,,,1760,-79.15063477,-46.10733032,1,0,0,response5disk,,2,-2.982543945,4.215087891,1,0,0,rectangle,-2.982543945,4.215087891,1,0,0,-2.982543945,4.215087891,1,0,0,0,59,59,144,1,,,,,,,,
,,,,,,,,,,,,,FF,,,,,,,,0.7687,,,,,,,,,,,,,,,,,,,,,,60fdfb0996257ffd90d67d2a,61036eb922306843fd58b97c,2021-07-29_22h16.34.850,Simcolourproject_2stim_asymm_v5,2020.2.10,MacIntel,60,61025ae37ef11b136ea224fe,,,,,,,,,1383,-36.61065674,-105.4903564,1,0,0,response5disk,,3,-17.87036133,-3.254394531,1,0,0,rectangle,-17.87036133,-3.254394531,1,0,0,-17.87036133,-3.254394531,1,0,0,0,60,60,58,1,,,,,,,,
,,,,,,,,,,,,,FF,,,,,,,,0.9996,,,,,,,,,,,,,,,,,,,,,,60fdfb0996257ffd90d67d2a,61036eb922306843fd58b97c,2021-07-29_22h16.34.850,Simcolourproject_2stim_asymm_v5,2020.2.10,MacIntel,60,61025ae37ef11b136ea224fe,,,,,,,,,1698,-77.27911377,-33.45562744,1,0,0,response5disk,,2,-15.00317383,2.035308838,1,0,0,rectangle,69.18218994,42.30056763,1,0,0,-11.57739258,4.780639648,1,0,0,0,61,61,158,1,,response1disk_3,TRUE,6,6,"[127,50,82,220,102,203,32,109,229,202,201,13,234,29,276,303,136,40,257,62]",1.4675,rectangle
,,,,,,,,,,,,,FF,,,,,,,,1.0996,,,,,,,,,,,,,,,,,,,,,,60fdfb0996257ffd90d67d2a,61036eb922306843fd58b97c,2021-07-29_22h16.34.850,Simcolourproject_2stim_asymm_v5,2020.2.10,MacIntel,60,61025ae37ef11b136ea224fe,,,,,,,,,1157,-29.0892334,-74.18933105,1,0,0,response5disk,,3,-5.616943359,8.090087891,1,0,0,rectangle,-5.616943359,8.090087891,1,0,0,-5.616943359,8.090087891,1,0,0,0,62,62,76,1,,,,,,,,
,,,,,,,,,,,,,FF,,,,,,,,1.0672,,,,,,,,,,,,,,,,,,,,,,60fdfb0996257ffd90d67d2a,61036eb922306843fd58b97c,2021-07-29_22h16.34.850,Simcolourproject_2stim_asymm_v5,2020.2.10,MacIntel,60,61025ae37ef11b136ea224fe,,,,,,,,,3968,-77.41278076,-25.43212891,1,0,0,response5disk,,2,-6.01776123,-4.585998535,1,0,0,rectangle,-6.01776123,-4.585998535,1,0,0,-6.01776123,-4.585998535,1,0,0,0,63,63,30,1,,,,,,,,
,,,,,,,,,,,,,FF,,,,,,,,1.0663,,,,,,,,,,,,,,,,,,,,,,60fdfb0996257ffd90d67d2a,61036eb922306843fd58b97c,2021-07-29_22h16.34.850,Simcolourproject_2stim_asymm_v5,2020.2.10,MacIntel,60,61025ae37ef11b136ea224fe,,,,,,,,,1669,70.88769531,-23.91442871,1,0,0,response3disk,,5,-1.970825195,-0.514831543,1,0,0,rectangle,-1.970825195,-0.514831543,1,0,0,-1.970825195,-0.514831543,1,0,0,0,64,64,47,1,,,,,,,,
,,,,,,,,,,,,,FF,,,,,,,,0.8009,,,,,,,,,,,,,,,,,,,,,,60fdfb0996257ffd90d67d2a,61036eb922306843fd58b97c,2021-07-29_22h16.34.850,Simcolourproject_2stim_asymm_v5,2020.2.10,MacIntel,60,61025ae37ef11b136ea224fe,,,,,,,,,3773,47.77685547,-74.81213379,1,0,0,response3disk,,4,7.128173828,0.411682129,1,0,0,rectangle,7.128173828,0.411682129,1,0,0,7.128173828,0.411682129,1,0,0,0,65,65,24,1,,,,,,,,
,,,,,,,,,,,,,FF,,,,,,,,1.1988,,,,,,,,,,,,,,,,,,,,,,60fdfb0996257ffd90d67d2a,61036eb922306843fd58b97c,2021-07-29_22h16.34.850,Simcolourproject_2stim_asymm_v5,2020.2.10,MacIntel,60,61025ae37ef11b136ea224fe,,,,,,,,,250,-30.5871582,-82.24664307,1,0,0,response5disk,,3,-15.74969482,7.266113281,1,0,0,rectangle,-15.74969482,7.266113281,1,0,0,-15.74969482,7.266113281,1,0,0,0,66,66,74,1,,,,,,,,
,,,,,,,,,,,,,FF,,,,,,,,2.3003,,,,,,,,,,,,,,,,,,,,,,60fdfb0996257ffd90d67d2a,61036eb922306843fd58b97c,2021-07-29_22h16.34.850,Simcolourproject_2stim_asymm_v5,2020.2.10,MacIntel,60,61025ae37ef11b136ea224fe,,,,,,,,,2472,-75.08959961,-25.40588379,1,0,0,response5disk,,2,-11.57025146,-4.643676758,1,0,0,rectangle,-11.57025146,-4.643676758,1,0,0,-11.57025146,-4.643676758,1,0,0,0,67,67,57,1,,,,,,,,
,,,,,,,,,,,,,FF,,,,,,,,0.6669,,,,,,,,,,,,,,,,,,,,,,60fdfb0996257ffd90d67d2a,61036eb922306843fd58b97c,2021-07-29_22h16.34.850,Simcolourproject_2stim_asymm_v5,2020.2.10,MacIntel,60,61025ae37ef11b136ea224fe,,,,,,,,,657,-33.63635254,-72.89282227,1,0,0,response5disk,,3,-17.61065674,8.44039917,1,0,0,rectangle,-17.61065674,8.44039917,1,0,0,-17.61065674,8.44039917,1,0,0,0,68,68,48,1,,,,,,,,
,,,,,,,,,,,,,FF,,,,,,,,1.2329,,,,,,,,,,,,,,,,,,,,,,60fdfb0996257ffd90d67d2a,61036eb922306843fd58b97c,2021-07-29_22h16.34.850,Simcolourproject_2stim_asymm_v5,2020.2.10,MacIntel,60,61025ae37ef11b136ea224fe,,,,,,,,,285,94.36096191,-43.01647949,1,0,0,response3disk,,5,19.5045166,-3.431243896,1,0,0,rectangle,19.5045166,-3.431243896,1,0,0,19.5045166,-3.431243896,1,0,0,0,69,69,110,1,,,,,,,,
,,,,,,,,,,,,,FF,,,,,,,,1.034,,,,,,,,,,,,,,,,,,,,,,60fdfb0996257ffd90d67d2a,61036eb922306843fd58b97c,2021-07-29_22h16.34.850,Simcolourproject_2stim_asymm_v5,2020.2.10,MacIntel,60,61025ae37ef11b136ea224fe,,,,,,,,,2749,78.27380371,40.46881104,1,0,0,response1disk,,6,11.66143799,-4.081054688,1,0,0,rectangle,11.66143799,-4.081054688,1,0,0,11.66143799,-4.081054688,1,0,0,0,70,70,154,1,,,,,,,,
,,,,,,,,,,,,,FF,,,,,,,,1.2005,,,,,,,,,,,,,,,,,,,,,,60fdfb0996257ffd90d67d2a,61036eb922306843fd58b97c,2021-07-29_22h16.34.850,Simcolourproject_2stim_asymm_v5,2020.2.10,MacIntel,60,61025ae37ef11b136ea224fe,,,,,,,,,561,104.1884766,-48.81164551,1,0,0,response3disk,,5,7.166442871,-13.17208862,1,0,0,rectangle,7.166442871,-13.17208862,1,0,0,7.166442871,-13.17208862,1,0,0,0,71,71,155,1,,,,,,,,
,,,,,,,,,,,,,FF,,,,,,,,1.1685,,,,,,,,,,,,,,,,,,,,,,60fdfb0996257ffd90d67d2a,61036eb922306843fd58b97c,2021-07-29_22h16.34.850,Simcolourproject_2stim_asymm_v5,2020.2.10,MacIntel,60,61025ae37ef11b136ea224fe,,,,,,,,,1455,-28.82684326,-79.8614502,1,0,0,response5disk,,3,-25.49609375,-2.689361572,1,0,0,rectangle,-25.49609375,-2.689361572,1,0,0,-25.49609375,-2.689361572,1,0,0,0,72,72,27,1,,,,,,,,
,,,,,,,,,,,,,FF,,,,,,,,1.0178,,,,,,,,,,,,,,,,,,,,,,60fdfb0996257ffd90d67d2a,61036eb922306843fd58b97c,2021-07-29_22h16.34.850,Simcolourproject_2stim_asymm_v5,2020.2.10,MacIntel,60,61025ae37ef11b136ea224fe,,,,,,,,,538,-79.81317139,-43.9581604,1,0,0,response5disk,,2,-10.44329834,-13.88427734,1,0,0,rectangle,-10.44329834,-13.88427734,1,0,0,-10.44329834,-13.88427734,1,0,0,0,73,73,40,1,,,,,,,,
,,,,,,,,,,,,,FF,,,,,,,,2.9333,,,,,,,,,,,,,,,,,,,,,,60fdfb0996257ffd90d67d2a,61036eb922306843fd58b97c,2021-07-29_22h16.34.850,Simcolourproject_2stim_asymm_v5,2020.2.10,MacIntel,60,61025ae37ef11b136ea224fe,,,,,,,,,3786,-87.9029541,-52.91644287,1,0,0,response5disk,,2,-11.79748535,-13.05984497,1,0,0,rectangle,-11.79748535,-13.05984497,1,0,0,-11.79748535,-13.05984497,1,0,0,0,74,74,82,1,,,,,,,,
,,,,,,,,,,,,,FF,,,,,,,,0.7673,,,,,,,,,,,,,,,,,,,,,,60fdfb0996257ffd90d67d2a,61036eb922306843fd58b97c,2021-07-29_22h16.34.850,Simcolourproject_2stim_asymm_v5,2020.2.10,MacIntel,60,61025ae37ef11b136ea224fe,,,,,,,,,3748,-112.3716431,55.99676514,1,0,0,response7disk,,1,-15.19238281,-4.176361084,1,0,0,rectangle,-15.19238281,-4.176361084,1,0,0,-15.19238281,-4.176361084,1,0,0,0,75,75,44,1,,,,,,,,
,,,,,,,,,,,,,FF,,,,,,,,0.7661,,,,,,,,,,,,,,,,,,,,,,60fdfb0996257ffd90d67d2a,61036eb922306843fd58b97c,2021-07-29_22h16.34.850,Simcolourproject_2stim_asymm_v5,2020.2.10,MacIntel,60,61025ae37ef11b136ea224fe,,,,,,,,,1361,-50.07702637,-82.33123779,1,0,0,response5disk,,3,-28.95825195,-5.426635742,1,0,0,rectangle,-28.95825195,-5.426635742,1,0,0,-28.95825195,-5.426635742,1,0,0,0,76,76,43,1,,,,,,,,
,,,,,,,,,,,,,FF,,,,,,,,1.2674,,,,,,,,,,,,,,,,,,,,,,60fdfb0996257ffd90d67d2a,61036eb922306843fd58b97c,2021-07-29_22h16.34.850,Simcolourproject_2stim_asymm_v5,2020.2.10,MacIntel,60,61025ae37ef11b136ea224fe,,,,,,,,,3339,-95.50244141,-44.91488647,1,0,0,response5disk,,2,-22.8135376,1.606201172,1,0,0,rectangle,-22.8135376,1.606201172,1,0,0,-22.8135376,1.606201172,1,0,0,0,77,77,38,1,,,,,,,,
,,,,,,,,,,,,,FF,,,,,,,,0.6673,,,,,,,,,,,,,,,,,,,,,,60fdfb0996257ffd90d67d2a,61036eb922306843fd58b97c,2021-07-29_22h16.34.850,Simcolourproject_2stim_asymm_v5,2020.2.10,MacIntel,60,61025ae37ef11b136ea224fe,,,,,,,,,27,-40.85736084,-84.19659424,1,0,0,response5disk,,3,-9.36932373,13.15597534,1,0,0,rectangle,-9.36932373,13.15597534,1,0,0,-9.36932373,13.15597534,1,0,0,0,78,78,80,1,,,,,,,,
,,,,,,,,,,,,,FF,,,,,,,,0.7337,,,,,,,,,,,,,,,,,,,,,,60fdfb0996257ffd90d67d2a,61036eb922306843fd58b97c,2021-07-29_22h16.34.850,Simcolourproject_2stim_asymm_v5,2020.2.10,MacIntel,60,61025ae37ef11b136ea224fe,,,,,,,,,2473,-54.03118896,-67.86914063,1,0,0,response5disk,,3,-13.8651123,3.801940918,1,0,0,rectangle,-13.8651123,3.801940918,1,0,0,-13.8651123,3.801940918,1,0,0,0,79,79,146,1,,,,,,,,
,,,,,,,,,,,,,FF,,,,,,,,0.8164,,,,,,,,,,,,,,,,,,,,,,60fdfb0996257ffd90d67d2a,61036eb922306843fd58b97c,2021-07-29_22h16.34.850,Simcolourproject_2stim_asymm_v5,2020.2.10,MacIntel,60,61025ae37ef11b136ea224fe,,,,,,,,,1521,-79.64129639,38.15240479,1,0,0,response7disk,,1,-16.93743896,1.012390137,1,0,0,rectangle,-16.93743896,1.012390137,1,0,0,-16.93743896,1.012390137,1,0,0,0,80,80,141,1,,,,,,,,
,,,,,,,,,,,,,FF,,,,,,,,1.3335,,,,,,,,,,,,,,,,,,,,,,60fdfb0996257ffd90d67d2a,61036eb922306843fd58b97c,2021-07-29_22h16.34.850,Simcolourproject_2stim_asymm_v5,2020.2.10,MacIntel,60,61025ae37ef11b136ea224fe,,,,,,,,,864,-40.4786377,-93.62078857,1,0,0,response5disk,,3,-12.26318359,-11.03796387,1,0,0,rectangle,-62.54162598,44.12316895,1,0,0,-9.139648438,-1.756896973,1,0,0,0,81,81,60,1,,response7disk_3,TRUE,1,1,"[127,50,82,220,102,203,32,109,229,202,201,13,234,29,276,303,136,40,257,62]",1.0995,rectangle
,,,,,,,,,,,,,FF,,,,,,,,2.1863,,,,,,,,,,,,,,,,,,,,,,60fdfb0996257ffd90d67d2a,61036eb922306843fd58b97c,2021-07-29_22h16.34.850,Simcolourproject_2stim_asymm_v5,2020.2.10,MacIntel,60,61025ae37ef11b136ea224fe,,,,,,,,,3248,-54.01727295,-90.20141602,1,0,0,response5disk,,3,-2.589111328,-5.370788574,1,0,0,rectangle,-2.589111328,-5.370788574,1,0,0,-2.589111328,-5.370788574,1,0,0,0,82,82,17,1,,,,,,,,
,,,,,,,,,,,,,FF,,,,,,,,0.9508,,,,,,,,,,,,,,,,,,,,,,60fdfb0996257ffd90d67d2a,61036eb922306843fd58b97c,2021-07-29_22h16.34.850,Simcolourproject_2stim_asymm_v5,2020.2.10,MacIntel,60,61025ae37ef11b136ea224fe,,,,,,,,,101,38.77429199,-65.43164063,1,0,0,response3disk,,4,5.80645752,-0.861175537,1,0,0,rectangle,5.80645752,-0.861175537,1,0,0,5.80645752,-0.861175537,1,0,0,0,83,83,75,1,,,,,,,,
,,,,,,,,,,,,,FF,,,,,,,,1.1326,,,,,,,,,,,,,,,,,,,,,,60fdfb0996257ffd90d67d2a,61036eb922306843fd58b97c,2021-07-29_22h16.34.850,Simcolourproject_2stim_asymm_v5,2020.2.10,MacIntel,60,61025ae37ef11b136ea224fe,,,,,,,,,4239,77.1784668,-51.34155273,1,0,0,response3disk,,5,-2.237854004,-8.277770996,1,0,0,rectangle,-2.237854004,-8.277770996,1,0,0,-2.237854004,-8.277770996,1,0,0,0,84,84,73,1,,,,,,,,
,,,,,,,,,,,,,FF,,,,,,,,0.6837,,,,,,,,,,,,,,,,,,,,,,60fdfb0996257ffd90d67d2a,61036eb922306843fd58b97c,2021-07-29_22h16.34.850,Simcolourproject_2stim_asymm_v5,2020.2.10,MacIntel,60,61025ae37ef11b136ea224fe,,,,,,,,,1577,-33.46057129,-79.89086914,1,0,0,response5disk,,3,-25.1472168,-9.383117676,1,0,0,rectangle,-25.1472168,-9.383117676,1,0,0,-25.1472168,-9.383117676,1,0,0,0,85,85,50,1,,,,,,,,
,,,,,,,,,,,,,FF,,,,,,,,0.7006,,,,,,,,,,,,,,,,,,,,,,60fdfb0996257ffd90d67d2a,61036eb922306843fd58b97c,2021-07-29_22h16.34.850,Simcolourproject_2stim_asymm_v5,2020.2.10,MacIntel,60,61025ae37ef11b136ea224fe,,,,,,,,,3970,-79.16046143,-33.91192627,1,0,0,response5disk,,2,-5.965454102,-12.70739746,1,0,0,rectangle,-5.965454102,-12.70739746,1,0,0,-5.965454102,-12.70739746,1,0,0,0,86,86,128,1,,,,,,,,
,,,,,,,,,,,,,FF,,,,,,,,1.535,,,,,,,,,,,,,,,,,,,,,,60fdfb0996257ffd90d67d2a,61036eb922306843fd58b97c,2021-07-29_22h16.34.850,Simcolourproject_2stim_asymm_v5,2020.2.10,MacIntel,60,61025ae37ef11b136ea224fe,,,,,,,,,2692,52.8145752,-66.92156982,1,0,0,response3disk,,4,10.40496826,0.493988037,1,0,0,rectangle,10.40496826,0.493988037,1,0,0,10.40496826,0.493988037,1,0,0,0,87,87,132,1,,,,,,,,
,,,,,,,,,,,,,FF,,,,,,,,0.7672,,,,,,,,,,,,,,,,,,,,,,60fdfb0996257ffd90d67d2a,61036eb922306843fd58b97c,2021-07-29_22h16.34.850,Simcolourproject_2stim_asymm_v5,2020.2.10,MacIntel,60,61025ae37ef11b136ea224fe,,,,,,,,,3498,-39.91943359,-64.02386475,1,0,0,response5disk,,3,-21.82629395,11.23126221,1,0,0,rectangle,-21.82629395,11.23126221,1,0,0,-21.82629395,11.23126221,1,0,0,0,88,88,159,1,,,,,,,,
,,,,,,,,,,,,,FF,,,,,,,,0.7995,,,,,,,,,,,,,,,,,,,,,,60fdfb0996257ffd90d67d2a,61036eb922306843fd58b97c,2021-07-29_22h16.34.850,Simcolourproject_2stim_asymm_v5,2020.2.10,MacIntel,60,61025ae37ef11b136ea224fe,,,,,,,,,2769,-25.78778076,-60.35296631,1,0,0,response5disk,,3,-1.991821289,-3.996826172,1,0,0,rectangle,-1.991821289,-3.996826172,1,0,0,-1.991821289,-3.996826172,1,0,0,0,89,89,133,1,,,,,,,,
,,,,,,,,,,,,,FF,,,,,,,,10.1334,,,,,,,,,,,,,,,,,,,,,,60fdfb0996257ffd90d67d2a,61036eb922306843fd58b97c,2021-07-29_22h16.34.850,Simcolourproject_2stim_asymm_v5,2020.2.10,MacIntel,60,61025ae37ef11b136ea224fe,,,,,,,,,1160,-40.39788818,-65.13598633,1,0,0,response5disk,,3,-9.155456543,-4.634185791,1,0,0,rectangle,-9.155456543,-4.634185791,1,0,0,-9.155456543,-4.634185791,1,0,0,0,90,90,3,1,,,,,,,,
,,,,,,,,,,,,,FF,,,,,,,,1.2497,,,,,,,,,,,,,,,,,,,,,,60fdfb0996257ffd90d67d2a,61036eb922306843fd58b97c,2021-07-29_22h16.34.850,Simcolourproject_2stim_asymm_v5,2020.2.10,MacIntel,60,61025ae37ef11b136ea224fe,,,,,,,,,2648,42.99267578,-83.04907227,1,0,0,response3disk,,4,9.995422363,-3.782836914,1,0,0,rectangle,9.995422363,-3.782836914,1,0,0,9.995422363,-3.782836914,1,0,0,0,91,91,136,1,,,,,,,,
,,,,,,,,,,,,,FF,,,,,,,,0.7176,,,,,,,,,,,,,,,,,,,,,,60fdfb0996257ffd90d67d2a,61036eb922306843fd58b97c,2021-07-29_22h16.34.850,Simcolourproject_2stim_asymm_v5,2020.2.10,MacIntel,60,61025ae37ef11b136ea224fe,,,,,,,,,3961,81.41937256,-38.99703979,1,0,0,response3disk,,5,13.94189453,-0.181396484,1,0,0,rectangle,13.94189453,-0.181396484,1,0,0,13.94189453,-0.181396484,1,0,0,0,92,92,56,1,,,,,,,,
,,,,,,,,,,,,,FF,,,,,,,,1.6985,,,,,,,,,,,,,,,,,,,,,,60fdfb0996257ffd90d67d2a,61036eb922306843fd58b97c,2021-07-29_22h16.34.850,Simcolourproject_2stim_asymm_v5,2020.2.10,MacIntel,60,61025ae37ef11b136ea224fe,,,,,,,,,3864,-72.61486816,-52.39550781,1,0,0,response5disk,,2,-2.433288574,-7.166564941,1,0,0,rectangle,-2.433288574,-7.166564941,1,0,0,-2.433288574,-7.166564941,1,0,0,0,93,93,59,1,,,,,,,,
,,,,,,,,,,,,,FF,,,,,,,,1.2334,,,,,,,,,,,,,,,,,,,,,,60fdfb0996257ffd90d67d2a,61036eb922306843fd58b97c,2021-07-29_22h16.34.850,Simcolourproject_2stim_asymm_v5,2020.2.10,MacIntel,60,61025ae37ef11b136ea224fe,,,,,,,,,1093,84.22174072,-38.98370361,1,0,0,response3disk,,5,2.635986328,-0.747650146,1,0,0,rectangle,2.635986328,-0.747650146,1,0,0,2.635986328,-0.747650146,1,0,0,0,94,94,127,1,,,,,,,,
,,,,,,,,,,,,,FF,,,,,,,,1.1349,,,,,,,,,,,,,,,,,,,,,,60fdfb0996257ffd90d67d2a,61036eb922306843fd58b97c,2021-07-29_22h16.34.850,Simcolourproject_2stim_asymm_v5,2020.2.10,MacIntel,60,61025ae37ef11b136ea224fe,,,,,,,,,645,36.14117432,-87.22540283,1,0,0,response3disk,,4,5.731750488,-2.516540527,1,0,0,rectangle,5.731750488,-2.516540527,1,0,0,5.731750488,-2.516540527,1,0,0,0,95,95,97,1,,,,,,,,
,,,,,,,,,,,,,FF,,,,,,,,2.6177,,,,,,,,,,,,,,,,,,,,,,60fdfb0996257ffd90d67d2a,61036eb922306843fd58b97c,2021-07-29_22h16.34.850,Simcolourproject_2stim_asymm_v5,2020.2.10,MacIntel,60,61025ae37ef11b136ea224fe,,,,,,,,,75,33.49475098,-71.425354,1,0,0,response3disk,,4,7.851196289,-2.91986084,1,0,0,rectangle,7.851196289,-2.91986084,1,0,0,7.851196289,-2.91986084,1,0,0,0,96,96,2,1,,,,,,,,
,,,,,,,,,,,,,FF,,,,,,,,0.801,,,,,,,,,,,,,,,,,,,,,,60fdfb0996257ffd90d67d2a,61036eb922306843fd58b97c,2021-07-29_22h16.34.850,Simcolourproject_2stim_asymm_v5,2020.2.10,MacIntel,60,61025ae37ef11b136ea224fe,,,,,,,,,3763,62.9753418,33.60754395,1,0,0,response1disk,,6,7.767578125,8.775726318,1,0,0,rectangle,7.767578125,8.775726318,1,0,0,7.767578125,8.775726318,1,0,0,0,97,97,33,1,,,,,,,,
,,,,,,,,,,,,,FF,,,,,,,,1.5999,,,,,,,,,,,,,,,,,,,,,,60fdfb0996257ffd90d67d2a,61036eb922306843fd58b97c,2021-07-29_22h16.34.850,Simcolourproject_2stim_asymm_v5,2020.2.10,MacIntel,60,61025ae37ef11b136ea224fe,,,,,,,,,3050,29.62255859,-87.16278076,1,0,0,response3disk,,4,14.07385254,4.376678467,1,0,0,rectangle,14.07385254,4.376678467,1,0,0,14.07385254,4.376678467,1,0,0,0,98,98,19,1,,,,,,,,
,,,,,,,,,,,,,FF,,,,,,,,2.351,,,,,,,,,,,,,,,,,,,,,,60fdfb0996257ffd90d67d2a,61036eb922306843fd58b97c,2021-07-29_22h16.34.850,Simcolourproject_2stim_asymm_v5,2020.2.10,MacIntel,60,61025ae37ef11b136ea224fe,,,,,,,,,1041,23.30975342,-62.80200195,1,0,0,response3disk,,4,-12.47369385,-0.352539063,1,0,0,rectangle,-12.47369385,-0.352539063,1,0,0,-12.47369385,-0.352539063,1,0,0,0,99,99,139,1,,,,,,,,
,,,,,,,,,,,,,FF,,,,,,,,1.5831,,,,,,,,,,,,,,,,,,,,,,60fdfb0996257ffd90d67d2a,61036eb922306843fd58b97c,2021-07-29_22h16.34.850,Simcolourproject_2stim_asymm_v5,2020.2.10,MacIntel,60,61025ae37ef11b136ea224fe,,,,,,,,,2565,90.2399292,-53.73910522,1,0,0,response3disk,,5,14.46838379,-3.941589355,1,0,0,rectangle,14.46838379,-3.941589355,1,0,0,14.46838379,-3.941589355,1,0,0,0,100,100,67,1,,,,,,,,
,,,,,,,,,,,,,FF,,,,,,,,1.3173,,,,,,,,,,,,,,,,,,,,,,60fdfb0996257ffd90d67d2a,61036eb922306843fd58b97c,2021-07-29_22h16.34.850,Simcolourproject_2stim_asymm_v5,2020.2.10,MacIntel,60,61025ae37ef11b136ea224fe,,,,,,,,,11,-42.60479736,-71.27905273,1,0,0,response5disk,,3,-33.18725586,-10.15490723,1,0,0,rectangle,28.33782959,97.64862061,1,0,0,1.350219727,-4.10256958,1,0,0,0,101,101,28,1,,response1disk_3,TRUE,7,7,"[127,50,82,220,102,203,32,109,229,202,201,13,234,29,276,303,136,40,257,62]",1.1322,rectangle
,,,,,,,,,,,,,FF,,,,,,,,1.95,,,,,,,,,,,,,,,,,,,,,,60fdfb0996257ffd90d67d2a,61036eb922306843fd58b97c,2021-07-29_22h16.34.850,Simcolourproject_2stim_asymm_v5,2020.2.10,MacIntel,60,61025ae37ef11b136ea224fe,,,,,,,,,2801,62.8927002,-45.42163086,1,0,0,response3disk,,5,7.882019043,-16.51101685,1,0,0,rectangle,7.882019043,-16.51101685,1,0,0,7.882019043,-16.51101685,1,0,0,0,102,102,85,1,,,,,,,,
,,,,,,,,,,,,,FF,,,,,,,,0.9668,,,,,,,,,,,,,,,,,,,,,,60fdfb0996257ffd90d67d2a,61036eb922306843fd58b97c,2021-07-29_22h16.34.850,Simcolourproject_2stim_asymm_v5,2020.2.10,MacIntel,60,61025ae37ef11b136ea224fe,,,,,,,,,1934,28.89013672,-95.53179932,1,0,0,response3disk,,4,6.075561523,-3.257751465,1,0,0,rectangle,6.075561523,-3.257751465,1,0,0,6.075561523,-3.257751465,1,0,0,0,103,103,42,1,,,,,,,,
,,,,,,,,,,,,,FF,,,,,,,,1.001,,,,,,,,,,,,,,,,,,,,,,60fdfb0996257ffd90d67d2a,61036eb922306843fd58b97c,2021-07-29_22h16.34.850,Simcolourproject_2stim_asymm_v5,2020.2.10,MacIntel,60,61025ae37ef11b136ea224fe,,,,,,,,,1354,-27.90124512,-81.61535645,1,0,0,response5disk,,3,-27.90124512,10.7755127,1,0,0,rectangle,-27.90124512,10.7755127,1,0,0,-27.90124512,10.7755127,1,0,0,0,104,104,21,1,,,,,,,,
,,,,,,,,,,,,,FF,,,,,,,,1.1499,,,,,,,,,,,,,,,,,,,,,,60fdfb0996257ffd90d67d2a,61036eb922306843fd58b97c,2021-07-29_22h16.34.850,Simcolourproject_2stim_asymm_v5,2020.2.10,MacIntel,60,61025ae37ef11b136ea224fe,,,,,,,,,3356,-16.36334229,-82.5760498,1,0,0,response5disk,,3,-17.59460449,0.786743164,1,0,0,rectangle,-17.59460449,0.786743164,1,0,0,-17.59460449,0.786743164,1,0,0,0,105,105,65,1,,,,,,,,
,,,,,,,,,,,,,FF,,,,,,,,0.8678,,,,,,,,,,,,,,,,,,,,,,60fdfb0996257ffd90d67d2a,61036eb922306843fd58b97c,2021-07-29_22h16.34.850,Simcolourproject_2stim_asymm_v5,2020.2.10,MacIntel,60,61025ae37ef11b136ea224fe,,,,,,,,,4084,-87.74267578,39.00939941,1,0,0,response7disk,,1,-4.424133301,13.76818848,1,0,0,rectangle,-4.424133301,13.76818848,1,0,0,-4.424133301,13.76818848,1,0,0,0,106,106,6,1,,,,,,,,
,,,,,,,,,,,,,FF,,,,,,,,1.7002,,,,,,,,,,,,,,,,,,,,,,60fdfb0996257ffd90d67d2a,61036eb922306843fd58b97c,2021-07-29_22h16.34.850,Simcolourproject_2stim_asymm_v5,2020.2.10,MacIntel,60,61025ae37ef11b136ea224fe,,,,,,,,,81,-42.79644775,-74.54431152,1,0,0,response5disk,,3,-23.80987549,0.329345703,1,0,0,rectangle,-23.80987549,0.329345703,1,0,0,-23.80987549,0.329345703,1,0,0,0,107,107,86,1,,,,,,,,
,,,,,,,,,,,,,FF,,,,,,,,1.0157,,,,,,,,,,,,,,,,,,,,,,60fdfb0996257ffd90d67d2a,61036eb922306843fd58b97c,2021-07-29_22h16.34.850,Simcolourproject_2stim_asymm_v5,2020.2.10,MacIntel,60,61025ae37ef11b136ea224fe,,,,,,,,,1558,-70.0994873,-39.15289307,1,0,0,response5disk,,2,4.446716309,-6.141052246,1,0,0,rectangle,-90.48400879,-35.22546387,1,0,0,-18.68237305,-6.815795898,1,0,0,0,108,108,36,1,,response5disk_3,TRUE,2,2,"[127,50,82,220,102,203,32,109,229,202,201,13,234,29,276,303,136,40,257,62]",1.1499,rectangle
,,,,,,,,,,,,,FF,,,,,,,,1.0999,,,,,,,,,,,,,,,,,,,,,,60fdfb0996257ffd90d67d2a,61036eb922306843fd58b97c,2021-07-29_22h16.34.850,Simcolourproject_2stim_asymm_v5,2020.2.10,MacIntel,60,61025ae37ef11b136ea224fe,,,,,,,,,2830,-44.96032715,-75.19958496,1,0,0,response5disk,,3,-9.767578125,1.559875488,1,0,0,rectangle,-9.767578125,1.559875488,1,0,0,-9.767578125,1.559875488,1,0,0,0,109,109,142,1,,,,,,,,
,,,,,,,,,,,,,FF,,,,,,,,1.1819,,,,,,,,,,,,,,,,,,,,,,60fdfb0996257ffd90d67d2a,61036eb922306843fd58b97c,2021-07-29_22h16.34.850,Simcolourproject_2stim_asymm_v5,2020.2.10,MacIntel,60,61025ae37ef11b136ea224fe,,,,,,,,,454,34.24249268,60.60961914,1,0,0,response1disk,,7,17.0635376,10.32345581,1,0,0,rectangle,17.0635376,10.32345581,1,0,0,17.0635376,10.32345581,1,0,0,0,110,110,9,1,,,,,,,,
,,,,,,,,,,,,,FF,,,,,,,,1.6336,,,,,,,,,,,,,,,,,,,,,,60fdfb0996257ffd90d67d2a,61036eb922306843fd58b97c,2021-07-29_22h16.34.850,Simcolourproject_2stim_asymm_v5,2020.2.10,MacIntel,60,61025ae37ef11b136ea224fe,,,,,,,,,1662,-52.43334961,-24.79559326,1,0,0,response5disk,,2,5.986938477,11.03549194,1,0,0,rectangle,5.986938477,11.03549194,1,0,0,5.986938477,11.03549194,1,0,0,0,111,111,46,1,,,,,,,,
,,,,,,,,,,,,,FF,,,,,,,,3.6331,,,,,,,,,,,,,,,,,,,,,,60fdfb0996257ffd90d67d2a,61036eb922306843fd58b97c,2021-07-29_22h16.34.850,Simcolourproject_2stim_asymm_v5,2020.2.10,MacIntel,60,61025ae37ef11b136ea224fe,,,,,,,,,1182,26.72900391,-74.19311523,1,0,0,response3disk,,4,-2.819702148,9.912597656,1,0,0,rectangle,-2.819702148,9.912597656,1,0,0,-2.819702148,9.912597656,1,0,0,0,112,112,126,1,,,,,,,,
,,,,,,,,,,,,,FF,,,,,,,,1.2005,,,,,,,,,,,,,,,,,,,,,,60fdfb0996257ffd90d67d2a,61036eb922306843fd58b97c,2021-07-29_22h16.34.850,Simcolourproject_2stim_asymm_v5,2020.2.10,MacIntel,60,61025ae37ef11b136ea224fe,,,,,,,,,3743,-70.11431885,-29.28057861,1,0,0,response5disk,,2,2.347290039,-17.9475708,1,0,0,rectangle,2.347290039,-17.9475708,1,0,0,2.347290039,-17.9475708,1,0,0,0,113,113,77,1,,,,,,,,
,,,,,,,,,,,,,FF,,,,,,,,1.1842,,,,,,,,,,,,,,,,,,,,,,60fdfb0996257ffd90d67d2a,61036eb922306843fd58b97c,2021-07-29_22h16.34.850,Simcolourproject_2stim_asymm_v5,2020.2.10,MacIntel,60,61025ae37ef11b136ea224fe,,,,,,,,,3836,-82.19445801,-27.61199951,1,0,0,response5disk,,2,-11.74932861,-17.43237305,1,0,0,rectangle,-11.74932861,-17.43237305,1,0,0,-11.74932861,-17.43237305,1,0,0,0,114,114,70,1,,,,,,,,
,,,,,,,,,,,,,FF,,,,,,,,0.8174,,,,,,,,,,,,,,,,,,,,,,60fdfb0996257ffd90d67d2a,61036eb922306843fd58b97c,2021-07-29_22h16.34.850,Simcolourproject_2stim_asymm_v5,2020.2.10,MacIntel,60,61025ae37ef11b136ea224fe,,,,,,,,,4292,37.22601318,-54.52737427,1,0,0,response3disk,,4,21.95678711,-12.12506104,1,0,0,rectangle,21.95678711,-12.12506104,1,0,0,21.95678711,-12.12506104,1,0,0,0,115,115,103,1,,,,,,,,
,,,,,,,,,,,,,FF,,,,,,,,0.6988,,,,,,,,,,,,,,,,,,,,,,60fdfb0996257ffd90d67d2a,61036eb922306843fd58b97c,2021-07-29_22h16.34.850,Simcolourproject_2stim_asymm_v5,2020.2.10,MacIntel,60,61025ae37ef11b136ea224fe,,,,,,,,,3482,-81.57141113,16.48358154,1,0,0,response7disk,,1,-18.66473389,-0.501403809,1,0,0,rectangle,-18.66473389,-0.501403809,1,0,0,-18.66473389,-0.501403809,1,0,0,0,116,116,13,1,,,,,,,,
,,,,,,,,,,,,,FF,,,,,,,,1.2838,,,,,,,,,,,,,,,,,,,,,,60fdfb0996257ffd90d67d2a,61036eb922306843fd58b97c,2021-07-29_22h16.34.850,Simcolourproject_2stim_asymm_v5,2020.2.10,MacIntel,60,61025ae37ef11b136ea224fe,,,,,,,,,3216,-32.63830566,-65.78112793,1,0,0,response5disk,,3,-23.14172363,-3.46484375,1,0,0,rectangle,-23.14172363,-3.46484375,1,0,0,-23.14172363,-3.46484375,1,0,0,0,117,117,118,1,,,,,,,,
,,,,,,,,,,,,,FF,,,,,,,,1.3997,,,,,,,,,,,,,,,,,,,,,,60fdfb0996257ffd90d67d2a,61036eb922306843fd58b97c,2021-07-29_22h16.34.850,Simcolourproject_2stim_asymm_v5,2020.2.10,MacIntel,60,61025ae37ef11b136ea224fe,,,,,,,,,3359,45.36224365,-68.76342773,1,0,0,response3disk,,4,3.278808594,-8.455200195,1,0,0,rectangle,3.278808594,-8.455200195,1,0,0,3.278808594,-8.455200195,1,0,0,0,118,118,49,1,,,,,,,,
,,,,,,,,,,,,,FF,,,,,,,,0.984,,,,,,,,,,,,,,,,,,,,,,60fdfb0996257ffd90d67d2a,61036eb922306843fd58b97c,2021-07-29_22h16.34.850,Simcolourproject_2stim_asymm_v5,2020.2.10,MacIntel,60,61025ae37ef11b136ea224fe,,,,,,,,,2811,71.31640625,-24.51858521,1,0,0,response3disk,,5,14.23162842,2.249938965,1,0,0,rectangle,14.23162842,2.249938965,1,0,0,14.23162842,2.249938965,1,0,0,0,119,119,99,1,,,,,,,,
,,,,,,,,,,,,,FF,,,,,,,,0.9833,,,,,,,,,,,,,,,,,,,,,,60fdfb0996257ffd90d67d2a,61036eb922306843fd58b97c,2021-07-29_22h16.34.850,Simcolourproject_2stim_asymm_v5,2020.2.10,MacIntel,60,61025ae37ef11b136ea224fe,,,,,,,,,810,-99.72106934,-29.68896484,1,0,0,response5disk,,2,-4.211730957,-7.324951172,1,0,0,rectangle,-4.211730957,-7.324951172,1,0,0,-4.211730957,-7.324951172,1,0,0,0,120,120,112,1,,,,,,,,
,,,,,,,,,,,,,FF,,,,,,,,4.1836,,,,,,,,,,,,,,,,,,,,,,60fdfb0996257ffd90d67d2a,61036eb922306843fd58b97c,2021-07-29_22h16.34.850,Simcolourproject_2stim_asymm_v5,2020.2.10,MacIntel,60,61025ae37ef11b136ea224fe,,,,,,,,,3650,-48.18572998,-93.38916016,1,0,0,response5disk,,3,-10.23779297,1.294616699,1,0,0,rectangle,-10.23779297,1.294616699,1,0,0,-10.23779297,1.294616699,1,0,0,0,121,121,91,1,,,,,,,,
,,,,,,,,,,,,,FF,,,,,,,,2.0664,,,,,,,,,,,,,,,,,,,,,,60fdfb0996257ffd90d67d2a,61036eb922306843fd58b97c,2021-07-29_22h16.34.850,Simcolourproject_2stim_asymm_v5,2020.2.10,MacIntel,60,61025ae37ef11b136ea224fe,,,,,,,,,4113,-64.7890625,-43.3583374,1,0,0,response5disk,,2,-13.34313965,-9.383544922,1,0,0,rectangle,-13.34313965,-9.383544922,1,0,0,-13.34313965,-9.383544922,1,0,0,0,122,122,37,1,,,,,,,,
,,,,,,,,,,,,,FF,,,,,,,,1.1333,,,,,,,,,,,,,,,,,,,,,,60fdfb0996257ffd90d67d2a,61036eb922306843fd58b97c,2021-07-29_22h16.34.850,Simcolourproject_2stim_asymm_v5,2020.2.10,MacIntel,60,61025ae37ef11b136ea224fe,,,,,,,,,2876,31.25866699,-72.52087402,1,0,0,response3disk,,4,4.585449219,-10.2460022,1,0,0,rectangle,4.585449219,-10.2460022,1,0,0,4.585449219,-10.2460022,1,0,0,0,123,123,111,1,,,,,,,,
,,,,,,,,,,,,,FF,,,,,,,,1.0341,,,,,,,,,,,,,,,,,,,,,,60fdfb0996257ffd90d67d2a,61036eb922306843fd58b97c,2021-07-29_22h16.34.850,Simcolourproject_2stim_asymm_v5,2020.2.10,MacIntel,60,61025ae37ef11b136ea224fe,,,,,,,,,3019,47.53570557,-69.62530518,1,0,0,response3disk,,4,2.012817383,-1.510070801,1,0,0,rectangle,2.012817383,-1.510070801,1,0,0,2.012817383,-1.510070801,1,0,0,0,124,124,87,1,,,,,,,,
,,,,,,,,,,,,,FF,,,,,,,,1.2495,,,,,,,,,,,,,,,,,,,,,,60fdfb0996257ffd90d67d2a,61036eb922306843fd58b97c,2021-07-29_22h16.34.850,Simcolourproject_2stim_asymm_v5,2020.2.10,MacIntel,60,61025ae37ef11b136ea224fe,,,,,,,,,3060,-76.04925537,-33.16403198,1,0,0,response5disk,,2,-2.598022461,-12.2588501,1,0,0,rectangle,-2.598022461,-12.2588501,1,0,0,-2.598022461,-12.2588501,1,0,0,0,125,125,108,1,,,,,,,,
,,,,,,,,,,,,,FF,,,,,,,,1.1507,,,,,,,,,,,,,,,,,,,,,,60fdfb0996257ffd90d67d2a,61036eb922306843fd58b97c,2021-07-29_22h16.34.850,Simcolourproject_2stim_asymm_v5,2020.2.10,MacIntel,60,61025ae37ef11b136ea224fe,,,,,,,,,3409,-42.62133789,-71.98052979,1,0,0,response5disk,,3,-11.83105469,7.945373535,1,0,0,rectangle,-54.93286133,79.328125,1,0,0,1.750976563,-9.618835449,1,0,0,0,126,126,83,1,,response7disk_3,TRUE,0,0,"[127,50,82,220,102,203,32,109,229,202,201,13,234,29,276,303,136,40,257,62]",1.6498,rectangle
,,,,,,,,,,,,,FF,,,,,,,,1.5342,,,,,,,,,,,,,,,,,,,,,,60fdfb0996257ffd90d67d2a,61036eb922306843fd58b97c,2021-07-29_22h16.34.850,Simcolourproject_2stim_asymm_v5,2020.2.10,MacIntel,60,61025ae37ef11b136ea224fe,,,,,,,,,4001,-52.92468262,-59.69338989,1,0,0,response5disk,,3,-19.28668213,-2.265441895,1,0,0,rectangle,-19.28668213,-2.265441895,1,0,0,-19.28668213,-2.265441895,1,0,0,0,127,127,78,1,,,,,,,,
,,,,,,,,,,,,,FF,,,,,,,,1.0842,,,,,,,,,,,,,,,,,,,,,,60fdfb0996257ffd90d67d2a,61036eb922306843fd58b97c,2021-07-29_22h16.34.850,Simcolourproject_2stim_asymm_v5,2020.2.10,MacIntel,60,61025ae37ef11b136ea224fe,,,,,,,,,276,-72.00170898,38.02349854,1,0,0,response7disk,,1,-7.837768555,13.35769653,1,0,0,rectangle,-7.837768555,13.35769653,1,0,0,-7.837768555,13.35769653,1,0,0,0,128,128,54,1,,,,,,,,
,,,,,,,,,,,,,FF,,,,,,,,0.8498,,,,,,,,,,,,,,,,,,,,,,60fdfb0996257ffd90d67d2a,61036eb922306843fd58b97c,2021-07-29_22h16.34.850,Simcolourproject_2stim_asymm_v5,2020.2.10,MacIntel,60,61025ae37ef11b136ea224fe,,,,,,,,,2727,-84.50830078,-34.12335205,1,0,0,response5disk,,2,-10.84082031,-8.480743408,1,0,0,rectangle,-10.84082031,-8.480743408,1,0,0,-10.84082031,-8.480743408,1,0,0,0,129,129,143,1,,,,,,,,
,,,,,,,,,,,,,FF,,,,,,,,0.7487,,,,,,,,,,,,,,,,,,,,,,60fdfb0996257ffd90d67d2a,61036eb922306843fd58b97c,2021-07-29_22h16.34.850,Simcolourproject_2stim_asymm_v5,2020.2.10,MacIntel,60,61025ae37ef11b136ea224fe,,,,,,,,,3814,-37.85845947,-65.93334961,1,0,0,response5disk,,3,-30.56555176,3.348114014,1,0,0,rectangle,-30.56555176,3.348114014,1,0,0,-30.56555176,3.348114014,1,0,0,0,130,130,130,1,,,,,,,,
,,,,,,,,,,,,,FF,,,,,,,,1.4352,,,,,,,,,,,,,,,,,,,,,,60fdfb0996257ffd90d67d2a,61036eb922306843fd58b97c,2021-07-29_22h16.34.850,Simcolourproject_2stim_asymm_v5,2020.2.10,MacIntel,60,61025ae37ef11b136ea224fe,,,,,,,,,3749,-53.44128418,-73.71240234,1,0,0,response5disk,,3,-19.75604248,4.991882324,1,0,0,rectangle,-19.75604248,4.991882324,1,0,0,-19.75604248,4.991882324,1,0,0,0,131,131,116,1,,,,,,,,
,,,,,,,,,,,,,FF,,,,,,,,3.7676,,,,,,,,,,,,,,,,,,,,,,60fdfb0996257ffd90d67d2a,61036eb922306843fd58b97c,2021-07-29_22h16.34.850,Simcolourproject_2stim_asymm_v5,2020.2.10,MacIntel,60,61025ae37ef11b136ea224fe,,,,,,,,,1940,-36.10443115,-84.78039551,1,0,0,response5disk,,3,-26.18530273,0.947570801,1,0,0,rectangle,-26.18530273,0.947570801,1,0,0,-26.18530273,0.947570801,1,0,0,0,132,132,11,1,,,,,,,,
,,,,,,,,,,,,,FF,,,,,,,,0.9999,,,,,,,,,,,,,,,,,,,,,,60fdfb0996257ffd90d67d2a,61036eb922306843fd58b97c,2021-07-29_22h16.34.850,Simcolourproject_2stim_asymm_v5,2020.2.10,MacIntel,60,61025ae37ef11b136ea224fe,,,,,,,,,1420,-39.11627197,-62.08374023,1,0,0,response5disk,,3,-20.45202637,1.449523926,1,0,0,rectangle,-20.45202637,1.449523926,1,0,0,-20.45202637,1.449523926,1,0,0,0,133,133,4,1,,,,,,,,
,,,,,,,,,,,,,FF,,,,,,,,1.0335,,,,,,,,,,,,,,,,,,,,,,60fdfb0996257ffd90d67d2a,61036eb922306843fd58b97c,2021-07-29_22h16.34.850,Simcolourproject_2stim_asymm_v5,2020.2.10,MacIntel,60,61025ae37ef11b136ea224fe,,,,,,,,,3224,-77.73669434,-25.6550293,1,0,0,response5disk,,2,4.205932617,-0.387145996,1,0,0,rectangle,4.205932617,-0.387145996,1,0,0,4.205932617,-0.387145996,1,0,0,0,134,134,66,1,,,,,,,,
,,,,,,,,,,,,,FF,,,,,,,,0.8679,,,,,,,,,,,,,,,,,,,,,,60fdfb0996257ffd90d67d2a,61036eb922306843fd58b97c,2021-07-29_22h16.34.850,Simcolourproject_2stim_asymm_v5,2020.2.10,MacIntel,60,61025ae37ef11b136ea224fe,,,,,,,,,4297,26.55065918,-84.04931641,1,0,0,response3disk,,4,10.2722168,-8.15512085,1,0,0,rectangle,34.49798584,-70.75689697,1,0,0,8.077270508,-7.628204346,1,0,0,0,135,135,26,1,,response3disk_3,TRUE,4,4,"[127,50,82,220,102,203,32,109,229,202,201,13,234,29,276,303,136,40,257,62]",1.2832,rectangle
,,,,,,,,,,,,,FF,,,,,,,,0.8003,,,,,,,,,,,,,,,,,,,,,,60fdfb0996257ffd90d67d2a,61036eb922306843fd58b97c,2021-07-29_22h16.34.850,Simcolourproject_2stim_asymm_v5,2020.2.10,MacIntel,60,61025ae37ef11b136ea224fe,,,,,,,,,2540,67.61505127,-30.89941406,1,0,0,response3disk,,5,14.84460449,12.89016724,1,0,0,rectangle,14.84460449,12.89016724,1,0,0,14.84460449,12.89016724,1,0,0,0,136,136,92,1,,,,,,,,
,,,,,,,,,,,,,FF,,,,,,,,0.7837,,,,,,,,,,,,,,,,,,,,,,60fdfb0996257ffd90d67d2a,61036eb922306843fd58b97c,2021-07-29_22h16.34.850,Simcolourproject_2stim_asymm_v5,2020.2.10,MacIntel,60,61025ae37ef11b136ea224fe,,,,,,,,,1617,40.07574463,-70.67071533,1,0,0,response3disk,,4,9.451049805,-9.831787109,1,0,0,rectangle,9.451049805,-9.831787109,1,0,0,9.451049805,-9.831787109,1,0,0,0,137,137,71,1,,,,,,,,
,,,,,,,,,,,,,FF,,,,,,,,0.9164,,,,,,,,,,,,,,,,,,,,,,60fdfb0996257ffd90d67d2a,61036eb922306843fd58b97c,2021-07-29_22h16.34.850,Simcolourproject_2stim_asymm_v5,2020.2.10,MacIntel,60,61025ae37ef11b136ea224fe,,,,,,,,,3949,-36.38769531,-75.40002441,1,0,0,response5disk,,3,-15.04241943,-14.78063965,1,0,0,rectangle,-15.04241943,-14.78063965,1,0,0,-15.04241943,-14.78063965,1,0,0,0,138,138,51,1,,,,,,,,
,,,,,,,,,,,,,FF,,,,,,,,1.7165,,,,,,,,,,,,,,,,,,,,,,60fdfb0996257ffd90d67d2a,61036eb922306843fd58b97c,2021-07-29_22h16.34.850,Simcolourproject_2stim_asymm_v5,2020.2.10,MacIntel,60,61025ae37ef11b136ea224fe,,,,,,,,,293,65.30163574,-34.77255249,1,0,0,response3disk,,5,21.66638184,-8.527801514,1,0,0,rectangle,21.66638184,-8.527801514,1,0,0,21.66638184,-8.527801514,1,0,0,0,139,139,138,1,,,,,,,,
,,,,,,,,,,,,,FF,,,,,,,,1.1671,,,,,,,,,,,,,,,,,,,,,,60fdfb0996257ffd90d67d2a,61036eb922306843fd58b97c,2021-07-29_22h16.34.850,Simcolourproject_2stim_asymm_v5,2020.2.10,MacIntel,60,61025ae37ef11b136ea224fe,,,,,,,,,4295,-68.02252197,-30.41711426,1,0,0,response5disk,,2,20.32006836,9.389129639,1,0,0,rectangle,20.32006836,9.389129639,1,0,0,20.32006836,9.389129639,1,0,0,0,140,140,68,1,,,,,,,,
,,,,,,,,,,,,,FF,,,,,,,,1.0677,,,,,,,,,,,,,,,,,,,,,,60fdfb0996257ffd90d67d2a,61036eb922306843fd58b97c,2021-07-29_22h16.34.850,Simcolourproject_2stim_asymm_v5,2020.2.10,MacIntel,60,61025ae37ef11b136ea224fe,,,,,,,,,3335,-29.04833984,-77.78869629,1,0,0,response5disk,,3,-16.85778809,-4.535949707,1,0,0,rectangle,-16.85778809,-4.535949707,1,0,0,-16.85778809,-4.535949707,1,0,0,0,141,141,14,1,,,,,,,,
,,,,,,,,,,,,,FF,,,,,,,,1.267,,,,,,,,,,,,,,,,,,,,,,60fdfb0996257ffd90d67d2a,61036eb922306843fd58b97c,2021-07-29_22h16.34.850,Simcolourproject_2stim_asymm_v5,2020.2.10,MacIntel,60,61025ae37ef11b136ea224fe,,,,,,,,,3649,-55.76574707,-66.93231201,1,0,0,response5disk,,3,-20.23626709,-11.9442749,1,0,0,rectangle,-20.23626709,-11.9442749,1,0,0,-20.23626709,-11.9442749,1,0,0,0,142,142,88,1,,,,,,,,
,,,,,,,,,,,,,FF,,,,,,,,1.3839,,,,,,,,,,,,,,,,,,,,,,60fdfb0996257ffd90d67d2a,61036eb922306843fd58b97c,2021-07-29_22h16.34.850,Simcolourproject_2stim_asymm_v5,2020.2.10,MacIntel,60,61025ae37ef11b136ea224fe,,,,,,,,,4346,-56.59832764,-69.92340088,1,0,0,response5disk,,3,-20.01147461,-7.42578125,1,0,0,rectangle,-20.01147461,-7.42578125,1,0,0,-20.01147461,-7.42578125,1,0,0,0,143,143,0,1,,,,,,,,
,,,,,,,,,,,,,FF,,,,,,,,1.7166,,,,,,,,,,,,,,,,,,,,,,60fdfb0996257ffd90d67d2a,61036eb922306843fd58b97c,2021-07-29_22h16.34.850,Simcolourproject_2stim_asymm_v5,2020.2.10,MacIntel,60,61025ae37ef11b136ea224fe,,,,,,,,,4261,-88.03094482,-44.38299561,1,0,0,response5disk,,2,0.195800781,-12.70046997,1,0,0,rectangle,0.195800781,-12.70046997,1,0,0,0.195800781,-12.70046997,1,0,0,0,144,144,119,1,,,,,,,,
,,,,,,,,,,,,,FF,,,,,,,,0.7834,,,,,,,,,,,,,,,,,,,,,,60fdfb0996257ffd90d67d2a,61036eb922306843fd58b97c,2021-07-29_22h16.34.850,Simcolourproject_2stim_asymm_v5,2020.2.10,MacIntel,60,61025ae37ef11b136ea224fe,,,,,,,,,306,67.78625488,-42.82809448,1,0,0,response3disk,,5,5.099975586,-12.06576538,1,0,0,rectangle,5.099975586,-12.06576538,1,0,0,5.099975586,-12.06576538,1,0,0,0,145,145,102,1,,,,,,,,
,,,,,,,,,,,,,FF,,,,,,,,1.0837,,,,,,,,,,,,,,,,,,,,,,60fdfb0996257ffd90d67d2a,61036eb922306843fd58b97c,2021-07-29_22h16.34.850,Simcolourproject_2stim_asymm_v5,2020.2.10,MacIntel,60,61025ae37ef11b136ea224fe,,,,,,,,,1180,76.35559082,-35.51760864,1,0,0,response3disk,,5,-5.108032227,9.764587402,1,0,0,rectangle,-5.108032227,9.764587402,1,0,0,-5.108032227,9.764587402,1,0,0,0,146,146,93,1,,,,,,,,
,,,,,,,,,,,,,FF,,,,,,,,0.7001,,,,,,,,,,,,,,,,,,,,,,60fdfb0996257ffd90d67d2a,61036eb922306843fd58b97c,2021-07-29_22h16.34.850,Simcolourproject_2stim_asymm_v5,2020.2.10,MacIntel,60,61025ae37ef11b136ea224fe,,,,,,,,,1931,66.94512939,-23.09915161,1,0,0,response3disk,,5,2.015258789,15.58862305,1,0,0,rectangle,2.015258789,15.58862305,1,0,0,2.015258789,15.58862305,1,0,0,0,147,147,150,1,,,,,,,,
,,,,,,,,,,,,,FF,,,,,,,,0.967,,,,,,,,,,,,,,,,,,,,,,60fdfb0996257ffd90d67d2a,61036eb922306843fd58b97c,2021-07-29_22h16.34.850,Simcolourproject_2stim_asymm_v5,2020.2.10,MacIntel,60,61025ae37ef11b136ea224fe,,,,,,,,,1650,75.14996338,30.25274658,1,0,0,response1disk,,6,-6.791748047,12.1809082,1,0,0,rectangle,-6.791748047,12.1809082,1,0,0,-6.791748047,12.1809082,1,0,0,0,148,148,147,1,,,,,,,,
,,,,,,,,,,,,,FF,,,,,,,,1.0995,,,,,,,,,,,,,,,,,,,,,,60fdfb0996257ffd90d67d2a,61036eb922306843fd58b97c,2021-07-29_22h16.34.850,Simcolourproject_2stim_asymm_v5,2020.2.10,MacIntel,60,61025ae37ef11b136ea224fe,,,,,,,,,3553,-61.85095215,-31.29977417,1,0,0,response5disk,,2,4.687744141,4.114135742,1,0,0,rectangle,4.687744141,4.114135742,1,0,0,4.687744141,4.114135742,1,0,0,0,149,149,79,1,,,,,,,,
,,,,,,,,,,,,,FF,,,,,,,,1.3664,,,,,,,,,,,,,,,,,,,,,,60fdfb0996257ffd90d67d2a,61036eb922306843fd58b97c,2021-07-29_22h16.34.850,Simcolourproject_2stim_asymm_v5,2020.2.10,MacIntel,60,61025ae37ef11b136ea224fe,,,,,,,,,208,-46.32092285,-56.5826416,1,0,0,response5disk,,3,-15.85333252,-7.777954102,1,0,0,rectangle,-15.85333252,-7.777954102,1,0,0,-15.85333252,-7.777954102,1,0,0,0,150,150,96,1,,,,,,,,
,,,,,,,,,,,,,FF,,,,,,,,1.3862,,,,,,,,,,,,,,,,,,,,,,60fdfb0996257ffd90d67d2a,61036eb922306843fd58b97c,2021-07-29_22h16.34.850,Simcolourproject_2stim_asymm_v5,2020.2.10,MacIntel,60,61025ae37ef11b136ea224fe,,,,,,,,,196,-33.0234375,-65.87121582,1,0,0,response5disk,,3,-14.72399902,4.696777344,1,0,0,rectangle,-14.72399902,4.696777344,1,0,0,-14.72399902,4.696777344,1,0,0,0,151,151,107,1,,,,,,,,
,,,,,,,,,,,,,FF,,,,,,,,1.0346,,,,,,,,,,,,,,,,,,,,,,60fdfb0996257ffd90d67d2a,61036eb922306843fd58b97c,2021-07-29_22h16.34.850,Simcolourproject_2stim_asymm_v5,2020.2.10,MacIntel,60,61025ae37ef11b136ea224fe,,,,,,,,,2926,-33.43859863,-45.79229736,1,0,0,response5disk,,3,-19.28869629,0.758850098,1,0,0,rectangle,-19.28869629,0.758850098,1,0,0,-19.28869629,0.758850098,1,0,0,0,152,152,121,1,,,,,,,,
,,,,,,,,,,,,,FF,,,,,,,,1.0161,,,,,,,,,,,,,,,,,,,,,,60fdfb0996257ffd90d67d2a,61036eb922306843fd58b97c,2021-07-29_22h16.34.850,Simcolourproject_2stim_asymm_v5,2020.2.10,MacIntel,60,61025ae37ef11b136ea224fe,,,,,,,,,1378,-53.69720459,-36.37191772,1,0,0,response5disk,,2,-14.50469971,-7.782653809,1,0,0,rectangle,-14.50469971,-7.782653809,1,0,0,-14.50469971,-7.782653809,1,0,0,0,153,153,10,1,,,,,,,,
,,,,,,,,,,,,,FF,,,,,,,,1.234,,,,,,,,,,,,,,,,,,,,,,60fdfb0996257ffd90d67d2a,61036eb922306843fd58b97c,2021-07-29_22h16.34.850,Simcolourproject_2stim_asymm_v5,2020.2.10,MacIntel,60,61025ae37ef11b136ea224fe,,,,,,,,,871,-66.34796143,20.90045166,1,0,0,response7disk,,1,-24.50732422,-0.875244141,1,0,0,rectangle,-24.50732422,-0.875244141,1,0,0,-24.50732422,-0.875244141,1,0,0,0,154,154,72,1,,,,,,,,
,,,,,,,,,,,,,FF,,,,,,,,1.2856,,,,,,,,,,,,,,,,,,,,,,60fdfb0996257ffd90d67d2a,61036eb922306843fd58b97c,2021-07-29_22h16.34.850,Simcolourproject_2stim_asymm_v5,2020.2.10,MacIntel,60,61025ae37ef11b136ea224fe,,,,,,,,,1764,-67.67108154,-39.37945557,1,0,0,response5disk,,2,-12.31402588,-7.4894104,1,0,0,rectangle,-12.31402588,-7.4894104,1,0,0,-12.31402588,-7.4894104,1,0,0,0,155,155,62,1,,,,,,,,
,,,,,,,,,,,,,FF,,,,,,,,3.7663,,,,,,,,,,,,,,,,,,,,,,60fdfb0996257ffd90d67d2a,61036eb922306843fd58b97c,2021-07-29_22h16.34.850,Simcolourproject_2stim_asymm_v5,2020.2.10,MacIntel,60,61025ae37ef11b136ea224fe,,,,,,,,,463,-81.5223999,34.37069702,1,0,0,response7disk,,1,-25.00170898,-1.405273438,1,0,0,rectangle,-25.00170898,-1.405273438,1,0,0,-25.00170898,-1.405273438,1,0,0,0,156,156,34,1,,,,,,,,
,,,,,,,,,,,,,FF,,,,,,,,0.7493,,,,,,,,,,,,,,,,,,,,,,60fdfb0996257ffd90d67d2a,61036eb922306843fd58b97c,2021-07-29_22h16.34.850,Simcolourproject_2stim_asymm_v5,2020.2.10,MacIntel,60,61025ae37ef11b136ea224fe,,,,,,,,,1377,-66.74523926,24.62945557,1,0,0,response7disk,,1,-16.28967285,4.960571289,1,0,0,rectangle,-16.28967285,4.960571289,1,0,0,-16.28967285,4.960571289,1,0,0,0,157,157,1,1,,,,,,,,
,,,,,,,,,,,,,FF,,,,,,,,1.967,,,,,,,,,,,,,,,,,,,,,,60fdfb0996257ffd90d67d2a,61036eb922306843fd58b97c,2021-07-29_22h16.34.850,Simcolourproject_2stim_asymm_v5,2020.2.10,MacIntel,60,61025ae37ef11b136ea224fe,,,,,,,,,1136,-55.85461426,-53.43737793,1,0,0,response5disk,,2,8.496826172,-4.566467285,1,0,0,rectangle,8.496826172,-4.566467285,1,0,0,8.496826172,-4.566467285,1,0,0,0,158,158,109,1,,,,,,,,
,,,,,,,,,,,,,FF,,,,,,,,1.1334,,,,,,,,,,,,,,,,,,,,,,60fdfb0996257ffd90d67d2a,61036eb922306843fd58b97c,2021-07-29_22h16.34.850,Simcolourproject_2stim_asymm_v5,2020.2.10,MacIntel,60,61025ae37ef11b136ea224fe,,,,,,,,,2597,-62.85668945,-82.5043335,1,0,0,response5disk,,3,-5.84375,-0.473449707,1,0,0,rectangle,-5.84375,-0.473449707,1,0,0,-5.84375,-0.473449707,1,0,0,0,159,159,89,1,,,,,,,,
,,,,,,,,,,,,,FF,,,,,,,,0.9006,,,,,,,,,,,,,,,,,,,,,,60fdfb0996257ffd90d67d2a,61036eb922306843fd58b97c,2021-07-29_22h16.34.850,Simcolourproject_2stim_asymm_v5,2020.2.10,MacIntel,60,61025ae37ef11b136ea224fe,,,,,,,,,1531,-64.87823486,-66.74188232,1,0,0,response5disk,,3,-3.759155273,-3.501159668,1,0,0,rectangle,-3.759155273,-3.501159668,1,0,0,-3.759155273,-3.501159668,1,0,0,1,0,160,35,1,,,,,,,,
,,,,,,,,,,,,,FF,,,,,,,,0.8345,,,,,,,,,,,,,,,,,,,,,,60fdfb0996257ffd90d67d2a,61036eb922306843fd58b97c,2021-07-29_22h16.34.850,Simcolourproject_2stim_asymm_v5,2020.2.10,MacIntel,60,61025ae37ef11b136ea224fe,,,,,,,,,676,27.38616943,-60.57208252,1,0,0,response3disk,,4,6.901611328,-17.81307983,1,0,0,rectangle,6.901611328,-17.81307983,1,0,0,6.901611328,-17.81307983,1,0,0,1,1,161,22,1,,,,,,,,
,,,,,,,,,,,,,FF,,,,,,,,0.6335,,,,,,,,,,,,,,,,,,,,,,60fdfb0996257ffd90d67d2a,61036eb922306843fd58b97c,2021-07-29_22h16.34.850,Simcolourproject_2stim_asymm_v5,2020.2.10,MacIntel,60,61025ae37ef11b136ea224fe,,,,,,,,,1415,-44.11297607,-55.29421997,1,0,0,response5disk,,3,-18.51623535,-1.412902832,1,0,0,rectangle,-18.51623535,-1.412902832,1,0,0,-18.51623535,-1.412902832,1,0,0,1,2,162,57,1,,,,,,,,
,,,,,,,,,,,,,FF,,,,,,,,7.2341,,,,,,,,,,,,,,,,,,,,,,60fdfb0996257ffd90d67d2a,61036eb922306843fd58b97c,2021-07-29_22h16.34.850,Simcolourproject_2stim_asymm_v5,2020.2.10,MacIntel,60,61025ae37ef11b136ea224fe,,,,,,,,,2745,59.84228516,-99.77648926,1,0,0,response3disk,,4,-5.079223633,-2.133117676,1,0,0,rectangle,-5.079223633,-2.133117676,1,0,0,-5.079223633,-2.133117676,1,0,0,1,3,163,134,1,,,,,,,,
,,,,,,,,,,,,,FF,,,,,,,,0.5998,,,,,,,,,,,,,,,,,,,,,,60fdfb0996257ffd90d67d2a,61036eb922306843fd58b97c,2021-07-29_22h16.34.850,Simcolourproject_2stim_asymm_v5,2020.2.10,MacIntel,60,61025ae37ef11b136ea224fe,,,,,,,,,1787,59.99328613,-96.37988281,1,0,0,response3disk,,4,-0.335998535,-6.829833984,1,0,0,rectangle,-0.335998535,-6.829833984,1,0,0,-0.335998535,-6.829833984,1,0,0,1,4,164,62,1,,,,,,,,
,,,,,,,,,,,,,FF,,,,,,,,0.8536,,,,,,,,,,,,,,,,,,,,,,60fdfb0996257ffd90d67d2a,61036eb922306843fd58b97c,2021-07-29_22h16.34.850,Simcolourproject_2stim_asymm_v5,2020.2.10,MacIntel,60,61025ae37ef11b136ea224fe,,,,,,,,,1260,48.95587158,-97.58203125,1,0,0,response3disk,,4,17.29437256,1.848449707,1,0,0,rectangle,17.29437256,1.848449707,1,0,0,17.29437256,1.848449707,1,0,0,1,5,165,127,1,,,,,,,,
,,,,,,,,,,,,,FF,,,,,,,,0.9672,,,,,,,,,,,,,,,,,,,,,,60fdfb0996257ffd90d67d2a,61036eb922306843fd58b97c,2021-07-29_22h16.34.850,Simcolourproject_2stim_asymm_v5,2020.2.10,MacIntel,60,61025ae37ef11b136ea224fe,,,,,,,,,3618,-28.75964355,-82.56903076,1,0,0,response5disk,,3,-24.14385986,-7.926025391,1,0,0,rectangle,-24.14385986,-7.926025391,1,0,0,-24.14385986,-7.926025391,1,0,0,1,6,166,27,1,,,,,,,,
,,,,,,,,,,,,,FF,,,,,,,,1.0842,,,,,,,,,,,,,,,,,,,,,,60fdfb0996257ffd90d67d2a,61036eb922306843fd58b97c,2021-07-29_22h16.34.850,Simcolourproject_2stim_asymm_v5,2020.2.10,MacIntel,60,61025ae37ef11b136ea224fe,,,,,,,,,1667,40.5088501,-86.12194824,1,0,0,response3disk,,4,8.509155273,-12.11431885,1,0,0,rectangle,8.509155273,-12.11431885,1,0,0,8.509155273,-12.11431885,1,0,0,1,7,167,143,1,,,,,,,,
,,,,,,,,,,,,,FF,,,,,,,,0.8664,,,,,,,,,,,,,,,,,,,,,,60fdfb0996257ffd90d67d2a,61036eb922306843fd58b97c,2021-07-29_22h16.34.850,Simcolourproject_2stim_asymm_v5,2020.2.10,MacIntel,60,61025ae37ef11b136ea224fe,,,,,,,,,3899,-43.85797119,-78.73626709,1,0,0,response5disk,,3,-25.27307129,-5.653991699,1,0,0,rectangle,-25.27307129,-5.653991699,1,0,0,-25.27307129,-5.653991699,1,0,0,1,8,168,139,1,,,,,,,,
,,,,,,,,,,,,,FF,,,,,,,,0.9488,,,,,,,,,,,,,,,,,,,,,,60fdfb0996257ffd90d67d2a,61036eb922306843fd58b97c,2021-07-29_22h16.34.850,Simcolourproject_2stim_asymm_v5,2020.2.10,MacIntel,60,61025ae37ef11b136ea224fe,,,,,,,,,2303,-77.74645996,-49.42962646,1,0,0,response5disk,,2,-26.02563477,-12.70617676,1,0,0,rectangle,-26.02563477,-12.70617676,1,0,0,-26.02563477,-12.70617676,1,0,0,1,9,169,65,1,,,,,,,,
,,,,,,,,,,,,,FF,,,,,,,,0.6995,,,,,,,,,,,,,,,,,,,,,,60fdfb0996257ffd90d67d2a,61036eb922306843fd58b97c,2021-07-29_22h16.34.850,Simcolourproject_2stim_asymm_v5,2020.2.10,MacIntel,60,61025ae37ef11b136ea224fe,,,,,,,,,4294,-48.94726563,-78.14544678,1,0,0,response5disk,,3,-21.6809082,-7.140869141,1,0,0,rectangle,-21.6809082,-7.140869141,1,0,0,-21.6809082,-7.140869141,1,0,0,1,10,170,153,1,,,,,,,,
,,,,,,,,,,,,,FF,,,,,,,,0.584,,,,,,,,,,,,,,,,,,,,,,60fdfb0996257ffd90d67d2a,61036eb922306843fd58b97c,2021-07-29_22h16.34.850,Simcolourproject_2stim_asymm_v5,2020.2.10,MacIntel,60,61025ae37ef11b136ea224fe,,,,,,,,,1961,-50.66174316,-73.56811523,1,0,0,response5disk,,3,-28.68762207,-4.579711914,1,0,0,rectangle,-28.68762207,-4.579711914,1,0,0,-28.68762207,-4.579711914,1,0,0,1,11,171,28,1,,,,,,,,
,,,,,,,,,,,,,FF,,,,,,,,0.5509,,,,,,,,,,,,,,,,,,,,,,60fdfb0996257ffd90d67d2a,61036eb922306843fd58b97c,2021-07-29_22h16.34.850,Simcolourproject_2stim_asymm_v5,2020.2.10,MacIntel,60,61025ae37ef11b136ea224fe,,,,,,,,,4051,-38.81396484,-79.59753418,1,0,0,response5disk,,3,-10.68725586,-6.713287354,1,0,0,rectangle,-10.68725586,-6.713287354,1,0,0,-10.68725586,-6.713287354,1,0,0,1,12,172,140,1,,,,,,,,
,,,,,,,,,,,,,FF,,,,,,,,0.5999,,,,,,,,,,,,,,,,,,,,,,60fdfb0996257ffd90d67d2a,61036eb922306843fd58b97c,2021-07-29_22h16.34.850,Simcolourproject_2stim_asymm_v5,2020.2.10,MacIntel,60,61025ae37ef11b136ea224fe,,,,,,,,,1861,39.79693604,-71.95532227,1,0,0,response3disk,,4,11.20159912,12.36734009,1,0,0,rectangle,11.20159912,12.36734009,1,0,0,11.20159912,12.36734009,1,0,0,1,13,173,25,1,,,,,,,,
,,,,,,,,,,,,,FF,,,,,,,,0.716,,,,,,,,,,,,,,,,,,,,,,60fdfb0996257ffd90d67d2a,61036eb922306843fd58b97c,2021-07-29_22h16.34.850,Simcolourproject_2stim_asymm_v5,2020.2.10,MacIntel,60,61025ae37ef11b136ea224fe,,,,,,,,,2022,-31.46966553,-85.72613525,1,0,0,response5disk,,3,-12.62133789,-5.612487793,1,0,0,rectangle,-12.62133789,-5.612487793,1,0,0,-12.62133789,-5.612487793,1,0,0,1,14,174,49,1,,,,,,,,
,,,,,,,,,,,,,FF,,,,,,,,0.8666,,,,,,,,,,,,,,,,,,,,,,60fdfb0996257ffd90d67d2a,61036eb922306843fd58b97c,2021-07-29_22h16.34.850,Simcolourproject_2stim_asymm_v5,2020.2.10,MacIntel,60,61025ae37ef11b136ea224fe,,,,,,,,,3531,59.96929932,-111.9321289,1,0,0,response3disk,,4,-3.857055664,-3.112487793,1,0,0,rectangle,-3.857055664,-3.112487793,1,0,0,-3.857055664,-3.112487793,1,0,0,1,15,175,33,1,,,,,,,,
,,,,,,,,,,,,,FF,,,,,,,,0.9333,,,,,,,,,,,,,,,,,,,,,,60fdfb0996257ffd90d67d2a,61036eb922306843fd58b97c,2021-07-29_22h16.34.850,Simcolourproject_2stim_asymm_v5,2020.2.10,MacIntel,60,61025ae37ef11b136ea224fe,,,,,,,,,1200,90.32629395,-49.75100708,1,0,0,response3disk,,5,-7.21484375,6.490264893,1,0,0,rectangle,-7.21484375,6.490264893,1,0,0,-7.21484375,6.490264893,1,0,0,1,16,176,82,1,,,,,,,,
,,,,,,,,,,,,,FF,,,,,,,,0.9833,,,,,,,,,,,,,,,,,,,,,,60fdfb0996257ffd90d67d2a,61036eb922306843fd58b97c,2021-07-29_22h16.34.850,Simcolourproject_2stim_asymm_v5,2020.2.10,MacIntel,60,61025ae37ef11b136ea224fe,,,,,,,,,2225,83.97229004,-41.67367554,1,0,0,response3disk,,5,21.17199707,1.858459473,1,0,0,rectangle,21.17199707,1.858459473,1,0,0,21.17199707,1.858459473,1,0,0,1,17,177,5,1,,,,,,,,
,,,,,,,,,,,,,FF,,,,,,,,0.6001,,,,,,,,,,,,,,,,,,,,,,60fdfb0996257ffd90d67d2a,61036eb922306843fd58b97c,2021-07-29_22h16.34.850,Simcolourproject_2stim_asymm_v5,2020.2.10,MacIntel,60,61025ae37ef11b136ea224fe,,,,,,,,,1216,-25.88598633,-53.51449585,1,0,0,response5disk,,3,-2.928588867,-10.0491333,1,0,0,rectangle,-2.928588867,-10.0491333,1,0,0,-2.928588867,-10.0491333,1,0,0,1,18,178,98,1,,,,,,,,
,,,,,,,,,,,,,FF,,,,,,,,0.6841,,,,,,,,,,,,,,,,,,,,,,60fdfb0996257ffd90d67d2a,61036eb922306843fd58b97c,2021-07-29_22h16.34.850,Simcolourproject_2stim_asymm_v5,2020.2.10,MacIntel,60,61025ae37ef11b136ea224fe,,,,,,,,,2728,51.81671143,-61.06594849,1,0,0,response3disk,,4,10.15686035,2.543273926,1,0,0,rectangle,10.15686035,2.543273926,1,0,0,10.15686035,2.543273926,1,0,0,1,19,179,90,1,,,,,,,,
,,,,,,,,,,,,,FF,,,,,,,,0.8008,,,,,,,,,,,,,,,,,,,,,,60fdfb0996257ffd90d67d2a,61036eb922306843fd58b97c,2021-07-29_22h16.34.850,Simcolourproject_2stim_asymm_v5,2020.2.10,MacIntel,60,61025ae37ef11b136ea224fe,,,,,,,,,72,79.0982666,-59.51660156,1,0,0,response3disk,,5,-7.249267578,5.623474121,1,0,0,rectangle,-7.249267578,5.623474121,1,0,0,-7.249267578,5.623474121,1,0,0,1,20,180,70,1,,,,,,,,
,,,,,,,,,,,,,FF,,,,,,,,0.9658,,,,,,,,,,,,,,,,,,,,,,60fdfb0996257ffd90d67d2a,61036eb922306843fd58b97c,2021-07-29_22h16.34.850,Simcolourproject_2stim_asymm_v5,2020.2.10,MacIntel,60,61025ae37ef11b136ea224fe,,,,,,,,,550,-88.74108887,38.65374756,1,0,0,response7disk,,1,6.463745117,-5.723114014,1,0,0,rectangle,6.463745117,-5.723114014,1,0,0,6.463745117,-5.723114014,1,0,0,1,21,181,84,1,,,,,,,,
,,,,,,,,,,,,,FF,,,,,,,,0.7511,,,,,,,,,,,,,,,,,,,,,,60fdfb0996257ffd90d67d2a,61036eb922306843fd58b97c,2021-07-29_22h16.34.850,Simcolourproject_2stim_asymm_v5,2020.2.10,MacIntel,60,61025ae37ef11b136ea224fe,,,,,,,,,2223,-23.98425293,-62.34191895,1,0,0,response5disk,,3,-15.50335693,1.542114258,1,0,0,rectangle,-15.50335693,1.542114258,1,0,0,-15.50335693,1.542114258,1,0,0,1,22,182,77,1,,,,,,,,
,,,,,,,,,,,,,FF,,,,,,,,0.7176,,,,,,,,,,,,,,,,,,,,,,60fdfb0996257ffd90d67d2a,61036eb922306843fd58b97c,2021-07-29_22h16.34.850,Simcolourproject_2stim_asymm_v5,2020.2.10,MacIntel,60,61025ae37ef11b136ea224fe,,,,,,,,,1371,-37.99707031,-53.42059326,1,0,0,response5disk,,3,-11.00323486,3.508789063,1,0,0,rectangle,-11.00323486,3.508789063,1,0,0,-11.00323486,3.508789063,1,0,0,1,23,183,44,1,,,,,,,,
,,,,,,,,,,,,,FF,,,,,,,,0.5349,,,,,,,,,,,,,,,,,,,,,,60fdfb0996257ffd90d67d2a,61036eb922306843fd58b97c,2021-07-29_22h16.34.850,Simcolourproject_2stim_asymm_v5,2020.2.10,MacIntel,60,61025ae37ef11b136ea224fe,,,,,,,,,819,-27.63323975,-64.97747803,1,0,0,response5disk,,3,-11.24902344,7.631347656,1,0,0,rectangle,-11.24902344,7.631347656,1,0,0,-11.24902344,7.631347656,1,0,0,1,24,184,14,1,,,,,,,,
,,,,,,,,,,,,,FF,,,,,,,,0.916,,,,,,,,,,,,,,,,,,,,,,60fdfb0996257ffd90d67d2a,61036eb922306843fd58b97c,2021-07-29_22h16.34.850,Simcolourproject_2stim_asymm_v5,2020.2.10,MacIntel,60,61025ae37ef11b136ea224fe,,,,,,,,,4232,-47.83569336,-71.7442627,1,0,0,response5disk,,3,-12.84790039,-10.36740112,1,0,0,rectangle,-12.84790039,-10.36740112,1,0,0,-12.84790039,-10.36740112,1,0,0,1,25,185,34,1,,,,,,,,
,,,,,,,,,,,,,FF,,,,,,,,0.7892,,,,,,,,,,,,,,,,,,,,,,60fdfb0996257ffd90d67d2a,61036eb922306843fd58b97c,2021-07-29_22h16.34.850,Simcolourproject_2stim_asymm_v5,2020.2.10,MacIntel,60,61025ae37ef11b136ea224fe,,,,,,,,,2489,-76.04870605,-45.20440674,1,0,0,response5disk,,2,-2.077758789,-3.706420898,1,0,0,rectangle,-2.077758789,-3.706420898,1,0,0,-2.077758789,-3.706420898,1,0,0,1,26,186,117,1,,,,,,,,
,,,,,,,,,,,,,FF,,,,,,,,0.9664,,,,,,,,,,,,,,,,,,,,,,60fdfb0996257ffd90d67d2a,61036eb922306843fd58b97c,2021-07-29_22h16.34.850,Simcolourproject_2stim_asymm_v5,2020.2.10,MacIntel,60,61025ae37ef11b136ea224fe,,,,,,,,,3936,-50.39282227,59.54644775,1,0,0,response7disk,,0,-12.703125,-10.07275391,1,0,0,rectangle,-12.703125,-10.07275391,1,0,0,-12.703125,-10.07275391,1,0,0,1,27,187,100,1,,,,,,,,
,,,,,,,,,,,,,FF,,,,,,,,0.7497,,,,,,,,,,,,,,,,,,,,,,60fdfb0996257ffd90d67d2a,61036eb922306843fd58b97c,2021-07-29_22h16.34.850,Simcolourproject_2stim_asymm_v5,2020.2.10,MacIntel,60,61025ae37ef11b136ea224fe,,,,,,,,,2402,-29.99890137,-78.52246094,1,0,0,response5disk,,3,-16.58813477,-3.286865234,1,0,0,rectangle,-16.58813477,-3.286865234,1,0,0,-16.58813477,-3.286865234,1,0,0,1,28,188,10,1,,,,,,,,
,,,,,,,,,,,,,FF,,,,,,,,0.8159,,,,,,,,,,,,,,,,,,,,,,60fdfb0996257ffd90d67d2a,61036eb922306843fd58b97c,2021-07-29_22h16.34.850,Simcolourproject_2stim_asymm_v5,2020.2.10,MacIntel,60,61025ae37ef11b136ea224fe,,,,,,,,,261,-41.26348877,-73.48828125,1,0,0,response5disk,,3,-20.50140381,-1.706115723,1,0,0,rectangle,-20.50140381,-1.706115723,1,0,0,-20.50140381,-1.706115723,1,0,0,1,29,189,4,1,,,,,,,,
,,,,,,,,,,,,,FF,,,,,,,,26.1586,,,,,,,,,,,,,,,,,,,,,,60fdfb0996257ffd90d67d2a,61036eb922306843fd58b97c,2021-07-29_22h16.34.850,Simcolourproject_2stim_asymm_v5,2020.2.10,MacIntel,60,61025ae37ef11b136ea224fe,,,,,,,,,1312,43.92102051,-69.01123047,1,0,0,response3disk,,4,8.461975098,-6.990814209,1,0,0,rectangle,8.461975098,-6.990814209,1,0,0,8.461975098,-6.990814209,1,0,0,1,30,190,110,1,,,,,,,,
,,,,,,,,,,,,,FF,,,,,,,,0.9178,,,,,,,,,,,,,,,,,,,,,,60fdfb0996257ffd90d67d2a,61036eb922306843fd58b97c,2021-07-29_22h16.34.850,Simcolourproject_2stim_asymm_v5,2020.2.10,MacIntel,60,61025ae37ef11b136ea224fe,,,,,,,,,242,60.74523926,-104.8172607,1,0,0,response3disk,,4,-4.093017578,11.22348022,1,0,0,rectangle,-4.093017578,11.22348022,1,0,0,-4.093017578,11.22348022,1,0,0,1,31,191,137,1,,,,,,,,
,,,,,,,,,,,,,FF,,,,,,,,1.035,,,,,,,,,,,,,,,,,,,,,,60fdfb0996257ffd90d67d2a,61036eb922306843fd58b97c,2021-07-29_22h16.34.850,Simcolourproject_2stim_asymm_v5,2020.2.10,MacIntel,60,61025ae37ef11b136ea224fe,,,,,,,,,96,-50.02832031,-87.26794434,1,0,0,response5disk,,3,-7.255249023,6.075439453,1,0,0,rectangle,-7.255249023,6.075439453,1,0,0,-7.255249023,6.075439453,1,0,0,1,32,192,128,1,,,,,,,,
,,,,,,,,,,,,,FF,,,,,,,,2.184,,,,,,,,,,,,,,,,,,,,,,60fdfb0996257ffd90d67d2a,61036eb922306843fd58b97c,2021-07-29_22h16.34.850,Simcolourproject_2stim_asymm_v5,2020.2.10,MacIntel,60,61025ae37ef11b136ea224fe,,,,,,,,,3187,-34.93115234,-62.71862793,1,0,0,response5disk,,3,-14.03570557,6.528625488,1,0,0,rectangle,-14.03570557,6.528625488,1,0,0,-14.03570557,6.528625488,1,0,0,1,33,193,142,1,,,,,,,,
,,,,,,,,,,,,,FF,,,,,,,,0.7506,,,,,,,,,,,,,,,,,,,,,,60fdfb0996257ffd90d67d2a,61036eb922306843fd58b97c,2021-07-29_22h16.34.850,Simcolourproject_2stim_asymm_v5,2020.2.10,MacIntel,60,61025ae37ef11b136ea224fe,,,,,,,,,3610,-79.4296875,-47.13708496,1,0,0,response5disk,,2,3.487731934,-8.496826172,1,0,0,rectangle,3.487731934,-8.496826172,1,0,0,3.487731934,-8.496826172,1,0,0,1,34,194,50,1,,,,,,,,
,,,,,,,,,,,,,FF,,,,,,,,0.8505,,,,,,,,,,,,,,,,,,,,,,60fdfb0996257ffd90d67d2a,61036eb922306843fd58b97c,2021-07-29_22h16.34.850,Simcolourproject_2stim_asymm_v5,2020.2.10,MacIntel,60,61025ae37ef11b136ea224fe,,,,,,,,,780,24.99688721,-86.38879395,1,0,0,response3disk,,4,14.91381836,-5.623962402,1,0,0,rectangle,14.91381836,-5.623962402,1,0,0,14.91381836,-5.623962402,1,0,0,1,35,195,74,1,,,,,,,,
,,,,,,,,,,,,,FF,,,,,,,,1.3253,,,,,,,,,,,,,,,,,,,,,,60fdfb0996257ffd90d67d2a,61036eb922306843fd58b97c,2021-07-29_22h16.34.850,Simcolourproject_2stim_asymm_v5,2020.2.10,MacIntel,60,61025ae37ef11b136ea224fe,,,,,,,,,2824,-57.44567871,42.16442871,1,0,0,response7disk,,1,-23.55065918,-0.712646484,1,0,0,rectangle,-23.55065918,-0.712646484,1,0,0,-23.55065918,-0.712646484,1,0,0,1,36,196,15,1,,,,,,,,
,,,,,,,,,,,,,FF,,,,,,,,0.7167,,,,,,,,,,,,,,,,,,,,,,60fdfb0996257ffd90d67d2a,61036eb922306843fd58b97c,2021-07-29_22h16.34.850,Simcolourproject_2stim_asymm_v5,2020.2.10,MacIntel,60,61025ae37ef11b136ea224fe,,,,,,,,,51,-37.13378906,-92.95251465,1,0,0,response5disk,,3,-15.98791504,1.815155029,1,0,0,rectangle,-15.98791504,1.815155029,1,0,0,-15.98791504,1.815155029,1,0,0,1,37,197,135,1,,,,,,,,
,,,,,,,,,,,,,FF,,,,,,,,0.7335,,,,,,,,,,,,,,,,,,,,,,60fdfb0996257ffd90d67d2a,61036eb922306843fd58b97c,2021-07-29_22h16.34.850,Simcolourproject_2stim_asymm_v5,2020.2.10,MacIntel,60,61025ae37ef11b136ea224fe,,,,,,,,,4341,-58.15948486,32.90664673,1,0,0,response7disk,,1,-5.860595703,-9.162475586,1,0,0,rectangle,-5.860595703,-9.162475586,1,0,0,-5.860595703,-9.162475586,1,0,0,1,38,198,47,1,,,,,,,,
,,,,,,,,,,,,,FF,,,,,,,,1.3485,,,,,,,,,,,,,,,,,,,,,,60fdfb0996257ffd90d67d2a,61036eb922306843fd58b97c,2021-07-29_22h16.34.850,Simcolourproject_2stim_asymm_v5,2020.2.10,MacIntel,60,61025ae37ef11b136ea224fe,,,,,,,,,2697,-63.60327148,-33.66052246,1,0,0,response5disk,,2,28.58306885,-5.295898438,1,0,0,rectangle,28.58306885,-5.295898438,1,0,0,28.58306885,-5.295898438,1,0,0,1,39,199,103,1,,,,,,,,
,,,,,,,,,,,,,FF,,,,,,,,1.1003,,,,,,,,,,,,,,,,,,,,,,60fdfb0996257ffd90d67d2a,61036eb922306843fd58b97c,2021-07-29_22h16.34.850,Simcolourproject_2stim_asymm_v5,2020.2.10,MacIntel,60,61025ae37ef11b136ea224fe,,,,,,,,,1073,-50.49151611,-77.3770752,1,0,0,response5disk,,3,-24.70617676,-2.903747559,1,0,0,rectangle,-54.05975342,-75.34625244,1,0,0,-15.06671143,1.436523438,1,0,0,1,40,200,111,1,,response5disk_3,TRUE,3,3,"[127,50,82,220,102,203,32,109,229,202,201,13,234,29,276,303,136,40,257,62]",1.4324,rectangle
,,,,,,,,,,,,,FF,,,,,,,,0.8519,,,,,,,,,,,,,,,,,,,,,,60fdfb0996257ffd90d67d2a,61036eb922306843fd58b97c,2021-07-29_22h16.34.850,Simcolourproject_2stim_asymm_v5,2020.2.10,MacIntel,60,61025ae37ef11b136ea224fe,,,,,,,,,4326,-39.76843262,85.84298706,1,0,0,response7disk,,0,-14.42346191,8.035125732,1,0,0,rectangle,49.21289063,91.61190796,1,0,0,11.5581665,-9.273742676,1,0,0,1,41,201,71,1,,response1disk_3,TRUE,7,7,"[127,50,82,220,102,203,32,109,229,202,201,13,234,29,276,303,136,40,257,62]",1.2034,rectangle
,,,,,,,,,,,,,FF,,,,,,,,2.2998,,,,,,,,,,,,,,,,,,,,,,60fdfb0996257ffd90d67d2a,61036eb922306843fd58b97c,2021-07-29_22h16.34.850,Simcolourproject_2stim_asymm_v5,2020.2.10,MacIntel,60,61025ae37ef11b136ea224fe,,,,,,,,,97,37.152771,-47.22918701,1,0,0,response3disk,,4,18.71118164,1.275695801,1,0,0,rectangle,-33.37097168,-75.39569092,1,0,0,-19.74121094,-5.170776367,1,0,0,1,42,202,69,1,,response5disk_3,TRUE,3,3,"[127,50,82,220,102,203,32,109,229,202,201,13,234,29,276,303,136,40,257,62]",1.3158,rectangle
,,,,,,,,,,,,,FF,,,,,,,,1.535,,,,,,,,,,,,,,,,,,,,,,60fdfb0996257ffd90d67d2a,61036eb922306843fd58b97c,2021-07-29_22h16.34.850,Simcolourproject_2stim_asymm_v5,2020.2.10,MacIntel,60,61025ae37ef11b136ea224fe,,,,,,,,,1459,-66.27056885,-28.85424805,1,0,0,response5disk,,2,-27.9498291,-0.293457031,1,0,0,rectangle,-27.9498291,-0.293457031,1,0,0,-27.9498291,-0.293457031,1,0,0,1,43,203,73,1,,,,,,,,
,,,,,,,,,,,,,FF,,,,,,,,2.0013,,,,,,,,,,,,,,,,,,,,,,60fdfb0996257ffd90d67d2a,61036eb922306843fd58b97c,2021-07-29_22h16.34.850,Simcolourproject_2stim_asymm_v5,2020.2.10,MacIntel,60,61025ae37ef11b136ea224fe,,,,,,,,,516,87.14361572,-37.6897583,1,0,0,response3disk,,5,7.049682617,2.487243652,1,0,0,rectangle,7.049682617,2.487243652,1,0,0,7.049682617,2.487243652,1,0,0,1,44,204,152,1,,,,,,,,
,,,,,,,,,,,,,FF,,,,,,,,1.1006,,,,,,,,,,,,,,,,,,,,,,60fdfb0996257ffd90d67d2a,61036eb922306843fd58b97c,2021-07-29_22h16.34.850,Simcolourproject_2stim_asymm_v5,2020.2.10,MacIntel,60,61025ae37ef11b136ea224fe,,,,,,,,,3375,53.16247559,-74.1973877,1,0,0,response3disk,,4,22.33752441,2.535339355,1,0,0,rectangle,22.33752441,2.535339355,1,0,0,22.33752441,2.535339355,1,0,0,1,45,205,121,1,,,,,,,,
,,,,,,,,,,,,,FF,,,,,,,,0.8107,,,,,,,,,,,,,,,,,,,,,,60fdfb0996257ffd90d67d2a,61036eb922306843fd58b97c,2021-07-29_22h16.34.850,Simcolourproject_2stim_asymm_v5,2020.2.10,MacIntel,60,61025ae37ef11b136ea224fe,,,,,,,,,3635,-17.01483154,-71.58905029,1,0,0,response5disk,,3,6.747680664,6.422424316,1,0,0,rectangle,6.747680664,6.422424316,1,0,0,6.747680664,6.422424316,1,0,0,1,46,206,36,1,,,,,,,,
,,,,,,,,,,,,,FF,,,,,,,,1.15,,,,,,,,,,,,,,,,,,,,,,60fdfb0996257ffd90d67d2a,61036eb922306843fd58b97c,2021-07-29_22h16.34.850,Simcolourproject_2stim_asymm_v5,2020.2.10,MacIntel,60,61025ae37ef11b136ea224fe,,,,,,,,,3767,22.6027832,77.26184082,1,0,0,response1disk,,7,6.139831543,-1.595947266,1,0,0,rectangle,6.139831543,-1.595947266,1,0,0,6.139831543,-1.595947266,1,0,0,1,47,207,145,1,,,,,,,,
,,,,,,,,,,,,,FF,,,,,,,,0.8172,,,,,,,,,,,,,,,,,,,,,,60fdfb0996257ffd90d67d2a,61036eb922306843fd58b97c,2021-07-29_22h16.34.850,Simcolourproject_2stim_asymm_v5,2020.2.10,MacIntel,60,61025ae37ef11b136ea224fe,,,,,,,,,4315,35.29925537,53.4805603,1,0,0,response1disk,,7,7.815124512,1.518371582,1,0,0,rectangle,7.815124512,1.518371582,1,0,0,7.815124512,1.518371582,1,0,0,1,48,208,61,1,,,,,,,,
,,,,,,,,,,,,,FF,,,,,,,,1.2168,,,,,,,,,,,,,,,,,,,,,,60fdfb0996257ffd90d67d2a,61036eb922306843fd58b97c,2021-07-29_22h16.34.850,Simcolourproject_2stim_asymm_v5,2020.2.10,MacIntel,60,61025ae37ef11b136ea224fe,,,,,,,,,2787,47.22137451,-86.62554932,1,0,0,response3disk,,4,16.0135498,-7.872131348,1,0,0,rectangle,16.0135498,-7.872131348,1,0,0,16.0135498,-7.872131348,1,0,0,1,49,209,80,1,,,,,,,,
,,,,,,,,,,,,,FF,,,,,,,,1.0667,,,,,,,,,,,,,,,,,,,,,,60fdfb0996257ffd90d67d2a,61036eb922306843fd58b97c,2021-07-29_22h16.34.850,Simcolourproject_2stim_asymm_v5,2020.2.10,MacIntel,60,61025ae37ef11b136ea224fe,,,,,,,,,1777,-27.1708374,-63.8973999,1,0,0,response5disk,,3,-6.468017578,3.485656738,1,0,0,rectangle,-6.468017578,3.485656738,1,0,0,-6.468017578,3.485656738,1,0,0,1,50,210,52,1,,,,,,,,
,,,,,,,,,,,,,FF,,,,,,,,0.8678,,,,,,,,,,,,,,,,,,,,,,60fdfb0996257ffd90d67d2a,61036eb922306843fd58b97c,2021-07-29_22h16.34.850,Simcolourproject_2stim_asymm_v5,2020.2.10,MacIntel,60,61025ae37ef11b136ea224fe,,,,,,,,,2775,-44.91052246,63.58172607,1,0,0,response7disk,,0,-24.50878906,12.30783081,1,0,0,rectangle,-24.50878906,12.30783081,1,0,0,-24.50878906,12.30783081,1,0,0,1,51,211,13,1,,,,,,,,
,,,,,,,,,,,,,FF,,,,,,,,0.7827,,,,,,,,,,,,,,,,,,,,,,60fdfb0996257ffd90d67d2a,61036eb922306843fd58b97c,2021-07-29_22h16.34.850,Simcolourproject_2stim_asymm_v5,2020.2.10,MacIntel,60,61025ae37ef11b136ea224fe,,,,,,,,,1278,74.66967773,-16.08331299,1,0,0,response3disk,,5,4.233276367,5.23638916,1,0,0,rectangle,4.233276367,5.23638916,1,0,0,4.233276367,5.23638916,1,0,0,1,52,212,105,1,,,,,,,,
,,,,,,,,,,,,,FF,,,,,,,,0.7302,,,,,,,,,,,,,,,,,,,,,,60fdfb0996257ffd90d67d2a,61036eb922306843fd58b97c,2021-07-29_22h16.34.850,Simcolourproject_2stim_asymm_v5,2020.2.10,MacIntel,60,61025ae37ef11b136ea224fe,,,,,,,,,3878,-30.40405273,-79.18383789,1,0,0,response5disk,,3,-18.74353027,-1.141387939,1,0,0,rectangle,-18.74353027,-1.141387939,1,0,0,-18.74353027,-1.141387939,1,0,0,1,53,213,144,1,,,,,,,,
,,,,,,,,,,,,,FF,,,,,,,,3.8667,,,,,,,,,,,,,,,,,,,,,,60fdfb0996257ffd90d67d2a,61036eb922306843fd58b97c,2021-07-29_22h16.34.850,Simcolourproject_2stim_asymm_v5,2020.2.10,MacIntel,60,61025ae37ef11b136ea224fe,,,,,,,,,1034,-60.27026367,-44.4130249,1,0,0,response5disk,,2,-6.464477539,-2.978942871,1,0,0,rectangle,-6.464477539,-2.978942871,1,0,0,-6.464477539,-2.978942871,1,0,0,1,54,214,96,1,,,,,,,,
,,,,,,,,,,,,,FF,,,,,,,,0.8348,,,,,,,,,,,,,,,,,,,,,,60fdfb0996257ffd90d67d2a,61036eb922306843fd58b97c,2021-07-29_22h16.34.850,Simcolourproject_2stim_asymm_v5,2020.2.10,MacIntel,60,61025ae37ef11b136ea224fe,,,,,,,,,4010,81.11669922,-55.45556641,1,0,0,response3disk,,5,7.158935547,-4.841918945,1,0,0,rectangle,7.158935547,-4.841918945,1,0,0,7.158935547,-4.841918945,1,0,0,1,55,215,149,1,,,,,,,,
,,,,,,,,,,,,,FF,,,,,,,,1.0183,,,,,,,,,,,,,,,,,,,,,,60fdfb0996257ffd90d67d2a,61036eb922306843fd58b97c,2021-07-29_22h16.34.850,Simcolourproject_2stim_asymm_v5,2020.2.10,MacIntel,60,61025ae37ef11b136ea224fe,,,,,,,,,3341,-93.29547119,-64.55029297,1,0,0,response5disk,,2,-14.11401367,6.289672852,1,0,0,rectangle,-14.11401367,6.289672852,1,0,0,-14.11401367,6.289672852,1,0,0,1,56,216,37,1,,,,,,,,
,,,,,,,,,,,,,FF,,,,,,,,0.8841,,,,,,,,,,,,,,,,,,,,,,60fdfb0996257ffd90d67d2a,61036eb922306843fd58b97c,2021-07-29_22h16.34.850,Simcolourproject_2stim_asymm_v5,2020.2.10,MacIntel,60,61025ae37ef11b136ea224fe,,,,,,,,,597,-33.84484863,-71.83752441,1,0,0,response5disk,,3,-20.57043457,5.332122803,1,0,0,rectangle,-20.57043457,5.332122803,1,0,0,-20.57043457,5.332122803,1,0,0,1,57,217,46,1,,,,,,,,
,,,,,,,,,,,,,FF,,,,,,,,0.9526,,,,,,,,,,,,,,,,,,,,,,60fdfb0996257ffd90d67d2a,61036eb922306843fd58b97c,2021-07-29_22h16.34.850,Simcolourproject_2stim_asymm_v5,2020.2.10,MacIntel,60,61025ae37ef11b136ea224fe,,,,,,,,,3379,22.30499268,-91.18615723,1,0,0,response3disk,,4,17.8996582,3.840637207,1,0,0,rectangle,17.8996582,3.840637207,1,0,0,17.8996582,3.840637207,1,0,0,1,58,218,2,1,,,,,,,,
,,,,,,,,,,,,,FF,,,,,,,,1.2494,,,,,,,,,,,,,,,,,,,,,,60fdfb0996257ffd90d67d2a,61036eb922306843fd58b97c,2021-07-29_22h16.34.850,Simcolourproject_2stim_asymm_v5,2020.2.10,MacIntel,60,61025ae37ef11b136ea224fe,,,,,,,,,1760,-52.94525146,27.77896118,1,0,0,response7disk,,1,-14.47174072,13.58203125,1,0,0,rectangle,74.97888184,27.23355103,1,0,0,25.91967773,3.887512207,1,0,0,1,59,219,7,1,,response1disk_3,TRUE,6,6,"[127,50,82,220,102,203,32,109,229,202,201,13,234,29,276,303,136,40,257,62]",1.4665,rectangle
,,,,,,,,,,,,,FF,,,,,,,,0.9195,,,,,,,,,,,,,,,,,,,,,,60fdfb0996257ffd90d67d2a,61036eb922306843fd58b97c,2021-07-29_22h16.34.850,Simcolourproject_2stim_asymm_v5,2020.2.10,MacIntel,60,61025ae37ef11b136ea224fe,,,,,,,,,1383,-42.98492432,-78.05236816,1,0,0,response5disk,,3,-14.73577881,-7.532897949,1,0,0,rectangle,-14.73577881,-7.532897949,1,0,0,-14.73577881,-7.532897949,1,0,0,1,60,220,122,1,,,,,,,,
,,,,,,,,,,,,,FF,,,,,,,,0.7676,,,,,,,,,,,,,,,,,,,,,,60fdfb0996257ffd90d67d2a,61036eb922306843fd58b97c,2021-07-29_22h16.34.850,Simcolourproject_2stim_asymm_v5,2020.2.10,MacIntel,60,61025ae37ef11b136ea224fe,,,,,,,,,1698,-78.61096191,-20.06335449,1,0,0,response5disk,,2,14.73223877,-9.907440186,1,0,0,rectangle,14.73223877,-9.907440186,1,0,0,14.73223877,-9.907440186,1,0,0,1,61,221,93,1,,,,,,,,
,,,,,,,,,,,,,FF,,,,,,,,0.8176,,,,,,,,,,,,,,,,,,,,,,60fdfb0996257ffd90d67d2a,61036eb922306843fd58b97c,2021-07-29_22h16.34.850,Simcolourproject_2stim_asymm_v5,2020.2.10,MacIntel,60,61025ae37ef11b136ea224fe,,,,,,,,,1157,-64.11846924,29.60784912,1,0,0,response7disk,,1,-16.13781738,3.142700195,1,0,0,rectangle,-16.13781738,3.142700195,1,0,0,-16.13781738,3.142700195,1,0,0,1,62,222,129,1,,,,,,,,
,,,,,,,,,,,,,FF,,,,,,,,0.7221,,,,,,,,,,,,,,,,,,,,,,60fdfb0996257ffd90d67d2a,61036eb922306843fd58b97c,2021-07-29_22h16.34.850,Simcolourproject_2stim_asymm_v5,2020.2.10,MacIntel,60,61025ae37ef11b136ea224fe,,,,,,,,,3968,42.8180542,-72.6350708,1,0,0,response3disk,,4,17.82940674,2.228424072,1,0,0,rectangle,17.82940674,2.228424072,1,0,0,17.82940674,2.228424072,1,0,0,1,63,223,138,1,,,,,,,,
,,,,,,,,,,,,,FF,,,,,,,,0.7507,,,,,,,,,,,,,,,,,,,,,,60fdfb0996257ffd90d67d2a,61036eb922306843fd58b97c,2021-07-29_22h16.34.850,Simcolourproject_2stim_asymm_v5,2020.2.10,MacIntel,60,61025ae37ef11b136ea224fe,,,,,,,,,1669,45.50256348,31.03649902,1,0,0,response1disk,,6,-1.254760742,8.239318848,1,0,0,rectangle,-1.254760742,8.239318848,1,0,0,-1.254760742,8.239318848,1,0,0,1,64,224,43,1,,,,,,,,
,,,,,,,,,,,,,FF,,,,,,,,0.918,,,,,,,,,,,,,,,,,,,,,,60fdfb0996257ffd90d67d2a,61036eb922306843fd58b97c,2021-07-29_22h16.34.850,Simcolourproject_2stim_asymm_v5,2020.2.10,MacIntel,60,61025ae37ef11b136ea224fe,,,,,,,,,3773,-44.86334229,-79.3494873,1,0,0,response5disk,,3,-27.62835693,0.79196167,1,0,0,rectangle,-27.62835693,0.79196167,1,0,0,-27.62835693,0.79196167,1,0,0,1,65,225,125,1,,,,,,,,
,,,,,,,,,,,,,FF,,,,,,,,0.6172,,,,,,,,,,,,,,,,,,,,,,60fdfb0996257ffd90d67d2a,61036eb922306843fd58b97c,2021-07-29_22h16.34.850,Simcolourproject_2stim_asymm_v5,2020.2.10,MacIntel,60,61025ae37ef11b136ea224fe,,,,,,,,,250,-66.99707031,-46.87103271,1,0,0,response5disk,,2,-26.05804443,-10.04046631,1,0,0,rectangle,-26.05804443,-10.04046631,1,0,0,-26.05804443,-10.04046631,1,0,0,1,66,226,83,1,,,,,,,,
,,,,,,,,,,,,,FF,,,,,,,,0.7174,,,,,,,,,,,,,,,,,,,,,,60fdfb0996257ffd90d67d2a,61036eb922306843fd58b97c,2021-07-29_22h16.34.850,Simcolourproject_2stim_asymm_v5,2020.2.10,MacIntel,60,61025ae37ef11b136ea224fe,,,,,,,,,2472,-72.33349609,26.43972778,1,0,0,response7disk,,1,-15.23962402,-2.405883789,1,0,0,rectangle,-15.23962402,-2.405883789,1,0,0,-15.23962402,-2.405883789,1,0,0,1,67,227,1,1,,,,,,,,
,,,,,,,,,,,,,FF,,,,,,,,0.65,,,,,,,,,,,,,,,,,,,,,,60fdfb0996257ffd90d67d2a,61036eb922306843fd58b97c,2021-07-29_22h16.34.850,Simcolourproject_2stim_asymm_v5,2020.2.10,MacIntel,60,61025ae37ef11b136ea224fe,,,,,,,,,657,-28.37268066,-62.13220215,1,0,0,response5disk,,3,-18.43371582,10.42385864,1,0,0,rectangle,-47.15039063,-85.02111816,1,0,0,-29.48858643,-12.55496216,1,0,0,1,68,228,8,1,,response5disk_3,TRUE,3,3,"[127,50,82,220,102,203,32,109,229,202,201,13,234,29,276,303,136,40,257,62]",1.2326,rectangle
,,,,,,,,,,,,,FF,,,,,,,,0.9343,,,,,,,,,,,,,,,,,,,,,,60fdfb0996257ffd90d67d2a,61036eb922306843fd58b97c,2021-07-29_22h16.34.850,Simcolourproject_2stim_asymm_v5,2020.2.10,MacIntel,60,61025ae37ef11b136ea224fe,,,,,,,,,285,51.43426514,-28.32461548,1,0,0,response3disk,,5,20.98529053,0.72833252,1,0,0,rectangle,20.98529053,0.72833252,1,0,0,20.98529053,0.72833252,1,0,0,1,69,229,56,1,,,,,,,,
,,,,,,,,,,,,,FF,,,,,,,,0.8174,,,,,,,,,,,,,,,,,,,,,,60fdfb0996257ffd90d67d2a,61036eb922306843fd58b97c,2021-07-29_22h16.34.850,Simcolourproject_2stim_asymm_v5,2020.2.10,MacIntel,60,61025ae37ef11b136ea224fe,,,,,,,,,2749,-64.93554688,-76.02038574,1,0,0,response5disk,,3,-6.44934082,-13.59091187,1,0,0,rectangle,-6.44934082,-13.59091187,1,0,0,-6.44934082,-13.59091187,1,0,0,1,70,230,18,1,,,,,,,,
,,,,,,,,,,,,,FF,,,,,,,,0.7512,,,,,,,,,,,,,,,,,,,,,,60fdfb0996257ffd90d67d2a,61036eb922306843fd58b97c,2021-07-29_22h16.34.850,Simcolourproject_2stim_asymm_v5,2020.2.10,MacIntel,60,61025ae37ef11b136ea224fe,,,,,,,,,561,97.95703125,-51.36102295,1,0,0,response3disk,,5,25.60461426,8.590637207,1,0,0,rectangle,25.60461426,8.590637207,1,0,0,25.60461426,8.590637207,1,0,0,1,71,231,59,1,,,,,,,,
,,,,,,,,,,,,,FF,,,,,,,,1.1856,,,,,,,,,,,,,,,,,,,,,,60fdfb0996257ffd90d67d2a,61036eb922306843fd58b97c,2021-07-29_22h16.34.850,Simcolourproject_2stim_asymm_v5,2020.2.10,MacIntel,60,61025ae37ef11b136ea224fe,,,,,,,,,1455,-69.20202637,-42.08447266,1,0,0,response5disk,,2,-6.320556641,-8.003631592,1,0,0,rectangle,-6.320556641,-8.003631592,1,0,0,-6.320556641,-8.003631592,1,0,0,1,72,232,45,1,,,,,,,,
,,,,,,,,,,,,,FF,,,,,,,,0.9504,,,,,,,,,,,,,,,,,,,,,,60fdfb0996257ffd90d67d2a,61036eb922306843fd58b97c,2021-07-29_22h16.34.850,Simcolourproject_2stim_asymm_v5,2020.2.10,MacIntel,60,61025ae37ef11b136ea224fe,,,,,,,,,538,-32.08056641,-63.50671387,1,0,0,response5disk,,3,-2.670532227,2.74005127,1,0,0,rectangle,93.77044678,-38.97631836,1,0,0,9.651062012,1.170471191,1,0,0,1,73,233,112,1,,response3disk_3,TRUE,5,5,"[127,50,82,220,102,203,32,109,229,202,201,13,234,29,276,303,136,40,257,62]",1.2999,rectangle
,,,,,,,,,,,,,FF,,,,,,,,1.1191,,,,,,,,,,,,,,,,,,,,,,60fdfb0996257ffd90d67d2a,61036eb922306843fd58b97c,2021-07-29_22h16.34.850,Simcolourproject_2stim_asymm_v5,2020.2.10,MacIntel,60,61025ae37ef11b136ea224fe,,,,,,,,,3786,105.6498413,-45.13928223,1,0,0,response3disk,,5,-11.73876953,-5.53527832,1,0,0,rectangle,-11.73876953,-5.53527832,1,0,0,-11.73876953,-5.53527832,1,0,0,1,74,234,53,1,,,,,,,,
,,,,,,,,,,,,,FF,,,,,,,,0.8845,,,,,,,,,,,,,,,,,,,,,,60fdfb0996257ffd90d67d2a,61036eb922306843fd58b97c,2021-07-29_22h16.34.850,Simcolourproject_2stim_asymm_v5,2020.2.10,MacIntel,60,61025ae37ef11b136ea224fe,,,,,,,,,3748,-64.56542969,35.91900635,1,0,0,response7disk,,1,5.443481445,1.466125488,1,0,0,rectangle,5.443481445,1.466125488,1,0,0,5.443481445,1.466125488,1,0,0,1,75,235,11,1,,,,,,,,
,,,,,,,,,,,,,FF,,,,,,,,0.6665,,,,,,,,,,,,,,,,,,,,,,60fdfb0996257ffd90d67d2a,61036eb922306843fd58b97c,2021-07-29_22h16.34.850,Simcolourproject_2stim_asymm_v5,2020.2.10,MacIntel,60,61025ae37ef11b136ea224fe,,,,,,,,,1361,-28.9675293,-58.41699219,1,0,0,response5disk,,3,-3.985412598,11.97729492,1,0,0,rectangle,-3.985412598,11.97729492,1,0,0,-3.985412598,11.97729492,1,0,0,1,76,236,58,1,,,,,,,,
,,,,,,,,,,,,,FF,,,,,,,,4.2672,,,,,,,,,,,,,,,,,,,,,,60fdfb0996257ffd90d67d2a,61036eb922306843fd58b97c,2021-07-29_22h16.34.850,Simcolourproject_2stim_asymm_v5,2020.2.10,MacIntel,60,61025ae37ef11b136ea224fe,,,,,,,,,3339,-65.73828125,-34.2572937,1,0,0,response5disk,,2,-1.609741211,-8.52355957,1,0,0,rectangle,-1.609741211,-8.52355957,1,0,0,-1.609741211,-8.52355957,1,0,0,1,77,237,78,1,,,,,,,,
,,,,,,,,,,,,,FF,,,,,,,,0.7832,,,,,,,,,,,,,,,,,,,,,,60fdfb0996257ffd90d67d2a,61036eb922306843fd58b97c,2021-07-29_22h16.34.850,Simcolourproject_2stim_asymm_v5,2020.2.10,MacIntel,60,61025ae37ef11b136ea224fe,,,,,,,,,27,51.00823975,-63.08508301,1,0,0,response3disk,,4,20.1159668,-6.636230469,1,0,0,rectangle,20.1159668,-6.636230469,1,0,0,20.1159668,-6.636230469,1,0,0,1,78,238,124,1,,,,,,,,
,,,,,,,,,,,,,FF,,,,,,,,0.5992,,,,,,,,,,,,,,,,,,,,,,60fdfb0996257ffd90d67d2a,61036eb922306843fd58b97c,2021-07-29_22h16.34.850,Simcolourproject_2stim_asymm_v5,2020.2.10,MacIntel,60,61025ae37ef11b136ea224fe,,,,,,,,,2473,-34.7722168,-54.121521,1,0,0,response5disk,,3,-28.55102539,-12.06481934,1,0,0,rectangle,-28.55102539,-12.06481934,1,0,0,-28.55102539,-12.06481934,1,0,0,1,79,239,115,1,,,,,,,,
