key_resp.keys,key_resp.rt,key_resp_14.keys,key_resp_14.rt,key_resp_15.keys,key_resp_15.rt,key_resp_17.keys,key_resp_17.rt,key_resp_9.keys,key_resp_9.rt,key_resp_10.keys,key_resp_10.rt,practice_comparison,Ecc,mouse_5.x,mouse_5.y,mouse_5.leftButton,mouse_5.midButton,mouse_5.rightButton,mouse_5.clicked_name,pracsimilarity,response_time,mouse_10.x,mouse_10.y,mouse_10.leftButton,mouse_10.midButton,mouse_10.rightButton,mouse_10.clicked_name,mouse_7.x,mouse_7.y,mouse_7.leftButton,mouse_7.midButton,mouse_7.rightButton,mouse_6.x,mouse_6.y,mouse_6.leftButton,mouse_6.midButton,mouse_6.rightButton,duringprac.thisRepN,duringprac.thisTrialN,duringprac.thisN,duringprac.thisIndex,duringprac.ran,participant,session,date,expName,psychopyVersion,OS,frameRate,study_id,mouse_7.clicked_name,catchpracsimilarity,catch_response_time,catchnumberprac,catchtrialorderprac,mouse_6.clicked_name,key_resp_22.keys,key_resp_22.rt,realcomparison,mouse.x,mouse.y,mouse.leftButton,mouse.midButton,mouse.rightButton,mouse.clicked_name,Colour2,similarity,mouse_2.x,mouse_2.y,mouse_2.leftButton,mouse_2.midButton,mouse_2.rightButton,mouse_2.clicked_name,mouse_3.x,mouse_3.y,mouse_3.leftButton,mouse_3.midButton,mouse_3.rightButton,mouse_11.x,mouse_11.y,mouse_11.leftButton,mouse_11.midButton,mouse_11.rightButton,trials_2.thisRepN,trials_2.thisTrialN,trials_2.thisN,trials_2.thisIndex,trials_2.ran,Colour1,mouse_3.clicked_name,catchornah,catchsimilarity,catchnumber,catchtrialorder,catchRT,mouse_11.clicked_name
space,1.3869,space,4.6144,space,4.7516,space,2.5353,space,0.7668,space,3.1004,136,PF,47.79077148,80.66574097,1,0,0,response1disk_5,7,5.3565,-3.627075195,-6.79119873,1,0,0,rectangle_8,-3.627075195,-6.79119873,1,0,0,-3.627075195,-6.79119873,1,0,0,0,0,0,1,1,60fdb19cd9af60d495e15453,61036d59b6b0254c353273db,2021-07-29_23h09.33.379,Simcolourproject_2stim_asymm_v5,2020.2.10,MacIntel,60,61025ae37ef11b136ea224fe,,,,,,,,,,,,,,,,,,,,,,,,,,,,,,,,,,,,,,,,,,,,,,
,,,,,,,,,,,,124,FF,28.26361084,-76.03442383,1,0,0,response3disk_5,4,2.1997,4.06072998,-9.191223145,1,0,0,rectangle_8,-76.3817749,30.29998779,1,0,0,2.069641113,0.27444458,1,0,0,0,1,1,0,1,60fdb19cd9af60d495e15453,61036d59b6b0254c353273db,2021-07-29_23h09.33.379,Simcolourproject_2stim_asymm_v5,2020.2.10,MacIntel,60,61025ae37ef11b136ea224fe,response7disk_7,1,2.5002,1,"[2,5]",rectangle_4,,,,,,,,,,,,,,,,,,,,,,,,,,,,,,,,,,,,,,,,
,,,,,,,,,,,,112,FF,-73.77508545,-33.60858154,1,0,0,response5disk_5,2,2.6333,8.537475586,-1.558563232,1,0,0,rectangle_8,8.537475586,-1.558563232,1,0,0,8.537475586,-1.558563232,1,0,0,0,2,2,3,1,60fdb19cd9af60d495e15453,61036d59b6b0254c353273db,2021-07-29_23h09.33.379,Simcolourproject_2stim_asymm_v5,2020.2.10,MacIntel,60,61025ae37ef11b136ea224fe,,,,,,,,,,,,,,,,,,,,,,,,,,,,,,,,,,,,,,,,,,,,,,
,,,,,,,,,,,,71,FF,84.75799561,28.08306885,1,0,0,response1disk_5,6,2.3158,-3.880737305,4.181335449,1,0,0,rectangle_8,-3.880737305,4.181335449,1,0,0,-3.880737305,4.181335449,1,0,0,0,3,3,5,1,60fdb19cd9af60d495e15453,61036d59b6b0254c353273db,2021-07-29_23h09.33.379,Simcolourproject_2stim_asymm_v5,2020.2.10,MacIntel,60,61025ae37ef11b136ea224fe,,,,,,,,,,,,,,,,,,,,,,,,,,,,,,,,,,,,,,,,,,,,,,
,,,,,,,,,,,,13,PF,-66.78936768,27.70046997,1,0,0,response7disk_5,1,1.2156,-13.16955566,-4.209350586,1,0,0,rectangle_8,-75.53851318,50.64016724,1,0,0,-8.201660156,7.973571777,1,0,0,0,4,4,6,1,60fdb19cd9af60d495e15453,61036d59b6b0254c353273db,2021-07-29_23h09.33.379,Simcolourproject_2stim_asymm_v5,2020.2.10,MacIntel,60,61025ae37ef11b136ea224fe,response7disk_7,1,1.9503,1,"[2,5]",rectangle_4,,,,,,,,,,,,,,,,,,,,,,,,,,,,,,,,,,,,,,,,
,,,,,,,,,,,,157,PF,-20.68701172,-77.1171875,1,0,0,response5disk_5,3,4.8666,4.447631836,10.06118774,1,0,0,rectangle_8,4.447631836,10.06118774,1,0,0,4.447631836,10.06118774,1,0,0,0,5,5,2,1,60fdb19cd9af60d495e15453,61036d59b6b0254c353273db,2021-07-29_23h09.33.379,Simcolourproject_2stim_asymm_v5,2020.2.10,MacIntel,60,61025ae37ef11b136ea224fe,,,,,,,,,,,,,,,,,,,,,,,,,,,,,,,,,,,,,,,,,,,,,,
,,,,,,,,,,,,51,PF,92.24475098,45.57470703,1,0,0,response1disk_5,6,1.7006,9.621520996,-9.017028809,1,0,0,rectangle_8,9.621520996,-9.017028809,1,0,0,9.621520996,-9.017028809,1,0,0,0,6,6,4,1,60fdb19cd9af60d495e15453,61036d59b6b0254c353273db,2021-07-29_23h09.33.379,Simcolourproject_2stim_asymm_v5,2020.2.10,MacIntel,60,61025ae37ef11b136ea224fe,,,,,,,,,,,,,,,,,,,,,,,,,,,,,,,,,,,,,,,,,,,,,,
,,,,,,,,,,,,,FF,,,,,,,,1.4821,,,,,,,,,,,,,,,,,,,,,,60fdb19cd9af60d495e15453,61036d59b6b0254c353273db,2021-07-29_23h09.33.379,Simcolourproject_2stim_asymm_v5,2020.2.10,MacIntel,60,61025ae37ef11b136ea224fe,,,,,,,space,2.2011,2389,81.93701172,26.91210938,1,0,0,response1disk,,6,20.26251221,-0.573120117,1,0,0,rectangle,20.26251221,-0.573120117,1,0,0,20.26251221,-0.573120117,1,0,0,0,0,0,40,1,,,,,,,,
,,,,,,,,,,,,,FF,,,,,,,,0.8322,,,,,,,,,,,,,,,,,,,,,,60fdb19cd9af60d495e15453,61036d59b6b0254c353273db,2021-07-29_23h09.33.379,Simcolourproject_2stim_asymm_v5,2020.2.10,MacIntel,60,61025ae37ef11b136ea224fe,,,,,,,,,4326,-31.32598877,58.64355469,1,0,0,response7disk,,0,-3.057556152,6.927124023,1,0,0,rectangle,-3.057556152,6.927124023,1,0,0,-3.057556152,6.927124023,1,0,0,0,1,1,98,1,,,,,,,,
,,,,,,,,,,,,,FF,,,,,,,,1.2337,,,,,,,,,,,,,,,,,,,,,,60fdb19cd9af60d495e15453,61036d59b6b0254c353273db,2021-07-29_23h09.33.379,Simcolourproject_2stim_asymm_v5,2020.2.10,MacIntel,60,61025ae37ef11b136ea224fe,,,,,,,,,4240,-73.17675781,-22.21856689,1,0,0,response5disk,,2,3.071960449,0.051574707,1,0,0,rectangle,3.071960449,0.051574707,1,0,0,3.071960449,0.051574707,1,0,0,0,2,2,112,1,,,,,,,,
,,,,,,,,,,,,,FF,,,,,,,,0.7998,,,,,,,,,,,,,,,,,,,,,,60fdb19cd9af60d495e15453,61036d59b6b0254c353273db,2021-07-29_23h09.33.379,Simcolourproject_2stim_asymm_v5,2020.2.10,MacIntel,60,61025ae37ef11b136ea224fe,,,,,,,,,630,-71.53051758,23.34381104,1,0,0,response7disk,,1,19.18554688,-10.15698242,1,0,0,rectangle,19.18554688,-10.15698242,1,0,0,19.18554688,-10.15698242,1,0,0,0,3,3,106,1,,,,,,,,
,,,,,,,,,,,,,FF,,,,,,,,0.8836,,,,,,,,,,,,,,,,,,,,,,60fdb19cd9af60d495e15453,61036d59b6b0254c353273db,2021-07-29_23h09.33.379,Simcolourproject_2stim_asymm_v5,2020.2.10,MacIntel,60,61025ae37ef11b136ea224fe,,,,,,,,,795,63.72717285,-37.06079102,1,0,0,response3disk,,5,15.49371338,-8.090087891,1,0,0,rectangle,15.49371338,-8.090087891,1,0,0,15.49371338,-8.090087891,1,0,0,0,4,4,121,1,,,,,,,,
,,,,,,,,,,,,,FF,,,,,,,,0.8336,,,,,,,,,,,,,,,,,,,,,,60fdb19cd9af60d495e15453,61036d59b6b0254c353273db,2021-07-29_23h09.33.379,Simcolourproject_2stim_asymm_v5,2020.2.10,MacIntel,60,61025ae37ef11b136ea224fe,,,,,,,,,2775,-34.44354248,87.69390869,1,0,0,response7disk,,0,-10.26165771,8.000030518,1,0,0,rectangle,-10.26165771,8.000030518,1,0,0,-10.26165771,8.000030518,1,0,0,0,5,5,67,1,,,,,,,,
,,,,,,,,,,,,,FF,,,,,,,,1.9332,,,,,,,,,,,,,,,,,,,,,,60fdb19cd9af60d495e15453,61036d59b6b0254c353273db,2021-07-29_23h09.33.379,Simcolourproject_2stim_asymm_v5,2020.2.10,MacIntel,60,61025ae37ef11b136ea224fe,,,,,,,,,2221,65.36547852,-27.650177,1,0,0,response3disk,,5,7.272460938,2.053955078,1,0,0,rectangle,7.272460938,2.053955078,1,0,0,7.272460938,2.053955078,1,0,0,0,6,6,132,1,,,,,,,,
,,,,,,,,,,,,,FF,,,,,,,,1.049,,,,,,,,,,,,,,,,,,,,,,60fdb19cd9af60d495e15453,61036d59b6b0254c353273db,2021-07-29_23h09.33.379,Simcolourproject_2stim_asymm_v5,2020.2.10,MacIntel,60,61025ae37ef11b136ea224fe,,,,,,,,,691,37.2779541,84.58001709,1,0,0,response1disk,,7,4.321105957,-1.940429688,1,0,0,rectangle,4.321105957,-1.940429688,1,0,0,4.321105957,-1.940429688,1,0,0,0,7,7,120,1,,,,,,,,
,,,,,,,,,,,,,FF,,,,,,,,0.9001,,,,,,,,,,,,,,,,,,,,,,60fdb19cd9af60d495e15453,61036d59b6b0254c353273db,2021-07-29_23h09.33.379,Simcolourproject_2stim_asymm_v5,2020.2.10,MacIntel,60,61025ae37ef11b136ea224fe,,,,,,,,,2196,26.76361084,95.88031006,1,0,0,response1disk,,7,11.73590088,-4.398345947,1,0,0,rectangle,11.73590088,-4.398345947,1,0,0,11.73590088,-4.398345947,1,0,0,0,8,8,149,1,,,,,,,,
,,,,,,,,,,,,,FF,,,,,,,,1.1168,,,,,,,,,,,,,,,,,,,,,,60fdb19cd9af60d495e15453,61036d59b6b0254c353273db,2021-07-29_23h09.33.379,Simcolourproject_2stim_asymm_v5,2020.2.10,MacIntel,60,61025ae37ef11b136ea224fe,,,,,,,,,3981,-46.36877441,-78.5211792,1,0,0,response5disk,,3,-5.702697754,-3.006866455,1,0,0,rectangle,28.324646,-67.69140625,1,0,0,3.066650391,-9.911773682,1,0,0,0,9,9,2,1,,response3disk_3,TRUE,4,4,"[56,158,266,224,49,27,314,88,164,222,11,99,235,127,10,170,272,82,13,15]",2.0181,rectangle
,,,,,,,,,,,,,FF,,,,,,,,1.0013,,,,,,,,,,,,,,,,,,,,,,60fdb19cd9af60d495e15453,61036d59b6b0254c353273db,2021-07-29_23h09.33.379,Simcolourproject_2stim_asymm_v5,2020.2.10,MacIntel,60,61025ae37ef11b136ea224fe,,,,,,,,,2852,76.01470947,-38.70751953,1,0,0,response3disk,,5,-12.93408203,2.456115723,1,0,0,rectangle,-23.5322876,54.75891113,1,0,0,-15.87023926,12.39978027,1,0,0,0,10,10,89,1,,response7disk_3,TRUE,0,0,"[56,158,266,224,49,27,314,88,164,222,11,99,235,127,10,170,272,82,13,15]",1.8007,rectangle
,,,,,,,,,,,,,FF,,,,,,,,1.5349,,,,,,,,,,,,,,,,,,,,,,60fdb19cd9af60d495e15453,61036d59b6b0254c353273db,2021-07-29_23h09.33.379,Simcolourproject_2stim_asymm_v5,2020.2.10,MacIntel,60,61025ae37ef11b136ea224fe,,,,,,,,,1630,34.03277588,-79.46075439,1,0,0,response3disk,,4,-1.040405273,2.48828125,1,0,0,rectangle,-1.040405273,2.48828125,1,0,0,-1.040405273,2.48828125,1,0,0,0,11,11,20,1,,,,,,,,
,,,,,,,,,,,,,FF,,,,,,,,1.1499,,,,,,,,,,,,,,,,,,,,,,60fdb19cd9af60d495e15453,61036d59b6b0254c353273db,2021-07-29_23h09.33.379,Simcolourproject_2stim_asymm_v5,2020.2.10,MacIntel,60,61025ae37ef11b136ea224fe,,,,,,,,,623,-36.84906006,-70.71325684,1,0,0,response5disk,,3,-0.039245605,-12.67272949,1,0,0,rectangle,69.03765869,35.859375,1,0,0,3.478637695,-4.64163208,1,0,0,0,12,12,4,1,,response1disk_3,TRUE,6,6,"[56,158,266,224,49,27,314,88,164,222,11,99,235,127,10,170,272,82,13,15]",1.7652,rectangle
,,,,,,,,,,,,,FF,,,,,,,,0.867,,,,,,,,,,,,,,,,,,,,,,60fdb19cd9af60d495e15453,61036d59b6b0254c353273db,2021-07-29_23h09.33.379,Simcolourproject_2stim_asymm_v5,2020.2.10,MacIntel,60,61025ae37ef11b136ea224fe,,,,,,,,,3558,-77.4786377,30.77911377,1,0,0,response7disk,,1,2.041931152,-6.342895508,1,0,0,rectangle,2.041931152,-6.342895508,1,0,0,2.041931152,-6.342895508,1,0,0,0,13,13,136,1,,,,,,,,
,,,,,,,,,,,,,FF,,,,,,,,0.9314,,,,,,,,,,,,,,,,,,,,,,60fdb19cd9af60d495e15453,61036d59b6b0254c353273db,2021-07-29_23h09.33.379,Simcolourproject_2stim_asymm_v5,2020.2.10,MacIntel,60,61025ae37ef11b136ea224fe,,,,,,,,,3687,55.87597656,-32.04052734,1,0,0,response3disk,,5,8.04510498,-1.495727539,1,0,0,rectangle,54.30847168,-31.78756714,1,0,0,12.74468994,-9.052764893,1,0,0,0,14,14,55,1,,response3disk_3,TRUE,5,5,"[56,158,266,224,49,27,314,88,164,222,11,99,235,127,10,170,272,82,13,15]",1.4831,rectangle
,,,,,,,,,,,,,FF,,,,,,,,1.2649,,,,,,,,,,,,,,,,,,,,,,60fdb19cd9af60d495e15453,61036d59b6b0254c353273db,2021-07-29_23h09.33.379,Simcolourproject_2stim_asymm_v5,2020.2.10,MacIntel,60,61025ae37ef11b136ea224fe,,,,,,,,,597,73.55096436,32.00149536,1,0,0,response1disk,,6,4.092651367,-3.981658936,1,0,0,rectangle,4.092651367,-3.981658936,1,0,0,4.092651367,-3.981658936,1,0,0,0,15,15,152,1,,,,,,,,
,,,,,,,,,,,,,FF,,,,,,,,0.9009,,,,,,,,,,,,,,,,,,,,,,60fdb19cd9af60d495e15453,61036d59b6b0254c353273db,2021-07-29_23h09.33.379,Simcolourproject_2stim_asymm_v5,2020.2.10,MacIntel,60,61025ae37ef11b136ea224fe,,,,,,,,,1007,45.769104,74.62335205,1,0,0,response1disk,,7,8.586914063,3.095275879,1,0,0,rectangle,8.586914063,3.095275879,1,0,0,8.586914063,3.095275879,1,0,0,0,16,16,117,1,,,,,,,,
,,,,,,,,,,,,,FF,,,,,,,,0.6852,,,,,,,,,,,,,,,,,,,,,,60fdb19cd9af60d495e15453,61036d59b6b0254c353273db,2021-07-29_23h09.33.379,Simcolourproject_2stim_asymm_v5,2020.2.10,MacIntel,60,61025ae37ef11b136ea224fe,,,,,,,,,493,25.53796387,68.83587646,1,0,0,response1disk,,7,13.06347656,5.133666992,1,0,0,rectangle,13.06347656,5.133666992,1,0,0,13.06347656,5.133666992,1,0,0,0,17,17,105,1,,,,,,,,
,,,,,,,,,,,,,FF,,,,,,,,0.7667,,,,,,,,,,,,,,,,,,,,,,60fdb19cd9af60d495e15453,61036d59b6b0254c353273db,2021-07-29_23h09.33.379,Simcolourproject_2stim_asymm_v5,2020.2.10,MacIntel,60,61025ae37ef11b136ea224fe,,,,,,,,,681,78.37939453,31.78625488,1,0,0,response1disk,,6,-1.156311035,9.60736084,1,0,0,rectangle,-1.156311035,9.60736084,1,0,0,-1.156311035,9.60736084,1,0,0,0,18,18,56,1,,,,,,,,
,,,,,,,,,,,,,FF,,,,,,,,1.0835,,,,,,,,,,,,,,,,,,,,,,60fdb19cd9af60d495e15453,61036d59b6b0254c353273db,2021-07-29_23h09.33.379,Simcolourproject_2stim_asymm_v5,2020.2.10,MacIntel,60,61025ae37ef11b136ea224fe,,,,,,,,,450,73.64038086,-50.31793213,1,0,0,response3disk,,5,7.631652832,-9.214111328,1,0,0,rectangle,7.631652832,-9.214111328,1,0,0,7.631652832,-9.214111328,1,0,0,0,19,19,3,1,,,,,,,,
,,,,,,,,,,,,,FF,,,,,,,,1.0646,,,,,,,,,,,,,,,,,,,,,,60fdb19cd9af60d495e15453,61036d59b6b0254c353273db,2021-07-29_23h09.33.379,Simcolourproject_2stim_asymm_v5,2020.2.10,MacIntel,60,61025ae37ef11b136ea224fe,,,,,,,,,627,75.94342041,31.45874023,1,0,0,response1disk,,6,6.656494141,-3.565582275,1,0,0,rectangle,6.656494141,-3.565582275,1,0,0,6.656494141,-3.565582275,1,0,0,0,20,20,96,1,,,,,,,,
,,,,,,,,,,,,,FF,,,,,,,,1.5675,,,,,,,,,,,,,,,,,,,,,,60fdb19cd9af60d495e15453,61036d59b6b0254c353273db,2021-07-29_23h09.33.379,Simcolourproject_2stim_asymm_v5,2020.2.10,MacIntel,60,61025ae37ef11b136ea224fe,,,,,,,,,2791,-65.79760742,-51.64694214,1,0,0,response5disk,,2,0.378356934,-1.072692871,1,0,0,rectangle,0.378356934,-1.072692871,1,0,0,0.378356934,-1.072692871,1,0,0,0,21,21,78,1,,,,,,,,
,,,,,,,,,,,,,FF,,,,,,,,1.9668,,,,,,,,,,,,,,,,,,,,,,60fdb19cd9af60d495e15453,61036d59b6b0254c353273db,2021-07-29_23h09.33.379,Simcolourproject_2stim_asymm_v5,2020.2.10,MacIntel,60,61025ae37ef11b136ea224fe,,,,,,,,,730,-29.49664307,-79.13592529,1,0,0,response5disk,,3,1.832885742,-7.433624268,1,0,0,rectangle,1.832885742,-7.433624268,1,0,0,1.832885742,-7.433624268,1,0,0,0,22,22,69,1,,,,,,,,
,,,,,,,,,,,,,FF,,,,,,,,1.1172,,,,,,,,,,,,,,,,,,,,,,60fdb19cd9af60d495e15453,61036d59b6b0254c353273db,2021-07-29_23h09.33.379,Simcolourproject_2stim_asymm_v5,2020.2.10,MacIntel,60,61025ae37ef11b136ea224fe,,,,,,,,,2471,-37.28857422,-69.90600586,1,0,0,response5disk,,3,11.57354736,1.245422363,1,0,0,rectangle,11.57354736,1.245422363,1,0,0,11.57354736,1.245422363,1,0,0,0,23,23,90,1,,,,,,,,
,,,,,,,,,,,,,FF,,,,,,,,1.1495,,,,,,,,,,,,,,,,,,,,,,60fdb19cd9af60d495e15453,61036d59b6b0254c353273db,2021-07-29_23h09.33.379,Simcolourproject_2stim_asymm_v5,2020.2.10,MacIntel,60,61025ae37ef11b136ea224fe,,,,,,,,,2725,-76.96154785,25.70330811,1,0,0,response7disk,,1,-9.244995117,1.640380859,1,0,0,rectangle,-9.244995117,1.640380859,1,0,0,-9.244995117,1.640380859,1,0,0,0,24,24,119,1,,,,,,,,
,,,,,,,,,,,,,FF,,,,,,,,0.9499,,,,,,,,,,,,,,,,,,,,,,60fdb19cd9af60d495e15453,61036d59b6b0254c353273db,2021-07-29_23h09.33.379,Simcolourproject_2stim_asymm_v5,2020.2.10,MacIntel,60,61025ae37ef11b136ea224fe,,,,,,,,,2726,-54.17736816,26.94338989,1,0,0,response7disk,,1,-13.95324707,12.19702148,1,0,0,rectangle,-13.95324707,12.19702148,1,0,0,-13.95324707,12.19702148,1,0,0,0,25,25,148,1,,,,,,,,
,,,,,,,,,,,,,FF,,,,,,,,0.9162,,,,,,,,,,,,,,,,,,,,,,60fdb19cd9af60d495e15453,61036d59b6b0254c353273db,2021-07-29_23h09.33.379,Simcolourproject_2stim_asymm_v5,2020.2.10,MacIntel,60,61025ae37ef11b136ea224fe,,,,,,,,,3852,-63.26330566,-41.02615356,1,0,0,response5disk,,2,-6.790039063,-5.247589111,1,0,0,rectangle,41.53161621,-75.93334961,1,0,0,9.019836426,-12.99298096,1,0,0,0,26,26,124,1,,response3disk_3,TRUE,4,4,"[56,158,266,224,49,27,314,88,164,222,11,99,235,127,10,170,272,82,13,15]",1.4499,rectangle
,,,,,,,,,,,,,FF,,,,,,,,0.7838,,,,,,,,,,,,,,,,,,,,,,60fdb19cd9af60d495e15453,61036d59b6b0254c353273db,2021-07-29_23h09.33.379,Simcolourproject_2stim_asymm_v5,2020.2.10,MacIntel,60,61025ae37ef11b136ea224fe,,,,,,,,,4020,-24.56976318,86.46716309,1,0,0,response7disk,,0,0.603759766,0.304290771,1,0,0,rectangle,0.603759766,0.304290771,1,0,0,0.603759766,0.304290771,1,0,0,0,27,27,128,1,,,,,,,,
,,,,,,,,,,,,,FF,,,,,,,,0.967,,,,,,,,,,,,,,,,,,,,,,60fdb19cd9af60d495e15453,61036d59b6b0254c353273db,2021-07-29_23h09.33.379,Simcolourproject_2stim_asymm_v5,2020.2.10,MacIntel,60,61025ae37ef11b136ea224fe,,,,,,,,,1139,-78.49060059,-41.33010864,1,0,0,response5disk,,2,-5.04888916,-1.552124023,1,0,0,rectangle,-5.04888916,-1.552124023,1,0,0,-5.04888916,-1.552124023,1,0,0,0,28,28,151,1,,,,,,,,
,,,,,,,,,,,,,FF,,,,,,,,1.085,,,,,,,,,,,,,,,,,,,,,,60fdb19cd9af60d495e15453,61036d59b6b0254c353273db,2021-07-29_23h09.33.379,Simcolourproject_2stim_asymm_v5,2020.2.10,MacIntel,60,61025ae37ef11b136ea224fe,,,,,,,,,1311,-69.98974609,32.37438965,1,0,0,response7disk,,1,10.54107666,-0.805725098,1,0,0,rectangle,10.54107666,-0.805725098,1,0,0,10.54107666,-0.805725098,1,0,0,0,29,29,62,1,,,,,,,,
,,,,,,,,,,,,,FF,,,,,,,,0.7843,,,,,,,,,,,,,,,,,,,,,,60fdb19cd9af60d495e15453,61036d59b6b0254c353273db,2021-07-29_23h09.33.379,Simcolourproject_2stim_asymm_v5,2020.2.10,MacIntel,60,61025ae37ef11b136ea224fe,,,,,,,,,4000,-77.37713623,31.9770813,1,0,0,response7disk,,1,-8.510620117,6.124298096,1,0,0,rectangle,-8.510620117,6.124298096,1,0,0,-8.510620117,6.124298096,1,0,0,0,30,30,72,1,,,,,,,,
,,,,,,,,,,,,,FF,,,,,,,,0.6182,,,,,,,,,,,,,,,,,,,,,,60fdb19cd9af60d495e15453,61036d59b6b0254c353273db,2021-07-29_23h09.33.379,Simcolourproject_2stim_asymm_v5,2020.2.10,MacIntel,60,61025ae37ef11b136ea224fe,,,,,,,,,805,-64.12878418,34.2956543,1,0,0,response7disk,,1,-4.488891602,8.419921875,1,0,0,rectangle,-4.488891602,8.419921875,1,0,0,-4.488891602,8.419921875,1,0,0,0,31,31,74,1,,,,,,,,
,,,,,,,,,,,,,FF,,,,,,,,1.3327,,,,,,,,,,,,,,,,,,,,,,60fdb19cd9af60d495e15453,61036d59b6b0254c353273db,2021-07-29_23h09.33.379,Simcolourproject_2stim_asymm_v5,2020.2.10,MacIntel,60,61025ae37ef11b136ea224fe,,,,,,,,,1361,-45.71014404,-60.4440918,1,0,0,response5disk,,3,4.733520508,-8.229370117,1,0,0,rectangle,4.733520508,-8.229370117,1,0,0,4.733520508,-8.229370117,1,0,0,0,32,32,64,1,,,,,,,,
,,,,,,,,,,,,,FF,,,,,,,,0.716,,,,,,,,,,,,,,,,,,,,,,60fdb19cd9af60d495e15453,61036d59b6b0254c353273db,2021-07-29_23h09.33.379,Simcolourproject_2stim_asymm_v5,2020.2.10,MacIntel,60,61025ae37ef11b136ea224fe,,,,,,,,,3286,-63.57556152,-32.36386108,1,0,0,response5disk,,2,6.534790039,-4.451293945,1,0,0,rectangle,6.534790039,-4.451293945,1,0,0,6.534790039,-4.451293945,1,0,0,0,33,33,99,1,,,,,,,,
,,,,,,,,,,,,,FF,,,,,,,,1.1347,,,,,,,,,,,,,,,,,,,,,,60fdb19cd9af60d495e15453,61036d59b6b0254c353273db,2021-07-29_23h09.33.379,Simcolourproject_2stim_asymm_v5,2020.2.10,MacIntel,60,61025ae37ef11b136ea224fe,,,,,,,,,3462,51.69946289,-78.34875488,1,0,0,response3disk,,4,8.261779785,-7.145050049,1,0,0,rectangle,8.261779785,-7.145050049,1,0,0,8.261779785,-7.145050049,1,0,0,0,34,34,85,1,,,,,,,,
,,,,,,,,,,,,,FF,,,,,,,,0.7176,,,,,,,,,,,,,,,,,,,,,,60fdb19cd9af60d495e15453,61036d59b6b0254c353273db,2021-07-29_23h09.33.379,Simcolourproject_2stim_asymm_v5,2020.2.10,MacIntel,60,61025ae37ef11b136ea224fe,,,,,,,,,2795,78.03088379,-38.74890137,1,0,0,response3disk,,5,12.25408936,-11.67498779,1,0,0,rectangle,12.25408936,-11.67498779,1,0,0,12.25408936,-11.67498779,1,0,0,0,35,35,143,1,,,,,,,,
,,,,,,,,,,,,,FF,,,,,,,,1.3172,,,,,,,,,,,,,,,,,,,,,,60fdb19cd9af60d495e15453,61036d59b6b0254c353273db,2021-07-29_23h09.33.379,Simcolourproject_2stim_asymm_v5,2020.2.10,MacIntel,60,61025ae37ef11b136ea224fe,,,,,,,,,2827,-44.88970947,-65.87207031,1,0,0,response5disk,,3,2.935546875,7.976409912,1,0,0,rectangle,2.935546875,7.976409912,1,0,0,2.935546875,7.976409912,1,0,0,0,36,36,138,1,,,,,,,,
,,,,,,,,,,,,,FF,,,,,,,,0.7054,,,,,,,,,,,,,,,,,,,,,,60fdb19cd9af60d495e15453,61036d59b6b0254c353273db,2021-07-29_23h09.33.379,Simcolourproject_2stim_asymm_v5,2020.2.10,MacIntel,60,61025ae37ef11b136ea224fe,,,,,,,,,2298,-76.68438721,25.36312866,1,0,0,response7disk,,1,-17.25238037,8.404418945,1,0,0,rectangle,-17.25238037,8.404418945,1,0,0,-17.25238037,8.404418945,1,0,0,0,37,37,75,1,,,,,,,,
,,,,,,,,,,,,,FF,,,,,,,,1.2341,,,,,,,,,,,,,,,,,,,,,,60fdb19cd9af60d495e15453,61036d59b6b0254c353273db,2021-07-29_23h09.33.379,Simcolourproject_2stim_asymm_v5,2020.2.10,MacIntel,60,61025ae37ef11b136ea224fe,,,,,,,,,2150,77.06262207,-58.45196533,1,0,0,response3disk,,5,6.721008301,-12.39459229,1,0,0,rectangle,6.721008301,-12.39459229,1,0,0,6.721008301,-12.39459229,1,0,0,0,38,38,110,1,,,,,,,,
,,,,,,,,,,,,,FF,,,,,,,,0.9668,,,,,,,,,,,,,,,,,,,,,,60fdb19cd9af60d495e15453,61036d59b6b0254c353273db,2021-07-29_23h09.33.379,Simcolourproject_2stim_asymm_v5,2020.2.10,MacIntel,60,61025ae37ef11b136ea224fe,,,,,,,,,2686,53.49291992,-68.16223145,1,0,0,response3disk,,4,7.606811523,-13.171875,1,0,0,rectangle,7.606811523,-13.171875,1,0,0,7.606811523,-13.171875,1,0,0,0,39,39,102,1,,,,,,,,
,,,,,,,,,,,,,FF,,,,,,,,0.8177,,,,,,,,,,,,,,,,,,,,,,60fdb19cd9af60d495e15453,61036d59b6b0254c353273db,2021-07-29_23h09.33.379,Simcolourproject_2stim_asymm_v5,2020.2.10,MacIntel,60,61025ae37ef11b136ea224fe,,,,,,,,,3434,-67.10650635,37.35577393,1,0,0,response7disk,,1,1.253662109,8.396118164,1,0,0,rectangle,1.253662109,8.396118164,1,0,0,1.253662109,8.396118164,1,0,0,0,40,40,17,1,,,,,,,,
,,,,,,,,,,,,,FF,,,,,,,,0.7997,,,,,,,,,,,,,,,,,,,,,,60fdb19cd9af60d495e15453,61036d59b6b0254c353273db,2021-07-29_23h09.33.379,Simcolourproject_2stim_asymm_v5,2020.2.10,MacIntel,60,61025ae37ef11b136ea224fe,,,,,,,,,110,-71.71368408,-26.48336792,1,0,0,response5disk,,2,2.884521484,-7.732727051,1,0,0,rectangle,2.884521484,-7.732727051,1,0,0,2.884521484,-7.732727051,1,0,0,0,41,41,145,1,,,,,,,,
,,,,,,,,,,,,,FF,,,,,,,,0.9507,,,,,,,,,,,,,,,,,,,,,,60fdb19cd9af60d495e15453,61036d59b6b0254c353273db,2021-07-29_23h09.33.379,Simcolourproject_2stim_asymm_v5,2020.2.10,MacIntel,60,61025ae37ef11b136ea224fe,,,,,,,,,722,-69.41943359,18.29995728,1,0,0,response7disk,,1,-1.746154785,3.612976074,1,0,0,rectangle,-1.746154785,3.612976074,1,0,0,-1.746154785,3.612976074,1,0,0,0,42,42,107,1,,,,,,,,
,,,,,,,,,,,,,FF,,,,,,,,1.9319,,,,,,,,,,,,,,,,,,,,,,60fdb19cd9af60d495e15453,61036d59b6b0254c353273db,2021-07-29_23h09.33.379,Simcolourproject_2stim_asymm_v5,2020.2.10,MacIntel,60,61025ae37ef11b136ea224fe,,,,,,,,,3790,74.22949219,-25.83526611,1,0,0,response3disk,,5,9.89855957,-3.206787109,1,0,0,rectangle,9.89855957,-3.206787109,1,0,0,9.89855957,-3.206787109,1,0,0,0,43,43,91,1,,,,,,,,
,,,,,,,,,,,,,FF,,,,,,,,0.783,,,,,,,,,,,,,,,,,,,,,,60fdb19cd9af60d495e15453,61036d59b6b0254c353273db,2021-07-29_23h09.33.379,Simcolourproject_2stim_asymm_v5,2020.2.10,MacIntel,60,61025ae37ef11b136ea224fe,,,,,,,,,659,36.46887207,-72.00524902,1,0,0,response3disk,,4,14.82562256,-6.943756104,1,0,0,rectangle,14.82562256,-6.943756104,1,0,0,14.82562256,-6.943756104,1,0,0,0,44,44,159,1,,,,,,,,
,,,,,,,,,,,,,FF,,,,,,,,1.3826,,,,,,,,,,,,,,,,,,,,,,60fdb19cd9af60d495e15453,61036d59b6b0254c353273db,2021-07-29_23h09.33.379,Simcolourproject_2stim_asymm_v5,2020.2.10,MacIntel,60,61025ae37ef11b136ea224fe,,,,,,,,,3517,-54.64044189,17.61660767,1,0,0,response7disk,,1,3.764831543,3.333404541,1,0,0,rectangle,3.764831543,3.333404541,1,0,0,3.764831543,3.333404541,1,0,0,0,45,45,52,1,,,,,,,,
,,,,,,,,,,,,,FF,,,,,,,,1.5016,,,,,,,,,,,,,,,,,,,,,,60fdb19cd9af60d495e15453,61036d59b6b0254c353273db,2021-07-29_23h09.33.379,Simcolourproject_2stim_asymm_v5,2020.2.10,MacIntel,60,61025ae37ef11b136ea224fe,,,,,,,,,1163,86.70092773,38.33666992,1,0,0,response1disk,,6,-10.04327393,5.587402344,1,0,0,rectangle,-10.04327393,5.587402344,1,0,0,-10.04327393,5.587402344,1,0,0,0,46,46,60,1,,,,,,,,
,,,,,,,,,,,,,FF,,,,,,,,1.117,,,,,,,,,,,,,,,,,,,,,,60fdb19cd9af60d495e15453,61036d59b6b0254c353273db,2021-07-29_23h09.33.379,Simcolourproject_2stim_asymm_v5,2020.2.10,MacIntel,60,61025ae37ef11b136ea224fe,,,,,,,,,2173,-43.4911499,-77.61340332,1,0,0,response5disk,,3,1.381103516,-0.839660645,1,0,0,rectangle,1.381103516,-0.839660645,1,0,0,1.381103516,-0.839660645,1,0,0,0,47,47,150,1,,,,,,,,
,,,,,,,,,,,,,FF,,,,,,,,1.067,,,,,,,,,,,,,,,,,,,,,,60fdb19cd9af60d495e15453,61036d59b6b0254c353273db,2021-07-29_23h09.33.379,Simcolourproject_2stim_asymm_v5,2020.2.10,MacIntel,60,61025ae37ef11b136ea224fe,,,,,,,,,3827,68.21844482,-23.91018677,1,0,0,response3disk,,5,6.301208496,-0.606445313,1,0,0,rectangle,-36.07849121,61.5480957,1,0,0,-5.708984375,-8.428619385,1,0,0,0,48,48,32,1,,response7disk_3,TRUE,0,0,"[56,158,266,224,49,27,314,88,164,222,11,99,235,127,10,170,272,82,13,15]",1.6163,rectangle
,,,,,,,,,,,,,FF,,,,,,,,2.0344,,,,,,,,,,,,,,,,,,,,,,60fdb19cd9af60d495e15453,61036d59b6b0254c353273db,2021-07-29_23h09.33.379,Simcolourproject_2stim_asymm_v5,2020.2.10,MacIntel,60,61025ae37ef11b136ea224fe,,,,,,,,,4086,-45.97802734,-71.31744385,1,0,0,response5disk,,3,-20.03552246,-13.11102295,1,0,0,rectangle,-20.03552246,-13.11102295,1,0,0,-20.03552246,-13.11102295,1,0,0,0,49,49,15,1,,,,,,,,
,,,,,,,,,,,,,FF,,,,,,,,1.1507,,,,,,,,,,,,,,,,,,,,,,60fdb19cd9af60d495e15453,61036d59b6b0254c353273db,2021-07-29_23h09.33.379,Simcolourproject_2stim_asymm_v5,2020.2.10,MacIntel,60,61025ae37ef11b136ea224fe,,,,,,,,,999,68.32409668,-43.71795654,1,0,0,response3disk,,5,12.98754883,-11.3296814,1,0,0,rectangle,12.98754883,-11.3296814,1,0,0,12.98754883,-11.3296814,1,0,0,0,50,50,45,1,,,,,,,,
,,,,,,,,,,,,,FF,,,,,,,,0.8837,,,,,,,,,,,,,,,,,,,,,,60fdb19cd9af60d495e15453,61036d59b6b0254c353273db,2021-07-29_23h09.33.379,Simcolourproject_2stim_asymm_v5,2020.2.10,MacIntel,60,61025ae37ef11b136ea224fe,,,,,,,,,2872,78.84289551,37.6600647,1,0,0,response1disk,,6,17.11956787,6.005157471,1,0,0,rectangle,17.11956787,6.005157471,1,0,0,17.11956787,6.005157471,1,0,0,0,51,51,80,1,,,,,,,,
,,,,,,,,,,,,,FF,,,,,,,,0.9342,,,,,,,,,,,,,,,,,,,,,,60fdb19cd9af60d495e15453,61036d59b6b0254c353273db,2021-07-29_23h09.33.379,Simcolourproject_2stim_asymm_v5,2020.2.10,MacIntel,60,61025ae37ef11b136ea224fe,,,,,,,,,611,-72.52355957,-32.41296387,1,0,0,response5disk,,2,8.527099609,-10.22763062,1,0,0,rectangle,8.527099609,-10.22763062,1,0,0,8.527099609,-10.22763062,1,0,0,0,52,52,23,1,,,,,,,,
,,,,,,,,,,,,,FF,,,,,,,,1.1825,,,,,,,,,,,,,,,,,,,,,,60fdb19cd9af60d495e15453,61036d59b6b0254c353273db,2021-07-29_23h09.33.379,Simcolourproject_2stim_asymm_v5,2020.2.10,MacIntel,60,61025ae37ef11b136ea224fe,,,,,,,,,1198,65.72918701,-31.46008301,1,0,0,response3disk,,5,-4.274108887,-5.529876709,1,0,0,rectangle,-4.274108887,-5.529876709,1,0,0,-4.274108887,-5.529876709,1,0,0,0,53,53,158,1,,,,,,,,
,,,,,,,,,,,,,FF,,,,,,,,1.3676,,,,,,,,,,,,,,,,,,,,,,60fdb19cd9af60d495e15453,61036d59b6b0254c353273db,2021-07-29_23h09.33.379,Simcolourproject_2stim_asymm_v5,2020.2.10,MacIntel,60,61025ae37ef11b136ea224fe,,,,,,,,,3948,-35.03271484,-71.03271484,1,0,0,response5disk,,3,0.903503418,-6.263519287,1,0,0,rectangle,0.903503418,-6.263519287,1,0,0,0.903503418,-6.263519287,1,0,0,0,54,54,130,1,,,,,,,,
,,,,,,,,,,,,,FF,,,,,,,,1.3507,,,,,,,,,,,,,,,,,,,,,,60fdb19cd9af60d495e15453,61036d59b6b0254c353273db,2021-07-29_23h09.33.379,Simcolourproject_2stim_asymm_v5,2020.2.10,MacIntel,60,61025ae37ef11b136ea224fe,,,,,,,,,950,27.79827881,-74.25646973,1,0,0,response3disk,,4,6.577026367,-7.283447266,1,0,0,rectangle,-62.60992432,31.11315918,1,0,0,-8.840087891,-4.129119873,1,0,0,0,55,55,36,1,,response7disk_3,TRUE,1,1,"[56,158,266,224,49,27,314,88,164,222,11,99,235,127,10,170,272,82,13,15]",1.3152,rectangle
,,,,,,,,,,,,,FF,,,,,,,,1.3166,,,,,,,,,,,,,,,,,,,,,,60fdb19cd9af60d495e15453,61036d59b6b0254c353273db,2021-07-29_23h09.33.379,Simcolourproject_2stim_asymm_v5,2020.2.10,MacIntel,60,61025ae37ef11b136ea224fe,,,,,,,,,666,39.37316895,-64.2557373,1,0,0,response3disk,,4,5.619934082,-1.80847168,1,0,0,rectangle,5.619934082,-1.80847168,1,0,0,5.619934082,-1.80847168,1,0,0,0,56,56,49,1,,,,,,,,
,,,,,,,,,,,,,FF,,,,,,,,0.8504,,,,,,,,,,,,,,,,,,,,,,60fdb19cd9af60d495e15453,61036d59b6b0254c353273db,2021-07-29_23h09.33.379,Simcolourproject_2stim_asymm_v5,2020.2.10,MacIntel,60,61025ae37ef11b136ea224fe,,,,,,,,,2722,-71.84594727,-36.40621948,1,0,0,response5disk,,2,13.16656494,-6.149902344,1,0,0,rectangle,13.16656494,-6.149902344,1,0,0,13.16656494,-6.149902344,1,0,0,0,57,57,76,1,,,,,,,,
,,,,,,,,,,,,,FF,,,,,,,,1.9663,,,,,,,,,,,,,,,,,,,,,,60fdb19cd9af60d495e15453,61036d59b6b0254c353273db,2021-07-29_23h09.33.379,Simcolourproject_2stim_asymm_v5,2020.2.10,MacIntel,60,61025ae37ef11b136ea224fe,,,,,,,,,920,48.90588379,-78.45330811,1,0,0,response3disk,,4,7.481689453,-10.19543457,1,0,0,rectangle,7.481689453,-10.19543457,1,0,0,7.481689453,-10.19543457,1,0,0,0,58,58,66,1,,,,,,,,
,,,,,,,,,,,,,FF,,,,,,,,0.984,,,,,,,,,,,,,,,,,,,,,,60fdb19cd9af60d495e15453,61036d59b6b0254c353273db,2021-07-29_23h09.33.379,Simcolourproject_2stim_asymm_v5,2020.2.10,MacIntel,60,61025ae37ef11b136ea224fe,,,,,,,,,2703,69.8682251,46.69598389,1,0,0,response1disk,,6,17.20947266,-5.670349121,1,0,0,rectangle,17.20947266,-5.670349121,1,0,0,17.20947266,-5.670349121,1,0,0,0,59,59,29,1,,,,,,,,
,,,,,,,,,,,,,FF,,,,,,,,0.784,,,,,,,,,,,,,,,,,,,,,,60fdb19cd9af60d495e15453,61036d59b6b0254c353273db,2021-07-29_23h09.33.379,Simcolourproject_2stim_asymm_v5,2020.2.10,MacIntel,60,61025ae37ef11b136ea224fe,,,,,,,,,2031,-61.84960938,27.71594238,1,0,0,response7disk,,1,-2.72088623,-3.411560059,1,0,0,rectangle,-2.72088623,-3.411560059,1,0,0,-2.72088623,-3.411560059,1,0,0,0,60,60,93,1,,,,,,,,
,,,,,,,,,,,,,FF,,,,,,,,0.7831,,,,,,,,,,,,,,,,,,,,,,60fdb19cd9af60d495e15453,61036d59b6b0254c353273db,2021-07-29_23h09.33.379,Simcolourproject_2stim_asymm_v5,2020.2.10,MacIntel,60,61025ae37ef11b136ea224fe,,,,,,,,,2666,-60.66790771,-31.25582886,1,0,0,response5disk,,2,-19.02166748,-4.922302246,1,0,0,rectangle,-19.02166748,-4.922302246,1,0,0,-19.02166748,-4.922302246,1,0,0,0,61,61,61,1,,,,,,,,
,,,,,,,,,,,,,FF,,,,,,,,0.6344,,,,,,,,,,,,,,,,,,,,,,60fdb19cd9af60d495e15453,61036d59b6b0254c353273db,2021-07-29_23h09.33.379,Simcolourproject_2stim_asymm_v5,2020.2.10,MacIntel,60,61025ae37ef11b136ea224fe,,,,,,,,,531,-62.23376465,20.79724121,1,0,0,response7disk,,1,0.422729492,-1.025024414,1,0,0,rectangle,0.422729492,-1.025024414,1,0,0,0.422729492,-1.025024414,1,0,0,0,62,62,30,1,,,,,,,,
,,,,,,,,,,,,,FF,,,,,,,,1.1658,,,,,,,,,,,,,,,,,,,,,,60fdb19cd9af60d495e15453,61036d59b6b0254c353273db,2021-07-29_23h09.33.379,Simcolourproject_2stim_asymm_v5,2020.2.10,MacIntel,60,61025ae37ef11b136ea224fe,,,,,,,,,3254,41.80688477,-78.02441406,1,0,0,response3disk,,4,8.047058105,-4.580322266,1,0,0,rectangle,8.047058105,-4.580322266,1,0,0,8.047058105,-4.580322266,1,0,0,0,63,63,82,1,,,,,,,,
,,,,,,,,,,,,,FF,,,,,,,,1.1677,,,,,,,,,,,,,,,,,,,,,,60fdb19cd9af60d495e15453,61036d59b6b0254c353273db,2021-07-29_23h09.33.379,Simcolourproject_2stim_asymm_v5,2020.2.10,MacIntel,60,61025ae37ef11b136ea224fe,,,,,,,,,3422,-69.8371582,37.40921021,1,0,0,response7disk,,1,0.544555664,-4.721740723,1,0,0,rectangle,0.544555664,-4.721740723,1,0,0,0.544555664,-4.721740723,1,0,0,0,64,64,48,1,,,,,,,,
,,,,,,,,,,,,,FF,,,,,,,,0.8334,,,,,,,,,,,,,,,,,,,,,,60fdb19cd9af60d495e15453,61036d59b6b0254c353273db,2021-07-29_23h09.33.379,Simcolourproject_2stim_asymm_v5,2020.2.10,MacIntel,60,61025ae37ef11b136ea224fe,,,,,,,,,1396,-59.93597412,-37.12445068,1,0,0,response5disk,,2,-11.30480957,-7.224304199,1,0,0,rectangle,-11.30480957,-7.224304199,1,0,0,-11.30480957,-7.224304199,1,0,0,0,65,65,33,1,,,,,,,,
,,,,,,,,,,,,,FF,,,,,,,,1.1834,,,,,,,,,,,,,,,,,,,,,,60fdb19cd9af60d495e15453,61036d59b6b0254c353273db,2021-07-29_23h09.33.379,Simcolourproject_2stim_asymm_v5,2020.2.10,MacIntel,60,61025ae37ef11b136ea224fe,,,,,,,,,454,39.07336426,-84.30664063,1,0,0,response3disk,,4,0.962890625,-2.635559082,1,0,0,rectangle,0.962890625,-2.635559082,1,0,0,0.962890625,-2.635559082,1,0,0,0,66,66,18,1,,,,,,,,
,,,,,,,,,,,,,FF,,,,,,,,0.9006,,,,,,,,,,,,,,,,,,,,,,60fdb19cd9af60d495e15453,61036d59b6b0254c353273db,2021-07-29_23h09.33.379,Simcolourproject_2stim_asymm_v5,2020.2.10,MacIntel,60,61025ae37ef11b136ea224fe,,,,,,,,,2486,-68.23596191,39.20458984,1,0,0,response7disk,,1,-5.513549805,6.679138184,1,0,0,rectangle,-5.513549805,6.679138184,1,0,0,-5.513549805,6.679138184,1,0,0,0,67,67,7,1,,,,,,,,
,,,,,,,,,,,,,FF,,,,,,,,1.2841,,,,,,,,,,,,,,,,,,,,,,60fdb19cd9af60d495e15453,61036d59b6b0254c353273db,2021-07-29_23h09.33.379,Simcolourproject_2stim_asymm_v5,2020.2.10,MacIntel,60,61025ae37ef11b136ea224fe,,,,,,,,,3265,62.61621094,-54.01824951,1,0,0,response3disk,,5,-1.408935547,-6.350219727,1,0,0,rectangle,-1.408935547,-6.350219727,1,0,0,-1.408935547,-6.350219727,1,0,0,0,68,68,26,1,,,,,,,,
,,,,,,,,,,,,,FF,,,,,,,,0.9326,,,,,,,,,,,,,,,,,,,,,,60fdb19cd9af60d495e15453,61036d59b6b0254c353273db,2021-07-29_23h09.33.379,Simcolourproject_2stim_asymm_v5,2020.2.10,MacIntel,60,61025ae37ef11b136ea224fe,,,,,,,,,411,89.54187012,31.67733765,1,0,0,response1disk,,6,8.228027344,-9.442810059,1,0,0,rectangle,8.228027344,-9.442810059,1,0,0,8.228027344,-9.442810059,1,0,0,0,69,69,46,1,,,,,,,,
,,,,,,,,,,,,,FF,,,,,,,,1.1663,,,,,,,,,,,,,,,,,,,,,,60fdb19cd9af60d495e15453,61036d59b6b0254c353273db,2021-07-29_23h09.33.379,Simcolourproject_2stim_asymm_v5,2020.2.10,MacIntel,60,61025ae37ef11b136ea224fe,,,,,,,,,3621,72.30651855,-52.50897217,1,0,0,response3disk,,5,-1.443725586,-5.995300293,1,0,0,rectangle,-1.443725586,-5.995300293,1,0,0,-1.443725586,-5.995300293,1,0,0,0,70,70,125,1,,,,,,,,
,,,,,,,,,,,,,FF,,,,,,,,1.0151,,,,,,,,,,,,,,,,,,,,,,60fdb19cd9af60d495e15453,61036d59b6b0254c353273db,2021-07-29_23h09.33.379,Simcolourproject_2stim_asymm_v5,2020.2.10,MacIntel,60,61025ae37ef11b136ea224fe,,,,,,,,,384,21.62133789,76.46914673,1,0,0,response1disk,,7,13.83599854,-2.203491211,1,0,0,rectangle,13.83599854,-2.203491211,1,0,0,13.83599854,-2.203491211,1,0,0,0,71,71,44,1,,,,,,,,
,,,,,,,,,,,,,FF,,,,,,,,0.8499,,,,,,,,,,,,,,,,,,,,,,60fdb19cd9af60d495e15453,61036d59b6b0254c353273db,2021-07-29_23h09.33.379,Simcolourproject_2stim_asymm_v5,2020.2.10,MacIntel,60,61025ae37ef11b136ea224fe,,,,,,,,,2819,71.86584473,51.93041992,1,0,0,response1disk,,6,17.77130127,-7.577575684,1,0,0,rectangle,17.77130127,-7.577575684,1,0,0,17.77130127,-7.577575684,1,0,0,0,72,72,43,1,,,,,,,,
,,,,,,,,,,,,,FF,,,,,,,,1.1833,,,,,,,,,,,,,,,,,,,,,,60fdb19cd9af60d495e15453,61036d59b6b0254c353273db,2021-07-29_23h09.33.379,Simcolourproject_2stim_asymm_v5,2020.2.10,MacIntel,60,61025ae37ef11b136ea224fe,,,,,,,,,3738,32.2098999,-78.14569092,1,0,0,response3disk,,4,5.815002441,-6.008178711,1,0,0,rectangle,5.815002441,-6.008178711,1,0,0,5.815002441,-6.008178711,1,0,0,0,73,73,65,1,,,,,,,,
,,,,,,,,,,,,,FF,,,,,,,,0.8507,,,,,,,,,,,,,,,,,,,,,,60fdb19cd9af60d495e15453,61036d59b6b0254c353273db,2021-07-29_23h09.33.379,Simcolourproject_2stim_asymm_v5,2020.2.10,MacIntel,60,61025ae37ef11b136ea224fe,,,,,,,,,2811,86.8883667,35.02740479,1,0,0,response1disk,,6,10.37207031,4.37701416,1,0,0,rectangle,10.37207031,4.37701416,1,0,0,10.37207031,4.37701416,1,0,0,0,74,74,14,1,,,,,,,,
,,,,,,,,,,,,,FF,,,,,,,,1.3165,,,,,,,,,,,,,,,,,,,,,,60fdb19cd9af60d495e15453,61036d59b6b0254c353273db,2021-07-29_23h09.33.379,Simcolourproject_2stim_asymm_v5,2020.2.10,MacIntel,60,61025ae37ef11b136ea224fe,,,,,,,,,3854,41.30529785,-84.7142334,1,0,0,response3disk,,4,11.84851074,0.703186035,1,0,0,rectangle,11.84851074,0.703186035,1,0,0,11.84851074,0.703186035,1,0,0,0,75,75,137,1,,,,,,,,
,,,,,,,,,,,,,FF,,,,,,,,1.149,,,,,,,,,,,,,,,,,,,,,,60fdb19cd9af60d495e15453,61036d59b6b0254c353273db,2021-07-29_23h09.33.379,Simcolourproject_2stim_asymm_v5,2020.2.10,MacIntel,60,61025ae37ef11b136ea224fe,,,,,,,,,1316,-76.28094482,-22.80871582,1,0,0,response5disk,,2,-0.015197754,-10.76919556,1,0,0,rectangle,-0.015197754,-10.76919556,1,0,0,-0.015197754,-10.76919556,1,0,0,0,76,76,11,1,,,,,,,,
,,,,,,,,,,,,,FF,,,,,,,,0.951,,,,,,,,,,,,,,,,,,,,,,60fdb19cd9af60d495e15453,61036d59b6b0254c353273db,2021-07-29_23h09.33.379,Simcolourproject_2stim_asymm_v5,2020.2.10,MacIntel,60,61025ae37ef11b136ea224fe,,,,,,,,,3924,-58.49157715,-26.83001709,1,0,0,response5disk,,2,6.275390625,-17.12713623,1,0,0,rectangle,6.275390625,-17.12713623,1,0,0,6.275390625,-17.12713623,1,0,0,0,77,77,123,1,,,,,,,,
,,,,,,,,,,,,,FF,,,,,,,,1.0504,,,,,,,,,,,,,,,,,,,,,,60fdb19cd9af60d495e15453,61036d59b6b0254c353273db,2021-07-29_23h09.33.379,Simcolourproject_2stim_asymm_v5,2020.2.10,MacIntel,60,61025ae37ef11b136ea224fe,,,,,,,,,706,-74.09710693,-42.91845703,1,0,0,response5disk,,2,11.1348877,-4.655151367,1,0,0,rectangle,11.1348877,-4.655151367,1,0,0,11.1348877,-4.655151367,1,0,0,0,78,78,147,1,,,,,,,,
,,,,,,,,,,,,,FF,,,,,,,,0.8658,,,,,,,,,,,,,,,,,,,,,,60fdb19cd9af60d495e15453,61036d59b6b0254c353273db,2021-07-29_23h09.33.379,Simcolourproject_2stim_asymm_v5,2020.2.10,MacIntel,60,61025ae37ef11b136ea224fe,,,,,,,,,2484,-77.66540527,13.42211914,1,0,0,response7disk,,1,-8.761779785,-1.44644165,1,0,0,rectangle,-8.761779785,-1.44644165,1,0,0,-8.761779785,-1.44644165,1,0,0,0,79,79,0,1,,,,,,,,
,,,,,,,,,,,,,FF,,,,,,,,1.3174,,,,,,,,,,,,,,,,,,,,,,60fdb19cd9af60d495e15453,61036d59b6b0254c353273db,2021-07-29_23h09.33.379,Simcolourproject_2stim_asymm_v5,2020.2.10,MacIntel,60,61025ae37ef11b136ea224fe,,,,,,,,,1481,69.03045654,-37.77429199,1,0,0,response3disk,,5,15.4765625,5.761260986,1,0,0,rectangle,15.4765625,5.761260986,1,0,0,15.4765625,5.761260986,1,0,0,0,80,80,129,1,,,,,,,,
,,,,,,,,,,,,,FF,,,,,,,,0.9481,,,,,,,,,,,,,,,,,,,,,,60fdb19cd9af60d495e15453,61036d59b6b0254c353273db,2021-07-29_23h09.33.379,Simcolourproject_2stim_asymm_v5,2020.2.10,MacIntel,60,61025ae37ef11b136ea224fe,,,,,,,,,987,26.68286133,-71.0100708,1,0,0,response3disk,,4,-6.742004395,-2.330383301,1,0,0,rectangle,-28.60772705,82.72918701,1,0,0,1.93572998,5.326599121,1,0,0,0,81,81,103,1,,response7disk_3,TRUE,0,0,"[56,158,266,224,49,27,314,88,164,222,11,99,235,127,10,170,272,82,13,15]",1.5501,rectangle
,,,,,,,,,,,,,FF,,,,,,,,0.8999,,,,,,,,,,,,,,,,,,,,,,60fdb19cd9af60d495e15453,61036d59b6b0254c353273db,2021-07-29_23h09.33.379,Simcolourproject_2stim_asymm_v5,2020.2.10,MacIntel,60,61025ae37ef11b136ea224fe,,,,,,,,,3495,-25.43457031,-77.56085205,1,0,0,response5disk,,3,-0.541931152,-4.168762207,1,0,0,rectangle,-0.541931152,-4.168762207,1,0,0,-0.541931152,-4.168762207,1,0,0,0,82,82,22,1,,,,,,,,
,,,,,,,,,,,,,FF,,,,,,,,0.9156,,,,,,,,,,,,,,,,,,,,,,60fdb19cd9af60d495e15453,61036d59b6b0254c353273db,2021-07-29_23h09.33.379,Simcolourproject_2stim_asymm_v5,2020.2.10,MacIntel,60,61025ae37ef11b136ea224fe,,,,,,,,,1339,33.11175537,-76.25817871,1,0,0,response3disk,,4,5.892944336,2.03805542,1,0,0,rectangle,5.892944336,2.03805542,1,0,0,5.892944336,2.03805542,1,0,0,0,83,83,100,1,,,,,,,,
,,,,,,,,,,,,,FF,,,,,,,,0.8329,,,,,,,,,,,,,,,,,,,,,,60fdb19cd9af60d495e15453,61036d59b6b0254c353273db,2021-07-29_23h09.33.379,Simcolourproject_2stim_asymm_v5,2020.2.10,MacIntel,60,61025ae37ef11b136ea224fe,,,,,,,,,1418,40.71929932,-74.4621582,1,0,0,response3disk,,4,4.803466797,-2.697601318,1,0,0,rectangle,4.803466797,-2.697601318,1,0,0,4.803466797,-2.697601318,1,0,0,0,84,84,57,1,,,,,,,,
,,,,,,,,,,,,,FF,,,,,,,,0.8153,,,,,,,,,,,,,,,,,,,,,,60fdb19cd9af60d495e15453,61036d59b6b0254c353273db,2021-07-29_23h09.33.379,Simcolourproject_2stim_asymm_v5,2020.2.10,MacIntel,60,61025ae37ef11b136ea224fe,,,,,,,,,2512,65.76385498,-30.86688232,1,0,0,response3disk,,5,2.952453613,-0.637573242,1,0,0,rectangle,2.952453613,-0.637573242,1,0,0,2.952453613,-0.637573242,1,0,0,0,85,85,118,1,,,,,,,,
,,,,,,,,,,,,,FF,,,,,,,,1.3177,,,,,,,,,,,,,,,,,,,,,,60fdb19cd9af60d495e15453,61036d59b6b0254c353273db,2021-07-29_23h09.33.379,Simcolourproject_2stim_asymm_v5,2020.2.10,MacIntel,60,61025ae37ef11b136ea224fe,,,,,,,,,3487,-35.43615723,-87.50823975,1,0,0,response5disk,,3,0.47442627,-14.47320557,1,0,0,rectangle,0.47442627,-14.47320557,1,0,0,0.47442627,-14.47320557,1,0,0,0,86,86,35,1,,,,,,,,
,,,,,,,,,,,,,FF,,,,,,,,0.9998,,,,,,,,,,,,,,,,,,,,,,60fdb19cd9af60d495e15453,61036d59b6b0254c353273db,2021-07-29_23h09.33.379,Simcolourproject_2stim_asymm_v5,2020.2.10,MacIntel,60,61025ae37ef11b136ea224fe,,,,,,,,,3928,38.17950439,-65.08728027,1,0,0,response3disk,,4,8.153076172,-11.87997437,1,0,0,rectangle,37.25,-86.12780762,1,0,0,4.418762207,-6.510375977,1,0,0,0,87,87,146,1,,response3disk_3,TRUE,4,4,"[56,158,266,224,49,27,314,88,164,222,11,99,235,127,10,170,272,82,13,15]",1.7165,rectangle
,,,,,,,,,,,,,FF,,,,,,,,1.283,,,,,,,,,,,,,,,,,,,,,,60fdb19cd9af60d495e15453,61036d59b6b0254c353273db,2021-07-29_23h09.33.379,Simcolourproject_2stim_asymm_v5,2020.2.10,MacIntel,60,61025ae37ef11b136ea224fe,,,,,,,,,1327,54.75317383,-35.29382324,1,0,0,response3disk,,5,1.317321777,-4.980957031,1,0,0,rectangle,1.317321777,-4.980957031,1,0,0,1.317321777,-4.980957031,1,0,0,0,88,88,135,1,,,,,,,,
,,,,,,,,,,,,,FF,,,,,,,,0.9667,,,,,,,,,,,,,,,,,,,,,,60fdb19cd9af60d495e15453,61036d59b6b0254c353273db,2021-07-29_23h09.33.379,Simcolourproject_2stim_asymm_v5,2020.2.10,MacIntel,60,61025ae37ef11b136ea224fe,,,,,,,,,1632,28.89379883,-66.51092529,1,0,0,response3disk,,4,-6.755371094,-4.683532715,1,0,0,rectangle,-6.755371094,-4.683532715,1,0,0,-6.755371094,-4.683532715,1,0,0,0,89,89,113,1,,,,,,,,
,,,,,,,,,,,,,FF,,,,,,,,1.3506,,,,,,,,,,,,,,,,,,,,,,60fdb19cd9af60d495e15453,61036d59b6b0254c353273db,2021-07-29_23h09.33.379,Simcolourproject_2stim_asymm_v5,2020.2.10,MacIntel,60,61025ae37ef11b136ea224fe,,,,,,,,,1509,74.94744873,29.5838623,1,0,0,response1disk,,6,3.777709961,5.409667969,1,0,0,rectangle,3.777709961,5.409667969,1,0,0,3.777709961,5.409667969,1,0,0,0,90,90,10,1,,,,,,,,
,,,,,,,,,,,,,FF,,,,,,,,1.2837,,,,,,,,,,,,,,,,,,,,,,60fdb19cd9af60d495e15453,61036d59b6b0254c353273db,2021-07-29_23h09.33.379,Simcolourproject_2stim_asymm_v5,2020.2.10,MacIntel,60,61025ae37ef11b136ea224fe,,,,,,,,,109,71.12689209,-45.01480103,1,0,0,response3disk,,5,-5.552124023,-5.544464111,1,0,0,rectangle,-5.552124023,-5.544464111,1,0,0,-5.552124023,-5.544464111,1,0,0,0,91,91,19,1,,,,,,,,
,,,,,,,,,,,,,FF,,,,,,,,1.7993,,,,,,,,,,,,,,,,,,,,,,60fdb19cd9af60d495e15453,61036d59b6b0254c353273db,2021-07-29_23h09.33.379,Simcolourproject_2stim_asymm_v5,2020.2.10,MacIntel,60,61025ae37ef11b136ea224fe,,,,,,,,,1409,87.25592041,49.43310547,1,0,0,response1disk,,6,-15.63751221,-11.25894165,1,0,0,rectangle,-15.63751221,-11.25894165,1,0,0,-15.63751221,-11.25894165,1,0,0,0,92,92,24,1,,,,,,,,
,,,,,,,,,,,,,FF,,,,,,,,0.8504,,,,,,,,,,,,,,,,,,,,,,60fdb19cd9af60d495e15453,61036d59b6b0254c353273db,2021-07-29_23h09.33.379,Simcolourproject_2stim_asymm_v5,2020.2.10,MacIntel,60,61025ae37ef11b136ea224fe,,,,,,,,,745,57.01574707,-38.57946777,1,0,0,response3disk,,5,13.52368164,-12.89480591,1,0,0,rectangle,13.52368164,-12.89480591,1,0,0,13.52368164,-12.89480591,1,0,0,0,93,93,116,1,,,,,,,,
,,,,,,,,,,,,,FF,,,,,,,,1.0157,,,,,,,,,,,,,,,,,,,,,,60fdb19cd9af60d495e15453,61036d59b6b0254c353273db,2021-07-29_23h09.33.379,Simcolourproject_2stim_asymm_v5,2020.2.10,MacIntel,60,61025ae37ef11b136ea224fe,,,,,,,,,3664,22.63409424,-58.86300659,1,0,0,response3disk,,4,9.499816895,-2.219299316,1,0,0,rectangle,9.499816895,-2.219299316,1,0,0,9.499816895,-2.219299316,1,0,0,0,94,94,31,1,,,,,,,,
,,,,,,,,,,,,,FF,,,,,,,,0.8322,,,,,,,,,,,,,,,,,,,,,,60fdb19cd9af60d495e15453,61036d59b6b0254c353273db,2021-07-29_23h09.33.379,Simcolourproject_2stim_asymm_v5,2020.2.10,MacIntel,60,61025ae37ef11b136ea224fe,,,,,,,,,4076,-69.16711426,38.69622803,1,0,0,response7disk,,1,-4.791687012,5.466552734,1,0,0,rectangle,-4.791687012,5.466552734,1,0,0,-4.791687012,5.466552734,1,0,0,0,95,95,97,1,,,,,,,,
,,,,,,,,,,,,,FF,,,,,,,,0.9838,,,,,,,,,,,,,,,,,,,,,,60fdb19cd9af60d495e15453,61036d59b6b0254c353273db,2021-07-29_23h09.33.379,Simcolourproject_2stim_asymm_v5,2020.2.10,MacIntel,60,61025ae37ef11b136ea224fe,,,,,,,,,1760,-68.83062744,-37.74627686,1,0,0,response5disk,,2,-3.162536621,-9.553527832,1,0,0,rectangle,-3.162536621,-9.553527832,1,0,0,-3.162536621,-9.553527832,1,0,0,0,96,96,84,1,,,,,,,,
,,,,,,,,,,,,,FF,,,,,,,,1.5664,,,,,,,,,,,,,,,,,,,,,,60fdb19cd9af60d495e15453,61036d59b6b0254c353273db,2021-07-29_23h09.33.379,Simcolourproject_2stim_asymm_v5,2020.2.10,MacIntel,60,61025ae37ef11b136ea224fe,,,,,,,,,3264,77.12182617,42.24868774,1,0,0,response1disk,,6,13.50793457,0.23034668,1,0,0,rectangle,13.50793457,0.23034668,1,0,0,13.50793457,0.23034668,1,0,0,0,97,97,92,1,,,,,,,,
,,,,,,,,,,,,,FF,,,,,,,,1.0168,,,,,,,,,,,,,,,,,,,,,,60fdb19cd9af60d495e15453,61036d59b6b0254c353273db,2021-07-29_23h09.33.379,Simcolourproject_2stim_asymm_v5,2020.2.10,MacIntel,60,61025ae37ef11b136ea224fe,,,,,,,,,1616,-41.93438721,-74.54016113,1,0,0,response5disk,,3,-1.43560791,3.468994141,1,0,0,rectangle,43.64086914,-80.9230957,1,0,0,-2.74230957,0.358276367,1,0,0,0,98,98,8,1,,response3disk_3,TRUE,4,4,"[56,158,266,224,49,27,314,88,164,222,11,99,235,127,10,170,272,82,13,15]",1.5,rectangle
,,,,,,,,,,,,,FF,,,,,,,,0.9167,,,,,,,,,,,,,,,,,,,,,,60fdb19cd9af60d495e15453,61036d59b6b0254c353273db,2021-07-29_23h09.33.379,Simcolourproject_2stim_asymm_v5,2020.2.10,MacIntel,60,61025ae37ef11b136ea224fe,,,,,,,,,752,69.32354736,-40.08728027,1,0,0,response3disk,,5,-12.10339355,-3.589599609,1,0,0,rectangle,-12.10339355,-3.589599609,1,0,0,-12.10339355,-3.589599609,1,0,0,0,99,99,154,1,,,,,,,,
,,,,,,,,,,,,,FF,,,,,,,,1.1329,,,,,,,,,,,,,,,,,,,,,,60fdb19cd9af60d495e15453,61036d59b6b0254c353273db,2021-07-29_23h09.33.379,Simcolourproject_2stim_asymm_v5,2020.2.10,MacIntel,60,61025ae37ef11b136ea224fe,,,,,,,,,840,52.07714844,-28.75463867,1,0,0,response3disk,,5,10.59771729,-10.17889404,1,0,0,rectangle,10.59771729,-10.17889404,1,0,0,10.59771729,-10.17889404,1,0,0,0,100,100,41,1,,,,,,,,
,,,,,,,,,,,,,FF,,,,,,,,1.1507,,,,,,,,,,,,,,,,,,,,,,60fdb19cd9af60d495e15453,61036d59b6b0254c353273db,2021-07-29_23h09.33.379,Simcolourproject_2stim_asymm_v5,2020.2.10,MacIntel,60,61025ae37ef11b136ea224fe,,,,,,,,,4066,-38.17248535,-66.88879395,1,0,0,response5disk,,3,3.848999023,-5.03012085,1,0,0,rectangle,3.848999023,-5.03012085,1,0,0,3.848999023,-5.03012085,1,0,0,0,101,101,79,1,,,,,,,,
,,,,,,,,,,,,,FF,,,,,,,,0.9004,,,,,,,,,,,,,,,,,,,,,,60fdb19cd9af60d495e15453,61036d59b6b0254c353273db,2021-07-29_23h09.33.379,Simcolourproject_2stim_asymm_v5,2020.2.10,MacIntel,60,61025ae37ef11b136ea224fe,,,,,,,,,3053,-71.81750488,-26.75817871,1,0,0,response5disk,,2,1.979370117,-11.27597046,1,0,0,rectangle,1.979370117,-11.27597046,1,0,0,1.979370117,-11.27597046,1,0,0,0,102,102,144,1,,,,,,,,
,,,,,,,,,,,,,FF,,,,,,,,0.9661,,,,,,,,,,,,,,,,,,,,,,60fdb19cd9af60d495e15453,61036d59b6b0254c353273db,2021-07-29_23h09.33.379,Simcolourproject_2stim_asymm_v5,2020.2.10,MacIntel,60,61025ae37ef11b136ea224fe,,,,,,,,,4284,50.25061035,73.07907104,1,0,0,response1disk,,7,11.57104492,5.839447021,1,0,0,rectangle,11.57104492,5.839447021,1,0,0,11.57104492,5.839447021,1,0,0,0,103,103,133,1,,,,,,,,
,,,,,,,,,,,,,FF,,,,,,,,1.5505,,,,,,,,,,,,,,,,,,,,,,60fdb19cd9af60d495e15453,61036d59b6b0254c353273db,2021-07-29_23h09.33.379,Simcolourproject_2stim_asymm_v5,2020.2.10,MacIntel,60,61025ae37ef11b136ea224fe,,,,,,,,,4149,-67.6081543,-51.8397522,1,0,0,response5disk,,2,13.35876465,-5.422668457,1,0,0,rectangle,13.35876465,-5.422668457,1,0,0,13.35876465,-5.422668457,1,0,0,0,104,104,38,1,,,,,,,,
,,,,,,,,,,,,,FF,,,,,,,,1.117,,,,,,,,,,,,,,,,,,,,,,60fdb19cd9af60d495e15453,61036d59b6b0254c353273db,2021-07-29_23h09.33.379,Simcolourproject_2stim_asymm_v5,2020.2.10,MacIntel,60,61025ae37ef11b136ea224fe,,,,,,,,,1106,61.41162109,42.04272461,1,0,0,response1disk,,6,-2.174865723,7.823608398,1,0,0,rectangle,-2.174865723,7.823608398,1,0,0,-2.174865723,7.823608398,1,0,0,0,105,105,122,1,,,,,,,,
,,,,,,,,,,,,,FF,,,,,,,,1.5669,,,,,,,,,,,,,,,,,,,,,,60fdb19cd9af60d495e15453,61036d59b6b0254c353273db,2021-07-29_23h09.33.379,Simcolourproject_2stim_asymm_v5,2020.2.10,MacIntel,60,61025ae37ef11b136ea224fe,,,,,,,,,3043,64.26049805,-32.24383545,1,0,0,response3disk,,5,-3.20501709,-6.497406006,1,0,0,rectangle,-3.20501709,-6.497406006,1,0,0,-3.20501709,-6.497406006,1,0,0,0,106,106,95,1,,,,,,,,
,,,,,,,,,,,,,FF,,,,,,,,1.2344,,,,,,,,,,,,,,,,,,,,,,60fdb19cd9af60d495e15453,61036d59b6b0254c353273db,2021-07-29_23h09.33.379,Simcolourproject_2stim_asymm_v5,2020.2.10,MacIntel,60,61025ae37ef11b136ea224fe,,,,,,,,,1043,-35.72808838,-72.10961914,1,0,0,response5disk,,3,1.425415039,0.33682251,1,0,0,rectangle,1.425415039,0.33682251,1,0,0,1.425415039,0.33682251,1,0,0,0,107,107,50,1,,,,,,,,
,,,,,,,,,,,,,FF,,,,,,,,0.8328,,,,,,,,,,,,,,,,,,,,,,60fdb19cd9af60d495e15453,61036d59b6b0254c353273db,2021-07-29_23h09.33.379,Simcolourproject_2stim_asymm_v5,2020.2.10,MacIntel,60,61025ae37ef11b136ea224fe,,,,,,,,,3228,62.68670654,-22.13739014,1,0,0,response3disk,,5,9.225646973,-9.361572266,1,0,0,rectangle,9.225646973,-9.361572266,1,0,0,9.225646973,-9.361572266,1,0,0,0,108,108,68,1,,,,,,,,
,,,,,,,,,,,,,FF,,,,,,,,0.7321,,,,,,,,,,,,,,,,,,,,,,60fdb19cd9af60d495e15453,61036d59b6b0254c353273db,2021-07-29_23h09.33.379,Simcolourproject_2stim_asymm_v5,2020.2.10,MacIntel,60,61025ae37ef11b136ea224fe,,,,,,,,,3473,-78.92059326,21.15374756,1,0,0,response7disk,,1,-1.901184082,7.68347168,1,0,0,rectangle,-1.901184082,7.68347168,1,0,0,-1.901184082,7.68347168,1,0,0,0,109,109,70,1,,,,,,,,
,,,,,,,,,,,,,FF,,,,,,,,1.1166,,,,,,,,,,,,,,,,,,,,,,60fdb19cd9af60d495e15453,61036d59b6b0254c353273db,2021-07-29_23h09.33.379,Simcolourproject_2stim_asymm_v5,2020.2.10,MacIntel,60,61025ae37ef11b136ea224fe,,,,,,,,,1359,36.48254395,-77.4420166,1,0,0,response3disk,,4,11.13305664,-1.423400879,1,0,0,rectangle,11.13305664,-1.423400879,1,0,0,11.13305664,-1.423400879,1,0,0,0,110,110,141,1,,,,,,,,
,,,,,,,,,,,,,FF,,,,,,,,0.9504,,,,,,,,,,,,,,,,,,,,,,60fdb19cd9af60d495e15453,61036d59b6b0254c353273db,2021-07-29_23h09.33.379,Simcolourproject_2stim_asymm_v5,2020.2.10,MacIntel,60,61025ae37ef11b136ea224fe,,,,,,,,,640,-55.99017334,-69.17230225,1,0,0,response5disk,,3,-23.35839844,11.36886597,1,0,0,rectangle,-23.35839844,11.36886597,1,0,0,-23.35839844,11.36886597,1,0,0,0,111,111,37,1,,,,,,,,
,,,,,,,,,,,,,FF,,,,,,,,1.0999,,,,,,,,,,,,,,,,,,,,,,60fdb19cd9af60d495e15453,61036d59b6b0254c353273db,2021-07-29_23h09.33.379,Simcolourproject_2stim_asymm_v5,2020.2.10,MacIntel,60,61025ae37ef11b136ea224fe,,,,,,,,,1889,-83.18139648,-22.22869873,1,0,0,response5disk,,2,-2.599853516,1.815429688,1,0,0,rectangle,-2.599853516,1.815429688,1,0,0,-2.599853516,1.815429688,1,0,0,0,112,112,39,1,,,,,,,,
,,,,,,,,,,,,,FF,,,,,,,,0.7842,,,,,,,,,,,,,,,,,,,,,,60fdb19cd9af60d495e15453,61036d59b6b0254c353273db,2021-07-29_23h09.33.379,Simcolourproject_2stim_asymm_v5,2020.2.10,MacIntel,60,61025ae37ef11b136ea224fe,,,,,,,,,543,-25.15216064,74.1541748,1,0,0,response7disk,,0,6.577819824,-3.61529541,1,0,0,rectangle,6.577819824,-3.61529541,1,0,0,6.577819824,-3.61529541,1,0,0,0,113,113,157,1,,,,,,,,
,,,,,,,,,,,,,FF,,,,,,,,3.2006,,,,,,,,,,,,,,,,,,,,,,60fdb19cd9af60d495e15453,61036d59b6b0254c353273db,2021-07-29_23h09.33.379,Simcolourproject_2stim_asymm_v5,2020.2.10,MacIntel,60,61025ae37ef11b136ea224fe,,,,,,,,,959,16.27233887,-74.26373291,1,0,0,response3disk,,4,2.012023926,5.265197754,1,0,0,rectangle,2.012023926,5.265197754,1,0,0,2.012023926,5.265197754,1,0,0,0,114,114,51,1,,,,,,,,
,,,,,,,,,,,,,FF,,,,,,,,1.6491,,,,,,,,,,,,,,,,,,,,,,60fdb19cd9af60d495e15453,61036d59b6b0254c353273db,2021-07-29_23h09.33.379,Simcolourproject_2stim_asymm_v5,2020.2.10,MacIntel,60,61025ae37ef11b136ea224fe,,,,,,,,,4015,38.28619385,-65.46228027,1,0,0,response3disk,,4,11.20330811,-3.245452881,1,0,0,rectangle,11.20330811,-3.245452881,1,0,0,11.20330811,-3.245452881,1,0,0,0,115,115,108,1,,,,,,,,
,,,,,,,,,,,,,FF,,,,,,,,1.5824,,,,,,,,,,,,,,,,,,,,,,60fdb19cd9af60d495e15453,61036d59b6b0254c353273db,2021-07-29_23h09.33.379,Simcolourproject_2stim_asymm_v5,2020.2.10,MacIntel,60,61025ae37ef11b136ea224fe,,,,,,,,,1883,76.09124756,-29.50994873,1,0,0,response3disk,,5,-1.043579102,-4.59362793,1,0,0,rectangle,-1.043579102,-4.59362793,1,0,0,-1.043579102,-4.59362793,1,0,0,0,116,116,140,1,,,,,,,,
,,,,,,,,,,,,,FF,,,,,,,,0.8008,,,,,,,,,,,,,,,,,,,,,,60fdb19cd9af60d495e15453,61036d59b6b0254c353273db,2021-07-29_23h09.33.379,Simcolourproject_2stim_asymm_v5,2020.2.10,MacIntel,60,61025ae37ef11b136ea224fe,,,,,,,,,3811,-70.75640869,40.99740601,1,0,0,response7disk,,1,-14.57165527,7.977813721,1,0,0,rectangle,-14.57165527,7.977813721,1,0,0,-14.57165527,7.977813721,1,0,0,0,117,117,142,1,,,,,,,,
,,,,,,,,,,,,,FF,,,,,,,,0.8007,,,,,,,,,,,,,,,,,,,,,,60fdb19cd9af60d495e15453,61036d59b6b0254c353273db,2021-07-29_23h09.33.379,Simcolourproject_2stim_asymm_v5,2020.2.10,MacIntel,60,61025ae37ef11b136ea224fe,,,,,,,,,3987,-44.45507813,-74.94567871,1,0,0,response5disk,,3,11.79907227,-12.1194458,1,0,0,rectangle,11.79907227,-12.1194458,1,0,0,11.79907227,-12.1194458,1,0,0,0,118,118,5,1,,,,,,,,
,,,,,,,,,,,,,FF,,,,,,,,1.2663,,,,,,,,,,,,,,,,,,,,,,60fdb19cd9af60d495e15453,61036d59b6b0254c353273db,2021-07-29_23h09.33.379,Simcolourproject_2stim_asymm_v5,2020.2.10,MacIntel,60,61025ae37ef11b136ea224fe,,,,,,,,,859,42.29370117,72.50256348,1,0,0,response1disk,,7,4.479125977,0.802856445,1,0,0,rectangle,4.479125977,0.802856445,1,0,0,4.479125977,0.802856445,1,0,0,0,119,119,28,1,,,,,,,,
,,,,,,,,,,,,,FF,,,,,,,,1.0848,,,,,,,,,,,,,,,,,,,,,,60fdb19cd9af60d495e15453,61036d59b6b0254c353273db,2021-07-29_23h09.33.379,Simcolourproject_2stim_asymm_v5,2020.2.10,MacIntel,60,61025ae37ef11b136ea224fe,,,,,,,,,3850,-80.03192139,17.28778076,1,0,0,response7disk,,1,-8.914672852,13.90380859,1,0,0,rectangle,-8.914672852,13.90380859,1,0,0,-8.914672852,13.90380859,1,0,0,0,120,120,101,1,,,,,,,,
,,,,,,,,,,,,,FF,,,,,,,,2.3165,,,,,,,,,,,,,,,,,,,,,,60fdb19cd9af60d495e15453,61036d59b6b0254c353273db,2021-07-29_23h09.33.379,Simcolourproject_2stim_asymm_v5,2020.2.10,MacIntel,60,61025ae37ef11b136ea224fe,,,,,,,,,1490,58.85797119,-37.54693604,1,0,0,response3disk,,5,14.59820557,-1.035095215,1,0,0,rectangle,14.59820557,-1.035095215,1,0,0,14.59820557,-1.035095215,1,0,0,0,121,121,54,1,,,,,,,,
,,,,,,,,,,,,,FF,,,,,,,,1.1672,,,,,,,,,,,,,,,,,,,,,,60fdb19cd9af60d495e15453,61036d59b6b0254c353273db,2021-07-29_23h09.33.379,Simcolourproject_2stim_asymm_v5,2020.2.10,MacIntel,60,61025ae37ef11b136ea224fe,,,,,,,,,3791,32.43115234,-59.26342773,1,0,0,response3disk,,4,13.25994873,8.169647217,1,0,0,rectangle,13.25994873,8.169647217,1,0,0,13.25994873,8.169647217,1,0,0,0,122,122,127,1,,,,,,,,
,,,,,,,,,,,,,FF,,,,,,,,0.7669,,,,,,,,,,,,,,,,,,,,,,60fdb19cd9af60d495e15453,61036d59b6b0254c353273db,2021-07-29_23h09.33.379,Simcolourproject_2stim_asymm_v5,2020.2.10,MacIntel,60,61025ae37ef11b136ea224fe,,,,,,,,,1749,-63.67889404,-37.67279053,1,0,0,response5disk,,2,-0.620422363,8.129669189,1,0,0,rectangle,-0.620422363,8.129669189,1,0,0,-0.620422363,8.129669189,1,0,0,0,123,123,131,1,,,,,,,,
,,,,,,,,,,,,,FF,,,,,,,,0.9823,,,,,,,,,,,,,,,,,,,,,,60fdb19cd9af60d495e15453,61036d59b6b0254c353273db,2021-07-29_23h09.33.379,Simcolourproject_2stim_asymm_v5,2020.2.10,MacIntel,60,61025ae37ef11b136ea224fe,,,,,,,,,3246,-31.42126465,-71.7442627,1,0,0,response5disk,,3,0.333435059,4.762451172,1,0,0,rectangle,0.333435059,4.762451172,1,0,0,0.333435059,4.762451172,1,0,0,0,124,124,6,1,,,,,,,,
,,,,,,,,,,,,,FF,,,,,,,,1.2837,,,,,,,,,,,,,,,,,,,,,,60fdb19cd9af60d495e15453,61036d59b6b0254c353273db,2021-07-29_23h09.33.379,Simcolourproject_2stim_asymm_v5,2020.2.10,MacIntel,60,61025ae37ef11b136ea224fe,,,,,,,,,357,99.76379395,45.05569458,1,0,0,response1disk,,6,-4.374694824,-4.442382813,1,0,0,rectangle,-4.374694824,-4.442382813,1,0,0,-4.374694824,-4.442382813,1,0,0,0,125,125,63,1,,,,,,,,
,,,,,,,,,,,,,FF,,,,,,,,1.2846,,,,,,,,,,,,,,,,,,,,,,60fdb19cd9af60d495e15453,61036d59b6b0254c353273db,2021-07-29_23h09.33.379,Simcolourproject_2stim_asymm_v5,2020.2.10,MacIntel,60,61025ae37ef11b136ea224fe,,,,,,,,,1079,-38.99273682,-76.72973633,1,0,0,response5disk,,3,-7.407958984,-3.527832031,1,0,0,rectangle,43.11102295,74.55368042,1,0,0,-5.257141113,5.044830322,1,0,0,0,126,126,109,1,,response1disk_3,TRUE,7,7,"[56,158,266,224,49,27,314,88,164,222,11,99,235,127,10,170,272,82,13,15]",1.4832,rectangle
,,,,,,,,,,,,,FF,,,,,,,,1.2494,,,,,,,,,,,,,,,,,,,,,,60fdb19cd9af60d495e15453,61036d59b6b0254c353273db,2021-07-29_23h09.33.379,Simcolourproject_2stim_asymm_v5,2020.2.10,MacIntel,60,61025ae37ef11b136ea224fe,,,,,,,,,3489,57.66003418,-35.10061646,1,0,0,response3disk,,5,-4.121704102,-7.472412109,1,0,0,rectangle,-4.121704102,-7.472412109,1,0,0,-4.121704102,-7.472412109,1,0,0,0,127,127,111,1,,,,,,,,
,,,,,,,,,,,,,FF,,,,,,,,0.7661,,,,,,,,,,,,,,,,,,,,,,60fdb19cd9af60d495e15453,61036d59b6b0254c353273db,2021-07-29_23h09.33.379,Simcolourproject_2stim_asymm_v5,2020.2.10,MacIntel,60,61025ae37ef11b136ea224fe,,,,,,,,,3806,28.53411865,-71.67034912,1,0,0,response3disk,,4,17.72949219,-15.36676025,1,0,0,rectangle,17.72949219,-15.36676025,1,0,0,17.72949219,-15.36676025,1,0,0,0,128,128,87,1,,,,,,,,
,,,,,,,,,,,,,FF,,,,,,,,1.1147,,,,,,,,,,,,,,,,,,,,,,60fdb19cd9af60d495e15453,61036d59b6b0254c353273db,2021-07-29_23h09.33.379,Simcolourproject_2stim_asymm_v5,2020.2.10,MacIntel,60,61025ae37ef11b136ea224fe,,,,,,,,,3640,85.87506104,56.17364502,1,0,0,response1disk,,6,11.59527588,5.850921631,1,0,0,rectangle,11.59527588,5.850921631,1,0,0,11.59527588,5.850921631,1,0,0,0,129,129,58,1,,,,,,,,
,,,,,,,,,,,,,FF,,,,,,,,1.2686,,,,,,,,,,,,,,,,,,,,,,60fdb19cd9af60d495e15453,61036d59b6b0254c353273db,2021-07-29_23h09.33.379,Simcolourproject_2stim_asymm_v5,2020.2.10,MacIntel,60,61025ae37ef11b136ea224fe,,,,,,,,,238,69.78222656,41.28277588,1,0,0,response1disk,,6,2.315368652,11.99902344,1,0,0,rectangle,2.315368652,11.99902344,1,0,0,2.315368652,11.99902344,1,0,0,0,130,130,73,1,,,,,,,,
,,,,,,,,,,,,,FF,,,,,,,,0.7676,,,,,,,,,,,,,,,,,,,,,,60fdb19cd9af60d495e15453,61036d59b6b0254c353273db,2021-07-29_23h09.33.379,Simcolourproject_2stim_asymm_v5,2020.2.10,MacIntel,60,61025ae37ef11b136ea224fe,,,,,,,,,3044,29.97875977,57.55401611,1,0,0,response1disk,,7,11.61816406,13.66577148,1,0,0,rectangle,11.61816406,13.66577148,1,0,0,11.61816406,13.66577148,1,0,0,0,131,131,155,1,,,,,,,,
,,,,,,,,,,,,,FF,,,,,,,,0.9678,,,,,,,,,,,,,,,,,,,,,,60fdb19cd9af60d495e15453,61036d59b6b0254c353273db,2021-07-29_23h09.33.379,Simcolourproject_2stim_asymm_v5,2020.2.10,MacIntel,60,61025ae37ef11b136ea224fe,,,,,,,,,2394,36.65698242,63.94250488,1,0,0,response1disk,,7,2.073608398,-2.993774414,1,0,0,rectangle,2.073608398,-2.993774414,1,0,0,2.073608398,-2.993774414,1,0,0,0,132,132,88,1,,,,,,,,
,,,,,,,,,,,,,FF,,,,,,,,0.6673,,,,,,,,,,,,,,,,,,,,,,60fdb19cd9af60d495e15453,61036d59b6b0254c353273db,2021-07-29_23h09.33.379,Simcolourproject_2stim_asymm_v5,2020.2.10,MacIntel,60,61025ae37ef11b136ea224fe,,,,,,,,,407,37.33905029,79.90979004,1,0,0,response1disk,,7,8.228515625,5.227508545,1,0,0,rectangle,8.228515625,5.227508545,1,0,0,8.228515625,5.227508545,1,0,0,0,133,133,9,1,,,,,,,,
,,,,,,,,,,,,,FF,,,,,,,,1.8837,,,,,,,,,,,,,,,,,,,,,,60fdb19cd9af60d495e15453,61036d59b6b0254c353273db,2021-07-29_23h09.33.379,Simcolourproject_2stim_asymm_v5,2020.2.10,MacIntel,60,61025ae37ef11b136ea224fe,,,,,,,,,4133,42.45733643,59.02093506,1,0,0,response1disk,,7,1.650634766,7.983398438,1,0,0,rectangle,1.650634766,7.983398438,1,0,0,1.650634766,7.983398438,1,0,0,0,134,134,34,1,,,,,,,,
,,,,,,,,,,,,,FF,,,,,,,,1.2497,,,,,,,,,,,,,,,,,,,,,,60fdb19cd9af60d495e15453,61036d59b6b0254c353273db,2021-07-29_23h09.33.379,Simcolourproject_2stim_asymm_v5,2020.2.10,MacIntel,60,61025ae37ef11b136ea224fe,,,,,,,,,323,34.0670166,64.55075073,1,0,0,response1disk,,7,2.280944824,-0.668457031,1,0,0,rectangle,2.280944824,-0.668457031,1,0,0,2.280944824,-0.668457031,1,0,0,0,135,135,47,1,,,,,,,,
,,,,,,,,,,,,,FF,,,,,,,,1.167,,,,,,,,,,,,,,,,,,,,,,60fdb19cd9af60d495e15453,61036d59b6b0254c353273db,2021-07-29_23h09.33.379,Simcolourproject_2stim_asymm_v5,2020.2.10,MacIntel,60,61025ae37ef11b136ea224fe,,,,,,,,,2157,65.64904785,-31.62341309,1,0,0,response3disk,,5,-1.332580566,3.628295898,1,0,0,rectangle,-1.332580566,3.628295898,1,0,0,-1.332580566,3.628295898,1,0,0,0,136,136,134,1,,,,,,,,
,,,,,,,,,,,,,FF,,,,,,,,0.8727,,,,,,,,,,,,,,,,,,,,,,60fdb19cd9af60d495e15453,61036d59b6b0254c353273db,2021-07-29_23h09.33.379,Simcolourproject_2stim_asymm_v5,2020.2.10,MacIntel,60,61025ae37ef11b136ea224fe,,,,,,,,,1626,61.79486084,41.90209961,1,0,0,response1disk,,6,-5.639953613,8.77734375,1,0,0,rectangle,-5.639953613,8.77734375,1,0,0,-5.639953613,8.77734375,1,0,0,0,137,137,104,1,,,,,,,,
,,,,,,,,,,,,,FF,,,,,,,,0.984,,,,,,,,,,,,,,,,,,,,,,60fdb19cd9af60d495e15453,61036d59b6b0254c353273db,2021-07-29_23h09.33.379,Simcolourproject_2stim_asymm_v5,2020.2.10,MacIntel,60,61025ae37ef11b136ea224fe,,,,,,,,,4193,22.82525635,-85.06378174,1,0,0,response3disk,,4,19.74023438,-8.36541748,1,0,0,rectangle,19.74023438,-8.36541748,1,0,0,19.74023438,-8.36541748,1,0,0,0,138,138,13,1,,,,,,,,
,,,,,,,,,,,,,FF,,,,,,,,0.7673,,,,,,,,,,,,,,,,,,,,,,60fdb19cd9af60d495e15453,61036d59b6b0254c353273db,2021-07-29_23h09.33.379,Simcolourproject_2stim_asymm_v5,2020.2.10,MacIntel,60,61025ae37ef11b136ea224fe,,,,,,,,,2345,50.01409912,67.93112183,1,0,0,response1disk,,7,4.6484375,-3.072723389,1,0,0,rectangle,4.6484375,-3.072723389,1,0,0,4.6484375,-3.072723389,1,0,0,0,139,139,42,1,,,,,,,,
,,,,,,,,,,,,,FF,,,,,,,,0.9334,,,,,,,,,,,,,,,,,,,,,,60fdb19cd9af60d495e15453,61036d59b6b0254c353273db,2021-07-29_23h09.33.379,Simcolourproject_2stim_asymm_v5,2020.2.10,MacIntel,60,61025ae37ef11b136ea224fe,,,,,,,,,2283,-32.67144775,-70.60070801,1,0,0,response5disk,,3,6.055786133,-0.835571289,1,0,0,rectangle,6.055786133,-0.835571289,1,0,0,6.055786133,-0.835571289,1,0,0,0,140,140,126,1,,,,,,,,
,,,,,,,,,,,,,FF,,,,,,,,1.0501,,,,,,,,,,,,,,,,,,,,,,60fdb19cd9af60d495e15453,61036d59b6b0254c353273db,2021-07-29_23h09.33.379,Simcolourproject_2stim_asymm_v5,2020.2.10,MacIntel,60,61025ae37ef11b136ea224fe,,,,,,,,,2417,69.54449463,-31.9498291,1,0,0,response3disk,,5,-35.38092041,4.87322998,1,0,0,rectangle,-35.38092041,4.87322998,1,0,0,-35.38092041,4.87322998,1,0,0,0,141,141,81,1,,,,,,,,
,,,,,,,,,,,,,FF,,,,,,,,1.0834,,,,,,,,,,,,,,,,,,,,,,60fdb19cd9af60d495e15453,61036d59b6b0254c353273db,2021-07-29_23h09.33.379,Simcolourproject_2stim_asymm_v5,2020.2.10,MacIntel,60,61025ae37ef11b136ea224fe,,,,,,,,,7,-76.79467773,-40.09594727,1,0,0,response5disk,,2,-9.064575195,-7.334411621,1,0,0,rectangle,-9.064575195,-7.334411621,1,0,0,-9.064575195,-7.334411621,1,0,0,0,142,142,86,1,,,,,,,,
,,,,,,,,,,,,,FF,,,,,,,,1.084,,,,,,,,,,,,,,,,,,,,,,60fdb19cd9af60d495e15453,61036d59b6b0254c353273db,2021-07-29_23h09.33.379,Simcolourproject_2stim_asymm_v5,2020.2.10,MacIntel,60,61025ae37ef11b136ea224fe,,,,,,,,,2659,67.62463379,42.05786133,1,0,0,response1disk,,6,7.417480469,2.71875,1,0,0,rectangle,7.417480469,2.71875,1,0,0,7.417480469,2.71875,1,0,0,0,143,143,94,1,,,,,,,,
,,,,,,,,,,,,,FF,,,,,,,,0.8348,,,,,,,,,,,,,,,,,,,,,,60fdb19cd9af60d495e15453,61036d59b6b0254c353273db,2021-07-29_23h09.33.379,Simcolourproject_2stim_asymm_v5,2020.2.10,MacIntel,60,61025ae37ef11b136ea224fe,,,,,,,,,1608,-82.0723877,32.30889893,1,0,0,response7disk,,1,6.708007813,0.069000244,1,0,0,rectangle,6.708007813,0.069000244,1,0,0,6.708007813,0.069000244,1,0,0,0,144,144,115,1,,,,,,,,
,,,,,,,,,,,,,FF,,,,,,,,0.7328,,,,,,,,,,,,,,,,,,,,,,60fdb19cd9af60d495e15453,61036d59b6b0254c353273db,2021-07-29_23h09.33.379,Simcolourproject_2stim_asymm_v5,2020.2.10,MacIntel,60,61025ae37ef11b136ea224fe,,,,,,,,,808,-22.83349609,63.31201172,1,0,0,response7disk,,0,-17.14685059,-8.034179688,1,0,0,rectangle,-17.14685059,-8.034179688,1,0,0,-17.14685059,-8.034179688,1,0,0,0,145,145,1,1,,,,,,,,
,,,,,,,,,,,,,FF,,,,,,,,1.1337,,,,,,,,,,,,,,,,,,,,,,60fdb19cd9af60d495e15453,61036d59b6b0254c353273db,2021-07-29_23h09.33.379,Simcolourproject_2stim_asymm_v5,2020.2.10,MacIntel,60,61025ae37ef11b136ea224fe,,,,,,,,,3206,33.27227783,-68.09039307,1,0,0,response3disk,,4,9.589538574,3.905273438,1,0,0,rectangle,9.589538574,3.905273438,1,0,0,9.589538574,3.905273438,1,0,0,0,146,146,114,1,,,,,,,,
,,,,,,,,,,,,,FF,,,,,,,,0.7838,,,,,,,,,,,,,,,,,,,,,,60fdb19cd9af60d495e15453,61036d59b6b0254c353273db,2021-07-29_23h09.33.379,Simcolourproject_2stim_asymm_v5,2020.2.10,MacIntel,60,61025ae37ef11b136ea224fe,,,,,,,,,3842,57.72894287,35.34048462,1,0,0,response1disk,,6,-2.07800293,9.508575439,1,0,0,rectangle,-2.07800293,9.508575439,1,0,0,-2.07800293,9.508575439,1,0,0,0,147,147,59,1,,,,,,,,
,,,,,,,,,,,,,FF,,,,,,,,1.3346,,,,,,,,,,,,,,,,,,,,,,60fdb19cd9af60d495e15453,61036d59b6b0254c353273db,2021-07-29_23h09.33.379,Simcolourproject_2stim_asymm_v5,2020.2.10,MacIntel,60,61025ae37ef11b136ea224fe,,,,,,,,,1880,-38.70275879,-85.8371582,1,0,0,response5disk,,3,0.382629395,-6.659240723,1,0,0,rectangle,0.382629395,-6.659240723,1,0,0,0.382629395,-6.659240723,1,0,0,0,148,148,21,1,,,,,,,,
,,,,,,,,,,,,,FF,,,,,,,,1.0165,,,,,,,,,,,,,,,,,,,,,,60fdb19cd9af60d495e15453,61036d59b6b0254c353273db,2021-07-29_23h09.33.379,Simcolourproject_2stim_asymm_v5,2020.2.10,MacIntel,60,61025ae37ef11b136ea224fe,,,,,,,,,2766,84.39038086,53.1583252,1,0,0,response1disk,,6,5.462463379,5.181762695,1,0,0,rectangle,5.462463379,5.181762695,1,0,0,5.462463379,5.181762695,1,0,0,0,149,149,139,1,,,,,,,,
,,,,,,,,,,,,,FF,,,,,,,,1.0161,,,,,,,,,,,,,,,,,,,,,,60fdb19cd9af60d495e15453,61036d59b6b0254c353273db,2021-07-29_23h09.33.379,Simcolourproject_2stim_asymm_v5,2020.2.10,MacIntel,60,61025ae37ef11b136ea224fe,,,,,,,,,3498,22.87042236,87.01583862,1,0,0,response1disk,,7,-0.427001953,2.166442871,1,0,0,rectangle,-0.427001953,2.166442871,1,0,0,-0.427001953,2.166442871,1,0,0,0,150,150,71,1,,,,,,,,
,,,,,,,,,,,,,FF,,,,,,,,1.3171,,,,,,,,,,,,,,,,,,,,,,60fdb19cd9af60d495e15453,61036d59b6b0254c353273db,2021-07-29_23h09.33.379,Simcolourproject_2stim_asymm_v5,2020.2.10,MacIntel,60,61025ae37ef11b136ea224fe,,,,,,,,,3166,-41.60943604,-81.0602417,1,0,0,response5disk,,3,-2.141784668,-6.297973633,1,0,0,rectangle,-2.141784668,-6.297973633,1,0,0,-2.141784668,-6.297973633,1,0,0,0,151,151,153,1,,,,,,,,
,,,,,,,,,,,,,FF,,,,,,,,1.4679,,,,,,,,,,,,,,,,,,,,,,60fdb19cd9af60d495e15453,61036d59b6b0254c353273db,2021-07-29_23h09.33.379,Simcolourproject_2stim_asymm_v5,2020.2.10,MacIntel,60,61025ae37ef11b136ea224fe,,,,,,,,,1651,53.625,72.82556152,1,0,0,response1disk,,7,12.44146729,-0.422363281,1,0,0,rectangle,12.44146729,-0.422363281,1,0,0,12.44146729,-0.422363281,1,0,0,0,152,152,156,1,,,,,,,,
,,,,,,,,,,,,,FF,,,,,,,,1.1337,,,,,,,,,,,,,,,,,,,,,,60fdb19cd9af60d495e15453,61036d59b6b0254c353273db,2021-07-29_23h09.33.379,Simcolourproject_2stim_asymm_v5,2020.2.10,MacIntel,60,61025ae37ef11b136ea224fe,,,,,,,,,1836,-27.3550415,-63.90930176,1,0,0,response5disk,,3,1.856811523,1.945556641,1,0,0,rectangle,1.856811523,1.945556641,1,0,0,1.856811523,1.945556641,1,0,0,0,153,153,77,1,,,,,,,,
,,,,,,,,,,,,,FF,,,,,,,,0.9492,,,,,,,,,,,,,,,,,,,,,,60fdb19cd9af60d495e15453,61036d59b6b0254c353273db,2021-07-29_23h09.33.379,Simcolourproject_2stim_asymm_v5,2020.2.10,MacIntel,60,61025ae37ef11b136ea224fe,,,,,,,,,34,39.79699707,50.50384521,1,0,0,response1disk,,7,-10.68865967,-15.21490479,1,0,0,rectangle,-10.68865967,-15.21490479,1,0,0,-10.68865967,-15.21490479,1,0,0,0,154,154,27,1,,,,,,,,
,,,,,,,,,,,,,FF,,,,,,,,0.8002,,,,,,,,,,,,,,,,,,,,,,60fdb19cd9af60d495e15453,61036d59b6b0254c353273db,2021-07-29_23h09.33.379,Simcolourproject_2stim_asymm_v5,2020.2.10,MacIntel,60,61025ae37ef11b136ea224fe,,,,,,,,,2181,-64.48834229,-45.88409424,1,0,0,response5disk,,2,5.244750977,1.906402588,1,0,0,rectangle,5.244750977,1.906402588,1,0,0,5.244750977,1.906402588,1,0,0,0,155,155,83,1,,,,,,,,
,,,,,,,,,,,,,FF,,,,,,,,1.218,,,,,,,,,,,,,,,,,,,,,,60fdb19cd9af60d495e15453,61036d59b6b0254c353273db,2021-07-29_23h09.33.379,Simcolourproject_2stim_asymm_v5,2020.2.10,MacIntel,60,61025ae37ef11b136ea224fe,,,,,,,,,3873,91.3215332,-27.57446289,1,0,0,response3disk,,5,-3.424926758,-2.228149414,1,0,0,rectangle,-3.424926758,-2.228149414,1,0,0,-3.424926758,-2.228149414,1,0,0,0,156,156,53,1,,,,,,,,
,,,,,,,,,,,,,FF,,,,,,,,1.5004,,,,,,,,,,,,,,,,,,,,,,60fdb19cd9af60d495e15453,61036d59b6b0254c353273db,2021-07-29_23h09.33.379,Simcolourproject_2stim_asymm_v5,2020.2.10,MacIntel,60,61025ae37ef11b136ea224fe,,,,,,,,,1845,34.54785156,-79.74188232,1,0,0,response3disk,,4,14.60339355,-11.9050293,1,0,0,rectangle,-46.60430908,-72.55621338,1,0,0,13.24639893,-7.373443604,1,0,0,0,157,157,25,1,,response5disk_3,TRUE,3,3,"[56,158,266,224,49,27,314,88,164,222,11,99,235,127,10,170,272,82,13,15]",1.3495,rectangle
,,,,,,,,,,,,,FF,,,,,,,,1.1344,,,,,,,,,,,,,,,,,,,,,,60fdb19cd9af60d495e15453,61036d59b6b0254c353273db,2021-07-29_23h09.33.379,Simcolourproject_2stim_asymm_v5,2020.2.10,MacIntel,60,61025ae37ef11b136ea224fe,,,,,,,,,3443,-34.48504639,-78.76477051,1,0,0,response5disk,,3,-13.54785156,-6.703125,1,0,0,rectangle,-13.54785156,-6.703125,1,0,0,-13.54785156,-6.703125,1,0,0,0,158,158,12,1,,,,,,,,
,,,,,,,,,,,,,FF,,,,,,,,0.95,,,,,,,,,,,,,,,,,,,,,,60fdb19cd9af60d495e15453,61036d59b6b0254c353273db,2021-07-29_23h09.33.379,Simcolourproject_2stim_asymm_v5,2020.2.10,MacIntel,60,61025ae37ef11b136ea224fe,,,,,,,,,678,75.08569336,34.23327637,1,0,0,response1disk,,6,16.46704102,-11.12652588,1,0,0,rectangle,16.46704102,-11.12652588,1,0,0,16.46704102,-11.12652588,1,0,0,0,159,159,16,1,,,,,,,,
,,,,,,,,,,,,,FF,,,,,,,,0.7338,,,,,,,,,,,,,,,,,,,,,,60fdb19cd9af60d495e15453,61036d59b6b0254c353273db,2021-07-29_23h09.33.379,Simcolourproject_2stim_asymm_v5,2020.2.10,MacIntel,60,61025ae37ef11b136ea224fe,,,,,,,,,2389,71.94494629,50.33062744,1,0,0,response1disk,,6,2.029785156,5.120269775,1,0,0,rectangle,2.029785156,5.120269775,1,0,0,2.029785156,5.120269775,1,0,0,1,0,160,21,1,,,,,,,,
,,,,,,,,,,,,,FF,,,,,,,,0.6495,,,,,,,,,,,,,,,,,,,,,,60fdb19cd9af60d495e15453,61036d59b6b0254c353273db,2021-07-29_23h09.33.379,Simcolourproject_2stim_asymm_v5,2020.2.10,MacIntel,60,61025ae37ef11b136ea224fe,,,,,,,,,4326,-28.75030518,80.67474365,1,0,0,response7disk,,0,7.591369629,-3.001739502,1,0,0,rectangle,7.591369629,-3.001739502,1,0,0,7.591369629,-3.001739502,1,0,0,1,1,161,135,1,,,,,,,,
,,,,,,,,,,,,,FF,,,,,,,,1.0008,,,,,,,,,,,,,,,,,,,,,,60fdb19cd9af60d495e15453,61036d59b6b0254c353273db,2021-07-29_23h09.33.379,Simcolourproject_2stim_asymm_v5,2020.2.10,MacIntel,60,61025ae37ef11b136ea224fe,,,,,,,,,4240,-71.87231445,-20.12506104,1,0,0,response5disk,,2,2.160949707,5.669006348,1,0,0,rectangle,2.160949707,5.669006348,1,0,0,2.160949707,5.669006348,1,0,0,1,2,162,4,1,,,,,,,,
,,,,,,,,,,,,,FF,,,,,,,,0.5988,,,,,,,,,,,,,,,,,,,,,,60fdb19cd9af60d495e15453,61036d59b6b0254c353273db,2021-07-29_23h09.33.379,Simcolourproject_2stim_asymm_v5,2020.2.10,MacIntel,60,61025ae37ef11b136ea224fe,,,,,,,,,630,-36.96405029,75.3180542,1,0,0,response7disk,,0,-22.98272705,11.92910767,1,0,0,rectangle,44.13702393,-16.97961426,1,0,0,-12.34033203,11.97851563,1,0,0,1,3,163,121,1,,response3disk_3,TRUE,5,5,"[56,158,266,224,49,27,314,88,164,222,11,99,235,127,10,170,272,82,13,15]",1.466,rectangle
,,,,,,,,,,,,,FF,,,,,,,,1.3502,,,,,,,,,,,,,,,,,,,,,,60fdb19cd9af60d495e15453,61036d59b6b0254c353273db,2021-07-29_23h09.33.379,Simcolourproject_2stim_asymm_v5,2020.2.10,MacIntel,60,61025ae37ef11b136ea224fe,,,,,,,,,795,-67.13421631,-25.17663574,1,0,0,response5disk,,2,-5.973754883,4.20880127,1,0,0,rectangle,-5.973754883,4.20880127,1,0,0,-5.973754883,4.20880127,1,0,0,1,4,164,61,1,,,,,,,,
,,,,,,,,,,,,,FF,,,,,,,,0.7164,,,,,,,,,,,,,,,,,,,,,,60fdb19cd9af60d495e15453,61036d59b6b0254c353273db,2021-07-29_23h09.33.379,Simcolourproject_2stim_asymm_v5,2020.2.10,MacIntel,60,61025ae37ef11b136ea224fe,,,,,,,,,2775,-24.59448242,54.81512451,1,0,0,response7disk,,0,-13.69439697,13.07928467,1,0,0,rectangle,-13.69439697,13.07928467,1,0,0,-13.69439697,13.07928467,1,0,0,1,5,165,99,1,,,,,,,,
,,,,,,,,,,,,,FF,,,,,,,,0.9162,,,,,,,,,,,,,,,,,,,,,,60fdb19cd9af60d495e15453,61036d59b6b0254c353273db,2021-07-29_23h09.33.379,Simcolourproject_2stim_asymm_v5,2020.2.10,MacIntel,60,61025ae37ef11b136ea224fe,,,,,,,,,2221,-62.18695068,-36.02661133,1,0,0,response5disk,,2,-13.17144775,-7.861816406,1,0,0,rectangle,-13.17144775,-7.861816406,1,0,0,-13.17144775,-7.861816406,1,0,0,1,6,166,11,1,,,,,,,,
,,,,,,,,,,,,,FF,,,,,,,,0.9167,,,,,,,,,,,,,,,,,,,,,,60fdb19cd9af60d495e15453,61036d59b6b0254c353273db,2021-07-29_23h09.33.379,Simcolourproject_2stim_asymm_v5,2020.2.10,MacIntel,60,61025ae37ef11b136ea224fe,,,,,,,,,691,-50.82635498,-69.66333008,1,0,0,response5disk,,3,-7.038391113,-8.26473999,1,0,0,rectangle,-7.038391113,-8.26473999,1,0,0,-7.038391113,-8.26473999,1,0,0,1,7,167,128,1,,,,,,,,
,,,,,,,,,,,,,FF,,,,,,,,0.6332,,,,,,,,,,,,,,,,,,,,,,60fdb19cd9af60d495e15453,61036d59b6b0254c353273db,2021-07-29_23h09.33.379,Simcolourproject_2stim_asymm_v5,2020.2.10,MacIntel,60,61025ae37ef11b136ea224fe,,,,,,,,,2196,30.09057617,-29.47607422,1,0,0,response3disk,,5,10.64447021,-2.752746582,1,0,0,rectangle,10.64447021,-2.752746582,1,0,0,10.64447021,-2.752746582,1,0,0,1,8,168,44,1,,,,,,,,
,,,,,,,,,,,,,FF,,,,,,,,0.7994,,,,,,,,,,,,,,,,,,,,,,60fdb19cd9af60d495e15453,61036d59b6b0254c353273db,2021-07-29_23h09.33.379,Simcolourproject_2stim_asymm_v5,2020.2.10,MacIntel,60,61025ae37ef11b136ea224fe,,,,,,,,,3981,-57.89971924,-42.30545044,1,0,0,response5disk,,2,-19.2130127,-0.699707031,1,0,0,rectangle,-26.50964355,95.65350342,1,0,0,-5.556884766,9.714813232,1,0,0,1,9,169,123,1,,response7disk_3,TRUE,0,0,"[56,158,266,224,49,27,314,88,164,222,11,99,235,127,10,170,272,82,13,15]",1.2649,rectangle
,,,,,,,,,,,,,FF,,,,,,,,0.9663,,,,,,,,,,,,,,,,,,,,,,60fdb19cd9af60d495e15453,61036d59b6b0254c353273db,2021-07-29_23h09.33.379,Simcolourproject_2stim_asymm_v5,2020.2.10,MacIntel,60,61025ae37ef11b136ea224fe,,,,,,,,,2852,34.98931885,-61.64627075,1,0,0,response3disk,,4,14.85601807,-11.43566895,1,0,0,rectangle,14.85601807,-11.43566895,1,0,0,14.85601807,-11.43566895,1,0,0,1,10,170,22,1,,,,,,,,
,,,,,,,,,,,,,FF,,,,,,,,1.1165,,,,,,,,,,,,,,,,,,,,,,60fdb19cd9af60d495e15453,61036d59b6b0254c353273db,2021-07-29_23h09.33.379,Simcolourproject_2stim_asymm_v5,2020.2.10,MacIntel,60,61025ae37ef11b136ea224fe,,,,,,,,,1630,25.60443115,-67.02746582,1,0,0,response3disk,,4,-0.073486328,10.66619873,1,0,0,rectangle,-0.073486328,10.66619873,1,0,0,-0.073486328,10.66619873,1,0,0,1,11,171,115,1,,,,,,,,
,,,,,,,,,,,,,FF,,,,,,,,1.5172,,,,,,,,,,,,,,,,,,,,,,60fdb19cd9af60d495e15453,61036d59b6b0254c353273db,2021-07-29_23h09.33.379,Simcolourproject_2stim_asymm_v5,2020.2.10,MacIntel,60,61025ae37ef11b136ea224fe,,,,,,,,,623,36.3918457,-64.69854736,1,0,0,response3disk,,4,16.3862915,-4.344543457,1,0,0,rectangle,16.3862915,-4.344543457,1,0,0,16.3862915,-4.344543457,1,0,0,1,12,172,130,1,,,,,,,,
,,,,,,,,,,,,,FF,,,,,,,,0.7834,,,,,,,,,,,,,,,,,,,,,,60fdb19cd9af60d495e15453,61036d59b6b0254c353273db,2021-07-29_23h09.33.379,Simcolourproject_2stim_asymm_v5,2020.2.10,MacIntel,60,61025ae37ef11b136ea224fe,,,,,,,,,3558,-45.9755249,87.15164185,1,0,0,response7disk,,0,8.102783203,-4.954864502,1,0,0,rectangle,8.102783203,-4.954864502,1,0,0,8.102783203,-4.954864502,1,0,0,1,13,173,60,1,,,,,,,,
,,,,,,,,,,,,,FF,,,,,,,,0.9318,,,,,,,,,,,,,,,,,,,,,,60fdb19cd9af60d495e15453,61036d59b6b0254c353273db,2021-07-29_23h09.33.379,Simcolourproject_2stim_asymm_v5,2020.2.10,MacIntel,60,61025ae37ef11b136ea224fe,,,,,,,,,3687,-23.25817871,-68.39013672,1,0,0,response5disk,,3,-1.981872559,-9.250305176,1,0,0,rectangle,-1.981872559,-9.250305176,1,0,0,-1.981872559,-9.250305176,1,0,0,1,14,174,33,1,,,,,,,,
,,,,,,,,,,,,,FF,,,,,,,,1.1841,,,,,,,,,,,,,,,,,,,,,,60fdb19cd9af60d495e15453,61036d59b6b0254c353273db,2021-07-29_23h09.33.379,Simcolourproject_2stim_asymm_v5,2020.2.10,MacIntel,60,61025ae37ef11b136ea224fe,,,,,,,,,597,75.85137939,48.91055298,1,0,0,response1disk,,6,19.22119141,7.035217285,1,0,0,rectangle,19.22119141,7.035217285,1,0,0,19.22119141,7.035217285,1,0,0,1,15,175,74,1,,,,,,,,
,,,,,,,,,,,,,FF,,,,,,,,0.6655,,,,,,,,,,,,,,,,,,,,,,60fdb19cd9af60d495e15453,61036d59b6b0254c353273db,2021-07-29_23h09.33.379,Simcolourproject_2stim_asymm_v5,2020.2.10,MacIntel,60,61025ae37ef11b136ea224fe,,,,,,,,,1007,40.58807373,59.83044434,1,0,0,response1disk,,7,8.03527832,15.03155518,1,0,0,rectangle,8.03527832,15.03155518,1,0,0,8.03527832,15.03155518,1,0,0,1,16,176,77,1,,,,,,,,
,,,,,,,,,,,,,FF,,,,,,,,0.6331,,,,,,,,,,,,,,,,,,,,,,60fdb19cd9af60d495e15453,61036d59b6b0254c353273db,2021-07-29_23h09.33.379,Simcolourproject_2stim_asymm_v5,2020.2.10,MacIntel,60,61025ae37ef11b136ea224fe,,,,,,,,,493,36.47186279,52.03515625,1,0,0,response1disk,,7,11.50115967,7.113769531,1,0,0,rectangle,11.50115967,7.113769531,1,0,0,11.50115967,7.113769531,1,0,0,1,17,177,78,1,,,,,,,,
,,,,,,,,,,,,,FF,,,,,,,,0.8335,,,,,,,,,,,,,,,,,,,,,,60fdb19cd9af60d495e15453,61036d59b6b0254c353273db,2021-07-29_23h09.33.379,Simcolourproject_2stim_asymm_v5,2020.2.10,MacIntel,60,61025ae37ef11b136ea224fe,,,,,,,,,681,62.56170654,30.65771484,1,0,0,response1disk,,6,7.330322266,-11.3135376,1,0,0,rectangle,7.330322266,-11.3135376,1,0,0,7.330322266,-11.3135376,1,0,0,1,18,178,116,1,,,,,,,,
,,,,,,,,,,,,,FF,,,,,,,,0.8666,,,,,,,,,,,,,,,,,,,,,,60fdb19cd9af60d495e15453,61036d59b6b0254c353273db,2021-07-29_23h09.33.379,Simcolourproject_2stim_asymm_v5,2020.2.10,MacIntel,60,61025ae37ef11b136ea224fe,,,,,,,,,450,56.08093262,-33.82940674,1,0,0,response3disk,,5,4.721679688,-1.362518311,1,0,0,rectangle,4.721679688,-1.362518311,1,0,0,4.721679688,-1.362518311,1,0,0,1,19,179,7,1,,,,,,,,
,,,,,,,,,,,,,FF,,,,,,,,0.8002,,,,,,,,,,,,,,,,,,,,,,60fdb19cd9af60d495e15453,61036d59b6b0254c353273db,2021-07-29_23h09.33.379,Simcolourproject_2stim_asymm_v5,2020.2.10,MacIntel,60,61025ae37ef11b136ea224fe,,,,,,,,,627,71.13232422,45.85125732,1,0,0,response1disk,,6,-7.473571777,4.831085205,1,0,0,rectangle,-7.473571777,4.831085205,1,0,0,-7.473571777,4.831085205,1,0,0,1,20,180,140,1,,,,,,,,
,,,,,,,,,,,,,FF,,,,,,,,0.8336,,,,,,,,,,,,,,,,,,,,,,60fdb19cd9af60d495e15453,61036d59b6b0254c353273db,2021-07-29_23h09.33.379,Simcolourproject_2stim_asymm_v5,2020.2.10,MacIntel,60,61025ae37ef11b136ea224fe,,,,,,,,,2791,-40.10296631,-59.71575928,1,0,0,response5disk,,3,4.165283203,5.87612915,1,0,0,rectangle,4.165283203,5.87612915,1,0,0,4.165283203,5.87612915,1,0,0,1,21,181,25,1,,,,,,,,
,,,,,,,,,,,,,FF,,,,,,,,0.7983,,,,,,,,,,,,,,,,,,,,,,60fdb19cd9af60d495e15453,61036d59b6b0254c353273db,2021-07-29_23h09.33.379,Simcolourproject_2stim_asymm_v5,2020.2.10,MacIntel,60,61025ae37ef11b136ea224fe,,,,,,,,,730,-32.07507324,-55.45877075,1,0,0,response5disk,,3,-10.25982666,-6.430389404,1,0,0,rectangle,-10.25982666,-6.430389404,1,0,0,-10.25982666,-6.430389404,1,0,0,1,22,182,43,1,,,,,,,,
,,,,,,,,,,,,,FF,,,,,,,,1.4006,,,,,,,,,,,,,,,,,,,,,,60fdb19cd9af60d495e15453,61036d59b6b0254c353273db,2021-07-29_23h09.33.379,Simcolourproject_2stim_asymm_v5,2020.2.10,MacIntel,60,61025ae37ef11b136ea224fe,,,,,,,,,2471,67.96148682,-40.27301025,1,0,0,response3disk,,5,28.97595215,-15.56140137,1,0,0,rectangle,28.97595215,-15.56140137,1,0,0,28.97595215,-15.56140137,1,0,0,1,23,183,24,1,,,,,,,,
,,,,,,,,,,,,,FF,,,,,,,,0.8671,,,,,,,,,,,,,,,,,,,,,,60fdb19cd9af60d495e15453,61036d59b6b0254c353273db,2021-07-29_23h09.33.379,Simcolourproject_2stim_asymm_v5,2020.2.10,MacIntel,60,61025ae37ef11b136ea224fe,,,,,,,,,2725,-64.3526001,27.4041748,1,0,0,response7disk,,1,-19.08093262,0.03302002,1,0,0,rectangle,-19.08093262,0.03302002,1,0,0,-19.08093262,0.03302002,1,0,0,1,24,184,120,1,,,,,,,,
,,,,,,,,,,,,,FF,,,,,,,,0.5503,,,,,,,,,,,,,,,,,,,,,,60fdb19cd9af60d495e15453,61036d59b6b0254c353273db,2021-07-29_23h09.33.379,Simcolourproject_2stim_asymm_v5,2020.2.10,MacIntel,60,61025ae37ef11b136ea224fe,,,,,,,,,2726,-48.47039795,39.10742188,1,0,0,response7disk,,1,20.98565674,3.970489502,1,0,0,rectangle,20.98565674,3.970489502,1,0,0,20.98565674,3.970489502,1,0,0,1,25,185,15,1,,,,,,,,
,,,,,,,,,,,,,FF,,,,,,,,0.7503,,,,,,,,,,,,,,,,,,,,,,60fdb19cd9af60d495e15453,61036d59b6b0254c353273db,2021-07-29_23h09.33.379,Simcolourproject_2stim_asymm_v5,2020.2.10,MacIntel,60,61025ae37ef11b136ea224fe,,,,,,,,,3852,-48.08911133,-43.02471924,1,0,0,response5disk,,2,6.997253418,0.034362793,1,0,0,rectangle,6.997253418,0.034362793,1,0,0,6.997253418,0.034362793,1,0,0,1,26,186,69,1,,,,,,,,
,,,,,,,,,,,,,FF,,,,,,,,0.6002,,,,,,,,,,,,,,,,,,,,,,60fdb19cd9af60d495e15453,61036d59b6b0254c353273db,2021-07-29_23h09.33.379,Simcolourproject_2stim_asymm_v5,2020.2.10,MacIntel,60,61025ae37ef11b136ea224fe,,,,,,,,,4020,-43.46014404,87.24755859,1,0,0,response7disk,,0,-12.51678467,1.224609375,1,0,0,rectangle,-12.51678467,1.224609375,1,0,0,-12.51678467,1.224609375,1,0,0,1,27,187,151,1,,,,,,,,
,,,,,,,,,,,,,FF,,,,,,,,1.0157,,,,,,,,,,,,,,,,,,,,,,60fdb19cd9af60d495e15453,61036d59b6b0254c353273db,2021-07-29_23h09.33.379,Simcolourproject_2stim_asymm_v5,2020.2.10,MacIntel,60,61025ae37ef11b136ea224fe,,,,,,,,,1139,-50.24121094,-71.03808594,1,0,0,response5disk,,3,1.463317871,-6.008789063,1,0,0,rectangle,1.463317871,-6.008789063,1,0,0,1.463317871,-6.008789063,1,0,0,1,28,188,14,1,,,,,,,,
,,,,,,,,,,,,,FF,,,,,,,,0.8502,,,,,,,,,,,,,,,,,,,,,,60fdb19cd9af60d495e15453,61036d59b6b0254c353273db,2021-07-29_23h09.33.379,Simcolourproject_2stim_asymm_v5,2020.2.10,MacIntel,60,61025ae37ef11b136ea224fe,,,,,,,,,1311,-62.19500732,18.43170166,1,0,0,response7disk,,1,-10.76190186,-1.833709717,1,0,0,rectangle,-10.76190186,-1.833709717,1,0,0,-10.76190186,-1.833709717,1,0,0,1,29,189,86,1,,,,,,,,
,,,,,,,,,,,,,FF,,,,,,,,0.6666,,,,,,,,,,,,,,,,,,,,,,60fdb19cd9af60d495e15453,61036d59b6b0254c353273db,2021-07-29_23h09.33.379,Simcolourproject_2stim_asymm_v5,2020.2.10,MacIntel,60,61025ae37ef11b136ea224fe,,,,,,,,,4000,-56.26422119,23.31634521,1,0,0,response7disk,,1,-7.683654785,7.313354492,1,0,0,rectangle,-7.683654785,7.313354492,1,0,0,-7.683654785,7.313354492,1,0,0,1,30,190,34,1,,,,,,,,
,,,,,,,,,,,,,FF,,,,,,,,0.5674,,,,,,,,,,,,,,,,,,,,,,60fdb19cd9af60d495e15453,61036d59b6b0254c353273db,2021-07-29_23h09.33.379,Simcolourproject_2stim_asymm_v5,2020.2.10,MacIntel,60,61025ae37ef11b136ea224fe,,,,,,,,,805,-50.5355835,26.94360352,1,0,0,response7disk,,1,6.335083008,11.90258789,1,0,0,rectangle,6.335083008,11.90258789,1,0,0,6.335083008,11.90258789,1,0,0,1,31,191,73,1,,,,,,,,
,,,,,,,,,,,,,FF,,,,,,,,1.1159,,,,,,,,,,,,,,,,,,,,,,60fdb19cd9af60d495e15453,61036d59b6b0254c353273db,2021-07-29_23h09.33.379,Simcolourproject_2stim_asymm_v5,2020.2.10,MacIntel,60,61025ae37ef11b136ea224fe,,,,,,,,,1361,-41.89337158,-69.30847168,1,0,0,response5disk,,3,3.349975586,-3.548461914,1,0,0,rectangle,3.349975586,-3.548461914,1,0,0,3.349975586,-3.548461914,1,0,0,1,32,192,124,1,,,,,,,,
,,,,,,,,,,,,,FF,,,,,,,,0.8497,,,,,,,,,,,,,,,,,,,,,,60fdb19cd9af60d495e15453,61036d59b6b0254c353273db,2021-07-29_23h09.33.379,Simcolourproject_2stim_asymm_v5,2020.2.10,MacIntel,60,61025ae37ef11b136ea224fe,,,,,,,,,3286,-29.38769531,-72.64422607,1,0,0,response5disk,,3,14.62701416,4.678894043,1,0,0,rectangle,14.62701416,4.678894043,1,0,0,14.62701416,4.678894043,1,0,0,1,33,193,89,1,,,,,,,,
,,,,,,,,,,,,,FF,,,,,,,,0.7339,,,,,,,,,,,,,,,,,,,,,,60fdb19cd9af60d495e15453,61036d59b6b0254c353273db,2021-07-29_23h09.33.379,Simcolourproject_2stim_asymm_v5,2020.2.10,MacIntel,60,61025ae37ef11b136ea224fe,,,,,,,,,3462,51.16723633,-85.81201172,1,0,0,response3disk,,4,17.49182129,2.033325195,1,0,0,rectangle,17.49182129,2.033325195,1,0,0,17.49182129,2.033325195,1,0,0,1,34,194,125,1,,,,,,,,
,,,,,,,,,,,,,FF,,,,,,,,0.6995,,,,,,,,,,,,,,,,,,,,,,60fdb19cd9af60d495e15453,61036d59b6b0254c353273db,2021-07-29_23h09.33.379,Simcolourproject_2stim_asymm_v5,2020.2.10,MacIntel,60,61025ae37ef11b136ea224fe,,,,,,,,,2795,64.83477783,-35.24615479,1,0,0,response3disk,,5,26.80529785,-2.328704834,1,0,0,rectangle,26.80529785,-2.328704834,1,0,0,26.80529785,-2.328704834,1,0,0,1,35,195,129,1,,,,,,,,
,,,,,,,,,,,,,FF,,,,,,,,0.7183,,,,,,,,,,,,,,,,,,,,,,60fdb19cd9af60d495e15453,61036d59b6b0254c353273db,2021-07-29_23h09.33.379,Simcolourproject_2stim_asymm_v5,2020.2.10,MacIntel,60,61025ae37ef11b136ea224fe,,,,,,,,,2827,-68.67901611,-26.62615967,1,0,0,response5disk,,2,-6.808410645,1.092773438,1,0,0,rectangle,-6.808410645,1.092773438,1,0,0,-6.808410645,1.092773438,1,0,0,1,36,196,0,1,,,,,,,,
,,,,,,,,,,,,,FF,,,,,,,,0.8333,,,,,,,,,,,,,,,,,,,,,,60fdb19cd9af60d495e15453,61036d59b6b0254c353273db,2021-07-29_23h09.33.379,Simcolourproject_2stim_asymm_v5,2020.2.10,MacIntel,60,61025ae37ef11b136ea224fe,,,,,,,,,2298,-91.97619629,24.45019531,1,0,0,response7disk,,1,-4.397705078,1.608978271,1,0,0,rectangle,-4.397705078,1.608978271,1,0,0,-4.397705078,1.608978271,1,0,0,1,37,197,64,1,,,,,,,,
,,,,,,,,,,,,,FF,,,,,,,,0.7504,,,,,,,,,,,,,,,,,,,,,,60fdb19cd9af60d495e15453,61036d59b6b0254c353273db,2021-07-29_23h09.33.379,Simcolourproject_2stim_asymm_v5,2020.2.10,MacIntel,60,61025ae37ef11b136ea224fe,,,,,,,,,2150,-39.85107422,-96.52636719,1,0,0,response5disk,,3,2.147644043,-4.78326416,1,0,0,rectangle,2.147644043,-4.78326416,1,0,0,2.147644043,-4.78326416,1,0,0,1,38,198,82,1,,,,,,,,
,,,,,,,,,,,,,FF,,,,,,,,0.8341,,,,,,,,,,,,,,,,,,,,,,60fdb19cd9af60d495e15453,61036d59b6b0254c353273db,2021-07-29_23h09.33.379,Simcolourproject_2stim_asymm_v5,2020.2.10,MacIntel,60,61025ae37ef11b136ea224fe,,,,,,,,,2686,51.9307251,-42.58428955,1,0,0,response3disk,,5,-0.592041016,-1.153930664,1,0,0,rectangle,-0.592041016,-1.153930664,1,0,0,-0.592041016,-1.153930664,1,0,0,1,39,199,68,1,,,,,,,,
,,,,,,,,,,,,,FF,,,,,,,,0.8667,,,,,,,,,,,,,,,,,,,,,,60fdb19cd9af60d495e15453,61036d59b6b0254c353273db,2021-07-29_23h09.33.379,Simcolourproject_2stim_asymm_v5,2020.2.10,MacIntel,60,61025ae37ef11b136ea224fe,,,,,,,,,3434,-25.80438232,78.57296753,1,0,0,response7disk,,0,-2.871704102,2.573852539,1,0,0,rectangle,-2.871704102,2.573852539,1,0,0,-2.871704102,2.573852539,1,0,0,1,40,200,80,1,,,,,,,,
,,,,,,,,,,,,,FF,,,,,,,,0.9663,,,,,,,,,,,,,,,,,,,,,,60fdb19cd9af60d495e15453,61036d59b6b0254c353273db,2021-07-29_23h09.33.379,Simcolourproject_2stim_asymm_v5,2020.2.10,MacIntel,60,61025ae37ef11b136ea224fe,,,,,,,,,110,-71.081604,41.859375,1,0,0,response7disk,,1,-1.177307129,0.697814941,1,0,0,rectangle,-1.177307129,0.697814941,1,0,0,-1.177307129,0.697814941,1,0,0,1,41,201,158,1,,,,,,,,
,,,,,,,,,,,,,FF,,,,,,,,0.5501,,,,,,,,,,,,,,,,,,,,,,60fdb19cd9af60d495e15453,61036d59b6b0254c353273db,2021-07-29_23h09.33.379,Simcolourproject_2stim_asymm_v5,2020.2.10,MacIntel,60,61025ae37ef11b136ea224fe,,,,,,,,,722,-71.07983398,39.58288574,1,0,0,response7disk,,1,2.683532715,-3.350799561,1,0,0,rectangle,2.683532715,-3.350799561,1,0,0,2.683532715,-3.350799561,1,0,0,1,42,202,2,1,,,,,,,,
,,,,,,,,,,,,,FF,,,,,,,,0.8997,,,,,,,,,,,,,,,,,,,,,,60fdb19cd9af60d495e15453,61036d59b6b0254c353273db,2021-07-29_23h09.33.379,Simcolourproject_2stim_asymm_v5,2020.2.10,MacIntel,60,61025ae37ef11b136ea224fe,,,,,,,,,3790,73.46984863,-43.32397461,1,0,0,response3disk,,5,-7.478088379,11.38931274,1,0,0,rectangle,-7.478088379,11.38931274,1,0,0,-7.478088379,11.38931274,1,0,0,1,43,203,117,1,,,,,,,,
,,,,,,,,,,,,,FF,,,,,,,,0.8835,,,,,,,,,,,,,,,,,,,,,,60fdb19cd9af60d495e15453,61036d59b6b0254c353273db,2021-07-29_23h09.33.379,Simcolourproject_2stim_asymm_v5,2020.2.10,MacIntel,60,61025ae37ef11b136ea224fe,,,,,,,,,659,-59.05981445,-76.66748047,1,0,0,response5disk,,3,-7.282104492,0.216308594,1,0,0,rectangle,-7.282104492,0.216308594,1,0,0,-7.282104492,0.216308594,1,0,0,1,44,204,76,1,,,,,,,,
,,,,,,,,,,,,,FF,,,,,,,,0.6167,,,,,,,,,,,,,,,,,,,,,,60fdb19cd9af60d495e15453,61036d59b6b0254c353273db,2021-07-29_23h09.33.379,Simcolourproject_2stim_asymm_v5,2020.2.10,MacIntel,60,61025ae37ef11b136ea224fe,,,,,,,,,3517,-50.05725098,72.38415527,1,0,0,response7disk,,0,-7.235473633,4.434753418,1,0,0,rectangle,-7.235473633,4.434753418,1,0,0,-7.235473633,4.434753418,1,0,0,1,45,205,142,1,,,,,,,,
,,,,,,,,,,,,,FF,,,,,,,,1.2175,,,,,,,,,,,,,,,,,,,,,,60fdb19cd9af60d495e15453,61036d59b6b0254c353273db,2021-07-29_23h09.33.379,Simcolourproject_2stim_asymm_v5,2020.2.10,MacIntel,60,61025ae37ef11b136ea224fe,,,,,,,,,1163,16.87664795,-85.02307129,1,0,0,response3disk,,4,10.25091553,-9.025878906,1,0,0,rectangle,10.25091553,-9.025878906,1,0,0,10.25091553,-9.025878906,1,0,0,1,46,206,9,1,,,,,,,,
,,,,,,,,,,,,,FF,,,,,,,,0.6503,,,,,,,,,,,,,,,,,,,,,,60fdb19cd9af60d495e15453,61036d59b6b0254c353273db,2021-07-29_23h09.33.379,Simcolourproject_2stim_asymm_v5,2020.2.10,MacIntel,60,61025ae37ef11b136ea224fe,,,,,,,,,2173,-56.05548096,18.12628174,1,0,0,response7disk,,1,-9.089050293,-7.696716309,1,0,0,rectangle,-9.089050293,-7.696716309,1,0,0,-9.089050293,-7.696716309,1,0,0,1,47,207,133,1,,,,,,,,
,,,,,,,,,,,,,FF,,,,,,,,0.6834,,,,,,,,,,,,,,,,,,,,,,60fdb19cd9af60d495e15453,61036d59b6b0254c353273db,2021-07-29_23h09.33.379,Simcolourproject_2stim_asymm_v5,2020.2.10,MacIntel,60,61025ae37ef11b136ea224fe,,,,,,,,,3827,-40.93762207,-72.18670654,1,0,0,response5disk,,3,4.370422363,-0.313110352,1,0,0,rectangle,4.370422363,-0.313110352,1,0,0,4.370422363,-0.313110352,1,0,0,1,48,208,28,1,,,,,,,,
,,,,,,,,,,,,,FF,,,,,,,,1.9342,,,,,,,,,,,,,,,,,,,,,,60fdb19cd9af60d495e15453,61036d59b6b0254c353273db,2021-07-29_23h09.33.379,Simcolourproject_2stim_asymm_v5,2020.2.10,MacIntel,60,61025ae37ef11b136ea224fe,,,,,,,,,4086,-35.59228516,-68.32403564,1,0,0,response5disk,,3,-14.23101807,-9.098693848,1,0,0,rectangle,-14.23101807,-9.098693848,1,0,0,-14.23101807,-9.098693848,1,0,0,1,49,209,83,1,,,,,,,,
,,,,,,,,,,,,,FF,,,,,,,,0.7844,,,,,,,,,,,,,,,,,,,,,,60fdb19cd9af60d495e15453,61036d59b6b0254c353273db,2021-07-29_23h09.33.379,Simcolourproject_2stim_asymm_v5,2020.2.10,MacIntel,60,61025ae37ef11b136ea224fe,,,,,,,,,999,81.89447021,-30.75622559,1,0,0,response3disk,,5,-10.14044189,-3.359924316,1,0,0,rectangle,-10.14044189,-3.359924316,1,0,0,-10.14044189,-3.359924316,1,0,0,1,50,210,105,1,,,,,,,,
,,,,,,,,,,,,,FF,,,,,,,,0.7497,,,,,,,,,,,,,,,,,,,,,,60fdb19cd9af60d495e15453,61036d59b6b0254c353273db,2021-07-29_23h09.33.379,Simcolourproject_2stim_asymm_v5,2020.2.10,MacIntel,60,61025ae37ef11b136ea224fe,,,,,,,,,2872,44.0402832,55.50912476,1,0,0,response1disk,,7,13.68487549,-6.568054199,1,0,0,rectangle,13.68487549,-6.568054199,1,0,0,13.68487549,-6.568054199,1,0,0,1,51,211,35,1,,,,,,,,
,,,,,,,,,,,,,FF,,,,,,,,0.7658,,,,,,,,,,,,,,,,,,,,,,60fdb19cd9af60d495e15453,61036d59b6b0254c353273db,2021-07-29_23h09.33.379,Simcolourproject_2stim_asymm_v5,2020.2.10,MacIntel,60,61025ae37ef11b136ea224fe,,,,,,,,,611,-54.60113525,28.4281311,1,0,0,response7disk,,1,6.901916504,1.136535645,1,0,0,rectangle,6.901916504,1.136535645,1,0,0,6.901916504,1.136535645,1,0,0,1,52,212,79,1,,,,,,,,
,,,,,,,,,,,,,FF,,,,,,,,1.051,,,,,,,,,,,,,,,,,,,,,,60fdb19cd9af60d495e15453,61036d59b6b0254c353273db,2021-07-29_23h09.33.379,Simcolourproject_2stim_asymm_v5,2020.2.10,MacIntel,60,61025ae37ef11b136ea224fe,,,,,,,,,1198,37.38739014,-67.86834717,1,0,0,response3disk,,4,12.01416016,-2.687591553,1,0,0,rectangle,12.01416016,-2.687591553,1,0,0,12.01416016,-2.687591553,1,0,0,1,53,213,5,1,,,,,,,,
,,,,,,,,,,,,,FF,,,,,,,,0.9507,,,,,,,,,,,,,,,,,,,,,,60fdb19cd9af60d495e15453,61036d59b6b0254c353273db,2021-07-29_23h09.33.379,Simcolourproject_2stim_asymm_v5,2020.2.10,MacIntel,60,61025ae37ef11b136ea224fe,,,,,,,,,3948,-33.89031982,-70.45703125,1,0,0,response5disk,,3,-8.866516113,-3.449432373,1,0,0,rectangle,-8.866516113,-3.449432373,1,0,0,-8.866516113,-3.449432373,1,0,0,1,54,214,52,1,,,,,,,,
,,,,,,,,,,,,,FF,,,,,,,,1.0471,,,,,,,,,,,,,,,,,,,,,,60fdb19cd9af60d495e15453,61036d59b6b0254c353273db,2021-07-29_23h09.33.379,Simcolourproject_2stim_asymm_v5,2020.2.10,MacIntel,60,61025ae37ef11b136ea224fe,,,,,,,,,950,-39.00201416,-63.12518311,1,0,0,response5disk,,3,-17.96606445,-7.446838379,1,0,0,rectangle,-17.96606445,-7.446838379,1,0,0,-17.96606445,-7.446838379,1,0,0,1,55,215,97,1,,,,,,,,
,,,,,,,,,,,,,FF,,,,,,,,0.9171,,,,,,,,,,,,,,,,,,,,,,60fdb19cd9af60d495e15453,61036d59b6b0254c353273db,2021-07-29_23h09.33.379,Simcolourproject_2stim_asymm_v5,2020.2.10,MacIntel,60,61025ae37ef11b136ea224fe,,,,,,,,,666,66.34747314,45.48010254,1,0,0,response1disk,,6,13.76837158,1.982177734,1,0,0,rectangle,13.76837158,1.982177734,1,0,0,13.76837158,1.982177734,1,0,0,1,56,216,6,1,,,,,,,,
,,,,,,,,,,,,,FF,,,,,,,,0.7503,,,,,,,,,,,,,,,,,,,,,,60fdb19cd9af60d495e15453,61036d59b6b0254c353273db,2021-07-29_23h09.33.379,Simcolourproject_2stim_asymm_v5,2020.2.10,MacIntel,60,61025ae37ef11b136ea224fe,,,,,,,,,2722,-61.45257568,-28.92980957,1,0,0,response5disk,,2,-3.500793457,-15.51626587,1,0,0,rectangle,-3.500793457,-15.51626587,1,0,0,-3.500793457,-15.51626587,1,0,0,1,57,217,66,1,,,,,,,,
,,,,,,,,,,,,,FF,,,,,,,,0.8178,,,,,,,,,,,,,,,,,,,,,,60fdb19cd9af60d495e15453,61036d59b6b0254c353273db,2021-07-29_23h09.33.379,Simcolourproject_2stim_asymm_v5,2020.2.10,MacIntel,60,61025ae37ef11b136ea224fe,,,,,,,,,920,69.98181152,79.82507324,1,0,0,response1disk,,7,-3.566833496,-0.19519043,1,0,0,rectangle,-3.566833496,-0.19519043,1,0,0,-3.566833496,-0.19519043,1,0,0,1,58,218,57,1,,,,,,,,
,,,,,,,,,,,,,FF,,,,,,,,0.9999,,,,,,,,,,,,,,,,,,,,,,60fdb19cd9af60d495e15453,61036d59b6b0254c353273db,2021-07-29_23h09.33.379,Simcolourproject_2stim_asymm_v5,2020.2.10,MacIntel,60,61025ae37ef11b136ea224fe,,,,,,,,,2703,76.92651367,44.80599976,1,0,0,response1disk,,6,5.317138672,9.21206665,1,0,0,rectangle,5.317138672,9.21206665,1,0,0,5.317138672,9.21206665,1,0,0,1,59,219,109,1,,,,,,,,
,,,,,,,,,,,,,FF,,,,,,,,0.6163,,,,,,,,,,,,,,,,,,,,,,60fdb19cd9af60d495e15453,61036d59b6b0254c353273db,2021-07-29_23h09.33.379,Simcolourproject_2stim_asymm_v5,2020.2.10,MacIntel,60,61025ae37ef11b136ea224fe,,,,,,,,,2031,-55.23406982,27.17498779,1,0,0,response7disk,,1,-7.512023926,12.91156006,1,0,0,rectangle,-7.512023926,12.91156006,1,0,0,-7.512023926,12.91156006,1,0,0,1,60,220,32,1,,,,,,,,
,,,,,,,,,,,,,FF,,,,,,,,0.85,,,,,,,,,,,,,,,,,,,,,,60fdb19cd9af60d495e15453,61036d59b6b0254c353273db,2021-07-29_23h09.33.379,Simcolourproject_2stim_asymm_v5,2020.2.10,MacIntel,60,61025ae37ef11b136ea224fe,,,,,,,,,2666,-67.7421875,-25.85083008,1,0,0,response5disk,,2,9.01361084,-4.208831787,1,0,0,rectangle,-39.87091064,-79.8293457,1,0,0,-7.080871582,-7.463806152,1,0,0,1,61,221,40,1,,response5disk_3,TRUE,3,3,"[56,158,266,224,49,27,314,88,164,222,11,99,235,127,10,170,272,82,13,15]",1.7505,rectangle
,,,,,,,,,,,,,FF,,,,,,,,0.6833,,,,,,,,,,,,,,,,,,,,,,60fdb19cd9af60d495e15453,61036d59b6b0254c353273db,2021-07-29_23h09.33.379,Simcolourproject_2stim_asymm_v5,2020.2.10,MacIntel,60,61025ae37ef11b136ea224fe,,,,,,,,,531,-55.96557617,22.99127197,1,0,0,response7disk,,1,-11.91088867,-8.455566406,1,0,0,rectangle,-11.91088867,-8.455566406,1,0,0,-11.91088867,-8.455566406,1,0,0,1,62,222,113,1,,,,,,,,
,,,,,,,,,,,,,FF,,,,,,,,0.984,,,,,,,,,,,,,,,,,,,,,,60fdb19cd9af60d495e15453,61036d59b6b0254c353273db,2021-07-29_23h09.33.379,Simcolourproject_2stim_asymm_v5,2020.2.10,MacIntel,60,61025ae37ef11b136ea224fe,,,,,,,,,3254,35.59210205,-61.89459229,1,0,0,response3disk,,4,21.60064697,-8.396850586,1,0,0,rectangle,79.0614624,20.82757568,1,0,0,0.181640625,-2.800170898,1,0,0,1,63,223,12,1,,response1disk_3,TRUE,6,6,"[56,158,266,224,49,27,314,88,164,222,11,99,235,127,10,170,272,82,13,15]",1.7831,rectangle
,,,,,,,,,,,,,FF,,,,,,,,0.8321,,,,,,,,,,,,,,,,,,,,,,60fdb19cd9af60d495e15453,61036d59b6b0254c353273db,2021-07-29_23h09.33.379,Simcolourproject_2stim_asymm_v5,2020.2.10,MacIntel,60,61025ae37ef11b136ea224fe,,,,,,,,,3422,-49.90289307,-31.77456665,1,0,0,response5disk,,2,7.410339355,0.028686523,1,0,0,rectangle,7.410339355,0.028686523,1,0,0,7.410339355,0.028686523,1,0,0,1,64,224,159,1,,,,,,,,
,,,,,,,,,,,,,FF,,,,,,,,0.9676,,,,,,,,,,,,,,,,,,,,,,60fdb19cd9af60d495e15453,61036d59b6b0254c353273db,2021-07-29_23h09.33.379,Simcolourproject_2stim_asymm_v5,2020.2.10,MacIntel,60,61025ae37ef11b136ea224fe,,,,,,,,,1396,-62.73358154,-46.2885437,1,0,0,response5disk,,2,12.83227539,-2.238891602,1,0,0,rectangle,12.83227539,-2.238891602,1,0,0,12.83227539,-2.238891602,1,0,0,1,65,225,46,1,,,,,,,,
,,,,,,,,,,,,,FF,,,,,,,,0.7171,,,,,,,,,,,,,,,,,,,,,,60fdb19cd9af60d495e15453,61036d59b6b0254c353273db,2021-07-29_23h09.33.379,Simcolourproject_2stim_asymm_v5,2020.2.10,MacIntel,60,61025ae37ef11b136ea224fe,,,,,,,,,454,49.85162354,-26.91210938,1,0,0,response3disk,,5,2.108337402,6.772125244,1,0,0,rectangle,2.108337402,6.772125244,1,0,0,2.108337402,6.772125244,1,0,0,1,66,226,37,1,,,,,,,,
,,,,,,,,,,,,,FF,,,,,,,,0.6834,,,,,,,,,,,,,,,,,,,,,,60fdb19cd9af60d495e15453,61036d59b6b0254c353273db,2021-07-29_23h09.33.379,Simcolourproject_2stim_asymm_v5,2020.2.10,MacIntel,60,61025ae37ef11b136ea224fe,,,,,,,,,2486,-49.85766602,23.24127197,1,0,0,response7disk,,1,10.79199219,3.743225098,1,0,0,rectangle,10.79199219,3.743225098,1,0,0,10.79199219,3.743225098,1,0,0,1,67,227,108,1,,,,,,,,
,,,,,,,,,,,,,FF,,,,,,,,1.1335,,,,,,,,,,,,,,,,,,,,,,60fdb19cd9af60d495e15453,61036d59b6b0254c353273db,2021-07-29_23h09.33.379,Simcolourproject_2stim_asymm_v5,2020.2.10,MacIntel,60,61025ae37ef11b136ea224fe,,,,,,,,,3265,76.53240967,-54.72735596,1,0,0,response3disk,,5,10.6552124,5.612609863,1,0,0,rectangle,10.6552124,5.612609863,1,0,0,10.6552124,5.612609863,1,0,0,1,68,228,59,1,,,,,,,,
,,,,,,,,,,,,,FF,,,,,,,,0.7506,,,,,,,,,,,,,,,,,,,,,,60fdb19cd9af60d495e15453,61036d59b6b0254c353273db,2021-07-29_23h09.33.379,Simcolourproject_2stim_asymm_v5,2020.2.10,MacIntel,60,61025ae37ef11b136ea224fe,,,,,,,,,411,64.75994873,39.46878052,1,0,0,response1disk,,6,7.499389648,13.55914307,1,0,0,rectangle,7.499389648,13.55914307,1,0,0,7.499389648,13.55914307,1,0,0,1,69,229,155,1,,,,,,,,
,,,,,,,,,,,,,FF,,,,,,,,0.6499,,,,,,,,,,,,,,,,,,,,,,60fdb19cd9af60d495e15453,61036d59b6b0254c353273db,2021-07-29_23h09.33.379,Simcolourproject_2stim_asymm_v5,2020.2.10,MacIntel,60,61025ae37ef11b136ea224fe,,,,,,,,,3621,32.52246094,74.64904785,1,0,0,response1disk,,7,1.256408691,6.357788086,1,0,0,rectangle,1.256408691,6.357788086,1,0,0,1.256408691,6.357788086,1,0,0,1,70,230,149,1,,,,,,,,
,,,,,,,,,,,,,FF,,,,,,,,0.6152,,,,,,,,,,,,,,,,,,,,,,60fdb19cd9af60d495e15453,61036d59b6b0254c353273db,2021-07-29_23h09.33.379,Simcolourproject_2stim_asymm_v5,2020.2.10,MacIntel,60,61025ae37ef11b136ea224fe,,,,,,,,,384,38.67687988,90.03048706,1,0,0,response1disk,,7,12.67486572,0.450134277,1,0,0,rectangle,12.67486572,0.450134277,1,0,0,12.67486572,0.450134277,1,0,0,1,71,231,156,1,,,,,,,,
,,,,,,,,,,,,,FF,,,,,,,,0.5829,,,,,,,,,,,,,,,,,,,,,,60fdb19cd9af60d495e15453,61036d59b6b0254c353273db,2021-07-29_23h09.33.379,Simcolourproject_2stim_asymm_v5,2020.2.10,MacIntel,60,61025ae37ef11b136ea224fe,,,,,,,,,2819,42.67327881,76.63479614,1,0,0,response1disk,,7,-1.238525391,-3.228851318,1,0,0,rectangle,-1.238525391,-3.228851318,1,0,0,-1.238525391,-3.228851318,1,0,0,1,72,232,84,1,,,,,,,,
,,,,,,,,,,,,,FF,,,,,,,,0.9044,,,,,,,,,,,,,,,,,,,,,,60fdb19cd9af60d495e15453,61036d59b6b0254c353273db,2021-07-29_23h09.33.379,Simcolourproject_2stim_asymm_v5,2020.2.10,MacIntel,60,61025ae37ef11b136ea224fe,,,,,,,,,3738,58.18859863,-40.88513184,1,0,0,response3disk,,5,-11.58044434,7.997375488,1,0,0,rectangle,-11.58044434,7.997375488,1,0,0,-11.58044434,7.997375488,1,0,0,1,73,233,81,1,,,,,,,,
,,,,,,,,,,,,,FF,,,,,,,,0.9664,,,,,,,,,,,,,,,,,,,,,,60fdb19cd9af60d495e15453,61036d59b6b0254c353273db,2021-07-29_23h09.33.379,Simcolourproject_2stim_asymm_v5,2020.2.10,MacIntel,60,61025ae37ef11b136ea224fe,,,,,,,,,2811,45.2010498,85.93951416,1,0,0,response1disk,,7,6.256530762,-2.695587158,1,0,0,rectangle,22.39807129,-75.47509766,1,0,0,13.8024292,-12.22369385,1,0,0,1,74,234,56,1,,response3disk_3,TRUE,4,4,"[56,158,266,224,49,27,314,88,164,222,11,99,235,127,10,170,272,82,13,15]",1.717,rectangle
,,,,,,,,,,,,,FF,,,,,,,,0.967,,,,,,,,,,,,,,,,,,,,,,60fdb19cd9af60d495e15453,61036d59b6b0254c353273db,2021-07-29_23h09.33.379,Simcolourproject_2stim_asymm_v5,2020.2.10,MacIntel,60,61025ae37ef11b136ea224fe,,,,,,,,,3854,-46.17236328,-69.72473145,1,0,0,response5disk,,3,-13.04571533,-7.142669678,1,0,0,rectangle,-13.04571533,-7.142669678,1,0,0,-13.04571533,-7.142669678,1,0,0,1,75,235,39,1,,,,,,,,
,,,,,,,,,,,,,FF,,,,,,,,0.7832,,,,,,,,,,,,,,,,,,,,,,60fdb19cd9af60d495e15453,61036d59b6b0254c353273db,2021-07-29_23h09.33.379,Simcolourproject_2stim_asymm_v5,2020.2.10,MacIntel,60,61025ae37ef11b136ea224fe,,,,,,,,,1316,-67.63867188,-32.44970703,1,0,0,response5disk,,2,-11.43780518,9.916992188,1,0,0,rectangle,-11.43780518,9.916992188,1,0,0,-11.43780518,9.916992188,1,0,0,1,76,236,31,1,,,,,,,,
,,,,,,,,,,,,,FF,,,,,,,,0.7342,,,,,,,,,,,,,,,,,,,,,,60fdb19cd9af60d495e15453,61036d59b6b0254c353273db,2021-07-29_23h09.33.379,Simcolourproject_2stim_asymm_v5,2020.2.10,MacIntel,60,61025ae37ef11b136ea224fe,,,,,,,,,3924,-71.88085938,-34.24658203,1,0,0,response5disk,,2,-2.920227051,9.192382813,1,0,0,rectangle,-2.920227051,9.192382813,1,0,0,-2.920227051,9.192382813,1,0,0,1,77,237,100,1,,,,,,,,
,,,,,,,,,,,,,FF,,,,,,,,0.9345,,,,,,,,,,,,,,,,,,,,,,60fdb19cd9af60d495e15453,61036d59b6b0254c353273db,2021-07-29_23h09.33.379,Simcolourproject_2stim_asymm_v5,2020.2.10,MacIntel,60,61025ae37ef11b136ea224fe,,,,,,,,,706,-33.19439697,-66.87768555,1,0,0,response5disk,,3,-7.961425781,-6.151611328,1,0,0,rectangle,-7.961425781,-6.151611328,1,0,0,-7.961425781,-6.151611328,1,0,0,1,78,238,13,1,,,,,,,,
,,,,,,,,,,,,,FF,,,,,,,,0.7663,,,,,,,,,,,,,,,,,,,,,,60fdb19cd9af60d495e15453,61036d59b6b0254c353273db,2021-07-29_23h09.33.379,Simcolourproject_2stim_asymm_v5,2020.2.10,MacIntel,60,61025ae37ef11b136ea224fe,,,,,,,,,2484,-64.44708252,-27.10177612,1,0,0,response5disk,,2,-20.09155273,-3.661834717,1,0,0,rectangle,-20.09155273,-3.661834717,1,0,0,-20.09155273,-3.661834717,1,0,0,1,79,239,27,1,,,,,,,,
,,,,,,,,,,,,,FF,,,,,,,,1.1008,,,,,,,,,,,,,,,,,,,,,,60fdb19cd9af60d495e15453,61036d59b6b0254c353273db,2021-07-29_23h09.33.379,Simcolourproject_2stim_asymm_v5,2020.2.10,MacIntel,60,61025ae37ef11b136ea224fe,,,,,,,,,1481,81.7833252,-27.24810791,1,0,0,response3disk,,5,-4.095336914,-4.652404785,1,0,0,rectangle,-4.095336914,-4.652404785,1,0,0,-4.095336914,-4.652404785,1,0,0,1,80,240,101,1,,,,,,,,
