key_resp.keys,key_resp.rt,key_resp_14.keys,key_resp_14.rt,key_resp_15.keys,key_resp_15.rt,key_resp_17.keys,key_resp_17.rt,key_resp_9.keys,key_resp_9.rt,key_resp_10.keys,key_resp_10.rt,practice_comparison,Ecc,mouse_5.x,mouse_5.y,mouse_5.leftButton,mouse_5.midButton,mouse_5.rightButton,mouse_5.clicked_name,pracsimilarity,response_time,mouse_10.x,mouse_10.y,mouse_10.leftButton,mouse_10.midButton,mouse_10.rightButton,mouse_10.clicked_name,mouse_7.x,mouse_7.y,mouse_7.leftButton,mouse_7.midButton,mouse_7.rightButton,mouse_6.x,mouse_6.y,mouse_6.leftButton,mouse_6.midButton,mouse_6.rightButton,duringprac.thisRepN,duringprac.thisTrialN,duringprac.thisN,duringprac.thisIndex,duringprac.ran,participant,session,date,expName,psychopyVersion,OS,frameRate,study_id,mouse_7.clicked_name,catchpracsimilarity,catch_response_time,catchnumberprac,catchtrialorderprac,mouse_6.clicked_name,key_resp_22.keys,key_resp_22.rt,realcomparison,mouse.x,mouse.y,mouse.leftButton,mouse.midButton,mouse.rightButton,mouse.clicked_name,Colour2,similarity,mouse_2.x,mouse_2.y,mouse_2.leftButton,mouse_2.midButton,mouse_2.rightButton,mouse_2.clicked_name,mouse_3.x,mouse_3.y,mouse_3.leftButton,mouse_3.midButton,mouse_3.rightButton,mouse_11.x,mouse_11.y,mouse_11.leftButton,mouse_11.midButton,mouse_11.rightButton,trials_2.thisRepN,trials_2.thisTrialN,trials_2.thisN,trials_2.thisIndex,trials_2.ran,Colour1,mouse_3.clicked_name,catchornah,catchsimilarity,catchnumber,catchtrialorder,catchRT,mouse_11.clicked_name
space,4.4726,space,13.2159,space,26.0187,space,20.5019,space,1.384,space,10.2206,121,FF,68.0078125,88.73828125,1,0,0,response1disk_5,7,23.9224,14.10546875,-7.22265625,1,0,0,rectangle_8,14.10546875,-7.22265625,1,0,0,14.10546875,-7.22265625,1,0,0,0,0,0,5,1,60fde54d65129218d68d8017,61036e08e74451882cc1283a,2021-07-29_20h13.04.247,Simcolourproject_2stim_asymm_v5,2020.2.10,MacIntel,60,61025ae37ef11b136ea224fe,,,,,,,,,,,,,,,,,,,,,,,,,,,,,,,,,,,,,,,,,,,,,,
,,,,,,,,,,,,93,PF,40.8828125,-103.0234375,1,0,0,response3disk_5,4,4.4176,-6.98046875,-0.87890625,1,0,0,rectangle_8,64.72265625,104.7109375,1,0,0,-4.55859375,-1.23046875,1,0,0,0,1,1,1,1,60fde54d65129218d68d8017,61036e08e74451882cc1283a,2021-07-29_20h13.04.247,Simcolourproject_2stim_asymm_v5,2020.2.10,MacIntel,60,61025ae37ef11b136ea224fe,response1disk_7,7,3.3508,7,"[2,5]",rectangle_4,,,,,,,,,,,,,,,,,,,,,,,,,,,,,,,,,,,,,,,,
,,,,,,,,,,,,83,FF,44.8359375,-108.9414063,1,0,0,response3disk_5,4,8.0013,8.74609375,-10.55859375,1,0,0,rectangle_8,8.74609375,-10.55859375,1,0,0,8.74609375,-10.55859375,1,0,0,0,2,2,0,1,60fde54d65129218d68d8017,61036e08e74451882cc1283a,2021-07-29_20h13.04.247,Simcolourproject_2stim_asymm_v5,2020.2.10,MacIntel,60,61025ae37ef11b136ea224fe,,,,,,,,,,,,,,,,,,,,,,,,,,,,,,,,,,,,,,,,,,,,,,
,,,,,,,,,,,,72,PF,40.22265625,102.5234375,1,0,0,response1disk_5,7,4.1504,-1.52734375,0.1484375,1,0,0,rectangle_8,-1.52734375,0.1484375,1,0,0,-1.52734375,0.1484375,1,0,0,0,3,3,6,1,60fde54d65129218d68d8017,61036e08e74451882cc1283a,2021-07-29_20h13.04.247,Simcolourproject_2stim_asymm_v5,2020.2.10,MacIntel,60,61025ae37ef11b136ea224fe,,,,,,,,,,,,,,,,,,,,,,,,,,,,,,,,,,,,,,,,,,,,,,
,,,,,,,,,,,,33,FF,-89.078125,-47.73046875,1,0,0,response5disk_5,2,4.3178,18.3984375,9.14453125,1,0,0,rectangle_8,58.64453125,106.7734375,1,0,0,-14.40625,-3.25390625,1,0,0,0,4,4,3,1,60fde54d65129218d68d8017,61036e08e74451882cc1283a,2021-07-29_20h13.04.247,Simcolourproject_2stim_asymm_v5,2020.2.10,MacIntel,60,61025ae37ef11b136ea224fe,response1disk_7,7,3.0848,7,"[2,5]",rectangle_4,,,,,,,,,,,,,,,,,,,,,,,,,,,,,,,,,,,,,,,,
,,,,,,,,,,,,45,PF,-56.578125,-86.9375,1,0,0,response5disk_5,3,2.6671,-2.34375,0.4140625,1,0,0,rectangle_8,-2.34375,0.4140625,1,0,0,-2.34375,0.4140625,1,0,0,0,5,5,2,1,60fde54d65129218d68d8017,61036e08e74451882cc1283a,2021-07-29_20h13.04.247,Simcolourproject_2stim_asymm_v5,2020.2.10,MacIntel,60,61025ae37ef11b136ea224fe,,,,,,,,,,,,,,,,,,,,,,,,,,,,,,,,,,,,,,,,,,,,,,
,,,,,,,,,,,,99,PF,104.2890625,-44.75390625,1,0,0,response3disk_5,5,5.8174,-2.1953125,8.3359375,1,0,0,rectangle_8,-2.1953125,8.3359375,1,0,0,-2.1953125,8.3359375,1,0,0,0,6,6,4,1,60fde54d65129218d68d8017,61036e08e74451882cc1283a,2021-07-29_20h13.04.247,Simcolourproject_2stim_asymm_v5,2020.2.10,MacIntel,60,61025ae37ef11b136ea224fe,,,,,,,,,,,,,,,,,,,,,,,,,,,,,,,,,,,,,,,,,,,,,,
,,,,,,,,,,,,,FF,,,,,,,,3.4668,,,,,,,,,,,,,,,,,,,,,,60fde54d65129218d68d8017,61036e08e74451882cc1283a,2021-07-29_20h13.04.247,Simcolourproject_2stim_asymm_v5,2020.2.10,MacIntel,60,61025ae37ef11b136ea224fe,,,,,,,space,4.4183,3727,-48.40625,-104.6992188,1,0,0,response5disk,,3,-12.2890625,3.1015625,1,0,0,rectangle,-12.2890625,3.1015625,1,0,0,-12.2890625,3.1015625,1,0,0,0,0,0,76,1,,,,,,,,
,,,,,,,,,,,,,FF,,,,,,,,2.467,,,,,,,,,,,,,,,,,,,,,,60fde54d65129218d68d8017,61036e08e74451882cc1283a,2021-07-29_20h13.04.247,Simcolourproject_2stim_asymm_v5,2020.2.10,MacIntel,60,61025ae37ef11b136ea224fe,,,,,,,,,908,-102.75,34.265625,1,0,0,response7disk,,1,-11.78515625,-1.98828125,1,0,0,rectangle,-11.78515625,-1.98828125,1,0,0,-11.78515625,-1.98828125,1,0,0,0,1,1,84,1,,,,,,,,
,,,,,,,,,,,,,FF,,,,,,,,5.6692,,,,,,,,,,,,,,,,,,,,,,60fde54d65129218d68d8017,61036e08e74451882cc1283a,2021-07-29_20h13.04.247,Simcolourproject_2stim_asymm_v5,2020.2.10,MacIntel,60,61025ae37ef11b136ea224fe,,,,,,,,,2319,42.94921875,-68.43359375,1,0,0,response3disk,,4,2.75390625,-4.39453125,1,0,0,rectangle,2.75390625,-4.39453125,1,0,0,2.75390625,-4.39453125,1,0,0,0,2,2,62,1,,,,,,,,
,,,,,,,,,,,,,FF,,,,,,,,3.5507,,,,,,,,,,,,,,,,,,,,,,60fde54d65129218d68d8017,61036e08e74451882cc1283a,2021-07-29_20h13.04.247,Simcolourproject_2stim_asymm_v5,2020.2.10,MacIntel,60,61025ae37ef11b136ea224fe,,,,,,,,,1634,100.9726563,32.51953125,1,0,0,response1disk,,6,-10.9453125,-1.16015625,1,0,0,rectangle,-10.9453125,-1.16015625,1,0,0,-10.9453125,-1.16015625,1,0,0,0,3,3,155,1,,,,,,,,
,,,,,,,,,,,,,FF,,,,,,,,4.8179,,,,,,,,,,,,,,,,,,,,,,60fde54d65129218d68d8017,61036e08e74451882cc1283a,2021-07-29_20h13.04.247,Simcolourproject_2stim_asymm_v5,2020.2.10,MacIntel,60,61025ae37ef11b136ea224fe,,,,,,,,,3504,-53.35546875,77.20703125,1,0,0,response7disk,,0,3.9765625,1.9296875,1,0,0,rectangle,3.9765625,1.9296875,1,0,0,3.9765625,1.9296875,1,0,0,0,4,4,14,1,,,,,,,,
,,,,,,,,,,,,,FF,,,,,,,,3.0337,,,,,,,,,,,,,,,,,,,,,,60fde54d65129218d68d8017,61036e08e74451882cc1283a,2021-07-29_20h13.04.247,Simcolourproject_2stim_asymm_v5,2020.2.10,MacIntel,60,61025ae37ef11b136ea224fe,,,,,,,,,3333,-51.79296875,-74.07421875,1,0,0,response5disk,,3,-13.26171875,-1.00390625,1,0,0,rectangle,-13.26171875,-1.00390625,1,0,0,-13.26171875,-1.00390625,1,0,0,0,5,5,50,1,,,,,,,,
,,,,,,,,,,,,,FF,,,,,,,,1.9836,,,,,,,,,,,,,,,,,,,,,,60fde54d65129218d68d8017,61036e08e74451882cc1283a,2021-07-29_20h13.04.247,Simcolourproject_2stim_asymm_v5,2020.2.10,MacIntel,60,61025ae37ef11b136ea224fe,,,,,,,,,2626,108.96875,30.8671875,1,0,0,response1disk,,6,-9.046875,6.1484375,1,0,0,rectangle,-9.046875,6.1484375,1,0,0,-9.046875,6.1484375,1,0,0,0,6,6,46,1,,,,,,,,
,,,,,,,,,,,,,FF,,,,,,,,1.0666,,,,,,,,,,,,,,,,,,,,,,60fde54d65129218d68d8017,61036e08e74451882cc1283a,2021-07-29_20h13.04.247,Simcolourproject_2stim_asymm_v5,2020.2.10,MacIntel,60,61025ae37ef11b136ea224fe,,,,,,,,,1390,-53.3359375,-82.0625,1,0,0,response5disk,,3,-9.546875,-5.59375,1,0,0,rectangle,-9.546875,-5.59375,1,0,0,-9.546875,-5.59375,1,0,0,0,7,7,31,1,,,,,,,,
,,,,,,,,,,,,,FF,,,,,,,,1.7006,,,,,,,,,,,,,,,,,,,,,,60fde54d65129218d68d8017,61036e08e74451882cc1283a,2021-07-29_20h13.04.247,Simcolourproject_2stim_asymm_v5,2020.2.10,MacIntel,60,61025ae37ef11b136ea224fe,,,,,,,,,1563,77.0078125,-54.76953125,1,0,0,response3disk,,5,25.6015625,-6.30078125,1,0,0,rectangle,25.6015625,-6.30078125,1,0,0,25.6015625,-6.30078125,1,0,0,0,8,8,109,1,,,,,,,,
,,,,,,,,,,,,,FF,,,,,,,,3.6844,,,,,,,,,,,,,,,,,,,,,,60fde54d65129218d68d8017,61036e08e74451882cc1283a,2021-07-29_20h13.04.247,Simcolourproject_2stim_asymm_v5,2020.2.10,MacIntel,60,61025ae37ef11b136ea224fe,,,,,,,,,4315,101.5429688,35.1328125,1,0,0,response1disk,,6,-15.13671875,0.26171875,1,0,0,rectangle,-15.13671875,0.26171875,1,0,0,-15.13671875,0.26171875,1,0,0,0,9,9,27,1,,,,,,,,
,,,,,,,,,,,,,FF,,,,,,,,3.4004,,,,,,,,,,,,,,,,,,,,,,60fde54d65129218d68d8017,61036e08e74451882cc1283a,2021-07-29_20h13.04.247,Simcolourproject_2stim_asymm_v5,2020.2.10,MacIntel,60,61025ae37ef11b136ea224fe,,,,,,,,,2011,71.4375,-61.625,1,0,0,response3disk,,5,4.1015625,-8.9140625,1,0,0,rectangle,4.1015625,-8.9140625,1,0,0,4.1015625,-8.9140625,1,0,0,0,10,10,13,1,,,,,,,,
,,,,,,,,,,,,,FF,,,,,,,,2.3171,,,,,,,,,,,,,,,,,,,,,,60fde54d65129218d68d8017,61036e08e74451882cc1283a,2021-07-29_20h13.04.247,Simcolourproject_2stim_asymm_v5,2020.2.10,MacIntel,60,61025ae37ef11b136ea224fe,,,,,,,,,1512,-84.9140625,-36.56640625,1,0,0,response5disk,,2,8.42578125,-2.9609375,1,0,0,rectangle,8.42578125,-2.9609375,1,0,0,8.42578125,-2.9609375,1,0,0,0,11,11,127,1,,,,,,,,
,,,,,,,,,,,,,FF,,,,,,,,5.0847,,,,,,,,,,,,,,,,,,,,,,60fde54d65129218d68d8017,61036e08e74451882cc1283a,2021-07-29_20h13.04.247,Simcolourproject_2stim_asymm_v5,2020.2.10,MacIntel,60,61025ae37ef11b136ea224fe,,,,,,,,,4246,84.4375,-44.34765625,1,0,0,response3disk,,5,10.76171875,1.28515625,1,0,0,rectangle,-89.93359375,-48.26171875,1,0,0,3.90234375,4.953125,1,0,0,0,12,12,22,1,,response5disk_3,TRUE,2,2,"[80,81,303,152,206,278,186,153,17,212,181,13,39,51,41,186,35,141,60,140]",2.2355,rectangle
,,,,,,,,,,,,,FF,,,,,,,,2.0005,,,,,,,,,,,,,,,,,,,,,,60fde54d65129218d68d8017,61036e08e74451882cc1283a,2021-07-29_20h13.04.247,Simcolourproject_2stim_asymm_v5,2020.2.10,MacIntel,60,61025ae37ef11b136ea224fe,,,,,,,,,2933,-83.6171875,-49.30078125,1,0,0,response5disk,,2,-1.34765625,-5.16796875,1,0,0,rectangle,-1.34765625,-5.16796875,1,0,0,-1.34765625,-5.16796875,1,0,0,0,13,13,23,1,,,,,,,,
,,,,,,,,,,,,,FF,,,,,,,,3.4007,,,,,,,,,,,,,,,,,,,,,,60fde54d65129218d68d8017,61036e08e74451882cc1283a,2021-07-29_20h13.04.247,Simcolourproject_2stim_asymm_v5,2020.2.10,MacIntel,60,61025ae37ef11b136ea224fe,,,,,,,,,682,115.7773438,36.56640625,1,0,0,response1disk,,6,13.0625,1.97265625,1,0,0,rectangle,13.0625,1.97265625,1,0,0,13.0625,1.97265625,1,0,0,0,14,14,59,1,,,,,,,,
,,,,,,,,,,,,,FF,,,,,,,,1.3323,,,,,,,,,,,,,,,,,,,,,,60fde54d65129218d68d8017,61036e08e74451882cc1283a,2021-07-29_20h13.04.247,Simcolourproject_2stim_asymm_v5,2020.2.10,MacIntel,60,61025ae37ef11b136ea224fe,,,,,,,,,3294,-95.36328125,-50.75390625,1,0,0,response5disk,,2,-7.578125,-2.60546875,1,0,0,rectangle,-7.578125,-2.60546875,1,0,0,-7.578125,-2.60546875,1,0,0,0,15,15,5,1,,,,,,,,
,,,,,,,,,,,,,FF,,,,,,,,11.0516,,,,,,,,,,,,,,,,,,,,,,60fde54d65129218d68d8017,61036e08e74451882cc1283a,2021-07-29_20h13.04.247,Simcolourproject_2stim_asymm_v5,2020.2.10,MacIntel,60,61025ae37ef11b136ea224fe,,,,,,,,,3953,28.375,-92.86328125,1,0,0,response3disk,,4,0.21484375,-7.10546875,1,0,0,rectangle,48.75,81.4765625,1,0,0,-9.0390625,-3.421875,1,0,0,0,16,16,71,1,,response1disk_3,TRUE,7,7,"[80,81,303,152,206,278,186,153,17,212,181,13,39,51,41,186,35,141,60,140]",2.5833,rectangle
,,,,,,,,,,,,,FF,,,,,,,,6.3506,,,,,,,,,,,,,,,,,,,,,,60fde54d65129218d68d8017,61036e08e74451882cc1283a,2021-07-29_20h13.04.247,Simcolourproject_2stim_asymm_v5,2020.2.10,MacIntel,60,61025ae37ef11b136ea224fe,,,,,,,,,3112,-57.03515625,-112.921875,1,0,0,response5disk,,3,10.04296875,-4.23828125,1,0,0,rectangle,10.04296875,-4.23828125,1,0,0,10.04296875,-4.23828125,1,0,0,0,17,17,48,1,,,,,,,,
,,,,,,,,,,,,,FF,,,,,,,,2.151,,,,,,,,,,,,,,,,,,,,,,60fde54d65129218d68d8017,61036e08e74451882cc1283a,2021-07-29_20h13.04.247,Simcolourproject_2stim_asymm_v5,2020.2.10,MacIntel,60,61025ae37ef11b136ea224fe,,,,,,,,,2368,-82.9765625,41.56640625,1,0,0,response7disk,,1,-0.75,1.3984375,1,0,0,rectangle,-0.75,1.3984375,1,0,0,-0.75,1.3984375,1,0,0,0,18,18,95,1,,,,,,,,
,,,,,,,,,,,,,FF,,,,,,,,5.2016,,,,,,,,,,,,,,,,,,,,,,60fde54d65129218d68d8017,61036e08e74451882cc1283a,2021-07-29_20h13.04.247,Simcolourproject_2stim_asymm_v5,2020.2.10,MacIntel,60,61025ae37ef11b136ea224fe,,,,,,,,,162,-84.28125,-16.4296875,1,0,0,response5disk,,2,16.95703125,-3.12109375,1,0,0,rectangle,16.95703125,-3.12109375,1,0,0,16.95703125,-3.12109375,1,0,0,0,19,19,148,1,,,,,,,,
,,,,,,,,,,,,,FF,,,,,,,,1.2337,,,,,,,,,,,,,,,,,,,,,,60fde54d65129218d68d8017,61036e08e74451882cc1283a,2021-07-29_20h13.04.247,Simcolourproject_2stim_asymm_v5,2020.2.10,MacIntel,60,61025ae37ef11b136ea224fe,,,,,,,,,1564,50.4453125,-41.92578125,1,0,0,response3disk,,5,16.92578125,-3.93359375,1,0,0,rectangle,16.92578125,-3.93359375,1,0,0,16.92578125,-3.93359375,1,0,0,0,20,20,21,1,,,,,,,,
,,,,,,,,,,,,,FF,,,,,,,,1.5999,,,,,,,,,,,,,,,,,,,,,,60fde54d65129218d68d8017,61036e08e74451882cc1283a,2021-07-29_20h13.04.247,Simcolourproject_2stim_asymm_v5,2020.2.10,MacIntel,60,61025ae37ef11b136ea224fe,,,,,,,,,1032,55.6484375,-100.328125,1,0,0,response3disk,,4,-7.8984375,3.140625,1,0,0,rectangle,-7.8984375,3.140625,1,0,0,-7.8984375,3.140625,1,0,0,0,21,21,91,1,,,,,,,,
,,,,,,,,,,,,,FF,,,,,,,,3.4166,,,,,,,,,,,,,,,,,,,,,,60fde54d65129218d68d8017,61036e08e74451882cc1283a,2021-07-29_20h13.04.247,Simcolourproject_2stim_asymm_v5,2020.2.10,MacIntel,60,61025ae37ef11b136ea224fe,,,,,,,,,1994,-44.4375,-78.984375,1,0,0,response5disk,,3,-18.6640625,1.3828125,1,0,0,rectangle,-18.6640625,1.3828125,1,0,0,-18.6640625,1.3828125,1,0,0,0,22,22,132,1,,,,,,,,
,,,,,,,,,,,,,FF,,,,,,,,1.2512,,,,,,,,,,,,,,,,,,,,,,60fde54d65129218d68d8017,61036e08e74451882cc1283a,2021-07-29_20h13.04.247,Simcolourproject_2stim_asymm_v5,2020.2.10,MacIntel,60,61025ae37ef11b136ea224fe,,,,,,,,,3959,-43.8125,-89.6875,1,0,0,response5disk,,3,-6.95703125,-2.35546875,1,0,0,rectangle,-6.95703125,-2.35546875,1,0,0,-6.95703125,-2.35546875,1,0,0,0,23,23,112,1,,,,,,,,
,,,,,,,,,,,,,FF,,,,,,,,1.2669,,,,,,,,,,,,,,,,,,,,,,60fde54d65129218d68d8017,61036e08e74451882cc1283a,2021-07-29_20h13.04.247,Simcolourproject_2stim_asymm_v5,2020.2.10,MacIntel,60,61025ae37ef11b136ea224fe,,,,,,,,,630,-34.71484375,95.625,1,0,0,response7disk,,0,-13.87890625,2.3984375,1,0,0,rectangle,-13.87890625,2.3984375,1,0,0,-13.87890625,2.3984375,1,0,0,0,24,24,55,1,,,,,,,,
,,,,,,,,,,,,,FF,,,,,,,,3.0507,,,,,,,,,,,,,,,,,,,,,,60fde54d65129218d68d8017,61036e08e74451882cc1283a,2021-07-29_20h13.04.247,Simcolourproject_2stim_asymm_v5,2020.2.10,MacIntel,60,61025ae37ef11b136ea224fe,,,,,,,,,2749,76.76171875,-65.015625,1,0,0,response3disk,,5,7.16015625,-6.28515625,1,0,0,rectangle,7.16015625,-6.28515625,1,0,0,7.16015625,-6.28515625,1,0,0,0,25,25,60,1,,,,,,,,
,,,,,,,,,,,,,FF,,,,,,,,3.3236,,,,,,,,,,,,,,,,,,,,,,60fde54d65129218d68d8017,61036e08e74451882cc1283a,2021-07-29_20h13.04.247,Simcolourproject_2stim_asymm_v5,2020.2.10,MacIntel,60,61025ae37ef11b136ea224fe,,,,,,,,,1406,61.78515625,-81.875,1,0,0,response3disk,,4,20.7578125,2.7109375,1,0,0,rectangle,20.7578125,2.7109375,1,0,0,20.7578125,2.7109375,1,0,0,0,26,26,100,1,,,,,,,,
,,,,,,,,,,,,,FF,,,,,,,,1.6826,,,,,,,,,,,,,,,,,,,,,,60fde54d65129218d68d8017,61036e08e74451882cc1283a,2021-07-29_20h13.04.247,Simcolourproject_2stim_asymm_v5,2020.2.10,MacIntel,60,61025ae37ef11b136ea224fe,,,,,,,,,4012,48.2578125,65.78515625,1,0,0,response1disk,,7,1.5859375,2.796875,1,0,0,rectangle,1.5859375,2.796875,1,0,0,1.5859375,2.796875,1,0,0,0,27,27,135,1,,,,,,,,
,,,,,,,,,,,,,FF,,,,,,,,1.7009,,,,,,,,,,,,,,,,,,,,,,60fde54d65129218d68d8017,61036e08e74451882cc1283a,2021-07-29_20h13.04.247,Simcolourproject_2stim_asymm_v5,2020.2.10,MacIntel,60,61025ae37ef11b136ea224fe,,,,,,,,,1325,56.234375,-99.98046875,1,0,0,response3disk,,4,14.89453125,-4.4921875,1,0,0,rectangle,14.89453125,-4.4921875,1,0,0,14.89453125,-4.4921875,1,0,0,0,28,28,32,1,,,,,,,,
,,,,,,,,,,,,,FF,,,,,,,,1.8508,,,,,,,,,,,,,,,,,,,,,,60fde54d65129218d68d8017,61036e08e74451882cc1283a,2021-07-29_20h13.04.247,Simcolourproject_2stim_asymm_v5,2020.2.10,MacIntel,60,61025ae37ef11b136ea224fe,,,,,,,,,1423,80.62890625,-34.359375,1,0,0,response3disk,,5,17.88671875,3.7578125,1,0,0,rectangle,17.88671875,3.7578125,1,0,0,17.88671875,3.7578125,1,0,0,0,29,29,144,1,,,,,,,,
,,,,,,,,,,,,,FF,,,,,,,,1.8506,,,,,,,,,,,,,,,,,,,,,,60fde54d65129218d68d8017,61036e08e74451882cc1283a,2021-07-29_20h13.04.247,Simcolourproject_2stim_asymm_v5,2020.2.10,MacIntel,60,61025ae37ef11b136ea224fe,,,,,,,,,1241,36.3359375,-98.79296875,1,0,0,response3disk,,4,4.87109375,-9.1328125,1,0,0,rectangle,4.87109375,-9.1328125,1,0,0,4.87109375,-9.1328125,1,0,0,0,30,30,7,1,,,,,,,,
,,,,,,,,,,,,,FF,,,,,,,,1.0506,,,,,,,,,,,,,,,,,,,,,,60fde54d65129218d68d8017,61036e08e74451882cc1283a,2021-07-29_20h13.04.247,Simcolourproject_2stim_asymm_v5,2020.2.10,MacIntel,60,61025ae37ef11b136ea224fe,,,,,,,,,2763,106.8242188,34.06640625,1,0,0,response1disk,,6,3.30859375,5.96484375,1,0,0,rectangle,3.30859375,5.96484375,1,0,0,3.30859375,5.96484375,1,0,0,0,31,31,26,1,,,,,,,,
,,,,,,,,,,,,,FF,,,,,,,,2.134,,,,,,,,,,,,,,,,,,,,,,60fde54d65129218d68d8017,61036e08e74451882cc1283a,2021-07-29_20h13.04.247,Simcolourproject_2stim_asymm_v5,2020.2.10,MacIntel,60,61025ae37ef11b136ea224fe,,,,,,,,,3473,-94.4453125,-64.08203125,1,0,0,response5disk,,2,-1.77734375,-2.03515625,1,0,0,rectangle,-1.77734375,-2.03515625,1,0,0,-1.77734375,-2.03515625,1,0,0,0,32,32,114,1,,,,,,,,
,,,,,,,,,,,,,FF,,,,,,,,1.033,,,,,,,,,,,,,,,,,,,,,,60fde54d65129218d68d8017,61036e08e74451882cc1283a,2021-07-29_20h13.04.247,Simcolourproject_2stim_asymm_v5,2020.2.10,MacIntel,60,61025ae37ef11b136ea224fe,,,,,,,,,2853,31.78125,-82.5546875,1,0,0,response3disk,,4,4.39453125,0.1484375,1,0,0,rectangle,4.39453125,0.1484375,1,0,0,4.39453125,0.1484375,1,0,0,0,33,33,29,1,,,,,,,,
,,,,,,,,,,,,,FF,,,,,,,,1.7827,,,,,,,,,,,,,,,,,,,,,,60fde54d65129218d68d8017,61036e08e74451882cc1283a,2021-07-29_20h13.04.247,Simcolourproject_2stim_asymm_v5,2020.2.10,MacIntel,60,61025ae37ef11b136ea224fe,,,,,,,,,2479,39.4453125,89.6796875,1,0,0,response1disk,,7,-1.17578125,0.97265625,1,0,0,rectangle,-75.8671875,50.40625,1,0,0,9.5390625,-10.16796875,1,0,0,0,34,34,47,1,,response7disk_3,TRUE,1,1,"[80,81,303,152,206,278,186,153,17,212,181,13,39,51,41,186,35,141,60,140]",8.7017,rectangle
,,,,,,,,,,,,,FF,,,,,,,,3.2005,,,,,,,,,,,,,,,,,,,,,,60fde54d65129218d68d8017,61036e08e74451882cc1283a,2021-07-29_20h13.04.247,Simcolourproject_2stim_asymm_v5,2020.2.10,MacIntel,60,61025ae37ef11b136ea224fe,,,,,,,,,73,-76.59375,-43.85546875,1,0,0,response5disk,,2,-10.015625,5.42578125,1,0,0,rectangle,-10.015625,5.42578125,1,0,0,-10.015625,5.42578125,1,0,0,0,35,35,82,1,,,,,,,,
,,,,,,,,,,,,,FF,,,,,,,,1.3835,,,,,,,,,,,,,,,,,,,,,,60fde54d65129218d68d8017,61036e08e74451882cc1283a,2021-07-29_20h13.04.247,Simcolourproject_2stim_asymm_v5,2020.2.10,MacIntel,60,61025ae37ef11b136ea224fe,,,,,,,,,3363,82.88671875,24.73828125,1,0,0,response1disk,,6,24.39453125,3.51171875,1,0,0,rectangle,24.39453125,3.51171875,1,0,0,24.39453125,3.51171875,1,0,0,0,36,36,85,1,,,,,,,,
,,,,,,,,,,,,,FF,,,,,,,,1.0822,,,,,,,,,,,,,,,,,,,,,,60fde54d65129218d68d8017,61036e08e74451882cc1283a,2021-07-29_20h13.04.247,Simcolourproject_2stim_asymm_v5,2020.2.10,MacIntel,60,61025ae37ef11b136ea224fe,,,,,,,,,3791,-31.59765625,-90.91796875,1,0,0,response5disk,,3,-10.80078125,-1.78515625,1,0,0,rectangle,-10.80078125,-1.78515625,1,0,0,-10.80078125,-1.78515625,1,0,0,0,37,37,106,1,,,,,,,,
,,,,,,,,,,,,,FF,,,,,,,,6.0847,,,,,,,,,,,,,,,,,,,,,,60fde54d65129218d68d8017,61036e08e74451882cc1283a,2021-07-29_20h13.04.247,Simcolourproject_2stim_asymm_v5,2020.2.10,MacIntel,60,61025ae37ef11b136ea224fe,,,,,,,,,1981,-33.64453125,-84.4765625,1,0,0,response5disk,,3,5.11328125,-1.00390625,1,0,0,rectangle,93.91015625,-51.3359375,1,0,0,11.16015625,-1.78515625,1,0,0,0,38,38,57,1,,response3disk_3,TRUE,5,5,"[80,81,303,152,206,278,186,153,17,212,181,13,39,51,41,186,35,141,60,140]",1.6841,rectangle
,,,,,,,,,,,,,FF,,,,,,,,1.1334,,,,,,,,,,,,,,,,,,,,,,60fde54d65129218d68d8017,61036e08e74451882cc1283a,2021-07-29_20h13.04.247,Simcolourproject_2stim_asymm_v5,2020.2.10,MacIntel,60,61025ae37ef11b136ea224fe,,,,,,,,,3890,98.3984375,58.421875,1,0,0,response1disk,,6,4.1875,2.65625,1,0,0,rectangle,4.1875,2.65625,1,0,0,4.1875,2.65625,1,0,0,0,39,39,1,1,,,,,,,,
,,,,,,,,,,,,,FF,,,,,,,,1.0167,,,,,,,,,,,,,,,,,,,,,,60fde54d65129218d68d8017,61036e08e74451882cc1283a,2021-07-29_20h13.04.247,Simcolourproject_2stim_asymm_v5,2020.2.10,MacIntel,60,61025ae37ef11b136ea224fe,,,,,,,,,4265,53.5234375,82.6640625,1,0,0,response1disk,,7,10.296875,-1.47265625,1,0,0,rectangle,52.28125,97.67578125,1,0,0,23.84375,-3.26953125,1,0,0,0,40,40,33,1,,response1disk_3,TRUE,7,7,"[80,81,303,152,206,278,186,153,17,212,181,13,39,51,41,186,35,141,60,140]",2.3841,rectangle
,,,,,,,,,,,,,FF,,,,,,,,0.8669,,,,,,,,,,,,,,,,,,,,,,60fde54d65129218d68d8017,61036e08e74451882cc1283a,2021-07-29_20h13.04.247,Simcolourproject_2stim_asymm_v5,2020.2.10,MacIntel,60,61025ae37ef11b136ea224fe,,,,,,,,,3510,-42.21875,88.33984375,1,0,0,response7disk,,0,-11.828125,1.6015625,1,0,0,rectangle,-11.828125,1.6015625,1,0,0,-11.828125,1.6015625,1,0,0,0,41,41,9,1,,,,,,,,
,,,,,,,,,,,,,FF,,,,,,,,1.8676,,,,,,,,,,,,,,,,,,,,,,60fde54d65129218d68d8017,61036e08e74451882cc1283a,2021-07-29_20h13.04.247,Simcolourproject_2stim_asymm_v5,2020.2.10,MacIntel,60,61025ae37ef11b136ea224fe,,,,,,,,,3193,-46.640625,-67.87890625,1,0,0,response5disk,,3,8.7265625,0.48046875,1,0,0,rectangle,8.7265625,0.48046875,1,0,0,8.7265625,0.48046875,1,0,0,0,42,42,70,1,,,,,,,,
,,,,,,,,,,,,,FF,,,,,,,,1.1335,,,,,,,,,,,,,,,,,,,,,,60fde54d65129218d68d8017,61036e08e74451882cc1283a,2021-07-29_20h13.04.247,Simcolourproject_2stim_asymm_v5,2020.2.10,MacIntel,60,61025ae37ef11b136ea224fe,,,,,,,,,86,88.9453125,37.75,1,0,0,response1disk,,6,0.09765625,6.06640625,1,0,0,rectangle,0.09765625,6.06640625,1,0,0,0.09765625,6.06640625,1,0,0,0,43,43,119,1,,,,,,,,
,,,,,,,,,,,,,FF,,,,,,,,1.1706,,,,,,,,,,,,,,,,,,,,,,60fde54d65129218d68d8017,61036e08e74451882cc1283a,2021-07-29_20h13.04.247,Simcolourproject_2stim_asymm_v5,2020.2.10,MacIntel,60,61025ae37ef11b136ea224fe,,,,,,,,,2695,-52.2890625,-100.8945313,1,0,0,response5disk,,3,1.07421875,-4.6015625,1,0,0,rectangle,1.07421875,-4.6015625,1,0,0,1.07421875,-4.6015625,1,0,0,0,44,44,41,1,,,,,,,,
,,,,,,,,,,,,,FF,,,,,,,,1.0177,,,,,,,,,,,,,,,,,,,,,,60fde54d65129218d68d8017,61036e08e74451882cc1283a,2021-07-29_20h13.04.247,Simcolourproject_2stim_asymm_v5,2020.2.10,MacIntel,60,61025ae37ef11b136ea224fe,,,,,,,,,3521,-46.69140625,-89.53125,1,0,0,response5disk,,3,6.6015625,-4.609375,1,0,0,rectangle,6.6015625,-4.609375,1,0,0,6.6015625,-4.609375,1,0,0,0,45,45,6,1,,,,,,,,
,,,,,,,,,,,,,FF,,,,,,,,1.0998,,,,,,,,,,,,,,,,,,,,,,60fde54d65129218d68d8017,61036e08e74451882cc1283a,2021-07-29_20h13.04.247,Simcolourproject_2stim_asymm_v5,2020.2.10,MacIntel,60,61025ae37ef11b136ea224fe,,,,,,,,,1597,-76.37890625,58.64453125,1,0,0,response7disk,,1,18.50390625,-4.9140625,1,0,0,rectangle,18.50390625,-4.9140625,1,0,0,18.50390625,-4.9140625,1,0,0,0,46,46,78,1,,,,,,,,
,,,,,,,,,,,,,FF,,,,,,,,1.0669,,,,,,,,,,,,,,,,,,,,,,60fde54d65129218d68d8017,61036e08e74451882cc1283a,2021-07-29_20h13.04.247,Simcolourproject_2stim_asymm_v5,2020.2.10,MacIntel,60,61025ae37ef11b136ea224fe,,,,,,,,,4097,-82.47265625,53.4296875,1,0,0,response7disk,,1,-24.37109375,2.3203125,1,0,0,rectangle,-24.37109375,2.3203125,1,0,0,-24.37109375,2.3203125,1,0,0,0,47,47,72,1,,,,,,,,
,,,,,,,,,,,,,FF,,,,,,,,1.3838,,,,,,,,,,,,,,,,,,,,,,60fde54d65129218d68d8017,61036e08e74451882cc1283a,2021-07-29_20h13.04.247,Simcolourproject_2stim_asymm_v5,2020.2.10,MacIntel,60,61025ae37ef11b136ea224fe,,,,,,,,,1192,-89.35546875,-28.95703125,1,0,0,response5disk,,2,-6.6875,-2.984375,1,0,0,rectangle,-6.6875,-2.984375,1,0,0,-6.6875,-2.984375,1,0,0,0,48,48,103,1,,,,,,,,
,,,,,,,,,,,,,FF,,,,,,,,1.5505,,,,,,,,,,,,,,,,,,,,,,60fde54d65129218d68d8017,61036e08e74451882cc1283a,2021-07-29_20h13.04.247,Simcolourproject_2stim_asymm_v5,2020.2.10,MacIntel,60,61025ae37ef11b136ea224fe,,,,,,,,,978,-37.68359375,-100.4414063,1,0,0,response5disk,,3,-2.765625,2.1015625,1,0,0,rectangle,-2.765625,2.1015625,1,0,0,-2.765625,2.1015625,1,0,0,0,49,49,117,1,,,,,,,,
,,,,,,,,,,,,,FF,,,,,,,,2.1675,,,,,,,,,,,,,,,,,,,,,,60fde54d65129218d68d8017,61036e08e74451882cc1283a,2021-07-29_20h13.04.247,Simcolourproject_2stim_asymm_v5,2020.2.10,MacIntel,60,61025ae37ef11b136ea224fe,,,,,,,,,3069,68.19921875,-43.56640625,1,0,0,response3disk,,5,23.12109375,-4.7265625,1,0,0,rectangle,99.0234375,45.37109375,1,0,0,19.7421875,4.9140625,1,0,0,0,50,50,24,1,,response1disk_3,TRUE,6,6,"[80,81,303,152,206,278,186,153,17,212,181,13,39,51,41,186,35,141,60,140]",1.8513,rectangle
,,,,,,,,,,,,,FF,,,,,,,,0.9336,,,,,,,,,,,,,,,,,,,,,,60fde54d65129218d68d8017,61036e08e74451882cc1283a,2021-07-29_20h13.04.247,Simcolourproject_2stim_asymm_v5,2020.2.10,MacIntel,60,61025ae37ef11b136ea224fe,,,,,,,,,2832,-47.109375,88.87890625,1,0,0,response7disk,,0,-13.89453125,-7.79296875,1,0,0,rectangle,-13.89453125,-7.79296875,1,0,0,-13.89453125,-7.79296875,1,0,0,0,51,51,154,1,,,,,,,,
,,,,,,,,,,,,,FF,,,,,,,,2.6837,,,,,,,,,,,,,,,,,,,,,,60fde54d65129218d68d8017,61036e08e74451882cc1283a,2021-07-29_20h13.04.247,Simcolourproject_2stim_asymm_v5,2020.2.10,MacIntel,60,61025ae37ef11b136ea224fe,,,,,,,,,2000,-52.58984375,-95.66015625,1,0,0,response5disk,,3,-4.90625,0.6328125,1,0,0,rectangle,-4.90625,0.6328125,1,0,0,-4.90625,0.6328125,1,0,0,0,52,52,137,1,,,,,,,,
,,,,,,,,,,,,,FF,,,,,,,,3.084,,,,,,,,,,,,,,,,,,,,,,60fde54d65129218d68d8017,61036e08e74451882cc1283a,2021-07-29_20h13.04.247,Simcolourproject_2stim_asymm_v5,2020.2.10,MacIntel,60,61025ae37ef11b136ea224fe,,,,,,,,,1781,76.4921875,-43.48828125,1,0,0,response3disk,,5,29.52734375,-4.1640625,1,0,0,rectangle,29.52734375,-4.1640625,1,0,0,29.52734375,-4.1640625,1,0,0,0,53,53,10,1,,,,,,,,
,,,,,,,,,,,,,FF,,,,,,,,1.3506,,,,,,,,,,,,,,,,,,,,,,60fde54d65129218d68d8017,61036e08e74451882cc1283a,2021-07-29_20h13.04.247,Simcolourproject_2stim_asymm_v5,2020.2.10,MacIntel,60,61025ae37ef11b136ea224fe,,,,,,,,,471,29.7109375,-88.4375,1,0,0,response3disk,,4,13.50390625,-7.33203125,1,0,0,rectangle,13.50390625,-7.33203125,1,0,0,13.50390625,-7.33203125,1,0,0,0,54,54,11,1,,,,,,,,
,,,,,,,,,,,,,FF,,,,,,,,1.4666,,,,,,,,,,,,,,,,,,,,,,60fde54d65129218d68d8017,61036e08e74451882cc1283a,2021-07-29_20h13.04.247,Simcolourproject_2stim_asymm_v5,2020.2.10,MacIntel,60,61025ae37ef11b136ea224fe,,,,,,,,,3408,44.828125,90.8828125,1,0,0,response1disk,,7,22.94140625,4.16796875,1,0,0,rectangle,22.94140625,4.16796875,1,0,0,22.94140625,4.16796875,1,0,0,0,55,55,150,1,,,,,,,,
,,,,,,,,,,,,,FF,,,,,,,,1.6508,,,,,,,,,,,,,,,,,,,,,,60fde54d65129218d68d8017,61036e08e74451882cc1283a,2021-07-29_20h13.04.247,Simcolourproject_2stim_asymm_v5,2020.2.10,MacIntel,60,61025ae37ef11b136ea224fe,,,,,,,,,2227,-87.63671875,-40.109375,1,0,0,response5disk,,2,-16.9296875,-2.16796875,1,0,0,rectangle,-16.9296875,-2.16796875,1,0,0,-16.9296875,-2.16796875,1,0,0,0,56,56,101,1,,,,,,,,
,,,,,,,,,,,,,FF,,,,,,,,1.5497,,,,,,,,,,,,,,,,,,,,,,60fde54d65129218d68d8017,61036e08e74451882cc1283a,2021-07-29_20h13.04.247,Simcolourproject_2stim_asymm_v5,2020.2.10,MacIntel,60,61025ae37ef11b136ea224fe,,,,,,,,,3755,-51.65234375,-79.1484375,1,0,0,response5disk,,3,-14.1015625,-11.00390625,1,0,0,rectangle,-14.1015625,-11.00390625,1,0,0,-14.1015625,-11.00390625,1,0,0,0,57,57,158,1,,,,,,,,
,,,,,,,,,,,,,FF,,,,,,,,1.2666,,,,,,,,,,,,,,,,,,,,,,60fde54d65129218d68d8017,61036e08e74451882cc1283a,2021-07-29_20h13.04.247,Simcolourproject_2stim_asymm_v5,2020.2.10,MacIntel,60,61025ae37ef11b136ea224fe,,,,,,,,,3327,101.8359375,-49.28125,1,0,0,response3disk,,5,6.453125,-0.078125,1,0,0,rectangle,6.453125,-0.078125,1,0,0,6.453125,-0.078125,1,0,0,0,58,58,75,1,,,,,,,,
,,,,,,,,,,,,,FF,,,,,,,,1.2837,,,,,,,,,,,,,,,,,,,,,,60fde54d65129218d68d8017,61036e08e74451882cc1283a,2021-07-29_20h13.04.247,Simcolourproject_2stim_asymm_v5,2020.2.10,MacIntel,60,61025ae37ef11b136ea224fe,,,,,,,,,3693,85.28125,30.89453125,1,0,0,response1disk,,6,-6.4140625,2.921875,1,0,0,rectangle,-38.14453125,-107.953125,1,0,0,9.11328125,-2.35546875,1,0,0,0,59,59,110,1,,response5disk_3,TRUE,3,3,"[80,81,303,152,206,278,186,153,17,212,181,13,39,51,41,186,35,141,60,140]",2.4011,rectangle
,,,,,,,,,,,,,FF,,,,,,,,1.4158,,,,,,,,,,,,,,,,,,,,,,60fde54d65129218d68d8017,61036e08e74451882cc1283a,2021-07-29_20h13.04.247,Simcolourproject_2stim_asymm_v5,2020.2.10,MacIntel,60,61025ae37ef11b136ea224fe,,,,,,,,,3552,-45.48828125,106.5117188,1,0,0,response7disk,,0,-18.60546875,-5.83203125,1,0,0,rectangle,-18.60546875,-5.83203125,1,0,0,-18.60546875,-5.83203125,1,0,0,0,60,60,52,1,,,,,,,,
,,,,,,,,,,,,,FF,,,,,,,,1.002,,,,,,,,,,,,,,,,,,,,,,60fde54d65129218d68d8017,61036e08e74451882cc1283a,2021-07-29_20h13.04.247,Simcolourproject_2stim_asymm_v5,2020.2.10,MacIntel,60,61025ae37ef11b136ea224fe,,,,,,,,,4277,-66.41015625,-37.49609375,1,0,0,response5disk,,2,-8.69140625,-9.62890625,1,0,0,rectangle,-8.69140625,-9.62890625,1,0,0,-8.69140625,-9.62890625,1,0,0,0,61,61,30,1,,,,,,,,
,,,,,,,,,,,,,FF,,,,,,,,0.85,,,,,,,,,,,,,,,,,,,,,,60fde54d65129218d68d8017,61036e08e74451882cc1283a,2021-07-29_20h13.04.247,Simcolourproject_2stim_asymm_v5,2020.2.10,MacIntel,60,61025ae37ef11b136ea224fe,,,,,,,,,1200,-95.08203125,-56.48046875,1,0,0,response5disk,,2,2.484375,-1.09765625,1,0,0,rectangle,2.484375,-1.09765625,1,0,0,2.484375,-1.09765625,1,0,0,0,62,62,145,1,,,,,,,,
,,,,,,,,,,,,,FF,,,,,,,,1.2837,,,,,,,,,,,,,,,,,,,,,,60fde54d65129218d68d8017,61036e08e74451882cc1283a,2021-07-29_20h13.04.247,Simcolourproject_2stim_asymm_v5,2020.2.10,MacIntel,60,61025ae37ef11b136ea224fe,,,,,,,,,1654,90.671875,-41.77734375,1,0,0,response3disk,,5,27.8359375,1.61328125,1,0,0,rectangle,27.8359375,1.61328125,1,0,0,27.8359375,1.61328125,1,0,0,0,63,63,58,1,,,,,,,,
,,,,,,,,,,,,,FF,,,,,,,,3.017,,,,,,,,,,,,,,,,,,,,,,60fde54d65129218d68d8017,61036e08e74451882cc1283a,2021-07-29_20h13.04.247,Simcolourproject_2stim_asymm_v5,2020.2.10,MacIntel,60,61025ae37ef11b136ea224fe,,,,,,,,,3752,42.31640625,-64.5,1,0,0,response3disk,,4,-1.91015625,3.96875,1,0,0,rectangle,-1.91015625,3.96875,1,0,0,-1.91015625,3.96875,1,0,0,0,64,64,139,1,,,,,,,,
,,,,,,,,,,,,,FF,,,,,,,,1.5169,,,,,,,,,,,,,,,,,,,,,,60fde54d65129218d68d8017,61036e08e74451882cc1283a,2021-07-29_20h13.04.247,Simcolourproject_2stim_asymm_v5,2020.2.10,MacIntel,60,61025ae37ef11b136ea224fe,,,,,,,,,4058,40.06640625,-87.015625,1,0,0,response3disk,,4,19.78125,-7.625,1,0,0,rectangle,19.78125,-7.625,1,0,0,19.78125,-7.625,1,0,0,0,65,65,19,1,,,,,,,,
,,,,,,,,,,,,,FF,,,,,,,,1.3163,,,,,,,,,,,,,,,,,,,,,,60fde54d65129218d68d8017,61036e08e74451882cc1283a,2021-07-29_20h13.04.247,Simcolourproject_2stim_asymm_v5,2020.2.10,MacIntel,60,61025ae37ef11b136ea224fe,,,,,,,,,450,34.8046875,-81.3125,1,0,0,response3disk,,4,-7.24609375,2.546875,1,0,0,rectangle,-7.24609375,2.546875,1,0,0,-7.24609375,2.546875,1,0,0,0,66,66,64,1,,,,,,,,
,,,,,,,,,,,,,FF,,,,,,,,1.2843,,,,,,,,,,,,,,,,,,,,,,60fde54d65129218d68d8017,61036e08e74451882cc1283a,2021-07-29_20h13.04.247,Simcolourproject_2stim_asymm_v5,2020.2.10,MacIntel,60,61025ae37ef11b136ea224fe,,,,,,,,,2839,-78.578125,-48.0390625,1,0,0,response5disk,,2,0.9921875,7.59765625,1,0,0,rectangle,0.9921875,7.59765625,1,0,0,0.9921875,7.59765625,1,0,0,0,67,67,66,1,,,,,,,,
,,,,,,,,,,,,,FF,,,,,,,,1.1172,,,,,,,,,,,,,,,,,,,,,,60fde54d65129218d68d8017,61036e08e74451882cc1283a,2021-07-29_20h13.04.247,Simcolourproject_2stim_asymm_v5,2020.2.10,MacIntel,60,61025ae37ef11b136ea224fe,,,,,,,,,902,-53.046875,-80.265625,1,0,0,response5disk,,3,17.91015625,7.5234375,1,0,0,rectangle,17.91015625,7.5234375,1,0,0,17.91015625,7.5234375,1,0,0,0,68,68,142,1,,,,,,,,
,,,,,,,,,,,,,FF,,,,,,,,1.4672,,,,,,,,,,,,,,,,,,,,,,60fde54d65129218d68d8017,61036e08e74451882cc1283a,2021-07-29_20h13.04.247,Simcolourproject_2stim_asymm_v5,2020.2.10,MacIntel,60,61025ae37ef11b136ea224fe,,,,,,,,,958,-87.734375,-42.5234375,1,0,0,response5disk,,2,0.19140625,1.3828125,1,0,0,rectangle,0.19140625,1.3828125,1,0,0,0.19140625,1.3828125,1,0,0,0,69,69,113,1,,,,,,,,
,,,,,,,,,,,,,FF,,,,,,,,1.2999,,,,,,,,,,,,,,,,,,,,,,60fde54d65129218d68d8017,61036e08e74451882cc1283a,2021-07-29_20h13.04.247,Simcolourproject_2stim_asymm_v5,2020.2.10,MacIntel,60,61025ae37ef11b136ea224fe,,,,,,,,,940,61.625,83.453125,1,0,0,response1disk,,7,5.21875,10.47265625,1,0,0,rectangle,5.21875,10.47265625,1,0,0,5.21875,10.47265625,1,0,0,0,70,70,16,1,,,,,,,,
,,,,,,,,,,,,,FF,,,,,,,,2.7002,,,,,,,,,,,,,,,,,,,,,,60fde54d65129218d68d8017,61036e08e74451882cc1283a,2021-07-29_20h13.04.247,Simcolourproject_2stim_asymm_v5,2020.2.10,MacIntel,60,61025ae37ef11b136ea224fe,,,,,,,,,1072,-91.0234375,-34.26171875,1,0,0,response5disk,,2,-1.26953125,-11.91015625,1,0,0,rectangle,-1.26953125,-11.91015625,1,0,0,-1.26953125,-11.91015625,1,0,0,0,71,71,83,1,,,,,,,,
,,,,,,,,,,,,,FF,,,,,,,,1.1343,,,,,,,,,,,,,,,,,,,,,,60fde54d65129218d68d8017,61036e08e74451882cc1283a,2021-07-29_20h13.04.247,Simcolourproject_2stim_asymm_v5,2020.2.10,MacIntel,60,61025ae37ef11b136ea224fe,,,,,,,,,1105,66.06640625,-47.70703125,1,0,0,response3disk,,5,9.66796875,7.39453125,1,0,0,rectangle,9.66796875,7.39453125,1,0,0,9.66796875,7.39453125,1,0,0,0,72,72,153,1,,,,,,,,
,,,,,,,,,,,,,FF,,,,,,,,2.1496,,,,,,,,,,,,,,,,,,,,,,60fde54d65129218d68d8017,61036e08e74451882cc1283a,2021-07-29_20h13.04.247,Simcolourproject_2stim_asymm_v5,2020.2.10,MacIntel,60,61025ae37ef11b136ea224fe,,,,,,,,,2399,83.28515625,-38.484375,1,0,0,response3disk,,5,10.36328125,-12.1484375,1,0,0,rectangle,10.36328125,-12.1484375,1,0,0,10.36328125,-12.1484375,1,0,0,0,73,73,87,1,,,,,,,,
,,,,,,,,,,,,,FF,,,,,,,,1.2504,,,,,,,,,,,,,,,,,,,,,,60fde54d65129218d68d8017,61036e08e74451882cc1283a,2021-07-29_20h13.04.247,Simcolourproject_2stim_asymm_v5,2020.2.10,MacIntel,60,61025ae37ef11b136ea224fe,,,,,,,,,3240,-59.41015625,-72.6015625,1,0,0,response5disk,,3,-0.296875,-0.27734375,1,0,0,rectangle,-0.296875,-0.27734375,1,0,0,-0.296875,-0.27734375,1,0,0,0,74,74,111,1,,,,,,,,
,,,,,,,,,,,,,FF,,,,,,,,1.4185,,,,,,,,,,,,,,,,,,,,,,60fde54d65129218d68d8017,61036e08e74451882cc1283a,2021-07-29_20h13.04.247,Simcolourproject_2stim_asymm_v5,2020.2.10,MacIntel,60,61025ae37ef11b136ea224fe,,,,,,,,,1432,38.81640625,-66.5546875,1,0,0,response3disk,,4,13.78515625,-4,1,0,0,rectangle,13.78515625,-4,1,0,0,13.78515625,-4,1,0,0,0,75,75,138,1,,,,,,,,
,,,,,,,,,,,,,FF,,,,,,,,1.8673,,,,,,,,,,,,,,,,,,,,,,60fde54d65129218d68d8017,61036e08e74451882cc1283a,2021-07-29_20h13.04.247,Simcolourproject_2stim_asymm_v5,2020.2.10,MacIntel,60,61025ae37ef11b136ea224fe,,,,,,,,,1379,-41.35546875,-68.75,1,0,0,response5disk,,3,-0.1953125,-1.484375,1,0,0,rectangle,-0.1953125,-1.484375,1,0,0,-0.1953125,-1.484375,1,0,0,0,76,76,126,1,,,,,,,,
,,,,,,,,,,,,,FF,,,,,,,,4.9003,,,,,,,,,,,,,,,,,,,,,,60fde54d65129218d68d8017,61036e08e74451882cc1283a,2021-07-29_20h13.04.247,Simcolourproject_2stim_asymm_v5,2020.2.10,MacIntel,60,61025ae37ef11b136ea224fe,,,,,,,,,3595,-45.3671875,-115.4765625,1,0,0,response5disk,,3,12.1171875,4.19140625,1,0,0,rectangle,12.1171875,4.19140625,1,0,0,12.1171875,4.19140625,1,0,0,0,77,77,0,1,,,,,,,,
,,,,,,,,,,,,,FF,,,,,,,,1.3506,,,,,,,,,,,,,,,,,,,,,,60fde54d65129218d68d8017,61036e08e74451882cc1283a,2021-07-29_20h13.04.247,Simcolourproject_2stim_asymm_v5,2020.2.10,MacIntel,60,61025ae37ef11b136ea224fe,,,,,,,,,206,-98.66796875,-32.38671875,1,0,0,response5disk,,2,-14.2421875,4.546875,1,0,0,rectangle,-14.2421875,4.546875,1,0,0,-14.2421875,4.546875,1,0,0,0,78,78,122,1,,,,,,,,
,,,,,,,,,,,,,FF,,,,,,,,4.9503,,,,,,,,,,,,,,,,,,,,,,60fde54d65129218d68d8017,61036e08e74451882cc1283a,2021-07-29_20h13.04.247,Simcolourproject_2stim_asymm_v5,2020.2.10,MacIntel,60,61025ae37ef11b136ea224fe,,,,,,,,,997,-53.9765625,-68.3671875,1,0,0,response5disk,,3,5.83984375,8,1,0,0,rectangle,81.48828125,36.2421875,1,0,0,-10.625,-5.83203125,1,0,0,0,79,79,104,1,,response1disk_3,TRUE,6,6,"[80,81,303,152,206,278,186,153,17,212,181,13,39,51,41,186,35,141,60,140]",1.784,rectangle
,,,,,,,,,,,,,FF,,,,,,,,1.4669,,,,,,,,,,,,,,,,,,,,,,60fde54d65129218d68d8017,61036e08e74451882cc1283a,2021-07-29_20h13.04.247,Simcolourproject_2stim_asymm_v5,2020.2.10,MacIntel,60,61025ae37ef11b136ea224fe,,,,,,,,,1716,34.6171875,71.296875,1,0,0,response1disk,,7,-18.01171875,-6.60546875,1,0,0,rectangle,86.1328125,-45.7890625,1,0,0,-13.39453125,-5.0390625,1,0,0,0,80,80,56,1,,response3disk_3,TRUE,5,5,"[80,81,303,152,206,278,186,153,17,212,181,13,39,51,41,186,35,141,60,140]",1.9169,rectangle
,,,,,,,,,,,,,FF,,,,,,,,1.4503,,,,,,,,,,,,,,,,,,,,,,60fde54d65129218d68d8017,61036e08e74451882cc1283a,2021-07-29_20h13.04.247,Simcolourproject_2stim_asymm_v5,2020.2.10,MacIntel,60,61025ae37ef11b136ea224fe,,,,,,,,,2474,47.32421875,-77.01953125,1,0,0,response3disk,,4,2.67578125,-5.609375,1,0,0,rectangle,2.67578125,-5.609375,1,0,0,2.67578125,-5.609375,1,0,0,0,81,81,90,1,,,,,,,,
,,,,,,,,,,,,,FF,,,,,,,,1.8004,,,,,,,,,,,,,,,,,,,,,,60fde54d65129218d68d8017,61036e08e74451882cc1283a,2021-07-29_20h13.04.247,Simcolourproject_2stim_asymm_v5,2020.2.10,MacIntel,60,61025ae37ef11b136ea224fe,,,,,,,,,2863,105.8203125,32.41796875,1,0,0,response1disk,,6,21.57421875,7.4765625,1,0,0,rectangle,21.57421875,7.4765625,1,0,0,21.57421875,7.4765625,1,0,0,0,82,82,146,1,,,,,,,,
,,,,,,,,,,,,,FF,,,,,,,,1.6833,,,,,,,,,,,,,,,,,,,,,,60fde54d65129218d68d8017,61036e08e74451882cc1283a,2021-07-29_20h13.04.247,Simcolourproject_2stim_asymm_v5,2020.2.10,MacIntel,60,61025ae37ef11b136ea224fe,,,,,,,,,1873,97.03515625,30.80078125,1,0,0,response1disk,,6,3.5625,-2.203125,1,0,0,rectangle,3.5625,-2.203125,1,0,0,3.5625,-2.203125,1,0,0,0,83,83,107,1,,,,,,,,
,,,,,,,,,,,,,FF,,,,,,,,0.933,,,,,,,,,,,,,,,,,,,,,,60fde54d65129218d68d8017,61036e08e74451882cc1283a,2021-07-29_20h13.04.247,Simcolourproject_2stim_asymm_v5,2020.2.10,MacIntel,60,61025ae37ef11b136ea224fe,,,,,,,,,1167,48.18359375,85.62109375,1,0,0,response1disk,,7,19.40625,6.703125,1,0,0,rectangle,19.40625,6.703125,1,0,0,19.40625,6.703125,1,0,0,0,84,84,44,1,,,,,,,,
,,,,,,,,,,,,,FF,,,,,,,,2.1846,,,,,,,,,,,,,,,,,,,,,,60fde54d65129218d68d8017,61036e08e74451882cc1283a,2021-07-29_20h13.04.247,Simcolourproject_2stim_asymm_v5,2020.2.10,MacIntel,60,61025ae37ef11b136ea224fe,,,,,,,,,1602,28.3828125,-66.55859375,1,0,0,response3disk,,4,-1.32421875,-1.97265625,1,0,0,rectangle,-1.32421875,-1.97265625,1,0,0,-1.32421875,-1.97265625,1,0,0,0,85,85,99,1,,,,,,,,
,,,,,,,,,,,,,FF,,,,,,,,1.6,,,,,,,,,,,,,,,,,,,,,,60fde54d65129218d68d8017,61036e08e74451882cc1283a,2021-07-29_20h13.04.247,Simcolourproject_2stim_asymm_v5,2020.2.10,MacIntel,60,61025ae37ef11b136ea224fe,,,,,,,,,936,111.671875,42.65234375,1,0,0,response1disk,,6,22.24609375,4.62109375,1,0,0,rectangle,22.24609375,4.62109375,1,0,0,22.24609375,4.62109375,1,0,0,0,86,86,131,1,,,,,,,,
,,,,,,,,,,,,,FF,,,,,,,,1.3665,,,,,,,,,,,,,,,,,,,,,,60fde54d65129218d68d8017,61036e08e74451882cc1283a,2021-07-29_20h13.04.247,Simcolourproject_2stim_asymm_v5,2020.2.10,MacIntel,60,61025ae37ef11b136ea224fe,,,,,,,,,2013,81.12890625,-47.484375,1,0,0,response3disk,,5,8.2265625,-3.2734375,1,0,0,rectangle,8.2265625,-3.2734375,1,0,0,8.2265625,-3.2734375,1,0,0,0,87,87,40,1,,,,,,,,
,,,,,,,,,,,,,FF,,,,,,,,1.3172,,,,,,,,,,,,,,,,,,,,,,60fde54d65129218d68d8017,61036e08e74451882cc1283a,2021-07-29_20h13.04.247,Simcolourproject_2stim_asymm_v5,2020.2.10,MacIntel,60,61025ae37ef11b136ea224fe,,,,,,,,,2359,28.9375,-84.13671875,1,0,0,response3disk,,4,8.78125,-5.2109375,1,0,0,rectangle,8.78125,-5.2109375,1,0,0,8.78125,-5.2109375,1,0,0,0,88,88,2,1,,,,,,,,
,,,,,,,,,,,,,FF,,,,,,,,1.1766,,,,,,,,,,,,,,,,,,,,,,60fde54d65129218d68d8017,61036e08e74451882cc1283a,2021-07-29_20h13.04.247,Simcolourproject_2stim_asymm_v5,2020.2.10,MacIntel,60,61025ae37ef11b136ea224fe,,,,,,,,,2051,40.171875,-72.6484375,1,0,0,response3disk,,4,1.81640625,-4.234375,1,0,0,rectangle,1.81640625,-4.234375,1,0,0,1.81640625,-4.234375,1,0,0,0,89,89,94,1,,,,,,,,
,,,,,,,,,,,,,FF,,,,,,,,1.3505,,,,,,,,,,,,,,,,,,,,,,60fde54d65129218d68d8017,61036e08e74451882cc1283a,2021-07-29_20h13.04.247,Simcolourproject_2stim_asymm_v5,2020.2.10,MacIntel,60,61025ae37ef11b136ea224fe,,,,,,,,,3171,100.890625,-23.6328125,1,0,0,response3disk,,5,28.73828125,-4.4375,1,0,0,rectangle,28.73828125,-4.4375,1,0,0,28.73828125,-4.4375,1,0,0,0,90,90,159,1,,,,,,,,
,,,,,,,,,,,,,FF,,,,,,,,1.1335,,,,,,,,,,,,,,,,,,,,,,60fde54d65129218d68d8017,61036e08e74451882cc1283a,2021-07-29_20h13.04.247,Simcolourproject_2stim_asymm_v5,2020.2.10,MacIntel,60,61025ae37ef11b136ea224fe,,,,,,,,,2203,90.98046875,45.95703125,1,0,0,response1disk,,6,17.64453125,1.33984375,1,0,0,rectangle,17.64453125,1.33984375,1,0,0,17.64453125,1.33984375,1,0,0,0,91,91,17,1,,,,,,,,
,,,,,,,,,,,,,FF,,,,,,,,2.0668,,,,,,,,,,,,,,,,,,,,,,60fde54d65129218d68d8017,61036e08e74451882cc1283a,2021-07-29_20h13.04.247,Simcolourproject_2stim_asymm_v5,2020.2.10,MacIntel,60,61025ae37ef11b136ea224fe,,,,,,,,,1850,86.2890625,55.37890625,1,0,0,response1disk,,6,8.71875,-0.28515625,1,0,0,rectangle,8.71875,-0.28515625,1,0,0,8.71875,-0.28515625,1,0,0,0,92,92,49,1,,,,,,,,
,,,,,,,,,,,,,FF,,,,,,,,1.7177,,,,,,,,,,,,,,,,,,,,,,60fde54d65129218d68d8017,61036e08e74451882cc1283a,2021-07-29_20h13.04.247,Simcolourproject_2stim_asymm_v5,2020.2.10,MacIntel,60,61025ae37ef11b136ea224fe,,,,,,,,,3827,84.00390625,-50.984375,1,0,0,response3disk,,5,3.4140625,-3.2734375,1,0,0,rectangle,3.4140625,-3.2734375,1,0,0,3.4140625,-3.2734375,1,0,0,0,93,93,93,1,,,,,,,,
,,,,,,,,,,,,,FF,,,,,,,,2.4506,,,,,,,,,,,,,,,,,,,,,,60fde54d65129218d68d8017,61036e08e74451882cc1283a,2021-07-29_20h13.04.247,Simcolourproject_2stim_asymm_v5,2020.2.10,MacIntel,60,61025ae37ef11b136ea224fe,,,,,,,,,2516,35.29296875,82.4609375,1,0,0,response1disk,,7,-23.68359375,-4.94921875,1,0,0,rectangle,-23.68359375,-4.94921875,1,0,0,-23.68359375,-4.94921875,1,0,0,0,94,94,38,1,,,,,,,,
,,,,,,,,,,,,,FF,,,,,,,,4.1008,,,,,,,,,,,,,,,,,,,,,,60fde54d65129218d68d8017,61036e08e74451882cc1283a,2021-07-29_20h13.04.247,Simcolourproject_2stim_asymm_v5,2020.2.10,MacIntel,60,61025ae37ef11b136ea224fe,,,,,,,,,1780,83.40234375,-40.37109375,1,0,0,response3disk,,5,25.91015625,-6.984375,1,0,0,rectangle,25.91015625,-6.984375,1,0,0,25.91015625,-6.984375,1,0,0,0,95,95,130,1,,,,,,,,
,,,,,,,,,,,,,FF,,,,,,,,2.2345,,,,,,,,,,,,,,,,,,,,,,60fde54d65129218d68d8017,61036e08e74451882cc1283a,2021-07-29_20h13.04.247,Simcolourproject_2stim_asymm_v5,2020.2.10,MacIntel,60,61025ae37ef11b136ea224fe,,,,,,,,,2647,66.59375,27.6875,1,0,0,response1disk,,6,5.76171875,1.06640625,1,0,0,rectangle,5.76171875,1.06640625,1,0,0,5.76171875,1.06640625,1,0,0,0,96,96,8,1,,,,,,,,
,,,,,,,,,,,,,FF,,,,,,,,1.7161,,,,,,,,,,,,,,,,,,,,,,60fde54d65129218d68d8017,61036e08e74451882cc1283a,2021-07-29_20h13.04.247,Simcolourproject_2stim_asymm_v5,2020.2.10,MacIntel,60,61025ae37ef11b136ea224fe,,,,,,,,,1457,27.3046875,-91.60546875,1,0,0,response3disk,,4,-2.8046875,-7.5234375,1,0,0,rectangle,-2.8046875,-7.5234375,1,0,0,-2.8046875,-7.5234375,1,0,0,0,97,97,34,1,,,,,,,,
,,,,,,,,,,,,,FF,,,,,,,,6.1668,,,,,,,,,,,,,,,,,,,,,,60fde54d65129218d68d8017,61036e08e74451882cc1283a,2021-07-29_20h13.04.247,Simcolourproject_2stim_asymm_v5,2020.2.10,MacIntel,60,61025ae37ef11b136ea224fe,,,,,,,,,1198,31.33203125,-66.890625,1,0,0,response3disk,,4,1.87890625,-0.17578125,1,0,0,rectangle,1.87890625,-0.17578125,1,0,0,1.87890625,-0.17578125,1,0,0,0,98,98,118,1,,,,,,,,
,,,,,,,,,,,,,FF,,,,,,,,2.0174,,,,,,,,,,,,,,,,,,,,,,60fde54d65129218d68d8017,61036e08e74451882cc1283a,2021-07-29_20h13.04.247,Simcolourproject_2stim_asymm_v5,2020.2.10,MacIntel,60,61025ae37ef11b136ea224fe,,,,,,,,,412,77.5390625,30.4140625,1,0,0,response1disk,,6,-3.8671875,5.26953125,1,0,0,rectangle,-3.8671875,5.26953125,1,0,0,-3.8671875,5.26953125,1,0,0,0,99,99,37,1,,,,,,,,
,,,,,,,,,,,,,FF,,,,,,,,1.151,,,,,,,,,,,,,,,,,,,,,,60fde54d65129218d68d8017,61036e08e74451882cc1283a,2021-07-29_20h13.04.247,Simcolourproject_2stim_asymm_v5,2020.2.10,MacIntel,60,61025ae37ef11b136ea224fe,,,,,,,,,1309,-51.68359375,-86.89453125,1,0,0,response5disk,,3,-3.3828125,-5.32421875,1,0,0,rectangle,-3.3828125,-5.32421875,1,0,0,-3.3828125,-5.32421875,1,0,0,0,100,100,86,1,,,,,,,,
,,,,,,,,,,,,,FF,,,,,,,,1.8491,,,,,,,,,,,,,,,,,,,,,,60fde54d65129218d68d8017,61036e08e74451882cc1283a,2021-07-29_20h13.04.247,Simcolourproject_2stim_asymm_v5,2020.2.10,MacIntel,60,61025ae37ef11b136ea224fe,,,,,,,,,3887,-39.3359375,-92.37109375,1,0,0,response5disk,,3,1.35546875,7.60546875,1,0,0,rectangle,1.35546875,7.60546875,1,0,0,1.35546875,7.60546875,1,0,0,0,101,101,4,1,,,,,,,,
,,,,,,,,,,,,,FF,,,,,,,,1.1493,,,,,,,,,,,,,,,,,,,,,,60fde54d65129218d68d8017,61036e08e74451882cc1283a,2021-07-29_20h13.04.247,Simcolourproject_2stim_asymm_v5,2020.2.10,MacIntel,60,61025ae37ef11b136ea224fe,,,,,,,,,2900,-94.11328125,-39.59765625,1,0,0,response5disk,,2,-3.5703125,-4.9375,1,0,0,rectangle,-3.5703125,-4.9375,1,0,0,-3.5703125,-4.9375,1,0,0,0,102,102,28,1,,,,,,,,
,,,,,,,,,,,,,FF,,,,,,,,1.9677,,,,,,,,,,,,,,,,,,,,,,60fde54d65129218d68d8017,61036e08e74451882cc1283a,2021-07-29_20h13.04.247,Simcolourproject_2stim_asymm_v5,2020.2.10,MacIntel,60,61025ae37ef11b136ea224fe,,,,,,,,,2959,-38.5703125,-76.59375,1,0,0,response5disk,,3,5.83984375,-5.70703125,1,0,0,rectangle,5.83984375,-5.70703125,1,0,0,5.83984375,-5.70703125,1,0,0,0,103,103,147,1,,,,,,,,
,,,,,,,,,,,,,FF,,,,,,,,0.9834,,,,,,,,,,,,,,,,,,,,,,60fde54d65129218d68d8017,61036e08e74451882cc1283a,2021-07-29_20h13.04.247,Simcolourproject_2stim_asymm_v5,2020.2.10,MacIntel,60,61025ae37ef11b136ea224fe,,,,,,,,,65,-43.24609375,-83.5390625,1,0,0,response5disk,,3,2.86328125,0.81640625,1,0,0,rectangle,2.86328125,0.81640625,1,0,0,2.86328125,0.81640625,1,0,0,0,104,104,140,1,,,,,,,,
,,,,,,,,,,,,,FF,,,,,,,,1.3006,,,,,,,,,,,,,,,,,,,,,,60fde54d65129218d68d8017,61036e08e74451882cc1283a,2021-07-29_20h13.04.247,Simcolourproject_2stim_asymm_v5,2020.2.10,MacIntel,60,61025ae37ef11b136ea224fe,,,,,,,,,3402,30.953125,-83.3671875,1,0,0,response3disk,,4,14.13671875,-3.61328125,1,0,0,rectangle,14.13671875,-3.61328125,1,0,0,14.13671875,-3.61328125,1,0,0,0,105,105,45,1,,,,,,,,
,,,,,,,,,,,,,FF,,,,,,,,1.3663,,,,,,,,,,,,,,,,,,,,,,60fde54d65129218d68d8017,61036e08e74451882cc1283a,2021-07-29_20h13.04.247,Simcolourproject_2stim_asymm_v5,2020.2.10,MacIntel,60,61025ae37ef11b136ea224fe,,,,,,,,,3485,54.7734375,-51.99609375,1,0,0,response3disk,,5,0.7734375,7.5078125,1,0,0,rectangle,0.7734375,7.5078125,1,0,0,0.7734375,7.5078125,1,0,0,0,106,106,35,1,,,,,,,,
,,,,,,,,,,,,,FF,,,,,,,,4.3842,,,,,,,,,,,,,,,,,,,,,,60fde54d65129218d68d8017,61036e08e74451882cc1283a,2021-07-29_20h13.04.247,Simcolourproject_2stim_asymm_v5,2020.2.10,MacIntel,60,61025ae37ef11b136ea224fe,,,,,,,,,3658,-36.51953125,-83.1796875,1,0,0,response5disk,,3,0.68359375,3.125,1,0,0,rectangle,0.68359375,3.125,1,0,0,0.68359375,3.125,1,0,0,0,107,107,125,1,,,,,,,,
,,,,,,,,,,,,,FF,,,,,,,,1.0829,,,,,,,,,,,,,,,,,,,,,,60fde54d65129218d68d8017,61036e08e74451882cc1283a,2021-07-29_20h13.04.247,Simcolourproject_2stim_asymm_v5,2020.2.10,MacIntel,60,61025ae37ef11b136ea224fe,,,,,,,,,1131,-38.140625,113.7070313,1,0,0,response7disk,,0,-5,-8.328125,1,0,0,rectangle,-5,-8.328125,1,0,0,-5,-8.328125,1,0,0,0,108,108,69,1,,,,,,,,
,,,,,,,,,,,,,FF,,,,,,,,1.2835,,,,,,,,,,,,,,,,,,,,,,60fde54d65129218d68d8017,61036e08e74451882cc1283a,2021-07-29_20h13.04.247,Simcolourproject_2stim_asymm_v5,2020.2.10,MacIntel,60,61025ae37ef11b136ea224fe,,,,,,,,,2374,-93.3203125,-47.74609375,1,0,0,response5disk,,2,16.27734375,-3.921875,1,0,0,rectangle,16.27734375,-3.921875,1,0,0,16.27734375,-3.921875,1,0,0,0,109,109,73,1,,,,,,,,
,,,,,,,,,,,,,FF,,,,,,,,1.9178,,,,,,,,,,,,,,,,,,,,,,60fde54d65129218d68d8017,61036e08e74451882cc1283a,2021-07-29_20h13.04.247,Simcolourproject_2stim_asymm_v5,2020.2.10,MacIntel,60,61025ae37ef11b136ea224fe,,,,,,,,,3627,-27.57421875,-69.03125,1,0,0,response5disk,,3,10.2421875,0.85546875,1,0,0,rectangle,10.2421875,0.85546875,1,0,0,10.2421875,0.85546875,1,0,0,0,110,110,54,1,,,,,,,,
,,,,,,,,,,,,,FF,,,,,,,,2.3345,,,,,,,,,,,,,,,,,,,,,,60fde54d65129218d68d8017,61036e08e74451882cc1283a,2021-07-29_20h13.04.247,Simcolourproject_2stim_asymm_v5,2020.2.10,MacIntel,60,61025ae37ef11b136ea224fe,,,,,,,,,2255,90.8125,-34.125,1,0,0,response3disk,,5,7.91796875,-1.1640625,1,0,0,rectangle,7.91796875,-1.1640625,1,0,0,7.91796875,-1.1640625,1,0,0,0,111,111,15,1,,,,,,,,
,,,,,,,,,,,,,FF,,,,,,,,2.8839,,,,,,,,,,,,,,,,,,,,,,60fde54d65129218d68d8017,61036e08e74451882cc1283a,2021-07-29_20h13.04.247,Simcolourproject_2stim_asymm_v5,2020.2.10,MacIntel,60,61025ae37ef11b136ea224fe,,,,,,,,,2844,101.5546875,-33.859375,1,0,0,response3disk,,5,20.625,0.48828125,1,0,0,rectangle,20.625,0.48828125,1,0,0,20.625,0.48828125,1,0,0,0,112,112,65,1,,,,,,,,
,,,,,,,,,,,,,FF,,,,,,,,3.9515,,,,,,,,,,,,,,,,,,,,,,60fde54d65129218d68d8017,61036e08e74451882cc1283a,2021-07-29_20h13.04.247,Simcolourproject_2stim_asymm_v5,2020.2.10,MacIntel,60,61025ae37ef11b136ea224fe,,,,,,,,,1870,62.72265625,-50.0859375,1,0,0,response3disk,,5,11.36328125,-8.2265625,1,0,0,rectangle,11.36328125,-8.2265625,1,0,0,11.36328125,-8.2265625,1,0,0,0,113,113,74,1,,,,,,,,
,,,,,,,,,,,,,FF,,,,,,,,2.5007,,,,,,,,,,,,,,,,,,,,,,60fde54d65129218d68d8017,61036e08e74451882cc1283a,2021-07-29_20h13.04.247,Simcolourproject_2stim_asymm_v5,2020.2.10,MacIntel,60,61025ae37ef11b136ea224fe,,,,,,,,,1336,23.49609375,-64.7890625,1,0,0,response3disk,,4,0.078125,-7.98046875,1,0,0,rectangle,0.078125,-7.98046875,1,0,0,0.078125,-7.98046875,1,0,0,0,114,114,116,1,,,,,,,,
,,,,,,,,,,,,,FF,,,,,,,,2.0502,,,,,,,,,,,,,,,,,,,,,,60fde54d65129218d68d8017,61036e08e74451882cc1283a,2021-07-29_20h13.04.247,Simcolourproject_2stim_asymm_v5,2020.2.10,MacIntel,60,61025ae37ef11b136ea224fe,,,,,,,,,497,65.0078125,-91.69140625,1,0,0,response3disk,,4,18.97265625,0.33984375,1,0,0,rectangle,18.97265625,0.33984375,1,0,0,18.97265625,0.33984375,1,0,0,0,115,115,156,1,,,,,,,,
,,,,,,,,,,,,,FF,,,,,,,,1.566,,,,,,,,,,,,,,,,,,,,,,60fde54d65129218d68d8017,61036e08e74451882cc1283a,2021-07-29_20h13.04.247,Simcolourproject_2stim_asymm_v5,2020.2.10,MacIntel,60,61025ae37ef11b136ea224fe,,,,,,,,,3232,70.72265625,-47.16796875,1,0,0,response3disk,,5,19.1953125,-6.96875,1,0,0,rectangle,19.1953125,-6.96875,1,0,0,19.1953125,-6.96875,1,0,0,0,116,116,108,1,,,,,,,,
,,,,,,,,,,,,,FF,,,,,,,,1.2002,,,,,,,,,,,,,,,,,,,,,,60fde54d65129218d68d8017,61036e08e74451882cc1283a,2021-07-29_20h13.04.247,Simcolourproject_2stim_asymm_v5,2020.2.10,MacIntel,60,61025ae37ef11b136ea224fe,,,,,,,,,3863,32.55859375,-78.88671875,1,0,0,response3disk,,4,12.84375,-6.125,1,0,0,rectangle,12.84375,-6.125,1,0,0,12.84375,-6.125,1,0,0,0,117,117,152,1,,,,,,,,
,,,,,,,,,,,,,FF,,,,,,,,1.2331,,,,,,,,,,,,,,,,,,,,,,60fde54d65129218d68d8017,61036e08e74451882cc1283a,2021-07-29_20h13.04.247,Simcolourproject_2stim_asymm_v5,2020.2.10,MacIntel,60,61025ae37ef11b136ea224fe,,,,,,,,,318,81.81640625,29.99609375,1,0,0,response1disk,,6,8.03515625,2.078125,1,0,0,rectangle,8.03515625,2.078125,1,0,0,8.03515625,2.078125,1,0,0,0,118,118,121,1,,,,,,,,
,,,,,,,,,,,,,FF,,,,,,,,2.3008,,,,,,,,,,,,,,,,,,,,,,60fde54d65129218d68d8017,61036e08e74451882cc1283a,2021-07-29_20h13.04.247,Simcolourproject_2stim_asymm_v5,2020.2.10,MacIntel,60,61025ae37ef11b136ea224fe,,,,,,,,,198,-33.34765625,-92.66015625,1,0,0,response5disk,,3,7.6484375,-5.1015625,1,0,0,rectangle,7.6484375,-5.1015625,1,0,0,7.6484375,-5.1015625,1,0,0,0,119,119,42,1,,,,,,,,
,,,,,,,,,,,,,FF,,,,,,,,1.0682,,,,,,,,,,,,,,,,,,,,,,60fde54d65129218d68d8017,61036e08e74451882cc1283a,2021-07-29_20h13.04.247,Simcolourproject_2stim_asymm_v5,2020.2.10,MacIntel,60,61025ae37ef11b136ea224fe,,,,,,,,,637,-71.5546875,-32.109375,1,0,0,response5disk,,2,-7.52734375,0.77734375,1,0,0,rectangle,-7.52734375,0.77734375,1,0,0,-7.52734375,0.77734375,1,0,0,0,120,120,61,1,,,,,,,,
,,,,,,,,,,,,,FF,,,,,,,,0.9001,,,,,,,,,,,,,,,,,,,,,,60fde54d65129218d68d8017,61036e08e74451882cc1283a,2021-07-29_20h13.04.247,Simcolourproject_2stim_asymm_v5,2020.2.10,MacIntel,60,61025ae37ef11b136ea224fe,,,,,,,,,970,-66.30078125,44.26953125,1,0,0,response7disk,,1,-0.3046875,-7.80078125,1,0,0,rectangle,-0.3046875,-7.80078125,1,0,0,-0.3046875,-7.80078125,1,0,0,0,121,121,136,1,,,,,,,,
,,,,,,,,,,,,,FF,,,,,,,,1.7661,,,,,,,,,,,,,,,,,,,,,,60fde54d65129218d68d8017,61036e08e74451882cc1283a,2021-07-29_20h13.04.247,Simcolourproject_2stim_asymm_v5,2020.2.10,MacIntel,60,61025ae37ef11b136ea224fe,,,,,,,,,2835,-50.890625,-95.03125,1,0,0,response5disk,,3,-0.1328125,-10.21875,1,0,0,rectangle,-0.1328125,-10.21875,1,0,0,-0.1328125,-10.21875,1,0,0,0,122,122,120,1,,,,,,,,
,,,,,,,,,,,,,FF,,,,,,,,1.9992,,,,,,,,,,,,,,,,,,,,,,60fde54d65129218d68d8017,61036e08e74451882cc1283a,2021-07-29_20h13.04.247,Simcolourproject_2stim_asymm_v5,2020.2.10,MacIntel,60,61025ae37ef11b136ea224fe,,,,,,,,,3018,40.8671875,106.1992188,1,0,0,response1disk,,7,-17.26953125,2.5,1,0,0,rectangle,-17.26953125,2.5,1,0,0,-17.26953125,2.5,1,0,0,0,123,123,53,1,,,,,,,,
,,,,,,,,,,,,,FF,,,,,,,,2.4673,,,,,,,,,,,,,,,,,,,,,,60fde54d65129218d68d8017,61036e08e74451882cc1283a,2021-07-29_20h13.04.247,Simcolourproject_2stim_asymm_v5,2020.2.10,MacIntel,60,61025ae37ef11b136ea224fe,,,,,,,,,2930,79.375,-27.9765625,1,0,0,response3disk,,5,18.98046875,-2.9296875,1,0,0,rectangle,18.98046875,-2.9296875,1,0,0,18.98046875,-2.9296875,1,0,0,0,124,124,151,1,,,,,,,,
,,,,,,,,,,,,,FF,,,,,,,,2.801,,,,,,,,,,,,,,,,,,,,,,60fde54d65129218d68d8017,61036e08e74451882cc1283a,2021-07-29_20h13.04.247,Simcolourproject_2stim_asymm_v5,2020.2.10,MacIntel,60,61025ae37ef11b136ea224fe,,,,,,,,,495,94.91015625,26.94140625,1,0,0,response1disk,,6,3.671875,-6.15234375,1,0,0,rectangle,3.671875,-6.15234375,1,0,0,3.671875,-6.15234375,1,0,0,0,125,125,12,1,,,,,,,,
,,,,,,,,,,,,,FF,,,,,,,,3.6507,,,,,,,,,,,,,,,,,,,,,,60fde54d65129218d68d8017,61036e08e74451882cc1283a,2021-07-29_20h13.04.247,Simcolourproject_2stim_asymm_v5,2020.2.10,MacIntel,60,61025ae37ef11b136ea224fe,,,,,,,,,492,88.9375,31.4921875,1,0,0,response1disk,,6,1.88671875,8.32421875,1,0,0,rectangle,1.88671875,8.32421875,1,0,0,1.88671875,8.32421875,1,0,0,0,126,126,68,1,,,,,,,,
,,,,,,,,,,,,,FF,,,,,,,,1.5333,,,,,,,,,,,,,,,,,,,,,,60fde54d65129218d68d8017,61036e08e74451882cc1283a,2021-07-29_20h13.04.247,Simcolourproject_2stim_asymm_v5,2020.2.10,MacIntel,60,61025ae37ef11b136ea224fe,,,,,,,,,3432,-60.53125,37.92578125,1,0,0,response7disk,,1,10.16796875,-11.24609375,1,0,0,rectangle,10.16796875,-11.24609375,1,0,0,10.16796875,-11.24609375,1,0,0,0,127,127,67,1,,,,,,,,
,,,,,,,,,,,,,FF,,,,,,,,3.2169,,,,,,,,,,,,,,,,,,,,,,60fde54d65129218d68d8017,61036e08e74451882cc1283a,2021-07-29_20h13.04.247,Simcolourproject_2stim_asymm_v5,2020.2.10,MacIntel,60,61025ae37ef11b136ea224fe,,,,,,,,,1604,-59.0390625,86.75,1,0,0,response7disk,,0,-19.53515625,4.03125,1,0,0,rectangle,-19.53515625,4.03125,1,0,0,-19.53515625,4.03125,1,0,0,0,128,128,98,1,,,,,,,,
,,,,,,,,,,,,,FF,,,,,,,,1.251,,,,,,,,,,,,,,,,,,,,,,60fde54d65129218d68d8017,61036e08e74451882cc1283a,2021-07-29_20h13.04.247,Simcolourproject_2stim_asymm_v5,2020.2.10,MacIntel,60,61025ae37ef11b136ea224fe,,,,,,,,,3118,-69.93359375,-24.2890625,1,0,0,response5disk,,2,6.2421875,-7.47265625,1,0,0,rectangle,6.2421875,-7.47265625,1,0,0,6.2421875,-7.47265625,1,0,0,0,129,129,43,1,,,,,,,,
,,,,,,,,,,,,,FF,,,,,,,,1.8506,,,,,,,,,,,,,,,,,,,,,,60fde54d65129218d68d8017,61036e08e74451882cc1283a,2021-07-29_20h13.04.247,Simcolourproject_2stim_asymm_v5,2020.2.10,MacIntel,60,61025ae37ef11b136ea224fe,,,,,,,,,1403,39.4375,-56.00390625,1,0,0,response3disk,,4,3.88671875,2.19921875,1,0,0,rectangle,3.88671875,2.19921875,1,0,0,3.88671875,2.19921875,1,0,0,0,130,130,25,1,,,,,,,,
,,,,,,,,,,,,,FF,,,,,,,,1.5665,,,,,,,,,,,,,,,,,,,,,,60fde54d65129218d68d8017,61036e08e74451882cc1283a,2021-07-29_20h13.04.247,Simcolourproject_2stim_asymm_v5,2020.2.10,MacIntel,60,61025ae37ef11b136ea224fe,,,,,,,,,3488,65.4453125,-31.64453125,1,0,0,response3disk,,5,-0.8984375,5.92578125,1,0,0,rectangle,-0.8984375,5.92578125,1,0,0,-0.8984375,5.92578125,1,0,0,0,131,131,133,1,,,,,,,,
,,,,,,,,,,,,,FF,,,,,,,,1.3665,,,,,,,,,,,,,,,,,,,,,,60fde54d65129218d68d8017,61036e08e74451882cc1283a,2021-07-29_20h13.04.247,Simcolourproject_2stim_asymm_v5,2020.2.10,MacIntel,60,61025ae37ef11b136ea224fe,,,,,,,,,1722,107.984375,42.890625,1,0,0,response1disk,,6,3.640625,4.1015625,1,0,0,rectangle,3.640625,4.1015625,1,0,0,3.640625,4.1015625,1,0,0,0,132,132,3,1,,,,,,,,
,,,,,,,,,,,,,FF,,,,,,,,1.3663,,,,,,,,,,,,,,,,,,,,,,60fde54d65129218d68d8017,61036e08e74451882cc1283a,2021-07-29_20h13.04.247,Simcolourproject_2stim_asymm_v5,2020.2.10,MacIntel,60,61025ae37ef11b136ea224fe,,,,,,,,,1294,-39.2421875,-71.5234375,1,0,0,response5disk,,3,0.9453125,-8.3125,1,0,0,rectangle,0.9453125,-8.3125,1,0,0,0.9453125,-8.3125,1,0,0,0,133,133,105,1,,,,,,,,
,,,,,,,,,,,,,FF,,,,,,,,2.5672,,,,,,,,,,,,,,,,,,,,,,60fde54d65129218d68d8017,61036e08e74451882cc1283a,2021-07-29_20h13.04.247,Simcolourproject_2stim_asymm_v5,2020.2.10,MacIntel,60,61025ae37ef11b136ea224fe,,,,,,,,,1245,77.55859375,-25.13671875,1,0,0,response3disk,,5,12.5546875,-2.7734375,1,0,0,rectangle,12.5546875,-2.7734375,1,0,0,12.5546875,-2.7734375,1,0,0,0,134,134,81,1,,,,,,,,
,,,,,,,,,,,,,FF,,,,,,,,1.2008,,,,,,,,,,,,,,,,,,,,,,60fde54d65129218d68d8017,61036e08e74451882cc1283a,2021-07-29_20h13.04.247,Simcolourproject_2stim_asymm_v5,2020.2.10,MacIntel,60,61025ae37ef11b136ea224fe,,,,,,,,,3556,-53.640625,-36.296875,1,0,0,response5disk,,2,3.51171875,1.8046875,1,0,0,rectangle,3.51171875,1.8046875,1,0,0,3.51171875,1.8046875,1,0,0,0,135,135,92,1,,,,,,,,
,,,,,,,,,,,,,FF,,,,,,,,2.6162,,,,,,,,,,,,,,,,,,,,,,60fde54d65129218d68d8017,61036e08e74451882cc1283a,2021-07-29_20h13.04.247,Simcolourproject_2stim_asymm_v5,2020.2.10,MacIntel,60,61025ae37ef11b136ea224fe,,,,,,,,,429,-47.99609375,-65.2421875,1,0,0,response5disk,,3,-1.7109375,-4.5234375,1,0,0,rectangle,-1.7109375,-4.5234375,1,0,0,-1.7109375,-4.5234375,1,0,0,0,136,136,63,1,,,,,,,,
,,,,,,,,,,,,,FF,,,,,,,,1.1676,,,,,,,,,,,,,,,,,,,,,,60fde54d65129218d68d8017,61036e08e74451882cc1283a,2021-07-29_20h13.04.247,Simcolourproject_2stim_asymm_v5,2020.2.10,MacIntel,60,61025ae37ef11b136ea224fe,,,,,,,,,2896,19.8125,-61.43359375,1,0,0,response3disk,,4,2.3359375,-10.17578125,1,0,0,rectangle,2.3359375,-10.17578125,1,0,0,2.3359375,-10.17578125,1,0,0,0,137,137,97,1,,,,,,,,
,,,,,,,,,,,,,FF,,,,,,,,3.317,,,,,,,,,,,,,,,,,,,,,,60fde54d65129218d68d8017,61036e08e74451882cc1283a,2021-07-29_20h13.04.247,Simcolourproject_2stim_asymm_v5,2020.2.10,MacIntel,60,61025ae37ef11b136ea224fe,,,,,,,,,2532,-94.57421875,44.046875,1,0,0,response7disk,,1,-20.4140625,5.08984375,1,0,0,rectangle,-20.4140625,5.08984375,1,0,0,-20.4140625,5.08984375,1,0,0,0,138,138,80,1,,,,,,,,
,,,,,,,,,,,,,FF,,,,,,,,1.8503,,,,,,,,,,,,,,,,,,,,,,60fde54d65129218d68d8017,61036e08e74451882cc1283a,2021-07-29_20h13.04.247,Simcolourproject_2stim_asymm_v5,2020.2.10,MacIntel,60,61025ae37ef11b136ea224fe,,,,,,,,,3272,76.0703125,-48.90234375,1,0,0,response3disk,,5,8.93359375,-1.953125,1,0,0,rectangle,-47.921875,-83.65234375,1,0,0,-1.69921875,-7.58984375,1,0,0,0,139,139,129,1,,response5disk_3,TRUE,3,3,"[80,81,303,152,206,278,186,153,17,212,181,13,39,51,41,186,35,141,60,140]",2.4506,rectangle
,,,,,,,,,,,,,FF,,,,,,,,3.4843,,,,,,,,,,,,,,,,,,,,,,60fde54d65129218d68d8017,61036e08e74451882cc1283a,2021-07-29_20h13.04.247,Simcolourproject_2stim_asymm_v5,2020.2.10,MacIntel,60,61025ae37ef11b136ea224fe,,,,,,,,,180,78.26171875,-97.10546875,1,0,0,response3disk,,4,19.80078125,-9.31640625,1,0,0,rectangle,96.0546875,31.234375,1,0,0,6.01953125,6.81640625,1,0,0,0,140,140,157,1,,response1disk_3,TRUE,6,6,"[80,81,303,152,206,278,186,153,17,212,181,13,39,51,41,186,35,141,60,140]",2.4007,rectangle
,,,,,,,,,,,,,FF,,,,,,,,2.95,,,,,,,,,,,,,,,,,,,,,,60fde54d65129218d68d8017,61036e08e74451882cc1283a,2021-07-29_20h13.04.247,Simcolourproject_2stim_asymm_v5,2020.2.10,MacIntel,60,61025ae37ef11b136ea224fe,,,,,,,,,2460,85.4765625,34.2421875,1,0,0,response1disk,,6,8.04296875,-2.39453125,1,0,0,rectangle,8.04296875,-2.39453125,1,0,0,8.04296875,-2.39453125,1,0,0,0,141,141,39,1,,,,,,,,
,,,,,,,,,,,,,FF,,,,,,,,6.7512,,,,,,,,,,,,,,,,,,,,,,60fde54d65129218d68d8017,61036e08e74451882cc1283a,2021-07-29_20h13.04.247,Simcolourproject_2stim_asymm_v5,2020.2.10,MacIntel,60,61025ae37ef11b136ea224fe,,,,,,,,,1074,87.484375,37.5234375,1,0,0,response1disk,,6,23.42578125,-4.8125,1,0,0,rectangle,23.42578125,-4.8125,1,0,0,23.42578125,-4.8125,1,0,0,0,142,142,149,1,,,,,,,,
,,,,,,,,,,,,,FF,,,,,,,,3.2345,,,,,,,,,,,,,,,,,,,,,,60fde54d65129218d68d8017,61036e08e74451882cc1283a,2021-07-29_20h13.04.247,Simcolourproject_2stim_asymm_v5,2020.2.10,MacIntel,60,61025ae37ef11b136ea224fe,,,,,,,,,821,-37.359375,-96.53515625,1,0,0,response5disk,,3,-2.625,-5.12890625,1,0,0,rectangle,-2.625,-5.12890625,1,0,0,-2.625,-5.12890625,1,0,0,0,143,143,36,1,,,,,,,,
,,,,,,,,,,,,,FF,,,,,,,,1.5338,,,,,,,,,,,,,,,,,,,,,,60fde54d65129218d68d8017,61036e08e74451882cc1283a,2021-07-29_20h13.04.247,Simcolourproject_2stim_asymm_v5,2020.2.10,MacIntel,60,61025ae37ef11b136ea224fe,,,,,,,,,2910,56.7421875,-100.1210938,1,0,0,response3disk,,4,-0.578125,1.30859375,1,0,0,rectangle,-0.578125,1.30859375,1,0,0,-0.578125,1.30859375,1,0,0,0,144,144,102,1,,,,,,,,
,,,,,,,,,,,,,FF,,,,,,,,1.5002,,,,,,,,,,,,,,,,,,,,,,60fde54d65129218d68d8017,61036e08e74451882cc1283a,2021-07-29_20h13.04.247,Simcolourproject_2stim_asymm_v5,2020.2.10,MacIntel,60,61025ae37ef11b136ea224fe,,,,,,,,,3610,69.4921875,45.69140625,1,0,0,response1disk,,6,9.125,1.7890625,1,0,0,rectangle,9.125,1.7890625,1,0,0,9.125,1.7890625,1,0,0,0,145,145,141,1,,,,,,,,
,,,,,,,,,,,,,FF,,,,,,,,0.9836,,,,,,,,,,,,,,,,,,,,,,60fde54d65129218d68d8017,61036e08e74451882cc1283a,2021-07-29_20h13.04.247,Simcolourproject_2stim_asymm_v5,2020.2.10,MacIntel,60,61025ae37ef11b136ea224fe,,,,,,,,,2423,25.81640625,-76.68359375,1,0,0,response3disk,,4,7.95703125,2.125,1,0,0,rectangle,7.95703125,2.125,1,0,0,7.95703125,2.125,1,0,0,0,146,146,79,1,,,,,,,,
,,,,,,,,,,,,,FF,,,,,,,,2.1844,,,,,,,,,,,,,,,,,,,,,,60fde54d65129218d68d8017,61036e08e74451882cc1283a,2021-07-29_20h13.04.247,Simcolourproject_2stim_asymm_v5,2020.2.10,MacIntel,60,61025ae37ef11b136ea224fe,,,,,,,,,2210,90.35546875,33.43359375,1,0,0,response1disk,,6,11.07421875,-7.04296875,1,0,0,rectangle,11.07421875,-7.04296875,1,0,0,11.07421875,-7.04296875,1,0,0,0,147,147,123,1,,,,,,,,
,,,,,,,,,,,,,FF,,,,,,,,1.6671,,,,,,,,,,,,,,,,,,,,,,60fde54d65129218d68d8017,61036e08e74451882cc1283a,2021-07-29_20h13.04.247,Simcolourproject_2stim_asymm_v5,2020.2.10,MacIntel,60,61025ae37ef11b136ea224fe,,,,,,,,,1849,95.96484375,-37.71875,1,0,0,response3disk,,5,18.33203125,-4.58203125,1,0,0,rectangle,18.33203125,-4.58203125,1,0,0,18.33203125,-4.58203125,1,0,0,0,148,148,115,1,,,,,,,,
,,,,,,,,,,,,,FF,,,,,,,,0.918,,,,,,,,,,,,,,,,,,,,,,60fde54d65129218d68d8017,61036e08e74451882cc1283a,2021-07-29_20h13.04.247,Simcolourproject_2stim_asymm_v5,2020.2.10,MacIntel,60,61025ae37ef11b136ea224fe,,,,,,,,,3031,73.27734375,25.015625,1,0,0,response1disk,,6,11.50390625,3.82421875,1,0,0,rectangle,11.50390625,3.82421875,1,0,0,11.50390625,3.82421875,1,0,0,0,149,149,51,1,,,,,,,,
,,,,,,,,,,,,,FF,,,,,,,,1.7512,,,,,,,,,,,,,,,,,,,,,,60fde54d65129218d68d8017,61036e08e74451882cc1283a,2021-07-29_20h13.04.247,Simcolourproject_2stim_asymm_v5,2020.2.10,MacIntel,60,61025ae37ef11b136ea224fe,,,,,,,,,1947,76.01953125,-30.66796875,1,0,0,response3disk,,5,26.76171875,-1.65234375,1,0,0,rectangle,26.76171875,-1.65234375,1,0,0,26.76171875,-1.65234375,1,0,0,0,150,150,89,1,,,,,,,,
,,,,,,,,,,,,,FF,,,,,,,,1.2155,,,,,,,,,,,,,,,,,,,,,,60fde54d65129218d68d8017,61036e08e74451882cc1283a,2021-07-29_20h13.04.247,Simcolourproject_2stim_asymm_v5,2020.2.10,MacIntel,60,61025ae37ef11b136ea224fe,,,,,,,,,330,38.125,98.79296875,1,0,0,response1disk,,7,-21.23828125,-2.58984375,1,0,0,rectangle,48.11328125,100.828125,1,0,0,0.89453125,1.171875,1,0,0,0,151,151,143,1,,response1disk_3,TRUE,7,7,"[80,81,303,152,206,278,186,153,17,212,181,13,39,51,41,186,35,141,60,140]",1.7338,rectangle
,,,,,,,,,,,,,FF,,,,,,,,2.3174,,,,,,,,,,,,,,,,,,,,,,60fde54d65129218d68d8017,61036e08e74451882cc1283a,2021-07-29_20h13.04.247,Simcolourproject_2stim_asymm_v5,2020.2.10,MacIntel,60,61025ae37ef11b136ea224fe,,,,,,,,,1660,52.54296875,-45.33203125,1,0,0,response3disk,,5,2.54296875,-0.703125,1,0,0,rectangle,36.60546875,81.14453125,1,0,0,12.58984375,5.3828125,1,0,0,0,152,152,20,1,,response1disk_3,TRUE,7,7,"[80,81,303,152,206,278,186,153,17,212,181,13,39,51,41,186,35,141,60,140]",1.6502,rectangle
,,,,,,,,,,,,,FF,,,,,,,,1.6178,,,,,,,,,,,,,,,,,,,,,,60fde54d65129218d68d8017,61036e08e74451882cc1283a,2021-07-29_20h13.04.247,Simcolourproject_2stim_asymm_v5,2020.2.10,MacIntel,60,61025ae37ef11b136ea224fe,,,,,,,,,3022,83.46484375,30.5546875,1,0,0,response1disk,,6,2.9609375,2.87109375,1,0,0,rectangle,2.9609375,2.87109375,1,0,0,2.9609375,2.87109375,1,0,0,0,153,153,134,1,,,,,,,,
,,,,,,,,,,,,,FF,,,,,,,,1.8672,,,,,,,,,,,,,,,,,,,,,,60fde54d65129218d68d8017,61036e08e74451882cc1283a,2021-07-29_20h13.04.247,Simcolourproject_2stim_asymm_v5,2020.2.10,MacIntel,60,61025ae37ef11b136ea224fe,,,,,,,,,892,-95.3125,-28.90234375,1,0,0,response5disk,,2,-0.1328125,-4.7265625,1,0,0,rectangle,-0.1328125,-4.7265625,1,0,0,-0.1328125,-4.7265625,1,0,0,0,154,154,88,1,,,,,,,,
,,,,,,,,,,,,,FF,,,,,,,,1.4338,,,,,,,,,,,,,,,,,,,,,,60fde54d65129218d68d8017,61036e08e74451882cc1283a,2021-07-29_20h13.04.247,Simcolourproject_2stim_asymm_v5,2020.2.10,MacIntel,60,61025ae37ef11b136ea224fe,,,,,,,,,2407,54.59375,79.53515625,1,0,0,response1disk,,7,1.359375,-4.91796875,1,0,0,rectangle,1.359375,-4.91796875,1,0,0,1.359375,-4.91796875,1,0,0,0,155,155,128,1,,,,,,,,
,,,,,,,,,,,,,FF,,,,,,,,1.5161,,,,,,,,,,,,,,,,,,,,,,60fde54d65129218d68d8017,61036e08e74451882cc1283a,2021-07-29_20h13.04.247,Simcolourproject_2stim_asymm_v5,2020.2.10,MacIntel,60,61025ae37ef11b136ea224fe,,,,,,,,,613,-97.09765625,70.421875,1,0,0,response7disk,,1,-2.609375,-1.32421875,1,0,0,rectangle,-2.609375,-1.32421875,1,0,0,-2.609375,-1.32421875,1,0,0,0,156,156,96,1,,,,,,,,
,,,,,,,,,,,,,FF,,,,,,,,1.984,,,,,,,,,,,,,,,,,,,,,,60fde54d65129218d68d8017,61036e08e74451882cc1283a,2021-07-29_20h13.04.247,Simcolourproject_2stim_asymm_v5,2020.2.10,MacIntel,60,61025ae37ef11b136ea224fe,,,,,,,,,232,47.36328125,-95.75390625,1,0,0,response3disk,,4,19.6796875,-2.44140625,1,0,0,rectangle,19.6796875,-2.44140625,1,0,0,19.6796875,-2.44140625,1,0,0,0,157,157,124,1,,,,,,,,
,,,,,,,,,,,,,FF,,,,,,,,1.4505,,,,,,,,,,,,,,,,,,,,,,60fde54d65129218d68d8017,61036e08e74451882cc1283a,2021-07-29_20h13.04.247,Simcolourproject_2stim_asymm_v5,2020.2.10,MacIntel,60,61025ae37ef11b136ea224fe,,,,,,,,,1080,50.734375,77.71484375,1,0,0,response1disk,,7,3.89453125,1.79296875,1,0,0,rectangle,3.89453125,1.79296875,1,0,0,3.89453125,1.79296875,1,0,0,0,158,158,18,1,,,,,,,,
,,,,,,,,,,,,,FF,,,,,,,,1.5991,,,,,,,,,,,,,,,,,,,,,,60fde54d65129218d68d8017,61036e08e74451882cc1283a,2021-07-29_20h13.04.247,Simcolourproject_2stim_asymm_v5,2020.2.10,MacIntel,60,61025ae37ef11b136ea224fe,,,,,,,,,2637,39.80859375,98.17578125,1,0,0,response1disk,,7,-4.3125,-0.6484375,1,0,0,rectangle,-4.3125,-0.6484375,1,0,0,-4.3125,-0.6484375,1,0,0,0,159,159,77,1,,,,,,,,
,,,,,,,,,,,,,FF,,,,,,,,8.8692,,,,,,,,,,,,,,,,,,,,,,60fde54d65129218d68d8017,61036e08e74451882cc1283a,2021-07-29_20h13.04.247,Simcolourproject_2stim_asymm_v5,2020.2.10,MacIntel,60,61025ae37ef11b136ea224fe,,,,,,,,,3727,37.97265625,-67.74609375,1,0,0,response3disk,,4,8.609375,1.51171875,1,0,0,rectangle,8.609375,1.51171875,1,0,0,8.609375,1.51171875,1,0,0,1,0,160,137,1,,,,,,,,
,,,,,,,,,,,,,FF,,,,,,,,1.0676,,,,,,,,,,,,,,,,,,,,,,60fde54d65129218d68d8017,61036e08e74451882cc1283a,2021-07-29_20h13.04.247,Simcolourproject_2stim_asymm_v5,2020.2.10,MacIntel,60,61025ae37ef11b136ea224fe,,,,,,,,,908,-74.34765625,-22.6640625,1,0,0,response5disk,,2,-13.37890625,-1.45703125,1,0,0,rectangle,-13.37890625,-1.45703125,1,0,0,-13.37890625,-1.45703125,1,0,0,1,1,161,6,1,,,,,,,,
,,,,,,,,,,,,,FF,,,,,,,,2.4666,,,,,,,,,,,,,,,,,,,,,,60fde54d65129218d68d8017,61036e08e74451882cc1283a,2021-07-29_20h13.04.247,Simcolourproject_2stim_asymm_v5,2020.2.10,MacIntel,60,61025ae37ef11b136ea224fe,,,,,,,,,2319,46.08203125,-89.77734375,1,0,0,response3disk,,4,0.12890625,-7.53515625,1,0,0,rectangle,0.12890625,-7.53515625,1,0,0,0.12890625,-7.53515625,1,0,0,1,2,162,126,1,,,,,,,,
,,,,,,,,,,,,,FF,,,,,,,,2.467,,,,,,,,,,,,,,,,,,,,,,60fde54d65129218d68d8017,61036e08e74451882cc1283a,2021-07-29_20h13.04.247,Simcolourproject_2stim_asymm_v5,2020.2.10,MacIntel,60,61025ae37ef11b136ea224fe,,,,,,,,,1634,73.84765625,-59.1953125,1,0,0,response3disk,,5,25.74609375,-8.2734375,1,0,0,rectangle,25.74609375,-8.2734375,1,0,0,25.74609375,-8.2734375,1,0,0,1,3,163,4,1,,,,,,,,
,,,,,,,,,,,,,FF,,,,,,,,6.5841,,,,,,,,,,,,,,,,,,,,,,60fde54d65129218d68d8017,61036e08e74451882cc1283a,2021-07-29_20h13.04.247,Simcolourproject_2stim_asymm_v5,2020.2.10,MacIntel,60,61025ae37ef11b136ea224fe,,,,,,,,,3504,-93.57421875,32.9765625,1,0,0,response7disk,,1,-4.28515625,-1.42578125,1,0,0,rectangle,-4.28515625,-1.42578125,1,0,0,-4.28515625,-1.42578125,1,0,0,1,4,164,50,1,,,,,,,,
,,,,,,,,,,,,,FF,,,,,,,,2.8338,,,,,,,,,,,,,,,,,,,,,,60fde54d65129218d68d8017,61036e08e74451882cc1283a,2021-07-29_20h13.04.247,Simcolourproject_2stim_asymm_v5,2020.2.10,MacIntel,60,61025ae37ef11b136ea224fe,,,,,,,,,3333,-92.83203125,-65.28125,1,0,0,response5disk,,2,19.75,3.4921875,1,0,0,rectangle,19.75,3.4921875,1,0,0,19.75,3.4921875,1,0,0,1,5,165,131,1,,,,,,,,
,,,,,,,,,,,,,FF,,,,,,,,1.0661,,,,,,,,,,,,,,,,,,,,,,60fde54d65129218d68d8017,61036e08e74451882cc1283a,2021-07-29_20h13.04.247,Simcolourproject_2stim_asymm_v5,2020.2.10,MacIntel,60,61025ae37ef11b136ea224fe,,,,,,,,,2626,22.6484375,-63.1640625,1,0,0,response3disk,,4,19.9140625,-6.84765625,1,0,0,rectangle,19.9140625,-6.84765625,1,0,0,19.9140625,-6.84765625,1,0,0,1,6,166,122,1,,,,,,,,
,,,,,,,,,,,,,FF,,,,,,,,1.9001,,,,,,,,,,,,,,,,,,,,,,60fde54d65129218d68d8017,61036e08e74451882cc1283a,2021-07-29_20h13.04.247,Simcolourproject_2stim_asymm_v5,2020.2.10,MacIntel,60,61025ae37ef11b136ea224fe,,,,,,,,,1390,-48.67578125,-73.1484375,1,0,0,response5disk,,3,-11.41796875,2.640625,1,0,0,rectangle,-11.41796875,2.640625,1,0,0,-11.41796875,2.640625,1,0,0,1,7,167,17,1,,,,,,,,
,,,,,,,,,,,,,FF,,,,,,,,1.2505,,,,,,,,,,,,,,,,,,,,,,60fde54d65129218d68d8017,61036e08e74451882cc1283a,2021-07-29_20h13.04.247,Simcolourproject_2stim_asymm_v5,2020.2.10,MacIntel,60,61025ae37ef11b136ea224fe,,,,,,,,,1563,75.921875,-55.6328125,1,0,0,response3disk,,5,2.48046875,1.73046875,1,0,0,rectangle,2.48046875,1.73046875,1,0,0,2.48046875,1.73046875,1,0,0,1,8,168,111,1,,,,,,,,
,,,,,,,,,,,,,FF,,,,,,,,0.9347,,,,,,,,,,,,,,,,,,,,,,60fde54d65129218d68d8017,61036e08e74451882cc1283a,2021-07-29_20h13.04.247,Simcolourproject_2stim_asymm_v5,2020.2.10,MacIntel,60,61025ae37ef11b136ea224fe,,,,,,,,,4315,28.6328125,94.796875,1,0,0,response1disk,,7,15.60546875,-2.64453125,1,0,0,rectangle,15.60546875,-2.64453125,1,0,0,15.60546875,-2.64453125,1,0,0,1,9,169,125,1,,,,,,,,
,,,,,,,,,,,,,FF,,,,,,,,0.9669,,,,,,,,,,,,,,,,,,,,,,60fde54d65129218d68d8017,61036e08e74451882cc1283a,2021-07-29_20h13.04.247,Simcolourproject_2stim_asymm_v5,2020.2.10,MacIntel,60,61025ae37ef11b136ea224fe,,,,,,,,,2011,88.359375,-63.08984375,1,0,0,response3disk,,5,8.38671875,-9.953125,1,0,0,rectangle,8.38671875,-9.953125,1,0,0,8.38671875,-9.953125,1,0,0,1,10,170,142,1,,,,,,,,
,,,,,,,,,,,,,FF,,,,,,,,2.8668,,,,,,,,,,,,,,,,,,,,,,60fde54d65129218d68d8017,61036e08e74451882cc1283a,2021-07-29_20h13.04.247,Simcolourproject_2stim_asymm_v5,2020.2.10,MacIntel,60,61025ae37ef11b136ea224fe,,,,,,,,,1512,37.21875,-89.80859375,1,0,0,response3disk,,4,1.15234375,-1.55859375,1,0,0,rectangle,1.15234375,-1.55859375,1,0,0,1.15234375,-1.55859375,1,0,0,1,11,171,101,1,,,,,,,,
,,,,,,,,,,,,,FF,,,,,,,,2.1681,,,,,,,,,,,,,,,,,,,,,,60fde54d65129218d68d8017,61036e08e74451882cc1283a,2021-07-29_20h13.04.247,Simcolourproject_2stim_asymm_v5,2020.2.10,MacIntel,60,61025ae37ef11b136ea224fe,,,,,,,,,4246,41.19921875,-71.6875,1,0,0,response3disk,,4,15.953125,-12.45703125,1,0,0,rectangle,15.953125,-12.45703125,1,0,0,15.953125,-12.45703125,1,0,0,1,12,172,66,1,,,,,,,,
,,,,,,,,,,,,,FF,,,,,,,,1.0015,,,,,,,,,,,,,,,,,,,,,,60fde54d65129218d68d8017,61036e08e74451882cc1283a,2021-07-29_20h13.04.247,Simcolourproject_2stim_asymm_v5,2020.2.10,MacIntel,60,61025ae37ef11b136ea224fe,,,,,,,,,2933,-73.73828125,-36.1796875,1,0,0,response5disk,,2,0.71484375,-7.11328125,1,0,0,rectangle,0.71484375,-7.11328125,1,0,0,0.71484375,-7.11328125,1,0,0,1,13,173,47,1,,,,,,,,
,,,,,,,,,,,,,FF,,,,,,,,1.2001,,,,,,,,,,,,,,,,,,,,,,60fde54d65129218d68d8017,61036e08e74451882cc1283a,2021-07-29_20h13.04.247,Simcolourproject_2stim_asymm_v5,2020.2.10,MacIntel,60,61025ae37ef11b136ea224fe,,,,,,,,,682,35.53515625,-54.87109375,1,0,0,response3disk,,4,21.14453125,-5.62109375,1,0,0,rectangle,21.14453125,-5.62109375,1,0,0,21.14453125,-5.62109375,1,0,0,1,14,174,106,1,,,,,,,,
,,,,,,,,,,,,,FF,,,,,,,,1.0002,,,,,,,,,,,,,,,,,,,,,,60fde54d65129218d68d8017,61036e08e74451882cc1283a,2021-07-29_20h13.04.247,Simcolourproject_2stim_asymm_v5,2020.2.10,MacIntel,60,61025ae37ef11b136ea224fe,,,,,,,,,3294,-89.0390625,-38.78125,1,0,0,response5disk,,2,-1.42578125,-5.14453125,1,0,0,rectangle,-1.42578125,-5.14453125,1,0,0,-1.42578125,-5.14453125,1,0,0,1,15,175,117,1,,,,,,,,
,,,,,,,,,,,,,FF,,,,,,,,0.9821,,,,,,,,,,,,,,,,,,,,,,60fde54d65129218d68d8017,61036e08e74451882cc1283a,2021-07-29_20h13.04.247,Simcolourproject_2stim_asymm_v5,2020.2.10,MacIntel,60,61025ae37ef11b136ea224fe,,,,,,,,,3953,-36.8984375,-79.890625,1,0,0,response5disk,,3,2.5859375,-1.9609375,1,0,0,rectangle,2.5859375,-1.9609375,1,0,0,2.5859375,-1.9609375,1,0,0,1,16,176,113,1,,,,,,,,
,,,,,,,,,,,,,FF,,,,,,,,1.1674,,,,,,,,,,,,,,,,,,,,,,60fde54d65129218d68d8017,61036e08e74451882cc1283a,2021-07-29_20h13.04.247,Simcolourproject_2stim_asymm_v5,2020.2.10,MacIntel,60,61025ae37ef11b136ea224fe,,,,,,,,,3112,-39.48828125,-67.78125,1,0,0,response5disk,,3,13.21484375,2.66796875,1,0,0,rectangle,13.21484375,2.66796875,1,0,0,13.21484375,2.66796875,1,0,0,1,17,177,103,1,,,,,,,,
,,,,,,,,,,,,,FF,,,,,,,,0.833,,,,,,,,,,,,,,,,,,,,,,60fde54d65129218d68d8017,61036e08e74451882cc1283a,2021-07-29_20h13.04.247,Simcolourproject_2stim_asymm_v5,2020.2.10,MacIntel,60,61025ae37ef11b136ea224fe,,,,,,,,,2368,-34.0625,-66.71875,1,0,0,response5disk,,3,-0.48046875,-3.8359375,1,0,0,rectangle,-0.48046875,-3.8359375,1,0,0,-0.48046875,-3.8359375,1,0,0,1,18,178,15,1,,,,,,,,
,,,,,,,,,,,,,FF,,,,,,,,0.8496,,,,,,,,,,,,,,,,,,,,,,60fde54d65129218d68d8017,61036e08e74451882cc1283a,2021-07-29_20h13.04.247,Simcolourproject_2stim_asymm_v5,2020.2.10,MacIntel,60,61025ae37ef11b136ea224fe,,,,,,,,,162,-39.859375,-86.49609375,1,0,0,response5disk,,3,19.40234375,-0.32421875,1,0,0,rectangle,19.40234375,-0.32421875,1,0,0,19.40234375,-0.32421875,1,0,0,1,19,179,30,1,,,,,,,,
,,,,,,,,,,,,,FF,,,,,,,,1.4011,,,,,,,,,,,,,,,,,,,,,,60fde54d65129218d68d8017,61036e08e74451882cc1283a,2021-07-29_20h13.04.247,Simcolourproject_2stim_asymm_v5,2020.2.10,MacIntel,60,61025ae37ef11b136ea224fe,,,,,,,,,1564,88.44140625,-40.4765625,1,0,0,response3disk,,5,13.22265625,-7.5234375,1,0,0,rectangle,36.171875,-107.3046875,1,0,0,3.296875,-0.4609375,1,0,0,1,20,180,57,1,,response3disk_3,TRUE,4,4,"[80,81,303,152,206,278,186,153,17,212,181,13,39,51,41,186,35,141,60,140]",1.8669,rectangle
,,,,,,,,,,,,,FF,,,,,,,,2.0005,,,,,,,,,,,,,,,,,,,,,,60fde54d65129218d68d8017,61036e08e74451882cc1283a,2021-07-29_20h13.04.247,Simcolourproject_2stim_asymm_v5,2020.2.10,MacIntel,60,61025ae37ef11b136ea224fe,,,,,,,,,1032,34.359375,-64.80078125,1,0,0,response3disk,,4,4.17578125,-10.5546875,1,0,0,rectangle,4.17578125,-10.5546875,1,0,0,4.17578125,-10.5546875,1,0,0,1,21,181,25,1,,,,,,,,
,,,,,,,,,,,,,FF,,,,,,,,2.601,,,,,,,,,,,,,,,,,,,,,,60fde54d65129218d68d8017,61036e08e74451882cc1283a,2021-07-29_20h13.04.247,Simcolourproject_2stim_asymm_v5,2020.2.10,MacIntel,60,61025ae37ef11b136ea224fe,,,,,,,,,1994,37.765625,-101.8007813,1,0,0,response3disk,,4,4.65625,1.6484375,1,0,0,rectangle,4.65625,1.6484375,1,0,0,4.65625,1.6484375,1,0,0,1,22,182,86,1,,,,,,,,
,,,,,,,,,,,,,FF,,,,,,,,3.4502,,,,,,,,,,,,,,,,,,,,,,60fde54d65129218d68d8017,61036e08e74451882cc1283a,2021-07-29_20h13.04.247,Simcolourproject_2stim_asymm_v5,2020.2.10,MacIntel,60,61025ae37ef11b136ea224fe,,,,,,,,,3959,71.28515625,-40.68359375,1,0,0,response3disk,,5,11.73046875,0.6171875,1,0,0,rectangle,11.73046875,0.6171875,1,0,0,11.73046875,0.6171875,1,0,0,1,23,183,60,1,,,,,,,,
,,,,,,,,,,,,,FF,,,,,,,,1.1503,,,,,,,,,,,,,,,,,,,,,,60fde54d65129218d68d8017,61036e08e74451882cc1283a,2021-07-29_20h13.04.247,Simcolourproject_2stim_asymm_v5,2020.2.10,MacIntel,60,61025ae37ef11b136ea224fe,,,,,,,,,630,-63.79296875,95.44921875,1,0,0,response7disk,,0,17.3984375,-10.03125,1,0,0,rectangle,17.3984375,-10.03125,1,0,0,17.3984375,-10.03125,1,0,0,1,24,184,158,1,,,,,,,,
,,,,,,,,,,,,,FF,,,,,,,,2.4163,,,,,,,,,,,,,,,,,,,,,,60fde54d65129218d68d8017,61036e08e74451882cc1283a,2021-07-29_20h13.04.247,Simcolourproject_2stim_asymm_v5,2020.2.10,MacIntel,60,61025ae37ef11b136ea224fe,,,,,,,,,2749,-60.98828125,-77.5546875,1,0,0,response5disk,,3,-8.53515625,-3.875,1,0,0,rectangle,93.71484375,53.6484375,1,0,0,-8.51171875,-4.1875,1,0,0,1,25,185,82,1,,response1disk_3,TRUE,6,6,"[80,81,303,152,206,278,186,153,17,212,181,13,39,51,41,186,35,141,60,140]",15.8702,rectangle
,,,,,,,,,,,,,FF,,,,,,,,1.6833,,,,,,,,,,,,,,,,,,,,,,60fde54d65129218d68d8017,61036e08e74451882cc1283a,2021-07-29_20h13.04.247,Simcolourproject_2stim_asymm_v5,2020.2.10,MacIntel,60,61025ae37ef11b136ea224fe,,,,,,,,,1406,62.59765625,-44.5546875,1,0,0,response3disk,,5,16.8203125,-11.73828125,1,0,0,rectangle,16.8203125,-11.73828125,1,0,0,16.8203125,-11.73828125,1,0,0,1,26,186,153,1,,,,,,,,
,,,,,,,,,,,,,FF,,,,,,,,0.7837,,,,,,,,,,,,,,,,,,,,,,60fde54d65129218d68d8017,61036e08e74451882cc1283a,2021-07-29_20h13.04.247,Simcolourproject_2stim_asymm_v5,2020.2.10,MacIntel,60,61025ae37ef11b136ea224fe,,,,,,,,,4012,46.63671875,116.7148438,1,0,0,response1disk,,7,16.59765625,-3.859375,1,0,0,rectangle,16.59765625,-3.859375,1,0,0,16.59765625,-3.859375,1,0,0,1,27,187,123,1,,,,,,,,
,,,,,,,,,,,,,FF,,,,,,,,1.7497,,,,,,,,,,,,,,,,,,,,,,60fde54d65129218d68d8017,61036e08e74451882cc1283a,2021-07-29_20h13.04.247,Simcolourproject_2stim_asymm_v5,2020.2.10,MacIntel,60,61025ae37ef11b136ea224fe,,,,,,,,,1325,47.76171875,-92.19140625,1,0,0,response3disk,,4,-2.08984375,5.59765625,1,0,0,rectangle,-2.08984375,5.59765625,1,0,0,-2.08984375,5.59765625,1,0,0,1,28,188,33,1,,,,,,,,
,,,,,,,,,,,,,FF,,,,,,,,0.9335,,,,,,,,,,,,,,,,,,,,,,60fde54d65129218d68d8017,61036e08e74451882cc1283a,2021-07-29_20h13.04.247,Simcolourproject_2stim_asymm_v5,2020.2.10,MacIntel,60,61025ae37ef11b136ea224fe,,,,,,,,,1423,103,-24.59765625,1,0,0,response3disk,,5,10.390625,-9.5546875,1,0,0,rectangle,10.390625,-9.5546875,1,0,0,10.390625,-9.5546875,1,0,0,1,29,189,38,1,,,,,,,,
,,,,,,,,,,,,,FF,,,,,,,,1.3676,,,,,,,,,,,,,,,,,,,,,,60fde54d65129218d68d8017,61036e08e74451882cc1283a,2021-07-29_20h13.04.247,Simcolourproject_2stim_asymm_v5,2020.2.10,MacIntel,60,61025ae37ef11b136ea224fe,,,,,,,,,1241,40.6015625,-91.70703125,1,0,0,response3disk,,4,7.4375,-9.71875,1,0,0,rectangle,7.4375,-9.71875,1,0,0,7.4375,-9.71875,1,0,0,1,30,190,71,1,,,,,,,,
,,,,,,,,,,,,,FF,,,,,,,,1.0829,,,,,,,,,,,,,,,,,,,,,,60fde54d65129218d68d8017,61036e08e74451882cc1283a,2021-07-29_20h13.04.247,Simcolourproject_2stim_asymm_v5,2020.2.10,MacIntel,60,61025ae37ef11b136ea224fe,,,,,,,,,2763,70.21484375,21.5625,1,0,0,response1disk,,6,0.80078125,12.7734375,1,0,0,rectangle,0.80078125,12.7734375,1,0,0,0.80078125,12.7734375,1,0,0,1,31,191,2,1,,,,,,,,
,,,,,,,,,,,,,FF,,,,,,,,1.0504,,,,,,,,,,,,,,,,,,,,,,60fde54d65129218d68d8017,61036e08e74451882cc1283a,2021-07-29_20h13.04.247,Simcolourproject_2stim_asymm_v5,2020.2.10,MacIntel,60,61025ae37ef11b136ea224fe,,,,,,,,,3473,-82.09765625,-42.4609375,1,0,0,response5disk,,2,0.390625,12.2265625,1,0,0,rectangle,0.390625,12.2265625,1,0,0,0.390625,12.2265625,1,0,0,1,32,192,119,1,,,,,,,,
,,,,,,,,,,,,,FF,,,,,,,,1.5336,,,,,,,,,,,,,,,,,,,,,,60fde54d65129218d68d8017,61036e08e74451882cc1283a,2021-07-29_20h13.04.247,Simcolourproject_2stim_asymm_v5,2020.2.10,MacIntel,60,61025ae37ef11b136ea224fe,,,,,,,,,2853,-43.71875,-88.27734375,1,0,0,response5disk,,3,2.25,3.24609375,1,0,0,rectangle,2.25,3.24609375,1,0,0,2.25,3.24609375,1,0,0,1,33,193,26,1,,,,,,,,
,,,,,,,,,,,,,FF,,,,,,,,1.3003,,,,,,,,,,,,,,,,,,,,,,60fde54d65129218d68d8017,61036e08e74451882cc1283a,2021-07-29_20h13.04.247,Simcolourproject_2stim_asymm_v5,2020.2.10,MacIntel,60,61025ae37ef11b136ea224fe,,,,,,,,,2479,42.59375,66.421875,1,0,0,response1disk,,7,3.04296875,0.328125,1,0,0,rectangle,3.04296875,0.328125,1,0,0,3.04296875,0.328125,1,0,0,1,34,194,41,1,,,,,,,,
,,,,,,,,,,,,,FF,,,,,,,,1.1839,,,,,,,,,,,,,,,,,,,,,,60fde54d65129218d68d8017,61036e08e74451882cc1283a,2021-07-29_20h13.04.247,Simcolourproject_2stim_asymm_v5,2020.2.10,MacIntel,60,61025ae37ef11b136ea224fe,,,,,,,,,73,-22.69921875,-87.3203125,1,0,0,response5disk,,3,-6.8828125,12.40234375,1,0,0,rectangle,-6.8828125,12.40234375,1,0,0,-6.8828125,12.40234375,1,0,0,1,35,195,28,1,,,,,,,,
,,,,,,,,,,,,,FF,,,,,,,,2.0666,,,,,,,,,,,,,,,,,,,,,,60fde54d65129218d68d8017,61036e08e74451882cc1283a,2021-07-29_20h13.04.247,Simcolourproject_2stim_asymm_v5,2020.2.10,MacIntel,60,61025ae37ef11b136ea224fe,,,,,,,,,3363,49.5390625,103.7851563,1,0,0,response1disk,,7,7.47265625,6.17578125,1,0,0,rectangle,7.47265625,6.17578125,1,0,0,7.47265625,6.17578125,1,0,0,1,36,196,74,1,,,,,,,,
,,,,,,,,,,,,,FF,,,,,,,,1.5178,,,,,,,,,,,,,,,,,,,,,,60fde54d65129218d68d8017,61036e08e74451882cc1283a,2021-07-29_20h13.04.247,Simcolourproject_2stim_asymm_v5,2020.2.10,MacIntel,60,61025ae37ef11b136ea224fe,,,,,,,,,3791,-43.01171875,-46.6875,1,0,0,response5disk,,3,-11.2578125,7.73828125,1,0,0,rectangle,-11.2578125,7.73828125,1,0,0,-11.2578125,7.73828125,1,0,0,1,37,197,62,1,,,,,,,,
,,,,,,,,,,,,,FF,,,,,,,,1.8843,,,,,,,,,,,,,,,,,,,,,,60fde54d65129218d68d8017,61036e08e74451882cc1283a,2021-07-29_20h13.04.247,Simcolourproject_2stim_asymm_v5,2020.2.10,MacIntel,60,61025ae37ef11b136ea224fe,,,,,,,,,1981,69.4609375,-43.796875,1,0,0,response3disk,,5,-15.39453125,6.21484375,1,0,0,rectangle,-15.39453125,6.21484375,1,0,0,-15.39453125,6.21484375,1,0,0,1,38,198,89,1,,,,,,,,
,,,,,,,,,,,,,FF,,,,,,,,1.5998,,,,,,,,,,,,,,,,,,,,,,60fde54d65129218d68d8017,61036e08e74451882cc1283a,2021-07-29_20h13.04.247,Simcolourproject_2stim_asymm_v5,2020.2.10,MacIntel,60,61025ae37ef11b136ea224fe,,,,,,,,,3890,85.48046875,58.94921875,1,0,0,response1disk,,6,4.34765625,-6.421875,1,0,0,rectangle,4.34765625,-6.421875,1,0,0,4.34765625,-6.421875,1,0,0,1,39,199,110,1,,,,,,,,
,,,,,,,,,,,,,FF,,,,,,,,1.2836,,,,,,,,,,,,,,,,,,,,,,60fde54d65129218d68d8017,61036e08e74451882cc1283a,2021-07-29_20h13.04.247,Simcolourproject_2stim_asymm_v5,2020.2.10,MacIntel,60,61025ae37ef11b136ea224fe,,,,,,,,,4265,54.13671875,79.3515625,1,0,0,response1disk,,7,4.06640625,3.22265625,1,0,0,rectangle,4.06640625,3.22265625,1,0,0,4.06640625,3.22265625,1,0,0,1,40,200,27,1,,,,,,,,
,,,,,,,,,,,,,FF,,,,,,,,0.9336,,,,,,,,,,,,,,,,,,,,,,60fde54d65129218d68d8017,61036e08e74451882cc1283a,2021-07-29_20h13.04.247,Simcolourproject_2stim_asymm_v5,2020.2.10,MacIntel,60,61025ae37ef11b136ea224fe,,,,,,,,,3510,-32.27734375,85.10546875,1,0,0,response7disk,,0,0.2109375,-0.0078125,1,0,0,rectangle,0.2109375,-0.0078125,1,0,0,0.2109375,-0.0078125,1,0,0,1,41,201,91,1,,,,,,,,
,,,,,,,,,,,,,FF,,,,,,,,1.1513,,,,,,,,,,,,,,,,,,,,,,60fde54d65129218d68d8017,61036e08e74451882cc1283a,2021-07-29_20h13.04.247,Simcolourproject_2stim_asymm_v5,2020.2.10,MacIntel,60,61025ae37ef11b136ea224fe,,,,,,,,,3193,-50.32421875,-33.34765625,1,0,0,response5disk,,2,-12.85546875,7.15234375,1,0,0,rectangle,-12.85546875,7.15234375,1,0,0,-12.85546875,7.15234375,1,0,0,1,42,202,94,1,,,,,,,,
,,,,,,,,,,,,,FF,,,,,,,,1.1847,,,,,,,,,,,,,,,,,,,,,,60fde54d65129218d68d8017,61036e08e74451882cc1283a,2021-07-29_20h13.04.247,Simcolourproject_2stim_asymm_v5,2020.2.10,MacIntel,60,61025ae37ef11b136ea224fe,,,,,,,,,86,101.2578125,57.91015625,1,0,0,response1disk,,6,5.89453125,-4.55859375,1,0,0,rectangle,5.89453125,-4.55859375,1,0,0,5.89453125,-4.55859375,1,0,0,1,43,203,75,1,,,,,,,,
,,,,,,,,,,,,,FF,,,,,,,,1.6499,,,,,,,,,,,,,,,,,,,,,,60fde54d65129218d68d8017,61036e08e74451882cc1283a,2021-07-29_20h13.04.247,Simcolourproject_2stim_asymm_v5,2020.2.10,MacIntel,60,61025ae37ef11b136ea224fe,,,,,,,,,2695,87.2578125,42.62890625,1,0,0,response1disk,,6,23.53125,-3.703125,1,0,0,rectangle,23.53125,-3.703125,1,0,0,23.53125,-3.703125,1,0,0,1,44,204,3,1,,,,,,,,
,,,,,,,,,,,,,FF,,,,,,,,1.5674,,,,,,,,,,,,,,,,,,,,,,60fde54d65129218d68d8017,61036e08e74451882cc1283a,2021-07-29_20h13.04.247,Simcolourproject_2stim_asymm_v5,2020.2.10,MacIntel,60,61025ae37ef11b136ea224fe,,,,,,,,,3521,33.98828125,-62.12109375,1,0,0,response3disk,,4,8.62109375,-4.9765625,1,0,0,rectangle,-102.21875,45.12890625,1,0,0,-8.4296875,-11.73828125,1,0,0,1,45,205,135,1,,response7disk_3,TRUE,1,1,"[80,81,303,152,206,278,186,153,17,212,181,13,39,51,41,186,35,141,60,140]",2.0001,rectangle
,,,,,,,,,,,,,FF,,,,,,,,0.866,,,,,,,,,,,,,,,,,,,,,,60fde54d65129218d68d8017,61036e08e74451882cc1283a,2021-07-29_20h13.04.247,Simcolourproject_2stim_asymm_v5,2020.2.10,MacIntel,60,61025ae37ef11b136ea224fe,,,,,,,,,1597,-33.71875,75.83203125,1,0,0,response7disk,,0,-3.71484375,-2.8359375,1,0,0,rectangle,-3.71484375,-2.8359375,1,0,0,-3.71484375,-2.8359375,1,0,0,1,46,206,52,1,,,,,,,,
,,,,,,,,,,,,,FF,,,,,,,,0.866,,,,,,,,,,,,,,,,,,,,,,60fde54d65129218d68d8017,61036e08e74451882cc1283a,2021-07-29_20h13.04.247,Simcolourproject_2stim_asymm_v5,2020.2.10,MacIntel,60,61025ae37ef11b136ea224fe,,,,,,,,,4097,-75.59375,39.09375,1,0,0,response7disk,,1,-21.546875,4.1328125,1,0,0,rectangle,-21.546875,4.1328125,1,0,0,-21.546875,4.1328125,1,0,0,1,47,207,49,1,,,,,,,,
,,,,,,,,,,,,,FF,,,,,,,,1.3843,,,,,,,,,,,,,,,,,,,,,,60fde54d65129218d68d8017,61036e08e74451882cc1283a,2021-07-29_20h13.04.247,Simcolourproject_2stim_asymm_v5,2020.2.10,MacIntel,60,61025ae37ef11b136ea224fe,,,,,,,,,1192,94.86328125,-44.80859375,1,0,0,response3disk,,5,23.59765625,-2.0390625,1,0,0,rectangle,23.59765625,-2.0390625,1,0,0,23.59765625,-2.0390625,1,0,0,1,48,208,53,1,,,,,,,,
,,,,,,,,,,,,,FF,,,,,,,,0.9176,,,,,,,,,,,,,,,,,,,,,,60fde54d65129218d68d8017,61036e08e74451882cc1283a,2021-07-29_20h13.04.247,Simcolourproject_2stim_asymm_v5,2020.2.10,MacIntel,60,61025ae37ef11b136ea224fe,,,,,,,,,978,127.0976563,-54.5390625,1,0,0,response3disk,,5,7.359375,3.71484375,1,0,0,rectangle,7.359375,3.71484375,1,0,0,7.359375,3.71484375,1,0,0,1,49,209,141,1,,,,,,,,
,,,,,,,,,,,,,FF,,,,,,,,1.7006,,,,,,,,,,,,,,,,,,,,,,60fde54d65129218d68d8017,61036e08e74451882cc1283a,2021-07-29_20h13.04.247,Simcolourproject_2stim_asymm_v5,2020.2.10,MacIntel,60,61025ae37ef11b136ea224fe,,,,,,,,,3069,74.5625,-36.5390625,1,0,0,response3disk,,5,13.1640625,3.83203125,1,0,0,rectangle,13.1640625,3.83203125,1,0,0,13.1640625,3.83203125,1,0,0,1,50,210,159,1,,,,,,,,
,,,,,,,,,,,,,FF,,,,,,,,1.3999,,,,,,,,,,,,,,,,,,,,,,60fde54d65129218d68d8017,61036e08e74451882cc1283a,2021-07-29_20h13.04.247,Simcolourproject_2stim_asymm_v5,2020.2.10,MacIntel,60,61025ae37ef11b136ea224fe,,,,,,,,,2832,-75.1171875,-41.0546875,1,0,0,response5disk,,2,-6.23828125,-7.6328125,1,0,0,rectangle,81.609375,-44.703125,1,0,0,-3.484375,4.84765625,1,0,0,1,51,211,12,1,,response3disk_3,TRUE,5,5,"[80,81,303,152,206,278,186,153,17,212,181,13,39,51,41,186,35,141,60,140]",1.9664,rectangle
,,,,,,,,,,,,,FF,,,,,,,,1.1681,,,,,,,,,,,,,,,,,,,,,,60fde54d65129218d68d8017,61036e08e74451882cc1283a,2021-07-29_20h13.04.247,Simcolourproject_2stim_asymm_v5,2020.2.10,MacIntel,60,61025ae37ef11b136ea224fe,,,,,,,,,2000,62.609375,25.31640625,1,0,0,response1disk,,6,-5.6328125,0.86328125,1,0,0,rectangle,-5.6328125,0.86328125,1,0,0,-5.6328125,0.86328125,1,0,0,1,52,212,84,1,,,,,,,,
,,,,,,,,,,,,,FF,,,,,,,,1.7677,,,,,,,,,,,,,,,,,,,,,,60fde54d65129218d68d8017,61036e08e74451882cc1283a,2021-07-29_20h13.04.247,Simcolourproject_2stim_asymm_v5,2020.2.10,MacIntel,60,61025ae37ef11b136ea224fe,,,,,,,,,1781,99.99609375,36.35546875,1,0,0,response1disk,,6,8.765625,7.50390625,1,0,0,rectangle,8.765625,7.50390625,1,0,0,8.765625,7.50390625,1,0,0,1,53,213,104,1,,,,,,,,
,,,,,,,,,,,,,FF,,,,,,,,1.4502,,,,,,,,,,,,,,,,,,,,,,60fde54d65129218d68d8017,61036e08e74451882cc1283a,2021-07-29_20h13.04.247,Simcolourproject_2stim_asymm_v5,2020.2.10,MacIntel,60,61025ae37ef11b136ea224fe,,,,,,,,,471,60.98828125,-39.73828125,1,0,0,response3disk,,5,14.71484375,3.89453125,1,0,0,rectangle,14.71484375,3.89453125,1,0,0,14.71484375,3.89453125,1,0,0,1,54,214,151,1,,,,,,,,
,,,,,,,,,,,,,FF,,,,,,,,0.9828,,,,,,,,,,,,,,,,,,,,,,60fde54d65129218d68d8017,61036e08e74451882cc1283a,2021-07-29_20h13.04.247,Simcolourproject_2stim_asymm_v5,2020.2.10,MacIntel,60,61025ae37ef11b136ea224fe,,,,,,,,,3408,30.00390625,76.62109375,1,0,0,response1disk,,7,8.47265625,1.4765625,1,0,0,rectangle,8.47265625,1.4765625,1,0,0,8.47265625,1.4765625,1,0,0,1,55,215,34,1,,,,,,,,
,,,,,,,,,,,,,FF,,,,,,,,1.3847,,,,,,,,,,,,,,,,,,,,,,60fde54d65129218d68d8017,61036e08e74451882cc1283a,2021-07-29_20h13.04.247,Simcolourproject_2stim_asymm_v5,2020.2.10,MacIntel,60,61025ae37ef11b136ea224fe,,,,,,,,,2227,-86.671875,-40.19140625,1,0,0,response5disk,,2,-16.44140625,-2.37109375,1,0,0,rectangle,-16.44140625,-2.37109375,1,0,0,-16.44140625,-2.37109375,1,0,0,1,56,216,55,1,,,,,,,,
,,,,,,,,,,,,,FF,,,,,,,,1.0498,,,,,,,,,,,,,,,,,,,,,,60fde54d65129218d68d8017,61036e08e74451882cc1283a,2021-07-29_20h13.04.247,Simcolourproject_2stim_asymm_v5,2020.2.10,MacIntel,60,61025ae37ef11b136ea224fe,,,,,,,,,3755,-55.27734375,-61.66015625,1,0,0,response5disk,,3,-23.15234375,-0.13671875,1,0,0,rectangle,-23.15234375,-0.13671875,1,0,0,-23.15234375,-0.13671875,1,0,0,1,57,217,11,1,,,,,,,,
,,,,,,,,,,,,,FF,,,,,,,,2.7669,,,,,,,,,,,,,,,,,,,,,,60fde54d65129218d68d8017,61036e08e74451882cc1283a,2021-07-29_20h13.04.247,Simcolourproject_2stim_asymm_v5,2020.2.10,MacIntel,60,61025ae37ef11b136ea224fe,,,,,,,,,3327,79.04296875,-29.5,1,0,0,response3disk,,5,14.51171875,1.984375,1,0,0,rectangle,14.51171875,1.984375,1,0,0,14.51171875,1.984375,1,0,0,1,58,218,19,1,,,,,,,,
,,,,,,,,,,,,,FF,,,,,,,,4.4848,,,,,,,,,,,,,,,,,,,,,,60fde54d65129218d68d8017,61036e08e74451882cc1283a,2021-07-29_20h13.04.247,Simcolourproject_2stim_asymm_v5,2020.2.10,MacIntel,60,61025ae37ef11b136ea224fe,,,,,,,,,3693,57.33984375,-27.64453125,1,0,0,response3disk,,5,-11.96875,-1.6875,1,0,0,rectangle,-11.96875,-1.6875,1,0,0,-11.96875,-1.6875,1,0,0,1,59,219,154,1,,,,,,,,
,,,,,,,,,,,,,FF,,,,,,,,1.1005,,,,,,,,,,,,,,,,,,,,,,60fde54d65129218d68d8017,61036e08e74451882cc1283a,2021-07-29_20h13.04.247,Simcolourproject_2stim_asymm_v5,2020.2.10,MacIntel,60,61025ae37ef11b136ea224fe,,,,,,,,,3552,-39.01953125,86.3046875,1,0,0,response7disk,,0,5.31640625,-1.890625,1,0,0,rectangle,5.31640625,-1.890625,1,0,0,5.31640625,-1.890625,1,0,0,1,60,220,45,1,,,,,,,,
,,,,,,,,,,,,,FF,,,,,,,,1.4666,,,,,,,,,,,,,,,,,,,,,,60fde54d65129218d68d8017,61036e08e74451882cc1283a,2021-07-29_20h13.04.247,Simcolourproject_2stim_asymm_v5,2020.2.10,MacIntel,60,61025ae37ef11b136ea224fe,,,,,,,,,4277,55.203125,-80.2578125,1,0,0,response3disk,,4,4.40625,0.53515625,1,0,0,rectangle,4.40625,0.53515625,1,0,0,4.40625,0.53515625,1,0,0,1,61,221,128,1,,,,,,,,
,,,,,,,,,,,,,FF,,,,,,,,2.4011,,,,,,,,,,,,,,,,,,,,,,60fde54d65129218d68d8017,61036e08e74451882cc1283a,2021-07-29_20h13.04.247,Simcolourproject_2stim_asymm_v5,2020.2.10,MacIntel,60,61025ae37ef11b136ea224fe,,,,,,,,,1200,59.10546875,-40.20703125,1,0,0,response3disk,,5,-4.41796875,4.5390625,1,0,0,rectangle,-4.41796875,4.5390625,1,0,0,-4.41796875,4.5390625,1,0,0,1,62,222,120,1,,,,,,,,
,,,,,,,,,,,,,FF,,,,,,,,0.9998,,,,,,,,,,,,,,,,,,,,,,60fde54d65129218d68d8017,61036e08e74451882cc1283a,2021-07-29_20h13.04.247,Simcolourproject_2stim_asymm_v5,2020.2.10,MacIntel,60,61025ae37ef11b136ea224fe,,,,,,,,,1654,58,36.92578125,1,0,0,response1disk,,6,17.1484375,1.046875,1,0,0,rectangle,17.1484375,1.046875,1,0,0,17.1484375,1.046875,1,0,0,1,63,223,139,1,,,,,,,,
,,,,,,,,,,,,,FF,,,,,,,,1.6665,,,,,,,,,,,,,,,,,,,,,,60fde54d65129218d68d8017,61036e08e74451882cc1283a,2021-07-29_20h13.04.247,Simcolourproject_2stim_asymm_v5,2020.2.10,MacIntel,60,61025ae37ef11b136ea224fe,,,,,,,,,3752,99.66015625,-21.8984375,1,0,0,response3disk,,5,2.06640625,9.40625,1,0,0,rectangle,2.06640625,9.40625,1,0,0,2.06640625,9.40625,1,0,0,1,64,224,85,1,,,,,,,,
,,,,,,,,,,,,,FF,,,,,,,,1.6167,,,,,,,,,,,,,,,,,,,,,,60fde54d65129218d68d8017,61036e08e74451882cc1283a,2021-07-29_20h13.04.247,Simcolourproject_2stim_asymm_v5,2020.2.10,MacIntel,60,61025ae37ef11b136ea224fe,,,,,,,,,4058,46.01171875,-66.54296875,1,0,0,response3disk,,4,3.31640625,-5.43359375,1,0,0,rectangle,3.31640625,-5.43359375,1,0,0,3.31640625,-5.43359375,1,0,0,1,65,225,79,1,,,,,,,,
,,,,,,,,,,,,,FF,,,,,,,,1.3,,,,,,,,,,,,,,,,,,,,,,60fde54d65129218d68d8017,61036e08e74451882cc1283a,2021-07-29_20h13.04.247,Simcolourproject_2stim_asymm_v5,2020.2.10,MacIntel,60,61025ae37ef11b136ea224fe,,,,,,,,,450,71.41015625,33.1328125,1,0,0,response1disk,,6,12.6015625,2.27734375,1,0,0,rectangle,12.6015625,2.27734375,1,0,0,12.6015625,2.27734375,1,0,0,1,66,226,155,1,,,,,,,,
,,,,,,,,,,,,,FF,,,,,,,,1.5164,,,,,,,,,,,,,,,,,,,,,,60fde54d65129218d68d8017,61036e08e74451882cc1283a,2021-07-29_20h13.04.247,Simcolourproject_2stim_asymm_v5,2020.2.10,MacIntel,60,61025ae37ef11b136ea224fe,,,,,,,,,2839,-33.15625,-52.98828125,1,0,0,response5disk,,3,-18.35546875,1.6953125,1,0,0,rectangle,-18.35546875,1.6953125,1,0,0,-18.35546875,1.6953125,1,0,0,1,67,227,76,1,,,,,,,,
,,,,,,,,,,,,,FF,,,,,,,,1.167,,,,,,,,,,,,,,,,,,,,,,60fde54d65129218d68d8017,61036e08e74451882cc1283a,2021-07-29_20h13.04.247,Simcolourproject_2stim_asymm_v5,2020.2.10,MacIntel,60,61025ae37ef11b136ea224fe,,,,,,,,,902,49.22265625,-56.78125,1,0,0,response3disk,,4,8.3828125,-1.08203125,1,0,0,rectangle,8.3828125,-1.08203125,1,0,0,8.3828125,-1.08203125,1,0,0,1,68,228,83,1,,,,,,,,
,,,,,,,,,,,,,FF,,,,,,,,1.3504,,,,,,,,,,,,,,,,,,,,,,60fde54d65129218d68d8017,61036e08e74451882cc1283a,2021-07-29_20h13.04.247,Simcolourproject_2stim_asymm_v5,2020.2.10,MacIntel,60,61025ae37ef11b136ea224fe,,,,,,,,,958,-41.171875,-58.40625,1,0,0,response5disk,,3,-5.3203125,-1.1875,1,0,0,rectangle,-5.3203125,-1.1875,1,0,0,-5.3203125,-1.1875,1,0,0,1,69,229,39,1,,,,,,,,
,,,,,,,,,,,,,FF,,,,,,,,1.4833,,,,,,,,,,,,,,,,,,,,,,60fde54d65129218d68d8017,61036e08e74451882cc1283a,2021-07-29_20h13.04.247,Simcolourproject_2stim_asymm_v5,2020.2.10,MacIntel,60,61025ae37ef11b136ea224fe,,,,,,,,,940,54.48046875,81.56640625,1,0,0,response1disk,,7,6.6015625,-7.703125,1,0,0,rectangle,6.6015625,-7.703125,1,0,0,6.6015625,-7.703125,1,0,0,1,70,230,36,1,,,,,,,,
,,,,,,,,,,,,,FF,,,,,,,,2.9677,,,,,,,,,,,,,,,,,,,,,,60fde54d65129218d68d8017,61036e08e74451882cc1283a,2021-07-29_20h13.04.247,Simcolourproject_2stim_asymm_v5,2020.2.10,MacIntel,60,61025ae37ef11b136ea224fe,,,,,,,,,1072,-20.54296875,-79.7109375,1,0,0,response5disk,,3,-15.0625,-0.828125,1,0,0,rectangle,-15.0625,-0.828125,1,0,0,-15.0625,-0.828125,1,0,0,1,71,231,145,1,,,,,,,,
,,,,,,,,,,,,,FF,,,,,,,,1.3835,,,,,,,,,,,,,,,,,,,,,,60fde54d65129218d68d8017,61036e08e74451882cc1283a,2021-07-29_20h13.04.247,Simcolourproject_2stim_asymm_v5,2020.2.10,MacIntel,60,61025ae37ef11b136ea224fe,,,,,,,,,1105,68.27734375,37.1015625,1,0,0,response1disk,,6,6.10546875,13.34375,1,0,0,rectangle,6.10546875,13.34375,1,0,0,6.10546875,13.34375,1,0,0,1,72,232,152,1,,,,,,,,
,,,,,,,,,,,,,FF,,,,,,,,1.653,,,,,,,,,,,,,,,,,,,,,,60fde54d65129218d68d8017,61036e08e74451882cc1283a,2021-07-29_20h13.04.247,Simcolourproject_2stim_asymm_v5,2020.2.10,MacIntel,60,61025ae37ef11b136ea224fe,,,,,,,,,2399,25.140625,68.875,1,0,0,response1disk,,7,11.26171875,-13.484375,1,0,0,rectangle,11.26171875,-13.484375,1,0,0,11.26171875,-13.484375,1,0,0,1,73,233,51,1,,,,,,,,
,,,,,,,,,,,,,FF,,,,,,,,1.0172,,,,,,,,,,,,,,,,,,,,,,60fde54d65129218d68d8017,61036e08e74451882cc1283a,2021-07-29_20h13.04.247,Simcolourproject_2stim_asymm_v5,2020.2.10,MacIntel,60,61025ae37ef11b136ea224fe,,,,,,,,,3240,68.6875,-47.31640625,1,0,0,response3disk,,5,4.578125,-5.76953125,1,0,0,rectangle,4.578125,-5.76953125,1,0,0,4.578125,-5.76953125,1,0,0,1,74,234,118,1,,,,,,,,
,,,,,,,,,,,,,FF,,,,,,,,1.1669,,,,,,,,,,,,,,,,,,,,,,60fde54d65129218d68d8017,61036e08e74451882cc1283a,2021-07-29_20h13.04.247,Simcolourproject_2stim_asymm_v5,2020.2.10,MacIntel,60,61025ae37ef11b136ea224fe,,,,,,,,,1432,75.1796875,-35.06640625,1,0,0,response3disk,,5,19.5859375,-2.1796875,1,0,0,rectangle,19.5859375,-2.1796875,1,0,0,19.5859375,-2.1796875,1,0,0,1,75,235,148,1,,,,,,,,
,,,,,,,,,,,,,FF,,,,,,,,1.3997,,,,,,,,,,,,,,,,,,,,,,60fde54d65129218d68d8017,61036e08e74451882cc1283a,2021-07-29_20h13.04.247,Simcolourproject_2stim_asymm_v5,2020.2.10,MacIntel,60,61025ae37ef11b136ea224fe,,,,,,,,,1379,34.0546875,-54.38671875,1,0,0,response3disk,,4,2.65625,-5.54296875,1,0,0,rectangle,2.65625,-5.54296875,1,0,0,2.65625,-5.54296875,1,0,0,1,76,236,73,1,,,,,,,,
,,,,,,,,,,,,,FF,,,,,,,,1.4996,,,,,,,,,,,,,,,,,,,,,,60fde54d65129218d68d8017,61036e08e74451882cc1283a,2021-07-29_20h13.04.247,Simcolourproject_2stim_asymm_v5,2020.2.10,MacIntel,60,61025ae37ef11b136ea224fe,,,,,,,,,3595,-34.47265625,-70.98828125,1,0,0,response5disk,,3,0.51171875,6.83203125,1,0,0,rectangle,0.51171875,6.83203125,1,0,0,0.51171875,6.83203125,1,0,0,1,77,237,16,1,,,,,,,,
,,,,,,,,,,,,,FF,,,,,,,,1.2009,,,,,,,,,,,,,,,,,,,,,,60fde54d65129218d68d8017,61036e08e74451882cc1283a,2021-07-29_20h13.04.247,Simcolourproject_2stim_asymm_v5,2020.2.10,MacIntel,60,61025ae37ef11b136ea224fe,,,,,,,,,206,41.05859375,-73.52734375,1,0,0,response3disk,,4,3.92578125,-4.1015625,1,0,0,rectangle,3.92578125,-4.1015625,1,0,0,3.92578125,-4.1015625,1,0,0,1,78,238,64,1,,,,,,,,
,,,,,,,,,,,,,FF,,,,,,,,1.2835,,,,,,,,,,,,,,,,,,,,,,60fde54d65129218d68d8017,61036e08e74451882cc1283a,2021-07-29_20h13.04.247,Simcolourproject_2stim_asymm_v5,2020.2.10,MacIntel,60,61025ae37ef11b136ea224fe,,,,,,,,,997,38.23828125,-65.91015625,1,0,0,response3disk,,4,8.4765625,-3.62109375,1,0,0,rectangle,8.4765625,-3.62109375,1,0,0,8.4765625,-3.62109375,1,0,0,1,79,239,44,1,,,,,,,,
,,,,,,,,,,,,,FF,,,,,,,,1.0499,,,,,,,,,,,,,,,,,,,,,,60fde54d65129218d68d8017,61036e08e74451882cc1283a,2021-07-29_20h13.04.247,Simcolourproject_2stim_asymm_v5,2020.2.10,MacIntel,60,61025ae37ef11b136ea224fe,,,,,,,,,1716,39.83203125,104.4335938,1,0,0,response1disk,,7,23.95703125,-4.2265625,1,0,0,rectangle,23.95703125,-4.2265625,1,0,0,23.95703125,-4.2265625,1,0,0,1,80,240,132,1,,,,,,,,
,,,,,,,,,,,,,FF,,,,,,,,1.1823,,,,,,,,,,,,,,,,,,,,,,60fde54d65129218d68d8017,61036e08e74451882cc1283a,2021-07-29_20h13.04.247,Simcolourproject_2stim_asymm_v5,2020.2.10,MacIntel,60,61025ae37ef11b136ea224fe,,,,,,,,,2474,62.0390625,-27.28125,1,0,0,response3disk,,5,-4.0546875,-0.8359375,1,0,0,rectangle,-4.0546875,-0.8359375,1,0,0,-4.0546875,-0.8359375,1,0,0,1,81,241,92,1,,,,,,,,
,,,,,,,,,,,,,FF,,,,,,,,0.9165,,,,,,,,,,,,,,,,,,,,,,60fde54d65129218d68d8017,61036e08e74451882cc1283a,2021-07-29_20h13.04.247,Simcolourproject_2stim_asymm_v5,2020.2.10,MacIntel,60,61025ae37ef11b136ea224fe,,,,,,,,,2863,78.93359375,-37.94140625,1,0,0,response3disk,,5,23.08984375,-7.2109375,1,0,0,rectangle,23.08984375,-7.2109375,1,0,0,23.08984375,-7.2109375,1,0,0,1,82,242,95,1,,,,,,,,
,,,,,,,,,,,,,FF,,,,,,,,1.1001,,,,,,,,,,,,,,,,,,,,,,60fde54d65129218d68d8017,61036e08e74451882cc1283a,2021-07-29_20h13.04.247,Simcolourproject_2stim_asymm_v5,2020.2.10,MacIntel,60,61025ae37ef11b136ea224fe,,,,,,,,,1873,57.01953125,29.91796875,1,0,0,response1disk,,6,12.76953125,-8.24609375,1,0,0,rectangle,12.76953125,-8.24609375,1,0,0,12.76953125,-8.24609375,1,0,0,1,83,243,88,1,,,,,,,,
,,,,,,,,,,,,,FF,,,,,,,,1.2165,,,,,,,,,,,,,,,,,,,,,,60fde54d65129218d68d8017,61036e08e74451882cc1283a,2021-07-29_20h13.04.247,Simcolourproject_2stim_asymm_v5,2020.2.10,MacIntel,60,61025ae37ef11b136ea224fe,,,,,,,,,1167,39.375,74.9296875,1,0,0,response1disk,,7,13.5859375,-2.4296875,1,0,0,rectangle,13.5859375,-2.4296875,1,0,0,13.5859375,-2.4296875,1,0,0,1,84,244,54,1,,,,,,,,
,,,,,,,,,,,,,FF,,,,,,,,1.4666,,,,,,,,,,,,,,,,,,,,,,60fde54d65129218d68d8017,61036e08e74451882cc1283a,2021-07-29_20h13.04.247,Simcolourproject_2stim_asymm_v5,2020.2.10,MacIntel,60,61025ae37ef11b136ea224fe,,,,,,,,,1602,35.8359375,-79.0625,1,0,0,response3disk,,4,17,-2.8671875,1,0,0,rectangle,17,-2.8671875,1,0,0,17,-2.8671875,1,0,0,1,85,245,78,1,,,,,,,,
,,,,,,,,,,,,,FF,,,,,,,,1.15,,,,,,,,,,,,,,,,,,,,,,60fde54d65129218d68d8017,61036e08e74451882cc1283a,2021-07-29_20h13.04.247,Simcolourproject_2stim_asymm_v5,2020.2.10,MacIntel,60,61025ae37ef11b136ea224fe,,,,,,,,,936,31.84765625,78.2734375,1,0,0,response1disk,,7,22.9765625,2.5703125,1,0,0,rectangle,22.9765625,2.5703125,1,0,0,22.9765625,2.5703125,1,0,0,1,86,246,35,1,,,,,,,,
,,,,,,,,,,,,,FF,,,,,,,,1.0331,,,,,,,,,,,,,,,,,,,,,,60fde54d65129218d68d8017,61036e08e74451882cc1283a,2021-07-29_20h13.04.247,Simcolourproject_2stim_asymm_v5,2020.2.10,MacIntel,60,61025ae37ef11b136ea224fe,,,,,,,,,2013,67.26953125,-42.5390625,1,0,0,response3disk,,5,13.98828125,-8.67578125,1,0,0,rectangle,13.98828125,-8.67578125,1,0,0,13.98828125,-8.67578125,1,0,0,1,87,247,129,1,,,,,,,,
