key_resp.keys,key_resp.rt,key_resp_14.keys,key_resp_14.rt,key_resp_15.keys,key_resp_15.rt,key_resp_17.keys,key_resp_17.rt,key_resp_9.keys,key_resp_9.rt,key_resp_10.keys,key_resp_10.rt,practice_comparison,Ecc,mouse_5.x,mouse_5.y,mouse_5.leftButton,mouse_5.midButton,mouse_5.rightButton,mouse_5.clicked_name,pracsimilarity,response_time,mouse_10.x,mouse_10.y,mouse_10.leftButton,mouse_10.midButton,mouse_10.rightButton,mouse_10.clicked_name,mouse_7.x,mouse_7.y,mouse_7.leftButton,mouse_7.midButton,mouse_7.rightButton,mouse_6.x,mouse_6.y,mouse_6.leftButton,mouse_6.midButton,mouse_6.rightButton,duringprac.thisRepN,duringprac.thisTrialN,duringprac.thisN,duringprac.thisIndex,duringprac.ran,participant,session,date,expName,psychopyVersion,OS,frameRate,study_id,mouse_7.clicked_name,catchpracsimilarity,catch_response_time,catchnumberprac,catchtrialorderprac,mouse_6.clicked_name,key_resp_22.keys,key_resp_22.rt,realcomparison,mouse.x,mouse.y,mouse.leftButton,mouse.midButton,mouse.rightButton,mouse.clicked_name,Colour2,similarity,mouse_2.x,mouse_2.y,mouse_2.leftButton,mouse_2.midButton,mouse_2.rightButton,mouse_2.clicked_name,mouse_3.x,mouse_3.y,mouse_3.leftButton,mouse_3.midButton,mouse_3.rightButton,mouse_11.x,mouse_11.y,mouse_11.leftButton,mouse_11.midButton,mouse_11.rightButton,trials_2.thisRepN,trials_2.thisTrialN,trials_2.thisN,trials_2.thisIndex,trials_2.ran,Colour1,mouse_3.clicked_name,catchornah,catchsimilarity,catchnumber,catchtrialorder,catchRT,mouse_11.clicked_name
space,1.7234,space,6.8948,space,17.6165,space,8.05,space,1.1838,space,3.4663,117,FF,40.37799072,-79.30322266,1,0,0,response3disk_5,4,14.2679,-0.865722656,2.853912354,1,0,0,rectangle_8,-0.865722656,2.853912354,1,0,0,-0.865722656,2.853912354,1,0,0,0,0,0,0,1,60fd03428b4a25226606b9ea,61036e227d71215a78b89df3,2021-07-30_13h16.23.336,Simcolourproject_2stim_asymm_v5,2020.2.10,MacIntel,60,61025ae37ef11b136ea224fe,,,,,,,,,,,,,,,,,,,,,,,,,,,,,,,,,,,,,,,,,,,,,,
,,,,,,,,,,,,65,PF,61.16955566,47.96942139,1,0,0,response1disk_5,6,1.1501,5.462524414,0.022521973,1,0,0,rectangle_8,-48.92456055,-60.1763916,1,0,0,-7.051025391,0.936828613,1,0,0,0,1,1,6,1,60fd03428b4a25226606b9ea,61036e227d71215a78b89df3,2021-07-30_13h16.23.336,Simcolourproject_2stim_asymm_v5,2020.2.10,MacIntel,60,61025ae37ef11b136ea224fe,response5disk_7,3,2.8837,2,"[2,5]",rectangle_4,,,,,,,,,,,,,,,,,,,,,,,,,,,,,,,,,,,,,,,,
,,,,,,,,,,,,57,PF,78.26104736,28.66186523,1,0,0,response1disk_5,6,1.5828,17.39556885,2.404266357,1,0,0,rectangle_8,17.39556885,2.404266357,1,0,0,17.39556885,2.404266357,1,0,0,0,2,2,1,1,60fd03428b4a25226606b9ea,61036e227d71215a78b89df3,2021-07-30_13h16.23.336,Simcolourproject_2stim_asymm_v5,2020.2.10,MacIntel,60,61025ae37ef11b136ea224fe,,,,,,,,,,,,,,,,,,,,,,,,,,,,,,,,,,,,,,,,,,,,,,
,,,,,,,,,,,,40,PF,44.12487793,35.58502197,1,0,0,response1disk_5,6,0.834,8.346374512,4.405700684,1,0,0,rectangle_8,8.346374512,4.405700684,1,0,0,8.346374512,4.405700684,1,0,0,0,3,3,4,1,60fd03428b4a25226606b9ea,61036e227d71215a78b89df3,2021-07-30_13h16.23.336,Simcolourproject_2stim_asymm_v5,2020.2.10,MacIntel,60,61025ae37ef11b136ea224fe,,,,,,,,,,,,,,,,,,,,,,,,,,,,,,,,,,,,,,,,,,,,,,
,,,,,,,,,,,,130,PF,-72.37896729,-49.00006104,1,0,0,response5disk_5,2,3.4169,-10.40679932,-7.367675781,1,0,0,rectangle_8,-53.12457275,-53.0168457,1,0,0,-19.62164307,-6.620910645,1,0,0,0,4,4,2,1,60fd03428b4a25226606b9ea,61036e227d71215a78b89df3,2021-07-30_13h16.23.336,Simcolourproject_2stim_asymm_v5,2020.2.10,MacIntel,60,61025ae37ef11b136ea224fe,response5disk_7,2,2.2338,2,"[2,5]",rectangle_4,,,,,,,,,,,,,,,,,,,,,,,,,,,,,,,,,,,,,,,,
,,,,,,,,,,,,156,FF,23.62017822,-57.40029907,1,0,0,response3disk_5,4,1.4497,19.07946777,-13.86199951,1,0,0,rectangle_8,19.07946777,-13.86199951,1,0,0,19.07946777,-13.86199951,1,0,0,0,5,5,3,1,60fd03428b4a25226606b9ea,61036e227d71215a78b89df3,2021-07-30_13h16.23.336,Simcolourproject_2stim_asymm_v5,2020.2.10,MacIntel,60,61025ae37ef11b136ea224fe,,,,,,,,,,,,,,,,,,,,,,,,,,,,,,,,,,,,,,,,,,,,,,
,,,,,,,,,,,,38,FF,-72.06054688,-73.17224121,1,0,0,response5disk_5,3,1.5327,-27.11676025,-4.611663818,1,0,0,rectangle_8,-27.11676025,-4.611663818,1,0,0,-27.11676025,-4.611663818,1,0,0,0,6,6,5,1,60fd03428b4a25226606b9ea,61036e227d71215a78b89df3,2021-07-30_13h16.23.336,Simcolourproject_2stim_asymm_v5,2020.2.10,MacIntel,60,61025ae37ef11b136ea224fe,,,,,,,,,,,,,,,,,,,,,,,,,,,,,,,,,,,,,,,,,,,,,,
,,,,,,,,,,,,,FF,,,,,,,,1.9999,,,,,,,,,,,,,,,,,,,,,,60fd03428b4a25226606b9ea,61036e227d71215a78b89df3,2021-07-30_13h16.23.336,Simcolourproject_2stim_asymm_v5,2020.2.10,MacIntel,60,61025ae37ef11b136ea224fe,,,,,,,space,1.7315,3465,45.1194458,-89.63336182,1,0,0,response3disk,,4,13.43695068,-10.28778076,1,0,0,rectangle,13.43695068,-10.28778076,1,0,0,13.43695068,-10.28778076,1,0,0,0,0,0,0,1,,,,,,,,
,,,,,,,,,,,,,FF,,,,,,,,0.966,,,,,,,,,,,,,,,,,,,,,,60fd03428b4a25226606b9ea,61036e227d71215a78b89df3,2021-07-30_13h16.23.336,Simcolourproject_2stim_asymm_v5,2020.2.10,MacIntel,60,61025ae37ef11b136ea224fe,,,,,,,,,3669,-40.99169922,30.58294678,1,0,0,response7disk,,1,0.116638184,3.464630127,1,0,0,rectangle,0.116638184,3.464630127,1,0,0,0.116638184,3.464630127,1,0,0,0,1,1,48,1,,,,,,,,
,,,,,,,,,,,,,FF,,,,,,,,1.081,,,,,,,,,,,,,,,,,,,,,,60fd03428b4a25226606b9ea,61036e227d71215a78b89df3,2021-07-30_13h16.23.336,Simcolourproject_2stim_asymm_v5,2020.2.10,MacIntel,60,61025ae37ef11b136ea224fe,,,,,,,,,404,37.4831543,-34.68444824,1,0,0,response3disk,,5,10.51599121,-14.94763184,1,0,0,rectangle,10.51599121,-14.94763184,1,0,0,10.51599121,-14.94763184,1,0,0,0,2,2,27,1,,,,,,,,
,,,,,,,,,,,,,FF,,,,,,,,1.0164,,,,,,,,,,,,,,,,,,,,,,60fd03428b4a25226606b9ea,61036e227d71215a78b89df3,2021-07-30_13h16.23.336,Simcolourproject_2stim_asymm_v5,2020.2.10,MacIntel,60,61025ae37ef11b136ea224fe,,,,,,,,,4342,58.32196045,28.83825684,1,0,0,response1disk,,6,26.13372803,11.70123291,1,0,0,rectangle,26.13372803,11.70123291,1,0,0,26.13372803,11.70123291,1,0,0,0,3,3,92,1,,,,,,,,
,,,,,,,,,,,,,FF,,,,,,,,0.8991,,,,,,,,,,,,,,,,,,,,,,60fd03428b4a25226606b9ea,61036e227d71215a78b89df3,2021-07-30_13h16.23.336,Simcolourproject_2stim_asymm_v5,2020.2.10,MacIntel,60,61025ae37ef11b136ea224fe,,,,,,,,,3968,-36.42541504,-53.51721191,1,0,0,response5disk,,3,-29.88110352,3.01385498,1,0,0,rectangle,79.07324219,-60.71447754,1,0,0,4.615112305,-3.046875,1,0,0,0,4,4,6,1,,response3disk_3,TRUE,5,5,"[274,189,225,9,314,186,162,309,236,81,273,95,5,18,263,43,224,102,127,183]",1.7683,rectangle
,,,,,,,,,,,,,FF,,,,,,,,1.5335,,,,,,,,,,,,,,,,,,,,,,60fd03428b4a25226606b9ea,61036e227d71215a78b89df3,2021-07-30_13h16.23.336,Simcolourproject_2stim_asymm_v5,2020.2.10,MacIntel,60,61025ae37ef11b136ea224fe,,,,,,,,,1918,50.4050293,37.63482666,1,0,0,response1disk,,6,-6.870544434,-14.16577148,1,0,0,rectangle,-6.870544434,-14.16577148,1,0,0,-6.870544434,-14.16577148,1,0,0,0,5,5,37,1,,,,,,,,
,,,,,,,,,,,,,FF,,,,,,,,1.3336,,,,,,,,,,,,,,,,,,,,,,60fd03428b4a25226606b9ea,61036e227d71215a78b89df3,2021-07-30_13h16.23.336,Simcolourproject_2stim_asymm_v5,2020.2.10,MacIntel,60,61025ae37ef11b136ea224fe,,,,,,,,,989,-63.28393555,-61.9786377,1,0,0,response5disk,,2,-14.50604248,-1.313110352,1,0,0,rectangle,-14.50604248,-1.313110352,1,0,0,-14.50604248,-1.313110352,1,0,0,0,6,6,101,1,,,,,,,,
,,,,,,,,,,,,,FF,,,,,,,,0.9174,,,,,,,,,,,,,,,,,,,,,,60fd03428b4a25226606b9ea,61036e227d71215a78b89df3,2021-07-30_13h16.23.336,Simcolourproject_2stim_asymm_v5,2020.2.10,MacIntel,60,61025ae37ef11b136ea224fe,,,,,,,,,1990,50.58325195,46.61730957,1,0,0,response1disk,,6,21.40332031,0.251159668,1,0,0,rectangle,21.40332031,0.251159668,1,0,0,21.40332031,0.251159668,1,0,0,0,7,7,109,1,,,,,,,,
,,,,,,,,,,,,,FF,,,,,,,,0.9832,,,,,,,,,,,,,,,,,,,,,,60fd03428b4a25226606b9ea,61036e227d71215a78b89df3,2021-07-30_13h16.23.336,Simcolourproject_2stim_asymm_v5,2020.2.10,MacIntel,60,61025ae37ef11b136ea224fe,,,,,,,,,815,45.78381348,30.64141846,1,0,0,response1disk,,6,3.944824219,-1.444946289,1,0,0,rectangle,92.58862305,61.94949341,1,0,0,19.80560303,-1.310424805,1,0,0,0,8,8,36,1,,response1disk_3,TRUE,6,6,"[274,189,225,9,314,186,162,309,236,81,273,95,5,18,263,43,224,102,127,183]",1.6162,rectangle
,,,,,,,,,,,,,FF,,,,,,,,1.517,,,,,,,,,,,,,,,,,,,,,,60fd03428b4a25226606b9ea,61036e227d71215a78b89df3,2021-07-30_13h16.23.336,Simcolourproject_2stim_asymm_v5,2020.2.10,MacIntel,60,61025ae37ef11b136ea224fe,,,,,,,,,1336,60.76037598,-62.79199219,1,0,0,response3disk,,4,27.10089111,9.707458496,1,0,0,rectangle,27.10089111,9.707458496,1,0,0,27.10089111,9.707458496,1,0,0,0,9,9,5,1,,,,,,,,
,,,,,,,,,,,,,FF,,,,,,,,1.4181,,,,,,,,,,,,,,,,,,,,,,60fd03428b4a25226606b9ea,61036e227d71215a78b89df3,2021-07-30_13h16.23.336,Simcolourproject_2stim_asymm_v5,2020.2.10,MacIntel,60,61025ae37ef11b136ea224fe,,,,,,,,,419,70.67449951,30.09777832,1,0,0,response1disk,,6,30.58929443,12.91641235,1,0,0,rectangle,30.58929443,12.91641235,1,0,0,30.58929443,12.91641235,1,0,0,0,10,10,144,1,,,,,,,,
,,,,,,,,,,,,,FF,,,,,,,,0.7665,,,,,,,,,,,,,,,,,,,,,,60fd03428b4a25226606b9ea,61036e227d71215a78b89df3,2021-07-30_13h16.23.336,Simcolourproject_2stim_asymm_v5,2020.2.10,MacIntel,60,61025ae37ef11b136ea224fe,,,,,,,,,666,61.36968994,56.77676392,1,0,0,response1disk,,6,12.7098999,0.891967773,1,0,0,rectangle,12.7098999,0.891967773,1,0,0,12.7098999,0.891967773,1,0,0,0,11,11,70,1,,,,,,,,
,,,,,,,,,,,,,FF,,,,,,,,2.3029,,,,,,,,,,,,,,,,,,,,,,60fd03428b4a25226606b9ea,61036e227d71215a78b89df3,2021-07-30_13h16.23.336,Simcolourproject_2stim_asymm_v5,2020.2.10,MacIntel,60,61025ae37ef11b136ea224fe,,,,,,,,,1903,32.92333984,-59.51293945,1,0,0,response3disk,,4,13.90319824,-13.27587891,1,0,0,rectangle,13.90319824,-13.27587891,1,0,0,13.90319824,-13.27587891,1,0,0,0,12,12,110,1,,,,,,,,
,,,,,,,,,,,,,FF,,,,,,,,2.1174,,,,,,,,,,,,,,,,,,,,,,60fd03428b4a25226606b9ea,61036e227d71215a78b89df3,2021-07-30_13h16.23.336,Simcolourproject_2stim_asymm_v5,2020.2.10,MacIntel,60,61025ae37ef11b136ea224fe,,,,,,,,,562,55.62426758,29.14276123,1,0,0,response1disk,,6,-3.108093262,-11.74603271,1,0,0,rectangle,-3.108093262,-11.74603271,1,0,0,-3.108093262,-11.74603271,1,0,0,0,13,13,14,1,,,,,,,,
,,,,,,,,,,,,,FF,,,,,,,,1.383,,,,,,,,,,,,,,,,,,,,,,60fd03428b4a25226606b9ea,61036e227d71215a78b89df3,2021-07-30_13h16.23.336,Simcolourproject_2stim_asymm_v5,2020.2.10,MacIntel,60,61025ae37ef11b136ea224fe,,,,,,,,,3472,22.04534912,-63.15490723,1,0,0,response3disk,,4,6.366577148,-6.139831543,1,0,0,rectangle,6.366577148,-6.139831543,1,0,0,6.366577148,-6.139831543,1,0,0,0,14,14,43,1,,,,,,,,
,,,,,,,,,,,,,FF,,,,,,,,1.2517,,,,,,,,,,,,,,,,,,,,,,60fd03428b4a25226606b9ea,61036e227d71215a78b89df3,2021-07-30_13h16.23.336,Simcolourproject_2stim_asymm_v5,2020.2.10,MacIntel,60,61025ae37ef11b136ea224fe,,,,,,,,,2728,79.20239258,-45.03952026,1,0,0,response3disk,,5,6.76373291,-9.045898438,1,0,0,rectangle,6.76373291,-9.045898438,1,0,0,6.76373291,-9.045898438,1,0,0,0,15,15,45,1,,,,,,,,
,,,,,,,,,,,,,FF,,,,,,,,0.8172,,,,,,,,,,,,,,,,,,,,,,60fd03428b4a25226606b9ea,61036e227d71215a78b89df3,2021-07-30_13h16.23.336,Simcolourproject_2stim_asymm_v5,2020.2.10,MacIntel,60,61025ae37ef11b136ea224fe,,,,,,,,,2259,46.76971436,62.66061401,1,0,0,response1disk,,7,11.36254883,5.627624512,1,0,0,rectangle,11.36254883,5.627624512,1,0,0,11.36254883,5.627624512,1,0,0,0,16,16,7,1,,,,,,,,
,,,,,,,,,,,,,FF,,,,,,,,0.9492,,,,,,,,,,,,,,,,,,,,,,60fd03428b4a25226606b9ea,61036e227d71215a78b89df3,2021-07-30_13h16.23.336,Simcolourproject_2stim_asymm_v5,2020.2.10,MacIntel,60,61025ae37ef11b136ea224fe,,,,,,,,,979,34.76190186,-49.14941406,1,0,0,response3disk,,4,-4.402099609,-1.339172363,1,0,0,rectangle,65.82427979,-79.85540771,1,0,0,6.537780762,-0.086181641,1,0,0,0,17,17,9,1,,response3disk_3,TRUE,4,5,"[274,189,225,9,314,186,162,309,236,81,273,95,5,18,263,43,224,102,127,183]",1.3333,rectangle
,,,,,,,,,,,,,FF,,,,,,,,1.2832,,,,,,,,,,,,,,,,,,,,,,60fd03428b4a25226606b9ea,61036e227d71215a78b89df3,2021-07-30_13h16.23.336,Simcolourproject_2stim_asymm_v5,2020.2.10,MacIntel,60,61025ae37ef11b136ea224fe,,,,,,,,,3798,24.51312256,21.89703369,1,0,0,response1disk,,6,-6.466430664,-12.21969604,1,0,0,rectangle,-6.466430664,-12.21969604,1,0,0,-6.466430664,-12.21969604,1,0,0,0,18,18,100,1,,,,,,,,
,,,,,,,,,,,,,FF,,,,,,,,0.5324,,,,,,,,,,,,,,,,,,,,,,60fd03428b4a25226606b9ea,61036e227d71215a78b89df3,2021-07-30_13h16.23.336,Simcolourproject_2stim_asymm_v5,2020.2.10,MacIntel,60,61025ae37ef11b136ea224fe,,,,,,,,,603,50.42956543,42.31872559,1,0,0,response1disk,,6,-2.95324707,-11.64846802,1,0,0,rectangle,-2.95324707,-11.64846802,1,0,0,-2.95324707,-11.64846802,1,0,0,0,19,19,125,1,,,,,,,,
,,,,,,,,,,,,,FF,,,,,,,,0.5341,,,,,,,,,,,,,,,,,,,,,,60fd03428b4a25226606b9ea,61036e227d71215a78b89df3,2021-07-30_13h16.23.336,Simcolourproject_2stim_asymm_v5,2020.2.10,MacIntel,60,61025ae37ef11b136ea224fe,,,,,,,,,2639,67.49737549,47.03826904,1,0,0,response1disk,,6,30.18786621,10.98431396,1,0,0,rectangle,30.18786621,10.98431396,1,0,0,30.18786621,10.98431396,1,0,0,0,20,20,137,1,,,,,,,,
,,,,,,,,,,,,,FF,,,,,,,,0.8497,,,,,,,,,,,,,,,,,,,,,,60fd03428b4a25226606b9ea,61036e227d71215a78b89df3,2021-07-30_13h16.23.336,Simcolourproject_2stim_asymm_v5,2020.2.10,MacIntel,60,61025ae37ef11b136ea224fe,,,,,,,,,644,41.70349121,33.21963501,1,0,0,response1disk,,6,5.440246582,6.861083984,1,0,0,rectangle,5.440246582,6.861083984,1,0,0,5.440246582,6.861083984,1,0,0,0,21,21,156,1,,,,,,,,
,,,,,,,,,,,,,FF,,,,,,,,1.0835,,,,,,,,,,,,,,,,,,,,,,60fd03428b4a25226606b9ea,61036e227d71215a78b89df3,2021-07-30_13h16.23.336,Simcolourproject_2stim_asymm_v5,2020.2.10,MacIntel,60,61025ae37ef11b136ea224fe,,,,,,,,,1038,49.12164307,-55.71386719,1,0,0,response3disk,,4,-7.105834961,0.440551758,1,0,0,rectangle,-7.105834961,0.440551758,1,0,0,-7.105834961,0.440551758,1,0,0,0,22,22,139,1,,,,,,,,
,,,,,,,,,,,,,FF,,,,,,,,0.7994,,,,,,,,,,,,,,,,,,,,,,60fd03428b4a25226606b9ea,61036e227d71215a78b89df3,2021-07-30_13h16.23.336,Simcolourproject_2stim_asymm_v5,2020.2.10,MacIntel,60,61025ae37ef11b136ea224fe,,,,,,,,,991,29.85968018,-42.52429199,1,0,0,response3disk,,4,6.134338379,-8.789031982,1,0,0,rectangle,6.134338379,-8.789031982,1,0,0,6.134338379,-8.789031982,1,0,0,0,23,23,136,1,,,,,,,,
,,,,,,,,,,,,,FF,,,,,,,,0.4839,,,,,,,,,,,,,,,,,,,,,,60fd03428b4a25226606b9ea,61036e227d71215a78b89df3,2021-07-30_13h16.23.336,Simcolourproject_2stim_asymm_v5,2020.2.10,MacIntel,60,61025ae37ef11b136ea224fe,,,,,,,,,2130,71.00042725,-64.42077637,1,0,0,response3disk,,5,17.39764404,1.749755859,1,0,0,rectangle,17.39764404,1.749755859,1,0,0,17.39764404,1.749755859,1,0,0,0,24,24,97,1,,,,,,,,
,,,,,,,,,,,,,FF,,,,,,,,1.1654,,,,,,,,,,,,,,,,,,,,,,60fd03428b4a25226606b9ea,61036e227d71215a78b89df3,2021-07-30_13h16.23.336,Simcolourproject_2stim_asymm_v5,2020.2.10,MacIntel,60,61025ae37ef11b136ea224fe,,,,,,,,,1331,25.36181641,-67.95056152,1,0,0,response3disk,,4,1.875976563,-14.40020752,1,0,0,rectangle,1.875976563,-14.40020752,1,0,0,1.875976563,-14.40020752,1,0,0,0,25,25,96,1,,,,,,,,
,,,,,,,,,,,,,FF,,,,,,,,0.6003,,,,,,,,,,,,,,,,,,,,,,60fd03428b4a25226606b9ea,61036e227d71215a78b89df3,2021-07-30_13h16.23.336,Simcolourproject_2stim_asymm_v5,2020.2.10,MacIntel,60,61025ae37ef11b136ea224fe,,,,,,,,,248,30.7479248,-30.41265869,1,0,0,response3disk,,5,-2.320495605,3.357147217,1,0,0,rectangle,-2.320495605,3.357147217,1,0,0,-2.320495605,3.357147217,1,0,0,0,26,26,54,1,,,,,,,,
,,,,,,,,,,,,,FF,,,,,,,,0.5833,,,,,,,,,,,,,,,,,,,,,,60fd03428b4a25226606b9ea,61036e227d71215a78b89df3,2021-07-30_13h16.23.336,Simcolourproject_2stim_asymm_v5,2020.2.10,MacIntel,60,61025ae37ef11b136ea224fe,,,,,,,,,3729,51.46496582,-54.29919434,1,0,0,response3disk,,4,9.329833984,16.13989258,1,0,0,rectangle,9.329833984,16.13989258,1,0,0,9.329833984,16.13989258,1,0,0,0,27,27,2,1,,,,,,,,
,,,,,,,,,,,,,FF,,,,,,,,0.5988,,,,,,,,,,,,,,,,,,,,,,60fd03428b4a25226606b9ea,61036e227d71215a78b89df3,2021-07-30_13h16.23.336,Simcolourproject_2stim_asymm_v5,2020.2.10,MacIntel,60,61025ae37ef11b136ea224fe,,,,,,,,,584,29.12469482,27.78207397,1,0,0,response1disk,,6,10.59179688,12.85028076,1,0,0,rectangle,10.59179688,12.85028076,1,0,0,10.59179688,12.85028076,1,0,0,0,28,28,74,1,,,,,,,,
,,,,,,,,,,,,,FF,,,,,,,,0.582,,,,,,,,,,,,,,,,,,,,,,60fd03428b4a25226606b9ea,61036e227d71215a78b89df3,2021-07-30_13h16.23.336,Simcolourproject_2stim_asymm_v5,2020.2.10,MacIntel,60,61025ae37ef11b136ea224fe,,,,,,,,,3957,44.87957764,38.0680542,1,0,0,response1disk,,6,10.76348877,-0.517822266,1,0,0,rectangle,10.76348877,-0.517822266,1,0,0,10.76348877,-0.517822266,1,0,0,0,29,29,31,1,,,,,,,,
,,,,,,,,,,,,,FF,,,,,,,,0.6838,,,,,,,,,,,,,,,,,,,,,,60fd03428b4a25226606b9ea,61036e227d71215a78b89df3,2021-07-30_13h16.23.336,Simcolourproject_2stim_asymm_v5,2020.2.10,MacIntel,60,61025ae37ef11b136ea224fe,,,,,,,,,2280,33.29760742,33.13018799,1,0,0,response1disk,,6,14.14898682,16.2277832,1,0,0,rectangle,14.14898682,16.2277832,1,0,0,14.14898682,16.2277832,1,0,0,0,30,30,112,1,,,,,,,,
,,,,,,,,,,,,,FF,,,,,,,,1.5001,,,,,,,,,,,,,,,,,,,,,,60fd03428b4a25226606b9ea,61036e227d71215a78b89df3,2021-07-30_13h16.23.336,Simcolourproject_2stim_asymm_v5,2020.2.10,MacIntel,60,61025ae37ef11b136ea224fe,,,,,,,,,2653,30.30786133,-93.11828613,1,0,0,response3disk,,4,-0.606933594,2.645874023,1,0,0,rectangle,-0.606933594,2.645874023,1,0,0,-0.606933594,2.645874023,1,0,0,0,31,31,16,1,,,,,,,,
,,,,,,,,,,,,,FF,,,,,,,,0.6507,,,,,,,,,,,,,,,,,,,,,,60fd03428b4a25226606b9ea,61036e227d71215a78b89df3,2021-07-30_13h16.23.336,Simcolourproject_2stim_asymm_v5,2020.2.10,MacIntel,60,61025ae37ef11b136ea224fe,,,,,,,,,1301,-53.73950195,-78.49633789,1,0,0,response5disk,,3,-2.491516113,13.08520508,1,0,0,rectangle,-2.491516113,13.08520508,1,0,0,-2.491516113,13.08520508,1,0,0,0,32,32,42,1,,,,,,,,
,,,,,,,,,,,,,FF,,,,,,,,0.8496,,,,,,,,,,,,,,,,,,,,,,60fd03428b4a25226606b9ea,61036e227d71215a78b89df3,2021-07-30_13h16.23.336,Simcolourproject_2stim_asymm_v5,2020.2.10,MacIntel,60,61025ae37ef11b136ea224fe,,,,,,,,,2612,36.88549805,32.58166504,1,0,0,response1disk,,6,4.398254395,-4.250274658,1,0,0,rectangle,4.398254395,-4.250274658,1,0,0,4.398254395,-4.250274658,1,0,0,0,33,33,20,1,,,,,,,,
,,,,,,,,,,,,,FF,,,,,,,,0.7991,,,,,,,,,,,,,,,,,,,,,,60fd03428b4a25226606b9ea,61036e227d71215a78b89df3,2021-07-30_13h16.23.336,Simcolourproject_2stim_asymm_v5,2020.2.10,MacIntel,60,61025ae37ef11b136ea224fe,,,,,,,,,1533,48.83959961,-47.24472046,1,0,0,response3disk,,5,18.70391846,-10.65014648,1,0,0,rectangle,18.70391846,-10.65014648,1,0,0,18.70391846,-10.65014648,1,0,0,0,34,34,52,1,,,,,,,,
,,,,,,,,,,,,,FF,,,,,,,,0.9153,,,,,,,,,,,,,,,,,,,,,,60fd03428b4a25226606b9ea,61036e227d71215a78b89df3,2021-07-30_13h16.23.336,Simcolourproject_2stim_asymm_v5,2020.2.10,MacIntel,60,61025ae37ef11b136ea224fe,,,,,,,,,3861,45.10510254,-48.17825317,1,0,0,response3disk,,4,-4.802062988,-2.506652832,1,0,0,rectangle,-4.802062988,-2.506652832,1,0,0,-4.802062988,-2.506652832,1,0,0,0,35,35,94,1,,,,,,,,
,,,,,,,,,,,,,FF,,,,,,,,0.8326,,,,,,,,,,,,,,,,,,,,,,60fd03428b4a25226606b9ea,61036e227d71215a78b89df3,2021-07-30_13h16.23.336,Simcolourproject_2stim_asymm_v5,2020.2.10,MacIntel,60,61025ae37ef11b136ea224fe,,,,,,,,,1159,42.71569824,-38.51837158,1,0,0,response3disk,,5,14.07489014,-9.336730957,1,0,0,rectangle,14.07489014,-9.336730957,1,0,0,14.07489014,-9.336730957,1,0,0,0,36,36,119,1,,,,,,,,
,,,,,,,,,,,,,FF,,,,,,,,1.8004,,,,,,,,,,,,,,,,,,,,,,60fd03428b4a25226606b9ea,61036e227d71215a78b89df3,2021-07-30_13h16.23.336,Simcolourproject_2stim_asymm_v5,2020.2.10,MacIntel,60,61025ae37ef11b136ea224fe,,,,,,,,,1537,-34.21679688,-88.91333008,1,0,0,response5disk,,3,-8.867553711,11.96292114,1,0,0,rectangle,-8.867553711,11.96292114,1,0,0,-8.867553711,11.96292114,1,0,0,0,37,37,84,1,,,,,,,,
,,,,,,,,,,,,,FF,,,,,,,,0.8835,,,,,,,,,,,,,,,,,,,,,,60fd03428b4a25226606b9ea,61036e227d71215a78b89df3,2021-07-30_13h16.23.336,Simcolourproject_2stim_asymm_v5,2020.2.10,MacIntel,60,61025ae37ef11b136ea224fe,,,,,,,,,1757,-87.87084961,-31.35931396,1,0,0,response5disk,,2,-13.68487549,15.58184814,1,0,0,rectangle,-13.68487549,15.58184814,1,0,0,-13.68487549,15.58184814,1,0,0,0,38,38,89,1,,,,,,,,
,,,,,,,,,,,,,FF,,,,,,,,1.1159,,,,,,,,,,,,,,,,,,,,,,60fd03428b4a25226606b9ea,61036e227d71215a78b89df3,2021-07-30_13h16.23.336,Simcolourproject_2stim_asymm_v5,2020.2.10,MacIntel,60,61025ae37ef11b136ea224fe,,,,,,,,,504,63.49285889,-71.21820068,1,0,0,response3disk,,4,8.637268066,15.9664917,1,0,0,rectangle,8.637268066,15.9664917,1,0,0,8.637268066,15.9664917,1,0,0,0,39,39,128,1,,,,,,,,
,,,,,,,,,,,,,FF,,,,,,,,0.9666,,,,,,,,,,,,,,,,,,,,,,60fd03428b4a25226606b9ea,61036e227d71215a78b89df3,2021-07-30_13h16.23.336,Simcolourproject_2stim_asymm_v5,2020.2.10,MacIntel,60,61025ae37ef11b136ea224fe,,,,,,,,,3308,30.29870605,27.67575073,1,0,0,response1disk,,6,20.8828125,-12.90182495,1,0,0,rectangle,20.8828125,-12.90182495,1,0,0,20.8828125,-12.90182495,1,0,0,0,40,40,117,1,,,,,,,,
,,,,,,,,,,,,,FF,,,,,,,,1.1,,,,,,,,,,,,,,,,,,,,,,60fd03428b4a25226606b9ea,61036e227d71215a78b89df3,2021-07-30_13h16.23.336,Simcolourproject_2stim_asymm_v5,2020.2.10,MacIntel,60,61025ae37ef11b136ea224fe,,,,,,,,,906,41.60534668,-49.18310547,1,0,0,response3disk,,4,7.235046387,-5.034912109,1,0,0,rectangle,7.235046387,-5.034912109,1,0,0,7.235046387,-5.034912109,1,0,0,0,41,41,24,1,,,,,,,,
,,,,,,,,,,,,,FF,,,,,,,,0.9828,,,,,,,,,,,,,,,,,,,,,,60fd03428b4a25226606b9ea,61036e227d71215a78b89df3,2021-07-30_13h16.23.336,Simcolourproject_2stim_asymm_v5,2020.2.10,MacIntel,60,61025ae37ef11b136ea224fe,,,,,,,,,1362,39.9864502,-24.68859863,1,0,0,response3disk,,5,-18.87768555,4.958190918,1,0,0,rectangle,-94.59973145,45.81542969,1,0,0,-10.63336182,4.728027344,1,0,0,0,42,42,149,1,,response7disk_3,TRUE,1,0,"[274,189,225,9,314,186,162,309,236,81,273,95,5,18,263,43,224,102,127,183]",1.4837,rectangle
,,,,,,,,,,,,,FF,,,,,,,,0.7997,,,,,,,,,,,,,,,,,,,,,,60fd03428b4a25226606b9ea,61036e227d71215a78b89df3,2021-07-30_13h16.23.336,Simcolourproject_2stim_asymm_v5,2020.2.10,MacIntel,60,61025ae37ef11b136ea224fe,,,,,,,,,2941,-68.56994629,26.54400635,1,0,0,response7disk,,1,-17.02929688,2.440155029,1,0,0,rectangle,-17.02929688,2.440155029,1,0,0,-17.02929688,2.440155029,1,0,0,0,43,43,113,1,,,,,,,,
,,,,,,,,,,,,,FF,,,,,,,,1.7837,,,,,,,,,,,,,,,,,,,,,,60fd03428b4a25226606b9ea,61036e227d71215a78b89df3,2021-07-30_13h16.23.336,Simcolourproject_2stim_asymm_v5,2020.2.10,MacIntel,60,61025ae37ef11b136ea224fe,,,,,,,,,3761,34.36773682,-55.00857544,1,0,0,response3disk,,4,24.09503174,-2.373046875,1,0,0,rectangle,24.09503174,-2.373046875,1,0,0,24.09503174,-2.373046875,1,0,0,0,44,44,73,1,,,,,,,,
,,,,,,,,,,,,,FF,,,,,,,,0.6668,,,,,,,,,,,,,,,,,,,,,,60fd03428b4a25226606b9ea,61036e227d71215a78b89df3,2021-07-30_13h16.23.336,Simcolourproject_2stim_asymm_v5,2020.2.10,MacIntel,60,61025ae37ef11b136ea224fe,,,,,,,,,4299,56.27026367,-60.01293945,1,0,0,response3disk,,4,28.08087158,-4.13848877,1,0,0,rectangle,28.08087158,-4.13848877,1,0,0,28.08087158,-4.13848877,1,0,0,0,45,45,75,1,,,,,,,,
,,,,,,,,,,,,,FF,,,,,,,,0.9984,,,,,,,,,,,,,,,,,,,,,,60fd03428b4a25226606b9ea,61036e227d71215a78b89df3,2021-07-30_13h16.23.336,Simcolourproject_2stim_asymm_v5,2020.2.10,MacIntel,60,61025ae37ef11b136ea224fe,,,,,,,,,3674,-25.68859863,-54.46966553,1,0,0,response5disk,,3,-16.25622559,5.21307373,1,0,0,rectangle,-16.25622559,5.21307373,1,0,0,-16.25622559,5.21307373,1,0,0,0,46,46,145,1,,,,,,,,
,,,,,,,,,,,,,FF,,,,,,,,0.6338,,,,,,,,,,,,,,,,,,,,,,60fd03428b4a25226606b9ea,61036e227d71215a78b89df3,2021-07-30_13h16.23.336,Simcolourproject_2stim_asymm_v5,2020.2.10,MacIntel,60,61025ae37ef11b136ea224fe,,,,,,,,,4183,-55.77197266,-71.24780273,1,0,0,response5disk,,3,-18.77606201,5.15246582,1,0,0,rectangle,-18.77606201,5.15246582,1,0,0,-18.77606201,5.15246582,1,0,0,0,47,47,132,1,,,,,,,,
,,,,,,,,,,,,,FF,,,,,,,,0.717,,,,,,,,,,,,,,,,,,,,,,60fd03428b4a25226606b9ea,61036e227d71215a78b89df3,2021-07-30_13h16.23.336,Simcolourproject_2stim_asymm_v5,2020.2.10,MacIntel,60,61025ae37ef11b136ea224fe,,,,,,,,,18,68.33825684,-50.36877441,1,0,0,response3disk,,5,17.04931641,-7.039367676,1,0,0,rectangle,17.04931641,-7.039367676,1,0,0,17.04931641,-7.039367676,1,0,0,0,48,48,72,1,,,,,,,,
,,,,,,,,,,,,,FF,,,,,,,,0.6002,,,,,,,,,,,,,,,,,,,,,,60fd03428b4a25226606b9ea,61036e227d71215a78b89df3,2021-07-30_13h16.23.336,Simcolourproject_2stim_asymm_v5,2020.2.10,MacIntel,60,61025ae37ef11b136ea224fe,,,,,,,,,3312,43.06958008,-50.93927002,1,0,0,response3disk,,4,9.626831055,11.20297241,1,0,0,rectangle,9.626831055,11.20297241,1,0,0,9.626831055,11.20297241,1,0,0,0,49,49,111,1,,,,,,,,
,,,,,,,,,,,,,FF,,,,,,,,0.4663,,,,,,,,,,,,,,,,,,,,,,60fd03428b4a25226606b9ea,61036e227d71215a78b89df3,2021-07-30_13h16.23.336,Simcolourproject_2stim_asymm_v5,2020.2.10,MacIntel,60,61025ae37ef11b136ea224fe,,,,,,,,,2271,32.66534424,30.85760498,1,0,0,response1disk,,6,12.42602539,7.99609375,1,0,0,rectangle,12.42602539,7.99609375,1,0,0,12.42602539,7.99609375,1,0,0,0,50,50,155,1,,,,,,,,
,,,,,,,,,,,,,FF,,,,,,,,0.4001,,,,,,,,,,,,,,,,,,,,,,60fd03428b4a25226606b9ea,61036e227d71215a78b89df3,2021-07-30_13h16.23.336,Simcolourproject_2stim_asymm_v5,2020.2.10,MacIntel,60,61025ae37ef11b136ea224fe,,,,,,,,,1649,48.25262451,41.0604248,1,0,0,response1disk,,6,7.004943848,16.60821533,1,0,0,rectangle,7.004943848,16.60821533,1,0,0,7.004943848,16.60821533,1,0,0,0,51,51,87,1,,,,,,,,
,,,,,,,,,,,,,FF,,,,,,,,1.1167,,,,,,,,,,,,,,,,,,,,,,60fd03428b4a25226606b9ea,61036e227d71215a78b89df3,2021-07-30_13h16.23.336,Simcolourproject_2stim_asymm_v5,2020.2.10,MacIntel,60,61025ae37ef11b136ea224fe,,,,,,,,,3588,56.98999023,-63.99450684,1,0,0,response3disk,,4,18.37823486,-16.93838501,1,0,0,rectangle,18.37823486,-16.93838501,1,0,0,18.37823486,-16.93838501,1,0,0,0,52,52,123,1,,,,,,,,
,,,,,,,,,,,,,FF,,,,,,,,0.966,,,,,,,,,,,,,,,,,,,,,,60fd03428b4a25226606b9ea,61036e227d71215a78b89df3,2021-07-30_13h16.23.336,Simcolourproject_2stim_asymm_v5,2020.2.10,MacIntel,60,61025ae37ef11b136ea224fe,,,,,,,,,4253,-78.14306641,-80.66101074,1,0,0,response5disk,,3,-0.727905273,-1.580383301,1,0,0,rectangle,-0.727905273,-1.580383301,1,0,0,-0.727905273,-1.580383301,1,0,0,0,53,53,50,1,,,,,,,,
,,,,,,,,,,,,,FF,,,,,,,,0.8828,,,,,,,,,,,,,,,,,,,,,,60fd03428b4a25226606b9ea,61036e227d71215a78b89df3,2021-07-30_13h16.23.336,Simcolourproject_2stim_asymm_v5,2020.2.10,MacIntel,60,61025ae37ef11b136ea224fe,,,,,,,,,1960,-43.15368652,-55.85174561,1,0,0,response5disk,,3,6.291381836,2.3515625,1,0,0,rectangle,6.291381836,2.3515625,1,0,0,6.291381836,2.3515625,1,0,0,0,54,54,60,1,,,,,,,,
,,,,,,,,,,,,,FF,,,,,,,,0.7499,,,,,,,,,,,,,,,,,,,,,,60fd03428b4a25226606b9ea,61036e227d71215a78b89df3,2021-07-30_13h16.23.336,Simcolourproject_2stim_asymm_v5,2020.2.10,MacIntel,60,61025ae37ef11b136ea224fe,,,,,,,,,1187,58.05206299,-28.2963562,1,0,0,response3disk,,5,13.6385498,-9.054260254,1,0,0,rectangle,13.6385498,-9.054260254,1,0,0,13.6385498,-9.054260254,1,0,0,0,55,55,47,1,,,,,,,,
,,,,,,,,,,,,,FF,,,,,,,,0.6669,,,,,,,,,,,,,,,,,,,,,,60fd03428b4a25226606b9ea,61036e227d71215a78b89df3,2021-07-30_13h16.23.336,Simcolourproject_2stim_asymm_v5,2020.2.10,MacIntel,60,61025ae37ef11b136ea224fe,,,,,,,,,2312,39.32904053,28.55975342,1,0,0,response1disk,,6,11.94763184,14.43304443,1,0,0,rectangle,11.94763184,14.43304443,1,0,0,11.94763184,14.43304443,1,0,0,0,56,56,108,1,,,,,,,,
,,,,,,,,,,,,,FF,,,,,,,,0.5169,,,,,,,,,,,,,,,,,,,,,,60fd03428b4a25226606b9ea,61036e227d71215a78b89df3,2021-07-30_13h16.23.336,Simcolourproject_2stim_asymm_v5,2020.2.10,MacIntel,60,61025ae37ef11b136ea224fe,,,,,,,,,1992,26.58325195,34.98974609,1,0,0,response1disk,,7,26.83660889,-15.5135498,1,0,0,rectangle,26.83660889,-15.5135498,1,0,0,26.83660889,-15.5135498,1,0,0,0,57,57,124,1,,,,,,,,
,,,,,,,,,,,,,FF,,,,,,,,0.4827,,,,,,,,,,,,,,,,,,,,,,60fd03428b4a25226606b9ea,61036e227d71215a78b89df3,2021-07-30_13h16.23.336,Simcolourproject_2stim_asymm_v5,2020.2.10,MacIntel,60,61025ae37ef11b136ea224fe,,,,,,,,,3780,46.52856445,36.79742432,1,0,0,response1disk,,6,35.24847412,4.303985596,1,0,0,rectangle,35.24847412,4.303985596,1,0,0,35.24847412,4.303985596,1,0,0,0,58,58,95,1,,,,,,,,
,,,,,,,,,,,,,FF,,,,,,,,0.4993,,,,,,,,,,,,,,,,,,,,,,60fd03428b4a25226606b9ea,61036e227d71215a78b89df3,2021-07-30_13h16.23.336,Simcolourproject_2stim_asymm_v5,2020.2.10,MacIntel,60,61025ae37ef11b136ea224fe,,,,,,,,,1105,62.87408447,70.39596558,1,0,0,response1disk,,7,18.70904541,10.42819214,1,0,0,rectangle,18.70904541,10.42819214,1,0,0,18.70904541,10.42819214,1,0,0,0,59,59,77,1,,,,,,,,
,,,,,,,,,,,,,FF,,,,,,,,0.7333,,,,,,,,,,,,,,,,,,,,,,60fd03428b4a25226606b9ea,61036e227d71215a78b89df3,2021-07-30_13h16.23.336,Simcolourproject_2stim_asymm_v5,2020.2.10,MacIntel,60,61025ae37ef11b136ea224fe,,,,,,,,,4302,39.77185059,-47.15966797,1,0,0,response3disk,,4,3.499938965,14.21838379,1,0,0,rectangle,3.499938965,14.21838379,1,0,0,3.499938965,14.21838379,1,0,0,0,60,60,53,1,,,,,,,,
,,,,,,,,,,,,,FF,,,,,,,,0.4345,,,,,,,,,,,,,,,,,,,,,,60fd03428b4a25226606b9ea,61036e227d71215a78b89df3,2021-07-30_13h16.23.336,Simcolourproject_2stim_asymm_v5,2020.2.10,MacIntel,60,61025ae37ef11b136ea224fe,,,,,,,,,164,32.9418335,35.14282227,1,0,0,response1disk,,7,-15.6192627,9.581268311,1,0,0,rectangle,-15.6192627,9.581268311,1,0,0,-15.6192627,9.581268311,1,0,0,0,61,61,22,1,,,,,,,,
,,,,,,,,,,,,,FF,,,,,,,,1.5337,,,,,,,,,,,,,,,,,,,,,,60fd03428b4a25226606b9ea,61036e227d71215a78b89df3,2021-07-30_13h16.23.336,Simcolourproject_2stim_asymm_v5,2020.2.10,MacIntel,60,61025ae37ef11b136ea224fe,,,,,,,,,1828,-78.77386475,-32.33880615,1,0,0,response5disk,,2,13.34362793,13.82641602,1,0,0,rectangle,13.34362793,13.82641602,1,0,0,13.34362793,13.82641602,1,0,0,0,62,62,68,1,,,,,,,,
,,,,,,,,,,,,,FF,,,,,,,,1.0501,,,,,,,,,,,,,,,,,,,,,,60fd03428b4a25226606b9ea,61036e227d71215a78b89df3,2021-07-30_13h16.23.336,Simcolourproject_2stim_asymm_v5,2020.2.10,MacIntel,60,61025ae37ef11b136ea224fe,,,,,,,,,1265,28.75317383,-43.09362793,1,0,0,response3disk,,4,7.889831543,11.98028564,1,0,0,rectangle,7.889831543,11.98028564,1,0,0,7.889831543,11.98028564,1,0,0,0,63,63,151,1,,,,,,,,
,,,,,,,,,,,,,FF,,,,,,,,1.367,,,,,,,,,,,,,,,,,,,,,,60fd03428b4a25226606b9ea,61036e227d71215a78b89df3,2021-07-30_13h16.23.336,Simcolourproject_2stim_asymm_v5,2020.2.10,MacIntel,60,61025ae37ef11b136ea224fe,,,,,,,,,2824,-55.38354492,-33.34176636,1,0,0,response5disk,,2,19.11383057,11.99743652,1,0,0,rectangle,19.11383057,11.99743652,1,0,0,19.11383057,11.99743652,1,0,0,0,64,64,142,1,,,,,,,,
,,,,,,,,,,,,,FF,,,,,,,,0.5822,,,,,,,,,,,,,,,,,,,,,,60fd03428b4a25226606b9ea,61036e227d71215a78b89df3,2021-07-30_13h16.23.336,Simcolourproject_2stim_asymm_v5,2020.2.10,MacIntel,60,61025ae37ef11b136ea224fe,,,,,,,,,1001,62.68664551,-42.1305542,1,0,0,response3disk,,5,14.86242676,0.536865234,1,0,0,rectangle,14.86242676,0.536865234,1,0,0,14.86242676,0.536865234,1,0,0,0,65,65,39,1,,,,,,,,
,,,,,,,,,,,,,FF,,,,,,,,0.4331,,,,,,,,,,,,,,,,,,,,,,60fd03428b4a25226606b9ea,61036e227d71215a78b89df3,2021-07-30_13h16.23.336,Simcolourproject_2stim_asymm_v5,2020.2.10,MacIntel,60,61025ae37ef11b136ea224fe,,,,,,,,,656,40.13232422,32.12210083,1,0,0,response1disk,,6,4.914245605,8.716552734,1,0,0,rectangle,4.914245605,8.716552734,1,0,0,4.914245605,8.716552734,1,0,0,0,66,66,83,1,,,,,,,,
,,,,,,,,,,,,,FF,,,,,,,,0.7002,,,,,,,,,,,,,,,,,,,,,,60fd03428b4a25226606b9ea,61036e227d71215a78b89df3,2021-07-30_13h16.23.336,Simcolourproject_2stim_asymm_v5,2020.2.10,MacIntel,60,61025ae37ef11b136ea224fe,,,,,,,,,497,30.98077393,-54.38912964,1,0,0,response3disk,,4,9.94140625,4.759124756,1,0,0,rectangle,9.94140625,4.759124756,1,0,0,9.94140625,4.759124756,1,0,0,0,67,67,56,1,,,,,,,,
,,,,,,,,,,,,,FF,,,,,,,,0.4012,,,,,,,,,,,,,,,,,,,,,,60fd03428b4a25226606b9ea,61036e227d71215a78b89df3,2021-07-30_13h16.23.336,Simcolourproject_2stim_asymm_v5,2020.2.10,MacIntel,60,61025ae37ef11b136ea224fe,,,,,,,,,3340,-36.83862305,-59.70980835,1,0,0,response5disk,,3,4.47265625,3.330810547,1,0,0,rectangle,4.47265625,3.330810547,1,0,0,4.47265625,3.330810547,1,0,0,0,68,68,62,1,,,,,,,,
,,,,,,,,,,,,,FF,,,,,,,,0.9504,,,,,,,,,,,,,,,,,,,,,,60fd03428b4a25226606b9ea,61036e227d71215a78b89df3,2021-07-30_13h16.23.336,Simcolourproject_2stim_asymm_v5,2020.2.10,MacIntel,60,61025ae37ef11b136ea224fe,,,,,,,,,3941,-44.52166748,-39.51574707,1,0,0,response5disk,,2,-24.60632324,-8.967468262,1,0,0,rectangle,-24.60632324,-8.967468262,1,0,0,-24.60632324,-8.967468262,1,0,0,0,69,69,67,1,,,,,,,,
,,,,,,,,,,,,,FF,,,,,,,,1.2661,,,,,,,,,,,,,,,,,,,,,,60fd03428b4a25226606b9ea,61036e227d71215a78b89df3,2021-07-30_13h16.23.336,Simcolourproject_2stim_asymm_v5,2020.2.10,MacIntel,60,61025ae37ef11b136ea224fe,,,,,,,,,3258,-52.63323975,50.8482666,1,0,0,response7disk,,1,-19.76568604,14.17831421,1,0,0,rectangle,-19.76568604,14.17831421,1,0,0,-19.76568604,14.17831421,1,0,0,0,70,70,157,1,,,,,,,,
,,,,,,,,,,,,,FF,,,,,,,,4.9836,,,,,,,,,,,,,,,,,,,,,,60fd03428b4a25226606b9ea,61036e227d71215a78b89df3,2021-07-30_13h16.23.336,Simcolourproject_2stim_asymm_v5,2020.2.10,MacIntel,60,61025ae37ef11b136ea224fe,,,,,,,,,3394,-32.94104004,37.59283447,1,0,0,response7disk,,0,-10.65222168,12.02624512,1,0,0,rectangle,-10.65222168,12.02624512,1,0,0,-10.65222168,12.02624512,1,0,0,0,71,71,88,1,,,,,,,,
,,,,,,,,,,,,,FF,,,,,,,,1.0171,,,,,,,,,,,,,,,,,,,,,,60fd03428b4a25226606b9ea,61036e227d71215a78b89df3,2021-07-30_13h16.23.336,Simcolourproject_2stim_asymm_v5,2020.2.10,MacIntel,60,61025ae37ef11b136ea224fe,,,,,,,,,2289,-31.78234863,-37.64709473,1,0,0,response5disk,,3,12.33996582,5.194671631,1,0,0,rectangle,12.33996582,5.194671631,1,0,0,12.33996582,5.194671631,1,0,0,0,72,72,4,1,,,,,,,,
,,,,,,,,,,,,,FF,,,,,,,,0.5661,,,,,,,,,,,,,,,,,,,,,,60fd03428b4a25226606b9ea,61036e227d71215a78b89df3,2021-07-30_13h16.23.336,Simcolourproject_2stim_asymm_v5,2020.2.10,MacIntel,60,61025ae37ef11b136ea224fe,,,,,,,,,505,59.01361084,-75.16925049,1,0,0,response3disk,,4,-0.989013672,6.918121338,1,0,0,rectangle,-0.989013672,6.918121338,1,0,0,-0.989013672,6.918121338,1,0,0,0,73,73,85,1,,,,,,,,
,,,,,,,,,,,,,FF,,,,,,,,0.5157,,,,,,,,,,,,,,,,,,,,,,60fd03428b4a25226606b9ea,61036e227d71215a78b89df3,2021-07-30_13h16.23.336,Simcolourproject_2stim_asymm_v5,2020.2.10,MacIntel,60,61025ae37ef11b136ea224fe,,,,,,,,,774,37.38427734,38.19732666,1,0,0,response1disk,,7,11.74902344,-6.393218994,1,0,0,rectangle,11.74902344,-6.393218994,1,0,0,11.74902344,-6.393218994,1,0,0,0,74,74,114,1,,,,,,,,
,,,,,,,,,,,,,FF,,,,,,,,1.5674,,,,,,,,,,,,,,,,,,,,,,60fd03428b4a25226606b9ea,61036e227d71215a78b89df3,2021-07-30_13h16.23.336,Simcolourproject_2stim_asymm_v5,2020.2.10,MacIntel,60,61025ae37ef11b136ea224fe,,,,,,,,,3238,-64.23760986,-48.76678467,1,0,0,response5disk,,2,-6.108520508,-8.448669434,1,0,0,rectangle,-6.108520508,-8.448669434,1,0,0,-6.108520508,-8.448669434,1,0,0,0,75,75,1,1,,,,,,,,
,,,,,,,,,,,,,FF,,,,,,,,1.066,,,,,,,,,,,,,,,,,,,,,,60fd03428b4a25226606b9ea,61036e227d71215a78b89df3,2021-07-30_13h16.23.336,Simcolourproject_2stim_asymm_v5,2020.2.10,MacIntel,60,61025ae37ef11b136ea224fe,,,,,,,,,3648,54.79571533,33.55337524,1,0,0,response1disk,,6,19.70147705,8.900848389,1,0,0,rectangle,19.70147705,8.900848389,1,0,0,19.70147705,8.900848389,1,0,0,0,76,76,35,1,,,,,,,,
,,,,,,,,,,,,,FF,,,,,,,,1.2498,,,,,,,,,,,,,,,,,,,,,,60fd03428b4a25226606b9ea,61036e227d71215a78b89df3,2021-07-30_13h16.23.336,Simcolourproject_2stim_asymm_v5,2020.2.10,MacIntel,60,61025ae37ef11b136ea224fe,,,,,,,,,4205,-28.45593262,25.07363892,1,0,0,response7disk,,1,-9.766845703,3.73059082,1,0,0,rectangle,-9.766845703,3.73059082,1,0,0,-9.766845703,3.73059082,1,0,0,0,77,77,129,1,,,,,,,,
,,,,,,,,,,,,,FF,,,,,,,,0.6648,,,,,,,,,,,,,,,,,,,,,,60fd03428b4a25226606b9ea,61036e227d71215a78b89df3,2021-07-30_13h16.23.336,Simcolourproject_2stim_asymm_v5,2020.2.10,MacIntel,60,61025ae37ef11b136ea224fe,,,,,,,,,3255,42.90698242,-39.77801514,1,0,0,response3disk,,5,7.373413086,-6.73236084,1,0,0,rectangle,7.373413086,-6.73236084,1,0,0,7.373413086,-6.73236084,1,0,0,0,78,78,126,1,,,,,,,,
,,,,,,,,,,,,,FF,,,,,,,,0.6828,,,,,,,,,,,,,,,,,,,,,,60fd03428b4a25226606b9ea,61036e227d71215a78b89df3,2021-07-30_13h16.23.336,Simcolourproject_2stim_asymm_v5,2020.2.10,MacIntel,60,61025ae37ef11b136ea224fe,,,,,,,,,2371,36.70007324,-24.71746826,1,0,0,response3disk,,5,22.2588501,-1.119873047,1,0,0,rectangle,22.2588501,-1.119873047,1,0,0,22.2588501,-1.119873047,1,0,0,0,79,79,32,1,,,,,,,,
,,,,,,,,,,,,,FF,,,,,,,,0.718,,,,,,,,,,,,,,,,,,,,,,60fd03428b4a25226606b9ea,61036e227d71215a78b89df3,2021-07-30_13h16.23.336,Simcolourproject_2stim_asymm_v5,2020.2.10,MacIntel,60,61025ae37ef11b136ea224fe,,,,,,,,,3474,-39.48779297,-45.76031494,1,0,0,response5disk,,3,9.620727539,10.96054077,1,0,0,rectangle,74.85906982,38.51025391,1,0,0,21.28485107,-1.176422119,1,0,0,0,80,80,121,1,,response1disk_3,TRUE,6,6,"[274,189,225,9,314,186,162,309,236,81,273,95,5,18,263,43,224,102,127,183]",1.9331,rectangle
,,,,,,,,,,,,,FF,,,,,,,,2.9835,,,,,,,,,,,,,,,,,,,,,,60fd03428b4a25226606b9ea,61036e227d71215a78b89df3,2021-07-30_13h16.23.336,Simcolourproject_2stim_asymm_v5,2020.2.10,MacIntel,60,61025ae37ef11b136ea224fe,,,,,,,,,2967,56.98175049,-69.62841797,1,0,0,response3disk,,4,12.47363281,-6.419433594,1,0,0,rectangle,12.47363281,-6.419433594,1,0,0,12.47363281,-6.419433594,1,0,0,0,81,81,93,1,,,,,,,,
,,,,,,,,,,,,,FF,,,,,,,,0.9498,,,,,,,,,,,,,,,,,,,,,,60fd03428b4a25226606b9ea,61036e227d71215a78b89df3,2021-07-30_13h16.23.336,Simcolourproject_2stim_asymm_v5,2020.2.10,MacIntel,60,61025ae37ef11b136ea224fe,,,,,,,,,2252,56.4375,61.68753052,1,0,0,response1disk,,7,0.671203613,11.49017334,1,0,0,rectangle,0.671203613,11.49017334,1,0,0,0.671203613,11.49017334,1,0,0,0,82,82,99,1,,,,,,,,
,,,,,,,,,,,,,FF,,,,,,,,0.9163,,,,,,,,,,,,,,,,,,,,,,60fd03428b4a25226606b9ea,61036e227d71215a78b89df3,2021-07-30_13h16.23.336,Simcolourproject_2stim_asymm_v5,2020.2.10,MacIntel,60,61025ae37ef11b136ea224fe,,,,,,,,,2504,43.11157227,31.3706665,1,0,0,response1disk,,6,14.62268066,-3.617919922,1,0,0,rectangle,14.62268066,-3.617919922,1,0,0,14.62268066,-3.617919922,1,0,0,0,83,83,153,1,,,,,,,,
,,,,,,,,,,,,,FF,,,,,,,,1.5168,,,,,,,,,,,,,,,,,,,,,,60fd03428b4a25226606b9ea,61036e227d71215a78b89df3,2021-07-30_13h16.23.336,Simcolourproject_2stim_asymm_v5,2020.2.10,MacIntel,60,61025ae37ef11b136ea224fe,,,,,,,,,1194,-19.45031738,-57.34643555,1,0,0,response5disk,,3,-2.661010742,-4.609069824,1,0,0,rectangle,-2.661010742,-4.609069824,1,0,0,-2.661010742,-4.609069824,1,0,0,0,84,84,3,1,,,,,,,,
,,,,,,,,,,,,,FF,,,,,,,,0.7333,,,,,,,,,,,,,,,,,,,,,,60fd03428b4a25226606b9ea,61036e227d71215a78b89df3,2021-07-30_13h16.23.336,Simcolourproject_2stim_asymm_v5,2020.2.10,MacIntel,60,61025ae37ef11b136ea224fe,,,,,,,,,4273,47.52636719,-77.00549316,1,0,0,response3disk,,4,-9.360107422,-9.046020508,1,0,0,rectangle,-9.360107422,-9.046020508,1,0,0,-9.360107422,-9.046020508,1,0,0,0,85,85,17,1,,,,,,,,
,,,,,,,,,,,,,FF,,,,,,,,0.6659,,,,,,,,,,,,,,,,,,,,,,60fd03428b4a25226606b9ea,61036e227d71215a78b89df3,2021-07-30_13h16.23.336,Simcolourproject_2stim_asymm_v5,2020.2.10,MacIntel,60,61025ae37ef11b136ea224fe,,,,,,,,,719,-66.70697021,-59.96038818,1,0,0,response5disk,,2,32.1819458,-12.00775146,1,0,0,rectangle,32.1819458,-12.00775146,1,0,0,32.1819458,-12.00775146,1,0,0,0,86,86,135,1,,,,,,,,
,,,,,,,,,,,,,FF,,,,,,,,0.9995,,,,,,,,,,,,,,,,,,,,,,60fd03428b4a25226606b9ea,61036e227d71215a78b89df3,2021-07-30_13h16.23.336,Simcolourproject_2stim_asymm_v5,2020.2.10,MacIntel,60,61025ae37ef11b136ea224fe,,,,,,,,,639,-42.51739502,-56.93225098,1,0,0,response5disk,,3,15.3638916,-6.99621582,1,0,0,rectangle,15.3638916,-6.99621582,1,0,0,15.3638916,-6.99621582,1,0,0,0,87,87,59,1,,,,,,,,
,,,,,,,,,,,,,FF,,,,,,,,0.6826,,,,,,,,,,,,,,,,,,,,,,60fd03428b4a25226606b9ea,61036e227d71215a78b89df3,2021-07-30_13h16.23.336,Simcolourproject_2stim_asymm_v5,2020.2.10,MacIntel,60,61025ae37ef11b136ea224fe,,,,,,,,,2675,92.24035645,-43.98809814,1,0,0,response3disk,,5,-13.89733887,15.71948242,1,0,0,rectangle,-13.89733887,15.71948242,1,0,0,-13.89733887,15.71948242,1,0,0,0,88,88,159,1,,,,,,,,
,,,,,,,,,,,,,FF,,,,,,,,0.7999,,,,,,,,,,,,,,,,,,,,,,60fd03428b4a25226606b9ea,61036e227d71215a78b89df3,2021-07-30_13h16.23.336,Simcolourproject_2stim_asymm_v5,2020.2.10,MacIntel,60,61025ae37ef11b136ea224fe,,,,,,,,,804,-47.15319824,-24.16720581,1,0,0,response5disk,,2,23.00817871,14.68719482,1,0,0,rectangle,23.00817871,14.68719482,1,0,0,23.00817871,14.68719482,1,0,0,0,89,89,12,1,,,,,,,,
,,,,,,,,,,,,,FF,,,,,,,,1.9486,,,,,,,,,,,,,,,,,,,,,,60fd03428b4a25226606b9ea,61036e227d71215a78b89df3,2021-07-30_13h16.23.336,Simcolourproject_2stim_asymm_v5,2020.2.10,MacIntel,60,61025ae37ef11b136ea224fe,,,,,,,,,2917,45.32220459,-42.52270508,1,0,0,response3disk,,5,25.96478271,-11.32904053,1,0,0,rectangle,25.96478271,-11.32904053,1,0,0,25.96478271,-11.32904053,1,0,0,0,90,90,64,1,,,,,,,,
,,,,,,,,,,,,,FF,,,,,,,,0.5667,,,,,,,,,,,,,,,,,,,,,,60fd03428b4a25226606b9ea,61036e227d71215a78b89df3,2021-07-30_13h16.23.336,Simcolourproject_2stim_asymm_v5,2020.2.10,MacIntel,60,61025ae37ef11b136ea224fe,,,,,,,,,115,33.93969727,28.51501465,1,0,0,response1disk,,6,16.953125,9.984802246,1,0,0,rectangle,16.953125,9.984802246,1,0,0,16.953125,9.984802246,1,0,0,0,91,91,46,1,,,,,,,,
,,,,,,,,,,,,,FF,,,,,,,,3.8326,,,,,,,,,,,,,,,,,,,,,,60fd03428b4a25226606b9ea,61036e227d71215a78b89df3,2021-07-30_13h16.23.336,Simcolourproject_2stim_asymm_v5,2020.2.10,MacIntel,60,61025ae37ef11b136ea224fe,,,,,,,,,555,44.01568604,-88.31298828,1,0,0,response3disk,,4,-15.97644043,-8.186676025,1,0,0,rectangle,-15.97644043,-8.186676025,1,0,0,-15.97644043,-8.186676025,1,0,0,0,92,92,133,1,,,,,,,,
,,,,,,,,,,,,,FF,,,,,,,,0.7666,,,,,,,,,,,,,,,,,,,,,,60fd03428b4a25226606b9ea,61036e227d71215a78b89df3,2021-07-30_13h16.23.336,Simcolourproject_2stim_asymm_v5,2020.2.10,MacIntel,60,61025ae37ef11b136ea224fe,,,,,,,,,3199,71.62774658,-78.86499023,1,0,0,response3disk,,4,-0.805725098,-7.658081055,1,0,0,rectangle,-0.805725098,-7.658081055,1,0,0,-0.805725098,-7.658081055,1,0,0,0,93,93,91,1,,,,,,,,
,,,,,,,,,,,,,FF,,,,,,,,0.4831,,,,,,,,,,,,,,,,,,,,,,60fd03428b4a25226606b9ea,61036e227d71215a78b89df3,2021-07-30_13h16.23.336,Simcolourproject_2stim_asymm_v5,2020.2.10,MacIntel,60,61025ae37ef11b136ea224fe,,,,,,,,,2510,40.82702637,-50.12731934,1,0,0,response3disk,,4,24.93444824,-4.506256104,1,0,0,rectangle,-55.51843262,60.49520874,1,0,0,-9.739807129,-0.804077148,1,0,0,0,94,94,90,1,,response7disk_3,TRUE,0,1,"[274,189,225,9,314,186,162,309,236,81,273,95,5,18,263,43,224,102,127,183]",1.1496,rectangle
,,,,,,,,,,,,,FF,,,,,,,,0.8818,,,,,,,,,,,,,,,,,,,,,,60fd03428b4a25226606b9ea,61036e227d71215a78b89df3,2021-07-30_13h16.23.336,Simcolourproject_2stim_asymm_v5,2020.2.10,MacIntel,60,61025ae37ef11b136ea224fe,,,,,,,,,3082,35.75317383,-41.65460205,1,0,0,response3disk,,4,15.98974609,-16.34124756,1,0,0,rectangle,15.98974609,-16.34124756,1,0,0,15.98974609,-16.34124756,1,0,0,0,95,95,8,1,,,,,,,,
,,,,,,,,,,,,,FF,,,,,,,,0.7336,,,,,,,,,,,,,,,,,,,,,,60fd03428b4a25226606b9ea,61036e227d71215a78b89df3,2021-07-30_13h16.23.336,Simcolourproject_2stim_asymm_v5,2020.2.10,MacIntel,60,61025ae37ef11b136ea224fe,,,,,,,,,643,42.04071045,-36.89187622,1,0,0,response3disk,,5,-17.14733887,-7.571166992,1,0,0,rectangle,-17.14733887,-7.571166992,1,0,0,-17.14733887,-7.571166992,1,0,0,0,96,96,158,1,,,,,,,,
,,,,,,,,,,,,,FF,,,,,,,,0.5494,,,,,,,,,,,,,,,,,,,,,,60fd03428b4a25226606b9ea,61036e227d71215a78b89df3,2021-07-30_13h16.23.336,Simcolourproject_2stim_asymm_v5,2020.2.10,MacIntel,60,61025ae37ef11b136ea224fe,,,,,,,,,526,56.59454346,-56.41503906,1,0,0,response3disk,,5,15.9776001,-8.874542236,1,0,0,rectangle,15.9776001,-8.874542236,1,0,0,15.9776001,-8.874542236,1,0,0,0,97,97,69,1,,,,,,,,
,,,,,,,,,,,,,FF,,,,,,,,0.6168,,,,,,,,,,,,,,,,,,,,,,60fd03428b4a25226606b9ea,61036e227d71215a78b89df3,2021-07-30_13h16.23.336,Simcolourproject_2stim_asymm_v5,2020.2.10,MacIntel,60,61025ae37ef11b136ea224fe,,,,,,,,,385,-60.91015625,-53.03521729,1,0,0,response5disk,,2,-9.108093262,-5.731445313,1,0,0,rectangle,-9.108093262,-5.731445313,1,0,0,-9.108093262,-5.731445313,1,0,0,0,98,98,29,1,,,,,,,,
,,,,,,,,,,,,,FF,,,,,,,,0.8171,,,,,,,,,,,,,,,,,,,,,,60fd03428b4a25226606b9ea,61036e227d71215a78b89df3,2021-07-30_13h16.23.336,Simcolourproject_2stim_asymm_v5,2020.2.10,MacIntel,60,61025ae37ef11b136ea224fe,,,,,,,,,2666,-50.48583984,-51.44512939,1,0,0,response5disk,,3,-5.034240723,8.055725098,1,0,0,rectangle,-5.034240723,8.055725098,1,0,0,-5.034240723,8.055725098,1,0,0,0,99,99,40,1,,,,,,,,
,,,,,,,,,,,,,FF,,,,,,,,1.5842,,,,,,,,,,,,,,,,,,,,,,60fd03428b4a25226606b9ea,61036e227d71215a78b89df3,2021-07-30_13h16.23.336,Simcolourproject_2stim_asymm_v5,2020.2.10,MacIntel,60,61025ae37ef11b136ea224fe,,,,,,,,,4035,66.51422119,42.58215332,1,0,0,response1disk,,6,30.85723877,7.815429688,1,0,0,rectangle,30.85723877,7.815429688,1,0,0,30.85723877,7.815429688,1,0,0,0,100,100,150,1,,,,,,,,
,,,,,,,,,,,,,FF,,,,,,,,0.6174,,,,,,,,,,,,,,,,,,,,,,60fd03428b4a25226606b9ea,61036e227d71215a78b89df3,2021-07-30_13h16.23.336,Simcolourproject_2stim_asymm_v5,2020.2.10,MacIntel,60,61025ae37ef11b136ea224fe,,,,,,,,,2160,-55.38500977,25.14434814,1,0,0,response7disk,,1,32.80004883,4.064605713,1,0,0,rectangle,-70.1184082,-37.62658691,1,0,0,-3.902770996,-8.545898438,1,0,0,0,101,101,21,1,,response5disk_3,TRUE,2,2,"[274,189,225,9,314,186,162,309,236,81,273,95,5,18,263,43,224,102,127,183]",1.0832,rectangle
,,,,,,,,,,,,,FF,,,,,,,,0.7498,,,,,,,,,,,,,,,,,,,,,,60fd03428b4a25226606b9ea,61036e227d71215a78b89df3,2021-07-30_13h16.23.336,Simcolourproject_2stim_asymm_v5,2020.2.10,MacIntel,60,61025ae37ef11b136ea224fe,,,,,,,,,3799,28.43811035,-47.36248779,1,0,0,response3disk,,4,13.61889648,-14.37530518,1,0,0,rectangle,13.61889648,-14.37530518,1,0,0,13.61889648,-14.37530518,1,0,0,0,102,102,86,1,,,,,,,,
,,,,,,,,,,,,,FF,,,,,,,,0.7832,,,,,,,,,,,,,,,,,,,,,,60fd03428b4a25226606b9ea,61036e227d71215a78b89df3,2021-07-30_13h16.23.336,Simcolourproject_2stim_asymm_v5,2020.2.10,MacIntel,60,61025ae37ef11b136ea224fe,,,,,,,,,4155,37.62988281,-27.98364258,1,0,0,response3disk,,5,23.8515625,-4.980041504,1,0,0,rectangle,23.8515625,-4.980041504,1,0,0,23.8515625,-4.980041504,1,0,0,0,103,103,106,1,,,,,,,,
,,,,,,,,,,,,,FF,,,,,,,,0.8162,,,,,,,,,,,,,,,,,,,,,,60fd03428b4a25226606b9ea,61036e227d71215a78b89df3,2021-07-30_13h16.23.336,Simcolourproject_2stim_asymm_v5,2020.2.10,MacIntel,60,61025ae37ef11b136ea224fe,,,,,,,,,3281,37.88812256,29.7913208,1,0,0,response1disk,,6,-7.328369141,-10.472229,1,0,0,rectangle,-7.328369141,-10.472229,1,0,0,-7.328369141,-10.472229,1,0,0,0,104,104,19,1,,,,,,,,
,,,,,,,,,,,,,FF,,,,,,,,1.3672,,,,,,,,,,,,,,,,,,,,,,60fd03428b4a25226606b9ea,61036e227d71215a78b89df3,2021-07-30_13h16.23.336,Simcolourproject_2stim_asymm_v5,2020.2.10,MacIntel,60,61025ae37ef11b136ea224fe,,,,,,,,,4077,17.9331665,-49.31744385,1,0,0,response3disk,,4,10.58398438,-14.13473511,1,0,0,rectangle,10.58398438,-14.13473511,1,0,0,10.58398438,-14.13473511,1,0,0,0,105,105,63,1,,,,,,,,
,,,,,,,,,,,,,FF,,,,,,,,0.867,,,,,,,,,,,,,,,,,,,,,,60fd03428b4a25226606b9ea,61036e227d71215a78b89df3,2021-07-30_13h16.23.336,Simcolourproject_2stim_asymm_v5,2020.2.10,MacIntel,60,61025ae37ef11b136ea224fe,,,,,,,,,2649,27.23547363,39.92337036,1,0,0,response1disk,,7,16.46746826,8.262695313,1,0,0,rectangle,16.46746826,8.262695313,1,0,0,16.46746826,8.262695313,1,0,0,0,106,106,23,1,,,,,,,,
,,,,,,,,,,,,,FF,,,,,,,,0.634,,,,,,,,,,,,,,,,,,,,,,60fd03428b4a25226606b9ea,61036e227d71215a78b89df3,2021-07-30_13h16.23.336,Simcolourproject_2stim_asymm_v5,2020.2.10,MacIntel,60,61025ae37ef11b136ea224fe,,,,,,,,,1481,43.0645752,34.54797363,1,0,0,response1disk,,6,20.47058105,7.417144775,1,0,0,rectangle,20.47058105,7.417144775,1,0,0,20.47058105,7.417144775,1,0,0,0,107,107,79,1,,,,,,,,
,,,,,,,,,,,,,FF,,,,,,,,0.8166,,,,,,,,,,,,,,,,,,,,,,60fd03428b4a25226606b9ea,61036e227d71215a78b89df3,2021-07-30_13h16.23.336,Simcolourproject_2stim_asymm_v5,2020.2.10,MacIntel,60,61025ae37ef11b136ea224fe,,,,,,,,,3757,32.28479004,-40.03320313,1,0,0,response3disk,,4,7.29675293,-11.80795288,1,0,0,rectangle,7.29675293,-11.80795288,1,0,0,7.29675293,-11.80795288,1,0,0,0,108,108,118,1,,,,,,,,
,,,,,,,,,,,,,FF,,,,,,,,0.6997,,,,,,,,,,,,,,,,,,,,,,60fd03428b4a25226606b9ea,61036e227d71215a78b89df3,2021-07-30_13h16.23.336,Simcolourproject_2stim_asymm_v5,2020.2.10,MacIntel,60,61025ae37ef11b136ea224fe,,,,,,,,,893,-57.82165527,-48.64520264,1,0,0,response5disk,,2,-16.93743896,-11.41445923,1,0,0,rectangle,-16.93743896,-11.41445923,1,0,0,-16.93743896,-11.41445923,1,0,0,0,109,109,25,1,,,,,,,,
,,,,,,,,,,,,,FF,,,,,,,,0.8167,,,,,,,,,,,,,,,,,,,,,,60fd03428b4a25226606b9ea,61036e227d71215a78b89df3,2021-07-30_13h16.23.336,Simcolourproject_2stim_asymm_v5,2020.2.10,MacIntel,60,61025ae37ef11b136ea224fe,,,,,,,,,445,-47.87438965,-40.73864746,1,0,0,response5disk,,2,4.378356934,4.666015625,1,0,0,rectangle,4.378356934,4.666015625,1,0,0,4.378356934,4.666015625,1,0,0,0,110,110,61,1,,,,,,,,
,,,,,,,,,,,,,FF,,,,,,,,0.7667,,,,,,,,,,,,,,,,,,,,,,60fd03428b4a25226606b9ea,61036e227d71215a78b89df3,2021-07-30_13h16.23.336,Simcolourproject_2stim_asymm_v5,2020.2.10,MacIntel,60,61025ae37ef11b136ea224fe,,,,,,,,,1688,54.95178223,-41.29772949,1,0,0,response3disk,,5,10.05383301,-5.222839355,1,0,0,rectangle,10.05383301,-5.222839355,1,0,0,10.05383301,-5.222839355,1,0,0,0,111,111,122,1,,,,,,,,
,,,,,,,,,,,,,FF,,,,,,,,0.8656,,,,,,,,,,,,,,,,,,,,,,60fd03428b4a25226606b9ea,61036e227d71215a78b89df3,2021-07-30_13h16.23.336,Simcolourproject_2stim_asymm_v5,2020.2.10,MacIntel,60,61025ae37ef11b136ea224fe,,,,,,,,,3250,-30.2388916,-35.7243042,1,0,0,response5disk,,3,5.837036133,-13.91339111,1,0,0,rectangle,5.837036133,-13.91339111,1,0,0,5.837036133,-13.91339111,1,0,0,0,112,112,138,1,,,,,,,,
,,,,,,,,,,,,,FF,,,,,,,,0.7333,,,,,,,,,,,,,,,,,,,,,,60fd03428b4a25226606b9ea,61036e227d71215a78b89df3,2021-07-30_13h16.23.336,Simcolourproject_2stim_asymm_v5,2020.2.10,MacIntel,60,61025ae37ef11b136ea224fe,,,,,,,,,2530,68.72546387,62.8817749,1,0,0,response1disk,,6,14.13397217,5.164978027,1,0,0,rectangle,14.13397217,5.164978027,1,0,0,14.13397217,5.164978027,1,0,0,0,113,113,41,1,,,,,,,,
,,,,,,,,,,,,,FF,,,,,,,,1.4329,,,,,,,,,,,,,,,,,,,,,,60fd03428b4a25226606b9ea,61036e227d71215a78b89df3,2021-07-30_13h16.23.336,Simcolourproject_2stim_asymm_v5,2020.2.10,MacIntel,60,61025ae37ef11b136ea224fe,,,,,,,,,3171,34.23809814,-45.10028076,1,0,0,response3disk,,4,20.99310303,-2.131591797,1,0,0,rectangle,20.99310303,-2.131591797,1,0,0,20.99310303,-2.131591797,1,0,0,0,114,114,38,1,,,,,,,,
,,,,,,,,,,,,,FF,,,,,,,,0.7661,,,,,,,,,,,,,,,,,,,,,,60fd03428b4a25226606b9ea,61036e227d71215a78b89df3,2021-07-30_13h16.23.336,Simcolourproject_2stim_asymm_v5,2020.2.10,MacIntel,60,61025ae37ef11b136ea224fe,,,,,,,,,4366,-46.96020508,41.70471191,1,0,0,response7disk,,1,5.082092285,2.435089111,1,0,0,rectangle,5.082092285,2.435089111,1,0,0,5.082092285,2.435089111,1,0,0,0,115,115,65,1,,,,,,,,
,,,,,,,,,,,,,FF,,,,,,,,0.9997,,,,,,,,,,,,,,,,,,,,,,60fd03428b4a25226606b9ea,61036e227d71215a78b89df3,2021-07-30_13h16.23.336,Simcolourproject_2stim_asymm_v5,2020.2.10,MacIntel,60,61025ae37ef11b136ea224fe,,,,,,,,,2153,38.76159668,59.8454895,1,0,0,response1disk,,7,24.22515869,-16.90875244,1,0,0,rectangle,24.22515869,-16.90875244,1,0,0,24.22515869,-16.90875244,1,0,0,0,116,116,34,1,,,,,,,,
,,,,,,,,,,,,,FF,,,,,,,,0.7846,,,,,,,,,,,,,,,,,,,,,,60fd03428b4a25226606b9ea,61036e227d71215a78b89df3,2021-07-30_13h16.23.336,Simcolourproject_2stim_asymm_v5,2020.2.10,MacIntel,60,61025ae37ef11b136ea224fe,,,,,,,,,4018,38.03631592,28.55731201,1,0,0,response1disk,,6,19.9152832,9.510314941,1,0,0,rectangle,19.9152832,9.510314941,1,0,0,19.9152832,9.510314941,1,0,0,0,117,117,107,1,,,,,,,,
,,,,,,,,,,,,,FF,,,,,,,,0.9821,,,,,,,,,,,,,,,,,,,,,,60fd03428b4a25226606b9ea,61036e227d71215a78b89df3,2021-07-30_13h16.23.336,Simcolourproject_2stim_asymm_v5,2020.2.10,MacIntel,60,61025ae37ef11b136ea224fe,,,,,,,,,2435,43.24291992,-39.43521118,1,0,0,response3disk,,5,18.56365967,-12.88717651,1,0,0,rectangle,18.56365967,-12.88717651,1,0,0,18.56365967,-12.88717651,1,0,0,0,118,118,49,1,,,,,,,,
,,,,,,,,,,,,,FF,,,,,,,,0.7002,,,,,,,,,,,,,,,,,,,,,,60fd03428b4a25226606b9ea,61036e227d71215a78b89df3,2021-07-30_13h16.23.336,Simcolourproject_2stim_asymm_v5,2020.2.10,MacIntel,60,61025ae37ef11b136ea224fe,,,,,,,,,2764,25.21392822,40.13970947,1,0,0,response1disk,,7,8.093139648,7.966369629,1,0,0,rectangle,8.093139648,7.966369629,1,0,0,8.093139648,7.966369629,1,0,0,0,119,119,134,1,,,,,,,,
,,,,,,,,,,,,,FF,,,,,,,,0.6162,,,,,,,,,,,,,,,,,,,,,,60fd03428b4a25226606b9ea,61036e227d71215a78b89df3,2021-07-30_13h16.23.336,Simcolourproject_2stim_asymm_v5,2020.2.10,MacIntel,60,61025ae37ef11b136ea224fe,,,,,,,,,1674,22.70349121,-28.30389404,1,0,0,response3disk,,4,10.05212402,-7.412963867,1,0,0,rectangle,10.05212402,-7.412963867,1,0,0,10.05212402,-7.412963867,1,0,0,0,120,120,30,1,,,,,,,,
,,,,,,,,,,,,,FF,,,,,,,,1.1332,,,,,,,,,,,,,,,,,,,,,,60fd03428b4a25226606b9ea,61036e227d71215a78b89df3,2021-07-30_13h16.23.336,Simcolourproject_2stim_asymm_v5,2020.2.10,MacIntel,60,61025ae37ef11b136ea224fe,,,,,,,,,2814,41.99481201,39.16265869,1,0,0,response1disk,,6,15.08831787,5.820251465,1,0,0,rectangle,15.08831787,5.820251465,1,0,0,15.08831787,5.820251465,1,0,0,0,121,121,103,1,,,,,,,,
,,,,,,,,,,,,,FF,,,,,,,,0.8167,,,,,,,,,,,,,,,,,,,,,,60fd03428b4a25226606b9ea,61036e227d71215a78b89df3,2021-07-30_13h16.23.336,Simcolourproject_2stim_asymm_v5,2020.2.10,MacIntel,60,61025ae37ef11b136ea224fe,,,,,,,,,347,46.5378418,-47.10693359,1,0,0,response3disk,,4,8.519775391,0.798797607,1,0,0,rectangle,8.519775391,0.798797607,1,0,0,8.519775391,0.798797607,1,0,0,0,122,122,81,1,,,,,,,,
,,,,,,,,,,,,,FF,,,,,,,,0.5831,,,,,,,,,,,,,,,,,,,,,,60fd03428b4a25226606b9ea,61036e227d71215a78b89df3,2021-07-30_13h16.23.336,Simcolourproject_2stim_asymm_v5,2020.2.10,MacIntel,60,61025ae37ef11b136ea224fe,,,,,,,,,2170,30.0647583,24.72479248,1,0,0,response1disk,,6,-13.74450684,8.388183594,1,0,0,rectangle,-13.74450684,8.388183594,1,0,0,-13.74450684,8.388183594,1,0,0,0,123,123,146,1,,,,,,,,
,,,,,,,,,,,,,FF,,,,,,,,0.9504,,,,,,,,,,,,,,,,,,,,,,60fd03428b4a25226606b9ea,61036e227d71215a78b89df3,2021-07-30_13h16.23.336,Simcolourproject_2stim_asymm_v5,2020.2.10,MacIntel,60,61025ae37ef11b136ea224fe,,,,,,,,,2112,55.75317383,109.3217773,1,0,0,response1disk,,7,18.70904541,2.869995117,1,0,0,rectangle,18.70904541,2.869995117,1,0,0,18.70904541,2.869995117,1,0,0,0,124,124,55,1,,,,,,,,
,,,,,,,,,,,,,FF,,,,,,,,0.6998,,,,,,,,,,,,,,,,,,,,,,60fd03428b4a25226606b9ea,61036e227d71215a78b89df3,2021-07-30_13h16.23.336,Simcolourproject_2stim_asymm_v5,2020.2.10,MacIntel,60,61025ae37ef11b136ea224fe,,,,,,,,,618,-71.09228516,-41.7109375,1,0,0,response5disk,,2,-21.5302124,-11.45516968,1,0,0,rectangle,-21.5302124,-11.45516968,1,0,0,-21.5302124,-11.45516968,1,0,0,0,125,125,71,1,,,,,,,,
,,,,,,,,,,,,,FF,,,,,,,,0.6338,,,,,,,,,,,,,,,,,,,,,,60fd03428b4a25226606b9ea,61036e227d71215a78b89df3,2021-07-30_13h16.23.336,Simcolourproject_2stim_asymm_v5,2020.2.10,MacIntel,60,61025ae37ef11b136ea224fe,,,,,,,,,3723,44.56085205,-40.29986572,1,0,0,response3disk,,5,16.39605713,-5.485229492,1,0,0,rectangle,60.16021729,30.24102783,1,0,0,27.41955566,4.522644043,1,0,0,0,126,126,148,1,,response1disk_3,TRUE,6,6,"[274,189,225,9,314,186,162,309,236,81,273,95,5,18,263,43,224,102,127,183]",1.7671,rectangle
,,,,,,,,,,,,,FF,,,,,,,,0.7674,,,,,,,,,,,,,,,,,,,,,,60fd03428b4a25226606b9ea,61036e227d71215a78b89df3,2021-07-30_13h16.23.336,Simcolourproject_2stim_asymm_v5,2020.2.10,MacIntel,60,61025ae37ef11b136ea224fe,,,,,,,,,2699,65.88623047,55.02429199,1,0,0,response1disk,,6,29.45983887,14.60653687,1,0,0,rectangle,29.45983887,14.60653687,1,0,0,29.45983887,14.60653687,1,0,0,0,127,127,130,1,,,,,,,,
,,,,,,,,,,,,,FF,,,,,,,,0.7836,,,,,,,,,,,,,,,,,,,,,,60fd03428b4a25226606b9ea,61036e227d71215a78b89df3,2021-07-30_13h16.23.336,Simcolourproject_2stim_asymm_v5,2020.2.10,MacIntel,60,61025ae37ef11b136ea224fe,,,,,,,,,4008,50.81402588,43.7684021,1,0,0,response1disk,,6,0.081359863,-11.19039917,1,0,0,rectangle,0.081359863,-11.19039917,1,0,0,0.081359863,-11.19039917,1,0,0,0,128,128,44,1,,,,,,,,
,,,,,,,,,,,,,FF,,,,,,,,0.684,,,,,,,,,,,,,,,,,,,,,,60fd03428b4a25226606b9ea,61036e227d71215a78b89df3,2021-07-30_13h16.23.336,Simcolourproject_2stim_asymm_v5,2020.2.10,MacIntel,60,61025ae37ef11b136ea224fe,,,,,,,,,1806,33.68701172,55.50564575,1,0,0,response1disk,,7,11.11804199,10.06903076,1,0,0,rectangle,11.11804199,10.06903076,1,0,0,11.11804199,10.06903076,1,0,0,0,129,129,152,1,,,,,,,,
,,,,,,,,,,,,,FF,,,,,,,,1.3339,,,,,,,,,,,,,,,,,,,,,,60fd03428b4a25226606b9ea,61036e227d71215a78b89df3,2021-07-30_13h16.23.336,Simcolourproject_2stim_asymm_v5,2020.2.10,MacIntel,60,61025ae37ef11b136ea224fe,,,,,,,,,2101,-41.69189453,-33.67221069,1,0,0,response5disk,,2,-1.381835938,-8.126098633,1,0,0,rectangle,-1.381835938,-8.126098633,1,0,0,-1.381835938,-8.126098633,1,0,0,0,130,130,10,1,,,,,,,,
,,,,,,,,,,,,,FF,,,,,,,,1.2328,,,,,,,,,,,,,,,,,,,,,,60fd03428b4a25226606b9ea,61036e227d71215a78b89df3,2021-07-30_13h16.23.336,Simcolourproject_2stim_asymm_v5,2020.2.10,MacIntel,60,61025ae37ef11b136ea224fe,,,,,,,,,3949,32.78674316,-27.71594238,1,0,0,response3disk,,5,15.92474365,-15.18927002,1,0,0,rectangle,15.92474365,-15.18927002,1,0,0,15.92474365,-15.18927002,1,0,0,0,131,131,66,1,,,,,,,,
,,,,,,,,,,,,,FF,,,,,,,,0.6505,,,,,,,,,,,,,,,,,,,,,,60fd03428b4a25226606b9ea,61036e227d71215a78b89df3,2021-07-30_13h16.23.336,Simcolourproject_2stim_asymm_v5,2020.2.10,MacIntel,60,61025ae37ef11b136ea224fe,,,,,,,,,367,-64.06970215,-38.584198,1,0,0,response5disk,,2,-5.930541992,-11.77301025,1,0,0,rectangle,-5.930541992,-11.77301025,1,0,0,-5.930541992,-11.77301025,1,0,0,0,132,132,33,1,,,,,,,,
,,,,,,,,,,,,,FF,,,,,,,,0.7494,,,,,,,,,,,,,,,,,,,,,,60fd03428b4a25226606b9ea,61036e227d71215a78b89df3,2021-07-30_13h16.23.336,Simcolourproject_2stim_asymm_v5,2020.2.10,MacIntel,60,61025ae37ef11b136ea224fe,,,,,,,,,2604,-51.84020996,-47.89007568,1,0,0,response5disk,,2,-10.93933105,1.920288086,1,0,0,rectangle,-10.93933105,1.920288086,1,0,0,-10.93933105,1.920288086,1,0,0,0,133,133,82,1,,,,,,,,
,,,,,,,,,,,,,FF,,,,,,,,0.5653,,,,,,,,,,,,,,,,,,,,,,60fd03428b4a25226606b9ea,61036e227d71215a78b89df3,2021-07-30_13h16.23.336,Simcolourproject_2stim_asymm_v5,2020.2.10,MacIntel,60,61025ae37ef11b136ea224fe,,,,,,,,,79,-30.87207031,-30.84002686,1,0,0,response5disk,,2,-3.353393555,-7.656707764,1,0,0,rectangle,-3.353393555,-7.656707764,1,0,0,-3.353393555,-7.656707764,1,0,0,0,134,134,98,1,,,,,,,,
,,,,,,,,,,,,,FF,,,,,,,,0.7499,,,,,,,,,,,,,,,,,,,,,,60fd03428b4a25226606b9ea,61036e227d71215a78b89df3,2021-07-30_13h16.23.336,Simcolourproject_2stim_asymm_v5,2020.2.10,MacIntel,60,61025ae37ef11b136ea224fe,,,,,,,,,1837,39.50079346,-27.68341064,1,0,0,response3disk,,5,18.66009521,-6.580993652,1,0,0,rectangle,18.66009521,-6.580993652,1,0,0,18.66009521,-6.580993652,1,0,0,0,135,135,143,1,,,,,,,,
,,,,,,,,,,,,,FF,,,,,,,,1.0502,,,,,,,,,,,,,,,,,,,,,,60fd03428b4a25226606b9ea,61036e227d71215a78b89df3,2021-07-30_13h16.23.336,Simcolourproject_2stim_asymm_v5,2020.2.10,MacIntel,60,61025ae37ef11b136ea224fe,,,,,,,,,2237,37.13696289,-20.16986084,1,0,0,response3disk,,5,12.33691406,2.0597229,1,0,0,rectangle,12.33691406,2.0597229,1,0,0,12.33691406,2.0597229,1,0,0,0,136,136,120,1,,,,,,,,
,,,,,,,,,,,,,FF,,,,,,,,1.3323,,,,,,,,,,,,,,,,,,,,,,60fd03428b4a25226606b9ea,61036e227d71215a78b89df3,2021-07-30_13h16.23.336,Simcolourproject_2stim_asymm_v5,2020.2.10,MacIntel,60,61025ae37ef11b136ea224fe,,,,,,,,,3595,30.59301758,40.1050415,1,0,0,response1disk,,7,15.50244141,10.32781982,1,0,0,rectangle,15.50244141,10.32781982,1,0,0,15.50244141,10.32781982,1,0,0,0,137,137,28,1,,,,,,,,
,,,,,,,,,,,,,FF,,,,,,,,1.1663,,,,,,,,,,,,,,,,,,,,,,60fd03428b4a25226606b9ea,61036e227d71215a78b89df3,2021-07-30_13h16.23.336,Simcolourproject_2stim_asymm_v5,2020.2.10,MacIntel,60,61025ae37ef11b136ea224fe,,,,,,,,,283,23.76330566,-36.75033569,1,0,0,response3disk,,4,15.58984375,-3.260070801,1,0,0,rectangle,15.58984375,-3.260070801,1,0,0,15.58984375,-3.260070801,1,0,0,0,138,138,127,1,,,,,,,,
,,,,,,,,,,,,,FF,,,,,,,,0.5824,,,,,,,,,,,,,,,,,,,,,,60fd03428b4a25226606b9ea,61036e227d71215a78b89df3,2021-07-30_13h16.23.336,Simcolourproject_2stim_asymm_v5,2020.2.10,MacIntel,60,61025ae37ef11b136ea224fe,,,,,,,,,2894,57.46636963,44.10723877,1,0,0,response1disk,,6,-1.636291504,-5.7578125,1,0,0,rectangle,-1.636291504,-5.7578125,1,0,0,-1.636291504,-5.7578125,1,0,0,0,139,139,115,1,,,,,,,,
,,,,,,,,,,,,,FF,,,,,,,,0.6663,,,,,,,,,,,,,,,,,,,,,,60fd03428b4a25226606b9ea,61036e227d71215a78b89df3,2021-07-30_13h16.23.336,Simcolourproject_2stim_asymm_v5,2020.2.10,MacIntel,60,61025ae37ef11b136ea224fe,,,,,,,,,581,35.16448975,-55.87988281,1,0,0,response3disk,,4,14.06628418,2.981964111,1,0,0,rectangle,14.06628418,2.981964111,1,0,0,14.06628418,2.981964111,1,0,0,0,140,140,105,1,,,,,,,,
,,,,,,,,,,,,,FF,,,,,,,,1.5498,,,,,,,,,,,,,,,,,,,,,,60fd03428b4a25226606b9ea,61036e227d71215a78b89df3,2021-07-30_13h16.23.336,Simcolourproject_2stim_asymm_v5,2020.2.10,MacIntel,60,61025ae37ef11b136ea224fe,,,,,,,,,4143,46.89642334,-30.77276611,1,0,0,response3disk,,5,14.10827637,-17.04415894,1,0,0,rectangle,14.10827637,-17.04415894,1,0,0,14.10827637,-17.04415894,1,0,0,0,141,141,140,1,,,,,,,,
,,,,,,,,,,,,,FF,,,,,,,,0.6002,,,,,,,,,,,,,,,,,,,,,,60fd03428b4a25226606b9ea,61036e227d71215a78b89df3,2021-07-30_13h16.23.336,Simcolourproject_2stim_asymm_v5,2020.2.10,MacIntel,60,61025ae37ef11b136ea224fe,,,,,,,,,437,37.6427002,-48.41827393,1,0,0,response3disk,,4,23.99572754,-12.66625977,1,0,0,rectangle,23.99572754,-12.66625977,1,0,0,23.99572754,-12.66625977,1,0,0,0,142,142,51,1,,,,,,,,
,,,,,,,,,,,,,FF,,,,,,,,0.7165,,,,,,,,,,,,,,,,,,,,,,60fd03428b4a25226606b9ea,61036e227d71215a78b89df3,2021-07-30_13h16.23.336,Simcolourproject_2stim_asymm_v5,2020.2.10,MacIntel,60,61025ae37ef11b136ea224fe,,,,,,,,,3714,23.60571289,16.93582153,1,0,0,response1disk,,6,-5.068115234,3.854003906,1,0,0,rectangle,-5.068115234,3.854003906,1,0,0,-5.068115234,3.854003906,1,0,0,0,143,143,26,1,,,,,,,,
,,,,,,,,,,,,,FF,,,,,,,,1.2331,,,,,,,,,,,,,,,,,,,,,,60fd03428b4a25226606b9ea,61036e227d71215a78b89df3,2021-07-30_13h16.23.336,Simcolourproject_2stim_asymm_v5,2020.2.10,MacIntel,60,61025ae37ef11b136ea224fe,,,,,,,,,3637,-36.65948486,-31.83874512,1,0,0,response5disk,,2,-14.45812988,-11.09472656,1,0,0,rectangle,-14.45812988,-11.09472656,1,0,0,-14.45812988,-11.09472656,1,0,0,0,144,144,80,1,,,,,,,,
,,,,,,,,,,,,,FF,,,,,,,,1.334,,,,,,,,,,,,,,,,,,,,,,60fd03428b4a25226606b9ea,61036e227d71215a78b89df3,2021-07-30_13h16.23.336,Simcolourproject_2stim_asymm_v5,2020.2.10,MacIntel,60,61025ae37ef11b136ea224fe,,,,,,,,,2331,26.29736328,-22.08764648,1,0,0,response3disk,,5,7.143676758,-5.700164795,1,0,0,rectangle,7.143676758,-5.700164795,1,0,0,7.143676758,-5.700164795,1,0,0,0,145,145,18,1,,,,,,,,
,,,,,,,,,,,,,FF,,,,,,,,0.8662,,,,,,,,,,,,,,,,,,,,,,60fd03428b4a25226606b9ea,61036e227d71215a78b89df3,2021-07-30_13h16.23.336,Simcolourproject_2stim_asymm_v5,2020.2.10,MacIntel,60,61025ae37ef11b136ea224fe,,,,,,,,,2382,40.22857666,37.8536377,1,0,0,response1disk,,6,16.62548828,15.70443726,1,0,0,rectangle,16.62548828,15.70443726,1,0,0,16.62548828,15.70443726,1,0,0,0,146,146,141,1,,,,,,,,
,,,,,,,,,,,,,FF,,,,,,,,0.4833,,,,,,,,,,,,,,,,,,,,,,60fd03428b4a25226606b9ea,61036e227d71215a78b89df3,2021-07-30_13h16.23.336,Simcolourproject_2stim_asymm_v5,2020.2.10,MacIntel,60,61025ae37ef11b136ea224fe,,,,,,,,,2437,60.74493408,26.20501709,1,0,0,response1disk,,6,18.72009277,0.235717773,1,0,0,rectangle,18.72009277,0.235717773,1,0,0,18.72009277,0.235717773,1,0,0,0,147,147,102,1,,,,,,,,
,,,,,,,,,,,,,FF,,,,,,,,1.284,,,,,,,,,,,,,,,,,,,,,,60fd03428b4a25226606b9ea,61036e227d71215a78b89df3,2021-07-30_13h16.23.336,Simcolourproject_2stim_asymm_v5,2020.2.10,MacIntel,60,61025ae37ef11b136ea224fe,,,,,,,,,3163,24.24310303,-47.28799438,1,0,0,response3disk,,4,13.60241699,-16.96405029,1,0,0,rectangle,13.60241699,-16.96405029,1,0,0,13.60241699,-16.96405029,1,0,0,0,148,148,154,1,,,,,,,,
,,,,,,,,,,,,,FF,,,,,,,,1.5667,,,,,,,,,,,,,,,,,,,,,,60fd03428b4a25226606b9ea,61036e227d71215a78b89df3,2021-07-30_13h16.23.336,Simcolourproject_2stim_asymm_v5,2020.2.10,MacIntel,60,61025ae37ef11b136ea224fe,,,,,,,,,2789,-25.01391602,-41.45089722,1,0,0,response5disk,,3,-8.390258789,-13.79620361,1,0,0,rectangle,-8.390258789,-13.79620361,1,0,0,-8.390258789,-13.79620361,1,0,0,0,149,149,104,1,,,,,,,,
,,,,,,,,,,,,,FF,,,,,,,,1.0669,,,,,,,,,,,,,,,,,,,,,,60fd03428b4a25226606b9ea,61036e227d71215a78b89df3,2021-07-30_13h16.23.336,Simcolourproject_2stim_asymm_v5,2020.2.10,MacIntel,60,61025ae37ef11b136ea224fe,,,,,,,,,3570,33.71868896,-30.99938965,1,0,0,response3disk,,5,5.561889648,-9.461853027,1,0,0,rectangle,5.561889648,-9.461853027,1,0,0,5.561889648,-9.461853027,1,0,0,0,150,150,131,1,,,,,,,,
,,,,,,,,,,,,,FF,,,,,,,,0.9339,,,,,,,,,,,,,,,,,,,,,,60fd03428b4a25226606b9ea,61036e227d71215a78b89df3,2021-07-30_13h16.23.336,Simcolourproject_2stim_asymm_v5,2020.2.10,MacIntel,60,61025ae37ef11b136ea224fe,,,,,,,,,580,35.72399902,35.42041016,1,0,0,response1disk,,6,14.28088379,13.45300293,1,0,0,rectangle,14.28088379,13.45300293,1,0,0,14.28088379,13.45300293,1,0,0,0,151,151,76,1,,,,,,,,
,,,,,,,,,,,,,FF,,,,,,,,0.7509,,,,,,,,,,,,,,,,,,,,,,60fd03428b4a25226606b9ea,61036e227d71215a78b89df3,2021-07-30_13h16.23.336,Simcolourproject_2stim_asymm_v5,2020.2.10,MacIntel,60,61025ae37ef11b136ea224fe,,,,,,,,,3834,49.04541016,15.21762085,1,0,0,response1disk,,6,23.09240723,-0.546966553,1,0,0,rectangle,23.09240723,-0.546966553,1,0,0,23.09240723,-0.546966553,1,0,0,0,152,152,116,1,,,,,,,,
,,,,,,,,,,,,,FF,,,,,,,,2.5005,,,,,,,,,,,,,,,,,,,,,,60fd03428b4a25226606b9ea,61036e227d71215a78b89df3,2021-07-30_13h16.23.336,Simcolourproject_2stim_asymm_v5,2020.2.10,MacIntel,60,61025ae37ef11b136ea224fe,,,,,,,,,3343,-74.23931885,-88.14520264,1,0,0,response5disk,,3,-2.116333008,-14.4753418,1,0,0,rectangle,-2.116333008,-14.4753418,1,0,0,-2.116333008,-14.4753418,1,0,0,0,153,153,11,1,,,,,,,,
,,,,,,,,,,,,,FF,,,,,,,,0.8169,,,,,,,,,,,,,,,,,,,,,,60fd03428b4a25226606b9ea,61036e227d71215a78b89df3,2021-07-30_13h16.23.336,Simcolourproject_2stim_asymm_v5,2020.2.10,MacIntel,60,61025ae37ef11b136ea224fe,,,,,,,,,1894,-53.56750488,-52.53131104,1,0,0,response5disk,,2,3.750244141,-0.102966309,1,0,0,rectangle,3.750244141,-0.102966309,1,0,0,3.750244141,-0.102966309,1,0,0,0,154,154,57,1,,,,,,,,
,,,,,,,,,,,,,FF,,,,,,,,0.7666,,,,,,,,,,,,,,,,,,,,,,60fd03428b4a25226606b9ea,61036e227d71215a78b89df3,2021-07-30_13h16.23.336,Simcolourproject_2stim_asymm_v5,2020.2.10,MacIntel,60,61025ae37ef11b136ea224fe,,,,,,,,,2594,53.65368652,-33.19412231,1,0,0,response3disk,,5,4.563354492,14.71783447,1,0,0,rectangle,4.563354492,14.71783447,1,0,0,4.563354492,14.71783447,1,0,0,0,155,155,147,1,,,,,,,,
,,,,,,,,,,,,,FF,,,,,,,,1.3329,,,,,,,,,,,,,,,,,,,,,,60fd03428b4a25226606b9ea,61036e227d71215a78b89df3,2021-07-30_13h16.23.336,Simcolourproject_2stim_asymm_v5,2020.2.10,MacIntel,60,61025ae37ef11b136ea224fe,,,,,,,,,1468,63.94787598,-22.84558105,1,0,0,response3disk,,5,21.70074463,-4.458740234,1,0,0,rectangle,21.70074463,-4.458740234,1,0,0,21.70074463,-4.458740234,1,0,0,0,156,156,15,1,,,,,,,,
,,,,,,,,,,,,,FF,,,,,,,,0.9008,,,,,,,,,,,,,,,,,,,,,,60fd03428b4a25226606b9ea,61036e227d71215a78b89df3,2021-07-30_13h16.23.336,Simcolourproject_2stim_asymm_v5,2020.2.10,MacIntel,60,61025ae37ef11b136ea224fe,,,,,,,,,438,-32.29467773,-51.80368042,1,0,0,response5disk,,3,8.439208984,5.346435547,1,0,0,rectangle,8.439208984,5.346435547,1,0,0,8.439208984,5.346435547,1,0,0,0,157,157,58,1,,,,,,,,
,,,,,,,,,,,,,FF,,,,,,,,0.5841,,,,,,,,,,,,,,,,,,,,,,60fd03428b4a25226606b9ea,61036e227d71215a78b89df3,2021-07-30_13h16.23.336,Simcolourproject_2stim_asymm_v5,2020.2.10,MacIntel,60,61025ae37ef11b136ea224fe,,,,,,,,,344,32.42150879,46.38421631,1,0,0,response1disk,,7,10.06616211,13.2170105,1,0,0,rectangle,10.06616211,13.2170105,1,0,0,10.06616211,13.2170105,1,0,0,0,158,158,13,1,,,,,,,,
,,,,,,,,,,,,,FF,,,,,,,,0.6835,,,,,,,,,,,,,,,,,,,,,,60fd03428b4a25226606b9ea,61036e227d71215a78b89df3,2021-07-30_13h16.23.336,Simcolourproject_2stim_asymm_v5,2020.2.10,MacIntel,60,61025ae37ef11b136ea224fe,,,,,,,,,2573,41.97485352,-39.42382813,1,0,0,response3disk,,5,19.5144043,-9.221679688,1,0,0,rectangle,19.5144043,-9.221679688,1,0,0,19.5144043,-9.221679688,1,0,0,0,159,159,78,1,,,,,,,,
,,,,,,,,,,,,,FF,,,,,,,,1.2157,,,,,,,,,,,,,,,,,,,,,,60fd03428b4a25226606b9ea,61036e227d71215a78b89df3,2021-07-30_13h16.23.336,Simcolourproject_2stim_asymm_v5,2020.2.10,MacIntel,60,61025ae37ef11b136ea224fe,,,,,,,,,3465,-20.76428223,-32.17770386,1,0,0,response5disk,,3,-9.329406738,-15.67352295,1,0,0,rectangle,-9.329406738,-15.67352295,1,0,0,-9.329406738,-15.67352295,1,0,0,1,0,160,37,1,,,,,,,,
,,,,,,,,,,,,,FF,,,,,,,,0.5164,,,,,,,,,,,,,,,,,,,,,,60fd03428b4a25226606b9ea,61036e227d71215a78b89df3,2021-07-30_13h16.23.336,Simcolourproject_2stim_asymm_v5,2020.2.10,MacIntel,60,61025ae37ef11b136ea224fe,,,,,,,,,3669,-42.2487793,-26.74133301,1,0,0,response5disk,,2,-8.184692383,1.154418945,1,0,0,rectangle,69.41442871,59.21310425,1,0,0,-0.682312012,-1.563171387,1,0,0,1,1,161,74,1,,response1disk_3,TRUE,6,7,"[274,189,225,9,314,186,162,309,236,81,273,95,5,18,263,43,224,102,127,183]",1.3165,rectangle
,,,,,,,,,,,,,FF,,,,,,,,1.0838,,,,,,,,,,,,,,,,,,,,,,60fd03428b4a25226606b9ea,61036e227d71215a78b89df3,2021-07-30_13h16.23.336,Simcolourproject_2stim_asymm_v5,2020.2.10,MacIntel,60,61025ae37ef11b136ea224fe,,,,,,,,,404,60.07226563,-28.96884155,1,0,0,response3disk,,5,-4.972167969,17.90560913,1,0,0,rectangle,-4.972167969,17.90560913,1,0,0,-4.972167969,17.90560913,1,0,0,1,2,162,128,1,,,,,,,,
,,,,,,,,,,,,,FF,,,,,,,,1.1159,,,,,,,,,,,,,,,,,,,,,,60fd03428b4a25226606b9ea,61036e227d71215a78b89df3,2021-07-30_13h16.23.336,Simcolourproject_2stim_asymm_v5,2020.2.10,MacIntel,60,61025ae37ef11b136ea224fe,,,,,,,,,4342,-50.51715088,-42.3583374,1,0,0,response5disk,,2,5.879516602,7.433044434,1,0,0,rectangle,5.879516602,7.433044434,1,0,0,5.879516602,7.433044434,1,0,0,1,3,163,139,1,,,,,,,,
,,,,,,,,,,,,,FF,,,,,,,,0.533,,,,,,,,,,,,,,,,,,,,,,60fd03428b4a25226606b9ea,61036e227d71215a78b89df3,2021-07-30_13h16.23.336,Simcolourproject_2stim_asymm_v5,2020.2.10,MacIntel,60,61025ae37ef11b136ea224fe,,,,,,,,,3968,-33.41027832,-32.88977051,1,0,0,response5disk,,2,-5.397033691,-3.151702881,1,0,0,rectangle,-5.397033691,-3.151702881,1,0,0,-5.397033691,-3.151702881,1,0,0,1,4,164,86,1,,,,,,,,
,,,,,,,,,,,,,FF,,,,,,,,0.4674,,,,,,,,,,,,,,,,,,,,,,60fd03428b4a25226606b9ea,61036e227d71215a78b89df3,2021-07-30_13h16.23.336,Simcolourproject_2stim_asymm_v5,2020.2.10,MacIntel,60,61025ae37ef11b136ea224fe,,,,,,,,,1918,68.67651367,-37.30230713,1,0,0,response3disk,,5,15.95928955,1.955627441,1,0,0,rectangle,15.95928955,1.955627441,1,0,0,15.95928955,1.955627441,1,0,0,1,5,165,82,1,,,,,,,,
,,,,,,,,,,,,,FF,,,,,,,,1.3013,,,,,,,,,,,,,,,,,,,,,,60fd03428b4a25226606b9ea,61036e227d71215a78b89df3,2021-07-30_13h16.23.336,Simcolourproject_2stim_asymm_v5,2020.2.10,MacIntel,60,61025ae37ef11b136ea224fe,,,,,,,,,989,35.48620605,-46.69470215,1,0,0,response3disk,,4,27.72875977,-8.204772949,1,0,0,rectangle,27.72875977,-8.204772949,1,0,0,27.72875977,-8.204772949,1,0,0,1,6,166,8,1,,,,,,,,
,,,,,,,,,,,,,FF,,,,,,,,0.8845,,,,,,,,,,,,,,,,,,,,,,60fd03428b4a25226606b9ea,61036e227d71215a78b89df3,2021-07-30_13h16.23.336,Simcolourproject_2stim_asymm_v5,2020.2.10,MacIntel,60,61025ae37ef11b136ea224fe,,,,,,,,,1990,35.39953613,54.36798096,1,0,0,response1disk,,7,31.02478027,5.853668213,1,0,0,rectangle,31.02478027,5.853668213,1,0,0,31.02478027,5.853668213,1,0,0,1,7,167,92,1,,,,,,,,
,,,,,,,,,,,,,FF,,,,,,,,0.7163,,,,,,,,,,,,,,,,,,,,,,60fd03428b4a25226606b9ea,61036e227d71215a78b89df3,2021-07-30_13h16.23.336,Simcolourproject_2stim_asymm_v5,2020.2.10,MacIntel,60,61025ae37ef11b136ea224fe,,,,,,,,,815,41.23583984,-61.61004639,1,0,0,response3disk,,4,21.00079346,-8.833862305,1,0,0,rectangle,21.00079346,-8.833862305,1,0,0,21.00079346,-8.833862305,1,0,0,1,8,168,104,1,,,,,,,,
,,,,,,,,,,,,,FF,,,,,,,,0.5836,,,,,,,,,,,,,,,,,,,,,,60fd03428b4a25226606b9ea,61036e227d71215a78b89df3,2021-07-30_13h16.23.336,Simcolourproject_2stim_asymm_v5,2020.2.10,MacIntel,60,61025ae37ef11b136ea224fe,,,,,,,,,1336,32.26147461,35.62554932,1,0,0,response1disk,,7,26.14831543,8.777160645,1,0,0,rectangle,26.14831543,8.777160645,1,0,0,26.14831543,8.777160645,1,0,0,1,9,169,73,1,,,,,,,,
,,,,,,,,,,,,,FF,,,,,,,,0.5,,,,,,,,,,,,,,,,,,,,,,60fd03428b4a25226606b9ea,61036e227d71215a78b89df3,2021-07-30_13h16.23.336,Simcolourproject_2stim_asymm_v5,2020.2.10,MacIntel,60,61025ae37ef11b136ea224fe,,,,,,,,,419,38.36053467,-32.97027588,1,0,0,response3disk,,5,30.00158691,17.22509766,1,0,0,rectangle,30.00158691,17.22509766,1,0,0,30.00158691,17.22509766,1,0,0,1,10,170,155,1,,,,,,,,
,,,,,,,,,,,,,FF,,,,,,,,1.2172,,,,,,,,,,,,,,,,,,,,,,60fd03428b4a25226606b9ea,61036e227d71215a78b89df3,2021-07-30_13h16.23.336,Simcolourproject_2stim_asymm_v5,2020.2.10,MacIntel,60,61025ae37ef11b136ea224fe,,,,,,,,,666,38.58215332,44.32281494,1,0,0,response1disk,,7,14.71936035,13.56729126,1,0,0,rectangle,14.71936035,13.56729126,1,0,0,14.71936035,13.56729126,1,0,0,1,11,171,70,1,,,,,,,,
,,,,,,,,,,,,,FF,,,,,,,,1.383,,,,,,,,,,,,,,,,,,,,,,60fd03428b4a25226606b9ea,61036e227d71215a78b89df3,2021-07-30_13h16.23.336,Simcolourproject_2stim_asymm_v5,2020.2.10,MacIntel,60,61025ae37ef11b136ea224fe,,,,,,,,,1903,45.4263916,-37.40948486,1,0,0,response3disk,,5,20.0725708,-10.27502441,1,0,0,rectangle,20.0725708,-10.27502441,1,0,0,20.0725708,-10.27502441,1,0,0,1,12,172,1,1,,,,,,,,
,,,,,,,,,,,,,FF,,,,,,,,0.7496,,,,,,,,,,,,,,,,,,,,,,60fd03428b4a25226606b9ea,61036e227d71215a78b89df3,2021-07-30_13h16.23.336,Simcolourproject_2stim_asymm_v5,2020.2.10,MacIntel,60,61025ae37ef11b136ea224fe,,,,,,,,,562,34.56298828,-42.36022949,1,0,0,response3disk,,4,4.546386719,-14.42913818,1,0,0,rectangle,4.546386719,-14.42913818,1,0,0,4.546386719,-14.42913818,1,0,0,1,13,173,81,1,,,,,,,,
,,,,,,,,,,,,,FF,,,,,,,,0.9001,,,,,,,,,,,,,,,,,,,,,,60fd03428b4a25226606b9ea,61036e227d71215a78b89df3,2021-07-30_13h16.23.336,Simcolourproject_2stim_asymm_v5,2020.2.10,MacIntel,60,61025ae37ef11b136ea224fe,,,,,,,,,3472,-41.11901855,-38.2387085,1,0,0,response5disk,,2,20.62280273,14.09051514,1,0,0,rectangle,20.62280273,14.09051514,1,0,0,20.62280273,14.09051514,1,0,0,1,14,174,115,1,,,,,,,,
,,,,,,,,,,,,,FF,,,,,,,,0.5992,,,,,,,,,,,,,,,,,,,,,,60fd03428b4a25226606b9ea,61036e227d71215a78b89df3,2021-07-30_13h16.23.336,Simcolourproject_2stim_asymm_v5,2020.2.10,MacIntel,60,61025ae37ef11b136ea224fe,,,,,,,,,2728,25.83837891,22.54714966,1,0,0,response1disk,,6,5.892700195,3.298828125,1,0,0,rectangle,5.892700195,3.298828125,1,0,0,5.892700195,3.298828125,1,0,0,1,15,175,14,1,,,,,,,,
,,,,,,,,,,,,,FF,,,,,,,,0.7499,,,,,,,,,,,,,,,,,,,,,,60fd03428b4a25226606b9ea,61036e227d71215a78b89df3,2021-07-30_13h16.23.336,Simcolourproject_2stim_asymm_v5,2020.2.10,MacIntel,60,61025ae37ef11b136ea224fe,,,,,,,,,2259,38.81652832,-43.48342896,1,0,0,response3disk,,4,15.10693359,-9.949951172,1,0,0,rectangle,15.10693359,-9.949951172,1,0,0,15.10693359,-9.949951172,1,0,0,1,16,176,17,1,,,,,,,,
,,,,,,,,,,,,,FF,,,,,,,,0.583,,,,,,,,,,,,,,,,,,,,,,60fd03428b4a25226606b9ea,61036e227d71215a78b89df3,2021-07-30_13h16.23.336,Simcolourproject_2stim_asymm_v5,2020.2.10,MacIntel,60,61025ae37ef11b136ea224fe,,,,,,,,,979,-40.72485352,-21.16174316,1,0,0,response5disk,,2,-11.01556396,-4.767150879,1,0,0,rectangle,-11.01556396,-4.767150879,1,0,0,-11.01556396,-4.767150879,1,0,0,1,17,177,89,1,,,,,,,,
,,,,,,,,,,,,,FF,,,,,,,,0.751,,,,,,,,,,,,,,,,,,,,,,60fd03428b4a25226606b9ea,61036e227d71215a78b89df3,2021-07-30_13h16.23.336,Simcolourproject_2stim_asymm_v5,2020.2.10,MacIntel,60,61025ae37ef11b136ea224fe,,,,,,,,,3798,-43.25427246,-59.54003906,1,0,0,response5disk,,3,8.759399414,11.0177002,1,0,0,rectangle,8.759399414,11.0177002,1,0,0,8.759399414,11.0177002,1,0,0,1,18,178,84,1,,,,,,,,
,,,,,,,,,,,,,FF,,,,,,,,0.4162,,,,,,,,,,,,,,,,,,,,,,60fd03428b4a25226606b9ea,61036e227d71215a78b89df3,2021-07-30_13h16.23.336,Simcolourproject_2stim_asymm_v5,2020.2.10,MacIntel,60,61025ae37ef11b136ea224fe,,,,,,,,,603,37.32995605,-29.71902466,1,0,0,response3disk,,5,7.565734863,-2.083709717,1,0,0,rectangle,7.565734863,-2.083709717,1,0,0,7.565734863,-2.083709717,1,0,0,1,19,179,43,1,,,,,,,,
,,,,,,,,,,,,,FF,,,,,,,,0.483,,,,,,,,,,,,,,,,,,,,,,60fd03428b4a25226606b9ea,61036e227d71215a78b89df3,2021-07-30_13h16.23.336,Simcolourproject_2stim_asymm_v5,2020.2.10,MacIntel,60,61025ae37ef11b136ea224fe,,,,,,,,,2639,43.25708008,-50.45504761,1,0,0,response3disk,,4,19.92590332,-11.65710449,1,0,0,rectangle,19.92590332,-11.65710449,1,0,0,19.92590332,-11.65710449,1,0,0,1,20,180,118,1,,,,,,,,
,,,,,,,,,,,,,FF,,,,,,,,0.3501,,,,,,,,,,,,,,,,,,,,,,60fd03428b4a25226606b9ea,61036e227d71215a78b89df3,2021-07-30_13h16.23.336,Simcolourproject_2stim_asymm_v5,2020.2.10,MacIntel,60,61025ae37ef11b136ea224fe,,,,,,,,,644,60.5949707,-62.07775879,1,0,0,response3disk,,4,16.84912109,-16.88818359,1,0,0,rectangle,16.84912109,-16.88818359,1,0,0,16.84912109,-16.88818359,1,0,0,1,21,181,6,1,,,,,,,,
,,,,,,,,,,,,,FF,,,,,,,,0.3671,,,,,,,,,,,,,,,,,,,,,,60fd03428b4a25226606b9ea,61036e227d71215a78b89df3,2021-07-30_13h16.23.336,Simcolourproject_2stim_asymm_v5,2020.2.10,MacIntel,60,61025ae37ef11b136ea224fe,,,,,,,,,1038,48.95788574,-54.91589355,1,0,0,response3disk,,4,22.77740479,-8.894287109,1,0,0,rectangle,70.87463379,-54.60006714,1,0,0,8.793579102,-3.810638428,1,0,0,1,22,182,83,1,,response3disk_3,TRUE,5,5,"[274,189,225,9,314,186,162,309,236,81,273,95,5,18,263,43,224,102,127,183]",1.1993,rectangle
,,,,,,,,,,,,,FF,,,,,,,,0.8173,,,,,,,,,,,,,,,,,,,,,,60fd03428b4a25226606b9ea,61036e227d71215a78b89df3,2021-07-30_13h16.23.336,Simcolourproject_2stim_asymm_v5,2020.2.10,MacIntel,60,61025ae37ef11b136ea224fe,,,,,,,,,991,54.3104248,-55.62435913,1,0,0,response3disk,,4,5.911010742,-7.306945801,1,0,0,rectangle,5.911010742,-7.306945801,1,0,0,5.911010742,-7.306945801,1,0,0,1,23,183,0,1,,,,,,,,
,,,,,,,,,,,,,FF,,,,,,,,0.9657,,,,,,,,,,,,,,,,,,,,,,60fd03428b4a25226606b9ea,61036e227d71215a78b89df3,2021-07-30_13h16.23.336,Simcolourproject_2stim_asymm_v5,2020.2.10,MacIntel,60,61025ae37ef11b136ea224fe,,,,,,,,,2130,35.54571533,-47.09643555,1,0,0,response3disk,,4,-3.287475586,-0.920898438,1,0,0,rectangle,-3.287475586,-0.920898438,1,0,0,-3.287475586,-0.920898438,1,0,0,1,24,184,106,1,,,,,,,,
,,,,,,,,,,,,,FF,,,,,,,,0.6833,,,,,,,,,,,,,,,,,,,,,,60fd03428b4a25226606b9ea,61036e227d71215a78b89df3,2021-07-30_13h16.23.336,Simcolourproject_2stim_asymm_v5,2020.2.10,MacIntel,60,61025ae37ef11b136ea224fe,,,,,,,,,1331,30.19763184,-32.11364746,1,0,0,response3disk,,4,13.79901123,-12.61306763,1,0,0,rectangle,-15.19494629,-73.62017822,1,0,0,-1.833740234,-9.17376709,1,0,0,1,25,185,48,1,,response5disk_3,TRUE,3,3,"[274,189,225,9,314,186,162,309,236,81,273,95,5,18,263,43,224,102,127,183]",1.5663,rectangle
,,,,,,,,,,,,,FF,,,,,,,,2.2157,,,,,,,,,,,,,,,,,,,,,,60fd03428b4a25226606b9ea,61036e227d71215a78b89df3,2021-07-30_13h16.23.336,Simcolourproject_2stim_asymm_v5,2020.2.10,MacIntel,60,61025ae37ef11b136ea224fe,,,,,,,,,248,-44.47521973,-53.8192749,1,0,0,response5disk,,3,-7.928283691,0.504943848,1,0,0,rectangle,-7.928283691,0.504943848,1,0,0,-7.928283691,0.504943848,1,0,0,1,26,186,131,1,,,,,,,,
,,,,,,,,,,,,,FF,,,,,,,,0.8669,,,,,,,,,,,,,,,,,,,,,,60fd03428b4a25226606b9ea,61036e227d71215a78b89df3,2021-07-30_13h16.23.336,Simcolourproject_2stim_asymm_v5,2020.2.10,MacIntel,60,61025ae37ef11b136ea224fe,,,,,,,,,3729,41.05169678,19.22003174,1,0,0,response1disk,,6,-4.190307617,-3.548400879,1,0,0,rectangle,-4.190307617,-3.548400879,1,0,0,-4.190307617,-3.548400879,1,0,0,1,27,187,154,1,,,,,,,,
,,,,,,,,,,,,,FF,,,,,,,,1.6167,,,,,,,,,,,,,,,,,,,,,,60fd03428b4a25226606b9ea,61036e227d71215a78b89df3,2021-07-30_13h16.23.336,Simcolourproject_2stim_asymm_v5,2020.2.10,MacIntel,60,61025ae37ef11b136ea224fe,,,,,,,,,584,20.40533447,22.93099976,1,0,0,response1disk,,7,10.03033447,-1.33996582,1,0,0,rectangle,-51.4465332,-56.03234863,1,0,0,9.772460938,-16.17697144,1,0,0,1,28,188,138,1,,response5disk_3,TRUE,3,3,"[274,189,225,9,314,186,162,309,236,81,273,95,5,18,263,43,224,102,127,183]",1.3336,rectangle
,,,,,,,,,,,,,FF,,,,,,,,1.0827,,,,,,,,,,,,,,,,,,,,,,60fd03428b4a25226606b9ea,61036e227d71215a78b89df3,2021-07-30_13h16.23.336,Simcolourproject_2stim_asymm_v5,2020.2.10,MacIntel,60,61025ae37ef11b136ea224fe,,,,,,,,,3957,36.35992432,34.51635742,1,0,0,response1disk,,6,14.46917725,4.481445313,1,0,0,rectangle,14.46917725,4.481445313,1,0,0,14.46917725,4.481445313,1,0,0,1,29,189,20,1,,,,,,,,
,,,,,,,,,,,,,FF,,,,,,,,0.9168,,,,,,,,,,,,,,,,,,,,,,60fd03428b4a25226606b9ea,61036e227d71215a78b89df3,2021-07-30_13h16.23.336,Simcolourproject_2stim_asymm_v5,2020.2.10,MacIntel,60,61025ae37ef11b136ea224fe,,,,,,,,,2280,43.62744141,26.76089478,1,0,0,response1disk,,6,7.409912109,7.700439453,1,0,0,rectangle,7.409912109,7.700439453,1,0,0,7.409912109,7.700439453,1,0,0,1,30,190,127,1,,,,,,,,
,,,,,,,,,,,,,FF,,,,,,,,0.8664,,,,,,,,,,,,,,,,,,,,,,60fd03428b4a25226606b9ea,61036e227d71215a78b89df3,2021-07-30_13h16.23.336,Simcolourproject_2stim_asymm_v5,2020.2.10,MacIntel,60,61025ae37ef11b136ea224fe,,,,,,,,,2653,37.99432373,-51.13473511,1,0,0,response3disk,,4,18.159729,-1.287841797,1,0,0,rectangle,18.159729,-1.287841797,1,0,0,18.159729,-1.287841797,1,0,0,1,31,191,36,1,,,,,,,,
,,,,,,,,,,,,,FF,,,,,,,,0.8171,,,,,,,,,,,,,,,,,,,,,,60fd03428b4a25226606b9ea,61036e227d71215a78b89df3,2021-07-30_13h16.23.336,Simcolourproject_2stim_asymm_v5,2020.2.10,MacIntel,60,61025ae37ef11b136ea224fe,,,,,,,,,1301,-29.57397461,-32.17706299,1,0,0,response5disk,,3,-23.74291992,-15.91937256,1,0,0,rectangle,-23.74291992,-15.91937256,1,0,0,-23.74291992,-15.91937256,1,0,0,1,32,192,64,1,,,,,,,,
,,,,,,,,,,,,,FF,,,,,,,,0.7495,,,,,,,,,,,,,,,,,,,,,,60fd03428b4a25226606b9ea,61036e227d71215a78b89df3,2021-07-30_13h16.23.336,Simcolourproject_2stim_asymm_v5,2020.2.10,MacIntel,60,61025ae37ef11b136ea224fe,,,,,,,,,2612,46.6796875,34.58514404,1,0,0,response1disk,,6,3.02911377,9.632202148,1,0,0,rectangle,3.02911377,9.632202148,1,0,0,3.02911377,9.632202148,1,0,0,1,33,193,27,1,,,,,,,,
,,,,,,,,,,,,,FF,,,,,,,,2.0171,,,,,,,,,,,,,,,,,,,,,,60fd03428b4a25226606b9ea,61036e227d71215a78b89df3,2021-07-30_13h16.23.336,Simcolourproject_2stim_asymm_v5,2020.2.10,MacIntel,60,61025ae37ef11b136ea224fe,,,,,,,,,1533,-33.46014404,-35.54293823,1,0,0,response5disk,,3,-11.74243164,-9.97064209,1,0,0,rectangle,-11.74243164,-9.97064209,1,0,0,-11.74243164,-9.97064209,1,0,0,1,34,194,68,1,,,,,,,,
,,,,,,,,,,,,,FF,,,,,,,,2.9491,,,,,,,,,,,,,,,,,,,,,,60fd03428b4a25226606b9ea,61036e227d71215a78b89df3,2021-07-30_13h16.23.336,Simcolourproject_2stim_asymm_v5,2020.2.10,MacIntel,60,61025ae37ef11b136ea224fe,,,,,,,,,3861,30.87145996,23.91506958,1,0,0,response1disk,,6,7.438110352,-10.20935059,1,0,0,rectangle,7.438110352,-10.20935059,1,0,0,7.438110352,-10.20935059,1,0,0,1,35,195,45,1,,,,,,,,
,,,,,,,,,,,,,FF,,,,,,,,0.7493,,,,,,,,,,,,,,,,,,,,,,60fd03428b4a25226606b9ea,61036e227d71215a78b89df3,2021-07-30_13h16.23.336,Simcolourproject_2stim_asymm_v5,2020.2.10,MacIntel,60,61025ae37ef11b136ea224fe,,,,,,,,,1159,-15.7364502,-34.44824219,1,0,0,response5disk,,3,4.537414551,-2.120727539,1,0,0,rectangle,4.537414551,-2.120727539,1,0,0,4.537414551,-2.120727539,1,0,0,1,36,196,60,1,,,,,,,,
,,,,,,,,,,,,,FF,,,,,,,,0.6336,,,,,,,,,,,,,,,,,,,,,,60fd03428b4a25226606b9ea,61036e227d71215a78b89df3,2021-07-30_13h16.23.336,Simcolourproject_2stim_asymm_v5,2020.2.10,MacIntel,60,61025ae37ef11b136ea224fe,,,,,,,,,1537,-52.14257813,-30.18167114,1,0,0,response5disk,,2,-10.65496826,-0.974487305,1,0,0,rectangle,-10.65496826,-0.974487305,1,0,0,-10.65496826,-0.974487305,1,0,0,1,37,197,32,1,,,,,,,,
,,,,,,,,,,,,,FF,,,,,,,,0.55,,,,,,,,,,,,,,,,,,,,,,60fd03428b4a25226606b9ea,61036e227d71215a78b89df3,2021-07-30_13h16.23.336,Simcolourproject_2stim_asymm_v5,2020.2.10,MacIntel,60,61025ae37ef11b136ea224fe,,,,,,,,,1757,-33.77252197,-30.13299561,1,0,0,response5disk,,2,-3.672729492,7.699157715,1,0,0,rectangle,-3.672729492,7.699157715,1,0,0,-3.672729492,7.699157715,1,0,0,1,38,198,145,1,,,,,,,,
,,,,,,,,,,,,,FF,,,,,,,,0.6678,,,,,,,,,,,,,,,,,,,,,,60fd03428b4a25226606b9ea,61036e227d71215a78b89df3,2021-07-30_13h16.23.336,Simcolourproject_2stim_asymm_v5,2020.2.10,MacIntel,60,61025ae37ef11b136ea224fe,,,,,,,,,504,45.50341797,-23.50494385,1,0,0,response3disk,,5,13.88665771,-5.286560059,1,0,0,rectangle,13.88665771,-5.286560059,1,0,0,13.88665771,-5.286560059,1,0,0,1,39,199,49,1,,,,,,,,
,,,,,,,,,,,,,FF,,,,,,,,1.051,,,,,,,,,,,,,,,,,,,,,,60fd03428b4a25226606b9ea,61036e227d71215a78b89df3,2021-07-30_13h16.23.336,Simcolourproject_2stim_asymm_v5,2020.2.10,MacIntel,60,61025ae37ef11b136ea224fe,,,,,,,,,3308,40.37463379,19.49743652,1,0,0,response1disk,,6,15.85205078,14.91424561,1,0,0,rectangle,15.85205078,14.91424561,1,0,0,15.85205078,14.91424561,1,0,0,1,40,200,135,1,,,,,,,,
,,,,,,,,,,,,,FF,,,,,,,,0.6157,,,,,,,,,,,,,,,,,,,,,,60fd03428b4a25226606b9ea,61036e227d71215a78b89df3,2021-07-30_13h16.23.336,Simcolourproject_2stim_asymm_v5,2020.2.10,MacIntel,60,61025ae37ef11b136ea224fe,,,,,,,,,906,39.86193848,38.92327881,1,0,0,response1disk,,6,11.34802246,4.524597168,1,0,0,rectangle,11.34802246,4.524597168,1,0,0,11.34802246,4.524597168,1,0,0,1,41,201,55,1,,,,,,,,
,,,,,,,,,,,,,FF,,,,,,,,1.3335,,,,,,,,,,,,,,,,,,,,,,60fd03428b4a25226606b9ea,61036e227d71215a78b89df3,2021-07-30_13h16.23.336,Simcolourproject_2stim_asymm_v5,2020.2.10,MacIntel,60,61025ae37ef11b136ea224fe,,,,,,,,,1362,32.59942627,29.10769653,1,0,0,response1disk,,6,16.16394043,5.872558594,1,0,0,rectangle,16.16394043,5.872558594,1,0,0,16.16394043,5.872558594,1,0,0,1,42,202,141,1,,,,,,,,
,,,,,,,,,,,,,FF,,,,,,,,0.8164,,,,,,,,,,,,,,,,,,,,,,60fd03428b4a25226606b9ea,61036e227d71215a78b89df3,2021-07-30_13h16.23.336,Simcolourproject_2stim_asymm_v5,2020.2.10,MacIntel,60,61025ae37ef11b136ea224fe,,,,,,,,,2941,-49.68920898,38.04992676,1,0,0,response7disk,,1,20.48535156,-0.943328857,1,0,0,rectangle,20.48535156,-0.943328857,1,0,0,20.48535156,-0.943328857,1,0,0,1,43,203,105,1,,,,,,,,
,,,,,,,,,,,,,FF,,,,,,,,0.6503,,,,,,,,,,,,,,,,,,,,,,60fd03428b4a25226606b9ea,61036e227d71215a78b89df3,2021-07-30_13h16.23.336,Simcolourproject_2stim_asymm_v5,2020.2.10,MacIntel,60,61025ae37ef11b136ea224fe,,,,,,,,,3761,29.62060547,40.7401123,1,0,0,response1disk,,7,13.38995361,14.6940918,1,0,0,rectangle,13.38995361,14.6940918,1,0,0,13.38995361,14.6940918,1,0,0,1,44,204,142,1,,,,,,,,
,,,,,,,,,,,,,FF,,,,,,,,0.5999,,,,,,,,,,,,,,,,,,,,,,60fd03428b4a25226606b9ea,61036e227d71215a78b89df3,2021-07-30_13h16.23.336,Simcolourproject_2stim_asymm_v5,2020.2.10,MacIntel,60,61025ae37ef11b136ea224fe,,,,,,,,,4299,49.22131348,46.73657227,1,0,0,response1disk,,6,-3.64666748,-8.042358398,1,0,0,rectangle,-3.64666748,-8.042358398,1,0,0,-3.64666748,-8.042358398,1,0,0,1,45,205,146,1,,,,,,,,
,,,,,,,,,,,,,FF,,,,,,,,0.8339,,,,,,,,,,,,,,,,,,,,,,60fd03428b4a25226606b9ea,61036e227d71215a78b89df3,2021-07-30_13h16.23.336,Simcolourproject_2stim_asymm_v5,2020.2.10,MacIntel,60,61025ae37ef11b136ea224fe,,,,,,,,,3674,32.50531006,-36.29980469,1,0,0,response3disk,,4,7.459350586,-5.84173584,1,0,0,rectangle,7.459350586,-5.84173584,1,0,0,7.459350586,-5.84173584,1,0,0,1,46,206,107,1,,,,,,,,
,,,,,,,,,,,,,FF,,,,,,,,0.8511,,,,,,,,,,,,,,,,,,,,,,60fd03428b4a25226606b9ea,61036e227d71215a78b89df3,2021-07-30_13h16.23.336,Simcolourproject_2stim_asymm_v5,2020.2.10,MacIntel,60,61025ae37ef11b136ea224fe,,,,,,,,,4183,-34.92926025,-25.99932861,1,0,0,response5disk,,2,-5.943603516,-9.435180664,1,0,0,rectangle,-5.943603516,-9.435180664,1,0,0,-5.943603516,-9.435180664,1,0,0,1,47,207,113,1,,,,,,,,
,,,,,,,,,,,,,FF,,,,,,,,0.9326,,,,,,,,,,,,,,,,,,,,,,60fd03428b4a25226606b9ea,61036e227d71215a78b89df3,2021-07-30_13h16.23.336,Simcolourproject_2stim_asymm_v5,2020.2.10,MacIntel,60,61025ae37ef11b136ea224fe,,,,,,,,,18,37.25720215,-35.44525146,1,0,0,response3disk,,5,17.09381104,-11.78729248,1,0,0,rectangle,17.09381104,-11.78729248,1,0,0,17.09381104,-11.78729248,1,0,0,1,48,208,51,1,,,,,,,,
,,,,,,,,,,,,,FF,,,,,,,,0.8164,,,,,,,,,,,,,,,,,,,,,,60fd03428b4a25226606b9ea,61036e227d71215a78b89df3,2021-07-30_13h16.23.336,Simcolourproject_2stim_asymm_v5,2020.2.10,MacIntel,60,61025ae37ef11b136ea224fe,,,,,,,,,3312,37.90557861,27.45587158,1,0,0,response1disk,,6,22.18707275,0.930541992,1,0,0,rectangle,22.18707275,0.930541992,1,0,0,22.18707275,0.930541992,1,0,0,1,49,209,28,1,,,,,,,,
,,,,,,,,,,,,,FF,,,,,,,,0.6667,,,,,,,,,,,,,,,,,,,,,,60fd03428b4a25226606b9ea,61036e227d71215a78b89df3,2021-07-30_13h16.23.336,Simcolourproject_2stim_asymm_v5,2020.2.10,MacIntel,60,61025ae37ef11b136ea224fe,,,,,,,,,2271,52.42956543,60.2164917,1,0,0,response1disk,,7,22.902771,-0.656677246,1,0,0,rectangle,22.902771,-0.656677246,1,0,0,22.902771,-0.656677246,1,0,0,1,50,210,102,1,,,,,,,,
,,,,,,,,,,,,,FF,,,,,,,,0.3835,,,,,,,,,,,,,,,,,,,,,,60fd03428b4a25226606b9ea,61036e227d71215a78b89df3,2021-07-30_13h16.23.336,Simcolourproject_2stim_asymm_v5,2020.2.10,MacIntel,60,61025ae37ef11b136ea224fe,,,,,,,,,1649,73.5526123,41.0071106,1,0,0,response1disk,,6,0.108825684,8.987640381,1,0,0,rectangle,0.108825684,8.987640381,1,0,0,0.108825684,8.987640381,1,0,0,1,51,211,119,1,,,,,,,,
,,,,,,,,,,,,,FF,,,,,,,,1.867,,,,,,,,,,,,,,,,,,,,,,60fd03428b4a25226606b9ea,61036e227d71215a78b89df3,2021-07-30_13h16.23.336,Simcolourproject_2stim_asymm_v5,2020.2.10,MacIntel,60,61025ae37ef11b136ea224fe,,,,,,,,,3588,42.11529541,33.3548584,1,0,0,response1disk,,6,2.879943848,-11.65698242,1,0,0,rectangle,2.879943848,-11.65698242,1,0,0,2.879943848,-11.65698242,1,0,0,1,52,212,153,1,,,,,,,,
,,,,,,,,,,,,,FF,,,,,,,,0.8004,,,,,,,,,,,,,,,,,,,,,,60fd03428b4a25226606b9ea,61036e227d71215a78b89df3,2021-07-30_13h16.23.336,Simcolourproject_2stim_asymm_v5,2020.2.10,MacIntel,60,61025ae37ef11b136ea224fe,,,,,,,,,4253,-81.87768555,-36.32467651,1,0,0,response5disk,,2,10.72485352,-3.40423584,1,0,0,rectangle,10.72485352,-3.40423584,1,0,0,10.72485352,-3.40423584,1,0,0,1,53,213,140,1,,,,,,,,
,,,,,,,,,,,,,FF,,,,,,,,0.5842,,,,,,,,,,,,,,,,,,,,,,60fd03428b4a25226606b9ea,61036e227d71215a78b89df3,2021-07-30_13h16.23.336,Simcolourproject_2stim_asymm_v5,2020.2.10,MacIntel,60,61025ae37ef11b136ea224fe,,,,,,,,,1960,-33.79534912,-31.64428711,1,0,0,response5disk,,2,-19.99920654,-16.43286133,1,0,0,rectangle,-19.99920654,-16.43286133,1,0,0,-19.99920654,-16.43286133,1,0,0,1,54,214,78,1,,,,,,,,
,,,,,,,,,,,,,FF,,,,,,,,1.0497,,,,,,,,,,,,,,,,,,,,,,60fd03428b4a25226606b9ea,61036e227d71215a78b89df3,2021-07-30_13h16.23.336,Simcolourproject_2stim_asymm_v5,2020.2.10,MacIntel,60,61025ae37ef11b136ea224fe,,,,,,,,,1187,61.48840332,-34.81896973,1,0,0,response3disk,,5,2.163146973,-6.591400146,1,0,0,rectangle,2.163146973,-6.591400146,1,0,0,2.163146973,-6.591400146,1,0,0,1,55,215,24,1,,,,,,,,
,,,,,,,,,,,,,FF,,,,,,,,0.5829,,,,,,,,,,,,,,,,,,,,,,60fd03428b4a25226606b9ea,61036e227d71215a78b89df3,2021-07-30_13h16.23.336,Simcolourproject_2stim_asymm_v5,2020.2.10,MacIntel,60,61025ae37ef11b136ea224fe,,,,,,,,,2312,-47.05273438,-31.03527832,1,0,0,response5disk,,2,-21.35968018,-13.60565186,1,0,0,rectangle,-21.35968018,-13.60565186,1,0,0,-21.35968018,-13.60565186,1,0,0,1,56,216,61,1,,,,,,,,
,,,,,,,,,,,,,FF,,,,,,,,0.4166,,,,,,,,,,,,,,,,,,,,,,60fd03428b4a25226606b9ea,61036e227d71215a78b89df3,2021-07-30_13h16.23.336,Simcolourproject_2stim_asymm_v5,2020.2.10,MacIntel,60,61025ae37ef11b136ea224fe,,,,,,,,,1992,55.23413086,71.32751465,1,0,0,response1disk,,7,1.997497559,1.523681641,1,0,0,rectangle,1.997497559,1.523681641,1,0,0,1.997497559,1.523681641,1,0,0,1,57,217,98,1,,,,,,,,
,,,,,,,,,,,,,FF,,,,,,,,0.9,,,,,,,,,,,,,,,,,,,,,,60fd03428b4a25226606b9ea,61036e227d71215a78b89df3,2021-07-30_13h16.23.336,Simcolourproject_2stim_asymm_v5,2020.2.10,MacIntel,60,61025ae37ef11b136ea224fe,,,,,,,,,3780,-34.41815186,-43.35552979,1,0,0,response5disk,,3,8.405334473,2.210571289,1,0,0,rectangle,8.405334473,2.210571289,1,0,0,8.405334473,2.210571289,1,0,0,1,58,218,34,1,,,,,,,,
,,,,,,,,,,,,,FF,,,,,,,,0.6501,,,,,,,,,,,,,,,,,,,,,,60fd03428b4a25226606b9ea,61036e227d71215a78b89df3,2021-07-30_13h16.23.336,Simcolourproject_2stim_asymm_v5,2020.2.10,MacIntel,60,61025ae37ef11b136ea224fe,,,,,,,,,1105,41.31365967,-30.6875,1,0,0,response3disk,,5,14.95184326,-10.01550293,1,0,0,rectangle,14.95184326,-10.01550293,1,0,0,14.95184326,-10.01550293,1,0,0,1,59,219,117,1,,,,,,,,
,,,,,,,,,,,,,FF,,,,,,,,0.6663,,,,,,,,,,,,,,,,,,,,,,60fd03428b4a25226606b9ea,61036e227d71215a78b89df3,2021-07-30_13h16.23.336,Simcolourproject_2stim_asymm_v5,2020.2.10,MacIntel,60,61025ae37ef11b136ea224fe,,,,,,,,,4302,62.64855957,-42.60894775,1,0,0,response3disk,,5,25.56439209,-4.371459961,1,0,0,rectangle,25.56439209,-4.371459961,1,0,0,25.56439209,-4.371459961,1,0,0,1,60,220,29,1,,,,,,,,
,,,,,,,,,,,,,FF,,,,,,,,0.884,,,,,,,,,,,,,,,,,,,,,,60fd03428b4a25226606b9ea,61036e227d71215a78b89df3,2021-07-30_13h16.23.336,Simcolourproject_2stim_asymm_v5,2020.2.10,MacIntel,60,61025ae37ef11b136ea224fe,,,,,,,,,164,-64.45874023,-45.00018311,1,0,0,response5disk,,2,2.511291504,-17.56369019,1,0,0,rectangle,2.511291504,-17.56369019,1,0,0,2.511291504,-17.56369019,1,0,0,1,61,221,87,1,,,,,,,,
,,,,,,,,,,,,,FF,,,,,,,,0.7516,,,,,,,,,,,,,,,,,,,,,,60fd03428b4a25226606b9ea,61036e227d71215a78b89df3,2021-07-30_13h16.23.336,Simcolourproject_2stim_asymm_v5,2020.2.10,MacIntel,60,61025ae37ef11b136ea224fe,,,,,,,,,1828,-55.65454102,-41.25787354,1,0,0,response5disk,,2,-1.673950195,-2.69342041,1,0,0,rectangle,-1.673950195,-2.69342041,1,0,0,-1.673950195,-2.69342041,1,0,0,1,62,222,2,1,,,,,,,,
,,,,,,,,,,,,,FF,,,,,,,,0.8158,,,,,,,,,,,,,,,,,,,,,,60fd03428b4a25226606b9ea,61036e227d71215a78b89df3,2021-07-30_13h16.23.336,Simcolourproject_2stim_asymm_v5,2020.2.10,MacIntel,60,61025ae37ef11b136ea224fe,,,,,,,,,1265,81.71679688,-39.38012695,1,0,0,response3disk,,5,6.703613281,12.1932373,1,0,0,rectangle,98.01135254,33.27532959,1,0,0,12.94909668,2.882507324,1,0,0,1,63,223,94,1,,response1disk_3,TRUE,6,6,"[274,189,225,9,314,186,162,309,236,81,273,95,5,18,263,43,224,102,127,183]",1.383,rectangle
,,,,,,,,,,,,,FF,,,,,,,,0.7654,,,,,,,,,,,,,,,,,,,,,,60fd03428b4a25226606b9ea,61036e227d71215a78b89df3,2021-07-30_13h16.23.336,Simcolourproject_2stim_asymm_v5,2020.2.10,MacIntel,60,61025ae37ef11b136ea224fe,,,,,,,,,2824,53.24316406,-43.24182129,1,0,0,response3disk,,5,-0.182189941,-2.805847168,1,0,0,rectangle,73.37530518,-52.24108887,1,0,0,12.75079346,-9.760040283,1,0,0,1,64,224,125,1,,response3disk_3,TRUE,5,5,"[274,189,225,9,314,186,162,309,236,81,273,95,5,18,263,43,224,102,127,183]",1.2162,rectangle
,,,,,,,,,,,,,FF,,,,,,,,1.5821,,,,,,,,,,,,,,,,,,,,,,60fd03428b4a25226606b9ea,61036e227d71215a78b89df3,2021-07-30_13h16.23.336,Simcolourproject_2stim_asymm_v5,2020.2.10,MacIntel,60,61025ae37ef11b136ea224fe,,,,,,,,,1001,27.33154297,26.22509766,1,0,0,response1disk,,6,-7.197509766,5.027587891,1,0,0,rectangle,-7.197509766,5.027587891,1,0,0,-7.197509766,5.027587891,1,0,0,1,65,225,77,1,,,,,,,,
,,,,,,,,,,,,,FF,,,,,,,,0.6172,,,,,,,,,,,,,,,,,,,,,,60fd03428b4a25226606b9ea,61036e227d71215a78b89df3,2021-07-30_13h16.23.336,Simcolourproject_2stim_asymm_v5,2020.2.10,MacIntel,60,61025ae37ef11b136ea224fe,,,,,,,,,656,29.03161621,32.72625732,1,0,0,response1disk,,7,11.45446777,5.277038574,1,0,0,rectangle,11.45446777,5.277038574,1,0,0,11.45446777,5.277038574,1,0,0,1,66,226,38,1,,,,,,,,
,,,,,,,,,,,,,FF,,,,,,,,0.4833,,,,,,,,,,,,,,,,,,,,,,60fd03428b4a25226606b9ea,61036e227d71215a78b89df3,2021-07-30_13h16.23.336,Simcolourproject_2stim_asymm_v5,2020.2.10,MacIntel,60,61025ae37ef11b136ea224fe,,,,,,,,,497,40.95379639,48.60681152,1,0,0,response1disk,,7,27.4586792,-2.280700684,1,0,0,rectangle,27.4586792,-2.280700684,1,0,0,27.4586792,-2.280700684,1,0,0,1,67,227,103,1,,,,,,,,
,,,,,,,,,,,,,FF,,,,,,,,1.4165,,,,,,,,,,,,,,,,,,,,,,60fd03428b4a25226606b9ea,61036e227d71215a78b89df3,2021-07-30_13h16.23.336,Simcolourproject_2stim_asymm_v5,2020.2.10,MacIntel,60,61025ae37ef11b136ea224fe,,,,,,,,,3340,33.19030762,-40.11700439,1,0,0,response3disk,,4,11.6060791,3.471679688,1,0,0,rectangle,11.6060791,3.471679688,1,0,0,11.6060791,3.471679688,1,0,0,1,68,228,47,1,,,,,,,,
,,,,,,,,,,,,,FF,,,,,,,,1.266,,,,,,,,,,,,,,,,,,,,,,60fd03428b4a25226606b9ea,61036e227d71215a78b89df3,2021-07-30_13h16.23.336,Simcolourproject_2stim_asymm_v5,2020.2.10,MacIntel,60,61025ae37ef11b136ea224fe,,,,,,,,,3941,35.04724121,-36.37796021,1,0,0,response3disk,,4,-3.74041748,-2.05657959,1,0,0,rectangle,-3.74041748,-2.05657959,1,0,0,-3.74041748,-2.05657959,1,0,0,1,69,229,136,1,,,,,,,,
,,,,,,,,,,,,,FF,,,,,,,,0.7498,,,,,,,,,,,,,,,,,,,,,,60fd03428b4a25226606b9ea,61036e227d71215a78b89df3,2021-07-30_13h16.23.336,Simcolourproject_2stim_asymm_v5,2020.2.10,MacIntel,60,61025ae37ef11b136ea224fe,,,,,,,,,3258,30.01922607,35.21148682,1,0,0,response1disk,,7,12.28771973,-2.72567749,1,0,0,rectangle,12.28771973,-2.72567749,1,0,0,12.28771973,-2.72567749,1,0,0,1,70,230,133,1,,,,,,,,
,,,,,,,,,,,,,FF,,,,,,,,0.4484,,,,,,,,,,,,,,,,,,,,,,60fd03428b4a25226606b9ea,61036e227d71215a78b89df3,2021-07-30_13h16.23.336,Simcolourproject_2stim_asymm_v5,2020.2.10,MacIntel,60,61025ae37ef11b136ea224fe,,,,,,,,,3394,31.862854,-38.24874878,1,0,0,response3disk,,4,4.348449707,2.877258301,1,0,0,rectangle,4.348449707,2.877258301,1,0,0,4.348449707,2.877258301,1,0,0,1,71,231,147,1,,,,,,,,
,,,,,,,,,,,,,FF,,,,,,,,0.5992,,,,,,,,,,,,,,,,,,,,,,60fd03428b4a25226606b9ea,61036e227d71215a78b89df3,2021-07-30_13h16.23.336,Simcolourproject_2stim_asymm_v5,2020.2.10,MacIntel,60,61025ae37ef11b136ea224fe,,,,,,,,,2289,40.89257813,41.69589233,1,0,0,response1disk,,7,20.79815674,-0.009490967,1,0,0,rectangle,20.79815674,-0.009490967,1,0,0,20.79815674,-0.009490967,1,0,0,1,72,232,9,1,,,,,,,,
,,,,,,,,,,,,,FF,,,,,,,,1.0843,,,,,,,,,,,,,,,,,,,,,,60fd03428b4a25226606b9ea,61036e227d71215a78b89df3,2021-07-30_13h16.23.336,Simcolourproject_2stim_asymm_v5,2020.2.10,MacIntel,60,61025ae37ef11b136ea224fe,,,,,,,,,505,22.40008545,39.00784302,1,0,0,response1disk,,7,11.60418701,3.312194824,1,0,0,rectangle,11.60418701,3.312194824,1,0,0,11.60418701,3.312194824,1,0,0,1,73,233,85,1,,,,,,,,
,,,,,,,,,,,,,FF,,,,,,,,0.4833,,,,,,,,,,,,,,,,,,,,,,60fd03428b4a25226606b9ea,61036e227d71215a78b89df3,2021-07-30_13h16.23.336,Simcolourproject_2stim_asymm_v5,2020.2.10,MacIntel,60,61025ae37ef11b136ea224fe,,,,,,,,,774,42.62158203,46.99414063,1,0,0,response1disk,,7,7.491333008,-6.501953125,1,0,0,rectangle,7.491333008,-6.501953125,1,0,0,7.491333008,-6.501953125,1,0,0,1,74,234,93,1,,,,,,,,
,,,,,,,,,,,,,FF,,,,,,,,0.8181,,,,,,,,,,,,,,,,,,,,,,60fd03428b4a25226606b9ea,61036e227d71215a78b89df3,2021-07-30_13h16.23.336,Simcolourproject_2stim_asymm_v5,2020.2.10,MacIntel,60,61025ae37ef11b136ea224fe,,,,,,,,,3238,-64.62438965,-48.92791748,1,0,0,response5disk,,2,12.30065918,14.73291016,1,0,0,rectangle,-58.40905762,22.15893555,1,0,0,5.391723633,-14.09594727,1,0,0,1,75,235,97,1,,response7disk_3,TRUE,1,1,"[274,189,225,9,314,186,162,309,236,81,273,95,5,18,263,43,224,102,127,183]",1.5151,rectangle
,,,,,,,,,,,,,FF,,,,,,,,0.9009,,,,,,,,,,,,,,,,,,,,,,60fd03428b4a25226606b9ea,61036e227d71215a78b89df3,2021-07-30_13h16.23.336,Simcolourproject_2stim_asymm_v5,2020.2.10,MacIntel,60,61025ae37ef11b136ea224fe,,,,,,,,,3648,62.97351074,41.68688965,1,0,0,response1disk,,6,-1.769775391,2.297424316,1,0,0,rectangle,-1.769775391,2.297424316,1,0,0,-1.769775391,2.297424316,1,0,0,1,76,236,101,1,,,,,,,,
,,,,,,,,,,,,,FF,,,,,,,,0.6497,,,,,,,,,,,,,,,,,,,,,,60fd03428b4a25226606b9ea,61036e227d71215a78b89df3,2021-07-30_13h16.23.336,Simcolourproject_2stim_asymm_v5,2020.2.10,MacIntel,60,61025ae37ef11b136ea224fe,,,,,,,,,4205,57.69116211,26.62365723,1,0,0,response1disk,,6,14.2543335,1.688201904,1,0,0,rectangle,14.2543335,1.688201904,1,0,0,14.2543335,1.688201904,1,0,0,1,77,237,4,1,,,,,,,,
,,,,,,,,,,,,,FF,,,,,,,,2.5981,,,,,,,,,,,,,,,,,,,,,,60fd03428b4a25226606b9ea,61036e227d71215a78b89df3,2021-07-30_13h16.23.336,Simcolourproject_2stim_asymm_v5,2020.2.10,MacIntel,60,61025ae37ef11b136ea224fe,,,,,,,,,3255,27.93823242,-28.2020874,1,0,0,response3disk,,4,3.882873535,4.714477539,1,0,0,rectangle,3.882873535,4.714477539,1,0,0,3.882873535,4.714477539,1,0,0,1,78,238,99,1,,,,,,,,
,,,,,,,,,,,,,FF,,,,,,,,0.7673,,,,,,,,,,,,,,,,,,,,,,60fd03428b4a25226606b9ea,61036e227d71215a78b89df3,2021-07-30_13h16.23.336,Simcolourproject_2stim_asymm_v5,2020.2.10,MacIntel,60,61025ae37ef11b136ea224fe,,,,,,,,,2371,39.55084229,-49.4666748,1,0,0,response3disk,,4,1.299804688,-7.214385986,1,0,0,rectangle,1.299804688,-7.214385986,1,0,0,1.299804688,-7.214385986,1,0,0,1,79,239,30,1,,,,,,,,
,,,,,,,,,,,,,FF,,,,,,,,1.0831,,,,,,,,,,,,,,,,,,,,,,60fd03428b4a25226606b9ea,61036e227d71215a78b89df3,2021-07-30_13h16.23.336,Simcolourproject_2stim_asymm_v5,2020.2.10,MacIntel,60,61025ae37ef11b136ea224fe,,,,,,,,,3474,24.0715332,-45.06869507,1,0,0,response3disk,,4,-5.96887207,-3.121520996,1,0,0,rectangle,-5.96887207,-3.121520996,1,0,0,-5.96887207,-3.121520996,1,0,0,1,80,240,111,1,,,,,,,,
,,,,,,,,,,,,,FF,,,,,,,,0.6167,,,,,,,,,,,,,,,,,,,,,,60fd03428b4a25226606b9ea,61036e227d71215a78b89df3,2021-07-30_13h16.23.336,Simcolourproject_2stim_asymm_v5,2020.2.10,MacIntel,60,61025ae37ef11b136ea224fe,,,,,,,,,2967,25.42443848,33.37860107,1,0,0,response1disk,,7,12.32653809,12.48956299,1,0,0,rectangle,12.32653809,12.48956299,1,0,0,12.32653809,12.48956299,1,0,0,1,81,241,31,1,,,,,,,,
