key_resp.keys,key_resp.rt,key_resp_14.keys,key_resp_14.rt,key_resp_15.keys,key_resp_15.rt,key_resp_17.keys,key_resp_17.rt,key_resp_9.keys,key_resp_9.rt,key_resp_10.keys,key_resp_10.rt,practice_comparison,Ecc,mouse_5.x,mouse_5.y,mouse_5.leftButton,mouse_5.midButton,mouse_5.rightButton,mouse_5.clicked_name,pracsimilarity,response_time,mouse_10.x,mouse_10.y,mouse_10.leftButton,mouse_10.midButton,mouse_10.rightButton,mouse_10.clicked_name,mouse_7.x,mouse_7.y,mouse_7.leftButton,mouse_7.midButton,mouse_7.rightButton,mouse_6.x,mouse_6.y,mouse_6.leftButton,mouse_6.midButton,mouse_6.rightButton,duringprac.thisRepN,duringprac.thisTrialN,duringprac.thisN,duringprac.thisIndex,duringprac.ran,participant,session,date,expName,psychopyVersion,OS,frameRate,study_id,mouse_7.clicked_name,catchpracsimilarity,catch_response_time,catchnumberprac,catchtrialorderprac,mouse_6.clicked_name,key_resp_22.keys,key_resp_22.rt,realcomparison,mouse.x,mouse.y,mouse.leftButton,mouse.midButton,mouse.rightButton,mouse.clicked_name,Colour2,similarity,mouse_2.x,mouse_2.y,mouse_2.leftButton,mouse_2.midButton,mouse_2.rightButton,mouse_2.clicked_name,mouse_3.x,mouse_3.y,mouse_3.leftButton,mouse_3.midButton,mouse_3.rightButton,mouse_11.x,mouse_11.y,mouse_11.leftButton,mouse_11.midButton,mouse_11.rightButton,trials_2.thisRepN,trials_2.thisTrialN,trials_2.thisN,trials_2.thisIndex,trials_2.ran,Colour1,mouse_3.clicked_name,catchornah,catchsimilarity,catchnumber,catchtrialorder,catchRT,mouse_11.clicked_name
space,1.0592,space,7.9308,space,19.2585,space,3.2919,space,1.2811,space,2.9115,85,PF,-65.3125,67.1328125,1,0,0,response7disk_5,0,13.4292,1.50390625,-4.91796875,1,0,0,rectangle_8,1.50390625,-4.91796875,1,0,0,1.50390625,-4.91796875,1,0,0,0,0,0,1,1,60fdca1a87839971dfef0270,610378ba8aa60ca94ea087f6,2021-07-29_22h58.53.312,Simcolourproject_2stim_asymm_v5,2020.2.10,MacIntel,60,61025ae37ef11b136ea224fe,,,,,,,,,,,,,,,,,,,,,,,,,,,,,,,,,,,,,,,,,,,,,,
,,,,,,,,,,,,42,FF,62.73828125,-26.43359375,1,0,0,response3disk_5,5,4.7385,-8.1171875,6.47265625,1,0,0,rectangle_8,40.03125,-90.16796875,1,0,0,9.55078125,2.6640625,1,0,0,0,1,1,0,1,60fdca1a87839971dfef0270,610378ba8aa60ca94ea087f6,2021-07-29_22h58.53.312,Simcolourproject_2stim_asymm_v5,2020.2.10,MacIntel,60,61025ae37ef11b136ea224fe,response3disk_7,4,2.6769,4,"[2,5]",rectangle_4,,,,,,,,,,,,,,,,,,,,,,,,,,,,,,,,,,,,,,,,
,,,,,,,,,,,,76,FF,-46.7109375,-70.2734375,1,0,0,response5disk_5,3,4.8369,-2.94921875,3.8515625,1,0,0,rectangle_8,-2.94921875,3.8515625,1,0,0,-2.94921875,3.8515625,1,0,0,0,2,2,3,1,60fdca1a87839971dfef0270,610378ba8aa60ca94ea087f6,2021-07-29_22h58.53.312,Simcolourproject_2stim_asymm_v5,2020.2.10,MacIntel,60,61025ae37ef11b136ea224fe,,,,,,,,,,,,,,,,,,,,,,,,,,,,,,,,,,,,,,,,,,,,,,
,,,,,,,,,,,,37,PF,-89.19921875,-36.25,1,0,0,response5disk_5,2,5.586,5.7109375,6.01171875,1,0,0,rectangle_8,5.7109375,6.01171875,1,0,0,5.7109375,6.01171875,1,0,0,0,3,3,4,1,60fdca1a87839971dfef0270,610378ba8aa60ca94ea087f6,2021-07-29_22h58.53.312,Simcolourproject_2stim_asymm_v5,2020.2.10,MacIntel,60,61025ae37ef11b136ea224fe,,,,,,,,,,,,,,,,,,,,,,,,,,,,,,,,,,,,,,,,,,,,,,
,,,,,,,,,,,,38,PF,21.30078125,-28.203125,1,0,0,response3disk_5,4,2.6116,-11.953125,-10.80859375,1,0,0,rectangle_8,33.84765625,-102.7890625,1,0,0,5.7890625,-0.109375,1,0,0,0,4,4,6,1,60fdca1a87839971dfef0270,610378ba8aa60ca94ea087f6,2021-07-29_22h58.53.312,Simcolourproject_2stim_asymm_v5,2020.2.10,MacIntel,60,61025ae37ef11b136ea224fe,response3disk_7,4,1.8777,4,"[2,5]",rectangle_4,,,,,,,,,,,,,,,,,,,,,,,,,,,,,,,,,,,,,,,,
,,,,,,,,,,,,12,FF,-45.42578125,-96.921875,1,0,0,response5disk_5,3,4.4217,21.7734375,9.3828125,1,0,0,rectangle_8,21.7734375,9.3828125,1,0,0,21.7734375,9.3828125,1,0,0,0,5,5,5,1,60fdca1a87839971dfef0270,610378ba8aa60ca94ea087f6,2021-07-29_22h58.53.312,Simcolourproject_2stim_asymm_v5,2020.2.10,MacIntel,60,61025ae37ef11b136ea224fe,,,,,,,,,,,,,,,,,,,,,,,,,,,,,,,,,,,,,,,,,,,,,,
,,,,,,,,,,,,91,PF,50.87109375,66.5390625,1,0,0,response1disk_5,7,3.392,-0.96875,-9.125,1,0,0,rectangle_8,-0.96875,-9.125,1,0,0,-0.96875,-9.125,1,0,0,0,6,6,2,1,60fdca1a87839971dfef0270,610378ba8aa60ca94ea087f6,2021-07-29_22h58.53.312,Simcolourproject_2stim_asymm_v5,2020.2.10,MacIntel,60,61025ae37ef11b136ea224fe,,,,,,,,,,,,,,,,,,,,,,,,,,,,,,,,,,,,,,,,,,,,,,
,,,,,,,,,,,,,FF,,,,,,,,4.5403,,,,,,,,,,,,,,,,,,,,,,60fdca1a87839971dfef0270,610378ba8aa60ca94ea087f6,2021-07-29_22h58.53.312,Simcolourproject_2stim_asymm_v5,2020.2.10,MacIntel,60,61025ae37ef11b136ea224fe,,,,,,,space,57.5977,2785,29.0859375,-99.109375,1,0,0,response3disk,,4,4.83984375,3.3828125,1,0,0,rectangle,4.83984375,3.3828125,1,0,0,4.83984375,3.3828125,1,0,0,0,0,0,49,1,,,,,,,,
,,,,,,,,,,,,,FF,,,,,,,,6.0847,,,,,,,,,,,,,,,,,,,,,,60fdca1a87839971dfef0270,610378ba8aa60ca94ea087f6,2021-07-29_22h58.53.312,Simcolourproject_2stim_asymm_v5,2020.2.10,MacIntel,60,61025ae37ef11b136ea224fe,,,,,,,,,3293,26.47265625,-75.359375,1,0,0,response3disk,,4,-0.046875,-2.16015625,1,0,0,rectangle,-0.046875,-2.16015625,1,0,0,-0.046875,-2.16015625,1,0,0,0,1,1,64,1,,,,,,,,
,,,,,,,,,,,,,FF,,,,,,,,2.6274,,,,,,,,,,,,,,,,,,,,,,60fdca1a87839971dfef0270,610378ba8aa60ca94ea087f6,2021-07-29_22h58.53.312,Simcolourproject_2stim_asymm_v5,2020.2.10,MacIntel,60,61025ae37ef11b136ea224fe,,,,,,,,,2499,39.09375,91.25,1,0,0,response1disk,,7,2.03125,7.1171875,1,0,0,rectangle,2.03125,7.1171875,1,0,0,2.03125,7.1171875,1,0,0,0,2,2,112,1,,,,,,,,
,,,,,,,,,,,,,FF,,,,,,,,3.3267,,,,,,,,,,,,,,,,,,,,,,60fdca1a87839971dfef0270,610378ba8aa60ca94ea087f6,2021-07-29_22h58.53.312,Simcolourproject_2stim_asymm_v5,2020.2.10,MacIntel,60,61025ae37ef11b136ea224fe,,,,,,,,,1223,-29.14453125,-86.984375,1,0,0,response5disk,,3,10.69140625,-5.31640625,1,0,0,rectangle,10.69140625,-5.31640625,1,0,0,10.69140625,-5.31640625,1,0,0,0,3,3,89,1,,,,,,,,
,,,,,,,,,,,,,FF,,,,,,,,2.6109,,,,,,,,,,,,,,,,,,,,,,60fdca1a87839971dfef0270,610378ba8aa60ca94ea087f6,2021-07-29_22h58.53.312,Simcolourproject_2stim_asymm_v5,2020.2.10,MacIntel,60,61025ae37ef11b136ea224fe,,,,,,,,,3587,50.296875,-73.4765625,1,0,0,response3disk,,4,-17.2890625,2.421875,1,0,0,rectangle,-17.2890625,2.421875,1,0,0,-17.2890625,2.421875,1,0,0,0,4,4,15,1,,,,,,,,
,,,,,,,,,,,,,FF,,,,,,,,3.3762,,,,,,,,,,,,,,,,,,,,,,60fdca1a87839971dfef0270,610378ba8aa60ca94ea087f6,2021-07-29_22h58.53.312,Simcolourproject_2stim_asymm_v5,2020.2.10,MacIntel,60,61025ae37ef11b136ea224fe,,,,,,,,,3484,26.43359375,-91.44921875,1,0,0,response3disk,,4,-15.44140625,5.84765625,1,0,0,rectangle,-15.44140625,5.84765625,1,0,0,-15.44140625,5.84765625,1,0,0,0,5,5,87,1,,,,,,,,
,,,,,,,,,,,,,FF,,,,,,,,2.5426,,,,,,,,,,,,,,,,,,,,,,60fdca1a87839971dfef0270,610378ba8aa60ca94ea087f6,2021-07-29_22h58.53.312,Simcolourproject_2stim_asymm_v5,2020.2.10,MacIntel,60,61025ae37ef11b136ea224fe,,,,,,,,,2825,65.26953125,-35.375,1,0,0,response3disk,,5,3.421875,-9.73828125,1,0,0,rectangle,3.421875,-9.73828125,1,0,0,3.421875,-9.73828125,1,0,0,0,6,6,66,1,,,,,,,,
,,,,,,,,,,,,,FF,,,,,,,,1.5631,,,,,,,,,,,,,,,,,,,,,,60fdca1a87839971dfef0270,610378ba8aa60ca94ea087f6,2021-07-29_22h58.53.312,Simcolourproject_2stim_asymm_v5,2020.2.10,MacIntel,60,61025ae37ef11b136ea224fe,,,,,,,,,2386,40.67578125,77.43359375,1,0,0,response1disk,,7,13.00390625,12.7734375,1,0,0,rectangle,13.00390625,12.7734375,1,0,0,13.00390625,12.7734375,1,0,0,0,7,7,28,1,,,,,,,,
,,,,,,,,,,,,,FF,,,,,,,,1.064,,,,,,,,,,,,,,,,,,,,,,60fdca1a87839971dfef0270,610378ba8aa60ca94ea087f6,2021-07-29_22h58.53.312,Simcolourproject_2stim_asymm_v5,2020.2.10,MacIntel,60,61025ae37ef11b136ea224fe,,,,,,,,,207,23.046875,79.55078125,1,0,0,response1disk,,7,1.2265625,7.3125,1,0,0,rectangle,1.2265625,7.3125,1,0,0,1.2265625,7.3125,1,0,0,0,8,8,68,1,,,,,,,,
,,,,,,,,,,,,,FF,,,,,,,,1.415,,,,,,,,,,,,,,,,,,,,,,60fdca1a87839971dfef0270,610378ba8aa60ca94ea087f6,2021-07-29_22h58.53.312,Simcolourproject_2stim_asymm_v5,2020.2.10,MacIntel,60,61025ae37ef11b136ea224fe,,,,,,,,,347,53.18359375,-40.796875,1,0,0,response3disk,,5,-13.28515625,7.3515625,1,0,0,rectangle,-110.5039063,42.60546875,1,0,0,9.390625,6.65625,1,0,0,0,9,9,82,1,,response7disk_3,TRUE,1,1,"[63,243,112,271,10,37,273,179,242,90,11,30,192,119,38,91,192,35,205,86]",1.479,rectangle
,,,,,,,,,,,,,FF,,,,,,,,2.5611,,,,,,,,,,,,,,,,,,,,,,60fdca1a87839971dfef0270,610378ba8aa60ca94ea087f6,2021-07-29_22h58.53.312,Simcolourproject_2stim_asymm_v5,2020.2.10,MacIntel,60,61025ae37ef11b136ea224fe,,,,,,,,,3353,67.9296875,59.23046875,1,0,0,response1disk,,6,2.4609375,1.76953125,1,0,0,rectangle,41.2578125,87.25,1,0,0,-3.04296875,-1.921875,1,0,0,0,10,10,117,1,,response1disk_3,TRUE,7,7,"[63,243,112,271,10,37,273,179,242,90,11,30,192,119,38,91,192,35,205,86]",1.7778,rectangle
,,,,,,,,,,,,,FF,,,,,,,,2.3947,,,,,,,,,,,,,,,,,,,,,,60fdca1a87839971dfef0270,610378ba8aa60ca94ea087f6,2021-07-29_22h58.53.312,Simcolourproject_2stim_asymm_v5,2020.2.10,MacIntel,60,61025ae37ef11b136ea224fe,,,,,,,,,1299,-69.203125,36.87109375,1,0,0,response7disk,,1,-6.5859375,0.234375,1,0,0,rectangle,-6.5859375,0.234375,1,0,0,-6.5859375,0.234375,1,0,0,0,11,11,157,1,,,,,,,,
,,,,,,,,,,,,,FF,,,,,,,,1.6476,,,,,,,,,,,,,,,,,,,,,,60fdca1a87839971dfef0270,610378ba8aa60ca94ea087f6,2021-07-29_22h58.53.312,Simcolourproject_2stim_asymm_v5,2020.2.10,MacIntel,60,61025ae37ef11b136ea224fe,,,,,,,,,2286,67.078125,-45.8359375,1,0,0,response3disk,,5,7.19140625,-9.46484375,1,0,0,rectangle,7.19140625,-9.46484375,1,0,0,7.19140625,-9.46484375,1,0,0,0,12,12,42,1,,,,,,,,
,,,,,,,,,,,,,FF,,,,,,,,2.5948,,,,,,,,,,,,,,,,,,,,,,60fdca1a87839971dfef0270,610378ba8aa60ca94ea087f6,2021-07-29_22h58.53.312,Simcolourproject_2stim_asymm_v5,2020.2.10,MacIntel,60,61025ae37ef11b136ea224fe,,,,,,,,,696,-44.6484375,-72.0859375,1,0,0,response5disk,,3,1.07421875,4.77734375,1,0,0,rectangle,1.07421875,4.77734375,1,0,0,1.07421875,4.77734375,1,0,0,0,13,13,77,1,,,,,,,,
,,,,,,,,,,,,,FF,,,,,,,,1.2958,,,,,,,,,,,,,,,,,,,,,,60fdca1a87839971dfef0270,610378ba8aa60ca94ea087f6,2021-07-29_22h58.53.312,Simcolourproject_2stim_asymm_v5,2020.2.10,MacIntel,60,61025ae37ef11b136ea224fe,,,,,,,,,902,74.125,21.36328125,1,0,0,response1disk,,6,4.578125,4.08203125,1,0,0,rectangle,4.578125,4.08203125,1,0,0,4.578125,4.08203125,1,0,0,0,14,14,63,1,,,,,,,,
,,,,,,,,,,,,,FF,,,,,,,,1.1636,,,,,,,,,,,,,,,,,,,,,,60fdca1a87839971dfef0270,610378ba8aa60ca94ea087f6,2021-07-29_22h58.53.312,Simcolourproject_2stim_asymm_v5,2020.2.10,MacIntel,60,61025ae37ef11b136ea224fe,,,,,,,,,410,-39.453125,-92.8671875,1,0,0,response5disk,,3,10.08203125,-0.7265625,1,0,0,rectangle,10.08203125,-0.7265625,1,0,0,10.08203125,-0.7265625,1,0,0,0,15,15,139,1,,,,,,,,
,,,,,,,,,,,,,FF,,,,,,,,1.8623,,,,,,,,,,,,,,,,,,,,,,60fdca1a87839971dfef0270,610378ba8aa60ca94ea087f6,2021-07-29_22h58.53.312,Simcolourproject_2stim_asymm_v5,2020.2.10,MacIntel,60,61025ae37ef11b136ea224fe,,,,,,,,,1718,38.484375,52.88671875,1,0,0,response1disk,,7,-7.546875,12.31640625,1,0,0,rectangle,-7.546875,12.31640625,1,0,0,-7.546875,12.31640625,1,0,0,0,16,16,105,1,,,,,,,,
,,,,,,,,,,,,,FF,,,,,,,,1.1633,,,,,,,,,,,,,,,,,,,,,,60fdca1a87839971dfef0270,610378ba8aa60ca94ea087f6,2021-07-29_22h58.53.312,Simcolourproject_2stim_asymm_v5,2020.2.10,MacIntel,60,61025ae37ef11b136ea224fe,,,,,,,,,984,90.13671875,-28.90234375,1,0,0,response3disk,,5,-18.78125,-10.62109375,1,0,0,rectangle,-18.78125,-10.62109375,1,0,0,-18.78125,-10.62109375,1,0,0,0,17,17,95,1,,,,,,,,
,,,,,,,,,,,,,FF,,,,,,,,2.1614,,,,,,,,,,,,,,,,,,,,,,60fdca1a87839971dfef0270,610378ba8aa60ca94ea087f6,2021-07-29_22h58.53.312,Simcolourproject_2stim_asymm_v5,2020.2.10,MacIntel,60,61025ae37ef11b136ea224fe,,,,,,,,,2136,53.26953125,76.359375,1,0,0,response1disk,,7,16.20703125,7.85546875,1,0,0,rectangle,16.20703125,7.85546875,1,0,0,16.20703125,7.85546875,1,0,0,0,18,18,130,1,,,,,,,,
,,,,,,,,,,,,,FF,,,,,,,,1.3127,,,,,,,,,,,,,,,,,,,,,,60fdca1a87839971dfef0270,610378ba8aa60ca94ea087f6,2021-07-29_22h58.53.312,Simcolourproject_2stim_asymm_v5,2020.2.10,MacIntel,60,61025ae37ef11b136ea224fe,,,,,,,,,1402,95.14453125,-33.01953125,1,0,0,response3disk,,5,13.859375,-10.890625,1,0,0,rectangle,13.859375,-10.890625,1,0,0,13.859375,-10.890625,1,0,0,0,19,19,40,1,,,,,,,,
,,,,,,,,,,,,,FF,,,,,,,,0.7816,,,,,,,,,,,,,,,,,,,,,,60fdca1a87839971dfef0270,610378ba8aa60ca94ea087f6,2021-07-29_22h58.53.312,Simcolourproject_2stim_asymm_v5,2020.2.10,MacIntel,60,61025ae37ef11b136ea224fe,,,,,,,,,1512,28.75390625,72.125,1,0,0,response1disk,,7,7.96875,7.734375,1,0,0,rectangle,7.96875,7.734375,1,0,0,7.96875,7.734375,1,0,0,0,20,20,44,1,,,,,,,,
,,,,,,,,,,,,,FF,,,,,,,,1.1149,,,,,,,,,,,,,,,,,,,,,,60fdca1a87839971dfef0270,610378ba8aa60ca94ea087f6,2021-07-29_22h58.53.312,Simcolourproject_2stim_asymm_v5,2020.2.10,MacIntel,60,61025ae37ef11b136ea224fe,,,,,,,,,221,70.28125,-38.33203125,1,0,0,response3disk,,5,-4.80859375,-9.96875,1,0,0,rectangle,-4.80859375,-9.96875,1,0,0,-4.80859375,-9.96875,1,0,0,0,21,21,32,1,,,,,,,,
,,,,,,,,,,,,,FF,,,,,,,,2.1111,,,,,,,,,,,,,,,,,,,,,,60fdca1a87839971dfef0270,610378ba8aa60ca94ea087f6,2021-07-29_22h58.53.312,Simcolourproject_2stim_asymm_v5,2020.2.10,MacIntel,60,61025ae37ef11b136ea224fe,,,,,,,,,1058,-90.7109375,-62.2734375,1,0,0,response5disk,,2,12.8203125,12.16015625,1,0,0,rectangle,12.8203125,12.16015625,1,0,0,12.8203125,12.16015625,1,0,0,0,22,22,29,1,,,,,,,,
,,,,,,,,,,,,,FF,,,,,,,,2.942,,,,,,,,,,,,,,,,,,,,,,60fdca1a87839971dfef0270,610378ba8aa60ca94ea087f6,2021-07-29_22h58.53.312,Simcolourproject_2stim_asymm_v5,2020.2.10,MacIntel,60,61025ae37ef11b136ea224fe,,,,,,,,,3710,-35.5234375,-63.2734375,1,0,0,response5disk,,3,5.34765625,-6.50390625,1,0,0,rectangle,5.34765625,-6.50390625,1,0,0,5.34765625,-6.50390625,1,0,0,0,23,23,6,1,,,,,,,,
,,,,,,,,,,,,,FF,,,,,,,,2.6602,,,,,,,,,,,,,,,,,,,,,,60fdca1a87839971dfef0270,610378ba8aa60ca94ea087f6,2021-07-29_22h58.53.312,Simcolourproject_2stim_asymm_v5,2020.2.10,MacIntel,60,61025ae37ef11b136ea224fe,,,,,,,,,220,26.78515625,-73.625,1,0,0,response3disk,,4,-18.8984375,-2.6171875,1,0,0,rectangle,-18.8984375,-2.6171875,1,0,0,-18.8984375,-2.6171875,1,0,0,0,24,24,10,1,,,,,,,,
,,,,,,,,,,,,,FF,,,,,,,,6.7173,,,,,,,,,,,,,,,,,,,,,,60fdca1a87839971dfef0270,610378ba8aa60ca94ea087f6,2021-07-29_22h58.53.312,Simcolourproject_2stim_asymm_v5,2020.2.10,MacIntel,60,61025ae37ef11b136ea224fe,,,,,,,,,3394,26.171875,-81.82421875,1,0,0,response3disk,,4,-13.8515625,-7.6796875,1,0,0,rectangle,-13.8515625,-7.6796875,1,0,0,-13.8515625,-7.6796875,1,0,0,0,25,25,67,1,,,,,,,,
,,,,,,,,,,,,,FF,,,,,,,,2.2607,,,,,,,,,,,,,,,,,,,,,,60fdca1a87839971dfef0270,610378ba8aa60ca94ea087f6,2021-07-29_22h58.53.312,Simcolourproject_2stim_asymm_v5,2020.2.10,MacIntel,60,61025ae37ef11b136ea224fe,,,,,,,,,4075,46.30078125,73.64453125,1,0,0,response1disk,,7,8.890625,-7.7578125,1,0,0,rectangle,8.890625,-7.7578125,1,0,0,8.890625,-7.7578125,1,0,0,0,26,26,96,1,,,,,,,,
,,,,,,,,,,,,,FF,,,,,,,,1.9946,,,,,,,,,,,,,,,,,,,,,,60fdca1a87839971dfef0270,610378ba8aa60ca94ea087f6,2021-07-29_22h58.53.312,Simcolourproject_2stim_asymm_v5,2020.2.10,MacIntel,60,61025ae37ef11b136ea224fe,,,,,,,,,4104,-77.28125,35.5,1,0,0,response7disk,,1,-12.5078125,1.90234375,1,0,0,rectangle,-12.5078125,1.90234375,1,0,0,-12.5078125,1.90234375,1,0,0,0,27,27,109,1,,,,,,,,
,,,,,,,,,,,,,FF,,,,,,,,1.281,,,,,,,,,,,,,,,,,,,,,,60fdca1a87839971dfef0270,610378ba8aa60ca94ea087f6,2021-07-29_22h58.53.312,Simcolourproject_2stim_asymm_v5,2020.2.10,MacIntel,60,61025ae37ef11b136ea224fe,,,,,,,,,469,81.25,-47.98046875,1,0,0,response3disk,,5,-19.55078125,3.28515625,1,0,0,rectangle,-19.55078125,3.28515625,1,0,0,-19.55078125,3.28515625,1,0,0,0,28,28,156,1,,,,,,,,
,,,,,,,,,,,,,FF,,,,,,,,1.3622,,,,,,,,,,,,,,,,,,,,,,60fdca1a87839971dfef0270,610378ba8aa60ca94ea087f6,2021-07-29_22h58.53.312,Simcolourproject_2stim_asymm_v5,2020.2.10,MacIntel,60,61025ae37ef11b136ea224fe,,,,,,,,,2259,79.90234375,-46.94140625,1,0,0,response3disk,,5,-19.43359375,3.6328125,1,0,0,rectangle,-42.6015625,-95.39453125,1,0,0,14.20703125,0.24609375,1,0,0,0,29,29,19,1,,response5disk_3,TRUE,3,3,"[63,243,112,271,10,37,273,179,242,90,11,30,192,119,38,91,192,35,205,86]",1.5134,rectangle
,,,,,,,,,,,,,FF,,,,,,,,4.6886,,,,,,,,,,,,,,,,,,,,,,60fdca1a87839971dfef0270,610378ba8aa60ca94ea087f6,2021-07-29_22h58.53.312,Simcolourproject_2stim_asymm_v5,2020.2.10,MacIntel,60,61025ae37ef11b136ea224fe,,,,,,,,,42,56.30859375,-37.66015625,1,0,0,response3disk,,5,-14.0078125,3.21484375,1,0,0,rectangle,-14.0078125,3.21484375,1,0,0,-14.0078125,3.21484375,1,0,0,0,30,30,30,1,,,,,,,,
,,,,,,,,,,,,,FF,,,,,,,,1.1143,,,,,,,,,,,,,,,,,,,,,,60fdca1a87839971dfef0270,610378ba8aa60ca94ea087f6,2021-07-29_22h58.53.312,Simcolourproject_2stim_asymm_v5,2020.2.10,MacIntel,60,61025ae37ef11b136ea224fe,,,,,,,,,3372,53.578125,69.68359375,1,0,0,response1disk,,7,13.0859375,-7.17578125,1,0,0,rectangle,13.0859375,-7.17578125,1,0,0,13.0859375,-7.17578125,1,0,0,0,31,31,35,1,,,,,,,,
,,,,,,,,,,,,,FF,,,,,,,,1.6302,,,,,,,,,,,,,,,,,,,,,,60fdca1a87839971dfef0270,610378ba8aa60ca94ea087f6,2021-07-29_22h58.53.312,Simcolourproject_2stim_asymm_v5,2020.2.10,MacIntel,60,61025ae37ef11b136ea224fe,,,,,,,,,2960,32.75390625,-94.8125,1,0,0,response3disk,,4,4.04296875,-2.79296875,1,0,0,rectangle,4.04296875,-2.79296875,1,0,0,4.04296875,-2.79296875,1,0,0,0,32,32,124,1,,,,,,,,
,,,,,,,,,,,,,FF,,,,,,,,2.628,,,,,,,,,,,,,,,,,,,,,,60fdca1a87839971dfef0270,610378ba8aa60ca94ea087f6,2021-07-29_22h58.53.312,Simcolourproject_2stim_asymm_v5,2020.2.10,MacIntel,60,61025ae37ef11b136ea224fe,,,,,,,,,3294,-71.0078125,-40.546875,1,0,0,response5disk,,2,-4.11328125,-4.5625,1,0,0,rectangle,-4.11328125,-4.5625,1,0,0,-4.11328125,-4.5625,1,0,0,0,33,33,108,1,,,,,,,,
,,,,,,,,,,,,,FF,,,,,,,,2.6604,,,,,,,,,,,,,,,,,,,,,,60fdca1a87839971dfef0270,610378ba8aa60ca94ea087f6,2021-07-29_22h58.53.312,Simcolourproject_2stim_asymm_v5,2020.2.10,MacIntel,60,61025ae37ef11b136ea224fe,,,,,,,,,4365,-29.32421875,76.0703125,1,0,0,response7disk,,0,-3.73046875,-5.83203125,1,0,0,rectangle,-37.328125,-109.09375,1,0,0,7.0078125,-5.25390625,1,0,0,0,34,34,135,1,,response5disk_3,TRUE,3,3,"[63,243,112,271,10,37,273,179,242,90,11,30,192,119,38,91,192,35,205,86]",1.4628,rectangle
,,,,,,,,,,,,,FF,,,,,,,,2.1284,,,,,,,,,,,,,,,,,,,,,,60fdca1a87839971dfef0270,610378ba8aa60ca94ea087f6,2021-07-29_22h58.53.312,Simcolourproject_2stim_asymm_v5,2020.2.10,MacIntel,60,61025ae37ef11b136ea224fe,,,,,,,,,2370,40.609375,-63.33203125,1,0,0,response3disk,,4,5.27734375,-3.09765625,1,0,0,rectangle,5.27734375,-3.09765625,1,0,0,5.27734375,-3.09765625,1,0,0,0,35,35,36,1,,,,,,,,
,,,,,,,,,,,,,FF,,,,,,,,1.9786,,,,,,,,,,,,,,,,,,,,,,60fdca1a87839971dfef0270,610378ba8aa60ca94ea087f6,2021-07-29_22h58.53.312,Simcolourproject_2stim_asymm_v5,2020.2.10,MacIntel,60,61025ae37ef11b136ea224fe,,,,,,,,,2870,83.6015625,49.859375,1,0,0,response1disk,,6,-8.84765625,-3.83203125,1,0,0,rectangle,68.70703125,-42.1640625,1,0,0,4.7421875,-10.29296875,1,0,0,0,36,36,85,1,,response3disk_3,TRUE,5,5,"[63,243,112,271,10,37,273,179,242,90,11,30,192,119,38,91,192,35,205,86]",1.5458,rectangle
,,,,,,,,,,,,,FF,,,,,,,,2.1613,,,,,,,,,,,,,,,,,,,,,,60fdca1a87839971dfef0270,610378ba8aa60ca94ea087f6,2021-07-29_22h58.53.312,Simcolourproject_2stim_asymm_v5,2020.2.10,MacIntel,60,61025ae37ef11b136ea224fe,,,,,,,,,1302,-79.27734375,-42.85546875,1,0,0,response5disk,,2,-0.375,3.13671875,1,0,0,rectangle,-41.48046875,91.12109375,1,0,0,-2.68359375,-0.671875,1,0,0,0,37,37,1,1,,response7disk_3,TRUE,0,0,"[63,243,112,271,10,37,273,179,242,90,11,30,192,119,38,91,192,35,205,86]",1.4139,rectangle
,,,,,,,,,,,,,FF,,,,,,,,1.7124,,,,,,,,,,,,,,,,,,,,,,60fdca1a87839971dfef0270,610378ba8aa60ca94ea087f6,2021-07-29_22h58.53.312,Simcolourproject_2stim_asymm_v5,2020.2.10,MacIntel,60,61025ae37ef11b136ea224fe,,,,,,,,,100,-20.00390625,-92.08203125,1,0,0,response5disk,,3,-5.0703125,5.75,1,0,0,rectangle,-5.0703125,5.75,1,0,0,-5.0703125,5.75,1,0,0,0,38,38,114,1,,,,,,,,
,,,,,,,,,,,,,FF,,,,,,,,3.3912,,,,,,,,,,,,,,,,,,,,,,60fdca1a87839971dfef0270,610378ba8aa60ca94ea087f6,2021-07-29_22h58.53.312,Simcolourproject_2stim_asymm_v5,2020.2.10,MacIntel,60,61025ae37ef11b136ea224fe,,,,,,,,,3640,31.30078125,82.34375,1,0,0,response1disk,,7,11.2109375,-11.18359375,1,0,0,rectangle,11.2109375,-11.18359375,1,0,0,11.2109375,-11.18359375,1,0,0,0,39,39,143,1,,,,,,,,
,,,,,,,,,,,,,FF,,,,,,,,0.7979,,,,,,,,,,,,,,,,,,,,,,60fdca1a87839971dfef0270,610378ba8aa60ca94ea087f6,2021-07-29_22h58.53.312,Simcolourproject_2stim_asymm_v5,2020.2.10,MacIntel,60,61025ae37ef11b136ea224fe,,,,,,,,,119,18.140625,58.015625,1,0,0,response1disk,,7,16.0625,4.05859375,1,0,0,rectangle,16.0625,4.05859375,1,0,0,16.0625,4.05859375,1,0,0,0,40,40,92,1,,,,,,,,
,,,,,,,,,,,,,FF,,,,,,,,2.3279,,,,,,,,,,,,,,,,,,,,,,60fdca1a87839971dfef0270,610378ba8aa60ca94ea087f6,2021-07-29_22h58.53.312,Simcolourproject_2stim_asymm_v5,2020.2.10,MacIntel,60,61025ae37ef11b136ea224fe,,,,,,,,,3055,-54.6015625,-61.90625,1,0,0,response5disk,,3,-6.80078125,6.6015625,1,0,0,rectangle,-6.80078125,6.6015625,1,0,0,-6.80078125,6.6015625,1,0,0,0,41,41,54,1,,,,,,,,
,,,,,,,,,,,,,FF,,,,,,,,1.1473,,,,,,,,,,,,,,,,,,,,,,60fdca1a87839971dfef0270,610378ba8aa60ca94ea087f6,2021-07-29_22h58.53.312,Simcolourproject_2stim_asymm_v5,2020.2.10,MacIntel,60,61025ae37ef11b136ea224fe,,,,,,,,,3352,33.6875,-79.2265625,1,0,0,response3disk,,4,3.203125,-4.7890625,1,0,0,rectangle,3.203125,-4.7890625,1,0,0,3.203125,-4.7890625,1,0,0,0,42,42,159,1,,,,,,,,
,,,,,,,,,,,,,FF,,,,,,,,0.9479,,,,,,,,,,,,,,,,,,,,,,60fdca1a87839971dfef0270,610378ba8aa60ca94ea087f6,2021-07-29_22h58.53.312,Simcolourproject_2stim_asymm_v5,2020.2.10,MacIntel,60,61025ae37ef11b136ea224fe,,,,,,,,,588,58.58984375,52.015625,1,0,0,response1disk,,6,24.375,12.18359375,1,0,0,rectangle,24.375,12.18359375,1,0,0,24.375,12.18359375,1,0,0,0,43,43,20,1,,,,,,,,
,,,,,,,,,,,,,FF,,,,,,,,0.8478,,,,,,,,,,,,,,,,,,,,,,60fdca1a87839971dfef0270,610378ba8aa60ca94ea087f6,2021-07-29_22h58.53.312,Simcolourproject_2stim_asymm_v5,2020.2.10,MacIntel,60,61025ae37ef11b136ea224fe,,,,,,,,,3859,47.9296875,81.76953125,1,0,0,response1disk,,7,9.48046875,-4.98046875,1,0,0,rectangle,9.48046875,-4.98046875,1,0,0,9.48046875,-4.98046875,1,0,0,0,44,44,151,1,,,,,,,,
,,,,,,,,,,,,,FF,,,,,,,,2.1931,,,,,,,,,,,,,,,,,,,,,,60fdca1a87839971dfef0270,610378ba8aa60ca94ea087f6,2021-07-29_22h58.53.312,Simcolourproject_2stim_asymm_v5,2020.2.10,MacIntel,60,61025ae37ef11b136ea224fe,,,,,,,,,1072,75.5234375,-42.00390625,1,0,0,response3disk,,5,0.43359375,1.984375,1,0,0,rectangle,0.43359375,1.984375,1,0,0,0.43359375,1.984375,1,0,0,0,45,45,153,1,,,,,,,,
,,,,,,,,,,,,,FF,,,,,,,,1.5976,,,,,,,,,,,,,,,,,,,,,,60fdca1a87839971dfef0270,610378ba8aa60ca94ea087f6,2021-07-29_22h58.53.312,Simcolourproject_2stim_asymm_v5,2020.2.10,MacIntel,60,61025ae37ef11b136ea224fe,,,,,,,,,229,34.37890625,75.07421875,1,0,0,response1disk,,7,7.70703125,-5.82421875,1,0,0,rectangle,7.70703125,-5.82421875,1,0,0,7.70703125,-5.82421875,1,0,0,0,46,46,4,1,,,,,,,,
,,,,,,,,,,,,,FF,,,,,,,,0.6494,,,,,,,,,,,,,,,,,,,,,,60fdca1a87839971dfef0270,610378ba8aa60ca94ea087f6,2021-07-29_22h58.53.312,Simcolourproject_2stim_asymm_v5,2020.2.10,MacIntel,60,61025ae37ef11b136ea224fe,,,,,,,,,1259,25.375,64.4921875,1,0,0,response1disk,,7,14.984375,8.45703125,1,0,0,rectangle,14.984375,8.45703125,1,0,0,14.984375,8.45703125,1,0,0,0,47,47,146,1,,,,,,,,
,,,,,,,,,,,,,FF,,,,,,,,1.5131,,,,,,,,,,,,,,,,,,,,,,60fdca1a87839971dfef0270,610378ba8aa60ca94ea087f6,2021-07-29_22h58.53.312,Simcolourproject_2stim_asymm_v5,2020.2.10,MacIntel,60,61025ae37ef11b136ea224fe,,,,,,,,,3820,14.63671875,-76.140625,1,0,0,response3disk,,4,0.78125,2.44921875,1,0,0,rectangle,0.78125,2.44921875,1,0,0,0.78125,2.44921875,1,0,0,0,48,48,80,1,,,,,,,,
,,,,,,,,,,,,,FF,,,,,,,,1.3469,,,,,,,,,,,,,,,,,,,,,,60fdca1a87839971dfef0270,610378ba8aa60ca94ea087f6,2021-07-29_22h58.53.312,Simcolourproject_2stim_asymm_v5,2020.2.10,MacIntel,60,61025ae37ef11b136ea224fe,,,,,,,,,2309,31.26171875,75.15234375,1,0,0,response1disk,,7,20.5234375,-7.94140625,1,0,0,rectangle,20.5234375,-7.94140625,1,0,0,20.5234375,-7.94140625,1,0,0,0,49,49,134,1,,,,,,,,
,,,,,,,,,,,,,FF,,,,,,,,1.2655,,,,,,,,,,,,,,,,,,,,,,60fdca1a87839971dfef0270,610378ba8aa60ca94ea087f6,2021-07-29_22h58.53.312,Simcolourproject_2stim_asymm_v5,2020.2.10,MacIntel,60,61025ae37ef11b136ea224fe,,,,,,,,,3473,-32.125,86.5859375,1,0,0,response7disk,,0,-13.76953125,3.22265625,1,0,0,rectangle,-13.76953125,3.22265625,1,0,0,-13.76953125,3.22265625,1,0,0,0,50,50,107,1,,,,,,,,
,,,,,,,,,,,,,FF,,,,,,,,1.3144,,,,,,,,,,,,,,,,,,,,,,60fdca1a87839971dfef0270,610378ba8aa60ca94ea087f6,2021-07-29_22h58.53.312,Simcolourproject_2stim_asymm_v5,2020.2.10,MacIntel,60,61025ae37ef11b136ea224fe,,,,,,,,,1667,-34.859375,-83.60546875,1,0,0,response5disk,,3,1.859375,-5.3203125,1,0,0,rectangle,1.859375,-5.3203125,1,0,0,1.859375,-5.3203125,1,0,0,0,51,51,88,1,,,,,,,,
,,,,,,,,,,,,,FF,,,,,,,,1.0477,,,,,,,,,,,,,,,,,,,,,,60fdca1a87839971dfef0270,610378ba8aa60ca94ea087f6,2021-07-29_22h58.53.312,Simcolourproject_2stim_asymm_v5,2020.2.10,MacIntel,60,61025ae37ef11b136ea224fe,,,,,,,,,2186,29.5703125,-88.109375,1,0,0,response3disk,,4,0.12890625,2.26171875,1,0,0,rectangle,0.12890625,2.26171875,1,0,0,0.12890625,2.26171875,1,0,0,0,52,52,12,1,,,,,,,,
,,,,,,,,,,,,,FF,,,,,,,,2.4276,,,,,,,,,,,,,,,,,,,,,,60fdca1a87839971dfef0270,610378ba8aa60ca94ea087f6,2021-07-29_22h58.53.312,Simcolourproject_2stim_asymm_v5,2020.2.10,MacIntel,60,61025ae37ef11b136ea224fe,,,,,,,,,90,76.37109375,-29.9140625,1,0,0,response3disk,,5,-2.953125,6.8046875,1,0,0,rectangle,-2.953125,6.8046875,1,0,0,-2.953125,6.8046875,1,0,0,0,53,53,127,1,,,,,,,,
,,,,,,,,,,,,,FF,,,,,,,,1.8614,,,,,,,,,,,,,,,,,,,,,,60fdca1a87839971dfef0270,610378ba8aa60ca94ea087f6,2021-07-29_22h58.53.312,Simcolourproject_2stim_asymm_v5,2020.2.10,MacIntel,60,61025ae37ef11b136ea224fe,,,,,,,,,605,80.875,45.48046875,1,0,0,response1disk,,6,4.74609375,-9.2109375,1,0,0,rectangle,4.74609375,-9.2109375,1,0,0,4.74609375,-9.2109375,1,0,0,0,54,54,155,1,,,,,,,,
,,,,,,,,,,,,,FF,,,,,,,,0.8825,,,,,,,,,,,,,,,,,,,,,,60fdca1a87839971dfef0270,610378ba8aa60ca94ea087f6,2021-07-29_22h58.53.312,Simcolourproject_2stim_asymm_v5,2020.2.10,MacIntel,60,61025ae37ef11b136ea224fe,,,,,,,,,2980,46.31640625,92.203125,1,0,0,response1disk,,7,4.78515625,-9.2890625,1,0,0,rectangle,4.78515625,-9.2890625,1,0,0,4.78515625,-9.2890625,1,0,0,0,55,55,11,1,,,,,,,,
,,,,,,,,,,,,,FF,,,,,,,,2.0283,,,,,,,,,,,,,,,,,,,,,,60fdca1a87839971dfef0270,610378ba8aa60ca94ea087f6,2021-07-29_22h58.53.312,Simcolourproject_2stim_asymm_v5,2020.2.10,MacIntel,60,61025ae37ef11b136ea224fe,,,,,,,,,2102,-48.171875,-85.1484375,1,0,0,response5disk,,3,-14.5703125,-3.0546875,1,0,0,rectangle,-14.5703125,-3.0546875,1,0,0,-14.5703125,-3.0546875,1,0,0,0,56,56,8,1,,,,,,,,
,,,,,,,,,,,,,FF,,,,,,,,1.0305,,,,,,,,,,,,,,,,,,,,,,60fdca1a87839971dfef0270,610378ba8aa60ca94ea087f6,2021-07-29_22h58.53.312,Simcolourproject_2stim_asymm_v5,2020.2.10,MacIntel,60,61025ae37ef11b136ea224fe,,,,,,,,,2533,42.890625,-70.13671875,1,0,0,response3disk,,4,-2.44921875,7.109375,1,0,0,rectangle,-2.44921875,7.109375,1,0,0,-2.44921875,7.109375,1,0,0,0,57,57,98,1,,,,,,,,
,,,,,,,,,,,,,FF,,,,,,,,0.6819,,,,,,,,,,,,,,,,,,,,,,60fdca1a87839971dfef0270,610378ba8aa60ca94ea087f6,2021-07-29_22h58.53.312,Simcolourproject_2stim_asymm_v5,2020.2.10,MacIntel,60,61025ae37ef11b136ea224fe,,,,,,,,,4284,31.5,91.62890625,1,0,0,response1disk,,7,-0.0234375,-1.81640625,1,0,0,rectangle,-0.0234375,-1.81640625,1,0,0,-0.0234375,-1.81640625,1,0,0,0,58,58,91,1,,,,,,,,
,,,,,,,,,,,,,FF,,,,,,,,0.7315,,,,,,,,,,,,,,,,,,,,,,60fdca1a87839971dfef0270,610378ba8aa60ca94ea087f6,2021-07-29_22h58.53.312,Simcolourproject_2stim_asymm_v5,2020.2.10,MacIntel,60,61025ae37ef11b136ea224fe,,,,,,,,,2582,26.95703125,66.73046875,1,0,0,response1disk,,7,18.98828125,-1.046875,1,0,0,rectangle,18.98828125,-1.046875,1,0,0,18.98828125,-1.046875,1,0,0,0,59,59,26,1,,,,,,,,
,,,,,,,,,,,,,FF,,,,,,,,1.0469,,,,,,,,,,,,,,,,,,,,,,60fdca1a87839971dfef0270,610378ba8aa60ca94ea087f6,2021-07-29_22h58.53.312,Simcolourproject_2stim_asymm_v5,2020.2.10,MacIntel,60,61025ae37ef11b136ea224fe,,,,,,,,,2180,34.23046875,-82.796875,1,0,0,response3disk,,4,12.75390625,-9.4375,1,0,0,rectangle,12.75390625,-9.4375,1,0,0,12.75390625,-9.4375,1,0,0,0,60,60,128,1,,,,,,,,
,,,,,,,,,,,,,FF,,,,,,,,1.7452,,,,,,,,,,,,,,,,,,,,,,60fdca1a87839971dfef0270,610378ba8aa60ca94ea087f6,2021-07-29_22h58.53.312,Simcolourproject_2stim_asymm_v5,2020.2.10,MacIntel,60,61025ae37ef11b136ea224fe,,,,,,,,,2993,-33.703125,94.78515625,1,0,0,response7disk,,0,10.25,-0.66015625,1,0,0,rectangle,10.25,-0.66015625,1,0,0,10.25,-0.66015625,1,0,0,0,61,61,97,1,,,,,,,,
,,,,,,,,,,,,,FF,,,,,,,,0.8646,,,,,,,,,,,,,,,,,,,,,,60fdca1a87839971dfef0270,610378ba8aa60ca94ea087f6,2021-07-29_22h58.53.312,Simcolourproject_2stim_asymm_v5,2020.2.10,MacIntel,60,61025ae37ef11b136ea224fe,,,,,,,,,3894,-29.5859375,-98.99609375,1,0,0,response5disk,,3,3.32421875,3.49609375,1,0,0,rectangle,29.6484375,100.140625,1,0,0,0.20703125,-4.0078125,1,0,0,0,62,62,140,1,,response1disk_3,TRUE,7,7,"[63,243,112,271,10,37,273,179,242,90,11,30,192,119,38,91,192,35,205,86]",1.4625,rectangle
,,,,,,,,,,,,,FF,,,,,,,,1.0298,,,,,,,,,,,,,,,,,,,,,,60fdca1a87839971dfef0270,610378ba8aa60ca94ea087f6,2021-07-29_22h58.53.312,Simcolourproject_2stim_asymm_v5,2020.2.10,MacIntel,60,61025ae37ef11b136ea224fe,,,,,,,,,2799,47.66015625,-58.3515625,1,0,0,response3disk,,4,8.51953125,-4.77734375,1,0,0,rectangle,8.51953125,-4.77734375,1,0,0,8.51953125,-4.77734375,1,0,0,0,63,63,121,1,,,,,,,,
,,,,,,,,,,,,,FF,,,,,,,,1.7129,,,,,,,,,,,,,,,,,,,,,,60fdca1a87839971dfef0270,610378ba8aa60ca94ea087f6,2021-07-29_22h58.53.312,Simcolourproject_2stim_asymm_v5,2020.2.10,MacIntel,60,61025ae37ef11b136ea224fe,,,,,,,,,1482,89.921875,-59.81640625,1,0,0,response3disk,,5,-8.76171875,-6.125,1,0,0,rectangle,-8.76171875,-6.125,1,0,0,-8.76171875,-6.125,1,0,0,0,64,64,148,1,,,,,,,,
,,,,,,,,,,,,,FF,,,,,,,,2.3935,,,,,,,,,,,,,,,,,,,,,,60fdca1a87839971dfef0270,610378ba8aa60ca94ea087f6,2021-07-29_22h58.53.312,Simcolourproject_2stim_asymm_v5,2020.2.10,MacIntel,60,61025ae37ef11b136ea224fe,,,,,,,,,4338,-53.21875,-66.12890625,1,0,0,response5disk,,3,7.36328125,4.8828125,1,0,0,rectangle,7.36328125,4.8828125,1,0,0,7.36328125,4.8828125,1,0,0,0,65,65,2,1,,,,,,,,
,,,,,,,,,,,,,FF,,,,,,,,1.2635,,,,,,,,,,,,,,,,,,,,,,60fdca1a87839971dfef0270,610378ba8aa60ca94ea087f6,2021-07-29_22h58.53.312,Simcolourproject_2stim_asymm_v5,2020.2.10,MacIntel,60,61025ae37ef11b136ea224fe,,,,,,,,,731,26.4140625,-83.33203125,1,0,0,response3disk,,4,10.171875,3.8046875,1,0,0,rectangle,10.171875,3.8046875,1,0,0,10.171875,3.8046875,1,0,0,0,66,66,147,1,,,,,,,,
,,,,,,,,,,,,,FF,,,,,,,,0.8799,,,,,,,,,,,,,,,,,,,,,,60fdca1a87839971dfef0270,610378ba8aa60ca94ea087f6,2021-07-29_22h58.53.312,Simcolourproject_2stim_asymm_v5,2020.2.10,MacIntel,60,61025ae37ef11b136ea224fe,,,,,,,,,1152,37.15234375,-85.52734375,1,0,0,response3disk,,4,2.16796875,-10.3984375,1,0,0,rectangle,2.16796875,-10.3984375,1,0,0,2.16796875,-10.3984375,1,0,0,0,67,67,79,1,,,,,,,,
,,,,,,,,,,,,,FF,,,,,,,,1.9775,,,,,,,,,,,,,,,,,,,,,,60fdca1a87839971dfef0270,610378ba8aa60ca94ea087f6,2021-07-29_22h58.53.312,Simcolourproject_2stim_asymm_v5,2020.2.10,MacIntel,60,61025ae37ef11b136ea224fe,,,,,,,,,2767,-40.78515625,-86.953125,1,0,0,response5disk,,3,-17.30859375,1.9921875,1,0,0,rectangle,-17.30859375,1.9921875,1,0,0,-17.30859375,1.9921875,1,0,0,0,68,68,59,1,,,,,,,,
,,,,,,,,,,,,,FF,,,,,,,,1.0474,,,,,,,,,,,,,,,,,,,,,,60fdca1a87839971dfef0270,610378ba8aa60ca94ea087f6,2021-07-29_22h58.53.312,Simcolourproject_2stim_asymm_v5,2020.2.10,MacIntel,60,61025ae37ef11b136ea224fe,,,,,,,,,2352,-31.8984375,-71.7890625,1,0,0,response5disk,,3,-15.30859375,1.02734375,1,0,0,rectangle,-15.30859375,1.02734375,1,0,0,-15.30859375,1.02734375,1,0,0,0,69,69,149,1,,,,,,,,
,,,,,,,,,,,,,FF,,,,,,,,1.3145,,,,,,,,,,,,,,,,,,,,,,60fdca1a87839971dfef0270,610378ba8aa60ca94ea087f6,2021-07-29_22h58.53.312,Simcolourproject_2stim_asymm_v5,2020.2.10,MacIntel,60,61025ae37ef11b136ea224fe,,,,,,,,,3041,89.9921875,-41.5390625,1,0,0,response3disk,,5,4.43359375,1.7578125,1,0,0,rectangle,4.43359375,1.7578125,1,0,0,4.43359375,1.7578125,1,0,0,0,70,70,137,1,,,,,,,,
,,,,,,,,,,,,,FF,,,,,,,,1.3624,,,,,,,,,,,,,,,,,,,,,,60fdca1a87839971dfef0270,610378ba8aa60ca94ea087f6,2021-07-29_22h58.53.312,Simcolourproject_2stim_asymm_v5,2020.2.10,MacIntel,60,61025ae37ef11b136ea224fe,,,,,,,,,2957,72.94140625,45.05859375,1,0,0,response1disk,,6,10.0234375,-7.94140625,1,0,0,rectangle,10.0234375,-7.94140625,1,0,0,10.0234375,-7.94140625,1,0,0,0,71,71,43,1,,,,,,,,
,,,,,,,,,,,,,FF,,,,,,,,0.6809,,,,,,,,,,,,,,,,,,,,,,60fdca1a87839971dfef0270,610378ba8aa60ca94ea087f6,2021-07-29_22h58.53.312,Simcolourproject_2stim_asymm_v5,2020.2.10,MacIntel,60,61025ae37ef11b136ea224fe,,,,,,,,,1984,77.14453125,48.8671875,1,0,0,response1disk,,6,7.71484375,-2.01171875,1,0,0,rectangle,7.71484375,-2.01171875,1,0,0,7.71484375,-2.01171875,1,0,0,0,72,72,110,1,,,,,,,,
,,,,,,,,,,,,,FF,,,,,,,,1.5308,,,,,,,,,,,,,,,,,,,,,,60fdca1a87839971dfef0270,610378ba8aa60ca94ea087f6,2021-07-29_22h58.53.312,Simcolourproject_2stim_asymm_v5,2020.2.10,MacIntel,60,61025ae37ef11b136ea224fe,,,,,,,,,633,-46.44140625,-78.64453125,1,0,0,response5disk,,3,10.71484375,-1.01171875,1,0,0,rectangle,10.71484375,-1.01171875,1,0,0,10.71484375,-1.01171875,1,0,0,0,73,73,13,1,,,,,,,,
,,,,,,,,,,,,,FF,,,,,,,,0.8647,,,,,,,,,,,,,,,,,,,,,,60fdca1a87839971dfef0270,610378ba8aa60ca94ea087f6,2021-07-29_22h58.53.312,Simcolourproject_2stim_asymm_v5,2020.2.10,MacIntel,60,61025ae37ef11b136ea224fe,,,,,,,,,2433,38.7734375,-72.9453125,1,0,0,response3disk,,4,2.0546875,7.37890625,1,0,0,rectangle,2.0546875,7.37890625,1,0,0,2.0546875,7.37890625,1,0,0,0,74,74,45,1,,,,,,,,
,,,,,,,,,,,,,FF,,,,,,,,1.945,,,,,,,,,,,,,,,,,,,,,,60fdca1a87839971dfef0270,610378ba8aa60ca94ea087f6,2021-07-29_22h58.53.312,Simcolourproject_2stim_asymm_v5,2020.2.10,MacIntel,60,61025ae37ef11b136ea224fe,,,,,,,,,2809,77.14453125,28.85546875,1,0,0,response1disk,,6,-10.03125,3.22265625,1,0,0,rectangle,-10.03125,3.22265625,1,0,0,-10.03125,3.22265625,1,0,0,0,75,75,56,1,,,,,,,,
,,,,,,,,,,,,,FF,,,,,,,,0.8135,,,,,,,,,,,,,,,,,,,,,,60fdca1a87839971dfef0270,610378ba8aa60ca94ea087f6,2021-07-29_22h58.53.312,Simcolourproject_2stim_asymm_v5,2020.2.10,MacIntel,60,61025ae37ef11b136ea224fe,,,,,,,,,54,31.5390625,59.68359375,1,0,0,response1disk,,7,1.44140625,-11.98046875,1,0,0,rectangle,1.44140625,-11.98046875,1,0,0,1.44140625,-11.98046875,1,0,0,0,76,76,119,1,,,,,,,,
,,,,,,,,,,,,,FF,,,,,,,,0.9812,,,,,,,,,,,,,,,,,,,,,,60fdca1a87839971dfef0270,610378ba8aa60ca94ea087f6,2021-07-29_22h58.53.312,Simcolourproject_2stim_asymm_v5,2020.2.10,MacIntel,60,61025ae37ef11b136ea224fe,,,,,,,,,372,87,-43.15625,1,0,0,response3disk,,5,-6.0625,4.26171875,1,0,0,rectangle,-6.0625,4.26171875,1,0,0,-6.0625,4.26171875,1,0,0,0,77,77,111,1,,,,,,,,
,,,,,,,,,,,,,FF,,,,,,,,1.6303,,,,,,,,,,,,,,,,,,,,,,60fdca1a87839971dfef0270,610378ba8aa60ca94ea087f6,2021-07-29_22h58.53.312,Simcolourproject_2stim_asymm_v5,2020.2.10,MacIntel,60,61025ae37ef11b136ea224fe,,,,,,,,,3236,-40.35546875,-61.859375,1,0,0,response5disk,,3,5.71484375,3.9140625,1,0,0,rectangle,5.71484375,3.9140625,1,0,0,5.71484375,3.9140625,1,0,0,0,78,78,73,1,,,,,,,,
,,,,,,,,,,,,,FF,,,,,,,,1.2467,,,,,,,,,,,,,,,,,,,,,,60fdca1a87839971dfef0270,610378ba8aa60ca94ea087f6,2021-07-29_22h58.53.312,Simcolourproject_2stim_asymm_v5,2020.2.10,MacIntel,60,61025ae37ef11b136ea224fe,,,,,,,,,437,-88.15625,-42.421875,1,0,0,response5disk,,2,-0.984375,0.48828125,1,0,0,rectangle,-0.984375,0.48828125,1,0,0,-0.984375,0.48828125,1,0,0,0,79,79,16,1,,,,,,,,
,,,,,,,,,,,,,FF,,,,,,,,1.3803,,,,,,,,,,,,,,,,,,,,,,60fdca1a87839971dfef0270,610378ba8aa60ca94ea087f6,2021-07-29_22h58.53.312,Simcolourproject_2stim_asymm_v5,2020.2.10,MacIntel,60,61025ae37ef11b136ea224fe,,,,,,,,,2191,58.25,72.5390625,1,0,0,response1disk,,7,8.0234375,1.53125,1,0,0,rectangle,8.0234375,1.53125,1,0,0,8.0234375,1.53125,1,0,0,0,80,80,150,1,,,,,,,,
,,,,,,,,,,,,,FF,,,,,,,,0.8816,,,,,,,,,,,,,,,,,,,,,,60fdca1a87839971dfef0270,610378ba8aa60ca94ea087f6,2021-07-29_22h58.53.312,Simcolourproject_2stim_asymm_v5,2020.2.10,MacIntel,60,61025ae37ef11b136ea224fe,,,,,,,,,1051,-27.65625,68.3828125,1,0,0,response7disk,,0,-0.29296875,-5.01171875,1,0,0,rectangle,-0.29296875,-5.01171875,1,0,0,-0.29296875,-5.01171875,1,0,0,0,81,81,122,1,,,,,,,,
,,,,,,,,,,,,,FF,,,,,,,,1.3622,,,,,,,,,,,,,,,,,,,,,,60fdca1a87839971dfef0270,610378ba8aa60ca94ea087f6,2021-07-29_22h58.53.312,Simcolourproject_2stim_asymm_v5,2020.2.10,MacIntel,60,61025ae37ef11b136ea224fe,,,,,,,,,4336,-81.30859375,39.671875,1,0,0,response7disk,,1,8.984375,-4.359375,1,0,0,rectangle,8.984375,-4.359375,1,0,0,8.984375,-4.359375,1,0,0,0,82,82,18,1,,,,,,,,
,,,,,,,,,,,,,FF,,,,,,,,1.229,,,,,,,,,,,,,,,,,,,,,,60fdca1a87839971dfef0270,610378ba8aa60ca94ea087f6,2021-07-29_22h58.53.312,Simcolourproject_2stim_asymm_v5,2020.2.10,MacIntel,60,61025ae37ef11b136ea224fe,,,,,,,,,1031,88.9609375,22.62109375,1,0,0,response1disk,,6,6.171875,-14.4453125,1,0,0,rectangle,6.171875,-14.4453125,1,0,0,6.171875,-14.4453125,1,0,0,0,83,83,136,1,,,,,,,,
,,,,,,,,,,,,,FF,,,,,,,,0.7652,,,,,,,,,,,,,,,,,,,,,,60fdca1a87839971dfef0270,610378ba8aa60ca94ea087f6,2021-07-29_22h58.53.312,Simcolourproject_2stim_asymm_v5,2020.2.10,MacIntel,60,61025ae37ef11b136ea224fe,,,,,,,,,867,49.47265625,71.34375,1,0,0,response1disk,,7,3.09375,8.45703125,1,0,0,rectangle,3.09375,8.45703125,1,0,0,3.09375,8.45703125,1,0,0,0,84,84,154,1,,,,,,,,
,,,,,,,,,,,,,FF,,,,,,,,1.547,,,,,,,,,,,,,,,,,,,,,,60fdca1a87839971dfef0270,610378ba8aa60ca94ea087f6,2021-07-29_22h58.53.312,Simcolourproject_2stim_asymm_v5,2020.2.10,MacIntel,60,61025ae37ef11b136ea224fe,,,,,,,,,2404,39.078125,70.421875,1,0,0,response1disk,,7,3.74609375,8.0703125,1,0,0,rectangle,-49.25,-98.26953125,1,0,0,14.484375,-5.82421875,1,0,0,0,85,85,23,1,,response5disk_3,TRUE,3,3,"[63,243,112,271,10,37,273,179,242,90,11,30,192,119,38,91,192,35,205,86]",1.6456,rectangle
,,,,,,,,,,,,,FF,,,,,,,,1.5799,,,,,,,,,,,,,,,,,,,,,,60fdca1a87839971dfef0270,610378ba8aa60ca94ea087f6,2021-07-29_22h58.53.312,Simcolourproject_2stim_asymm_v5,2020.2.10,MacIntel,60,61025ae37ef11b136ea224fe,,,,,,,,,3383,-37.47265625,68.87890625,1,0,0,response7disk,,0,-18.421875,1.44921875,1,0,0,rectangle,-18.421875,1.44921875,1,0,0,-18.421875,1.44921875,1,0,0,0,86,86,3,1,,,,,,,,
,,,,,,,,,,,,,FF,,,,,,,,0.9641,,,,,,,,,,,,,,,,,,,,,,60fdca1a87839971dfef0270,610378ba8aa60ca94ea087f6,2021-07-29_22h58.53.312,Simcolourproject_2stim_asymm_v5,2020.2.10,MacIntel,60,61025ae37ef11b136ea224fe,,,,,,,,,2906,-38.1640625,-71.51953125,1,0,0,response5disk,,3,-5.60546875,1.9140625,1,0,0,rectangle,-5.60546875,1.9140625,1,0,0,-5.60546875,1.9140625,1,0,0,0,87,87,21,1,,,,,,,,
,,,,,,,,,,,,,FF,,,,,,,,1.2797,,,,,,,,,,,,,,,,,,,,,,60fdca1a87839971dfef0270,610378ba8aa60ca94ea087f6,2021-07-29_22h58.53.312,Simcolourproject_2stim_asymm_v5,2020.2.10,MacIntel,60,61025ae37ef11b136ea224fe,,,,,,,,,2926,82.37890625,-42.65234375,1,0,0,response3disk,,5,5.59765625,1.30078125,1,0,0,rectangle,5.59765625,1.30078125,1,0,0,5.59765625,1.30078125,1,0,0,0,88,88,61,1,,,,,,,,
,,,,,,,,,,,,,FF,,,,,,,,1.2296,,,,,,,,,,,,,,,,,,,,,,60fdca1a87839971dfef0270,610378ba8aa60ca94ea087f6,2021-07-29_22h58.53.312,Simcolourproject_2stim_asymm_v5,2020.2.10,MacIntel,60,61025ae37ef11b136ea224fe,,,,,,,,,532,-86.42578125,19.77734375,1,0,0,response7disk,,1,-9.60546875,0.03125,1,0,0,rectangle,-99.3203125,-47.078125,1,0,0,-1.2578125,-3.55078125,1,0,0,0,89,89,76,1,,response5disk_3,TRUE,2,2,"[63,243,112,271,10,37,273,179,242,90,11,30,192,119,38,91,192,35,205,86]",1.6138,rectangle
,,,,,,,,,,,,,FF,,,,,,,,1.6139,,,,,,,,,,,,,,,,,,,,,,60fdca1a87839971dfef0270,610378ba8aa60ca94ea087f6,2021-07-29_22h58.53.312,Simcolourproject_2stim_asymm_v5,2020.2.10,MacIntel,60,61025ae37ef11b136ea224fe,,,,,,,,,2742,90.8046875,-41,1,0,0,response3disk,,5,2.58984375,-8.82421875,1,0,0,rectangle,94.0390625,-44.5,1,0,0,7.2109375,-2.2421875,1,0,0,0,90,90,52,1,,response3disk_3,TRUE,5,5,"[63,243,112,271,10,37,273,179,242,90,11,30,192,119,38,91,192,35,205,86]",2.3424,rectangle
,,,,,,,,,,,,,FF,,,,,,,,0.8486,,,,,,,,,,,,,,,,,,,,,,60fdca1a87839971dfef0270,610378ba8aa60ca94ea087f6,2021-07-29_22h58.53.312,Simcolourproject_2stim_asymm_v5,2020.2.10,MacIntel,60,61025ae37ef11b136ea224fe,,,,,,,,,3220,40.078125,81.16015625,1,0,0,response1disk,,7,-4.21875,-10.20703125,1,0,0,rectangle,-4.21875,-10.20703125,1,0,0,-4.21875,-10.20703125,1,0,0,0,91,91,78,1,,,,,,,,
,,,,,,,,,,,,,FF,,,,,,,,1.3816,,,,,,,,,,,,,,,,,,,,,,60fdca1a87839971dfef0270,610378ba8aa60ca94ea087f6,2021-07-29_22h58.53.312,Simcolourproject_2stim_asymm_v5,2020.2.10,MacIntel,60,61025ae37ef11b136ea224fe,,,,,,,,,3199,-73.8046875,-43.1171875,1,0,0,response5disk,,2,15.5234375,12.265625,1,0,0,rectangle,15.5234375,12.265625,1,0,0,15.5234375,12.265625,1,0,0,0,92,92,86,1,,,,,,,,
,,,,,,,,,,,,,FF,,,,,,,,0.9476,,,,,,,,,,,,,,,,,,,,,,60fdca1a87839971dfef0270,610378ba8aa60ca94ea087f6,2021-07-29_22h58.53.312,Simcolourproject_2stim_asymm_v5,2020.2.10,MacIntel,60,61025ae37ef11b136ea224fe,,,,,,,,,211,35.26953125,96.09375,1,0,0,response1disk,,7,1.66796875,-4.28125,1,0,0,rectangle,1.66796875,-4.28125,1,0,0,1.66796875,-4.28125,1,0,0,0,93,93,22,1,,,,,,,,
,,,,,,,,,,,,,FF,,,,,,,,1.7281,,,,,,,,,,,,,,,,,,,,,,60fdca1a87839971dfef0270,610378ba8aa60ca94ea087f6,2021-07-29_22h58.53.312,Simcolourproject_2stim_asymm_v5,2020.2.10,MacIntel,60,61025ae37ef11b136ea224fe,,,,,,,,,1750,-67.95703125,23.46875,1,0,0,response7disk,,1,-9.4140625,4.765625,1,0,0,rectangle,-9.4140625,4.765625,1,0,0,-9.4140625,4.765625,1,0,0,0,94,94,57,1,,,,,,,,
,,,,,,,,,,,,,FF,,,,,,,,1.2469,,,,,,,,,,,,,,,,,,,,,,60fdca1a87839971dfef0270,610378ba8aa60ca94ea087f6,2021-07-29_22h58.53.312,Simcolourproject_2stim_asymm_v5,2020.2.10,MacIntel,60,61025ae37ef11b136ea224fe,,,,,,,,,1360,-47.51953125,-72.32421875,1,0,0,response5disk,,3,12.75390625,-3.125,1,0,0,rectangle,12.75390625,-3.125,1,0,0,12.75390625,-3.125,1,0,0,0,95,95,74,1,,,,,,,,
,,,,,,,,,,,,,FF,,,,,,,,1.2304,,,,,,,,,,,,,,,,,,,,,,60fdca1a87839971dfef0270,610378ba8aa60ca94ea087f6,2021-07-29_22h58.53.312,Simcolourproject_2stim_asymm_v5,2020.2.10,MacIntel,60,61025ae37ef11b136ea224fe,,,,,,,,,972,26.95703125,-65.3984375,1,0,0,response3disk,,4,7.55859375,1.765625,1,0,0,rectangle,7.55859375,1.765625,1,0,0,7.55859375,1.765625,1,0,0,0,96,96,41,1,,,,,,,,
,,,,,,,,,,,,,FF,,,,,,,,1.0139,,,,,,,,,,,,,,,,,,,,,,60fdca1a87839971dfef0270,610378ba8aa60ca94ea087f6,2021-07-29_22h58.53.312,Simcolourproject_2stim_asymm_v5,2020.2.10,MacIntel,60,61025ae37ef11b136ea224fe,,,,,,,,,286,56.74609375,36.40234375,1,0,0,response1disk,,6,-14.2265625,4.265625,1,0,0,rectangle,-14.2265625,4.265625,1,0,0,-14.2265625,4.265625,1,0,0,0,97,97,158,1,,,,,,,,
,,,,,,,,,,,,,FF,,,,,,,,1.3301,,,,,,,,,,,,,,,,,,,,,,60fdca1a87839971dfef0270,610378ba8aa60ca94ea087f6,2021-07-29_22h58.53.312,Simcolourproject_2stim_asymm_v5,2020.2.10,MacIntel,60,61025ae37ef11b136ea224fe,,,,,,,,,1826,-64.18359375,-26.90625,1,0,0,response5disk,,2,2.62890625,-6.73828125,1,0,0,rectangle,2.62890625,-6.73828125,1,0,0,2.62890625,-6.73828125,1,0,0,0,98,98,129,1,,,,,,,,
,,,,,,,,,,,,,FF,,,,,,,,0.7803,,,,,,,,,,,,,,,,,,,,,,60fdca1a87839971dfef0270,610378ba8aa60ca94ea087f6,2021-07-29_22h58.53.312,Simcolourproject_2stim_asymm_v5,2020.2.10,MacIntel,60,61025ae37ef11b136ea224fe,,,,,,,,,2138,25.10546875,70.390625,1,0,0,response1disk,,7,-5.68359375,4.34375,1,0,0,rectangle,-5.68359375,4.34375,1,0,0,-5.68359375,4.34375,1,0,0,0,99,99,50,1,,,,,,,,
,,,,,,,,,,,,,FF,,,,,,,,0.9801,,,,,,,,,,,,,,,,,,,,,,60fdca1a87839971dfef0270,610378ba8aa60ca94ea087f6,2021-07-29_22h58.53.312,Simcolourproject_2stim_asymm_v5,2020.2.10,MacIntel,60,61025ae37ef11b136ea224fe,,,,,,,,,3841,84.37890625,33.7109375,1,0,0,response1disk,,6,12.1796875,-5.390625,1,0,0,rectangle,12.1796875,-5.390625,1,0,0,12.1796875,-5.390625,1,0,0,0,100,100,106,1,,,,,,,,
,,,,,,,,,,,,,FF,,,,,,,,0.7304,,,,,,,,,,,,,,,,,,,,,,60fdca1a87839971dfef0270,610378ba8aa60ca94ea087f6,2021-07-29_22h58.53.312,Simcolourproject_2stim_asymm_v5,2020.2.10,MacIntel,60,61025ae37ef11b136ea224fe,,,,,,,,,380,76.18359375,31.32421875,1,0,0,response1disk,,6,8.75390625,-5.390625,1,0,0,rectangle,8.75390625,-5.390625,1,0,0,8.75390625,-5.390625,1,0,0,0,101,101,7,1,,,,,,,,
,,,,,,,,,,,,,FF,,,,,,,,1.2633,,,,,,,,,,,,,,,,,,,,,,60fdca1a87839971dfef0270,610378ba8aa60ca94ea087f6,2021-07-29_22h58.53.312,Simcolourproject_2stim_asymm_v5,2020.2.10,MacIntel,60,61025ae37ef11b136ea224fe,,,,,,,,,1846,81.765625,-29.33203125,1,0,0,response3disk,,5,4.59765625,-10.28125,1,0,0,rectangle,4.59765625,-10.28125,1,0,0,4.59765625,-10.28125,1,0,0,0,102,102,9,1,,,,,,,,
,,,,,,,,,,,,,FF,,,,,,,,0.8808,,,,,,,,,,,,,,,,,,,,,,60fdca1a87839971dfef0270,610378ba8aa60ca94ea087f6,2021-07-29_22h58.53.312,Simcolourproject_2stim_asymm_v5,2020.2.10,MacIntel,60,61025ae37ef11b136ea224fe,,,,,,,,,1341,57.59375,97.79296875,1,0,0,response1disk,,7,-0.8671875,-7.765625,1,0,0,rectangle,-0.8671875,-7.765625,1,0,0,-0.8671875,-7.765625,1,0,0,0,103,103,100,1,,,,,,,,
,,,,,,,,,,,,,FF,,,,,,,,0.5987,,,,,,,,,,,,,,,,,,,,,,60fdca1a87839971dfef0270,610378ba8aa60ca94ea087f6,2021-07-29_22h58.53.312,Simcolourproject_2stim_asymm_v5,2020.2.10,MacIntel,60,61025ae37ef11b136ea224fe,,,,,,,,,2001,54.90234375,98.4609375,1,0,0,response1disk,,7,6.75390625,-6.49609375,1,0,0,rectangle,6.75390625,-6.49609375,1,0,0,6.75390625,-6.49609375,1,0,0,0,104,104,39,1,,,,,,,,
,,,,,,,,,,,,,FF,,,,,,,,2.976,,,,,,,,,,,,,,,,,,,,,,60fdca1a87839971dfef0270,610378ba8aa60ca94ea087f6,2021-07-29_22h58.53.312,Simcolourproject_2stim_asymm_v5,2020.2.10,MacIntel,60,61025ae37ef11b136ea224fe,,,,,,,,,2695,40.69921875,85.21875,1,0,0,response1disk,,7,4.6484375,1.5078125,1,0,0,rectangle,4.6484375,1.5078125,1,0,0,4.6484375,1.5078125,1,0,0,0,105,105,118,1,,,,,,,,
,,,,,,,,,,,,,FF,,,,,,,,0.698,,,,,,,,,,,,,,,,,,,,,,60fdca1a87839971dfef0270,610378ba8aa60ca94ea087f6,2021-07-29_22h58.53.312,Simcolourproject_2stim_asymm_v5,2020.2.10,MacIntel,60,61025ae37ef11b136ea224fe,,,,,,,,,2146,34.01171875,79.98046875,1,0,0,response1disk,,7,-7.20703125,7.27734375,1,0,0,rectangle,-7.20703125,7.27734375,1,0,0,-7.20703125,7.27734375,1,0,0,0,106,106,115,1,,,,,,,,
,,,,,,,,,,,,,FF,,,,,,,,1.3477,,,,,,,,,,,,,,,,,,,,,,60fdca1a87839971dfef0270,610378ba8aa60ca94ea087f6,2021-07-29_22h58.53.312,Simcolourproject_2stim_asymm_v5,2020.2.10,MacIntel,60,61025ae37ef11b136ea224fe,,,,,,,,,2157,-25.64453125,-84.94140625,1,0,0,response5disk,,3,10.37890625,0.578125,1,0,0,rectangle,10.37890625,0.578125,1,0,0,10.37890625,0.578125,1,0,0,0,107,107,99,1,,,,,,,,
,,,,,,,,,,,,,FF,,,,,,,,0.9311,,,,,,,,,,,,,,,,,,,,,,60fdca1a87839971dfef0270,610378ba8aa60ca94ea087f6,2021-07-29_22h58.53.312,Simcolourproject_2stim_asymm_v5,2020.2.10,MacIntel,60,61025ae37ef11b136ea224fe,,,,,,,,,1599,-50.16015625,-78.62890625,1,0,0,response5disk,,3,7.99609375,0.6171875,1,0,0,rectangle,7.99609375,0.6171875,1,0,0,7.99609375,0.6171875,1,0,0,0,108,108,144,1,,,,,,,,
,,,,,,,,,,,,,FF,,,,,,,,0.931,,,,,,,,,,,,,,,,,,,,,,60fdca1a87839971dfef0270,610378ba8aa60ca94ea087f6,2021-07-29_22h58.53.312,Simcolourproject_2stim_asymm_v5,2020.2.10,MacIntel,60,61025ae37ef11b136ea224fe,,,,,,,,,3682,73.3046875,-37.484375,1,0,0,response3disk,,5,2.3359375,-8.08203125,1,0,0,rectangle,2.3359375,-8.08203125,1,0,0,2.3359375,-8.08203125,1,0,0,0,109,109,31,1,,,,,,,,
,,,,,,,,,,,,,FF,,,,,,,,0.7807,,,,,,,,,,,,,,,,,,,,,,60fdca1a87839971dfef0270,610378ba8aa60ca94ea087f6,2021-07-29_22h58.53.312,Simcolourproject_2stim_asymm_v5,2020.2.10,MacIntel,60,61025ae37ef11b136ea224fe,,,,,,,,,3120,51.8671875,78.09375,1,0,0,response1disk,,7,14.49609375,1.65625,1,0,0,rectangle,14.49609375,1.65625,1,0,0,14.49609375,1.65625,1,0,0,0,110,110,126,1,,,,,,,,
,,,,,,,,,,,,,FF,,,,,,,,0.7304,,,,,,,,,,,,,,,,,,,,,,60fdca1a87839971dfef0270,610378ba8aa60ca94ea087f6,2021-07-29_22h58.53.312,Simcolourproject_2stim_asymm_v5,2020.2.10,MacIntel,60,61025ae37ef11b136ea224fe,,,,,,,,,93,-46.08203125,79.25,1,0,0,response7disk,,0,-16.71484375,10.16796875,1,0,0,rectangle,33.0859375,68.70703125,1,0,0,0.21875,0.31640625,1,0,0,0,111,111,65,1,,response1disk_3,TRUE,7,7,"[63,243,112,271,10,37,273,179,242,90,11,30,192,119,38,91,192,35,205,86]",1.2961,rectangle
,,,,,,,,,,,,,FF,,,,,,,,1.5127,,,,,,,,,,,,,,,,,,,,,,60fdca1a87839971dfef0270,610378ba8aa60ca94ea087f6,2021-07-29_22h58.53.312,Simcolourproject_2stim_asymm_v5,2020.2.10,MacIntel,60,61025ae37ef11b136ea224fe,,,,,,,,,1977,74.57421875,-34.94140625,1,0,0,response3disk,,5,-1.6328125,-3.421875,1,0,0,rectangle,-1.6328125,-3.421875,1,0,0,-1.6328125,-3.421875,1,0,0,0,112,112,123,1,,,,,,,,
,,,,,,,,,,,,,FF,,,,,,,,0.8481,,,,,,,,,,,,,,,,,,,,,,60fdca1a87839971dfef0270,610378ba8aa60ca94ea087f6,2021-07-29_22h58.53.312,Simcolourproject_2stim_asymm_v5,2020.2.10,MacIntel,60,61025ae37ef11b136ea224fe,,,,,,,,,2719,-40.08203125,82.09765625,1,0,0,response7disk,,0,-18.64453125,12.36328125,1,0,0,rectangle,-18.64453125,12.36328125,1,0,0,-18.64453125,12.36328125,1,0,0,0,113,113,60,1,,,,,,,,
,,,,,,,,,,,,,FF,,,,,,,,1.1638,,,,,,,,,,,,,,,,,,,,,,60fdca1a87839971dfef0270,610378ba8aa60ca94ea087f6,2021-07-29_22h58.53.312,Simcolourproject_2stim_asymm_v5,2020.2.10,MacIntel,60,61025ae37ef11b136ea224fe,,,,,,,,,3994,-71.98828125,36.765625,1,0,0,response7disk,,1,7.5625,-2.2578125,1,0,0,rectangle,7.5625,-2.2578125,1,0,0,7.5625,-2.2578125,1,0,0,0,114,114,90,1,,,,,,,,
,,,,,,,,,,,,,FF,,,,,,,,2.3769,,,,,,,,,,,,,,,,,,,,,,60fdca1a87839971dfef0270,610378ba8aa60ca94ea087f6,2021-07-29_22h58.53.312,Simcolourproject_2stim_asymm_v5,2020.2.10,MacIntel,60,61025ae37ef11b136ea224fe,,,,,,,,,1079,50.515625,-91.28125,1,0,0,response3disk,,4,6.91015625,-4.76171875,1,0,0,rectangle,6.91015625,-4.76171875,1,0,0,6.91015625,-4.76171875,1,0,0,0,115,115,125,1,,,,,,,,
,,,,,,,,,,,,,FF,,,,,,,,1.1305,,,,,,,,,,,,,,,,,,,,,,60fdca1a87839971dfef0270,610378ba8aa60ca94ea087f6,2021-07-29_22h58.53.312,Simcolourproject_2stim_asymm_v5,2020.2.10,MacIntel,60,61025ae37ef11b136ea224fe,,,,,,,,,3924,-38.8125,-88.2421875,1,0,0,response5disk,,3,5.1796875,-6.4921875,1,0,0,rectangle,5.1796875,-6.4921875,1,0,0,5.1796875,-6.4921875,1,0,0,0,116,116,34,1,,,,,,,,
,,,,,,,,,,,,,FF,,,,,,,,1.4969,,,,,,,,,,,,,,,,,,,,,,60fdca1a87839971dfef0270,610378ba8aa60ca94ea087f6,2021-07-29_22h58.53.312,Simcolourproject_2stim_asymm_v5,2020.2.10,MacIntel,60,61025ae37ef11b136ea224fe,,,,,,,,,1890,-50.28515625,-82.62109375,1,0,0,response5disk,,3,-2.21484375,-2.3359375,1,0,0,rectangle,-2.21484375,-2.3359375,1,0,0,-2.21484375,-2.3359375,1,0,0,0,117,117,116,1,,,,,,,,
,,,,,,,,,,,,,FF,,,,,,,,0.8314,,,,,,,,,,,,,,,,,,,,,,60fdca1a87839971dfef0270,610378ba8aa60ca94ea087f6,2021-07-29_22h58.53.312,Simcolourproject_2stim_asymm_v5,2020.2.10,MacIntel,60,61025ae37ef11b136ea224fe,,,,,,,,,3182,31.9609375,56.69921875,1,0,0,response1disk,,7,3.90234375,-13.96484375,1,0,0,rectangle,-17.57421875,96.45703125,1,0,0,-0.9453125,-3.87890625,1,0,0,0,118,118,142,1,,response7disk_3,TRUE,0,0,"[63,243,112,271,10,37,273,179,242,90,11,30,192,119,38,91,192,35,205,86]",1.2964,rectangle
,,,,,,,,,,,,,FF,,,,,,,,1.7955,,,,,,,,,,,,,,,,,,,,,,60fdca1a87839971dfef0270,610378ba8aa60ca94ea087f6,2021-07-29_22h58.53.312,Simcolourproject_2stim_asymm_v5,2020.2.10,MacIntel,60,61025ae37ef11b136ea224fe,,,,,,,,,1238,35.46484375,-64.11328125,1,0,0,response3disk,,4,3.2890625,4.0078125,1,0,0,rectangle,3.2890625,4.0078125,1,0,0,3.2890625,4.0078125,1,0,0,0,119,119,0,1,,,,,,,,
,,,,,,,,,,,,,FF,,,,,,,,1.1645,,,,,,,,,,,,,,,,,,,,,,60fdca1a87839971dfef0270,610378ba8aa60ca94ea087f6,2021-07-29_22h58.53.312,Simcolourproject_2stim_asymm_v5,2020.2.10,MacIntel,60,61025ae37ef11b136ea224fe,,,,,,,,,438,-82.578125,-42.40625,1,0,0,response5disk,,2,-3.71875,3.6640625,1,0,0,rectangle,-3.71875,3.6640625,1,0,0,-3.71875,3.6640625,1,0,0,0,120,120,38,1,,,,,,,,
,,,,,,,,,,,,,FF,,,,,,,,0.7484,,,,,,,,,,,,,,,,,,,,,,60fdca1a87839971dfef0270,610378ba8aa60ca94ea087f6,2021-07-29_22h58.53.312,Simcolourproject_2stim_asymm_v5,2020.2.10,MacIntel,60,61025ae37ef11b136ea224fe,,,,,,,,,114,38.8125,77.40625,1,0,0,response1disk,,7,9.75390625,3.05078125,1,0,0,rectangle,9.75390625,3.05078125,1,0,0,9.75390625,3.05078125,1,0,0,0,121,121,104,1,,,,,,,,
,,,,,,,,,,,,,FF,,,,,,,,0.6322,,,,,,,,,,,,,,,,,,,,,,60fdca1a87839971dfef0270,610378ba8aa60ca94ea087f6,2021-07-29_22h58.53.312,Simcolourproject_2stim_asymm_v5,2020.2.10,MacIntel,60,61025ae37ef11b136ea224fe,,,,,,,,,2216,28.45703125,61.2421875,1,0,0,response1disk,,7,4.90234375,12.44140625,1,0,0,rectangle,4.90234375,12.44140625,1,0,0,4.90234375,12.44140625,1,0,0,0,122,122,14,1,,,,,,,,
,,,,,,,,,,,,,FF,,,,,,,,0.5982,,,,,,,,,,,,,,,,,,,,,,60fdca1a87839971dfef0270,610378ba8aa60ca94ea087f6,2021-07-29_22h58.53.312,Simcolourproject_2stim_asymm_v5,2020.2.10,MacIntel,60,61025ae37ef11b136ea224fe,,,,,,,,,3490,15.640625,54.62109375,1,0,0,response1disk,,7,-8.2578125,-10.5390625,1,0,0,rectangle,-8.2578125,-10.5390625,1,0,0,-8.2578125,-10.5390625,1,0,0,0,123,123,93,1,,,,,,,,
,,,,,,,,,,,,,FF,,,,,,,,1.2138,,,,,,,,,,,,,,,,,,,,,,60fdca1a87839971dfef0270,610378ba8aa60ca94ea087f6,2021-07-29_22h58.53.312,Simcolourproject_2stim_asymm_v5,2020.2.10,MacIntel,60,61025ae37ef11b136ea224fe,,,,,,,,,393,63.328125,35.60546875,1,0,0,response1disk,,6,7.59765625,-7.96484375,1,0,0,rectangle,7.59765625,-7.96484375,1,0,0,7.59765625,-7.96484375,1,0,0,0,124,124,94,1,,,,,,,,
,,,,,,,,,,,,,FF,,,,,,,,1.4476,,,,,,,,,,,,,,,,,,,,,,60fdca1a87839971dfef0270,610378ba8aa60ca94ea087f6,2021-07-29_22h58.53.312,Simcolourproject_2stim_asymm_v5,2020.2.10,MacIntel,60,61025ae37ef11b136ea224fe,,,,,,,,,2721,42.54296875,-63.0390625,1,0,0,response3disk,,4,23.8359375,4.8515625,1,0,0,rectangle,23.8359375,4.8515625,1,0,0,23.8359375,4.8515625,1,0,0,0,125,125,69,1,,,,,,,,
,,,,,,,,,,,,,FF,,,,,,,,0.7816,,,,,,,,,,,,,,,,,,,,,,60fdca1a87839971dfef0270,610378ba8aa60ca94ea087f6,2021-07-29_22h58.53.312,Simcolourproject_2stim_asymm_v5,2020.2.10,MacIntel,60,61025ae37ef11b136ea224fe,,,,,,,,,3500,41.15625,78.09375,1,0,0,response1disk,,7,11.71484375,-5.96484375,1,0,0,rectangle,11.71484375,-5.96484375,1,0,0,11.71484375,-5.96484375,1,0,0,0,126,126,138,1,,,,,,,,
,,,,,,,,,,,,,FF,,,,,,,,0.5993,,,,,,,,,,,,,,,,,,,,,,60fdca1a87839971dfef0270,610378ba8aa60ca94ea087f6,2021-07-29_22h58.53.312,Simcolourproject_2stim_asymm_v5,2020.2.10,MacIntel,60,61025ae37ef11b136ea224fe,,,,,,,,,794,42.1953125,75.2421875,1,0,0,response1disk,,7,14.83203125,-3.04296875,1,0,0,rectangle,14.83203125,-3.04296875,1,0,0,14.83203125,-3.04296875,1,0,0,0,127,127,84,1,,,,,,,,
,,,,,,,,,,,,,FF,,,,,,,,0.7475,,,,,,,,,,,,,,,,,,,,,,60fdca1a87839971dfef0270,610378ba8aa60ca94ea087f6,2021-07-29_22h58.53.312,Simcolourproject_2stim_asymm_v5,2020.2.10,MacIntel,60,61025ae37ef11b136ea224fe,,,,,,,,,1506,39.42578125,84.25,1,0,0,response1disk,,7,10.67578125,-8.7734375,1,0,0,rectangle,10.67578125,-8.7734375,1,0,0,10.67578125,-8.7734375,1,0,0,0,128,128,103,1,,,,,,,,
,,,,,,,,,,,,,FF,,,,,,,,1.5454,,,,,,,,,,,,,,,,,,,,,,60fdca1a87839971dfef0270,610378ba8aa60ca94ea087f6,2021-07-29_22h58.53.312,Simcolourproject_2stim_asymm_v5,2020.2.10,MacIntel,60,61025ae37ef11b136ea224fe,,,,,,,,,3941,50.66796875,-52.37890625,1,0,0,response3disk,,4,11.91015625,14.12890625,1,0,0,rectangle,11.91015625,14.12890625,1,0,0,11.91015625,14.12890625,1,0,0,0,129,129,5,1,,,,,,,,
,,,,,,,,,,,,,FF,,,,,,,,0.8162,,,,,,,,,,,,,,,,,,,,,,60fdca1a87839971dfef0270,610378ba8aa60ca94ea087f6,2021-07-29_22h58.53.312,Simcolourproject_2stim_asymm_v5,2020.2.10,MacIntel,60,61025ae37ef11b136ea224fe,,,,,,,,,703,-46.28515625,-88.8671875,1,0,0,response5disk,,3,8.79296875,-0.26953125,1,0,0,rectangle,8.79296875,-0.26953125,1,0,0,8.79296875,-0.26953125,1,0,0,0,130,130,101,1,,,,,,,,
,,,,,,,,,,,,,FF,,,,,,,,0.9134,,,,,,,,,,,,,,,,,,,,,,60fdca1a87839971dfef0270,610378ba8aa60ca94ea087f6,2021-07-29_22h58.53.312,Simcolourproject_2stim_asymm_v5,2020.2.10,MacIntel,60,61025ae37ef11b136ea224fe,,,,,,,,,2813,74.10546875,95.17578125,1,0,0,response1disk,,7,6.2109375,-6.27734375,1,0,0,rectangle,6.2109375,-6.27734375,1,0,0,6.2109375,-6.27734375,1,0,0,0,131,131,27,1,,,,,,,,
,,,,,,,,,,,,,FF,,,,,,,,0.5658,,,,,,,,,,,,,,,,,,,,,,60fdca1a87839971dfef0270,610378ba8aa60ca94ea087f6,2021-07-29_22h58.53.312,Simcolourproject_2stim_asymm_v5,2020.2.10,MacIntel,60,61025ae37ef11b136ea224fe,,,,,,,,,2755,31.84375,68.734375,1,0,0,response1disk,,7,4.1328125,-8.703125,1,0,0,rectangle,4.1328125,-8.703125,1,0,0,4.1328125,-8.703125,1,0,0,0,132,132,71,1,,,,,,,,
,,,,,,,,,,,,,FF,,,,,,,,0.9644,,,,,,,,,,,,,,,,,,,,,,60fdca1a87839971dfef0270,610378ba8aa60ca94ea087f6,2021-07-29_22h58.53.312,Simcolourproject_2stim_asymm_v5,2020.2.10,MacIntel,60,61025ae37ef11b136ea224fe,,,,,,,,,4088,80.60546875,41.0625,1,0,0,response1disk,,6,7.59765625,-15.015625,1,0,0,rectangle,7.59765625,-15.015625,1,0,0,7.59765625,-15.015625,1,0,0,0,133,133,75,1,,,,,,,,
,,,,,,,,,,,,,FF,,,,,,,,0.5818,,,,,,,,,,,,,,,,,,,,,,60fdca1a87839971dfef0270,610378ba8aa60ca94ea087f6,2021-07-29_22h58.53.312,Simcolourproject_2stim_asymm_v5,2020.2.10,MacIntel,60,61025ae37ef11b136ea224fe,,,,,,,,,1496,37.734375,57.3046875,1,0,0,response1disk,,7,3.78515625,-3.0078125,1,0,0,rectangle,3.78515625,-3.0078125,1,0,0,3.78515625,-3.0078125,1,0,0,0,134,134,55,1,,,,,,,,
,,,,,,,,,,,,,FF,,,,,,,,1.3147,,,,,,,,,,,,,,,,,,,,,,60fdca1a87839971dfef0270,610378ba8aa60ca94ea087f6,2021-07-29_22h58.53.312,Simcolourproject_2stim_asymm_v5,2020.2.10,MacIntel,60,61025ae37ef11b136ea224fe,,,,,,,,,2430,84.49609375,-46.69140625,1,0,0,response3disk,,5,22.5703125,-15.86328125,1,0,0,rectangle,22.5703125,-15.86328125,1,0,0,22.5703125,-15.86328125,1,0,0,0,135,135,33,1,,,,,,,,
,,,,,,,,,,,,,FF,,,,,,,,2.9089,,,,,,,,,,,,,,,,,,,,,,60fdca1a87839971dfef0270,610378ba8aa60ca94ea087f6,2021-07-29_22h58.53.312,Simcolourproject_2stim_asymm_v5,2020.2.10,MacIntel,60,61025ae37ef11b136ea224fe,,,,,,,,,4264,38.8125,69,1,0,0,response1disk,,7,13.87109375,-2.8515625,1,0,0,rectangle,13.87109375,-2.8515625,1,0,0,13.87109375,-2.8515625,1,0,0,0,136,136,72,1,,,,,,,,
,,,,,,,,,,,,,FF,,,,,,,,1.7134,,,,,,,,,,,,,,,,,,,,,,60fdca1a87839971dfef0270,610378ba8aa60ca94ea087f6,2021-07-29_22h58.53.312,Simcolourproject_2stim_asymm_v5,2020.2.10,MacIntel,60,61025ae37ef11b136ea224fe,,,,,,,,,3281,68.8671875,43.87109375,1,0,0,response1disk,,6,18.375,-9.78125,1,0,0,rectangle,18.375,-9.78125,1,0,0,18.375,-9.78125,1,0,0,0,137,137,62,1,,,,,,,,
,,,,,,,,,,,,,FF,,,,,,,,0.9971,,,,,,,,,,,,,,,,,,,,,,60fdca1a87839971dfef0270,610378ba8aa60ca94ea087f6,2021-07-29_22h58.53.312,Simcolourproject_2stim_asymm_v5,2020.2.10,MacIntel,60,61025ae37ef11b136ea224fe,,,,,,,,,1093,34.6171875,59.03515625,1,0,0,response1disk,,7,-0.71484375,-9.1640625,1,0,0,rectangle,-0.71484375,-9.1640625,1,0,0,-0.71484375,-9.1640625,1,0,0,0,138,138,120,1,,,,,,,,
,,,,,,,,,,,,,FF,,,,,,,,0.9801,,,,,,,,,,,,,,,,,,,,,,60fdca1a87839971dfef0270,610378ba8aa60ca94ea087f6,2021-07-29_22h58.53.312,Simcolourproject_2stim_asymm_v5,2020.2.10,MacIntel,60,61025ae37ef11b136ea224fe,,,,,,,,,4220,32.45703125,-68.93359375,1,0,0,response3disk,,4,1.62890625,-4.54296875,1,0,0,rectangle,1.62890625,-4.54296875,1,0,0,1.62890625,-4.54296875,1,0,0,0,139,139,141,1,,,,,,,,
,,,,,,,,,,,,,FF,,,,,,,,1.9969,,,,,,,,,,,,,,,,,,,,,,60fdca1a87839971dfef0270,610378ba8aa60ca94ea087f6,2021-07-29_22h58.53.312,Simcolourproject_2stim_asymm_v5,2020.2.10,MacIntel,60,61025ae37ef11b136ea224fe,,,,,,,,,796,62.59375,-40.22265625,1,0,0,response3disk,,5,6.86328125,4.07421875,1,0,0,rectangle,6.86328125,4.07421875,1,0,0,6.86328125,4.07421875,1,0,0,0,140,140,70,1,,,,,,,,
,,,,,,,,,,,,,FF,,,,,,,,1.2792,,,,,,,,,,,,,,,,,,,,,,60fdca1a87839971dfef0270,610378ba8aa60ca94ea087f6,2021-07-29_22h58.53.312,Simcolourproject_2stim_asymm_v5,2020.2.10,MacIntel,60,61025ae37ef11b136ea224fe,,,,,,,,,626,95.1953125,30.7109375,1,0,0,response1disk,,6,21.14453125,-8.78125,1,0,0,rectangle,21.14453125,-8.78125,1,0,0,21.14453125,-8.78125,1,0,0,0,141,141,53,1,,,,,,,,
,,,,,,,,,,,,,FF,,,,,,,,1.2636,,,,,,,,,,,,,,,,,,,,,,60fdca1a87839971dfef0270,610378ba8aa60ca94ea087f6,2021-07-29_22h58.53.312,Simcolourproject_2stim_asymm_v5,2020.2.10,MacIntel,60,61025ae37ef11b136ea224fe,,,,,,,,,2841,-33.546875,-79.7890625,1,0,0,response5disk,,3,-2.37109375,1.1875,1,0,0,rectangle,-2.37109375,1.1875,1,0,0,-2.37109375,1.1875,1,0,0,0,142,142,25,1,,,,,,,,
,,,,,,,,,,,,,FF,,,,,,,,0.8153,,,,,,,,,,,,,,,,,,,,,,60fdca1a87839971dfef0270,610378ba8aa60ca94ea087f6,2021-07-29_22h58.53.312,Simcolourproject_2stim_asymm_v5,2020.2.10,MacIntel,60,61025ae37ef11b136ea224fe,,,,,,,,,1753,-72.30078125,-47.9609375,1,0,0,response5disk,,2,-19.3046875,-7.8203125,1,0,0,rectangle,-19.3046875,-7.8203125,1,0,0,-19.3046875,-7.8203125,1,0,0,0,143,143,133,1,,,,,,,,
,,,,,,,,,,,,,FF,,,,,,,,0.6824,,,,,,,,,,,,,,,,,,,,,,60fdca1a87839971dfef0270,610378ba8aa60ca94ea087f6,2021-07-29_22h58.53.312,Simcolourproject_2stim_asymm_v5,2020.2.10,MacIntel,60,61025ae37ef11b136ea224fe,,,,,,,,,94,-60.5234375,34.1328125,1,0,0,response7disk,,1,-2.71484375,2.34375,1,0,0,rectangle,-2.71484375,2.34375,1,0,0,-2.71484375,2.34375,1,0,0,0,144,144,132,1,,,,,,,,
,,,,,,,,,,,,,FF,,,,,,,,0.5652,,,,,,,,,,,,,,,,,,,,,,60fdca1a87839971dfef0270,610378ba8aa60ca94ea087f6,2021-07-29_22h58.53.312,Simcolourproject_2stim_asymm_v5,2020.2.10,MacIntel,60,61025ae37ef11b136ea224fe,,,,,,,,,2775,-23.84765625,58.11328125,1,0,0,response7disk,,0,8.01953125,-2.8125,1,0,0,rectangle,8.01953125,-2.8125,1,0,0,8.01953125,-2.8125,1,0,0,0,145,145,102,1,,,,,,,,
,,,,,,,,,,,,,FF,,,,,,,,0.8813,,,,,,,,,,,,,,,,,,,,,,60fdca1a87839971dfef0270,610378ba8aa60ca94ea087f6,2021-07-29_22h58.53.312,Simcolourproject_2stim_asymm_v5,2020.2.10,MacIntel,60,61025ae37ef11b136ea224fe,,,,,,,,,1759,-73.22265625,34.59765625,1,0,0,response7disk,,1,-1.51953125,0.34375,1,0,0,rectangle,-1.51953125,0.34375,1,0,0,-1.51953125,0.34375,1,0,0,0,146,146,152,1,,,,,,,,
,,,,,,,,,,,,,FF,,,,,,,,1.0142,,,,,,,,,,,,,,,,,,,,,,60fdca1a87839971dfef0270,610378ba8aa60ca94ea087f6,2021-07-29_22h58.53.312,Simcolourproject_2stim_asymm_v5,2020.2.10,MacIntel,60,61025ae37ef11b136ea224fe,,,,,,,,,2683,-31.3125,-87.90625,1,0,0,response5disk,,3,10.6015625,1.80859375,1,0,0,rectangle,10.6015625,1.80859375,1,0,0,10.6015625,1.80859375,1,0,0,0,147,147,113,1,,,,,,,,
,,,,,,,,,,,,,FF,,,,,,,,0.8812,,,,,,,,,,,,,,,,,,,,,,60fdca1a87839971dfef0270,610378ba8aa60ca94ea087f6,2021-07-29_22h58.53.312,Simcolourproject_2stim_asymm_v5,2020.2.10,MacIntel,60,61025ae37ef11b136ea224fe,,,,,,,,,256,-42.046875,-89.29296875,1,0,0,response5disk,,3,6.4453125,8.92578125,1,0,0,rectangle,6.4453125,8.92578125,1,0,0,6.4453125,8.92578125,1,0,0,0,148,148,131,1,,,,,,,,
,,,,,,,,,,,,,FF,,,,,,,,0.731,,,,,,,,,,,,,,,,,,,,,,60fdca1a87839971dfef0270,610378ba8aa60ca94ea087f6,2021-07-29_22h58.53.312,Simcolourproject_2stim_asymm_v5,2020.2.10,MacIntel,60,61025ae37ef11b136ea224fe,,,,,,,,,1763,-39.27734375,-85.90625,1,0,0,response5disk,,3,1.94140625,3.61328125,1,0,0,rectangle,1.94140625,3.61328125,1,0,0,1.94140625,3.61328125,1,0,0,0,149,149,46,1,,,,,,,,
,,,,,,,,,,,,,FF,,,,,,,,1.3137,,,,,,,,,,,,,,,,,,,,,,60fdca1a87839971dfef0270,610378ba8aa60ca94ea087f6,2021-07-29_22h58.53.312,Simcolourproject_2stim_asymm_v5,2020.2.10,MacIntel,60,61025ae37ef11b136ea224fe,,,,,,,,,1510,89.96484375,43.44921875,1,0,0,response1disk,,6,-1.48046875,3.95703125,1,0,0,rectangle,-1.48046875,3.95703125,1,0,0,-1.48046875,3.95703125,1,0,0,0,150,150,83,1,,,,,,,,
,,,,,,,,,,,,,FF,,,,,,,,0.9306,,,,,,,,,,,,,,,,,,,,,,60fdca1a87839971dfef0270,610378ba8aa60ca94ea087f6,2021-07-29_22h58.53.312,Simcolourproject_2stim_asymm_v5,2020.2.10,MacIntel,60,61025ae37ef11b136ea224fe,,,,,,,,,3689,43.47265625,84.859375,1,0,0,response1disk,,7,1.328125,6.34375,1,0,0,rectangle,1.328125,6.34375,1,0,0,1.328125,6.34375,1,0,0,0,151,151,58,1,,,,,,,,
,,,,,,,,,,,,,FF,,,,,,,,0.6815,,,,,,,,,,,,,,,,,,,,,,60fdca1a87839971dfef0270,610378ba8aa60ca94ea087f6,2021-07-29_22h58.53.312,Simcolourproject_2stim_asymm_v5,2020.2.10,MacIntel,60,61025ae37ef11b136ea224fe,,,,,,,,,3621,30.078125,83.39453125,1,0,0,response1disk,,7,-13.21875,-5.28125,1,0,0,rectangle,-13.21875,-5.28125,1,0,0,-13.21875,-5.28125,1,0,0,0,152,152,37,1,,,,,,,,
,,,,,,,,,,,,,FF,,,,,,,,1.2467,,,,,,,,,,,,,,,,,,,,,,60fdca1a87839971dfef0270,610378ba8aa60ca94ea087f6,2021-07-29_22h58.53.312,Simcolourproject_2stim_asymm_v5,2020.2.10,MacIntel,60,61025ae37ef11b136ea224fe,,,,,,,,,1607,-31.6953125,-82.953125,1,0,0,response5disk,,3,4.2890625,-5.82421875,1,0,0,rectangle,4.2890625,-5.82421875,1,0,0,4.2890625,-5.82421875,1,0,0,0,153,153,17,1,,,,,,,,
,,,,,,,,,,,,,FF,,,,,,,,1.5631,,,,,,,,,,,,,,,,,,,,,,60fdca1a87839971dfef0270,610378ba8aa60ca94ea087f6,2021-07-29_22h58.53.312,Simcolourproject_2stim_asymm_v5,2020.2.10,MacIntel,60,61025ae37ef11b136ea224fe,,,,,,,,,2709,34.0390625,78.6953125,1,0,0,response1disk,,7,-26.19140625,-8.86328125,1,0,0,rectangle,-26.19140625,-8.86328125,1,0,0,-26.19140625,-8.86328125,1,0,0,0,154,154,51,1,,,,,,,,
,,,,,,,,,,,,,FF,,,,,,,,1.4802,,,,,,,,,,,,,,,,,,,,,,60fdca1a87839971dfef0270,610378ba8aa60ca94ea087f6,2021-07-29_22h58.53.312,Simcolourproject_2stim_asymm_v5,2020.2.10,MacIntel,60,61025ae37ef11b136ea224fe,,,,,,,,,4167,-57.2890625,20.078125,1,0,0,response7disk,,1,6.3671875,-2.78515625,1,0,0,rectangle,6.3671875,-2.78515625,1,0,0,6.3671875,-2.78515625,1,0,0,0,155,155,24,1,,,,,,,,
,,,,,,,,,,,,,FF,,,,,,,,1.1641,,,,,,,,,,,,,,,,,,,,,,60fdca1a87839971dfef0270,610378ba8aa60ca94ea087f6,2021-07-29_22h58.53.312,Simcolourproject_2stim_asymm_v5,2020.2.10,MacIntel,60,61025ae37ef11b136ea224fe,,,,,,,,,1261,45.39453125,101.28125,1,0,0,response1disk,,7,1.09375,8.1796875,1,0,0,rectangle,1.09375,8.1796875,1,0,0,1.09375,8.1796875,1,0,0,0,156,156,81,1,,,,,,,,
,,,,,,,,,,,,,FF,,,,,,,,2.5116,,,,,,,,,,,,,,,,,,,,,,60fdca1a87839971dfef0270,610378ba8aa60ca94ea087f6,2021-07-29_22h58.53.312,Simcolourproject_2stim_asymm_v5,2020.2.10,MacIntel,60,61025ae37ef11b136ea224fe,,,,,,,,,2792,85.078125,35.59765625,1,0,0,response1disk,,6,12.453125,-0.08203125,1,0,0,rectangle,12.453125,-0.08203125,1,0,0,12.453125,-0.08203125,1,0,0,0,157,157,47,1,,,,,,,,
,,,,,,,,,,,,,FF,,,,,,,,1.3969,,,,,,,,,,,,,,,,,,,,,,60fdca1a87839971dfef0270,610378ba8aa60ca94ea087f6,2021-07-29_22h58.53.312,Simcolourproject_2stim_asymm_v5,2020.2.10,MacIntel,60,61025ae37ef11b136ea224fe,,,,,,,,,2468,54.7109375,87.515625,1,0,0,response1disk,,7,1.3671875,-4.625,1,0,0,rectangle,1.3671875,-4.625,1,0,0,1.3671875,-4.625,1,0,0,0,158,158,48,1,,,,,,,,
,,,,,,,,,,,,,FF,,,,,,,,0.8801,,,,,,,,,,,,,,,,,,,,,,60fdca1a87839971dfef0270,610378ba8aa60ca94ea087f6,2021-07-29_22h58.53.312,Simcolourproject_2stim_asymm_v5,2020.2.10,MacIntel,60,61025ae37ef11b136ea224fe,,,,,,,,,1427,37.69921875,61.6875,1,0,0,response1disk,,7,-6.21484375,-3.625,1,0,0,rectangle,-6.21484375,-3.625,1,0,0,-6.21484375,-3.625,1,0,0,0,159,159,145,1,,,,,,,,
,,,,,,,,,,,,,FF,,,,,,,,0.8979,,,,,,,,,,,,,,,,,,,,,,60fdca1a87839971dfef0270,610378ba8aa60ca94ea087f6,2021-07-29_22h58.53.312,Simcolourproject_2stim_asymm_v5,2020.2.10,MacIntel,60,61025ae37ef11b136ea224fe,,,,,,,,,2785,60.17578125,-64.58984375,1,0,0,response3disk,,4,-13.8359375,-4.6640625,1,0,0,rectangle,-13.8359375,-4.6640625,1,0,0,-13.8359375,-4.6640625,1,0,0,1,0,160,156,1,,,,,,,,
,,,,,,,,,,,,,FF,,,,,,,,0.8981,,,,,,,,,,,,,,,,,,,,,,60fdca1a87839971dfef0270,610378ba8aa60ca94ea087f6,2021-07-29_22h58.53.312,Simcolourproject_2stim_asymm_v5,2020.2.10,MacIntel,60,61025ae37ef11b136ea224fe,,,,,,,,,3293,82.078125,28.8984375,1,0,0,response1disk,,6,31.50390625,-9.203125,1,0,0,rectangle,31.50390625,-9.203125,1,0,0,31.50390625,-9.203125,1,0,0,1,1,161,132,1,,,,,,,,
,,,,,,,,,,,,,FF,,,,,,,,0.9158,,,,,,,,,,,,,,,,,,,,,,60fdca1a87839971dfef0270,610378ba8aa60ca94ea087f6,2021-07-29_22h58.53.312,Simcolourproject_2stim_asymm_v5,2020.2.10,MacIntel,60,61025ae37ef11b136ea224fe,,,,,,,,,2499,64.33203125,-41.41796875,1,0,0,response3disk,,5,-12.48828125,-14.40234375,1,0,0,rectangle,-12.48828125,-14.40234375,1,0,0,-12.48828125,-14.40234375,1,0,0,1,2,162,38,1,,,,,,,,
,,,,,,,,,,,,,FF,,,,,,,,1.4963,,,,,,,,,,,,,,,,,,,,,,60fdca1a87839971dfef0270,610378ba8aa60ca94ea087f6,2021-07-29_22h58.53.312,Simcolourproject_2stim_asymm_v5,2020.2.10,MacIntel,60,61025ae37ef11b136ea224fe,,,,,,,,,1223,-58.51953125,32.36328125,1,0,0,response7disk,,1,-6.59765625,-0.890625,1,0,0,rectangle,-6.59765625,-0.890625,1,0,0,-6.59765625,-0.890625,1,0,0,1,3,163,104,1,,,,,,,,
,,,,,,,,,,,,,FF,,,,,,,,0.849,,,,,,,,,,,,,,,,,,,,,,60fdca1a87839971dfef0270,610378ba8aa60ca94ea087f6,2021-07-29_22h58.53.312,Simcolourproject_2stim_asymm_v5,2020.2.10,MacIntel,60,61025ae37ef11b136ea224fe,,,,,,,,,3587,-56.70703125,41.25,1,0,0,response7disk,,1,4.5625,5.265625,1,0,0,rectangle,4.5625,5.265625,1,0,0,4.5625,5.265625,1,0,0,1,4,164,88,1,,,,,,,,
,,,,,,,,,,,,,FF,,,,,,,,0.9978,,,,,,,,,,,,,,,,,,,,,,60fdca1a87839971dfef0270,610378ba8aa60ca94ea087f6,2021-07-29_22h58.53.312,Simcolourproject_2stim_asymm_v5,2020.2.10,MacIntel,60,61025ae37ef11b136ea224fe,,,,,,,,,3484,-54.32421875,-88.26171875,1,0,0,response5disk,,3,0.75390625,-9.70703125,1,0,0,rectangle,0.75390625,-9.70703125,1,0,0,0.75390625,-9.70703125,1,0,0,1,5,165,62,1,,,,,,,,
,,,,,,,,,,,,,FF,,,,,,,,0.8655,,,,,,,,,,,,,,,,,,,,,,60fdca1a87839971dfef0270,610378ba8aa60ca94ea087f6,2021-07-29_22h58.53.312,Simcolourproject_2stim_asymm_v5,2020.2.10,MacIntel,60,61025ae37ef11b136ea224fe,,,,,,,,,2825,-37.65625,-73.98046875,1,0,0,response5disk,,3,-8.21484375,-5.1640625,1,0,0,rectangle,-8.21484375,-5.1640625,1,0,0,-8.21484375,-5.1640625,1,0,0,1,6,166,41,1,,,,,,,,
,,,,,,,,,,,,,FF,,,,,,,,1.2629,,,,,,,,,,,,,,,,,,,,,,60fdca1a87839971dfef0270,610378ba8aa60ca94ea087f6,2021-07-29_22h58.53.312,Simcolourproject_2stim_asymm_v5,2020.2.10,MacIntel,60,61025ae37ef11b136ea224fe,,,,,,,,,2386,52.75,91.4375,1,0,0,response1disk,,7,-3.01953125,-7.8984375,1,0,0,rectangle,-3.01953125,-7.8984375,1,0,0,-3.01953125,-7.8984375,1,0,0,1,7,167,31,1,,,,,,,,
,,,,,,,,,,,,,FF,,,,,,,,1.9793,,,,,,,,,,,,,,,,,,,,,,60fdca1a87839971dfef0270,610378ba8aa60ca94ea087f6,2021-07-29_22h58.53.312,Simcolourproject_2stim_asymm_v5,2020.2.10,MacIntel,60,61025ae37ef11b136ea224fe,,,,,,,,,207,21.87890625,89.66796875,1,0,0,response1disk,,7,-6.52734375,-5.203125,1,0,0,rectangle,-6.52734375,-5.203125,1,0,0,-6.52734375,-5.203125,1,0,0,1,8,168,14,1,,,,,,,,
,,,,,,,,,,,,,FF,,,,,,,,0.8644,,,,,,,,,,,,,,,,,,,,,,60fdca1a87839971dfef0270,610378ba8aa60ca94ea087f6,2021-07-29_22h58.53.312,Simcolourproject_2stim_asymm_v5,2020.2.10,MacIntel,60,61025ae37ef11b136ea224fe,,,,,,,,,347,90.4609375,26.6640625,1,0,0,response1disk,,6,16.6796875,7.61328125,1,0,0,rectangle,16.6796875,7.61328125,1,0,0,16.6796875,7.61328125,1,0,0,1,9,169,105,1,,,,,,,,
,,,,,,,,,,,,,FF,,,,,,,,0.7992,,,,,,,,,,,,,,,,,,,,,,60fdca1a87839971dfef0270,610378ba8aa60ca94ea087f6,2021-07-29_22h58.53.312,Simcolourproject_2stim_asymm_v5,2020.2.10,MacIntel,60,61025ae37ef11b136ea224fe,,,,,,,,,3353,66.5625,-39.84375,1,0,0,response3disk,,5,-0.51953125,-8.015625,1,0,0,rectangle,-0.51953125,-8.015625,1,0,0,-0.51953125,-8.015625,1,0,0,1,10,170,137,1,,,,,,,,
,,,,,,,,,,,,,FF,,,,,,,,0.9147,,,,,,,,,,,,,,,,,,,,,,60fdca1a87839971dfef0270,610378ba8aa60ca94ea087f6,2021-07-29_22h58.53.312,Simcolourproject_2stim_asymm_v5,2020.2.10,MacIntel,60,61025ae37ef11b136ea224fe,,,,,,,,,1299,-57.328125,-32.26171875,1,0,0,response5disk,,2,6.4453125,1.3359375,1,0,0,rectangle,6.4453125,1.3359375,1,0,0,6.4453125,1.3359375,1,0,0,1,11,171,66,1,,,,,,,,
,,,,,,,,,,,,,FF,,,,,,,,0.8145,,,,,,,,,,,,,,,,,,,,,,60fdca1a87839971dfef0270,610378ba8aa60ca94ea087f6,2021-07-29_22h58.53.312,Simcolourproject_2stim_asymm_v5,2020.2.10,MacIntel,60,61025ae37ef11b136ea224fe,,,,,,,,,2286,-62.75390625,-34.99609375,1,0,0,response5disk,,2,2.63671875,-5.203125,1,0,0,rectangle,2.63671875,-5.203125,1,0,0,2.63671875,-5.203125,1,0,0,1,12,172,128,1,,,,,,,,
,,,,,,,,,,,,,FF,,,,,,,,0.8473,,,,,,,,,,,,,,,,,,,,,,60fdca1a87839971dfef0270,610378ba8aa60ca94ea087f6,2021-07-29_22h58.53.312,Simcolourproject_2stim_asymm_v5,2020.2.10,MacIntel,60,61025ae37ef11b136ea224fe,,,,,,,,,696,82.9609375,-42.30859375,1,0,0,response3disk,,5,4.328125,-8.015625,1,0,0,rectangle,4.328125,-8.015625,1,0,0,4.328125,-8.015625,1,0,0,1,13,173,71,1,,,,,,,,
,,,,,,,,,,,,,FF,,,,,,,,1.9945,,,,,,,,,,,,,,,,,,,,,,60fdca1a87839971dfef0270,610378ba8aa60ca94ea087f6,2021-07-29_22h58.53.312,Simcolourproject_2stim_asymm_v5,2020.2.10,MacIntel,60,61025ae37ef11b136ea224fe,,,,,,,,,902,-65.640625,44.9453125,1,0,0,response7disk,,1,5.55859375,1.68359375,1,0,0,rectangle,5.55859375,1.68359375,1,0,0,5.55859375,1.68359375,1,0,0,1,14,174,147,1,,,,,,,,
,,,,,,,,,,,,,FF,,,,,,,,1.1798,,,,,,,,,,,,,,,,,,,,,,60fdca1a87839971dfef0270,610378ba8aa60ca94ea087f6,2021-07-29_22h58.53.312,Simcolourproject_2stim_asymm_v5,2020.2.10,MacIntel,60,61025ae37ef11b136ea224fe,,,,,,,,,410,80.9921875,56.06640625,1,0,0,response1disk,,6,-14.95703125,1.4140625,1,0,0,rectangle,-14.95703125,1.4140625,1,0,0,-14.95703125,1.4140625,1,0,0,1,15,175,111,1,,,,,,,,
,,,,,,,,,,,,,FF,,,,,,,,1.03,,,,,,,,,,,,,,,,,,,,,,60fdca1a87839971dfef0270,610378ba8aa60ca94ea087f6,2021-07-29_22h58.53.312,Simcolourproject_2stim_asymm_v5,2020.2.10,MacIntel,60,61025ae37ef11b136ea224fe,,,,,,,,,1718,35.84375,77.50390625,1,0,0,response1disk,,7,-1.1015625,13.578125,1,0,0,rectangle,-1.1015625,13.578125,1,0,0,-1.1015625,13.578125,1,0,0,1,16,176,129,1,,,,,,,,
,,,,,,,,,,,,,FF,,,,,,,,0.9146,,,,,,,,,,,,,,,,,,,,,,60fdca1a87839971dfef0270,610378ba8aa60ca94ea087f6,2021-07-29_22h58.53.312,Simcolourproject_2stim_asymm_v5,2020.2.10,MacIntel,60,61025ae37ef11b136ea224fe,,,,,,,,,984,89.9609375,36.015625,1,0,0,response1disk,,6,0.58984375,11.07421875,1,0,0,rectangle,0.58984375,11.07421875,1,0,0,0.58984375,11.07421875,1,0,0,1,17,177,103,1,,,,,,,,
,,,,,,,,,,,,,FF,,,,,,,,0.7316,,,,,,,,,,,,,,,,,,,,,,60fdca1a87839971dfef0270,610378ba8aa60ca94ea087f6,2021-07-29_22h58.53.312,Simcolourproject_2stim_asymm_v5,2020.2.10,MacIntel,60,61025ae37ef11b136ea224fe,,,,,,,,,2136,47.2734375,80.69921875,1,0,0,response1disk,,7,-9.453125,-5.55078125,1,0,0,rectangle,-88.77734375,-46.1953125,1,0,0,6.1328125,7.76171875,1,0,0,1,18,178,107,1,,response5disk_3,TRUE,2,2,"[63,243,112,271,10,37,273,179,242,90,11,30,192,119,38,91,192,35,205,86]",1.5135,rectangle
,,,,,,,,,,,,,FF,,,,,,,,0.7314,,,,,,,,,,,,,,,,,,,,,,60fdca1a87839971dfef0270,610378ba8aa60ca94ea087f6,2021-07-29_22h58.53.312,Simcolourproject_2stim_asymm_v5,2020.2.10,MacIntel,60,61025ae37ef11b136ea224fe,,,,,,,,,1402,48.73828125,85.66015625,1,0,0,response1disk,,7,0.28515625,-3.58984375,1,0,0,rectangle,0.28515625,-3.58984375,1,0,0,0.28515625,-3.58984375,1,0,0,1,19,179,27,1,,,,,,,,
,,,,,,,,,,,,,FF,,,,,,,,0.6967,,,,,,,,,,,,,,,,,,,,,,60fdca1a87839971dfef0270,610378ba8aa60ca94ea087f6,2021-07-29_22h58.53.312,Simcolourproject_2stim_asymm_v5,2020.2.10,MacIntel,60,61025ae37ef11b136ea224fe,,,,,,,,,1512,39.38671875,71.421875,1,0,0,response1disk,,7,8.2109375,3.60546875,1,0,0,rectangle,8.2109375,3.60546875,1,0,0,8.2109375,3.60546875,1,0,0,1,20,180,124,1,,,,,,,,
,,,,,,,,,,,,,FF,,,,,,,,0.7645,,,,,,,,,,,,,,,,,,,,,,60fdca1a87839971dfef0270,610378ba8aa60ca94ea087f6,2021-07-29_22h58.53.312,Simcolourproject_2stim_asymm_v5,2020.2.10,MacIntel,60,61025ae37ef11b136ea224fe,,,,,,,,,221,47.69921875,65.4921875,1,0,0,response1disk,,7,21.02734375,13.2265625,1,0,0,rectangle,21.02734375,13.2265625,1,0,0,21.02734375,13.2265625,1,0,0,1,21,181,146,1,,,,,,,,
,,,,,,,,,,,,,FF,,,,,,,,1.5629,,,,,,,,,,,,,,,,,,,,,,60fdca1a87839971dfef0270,610378ba8aa60ca94ea087f6,2021-07-29_22h58.53.312,Simcolourproject_2stim_asymm_v5,2020.2.10,MacIntel,60,61025ae37ef11b136ea224fe,,,,,,,,,1058,-69.03515625,-42.9296875,1,0,0,response5disk,,2,1.55078125,1.984375,1,0,0,rectangle,1.55078125,1.984375,1,0,0,1.55078125,1.984375,1,0,0,1,22,182,134,1,,,,,,,,
,,,,,,,,,,,,,FF,,,,,,,,0.7637,,,,,,,,,,,,,,,,,,,,,,60fdca1a87839971dfef0270,610378ba8aa60ca94ea087f6,2021-07-29_22h58.53.312,Simcolourproject_2stim_asymm_v5,2020.2.10,MacIntel,60,61025ae37ef11b136ea224fe,,,,,,,,,3710,-57.91015625,-47.1640625,1,0,0,response5disk,,2,3.40234375,8.9140625,1,0,0,rectangle,3.40234375,8.9140625,1,0,0,3.40234375,8.9140625,1,0,0,1,23,183,141,1,,,,,,,,
,,,,,,,,,,,,,FF,,,,,,,,0.6151,,,,,,,,,,,,,,,,,,,,,,60fdca1a87839971dfef0270,610378ba8aa60ca94ea087f6,2021-07-29_22h58.53.312,Simcolourproject_2stim_asymm_v5,2020.2.10,MacIntel,60,61025ae37ef11b136ea224fe,,,,,,,,,220,39.7734375,83.65625,1,0,0,response1disk,,7,-7.296875,4.796875,1,0,0,rectangle,-7.296875,4.796875,1,0,0,-7.296875,4.796875,1,0,0,1,24,184,69,1,,,,,,,,
,,,,,,,,,,,,,FF,,,,,,,,1.0478,,,,,,,,,,,,,,,,,,,,,,60fdca1a87839971dfef0270,610378ba8aa60ca94ea087f6,2021-07-29_22h58.53.312,Simcolourproject_2stim_asymm_v5,2020.2.10,MacIntel,60,61025ae37ef11b136ea224fe,,,,,,,,,3394,40.46484375,-83.1875,1,0,0,response3disk,,4,15.5234375,7.21875,1,0,0,rectangle,15.5234375,7.21875,1,0,0,15.5234375,7.21875,1,0,0,1,25,185,23,1,,,,,,,,
,,,,,,,,,,,,,FF,,,,,,,,0.6985,,,,,,,,,,,,,,,,,,,,,,60fdca1a87839971dfef0270,610378ba8aa60ca94ea087f6,2021-07-29_22h58.53.312,Simcolourproject_2stim_asymm_v5,2020.2.10,MacIntel,60,61025ae37ef11b136ea224fe,,,,,,,,,4075,33.8828125,81.6171875,1,0,0,response1disk,,7,-3.52734375,-5.01953125,1,0,0,rectangle,-3.52734375,-5.01953125,1,0,0,-3.52734375,-5.01953125,1,0,0,1,26,186,63,1,,,,,,,,
,,,,,,,,,,,,,FF,,,,,,,,0.9647,,,,,,,,,,,,,,,,,,,,,,60fdca1a87839971dfef0270,610378ba8aa60ca94ea087f6,2021-07-29_22h58.53.312,Simcolourproject_2stim_asymm_v5,2020.2.10,MacIntel,60,61025ae37ef11b136ea224fe,,,,,,,,,4104,-79.6953125,-37.58203125,1,0,0,response5disk,,2,-7.72265625,-5.71484375,1,0,0,rectangle,-7.72265625,-5.71484375,1,0,0,-7.72265625,-5.71484375,1,0,0,1,27,187,26,1,,,,,,,,
,,,,,,,,,,,,,FF,,,,,,,,0.6808,,,,,,,,,,,,,,,,,,,,,,60fdca1a87839971dfef0270,610378ba8aa60ca94ea087f6,2021-07-29_22h58.53.312,Simcolourproject_2stim_asymm_v5,2020.2.10,MacIntel,60,61025ae37ef11b136ea224fe,,,,,,,,,469,22.7578125,75.5703125,1,0,0,response1disk,,7,-0.1015625,1.7890625,1,0,0,rectangle,-0.1015625,1.7890625,1,0,0,-0.1015625,1.7890625,1,0,0,1,28,188,49,1,,,,,,,,
,,,,,,,,,,,,,FF,,,,,,,,0.5363,,,,,,,,,,,,,,,,,,,,,,60fdca1a87839971dfef0270,610378ba8aa60ca94ea087f6,2021-07-29_22h58.53.312,Simcolourproject_2stim_asymm_v5,2020.2.10,MacIntel,60,61025ae37ef11b136ea224fe,,,,,,,,,2259,45.1953125,60.59765625,1,0,0,response1disk,,7,10.90234375,-3.484375,1,0,0,rectangle,10.90234375,-3.484375,1,0,0,10.90234375,-3.484375,1,0,0,1,29,189,153,1,,,,,,,,
,,,,,,,,,,,,,FF,,,,,,,,0.4976,,,,,,,,,,,,,,,,,,,,,,60fdca1a87839971dfef0270,610378ba8aa60ca94ea087f6,2021-07-29_22h58.53.312,Simcolourproject_2stim_asymm_v5,2020.2.10,MacIntel,60,61025ae37ef11b136ea224fe,,,,,,,,,42,38.26953125,72.72265625,1,0,0,response1disk,,7,4.0546875,-7.21875,1,0,0,rectangle,4.0546875,-7.21875,1,0,0,4.0546875,-7.21875,1,0,0,1,30,190,17,1,,,,,,,,
,,,,,,,,,,,,,FF,,,,,,,,0.6483,,,,,,,,,,,,,,,,,,,,,,60fdca1a87839971dfef0270,610378ba8aa60ca94ea087f6,2021-07-29_22h58.53.312,Simcolourproject_2stim_asymm_v5,2020.2.10,MacIntel,60,61025ae37ef11b136ea224fe,,,,,,,,,3372,34.921875,86.9609375,1,0,0,response1disk,,7,9.63671875,-8.5234375,1,0,0,rectangle,-45.78515625,-81.65234375,1,0,0,4.44140625,-3.40625,1,0,0,1,31,191,76,1,,response5disk_3,TRUE,3,3,"[63,243,112,271,10,37,273,179,242,90,11,30,192,119,38,91,192,35,205,86]",2.1618,rectangle
,,,,,,,,,,,,,FF,,,,,,,,1.0298,,,,,,,,,,,,,,,,,,,,,,60fdca1a87839971dfef0270,610378ba8aa60ca94ea087f6,2021-07-29_22h58.53.312,Simcolourproject_2stim_asymm_v5,2020.2.10,MacIntel,60,61025ae37ef11b136ea224fe,,,,,,,,,2960,-57.94921875,-29.38671875,1,0,0,response5disk,,2,-7.1875,-5.1796875,1,0,0,rectangle,-7.1875,-5.1796875,1,0,0,-7.1875,-5.1796875,1,0,0,1,32,192,20,1,,,,,,,,
,,,,,,,,,,,,,FF,,,,,,,,1.1137,,,,,,,,,,,,,,,,,,,,,,60fdca1a87839971dfef0270,610378ba8aa60ca94ea087f6,2021-07-29_22h58.53.312,Simcolourproject_2stim_asymm_v5,2020.2.10,MacIntel,60,61025ae37ef11b136ea224fe,,,,,,,,,3294,-67.7265625,-26.30859375,1,0,0,response5disk,,2,-16.421875,-7.6015625,1,0,0,rectangle,-16.421875,-7.6015625,1,0,0,-16.421875,-7.6015625,1,0,0,1,33,193,13,1,,,,,,,,
,,,,,,,,,,,,,FF,,,,,,,,0.5477,,,,,,,,,,,,,,,,,,,,,,60fdca1a87839971dfef0270,610378ba8aa60ca94ea087f6,2021-07-29_22h58.53.312,Simcolourproject_2stim_asymm_v5,2020.2.10,MacIntel,60,61025ae37ef11b136ea224fe,,,,,,,,,4365,-21.96484375,66.5234375,1,0,0,response7disk,,0,-3.9921875,3.51953125,1,0,0,rectangle,-3.9921875,3.51953125,1,0,0,-3.9921875,3.51953125,1,0,0,1,34,194,158,1,,,,,,,,
,,,,,,,,,,,,,FF,,,,,,,,1.3623,,,,,,,,,,,,,,,,,,,,,,60fdca1a87839971dfef0270,610378ba8aa60ca94ea087f6,2021-07-29_22h58.53.312,Simcolourproject_2stim_asymm_v5,2020.2.10,MacIntel,60,61025ae37ef11b136ea224fe,,,,,,,,,2370,-53.5234375,-91.390625,1,0,0,response5disk,,3,-3.9921875,2.01953125,1,0,0,rectangle,-3.9921875,2.01953125,1,0,0,-3.9921875,2.01953125,1,0,0,1,35,195,16,1,,,,,,,,
,,,,,,,,,,,,,FF,,,,,,,,0.7639,,,,,,,,,,,,,,,,,,,,,,60fdca1a87839971dfef0270,610378ba8aa60ca94ea087f6,2021-07-29_22h58.53.312,Simcolourproject_2stim_asymm_v5,2020.2.10,MacIntel,60,61025ae37ef11b136ea224fe,,,,,,,,,2870,57.28125,71.296875,1,0,0,response1disk,,7,9.82421875,10.0234375,1,0,0,rectangle,9.82421875,10.0234375,1,0,0,9.82421875,10.0234375,1,0,0,1,36,196,139,1,,,,,,,,
,,,,,,,,,,,,,FF,,,,,,,,1.4121,,,,,,,,,,,,,,,,,,,,,,60fdca1a87839971dfef0270,610378ba8aa60ca94ea087f6,2021-07-29_22h58.53.312,Simcolourproject_2stim_asymm_v5,2020.2.10,MacIntel,60,61025ae37ef11b136ea224fe,,,,,,,,,1302,22.21875,-68.56640625,1,0,0,response3disk,,4,19.1015625,-8.4921875,1,0,0,rectangle,19.1015625,-8.4921875,1,0,0,19.1015625,-8.4921875,1,0,0,1,37,197,117,1,,,,,,,,
,,,,,,,,,,,,,FF,,,,,,,,1.9113,,,,,,,,,,,,,,,,,,,,,,60fdca1a87839971dfef0270,610378ba8aa60ca94ea087f6,2021-07-29_22h58.53.312,Simcolourproject_2stim_asymm_v5,2020.2.10,MacIntel,60,61025ae37ef11b136ea224fe,,,,,,,,,100,27.375,57.9765625,1,0,0,response1disk,,7,3.47265625,1.16796875,1,0,0,rectangle,3.47265625,1.16796875,1,0,0,3.47265625,1.16796875,1,0,0,1,38,198,7,1,,,,,,,,
,,,,,,,,,,,,,FF,,,,,,,,0.6306,,,,,,,,,,,,,,,,,,,,,,60fdca1a87839971dfef0270,610378ba8aa60ca94ea087f6,2021-07-29_22h58.53.312,Simcolourproject_2stim_asymm_v5,2020.2.10,MacIntel,60,61025ae37ef11b136ea224fe,,,,,,,,,3640,37.07421875,71.3671875,1,0,0,response1disk,,7,8.70703125,0.16796875,1,0,0,rectangle,8.70703125,0.16796875,1,0,0,8.70703125,0.16796875,1,0,0,1,39,199,65,1,,,,,,,,
,,,,,,,,,,,,,FF,,,,,,,,0.4984,,,,,,,,,,,,,,,,,,,,,,60fdca1a87839971dfef0270,610378ba8aa60ca94ea087f6,2021-07-29_22h58.53.312,Simcolourproject_2stim_asymm_v5,2020.2.10,MacIntel,60,61025ae37ef11b136ea224fe,,,,,,,,,119,48.8515625,65.90625,1,0,0,response1disk,,7,7.9765625,-5.6796875,1,0,0,rectangle,7.9765625,-5.6796875,1,0,0,7.9765625,-5.6796875,1,0,0,1,40,200,157,1,,,,,,,,
,,,,,,,,,,,,,FF,,,,,,,,1.4301,,,,,,,,,,,,,,,,,,,,,,60fdca1a87839971dfef0270,610378ba8aa60ca94ea087f6,2021-07-29_22h58.53.312,Simcolourproject_2stim_asymm_v5,2020.2.10,MacIntel,60,61025ae37ef11b136ea224fe,,,,,,,,,3055,-35.70703125,-83.5390625,1,0,0,response5disk,,3,17.984375,-0.1015625,1,0,0,rectangle,17.984375,-0.1015625,1,0,0,17.984375,-0.1015625,1,0,0,1,41,201,3,1,,,,,,,,
,,,,,,,,,,,,,FF,,,,,,,,0.833,,,,,,,,,,,,,,,,,,,,,,60fdca1a87839971dfef0270,610378ba8aa60ca94ea087f6,2021-07-29_22h58.53.312,Simcolourproject_2stim_asymm_v5,2020.2.10,MacIntel,60,61025ae37ef11b136ea224fe,,,,,,,,,3352,30.453125,69.484375,1,0,0,response1disk,,7,12.82421875,-0.3671875,1,0,0,rectangle,12.82421875,-0.3671875,1,0,0,12.82421875,-0.3671875,1,0,0,1,42,202,58,1,,,,,,,,
,,,,,,,,,,,,,FF,,,,,,,,0.8317,,,,,,,,,,,,,,,,,,,,,,60fdca1a87839971dfef0270,610378ba8aa60ca94ea087f6,2021-07-29_22h58.53.312,Simcolourproject_2stim_asymm_v5,2020.2.10,MacIntel,60,61025ae37ef11b136ea224fe,,,,,,,,,588,22.140625,73.21875,1,0,0,response1disk,,7,-8.69140625,-10.91796875,1,0,0,rectangle,-8.69140625,-10.91796875,1,0,0,-8.69140625,-10.91796875,1,0,0,1,43,203,143,1,,,,,,,,
,,,,,,,,,,,,,FF,,,,,,,,1.3135,,,,,,,,,,,,,,,,,,,,,,60fdca1a87839971dfef0270,610378ba8aa60ca94ea087f6,2021-07-29_22h58.53.312,Simcolourproject_2stim_asymm_v5,2020.2.10,MacIntel,60,61025ae37ef11b136ea224fe,,,,,,,,,3859,71.328125,-38.62890625,1,0,0,response3disk,,5,-14.92578125,3.6328125,1,0,0,rectangle,-47.1015625,-95.78125,1,0,0,-7.609375,-13.41796875,1,0,0,1,44,204,55,1,,response5disk_3,TRUE,3,3,"[63,243,112,271,10,37,273,179,242,90,11,30,192,119,38,91,192,35,205,86]",1.4288,rectangle
,,,,,,,,,,,,,FF,,,,,,,,0.7989,,,,,,,,,,,,,,,,,,,,,,60fdca1a87839971dfef0270,610378ba8aa60ca94ea087f6,2021-07-29_22h58.53.312,Simcolourproject_2stim_asymm_v5,2020.2.10,MacIntel,60,61025ae37ef11b136ea224fe,,,,,,,,,1072,36.03515625,73.79296875,1,0,0,response1disk,,7,4.859375,5.671875,1,0,0,rectangle,4.859375,5.671875,1,0,0,4.859375,5.671875,1,0,0,1,45,205,50,1,,,,,,,,
,,,,,,,,,,,,,FF,,,,,,,,0.5328,,,,,,,,,,,,,,,,,,,,,,60fdca1a87839971dfef0270,610378ba8aa60ca94ea087f6,2021-07-29_22h58.53.312,Simcolourproject_2stim_asymm_v5,2020.2.10,MacIntel,60,61025ae37ef11b136ea224fe,,,,,,,,,229,42.9609375,79.4140625,1,0,0,response1disk,,7,16.328125,12.7578125,1,0,0,rectangle,16.328125,12.7578125,1,0,0,16.328125,12.7578125,1,0,0,1,46,206,10,1,,,,,,,,
,,,,,,,,,,,,,FF,,,,,,,,0.5646,,,,,,,,,,,,,,,,,,,,,,60fdca1a87839971dfef0270,610378ba8aa60ca94ea087f6,2021-07-29_22h58.53.312,Simcolourproject_2stim_asymm_v5,2020.2.10,MacIntel,60,61025ae37ef11b136ea224fe,,,,,,,,,1259,37.45703125,64.328125,1,0,0,response1disk,,7,14.63671875,15.21875,1,0,0,rectangle,14.63671875,15.21875,1,0,0,14.63671875,15.21875,1,0,0,1,47,207,140,1,,,,,,,,
,,,,,,,,,,,,,FF,,,,,,,,0.5315,,,,,,,,,,,,,,,,,,,,,,60fdca1a87839971dfef0270,610378ba8aa60ca94ea087f6,2021-07-29_22h58.53.312,Simcolourproject_2stim_asymm_v5,2020.2.10,MacIntel,60,61025ae37ef11b136ea224fe,,,,,,,,,3820,30.22265625,65.984375,1,0,0,response1disk,,7,0.8203125,2.671875,1,0,0,rectangle,0.8203125,2.671875,1,0,0,0.8203125,2.671875,1,0,0,1,48,208,77,1,,,,,,,,
,,,,,,,,,,,,,FF,,,,,,,,0.8133,,,,,,,,,,,,,,,,,,,,,,60fdca1a87839971dfef0270,610378ba8aa60ca94ea087f6,2021-07-29_22h58.53.312,Simcolourproject_2stim_asymm_v5,2020.2.10,MacIntel,60,61025ae37ef11b136ea224fe,,,,,,,,,2309,79.10546875,31.73046875,1,0,0,response1disk,,6,15.83203125,-12.30078125,1,0,0,rectangle,15.83203125,-12.30078125,1,0,0,15.83203125,-12.30078125,1,0,0,1,49,209,46,1,,,,,,,,
,,,,,,,,,,,,,FF,,,,,,,,0.9644,,,,,,,,,,,,,,,,,,,,,,60fdca1a87839971dfef0270,610378ba8aa60ca94ea087f6,2021-07-29_22h58.53.312,Simcolourproject_2stim_asymm_v5,2020.2.10,MacIntel,60,61025ae37ef11b136ea224fe,,,,,,,,,3473,-64.4921875,33.65234375,1,0,0,response7disk,,1,-9.4140625,-0.640625,1,0,0,rectangle,-9.4140625,-0.640625,1,0,0,-9.4140625,-0.640625,1,0,0,1,50,210,82,1,,,,,,,,
,,,,,,,,,,,,,FF,,,,,,,,0.9812,,,,,,,,,,,,,,,,,,,,,,60fdca1a87839971dfef0270,610378ba8aa60ca94ea087f6,2021-07-29_22h58.53.312,Simcolourproject_2stim_asymm_v5,2020.2.10,MacIntel,60,61025ae37ef11b136ea224fe,,,,,,,,,1667,-58.5234375,-35.62890625,1,0,0,response5disk,,2,11.0625,-1.796875,1,0,0,rectangle,11.0625,-1.796875,1,0,0,11.0625,-1.796875,1,0,0,1,51,211,148,1,,,,,,,,
,,,,,,,,,,,,,FF,,,,,,,,1.0634,,,,,,,,,,,,,,,,,,,,,,60fdca1a87839971dfef0270,610378ba8aa60ca94ea087f6,2021-07-29_22h58.53.312,Simcolourproject_2stim_asymm_v5,2020.2.10,MacIntel,60,61025ae37ef11b136ea224fe,,,,,,,,,2186,-28.00390625,-58.875,1,0,0,response5disk,,3,-20.73046875,-0.71875,1,0,0,rectangle,-20.73046875,-0.71875,1,0,0,-20.73046875,-0.71875,1,0,0,1,52,212,79,1,,,,,,,,
,,,,,,,,,,,,,FF,,,,,,,,0.6985,,,,,,,,,,,,,,,,,,,,,,60fdca1a87839971dfef0270,610378ba8aa60ca94ea087f6,2021-07-29_22h58.53.312,Simcolourproject_2stim_asymm_v5,2020.2.10,MacIntel,60,61025ae37ef11b136ea224fe,,,,,,,,,90,21.80078125,80.60546875,1,0,0,response1disk,,7,-8.68359375,4.7421875,1,0,0,rectangle,-8.68359375,4.7421875,1,0,0,-8.68359375,4.7421875,1,0,0,1,53,213,24,1,,,,,,,,
,,,,,,,,,,,,,FF,,,,,,,,0.5819,,,,,,,,,,,,,,,,,,,,,,60fdca1a87839971dfef0270,610378ba8aa60ca94ea087f6,2021-07-29_22h58.53.312,Simcolourproject_2stim_asymm_v5,2020.2.10,MacIntel,60,61025ae37ef11b136ea224fe,,,,,,,,,605,22.4140625,69.9765625,1,0,0,response1disk,,7,-5.60546875,3.85546875,1,0,0,rectangle,-5.60546875,3.85546875,1,0,0,-5.60546875,3.85546875,1,0,0,1,54,214,40,1,,,,,,,,
,,,,,,,,,,,,,FF,,,,,,,,0.6483,,,,,,,,,,,,,,,,,,,,,,60fdca1a87839971dfef0270,610378ba8aa60ca94ea087f6,2021-07-29_22h58.53.312,Simcolourproject_2stim_asymm_v5,2020.2.10,MacIntel,60,61025ae37ef11b136ea224fe,,,,,,,,,2980,45.50390625,77.2890625,1,0,0,response1disk,,7,12.984375,-3.6875,1,0,0,rectangle,12.984375,-3.6875,1,0,0,12.984375,-3.6875,1,0,0,1,55,215,64,1,,,,,,,,
,,,,,,,,,,,,,FF,,,,,,,,1.0633,,,,,,,,,,,,,,,,,,,,,,60fdca1a87839971dfef0270,610378ba8aa60ca94ea087f6,2021-07-29_22h58.53.312,Simcolourproject_2stim_asymm_v5,2020.2.10,MacIntel,60,61025ae37ef11b136ea224fe,,,,,,,,,2102,-27.9296875,-82.6640625,1,0,0,response5disk,,3,2.8984375,-11.8125,1,0,0,rectangle,2.8984375,-11.8125,1,0,0,2.8984375,-11.8125,1,0,0,1,56,216,9,1,,,,,,,,
,,,,,,,,,,,,,FF,,,,,,,,0.7148,,,,,,,,,,,,,,,,,,,,,,60fdca1a87839971dfef0270,610378ba8aa60ca94ea087f6,2021-07-29_22h58.53.312,Simcolourproject_2stim_asymm_v5,2020.2.10,MacIntel,60,61025ae37ef11b136ea224fe,,,,,,,,,2533,31.5703125,48.65234375,1,0,0,response1disk,,7,-11.99609375,-12.3125,1,0,0,rectangle,-11.99609375,-12.3125,1,0,0,-11.99609375,-12.3125,1,0,0,1,57,217,109,1,,,,,,,,
,,,,,,,,,,,,,FF,,,,,,,,0.7322,,,,,,,,,,,,,,,,,,,,,,60fdca1a87839971dfef0270,610378ba8aa60ca94ea087f6,2021-07-29_22h58.53.312,Simcolourproject_2stim_asymm_v5,2020.2.10,MacIntel,60,61025ae37ef11b136ea224fe,,,,,,,,,4284,49.31640625,95.76171875,1,0,0,response1disk,,7,-1.60546875,-2.9609375,1,0,0,rectangle,-1.60546875,-2.9609375,1,0,0,-1.60546875,-2.9609375,1,0,0,1,58,218,114,1,,,,,,,,
,,,,,,,,,,,,,FF,,,,,,,,0.4824,,,,,,,,,,,,,,,,,,,,,,60fdca1a87839971dfef0270,610378ba8aa60ca94ea087f6,2021-07-29_22h58.53.312,Simcolourproject_2stim_asymm_v5,2020.2.10,MacIntel,60,61025ae37ef11b136ea224fe,,,,,,,,,2582,26.375,52.265625,1,0,0,response1disk,,7,0.43359375,-6.58203125,1,0,0,rectangle,0.43359375,-6.58203125,1,0,0,0.43359375,-6.58203125,1,0,0,1,59,219,81,1,,,,,,,,
,,,,,,,,,,,,,FF,,,,,,,,0.7479,,,,,,,,,,,,,,,,,,,,,,60fdca1a87839971dfef0270,610378ba8aa60ca94ea087f6,2021-07-29_22h58.53.312,Simcolourproject_2stim_asymm_v5,2020.2.10,MacIntel,60,61025ae37ef11b136ea224fe,,,,,,,,,2180,75.5234375,28.24609375,1,0,0,response1disk,,6,26.453125,-1.54296875,1,0,0,rectangle,26.453125,-1.54296875,1,0,0,26.453125,-1.54296875,1,0,0,1,60,220,1,1,,,,,,,,
,,,,,,,,,,,,,FF,,,,,,,,0.764,,,,,,,,,,,,,,,,,,,,,,60fdca1a87839971dfef0270,610378ba8aa60ca94ea087f6,2021-07-29_22h58.53.312,Simcolourproject_2stim_asymm_v5,2020.2.10,MacIntel,60,61025ae37ef11b136ea224fe,,,,,,,,,2993,-46.0625,73.7734375,1,0,0,response7disk,,0,-7.265625,-6.81640625,1,0,0,rectangle,-7.265625,-6.81640625,1,0,0,-7.265625,-6.81640625,1,0,0,1,61,221,8,1,,,,,,,,
,,,,,,,,,,,,,FF,,,,,,,,1.6468,,,,,,,,,,,,,,,,,,,,,,60fdca1a87839971dfef0270,610378ba8aa60ca94ea087f6,2021-07-29_22h58.53.312,Simcolourproject_2stim_asymm_v5,2020.2.10,MacIntel,60,61025ae37ef11b136ea224fe,,,,,,,,,3894,41.30859375,-76.44140625,1,0,0,response3disk,,4,14.2890625,5.2265625,1,0,0,rectangle,14.2890625,5.2265625,1,0,0,14.2890625,5.2265625,1,0,0,1,62,222,136,1,,,,,,,,
,,,,,,,,,,,,,FF,,,,,,,,1.3309,,,,,,,,,,,,,,,,,,,,,,60fdca1a87839971dfef0270,610378ba8aa60ca94ea087f6,2021-07-29_22h58.53.312,Simcolourproject_2stim_asymm_v5,2020.2.10,MacIntel,60,61025ae37ef11b136ea224fe,,,,,,,,,2799,-16.19140625,-90.3359375,1,0,0,response5disk,,3,13.59765625,-1.3515625,1,0,0,rectangle,13.59765625,-1.3515625,1,0,0,13.59765625,-1.3515625,1,0,0,1,63,223,43,1,,,,,,,,
,,,,,,,,,,,,,FF,,,,,,,,1.5142,,,,,,,,,,,,,,,,,,,,,,60fdca1a87839971dfef0270,610378ba8aa60ca94ea087f6,2021-07-29_22h58.53.312,Simcolourproject_2stim_asymm_v5,2020.2.10,MacIntel,60,61025ae37ef11b136ea224fe,,,,,,,,,1482,83.52734375,42.7578125,1,0,0,response1disk,,6,5.66796875,3.30859375,1,0,0,rectangle,5.66796875,3.30859375,1,0,0,5.66796875,3.30859375,1,0,0,1,64,224,80,1,,,,,,,,
,,,,,,,,,,,,,FF,,,,,,,,1.8946,,,,,,,,,,,,,,,,,,,,,,60fdca1a87839971dfef0270,610378ba8aa60ca94ea087f6,2021-07-29_22h58.53.312,Simcolourproject_2stim_asymm_v5,2020.2.10,MacIntel,60,61025ae37ef11b136ea224fe,,,,,,,,,4338,20.6015625,-79.59765625,1,0,0,response3disk,,4,-6.76171875,-2.3515625,1,0,0,rectangle,-6.76171875,-2.3515625,1,0,0,-6.76171875,-2.3515625,1,0,0,1,65,225,15,1,,,,,,,,
,,,,,,,,,,,,,FF,,,,,,,,0.8657,,,,,,,,,,,,,,,,,,,,,,60fdca1a87839971dfef0270,610378ba8aa60ca94ea087f6,2021-07-29_22h58.53.312,Simcolourproject_2stim_asymm_v5,2020.2.10,MacIntel,60,61025ae37ef11b136ea224fe,,,,,,,,,731,37.15234375,-75.9765625,1,0,0,response3disk,,4,10.48046875,-2.66015625,1,0,0,rectangle,10.48046875,-2.66015625,1,0,0,10.48046875,-2.66015625,1,0,0,1,66,226,125,1,,,,,,,,
,,,,,,,,,,,,,FF,,,,,,,,0.9468,,,,,,,,,,,,,,,,,,,,,,60fdca1a87839971dfef0270,610378ba8aa60ca94ea087f6,2021-07-29_22h58.53.312,Simcolourproject_2stim_asymm_v5,2020.2.10,MacIntel,60,61025ae37ef11b136ea224fe,,,,,,,,,1152,71.4453125,-32.0234375,1,0,0,response3disk,,5,-3.60546875,-2.234375,1,0,0,rectangle,-3.60546875,-2.234375,1,0,0,-3.60546875,-2.234375,1,0,0,1,67,227,45,1,,,,,,,,
,,,,,,,,,,,,,FF,,,,,,,,0.6316,,,,,,,,,,,,,,,,,,,,,,60fdca1a87839971dfef0270,610378ba8aa60ca94ea087f6,2021-07-29_22h58.53.312,Simcolourproject_2stim_asymm_v5,2020.2.10,MacIntel,60,61025ae37ef11b136ea224fe,,,,,,,,,2767,49.046875,98.48828125,1,0,0,response1disk,,7,2.015625,-4.9296875,1,0,0,rectangle,2.015625,-4.9296875,1,0,0,2.015625,-4.9296875,1,0,0,1,68,228,52,1,,,,,,,,
,,,,,,,,,,,,,FF,,,,,,,,1.6622,,,,,,,,,,,,,,,,,,,,,,60fdca1a87839971dfef0270,610378ba8aa60ca94ea087f6,2021-07-29_22h58.53.312,Simcolourproject_2stim_asymm_v5,2020.2.10,MacIntel,60,61025ae37ef11b136ea224fe,,,,,,,,,2352,89.57421875,29.6328125,1,0,0,response1disk,,6,21.4921875,6.078125,1,0,0,rectangle,21.4921875,6.078125,1,0,0,21.4921875,6.078125,1,0,0,1,69,229,118,1,,,,,,,,
,,,,,,,,,,,,,FF,,,,,,,,1.3125,,,,,,,,,,,,,,,,,,,,,,60fdca1a87839971dfef0270,610378ba8aa60ca94ea087f6,2021-07-29_22h58.53.312,Simcolourproject_2stim_asymm_v5,2020.2.10,MacIntel,60,61025ae37ef11b136ea224fe,,,,,,,,,3041,-67.14453125,-35.48828125,1,0,0,response5disk,,2,-4.140625,8.54296875,1,0,0,rectangle,-4.140625,8.54296875,1,0,0,-4.140625,8.54296875,1,0,0,1,70,230,108,1,,,,,,,,
,,,,,,,,,,,,,FF,,,,,,,,0.7483,,,,,,,,,,,,,,,,,,,,,,60fdca1a87839971dfef0270,610378ba8aa60ca94ea087f6,2021-07-29_22h58.53.312,Simcolourproject_2stim_asymm_v5,2020.2.10,MacIntel,60,61025ae37ef11b136ea224fe,,,,,,,,,2957,-39.12890625,-86.37109375,1,0,0,response5disk,,3,-1.0234375,14.46875,1,0,0,rectangle,-1.0234375,14.46875,1,0,0,-1.0234375,14.46875,1,0,0,1,71,231,73,1,,,,,,,,
,,,,,,,,,,,,,FF,,,,,,,,1.7956,,,,,,,,,,,,,,,,,,,,,,60fdca1a87839971dfef0270,610378ba8aa60ca94ea087f6,2021-07-29_22h58.53.312,Simcolourproject_2stim_asymm_v5,2020.2.10,MacIntel,60,61025ae37ef11b136ea224fe,,,,,,,,,1984,49.2421875,-76.7421875,1,0,0,response3disk,,4,8.40625,-2.34765625,1,0,0,rectangle,8.40625,-2.34765625,1,0,0,8.40625,-2.34765625,1,0,0,1,72,232,120,1,,,,,,,,
,,,,,,,,,,,,,FF,,,,,,,,2.5971,,,,,,,,,,,,,,,,,,,,,,60fdca1a87839971dfef0270,610378ba8aa60ca94ea087f6,2021-07-29_22h58.53.312,Simcolourproject_2stim_asymm_v5,2020.2.10,MacIntel,60,61025ae37ef11b136ea224fe,,,,,,,,,633,-91.39453125,-31.78125,1,0,0,response5disk,,2,-10.3359375,-0.609375,1,0,0,rectangle,-10.3359375,-0.609375,1,0,0,-10.3359375,-0.609375,1,0,0,1,73,233,19,1,,,,,,,,
,,,,,,,,,,,,,FF,,,,,,,,0.8148,,,,,,,,,,,,,,,,,,,,,,60fdca1a87839971dfef0270,610378ba8aa60ca94ea087f6,2021-07-29_22h58.53.312,Simcolourproject_2stim_asymm_v5,2020.2.10,MacIntel,60,61025ae37ef11b136ea224fe,,,,,,,,,2433,-31.04296875,-98.859375,1,0,0,response5disk,,3,-6.796875,7.98046875,1,0,0,rectangle,-6.796875,7.98046875,1,0,0,-6.796875,7.98046875,1,0,0,1,74,234,154,1,,,,,,,,
,,,,,,,,,,,,,FF,,,,,,,,0.6973,,,,,,,,,,,,,,,,,,,,,,60fdca1a87839971dfef0270,610378ba8aa60ca94ea087f6,2021-07-29_22h58.53.312,Simcolourproject_2stim_asymm_v5,2020.2.10,MacIntel,60,61025ae37ef11b136ea224fe,,,,,,,,,2809,42.39453125,90.19140625,1,0,0,response1disk,,7,-4.71484375,4.20703125,1,0,0,rectangle,-4.71484375,4.20703125,1,0,0,-4.71484375,4.20703125,1,0,0,1,75,235,39,1,,,,,,,,
,,,,,,,,,,,,,FF,,,,,,,,0.566,,,,,,,,,,,,,,,,,,,,,,60fdca1a87839971dfef0270,610378ba8aa60ca94ea087f6,2021-07-29_22h58.53.312,Simcolourproject_2stim_asymm_v5,2020.2.10,MacIntel,60,61025ae37ef11b136ea224fe,,,,,,,,,54,22.6484375,64.7109375,1,0,0,response1disk,,7,-9.875,-5.14453125,1,0,0,rectangle,-9.875,-5.14453125,1,0,0,-9.875,-5.14453125,1,0,0,1,76,236,18,1,,,,,,,,
,,,,,,,,,,,,,FF,,,,,,,,0.9483,,,,,,,,,,,,,,,,,,,,,,60fdca1a87839971dfef0270,610378ba8aa60ca94ea087f6,2021-07-29_22h58.53.312,Simcolourproject_2stim_asymm_v5,2020.2.10,MacIntel,60,61025ae37ef11b136ea224fe,,,,,,,,,372,72.18359375,-40.20703125,1,0,0,response3disk,,5,-2.90625,-1.796875,1,0,0,rectangle,-2.90625,-1.796875,1,0,0,-2.90625,-1.796875,1,0,0,1,77,237,25,1,,,,,,,,
,,,,,,,,,,,,,FF,,,,,,,,1.1303,,,,,,,,,,,,,,,,,,,,,,60fdca1a87839971dfef0270,610378ba8aa60ca94ea087f6,2021-07-29_22h58.53.312,Simcolourproject_2stim_asymm_v5,2020.2.10,MacIntel,60,61025ae37ef11b136ea224fe,,,,,,,,,3236,-69.68359375,-30.89453125,1,0,0,response5disk,,2,14.14453125,11.3671875,1,0,0,rectangle,14.14453125,11.3671875,1,0,0,14.14453125,11.3671875,1,0,0,1,78,238,87,1,,,,,,,,
,,,,,,,,,,,,,FF,,,,,,,,1.0141,,,,,,,,,,,,,,,,,,,,,,60fdca1a87839971dfef0270,610378ba8aa60ca94ea087f6,2021-07-29_22h58.53.312,Simcolourproject_2stim_asymm_v5,2020.2.10,MacIntel,60,61025ae37ef11b136ea224fe,,,,,,,,,437,-76.609375,-41.6328125,1,0,0,response5disk,,2,7.91015625,-8.7265625,1,0,0,rectangle,7.91015625,-8.7265625,1,0,0,7.91015625,-8.7265625,1,0,0,1,79,239,84,1,,,,,,,,
,,,,,,,,,,,,,FF,,,,,,,,0.6304,,,,,,,,,,,,,,,,,,,,,,60fdca1a87839971dfef0270,610378ba8aa60ca94ea087f6,2021-07-29_22h58.53.312,Simcolourproject_2stim_asymm_v5,2020.2.10,MacIntel,60,61025ae37ef11b136ea224fe,,,,,,,,,2191,39.77734375,59.4375,1,0,0,response1disk,,7,12.06640625,3.4375,1,0,0,rectangle,12.06640625,3.4375,1,0,0,12.06640625,3.4375,1,0,0,1,80,240,34,1,,,,,,,,
,,,,,,,,,,,,,FF,,,,,,,,0.8479,,,,,,,,,,,,,,,,,,,,,,60fdca1a87839971dfef0270,610378ba8aa60ca94ea087f6,2021-07-29_22h58.53.312,Simcolourproject_2stim_asymm_v5,2020.2.10,MacIntel,60,61025ae37ef11b136ea224fe,,,,,,,,,1051,-27.76953125,82.68359375,1,0,0,response7disk,,0,-12.875,10.28515625,1,0,0,rectangle,-67.83203125,36.265625,1,0,0,-9.33203125,-11.53515625,1,0,0,1,81,241,133,1,,response7disk_3,TRUE,1,1,"[63,243,112,271,10,37,273,179,242,90,11,30,192,119,38,91,192,35,205,86]",0.949,rectangle
,,,,,,,,,,,,,FF,,,,,,,,1.5451,,,,,,,,,,,,,,,,,,,,,,60fdca1a87839971dfef0270,610378ba8aa60ca94ea087f6,2021-07-29_22h58.53.312,Simcolourproject_2stim_asymm_v5,2020.2.10,MacIntel,60,61025ae37ef11b136ea224fe,,,,,,,,,4336,-69.64453125,-50.41015625,1,0,0,response5disk,,2,-1.09765625,-5.37890625,1,0,0,rectangle,-79.37890625,29.18359375,1,0,0,-2.55859375,8.78515625,1,0,0,1,82,242,130,1,,response7disk_3,TRUE,1,1,"[63,243,112,271,10,37,273,179,242,90,11,30,192,119,38,91,192,35,205,86]",1.3137,rectangle
,,,,,,,,,,,,,FF,,,,,,,,0.8146,,,,,,,,,,,,,,,,,,,,,,60fdca1a87839971dfef0270,610378ba8aa60ca94ea087f6,2021-07-29_22h58.53.312,Simcolourproject_2stim_asymm_v5,2020.2.10,MacIntel,60,61025ae37ef11b136ea224fe,,,,,,,,,1031,21.99609375,79.0234375,1,0,0,response1disk,,7,-0.17578125,-2.03125,1,0,0,rectangle,-0.17578125,-2.03125,1,0,0,-0.17578125,-2.03125,1,0,0,1,83,243,68,1,,,,,,,,
,,,,,,,,,,,,,FF,,,,,,,,1.1135,,,,,,,,,,,,,,,,,,,,,,60fdca1a87839971dfef0270,610378ba8aa60ca94ea087f6,2021-07-29_22h58.53.312,Simcolourproject_2stim_asymm_v5,2020.2.10,MacIntel,60,61025ae37ef11b136ea224fe,,,,,,,,,867,-41.35546875,-67.421875,1,0,0,response5disk,,3,-12.953125,-14.80859375,1,0,0,rectangle,-12.953125,-14.80859375,1,0,0,-12.953125,-14.80859375,1,0,0,1,84,244,138,1,,,,,,,,
,,,,,,,,,,,,,FF,,,,,,,,1.3303,,,,,,,,,,,,,,,,,,,,,,60fdca1a87839971dfef0270,610378ba8aa60ca94ea087f6,2021-07-29_22h58.53.312,Simcolourproject_2stim_asymm_v5,2020.2.10,MacIntel,60,61025ae37ef11b136ea224fe,,,,,,,,,2404,42.0859375,-85.08984375,1,0,0,response3disk,,4,16.453125,-3.6875,1,0,0,rectangle,16.453125,-3.6875,1,0,0,16.453125,-3.6875,1,0,0,1,85,245,59,1,,,,,,,,
,,,,,,,,,,,,,FF,,,,,,,,0.6475,,,,,,,,,,,,,,,,,,,,,,60fdca1a87839971dfef0270,610378ba8aa60ca94ea087f6,2021-07-29_22h58.53.312,Simcolourproject_2stim_asymm_v5,2020.2.10,MacIntel,60,61025ae37ef11b136ea224fe,,,,,,,,,3383,-27.15234375,77.51953125,1,0,0,response7disk,,0,20.99609375,3.1640625,1,0,0,rectangle,20.99609375,3.1640625,1,0,0,20.99609375,3.1640625,1,0,0,1,86,246,144,1,,,,,,,,
,,,,,,,,,,,,,FF,,,,,,,,1.3804,,,,,,,,,,,,,,,,,,,,,,60fdca1a87839971dfef0270,610378ba8aa60ca94ea087f6,2021-07-29_22h58.53.312,Simcolourproject_2stim_asymm_v5,2020.2.10,MacIntel,60,61025ae37ef11b136ea224fe,,,,,,,,,2906,-43.31640625,-73.734375,1,0,0,response5disk,,3,9.6796875,7.66796875,1,0,0,rectangle,9.6796875,7.66796875,1,0,0,9.6796875,7.66796875,1,0,0,1,87,247,150,1,,,,,,,,
,,,,,,,,,,,,,FF,,,,,,,,0.614,,,,,,,,,,,,,,,,,,,,,,60fdca1a87839971dfef0270,610378ba8aa60ca94ea087f6,2021-07-29_22h58.53.312,Simcolourproject_2stim_asymm_v5,2020.2.10,MacIntel,60,61025ae37ef11b136ea224fe,,,,,,,,,2926,35.66015625,90.9921875,1,0,0,response1disk,,7,6.91015625,3.125,1,0,0,rectangle,6.91015625,3.125,1,0,0,6.91015625,3.125,1,0,0,1,88,248,115,1,,,,,,,,
