key_resp.keys,key_resp.rt,key_resp_14.keys,key_resp_14.rt,key_resp_15.keys,key_resp_15.rt,key_resp_17.keys,key_resp_17.rt,key_resp_9.keys,key_resp_9.rt,key_resp_10.keys,key_resp_10.rt,practice_comparison,Ecc,mouse_5.x,mouse_5.y,mouse_5.leftButton,mouse_5.midButton,mouse_5.rightButton,mouse_5.clicked_name,pracsimilarity,response_time,mouse_10.x,mouse_10.y,mouse_10.leftButton,mouse_10.midButton,mouse_10.rightButton,mouse_10.clicked_name,mouse_7.x,mouse_7.y,mouse_7.leftButton,mouse_7.midButton,mouse_7.rightButton,mouse_6.x,mouse_6.y,mouse_6.leftButton,mouse_6.midButton,mouse_6.rightButton,duringprac.thisRepN,duringprac.thisTrialN,duringprac.thisN,duringprac.thisIndex,duringprac.ran,participant,session,date,expName,psychopyVersion,OS,frameRate,study_id,mouse_7.clicked_name,catchpracsimilarity,catch_response_time,catchnumberprac,catchtrialorderprac,mouse_6.clicked_name,key_resp_22.keys,key_resp_22.rt,realcomparison,mouse.x,mouse.y,mouse.leftButton,mouse.midButton,mouse.rightButton,mouse.clicked_name,Colour2,similarity,mouse_2.x,mouse_2.y,mouse_2.leftButton,mouse_2.midButton,mouse_2.rightButton,mouse_2.clicked_name,mouse_3.x,mouse_3.y,mouse_3.leftButton,mouse_3.midButton,mouse_3.rightButton,mouse_11.x,mouse_11.y,mouse_11.leftButton,mouse_11.midButton,mouse_11.rightButton,trials_2.thisRepN,trials_2.thisTrialN,trials_2.thisN,trials_2.thisIndex,trials_2.ran,Colour1,mouse_3.clicked_name,catchornah,catchsimilarity,catchnumber,catchtrialorder,catchRT,mouse_11.clicked_name
space,2.3802,space,220.2459,space,56.3032,space,19.4035,space,2.1861,space,3.792,103,PF,-37,69,1,0,0,response7disk_5,0,7.3528,-1,-2,1,0,0,rectangle_8,-1,-2,1,0,0,-1,-2,1,0,0,0,0,0,6,1,60fdca594b75824bdfe2f7fe,61036ef6272321e9cb645269,2021-07-30_05h18.45.024,Simcolourproject_2stim_asymm_v5,2020.2.10,Win32,60,61025ae37ef11b136ea224fe,,,,,,,,,,,,,,,,,,,,,,,,,,,,,,,,,,,,,,,,,,,,,,
,,,,,,,,,,,,153,FF,46,92,1,0,0,response1disk_5,7,16.2021,-3,9,1,0,0,rectangle_8,85,-46,1,0,0,2,-1,1,0,0,0,1,1,5,1,60fdca594b75824bdfe2f7fe,61036ef6272321e9cb645269,2021-07-30_05h18.45.024,Simcolourproject_2stim_asymm_v5,2020.2.10,Win32,60,61025ae37ef11b136ea224fe,response3disk_7,5,4.3313,5,"[2,5]",rectangle_4,,,,,,,,,,,,,,,,,,,,,,,,,,,,,,,,,,,,,,,,
,,,,,,,,,,,,99,FF,49,95,1,0,0,response1disk_5,7,9.3997,-3,3,1,0,0,rectangle_8,-3,3,1,0,0,-3,3,1,0,0,0,2,2,0,1,60fdca594b75824bdfe2f7fe,61036ef6272321e9cb645269,2021-07-30_05h18.45.024,Simcolourproject_2stim_asymm_v5,2020.2.10,Win32,60,61025ae37ef11b136ea224fe,,,,,,,,,,,,,,,,,,,,,,,,,,,,,,,,,,,,,,,,,,,,,,
,,,,,,,,,,,,41,PF,49,-68,1,0,0,response3disk_5,4,5.4312,-3,7,1,0,0,rectangle_8,-3,7,1,0,0,-3,7,1,0,0,0,3,3,4,1,60fdca594b75824bdfe2f7fe,61036ef6272321e9cb645269,2021-07-30_05h18.45.024,Simcolourproject_2stim_asymm_v5,2020.2.10,Win32,60,61025ae37ef11b136ea224fe,,,,,,,,,,,,,,,,,,,,,,,,,,,,,,,,,,,,,,,,,,,,,,
,,,,,,,,,,,,15,PF,58,97,1,0,0,response1disk_5,7,2.6874,1,-4,1,0,0,rectangle_8,62,-29,1,0,0,-5,10,1,0,0,0,4,4,2,1,60fdca594b75824bdfe2f7fe,61036ef6272321e9cb645269,2021-07-30_05h18.45.024,Simcolourproject_2stim_asymm_v5,2020.2.10,Win32,60,61025ae37ef11b136ea224fe,response3disk_7,5,2.3183,5,"[2,5]",rectangle_4,,,,,,,,,,,,,,,,,,,,,,,,,,,,,,,,,,,,,,,,
,,,,,,,,,,,,0,PF,-32,-69,1,0,0,response5disk_5,3,5.1819,-5,9,1,0,0,rectangle_8,-5,9,1,0,0,-5,9,1,0,0,0,5,5,1,1,60fdca594b75824bdfe2f7fe,61036ef6272321e9cb645269,2021-07-30_05h18.45.024,Simcolourproject_2stim_asymm_v5,2020.2.10,Win32,60,61025ae37ef11b136ea224fe,,,,,,,,,,,,,,,,,,,,,,,,,,,,,,,,,,,,,,,,,,,,,,
,,,,,,,,,,,,85,FF,-89,39,1,0,0,response7disk_5,1,3.518,-2,-1,1,0,0,rectangle_8,-2,-1,1,0,0,-2,-1,1,0,0,0,6,6,3,1,60fdca594b75824bdfe2f7fe,61036ef6272321e9cb645269,2021-07-30_05h18.45.024,Simcolourproject_2stim_asymm_v5,2020.2.10,Win32,60,61025ae37ef11b136ea224fe,,,,,,,,,,,,,,,,,,,,,,,,,,,,,,,,,,,,,,,,,,,,,,
,,,,,,,,,,,,,FF,,,,,,,,5.532,,,,,,,,,,,,,,,,,,,,,,60fdca594b75824bdfe2f7fe,61036ef6272321e9cb645269,2021-07-30_05h18.45.024,Simcolourproject_2stim_asymm_v5,2020.2.10,Win32,60,61025ae37ef11b136ea224fe,,,,,,,space,3.07,3445,-77,38,1,0,0,response7disk,,1,-9,6,1,0,0,rectangle,-9,6,1,0,0,-9,6,1,0,0,0,0,0,123,1,,,,,,,,
,,,,,,,,,,,,,FF,,,,,,,,3.5516,,,,,,,,,,,,,,,,,,,,,,60fdca594b75824bdfe2f7fe,61036ef6272321e9cb645269,2021-07-30_05h18.45.024,Simcolourproject_2stim_asymm_v5,2020.2.10,Win32,60,61025ae37ef11b136ea224fe,,,,,,,,,3808,-40,89,1,0,0,response7disk,,0,-5,-1,1,0,0,rectangle,-5,-1,1,0,0,-5,-1,1,0,0,0,1,1,39,1,,,,,,,,
,,,,,,,,,,,,,FF,,,,,,,,1.5641,,,,,,,,,,,,,,,,,,,,,,60fdca594b75824bdfe2f7fe,61036ef6272321e9cb645269,2021-07-30_05h18.45.024,Simcolourproject_2stim_asymm_v5,2020.2.10,Win32,60,61025ae37ef11b136ea224fe,,,,,,,,,2606,-39,78,1,0,0,response7disk,,0,-7,4,1,0,0,rectangle,-7,4,1,0,0,-7,4,1,0,0,0,2,2,76,1,,,,,,,,
,,,,,,,,,,,,,FF,,,,,,,,1.1689,,,,,,,,,,,,,,,,,,,,,,60fdca594b75824bdfe2f7fe,61036ef6272321e9cb645269,2021-07-30_05h18.45.024,Simcolourproject_2stim_asymm_v5,2020.2.10,Win32,60,61025ae37ef11b136ea224fe,,,,,,,,,13,-32,73,1,0,0,response7disk,,0,9,-5,1,0,0,rectangle,9,-5,1,0,0,9,-5,1,0,0,0,3,3,111,1,,,,,,,,
,,,,,,,,,,,,,FF,,,,,,,,1.2374,,,,,,,,,,,,,,,,,,,,,,60fdca594b75824bdfe2f7fe,61036ef6272321e9cb645269,2021-07-30_05h18.45.024,Simcolourproject_2stim_asymm_v5,2020.2.10,Win32,60,61025ae37ef11b136ea224fe,,,,,,,,,2892,-51,88,1,0,0,response7disk,,0,0,-3,1,0,0,rectangle,0,-3,1,0,0,0,-3,1,0,0,0,4,4,117,1,,,,,,,,
,,,,,,,,,,,,,FF,,,,,,,,1.1679,,,,,,,,,,,,,,,,,,,,,,60fdca594b75824bdfe2f7fe,61036ef6272321e9cb645269,2021-07-30_05h18.45.024,Simcolourproject_2stim_asymm_v5,2020.2.10,Win32,60,61025ae37ef11b136ea224fe,,,,,,,,,1389,-38,84,1,0,0,response7disk,,0,-8,-6,1,0,0,rectangle,-8,-6,1,0,0,-8,-6,1,0,0,0,5,5,104,1,,,,,,,,
,,,,,,,,,,,,,FF,,,,,,,,1.0318,,,,,,,,,,,,,,,,,,,,,,60fdca594b75824bdfe2f7fe,61036ef6272321e9cb645269,2021-07-30_05h18.45.024,Simcolourproject_2stim_asymm_v5,2020.2.10,Win32,60,61025ae37ef11b136ea224fe,,,,,,,,,4099,-43,89,1,0,0,response7disk,,0,-12,10,1,0,0,rectangle,-12,10,1,0,0,-12,10,1,0,0,0,6,6,82,1,,,,,,,,
,,,,,,,,,,,,,FF,,,,,,,,1.9206,,,,,,,,,,,,,,,,,,,,,,60fdca594b75824bdfe2f7fe,61036ef6272321e9cb645269,2021-07-30_05h18.45.024,Simcolourproject_2stim_asymm_v5,2020.2.10,Win32,60,61025ae37ef11b136ea224fe,,,,,,,,,1062,-83,42,1,0,0,response7disk,,1,4,-4,1,0,0,rectangle,4,-4,1,0,0,4,-4,1,0,0,0,7,7,67,1,,,,,,,,
,,,,,,,,,,,,,FF,,,,,,,,2.3053,,,,,,,,,,,,,,,,,,,,,,60fdca594b75824bdfe2f7fe,61036ef6272321e9cb645269,2021-07-30_05h18.45.024,Simcolourproject_2stim_asymm_v5,2020.2.10,Win32,60,61025ae37ef11b136ea224fe,,,,,,,,,3458,-84,54,1,0,0,response7disk,,1,-12,2,1,0,0,rectangle,-45,-75,1,0,0,1,9,1,0,0,0,8,8,107,1,,response5disk_3,TRUE,3,3,"[194,9,177,76,29,199,239,63,167,45,280,196,29,59,253,165,54,138,187,313]",2.5814,rectangle
,,,,,,,,,,,,,FF,,,,,,,,1.4714,,,,,,,,,,,,,,,,,,,,,,60fdca594b75824bdfe2f7fe,61036ef6272321e9cb645269,2021-07-30_05h18.45.024,Simcolourproject_2stim_asymm_v5,2020.2.10,Win32,60,61025ae37ef11b136ea224fe,,,,,,,,,425,-98,55,1,0,0,response7disk,,1,4,2,1,0,0,rectangle,4,2,1,0,0,4,2,1,0,0,0,9,9,63,1,,,,,,,,
,,,,,,,,,,,,,FF,,,,,,,,1.2687,,,,,,,,,,,,,,,,,,,,,,60fdca594b75824bdfe2f7fe,61036ef6272321e9cb645269,2021-07-30_05h18.45.024,Simcolourproject_2stim_asymm_v5,2020.2.10,Win32,60,61025ae37ef11b136ea224fe,,,,,,,,,3104,-84,43,1,0,0,response7disk,,1,-9,2,1,0,0,rectangle,-9,2,1,0,0,-9,2,1,0,0,0,10,10,113,1,,,,,,,,
,,,,,,,,,,,,,FF,,,,,,,,1.0338,,,,,,,,,,,,,,,,,,,,,,60fdca594b75824bdfe2f7fe,61036ef6272321e9cb645269,2021-07-30_05h18.45.024,Simcolourproject_2stim_asymm_v5,2020.2.10,Win32,60,61025ae37ef11b136ea224fe,,,,,,,,,2816,-82,39,1,0,0,response7disk,,1,-3,5,1,0,0,rectangle,-3,5,1,0,0,-3,5,1,0,0,0,11,11,30,1,,,,,,,,
,,,,,,,,,,,,,FF,,,,,,,,1.2044,,,,,,,,,,,,,,,,,,,,,,60fdca594b75824bdfe2f7fe,61036ef6272321e9cb645269,2021-07-30_05h18.45.024,Simcolourproject_2stim_asymm_v5,2020.2.10,Win32,60,61025ae37ef11b136ea224fe,,,,,,,,,300,-100,54,1,0,0,response7disk,,1,9,0,1,0,0,rectangle,9,0,1,0,0,9,0,1,0,0,0,12,12,88,1,,,,,,,,
,,,,,,,,,,,,,FF,,,,,,,,2.0682,,,,,,,,,,,,,,,,,,,,,,60fdca594b75824bdfe2f7fe,61036ef6272321e9cb645269,2021-07-30_05h18.45.024,Simcolourproject_2stim_asymm_v5,2020.2.10,Win32,60,61025ae37ef11b136ea224fe,,,,,,,,,2259,-32,-92,1,0,0,response5disk,,3,-1,0,1,0,0,rectangle,-1,0,1,0,0,-1,0,1,0,0,0,13,13,130,1,,,,,,,,
,,,,,,,,,,,,,FF,,,,,,,,1.2525,,,,,,,,,,,,,,,,,,,,,,60fdca594b75824bdfe2f7fe,61036ef6272321e9cb645269,2021-07-30_05h18.45.024,Simcolourproject_2stim_asymm_v5,2020.2.10,Win32,60,61025ae37ef11b136ea224fe,,,,,,,,,1868,-50,-111,1,0,0,response5disk,,3,2,1,1,0,0,rectangle,2,1,1,0,0,2,1,1,0,0,0,14,14,53,1,,,,,,,,
,,,,,,,,,,,,,FF,,,,,,,,1.4176,,,,,,,,,,,,,,,,,,,,,,60fdca594b75824bdfe2f7fe,61036ef6272321e9cb645269,2021-07-30_05h18.45.024,Simcolourproject_2stim_asymm_v5,2020.2.10,Win32,60,61025ae37ef11b136ea224fe,,,,,,,,,1091,-25,-95,1,0,0,response5disk,,3,-4,3,1,0,0,rectangle,-4,3,1,0,0,-4,3,1,0,0,0,15,15,1,1,,,,,,,,
,,,,,,,,,,,,,FF,,,,,,,,1.0353,,,,,,,,,,,,,,,,,,,,,,60fdca594b75824bdfe2f7fe,61036ef6272321e9cb645269,2021-07-30_05h18.45.024,Simcolourproject_2stim_asymm_v5,2020.2.10,Win32,60,61025ae37ef11b136ea224fe,,,,,,,,,257,-29,-57,1,0,0,response5disk,,3,-4,0,1,0,0,rectangle,-4,0,1,0,0,-4,0,1,0,0,0,16,16,3,1,,,,,,,,
,,,,,,,,,,,,,FF,,,,,,,,1.5709,,,,,,,,,,,,,,,,,,,,,,60fdca594b75824bdfe2f7fe,61036ef6272321e9cb645269,2021-07-30_05h18.45.024,Simcolourproject_2stim_asymm_v5,2020.2.10,Win32,60,61025ae37ef11b136ea224fe,,,,,,,,,1256,-33,-72,1,0,0,response5disk,,3,-4,2,1,0,0,rectangle,-4,2,1,0,0,-4,2,1,0,0,0,17,17,84,1,,,,,,,,
,,,,,,,,,,,,,FF,,,,,,,,3.3995,,,,,,,,,,,,,,,,,,,,,,60fdca594b75824bdfe2f7fe,61036ef6272321e9cb645269,2021-07-30_05h18.45.024,Simcolourproject_2stim_asymm_v5,2020.2.10,Win32,60,61025ae37ef11b136ea224fe,,,,,,,,,836,-77,44,1,0,0,response7disk,,1,5,-8,1,0,0,rectangle,5,-8,1,0,0,5,-8,1,0,0,0,18,18,106,1,,,,,,,,
,,,,,,,,,,,,,FF,,,,,,,,3.1184,,,,,,,,,,,,,,,,,,,,,,60fdca594b75824bdfe2f7fe,61036ef6272321e9cb645269,2021-07-30_05h18.45.024,Simcolourproject_2stim_asymm_v5,2020.2.10,Win32,60,61025ae37ef11b136ea224fe,,,,,,,,,1711,-46,-75,1,0,0,response5disk,,3,5,-1,1,0,0,rectangle,5,-1,1,0,0,5,-1,1,0,0,0,19,19,46,1,,,,,,,,
,,,,,,,,,,,,,FF,,,,,,,,0.9478,,,,,,,,,,,,,,,,,,,,,,60fdca594b75824bdfe2f7fe,61036ef6272321e9cb645269,2021-07-30_05h18.45.024,Simcolourproject_2stim_asymm_v5,2020.2.10,Win32,60,61025ae37ef11b136ea224fe,,,,,,,,,3909,-22,-68,1,0,0,response5disk,,3,1,4,1,0,0,rectangle,1,4,1,0,0,1,4,1,0,0,0,20,20,152,1,,,,,,,,
,,,,,,,,,,,,,FF,,,,,,,,1.6047,,,,,,,,,,,,,,,,,,,,,,60fdca594b75824bdfe2f7fe,61036ef6272321e9cb645269,2021-07-30_05h18.45.024,Simcolourproject_2stim_asymm_v5,2020.2.10,Win32,60,61025ae37ef11b136ea224fe,,,,,,,,,4069,-25,-67,1,0,0,response5disk,,3,-1,2,1,0,0,rectangle,-1,2,1,0,0,-1,2,1,0,0,0,21,21,116,1,,,,,,,,
,,,,,,,,,,,,,FF,,,,,,,,0.9868,,,,,,,,,,,,,,,,,,,,,,60fdca594b75824bdfe2f7fe,61036ef6272321e9cb645269,2021-07-30_05h18.45.024,Simcolourproject_2stim_asymm_v5,2020.2.10,Win32,60,61025ae37ef11b136ea224fe,,,,,,,,,3602,-44,-120,1,0,0,response5disk,,3,1,0,1,0,0,rectangle,1,0,1,0,0,1,0,1,0,0,0,22,22,128,1,,,,,,,,
,,,,,,,,,,,,,FF,,,,,,,,0.9704,,,,,,,,,,,,,,,,,,,,,,60fdca594b75824bdfe2f7fe,61036ef6272321e9cb645269,2021-07-30_05h18.45.024,Simcolourproject_2stim_asymm_v5,2020.2.10,Win32,60,61025ae37ef11b136ea224fe,,,,,,,,,3072,-31,-73,1,0,0,response5disk,,3,-2,1,1,0,0,rectangle,-2,1,1,0,0,-2,1,1,0,0,0,23,23,59,1,,,,,,,,
,,,,,,,,,,,,,FF,,,,,,,,0.9855,,,,,,,,,,,,,,,,,,,,,,60fdca594b75824bdfe2f7fe,61036ef6272321e9cb645269,2021-07-30_05h18.45.024,Simcolourproject_2stim_asymm_v5,2020.2.10,Win32,60,61025ae37ef11b136ea224fe,,,,,,,,,2062,-31,-47,1,0,0,response5disk,,3,-3,-2,1,0,0,rectangle,-3,-2,1,0,0,-3,-2,1,0,0,0,24,24,153,1,,,,,,,,
,,,,,,,,,,,,,FF,,,,,,,,1.4516,,,,,,,,,,,,,,,,,,,,,,60fdca594b75824bdfe2f7fe,61036ef6272321e9cb645269,2021-07-30_05h18.45.024,Simcolourproject_2stim_asymm_v5,2020.2.10,Win32,60,61025ae37ef11b136ea224fe,,,,,,,,,2185,-36,90,1,0,0,response7disk,,0,-6,3,1,0,0,rectangle,-6,3,1,0,0,-6,3,1,0,0,0,25,25,45,1,,,,,,,,
,,,,,,,,,,,,,FF,,,,,,,,2.0267,,,,,,,,,,,,,,,,,,,,,,60fdca594b75824bdfe2f7fe,61036ef6272321e9cb645269,2021-07-30_05h18.45.024,Simcolourproject_2stim_asymm_v5,2020.2.10,Win32,60,61025ae37ef11b136ea224fe,,,,,,,,,2782,-40,89,1,0,0,response7disk,,0,-3,11,1,0,0,rectangle,-3,11,1,0,0,-3,11,1,0,0,0,26,26,78,1,,,,,,,,
,,,,,,,,,,,,,FF,,,,,,,,2.664,,,,,,,,,,,,,,,,,,,,,,60fdca594b75824bdfe2f7fe,61036ef6272321e9cb645269,2021-07-30_05h18.45.024,Simcolourproject_2stim_asymm_v5,2020.2.10,Win32,60,61025ae37ef11b136ea224fe,,,,,,,,,3060,35,-83,1,0,0,response3disk,,4,-2,1,1,0,0,rectangle,-2,1,1,0,0,-2,1,1,0,0,0,27,27,149,1,,,,,,,,
,,,,,,,,,,,,,FF,,,,,,,,1.2517,,,,,,,,,,,,,,,,,,,,,,60fdca594b75824bdfe2f7fe,61036ef6272321e9cb645269,2021-07-30_05h18.45.024,Simcolourproject_2stim_asymm_v5,2020.2.10,Win32,60,61025ae37ef11b136ea224fe,,,,,,,,,643,50,-75,1,0,0,response3disk,,4,5,9,1,0,0,rectangle,48,95,1,0,0,-16,0,1,0,0,0,28,28,48,1,,response1disk_3,TRUE,7,7,"[194,9,177,76,29,199,239,63,167,45,280,196,29,59,253,165,54,138,187,313]",3.7044,rectangle
,,,,,,,,,,,,,FF,,,,,,,,3.4186,,,,,,,,,,,,,,,,,,,,,,60fdca594b75824bdfe2f7fe,61036ef6272321e9cb645269,2021-07-30_05h18.45.024,Simcolourproject_2stim_asymm_v5,2020.2.10,Win32,60,61025ae37ef11b136ea224fe,,,,,,,,,4019,43,81,1,0,0,response1disk,,7,0,2,1,0,0,rectangle,0,2,1,0,0,0,2,1,0,0,0,29,29,101,1,,,,,,,,
,,,,,,,,,,,,,FF,,,,,,,,2.0554,,,,,,,,,,,,,,,,,,,,,,60fdca594b75824bdfe2f7fe,61036ef6272321e9cb645269,2021-07-30_05h18.45.024,Simcolourproject_2stim_asymm_v5,2020.2.10,Win32,60,61025ae37ef11b136ea224fe,,,,,,,,,78,87,32,1,0,0,response1disk,,6,-12,-13,1,0,0,rectangle,-12,-13,1,0,0,-12,-13,1,0,0,0,30,30,77,1,,,,,,,,
,,,,,,,,,,,,,FF,,,,,,,,1.5815,,,,,,,,,,,,,,,,,,,,,,60fdca594b75824bdfe2f7fe,61036ef6272321e9cb645269,2021-07-30_05h18.45.024,Simcolourproject_2stim_asymm_v5,2020.2.10,Win32,60,61025ae37ef11b136ea224fe,,,,,,,,,3547,-43,-55,1,0,0,response5disk,,3,4,-1,1,0,0,rectangle,4,-1,1,0,0,4,-1,1,0,0,0,31,31,41,1,,,,,,,,
,,,,,,,,,,,,,FF,,,,,,,,1.1033,,,,,,,,,,,,,,,,,,,,,,60fdca594b75824bdfe2f7fe,61036ef6272321e9cb645269,2021-07-30_05h18.45.024,Simcolourproject_2stim_asymm_v5,2020.2.10,Win32,60,61025ae37ef11b136ea224fe,,,,,,,,,336,-33,-67,1,0,0,response5disk,,3,6,-1,1,0,0,rectangle,6,-1,1,0,0,6,-1,1,0,0,0,32,32,29,1,,,,,,,,
,,,,,,,,,,,,,FF,,,,,,,,0.8678,,,,,,,,,,,,,,,,,,,,,,60fdca594b75824bdfe2f7fe,61036ef6272321e9cb645269,2021-07-30_05h18.45.024,Simcolourproject_2stim_asymm_v5,2020.2.10,Win32,60,61025ae37ef11b136ea224fe,,,,,,,,,1422,-29,-72,1,0,0,response5disk,,3,7,-3,1,0,0,rectangle,7,-3,1,0,0,7,-3,1,0,0,0,33,33,155,1,,,,,,,,
,,,,,,,,,,,,,FF,,,,,,,,2.2364,,,,,,,,,,,,,,,,,,,,,,60fdca594b75824bdfe2f7fe,61036ef6272321e9cb645269,2021-07-30_05h18.45.024,Simcolourproject_2stim_asymm_v5,2020.2.10,Win32,60,61025ae37ef11b136ea224fe,,,,,,,,,698,-49,-68,1,0,0,response5disk,,3,-1,6,1,0,0,rectangle,-1,6,1,0,0,-1,6,1,0,0,0,34,34,93,1,,,,,,,,
,,,,,,,,,,,,,FF,,,,,,,,0.969,,,,,,,,,,,,,,,,,,,,,,60fdca594b75824bdfe2f7fe,61036ef6272321e9cb645269,2021-07-30_05h18.45.024,Simcolourproject_2stim_asymm_v5,2020.2.10,Win32,60,61025ae37ef11b136ea224fe,,,,,,,,,3981,-28,-64,1,0,0,response5disk,,3,6,-3,1,0,0,rectangle,6,-3,1,0,0,6,-3,1,0,0,0,35,35,9,1,,,,,,,,
,,,,,,,,,,,,,FF,,,,,,,,0.8046,,,,,,,,,,,,,,,,,,,,,,60fdca594b75824bdfe2f7fe,61036ef6272321e9cb645269,2021-07-30_05h18.45.024,Simcolourproject_2stim_asymm_v5,2020.2.10,Win32,60,61025ae37ef11b136ea224fe,,,,,,,,,3722,-22,-58,1,0,0,response5disk,,3,7,-1,1,0,0,rectangle,7,-1,1,0,0,7,-1,1,0,0,0,36,36,103,1,,,,,,,,
,,,,,,,,,,,,,FF,,,,,,,,3.3847,,,,,,,,,,,,,,,,,,,,,,60fdca594b75824bdfe2f7fe,61036ef6272321e9cb645269,2021-07-30_05h18.45.024,Simcolourproject_2stim_asymm_v5,2020.2.10,Win32,60,61025ae37ef11b136ea224fe,,,,,,,,,3153,-78,-38,1,0,0,response5disk,,2,-2,7,1,0,0,rectangle,-2,7,1,0,0,-2,7,1,0,0,0,37,37,74,1,,,,,,,,
,,,,,,,,,,,,,FF,,,,,,,,1.7208,,,,,,,,,,,,,,,,,,,,,,60fdca594b75824bdfe2f7fe,61036ef6272321e9cb645269,2021-07-30_05h18.45.024,Simcolourproject_2stim_asymm_v5,2020.2.10,Win32,60,61025ae37ef11b136ea224fe,,,,,,,,,251,33,-63,1,0,0,response3disk,,4,2,-4,1,0,0,rectangle,2,-4,1,0,0,2,-4,1,0,0,0,38,38,99,1,,,,,,,,
,,,,,,,,,,,,,FF,,,,,,,,5.3881,,,,,,,,,,,,,,,,,,,,,,60fdca594b75824bdfe2f7fe,61036ef6272321e9cb645269,2021-07-30_05h18.45.024,Simcolourproject_2stim_asymm_v5,2020.2.10,Win32,60,61025ae37ef11b136ea224fe,,,,,,,,,3164,90,-45,1,0,0,response3disk,,5,4,5,1,0,0,rectangle,4,5,1,0,0,4,5,1,0,0,0,39,39,36,1,,,,,,,,
,,,,,,,,,,,,,FF,,,,,,,,1.4524,,,,,,,,,,,,,,,,,,,,,,60fdca594b75824bdfe2f7fe,61036ef6272321e9cb645269,2021-07-30_05h18.45.024,Simcolourproject_2stim_asymm_v5,2020.2.10,Win32,60,61025ae37ef11b136ea224fe,,,,,,,,,1161,59,85,1,0,0,response1disk,,7,3,7,1,0,0,rectangle,3,7,1,0,0,3,7,1,0,0,0,40,40,138,1,,,,,,,,
,,,,,,,,,,,,,FF,,,,,,,,1.0007,,,,,,,,,,,,,,,,,,,,,,60fdca594b75824bdfe2f7fe,61036ef6272321e9cb645269,2021-07-30_05h18.45.024,Simcolourproject_2stim_asymm_v5,2020.2.10,Win32,60,61025ae37ef11b136ea224fe,,,,,,,,,1257,52,110,1,0,0,response1disk,,7,5,2,1,0,0,rectangle,5,2,1,0,0,5,2,1,0,0,0,41,41,143,1,,,,,,,,
,,,,,,,,,,,,,FF,,,,,,,,2.6682,,,,,,,,,,,,,,,,,,,,,,60fdca594b75824bdfe2f7fe,61036ef6272321e9cb645269,2021-07-30_05h18.45.024,Simcolourproject_2stim_asymm_v5,2020.2.10,Win32,60,61025ae37ef11b136ea224fe,,,,,,,,,1948,24,-76,1,0,0,response3disk,,4,-2,3,1,0,0,rectangle,-2,3,1,0,0,-2,3,1,0,0,0,42,42,10,1,,,,,,,,
,,,,,,,,,,,,,FF,,,,,,,,1.402,,,,,,,,,,,,,,,,,,,,,,60fdca594b75824bdfe2f7fe,61036ef6272321e9cb645269,2021-07-30_05h18.45.024,Simcolourproject_2stim_asymm_v5,2020.2.10,Win32,60,61025ae37ef11b136ea224fe,,,,,,,,,3562,37,-82,1,0,0,response3disk,,4,12,6,1,0,0,rectangle,12,6,1,0,0,12,6,1,0,0,0,43,43,118,1,,,,,,,,
,,,,,,,,,,,,,FF,,,,,,,,2.1341,,,,,,,,,,,,,,,,,,,,,,60fdca594b75824bdfe2f7fe,61036ef6272321e9cb645269,2021-07-30_05h18.45.024,Simcolourproject_2stim_asymm_v5,2020.2.10,Win32,60,61025ae37ef11b136ea224fe,,,,,,,,,1514,38,89,1,0,0,response1disk,,7,-1,5,1,0,0,rectangle,57,-85,1,0,0,15,0,1,0,0,0,44,44,20,1,,response3disk_3,TRUE,4,4,"[194,9,177,76,29,199,239,63,167,45,280,196,29,59,253,165,54,138,187,313]",1.8511,rectangle
,,,,,,,,,,,,,FF,,,,,,,,1.4333,,,,,,,,,,,,,,,,,,,,,,60fdca594b75824bdfe2f7fe,61036ef6272321e9cb645269,2021-07-30_05h18.45.024,Simcolourproject_2stim_asymm_v5,2020.2.10,Win32,60,61025ae37ef11b136ea224fe,,,,,,,,,344,25,-57,1,0,0,response3disk,,4,10,-10,1,0,0,rectangle,10,-10,1,0,0,10,-10,1,0,0,0,45,45,157,1,,,,,,,,
,,,,,,,,,,,,,FF,,,,,,,,1.0031,,,,,,,,,,,,,,,,,,,,,,60fdca594b75824bdfe2f7fe,61036ef6272321e9cb645269,2021-07-30_05h18.45.024,Simcolourproject_2stim_asymm_v5,2020.2.10,Win32,60,61025ae37ef11b136ea224fe,,,,,,,,,4033,24,-35,1,0,0,response3disk,,4,-3,4,1,0,0,rectangle,-3,4,1,0,0,-3,4,1,0,0,0,46,46,90,1,,,,,,,,
,,,,,,,,,,,,,FF,,,,,,,,1.007,,,,,,,,,,,,,,,,,,,,,,60fdca594b75824bdfe2f7fe,61036ef6272321e9cb645269,2021-07-30_05h18.45.024,Simcolourproject_2stim_asymm_v5,2020.2.10,Win32,60,61025ae37ef11b136ea224fe,,,,,,,,,1356,80,32,1,0,0,response1disk,,6,-26,-7,1,0,0,rectangle,-26,-7,1,0,0,-26,-7,1,0,0,0,47,47,147,1,,,,,,,,
,,,,,,,,,,,,,FF,,,,,,,,1.303,,,,,,,,,,,,,,,,,,,,,,60fdca594b75824bdfe2f7fe,61036ef6272321e9cb645269,2021-07-30_05h18.45.024,Simcolourproject_2stim_asymm_v5,2020.2.10,Win32,60,61025ae37ef11b136ea224fe,,,,,,,,,3191,-76,-43,1,0,0,response5disk,,2,-3,-1,1,0,0,rectangle,-3,-1,1,0,0,-3,-1,1,0,0,0,48,48,8,1,,,,,,,,
,,,,,,,,,,,,,FF,,,,,,,,2.6332,,,,,,,,,,,,,,,,,,,,,,60fdca594b75824bdfe2f7fe,61036ef6272321e9cb645269,2021-07-30_05h18.45.024,Simcolourproject_2stim_asymm_v5,2020.2.10,Win32,60,61025ae37ef11b136ea224fe,,,,,,,,,1770,29,-78,1,0,0,response3disk,,4,-13,5,1,0,0,rectangle,-13,5,1,0,0,-13,5,1,0,0,0,49,49,56,1,,,,,,,,
,,,,,,,,,,,,,FF,,,,,,,,1.1532,,,,,,,,,,,,,,,,,,,,,,60fdca594b75824bdfe2f7fe,61036ef6272321e9cb645269,2021-07-30_05h18.45.024,Simcolourproject_2stim_asymm_v5,2020.2.10,Win32,60,61025ae37ef11b136ea224fe,,,,,,,,,0,-45,84,1,0,0,response7disk,,0,-6,-3,1,0,0,rectangle,-6,-3,1,0,0,-6,-3,1,0,0,0,50,50,129,1,,,,,,,,
,,,,,,,,,,,,,FF,,,,,,,,1.3043,,,,,,,,,,,,,,,,,,,,,,60fdca594b75824bdfe2f7fe,61036ef6272321e9cb645269,2021-07-30_05h18.45.024,Simcolourproject_2stim_asymm_v5,2020.2.10,Win32,60,61025ae37ef11b136ea224fe,,,,,,,,,4182,73,-33,1,0,0,response3disk,,5,7,4,1,0,0,rectangle,7,4,1,0,0,7,4,1,0,0,0,51,51,159,1,,,,,,,,
,,,,,,,,,,,,,FF,,,,,,,,1.1679,,,,,,,,,,,,,,,,,,,,,,60fdca594b75824bdfe2f7fe,61036ef6272321e9cb645269,2021-07-30_05h18.45.024,Simcolourproject_2stim_asymm_v5,2020.2.10,Win32,60,61025ae37ef11b136ea224fe,,,,,,,,,2010,45,67,1,0,0,response1disk,,7,-5,3,1,0,0,rectangle,-5,3,1,0,0,-5,3,1,0,0,0,52,52,42,1,,,,,,,,
,,,,,,,,,,,,,FF,,,,,,,,0.9175,,,,,,,,,,,,,,,,,,,,,,60fdca594b75824bdfe2f7fe,61036ef6272321e9cb645269,2021-07-30_05h18.45.024,Simcolourproject_2stim_asymm_v5,2020.2.10,Win32,60,61025ae37ef11b136ea224fe,,,,,,,,,3756,72,39,1,0,0,response1disk,,6,-3,2,1,0,0,rectangle,-93,-54,1,0,0,7,-4,1,0,0,0,53,53,110,1,,response5disk_3,TRUE,2,2,"[194,9,177,76,29,199,239,63,167,45,280,196,29,59,253,165,54,138,187,313]",2.3183,rectangle
,,,,,,,,,,,,,FF,,,,,,,,2.9034,,,,,,,,,,,,,,,,,,,,,,60fdca594b75824bdfe2f7fe,61036ef6272321e9cb645269,2021-07-30_05h18.45.024,Simcolourproject_2stim_asymm_v5,2020.2.10,Win32,60,61025ae37ef11b136ea224fe,,,,,,,,,1701,50,82,1,0,0,response1disk,,7,4,6,1,0,0,rectangle,4,6,1,0,0,4,6,1,0,0,0,54,54,100,1,,,,,,,,
,,,,,,,,,,,,,FF,,,,,,,,0.886,,,,,,,,,,,,,,,,,,,,,,60fdca594b75824bdfe2f7fe,61036ef6272321e9cb645269,2021-07-30_05h18.45.024,Simcolourproject_2stim_asymm_v5,2020.2.10,Win32,60,61025ae37ef11b136ea224fe,,,,,,,,,2956,37,64,1,0,0,response1disk,,7,2,-3,1,0,0,rectangle,2,-3,1,0,0,2,-3,1,0,0,0,55,55,97,1,,,,,,,,
,,,,,,,,,,,,,FF,,,,,,,,0.915,,,,,,,,,,,,,,,,,,,,,,60fdca594b75824bdfe2f7fe,61036ef6272321e9cb645269,2021-07-30_05h18.45.024,Simcolourproject_2stim_asymm_v5,2020.2.10,Win32,60,61025ae37ef11b136ea224fe,,,,,,,,,3632,30,60,1,0,0,response1disk,,7,-4,-1,1,0,0,rectangle,-4,-1,1,0,0,-4,-1,1,0,0,0,56,56,108,1,,,,,,,,
,,,,,,,,,,,,,FF,,,,,,,,0.8892,,,,,,,,,,,,,,,,,,,,,,60fdca594b75824bdfe2f7fe,61036ef6272321e9cb645269,2021-07-30_05h18.45.024,Simcolourproject_2stim_asymm_v5,2020.2.10,Win32,60,61025ae37ef11b136ea224fe,,,,,,,,,1107,71,31,1,0,0,response1disk,,6,1,0,1,0,0,rectangle,1,0,1,0,0,1,0,1,0,0,0,57,57,142,1,,,,,,,,
,,,,,,,,,,,,,FF,,,,,,,,1.1864,,,,,,,,,,,,,,,,,,,,,,60fdca594b75824bdfe2f7fe,61036ef6272321e9cb645269,2021-07-30_05h18.45.024,Simcolourproject_2stim_asymm_v5,2020.2.10,Win32,60,61025ae37ef11b136ea224fe,,,,,,,,,1021,41,74,1,0,0,response1disk,,7,3,6,1,0,0,rectangle,-39,-77,1,0,0,11,2,1,0,0,0,58,58,50,1,,response5disk_3,TRUE,3,3,"[194,9,177,76,29,199,239,63,167,45,280,196,29,59,253,165,54,138,187,313]",2.2013,rectangle
,,,,,,,,,,,,,FF,,,,,,,,1.4211,,,,,,,,,,,,,,,,,,,,,,60fdca594b75824bdfe2f7fe,61036ef6272321e9cb645269,2021-07-30_05h18.45.024,Simcolourproject_2stim_asymm_v5,2020.2.10,Win32,60,61025ae37ef11b136ea224fe,,,,,,,,,855,39,-57,1,0,0,response3disk,,4,1,0,1,0,0,rectangle,1,0,1,0,0,1,0,1,0,0,0,59,59,81,1,,,,,,,,
,,,,,,,,,,,,,FF,,,,,,,,1.5704,,,,,,,,,,,,,,,,,,,,,,60fdca594b75824bdfe2f7fe,61036ef6272321e9cb645269,2021-07-30_05h18.45.024,Simcolourproject_2stim_asymm_v5,2020.2.10,Win32,60,61025ae37ef11b136ea224fe,,,,,,,,,1274,-58,-85,1,0,0,response5disk,,3,-1,-3,1,0,0,rectangle,-1,-3,1,0,0,-1,-3,1,0,0,0,60,60,83,1,,,,,,,,
,,,,,,,,,,,,,FF,,,,,,,,1.0494,,,,,,,,,,,,,,,,,,,,,,60fdca594b75824bdfe2f7fe,61036ef6272321e9cb645269,2021-07-30_05h18.45.024,Simcolourproject_2stim_asymm_v5,2020.2.10,Win32,60,61025ae37ef11b136ea224fe,,,,,,,,,2930,105,30,1,0,0,response1disk,,6,6,-6,1,0,0,rectangle,6,-6,1,0,0,6,-6,1,0,0,0,61,61,89,1,,,,,,,,
,,,,,,,,,,,,,FF,,,,,,,,0.8522,,,,,,,,,,,,,,,,,,,,,,60fdca594b75824bdfe2f7fe,61036ef6272321e9cb645269,2021-07-30_05h18.45.024,Simcolourproject_2stim_asymm_v5,2020.2.10,Win32,60,61025ae37ef11b136ea224fe,,,,,,,,,1094,57,-58,1,0,0,response3disk,,4,6,11,1,0,0,rectangle,44,-64,1,0,0,-3,5,1,0,0,0,62,62,125,1,,response3disk_3,TRUE,4,4,"[194,9,177,76,29,199,239,63,167,45,280,196,29,59,253,165,54,138,187,313]",1.3837,rectangle
,,,,,,,,,,,,,FF,,,,,,,,1.424,,,,,,,,,,,,,,,,,,,,,,60fdca594b75824bdfe2f7fe,61036ef6272321e9cb645269,2021-07-30_05h18.45.024,Simcolourproject_2stim_asymm_v5,2020.2.10,Win32,60,61025ae37ef11b136ea224fe,,,,,,,,,1930,23,-74,1,0,0,response3disk,,4,-2,-4,1,0,0,rectangle,-2,-4,1,0,0,-2,-4,1,0,0,0,63,63,40,1,,,,,,,,
,,,,,,,,,,,,,FF,,,,,,,,1.3163,,,,,,,,,,,,,,,,,,,,,,60fdca594b75824bdfe2f7fe,61036ef6272321e9cb645269,2021-07-30_05h18.45.024,Simcolourproject_2stim_asymm_v5,2020.2.10,Win32,60,61025ae37ef11b136ea224fe,,,,,,,,,1200,75,-29,1,0,0,response3disk,,5,6,5,1,0,0,rectangle,6,5,1,0,0,6,5,1,0,0,0,64,64,91,1,,,,,,,,
,,,,,,,,,,,,,FF,,,,,,,,1.0825,,,,,,,,,,,,,,,,,,,,,,60fdca594b75824bdfe2f7fe,61036ef6272321e9cb645269,2021-07-30_05h18.45.024,Simcolourproject_2stim_asymm_v5,2020.2.10,Win32,60,61025ae37ef11b136ea224fe,,,,,,,,,1186,84,39,1,0,0,response1disk,,6,3,4,1,0,0,rectangle,3,4,1,0,0,3,4,1,0,0,0,65,65,64,1,,,,,,,,
,,,,,,,,,,,,,FF,,,,,,,,0.8729,,,,,,,,,,,,,,,,,,,,,,60fdca594b75824bdfe2f7fe,61036ef6272321e9cb645269,2021-07-30_05h18.45.024,Simcolourproject_2stim_asymm_v5,2020.2.10,Win32,60,61025ae37ef11b136ea224fe,,,,,,,,,3472,-29,-57,1,0,0,response5disk,,3,0,-7,1,0,0,rectangle,0,-7,1,0,0,0,-7,1,0,0,0,66,66,21,1,,,,,,,,
,,,,,,,,,,,,,FF,,,,,,,,1.9511,,,,,,,,,,,,,,,,,,,,,,60fdca594b75824bdfe2f7fe,61036ef6272321e9cb645269,2021-07-30_05h18.45.024,Simcolourproject_2stim_asymm_v5,2020.2.10,Win32,60,61025ae37ef11b136ea224fe,,,,,,,,,4307,40,81,1,0,0,response1disk,,7,1,-8,1,0,0,rectangle,1,-8,1,0,0,1,-8,1,0,0,0,67,67,47,1,,,,,,,,
,,,,,,,,,,,,,FF,,,,,,,,1.1698,,,,,,,,,,,,,,,,,,,,,,60fdca594b75824bdfe2f7fe,61036ef6272321e9cb645269,2021-07-30_05h18.45.024,Simcolourproject_2stim_asymm_v5,2020.2.10,Win32,60,61025ae37ef11b136ea224fe,,,,,,,,,3607,99,60,1,0,0,response1disk,,6,-1,-5,1,0,0,rectangle,-1,-5,1,0,0,-1,-5,1,0,0,0,68,68,122,1,,,,,,,,
,,,,,,,,,,,,,FF,,,,,,,,0.8851,,,,,,,,,,,,,,,,,,,,,,60fdca594b75824bdfe2f7fe,61036ef6272321e9cb645269,2021-07-30_05h18.45.024,Simcolourproject_2stim_asymm_v5,2020.2.10,Win32,60,61025ae37ef11b136ea224fe,,,,,,,,,420,58,48,1,0,0,response1disk,,6,-3,5,1,0,0,rectangle,-3,5,1,0,0,-3,5,1,0,0,0,69,69,133,1,,,,,,,,
,,,,,,,,,,,,,FF,,,,,,,,0.9013,,,,,,,,,,,,,,,,,,,,,,60fdca594b75824bdfe2f7fe,61036ef6272321e9cb645269,2021-07-30_05h18.45.024,Simcolourproject_2stim_asymm_v5,2020.2.10,Win32,60,61025ae37ef11b136ea224fe,,,,,,,,,389,72,27,1,0,0,response1disk,,6,6,-3,1,0,0,rectangle,6,-3,1,0,0,6,-3,1,0,0,0,70,70,34,1,,,,,,,,
,,,,,,,,,,,,,FF,,,,,,,,1.3183,,,,,,,,,,,,,,,,,,,,,,60fdca594b75824bdfe2f7fe,61036ef6272321e9cb645269,2021-07-30_05h18.45.024,Simcolourproject_2stim_asymm_v5,2020.2.10,Win32,60,61025ae37ef11b136ea224fe,,,,,,,,,2912,44,-59,1,0,0,response3disk,,4,-1,5,1,0,0,rectangle,-1,5,1,0,0,-1,5,1,0,0,0,71,71,86,1,,,,,,,,
,,,,,,,,,,,,,FF,,,,,,,,1.2893,,,,,,,,,,,,,,,,,,,,,,60fdca594b75824bdfe2f7fe,61036ef6272321e9cb645269,2021-07-30_05h18.45.024,Simcolourproject_2stim_asymm_v5,2020.2.10,Win32,60,61025ae37ef11b136ea224fe,,,,,,,,,1540,-72,-34,1,0,0,response5disk,,2,2,3,1,0,0,rectangle,2,3,1,0,0,2,3,1,0,0,0,72,72,5,1,,,,,,,,
,,,,,,,,,,,,,FF,,,,,,,,1.0863,,,,,,,,,,,,,,,,,,,,,,60fdca594b75824bdfe2f7fe,61036ef6272321e9cb645269,2021-07-30_05h18.45.024,Simcolourproject_2stim_asymm_v5,2020.2.10,Win32,60,61025ae37ef11b136ea224fe,,,,,,,,,3342,-43,-52,1,0,0,response5disk,,3,1,-1,1,0,0,rectangle,1,-1,1,0,0,1,-1,1,0,0,0,73,73,17,1,,,,,,,,
,,,,,,,,,,,,,FF,,,,,,,,0.9875,,,,,,,,,,,,,,,,,,,,,,60fdca594b75824bdfe2f7fe,61036ef6272321e9cb645269,2021-07-30_05h18.45.024,Simcolourproject_2stim_asymm_v5,2020.2.10,Win32,60,61025ae37ef11b136ea224fe,,,,,,,,,1473,33,-71,1,0,0,response3disk,,4,1,7,1,0,0,rectangle,1,7,1,0,0,1,7,1,0,0,0,74,74,68,1,,,,,,,,
,,,,,,,,,,,,,FF,,,,,,,,1.1848,,,,,,,,,,,,,,,,,,,,,,60fdca594b75824bdfe2f7fe,61036ef6272321e9cb645269,2021-07-30_05h18.45.024,Simcolourproject_2stim_asymm_v5,2020.2.10,Win32,60,61025ae37ef11b136ea224fe,,,,,,,,,3395,-61,-35,1,0,0,response5disk,,2,-5,-3,1,0,0,rectangle,93,56,1,0,0,2,0,1,0,0,0,75,75,69,1,,response1disk_3,TRUE,6,6,"[194,9,177,76,29,199,239,63,167,45,280,196,29,59,253,165,54,138,187,313]",2.3655,rectangle
,,,,,,,,,,,,,FF,,,,,,,,1.2669,,,,,,,,,,,,,,,,,,,,,,60fdca594b75824bdfe2f7fe,61036ef6272321e9cb645269,2021-07-30_05h18.45.024,Simcolourproject_2stim_asymm_v5,2020.2.10,Win32,60,61025ae37ef11b136ea224fe,,,,,,,,,2419,-78,38,1,0,0,response7disk,,1,8,-6,1,0,0,rectangle,8,-6,1,0,0,8,-6,1,0,0,0,76,76,16,1,,,,,,,,
,,,,,,,,,,,,,FF,,,,,,,,1.1016,,,,,,,,,,,,,,,,,,,,,,60fdca594b75824bdfe2f7fe,61036ef6272321e9cb645269,2021-07-30_05h18.45.024,Simcolourproject_2stim_asymm_v5,2020.2.10,Win32,60,61025ae37ef11b136ea224fe,,,,,,,,,105,-34,-58,1,0,0,response5disk,,3,9,-1,1,0,0,rectangle,9,-1,1,0,0,9,-1,1,0,0,0,77,77,7,1,,,,,,,,
,,,,,,,,,,,,,FF,,,,,,,,0.9863,,,,,,,,,,,,,,,,,,,,,,60fdca594b75824bdfe2f7fe,61036ef6272321e9cb645269,2021-07-30_05h18.45.024,Simcolourproject_2stim_asymm_v5,2020.2.10,Win32,60,61025ae37ef11b136ea224fe,,,,,,,,,3884,30,-66,1,0,0,response3disk,,4,-7,4,1,0,0,rectangle,-7,4,1,0,0,-7,4,1,0,0,0,78,78,37,1,,,,,,,,
,,,,,,,,,,,,,FF,,,,,,,,0.9186,,,,,,,,,,,,,,,,,,,,,,60fdca594b75824bdfe2f7fe,61036ef6272321e9cb645269,2021-07-30_05h18.45.024,Simcolourproject_2stim_asymm_v5,2020.2.10,Win32,60,61025ae37ef11b136ea224fe,,,,,,,,,3348,38,-72,1,0,0,response3disk,,4,6,5,1,0,0,rectangle,6,5,1,0,0,6,5,1,0,0,0,79,79,126,1,,,,,,,,
,,,,,,,,,,,,,FF,,,,,,,,1.1217,,,,,,,,,,,,,,,,,,,,,,60fdca594b75824bdfe2f7fe,61036ef6272321e9cb645269,2021-07-30_05h18.45.024,Simcolourproject_2stim_asymm_v5,2020.2.10,Win32,60,61025ae37ef11b136ea224fe,,,,,,,,,1481,69,46,1,0,0,response1disk,,6,-7,8,1,0,0,rectangle,-7,8,1,0,0,-7,8,1,0,0,0,80,80,148,1,,,,,,,,
,,,,,,,,,,,,,FF,,,,,,,,1.3665,,,,,,,,,,,,,,,,,,,,,,60fdca594b75824bdfe2f7fe,61036ef6272321e9cb645269,2021-07-30_05h18.45.024,Simcolourproject_2stim_asymm_v5,2020.2.10,Win32,60,61025ae37ef11b136ea224fe,,,,,,,,,1595,36,73,1,0,0,response1disk,,7,21,12,1,0,0,rectangle,21,12,1,0,0,21,12,1,0,0,0,81,81,98,1,,,,,,,,
,,,,,,,,,,,,,FF,,,,,,,,1.3016,,,,,,,,,,,,,,,,,,,,,,60fdca594b75824bdfe2f7fe,61036ef6272321e9cb645269,2021-07-30_05h18.45.024,Simcolourproject_2stim_asymm_v5,2020.2.10,Win32,60,61025ae37ef11b136ea224fe,,,,,,,,,529,-80,-37,1,0,0,response5disk,,2,-12,-6,1,0,0,rectangle,-12,-6,1,0,0,-12,-6,1,0,0,0,82,82,22,1,,,,,,,,
,,,,,,,,,,,,,FF,,,,,,,,1.9202,,,,,,,,,,,,,,,,,,,,,,60fdca594b75824bdfe2f7fe,61036ef6272321e9cb645269,2021-07-30_05h18.45.024,Simcolourproject_2stim_asymm_v5,2020.2.10,Win32,60,61025ae37ef11b136ea224fe,,,,,,,,,3120,103,-47,1,0,0,response3disk,,5,-1,13,1,0,0,rectangle,-1,13,1,0,0,-1,13,1,0,0,0,83,83,65,1,,,,,,,,
,,,,,,,,,,,,,FF,,,,,,,,1.3679,,,,,,,,,,,,,,,,,,,,,,60fdca594b75824bdfe2f7fe,61036ef6272321e9cb645269,2021-07-30_05h18.45.024,Simcolourproject_2stim_asymm_v5,2020.2.10,Win32,60,61025ae37ef11b136ea224fe,,,,,,,,,3008,29,90,1,0,0,response1disk,,7,-7,2,1,0,0,rectangle,-7,2,1,0,0,-7,2,1,0,0,0,84,84,156,1,,,,,,,,
,,,,,,,,,,,,,FF,,,,,,,,0.8341,,,,,,,,,,,,,,,,,,,,,,60fdca594b75824bdfe2f7fe,61036ef6272321e9cb645269,2021-07-30_05h18.45.024,Simcolourproject_2stim_asymm_v5,2020.2.10,Win32,60,61025ae37ef11b136ea224fe,,,,,,,,,416,20,48,1,0,0,response1disk,,7,4,0,1,0,0,rectangle,4,0,1,0,0,4,0,1,0,0,0,85,85,114,1,,,,,,,,
,,,,,,,,,,,,,FF,,,,,,,,0.9712,,,,,,,,,,,,,,,,,,,,,,60fdca594b75824bdfe2f7fe,61036ef6272321e9cb645269,2021-07-30_05h18.45.024,Simcolourproject_2stim_asymm_v5,2020.2.10,Win32,60,61025ae37ef11b136ea224fe,,,,,,,,,261,-37,69,1,0,0,response7disk,,0,0,9,1,0,0,rectangle,0,9,1,0,0,0,9,1,0,0,0,86,86,19,1,,,,,,,,
,,,,,,,,,,,,,FF,,,,,,,,1.4685,,,,,,,,,,,,,,,,,,,,,,60fdca594b75824bdfe2f7fe,61036ef6272321e9cb645269,2021-07-30_05h18.45.024,Simcolourproject_2stim_asymm_v5,2020.2.10,Win32,60,61025ae37ef11b136ea224fe,,,,,,,,,1563,92,51,1,0,0,response1disk,,6,9,1,1,0,0,rectangle,9,1,1,0,0,9,1,1,0,0,0,87,87,26,1,,,,,,,,
,,,,,,,,,,,,,FF,,,,,,,,0.9353,,,,,,,,,,,,,,,,,,,,,,60fdca594b75824bdfe2f7fe,61036ef6272321e9cb645269,2021-07-30_05h18.45.024,Simcolourproject_2stim_asymm_v5,2020.2.10,Win32,60,61025ae37ef11b136ea224fe,,,,,,,,,852,80,57,1,0,0,response1disk,,6,5,1,1,0,0,rectangle,5,1,1,0,0,5,1,1,0,0,0,88,88,6,1,,,,,,,,
,,,,,,,,,,,,,FF,,,,,,,,1.4547,,,,,,,,,,,,,,,,,,,,,,60fdca594b75824bdfe2f7fe,61036ef6272321e9cb645269,2021-07-30_05h18.45.024,Simcolourproject_2stim_asymm_v5,2020.2.10,Win32,60,61025ae37ef11b136ea224fe,,,,,,,,,3604,74,-40,1,0,0,response3disk,,5,-2,11,1,0,0,rectangle,-2,11,1,0,0,-2,11,1,0,0,0,89,89,11,1,,,,,,,,
,,,,,,,,,,,,,FF,,,,,,,,0.8513,,,,,,,,,,,,,,,,,,,,,,60fdca594b75824bdfe2f7fe,61036ef6272321e9cb645269,2021-07-30_05h18.45.024,Simcolourproject_2stim_asymm_v5,2020.2.10,Win32,60,61025ae37ef11b136ea224fe,,,,,,,,,2305,33,-44,1,0,0,response3disk,,4,5,7,1,0,0,rectangle,5,7,1,0,0,5,7,1,0,0,0,90,90,15,1,,,,,,,,
,,,,,,,,,,,,,FF,,,,,,,,1.2338,,,,,,,,,,,,,,,,,,,,,,60fdca594b75824bdfe2f7fe,61036ef6272321e9cb645269,2021-07-30_05h18.45.024,Simcolourproject_2stim_asymm_v5,2020.2.10,Win32,60,61025ae37ef11b136ea224fe,,,,,,,,,1890,-87,-39,1,0,0,response5disk,,2,-10,-4,1,0,0,rectangle,-10,-4,1,0,0,-10,-4,1,0,0,0,91,91,131,1,,,,,,,,
,,,,,,,,,,,,,FF,,,,,,,,0.8503,,,,,,,,,,,,,,,,,,,,,,60fdca594b75824bdfe2f7fe,61036ef6272321e9cb645269,2021-07-30_05h18.45.024,Simcolourproject_2stim_asymm_v5,2020.2.10,Win32,60,61025ae37ef11b136ea224fe,,,,,,,,,1588,-54,-72,1,0,0,response5disk,,3,-15,-2,1,0,0,rectangle,-15,-2,1,0,0,-15,-2,1,0,0,0,92,92,13,1,,,,,,,,
,,,,,,,,,,,,,FF,,,,,,,,0.8514,,,,,,,,,,,,,,,,,,,,,,60fdca594b75824bdfe2f7fe,61036ef6272321e9cb645269,2021-07-30_05h18.45.024,Simcolourproject_2stim_asymm_v5,2020.2.10,Win32,60,61025ae37ef11b136ea224fe,,,,,,,,,4171,61,34,1,0,0,response1disk,,6,7,-7,1,0,0,rectangle,7,-7,1,0,0,7,-7,1,0,0,0,93,93,61,1,,,,,,,,
,,,,,,,,,,,,,FF,,,,,,,,0.9171,,,,,,,,,,,,,,,,,,,,,,60fdca594b75824bdfe2f7fe,61036ef6272321e9cb645269,2021-07-30_05h18.45.024,Simcolourproject_2stim_asymm_v5,2020.2.10,Win32,60,61025ae37ef11b136ea224fe,,,,,,,,,3426,85,50,1,0,0,response1disk,,6,4,-1,1,0,0,rectangle,4,-1,1,0,0,4,-1,1,0,0,0,94,94,52,1,,,,,,,,
,,,,,,,,,,,,,FF,,,,,,,,1.039,,,,,,,,,,,,,,,,,,,,,,60fdca594b75824bdfe2f7fe,61036ef6272321e9cb645269,2021-07-30_05h18.45.024,Simcolourproject_2stim_asymm_v5,2020.2.10,Win32,60,61025ae37ef11b136ea224fe,,,,,,,,,1589,32,-56,1,0,0,response3disk,,4,-6,4,1,0,0,rectangle,-6,4,1,0,0,-6,4,1,0,0,0,95,95,154,1,,,,,,,,
,,,,,,,,,,,,,FF,,,,,,,,1.486,,,,,,,,,,,,,,,,,,,,,,60fdca594b75824bdfe2f7fe,61036ef6272321e9cb645269,2021-07-30_05h18.45.024,Simcolourproject_2stim_asymm_v5,2020.2.10,Win32,60,61025ae37ef11b136ea224fe,,,,,,,,,3440,88,31,1,0,0,response1disk,,6,11,-4,1,0,0,rectangle,11,-4,1,0,0,11,-4,1,0,0,0,96,96,14,1,,,,,,,,
,,,,,,,,,,,,,FF,,,,,,,,1.0695,,,,,,,,,,,,,,,,,,,,,,60fdca594b75824bdfe2f7fe,61036ef6272321e9cb645269,2021-07-30_05h18.45.024,Simcolourproject_2stim_asymm_v5,2020.2.10,Win32,60,61025ae37ef11b136ea224fe,,,,,,,,,3891,78,35,1,0,0,response1disk,,6,16,1,1,0,0,rectangle,16,1,1,0,0,16,1,1,0,0,0,97,97,70,1,,,,,,,,
,,,,,,,,,,,,,FF,,,,,,,,0.9162,,,,,,,,,,,,,,,,,,,,,,60fdca594b75824bdfe2f7fe,61036ef6272321e9cb645269,2021-07-30_05h18.45.024,Simcolourproject_2stim_asymm_v5,2020.2.10,Win32,60,61025ae37ef11b136ea224fe,,,,,,,,,1609,-50,105,1,0,0,response7disk,,0,15,3,1,0,0,rectangle,15,3,1,0,0,15,3,1,0,0,0,98,98,33,1,,,,,,,,
,,,,,,,,,,,,,FF,,,,,,,,0.9694,,,,,,,,,,,,,,,,,,,,,,60fdca594b75824bdfe2f7fe,61036ef6272321e9cb645269,2021-07-30_05h18.45.024,Simcolourproject_2stim_asymm_v5,2020.2.10,Win32,60,61025ae37ef11b136ea224fe,,,,,,,,,220,63,30,1,0,0,response1disk,,6,7,1,1,0,0,rectangle,7,1,1,0,0,7,1,1,0,0,0,99,99,87,1,,,,,,,,
,,,,,,,,,,,,,FF,,,,,,,,1.103,,,,,,,,,,,,,,,,,,,,,,60fdca594b75824bdfe2f7fe,61036ef6272321e9cb645269,2021-07-30_05h18.45.024,Simcolourproject_2stim_asymm_v5,2020.2.10,Win32,60,61025ae37ef11b136ea224fe,,,,,,,,,365,19,96,1,0,0,response1disk,,7,0,9,1,0,0,rectangle,0,9,1,0,0,0,9,1,0,0,0,100,100,55,1,,,,,,,,
,,,,,,,,,,,,,FF,,,,,,,,1.0008,,,,,,,,,,,,,,,,,,,,,,60fdca594b75824bdfe2f7fe,61036ef6272321e9cb645269,2021-07-30_05h18.45.024,Simcolourproject_2stim_asymm_v5,2020.2.10,Win32,60,61025ae37ef11b136ea224fe,,,,,,,,,4214,34,-77,1,0,0,response3disk,,4,-4,2,1,0,0,rectangle,-4,2,1,0,0,-4,2,1,0,0,0,101,101,71,1,,,,,,,,
,,,,,,,,,,,,,FF,,,,,,,,0.8716,,,,,,,,,,,,,,,,,,,,,,60fdca594b75824bdfe2f7fe,61036ef6272321e9cb645269,2021-07-30_05h18.45.024,Simcolourproject_2stim_asymm_v5,2020.2.10,Win32,60,61025ae37ef11b136ea224fe,,,,,,,,,2698,26,-50,1,0,0,response3disk,,4,-2,4,1,0,0,rectangle,-2,4,1,0,0,-2,4,1,0,0,0,102,102,120,1,,,,,,,,
,,,,,,,,,,,,,FF,,,,,,,,0.7741,,,,,,,,,,,,,,,,,,,,,,60fdca594b75824bdfe2f7fe,61036ef6272321e9cb645269,2021-07-30_05h18.45.024,Simcolourproject_2stim_asymm_v5,2020.2.10,Win32,60,61025ae37ef11b136ea224fe,,,,,,,,,2326,47,-74,1,0,0,response3disk,,4,13,6,1,0,0,rectangle,13,6,1,0,0,13,6,1,0,0,0,103,103,24,1,,,,,,,,
,,,,,,,,,,,,,FF,,,,,,,,0.8025,,,,,,,,,,,,,,,,,,,,,,60fdca594b75824bdfe2f7fe,61036ef6272321e9cb645269,2021-07-30_05h18.45.024,Simcolourproject_2stim_asymm_v5,2020.2.10,Win32,60,61025ae37ef11b136ea224fe,,,,,,,,,3353,44,-69,1,0,0,response3disk,,4,2,2,1,0,0,rectangle,2,2,1,0,0,2,2,1,0,0,0,104,104,139,1,,,,,,,,
,,,,,,,,,,,,,FF,,,,,,,,2.7727,,,,,,,,,,,,,,,,,,,,,,60fdca594b75824bdfe2f7fe,61036ef6272321e9cb645269,2021-07-30_05h18.45.024,Simcolourproject_2stim_asymm_v5,2020.2.10,Win32,60,61025ae37ef11b136ea224fe,,,,,,,,,373,-77,-40,1,0,0,response5disk,,2,-5,4,1,0,0,rectangle,-5,4,1,0,0,-5,4,1,0,0,0,105,105,105,1,,,,,,,,
,,,,,,,,,,,,,FF,,,,,,,,0.8195,,,,,,,,,,,,,,,,,,,,,,60fdca594b75824bdfe2f7fe,61036ef6272321e9cb645269,2021-07-30_05h18.45.024,Simcolourproject_2stim_asymm_v5,2020.2.10,Win32,60,61025ae37ef11b136ea224fe,,,,,,,,,2541,-52,91,1,0,0,response7disk,,0,-11,11,1,0,0,rectangle,-11,11,1,0,0,-11,11,1,0,0,0,106,106,127,1,,,,,,,,
,,,,,,,,,,,,,FF,,,,,,,,1.1524,,,,,,,,,,,,,,,,,,,,,,60fdca594b75824bdfe2f7fe,61036ef6272321e9cb645269,2021-07-30_05h18.45.024,Simcolourproject_2stim_asymm_v5,2020.2.10,Win32,60,61025ae37ef11b136ea224fe,,,,,,,,,3748,-100,46,1,0,0,response7disk,,1,-17,3,1,0,0,rectangle,-17,3,1,0,0,-17,3,1,0,0,0,107,107,75,1,,,,,,,,
,,,,,,,,,,,,,FF,,,,,,,,0.935,,,,,,,,,,,,,,,,,,,,,,60fdca594b75824bdfe2f7fe,61036ef6272321e9cb645269,2021-07-30_05h18.45.024,Simcolourproject_2stim_asymm_v5,2020.2.10,Win32,60,61025ae37ef11b136ea224fe,,,,,,,,,4208,-76,-29,1,0,0,response5disk,,2,11,13,1,0,0,rectangle,11,13,1,0,0,11,13,1,0,0,0,108,108,58,1,,,,,,,,
,,,,,,,,,,,,,FF,,,,,,,,0.887,,,,,,,,,,,,,,,,,,,,,,60fdca594b75824bdfe2f7fe,61036ef6272321e9cb645269,2021-07-30_05h18.45.024,Simcolourproject_2stim_asymm_v5,2020.2.10,Win32,60,61025ae37ef11b136ea224fe,,,,,,,,,3019,74,60,1,0,0,response1disk,,6,-2,2,1,0,0,rectangle,-2,2,1,0,0,-2,2,1,0,0,0,109,109,141,1,,,,,,,,
,,,,,,,,,,,,,FF,,,,,,,,0.9645,,,,,,,,,,,,,,,,,,,,,,60fdca594b75824bdfe2f7fe,61036ef6272321e9cb645269,2021-07-30_05h18.45.024,Simcolourproject_2stim_asymm_v5,2020.2.10,Win32,60,61025ae37ef11b136ea224fe,,,,,,,,,3263,91,24,1,0,0,response1disk,,6,2,1,1,0,0,rectangle,2,1,1,0,0,2,1,1,0,0,0,110,110,121,1,,,,,,,,
,,,,,,,,,,,,,FF,,,,,,,,0.9056,,,,,,,,,,,,,,,,,,,,,,60fdca594b75824bdfe2f7fe,61036ef6272321e9cb645269,2021-07-30_05h18.45.024,Simcolourproject_2stim_asymm_v5,2020.2.10,Win32,60,61025ae37ef11b136ea224fe,,,,,,,,,255,-64,31,1,0,0,response7disk,,1,4,-3,1,0,0,rectangle,4,-3,1,0,0,4,-3,1,0,0,0,111,111,44,1,,,,,,,,
,,,,,,,,,,,,,FF,,,,,,,,0.7334,,,,,,,,,,,,,,,,,,,,,,60fdca594b75824bdfe2f7fe,61036ef6272321e9cb645269,2021-07-30_05h18.45.024,Simcolourproject_2stim_asymm_v5,2020.2.10,Win32,60,61025ae37ef11b136ea224fe,,,,,,,,,3623,78,40,1,0,0,response1disk,,6,6,2,1,0,0,rectangle,6,2,1,0,0,6,2,1,0,0,0,112,112,43,1,,,,,,,,
,,,,,,,,,,,,,FF,,,,,,,,1.1017,,,,,,,,,,,,,,,,,,,,,,60fdca594b75824bdfe2f7fe,61036ef6272321e9cb645269,2021-07-30_05h18.45.024,Simcolourproject_2stim_asymm_v5,2020.2.10,Win32,60,61025ae37ef11b136ea224fe,,,,,,,,,6,-62,-30,1,0,0,response5disk,,2,4,14,1,0,0,rectangle,4,14,1,0,0,4,14,1,0,0,0,113,113,124,1,,,,,,,,
,,,,,,,,,,,,,FF,,,,,,,,1.0187,,,,,,,,,,,,,,,,,,,,,,60fdca594b75824bdfe2f7fe,61036ef6272321e9cb645269,2021-07-30_05h18.45.024,Simcolourproject_2stim_asymm_v5,2020.2.10,Win32,60,61025ae37ef11b136ea224fe,,,,,,,,,2512,94,-30,1,0,0,response3disk,,5,-2,1,1,0,0,rectangle,-2,1,1,0,0,-2,1,1,0,0,0,114,114,0,1,,,,,,,,
,,,,,,,,,,,,,FF,,,,,,,,0.8186,,,,,,,,,,,,,,,,,,,,,,60fdca594b75824bdfe2f7fe,61036ef6272321e9cb645269,2021-07-30_05h18.45.024,Simcolourproject_2stim_asymm_v5,2020.2.10,Win32,60,61025ae37ef11b136ea224fe,,,,,,,,,181,42,-56,1,0,0,response3disk,,4,0,10,1,0,0,rectangle,0,10,1,0,0,0,10,1,0,0,0,115,115,27,1,,,,,,,,
,,,,,,,,,,,,,FF,,,,,,,,0.8665,,,,,,,,,,,,,,,,,,,,,,60fdca594b75824bdfe2f7fe,61036ef6272321e9cb645269,2021-07-30_05h18.45.024,Simcolourproject_2stim_asymm_v5,2020.2.10,Win32,60,61025ae37ef11b136ea224fe,,,,,,,,,2880,54,27,1,0,0,response1disk,,6,4,2,1,0,0,rectangle,4,2,1,0,0,4,2,1,0,0,0,116,116,140,1,,,,,,,,
,,,,,,,,,,,,,FF,,,,,,,,0.7874,,,,,,,,,,,,,,,,,,,,,,60fdca594b75824bdfe2f7fe,61036ef6272321e9cb645269,2021-07-30_05h18.45.024,Simcolourproject_2stim_asymm_v5,2020.2.10,Win32,60,61025ae37ef11b136ea224fe,,,,,,,,,467,40,-72,1,0,0,response3disk,,4,-5,3,1,0,0,rectangle,-5,3,1,0,0,-5,3,1,0,0,0,117,117,102,1,,,,,,,,
,,,,,,,,,,,,,FF,,,,,,,,1.5181,,,,,,,,,,,,,,,,,,,,,,60fdca594b75824bdfe2f7fe,61036ef6272321e9cb645269,2021-07-30_05h18.45.024,Simcolourproject_2stim_asymm_v5,2020.2.10,Win32,60,61025ae37ef11b136ea224fe,,,,,,,,,1283,45,-35,1,0,0,response3disk,,5,-1,2,1,0,0,rectangle,-1,2,1,0,0,-1,2,1,0,0,0,118,118,109,1,,,,,,,,
,,,,,,,,,,,,,FF,,,,,,,,1.9282,,,,,,,,,,,,,,,,,,,,,,60fdca594b75824bdfe2f7fe,61036ef6272321e9cb645269,2021-07-30_05h18.45.024,Simcolourproject_2stim_asymm_v5,2020.2.10,Win32,60,61025ae37ef11b136ea224fe,,,,,,,,,947,55,-22,1,0,0,response3disk,,5,11,1,1,0,0,rectangle,11,1,1,0,0,11,1,1,0,0,0,119,119,25,1,,,,,,,,
,,,,,,,,,,,,,FF,,,,,,,,0.8338,,,,,,,,,,,,,,,,,,,,,,60fdca594b75824bdfe2f7fe,61036ef6272321e9cb645269,2021-07-30_05h18.45.024,Simcolourproject_2stim_asymm_v5,2020.2.10,Win32,60,61025ae37ef11b136ea224fe,,,,,,,,,660,54,-26,1,0,0,response3disk,,5,15,-6,1,0,0,rectangle,15,-6,1,0,0,15,-6,1,0,0,0,120,120,134,1,,,,,,,,
,,,,,,,,,,,,,FF,,,,,,,,0.751,,,,,,,,,,,,,,,,,,,,,,60fdca594b75824bdfe2f7fe,61036ef6272321e9cb645269,2021-07-30_05h18.45.024,Simcolourproject_2stim_asymm_v5,2020.2.10,Win32,60,61025ae37ef11b136ea224fe,,,,,,,,,3652,50,29,1,0,0,response1disk,,6,11,7,1,0,0,rectangle,11,7,1,0,0,11,7,1,0,0,0,121,121,12,1,,,,,,,,
,,,,,,,,,,,,,FF,,,,,,,,1.4024,,,,,,,,,,,,,,,,,,,,,,60fdca594b75824bdfe2f7fe,61036ef6272321e9cb645269,2021-07-30_05h18.45.024,Simcolourproject_2stim_asymm_v5,2020.2.10,Win32,60,61025ae37ef11b136ea224fe,,,,,,,,,1441,20,-55,1,0,0,response3disk,,4,-8,5,1,0,0,rectangle,-8,5,1,0,0,-8,5,1,0,0,0,122,122,79,1,,,,,,,,
,,,,,,,,,,,,,FF,,,,,,,,0.8858,,,,,,,,,,,,,,,,,,,,,,60fdca594b75824bdfe2f7fe,61036ef6272321e9cb645269,2021-07-30_05h18.45.024,Simcolourproject_2stim_asymm_v5,2020.2.10,Win32,60,61025ae37ef11b136ea224fe,,,,,,,,,2564,23,71,1,0,0,response1disk,,7,-5,4,1,0,0,rectangle,-5,4,1,0,0,-5,4,1,0,0,0,123,123,57,1,,,,,,,,
,,,,,,,,,,,,,FF,,,,,,,,0.9193,,,,,,,,,,,,,,,,,,,,,,60fdca594b75824bdfe2f7fe,61036ef6272321e9cb645269,2021-07-30_05h18.45.024,Simcolourproject_2stim_asymm_v5,2020.2.10,Win32,60,61025ae37ef11b136ea224fe,,,,,,,,,1050,-44,61,1,0,0,response7disk,,0,4,-10,1,0,0,rectangle,4,-10,1,0,0,4,-10,1,0,0,0,124,124,2,1,,,,,,,,
,,,,,,,,,,,,,FF,,,,,,,,0.8857,,,,,,,,,,,,,,,,,,,,,,60fdca594b75824bdfe2f7fe,61036ef6272321e9cb645269,2021-07-30_05h18.45.024,Simcolourproject_2stim_asymm_v5,2020.2.10,Win32,60,61025ae37ef11b136ea224fe,,,,,,,,,766,101,37,1,0,0,response1disk,,6,22,3,1,0,0,rectangle,22,3,1,0,0,22,3,1,0,0,0,125,125,92,1,,,,,,,,
,,,,,,,,,,,,,FF,,,,,,,,0.9685,,,,,,,,,,,,,,,,,,,,,,60fdca594b75824bdfe2f7fe,61036ef6272321e9cb645269,2021-07-30_05h18.45.024,Simcolourproject_2stim_asymm_v5,2020.2.10,Win32,60,61025ae37ef11b136ea224fe,,,,,,,,,2027,-59,32,1,0,0,response7disk,,1,-2,0,1,0,0,rectangle,-2,0,1,0,0,-2,0,1,0,0,0,126,126,151,1,,,,,,,,
,,,,,,,,,,,,,FF,,,,,,,,0.8692,,,,,,,,,,,,,,,,,,,,,,60fdca594b75824bdfe2f7fe,61036ef6272321e9cb645269,2021-07-30_05h18.45.024,Simcolourproject_2stim_asymm_v5,2020.2.10,Win32,60,61025ae37ef11b136ea224fe,,,,,,,,,4077,102,39,1,0,0,response1disk,,6,13,1,1,0,0,rectangle,13,1,1,0,0,13,1,1,0,0,0,127,127,112,1,,,,,,,,
,,,,,,,,,,,,,FF,,,,,,,,1.0023,,,,,,,,,,,,,,,,,,,,,,60fdca594b75824bdfe2f7fe,61036ef6272321e9cb645269,2021-07-30_05h18.45.024,Simcolourproject_2stim_asymm_v5,2020.2.10,Win32,60,61025ae37ef11b136ea224fe,,,,,,,,,3676,-41,-61,1,0,0,response5disk,,3,-2,9,1,0,0,rectangle,-2,9,1,0,0,-2,9,1,0,0,0,128,128,137,1,,,,,,,,
,,,,,,,,,,,,,FF,,,,,,,,0.7192,,,,,,,,,,,,,,,,,,,,,,60fdca594b75824bdfe2f7fe,61036ef6272321e9cb645269,2021-07-30_05h18.45.024,Simcolourproject_2stim_asymm_v5,2020.2.10,Win32,60,61025ae37ef11b136ea224fe,,,,,,,,,3075,61,-42,1,0,0,response3disk,,5,-2,2,1,0,0,rectangle,-2,2,1,0,0,-2,2,1,0,0,0,129,129,66,1,,,,,,,,
,,,,,,,,,,,,,FF,,,,,,,,0.883,,,,,,,,,,,,,,,,,,,,,,60fdca594b75824bdfe2f7fe,61036ef6272321e9cb645269,2021-07-30_05h18.45.024,Simcolourproject_2stim_asymm_v5,2020.2.10,Win32,60,61025ae37ef11b136ea224fe,,,,,,,,,727,36,-64,1,0,0,response3disk,,4,1,12,1,0,0,rectangle,1,12,1,0,0,1,12,1,0,0,0,130,130,136,1,,,,,,,,
,,,,,,,,,,,,,FF,,,,,,,,0.8013,,,,,,,,,,,,,,,,,,,,,,60fdca594b75824bdfe2f7fe,61036ef6272321e9cb645269,2021-07-30_05h18.45.024,Simcolourproject_2stim_asymm_v5,2020.2.10,Win32,60,61025ae37ef11b136ea224fe,,,,,,,,,948,74,40,1,0,0,response1disk,,6,-2,0,1,0,0,rectangle,-2,0,1,0,0,-2,0,1,0,0,0,131,131,49,1,,,,,,,,
,,,,,,,,,,,,,FF,,,,,,,,0.7851,,,,,,,,,,,,,,,,,,,,,,60fdca594b75824bdfe2f7fe,61036ef6272321e9cb645269,2021-07-30_05h18.45.024,Simcolourproject_2stim_asymm_v5,2020.2.10,Win32,60,61025ae37ef11b136ea224fe,,,,,,,,,1561,47,67,1,0,0,response1disk,,7,12,1,1,0,0,rectangle,12,1,1,0,0,12,1,1,0,0,0,132,132,51,1,,,,,,,,
,,,,,,,,,,,,,FF,,,,,,,,1.0379,,,,,,,,,,,,,,,,,,,,,,60fdca594b75824bdfe2f7fe,61036ef6272321e9cb645269,2021-07-30_05h18.45.024,Simcolourproject_2stim_asymm_v5,2020.2.10,Win32,60,61025ae37ef11b136ea224fe,,,,,,,,,432,-70,-22,1,0,0,response5disk,,2,-10,-12,1,0,0,rectangle,-10,-12,1,0,0,-10,-12,1,0,0,0,133,133,35,1,,,,,,,,
,,,,,,,,,,,,,FF,,,,,,,,1.1244,,,,,,,,,,,,,,,,,,,,,,60fdca594b75824bdfe2f7fe,61036ef6272321e9cb645269,2021-07-30_05h18.45.024,Simcolourproject_2stim_asymm_v5,2020.2.10,Win32,60,61025ae37ef11b136ea224fe,,,,,,,,,4117,55,81,1,0,0,response1disk,,7,8,2,1,0,0,rectangle,8,2,1,0,0,8,2,1,0,0,0,134,134,158,1,,,,,,,,
,,,,,,,,,,,,,FF,,,,,,,,0.7864,,,,,,,,,,,,,,,,,,,,,,60fdca594b75824bdfe2f7fe,61036ef6272321e9cb645269,2021-07-30_05h18.45.024,Simcolourproject_2stim_asymm_v5,2020.2.10,Win32,60,61025ae37ef11b136ea224fe,,,,,,,,,1237,56,27,1,0,0,response1disk,,6,11,2,1,0,0,rectangle,11,2,1,0,0,11,2,1,0,0,0,135,135,95,1,,,,,,,,
,,,,,,,,,,,,,FF,,,,,,,,0.7216,,,,,,,,,,,,,,,,,,,,,,60fdca594b75824bdfe2f7fe,61036ef6272321e9cb645269,2021-07-30_05h18.45.024,Simcolourproject_2stim_asymm_v5,2020.2.10,Win32,60,61025ae37ef11b136ea224fe,,,,,,,,,688,35,-36,1,0,0,response3disk,,4,6,-5,1,0,0,rectangle,6,-5,1,0,0,6,-5,1,0,0,0,136,136,72,1,,,,,,,,
,,,,,,,,,,,,,FF,,,,,,,,0.7353,,,,,,,,,,,,,,,,,,,,,,60fdca594b75824bdfe2f7fe,61036ef6272321e9cb645269,2021-07-30_05h18.45.024,Simcolourproject_2stim_asymm_v5,2020.2.10,Win32,60,61025ae37ef11b136ea224fe,,,,,,,,,2616,61,46,1,0,0,response1disk,,6,1,10,1,0,0,rectangle,-81,-47,1,0,0,3,1,1,0,0,0,137,137,73,1,,response5disk_3,TRUE,2,2,"[194,9,177,76,29,199,239,63,167,45,280,196,29,59,253,165,54,138,187,313]",2.2796,rectangle
,,,,,,,,,,,,,FF,,,,,,,,1.3018,,,,,,,,,,,,,,,,,,,,,,60fdca594b75824bdfe2f7fe,61036ef6272321e9cb645269,2021-07-30_05h18.45.024,Simcolourproject_2stim_asymm_v5,2020.2.10,Win32,60,61025ae37ef11b136ea224fe,,,,,,,,,2216,51,17,1,0,0,response1disk,,6,11,2,1,0,0,rectangle,11,2,1,0,0,11,2,1,0,0,0,138,138,32,1,,,,,,,,
,,,,,,,,,,,,,FF,,,,,,,,0.7511,,,,,,,,,,,,,,,,,,,,,,60fdca594b75824bdfe2f7fe,61036ef6272321e9cb645269,2021-07-30_05h18.45.024,Simcolourproject_2stim_asymm_v5,2020.2.10,Win32,60,61025ae37ef11b136ea224fe,,,,,,,,,3310,62,41,1,0,0,response1disk,,6,5,-3,1,0,0,rectangle,5,-3,1,0,0,5,-3,1,0,0,0,139,139,85,1,,,,,,,,
,,,,,,,,,,,,,FF,,,,,,,,0.7937,,,,,,,,,,,,,,,,,,,,,,60fdca594b75824bdfe2f7fe,61036ef6272321e9cb645269,2021-07-30_05h18.45.024,Simcolourproject_2stim_asymm_v5,2020.2.10,Win32,60,61025ae37ef11b136ea224fe,,,,,,,,,1653,38,63,1,0,0,response1disk,,7,6,0,1,0,0,rectangle,6,0,1,0,0,6,0,1,0,0,0,140,140,18,1,,,,,,,,
,,,,,,,,,,,,,FF,,,,,,,,0.7687,,,,,,,,,,,,,,,,,,,,,,60fdca594b75824bdfe2f7fe,61036ef6272321e9cb645269,2021-07-30_05h18.45.024,Simcolourproject_2stim_asymm_v5,2020.2.10,Win32,60,61025ae37ef11b136ea224fe,,,,,,,,,3380,36,69,1,0,0,response1disk,,7,6,-1,1,0,0,rectangle,6,-1,1,0,0,6,-1,1,0,0,0,141,141,23,1,,,,,,,,
,,,,,,,,,,,,,FF,,,,,,,,0.9372,,,,,,,,,,,,,,,,,,,,,,60fdca594b75824bdfe2f7fe,61036ef6272321e9cb645269,2021-07-30_05h18.45.024,Simcolourproject_2stim_asymm_v5,2020.2.10,Win32,60,61025ae37ef11b136ea224fe,,,,,,,,,153,39,80,1,0,0,response1disk,,7,12,4,1,0,0,rectangle,12,4,1,0,0,12,4,1,0,0,0,142,142,144,1,,,,,,,,
,,,,,,,,,,,,,FF,,,,,,,,0.8049,,,,,,,,,,,,,,,,,,,,,,60fdca594b75824bdfe2f7fe,61036ef6272321e9cb645269,2021-07-30_05h18.45.024,Simcolourproject_2stim_asymm_v5,2020.2.10,Win32,60,61025ae37ef11b136ea224fe,,,,,,,,,2941,-46,66,1,0,0,response7disk,,0,-6,2,1,0,0,rectangle,-6,2,1,0,0,-6,2,1,0,0,0,143,143,60,1,,,,,,,,
,,,,,,,,,,,,,FF,,,,,,,,1.6805,,,,,,,,,,,,,,,,,,,,,,60fdca594b75824bdfe2f7fe,61036ef6272321e9cb645269,2021-07-30_05h18.45.024,Simcolourproject_2stim_asymm_v5,2020.2.10,Win32,60,61025ae37ef11b136ea224fe,,,,,,,,,3840,28,65,1,0,0,response1disk,,7,3,4,1,0,0,rectangle,3,4,1,0,0,3,4,1,0,0,0,144,144,31,1,,,,,,,,
,,,,,,,,,,,,,FF,,,,,,,,1.4702,,,,,,,,,,,,,,,,,,,,,,60fdca594b75824bdfe2f7fe,61036ef6272321e9cb645269,2021-07-30_05h18.45.024,Simcolourproject_2stim_asymm_v5,2020.2.10,Win32,60,61025ae37ef11b136ea224fe,,,,,,,,,2989,27,-39,1,0,0,response3disk,,4,-5,-1,1,0,0,rectangle,-5,-1,1,0,0,-5,-1,1,0,0,0,145,145,145,1,,,,,,,,
,,,,,,,,,,,,,FF,,,,,,,,0.8682,,,,,,,,,,,,,,,,,,,,,,60fdca594b75824bdfe2f7fe,61036ef6272321e9cb645269,2021-07-30_05h18.45.024,Simcolourproject_2stim_asymm_v5,2020.2.10,Win32,60,61025ae37ef11b136ea224fe,,,,,,,,,4363,-63,28,1,0,0,response7disk,,1,5,-7,1,0,0,rectangle,5,-7,1,0,0,5,-7,1,0,0,0,146,146,54,1,,,,,,,,
,,,,,,,,,,,,,FF,,,,,,,,0.968,,,,,,,,,,,,,,,,,,,,,,60fdca594b75824bdfe2f7fe,61036ef6272321e9cb645269,2021-07-30_05h18.45.024,Simcolourproject_2stim_asymm_v5,2020.2.10,Win32,60,61025ae37ef11b136ea224fe,,,,,,,,,3659,82,45,1,0,0,response1disk,,6,14,1,1,0,0,rectangle,14,1,1,0,0,14,1,1,0,0,0,147,147,28,1,,,,,,,,
,,,,,,,,,,,,,FF,,,,,,,,0.7203,,,,,,,,,,,,,,,,,,,,,,60fdca594b75824bdfe2f7fe,61036ef6272321e9cb645269,2021-07-30_05h18.45.024,Simcolourproject_2stim_asymm_v5,2020.2.10,Win32,60,61025ae37ef11b136ea224fe,,,,,,,,,1557,59,30,1,0,0,response1disk,,6,8,7,1,0,0,rectangle,8,7,1,0,0,8,7,1,0,0,0,148,148,38,1,,,,,,,,
,,,,,,,,,,,,,FF,,,,,,,,1.0854,,,,,,,,,,,,,,,,,,,,,,60fdca594b75824bdfe2f7fe,61036ef6272321e9cb645269,2021-07-30_05h18.45.024,Simcolourproject_2stim_asymm_v5,2020.2.10,Win32,60,61025ae37ef11b136ea224fe,,,,,,,,,3962,54,84,1,0,0,response1disk,,7,-11,-2,1,0,0,rectangle,-11,-2,1,0,0,-11,-2,1,0,0,0,149,149,62,1,,,,,,,,
,,,,,,,,,,,,,FF,,,,,,,,1.2379,,,,,,,,,,,,,,,,,,,,,,60fdca594b75824bdfe2f7fe,61036ef6272321e9cb645269,2021-07-30_05h18.45.024,Simcolourproject_2stim_asymm_v5,2020.2.10,Win32,60,61025ae37ef11b136ea224fe,,,,,,,,,1864,44,85,1,0,0,response1disk,,7,7,1,1,0,0,rectangle,7,1,1,0,0,7,1,1,0,0,0,150,150,146,1,,,,,,,,
,,,,,,,,,,,,,FF,,,,,,,,1.0514,,,,,,,,,,,,,,,,,,,,,,60fdca594b75824bdfe2f7fe,61036ef6272321e9cb645269,2021-07-30_05h18.45.024,Simcolourproject_2stim_asymm_v5,2020.2.10,Win32,60,61025ae37ef11b136ea224fe,,,,,,,,,4341,20,60,1,0,0,response1disk,,7,-4,5,1,0,0,rectangle,-4,5,1,0,0,-4,5,1,0,0,0,151,151,96,1,,,,,,,,
,,,,,,,,,,,,,FF,,,,,,,,0.7026,,,,,,,,,,,,,,,,,,,,,,60fdca594b75824bdfe2f7fe,61036ef6272321e9cb645269,2021-07-30_05h18.45.024,Simcolourproject_2stim_asymm_v5,2020.2.10,Win32,60,61025ae37ef11b136ea224fe,,,,,,,,,3929,40,52,1,0,0,response1disk,,7,10,1,1,0,0,rectangle,10,1,1,0,0,10,1,1,0,0,0,152,152,135,1,,,,,,,,
,,,,,,,,,,,,,FF,,,,,,,,0.7373,,,,,,,,,,,,,,,,,,,,,,60fdca594b75824bdfe2f7fe,61036ef6272321e9cb645269,2021-07-30_05h18.45.024,Simcolourproject_2stim_asymm_v5,2020.2.10,Win32,60,61025ae37ef11b136ea224fe,,,,,,,,,1902,50,24,1,0,0,response1disk,,6,8,0,1,0,0,rectangle,8,0,1,0,0,8,0,1,0,0,0,153,153,150,1,,,,,,,,
,,,,,,,,,,,,,FF,,,,,,,,0.7049,,,,,,,,,,,,,,,,,,,,,,60fdca594b75824bdfe2f7fe,61036ef6272321e9cb645269,2021-07-30_05h18.45.024,Simcolourproject_2stim_asymm_v5,2020.2.10,Win32,60,61025ae37ef11b136ea224fe,,,,,,,,,109,53,-41,1,0,0,response3disk,,5,2,2,1,0,0,rectangle,2,2,1,0,0,2,2,1,0,0,0,154,154,132,1,,,,,,,,
,,,,,,,,,,,,,FF,,,,,,,,0.817,,,,,,,,,,,,,,,,,,,,,,60fdca594b75824bdfe2f7fe,61036ef6272321e9cb645269,2021-07-30_05h18.45.024,Simcolourproject_2stim_asymm_v5,2020.2.10,Win32,60,61025ae37ef11b136ea224fe,,,,,,,,,3703,46,32,1,0,0,response1disk,,6,8,3,1,0,0,rectangle,8,3,1,0,0,8,3,1,0,0,0,155,155,119,1,,,,,,,,
,,,,,,,,,,,,,FF,,,,,,,,0.7883,,,,,,,,,,,,,,,,,,,,,,60fdca594b75824bdfe2f7fe,61036ef6272321e9cb645269,2021-07-30_05h18.45.024,Simcolourproject_2stim_asymm_v5,2020.2.10,Win32,60,61025ae37ef11b136ea224fe,,,,,,,,,1850,31,57,1,0,0,response1disk,,7,6,4,1,0,0,rectangle,6,4,1,0,0,6,4,1,0,0,0,156,156,115,1,,,,,,,,
,,,,,,,,,,,,,FF,,,,,,,,0.7008,,,,,,,,,,,,,,,,,,,,,,60fdca594b75824bdfe2f7fe,61036ef6272321e9cb645269,2021-07-30_05h18.45.024,Simcolourproject_2stim_asymm_v5,2020.2.10,Win32,60,61025ae37ef11b136ea224fe,,,,,,,,,2143,32,57,1,0,0,response1disk,,7,11,2,1,0,0,rectangle,11,2,1,0,0,11,2,1,0,0,0,157,157,94,1,,,,,,,,
,,,,,,,,,,,,,FF,,,,,,,,0.7352,,,,,,,,,,,,,,,,,,,,,,60fdca594b75824bdfe2f7fe,61036ef6272321e9cb645269,2021-07-30_05h18.45.024,Simcolourproject_2stim_asymm_v5,2020.2.10,Win32,60,61025ae37ef11b136ea224fe,,,,,,,,,1386,65,43,1,0,0,response1disk,,6,12,2,1,0,0,rectangle,12,2,1,0,0,12,2,1,0,0,0,158,158,4,1,,,,,,,,
,,,,,,,,,,,,,FF,,,,,,,,1.3186,,,,,,,,,,,,,,,,,,,,,,60fdca594b75824bdfe2f7fe,61036ef6272321e9cb645269,2021-07-30_05h18.45.024,Simcolourproject_2stim_asymm_v5,2020.2.10,Win32,60,61025ae37ef11b136ea224fe,,,,,,,,,3417,41,53,1,0,0,response1disk,,7,17,-1,1,0,0,rectangle,17,-1,1,0,0,17,-1,1,0,0,0,159,159,80,1,,,,,,,,
,,,,,,,,,,,,,FF,,,,,,,,1.0524,,,,,,,,,,,,,,,,,,,,,,60fdca594b75824bdfe2f7fe,61036ef6272321e9cb645269,2021-07-30_05h18.45.024,Simcolourproject_2stim_asymm_v5,2020.2.10,Win32,60,61025ae37ef11b136ea224fe,,,,,,,,,3445,34,70,1,0,0,response1disk,,7,-4,-4,1,0,0,rectangle,-4,-4,1,0,0,-4,-4,1,0,0,1,0,160,47,1,,,,,,,,
,,,,,,,,,,,,,FF,,,,,,,,0.735,,,,,,,,,,,,,,,,,,,,,,60fdca594b75824bdfe2f7fe,61036ef6272321e9cb645269,2021-07-30_05h18.45.024,Simcolourproject_2stim_asymm_v5,2020.2.10,Win32,60,61025ae37ef11b136ea224fe,,,,,,,,,3808,37,46,1,0,0,response1disk,,7,2,-4,1,0,0,rectangle,2,-4,1,0,0,2,-4,1,0,0,1,1,161,137,1,,,,,,,,
,,,,,,,,,,,,,FF,,,,,,,,1.9853,,,,,,,,,,,,,,,,,,,,,,60fdca594b75824bdfe2f7fe,61036ef6272321e9cb645269,2021-07-30_05h18.45.024,Simcolourproject_2stim_asymm_v5,2020.2.10,Win32,60,61025ae37ef11b136ea224fe,,,,,,,,,2606,-37,-73,1,0,0,response5disk,,3,3,5,1,0,0,rectangle,3,5,1,0,0,3,5,1,0,0,1,2,162,86,1,,,,,,,,
,,,,,,,,,,,,,FF,,,,,,,,1.0523,,,,,,,,,,,,,,,,,,,,,,60fdca594b75824bdfe2f7fe,61036ef6272321e9cb645269,2021-07-30_05h18.45.024,Simcolourproject_2stim_asymm_v5,2020.2.10,Win32,60,61025ae37ef11b136ea224fe,,,,,,,,,13,-82,-22,1,0,0,response5disk,,2,-13,1,1,0,0,rectangle,-13,1,1,0,0,-13,1,1,0,0,1,3,163,35,1,,,,,,,,
,,,,,,,,,,,,,FF,,,,,,,,0.9028,,,,,,,,,,,,,,,,,,,,,,60fdca594b75824bdfe2f7fe,61036ef6272321e9cb645269,2021-07-30_05h18.45.024,Simcolourproject_2stim_asymm_v5,2020.2.10,Win32,60,61025ae37ef11b136ea224fe,,,,,,,,,2892,-26,-86,1,0,0,response5disk,,3,5,-1,1,0,0,rectangle,-112,69,1,0,0,18,2,1,0,0,1,4,164,13,1,,response7disk_3,TRUE,1,1,"[194,9,177,76,29,199,239,63,167,45,280,196,29,59,253,165,54,138,187,313]",1.7375,rectangle
,,,,,,,,,,,,,FF,,,,,,,,1.0852,,,,,,,,,,,,,,,,,,,,,,60fdca594b75824bdfe2f7fe,61036ef6272321e9cb645269,2021-07-30_05h18.45.024,Simcolourproject_2stim_asymm_v5,2020.2.10,Win32,60,61025ae37ef11b136ea224fe,,,,,,,,,1389,-16,-70,1,0,0,response5disk,,3,5,-10,1,0,0,rectangle,5,-10,1,0,0,5,-10,1,0,0,1,5,165,7,1,,,,,,,,
,,,,,,,,,,,,,FF,,,,,,,,0.8189,,,,,,,,,,,,,,,,,,,,,,60fdca594b75824bdfe2f7fe,61036ef6272321e9cb645269,2021-07-30_05h18.45.024,Simcolourproject_2stim_asymm_v5,2020.2.10,Win32,60,61025ae37ef11b136ea224fe,,,,,,,,,4099,43,-53,1,0,0,response3disk,,4,-1,5,1,0,0,rectangle,56,-92,1,0,0,9,3,1,0,0,1,6,166,124,1,,response3disk_3,TRUE,4,4,"[194,9,177,76,29,199,239,63,167,45,280,196,29,59,253,165,54,138,187,313]",1.4315,rectangle
,,,,,,,,,,,,,FF,,,,,,,,1.971,,,,,,,,,,,,,,,,,,,,,,60fdca594b75824bdfe2f7fe,61036ef6272321e9cb645269,2021-07-30_05h18.45.024,Simcolourproject_2stim_asymm_v5,2020.2.10,Win32,60,61025ae37ef11b136ea224fe,,,,,,,,,1062,70,-38,1,0,0,response3disk,,5,-15,13,1,0,0,rectangle,-15,13,1,0,0,-15,13,1,0,0,1,7,167,156,1,,,,,,,,
,,,,,,,,,,,,,FF,,,,,,,,1.0364,,,,,,,,,,,,,,,,,,,,,,60fdca594b75824bdfe2f7fe,61036ef6272321e9cb645269,2021-07-30_05h18.45.024,Simcolourproject_2stim_asymm_v5,2020.2.10,Win32,60,61025ae37ef11b136ea224fe,,,,,,,,,3458,33,70,1,0,0,response1disk,,7,-6,-12,1,0,0,rectangle,-6,-12,1,0,0,-6,-12,1,0,0,1,8,168,46,1,,,,,,,,
,,,,,,,,,,,,,FF,,,,,,,,0.8846,,,,,,,,,,,,,,,,,,,,,,60fdca594b75824bdfe2f7fe,61036ef6272321e9cb645269,2021-07-30_05h18.45.024,Simcolourproject_2stim_asymm_v5,2020.2.10,Win32,60,61025ae37ef11b136ea224fe,,,,,,,,,425,68,34,1,0,0,response1disk,,6,23,-2,1,0,0,rectangle,23,-2,1,0,0,23,-2,1,0,0,1,9,169,23,1,,,,,,,,
,,,,,,,,,,,,,FF,,,,,,,,0.8678,,,,,,,,,,,,,,,,,,,,,,60fdca594b75824bdfe2f7fe,61036ef6272321e9cb645269,2021-07-30_05h18.45.024,Simcolourproject_2stim_asymm_v5,2020.2.10,Win32,60,61025ae37ef11b136ea224fe,,,,,,,,,3104,49,44,1,0,0,response1disk,,6,-6,7,1,0,0,rectangle,-6,7,1,0,0,-6,7,1,0,0,1,10,170,120,1,,,,,,,,
,,,,,,,,,,,,,FF,,,,,,,,0.8346,,,,,,,,,,,,,,,,,,,,,,60fdca594b75824bdfe2f7fe,61036ef6272321e9cb645269,2021-07-30_05h18.45.024,Simcolourproject_2stim_asymm_v5,2020.2.10,Win32,60,61025ae37ef11b136ea224fe,,,,,,,,,2816,46,64,1,0,0,response1disk,,7,21,7,1,0,0,rectangle,21,7,1,0,0,21,7,1,0,0,1,11,171,40,1,,,,,,,,
,,,,,,,,,,,,,FF,,,,,,,,0.8662,,,,,,,,,,,,,,,,,,,,,,60fdca594b75824bdfe2f7fe,61036ef6272321e9cb645269,2021-07-30_05h18.45.024,Simcolourproject_2stim_asymm_v5,2020.2.10,Win32,60,61025ae37ef11b136ea224fe,,,,,,,,,300,39,-74,1,0,0,response3disk,,4,-12,8,1,0,0,rectangle,-12,8,1,0,0,-12,8,1,0,0,1,12,172,121,1,,,,,,,,
,,,,,,,,,,,,,FF,,,,,,,,1.1014,,,,,,,,,,,,,,,,,,,,,,60fdca594b75824bdfe2f7fe,61036ef6272321e9cb645269,2021-07-30_05h18.45.024,Simcolourproject_2stim_asymm_v5,2020.2.10,Win32,60,61025ae37ef11b136ea224fe,,,,,,,,,2259,59,33,1,0,0,response1disk,,6,1,-3,1,0,0,rectangle,1,-3,1,0,0,1,-3,1,0,0,1,13,173,72,1,,,,,,,,
,,,,,,,,,,,,,FF,,,,,,,,1.5468,,,,,,,,,,,,,,,,,,,,,,60fdca594b75824bdfe2f7fe,61036ef6272321e9cb645269,2021-07-30_05h18.45.024,Simcolourproject_2stim_asymm_v5,2020.2.10,Win32,60,61025ae37ef11b136ea224fe,,,,,,,,,1868,69,37,1,0,0,response1disk,,6,-5,-4,1,0,0,rectangle,-5,-4,1,0,0,-5,-4,1,0,0,1,14,174,110,1,,,,,,,,
,,,,,,,,,,,,,FF,,,,,,,,0.7037,,,,,,,,,,,,,,,,,,,,,,60fdca594b75824bdfe2f7fe,61036ef6272321e9cb645269,2021-07-30_05h18.45.024,Simcolourproject_2stim_asymm_v5,2020.2.10,Win32,60,61025ae37ef11b136ea224fe,,,,,,,,,1091,109,53,1,0,0,response1disk,,6,-8,6,1,0,0,rectangle,-8,6,1,0,0,-8,6,1,0,0,1,15,175,70,1,,,,,,,,
,,,,,,,,,,,,,FF,,,,,,,,0.7857,,,,,,,,,,,,,,,,,,,,,,60fdca594b75824bdfe2f7fe,61036ef6272321e9cb645269,2021-07-30_05h18.45.024,Simcolourproject_2stim_asymm_v5,2020.2.10,Win32,60,61025ae37ef11b136ea224fe,,,,,,,,,257,21,78,1,0,0,response1disk,,7,-4,7,1,0,0,rectangle,-90,-41,1,0,0,-1,5,1,0,0,1,16,176,32,1,,response5disk_3,TRUE,2,2,"[194,9,177,76,29,199,239,63,167,45,280,196,29,59,253,165,54,138,187,313]",2.6358,rectangle
,,,,,,,,,,,,,FF,,,,,,,,1.1836,,,,,,,,,,,,,,,,,,,,,,60fdca594b75824bdfe2f7fe,61036ef6272321e9cb645269,2021-07-30_05h18.45.024,Simcolourproject_2stim_asymm_v5,2020.2.10,Win32,60,61025ae37ef11b136ea224fe,,,,,,,,,1256,39,80,1,0,0,response1disk,,7,7,5,1,0,0,rectangle,7,5,1,0,0,7,5,1,0,0,1,17,177,134,1,,,,,,,,
,,,,,,,,,,,,,FF,,,,,,,,0.9396,,,,,,,,,,,,,,,,,,,,,,60fdca594b75824bdfe2f7fe,61036ef6272321e9cb645269,2021-07-30_05h18.45.024,Simcolourproject_2stim_asymm_v5,2020.2.10,Win32,60,61025ae37ef11b136ea224fe,,,,,,,,,836,59,27,1,0,0,response1disk,,6,7,-13,1,0,0,rectangle,7,-13,1,0,0,7,-13,1,0,0,1,18,178,56,1,,,,,,,,
,,,,,,,,,,,,,FF,,,,,,,,0.9358,,,,,,,,,,,,,,,,,,,,,,60fdca594b75824bdfe2f7fe,61036ef6272321e9cb645269,2021-07-30_05h18.45.024,Simcolourproject_2stim_asymm_v5,2020.2.10,Win32,60,61025ae37ef11b136ea224fe,,,,,,,,,1711,54,-68,1,0,0,response3disk,,4,-2,12,1,0,0,rectangle,-2,12,1,0,0,-2,12,1,0,0,1,19,179,0,1,,,,,,,,
,,,,,,,,,,,,,FF,,,,,,,,0.8017,,,,,,,,,,,,,,,,,,,,,,60fdca594b75824bdfe2f7fe,61036ef6272321e9cb645269,2021-07-30_05h18.45.024,Simcolourproject_2stim_asymm_v5,2020.2.10,Win32,60,61025ae37ef11b136ea224fe,,,,,,,,,3909,31,30,1,0,0,response1disk,,6,11,7,1,0,0,rectangle,11,7,1,0,0,11,7,1,0,0,1,20,180,8,1,,,,,,,,
,,,,,,,,,,,,,FF,,,,,,,,0.6695,,,,,,,,,,,,,,,,,,,,,,60fdca594b75824bdfe2f7fe,61036ef6272321e9cb645269,2021-07-30_05h18.45.024,Simcolourproject_2stim_asymm_v5,2020.2.10,Win32,60,61025ae37ef11b136ea224fe,,,,,,,,,4069,64,30,1,0,0,response1disk,,6,9,4,1,0,0,rectangle,9,4,1,0,0,9,4,1,0,0,1,21,181,50,1,,,,,,,,
,,,,,,,,,,,,,FF,,,,,,,,0.7051,,,,,,,,,,,,,,,,,,,,,,60fdca594b75824bdfe2f7fe,61036ef6272321e9cb645269,2021-07-30_05h18.45.024,Simcolourproject_2stim_asymm_v5,2020.2.10,Win32,60,61025ae37ef11b136ea224fe,,,,,,,,,3602,82,59,1,0,0,response1disk,,6,-7,0,1,0,0,rectangle,-7,0,1,0,0,-7,0,1,0,0,1,22,182,94,1,,,,,,,,
,,,,,,,,,,,,,FF,,,,,,,,0.7021,,,,,,,,,,,,,,,,,,,,,,60fdca594b75824bdfe2f7fe,61036ef6272321e9cb645269,2021-07-30_05h18.45.024,Simcolourproject_2stim_asymm_v5,2020.2.10,Win32,60,61025ae37ef11b136ea224fe,,,,,,,,,3072,77,22,1,0,0,response1disk,,6,20,-4,1,0,0,rectangle,20,-4,1,0,0,20,-4,1,0,0,1,23,183,22,1,,,,,,,,
,,,,,,,,,,,,,FF,,,,,,,,0.6853,,,,,,,,,,,,,,,,,,,,,,60fdca594b75824bdfe2f7fe,61036ef6272321e9cb645269,2021-07-30_05h18.45.024,Simcolourproject_2stim_asymm_v5,2020.2.10,Win32,60,61025ae37ef11b136ea224fe,,,,,,,,,2062,51,-54,1,0,0,response3disk,,4,5,4,1,0,0,rectangle,5,4,1,0,0,5,4,1,0,0,1,24,184,4,1,,,,,,,,
,,,,,,,,,,,,,FF,,,,,,,,0.7626,,,,,,,,,,,,,,,,,,,,,,60fdca594b75824bdfe2f7fe,61036ef6272321e9cb645269,2021-07-30_05h18.45.024,Simcolourproject_2stim_asymm_v5,2020.2.10,Win32,60,61025ae37ef11b136ea224fe,,,,,,,,,2185,53,-42,1,0,0,response3disk,,5,-6,-3,1,0,0,rectangle,-6,-3,1,0,0,-6,-3,1,0,0,1,25,185,145,1,,,,,,,,
,,,,,,,,,,,,,FF,,,,,,,,1.0697,,,,,,,,,,,,,,,,,,,,,,60fdca594b75824bdfe2f7fe,61036ef6272321e9cb645269,2021-07-30_05h18.45.024,Simcolourproject_2stim_asymm_v5,2020.2.10,Win32,60,61025ae37ef11b136ea224fe,,,,,,,,,2782,-81,46,1,0,0,response7disk,,1,2,-1,1,0,0,rectangle,-39,-88,1,0,0,16,9,1,0,0,1,26,186,138,1,,response5disk_3,TRUE,3,3,"[194,9,177,76,29,199,239,63,167,45,280,196,29,59,253,165,54,138,187,313]",1.7041,rectangle
,,,,,,,,,,,,,FF,,,,,,,,0.7718,,,,,,,,,,,,,,,,,,,,,,60fdca594b75824bdfe2f7fe,61036ef6272321e9cb645269,2021-07-30_05h18.45.024,Simcolourproject_2stim_asymm_v5,2020.2.10,Win32,60,61025ae37ef11b136ea224fe,,,,,,,,,3060,76,44,1,0,0,response1disk,,6,-16,-15,1,0,0,rectangle,-16,-15,1,0,0,-16,-15,1,0,0,1,27,187,14,1,,,,,,,,
,,,,,,,,,,,,,FF,,,,,,,,0.8927,,,,,,,,,,,,,,,,,,,,,,60fdca594b75824bdfe2f7fe,61036ef6272321e9cb645269,2021-07-30_05h18.45.024,Simcolourproject_2stim_asymm_v5,2020.2.10,Win32,60,61025ae37ef11b136ea224fe,,,,,,,,,643,-94,32,1,0,0,response7disk,,1,0,4,1,0,0,rectangle,0,4,1,0,0,0,4,1,0,0,1,28,188,48,1,,,,,,,,
,,,,,,,,,,,,,FF,,,,,,,,0.9038,,,,,,,,,,,,,,,,,,,,,,60fdca594b75824bdfe2f7fe,61036ef6272321e9cb645269,2021-07-30_05h18.45.024,Simcolourproject_2stim_asymm_v5,2020.2.10,Win32,60,61025ae37ef11b136ea224fe,,,,,,,,,4019,32,80,1,0,0,response1disk,,7,-5,-3,1,0,0,rectangle,-5,-3,1,0,0,-5,-3,1,0,0,1,29,189,127,1,,,,,,,,
,,,,,,,,,,,,,FF,,,,,,,,0.8017,,,,,,,,,,,,,,,,,,,,,,60fdca594b75824bdfe2f7fe,61036ef6272321e9cb645269,2021-07-30_05h18.45.024,Simcolourproject_2stim_asymm_v5,2020.2.10,Win32,60,61025ae37ef11b136ea224fe,,,,,,,,,78,-67,40,1,0,0,response7disk,,1,-6,7,1,0,0,rectangle,-6,7,1,0,0,-6,7,1,0,0,1,30,190,104,1,,,,,,,,
,,,,,,,,,,,,,FF,,,,,,,,0.7355,,,,,,,,,,,,,,,,,,,,,,60fdca594b75824bdfe2f7fe,61036ef6272321e9cb645269,2021-07-30_05h18.45.024,Simcolourproject_2stim_asymm_v5,2020.2.10,Win32,60,61025ae37ef11b136ea224fe,,,,,,,,,3547,64,84,1,0,0,response1disk,,7,8,8,1,0,0,rectangle,8,8,1,0,0,8,8,1,0,0,1,31,191,69,1,,,,,,,,
,,,,,,,,,,,,,FF,,,,,,,,0.7498,,,,,,,,,,,,,,,,,,,,,,60fdca594b75824bdfe2f7fe,61036ef6272321e9cb645269,2021-07-30_05h18.45.024,Simcolourproject_2stim_asymm_v5,2020.2.10,Win32,60,61025ae37ef11b136ea224fe,,,,,,,,,336,-86,56,1,0,0,response7disk,,1,-19,2,1,0,0,rectangle,-19,2,1,0,0,-19,2,1,0,0,1,32,192,1,1,,,,,,,,
,,,,,,,,,,,,,FF,,,,,,,,1.0704,,,,,,,,,,,,,,,,,,,,,,60fdca594b75824bdfe2f7fe,61036ef6272321e9cb645269,2021-07-30_05h18.45.024,Simcolourproject_2stim_asymm_v5,2020.2.10,Win32,60,61025ae37ef11b136ea224fe,,,,,,,,,1422,-83,-41,1,0,0,response5disk,,2,3,3,1,0,0,rectangle,40,100,1,0,0,9,2,1,0,0,1,33,193,39,1,,response1disk_3,TRUE,7,7,"[194,9,177,76,29,199,239,63,167,45,280,196,29,59,253,165,54,138,187,313]",1.8023,rectangle
,,,,,,,,,,,,,FF,,,,,,,,1.6012,,,,,,,,,,,,,,,,,,,,,,60fdca594b75824bdfe2f7fe,61036ef6272321e9cb645269,2021-07-30_05h18.45.024,Simcolourproject_2stim_asymm_v5,2020.2.10,Win32,60,61025ae37ef11b136ea224fe,,,,,,,,,698,-39,-71,1,0,0,response5disk,,3,-13,1,1,0,0,rectangle,-13,1,1,0,0,-13,1,1,0,0,1,34,194,158,1,,,,,,,,
,,,,,,,,,,,,,FF,,,,,,,,0.9344,,,,,,,,,,,,,,,,,,,,,,60fdca594b75824bdfe2f7fe,61036ef6272321e9cb645269,2021-07-30_05h18.45.024,Simcolourproject_2stim_asymm_v5,2020.2.10,Win32,60,61025ae37ef11b136ea224fe,,,,,,,,,3981,103,54,1,0,0,response1disk,,6,1,3,1,0,0,rectangle,-30,-62,1,0,0,-1,-9,1,0,0,1,35,195,153,1,,response5disk_3,TRUE,3,3,"[194,9,177,76,29,199,239,63,167,45,280,196,29,59,253,165,54,138,187,313]",1.5676,rectangle
,,,,,,,,,,,,,FF,,,,,,,,1.1181,,,,,,,,,,,,,,,,,,,,,,60fdca594b75824bdfe2f7fe,61036ef6272321e9cb645269,2021-07-30_05h18.45.024,Simcolourproject_2stim_asymm_v5,2020.2.10,Win32,60,61025ae37ef11b136ea224fe,,,,,,,,,3722,72,41,1,0,0,response1disk,,6,-2,-11,1,0,0,rectangle,-2,-11,1,0,0,-2,-11,1,0,0,1,36,196,139,1,,,,,,,,
,,,,,,,,,,,,,FF,,,,,,,,1.2551,,,,,,,,,,,,,,,,,,,,,,60fdca594b75824bdfe2f7fe,61036ef6272321e9cb645269,2021-07-30_05h18.45.024,Simcolourproject_2stim_asymm_v5,2020.2.10,Win32,60,61025ae37ef11b136ea224fe,,,,,,,,,3153,-81,-30,1,0,0,response5disk,,2,-9,-7,1,0,0,rectangle,-9,-7,1,0,0,-9,-7,1,0,0,1,37,197,15,1,,,,,,,,
,,,,,,,,,,,,,FF,,,,,,,,1.0036,,,,,,,,,,,,,,,,,,,,,,60fdca594b75824bdfe2f7fe,61036ef6272321e9cb645269,2021-07-30_05h18.45.024,Simcolourproject_2stim_asymm_v5,2020.2.10,Win32,60,61025ae37ef11b136ea224fe,,,,,,,,,251,-52,-45,1,0,0,response5disk,,2,-10,-15,1,0,0,rectangle,46,-78,1,0,0,8,3,1,0,0,1,38,198,49,1,,response3disk_3,TRUE,4,4,"[194,9,177,76,29,199,239,63,167,45,280,196,29,59,253,165,54,138,187,313]",1.6665,rectangle
,,,,,,,,,,,,,FF,,,,,,,,0.801,,,,,,,,,,,,,,,,,,,,,,60fdca594b75824bdfe2f7fe,61036ef6272321e9cb645269,2021-07-30_05h18.45.024,Simcolourproject_2stim_asymm_v5,2020.2.10,Win32,60,61025ae37ef11b136ea224fe,,,,,,,,,3164,68,43,1,0,0,response1disk,,6,10,6,1,0,0,rectangle,10,6,1,0,0,10,6,1,0,0,1,39,199,66,1,,,,,,,,
,,,,,,,,,,,,,FF,,,,,,,,0.7667,,,,,,,,,,,,,,,,,,,,,,60fdca594b75824bdfe2f7fe,61036ef6272321e9cb645269,2021-07-30_05h18.45.024,Simcolourproject_2stim_asymm_v5,2020.2.10,Win32,60,61025ae37ef11b136ea224fe,,,,,,,,,1161,42,54,1,0,0,response1disk,,7,16,1,1,0,0,rectangle,16,1,1,0,0,16,1,1,0,0,1,40,200,67,1,,,,,,,,
,,,,,,,,,,,,,FF,,,,,,,,0.7706,,,,,,,,,,,,,,,,,,,,,,60fdca594b75824bdfe2f7fe,61036ef6272321e9cb645269,2021-07-30_05h18.45.024,Simcolourproject_2stim_asymm_v5,2020.2.10,Win32,60,61025ae37ef11b136ea224fe,,,,,,,,,1257,82,45,1,0,0,response1disk,,6,9,1,1,0,0,rectangle,9,1,1,0,0,9,1,1,0,0,1,41,201,16,1,,,,,,,,
,,,,,,,,,,,,,FF,,,,,,,,0.8197,,,,,,,,,,,,,,,,,,,,,,60fdca594b75824bdfe2f7fe,61036ef6272321e9cb645269,2021-07-30_05h18.45.024,Simcolourproject_2stim_asymm_v5,2020.2.10,Win32,60,61025ae37ef11b136ea224fe,,,,,,,,,1948,60,33,1,0,0,response1disk,,6,5,1,1,0,0,rectangle,5,1,1,0,0,5,1,1,0,0,1,42,202,9,1,,,,,,,,
,,,,,,,,,,,,,FF,,,,,,,,1.1854,,,,,,,,,,,,,,,,,,,,,,60fdca594b75824bdfe2f7fe,61036ef6272321e9cb645269,2021-07-30_05h18.45.024,Simcolourproject_2stim_asymm_v5,2020.2.10,Win32,60,61025ae37ef11b136ea224fe,,,,,,,,,3562,83,30,1,0,0,response1disk,,6,4,-4,1,0,0,rectangle,4,-4,1,0,0,4,-4,1,0,0,1,43,203,52,1,,,,,,,,
,,,,,,,,,,,,,FF,,,,,,,,0.8045,,,,,,,,,,,,,,,,,,,,,,60fdca594b75824bdfe2f7fe,61036ef6272321e9cb645269,2021-07-30_05h18.45.024,Simcolourproject_2stim_asymm_v5,2020.2.10,Win32,60,61025ae37ef11b136ea224fe,,,,,,,,,1514,34,-50,1,0,0,response3disk,,4,6,-2,1,0,0,rectangle,6,-2,1,0,0,6,-2,1,0,0,1,44,204,18,1,,,,,,,,
,,,,,,,,,,,,,FF,,,,,,,,0.7188,,,,,,,,,,,,,,,,,,,,,,60fdca594b75824bdfe2f7fe,61036ef6272321e9cb645269,2021-07-30_05h18.45.024,Simcolourproject_2stim_asymm_v5,2020.2.10,Win32,60,61025ae37ef11b136ea224fe,,,,,,,,,344,69,43,1,0,0,response1disk,,6,8,5,1,0,0,rectangle,8,5,1,0,0,8,5,1,0,0,1,45,205,136,1,,,,,,,,
,,,,,,,,,,,,,FF,,,,,,,,0.7514,,,,,,,,,,,,,,,,,,,,,,60fdca594b75824bdfe2f7fe,61036ef6272321e9cb645269,2021-07-30_05h18.45.024,Simcolourproject_2stim_asymm_v5,2020.2.10,Win32,60,61025ae37ef11b136ea224fe,,,,,,,,,4033,18,54,1,0,0,response1disk,,7,3,7,1,0,0,rectangle,3,7,1,0,0,3,7,1,0,0,1,46,206,61,1,,,,,,,,
,,,,,,,,,,,,,FF,,,,,,,,0.6506,,,,,,,,,,,,,,,,,,,,,,60fdca594b75824bdfe2f7fe,61036ef6272321e9cb645269,2021-07-30_05h18.45.024,Simcolourproject_2stim_asymm_v5,2020.2.10,Win32,60,61025ae37ef11b136ea224fe,,,,,,,,,1356,72,35,1,0,0,response1disk,,6,4,1,1,0,0,rectangle,4,1,1,0,0,4,1,1,0,0,1,47,207,142,1,,,,,,,,
,,,,,,,,,,,,,FF,,,,,,,,1.1679,,,,,,,,,,,,,,,,,,,,,,60fdca594b75824bdfe2f7fe,61036ef6272321e9cb645269,2021-07-30_05h18.45.024,Simcolourproject_2stim_asymm_v5,2020.2.10,Win32,60,61025ae37ef11b136ea224fe,,,,,,,,,3191,-23,-79,1,0,0,response5disk,,3,10,-1,1,0,0,rectangle,10,-1,1,0,0,10,-1,1,0,0,1,48,208,25,1,,,,,,,,
,,,,,,,,,,,,,FF,,,,,,,,1.0707,,,,,,,,,,,,,,,,,,,,,,60fdca594b75824bdfe2f7fe,61036ef6272321e9cb645269,2021-07-30_05h18.45.024,Simcolourproject_2stim_asymm_v5,2020.2.10,Win32,60,61025ae37ef11b136ea224fe,,,,,,,,,1770,58,-20,1,0,0,response3disk,,5,-13,5,1,0,0,rectangle,-13,5,1,0,0,-13,5,1,0,0,1,49,209,99,1,,,,,,,,
,,,,,,,,,,,,,FF,,,,,,,,0.8664,,,,,,,,,,,,,,,,,,,,,,60fdca594b75824bdfe2f7fe,61036ef6272321e9cb645269,2021-07-30_05h18.45.024,Simcolourproject_2stim_asymm_v5,2020.2.10,Win32,60,61025ae37ef11b136ea224fe,,,,,,,,,0,-66,33,1,0,0,response7disk,,1,-4,-3,1,0,0,rectangle,-4,-3,1,0,0,-4,-3,1,0,0,1,50,210,62,1,,,,,,,,
,,,,,,,,,,,,,FF,,,,,,,,1.1368,,,,,,,,,,,,,,,,,,,,,,60fdca594b75824bdfe2f7fe,61036ef6272321e9cb645269,2021-07-30_05h18.45.024,Simcolourproject_2stim_asymm_v5,2020.2.10,Win32,60,61025ae37ef11b136ea224fe,,,,,,,,,4182,-79,-42,1,0,0,response5disk,,2,-7,-4,1,0,0,rectangle,-7,-4,1,0,0,-7,-4,1,0,0,1,51,211,38,1,,,,,,,,
,,,,,,,,,,,,,FF,,,,,,,,0.7206,,,,,,,,,,,,,,,,,,,,,,60fdca594b75824bdfe2f7fe,61036ef6272321e9cb645269,2021-07-30_05h18.45.024,Simcolourproject_2stim_asymm_v5,2020.2.10,Win32,60,61025ae37ef11b136ea224fe,,,,,,,,,2010,45,38,1,0,0,response1disk,,6,-5,5,1,0,0,rectangle,-5,5,1,0,0,-5,5,1,0,0,1,52,212,89,1,,,,,,,,
,,,,,,,,,,,,,FF,,,,,,,,0.6687,,,,,,,,,,,,,,,,,,,,,,60fdca594b75824bdfe2f7fe,61036ef6272321e9cb645269,2021-07-30_05h18.45.024,Simcolourproject_2stim_asymm_v5,2020.2.10,Win32,60,61025ae37ef11b136ea224fe,,,,,,,,,3756,58,37,1,0,0,response1disk,,6,11,9,1,0,0,rectangle,11,9,1,0,0,11,9,1,0,0,1,53,213,119,1,,,,,,,,
,,,,,,,,,,,,,FF,,,,,,,,0.7341,,,,,,,,,,,,,,,,,,,,,,60fdca594b75824bdfe2f7fe,61036ef6272321e9cb645269,2021-07-30_05h18.45.024,Simcolourproject_2stim_asymm_v5,2020.2.10,Win32,60,61025ae37ef11b136ea224fe,,,,,,,,,1701,70,50,1,0,0,response1disk,,6,-2,-1,1,0,0,rectangle,-2,-1,1,0,0,-2,-1,1,0,0,1,54,214,122,1,,,,,,,,
,,,,,,,,,,,,,FF,,,,,,,,0.7358,,,,,,,,,,,,,,,,,,,,,,60fdca594b75824bdfe2f7fe,61036ef6272321e9cb645269,2021-07-30_05h18.45.024,Simcolourproject_2stim_asymm_v5,2020.2.10,Win32,60,61025ae37ef11b136ea224fe,,,,,,,,,2956,35,23,1,0,0,response1disk,,6,8,2,1,0,0,rectangle,8,2,1,0,0,8,2,1,0,0,1,55,215,133,1,,,,,,,,
,,,,,,,,,,,,,FF,,,,,,,,0.7585,,,,,,,,,,,,,,,,,,,,,,60fdca594b75824bdfe2f7fe,61036ef6272321e9cb645269,2021-07-30_05h18.45.024,Simcolourproject_2stim_asymm_v5,2020.2.10,Win32,60,61025ae37ef11b136ea224fe,,,,,,,,,3632,64,51,1,0,0,response1disk,,6,6,-4,1,0,0,rectangle,6,-4,1,0,0,6,-4,1,0,0,1,56,216,131,1,,,,,,,,
,,,,,,,,,,,,,FF,,,,,,,,0.6364,,,,,,,,,,,,,,,,,,,,,,60fdca594b75824bdfe2f7fe,61036ef6272321e9cb645269,2021-07-30_05h18.45.024,Simcolourproject_2stim_asymm_v5,2020.2.10,Win32,60,61025ae37ef11b136ea224fe,,,,,,,,,1107,70,39,1,0,0,response1disk,,6,13,8,1,0,0,rectangle,13,8,1,0,0,13,8,1,0,0,1,57,217,17,1,,,,,,,,
,,,,,,,,,,,,,FF,,,,,,,,0.7522,,,,,,,,,,,,,,,,,,,,,,60fdca594b75824bdfe2f7fe,61036ef6272321e9cb645269,2021-07-30_05h18.45.024,Simcolourproject_2stim_asymm_v5,2020.2.10,Win32,60,61025ae37ef11b136ea224fe,,,,,,,,,1021,43,68,1,0,0,response1disk,,7,9,8,1,0,0,rectangle,9,8,1,0,0,9,8,1,0,0,1,58,218,76,1,,,,,,,,
,,,,,,,,,,,,,FF,,,,,,,,0.9515,,,,,,,,,,,,,,,,,,,,,,60fdca594b75824bdfe2f7fe,61036ef6272321e9cb645269,2021-07-30_05h18.45.024,Simcolourproject_2stim_asymm_v5,2020.2.10,Win32,60,61025ae37ef11b136ea224fe,,,,,,,,,855,36,-71,1,0,0,response3disk,,4,8,10,1,0,0,rectangle,8,10,1,0,0,8,10,1,0,0,1,59,219,149,1,,,,,,,,
,,,,,,,,,,,,,FF,,,,,,,,1.1198,,,,,,,,,,,,,,,,,,,,,,60fdca594b75824bdfe2f7fe,61036ef6272321e9cb645269,2021-07-30_05h18.45.024,Simcolourproject_2stim_asymm_v5,2020.2.10,Win32,60,61025ae37ef11b136ea224fe,,,,,,,,,1274,-71,-46,1,0,0,response5disk,,2,12,9,1,0,0,rectangle,12,9,1,0,0,12,9,1,0,0,1,60,220,26,1,,,,,,,,
,,,,,,,,,,,,,FF,,,,,,,,1.1021,,,,,,,,,,,,,,,,,,,,,,60fdca594b75824bdfe2f7fe,61036ef6272321e9cb645269,2021-07-30_05h18.45.024,Simcolourproject_2stim_asymm_v5,2020.2.10,Win32,60,61025ae37ef11b136ea224fe,,,,,,,,,2930,47,40,1,0,0,response1disk,,6,1,-5,1,0,0,rectangle,1,-5,1,0,0,1,-5,1,0,0,1,61,221,147,1,,,,,,,,
,,,,,,,,,,,,,FF,,,,,,,,0.8028,,,,,,,,,,,,,,,,,,,,,,60fdca594b75824bdfe2f7fe,61036ef6272321e9cb645269,2021-07-30_05h18.45.024,Simcolourproject_2stim_asymm_v5,2020.2.10,Win32,60,61025ae37ef11b136ea224fe,,,,,,,,,1094,20,-77,1,0,0,response3disk,,4,-5,-5,1,0,0,rectangle,-5,-5,1,0,0,-5,-5,1,0,0,1,62,222,82,1,,,,,,,,
,,,,,,,,,,,,,FF,,,,,,,,0.9048,,,,,,,,,,,,,,,,,,,,,,60fdca594b75824bdfe2f7fe,61036ef6272321e9cb645269,2021-07-30_05h18.45.024,Simcolourproject_2stim_asymm_v5,2020.2.10,Win32,60,61025ae37ef11b136ea224fe,,,,,,,,,1930,40,-45,1,0,0,response3disk,,4,8,1,1,0,0,rectangle,8,1,1,0,0,8,1,1,0,0,1,63,223,117,1,,,,,,,,
,,,,,,,,,,,,,FF,,,,,,,,1.37,,,,,,,,,,,,,,,,,,,,,,60fdca594b75824bdfe2f7fe,61036ef6272321e9cb645269,2021-07-30_05h18.45.024,Simcolourproject_2stim_asymm_v5,2020.2.10,Win32,60,61025ae37ef11b136ea224fe,,,,,,,,,1200,-82,-32,1,0,0,response5disk,,2,7,-5,1,0,0,rectangle,7,-5,1,0,0,7,-5,1,0,0,1,64,224,60,1,,,,,,,,
,,,,,,,,,,,,,FF,,,,,,,,0.7011,,,,,,,,,,,,,,,,,,,,,,60fdca594b75824bdfe2f7fe,61036ef6272321e9cb645269,2021-07-30_05h18.45.024,Simcolourproject_2stim_asymm_v5,2020.2.10,Win32,60,61025ae37ef11b136ea224fe,,,,,,,,,1186,50,34,1,0,0,response1disk,,6,8,0,1,0,0,rectangle,8,0,1,0,0,8,0,1,0,0,1,65,225,95,1,,,,,,,,
,,,,,,,,,,,,,FF,,,,,,,,1.235,,,,,,,,,,,,,,,,,,,,,,60fdca594b75824bdfe2f7fe,61036ef6272321e9cb645269,2021-07-30_05h18.45.024,Simcolourproject_2stim_asymm_v5,2020.2.10,Win32,60,61025ae37ef11b136ea224fe,,,,,,,,,3472,-92,-33,1,0,0,response5disk,,2,-23,-2,1,0,0,rectangle,-23,-2,1,0,0,-23,-2,1,0,0,1,66,226,83,1,,,,,,,,
,,,,,,,,,,,,,FF,,,,,,,,1.3187,,,,,,,,,,,,,,,,,,,,,,60fdca594b75824bdfe2f7fe,61036ef6272321e9cb645269,2021-07-30_05h18.45.024,Simcolourproject_2stim_asymm_v5,2020.2.10,Win32,60,61025ae37ef11b136ea224fe,,,,,,,,,4307,37,76,1,0,0,response1disk,,7,2,-1,1,0,0,rectangle,2,-1,1,0,0,2,-1,1,0,0,1,67,227,55,1,,,,,,,,
,,,,,,,,,,,,,FF,,,,,,,,0.7025,,,,,,,,,,,,,,,,,,,,,,60fdca594b75824bdfe2f7fe,61036ef6272321e9cb645269,2021-07-30_05h18.45.024,Simcolourproject_2stim_asymm_v5,2020.2.10,Win32,60,61025ae37ef11b136ea224fe,,,,,,,,,3607,62,33,1,0,0,response1disk,,6,4,-9,1,0,0,rectangle,4,-9,1,0,0,4,-9,1,0,0,1,68,228,106,1,,,,,,,,
,,,,,,,,,,,,,FF,,,,,,,,0.885,,,,,,,,,,,,,,,,,,,,,,60fdca594b75824bdfe2f7fe,61036ef6272321e9cb645269,2021-07-30_05h18.45.024,Simcolourproject_2stim_asymm_v5,2020.2.10,Win32,60,61025ae37ef11b136ea224fe,,,,,,,,,420,48,37,1,0,0,response1disk,,6,0,0,1,0,0,rectangle,0,0,1,0,0,0,0,1,0,0,1,69,229,87,1,,,,,,,,
,,,,,,,,,,,,,FF,,,,,,,,0.8184,,,,,,,,,,,,,,,,,,,,,,60fdca594b75824bdfe2f7fe,61036ef6272321e9cb645269,2021-07-30_05h18.45.024,Simcolourproject_2stim_asymm_v5,2020.2.10,Win32,60,61025ae37ef11b136ea224fe,,,,,,,,,389,36,61,1,0,0,response1disk,,7,-4,-13,1,0,0,rectangle,-4,-13,1,0,0,-4,-13,1,0,0,1,70,230,129,1,,,,,,,,
,,,,,,,,,,,,,FF,,,,,,,,0.7207,,,,,,,,,,,,,,,,,,,,,,60fdca594b75824bdfe2f7fe,61036ef6272321e9cb645269,2021-07-30_05h18.45.024,Simcolourproject_2stim_asymm_v5,2020.2.10,Win32,60,61025ae37ef11b136ea224fe,,,,,,,,,2912,18,38,1,0,0,response1disk,,7,10,10,1,0,0,rectangle,10,10,1,0,0,10,10,1,0,0,1,71,231,113,1,,,,,,,,
,,,,,,,,,,,,,FF,,,,,,,,0.8845,,,,,,,,,,,,,,,,,,,,,,60fdca594b75824bdfe2f7fe,61036ef6272321e9cb645269,2021-07-30_05h18.45.024,Simcolourproject_2stim_asymm_v5,2020.2.10,Win32,60,61025ae37ef11b136ea224fe,,,,,,,,,1540,-89,-21,1,0,0,response5disk,,2,-2,0,1,0,0,rectangle,-2,0,1,0,0,-2,0,1,0,0,1,72,232,20,1,,,,,,,,
,,,,,,,,,,,,,FF,,,,,,,,1.4787,,,,,,,,,,,,,,,,,,,,,,60fdca594b75824bdfe2f7fe,61036ef6272321e9cb645269,2021-07-30_05h18.45.024,Simcolourproject_2stim_asymm_v5,2020.2.10,Win32,60,61025ae37ef11b136ea224fe,,,,,,,,,3342,-83,-38,1,0,0,response5disk,,2,-16,-9,1,0,0,rectangle,-16,-9,1,0,0,-16,-9,1,0,0,1,73,233,71,1,,,,,,,,
,,,,,,,,,,,,,FF,,,,,,,,0.6841,,,,,,,,,,,,,,,,,,,,,,60fdca594b75824bdfe2f7fe,61036ef6272321e9cb645269,2021-07-30_05h18.45.024,Simcolourproject_2stim_asymm_v5,2020.2.10,Win32,60,61025ae37ef11b136ea224fe,,,,,,,,,1473,71,43,1,0,0,response1disk,,6,-2,-5,1,0,0,rectangle,-2,-5,1,0,0,-2,-5,1,0,0,1,74,234,154,1,,,,,,,,
,,,,,,,,,,,,,FF,,,,,,,,1.0033,,,,,,,,,,,,,,,,,,,,,,60fdca594b75824bdfe2f7fe,61036ef6272321e9cb645269,2021-07-30_05h18.45.024,Simcolourproject_2stim_asymm_v5,2020.2.10,Win32,60,61025ae37ef11b136ea224fe,,,,,,,,,3395,-71,-36,1,0,0,response5disk,,2,0,2,1,0,0,rectangle,0,2,1,0,0,0,2,1,0,0,1,75,235,45,1,,,,,,,,
,,,,,,,,,,,,,FF,,,,,,,,0.7214,,,,,,,,,,,,,,,,,,,,,,60fdca594b75824bdfe2f7fe,61036ef6272321e9cb645269,2021-07-30_05h18.45.024,Simcolourproject_2stim_asymm_v5,2020.2.10,Win32,60,61025ae37ef11b136ea224fe,,,,,,,,,2419,-48,32,1,0,0,response7disk,,1,3,2,1,0,0,rectangle,3,2,1,0,0,3,2,1,0,0,1,76,236,88,1,,,,,,,,
,,,,,,,,,,,,,FF,,,,,,,,0.765,,,,,,,,,,,,,,,,,,,,,,60fdca594b75824bdfe2f7fe,61036ef6272321e9cb645269,2021-07-30_05h18.45.024,Simcolourproject_2stim_asymm_v5,2020.2.10,Win32,60,61025ae37ef11b136ea224fe,,,,,,,,,105,-64,30,1,0,0,response7disk,,1,5,2,1,0,0,rectangle,5,2,1,0,0,5,2,1,0,0,1,77,237,151,1,,,,,,,,
,,,,,,,,,,,,,FF,,,,,,,,0.7702,,,,,,,,,,,,,,,,,,,,,,60fdca594b75824bdfe2f7fe,61036ef6272321e9cb645269,2021-07-30_05h18.45.024,Simcolourproject_2stim_asymm_v5,2020.2.10,Win32,60,61025ae37ef11b136ea224fe,,,,,,,,,3884,85,63,1,0,0,response1disk,,6,-1,9,1,0,0,rectangle,-36,-81,1,0,0,-1,9,1,0,0,1,78,238,114,1,,response5disk_3,TRUE,3,3,"[194,9,177,76,29,199,239,63,167,45,280,196,29,59,253,165,54,138,187,313]",1.7175,rectangle
,,,,,,,,,,,,,FF,,,,,,,,1.6839,,,,,,,,,,,,,,,,,,,,,,60fdca594b75824bdfe2f7fe,61036ef6272321e9cb645269,2021-07-30_05h18.45.024,Simcolourproject_2stim_asymm_v5,2020.2.10,Win32,60,61025ae37ef11b136ea224fe,,,,,,,,,3348,-43,-73,1,0,0,response5disk,,3,3,-9,1,0,0,rectangle,3,-9,1,0,0,3,-9,1,0,0,1,79,239,34,1,,,,,,,,
,,,,,,,,,,,,,FF,,,,,,,,0.9517,,,,,,,,,,,,,,,,,,,,,,60fdca594b75824bdfe2f7fe,61036ef6272321e9cb645269,2021-07-30_05h18.45.024,Simcolourproject_2stim_asymm_v5,2020.2.10,Win32,60,61025ae37ef11b136ea224fe,,,,,,,,,1481,-32,-82,1,0,0,response5disk,,3,10,-5,1,0,0,rectangle,10,-5,1,0,0,10,-5,1,0,0,1,80,240,65,1,,,,,,,,
,,,,,,,,,,,,,FF,,,,,,,,1.0837,,,,,,,,,,,,,,,,,,,,,,60fdca594b75824bdfe2f7fe,61036ef6272321e9cb645269,2021-07-30_05h18.45.024,Simcolourproject_2stim_asymm_v5,2020.2.10,Win32,60,61025ae37ef11b136ea224fe,,,,,,,,,1595,55,92,1,0,0,response1disk,,7,-1,5,1,0,0,rectangle,-1,5,1,0,0,-1,5,1,0,0,1,81,241,111,1,,,,,,,,
,,,,,,,,,,,,,FF,,,,,,,,0.7875,,,,,,,,,,,,,,,,,,,,,,60fdca594b75824bdfe2f7fe,61036ef6272321e9cb645269,2021-07-30_05h18.45.024,Simcolourproject_2stim_asymm_v5,2020.2.10,Win32,60,61025ae37ef11b136ea224fe,,,,,,,,,529,-52,16,1,0,0,response7disk,,1,-14,3,1,0,0,rectangle,-14,3,1,0,0,-14,3,1,0,0,1,82,242,41,1,,,,,,,,
,,,,,,,,,,,,,FF,,,,,,,,0.6883,,,,,,,,,,,,,,,,,,,,,,60fdca594b75824bdfe2f7fe,61036ef6272321e9cb645269,2021-07-30_05h18.45.024,Simcolourproject_2stim_asymm_v5,2020.2.10,Win32,60,61025ae37ef11b136ea224fe,,,,,,,,,3120,31,23,1,0,0,response1disk,,6,-11,-2,1,0,0,rectangle,-11,-2,1,0,0,-11,-2,1,0,0,1,83,243,100,1,,,,,,,,
,,,,,,,,,,,,,FF,,,,,,,,0.6325,,,,,,,,,,,,,,,,,,,,,,60fdca594b75824bdfe2f7fe,61036ef6272321e9cb645269,2021-07-30_05h18.45.024,Simcolourproject_2stim_asymm_v5,2020.2.10,Win32,60,61025ae37ef11b136ea224fe,,,,,,,,,3008,45,-84,1,0,0,response3disk,,4,-2,7,1,0,0,rectangle,-2,7,1,0,0,-2,7,1,0,0,1,84,244,33,1,,,,,,,,
,,,,,,,,,,,,,FF,,,,,,,,0.7217,,,,,,,,,,,,,,,,,,,,,,60fdca594b75824bdfe2f7fe,61036ef6272321e9cb645269,2021-07-30_05h18.45.024,Simcolourproject_2stim_asymm_v5,2020.2.10,Win32,60,61025ae37ef11b136ea224fe,,,,,,,,,416,115,83,1,0,0,response1disk,,6,4,7,1,0,0,rectangle,4,7,1,0,0,4,7,1,0,0,1,85,245,58,1,,,,,,,,
,,,,,,,,,,,,,FF,,,,,,,,0.8715,,,,,,,,,,,,,,,,,,,,,,60fdca594b75824bdfe2f7fe,61036ef6272321e9cb645269,2021-07-30_05h18.45.024,Simcolourproject_2stim_asymm_v5,2020.2.10,Win32,60,61025ae37ef11b136ea224fe,,,,,,,,,261,-48,75,1,0,0,response7disk,,0,2,9,1,0,0,rectangle,2,9,1,0,0,2,9,1,0,0,1,86,246,107,1,,,,,,,,
,,,,,,,,,,,,,FF,,,,,,,,0.6552,,,,,,,,,,,,,,,,,,,,,,60fdca594b75824bdfe2f7fe,61036ef6272321e9cb645269,2021-07-30_05h18.45.024,Simcolourproject_2stim_asymm_v5,2020.2.10,Win32,60,61025ae37ef11b136ea224fe,,,,,,,,,1563,54,25,1,0,0,response1disk,,6,-12,-9,1,0,0,rectangle,-12,-9,1,0,0,-12,-9,1,0,0,1,87,247,28,1,,,,,,,,
,,,,,,,,,,,,,FF,,,,,,,,0.842,,,,,,,,,,,,,,,,,,,,,,60fdca594b75824bdfe2f7fe,61036ef6272321e9cb645269,2021-07-30_05h18.45.024,Simcolourproject_2stim_asymm_v5,2020.2.10,Win32,60,61025ae37ef11b136ea224fe,,,,,,,,,852,-80,17,1,0,0,response7disk,,1,-24,3,1,0,0,rectangle,-24,3,1,0,0,-24,3,1,0,0,1,88,248,79,1,,,,,,,,
,,,,,,,,,,,,,FF,,,,,,,,0.9195,,,,,,,,,,,,,,,,,,,,,,60fdca594b75824bdfe2f7fe,61036ef6272321e9cb645269,2021-07-30_05h18.45.024,Simcolourproject_2stim_asymm_v5,2020.2.10,Win32,60,61025ae37ef11b136ea224fe,,,,,,,,,3604,78,28,1,0,0,response1disk,,6,30,-6,1,0,0,rectangle,30,-6,1,0,0,30,-6,1,0,0,1,89,249,44,1,,,,,,,,
,,,,,,,,,,,,,FF,,,,,,,,0.7348,,,,,,,,,,,,,,,,,,,,,,60fdca594b75824bdfe2f7fe,61036ef6272321e9cb645269,2021-07-30_05h18.45.024,Simcolourproject_2stim_asymm_v5,2020.2.10,Win32,60,61025ae37ef11b136ea224fe,,,,,,,,,2305,53,-35,1,0,0,response3disk,,5,-29,-5,1,0,0,rectangle,-29,-5,1,0,0,-29,-5,1,0,0,1,90,250,96,1,,,,,,,,
,,,,,,,,,,,,,FF,,,,,,,,0.8889,,,,,,,,,,,,,,,,,,,,,,60fdca594b75824bdfe2f7fe,61036ef6272321e9cb645269,2021-07-30_05h18.45.024,Simcolourproject_2stim_asymm_v5,2020.2.10,Win32,60,61025ae37ef11b136ea224fe,,,,,,,,,1890,-90,37,1,0,0,response7disk,,1,-16,1,1,0,0,rectangle,-16,1,1,0,0,-16,1,1,0,0,1,91,251,84,1,,,,,,,,
,,,,,,,,,,,,,FF,,,,,,,,1.0166,,,,,,,,,,,,,,,,,,,,,,60fdca594b75824bdfe2f7fe,61036ef6272321e9cb645269,2021-07-30_05h18.45.024,Simcolourproject_2stim_asymm_v5,2020.2.10,Win32,60,61025ae37ef11b136ea224fe,,,,,,,,,1588,-38,-58,1,0,0,response5disk,,3,-1,1,1,0,0,rectangle,-106,-49,1,0,0,-2,-1,1,0,0,1,92,252,105,1,,response5disk_3,TRUE,2,2,"[194,9,177,76,29,199,239,63,167,45,280,196,29,59,253,165,54,138,187,313]",1.687,rectangle
,,,,,,,,,,,,,FF,,,,,,,,1.0692,,,,,,,,,,,,,,,,,,,,,,60fdca594b75824bdfe2f7fe,61036ef6272321e9cb645269,2021-07-30_05h18.45.024,Simcolourproject_2stim_asymm_v5,2020.2.10,Win32,60,61025ae37ef11b136ea224fe,,,,,,,,,4171,-36,-70,1,0,0,response5disk,,3,-1,-10,1,0,0,rectangle,-1,-10,1,0,0,-1,-10,1,0,0,1,93,253,5,1,,,,,,,,
,,,,,,,,,,,,,FF,,,,,,,,0.9678,,,,,,,,,,,,,,,,,,,,,,60fdca594b75824bdfe2f7fe,61036ef6272321e9cb645269,2021-07-30_05h18.45.024,Simcolourproject_2stim_asymm_v5,2020.2.10,Win32,60,61025ae37ef11b136ea224fe,,,,,,,,,3426,-33,-89,1,0,0,response5disk,,3,8,-2,1,0,0,rectangle,8,-2,1,0,0,8,-2,1,0,0,1,94,254,150,1,,,,,,,,
,,,,,,,,,,,,,FF,,,,,,,,1.1337,,,,,,,,,,,,,,,,,,,,,,60fdca594b75824bdfe2f7fe,61036ef6272321e9cb645269,2021-07-30_05h18.45.024,Simcolourproject_2stim_asymm_v5,2020.2.10,Win32,60,61025ae37ef11b136ea224fe,,,,,,,,,1589,32,-70,1,0,0,response3disk,,4,-3,3,1,0,0,rectangle,-3,3,1,0,0,-3,3,1,0,0,1,95,255,118,1,,,,,,,,
,,,,,,,,,,,,,FF,,,,,,,,0.6706,,,,,,,,,,,,,,,,,,,,,,60fdca594b75824bdfe2f7fe,61036ef6272321e9cb645269,2021-07-30_05h18.45.024,Simcolourproject_2stim_asymm_v5,2020.2.10,Win32,60,61025ae37ef11b136ea224fe,,,,,,,,,3440,56,-24,1,0,0,response3disk,,5,1,8,1,0,0,rectangle,1,8,1,0,0,1,8,1,0,0,1,96,256,77,1,,,,,,,,
,,,,,,,,,,,,,FF,,,,,,,,0.6524,,,,,,,,,,,,,,,,,,,,,,60fdca594b75824bdfe2f7fe,61036ef6272321e9cb645269,2021-07-30_05h18.45.024,Simcolourproject_2stim_asymm_v5,2020.2.10,Win32,60,61025ae37ef11b136ea224fe,,,,,,,,,3891,25,28,1,0,0,response1disk,,7,2,-6,1,0,0,rectangle,2,-6,1,0,0,2,-6,1,0,0,1,97,257,98,1,,,,,,,,
,,,,,,,,,,,,,FF,,,,,,,,0.8538,,,,,,,,,,,,,,,,,,,,,,60fdca594b75824bdfe2f7fe,61036ef6272321e9cb645269,2021-07-30_05h18.45.024,Simcolourproject_2stim_asymm_v5,2020.2.10,Win32,60,61025ae37ef11b136ea224fe,,,,,,,,,1609,-42,80,1,0,0,response7disk,,0,2,-3,1,0,0,rectangle,2,-3,1,0,0,2,-3,1,0,0,1,98,258,3,1,,,,,,,,
,,,,,,,,,,,,,FF,,,,,,,,0.719,,,,,,,,,,,,,,,,,,,,,,60fdca594b75824bdfe2f7fe,61036ef6272321e9cb645269,2021-07-30_05h18.45.024,Simcolourproject_2stim_asymm_v5,2020.2.10,Win32,60,61025ae37ef11b136ea224fe,,,,,,,,,220,63,37,1,0,0,response1disk,,6,1,9,1,0,0,rectangle,1,9,1,0,0,1,9,1,0,0,1,99,259,6,1,,,,,,,,
,,,,,,,,,,,,,FF,,,,,,,,0.875,,,,,,,,,,,,,,,,,,,,,,60fdca594b75824bdfe2f7fe,61036ef6272321e9cb645269,2021-07-30_05h18.45.024,Simcolourproject_2stim_asymm_v5,2020.2.10,Win32,60,61025ae37ef11b136ea224fe,,,,,,,,,365,51,102,1,0,0,response1disk,,7,-3,-5,1,0,0,rectangle,-3,-5,1,0,0,-3,-5,1,0,0,1,100,260,152,1,,,,,,,,
,,,,,,,,,,,,,FF,,,,,,,,0.6842,,,,,,,,,,,,,,,,,,,,,,60fdca594b75824bdfe2f7fe,61036ef6272321e9cb645269,2021-07-30_05h18.45.024,Simcolourproject_2stim_asymm_v5,2020.2.10,Win32,60,61025ae37ef11b136ea224fe,,,,,,,,,4214,38,25,1,0,0,response1disk,,6,0,8,1,0,0,rectangle,0,8,1,0,0,0,8,1,0,0,1,101,261,30,1,,,,,,,,
,,,,,,,,,,,,,FF,,,,,,,,0.6878,,,,,,,,,,,,,,,,,,,,,,60fdca594b75824bdfe2f7fe,61036ef6272321e9cb645269,2021-07-30_05h18.45.024,Simcolourproject_2stim_asymm_v5,2020.2.10,Win32,60,61025ae37ef11b136ea224fe,,,,,,,,,2698,53,57,1,0,0,response1disk,,7,8,7,1,0,0,rectangle,8,7,1,0,0,8,7,1,0,0,1,102,262,125,1,,,,,,,,
,,,,,,,,,,,,,FF,,,,,,,,0.7205,,,,,,,,,,,,,,,,,,,,,,60fdca594b75824bdfe2f7fe,61036ef6272321e9cb645269,2021-07-30_05h18.45.024,Simcolourproject_2stim_asymm_v5,2020.2.10,Win32,60,61025ae37ef11b136ea224fe,,,,,,,,,2326,78,45,1,0,0,response1disk,,6,-12,1,1,0,0,rectangle,-12,1,1,0,0,-12,1,1,0,0,1,103,263,112,1,,,,,,,,
,,,,,,,,,,,,,FF,,,,,,,,0.6858,,,,,,,,,,,,,,,,,,,,,,60fdca594b75824bdfe2f7fe,61036ef6272321e9cb645269,2021-07-30_05h18.45.024,Simcolourproject_2stim_asymm_v5,2020.2.10,Win32,60,61025ae37ef11b136ea224fe,,,,,,,,,3353,78,52,1,0,0,response1disk,,6,-1,-6,1,0,0,rectangle,-1,-6,1,0,0,-1,-6,1,0,0,1,104,264,54,1,,,,,,,,
,,,,,,,,,,,,,FF,,,,,,,,0.9362,,,,,,,,,,,,,,,,,,,,,,60fdca594b75824bdfe2f7fe,61036ef6272321e9cb645269,2021-07-30_05h18.45.024,Simcolourproject_2stim_asymm_v5,2020.2.10,Win32,60,61025ae37ef11b136ea224fe,,,,,,,,,373,-87,40,1,0,0,response7disk,,1,8,3,1,0,0,rectangle,8,3,1,0,0,8,3,1,0,0,1,105,265,116,1,,,,,,,,
,,,,,,,,,,,,,FF,,,,,,,,0.8019,,,,,,,,,,,,,,,,,,,,,,60fdca594b75824bdfe2f7fe,61036ef6272321e9cb645269,2021-07-30_05h18.45.024,Simcolourproject_2stim_asymm_v5,2020.2.10,Win32,60,61025ae37ef11b136ea224fe,,,,,,,,,2541,-42,69,1,0,0,response7disk,,0,-5,4,1,0,0,rectangle,-5,4,1,0,0,-5,4,1,0,0,1,106,266,29,1,,,,,,,,
,,,,,,,,,,,,,FF,,,,,,,,1.3708,,,,,,,,,,,,,,,,,,,,,,60fdca594b75824bdfe2f7fe,61036ef6272321e9cb645269,2021-07-30_05h18.45.024,Simcolourproject_2stim_asymm_v5,2020.2.10,Win32,60,61025ae37ef11b136ea224fe,,,,,,,,,3748,-96,-56,1,0,0,response5disk,,2,10,11,1,0,0,rectangle,10,11,1,0,0,10,11,1,0,0,1,107,267,90,1,,,,,,,,
,,,,,,,,,,,,,FF,,,,,,,,1.8832,,,,,,,,,,,,,,,,,,,,,,60fdca594b75824bdfe2f7fe,61036ef6272321e9cb645269,2021-07-30_05h18.45.024,Simcolourproject_2stim_asymm_v5,2020.2.10,Win32,60,61025ae37ef11b136ea224fe,,,,,,,,,4208,-34,-77,1,0,0,response5disk,,3,7,-5,1,0,0,rectangle,7,-5,1,0,0,7,-5,1,0,0,1,108,268,11,1,,,,,,,,
,,,,,,,,,,,,,FF,,,,,,,,0.8693,,,,,,,,,,,,,,,,,,,,,,60fdca594b75824bdfe2f7fe,61036ef6272321e9cb645269,2021-07-30_05h18.45.024,Simcolourproject_2stim_asymm_v5,2020.2.10,Win32,60,61025ae37ef11b136ea224fe,,,,,,,,,3019,83,63,1,0,0,response1disk,,6,-10,0,1,0,0,rectangle,-10,0,1,0,0,-10,0,1,0,0,1,109,269,103,1,,,,,,,,
,,,,,,,,,,,,,FF,,,,,,,,0.7032,,,,,,,,,,,,,,,,,,,,,,60fdca594b75824bdfe2f7fe,61036ef6272321e9cb645269,2021-07-30_05h18.45.024,Simcolourproject_2stim_asymm_v5,2020.2.10,Win32,60,61025ae37ef11b136ea224fe,,,,,,,,,3263,55,41,1,0,0,response1disk,,6,4,-4,1,0,0,rectangle,4,-4,1,0,0,4,-4,1,0,0,1,110,270,36,1,,,,,,,,
,,,,,,,,,,,,,FF,,,,,,,,1.0335,,,,,,,,,,,,,,,,,,,,,,60fdca594b75824bdfe2f7fe,61036ef6272321e9cb645269,2021-07-30_05h18.45.024,Simcolourproject_2stim_asymm_v5,2020.2.10,Win32,60,61025ae37ef11b136ea224fe,,,,,,,,,255,-78,42,1,0,0,response7disk,,1,9,-6,1,0,0,rectangle,9,-6,1,0,0,9,-6,1,0,0,1,111,271,128,1,,,,,,,,
,,,,,,,,,,,,,FF,,,,,,,,0.9376,,,,,,,,,,,,,,,,,,,,,,60fdca594b75824bdfe2f7fe,61036ef6272321e9cb645269,2021-07-30_05h18.45.024,Simcolourproject_2stim_asymm_v5,2020.2.10,Win32,60,61025ae37ef11b136ea224fe,,,,,,,,,3623,94,48,1,0,0,response1disk,,6,-9,4,1,0,0,rectangle,-9,4,1,0,0,-9,4,1,0,0,1,112,272,31,1,,,,,,,,
,,,,,,,,,,,,,FF,,,,,,,,0.7498,,,,,,,,,,,,,,,,,,,,,,60fdca594b75824bdfe2f7fe,61036ef6272321e9cb645269,2021-07-30_05h18.45.024,Simcolourproject_2stim_asymm_v5,2020.2.10,Win32,60,61025ae37ef11b136ea224fe,,,,,,,,,6,-67,30,1,0,0,response7disk,,1,-9,-1,1,0,0,rectangle,-9,-1,1,0,0,-9,-1,1,0,0,1,113,273,78,1,,,,,,,,
,,,,,,,,,,,,,FF,,,,,,,,0.6542,,,,,,,,,,,,,,,,,,,,,,60fdca594b75824bdfe2f7fe,61036ef6272321e9cb645269,2021-07-30_05h18.45.024,Simcolourproject_2stim_asymm_v5,2020.2.10,Win32,60,61025ae37ef11b136ea224fe,,,,,,,,,2512,74,31,1,0,0,response1disk,,6,-6,-1,1,0,0,rectangle,-6,-1,1,0,0,-6,-1,1,0,0,1,114,274,155,1,,,,,,,,
,,,,,,,,,,,,,FF,,,,,,,,1.1184,,,,,,,,,,,,,,,,,,,,,,60fdca594b75824bdfe2f7fe,61036ef6272321e9cb645269,2021-07-30_05h18.45.024,Simcolourproject_2stim_asymm_v5,2020.2.10,Win32,60,61025ae37ef11b136ea224fe,,,,,,,,,181,-42,-69,1,0,0,response5disk,,3,-7,4,1,0,0,rectangle,-7,4,1,0,0,-7,4,1,0,0,1,115,275,109,1,,,,,,,,
,,,,,,,,,,,,,FF,,,,,,,,0.7355,,,,,,,,,,,,,,,,,,,,,,60fdca594b75824bdfe2f7fe,61036ef6272321e9cb645269,2021-07-30_05h18.45.024,Simcolourproject_2stim_asymm_v5,2020.2.10,Win32,60,61025ae37ef11b136ea224fe,,,,,,,,,2880,63,43,1,0,0,response1disk,,6,12,-1,1,0,0,rectangle,12,-1,1,0,0,12,-1,1,0,0,1,116,276,24,1,,,,,,,,
,,,,,,,,,,,,,FF,,,,,,,,0.7343,,,,,,,,,,,,,,,,,,,,,,60fdca594b75824bdfe2f7fe,61036ef6272321e9cb645269,2021-07-30_05h18.45.024,Simcolourproject_2stim_asymm_v5,2020.2.10,Win32,60,61025ae37ef11b136ea224fe,,,,,,,,,467,61,32,1,0,0,response1disk,,6,12,1,1,0,0,rectangle,12,1,1,0,0,12,1,1,0,0,1,117,277,21,1,,,,,,,,
,,,,,,,,,,,,,FF,,,,,,,,0.7876,,,,,,,,,,,,,,,,,,,,,,60fdca594b75824bdfe2f7fe,61036ef6272321e9cb645269,2021-07-30_05h18.45.024,Simcolourproject_2stim_asymm_v5,2020.2.10,Win32,60,61025ae37ef11b136ea224fe,,,,,,,,,1283,48,28,1,0,0,response1disk,,6,4,-4,1,0,0,rectangle,4,-4,1,0,0,4,-4,1,0,0,1,118,278,75,1,,,,,,,,
,,,,,,,,,,,,,FF,,,,,,,,1.1202,,,,,,,,,,,,,,,,,,,,,,60fdca594b75824bdfe2f7fe,61036ef6272321e9cb645269,2021-07-30_05h18.45.024,Simcolourproject_2stim_asymm_v5,2020.2.10,Win32,60,61025ae37ef11b136ea224fe,,,,,,,,,947,-42,-79,1,0,0,response5disk,,3,-5,7,1,0,0,rectangle,-101,-31,1,0,0,1,4,1,0,0,1,119,279,53,1,,response5disk_3,TRUE,2,2,"[194,9,177,76,29,199,239,63,167,45,280,196,29,59,253,165,54,138,187,313]",11.8778,rectangle
,,,,,,,,,,,,,FF,,,,,,,,1.352,,,,,,,,,,,,,,,,,,,,,,60fdca594b75824bdfe2f7fe,61036ef6272321e9cb645269,2021-07-30_05h18.45.024,Simcolourproject_2stim_asymm_v5,2020.2.10,Win32,60,61025ae37ef11b136ea224fe,,,,,,,,,660,15,-74,1,0,0,response3disk,,4,-5,-14,1,0,0,rectangle,-5,-14,1,0,0,-5,-14,1,0,0,1,120,280,64,1,,,,,,,,
,,,,,,,,,,,,,FF,,,,,,,,0.8161,,,,,,,,,,,,,,,,,,,,,,60fdca594b75824bdfe2f7fe,61036ef6272321e9cb645269,2021-07-30_05h18.45.024,Simcolourproject_2stim_asymm_v5,2020.2.10,Win32,60,61025ae37ef11b136ea224fe,,,,,,,,,3652,82,-49,1,0,0,response3disk,,5,-20,14,1,0,0,rectangle,-20,14,1,0,0,-20,14,1,0,0,1,121,281,68,1,,,,,,,,
,,,,,,,,,,,,,FF,,,,,,,,1.4184,,,,,,,,,,,,,,,,,,,,,,60fdca594b75824bdfe2f7fe,61036ef6272321e9cb645269,2021-07-30_05h18.45.024,Simcolourproject_2stim_asymm_v5,2020.2.10,Win32,60,61025ae37ef11b136ea224fe,,,,,,,,,1441,35,-60,1,0,0,response3disk,,4,9,-5,1,0,0,rectangle,9,-5,1,0,0,9,-5,1,0,0,1,122,282,10,1,,,,,,,,
,,,,,,,,,,,,,FF,,,,,,,,0.6724,,,,,,,,,,,,,,,,,,,,,,60fdca594b75824bdfe2f7fe,61036ef6272321e9cb645269,2021-07-30_05h18.45.024,Simcolourproject_2stim_asymm_v5,2020.2.10,Win32,60,61025ae37ef11b136ea224fe,,,,,,,,,2564,71,50,1,0,0,response1disk,,6,-9,-5,1,0,0,rectangle,-9,-5,1,0,0,-9,-5,1,0,0,1,123,283,51,1,,,,,,,,
,,,,,,,,,,,,,FF,,,,,,,,0.7206,,,,,,,,,,,,,,,,,,,,,,60fdca594b75824bdfe2f7fe,61036ef6272321e9cb645269,2021-07-30_05h18.45.024,Simcolourproject_2stim_asymm_v5,2020.2.10,Win32,60,61025ae37ef11b136ea224fe,,,,,,,,,1050,-58,103,1,0,0,response7disk,,0,-12,5,1,0,0,rectangle,-12,5,1,0,0,-12,5,1,0,0,1,124,284,74,1,,,,,,,,
,,,,,,,,,,,,,FF,,,,,,,,0.8189,,,,,,,,,,,,,,,,,,,,,,60fdca594b75824bdfe2f7fe,61036ef6272321e9cb645269,2021-07-30_05h18.45.024,Simcolourproject_2stim_asymm_v5,2020.2.10,Win32,60,61025ae37ef11b136ea224fe,,,,,,,,,766,63,31,1,0,0,response1disk,,6,12,0,1,0,0,rectangle,12,0,1,0,0,12,0,1,0,0,1,125,285,126,1,,,,,,,,
,,,,,,,,,,,,,FF,,,,,,,,0.7876,,,,,,,,,,,,,,,,,,,,,,60fdca594b75824bdfe2f7fe,61036ef6272321e9cb645269,2021-07-30_05h18.45.024,Simcolourproject_2stim_asymm_v5,2020.2.10,Win32,60,61025ae37ef11b136ea224fe,,,,,,,,,2027,-71,44,1,0,0,response7disk,,1,-1,-7,1,0,0,rectangle,-1,-7,1,0,0,-1,-7,1,0,0,1,126,286,27,1,,,,,,,,
,,,,,,,,,,,,,FF,,,,,,,,0.7029,,,,,,,,,,,,,,,,,,,,,,60fdca594b75824bdfe2f7fe,61036ef6272321e9cb645269,2021-07-30_05h18.45.024,Simcolourproject_2stim_asymm_v5,2020.2.10,Win32,60,61025ae37ef11b136ea224fe,,,,,,,,,4077,57,25,1,0,0,response1disk,,6,1,-4,1,0,0,rectangle,1,-4,1,0,0,1,-4,1,0,0,1,127,287,59,1,,,,,,,,
,,,,,,,,,,,,,FF,,,,,,,,1.235,,,,,,,,,,,,,,,,,,,,,,60fdca594b75824bdfe2f7fe,61036ef6272321e9cb645269,2021-07-30_05h18.45.024,Simcolourproject_2stim_asymm_v5,2020.2.10,Win32,60,61025ae37ef11b136ea224fe,,,,,,,,,3676,-46,-78,1,0,0,response5disk,,3,-1,0,1,0,0,rectangle,-1,0,1,0,0,-1,0,1,0,0,1,128,288,101,1,,,,,,,,
,,,,,,,,,,,,,FF,,,,,,,,0.8049,,,,,,,,,,,,,,,,,,,,,,60fdca594b75824bdfe2f7fe,61036ef6272321e9cb645269,2021-07-30_05h18.45.024,Simcolourproject_2stim_asymm_v5,2020.2.10,Win32,60,61025ae37ef11b136ea224fe,,,,,,,,,3075,61,25,1,0,0,response1disk,,6,8,-8,1,0,0,rectangle,8,-8,1,0,0,8,-8,1,0,0,1,129,289,123,1,,,,,,,,
,,,,,,,,,,,,,FF,,,,,,,,0.9847,,,,,,,,,,,,,,,,,,,,,,60fdca594b75824bdfe2f7fe,61036ef6272321e9cb645269,2021-07-30_05h18.45.024,Simcolourproject_2stim_asymm_v5,2020.2.10,Win32,60,61025ae37ef11b136ea224fe,,,,,,,,,727,-44,-65,1,0,0,response5disk,,3,-6,-13,1,0,0,rectangle,-6,-13,1,0,0,-6,-13,1,0,0,1,130,290,73,1,,,,,,,,
,,,,,,,,,,,,,FF,,,,,,,,0.7992,,,,,,,,,,,,,,,,,,,,,,60fdca594b75824bdfe2f7fe,61036ef6272321e9cb645269,2021-07-30_05h18.45.024,Simcolourproject_2stim_asymm_v5,2020.2.10,Win32,60,61025ae37ef11b136ea224fe,,,,,,,,,948,-45,-73,1,0,0,response5disk,,3,-8,7,1,0,0,rectangle,-8,7,1,0,0,-8,7,1,0,0,1,131,291,159,1,,,,,,,,
,,,,,,,,,,,,,FF,,,,,,,,0.7205,,,,,,,,,,,,,,,,,,,,,,60fdca594b75824bdfe2f7fe,61036ef6272321e9cb645269,2021-07-30_05h18.45.024,Simcolourproject_2stim_asymm_v5,2020.2.10,Win32,60,61025ae37ef11b136ea224fe,,,,,,,,,1561,-26,-52,1,0,0,response5disk,,3,-2,2,1,0,0,rectangle,-2,2,1,0,0,-2,2,1,0,0,1,132,292,12,1,,,,,,,,
,,,,,,,,,,,,,FF,,,,,,,,1.6198,,,,,,,,,,,,,,,,,,,,,,60fdca594b75824bdfe2f7fe,61036ef6272321e9cb645269,2021-07-30_05h18.45.024,Simcolourproject_2stim_asymm_v5,2020.2.10,Win32,60,61025ae37ef11b136ea224fe,,,,,,,,,432,-23,-47,1,0,0,response5disk,,3,5,0,1,0,0,rectangle,5,0,1,0,0,5,0,1,0,0,1,133,293,57,1,,,,,,,,
,,,,,,,,,,,,,FF,,,,,,,,0.8171,,,,,,,,,,,,,,,,,,,,,,60fdca594b75824bdfe2f7fe,61036ef6272321e9cb645269,2021-07-30_05h18.45.024,Simcolourproject_2stim_asymm_v5,2020.2.10,Win32,60,61025ae37ef11b136ea224fe,,,,,,,,,4117,38,-63,1,0,0,response3disk,,4,-11,14,1,0,0,rectangle,-11,14,1,0,0,-11,14,1,0,0,1,134,294,92,1,,,,,,,,
,,,,,,,,,,,,,FF,,,,,,,,0.8004,,,,,,,,,,,,,,,,,,,,,,60fdca594b75824bdfe2f7fe,61036ef6272321e9cb645269,2021-07-30_05h18.45.024,Simcolourproject_2stim_asymm_v5,2020.2.10,Win32,60,61025ae37ef11b136ea224fe,,,,,,,,,1237,88,42,1,0,0,response1disk,,6,24,5,1,0,0,rectangle,24,5,1,0,0,24,5,1,0,0,1,135,295,143,1,,,,,,,,
,,,,,,,,,,,,,FF,,,,,,,,0.7147,,,,,,,,,,,,,,,,,,,,,,60fdca594b75824bdfe2f7fe,61036ef6272321e9cb645269,2021-07-30_05h18.45.024,Simcolourproject_2stim_asymm_v5,2020.2.10,Win32,60,61025ae37ef11b136ea224fe,,,,,,,,,688,63,35,1,0,0,response1disk,,6,12,-1,1,0,0,rectangle,12,-1,1,0,0,12,-1,1,0,0,1,136,296,135,1,,,,,,,,
,,,,,,,,,,,,,FF,,,,,,,,0.6167,,,,,,,,,,,,,,,,,,,,,,60fdca594b75824bdfe2f7fe,61036ef6272321e9cb645269,2021-07-30_05h18.45.024,Simcolourproject_2stim_asymm_v5,2020.2.10,Win32,60,61025ae37ef11b136ea224fe,,,,,,,,,2616,56,31,1,0,0,response1disk,,6,13,2,1,0,0,rectangle,13,2,1,0,0,13,2,1,0,0,1,137,297,19,1,,,,,,,,
,,,,,,,,,,,,,FF,,,,,,,,0.6179,,,,,,,,,,,,,,,,,,,,,,60fdca594b75824bdfe2f7fe,61036ef6272321e9cb645269,2021-07-30_05h18.45.024,Simcolourproject_2stim_asymm_v5,2020.2.10,Win32,60,61025ae37ef11b136ea224fe,,,,,,,,,2216,57,31,1,0,0,response1disk,,6,10,-5,1,0,0,rectangle,10,-5,1,0,0,10,-5,1,0,0,1,138,298,80,1,,,,,,,,
,,,,,,,,,,,,,FF,,,,,,,,0.617,,,,,,,,,,,,,,,,,,,,,,60fdca594b75824bdfe2f7fe,61036ef6272321e9cb645269,2021-07-30_05h18.45.024,Simcolourproject_2stim_asymm_v5,2020.2.10,Win32,60,61025ae37ef11b136ea224fe,,,,,,,,,3310,54,32,1,0,0,response1disk,,6,0,-10,1,0,0,rectangle,0,-10,1,0,0,0,-10,1,0,0,1,139,299,115,1,,,,,,,,
,,,,,,,,,,,,,FF,,,,,,,,0.5374,,,,,,,,,,,,,,,,,,,,,,60fdca594b75824bdfe2f7fe,61036ef6272321e9cb645269,2021-07-30_05h18.45.024,Simcolourproject_2stim_asymm_v5,2020.2.10,Win32,60,61025ae37ef11b136ea224fe,,,,,,,,,1653,66,48,1,0,0,response1disk,,6,3,-2,1,0,0,rectangle,3,-2,1,0,0,3,-2,1,0,0,1,140,300,85,1,,,,,,,,
,,,,,,,,,,,,,FF,,,,,,,,0.6352,,,,,,,,,,,,,,,,,,,,,,60fdca594b75824bdfe2f7fe,61036ef6272321e9cb645269,2021-07-30_05h18.45.024,Simcolourproject_2stim_asymm_v5,2020.2.10,Win32,60,61025ae37ef11b136ea224fe,,,,,,,,,3380,65,29,1,0,0,response1disk,,6,12,0,1,0,0,rectangle,12,0,1,0,0,12,0,1,0,0,1,141,301,141,1,,,,,,,,
,,,,,,,,,,,,,FF,,,,,,,,1.2184,,,,,,,,,,,,,,,,,,,,,,60fdca594b75824bdfe2f7fe,61036ef6272321e9cb645269,2021-07-30_05h18.45.024,Simcolourproject_2stim_asymm_v5,2020.2.10,Win32,60,61025ae37ef11b136ea224fe,,,,,,,,,153,40,76,1,0,0,response1disk,,7,15,6,1,0,0,rectangle,15,6,1,0,0,15,6,1,0,0,1,142,302,108,1,,,,,,,,
,,,,,,,,,,,,,FF,,,,,,,,0.8352,,,,,,,,,,,,,,,,,,,,,,60fdca594b75824bdfe2f7fe,61036ef6272321e9cb645269,2021-07-30_05h18.45.024,Simcolourproject_2stim_asymm_v5,2020.2.10,Win32,60,61025ae37ef11b136ea224fe,,,,,,,,,2941,-47,86,1,0,0,response7disk,,0,1,0,1,0,0,rectangle,1,0,1,0,0,1,0,1,0,0,1,143,303,102,1,,,,,,,,
