key_resp.keys,key_resp.rt,key_resp_14.keys,key_resp_14.rt,key_resp_15.keys,key_resp_15.rt,key_resp_17.keys,key_resp_17.rt,key_resp_9.keys,key_resp_9.rt,key_resp_10.keys,key_resp_10.rt,practice_comparison,Ecc,mouse_5.x,mouse_5.y,mouse_5.leftButton,mouse_5.midButton,mouse_5.rightButton,mouse_5.clicked_name,pracsimilarity,response_time,mouse_10.x,mouse_10.y,mouse_10.leftButton,mouse_10.midButton,mouse_10.rightButton,mouse_10.clicked_name,mouse_7.x,mouse_7.y,mouse_7.leftButton,mouse_7.midButton,mouse_7.rightButton,mouse_6.x,mouse_6.y,mouse_6.leftButton,mouse_6.midButton,mouse_6.rightButton,duringprac.thisRepN,duringprac.thisTrialN,duringprac.thisN,duringprac.thisIndex,duringprac.ran,participant,session,date,expName,psychopyVersion,OS,frameRate,study_id,mouse_7.clicked_name,catchpracsimilarity,catch_response_time,catchnumberprac,catchtrialorderprac,mouse_6.clicked_name,key_resp_22.keys,key_resp_22.rt,realcomparison,mouse.x,mouse.y,mouse.leftButton,mouse.midButton,mouse.rightButton,mouse.clicked_name,Colour2,similarity,mouse_2.x,mouse_2.y,mouse_2.leftButton,mouse_2.midButton,mouse_2.rightButton,mouse_2.clicked_name,mouse_3.x,mouse_3.y,mouse_3.leftButton,mouse_3.midButton,mouse_3.rightButton,mouse_11.x,mouse_11.y,mouse_11.leftButton,mouse_11.midButton,mouse_11.rightButton,trials_2.thisRepN,trials_2.thisTrialN,trials_2.thisN,trials_2.thisIndex,trials_2.ran,Colour1,mouse_3.clicked_name,catchornah,catchsimilarity,catchnumber,catchtrialorder,catchRT,mouse_11.clicked_name
space,0.2026,space,2.2064,space,20.8469,space,14.0802,space,0.9293,space,4.1508,140,PF,103.866394,43.09463501,1,0,0,response1disk_5,6,9.7717,-16.74188232,-13.89144897,1,0,0,rectangle_8,-16.74188232,-13.89144897,1,0,0,-16.74188232,-13.89144897,1,0,0,0,0,0,4,1,60fd8576272fbc9918d4677e,61036e9afeab2892fddca0c4,2021-07-29_22h15.08.439,Simcolourproject_2stim_asymm_v5,2020.2.10,MacIntel,60,61025ae37ef11b136ea224fe,,,,,,,,,,,,,,,,,,,,,,,,,,,,,,,,,,,,,,,,,,,,,,
,,,,,,,,,,,,55,PF,52.1817627,-111.5057373,1,0,0,response3disk_5,4,2.3166,-4.88067627,-6.413330078,1,0,0,rectangle_8,-89.67669678,-50.66827393,1,0,0,-0.053466797,4.483520508,1,0,0,0,1,1,1,1,60fd8576272fbc9918d4677e,61036e9afeab2892fddca0c4,2021-07-29_22h15.08.439,Simcolourproject_2stim_asymm_v5,2020.2.10,MacIntel,60,61025ae37ef11b136ea224fe,response5disk_7,2,3.8013,2,"[2,5]",rectangle_4,,,,,,,,,,,,,,,,,,,,,,,,,,,,,,,,,,,,,,,,
,,,,,,,,,,,,157,PF,-39.27746582,83.71856689,1,0,0,response7disk_5,0,2.3674,7.434692383,-1.395355225,1,0,0,rectangle_8,7.434692383,-1.395355225,1,0,0,7.434692383,-1.395355225,1,0,0,0,2,2,6,1,60fd8576272fbc9918d4677e,61036e9afeab2892fddca0c4,2021-07-29_22h15.08.439,Simcolourproject_2stim_asymm_v5,2020.2.10,MacIntel,60,61025ae37ef11b136ea224fe,,,,,,,,,,,,,,,,,,,,,,,,,,,,,,,,,,,,,,,,,,,,,,
,,,,,,,,,,,,84,FF,102.9746704,49.77957153,1,0,0,response1disk_5,6,1.4998,-1.36138916,2.156158447,1,0,0,rectangle_8,-1.36138916,2.156158447,1,0,0,-1.36138916,2.156158447,1,0,0,0,3,3,3,1,60fd8576272fbc9918d4677e,61036e9afeab2892fddca0c4,2021-07-29_22h15.08.439,Simcolourproject_2stim_asymm_v5,2020.2.10,MacIntel,60,61025ae37ef11b136ea224fe,,,,,,,,,,,,,,,,,,,,,,,,,,,,,,,,,,,,,,,,,,,,,,
,,,,,,,,,,,,20,FF,-88.13964844,-36.40496826,1,0,0,response5disk_5,2,1.3169,-8.43359375,5.077270508,1,0,0,rectangle_8,-76.47753906,-46.44918823,1,0,0,-11.57727051,-3.126525879,1,0,0,0,4,4,0,1,60fd8576272fbc9918d4677e,61036e9afeab2892fddca0c4,2021-07-29_22h15.08.439,Simcolourproject_2stim_asymm_v5,2020.2.10,MacIntel,60,61025ae37ef11b136ea224fe,response5disk_7,2,2.2688,2,"[2,5]",rectangle_4,,,,,,,,,,,,,,,,,,,,,,,,,,,,,,,,,,,,,,,,
,,,,,,,,,,,,144,FF,-46.92883301,-89.06933594,1,0,0,response5disk_5,3,1.3822,-11.67468262,5.307006836,1,0,0,rectangle_8,-11.67468262,5.307006836,1,0,0,-11.67468262,5.307006836,1,0,0,0,5,5,5,1,60fd8576272fbc9918d4677e,61036e9afeab2892fddca0c4,2021-07-29_22h15.08.439,Simcolourproject_2stim_asymm_v5,2020.2.10,MacIntel,60,61025ae37ef11b136ea224fe,,,,,,,,,,,,,,,,,,,,,,,,,,,,,,,,,,,,,,,,,,,,,,
,,,,,,,,,,,,132,PF,46.81225586,64.05471802,1,0,0,response1disk_5,7,0.9843,-19.83435059,-0.843780518,1,0,0,rectangle_8,-19.83435059,-0.843780518,1,0,0,-19.83435059,-0.843780518,1,0,0,0,6,6,2,1,60fd8576272fbc9918d4677e,61036e9afeab2892fddca0c4,2021-07-29_22h15.08.439,Simcolourproject_2stim_asymm_v5,2020.2.10,MacIntel,60,61025ae37ef11b136ea224fe,,,,,,,,,,,,,,,,,,,,,,,,,,,,,,,,,,,,,,,,,,,,,,
,,,,,,,,,,,,,FF,,,,,,,,1.1164,,,,,,,,,,,,,,,,,,,,,,60fd8576272fbc9918d4677e,61036e9afeab2892fddca0c4,2021-07-29_22h15.08.439,Simcolourproject_2stim_asymm_v5,2020.2.10,MacIntel,60,61025ae37ef11b136ea224fe,,,,,,,space,0.8313,1458,-68.74353027,34.31826782,1,0,0,response7disk,,1,-19.00073242,-6.330993652,1,0,0,rectangle,-19.00073242,-6.330993652,1,0,0,-19.00073242,-6.330993652,1,0,0,0,0,0,130,1,,,,,,,,
,,,,,,,,,,,,,FF,,,,,,,,1.0498,,,,,,,,,,,,,,,,,,,,,,60fd8576272fbc9918d4677e,61036e9afeab2892fddca0c4,2021-07-29_22h15.08.439,Simcolourproject_2stim_asymm_v5,2020.2.10,MacIntel,60,61025ae37ef11b136ea224fe,,,,,,,,,3905,85.06939697,46.56713867,1,0,0,response1disk,,6,-1.943054199,-2.031311035,1,0,0,rectangle,-1.943054199,-2.031311035,1,0,0,-1.943054199,-2.031311035,1,0,0,0,1,1,83,1,,,,,,,,
,,,,,,,,,,,,,FF,,,,,,,,0.9659,,,,,,,,,,,,,,,,,,,,,,60fd8576272fbc9918d4677e,61036e9afeab2892fddca0c4,2021-07-29_22h15.08.439,Simcolourproject_2stim_asymm_v5,2020.2.10,MacIntel,60,61025ae37ef11b136ea224fe,,,,,,,,,3684,70.06176758,-51.69494629,1,0,0,response3disk,,5,-4.958312988,-9.42590332,1,0,0,rectangle,-4.958312988,-9.42590332,1,0,0,-4.958312988,-9.42590332,1,0,0,0,2,2,77,1,,,,,,,,
,,,,,,,,,,,,,FF,,,,,,,,0.9999,,,,,,,,,,,,,,,,,,,,,,60fd8576272fbc9918d4677e,61036e9afeab2892fddca0c4,2021-07-29_22h15.08.439,Simcolourproject_2stim_asymm_v5,2020.2.10,MacIntel,60,61025ae37ef11b136ea224fe,,,,,,,,,2912,72.05395508,-37.82391357,1,0,0,response3disk,,5,18.39929199,-4.162536621,1,0,0,rectangle,18.39929199,-4.162536621,1,0,0,18.39929199,-4.162536621,1,0,0,0,3,3,32,1,,,,,,,,
,,,,,,,,,,,,,FF,,,,,,,,0.9661,,,,,,,,,,,,,,,,,,,,,,60fd8576272fbc9918d4677e,61036e9afeab2892fddca0c4,2021-07-29_22h15.08.439,Simcolourproject_2stim_asymm_v5,2020.2.10,MacIntel,60,61025ae37ef11b136ea224fe,,,,,,,,,1292,-29.98059082,-101.5441895,1,0,0,response5disk,,3,1.624267578,-8.696960449,1,0,0,rectangle,1.624267578,-8.696960449,1,0,0,1.624267578,-8.696960449,1,0,0,0,4,4,51,1,,,,,,,,
,,,,,,,,,,,,,FF,,,,,,,,0.7672,,,,,,,,,,,,,,,,,,,,,,60fd8576272fbc9918d4677e,61036e9afeab2892fddca0c4,2021-07-29_22h15.08.439,Simcolourproject_2stim_asymm_v5,2020.2.10,MacIntel,60,61025ae37ef11b136ea224fe,,,,,,,,,4263,71.78833008,-27.81933594,1,0,0,response3disk,,5,15.0838623,-1.073577881,1,0,0,rectangle,15.0838623,-1.073577881,1,0,0,15.0838623,-1.073577881,1,0,0,0,5,5,23,1,,,,,,,,
,,,,,,,,,,,,,FF,,,,,,,,0.8994,,,,,,,,,,,,,,,,,,,,,,60fd8576272fbc9918d4677e,61036e9afeab2892fddca0c4,2021-07-29_22h15.08.439,Simcolourproject_2stim_asymm_v5,2020.2.10,MacIntel,60,61025ae37ef11b136ea224fe,,,,,,,,,638,34.92883301,-88.54901123,1,0,0,response3disk,,4,0.427185059,-1.258850098,1,0,0,rectangle,0.427185059,-1.258850098,1,0,0,0.427185059,-1.258850098,1,0,0,0,6,6,26,1,,,,,,,,
,,,,,,,,,,,,,FF,,,,,,,,0.8499,,,,,,,,,,,,,,,,,,,,,,60fd8576272fbc9918d4677e,61036e9afeab2892fddca0c4,2021-07-29_22h15.08.439,Simcolourproject_2stim_asymm_v5,2020.2.10,MacIntel,60,61025ae37ef11b136ea224fe,,,,,,,,,3512,-100.175293,-40.49597168,1,0,0,response5disk,,2,-8.96862793,3.202270508,1,0,0,rectangle,-84.61328125,-48.32727051,1,0,0,-0.280944824,-5.184020996,1,0,0,0,7,7,151,1,,response5disk_3,TRUE,2,4,"[148,252,122,8,255,173,99,157,199,112,11,33,146,178,136,298,219,235,171,301]",1.5833,rectangle
,,,,,,,,,,,,,FF,,,,,,,,1.1166,,,,,,,,,,,,,,,,,,,,,,60fd8576272fbc9918d4677e,61036e9afeab2892fddca0c4,2021-07-29_22h15.08.439,Simcolourproject_2stim_asymm_v5,2020.2.10,MacIntel,60,61025ae37ef11b136ea224fe,,,,,,,,,1518,55.90393066,29.6942749,1,0,0,response1disk,,6,-1.439453125,3.083953857,1,0,0,rectangle,-1.439453125,3.083953857,1,0,0,-1.439453125,3.083953857,1,0,0,0,8,8,140,1,,,,,,,,
,,,,,,,,,,,,,FF,,,,,,,,1.3666,,,,,,,,,,,,,,,,,,,,,,60fd8576272fbc9918d4677e,61036e9afeab2892fddca0c4,2021-07-29_22h15.08.439,Simcolourproject_2stim_asymm_v5,2020.2.10,MacIntel,60,61025ae37ef11b136ea224fe,,,,,,,,,1191,73.85437012,-54.4230957,1,0,0,response3disk,,5,6.996826172,-2.192932129,1,0,0,rectangle,6.996826172,-2.192932129,1,0,0,6.996826172,-2.192932129,1,0,0,0,9,9,137,1,,,,,,,,
,,,,,,,,,,,,,FF,,,,,,,,1.1005,,,,,,,,,,,,,,,,,,,,,,60fd8576272fbc9918d4677e,61036e9afeab2892fddca0c4,2021-07-29_22h15.08.439,Simcolourproject_2stim_asymm_v5,2020.2.10,MacIntel,60,61025ae37ef11b136ea224fe,,,,,,,,,958,32.94213867,-90.21789551,1,0,0,response3disk,,4,-3.446228027,1.397827148,1,0,0,rectangle,-66.87353516,-41.39068604,1,0,0,-18.41308594,-12.34237671,1,0,0,0,10,10,70,1,,response5disk_3,TRUE,2,2,"[148,252,122,8,255,173,99,157,199,112,11,33,146,178,136,298,219,235,171,301]",2.3007,rectangle
,,,,,,,,,,,,,FF,,,,,,,,1.0341,,,,,,,,,,,,,,,,,,,,,,60fd8576272fbc9918d4677e,61036e9afeab2892fddca0c4,2021-07-29_22h15.08.439,Simcolourproject_2stim_asymm_v5,2020.2.10,MacIntel,60,61025ae37ef11b136ea224fe,,,,,,,,,1922,73.3572998,28.637146,1,0,0,response1disk,,6,2.889831543,0.023376465,1,0,0,rectangle,2.889831543,0.023376465,1,0,0,2.889831543,0.023376465,1,0,0,0,11,11,92,1,,,,,,,,
,,,,,,,,,,,,,FF,,,,,,,,0.9837,,,,,,,,,,,,,,,,,,,,,,60fd8576272fbc9918d4677e,61036e9afeab2892fddca0c4,2021-07-29_22h15.08.439,Simcolourproject_2stim_asymm_v5,2020.2.10,MacIntel,60,61025ae37ef11b136ea224fe,,,,,,,,,2606,-72.14379883,-43.29318237,1,0,0,response5disk,,2,-10.94921875,-6.216888428,1,0,0,rectangle,-10.94921875,-6.216888428,1,0,0,-10.94921875,-6.216888428,1,0,0,0,12,12,71,1,,,,,,,,
,,,,,,,,,,,,,FF,,,,,,,,1.0503,,,,,,,,,,,,,,,,,,,,,,60fd8576272fbc9918d4677e,61036e9afeab2892fddca0c4,2021-07-29_22h15.08.439,Simcolourproject_2stim_asymm_v5,2020.2.10,MacIntel,60,61025ae37ef11b136ea224fe,,,,,,,,,4055,-41.53851318,-92.94921875,1,0,0,response5disk,,3,8.702026367,-2.365844727,1,0,0,rectangle,8.702026367,-2.365844727,1,0,0,8.702026367,-2.365844727,1,0,0,0,13,13,98,1,,,,,,,,
,,,,,,,,,,,,,FF,,,,,,,,0.8663,,,,,,,,,,,,,,,,,,,,,,60fd8576272fbc9918d4677e,61036e9afeab2892fddca0c4,2021-07-29_22h15.08.439,Simcolourproject_2stim_asymm_v5,2020.2.10,MacIntel,60,61025ae37ef11b136ea224fe,,,,,,,,,3728,101.7288818,-33.81140137,1,0,0,response3disk,,5,-13.57659912,-2.690093994,1,0,0,rectangle,-13.57659912,-2.690093994,1,0,0,-13.57659912,-2.690093994,1,0,0,0,14,14,2,1,,,,,,,,
,,,,,,,,,,,,,FF,,,,,,,,0.9663,,,,,,,,,,,,,,,,,,,,,,60fd8576272fbc9918d4677e,61036e9afeab2892fddca0c4,2021-07-29_22h15.08.439,Simcolourproject_2stim_asymm_v5,2020.2.10,MacIntel,60,61025ae37ef11b136ea224fe,,,,,,,,,3152,39.98468018,-97.61907959,1,0,0,response3disk,,4,-4.708374023,-3.019775391,1,0,0,rectangle,-4.708374023,-3.019775391,1,0,0,-4.708374023,-3.019775391,1,0,0,0,15,15,128,1,,,,,,,,
,,,,,,,,,,,,,FF,,,,,,,,0.667,,,,,,,,,,,,,,,,,,,,,,60fd8576272fbc9918d4677e,61036e9afeab2892fddca0c4,2021-07-29_22h15.08.439,Simcolourproject_2stim_asymm_v5,2020.2.10,MacIntel,60,61025ae37ef11b136ea224fe,,,,,,,,,2708,34.85217285,82.54608154,1,0,0,response1disk,,7,-2.221069336,-3.636901855,1,0,0,rectangle,-2.221069336,-3.636901855,1,0,0,-2.221069336,-3.636901855,1,0,0,0,16,16,22,1,,,,,,,,
,,,,,,,,,,,,,FF,,,,,,,,0.884,,,,,,,,,,,,,,,,,,,,,,60fd8576272fbc9918d4677e,61036e9afeab2892fddca0c4,2021-07-29_22h15.08.439,Simcolourproject_2stim_asymm_v5,2020.2.10,MacIntel,60,61025ae37ef11b136ea224fe,,,,,,,,,1595,35.66540527,60.8430481,1,0,0,response1disk,,7,5.72845459,-7.29309082,1,0,0,rectangle,5.72845459,-7.29309082,1,0,0,5.72845459,-7.29309082,1,0,0,0,17,17,78,1,,,,,,,,
,,,,,,,,,,,,,FF,,,,,,,,0.9844,,,,,,,,,,,,,,,,,,,,,,60fd8576272fbc9918d4677e,61036e9afeab2892fddca0c4,2021-07-29_22h15.08.439,Simcolourproject_2stim_asymm_v5,2020.2.10,MacIntel,60,61025ae37ef11b136ea224fe,,,,,,,,,3631,71.71911621,20.58355713,1,0,0,response1disk,,6,2.593383789,10.17510986,1,0,0,rectangle,2.593383789,10.17510986,1,0,0,2.593383789,10.17510986,1,0,0,0,18,18,87,1,,,,,,,,
,,,,,,,,,,,,,FF,,,,,,,,0.8663,,,,,,,,,,,,,,,,,,,,,,60fd8576272fbc9918d4677e,61036e9afeab2892fddca0c4,2021-07-29_22h15.08.439,Simcolourproject_2stim_asymm_v5,2020.2.10,MacIntel,60,61025ae37ef11b136ea224fe,,,,,,,,,187,-78.77563477,-40.46820068,1,0,0,response5disk,,2,-4.07421875,3.054138184,1,0,0,rectangle,-4.07421875,3.054138184,1,0,0,-4.07421875,3.054138184,1,0,0,0,19,19,125,1,,,,,,,,
,,,,,,,,,,,,,FF,,,,,,,,0.7833,,,,,,,,,,,,,,,,,,,,,,60fd8576272fbc9918d4677e,61036e9afeab2892fddca0c4,2021-07-29_22h15.08.439,Simcolourproject_2stim_asymm_v5,2020.2.10,MacIntel,60,61025ae37ef11b136ea224fe,,,,,,,,,3664,-66.04870605,-27.54589844,1,0,0,response5disk,,2,4.746459961,-5.962280273,1,0,0,rectangle,4.746459961,-5.962280273,1,0,0,4.746459961,-5.962280273,1,0,0,0,20,20,124,1,,,,,,,,
,,,,,,,,,,,,,FF,,,,,,,,0.7513,,,,,,,,,,,,,,,,,,,,,,60fd8576272fbc9918d4677e,61036e9afeab2892fddca0c4,2021-07-29_22h15.08.439,Simcolourproject_2stim_asymm_v5,2020.2.10,MacIntel,60,61025ae37ef11b136ea224fe,,,,,,,,,2752,67.36175537,-40.13644409,1,0,0,response3disk,,5,16.54876709,2.531433105,1,0,0,rectangle,16.54876709,2.531433105,1,0,0,16.54876709,2.531433105,1,0,0,0,21,21,25,1,,,,,,,,
,,,,,,,,,,,,,FF,,,,,,,,1.0834,,,,,,,,,,,,,,,,,,,,,,60fd8576272fbc9918d4677e,61036e9afeab2892fddca0c4,2021-07-29_22h15.08.439,Simcolourproject_2stim_asymm_v5,2020.2.10,MacIntel,60,61025ae37ef11b136ea224fe,,,,,,,,,2242,75.93273926,-38.42306519,1,0,0,response3disk,,5,21.40472412,-6.423736572,1,0,0,rectangle,21.40472412,-6.423736572,1,0,0,21.40472412,-6.423736572,1,0,0,0,22,22,68,1,,,,,,,,
,,,,,,,,,,,,,FF,,,,,,,,0.7838,,,,,,,,,,,,,,,,,,,,,,60fd8576272fbc9918d4677e,61036e9afeab2892fddca0c4,2021-07-29_22h15.08.439,Simcolourproject_2stim_asymm_v5,2020.2.10,MacIntel,60,61025ae37ef11b136ea224fe,,,,,,,,,2760,70.82666016,43.99890137,1,0,0,response1disk,,6,-13.53656006,10.36346436,1,0,0,rectangle,-13.53656006,10.36346436,1,0,0,-13.53656006,10.36346436,1,0,0,0,23,23,132,1,,,,,,,,
,,,,,,,,,,,,,FF,,,,,,,,1.4339,,,,,,,,,,,,,,,,,,,,,,60fd8576272fbc9918d4677e,61036e9afeab2892fddca0c4,2021-07-29_22h15.08.439,Simcolourproject_2stim_asymm_v5,2020.2.10,MacIntel,60,61025ae37ef11b136ea224fe,,,,,,,,,1948,78.34350586,36.83734131,1,0,0,response1disk,,6,-7.969116211,2.538757324,1,0,0,rectangle,-7.969116211,2.538757324,1,0,0,-7.969116211,2.538757324,1,0,0,0,24,24,111,1,,,,,,,,
,,,,,,,,,,,,,FF,,,,,,,,1.7176,,,,,,,,,,,,,,,,,,,,,,60fd8576272fbc9918d4677e,61036e9afeab2892fddca0c4,2021-07-29_22h15.08.439,Simcolourproject_2stim_asymm_v5,2020.2.10,MacIntel,60,61025ae37ef11b136ea224fe,,,,,,,,,2243,83.44366455,-39.52093506,1,0,0,response3disk,,5,10.78479004,-1.394714355,1,0,0,rectangle,10.78479004,-1.394714355,1,0,0,10.78479004,-1.394714355,1,0,0,0,25,25,158,1,,,,,,,,
,,,,,,,,,,,,,FF,,,,,,,,0.834,,,,,,,,,,,,,,,,,,,,,,60fd8576272fbc9918d4677e,61036e9afeab2892fddca0c4,2021-07-29_22h15.08.439,Simcolourproject_2stim_asymm_v5,2020.2.10,MacIntel,60,61025ae37ef11b136ea224fe,,,,,,,,,4049,-38.82507324,-77.04693604,1,0,0,response5disk,,3,-2.748779297,5.219116211,1,0,0,rectangle,-2.748779297,5.219116211,1,0,0,-2.748779297,5.219116211,1,0,0,0,26,26,18,1,,,,,,,,
,,,,,,,,,,,,,FF,,,,,,,,0.8328,,,,,,,,,,,,,,,,,,,,,,60fd8576272fbc9918d4677e,61036e9afeab2892fddca0c4,2021-07-29_22h15.08.439,Simcolourproject_2stim_asymm_v5,2020.2.10,MacIntel,60,61025ae37ef11b136ea224fe,,,,,,,,,3151,-44.91790771,-85.6552124,1,0,0,response5disk,,3,-7.83972168,2.879577637,1,0,0,rectangle,-7.83972168,2.879577637,1,0,0,-7.83972168,2.879577637,1,0,0,0,27,27,15,1,,,,,,,,
,,,,,,,,,,,,,FF,,,,,,,,1.0848,,,,,,,,,,,,,,,,,,,,,,60fd8576272fbc9918d4677e,61036e9afeab2892fddca0c4,2021-07-29_22h15.08.439,Simcolourproject_2stim_asymm_v5,2020.2.10,MacIntel,60,61025ae37ef11b136ea224fe,,,,,,,,,901,55.84161377,-94.77685547,1,0,0,response3disk,,4,7.229187012,4.97052002,1,0,0,rectangle,7.229187012,4.97052002,1,0,0,7.229187012,4.97052002,1,0,0,0,28,28,45,1,,,,,,,,
,,,,,,,,,,,,,FF,,,,,,,,0.9676,,,,,,,,,,,,,,,,,,,,,,60fd8576272fbc9918d4677e,61036e9afeab2892fddca0c4,2021-07-29_22h15.08.439,Simcolourproject_2stim_asymm_v5,2020.2.10,MacIntel,60,61025ae37ef11b136ea224fe,,,,,,,,,1254,45.57189941,87.5375061,1,0,0,response1disk,,7,15.50012207,0.514129639,1,0,0,rectangle,15.50012207,0.514129639,1,0,0,15.50012207,0.514129639,1,0,0,0,29,29,133,1,,,,,,,,
,,,,,,,,,,,,,FF,,,,,,,,1.1162,,,,,,,,,,,,,,,,,,,,,,60fd8576272fbc9918d4677e,61036e9afeab2892fddca0c4,2021-07-29_22h15.08.439,Simcolourproject_2stim_asymm_v5,2020.2.10,MacIntel,60,61025ae37ef11b136ea224fe,,,,,,,,,2366,26.37286377,-85.02789307,1,0,0,response3disk,,4,-23.34448242,-2.682617188,1,0,0,rectangle,-23.34448242,-2.682617188,1,0,0,-23.34448242,-2.682617188,1,0,0,0,30,30,73,1,,,,,,,,
,,,,,,,,,,,,,FF,,,,,,,,0.9826,,,,,,,,,,,,,,,,,,,,,,60fd8576272fbc9918d4677e,61036e9afeab2892fddca0c4,2021-07-29_22h15.08.439,Simcolourproject_2stim_asymm_v5,2020.2.10,MacIntel,60,61025ae37ef11b136ea224fe,,,,,,,,,4033,88.34936523,44.90859985,1,0,0,response1disk,,6,21.84301758,0.000549316,1,0,0,rectangle,21.84301758,0.000549316,1,0,0,21.84301758,0.000549316,1,0,0,0,31,31,24,1,,,,,,,,
,,,,,,,,,,,,,FF,,,,,,,,0.7333,,,,,,,,,,,,,,,,,,,,,,60fd8576272fbc9918d4677e,61036e9afeab2892fddca0c4,2021-07-29_22h15.08.439,Simcolourproject_2stim_asymm_v5,2020.2.10,MacIntel,60,61025ae37ef11b136ea224fe,,,,,,,,,4257,34.91772461,66.16217041,1,0,0,response1disk,,7,14.00964355,-15.97753906,1,0,0,rectangle,23.81469727,-91.47216797,1,0,0,2.752624512,-2.947143555,1,0,0,0,32,32,89,1,,response3disk_3,TRUE,4,5,"[148,252,122,8,255,173,99,157,199,112,11,33,146,178,136,298,219,235,171,301]",1.3998,rectangle
,,,,,,,,,,,,,FF,,,,,,,,1.1657,,,,,,,,,,,,,,,,,,,,,,60fd8576272fbc9918d4677e,61036e9afeab2892fddca0c4,2021-07-29_22h15.08.439,Simcolourproject_2stim_asymm_v5,2020.2.10,MacIntel,60,61025ae37ef11b136ea224fe,,,,,,,,,3146,-87.89361572,27.02398682,1,0,0,response7disk,,1,6.682189941,9.886779785,1,0,0,rectangle,6.682189941,9.886779785,1,0,0,6.682189941,9.886779785,1,0,0,0,33,33,13,1,,,,,,,,
,,,,,,,,,,,,,FF,,,,,,,,1.7665,,,,,,,,,,,,,,,,,,,,,,60fd8576272fbc9918d4677e,61036e9afeab2892fddca0c4,2021-07-29_22h15.08.439,Simcolourproject_2stim_asymm_v5,2020.2.10,MacIntel,60,61025ae37ef11b136ea224fe,,,,,,,,,926,50.44329834,99.13775635,1,0,0,response1disk,,7,-11.40795898,-14.18984985,1,0,0,rectangle,-11.40795898,-14.18984985,1,0,0,-11.40795898,-14.18984985,1,0,0,0,34,34,104,1,,,,,,,,
,,,,,,,,,,,,,FF,,,,,,,,0.683,,,,,,,,,,,,,,,,,,,,,,60fd8576272fbc9918d4677e,61036e9afeab2892fddca0c4,2021-07-29_22h15.08.439,Simcolourproject_2stim_asymm_v5,2020.2.10,MacIntel,60,61025ae37ef11b136ea224fe,,,,,,,,,2138,51.73974609,96.29931641,1,0,0,response1disk,,7,-9.362670898,-15.83047485,1,0,0,rectangle,-9.362670898,-15.83047485,1,0,0,-9.362670898,-15.83047485,1,0,0,0,35,35,63,1,,,,,,,,
,,,,,,,,,,,,,FF,,,,,,,,0.6838,,,,,,,,,,,,,,,,,,,,,,60fd8576272fbc9918d4677e,61036e9afeab2892fddca0c4,2021-07-29_22h15.08.439,Simcolourproject_2stim_asymm_v5,2020.2.10,MacIntel,60,61025ae37ef11b136ea224fe,,,,,,,,,666,44.47546387,64.53063965,1,0,0,response1disk,,7,-9.887573242,8.574005127,1,0,0,rectangle,-9.887573242,8.574005127,1,0,0,-9.887573242,8.574005127,1,0,0,0,36,36,56,1,,,,,,,,
,,,,,,,,,,,,,FF,,,,,,,,0.5101,,,,,,,,,,,,,,,,,,,,,,60fd8576272fbc9918d4677e,61036e9afeab2892fddca0c4,2021-07-29_22h15.08.439,Simcolourproject_2stim_asymm_v5,2020.2.10,MacIntel,60,61025ae37ef11b136ea224fe,,,,,,,,,85,43.14111328,80.0670166,1,0,0,response1disk,,7,5.03125,0.276580811,1,0,0,rectangle,5.03125,0.276580811,1,0,0,5.03125,0.276580811,1,0,0,0,37,37,136,1,,,,,,,,
,,,,,,,,,,,,,FF,,,,,,,,0.4679,,,,,,,,,,,,,,,,,,,,,,60fd8576272fbc9918d4677e,61036e9afeab2892fddca0c4,2021-07-29_22h15.08.439,Simcolourproject_2stim_asymm_v5,2020.2.10,MacIntel,60,61025ae37ef11b136ea224fe,,,,,,,,,3835,43.30981445,66.86437988,1,0,0,response1disk,,7,4.297973633,-6.932250977,1,0,0,rectangle,4.297973633,-6.932250977,1,0,0,4.297973633,-6.932250977,1,0,0,0,38,38,54,1,,,,,,,,
,,,,,,,,,,,,,FF,,,,,,,,0.5007,,,,,,,,,,,,,,,,,,,,,,60fd8576272fbc9918d4677e,61036e9afeab2892fddca0c4,2021-07-29_22h15.08.439,Simcolourproject_2stim_asymm_v5,2020.2.10,MacIntel,60,61025ae37ef11b136ea224fe,,,,,,,,,220,31.78607178,57.2729187,1,0,0,response1disk,,7,3.086425781,13.2796936,1,0,0,rectangle,3.086425781,13.2796936,1,0,0,3.086425781,13.2796936,1,0,0,0,39,39,69,1,,,,,,,,
,,,,,,,,,,,,,FF,,,,,,,,0.8336,,,,,,,,,,,,,,,,,,,,,,60fd8576272fbc9918d4677e,61036e9afeab2892fddca0c4,2021-07-29_22h15.08.439,Simcolourproject_2stim_asymm_v5,2020.2.10,MacIntel,60,61025ae37ef11b136ea224fe,,,,,,,,,3515,92.20135498,-36.75256348,1,0,0,response3disk,,5,6.084411621,12.2243042,1,0,0,rectangle,6.084411621,12.2243042,1,0,0,6.084411621,12.2243042,1,0,0,0,40,40,95,1,,,,,,,,
,,,,,,,,,,,,,FF,,,,,,,,0.4673,,,,,,,,,,,,,,,,,,,,,,60fd8576272fbc9918d4677e,61036e9afeab2892fddca0c4,2021-07-29_22h15.08.439,Simcolourproject_2stim_asymm_v5,2020.2.10,MacIntel,60,61025ae37ef11b136ea224fe,,,,,,,,,2762,69.69476318,-29.28088379,1,0,0,response3disk,,5,1.420043945,14.91918945,1,0,0,rectangle,1.420043945,14.91918945,1,0,0,1.420043945,14.91918945,1,0,0,0,41,41,48,1,,,,,,,,
,,,,,,,,,,,,,FF,,,,,,,,0.717,,,,,,,,,,,,,,,,,,,,,,60fd8576272fbc9918d4677e,61036e9afeab2892fddca0c4,2021-07-29_22h15.08.439,Simcolourproject_2stim_asymm_v5,2020.2.10,MacIntel,60,61025ae37ef11b136ea224fe,,,,,,,,,2260,79.87799072,-45.03863525,1,0,0,response3disk,,5,14.00231934,0.220428467,1,0,0,rectangle,14.00231934,0.220428467,1,0,0,14.00231934,0.220428467,1,0,0,0,42,42,34,1,,,,,,,,
,,,,,,,,,,,,,FF,,,,,,,,1.0674,,,,,,,,,,,,,,,,,,,,,,60fd8576272fbc9918d4677e,61036e9afeab2892fddca0c4,2021-07-29_22h15.08.439,Simcolourproject_2stim_asymm_v5,2020.2.10,MacIntel,60,61025ae37ef11b136ea224fe,,,,,,,,,4335,-58.0949707,58.95794678,1,0,0,response7disk,,0,-2.133544922,-11.20727539,1,0,0,rectangle,-2.133544922,-11.20727539,1,0,0,-2.133544922,-11.20727539,1,0,0,0,43,43,97,1,,,,,,,,
,,,,,,,,,,,,,FF,,,,,,,,0.883,,,,,,,,,,,,,,,,,,,,,,60fd8576272fbc9918d4677e,61036e9afeab2892fddca0c4,2021-07-29_22h15.08.439,Simcolourproject_2stim_asymm_v5,2020.2.10,MacIntel,60,61025ae37ef11b136ea224fe,,,,,,,,,3015,54.81091309,75.26629639,1,0,0,response1disk,,7,2.622131348,4.897003174,1,0,0,rectangle,2.622131348,4.897003174,1,0,0,2.622131348,4.897003174,1,0,0,0,44,44,10,1,,,,,,,,
,,,,,,,,,,,,,FF,,,,,,,,0.7838,,,,,,,,,,,,,,,,,,,,,,60fd8576272fbc9918d4677e,61036e9afeab2892fddca0c4,2021-07-29_22h15.08.439,Simcolourproject_2stim_asymm_v5,2020.2.10,MacIntel,60,61025ae37ef11b136ea224fe,,,,,,,,,1479,79.34918213,-51.92166138,1,0,0,response3disk,,5,-11.66436768,11.44824219,1,0,0,rectangle,-11.66436768,11.44824219,1,0,0,-11.66436768,11.44824219,1,0,0,0,45,45,86,1,,,,,,,,
,,,,,,,,,,,,,FF,,,,,,,,0.8846,,,,,,,,,,,,,,,,,,,,,,60fd8576272fbc9918d4677e,61036e9afeab2892fddca0c4,2021-07-29_22h15.08.439,Simcolourproject_2stim_asymm_v5,2020.2.10,MacIntel,60,61025ae37ef11b136ea224fe,,,,,,,,,1062,39.81982422,-68.8972168,1,0,0,response3disk,,4,0.427734375,4.663879395,1,0,0,rectangle,0.427734375,4.663879395,1,0,0,0.427734375,4.663879395,1,0,0,0,46,46,112,1,,,,,,,,
,,,,,,,,,,,,,FF,,,,,,,,1.2671,,,,,,,,,,,,,,,,,,,,,,60fd8576272fbc9918d4677e,61036e9afeab2892fddca0c4,2021-07-29_22h15.08.439,Simcolourproject_2stim_asymm_v5,2020.2.10,MacIntel,60,61025ae37ef11b136ea224fe,,,,,,,,,3675,-58.8996582,-74.44274902,1,0,0,response5disk,,3,-15.29724121,4.1902771,1,0,0,rectangle,-15.29724121,4.1902771,1,0,0,-15.29724121,4.1902771,1,0,0,0,47,47,30,1,,,,,,,,
,,,,,,,,,,,,,FF,,,,,,,,2.1835,,,,,,,,,,,,,,,,,,,,,,60fd8576272fbc9918d4677e,61036e9afeab2892fddca0c4,2021-07-29_22h15.08.439,Simcolourproject_2stim_asymm_v5,2020.2.10,MacIntel,60,61025ae37ef11b136ea224fe,,,,,,,,,1613,-60.76586914,-28.86517334,1,0,0,response5disk,,2,-10.3013916,-5.965698242,1,0,0,rectangle,-10.3013916,-5.965698242,1,0,0,-10.3013916,-5.965698242,1,0,0,0,48,48,14,1,,,,,,,,
,,,,,,,,,,,,,FF,,,,,,,,0.6828,,,,,,,,,,,,,,,,,,,,,,60fd8576272fbc9918d4677e,61036e9afeab2892fddca0c4,2021-07-29_22h15.08.439,Simcolourproject_2stim_asymm_v5,2020.2.10,MacIntel,60,61025ae37ef11b136ea224fe,,,,,,,,,2357,-42.22387695,-25.97631836,1,0,0,response5disk,,2,5.091186523,0.23336792,1,0,0,rectangle,5.091186523,0.23336792,1,0,0,5.091186523,0.23336792,1,0,0,0,49,49,116,1,,,,,,,,
,,,,,,,,,,,,,FF,,,,,,,,0.9329,,,,,,,,,,,,,,,,,,,,,,60fd8576272fbc9918d4677e,61036e9afeab2892fddca0c4,2021-07-29_22h15.08.439,Simcolourproject_2stim_asymm_v5,2020.2.10,MacIntel,60,61025ae37ef11b136ea224fe,,,,,,,,,1565,71.71282959,-56.00753784,1,0,0,response3disk,,5,6.217529297,-14.23486328,1,0,0,rectangle,6.217529297,-14.23486328,1,0,0,6.217529297,-14.23486328,1,0,0,0,50,50,28,1,,,,,,,,
,,,,,,,,,,,,,FF,,,,,,,,0.5665,,,,,,,,,,,,,,,,,,,,,,60fd8576272fbc9918d4677e,61036e9afeab2892fddca0c4,2021-07-29_22h15.08.439,Simcolourproject_2stim_asymm_v5,2020.2.10,MacIntel,60,61025ae37ef11b136ea224fe,,,,,,,,,2717,15.25976563,58.22161865,1,0,0,response1disk,,7,9.59967041,4.075134277,1,0,0,rectangle,9.59967041,4.075134277,1,0,0,9.59967041,4.075134277,1,0,0,0,51,51,146,1,,,,,,,,
,,,,,,,,,,,,,FF,,,,,,,,0.9171,,,,,,,,,,,,,,,,,,,,,,60fd8576272fbc9918d4677e,61036e9afeab2892fddca0c4,2021-07-29_22h15.08.439,Simcolourproject_2stim_asymm_v5,2020.2.10,MacIntel,60,61025ae37ef11b136ea224fe,,,,,,,,,2060,43.29016113,65.45239258,1,0,0,response1disk,,7,2.03918457,-8.12298584,1,0,0,rectangle,2.03918457,-8.12298584,1,0,0,2.03918457,-8.12298584,1,0,0,0,52,52,99,1,,,,,,,,
,,,,,,,,,,,,,FF,,,,,,,,0.9346,,,,,,,,,,,,,,,,,,,,,,60fd8576272fbc9918d4677e,61036e9afeab2892fddca0c4,2021-07-29_22h15.08.439,Simcolourproject_2stim_asymm_v5,2020.2.10,MacIntel,60,61025ae37ef11b136ea224fe,,,,,,,,,3627,-79.6060791,39.20407104,1,0,0,response7disk,,1,30.71313477,-10.30523682,1,0,0,rectangle,30.71313477,-10.30523682,1,0,0,30.71313477,-10.30523682,1,0,0,0,53,53,80,1,,,,,,,,
,,,,,,,,,,,,,FF,,,,,,,,0.6163,,,,,,,,,,,,,,,,,,,,,,60fd8576272fbc9918d4677e,61036e9afeab2892fddca0c4,2021-07-29_22h15.08.439,Simcolourproject_2stim_asymm_v5,2020.2.10,MacIntel,60,61025ae37ef11b136ea224fe,,,,,,,,,1394,81.5302124,33.34936523,1,0,0,response1disk,,6,3.780639648,2.206420898,1,0,0,rectangle,3.780639648,2.206420898,1,0,0,3.780639648,2.206420898,1,0,0,0,54,54,113,1,,,,,,,,
,,,,,,,,,,,,,FF,,,,,,,,0.6495,,,,,,,,,,,,,,,,,,,,,,60fd8576272fbc9918d4677e,61036e9afeab2892fddca0c4,2021-07-29_22h15.08.439,Simcolourproject_2stim_asymm_v5,2020.2.10,MacIntel,60,61025ae37ef11b136ea224fe,,,,,,,,,1909,74.39575195,-30.33569336,1,0,0,response3disk,,5,24.82983398,-1.59564209,1,0,0,rectangle,24.82983398,-1.59564209,1,0,0,24.82983398,-1.59564209,1,0,0,0,55,55,31,1,,,,,,,,
,,,,,,,,,,,,,FF,,,,,,,,1.7178,,,,,,,,,,,,,,,,,,,,,,60fd8576272fbc9918d4677e,61036e9afeab2892fddca0c4,2021-07-29_22h15.08.439,Simcolourproject_2stim_asymm_v5,2020.2.10,MacIntel,60,61025ae37ef11b136ea224fe,,,,,,,,,4348,73.84820557,23.1506958,1,0,0,response1disk,,6,-10.87939453,1.244873047,1,0,0,rectangle,-10.87939453,1.244873047,1,0,0,-10.87939453,1.244873047,1,0,0,0,56,56,66,1,,,,,,,,
,,,,,,,,,,,,,FF,,,,,,,,0.749,,,,,,,,,,,,,,,,,,,,,,60fd8576272fbc9918d4677e,61036e9afeab2892fddca0c4,2021-07-29_22h15.08.439,Simcolourproject_2stim_asymm_v5,2020.2.10,MacIntel,60,61025ae37ef11b136ea224fe,,,,,,,,,948,91.58026123,46.93878174,1,0,0,response1disk,,6,8.842956543,10.06774902,1,0,0,rectangle,8.842956543,10.06774902,1,0,0,8.842956543,10.06774902,1,0,0,0,57,57,11,1,,,,,,,,
,,,,,,,,,,,,,FF,,,,,,,,0.8002,,,,,,,,,,,,,,,,,,,,,,60fd8576272fbc9918d4677e,61036e9afeab2892fddca0c4,2021-07-29_22h15.08.439,Simcolourproject_2stim_asymm_v5,2020.2.10,MacIntel,60,61025ae37ef11b136ea224fe,,,,,,,,,4085,50.0581665,-67.02752686,1,0,0,response3disk,,4,15.27276611,-16.3671875,1,0,0,rectangle,15.27276611,-16.3671875,1,0,0,15.27276611,-16.3671875,1,0,0,0,58,58,145,1,,,,,,,,
,,,,,,,,,,,,,FF,,,,,,,,0.7016,,,,,,,,,,,,,,,,,,,,,,60fd8576272fbc9918d4677e,61036e9afeab2892fddca0c4,2021-07-29_22h15.08.439,Simcolourproject_2stim_asymm_v5,2020.2.10,MacIntel,60,61025ae37ef11b136ea224fe,,,,,,,,,4303,40.46697998,63.46850586,1,0,0,response1disk,,7,1.306518555,-3.505371094,1,0,0,rectangle,1.306518555,-3.505371094,1,0,0,1.306518555,-3.505371094,1,0,0,0,59,59,157,1,,,,,,,,
,,,,,,,,,,,,,FF,,,,,,,,0.8341,,,,,,,,,,,,,,,,,,,,,,60fd8576272fbc9918d4677e,61036e9afeab2892fddca0c4,2021-07-29_22h15.08.439,Simcolourproject_2stim_asymm_v5,2020.2.10,MacIntel,60,61025ae37ef11b136ea224fe,,,,,,,,,1431,80.14776611,26.01629639,1,0,0,response1disk,,6,9.546325684,4.908569336,1,0,0,rectangle,9.546325684,4.908569336,1,0,0,9.546325684,4.908569336,1,0,0,0,60,60,93,1,,,,,,,,
,,,,,,,,,,,,,FF,,,,,,,,0.966,,,,,,,,,,,,,,,,,,,,,,60fd8576272fbc9918d4677e,61036e9afeab2892fddca0c4,2021-07-29_22h15.08.439,Simcolourproject_2stim_asymm_v5,2020.2.10,MacIntel,60,61025ae37ef11b136ea224fe,,,,,,,,,4232,30.14562988,71.35546875,1,0,0,response1disk,,7,5.978515625,-4.888305664,1,0,0,rectangle,5.978515625,-4.888305664,1,0,0,5.978515625,-4.888305664,1,0,0,0,61,61,58,1,,,,,,,,
,,,,,,,,,,,,,FF,,,,,,,,0.8164,,,,,,,,,,,,,,,,,,,,,,60fd8576272fbc9918d4677e,61036e9afeab2892fddca0c4,2021-07-29_22h15.08.439,Simcolourproject_2stim_asymm_v5,2020.2.10,MacIntel,60,61025ae37ef11b136ea224fe,,,,,,,,,1158,66.07714844,-30.14398193,1,0,0,response3disk,,5,-9.446166992,14.82025146,1,0,0,rectangle,-9.446166992,14.82025146,1,0,0,-9.446166992,14.82025146,1,0,0,0,62,62,91,1,,,,,,,,
,,,,,,,,,,,,,FF,,,,,,,,0.6337,,,,,,,,,,,,,,,,,,,,,,60fd8576272fbc9918d4677e,61036e9afeab2892fddca0c4,2021-07-29_22h15.08.439,Simcolourproject_2stim_asymm_v5,2020.2.10,MacIntel,60,61025ae37ef11b136ea224fe,,,,,,,,,2641,52.84082031,-29.19604492,1,0,0,response3disk,,5,-0.400512695,-4.034576416,1,0,0,rectangle,-0.400512695,-4.034576416,1,0,0,-0.400512695,-4.034576416,1,0,0,0,63,63,114,1,,,,,,,,
,,,,,,,,,,,,,FF,,,,,,,,0.8165,,,,,,,,,,,,,,,,,,,,,,60fd8576272fbc9918d4677e,61036e9afeab2892fddca0c4,2021-07-29_22h15.08.439,Simcolourproject_2stim_asymm_v5,2020.2.10,MacIntel,60,61025ae37ef11b136ea224fe,,,,,,,,,2675,67.60119629,-34.35510254,1,0,0,response3disk,,5,11.362854,-0.750579834,1,0,0,rectangle,11.362854,-0.750579834,1,0,0,11.362854,-0.750579834,1,0,0,0,64,64,121,1,,,,,,,,
,,,,,,,,,,,,,FF,,,,,,,,0.4838,,,,,,,,,,,,,,,,,,,,,,60fd8576272fbc9918d4677e,61036e9afeab2892fddca0c4,2021-07-29_22h15.08.439,Simcolourproject_2stim_asymm_v5,2020.2.10,MacIntel,60,61025ae37ef11b136ea224fe,,,,,,,,,2486,67.59313965,-35.66534424,1,0,0,response3disk,,5,-1.743225098,-2.371337891,1,0,0,rectangle,-1.743225098,-2.371337891,1,0,0,-1.743225098,-2.371337891,1,0,0,0,65,65,79,1,,,,,,,,
,,,,,,,,,,,,,FF,,,,,,,,0.5329,,,,,,,,,,,,,,,,,,,,,,60fd8576272fbc9918d4677e,61036e9afeab2892fddca0c4,2021-07-29_22h15.08.439,Simcolourproject_2stim_asymm_v5,2020.2.10,MacIntel,60,61025ae37ef11b136ea224fe,,,,,,,,,1566,61.77514648,-29.30548096,1,0,0,response3disk,,5,-1.23034668,3.227111816,1,0,0,rectangle,-1.23034668,3.227111816,1,0,0,-1.23034668,3.227111816,1,0,0,0,66,66,38,1,,,,,,,,
,,,,,,,,,,,,,FF,,,,,,,,0.6344,,,,,,,,,,,,,,,,,,,,,,60fd8576272fbc9918d4677e,61036e9afeab2892fddca0c4,2021-07-29_22h15.08.439,Simcolourproject_2stim_asymm_v5,2020.2.10,MacIntel,60,61025ae37ef11b136ea224fe,,,,,,,,,788,66.68597412,-35.13696289,1,0,0,response3disk,,5,-3.838195801,6.745849609,1,0,0,rectangle,-3.838195801,6.745849609,1,0,0,-3.838195801,6.745849609,1,0,0,0,67,67,88,1,,,,,,,,
,,,,,,,,,,,,,FF,,,,,,,,0.6486,,,,,,,,,,,,,,,,,,,,,,60fd8576272fbc9918d4677e,61036e9afeab2892fddca0c4,2021-07-29_22h15.08.439,Simcolourproject_2stim_asymm_v5,2020.2.10,MacIntel,60,61025ae37ef11b136ea224fe,,,,,,,,,1205,67.003479,-37.48150635,1,0,0,response3disk,,5,19.07910156,2.597991943,1,0,0,rectangle,19.07910156,2.597991943,1,0,0,19.07910156,2.597991943,1,0,0,0,68,68,46,1,,,,,,,,
,,,,,,,,,,,,,FF,,,,,,,,4.0165,,,,,,,,,,,,,,,,,,,,,,60fd8576272fbc9918d4677e,61036e9afeab2892fddca0c4,2021-07-29_22h15.08.439,Simcolourproject_2stim_asymm_v5,2020.2.10,MacIntel,60,61025ae37ef11b136ea224fe,,,,,,,,,3987,72.56713867,57.06396484,1,0,0,response1disk,,6,6.14074707,0.744873047,1,0,0,rectangle,6.14074707,0.744873047,1,0,0,6.14074707,0.744873047,1,0,0,0,69,69,61,1,,,,,,,,
,,,,,,,,,,,,,FF,,,,,,,,0.7666,,,,,,,,,,,,,,,,,,,,,,60fd8576272fbc9918d4677e,61036e9afeab2892fddca0c4,2021-07-29_22h15.08.439,Simcolourproject_2stim_asymm_v5,2020.2.10,MacIntel,60,61025ae37ef11b136ea224fe,,,,,,,,,2244,40.93029785,-82.10412598,1,0,0,response3disk,,4,5.70892334,-16.56863403,1,0,0,rectangle,5.70892334,-16.56863403,1,0,0,5.70892334,-16.56863403,1,0,0,0,70,70,21,1,,,,,,,,
,,,,,,,,,,,,,FF,,,,,,,,0.8658,,,,,,,,,,,,,,,,,,,,,,60fd8576272fbc9918d4677e,61036e9afeab2892fddca0c4,2021-07-29_22h15.08.439,Simcolourproject_2stim_asymm_v5,2020.2.10,MacIntel,60,61025ae37ef11b136ea224fe,,,,,,,,,3989,35.43762207,53.23168945,1,0,0,response1disk,,7,-0.190979004,-1.969848633,1,0,0,rectangle,-0.190979004,-1.969848633,1,0,0,-0.190979004,-1.969848633,1,0,0,0,71,71,152,1,,,,,,,,
,,,,,,,,,,,,,FF,,,,,,,,0.5673,,,,,,,,,,,,,,,,,,,,,,60fd8576272fbc9918d4677e,61036e9afeab2892fddca0c4,2021-07-29_22h15.08.439,Simcolourproject_2stim_asymm_v5,2020.2.10,MacIntel,60,61025ae37ef11b136ea224fe,,,,,,,,,2965,37.60949707,53.46575928,1,0,0,response1disk,,7,12.09552002,10.68475342,1,0,0,rectangle,12.09552002,10.68475342,1,0,0,12.09552002,10.68475342,1,0,0,0,72,72,6,1,,,,,,,,
,,,,,,,,,,,,,FF,,,,,,,,0.8343,,,,,,,,,,,,,,,,,,,,,,60fd8576272fbc9918d4677e,61036e9afeab2892fddca0c4,2021-07-29_22h15.08.439,Simcolourproject_2stim_asymm_v5,2020.2.10,MacIntel,60,61025ae37ef11b136ea224fe,,,,,,,,,636,-20.92749023,-88.15161133,1,0,0,response5disk,,3,-5.461975098,-2.646972656,1,0,0,rectangle,-5.461975098,-2.646972656,1,0,0,-5.461975098,-2.646972656,1,0,0,0,73,73,43,1,,,,,,,,
,,,,,,,,,,,,,FF,,,,,,,,0.6172,,,,,,,,,,,,,,,,,,,,,,60fd8576272fbc9918d4677e,61036e9afeab2892fddca0c4,2021-07-29_22h15.08.439,Simcolourproject_2stim_asymm_v5,2020.2.10,MacIntel,60,61025ae37ef11b136ea224fe,,,,,,,,,2812,29.1796875,64.13232422,1,0,0,response1disk,,7,1.030822754,-12.07858276,1,0,0,rectangle,1.030822754,-12.07858276,1,0,0,1.030822754,-12.07858276,1,0,0,0,74,74,141,1,,,,,,,,
,,,,,,,,,,,,,FF,,,,,,,,2.7837,,,,,,,,,,,,,,,,,,,,,,60fd8576272fbc9918d4677e,61036e9afeab2892fddca0c4,2021-07-29_22h15.08.439,Simcolourproject_2stim_asymm_v5,2020.2.10,MacIntel,60,61025ae37ef11b136ea224fe,,,,,,,,,2979,47.89379883,74.55380249,1,0,0,response1disk,,7,16.0614624,-2.066680908,1,0,0,rectangle,16.0614624,-2.066680908,1,0,0,16.0614624,-2.066680908,1,0,0,0,75,75,39,1,,,,,,,,
,,,,,,,,,,,,,FF,,,,,,,,0.6532,,,,,,,,,,,,,,,,,,,,,,60fd8576272fbc9918d4677e,61036e9afeab2892fddca0c4,2021-07-29_22h15.08.439,Simcolourproject_2stim_asymm_v5,2020.2.10,MacIntel,60,61025ae37ef11b136ea224fe,,,,,,,,,2822,35.53649902,56.29156494,1,0,0,response1disk,,7,13.69256592,-3.264892578,1,0,0,rectangle,13.69256592,-3.264892578,1,0,0,13.69256592,-3.264892578,1,0,0,0,76,76,109,1,,,,,,,,
,,,,,,,,,,,,,FF,,,,,,,,0.9498,,,,,,,,,,,,,,,,,,,,,,60fd8576272fbc9918d4677e,61036e9afeab2892fddca0c4,2021-07-29_22h15.08.439,Simcolourproject_2stim_asymm_v5,2020.2.10,MacIntel,60,61025ae37ef11b136ea224fe,,,,,,,,,3863,99.06152344,-39.5914917,1,0,0,response3disk,,5,15.57006836,12.83660889,1,0,0,rectangle,15.57006836,12.83660889,1,0,0,15.57006836,12.83660889,1,0,0,0,77,77,74,1,,,,,,,,
,,,,,,,,,,,,,FF,,,,,,,,0.9661,,,,,,,,,,,,,,,,,,,,,,60fd8576272fbc9918d4677e,61036e9afeab2892fddca0c4,2021-07-29_22h15.08.439,Simcolourproject_2stim_asymm_v5,2020.2.10,MacIntel,60,61025ae37ef11b136ea224fe,,,,,,,,,3266,90.48181152,49.00195313,1,0,0,response1disk,,6,-1.965942383,-0.750061035,1,0,0,rectangle,-1.965942383,-0.750061035,1,0,0,-1.965942383,-0.750061035,1,0,0,0,78,78,84,1,,,,,,,,
,,,,,,,,,,,,,FF,,,,,,,,0.735,,,,,,,,,,,,,,,,,,,,,,60fd8576272fbc9918d4677e,61036e9afeab2892fddca0c4,2021-07-29_22h15.08.439,Simcolourproject_2stim_asymm_v5,2020.2.10,MacIntel,60,61025ae37ef11b136ea224fe,,,,,,,,,2303,-38.97436523,-77.60400391,1,0,0,response5disk,,3,-6.98059082,9.127685547,1,0,0,rectangle,-6.98059082,9.127685547,1,0,0,-6.98059082,9.127685547,1,0,0,0,79,79,50,1,,,,,,,,
,,,,,,,,,,,,,FF,,,,,,,,0.651,,,,,,,,,,,,,,,,,,,,,,60fd8576272fbc9918d4677e,61036e9afeab2892fddca0c4,2021-07-29_22h15.08.439,Simcolourproject_2stim_asymm_v5,2020.2.10,MacIntel,60,61025ae37ef11b136ea224fe,,,,,,,,,4229,39.3302002,74.1595459,1,0,0,response1disk,,7,1.411010742,4.506622314,1,0,0,rectangle,1.411010742,4.506622314,1,0,0,1.411010742,4.506622314,1,0,0,0,80,80,59,1,,,,,,,,
,,,,,,,,,,,,,FF,,,,,,,,0.4998,,,,,,,,,,,,,,,,,,,,,,60fd8576272fbc9918d4677e,61036e9afeab2892fddca0c4,2021-07-29_22h15.08.439,Simcolourproject_2stim_asymm_v5,2020.2.10,MacIntel,60,61025ae37ef11b136ea224fe,,,,,,,,,3446,38.14007568,70.15762329,1,0,0,response1disk,,7,2.011962891,-12.23757935,1,0,0,rectangle,2.011962891,-12.23757935,1,0,0,2.011962891,-12.23757935,1,0,0,0,81,81,41,1,,,,,,,,
,,,,,,,,,,,,,FF,,,,,,,,0.6154,,,,,,,,,,,,,,,,,,,,,,60fd8576272fbc9918d4677e,61036e9afeab2892fddca0c4,2021-07-29_22h15.08.439,Simcolourproject_2stim_asymm_v5,2020.2.10,MacIntel,60,61025ae37ef11b136ea224fe,,,,,,,,,3638,37.60174561,75.70889282,1,0,0,response1disk,,7,13.39257813,4.312652588,1,0,0,rectangle,13.39257813,4.312652588,1,0,0,13.39257813,4.312652588,1,0,0,0,82,82,3,1,,,,,,,,
,,,,,,,,,,,,,FF,,,,,,,,0.5338,,,,,,,,,,,,,,,,,,,,,,60fd8576272fbc9918d4677e,61036e9afeab2892fddca0c4,2021-07-29_22h15.08.439,Simcolourproject_2stim_asymm_v5,2020.2.10,MacIntel,60,61025ae37ef11b136ea224fe,,,,,,,,,1208,38.16149902,62.46725464,1,0,0,response1disk,,7,6.497802734,-16.00567627,1,0,0,rectangle,6.497802734,-16.00567627,1,0,0,6.497802734,-16.00567627,1,0,0,0,83,83,64,1,,,,,,,,
,,,,,,,,,,,,,FF,,,,,,,,0.4332,,,,,,,,,,,,,,,,,,,,,,60fd8576272fbc9918d4677e,61036e9afeab2892fddca0c4,2021-07-29_22h15.08.439,Simcolourproject_2stim_asymm_v5,2020.2.10,MacIntel,60,61025ae37ef11b136ea224fe,,,,,,,,,1627,33.79199219,67.12213135,1,0,0,response1disk,,7,11.90338135,-2.262481689,1,0,0,rectangle,11.90338135,-2.262481689,1,0,0,11.90338135,-2.262481689,1,0,0,0,84,84,105,1,,,,,,,,
,,,,,,,,,,,,,FF,,,,,,,,1.0664,,,,,,,,,,,,,,,,,,,,,,60fd8576272fbc9918d4677e,61036e9afeab2892fddca0c4,2021-07-29_22h15.08.439,Simcolourproject_2stim_asymm_v5,2020.2.10,MacIntel,60,61025ae37ef11b136ea224fe,,,,,,,,,292,72.41387939,28.36352539,1,0,0,response1disk,,6,7.171264648,0.249420166,1,0,0,rectangle,7.171264648,0.249420166,1,0,0,7.171264648,0.249420166,1,0,0,0,85,85,4,1,,,,,,,,
,,,,,,,,,,,,,FF,,,,,,,,0.8331,,,,,,,,,,,,,,,,,,,,,,60fd8576272fbc9918d4677e,61036e9afeab2892fddca0c4,2021-07-29_22h15.08.439,Simcolourproject_2stim_asymm_v5,2020.2.10,MacIntel,60,61025ae37ef11b136ea224fe,,,,,,,,,3907,-86.57617188,-55.74319458,1,0,0,response5disk,,2,6.922119141,3.35055542,1,0,0,rectangle,6.922119141,3.35055542,1,0,0,6.922119141,3.35055542,1,0,0,0,86,86,138,1,,,,,,,,
,,,,,,,,,,,,,FF,,,,,,,,0.6661,,,,,,,,,,,,,,,,,,,,,,60fd8576272fbc9918d4677e,61036e9afeab2892fddca0c4,2021-07-29_22h15.08.439,Simcolourproject_2stim_asymm_v5,2020.2.10,MacIntel,60,61025ae37ef11b136ea224fe,,,,,,,,,2757,29.33978271,59.55889893,1,0,0,response1disk,,7,-2.689819336,-7.544891357,1,0,0,rectangle,-2.689819336,-7.544891357,1,0,0,-2.689819336,-7.544891357,1,0,0,0,87,87,156,1,,,,,,,,
,,,,,,,,,,,,,FF,,,,,,,,0.7998,,,,,,,,,,,,,,,,,,,,,,60fd8576272fbc9918d4677e,61036e9afeab2892fddca0c4,2021-07-29_22h15.08.439,Simcolourproject_2stim_asymm_v5,2020.2.10,MacIntel,60,61025ae37ef11b136ea224fe,,,,,,,,,2037,64.1171875,27.29632568,1,0,0,response1disk,,6,-3.429199219,-17.4241333,1,0,0,rectangle,-3.429199219,-17.4241333,1,0,0,-3.429199219,-17.4241333,1,0,0,0,88,88,44,1,,,,,,,,
,,,,,,,,,,,,,FF,,,,,,,,0.8169,,,,,,,,,,,,,,,,,,,,,,60fd8576272fbc9918d4677e,61036e9afeab2892fddca0c4,2021-07-29_22h15.08.439,Simcolourproject_2stim_asymm_v5,2020.2.10,MacIntel,60,61025ae37ef11b136ea224fe,,,,,,,,,725,89.74481201,-37.56860352,1,0,0,response3disk,,5,18.70501709,9.67175293,1,0,0,rectangle,18.70501709,9.67175293,1,0,0,18.70501709,9.67175293,1,0,0,0,89,89,27,1,,,,,,,,
,,,,,,,,,,,,,FF,,,,,,,,0.5163,,,,,,,,,,,,,,,,,,,,,,60fd8576272fbc9918d4677e,61036e9afeab2892fddca0c4,2021-07-29_22h15.08.439,Simcolourproject_2stim_asymm_v5,2020.2.10,MacIntel,60,61025ae37ef11b136ea224fe,,,,,,,,,422,42.67626953,79.72747803,1,0,0,response1disk,,7,2.841308594,-0.101348877,1,0,0,rectangle,2.841308594,-0.101348877,1,0,0,2.841308594,-0.101348877,1,0,0,0,90,90,134,1,,,,,,,,
,,,,,,,,,,,,,FF,,,,,,,,0.5338,,,,,,,,,,,,,,,,,,,,,,60fd8576272fbc9918d4677e,61036e9afeab2892fddca0c4,2021-07-29_22h15.08.439,Simcolourproject_2stim_asymm_v5,2020.2.10,MacIntel,60,61025ae37ef11b136ea224fe,,,,,,,,,1952,34.87579346,59.57598877,1,0,0,response1disk,,7,11.52758789,9.154968262,1,0,0,rectangle,11.52758789,9.154968262,1,0,0,11.52758789,9.154968262,1,0,0,0,91,91,123,1,,,,,,,,
,,,,,,,,,,,,,FF,,,,,,,,0.4329,,,,,,,,,,,,,,,,,,,,,,60fd8576272fbc9918d4677e,61036e9afeab2892fddca0c4,2021-07-29_22h15.08.439,Simcolourproject_2stim_asymm_v5,2020.2.10,MacIntel,60,61025ae37ef11b136ea224fe,,,,,,,,,1993,29.58099365,60.49563599,1,0,0,response1disk,,7,4.470336914,10.04098511,1,0,0,rectangle,4.470336914,10.04098511,1,0,0,4.470336914,10.04098511,1,0,0,0,92,92,94,1,,,,,,,,
,,,,,,,,,,,,,FF,,,,,,,,1.35,,,,,,,,,,,,,,,,,,,,,,60fd8576272fbc9918d4677e,61036e9afeab2892fddca0c4,2021-07-29_22h15.08.439,Simcolourproject_2stim_asymm_v5,2020.2.10,MacIntel,60,61025ae37ef11b136ea224fe,,,,,,,,,2986,39.46173096,-79.84912109,1,0,0,response3disk,,4,4.562194824,-3.526611328,1,0,0,rectangle,4.562194824,-3.526611328,1,0,0,4.562194824,-3.526611328,1,0,0,0,93,93,7,1,,,,,,,,
,,,,,,,,,,,,,FF,,,,,,,,0.6181,,,,,,,,,,,,,,,,,,,,,,60fd8576272fbc9918d4677e,61036e9afeab2892fddca0c4,2021-07-29_22h15.08.439,Simcolourproject_2stim_asymm_v5,2020.2.10,MacIntel,60,61025ae37ef11b136ea224fe,,,,,,,,,1889,-45.24987793,-70.92272949,1,0,0,response5disk,,3,-10.40808105,4.581512451,1,0,0,rectangle,-10.40808105,4.581512451,1,0,0,-10.40808105,4.581512451,1,0,0,0,94,94,90,1,,,,,,,,
,,,,,,,,,,,,,FF,,,,,,,,0.6171,,,,,,,,,,,,,,,,,,,,,,60fd8576272fbc9918d4677e,61036e9afeab2892fddca0c4,2021-07-29_22h15.08.439,Simcolourproject_2stim_asymm_v5,2020.2.10,MacIntel,60,61025ae37ef11b136ea224fe,,,,,,,,,2333,45.82000732,80.30462646,1,0,0,response1disk,,7,4.623413086,3.480499268,1,0,0,rectangle,4.623413086,3.480499268,1,0,0,4.623413086,3.480499268,1,0,0,0,95,95,122,1,,,,,,,,
,,,,,,,,,,,,,FF,,,,,,,,0.467,,,,,,,,,,,,,,,,,,,,,,60fd8576272fbc9918d4677e,61036e9afeab2892fddca0c4,2021-07-29_22h15.08.439,Simcolourproject_2stim_asymm_v5,2020.2.10,MacIntel,60,61025ae37ef11b136ea224fe,,,,,,,,,117,30.56616211,55.18334961,1,0,0,response1disk,,7,16.16583252,-3.407989502,1,0,0,rectangle,16.16583252,-3.407989502,1,0,0,16.16583252,-3.407989502,1,0,0,0,96,96,96,1,,,,,,,,
,,,,,,,,,,,,,FF,,,,,,,,0.4171,,,,,,,,,,,,,,,,,,,,,,60fd8576272fbc9918d4677e,61036e9afeab2892fddca0c4,2021-07-29_22h15.08.439,Simcolourproject_2stim_asymm_v5,2020.2.10,MacIntel,60,61025ae37ef11b136ea224fe,,,,,,,,,4234,40.38781738,70.33642578,1,0,0,response1disk,,7,19.94909668,-6.527862549,1,0,0,rectangle,19.94909668,-6.527862549,1,0,0,19.94909668,-6.527862549,1,0,0,0,97,97,5,1,,,,,,,,
,,,,,,,,,,,,,FF,,,,,,,,0.5337,,,,,,,,,,,,,,,,,,,,,,60fd8576272fbc9918d4677e,61036e9afeab2892fddca0c4,2021-07-29_22h15.08.439,Simcolourproject_2stim_asymm_v5,2020.2.10,MacIntel,60,61025ae37ef11b136ea224fe,,,,,,,,,709,41.70733643,67.68139648,1,0,0,response1disk,,7,15.31878662,-0.996643066,1,0,0,rectangle,-70.5501709,-18.45928955,1,0,0,-17.4440918,-7.612487793,1,0,0,0,98,98,72,1,,response5disk_3,TRUE,2,2,"[148,252,122,8,255,173,99,157,199,112,11,33,146,178,136,298,219,235,171,301]",1.9171,rectangle
,,,,,,,,,,,,,FF,,,,,,,,1.0991,,,,,,,,,,,,,,,,,,,,,,60fd8576272fbc9918d4677e,61036e9afeab2892fddca0c4,2021-07-29_22h15.08.439,Simcolourproject_2stim_asymm_v5,2020.2.10,MacIntel,60,61025ae37ef11b136ea224fe,,,,,,,,,1024,39.32965088,122.4047852,1,0,0,response1disk,,7,-1.265686035,10.73422241,1,0,0,rectangle,-1.265686035,10.73422241,1,0,0,-1.265686035,10.73422241,1,0,0,0,99,99,17,1,,,,,,,,
,,,,,,,,,,,,,FF,,,,,,,,1.5326,,,,,,,,,,,,,,,,,,,,,,60fd8576272fbc9918d4677e,61036e9afeab2892fddca0c4,2021-07-29_22h15.08.439,Simcolourproject_2stim_asymm_v5,2020.2.10,MacIntel,60,61025ae37ef11b136ea224fe,,,,,,,,,2107,71.47973633,-48.0184021,1,0,0,response3disk,,5,11.18414307,-7.991821289,1,0,0,rectangle,11.18414307,-7.991821289,1,0,0,11.18414307,-7.991821289,1,0,0,0,100,100,36,1,,,,,,,,
,,,,,,,,,,,,,FF,,,,,,,,0.8833,,,,,,,,,,,,,,,,,,,,,,60fd8576272fbc9918d4677e,61036e9afeab2892fddca0c4,2021-07-29_22h15.08.439,Simcolourproject_2stim_asymm_v5,2020.2.10,MacIntel,60,61025ae37ef11b136ea224fe,,,,,,,,,139,46.38342285,75.01538086,1,0,0,response1disk,,7,14.94024658,8.42590332,1,0,0,rectangle,14.94024658,8.42590332,1,0,0,14.94024658,8.42590332,1,0,0,0,101,101,147,1,,,,,,,,
,,,,,,,,,,,,,FF,,,,,,,,0.7007,,,,,,,,,,,,,,,,,,,,,,60fd8576272fbc9918d4677e,61036e9afeab2892fddca0c4,2021-07-29_22h15.08.439,Simcolourproject_2stim_asymm_v5,2020.2.10,MacIntel,60,61025ae37ef11b136ea224fe,,,,,,,,,2021,63.48535156,-47.5506897,1,0,0,response3disk,,5,7.900939941,-5.565979004,1,0,0,rectangle,7.900939941,-5.565979004,1,0,0,7.900939941,-5.565979004,1,0,0,0,102,102,37,1,,,,,,,,
,,,,,,,,,,,,,FF,,,,,,,,0.6179,,,,,,,,,,,,,,,,,,,,,,60fd8576272fbc9918d4677e,61036e9afeab2892fddca0c4,2021-07-29_22h15.08.439,Simcolourproject_2stim_asymm_v5,2020.2.10,MacIntel,60,61025ae37ef11b136ea224fe,,,,,,,,,2110,24.75671387,50.62625122,1,0,0,response1disk,,7,2.29083252,-0.288970947,1,0,0,rectangle,2.29083252,-0.288970947,1,0,0,2.29083252,-0.288970947,1,0,0,0,103,103,0,1,,,,,,,,
,,,,,,,,,,,,,FF,,,,,,,,0.9835,,,,,,,,,,,,,,,,,,,,,,60fd8576272fbc9918d4677e,61036e9afeab2892fddca0c4,2021-07-29_22h15.08.439,Simcolourproject_2stim_asymm_v5,2020.2.10,MacIntel,60,61025ae37ef11b136ea224fe,,,,,,,,,3776,-31.08770752,91.05480957,1,0,0,response7disk,,0,-10.92114258,-3.315307617,1,0,0,rectangle,-10.92114258,-3.315307617,1,0,0,-10.92114258,-3.315307617,1,0,0,0,104,104,76,1,,,,,,,,
,,,,,,,,,,,,,FF,,,,,,,,0.8655,,,,,,,,,,,,,,,,,,,,,,60fd8576272fbc9918d4677e,61036e9afeab2892fddca0c4,2021-07-29_22h15.08.439,Simcolourproject_2stim_asymm_v5,2020.2.10,MacIntel,60,61025ae37ef11b136ea224fe,,,,,,,,,3456,80.11413574,34.37515259,1,0,0,response1disk,,6,-0.543945313,12.04516602,1,0,0,rectangle,-0.543945313,12.04516602,1,0,0,-0.543945313,12.04516602,1,0,0,0,105,105,57,1,,,,,,,,
,,,,,,,,,,,,,FF,,,,,,,,1.0501,,,,,,,,,,,,,,,,,,,,,,60fd8576272fbc9918d4677e,61036e9afeab2892fddca0c4,2021-07-29_22h15.08.439,Simcolourproject_2stim_asymm_v5,2020.2.10,MacIntel,60,61025ae37ef11b136ea224fe,,,,,,,,,2279,53.78686523,78.16455078,1,0,0,response1disk,,7,3.164245605,-9.93359375,1,0,0,rectangle,3.164245605,-9.93359375,1,0,0,3.164245605,-9.93359375,1,0,0,0,106,106,47,1,,,,,,,,
,,,,,,,,,,,,,FF,,,,,,,,0.8164,,,,,,,,,,,,,,,,,,,,,,60fd8576272fbc9918d4677e,61036e9afeab2892fddca0c4,2021-07-29_22h15.08.439,Simcolourproject_2stim_asymm_v5,2020.2.10,MacIntel,60,61025ae37ef11b136ea224fe,,,,,,,,,1912,37.89666748,89.42785645,1,0,0,response1disk,,7,8.329406738,-12.79608154,1,0,0,rectangle,8.329406738,-12.79608154,1,0,0,8.329406738,-12.79608154,1,0,0,0,107,107,142,1,,,,,,,,
,,,,,,,,,,,,,FF,,,,,,,,0.4505,,,,,,,,,,,,,,,,,,,,,,60fd8576272fbc9918d4677e,61036e9afeab2892fddca0c4,2021-07-29_22h15.08.439,Simcolourproject_2stim_asymm_v5,2020.2.10,MacIntel,60,61025ae37ef11b136ea224fe,,,,,,,,,3874,29.32525635,56.37625122,1,0,0,response1disk,,7,-0.241821289,-8.790710449,1,0,0,rectangle,-0.241821289,-8.790710449,1,0,0,-0.241821289,-8.790710449,1,0,0,0,108,108,101,1,,,,,,,,
,,,,,,,,,,,,,FF,,,,,,,,0.4333,,,,,,,,,,,,,,,,,,,,,,60fd8576272fbc9918d4677e,61036e9afeab2892fddca0c4,2021-07-29_22h15.08.439,Simcolourproject_2stim_asymm_v5,2020.2.10,MacIntel,60,61025ae37ef11b136ea224fe,,,,,,,,,1921,29.74279785,49.70147705,1,0,0,response1disk,,7,5.746398926,-5.02645874,1,0,0,rectangle,5.746398926,-5.02645874,1,0,0,5.746398926,-5.02645874,1,0,0,0,109,109,49,1,,,,,,,,
,,,,,,,,,,,,,FF,,,,,,,,1.1326,,,,,,,,,,,,,,,,,,,,,,60fd8576272fbc9918d4677e,61036e9afeab2892fddca0c4,2021-07-29_22h15.08.439,Simcolourproject_2stim_asymm_v5,2020.2.10,MacIntel,60,61025ae37ef11b136ea224fe,,,,,,,,,618,-45.81237793,-68.54675293,1,0,0,response5disk,,3,6.943969727,2.909973145,1,0,0,rectangle,6.943969727,2.909973145,1,0,0,6.943969727,2.909973145,1,0,0,0,110,110,62,1,,,,,,,,
,,,,,,,,,,,,,FF,,,,,,,,0.7842,,,,,,,,,,,,,,,,,,,,,,60fd8576272fbc9918d4677e,61036e9afeab2892fddca0c4,2021-07-29_22h15.08.439,Simcolourproject_2stim_asymm_v5,2020.2.10,MacIntel,60,61025ae37ef11b136ea224fe,,,,,,,,,276,-34.1496582,72.89294434,1,0,0,response7disk,,0,8.382202148,13.84790039,1,0,0,rectangle,-65.36474609,-42.02108765,1,0,0,-11.75646973,-3.485229492,1,0,0,0,111,111,82,1,,response5disk_3,TRUE,2,1,"[148,252,122,8,255,173,99,157,199,112,11,33,146,178,136,298,219,235,171,301]",1.8493,rectangle
,,,,,,,,,,,,,FF,,,,,,,,0.9672,,,,,,,,,,,,,,,,,,,,,,60fd8576272fbc9918d4677e,61036e9afeab2892fddca0c4,2021-07-29_22h15.08.439,Simcolourproject_2stim_asymm_v5,2020.2.10,MacIntel,60,61025ae37ef11b136ea224fe,,,,,,,,,4239,-50.8026123,-99.78613281,1,0,0,response5disk,,3,-18.00604248,-4.361907959,1,0,0,rectangle,-18.00604248,-4.361907959,1,0,0,-18.00604248,-4.361907959,1,0,0,0,112,112,20,1,,,,,,,,
,,,,,,,,,,,,,FF,,,,,,,,1.1317,,,,,,,,,,,,,,,,,,,,,,60fd8576272fbc9918d4677e,61036e9afeab2892fddca0c4,2021-07-29_22h15.08.439,Simcolourproject_2stim_asymm_v5,2020.2.10,MacIntel,60,61025ae37ef11b136ea224fe,,,,,,,,,3753,48.13903809,75.5791626,1,0,0,response1disk,,7,17.54278564,0.035675049,1,0,0,rectangle,17.54278564,0.035675049,1,0,0,17.54278564,0.035675049,1,0,0,0,113,113,150,1,,,,,,,,
,,,,,,,,,,,,,FF,,,,,,,,0.8647,,,,,,,,,,,,,,,,,,,,,,60fd8576272fbc9918d4677e,61036e9afeab2892fddca0c4,2021-07-29_22h15.08.439,Simcolourproject_2stim_asymm_v5,2020.2.10,MacIntel,60,61025ae37ef11b136ea224fe,,,,,,,,,1312,81.64929199,41.88659668,1,0,0,response1disk,,6,4.465087891,1.321228027,1,0,0,rectangle,4.465087891,1.321228027,1,0,0,4.465087891,1.321228027,1,0,0,0,114,114,110,1,,,,,,,,
,,,,,,,,,,,,,FF,,,,,,,,1.1836,,,,,,,,,,,,,,,,,,,,,,60fd8576272fbc9918d4677e,61036e9afeab2892fddca0c4,2021-07-29_22h15.08.439,Simcolourproject_2stim_asymm_v5,2020.2.10,MacIntel,60,61025ae37ef11b136ea224fe,,,,,,,,,3046,-100.1885986,-57.90603638,1,0,0,response5disk,,2,-1.459106445,-10.85446167,1,0,0,rectangle,-1.459106445,-10.85446167,1,0,0,-1.459106445,-10.85446167,1,0,0,0,115,115,65,1,,,,,,,,
,,,,,,,,,,,,,FF,,,,,,,,0.8334,,,,,,,,,,,,,,,,,,,,,,60fd8576272fbc9918d4677e,61036e9afeab2892fddca0c4,2021-07-29_22h15.08.439,Simcolourproject_2stim_asymm_v5,2020.2.10,MacIntel,60,61025ae37ef11b136ea224fe,,,,,,,,,3373,-46.40863037,-60.26293945,1,0,0,response5disk,,3,-13.98193359,5.134399414,1,0,0,rectangle,-13.98193359,5.134399414,1,0,0,-13.98193359,5.134399414,1,0,0,0,116,116,35,1,,,,,,,,
,,,,,,,,,,,,,FF,,,,,,,,0.8167,,,,,,,,,,,,,,,,,,,,,,60fd8576272fbc9918d4677e,61036e9afeab2892fddca0c4,2021-07-29_22h15.08.439,Simcolourproject_2stim_asymm_v5,2020.2.10,MacIntel,60,61025ae37ef11b136ea224fe,,,,,,,,,3585,-23.37255859,-76.61950684,1,0,0,response5disk,,3,-10.63012695,10.12686157,1,0,0,rectangle,-10.63012695,10.12686157,1,0,0,-10.63012695,10.12686157,1,0,0,0,117,117,119,1,,,,,,,,
,,,,,,,,,,,,,FF,,,,,,,,0.766,,,,,,,,,,,,,,,,,,,,,,60fd8576272fbc9918d4677e,61036e9afeab2892fddca0c4,2021-07-29_22h15.08.439,Simcolourproject_2stim_asymm_v5,2020.2.10,MacIntel,60,61025ae37ef11b136ea224fe,,,,,,,,,1510,29.60113525,61.74160767,1,0,0,response1disk,,7,10.730896,-1.623718262,1,0,0,rectangle,10.730896,-1.623718262,1,0,0,10.730896,-1.623718262,1,0,0,0,118,118,60,1,,,,,,,,
,,,,,,,,,,,,,FF,,,,,,,,0.6332,,,,,,,,,,,,,,,,,,,,,,60fd8576272fbc9918d4677e,61036e9afeab2892fddca0c4,2021-07-29_22h15.08.439,Simcolourproject_2stim_asymm_v5,2020.2.10,MacIntel,60,61025ae37ef11b136ea224fe,,,,,,,,,3260,40.65020752,71.18896484,1,0,0,response1disk,,7,1.967285156,1.253601074,1,0,0,rectangle,1.967285156,1.253601074,1,0,0,1.967285156,1.253601074,1,0,0,0,119,119,120,1,,,,,,,,
,,,,,,,,,,,,,FF,,,,,,,,1.0663,,,,,,,,,,,,,,,,,,,,,,60fd8576272fbc9918d4677e,61036e9afeab2892fddca0c4,2021-07-29_22h15.08.439,Simcolourproject_2stim_asymm_v5,2020.2.10,MacIntel,60,61025ae37ef11b136ea224fe,,,,,,,,,2932,42.46472168,-76.43280029,1,0,0,response3disk,,4,14.15557861,-16.13375854,1,0,0,rectangle,14.15557861,-16.13375854,1,0,0,14.15557861,-16.13375854,1,0,0,0,120,120,8,1,,,,,,,,
,,,,,,,,,,,,,FF,,,,,,,,0.768,,,,,,,,,,,,,,,,,,,,,,60fd8576272fbc9918d4677e,61036e9afeab2892fddca0c4,2021-07-29_22h15.08.439,Simcolourproject_2stim_asymm_v5,2020.2.10,MacIntel,60,61025ae37ef11b136ea224fe,,,,,,,,,2894,36.96270752,-62.55773926,1,0,0,response3disk,,4,11.35760498,11.32275391,1,0,0,rectangle,54.38372803,49.50518799,1,0,0,15.38708496,7.034851074,1,0,0,0,121,121,85,1,,response1disk_3,TRUE,6,2,"[148,252,122,8,255,173,99,157,199,112,11,33,146,178,136,298,219,235,171,301]",1.3013,rectangle
,,,,,,,,,,,,,FF,,,,,,,,0.6993,,,,,,,,,,,,,,,,,,,,,,60fd8576272fbc9918d4677e,61036e9afeab2892fddca0c4,2021-07-29_22h15.08.439,Simcolourproject_2stim_asymm_v5,2020.2.10,MacIntel,60,61025ae37ef11b136ea224fe,,,,,,,,,4247,32.1605835,62.8581543,1,0,0,response1disk,,7,23.50488281,-0.587219238,1,0,0,rectangle,23.50488281,-0.587219238,1,0,0,23.50488281,-0.587219238,1,0,0,0,122,122,131,1,,,,,,,,
,,,,,,,,,,,,,FF,,,,,,,,0.4828,,,,,,,,,,,,,,,,,,,,,,60fd8576272fbc9918d4677e,61036e9afeab2892fddca0c4,2021-07-29_22h15.08.439,Simcolourproject_2stim_asymm_v5,2020.2.10,MacIntel,60,61025ae37ef11b136ea224fe,,,,,,,,,835,33.8581543,69.25790405,1,0,0,response1disk,,7,1.057128906,-10.38366699,1,0,0,rectangle,1.057128906,-10.38366699,1,0,0,1.057128906,-10.38366699,1,0,0,0,123,123,155,1,,,,,,,,
,,,,,,,,,,,,,FF,,,,,,,,0.5324,,,,,,,,,,,,,,,,,,,,,,60fd8576272fbc9918d4677e,61036e9afeab2892fddca0c4,2021-07-29_22h15.08.439,Simcolourproject_2stim_asymm_v5,2020.2.10,MacIntel,60,61025ae37ef11b136ea224fe,,,,,,,,,1911,23.07452393,67.52304077,1,0,0,response1disk,,7,13.11199951,1.244018555,1,0,0,rectangle,13.11199951,1.244018555,1,0,0,13.11199951,1.244018555,1,0,0,0,124,124,67,1,,,,,,,,
,,,,,,,,,,,,,FF,,,,,,,,0.8496,,,,,,,,,,,,,,,,,,,,,,60fd8576272fbc9918d4677e,61036e9afeab2892fddca0c4,2021-07-29_22h15.08.439,Simcolourproject_2stim_asymm_v5,2020.2.10,MacIntel,60,61025ae37ef11b136ea224fe,,,,,,,,,1450,-32.84020996,-65.21844482,1,0,0,response5disk,,3,-10.03387451,17.7276001,1,0,0,rectangle,-10.03387451,17.7276001,1,0,0,-10.03387451,17.7276001,1,0,0,0,125,125,33,1,,,,,,,,
,,,,,,,,,,,,,FF,,,,,,,,0.5323,,,,,,,,,,,,,,,,,,,,,,60fd8576272fbc9918d4677e,61036e9afeab2892fddca0c4,2021-07-29_22h15.08.439,Simcolourproject_2stim_asymm_v5,2020.2.10,MacIntel,60,61025ae37ef11b136ea224fe,,,,,,,,,798,25.35070801,55.92510986,1,0,0,response1disk,,7,-3.399291992,-10.72943115,1,0,0,rectangle,-3.399291992,-10.72943115,1,0,0,-3.399291992,-10.72943115,1,0,0,0,126,126,100,1,,,,,,,,
,,,,,,,,,,,,,FF,,,,,,,,0.4835,,,,,,,,,,,,,,,,,,,,,,60fd8576272fbc9918d4677e,61036e9afeab2892fddca0c4,2021-07-29_22h15.08.439,Simcolourproject_2stim_asymm_v5,2020.2.10,MacIntel,60,61025ae37ef11b136ea224fe,,,,,,,,,2707,24.9083252,61.69519043,1,0,0,response1disk,,7,8.107971191,-7.668273926,1,0,0,rectangle,8.107971191,-7.668273926,1,0,0,8.107971191,-7.668273926,1,0,0,0,127,127,16,1,,,,,,,,
,,,,,,,,,,,,,FF,,,,,,,,0.5499,,,,,,,,,,,,,,,,,,,,,,60fd8576272fbc9918d4677e,61036e9afeab2892fddca0c4,2021-07-29_22h15.08.439,Simcolourproject_2stim_asymm_v5,2020.2.10,MacIntel,60,61025ae37ef11b136ea224fe,,,,,,,,,2351,31.91967773,54.88336182,1,0,0,response1disk,,7,24.89349365,-0.968688965,1,0,0,rectangle,24.89349365,-0.968688965,1,0,0,24.89349365,-0.968688965,1,0,0,0,128,128,129,1,,,,,,,,
,,,,,,,,,,,,,FF,,,,,,,,1.2338,,,,,,,,,,,,,,,,,,,,,,60fd8576272fbc9918d4677e,61036e9afeab2892fddca0c4,2021-07-29_22h15.08.439,Simcolourproject_2stim_asymm_v5,2020.2.10,MacIntel,60,61025ae37ef11b136ea224fe,,,,,,,,,3116,38.41583252,63.25177002,1,0,0,response1disk,,7,13.66711426,2.757293701,1,0,0,rectangle,13.66711426,2.757293701,1,0,0,13.66711426,2.757293701,1,0,0,0,129,129,154,1,,,,,,,,
,,,,,,,,,,,,,FF,,,,,,,,0.5013,,,,,,,,,,,,,,,,,,,,,,60fd8576272fbc9918d4677e,61036e9afeab2892fddca0c4,2021-07-29_22h15.08.439,Simcolourproject_2stim_asymm_v5,2020.2.10,MacIntel,60,61025ae37ef11b136ea224fe,,,,,,,,,3076,18.75061035,40.09179688,1,0,0,response1disk,,7,10.11669922,-5.702026367,1,0,0,rectangle,10.11669922,-5.702026367,1,0,0,10.11669922,-5.702026367,1,0,0,0,130,130,153,1,,,,,,,,
,,,,,,,,,,,,,FF,,,,,,,,0.4662,,,,,,,,,,,,,,,,,,,,,,60fd8576272fbc9918d4677e,61036e9afeab2892fddca0c4,2021-07-29_22h15.08.439,Simcolourproject_2stim_asymm_v5,2020.2.10,MacIntel,60,61025ae37ef11b136ea224fe,,,,,,,,,141,26.07086182,43.93499756,1,0,0,response1disk,,7,14.87921143,2.910186768,1,0,0,rectangle,14.87921143,2.910186768,1,0,0,14.87921143,2.910186768,1,0,0,0,131,131,29,1,,,,,,,,
,,,,,,,,,,,,,FF,,,,,,,,0.8829,,,,,,,,,,,,,,,,,,,,,,60fd8576272fbc9918d4677e,61036e9afeab2892fddca0c4,2021-07-29_22h15.08.439,Simcolourproject_2stim_asymm_v5,2020.2.10,MacIntel,60,61025ae37ef11b136ea224fe,,,,,,,,,3265,62.94726563,30.61968994,1,0,0,response1disk,,6,12.94793701,12.35449219,1,0,0,rectangle,12.94793701,12.35449219,1,0,0,12.94793701,12.35449219,1,0,0,0,132,132,135,1,,,,,,,,
,,,,,,,,,,,,,FF,,,,,,,,0.8505,,,,,,,,,,,,,,,,,,,,,,60fd8576272fbc9918d4677e,61036e9afeab2892fddca0c4,2021-07-29_22h15.08.439,Simcolourproject_2stim_asymm_v5,2020.2.10,MacIntel,60,61025ae37ef11b136ea224fe,,,,,,,,,3044,39.03503418,58.77197266,1,0,0,response1disk,,7,22.36846924,10.17486572,1,0,0,rectangle,22.36846924,10.17486572,1,0,0,22.36846924,10.17486572,1,0,0,0,133,133,107,1,,,,,,,,
,,,,,,,,,,,,,FF,,,,,,,,0.9177,,,,,,,,,,,,,,,,,,,,,,60fd8576272fbc9918d4677e,61036e9afeab2892fddca0c4,2021-07-29_22h15.08.439,Simcolourproject_2stim_asymm_v5,2020.2.10,MacIntel,60,61025ae37ef11b136ea224fe,,,,,,,,,3470,-23.29144287,-75.9654541,1,0,0,response5disk,,3,-14.44775391,-3.681091309,1,0,0,rectangle,-14.44775391,-3.681091309,1,0,0,-14.44775391,-3.681091309,1,0,0,0,134,134,106,1,,,,,,,,
,,,,,,,,,,,,,FF,,,,,,,,0.9168,,,,,,,,,,,,,,,,,,,,,,60fd8576272fbc9918d4677e,61036e9afeab2892fddca0c4,2021-07-29_22h15.08.439,Simcolourproject_2stim_asymm_v5,2020.2.10,MacIntel,60,61025ae37ef11b136ea224fe,,,,,,,,,968,-42.19989014,104.4428101,1,0,0,response7disk,,0,11.1204834,-5.179504395,1,0,0,rectangle,28.02026367,68.50756836,1,0,0,9.26739502,-0.813262939,1,0,0,0,135,135,81,1,,response1disk_3,TRUE,7,3,"[148,252,122,8,255,173,99,157,199,112,11,33,146,178,136,298,219,235,171,301]",1.0326,rectangle
,,,,,,,,,,,,,FF,,,,,,,,0.9332,,,,,,,,,,,,,,,,,,,,,,60fd8576272fbc9918d4677e,61036e9afeab2892fddca0c4,2021-07-29_22h15.08.439,Simcolourproject_2stim_asymm_v5,2020.2.10,MacIntel,60,61025ae37ef11b136ea224fe,,,,,,,,,355,-61.01623535,-39.61260986,1,0,0,response5disk,,2,-2.940429688,-8.495544434,1,0,0,rectangle,-2.940429688,-8.495544434,1,0,0,-2.940429688,-8.495544434,1,0,0,0,136,136,42,1,,,,,,,,
,,,,,,,,,,,,,FF,,,,,,,,0.5175,,,,,,,,,,,,,,,,,,,,,,60fd8576272fbc9918d4677e,61036e9afeab2892fddca0c4,2021-07-29_22h15.08.439,Simcolourproject_2stim_asymm_v5,2020.2.10,MacIntel,60,61025ae37ef11b136ea224fe,,,,,,,,,1978,30.6114502,54.49920654,1,0,0,response1disk,,7,3.587158203,-1.958740234,1,0,0,rectangle,3.587158203,-1.958740234,1,0,0,3.587158203,-1.958740234,1,0,0,0,137,137,115,1,,,,,,,,
,,,,,,,,,,,,,FF,,,,,,,,0.6825,,,,,,,,,,,,,,,,,,,,,,60fd8576272fbc9918d4677e,61036e9afeab2892fddca0c4,2021-07-29_22h15.08.439,Simcolourproject_2stim_asymm_v5,2020.2.10,MacIntel,60,61025ae37ef11b136ea224fe,,,,,,,,,2982,27.52746582,51.11694336,1,0,0,response1disk,,7,7.32434082,-12.984375,1,0,0,rectangle,7.32434082,-12.984375,1,0,0,7.32434082,-12.984375,1,0,0,0,138,138,19,1,,,,,,,,
,,,,,,,,,,,,,FF,,,,,,,,0.5175,,,,,,,,,,,,,,,,,,,,,,60fd8576272fbc9918d4677e,61036e9afeab2892fddca0c4,2021-07-29_22h15.08.439,Simcolourproject_2stim_asymm_v5,2020.2.10,MacIntel,60,61025ae37ef11b136ea224fe,,,,,,,,,2043,28.39489746,41.47653198,1,0,0,response1disk,,7,-0.731201172,-1.305053711,1,0,0,rectangle,-0.731201172,-1.305053711,1,0,0,-0.731201172,-1.305053711,1,0,0,0,139,139,148,1,,,,,,,,
,,,,,,,,,,,,,FF,,,,,,,,0.533,,,,,,,,,,,,,,,,,,,,,,60fd8576272fbc9918d4677e,61036e9afeab2892fddca0c4,2021-07-29_22h15.08.439,Simcolourproject_2stim_asymm_v5,2020.2.10,MacIntel,60,61025ae37ef11b136ea224fe,,,,,,,,,2268,16.35845947,40.64904785,1,0,0,response1disk,,7,-8.778808594,-7.510986328,1,0,0,rectangle,-8.778808594,-7.510986328,1,0,0,-8.778808594,-7.510986328,1,0,0,0,140,140,9,1,,,,,,,,
,,,,,,,,,,,,,FF,,,,,,,,0.6498,,,,,,,,,,,,,,,,,,,,,,60fd8576272fbc9918d4677e,61036e9afeab2892fddca0c4,2021-07-29_22h15.08.439,Simcolourproject_2stim_asymm_v5,2020.2.10,MacIntel,60,61025ae37ef11b136ea224fe,,,,,,,,,1461,-62.62268066,-24.68637085,1,0,0,response5disk,,2,-5.239868164,0.834838867,1,0,0,rectangle,-5.239868164,0.834838867,1,0,0,-5.239868164,0.834838867,1,0,0,0,141,141,144,1,,,,,,,,
,,,,,,,,,,,,,FF,,,,,,,,0.5664,,,,,,,,,,,,,,,,,,,,,,60fd8576272fbc9918d4677e,61036e9afeab2892fddca0c4,2021-07-29_22h15.08.439,Simcolourproject_2stim_asymm_v5,2020.2.10,MacIntel,60,61025ae37ef11b136ea224fe,,,,,,,,,2348,27.82666016,51.70690918,1,0,0,response1disk,,7,0.239624023,-13.91229248,1,0,0,rectangle,0.239624023,-13.91229248,1,0,0,0.239624023,-13.91229248,1,0,0,0,142,142,12,1,,,,,,,,
,,,,,,,,,,,,,FF,,,,,,,,0.5008,,,,,,,,,,,,,,,,,,,,,,60fd8576272fbc9918d4677e,61036e9afeab2892fddca0c4,2021-07-29_22h15.08.439,Simcolourproject_2stim_asymm_v5,2020.2.10,MacIntel,60,61025ae37ef11b136ea224fe,,,,,,,,,3136,21.76098633,49.60827637,1,0,0,response1disk,,7,10.73443604,-2.550109863,1,0,0,rectangle,10.73443604,-2.550109863,1,0,0,10.73443604,-2.550109863,1,0,0,0,143,143,55,1,,,,,,,,
,,,,,,,,,,,,,FF,,,,,,,,1.0841,,,,,,,,,,,,,,,,,,,,,,60fd8576272fbc9918d4677e,61036e9afeab2892fddca0c4,2021-07-29_22h15.08.439,Simcolourproject_2stim_asymm_v5,2020.2.10,MacIntel,60,61025ae37ef11b136ea224fe,,,,,,,,,1679,35.3604126,-98.06286621,1,0,0,response3disk,,4,10.49523926,11.22998047,1,0,0,rectangle,10.49523926,11.22998047,1,0,0,10.49523926,11.22998047,1,0,0,0,144,144,127,1,,,,,,,,
,,,,,,,,,,,,,FF,,,,,,,,0.9329,,,,,,,,,,,,,,,,,,,,,,60fd8576272fbc9918d4677e,61036e9afeab2892fddca0c4,2021-07-29_22h15.08.439,Simcolourproject_2stim_asymm_v5,2020.2.10,MacIntel,60,61025ae37ef11b136ea224fe,,,,,,,,,1833,57.70178223,-70.10437012,1,0,0,response3disk,,4,10.37628174,-15.65386963,1,0,0,rectangle,49.24401855,51.39916992,1,0,0,8.493530273,11.56256104,1,0,0,0,145,145,126,1,,response1disk_3,TRUE,7,0,"[148,252,122,8,255,173,99,157,199,112,11,33,146,178,136,298,219,235,171,301]",1.083,rectangle
,,,,,,,,,,,,,FF,,,,,,,,1.784,,,,,,,,,,,,,,,,,,,,,,60fd8576272fbc9918d4677e,61036e9afeab2892fddca0c4,2021-07-29_22h15.08.439,Simcolourproject_2stim_asymm_v5,2020.2.10,MacIntel,60,61025ae37ef11b136ea224fe,,,,,,,,,2574,23.30352783,55.38510132,1,0,0,response1disk,,7,-4.328491211,-8.851196289,1,0,0,rectangle,-4.328491211,-8.851196289,1,0,0,-4.328491211,-8.851196289,1,0,0,0,146,146,103,1,,,,,,,,
,,,,,,,,,,,,,FF,,,,,,,,0.6333,,,,,,,,,,,,,,,,,,,,,,60fd8576272fbc9918d4677e,61036e9afeab2892fddca0c4,2021-07-29_22h15.08.439,Simcolourproject_2stim_asymm_v5,2020.2.10,MacIntel,60,61025ae37ef11b136ea224fe,,,,,,,,,384,37.02478027,66.88690186,1,0,0,response1disk,,7,9.396606445,-5.655975342,1,0,0,rectangle,75.60650635,33.32763672,1,0,0,13.21765137,7.729003906,1,0,0,0,147,147,53,1,,response1disk_3,TRUE,6,2,"[148,252,122,8,255,173,99,157,199,112,11,33,146,178,136,298,219,235,171,301]",1.0832,rectangle
,,,,,,,,,,,,,FF,,,,,,,,2.0665,,,,,,,,,,,,,,,,,,,,,,60fd8576272fbc9918d4677e,61036e9afeab2892fddca0c4,2021-07-29_22h15.08.439,Simcolourproject_2stim_asymm_v5,2020.2.10,MacIntel,60,61025ae37ef11b136ea224fe,,,,,,,,,3596,86.78179932,41.03649902,1,0,0,response1disk,,6,3.74407959,-7.288391113,1,0,0,rectangle,3.74407959,-7.288391113,1,0,0,3.74407959,-7.288391113,1,0,0,0,148,148,108,1,,,,,,,,
,,,,,,,,,,,,,FF,,,,,,,,0.9177,,,,,,,,,,,,,,,,,,,,,,60fd8576272fbc9918d4677e,61036e9afeab2892fddca0c4,2021-07-29_22h15.08.439,Simcolourproject_2stim_asymm_v5,2020.2.10,MacIntel,60,61025ae37ef11b136ea224fe,,,,,,,,,2827,74.63354492,-42.402771,1,0,0,response3disk,,5,12.48345947,0.197143555,1,0,0,rectangle,12.48345947,0.197143555,1,0,0,12.48345947,0.197143555,1,0,0,0,149,149,75,1,,,,,,,,
,,,,,,,,,,,,,FF,,,,,,,,0.6344,,,,,,,,,,,,,,,,,,,,,,60fd8576272fbc9918d4677e,61036e9afeab2892fddca0c4,2021-07-29_22h15.08.439,Simcolourproject_2stim_asymm_v5,2020.2.10,MacIntel,60,61025ae37ef11b136ea224fe,,,,,,,,,3027,68.78552246,47.06884766,1,0,0,response1disk,,6,-1.426269531,-9.268432617,1,0,0,rectangle,-1.426269531,-9.268432617,1,0,0,-1.426269531,-9.268432617,1,0,0,0,150,150,143,1,,,,,,,,
,,,,,,,,,,,,,FF,,,,,,,,0.7992,,,,,,,,,,,,,,,,,,,,,,60fd8576272fbc9918d4677e,61036e9afeab2892fddca0c4,2021-07-29_22h15.08.439,Simcolourproject_2stim_asymm_v5,2020.2.10,MacIntel,60,61025ae37ef11b136ea224fe,,,,,,,,,3392,49.70080566,-91.07696533,1,0,0,response3disk,,4,0.724121094,-3.630615234,1,0,0,rectangle,0.724121094,-3.630615234,1,0,0,0.724121094,-3.630615234,1,0,0,0,151,151,102,1,,,,,,,,
,,,,,,,,,,,,,FF,,,,,,,,0.594,,,,,,,,,,,,,,,,,,,,,,60fd8576272fbc9918d4677e,61036e9afeab2892fddca0c4,2021-07-29_22h15.08.439,Simcolourproject_2stim_asymm_v5,2020.2.10,MacIntel,60,61025ae37ef11b136ea224fe,,,,,,,,,619,-23.85070801,-58.82382202,1,0,0,response5disk,,3,0.20489502,-0.668518066,1,0,0,rectangle,0.20489502,-0.668518066,1,0,0,0.20489502,-0.668518066,1,0,0,0,152,152,118,1,,,,,,,,
,,,,,,,,,,,,,FF,,,,,,,,0.8004,,,,,,,,,,,,,,,,,,,,,,60fd8576272fbc9918d4677e,61036e9afeab2892fddca0c4,2021-07-29_22h15.08.439,Simcolourproject_2stim_asymm_v5,2020.2.10,MacIntel,60,61025ae37ef11b136ea224fe,,,,,,,,,2548,31.74957275,-78.36022949,1,0,0,response3disk,,4,-0.927429199,-7.747497559,1,0,0,rectangle,-0.927429199,-7.747497559,1,0,0,-0.927429199,-7.747497559,1,0,0,0,153,153,139,1,,,,,,,,
,,,,,,,,,,,,,FF,,,,,,,,0.7333,,,,,,,,,,,,,,,,,,,,,,60fd8576272fbc9918d4677e,61036e9afeab2892fddca0c4,2021-07-29_22h15.08.439,Simcolourproject_2stim_asymm_v5,2020.2.10,MacIntel,60,61025ae37ef11b136ea224fe,,,,,,,,,2371,63.08306885,-31.31951904,1,0,0,response3disk,,5,-2.352905273,-12.82189941,1,0,0,rectangle,-2.352905273,-12.82189941,1,0,0,-2.352905273,-12.82189941,1,0,0,0,154,154,40,1,,,,,,,,
,,,,,,,,,,,,,FF,,,,,,,,0.6823,,,,,,,,,,,,,,,,,,,,,,60fd8576272fbc9918d4677e,61036e9afeab2892fddca0c4,2021-07-29_22h15.08.439,Simcolourproject_2stim_asymm_v5,2020.2.10,MacIntel,60,61025ae37ef11b136ea224fe,,,,,,,,,3502,74.68444824,35.38989258,1,0,0,response1disk,,6,-23.80426025,-14.04248047,1,0,0,rectangle,-23.80426025,-14.04248047,1,0,0,-23.80426025,-14.04248047,1,0,0,0,155,155,159,1,,,,,,,,
,,,,,,,,,,,,,FF,,,,,,,,0.9002,,,,,,,,,,,,,,,,,,,,,,60fd8576272fbc9918d4677e,61036e9afeab2892fddca0c4,2021-07-29_22h15.08.439,Simcolourproject_2stim_asymm_v5,2020.2.10,MacIntel,60,61025ae37ef11b136ea224fe,,,,,,,,,256,85.6217041,-41.89837646,1,0,0,response3disk,,5,13.15704346,-8.024230957,1,0,0,rectangle,41.63348389,24.07678223,1,0,0,-14.54125977,-11.67749023,1,0,0,0,156,156,117,1,,response1disk_3,TRUE,6,2,"[148,252,122,8,255,173,99,157,199,112,11,33,146,178,136,298,219,235,171,301]",0.9163,rectangle
,,,,,,,,,,,,,FF,,,,,,,,0.6831,,,,,,,,,,,,,,,,,,,,,,60fd8576272fbc9918d4677e,61036e9afeab2892fddca0c4,2021-07-29_22h15.08.439,Simcolourproject_2stim_asymm_v5,2020.2.10,MacIntel,60,61025ae37ef11b136ea224fe,,,,,,,,,2292,-60.87597656,-82.4654541,1,0,0,response5disk,,3,4.686279297,2.441345215,1,0,0,rectangle,4.686279297,2.441345215,1,0,0,4.686279297,2.441345215,1,0,0,0,157,157,52,1,,,,,,,,
,,,,,,,,,,,,,FF,,,,,,,,0.7328,,,,,,,,,,,,,,,,,,,,,,60fd8576272fbc9918d4677e,61036e9afeab2892fddca0c4,2021-07-29_22h15.08.439,Simcolourproject_2stim_asymm_v5,2020.2.10,MacIntel,60,61025ae37ef11b136ea224fe,,,,,,,,,1026,72.43444824,26.37014771,1,0,0,response1disk,,6,-2.79876709,-10.12017822,1,0,0,rectangle,-2.79876709,-10.12017822,1,0,0,-2.79876709,-10.12017822,1,0,0,0,158,158,1,1,,,,,,,,
,,,,,,,,,,,,,FF,,,,,,,,0.9673,,,,,,,,,,,,,,,,,,,,,,60fd8576272fbc9918d4677e,61036e9afeab2892fddca0c4,2021-07-29_22h15.08.439,Simcolourproject_2stim_asymm_v5,2020.2.10,MacIntel,60,61025ae37ef11b136ea224fe,,,,,,,,,995,65.15808105,-29.91949463,1,0,0,response3disk,,5,5.297058105,-0.752258301,1,0,0,rectangle,5.297058105,-0.752258301,1,0,0,5.297058105,-0.752258301,1,0,0,0,159,159,149,1,,,,,,,,
,,,,,,,,,,,,,FF,,,,,,,,0.6835,,,,,,,,,,,,,,,,,,,,,,60fd8576272fbc9918d4677e,61036e9afeab2892fddca0c4,2021-07-29_22h15.08.439,Simcolourproject_2stim_asymm_v5,2020.2.10,MacIntel,60,61025ae37ef11b136ea224fe,,,,,,,,,1458,58.75665283,-33.79602051,1,0,0,response3disk,,5,0.904785156,-2.041015625,1,0,0,rectangle,0.904785156,-2.041015625,1,0,0,0.904785156,-2.041015625,1,0,0,1,0,160,57,1,,,,,,,,
,,,,,,,,,,,,,FF,,,,,,,,0.5822,,,,,,,,,,,,,,,,,,,,,,60fd8576272fbc9918d4677e,61036e9afeab2892fddca0c4,2021-07-29_22h15.08.439,Simcolourproject_2stim_asymm_v5,2020.2.10,MacIntel,60,61025ae37ef11b136ea224fe,,,,,,,,,3905,25.26898193,53.48547363,1,0,0,response1disk,,7,6.660400391,3.632171631,1,0,0,rectangle,6.660400391,3.632171631,1,0,0,6.660400391,3.632171631,1,0,0,1,1,161,11,1,,,,,,,,
,,,,,,,,,,,,,FF,,,,,,,,0.5335,,,,,,,,,,,,,,,,,,,,,,60fd8576272fbc9918d4677e,61036e9afeab2892fddca0c4,2021-07-29_22h15.08.439,Simcolourproject_2stim_asymm_v5,2020.2.10,MacIntel,60,61025ae37ef11b136ea224fe,,,,,,,,,3684,29.28009033,40.39941406,1,0,0,response1disk,,7,17.01641846,-8.545532227,1,0,0,rectangle,17.01641846,-8.545532227,1,0,0,17.01641846,-8.545532227,1,0,0,1,2,162,102,1,,,,,,,,
,,,,,,,,,,,,,FF,,,,,,,,0.6495,,,,,,,,,,,,,,,,,,,,,,60fd8576272fbc9918d4677e,61036e9afeab2892fddca0c4,2021-07-29_22h15.08.439,Simcolourproject_2stim_asymm_v5,2020.2.10,MacIntel,60,61025ae37ef11b136ea224fe,,,,,,,,,2912,27.91992188,47.54510498,1,0,0,response1disk,,7,11.58068848,7.788208008,1,0,0,rectangle,11.58068848,7.788208008,1,0,0,11.58068848,7.788208008,1,0,0,1,3,163,19,1,,,,,,,,
,,,,,,,,,,,,,FF,,,,,,,,0.5997,,,,,,,,,,,,,,,,,,,,,,60fd8576272fbc9918d4677e,61036e9afeab2892fddca0c4,2021-07-29_22h15.08.439,Simcolourproject_2stim_asymm_v5,2020.2.10,MacIntel,60,61025ae37ef11b136ea224fe,,,,,,,,,1292,63.72814941,-30.98355103,1,0,0,response3disk,,5,12.00671387,13.07012939,1,0,0,rectangle,12.00671387,13.07012939,1,0,0,12.00671387,13.07012939,1,0,0,1,4,164,137,1,,,,,,,,
,,,,,,,,,,,,,FF,,,,,,,,0.7502,,,,,,,,,,,,,,,,,,,,,,60fd8576272fbc9918d4677e,61036e9afeab2892fddca0c4,2021-07-29_22h15.08.439,Simcolourproject_2stim_asymm_v5,2020.2.10,MacIntel,60,61025ae37ef11b136ea224fe,,,,,,,,,4263,36.68218994,69.71801758,1,0,0,response1disk,,7,14.05029297,8.335174561,1,0,0,rectangle,14.05029297,8.335174561,1,0,0,14.05029297,8.335174561,1,0,0,1,5,165,72,1,,,,,,,,
,,,,,,,,,,,,,FF,,,,,,,,1.0338,,,,,,,,,,,,,,,,,,,,,,60fd8576272fbc9918d4677e,61036e9afeab2892fddca0c4,2021-07-29_22h15.08.439,Simcolourproject_2stim_asymm_v5,2020.2.10,MacIntel,60,61025ae37ef11b136ea224fe,,,,,,,,,638,90.91625977,-33.38134766,1,0,0,response3disk,,5,-1.660095215,8.061706543,1,0,0,rectangle,-1.660095215,8.061706543,1,0,0,-1.660095215,8.061706543,1,0,0,1,6,166,145,1,,,,,,,,
,,,,,,,,,,,,,FF,,,,,,,,0.5197,,,,,,,,,,,,,,,,,,,,,,60fd8576272fbc9918d4677e,61036e9afeab2892fddca0c4,2021-07-29_22h15.08.439,Simcolourproject_2stim_asymm_v5,2020.2.10,MacIntel,60,61025ae37ef11b136ea224fe,,,,,,,,,3512,39.65802002,-49.51165771,1,0,0,response3disk,,4,21.33435059,-6.408081055,1,0,0,rectangle,21.33435059,-6.408081055,1,0,0,21.33435059,-6.408081055,1,0,0,1,7,167,115,1,,,,,,,,
,,,,,,,,,,,,,FF,,,,,,,,0.6176,,,,,,,,,,,,,,,,,,,,,,60fd8576272fbc9918d4677e,61036e9afeab2892fddca0c4,2021-07-29_22h15.08.439,Simcolourproject_2stim_asymm_v5,2020.2.10,MacIntel,60,61025ae37ef11b136ea224fe,,,,,,,,,1518,77.27563477,-35.41622925,1,0,0,response3disk,,5,22.79797363,-2.28918457,1,0,0,rectangle,22.79797363,-2.28918457,1,0,0,22.79797363,-2.28918457,1,0,0,1,8,168,41,1,,,,,,,,
,,,,,,,,,,,,,FF,,,,,,,,1.2009,,,,,,,,,,,,,,,,,,,,,,60fd8576272fbc9918d4677e,61036e9afeab2892fddca0c4,2021-07-29_22h15.08.439,Simcolourproject_2stim_asymm_v5,2020.2.10,MacIntel,60,61025ae37ef11b136ea224fe,,,,,,,,,1191,72.91125488,40.28494263,1,0,0,response1disk,,6,15.69714355,6.635742188,1,0,0,rectangle,15.69714355,6.635742188,1,0,0,15.69714355,6.635742188,1,0,0,1,9,169,144,1,,,,,,,,
,,,,,,,,,,,,,FF,,,,,,,,0.9502,,,,,,,,,,,,,,,,,,,,,,60fd8576272fbc9918d4677e,61036e9afeab2892fddca0c4,2021-07-29_22h15.08.439,Simcolourproject_2stim_asymm_v5,2020.2.10,MacIntel,60,61025ae37ef11b136ea224fe,,,,,,,,,958,93.41595459,-51.5423584,1,0,0,response3disk,,5,13.72473145,11.67370605,1,0,0,rectangle,67.65722656,50.75128174,1,0,0,5.837768555,11.70388794,1,0,0,1,10,170,12,1,,response1disk_3,TRUE,6,4,"[148,252,122,8,255,173,99,157,199,112,11,33,146,178,136,298,219,235,171,301]",0.7671,rectangle
,,,,,,,,,,,,,FF,,,,,,,,0.8002,,,,,,,,,,,,,,,,,,,,,,60fd8576272fbc9918d4677e,61036e9afeab2892fddca0c4,2021-07-29_22h15.08.439,Simcolourproject_2stim_asymm_v5,2020.2.10,MacIntel,60,61025ae37ef11b136ea224fe,,,,,,,,,1922,38.65252686,77.95587158,1,0,0,response1disk,,7,14.31921387,-4.938201904,1,0,0,rectangle,14.31921387,-4.938201904,1,0,0,14.31921387,-4.938201904,1,0,0,1,11,171,51,1,,,,,,,,
,,,,,,,,,,,,,FF,,,,,,,,0.7661,,,,,,,,,,,,,,,,,,,,,,60fd8576272fbc9918d4677e,61036e9afeab2892fddca0c4,2021-07-29_22h15.08.439,Simcolourproject_2stim_asymm_v5,2020.2.10,MacIntel,60,61025ae37ef11b136ea224fe,,,,,,,,,2606,69.55419922,-36.00537109,1,0,0,response3disk,,5,17.76672363,3.723388672,1,0,0,rectangle,48.02471924,61.48791504,1,0,0,19.73675537,6.24710083,1,0,0,1,12,172,58,1,,response1disk_3,TRUE,7,7,"[148,252,122,8,255,173,99,157,199,112,11,33,146,178,136,298,219,235,171,301]",0.7991,rectangle
,,,,,,,,,,,,,FF,,,,,,,,1.1331,,,,,,,,,,,,,,,,,,,,,,60fd8576272fbc9918d4677e,61036e9afeab2892fddca0c4,2021-07-29_22h15.08.439,Simcolourproject_2stim_asymm_v5,2020.2.10,MacIntel,60,61025ae37ef11b136ea224fe,,,,,,,,,4055,42.12475586,65.22711182,1,0,0,response1disk,,7,21.74707031,2.081054688,1,0,0,rectangle,21.74707031,2.081054688,1,0,0,21.74707031,2.081054688,1,0,0,1,13,173,10,1,,,,,,,,
,,,,,,,,,,,,,FF,,,,,,,,0.716,,,,,,,,,,,,,,,,,,,,,,60fd8576272fbc9918d4677e,61036e9afeab2892fddca0c4,2021-07-29_22h15.08.439,Simcolourproject_2stim_asymm_v5,2020.2.10,MacIntel,60,61025ae37ef11b136ea224fe,,,,,,,,,3728,25.72888184,78.68292236,1,0,0,response1disk,,7,17.42089844,5.209472656,1,0,0,rectangle,17.42089844,5.209472656,1,0,0,17.42089844,5.209472656,1,0,0,1,14,174,43,1,,,,,,,,
,,,,,,,,,,,,,FF,,,,,,,,1.0333,,,,,,,,,,,,,,,,,,,,,,60fd8576272fbc9918d4677e,61036e9afeab2892fddca0c4,2021-07-29_22h15.08.439,Simcolourproject_2stim_asymm_v5,2020.2.10,MacIntel,60,61025ae37ef11b136ea224fe,,,,,,,,,3152,82.29022217,-30.75732422,1,0,0,response3disk,,5,21.89117432,0.270202637,1,0,0,rectangle,21.89117432,0.270202637,1,0,0,21.89117432,0.270202637,1,0,0,1,15,175,64,1,,,,,,,,
,,,,,,,,,,,,,FF,,,,,,,,0.6171,,,,,,,,,,,,,,,,,,,,,,60fd8576272fbc9918d4677e,61036e9afeab2892fddca0c4,2021-07-29_22h15.08.439,Simcolourproject_2stim_asymm_v5,2020.2.10,MacIntel,60,61025ae37ef11b136ea224fe,,,,,,,,,2708,29.98681641,74.04083252,1,0,0,response1disk,,7,4.756835938,-8.068695068,1,0,0,rectangle,4.756835938,-8.068695068,1,0,0,4.756835938,-8.068695068,1,0,0,1,16,176,52,1,,,,,,,,
,,,,,,,,,,,,,FF,,,,,,,,0.6515,,,,,,,,,,,,,,,,,,,,,,60fd8576272fbc9918d4677e,61036e9afeab2892fddca0c4,2021-07-29_22h15.08.439,Simcolourproject_2stim_asymm_v5,2020.2.10,MacIntel,60,61025ae37ef11b136ea224fe,,,,,,,,,1595,28.13500977,48.09295654,1,0,0,response1disk,,7,10.99951172,3.209777832,1,0,0,rectangle,46.43438721,28.72052002,1,0,0,15.72668457,3.699401855,1,0,0,1,17,177,27,1,,response1disk_3,TRUE,6,2,"[148,252,122,8,255,173,99,157,199,112,11,33,146,178,136,298,219,235,171,301]",0.85,rectangle
,,,,,,,,,,,,,FF,,,,,,,,1.1326,,,,,,,,,,,,,,,,,,,,,,60fd8576272fbc9918d4677e,61036e9afeab2892fddca0c4,2021-07-29_22h15.08.439,Simcolourproject_2stim_asymm_v5,2020.2.10,MacIntel,60,61025ae37ef11b136ea224fe,,,,,,,,,3631,84.11242676,43.62286377,1,0,0,response1disk,,6,17.21289063,4.064941406,1,0,0,rectangle,17.21289063,4.064941406,1,0,0,17.21289063,4.064941406,1,0,0,1,18,178,21,1,,,,,,,,
,,,,,,,,,,,,,FF,,,,,,,,0.7491,,,,,,,,,,,,,,,,,,,,,,60fd8576272fbc9918d4677e,61036e9afeab2892fddca0c4,2021-07-29_22h15.08.439,Simcolourproject_2stim_asymm_v5,2020.2.10,MacIntel,60,61025ae37ef11b136ea224fe,,,,,,,,,187,81.83197021,-53.58377075,1,0,0,response3disk,,5,2.489562988,-4.118774414,1,0,0,rectangle,2.489562988,-4.118774414,1,0,0,2.489562988,-4.118774414,1,0,0,1,19,179,113,1,,,,,,,,
,,,,,,,,,,,,,FF,,,,,,,,0.6321,,,,,,,,,,,,,,,,,,,,,,60fd8576272fbc9918d4677e,61036e9afeab2892fddca0c4,2021-07-29_22h15.08.439,Simcolourproject_2stim_asymm_v5,2020.2.10,MacIntel,60,61025ae37ef11b136ea224fe,,,,,,,,,3664,36.1786499,-49.52606201,1,0,0,response3disk,,4,5.467102051,8.627075195,1,0,0,rectangle,5.467102051,8.627075195,1,0,0,5.467102051,8.627075195,1,0,0,1,20,180,99,1,,,,,,,,
,,,,,,,,,,,,,FF,,,,,,,,0.5997,,,,,,,,,,,,,,,,,,,,,,60fd8576272fbc9918d4677e,61036e9afeab2892fddca0c4,2021-07-29_22h15.08.439,Simcolourproject_2stim_asymm_v5,2020.2.10,MacIntel,60,61025ae37ef11b136ea224fe,,,,,,,,,2752,15.71398926,51.6628418,1,0,0,response1disk,,7,3.015625,1.463653564,1,0,0,rectangle,3.015625,1.463653564,1,0,0,3.015625,1.463653564,1,0,0,1,21,181,29,1,,,,,,,,
,,,,,,,,,,,,,FF,,,,,,,,1.1342,,,,,,,,,,,,,,,,,,,,,,60fd8576272fbc9918d4677e,61036e9afeab2892fddca0c4,2021-07-29_22h15.08.439,Simcolourproject_2stim_asymm_v5,2020.2.10,MacIntel,60,61025ae37ef11b136ea224fe,,,,,,,,,2242,74.95288086,28.48687744,1,0,0,response1disk,,6,1.508972168,3.747344971,1,0,0,rectangle,1.508972168,3.747344971,1,0,0,1.508972168,3.747344971,1,0,0,1,22,182,86,1,,,,,,,,
,,,,,,,,,,,,,FF,,,,,,,,0.8168,,,,,,,,,,,,,,,,,,,,,,60fd8576272fbc9918d4677e,61036e9afeab2892fddca0c4,2021-07-29_22h15.08.439,Simcolourproject_2stim_asymm_v5,2020.2.10,MacIntel,60,61025ae37ef11b136ea224fe,,,,,,,,,2760,40.82855225,80.06604004,1,0,0,response1disk,,7,18.01464844,-5.151123047,1,0,0,rectangle,18.01464844,-5.151123047,1,0,0,18.01464844,-5.151123047,1,0,0,1,23,183,121,1,,,,,,,,
,,,,,,,,,,,,,FF,,,,,,,,0.7844,,,,,,,,,,,,,,,,,,,,,,60fd8576272fbc9918d4677e,61036e9afeab2892fddca0c4,2021-07-29_22h15.08.439,Simcolourproject_2stim_asymm_v5,2020.2.10,MacIntel,60,61025ae37ef11b136ea224fe,,,,,,,,,1948,68.31970215,31.29260254,1,0,0,response1disk,,6,-9.642089844,-5.141662598,1,0,0,rectangle,-9.642089844,-5.141662598,1,0,0,-9.642089844,-5.141662598,1,0,0,1,24,184,3,1,,,,,,,,
,,,,,,,,,,,,,FF,,,,,,,,0.7149,,,,,,,,,,,,,,,,,,,,,,60fd8576272fbc9918d4677e,61036e9afeab2892fddca0c4,2021-07-29_22h15.08.439,Simcolourproject_2stim_asymm_v5,2020.2.10,MacIntel,60,61025ae37ef11b136ea224fe,,,,,,,,,2243,63.30859375,27.69067383,1,0,0,response1disk,,6,8.391418457,10.04217529,1,0,0,rectangle,8.391418457,10.04217529,1,0,0,8.391418457,10.04217529,1,0,0,1,25,185,8,1,,,,,,,,
,,,,,,,,,,,,,FF,,,,,,,,0.8506,,,,,,,,,,,,,,,,,,,,,,60fd8576272fbc9918d4677e,61036e9afeab2892fddca0c4,2021-07-29_22h15.08.439,Simcolourproject_2stim_asymm_v5,2020.2.10,MacIntel,60,61025ae37ef11b136ea224fe,,,,,,,,,4049,79.72796631,-31.92437744,1,0,0,response3disk,,5,12.77612305,-4.647155762,1,0,0,rectangle,12.77612305,-4.647155762,1,0,0,12.77612305,-4.647155762,1,0,0,1,26,186,103,1,,,,,,,,
,,,,,,,,,,,,,FF,,,,,,,,1.0501,,,,,,,,,,,,,,,,,,,,,,60fd8576272fbc9918d4677e,61036e9afeab2892fddca0c4,2021-07-29_22h15.08.439,Simcolourproject_2stim_asymm_v5,2020.2.10,MacIntel,60,61025ae37ef11b136ea224fe,,,,,,,,,3151,66.98278809,-31.50872803,1,0,0,response3disk,,5,12.25769043,0.125518799,1,0,0,rectangle,12.25769043,0.125518799,1,0,0,12.25769043,0.125518799,1,0,0,1,27,187,158,1,,,,,,,,
,,,,,,,,,,,,,FF,,,,,,,,0.9336,,,,,,,,,,,,,,,,,,,,,,60fd8576272fbc9918d4677e,61036e9afeab2892fddca0c4,2021-07-29_22h15.08.439,Simcolourproject_2stim_asymm_v5,2020.2.10,MacIntel,60,61025ae37ef11b136ea224fe,,,,,,,,,901,74.97369385,32.45092773,1,0,0,response1disk,,6,4.735290527,-7.437316895,1,0,0,rectangle,4.735290527,-7.437316895,1,0,0,4.735290527,-7.437316895,1,0,0,1,28,188,15,1,,,,,,,,
,,,,,,,,,,,,,FF,,,,,,,,0.65,,,,,,,,,,,,,,,,,,,,,,60fd8576272fbc9918d4677e,61036e9afeab2892fddca0c4,2021-07-29_22h15.08.439,Simcolourproject_2stim_asymm_v5,2020.2.10,MacIntel,60,61025ae37ef11b136ea224fe,,,,,,,,,1254,29.22674561,64.65551758,1,0,0,response1disk,,7,12.57128906,-5.625793457,1,0,0,rectangle,12.57128906,-5.625793457,1,0,0,12.57128906,-5.625793457,1,0,0,1,29,189,143,1,,,,,,,,
,,,,,,,,,,,,,FF,,,,,,,,0.701,,,,,,,,,,,,,,,,,,,,,,60fd8576272fbc9918d4677e,61036e9afeab2892fddca0c4,2021-07-29_22h15.08.439,Simcolourproject_2stim_asymm_v5,2020.2.10,MacIntel,60,61025ae37ef11b136ea224fe,,,,,,,,,2366,73.60791016,31.51702881,1,0,0,response1disk,,6,17.62902832,8.83392334,1,0,0,rectangle,17.62902832,8.83392334,1,0,0,17.62902832,8.83392334,1,0,0,1,30,190,31,1,,,,,,,,
,,,,,,,,,,,,,FF,,,,,,,,0.7514,,,,,,,,,,,,,,,,,,,,,,60fd8576272fbc9918d4677e,61036e9afeab2892fddca0c4,2021-07-29_22h15.08.439,Simcolourproject_2stim_asymm_v5,2020.2.10,MacIntel,60,61025ae37ef11b136ea224fe,,,,,,,,,4033,35.5645752,76.55566406,1,0,0,response1disk,,7,16.99890137,-3.067596436,1,0,0,rectangle,16.99890137,-3.067596436,1,0,0,16.99890137,-3.067596436,1,0,0,1,31,191,66,1,,,,,,,,
,,,,,,,,,,,,,FF,,,,,,,,0.6665,,,,,,,,,,,,,,,,,,,,,,60fd8576272fbc9918d4677e,61036e9afeab2892fddca0c4,2021-07-29_22h15.08.439,Simcolourproject_2stim_asymm_v5,2020.2.10,MacIntel,60,61025ae37ef11b136ea224fe,,,,,,,,,4257,27.99072266,44.02307129,1,0,0,response1disk,,7,11.59869385,-16.27740479,1,0,0,rectangle,11.59869385,-16.27740479,1,0,0,11.59869385,-16.27740479,1,0,0,1,32,192,26,1,,,,,,,,
,,,,,,,,,,,,,FF,,,,,,,,1.7334,,,,,,,,,,,,,,,,,,,,,,60fd8576272fbc9918d4677e,61036e9afeab2892fddca0c4,2021-07-29_22h15.08.439,Simcolourproject_2stim_asymm_v5,2020.2.10,MacIntel,60,61025ae37ef11b136ea224fe,,,,,,,,,3146,-91.16082764,-36.63952637,1,0,0,response5disk,,2,-17.56396484,3.847900391,1,0,0,rectangle,-17.56396484,3.847900391,1,0,0,-17.56396484,3.847900391,1,0,0,1,33,193,154,1,,,,,,,,
,,,,,,,,,,,,,FF,,,,,,,,0.7324,,,,,,,,,,,,,,,,,,,,,,60fd8576272fbc9918d4677e,61036e9afeab2892fddca0c4,2021-07-29_22h15.08.439,Simcolourproject_2stim_asymm_v5,2020.2.10,MacIntel,60,61025ae37ef11b136ea224fe,,,,,,,,,926,34.48718262,60.105896,1,0,0,response1disk,,7,1.465393066,-11.00976563,1,0,0,rectangle,1.465393066,-11.00976563,1,0,0,1.465393066,-11.00976563,1,0,0,1,34,194,97,1,,,,,,,,
,,,,,,,,,,,,,FF,,,,,,,,0.4671,,,,,,,,,,,,,,,,,,,,,,60fd8576272fbc9918d4677e,61036e9afeab2892fddca0c4,2021-07-29_22h15.08.439,Simcolourproject_2stim_asymm_v5,2020.2.10,MacIntel,60,61025ae37ef11b136ea224fe,,,,,,,,,2138,23.59008789,34.76696777,1,0,0,response1disk,,7,4.42590332,-1.879699707,1,0,0,rectangle,4.42590332,-1.879699707,1,0,0,4.42590332,-1.879699707,1,0,0,1,35,195,73,1,,,,,,,,
,,,,,,,,,,,,,FF,,,,,,,,0.499,,,,,,,,,,,,,,,,,,,,,,60fd8576272fbc9918d4677e,61036e9afeab2892fddca0c4,2021-07-29_22h15.08.439,Simcolourproject_2stim_asymm_v5,2020.2.10,MacIntel,60,61025ae37ef11b136ea224fe,,,,,,,,,666,29.66876221,59.53631592,1,0,0,response1disk,,7,12.75256348,-16.24853516,1,0,0,rectangle,12.75256348,-16.24853516,1,0,0,12.75256348,-16.24853516,1,0,0,1,36,196,117,1,,,,,,,,
,,,,,,,,,,,,,FF,,,,,,,,0.518,,,,,,,,,,,,,,,,,,,,,,60fd8576272fbc9918d4677e,61036e9afeab2892fddca0c4,2021-07-29_22h15.08.439,Simcolourproject_2stim_asymm_v5,2020.2.10,MacIntel,60,61025ae37ef11b136ea224fe,,,,,,,,,85,25.09161377,39.02075195,1,0,0,response1disk,,7,17.14538574,0.07043457,1,0,0,rectangle,17.14538574,0.07043457,1,0,0,17.14538574,0.07043457,1,0,0,1,37,197,14,1,,,,,,,,
,,,,,,,,,,,,,FF,,,,,,,,0.3658,,,,,,,,,,,,,,,,,,,,,,60fd8576272fbc9918d4677e,61036e9afeab2892fddca0c4,2021-07-29_22h15.08.439,Simcolourproject_2stim_asymm_v5,2020.2.10,MacIntel,60,61025ae37ef11b136ea224fe,,,,,,,,,3835,44.25317383,82.02624512,1,0,0,response1disk,,7,21.14282227,-3.396697998,1,0,0,rectangle,42.18487549,64.43630981,1,0,0,17.58966064,3.576049805,1,0,0,1,38,198,54,1,,response1disk_3,TRUE,7,6,"[148,252,122,8,255,173,99,157,199,112,11,33,146,178,136,298,219,235,171,301]",0.6172,rectangle
,,,,,,,,,,,,,FF,,,,,,,,0.917,,,,,,,,,,,,,,,,,,,,,,60fd8576272fbc9918d4677e,61036e9afeab2892fddca0c4,2021-07-29_22h15.08.439,Simcolourproject_2stim_asymm_v5,2020.2.10,MacIntel,60,61025ae37ef11b136ea224fe,,,,,,,,,220,26.08190918,50.71881104,1,0,0,response1disk,,7,25.57336426,-7.811859131,1,0,0,rectangle,25.57336426,-7.811859131,1,0,0,25.57336426,-7.811859131,1,0,0,1,39,199,63,1,,,,,,,,
,,,,,,,,,,,,,FF,,,,,,,,0.9331,,,,,,,,,,,,,,,,,,,,,,60fd8576272fbc9918d4677e,61036e9afeab2892fddca0c4,2021-07-29_22h15.08.439,Simcolourproject_2stim_asymm_v5,2020.2.10,MacIntel,60,61025ae37ef11b136ea224fe,,,,,,,,,3515,85.57763672,-35.27081299,1,0,0,response3disk,,5,23.37878418,-1.547332764,1,0,0,rectangle,23.37878418,-1.547332764,1,0,0,23.37878418,-1.547332764,1,0,0,1,40,200,109,1,,,,,,,,
,,,,,,,,,,,,,FF,,,,,,,,0.7333,,,,,,,,,,,,,,,,,,,,,,60fd8576272fbc9918d4677e,61036e9afeab2892fddca0c4,2021-07-29_22h15.08.439,Simcolourproject_2stim_asymm_v5,2020.2.10,MacIntel,60,61025ae37ef11b136ea224fe,,,,,,,,,2762,38.59741211,72.56433105,1,0,0,response1disk,,7,11.27593994,3.04473877,1,0,0,rectangle,11.27593994,3.04473877,1,0,0,11.27593994,3.04473877,1,0,0,1,41,201,70,1,,,,,,,,
,,,,,,,,,,,,,FF,,,,,,,,0.9841,,,,,,,,,,,,,,,,,,,,,,60fd8576272fbc9918d4677e,61036e9afeab2892fddca0c4,2021-07-29_22h15.08.439,Simcolourproject_2stim_asymm_v5,2020.2.10,MacIntel,60,61025ae37ef11b136ea224fe,,,,,,,,,2260,30.30725098,73.00653076,1,0,0,response1disk,,7,10.07769775,9.188995361,1,0,0,rectangle,10.07769775,9.188995361,1,0,0,10.07769775,9.188995361,1,0,0,1,42,202,47,1,,,,,,,,
,,,,,,,,,,,,,FF,,,,,,,,0.7164,,,,,,,,,,,,,,,,,,,,,,60fd8576272fbc9918d4677e,61036e9afeab2892fddca0c4,2021-07-29_22h15.08.439,Simcolourproject_2stim_asymm_v5,2020.2.10,MacIntel,60,61025ae37ef11b136ea224fe,,,,,,,,,4335,-23.91564941,52.79504395,1,0,0,response7disk,,0,11.70367432,3.047271729,1,0,0,rectangle,11.70367432,3.047271729,1,0,0,11.70367432,3.047271729,1,0,0,1,43,203,125,1,,,,,,,,
,,,,,,,,,,,,,FF,,,,,,,,0.9342,,,,,,,,,,,,,,,,,,,,,,60fd8576272fbc9918d4677e,61036e9afeab2892fddca0c4,2021-07-29_22h15.08.439,Simcolourproject_2stim_asymm_v5,2020.2.10,MacIntel,60,61025ae37ef11b136ea224fe,,,,,,,,,3015,32.578125,61.42178345,1,0,0,response1disk,,7,-7.44519043,-3.05859375,1,0,0,rectangle,-7.44519043,-3.05859375,1,0,0,-7.44519043,-3.05859375,1,0,0,1,44,204,124,1,,,,,,,,
,,,,,,,,,,,,,FF,,,,,,,,0.6331,,,,,,,,,,,,,,,,,,,,,,60fd8576272fbc9918d4677e,61036e9afeab2892fddca0c4,2021-07-29_22h15.08.439,Simcolourproject_2stim_asymm_v5,2020.2.10,MacIntel,60,61025ae37ef11b136ea224fe,,,,,,,,,1479,29.37219238,55.402771,1,0,0,response1disk,,7,-1.888183594,-4.726745605,1,0,0,rectangle,-1.888183594,-4.726745605,1,0,0,-1.888183594,-4.726745605,1,0,0,1,45,205,128,1,,,,,,,,
,,,,,,,,,,,,,FF,,,,,,,,0.717,,,,,,,,,,,,,,,,,,,,,,60fd8576272fbc9918d4677e,61036e9afeab2892fddca0c4,2021-07-29_22h15.08.439,Simcolourproject_2stim_asymm_v5,2020.2.10,MacIntel,60,61025ae37ef11b136ea224fe,,,,,,,,,1062,72.99102783,37.71173096,1,0,0,response1disk,,6,21.47912598,5.258850098,1,0,0,rectangle,21.47912598,5.258850098,1,0,0,21.47912598,5.258850098,1,0,0,1,46,206,156,1,,,,,,,,
,,,,,,,,,,,,,FF,,,,,,,,0.9497,,,,,,,,,,,,,,,,,,,,,,60fd8576272fbc9918d4677e,61036e9afeab2892fddca0c4,2021-07-29_22h15.08.439,Simcolourproject_2stim_asymm_v5,2020.2.10,MacIntel,60,61025ae37ef11b136ea224fe,,,,,,,,,3675,-34.66693115,-84.71411133,1,0,0,response5disk,,3,-3.574157715,8.769836426,1,0,0,rectangle,-3.574157715,8.769836426,1,0,0,-3.574157715,8.769836426,1,0,0,1,47,207,114,1,,,,,,,,
,,,,,,,,,,,,,FF,,,,,,,,0.8169,,,,,,,,,,,,,,,,,,,,,,60fd8576272fbc9918d4677e,61036e9afeab2892fddca0c4,2021-07-29_22h15.08.439,Simcolourproject_2stim_asymm_v5,2020.2.10,MacIntel,60,61025ae37ef11b136ea224fe,,,,,,,,,1613,66.48400879,41.09710693,1,0,0,response1disk,,6,-18.79846191,-2.152282715,1,0,0,rectangle,-18.79846191,-2.152282715,1,0,0,-18.79846191,-2.152282715,1,0,0,1,48,208,2,1,,,,,,,,
,,,,,,,,,,,,,FF,,,,,,,,0.4858,,,,,,,,,,,,,,,,,,,,,,60fd8576272fbc9918d4677e,61036e9afeab2892fddca0c4,2021-07-29_22h15.08.439,Simcolourproject_2stim_asymm_v5,2020.2.10,MacIntel,60,61025ae37ef11b136ea224fe,,,,,,,,,2357,45.93188477,30.22149658,1,0,0,response1disk,,6,-4.887878418,-3.71875,1,0,0,rectangle,-4.887878418,-3.71875,1,0,0,-4.887878418,-3.71875,1,0,0,1,49,209,48,1,,,,,,,,
,,,,,,,,,,,,,FF,,,,,,,,1.366,,,,,,,,,,,,,,,,,,,,,,60fd8576272fbc9918d4677e,61036e9afeab2892fddca0c4,2021-07-29_22h15.08.439,Simcolourproject_2stim_asymm_v5,2020.2.10,MacIntel,60,61025ae37ef11b136ea224fe,,,,,,,,,1565,72.56097412,41.69805908,1,0,0,response1disk,,6,-3.751525879,11.1161499,1,0,0,rectangle,-3.751525879,11.1161499,1,0,0,-3.751525879,11.1161499,1,0,0,1,50,210,46,1,,,,,,,,
,,,,,,,,,,,,,FF,,,,,,,,0.7514,,,,,,,,,,,,,,,,,,,,,,60fd8576272fbc9918d4677e,61036e9afeab2892fddca0c4,2021-07-29_22h15.08.439,Simcolourproject_2stim_asymm_v5,2020.2.10,MacIntel,60,61025ae37ef11b136ea224fe,,,,,,,,,2717,30.62805176,58.91418457,1,0,0,response1disk,,7,11.85949707,-12.14733887,1,0,0,rectangle,11.85949707,-12.14733887,1,0,0,11.85949707,-12.14733887,1,0,0,1,51,211,104,1,,,,,,,,
,,,,,,,,,,,,,FF,,,,,,,,0.8183,,,,,,,,,,,,,,,,,,,,,,60fd8576272fbc9918d4677e,61036e9afeab2892fddca0c4,2021-07-29_22h15.08.439,Simcolourproject_2stim_asymm_v5,2020.2.10,MacIntel,60,61025ae37ef11b136ea224fe,,,,,,,,,2060,17.27026367,43.17599487,1,0,0,response1disk,,7,4.076171875,3.110565186,1,0,0,rectangle,4.076171875,3.110565186,1,0,0,4.076171875,3.110565186,1,0,0,1,52,212,88,1,,,,,,,,
,,,,,,,,,,,,,FF,,,,,,,,0.9173,,,,,,,,,,,,,,,,,,,,,,60fd8576272fbc9918d4677e,61036e9afeab2892fddca0c4,2021-07-29_22h15.08.439,Simcolourproject_2stim_asymm_v5,2020.2.10,MacIntel,60,61025ae37ef11b136ea224fe,,,,,,,,,3627,96.98699951,41.68209839,1,0,0,response1disk,,6,10.72497559,6.76852417,1,0,0,rectangle,10.72497559,6.76852417,1,0,0,10.72497559,6.76852417,1,0,0,1,53,213,91,1,,,,,,,,
,,,,,,,,,,,,,FF,,,,,,,,0.6165,,,,,,,,,,,,,,,,,,,,,,60fd8576272fbc9918d4677e,61036e9afeab2892fddca0c4,2021-07-29_22h15.08.439,Simcolourproject_2stim_asymm_v5,2020.2.10,MacIntel,60,61025ae37ef11b136ea224fe,,,,,,,,,1394,27.70495605,59.93048096,1,0,0,response1disk,,7,15.17736816,0.40032959,1,0,0,rectangle,15.17736816,0.40032959,1,0,0,15.17736816,0.40032959,1,0,0,1,54,214,40,1,,,,,,,,
,,,,,,,,,,,,,FF,,,,,,,,0.7506,,,,,,,,,,,,,,,,,,,,,,60fd8576272fbc9918d4677e,61036e9afeab2892fddca0c4,2021-07-29_22h15.08.439,Simcolourproject_2stim_asymm_v5,2020.2.10,MacIntel,60,61025ae37ef11b136ea224fe,,,,,,,,,1909,78.2543335,-32.70077515,1,0,0,response3disk,,5,10.97900391,1.798339844,1,0,0,rectangle,10.97900391,1.798339844,1,0,0,10.97900391,1.798339844,1,0,0,1,55,215,45,1,,,,,,,,
,,,,,,,,,,,,,FF,,,,,,,,0.5837,,,,,,,,,,,,,,,,,,,,,,60fd8576272fbc9918d4677e,61036e9afeab2892fddca0c4,2021-07-29_22h15.08.439,Simcolourproject_2stim_asymm_v5,2020.2.10,MacIntel,60,61025ae37ef11b136ea224fe,,,,,,,,,4348,18.26867676,60.72583008,1,0,0,response1disk,,7,17.20733643,-1.810424805,1,0,0,rectangle,17.20733643,-1.810424805,1,0,0,17.20733643,-1.810424805,1,0,0,1,56,216,152,1,,,,,,,,
,,,,,,,,,,,,,FF,,,,,,,,0.8333,,,,,,,,,,,,,,,,,,,,,,60fd8576272fbc9918d4677e,61036e9afeab2892fddca0c4,2021-07-29_22h15.08.439,Simcolourproject_2stim_asymm_v5,2020.2.10,MacIntel,60,61025ae37ef11b136ea224fe,,,,,,,,,948,82.53808594,39.47134399,1,0,0,response1disk,,6,18.90698242,13.74383545,1,0,0,rectangle,18.90698242,13.74383545,1,0,0,18.90698242,13.74383545,1,0,0,1,57,217,101,1,,,,,,,,
,,,,,,,,,,,,,FF,,,,,,,,1.0165,,,,,,,,,,,,,,,,,,,,,,60fd8576272fbc9918d4677e,61036e9afeab2892fddca0c4,2021-07-29_22h15.08.439,Simcolourproject_2stim_asymm_v5,2020.2.10,MacIntel,60,61025ae37ef11b136ea224fe,,,,,,,,,4085,35.61358643,-66.37451172,1,0,0,response3disk,,4,26.0098877,6.206848145,1,0,0,rectangle,64.09008789,51.64080811,1,0,0,5.097106934,6.663208008,1,0,0,1,58,218,55,1,,response1disk_3,TRUE,6,0,"[148,252,122,8,255,173,99,157,199,112,11,33,146,178,136,298,219,235,171,301]",1.0842,rectangle
,,,,,,,,,,,,,FF,,,,,,,,0.7663,,,,,,,,,,,,,,,,,,,,,,60fd8576272fbc9918d4677e,61036e9afeab2892fddca0c4,2021-07-29_22h15.08.439,Simcolourproject_2stim_asymm_v5,2020.2.10,MacIntel,60,61025ae37ef11b136ea224fe,,,,,,,,,4303,27.45214844,68.0368042,1,0,0,response1disk,,7,14.8180542,-4.479736328,1,0,0,rectangle,14.8180542,-4.479736328,1,0,0,14.8180542,-4.479736328,1,0,0,1,59,219,140,1,,,,,,,,
,,,,,,,,,,,,,FF,,,,,,,,0.4519,,,,,,,,,,,,,,,,,,,,,,60fd8576272fbc9918d4677e,61036e9afeab2892fddca0c4,2021-07-29_22h15.08.439,Simcolourproject_2stim_asymm_v5,2020.2.10,MacIntel,60,61025ae37ef11b136ea224fe,,,,,,,,,1431,25.21105957,47.81704712,1,0,0,response1disk,,7,19.96704102,-7.531433105,1,0,0,rectangle,19.96704102,-7.531433105,1,0,0,19.96704102,-7.531433105,1,0,0,1,60,220,147,1,,,,,,,,
,,,,,,,,,,,,,FF,,,,,,,,0.4357,,,,,,,,,,,,,,,,,,,,,,60fd8576272fbc9918d4677e,61036e9afeab2892fddca0c4,2021-07-29_22h15.08.439,Simcolourproject_2stim_asymm_v5,2020.2.10,MacIntel,60,61025ae37ef11b136ea224fe,,,,,,,,,4232,35.46887207,64.18481445,1,0,0,response1disk,,7,22.85430908,1.96484375,1,0,0,rectangle,22.85430908,1.96484375,1,0,0,22.85430908,1.96484375,1,0,0,1,61,221,120,1,,,,,,,,
,,,,,,,,,,,,,FF,,,,,,,,1.9831,,,,,,,,,,,,,,,,,,,,,,60fd8576272fbc9918d4677e,61036e9afeab2892fddca0c4,2021-07-29_22h15.08.439,Simcolourproject_2stim_asymm_v5,2020.2.10,MacIntel,60,61025ae37ef11b136ea224fe,,,,,,,,,1158,30.28137207,66.38800049,1,0,0,response1disk,,7,20.08355713,-13.21658325,1,0,0,rectangle,20.08355713,-13.21658325,1,0,0,20.08355713,-13.21658325,1,0,0,1,62,222,1,1,,,,,,,,
,,,,,,,,,,,,,FF,,,,,,,,0.4496,,,,,,,,,,,,,,,,,,,,,,60fd8576272fbc9918d4677e,61036e9afeab2892fddca0c4,2021-07-29_22h15.08.439,Simcolourproject_2stim_asymm_v5,2020.2.10,MacIntel,60,61025ae37ef11b136ea224fe,,,,,,,,,2641,33.77905273,65.34204102,1,0,0,response1disk,,7,20.70898438,9.798919678,1,0,0,rectangle,20.70898438,9.798919678,1,0,0,20.70898438,9.798919678,1,0,0,1,63,223,36,1,,,,,,,,
,,,,,,,,,,,,,FF,,,,,,,,0.6332,,,,,,,,,,,,,,,,,,,,,,60fd8576272fbc9918d4677e,61036e9afeab2892fddca0c4,2021-07-29_22h15.08.439,Simcolourproject_2stim_asymm_v5,2020.2.10,MacIntel,60,61025ae37ef11b136ea224fe,,,,,,,,,2675,68.90820313,47.23193359,1,0,0,response1disk,,6,15.68585205,4.570800781,1,0,0,rectangle,15.68585205,4.570800781,1,0,0,15.68585205,4.570800781,1,0,0,1,64,224,0,1,,,,,,,,
,,,,,,,,,,,,,FF,,,,,,,,0.8506,,,,,,,,,,,,,,,,,,,,,,60fd8576272fbc9918d4677e,61036e9afeab2892fddca0c4,2021-07-29_22h15.08.439,Simcolourproject_2stim_asymm_v5,2020.2.10,MacIntel,60,61025ae37ef11b136ea224fe,,,,,,,,,2486,81.15032959,35.99786377,1,0,0,response1disk,,6,27.02478027,9.659851074,1,0,0,rectangle,27.02478027,9.659851074,1,0,0,27.02478027,9.659851074,1,0,0,1,65,225,61,1,,,,,,,,
,,,,,,,,,,,,,FF,,,,,,,,0.5014,,,,,,,,,,,,,,,,,,,,,,60fd8576272fbc9918d4677e,61036e9afeab2892fddca0c4,2021-07-29_22h15.08.439,Simcolourproject_2stim_asymm_v5,2020.2.10,MacIntel,60,61025ae37ef11b136ea224fe,,,,,,,,,1566,32.378479,49.08618164,1,0,0,response1disk,,7,13.09698486,-6.337402344,1,0,0,rectangle,13.09698486,-6.337402344,1,0,0,13.09698486,-6.337402344,1,0,0,1,66,226,33,1,,,,,,,,
,,,,,,,,,,,,,FF,,,,,,,,2.0836,,,,,,,,,,,,,,,,,,,,,,60fd8576272fbc9918d4677e,61036e9afeab2892fddca0c4,2021-07-29_22h15.08.439,Simcolourproject_2stim_asymm_v5,2020.2.10,MacIntel,60,61025ae37ef11b136ea224fe,,,,,,,,,788,36.7121582,67.34259033,1,0,0,response1disk,,7,-0.826782227,4.323028564,1,0,0,rectangle,-0.826782227,4.323028564,1,0,0,-0.826782227,4.323028564,1,0,0,1,67,227,81,1,,,,,,,,
,,,,,,,,,,,,,FF,,,,,,,,1.5494,,,,,,,,,,,,,,,,,,,,,,60fd8576272fbc9918d4677e,61036e9afeab2892fddca0c4,2021-07-29_22h15.08.439,Simcolourproject_2stim_asymm_v5,2020.2.10,MacIntel,60,61025ae37ef11b136ea224fe,,,,,,,,,1205,54.63842773,80.95031738,1,0,0,response1disk,,7,10.33898926,7.709838867,1,0,0,rectangle,10.33898926,7.709838867,1,0,0,10.33898926,7.709838867,1,0,0,1,68,228,17,1,,,,,,,,
,,,,,,,,,,,,,FF,,,,,,,,0.5513,,,,,,,,,,,,,,,,,,,,,,60fd8576272fbc9918d4677e,61036e9afeab2892fddca0c4,2021-07-29_22h15.08.439,Simcolourproject_2stim_asymm_v5,2020.2.10,MacIntel,60,61025ae37ef11b136ea224fe,,,,,,,,,3987,18.71746826,48.94723511,1,0,0,response1disk,,7,16.69049072,-2.547241211,1,0,0,rectangle,16.69049072,-2.547241211,1,0,0,16.69049072,-2.547241211,1,0,0,1,69,229,56,1,,,,,,,,
,,,,,,,,,,,,,FF,,,,,,,,0.8657,,,,,,,,,,,,,,,,,,,,,,60fd8576272fbc9918d4677e,61036e9afeab2892fddca0c4,2021-07-29_22h15.08.439,Simcolourproject_2stim_asymm_v5,2020.2.10,MacIntel,60,61025ae37ef11b136ea224fe,,,,,,,,,2244,92.06640625,28.70230103,1,0,0,response1disk,,6,25.96343994,10.11907959,1,0,0,rectangle,25.96343994,10.11907959,1,0,0,25.96343994,10.11907959,1,0,0,1,70,230,96,1,,,,,,,,
,,,,,,,,,,,,,FF,,,,,,,,0.6681,,,,,,,,,,,,,,,,,,,,,,60fd8576272fbc9918d4677e,61036e9afeab2892fddca0c4,2021-07-29_22h15.08.439,Simcolourproject_2stim_asymm_v5,2020.2.10,MacIntel,60,61025ae37ef11b136ea224fe,,,,,,,,,3989,32.01763916,53.49212646,1,0,0,response1disk,,7,14.43804932,3.101409912,1,0,0,rectangle,14.43804932,3.101409912,1,0,0,14.43804932,3.101409912,1,0,0,1,71,231,9,1,,,,,,,,
,,,,,,,,,,,,,FF,,,,,,,,0.5324,,,,,,,,,,,,,,,,,,,,,,60fd8576272fbc9918d4677e,61036e9afeab2892fddca0c4,2021-07-29_22h15.08.439,Simcolourproject_2stim_asymm_v5,2020.2.10,MacIntel,60,61025ae37ef11b136ea224fe,,,,,,,,,2965,37.02276611,58.01644897,1,0,0,response1disk,,7,4.493225098,3.701782227,1,0,0,rectangle,4.493225098,3.701782227,1,0,0,4.493225098,3.701782227,1,0,0,1,72,232,49,1,,,,,,,,
,,,,,,,,,,,,,FF,,,,,,,,0.7822,,,,,,,,,,,,,,,,,,,,,,60fd8576272fbc9918d4677e,61036e9afeab2892fddca0c4,2021-07-29_22h15.08.439,Simcolourproject_2stim_asymm_v5,2020.2.10,MacIntel,60,61025ae37ef11b136ea224fe,,,,,,,,,636,101.2372437,53.88873291,1,0,0,response1disk,,6,21.09411621,10.50494385,1,0,0,rectangle,21.09411621,10.50494385,1,0,0,21.09411621,10.50494385,1,0,0,1,73,233,130,1,,,,,,,,
,,,,,,,,,,,,,FF,,,,,,,,1.0994,,,,,,,,,,,,,,,,,,,,,,60fd8576272fbc9918d4677e,61036e9afeab2892fddca0c4,2021-07-29_22h15.08.439,Simcolourproject_2stim_asymm_v5,2020.2.10,MacIntel,60,61025ae37ef11b136ea224fe,,,,,,,,,2812,27.69500732,40.76226807,1,0,0,response1disk,,7,-2.247802734,-6.887390137,1,0,0,rectangle,53.08343506,37.97790527,1,0,0,4.155883789,-7.067138672,1,0,0,1,74,234,67,1,,response1disk_3,TRUE,6,2,"[148,252,122,8,255,173,99,157,199,112,11,33,146,178,136,298,219,235,171,301]",1.0342,rectangle
,,,,,,,,,,,,,FF,,,,,,,,0.6658,,,,,,,,,,,,,,,,,,,,,,60fd8576272fbc9918d4677e,61036e9afeab2892fddca0c4,2021-07-29_22h15.08.439,Simcolourproject_2stim_asymm_v5,2020.2.10,MacIntel,60,61025ae37ef11b136ea224fe,,,,,,,,,2979,27.94226074,62.35943604,1,0,0,response1disk,,7,14.1105957,-14.7333374,1,0,0,rectangle,14.1105957,-14.7333374,1,0,0,14.1105957,-14.7333374,1,0,0,1,75,235,149,1,,,,,,,,
,,,,,,,,,,,,,FF,,,,,,,,0.5336,,,,,,,,,,,,,,,,,,,,,,60fd8576272fbc9918d4677e,61036e9afeab2892fddca0c4,2021-07-29_22h15.08.439,Simcolourproject_2stim_asymm_v5,2020.2.10,MacIntel,60,61025ae37ef11b136ea224fe,,,,,,,,,2822,37.74786377,66.33227539,1,0,0,response1disk,,7,21.45843506,9.114379883,1,0,0,rectangle,21.45843506,9.114379883,1,0,0,21.45843506,9.114379883,1,0,0,1,76,236,78,1,,,,,,,,
,,,,,,,,,,,,,FF,,,,,,,,0.7176,,,,,,,,,,,,,,,,,,,,,,60fd8576272fbc9918d4677e,61036e9afeab2892fddca0c4,2021-07-29_22h15.08.439,Simcolourproject_2stim_asymm_v5,2020.2.10,MacIntel,60,61025ae37ef11b136ea224fe,,,,,,,,,3863,76.90753174,41.05480957,1,0,0,response1disk,,6,16.80657959,-11.18743896,1,0,0,rectangle,16.80657959,-11.18743896,1,0,0,16.80657959,-11.18743896,1,0,0,1,77,237,16,1,,,,,,,,
,,,,,,,,,,,,,FF,,,,,,,,0.7837,,,,,,,,,,,,,,,,,,,,,,60fd8576272fbc9918d4677e,61036e9afeab2892fddca0c4,2021-07-29_22h15.08.439,Simcolourproject_2stim_asymm_v5,2020.2.10,MacIntel,60,61025ae37ef11b136ea224fe,,,,,,,,,3266,25.90460205,79.41662598,1,0,0,response1disk,,7,19.35968018,-1.481933594,1,0,0,rectangle,19.35968018,-1.481933594,1,0,0,19.35968018,-1.481933594,1,0,0,1,78,238,90,1,,,,,,,,
,,,,,,,,,,,,,FF,,,,,,,,0.5184,,,,,,,,,,,,,,,,,,,,,,60fd8576272fbc9918d4677e,61036e9afeab2892fddca0c4,2021-07-29_22h15.08.439,Simcolourproject_2stim_asymm_v5,2020.2.10,MacIntel,60,61025ae37ef11b136ea224fe,,,,,,,,,2303,65.99353027,36.55645752,1,0,0,response1disk,,6,17.42480469,-1.725372314,1,0,0,rectangle,17.42480469,-1.725372314,1,0,0,17.42480469,-1.725372314,1,0,0,1,79,239,122,1,,,,,,,,
,,,,,,,,,,,,,FF,,,,,,,,0.4497,,,,,,,,,,,,,,,,,,,,,,60fd8576272fbc9918d4677e,61036e9afeab2892fddca0c4,2021-07-29_22h15.08.439,Simcolourproject_2stim_asymm_v5,2020.2.10,MacIntel,60,61025ae37ef11b136ea224fe,,,,,,,,,4229,29.24072266,66.80395508,1,0,0,response1disk,,7,28.95483398,0.069793701,1,0,0,rectangle,28.95483398,0.069793701,1,0,0,28.95483398,0.069793701,1,0,0,1,80,240,65,1,,,,,,,,
,,,,,,,,,,,,,FF,,,,,,,,0.6167,,,,,,,,,,,,,,,,,,,,,,60fd8576272fbc9918d4677e,61036e9afeab2892fddca0c4,2021-07-29_22h15.08.439,Simcolourproject_2stim_asymm_v5,2020.2.10,MacIntel,60,61025ae37ef11b136ea224fe,,,,,,,,,3446,64.40509033,41.73757935,1,0,0,response1disk,,6,18.17462158,5.913238525,1,0,0,rectangle,18.17462158,5.913238525,1,0,0,18.17462158,5.913238525,1,0,0,1,81,241,94,1,,,,,,,,
