key_resp.keys,key_resp.rt,key_resp_14.keys,key_resp_14.rt,key_resp_15.keys,key_resp_15.rt,key_resp_17.keys,key_resp_17.rt,key_resp_9.keys,key_resp_9.rt,key_resp_10.keys,key_resp_10.rt,practice_comparison,Ecc,mouse_5.x,mouse_5.y,mouse_5.leftButton,mouse_5.midButton,mouse_5.rightButton,mouse_5.clicked_name,pracsimilarity,response_time,mouse_10.x,mouse_10.y,mouse_10.leftButton,mouse_10.midButton,mouse_10.rightButton,mouse_10.clicked_name,mouse_7.x,mouse_7.y,mouse_7.leftButton,mouse_7.midButton,mouse_7.rightButton,mouse_6.x,mouse_6.y,mouse_6.leftButton,mouse_6.midButton,mouse_6.rightButton,duringprac.thisRepN,duringprac.thisTrialN,duringprac.thisN,duringprac.thisIndex,duringprac.ran,participant,session,date,expName,psychopyVersion,OS,frameRate,study_id,mouse_7.clicked_name,catchpracsimilarity,catch_response_time,catchnumberprac,catchtrialorderprac,mouse_6.clicked_name,key_resp_22.keys,key_resp_22.rt,realcomparison,mouse.x,mouse.y,mouse.leftButton,mouse.midButton,mouse.rightButton,mouse.clicked_name,Colour2,similarity,mouse_2.x,mouse_2.y,mouse_2.leftButton,mouse_2.midButton,mouse_2.rightButton,mouse_2.clicked_name,mouse_3.x,mouse_3.y,mouse_3.leftButton,mouse_3.midButton,mouse_3.rightButton,mouse_11.x,mouse_11.y,mouse_11.leftButton,mouse_11.midButton,mouse_11.rightButton,trials_2.thisRepN,trials_2.thisTrialN,trials_2.thisN,trials_2.thisIndex,trials_2.ran,Colour1,mouse_3.clicked_name,catchornah,catchsimilarity,catchnumber,catchtrialorder,catchRT,mouse_11.clicked_name
space,5.024,space,18.451,space,88.108,space,21.791,space,8.643,space,6.558,58,PF,-71,-62,1,0,0,response5disk_5,2,5.435,2,9,1,0,0,rectangle_8,2,9,1,0,0,2,9,1,0,0,0,0,0,4,1,60fd674dc072647674dcdc4c,61036d6927a3526af622cff1,2021-07-29_22h10.40.822,Simcolourproject_2stim_asymm_v5,2020.2.10,MacIntel,60,61025ae37ef11b136ea224fe,,,,,,,,,,,,,,,,,,,,,,,,,,,,,,,,,,,,,,,,,,,,,,
,,,,,,,,,,,,15,FF,48,54,1,0,0,response1disk_5,7,9.516,1,8,1,0,0,rectangle_8,-81,-46,1,0,0,-2,3,1,0,0,0,1,1,3,1,60fd674dc072647674dcdc4c,61036d6927a3526af622cff1,2021-07-29_22h10.40.822,Simcolourproject_2stim_asymm_v5,2020.2.10,MacIntel,60,61025ae37ef11b136ea224fe,response5disk_7,2,6.25,2,"[2,5]",rectangle_4,,,,,,,,,,,,,,,,,,,,,,,,,,,,,,,,,,,,,,,,
,,,,,,,,,,,,102,PF,47,104,1,0,0,response1disk_5,7,2.734,5,-1,1,0,0,rectangle_8,5,-1,1,0,0,5,-1,1,0,0,0,2,2,1,1,60fd674dc072647674dcdc4c,61036d6927a3526af622cff1,2021-07-29_22h10.40.822,Simcolourproject_2stim_asymm_v5,2020.2.10,MacIntel,60,61025ae37ef11b136ea224fe,,,,,,,,,,,,,,,,,,,,,,,,,,,,,,,,,,,,,,,,,,,,,,
,,,,,,,,,,,,16,PF,87,89,1,0,0,response1disk_5,7,10.65,-6,2,1,0,0,rectangle_8,-6,2,1,0,0,-6,2,1,0,0,0,3,3,2,1,60fd674dc072647674dcdc4c,61036d6927a3526af622cff1,2021-07-29_22h10.40.822,Simcolourproject_2stim_asymm_v5,2020.2.10,MacIntel,60,61025ae37ef11b136ea224fe,,,,,,,,,,,,,,,,,,,,,,,,,,,,,,,,,,,,,,,,,,,,,,
,,,,,,,,,,,,42,PF,45,95,1,0,0,response1disk_5,7,11.284,5,0,1,0,0,rectangle_8,-89,-37,1,0,0,1,-6,1,0,0,0,4,4,6,1,60fd674dc072647674dcdc4c,61036d6927a3526af622cff1,2021-07-29_22h10.40.822,Simcolourproject_2stim_asymm_v5,2020.2.10,MacIntel,60,61025ae37ef11b136ea224fe,response5disk_7,2,4.483,2,"[2,5]",rectangle_4,,,,,,,,,,,,,,,,,,,,,,,,,,,,,,,,,,,,,,,,
,,,,,,,,,,,,104,FF,50,112,1,0,0,response1disk_5,7,6.284,30,-2,1,0,0,rectangle_8,30,-2,1,0,0,30,-2,1,0,0,0,5,5,5,1,60fd674dc072647674dcdc4c,61036d6927a3526af622cff1,2021-07-29_22h10.40.822,Simcolourproject_2stim_asymm_v5,2020.2.10,MacIntel,60,61025ae37ef11b136ea224fe,,,,,,,,,,,,,,,,,,,,,,,,,,,,,,,,,,,,,,,,,,,,,,
,,,,,,,,,,,,123,FF,-73,-56,1,0,0,response5disk_5,2,1.4,5,8,1,0,0,rectangle_8,5,8,1,0,0,5,8,1,0,0,0,6,6,0,1,60fd674dc072647674dcdc4c,61036d6927a3526af622cff1,2021-07-29_22h10.40.822,Simcolourproject_2stim_asymm_v5,2020.2.10,MacIntel,60,61025ae37ef11b136ea224fe,,,,,,,,,,,,,,,,,,,,,,,,,,,,,,,,,,,,,,,,,,,,,,
,,,,,,,,,,,,,FF,,,,,,,,4.567,,,,,,,,,,,,,,,,,,,,,,60fd674dc072647674dcdc4c,61036d6927a3526af622cff1,2021-07-29_22h10.40.822,Simcolourproject_2stim_asymm_v5,2020.2.10,MacIntel,60,61025ae37ef11b136ea224fe,,,,,,,space,5.468,1109,59,110,1,0,0,response1disk,,7,-8,-13,1,0,0,rectangle,-8,-13,1,0,0,-8,-13,1,0,0,0,0,0,5,1,,,,,,,,
,,,,,,,,,,,,,FF,,,,,,,,2.216,,,,,,,,,,,,,,,,,,,,,,60fd674dc072647674dcdc4c,61036d6927a3526af622cff1,2021-07-29_22h10.40.822,Simcolourproject_2stim_asymm_v5,2020.2.10,MacIntel,60,61025ae37ef11b136ea224fe,,,,,,,,,452,54,85,1,0,0,response1disk,,7,11,-4,1,0,0,rectangle,11,-4,1,0,0,11,-4,1,0,0,0,1,1,52,1,,,,,,,,
,,,,,,,,,,,,,FF,,,,,,,,2.25,,,,,,,,,,,,,,,,,,,,,,60fd674dc072647674dcdc4c,61036d6927a3526af622cff1,2021-07-29_22h10.40.822,Simcolourproject_2stim_asymm_v5,2020.2.10,MacIntel,60,61025ae37ef11b136ea224fe,,,,,,,,,1414,68,-39,1,0,0,response3disk,,5,10,-7,1,0,0,rectangle,10,-7,1,0,0,10,-7,1,0,0,0,2,2,64,1,,,,,,,,
,,,,,,,,,,,,,FF,,,,,,,,5.032,,,,,,,,,,,,,,,,,,,,,,60fd674dc072647674dcdc4c,61036d6927a3526af622cff1,2021-07-29_22h10.40.822,Simcolourproject_2stim_asymm_v5,2020.2.10,MacIntel,60,61025ae37ef11b136ea224fe,,,,,,,,,732,74,70,1,0,0,response1disk,,6,-10,8,1,0,0,rectangle,-10,8,1,0,0,-10,8,1,0,0,0,3,3,25,1,,,,,,,,
,,,,,,,,,,,,,FF,,,,,,,,1.833,,,,,,,,,,,,,,,,,,,,,,60fd674dc072647674dcdc4c,61036d6927a3526af622cff1,2021-07-29_22h10.40.822,Simcolourproject_2stim_asymm_v5,2020.2.10,MacIntel,60,61025ae37ef11b136ea224fe,,,,,,,,,1507,86,42,1,0,0,response1disk,,6,-7,5,1,0,0,rectangle,-7,5,1,0,0,-7,5,1,0,0,0,4,4,128,1,,,,,,,,
,,,,,,,,,,,,,FF,,,,,,,,1.632,,,,,,,,,,,,,,,,,,,,,,60fd674dc072647674dcdc4c,61036d6927a3526af622cff1,2021-07-29_22h10.40.822,Simcolourproject_2stim_asymm_v5,2020.2.10,MacIntel,60,61025ae37ef11b136ea224fe,,,,,,,,,400,63,79,1,0,0,response1disk,,7,13,-10,1,0,0,rectangle,13,-10,1,0,0,13,-10,1,0,0,0,5,5,102,1,,,,,,,,
,,,,,,,,,,,,,FF,,,,,,,,1.4,,,,,,,,,,,,,,,,,,,,,,60fd674dc072647674dcdc4c,61036d6927a3526af622cff1,2021-07-29_22h10.40.822,Simcolourproject_2stim_asymm_v5,2020.2.10,MacIntel,60,61025ae37ef11b136ea224fe,,,,,,,,,3112,108,53,1,0,0,response1disk,,6,18,-6,1,0,0,rectangle,18,-6,1,0,0,18,-6,1,0,0,0,6,6,99,1,,,,,,,,
,,,,,,,,,,,,,FF,,,,,,,,1.05,,,,,,,,,,,,,,,,,,,,,,60fd674dc072647674dcdc4c,61036d6927a3526af622cff1,2021-07-29_22h10.40.822,Simcolourproject_2stim_asymm_v5,2020.2.10,MacIntel,60,61025ae37ef11b136ea224fe,,,,,,,,,2541,-73,-60,1,0,0,response5disk,,2,0,1,1,0,0,rectangle,0,1,1,0,0,0,1,1,0,0,0,7,7,103,1,,,,,,,,
,,,,,,,,,,,,,FF,,,,,,,,1.717,,,,,,,,,,,,,,,,,,,,,,60fd674dc072647674dcdc4c,61036d6927a3526af622cff1,2021-07-29_22h10.40.822,Simcolourproject_2stim_asymm_v5,2020.2.10,MacIntel,60,61025ae37ef11b136ea224fe,,,,,,,,,1196,46,55,1,0,0,response1disk,,7,15,11,1,0,0,rectangle,15,11,1,0,0,15,11,1,0,0,0,8,8,71,1,,,,,,,,
,,,,,,,,,,,,,FF,,,,,,,,1.251,,,,,,,,,,,,,,,,,,,,,,60fd674dc072647674dcdc4c,61036d6927a3526af622cff1,2021-07-29_22h10.40.822,Simcolourproject_2stim_asymm_v5,2020.2.10,MacIntel,60,61025ae37ef11b136ea224fe,,,,,,,,,2539,57,49,1,0,0,response1disk,,6,12,-5,1,0,0,rectangle,12,-5,1,0,0,12,-5,1,0,0,0,9,9,105,1,,,,,,,,
,,,,,,,,,,,,,FF,,,,,,,,0.717,,,,,,,,,,,,,,,,,,,,,,60fd674dc072647674dcdc4c,61036d6927a3526af622cff1,2021-07-29_22h10.40.822,Simcolourproject_2stim_asymm_v5,2020.2.10,MacIntel,60,61025ae37ef11b136ea224fe,,,,,,,,,2719,-87,-68,1,0,0,response5disk,,2,-1,-9,1,0,0,rectangle,-1,-9,1,0,0,-1,-9,1,0,0,0,10,10,113,1,,,,,,,,
,,,,,,,,,,,,,FF,,,,,,,,1.483,,,,,,,,,,,,,,,,,,,,,,60fd674dc072647674dcdc4c,61036d6927a3526af622cff1,2021-07-29_22h10.40.822,Simcolourproject_2stim_asymm_v5,2020.2.10,MacIntel,60,61025ae37ef11b136ea224fe,,,,,,,,,4287,104,33,1,0,0,response1disk,,6,20,-5,1,0,0,rectangle,20,-5,1,0,0,20,-5,1,0,0,0,11,11,53,1,,,,,,,,
,,,,,,,,,,,,,FF,,,,,,,,0.966,,,,,,,,,,,,,,,,,,,,,,60fd674dc072647674dcdc4c,61036d6927a3526af622cff1,2021-07-29_22h10.40.822,Simcolourproject_2stim_asymm_v5,2020.2.10,MacIntel,60,61025ae37ef11b136ea224fe,,,,,,,,,1980,47,103,1,0,0,response1disk,,7,3,0,1,0,0,rectangle,94,51,1,0,0,1,-2,1,0,0,0,12,12,89,1,,response1disk_3,TRUE,6,6,"[72,161,203,95,126,93,322,280,13,38,303,228,186,231,98,34,80,297,225,193]",6.368,rectangle
,,,,,,,,,,,,,FF,,,,,,,,1.531,,,,,,,,,,,,,,,,,,,,,,60fd674dc072647674dcdc4c,61036d6927a3526af622cff1,2021-07-29_22h10.40.822,Simcolourproject_2stim_asymm_v5,2020.2.10,MacIntel,60,61025ae37ef11b136ea224fe,,,,,,,,,1006,91,46,1,0,0,response1disk,,6,30,-1,1,0,0,rectangle,30,-1,1,0,0,30,-1,1,0,0,0,13,13,100,1,,,,,,,,
,,,,,,,,,,,,,FF,,,,,,,,1.016,,,,,,,,,,,,,,,,,,,,,,60fd674dc072647674dcdc4c,61036d6927a3526af622cff1,2021-07-29_22h10.40.822,Simcolourproject_2stim_asymm_v5,2020.2.10,MacIntel,60,61025ae37ef11b136ea224fe,,,,,,,,,398,95,27,1,0,0,response1disk,,6,16,-7,1,0,0,rectangle,16,-7,1,0,0,16,-7,1,0,0,0,14,14,106,1,,,,,,,,
,,,,,,,,,,,,,FF,,,,,,,,1.933,,,,,,,,,,,,,,,,,,,,,,60fd674dc072647674dcdc4c,61036d6927a3526af622cff1,2021-07-29_22h10.40.822,Simcolourproject_2stim_asymm_v5,2020.2.10,MacIntel,60,61025ae37ef11b136ea224fe,,,,,,,,,97,-44,-101,1,0,0,response5disk,,3,4,1,1,0,0,rectangle,4,1,1,0,0,4,1,1,0,0,0,15,15,121,1,,,,,,,,
,,,,,,,,,,,,,FF,,,,,,,,1.512,,,,,,,,,,,,,,,,,,,,,,60fd674dc072647674dcdc4c,61036d6927a3526af622cff1,2021-07-29_22h10.40.822,Simcolourproject_2stim_asymm_v5,2020.2.10,MacIntel,60,61025ae37ef11b136ea224fe,,,,,,,,,2107,90,36,1,0,0,response1disk,,6,10,-3,1,0,0,rectangle,10,-3,1,0,0,10,-3,1,0,0,0,16,16,82,1,,,,,,,,
,,,,,,,,,,,,,FF,,,,,,,,0.901,,,,,,,,,,,,,,,,,,,,,,60fd674dc072647674dcdc4c,61036d6927a3526af622cff1,2021-07-29_22h10.40.822,Simcolourproject_2stim_asymm_v5,2020.2.10,MacIntel,60,61025ae37ef11b136ea224fe,,,,,,,,,3978,93,40,1,0,0,response1disk,,6,-4,-6,1,0,0,rectangle,-4,-6,1,0,0,-4,-6,1,0,0,0,17,17,158,1,,,,,,,,
,,,,,,,,,,,,,FF,,,,,,,,0.7,,,,,,,,,,,,,,,,,,,,,,60fd674dc072647674dcdc4c,61036d6927a3526af622cff1,2021-07-29_22h10.40.822,Simcolourproject_2stim_asymm_v5,2020.2.10,MacIntel,60,61025ae37ef11b136ea224fe,,,,,,,,,4040,47,109,1,0,0,response1disk,,7,7,6,1,0,0,rectangle,7,6,1,0,0,7,6,1,0,0,0,18,18,44,1,,,,,,,,
,,,,,,,,,,,,,FF,,,,,,,,3.317,,,,,,,,,,,,,,,,,,,,,,60fd674dc072647674dcdc4c,61036d6927a3526af622cff1,2021-07-29_22h10.40.822,Simcolourproject_2stim_asymm_v5,2020.2.10,MacIntel,60,61025ae37ef11b136ea224fe,,,,,,,,,3515,91,-47,1,0,0,response3disk,,5,6,-7,1,0,0,rectangle,6,-7,1,0,0,6,-7,1,0,0,0,19,19,37,1,,,,,,,,
,,,,,,,,,,,,,FF,,,,,,,,1.05,,,,,,,,,,,,,,,,,,,,,,60fd674dc072647674dcdc4c,61036d6927a3526af622cff1,2021-07-29_22h10.40.822,Simcolourproject_2stim_asymm_v5,2020.2.10,MacIntel,60,61025ae37ef11b136ea224fe,,,,,,,,,4321,78,54,1,0,0,response1disk,,6,14,1,1,0,0,rectangle,14,1,1,0,0,14,1,1,0,0,0,20,20,74,1,,,,,,,,
,,,,,,,,,,,,,FF,,,,,,,,0.883,,,,,,,,,,,,,,,,,,,,,,60fd674dc072647674dcdc4c,61036d6927a3526af622cff1,2021-07-29_22h10.40.822,Simcolourproject_2stim_asymm_v5,2020.2.10,MacIntel,60,61025ae37ef11b136ea224fe,,,,,,,,,4199,95,53,1,0,0,response1disk,,6,2,10,1,0,0,rectangle,2,10,1,0,0,2,10,1,0,0,0,21,21,30,1,,,,,,,,
,,,,,,,,,,,,,FF,,,,,,,,1.101,,,,,,,,,,,,,,,,,,,,,,60fd674dc072647674dcdc4c,61036d6927a3526af622cff1,2021-07-29_22h10.40.822,Simcolourproject_2stim_asymm_v5,2020.2.10,MacIntel,60,61025ae37ef11b136ea224fe,,,,,,,,,3469,-76,-79,1,0,0,response5disk,,3,20,15,1,0,0,rectangle,20,15,1,0,0,20,15,1,0,0,0,22,22,143,1,,,,,,,,
,,,,,,,,,,,,,FF,,,,,,,,1.434,,,,,,,,,,,,,,,,,,,,,,60fd674dc072647674dcdc4c,61036d6927a3526af622cff1,2021-07-29_22h10.40.822,Simcolourproject_2stim_asymm_v5,2020.2.10,MacIntel,60,61025ae37ef11b136ea224fe,,,,,,,,,804,40,103,1,0,0,response1disk,,7,12,4,1,0,0,rectangle,12,4,1,0,0,12,4,1,0,0,0,23,23,1,1,,,,,,,,
,,,,,,,,,,,,,FF,,,,,,,,0.834,,,,,,,,,,,,,,,,,,,,,,60fd674dc072647674dcdc4c,61036d6927a3526af622cff1,2021-07-29_22h10.40.822,Simcolourproject_2stim_asymm_v5,2020.2.10,MacIntel,60,61025ae37ef11b136ea224fe,,,,,,,,,2397,39,110,1,0,0,response1disk,,7,12,-7,1,0,0,rectangle,12,-7,1,0,0,12,-7,1,0,0,0,24,24,152,1,,,,,,,,
,,,,,,,,,,,,,FF,,,,,,,,0.75,,,,,,,,,,,,,,,,,,,,,,60fd674dc072647674dcdc4c,61036d6927a3526af622cff1,2021-07-29_22h10.40.822,Simcolourproject_2stim_asymm_v5,2020.2.10,MacIntel,60,61025ae37ef11b136ea224fe,,,,,,,,,1836,36,97,1,0,0,response1disk,,7,13,0,1,0,0,rectangle,13,0,1,0,0,13,0,1,0,0,0,25,25,77,1,,,,,,,,
,,,,,,,,,,,,,FF,,,,,,,,0.917,,,,,,,,,,,,,,,,,,,,,,60fd674dc072647674dcdc4c,61036d6927a3526af622cff1,2021-07-29_22h10.40.822,Simcolourproject_2stim_asymm_v5,2020.2.10,MacIntel,60,61025ae37ef11b136ea224fe,,,,,,,,,1826,-70,-93,1,0,0,response5disk,,3,-10,-13,1,0,0,rectangle,-10,-13,1,0,0,-10,-13,1,0,0,0,26,26,138,1,,,,,,,,
,,,,,,,,,,,,,FF,,,,,,,,0.699,,,,,,,,,,,,,,,,,,,,,,60fd674dc072647674dcdc4c,61036d6927a3526af622cff1,2021-07-29_22h10.40.822,Simcolourproject_2stim_asymm_v5,2020.2.10,MacIntel,60,61025ae37ef11b136ea224fe,,,,,,,,,2458,47,110,1,0,0,response1disk,,7,16,2,1,0,0,rectangle,16,2,1,0,0,16,2,1,0,0,0,27,27,0,1,,,,,,,,
,,,,,,,,,,,,,FF,,,,,,,,1.534,,,,,,,,,,,,,,,,,,,,,,60fd674dc072647674dcdc4c,61036d6927a3526af622cff1,2021-07-29_22h10.40.822,Simcolourproject_2stim_asymm_v5,2020.2.10,MacIntel,60,61025ae37ef11b136ea224fe,,,,,,,,,3542,43,114,1,0,0,response1disk,,7,4,7,1,0,0,rectangle,4,7,1,0,0,4,7,1,0,0,0,28,28,63,1,,,,,,,,
,,,,,,,,,,,,,FF,,,,,,,,1.05,,,,,,,,,,,,,,,,,,,,,,60fd674dc072647674dcdc4c,61036d6927a3526af622cff1,2021-07-29_22h10.40.822,Simcolourproject_2stim_asymm_v5,2020.2.10,MacIntel,60,61025ae37ef11b136ea224fe,,,,,,,,,2318,96,64,1,0,0,response1disk,,6,19,16,1,0,0,rectangle,19,16,1,0,0,19,16,1,0,0,0,29,29,62,1,,,,,,,,
,,,,,,,,,,,,,FF,,,,,,,,0.95,,,,,,,,,,,,,,,,,,,,,,60fd674dc072647674dcdc4c,61036d6927a3526af622cff1,2021-07-29_22h10.40.822,Simcolourproject_2stim_asymm_v5,2020.2.10,MacIntel,60,61025ae37ef11b136ea224fe,,,,,,,,,3071,52,32,1,0,0,response1disk,,6,12,8,1,0,0,rectangle,12,8,1,0,0,12,8,1,0,0,0,30,30,72,1,,,,,,,,
,,,,,,,,,,,,,FF,,,,,,,,0.6,,,,,,,,,,,,,,,,,,,,,,60fd674dc072647674dcdc4c,61036d6927a3526af622cff1,2021-07-29_22h10.40.822,Simcolourproject_2stim_asymm_v5,2020.2.10,MacIntel,60,61025ae37ef11b136ea224fe,,,,,,,,,2327,33,83,1,0,0,response1disk,,7,12,0,1,0,0,rectangle,12,0,1,0,0,12,0,1,0,0,0,31,31,98,1,,,,,,,,
,,,,,,,,,,,,,FF,,,,,,,,1.484,,,,,,,,,,,,,,,,,,,,,,60fd674dc072647674dcdc4c,61036d6927a3526af622cff1,2021-07-29_22h10.40.822,Simcolourproject_2stim_asymm_v5,2020.2.10,MacIntel,60,61025ae37ef11b136ea224fe,,,,,,,,,1218,54,86,1,0,0,response1disk,,7,6,-5,1,0,0,rectangle,6,-5,1,0,0,6,-5,1,0,0,0,32,32,67,1,,,,,,,,
,,,,,,,,,,,,,FF,,,,,,,,13.517,,,,,,,,,,,,,,,,,,,,,,60fd674dc072647674dcdc4c,61036d6927a3526af622cff1,2021-07-29_22h10.40.822,Simcolourproject_2stim_asymm_v5,2020.2.10,MacIntel,60,61025ae37ef11b136ea224fe,,,,,,,,,3848,-44,85,1,0,0,response7disk,,0,-19,4,1,0,0,rectangle,-54,-111,1,0,0,10,-4,1,0,0,0,33,33,39,1,,response5disk_3,TRUE,3,3,"[72,161,203,95,126,93,322,280,13,38,303,228,186,231,98,34,80,297,225,193]",3.517,rectangle
,,,,,,,,,,,,,FF,,,,,,,,2.449,,,,,,,,,,,,,,,,,,,,,,60fd674dc072647674dcdc4c,61036d6927a3526af622cff1,2021-07-29_22h10.40.822,Simcolourproject_2stim_asymm_v5,2020.2.10,MacIntel,60,61025ae37ef11b136ea224fe,,,,,,,,,1160,47,92,1,0,0,response1disk,,7,12,1,1,0,0,rectangle,12,1,1,0,0,12,1,1,0,0,0,34,34,93,1,,,,,,,,
,,,,,,,,,,,,,FF,,,,,,,,0.666,,,,,,,,,,,,,,,,,,,,,,60fd674dc072647674dcdc4c,61036d6927a3526af622cff1,2021-07-29_22h10.40.822,Simcolourproject_2stim_asymm_v5,2020.2.10,MacIntel,60,61025ae37ef11b136ea224fe,,,,,,,,,3892,40,96,1,0,0,response1disk,,7,6,-9,1,0,0,rectangle,6,-9,1,0,0,6,-9,1,0,0,0,35,35,4,1,,,,,,,,
,,,,,,,,,,,,,FF,,,,,,,,0.584,,,,,,,,,,,,,,,,,,,,,,60fd674dc072647674dcdc4c,61036d6927a3526af622cff1,2021-07-29_22h10.40.822,Simcolourproject_2stim_asymm_v5,2020.2.10,MacIntel,60,61025ae37ef11b136ea224fe,,,,,,,,,4198,21,70,1,0,0,response1disk,,7,6,-4,1,0,0,rectangle,6,-4,1,0,0,6,-4,1,0,0,0,36,36,133,1,,,,,,,,
,,,,,,,,,,,,,FF,,,,,,,,0.534,,,,,,,,,,,,,,,,,,,,,,60fd674dc072647674dcdc4c,61036d6927a3526af622cff1,2021-07-29_22h10.40.822,Simcolourproject_2stim_asymm_v5,2020.2.10,MacIntel,60,61025ae37ef11b136ea224fe,,,,,,,,,2383,48,97,1,0,0,response1disk,,7,18,7,1,0,0,rectangle,43,-93,1,0,0,5,-1,1,0,0,0,37,37,58,1,,response3disk_3,TRUE,4,4,"[72,161,203,95,126,93,322,280,13,38,303,228,186,231,98,34,80,297,225,193]",2.282,rectangle
,,,,,,,,,,,,,FF,,,,,,,,1.099,,,,,,,,,,,,,,,,,,,,,,60fd674dc072647674dcdc4c,61036d6927a3526af622cff1,2021-07-29_22h10.40.822,Simcolourproject_2stim_asymm_v5,2020.2.10,MacIntel,60,61025ae37ef11b136ea224fe,,,,,,,,,3770,105,38,1,0,0,response1disk,,6,24,-10,1,0,0,rectangle,24,-10,1,0,0,24,-10,1,0,0,0,38,38,123,1,,,,,,,,
,,,,,,,,,,,,,FF,,,,,,,,1.016,,,,,,,,,,,,,,,,,,,,,,60fd674dc072647674dcdc4c,61036d6927a3526af622cff1,2021-07-29_22h10.40.822,Simcolourproject_2stim_asymm_v5,2020.2.10,MacIntel,60,61025ae37ef11b136ea224fe,,,,,,,,,2027,-94,61,1,0,0,response7disk,,1,-20,4,1,0,0,rectangle,-20,4,1,0,0,-20,4,1,0,0,0,39,39,134,1,,,,,,,,
,,,,,,,,,,,,,FF,,,,,,,,0.8,,,,,,,,,,,,,,,,,,,,,,60fd674dc072647674dcdc4c,61036d6927a3526af622cff1,2021-07-29_22h10.40.822,Simcolourproject_2stim_asymm_v5,2020.2.10,MacIntel,60,61025ae37ef11b136ea224fe,,,,,,,,,2693,56,78,1,0,0,response1disk,,7,24,2,1,0,0,rectangle,24,2,1,0,0,24,2,1,0,0,0,40,40,47,1,,,,,,,,
,,,,,,,,,,,,,FF,,,,,,,,1.451,,,,,,,,,,,,,,,,,,,,,,60fd674dc072647674dcdc4c,61036d6927a3526af622cff1,2021-07-29_22h10.40.822,Simcolourproject_2stim_asymm_v5,2020.2.10,MacIntel,60,61025ae37ef11b136ea224fe,,,,,,,,,2227,-92,-45,1,0,0,response5disk,,2,6,4,1,0,0,rectangle,6,4,1,0,0,6,4,1,0,0,0,41,41,148,1,,,,,,,,
,,,,,,,,,,,,,FF,,,,,,,,0.867,,,,,,,,,,,,,,,,,,,,,,60fd674dc072647674dcdc4c,61036d6927a3526af622cff1,2021-07-29_22h10.40.822,Simcolourproject_2stim_asymm_v5,2020.2.10,MacIntel,60,61025ae37ef11b136ea224fe,,,,,,,,,1018,32,101,1,0,0,response1disk,,7,-6,-6,1,0,0,rectangle,-6,-6,1,0,0,-6,-6,1,0,0,0,42,42,139,1,,,,,,,,
,,,,,,,,,,,,,FF,,,,,,,,1.201,,,,,,,,,,,,,,,,,,,,,,60fd674dc072647674dcdc4c,61036d6927a3526af622cff1,2021-07-29_22h10.40.822,Simcolourproject_2stim_asymm_v5,2020.2.10,MacIntel,60,61025ae37ef11b136ea224fe,,,,,,,,,196,-107,58,1,0,0,response7disk,,1,-13,-7,1,0,0,rectangle,-13,-7,1,0,0,-13,-7,1,0,0,0,43,43,104,1,,,,,,,,
,,,,,,,,,,,,,FF,,,,,,,,1.083,,,,,,,,,,,,,,,,,,,,,,60fd674dc072647674dcdc4c,61036d6927a3526af622cff1,2021-07-29_22h10.40.822,Simcolourproject_2stim_asymm_v5,2020.2.10,MacIntel,60,61025ae37ef11b136ea224fe,,,,,,,,,3900,-78,-40,1,0,0,response5disk,,2,7,-17,1,0,0,rectangle,7,-17,1,0,0,7,-17,1,0,0,0,44,44,97,1,,,,,,,,
,,,,,,,,,,,,,FF,,,,,,,,0.583,,,,,,,,,,,,,,,,,,,,,,60fd674dc072647674dcdc4c,61036d6927a3526af622cff1,2021-07-29_22h10.40.822,Simcolourproject_2stim_asymm_v5,2020.2.10,MacIntel,60,61025ae37ef11b136ea224fe,,,,,,,,,2950,46,74,1,0,0,response1disk,,7,22,-6,1,0,0,rectangle,22,-6,1,0,0,22,-6,1,0,0,0,45,45,142,1,,,,,,,,
,,,,,,,,,,,,,FF,,,,,,,,0.532,,,,,,,,,,,,,,,,,,,,,,60fd674dc072647674dcdc4c,61036d6927a3526af622cff1,2021-07-29_22h10.40.822,Simcolourproject_2stim_asymm_v5,2020.2.10,MacIntel,60,61025ae37ef11b136ea224fe,,,,,,,,,1474,38,85,1,0,0,response1disk,,7,28,-6,1,0,0,rectangle,28,-6,1,0,0,28,-6,1,0,0,0,46,46,9,1,,,,,,,,
,,,,,,,,,,,,,FF,,,,,,,,0.567,,,,,,,,,,,,,,,,,,,,,,60fd674dc072647674dcdc4c,61036d6927a3526af622cff1,2021-07-29_22h10.40.822,Simcolourproject_2stim_asymm_v5,2020.2.10,MacIntel,60,61025ae37ef11b136ea224fe,,,,,,,,,3452,43,111,1,0,0,response1disk,,7,18,-1,1,0,0,rectangle,18,-1,1,0,0,18,-1,1,0,0,0,47,47,108,1,,,,,,,,
,,,,,,,,,,,,,FF,,,,,,,,0.584,,,,,,,,,,,,,,,,,,,,,,60fd674dc072647674dcdc4c,61036d6927a3526af622cff1,2021-07-29_22h10.40.822,Simcolourproject_2stim_asymm_v5,2020.2.10,MacIntel,60,61025ae37ef11b136ea224fe,,,,,,,,,1200,34,90,1,0,0,response1disk,,7,28,-1,1,0,0,rectangle,28,-1,1,0,0,28,-1,1,0,0,0,48,48,57,1,,,,,,,,
,,,,,,,,,,,,,FF,,,,,,,,0.599,,,,,,,,,,,,,,,,,,,,,,60fd674dc072647674dcdc4c,61036d6927a3526af622cff1,2021-07-29_22h10.40.822,Simcolourproject_2stim_asymm_v5,2020.2.10,MacIntel,60,61025ae37ef11b136ea224fe,,,,,,,,,1946,42,88,1,0,0,response1disk,,7,26,0,1,0,0,rectangle,26,0,1,0,0,26,0,1,0,0,0,49,49,131,1,,,,,,,,
,,,,,,,,,,,,,FF,,,,,,,,0.549,,,,,,,,,,,,,,,,,,,,,,60fd674dc072647674dcdc4c,61036d6927a3526af622cff1,2021-07-29_22h10.40.822,Simcolourproject_2stim_asymm_v5,2020.2.10,MacIntel,60,61025ae37ef11b136ea224fe,,,,,,,,,2443,36,99,1,0,0,response1disk,,7,21,-1,1,0,0,rectangle,21,-1,1,0,0,21,-1,1,0,0,0,50,50,101,1,,,,,,,,
,,,,,,,,,,,,,FF,,,,,,,,0.734,,,,,,,,,,,,,,,,,,,,,,60fd674dc072647674dcdc4c,61036d6927a3526af622cff1,2021-07-29_22h10.40.822,Simcolourproject_2stim_asymm_v5,2020.2.10,MacIntel,60,61025ae37ef11b136ea224fe,,,,,,,,,3094,86,43,1,0,0,response1disk,,6,25,1,1,0,0,rectangle,25,1,1,0,0,25,1,1,0,0,0,51,51,95,1,,,,,,,,
,,,,,,,,,,,,,FF,,,,,,,,0.783,,,,,,,,,,,,,,,,,,,,,,60fd674dc072647674dcdc4c,61036d6927a3526af622cff1,2021-07-29_22h10.40.822,Simcolourproject_2stim_asymm_v5,2020.2.10,MacIntel,60,61025ae37ef11b136ea224fe,,,,,,,,,867,39,101,1,0,0,response1disk,,7,12,-8,1,0,0,rectangle,12,-8,1,0,0,12,-8,1,0,0,0,52,52,21,1,,,,,,,,
,,,,,,,,,,,,,FF,,,,,,,,0.6,,,,,,,,,,,,,,,,,,,,,,60fd674dc072647674dcdc4c,61036d6927a3526af622cff1,2021-07-29_22h10.40.822,Simcolourproject_2stim_asymm_v5,2020.2.10,MacIntel,60,61025ae37ef11b136ea224fe,,,,,,,,,4188,42,97,1,0,0,response1disk,,7,20,1,1,0,0,rectangle,20,1,1,0,0,20,1,1,0,0,0,53,53,68,1,,,,,,,,
,,,,,,,,,,,,,FF,,,,,,,,0.55,,,,,,,,,,,,,,,,,,,,,,60fd674dc072647674dcdc4c,61036d6927a3526af622cff1,2021-07-29_22h10.40.822,Simcolourproject_2stim_asymm_v5,2020.2.10,MacIntel,60,61025ae37ef11b136ea224fe,,,,,,,,,1000,48,89,1,0,0,response1disk,,7,16,-6,1,0,0,rectangle,16,-6,1,0,0,16,-6,1,0,0,0,54,54,73,1,,,,,,,,
,,,,,,,,,,,,,FF,,,,,,,,0.466,,,,,,,,,,,,,,,,,,,,,,60fd674dc072647674dcdc4c,61036d6927a3526af622cff1,2021-07-29_22h10.40.822,Simcolourproject_2stim_asymm_v5,2020.2.10,MacIntel,60,61025ae37ef11b136ea224fe,,,,,,,,,1944,48,82,1,0,0,response1disk,,7,24,-4,1,0,0,rectangle,24,-4,1,0,0,24,-4,1,0,0,0,55,55,60,1,,,,,,,,
,,,,,,,,,,,,,FF,,,,,,,,0.499,,,,,,,,,,,,,,,,,,,,,,60fd674dc072647674dcdc4c,61036d6927a3526af622cff1,2021-07-29_22h10.40.822,Simcolourproject_2stim_asymm_v5,2020.2.10,MacIntel,60,61025ae37ef11b136ea224fe,,,,,,,,,2783,44,87,1,0,0,response1disk,,7,26,8,1,0,0,rectangle,26,8,1,0,0,26,8,1,0,0,0,56,56,146,1,,,,,,,,
,,,,,,,,,,,,,FF,,,,,,,,0.367,,,,,,,,,,,,,,,,,,,,,,60fd674dc072647674dcdc4c,61036d6927a3526af622cff1,2021-07-29_22h10.40.822,Simcolourproject_2stim_asymm_v5,2020.2.10,MacIntel,60,61025ae37ef11b136ea224fe,,,,,,,,,3633,55,76,1,0,0,response1disk,,7,24,4,1,0,0,rectangle,24,4,1,0,0,24,4,1,0,0,0,57,57,155,1,,,,,,,,
,,,,,,,,,,,,,FF,,,,,,,,1.501,,,,,,,,,,,,,,,,,,,,,,60fd674dc072647674dcdc4c,61036d6927a3526af622cff1,2021-07-29_22h10.40.822,Simcolourproject_2stim_asymm_v5,2020.2.10,MacIntel,60,61025ae37ef11b136ea224fe,,,,,,,,,1614,72,-49,1,0,0,response3disk,,5,19,-5,1,0,0,rectangle,19,-5,1,0,0,19,-5,1,0,0,0,58,58,15,1,,,,,,,,
,,,,,,,,,,,,,FF,,,,,,,,0.634,,,,,,,,,,,,,,,,,,,,,,60fd674dc072647674dcdc4c,61036d6927a3526af622cff1,2021-07-29_22h10.40.822,Simcolourproject_2stim_asymm_v5,2020.2.10,MacIntel,60,61025ae37ef11b136ea224fe,,,,,,,,,2121,39,80,1,0,0,response1disk,,7,16,-14,1,0,0,rectangle,16,-14,1,0,0,16,-14,1,0,0,0,59,59,141,1,,,,,,,,
,,,,,,,,,,,,,FF,,,,,,,,0.549,,,,,,,,,,,,,,,,,,,,,,60fd674dc072647674dcdc4c,61036d6927a3526af622cff1,2021-07-29_22h10.40.822,Simcolourproject_2stim_asymm_v5,2020.2.10,MacIntel,60,61025ae37ef11b136ea224fe,,,,,,,,,2292,-92,80,1,0,0,response7disk,,1,-13,-4,1,0,0,rectangle,-13,-4,1,0,0,-13,-4,1,0,0,0,60,60,12,1,,,,,,,,
,,,,,,,,,,,,,FF,,,,,,,,1.434,,,,,,,,,,,,,,,,,,,,,,60fd674dc072647674dcdc4c,61036d6927a3526af622cff1,2021-07-29_22h10.40.822,Simcolourproject_2stim_asymm_v5,2020.2.10,MacIntel,60,61025ae37ef11b136ea224fe,,,,,,,,,3663,-59,82,1,0,0,response7disk,,0,-11,7,1,0,0,rectangle,-11,7,1,0,0,-11,7,1,0,0,0,61,61,32,1,,,,,,,,
,,,,,,,,,,,,,FF,,,,,,,,0.649,,,,,,,,,,,,,,,,,,,,,,60fd674dc072647674dcdc4c,61036d6927a3526af622cff1,2021-07-29_22h10.40.822,Simcolourproject_2stim_asymm_v5,2020.2.10,MacIntel,60,61025ae37ef11b136ea224fe,,,,,,,,,2193,34,95,1,0,0,response1disk,,7,12,-2,1,0,0,rectangle,12,-2,1,0,0,12,-2,1,0,0,0,62,62,87,1,,,,,,,,
,,,,,,,,,,,,,FF,,,,,,,,0.851,,,,,,,,,,,,,,,,,,,,,,60fd674dc072647674dcdc4c,61036d6927a3526af622cff1,2021-07-29_22h10.40.822,Simcolourproject_2stim_asymm_v5,2020.2.10,MacIntel,60,61025ae37ef11b136ea224fe,,,,,,,,,140,54,116,1,0,0,response1disk,,7,16,2,1,0,0,rectangle,16,2,1,0,0,16,2,1,0,0,0,63,63,130,1,,,,,,,,
,,,,,,,,,,,,,FF,,,,,,,,0.933,,,,,,,,,,,,,,,,,,,,,,60fd674dc072647674dcdc4c,61036d6927a3526af622cff1,2021-07-29_22h10.40.822,Simcolourproject_2stim_asymm_v5,2020.2.10,MacIntel,60,61025ae37ef11b136ea224fe,,,,,,,,,808,-85,-59,1,0,0,response5disk,,2,7,7,1,0,0,rectangle,7,7,1,0,0,7,7,1,0,0,0,64,64,35,1,,,,,,,,
,,,,,,,,,,,,,FF,,,,,,,,1.567,,,,,,,,,,,,,,,,,,,,,,60fd674dc072647674dcdc4c,61036d6927a3526af622cff1,2021-07-29_22h10.40.822,Simcolourproject_2stim_asymm_v5,2020.2.10,MacIntel,60,61025ae37ef11b136ea224fe,,,,,,,,,3494,45,65,1,0,0,response1disk,,7,13,-15,1,0,0,rectangle,13,-15,1,0,0,13,-15,1,0,0,0,65,65,92,1,,,,,,,,
,,,,,,,,,,,,,FF,,,,,,,,0.984,,,,,,,,,,,,,,,,,,,,,,60fd674dc072647674dcdc4c,61036d6927a3526af622cff1,2021-07-29_22h10.40.822,Simcolourproject_2stim_asymm_v5,2020.2.10,MacIntel,60,61025ae37ef11b136ea224fe,,,,,,,,,715,37,71,1,0,0,response1disk,,7,17,1,1,0,0,rectangle,17,1,1,0,0,17,1,1,0,0,0,66,66,151,1,,,,,,,,
,,,,,,,,,,,,,FF,,,,,,,,1.016,,,,,,,,,,,,,,,,,,,,,,60fd674dc072647674dcdc4c,61036d6927a3526af622cff1,2021-07-29_22h10.40.822,Simcolourproject_2stim_asymm_v5,2020.2.10,MacIntel,60,61025ae37ef11b136ea224fe,,,,,,,,,3894,96,-22,1,0,0,response3disk,,5,12,-2,1,0,0,rectangle,12,-2,1,0,0,12,-2,1,0,0,0,67,67,125,1,,,,,,,,
,,,,,,,,,,,,,FF,,,,,,,,0.833,,,,,,,,,,,,,,,,,,,,,,60fd674dc072647674dcdc4c,61036d6927a3526af622cff1,2021-07-29_22h10.40.822,Simcolourproject_2stim_asymm_v5,2020.2.10,MacIntel,60,61025ae37ef11b136ea224fe,,,,,,,,,1314,52,85,1,0,0,response1disk,,7,20,2,1,0,0,rectangle,20,2,1,0,0,20,2,1,0,0,0,68,68,45,1,,,,,,,,
,,,,,,,,,,,,,FF,,,,,,,,0.567,,,,,,,,,,,,,,,,,,,,,,60fd674dc072647674dcdc4c,61036d6927a3526af622cff1,2021-07-29_22h10.40.822,Simcolourproject_2stim_asymm_v5,2020.2.10,MacIntel,60,61025ae37ef11b136ea224fe,,,,,,,,,500,39,98,1,0,0,response1disk,,7,18,1,1,0,0,rectangle,18,1,1,0,0,18,1,1,0,0,0,69,69,27,1,,,,,,,,
,,,,,,,,,,,,,FF,,,,,,,,0.651,,,,,,,,,,,,,,,,,,,,,,60fd674dc072647674dcdc4c,61036d6927a3526af622cff1,2021-07-29_22h10.40.822,Simcolourproject_2stim_asymm_v5,2020.2.10,MacIntel,60,61025ae37ef11b136ea224fe,,,,,,,,,3586,49,67,1,0,0,response1disk,,7,14,-11,1,0,0,rectangle,14,-11,1,0,0,14,-11,1,0,0,0,70,70,18,1,,,,,,,,
,,,,,,,,,,,,,FF,,,,,,,,0.616,,,,,,,,,,,,,,,,,,,,,,60fd674dc072647674dcdc4c,61036d6927a3526af622cff1,2021-07-29_22h10.40.822,Simcolourproject_2stim_asymm_v5,2020.2.10,MacIntel,60,61025ae37ef11b136ea224fe,,,,,,,,,3451,48,94,1,0,0,response1disk,,7,11,14,1,0,0,rectangle,52,-105,1,0,0,3,5,1,0,0,0,71,71,29,1,,response3disk_3,TRUE,4,4,"[72,161,203,95,126,93,322,280,13,38,303,228,186,231,98,34,80,297,225,193]",1.766,rectangle
,,,,,,,,,,,,,FF,,,,,,,,1.967,,,,,,,,,,,,,,,,,,,,,,60fd674dc072647674dcdc4c,61036d6927a3526af622cff1,2021-07-29_22h10.40.822,Simcolourproject_2stim_asymm_v5,2020.2.10,MacIntel,60,61025ae37ef11b136ea224fe,,,,,,,,,1209,45,81,1,0,0,response1disk,,7,11,9,1,0,0,rectangle,11,9,1,0,0,11,9,1,0,0,0,72,72,2,1,,,,,,,,
,,,,,,,,,,,,,FF,,,,,,,,0.833,,,,,,,,,,,,,,,,,,,,,,60fd674dc072647674dcdc4c,61036d6927a3526af622cff1,2021-07-29_22h10.40.822,Simcolourproject_2stim_asymm_v5,2020.2.10,MacIntel,60,61025ae37ef11b136ea224fe,,,,,,,,,299,88,41,1,0,0,response1disk,,6,23,-8,1,0,0,rectangle,23,-8,1,0,0,23,-8,1,0,0,0,73,73,107,1,,,,,,,,
,,,,,,,,,,,,,FF,,,,,,,,1.283,,,,,,,,,,,,,,,,,,,,,,60fd674dc072647674dcdc4c,61036d6927a3526af622cff1,2021-07-29_22h10.40.822,Simcolourproject_2stim_asymm_v5,2020.2.10,MacIntel,60,61025ae37ef11b136ea224fe,,,,,,,,,465,28,-86,1,0,0,response3disk,,4,10,-2,1,0,0,rectangle,10,-2,1,0,0,10,-2,1,0,0,0,74,74,16,1,,,,,,,,
,,,,,,,,,,,,,FF,,,,,,,,0.816,,,,,,,,,,,,,,,,,,,,,,60fd674dc072647674dcdc4c,61036d6927a3526af622cff1,2021-07-29_22h10.40.822,Simcolourproject_2stim_asymm_v5,2020.2.10,MacIntel,60,61025ae37ef11b136ea224fe,,,,,,,,,2345,38,95,1,0,0,response1disk,,7,5,-4,1,0,0,rectangle,5,-4,1,0,0,5,-4,1,0,0,0,75,75,109,1,,,,,,,,
,,,,,,,,,,,,,FF,,,,,,,,0.583,,,,,,,,,,,,,,,,,,,,,,60fd674dc072647674dcdc4c,61036d6927a3526af622cff1,2021-07-29_22h10.40.822,Simcolourproject_2stim_asymm_v5,2020.2.10,MacIntel,60,61025ae37ef11b136ea224fe,,,,,,,,,459,45,105,1,0,0,response1disk,,7,16,3,1,0,0,rectangle,16,3,1,0,0,16,3,1,0,0,0,76,76,81,1,,,,,,,,
,,,,,,,,,,,,,FF,,,,,,,,0.633,,,,,,,,,,,,,,,,,,,,,,60fd674dc072647674dcdc4c,61036d6927a3526af622cff1,2021-07-29_22h10.40.822,Simcolourproject_2stim_asymm_v5,2020.2.10,MacIntel,60,61025ae37ef11b136ea224fe,,,,,,,,,648,45,115,1,0,0,response1disk,,7,17,4,1,0,0,rectangle,17,4,1,0,0,17,4,1,0,0,0,77,77,96,1,,,,,,,,
,,,,,,,,,,,,,FF,,,,,,,,0.949,,,,,,,,,,,,,,,,,,,,,,60fd674dc072647674dcdc4c,61036d6927a3526af622cff1,2021-07-29_22h10.40.822,Simcolourproject_2stim_asymm_v5,2020.2.10,MacIntel,60,61025ae37ef11b136ea224fe,,,,,,,,,2779,-86,-50,1,0,0,response5disk,,2,4,-4,1,0,0,rectangle,4,-4,1,0,0,4,-4,1,0,0,0,78,78,55,1,,,,,,,,
,,,,,,,,,,,,,FF,,,,,,,,0.85,,,,,,,,,,,,,,,,,,,,,,60fd674dc072647674dcdc4c,61036d6927a3526af622cff1,2021-07-29_22h10.40.822,Simcolourproject_2stim_asymm_v5,2020.2.10,MacIntel,60,61025ae37ef11b136ea224fe,,,,,,,,,690,34,88,1,0,0,response1disk,,7,0,-11,1,0,0,rectangle,73,-52,1,0,0,0,-4,1,0,0,0,79,79,22,1,,response3disk_3,TRUE,5,5,"[72,161,203,95,126,93,322,280,13,38,303,228,186,231,98,34,80,297,225,193]",1.966,rectangle
,,,,,,,,,,,,,FF,,,,,,,,1.451,,,,,,,,,,,,,,,,,,,,,,60fd674dc072647674dcdc4c,61036d6927a3526af622cff1,2021-07-29_22h10.40.822,Simcolourproject_2stim_asymm_v5,2020.2.10,MacIntel,60,61025ae37ef11b136ea224fe,,,,,,,,,3628,97,43,1,0,0,response1disk,,6,21,3,1,0,0,rectangle,21,3,1,0,0,21,3,1,0,0,0,80,80,86,1,,,,,,,,
,,,,,,,,,,,,,FF,,,,,,,,0.735,,,,,,,,,,,,,,,,,,,,,,60fd674dc072647674dcdc4c,61036d6927a3526af622cff1,2021-07-29_22h10.40.822,Simcolourproject_2stim_asymm_v5,2020.2.10,MacIntel,60,61025ae37ef11b136ea224fe,,,,,,,,,885,-96,96,1,0,0,response7disk,,0,-8,7,1,0,0,rectangle,-8,7,1,0,0,-8,7,1,0,0,0,81,81,132,1,,,,,,,,
,,,,,,,,,,,,,FF,,,,,,,,1.101,,,,,,,,,,,,,,,,,,,,,,60fd674dc072647674dcdc4c,61036d6927a3526af622cff1,2021-07-29_22h10.40.822,Simcolourproject_2stim_asymm_v5,2020.2.10,MacIntel,60,61025ae37ef11b136ea224fe,,,,,,,,,688,-39,-64,1,0,0,response5disk,,3,31,10,1,0,0,rectangle,31,10,1,0,0,31,10,1,0,0,0,82,82,80,1,,,,,,,,
,,,,,,,,,,,,,FF,,,,,,,,0.633,,,,,,,,,,,,,,,,,,,,,,60fd674dc072647674dcdc4c,61036d6927a3526af622cff1,2021-07-29_22h10.40.822,Simcolourproject_2stim_asymm_v5,2020.2.10,MacIntel,60,61025ae37ef11b136ea224fe,,,,,,,,,1404,55,34,1,0,0,response1disk,,6,15,5,1,0,0,rectangle,15,5,1,0,0,15,5,1,0,0,0,83,83,8,1,,,,,,,,
,,,,,,,,,,,,,FF,,,,,,,,0.665,,,,,,,,,,,,,,,,,,,,,,60fd674dc072647674dcdc4c,61036d6927a3526af622cff1,2021-07-29_22h10.40.822,Simcolourproject_2stim_asymm_v5,2020.2.10,MacIntel,60,61025ae37ef11b136ea224fe,,,,,,,,,521,82,50,1,0,0,response1disk,,6,8,-1,1,0,0,rectangle,8,-1,1,0,0,8,-1,1,0,0,0,84,84,11,1,,,,,,,,
,,,,,,,,,,,,,FF,,,,,,,,0.683,,,,,,,,,,,,,,,,,,,,,,60fd674dc072647674dcdc4c,61036d6927a3526af622cff1,2021-07-29_22h10.40.822,Simcolourproject_2stim_asymm_v5,2020.2.10,MacIntel,60,61025ae37ef11b136ea224fe,,,,,,,,,3176,47,65,1,0,0,response1disk,,7,14,-13,1,0,0,rectangle,14,-13,1,0,0,14,-13,1,0,0,0,85,85,34,1,,,,,,,,
,,,,,,,,,,,,,FF,,,,,,,,0.566,,,,,,,,,,,,,,,,,,,,,,60fd674dc072647674dcdc4c,61036d6927a3526af622cff1,2021-07-29_22h10.40.822,Simcolourproject_2stim_asymm_v5,2020.2.10,MacIntel,60,61025ae37ef11b136ea224fe,,,,,,,,,2061,53,75,1,0,0,response1disk,,7,19,-11,1,0,0,rectangle,19,-11,1,0,0,19,-11,1,0,0,0,86,86,70,1,,,,,,,,
,,,,,,,,,,,,,FF,,,,,,,,0.699,,,,,,,,,,,,,,,,,,,,,,60fd674dc072647674dcdc4c,61036d6927a3526af622cff1,2021-07-29_22h10.40.822,Simcolourproject_2stim_asymm_v5,2020.2.10,MacIntel,60,61025ae37ef11b136ea224fe,,,,,,,,,3552,60,-55,1,0,0,response3disk,,5,6,-11,1,0,0,rectangle,6,-11,1,0,0,6,-11,1,0,0,0,87,87,59,1,,,,,,,,
,,,,,,,,,,,,,FF,,,,,,,,0.918,,,,,,,,,,,,,,,,,,,,,,60fd674dc072647674dcdc4c,61036d6927a3526af622cff1,2021-07-29_22h10.40.822,Simcolourproject_2stim_asymm_v5,2020.2.10,MacIntel,60,61025ae37ef11b136ea224fe,,,,,,,,,2450,35,70,1,0,0,response1disk,,7,7,1,1,0,0,rectangle,7,1,1,0,0,7,1,1,0,0,0,88,88,154,1,,,,,,,,
,,,,,,,,,,,,,FF,,,,,,,,0.851,,,,,,,,,,,,,,,,,,,,,,60fd674dc072647674dcdc4c,61036d6927a3526af622cff1,2021-07-29_22h10.40.822,Simcolourproject_2stim_asymm_v5,2020.2.10,MacIntel,60,61025ae37ef11b136ea224fe,,,,,,,,,562,57,41,1,0,0,response1disk,,6,15,15,1,0,0,rectangle,15,15,1,0,0,15,15,1,0,0,0,89,89,50,1,,,,,,,,
,,,,,,,,,,,,,FF,,,,,,,,0.567,,,,,,,,,,,,,,,,,,,,,,60fd674dc072647674dcdc4c,61036d6927a3526af622cff1,2021-07-29_22h10.40.822,Simcolourproject_2stim_asymm_v5,2020.2.10,MacIntel,60,61025ae37ef11b136ea224fe,,,,,,,,,1073,41,70,1,0,0,response1disk,,7,11,3,1,0,0,rectangle,11,3,1,0,0,11,3,1,0,0,0,90,90,91,1,,,,,,,,
,,,,,,,,,,,,,FF,,,,,,,,2.316,,,,,,,,,,,,,,,,,,,,,,60fd674dc072647674dcdc4c,61036d6927a3526af622cff1,2021-07-29_22h10.40.822,Simcolourproject_2stim_asymm_v5,2020.2.10,MacIntel,60,61025ae37ef11b136ea224fe,,,,,,,,,1971,31,54,1,0,0,response1disk,,7,1,15,1,0,0,rectangle,1,15,1,0,0,1,15,1,0,0,0,91,91,26,1,,,,,,,,
,,,,,,,,,,,,,FF,,,,,,,,0.666,,,,,,,,,,,,,,,,,,,,,,60fd674dc072647674dcdc4c,61036d6927a3526af622cff1,2021-07-29_22h10.40.822,Simcolourproject_2stim_asymm_v5,2020.2.10,MacIntel,60,61025ae37ef11b136ea224fe,,,,,,,,,409,48,74,1,0,0,response1disk,,7,3,-10,1,0,0,rectangle,-47,-102,1,0,0,11,-1,1,0,0,0,92,92,119,1,,response5disk_3,TRUE,3,3,"[72,161,203,95,126,93,322,280,13,38,303,228,186,231,98,34,80,297,225,193]",2.166,rectangle
,,,,,,,,,,,,,FF,,,,,,,,3.133,,,,,,,,,,,,,,,,,,,,,,60fd674dc072647674dcdc4c,61036d6927a3526af622cff1,2021-07-29_22h10.40.822,Simcolourproject_2stim_asymm_v5,2020.2.10,MacIntel,60,61025ae37ef11b136ea224fe,,,,,,,,,2951,46,-66,1,0,0,response3disk,,4,22,-8,1,0,0,rectangle,22,-8,1,0,0,22,-8,1,0,0,0,93,93,122,1,,,,,,,,
,,,,,,,,,,,,,FF,,,,,,,,0.684,,,,,,,,,,,,,,,,,,,,,,60fd674dc072647674dcdc4c,61036d6927a3526af622cff1,2021-07-29_22h10.40.822,Simcolourproject_2stim_asymm_v5,2020.2.10,MacIntel,60,61025ae37ef11b136ea224fe,,,,,,,,,3229,38,73,1,0,0,response1disk,,7,17,-9,1,0,0,rectangle,-37,101,1,0,0,-8,4,1,0,0,0,94,94,117,1,,response7disk_3,TRUE,0,0,"[72,161,203,95,126,93,322,280,13,38,303,228,186,231,98,34,80,297,225,193]",4.083,rectangle
,,,,,,,,,,,,,FF,,,,,,,,4.767,,,,,,,,,,,,,,,,,,,,,,60fd674dc072647674dcdc4c,61036d6927a3526af622cff1,2021-07-29_22h10.40.822,Simcolourproject_2stim_asymm_v5,2020.2.10,MacIntel,60,61025ae37ef11b136ea224fe,,,,,,,,,4079,67,46,1,0,0,response1disk,,6,30,12,1,0,0,rectangle,30,12,1,0,0,30,12,1,0,0,0,95,95,14,1,,,,,,,,
,,,,,,,,,,,,,FF,,,,,,,,0.601,,,,,,,,,,,,,,,,,,,,,,60fd674dc072647674dcdc4c,61036d6927a3526af622cff1,2021-07-29_22h10.40.822,Simcolourproject_2stim_asymm_v5,2020.2.10,MacIntel,60,61025ae37ef11b136ea224fe,,,,,,,,,2970,32,88,1,0,0,response1disk,,7,13,11,1,0,0,rectangle,13,11,1,0,0,13,11,1,0,0,0,96,96,150,1,,,,,,,,
,,,,,,,,,,,,,FF,,,,,,,,0.567,,,,,,,,,,,,,,,,,,,,,,60fd674dc072647674dcdc4c,61036d6927a3526af622cff1,2021-07-29_22h10.40.822,Simcolourproject_2stim_asymm_v5,2020.2.10,MacIntel,60,61025ae37ef11b136ea224fe,,,,,,,,,3873,48,81,1,0,0,response1disk,,7,20,4,1,0,0,rectangle,88,44,1,0,0,19,2,1,0,0,0,97,97,42,1,,response1disk_3,TRUE,6,6,"[72,161,203,95,126,93,322,280,13,38,303,228,186,231,98,34,80,297,225,193]",2.017,rectangle
,,,,,,,,,,,,,FF,,,,,,,,1.067,,,,,,,,,,,,,,,,,,,,,,60fd674dc072647674dcdc4c,61036d6927a3526af622cff1,2021-07-29_22h10.40.822,Simcolourproject_2stim_asymm_v5,2020.2.10,MacIntel,60,61025ae37ef11b136ea224fe,,,,,,,,,3592,-81,-57,1,0,0,response5disk,,2,7,-1,1,0,0,rectangle,7,-1,1,0,0,7,-1,1,0,0,0,98,98,159,1,,,,,,,,
,,,,,,,,,,,,,FF,,,,,,,,0.583,,,,,,,,,,,,,,,,,,,,,,60fd674dc072647674dcdc4c,61036d6927a3526af622cff1,2021-07-29_22h10.40.822,Simcolourproject_2stim_asymm_v5,2020.2.10,MacIntel,60,61025ae37ef11b136ea224fe,,,,,,,,,127,60,99,1,0,0,response1disk,,7,12,6,1,0,0,rectangle,12,6,1,0,0,12,6,1,0,0,0,99,99,116,1,,,,,,,,
,,,,,,,,,,,,,FF,,,,,,,,0.617,,,,,,,,,,,,,,,,,,,,,,60fd674dc072647674dcdc4c,61036d6927a3526af622cff1,2021-07-29_22h10.40.822,Simcolourproject_2stim_asymm_v5,2020.2.10,MacIntel,60,61025ae37ef11b136ea224fe,,,,,,,,,3589,47,83,1,0,0,response1disk,,7,14,-9,1,0,0,rectangle,14,-9,1,0,0,14,-9,1,0,0,0,100,100,90,1,,,,,,,,
,,,,,,,,,,,,,FF,,,,,,,,1.467,,,,,,,,,,,,,,,,,,,,,,60fd674dc072647674dcdc4c,61036d6927a3526af622cff1,2021-07-29_22h10.40.822,Simcolourproject_2stim_asymm_v5,2020.2.10,MacIntel,60,61025ae37ef11b136ea224fe,,,,,,,,,561,84,-27,1,0,0,response3disk,,5,20,-4,1,0,0,rectangle,20,-4,1,0,0,20,-4,1,0,0,0,101,101,111,1,,,,,,,,
,,,,,,,,,,,,,FF,,,,,,,,0.716,,,,,,,,,,,,,,,,,,,,,,60fd674dc072647674dcdc4c,61036d6927a3526af622cff1,2021-07-29_22h10.40.822,Simcolourproject_2stim_asymm_v5,2020.2.10,MacIntel,60,61025ae37ef11b136ea224fe,,,,,,,,,686,51,90,1,0,0,response1disk,,7,17,6,1,0,0,rectangle,17,6,1,0,0,17,6,1,0,0,0,102,102,49,1,,,,,,,,
,,,,,,,,,,,,,FF,,,,,,,,0.633,,,,,,,,,,,,,,,,,,,,,,60fd674dc072647674dcdc4c,61036d6927a3526af622cff1,2021-07-29_22h10.40.822,Simcolourproject_2stim_asymm_v5,2020.2.10,MacIntel,60,61025ae37ef11b136ea224fe,,,,,,,,,2941,-70,56,1,0,0,response7disk,,1,-14,-7,1,0,0,rectangle,-14,-7,1,0,0,-14,-7,1,0,0,0,103,103,24,1,,,,,,,,
,,,,,,,,,,,,,FF,,,,,,,,0.651,,,,,,,,,,,,,,,,,,,,,,60fd674dc072647674dcdc4c,61036d6927a3526af622cff1,2021-07-29_22h10.40.822,Simcolourproject_2stim_asymm_v5,2020.2.10,MacIntel,60,61025ae37ef11b136ea224fe,,,,,,,,,3123,48,97,1,0,0,response1disk,,7,13,5,1,0,0,rectangle,13,5,1,0,0,13,5,1,0,0,0,104,104,83,1,,,,,,,,
,,,,,,,,,,,,,FF,,,,,,,,0.599,,,,,,,,,,,,,,,,,,,,,,60fd674dc072647674dcdc4c,61036d6927a3526af622cff1,2021-07-29_22h10.40.822,Simcolourproject_2stim_asymm_v5,2020.2.10,MacIntel,60,61025ae37ef11b136ea224fe,,,,,,,,,4184,43,94,1,0,0,response1disk,,7,26,10,1,0,0,rectangle,26,10,1,0,0,26,10,1,0,0,0,105,105,10,1,,,,,,,,
,,,,,,,,,,,,,FF,,,,,,,,0.601,,,,,,,,,,,,,,,,,,,,,,60fd674dc072647674dcdc4c,61036d6927a3526af622cff1,2021-07-29_22h10.40.822,Simcolourproject_2stim_asymm_v5,2020.2.10,MacIntel,60,61025ae37ef11b136ea224fe,,,,,,,,,1364,33,70,1,0,0,response1disk,,7,20,-1,1,0,0,rectangle,20,-1,1,0,0,20,-1,1,0,0,0,106,106,156,1,,,,,,,,
,,,,,,,,,,,,,FF,,,,,,,,0.517,,,,,,,,,,,,,,,,,,,,,,60fd674dc072647674dcdc4c,61036d6927a3526af622cff1,2021-07-29_22h10.40.822,Simcolourproject_2stim_asymm_v5,2020.2.10,MacIntel,60,61025ae37ef11b136ea224fe,,,,,,,,,4080,35,72,1,0,0,response1disk,,7,22,-2,1,0,0,rectangle,22,-2,1,0,0,22,-2,1,0,0,0,107,107,112,1,,,,,,,,
,,,,,,,,,,,,,FF,,,,,,,,0.7,,,,,,,,,,,,,,,,,,,,,,60fd674dc072647674dcdc4c,61036d6927a3526af622cff1,2021-07-29_22h10.40.822,Simcolourproject_2stim_asymm_v5,2020.2.10,MacIntel,60,61025ae37ef11b136ea224fe,,,,,,,,,1945,38,96,1,0,0,response1disk,,7,22,2,1,0,0,rectangle,22,2,1,0,0,22,2,1,0,0,0,108,108,33,1,,,,,,,,
,,,,,,,,,,,,,FF,,,,,,,,0.566,,,,,,,,,,,,,,,,,,,,,,60fd674dc072647674dcdc4c,61036d6927a3526af622cff1,2021-07-29_22h10.40.822,Simcolourproject_2stim_asymm_v5,2020.2.10,MacIntel,60,61025ae37ef11b136ea224fe,,,,,,,,,4248,38,75,1,0,0,response1disk,,7,17,0,1,0,0,rectangle,17,0,1,0,0,17,0,1,0,0,0,109,109,127,1,,,,,,,,
,,,,,,,,,,,,,FF,,,,,,,,0.8,,,,,,,,,,,,,,,,,,,,,,60fd674dc072647674dcdc4c,61036d6927a3526af622cff1,2021-07-29_22h10.40.822,Simcolourproject_2stim_asymm_v5,2020.2.10,MacIntel,60,61025ae37ef11b136ea224fe,,,,,,,,,1136,-99,-42,1,0,0,response5disk,,2,-14,-9,1,0,0,rectangle,-14,-9,1,0,0,-14,-9,1,0,0,0,110,110,20,1,,,,,,,,
,,,,,,,,,,,,,FF,,,,,,,,0.566,,,,,,,,,,,,,,,,,,,,,,60fd674dc072647674dcdc4c,61036d6927a3526af622cff1,2021-07-29_22h10.40.822,Simcolourproject_2stim_asymm_v5,2020.2.10,MacIntel,60,61025ae37ef11b136ea224fe,,,,,,,,,2838,34,67,1,0,0,response1disk,,7,7,-15,1,0,0,rectangle,7,-15,1,0,0,7,-15,1,0,0,0,111,111,149,1,,,,,,,,
,,,,,,,,,,,,,FF,,,,,,,,0.633,,,,,,,,,,,,,,,,,,,,,,60fd674dc072647674dcdc4c,61036d6927a3526af622cff1,2021-07-29_22h10.40.822,Simcolourproject_2stim_asymm_v5,2020.2.10,MacIntel,60,61025ae37ef11b136ea224fe,,,,,,,,,3521,20,54,1,0,0,response1disk,,7,1,-13,1,0,0,rectangle,1,-13,1,0,0,1,-13,1,0,0,0,112,112,6,1,,,,,,,,
,,,,,,,,,,,,,FF,,,,,,,,0.468,,,,,,,,,,,,,,,,,,,,,,60fd674dc072647674dcdc4c,61036d6927a3526af622cff1,2021-07-29_22h10.40.822,Simcolourproject_2stim_asymm_v5,2020.2.10,MacIntel,60,61025ae37ef11b136ea224fe,,,,,,,,,2527,60,80,1,0,0,response1disk,,7,15,8,1,0,0,rectangle,15,8,1,0,0,15,8,1,0,0,0,113,113,94,1,,,,,,,,
,,,,,,,,,,,,,FF,,,,,,,,0.783,,,,,,,,,,,,,,,,,,,,,,60fd674dc072647674dcdc4c,61036d6927a3526af622cff1,2021-07-29_22h10.40.822,Simcolourproject_2stim_asymm_v5,2020.2.10,MacIntel,60,61025ae37ef11b136ea224fe,,,,,,,,,2236,-69,-36,1,0,0,response5disk,,2,-10,-8,1,0,0,rectangle,-10,-8,1,0,0,-10,-8,1,0,0,0,114,114,7,1,,,,,,,,
,,,,,,,,,,,,,FF,,,,,,,,0.6,,,,,,,,,,,,,,,,,,,,,,60fd674dc072647674dcdc4c,61036d6927a3526af622cff1,2021-07-29_22h10.40.822,Simcolourproject_2stim_asymm_v5,2020.2.10,MacIntel,60,61025ae37ef11b136ea224fe,,,,,,,,,1502,33,76,1,0,0,response1disk,,7,17,0,1,0,0,rectangle,17,0,1,0,0,17,0,1,0,0,0,115,115,43,1,,,,,,,,
,,,,,,,,,,,,,FF,,,,,,,,1.083,,,,,,,,,,,,,,,,,,,,,,60fd674dc072647674dcdc4c,61036d6927a3526af622cff1,2021-07-29_22h10.40.822,Simcolourproject_2stim_asymm_v5,2020.2.10,MacIntel,60,61025ae37ef11b136ea224fe,,,,,,,,,1229,61,-82,1,0,0,response3disk,,4,-9,-13,1,0,0,rectangle,-9,-13,1,0,0,-9,-13,1,0,0,0,116,116,48,1,,,,,,,,
,,,,,,,,,,,,,FF,,,,,,,,0.918,,,,,,,,,,,,,,,,,,,,,,60fd674dc072647674dcdc4c,61036d6927a3526af622cff1,2021-07-29_22h10.40.822,Simcolourproject_2stim_asymm_v5,2020.2.10,MacIntel,60,61025ae37ef11b136ea224fe,,,,,,,,,1455,46,-44,1,0,0,response3disk,,5,2,-3,1,0,0,rectangle,2,-3,1,0,0,2,-3,1,0,0,0,117,117,51,1,,,,,,,,
,,,,,,,,,,,,,FF,,,,,,,,0.549,,,,,,,,,,,,,,,,,,,,,,60fd674dc072647674dcdc4c,61036d6927a3526af622cff1,2021-07-29_22h10.40.822,Simcolourproject_2stim_asymm_v5,2020.2.10,MacIntel,60,61025ae37ef11b136ea224fe,,,,,,,,,3318,46,87,1,0,0,response1disk,,7,13,2,1,0,0,rectangle,13,2,1,0,0,13,2,1,0,0,0,118,118,76,1,,,,,,,,
,,,,,,,,,,,,,FF,,,,,,,,0.583,,,,,,,,,,,,,,,,,,,,,,60fd674dc072647674dcdc4c,61036d6927a3526af622cff1,2021-07-29_22h10.40.822,Simcolourproject_2stim_asymm_v5,2020.2.10,MacIntel,60,61025ae37ef11b136ea224fe,,,,,,,,,985,37,72,1,0,0,response1disk,,7,16,3,1,0,0,rectangle,16,3,1,0,0,16,3,1,0,0,0,119,119,17,1,,,,,,,,
,,,,,,,,,,,,,FF,,,,,,,,0.516,,,,,,,,,,,,,,,,,,,,,,60fd674dc072647674dcdc4c,61036d6927a3526af622cff1,2021-07-29_22h10.40.822,Simcolourproject_2stim_asymm_v5,2020.2.10,MacIntel,60,61025ae37ef11b136ea224fe,,,,,,,,,3839,39,63,1,0,0,response1disk,,7,19,-14,1,0,0,rectangle,19,-14,1,0,0,19,-14,1,0,0,0,120,120,66,1,,,,,,,,
,,,,,,,,,,,,,FF,,,,,,,,0.451,,,,,,,,,,,,,,,,,,,,,,60fd674dc072647674dcdc4c,61036d6927a3526af622cff1,2021-07-29_22h10.40.822,Simcolourproject_2stim_asymm_v5,2020.2.10,MacIntel,60,61025ae37ef11b136ea224fe,,,,,,,,,3640,32,69,1,0,0,response1disk,,7,19,3,1,0,0,rectangle,19,3,1,0,0,19,3,1,0,0,0,121,121,85,1,,,,,,,,
,,,,,,,,,,,,,FF,,,,,,,,0.649,,,,,,,,,,,,,,,,,,,,,,60fd674dc072647674dcdc4c,61036d6927a3526af622cff1,2021-07-29_22h10.40.822,Simcolourproject_2stim_asymm_v5,2020.2.10,MacIntel,60,61025ae37ef11b136ea224fe,,,,,,,,,1913,38,88,1,0,0,response1disk,,7,21,0,1,0,0,rectangle,21,0,1,0,0,21,0,1,0,0,0,122,122,153,1,,,,,,,,
,,,,,,,,,,,,,FF,,,,,,,,0.918,,,,,,,,,,,,,,,,,,,,,,60fd674dc072647674dcdc4c,61036d6927a3526af622cff1,2021-07-29_22h10.40.822,Simcolourproject_2stim_asymm_v5,2020.2.10,MacIntel,60,61025ae37ef11b136ea224fe,,,,,,,,,1681,-78,-35,1,0,0,response5disk,,2,-14,-11,1,0,0,rectangle,-14,-11,1,0,0,-14,-11,1,0,0,0,123,123,136,1,,,,,,,,
,,,,,,,,,,,,,FF,,,,,,,,0.566,,,,,,,,,,,,,,,,,,,,,,60fd674dc072647674dcdc4c,61036d6927a3526af622cff1,2021-07-29_22h10.40.822,Simcolourproject_2stim_asymm_v5,2020.2.10,MacIntel,60,61025ae37ef11b136ea224fe,,,,,,,,,3134,40,81,1,0,0,response1disk,,7,20,9,1,0,0,rectangle,20,9,1,0,0,20,9,1,0,0,0,124,124,78,1,,,,,,,,
,,,,,,,,,,,,,FF,,,,,,,,0.75,,,,,,,,,,,,,,,,,,,,,,60fd674dc072647674dcdc4c,61036d6927a3526af622cff1,2021-07-29_22h10.40.822,Simcolourproject_2stim_asymm_v5,2020.2.10,MacIntel,60,61025ae37ef11b136ea224fe,,,,,,,,,557,-77,-27,1,0,0,response5disk,,2,-10,8,1,0,0,rectangle,44,59,1,0,0,9,1,1,0,0,0,125,125,28,1,,response1disk_3,TRUE,7,6,"[72,161,203,95,126,93,322,280,13,38,303,228,186,231,98,34,80,297,225,193]",0.7,rectangle
,,,,,,,,,,,,,FF,,,,,,,,6.166,,,,,,,,,,,,,,,,,,,,,,60fd674dc072647674dcdc4c,61036d6927a3526af622cff1,2021-07-29_22h10.40.822,Simcolourproject_2stim_asymm_v5,2020.2.10,MacIntel,60,61025ae37ef11b136ea224fe,,,,,,,,,1111,29,29,1,0,0,response1disk,,7,3,6,1,0,0,rectangle,3,6,1,0,0,3,6,1,0,0,0,126,126,144,1,,,,,,,,
,,,,,,,,,,,,,FF,,,,,,,,0.568,,,,,,,,,,,,,,,,,,,,,,60fd674dc072647674dcdc4c,61036d6927a3526af622cff1,2021-07-29_22h10.40.822,Simcolourproject_2stim_asymm_v5,2020.2.10,MacIntel,60,61025ae37ef11b136ea224fe,,,,,,,,,3509,32,74,1,0,0,response1disk,,7,9,12,1,0,0,rectangle,9,12,1,0,0,9,12,1,0,0,0,127,127,31,1,,,,,,,,
,,,,,,,,,,,,,FF,,,,,,,,0.816,,,,,,,,,,,,,,,,,,,,,,60fd674dc072647674dcdc4c,61036d6927a3526af622cff1,2021-07-29_22h10.40.822,Simcolourproject_2stim_asymm_v5,2020.2.10,MacIntel,60,61025ae37ef11b136ea224fe,,,,,,,,,2942,-47,-49,1,0,0,response5disk,,3,-10,-9,1,0,0,rectangle,-10,-9,1,0,0,-10,-9,1,0,0,0,128,128,135,1,,,,,,,,
,,,,,,,,,,,,,FF,,,,,,,,0.767,,,,,,,,,,,,,,,,,,,,,,60fd674dc072647674dcdc4c,61036d6927a3526af622cff1,2021-07-29_22h10.40.822,Simcolourproject_2stim_asymm_v5,2020.2.10,MacIntel,60,61025ae37ef11b136ea224fe,,,,,,,,,1698,17,59,1,0,0,response1disk,,7,15,7,1,0,0,rectangle,15,7,1,0,0,15,7,1,0,0,0,129,129,13,1,,,,,,,,
,,,,,,,,,,,,,FF,,,,,,,,0.602,,,,,,,,,,,,,,,,,,,,,,60fd674dc072647674dcdc4c,61036d6927a3526af622cff1,2021-07-29_22h10.40.822,Simcolourproject_2stim_asymm_v5,2020.2.10,MacIntel,60,61025ae37ef11b136ea224fe,,,,,,,,,3965,-63,49,1,0,0,response7disk,,1,-20,12,1,0,0,rectangle,-20,12,1,0,0,-20,12,1,0,0,0,130,130,41,1,,,,,,,,
,,,,,,,,,,,,,FF,,,,,,,,0.9,,,,,,,,,,,,,,,,,,,,,,60fd674dc072647674dcdc4c,61036d6927a3526af622cff1,2021-07-29_22h10.40.822,Simcolourproject_2stim_asymm_v5,2020.2.10,MacIntel,60,61025ae37ef11b136ea224fe,,,,,,,,,2493,35,65,1,0,0,response1disk,,7,16,12,1,0,0,rectangle,16,12,1,0,0,16,12,1,0,0,0,131,131,114,1,,,,,,,,
,,,,,,,,,,,,,FF,,,,,,,,0.667,,,,,,,,,,,,,,,,,,,,,,60fd674dc072647674dcdc4c,61036d6927a3526af622cff1,2021-07-29_22h10.40.822,Simcolourproject_2stim_asymm_v5,2020.2.10,MacIntel,60,61025ae37ef11b136ea224fe,,,,,,,,,2743,33,61,1,0,0,response1disk,,7,24,-9,1,0,0,rectangle,24,-9,1,0,0,24,-9,1,0,0,0,132,132,126,1,,,,,,,,
,,,,,,,,,,,,,FF,,,,,,,,0.783,,,,,,,,,,,,,,,,,,,,,,60fd674dc072647674dcdc4c,61036d6927a3526af622cff1,2021-07-29_22h10.40.822,Simcolourproject_2stim_asymm_v5,2020.2.10,MacIntel,60,61025ae37ef11b136ea224fe,,,,,,,,,2773,37,72,1,0,0,response1disk,,7,23,1,1,0,0,rectangle,23,1,1,0,0,23,1,1,0,0,0,133,133,115,1,,,,,,,,
,,,,,,,,,,,,,FF,,,,,,,,1.034,,,,,,,,,,,,,,,,,,,,,,60fd674dc072647674dcdc4c,61036d6927a3526af622cff1,2021-07-29_22h10.40.822,Simcolourproject_2stim_asymm_v5,2020.2.10,MacIntel,60,61025ae37ef11b136ea224fe,,,,,,,,,3846,38,-92,1,0,0,response3disk,,4,13,-2,1,0,0,rectangle,13,-2,1,0,0,13,-2,1,0,0,0,134,134,69,1,,,,,,,,
,,,,,,,,,,,,,FF,,,,,,,,0.582,,,,,,,,,,,,,,,,,,,,,,60fd674dc072647674dcdc4c,61036d6927a3526af622cff1,2021-07-29_22h10.40.822,Simcolourproject_2stim_asymm_v5,2020.2.10,MacIntel,60,61025ae37ef11b136ea224fe,,,,,,,,,449,31,60,1,0,0,response1disk,,7,14,0,1,0,0,rectangle,14,0,1,0,0,14,0,1,0,0,0,135,135,124,1,,,,,,,,
,,,,,,,,,,,,,FF,,,,,,,,0.617,,,,,,,,,,,,,,,,,,,,,,60fd674dc072647674dcdc4c,61036d6927a3526af622cff1,2021-07-29_22h10.40.822,Simcolourproject_2stim_asymm_v5,2020.2.10,MacIntel,60,61025ae37ef11b136ea224fe,,,,,,,,,3490,33,79,1,0,0,response1disk,,7,25,10,1,0,0,rectangle,25,10,1,0,0,25,10,1,0,0,0,136,136,56,1,,,,,,,,
,,,,,,,,,,,,,FF,,,,,,,,0.9,,,,,,,,,,,,,,,,,,,,,,60fd674dc072647674dcdc4c,61036d6927a3526af622cff1,2021-07-29_22h10.40.822,Simcolourproject_2stim_asymm_v5,2020.2.10,MacIntel,60,61025ae37ef11b136ea224fe,,,,,,,,,2101,-75,-47,1,0,0,response5disk,,2,-6,-2,1,0,0,rectangle,-6,-2,1,0,0,-6,-2,1,0,0,0,137,137,129,1,,,,,,,,
,,,,,,,,,,,,,FF,,,,,,,,0.567,,,,,,,,,,,,,,,,,,,,,,60fd674dc072647674dcdc4c,61036d6927a3526af622cff1,2021-07-29_22h10.40.822,Simcolourproject_2stim_asymm_v5,2020.2.10,MacIntel,60,61025ae37ef11b136ea224fe,,,,,,,,,275,40,64,1,0,0,response1disk,,7,7,-12,1,0,0,rectangle,7,-12,1,0,0,7,-12,1,0,0,0,138,138,157,1,,,,,,,,
,,,,,,,,,,,,,FF,,,,,,,,0.784,,,,,,,,,,,,,,,,,,,,,,60fd674dc072647674dcdc4c,61036d6927a3526af622cff1,2021-07-29_22h10.40.822,Simcolourproject_2stim_asymm_v5,2020.2.10,MacIntel,60,61025ae37ef11b136ea224fe,,,,,,,,,48,36,66,1,0,0,response1disk,,7,14,-2,1,0,0,rectangle,14,-2,1,0,0,14,-2,1,0,0,0,139,139,147,1,,,,,,,,
,,,,,,,,,,,,,FF,,,,,,,,0.735,,,,,,,,,,,,,,,,,,,,,,60fd674dc072647674dcdc4c,61036d6927a3526af622cff1,2021-07-29_22h10.40.822,Simcolourproject_2stim_asymm_v5,2020.2.10,MacIntel,60,61025ae37ef11b136ea224fe,,,,,,,,,864,26,75,1,0,0,response1disk,,7,16,-6,1,0,0,rectangle,16,-6,1,0,0,16,-6,1,0,0,0,140,140,84,1,,,,,,,,
,,,,,,,,,,,,,FF,,,,,,,,0.816,,,,,,,,,,,,,,,,,,,,,,60fd674dc072647674dcdc4c,61036d6927a3526af622cff1,2021-07-29_22h10.40.822,Simcolourproject_2stim_asymm_v5,2020.2.10,MacIntel,60,61025ae37ef11b136ea224fe,,,,,,,,,1388,46,37,1,0,0,response1disk,,6,16,-4,1,0,0,rectangle,16,-4,1,0,0,16,-4,1,0,0,0,141,141,3,1,,,,,,,,
,,,,,,,,,,,,,FF,,,,,,,,0.551,,,,,,,,,,,,,,,,,,,,,,60fd674dc072647674dcdc4c,61036d6927a3526af622cff1,2021-07-29_22h10.40.822,Simcolourproject_2stim_asymm_v5,2020.2.10,MacIntel,60,61025ae37ef11b136ea224fe,,,,,,,,,775,41,31,1,0,0,response1disk,,6,13,-11,1,0,0,rectangle,13,-11,1,0,0,13,-11,1,0,0,0,142,142,38,1,,,,,,,,
,,,,,,,,,,,,,FF,,,,,,,,0.7,,,,,,,,,,,,,,,,,,,,,,60fd674dc072647674dcdc4c,61036d6927a3526af622cff1,2021-07-29_22h10.40.822,Simcolourproject_2stim_asymm_v5,2020.2.10,MacIntel,60,61025ae37ef11b136ea224fe,,,,,,,,,1697,37,70,1,0,0,response1disk,,7,9,1,1,0,0,rectangle,9,1,1,0,0,9,1,1,0,0,0,143,143,118,1,,,,,,,,
,,,,,,,,,,,,,FF,,,,,,,,0.733,,,,,,,,,,,,,,,,,,,,,,60fd674dc072647674dcdc4c,61036d6927a3526af622cff1,2021-07-29_22h10.40.822,Simcolourproject_2stim_asymm_v5,2020.2.10,MacIntel,60,61025ae37ef11b136ea224fe,,,,,,,,,1611,-80,-42,1,0,0,response5disk,,2,-17,-15,1,0,0,rectangle,-17,-15,1,0,0,-17,-15,1,0,0,0,144,144,137,1,,,,,,,,
,,,,,,,,,,,,,FF,,,,,,,,0.55,,,,,,,,,,,,,,,,,,,,,,60fd674dc072647674dcdc4c,61036d6927a3526af622cff1,2021-07-29_22h10.40.822,Simcolourproject_2stim_asymm_v5,2020.2.10,MacIntel,60,61025ae37ef11b136ea224fe,,,,,,,,,2192,30,66,1,0,0,response1disk,,7,0,2,1,0,0,rectangle,0,2,1,0,0,0,2,1,0,0,0,145,145,79,1,,,,,,,,
,,,,,,,,,,,,,FF,,,,,,,,0.783,,,,,,,,,,,,,,,,,,,,,,60fd674dc072647674dcdc4c,61036d6927a3526af622cff1,2021-07-29_22h10.40.822,Simcolourproject_2stim_asymm_v5,2020.2.10,MacIntel,60,61025ae37ef11b136ea224fe,,,,,,,,,142,38,57,1,0,0,response1disk,,7,12,-1,1,0,0,rectangle,12,-1,1,0,0,12,-1,1,0,0,0,146,146,88,1,,,,,,,,
,,,,,,,,,,,,,FF,,,,,,,,1.984,,,,,,,,,,,,,,,,,,,,,,60fd674dc072647674dcdc4c,61036d6927a3526af622cff1,2021-07-29_22h10.40.822,Simcolourproject_2stim_asymm_v5,2020.2.10,MacIntel,60,61025ae37ef11b136ea224fe,,,,,,,,,3347,36,72,1,0,0,response1disk,,7,11,-16,1,0,0,rectangle,11,-16,1,0,0,11,-16,1,0,0,0,147,147,140,1,,,,,,,,
,,,,,,,,,,,,,FF,,,,,,,,0.749,,,,,,,,,,,,,,,,,,,,,,60fd674dc072647674dcdc4c,61036d6927a3526af622cff1,2021-07-29_22h10.40.822,Simcolourproject_2stim_asymm_v5,2020.2.10,MacIntel,60,61025ae37ef11b136ea224fe,,,,,,,,,2505,31,76,1,0,0,response1disk,,7,9,-2,1,0,0,rectangle,9,-2,1,0,0,9,-2,1,0,0,0,148,148,120,1,,,,,,,,
,,,,,,,,,,,,,FF,,,,,,,,0.817,,,,,,,,,,,,,,,,,,,,,,60fd674dc072647674dcdc4c,61036d6927a3526af622cff1,2021-07-29_22h10.40.822,Simcolourproject_2stim_asymm_v5,2020.2.10,MacIntel,60,61025ae37ef11b136ea224fe,,,,,,,,,1686,36,-40,1,0,0,response3disk,,4,4,-16,1,0,0,rectangle,4,-16,1,0,0,4,-16,1,0,0,0,149,149,61,1,,,,,,,,
,,,,,,,,,,,,,FF,,,,,,,,0.6,,,,,,,,,,,,,,,,,,,,,,60fd674dc072647674dcdc4c,61036d6927a3526af622cff1,2021-07-29_22h10.40.822,Simcolourproject_2stim_asymm_v5,2020.2.10,MacIntel,60,61025ae37ef11b136ea224fe,,,,,,,,,3475,42,-45,1,0,0,response3disk,,4,14,-10,1,0,0,rectangle,14,-10,1,0,0,14,-10,1,0,0,0,150,150,54,1,,,,,,,,
,,,,,,,,,,,,,FF,,,,,,,,0.65,,,,,,,,,,,,,,,,,,,,,,60fd674dc072647674dcdc4c,61036d6927a3526af622cff1,2021-07-29_22h10.40.822,Simcolourproject_2stim_asymm_v5,2020.2.10,MacIntel,60,61025ae37ef11b136ea224fe,,,,,,,,,3410,32,84,1,0,0,response1disk,,7,16,12,1,0,0,rectangle,16,12,1,0,0,16,12,1,0,0,0,151,151,40,1,,,,,,,,
,,,,,,,,,,,,,FF,,,,,,,,0.833,,,,,,,,,,,,,,,,,,,,,,60fd674dc072647674dcdc4c,61036d6927a3526af622cff1,2021-07-29_22h10.40.822,Simcolourproject_2stim_asymm_v5,2020.2.10,MacIntel,60,61025ae37ef11b136ea224fe,,,,,,,,,3527,37,62,1,0,0,response1disk,,7,18,-9,1,0,0,rectangle,18,-9,1,0,0,18,-9,1,0,0,0,152,152,145,1,,,,,,,,
,,,,,,,,,,,,,FF,,,,,,,,1.3,,,,,,,,,,,,,,,,,,,,,,60fd674dc072647674dcdc4c,61036d6927a3526af622cff1,2021-07-29_22h10.40.822,Simcolourproject_2stim_asymm_v5,2020.2.10,MacIntel,60,61025ae37ef11b136ea224fe,,,,,,,,,4223,17,-62,1,0,0,response3disk,,4,10,-8,1,0,0,rectangle,10,-8,1,0,0,10,-8,1,0,0,0,153,153,23,1,,,,,,,,
,,,,,,,,,,,,,FF,,,,,,,,1.032,,,,,,,,,,,,,,,,,,,,,,60fd674dc072647674dcdc4c,61036d6927a3526af622cff1,2021-07-29_22h10.40.822,Simcolourproject_2stim_asymm_v5,2020.2.10,MacIntel,60,61025ae37ef11b136ea224fe,,,,,,,,,4205,-41,-74,1,0,0,response5disk,,3,0,8,1,0,0,rectangle,0,8,1,0,0,0,8,1,0,0,0,154,154,65,1,,,,,,,,
,,,,,,,,,,,,,FF,,,,,,,,1.351,,,,,,,,,,,,,,,,,,,,,,60fd674dc072647674dcdc4c,61036d6927a3526af622cff1,2021-07-29_22h10.40.822,Simcolourproject_2stim_asymm_v5,2020.2.10,MacIntel,60,61025ae37ef11b136ea224fe,,,,,,,,,3715,30,48,1,0,0,response1disk,,7,7,-5,1,0,0,rectangle,7,-5,1,0,0,7,-5,1,0,0,0,155,155,19,1,,,,,,,,
,,,,,,,,,,,,,FF,,,,,,,,0.65,,,,,,,,,,,,,,,,,,,,,,60fd674dc072647674dcdc4c,61036d6927a3526af622cff1,2021-07-29_22h10.40.822,Simcolourproject_2stim_asymm_v5,2020.2.10,MacIntel,60,61025ae37ef11b136ea224fe,,,,,,,,,1352,36,73,1,0,0,response1disk,,7,23,15,1,0,0,rectangle,23,15,1,0,0,23,15,1,0,0,0,156,156,36,1,,,,,,,,
,,,,,,,,,,,,,FF,,,,,,,,2.301,,,,,,,,,,,,,,,,,,,,,,60fd674dc072647674dcdc4c,61036d6927a3526af622cff1,2021-07-29_22h10.40.822,Simcolourproject_2stim_asymm_v5,2020.2.10,MacIntel,60,61025ae37ef11b136ea224fe,,,,,,,,,2894,-55,-27,1,0,0,response5disk,,2,10,-3,1,0,0,rectangle,10,-3,1,0,0,10,-3,1,0,0,0,157,157,46,1,,,,,,,,
,,,,,,,,,,,,,FF,,,,,,,,0.567,,,,,,,,,,,,,,,,,,,,,,60fd674dc072647674dcdc4c,61036d6927a3526af622cff1,2021-07-29_22h10.40.822,Simcolourproject_2stim_asymm_v5,2020.2.10,MacIntel,60,61025ae37ef11b136ea224fe,,,,,,,,,2803,21,47,1,0,0,response1disk,,7,10,0,1,0,0,rectangle,10,0,1,0,0,10,0,1,0,0,0,158,158,75,1,,,,,,,,
,,,,,,,,,,,,,FF,,,,,,,,1.383,,,,,,,,,,,,,,,,,,,,,,60fd674dc072647674dcdc4c,61036d6927a3526af622cff1,2021-07-29_22h10.40.822,Simcolourproject_2stim_asymm_v5,2020.2.10,MacIntel,60,61025ae37ef11b136ea224fe,,,,,,,,,278,-72,-42,1,0,0,response5disk,,2,1,5,1,0,0,rectangle,1,5,1,0,0,1,5,1,0,0,0,159,159,110,1,,,,,,,,
,,,,,,,,,,,,,FF,,,,,,,,0.599,,,,,,,,,,,,,,,,,,,,,,60fd674dc072647674dcdc4c,61036d6927a3526af622cff1,2021-07-29_22h10.40.822,Simcolourproject_2stim_asymm_v5,2020.2.10,MacIntel,60,61025ae37ef11b136ea224fe,,,,,,,,,1109,27,46,1,0,0,response1disk,,7,12,-6,1,0,0,rectangle,108,42,1,0,0,0,-4,1,0,0,1,0,160,11,1,,response1disk_3,TRUE,6,6,"[72,161,203,95,126,93,322,280,13,38,303,228,186,231,98,34,80,297,225,193]",1.734,rectangle
,,,,,,,,,,,,,FF,,,,,,,,1.666,,,,,,,,,,,,,,,,,,,,,,60fd674dc072647674dcdc4c,61036d6927a3526af622cff1,2021-07-29_22h10.40.822,Simcolourproject_2stim_asymm_v5,2020.2.10,MacIntel,60,61025ae37ef11b136ea224fe,,,,,,,,,452,33,66,1,0,0,response1disk,,7,27,17,1,0,0,rectangle,27,17,1,0,0,27,17,1,0,0,1,1,161,61,1,,,,,,,,
,,,,,,,,,,,,,FF,,,,,,,,0.5,,,,,,,,,,,,,,,,,,,,,,60fd674dc072647674dcdc4c,61036d6927a3526af622cff1,2021-07-29_22h10.40.822,Simcolourproject_2stim_asymm_v5,2020.2.10,MacIntel,60,61025ae37ef11b136ea224fe,,,,,,,,,1414,38,53,1,0,0,response1disk,,7,18,12,1,0,0,rectangle,18,12,1,0,0,18,12,1,0,0,1,2,162,10,1,,,,,,,,
,,,,,,,,,,,,,FF,,,,,,,,0.982,,,,,,,,,,,,,,,,,,,,,,60fd674dc072647674dcdc4c,61036d6927a3526af622cff1,2021-07-29_22h10.40.822,Simcolourproject_2stim_asymm_v5,2020.2.10,MacIntel,60,61025ae37ef11b136ea224fe,,,,,,,,,732,41,68,1,0,0,response1disk,,7,24,11,1,0,0,rectangle,24,11,1,0,0,24,11,1,0,0,1,3,163,69,1,,,,,,,,
,,,,,,,,,,,,,FF,,,,,,,,0.466,,,,,,,,,,,,,,,,,,,,,,60fd674dc072647674dcdc4c,61036d6927a3526af622cff1,2021-07-29_22h10.40.822,Simcolourproject_2stim_asymm_v5,2020.2.10,MacIntel,60,61025ae37ef11b136ea224fe,,,,,,,,,1507,37,59,1,0,0,response1disk,,7,22,-4,1,0,0,rectangle,22,-4,1,0,0,22,-4,1,0,0,1,4,164,144,1,,,,,,,,
,,,,,,,,,,,,,FF,,,,,,,,0.433,,,,,,,,,,,,,,,,,,,,,,60fd674dc072647674dcdc4c,61036d6927a3526af622cff1,2021-07-29_22h10.40.822,Simcolourproject_2stim_asymm_v5,2020.2.10,MacIntel,60,61025ae37ef11b136ea224fe,,,,,,,,,400,43,45,1,0,0,response1disk,,7,17,-3,1,0,0,rectangle,17,-3,1,0,0,17,-3,1,0,0,1,5,165,78,1,,,,,,,,
,,,,,,,,,,,,,FF,,,,,,,,0.467,,,,,,,,,,,,,,,,,,,,,,60fd674dc072647674dcdc4c,61036d6927a3526af622cff1,2021-07-29_22h10.40.822,Simcolourproject_2stim_asymm_v5,2020.2.10,MacIntel,60,61025ae37ef11b136ea224fe,,,,,,,,,3112,40,31,1,0,0,response1disk,,6,3,7,1,0,0,rectangle,3,7,1,0,0,3,7,1,0,0,1,6,166,77,1,,,,,,,,
,,,,,,,,,,,,,FF,,,,,,,,0.684,,,,,,,,,,,,,,,,,,,,,,60fd674dc072647674dcdc4c,61036d6927a3526af622cff1,2021-07-29_22h10.40.822,Simcolourproject_2stim_asymm_v5,2020.2.10,MacIntel,60,61025ae37ef11b136ea224fe,,,,,,,,,2541,-57,57,1,0,0,response7disk,,0,1,-9,1,0,0,rectangle,1,-9,1,0,0,1,-9,1,0,0,1,7,167,41,1,,,,,,,,
,,,,,,,,,,,,,FF,,,,,,,,0.499,,,,,,,,,,,,,,,,,,,,,,60fd674dc072647674dcdc4c,61036d6927a3526af622cff1,2021-07-29_22h10.40.822,Simcolourproject_2stim_asymm_v5,2020.2.10,MacIntel,60,61025ae37ef11b136ea224fe,,,,,,,,,1196,46,60,1,0,0,response1disk,,7,12,5,1,0,0,rectangle,12,5,1,0,0,12,5,1,0,0,1,8,168,32,1,,,,,,,,
,,,,,,,,,,,,,FF,,,,,,,,0.566,,,,,,,,,,,,,,,,,,,,,,60fd674dc072647674dcdc4c,61036d6927a3526af622cff1,2021-07-29_22h10.40.822,Simcolourproject_2stim_asymm_v5,2020.2.10,MacIntel,60,61025ae37ef11b136ea224fe,,,,,,,,,2539,54,76,1,0,0,response1disk,,7,21,13,1,0,0,rectangle,21,13,1,0,0,21,13,1,0,0,1,9,169,27,1,,,,,,,,
,,,,,,,,,,,,,FF,,,,,,,,0.933,,,,,,,,,,,,,,,,,,,,,,60fd674dc072647674dcdc4c,61036d6927a3526af622cff1,2021-07-29_22h10.40.822,Simcolourproject_2stim_asymm_v5,2020.2.10,MacIntel,60,61025ae37ef11b136ea224fe,,,,,,,,,2719,-60,34,1,0,0,response7disk,,1,3,8,1,0,0,rectangle,3,8,1,0,0,3,8,1,0,0,1,10,170,80,1,,,,,,,,
,,,,,,,,,,,,,FF,,,,,,,,1.034,,,,,,,,,,,,,,,,,,,,,,60fd674dc072647674dcdc4c,61036d6927a3526af622cff1,2021-07-29_22h10.40.822,Simcolourproject_2stim_asymm_v5,2020.2.10,MacIntel,60,61025ae37ef11b136ea224fe,,,,,,,,,4287,36,52,1,0,0,response1disk,,7,13,5,1,0,0,rectangle,13,5,1,0,0,13,5,1,0,0,1,11,171,58,1,,,,,,,,
,,,,,,,,,,,,,FF,,,,,,,,2.501,,,,,,,,,,,,,,,,,,,,,,60fd674dc072647674dcdc4c,61036d6927a3526af622cff1,2021-07-29_22h10.40.822,Simcolourproject_2stim_asymm_v5,2020.2.10,MacIntel,60,61025ae37ef11b136ea224fe,,,,,,,,,1980,36,65,1,0,0,response1disk,,7,8,-2,1,0,0,rectangle,8,-2,1,0,0,8,-2,1,0,0,1,12,172,107,1,,,,,,,,
,,,,,,,,,,,,,FF,,,,,,,,1.05,,,,,,,,,,,,,,,,,,,,,,60fd674dc072647674dcdc4c,61036d6927a3526af622cff1,2021-07-29_22h10.40.822,Simcolourproject_2stim_asymm_v5,2020.2.10,MacIntel,60,61025ae37ef11b136ea224fe,,,,,,,,,1006,48,68,1,0,0,response1disk,,7,9,-6,1,0,0,rectangle,9,-6,1,0,0,9,-6,1,0,0,1,13,173,152,1,,,,,,,,
,,,,,,,,,,,,,FF,,,,,,,,0.567,,,,,,,,,,,,,,,,,,,,,,60fd674dc072647674dcdc4c,61036d6927a3526af622cff1,2021-07-29_22h10.40.822,Simcolourproject_2stim_asymm_v5,2020.2.10,MacIntel,60,61025ae37ef11b136ea224fe,,,,,,,,,398,42,49,1,0,0,response1disk,,7,10,6,1,0,0,rectangle,10,6,1,0,0,10,6,1,0,0,1,14,174,119,1,,,,,,,,
,,,,,,,,,,,,,FF,,,,,,,,0.883,,,,,,,,,,,,,,,,,,,,,,60fd674dc072647674dcdc4c,61036d6927a3526af622cff1,2021-07-29_22h10.40.822,Simcolourproject_2stim_asymm_v5,2020.2.10,MacIntel,60,61025ae37ef11b136ea224fe,,,,,,,,,97,-85,-57,1,0,0,response5disk,,2,3,-4,1,0,0,rectangle,3,-4,1,0,0,3,-4,1,0,0,1,15,175,98,1,,,,,,,,
,,,,,,,,,,,,,FF,,,,,,,,1.049,,,,,,,,,,,,,,,,,,,,,,60fd674dc072647674dcdc4c,61036d6927a3526af622cff1,2021-07-29_22h10.40.822,Simcolourproject_2stim_asymm_v5,2020.2.10,MacIntel,60,61025ae37ef11b136ea224fe,,,,,,,,,2107,46,54,1,0,0,response1disk,,7,2,-13,1,0,0,rectangle,2,-13,1,0,0,2,-13,1,0,0,1,16,176,117,1,,,,,,,,
,,,,,,,,,,,,,FF,,,,,,,,0.483,,,,,,,,,,,,,,,,,,,,,,60fd674dc072647674dcdc4c,61036d6927a3526af622cff1,2021-07-29_22h10.40.822,Simcolourproject_2stim_asymm_v5,2020.2.10,MacIntel,60,61025ae37ef11b136ea224fe,,,,,,,,,3978,30,47,1,0,0,response1disk,,7,5,-4,1,0,0,rectangle,5,-4,1,0,0,5,-4,1,0,0,1,17,177,84,1,,,,,,,,
,,,,,,,,,,,,,FF,,,,,,,,0.484,,,,,,,,,,,,,,,,,,,,,,60fd674dc072647674dcdc4c,61036d6927a3526af622cff1,2021-07-29_22h10.40.822,Simcolourproject_2stim_asymm_v5,2020.2.10,MacIntel,60,61025ae37ef11b136ea224fe,,,,,,,,,4040,50,49,1,0,0,response1disk,,6,12,5,1,0,0,rectangle,12,5,1,0,0,12,5,1,0,0,1,18,178,39,1,,,,,,,,
,,,,,,,,,,,,,FF,,,,,,,,0.55,,,,,,,,,,,,,,,,,,,,,,60fd674dc072647674dcdc4c,61036d6927a3526af622cff1,2021-07-29_22h10.40.822,Simcolourproject_2stim_asymm_v5,2020.2.10,MacIntel,60,61025ae37ef11b136ea224fe,,,,,,,,,3515,47,52,1,0,0,response1disk,,7,22,10,1,0,0,rectangle,22,10,1,0,0,22,10,1,0,0,1,19,179,154,1,,,,,,,,
,,,,,,,,,,,,,FF,,,,,,,,0.634,,,,,,,,,,,,,,,,,,,,,,60fd674dc072647674dcdc4c,61036d6927a3526af622cff1,2021-07-29_22h10.40.822,Simcolourproject_2stim_asymm_v5,2020.2.10,MacIntel,60,61025ae37ef11b136ea224fe,,,,,,,,,4321,54,62,1,0,0,response1disk,,7,14,4,1,0,0,rectangle,14,4,1,0,0,14,4,1,0,0,1,20,180,16,1,,,,,,,,
,,,,,,,,,,,,,FF,,,,,,,,0.467,,,,,,,,,,,,,,,,,,,,,,60fd674dc072647674dcdc4c,61036d6927a3526af622cff1,2021-07-29_22h10.40.822,Simcolourproject_2stim_asymm_v5,2020.2.10,MacIntel,60,61025ae37ef11b136ea224fe,,,,,,,,,4199,54,56,1,0,0,response1disk,,7,21,10,1,0,0,rectangle,21,10,1,0,0,21,10,1,0,0,1,21,181,13,1,,,,,,,,
,,,,,,,,,,,,,FF,,,,,,,,1.667,,,,,,,,,,,,,,,,,,,,,,60fd674dc072647674dcdc4c,61036d6927a3526af622cff1,2021-07-29_22h10.40.822,Simcolourproject_2stim_asymm_v5,2020.2.10,MacIntel,60,61025ae37ef11b136ea224fe,,,,,,,,,3469,-72,-55,1,0,0,response5disk,,2,5,3,1,0,0,rectangle,5,3,1,0,0,5,3,1,0,0,1,22,182,149,1,,,,,,,,
,,,,,,,,,,,,,FF,,,,,,,,0.75,,,,,,,,,,,,,,,,,,,,,,60fd674dc072647674dcdc4c,61036d6927a3526af622cff1,2021-07-29_22h10.40.822,Simcolourproject_2stim_asymm_v5,2020.2.10,MacIntel,60,61025ae37ef11b136ea224fe,,,,,,,,,804,-91,-63,1,0,0,response5disk,,2,-9,-2,1,0,0,rectangle,-9,-2,1,0,0,-9,-2,1,0,0,1,23,183,94,1,,,,,,,,
,,,,,,,,,,,,,FF,,,,,,,,1,,,,,,,,,,,,,,,,,,,,,,60fd674dc072647674dcdc4c,61036d6927a3526af622cff1,2021-07-29_22h10.40.822,Simcolourproject_2stim_asymm_v5,2020.2.10,MacIntel,60,61025ae37ef11b136ea224fe,,,,,,,,,2397,57,63,1,0,0,response1disk,,7,3,2,1,0,0,rectangle,3,2,1,0,0,3,2,1,0,0,1,24,184,66,1,,,,,,,,
,,,,,,,,,,,,,FF,,,,,,,,0.55,,,,,,,,,,,,,,,,,,,,,,60fd674dc072647674dcdc4c,61036d6927a3526af622cff1,2021-07-29_22h10.40.822,Simcolourproject_2stim_asymm_v5,2020.2.10,MacIntel,60,61025ae37ef11b136ea224fe,,,,,,,,,1836,43,40,1,0,0,response1disk,,6,11,-5,1,0,0,rectangle,-37,-119,1,0,0,8,5,1,0,0,1,25,185,62,1,,response5disk_3,TRUE,3,3,"[72,161,203,95,126,93,322,280,13,38,303,228,186,231,98,34,80,297,225,193]",2.149,rectangle
,,,,,,,,,,,,,FF,,,,,,,,0.917,,,,,,,,,,,,,,,,,,,,,,60fd674dc072647674dcdc4c,61036d6927a3526af622cff1,2021-07-29_22h10.40.822,Simcolourproject_2stim_asymm_v5,2020.2.10,MacIntel,60,61025ae37ef11b136ea224fe,,,,,,,,,1826,-79,-65,1,0,0,response5disk,,2,-15,-12,1,0,0,rectangle,-15,-12,1,0,0,-15,-12,1,0,0,1,26,186,59,1,,,,,,,,
,,,,,,,,,,,,,FF,,,,,,,,0.65,,,,,,,,,,,,,,,,,,,,,,60fd674dc072647674dcdc4c,61036d6927a3526af622cff1,2021-07-29_22h10.40.822,Simcolourproject_2stim_asymm_v5,2020.2.10,MacIntel,60,61025ae37ef11b136ea224fe,,,,,,,,,2458,60,46,1,0,0,response1disk,,6,7,7,1,0,0,rectangle,7,7,1,0,0,7,7,1,0,0,1,27,187,95,1,,,,,,,,
,,,,,,,,,,,,,FF,,,,,,,,0.449,,,,,,,,,,,,,,,,,,,,,,60fd674dc072647674dcdc4c,61036d6927a3526af622cff1,2021-07-29_22h10.40.822,Simcolourproject_2stim_asymm_v5,2020.2.10,MacIntel,60,61025ae37ef11b136ea224fe,,,,,,,,,3542,43,44,1,0,0,response1disk,,7,14,-5,1,0,0,rectangle,14,-5,1,0,0,14,-5,1,0,0,1,28,188,18,1,,,,,,,,
,,,,,,,,,,,,,FF,,,,,,,,0.501,,,,,,,,,,,,,,,,,,,,,,60fd674dc072647674dcdc4c,61036d6927a3526af622cff1,2021-07-29_22h10.40.822,Simcolourproject_2stim_asymm_v5,2020.2.10,MacIntel,60,61025ae37ef11b136ea224fe,,,,,,,,,2318,40,46,1,0,0,response1disk,,7,19,9,1,0,0,rectangle,19,9,1,0,0,19,9,1,0,0,1,29,189,81,1,,,,,,,,
,,,,,,,,,,,,,FF,,,,,,,,0.449,,,,,,,,,,,,,,,,,,,,,,60fd674dc072647674dcdc4c,61036d6927a3526af622cff1,2021-07-29_22h10.40.822,Simcolourproject_2stim_asymm_v5,2020.2.10,MacIntel,60,61025ae37ef11b136ea224fe,,,,,,,,,3071,41,39,1,0,0,response1disk,,6,16,12,1,0,0,rectangle,16,12,1,0,0,16,12,1,0,0,1,30,190,113,1,,,,,,,,
,,,,,,,,,,,,,FF,,,,,,,,0.567,,,,,,,,,,,,,,,,,,,,,,60fd674dc072647674dcdc4c,61036d6927a3526af622cff1,2021-07-29_22h10.40.822,Simcolourproject_2stim_asymm_v5,2020.2.10,MacIntel,60,61025ae37ef11b136ea224fe,,,,,,,,,2327,47,53,1,0,0,response1disk,,7,18,12,1,0,0,rectangle,18,12,1,0,0,18,12,1,0,0,1,31,191,145,1,,,,,,,,
,,,,,,,,,,,,,FF,,,,,,,,1.049,,,,,,,,,,,,,,,,,,,,,,60fd674dc072647674dcdc4c,61036d6927a3526af622cff1,2021-07-29_22h10.40.822,Simcolourproject_2stim_asymm_v5,2020.2.10,MacIntel,60,61025ae37ef11b136ea224fe,,,,,,,,,1218,-79,-41,1,0,0,response5disk,,2,5,-6,1,0,0,rectangle,-35,95,1,0,0,-7,3,1,0,0,1,32,192,97,1,,response7disk_3,TRUE,0,0,"[72,161,203,95,126,93,322,280,13,38,303,228,186,231,98,34,80,297,225,193]",1.634,rectangle
,,,,,,,,,,,,,FF,,,,,,,,0.968,,,,,,,,,,,,,,,,,,,,,,60fd674dc072647674dcdc4c,61036d6927a3526af622cff1,2021-07-29_22h10.40.822,Simcolourproject_2stim_asymm_v5,2020.2.10,MacIntel,60,61025ae37ef11b136ea224fe,,,,,,,,,3848,44,74,1,0,0,response1disk,,7,22,-6,1,0,0,rectangle,22,-6,1,0,0,22,-6,1,0,0,1,33,193,31,1,,,,,,,,
,,,,,,,,,,,,,FF,,,,,,,,0.6,,,,,,,,,,,,,,,,,,,,,,60fd674dc072647674dcdc4c,61036d6927a3526af622cff1,2021-07-29_22h10.40.822,Simcolourproject_2stim_asymm_v5,2020.2.10,MacIntel,60,61025ae37ef11b136ea224fe,,,,,,,,,1160,47,65,1,0,0,response1disk,,7,14,3,1,0,0,rectangle,14,3,1,0,0,14,3,1,0,0,1,34,194,40,1,,,,,,,,
,,,,,,,,,,,,,FF,,,,,,,,0.599,,,,,,,,,,,,,,,,,,,,,,60fd674dc072647674dcdc4c,61036d6927a3526af622cff1,2021-07-29_22h10.40.822,Simcolourproject_2stim_asymm_v5,2020.2.10,MacIntel,60,61025ae37ef11b136ea224fe,,,,,,,,,3892,48,60,1,0,0,response1disk,,7,28,3,1,0,0,rectangle,28,3,1,0,0,28,3,1,0,0,1,35,195,146,1,,,,,,,,
,,,,,,,,,,,,,FF,,,,,,,,1.55,,,,,,,,,,,,,,,,,,,,,,60fd674dc072647674dcdc4c,61036d6927a3526af622cff1,2021-07-29_22h10.40.822,Simcolourproject_2stim_asymm_v5,2020.2.10,MacIntel,60,61025ae37ef11b136ea224fe,,,,,,,,,4198,43,65,1,0,0,response1disk,,7,6,2,1,0,0,rectangle,6,2,1,0,0,6,2,1,0,0,1,36,196,12,1,,,,,,,,
,,,,,,,,,,,,,FF,,,,,,,,0.7,,,,,,,,,,,,,,,,,,,,,,60fd674dc072647674dcdc4c,61036d6927a3526af622cff1,2021-07-29_22h10.40.822,Simcolourproject_2stim_asymm_v5,2020.2.10,MacIntel,60,61025ae37ef11b136ea224fe,,,,,,,,,2383,32,69,1,0,0,response1disk,,7,17,-8,1,0,0,rectangle,17,-8,1,0,0,17,-8,1,0,0,1,37,197,56,1,,,,,,,,
,,,,,,,,,,,,,FF,,,,,,,,0.634,,,,,,,,,,,,,,,,,,,,,,60fd674dc072647674dcdc4c,61036d6927a3526af622cff1,2021-07-29_22h10.40.822,Simcolourproject_2stim_asymm_v5,2020.2.10,MacIntel,60,61025ae37ef11b136ea224fe,,,,,,,,,3770,34,53,1,0,0,response1disk,,7,19,-12,1,0,0,rectangle,19,-12,1,0,0,19,-12,1,0,0,1,38,198,26,1,,,,,,,,
,,,,,,,,,,,,,FF,,,,,,,,0.916,,,,,,,,,,,,,,,,,,,,,,60fd674dc072647674dcdc4c,61036d6927a3526af622cff1,2021-07-29_22h10.40.822,Simcolourproject_2stim_asymm_v5,2020.2.10,MacIntel,60,61025ae37ef11b136ea224fe,,,,,,,,,2027,-61,-39,1,0,0,response5disk,,2,5,-6,1,0,0,rectangle,5,-6,1,0,0,5,-6,1,0,0,1,39,199,30,1,,,,,,,,
,,,,,,,,,,,,,FF,,,,,,,,0.55,,,,,,,,,,,,,,,,,,,,,,60fd674dc072647674dcdc4c,61036d6927a3526af622cff1,2021-07-29_22h10.40.822,Simcolourproject_2stim_asymm_v5,2020.2.10,MacIntel,60,61025ae37ef11b136ea224fe,,,,,,,,,2693,43,66,1,0,0,response1disk,,7,11,-4,1,0,0,rectangle,11,-4,1,0,0,11,-4,1,0,0,1,40,200,73,1,,,,,,,,
,,,,,,,,,,,,,FF,,,,,,,,1.284,,,,,,,,,,,,,,,,,,,,,,60fd674dc072647674dcdc4c,61036d6927a3526af622cff1,2021-07-29_22h10.40.822,Simcolourproject_2stim_asymm_v5,2020.2.10,MacIntel,60,61025ae37ef11b136ea224fe,,,,,,,,,2227,-74,-39,1,0,0,response5disk,,2,-10,7,1,0,0,rectangle,-10,7,1,0,0,-10,7,1,0,0,1,41,201,8,1,,,,,,,,
,,,,,,,,,,,,,FF,,,,,,,,0.5,,,,,,,,,,,,,,,,,,,,,,60fd674dc072647674dcdc4c,61036d6927a3526af622cff1,2021-07-29_22h10.40.822,Simcolourproject_2stim_asymm_v5,2020.2.10,MacIntel,60,61025ae37ef11b136ea224fe,,,,,,,,,1018,36,49,1,0,0,response1disk,,7,22,-11,1,0,0,rectangle,-33,-68,1,0,0,4,9,1,0,0,1,42,202,64,1,,response5disk_3,TRUE,3,3,"[72,161,203,95,126,93,322,280,13,38,303,228,186,231,98,34,80,297,225,193]",1.734,rectangle
,,,,,,,,,,,,,FF,,,,,,,,0.95,,,,,,,,,,,,,,,,,,,,,,60fd674dc072647674dcdc4c,61036d6927a3526af622cff1,2021-07-29_22h10.40.822,Simcolourproject_2stim_asymm_v5,2020.2.10,MacIntel,60,61025ae37ef11b136ea224fe,,,,,,,,,196,-80,-37,1,0,0,response5disk,,2,-9,4,1,0,0,rectangle,-9,4,1,0,0,-9,4,1,0,0,1,43,203,45,1,,,,,,,,
,,,,,,,,,,,,,FF,,,,,,,,0.934,,,,,,,,,,,,,,,,,,,,,,60fd674dc072647674dcdc4c,61036d6927a3526af622cff1,2021-07-29_22h10.40.822,Simcolourproject_2stim_asymm_v5,2020.2.10,MacIntel,60,61025ae37ef11b136ea224fe,,,,,,,,,3900,38,-60,1,0,0,response3disk,,4,3,5,1,0,0,rectangle,3,5,1,0,0,3,5,1,0,0,1,44,204,109,1,,,,,,,,
,,,,,,,,,,,,,FF,,,,,,,,0.599,,,,,,,,,,,,,,,,,,,,,,60fd674dc072647674dcdc4c,61036d6927a3526af622cff1,2021-07-29_22h10.40.822,Simcolourproject_2stim_asymm_v5,2020.2.10,MacIntel,60,61025ae37ef11b136ea224fe,,,,,,,,,2950,42,67,1,0,0,response1disk,,7,24,-1,1,0,0,rectangle,24,-1,1,0,0,24,-1,1,0,0,1,45,205,108,1,,,,,,,,
,,,,,,,,,,,,,FF,,,,,,,,0.5,,,,,,,,,,,,,,,,,,,,,,60fd674dc072647674dcdc4c,61036d6927a3526af622cff1,2021-07-29_22h10.40.822,Simcolourproject_2stim_asymm_v5,2020.2.10,MacIntel,60,61025ae37ef11b136ea224fe,,,,,,,,,1474,54,67,1,0,0,response1disk,,7,19,4,1,0,0,rectangle,19,4,1,0,0,19,4,1,0,0,1,46,206,141,1,,,,,,,,
,,,,,,,,,,,,,FF,,,,,,,,0.734,,,,,,,,,,,,,,,,,,,,,,60fd674dc072647674dcdc4c,61036d6927a3526af622cff1,2021-07-29_22h10.40.822,Simcolourproject_2stim_asymm_v5,2020.2.10,MacIntel,60,61025ae37ef11b136ea224fe,,,,,,,,,3452,50,71,1,0,0,response1disk,,7,24,9,1,0,0,rectangle,24,9,1,0,0,24,9,1,0,0,1,47,207,111,1,,,,,,,,
,,,,,,,,,,,,,FF,,,,,,,,0.515,,,,,,,,,,,,,,,,,,,,,,60fd674dc072647674dcdc4c,61036d6927a3526af622cff1,2021-07-29_22h10.40.822,Simcolourproject_2stim_asymm_v5,2020.2.10,MacIntel,60,61025ae37ef11b136ea224fe,,,,,,,,,1200,53,68,1,0,0,response1disk,,7,8,3,1,0,0,rectangle,8,3,1,0,0,8,3,1,0,0,1,48,208,139,1,,,,,,,,
,,,,,,,,,,,,,FF,,,,,,,,0.516,,,,,,,,,,,,,,,,,,,,,,60fd674dc072647674dcdc4c,61036d6927a3526af622cff1,2021-07-29_22h10.40.822,Simcolourproject_2stim_asymm_v5,2020.2.10,MacIntel,60,61025ae37ef11b136ea224fe,,,,,,,,,1946,48,58,1,0,0,response1disk,,7,22,7,1,0,0,rectangle,22,7,1,0,0,22,7,1,0,0,1,49,209,99,1,,,,,,,,
,,,,,,,,,,,,,FF,,,,,,,,0.551,,,,,,,,,,,,,,,,,,,,,,60fd674dc072647674dcdc4c,61036d6927a3526af622cff1,2021-07-29_22h10.40.822,Simcolourproject_2stim_asymm_v5,2020.2.10,MacIntel,60,61025ae37ef11b136ea224fe,,,,,,,,,2443,45,44,1,0,0,response1disk,,6,17,-5,1,0,0,rectangle,17,-5,1,0,0,17,-5,1,0,0,1,50,210,126,1,,,,,,,,
,,,,,,,,,,,,,FF,,,,,,,,0.65,,,,,,,,,,,,,,,,,,,,,,60fd674dc072647674dcdc4c,61036d6927a3526af622cff1,2021-07-29_22h10.40.822,Simcolourproject_2stim_asymm_v5,2020.2.10,MacIntel,60,61025ae37ef11b136ea224fe,,,,,,,,,3094,42,48,1,0,0,response1disk,,7,3,3,1,0,0,rectangle,3,3,1,0,0,3,3,1,0,0,1,51,211,127,1,,,,,,,,
,,,,,,,,,,,,,FF,,,,,,,,0.551,,,,,,,,,,,,,,,,,,,,,,60fd674dc072647674dcdc4c,61036d6927a3526af622cff1,2021-07-29_22h10.40.822,Simcolourproject_2stim_asymm_v5,2020.2.10,MacIntel,60,61025ae37ef11b136ea224fe,,,,,,,,,867,49,65,1,0,0,response1disk,,7,16,8,1,0,0,rectangle,16,8,1,0,0,16,8,1,0,0,1,52,212,1,1,,,,,,,,
,,,,,,,,,,,,,FF,,,,,,,,0.517,,,,,,,,,,,,,,,,,,,,,,60fd674dc072647674dcdc4c,61036d6927a3526af622cff1,2021-07-29_22h10.40.822,Simcolourproject_2stim_asymm_v5,2020.2.10,MacIntel,60,61025ae37ef11b136ea224fe,,,,,,,,,4188,55,54,1,0,0,response1disk,,6,22,13,1,0,0,rectangle,22,13,1,0,0,22,13,1,0,0,1,53,213,129,1,,,,,,,,
,,,,,,,,,,,,,FF,,,,,,,,0.584,,,,,,,,,,,,,,,,,,,,,,60fd674dc072647674dcdc4c,61036d6927a3526af622cff1,2021-07-29_22h10.40.822,Simcolourproject_2stim_asymm_v5,2020.2.10,MacIntel,60,61025ae37ef11b136ea224fe,,,,,,,,,1000,53,77,1,0,0,response1disk,,7,9,9,1,0,0,rectangle,9,9,1,0,0,9,9,1,0,0,1,54,214,25,1,,,,,,,,
,,,,,,,,,,,,,FF,,,,,,,,0.667,,,,,,,,,,,,,,,,,,,,,,60fd674dc072647674dcdc4c,61036d6927a3526af622cff1,2021-07-29_22h10.40.822,Simcolourproject_2stim_asymm_v5,2020.2.10,MacIntel,60,61025ae37ef11b136ea224fe,,,,,,,,,1944,49,76,1,0,0,response1disk,,7,3,-12,1,0,0,rectangle,3,-12,1,0,0,3,-12,1,0,0,1,55,215,86,1,,,,,,,,
,,,,,,,,,,,,,FF,,,,,,,,0.783,,,,,,,,,,,,,,,,,,,,,,60fd674dc072647674dcdc4c,61036d6927a3526af622cff1,2021-07-29_22h10.40.822,Simcolourproject_2stim_asymm_v5,2020.2.10,MacIntel,60,61025ae37ef11b136ea224fe,,,,,,,,,2783,-81,-74,1,0,0,response5disk,,2,-6,-7,1,0,0,rectangle,-6,-7,1,0,0,-6,-7,1,0,0,1,56,216,37,1,,,,,,,,
,,,,,,,,,,,,,FF,,,,,,,,0.55,,,,,,,,,,,,,,,,,,,,,,60fd674dc072647674dcdc4c,61036d6927a3526af622cff1,2021-07-29_22h10.40.822,Simcolourproject_2stim_asymm_v5,2020.2.10,MacIntel,60,61025ae37ef11b136ea224fe,,,,,,,,,3633,55,65,1,0,0,response1disk,,7,15,-10,1,0,0,rectangle,15,-10,1,0,0,15,-10,1,0,0,1,57,217,21,1,,,,,,,,
,,,,,,,,,,,,,FF,,,,,,,,1.018,,,,,,,,,,,,,,,,,,,,,,60fd674dc072647674dcdc4c,61036d6927a3526af622cff1,2021-07-29_22h10.40.822,Simcolourproject_2stim_asymm_v5,2020.2.10,MacIntel,60,61025ae37ef11b136ea224fe,,,,,,,,,1614,25,56,1,0,0,response1disk,,7,-2,1,1,0,0,rectangle,-2,1,1,0,0,-2,1,1,0,0,1,58,218,23,1,,,,,,,,
,,,,,,,,,,,,,FF,,,,,,,,0.599,,,,,,,,,,,,,,,,,,,,,,60fd674dc072647674dcdc4c,61036d6927a3526af622cff1,2021-07-29_22h10.40.822,Simcolourproject_2stim_asymm_v5,2020.2.10,MacIntel,60,61025ae37ef11b136ea224fe,,,,,,,,,2121,41,62,1,0,0,response1disk,,7,8,2,1,0,0,rectangle,8,2,1,0,0,8,2,1,0,0,1,59,219,142,1,,,,,,,,
,,,,,,,,,,,,,FF,,,,,,,,0.583,,,,,,,,,,,,,,,,,,,,,,60fd674dc072647674dcdc4c,61036d6927a3526af622cff1,2021-07-29_22h10.40.822,Simcolourproject_2stim_asymm_v5,2020.2.10,MacIntel,60,61025ae37ef11b136ea224fe,,,,,,,,,2292,-73,66,1,0,0,response7disk,,1,-10,9,1,0,0,rectangle,-10,9,1,0,0,-10,9,1,0,0,1,60,220,130,1,,,,,,,,
,,,,,,,,,,,,,FF,,,,,,,,2.899,,,,,,,,,,,,,,,,,,,,,,60fd674dc072647674dcdc4c,61036d6927a3526af622cff1,2021-07-29_22h10.40.822,Simcolourproject_2stim_asymm_v5,2020.2.10,MacIntel,60,61025ae37ef11b136ea224fe,,,,,,,,,3663,68,40,1,0,0,response1disk,,6,11,9,1,0,0,rectangle,11,9,1,0,0,11,9,1,0,0,1,61,221,57,1,,,,,,,,
,,,,,,,,,,,,,FF,,,,,,,,0.95,,,,,,,,,,,,,,,,,,,,,,60fd674dc072647674dcdc4c,61036d6927a3526af622cff1,2021-07-29_22h10.40.822,Simcolourproject_2stim_asymm_v5,2020.2.10,MacIntel,60,61025ae37ef11b136ea224fe,,,,,,,,,2193,34,47,1,0,0,response1disk,,7,6,1,1,0,0,rectangle,6,1,1,0,0,6,1,1,0,0,1,62,222,43,1,,,,,,,,
,,,,,,,,,,,,,FF,,,,,,,,0.851,,,,,,,,,,,,,,,,,,,,,,60fd674dc072647674dcdc4c,61036d6927a3526af622cff1,2021-07-29_22h10.40.822,Simcolourproject_2stim_asymm_v5,2020.2.10,MacIntel,60,61025ae37ef11b136ea224fe,,,,,,,,,140,55,56,1,0,0,response1disk,,7,8,2,1,0,0,rectangle,8,2,1,0,0,8,2,1,0,0,1,63,223,42,1,,,,,,,,
,,,,,,,,,,,,,FF,,,,,,,,0.834,,,,,,,,,,,,,,,,,,,,,,60fd674dc072647674dcdc4c,61036d6927a3526af622cff1,2021-07-29_22h10.40.822,Simcolourproject_2stim_asymm_v5,2020.2.10,MacIntel,60,61025ae37ef11b136ea224fe,,,,,,,,,808,-91,55,1,0,0,response7disk,,1,-12,2,1,0,0,rectangle,78,-40,1,0,0,-6,8,1,0,0,1,64,224,132,1,,response3disk_3,TRUE,5,5,"[72,161,203,95,126,93,322,280,13,38,303,228,186,231,98,34,80,297,225,193]",2.4,rectangle
,,,,,,,,,,,,,FF,,,,,,,,0.766,,,,,,,,,,,,,,,,,,,,,,60fd674dc072647674dcdc4c,61036d6927a3526af622cff1,2021-07-29_22h10.40.822,Simcolourproject_2stim_asymm_v5,2020.2.10,MacIntel,60,61025ae37ef11b136ea224fe,,,,,,,,,3494,50,67,1,0,0,response1disk,,7,22,-3,1,0,0,rectangle,22,-3,1,0,0,22,-3,1,0,0,1,65,225,15,1,,,,,,,,
,,,,,,,,,,,,,FF,,,,,,,,0.583,,,,,,,,,,,,,,,,,,,,,,60fd674dc072647674dcdc4c,61036d6927a3526af622cff1,2021-07-29_22h10.40.822,Simcolourproject_2stim_asymm_v5,2020.2.10,MacIntel,60,61025ae37ef11b136ea224fe,,,,,,,,,715,96,57,1,0,0,response1disk,,6,22,12,1,0,0,rectangle,22,12,1,0,0,22,12,1,0,0,1,66,226,118,1,,,,,,,,
,,,,,,,,,,,,,FF,,,,,,,,0.5,,,,,,,,,,,,,,,,,,,,,,60fd674dc072647674dcdc4c,61036d6927a3526af622cff1,2021-07-29_22h10.40.822,Simcolourproject_2stim_asymm_v5,2020.2.10,MacIntel,60,61025ae37ef11b136ea224fe,,,,,,,,,3894,56,46,1,0,0,response1disk,,6,8,-4,1,0,0,rectangle,95,-44,1,0,0,4,6,1,0,0,1,67,227,4,1,,response3disk_3,TRUE,5,5,"[72,161,203,95,126,93,322,280,13,38,303,228,186,231,98,34,80,297,225,193]",1.95,rectangle
,,,,,,,,,,,,,FF,,,,,,,,1.232,,,,,,,,,,,,,,,,,,,,,,60fd674dc072647674dcdc4c,61036d6927a3526af622cff1,2021-07-29_22h10.40.822,Simcolourproject_2stim_asymm_v5,2020.2.10,MacIntel,60,61025ae37ef11b136ea224fe,,,,,,,,,1314,59,37,1,0,0,response1disk,,6,-3,-3,1,0,0,rectangle,-3,-3,1,0,0,-3,-3,1,0,0,1,68,228,125,1,,,,,,,,
,,,,,,,,,,,,,FF,,,,,,,,0.867,,,,,,,,,,,,,,,,,,,,,,60fd674dc072647674dcdc4c,61036d6927a3526af622cff1,2021-07-29_22h10.40.822,Simcolourproject_2stim_asymm_v5,2020.2.10,MacIntel,60,61025ae37ef11b136ea224fe,,,,,,,,,500,73,55,1,0,0,response1disk,,6,21,12,1,0,0,rectangle,21,12,1,0,0,21,12,1,0,0,1,69,229,47,1,,,,,,,,
,,,,,,,,,,,,,FF,,,,,,,,1.033,,,,,,,,,,,,,,,,,,,,,,60fd674dc072647674dcdc4c,61036d6927a3526af622cff1,2021-07-29_22h10.40.822,Simcolourproject_2stim_asymm_v5,2020.2.10,MacIntel,60,61025ae37ef11b136ea224fe,,,,,,,,,3586,46,88,1,0,0,response1disk,,7,-1,-3,1,0,0,rectangle,-34,-85,1,0,0,10,0,1,0,0,1,70,230,92,1,,response5disk_3,TRUE,3,3,"[72,161,203,95,126,93,322,280,13,38,303,228,186,231,98,34,80,297,225,193]",2.117,rectangle
,,,,,,,,,,,,,FF,,,,,,,,1,,,,,,,,,,,,,,,,,,,,,,60fd674dc072647674dcdc4c,61036d6927a3526af622cff1,2021-07-29_22h10.40.822,Simcolourproject_2stim_asymm_v5,2020.2.10,MacIntel,60,61025ae37ef11b136ea224fe,,,,,,,,,3451,80,37,1,0,0,response1disk,,6,16,-3,1,0,0,rectangle,16,-3,1,0,0,16,-3,1,0,0,1,71,231,121,1,,,,,,,,
,,,,,,,,,,,,,FF,,,,,,,,1.199,,,,,,,,,,,,,,,,,,,,,,60fd674dc072647674dcdc4c,61036d6927a3526af622cff1,2021-07-29_22h10.40.822,Simcolourproject_2stim_asymm_v5,2020.2.10,MacIntel,60,61025ae37ef11b136ea224fe,,,,,,,,,1209,35,105,1,0,0,response1disk,,7,8,-3,1,0,0,rectangle,8,-3,1,0,0,8,-3,1,0,0,1,72,232,136,1,,,,,,,,
,,,,,,,,,,,,,FF,,,,,,,,0.883,,,,,,,,,,,,,,,,,,,,,,60fd674dc072647674dcdc4c,61036d6927a3526af622cff1,2021-07-29_22h10.40.822,Simcolourproject_2stim_asymm_v5,2020.2.10,MacIntel,60,61025ae37ef11b136ea224fe,,,,,,,,,299,43,75,1,0,0,response1disk,,7,10,6,1,0,0,rectangle,10,6,1,0,0,10,6,1,0,0,1,73,233,55,1,,,,,,,,
,,,,,,,,,,,,,FF,,,,,,,,1.4,,,,,,,,,,,,,,,,,,,,,,60fd674dc072647674dcdc4c,61036d6927a3526af622cff1,2021-07-29_22h10.40.822,Simcolourproject_2stim_asymm_v5,2020.2.10,MacIntel,60,61025ae37ef11b136ea224fe,,,,,,,,,465,47,-37,1,0,0,response3disk,,5,15,-5,1,0,0,rectangle,15,-5,1,0,0,15,-5,1,0,0,1,74,234,143,1,,,,,,,,
,,,,,,,,,,,,,FF,,,,,,,,0.815,,,,,,,,,,,,,,,,,,,,,,60fd674dc072647674dcdc4c,61036d6927a3526af622cff1,2021-07-29_22h10.40.822,Simcolourproject_2stim_asymm_v5,2020.2.10,MacIntel,60,61025ae37ef11b136ea224fe,,,,,,,,,2345,52,83,1,0,0,response1disk,,7,9,0,1,0,0,rectangle,9,0,1,0,0,9,0,1,0,0,1,75,235,124,1,,,,,,,,
,,,,,,,,,,,,,FF,,,,,,,,2.018,,,,,,,,,,,,,,,,,,,,,,60fd674dc072647674dcdc4c,61036d6927a3526af622cff1,2021-07-29_22h10.40.822,Simcolourproject_2stim_asymm_v5,2020.2.10,MacIntel,60,61025ae37ef11b136ea224fe,,,,,,,,,459,45,24,1,0,0,response1disk,,6,3,0,1,0,0,rectangle,3,0,1,0,0,3,0,1,0,0,1,76,236,90,1,,,,,,,,
,,,,,,,,,,,,,FF,,,,,,,,0.717,,,,,,,,,,,,,,,,,,,,,,60fd674dc072647674dcdc4c,61036d6927a3526af622cff1,2021-07-29_22h10.40.822,Simcolourproject_2stim_asymm_v5,2020.2.10,MacIntel,60,61025ae37ef11b136ea224fe,,,,,,,,,648,36,72,1,0,0,response1disk,,7,0,-9,1,0,0,rectangle,0,-9,1,0,0,0,-9,1,0,0,1,77,237,128,1,,,,,,,,
,,,,,,,,,,,,,FF,,,,,,,,0.783,,,,,,,,,,,,,,,,,,,,,,60fd674dc072647674dcdc4c,61036d6927a3526af622cff1,2021-07-29_22h10.40.822,Simcolourproject_2stim_asymm_v5,2020.2.10,MacIntel,60,61025ae37ef11b136ea224fe,,,,,,,,,2779,-54,-97,1,0,0,response5disk,,3,-2,1,1,0,0,rectangle,-2,1,1,0,0,-2,1,1,0,0,1,78,238,106,1,,,,,,,,
,,,,,,,,,,,,,FF,,,,,,,,0.683,,,,,,,,,,,,,,,,,,,,,,60fd674dc072647674dcdc4c,61036d6927a3526af622cff1,2021-07-29_22h10.40.822,Simcolourproject_2stim_asymm_v5,2020.2.10,MacIntel,60,61025ae37ef11b136ea224fe,,,,,,,,,690,50,64,1,0,0,response1disk,,7,1,-8,1,0,0,rectangle,1,-8,1,0,0,1,-8,1,0,0,1,79,239,151,1,,,,,,,,
,,,,,,,,,,,,,FF,,,,,,,,0.768,,,,,,,,,,,,,,,,,,,,,,60fd674dc072647674dcdc4c,61036d6927a3526af622cff1,2021-07-29_22h10.40.822,Simcolourproject_2stim_asymm_v5,2020.2.10,MacIntel,60,61025ae37ef11b136ea224fe,,,,,,,,,3628,33,68,1,0,0,response1disk,,7,10,-8,1,0,0,rectangle,10,-8,1,0,0,10,-8,1,0,0,1,80,240,159,1,,,,,,,,
,,,,,,,,,,,,,FF,,,,,,,,0.566,,,,,,,,,,,,,,,,,,,,,,60fd674dc072647674dcdc4c,61036d6927a3526af622cff1,2021-07-29_22h10.40.822,Simcolourproject_2stim_asymm_v5,2020.2.10,MacIntel,60,61025ae37ef11b136ea224fe,,,,,,,,,885,-70,61,1,0,0,response7disk,,1,-10,2,1,0,0,rectangle,-10,2,1,0,0,-10,2,1,0,0,1,81,241,96,1,,,,,,,,
,,,,,,,,,,,,,FF,,,,,,,,0.565,,,,,,,,,,,,,,,,,,,,,,60fd674dc072647674dcdc4c,61036d6927a3526af622cff1,2021-07-29_22h10.40.822,Simcolourproject_2stim_asymm_v5,2020.2.10,MacIntel,60,61025ae37ef11b136ea224fe,,,,,,,,,688,42,75,1,0,0,response1disk,,7,13,7,1,0,0,rectangle,13,7,1,0,0,13,7,1,0,0,1,82,242,33,1,,,,,,,,
,,,,,,,,,,,,,FF,,,,,,,,0.616,,,,,,,,,,,,,,,,,,,,,,60fd674dc072647674dcdc4c,61036d6927a3526af622cff1,2021-07-29_22h10.40.822,Simcolourproject_2stim_asymm_v5,2020.2.10,MacIntel,60,61025ae37ef11b136ea224fe,,,,,,,,,1404,51,60,1,0,0,response1disk,,7,17,6,1,0,0,rectangle,17,6,1,0,0,17,6,1,0,0,1,83,243,0,1,,,,,,,,
,,,,,,,,,,,,,FF,,,,,,,,0.451,,,,,,,,,,,,,,,,,,,,,,60fd674dc072647674dcdc4c,61036d6927a3526af622cff1,2021-07-29_22h10.40.822,Simcolourproject_2stim_asymm_v5,2020.2.10,MacIntel,60,61025ae37ef11b136ea224fe,,,,,,,,,521,29,63,1,0,0,response1disk,,7,19,2,1,0,0,rectangle,19,2,1,0,0,19,2,1,0,0,1,84,244,140,1,,,,,,,,
,,,,,,,,,,,,,FF,,,,,,,,0.567,,,,,,,,,,,,,,,,,,,,,,60fd674dc072647674dcdc4c,61036d6927a3526af622cff1,2021-07-29_22h10.40.822,Simcolourproject_2stim_asymm_v5,2020.2.10,MacIntel,60,61025ae37ef11b136ea224fe,,,,,,,,,3176,44,65,1,0,0,response1disk,,7,14,6,1,0,0,rectangle,14,6,1,0,0,14,6,1,0,0,1,85,245,36,1,,,,,,,,
,,,,,,,,,,,,,FF,,,,,,,,0.498,,,,,,,,,,,,,,,,,,,,,,60fd674dc072647674dcdc4c,61036d6927a3526af622cff1,2021-07-29_22h10.40.822,Simcolourproject_2stim_asymm_v5,2020.2.10,MacIntel,60,61025ae37ef11b136ea224fe,,,,,,,,,2061,41,58,1,0,0,response1disk,,7,19,4,1,0,0,rectangle,19,4,1,0,0,19,4,1,0,0,1,86,246,49,1,,,,,,,,
,,,,,,,,,,,,,FF,,,,,,,,1.249,,,,,,,,,,,,,,,,,,,,,,60fd674dc072647674dcdc4c,61036d6927a3526af622cff1,2021-07-29_22h10.40.822,Simcolourproject_2stim_asymm_v5,2020.2.10,MacIntel,60,61025ae37ef11b136ea224fe,,,,,,,,,3552,-57,44,1,0,0,response7disk,,1,-14,6,1,0,0,rectangle,-14,6,1,0,0,-14,6,1,0,0,1,87,247,87,1,,,,,,,,
,,,,,,,,,,,,,FF,,,,,,,,0.434,,,,,,,,,,,,,,,,,,,,,,60fd674dc072647674dcdc4c,61036d6927a3526af622cff1,2021-07-29_22h10.40.822,Simcolourproject_2stim_asymm_v5,2020.2.10,MacIntel,60,61025ae37ef11b136ea224fe,,,,,,,,,2450,53,66,1,0,0,response1disk,,7,-3,-8,1,0,0,rectangle,-3,-8,1,0,0,-3,-8,1,0,0,1,88,248,65,1,,,,,,,,
,,,,,,,,,,,,,FF,,,,,,,,0.734,,,,,,,,,,,,,,,,,,,,,,60fd674dc072647674dcdc4c,61036d6927a3526af622cff1,2021-07-29_22h10.40.822,Simcolourproject_2stim_asymm_v5,2020.2.10,MacIntel,60,61025ae37ef11b136ea224fe,,,,,,,,,562,46,-43,1,0,0,response3disk,,5,8,-4,1,0,0,rectangle,8,-4,1,0,0,8,-4,1,0,0,1,89,249,153,1,,,,,,,,
,,,,,,,,,,,,,FF,,,,,,,,0.651,,,,,,,,,,,,,,,,,,,,,,60fd674dc072647674dcdc4c,61036d6927a3526af622cff1,2021-07-29_22h10.40.822,Simcolourproject_2stim_asymm_v5,2020.2.10,MacIntel,60,61025ae37ef11b136ea224fe,,,,,,,,,1073,53,56,1,0,0,response1disk,,7,8,-12,1,0,0,rectangle,8,-12,1,0,0,8,-12,1,0,0,1,90,250,74,1,,,,,,,,
,,,,,,,,,,,,,FF,,,,,,,,0.518,,,,,,,,,,,,,,,,,,,,,,60fd674dc072647674dcdc4c,61036d6927a3526af622cff1,2021-07-29_22h10.40.822,Simcolourproject_2stim_asymm_v5,2020.2.10,MacIntel,60,61025ae37ef11b136ea224fe,,,,,,,,,1971,33,49,1,0,0,response1disk,,7,9,0,1,0,0,rectangle,9,0,1,0,0,9,0,1,0,0,1,91,251,82,1,,,,,,,,
,,,,,,,,,,,,,FF,,,,,,,,0.601,,,,,,,,,,,,,,,,,,,,,,60fd674dc072647674dcdc4c,61036d6927a3526af622cff1,2021-07-29_22h10.40.822,Simcolourproject_2stim_asymm_v5,2020.2.10,MacIntel,60,61025ae37ef11b136ea224fe,,,,,,,,,409,36,52,1,0,0,response1disk,,7,12,9,1,0,0,rectangle,12,9,1,0,0,12,9,1,0,0,1,92,252,72,1,,,,,,,,
,,,,,,,,,,,,,FF,,,,,,,,0.633,,,,,,,,,,,,,,,,,,,,,,60fd674dc072647674dcdc4c,61036d6927a3526af622cff1,2021-07-29_22h10.40.822,Simcolourproject_2stim_asymm_v5,2020.2.10,MacIntel,60,61025ae37ef11b136ea224fe,,,,,,,,,2951,48,57,1,0,0,response1disk,,7,22,-2,1,0,0,rectangle,22,-2,1,0,0,22,-2,1,0,0,1,93,253,133,1,,,,,,,,
,,,,,,,,,,,,,FF,,,,,,,,0.784,,,,,,,,,,,,,,,,,,,,,,60fd674dc072647674dcdc4c,61036d6927a3526af622cff1,2021-07-29_22h10.40.822,Simcolourproject_2stim_asymm_v5,2020.2.10,MacIntel,60,61025ae37ef11b136ea224fe,,,,,,,,,3229,32,59,1,0,0,response1disk,,7,3,-15,1,0,0,rectangle,3,-15,1,0,0,3,-15,1,0,0,1,94,254,20,1,,,,,,,,
,,,,,,,,,,,,,FF,,,,,,,,0.584,,,,,,,,,,,,,,,,,,,,,,60fd674dc072647674dcdc4c,61036d6927a3526af622cff1,2021-07-29_22h10.40.822,Simcolourproject_2stim_asymm_v5,2020.2.10,MacIntel,60,61025ae37ef11b136ea224fe,,,,,,,,,4079,50,81,1,0,0,response1disk,,7,2,4,1,0,0,rectangle,2,4,1,0,0,2,4,1,0,0,1,95,255,148,1,,,,,,,,
,,,,,,,,,,,,,FF,,,,,,,,0.616,,,,,,,,,,,,,,,,,,,,,,60fd674dc072647674dcdc4c,61036d6927a3526af622cff1,2021-07-29_22h10.40.822,Simcolourproject_2stim_asymm_v5,2020.2.10,MacIntel,60,61025ae37ef11b136ea224fe,,,,,,,,,2970,49,60,1,0,0,response1disk,,7,8,0,1,0,0,rectangle,8,0,1,0,0,8,0,1,0,0,1,96,256,91,1,,,,,,,,
,,,,,,,,,,,,,FF,,,,,,,,0.666,,,,,,,,,,,,,,,,,,,,,,60fd674dc072647674dcdc4c,61036d6927a3526af622cff1,2021-07-29_22h10.40.822,Simcolourproject_2stim_asymm_v5,2020.2.10,MacIntel,60,61025ae37ef11b136ea224fe,,,,,,,,,3873,35,52,1,0,0,response1disk,,7,6,-6,1,0,0,rectangle,6,-6,1,0,0,6,-6,1,0,0,1,97,257,52,1,,,,,,,,
,,,,,,,,,,,,,FF,,,,,,,,1.367,,,,,,,,,,,,,,,,,,,,,,60fd674dc072647674dcdc4c,61036d6927a3526af622cff1,2021-07-29_22h10.40.822,Simcolourproject_2stim_asymm_v5,2020.2.10,MacIntel,60,61025ae37ef11b136ea224fe,,,,,,,,,3592,-83,-58,1,0,0,response5disk,,2,-10,-6,1,0,0,rectangle,-10,-6,1,0,0,-10,-6,1,0,0,1,98,258,131,1,,,,,,,,
,,,,,,,,,,,,,FF,,,,,,,,0.601,,,,,,,,,,,,,,,,,,,,,,60fd674dc072647674dcdc4c,61036d6927a3526af622cff1,2021-07-29_22h10.40.822,Simcolourproject_2stim_asymm_v5,2020.2.10,MacIntel,60,61025ae37ef11b136ea224fe,,,,,,,,,127,43,53,1,0,0,response1disk,,7,-4,-1,1,0,0,rectangle,-4,-1,1,0,0,-4,-1,1,0,0,1,99,259,102,1,,,,,,,,
,,,,,,,,,,,,,FF,,,,,,,,1.1,,,,,,,,,,,,,,,,,,,,,,60fd674dc072647674dcdc4c,61036d6927a3526af622cff1,2021-07-29_22h10.40.822,Simcolourproject_2stim_asymm_v5,2020.2.10,MacIntel,60,61025ae37ef11b136ea224fe,,,,,,,,,3589,51,61,1,0,0,response1disk,,7,5,-5,1,0,0,rectangle,5,-5,1,0,0,5,-5,1,0,0,1,100,260,138,1,,,,,,,,
,,,,,,,,,,,,,FF,,,,,,,,3.683,,,,,,,,,,,,,,,,,,,,,,60fd674dc072647674dcdc4c,61036d6927a3526af622cff1,2021-07-29_22h10.40.822,Simcolourproject_2stim_asymm_v5,2020.2.10,MacIntel,60,61025ae37ef11b136ea224fe,,,,,,,,,561,63,70,1,0,0,response1disk,,7,9,2,1,0,0,rectangle,9,2,1,0,0,9,2,1,0,0,1,101,261,120,1,,,,,,,,
,,,,,,,,,,,,,FF,,,,,,,,0.533,,,,,,,,,,,,,,,,,,,,,,60fd674dc072647674dcdc4c,61036d6927a3526af622cff1,2021-07-29_22h10.40.822,Simcolourproject_2stim_asymm_v5,2020.2.10,MacIntel,60,61025ae37ef11b136ea224fe,,,,,,,,,686,71,76,1,0,0,response1disk,,7,1,2,1,0,0,rectangle,1,2,1,0,0,1,2,1,0,0,1,102,262,100,1,,,,,,,,
,,,,,,,,,,,,,FF,,,,,,,,0.582,,,,,,,,,,,,,,,,,,,,,,60fd674dc072647674dcdc4c,61036d6927a3526af622cff1,2021-07-29_22h10.40.822,Simcolourproject_2stim_asymm_v5,2020.2.10,MacIntel,60,61025ae37ef11b136ea224fe,,,,,,,,,2941,-58,44,1,0,0,response7disk,,1,-16,4,1,0,0,rectangle,-16,4,1,0,0,-16,4,1,0,0,1,103,263,5,1,,,,,,,,
,,,,,,,,,,,,,FF,,,,,,,,0.85,,,,,,,,,,,,,,,,,,,,,,60fd674dc072647674dcdc4c,61036d6927a3526af622cff1,2021-07-29_22h10.40.822,Simcolourproject_2stim_asymm_v5,2020.2.10,MacIntel,60,61025ae37ef11b136ea224fe,,,,,,,,,3123,27,40,1,0,0,response1disk,,7,0,1,1,0,0,rectangle,0,1,1,0,0,0,1,1,0,0,1,104,264,35,1,,,,,,,,
,,,,,,,,,,,,,FF,,,,,,,,0.65,,,,,,,,,,,,,,,,,,,,,,60fd674dc072647674dcdc4c,61036d6927a3526af622cff1,2021-07-29_22h10.40.822,Simcolourproject_2stim_asymm_v5,2020.2.10,MacIntel,60,61025ae37ef11b136ea224fe,,,,,,,,,4184,44,42,1,0,0,response1disk,,6,17,-2,1,0,0,rectangle,17,-2,1,0,0,17,-2,1,0,0,1,105,265,85,1,,,,,,,,
,,,,,,,,,,,,,FF,,,,,,,,0.45,,,,,,,,,,,,,,,,,,,,,,60fd674dc072647674dcdc4c,61036d6927a3526af622cff1,2021-07-29_22h10.40.822,Simcolourproject_2stim_asymm_v5,2020.2.10,MacIntel,60,61025ae37ef11b136ea224fe,,,,,,,,,1364,36,69,1,0,0,response1disk,,7,-5,3,1,0,0,rectangle,-5,3,1,0,0,-5,3,1,0,0,1,106,266,105,1,,,,,,,,
,,,,,,,,,,,,,FF,,,,,,,,0.416,,,,,,,,,,,,,,,,,,,,,,60fd674dc072647674dcdc4c,61036d6927a3526af622cff1,2021-07-29_22h10.40.822,Simcolourproject_2stim_asymm_v5,2020.2.10,MacIntel,60,61025ae37ef11b136ea224fe,,,,,,,,,4080,40,52,1,0,0,response1disk,,7,-4,-1,1,0,0,rectangle,-4,-1,1,0,0,-4,-1,1,0,0,1,107,267,2,1,,,,,,,,
,,,,,,,,,,,,,FF,,,,,,,,0.416,,,,,,,,,,,,,,,,,,,,,,60fd674dc072647674dcdc4c,61036d6927a3526af622cff1,2021-07-29_22h10.40.822,Simcolourproject_2stim_asymm_v5,2020.2.10,MacIntel,60,61025ae37ef11b136ea224fe,,,,,,,,,1945,83,71,1,0,0,response1disk,,6,-8,-10,1,0,0,rectangle,-8,-10,1,0,0,-8,-10,1,0,0,1,108,268,17,1,,,,,,,,
,,,,,,,,,,,,,FF,,,,,,,,0.384,,,,,,,,,,,,,,,,,,,,,,60fd674dc072647674dcdc4c,61036d6927a3526af622cff1,2021-07-29_22h10.40.822,Simcolourproject_2stim_asymm_v5,2020.2.10,MacIntel,60,61025ae37ef11b136ea224fe,,,,,,,,,4248,92,76,1,0,0,response1disk,,6,16,7,1,0,0,rectangle,16,7,1,0,0,16,7,1,0,0,1,109,269,150,1,,,,,,,,
,,,,,,,,,,,,,FF,,,,,,,,0.501,,,,,,,,,,,,,,,,,,,,,,60fd674dc072647674dcdc4c,61036d6927a3526af622cff1,2021-07-29_22h10.40.822,Simcolourproject_2stim_asymm_v5,2020.2.10,MacIntel,60,61025ae37ef11b136ea224fe,,,,,,,,,1136,-56,68,1,0,0,response7disk,,0,-17,3,1,0,0,rectangle,-17,3,1,0,0,-17,3,1,0,0,1,110,270,79,1,,,,,,,,
,,,,,,,,,,,,,FF,,,,,,,,0.717,,,,,,,,,,,,,,,,,,,,,,60fd674dc072647674dcdc4c,61036d6927a3526af622cff1,2021-07-29_22h10.40.822,Simcolourproject_2stim_asymm_v5,2020.2.10,MacIntel,60,61025ae37ef11b136ea224fe,,,,,,,,,2838,59,70,1,0,0,response1disk,,7,4,6,1,0,0,rectangle,4,6,1,0,0,4,6,1,0,0,1,111,271,93,1,,,,,,,,
,,,,,,,,,,,,,FF,,,,,,,,0.499,,,,,,,,,,,,,,,,,,,,,,60fd674dc072647674dcdc4c,61036d6927a3526af622cff1,2021-07-29_22h10.40.822,Simcolourproject_2stim_asymm_v5,2020.2.10,MacIntel,60,61025ae37ef11b136ea224fe,,,,,,,,,3521,39,59,1,0,0,response1disk,,7,3,-2,1,0,0,rectangle,3,-2,1,0,0,3,-2,1,0,0,1,112,272,116,1,,,,,,,,
,,,,,,,,,,,,,FF,,,,,,,,0.467,,,,,,,,,,,,,,,,,,,,,,60fd674dc072647674dcdc4c,61036d6927a3526af622cff1,2021-07-29_22h10.40.822,Simcolourproject_2stim_asymm_v5,2020.2.10,MacIntel,60,61025ae37ef11b136ea224fe,,,,,,,,,2527,44,41,1,0,0,response1disk,,6,0,2,1,0,0,rectangle,0,2,1,0,0,0,2,1,0,0,1,113,273,44,1,,,,,,,,
,,,,,,,,,,,,,FF,,,,,,,,0.817,,,,,,,,,,,,,,,,,,,,,,60fd674dc072647674dcdc4c,61036d6927a3526af622cff1,2021-07-29_22h10.40.822,Simcolourproject_2stim_asymm_v5,2020.2.10,MacIntel,60,61025ae37ef11b136ea224fe,,,,,,,,,2236,-72,-62,1,0,0,response5disk,,2,-3,-11,1,0,0,rectangle,-3,-11,1,0,0,-3,-11,1,0,0,1,114,274,53,1,,,,,,,,
,,,,,,,,,,,,,FF,,,,,,,,0.5,,,,,,,,,,,,,,,,,,,,,,60fd674dc072647674dcdc4c,61036d6927a3526af622cff1,2021-07-29_22h10.40.822,Simcolourproject_2stim_asymm_v5,2020.2.10,MacIntel,60,61025ae37ef11b136ea224fe,,,,,,,,,1502,35,47,1,0,0,response1disk,,7,-6,1,1,0,0,rectangle,-6,1,1,0,0,-6,1,1,0,0,1,115,275,155,1,,,,,,,,
,,,,,,,,,,,,,FF,,,,,,,,0.767,,,,,,,,,,,,,,,,,,,,,,60fd674dc072647674dcdc4c,61036d6927a3526af622cff1,2021-07-29_22h10.40.822,Simcolourproject_2stim_asymm_v5,2020.2.10,MacIntel,60,61025ae37ef11b136ea224fe,,,,,,,,,1229,47,-46,1,0,0,response3disk,,5,-7,5,1,0,0,rectangle,-7,5,1,0,0,-7,5,1,0,0,1,116,276,7,1,,,,,,,,
,,,,,,,,,,,,,FF,,,,,,,,1.032,,,,,,,,,,,,,,,,,,,,,,60fd674dc072647674dcdc4c,61036d6927a3526af622cff1,2021-07-29_22h10.40.822,Simcolourproject_2stim_asymm_v5,2020.2.10,MacIntel,60,61025ae37ef11b136ea224fe,,,,,,,,,1455,-84,-52,1,0,0,response5disk,,2,-3,-5,1,0,0,rectangle,-3,-5,1,0,0,-3,-5,1,0,0,1,117,277,67,1,,,,,,,,
,,,,,,,,,,,,,FF,,,,,,,,0.449,,,,,,,,,,,,,,,,,,,,,,60fd674dc072647674dcdc4c,61036d6927a3526af622cff1,2021-07-29_22h10.40.822,Simcolourproject_2stim_asymm_v5,2020.2.10,MacIntel,60,61025ae37ef11b136ea224fe,,,,,,,,,3318,35,47,1,0,0,response1disk,,7,2,-9,1,0,0,rectangle,2,-9,1,0,0,2,-9,1,0,0,1,118,278,70,1,,,,,,,,
,,,,,,,,,,,,,FF,,,,,,,,0.534,,,,,,,,,,,,,,,,,,,,,,60fd674dc072647674dcdc4c,61036d6927a3526af622cff1,2021-07-29_22h10.40.822,Simcolourproject_2stim_asymm_v5,2020.2.10,MacIntel,60,61025ae37ef11b136ea224fe,,,,,,,,,985,37,70,1,0,0,response1disk,,7,10,-2,1,0,0,rectangle,56,88,1,0,0,0,1,1,0,0,1,119,279,147,1,,response1disk_3,TRUE,7,7,"[72,161,203,95,126,93,322,280,13,38,303,228,186,231,98,34,80,297,225,193]",1.465,rectangle
,,,,,,,,,,,,,FF,,,,,,,,0.749,,,,,,,,,,,,,,,,,,,,,,60fd674dc072647674dcdc4c,61036d6927a3526af622cff1,2021-07-29_22h10.40.822,Simcolourproject_2stim_asymm_v5,2020.2.10,MacIntel,60,61025ae37ef11b136ea224fe,,,,,,,,,3839,58,84,1,0,0,response1disk,,7,22,16,1,0,0,rectangle,22,16,1,0,0,22,16,1,0,0,1,120,280,63,1,,,,,,,,
,,,,,,,,,,,,,FF,,,,,,,,0.416,,,,,,,,,,,,,,,,,,,,,,60fd674dc072647674dcdc4c,61036d6927a3526af622cff1,2021-07-29_22h10.40.822,Simcolourproject_2stim_asymm_v5,2020.2.10,MacIntel,60,61025ae37ef11b136ea224fe,,,,,,,,,3640,47,62,1,0,0,response1disk,,7,13,-1,1,0,0,rectangle,13,-1,1,0,0,13,-1,1,0,0,1,121,281,114,1,,,,,,,,
,,,,,,,,,,,,,FF,,,,,,,,0.449,,,,,,,,,,,,,,,,,,,,,,60fd674dc072647674dcdc4c,61036d6927a3526af622cff1,2021-07-29_22h10.40.822,Simcolourproject_2stim_asymm_v5,2020.2.10,MacIntel,60,61025ae37ef11b136ea224fe,,,,,,,,,1913,50,39,1,0,0,response1disk,,6,12,-7,1,0,0,rectangle,12,-7,1,0,0,12,-7,1,0,0,1,122,282,75,1,,,,,,,,
,,,,,,,,,,,,,FF,,,,,,,,0.683,,,,,,,,,,,,,,,,,,,,,,60fd674dc072647674dcdc4c,61036d6927a3526af622cff1,2021-07-29_22h10.40.822,Simcolourproject_2stim_asymm_v5,2020.2.10,MacIntel,60,61025ae37ef11b136ea224fe,,,,,,,,,1681,46,-54,1,0,0,response3disk,,4,-3,1,1,0,0,rectangle,-3,1,1,0,0,-3,1,1,0,0,1,123,283,34,1,,,,,,,,
,,,,,,,,,,,,,FF,,,,,,,,0.534,,,,,,,,,,,,,,,,,,,,,,60fd674dc072647674dcdc4c,61036d6927a3526af622cff1,2021-07-29_22h10.40.822,Simcolourproject_2stim_asymm_v5,2020.2.10,MacIntel,60,61025ae37ef11b136ea224fe,,,,,,,,,3134,39,60,1,0,0,response1disk,,7,5,-1,1,0,0,rectangle,5,-1,1,0,0,5,-1,1,0,0,1,124,284,22,1,,,,,,,,
,,,,,,,,,,,,,FF,,,,,,,,0.667,,,,,,,,,,,,,,,,,,,,,,60fd674dc072647674dcdc4c,61036d6927a3526af622cff1,2021-07-29_22h10.40.822,Simcolourproject_2stim_asymm_v5,2020.2.10,MacIntel,60,61025ae37ef11b136ea224fe,,,,,,,,,557,40,-61,1,0,0,response3disk,,4,9,-5,1,0,0,rectangle,9,-5,1,0,0,9,-5,1,0,0,1,125,285,101,1,,,,,,,,
,,,,,,,,,,,,,FF,,,,,,,,0.467,,,,,,,,,,,,,,,,,,,,,,60fd674dc072647674dcdc4c,61036d6927a3526af622cff1,2021-07-29_22h10.40.822,Simcolourproject_2stim_asymm_v5,2020.2.10,MacIntel,60,61025ae37ef11b136ea224fe,,,,,,,,,1111,29,67,1,0,0,response1disk,,7,3,0,1,0,0,rectangle,3,0,1,0,0,3,0,1,0,0,1,126,286,104,1,,,,,,,,
,,,,,,,,,,,,,FF,,,,,,,,0.533,,,,,,,,,,,,,,,,,,,,,,60fd674dc072647674dcdc4c,61036d6927a3526af622cff1,2021-07-29_22h10.40.822,Simcolourproject_2stim_asymm_v5,2020.2.10,MacIntel,60,61025ae37ef11b136ea224fe,,,,,,,,,3509,48,71,1,0,0,response1disk,,7,5,11,1,0,0,rectangle,5,11,1,0,0,5,11,1,0,0,1,127,287,54,1,,,,,,,,
,,,,,,,,,,,,,FF,,,,,,,,0.599,,,,,,,,,,,,,,,,,,,,,,60fd674dc072647674dcdc4c,61036d6927a3526af622cff1,2021-07-29_22h10.40.822,Simcolourproject_2stim_asymm_v5,2020.2.10,MacIntel,60,61025ae37ef11b136ea224fe,,,,,,,,,2942,37,60,1,0,0,response1disk,,7,9,1,1,0,0,rectangle,9,1,1,0,0,9,1,1,0,0,1,128,288,89,1,,,,,,,,
,,,,,,,,,,,,,FF,,,,,,,,0.717,,,,,,,,,,,,,,,,,,,,,,60fd674dc072647674dcdc4c,61036d6927a3526af622cff1,2021-07-29_22h10.40.822,Simcolourproject_2stim_asymm_v5,2020.2.10,MacIntel,60,61025ae37ef11b136ea224fe,,,,,,,,,1698,-67,-86,1,0,0,response5disk,,3,-9,2,1,0,0,rectangle,-9,2,1,0,0,-9,2,1,0,0,1,129,289,122,1,,,,,,,,
,,,,,,,,,,,,,FF,,,,,,,,0.766,,,,,,,,,,,,,,,,,,,,,,60fd674dc072647674dcdc4c,61036d6927a3526af622cff1,2021-07-29_22h10.40.822,Simcolourproject_2stim_asymm_v5,2020.2.10,MacIntel,60,61025ae37ef11b136ea224fe,,,,,,,,,3965,-69,83,1,0,0,response7disk,,0,-7,7,1,0,0,rectangle,-7,7,1,0,0,-7,7,1,0,0,1,130,290,134,1,,,,,,,,
,,,,,,,,,,,,,FF,,,,,,,,0.567,,,,,,,,,,,,,,,,,,,,,,60fd674dc072647674dcdc4c,61036d6927a3526af622cff1,2021-07-29_22h10.40.822,Simcolourproject_2stim_asymm_v5,2020.2.10,MacIntel,60,61025ae37ef11b136ea224fe,,,,,,,,,2493,52,67,1,0,0,response1disk,,7,14,2,1,0,0,rectangle,14,2,1,0,0,14,2,1,0,0,1,131,291,158,1,,,,,,,,
,,,,,,,,,,,,,FF,,,,,,,,0.568,,,,,,,,,,,,,,,,,,,,,,60fd674dc072647674dcdc4c,61036d6927a3526af622cff1,2021-07-29_22h10.40.822,Simcolourproject_2stim_asymm_v5,2020.2.10,MacIntel,60,61025ae37ef11b136ea224fe,,,,,,,,,2743,37,63,1,0,0,response1disk,,7,-5,-8,1,0,0,rectangle,-5,-8,1,0,0,-5,-8,1,0,0,1,132,292,137,1,,,,,,,,
,,,,,,,,,,,,,FF,,,,,,,,0.583,,,,,,,,,,,,,,,,,,,,,,60fd674dc072647674dcdc4c,61036d6927a3526af622cff1,2021-07-29_22h10.40.822,Simcolourproject_2stim_asymm_v5,2020.2.10,MacIntel,60,61025ae37ef11b136ea224fe,,,,,,,,,2773,61,65,1,0,0,response1disk,,7,23,14,1,0,0,rectangle,23,14,1,0,0,23,14,1,0,0,1,133,293,28,1,,,,,,,,
,,,,,,,,,,,,,FF,,,,,,,,0.666,,,,,,,,,,,,,,,,,,,,,,60fd674dc072647674dcdc4c,61036d6927a3526af622cff1,2021-07-29_22h10.40.822,Simcolourproject_2stim_asymm_v5,2020.2.10,MacIntel,60,61025ae37ef11b136ea224fe,,,,,,,,,3846,35,-56,1,0,0,response3disk,,4,16,-9,1,0,0,rectangle,16,-9,1,0,0,16,-9,1,0,0,1,134,294,115,1,,,,,,,,
,,,,,,,,,,,,,FF,,,,,,,,1.101,,,,,,,,,,,,,,,,,,,,,,60fd674dc072647674dcdc4c,61036d6927a3526af622cff1,2021-07-29_22h10.40.822,Simcolourproject_2stim_asymm_v5,2020.2.10,MacIntel,60,61025ae37ef11b136ea224fe,,,,,,,,,449,35,46,1,0,0,response1disk,,7,16,5,1,0,0,rectangle,16,5,1,0,0,16,5,1,0,0,1,135,295,50,1,,,,,,,,
,,,,,,,,,,,,,FF,,,,,,,,0.6,,,,,,,,,,,,,,,,,,,,,,60fd674dc072647674dcdc4c,61036d6927a3526af622cff1,2021-07-29_22h10.40.822,Simcolourproject_2stim_asymm_v5,2020.2.10,MacIntel,60,61025ae37ef11b136ea224fe,,,,,,,,,3490,29,45,1,0,0,response1disk,,7,16,-2,1,0,0,rectangle,85,-40,1,0,0,7,2,1,0,0,1,136,296,51,1,,response3disk_3,TRUE,5,5,"[72,161,203,95,126,93,322,280,13,38,303,228,186,231,98,34,80,297,225,193]",1.52,rectangle
,,,,,,,,,,,,,FF,,,,,,,,1.083,,,,,,,,,,,,,,,,,,,,,,60fd674dc072647674dcdc4c,61036d6927a3526af622cff1,2021-07-29_22h10.40.822,Simcolourproject_2stim_asymm_v5,2020.2.10,MacIntel,60,61025ae37ef11b136ea224fe,,,,,,,,,2101,-71,-65,1,0,0,response5disk,,2,13,1,1,0,0,rectangle,13,1,1,0,0,13,1,1,0,0,1,137,297,14,1,,,,,,,,
,,,,,,,,,,,,,FF,,,,,,,,0.45,,,,,,,,,,,,,,,,,,,,,,60fd674dc072647674dcdc4c,61036d6927a3526af622cff1,2021-07-29_22h10.40.822,Simcolourproject_2stim_asymm_v5,2020.2.10,MacIntel,60,61025ae37ef11b136ea224fe,,,,,,,,,275,44,63,1,0,0,response1disk,,7,23,4,1,0,0,rectangle,23,4,1,0,0,23,4,1,0,0,1,138,298,38,1,,,,,,,,
,,,,,,,,,,,,,FF,,,,,,,,0.449,,,,,,,,,,,,,,,,,,,,,,60fd674dc072647674dcdc4c,61036d6927a3526af622cff1,2021-07-29_22h10.40.822,Simcolourproject_2stim_asymm_v5,2020.2.10,MacIntel,60,61025ae37ef11b136ea224fe,,,,,,,,,48,37,70,1,0,0,response1disk,,7,2,6,1,0,0,rectangle,2,6,1,0,0,2,6,1,0,0,1,139,299,88,1,,,,,,,,
,,,,,,,,,,,,,FF,,,,,,,,0.466,,,,,,,,,,,,,,,,,,,,,,60fd674dc072647674dcdc4c,61036d6927a3526af622cff1,2021-07-29_22h10.40.822,Simcolourproject_2stim_asymm_v5,2020.2.10,MacIntel,60,61025ae37ef11b136ea224fe,,,,,,,,,864,48,53,1,0,0,response1disk,,7,7,9,1,0,0,rectangle,7,9,1,0,0,7,9,1,0,0,1,140,300,19,1,,,,,,,,
,,,,,,,,,,,,,FF,,,,,,,,0.5,,,,,,,,,,,,,,,,,,,,,,60fd674dc072647674dcdc4c,61036d6927a3526af622cff1,2021-07-29_22h10.40.822,Simcolourproject_2stim_asymm_v5,2020.2.10,MacIntel,60,61025ae37ef11b136ea224fe,,,,,,,,,1388,47,46,1,0,0,response1disk,,6,18,4,1,0,0,rectangle,18,4,1,0,0,18,4,1,0,0,1,141,301,68,1,,,,,,,,
