key_resp.keys,key_resp.rt,key_resp_14.keys,key_resp_14.rt,key_resp_15.keys,key_resp_15.rt,key_resp_17.keys,key_resp_17.rt,key_resp_9.keys,key_resp_9.rt,key_resp_10.keys,key_resp_10.rt,practice_comparison,Ecc,mouse_5.x,mouse_5.y,mouse_5.leftButton,mouse_5.midButton,mouse_5.rightButton,mouse_5.clicked_name,pracsimilarity,response_time,mouse_10.x,mouse_10.y,mouse_10.leftButton,mouse_10.midButton,mouse_10.rightButton,mouse_10.clicked_name,mouse_7.x,mouse_7.y,mouse_7.leftButton,mouse_7.midButton,mouse_7.rightButton,mouse_6.x,mouse_6.y,mouse_6.leftButton,mouse_6.midButton,mouse_6.rightButton,duringprac.thisRepN,duringprac.thisTrialN,duringprac.thisN,duringprac.thisIndex,duringprac.ran,participant,session,date,expName,psychopyVersion,OS,frameRate,study_id,mouse_7.clicked_name,catchpracsimilarity,catch_response_time,catchnumberprac,catchtrialorderprac,mouse_6.clicked_name,key_resp_22.keys,key_resp_22.rt,realcomparison,mouse.x,mouse.y,mouse.leftButton,mouse.midButton,mouse.rightButton,mouse.clicked_name,Colour2,similarity,mouse_2.x,mouse_2.y,mouse_2.leftButton,mouse_2.midButton,mouse_2.rightButton,mouse_2.clicked_name,mouse_3.x,mouse_3.y,mouse_3.leftButton,mouse_3.midButton,mouse_3.rightButton,mouse_11.x,mouse_11.y,mouse_11.leftButton,mouse_11.midButton,mouse_11.rightButton,trials_2.thisRepN,trials_2.thisTrialN,trials_2.thisN,trials_2.thisIndex,trials_2.ran,Colour1,mouse_3.clicked_name,catchornah,catchsimilarity,catchnumber,catchtrialorder,catchRT,mouse_11.clicked_name
space,1.456,space,5.513,space,19.362,space,17.301,space,2.28,space,6.746,49,FF,97,48,1,0,0,response1disk_5,6,9.068,-1,-3,1,0,0,rectangle_8,-1,-3,1,0,0,-1,-3,1,0,0,0,0,0,5,1,60fdb937b72fd456da7660c0,6103663d204822def51d1f6d,2021-07-29_20h41.03.502,Simcolourproject_2stim_asymm_v5,2020.2.10,MacIntel,60,61025ae37ef11b136ea224fe,,,,,,,,,,,,,,,,,,,,,,,,,,,,,,,,,,,,,,,,,,,,,,
,,,,,,,,,,,,4,PF,-44,82,1,0,0,response7disk_5,0,4.185,-1,0,1,0,0,rectangle_8,-41,98,1,0,0,0,-5,1,0,0,0,1,1,6,1,60fdb937b72fd456da7660c0,6103663d204822def51d1f6d,2021-07-29_20h41.03.502,Simcolourproject_2stim_asymm_v5,2020.2.10,MacIntel,60,61025ae37ef11b136ea224fe,response7disk_7,0,5.099,0,"[2,5]",rectangle_4,,,,,,,,,,,,,,,,,,,,,,,,,,,,,,,,,,,,,,,,
,,,,,,,,,,,,150,PF,96,33,1,0,0,response1disk_5,6,4.415,7,-3,1,0,0,rectangle_8,7,-3,1,0,0,7,-3,1,0,0,0,2,2,1,1,60fdb937b72fd456da7660c0,6103663d204822def51d1f6d,2021-07-29_20h41.03.502,Simcolourproject_2stim_asymm_v5,2020.2.10,MacIntel,60,61025ae37ef11b136ea224fe,,,,,,,,,,,,,,,,,,,,,,,,,,,,,,,,,,,,,,,,,,,,,,
,,,,,,,,,,,,90,PF,103,-51,1,0,0,response3disk_5,5,7.016,4,-1,1,0,0,rectangle_8,4,-1,1,0,0,4,-1,1,0,0,0,3,3,2,1,60fdb937b72fd456da7660c0,6103663d204822def51d1f6d,2021-07-29_20h41.03.502,Simcolourproject_2stim_asymm_v5,2020.2.10,MacIntel,60,61025ae37ef11b136ea224fe,,,,,,,,,,,,,,,,,,,,,,,,,,,,,,,,,,,,,,,,,,,,,,
,,,,,,,,,,,,150,FF,99,35,1,0,0,response1disk_5,6,4.951,-8,5,1,0,0,rectangle_8,-43,93,1,0,0,-4,-7,1,0,0,0,4,4,3,1,60fdb937b72fd456da7660c0,6103663d204822def51d1f6d,2021-07-29_20h41.03.502,Simcolourproject_2stim_asymm_v5,2020.2.10,MacIntel,60,61025ae37ef11b136ea224fe,response7disk_7,0,2.233,0,"[2,5]",rectangle_4,,,,,,,,,,,,,,,,,,,,,,,,,,,,,,,,,,,,,,,,
,,,,,,,,,,,,70,PF,34,-77,1,0,0,response3disk_5,4,5.183,3,-4,1,0,0,rectangle_8,3,-4,1,0,0,3,-4,1,0,0,0,5,5,4,1,60fdb937b72fd456da7660c0,6103663d204822def51d1f6d,2021-07-29_20h41.03.502,Simcolourproject_2stim_asymm_v5,2020.2.10,MacIntel,60,61025ae37ef11b136ea224fe,,,,,,,,,,,,,,,,,,,,,,,,,,,,,,,,,,,,,,,,,,,,,,
,,,,,,,,,,,,50,FF,43,98,1,0,0,response1disk_5,7,2.484,-2,-3,1,0,0,rectangle_8,-2,-3,1,0,0,-2,-3,1,0,0,0,6,6,0,1,60fdb937b72fd456da7660c0,6103663d204822def51d1f6d,2021-07-29_20h41.03.502,Simcolourproject_2stim_asymm_v5,2020.2.10,MacIntel,60,61025ae37ef11b136ea224fe,,,,,,,,,,,,,,,,,,,,,,,,,,,,,,,,,,,,,,,,,,,,,,
,,,,,,,,,,,,,FF,,,,,,,,4.383,,,,,,,,,,,,,,,,,,,,,,60fdb937b72fd456da7660c0,6103663d204822def51d1f6d,2021-07-29_20h41.03.502,Simcolourproject_2stim_asymm_v5,2020.2.10,MacIntel,60,61025ae37ef11b136ea224fe,,,,,,,space,3.235,3247,-86,-43,1,0,0,response5disk,,2,11,6,1,0,0,rectangle,11,6,1,0,0,11,6,1,0,0,0,0,0,120,1,,,,,,,,
,,,,,,,,,,,,,FF,,,,,,,,8.333,,,,,,,,,,,,,,,,,,,,,,60fdb937b72fd456da7660c0,6103663d204822def51d1f6d,2021-07-29_20h41.03.502,Simcolourproject_2stim_asymm_v5,2020.2.10,MacIntel,60,61025ae37ef11b136ea224fe,,,,,,,,,1901,-91,31,1,0,0,response7disk,,1,-14,-1,1,0,0,rectangle,-14,-1,1,0,0,-14,-1,1,0,0,0,1,1,98,1,,,,,,,,
,,,,,,,,,,,,,FF,,,,,,,,3.832,,,,,,,,,,,,,,,,,,,,,,60fdb937b72fd456da7660c0,6103663d204822def51d1f6d,2021-07-29_20h41.03.502,Simcolourproject_2stim_asymm_v5,2020.2.10,MacIntel,60,61025ae37ef11b136ea224fe,,,,,,,,,4323,88,37,1,0,0,response1disk,,6,-1,3,1,0,0,rectangle,-1,3,1,0,0,-1,3,1,0,0,0,2,2,2,1,,,,,,,,
,,,,,,,,,,,,,FF,,,,,,,,1.683,,,,,,,,,,,,,,,,,,,,,,60fdb937b72fd456da7660c0,6103663d204822def51d1f6d,2021-07-29_20h41.03.502,Simcolourproject_2stim_asymm_v5,2020.2.10,MacIntel,60,61025ae37ef11b136ea224fe,,,,,,,,,4150,-98,-53,1,0,0,response5disk,,2,11,-4,1,0,0,rectangle,11,-4,1,0,0,11,-4,1,0,0,0,3,3,39,1,,,,,,,,
,,,,,,,,,,,,,FF,,,,,,,,1.783,,,,,,,,,,,,,,,,,,,,,,60fdb937b72fd456da7660c0,6103663d204822def51d1f6d,2021-07-29_20h41.03.502,Simcolourproject_2stim_asymm_v5,2020.2.10,MacIntel,60,61025ae37ef11b136ea224fe,,,,,,,,,1460,-51,74,1,0,0,response7disk,,0,7,0,1,0,0,rectangle,7,0,1,0,0,7,0,1,0,0,0,4,4,88,1,,,,,,,,
,,,,,,,,,,,,,FF,,,,,,,,6.249,,,,,,,,,,,,,,,,,,,,,,60fdb937b72fd456da7660c0,6103663d204822def51d1f6d,2021-07-29_20h41.03.502,Simcolourproject_2stim_asymm_v5,2020.2.10,MacIntel,60,61025ae37ef11b136ea224fe,,,,,,,,,2924,103,-63,1,0,0,response3disk,,5,7,1,1,0,0,rectangle,7,1,1,0,0,7,1,1,0,0,0,5,5,146,1,,,,,,,,
,,,,,,,,,,,,,FF,,,,,,,,8.282,,,,,,,,,,,,,,,,,,,,,,60fdb937b72fd456da7660c0,6103663d204822def51d1f6d,2021-07-29_20h41.03.502,Simcolourproject_2stim_asymm_v5,2020.2.10,MacIntel,60,61025ae37ef11b136ea224fe,,,,,,,,,3694,86,-48,1,0,0,response3disk,,5,3,9,1,0,0,rectangle,3,9,1,0,0,3,9,1,0,0,0,6,6,35,1,,,,,,,,
,,,,,,,,,,,,,FF,,,,,,,,1.499,,,,,,,,,,,,,,,,,,,,,,60fdb937b72fd456da7660c0,6103663d204822def51d1f6d,2021-07-29_20h41.03.502,Simcolourproject_2stim_asymm_v5,2020.2.10,MacIntel,60,61025ae37ef11b136ea224fe,,,,,,,,,458,-58,-109,1,0,0,response5disk,,3,8,4,1,0,0,rectangle,8,4,1,0,0,8,4,1,0,0,0,7,7,110,1,,,,,,,,
,,,,,,,,,,,,,FF,,,,,,,,1.782,,,,,,,,,,,,,,,,,,,,,,60fdb937b72fd456da7660c0,6103663d204822def51d1f6d,2021-07-29_20h41.03.502,Simcolourproject_2stim_asymm_v5,2020.2.10,MacIntel,60,61025ae37ef11b136ea224fe,,,,,,,,,2609,-33,-83,1,0,0,response5disk,,3,4,3,1,0,0,rectangle,4,3,1,0,0,4,3,1,0,0,0,8,8,74,1,,,,,,,,
,,,,,,,,,,,,,FF,,,,,,,,2.117,,,,,,,,,,,,,,,,,,,,,,60fdb937b72fd456da7660c0,6103663d204822def51d1f6d,2021-07-29_20h41.03.502,Simcolourproject_2stim_asymm_v5,2020.2.10,MacIntel,60,61025ae37ef11b136ea224fe,,,,,,,,,592,89,-58,1,0,0,response3disk,,5,6,-2,1,0,0,rectangle,6,-2,1,0,0,6,-2,1,0,0,0,9,9,153,1,,,,,,,,
,,,,,,,,,,,,,FF,,,,,,,,3.999,,,,,,,,,,,,,,,,,,,,,,60fdb937b72fd456da7660c0,6103663d204822def51d1f6d,2021-07-29_20h41.03.502,Simcolourproject_2stim_asymm_v5,2020.2.10,MacIntel,60,61025ae37ef11b136ea224fe,,,,,,,,,1140,-43,-91,1,0,0,response5disk,,3,9,2,1,0,0,rectangle,9,2,1,0,0,9,2,1,0,0,0,10,10,26,1,,,,,,,,
,,,,,,,,,,,,,FF,,,,,,,,3.133,,,,,,,,,,,,,,,,,,,,,,60fdb937b72fd456da7660c0,6103663d204822def51d1f6d,2021-07-29_20h41.03.502,Simcolourproject_2stim_asymm_v5,2020.2.10,MacIntel,60,61025ae37ef11b136ea224fe,,,,,,,,,3493,98,32,1,0,0,response1disk,,6,1,6,1,0,0,rectangle,1,6,1,0,0,1,6,1,0,0,0,11,11,137,1,,,,,,,,
,,,,,,,,,,,,,FF,,,,,,,,4.75,,,,,,,,,,,,,,,,,,,,,,60fdb937b72fd456da7660c0,6103663d204822def51d1f6d,2021-07-29_20h41.03.502,Simcolourproject_2stim_asymm_v5,2020.2.10,MacIntel,60,61025ae37ef11b136ea224fe,,,,,,,,,4059,-50,-83,1,0,0,response5disk,,3,-14,-1,1,0,0,rectangle,-14,-1,1,0,0,-14,-1,1,0,0,0,12,12,124,1,,,,,,,,
,,,,,,,,,,,,,FF,,,,,,,,1.134,,,,,,,,,,,,,,,,,,,,,,60fdb937b72fd456da7660c0,6103663d204822def51d1f6d,2021-07-29_20h41.03.502,Simcolourproject_2stim_asymm_v5,2020.2.10,MacIntel,60,61025ae37ef11b136ea224fe,,,,,,,,,2975,56,100,1,0,0,response1disk,,7,-16,0,1,0,0,rectangle,-16,0,1,0,0,-16,0,1,0,0,0,13,13,55,1,,,,,,,,
,,,,,,,,,,,,,FF,,,,,,,,1.899,,,,,,,,,,,,,,,,,,,,,,60fdb937b72fd456da7660c0,6103663d204822def51d1f6d,2021-07-29_20h41.03.502,Simcolourproject_2stim_asymm_v5,2020.2.10,MacIntel,60,61025ae37ef11b136ea224fe,,,,,,,,,2803,55,89,1,0,0,response1disk,,7,-9,-3,1,0,0,rectangle,-9,-3,1,0,0,-9,-3,1,0,0,0,14,14,99,1,,,,,,,,
,,,,,,,,,,,,,FF,,,,,,,,1.8,,,,,,,,,,,,,,,,,,,,,,60fdb937b72fd456da7660c0,6103663d204822def51d1f6d,2021-07-29_20h41.03.502,Simcolourproject_2stim_asymm_v5,2020.2.10,MacIntel,60,61025ae37ef11b136ea224fe,,,,,,,,,3595,-114,-57,1,0,0,response5disk,,2,12,0,1,0,0,rectangle,12,0,1,0,0,12,0,1,0,0,0,15,15,72,1,,,,,,,,
,,,,,,,,,,,,,FF,,,,,,,,4.982,,,,,,,,,,,,,,,,,,,,,,60fdb937b72fd456da7660c0,6103663d204822def51d1f6d,2021-07-29_20h41.03.502,Simcolourproject_2stim_asymm_v5,2020.2.10,MacIntel,60,61025ae37ef11b136ea224fe,,,,,,,,,3809,-51,-92,1,0,0,response5disk,,3,14,2,1,0,0,rectangle,14,2,1,0,0,14,2,1,0,0,0,16,16,125,1,,,,,,,,
,,,,,,,,,,,,,FF,,,,,,,,6.033,,,,,,,,,,,,,,,,,,,,,,60fdb937b72fd456da7660c0,6103663d204822def51d1f6d,2021-07-29_20h41.03.502,Simcolourproject_2stim_asymm_v5,2020.2.10,MacIntel,60,61025ae37ef11b136ea224fe,,,,,,,,,880,76,-39,1,0,0,response3disk,,5,-11,3,1,0,0,rectangle,-11,3,1,0,0,-11,3,1,0,0,0,17,17,101,1,,,,,,,,
,,,,,,,,,,,,,FF,,,,,,,,2.75,,,,,,,,,,,,,,,,,,,,,,60fdb937b72fd456da7660c0,6103663d204822def51d1f6d,2021-07-29_20h41.03.502,Simcolourproject_2stim_asymm_v5,2020.2.10,MacIntel,60,61025ae37ef11b136ea224fe,,,,,,,,,2596,-52,-100,1,0,0,response5disk,,3,-2,5,1,0,0,rectangle,-2,5,1,0,0,-2,5,1,0,0,0,18,18,1,1,,,,,,,,
,,,,,,,,,,,,,FF,,,,,,,,2.383,,,,,,,,,,,,,,,,,,,,,,60fdb937b72fd456da7660c0,6103663d204822def51d1f6d,2021-07-29_20h41.03.502,Simcolourproject_2stim_asymm_v5,2020.2.10,MacIntel,60,61025ae37ef11b136ea224fe,,,,,,,,,2341,82,-45,1,0,0,response3disk,,5,5,-6,1,0,0,rectangle,5,-6,1,0,0,5,-6,1,0,0,0,19,19,147,1,,,,,,,,
,,,,,,,,,,,,,FF,,,,,,,,1.333,,,,,,,,,,,,,,,,,,,,,,60fdb937b72fd456da7660c0,6103663d204822def51d1f6d,2021-07-29_20h41.03.502,Simcolourproject_2stim_asymm_v5,2020.2.10,MacIntel,60,61025ae37ef11b136ea224fe,,,,,,,,,1999,38,75,1,0,0,response1disk,,7,-9,-1,1,0,0,rectangle,-9,-1,1,0,0,-9,-1,1,0,0,0,20,20,85,1,,,,,,,,
,,,,,,,,,,,,,FF,,,,,,,,2.634,,,,,,,,,,,,,,,,,,,,,,60fdb937b72fd456da7660c0,6103663d204822def51d1f6d,2021-07-29_20h41.03.502,Simcolourproject_2stim_asymm_v5,2020.2.10,MacIntel,60,61025ae37ef11b136ea224fe,,,,,,,,,3110,-84,-49,1,0,0,response5disk,,2,3,3,1,0,0,rectangle,3,3,1,0,0,3,3,1,0,0,0,21,21,13,1,,,,,,,,
,,,,,,,,,,,,,FF,,,,,,,,2.367,,,,,,,,,,,,,,,,,,,,,,60fdb937b72fd456da7660c0,6103663d204822def51d1f6d,2021-07-29_20h41.03.502,Simcolourproject_2stim_asymm_v5,2020.2.10,MacIntel,60,61025ae37ef11b136ea224fe,,,,,,,,,4221,-90,-47,1,0,0,response5disk,,2,-17,6,1,0,0,rectangle,-17,6,1,0,0,-17,6,1,0,0,0,22,22,36,1,,,,,,,,
,,,,,,,,,,,,,FF,,,,,,,,1.566,,,,,,,,,,,,,,,,,,,,,,60fdb937b72fd456da7660c0,6103663d204822def51d1f6d,2021-07-29_20h41.03.502,Simcolourproject_2stim_asymm_v5,2020.2.10,MacIntel,60,61025ae37ef11b136ea224fe,,,,,,,,,2435,-92,33,1,0,0,response7disk,,1,-9,-5,1,0,0,rectangle,-9,-5,1,0,0,-9,-5,1,0,0,0,23,23,84,1,,,,,,,,
,,,,,,,,,,,,,FF,,,,,,,,3.733,,,,,,,,,,,,,,,,,,,,,,60fdb937b72fd456da7660c0,6103663d204822def51d1f6d,2021-07-29_20h41.03.502,Simcolourproject_2stim_asymm_v5,2020.2.10,MacIntel,60,61025ae37ef11b136ea224fe,,,,,,,,,1002,41,-107,1,0,0,response3disk,,4,0,-2,1,0,0,rectangle,0,-2,1,0,0,0,-2,1,0,0,0,24,24,21,1,,,,,,,,
,,,,,,,,,,,,,FF,,,,,,,,2.916,,,,,,,,,,,,,,,,,,,,,,60fdb937b72fd456da7660c0,6103663d204822def51d1f6d,2021-07-29_20h41.03.502,Simcolourproject_2stim_asymm_v5,2020.2.10,MacIntel,60,61025ae37ef11b136ea224fe,,,,,,,,,4109,103,50,1,0,0,response1disk,,6,5,-2,1,0,0,rectangle,5,-2,1,0,0,5,-2,1,0,0,0,25,25,140,1,,,,,,,,
,,,,,,,,,,,,,FF,,,,,,,,2.668,,,,,,,,,,,,,,,,,,,,,,60fdb937b72fd456da7660c0,6103663d204822def51d1f6d,2021-07-29_20h41.03.502,Simcolourproject_2stim_asymm_v5,2020.2.10,MacIntel,60,61025ae37ef11b136ea224fe,,,,,,,,,2732,-45,-76,1,0,0,response5disk,,3,6,-1,1,0,0,rectangle,6,-1,1,0,0,6,-1,1,0,0,0,26,26,156,1,,,,,,,,
,,,,,,,,,,,,,FF,,,,,,,,3.067,,,,,,,,,,,,,,,,,,,,,,60fdb937b72fd456da7660c0,6103663d204822def51d1f6d,2021-07-29_20h41.03.502,Simcolourproject_2stim_asymm_v5,2020.2.10,MacIntel,60,61025ae37ef11b136ea224fe,,,,,,,,,2283,-56,-84,1,0,0,response5disk,,3,3,0,1,0,0,rectangle,3,0,1,0,0,3,0,1,0,0,0,27,27,60,1,,,,,,,,
,,,,,,,,,,,,,FF,,,,,,,,3.633,,,,,,,,,,,,,,,,,,,,,,60fdb937b72fd456da7660c0,6103663d204822def51d1f6d,2021-07-29_20h41.03.502,Simcolourproject_2stim_asymm_v5,2020.2.10,MacIntel,60,61025ae37ef11b136ea224fe,,,,,,,,,1421,83,-49,1,0,0,response3disk,,5,17,-5,1,0,0,rectangle,17,-5,1,0,0,17,-5,1,0,0,0,28,28,63,1,,,,,,,,
,,,,,,,,,,,,,FF,,,,,,,,1.983,,,,,,,,,,,,,,,,,,,,,,60fdb937b72fd456da7660c0,6103663d204822def51d1f6d,2021-07-29_20h41.03.502,Simcolourproject_2stim_asymm_v5,2020.2.10,MacIntel,60,61025ae37ef11b136ea224fe,,,,,,,,,805,-102,57,1,0,0,response7disk,,1,-2,-7,1,0,0,rectangle,-2,-7,1,0,0,-2,-7,1,0,0,0,29,29,86,1,,,,,,,,
,,,,,,,,,,,,,FF,,,,,,,,2.416,,,,,,,,,,,,,,,,,,,,,,60fdb937b72fd456da7660c0,6103663d204822def51d1f6d,2021-07-29_20h41.03.502,Simcolourproject_2stim_asymm_v5,2020.2.10,MacIntel,60,61025ae37ef11b136ea224fe,,,,,,,,,1106,97,37,1,0,0,response1disk,,6,-13,9,1,0,0,rectangle,-13,9,1,0,0,-13,9,1,0,0,0,30,30,73,1,,,,,,,,
,,,,,,,,,,,,,FF,,,,,,,,2.817,,,,,,,,,,,,,,,,,,,,,,60fdb937b72fd456da7660c0,6103663d204822def51d1f6d,2021-07-29_20h41.03.502,Simcolourproject_2stim_asymm_v5,2020.2.10,MacIntel,60,61025ae37ef11b136ea224fe,,,,,,,,,2651,40,-97,1,0,0,response3disk,,4,1,2,1,0,0,rectangle,1,2,1,0,0,1,2,1,0,0,0,31,31,54,1,,,,,,,,
,,,,,,,,,,,,,FF,,,,,,,,1.784,,,,,,,,,,,,,,,,,,,,,,60fdb937b72fd456da7660c0,6103663d204822def51d1f6d,2021-07-29_20h41.03.502,Simcolourproject_2stim_asymm_v5,2020.2.10,MacIntel,60,61025ae37ef11b136ea224fe,,,,,,,,,1679,-106,31,1,0,0,response7disk,,1,-21,-3,1,0,0,rectangle,-21,-3,1,0,0,-21,-3,1,0,0,0,32,32,77,1,,,,,,,,
,,,,,,,,,,,,,FF,,,,,,,,1,,,,,,,,,,,,,,,,,,,,,,60fdb937b72fd456da7660c0,6103663d204822def51d1f6d,2021-07-29_20h41.03.502,Simcolourproject_2stim_asymm_v5,2020.2.10,MacIntel,60,61025ae37ef11b136ea224fe,,,,,,,,,3660,-85,40,1,0,0,response7disk,,1,-7,1,1,0,0,rectangle,-7,1,1,0,0,-7,1,1,0,0,0,33,33,71,1,,,,,,,,
,,,,,,,,,,,,,FF,,,,,,,,4.184,,,,,,,,,,,,,,,,,,,,,,60fdb937b72fd456da7660c0,6103663d204822def51d1f6d,2021-07-29_20h41.03.502,Simcolourproject_2stim_asymm_v5,2020.2.10,MacIntel,60,61025ae37ef11b136ea224fe,,,,,,,,,845,32,-121,1,0,0,response3disk,,4,-11,-3,1,0,0,rectangle,-11,-3,1,0,0,-11,-3,1,0,0,0,34,34,112,1,,,,,,,,
,,,,,,,,,,,,,FF,,,,,,,,7.832,,,,,,,,,,,,,,,,,,,,,,60fdb937b72fd456da7660c0,6103663d204822def51d1f6d,2021-07-29_20h41.03.502,Simcolourproject_2stim_asymm_v5,2020.2.10,MacIntel,60,61025ae37ef11b136ea224fe,,,,,,,,,327,89,-63,1,0,0,response3disk,,5,6,-3,1,0,0,rectangle,6,-3,1,0,0,6,-3,1,0,0,0,35,35,47,1,,,,,,,,
,,,,,,,,,,,,,FF,,,,,,,,1.267,,,,,,,,,,,,,,,,,,,,,,60fdb937b72fd456da7660c0,6103663d204822def51d1f6d,2021-07-29_20h41.03.502,Simcolourproject_2stim_asymm_v5,2020.2.10,MacIntel,60,61025ae37ef11b136ea224fe,,,,,,,,,3015,97,-68,1,0,0,response3disk,,5,0,5,1,0,0,rectangle,0,5,1,0,0,0,5,1,0,0,0,36,36,131,1,,,,,,,,
,,,,,,,,,,,,,FF,,,,,,,,2.967,,,,,,,,,,,,,,,,,,,,,,60fdb937b72fd456da7660c0,6103663d204822def51d1f6d,2021-07-29_20h41.03.502,Simcolourproject_2stim_asymm_v5,2020.2.10,MacIntel,60,61025ae37ef11b136ea224fe,,,,,,,,,305,-41,-95,1,0,0,response5disk,,3,4,3,1,0,0,rectangle,4,3,1,0,0,4,3,1,0,0,0,37,37,109,1,,,,,,,,
,,,,,,,,,,,,,FF,,,,,,,,1.6,,,,,,,,,,,,,,,,,,,,,,60fdb937b72fd456da7660c0,6103663d204822def51d1f6d,2021-07-29_20h41.03.502,Simcolourproject_2stim_asymm_v5,2020.2.10,MacIntel,60,61025ae37ef11b136ea224fe,,,,,,,,,1695,-79,-51,1,0,0,response5disk,,2,2,8,1,0,0,rectangle,42,83,1,0,0,2,-4,1,0,0,0,38,38,16,1,,response1disk_3,TRUE,7,7,"[109,193,304,273,117,237,173,320,95,175,315,63,201,305,135,256,186,39,266,272]",2.901,rectangle
,,,,,,,,,,,,,FF,,,,,,,,2.766,,,,,,,,,,,,,,,,,,,,,,60fdb937b72fd456da7660c0,6103663d204822def51d1f6d,2021-07-29_20h41.03.502,Simcolourproject_2stim_asymm_v5,2020.2.10,MacIntel,60,61025ae37ef11b136ea224fe,,,,,,,,,2866,50,80,1,0,0,response1disk,,7,-8,6,1,0,0,rectangle,-8,6,1,0,0,-8,6,1,0,0,0,39,39,91,1,,,,,,,,
,,,,,,,,,,,,,FF,,,,,,,,3.333,,,,,,,,,,,,,,,,,,,,,,60fdb937b72fd456da7660c0,6103663d204822def51d1f6d,2021-07-29_20h41.03.502,Simcolourproject_2stim_asymm_v5,2020.2.10,MacIntel,60,61025ae37ef11b136ea224fe,,,,,,,,,1791,-87,-43,1,0,0,response5disk,,2,8,2,1,0,0,rectangle,8,2,1,0,0,8,2,1,0,0,0,40,40,25,1,,,,,,,,
,,,,,,,,,,,,,FF,,,,,,,,6.55,,,,,,,,,,,,,,,,,,,,,,60fdb937b72fd456da7660c0,6103663d204822def51d1f6d,2021-07-29_20h41.03.502,Simcolourproject_2stim_asymm_v5,2020.2.10,MacIntel,60,61025ae37ef11b136ea224fe,,,,,,,,,829,-40,-100,1,0,0,response5disk,,3,-7,-11,1,0,0,rectangle,-7,-11,1,0,0,-7,-11,1,0,0,0,41,41,152,1,,,,,,,,
,,,,,,,,,,,,,FF,,,,,,,,1.75,,,,,,,,,,,,,,,,,,,,,,60fdb937b72fd456da7660c0,6103663d204822def51d1f6d,2021-07-29_20h41.03.502,Simcolourproject_2stim_asymm_v5,2020.2.10,MacIntel,60,61025ae37ef11b136ea224fe,,,,,,,,,574,-35,-88,1,0,0,response5disk,,3,-3,-3,1,0,0,rectangle,-3,-3,1,0,0,-3,-3,1,0,0,0,42,42,83,1,,,,,,,,
,,,,,,,,,,,,,FF,,,,,,,,1.732,,,,,,,,,,,,,,,,,,,,,,60fdb937b72fd456da7660c0,6103663d204822def51d1f6d,2021-07-29_20h41.03.502,Simcolourproject_2stim_asymm_v5,2020.2.10,MacIntel,60,61025ae37ef11b136ea224fe,,,,,,,,,3109,-91,-46,1,0,0,response5disk,,2,-13,-4,1,0,0,rectangle,-13,-4,1,0,0,-13,-4,1,0,0,0,43,43,100,1,,,,,,,,
,,,,,,,,,,,,,FF,,,,,,,,2.767,,,,,,,,,,,,,,,,,,,,,,60fdb937b72fd456da7660c0,6103663d204822def51d1f6d,2021-07-29_20h41.03.502,Simcolourproject_2stim_asymm_v5,2020.2.10,MacIntel,60,61025ae37ef11b136ea224fe,,,,,,,,,1863,70,-43,1,0,0,response3disk,,5,4,0,1,0,0,rectangle,4,0,1,0,0,4,0,1,0,0,0,44,44,155,1,,,,,,,,
,,,,,,,,,,,,,FF,,,,,,,,1.283,,,,,,,,,,,,,,,,,,,,,,60fdb937b72fd456da7660c0,6103663d204822def51d1f6d,2021-07-29_20h41.03.502,Simcolourproject_2stim_asymm_v5,2020.2.10,MacIntel,60,61025ae37ef11b136ea224fe,,,,,,,,,1983,-84,-42,1,0,0,response5disk,,2,-19,-5,1,0,0,rectangle,-19,-5,1,0,0,-19,-5,1,0,0,0,45,45,15,1,,,,,,,,
,,,,,,,,,,,,,FF,,,,,,,,2.649,,,,,,,,,,,,,,,,,,,,,,60fdb937b72fd456da7660c0,6103663d204822def51d1f6d,2021-07-29_20h41.03.502,Simcolourproject_2stim_asymm_v5,2020.2.10,MacIntel,60,61025ae37ef11b136ea224fe,,,,,,,,,954,-49,-83,1,0,0,response5disk,,3,2,-1,1,0,0,rectangle,2,-1,1,0,0,2,-1,1,0,0,0,46,46,122,1,,,,,,,,
,,,,,,,,,,,,,FF,,,,,,,,1.433,,,,,,,,,,,,,,,,,,,,,,60fdb937b72fd456da7660c0,6103663d204822def51d1f6d,2021-07-29_20h41.03.502,Simcolourproject_2stim_asymm_v5,2020.2.10,MacIntel,60,61025ae37ef11b136ea224fe,,,,,,,,,3344,-78,-43,1,0,0,response5disk,,2,3,2,1,0,0,rectangle,3,2,1,0,0,3,2,1,0,0,0,47,47,66,1,,,,,,,,
,,,,,,,,,,,,,FF,,,,,,,,1.2,,,,,,,,,,,,,,,,,,,,,,60fdb937b72fd456da7660c0,6103663d204822def51d1f6d,2021-07-29_20h41.03.502,Simcolourproject_2stim_asymm_v5,2020.2.10,MacIntel,60,61025ae37ef11b136ea224fe,,,,,,,,,95,-72,-39,1,0,0,response5disk,,2,-5,-4,1,0,0,rectangle,-5,-4,1,0,0,-5,-4,1,0,0,0,48,48,116,1,,,,,,,,
,,,,,,,,,,,,,FF,,,,,,,,3.801,,,,,,,,,,,,,,,,,,,,,,60fdb937b72fd456da7660c0,6103663d204822def51d1f6d,2021-07-29_20h41.03.502,Simcolourproject_2stim_asymm_v5,2020.2.10,MacIntel,60,61025ae37ef11b136ea224fe,,,,,,,,,3114,35,68,1,0,0,response1disk,,7,-15,-2,1,0,0,rectangle,-15,-2,1,0,0,-15,-2,1,0,0,0,49,49,150,1,,,,,,,,
,,,,,,,,,,,,,FF,,,,,,,,1.766,,,,,,,,,,,,,,,,,,,,,,60fdb937b72fd456da7660c0,6103663d204822def51d1f6d,2021-07-29_20h41.03.502,Simcolourproject_2stim_asymm_v5,2020.2.10,MacIntel,60,61025ae37ef11b136ea224fe,,,,,,,,,3319,72,112,1,0,0,response1disk,,7,-18,-8,1,0,0,rectangle,-18,-8,1,0,0,-18,-8,1,0,0,0,50,50,78,1,,,,,,,,
,,,,,,,,,,,,,FF,,,,,,,,2.049,,,,,,,,,,,,,,,,,,,,,,60fdb937b72fd456da7660c0,6103663d204822def51d1f6d,2021-07-29_20h41.03.502,Simcolourproject_2stim_asymm_v5,2020.2.10,MacIntel,60,61025ae37ef11b136ea224fe,,,,,,,,,639,-80,52,1,0,0,response7disk,,1,6,-7,1,0,0,rectangle,6,-7,1,0,0,6,-7,1,0,0,0,51,51,34,1,,,,,,,,
,,,,,,,,,,,,,FF,,,,,,,,1.484,,,,,,,,,,,,,,,,,,,,,,60fdb937b72fd456da7660c0,6103663d204822def51d1f6d,2021-07-29_20h41.03.502,Simcolourproject_2stim_asymm_v5,2020.2.10,MacIntel,60,61025ae37ef11b136ea224fe,,,,,,,,,2512,49,86,1,0,0,response1disk,,7,4,4,1,0,0,rectangle,4,4,1,0,0,4,4,1,0,0,0,52,52,19,1,,,,,,,,
,,,,,,,,,,,,,FF,,,,,,,,2.099,,,,,,,,,,,,,,,,,,,,,,60fdb937b72fd456da7660c0,6103663d204822def51d1f6d,2021-07-29_20h41.03.502,Simcolourproject_2stim_asymm_v5,2020.2.10,MacIntel,60,61025ae37ef11b136ea224fe,,,,,,,,,759,84,-50,1,0,0,response3disk,,5,15,-6,1,0,0,rectangle,15,-6,1,0,0,15,-6,1,0,0,0,53,53,52,1,,,,,,,,
,,,,,,,,,,,,,FF,,,,,,,,1.134,,,,,,,,,,,,,,,,,,,,,,60fdb937b72fd456da7660c0,6103663d204822def51d1f6d,2021-07-29_20h41.03.502,Simcolourproject_2stim_asymm_v5,2020.2.10,MacIntel,60,61025ae37ef11b136ea224fe,,,,,,,,,3781,-93,-48,1,0,0,response5disk,,2,2,-4,1,0,0,rectangle,2,-4,1,0,0,2,-4,1,0,0,0,54,54,24,1,,,,,,,,
,,,,,,,,,,,,,FF,,,,,,,,0.984,,,,,,,,,,,,,,,,,,,,,,60fdb937b72fd456da7660c0,6103663d204822def51d1f6d,2021-07-29_20h41.03.502,Simcolourproject_2stim_asymm_v5,2020.2.10,MacIntel,60,61025ae37ef11b136ea224fe,,,,,,,,,2422,-94,29,1,0,0,response7disk,,1,5,-5,1,0,0,rectangle,5,-5,1,0,0,5,-5,1,0,0,0,55,55,133,1,,,,,,,,
,,,,,,,,,,,,,FF,,,,,,,,0.9,,,,,,,,,,,,,,,,,,,,,,60fdb937b72fd456da7660c0,6103663d204822def51d1f6d,2021-07-29_20h41.03.502,Simcolourproject_2stim_asymm_v5,2020.2.10,MacIntel,60,61025ae37ef11b136ea224fe,,,,,,,,,1218,-93,35,1,0,0,response7disk,,1,-6,6,1,0,0,rectangle,-6,6,1,0,0,-6,6,1,0,0,0,56,56,111,1,,,,,,,,
,,,,,,,,,,,,,FF,,,,,,,,4.333,,,,,,,,,,,,,,,,,,,,,,60fdb937b72fd456da7660c0,6103663d204822def51d1f6d,2021-07-29_20h41.03.502,Simcolourproject_2stim_asymm_v5,2020.2.10,MacIntel,60,61025ae37ef11b136ea224fe,,,,,,,,,3041,40,-97,1,0,0,response3disk,,4,-2,-1,1,0,0,rectangle,-2,-1,1,0,0,-2,-1,1,0,0,0,57,57,113,1,,,,,,,,
,,,,,,,,,,,,,FF,,,,,,,,1.767,,,,,,,,,,,,,,,,,,,,,,60fdb937b72fd456da7660c0,6103663d204822def51d1f6d,2021-07-29_20h41.03.502,Simcolourproject_2stim_asymm_v5,2020.2.10,MacIntel,60,61025ae37ef11b136ea224fe,,,,,,,,,1316,39,-98,1,0,0,response3disk,,4,-6,4,1,0,0,rectangle,-6,4,1,0,0,-6,4,1,0,0,0,58,58,64,1,,,,,,,,
,,,,,,,,,,,,,FF,,,,,,,,0.983,,,,,,,,,,,,,,,,,,,,,,60fdb937b72fd456da7660c0,6103663d204822def51d1f6d,2021-07-29_20h41.03.502,Simcolourproject_2stim_asymm_v5,2020.2.10,MacIntel,60,61025ae37ef11b136ea224fe,,,,,,,,,3048,-117,37,1,0,0,response7disk,,1,2,-7,1,0,0,rectangle,2,-7,1,0,0,2,-7,1,0,0,0,59,59,97,1,,,,,,,,
,,,,,,,,,,,,,FF,,,,,,,,2.684,,,,,,,,,,,,,,,,,,,,,,60fdb937b72fd456da7660c0,6103663d204822def51d1f6d,2021-07-29_20h41.03.502,Simcolourproject_2stim_asymm_v5,2020.2.10,MacIntel,60,61025ae37ef11b136ea224fe,,,,,,,,,3348,50,-85,1,0,0,response3disk,,4,-7,3,1,0,0,rectangle,-7,3,1,0,0,-7,3,1,0,0,0,60,60,6,1,,,,,,,,
,,,,,,,,,,,,,FF,,,,,,,,0.9,,,,,,,,,,,,,,,,,,,,,,60fdb937b72fd456da7660c0,6103663d204822def51d1f6d,2021-07-29_20h41.03.502,Simcolourproject_2stim_asymm_v5,2020.2.10,MacIntel,60,61025ae37ef11b136ea224fe,,,,,,,,,1600,-101,31,1,0,0,response7disk,,1,9,-5,1,0,0,rectangle,9,-5,1,0,0,9,-5,1,0,0,0,61,61,53,1,,,,,,,,
,,,,,,,,,,,,,FF,,,,,,,,1.2,,,,,,,,,,,,,,,,,,,,,,60fdb937b72fd456da7660c0,6103663d204822def51d1f6d,2021-07-29_20h41.03.502,Simcolourproject_2stim_asymm_v5,2020.2.10,MacIntel,60,61025ae37ef11b136ea224fe,,,,,,,,,1090,81,-35,1,0,0,response3disk,,5,3,3,1,0,0,rectangle,32,-101,1,0,0,-10,-2,1,0,0,0,62,62,118,1,,response3disk_3,TRUE,4,4,"[109,193,304,273,117,237,173,320,95,175,315,63,201,305,135,256,186,39,266,272]",2.45,rectangle
,,,,,,,,,,,,,FF,,,,,,,,3.549,,,,,,,,,,,,,,,,,,,,,,60fdb937b72fd456da7660c0,6103663d204822def51d1f6d,2021-07-29_20h41.03.502,Simcolourproject_2stim_asymm_v5,2020.2.10,MacIntel,60,61025ae37ef11b136ea224fe,,,,,,,,,4330,-92,-58,1,0,0,response5disk,,2,4,-2,1,0,0,rectangle,4,-2,1,0,0,4,-2,1,0,0,0,63,63,10,1,,,,,,,,
,,,,,,,,,,,,,FF,,,,,,,,3.633,,,,,,,,,,,,,,,,,,,,,,60fdb937b72fd456da7660c0,6103663d204822def51d1f6d,2021-07-29_20h41.03.502,Simcolourproject_2stim_asymm_v5,2020.2.10,MacIntel,60,61025ae37ef11b136ea224fe,,,,,,,,,3518,96,-48,1,0,0,response3disk,,5,3,-3,1,0,0,rectangle,3,-3,1,0,0,3,-3,1,0,0,0,64,64,3,1,,,,,,,,
,,,,,,,,,,,,,FF,,,,,,,,5.716,,,,,,,,,,,,,,,,,,,,,,60fdb937b72fd456da7660c0,6103663d204822def51d1f6d,2021-07-29_20h41.03.502,Simcolourproject_2stim_asymm_v5,2020.2.10,MacIntel,60,61025ae37ef11b136ea224fe,,,,,,,,,4302,95,55,1,0,0,response1disk,,6,-12,-5,1,0,0,rectangle,-12,-5,1,0,0,-12,-5,1,0,0,0,65,65,82,1,,,,,,,,
,,,,,,,,,,,,,FF,,,,,,,,1.533,,,,,,,,,,,,,,,,,,,,,,60fdb937b72fd456da7660c0,6103663d204822def51d1f6d,2021-07-29_20h41.03.502,Simcolourproject_2stim_asymm_v5,2020.2.10,MacIntel,60,61025ae37ef11b136ea224fe,,,,,,,,,236,75,23,1,0,0,response1disk,,6,-4,7,1,0,0,rectangle,-4,7,1,0,0,-4,7,1,0,0,0,66,66,93,1,,,,,,,,
,,,,,,,,,,,,,FF,,,,,,,,2.266,,,,,,,,,,,,,,,,,,,,,,60fdb937b72fd456da7660c0,6103663d204822def51d1f6d,2021-07-29_20h41.03.502,Simcolourproject_2stim_asymm_v5,2020.2.10,MacIntel,60,61025ae37ef11b136ea224fe,,,,,,,,,3601,88,-60,1,0,0,response3disk,,5,10,-7,1,0,0,rectangle,10,-7,1,0,0,10,-7,1,0,0,0,67,67,0,1,,,,,,,,
,,,,,,,,,,,,,FF,,,,,,,,2.816,,,,,,,,,,,,,,,,,,,,,,60fdb937b72fd456da7660c0,6103663d204822def51d1f6d,2021-07-29_20h41.03.502,Simcolourproject_2stim_asymm_v5,2020.2.10,MacIntel,60,61025ae37ef11b136ea224fe,,,,,,,,,286,29,-87,1,0,0,response3disk,,4,11,-3,1,0,0,rectangle,11,-3,1,0,0,11,-3,1,0,0,0,68,68,121,1,,,,,,,,
,,,,,,,,,,,,,FF,,,,,,,,3.551,,,,,,,,,,,,,,,,,,,,,,60fdb937b72fd456da7660c0,6103663d204822def51d1f6d,2021-07-29_20h41.03.502,Simcolourproject_2stim_asymm_v5,2020.2.10,MacIntel,60,61025ae37ef11b136ea224fe,,,,,,,,,715,100,32,1,0,0,response1disk,,6,-1,-6,1,0,0,rectangle,-1,-6,1,0,0,-1,-6,1,0,0,0,69,69,104,1,,,,,,,,
,,,,,,,,,,,,,FF,,,,,,,,2.216,,,,,,,,,,,,,,,,,,,,,,60fdb937b72fd456da7660c0,6103663d204822def51d1f6d,2021-07-29_20h41.03.502,Simcolourproject_2stim_asymm_v5,2020.2.10,MacIntel,60,61025ae37ef11b136ea224fe,,,,,,,,,3727,70,-99,1,0,0,response3disk,,4,-6,6,1,0,0,rectangle,-6,6,1,0,0,-6,6,1,0,0,0,70,70,38,1,,,,,,,,
,,,,,,,,,,,,,FF,,,,,,,,2.1,,,,,,,,,,,,,,,,,,,,,,60fdb937b72fd456da7660c0,6103663d204822def51d1f6d,2021-07-29_20h41.03.502,Simcolourproject_2stim_asymm_v5,2020.2.10,MacIntel,60,61025ae37ef11b136ea224fe,,,,,,,,,4060,-87,-45,1,0,0,response5disk,,2,-2,2,1,0,0,rectangle,-2,2,1,0,0,-2,2,1,0,0,0,71,71,80,1,,,,,,,,
,,,,,,,,,,,,,FF,,,,,,,,1.784,,,,,,,,,,,,,,,,,,,,,,60fdb937b72fd456da7660c0,6103663d204822def51d1f6d,2021-07-29_20h41.03.502,Simcolourproject_2stim_asymm_v5,2020.2.10,MacIntel,60,61025ae37ef11b136ea224fe,,,,,,,,,250,-48,-98,1,0,0,response5disk,,3,9,-2,1,0,0,rectangle,9,-2,1,0,0,9,-2,1,0,0,0,72,72,58,1,,,,,,,,
,,,,,,,,,,,,,FF,,,,,,,,3.05,,,,,,,,,,,,,,,,,,,,,,60fdb937b72fd456da7660c0,6103663d204822def51d1f6d,2021-07-29_20h41.03.502,Simcolourproject_2stim_asymm_v5,2020.2.10,MacIntel,60,61025ae37ef11b136ea224fe,,,,,,,,,3523,100,50,1,0,0,response1disk,,6,1,2,1,0,0,rectangle,1,2,1,0,0,1,2,1,0,0,0,73,73,32,1,,,,,,,,
,,,,,,,,,,,,,FF,,,,,,,,2.018,,,,,,,,,,,,,,,,,,,,,,60fdb937b72fd456da7660c0,6103663d204822def51d1f6d,2021-07-29_20h41.03.502,Simcolourproject_2stim_asymm_v5,2020.2.10,MacIntel,60,61025ae37ef11b136ea224fe,,,,,,,,,2309,-41,-92,1,0,0,response5disk,,3,-6,2,1,0,0,rectangle,-6,2,1,0,0,-6,2,1,0,0,0,74,74,49,1,,,,,,,,
,,,,,,,,,,,,,FF,,,,,,,,1.217,,,,,,,,,,,,,,,,,,,,,,60fdb937b72fd456da7660c0,6103663d204822def51d1f6d,2021-07-29_20h41.03.502,Simcolourproject_2stim_asymm_v5,2020.2.10,MacIntel,60,61025ae37ef11b136ea224fe,,,,,,,,,2294,-87,32,1,0,0,response7disk,,1,-7,-3,1,0,0,rectangle,-7,-3,1,0,0,-7,-3,1,0,0,0,75,75,23,1,,,,,,,,
,,,,,,,,,,,,,FF,,,,,,,,2.083,,,,,,,,,,,,,,,,,,,,,,60fdb937b72fd456da7660c0,6103663d204822def51d1f6d,2021-07-29_20h41.03.502,Simcolourproject_2stim_asymm_v5,2020.2.10,MacIntel,60,61025ae37ef11b136ea224fe,,,,,,,,,842,83,-57,1,0,0,response3disk,,5,-11,6,1,0,0,rectangle,-11,6,1,0,0,-11,6,1,0,0,0,76,76,45,1,,,,,,,,
,,,,,,,,,,,,,FF,,,,,,,,1.967,,,,,,,,,,,,,,,,,,,,,,60fdb937b72fd456da7660c0,6103663d204822def51d1f6d,2021-07-29_20h41.03.502,Simcolourproject_2stim_asymm_v5,2020.2.10,MacIntel,60,61025ae37ef11b136ea224fe,,,,,,,,,1015,42,103,1,0,0,response1disk,,7,-4,-4,1,0,0,rectangle,-4,-4,1,0,0,-4,-4,1,0,0,0,77,77,40,1,,,,,,,,
,,,,,,,,,,,,,FF,,,,,,,,2.133,,,,,,,,,,,,,,,,,,,,,,60fdb937b72fd456da7660c0,6103663d204822def51d1f6d,2021-07-29_20h41.03.502,Simcolourproject_2stim_asymm_v5,2020.2.10,MacIntel,60,61025ae37ef11b136ea224fe,,,,,,,,,2148,89,-53,1,0,0,response3disk,,5,6,-3,1,0,0,rectangle,6,-3,1,0,0,6,-3,1,0,0,0,78,78,50,1,,,,,,,,
,,,,,,,,,,,,,FF,,,,,,,,3.467,,,,,,,,,,,,,,,,,,,,,,60fdb937b72fd456da7660c0,6103663d204822def51d1f6d,2021-07-29_20h41.03.502,Simcolourproject_2stim_asymm_v5,2020.2.10,MacIntel,60,61025ae37ef11b136ea224fe,,,,,,,,,2827,37,-101,1,0,0,response3disk,,4,-8,12,1,0,0,rectangle,-8,12,1,0,0,-8,12,1,0,0,0,79,79,148,1,,,,,,,,
,,,,,,,,,,,,,FF,,,,,,,,1.267,,,,,,,,,,,,,,,,,,,,,,60fdb937b72fd456da7660c0,6103663d204822def51d1f6d,2021-07-29_20h41.03.502,Simcolourproject_2stim_asymm_v5,2020.2.10,MacIntel,60,61025ae37ef11b136ea224fe,,,,,,,,,4344,-40,106,1,0,0,response7disk,,0,18,-6,1,0,0,rectangle,18,-6,1,0,0,18,-6,1,0,0,0,80,80,87,1,,,,,,,,
,,,,,,,,,,,,,FF,,,,,,,,0.851,,,,,,,,,,,,,,,,,,,,,,60fdb937b72fd456da7660c0,6103663d204822def51d1f6d,2021-07-29_20h41.03.502,Simcolourproject_2stim_asymm_v5,2020.2.10,MacIntel,60,61025ae37ef11b136ea224fe,,,,,,,,,3006,-81,42,1,0,0,response7disk,,1,8,-6,1,0,0,rectangle,8,-6,1,0,0,8,-6,1,0,0,0,81,81,14,1,,,,,,,,
,,,,,,,,,,,,,FF,,,,,,,,0.816,,,,,,,,,,,,,,,,,,,,,,60fdb937b72fd456da7660c0,6103663d204822def51d1f6d,2021-07-29_20h41.03.502,Simcolourproject_2stim_asymm_v5,2020.2.10,MacIntel,60,61025ae37ef11b136ea224fe,,,,,,,,,3510,-44,90,1,0,0,response7disk,,0,-12,1,1,0,0,rectangle,-12,1,1,0,0,-12,1,1,0,0,0,82,82,75,1,,,,,,,,
,,,,,,,,,,,,,FF,,,,,,,,1.482,,,,,,,,,,,,,,,,,,,,,,60fdb937b72fd456da7660c0,6103663d204822def51d1f6d,2021-07-29_20h41.03.502,Simcolourproject_2stim_asymm_v5,2020.2.10,MacIntel,60,61025ae37ef11b136ea224fe,,,,,,,,,2638,51,85,1,0,0,response1disk,,7,-5,-9,1,0,0,rectangle,-5,-9,1,0,0,-5,-9,1,0,0,0,83,83,157,1,,,,,,,,
,,,,,,,,,,,,,FF,,,,,,,,0.984,,,,,,,,,,,,,,,,,,,,,,60fdb937b72fd456da7660c0,6103663d204822def51d1f6d,2021-07-29_20h41.03.502,Simcolourproject_2stim_asymm_v5,2020.2.10,MacIntel,60,61025ae37ef11b136ea224fe,,,,,,,,,1458,-65,38,1,0,0,response7disk,,1,3,-8,1,0,0,rectangle,3,-8,1,0,0,3,-8,1,0,0,0,84,84,127,1,,,,,,,,
,,,,,,,,,,,,,FF,,,,,,,,1.501,,,,,,,,,,,,,,,,,,,,,,60fdb937b72fd456da7660c0,6103663d204822def51d1f6d,2021-07-29_20h41.03.502,Simcolourproject_2stim_asymm_v5,2020.2.10,MacIntel,60,61025ae37ef11b136ea224fe,,,,,,,,,2829,60,-109,1,0,0,response3disk,,4,8,6,1,0,0,rectangle,8,6,1,0,0,8,6,1,0,0,0,85,85,62,1,,,,,,,,
,,,,,,,,,,,,,FF,,,,,,,,3.8,,,,,,,,,,,,,,,,,,,,,,60fdb937b72fd456da7660c0,6103663d204822def51d1f6d,2021-07-29_20h41.03.502,Simcolourproject_2stim_asymm_v5,2020.2.10,MacIntel,60,61025ae37ef11b136ea224fe,,,,,,,,,431,34,-86,1,0,0,response3disk,,4,-2,-1,1,0,0,rectangle,-2,-1,1,0,0,-2,-1,1,0,0,0,86,86,46,1,,,,,,,,
,,,,,,,,,,,,,FF,,,,,,,,5.266,,,,,,,,,,,,,,,,,,,,,,60fdb937b72fd456da7660c0,6103663d204822def51d1f6d,2021-07-29_20h41.03.502,Simcolourproject_2stim_asymm_v5,2020.2.10,MacIntel,60,61025ae37ef11b136ea224fe,,,,,,,,,3354,109,27,1,0,0,response1disk,,6,6,0,1,0,0,rectangle,6,0,1,0,0,6,0,1,0,0,0,87,87,159,1,,,,,,,,
,,,,,,,,,,,,,FF,,,,,,,,3.782,,,,,,,,,,,,,,,,,,,,,,60fdb937b72fd456da7660c0,6103663d204822def51d1f6d,2021-07-29_20h41.03.502,Simcolourproject_2stim_asymm_v5,2020.2.10,MacIntel,60,61025ae37ef11b136ea224fe,,,,,,,,,1175,77,33,1,0,0,response1disk,,6,5,3,1,0,0,rectangle,5,3,1,0,0,5,3,1,0,0,0,88,88,81,1,,,,,,,,
,,,,,,,,,,,,,FF,,,,,,,,2.584,,,,,,,,,,,,,,,,,,,,,,60fdb937b72fd456da7660c0,6103663d204822def51d1f6d,2021-07-29_20h41.03.502,Simcolourproject_2stim_asymm_v5,2020.2.10,MacIntel,60,61025ae37ef11b136ea224fe,,,,,,,,,1029,49,-92,1,0,0,response3disk,,4,6,-5,1,0,0,rectangle,6,-5,1,0,0,6,-5,1,0,0,0,89,89,48,1,,,,,,,,
,,,,,,,,,,,,,FF,,,,,,,,1.483,,,,,,,,,,,,,,,,,,,,,,60fdb937b72fd456da7660c0,6103663d204822def51d1f6d,2021-07-29_20h41.03.502,Simcolourproject_2stim_asymm_v5,2020.2.10,MacIntel,60,61025ae37ef11b136ea224fe,,,,,,,,,997,103,-53,1,0,0,response3disk,,5,10,-5,1,0,0,rectangle,10,-5,1,0,0,10,-5,1,0,0,0,90,90,8,1,,,,,,,,
,,,,,,,,,,,,,FF,,,,,,,,2.267,,,,,,,,,,,,,,,,,,,,,,60fdb937b72fd456da7660c0,6103663d204822def51d1f6d,2021-07-29_20h41.03.502,Simcolourproject_2stim_asymm_v5,2020.2.10,MacIntel,60,61025ae37ef11b136ea224fe,,,,,,,,,3697,-32,-108,1,0,0,response5disk,,3,-12,-5,1,0,0,rectangle,-12,-5,1,0,0,-12,-5,1,0,0,0,91,91,76,1,,,,,,,,
,,,,,,,,,,,,,FF,,,,,,,,4.483,,,,,,,,,,,,,,,,,,,,,,60fdb937b72fd456da7660c0,6103663d204822def51d1f6d,2021-07-29_20h41.03.502,Simcolourproject_2stim_asymm_v5,2020.2.10,MacIntel,60,61025ae37ef11b136ea224fe,,,,,,,,,3948,-28,-85,1,0,0,response5disk,,3,-15,-6,1,0,0,rectangle,-15,-6,1,0,0,-15,-6,1,0,0,0,92,92,142,1,,,,,,,,
,,,,,,,,,,,,,FF,,,,,,,,1.832,,,,,,,,,,,,,,,,,,,,,,60fdb937b72fd456da7660c0,6103663d204822def51d1f6d,2021-07-29_20h41.03.502,Simcolourproject_2stim_asymm_v5,2020.2.10,MacIntel,60,61025ae37ef11b136ea224fe,,,,,,,,,4108,-26,-90,1,0,0,response5disk,,3,-2,4,1,0,0,rectangle,-2,4,1,0,0,-2,4,1,0,0,0,93,93,139,1,,,,,,,,
,,,,,,,,,,,,,FF,,,,,,,,1.949,,,,,,,,,,,,,,,,,,,,,,60fdb937b72fd456da7660c0,6103663d204822def51d1f6d,2021-07-29_20h41.03.502,Simcolourproject_2stim_asymm_v5,2020.2.10,MacIntel,60,61025ae37ef11b136ea224fe,,,,,,,,,441,-92,-43,1,0,0,response5disk,,2,3,0,1,0,0,rectangle,79,49,1,0,0,11,-2,1,0,0,0,94,94,33,1,,response1disk_3,TRUE,6,6,"[109,193,304,273,117,237,173,320,95,175,315,63,201,305,135,256,186,39,266,272]",1.966,rectangle
,,,,,,,,,,,,,FF,,,,,,,,1.632,,,,,,,,,,,,,,,,,,,,,,60fdb937b72fd456da7660c0,6103663d204822def51d1f6d,2021-07-29_20h41.03.502,Simcolourproject_2stim_asymm_v5,2020.2.10,MacIntel,60,61025ae37ef11b136ea224fe,,,,,,,,,4061,-34,-116,1,0,0,response5disk,,3,7,0,1,0,0,rectangle,7,0,1,0,0,7,0,1,0,0,0,95,95,57,1,,,,,,,,
,,,,,,,,,,,,,FF,,,,,,,,5.649,,,,,,,,,,,,,,,,,,,,,,60fdb937b72fd456da7660c0,6103663d204822def51d1f6d,2021-07-29_20h41.03.502,Simcolourproject_2stim_asymm_v5,2020.2.10,MacIntel,60,61025ae37ef11b136ea224fe,,,,,,,,,1259,81,-61,1,0,0,response3disk,,5,-9,-3,1,0,0,rectangle,-9,-3,1,0,0,-9,-3,1,0,0,0,96,96,107,1,,,,,,,,
,,,,,,,,,,,,,FF,,,,,,,,1.649,,,,,,,,,,,,,,,,,,,,,,60fdb937b72fd456da7660c0,6103663d204822def51d1f6d,2021-07-29_20h41.03.502,Simcolourproject_2stim_asymm_v5,2020.2.10,MacIntel,60,61025ae37ef11b136ea224fe,,,,,,,,,3866,98,-54,1,0,0,response3disk,,5,-13,3,1,0,0,rectangle,-13,3,1,0,0,-13,3,1,0,0,0,97,97,102,1,,,,,,,,
,,,,,,,,,,,,,FF,,,,,,,,3.034,,,,,,,,,,,,,,,,,,,,,,60fdb937b72fd456da7660c0,6103663d204822def51d1f6d,2021-07-29_20h41.03.502,Simcolourproject_2stim_asymm_v5,2020.2.10,MacIntel,60,61025ae37ef11b136ea224fe,,,,,,,,,424,43,84,1,0,0,response1disk,,7,6,-7,1,0,0,rectangle,6,-7,1,0,0,6,-7,1,0,0,0,98,98,126,1,,,,,,,,
,,,,,,,,,,,,,FF,,,,,,,,1.799,,,,,,,,,,,,,,,,,,,,,,60fdb937b72fd456da7660c0,6103663d204822def51d1f6d,2021-07-29_20h41.03.502,Simcolourproject_2stim_asymm_v5,2020.2.10,MacIntel,60,61025ae37ef11b136ea224fe,,,,,,,,,1318,96,-42,1,0,0,response3disk,,5,-2,-2,1,0,0,rectangle,-2,-2,1,0,0,-2,-2,1,0,0,0,99,99,70,1,,,,,,,,
,,,,,,,,,,,,,FF,,,,,,,,2.434,,,,,,,,,,,,,,,,,,,,,,60fdb937b72fd456da7660c0,6103663d204822def51d1f6d,2021-07-29_20h41.03.502,Simcolourproject_2stim_asymm_v5,2020.2.10,MacIntel,60,61025ae37ef11b136ea224fe,,,,,,,,,2995,-98,-59,1,0,0,response5disk,,2,-5,-3,1,0,0,rectangle,-5,-3,1,0,0,-5,-3,1,0,0,0,100,100,143,1,,,,,,,,
,,,,,,,,,,,,,FF,,,,,,,,2.65,,,,,,,,,,,,,,,,,,,,,,60fdb937b72fd456da7660c0,6103663d204822def51d1f6d,2021-07-29_20h41.03.502,Simcolourproject_2stim_asymm_v5,2020.2.10,MacIntel,60,61025ae37ef11b136ea224fe,,,,,,,,,3693,87,37,1,0,0,response1disk,,6,-6,-3,1,0,0,rectangle,-6,-3,1,0,0,-6,-3,1,0,0,0,101,101,79,1,,,,,,,,
,,,,,,,,,,,,,FF,,,,,,,,1.75,,,,,,,,,,,,,,,,,,,,,,60fdb937b72fd456da7660c0,6103663d204822def51d1f6d,2021-07-29_20h41.03.502,Simcolourproject_2stim_asymm_v5,2020.2.10,MacIntel,60,61025ae37ef11b136ea224fe,,,,,,,,,3580,34,65,1,0,0,response1disk,,7,-5,1,1,0,0,rectangle,-5,1,1,0,0,-5,1,1,0,0,0,102,102,144,1,,,,,,,,
,,,,,,,,,,,,,FF,,,,,,,,3.599,,,,,,,,,,,,,,,,,,,,,,60fdb937b72fd456da7660c0,6103663d204822def51d1f6d,2021-07-29_20h41.03.502,Simcolourproject_2stim_asymm_v5,2020.2.10,MacIntel,60,61025ae37ef11b136ea224fe,,,,,,,,,3931,101,-56,1,0,0,response3disk,,5,-16,-9,1,0,0,rectangle,-16,-9,1,0,0,-16,-9,1,0,0,0,103,103,103,1,,,,,,,,
,,,,,,,,,,,,,FF,,,,,,,,2.666,,,,,,,,,,,,,,,,,,,,,,60fdb937b72fd456da7660c0,6103663d204822def51d1f6d,2021-07-29_20h41.03.502,Simcolourproject_2stim_asymm_v5,2020.2.10,MacIntel,60,61025ae37ef11b136ea224fe,,,,,,,,,3752,53,-94,1,0,0,response3disk,,4,0,-9,1,0,0,rectangle,0,-9,1,0,0,0,-9,1,0,0,0,104,104,129,1,,,,,,,,
,,,,,,,,,,,,,FF,,,,,,,,1.783,,,,,,,,,,,,,,,,,,,,,,60fdb937b72fd456da7660c0,6103663d204822def51d1f6d,2021-07-29_20h41.03.502,Simcolourproject_2stim_asymm_v5,2020.2.10,MacIntel,60,61025ae37ef11b136ea224fe,,,,,,,,,610,54,-104,1,0,0,response3disk,,4,2,8,1,0,0,rectangle,2,8,1,0,0,2,8,1,0,0,0,105,105,108,1,,,,,,,,
,,,,,,,,,,,,,FF,,,,,,,,4.466,,,,,,,,,,,,,,,,,,,,,,60fdb937b72fd456da7660c0,6103663d204822def51d1f6d,2021-07-29_20h41.03.502,Simcolourproject_2stim_asymm_v5,2020.2.10,MacIntel,60,61025ae37ef11b136ea224fe,,,,,,,,,313,104,-28,1,0,0,response3disk,,5,-17,0,1,0,0,rectangle,-17,0,1,0,0,-17,0,1,0,0,0,106,106,51,1,,,,,,,,
,,,,,,,,,,,,,FF,,,,,,,,3.315,,,,,,,,,,,,,,,,,,,,,,60fdb937b72fd456da7660c0,6103663d204822def51d1f6d,2021-07-29_20h41.03.502,Simcolourproject_2stim_asymm_v5,2020.2.10,MacIntel,60,61025ae37ef11b136ea224fe,,,,,,,,,1795,58,-78,1,0,0,response3disk,,4,-5,2,1,0,0,rectangle,-5,2,1,0,0,-5,2,1,0,0,0,107,107,134,1,,,,,,,,
,,,,,,,,,,,,,FF,,,,,,,,1.117,,,,,,,,,,,,,,,,,,,,,,60fdb937b72fd456da7660c0,6103663d204822def51d1f6d,2021-07-29_20h41.03.502,Simcolourproject_2stim_asymm_v5,2020.2.10,MacIntel,60,61025ae37ef11b136ea224fe,,,,,,,,,3293,-87,31,1,0,0,response7disk,,1,10,-9,1,0,0,rectangle,77,-50,1,0,0,-2,-4,1,0,0,0,108,108,27,1,,response3disk_3,TRUE,5,5,"[109,193,304,273,117,237,173,320,95,175,315,63,201,305,135,256,186,39,266,272]",1.983,rectangle
,,,,,,,,,,,,,FF,,,,,,,,2.951,,,,,,,,,,,,,,,,,,,,,,60fdb937b72fd456da7660c0,6103663d204822def51d1f6d,2021-07-29_20h41.03.502,Simcolourproject_2stim_asymm_v5,2020.2.10,MacIntel,60,61025ae37ef11b136ea224fe,,,,,,,,,2639,104,-54,1,0,0,response3disk,,5,10,-1,1,0,0,rectangle,10,-1,1,0,0,10,-1,1,0,0,0,109,109,31,1,,,,,,,,
,,,,,,,,,,,,,FF,,,,,,,,1.932,,,,,,,,,,,,,,,,,,,,,,60fdb937b72fd456da7660c0,6103663d204822def51d1f6d,2021-07-29_20h41.03.502,Simcolourproject_2stim_asymm_v5,2020.2.10,MacIntel,60,61025ae37ef11b136ea224fe,,,,,,,,,2062,66,-97,1,0,0,response3disk,,4,-5,6,1,0,0,rectangle,-5,6,1,0,0,-5,6,1,0,0,0,110,110,105,1,,,,,,,,
,,,,,,,,,,,,,FF,,,,,,,,4.235,,,,,,,,,,,,,,,,,,,,,,60fdb937b72fd456da7660c0,6103663d204822def51d1f6d,2021-07-29_20h41.03.502,Simcolourproject_2stim_asymm_v5,2020.2.10,MacIntel,60,61025ae37ef11b136ea224fe,,,,,,,,,419,112,-43,1,0,0,response3disk,,5,5,-4,1,0,0,rectangle,5,-4,1,0,0,5,-4,1,0,0,0,111,111,149,1,,,,,,,,
,,,,,,,,,,,,,FF,,,,,,,,4.05,,,,,,,,,,,,,,,,,,,,,,60fdb937b72fd456da7660c0,6103663d204822def51d1f6d,2021-07-29_20h41.03.502,Simcolourproject_2stim_asymm_v5,2020.2.10,MacIntel,60,61025ae37ef11b136ea224fe,,,,,,,,,4154,96,-43,1,0,0,response3disk,,5,16,-1,1,0,0,rectangle,16,-1,1,0,0,16,-1,1,0,0,0,112,112,94,1,,,,,,,,
,,,,,,,,,,,,,FF,,,,,,,,1.466,,,,,,,,,,,,,,,,,,,,,,60fdb937b72fd456da7660c0,6103663d204822def51d1f6d,2021-07-29_20h41.03.502,Simcolourproject_2stim_asymm_v5,2020.2.10,MacIntel,60,61025ae37ef11b136ea224fe,,,,,,,,,2178,-32,-114,1,0,0,response5disk,,3,6,1,1,0,0,rectangle,6,1,1,0,0,6,1,1,0,0,0,113,113,59,1,,,,,,,,
,,,,,,,,,,,,,FF,,,,,,,,3.984,,,,,,,,,,,,,,,,,,,,,,60fdb937b72fd456da7660c0,6103663d204822def51d1f6d,2021-07-29_20h41.03.502,Simcolourproject_2stim_asymm_v5,2020.2.10,MacIntel,60,61025ae37ef11b136ea224fe,,,,,,,,,604,48,83,1,0,0,response1disk,,7,-3,-12,1,0,0,rectangle,-3,-12,1,0,0,-3,-12,1,0,0,0,114,114,96,1,,,,,,,,
,,,,,,,,,,,,,FF,,,,,,,,2.467,,,,,,,,,,,,,,,,,,,,,,60fdb937b72fd456da7660c0,6103663d204822def51d1f6d,2021-07-29_20h41.03.502,Simcolourproject_2stim_asymm_v5,2020.2.10,MacIntel,60,61025ae37ef11b136ea224fe,,,,,,,,,623,96,-35,1,0,0,response3disk,,5,-15,6,1,0,0,rectangle,-15,6,1,0,0,-15,6,1,0,0,0,115,115,114,1,,,,,,,,
,,,,,,,,,,,,,FF,,,,,,,,1.049,,,,,,,,,,,,,,,,,,,,,,60fdb937b72fd456da7660c0,6103663d204822def51d1f6d,2021-07-29_20h41.03.502,Simcolourproject_2stim_asymm_v5,2020.2.10,MacIntel,60,61025ae37ef11b136ea224fe,,,,,,,,,448,103,-30,1,0,0,response3disk,,5,-6,6,1,0,0,rectangle,47,-91,1,0,0,-5,7,1,0,0,0,116,116,95,1,,response3disk_3,TRUE,4,4,"[109,193,304,273,117,237,173,320,95,175,315,63,201,305,135,256,186,39,266,272]",2.265,rectangle
,,,,,,,,,,,,,FF,,,,,,,,2.101,,,,,,,,,,,,,,,,,,,,,,60fdb937b72fd456da7660c0,6103663d204822def51d1f6d,2021-07-29_20h41.03.502,Simcolourproject_2stim_asymm_v5,2020.2.10,MacIntel,60,61025ae37ef11b136ea224fe,,,,,,,,,1096,34,94,1,0,0,response1disk,,7,-4,-1,1,0,0,rectangle,-4,-1,1,0,0,-4,-1,1,0,0,0,117,117,90,1,,,,,,,,
,,,,,,,,,,,,,FF,,,,,,,,2.817,,,,,,,,,,,,,,,,,,,,,,60fdb937b72fd456da7660c0,6103663d204822def51d1f6d,2021-07-29_20h41.03.502,Simcolourproject_2stim_asymm_v5,2020.2.10,MacIntel,60,61025ae37ef11b136ea224fe,,,,,,,,,1926,27,80,1,0,0,response1disk,,7,5,-6,1,0,0,rectangle,5,-6,1,0,0,5,-6,1,0,0,0,118,118,12,1,,,,,,,,
,,,,,,,,,,,,,FF,,,,,,,,2.233,,,,,,,,,,,,,,,,,,,,,,60fdb937b72fd456da7660c0,6103663d204822def51d1f6d,2021-07-29_20h41.03.502,Simcolourproject_2stim_asymm_v5,2020.2.10,MacIntel,60,61025ae37ef11b136ea224fe,,,,,,,,,1116,74,-98,1,0,0,response3disk,,4,9,-3,1,0,0,rectangle,9,-3,1,0,0,9,-3,1,0,0,0,119,119,43,1,,,,,,,,
,,,,,,,,,,,,,FF,,,,,,,,1.867,,,,,,,,,,,,,,,,,,,,,,60fdb937b72fd456da7660c0,6103663d204822def51d1f6d,2021-07-29_20h41.03.502,Simcolourproject_2stim_asymm_v5,2020.2.10,MacIntel,60,61025ae37ef11b136ea224fe,,,,,,,,,3253,-31,-98,1,0,0,response5disk,,3,-12,-7,1,0,0,rectangle,-12,-7,1,0,0,-12,-7,1,0,0,0,120,120,89,1,,,,,,,,
,,,,,,,,,,,,,FF,,,,,,,,1.583,,,,,,,,,,,,,,,,,,,,,,60fdb937b72fd456da7660c0,6103663d204822def51d1f6d,2021-07-29_20h41.03.502,Simcolourproject_2stim_asymm_v5,2020.2.10,MacIntel,60,61025ae37ef11b136ea224fe,,,,,,,,,4223,-86,-43,1,0,0,response5disk,,2,13,0,1,0,0,rectangle,13,0,1,0,0,13,0,1,0,0,0,121,121,9,1,,,,,,,,
,,,,,,,,,,,,,FF,,,,,,,,2.334,,,,,,,,,,,,,,,,,,,,,,60fdb937b72fd456da7660c0,6103663d204822def51d1f6d,2021-07-29_20h41.03.502,Simcolourproject_2stim_asymm_v5,2020.2.10,MacIntel,60,61025ae37ef11b136ea224fe,,,,,,,,,1656,55,-74,1,0,0,response3disk,,4,7,5,1,0,0,rectangle,7,5,1,0,0,7,5,1,0,0,0,122,122,61,1,,,,,,,,
,,,,,,,,,,,,,FF,,,,,,,,4.833,,,,,,,,,,,,,,,,,,,,,,60fdb937b72fd456da7660c0,6103663d204822def51d1f6d,2021-07-29_20h41.03.502,Simcolourproject_2stim_asymm_v5,2020.2.10,MacIntel,60,61025ae37ef11b136ea224fe,,,,,,,,,421,94,-58,1,0,0,response3disk,,5,-8,7,1,0,0,rectangle,-8,7,1,0,0,-8,7,1,0,0,0,123,123,128,1,,,,,,,,
,,,,,,,,,,,,,FF,,,,,,,,1.284,,,,,,,,,,,,,,,,,,,,,,60fdb937b72fd456da7660c0,6103663d204822def51d1f6d,2021-07-29_20h41.03.502,Simcolourproject_2stim_asymm_v5,2020.2.10,MacIntel,60,61025ae37ef11b136ea224fe,,,,,,,,,3599,-97,40,1,0,0,response7disk,,1,2,4,1,0,0,rectangle,2,4,1,0,0,2,4,1,0,0,0,124,124,20,1,,,,,,,,
,,,,,,,,,,,,,FF,,,,,,,,3.7,,,,,,,,,,,,,,,,,,,,,,60fdb937b72fd456da7660c0,6103663d204822def51d1f6d,2021-07-29_20h41.03.502,Simcolourproject_2stim_asymm_v5,2020.2.10,MacIntel,60,61025ae37ef11b136ea224fe,,,,,,,,,1509,100,-55,1,0,0,response3disk,,5,8,0,1,0,0,rectangle,8,0,1,0,0,8,0,1,0,0,0,125,125,44,1,,,,,,,,
,,,,,,,,,,,,,FF,,,,,,,,1.116,,,,,,,,,,,,,,,,,,,,,,60fdb937b72fd456da7660c0,6103663d204822def51d1f6d,2021-07-29_20h41.03.502,Simcolourproject_2stim_asymm_v5,2020.2.10,MacIntel,60,61025ae37ef11b136ea224fe,,,,,,,,,207,71,-38,1,0,0,response3disk,,5,-7,14,1,0,0,rectangle,-7,14,1,0,0,-7,14,1,0,0,0,126,126,119,1,,,,,,,,
,,,,,,,,,,,,,FF,,,,,,,,2,,,,,,,,,,,,,,,,,,,,,,60fdb937b72fd456da7660c0,6103663d204822def51d1f6d,2021-07-29_20h41.03.502,Simcolourproject_2stim_asymm_v5,2020.2.10,MacIntel,60,61025ae37ef11b136ea224fe,,,,,,,,,1991,112,35,1,0,0,response1disk,,6,-2,-5,1,0,0,rectangle,-2,-5,1,0,0,-2,-5,1,0,0,0,127,127,56,1,,,,,,,,
,,,,,,,,,,,,,FF,,,,,,,,3.85,,,,,,,,,,,,,,,,,,,,,,60fdb937b72fd456da7660c0,6103663d204822def51d1f6d,2021-07-29_20h41.03.502,Simcolourproject_2stim_asymm_v5,2020.2.10,MacIntel,60,61025ae37ef11b136ea224fe,,,,,,,,,4260,78,44,1,0,0,response1disk,,6,11,3,1,0,0,rectangle,11,3,1,0,0,11,3,1,0,0,0,128,128,42,1,,,,,,,,
,,,,,,,,,,,,,FF,,,,,,,,2.166,,,,,,,,,,,,,,,,,,,,,,60fdb937b72fd456da7660c0,6103663d204822def51d1f6d,2021-07-29_20h41.03.502,Simcolourproject_2stim_asymm_v5,2020.2.10,MacIntel,60,61025ae37ef11b136ea224fe,,,,,,,,,3992,47,-75,1,0,0,response3disk,,4,5,-7,1,0,0,rectangle,5,-7,1,0,0,5,-7,1,0,0,0,129,129,130,1,,,,,,,,
,,,,,,,,,,,,,FF,,,,,,,,1.417,,,,,,,,,,,,,,,,,,,,,,60fdb937b72fd456da7660c0,6103663d204822def51d1f6d,2021-07-29_20h41.03.502,Simcolourproject_2stim_asymm_v5,2020.2.10,MacIntel,60,61025ae37ef11b136ea224fe,,,,,,,,,1752,-72,-49,1,0,0,response5disk,,2,-5,17,1,0,0,rectangle,-5,17,1,0,0,-5,17,1,0,0,0,130,130,65,1,,,,,,,,
,,,,,,,,,,,,,FF,,,,,,,,2.699,,,,,,,,,,,,,,,,,,,,,,60fdb937b72fd456da7660c0,6103663d204822def51d1f6d,2021-07-29_20h41.03.502,Simcolourproject_2stim_asymm_v5,2020.2.10,MacIntel,60,61025ae37ef11b136ea224fe,,,,,,,,,2398,108,34,1,0,0,response1disk,,6,-9,-5,1,0,0,rectangle,-9,-5,1,0,0,-9,-5,1,0,0,0,131,131,158,1,,,,,,,,
,,,,,,,,,,,,,FF,,,,,,,,1.55,,,,,,,,,,,,,,,,,,,,,,60fdb937b72fd456da7660c0,6103663d204822def51d1f6d,2021-07-29_20h41.03.502,Simcolourproject_2stim_asymm_v5,2020.2.10,MacIntel,60,61025ae37ef11b136ea224fe,,,,,,,,,3416,80,-50,1,0,0,response3disk,,5,11,-4,1,0,0,rectangle,11,-4,1,0,0,11,-4,1,0,0,0,132,132,69,1,,,,,,,,
,,,,,,,,,,,,,FF,,,,,,,,5.799,,,,,,,,,,,,,,,,,,,,,,60fdb937b72fd456da7660c0,6103663d204822def51d1f6d,2021-07-29_20h41.03.502,Simcolourproject_2stim_asymm_v5,2020.2.10,MacIntel,60,61025ae37ef11b136ea224fe,,,,,,,,,3564,102,55,1,0,0,response1disk,,6,-5,7,1,0,0,rectangle,-5,7,1,0,0,-5,7,1,0,0,0,133,133,115,1,,,,,,,,
,,,,,,,,,,,,,FF,,,,,,,,1.316,,,,,,,,,,,,,,,,,,,,,,60fdb937b72fd456da7660c0,6103663d204822def51d1f6d,2021-07-29_20h41.03.502,Simcolourproject_2stim_asymm_v5,2020.2.10,MacIntel,60,61025ae37ef11b136ea224fe,,,,,,,,,3503,-97,-46,1,0,0,response5disk,,2,-7,-1,1,0,0,rectangle,-44,87,1,0,0,1,-1,1,0,0,0,134,134,29,1,,response7disk_3,TRUE,0,0,"[109,193,304,273,117,237,173,320,95,175,315,63,201,305,135,256,186,39,266,272]",1.997,rectangle
,,,,,,,,,,,,,FF,,,,,,,,3.817,,,,,,,,,,,,,,,,,,,,,,60fdb937b72fd456da7660c0,6103663d204822def51d1f6d,2021-07-29_20h41.03.502,Simcolourproject_2stim_asymm_v5,2020.2.10,MacIntel,60,61025ae37ef11b136ea224fe,,,,,,,,,1591,44,-81,1,0,0,response3disk,,4,-9,-2,1,0,0,rectangle,-9,-2,1,0,0,-9,-2,1,0,0,0,135,135,141,1,,,,,,,,
,,,,,,,,,,,,,FF,,,,,,,,2.751,,,,,,,,,,,,,,,,,,,,,,60fdb937b72fd456da7660c0,6103663d204822def51d1f6d,2021-07-29_20h41.03.502,Simcolourproject_2stim_asymm_v5,2020.2.10,MacIntel,60,61025ae37ef11b136ea224fe,,,,,,,,,4011,90,-28,1,0,0,response3disk,,5,2,0,1,0,0,rectangle,2,0,1,0,0,2,0,1,0,0,0,136,136,145,1,,,,,,,,
,,,,,,,,,,,,,FF,,,,,,,,1.467,,,,,,,,,,,,,,,,,,,,,,60fdb937b72fd456da7660c0,6103663d204822def51d1f6d,2021-07-29_20h41.03.502,Simcolourproject_2stim_asymm_v5,2020.2.10,MacIntel,60,61025ae37ef11b136ea224fe,,,,,,,,,903,45,-95,1,0,0,response3disk,,4,-13,-1,1,0,0,rectangle,-13,-1,1,0,0,-13,-1,1,0,0,0,137,137,106,1,,,,,,,,
,,,,,,,,,,,,,FF,,,,,,,,1.116,,,,,,,,,,,,,,,,,,,,,,60fdb937b72fd456da7660c0,6103663d204822def51d1f6d,2021-07-29_20h41.03.502,Simcolourproject_2stim_asymm_v5,2020.2.10,MacIntel,60,61025ae37ef11b136ea224fe,,,,,,,,,4362,-60,93,1,0,0,response7disk,,0,-5,2,1,0,0,rectangle,-5,2,1,0,0,-5,2,1,0,0,0,138,138,41,1,,,,,,,,
,,,,,,,,,,,,,FF,,,,,,,,2.516,,,,,,,,,,,,,,,,,,,,,,60fdb937b72fd456da7660c0,6103663d204822def51d1f6d,2021-07-29_20h41.03.502,Simcolourproject_2stim_asymm_v5,2020.2.10,MacIntel,60,61025ae37ef11b136ea224fe,,,,,,,,,2321,97,31,1,0,0,response1disk,,6,1,-5,1,0,0,rectangle,1,-5,1,0,0,1,-5,1,0,0,0,139,139,18,1,,,,,,,,
,,,,,,,,,,,,,FF,,,,,,,,1.633,,,,,,,,,,,,,,,,,,,,,,60fdb937b72fd456da7660c0,6103663d204822def51d1f6d,2021-07-29_20h41.03.502,Simcolourproject_2stim_asymm_v5,2020.2.10,MacIntel,60,61025ae37ef11b136ea224fe,,,,,,,,,2285,63,-91,1,0,0,response3disk,,4,-15,10,1,0,0,rectangle,-15,10,1,0,0,-15,10,1,0,0,0,140,140,68,1,,,,,,,,
,,,,,,,,,,,,,FF,,,,,,,,2.216,,,,,,,,,,,,,,,,,,,,,,60fdb937b72fd456da7660c0,6103663d204822def51d1f6d,2021-07-29_20h41.03.502,Simcolourproject_2stim_asymm_v5,2020.2.10,MacIntel,60,61025ae37ef11b136ea224fe,,,,,,,,,1744,-97,52,1,0,0,response7disk,,1,-4,5,1,0,0,rectangle,-4,5,1,0,0,-4,5,1,0,0,0,141,141,151,1,,,,,,,,
,,,,,,,,,,,,,FF,,,,,,,,1.683,,,,,,,,,,,,,,,,,,,,,,60fdb937b72fd456da7660c0,6103663d204822def51d1f6d,2021-07-29_20h41.03.502,Simcolourproject_2stim_asymm_v5,2020.2.10,MacIntel,60,61025ae37ef11b136ea224fe,,,,,,,,,1216,-81,-44,1,0,0,response5disk,,2,-1,0,1,0,0,rectangle,-1,0,1,0,0,-1,0,1,0,0,0,142,142,123,1,,,,,,,,
,,,,,,,,,,,,,FF,,,,,,,,1.384,,,,,,,,,,,,,,,,,,,,,,60fdb937b72fd456da7660c0,6103663d204822def51d1f6d,2021-07-29_20h41.03.502,Simcolourproject_2stim_asymm_v5,2020.2.10,MacIntel,60,61025ae37ef11b136ea224fe,,,,,,,,,3471,-88,37,1,0,0,response7disk,,1,-7,1,1,0,0,rectangle,-7,1,1,0,0,-7,1,1,0,0,0,143,143,92,1,,,,,,,,
,,,,,,,,,,,,,FF,,,,,,,,1.966,,,,,,,,,,,,,,,,,,,,,,60fdb937b72fd456da7660c0,6103663d204822def51d1f6d,2021-07-29_20h41.03.502,Simcolourproject_2stim_asymm_v5,2020.2.10,MacIntel,60,61025ae37ef11b136ea224fe,,,,,,,,,3309,102,33,1,0,0,response1disk,,6,-1,-9,1,0,0,rectangle,-1,-9,1,0,0,-1,-9,1,0,0,0,144,144,28,1,,,,,,,,
,,,,,,,,,,,,,FF,,,,,,,,1.099,,,,,,,,,,,,,,,,,,,,,,60fdb937b72fd456da7660c0,6103663d204822def51d1f6d,2021-07-29_20h41.03.502,Simcolourproject_2stim_asymm_v5,2020.2.10,MacIntel,60,61025ae37ef11b136ea224fe,,,,,,,,,2893,-96,43,1,0,0,response7disk,,1,-9,-1,1,0,0,rectangle,-9,-1,1,0,0,-9,-1,1,0,0,0,145,145,11,1,,,,,,,,
,,,,,,,,,,,,,FF,,,,,,,,2.183,,,,,,,,,,,,,,,,,,,,,,60fdb937b72fd456da7660c0,6103663d204822def51d1f6d,2021-07-29_20h41.03.502,Simcolourproject_2stim_asymm_v5,2020.2.10,MacIntel,60,61025ae37ef11b136ea224fe,,,,,,,,,3955,-55,-89,1,0,0,response5disk,,3,-4,-2,1,0,0,rectangle,-4,-2,1,0,0,-4,-2,1,0,0,0,146,146,135,1,,,,,,,,
,,,,,,,,,,,,,FF,,,,,,,,3.116,,,,,,,,,,,,,,,,,,,,,,60fdb937b72fd456da7660c0,6103663d204822def51d1f6d,2021-07-29_20h41.03.502,Simcolourproject_2stim_asymm_v5,2020.2.10,MacIntel,60,61025ae37ef11b136ea224fe,,,,,,,,,2070,88,-39,1,0,0,response3disk,,5,3,-6,1,0,0,rectangle,3,-6,1,0,0,3,-6,1,0,0,0,147,147,4,1,,,,,,,,
,,,,,,,,,,,,,FF,,,,,,,,1.101,,,,,,,,,,,,,,,,,,,,,,60fdb937b72fd456da7660c0,6103663d204822def51d1f6d,2021-07-29_20h41.03.502,Simcolourproject_2stim_asymm_v5,2020.2.10,MacIntel,60,61025ae37ef11b136ea224fe,,,,,,,,,3650,52,80,1,0,0,response1disk,,7,2,-11,1,0,0,rectangle,2,-11,1,0,0,2,-11,1,0,0,0,148,148,22,1,,,,,,,,
,,,,,,,,,,,,,FF,,,,,,,,1.999,,,,,,,,,,,,,,,,,,,,,,60fdb937b72fd456da7660c0,6103663d204822def51d1f6d,2021-07-29_20h41.03.502,Simcolourproject_2stim_asymm_v5,2020.2.10,MacIntel,60,61025ae37ef11b136ea224fe,,,,,,,,,1927,37,88,1,0,0,response1disk,,7,2,3,1,0,0,rectangle,2,3,1,0,0,2,3,1,0,0,0,149,149,30,1,,,,,,,,
,,,,,,,,,,,,,FF,,,,,,,,1.517,,,,,,,,,,,,,,,,,,,,,,60fdb937b72fd456da7660c0,6103663d204822def51d1f6d,2021-07-29_20h41.03.502,Simcolourproject_2stim_asymm_v5,2020.2.10,MacIntel,60,61025ae37ef11b136ea224fe,,,,,,,,,2466,96,-42,1,0,0,response3disk,,5,11,-5,1,0,0,rectangle,11,-5,1,0,0,11,-5,1,0,0,0,150,150,132,1,,,,,,,,
,,,,,,,,,,,,,FF,,,,,,,,2.734,,,,,,,,,,,,,,,,,,,,,,60fdb937b72fd456da7660c0,6103663d204822def51d1f6d,2021-07-29_20h41.03.502,Simcolourproject_2stim_asymm_v5,2020.2.10,MacIntel,60,61025ae37ef11b136ea224fe,,,,,,,,,2470,86,-32,1,0,0,response3disk,,5,15,1,1,0,0,rectangle,15,1,1,0,0,15,1,1,0,0,0,151,151,154,1,,,,,,,,
,,,,,,,,,,,,,FF,,,,,,,,6.701,,,,,,,,,,,,,,,,,,,,,,60fdb937b72fd456da7660c0,6103663d204822def51d1f6d,2021-07-29_20h41.03.502,Simcolourproject_2stim_asymm_v5,2020.2.10,MacIntel,60,61025ae37ef11b136ea224fe,,,,,,,,,450,89,60,1,0,0,response1disk,,6,15,6,1,0,0,rectangle,15,6,1,0,0,15,6,1,0,0,0,152,152,67,1,,,,,,,,
,,,,,,,,,,,,,FF,,,,,,,,1.8,,,,,,,,,,,,,,,,,,,,,,60fdb937b72fd456da7660c0,6103663d204822def51d1f6d,2021-07-29_20h41.03.502,Simcolourproject_2stim_asymm_v5,2020.2.10,MacIntel,60,61025ae37ef11b136ea224fe,,,,,,,,,1011,68,-33,1,0,0,response3disk,,5,2,2,1,0,0,rectangle,2,2,1,0,0,2,2,1,0,0,0,153,153,7,1,,,,,,,,
,,,,,,,,,,,,,FF,,,,,,,,1.4,,,,,,,,,,,,,,,,,,,,,,60fdb937b72fd456da7660c0,6103663d204822def51d1f6d,2021-07-29_20h41.03.502,Simcolourproject_2stim_asymm_v5,2020.2.10,MacIntel,60,61025ae37ef11b136ea224fe,,,,,,,,,3497,44,100,1,0,0,response1disk,,7,8,-4,1,0,0,rectangle,8,-4,1,0,0,8,-4,1,0,0,0,154,154,37,1,,,,,,,,
,,,,,,,,,,,,,FF,,,,,,,,7.685,,,,,,,,,,,,,,,,,,,,,,60fdb937b72fd456da7660c0,6103663d204822def51d1f6d,2021-07-29_20h41.03.502,Simcolourproject_2stim_asymm_v5,2020.2.10,MacIntel,60,61025ae37ef11b136ea224fe,,,,,,,,,5,-31,-107,1,0,0,response5disk,,3,7,4,1,0,0,rectangle,7,4,1,0,0,7,4,1,0,0,0,155,155,138,1,,,,,,,,
,,,,,,,,,,,,,FF,,,,,,,,1.083,,,,,,,,,,,,,,,,,,,,,,60fdb937b72fd456da7660c0,6103663d204822def51d1f6d,2021-07-29_20h41.03.502,Simcolourproject_2stim_asymm_v5,2020.2.10,MacIntel,60,61025ae37ef11b136ea224fe,,,,,,,,,2728,-91,-34,1,0,0,response5disk,,2,-2,8,1,0,0,rectangle,-2,8,1,0,0,-2,8,1,0,0,0,156,156,5,1,,,,,,,,
,,,,,,,,,,,,,FF,,,,,,,,1.283,,,,,,,,,,,,,,,,,,,,,,60fdb937b72fd456da7660c0,6103663d204822def51d1f6d,2021-07-29_20h41.03.502,Simcolourproject_2stim_asymm_v5,2020.2.10,MacIntel,60,61025ae37ef11b136ea224fe,,,,,,,,,794,63,-88,1,0,0,response3disk,,4,3,0,1,0,0,rectangle,3,0,1,0,0,3,0,1,0,0,0,157,157,117,1,,,,,,,,
,,,,,,,,,,,,,FF,,,,,,,,2.017,,,,,,,,,,,,,,,,,,,,,,60fdb937b72fd456da7660c0,6103663d204822def51d1f6d,2021-07-29_20h41.03.502,Simcolourproject_2stim_asymm_v5,2020.2.10,MacIntel,60,61025ae37ef11b136ea224fe,,,,,,,,,4152,75,-55,1,0,0,response3disk,,5,-13,1,1,0,0,rectangle,-13,1,1,0,0,-13,1,1,0,0,0,158,158,17,1,,,,,,,,
,,,,,,,,,,,,,FF,,,,,,,,2.484,,,,,,,,,,,,,,,,,,,,,,60fdb937b72fd456da7660c0,6103663d204822def51d1f6d,2021-07-29_20h41.03.502,Simcolourproject_2stim_asymm_v5,2020.2.10,MacIntel,60,61025ae37ef11b136ea224fe,,,,,,,,,216,56,-38,1,0,0,response3disk,,5,7,-5,1,0,0,rectangle,7,-5,1,0,0,7,-5,1,0,0,0,159,159,136,1,,,,,,,,
,,,,,,,,,,,,,FF,,,,,,,,1.834,,,,,,,,,,,,,,,,,,,,,,60fdb937b72fd456da7660c0,6103663d204822def51d1f6d,2021-07-29_20h41.03.502,Simcolourproject_2stim_asymm_v5,2020.2.10,MacIntel,60,61025ae37ef11b136ea224fe,,,,,,,,,3247,-82,-40,1,0,0,response5disk,,2,10,0,1,0,0,rectangle,10,0,1,0,0,10,0,1,0,0,1,0,160,76,1,,,,,,,,
,,,,,,,,,,,,,FF,,,,,,,,1.149,,,,,,,,,,,,,,,,,,,,,,60fdb937b72fd456da7660c0,6103663d204822def51d1f6d,2021-07-29_20h41.03.502,Simcolourproject_2stim_asymm_v5,2020.2.10,MacIntel,60,61025ae37ef11b136ea224fe,,,,,,,,,1901,-74,43,1,0,0,response7disk,,1,1,3,1,0,0,rectangle,1,3,1,0,0,1,3,1,0,0,1,1,161,28,1,,,,,,,,
,,,,,,,,,,,,,FF,,,,,,,,1.684,,,,,,,,,,,,,,,,,,,,,,60fdb937b72fd456da7660c0,6103663d204822def51d1f6d,2021-07-29_20h41.03.502,Simcolourproject_2stim_asymm_v5,2020.2.10,MacIntel,60,61025ae37ef11b136ea224fe,,,,,,,,,4323,55,-102,1,0,0,response3disk,,4,-3,7,1,0,0,rectangle,-3,7,1,0,0,-3,7,1,0,0,1,2,162,21,1,,,,,,,,
,,,,,,,,,,,,,FF,,,,,,,,2.25,,,,,,,,,,,,,,,,,,,,,,60fdb937b72fd456da7660c0,6103663d204822def51d1f6d,2021-07-29_20h41.03.502,Simcolourproject_2stim_asymm_v5,2020.2.10,MacIntel,60,61025ae37ef11b136ea224fe,,,,,,,,,4150,-78,-41,1,0,0,response5disk,,2,-12,-6,1,0,0,rectangle,-12,-6,1,0,0,-12,-6,1,0,0,1,3,163,88,1,,,,,,,,
,,,,,,,,,,,,,FF,,,,,,,,0.933,,,,,,,,,,,,,,,,,,,,,,60fdb937b72fd456da7660c0,6103663d204822def51d1f6d,2021-07-29_20h41.03.502,Simcolourproject_2stim_asymm_v5,2020.2.10,MacIntel,60,61025ae37ef11b136ea224fe,,,,,,,,,1460,-80,48,1,0,0,response7disk,,1,-8,2,1,0,0,rectangle,-8,2,1,0,0,-8,2,1,0,0,1,4,164,56,1,,,,,,,,
,,,,,,,,,,,,,FF,,,,,,,,3.983,,,,,,,,,,,,,,,,,,,,,,60fdb937b72fd456da7660c0,6103663d204822def51d1f6d,2021-07-29_20h41.03.502,Simcolourproject_2stim_asymm_v5,2020.2.10,MacIntel,60,61025ae37ef11b136ea224fe,,,,,,,,,2924,44,85,1,0,0,response1disk,,7,13,-11,1,0,0,rectangle,13,-11,1,0,0,13,-11,1,0,0,1,5,165,58,1,,,,,,,,
,,,,,,,,,,,,,FF,,,,,,,,1.934,,,,,,,,,,,,,,,,,,,,,,60fdb937b72fd456da7660c0,6103663d204822def51d1f6d,2021-07-29_20h41.03.502,Simcolourproject_2stim_asymm_v5,2020.2.10,MacIntel,60,61025ae37ef11b136ea224fe,,,,,,,,,3694,60,-93,1,0,0,response3disk,,4,13,-4,1,0,0,rectangle,13,-4,1,0,0,13,-4,1,0,0,1,6,166,8,1,,,,,,,,
,,,,,,,,,,,,,FF,,,,,,,,1.667,,,,,,,,,,,,,,,,,,,,,,60fdb937b72fd456da7660c0,6103663d204822def51d1f6d,2021-07-29_20h41.03.502,Simcolourproject_2stim_asymm_v5,2020.2.10,MacIntel,60,61025ae37ef11b136ea224fe,,,,,,,,,458,-46,-119,1,0,0,response5disk,,3,-18,-5,1,0,0,rectangle,-18,-5,1,0,0,-18,-5,1,0,0,1,7,167,120,1,,,,,,,,
,,,,,,,,,,,,,FF,,,,,,,,2.35,,,,,,,,,,,,,,,,,,,,,,60fdb937b72fd456da7660c0,6103663d204822def51d1f6d,2021-07-29_20h41.03.502,Simcolourproject_2stim_asymm_v5,2020.2.10,MacIntel,60,61025ae37ef11b136ea224fe,,,,,,,,,2609,-32,-70,1,0,0,response5disk,,3,3,-6,1,0,0,rectangle,3,-6,1,0,0,3,-6,1,0,0,1,8,168,143,1,,,,,,,,
,,,,,,,,,,,,,FF,,,,,,,,1.166,,,,,,,,,,,,,,,,,,,,,,60fdb937b72fd456da7660c0,6103663d204822def51d1f6d,2021-07-29_20h41.03.502,Simcolourproject_2stim_asymm_v5,2020.2.10,MacIntel,60,61025ae37ef11b136ea224fe,,,,,,,,,592,71,-40,1,0,0,response3disk,,5,11,-7,1,0,0,rectangle,11,-7,1,0,0,11,-7,1,0,0,1,9,169,37,1,,,,,,,,
,,,,,,,,,,,,,FF,,,,,,,,2.968,,,,,,,,,,,,,,,,,,,,,,60fdb937b72fd456da7660c0,6103663d204822def51d1f6d,2021-07-29_20h41.03.502,Simcolourproject_2stim_asymm_v5,2020.2.10,MacIntel,60,61025ae37ef11b136ea224fe,,,,,,,,,1140,-79,-56,1,0,0,response5disk,,2,-9,8,1,0,0,rectangle,-9,8,1,0,0,-9,8,1,0,0,1,10,170,48,1,,,,,,,,
,,,,,,,,,,,,,FF,,,,,,,,1.599,,,,,,,,,,,,,,,,,,,,,,60fdb937b72fd456da7660c0,6103663d204822def51d1f6d,2021-07-29_20h41.03.502,Simcolourproject_2stim_asymm_v5,2020.2.10,MacIntel,60,61025ae37ef11b136ea224fe,,,,,,,,,3493,93,-58,1,0,0,response3disk,,5,0,-2,1,0,0,rectangle,0,-2,1,0,0,0,-2,1,0,0,1,11,171,1,1,,,,,,,,
,,,,,,,,,,,,,FF,,,,,,,,1.4,,,,,,,,,,,,,,,,,,,,,,60fdb937b72fd456da7660c0,6103663d204822def51d1f6d,2021-07-29_20h41.03.502,Simcolourproject_2stim_asymm_v5,2020.2.10,MacIntel,60,61025ae37ef11b136ea224fe,,,,,,,,,4059,41,-74,1,0,0,response3disk,,4,0,-3,1,0,0,rectangle,46,112,1,0,0,-8,-1,1,0,0,1,12,172,146,1,,response1disk_3,TRUE,7,7,"[109,193,304,273,117,237,173,320,95,175,315,63,201,305,135,256,186,39,266,272]",1.7,rectangle
,,,,,,,,,,,,,FF,,,,,,,,1.316,,,,,,,,,,,,,,,,,,,,,,60fdb937b72fd456da7660c0,6103663d204822def51d1f6d,2021-07-29_20h41.03.502,Simcolourproject_2stim_asymm_v5,2020.2.10,MacIntel,60,61025ae37ef11b136ea224fe,,,,,,,,,2975,48,83,1,0,0,response1disk,,7,11,4,1,0,0,rectangle,11,4,1,0,0,11,4,1,0,0,1,13,173,123,1,,,,,,,,
,,,,,,,,,,,,,FF,,,,,,,,3.366,,,,,,,,,,,,,,,,,,,,,,60fdb937b72fd456da7660c0,6103663d204822def51d1f6d,2021-07-29_20h41.03.502,Simcolourproject_2stim_asymm_v5,2020.2.10,MacIntel,60,61025ae37ef11b136ea224fe,,,,,,,,,2803,38,62,1,0,0,response1disk,,7,2,-7,1,0,0,rectangle,-49,97,1,0,0,-7,6,1,0,0,1,14,174,96,1,,response7disk_3,TRUE,0,0,"[109,193,304,273,117,237,173,320,95,175,315,63,201,305,135,256,186,39,266,272]",1.65,rectangle
,,,,,,,,,,,,,FF,,,,,,,,2.1,,,,,,,,,,,,,,,,,,,,,,60fdb937b72fd456da7660c0,6103663d204822def51d1f6d,2021-07-29_20h41.03.502,Simcolourproject_2stim_asymm_v5,2020.2.10,MacIntel,60,61025ae37ef11b136ea224fe,,,,,,,,,3595,-93,-55,1,0,0,response5disk,,2,3,3,1,0,0,rectangle,3,3,1,0,0,3,3,1,0,0,1,15,175,75,1,,,,,,,,
,,,,,,,,,,,,,FF,,,,,,,,1.233,,,,,,,,,,,,,,,,,,,,,,60fdb937b72fd456da7660c0,6103663d204822def51d1f6d,2021-07-29_20h41.03.502,Simcolourproject_2stim_asymm_v5,2020.2.10,MacIntel,60,61025ae37ef11b136ea224fe,,,,,,,,,3809,30,-92,1,0,0,response3disk,,4,-7,4,1,0,0,rectangle,-7,4,1,0,0,-7,4,1,0,0,1,16,176,68,1,,,,,,,,
,,,,,,,,,,,,,FF,,,,,,,,1.95,,,,,,,,,,,,,,,,,,,,,,60fdb937b72fd456da7660c0,6103663d204822def51d1f6d,2021-07-29_20h41.03.502,Simcolourproject_2stim_asymm_v5,2020.2.10,MacIntel,60,61025ae37ef11b136ea224fe,,,,,,,,,880,85,-49,1,0,0,response3disk,,5,4,-9,1,0,0,rectangle,4,-9,1,0,0,4,-9,1,0,0,1,17,177,105,1,,,,,,,,
,,,,,,,,,,,,,FF,,,,,,,,1.117,,,,,,,,,,,,,,,,,,,,,,60fdb937b72fd456da7660c0,6103663d204822def51d1f6d,2021-07-29_20h41.03.502,Simcolourproject_2stim_asymm_v5,2020.2.10,MacIntel,60,61025ae37ef11b136ea224fe,,,,,,,,,2596,64,-34,1,0,0,response3disk,,5,2,0,1,0,0,rectangle,2,0,1,0,0,2,0,1,0,0,1,18,178,31,1,,,,,,,,
,,,,,,,,,,,,,FF,,,,,,,,3.151,,,,,,,,,,,,,,,,,,,,,,60fdb937b72fd456da7660c0,6103663d204822def51d1f6d,2021-07-29_20h41.03.502,Simcolourproject_2stim_asymm_v5,2020.2.10,MacIntel,60,61025ae37ef11b136ea224fe,,,,,,,,,2341,71,-35,1,0,0,response3disk,,5,8,4,1,0,0,rectangle,8,4,1,0,0,8,4,1,0,0,1,19,179,80,1,,,,,,,,
,,,,,,,,,,,,,FF,,,,,,,,1.483,,,,,,,,,,,,,,,,,,,,,,60fdb937b72fd456da7660c0,6103663d204822def51d1f6d,2021-07-29_20h41.03.502,Simcolourproject_2stim_asymm_v5,2020.2.10,MacIntel,60,61025ae37ef11b136ea224fe,,,,,,,,,1999,36,103,1,0,0,response1disk,,7,-6,7,1,0,0,rectangle,-6,7,1,0,0,-6,7,1,0,0,1,20,180,94,1,,,,,,,,
,,,,,,,,,,,,,FF,,,,,,,,1.333,,,,,,,,,,,,,,,,,,,,,,60fdb937b72fd456da7660c0,6103663d204822def51d1f6d,2021-07-29_20h41.03.502,Simcolourproject_2stim_asymm_v5,2020.2.10,MacIntel,60,61025ae37ef11b136ea224fe,,,,,,,,,3110,-82,-53,1,0,0,response5disk,,2,0,-2,1,0,0,rectangle,0,-2,1,0,0,0,-2,1,0,0,1,21,181,116,1,,,,,,,,
,,,,,,,,,,,,,FF,,,,,,,,1.234,,,,,,,,,,,,,,,,,,,,,,60fdb937b72fd456da7660c0,6103663d204822def51d1f6d,2021-07-29_20h41.03.502,Simcolourproject_2stim_asymm_v5,2020.2.10,MacIntel,60,61025ae37ef11b136ea224fe,,,,,,,,,4221,-74,32,1,0,0,response7disk,,1,-4,11,1,0,0,rectangle,-4,11,1,0,0,-4,11,1,0,0,1,22,182,83,1,,,,,,,,
,,,,,,,,,,,,,FF,,,,,,,,1.384,,,,,,,,,,,,,,,,,,,,,,60fdb937b72fd456da7660c0,6103663d204822def51d1f6d,2021-07-29_20h41.03.502,Simcolourproject_2stim_asymm_v5,2020.2.10,MacIntel,60,61025ae37ef11b136ea224fe,,,,,,,,,2435,-89,-45,1,0,0,response5disk,,2,-6,-7,1,0,0,rectangle,-6,-7,1,0,0,-6,-7,1,0,0,1,23,183,142,1,,,,,,,,
,,,,,,,,,,,,,FF,,,,,,,,1.834,,,,,,,,,,,,,,,,,,,,,,60fdb937b72fd456da7660c0,6103663d204822def51d1f6d,2021-07-29_20h41.03.502,Simcolourproject_2stim_asymm_v5,2020.2.10,MacIntel,60,61025ae37ef11b136ea224fe,,,,,,,,,1002,24,-90,1,0,0,response3disk,,4,-6,-7,1,0,0,rectangle,-6,-7,1,0,0,-6,-7,1,0,0,1,24,184,122,1,,,,,,,,
,,,,,,,,,,,,,FF,,,,,,,,1.032,,,,,,,,,,,,,,,,,,,,,,60fdb937b72fd456da7660c0,6103663d204822def51d1f6d,2021-07-29_20h41.03.502,Simcolourproject_2stim_asymm_v5,2020.2.10,MacIntel,60,61025ae37ef11b136ea224fe,,,,,,,,,4109,47,-62,1,0,0,response3disk,,4,-1,2,1,0,0,rectangle,-47,95,1,0,0,12,0,1,0,0,1,25,185,30,1,,response7disk_3,TRUE,0,0,"[109,193,304,273,117,237,173,320,95,175,315,63,201,305,135,256,186,39,266,272]",1.866,rectangle
,,,,,,,,,,,,,FF,,,,,,,,2.082,,,,,,,,,,,,,,,,,,,,,,60fdb937b72fd456da7660c0,6103663d204822def51d1f6d,2021-07-29_20h41.03.502,Simcolourproject_2stim_asymm_v5,2020.2.10,MacIntel,60,61025ae37ef11b136ea224fe,,,,,,,,,2732,90,-48,1,0,0,response3disk,,5,6,-2,1,0,0,rectangle,6,-2,1,0,0,6,-2,1,0,0,1,26,186,112,1,,,,,,,,
,,,,,,,,,,,,,FF,,,,,,,,1.166,,,,,,,,,,,,,,,,,,,,,,60fdb937b72fd456da7660c0,6103663d204822def51d1f6d,2021-07-29_20h41.03.502,Simcolourproject_2stim_asymm_v5,2020.2.10,MacIntel,60,61025ae37ef11b136ea224fe,,,,,,,,,2283,-33,-87,1,0,0,response5disk,,3,-8,0,1,0,0,rectangle,-8,0,1,0,0,-8,0,1,0,0,1,27,187,102,1,,,,,,,,
,,,,,,,,,,,,,FF,,,,,,,,2.183,,,,,,,,,,,,,,,,,,,,,,60fdb937b72fd456da7660c0,6103663d204822def51d1f6d,2021-07-29_20h41.03.502,Simcolourproject_2stim_asymm_v5,2020.2.10,MacIntel,60,61025ae37ef11b136ea224fe,,,,,,,,,1421,94,31,1,0,0,response1disk,,6,13,3,1,0,0,rectangle,13,3,1,0,0,13,3,1,0,0,1,28,188,137,1,,,,,,,,
,,,,,,,,,,,,,FF,,,,,,,,1.301,,,,,,,,,,,,,,,,,,,,,,60fdb937b72fd456da7660c0,6103663d204822def51d1f6d,2021-07-29_20h41.03.502,Simcolourproject_2stim_asymm_v5,2020.2.10,MacIntel,60,61025ae37ef11b136ea224fe,,,,,,,,,805,-85,32,1,0,0,response7disk,,1,-12,3,1,0,0,rectangle,-12,3,1,0,0,-12,3,1,0,0,1,29,189,4,1,,,,,,,,
,,,,,,,,,,,,,FF,,,,,,,,1.784,,,,,,,,,,,,,,,,,,,,,,60fdb937b72fd456da7660c0,6103663d204822def51d1f6d,2021-07-29_20h41.03.502,Simcolourproject_2stim_asymm_v5,2020.2.10,MacIntel,60,61025ae37ef11b136ea224fe,,,,,,,,,1106,104,37,1,0,0,response1disk,,6,13,6,1,0,0,rectangle,13,6,1,0,0,13,6,1,0,0,1,30,190,131,1,,,,,,,,
,,,,,,,,,,,,,FF,,,,,,,,2.65,,,,,,,,,,,,,,,,,,,,,,60fdb937b72fd456da7660c0,6103663d204822def51d1f6d,2021-07-29_20h41.03.502,Simcolourproject_2stim_asymm_v5,2020.2.10,MacIntel,60,61025ae37ef11b136ea224fe,,,,,,,,,2651,-37,-88,1,0,0,response5disk,,3,-17,-6,1,0,0,rectangle,-17,-6,1,0,0,-17,-6,1,0,0,1,31,191,153,1,,,,,,,,
,,,,,,,,,,,,,FF,,,,,,,,1.05,,,,,,,,,,,,,,,,,,,,,,60fdb937b72fd456da7660c0,6103663d204822def51d1f6d,2021-07-29_20h41.03.502,Simcolourproject_2stim_asymm_v5,2020.2.10,MacIntel,60,61025ae37ef11b136ea224fe,,,,,,,,,1679,-78,-44,1,0,0,response5disk,,2,3,3,1,0,0,rectangle,-31,-114,1,0,0,-9,4,1,0,0,1,32,192,136,1,,response5disk_3,TRUE,3,3,"[109,193,304,273,117,237,173,320,95,175,315,63,201,305,135,256,186,39,266,272]",232.375,rectangle
,,,,,,,,,,,,,FF,,,,,,,,1.268,,,,,,,,,,,,,,,,,,,,,,60fdb937b72fd456da7660c0,6103663d204822def51d1f6d,2021-07-29_20h41.03.502,Simcolourproject_2stim_asymm_v5,2020.2.10,MacIntel,60,61025ae37ef11b136ea224fe,,,,,,,,,3660,-46,-94,1,0,0,response5disk,,3,-4,4,1,0,0,rectangle,-4,4,1,0,0,-4,4,1,0,0,1,33,193,93,1,,,,,,,,
,,,,,,,,,,,,,FF,,,,,,,,2.451,,,,,,,,,,,,,,,,,,,,,,60fdb937b72fd456da7660c0,6103663d204822def51d1f6d,2021-07-29_20h41.03.502,Simcolourproject_2stim_asymm_v5,2020.2.10,MacIntel,60,61025ae37ef11b136ea224fe,,,,,,,,,845,115,-57,1,0,0,response3disk,,5,4,-7,1,0,0,rectangle,4,-7,1,0,0,4,-7,1,0,0,1,34,194,73,1,,,,,,,,
,,,,,,,,,,,,,FF,,,,,,,,1.049,,,,,,,,,,,,,,,,,,,,,,60fdb937b72fd456da7660c0,6103663d204822def51d1f6d,2021-07-29_20h41.03.502,Simcolourproject_2stim_asymm_v5,2020.2.10,MacIntel,60,61025ae37ef11b136ea224fe,,,,,,,,,327,68,-35,1,0,0,response3disk,,5,-11,-7,1,0,0,rectangle,-11,-7,1,0,0,-11,-7,1,0,0,1,35,195,103,1,,,,,,,,
,,,,,,,,,,,,,FF,,,,,,,,1.899,,,,,,,,,,,,,,,,,,,,,,60fdb937b72fd456da7660c0,6103663d204822def51d1f6d,2021-07-29_20h41.03.502,Simcolourproject_2stim_asymm_v5,2020.2.10,MacIntel,60,61025ae37ef11b136ea224fe,,,,,,,,,3015,89,22,1,0,0,response1disk,,6,21,7,1,0,0,rectangle,21,7,1,0,0,21,7,1,0,0,1,36,196,95,1,,,,,,,,
,,,,,,,,,,,,,FF,,,,,,,,1.966,,,,,,,,,,,,,,,,,,,,,,60fdb937b72fd456da7660c0,6103663d204822def51d1f6d,2021-07-29_20h41.03.502,Simcolourproject_2stim_asymm_v5,2020.2.10,MacIntel,60,61025ae37ef11b136ea224fe,,,,,,,,,305,46,-87,1,0,0,response3disk,,4,-3,2,1,0,0,rectangle,-3,2,1,0,0,-3,2,1,0,0,1,37,197,35,1,,,,,,,,
,,,,,,,,,,,,,FF,,,,,,,,1.067,,,,,,,,,,,,,,,,,,,,,,60fdb937b72fd456da7660c0,6103663d204822def51d1f6d,2021-07-29_20h41.03.502,Simcolourproject_2stim_asymm_v5,2020.2.10,MacIntel,60,61025ae37ef11b136ea224fe,,,,,,,,,1695,-57,-91,1,0,0,response5disk,,3,-13,4,1,0,0,rectangle,-13,4,1,0,0,-13,4,1,0,0,1,38,198,17,1,,,,,,,,
,,,,,,,,,,,,,FF,,,,,,,,2.882,,,,,,,,,,,,,,,,,,,,,,60fdb937b72fd456da7660c0,6103663d204822def51d1f6d,2021-07-29_20h41.03.502,Simcolourproject_2stim_asymm_v5,2020.2.10,MacIntel,60,61025ae37ef11b136ea224fe,,,,,,,,,2866,106,54,1,0,0,response1disk,,6,-7,-7,1,0,0,rectangle,-7,-7,1,0,0,-7,-7,1,0,0,1,39,199,152,1,,,,,,,,
,,,,,,,,,,,,,FF,,,,,,,,2.783,,,,,,,,,,,,,,,,,,,,,,60fdb937b72fd456da7660c0,6103663d204822def51d1f6d,2021-07-29_20h41.03.502,Simcolourproject_2stim_asymm_v5,2020.2.10,MacIntel,60,61025ae37ef11b136ea224fe,,,,,,,,,1791,90,-48,1,0,0,response3disk,,5,-31,6,1,0,0,rectangle,80,-49,1,0,0,-2,-6,1,0,0,1,40,200,38,1,,response3disk_3,TRUE,5,5,"[109,193,304,273,117,237,173,320,95,175,315,63,201,305,135,256,186,39,266,272]",6.782,rectangle
,,,,,,,,,,,,,FF,,,,,,,,5.299,,,,,,,,,,,,,,,,,,,,,,60fdb937b72fd456da7660c0,6103663d204822def51d1f6d,2021-07-29_20h41.03.502,Simcolourproject_2stim_asymm_v5,2020.2.10,MacIntel,60,61025ae37ef11b136ea224fe,,,,,,,,,829,90,-33,1,0,0,response3disk,,5,4,-7,1,0,0,rectangle,4,-7,1,0,0,4,-7,1,0,0,1,41,201,65,1,,,,,,,,
,,,,,,,,,,,,,FF,,,,,,,,1.267,,,,,,,,,,,,,,,,,,,,,,60fdb937b72fd456da7660c0,6103663d204822def51d1f6d,2021-07-29_20h41.03.502,Simcolourproject_2stim_asymm_v5,2020.2.10,MacIntel,60,61025ae37ef11b136ea224fe,,,,,,,,,574,64,-34,1,0,0,response3disk,,5,5,-8,1,0,0,rectangle,5,-8,1,0,0,5,-8,1,0,0,1,42,202,34,1,,,,,,,,
,,,,,,,,,,,,,FF,,,,,,,,1.134,,,,,,,,,,,,,,,,,,,,,,60fdb937b72fd456da7660c0,6103663d204822def51d1f6d,2021-07-29_20h41.03.502,Simcolourproject_2stim_asymm_v5,2020.2.10,MacIntel,60,61025ae37ef11b136ea224fe,,,,,,,,,3109,-33,-84,1,0,0,response5disk,,3,4,-4,1,0,0,rectangle,4,-4,1,0,0,4,-4,1,0,0,1,43,203,59,1,,,,,,,,
,,,,,,,,,,,,,FF,,,,,,,,1.4,,,,,,,,,,,,,,,,,,,,,,60fdb937b72fd456da7660c0,6103663d204822def51d1f6d,2021-07-29_20h41.03.502,Simcolourproject_2stim_asymm_v5,2020.2.10,MacIntel,60,61025ae37ef11b136ea224fe,,,,,,,,,1863,40,-95,1,0,0,response3disk,,4,11,3,1,0,0,rectangle,11,3,1,0,0,11,3,1,0,0,1,44,204,10,1,,,,,,,,
,,,,,,,,,,,,,FF,,,,,,,,0.983,,,,,,,,,,,,,,,,,,,,,,60fdb937b72fd456da7660c0,6103663d204822def51d1f6d,2021-07-29_20h41.03.502,Simcolourproject_2stim_asymm_v5,2020.2.10,MacIntel,60,61025ae37ef11b136ea224fe,,,,,,,,,1983,-37,-67,1,0,0,response5disk,,3,-10,2,1,0,0,rectangle,-10,2,1,0,0,-10,2,1,0,0,1,45,205,70,1,,,,,,,,
,,,,,,,,,,,,,FF,,,,,,,,1.634,,,,,,,,,,,,,,,,,,,,,,60fdb937b72fd456da7660c0,6103663d204822def51d1f6d,2021-07-29_20h41.03.502,Simcolourproject_2stim_asymm_v5,2020.2.10,MacIntel,60,61025ae37ef11b136ea224fe,,,,,,,,,954,-46,-66,1,0,0,response5disk,,3,1,2,1,0,0,rectangle,1,2,1,0,0,1,2,1,0,0,1,46,206,101,1,,,,,,,,
,,,,,,,,,,,,,FF,,,,,,,,1.05,,,,,,,,,,,,,,,,,,,,,,60fdb937b72fd456da7660c0,6103663d204822def51d1f6d,2021-07-29_20h41.03.502,Simcolourproject_2stim_asymm_v5,2020.2.10,MacIntel,60,61025ae37ef11b136ea224fe,,,,,,,,,3344,-66,-35,1,0,0,response5disk,,2,-10,10,1,0,0,rectangle,-10,10,1,0,0,-10,10,1,0,0,1,47,207,104,1,,,,,,,,
,,,,,,,,,,,,,FF,,,,,,,,1.85,,,,,,,,,,,,,,,,,,,,,,60fdb937b72fd456da7660c0,6103663d204822def51d1f6d,2021-07-29_20h41.03.502,Simcolourproject_2stim_asymm_v5,2020.2.10,MacIntel,60,61025ae37ef11b136ea224fe,,,,,,,,,95,-66,-43,1,0,0,response5disk,,2,20,-3,1,0,0,rectangle,20,-3,1,0,0,20,-3,1,0,0,1,48,208,158,1,,,,,,,,
,,,,,,,,,,,,,FF,,,,,,,,1.634,,,,,,,,,,,,,,,,,,,,,,60fdb937b72fd456da7660c0,6103663d204822def51d1f6d,2021-07-29_20h41.03.502,Simcolourproject_2stim_asymm_v5,2020.2.10,MacIntel,60,61025ae37ef11b136ea224fe,,,,,,,,,3114,36,-91,1,0,0,response3disk,,4,7,1,1,0,0,rectangle,7,1,1,0,0,7,1,1,0,0,1,49,209,84,1,,,,,,,,
,,,,,,,,,,,,,FF,,,,,,,,1.583,,,,,,,,,,,,,,,,,,,,,,60fdb937b72fd456da7660c0,6103663d204822def51d1f6d,2021-07-29_20h41.03.502,Simcolourproject_2stim_asymm_v5,2020.2.10,MacIntel,60,61025ae37ef11b136ea224fe,,,,,,,,,3319,45,83,1,0,0,response1disk,,7,9,1,1,0,0,rectangle,9,1,1,0,0,9,1,1,0,0,1,50,210,36,1,,,,,,,,
,,,,,,,,,,,,,FF,,,,,,,,1.101,,,,,,,,,,,,,,,,,,,,,,60fdb937b72fd456da7660c0,6103663d204822def51d1f6d,2021-07-29_20h41.03.502,Simcolourproject_2stim_asymm_v5,2020.2.10,MacIntel,60,61025ae37ef11b136ea224fe,,,,,,,,,639,-79,24,1,0,0,response7disk,,1,1,1,1,0,0,rectangle,1,1,1,0,0,1,1,1,0,0,1,51,211,50,1,,,,,,,,
,,,,,,,,,,,,,FF,,,,,,,,2.099,,,,,,,,,,,,,,,,,,,,,,60fdb937b72fd456da7660c0,6103663d204822def51d1f6d,2021-07-29_20h41.03.502,Simcolourproject_2stim_asymm_v5,2020.2.10,MacIntel,60,61025ae37ef11b136ea224fe,,,,,,,,,2512,50,83,1,0,0,response1disk,,7,9,-8,1,0,0,rectangle,9,-8,1,0,0,9,-8,1,0,0,1,52,212,40,1,,,,,,,,
,,,,,,,,,,,,,FF,,,,,,,,1.7,,,,,,,,,,,,,,,,,,,,,,60fdb937b72fd456da7660c0,6103663d204822def51d1f6d,2021-07-29_20h41.03.502,Simcolourproject_2stim_asymm_v5,2020.2.10,MacIntel,60,61025ae37ef11b136ea224fe,,,,,,,,,759,70,-37,1,0,0,response3disk,,5,3,-3,1,0,0,rectangle,3,-3,1,0,0,3,-3,1,0,0,1,53,213,151,1,,,,,,,,
,,,,,,,,,,,,,FF,,,,,,,,1.083,,,,,,,,,,,,,,,,,,,,,,60fdb937b72fd456da7660c0,6103663d204822def51d1f6d,2021-07-29_20h41.03.502,Simcolourproject_2stim_asymm_v5,2020.2.10,MacIntel,60,61025ae37ef11b136ea224fe,,,,,,,,,3781,-66,-39,1,0,0,response5disk,,2,-17,7,1,0,0,rectangle,-17,7,1,0,0,-17,7,1,0,0,1,54,214,77,1,,,,,,,,
,,,,,,,,,,,,,FF,,,,,,,,0.951,,,,,,,,,,,,,,,,,,,,,,60fdb937b72fd456da7660c0,6103663d204822def51d1f6d,2021-07-29_20h41.03.502,Simcolourproject_2stim_asymm_v5,2020.2.10,MacIntel,60,61025ae37ef11b136ea224fe,,,,,,,,,2422,-77,21,1,0,0,response7disk,,1,-15,4,1,0,0,rectangle,-15,4,1,0,0,-15,4,1,0,0,1,55,215,98,1,,,,,,,,
,,,,,,,,,,,,,FF,,,,,,,,1.283,,,,,,,,,,,,,,,,,,,,,,60fdb937b72fd456da7660c0,6103663d204822def51d1f6d,2021-07-29_20h41.03.502,Simcolourproject_2stim_asymm_v5,2020.2.10,MacIntel,60,61025ae37ef11b136ea224fe,,,,,,,,,1218,-84,42,1,0,0,response7disk,,1,-5,-3,1,0,0,rectangle,-5,-3,1,0,0,-5,-3,1,0,0,1,56,216,121,1,,,,,,,,
,,,,,,,,,,,,,FF,,,,,,,,1.983,,,,,,,,,,,,,,,,,,,,,,60fdb937b72fd456da7660c0,6103663d204822def51d1f6d,2021-07-29_20h41.03.502,Simcolourproject_2stim_asymm_v5,2020.2.10,MacIntel,60,61025ae37ef11b136ea224fe,,,,,,,,,3041,-32,-98,1,0,0,response5disk,,3,-14,13,1,0,0,rectangle,-14,13,1,0,0,-14,13,1,0,0,1,57,217,2,1,,,,,,,,
,,,,,,,,,,,,,FF,,,,,,,,2.017,,,,,,,,,,,,,,,,,,,,,,60fdb937b72fd456da7660c0,6103663d204822def51d1f6d,2021-07-29_20h41.03.502,Simcolourproject_2stim_asymm_v5,2020.2.10,MacIntel,60,61025ae37ef11b136ea224fe,,,,,,,,,1316,39,-94,1,0,0,response3disk,,4,11,-2,1,0,0,rectangle,11,-2,1,0,0,11,-2,1,0,0,1,58,218,66,1,,,,,,,,
,,,,,,,,,,,,,FF,,,,,,,,1.017,,,,,,,,,,,,,,,,,,,,,,60fdb937b72fd456da7660c0,6103663d204822def51d1f6d,2021-07-29_20h41.03.502,Simcolourproject_2stim_asymm_v5,2020.2.10,MacIntel,60,61025ae37ef11b136ea224fe,,,,,,,,,3048,-77,-38,1,0,0,response5disk,,2,-17,6,1,0,0,rectangle,-17,6,1,0,0,-17,6,1,0,0,1,59,219,3,1,,,,,,,,
,,,,,,,,,,,,,FF,,,,,,,,2.883,,,,,,,,,,,,,,,,,,,,,,60fdb937b72fd456da7660c0,6103663d204822def51d1f6d,2021-07-29_20h41.03.502,Simcolourproject_2stim_asymm_v5,2020.2.10,MacIntel,60,61025ae37ef11b136ea224fe,,,,,,,,,3348,29,-88,1,0,0,response3disk,,4,2,2,1,0,0,rectangle,2,2,1,0,0,2,2,1,0,0,1,60,220,74,1,,,,,,,,
,,,,,,,,,,,,,FF,,,,,,,,1.601,,,,,,,,,,,,,,,,,,,,,,60fdb937b72fd456da7660c0,6103663d204822def51d1f6d,2021-07-29_20h41.03.502,Simcolourproject_2stim_asymm_v5,2020.2.10,MacIntel,60,61025ae37ef11b136ea224fe,,,,,,,,,1600,-94,54,1,0,0,response7disk,,1,-9,-5,1,0,0,rectangle,-9,-5,1,0,0,-9,-5,1,0,0,1,61,221,133,1,,,,,,,,
,,,,,,,,,,,,,FF,,,,,,,,1.433,,,,,,,,,,,,,,,,,,,,,,60fdb937b72fd456da7660c0,6103663d204822def51d1f6d,2021-07-29_20h41.03.502,Simcolourproject_2stim_asymm_v5,2020.2.10,MacIntel,60,61025ae37ef11b136ea224fe,,,,,,,,,1090,57,-77,1,0,0,response3disk,,4,15,-4,1,0,0,rectangle,15,-4,1,0,0,15,-4,1,0,0,1,62,222,113,1,,,,,,,,
,,,,,,,,,,,,,FF,,,,,,,,1.817,,,,,,,,,,,,,,,,,,,,,,60fdb937b72fd456da7660c0,6103663d204822def51d1f6d,2021-07-29_20h41.03.502,Simcolourproject_2stim_asymm_v5,2020.2.10,MacIntel,60,61025ae37ef11b136ea224fe,,,,,,,,,4330,-38,-73,1,0,0,response5disk,,3,-2,2,1,0,0,rectangle,-2,2,1,0,0,-2,2,1,0,0,1,63,223,23,1,,,,,,,,
,,,,,,,,,,,,,FF,,,,,,,,1.716,,,,,,,,,,,,,,,,,,,,,,60fdb937b72fd456da7660c0,6103663d204822def51d1f6d,2021-07-29_20h41.03.502,Simcolourproject_2stim_asymm_v5,2020.2.10,MacIntel,60,61025ae37ef11b136ea224fe,,,,,,,,,3518,-30,-73,1,0,0,response5disk,,3,12,-3,1,0,0,rectangle,12,-3,1,0,0,12,-3,1,0,0,1,64,224,33,1,,,,,,,,
,,,,,,,,,,,,,FF,,,,,,,,1.516,,,,,,,,,,,,,,,,,,,,,,60fdb937b72fd456da7660c0,6103663d204822def51d1f6d,2021-07-29_20h41.03.502,Simcolourproject_2stim_asymm_v5,2020.2.10,MacIntel,60,61025ae37ef11b136ea224fe,,,,,,,,,4302,93,-49,1,0,0,response3disk,,5,2,-2,1,0,0,rectangle,2,-2,1,0,0,2,-2,1,0,0,1,65,225,111,1,,,,,,,,
,,,,,,,,,,,,,FF,,,,,,,,3.6,,,,,,,,,,,,,,,,,,,,,,60fdb937b72fd456da7660c0,6103663d204822def51d1f6d,2021-07-29_20h41.03.502,Simcolourproject_2stim_asymm_v5,2020.2.10,MacIntel,60,61025ae37ef11b136ea224fe,,,,,,,,,236,87,33,1,0,0,response1disk,,6,2,-1,1,0,0,rectangle,2,-1,1,0,0,2,-1,1,0,0,1,66,226,6,1,,,,,,,,
,,,,,,,,,,,,,FF,,,,,,,,2.967,,,,,,,,,,,,,,,,,,,,,,60fdb937b72fd456da7660c0,6103663d204822def51d1f6d,2021-07-29_20h41.03.502,Simcolourproject_2stim_asymm_v5,2020.2.10,MacIntel,60,61025ae37ef11b136ea224fe,,,,,,,,,3601,79,-46,1,0,0,response3disk,,5,9,4,1,0,0,rectangle,9,4,1,0,0,9,4,1,0,0,1,67,227,130,1,,,,,,,,
,,,,,,,,,,,,,FF,,,,,,,,1.933,,,,,,,,,,,,,,,,,,,,,,60fdb937b72fd456da7660c0,6103663d204822def51d1f6d,2021-07-29_20h41.03.502,Simcolourproject_2stim_asymm_v5,2020.2.10,MacIntel,60,61025ae37ef11b136ea224fe,,,,,,,,,286,37,-88,1,0,0,response3disk,,4,-4,-9,1,0,0,rectangle,-4,-9,1,0,0,-4,-9,1,0,0,1,68,228,12,1,,,,,,,,
,,,,,,,,,,,,,FF,,,,,,,,4.901,,,,,,,,,,,,,,,,,,,,,,60fdb937b72fd456da7660c0,6103663d204822def51d1f6d,2021-07-29_20h41.03.502,Simcolourproject_2stim_asymm_v5,2020.2.10,MacIntel,60,61025ae37ef11b136ea224fe,,,,,,,,,715,-78,-37,1,0,0,response5disk,,2,20,3,1,0,0,rectangle,20,3,1,0,0,20,3,1,0,0,1,69,229,43,1,,,,,,,,
,,,,,,,,,,,,,FF,,,,,,,,2.183,,,,,,,,,,,,,,,,,,,,,,60fdb937b72fd456da7660c0,6103663d204822def51d1f6d,2021-07-29_20h41.03.502,Simcolourproject_2stim_asymm_v5,2020.2.10,MacIntel,60,61025ae37ef11b136ea224fe,,,,,,,,,3727,48,-79,1,0,0,response3disk,,4,-2,-9,1,0,0,rectangle,-2,-9,1,0,0,-2,-9,1,0,0,1,70,230,87,1,,,,,,,,
,,,,,,,,,,,,,FF,,,,,,,,4.133,,,,,,,,,,,,,,,,,,,,,,60fdb937b72fd456da7660c0,6103663d204822def51d1f6d,2021-07-29_20h41.03.502,Simcolourproject_2stim_asymm_v5,2020.2.10,MacIntel,60,61025ae37ef11b136ea224fe,,,,,,,,,4060,-50,-78,1,0,0,response5disk,,3,-9,8,1,0,0,rectangle,-9,8,1,0,0,-9,8,1,0,0,1,71,231,141,1,,,,,,,,
,,,,,,,,,,,,,FF,,,,,,,,5.299,,,,,,,,,,,,,,,,,,,,,,60fdb937b72fd456da7660c0,6103663d204822def51d1f6d,2021-07-29_20h41.03.502,Simcolourproject_2stim_asymm_v5,2020.2.10,MacIntel,60,61025ae37ef11b136ea224fe,,,,,,,,,250,33,-99,1,0,0,response3disk,,4,-7,-10,1,0,0,rectangle,-7,-10,1,0,0,-7,-10,1,0,0,1,72,232,99,1,,,,,,,,
,,,,,,,,,,,,,FF,,,,,,,,2.151,,,,,,,,,,,,,,,,,,,,,,60fdb937b72fd456da7660c0,6103663d204822def51d1f6d,2021-07-29_20h41.03.502,Simcolourproject_2stim_asymm_v5,2020.2.10,MacIntel,60,61025ae37ef11b136ea224fe,,,,,,,,,3523,94,30,1,0,0,response1disk,,6,13,5,1,0,0,rectangle,13,5,1,0,0,13,5,1,0,0,1,73,233,78,1,,,,,,,,
,,,,,,,,,,,,,FF,,,,,,,,1.05,,,,,,,,,,,,,,,,,,,,,,60fdb937b72fd456da7660c0,6103663d204822def51d1f6d,2021-07-29_20h41.03.502,Simcolourproject_2stim_asymm_v5,2020.2.10,MacIntel,60,61025ae37ef11b136ea224fe,,,,,,,,,2309,-30,-70,1,0,0,response5disk,,3,1,6,1,0,0,rectangle,1,6,1,0,0,1,6,1,0,0,1,74,234,72,1,,,,,,,,
,,,,,,,,,,,,,FF,,,,,,,,1.217,,,,,,,,,,,,,,,,,,,,,,60fdb937b72fd456da7660c0,6103663d204822def51d1f6d,2021-07-29_20h41.03.502,Simcolourproject_2stim_asymm_v5,2020.2.10,MacIntel,60,61025ae37ef11b136ea224fe,,,,,,,,,2294,-83,-44,1,0,0,response5disk,,2,-2,5,1,0,0,rectangle,-2,5,1,0,0,-2,5,1,0,0,1,75,235,92,1,,,,,,,,
,,,,,,,,,,,,,FF,,,,,,,,1.083,,,,,,,,,,,,,,,,,,,,,,60fdb937b72fd456da7660c0,6103663d204822def51d1f6d,2021-07-29_20h41.03.502,Simcolourproject_2stim_asymm_v5,2020.2.10,MacIntel,60,61025ae37ef11b136ea224fe,,,,,,,,,842,49,-108,1,0,0,response3disk,,4,8,-2,1,0,0,rectangle,-72,-33,1,0,0,6,1,1,0,0,1,76,236,148,1,,response5disk_3,TRUE,2,2,"[109,193,304,273,117,237,173,320,95,175,315,63,201,305,135,256,186,39,266,272]",2.484,rectangle
,,,,,,,,,,,,,FF,,,,,,,,3.168,,,,,,,,,,,,,,,,,,,,,,60fdb937b72fd456da7660c0,6103663d204822def51d1f6d,2021-07-29_20h41.03.502,Simcolourproject_2stim_asymm_v5,2020.2.10,MacIntel,60,61025ae37ef11b136ea224fe,,,,,,,,,1015,45,108,1,0,0,response1disk,,7,8,-3,1,0,0,rectangle,8,-3,1,0,0,8,-3,1,0,0,1,77,237,140,1,,,,,,,,
,,,,,,,,,,,,,FF,,,,,,,,2.716,,,,,,,,,,,,,,,,,,,,,,60fdb937b72fd456da7660c0,6103663d204822def51d1f6d,2021-07-29_20h41.03.502,Simcolourproject_2stim_asymm_v5,2020.2.10,MacIntel,60,61025ae37ef11b136ea224fe,,,,,,,,,2148,97,-46,1,0,0,response3disk,,5,13,4,1,0,0,rectangle,13,4,1,0,0,13,4,1,0,0,1,78,238,82,1,,,,,,,,
,,,,,,,,,,,,,FF,,,,,,,,1.682,,,,,,,,,,,,,,,,,,,,,,60fdb937b72fd456da7660c0,6103663d204822def51d1f6d,2021-07-29_20h41.03.502,Simcolourproject_2stim_asymm_v5,2020.2.10,MacIntel,60,61025ae37ef11b136ea224fe,,,,,,,,,2827,-36,-94,1,0,0,response5disk,,3,2,1,1,0,0,rectangle,2,1,1,0,0,2,1,1,0,0,1,79,239,135,1,,,,,,,,
,,,,,,,,,,,,,FF,,,,,,,,0.999,,,,,,,,,,,,,,,,,,,,,,60fdb937b72fd456da7660c0,6103663d204822def51d1f6d,2021-07-29_20h41.03.502,Simcolourproject_2stim_asymm_v5,2020.2.10,MacIntel,60,61025ae37ef11b136ea224fe,,,,,,,,,4344,-42,77,1,0,0,response7disk,,0,-4,-9,1,0,0,rectangle,-4,-9,1,0,0,-4,-9,1,0,0,1,80,240,129,1,,,,,,,,
,,,,,,,,,,,,,FF,,,,,,,,0.917,,,,,,,,,,,,,,,,,,,,,,60fdb937b72fd456da7660c0,6103663d204822def51d1f6d,2021-07-29_20h41.03.502,Simcolourproject_2stim_asymm_v5,2020.2.10,MacIntel,60,61025ae37ef11b136ea224fe,,,,,,,,,3006,-88,28,1,0,0,response7disk,,1,-13,-5,1,0,0,rectangle,-13,-5,1,0,0,-13,-5,1,0,0,1,81,241,85,1,,,,,,,,
,,,,,,,,,,,,,FF,,,,,,,,0.866,,,,,,,,,,,,,,,,,,,,,,60fdb937b72fd456da7660c0,6103663d204822def51d1f6d,2021-07-29_20h41.03.502,Simcolourproject_2stim_asymm_v5,2020.2.10,MacIntel,60,61025ae37ef11b136ea224fe,,,,,,,,,3510,-41,79,1,0,0,response7disk,,0,-4,-10,1,0,0,rectangle,-4,-10,1,0,0,-4,-10,1,0,0,1,82,242,109,1,,,,,,,,
,,,,,,,,,,,,,FF,,,,,,,,1.033,,,,,,,,,,,,,,,,,,,,,,60fdb937b72fd456da7660c0,6103663d204822def51d1f6d,2021-07-29_20h41.03.502,Simcolourproject_2stim_asymm_v5,2020.2.10,MacIntel,60,61025ae37ef11b136ea224fe,,,,,,,,,2638,35,76,1,0,0,response1disk,,7,2,-1,1,0,0,rectangle,2,-1,1,0,0,2,-1,1,0,0,1,83,243,47,1,,,,,,,,
,,,,,,,,,,,,,FF,,,,,,,,0.966,,,,,,,,,,,,,,,,,,,,,,60fdb937b72fd456da7660c0,6103663d204822def51d1f6d,2021-07-29_20h41.03.502,Simcolourproject_2stim_asymm_v5,2020.2.10,MacIntel,60,61025ae37ef11b136ea224fe,,,,,,,,,1458,-72,-39,1,0,0,response5disk,,2,-1,5,1,0,0,rectangle,-1,5,1,0,0,-1,5,1,0,0,1,84,244,9,1,,,,,,,,
,,,,,,,,,,,,,FF,,,,,,,,0.916,,,,,,,,,,,,,,,,,,,,,,60fdb937b72fd456da7660c0,6103663d204822def51d1f6d,2021-07-29_20h41.03.502,Simcolourproject_2stim_asymm_v5,2020.2.10,MacIntel,60,61025ae37ef11b136ea224fe,,,,,,,,,2829,-36,-78,1,0,0,response5disk,,3,-12,-2,1,0,0,rectangle,-12,-2,1,0,0,-12,-2,1,0,0,1,85,245,119,1,,,,,,,,
,,,,,,,,,,,,,FF,,,,,,,,1.383,,,,,,,,,,,,,,,,,,,,,,60fdb937b72fd456da7660c0,6103663d204822def51d1f6d,2021-07-29_20h41.03.502,Simcolourproject_2stim_asymm_v5,2020.2.10,MacIntel,60,61025ae37ef11b136ea224fe,,,,,,,,,431,51,-95,1,0,0,response3disk,,4,5,4,1,0,0,rectangle,5,4,1,0,0,5,4,1,0,0,1,86,246,7,1,,,,,,,,
,,,,,,,,,,,,,FF,,,,,,,,0.867,,,,,,,,,,,,,,,,,,,,,,60fdb937b72fd456da7660c0,6103663d204822def51d1f6d,2021-07-29_20h41.03.502,Simcolourproject_2stim_asymm_v5,2020.2.10,MacIntel,60,61025ae37ef11b136ea224fe,,,,,,,,,3354,35,86,1,0,0,response1disk,,7,1,-9,1,0,0,rectangle,1,-9,1,0,0,1,-9,1,0,0,1,87,247,157,1,,,,,,,,
,,,,,,,,,,,,,FF,,,,,,,,1.234,,,,,,,,,,,,,,,,,,,,,,60fdb937b72fd456da7660c0,6103663d204822def51d1f6d,2021-07-29_20h41.03.502,Simcolourproject_2stim_asymm_v5,2020.2.10,MacIntel,60,61025ae37ef11b136ea224fe,,,,,,,,,1175,48,82,1,0,0,response1disk,,7,6,-7,1,0,0,rectangle,6,-7,1,0,0,6,-7,1,0,0,1,88,248,106,1,,,,,,,,
,,,,,,,,,,,,,FF,,,,,,,,1.718,,,,,,,,,,,,,,,,,,,,,,60fdb937b72fd456da7660c0,6103663d204822def51d1f6d,2021-07-29_20h41.03.502,Simcolourproject_2stim_asymm_v5,2020.2.10,MacIntel,60,61025ae37ef11b136ea224fe,,,,,,,,,1029,58,-98,1,0,0,response3disk,,4,9,4,1,0,0,rectangle,9,4,1,0,0,9,4,1,0,0,1,89,249,18,1,,,,,,,,
,,,,,,,,,,,,,FF,,,,,,,,1.933,,,,,,,,,,,,,,,,,,,,,,60fdb937b72fd456da7660c0,6103663d204822def51d1f6d,2021-07-29_20h41.03.502,Simcolourproject_2stim_asymm_v5,2020.2.10,MacIntel,60,61025ae37ef11b136ea224fe,,,,,,,,,997,45,-31,1,0,0,response3disk,,5,9,-12,1,0,0,rectangle,9,-12,1,0,0,9,-12,1,0,0,1,90,250,107,1,,,,,,,,
,,,,,,,,,,,,,FF,,,,,,,,1.767,,,,,,,,,,,,,,,,,,,,,,60fdb937b72fd456da7660c0,6103663d204822def51d1f6d,2021-07-29_20h41.03.502,Simcolourproject_2stim_asymm_v5,2020.2.10,MacIntel,60,61025ae37ef11b136ea224fe,,,,,,,,,3697,31,-71,1,0,0,response3disk,,4,-1,2,1,0,0,rectangle,-1,2,1,0,0,-1,2,1,0,0,1,91,251,55,1,,,,,,,,
,,,,,,,,,,,,,FF,,,,,,,,1.733,,,,,,,,,,,,,,,,,,,,,,60fdb937b72fd456da7660c0,6103663d204822def51d1f6d,2021-07-29_20h41.03.502,Simcolourproject_2stim_asymm_v5,2020.2.10,MacIntel,60,61025ae37ef11b136ea224fe,,,,,,,,,3948,-38,-84,1,0,0,response5disk,,3,-9,0,1,0,0,rectangle,-9,0,1,0,0,-9,0,1,0,0,1,92,252,26,1,,,,,,,,
,,,,,,,,,,,,,FF,,,,,,,,1.335,,,,,,,,,,,,,,,,,,,,,,60fdb937b72fd456da7660c0,6103663d204822def51d1f6d,2021-07-29_20h41.03.502,Simcolourproject_2stim_asymm_v5,2020.2.10,MacIntel,60,61025ae37ef11b136ea224fe,,,,,,,,,4108,-86,-45,1,0,0,response5disk,,2,-11,6,1,0,0,rectangle,-11,6,1,0,0,-11,6,1,0,0,1,93,253,124,1,,,,,,,,
,,,,,,,,,,,,,FF,,,,,,,,0.95,,,,,,,,,,,,,,,,,,,,,,60fdb937b72fd456da7660c0,6103663d204822def51d1f6d,2021-07-29_20h41.03.502,Simcolourproject_2stim_asymm_v5,2020.2.10,MacIntel,60,61025ae37ef11b136ea224fe,,,,,,,,,441,-75,29,1,0,0,response7disk,,1,5,2,1,0,0,rectangle,5,2,1,0,0,5,2,1,0,0,1,94,254,134,1,,,,,,,,
,,,,,,,,,,,,,FF,,,,,,,,3.068,,,,,,,,,,,,,,,,,,,,,,60fdb937b72fd456da7660c0,6103663d204822def51d1f6d,2021-07-29_20h41.03.502,Simcolourproject_2stim_asymm_v5,2020.2.10,MacIntel,60,61025ae37ef11b136ea224fe,,,,,,,,,4061,-80,30,1,0,0,response7disk,,1,7,-4,1,0,0,rectangle,34,-93,1,0,0,-6,-1,1,0,0,1,95,255,53,1,,response3disk_3,TRUE,4,4,"[109,193,304,273,117,237,173,320,95,175,315,63,201,305,135,256,186,39,266,272]",2.1,rectangle
,,,,,,,,,,,,,FF,,,,,,,,1.4,,,,,,,,,,,,,,,,,,,,,,60fdb937b72fd456da7660c0,6103663d204822def51d1f6d,2021-07-29_20h41.03.502,Simcolourproject_2stim_asymm_v5,2020.2.10,MacIntel,60,61025ae37ef11b136ea224fe,,,,,,,,,1259,53,-86,1,0,0,response3disk,,4,6,11,1,0,0,rectangle,6,11,1,0,0,6,11,1,0,0,1,96,256,97,1,,,,,,,,
,,,,,,,,,,,,,FF,,,,,,,,1.082,,,,,,,,,,,,,,,,,,,,,,60fdb937b72fd456da7660c0,6103663d204822def51d1f6d,2021-07-29_20h41.03.502,Simcolourproject_2stim_asymm_v5,2020.2.10,MacIntel,60,61025ae37ef11b136ea224fe,,,,,,,,,3866,84,-40,1,0,0,response3disk,,5,13,-8,1,0,0,rectangle,13,-8,1,0,0,13,-8,1,0,0,1,97,257,147,1,,,,,,,,
,,,,,,,,,,,,,FF,,,,,,,,2.149,,,,,,,,,,,,,,,,,,,,,,60fdb937b72fd456da7660c0,6103663d204822def51d1f6d,2021-07-29_20h41.03.502,Simcolourproject_2stim_asymm_v5,2020.2.10,MacIntel,60,61025ae37ef11b136ea224fe,,,,,,,,,424,82,-37,1,0,0,response3disk,,5,18,1,1,0,0,rectangle,18,1,1,0,0,18,1,1,0,0,1,98,258,149,1,,,,,,,,
,,,,,,,,,,,,,FF,,,,,,,,2.099,,,,,,,,,,,,,,,,,,,,,,60fdb937b72fd456da7660c0,6103663d204822def51d1f6d,2021-07-29_20h41.03.502,Simcolourproject_2stim_asymm_v5,2020.2.10,MacIntel,60,61025ae37ef11b136ea224fe,,,,,,,,,1318,-80,-59,1,0,0,response5disk,,2,5,-8,1,0,0,rectangle,5,-8,1,0,0,5,-8,1,0,0,1,99,259,44,1,,,,,,,,
,,,,,,,,,,,,,FF,,,,,,,,0.968,,,,,,,,,,,,,,,,,,,,,,60fdb937b72fd456da7660c0,6103663d204822def51d1f6d,2021-07-29_20h41.03.502,Simcolourproject_2stim_asymm_v5,2020.2.10,MacIntel,60,61025ae37ef11b136ea224fe,,,,,,,,,2995,-77,35,1,0,0,response7disk,,1,-9,2,1,0,0,rectangle,-9,2,1,0,0,-9,2,1,0,0,1,100,260,150,1,,,,,,,,
,,,,,,,,,,,,,FF,,,,,,,,2.134,,,,,,,,,,,,,,,,,,,,,,60fdb937b72fd456da7660c0,6103663d204822def51d1f6d,2021-07-29_20h41.03.502,Simcolourproject_2stim_asymm_v5,2020.2.10,MacIntel,60,61025ae37ef11b136ea224fe,,,,,,,,,3693,98,-54,1,0,0,response3disk,,5,1,-2,1,0,0,rectangle,1,-2,1,0,0,1,-2,1,0,0,1,101,261,45,1,,,,,,,,
,,,,,,,,,,,,,FF,,,,,,,,1.9,,,,,,,,,,,,,,,,,,,,,,60fdb937b72fd456da7660c0,6103663d204822def51d1f6d,2021-07-29_20h41.03.502,Simcolourproject_2stim_asymm_v5,2020.2.10,MacIntel,60,61025ae37ef11b136ea224fe,,,,,,,,,3580,30,100,1,0,0,response1disk,,7,-5,-3,1,0,0,rectangle,-5,-3,1,0,0,-5,-3,1,0,0,1,102,262,114,1,,,,,,,,
,,,,,,,,,,,,,FF,,,,,,,,1.85,,,,,,,,,,,,,,,,,,,,,,60fdb937b72fd456da7660c0,6103663d204822def51d1f6d,2021-07-29_20h41.03.502,Simcolourproject_2stim_asymm_v5,2020.2.10,MacIntel,60,61025ae37ef11b136ea224fe,,,,,,,,,3931,96,-52,1,0,0,response3disk,,5,9,2,1,0,0,rectangle,9,2,1,0,0,9,2,1,0,0,1,103,263,138,1,,,,,,,,
,,,,,,,,,,,,,FF,,,,,,,,1.2,,,,,,,,,,,,,,,,,,,,,,60fdb937b72fd456da7660c0,6103663d204822def51d1f6d,2021-07-29_20h41.03.502,Simcolourproject_2stim_asymm_v5,2020.2.10,MacIntel,60,61025ae37ef11b136ea224fe,,,,,,,,,3752,43,-78,1,0,0,response3disk,,4,10,0,1,0,0,rectangle,10,0,1,0,0,10,0,1,0,0,1,104,264,117,1,,,,,,,,
,,,,,,,,,,,,,FF,,,,,,,,1.5,,,,,,,,,,,,,,,,,,,,,,60fdb937b72fd456da7660c0,6103663d204822def51d1f6d,2021-07-29_20h41.03.502,Simcolourproject_2stim_asymm_v5,2020.2.10,MacIntel,60,61025ae37ef11b136ea224fe,,,,,,,,,610,-27,-85,1,0,0,response5disk,,3,-9,-2,1,0,0,rectangle,-45,84,1,0,0,2,8,1,0,0,1,105,265,13,1,,response7disk_3,TRUE,0,0,"[109,193,304,273,117,237,173,320,95,175,315,63,201,305,135,256,186,39,266,272]",1.666,rectangle
,,,,,,,,,,,,,FF,,,,,,,,1.417,,,,,,,,,,,,,,,,,,,,,,60fdb937b72fd456da7660c0,6103663d204822def51d1f6d,2021-07-29_20h41.03.502,Simcolourproject_2stim_asymm_v5,2020.2.10,MacIntel,60,61025ae37ef11b136ea224fe,,,,,,,,,313,47,77,1,0,0,response1disk,,7,10,2,1,0,0,rectangle,10,2,1,0,0,10,2,1,0,0,1,106,266,69,1,,,,,,,,
,,,,,,,,,,,,,FF,,,,,,,,1.951,,,,,,,,,,,,,,,,,,,,,,60fdb937b72fd456da7660c0,6103663d204822def51d1f6d,2021-07-29_20h41.03.502,Simcolourproject_2stim_asymm_v5,2020.2.10,MacIntel,60,61025ae37ef11b136ea224fe,,,,,,,,,1795,107,-39,1,0,0,response3disk,,5,3,-6,1,0,0,rectangle,3,-6,1,0,0,3,-6,1,0,0,1,107,267,60,1,,,,,,,,
,,,,,,,,,,,,,FF,,,,,,,,1.55,,,,,,,,,,,,,,,,,,,,,,60fdb937b72fd456da7660c0,6103663d204822def51d1f6d,2021-07-29_20h41.03.502,Simcolourproject_2stim_asymm_v5,2020.2.10,MacIntel,60,61025ae37ef11b136ea224fe,,,,,,,,,3293,-73,-31,1,0,0,response5disk,,2,9,14,1,0,0,rectangle,9,14,1,0,0,9,14,1,0,0,1,108,268,32,1,,,,,,,,
,,,,,,,,,,,,,FF,,,,,,,,2.966,,,,,,,,,,,,,,,,,,,,,,60fdb937b72fd456da7660c0,6103663d204822def51d1f6d,2021-07-29_20h41.03.502,Simcolourproject_2stim_asymm_v5,2020.2.10,MacIntel,60,61025ae37ef11b136ea224fe,,,,,,,,,2639,100,-53,1,0,0,response3disk,,5,2,-4,1,0,0,rectangle,2,-4,1,0,0,2,-4,1,0,0,1,109,269,125,1,,,,,,,,
,,,,,,,,,,,,,FF,,,,,,,,2.266,,,,,,,,,,,,,,,,,,,,,,60fdb937b72fd456da7660c0,6103663d204822def51d1f6d,2021-07-29_20h41.03.502,Simcolourproject_2stim_asymm_v5,2020.2.10,MacIntel,60,61025ae37ef11b136ea224fe,,,,,,,,,2062,31,-108,1,0,0,response3disk,,4,3,7,1,0,0,rectangle,3,7,1,0,0,3,7,1,0,0,1,110,270,67,1,,,,,,,,
,,,,,,,,,,,,,FF,,,,,,,,3.307,,,,,,,,,,,,,,,,,,,,,,60fdb937b72fd456da7660c0,6103663d204822def51d1f6d,2021-07-29_20h41.03.502,Simcolourproject_2stim_asymm_v5,2020.2.10,MacIntel,60,61025ae37ef11b136ea224fe,,,,,,,,,419,88,-31,1,0,0,response3disk,,5,-3,-6,1,0,0,rectangle,-65,-101,1,0,0,-19,0,1,0,0,1,111,271,54,1,,response5disk_3,TRUE,3,3,"[109,193,304,273,117,237,173,320,95,175,315,63,201,305,135,256,186,39,266,272]",2.8,rectangle
,,,,,,,,,,,,,FF,,,,,,,,2,,,,,,,,,,,,,,,,,,,,,,60fdb937b72fd456da7660c0,6103663d204822def51d1f6d,2021-07-29_20h41.03.502,Simcolourproject_2stim_asymm_v5,2020.2.10,MacIntel,60,61025ae37ef11b136ea224fe,,,,,,,,,4154,101,-51,1,0,0,response3disk,,5,8,-5,1,0,0,rectangle,-43,-97,1,0,0,-3,7,1,0,0,1,112,272,14,1,,response5disk_3,TRUE,3,3,"[109,193,304,273,117,237,173,320,95,175,315,63,201,305,135,256,186,39,266,272]",2.134,rectangle
,,,,,,,,,,,,,FF,,,,,,,,1.083,,,,,,,,,,,,,,,,,,,,,,60fdb937b72fd456da7660c0,6103663d204822def51d1f6d,2021-07-29_20h41.03.502,Simcolourproject_2stim_asymm_v5,2020.2.10,MacIntel,60,61025ae37ef11b136ea224fe,,,,,,,,,2178,-33,-87,1,0,0,response5disk,,3,-5,8,1,0,0,rectangle,-5,8,1,0,0,-5,8,1,0,0,1,113,273,81,1,,,,,,,,
,,,,,,,,,,,,,FF,,,,,,,,2.834,,,,,,,,,,,,,,,,,,,,,,60fdb937b72fd456da7660c0,6103663d204822def51d1f6d,2021-07-29_20h41.03.502,Simcolourproject_2stim_asymm_v5,2020.2.10,MacIntel,60,61025ae37ef11b136ea224fe,,,,,,,,,604,-44,-104,1,0,0,response5disk,,3,-5,13,1,0,0,rectangle,-5,13,1,0,0,-5,13,1,0,0,1,114,274,90,1,,,,,,,,
,,,,,,,,,,,,,FF,,,,,,,,1.3,,,,,,,,,,,,,,,,,,,,,,60fdb937b72fd456da7660c0,6103663d204822def51d1f6d,2021-07-29_20h41.03.502,Simcolourproject_2stim_asymm_v5,2020.2.10,MacIntel,60,61025ae37ef11b136ea224fe,,,,,,,,,623,85,-45,1,0,0,response3disk,,5,4,-6,1,0,0,rectangle,4,-6,1,0,0,4,-6,1,0,0,1,115,275,49,1,,,,,,,,
,,,,,,,,,,,,,FF,,,,,,,,1.033,,,,,,,,,,,,,,,,,,,,,,60fdb937b72fd456da7660c0,6103663d204822def51d1f6d,2021-07-29_20h41.03.502,Simcolourproject_2stim_asymm_v5,2020.2.10,MacIntel,60,61025ae37ef11b136ea224fe,,,,,,,,,448,83,-44,1,0,0,response3disk,,5,-11,6,1,0,0,rectangle,-11,6,1,0,0,-11,6,1,0,0,1,116,276,51,1,,,,,,,,
,,,,,,,,,,,,,FF,,,,,,,,1.283,,,,,,,,,,,,,,,,,,,,,,60fdb937b72fd456da7660c0,6103663d204822def51d1f6d,2021-07-29_20h41.03.502,Simcolourproject_2stim_asymm_v5,2020.2.10,MacIntel,60,61025ae37ef11b136ea224fe,,,,,,,,,1096,87,-33,1,0,0,response3disk,,5,16,0,1,0,0,rectangle,16,0,1,0,0,16,0,1,0,0,1,117,277,42,1,,,,,,,,
,,,,,,,,,,,,,FF,,,,,,,,2.867,,,,,,,,,,,,,,,,,,,,,,60fdb937b72fd456da7660c0,6103663d204822def51d1f6d,2021-07-29_20h41.03.502,Simcolourproject_2stim_asymm_v5,2020.2.10,MacIntel,60,61025ae37ef11b136ea224fe,,,,,,,,,1926,57,-81,1,0,0,response3disk,,4,7,3,1,0,0,rectangle,7,3,1,0,0,7,3,1,0,0,1,118,278,71,1,,,,,,,,
,,,,,,,,,,,,,FF,,,,,,,,1.733,,,,,,,,,,,,,,,,,,,,,,60fdb937b72fd456da7660c0,6103663d204822def51d1f6d,2021-07-29_20h41.03.502,Simcolourproject_2stim_asymm_v5,2020.2.10,MacIntel,60,61025ae37ef11b136ea224fe,,,,,,,,,1116,-47,-97,1,0,0,response5disk,,3,-17,2,1,0,0,rectangle,-17,2,1,0,0,-17,2,1,0,0,1,119,279,52,1,,,,,,,,
,,,,,,,,,,,,,FF,,,,,,,,0.884,,,,,,,,,,,,,,,,,,,,,,60fdb937b72fd456da7660c0,6103663d204822def51d1f6d,2021-07-29_20h41.03.502,Simcolourproject_2stim_asymm_v5,2020.2.10,MacIntel,60,61025ae37ef11b136ea224fe,,,,,,,,,3253,-44,-73,1,0,0,response5disk,,3,-22,-17,1,0,0,rectangle,-22,-17,1,0,0,-22,-17,1,0,0,1,120,280,63,1,,,,,,,,
,,,,,,,,,,,,,FF,,,,,,,,0.9,,,,,,,,,,,,,,,,,,,,,,60fdb937b72fd456da7660c0,6103663d204822def51d1f6d,2021-07-29_20h41.03.502,Simcolourproject_2stim_asymm_v5,2020.2.10,MacIntel,60,61025ae37ef11b136ea224fe,,,,,,,,,4223,-74,-30,1,0,0,response5disk,,2,-23,11,1,0,0,rectangle,-23,11,1,0,0,-23,11,1,0,0,1,121,281,128,1,,,,,,,,
,,,,,,,,,,,,,FF,,,,,,,,2.1,,,,,,,,,,,,,,,,,,,,,,60fdb937b72fd456da7660c0,6103663d204822def51d1f6d,2021-07-29_20h41.03.502,Simcolourproject_2stim_asymm_v5,2020.2.10,MacIntel,60,61025ae37ef11b136ea224fe,,,,,,,,,1656,85,-54,1,0,0,response3disk,,5,14,-4,1,0,0,rectangle,14,-4,1,0,0,14,-4,1,0,0,1,122,282,25,1,,,,,,,,
,,,,,,,,,,,,,FF,,,,,,,,2.217,,,,,,,,,,,,,,,,,,,,,,60fdb937b72fd456da7660c0,6103663d204822def51d1f6d,2021-07-29_20h41.03.502,Simcolourproject_2stim_asymm_v5,2020.2.10,MacIntel,60,61025ae37ef11b136ea224fe,,,,,,,,,421,25,-100,1,0,0,response3disk,,4,-1,5,1,0,0,rectangle,-1,5,1,0,0,-1,5,1,0,0,1,123,283,39,1,,,,,,,,
,,,,,,,,,,,,,FF,,,,,,,,1.617,,,,,,,,,,,,,,,,,,,,,,60fdb937b72fd456da7660c0,6103663d204822def51d1f6d,2021-07-29_20h41.03.502,Simcolourproject_2stim_asymm_v5,2020.2.10,MacIntel,60,61025ae37ef11b136ea224fe,,,,,,,,,3599,-41,-78,1,0,0,response5disk,,3,-4,1,1,0,0,rectangle,-4,1,1,0,0,-4,1,1,0,0,1,124,284,15,1,,,,,,,,
,,,,,,,,,,,,,FF,,,,,,,,1.317,,,,,,,,,,,,,,,,,,,,,,60fdb937b72fd456da7660c0,6103663d204822def51d1f6d,2021-07-29_20h41.03.502,Simcolourproject_2stim_asymm_v5,2020.2.10,MacIntel,60,61025ae37ef11b136ea224fe,,,,,,,,,1509,85,-44,1,0,0,response3disk,,5,-6,-2,1,0,0,rectangle,-6,-2,1,0,0,-6,-2,1,0,0,1,125,285,115,1,,,,,,,,
,,,,,,,,,,,,,FF,,,,,,,,0.901,,,,,,,,,,,,,,,,,,,,,,60fdb937b72fd456da7660c0,6103663d204822def51d1f6d,2021-07-29_20h41.03.502,Simcolourproject_2stim_asymm_v5,2020.2.10,MacIntel,60,61025ae37ef11b136ea224fe,,,,,,,,,207,96,-40,1,0,0,response3disk,,5,-2,-5,1,0,0,rectangle,-2,-5,1,0,0,-2,-5,1,0,0,1,126,286,100,1,,,,,,,,
,,,,,,,,,,,,,FF,,,,,,,,1.517,,,,,,,,,,,,,,,,,,,,,,60fdb937b72fd456da7660c0,6103663d204822def51d1f6d,2021-07-29_20h41.03.502,Simcolourproject_2stim_asymm_v5,2020.2.10,MacIntel,60,61025ae37ef11b136ea224fe,,,,,,,,,1991,104,48,1,0,0,response1disk,,6,-17,-4,1,0,0,rectangle,-17,-4,1,0,0,-17,-4,1,0,0,1,127,287,154,1,,,,,,,,
,,,,,,,,,,,,,FF,,,,,,,,1.9,,,,,,,,,,,,,,,,,,,,,,60fdb937b72fd456da7660c0,6103663d204822def51d1f6d,2021-07-29_20h41.03.502,Simcolourproject_2stim_asymm_v5,2020.2.10,MacIntel,60,61025ae37ef11b136ea224fe,,,,,,,,,4260,91,28,1,0,0,response1disk,,6,-4,-6,1,0,0,rectangle,-4,-6,1,0,0,-4,-6,1,0,0,1,128,288,16,1,,,,,,,,
,,,,,,,,,,,,,FF,,,,,,,,1.216,,,,,,,,,,,,,,,,,,,,,,60fdb937b72fd456da7660c0,6103663d204822def51d1f6d,2021-07-29_20h41.03.502,Simcolourproject_2stim_asymm_v5,2020.2.10,MacIntel,60,61025ae37ef11b136ea224fe,,,,,,,,,3992,76,-44,1,0,0,response3disk,,5,3,4,1,0,0,rectangle,3,4,1,0,0,3,4,1,0,0,1,129,289,24,1,,,,,,,,
,,,,,,,,,,,,,FF,,,,,,,,1.066,,,,,,,,,,,,,,,,,,,,,,60fdb937b72fd456da7660c0,6103663d204822def51d1f6d,2021-07-29_20h41.03.502,Simcolourproject_2stim_asymm_v5,2020.2.10,MacIntel,60,61025ae37ef11b136ea224fe,,,,,,,,,1752,-80,37,1,0,0,response7disk,,1,9,-5,1,0,0,rectangle,9,-5,1,0,0,9,-5,1,0,0,1,130,290,155,1,,,,,,,,
,,,,,,,,,,,,,FF,,,,,,,,1.35,,,,,,,,,,,,,,,,,,,,,,60fdb937b72fd456da7660c0,6103663d204822def51d1f6d,2021-07-29_20h41.03.502,Simcolourproject_2stim_asymm_v5,2020.2.10,MacIntel,60,61025ae37ef11b136ea224fe,,,,,,,,,2398,34,78,1,0,0,response1disk,,7,8,6,1,0,0,rectangle,8,6,1,0,0,8,6,1,0,0,1,131,291,20,1,,,,,,,,
,,,,,,,,,,,,,FF,,,,,,,,3.084,,,,,,,,,,,,,,,,,,,,,,60fdb937b72fd456da7660c0,6103663d204822def51d1f6d,2021-07-29_20h41.03.502,Simcolourproject_2stim_asymm_v5,2020.2.10,MacIntel,60,61025ae37ef11b136ea224fe,,,,,,,,,3416,101,-57,1,0,0,response3disk,,5,2,8,1,0,0,rectangle,2,8,1,0,0,2,8,1,0,0,1,132,292,19,1,,,,,,,,
,,,,,,,,,,,,,FF,,,,,,,,2.082,,,,,,,,,,,,,,,,,,,,,,60fdb937b72fd456da7660c0,6103663d204822def51d1f6d,2021-07-29_20h41.03.502,Simcolourproject_2stim_asymm_v5,2020.2.10,MacIntel,60,61025ae37ef11b136ea224fe,,,,,,,,,3564,80,-56,1,0,0,response3disk,,5,19,-4,1,0,0,rectangle,19,-4,1,0,0,19,-4,1,0,0,1,133,293,126,1,,,,,,,,
,,,,,,,,,,,,,FF,,,,,,,,1.6,,,,,,,,,,,,,,,,,,,,,,60fdb937b72fd456da7660c0,6103663d204822def51d1f6d,2021-07-29_20h41.03.502,Simcolourproject_2stim_asymm_v5,2020.2.10,MacIntel,60,61025ae37ef11b136ea224fe,,,,,,,,,3503,-80,-31,1,0,0,response5disk,,2,-17,-3,1,0,0,rectangle,-17,-3,1,0,0,-17,-3,1,0,0,1,134,294,79,1,,,,,,,,
,,,,,,,,,,,,,FF,,,,,,,,1.267,,,,,,,,,,,,,,,,,,,,,,60fdb937b72fd456da7660c0,6103663d204822def51d1f6d,2021-07-29_20h41.03.502,Simcolourproject_2stim_asymm_v5,2020.2.10,MacIntel,60,61025ae37ef11b136ea224fe,,,,,,,,,1591,81,-49,1,0,0,response3disk,,5,17,-2,1,0,0,rectangle,17,-2,1,0,0,17,-2,1,0,0,1,135,295,127,1,,,,,,,,
,,,,,,,,,,,,,FF,,,,,,,,1.267,,,,,,,,,,,,,,,,,,,,,,60fdb937b72fd456da7660c0,6103663d204822def51d1f6d,2021-07-29_20h41.03.502,Simcolourproject_2stim_asymm_v5,2020.2.10,MacIntel,60,61025ae37ef11b136ea224fe,,,,,,,,,4011,64,-42,1,0,0,response3disk,,5,14,-7,1,0,0,rectangle,14,-7,1,0,0,14,-7,1,0,0,1,136,296,110,1,,,,,,,,
,,,,,,,,,,,,,FF,,,,,,,,1.718,,,,,,,,,,,,,,,,,,,,,,60fdb937b72fd456da7660c0,6103663d204822def51d1f6d,2021-07-29_20h41.03.502,Simcolourproject_2stim_asymm_v5,2020.2.10,MacIntel,60,61025ae37ef11b136ea224fe,,,,,,,,,903,-35,-97,1,0,0,response5disk,,3,0,-4,1,0,0,rectangle,0,-4,1,0,0,0,-4,1,0,0,1,137,297,0,1,,,,,,,,
,,,,,,,,,,,,,FF,,,,,,,,1.183,,,,,,,,,,,,,,,,,,,,,,60fdb937b72fd456da7660c0,6103663d204822def51d1f6d,2021-07-29_20h41.03.502,Simcolourproject_2stim_asymm_v5,2020.2.10,MacIntel,60,61025ae37ef11b136ea224fe,,,,,,,,,4362,-40,91,1,0,0,response7disk,,0,0,-2,1,0,0,rectangle,0,-2,1,0,0,0,-2,1,0,0,1,138,298,159,1,,,,,,,,
,,,,,,,,,,,,,FF,,,,,,,,2.35,,,,,,,,,,,,,,,,,,,,,,60fdb937b72fd456da7660c0,6103663d204822def51d1f6d,2021-07-29_20h41.03.502,Simcolourproject_2stim_asymm_v5,2020.2.10,MacIntel,60,61025ae37ef11b136ea224fe,,,,,,,,,2321,81,48,1,0,0,response1disk,,6,9,-3,1,0,0,rectangle,9,-3,1,0,0,9,-3,1,0,0,1,139,299,139,1,,,,,,,,
,,,,,,,,,,,,,FF,,,,,,,,1.734,,,,,,,,,,,,,,,,,,,,,,60fdb937b72fd456da7660c0,6103663d204822def51d1f6d,2021-07-29_20h41.03.502,Simcolourproject_2stim_asymm_v5,2020.2.10,MacIntel,60,61025ae37ef11b136ea224fe,,,,,,,,,2285,38,-97,1,0,0,response3disk,,4,5,3,1,0,0,rectangle,5,3,1,0,0,5,3,1,0,0,1,140,300,91,1,,,,,,,,
,,,,,,,,,,,,,FF,,,,,,,,1.266,,,,,,,,,,,,,,,,,,,,,,60fdb937b72fd456da7660c0,6103663d204822def51d1f6d,2021-07-29_20h41.03.502,Simcolourproject_2stim_asymm_v5,2020.2.10,MacIntel,60,61025ae37ef11b136ea224fe,,,,,,,,,1744,-38,-72,1,0,0,response5disk,,3,4,7,1,0,0,rectangle,4,7,1,0,0,4,7,1,0,0,1,141,301,89,1,,,,,,,,
