key_resp.keys,key_resp.rt,key_resp_14.keys,key_resp_14.rt,key_resp_15.keys,key_resp_15.rt,key_resp_17.keys,key_resp_17.rt,key_resp_9.keys,key_resp_9.rt,key_resp_10.keys,key_resp_10.rt,practice_comparison,Ecc,mouse_5.x,mouse_5.y,mouse_5.leftButton,mouse_5.midButton,mouse_5.rightButton,mouse_5.clicked_name,pracsimilarity,response_time,mouse_10.x,mouse_10.y,mouse_10.leftButton,mouse_10.midButton,mouse_10.rightButton,mouse_10.clicked_name,mouse_7.x,mouse_7.y,mouse_7.leftButton,mouse_7.midButton,mouse_7.rightButton,mouse_6.x,mouse_6.y,mouse_6.leftButton,mouse_6.midButton,mouse_6.rightButton,duringprac.thisRepN,duringprac.thisTrialN,duringprac.thisN,duringprac.thisIndex,duringprac.ran,participant,session,date,expName,psychopyVersion,OS,frameRate,study_id,mouse_7.clicked_name,catchpracsimilarity,catch_response_time,catchnumberprac,catchtrialorderprac,mouse_6.clicked_name,key_resp_22.keys,key_resp_22.rt,realcomparison,mouse.x,mouse.y,mouse.leftButton,mouse.midButton,mouse.rightButton,mouse.clicked_name,Colour2,similarity,mouse_2.x,mouse_2.y,mouse_2.leftButton,mouse_2.midButton,mouse_2.rightButton,mouse_2.clicked_name,mouse_3.x,mouse_3.y,mouse_3.leftButton,mouse_3.midButton,mouse_3.rightButton,mouse_11.x,mouse_11.y,mouse_11.leftButton,mouse_11.midButton,mouse_11.rightButton,trials_2.thisRepN,trials_2.thisTrialN,trials_2.thisN,trials_2.thisIndex,trials_2.ran,Colour1,mouse_3.clicked_name,catchornah,catchsimilarity,catchnumber,catchtrialorder,catchRT,mouse_11.clicked_name
space,13.706,space,6.209,space,47.7195,space,4.2879,space,0.1207,space,4.7357,96,FF,-47.171875,104.09375,1,0,0,response7disk_5,0,10.053,14.33984375,-6.515625,1,0,0,rectangle_8,14.33984375,-6.515625,1,0,0,14.33984375,-6.515625,1,0,0,0,0,0,0,1,60fd9253ff686bfc8372a42e,610366bfe360822e03470ad6,2021-07-29_22h42.11.718,Simcolourproject_2stim_asymm_v5,2020.2.10,MacIntel,60,61025ae37ef11b136ea224fe,,,,,,,,,,,,,,,,,,,,,,,,,,,,,,,,,,,,,,,,,,,,,,
,,,,,,,,,,,,76,PF,-63.91796875,28.2734375,1,0,0,response7disk_5,1,8.7508,-0.91015625,3.2734375,1,0,0,rectangle_8,-38.125,104.0273438,1,0,0,-5.8515625,-3.33984375,1,0,0,0,1,1,1,1,60fd9253ff686bfc8372a42e,610366bfe360822e03470ad6,2021-07-29_22h42.11.718,Simcolourproject_2stim_asymm_v5,2020.2.10,MacIntel,60,61025ae37ef11b136ea224fe,response7disk_7,0,3.3333,3,"[2,5]",rectangle_4,,,,,,,,,,,,,,,,,,,,,,,,,,,,,,,,,,,,,,,,
,,,,,,,,,,,,15,FF,69.80859375,37.62109375,1,0,0,response1disk_5,6,5.8164,-2.546875,-1.81640625,1,0,0,rectangle_8,-2.546875,-1.81640625,1,0,0,-2.546875,-1.81640625,1,0,0,0,2,2,3,1,60fd9253ff686bfc8372a42e,610366bfe360822e03470ad6,2021-07-29_22h42.11.718,Simcolourproject_2stim_asymm_v5,2020.2.10,MacIntel,60,61025ae37ef11b136ea224fe,,,,,,,,,,,,,,,,,,,,,,,,,,,,,,,,,,,,,,,,,,,,,,
,,,,,,,,,,,,42,PF,30.33203125,-90.67578125,1,0,0,response3disk_5,4,1.8655,-5.73828125,11.87109375,1,0,0,rectangle_8,-5.73828125,11.87109375,1,0,0,-5.73828125,11.87109375,1,0,0,0,3,3,2,1,60fd9253ff686bfc8372a42e,610366bfe360822e03470ad6,2021-07-29_22h42.11.718,Simcolourproject_2stim_asymm_v5,2020.2.10,MacIntel,60,61025ae37ef11b136ea224fe,,,,,,,,,,,,,,,,,,,,,,,,,,,,,,,,,,,,,,,,,,,,,,
,,,,,,,,,,,,40,FF,79.78515625,41.55859375,1,0,0,response1disk_5,6,1.6679,14.57421875,-7.31640625,1,0,0,rectangle_8,-29.1796875,-100.6289063,1,0,0,11.5078125,6.6953125,1,0,0,0,4,4,5,1,60fd9253ff686bfc8372a42e,610366bfe360822e03470ad6,2021-07-29_22h42.11.718,Simcolourproject_2stim_asymm_v5,2020.2.10,MacIntel,60,61025ae37ef11b136ea224fe,response5disk_7,3,3.5836,3,"[2,5]",rectangle_4,,,,,,,,,,,,,,,,,,,,,,,,,,,,,,,,,,,,,,,,
,,,,,,,,,,,,35,PF,71.5546875,-41.9765625,1,0,0,response3disk_5,5,2.135,-24.12109375,13.34375,1,0,0,rectangle_8,-24.12109375,13.34375,1,0,0,-24.12109375,13.34375,1,0,0,0,5,5,4,1,60fd9253ff686bfc8372a42e,610366bfe360822e03470ad6,2021-07-29_22h42.11.718,Simcolourproject_2stim_asymm_v5,2020.2.10,MacIntel,60,61025ae37ef11b136ea224fe,,,,,,,,,,,,,,,,,,,,,,,,,,,,,,,,,,,,,,,,,,,,,,
,,,,,,,,,,,,133,PF,55.6484375,-67.3046875,1,0,0,response3disk_5,4,1.7156,19.8671875,-0.421875,1,0,0,rectangle_8,19.8671875,-0.421875,1,0,0,19.8671875,-0.421875,1,0,0,0,6,6,6,1,60fd9253ff686bfc8372a42e,610366bfe360822e03470ad6,2021-07-29_22h42.11.718,Simcolourproject_2stim_asymm_v5,2020.2.10,MacIntel,60,61025ae37ef11b136ea224fe,,,,,,,,,,,,,,,,,,,,,,,,,,,,,,,,,,,,,,,,,,,,,,
,,,,,,,,,,,,,FF,,,,,,,,2.2336,,,,,,,,,,,,,,,,,,,,,,60fd9253ff686bfc8372a42e,610366bfe360822e03470ad6,2021-07-29_22h42.11.718,Simcolourproject_2stim_asymm_v5,2020.2.10,MacIntel,60,61025ae37ef11b136ea224fe,,,,,,,space,2.0553,4119,68.296875,-28.921875,1,0,0,response3disk,,5,1.20703125,0.47265625,1,0,0,rectangle,1.20703125,0.47265625,1,0,0,1.20703125,0.47265625,1,0,0,0,0,0,108,1,,,,,,,,
,,,,,,,,,,,,,FF,,,,,,,,6.7666,,,,,,,,,,,,,,,,,,,,,,60fd9253ff686bfc8372a42e,610366bfe360822e03470ad6,2021-07-29_22h42.11.718,Simcolourproject_2stim_asymm_v5,2020.2.10,MacIntel,60,61025ae37ef11b136ea224fe,,,,,,,,,3892,31.23046875,-60.08203125,1,0,0,response3disk,,4,-2.16796875,1.609375,1,0,0,rectangle,-2.16796875,1.609375,1,0,0,-2.16796875,1.609375,1,0,0,0,1,1,139,1,,,,,,,,
,,,,,,,,,,,,,FF,,,,,,,,8.8021,,,,,,,,,,,,,,,,,,,,,,60fd9253ff686bfc8372a42e,610366bfe360822e03470ad6,2021-07-29_22h42.11.718,Simcolourproject_2stim_asymm_v5,2020.2.10,MacIntel,60,61025ae37ef11b136ea224fe,,,,,,,,,1928,72.53125,-40.86328125,1,0,0,response3disk,,5,9.6640625,-0.79296875,1,0,0,rectangle,9.6640625,-0.79296875,1,0,0,9.6640625,-0.79296875,1,0,0,0,2,2,40,1,,,,,,,,
,,,,,,,,,,,,,FF,,,,,,,,4.1996,,,,,,,,,,,,,,,,,,,,,,60fd9253ff686bfc8372a42e,610366bfe360822e03470ad6,2021-07-29_22h42.11.718,Simcolourproject_2stim_asymm_v5,2020.2.10,MacIntel,60,61025ae37ef11b136ea224fe,,,,,,,,,3033,-82.8125,-38.1171875,1,0,0,response5disk,,2,-1.9921875,-2.17578125,1,0,0,rectangle,-1.9921875,-2.17578125,1,0,0,-1.9921875,-2.17578125,1,0,0,0,3,3,17,1,,,,,,,,
,,,,,,,,,,,,,FF,,,,,,,,1.4501,,,,,,,,,,,,,,,,,,,,,,60fd9253ff686bfc8372a42e,610366bfe360822e03470ad6,2021-07-29_22h42.11.718,Simcolourproject_2stim_asymm_v5,2020.2.10,MacIntel,60,61025ae37ef11b136ea224fe,,,,,,,,,2545,-80.1484375,-45.59765625,1,0,0,response5disk,,2,-0.8515625,8.9140625,1,0,0,rectangle,-0.8515625,8.9140625,1,0,0,-0.8515625,8.9140625,1,0,0,0,4,4,41,1,,,,,,,,
,,,,,,,,,,,,,FF,,,,,,,,1.0669,,,,,,,,,,,,,,,,,,,,,,60fd9253ff686bfc8372a42e,610366bfe360822e03470ad6,2021-07-29_22h42.11.718,Simcolourproject_2stim_asymm_v5,2020.2.10,MacIntel,60,61025ae37ef11b136ea224fe,,,,,,,,,3425,-52.12890625,84.29296875,1,0,0,response7disk,,0,1.80859375,3.18359375,1,0,0,rectangle,1.80859375,3.18359375,1,0,0,1.80859375,3.18359375,1,0,0,0,5,5,61,1,,,,,,,,
,,,,,,,,,,,,,FF,,,,,,,,1.3177,,,,,,,,,,,,,,,,,,,,,,60fd9253ff686bfc8372a42e,610366bfe360822e03470ad6,2021-07-29_22h42.11.718,Simcolourproject_2stim_asymm_v5,2020.2.10,MacIntel,60,61025ae37ef11b136ea224fe,,,,,,,,,1249,-61.05859375,-74.91796875,1,0,0,response5disk,,3,-21.15234375,-4.54296875,1,0,0,rectangle,-29.8671875,-94.328125,1,0,0,10.921875,7.1953125,1,0,0,0,6,6,47,1,,response5disk_3,TRUE,3,3,"[321,174,54,228,111,256,289,45,12,231,199,60,211,323,279,41,7,43,139,236]",3.0175,rectangle
,,,,,,,,,,,,,FF,,,,,,,,1.3491,,,,,,,,,,,,,,,,,,,,,,60fd9253ff686bfc8372a42e,610366bfe360822e03470ad6,2021-07-29_22h42.11.718,Simcolourproject_2stim_asymm_v5,2020.2.10,MacIntel,60,61025ae37ef11b136ea224fe,,,,,,,,,1595,30.3515625,-76.73046875,1,0,0,response3disk,,4,16.48046875,9.2109375,1,0,0,rectangle,16.48046875,9.2109375,1,0,0,16.48046875,9.2109375,1,0,0,0,7,7,63,1,,,,,,,,
,,,,,,,,,,,,,FF,,,,,,,,2.7188,,,,,,,,,,,,,,,,,,,,,,60fd9253ff686bfc8372a42e,610366bfe360822e03470ad6,2021-07-29_22h42.11.718,Simcolourproject_2stim_asymm_v5,2020.2.10,MacIntel,60,61025ae37ef11b136ea224fe,,,,,,,,,3782,-83.55078125,-40.9921875,1,0,0,response5disk,,2,0.671875,-0.73046875,1,0,0,rectangle,0.671875,-0.73046875,1,0,0,0.671875,-0.73046875,1,0,0,0,8,8,136,1,,,,,,,,
,,,,,,,,,,,,,FF,,,,,,,,4.5005,,,,,,,,,,,,,,,,,,,,,,60fd9253ff686bfc8372a42e,610366bfe360822e03470ad6,2021-07-29_22h42.11.718,Simcolourproject_2stim_asymm_v5,2020.2.10,MacIntel,60,61025ae37ef11b136ea224fe,,,,,,,,,2506,46.09375,-28.22265625,1,0,0,response3disk,,5,9.1875,-4.25390625,1,0,0,rectangle,9.1875,-4.25390625,1,0,0,9.1875,-4.25390625,1,0,0,0,9,9,32,1,,,,,,,,
,,,,,,,,,,,,,FF,,,,,,,,2.5002,,,,,,,,,,,,,,,,,,,,,,60fd9253ff686bfc8372a42e,610366bfe360822e03470ad6,2021-07-29_22h42.11.718,Simcolourproject_2stim_asymm_v5,2020.2.10,MacIntel,60,61025ae37ef11b136ea224fe,,,,,,,,,3379,78.09375,45.1875,1,0,0,response1disk,,6,2.015625,10.046875,1,0,0,rectangle,2.015625,10.046875,1,0,0,2.015625,10.046875,1,0,0,0,10,10,156,1,,,,,,,,
,,,,,,,,,,,,,FF,,,,,,,,7.3841,,,,,,,,,,,,,,,,,,,,,,60fd9253ff686bfc8372a42e,610366bfe360822e03470ad6,2021-07-29_22h42.11.718,Simcolourproject_2stim_asymm_v5,2020.2.10,MacIntel,60,61025ae37ef11b136ea224fe,,,,,,,,,925,54.66015625,-34.578125,1,0,0,response3disk,,5,9.2734375,-1.01171875,1,0,0,rectangle,-92.88671875,-47.0625,1,0,0,7.78515625,8.41015625,1,0,0,0,11,11,107,1,,response5disk_3,TRUE,2,2,"[321,174,54,228,111,256,289,45,12,231,199,60,211,323,279,41,7,43,139,236]",4.9506,rectangle
,,,,,,,,,,,,,FF,,,,,,,,3.8163,,,,,,,,,,,,,,,,,,,,,,60fd9253ff686bfc8372a42e,610366bfe360822e03470ad6,2021-07-29_22h42.11.718,Simcolourproject_2stim_asymm_v5,2020.2.10,MacIntel,60,61025ae37ef11b136ea224fe,,,,,,,,,2728,-86.84375,-46.6484375,1,0,0,response5disk,,2,18.8984375,4.67578125,1,0,0,rectangle,18.8984375,4.67578125,1,0,0,18.8984375,4.67578125,1,0,0,0,12,12,69,1,,,,,,,,
,,,,,,,,,,,,,FF,,,,,,,,2.0662,,,,,,,,,,,,,,,,,,,,,,60fd9253ff686bfc8372a42e,610366bfe360822e03470ad6,2021-07-29_22h42.11.718,Simcolourproject_2stim_asymm_v5,2020.2.10,MacIntel,60,61025ae37ef11b136ea224fe,,,,,,,,,2242,-101.2734375,-37.3203125,1,0,0,response5disk,,2,4.03125,10.953125,1,0,0,rectangle,4.03125,10.953125,1,0,0,4.03125,10.953125,1,0,0,0,13,13,121,1,,,,,,,,
,,,,,,,,,,,,,FF,,,,,,,,2.9331,,,,,,,,,,,,,,,,,,,,,,60fd9253ff686bfc8372a42e,610366bfe360822e03470ad6,2021-07-29_22h42.11.718,Simcolourproject_2stim_asymm_v5,2020.2.10,MacIntel,60,61025ae37ef11b136ea224fe,,,,,,,,,3245,-85.1875,-34.5390625,1,0,0,response5disk,,2,-16.015625,1.109375,1,0,0,rectangle,-16.015625,1.109375,1,0,0,-16.015625,1.109375,1,0,0,0,14,14,123,1,,,,,,,,
,,,,,,,,,,,,,FF,,,,,,,,18.8512,,,,,,,,,,,,,,,,,,,,,,60fd9253ff686bfc8372a42e,610366bfe360822e03470ad6,2021-07-29_22h42.11.718,Simcolourproject_2stim_asymm_v5,2020.2.10,MacIntel,60,61025ae37ef11b136ea224fe,,,,,,,,,4136,48.02734375,-67.21484375,1,0,0,response3disk,,4,8.34375,6.52734375,1,0,0,rectangle,8.34375,6.52734375,1,0,0,8.34375,6.52734375,1,0,0,0,15,15,103,1,,,,,,,,
,,,,,,,,,,,,,FF,,,,,,,,3.9342,,,,,,,,,,,,,,,,,,,,,,60fd9253ff686bfc8372a42e,610366bfe360822e03470ad6,2021-07-29_22h42.11.718,Simcolourproject_2stim_asymm_v5,2020.2.10,MacIntel,60,61025ae37ef11b136ea224fe,,,,,,,,,3219,67.0390625,53.02734375,1,0,0,response1disk,,6,2.921875,-4.91796875,1,0,0,rectangle,2.921875,-4.91796875,1,0,0,2.921875,-4.91796875,1,0,0,0,16,16,60,1,,,,,,,,
,,,,,,,,,,,,,FF,,,,,,,,1.266,,,,,,,,,,,,,,,,,,,,,,60fd9253ff686bfc8372a42e,610366bfe360822e03470ad6,2021-07-29_22h42.11.718,Simcolourproject_2stim_asymm_v5,2020.2.10,MacIntel,60,61025ae37ef11b136ea224fe,,,,,,,,,1669,59.84765625,-40.515625,1,0,0,response3disk,,5,14.01953125,-1.9921875,1,0,0,rectangle,14.01953125,-1.9921875,1,0,0,14.01953125,-1.9921875,1,0,0,0,17,17,96,1,,,,,,,,
,,,,,,,,,,,,,FF,,,,,,,,3.1509,,,,,,,,,,,,,,,,,,,,,,60fd9253ff686bfc8372a42e,610366bfe360822e03470ad6,2021-07-29_22h42.11.718,Simcolourproject_2stim_asymm_v5,2020.2.10,MacIntel,60,61025ae37ef11b136ea224fe,,,,,,,,,331,67.22265625,-34.76953125,1,0,0,response3disk,,5,28.234375,3.05859375,1,0,0,rectangle,28.234375,3.05859375,1,0,0,28.234375,3.05859375,1,0,0,0,18,18,20,1,,,,,,,,
,,,,,,,,,,,,,FF,,,,,,,,1.6324,,,,,,,,,,,,,,,,,,,,,,60fd9253ff686bfc8372a42e,610366bfe360822e03470ad6,2021-07-29_22h42.11.718,Simcolourproject_2stim_asymm_v5,2020.2.10,MacIntel,60,61025ae37ef11b136ea224fe,,,,,,,,,1001,44.2734375,-82.828125,1,0,0,response3disk,,4,2.98828125,7.390625,1,0,0,rectangle,2.98828125,7.390625,1,0,0,2.98828125,7.390625,1,0,0,0,19,19,87,1,,,,,,,,
,,,,,,,,,,,,,FF,,,,,,,,2.2165,,,,,,,,,,,,,,,,,,,,,,60fd9253ff686bfc8372a42e,610366bfe360822e03470ad6,2021-07-29_22h42.11.718,Simcolourproject_2stim_asymm_v5,2020.2.10,MacIntel,60,61025ae37ef11b136ea224fe,,,,,,,,,4098,-49.015625,-63.88671875,1,0,0,response5disk,,3,-11.203125,2.5703125,1,0,0,rectangle,-11.203125,2.5703125,1,0,0,-11.203125,2.5703125,1,0,0,0,20,20,4,1,,,,,,,,
,,,,,,,,,,,,,FF,,,,,,,,1.2823,,,,,,,,,,,,,,,,,,,,,,60fd9253ff686bfc8372a42e,610366bfe360822e03470ad6,2021-07-29_22h42.11.718,Simcolourproject_2stim_asymm_v5,2020.2.10,MacIntel,60,61025ae37ef11b136ea224fe,,,,,,,,,200,87,-42.96875,1,0,0,response3disk,,5,-9.46484375,3.4140625,1,0,0,rectangle,-9.46484375,3.4140625,1,0,0,-9.46484375,3.4140625,1,0,0,0,21,21,154,1,,,,,,,,
,,,,,,,,,,,,,FF,,,,,,,,2.3665,,,,,,,,,,,,,,,,,,,,,,60fd9253ff686bfc8372a42e,610366bfe360822e03470ad6,2021-07-29_22h42.11.718,Simcolourproject_2stim_asymm_v5,2020.2.10,MacIntel,60,61025ae37ef11b136ea224fe,,,,,,,,,1359,41.74609375,67.20703125,1,0,0,response1disk,,7,-6.5390625,-7.08203125,1,0,0,rectangle,-6.5390625,-7.08203125,1,0,0,-6.5390625,-7.08203125,1,0,0,0,22,22,97,1,,,,,,,,
,,,,,,,,,,,,,FF,,,,,,,,1.1501,,,,,,,,,,,,,,,,,,,,,,60fd9253ff686bfc8372a42e,610366bfe360822e03470ad6,2021-07-29_22h42.11.718,Simcolourproject_2stim_asymm_v5,2020.2.10,MacIntel,60,61025ae37ef11b136ea224fe,,,,,,,,,2987,-33.53125,-61.76953125,1,0,0,response5disk,,3,-12.3671875,4.4921875,1,0,0,rectangle,-12.3671875,4.4921875,1,0,0,-12.3671875,4.4921875,1,0,0,0,23,23,89,1,,,,,,,,
,,,,,,,,,,,,,FF,,,,,,,,1.4504,,,,,,,,,,,,,,,,,,,,,,60fd9253ff686bfc8372a42e,610366bfe360822e03470ad6,2021-07-29_22h42.11.718,Simcolourproject_2stim_asymm_v5,2020.2.10,MacIntel,60,61025ae37ef11b136ea224fe,,,,,,,,,3047,-89.80078125,31.45703125,1,0,0,response7disk,,1,-8.50390625,4.453125,1,0,0,rectangle,-8.50390625,4.453125,1,0,0,-8.50390625,4.453125,1,0,0,0,24,24,49,1,,,,,,,,
,,,,,,,,,,,,,FF,,,,,,,,1.2499,,,,,,,,,,,,,,,,,,,,,,60fd9253ff686bfc8372a42e,610366bfe360822e03470ad6,2021-07-29_22h42.11.718,Simcolourproject_2stim_asymm_v5,2020.2.10,MacIntel,60,61025ae37ef11b136ea224fe,,,,,,,,,591,73.48828125,-47.63671875,1,0,0,response3disk,,5,5.0546875,-2.30859375,1,0,0,rectangle,5.0546875,-2.30859375,1,0,0,5.0546875,-2.30859375,1,0,0,0,25,25,122,1,,,,,,,,
,,,,,,,,,,,,,FF,,,,,,,,3.2666,,,,,,,,,,,,,,,,,,,,,,60fd9253ff686bfc8372a42e,610366bfe360822e03470ad6,2021-07-29_22h42.11.718,Simcolourproject_2stim_asymm_v5,2020.2.10,MacIntel,60,61025ae37ef11b136ea224fe,,,,,,,,,3256,-33.4453125,-69.40234375,1,0,0,response5disk,,3,-1.86328125,-2.8671875,1,0,0,rectangle,-1.86328125,-2.8671875,1,0,0,-1.86328125,-2.8671875,1,0,0,0,26,26,36,1,,,,,,,,
,,,,,,,,,,,,,FF,,,,,,,,1.6998,,,,,,,,,,,,,,,,,,,,,,60fd9253ff686bfc8372a42e,610366bfe360822e03470ad6,2021-07-29_22h42.11.718,Simcolourproject_2stim_asymm_v5,2020.2.10,MacIntel,60,61025ae37ef11b136ea224fe,,,,,,,,,2888,-86.171875,-40.83984375,1,0,0,response5disk,,2,-4.2890625,-6.515625,1,0,0,rectangle,-4.2890625,-6.515625,1,0,0,-4.2890625,-6.515625,1,0,0,0,27,27,83,1,,,,,,,,
,,,,,,,,,,,,,FF,,,,,,,,5.0513,,,,,,,,,,,,,,,,,,,,,,60fd9253ff686bfc8372a42e,610366bfe360822e03470ad6,2021-07-29_22h42.11.718,Simcolourproject_2stim_asymm_v5,2020.2.10,MacIntel,60,61025ae37ef11b136ea224fe,,,,,,,,,1961,-51.93359375,-37.71484375,1,0,0,response5disk,,2,11.06640625,6.203125,1,0,0,rectangle,11.06640625,6.203125,1,0,0,11.06640625,6.203125,1,0,0,0,28,28,125,1,,,,,,,,
,,,,,,,,,,,,,FF,,,,,,,,2.2155,,,,,,,,,,,,,,,,,,,,,,60fd9253ff686bfc8372a42e,610366bfe360822e03470ad6,2021-07-29_22h42.11.718,Simcolourproject_2stim_asymm_v5,2020.2.10,MacIntel,60,61025ae37ef11b136ea224fe,,,,,,,,,3586,-28.71484375,-74.984375,1,0,0,response5disk,,3,4.63671875,-2.3125,1,0,0,rectangle,4.63671875,-2.3125,1,0,0,4.63671875,-2.3125,1,0,0,0,29,29,45,1,,,,,,,,
,,,,,,,,,,,,,FF,,,,,,,,1.9342,,,,,,,,,,,,,,,,,,,,,,60fd9253ff686bfc8372a42e,610366bfe360822e03470ad6,2021-07-29_22h42.11.718,Simcolourproject_2stim_asymm_v5,2020.2.10,MacIntel,60,61025ae37ef11b136ea224fe,,,,,,,,,795,74.80859375,-30.01953125,1,0,0,response3disk,,5,5.76953125,-4.2109375,1,0,0,rectangle,5.76953125,-4.2109375,1,0,0,5.76953125,-4.2109375,1,0,0,0,30,30,77,1,,,,,,,,
,,,,,,,,,,,,,FF,,,,,,,,1.533,,,,,,,,,,,,,,,,,,,,,,60fd9253ff686bfc8372a42e,610366bfe360822e03470ad6,2021-07-29_22h42.11.718,Simcolourproject_2stim_asymm_v5,2020.2.10,MacIntel,60,61025ae37ef11b136ea224fe,,,,,,,,,3706,-78.4296875,-45.8515625,1,0,0,response5disk,,2,-0.5390625,13.1640625,1,0,0,rectangle,-0.5390625,13.1640625,1,0,0,-0.5390625,13.1640625,1,0,0,0,31,31,43,1,,,,,,,,
,,,,,,,,,,,,,FF,,,,,,,,1.049,,,,,,,,,,,,,,,,,,,,,,60fd9253ff686bfc8372a42e,610366bfe360822e03470ad6,2021-07-29_22h42.11.718,Simcolourproject_2stim_asymm_v5,2020.2.10,MacIntel,60,61025ae37ef11b136ea224fe,,,,,,,,,847,86.30859375,37.2265625,1,0,0,response1disk,,6,-5.01953125,-4.4453125,1,0,0,rectangle,-5.01953125,-4.4453125,1,0,0,-5.01953125,-4.4453125,1,0,0,0,32,32,74,1,,,,,,,,
,,,,,,,,,,,,,FF,,,,,,,,2.5835,,,,,,,,,,,,,,,,,,,,,,60fd9253ff686bfc8372a42e,610366bfe360822e03470ad6,2021-07-29_22h42.11.718,Simcolourproject_2stim_asymm_v5,2020.2.10,MacIntel,60,61025ae37ef11b136ea224fe,,,,,,,,,2150,-46.5390625,-78.24609375,1,0,0,response5disk,,3,-4.8046875,1.109375,1,0,0,rectangle,-4.8046875,1.109375,1,0,0,-4.8046875,1.109375,1,0,0,0,33,33,42,1,,,,,,,,
,,,,,,,,,,,,,FF,,,,,,,,1.0666,,,,,,,,,,,,,,,,,,,,,,60fd9253ff686bfc8372a42e,610366bfe360822e03470ad6,2021-07-29_22h42.11.718,Simcolourproject_2stim_asymm_v5,2020.2.10,MacIntel,60,61025ae37ef11b136ea224fe,,,,,,,,,2768,-49.1328125,-84.59765625,1,0,0,response5disk,,3,0.0390625,-6.17578125,1,0,0,rectangle,0.0390625,-6.17578125,1,0,0,0.0390625,-6.17578125,1,0,0,0,34,34,2,1,,,,,,,,
,,,,,,,,,,,,,FF,,,,,,,,0.8659,,,,,,,,,,,,,,,,,,,,,,60fd9253ff686bfc8372a42e,610366bfe360822e03470ad6,2021-07-29_22h42.11.718,Simcolourproject_2stim_asymm_v5,2020.2.10,MacIntel,60,61025ae37ef11b136ea224fe,,,,,,,,,2793,-88.03125,-38.375,1,0,0,response5disk,,2,3.34765625,9.6328125,1,0,0,rectangle,3.34765625,9.6328125,1,0,0,3.34765625,9.6328125,1,0,0,0,35,35,141,1,,,,,,,,
,,,,,,,,,,,,,FF,,,,,,,,1.2824,,,,,,,,,,,,,,,,,,,,,,60fd9253ff686bfc8372a42e,610366bfe360822e03470ad6,2021-07-29_22h42.11.718,Simcolourproject_2stim_asymm_v5,2020.2.10,MacIntel,60,61025ae37ef11b136ea224fe,,,,,,,,,3947,45,-85.16015625,1,0,0,response3disk,,4,2.8203125,0.12890625,1,0,0,rectangle,2.8203125,0.12890625,1,0,0,2.8203125,0.12890625,1,0,0,0,36,36,53,1,,,,,,,,
,,,,,,,,,,,,,FF,,,,,,,,4.8669,,,,,,,,,,,,,,,,,,,,,,60fd9253ff686bfc8372a42e,610366bfe360822e03470ad6,2021-07-29_22h42.11.718,Simcolourproject_2stim_asymm_v5,2020.2.10,MacIntel,60,61025ae37ef11b136ea224fe,,,,,,,,,3492,77.5859375,-51.23046875,1,0,0,response3disk,,5,1.1328125,10.44921875,1,0,0,rectangle,1.1328125,10.44921875,1,0,0,1.1328125,10.44921875,1,0,0,0,37,37,138,1,,,,,,,,
,,,,,,,,,,,,,FF,,,,,,,,3.8492,,,,,,,,,,,,,,,,,,,,,,60fd9253ff686bfc8372a42e,610366bfe360822e03470ad6,2021-07-29_22h42.11.718,Simcolourproject_2stim_asymm_v5,2020.2.10,MacIntel,60,61025ae37ef11b136ea224fe,,,,,,,,,3904,95.28125,43.0859375,1,0,0,response1disk,,6,-9.1484375,1.6796875,1,0,0,rectangle,-9.1484375,1.6796875,1,0,0,-9.1484375,1.6796875,1,0,0,0,38,38,25,1,,,,,,,,
,,,,,,,,,,,,,FF,,,,,,,,1.2671,,,,,,,,,,,,,,,,,,,,,,60fd9253ff686bfc8372a42e,610366bfe360822e03470ad6,2021-07-29_22h42.11.718,Simcolourproject_2stim_asymm_v5,2020.2.10,MacIntel,60,61025ae37ef11b136ea224fe,,,,,,,,,2562,84.21484375,23.61328125,1,0,0,response1disk,,6,0.0546875,-8.48046875,1,0,0,rectangle,0.0546875,-8.48046875,1,0,0,0.0546875,-8.48046875,1,0,0,0,39,39,31,1,,,,,,,,
,,,,,,,,,,,,,FF,,,,,,,,1.6499,,,,,,,,,,,,,,,,,,,,,,60fd9253ff686bfc8372a42e,610366bfe360822e03470ad6,2021-07-29_22h42.11.718,Simcolourproject_2stim_asymm_v5,2020.2.10,MacIntel,60,61025ae37ef11b136ea224fe,,,,,,,,,1335,76.671875,-38.6171875,1,0,0,response3disk,,5,3.7421875,-1.16796875,1,0,0,rectangle,68.53125,-43.60546875,1,0,0,-4.66015625,8.61328125,1,0,0,0,40,40,66,1,,response3disk_3,TRUE,5,5,"[321,174,54,228,111,256,289,45,12,231,199,60,211,323,279,41,7,43,139,236]",2.5669,rectangle
,,,,,,,,,,,,,FF,,,,,,,,3.9496,,,,,,,,,,,,,,,,,,,,,,60fd9253ff686bfc8372a42e,610366bfe360822e03470ad6,2021-07-29_22h42.11.718,Simcolourproject_2stim_asymm_v5,2020.2.10,MacIntel,60,61025ae37ef11b136ea224fe,,,,,,,,,2667,-82.8671875,28.453125,1,0,0,response7disk,,1,-4.796875,-4.7578125,1,0,0,rectangle,-4.796875,-4.7578125,1,0,0,-4.796875,-4.7578125,1,0,0,0,41,41,101,1,,,,,,,,
,,,,,,,,,,,,,FF,,,,,,,,1.7336,,,,,,,,,,,,,,,,,,,,,,60fd9253ff686bfc8372a42e,610366bfe360822e03470ad6,2021-07-29_22h42.11.718,Simcolourproject_2stim_asymm_v5,2020.2.10,MacIntel,60,61025ae37ef11b136ea224fe,,,,,,,,,3337,-49.39453125,-92.14453125,1,0,0,response5disk,,3,12.73828125,8.23046875,1,0,0,rectangle,-36.33984375,113.0039063,1,0,0,-0.53515625,0.1953125,1,0,0,0,42,42,90,1,,response7disk_3,TRUE,0,0,"[321,174,54,228,111,256,289,45,12,231,199,60,211,323,279,41,7,43,139,236]",2.1675,rectangle
,,,,,,,,,,,,,FF,,,,,,,,4.102,,,,,,,,,,,,,,,,,,,,,,60fd9253ff686bfc8372a42e,610366bfe360822e03470ad6,2021-07-29_22h42.11.718,Simcolourproject_2stim_asymm_v5,2020.2.10,MacIntel,60,61025ae37ef11b136ea224fe,,,,,,,,,4016,35.984375,-58.296875,1,0,0,response3disk,,4,13.078125,1.640625,1,0,0,rectangle,13.078125,1.640625,1,0,0,13.078125,1.640625,1,0,0,0,43,43,84,1,,,,,,,,
,,,,,,,,,,,,,FF,,,,,,,,2.4333,,,,,,,,,,,,,,,,,,,,,,60fd9253ff686bfc8372a42e,610366bfe360822e03470ad6,2021-07-29_22h42.11.718,Simcolourproject_2stim_asymm_v5,2020.2.10,MacIntel,60,61025ae37ef11b136ea224fe,,,,,,,,,799,71.3515625,-29.94140625,1,0,0,response3disk,,5,-10.7890625,-0.7109375,1,0,0,rectangle,-39.453125,-93.1328125,1,0,0,13.5234375,8.125,1,0,0,0,44,44,133,1,,response5disk_3,TRUE,3,3,"[321,174,54,228,111,256,289,45,12,231,199,60,211,323,279,41,7,43,139,236]",2.6173,rectangle
,,,,,,,,,,,,,FF,,,,,,,,3.2002,,,,,,,,,,,,,,,,,,,,,,60fd9253ff686bfc8372a42e,610366bfe360822e03470ad6,2021-07-29_22h42.11.718,Simcolourproject_2stim_asymm_v5,2020.2.10,MacIntel,60,61025ae37ef11b136ea224fe,,,,,,,,,120,46.07421875,88.6953125,1,0,0,response1disk,,7,4.609375,-2.74609375,1,0,0,rectangle,4.609375,-2.74609375,1,0,0,4.609375,-2.74609375,1,0,0,0,45,45,46,1,,,,,,,,
,,,,,,,,,,,,,FF,,,,,,,,2.1828,,,,,,,,,,,,,,,,,,,,,,60fd9253ff686bfc8372a42e,610366bfe360822e03470ad6,2021-07-29_22h42.11.718,Simcolourproject_2stim_asymm_v5,2020.2.10,MacIntel,60,61025ae37ef11b136ea224fe,,,,,,,,,4135,99.6796875,51.53515625,1,0,0,response1disk,,6,-8.1484375,1.96875,1,0,0,rectangle,-8.1484375,1.96875,1,0,0,-8.1484375,1.96875,1,0,0,0,46,46,22,1,,,,,,,,
,,,,,,,,,,,,,FF,,,,,,,,2.4175,,,,,,,,,,,,,,,,,,,,,,60fd9253ff686bfc8372a42e,610366bfe360822e03470ad6,2021-07-29_22h42.11.718,Simcolourproject_2stim_asymm_v5,2020.2.10,MacIntel,60,61025ae37ef11b136ea224fe,,,,,,,,,383,67.47265625,55.33203125,1,0,0,response1disk,,6,18.41015625,-0.828125,1,0,0,rectangle,18.41015625,-0.828125,1,0,0,18.41015625,-0.828125,1,0,0,0,47,47,148,1,,,,,,,,
,,,,,,,,,,,,,FF,,,,,,,,1.3842,,,,,,,,,,,,,,,,,,,,,,60fd9253ff686bfc8372a42e,610366bfe360822e03470ad6,2021-07-29_22h42.11.718,Simcolourproject_2stim_asymm_v5,2020.2.10,MacIntel,60,61025ae37ef11b136ea224fe,,,,,,,,,2366,-32.57421875,-79.65625,1,0,0,response5disk,,3,7.63671875,0.69921875,1,0,0,rectangle,7.63671875,0.69921875,1,0,0,7.63671875,0.69921875,1,0,0,0,48,48,15,1,,,,,,,,
,,,,,,,,,,,,,FF,,,,,,,,1.5851,,,,,,,,,,,,,,,,,,,,,,60fd9253ff686bfc8372a42e,610366bfe360822e03470ad6,2021-07-29_22h42.11.718,Simcolourproject_2stim_asymm_v5,2020.2.10,MacIntel,60,61025ae37ef11b136ea224fe,,,,,,,,,4064,42.5703125,-76.05859375,1,0,0,response3disk,,4,2.83203125,-5.40625,1,0,0,rectangle,2.83203125,-5.40625,1,0,0,2.83203125,-5.40625,1,0,0,0,49,49,155,1,,,,,,,,
,,,,,,,,,,,,,FF,,,,,,,,1.3003,,,,,,,,,,,,,,,,,,,,,,60fd9253ff686bfc8372a42e,610366bfe360822e03470ad6,2021-07-29_22h42.11.718,Simcolourproject_2stim_asymm_v5,2020.2.10,MacIntel,60,61025ae37ef11b136ea224fe,,,,,,,,,1190,58.89453125,-73.46484375,1,0,0,response3disk,,4,12.88671875,0.0703125,1,0,0,rectangle,12.88671875,0.0703125,1,0,0,12.88671875,0.0703125,1,0,0,0,50,50,86,1,,,,,,,,
,,,,,,,,,,,,,FF,,,,,,,,1.8657,,,,,,,,,,,,,,,,,,,,,,60fd9253ff686bfc8372a42e,610366bfe360822e03470ad6,2021-07-29_22h42.11.718,Simcolourproject_2stim_asymm_v5,2020.2.10,MacIntel,60,61025ae37ef11b136ea224fe,,,,,,,,,2906,83.03515625,53.39453125,1,0,0,response1disk,,6,-3.5078125,-17.40625,1,0,0,rectangle,-3.5078125,-17.40625,1,0,0,-3.5078125,-17.40625,1,0,0,0,51,51,142,1,,,,,,,,
,,,,,,,,,,,,,FF,,,,,,,,6.066,,,,,,,,,,,,,,,,,,,,,,60fd9253ff686bfc8372a42e,610366bfe360822e03470ad6,2021-07-29_22h42.11.718,Simcolourproject_2stim_asymm_v5,2020.2.10,MacIntel,60,61025ae37ef11b136ea224fe,,,,,,,,,3335,84.01953125,-54.98828125,1,0,0,response3disk,,5,-1.24609375,-2.66796875,1,0,0,rectangle,-1.24609375,-2.66796875,1,0,0,-1.24609375,-2.66796875,1,0,0,0,52,52,23,1,,,,,,,,
,,,,,,,,,,,,,FF,,,,,,,,0.8503,,,,,,,,,,,,,,,,,,,,,,60fd9253ff686bfc8372a42e,610366bfe360822e03470ad6,2021-07-29_22h42.11.718,Simcolourproject_2stim_asymm_v5,2020.2.10,MacIntel,60,61025ae37ef11b136ea224fe,,,,,,,,,2493,103.7695313,-50.30078125,1,0,0,response3disk,,5,-2.22265625,10.94140625,1,0,0,rectangle,112.6992188,56.2890625,1,0,0,21.125,3.890625,1,0,0,0,53,53,33,1,,response1disk_3,TRUE,6,6,"[321,174,54,228,111,256,289,45,12,231,199,60,211,323,279,41,7,43,139,236]",1.9989,rectangle
,,,,,,,,,,,,,FF,,,,,,,,1.4003,,,,,,,,,,,,,,,,,,,,,,60fd9253ff686bfc8372a42e,610366bfe360822e03470ad6,2021-07-29_22h42.11.718,Simcolourproject_2stim_asymm_v5,2020.2.10,MacIntel,60,61025ae37ef11b136ea224fe,,,,,,,,,4156,44.0234375,73.85546875,1,0,0,response1disk,,7,11.6015625,1.42578125,1,0,0,rectangle,11.6015625,1.42578125,1,0,0,11.6015625,1.42578125,1,0,0,0,54,54,85,1,,,,,,,,
,,,,,,,,,,,,,FF,,,,,,,,0.9509,,,,,,,,,,,,,,,,,,,,,,60fd9253ff686bfc8372a42e,610366bfe360822e03470ad6,2021-07-29_22h42.11.718,Simcolourproject_2stim_asymm_v5,2020.2.10,MacIntel,60,61025ae37ef11b136ea224fe,,,,,,,,,1325,95.53515625,57.578125,1,0,0,response1disk,,6,-4.43359375,8.20703125,1,0,0,rectangle,-4.43359375,8.20703125,1,0,0,-4.43359375,8.20703125,1,0,0,0,55,55,104,1,,,,,,,,
,,,,,,,,,,,,,FF,,,,,,,,1.0161,,,,,,,,,,,,,,,,,,,,,,60fd9253ff686bfc8372a42e,610366bfe360822e03470ad6,2021-07-29_22h42.11.718,Simcolourproject_2stim_asymm_v5,2020.2.10,MacIntel,60,61025ae37ef11b136ea224fe,,,,,,,,,4306,-71.15625,-39.60546875,1,0,0,response5disk,,2,1.2265625,1.2890625,1,0,0,rectangle,1.2265625,1.2890625,1,0,0,1.2265625,1.2890625,1,0,0,0,56,56,112,1,,,,,,,,
,,,,,,,,,,,,,FF,,,,,,,,2.1662,,,,,,,,,,,,,,,,,,,,,,60fd9253ff686bfc8372a42e,610366bfe360822e03470ad6,2021-07-29_22h42.11.718,Simcolourproject_2stim_asymm_v5,2020.2.10,MacIntel,60,61025ae37ef11b136ea224fe,,,,,,,,,718,-84.9375,-47.1484375,1,0,0,response5disk,,2,2.5390625,8.203125,1,0,0,rectangle,2.5390625,8.203125,1,0,0,2.5390625,8.203125,1,0,0,0,57,57,64,1,,,,,,,,
,,,,,,,,,,,,,FF,,,,,,,,1.5361,,,,,,,,,,,,,,,,,,,,,,60fd9253ff686bfc8372a42e,610366bfe360822e03470ad6,2021-07-29_22h42.11.718,Simcolourproject_2stim_asymm_v5,2020.2.10,MacIntel,60,61025ae37ef11b136ea224fe,,,,,,,,,3140,-100.2851563,-40.703125,1,0,0,response5disk,,2,4.42578125,-4.640625,1,0,0,rectangle,4.42578125,-4.640625,1,0,0,4.42578125,-4.640625,1,0,0,0,58,58,106,1,,,,,,,,
,,,,,,,,,,,,,FF,,,,,,,,1.2672,,,,,,,,,,,,,,,,,,,,,,60fd9253ff686bfc8372a42e,610366bfe360822e03470ad6,2021-07-29_22h42.11.718,Simcolourproject_2stim_asymm_v5,2020.2.10,MacIntel,60,61025ae37ef11b136ea224fe,,,,,,,,,111,96.328125,-39.31640625,1,0,0,response3disk,,5,2.4453125,1.90234375,1,0,0,rectangle,96.75,50.5703125,1,0,0,3.3046875,11.0234375,1,0,0,0,59,59,39,1,,response1disk_3,TRUE,6,6,"[321,174,54,228,111,256,289,45,12,231,199,60,211,323,279,41,7,43,139,236]",1.866,rectangle
,,,,,,,,,,,,,FF,,,,,,,,2.7985,,,,,,,,,,,,,,,,,,,,,,60fd9253ff686bfc8372a42e,610366bfe360822e03470ad6,2021-07-29_22h42.11.718,Simcolourproject_2stim_asymm_v5,2020.2.10,MacIntel,60,61025ae37ef11b136ea224fe,,,,,,,,,691,78.75390625,-33.578125,1,0,0,response3disk,,5,15.421875,-0.03515625,1,0,0,rectangle,15.421875,-0.03515625,1,0,0,15.421875,-0.03515625,1,0,0,0,60,60,58,1,,,,,,,,
,,,,,,,,,,,,,FF,,,,,,,,1.3338,,,,,,,,,,,,,,,,,,,,,,60fd9253ff686bfc8372a42e,610366bfe360822e03470ad6,2021-07-29_22h42.11.718,Simcolourproject_2stim_asymm_v5,2020.2.10,MacIntel,60,61025ae37ef11b136ea224fe,,,,,,,,,3752,-53.69921875,-88.609375,1,0,0,response5disk,,3,9.89453125,8.12890625,1,0,0,rectangle,9.89453125,8.12890625,1,0,0,9.89453125,8.12890625,1,0,0,0,61,61,82,1,,,,,,,,
,,,,,,,,,,,,,FF,,,,,,,,1.2505,,,,,,,,,,,,,,,,,,,,,,60fd9253ff686bfc8372a42e,610366bfe360822e03470ad6,2021-07-29_22h42.11.718,Simcolourproject_2stim_asymm_v5,2020.2.10,MacIntel,60,61025ae37ef11b136ea224fe,,,,,,,,,4090,77.54296875,30.296875,1,0,0,response1disk,,6,10.26171875,5.96875,1,0,0,rectangle,10.26171875,5.96875,1,0,0,10.26171875,5.96875,1,0,0,0,62,62,153,1,,,,,,,,
,,,,,,,,,,,,,FF,,,,,,,,2.1676,,,,,,,,,,,,,,,,,,,,,,60fd9253ff686bfc8372a42e,610366bfe360822e03470ad6,2021-07-29_22h42.11.718,Simcolourproject_2stim_asymm_v5,2020.2.10,MacIntel,60,61025ae37ef11b136ea224fe,,,,,,,,,2701,45.8125,77.1953125,1,0,0,response1disk,,7,4.16015625,3.6796875,1,0,0,rectangle,4.16015625,3.6796875,1,0,0,4.16015625,3.6796875,1,0,0,0,63,63,159,1,,,,,,,,
,,,,,,,,,,,,,FF,,,,,,,,0.8656,,,,,,,,,,,,,,,,,,,,,,60fd9253ff686bfc8372a42e,610366bfe360822e03470ad6,2021-07-29_22h42.11.718,Simcolourproject_2stim_asymm_v5,2020.2.10,MacIntel,60,61025ae37ef11b136ea224fe,,,,,,,,,2132,47.328125,91.80078125,1,0,0,response1disk,,7,3.37890625,0.73828125,1,0,0,rectangle,3.37890625,0.73828125,1,0,0,3.37890625,0.73828125,1,0,0,0,64,64,146,1,,,,,,,,
,,,,,,,,,,,,,FF,,,,,,,,1.8157,,,,,,,,,,,,,,,,,,,,,,60fd9253ff686bfc8372a42e,610366bfe360822e03470ad6,2021-07-29_22h42.11.718,Simcolourproject_2stim_asymm_v5,2020.2.10,MacIntel,60,61025ae37ef11b136ea224fe,,,,,,,,,1218,-35.03125,-87.80078125,1,0,0,response5disk,,3,-2.6875,-2.2734375,1,0,0,rectangle,-2.6875,-2.2734375,1,0,0,-2.6875,-2.2734375,1,0,0,0,65,65,130,1,,,,,,,,
,,,,,,,,,,,,,FF,,,,,,,,1.3158,,,,,,,,,,,,,,,,,,,,,,60fd9253ff686bfc8372a42e,610366bfe360822e03470ad6,2021-07-29_22h42.11.718,Simcolourproject_2stim_asymm_v5,2020.2.10,MacIntel,60,61025ae37ef11b136ea224fe,,,,,,,,,3823,87.5703125,-32.26171875,1,0,0,response3disk,,5,2.8671875,-6.11328125,1,0,0,rectangle,2.8671875,-6.11328125,1,0,0,2.8671875,-6.11328125,1,0,0,0,66,66,131,1,,,,,,,,
,,,,,,,,,,,,,FF,,,,,,,,1.4824,,,,,,,,,,,,,,,,,,,,,,60fd9253ff686bfc8372a42e,610366bfe360822e03470ad6,2021-07-29_22h42.11.718,Simcolourproject_2stim_asymm_v5,2020.2.10,MacIntel,60,61025ae37ef11b136ea224fe,,,,,,,,,2535,-42.24609375,-92.16796875,1,0,0,response5disk,,3,4.328125,-4.66015625,1,0,0,rectangle,4.328125,-4.66015625,1,0,0,4.328125,-4.66015625,1,0,0,0,67,67,81,1,,,,,,,,
,,,,,,,,,,,,,FF,,,,,,,,0.902,,,,,,,,,,,,,,,,,,,,,,60fd9253ff686bfc8372a42e,610366bfe360822e03470ad6,2021-07-29_22h42.11.718,Simcolourproject_2stim_asymm_v5,2020.2.10,MacIntel,60,61025ae37ef11b136ea224fe,,,,,,,,,4335,-30.75,87.56640625,1,0,0,response7disk,,0,-4.38671875,-4.32421875,1,0,0,rectangle,-4.38671875,-4.32421875,1,0,0,-4.38671875,-4.32421875,1,0,0,0,68,68,8,1,,,,,,,,
,,,,,,,,,,,,,FF,,,,,,,,2.967,,,,,,,,,,,,,,,,,,,,,,60fd9253ff686bfc8372a42e,610366bfe360822e03470ad6,2021-07-29_22h42.11.718,Simcolourproject_2stim_asymm_v5,2020.2.10,MacIntel,60,61025ae37ef11b136ea224fe,,,,,,,,,1071,31.59375,-103.265625,1,0,0,response3disk,,4,6.5,11.4375,1,0,0,rectangle,6.5,11.4375,1,0,0,6.5,11.4375,1,0,0,0,69,69,13,1,,,,,,,,
,,,,,,,,,,,,,FF,,,,,,,,0.9832,,,,,,,,,,,,,,,,,,,,,,60fd9253ff686bfc8372a42e,610366bfe360822e03470ad6,2021-07-29_22h42.11.718,Simcolourproject_2stim_asymm_v5,2020.2.10,MacIntel,60,61025ae37ef11b136ea224fe,,,,,,,,,3896,69.40234375,-28.92578125,1,0,0,response3disk,,5,-25.625,11.8671875,1,0,0,rectangle,-25.625,11.8671875,1,0,0,-25.625,11.8671875,1,0,0,0,70,70,52,1,,,,,,,,
,,,,,,,,,,,,,FF,,,,,,,,2.3842,,,,,,,,,,,,,,,,,,,,,,60fd9253ff686bfc8372a42e,610366bfe360822e03470ad6,2021-07-29_22h42.11.718,Simcolourproject_2stim_asymm_v5,2020.2.10,MacIntel,60,61025ae37ef11b136ea224fe,,,,,,,,,3083,86.54296875,36.46484375,1,0,0,response1disk,,6,4.78125,-0.1875,1,0,0,rectangle,4.78125,-0.1875,1,0,0,4.78125,-0.1875,1,0,0,0,71,71,67,1,,,,,,,,
,,,,,,,,,,,,,FF,,,,,,,,1.2333,,,,,,,,,,,,,,,,,,,,,,60fd9253ff686bfc8372a42e,610366bfe360822e03470ad6,2021-07-29_22h42.11.718,Simcolourproject_2stim_asymm_v5,2020.2.10,MacIntel,60,61025ae37ef11b136ea224fe,,,,,,,,,2839,-37.5234375,-82.94921875,1,0,0,response5disk,,3,8.640625,7.73828125,1,0,0,rectangle,8.640625,7.73828125,1,0,0,8.640625,7.73828125,1,0,0,0,72,72,3,1,,,,,,,,
,,,,,,,,,,,,,FF,,,,,,,,0.6834,,,,,,,,,,,,,,,,,,,,,,60fd9253ff686bfc8372a42e,610366bfe360822e03470ad6,2021-07-29_22h42.11.718,Simcolourproject_2stim_asymm_v5,2020.2.10,MacIntel,60,61025ae37ef11b136ea224fe,,,,,,,,,2412,-47.62890625,-92.6796875,1,0,0,response5disk,,3,10.41015625,-1.61328125,1,0,0,rectangle,10.41015625,-1.61328125,1,0,0,10.41015625,-1.61328125,1,0,0,0,73,73,109,1,,,,,,,,
,,,,,,,,,,,,,FF,,,,,,,,0.7662,,,,,,,,,,,,,,,,,,,,,,60fd9253ff686bfc8372a42e,610366bfe360822e03470ad6,2021-07-29_22h42.11.718,Simcolourproject_2stim_asymm_v5,2020.2.10,MacIntel,60,61025ae37ef11b136ea224fe,,,,,,,,,1762,-38.30859375,-62.9921875,1,0,0,response5disk,,3,7.2734375,14.90625,1,0,0,rectangle,7.2734375,14.90625,1,0,0,7.2734375,14.90625,1,0,0,0,74,74,27,1,,,,,,,,
,,,,,,,,,,,,,FF,,,,,,,,1.9487,,,,,,,,,,,,,,,,,,,,,,60fd9253ff686bfc8372a42e,610366bfe360822e03470ad6,2021-07-29_22h42.11.718,Simcolourproject_2stim_asymm_v5,2020.2.10,MacIntel,60,61025ae37ef11b136ea224fe,,,,,,,,,2295,-42.35546875,-89.5546875,1,0,0,response5disk,,3,-3.9296875,-6.23046875,1,0,0,rectangle,-3.9296875,-6.23046875,1,0,0,-3.9296875,-6.23046875,1,0,0,0,75,75,145,1,,,,,,,,
,,,,,,,,,,,,,FF,,,,,,,,2.4344,,,,,,,,,,,,,,,,,,,,,,60fd9253ff686bfc8372a42e,610366bfe360822e03470ad6,2021-07-29_22h42.11.718,Simcolourproject_2stim_asymm_v5,2020.2.10,MacIntel,60,61025ae37ef11b136ea224fe,,,,,,,,,662,36.1015625,-105.5859375,1,0,0,response3disk,,4,2.34375,-0.875,1,0,0,rectangle,2.34375,-0.875,1,0,0,2.34375,-0.875,1,0,0,0,76,76,37,1,,,,,,,,
,,,,,,,,,,,,,FF,,,,,,,,2.0987,,,,,,,,,,,,,,,,,,,,,,60fd9253ff686bfc8372a42e,610366bfe360822e03470ad6,2021-07-29_22h42.11.718,Simcolourproject_2stim_asymm_v5,2020.2.10,MacIntel,60,61025ae37ef11b136ea224fe,,,,,,,,,345,-63.1015625,-84.69140625,1,0,0,response5disk,,3,3.92578125,-1.4296875,1,0,0,rectangle,3.92578125,-1.4296875,1,0,0,3.92578125,-1.4296875,1,0,0,0,77,77,158,1,,,,,,,,
,,,,,,,,,,,,,FF,,,,,,,,1.3999,,,,,,,,,,,,,,,,,,,,,,60fd9253ff686bfc8372a42e,610366bfe360822e03470ad6,2021-07-29_22h42.11.718,Simcolourproject_2stim_asymm_v5,2020.2.10,MacIntel,60,61025ae37ef11b136ea224fe,,,,,,,,,2112,55.69140625,-84.08984375,1,0,0,response3disk,,4,10.25,2.76953125,1,0,0,rectangle,10.25,2.76953125,1,0,0,10.25,2.76953125,1,0,0,0,78,78,30,1,,,,,,,,
,,,,,,,,,,,,,FF,,,,,,,,2.2178,,,,,,,,,,,,,,,,,,,,,,60fd9253ff686bfc8372a42e,610366bfe360822e03470ad6,2021-07-29_22h42.11.718,Simcolourproject_2stim_asymm_v5,2020.2.10,MacIntel,60,61025ae37ef11b136ea224fe,,,,,,,,,241,84.359375,34.2421875,1,0,0,response1disk,,6,6.68359375,10.65625,1,0,0,rectangle,6.68359375,10.65625,1,0,0,6.68359375,10.65625,1,0,0,0,79,79,149,1,,,,,,,,
,,,,,,,,,,,,,FF,,,,,,,,1.066,,,,,,,,,,,,,,,,,,,,,,60fd9253ff686bfc8372a42e,610366bfe360822e03470ad6,2021-07-29_22h42.11.718,Simcolourproject_2stim_asymm_v5,2020.2.10,MacIntel,60,61025ae37ef11b136ea224fe,,,,,,,,,904,85.94140625,42.53515625,1,0,0,response1disk,,6,14.140625,12.421875,1,0,0,rectangle,14.140625,12.421875,1,0,0,14.140625,12.421875,1,0,0,0,80,80,10,1,,,,,,,,
,,,,,,,,,,,,,FF,,,,,,,,1.0511,,,,,,,,,,,,,,,,,,,,,,60fd9253ff686bfc8372a42e,610366bfe360822e03470ad6,2021-07-29_22h42.11.718,Simcolourproject_2stim_asymm_v5,2020.2.10,MacIntel,60,61025ae37ef11b136ea224fe,,,,,,,,,3240,-47.76171875,-104.21875,1,0,0,response5disk,,3,-0.50390625,2.671875,1,0,0,rectangle,-0.50390625,2.671875,1,0,0,-0.50390625,2.671875,1,0,0,0,81,81,128,1,,,,,,,,
,,,,,,,,,,,,,FF,,,,,,,,4.3176,,,,,,,,,,,,,,,,,,,,,,60fd9253ff686bfc8372a42e,610366bfe360822e03470ad6,2021-07-29_22h42.11.718,Simcolourproject_2stim_asymm_v5,2020.2.10,MacIntel,60,61025ae37ef11b136ea224fe,,,,,,,,,1174,81.93359375,-36.60546875,1,0,0,response3disk,,5,9.13671875,-4.29296875,1,0,0,rectangle,9.13671875,-4.29296875,1,0,0,9.13671875,-4.29296875,1,0,0,0,82,82,71,1,,,,,,,,
,,,,,,,,,,,,,FF,,,,,,,,1.6994,,,,,,,,,,,,,,,,,,,,,,60fd9253ff686bfc8372a42e,610366bfe360822e03470ad6,2021-07-29_22h42.11.718,Simcolourproject_2stim_asymm_v5,2020.2.10,MacIntel,60,61025ae37ef11b136ea224fe,,,,,,,,,3809,84.4375,-25.09765625,1,0,0,response3disk,,5,0.34375,5.0234375,1,0,0,rectangle,0.34375,5.0234375,1,0,0,0.34375,5.0234375,1,0,0,0,83,83,115,1,,,,,,,,
,,,,,,,,,,,,,FF,,,,,,,,2.1504,,,,,,,,,,,,,,,,,,,,,,60fd9253ff686bfc8372a42e,610366bfe360822e03470ad6,2021-07-29_22h42.11.718,Simcolourproject_2stim_asymm_v5,2020.2.10,MacIntel,60,61025ae37ef11b136ea224fe,,,,,,,,,1787,74.390625,47.046875,1,0,0,response1disk,,6,6.12890625,5.95703125,1,0,0,rectangle,6.12890625,5.95703125,1,0,0,6.12890625,5.95703125,1,0,0,0,84,84,102,1,,,,,,,,
,,,,,,,,,,,,,FF,,,,,,,,1.1493,,,,,,,,,,,,,,,,,,,,,,60fd9253ff686bfc8372a42e,610366bfe360822e03470ad6,2021-07-29_22h42.11.718,Simcolourproject_2stim_asymm_v5,2020.2.10,MacIntel,60,61025ae37ef11b136ea224fe,,,,,,,,,2835,-85.85546875,-48.40625,1,0,0,response5disk,,2,1.5390625,2.546875,1,0,0,rectangle,1.5390625,2.546875,1,0,0,1.5390625,2.546875,1,0,0,0,85,85,44,1,,,,,,,,
,,,,,,,,,,,,,FF,,,,,,,,1.3166,,,,,,,,,,,,,,,,,,,,,,60fd9253ff686bfc8372a42e,610366bfe360822e03470ad6,2021-07-29_22h42.11.718,Simcolourproject_2stim_asymm_v5,2020.2.10,MacIntel,60,61025ae37ef11b136ea224fe,,,,,,,,,2818,86.6171875,43.78515625,1,0,0,response1disk,,6,-8.7578125,8.1640625,1,0,0,rectangle,-8.7578125,8.1640625,1,0,0,-8.7578125,8.1640625,1,0,0,0,86,86,110,1,,,,,,,,
,,,,,,,,,,,,,FF,,,,,,,,1.8333,,,,,,,,,,,,,,,,,,,,,,60fd9253ff686bfc8372a42e,610366bfe360822e03470ad6,2021-07-29_22h42.11.718,Simcolourproject_2stim_asymm_v5,2020.2.10,MacIntel,60,61025ae37ef11b136ea224fe,,,,,,,,,744,85.66015625,38.64453125,1,0,0,response1disk,,6,5.8359375,7.5078125,1,0,0,rectangle,5.8359375,7.5078125,1,0,0,5.8359375,7.5078125,1,0,0,0,87,87,91,1,,,,,,,,
,,,,,,,,,,,,,FF,,,,,,,,2.833,,,,,,,,,,,,,,,,,,,,,,60fd9253ff686bfc8372a42e,610366bfe360822e03470ad6,2021-07-29_22h42.11.718,Simcolourproject_2stim_asymm_v5,2020.2.10,MacIntel,60,61025ae37ef11b136ea224fe,,,,,,,,,2368,36.640625,-79.64453125,1,0,0,response3disk,,4,4.2265625,2.6015625,1,0,0,rectangle,4.2265625,2.6015625,1,0,0,4.2265625,2.6015625,1,0,0,0,88,88,16,1,,,,,,,,
,,,,,,,,,,,,,FF,,,,,,,,2.6498,,,,,,,,,,,,,,,,,,,,,,60fd9253ff686bfc8372a42e,610366bfe360822e03470ad6,2021-07-29_22h42.11.718,Simcolourproject_2stim_asymm_v5,2020.2.10,MacIntel,60,61025ae37ef11b136ea224fe,,,,,,,,,3899,-56.9296875,-92.73828125,1,0,0,response5disk,,3,-1.88671875,0.5,1,0,0,rectangle,-1.88671875,0.5,1,0,0,-1.88671875,0.5,1,0,0,0,89,89,57,1,,,,,,,,
,,,,,,,,,,,,,FF,,,,,,,,3.9514,,,,,,,,,,,,,,,,,,,,,,60fd9253ff686bfc8372a42e,610366bfe360822e03470ad6,2021-07-29_22h42.11.718,Simcolourproject_2stim_asymm_v5,2020.2.10,MacIntel,60,61025ae37ef11b136ea224fe,,,,,,,,,4116,45.953125,-82.625,1,0,0,response3disk,,4,15.07421875,4.19921875,1,0,0,rectangle,15.07421875,4.19921875,1,0,0,15.07421875,4.19921875,1,0,0,0,90,90,88,1,,,,,,,,
,,,,,,,,,,,,,FF,,,,,,,,1.0502,,,,,,,,,,,,,,,,,,,,,,60fd9253ff686bfc8372a42e,610366bfe360822e03470ad6,2021-07-29_22h42.11.718,Simcolourproject_2stim_asymm_v5,2020.2.10,MacIntel,60,61025ae37ef11b136ea224fe,,,,,,,,,1199,-52.52734375,-77.734375,1,0,0,response5disk,,3,-8.36328125,-3.61328125,1,0,0,rectangle,-8.36328125,-3.61328125,1,0,0,-8.36328125,-3.61328125,1,0,0,0,91,91,55,1,,,,,,,,
,,,,,,,,,,,,,FF,,,,,,,,1.199,,,,,,,,,,,,,,,,,,,,,,60fd9253ff686bfc8372a42e,610366bfe360822e03470ad6,2021-07-29_22h42.11.718,Simcolourproject_2stim_asymm_v5,2020.2.10,MacIntel,60,61025ae37ef11b136ea224fe,,,,,,,,,1487,84.84375,31.51953125,1,0,0,response1disk,,6,20.515625,9.921875,1,0,0,rectangle,20.515625,9.921875,1,0,0,20.515625,9.921875,1,0,0,0,92,92,134,1,,,,,,,,
,,,,,,,,,,,,,FF,,,,,,,,1.0499,,,,,,,,,,,,,,,,,,,,,,60fd9253ff686bfc8372a42e,610366bfe360822e03470ad6,2021-07-29_22h42.11.718,Simcolourproject_2stim_asymm_v5,2020.2.10,MacIntel,60,61025ae37ef11b136ea224fe,,,,,,,,,4043,87.65234375,-42.24609375,1,0,0,response3disk,,5,10.484375,0.66796875,1,0,0,rectangle,10.484375,0.66796875,1,0,0,10.484375,0.66796875,1,0,0,0,93,93,48,1,,,,,,,,
,,,,,,,,,,,,,FF,,,,,,,,1.3004,,,,,,,,,,,,,,,,,,,,,,60fd9253ff686bfc8372a42e,610366bfe360822e03470ad6,2021-07-29_22h42.11.718,Simcolourproject_2stim_asymm_v5,2020.2.10,MacIntel,60,61025ae37ef11b136ea224fe,,,,,,,,,640,48.7421875,-88.4921875,1,0,0,response3disk,,4,16.8125,12.421875,1,0,0,rectangle,16.8125,12.421875,1,0,0,16.8125,12.421875,1,0,0,0,94,94,126,1,,,,,,,,
,,,,,,,,,,,,,FF,,,,,,,,0.7663,,,,,,,,,,,,,,,,,,,,,,60fd9253ff686bfc8372a42e,610366bfe360822e03470ad6,2021-07-29_22h42.11.718,Simcolourproject_2stim_asymm_v5,2020.2.10,MacIntel,60,61025ae37ef11b136ea224fe,,,,,,,,,3060,88.88671875,-44.46875,1,0,0,response3disk,,5,0.484375,9.1796875,1,0,0,rectangle,0.484375,9.1796875,1,0,0,0.484375,9.1796875,1,0,0,0,95,95,93,1,,,,,,,,
,,,,,,,,,,,,,FF,,,,,,,,1.9993,,,,,,,,,,,,,,,,,,,,,,60fd9253ff686bfc8372a42e,610366bfe360822e03470ad6,2021-07-29_22h42.11.718,Simcolourproject_2stim_asymm_v5,2020.2.10,MacIntel,60,61025ae37ef11b136ea224fe,,,,,,,,,1823,44.91796875,-72.4765625,1,0,0,response3disk,,4,8.80078125,5.35546875,1,0,0,rectangle,8.80078125,5.35546875,1,0,0,8.80078125,5.35546875,1,0,0,0,96,96,14,1,,,,,,,,
,,,,,,,,,,,,,FF,,,,,,,,0.8349,,,,,,,,,,,,,,,,,,,,,,60fd9253ff686bfc8372a42e,610366bfe360822e03470ad6,2021-07-29_22h42.11.718,Simcolourproject_2stim_asymm_v5,2020.2.10,MacIntel,60,61025ae37ef11b136ea224fe,,,,,,,,,1328,95.83984375,-42.515625,1,0,0,response3disk,,5,0.96484375,6.72265625,1,0,0,rectangle,0.96484375,6.72265625,1,0,0,0.96484375,6.72265625,1,0,0,0,97,97,157,1,,,,,,,,
,,,,,,,,,,,,,FF,,,,,,,,1.0327,,,,,,,,,,,,,,,,,,,,,,60fd9253ff686bfc8372a42e,610366bfe360822e03470ad6,2021-07-29_22h42.11.718,Simcolourproject_2stim_asymm_v5,2020.2.10,MacIntel,60,61025ae37ef11b136ea224fe,,,,,,,,,3019,86.4921875,-46.73046875,1,0,0,response3disk,,5,2.296875,4.20703125,1,0,0,rectangle,2.296875,4.20703125,1,0,0,2.296875,4.20703125,1,0,0,0,98,98,111,1,,,,,,,,
,,,,,,,,,,,,,FF,,,,,,,,1.9494,,,,,,,,,,,,,,,,,,,,,,60fd9253ff686bfc8372a42e,610366bfe360822e03470ad6,2021-07-29_22h42.11.718,Simcolourproject_2stim_asymm_v5,2020.2.10,MacIntel,60,61025ae37ef11b136ea224fe,,,,,,,,,3779,87.99609375,31.75390625,1,0,0,response1disk,,6,17.46875,2.51953125,1,0,0,rectangle,17.46875,2.51953125,1,0,0,17.46875,2.51953125,1,0,0,0,99,99,98,1,,,,,,,,
,,,,,,,,,,,,,FF,,,,,,,,1.199,,,,,,,,,,,,,,,,,,,,,,60fd9253ff686bfc8372a42e,610366bfe360822e03470ad6,2021-07-29_22h42.11.718,Simcolourproject_2stim_asymm_v5,2020.2.10,MacIntel,60,61025ae37ef11b136ea224fe,,,,,,,,,2331,47.3515625,80.29296875,1,0,0,response1disk,,7,-1.3359375,0.73828125,1,0,0,rectangle,-1.3359375,0.73828125,1,0,0,-1.3359375,0.73828125,1,0,0,0,100,100,26,1,,,,,,,,
,,,,,,,,,,,,,FF,,,,,,,,2.7175,,,,,,,,,,,,,,,,,,,,,,60fd9253ff686bfc8372a42e,610366bfe360822e03470ad6,2021-07-29_22h42.11.718,Simcolourproject_2stim_asymm_v5,2020.2.10,MacIntel,60,61025ae37ef11b136ea224fe,,,,,,,,,3759,87.62890625,47.55859375,1,0,0,response1disk,,6,14.90234375,-0.91015625,1,0,0,rectangle,14.90234375,-0.91015625,1,0,0,14.90234375,-0.91015625,1,0,0,0,101,101,70,1,,,,,,,,
,,,,,,,,,,,,,FF,,,,,,,,5.1006,,,,,,,,,,,,,,,,,,,,,,60fd9253ff686bfc8372a42e,610366bfe360822e03470ad6,2021-07-29_22h42.11.718,Simcolourproject_2stim_asymm_v5,2020.2.10,MacIntel,60,61025ae37ef11b136ea224fe,,,,,,,,,2332,95.53515625,-44.25,1,0,0,response3disk,,5,1.140625,4.69921875,1,0,0,rectangle,1.140625,4.69921875,1,0,0,1.140625,4.69921875,1,0,0,0,102,102,38,1,,,,,,,,
,,,,,,,,,,,,,FF,,,,,,,,1.2158,,,,,,,,,,,,,,,,,,,,,,60fd9253ff686bfc8372a42e,610366bfe360822e03470ad6,2021-07-29_22h42.11.718,Simcolourproject_2stim_asymm_v5,2020.2.10,MacIntel,60,61025ae37ef11b136ea224fe,,,,,,,,,2337,45.28515625,92.0234375,1,0,0,response1disk,,7,6.72265625,-2.23046875,1,0,0,rectangle,6.72265625,-2.23046875,1,0,0,6.72265625,-2.23046875,1,0,0,0,103,103,118,1,,,,,,,,
,,,,,,,,,,,,,FF,,,,,,,,3.7004,,,,,,,,,,,,,,,,,,,,,,60fd9253ff686bfc8372a42e,610366bfe360822e03470ad6,2021-07-29_22h42.11.718,Simcolourproject_2stim_asymm_v5,2020.2.10,MacIntel,60,61025ae37ef11b136ea224fe,,,,,,,,,2844,41.73046875,-54.91796875,1,0,0,response3disk,,4,12.01171875,-4.84375,1,0,0,rectangle,12.01171875,-4.84375,1,0,0,12.01171875,-4.84375,1,0,0,0,104,104,51,1,,,,,,,,
,,,,,,,,,,,,,FF,,,,,,,,1.0674,,,,,,,,,,,,,,,,,,,,,,60fd9253ff686bfc8372a42e,610366bfe360822e03470ad6,2021-07-29_22h42.11.718,Simcolourproject_2stim_asymm_v5,2020.2.10,MacIntel,60,61025ae37ef11b136ea224fe,,,,,,,,,2607,-92.88671875,-40.01953125,1,0,0,response5disk,,2,9.87890625,5.50390625,1,0,0,rectangle,9.87890625,5.50390625,1,0,0,9.87890625,5.50390625,1,0,0,0,105,105,56,1,,,,,,,,
,,,,,,,,,,,,,FF,,,,,,,,0.7659,,,,,,,,,,,,,,,,,,,,,,60fd9253ff686bfc8372a42e,610366bfe360822e03470ad6,2021-07-29_22h42.11.718,Simcolourproject_2stim_asymm_v5,2020.2.10,MacIntel,60,61025ae37ef11b136ea224fe,,,,,,,,,3472,-93.4453125,-42.8359375,1,0,0,response5disk,,2,1.9453125,-6.98046875,1,0,0,rectangle,1.9453125,-6.98046875,1,0,0,1.9453125,-6.98046875,1,0,0,0,106,106,73,1,,,,,,,,
,,,,,,,,,,,,,FF,,,,,,,,0.95,,,,,,,,,,,,,,,,,,,,,,60fd9253ff686bfc8372a42e,610366bfe360822e03470ad6,2021-07-29_22h42.11.718,Simcolourproject_2stim_asymm_v5,2020.2.10,MacIntel,60,61025ae37ef11b136ea224fe,,,,,,,,,1262,81.90234375,-44.2421875,1,0,0,response3disk,,5,-1.015625,3.79296875,1,0,0,rectangle,-1.015625,3.79296875,1,0,0,-1.015625,3.79296875,1,0,0,0,107,107,29,1,,,,,,,,
,,,,,,,,,,,,,FF,,,,,,,,1.9506,,,,,,,,,,,,,,,,,,,,,,60fd9253ff686bfc8372a42e,610366bfe360822e03470ad6,2021-07-29_22h42.11.718,Simcolourproject_2stim_asymm_v5,2020.2.10,MacIntel,60,61025ae37ef11b136ea224fe,,,,,,,,,330,82.0234375,41.3828125,1,0,0,response1disk,,6,-4.55859375,4.42578125,1,0,0,rectangle,-4.55859375,4.42578125,1,0,0,-4.55859375,4.42578125,1,0,0,0,108,108,147,1,,,,,,,,
,,,,,,,,,,,,,FF,,,,,,,,0.7006,,,,,,,,,,,,,,,,,,,,,,60fd9253ff686bfc8372a42e,610366bfe360822e03470ad6,2021-07-29_22h42.11.718,Simcolourproject_2stim_asymm_v5,2020.2.10,MacIntel,60,61025ae37ef11b136ea224fe,,,,,,,,,3127,44.9765625,77.99609375,1,0,0,response1disk,,7,6.5546875,-5.421875,1,0,0,rectangle,6.5546875,-5.421875,1,0,0,6.5546875,-5.421875,1,0,0,0,109,109,150,1,,,,,,,,
,,,,,,,,,,,,,FF,,,,,,,,2.2338,,,,,,,,,,,,,,,,,,,,,,60fd9253ff686bfc8372a42e,610366bfe360822e03470ad6,2021-07-29_22h42.11.718,Simcolourproject_2stim_asymm_v5,2020.2.10,MacIntel,60,61025ae37ef11b136ea224fe,,,,,,,,,1671,24.1953125,-81.98828125,1,0,0,response3disk,,4,6.1796875,-15.0703125,1,0,0,rectangle,-37.3515625,91.703125,1,0,0,-4.92578125,-4.94921875,1,0,0,0,110,110,12,1,,response7disk_3,TRUE,0,0,"[321,174,54,228,111,256,289,45,12,231,199,60,211,323,279,41,7,43,139,236]",1.834,rectangle
,,,,,,,,,,,,,FF,,,,,,,,2.0668,,,,,,,,,,,,,,,,,,,,,,60fd9253ff686bfc8372a42e,610366bfe360822e03470ad6,2021-07-29_22h42.11.718,Simcolourproject_2stim_asymm_v5,2020.2.10,MacIntel,60,61025ae37ef11b136ea224fe,,,,,,,,,1087,91.25390625,40.52734375,1,0,0,response1disk,,6,9.4765625,-2.203125,1,0,0,rectangle,9.4765625,-2.203125,1,0,0,9.4765625,-2.203125,1,0,0,0,111,111,143,1,,,,,,,,
,,,,,,,,,,,,,FF,,,,,,,,1.1003,,,,,,,,,,,,,,,,,,,,,,60fd9253ff686bfc8372a42e,610366bfe360822e03470ad6,2021-07-29_22h42.11.718,Simcolourproject_2stim_asymm_v5,2020.2.10,MacIntel,60,61025ae37ef11b136ea224fe,,,,,,,,,3937,-66.81640625,51.58203125,1,0,0,response7disk,,1,-7.03515625,3.5,1,0,0,rectangle,-7.03515625,3.5,1,0,0,-7.03515625,3.5,1,0,0,0,112,112,105,1,,,,,,,,
,,,,,,,,,,,,,FF,,,,,,,,1.2493,,,,,,,,,,,,,,,,,,,,,,60fd9253ff686bfc8372a42e,610366bfe360822e03470ad6,2021-07-29_22h42.11.718,Simcolourproject_2stim_asymm_v5,2020.2.10,MacIntel,60,61025ae37ef11b136ea224fe,,,,,,,,,1561,78.05078125,-53.9765625,1,0,0,response3disk,,5,15.69921875,-5.57421875,1,0,0,rectangle,15.69921875,-5.57421875,1,0,0,15.69921875,-5.57421875,1,0,0,0,113,113,127,1,,,,,,,,
,,,,,,,,,,,,,FF,,,,,,,,0.6171,,,,,,,,,,,,,,,,,,,,,,60fd9253ff686bfc8372a42e,610366bfe360822e03470ad6,2021-07-29_22h42.11.718,Simcolourproject_2stim_asymm_v5,2020.2.10,MacIntel,60,61025ae37ef11b136ea224fe,,,,,,,,,1099,73.9140625,-41.85546875,1,0,0,response3disk,,5,6.703125,1.75,1,0,0,rectangle,6.703125,1.75,1,0,0,6.703125,1.75,1,0,0,0,114,114,11,1,,,,,,,,
,,,,,,,,,,,,,FF,,,,,,,,1.5171,,,,,,,,,,,,,,,,,,,,,,60fd9253ff686bfc8372a42e,610366bfe360822e03470ad6,2021-07-29_22h42.11.718,Simcolourproject_2stim_asymm_v5,2020.2.10,MacIntel,60,61025ae37ef11b136ea224fe,,,,,,,,,395,44.0859375,-85.25,1,0,0,response3disk,,4,-2.46484375,3.77734375,1,0,0,rectangle,-2.46484375,3.77734375,1,0,0,-2.46484375,3.77734375,1,0,0,0,115,115,76,1,,,,,,,,
,,,,,,,,,,,,,FF,,,,,,,,1.3001,,,,,,,,,,,,,,,,,,,,,,60fd9253ff686bfc8372a42e,610366bfe360822e03470ad6,2021-07-29_22h42.11.718,Simcolourproject_2stim_asymm_v5,2020.2.10,MacIntel,60,61025ae37ef11b136ea224fe,,,,,,,,,2478,49.234375,99.75,1,0,0,response1disk,,7,5.953125,-1.12890625,1,0,0,rectangle,5.953125,-1.12890625,1,0,0,5.953125,-1.12890625,1,0,0,0,116,116,68,1,,,,,,,,
,,,,,,,,,,,,,FF,,,,,,,,0.9821,,,,,,,,,,,,,,,,,,,,,,60fd9253ff686bfc8372a42e,610366bfe360822e03470ad6,2021-07-29_22h42.11.718,Simcolourproject_2stim_asymm_v5,2020.2.10,MacIntel,60,61025ae37ef11b136ea224fe,,,,,,,,,4151,-43.14453125,-81.1328125,1,0,0,response5disk,,3,0.4296875,-0.5546875,1,0,0,rectangle,0.4296875,-0.5546875,1,0,0,0.4296875,-0.5546875,1,0,0,0,117,117,1,1,,,,,,,,
,,,,,,,,,,,,,FF,,,,,,,,0.8822,,,,,,,,,,,,,,,,,,,,,,60fd9253ff686bfc8372a42e,610366bfe360822e03470ad6,2021-07-29_22h42.11.718,Simcolourproject_2stim_asymm_v5,2020.2.10,MacIntel,60,61025ae37ef11b136ea224fe,,,,,,,,,4199,91.91015625,-36.8984375,1,0,0,response3disk,,5,0.73828125,11.3125,1,0,0,rectangle,0.73828125,11.3125,1,0,0,0.73828125,11.3125,1,0,0,0,118,118,151,1,,,,,,,,
,,,,,,,,,,,,,FF,,,,,,,,1.4017,,,,,,,,,,,,,,,,,,,,,,60fd9253ff686bfc8372a42e,610366bfe360822e03470ad6,2021-07-29_22h42.11.718,Simcolourproject_2stim_asymm_v5,2020.2.10,MacIntel,60,61025ae37ef11b136ea224fe,,,,,,,,,1646,90.67578125,47.43359375,1,0,0,response1disk,,6,13.57421875,-1.0390625,1,0,0,rectangle,13.57421875,-1.0390625,1,0,0,13.57421875,-1.0390625,1,0,0,0,119,119,119,1,,,,,,,,
,,,,,,,,,,,,,FF,,,,,,,,1.567,,,,,,,,,,,,,,,,,,,,,,60fd9253ff686bfc8372a42e,610366bfe360822e03470ad6,2021-07-29_22h42.11.718,Simcolourproject_2stim_asymm_v5,2020.2.10,MacIntel,60,61025ae37ef11b136ea224fe,,,,,,,,,3189,-53.08984375,-67.21875,1,0,0,response5disk,,3,-0.9765625,2.53515625,1,0,0,rectangle,-0.9765625,2.53515625,1,0,0,-0.9765625,2.53515625,1,0,0,0,120,120,6,1,,,,,,,,
,,,,,,,,,,,,,FF,,,,,,,,1.4166,,,,,,,,,,,,,,,,,,,,,,60fd9253ff686bfc8372a42e,610366bfe360822e03470ad6,2021-07-29_22h42.11.718,Simcolourproject_2stim_asymm_v5,2020.2.10,MacIntel,60,61025ae37ef11b136ea224fe,,,,,,,,,1689,86.71875,-57.23828125,1,0,0,response3disk,,5,2.03515625,-4.47265625,1,0,0,rectangle,2.03515625,-4.47265625,1,0,0,2.03515625,-4.47265625,1,0,0,0,121,121,62,1,,,,,,,,
,,,,,,,,,,,,,FF,,,,,,,,1.4166,,,,,,,,,,,,,,,,,,,,,,60fd9253ff686bfc8372a42e,610366bfe360822e03470ad6,2021-07-29_22h42.11.718,Simcolourproject_2stim_asymm_v5,2020.2.10,MacIntel,60,61025ae37ef11b136ea224fe,,,,,,,,,188,-51.78515625,-92.796875,1,0,0,response5disk,,3,9.15234375,4.2578125,1,0,0,rectangle,9.15234375,4.2578125,1,0,0,9.15234375,4.2578125,1,0,0,0,122,122,80,1,,,,,,,,
,,,,,,,,,,,,,FF,,,,,,,,1.3322,,,,,,,,,,,,,,,,,,,,,,60fd9253ff686bfc8372a42e,610366bfe360822e03470ad6,2021-07-29_22h42.11.718,Simcolourproject_2stim_asymm_v5,2020.2.10,MacIntel,60,61025ae37ef11b136ea224fe,,,,,,,,,2621,41.328125,-81.04296875,1,0,0,response3disk,,4,24.23828125,9.29296875,1,0,0,rectangle,24.23828125,9.29296875,1,0,0,24.23828125,9.29296875,1,0,0,0,123,123,120,1,,,,,,,,
,,,,,,,,,,,,,FF,,,,,,,,0.9163,,,,,,,,,,,,,,,,,,,,,,60fd9253ff686bfc8372a42e,610366bfe360822e03470ad6,2021-07-29_22h42.11.718,Simcolourproject_2stim_asymm_v5,2020.2.10,MacIntel,60,61025ae37ef11b136ea224fe,,,,,,,,,3834,82.87890625,36.62890625,1,0,0,response1disk,,6,2.9765625,2.62109375,1,0,0,rectangle,2.9765625,2.62109375,1,0,0,2.9765625,2.62109375,1,0,0,0,124,124,72,1,,,,,,,,
,,,,,,,,,,,,,FF,,,,,,,,2.9662,,,,,,,,,,,,,,,,,,,,,,60fd9253ff686bfc8372a42e,610366bfe360822e03470ad6,2021-07-29_22h42.11.718,Simcolourproject_2stim_asymm_v5,2020.2.10,MacIntel,60,61025ae37ef11b136ea224fe,,,,,,,,,1275,43.84375,-78.89453125,1,0,0,response3disk,,4,19.3671875,10.671875,1,0,0,rectangle,19.3671875,10.671875,1,0,0,19.3671875,10.671875,1,0,0,0,125,125,35,1,,,,,,,,
,,,,,,,,,,,,,FF,,,,,,,,1.0657,,,,,,,,,,,,,,,,,,,,,,60fd9253ff686bfc8372a42e,610366bfe360822e03470ad6,2021-07-29_22h42.11.718,Simcolourproject_2stim_asymm_v5,2020.2.10,MacIntel,60,61025ae37ef11b136ea224fe,,,,,,,,,3205,-90.7421875,-38.3125,1,0,0,response5disk,,2,-5.125,-5.26171875,1,0,0,rectangle,-5.125,-5.26171875,1,0,0,-5.125,-5.26171875,1,0,0,0,126,126,92,1,,,,,,,,
,,,,,,,,,,,,,FF,,,,,,,,1.4178,,,,,,,,,,,,,,,,,,,,,,60fd9253ff686bfc8372a42e,610366bfe360822e03470ad6,2021-07-29_22h42.11.718,Simcolourproject_2stim_asymm_v5,2020.2.10,MacIntel,60,61025ae37ef11b136ea224fe,,,,,,,,,886,-88.046875,42.10546875,1,0,0,response7disk,,1,-6.89453125,3.62109375,1,0,0,rectangle,-6.89453125,3.62109375,1,0,0,-6.89453125,3.62109375,1,0,0,0,127,127,114,1,,,,,,,,
,,,,,,,,,,,,,FF,,,,,,,,0.7837,,,,,,,,,,,,,,,,,,,,,,60fd9253ff686bfc8372a42e,610366bfe360822e03470ad6,2021-07-29_22h42.11.718,Simcolourproject_2stim_asymm_v5,2020.2.10,MacIntel,60,61025ae37ef11b136ea224fe,,,,,,,,,3675,-79.87109375,-52.25,1,0,0,response5disk,,2,1.35546875,2.80859375,1,0,0,rectangle,1.35546875,2.80859375,1,0,0,1.35546875,2.80859375,1,0,0,0,128,128,152,1,,,,,,,,
,,,,,,,,,,,,,FF,,,,,,,,0.8183,,,,,,,,,,,,,,,,,,,,,,60fd9253ff686bfc8372a42e,610366bfe360822e03470ad6,2021-07-29_22h42.11.718,Simcolourproject_2stim_asymm_v5,2020.2.10,MacIntel,60,61025ae37ef11b136ea224fe,,,,,,,,,2548,-92.86328125,-38.94140625,1,0,0,response5disk,,2,-13.53515625,-5.0078125,1,0,0,rectangle,-13.53515625,-5.0078125,1,0,0,-13.53515625,-5.0078125,1,0,0,0,129,129,140,1,,,,,,,,
,,,,,,,,,,,,,FF,,,,,,,,0.8489,,,,,,,,,,,,,,,,,,,,,,60fd9253ff686bfc8372a42e,610366bfe360822e03470ad6,2021-07-29_22h42.11.718,Simcolourproject_2stim_asymm_v5,2020.2.10,MacIntel,60,61025ae37ef11b136ea224fe,,,,,,,,,3667,34.859375,-57.5078125,1,0,0,response3disk,,4,1.4765625,9.953125,1,0,0,rectangle,1.4765625,9.953125,1,0,0,1.4765625,9.953125,1,0,0,0,130,130,54,1,,,,,,,,
,,,,,,,,,,,,,FF,,,,,,,,2.0165,,,,,,,,,,,,,,,,,,,,,,60fd9253ff686bfc8372a42e,610366bfe360822e03470ad6,2021-07-29_22h42.11.718,Simcolourproject_2stim_asymm_v5,2020.2.10,MacIntel,60,61025ae37ef11b136ea224fe,,,,,,,,,371,-60.1015625,-82.6953125,1,0,0,response5disk,,3,-11.62109375,5.3671875,1,0,0,rectangle,-11.62109375,5.3671875,1,0,0,-11.62109375,5.3671875,1,0,0,0,131,131,21,1,,,,,,,,
,,,,,,,,,,,,,FF,,,,,,,,0.918,,,,,,,,,,,,,,,,,,,,,,60fd9253ff686bfc8372a42e,610366bfe360822e03470ad6,2021-07-29_22h42.11.718,Simcolourproject_2stim_asymm_v5,2020.2.10,MacIntel,60,61025ae37ef11b136ea224fe,,,,,,,,,4298,90.28125,-44.1015625,1,0,0,response3disk,,5,14.53515625,-1.09375,1,0,0,rectangle,14.53515625,-1.09375,1,0,0,14.53515625,-1.09375,1,0,0,0,132,132,94,1,,,,,,,,
,,,,,,,,,,,,,FF,,,,,,,,1.1988,,,,,,,,,,,,,,,,,,,,,,60fd9253ff686bfc8372a42e,610366bfe360822e03470ad6,2021-07-29_22h42.11.718,Simcolourproject_2stim_asymm_v5,2020.2.10,MacIntel,60,61025ae37ef11b136ea224fe,,,,,,,,,3167,94.34375,38,1,0,0,response1disk,,6,9.51953125,6.82421875,1,0,0,rectangle,9.51953125,6.82421875,1,0,0,9.51953125,6.82421875,1,0,0,0,133,133,7,1,,,,,,,,
,,,,,,,,,,,,,FF,,,,,,,,0.8333,,,,,,,,,,,,,,,,,,,,,,60fd9253ff686bfc8372a42e,610366bfe360822e03470ad6,2021-07-29_22h42.11.718,Simcolourproject_2stim_asymm_v5,2020.2.10,MacIntel,60,61025ae37ef11b136ea224fe,,,,,,,,,3652,52.2109375,108.0234375,1,0,0,response1disk,,7,9.4296875,0.9140625,1,0,0,rectangle,9.4296875,0.9140625,1,0,0,9.4296875,0.9140625,1,0,0,0,134,134,100,1,,,,,,,,
,,,,,,,,,,,,,FF,,,,,,,,1.2511,,,,,,,,,,,,,,,,,,,,,,60fd9253ff686bfc8372a42e,610366bfe360822e03470ad6,2021-07-29_22h42.11.718,Simcolourproject_2stim_asymm_v5,2020.2.10,MacIntel,60,61025ae37ef11b136ea224fe,,,,,,,,,3349,87.15234375,-51.69140625,1,0,0,response3disk,,5,0.19921875,-0.8046875,1,0,0,rectangle,0.19921875,-0.8046875,1,0,0,0.19921875,-0.8046875,1,0,0,0,135,135,9,1,,,,,,,,
,,,,,,,,,,,,,FF,,,,,,,,1.1828,,,,,,,,,,,,,,,,,,,,,,60fd9253ff686bfc8372a42e,610366bfe360822e03470ad6,2021-07-29_22h42.11.718,Simcolourproject_2stim_asymm_v5,2020.2.10,MacIntel,60,61025ae37ef11b136ea224fe,,,,,,,,,1866,82.05078125,-41.96484375,1,0,0,response3disk,,5,10.48046875,0.29296875,1,0,0,rectangle,10.48046875,0.29296875,1,0,0,10.48046875,0.29296875,1,0,0,0,136,136,5,1,,,,,,,,
,,,,,,,,,,,,,FF,,,,,,,,0.8658,,,,,,,,,,,,,,,,,,,,,,60fd9253ff686bfc8372a42e,610366bfe360822e03470ad6,2021-07-29_22h42.11.718,Simcolourproject_2stim_asymm_v5,2020.2.10,MacIntel,60,61025ae37ef11b136ea224fe,,,,,,,,,1014,46.62109375,84.8359375,1,0,0,response1disk,,7,2.78125,-1.1484375,1,0,0,rectangle,2.78125,-1.1484375,1,0,0,2.78125,-1.1484375,1,0,0,0,137,137,116,1,,,,,,,,
,,,,,,,,,,,,,FF,,,,,,,,1.4336,,,,,,,,,,,,,,,,,,,,,,60fd9253ff686bfc8372a42e,610366bfe360822e03470ad6,2021-07-29_22h42.11.718,Simcolourproject_2stim_asymm_v5,2020.2.10,MacIntel,60,61025ae37ef11b136ea224fe,,,,,,,,,3670,-81.84765625,35.39453125,1,0,0,response7disk,,1,-13.2265625,-2.28125,1,0,0,rectangle,-80.21484375,-42.8203125,1,0,0,-2.12890625,-3.85546875,1,0,0,0,138,138,113,1,,response5disk_3,TRUE,2,2,"[321,174,54,228,111,256,289,45,12,231,199,60,211,323,279,41,7,43,139,236]",1.5666,rectangle
,,,,,,,,,,,,,FF,,,,,,,,1.0498,,,,,,,,,,,,,,,,,,,,,,60fd9253ff686bfc8372a42e,610366bfe360822e03470ad6,2021-07-29_22h42.11.718,Simcolourproject_2stim_asymm_v5,2020.2.10,MacIntel,60,61025ae37ef11b136ea224fe,,,,,,,,,1916,-53.1171875,-103.921875,1,0,0,response5disk,,3,-12.48828125,-10.796875,1,0,0,rectangle,-12.48828125,-10.796875,1,0,0,-12.48828125,-10.796875,1,0,0,0,139,139,137,1,,,,,,,,
,,,,,,,,,,,,,FF,,,,,,,,1.049,,,,,,,,,,,,,,,,,,,,,,60fd9253ff686bfc8372a42e,610366bfe360822e03470ad6,2021-07-29_22h42.11.718,Simcolourproject_2stim_asymm_v5,2020.2.10,MacIntel,60,61025ae37ef11b136ea224fe,,,,,,,,,56,38.66796875,-71.87890625,1,0,0,response3disk,,4,12.4609375,3.0390625,1,0,0,rectangle,12.4609375,3.0390625,1,0,0,12.4609375,3.0390625,1,0,0,0,140,140,132,1,,,,,,,,
,,,,,,,,,,,,,FF,,,,,,,,0.8999,,,,,,,,,,,,,,,,,,,,,,60fd9253ff686bfc8372a42e,610366bfe360822e03470ad6,2021-07-29_22h42.11.718,Simcolourproject_2stim_asymm_v5,2020.2.10,MacIntel,60,61025ae37ef11b136ea224fe,,,,,,,,,3096,-83.5546875,48.6484375,1,0,0,response7disk,,1,-9.5234375,-0.2109375,1,0,0,rectangle,-9.5234375,-0.2109375,1,0,0,-9.5234375,-0.2109375,1,0,0,0,141,141,59,1,,,,,,,,
,,,,,,,,,,,,,FF,,,,,,,,0.8664,,,,,,,,,,,,,,,,,,,,,,60fd9253ff686bfc8372a42e,610366bfe360822e03470ad6,2021-07-29_22h42.11.718,Simcolourproject_2stim_asymm_v5,2020.2.10,MacIntel,60,61025ae37ef11b136ea224fe,,,,,,,,,3871,89.2890625,-34.2734375,1,0,0,response3disk,,5,3.640625,1.4296875,1,0,0,rectangle,3.640625,1.4296875,1,0,0,3.640625,1.4296875,1,0,0,0,142,142,28,1,,,,,,,,
,,,,,,,,,,,,,FF,,,,,,,,2.6332,,,,,,,,,,,,,,,,,,,,,,60fd9253ff686bfc8372a42e,610366bfe360822e03470ad6,2021-07-29_22h42.11.718,Simcolourproject_2stim_asymm_v5,2020.2.10,MacIntel,60,61025ae37ef11b136ea224fe,,,,,,,,,3190,-77.27734375,-36.37109375,1,0,0,response5disk,,2,24.01953125,10.65625,1,0,0,rectangle,24.01953125,10.65625,1,0,0,24.01953125,10.65625,1,0,0,0,143,143,79,1,,,,,,,,
,,,,,,,,,,,,,FF,,,,,,,,1.2848,,,,,,,,,,,,,,,,,,,,,,60fd9253ff686bfc8372a42e,610366bfe360822e03470ad6,2021-07-29_22h42.11.718,Simcolourproject_2stim_asymm_v5,2020.2.10,MacIntel,60,61025ae37ef11b136ea224fe,,,,,,,,,2765,89.5546875,43.83984375,1,0,0,response1disk,,6,13.33984375,7.1796875,1,0,0,rectangle,13.33984375,7.1796875,1,0,0,13.33984375,7.1796875,1,0,0,0,144,144,129,1,,,,,,,,
,,,,,,,,,,,,,FF,,,,,,,,0.7336,,,,,,,,,,,,,,,,,,,,,,60fd9253ff686bfc8372a42e,610366bfe360822e03470ad6,2021-07-29_22h42.11.718,Simcolourproject_2stim_asymm_v5,2020.2.10,MacIntel,60,61025ae37ef11b136ea224fe,,,,,,,,,774,37.69921875,79.94921875,1,0,0,response1disk,,7,11.8828125,14.8359375,1,0,0,rectangle,11.8828125,14.8359375,1,0,0,11.8828125,14.8359375,1,0,0,0,145,145,78,1,,,,,,,,
,,,,,,,,,,,,,FF,,,,,,,,1.5002,,,,,,,,,,,,,,,,,,,,,,60fd9253ff686bfc8372a42e,610366bfe360822e03470ad6,2021-07-29_22h42.11.718,Simcolourproject_2stim_asymm_v5,2020.2.10,MacIntel,60,61025ae37ef11b136ea224fe,,,,,,,,,1181,87.69921875,-31.59375,1,0,0,response3disk,,5,4.9140625,2.24609375,1,0,0,rectangle,4.9140625,2.24609375,1,0,0,4.9140625,2.24609375,1,0,0,0,146,146,65,1,,,,,,,,
,,,,,,,,,,,,,FF,,,,,,,,1.2333,,,,,,,,,,,,,,,,,,,,,,60fd9253ff686bfc8372a42e,610366bfe360822e03470ad6,2021-07-29_22h42.11.718,Simcolourproject_2stim_asymm_v5,2020.2.10,MacIntel,60,61025ae37ef11b136ea224fe,,,,,,,,,750,55.23046875,86.70703125,1,0,0,response1disk,,7,10.5546875,8.51953125,1,0,0,rectangle,10.5546875,8.51953125,1,0,0,10.5546875,8.51953125,1,0,0,0,147,147,75,1,,,,,,,,
,,,,,,,,,,,,,FF,,,,,,,,1.5668,,,,,,,,,,,,,,,,,,,,,,60fd9253ff686bfc8372a42e,610366bfe360822e03470ad6,2021-07-29_22h42.11.718,Simcolourproject_2stim_asymm_v5,2020.2.10,MacIntel,60,61025ae37ef11b136ea224fe,,,,,,,,,3058,-81.0703125,-32.640625,1,0,0,response5disk,,2,-6.2109375,-0.265625,1,0,0,rectangle,-6.2109375,-0.265625,1,0,0,-6.2109375,-0.265625,1,0,0,0,148,148,24,1,,,,,,,,
,,,,,,,,,,,,,FF,,,,,,,,1.4847,,,,,,,,,,,,,,,,,,,,,,60fd9253ff686bfc8372a42e,610366bfe360822e03470ad6,2021-07-29_22h42.11.718,Simcolourproject_2stim_asymm_v5,2020.2.10,MacIntel,60,61025ae37ef11b136ea224fe,,,,,,,,,4224,-81.37890625,48.09765625,1,0,0,response7disk,,1,0.80859375,4.53125,1,0,0,rectangle,0.80859375,4.53125,1,0,0,0.80859375,4.53125,1,0,0,0,149,149,19,1,,,,,,,,
,,,,,,,,,,,,,FF,,,,,,,,0.8829,,,,,,,,,,,,,,,,,,,,,,60fd9253ff686bfc8372a42e,610366bfe360822e03470ad6,2021-07-29_22h42.11.718,Simcolourproject_2stim_asymm_v5,2020.2.10,MacIntel,60,61025ae37ef11b136ea224fe,,,,,,,,,1266,96.125,-44.44921875,1,0,0,response3disk,,5,6.703125,0.02734375,1,0,0,rectangle,6.703125,0.02734375,1,0,0,6.703125,0.02734375,1,0,0,0,150,150,144,1,,,,,,,,
,,,,,,,,,,,,,FF,,,,,,,,1.1825,,,,,,,,,,,,,,,,,,,,,,60fd9253ff686bfc8372a42e,610366bfe360822e03470ad6,2021-07-29_22h42.11.718,Simcolourproject_2stim_asymm_v5,2020.2.10,MacIntel,60,61025ae37ef11b136ea224fe,,,,,,,,,2423,-40.5,-89.10546875,1,0,0,response5disk,,3,9.85546875,5.08984375,1,0,0,rectangle,9.85546875,5.08984375,1,0,0,9.85546875,5.08984375,1,0,0,0,151,151,99,1,,,,,,,,
,,,,,,,,,,,,,FF,,,,,,,,1.5831,,,,,,,,,,,,,,,,,,,,,,60fd9253ff686bfc8372a42e,610366bfe360822e03470ad6,2021-07-29_22h42.11.718,Simcolourproject_2stim_asymm_v5,2020.2.10,MacIntel,60,61025ae37ef11b136ea224fe,,,,,,,,,2474,88.48828125,-48.4609375,1,0,0,response3disk,,5,7.7265625,-1.71484375,1,0,0,rectangle,7.7265625,-1.71484375,1,0,0,7.7265625,-1.71484375,1,0,0,0,152,152,124,1,,,,,,,,
,,,,,,,,,,,,,FF,,,,,,,,0.6656,,,,,,,,,,,,,,,,,,,,,,60fd9253ff686bfc8372a42e,610366bfe360822e03470ad6,2021-07-29_22h42.11.718,Simcolourproject_2stim_asymm_v5,2020.2.10,MacIntel,60,61025ae37ef11b136ea224fe,,,,,,,,,993,79.72265625,-44.3359375,1,0,0,response3disk,,5,0.140625,16.00390625,1,0,0,rectangle,0.140625,16.00390625,1,0,0,0.140625,16.00390625,1,0,0,0,153,153,95,1,,,,,,,,
,,,,,,,,,,,,,FF,,,,,,,,1.2016,,,,,,,,,,,,,,,,,,,,,,60fd9253ff686bfc8372a42e,610366bfe360822e03470ad6,2021-07-29_22h42.11.718,Simcolourproject_2stim_asymm_v5,2020.2.10,MacIntel,60,61025ae37ef11b136ea224fe,,,,,,,,,2105,-48.48046875,-63.421875,1,0,0,response5disk,,3,17.578125,17.3359375,1,0,0,rectangle,17.578125,17.3359375,1,0,0,17.578125,17.3359375,1,0,0,0,154,154,117,1,,,,,,,,
,,,,,,,,,,,,,FF,,,,,,,,0.6183,,,,,,,,,,,,,,,,,,,,,,60fd9253ff686bfc8372a42e,610366bfe360822e03470ad6,2021-07-29_22h42.11.718,Simcolourproject_2stim_asymm_v5,2020.2.10,MacIntel,60,61025ae37ef11b136ea224fe,,,,,,,,,2546,-48.8359375,-84.3515625,1,0,0,response5disk,,3,2.78515625,-3.9765625,1,0,0,rectangle,2.78515625,-3.9765625,1,0,0,2.78515625,-3.9765625,1,0,0,0,155,155,34,1,,,,,,,,
,,,,,,,,,,,,,FF,,,,,,,,1.8186,,,,,,,,,,,,,,,,,,,,,,60fd9253ff686bfc8372a42e,610366bfe360822e03470ad6,2021-07-29_22h42.11.718,Simcolourproject_2stim_asymm_v5,2020.2.10,MacIntel,60,61025ae37ef11b136ea224fe,,,,,,,,,1773,39.66796875,-84.51171875,1,0,0,response3disk,,4,8.52734375,-2.4609375,1,0,0,rectangle,8.52734375,-2.4609375,1,0,0,8.52734375,-2.4609375,1,0,0,0,156,156,18,1,,,,,,,,
,,,,,,,,,,,,,FF,,,,,,,,1.0669,,,,,,,,,,,,,,,,,,,,,,60fd9253ff686bfc8372a42e,610366bfe360822e03470ad6,2021-07-29_22h42.11.718,Simcolourproject_2stim_asymm_v5,2020.2.10,MacIntel,60,61025ae37ef11b136ea224fe,,,,,,,,,97,-64.5078125,-90.35546875,1,0,0,response5disk,,3,-3.14453125,-0.77734375,1,0,0,rectangle,-3.14453125,-0.77734375,1,0,0,-3.14453125,-0.77734375,1,0,0,0,157,157,135,1,,,,,,,,
,,,,,,,,,,,,,FF,,,,,,,,0.8003,,,,,,,,,,,,,,,,,,,,,,60fd9253ff686bfc8372a42e,610366bfe360822e03470ad6,2021-07-29_22h42.11.718,Simcolourproject_2stim_asymm_v5,2020.2.10,MacIntel,60,61025ae37ef11b136ea224fe,,,,,,,,,2319,113.25,-42.7265625,1,0,0,response3disk,,5,3.6171875,15.51171875,1,0,0,rectangle,3.6171875,15.51171875,1,0,0,3.6171875,15.51171875,1,0,0,0,158,158,50,1,,,,,,,,
,,,,,,,,,,,,,FF,,,,,,,,1.6511,,,,,,,,,,,,,,,,,,,,,,60fd9253ff686bfc8372a42e,610366bfe360822e03470ad6,2021-07-29_22h42.11.718,Simcolourproject_2stim_asymm_v5,2020.2.10,MacIntel,60,61025ae37ef11b136ea224fe,,,,,,,,,2365,-51.45703125,-95.60546875,1,0,0,response5disk,,3,-1.98046875,-2.6328125,1,0,0,rectangle,-1.98046875,-2.6328125,1,0,0,-1.98046875,-2.6328125,1,0,0,0,159,159,0,1,,,,,,,,
,,,,,,,,,,,,,FF,,,,,,,,1.1675,,,,,,,,,,,,,,,,,,,,,,60fd9253ff686bfc8372a42e,610366bfe360822e03470ad6,2021-07-29_22h42.11.718,Simcolourproject_2stim_asymm_v5,2020.2.10,MacIntel,60,61025ae37ef11b136ea224fe,,,,,,,,,4119,-48.56640625,-84.421875,1,0,0,response5disk,,3,1.8984375,10.609375,1,0,0,rectangle,1.8984375,10.609375,1,0,0,1.8984375,10.609375,1,0,0,1,0,160,136,1,,,,,,,,
,,,,,,,,,,,,,FF,,,,,,,,1.0666,,,,,,,,,,,,,,,,,,,,,,60fd9253ff686bfc8372a42e,610366bfe360822e03470ad6,2021-07-29_22h42.11.718,Simcolourproject_2stim_asymm_v5,2020.2.10,MacIntel,60,61025ae37ef11b136ea224fe,,,,,,,,,3892,94.34375,47.91796875,1,0,0,response1disk,,6,8.078125,-9.375,1,0,0,rectangle,8.078125,-9.375,1,0,0,8.078125,-9.375,1,0,0,1,1,161,116,1,,,,,,,,
,,,,,,,,,,,,,FF,,,,,,,,0.8004,,,,,,,,,,,,,,,,,,,,,,60fd9253ff686bfc8372a42e,610366bfe360822e03470ad6,2021-07-29_22h42.11.718,Simcolourproject_2stim_asymm_v5,2020.2.10,MacIntel,60,61025ae37ef11b136ea224fe,,,,,,,,,1928,53.41796875,82.3125,1,0,0,response1disk,,7,9.53125,4.5078125,1,0,0,rectangle,9.53125,4.5078125,1,0,0,9.53125,4.5078125,1,0,0,1,2,162,37,1,,,,,,,,
,,,,,,,,,,,,,FF,,,,,,,,0.8989,,,,,,,,,,,,,,,,,,,,,,60fd9253ff686bfc8372a42e,610366bfe360822e03470ad6,2021-07-29_22h42.11.718,Simcolourproject_2stim_asymm_v5,2020.2.10,MacIntel,60,61025ae37ef11b136ea224fe,,,,,,,,,3033,77.72265625,39.609375,1,0,0,response1disk,,6,7.96875,1.6015625,1,0,0,rectangle,7.96875,1.6015625,1,0,0,7.96875,1.6015625,1,0,0,1,3,163,148,1,,,,,,,,
,,,,,,,,,,,,,FF,,,,,,,,1.4336,,,,,,,,,,,,,,,,,,,,,,60fd9253ff686bfc8372a42e,610366bfe360822e03470ad6,2021-07-29_22h42.11.718,Simcolourproject_2stim_asymm_v5,2020.2.10,MacIntel,60,61025ae37ef11b136ea224fe,,,,,,,,,2545,-45.28515625,-100.53125,1,0,0,response5disk,,3,-1.78125,-3.6953125,1,0,0,rectangle,-1.78125,-3.6953125,1,0,0,-1.78125,-3.6953125,1,0,0,1,4,164,40,1,,,,,,,,
,,,,,,,,,,,,,FF,,,,,,,,0.85,,,,,,,,,,,,,,,,,,,,,,60fd9253ff686bfc8372a42e,610366bfe360822e03470ad6,2021-07-29_22h42.11.718,Simcolourproject_2stim_asymm_v5,2020.2.10,MacIntel,60,61025ae37ef11b136ea224fe,,,,,,,,,3425,-86.359375,-35.20703125,1,0,0,response5disk,,2,11.8203125,1.0703125,1,0,0,rectangle,11.8203125,1.0703125,1,0,0,11.8203125,1.0703125,1,0,0,1,5,165,49,1,,,,,,,,
,,,,,,,,,,,,,FF,,,,,,,,1.4839,,,,,,,,,,,,,,,,,,,,,,60fd9253ff686bfc8372a42e,610366bfe360822e03470ad6,2021-07-29_22h42.11.718,Simcolourproject_2stim_asymm_v5,2020.2.10,MacIntel,60,61025ae37ef11b136ea224fe,,,,,,,,,1249,74.1796875,-46.7109375,1,0,0,response3disk,,5,16.109375,-9.375,1,0,0,rectangle,16.109375,-9.375,1,0,0,16.109375,-9.375,1,0,0,1,6,166,4,1,,,,,,,,
,,,,,,,,,,,,,FF,,,,,,,,2.2336,,,,,,,,,,,,,,,,,,,,,,60fd9253ff686bfc8372a42e,610366bfe360822e03470ad6,2021-07-29_22h42.11.718,Simcolourproject_2stim_asymm_v5,2020.2.10,MacIntel,60,61025ae37ef11b136ea224fe,,,,,,,,,1595,28.6484375,92.95703125,1,0,0,response1disk,,7,13.80078125,-0.19140625,1,0,0,rectangle,13.80078125,-0.19140625,1,0,0,13.80078125,-0.19140625,1,0,0,1,7,167,17,1,,,,,,,,
,,,,,,,,,,,,,FF,,,,,,,,0.9157,,,,,,,,,,,,,,,,,,,,,,60fd9253ff686bfc8372a42e,610366bfe360822e03470ad6,2021-07-29_22h42.11.718,Simcolourproject_2stim_asymm_v5,2020.2.10,MacIntel,60,61025ae37ef11b136ea224fe,,,,,,,,,3782,-46.48828125,-87.5625,1,0,0,response5disk,,3,-9.85546875,3.61328125,1,0,0,rectangle,-9.85546875,3.61328125,1,0,0,-9.85546875,3.61328125,1,0,0,1,8,168,8,1,,,,,,,,
,,,,,,,,,,,,,FF,,,,,,,,0.8822,,,,,,,,,,,,,,,,,,,,,,60fd9253ff686bfc8372a42e,610366bfe360822e03470ad6,2021-07-29_22h42.11.718,Simcolourproject_2stim_asymm_v5,2020.2.10,MacIntel,60,61025ae37ef11b136ea224fe,,,,,,,,,2506,89.5,42.59765625,1,0,0,response1disk,,6,6.00390625,-3.89453125,1,0,0,rectangle,6.00390625,-3.89453125,1,0,0,6.00390625,-3.89453125,1,0,0,1,9,169,126,1,,,,,,,,
,,,,,,,,,,,,,FF,,,,,,,,0.9992,,,,,,,,,,,,,,,,,,,,,,60fd9253ff686bfc8372a42e,610366bfe360822e03470ad6,2021-07-29_22h42.11.718,Simcolourproject_2stim_asymm_v5,2020.2.10,MacIntel,60,61025ae37ef11b136ea224fe,,,,,,,,,3379,75.95703125,44.37109375,1,0,0,response1disk,,6,13.40234375,9.3046875,1,0,0,rectangle,13.40234375,9.3046875,1,0,0,13.40234375,9.3046875,1,0,0,1,10,170,131,1,,,,,,,,
,,,,,,,,,,,,,FF,,,,,,,,0.9993,,,,,,,,,,,,,,,,,,,,,,60fd9253ff686bfc8372a42e,610366bfe360822e03470ad6,2021-07-29_22h42.11.718,Simcolourproject_2stim_asymm_v5,2020.2.10,MacIntel,60,61025ae37ef11b136ea224fe,,,,,,,,,925,42.6640625,85.234375,1,0,0,response1disk,,7,-1.66015625,2.1171875,1,0,0,rectangle,-1.66015625,2.1171875,1,0,0,-1.66015625,2.1171875,1,0,0,1,11,171,108,1,,,,,,,,
,,,,,,,,,,,,,FF,,,,,,,,0.8338,,,,,,,,,,,,,,,,,,,,,,60fd9253ff686bfc8372a42e,610366bfe360822e03470ad6,2021-07-29_22h42.11.718,Simcolourproject_2stim_asymm_v5,2020.2.10,MacIntel,60,61025ae37ef11b136ea224fe,,,,,,,,,2728,-51.4296875,-94.0625,1,0,0,response5disk,,3,3.8984375,10.74609375,1,0,0,rectangle,3.8984375,10.74609375,1,0,0,3.8984375,10.74609375,1,0,0,1,12,172,55,1,,,,,,,,
,,,,,,,,,,,,,FF,,,,,,,,0.8502,,,,,,,,,,,,,,,,,,,,,,60fd9253ff686bfc8372a42e,610366bfe360822e03470ad6,2021-07-29_22h42.11.718,Simcolourproject_2stim_asymm_v5,2020.2.10,MacIntel,60,61025ae37ef11b136ea224fe,,,,,,,,,2242,-44.64453125,-96.69140625,1,0,0,response5disk,,3,20.625,12.83984375,1,0,0,rectangle,24.88671875,65.296875,1,0,0,-10.046875,-0.171875,1,0,0,1,13,173,99,1,,response1disk_3,TRUE,7,7,"[321,174,54,228,111,256,289,45,12,231,199,60,211,323,279,41,7,43,139,236]",2.232,rectangle
,,,,,,,,,,,,,FF,,,,,,,,1.3489,,,,,,,,,,,,,,,,,,,,,,60fd9253ff686bfc8372a42e,610366bfe360822e03470ad6,2021-07-29_22h42.11.718,Simcolourproject_2stim_asymm_v5,2020.2.10,MacIntel,60,61025ae37ef11b136ea224fe,,,,,,,,,3245,-74.9140625,-40.56640625,1,0,0,response5disk,,2,18.2890625,11.21484375,1,0,0,rectangle,18.2890625,11.21484375,1,0,0,18.2890625,11.21484375,1,0,0,1,14,174,58,1,,,,,,,,
,,,,,,,,,,,,,FF,,,,,,,,1.4324,,,,,,,,,,,,,,,,,,,,,,60fd9253ff686bfc8372a42e,610366bfe360822e03470ad6,2021-07-29_22h42.11.718,Simcolourproject_2stim_asymm_v5,2020.2.10,MacIntel,60,61025ae37ef11b136ea224fe,,,,,,,,,4136,87.27734375,33.87890625,1,0,0,response1disk,,6,2.90234375,13.35546875,1,0,0,rectangle,2.90234375,13.35546875,1,0,0,2.90234375,13.35546875,1,0,0,1,15,175,140,1,,,,,,,,
,,,,,,,,,,,,,FF,,,,,,,,0.7167,,,,,,,,,,,,,,,,,,,,,,60fd9253ff686bfc8372a42e,610366bfe360822e03470ad6,2021-07-29_22h42.11.718,Simcolourproject_2stim_asymm_v5,2020.2.10,MacIntel,60,61025ae37ef11b136ea224fe,,,,,,,,,3219,51.44140625,101.4765625,1,0,0,response1disk,,7,-3.27734375,-4.69140625,1,0,0,rectangle,-3.27734375,-4.69140625,1,0,0,-3.27734375,-4.69140625,1,0,0,1,16,176,154,1,,,,,,,,
,,,,,,,,,,,,,FF,,,,,,,,0.6347,,,,,,,,,,,,,,,,,,,,,,60fd9253ff686bfc8372a42e,610366bfe360822e03470ad6,2021-07-29_22h42.11.718,Simcolourproject_2stim_asymm_v5,2020.2.10,MacIntel,60,61025ae37ef11b136ea224fe,,,,,,,,,1669,36.30078125,74.6484375,1,0,0,response1disk,,7,5.96484375,-5.5546875,1,0,0,rectangle,5.96484375,-5.5546875,1,0,0,5.96484375,-5.5546875,1,0,0,1,17,177,119,1,,,,,,,,
,,,,,,,,,,,,,FF,,,,,,,,1.0667,,,,,,,,,,,,,,,,,,,,,,60fd9253ff686bfc8372a42e,610366bfe360822e03470ad6,2021-07-29_22h42.11.718,Simcolourproject_2stim_asymm_v5,2020.2.10,MacIntel,60,61025ae37ef11b136ea224fe,,,,,,,,,331,74.6796875,42.70703125,1,0,0,response1disk,,6,5.640625,-1.32421875,1,0,0,rectangle,5.640625,-1.32421875,1,0,0,5.640625,-1.32421875,1,0,0,1,18,178,85,1,,,,,,,,
,,,,,,,,,,,,,FF,,,,,,,,0.7995,,,,,,,,,,,,,,,,,,,,,,60fd9253ff686bfc8372a42e,610366bfe360822e03470ad6,2021-07-29_22h42.11.718,Simcolourproject_2stim_asymm_v5,2020.2.10,MacIntel,60,61025ae37ef11b136ea224fe,,,,,,,,,1001,74.05078125,45.81640625,1,0,0,response1disk,,6,-3.765625,1.41015625,1,0,0,rectangle,-3.765625,1.41015625,1,0,0,-3.765625,1.41015625,1,0,0,1,19,179,95,1,,,,,,,,
,,,,,,,,,,,,,FF,,,,,,,,1.0323,,,,,,,,,,,,,,,,,,,,,,60fd9253ff686bfc8372a42e,610366bfe360822e03470ad6,2021-07-29_22h42.11.718,Simcolourproject_2stim_asymm_v5,2020.2.10,MacIntel,60,61025ae37ef11b136ea224fe,,,,,,,,,4098,-47.671875,-86.65234375,1,0,0,response5disk,,3,3.484375,11.28515625,1,0,0,rectangle,3.484375,11.28515625,1,0,0,3.484375,11.28515625,1,0,0,1,20,180,52,1,,,,,,,,
,,,,,,,,,,,,,FF,,,,,,,,0.9329,,,,,,,,,,,,,,,,,,,,,,60fd9253ff686bfc8372a42e,610366bfe360822e03470ad6,2021-07-29_22h42.11.718,Simcolourproject_2stim_asymm_v5,2020.2.10,MacIntel,60,61025ae37ef11b136ea224fe,,,,,,,,,200,91.4609375,-45.84765625,1,0,0,response3disk,,5,-3.625,5.203125,1,0,0,rectangle,-3.625,5.203125,1,0,0,-3.625,5.203125,1,0,0,1,21,181,43,1,,,,,,,,
,,,,,,,,,,,,,FF,,,,,,,,0.9666,,,,,,,,,,,,,,,,,,,,,,60fd9253ff686bfc8372a42e,610366bfe360822e03470ad6,2021-07-29_22h42.11.718,Simcolourproject_2stim_asymm_v5,2020.2.10,MacIntel,60,61025ae37ef11b136ea224fe,,,,,,,,,1359,74.24609375,41.3828125,1,0,0,response1disk,,6,25,4.2734375,1,0,0,rectangle,25,4.2734375,1,0,0,25,4.2734375,1,0,0,1,22,182,45,1,,,,,,,,
,,,,,,,,,,,,,FF,,,,,,,,1.3186,,,,,,,,,,,,,,,,,,,,,,60fd9253ff686bfc8372a42e,610366bfe360822e03470ad6,2021-07-29_22h42.11.718,Simcolourproject_2stim_asymm_v5,2020.2.10,MacIntel,60,61025ae37ef11b136ea224fe,,,,,,,,,2987,38.46875,-89.4609375,1,0,0,response3disk,,4,4.91796875,4.4375,1,0,0,rectangle,4.91796875,4.4375,1,0,0,4.91796875,4.4375,1,0,0,1,23,183,60,1,,,,,,,,
,,,,,,,,,,,,,FF,,,,,,,,1.0509,,,,,,,,,,,,,,,,,,,,,,60fd9253ff686bfc8372a42e,610366bfe360822e03470ad6,2021-07-29_22h42.11.718,Simcolourproject_2stim_asymm_v5,2020.2.10,MacIntel,60,61025ae37ef11b136ea224fe,,,,,,,,,3047,-90.48046875,-38.88671875,1,0,0,response5disk,,2,7.17578125,-7.59765625,1,0,0,rectangle,7.17578125,-7.59765625,1,0,0,7.17578125,-7.59765625,1,0,0,1,24,184,117,1,,,,,,,,
,,,,,,,,,,,,,FF,,,,,,,,1.4835,,,,,,,,,,,,,,,,,,,,,,60fd9253ff686bfc8372a42e,610366bfe360822e03470ad6,2021-07-29_22h42.11.718,Simcolourproject_2stim_asymm_v5,2020.2.10,MacIntel,60,61025ae37ef11b136ea224fe,,,,,,,,,591,89.171875,55.40234375,1,0,0,response1disk,,6,5.2109375,-1.24609375,1,0,0,rectangle,5.2109375,-1.24609375,1,0,0,5.2109375,-1.24609375,1,0,0,1,25,185,42,1,,,,,,,,
,,,,,,,,,,,,,FF,,,,,,,,1.735,,,,,,,,,,,,,,,,,,,,,,60fd9253ff686bfc8372a42e,610366bfe360822e03470ad6,2021-07-29_22h42.11.718,Simcolourproject_2stim_asymm_v5,2020.2.10,MacIntel,60,61025ae37ef11b136ea224fe,,,,,,,,,3256,35.234375,79.57421875,1,0,0,response1disk,,7,-2.375,4.80078125,1,0,0,rectangle,-2.375,4.80078125,1,0,0,-2.375,4.80078125,1,0,0,1,26,186,128,1,,,,,,,,
,,,,,,,,,,,,,FF,,,,,,,,0.9663,,,,,,,,,,,,,,,,,,,,,,60fd9253ff686bfc8372a42e,610366bfe360822e03470ad6,2021-07-29_22h42.11.718,Simcolourproject_2stim_asymm_v5,2020.2.10,MacIntel,60,61025ae37ef11b136ea224fe,,,,,,,,,2888,-54.92578125,-95.10546875,1,0,0,response5disk,,3,5.6328125,-3.41796875,1,0,0,rectangle,5.6328125,-3.41796875,1,0,0,5.6328125,-3.41796875,1,0,0,1,27,187,158,1,,,,,,,,
,,,,,,,,,,,,,FF,,,,,,,,0.8011,,,,,,,,,,,,,,,,,,,,,,60fd9253ff686bfc8372a42e,610366bfe360822e03470ad6,2021-07-29_22h42.11.718,Simcolourproject_2stim_asymm_v5,2020.2.10,MacIntel,60,61025ae37ef11b136ea224fe,,,,,,,,,1961,-59.171875,-94.234375,1,0,0,response5disk,,3,5.34765625,-4.3046875,1,0,0,rectangle,5.34765625,-4.3046875,1,0,0,5.34765625,-4.3046875,1,0,0,1,28,188,14,1,,,,,,,,
,,,,,,,,,,,,,FF,,,,,,,,1.6495,,,,,,,,,,,,,,,,,,,,,,60fd9253ff686bfc8372a42e,610366bfe360822e03470ad6,2021-07-29_22h42.11.718,Simcolourproject_2stim_asymm_v5,2020.2.10,MacIntel,60,61025ae37ef11b136ea224fe,,,,,,,,,3586,-39.06640625,-89.671875,1,0,0,response5disk,,3,5.875,-1.23828125,1,0,0,rectangle,5.875,-1.23828125,1,0,0,5.875,-1.23828125,1,0,0,1,29,189,16,1,,,,,,,,
,,,,,,,,,,,,,FF,,,,,,,,0.8825,,,,,,,,,,,,,,,,,,,,,,60fd9253ff686bfc8372a42e,610366bfe360822e03470ad6,2021-07-29_22h42.11.718,Simcolourproject_2stim_asymm_v5,2020.2.10,MacIntel,60,61025ae37ef11b136ea224fe,,,,,,,,,795,79.18359375,63.64453125,1,0,0,response1disk,,6,-0.83203125,-0.0625,1,0,0,rectangle,-0.83203125,-0.0625,1,0,0,-0.83203125,-0.0625,1,0,0,1,30,190,34,1,,,,,,,,
,,,,,,,,,,,,,FF,,,,,,,,1.1171,,,,,,,,,,,,,,,,,,,,,,60fd9253ff686bfc8372a42e,610366bfe360822e03470ad6,2021-07-29_22h42.11.718,Simcolourproject_2stim_asymm_v5,2020.2.10,MacIntel,60,61025ae37ef11b136ea224fe,,,,,,,,,3706,-88.40625,-36.7421875,1,0,0,response5disk,,2,-9.34375,-1.640625,1,0,0,rectangle,-9.34375,-1.640625,1,0,0,-9.34375,-1.640625,1,0,0,1,31,191,62,1,,,,,,,,
,,,,,,,,,,,,,FF,,,,,,,,0.6835,,,,,,,,,,,,,,,,,,,,,,60fd9253ff686bfc8372a42e,610366bfe360822e03470ad6,2021-07-29_22h42.11.718,Simcolourproject_2stim_asymm_v5,2020.2.10,MacIntel,60,61025ae37ef11b136ea224fe,,,,,,,,,847,80.06640625,48.76953125,1,0,0,response1disk,,6,7.453125,4.72265625,1,0,0,rectangle,7.453125,4.72265625,1,0,0,7.453125,4.72265625,1,0,0,1,32,192,22,1,,,,,,,,
,,,,,,,,,,,,,FF,,,,,,,,0.8503,,,,,,,,,,,,,,,,,,,,,,60fd9253ff686bfc8372a42e,610366bfe360822e03470ad6,2021-07-29_22h42.11.718,Simcolourproject_2stim_asymm_v5,2020.2.10,MacIntel,60,61025ae37ef11b136ea224fe,,,,,,,,,2150,40.1796875,110.8984375,1,0,0,response1disk,,7,-3.3125,-17.2734375,1,0,0,rectangle,-3.3125,-17.2734375,1,0,0,-3.3125,-17.2734375,1,0,0,1,33,193,46,1,,,,,,,,
,,,,,,,,,,,,,FF,,,,,,,,2.3012,,,,,,,,,,,,,,,,,,,,,,60fd9253ff686bfc8372a42e,610366bfe360822e03470ad6,2021-07-29_22h42.11.718,Simcolourproject_2stim_asymm_v5,2020.2.10,MacIntel,60,61025ae37ef11b136ea224fe,,,,,,,,,2768,73.7578125,-35.0390625,1,0,0,response3disk,,5,13.5078125,-7.5546875,1,0,0,rectangle,13.5078125,-7.5546875,1,0,0,13.5078125,-7.5546875,1,0,0,1,34,194,11,1,,,,,,,,
,,,,,,,,,,,,,FF,,,,,,,,0.719,,,,,,,,,,,,,,,,,,,,,,60fd9253ff686bfc8372a42e,610366bfe360822e03470ad6,2021-07-29_22h42.11.718,Simcolourproject_2stim_asymm_v5,2020.2.10,MacIntel,60,61025ae37ef11b136ea224fe,,,,,,,,,2793,34.58984375,-60.171875,1,0,0,response3disk,,4,-6.81640625,12.96875,1,0,0,rectangle,-6.81640625,12.96875,1,0,0,-6.81640625,12.96875,1,0,0,1,35,195,9,1,,,,,,,,
,,,,,,,,,,,,,FF,,,,,,,,1.5494,,,,,,,,,,,,,,,,,,,,,,60fd9253ff686bfc8372a42e,610366bfe360822e03470ad6,2021-07-29_22h42.11.718,Simcolourproject_2stim_asymm_v5,2020.2.10,MacIntel,60,61025ae37ef11b136ea224fe,,,,,,,,,3947,-39.77734375,-76.86328125,1,0,0,response5disk,,3,-5.98828125,-3.5078125,1,0,0,rectangle,-5.98828125,-3.5078125,1,0,0,-5.98828125,-3.5078125,1,0,0,1,36,196,65,1,,,,,,,,
,,,,,,,,,,,,,FF,,,,,,,,0.7004,,,,,,,,,,,,,,,,,,,,,,60fd9253ff686bfc8372a42e,610366bfe360822e03470ad6,2021-07-29_22h42.11.718,Simcolourproject_2stim_asymm_v5,2020.2.10,MacIntel,60,61025ae37ef11b136ea224fe,,,,,,,,,3492,101.125,41.8828125,1,0,0,response1disk,,6,7.54296875,4.5234375,1,0,0,rectangle,7.54296875,4.5234375,1,0,0,7.54296875,4.5234375,1,0,0,1,37,197,12,1,,,,,,,,
,,,,,,,,,,,,,FF,,,,,,,,1.15,,,,,,,,,,,,,,,,,,,,,,60fd9253ff686bfc8372a42e,610366bfe360822e03470ad6,2021-07-29_22h42.11.718,Simcolourproject_2stim_asymm_v5,2020.2.10,MacIntel,60,61025ae37ef11b136ea224fe,,,,,,,,,3904,45,-76.97265625,1,0,0,response3disk,,4,17.9140625,-3.48046875,1,0,0,rectangle,50.07421875,-97.20703125,1,0,0,9.21875,-5.6328125,1,0,0,1,38,198,57,1,,response3disk_3,TRUE,4,4,"[321,174,54,228,111,256,289,45,12,231,199,60,211,323,279,41,7,43,139,236]",1.5504,rectangle
,,,,,,,,,,,,,FF,,,,,,,,5.4006,,,,,,,,,,,,,,,,,,,,,,60fd9253ff686bfc8372a42e,610366bfe360822e03470ad6,2021-07-29_22h42.11.718,Simcolourproject_2stim_asymm_v5,2020.2.10,MacIntel,60,61025ae37ef11b136ea224fe,,,,,,,,,2562,28.328125,-91.2734375,1,0,0,response3disk,,4,11.4609375,7.01953125,1,0,0,rectangle,11.4609375,7.01953125,1,0,0,11.4609375,7.01953125,1,0,0,1,39,199,114,1,,,,,,,,
,,,,,,,,,,,,,FF,,,,,,,,1.1844,,,,,,,,,,,,,,,,,,,,,,60fd9253ff686bfc8372a42e,610366bfe360822e03470ad6,2021-07-29_22h42.11.718,Simcolourproject_2stim_asymm_v5,2020.2.10,MacIntel,60,61025ae37ef11b136ea224fe,,,,,,,,,1335,87.140625,53.62890625,1,0,0,response1disk,,6,6.265625,-2.23828125,1,0,0,rectangle,6.265625,-2.23828125,1,0,0,6.265625,-2.23828125,1,0,0,1,40,200,155,1,,,,,,,,
,,,,,,,,,,,,,FF,,,,,,,,0.7497,,,,,,,,,,,,,,,,,,,,,,60fd9253ff686bfc8372a42e,610366bfe360822e03470ad6,2021-07-29_22h42.11.718,Simcolourproject_2stim_asymm_v5,2020.2.10,MacIntel,60,61025ae37ef11b136ea224fe,,,,,,,,,2667,-56.69140625,-89.34375,1,0,0,response5disk,,3,-6.953125,6.2578125,1,0,0,rectangle,-6.953125,6.2578125,1,0,0,-6.953125,6.2578125,1,0,0,1,41,201,30,1,,,,,,,,
,,,,,,,,,,,,,FF,,,,,,,,1.766,,,,,,,,,,,,,,,,,,,,,,60fd9253ff686bfc8372a42e,610366bfe360822e03470ad6,2021-07-29_22h42.11.718,Simcolourproject_2stim_asymm_v5,2020.2.10,MacIntel,60,61025ae37ef11b136ea224fe,,,,,,,,,3337,-87.7890625,-44.484375,1,0,0,response5disk,,2,-0.11328125,4.04296875,1,0,0,rectangle,-0.11328125,4.04296875,1,0,0,-0.11328125,4.04296875,1,0,0,1,42,202,39,1,,,,,,,,
,,,,,,,,,,,,,FF,,,,,,,,3.5335,,,,,,,,,,,,,,,,,,,,,,60fd9253ff686bfc8372a42e,610366bfe360822e03470ad6,2021-07-29_22h42.11.718,Simcolourproject_2stim_asymm_v5,2020.2.10,MacIntel,60,61025ae37ef11b136ea224fe,,,,,,,,,4016,88.9609375,54.140625,1,0,0,response1disk,,6,8.73828125,1.58203125,1,0,0,rectangle,8.73828125,1.58203125,1,0,0,8.73828125,1.58203125,1,0,0,1,43,203,41,1,,,,,,,,
,,,,,,,,,,,,,FF,,,,,,,,0.884,,,,,,,,,,,,,,,,,,,,,,60fd9253ff686bfc8372a42e,610366bfe360822e03470ad6,2021-07-29_22h42.11.718,Simcolourproject_2stim_asymm_v5,2020.2.10,MacIntel,60,61025ae37ef11b136ea224fe,,,,,,,,,799,47.9609375,80.28125,1,0,0,response1disk,,7,-0.671875,-0.41015625,1,0,0,rectangle,-0.671875,-0.41015625,1,0,0,-0.671875,-0.41015625,1,0,0,1,44,204,26,1,,,,,,,,
,,,,,,,,,,,,,FF,,,,,,,,0.8999,,,,,,,,,,,,,,,,,,,,,,60fd9253ff686bfc8372a42e,610366bfe360822e03470ad6,2021-07-29_22h42.11.718,Simcolourproject_2stim_asymm_v5,2020.2.10,MacIntel,60,61025ae37ef11b136ea224fe,,,,,,,,,120,40.05078125,90.7265625,1,0,0,response1disk,,7,3.17578125,-9.3671875,1,0,0,rectangle,3.17578125,-9.3671875,1,0,0,3.17578125,-9.3671875,1,0,0,1,45,205,76,1,,,,,,,,
,,,,,,,,,,,,,FF,,,,,,,,1.0502,,,,,,,,,,,,,,,,,,,,,,60fd9253ff686bfc8372a42e,610366bfe360822e03470ad6,2021-07-29_22h42.11.718,Simcolourproject_2stim_asymm_v5,2020.2.10,MacIntel,60,61025ae37ef11b136ea224fe,,,,,,,,,4135,63.5703125,37.12109375,1,0,0,response1disk,,6,1.140625,5.7109375,1,0,0,rectangle,1.140625,5.7109375,1,0,0,1.140625,5.7109375,1,0,0,1,46,206,120,1,,,,,,,,
,,,,,,,,,,,,,FF,,,,,,,,1.2007,,,,,,,,,,,,,,,,,,,,,,60fd9253ff686bfc8372a42e,610366bfe360822e03470ad6,2021-07-29_22h42.11.718,Simcolourproject_2stim_asymm_v5,2020.2.10,MacIntel,60,61025ae37ef11b136ea224fe,,,,,,,,,383,47.18359375,87.41796875,1,0,0,response1disk,,7,5.23046875,11.82421875,1,0,0,rectangle,5.23046875,11.82421875,1,0,0,5.23046875,11.82421875,1,0,0,1,47,207,129,1,,,,,,,,
,,,,,,,,,,,,,FF,,,,,,,,0.7671,,,,,,,,,,,,,,,,,,,,,,60fd9253ff686bfc8372a42e,610366bfe360822e03470ad6,2021-07-29_22h42.11.718,Simcolourproject_2stim_asymm_v5,2020.2.10,MacIntel,60,61025ae37ef11b136ea224fe,,,,,,,,,2366,-38.55859375,-68.3359375,1,0,0,response5disk,,3,1.92578125,6.515625,1,0,0,rectangle,1.92578125,6.515625,1,0,0,1.92578125,6.515625,1,0,0,1,48,208,29,1,,,,,,,,
,,,,,,,,,,,,,FF,,,,,,,,0.6839,,,,,,,,,,,,,,,,,,,,,,60fd9253ff686bfc8372a42e,610366bfe360822e03470ad6,2021-07-29_22h42.11.718,Simcolourproject_2stim_asymm_v5,2020.2.10,MacIntel,60,61025ae37ef11b136ea224fe,,,,,,,,,4064,81.4140625,41.16015625,1,0,0,response1disk,,6,4.44921875,2.28515625,1,0,0,rectangle,4.44921875,2.28515625,1,0,0,4.44921875,2.28515625,1,0,0,1,49,209,68,1,,,,,,,,
,,,,,,,,,,,,,FF,,,,,,,,1.7182,,,,,,,,,,,,,,,,,,,,,,60fd9253ff686bfc8372a42e,610366bfe360822e03470ad6,2021-07-29_22h42.11.718,Simcolourproject_2stim_asymm_v5,2020.2.10,MacIntel,60,61025ae37ef11b136ea224fe,,,,,,,,,1190,47.1171875,86.95703125,1,0,0,response1disk,,7,4.3828125,4.37109375,1,0,0,rectangle,-84.24609375,43.53515625,1,0,0,-2.28125,2.25,1,0,0,1,50,210,135,1,,response7disk_3,TRUE,1,1,"[321,174,54,228,111,256,289,45,12,231,199,60,211,323,279,41,7,43,139,236]",2.0496,rectangle
,,,,,,,,,,,,,FF,,,,,,,,1.8989,,,,,,,,,,,,,,,,,,,,,,60fd9253ff686bfc8372a42e,610366bfe360822e03470ad6,2021-07-29_22h42.11.718,Simcolourproject_2stim_asymm_v5,2020.2.10,MacIntel,60,61025ae37ef11b136ea224fe,,,,,,,,,2906,86.5859375,57.12109375,1,0,0,response1disk,,6,3.0625,16.33203125,1,0,0,rectangle,3.0625,16.33203125,1,0,0,3.0625,16.33203125,1,0,0,1,51,211,13,1,,,,,,,,
,,,,,,,,,,,,,FF,,,,,,,,0.9849,,,,,,,,,,,,,,,,,,,,,,60fd9253ff686bfc8372a42e,610366bfe360822e03470ad6,2021-07-29_22h42.11.718,Simcolourproject_2stim_asymm_v5,2020.2.10,MacIntel,60,61025ae37ef11b136ea224fe,,,,,,,,,3335,80.7109375,41.0390625,1,0,0,response1disk,,6,-3.5234375,-5.31640625,1,0,0,rectangle,-3.5234375,-5.31640625,1,0,0,-3.5234375,-5.31640625,1,0,0,1,52,212,152,1,,,,,,,,
,,,,,,,,,,,,,FF,,,,,,,,1.5162,,,,,,,,,,,,,,,,,,,,,,60fd9253ff686bfc8372a42e,610366bfe360822e03470ad6,2021-07-29_22h42.11.718,Simcolourproject_2stim_asymm_v5,2020.2.10,MacIntel,60,61025ae37ef11b136ea224fe,,,,,,,,,2493,31.33203125,62.76171875,1,0,0,response1disk,,7,25.203125,4.51953125,1,0,0,rectangle,25.203125,4.51953125,1,0,0,25.203125,4.51953125,1,0,0,1,53,213,132,1,,,,,,,,
,,,,,,,,,,,,,FF,,,,,,,,1.8508,,,,,,,,,,,,,,,,,,,,,,60fd9253ff686bfc8372a42e,610366bfe360822e03470ad6,2021-07-29_22h42.11.718,Simcolourproject_2stim_asymm_v5,2020.2.10,MacIntel,60,61025ae37ef11b136ea224fe,,,,,,,,,4156,29.734375,72.40234375,1,0,0,response1disk,,7,8.109375,-1.296875,1,0,0,rectangle,8.109375,-1.296875,1,0,0,8.109375,-1.296875,1,0,0,1,54,214,139,1,,,,,,,,
,,,,,,,,,,,,,FF,,,,,,,,1.0998,,,,,,,,,,,,,,,,,,,,,,60fd9253ff686bfc8372a42e,610366bfe360822e03470ad6,2021-07-29_22h42.11.718,Simcolourproject_2stim_asymm_v5,2020.2.10,MacIntel,60,61025ae37ef11b136ea224fe,,,,,,,,,1325,77.94921875,44.30078125,1,0,0,response1disk,,6,5.7578125,-3.7578125,1,0,0,rectangle,5.7578125,-3.7578125,1,0,0,5.7578125,-3.7578125,1,0,0,1,55,215,56,1,,,,,,,,
,,,,,,,,,,,,,FF,,,,,,,,0.6844,,,,,,,,,,,,,,,,,,,,,,60fd9253ff686bfc8372a42e,610366bfe360822e03470ad6,2021-07-29_22h42.11.718,Simcolourproject_2stim_asymm_v5,2020.2.10,MacIntel,60,61025ae37ef11b136ea224fe,,,,,,,,,4306,-45.28515625,-76.10546875,1,0,0,response5disk,,3,12.23046875,11.6640625,1,0,0,rectangle,12.23046875,11.6640625,1,0,0,12.23046875,11.6640625,1,0,0,1,56,216,125,1,,,,,,,,
,,,,,,,,,,,,,FF,,,,,,,,0.7156,,,,,,,,,,,,,,,,,,,,,,60fd9253ff686bfc8372a42e,610366bfe360822e03470ad6,2021-07-29_22h42.11.718,Simcolourproject_2stim_asymm_v5,2020.2.10,MacIntel,60,61025ae37ef11b136ea224fe,,,,,,,,,718,-65.96484375,-38.3984375,1,0,0,response5disk,,2,-3.93359375,-3.4140625,1,0,0,rectangle,-3.93359375,-3.4140625,1,0,0,-3.93359375,-3.4140625,1,0,0,1,57,217,157,1,,,,,,,,
,,,,,,,,,,,,,FF,,,,,,,,1.001,,,,,,,,,,,,,,,,,,,,,,60fd9253ff686bfc8372a42e,610366bfe360822e03470ad6,2021-07-29_22h42.11.718,Simcolourproject_2stim_asymm_v5,2020.2.10,MacIntel,60,61025ae37ef11b136ea224fe,,,,,,,,,3140,-47.7578125,-86.53515625,1,0,0,response5disk,,3,-8.484375,-8.359375,1,0,0,rectangle,-8.484375,-8.359375,1,0,0,-8.484375,-8.359375,1,0,0,1,58,218,66,1,,,,,,,,
,,,,,,,,,,,,,FF,,,,,,,,0.8663,,,,,,,,,,,,,,,,,,,,,,60fd9253ff686bfc8372a42e,610366bfe360822e03470ad6,2021-07-29_22h42.11.718,Simcolourproject_2stim_asymm_v5,2020.2.10,MacIntel,60,61025ae37ef11b136ea224fe,,,,,,,,,111,101.7109375,-42.08984375,1,0,0,response3disk,,5,2.07421875,4.22265625,1,0,0,rectangle,2.07421875,4.22265625,1,0,0,2.07421875,4.22265625,1,0,0,1,59,219,19,1,,,,,,,,
,,,,,,,,,,,,,FF,,,,,,,,1.168,,,,,,,,,,,,,,,,,,,,,,60fd9253ff686bfc8372a42e,610366bfe360822e03470ad6,2021-07-29_22h42.11.718,Simcolourproject_2stim_asymm_v5,2020.2.10,MacIntel,60,61025ae37ef11b136ea224fe,,,,,,,,,691,80.578125,35.76953125,1,0,0,response1disk,,6,8.41015625,-8.8515625,1,0,0,rectangle,8.41015625,-8.8515625,1,0,0,8.41015625,-8.8515625,1,0,0,1,60,220,83,1,,,,,,,,
,,,,,,,,,,,,,FF,,,,,,,,1.3829,,,,,,,,,,,,,,,,,,,,,,60fd9253ff686bfc8372a42e,610366bfe360822e03470ad6,2021-07-29_22h42.11.718,Simcolourproject_2stim_asymm_v5,2020.2.10,MacIntel,60,61025ae37ef11b136ea224fe,,,,,,,,,3752,33.08984375,-74.8125,1,0,0,response3disk,,4,14.578125,0.5390625,1,0,0,rectangle,14.578125,0.5390625,1,0,0,14.578125,0.5390625,1,0,0,1,61,221,78,1,,,,,,,,
,,,,,,,,,,,,,FF,,,,,,,,0.9827,,,,,,,,,,,,,,,,,,,,,,60fd9253ff686bfc8372a42e,610366bfe360822e03470ad6,2021-07-29_22h42.11.718,Simcolourproject_2stim_asymm_v5,2020.2.10,MacIntel,60,61025ae37ef11b136ea224fe,,,,,,,,,4090,73.1015625,-39.05859375,1,0,0,response3disk,,5,5.3046875,0.71484375,1,0,0,rectangle,5.3046875,0.71484375,1,0,0,5.3046875,0.71484375,1,0,0,1,62,222,53,1,,,,,,,,
,,,,,,,,,,,,,FF,,,,,,,,1.5189,,,,,,,,,,,,,,,,,,,,,,60fd9253ff686bfc8372a42e,610366bfe360822e03470ad6,2021-07-29_22h42.11.718,Simcolourproject_2stim_asymm_v5,2020.2.10,MacIntel,60,61025ae37ef11b136ea224fe,,,,,,,,,2701,71.3203125,49.16015625,1,0,0,response1disk,,6,18.78125,6.18359375,1,0,0,rectangle,18.78125,6.18359375,1,0,0,18.78125,6.18359375,1,0,0,1,63,223,145,1,,,,,,,,
,,,,,,,,,,,,,FF,,,,,,,,1.4197,,,,,,,,,,,,,,,,,,,,,,60fd9253ff686bfc8372a42e,610366bfe360822e03470ad6,2021-07-29_22h42.11.718,Simcolourproject_2stim_asymm_v5,2020.2.10,MacIntel,60,61025ae37ef11b136ea224fe,,,,,,,,,2132,44.7890625,77.43359375,1,0,0,response1disk,,7,10.68359375,-0.59765625,1,0,0,rectangle,10.68359375,-0.59765625,1,0,0,10.68359375,-0.59765625,1,0,0,1,64,224,24,1,,,,,,,,
,,,,,,,,,,,,,FF,,,,,,,,2.4501,,,,,,,,,,,,,,,,,,,,,,60fd9253ff686bfc8372a42e,610366bfe360822e03470ad6,2021-07-29_22h42.11.718,Simcolourproject_2stim_asymm_v5,2020.2.10,MacIntel,60,61025ae37ef11b136ea224fe,,,,,,,,,1218,-88.4375,-40.37890625,1,0,0,response5disk,,2,11.85546875,0.6015625,1,0,0,rectangle,11.85546875,0.6015625,1,0,0,11.85546875,0.6015625,1,0,0,1,65,225,67,1,,,,,,,,
,,,,,,,,,,,,,FF,,,,,,,,1.4325,,,,,,,,,,,,,,,,,,,,,,60fd9253ff686bfc8372a42e,610366bfe360822e03470ad6,2021-07-29_22h42.11.718,Simcolourproject_2stim_asymm_v5,2020.2.10,MacIntel,60,61025ae37ef11b136ea224fe,,,,,,,,,3823,38.69921875,73.47265625,1,0,0,response1disk,,7,15.16796875,9.37890625,1,0,0,rectangle,15.16796875,9.37890625,1,0,0,15.16796875,9.37890625,1,0,0,1,66,226,71,1,,,,,,,,
,,,,,,,,,,,,,FF,,,,,,,,1.4671,,,,,,,,,,,,,,,,,,,,,,60fd9253ff686bfc8372a42e,610366bfe360822e03470ad6,2021-07-29_22h42.11.718,Simcolourproject_2stim_asymm_v5,2020.2.10,MacIntel,60,61025ae37ef11b136ea224fe,,,,,,,,,2535,34.31640625,-84.515625,1,0,0,response3disk,,4,2.61328125,2.3203125,1,0,0,rectangle,57.25,-96.55859375,1,0,0,17.58984375,-0.21484375,1,0,0,1,67,227,98,1,,response3disk_3,TRUE,4,4,"[321,174,54,228,111,256,289,45,12,231,199,60,211,323,279,41,7,43,139,236]",1.3507,rectangle
,,,,,,,,,,,,,FF,,,,,,,,2.3983,,,,,,,,,,,,,,,,,,,,,,60fd9253ff686bfc8372a42e,610366bfe360822e03470ad6,2021-07-29_22h42.11.718,Simcolourproject_2stim_asymm_v5,2020.2.10,MacIntel,60,61025ae37ef11b136ea224fe,,,,,,,,,4335,-56.4375,-97.1015625,1,0,0,response5disk,,3,-11.85546875,3.42578125,1,0,0,rectangle,-11.85546875,3.42578125,1,0,0,-11.85546875,3.42578125,1,0,0,1,68,228,23,1,,,,,,,,
,,,,,,,,,,,,,FF,,,,,,,,0.8666,,,,,,,,,,,,,,,,,,,,,,60fd9253ff686bfc8372a42e,610366bfe360822e03470ad6,2021-07-29_22h42.11.718,Simcolourproject_2stim_asymm_v5,2020.2.10,MacIntel,60,61025ae37ef11b136ea224fe,,,,,,,,,1071,31.765625,-85.73828125,1,0,0,response3disk,,4,7.4453125,-2.125,1,0,0,rectangle,7.4453125,-2.125,1,0,0,7.4453125,-2.125,1,0,0,1,69,229,48,1,,,,,,,,
,,,,,,,,,,,,,FF,,,,,,,,0.8163,,,,,,,,,,,,,,,,,,,,,,60fd9253ff686bfc8372a42e,610366bfe360822e03470ad6,2021-07-29_22h42.11.718,Simcolourproject_2stim_asymm_v5,2020.2.10,MacIntel,60,61025ae37ef11b136ea224fe,,,,,,,,,3896,34.921875,-63.3046875,1,0,0,response3disk,,4,5.859375,7.84765625,1,0,0,rectangle,-39.9453125,89.85546875,1,0,0,-5.3671875,1.50390625,1,0,0,1,70,230,147,1,,response7disk_3,TRUE,0,0,"[321,174,54,228,111,256,289,45,12,231,199,60,211,323,279,41,7,43,139,236]",1.8837,rectangle
,,,,,,,,,,,,,FF,,,,,,,,1.3852,,,,,,,,,,,,,,,,,,,,,,60fd9253ff686bfc8372a42e,610366bfe360822e03470ad6,2021-07-29_22h42.11.718,Simcolourproject_2stim_asymm_v5,2020.2.10,MacIntel,60,61025ae37ef11b136ea224fe,,,,,,,,,3083,86.5859375,-40.7578125,1,0,0,response3disk,,5,8.94921875,2.5078125,1,0,0,rectangle,8.94921875,2.5078125,1,0,0,8.94921875,2.5078125,1,0,0,1,71,231,82,1,,,,,,,,
,,,,,,,,,,,,,FF,,,,,,,,0.7841,,,,,,,,,,,,,,,,,,,,,,60fd9253ff686bfc8372a42e,610366bfe360822e03470ad6,2021-07-29_22h42.11.718,Simcolourproject_2stim_asymm_v5,2020.2.10,MacIntel,60,61025ae37ef11b136ea224fe,,,,,,,,,2839,43.94140625,-82.5546875,1,0,0,response3disk,,4,11.84765625,2.046875,1,0,0,rectangle,11.84765625,2.046875,1,0,0,11.84765625,2.046875,1,0,0,1,72,232,28,1,,,,,,,,
,,,,,,,,,,,,,FF,,,,,,,,0.9172,,,,,,,,,,,,,,,,,,,,,,60fd9253ff686bfc8372a42e,610366bfe360822e03470ad6,2021-07-29_22h42.11.718,Simcolourproject_2stim_asymm_v5,2020.2.10,MacIntel,60,61025ae37ef11b136ea224fe,,,,,,,,,2412,35,-81.26171875,1,0,0,response3disk,,4,-11.99609375,15.5859375,1,0,0,rectangle,-11.99609375,15.5859375,1,0,0,-11.99609375,15.5859375,1,0,0,1,73,233,124,1,,,,,,,,
,,,,,,,,,,,,,FF,,,,,,,,0.6156,,,,,,,,,,,,,,,,,,,,,,60fd9253ff686bfc8372a42e,610366bfe360822e03470ad6,2021-07-29_22h42.11.718,Simcolourproject_2stim_asymm_v5,2020.2.10,MacIntel,60,61025ae37ef11b136ea224fe,,,,,,,,,1762,59.39453125,-98.8203125,1,0,0,response3disk,,4,3.59375,-0.21484375,1,0,0,rectangle,3.59375,-0.21484375,1,0,0,3.59375,-0.21484375,1,0,0,1,74,234,97,1,,,,,,,,
,,,,,,,,,,,,,FF,,,,,,,,0.6667,,,,,,,,,,,,,,,,,,,,,,60fd9253ff686bfc8372a42e,610366bfe360822e03470ad6,2021-07-29_22h42.11.718,Simcolourproject_2stim_asymm_v5,2020.2.10,MacIntel,60,61025ae37ef11b136ea224fe,,,,,,,,,2295,-60.25,-80.0546875,1,0,0,response5disk,,3,-7.23828125,-7.31640625,1,0,0,rectangle,-34.828125,76.234375,1,0,0,-5.0234375,0.96484375,1,0,0,1,75,235,96,1,,response7disk_3,TRUE,0,0,"[321,174,54,228,111,256,289,45,12,231,199,60,211,323,279,41,7,43,139,236]",1.7986,rectangle
,,,,,,,,,,,,,FF,,,,,,,,0.8669,,,,,,,,,,,,,,,,,,,,,,60fd9253ff686bfc8372a42e,610366bfe360822e03470ad6,2021-07-29_22h42.11.718,Simcolourproject_2stim_asymm_v5,2020.2.10,MacIntel,60,61025ae37ef11b136ea224fe,,,,,,,,,662,88.9296875,-52.70703125,1,0,0,response3disk,,5,14.18359375,-2.10546875,1,0,0,rectangle,14.18359375,-2.10546875,1,0,0,14.18359375,-2.10546875,1,0,0,1,76,236,64,1,,,,,,,,
,,,,,,,,,,,,,FF,,,,,,,,0.7824,,,,,,,,,,,,,,,,,,,,,,60fd9253ff686bfc8372a42e,610366bfe360822e03470ad6,2021-07-29_22h42.11.718,Simcolourproject_2stim_asymm_v5,2020.2.10,MacIntel,60,61025ae37ef11b136ea224fe,,,,,,,,,345,-41.76953125,-86.5859375,1,0,0,response5disk,,3,-5.12109375,4.6328125,1,0,0,rectangle,-5.12109375,4.6328125,1,0,0,-5.12109375,4.6328125,1,0,0,1,77,237,15,1,,,,,,,,
,,,,,,,,,,,,,FF,,,,,,,,0.7839,,,,,,,,,,,,,,,,,,,,,,60fd9253ff686bfc8372a42e,610366bfe360822e03470ad6,2021-07-29_22h42.11.718,Simcolourproject_2stim_asymm_v5,2020.2.10,MacIntel,60,61025ae37ef11b136ea224fe,,,,,,,,,2112,-39.19140625,-83.07421875,1,0,0,response5disk,,3,3.46484375,4.96875,1,0,0,rectangle,3.46484375,4.96875,1,0,0,3.46484375,4.96875,1,0,0,1,78,238,90,1,,,,,,,,
,,,,,,,,,,,,,FF,,,,,,,,1.2331,,,,,,,,,,,,,,,,,,,,,,60fd9253ff686bfc8372a42e,610366bfe360822e03470ad6,2021-07-29_22h42.11.718,Simcolourproject_2stim_asymm_v5,2020.2.10,MacIntel,60,61025ae37ef11b136ea224fe,,,,,,,,,241,84.453125,44.65234375,1,0,0,response1disk,,6,12.81640625,-5.53125,1,0,0,rectangle,12.81640625,-5.53125,1,0,0,12.81640625,-5.53125,1,0,0,1,79,239,138,1,,,,,,,,
,,,,,,,,,,,,,FF,,,,,,,,0.699,,,,,,,,,,,,,,,,,,,,,,60fd9253ff686bfc8372a42e,610366bfe360822e03470ad6,2021-07-29_22h42.11.718,Simcolourproject_2stim_asymm_v5,2020.2.10,MacIntel,60,61025ae37ef11b136ea224fe,,,,,,,,,904,89.59765625,58.5859375,1,0,0,response1disk,,6,6.828125,-5.3671875,1,0,0,rectangle,6.828125,-5.3671875,1,0,0,6.828125,-5.3671875,1,0,0,1,80,240,72,1,,,,,,,,
,,,,,,,,,,,,,FF,,,,,,,,1.0349,,,,,,,,,,,,,,,,,,,,,,60fd9253ff686bfc8372a42e,610366bfe360822e03470ad6,2021-07-29_22h42.11.718,Simcolourproject_2stim_asymm_v5,2020.2.10,MacIntel,60,61025ae37ef11b136ea224fe,,,,,,,,,3240,-81.83203125,-40.0546875,1,0,0,response5disk,,2,7.58984375,-1.53515625,1,0,0,rectangle,7.58984375,-1.53515625,1,0,0,7.58984375,-1.53515625,1,0,0,1,81,241,100,1,,,,,,,,
,,,,,,,,,,,,,FF,,,,,,,,1.152,,,,,,,,,,,,,,,,,,,,,,60fd9253ff686bfc8372a42e,610366bfe360822e03470ad6,2021-07-29_22h42.11.718,Simcolourproject_2stim_asymm_v5,2020.2.10,MacIntel,60,61025ae37ef11b136ea224fe,,,,,,,,,1174,81.02734375,-55.765625,1,0,0,response3disk,,5,11.390625,6.82421875,1,0,0,rectangle,11.390625,6.82421875,1,0,0,11.390625,6.82421875,1,0,0,1,82,242,31,1,,,,,,,,
,,,,,,,,,,,,,FF,,,,,,,,0.9828,,,,,,,,,,,,,,,,,,,,,,60fd9253ff686bfc8372a42e,610366bfe360822e03470ad6,2021-07-29_22h42.11.718,Simcolourproject_2stim_asymm_v5,2020.2.10,MacIntel,60,61025ae37ef11b136ea224fe,,,,,,,,,3809,68.015625,50.09375,1,0,0,response1disk,,6,1.49609375,-12.2421875,1,0,0,rectangle,1.49609375,-12.2421875,1,0,0,1.49609375,-12.2421875,1,0,0,1,83,243,80,1,,,,,,,,
,,,,,,,,,,,,,FF,,,,,,,,1.999,,,,,,,,,,,,,,,,,,,,,,60fd9253ff686bfc8372a42e,610366bfe360822e03470ad6,2021-07-29_22h42.11.718,Simcolourproject_2stim_asymm_v5,2020.2.10,MacIntel,60,61025ae37ef11b136ea224fe,,,,,,,,,1787,85.33984375,49.24609375,1,0,0,response1disk,,6,19.921875,5.21875,1,0,0,rectangle,19.921875,5.21875,1,0,0,19.921875,5.21875,1,0,0,1,84,244,44,1,,,,,,,,
,,,,,,,,,,,,,FF,,,,,,,,1.5831,,,,,,,,,,,,,,,,,,,,,,60fd9253ff686bfc8372a42e,610366bfe360822e03470ad6,2021-07-29_22h42.11.718,Simcolourproject_2stim_asymm_v5,2020.2.10,MacIntel,60,61025ae37ef11b136ea224fe,,,,,,,,,2835,-45.23046875,-81.10546875,1,0,0,response5disk,,3,0.94140625,13.44140625,1,0,0,rectangle,0.94140625,13.44140625,1,0,0,0.94140625,13.44140625,1,0,0,1,85,245,69,1,,,,,,,,
,,,,,,,,,,,,,FF,,,,,,,,0.983,,,,,,,,,,,,,,,,,,,,,,60fd9253ff686bfc8372a42e,610366bfe360822e03470ad6,2021-07-29_22h42.11.718,Simcolourproject_2stim_asymm_v5,2020.2.10,MacIntel,60,61025ae37ef11b136ea224fe,,,,,,,,,2818,85.7890625,57,1,0,0,response1disk,,6,9.59375,-0.921875,1,0,0,rectangle,9.59375,-0.921875,1,0,0,9.59375,-0.921875,1,0,0,1,86,246,123,1,,,,,,,,
,,,,,,,,,,,,,FF,,,,,,,,0.8491,,,,,,,,,,,,,,,,,,,,,,60fd9253ff686bfc8372a42e,610366bfe360822e03470ad6,2021-07-29_22h42.11.718,Simcolourproject_2stim_asymm_v5,2020.2.10,MacIntel,60,61025ae37ef11b136ea224fe,,,,,,,,,744,44.54296875,77.6640625,1,0,0,response1disk,,7,5.09375,0.69921875,1,0,0,rectangle,5.09375,0.69921875,1,0,0,5.09375,0.69921875,1,0,0,1,87,247,118,1,,,,,,,,
,,,,,,,,,,,,,FF,,,,,,,,1.3171,,,,,,,,,,,,,,,,,,,,,,60fd9253ff686bfc8372a42e,610366bfe360822e03470ad6,2021-07-29_22h42.11.718,Simcolourproject_2stim_asymm_v5,2020.2.10,MacIntel,60,61025ae37ef11b136ea224fe,,,,,,,,,2368,36.1015625,-77.37890625,1,0,0,response3disk,,4,13.67578125,-3.8203125,1,0,0,rectangle,13.67578125,-3.8203125,1,0,0,13.67578125,-3.8203125,1,0,0,1,88,248,59,1,,,,,,,,
,,,,,,,,,,,,,FF,,,,,,,,0.8335,,,,,,,,,,,,,,,,,,,,,,60fd9253ff686bfc8372a42e,610366bfe360822e03470ad6,2021-07-29_22h42.11.718,Simcolourproject_2stim_asymm_v5,2020.2.10,MacIntel,60,61025ae37ef11b136ea224fe,,,,,,,,,3899,-33.80078125,-69.6484375,1,0,0,response5disk,,3,-1.0703125,0.22265625,1,0,0,rectangle,-1.0703125,0.22265625,1,0,0,-1.0703125,0.22265625,1,0,0,1,89,249,61,1,,,,,,,,
