key_resp.keys,key_resp.rt,key_resp_14.keys,key_resp_14.rt,key_resp_15.keys,key_resp_15.rt,key_resp_17.keys,key_resp_17.rt,key_resp_9.keys,key_resp_9.rt,key_resp_10.keys,key_resp_10.rt,practice_comparison,Ecc,mouse_5.x,mouse_5.y,mouse_5.leftButton,mouse_5.midButton,mouse_5.rightButton,mouse_5.clicked_name,pracsimilarity,response_time,mouse_10.x,mouse_10.y,mouse_10.leftButton,mouse_10.midButton,mouse_10.rightButton,mouse_10.clicked_name,mouse_7.x,mouse_7.y,mouse_7.leftButton,mouse_7.midButton,mouse_7.rightButton,mouse_6.x,mouse_6.y,mouse_6.leftButton,mouse_6.midButton,mouse_6.rightButton,duringprac.thisRepN,duringprac.thisTrialN,duringprac.thisN,duringprac.thisIndex,duringprac.ran,participant,session,date,expName,psychopyVersion,OS,frameRate,study_id,mouse_7.clicked_name,catchpracsimilarity,catch_response_time,catchnumberprac,catchtrialorderprac,mouse_6.clicked_name,key_resp_22.keys,key_resp_22.rt,realcomparison,mouse.x,mouse.y,mouse.leftButton,mouse.midButton,mouse.rightButton,mouse.clicked_name,Colour2,similarity,mouse_2.x,mouse_2.y,mouse_2.leftButton,mouse_2.midButton,mouse_2.rightButton,mouse_2.clicked_name,mouse_3.x,mouse_3.y,mouse_3.leftButton,mouse_3.midButton,mouse_3.rightButton,mouse_11.x,mouse_11.y,mouse_11.leftButton,mouse_11.midButton,mouse_11.rightButton,trials_2.thisRepN,trials_2.thisTrialN,trials_2.thisN,trials_2.thisIndex,trials_2.ran,Colour1,mouse_3.clicked_name,catchornah,catchsimilarity,catchnumber,catchtrialorder,catchRT,mouse_11.clicked_name
space,2.4005,space,36.9573,space,34.6346,space,19.0729,space,15.4903,space,5.4888,57,PF,-92,33,1,0,0,response7disk_5,1,1.8823,-19,6,1,0,0,rectangle_8,-19,6,1,0,0,-19,6,1,0,0,0,0,0,6,1,60fda145558ce7763d95441e,610377bc03bf8ae497a56e42,2021-07-30_12h01.56.683,Simcolourproject_2stim_asymm_v5,2020.2.10,Win32,60,61025ae37ef11b136ea224fe,,,,,,,,,,,,,,,,,,,,,,,,,,,,,,,,,,,,,,,,,,,,,,
,,,,,,,,,,,,51,PF,-90,-51,1,0,0,response5disk_5,2,5.9402,-4,12,1,0,0,rectangle_8,-44,-97,1,0,0,-3,1,1,0,0,0,1,1,2,1,60fda145558ce7763d95441e,610377bc03bf8ae497a56e42,2021-07-30_12h01.56.683,Simcolourproject_2stim_asymm_v5,2020.2.10,Win32,60,61025ae37ef11b136ea224fe,response5disk_7,3,10.0589,3,"[2,5]",rectangle_4,,,,,,,,,,,,,,,,,,,,,,,,,,,,,,,,,,,,,,,,
,,,,,,,,,,,,124,FF,52,91,1,0,0,response1disk_5,7,5.6488,-3,6,1,0,0,rectangle_8,-3,6,1,0,0,-3,6,1,0,0,0,2,2,3,1,60fda145558ce7763d95441e,610377bc03bf8ae497a56e42,2021-07-30_12h01.56.683,Simcolourproject_2stim_asymm_v5,2020.2.10,Win32,60,61025ae37ef11b136ea224fe,,,,,,,,,,,,,,,,,,,,,,,,,,,,,,,,,,,,,,,,,,,,,,
,,,,,,,,,,,,146,PF,-104,-53,1,0,0,response5disk_5,2,4.0328,-8,0,1,0,0,rectangle_8,-8,0,1,0,0,-8,0,1,0,0,0,3,3,4,1,60fda145558ce7763d95441e,610377bc03bf8ae497a56e42,2021-07-30_12h01.56.683,Simcolourproject_2stim_asymm_v5,2020.2.10,Win32,60,61025ae37ef11b136ea224fe,,,,,,,,,,,,,,,,,,,,,,,,,,,,,,,,,,,,,,,,,,,,,,
,,,,,,,,,,,,155,PF,-40,86,1,0,0,response7disk_5,0,3.832,-6,-6,1,0,0,rectangle_8,-45,-101,1,0,0,-1,9,1,0,0,0,4,4,1,1,60fda145558ce7763d95441e,610377bc03bf8ae497a56e42,2021-07-30_12h01.56.683,Simcolourproject_2stim_asymm_v5,2020.2.10,Win32,60,61025ae37ef11b136ea224fe,response5disk_7,3,6.0409,3,"[2,5]",rectangle_4,,,,,,,,,,,,,,,,,,,,,,,,,,,,,,,,,,,,,,,,
,,,,,,,,,,,,82,FF,-62,47,1,0,0,response7disk_5,1,2.109,8,-5,1,0,0,rectangle_8,8,-5,1,0,0,8,-5,1,0,0,0,5,5,5,1,60fda145558ce7763d95441e,610377bc03bf8ae497a56e42,2021-07-30_12h01.56.683,Simcolourproject_2stim_asymm_v5,2020.2.10,Win32,60,61025ae37ef11b136ea224fe,,,,,,,,,,,,,,,,,,,,,,,,,,,,,,,,,,,,,,,,,,,,,,
,,,,,,,,,,,,43,FF,84,44,1,0,0,response1disk_5,6,1.4069,-5,4,1,0,0,rectangle_8,-5,4,1,0,0,-5,4,1,0,0,0,6,6,0,1,60fda145558ce7763d95441e,610377bc03bf8ae497a56e42,2021-07-30_12h01.56.683,Simcolourproject_2stim_asymm_v5,2020.2.10,Win32,60,61025ae37ef11b136ea224fe,,,,,,,,,,,,,,,,,,,,,,,,,,,,,,,,,,,,,,,,,,,,,,
,,,,,,,,,,,,,FF,,,,,,,,5.1213,,,,,,,,,,,,,,,,,,,,,,60fda145558ce7763d95441e,610377bc03bf8ae497a56e42,2021-07-30_12h01.56.683,Simcolourproject_2stim_asymm_v5,2020.2.10,Win32,60,61025ae37ef11b136ea224fe,,,,,,,space,3.3685,3072,-95,55,1,0,0,response7disk,,1,-19,4,1,0,0,rectangle,-19,4,1,0,0,-19,4,1,0,0,0,0,0,95,1,,,,,,,,
,,,,,,,,,,,,,FF,,,,,,,,1.4042,,,,,,,,,,,,,,,,,,,,,,60fda145558ce7763d95441e,610377bc03bf8ae497a56e42,2021-07-30_12h01.56.683,Simcolourproject_2stim_asymm_v5,2020.2.10,Win32,60,61025ae37ef11b136ea224fe,,,,,,,,,1845,89,41,1,0,0,response1disk,,6,2,-4,1,0,0,rectangle,41,-101,1,0,0,-3,-2,1,0,0,0,1,1,60,1,,response3disk_3,TRUE,4,4,"[2,69,74,42,135,147,285,209,160,75,20,242,75,97,315,283,39,178,277,315]",3.0638,rectangle
,,,,,,,,,,,,,FF,,,,,,,,1.6569,,,,,,,,,,,,,,,,,,,,,,60fda145558ce7763d95441e,610377bc03bf8ae497a56e42,2021-07-30_12h01.56.683,Simcolourproject_2stim_asymm_v5,2020.2.10,Win32,60,61025ae37ef11b136ea224fe,,,,,,,,,3601,53,-54,1,0,0,response3disk,,4,-4,-3,1,0,0,rectangle,-4,-3,1,0,0,-4,-3,1,0,0,0,2,2,29,1,,,,,,,,
,,,,,,,,,,,,,FF,,,,,,,,1.2213,,,,,,,,,,,,,,,,,,,,,,60fda145558ce7763d95441e,610377bc03bf8ae497a56e42,2021-07-30_12h01.56.683,Simcolourproject_2stim_asymm_v5,2020.2.10,Win32,60,61025ae37ef11b136ea224fe,,,,,,,,,1059,-78,31,1,0,0,response7disk,,1,6,2,1,0,0,rectangle,6,2,1,0,0,6,2,1,0,0,0,3,3,12,1,,,,,,,,
,,,,,,,,,,,,,FF,,,,,,,,1.2545,,,,,,,,,,,,,,,,,,,,,,60fda145558ce7763d95441e,610377bc03bf8ae497a56e42,2021-07-30_12h01.56.683,Simcolourproject_2stim_asymm_v5,2020.2.10,Win32,60,61025ae37ef11b136ea224fe,,,,,,,,,820,26,63,1,0,0,response1disk,,7,-2,4,1,0,0,rectangle,-2,4,1,0,0,-2,4,1,0,0,0,4,4,104,1,,,,,,,,
,,,,,,,,,,,,,FF,,,,,,,,1.8898,,,,,,,,,,,,,,,,,,,,,,60fda145558ce7763d95441e,610377bc03bf8ae497a56e42,2021-07-30_12h01.56.683,Simcolourproject_2stim_asymm_v5,2020.2.10,Win32,60,61025ae37ef11b136ea224fe,,,,,,,,,1973,-70,42,1,0,0,response7disk,,1,4,8,1,0,0,rectangle,4,8,1,0,0,4,8,1,0,0,0,5,5,132,1,,,,,,,,
,,,,,,,,,,,,,FF,,,,,,,,2.526,,,,,,,,,,,,,,,,,,,,,,60fda145558ce7763d95441e,610377bc03bf8ae497a56e42,2021-07-30_12h01.56.683,Simcolourproject_2stim_asymm_v5,2020.2.10,Win32,60,61025ae37ef11b136ea224fe,,,,,,,,,1723,-82,-42,1,0,0,response5disk,,2,1,1,1,0,0,rectangle,1,1,1,0,0,1,1,1,0,0,0,6,6,83,1,,,,,,,,
,,,,,,,,,,,,,FF,,,,,,,,1.1713,,,,,,,,,,,,,,,,,,,,,,60fda145558ce7763d95441e,610377bc03bf8ae497a56e42,2021-07-30_12h01.56.683,Simcolourproject_2stim_asymm_v5,2020.2.10,Win32,60,61025ae37ef11b136ea224fe,,,,,,,,,4191,-55,-26,1,0,0,response5disk,,2,-2,3,1,0,0,rectangle,-2,3,1,0,0,-2,3,1,0,0,0,7,7,34,1,,,,,,,,
,,,,,,,,,,,,,FF,,,,,,,,2.83,,,,,,,,,,,,,,,,,,,,,,60fda145558ce7763d95441e,610377bc03bf8ae497a56e42,2021-07-30_12h01.56.683,Simcolourproject_2stim_asymm_v5,2020.2.10,Win32,60,61025ae37ef11b136ea224fe,,,,,,,,,30,22,65,1,0,0,response1disk,,7,-2,5,1,0,0,rectangle,-2,5,1,0,0,-2,5,1,0,0,0,8,8,117,1,,,,,,,,
,,,,,,,,,,,,,FF,,,,,,,,1.5398,,,,,,,,,,,,,,,,,,,,,,60fda145558ce7763d95441e,610377bc03bf8ae497a56e42,2021-07-30_12h01.56.683,Simcolourproject_2stim_asymm_v5,2020.2.10,Win32,60,61025ae37ef11b136ea224fe,,,,,,,,,3610,-38,77,1,0,0,response7disk,,0,15,3,1,0,0,rectangle,15,3,1,0,0,15,3,1,0,0,0,9,9,120,1,,,,,,,,
,,,,,,,,,,,,,FF,,,,,,,,1.2041,,,,,,,,,,,,,,,,,,,,,,60fda145558ce7763d95441e,610377bc03bf8ae497a56e42,2021-07-30_12h01.56.683,Simcolourproject_2stim_asymm_v5,2020.2.10,Win32,60,61025ae37ef11b136ea224fe,,,,,,,,,764,62,-38,1,0,0,response3disk,,5,4,7,1,0,0,rectangle,4,7,1,0,0,4,7,1,0,0,0,10,10,101,1,,,,,,,,
,,,,,,,,,,,,,FF,,,,,,,,1.9404,,,,,,,,,,,,,,,,,,,,,,60fda145558ce7763d95441e,610377bc03bf8ae497a56e42,2021-07-30_12h01.56.683,Simcolourproject_2stim_asymm_v5,2020.2.10,Win32,60,61025ae37ef11b136ea224fe,,,,,,,,,756,-90,-39,1,0,0,response5disk,,2,6,-3,1,0,0,rectangle,6,-3,1,0,0,6,-3,1,0,0,0,11,11,130,1,,,,,,,,
,,,,,,,,,,,,,FF,,,,,,,,1.0878,,,,,,,,,,,,,,,,,,,,,,60fda145558ce7763d95441e,610377bc03bf8ae497a56e42,2021-07-30_12h01.56.683,Simcolourproject_2stim_asymm_v5,2020.2.10,Win32,60,61025ae37ef11b136ea224fe,,,,,,,,,2674,34,-45,1,0,0,response3disk,,4,-5,12,1,0,0,rectangle,-5,12,1,0,0,-5,12,1,0,0,0,12,12,137,1,,,,,,,,
,,,,,,,,,,,,,FF,,,,,,,,1.0038,,,,,,,,,,,,,,,,,,,,,,60fda145558ce7763d95441e,610377bc03bf8ae497a56e42,2021-07-30_12h01.56.683,Simcolourproject_2stim_asymm_v5,2020.2.10,Win32,60,61025ae37ef11b136ea224fe,,,,,,,,,2698,-84,39,1,0,0,response7disk,,1,-15,0,1,0,0,rectangle,-15,0,1,0,0,-15,0,1,0,0,0,13,13,7,1,,,,,,,,
,,,,,,,,,,,,,FF,,,,,,,,0.9862,,,,,,,,,,,,,,,,,,,,,,60fda145558ce7763d95441e,610377bc03bf8ae497a56e42,2021-07-30_12h01.56.683,Simcolourproject_2stim_asymm_v5,2020.2.10,Win32,60,61025ae37ef11b136ea224fe,,,,,,,,,598,38,-59,1,0,0,response3disk,,4,6,-6,1,0,0,rectangle,6,-6,1,0,0,6,-6,1,0,0,0,14,14,106,1,,,,,,,,
,,,,,,,,,,,,,FF,,,,,,,,0.502,,,,,,,,,,,,,,,,,,,,,,60fda145558ce7763d95441e,610377bc03bf8ae497a56e42,2021-07-30_12h01.56.683,Simcolourproject_2stim_asymm_v5,2020.2.10,Win32,60,61025ae37ef11b136ea224fe,,,,,,,,,1958,33,-44,1,0,0,response3disk,,4,0,8,1,0,0,rectangle,0,8,1,0,0,0,8,1,0,0,0,15,15,145,1,,,,,,,,
,,,,,,,,,,,,,FF,,,,,,,,0.9373,,,,,,,,,,,,,,,,,,,,,,60fda145558ce7763d95441e,610377bc03bf8ae497a56e42,2021-07-30_12h01.56.683,Simcolourproject_2stim_asymm_v5,2020.2.10,Win32,60,61025ae37ef11b136ea224fe,,,,,,,,,3997,-39,35,1,0,0,response7disk,,1,1,7,1,0,0,rectangle,1,7,1,0,0,1,7,1,0,0,0,16,16,131,1,,,,,,,,
,,,,,,,,,,,,,FF,,,,,,,,1.0204,,,,,,,,,,,,,,,,,,,,,,60fda145558ce7763d95441e,610377bc03bf8ae497a56e42,2021-07-30_12h01.56.683,Simcolourproject_2stim_asymm_v5,2020.2.10,Win32,60,61025ae37ef11b136ea224fe,,,,,,,,,1474,54,71,1,0,0,response1disk,,7,4,0,1,0,0,rectangle,4,0,1,0,0,4,0,1,0,0,0,17,17,37,1,,,,,,,,
,,,,,,,,,,,,,FF,,,,,,,,0.7532,,,,,,,,,,,,,,,,,,,,,,60fda145558ce7763d95441e,610377bc03bf8ae497a56e42,2021-07-30_12h01.56.683,Simcolourproject_2stim_asymm_v5,2020.2.10,Win32,60,61025ae37ef11b136ea224fe,,,,,,,,,1358,40,-50,1,0,0,response3disk,,4,-13,-4,1,0,0,rectangle,-13,-4,1,0,0,-13,-4,1,0,0,0,18,18,24,1,,,,,,,,
,,,,,,,,,,,,,FF,,,,,,,,1.1563,,,,,,,,,,,,,,,,,,,,,,60fda145558ce7763d95441e,610377bc03bf8ae497a56e42,2021-07-30_12h01.56.683,Simcolourproject_2stim_asymm_v5,2020.2.10,Win32,60,61025ae37ef11b136ea224fe,,,,,,,,,3615,-73,-43,1,0,0,response5disk,,2,-21,-5,1,0,0,rectangle,80,-47,1,0,0,1,4,1,0,0,0,19,19,0,1,,response3disk_3,TRUE,5,5,"[2,69,74,42,135,147,285,209,160,75,20,242,75,97,315,283,39,178,277,315]",2.4937,rectangle
,,,,,,,,,,,,,FF,,,,,,,,1.0212,,,,,,,,,,,,,,,,,,,,,,60fda145558ce7763d95441e,610377bc03bf8ae497a56e42,2021-07-30_12h01.56.683,Simcolourproject_2stim_asymm_v5,2020.2.10,Win32,60,61025ae37ef11b136ea224fe,,,,,,,,,4073,61,-67,1,0,0,response3disk,,4,7,9,1,0,0,rectangle,7,9,1,0,0,7,9,1,0,0,0,20,20,66,1,,,,,,,,
,,,,,,,,,,,,,FF,,,,,,,,1.2388,,,,,,,,,,,,,,,,,,,,,,60fda145558ce7763d95441e,610377bc03bf8ae497a56e42,2021-07-30_12h01.56.683,Simcolourproject_2stim_asymm_v5,2020.2.10,Win32,60,61025ae37ef11b136ea224fe,,,,,,,,,453,-78,-38,1,0,0,response5disk,,2,20,12,1,0,0,rectangle,20,12,1,0,0,20,12,1,0,0,0,21,21,98,1,,,,,,,,
,,,,,,,,,,,,,FF,,,,,,,,1.7735,,,,,,,,,,,,,,,,,,,,,,60fda145558ce7763d95441e,610377bc03bf8ae497a56e42,2021-07-30_12h01.56.683,Simcolourproject_2stim_asymm_v5,2020.2.10,Win32,60,61025ae37ef11b136ea224fe,,,,,,,,,2501,33,81,1,0,0,response1disk,,7,17,7,1,0,0,rectangle,17,7,1,0,0,17,7,1,0,0,0,22,22,73,1,,,,,,,,
,,,,,,,,,,,,,FF,,,,,,,,0.9711,,,,,,,,,,,,,,,,,,,,,,60fda145558ce7763d95441e,610377bc03bf8ae497a56e42,2021-07-30_12h01.56.683,Simcolourproject_2stim_asymm_v5,2020.2.10,Win32,60,61025ae37ef11b136ea224fe,,,,,,,,,1784,-77,-40,1,0,0,response5disk,,2,-4,-3,1,0,0,rectangle,-4,-3,1,0,0,-4,-3,1,0,0,0,23,23,139,1,,,,,,,,
,,,,,,,,,,,,,FF,,,,,,,,0.7356,,,,,,,,,,,,,,,,,,,,,,60fda145558ce7763d95441e,610377bc03bf8ae497a56e42,2021-07-30_12h01.56.683,Simcolourproject_2stim_asymm_v5,2020.2.10,Win32,60,61025ae37ef11b136ea224fe,,,,,,,,,837,44,-69,1,0,0,response3disk,,4,13,4,1,0,0,rectangle,13,4,1,0,0,13,4,1,0,0,0,24,24,62,1,,,,,,,,
,,,,,,,,,,,,,FF,,,,,,,,0.9692,,,,,,,,,,,,,,,,,,,,,,60fda145558ce7763d95441e,610377bc03bf8ae497a56e42,2021-07-30_12h01.56.683,Simcolourproject_2stim_asymm_v5,2020.2.10,Win32,60,61025ae37ef11b136ea224fe,,,,,,,,,2128,67,-41,1,0,0,response3disk,,5,11,10,1,0,0,rectangle,11,10,1,0,0,11,10,1,0,0,0,25,25,96,1,,,,,,,,
,,,,,,,,,,,,,FF,,,,,,,,0.9871,,,,,,,,,,,,,,,,,,,,,,60fda145558ce7763d95441e,610377bc03bf8ae497a56e42,2021-07-30_12h01.56.683,Simcolourproject_2stim_asymm_v5,2020.2.10,Win32,60,61025ae37ef11b136ea224fe,,,,,,,,,3995,-103,24,1,0,0,response7disk,,1,16,-2,1,0,0,rectangle,16,-2,1,0,0,16,-2,1,0,0,0,26,26,41,1,,,,,,,,
,,,,,,,,,,,,,FF,,,,,,,,1.0386,,,,,,,,,,,,,,,,,,,,,,60fda145558ce7763d95441e,610377bc03bf8ae497a56e42,2021-07-30_12h01.56.683,Simcolourproject_2stim_asymm_v5,2020.2.10,Win32,60,61025ae37ef11b136ea224fe,,,,,,,,,1563,28,-74,1,0,0,response3disk,,4,-8,10,1,0,0,rectangle,-8,10,1,0,0,-8,10,1,0,0,0,27,27,103,1,,,,,,,,
,,,,,,,,,,,,,FF,,,,,,,,0.8527,,,,,,,,,,,,,,,,,,,,,,60fda145558ce7763d95441e,610377bc03bf8ae497a56e42,2021-07-30_12h01.56.683,Simcolourproject_2stim_asymm_v5,2020.2.10,Win32,60,61025ae37ef11b136ea224fe,,,,,,,,,3619,-50,-28,1,0,0,response5disk,,2,-17,3,1,0,0,rectangle,-17,3,1,0,0,-17,3,1,0,0,0,28,28,90,1,,,,,,,,
,,,,,,,,,,,,,FF,,,,,,,,1.6716,,,,,,,,,,,,,,,,,,,,,,60fda145558ce7763d95441e,610377bc03bf8ae497a56e42,2021-07-30_12h01.56.683,Simcolourproject_2stim_asymm_v5,2020.2.10,Win32,60,61025ae37ef11b136ea224fe,,,,,,,,,2608,63,106,1,0,0,response1disk,,7,-10,-3,1,0,0,rectangle,-10,-3,1,0,0,-10,-3,1,0,0,0,29,29,56,1,,,,,,,,
,,,,,,,,,,,,,FF,,,,,,,,1.2867,,,,,,,,,,,,,,,,,,,,,,60fda145558ce7763d95441e,610377bc03bf8ae497a56e42,2021-07-30_12h01.56.683,Simcolourproject_2stim_asymm_v5,2020.2.10,Win32,60,61025ae37ef11b136ea224fe,,,,,,,,,1957,32,-80,1,0,0,response3disk,,4,3,12,1,0,0,rectangle,3,12,1,0,0,3,12,1,0,0,0,30,30,3,1,,,,,,,,
,,,,,,,,,,,,,FF,,,,,,,,1.0372,,,,,,,,,,,,,,,,,,,,,,60fda145558ce7763d95441e,610377bc03bf8ae497a56e42,2021-07-30_12h01.56.683,Simcolourproject_2stim_asymm_v5,2020.2.10,Win32,60,61025ae37ef11b136ea224fe,,,,,,,,,3079,-80,-41,1,0,0,response5disk,,2,2,15,1,0,0,rectangle,2,15,1,0,0,2,15,1,0,0,0,31,31,127,1,,,,,,,,
,,,,,,,,,,,,,FF,,,,,,,,0.7851,,,,,,,,,,,,,,,,,,,,,,60fda145558ce7763d95441e,610377bc03bf8ae497a56e42,2021-07-30_12h01.56.683,Simcolourproject_2stim_asymm_v5,2020.2.10,Win32,60,61025ae37ef11b136ea224fe,,,,,,,,,971,43,-67,1,0,0,response3disk,,4,17,5,1,0,0,rectangle,17,5,1,0,0,17,5,1,0,0,0,32,32,144,1,,,,,,,,
,,,,,,,,,,,,,FF,,,,,,,,0.9541,,,,,,,,,,,,,,,,,,,,,,60fda145558ce7763d95441e,610377bc03bf8ae497a56e42,2021-07-30_12h01.56.683,Simcolourproject_2stim_asymm_v5,2020.2.10,Win32,60,61025ae37ef11b136ea224fe,,,,,,,,,1218,39,-78,1,0,0,response3disk,,4,-14,11,1,0,0,rectangle,-14,11,1,0,0,-14,11,1,0,0,0,33,33,93,1,,,,,,,,
,,,,,,,,,,,,,FF,,,,,,,,2.093,,,,,,,,,,,,,,,,,,,,,,60fda145558ce7763d95441e,610377bc03bf8ae497a56e42,2021-07-30_12h01.56.683,Simcolourproject_2stim_asymm_v5,2020.2.10,Win32,60,61025ae37ef11b136ea224fe,,,,,,,,,1251,-41,77,1,0,0,response7disk,,0,7,6,1,0,0,rectangle,7,6,1,0,0,7,6,1,0,0,0,34,34,97,1,,,,,,,,
,,,,,,,,,,,,,FF,,,,,,,,0.7849,,,,,,,,,,,,,,,,,,,,,,60fda145558ce7763d95441e,610377bc03bf8ae497a56e42,2021-07-30_12h01.56.683,Simcolourproject_2stim_asymm_v5,2020.2.10,Win32,60,61025ae37ef11b136ea224fe,,,,,,,,,233,-88,38,1,0,0,response7disk,,1,-1,-2,1,0,0,rectangle,-1,-2,1,0,0,-1,-2,1,0,0,0,35,35,115,1,,,,,,,,
,,,,,,,,,,,,,FF,,,,,,,,1.0042,,,,,,,,,,,,,,,,,,,,,,60fda145558ce7763d95441e,610377bc03bf8ae497a56e42,2021-07-30_12h01.56.683,Simcolourproject_2stim_asymm_v5,2020.2.10,Win32,60,61025ae37ef11b136ea224fe,,,,,,,,,2611,40,88,1,0,0,response1disk,,7,4,0,1,0,0,rectangle,4,0,1,0,0,4,0,1,0,0,0,36,36,20,1,,,,,,,,
,,,,,,,,,,,,,FF,,,,,,,,0.7529,,,,,,,,,,,,,,,,,,,,,,60fda145558ce7763d95441e,610377bc03bf8ae497a56e42,2021-07-30_12h01.56.683,Simcolourproject_2stim_asymm_v5,2020.2.10,Win32,60,61025ae37ef11b136ea224fe,,,,,,,,,1465,-57,-39,1,0,0,response5disk,,2,-6,6,1,0,0,rectangle,-6,6,1,0,0,-6,6,1,0,0,0,37,37,116,1,,,,,,,,
,,,,,,,,,,,,,FF,,,,,,,,0.6198,,,,,,,,,,,,,,,,,,,,,,60fda145558ce7763d95441e,610377bc03bf8ae497a56e42,2021-07-30_12h01.56.683,Simcolourproject_2stim_asymm_v5,2020.2.10,Win32,60,61025ae37ef11b136ea224fe,,,,,,,,,1946,19,-60,1,0,0,response3disk,,4,0,-3,1,0,0,rectangle,-90,31,1,0,0,-11,-5,1,0,0,0,38,38,91,1,,response7disk_3,TRUE,1,1,"[2,69,74,42,135,147,285,209,160,75,20,242,75,97,315,283,39,178,277,315]",4.4841,rectangle
,,,,,,,,,,,,,FF,,,,,,,,1.037,,,,,,,,,,,,,,,,,,,,,,60fda145558ce7763d95441e,610377bc03bf8ae497a56e42,2021-07-30_12h01.56.683,Simcolourproject_2stim_asymm_v5,2020.2.10,Win32,60,61025ae37ef11b136ea224fe,,,,,,,,,661,18,-89,1,0,0,response3disk,,4,26,5,1,0,0,rectangle,26,5,1,0,0,26,5,1,0,0,0,39,39,8,1,,,,,,,,
,,,,,,,,,,,,,FF,,,,,,,,0.9375,,,,,,,,,,,,,,,,,,,,,,60fda145558ce7763d95441e,610377bc03bf8ae497a56e42,2021-07-30_12h01.56.683,Simcolourproject_2stim_asymm_v5,2020.2.10,Win32,60,61025ae37ef11b136ea224fe,,,,,,,,,3522,-66,43,1,0,0,response7disk,,1,12,1,1,0,0,rectangle,12,1,1,0,0,12,1,1,0,0,0,40,40,47,1,,,,,,,,
,,,,,,,,,,,,,FF,,,,,,,,1.3872,,,,,,,,,,,,,,,,,,,,,,60fda145558ce7763d95441e,610377bc03bf8ae497a56e42,2021-07-30_12h01.56.683,Simcolourproject_2stim_asymm_v5,2020.2.10,Win32,60,61025ae37ef11b136ea224fe,,,,,,,,,1149,49,-87,1,0,0,response3disk,,4,16,4,1,0,0,rectangle,102,-45,1,0,0,-10,1,1,0,0,0,41,41,17,1,,response3disk_3,TRUE,5,5,"[2,69,74,42,135,147,285,209,160,75,20,242,75,97,315,283,39,178,277,315]",1.5728,rectangle
,,,,,,,,,,,,,FF,,,,,,,,1.5398,,,,,,,,,,,,,,,,,,,,,,60fda145558ce7763d95441e,610377bc03bf8ae497a56e42,2021-07-30_12h01.56.683,Simcolourproject_2stim_asymm_v5,2020.2.10,Win32,60,61025ae37ef11b136ea224fe,,,,,,,,,3706,46,-84,1,0,0,response3disk,,4,9,12,1,0,0,rectangle,9,12,1,0,0,9,12,1,0,0,0,42,42,44,1,,,,,,,,
,,,,,,,,,,,,,FF,,,,,,,,0.9709,,,,,,,,,,,,,,,,,,,,,,60fda145558ce7763d95441e,610377bc03bf8ae497a56e42,2021-07-30_12h01.56.683,Simcolourproject_2stim_asymm_v5,2020.2.10,Win32,60,61025ae37ef11b136ea224fe,,,,,,,,,117,-47,-41,1,0,0,response5disk,,2,3,-10,1,0,0,rectangle,3,-10,1,0,0,3,-10,1,0,0,0,43,43,2,1,,,,,,,,
,,,,,,,,,,,,,FF,,,,,,,,0.6013,,,,,,,,,,,,,,,,,,,,,,60fda145558ce7763d95441e,610377bc03bf8ae497a56e42,2021-07-30_12h01.56.683,Simcolourproject_2stim_asymm_v5,2020.2.10,Win32,60,61025ae37ef11b136ea224fe,,,,,,,,,1133,40,-65,1,0,0,response3disk,,4,8,2,1,0,0,rectangle,8,2,1,0,0,8,2,1,0,0,0,44,44,126,1,,,,,,,,
,,,,,,,,,,,,,FF,,,,,,,,0.6187,,,,,,,,,,,,,,,,,,,,,,60fda145558ce7763d95441e,610377bc03bf8ae497a56e42,2021-07-30_12h01.56.683,Simcolourproject_2stim_asymm_v5,2020.2.10,Win32,60,61025ae37ef11b136ea224fe,,,,,,,,,3211,-55,41,1,0,0,response7disk,,1,-6,3,1,0,0,rectangle,-6,3,1,0,0,-6,3,1,0,0,0,45,45,15,1,,,,,,,,
,,,,,,,,,,,,,FF,,,,,,,,1.0209,,,,,,,,,,,,,,,,,,,,,,60fda145558ce7763d95441e,610377bc03bf8ae497a56e42,2021-07-30_12h01.56.683,Simcolourproject_2stim_asymm_v5,2020.2.10,Win32,60,61025ae37ef11b136ea224fe,,,,,,,,,1049,34,75,1,0,0,response1disk,,7,-1,-10,1,0,0,rectangle,-1,-10,1,0,0,-1,-10,1,0,0,0,46,46,102,1,,,,,,,,
,,,,,,,,,,,,,FF,,,,,,,,0.6522,,,,,,,,,,,,,,,,,,,,,,60fda145558ce7763d95441e,610377bc03bf8ae497a56e42,2021-07-30_12h01.56.683,Simcolourproject_2stim_asymm_v5,2020.2.10,Win32,60,61025ae37ef11b136ea224fe,,,,,,,,,3053,31,-68,1,0,0,response3disk,,4,-13,5,1,0,0,rectangle,-13,5,1,0,0,-13,5,1,0,0,0,47,47,81,1,,,,,,,,
,,,,,,,,,,,,,FF,,,,,,,,0.602,,,,,,,,,,,,,,,,,,,,,,60fda145558ce7763d95441e,610377bc03bf8ae497a56e42,2021-07-30_12h01.56.683,Simcolourproject_2stim_asymm_v5,2020.2.10,Win32,60,61025ae37ef11b136ea224fe,,,,,,,,,2119,-76,39,1,0,0,response7disk,,1,-3,-1,1,0,0,rectangle,-3,-1,1,0,0,-3,-1,1,0,0,0,48,48,100,1,,,,,,,,
,,,,,,,,,,,,,FF,,,,,,,,0.5852,,,,,,,,,,,,,,,,,,,,,,60fda145558ce7763d95441e,610377bc03bf8ae497a56e42,2021-07-30_12h01.56.683,Simcolourproject_2stim_asymm_v5,2020.2.10,Win32,60,61025ae37ef11b136ea224fe,,,,,,,,,4143,43,-63,1,0,0,response3disk,,4,-3,9,1,0,0,rectangle,-3,9,1,0,0,-3,9,1,0,0,0,49,49,148,1,,,,,,,,
,,,,,,,,,,,,,FF,,,,,,,,0.8853,,,,,,,,,,,,,,,,,,,,,,60fda145558ce7763d95441e,610377bc03bf8ae497a56e42,2021-07-30_12h01.56.683,Simcolourproject_2stim_asymm_v5,2020.2.10,Win32,60,61025ae37ef11b136ea224fe,,,,,,,,,2831,-78,44,1,0,0,response7disk,,1,-13,10,1,0,0,rectangle,-13,10,1,0,0,-13,10,1,0,0,0,50,50,87,1,,,,,,,,
,,,,,,,,,,,,,FF,,,,,,,,0.8852,,,,,,,,,,,,,,,,,,,,,,60fda145558ce7763d95441e,610377bc03bf8ae497a56e42,2021-07-30_12h01.56.683,Simcolourproject_2stim_asymm_v5,2020.2.10,Win32,60,61025ae37ef11b136ea224fe,,,,,,,,,3375,35,77,1,0,0,response1disk,,7,0,10,1,0,0,rectangle,0,10,1,0,0,0,10,1,0,0,0,51,51,128,1,,,,,,,,
,,,,,,,,,,,,,FF,,,,,,,,0.6854,,,,,,,,,,,,,,,,,,,,,,60fda145558ce7763d95441e,610377bc03bf8ae497a56e42,2021-07-30_12h01.56.683,Simcolourproject_2stim_asymm_v5,2020.2.10,Win32,60,61025ae37ef11b136ea224fe,,,,,,,,,595,30,-58,1,0,0,response3disk,,4,-12,4,1,0,0,rectangle,-12,4,1,0,0,-12,4,1,0,0,0,52,52,31,1,,,,,,,,
,,,,,,,,,,,,,FF,,,,,,,,0.5353,,,,,,,,,,,,,,,,,,,,,,60fda145558ce7763d95441e,610377bc03bf8ae497a56e42,2021-07-30_12h01.56.683,Simcolourproject_2stim_asymm_v5,2020.2.10,Win32,60,61025ae37ef11b136ea224fe,,,,,,,,,2765,-80,45,1,0,0,response7disk,,1,-12,2,1,0,0,rectangle,-12,2,1,0,0,-12,2,1,0,0,0,53,53,55,1,,,,,,,,
,,,,,,,,,,,,,FF,,,,,,,,0.9199,,,,,,,,,,,,,,,,,,,,,,60fda145558ce7763d95441e,610377bc03bf8ae497a56e42,2021-07-30_12h01.56.683,Simcolourproject_2stim_asymm_v5,2020.2.10,Win32,60,61025ae37ef11b136ea224fe,,,,,,,,,4005,54,79,1,0,0,response1disk,,7,4,-1,1,0,0,rectangle,4,-1,1,0,0,4,-1,1,0,0,0,54,54,10,1,,,,,,,,
,,,,,,,,,,,,,FF,,,,,,,,0.6364,,,,,,,,,,,,,,,,,,,,,,60fda145558ce7763d95441e,610377bc03bf8ae497a56e42,2021-07-30_12h01.56.683,Simcolourproject_2stim_asymm_v5,2020.2.10,Win32,60,61025ae37ef11b136ea224fe,,,,,,,,,1915,29,-65,1,0,0,response3disk,,4,-11,-4,1,0,0,rectangle,-11,-4,1,0,0,-11,-4,1,0,0,0,55,55,11,1,,,,,,,,
,,,,,,,,,,,,,FF,,,,,,,,0.5689,,,,,,,,,,,,,,,,,,,,,,60fda145558ce7763d95441e,610377bc03bf8ae497a56e42,2021-07-30_12h01.56.683,Simcolourproject_2stim_asymm_v5,2020.2.10,Win32,60,61025ae37ef11b136ea224fe,,,,,,,,,2473,-90,31,1,0,0,response7disk,,1,-9,2,1,0,0,rectangle,-9,2,1,0,0,-9,2,1,0,0,0,56,56,121,1,,,,,,,,
,,,,,,,,,,,,,FF,,,,,,,,0.5851,,,,,,,,,,,,,,,,,,,,,,60fda145558ce7763d95441e,610377bc03bf8ae497a56e42,2021-07-30_12h01.56.683,Simcolourproject_2stim_asymm_v5,2020.2.10,Win32,60,61025ae37ef11b136ea224fe,,,,,,,,,3394,42,-71,1,0,0,response3disk,,4,-9,-2,1,0,0,rectangle,-9,-2,1,0,0,-9,-2,1,0,0,0,57,57,135,1,,,,,,,,
,,,,,,,,,,,,,FF,,,,,,,,0.7528,,,,,,,,,,,,,,,,,,,,,,60fda145558ce7763d95441e,610377bc03bf8ae497a56e42,2021-07-30_12h01.56.683,Simcolourproject_2stim_asymm_v5,2020.2.10,Win32,60,61025ae37ef11b136ea224fe,,,,,,,,,642,-85,42,1,0,0,response7disk,,1,-16,-2,1,0,0,rectangle,-16,-2,1,0,0,-16,-2,1,0,0,0,58,58,23,1,,,,,,,,
,,,,,,,,,,,,,FF,,,,,,,,0.6687,,,,,,,,,,,,,,,,,,,,,,60fda145558ce7763d95441e,610377bc03bf8ae497a56e42,2021-07-30_12h01.56.683,Simcolourproject_2stim_asymm_v5,2020.2.10,Win32,60,61025ae37ef11b136ea224fe,,,,,,,,,3197,47,-83,1,0,0,response3disk,,4,7,-3,1,0,0,rectangle,7,-3,1,0,0,7,-3,1,0,0,0,59,59,75,1,,,,,,,,
,,,,,,,,,,,,,FF,,,,,,,,0.7525,,,,,,,,,,,,,,,,,,,,,,60fda145558ce7763d95441e,610377bc03bf8ae497a56e42,2021-07-30_12h01.56.683,Simcolourproject_2stim_asymm_v5,2020.2.10,Win32,60,61025ae37ef11b136ea224fe,,,,,,,,,2299,40,92,1,0,0,response1disk,,7,4,-9,1,0,0,rectangle,4,-9,1,0,0,4,-9,1,0,0,0,60,60,92,1,,,,,,,,
,,,,,,,,,,,,,FF,,,,,,,,0.6864,,,,,,,,,,,,,,,,,,,,,,60fda145558ce7763d95441e,610377bc03bf8ae497a56e42,2021-07-30_12h01.56.683,Simcolourproject_2stim_asymm_v5,2020.2.10,Win32,60,61025ae37ef11b136ea224fe,,,,,,,,,3410,53,-63,1,0,0,response3disk,,4,1,7,1,0,0,rectangle,1,7,1,0,0,1,7,1,0,0,0,61,61,143,1,,,,,,,,
,,,,,,,,,,,,,FF,,,,,,,,0.9202,,,,,,,,,,,,,,,,,,,,,,60fda145558ce7763d95441e,610377bc03bf8ae497a56e42,2021-07-30_12h01.56.683,Simcolourproject_2stim_asymm_v5,2020.2.10,Win32,60,61025ae37ef11b136ea224fe,,,,,,,,,4000,-82,42,1,0,0,response7disk,,1,-22,4,1,0,0,rectangle,-22,4,1,0,0,-22,4,1,0,0,0,62,62,151,1,,,,,,,,
,,,,,,,,,,,,,FF,,,,,,,,0.9199,,,,,,,,,,,,,,,,,,,,,,60fda145558ce7763d95441e,610377bc03bf8ae497a56e42,2021-07-30_12h01.56.683,Simcolourproject_2stim_asymm_v5,2020.2.10,Win32,60,61025ae37ef11b136ea224fe,,,,,,,,,2892,-69,-55,1,0,0,response5disk,,2,9,2,1,0,0,rectangle,9,2,1,0,0,9,2,1,0,0,0,63,63,18,1,,,,,,,,
,,,,,,,,,,,,,FF,,,,,,,,0.6022,,,,,,,,,,,,,,,,,,,,,,60fda145558ce7763d95441e,610377bc03bf8ae497a56e42,2021-07-30_12h01.56.683,Simcolourproject_2stim_asymm_v5,2020.2.10,Win32,60,61025ae37ef11b136ea224fe,,,,,,,,,2702,43,-77,1,0,0,response3disk,,4,-2,1,1,0,0,rectangle,-2,1,1,0,0,-2,1,1,0,0,0,64,64,35,1,,,,,,,,
,,,,,,,,,,,,,FF,,,,,,,,0.8534,,,,,,,,,,,,,,,,,,,,,,60fda145558ce7763d95441e,610377bc03bf8ae497a56e42,2021-07-30_12h01.56.683,Simcolourproject_2stim_asymm_v5,2020.2.10,Win32,60,61025ae37ef11b136ea224fe,,,,,,,,,315,38,81,1,0,0,response1disk,,7,10,11,1,0,0,rectangle,10,11,1,0,0,10,11,1,0,0,0,65,65,88,1,,,,,,,,
,,,,,,,,,,,,,FF,,,,,,,,0.6192,,,,,,,,,,,,,,,,,,,,,,60fda145558ce7763d95441e,610377bc03bf8ae497a56e42,2021-07-30_12h01.56.683,Simcolourproject_2stim_asymm_v5,2020.2.10,Win32,60,61025ae37ef11b136ea224fe,,,,,,,,,1446,48,-96,1,0,0,response3disk,,4,-9,3,1,0,0,rectangle,-9,3,1,0,0,-9,3,1,0,0,0,66,66,109,1,,,,,,,,
,,,,,,,,,,,,,FF,,,,,,,,0.5175,,,,,,,,,,,,,,,,,,,,,,60fda145558ce7763d95441e,610377bc03bf8ae497a56e42,2021-07-30_12h01.56.683,Simcolourproject_2stim_asymm_v5,2020.2.10,Win32,60,61025ae37ef11b136ea224fe,,,,,,,,,1176,-48,-39,1,0,0,response5disk,,2,23,6,1,0,0,rectangle,23,6,1,0,0,23,6,1,0,0,0,67,67,53,1,,,,,,,,
,,,,,,,,,,,,,FF,,,,,,,,1.088,,,,,,,,,,,,,,,,,,,,,,60fda145558ce7763d95441e,610377bc03bf8ae497a56e42,2021-07-30_12h01.56.683,Simcolourproject_2stim_asymm_v5,2020.2.10,Win32,60,61025ae37ef11b136ea224fe,,,,,,,,,1185,-57,84,1,0,0,response7disk,,0,16,9,1,0,0,rectangle,52,80,1,0,0,4,0,1,0,0,0,68,68,123,1,,response1disk_3,TRUE,7,7,"[2,69,74,42,135,147,285,209,160,75,20,242,75,97,315,283,39,178,277,315]",2.6269,rectangle
,,,,,,,,,,,,,FF,,,,,,,,0.5689,,,,,,,,,,,,,,,,,,,,,,60fda145558ce7763d95441e,610377bc03bf8ae497a56e42,2021-07-30_12h01.56.683,Simcolourproject_2stim_asymm_v5,2020.2.10,Win32,60,61025ae37ef11b136ea224fe,,,,,,,,,3871,-65,44,1,0,0,response7disk,,1,-7,2,1,0,0,rectangle,-7,2,1,0,0,-7,2,1,0,0,0,69,69,141,1,,,,,,,,
,,,,,,,,,,,,,FF,,,,,,,,0.4511,,,,,,,,,,,,,,,,,,,,,,60fda145558ce7763d95441e,610377bc03bf8ae497a56e42,2021-07-30_12h01.56.683,Simcolourproject_2stim_asymm_v5,2020.2.10,Win32,60,61025ae37ef11b136ea224fe,,,,,,,,,2687,40,-57,1,0,0,response3disk,,4,5,12,1,0,0,rectangle,5,12,1,0,0,5,12,1,0,0,0,70,70,85,1,,,,,,,,
,,,,,,,,,,,,,FF,,,,,,,,0.7516,,,,,,,,,,,,,,,,,,,,,,60fda145558ce7763d95441e,610377bc03bf8ae497a56e42,2021-07-30_12h01.56.683,Simcolourproject_2stim_asymm_v5,2020.2.10,Win32,60,61025ae37ef11b136ea224fe,,,,,,,,,29,41,79,1,0,0,response1disk,,7,-9,0,1,0,0,rectangle,-9,0,1,0,0,-9,0,1,0,0,0,71,71,119,1,,,,,,,,
,,,,,,,,,,,,,FF,,,,,,,,0.903,,,,,,,,,,,,,,,,,,,,,,60fda145558ce7763d95441e,610377bc03bf8ae497a56e42,2021-07-30_12h01.56.683,Simcolourproject_2stim_asymm_v5,2020.2.10,Win32,60,61025ae37ef11b136ea224fe,,,,,,,,,2655,-71,-42,1,0,0,response5disk,,2,3,4,1,0,0,rectangle,3,4,1,0,0,3,4,1,0,0,0,72,72,124,1,,,,,,,,
,,,,,,,,,,,,,FF,,,,,,,,1.7235,,,,,,,,,,,,,,,,,,,,,,60fda145558ce7763d95441e,610377bc03bf8ae497a56e42,2021-07-30_12h01.56.683,Simcolourproject_2stim_asymm_v5,2020.2.10,Win32,60,61025ae37ef11b136ea224fe,,,,,,,,,2215,44,-104,1,0,0,response3disk,,4,-5,-11,1,0,0,rectangle,93,41,1,0,0,21,6,1,0,0,0,73,73,48,1,,response1disk_3,TRUE,6,6,"[2,69,74,42,135,147,285,209,160,75,20,242,75,97,315,283,39,178,277,315]",2.0579,rectangle
,,,,,,,,,,,,,FF,,,,,,,,0.6187,,,,,,,,,,,,,,,,,,,,,,60fda145558ce7763d95441e,610377bc03bf8ae497a56e42,2021-07-30_12h01.56.683,Simcolourproject_2stim_asymm_v5,2020.2.10,Win32,60,61025ae37ef11b136ea224fe,,,,,,,,,2977,-82,57,1,0,0,response7disk,,1,5,7,1,0,0,rectangle,70,92,1,0,0,5,7,1,0,0,0,74,74,158,1,,response1disk_3,TRUE,7,7,"[2,69,74,42,135,147,285,209,160,75,20,242,75,97,315,283,39,178,277,315]",2.7262,rectangle
,,,,,,,,,,,,,FF,,,,,,,,0.6516,,,,,,,,,,,,,,,,,,,,,,60fda145558ce7763d95441e,610377bc03bf8ae497a56e42,2021-07-30_12h01.56.683,Simcolourproject_2stim_asymm_v5,2020.2.10,Win32,60,61025ae37ef11b136ea224fe,,,,,,,,,2080,51,-64,1,0,0,response3disk,,4,12,0,1,0,0,rectangle,12,0,1,0,0,12,0,1,0,0,0,75,75,71,1,,,,,,,,
,,,,,,,,,,,,,FF,,,,,,,,0.4508,,,,,,,,,,,,,,,,,,,,,,60fda145558ce7763d95441e,610377bc03bf8ae497a56e42,2021-07-30_12h01.56.683,Simcolourproject_2stim_asymm_v5,2020.2.10,Win32,60,61025ae37ef11b136ea224fe,,,,,,,,,4335,-69,38,1,0,0,response7disk,,1,-1,1,1,0,0,rectangle,-1,1,1,0,0,-1,1,1,0,0,0,76,76,26,1,,,,,,,,
,,,,,,,,,,,,,FF,,,,,,,,0.4687,,,,,,,,,,,,,,,,,,,,,,60fda145558ce7763d95441e,610377bc03bf8ae497a56e42,2021-07-30_12h01.56.683,Simcolourproject_2stim_asymm_v5,2020.2.10,Win32,60,61025ae37ef11b136ea224fe,,,,,,,,,1559,21,65,1,0,0,response1disk,,7,2,2,1,0,0,rectangle,2,2,1,0,0,2,2,1,0,0,0,77,77,5,1,,,,,,,,
,,,,,,,,,,,,,FF,,,,,,,,0.6187,,,,,,,,,,,,,,,,,,,,,,60fda145558ce7763d95441e,610377bc03bf8ae497a56e42,2021-07-30_12h01.56.683,Simcolourproject_2stim_asymm_v5,2020.2.10,Win32,60,61025ae37ef11b136ea224fe,,,,,,,,,3173,42,-67,1,0,0,response3disk,,4,-3,3,1,0,0,rectangle,-3,3,1,0,0,-3,3,1,0,0,0,78,78,142,1,,,,,,,,
,,,,,,,,,,,,,FF,,,,,,,,0.7445,,,,,,,,,,,,,,,,,,,,,,60fda145558ce7763d95441e,610377bc03bf8ae497a56e42,2021-07-30_12h01.56.683,Simcolourproject_2stim_asymm_v5,2020.2.10,Win32,60,61025ae37ef11b136ea224fe,,,,,,,,,2062,-77,34,1,0,0,response7disk,,1,-17,2,1,0,0,rectangle,-17,2,1,0,0,-17,2,1,0,0,0,79,79,65,1,,,,,,,,
,,,,,,,,,,,,,FF,,,,,,,,0.5576,,,,,,,,,,,,,,,,,,,,,,60fda145558ce7763d95441e,610377bc03bf8ae497a56e42,2021-07-30_12h01.56.683,Simcolourproject_2stim_asymm_v5,2020.2.10,Win32,60,61025ae37ef11b136ea224fe,,,,,,,,,2396,80,36,1,0,0,response1disk,,6,-6,-5,1,0,0,rectangle,-6,-5,1,0,0,-6,-5,1,0,0,0,80,80,155,1,,,,,,,,
,,,,,,,,,,,,,FF,,,,,,,,0.735,,,,,,,,,,,,,,,,,,,,,,60fda145558ce7763d95441e,610377bc03bf8ae497a56e42,2021-07-30_12h01.56.683,Simcolourproject_2stim_asymm_v5,2020.2.10,Win32,60,61025ae37ef11b136ea224fe,,,,,,,,,1953,40,-74,1,0,0,response3disk,,4,-4,4,1,0,0,rectangle,-4,4,1,0,0,-4,4,1,0,0,0,81,81,69,1,,,,,,,,
,,,,,,,,,,,,,FF,,,,,,,,1.1375,,,,,,,,,,,,,,,,,,,,,,60fda145558ce7763d95441e,610377bc03bf8ae497a56e42,2021-07-30_12h01.56.683,Simcolourproject_2stim_asymm_v5,2020.2.10,Win32,60,61025ae37ef11b136ea224fe,,,,,,,,,3234,-32,86,1,0,0,response7disk,,0,4,-3,1,0,0,rectangle,4,-3,1,0,0,4,-3,1,0,0,0,82,82,84,1,,,,,,,,
,,,,,,,,,,,,,FF,,,,,,,,0.8701,,,,,,,,,,,,,,,,,,,,,,60fda145558ce7763d95441e,610377bc03bf8ae497a56e42,2021-07-30_12h01.56.683,Simcolourproject_2stim_asymm_v5,2020.2.10,Win32,60,61025ae37ef11b136ea224fe,,,,,,,,,253,-97,40,1,0,0,response7disk,,1,-17,-2,1,0,0,rectangle,-17,-2,1,0,0,-17,-2,1,0,0,0,83,83,4,1,,,,,,,,
,,,,,,,,,,,,,FF,,,,,,,,0.6351,,,,,,,,,,,,,,,,,,,,,,60fda145558ce7763d95441e,610377bc03bf8ae497a56e42,2021-07-30_12h01.56.683,Simcolourproject_2stim_asymm_v5,2020.2.10,Win32,60,61025ae37ef11b136ea224fe,,,,,,,,,1632,41,-67,1,0,0,response3disk,,4,3,5,1,0,0,rectangle,3,5,1,0,0,3,5,1,0,0,0,84,84,77,1,,,,,,,,
,,,,,,,,,,,,,FF,,,,,,,,0.7365,,,,,,,,,,,,,,,,,,,,,,60fda145558ce7763d95441e,610377bc03bf8ae497a56e42,2021-07-30_12h01.56.683,Simcolourproject_2stim_asymm_v5,2020.2.10,Win32,60,61025ae37ef11b136ea224fe,,,,,,,,,3552,53,-82,1,0,0,response3disk,,4,-7,5,1,0,0,rectangle,-7,5,1,0,0,-7,5,1,0,0,0,85,85,28,1,,,,,,,,
,,,,,,,,,,,,,FF,,,,,,,,0.6687,,,,,,,,,,,,,,,,,,,,,,60fda145558ce7763d95441e,610377bc03bf8ae497a56e42,2021-07-30_12h01.56.683,Simcolourproject_2stim_asymm_v5,2020.2.10,Win32,60,61025ae37ef11b136ea224fe,,,,,,,,,3529,85,-55,1,0,0,response3disk,,5,2,11,1,0,0,rectangle,2,11,1,0,0,2,11,1,0,0,0,86,86,147,1,,,,,,,,
,,,,,,,,,,,,,FF,,,,,,,,0.7687,,,,,,,,,,,,,,,,,,,,,,60fda145558ce7763d95441e,610377bc03bf8ae497a56e42,2021-07-30_12h01.56.683,Simcolourproject_2stim_asymm_v5,2020.2.10,Win32,60,61025ae37ef11b136ea224fe,,,,,,,,,2524,36,-56,1,0,0,response3disk,,4,-5,8,1,0,0,rectangle,-5,8,1,0,0,-5,8,1,0,0,0,87,87,107,1,,,,,,,,
,,,,,,,,,,,,,FF,,,,,,,,0.4852,,,,,,,,,,,,,,,,,,,,,,60fda145558ce7763d95441e,610377bc03bf8ae497a56e42,2021-07-30_12h01.56.683,Simcolourproject_2stim_asymm_v5,2020.2.10,Win32,60,61025ae37ef11b136ea224fe,,,,,,,,,2496,-65,48,1,0,0,response7disk,,1,-1,15,1,0,0,rectangle,-1,15,1,0,0,-1,15,1,0,0,0,88,88,16,1,,,,,,,,
,,,,,,,,,,,,,FF,,,,,,,,0.8022,,,,,,,,,,,,,,,,,,,,,,60fda145558ce7763d95441e,610377bc03bf8ae497a56e42,2021-07-30_12h01.56.683,Simcolourproject_2stim_asymm_v5,2020.2.10,Win32,60,61025ae37ef11b136ea224fe,,,,,,,,,3770,40,74,1,0,0,response1disk,,7,-1,-1,1,0,0,rectangle,-1,-1,1,0,0,-1,-1,1,0,0,0,89,89,49,1,,,,,,,,
,,,,,,,,,,,,,FF,,,,,,,,0.7362,,,,,,,,,,,,,,,,,,,,,,60fda145558ce7763d95441e,610377bc03bf8ae497a56e42,2021-07-30_12h01.56.683,Simcolourproject_2stim_asymm_v5,2020.2.10,Win32,60,61025ae37ef11b136ea224fe,,,,,,,,,370,24,-75,1,0,0,response3disk,,4,-8,6,1,0,0,rectangle,-8,6,1,0,0,-8,6,1,0,0,0,90,90,36,1,,,,,,,,
,,,,,,,,,,,,,FF,,,,,,,,0.9207,,,,,,,,,,,,,,,,,,,,,,60fda145558ce7763d95441e,610377bc03bf8ae497a56e42,2021-07-30_12h01.56.683,Simcolourproject_2stim_asymm_v5,2020.2.10,Win32,60,61025ae37ef11b136ea224fe,,,,,,,,,1748,-70,28,1,0,0,response7disk,,1,0,6,1,0,0,rectangle,0,6,1,0,0,0,6,1,0,0,0,91,91,38,1,,,,,,,,
,,,,,,,,,,,,,FF,,,,,,,,0.7694,,,,,,,,,,,,,,,,,,,,,,60fda145558ce7763d95441e,610377bc03bf8ae497a56e42,2021-07-30_12h01.56.683,Simcolourproject_2stim_asymm_v5,2020.2.10,Win32,60,61025ae37ef11b136ea224fe,,,,,,,,,2955,36,-72,1,0,0,response3disk,,4,-2,6,1,0,0,rectangle,-2,6,1,0,0,-2,6,1,0,0,0,92,92,110,1,,,,,,,,
,,,,,,,,,,,,,FF,,,,,,,,1.2384,,,,,,,,,,,,,,,,,,,,,,60fda145558ce7763d95441e,610377bc03bf8ae497a56e42,2021-07-30_12h01.56.683,Simcolourproject_2stim_asymm_v5,2020.2.10,Win32,60,61025ae37ef11b136ea224fe,,,,,,,,,1384,54,80,1,0,0,response1disk,,7,8,6,1,0,0,rectangle,8,6,1,0,0,8,6,1,0,0,0,93,93,70,1,,,,,,,,
,,,,,,,,,,,,,FF,,,,,,,,1.3053,,,,,,,,,,,,,,,,,,,,,,60fda145558ce7763d95441e,610377bc03bf8ae497a56e42,2021-07-30_12h01.56.683,Simcolourproject_2stim_asymm_v5,2020.2.10,Win32,60,61025ae37ef11b136ea224fe,,,,,,,,,647,-75,31,1,0,0,response7disk,,1,-15,5,1,0,0,rectangle,-15,5,1,0,0,-15,5,1,0,0,0,94,94,111,1,,,,,,,,
,,,,,,,,,,,,,FF,,,,,,,,0.9199,,,,,,,,,,,,,,,,,,,,,,60fda145558ce7763d95441e,610377bc03bf8ae497a56e42,2021-07-30_12h01.56.683,Simcolourproject_2stim_asymm_v5,2020.2.10,Win32,60,61025ae37ef11b136ea224fe,,,,,,,,,3291,56,-75,1,0,0,response3disk,,4,-18,-5,1,0,0,rectangle,-18,-5,1,0,0,-18,-5,1,0,0,0,95,95,153,1,,,,,,,,
,,,,,,,,,,,,,FF,,,,,,,,0.5188,,,,,,,,,,,,,,,,,,,,,,60fda145558ce7763d95441e,610377bc03bf8ae497a56e42,2021-07-30_12h01.56.683,Simcolourproject_2stim_asymm_v5,2020.2.10,Win32,60,61025ae37ef11b136ea224fe,,,,,,,,,2190,-77,59,1,0,0,response7disk,,1,-11,11,1,0,0,rectangle,85,37,1,0,0,13,8,1,0,0,0,96,96,51,1,,response1disk_3,TRUE,6,6,"[2,69,74,42,135,147,285,209,160,75,20,242,75,97,315,283,39,178,277,315]",1.7404,rectangle
,,,,,,,,,,,,,FF,,,,,,,,0.9042,,,,,,,,,,,,,,,,,,,,,,60fda145558ce7763d95441e,610377bc03bf8ae497a56e42,2021-07-30_12h01.56.683,Simcolourproject_2stim_asymm_v5,2020.2.10,Win32,60,61025ae37ef11b136ea224fe,,,,,,,,,722,56,80,1,0,0,response1disk,,7,6,-2,1,0,0,rectangle,6,-2,1,0,0,6,-2,1,0,0,0,97,97,21,1,,,,,,,,
,,,,,,,,,,,,,FF,,,,,,,,0.6853,,,,,,,,,,,,,,,,,,,,,,60fda145558ce7763d95441e,610377bc03bf8ae497a56e42,2021-07-30_12h01.56.683,Simcolourproject_2stim_asymm_v5,2020.2.10,Win32,60,61025ae37ef11b136ea224fe,,,,,,,,,2591,69,-84,1,0,0,response3disk,,4,8,3,1,0,0,rectangle,8,3,1,0,0,8,3,1,0,0,0,98,98,140,1,,,,,,,,
,,,,,,,,,,,,,FF,,,,,,,,0.8205,,,,,,,,,,,,,,,,,,,,,,60fda145558ce7763d95441e,610377bc03bf8ae497a56e42,2021-07-30_12h01.56.683,Simcolourproject_2stim_asymm_v5,2020.2.10,Win32,60,61025ae37ef11b136ea224fe,,,,,,,,,3282,-81,-32,1,0,0,response5disk,,2,-23,-5,1,0,0,rectangle,-23,-5,1,0,0,-23,-5,1,0,0,0,99,99,59,1,,,,,,,,
,,,,,,,,,,,,,FF,,,,,,,,1.3535,,,,,,,,,,,,,,,,,,,,,,60fda145558ce7763d95441e,610377bc03bf8ae497a56e42,2021-07-30_12h01.56.683,Simcolourproject_2stim_asymm_v5,2020.2.10,Win32,60,61025ae37ef11b136ea224fe,,,,,,,,,314,52,82,1,0,0,response1disk,,7,1,-2,1,0,0,rectangle,1,-2,1,0,0,1,-2,1,0,0,0,100,100,112,1,,,,,,,,
,,,,,,,,,,,,,FF,,,,,,,,0.7342,,,,,,,,,,,,,,,,,,,,,,60fda145558ce7763d95441e,610377bc03bf8ae497a56e42,2021-07-30_12h01.56.683,Simcolourproject_2stim_asymm_v5,2020.2.10,Win32,60,61025ae37ef11b136ea224fe,,,,,,,,,2818,67,-86,1,0,0,response3disk,,4,10,-2,1,0,0,rectangle,10,-2,1,0,0,10,-2,1,0,0,0,101,101,78,1,,,,,,,,
,,,,,,,,,,,,,FF,,,,,,,,0.6528,,,,,,,,,,,,,,,,,,,,,,60fda145558ce7763d95441e,610377bc03bf8ae497a56e42,2021-07-30_12h01.56.683,Simcolourproject_2stim_asymm_v5,2020.2.10,Win32,60,61025ae37ef11b136ea224fe,,,,,,,,,921,-78,60,1,0,0,response7disk,,1,6,0,1,0,0,rectangle,6,0,1,0,0,6,0,1,0,0,0,102,102,118,1,,,,,,,,
,,,,,,,,,,,,,FF,,,,,,,,0.5844,,,,,,,,,,,,,,,,,,,,,,60fda145558ce7763d95441e,610377bc03bf8ae497a56e42,2021-07-30_12h01.56.683,Simcolourproject_2stim_asymm_v5,2020.2.10,Win32,60,61025ae37ef11b136ea224fe,,,,,,,,,4128,82,-54,1,0,0,response3disk,,5,0,10,1,0,0,rectangle,0,10,1,0,0,0,10,1,0,0,0,103,103,39,1,,,,,,,,
,,,,,,,,,,,,,FF,,,,,,,,0.517,,,,,,,,,,,,,,,,,,,,,,60fda145558ce7763d95441e,610377bc03bf8ae497a56e42,2021-07-30_12h01.56.683,Simcolourproject_2stim_asymm_v5,2020.2.10,Win32,60,61025ae37ef11b136ea224fe,,,,,,,,,3787,49,-76,1,0,0,response3disk,,4,19,5,1,0,0,rectangle,19,5,1,0,0,19,5,1,0,0,0,104,104,159,1,,,,,,,,
,,,,,,,,,,,,,FF,,,,,,,,0.7197,,,,,,,,,,,,,,,,,,,,,,60fda145558ce7763d95441e,610377bc03bf8ae497a56e42,2021-07-30_12h01.56.683,Simcolourproject_2stim_asymm_v5,2020.2.10,Win32,60,61025ae37ef11b136ea224fe,,,,,,,,,4364,-69,-31,1,0,0,response5disk,,2,-1,1,1,0,0,rectangle,-1,1,1,0,0,-1,1,1,0,0,0,105,105,76,1,,,,,,,,
,,,,,,,,,,,,,FF,,,,,,,,0.9526,,,,,,,,,,,,,,,,,,,,,,60fda145558ce7763d95441e,610377bc03bf8ae497a56e42,2021-07-30_12h01.56.683,Simcolourproject_2stim_asymm_v5,2020.2.10,Win32,60,61025ae37ef11b136ea224fe,,,,,,,,,891,49,74,1,0,0,response1disk,,7,11,8,1,0,0,rectangle,11,8,1,0,0,11,8,1,0,0,0,106,106,149,1,,,,,,,,
,,,,,,,,,,,,,FF,,,,,,,,0.6205,,,,,,,,,,,,,,,,,,,,,,60fda145558ce7763d95441e,610377bc03bf8ae497a56e42,2021-07-30_12h01.56.683,Simcolourproject_2stim_asymm_v5,2020.2.10,Win32,60,61025ae37ef11b136ea224fe,,,,,,,,,203,64,-84,1,0,0,response3disk,,4,8,1,1,0,0,rectangle,8,1,1,0,0,8,1,1,0,0,0,107,107,79,1,,,,,,,,
,,,,,,,,,,,,,FF,,,,,,,,0.4687,,,,,,,,,,,,,,,,,,,,,,60fda145558ce7763d95441e,610377bc03bf8ae497a56e42,2021-07-30_12h01.56.683,Simcolourproject_2stim_asymm_v5,2020.2.10,Win32,60,61025ae37ef11b136ea224fe,,,,,,,,,4038,105,-54,1,0,0,response3disk,,5,4,8,1,0,0,rectangle,4,8,1,0,0,4,8,1,0,0,0,108,108,22,1,,,,,,,,
,,,,,,,,,,,,,FF,,,,,,,,0.7527,,,,,,,,,,,,,,,,,,,,,,60fda145558ce7763d95441e,610377bc03bf8ae497a56e42,2021-07-30_12h01.56.683,Simcolourproject_2stim_asymm_v5,2020.2.10,Win32,60,61025ae37ef11b136ea224fe,,,,,,,,,1200,-92,44,1,0,0,response7disk,,1,-12,10,1,0,0,rectangle,-12,10,1,0,0,-12,10,1,0,0,0,109,109,136,1,,,,,,,,
,,,,,,,,,,,,,FF,,,,,,,,0.4183,,,,,,,,,,,,,,,,,,,,,,60fda145558ce7763d95441e,610377bc03bf8ae497a56e42,2021-07-30_12h01.56.683,Simcolourproject_2stim_asymm_v5,2020.2.10,Win32,60,61025ae37ef11b136ea224fe,,,,,,,,,2033,23,-62,1,0,0,response3disk,,4,32,-5,1,0,0,rectangle,32,-5,1,0,0,32,-5,1,0,0,0,110,110,108,1,,,,,,,,
,,,,,,,,,,,,,FF,,,,,,,,0.9202,,,,,,,,,,,,,,,,,,,,,,60fda145558ce7763d95441e,610377bc03bf8ae497a56e42,2021-07-30_12h01.56.683,Simcolourproject_2stim_asymm_v5,2020.2.10,Win32,60,61025ae37ef11b136ea224fe,,,,,,,,,1906,66,108,1,0,0,response1disk,,7,10,6,1,0,0,rectangle,10,6,1,0,0,10,6,1,0,0,0,111,111,27,1,,,,,,,,
,,,,,,,,,,,,,FF,,,,,,,,0.7187,,,,,,,,,,,,,,,,,,,,,,60fda145558ce7763d95441e,610377bc03bf8ae497a56e42,2021-07-30_12h01.56.683,Simcolourproject_2stim_asymm_v5,2020.2.10,Win32,60,61025ae37ef11b136ea224fe,,,,,,,,,3015,-78,30,1,0,0,response7disk,,1,-4,3,1,0,0,rectangle,-4,3,1,0,0,-4,3,1,0,0,0,112,112,19,1,,,,,,,,
,,,,,,,,,,,,,FF,,,,,,,,0.7526,,,,,,,,,,,,,,,,,,,,,,60fda145558ce7763d95441e,610377bc03bf8ae497a56e42,2021-07-30_12h01.56.683,Simcolourproject_2stim_asymm_v5,2020.2.10,Win32,60,61025ae37ef11b136ea224fe,,,,,,,,,3876,42,-110,1,0,0,response3disk,,4,-7,6,1,0,0,rectangle,-7,6,1,0,0,-7,6,1,0,0,0,113,113,9,1,,,,,,,,
,,,,,,,,,,,,,FF,,,,,,,,2.2913,,,,,,,,,,,,,,,,,,,,,,60fda145558ce7763d95441e,610377bc03bf8ae497a56e42,2021-07-30_12h01.56.683,Simcolourproject_2stim_asymm_v5,2020.2.10,Win32,60,61025ae37ef11b136ea224fe,,,,,,,,,2595,60,-99,1,0,0,response3disk,,4,6,-3,1,0,0,rectangle,6,-3,1,0,0,6,-3,1,0,0,0,114,114,146,1,,,,,,,,
,,,,,,,,,,,,,FF,,,,,,,,1.0375,,,,,,,,,,,,,,,,,,,,,,60fda145558ce7763d95441e,610377bc03bf8ae497a56e42,2021-07-30_12h01.56.683,Simcolourproject_2stim_asymm_v5,2020.2.10,Win32,60,61025ae37ef11b136ea224fe,,,,,,,,,1964,-120,-49,1,0,0,response5disk,,2,17,9,1,0,0,rectangle,17,9,1,0,0,17,9,1,0,0,0,115,115,46,1,,,,,,,,
,,,,,,,,,,,,,FF,,,,,,,,1.1213,,,,,,,,,,,,,,,,,,,,,,60fda145558ce7763d95441e,610377bc03bf8ae497a56e42,2021-07-30_12h01.56.683,Simcolourproject_2stim_asymm_v5,2020.2.10,Win32,60,61025ae37ef11b136ea224fe,,,,,,,,,1070,91,-47,1,0,0,response3disk,,5,-7,5,1,0,0,rectangle,-7,5,1,0,0,-7,5,1,0,0,0,116,116,52,1,,,,,,,,
,,,,,,,,,,,,,FF,,,,,,,,1.0211,,,,,,,,,,,,,,,,,,,,,,60fda145558ce7763d95441e,610377bc03bf8ae497a56e42,2021-07-30_12h01.56.683,Simcolourproject_2stim_asymm_v5,2020.2.10,Win32,60,61025ae37ef11b136ea224fe,,,,,,,,,2295,-54,68,1,0,0,response7disk,,0,-3,-5,1,0,0,rectangle,-3,-5,1,0,0,-3,-5,1,0,0,0,117,117,156,1,,,,,,,,
,,,,,,,,,,,,,FF,,,,,,,,0.9522,,,,,,,,,,,,,,,,,,,,,,60fda145558ce7763d95441e,610377bc03bf8ae497a56e42,2021-07-30_12h01.56.683,Simcolourproject_2stim_asymm_v5,2020.2.10,Win32,60,61025ae37ef11b136ea224fe,,,,,,,,,2823,43,-88,1,0,0,response3disk,,4,10,7,1,0,0,rectangle,10,7,1,0,0,10,7,1,0,0,0,118,118,94,1,,,,,,,,
,,,,,,,,,,,,,FF,,,,,,,,1.3055,,,,,,,,,,,,,,,,,,,,,,60fda145558ce7763d95441e,610377bc03bf8ae497a56e42,2021-07-30_12h01.56.683,Simcolourproject_2stim_asymm_v5,2020.2.10,Win32,60,61025ae37ef11b136ea224fe,,,,,,,,,3647,-67,-31,1,0,0,response5disk,,2,-25,11,1,0,0,rectangle,-25,11,1,0,0,-25,11,1,0,0,0,119,119,61,1,,,,,,,,
,,,,,,,,,,,,,FF,,,,,,,,0.8704,,,,,,,,,,,,,,,,,,,,,,60fda145558ce7763d95441e,610377bc03bf8ae497a56e42,2021-07-30_12h01.56.683,Simcolourproject_2stim_asymm_v5,2020.2.10,Win32,60,61025ae37ef11b136ea224fe,,,,,,,,,263,84,-64,1,0,0,response3disk,,5,0,5,1,0,0,rectangle,0,5,1,0,0,0,5,1,0,0,0,120,120,64,1,,,,,,,,
,,,,,,,,,,,,,FF,,,,,,,,0.7195,,,,,,,,,,,,,,,,,,,,,,60fda145558ce7763d95441e,610377bc03bf8ae497a56e42,2021-07-30_12h01.56.683,Simcolourproject_2stim_asymm_v5,2020.2.10,Win32,60,61025ae37ef11b136ea224fe,,,,,,,,,3524,44,-85,1,0,0,response3disk,,4,14,10,1,0,0,rectangle,14,10,1,0,0,14,10,1,0,0,0,121,121,13,1,,,,,,,,
,,,,,,,,,,,,,FF,,,,,,,,2.4916,,,,,,,,,,,,,,,,,,,,,,60fda145558ce7763d95441e,610377bc03bf8ae497a56e42,2021-07-30_12h01.56.683,Simcolourproject_2stim_asymm_v5,2020.2.10,Win32,60,61025ae37ef11b136ea224fe,,,,,,,,,2578,58,94,1,0,0,response1disk,,7,-12,6,1,0,0,rectangle,-12,6,1,0,0,-12,6,1,0,0,0,122,122,114,1,,,,,,,,
,,,,,,,,,,,,,FF,,,,,,,,0.7515,,,,,,,,,,,,,,,,,,,,,,60fda145558ce7763d95441e,610377bc03bf8ae497a56e42,2021-07-30_12h01.56.683,Simcolourproject_2stim_asymm_v5,2020.2.10,Win32,60,61025ae37ef11b136ea224fe,,,,,,,,,3097,-79,45,1,0,0,response7disk,,1,-16,0,1,0,0,rectangle,-16,0,1,0,0,-16,0,1,0,0,0,123,123,68,1,,,,,,,,
,,,,,,,,,,,,,FF,,,,,,,,0.5696,,,,,,,,,,,,,,,,,,,,,,60fda145558ce7763d95441e,610377bc03bf8ae497a56e42,2021-07-30_12h01.56.683,Simcolourproject_2stim_asymm_v5,2020.2.10,Win32,60,61025ae37ef11b136ea224fe,,,,,,,,,3512,35,-61,1,0,0,response3disk,,4,20,-7,1,0,0,rectangle,20,-7,1,0,0,20,-7,1,0,0,0,124,124,129,1,,,,,,,,
,,,,,,,,,,,,,FF,,,,,,,,2.291,,,,,,,,,,,,,,,,,,,,,,60fda145558ce7763d95441e,610377bc03bf8ae497a56e42,2021-07-30_12h01.56.683,Simcolourproject_2stim_asymm_v5,2020.2.10,Win32,60,61025ae37ef11b136ea224fe,,,,,,,,,1394,-38,88,1,0,0,response7disk,,0,18,5,1,0,0,rectangle,18,5,1,0,0,18,5,1,0,0,0,125,125,43,1,,,,,,,,
,,,,,,,,,,,,,FF,,,,,,,,0.6529,,,,,,,,,,,,,,,,,,,,,,60fda145558ce7763d95441e,610377bc03bf8ae497a56e42,2021-07-30_12h01.56.683,Simcolourproject_2stim_asymm_v5,2020.2.10,Win32,60,61025ae37ef11b136ea224fe,,,,,,,,,2195,-75,-48,1,0,0,response5disk,,2,10,-1,1,0,0,rectangle,10,-1,1,0,0,10,-1,1,0,0,0,126,126,50,1,,,,,,,,
,,,,,,,,,,,,,FF,,,,,,,,0.4507,,,,,,,,,,,,,,,,,,,,,,60fda145558ce7763d95441e,610377bc03bf8ae497a56e42,2021-07-30_12h01.56.683,Simcolourproject_2stim_asymm_v5,2020.2.10,Win32,60,61025ae37ef11b136ea224fe,,,,,,,,,1825,42,-71,1,0,0,response3disk,,4,4,6,1,0,0,rectangle,4,6,1,0,0,4,6,1,0,0,0,127,127,134,1,,,,,,,,
,,,,,,,,,,,,,FF,,,,,,,,0.8196,,,,,,,,,,,,,,,,,,,,,,60fda145558ce7763d95441e,610377bc03bf8ae497a56e42,2021-07-30_12h01.56.683,Simcolourproject_2stim_asymm_v5,2020.2.10,Win32,60,61025ae37ef11b136ea224fe,,,,,,,,,1301,48,66,1,0,0,response1disk,,7,17,5,1,0,0,rectangle,17,5,1,0,0,17,5,1,0,0,0,128,128,67,1,,,,,,,,
,,,,,,,,,,,,,FF,,,,,,,,1.5213,,,,,,,,,,,,,,,,,,,,,,60fda145558ce7763d95441e,610377bc03bf8ae497a56e42,2021-07-30_12h01.56.683,Simcolourproject_2stim_asymm_v5,2020.2.10,Win32,60,61025ae37ef11b136ea224fe,,,,,,,,,3459,-48,85,1,0,0,response7disk,,0,7,5,1,0,0,rectangle,7,5,1,0,0,7,5,1,0,0,0,129,129,125,1,,,,,,,,
,,,,,,,,,,,,,FF,,,,,,,,0.6684,,,,,,,,,,,,,,,,,,,,,,60fda145558ce7763d95441e,610377bc03bf8ae497a56e42,2021-07-30_12h01.56.683,Simcolourproject_2stim_asymm_v5,2020.2.10,Win32,60,61025ae37ef11b136ea224fe,,,,,,,,,2933,42,-70,1,0,0,response3disk,,4,11,-1,1,0,0,rectangle,11,-1,1,0,0,11,-1,1,0,0,0,130,130,89,1,,,,,,,,
,,,,,,,,,,,,,FF,,,,,,,,0.8194,,,,,,,,,,,,,,,,,,,,,,60fda145558ce7763d95441e,610377bc03bf8ae497a56e42,2021-07-30_12h01.56.683,Simcolourproject_2stim_asymm_v5,2020.2.10,Win32,60,61025ae37ef11b136ea224fe,,,,,,,,,2096,-82,-43,1,0,0,response5disk,,2,8,14,1,0,0,rectangle,8,14,1,0,0,8,14,1,0,0,0,131,131,42,1,,,,,,,,
,,,,,,,,,,,,,FF,,,,,,,,0.5838,,,,,,,,,,,,,,,,,,,,,,60fda145558ce7763d95441e,610377bc03bf8ae497a56e42,2021-07-30_12h01.56.683,Simcolourproject_2stim_asymm_v5,2020.2.10,Win32,60,61025ae37ef11b136ea224fe,,,,,,,,,844,26,-80,1,0,0,response3disk,,4,-2,7,1,0,0,rectangle,-2,7,1,0,0,-2,7,1,0,0,0,132,132,57,1,,,,,,,,
,,,,,,,,,,,,,FF,,,,,,,,1.0544,,,,,,,,,,,,,,,,,,,,,,60fda145558ce7763d95441e,610377bc03bf8ae497a56e42,2021-07-30_12h01.56.683,Simcolourproject_2stim_asymm_v5,2020.2.10,Win32,60,61025ae37ef11b136ea224fe,,,,,,,,,3799,40,85,1,0,0,response1disk,,7,3,-5,1,0,0,rectangle,3,-5,1,0,0,3,-5,1,0,0,0,133,133,1,1,,,,,,,,
,,,,,,,,,,,,,FF,,,,,,,,0.6365,,,,,,,,,,,,,,,,,,,,,,60fda145558ce7763d95441e,610377bc03bf8ae497a56e42,2021-07-30_12h01.56.683,Simcolourproject_2stim_asymm_v5,2020.2.10,Win32,60,61025ae37ef11b136ea224fe,,,,,,,,,569,-70,-37,1,0,0,response5disk,,2,-15,-10,1,0,0,rectangle,46,93,1,0,0,0,3,1,0,0,0,134,134,86,1,,response1disk_3,TRUE,7,7,"[2,69,74,42,135,147,285,209,160,75,20,242,75,97,315,283,39,178,277,315]",2.2088,rectangle
,,,,,,,,,,,,,FF,,,,,,,,1.0628,,,,,,,,,,,,,,,,,,,,,,60fda145558ce7763d95441e,610377bc03bf8ae497a56e42,2021-07-30_12h01.56.683,Simcolourproject_2stim_asymm_v5,2020.2.10,Win32,60,61025ae37ef11b136ea224fe,,,,,,,,,2265,66,-45,1,0,0,response3disk,,5,18,2,1,0,0,rectangle,18,2,1,0,0,18,2,1,0,0,0,135,135,157,1,,,,,,,,
,,,,,,,,,,,,,FF,,,,,,,,0.4445,,,,,,,,,,,,,,,,,,,,,,60fda145558ce7763d95441e,610377bc03bf8ae497a56e42,2021-07-30_12h01.56.683,Simcolourproject_2stim_asymm_v5,2020.2.10,Win32,60,61025ae37ef11b136ea224fe,,,,,,,,,4355,-55,-31,1,0,0,response5disk,,2,-4,5,1,0,0,rectangle,-4,5,1,0,0,-4,5,1,0,0,0,136,136,154,1,,,,,,,,
,,,,,,,,,,,,,FF,,,,,,,,0.6602,,,,,,,,,,,,,,,,,,,,,,60fda145558ce7763d95441e,610377bc03bf8ae497a56e42,2021-07-30_12h01.56.683,Simcolourproject_2stim_asymm_v5,2020.2.10,Win32,60,61025ae37ef11b136ea224fe,,,,,,,,,536,31,-72,1,0,0,response3disk,,4,14,1,1,0,0,rectangle,14,1,1,0,0,14,1,1,0,0,0,137,137,14,1,,,,,,,,
,,,,,,,,,,,,,FF,,,,,,,,0.7612,,,,,,,,,,,,,,,,,,,,,,60fda145558ce7763d95441e,610377bc03bf8ae497a56e42,2021-07-30_12h01.56.683,Simcolourproject_2stim_asymm_v5,2020.2.10,Win32,60,61025ae37ef11b136ea224fe,,,,,,,,,3596,35,87,1,0,0,response1disk,,7,-8,2,1,0,0,rectangle,-8,2,1,0,0,-8,2,1,0,0,0,138,138,122,1,,,,,,,,
,,,,,,,,,,,,,FF,,,,,,,,0.3849,,,,,,,,,,,,,,,,,,,,,,60fda145558ce7763d95441e,610377bc03bf8ae497a56e42,2021-07-30_12h01.56.683,Simcolourproject_2stim_asymm_v5,2020.2.10,Win32,60,61025ae37ef11b136ea224fe,,,,,,,,,152,-99,59,1,0,0,response7disk,,1,5,-11,1,0,0,rectangle,5,-11,1,0,0,5,-11,1,0,0,0,139,139,6,1,,,,,,,,
,,,,,,,,,,,,,FF,,,,,,,,0.4451,,,,,,,,,,,,,,,,,,,,,,60fda145558ce7763d95441e,610377bc03bf8ae497a56e42,2021-07-30_12h01.56.683,Simcolourproject_2stim_asymm_v5,2020.2.10,Win32,60,61025ae37ef11b136ea224fe,,,,,,,,,178,37,-47,1,0,0,response3disk,,4,21,3,1,0,0,rectangle,21,3,1,0,0,21,3,1,0,0,0,140,140,40,1,,,,,,,,
,,,,,,,,,,,,,FF,,,,,,,,0.8268,,,,,,,,,,,,,,,,,,,,,,60fda145558ce7763d95441e,610377bc03bf8ae497a56e42,2021-07-30_12h01.56.683,Simcolourproject_2stim_asymm_v5,2020.2.10,Win32,60,61025ae37ef11b136ea224fe,,,,,,,,,616,40,85,1,0,0,response1disk,,7,1,6,1,0,0,rectangle,1,6,1,0,0,1,6,1,0,0,0,141,141,82,1,,,,,,,,
,,,,,,,,,,,,,FF,,,,,,,,0.8457,,,,,,,,,,,,,,,,,,,,,,60fda145558ce7763d95441e,610377bc03bf8ae497a56e42,2021-07-30_12h01.56.683,Simcolourproject_2stim_asymm_v5,2020.2.10,Win32,60,61025ae37ef11b136ea224fe,,,,,,,,,2027,63,-64,1,0,0,response3disk,,4,3,9,1,0,0,rectangle,3,9,1,0,0,3,9,1,0,0,0,142,142,32,1,,,,,,,,
,,,,,,,,,,,,,FF,,,,,,,,1.1363,,,,,,,,,,,,,,,,,,,,,,60fda145558ce7763d95441e,610377bc03bf8ae497a56e42,2021-07-30_12h01.56.683,Simcolourproject_2stim_asymm_v5,2020.2.10,Win32,60,61025ae37ef11b136ea224fe,,,,,,,,,1338,40,80,1,0,0,response1disk,,7,4,4,1,0,0,rectangle,4,4,1,0,0,4,4,1,0,0,0,143,143,25,1,,,,,,,,
,,,,,,,,,,,,,FF,,,,,,,,0.4771,,,,,,,,,,,,,,,,,,,,,,60fda145558ce7763d95441e,610377bc03bf8ae497a56e42,2021-07-30_12h01.56.683,Simcolourproject_2stim_asymm_v5,2020.2.10,Win32,60,61025ae37ef11b136ea224fe,,,,,,,,,231,29,-64,1,0,0,response3disk,,4,-3,1,1,0,0,rectangle,-3,1,1,0,0,-3,1,1,0,0,0,144,144,105,1,,,,,,,,
,,,,,,,,,,,,,FF,,,,,,,,0.3846,,,,,,,,,,,,,,,,,,,,,,60fda145558ce7763d95441e,610377bc03bf8ae497a56e42,2021-07-30_12h01.56.683,Simcolourproject_2stim_asymm_v5,2020.2.10,Win32,60,61025ae37ef11b136ea224fe,,,,,,,,,2152,46,-69,1,0,0,response3disk,,4,-3,7,1,0,0,rectangle,-3,7,1,0,0,-3,7,1,0,0,0,145,145,72,1,,,,,,,,
,,,,,,,,,,,,,FF,,,,,,,,0.4669,,,,,,,,,,,,,,,,,,,,,,60fda145558ce7763d95441e,610377bc03bf8ae497a56e42,2021-07-30_12h01.56.683,Simcolourproject_2stim_asymm_v5,2020.2.10,Win32,60,61025ae37ef11b136ea224fe,,,,,,,,,3100,71,-29,1,0,0,response3disk,,5,4,8,1,0,0,rectangle,-108,-39,1,0,0,-2,-3,1,0,0,0,146,146,138,1,,response5disk_3,TRUE,2,2,"[2,69,74,42,135,147,285,209,160,75,20,242,75,97,315,283,39,178,277,315]",1.6217,rectangle
,,,,,,,,,,,,,FF,,,,,,,,0.5521,,,,,,,,,,,,,,,,,,,,,,60fda145558ce7763d95441e,610377bc03bf8ae497a56e42,2021-07-30_12h01.56.683,Simcolourproject_2stim_asymm_v5,2020.2.10,Win32,60,61025ae37ef11b136ea224fe,,,,,,,,,2231,48,-74,1,0,0,response3disk,,4,15,12,1,0,0,rectangle,15,12,1,0,0,15,12,1,0,0,0,147,147,58,1,,,,,,,,
,,,,,,,,,,,,,FF,,,,,,,,0.6016,,,,,,,,,,,,,,,,,,,,,,60fda145558ce7763d95441e,610377bc03bf8ae497a56e42,2021-07-30_12h01.56.683,Simcolourproject_2stim_asymm_v5,2020.2.10,Win32,60,61025ae37ef11b136ea224fe,,,,,,,,,3711,65,92,1,0,0,response1disk,,7,-13,12,1,0,0,rectangle,-13,12,1,0,0,-13,12,1,0,0,0,148,148,45,1,,,,,,,,
,,,,,,,,,,,,,FF,,,,,,,,2.5938,,,,,,,,,,,,,,,,,,,,,,60fda145558ce7763d95441e,610377bc03bf8ae497a56e42,2021-07-30_12h01.56.683,Simcolourproject_2stim_asymm_v5,2020.2.10,Win32,60,61025ae37ef11b136ea224fe,,,,,,,,,304,-95,44,1,0,0,response7disk,,1,-12,2,1,0,0,rectangle,-12,2,1,0,0,-12,2,1,0,0,0,149,149,33,1,,,,,,,,
,,,,,,,,,,,,,FF,,,,,,,,1.2718,,,,,,,,,,,,,,,,,,,,,,60fda145558ce7763d95441e,610377bc03bf8ae497a56e42,2021-07-30_12h01.56.683,Simcolourproject_2stim_asymm_v5,2020.2.10,Win32,60,61025ae37ef11b136ea224fe,,,,,,,,,1810,29,69,1,0,0,response1disk,,7,7,13,1,0,0,rectangle,7,13,1,0,0,7,13,1,0,0,0,150,150,30,1,,,,,,,,
,,,,,,,,,,,,,FF,,,,,,,,0.518,,,,,,,,,,,,,,,,,,,,,,60fda145558ce7763d95441e,610377bc03bf8ae497a56e42,2021-07-30_12h01.56.683,Simcolourproject_2stim_asymm_v5,2020.2.10,Win32,60,61025ae37ef11b136ea224fe,,,,,,,,,2810,34,-51,1,0,0,response3disk,,4,14,-1,1,0,0,rectangle,14,-1,1,0,0,14,-1,1,0,0,0,151,151,74,1,,,,,,,,
,,,,,,,,,,,,,FF,,,,,,,,0.5523,,,,,,,,,,,,,,,,,,,,,,60fda145558ce7763d95441e,610377bc03bf8ae497a56e42,2021-07-30_12h01.56.683,Simcolourproject_2stim_asymm_v5,2020.2.10,Win32,60,61025ae37ef11b136ea224fe,,,,,,,,,763,-40,59,1,0,0,response7disk,,0,-8,1,1,0,0,rectangle,-8,1,1,0,0,-8,1,1,0,0,0,152,152,150,1,,,,,,,,
,,,,,,,,,,,,,FF,,,,,,,,1.4228,,,,,,,,,,,,,,,,,,,,,,60fda145558ce7763d95441e,610377bc03bf8ae497a56e42,2021-07-30_12h01.56.683,Simcolourproject_2stim_asymm_v5,2020.2.10,Win32,60,61025ae37ef11b136ea224fe,,,,,,,,,267,30,81,1,0,0,response1disk,,7,-7,4,1,0,0,rectangle,-7,4,1,0,0,-7,4,1,0,0,0,153,153,54,1,,,,,,,,
,,,,,,,,,,,,,FF,,,,,,,,1.4739,,,,,,,,,,,,,,,,,,,,,,60fda145558ce7763d95441e,610377bc03bf8ae497a56e42,2021-07-30_12h01.56.683,Simcolourproject_2stim_asymm_v5,2020.2.10,Win32,60,61025ae37ef11b136ea224fe,,,,,,,,,4332,49,-90,1,0,0,response3disk,,4,-1,8,1,0,0,rectangle,-1,8,1,0,0,-1,8,1,0,0,0,154,154,80,1,,,,,,,,
,,,,,,,,,,,,,FF,,,,,,,,1.5493,,,,,,,,,,,,,,,,,,,,,,60fda145558ce7763d95441e,610377bc03bf8ae497a56e42,2021-07-30_12h01.56.683,Simcolourproject_2stim_asymm_v5,2020.2.10,Win32,60,61025ae37ef11b136ea224fe,,,,,,,,,227,-70,44,1,0,0,response7disk,,1,-18,14,1,0,0,rectangle,-18,14,1,0,0,-18,14,1,0,0,0,155,155,113,1,,,,,,,,
,,,,,,,,,,,,,FF,,,,,,,,1.1635,,,,,,,,,,,,,,,,,,,,,,60fda145558ce7763d95441e,610377bc03bf8ae497a56e42,2021-07-30_12h01.56.683,Simcolourproject_2stim_asymm_v5,2020.2.10,Win32,60,61025ae37ef11b136ea224fe,,,,,,,,,3638,43,97,1,0,0,response1disk,,7,13,12,1,0,0,rectangle,13,12,1,0,0,13,12,1,0,0,0,156,156,152,1,,,,,,,,
,,,,,,,,,,,,,FF,,,,,,,,0.9508,,,,,,,,,,,,,,,,,,,,,,60fda145558ce7763d95441e,610377bc03bf8ae497a56e42,2021-07-30_12h01.56.683,Simcolourproject_2stim_asymm_v5,2020.2.10,Win32,60,61025ae37ef11b136ea224fe,,,,,,,,,2743,34,-58,1,0,0,response3disk,,4,-18,8,1,0,0,rectangle,-18,8,1,0,0,-18,8,1,0,0,0,157,157,133,1,,,,,,,,
,,,,,,,,,,,,,FF,,,,,,,,1.289,,,,,,,,,,,,,,,,,,,,,,60fda145558ce7763d95441e,610377bc03bf8ae497a56e42,2021-07-30_12h01.56.683,Simcolourproject_2stim_asymm_v5,2020.2.10,Win32,60,61025ae37ef11b136ea224fe,,,,,,,,,4311,60,-28,1,0,0,response3disk,,5,6,7,1,0,0,rectangle,6,7,1,0,0,6,7,1,0,0,0,158,158,99,1,,,,,,,,
,,,,,,,,,,,,,FF,,,,,,,,1.0121,,,,,,,,,,,,,,,,,,,,,,60fda145558ce7763d95441e,610377bc03bf8ae497a56e42,2021-07-30_12h01.56.683,Simcolourproject_2stim_asymm_v5,2020.2.10,Win32,60,61025ae37ef11b136ea224fe,,,,,,,,,2360,-84,48,1,0,0,response7disk,,1,0,-15,1,0,0,rectangle,73,-46,1,0,0,22,-3,1,0,0,0,159,159,63,1,,response3disk_3,TRUE,5,5,"[2,69,74,42,135,147,285,209,160,75,20,242,75,97,315,283,39,178,277,315]",1.6306,rectangle
,,,,,,,,,,,,,FF,,,,,,,,0.55,,,,,,,,,,,,,,,,,,,,,,60fda145558ce7763d95441e,610377bc03bf8ae497a56e42,2021-07-30_12h01.56.683,Simcolourproject_2stim_asymm_v5,2020.2.10,Win32,60,61025ae37ef11b136ea224fe,,,,,,,,,3072,-63,54,1,0,0,response7disk,,1,1,3,1,0,0,rectangle,1,3,1,0,0,1,3,1,0,0,1,0,160,113,1,,,,,,,,
,,,,,,,,,,,,,FF,,,,,,,,0.4021,,,,,,,,,,,,,,,,,,,,,,60fda145558ce7763d95441e,610377bc03bf8ae497a56e42,2021-07-30_12h01.56.683,Simcolourproject_2stim_asymm_v5,2020.2.10,Win32,60,61025ae37ef11b136ea224fe,,,,,,,,,1845,73,53,1,0,0,response1disk,,6,5,-2,1,0,0,rectangle,5,-2,1,0,0,5,-2,1,0,0,1,1,161,110,1,,,,,,,,
,,,,,,,,,,,,,FF,,,,,,,,0.6724,,,,,,,,,,,,,,,,,,,,,,60fda145558ce7763d95441e,610377bc03bf8ae497a56e42,2021-07-30_12h01.56.683,Simcolourproject_2stim_asymm_v5,2020.2.10,Win32,60,61025ae37ef11b136ea224fe,,,,,,,,,3601,58,-46,1,0,0,response3disk,,5,-2,-2,1,0,0,rectangle,-2,-2,1,0,0,-2,-2,1,0,0,1,2,162,10,1,,,,,,,,
,,,,,,,,,,,,,FF,,,,,,,,0.3511,,,,,,,,,,,,,,,,,,,,,,60fda145558ce7763d95441e,610377bc03bf8ae497a56e42,2021-07-30_12h01.56.683,Simcolourproject_2stim_asymm_v5,2020.2.10,Win32,60,61025ae37ef11b136ea224fe,,,,,,,,,1059,31,-65,1,0,0,response3disk,,4,3,-2,1,0,0,rectangle,3,-2,1,0,0,3,-2,1,0,0,1,3,163,60,1,,,,,,,,
,,,,,,,,,,,,,FF,,,,,,,,0.3426,,,,,,,,,,,,,,,,,,,,,,60fda145558ce7763d95441e,610377bc03bf8ae497a56e42,2021-07-30_12h01.56.683,Simcolourproject_2stim_asymm_v5,2020.2.10,Win32,60,61025ae37ef11b136ea224fe,,,,,,,,,820,-61,-54,1,0,0,response5disk,,2,12,-5,1,0,0,rectangle,12,-5,1,0,0,12,-5,1,0,0,1,4,164,3,1,,,,,,,,
,,,,,,,,,,,,,FF,,,,,,,,0.9375,,,,,,,,,,,,,,,,,,,,,,60fda145558ce7763d95441e,610377bc03bf8ae497a56e42,2021-07-30_12h01.56.683,Simcolourproject_2stim_asymm_v5,2020.2.10,Win32,60,61025ae37ef11b136ea224fe,,,,,,,,,1973,50,-75,1,0,0,response3disk,,4,24,-3,1,0,0,rectangle,24,-3,1,0,0,24,-3,1,0,0,1,5,165,105,1,,,,,,,,
,,,,,,,,,,,,,FF,,,,,,,,0.3954,,,,,,,,,,,,,,,,,,,,,,60fda145558ce7763d95441e,610377bc03bf8ae497a56e42,2021-07-30_12h01.56.683,Simcolourproject_2stim_asymm_v5,2020.2.10,Win32,60,61025ae37ef11b136ea224fe,,,,,,,,,1723,24,75,1,0,0,response1disk,,7,17,4,1,0,0,rectangle,17,4,1,0,0,17,4,1,0,0,1,6,166,27,1,,,,,,,,
,,,,,,,,,,,,,FF,,,,,,,,0.4615,,,,,,,,,,,,,,,,,,,,,,60fda145558ce7763d95441e,610377bc03bf8ae497a56e42,2021-07-30_12h01.56.683,Simcolourproject_2stim_asymm_v5,2020.2.10,Win32,60,61025ae37ef11b136ea224fe,,,,,,,,,4191,50,-53,1,0,0,response3disk,,4,22,-2,1,0,0,rectangle,22,-2,1,0,0,22,-2,1,0,0,1,7,167,136,1,,,,,,,,
,,,,,,,,,,,,,FF,,,,,,,,0.3702,,,,,,,,,,,,,,,,,,,,,,60fda145558ce7763d95441e,610377bc03bf8ae497a56e42,2021-07-30_12h01.56.683,Simcolourproject_2stim_asymm_v5,2020.2.10,Win32,60,61025ae37ef11b136ea224fe,,,,,,,,,30,-89,38,1,0,0,response7disk,,1,5,3,1,0,0,rectangle,5,3,1,0,0,5,3,1,0,0,1,8,168,146,1,,,,,,,,
,,,,,,,,,,,,,FF,,,,,,,,0.8783,,,,,,,,,,,,,,,,,,,,,,60fda145558ce7763d95441e,610377bc03bf8ae497a56e42,2021-07-30_12h01.56.683,Simcolourproject_2stim_asymm_v5,2020.2.10,Win32,60,61025ae37ef11b136ea224fe,,,,,,,,,3610,44,-76,1,0,0,response3disk,,4,-2,4,1,0,0,rectangle,-2,4,1,0,0,-2,4,1,0,0,1,9,169,19,1,,,,,,,,
,,,,,,,,,,,,,FF,,,,,,,,0.3841,,,,,,,,,,,,,,,,,,,,,,60fda145558ce7763d95441e,610377bc03bf8ae497a56e42,2021-07-30_12h01.56.683,Simcolourproject_2stim_asymm_v5,2020.2.10,Win32,60,61025ae37ef11b136ea224fe,,,,,,,,,764,-87,-54,1,0,0,response5disk,,2,10,-3,1,0,0,rectangle,10,-3,1,0,0,10,-3,1,0,0,1,10,170,98,1,,,,,,,,
,,,,,,,,,,,,,FF,,,,,,,,0.7366,,,,,,,,,,,,,,,,,,,,,,60fda145558ce7763d95441e,610377bc03bf8ae497a56e42,2021-07-30_12h01.56.683,Simcolourproject_2stim_asymm_v5,2020.2.10,Win32,60,61025ae37ef11b136ea224fe,,,,,,,,,756,51,61,1,0,0,response1disk,,7,33,8,1,0,0,rectangle,33,8,1,0,0,33,8,1,0,0,1,11,171,83,1,,,,,,,,
,,,,,,,,,,,,,FF,,,,,,,,0.7364,,,,,,,,,,,,,,,,,,,,,,60fda145558ce7763d95441e,610377bc03bf8ae497a56e42,2021-07-30_12h01.56.683,Simcolourproject_2stim_asymm_v5,2020.2.10,Win32,60,61025ae37ef11b136ea224fe,,,,,,,,,2674,40,-62,1,0,0,response3disk,,4,3,-4,1,0,0,rectangle,3,-4,1,0,0,3,-4,1,0,0,1,12,172,11,1,,,,,,,,
,,,,,,,,,,,,,FF,,,,,,,,0.4188,,,,,,,,,,,,,,,,,,,,,,60fda145558ce7763d95441e,610377bc03bf8ae497a56e42,2021-07-30_12h01.56.683,Simcolourproject_2stim_asymm_v5,2020.2.10,Win32,60,61025ae37ef11b136ea224fe,,,,,,,,,2698,-80,51,1,0,0,response7disk,,1,-3,12,1,0,0,rectangle,-3,12,1,0,0,-3,12,1,0,0,1,13,173,46,1,,,,,,,,
,,,,,,,,,,,,,FF,,,,,,,,0.668,,,,,,,,,,,,,,,,,,,,,,60fda145558ce7763d95441e,610377bc03bf8ae497a56e42,2021-07-30_12h01.56.683,Simcolourproject_2stim_asymm_v5,2020.2.10,Win32,60,61025ae37ef11b136ea224fe,,,,,,,,,598,41,61,1,0,0,response1disk,,7,13,5,1,0,0,rectangle,13,5,1,0,0,13,5,1,0,0,1,14,174,39,1,,,,,,,,
,,,,,,,,,,,,,FF,,,,,,,,0.8366,,,,,,,,,,,,,,,,,,,,,,60fda145558ce7763d95441e,610377bc03bf8ae497a56e42,2021-07-30_12h01.56.683,Simcolourproject_2stim_asymm_v5,2020.2.10,Win32,60,61025ae37ef11b136ea224fe,,,,,,,,,1958,33,-83,1,0,0,response3disk,,4,-5,-4,1,0,0,rectangle,-5,-4,1,0,0,-5,-4,1,0,0,1,15,175,1,1,,,,,,,,
,,,,,,,,,,,,,FF,,,,,,,,0.8032,,,,,,,,,,,,,,,,,,,,,,60fda145558ce7763d95441e,610377bc03bf8ae497a56e42,2021-07-30_12h01.56.683,Simcolourproject_2stim_asymm_v5,2020.2.10,Win32,60,61025ae37ef11b136ea224fe,,,,,,,,,3997,74,-53,1,0,0,response3disk,,5,4,2,1,0,0,rectangle,4,2,1,0,0,4,2,1,0,0,1,16,176,7,1,,,,,,,,
,,,,,,,,,,,,,FF,,,,,,,,0.4003,,,,,,,,,,,,,,,,,,,,,,60fda145558ce7763d95441e,610377bc03bf8ae497a56e42,2021-07-30_12h01.56.683,Simcolourproject_2stim_asymm_v5,2020.2.10,Win32,60,61025ae37ef11b136ea224fe,,,,,,,,,1474,33,-56,1,0,0,response3disk,,4,0,2,1,0,0,rectangle,-76,-40,1,0,0,13,-4,1,0,0,1,17,177,65,1,,response5disk_3,TRUE,2,5,"[2,69,74,42,135,147,285,209,160,75,20,242,75,97,315,283,39,178,277,315]",0.5342,rectangle
,,,,,,,,,,,,,FF,,,,,,,,0.6365,,,,,,,,,,,,,,,,,,,,,,60fda145558ce7763d95441e,610377bc03bf8ae497a56e42,2021-07-30_12h01.56.683,Simcolourproject_2stim_asymm_v5,2020.2.10,Win32,60,61025ae37ef11b136ea224fe,,,,,,,,,1358,36,-60,1,0,0,response3disk,,4,22,-3,1,0,0,rectangle,22,-3,1,0,0,22,-3,1,0,0,1,18,178,12,1,,,,,,,,
,,,,,,,,,,,,,FF,,,,,,,,0.9355,,,,,,,,,,,,,,,,,,,,,,60fda145558ce7763d95441e,610377bc03bf8ae497a56e42,2021-07-30_12h01.56.683,Simcolourproject_2stim_asymm_v5,2020.2.10,Win32,60,61025ae37ef11b136ea224fe,,,,,,,,,3615,47,81,1,0,0,response1disk,,7,10,5,1,0,0,rectangle,10,5,1,0,0,10,5,1,0,0,1,19,179,123,1,,,,,,,,
,,,,,,,,,,,,,FF,,,,,,,,0.7197,,,,,,,,,,,,,,,,,,,,,,60fda145558ce7763d95441e,610377bc03bf8ae497a56e42,2021-07-30_12h01.56.683,Simcolourproject_2stim_asymm_v5,2020.2.10,Win32,60,61025ae37ef11b136ea224fe,,,,,,,,,4073,50,-66,1,0,0,response3disk,,4,12,1,1,0,0,rectangle,12,1,1,0,0,12,1,1,0,0,1,20,180,78,1,,,,,,,,
,,,,,,,,,,,,,FF,,,,,,,,0.3684,,,,,,,,,,,,,,,,,,,,,,60fda145558ce7763d95441e,610377bc03bf8ae497a56e42,2021-07-30_12h01.56.683,Simcolourproject_2stim_asymm_v5,2020.2.10,Win32,60,61025ae37ef11b136ea224fe,,,,,,,,,453,-75,34,1,0,0,response7disk,,1,-10,7,1,0,0,rectangle,-10,7,1,0,0,-10,7,1,0,0,1,21,181,151,1,,,,,,,,
,,,,,,,,,,,,,FF,,,,,,,,0.5525,,,,,,,,,,,,,,,,,,,,,,60fda145558ce7763d95441e,610377bc03bf8ae497a56e42,2021-07-30_12h01.56.683,Simcolourproject_2stim_asymm_v5,2020.2.10,Win32,60,61025ae37ef11b136ea224fe,,,,,,,,,2501,44,-87,1,0,0,response3disk,,4,-1,12,1,0,0,rectangle,-1,12,1,0,0,-1,12,1,0,0,1,22,182,71,1,,,,,,,,
,,,,,,,,,,,,,FF,,,,,,,,0.6852,,,,,,,,,,,,,,,,,,,,,,60fda145558ce7763d95441e,610377bc03bf8ae497a56e42,2021-07-30_12h01.56.683,Simcolourproject_2stim_asymm_v5,2020.2.10,Win32,60,61025ae37ef11b136ea224fe,,,,,,,,,1784,39,69,1,0,0,response1disk,,7,14,4,1,0,0,rectangle,14,4,1,0,0,14,4,1,0,0,1,23,183,61,1,,,,,,,,
,,,,,,,,,,,,,FF,,,,,,,,0.6014,,,,,,,,,,,,,,,,,,,,,,60fda145558ce7763d95441e,610377bc03bf8ae497a56e42,2021-07-30_12h01.56.683,Simcolourproject_2stim_asymm_v5,2020.2.10,Win32,60,61025ae37ef11b136ea224fe,,,,,,,,,837,48,-79,1,0,0,response3disk,,4,2,4,1,0,0,rectangle,2,4,1,0,0,2,4,1,0,0,1,24,184,122,1,,,,,,,,
,,,,,,,,,,,,,FF,,,,,,,,0.7192,,,,,,,,,,,,,,,,,,,,,,60fda145558ce7763d95441e,610377bc03bf8ae497a56e42,2021-07-30_12h01.56.683,Simcolourproject_2stim_asymm_v5,2020.2.10,Win32,60,61025ae37ef11b136ea224fe,,,,,,,,,2128,-64,35,1,0,0,response7disk,,1,5,10,1,0,0,rectangle,5,10,1,0,0,5,10,1,0,0,1,25,185,147,1,,,,,,,,
,,,,,,,,,,,,,FF,,,,,,,,0.8532,,,,,,,,,,,,,,,,,,,,,,60fda145558ce7763d95441e,610377bc03bf8ae497a56e42,2021-07-30_12h01.56.683,Simcolourproject_2stim_asymm_v5,2020.2.10,Win32,60,61025ae37ef11b136ea224fe,,,,,,,,,3995,43,-73,1,0,0,response3disk,,4,-2,6,1,0,0,rectangle,-2,6,1,0,0,-2,6,1,0,0,1,26,186,72,1,,,,,,,,
,,,,,,,,,,,,,FF,,,,,,,,0.7371,,,,,,,,,,,,,,,,,,,,,,60fda145558ce7763d95441e,610377bc03bf8ae497a56e42,2021-07-30_12h01.56.683,Simcolourproject_2stim_asymm_v5,2020.2.10,Win32,60,61025ae37ef11b136ea224fe,,,,,,,,,1563,-42,-72,1,0,0,response5disk,,3,-6,6,1,0,0,rectangle,-6,6,1,0,0,-6,6,1,0,0,1,27,187,29,1,,,,,,,,
,,,,,,,,,,,,,FF,,,,,,,,0.9372,,,,,,,,,,,,,,,,,,,,,,60fda145558ce7763d95441e,610377bc03bf8ae497a56e42,2021-07-30_12h01.56.683,Simcolourproject_2stim_asymm_v5,2020.2.10,Win32,60,61025ae37ef11b136ea224fe,,,,,,,,,3619,-63,53,1,0,0,response7disk,,1,3,-1,1,0,0,rectangle,3,-1,1,0,0,3,-1,1,0,0,1,28,188,101,1,,,,,,,,
,,,,,,,,,,,,,FF,,,,,,,,0.6538,,,,,,,,,,,,,,,,,,,,,,60fda145558ce7763d95441e,610377bc03bf8ae497a56e42,2021-07-30_12h01.56.683,Simcolourproject_2stim_asymm_v5,2020.2.10,Win32,60,61025ae37ef11b136ea224fe,,,,,,,,,2608,41,80,1,0,0,response1disk,,7,18,-1,1,0,0,rectangle,18,-1,1,0,0,18,-1,1,0,0,1,29,189,158,1,,,,,,,,
,,,,,,,,,,,,,FF,,,,,,,,0.7693,,,,,,,,,,,,,,,,,,,,,,60fda145558ce7763d95441e,610377bc03bf8ae497a56e42,2021-07-30_12h01.56.683,Simcolourproject_2stim_asymm_v5,2020.2.10,Win32,60,61025ae37ef11b136ea224fe,,,,,,,,,1957,49,-64,1,0,0,response3disk,,4,7,3,1,0,0,rectangle,7,3,1,0,0,7,3,1,0,0,1,30,190,82,1,,,,,,,,
,,,,,,,,,,,,,FF,,,,,,,,0.8537,,,,,,,,,,,,,,,,,,,,,,60fda145558ce7763d95441e,610377bc03bf8ae497a56e42,2021-07-30_12h01.56.683,Simcolourproject_2stim_asymm_v5,2020.2.10,Win32,60,61025ae37ef11b136ea224fe,,,,,,,,,3079,-87,-47,1,0,0,response5disk,,2,-11,8,1,0,0,rectangle,-11,8,1,0,0,-11,8,1,0,0,1,31,191,24,1,,,,,,,,
,,,,,,,,,,,,,FF,,,,,,,,0.7682,,,,,,,,,,,,,,,,,,,,,,60fda145558ce7763d95441e,610377bc03bf8ae497a56e42,2021-07-30_12h01.56.683,Simcolourproject_2stim_asymm_v5,2020.2.10,Win32,60,61025ae37ef11b136ea224fe,,,,,,,,,971,34,-76,1,0,0,response3disk,,4,4,9,1,0,0,rectangle,4,9,1,0,0,4,9,1,0,0,1,32,192,80,1,,,,,,,,
,,,,,,,,,,,,,FF,,,,,,,,0.619,,,,,,,,,,,,,,,,,,,,,,60fda145558ce7763d95441e,610377bc03bf8ae497a56e42,2021-07-30_12h01.56.683,Simcolourproject_2stim_asymm_v5,2020.2.10,Win32,60,61025ae37ef11b136ea224fe,,,,,,,,,1218,-37,51,1,0,0,response7disk,,0,11,6,1,0,0,rectangle,11,6,1,0,0,11,6,1,0,0,1,33,193,93,1,,,,,,,,
,,,,,,,,,,,,,FF,,,,,,,,0.7692,,,,,,,,,,,,,,,,,,,,,,60fda145558ce7763d95441e,610377bc03bf8ae497a56e42,2021-07-30_12h01.56.683,Simcolourproject_2stim_asymm_v5,2020.2.10,Win32,60,61025ae37ef11b136ea224fe,,,,,,,,,1251,37,-82,1,0,0,response3disk,,4,-3,3,1,0,0,rectangle,-3,3,1,0,0,-3,3,1,0,0,1,34,194,69,1,,,,,,,,
,,,,,,,,,,,,,FF,,,,,,,,0.6525,,,,,,,,,,,,,,,,,,,,,,60fda145558ce7763d95441e,610377bc03bf8ae497a56e42,2021-07-30_12h01.56.683,Simcolourproject_2stim_asymm_v5,2020.2.10,Win32,60,61025ae37ef11b136ea224fe,,,,,,,,,233,-46,-71,1,0,0,response5disk,,3,5,3,1,0,0,rectangle,5,3,1,0,0,5,3,1,0,0,1,35,195,139,1,,,,,,,,
,,,,,,,,,,,,,FF,,,,,,,,0.6017,,,,,,,,,,,,,,,,,,,,,,60fda145558ce7763d95441e,610377bc03bf8ae497a56e42,2021-07-30_12h01.56.683,Simcolourproject_2stim_asymm_v5,2020.2.10,Win32,60,61025ae37ef11b136ea224fe,,,,,,,,,2611,-62,-18,1,0,0,response5disk,,2,20,10,1,0,0,rectangle,20,10,1,0,0,20,10,1,0,0,1,36,196,58,1,,,,,,,,
,,,,,,,,,,,,,FF,,,,,,,,0.8357,,,,,,,,,,,,,,,,,,,,,,60fda145558ce7763d95441e,610377bc03bf8ae497a56e42,2021-07-30_12h01.56.683,Simcolourproject_2stim_asymm_v5,2020.2.10,Win32,60,61025ae37ef11b136ea224fe,,,,,,,,,1465,-70,39,1,0,0,response7disk,,1,-11,-3,1,0,0,rectangle,-11,-3,1,0,0,-11,-3,1,0,0,1,37,197,48,1,,,,,,,,
,,,,,,,,,,,,,FF,,,,,,,,0.7201,,,,,,,,,,,,,,,,,,,,,,60fda145558ce7763d95441e,610377bc03bf8ae497a56e42,2021-07-30_12h01.56.683,Simcolourproject_2stim_asymm_v5,2020.2.10,Win32,60,61025ae37ef11b136ea224fe,,,,,,,,,1946,34,-68,1,0,0,response3disk,,4,3,-6,1,0,0,rectangle,3,-6,1,0,0,3,-6,1,0,0,1,38,198,31,1,,,,,,,,
,,,,,,,,,,,,,FF,,,,,,,,0.5853,,,,,,,,,,,,,,,,,,,,,,60fda145558ce7763d95441e,610377bc03bf8ae497a56e42,2021-07-30_12h01.56.683,Simcolourproject_2stim_asymm_v5,2020.2.10,Win32,60,61025ae37ef11b136ea224fe,,,,,,,,,661,-40,-75,1,0,0,response5disk,,3,10,5,1,0,0,rectangle,10,5,1,0,0,10,5,1,0,0,1,39,199,68,1,,,,,,,,
,,,,,,,,,,,,,FF,,,,,,,,0.6531,,,,,,,,,,,,,,,,,,,,,,60fda145558ce7763d95441e,610377bc03bf8ae497a56e42,2021-07-30_12h01.56.683,Simcolourproject_2stim_asymm_v5,2020.2.10,Win32,60,61025ae37ef11b136ea224fe,,,,,,,,,3522,-41,70,1,0,0,response7disk,,0,6,1,1,0,0,rectangle,6,1,1,0,0,6,1,1,0,0,1,40,200,26,1,,,,,,,,
,,,,,,,,,,,,,FF,,,,,,,,0.5189,,,,,,,,,,,,,,,,,,,,,,60fda145558ce7763d95441e,610377bc03bf8ae497a56e42,2021-07-30_12h01.56.683,Simcolourproject_2stim_asymm_v5,2020.2.10,Win32,60,61025ae37ef11b136ea224fe,,,,,,,,,1149,70,43,1,0,0,response1disk,,6,26,0,1,0,0,rectangle,26,0,1,0,0,26,0,1,0,0,1,41,201,149,1,,,,,,,,
,,,,,,,,,,,,,FF,,,,,,,,0.585,,,,,,,,,,,,,,,,,,,,,,60fda145558ce7763d95441e,610377bc03bf8ae497a56e42,2021-07-30_12h01.56.683,Simcolourproject_2stim_asymm_v5,2020.2.10,Win32,60,61025ae37ef11b136ea224fe,,,,,,,,,3706,31,-53,1,0,0,response3disk,,4,0,7,1,0,0,rectangle,0,7,1,0,0,0,7,1,0,0,1,42,202,87,1,,,,,,,,
,,,,,,,,,,,,,FF,,,,,,,,1.925,,,,,,,,,,,,,,,,,,,,,,60fda145558ce7763d95441e,610377bc03bf8ae497a56e42,2021-07-30_12h01.56.683,Simcolourproject_2stim_asymm_v5,2020.2.10,Win32,60,61025ae37ef11b136ea224fe,,,,,,,,,117,-66,-94,1,0,0,response5disk,,3,9,-2,1,0,0,rectangle,9,-2,1,0,0,9,-2,1,0,0,1,43,203,127,1,,,,,,,,
,,,,,,,,,,,,,FF,,,,,,,,0.9364,,,,,,,,,,,,,,,,,,,,,,60fda145558ce7763d95441e,610377bc03bf8ae497a56e42,2021-07-30_12h01.56.683,Simcolourproject_2stim_asymm_v5,2020.2.10,Win32,60,61025ae37ef11b136ea224fe,,,,,,,,,1133,76,105,1,0,0,response1disk,,7,6,12,1,0,0,rectangle,6,12,1,0,0,6,12,1,0,0,1,44,204,13,1,,,,,,,,
,,,,,,,,,,,,,FF,,,,,,,,0.5843,,,,,,,,,,,,,,,,,,,,,,60fda145558ce7763d95441e,610377bc03bf8ae497a56e42,2021-07-30_12h01.56.683,Simcolourproject_2stim_asymm_v5,2020.2.10,Win32,60,61025ae37ef11b136ea224fe,,,,,,,,,3211,38,-75,1,0,0,response3disk,,4,1,6,1,0,0,rectangle,1,6,1,0,0,1,6,1,0,0,1,45,205,85,1,,,,,,,,
,,,,,,,,,,,,,FF,,,,,,,,0.6683,,,,,,,,,,,,,,,,,,,,,,60fda145558ce7763d95441e,610377bc03bf8ae497a56e42,2021-07-30_12h01.56.683,Simcolourproject_2stim_asymm_v5,2020.2.10,Win32,60,61025ae37ef11b136ea224fe,,,,,,,,,1049,82,-22,1,0,0,response3disk,,5,18,3,1,0,0,rectangle,18,3,1,0,0,18,3,1,0,0,1,46,206,153,1,,,,,,,,
,,,,,,,,,,,,,FF,,,,,,,,0.4337,,,,,,,,,,,,,,,,,,,,,,60fda145558ce7763d95441e,610377bc03bf8ae497a56e42,2021-07-30_12h01.56.683,Simcolourproject_2stim_asymm_v5,2020.2.10,Win32,60,61025ae37ef11b136ea224fe,,,,,,,,,3053,-37,-48,1,0,0,response5disk,,3,-5,1,1,0,0,rectangle,-5,1,1,0,0,-5,1,1,0,0,1,47,207,36,1,,,,,,,,
,,,,,,,,,,,,,FF,,,,,,,,0.6687,,,,,,,,,,,,,,,,,,,,,,60fda145558ce7763d95441e,610377bc03bf8ae497a56e42,2021-07-30_12h01.56.683,Simcolourproject_2stim_asymm_v5,2020.2.10,Win32,60,61025ae37ef11b136ea224fe,,,,,,,,,2119,-49,43,1,0,0,response7disk,,1,14,-3,1,0,0,rectangle,-45,-85,1,0,0,-4,2,1,0,0,1,48,208,54,1,,response5disk_3,TRUE,3,3,"[2,69,74,42,135,147,285,209,160,75,20,242,75,97,315,283,39,178,277,315]",2.0577,rectangle
,,,,,,,,,,,,,FF,,,,,,,,1.0705,,,,,,,,,,,,,,,,,,,,,,60fda145558ce7763d95441e,610377bc03bf8ae497a56e42,2021-07-30_12h01.56.683,Simcolourproject_2stim_asymm_v5,2020.2.10,Win32,60,61025ae37ef11b136ea224fe,,,,,,,,,4143,37,-71,1,0,0,response3disk,,4,-11,-2,1,0,0,rectangle,-11,-2,1,0,0,-11,-2,1,0,0,1,49,209,89,1,,,,,,,,
,,,,,,,,,,,,,FF,,,,,,,,0.3515,,,,,,,,,,,,,,,,,,,,,,60fda145558ce7763d95441e,610377bc03bf8ae497a56e42,2021-07-30_12h01.56.683,Simcolourproject_2stim_asymm_v5,2020.2.10,Win32,60,61025ae37ef11b136ea224fe,,,,,,,,,2831,68,38,1,0,0,response1disk,,6,1,8,1,0,0,rectangle,1,8,1,0,0,1,8,1,0,0,1,50,210,34,1,,,,,,,,
,,,,,,,,,,,,,FF,,,,,,,,0.3676,,,,,,,,,,,,,,,,,,,,,,60fda145558ce7763d95441e,610377bc03bf8ae497a56e42,2021-07-30_12h01.56.683,Simcolourproject_2stim_asymm_v5,2020.2.10,Win32,60,61025ae37ef11b136ea224fe,,,,,,,,,3375,-87,34,1,0,0,response7disk,,1,7,1,1,0,0,rectangle,7,1,1,0,0,7,1,1,0,0,1,51,211,51,1,,,,,,,,
,,,,,,,,,,,,,FF,,,,,,,,0.4013,,,,,,,,,,,,,,,,,,,,,,60fda145558ce7763d95441e,610377bc03bf8ae497a56e42,2021-07-30_12h01.56.683,Simcolourproject_2stim_asymm_v5,2020.2.10,Win32,60,61025ae37ef11b136ea224fe,,,,,,,,,595,42,75,1,0,0,response1disk,,7,4,13,1,0,0,rectangle,4,13,1,0,0,4,13,1,0,0,1,52,212,81,1,,,,,,,,
,,,,,,,,,,,,,FF,,,,,,,,0.3848,,,,,,,,,,,,,,,,,,,,,,60fda145558ce7763d95441e,610377bc03bf8ae497a56e42,2021-07-30_12h01.56.683,Simcolourproject_2stim_asymm_v5,2020.2.10,Win32,60,61025ae37ef11b136ea224fe,,,,,,,,,2765,48,-69,1,0,0,response3disk,,4,-9,6,1,0,0,rectangle,-9,6,1,0,0,-9,6,1,0,0,1,53,213,59,1,,,,,,,,
,,,,,,,,,,,,,FF,,,,,,,,0.3842,,,,,,,,,,,,,,,,,,,,,,60fda145558ce7763d95441e,610377bc03bf8ae497a56e42,2021-07-30_12h01.56.683,Simcolourproject_2stim_asymm_v5,2020.2.10,Win32,60,61025ae37ef11b136ea224fe,,,,,,,,,4005,-53,-80,1,0,0,response5disk,,3,-4,2,1,0,0,rectangle,-4,2,1,0,0,-4,2,1,0,0,1,54,214,144,1,,,,,,,,
,,,,,,,,,,,,,FF,,,,,,,,0.4352,,,,,,,,,,,,,,,,,,,,,,60fda145558ce7763d95441e,610377bc03bf8ae497a56e42,2021-07-30_12h01.56.683,Simcolourproject_2stim_asymm_v5,2020.2.10,Win32,60,61025ae37ef11b136ea224fe,,,,,,,,,1915,-62,61,1,0,0,response7disk,,1,-12,13,1,0,0,rectangle,-12,13,1,0,0,-12,13,1,0,0,1,55,215,152,1,,,,,,,,
,,,,,,,,,,,,,FF,,,,,,,,0.4508,,,,,,,,,,,,,,,,,,,,,,60fda145558ce7763d95441e,610377bc03bf8ae497a56e42,2021-07-30_12h01.56.683,Simcolourproject_2stim_asymm_v5,2020.2.10,Win32,60,61025ae37ef11b136ea224fe,,,,,,,,,2473,54,40,1,0,0,response1disk,,6,17,4,1,0,0,rectangle,17,4,1,0,0,17,4,1,0,0,1,56,216,73,1,,,,,,,,
,,,,,,,,,,,,,FF,,,,,,,,0.4346,,,,,,,,,,,,,,,,,,,,,,60fda145558ce7763d95441e,610377bc03bf8ae497a56e42,2021-07-30_12h01.56.683,Simcolourproject_2stim_asymm_v5,2020.2.10,Win32,60,61025ae37ef11b136ea224fe,,,,,,,,,3394,-60,-82,1,0,0,response5disk,,3,-15,6,1,0,0,rectangle,-15,6,1,0,0,-15,6,1,0,0,1,57,217,131,1,,,,,,,,
,,,,,,,,,,,,,FF,,,,,,,,0.502,,,,,,,,,,,,,,,,,,,,,,60fda145558ce7763d95441e,610377bc03bf8ae497a56e42,2021-07-30_12h01.56.683,Simcolourproject_2stim_asymm_v5,2020.2.10,Win32,60,61025ae37ef11b136ea224fe,,,,,,,,,642,49,-63,1,0,0,response3disk,,4,19,-7,1,0,0,rectangle,19,-7,1,0,0,19,-7,1,0,0,1,58,218,28,1,,,,,,,,
,,,,,,,,,,,,,FF,,,,,,,,0.4014,,,,,,,,,,,,,,,,,,,,,,60fda145558ce7763d95441e,610377bc03bf8ae497a56e42,2021-07-30_12h01.56.683,Simcolourproject_2stim_asymm_v5,2020.2.10,Win32,60,61025ae37ef11b136ea224fe,,,,,,,,,3197,-64,48,1,0,0,response7disk,,1,-1,-1,1,0,0,rectangle,-1,-1,1,0,0,-1,-1,1,0,0,1,59,219,96,1,,,,,,,,
,,,,,,,,,,,,,FF,,,,,,,,0.3344,,,,,,,,,,,,,,,,,,,,,,60fda145558ce7763d95441e,610377bc03bf8ae497a56e42,2021-07-30_12h01.56.683,Simcolourproject_2stim_asymm_v5,2020.2.10,Win32,60,61025ae37ef11b136ea224fe,,,,,,,,,2299,49,72,1,0,0,response1disk,,7,18,-5,1,0,0,rectangle,18,-5,1,0,0,18,-5,1,0,0,1,60,220,111,1,,,,,,,,
,,,,,,,,,,,,,FF,,,,,,,,0.5186,,,,,,,,,,,,,,,,,,,,,,60fda145558ce7763d95441e,610377bc03bf8ae497a56e42,2021-07-30_12h01.56.683,Simcolourproject_2stim_asymm_v5,2020.2.10,Win32,60,61025ae37ef11b136ea224fe,,,,,,,,,3410,34,-65,1,0,0,response3disk,,4,-12,5,1,0,0,rectangle,-12,5,1,0,0,-12,5,1,0,0,1,61,221,90,1,,,,,,,,
,,,,,,,,,,,,,FF,,,,,,,,1.4229,,,,,,,,,,,,,,,,,,,,,,60fda145558ce7763d95441e,610377bc03bf8ae497a56e42,2021-07-30_12h01.56.683,Simcolourproject_2stim_asymm_v5,2020.2.10,Win32,60,61025ae37ef11b136ea224fe,,,,,,,,,4000,-56,-79,1,0,0,response5disk,,3,10,-5,1,0,0,rectangle,10,-5,1,0,0,10,-5,1,0,0,1,62,222,6,1,,,,,,,,
,,,,,,,,,,,,,FF,,,,,,,,0.6858,,,,,,,,,,,,,,,,,,,,,,60fda145558ce7763d95441e,610377bc03bf8ae497a56e42,2021-07-30_12h01.56.683,Simcolourproject_2stim_asymm_v5,2020.2.10,Win32,60,61025ae37ef11b136ea224fe,,,,,,,,,2892,-26,77,1,0,0,response7disk,,0,8,8,1,0,0,rectangle,8,8,1,0,0,8,8,1,0,0,1,63,223,154,1,,,,,,,,
,,,,,,,,,,,,,FF,,,,,,,,0.6689,,,,,,,,,,,,,,,,,,,,,,60fda145558ce7763d95441e,610377bc03bf8ae497a56e42,2021-07-30_12h01.56.683,Simcolourproject_2stim_asymm_v5,2020.2.10,Win32,60,61025ae37ef11b136ea224fe,,,,,,,,,2702,86,37,1,0,0,response1disk,,6,-3,-11,1,0,0,rectangle,-3,-11,1,0,0,-3,-11,1,0,0,1,64,224,124,1,,,,,,,,
,,,,,,,,,,,,,FF,,,,,,,,0.5844,,,,,,,,,,,,,,,,,,,,,,60fda145558ce7763d95441e,610377bc03bf8ae497a56e42,2021-07-30_12h01.56.683,Simcolourproject_2stim_asymm_v5,2020.2.10,Win32,60,61025ae37ef11b136ea224fe,,,,,,,,,315,67,-36,1,0,0,response3disk,,5,2,-1,1,0,0,rectangle,2,-1,1,0,0,2,-1,1,0,0,1,65,225,157,1,,,,,,,,
,,,,,,,,,,,,,FF,,,,,,,,0.802,,,,,,,,,,,,,,,,,,,,,,60fda145558ce7763d95441e,610377bc03bf8ae497a56e42,2021-07-30_12h01.56.683,Simcolourproject_2stim_asymm_v5,2020.2.10,Win32,60,61025ae37ef11b136ea224fe,,,,,,,,,1446,45,-59,1,0,0,response3disk,,4,-11,4,1,0,0,rectangle,-11,4,1,0,0,-11,4,1,0,0,1,66,226,14,1,,,,,,,,
,,,,,,,,,,,,,FF,,,,,,,,0.8192,,,,,,,,,,,,,,,,,,,,,,60fda145558ce7763d95441e,610377bc03bf8ae497a56e42,2021-07-30_12h01.56.683,Simcolourproject_2stim_asymm_v5,2020.2.10,Win32,60,61025ae37ef11b136ea224fe,,,,,,,,,1176,-75,-42,1,0,0,response5disk,,2,10,1,1,0,0,rectangle,10,1,1,0,0,10,1,1,0,0,1,67,227,115,1,,,,,,,,
,,,,,,,,,,,,,FF,,,,,,,,2.3933,,,,,,,,,,,,,,,,,,,,,,60fda145558ce7763d95441e,610377bc03bf8ae497a56e42,2021-07-30_12h01.56.683,Simcolourproject_2stim_asymm_v5,2020.2.10,Win32,60,61025ae37ef11b136ea224fe,,,,,,,,,1185,55,-90,1,0,0,response3disk,,4,2,5,1,0,0,rectangle,2,5,1,0,0,2,5,1,0,0,1,68,228,22,1,,,,,,,,
,,,,,,,,,,,,,FF,,,,,,,,0.6025,,,,,,,,,,,,,,,,,,,,,,60fda145558ce7763d95441e,610377bc03bf8ae497a56e42,2021-07-30_12h01.56.683,Simcolourproject_2stim_asymm_v5,2020.2.10,Win32,60,61025ae37ef11b136ea224fe,,,,,,,,,3871,63,-32,1,0,0,response3disk,,5,3,1,1,0,0,rectangle,3,1,1,0,0,3,1,1,0,0,1,69,229,16,1,,,,,,,,
,,,,,,,,,,,,,FF,,,,,,,,0.7026,,,,,,,,,,,,,,,,,,,,,,60fda145558ce7763d95441e,610377bc03bf8ae497a56e42,2021-07-30_12h01.56.683,Simcolourproject_2stim_asymm_v5,2020.2.10,Win32,60,61025ae37ef11b136ea224fe,,,,,,,,,2687,-42,-96,1,0,0,response5disk,,3,2,0,1,0,0,rectangle,2,0,1,0,0,2,0,1,0,0,1,70,230,140,1,,,,,,,,
,,,,,,,,,,,,,FF,,,,,,,,0.5345,,,,,,,,,,,,,,,,,,,,,,60fda145558ce7763d95441e,610377bc03bf8ae497a56e42,2021-07-30_12h01.56.683,Simcolourproject_2stim_asymm_v5,2020.2.10,Win32,60,61025ae37ef11b136ea224fe,,,,,,,,,29,55,-73,1,0,0,response3disk,,4,0,2,1,0,0,rectangle,0,2,1,0,0,0,2,1,0,0,1,71,231,43,1,,,,,,,,
,,,,,,,,,,,,,FF,,,,,,,,27.2408,,,,,,,,,,,,,,,,,,,,,,60fda145558ce7763d95441e,610377bc03bf8ae497a56e42,2021-07-30_12h01.56.683,Simcolourproject_2stim_asymm_v5,2020.2.10,Win32,60,61025ae37ef11b136ea224fe,,,,,,,,,2655,39,88,1,0,0,response1disk,,7,-16,2,1,0,0,rectangle,-16,2,1,0,0,-16,2,1,0,0,1,72,232,100,1,,,,,,,,
,,,,,,,,,,,,,FF,,,,,,,,8.6017,,,,,,,,,,,,,,,,,,,,,,60fda145558ce7763d95441e,610377bc03bf8ae497a56e42,2021-07-30_12h01.56.683,Simcolourproject_2stim_asymm_v5,2020.2.10,Win32,60,61025ae37ef11b136ea224fe,,,,,,,,,2215,-63,-49,1,0,0,response5disk,,2,-12,-5,1,0,0,rectangle,-12,-5,1,0,0,-12,-5,1,0,0,1,73,233,20,1,,,,,,,,
,,,,,,,,,,,,,FF,,,,,,,,0.87,,,,,,,,,,,,,,,,,,,,,,60fda145558ce7763d95441e,610377bc03bf8ae497a56e42,2021-07-30_12h01.56.683,Simcolourproject_2stim_asymm_v5,2020.2.10,Win32,60,61025ae37ef11b136ea224fe,,,,,,,,,2977,68,-41,1,0,0,response3disk,,5,13,3,1,0,0,rectangle,13,3,1,0,0,13,3,1,0,0,1,74,234,159,1,,,,,,,,
,,,,,,,,,,,,,FF,,,,,,,,0.7178,,,,,,,,,,,,,,,,,,,,,,60fda145558ce7763d95441e,610377bc03bf8ae497a56e42,2021-07-30_12h01.56.683,Simcolourproject_2stim_asymm_v5,2020.2.10,Win32,60,61025ae37ef11b136ea224fe,,,,,,,,,2080,-92,-48,1,0,0,response5disk,,2,-1,3,1,0,0,rectangle,-1,3,1,0,0,-1,3,1,0,0,1,75,235,62,1,,,,,,,,
,,,,,,,,,,,,,FF,,,,,,,,0.4829,,,,,,,,,,,,,,,,,,,,,,60fda145558ce7763d95441e,610377bc03bf8ae497a56e42,2021-07-30_12h01.56.683,Simcolourproject_2stim_asymm_v5,2020.2.10,Win32,60,61025ae37ef11b136ea224fe,,,,,,,,,4335,41,-62,1,0,0,response3disk,,4,16,7,1,0,0,rectangle,16,7,1,0,0,16,7,1,0,0,1,76,236,112,1,,,,,,,,
,,,,,,,,,,,,,FF,,,,,,,,0.888,,,,,,,,,,,,,,,,,,,,,,60fda145558ce7763d95441e,610377bc03bf8ae497a56e42,2021-07-30_12h01.56.683,Simcolourproject_2stim_asymm_v5,2020.2.10,Win32,60,61025ae37ef11b136ea224fe,,,,,,,,,1559,41,60,1,0,0,response1disk,,7,0,-5,1,0,0,rectangle,0,-5,1,0,0,0,-5,1,0,0,1,77,237,66,1,,,,,,,,
,,,,,,,,,,,,,FF,,,,,,,,0.5187,,,,,,,,,,,,,,,,,,,,,,60fda145558ce7763d95441e,610377bc03bf8ae497a56e42,2021-07-30_12h01.56.683,Simcolourproject_2stim_asymm_v5,2020.2.10,Win32,60,61025ae37ef11b136ea224fe,,,,,,,,,3173,-88,28,1,0,0,response7disk,,1,-9,-7,1,0,0,rectangle,-9,-7,1,0,0,-9,-7,1,0,0,1,78,238,23,1,,,,,,,,
,,,,,,,,,,,,,FF,,,,,,,,1.0545,,,,,,,,,,,,,,,,,,,,,,60fda145558ce7763d95441e,610377bc03bf8ae497a56e42,2021-07-30_12h01.56.683,Simcolourproject_2stim_asymm_v5,2020.2.10,Win32,60,61025ae37ef11b136ea224fe,,,,,,,,,2062,-60,-51,1,0,0,response5disk,,2,15,3,1,0,0,rectangle,15,3,1,0,0,15,3,1,0,0,1,79,239,17,1,,,,,,,,
,,,,,,,,,,,,,FF,,,,,,,,0.6519,,,,,,,,,,,,,,,,,,,,,,60fda145558ce7763d95441e,610377bc03bf8ae497a56e42,2021-07-30_12h01.56.683,Simcolourproject_2stim_asymm_v5,2020.2.10,Win32,60,61025ae37ef11b136ea224fe,,,,,,,,,2396,48,-72,1,0,0,response3disk,,4,7,6,1,0,0,rectangle,7,6,1,0,0,7,6,1,0,0,1,80,240,77,1,,,,,,,,
,,,,,,,,,,,,,FF,,,,,,,,0.6187,,,,,,,,,,,,,,,,,,,,,,60fda145558ce7763d95441e,610377bc03bf8ae497a56e42,2021-07-30_12h01.56.683,Simcolourproject_2stim_asymm_v5,2020.2.10,Win32,60,61025ae37ef11b136ea224fe,,,,,,,,,1953,38,61,1,0,0,response1disk,,7,17,-4,1,0,0,rectangle,70,32,1,0,0,18,9,1,0,0,1,81,241,79,1,,response1disk_3,TRUE,6,6,"[2,69,74,42,135,147,285,209,160,75,20,242,75,97,315,283,39,178,277,315]",2.1417,rectangle
,,,,,,,,,,,,,FF,,,,,,,,0.771,,,,,,,,,,,,,,,,,,,,,,60fda145558ce7763d95441e,610377bc03bf8ae497a56e42,2021-07-30_12h01.56.683,Simcolourproject_2stim_asymm_v5,2020.2.10,Win32,60,61025ae37ef11b136ea224fe,,,,,,,,,3234,-35,82,1,0,0,response7disk,,0,-7,6,1,0,0,rectangle,-7,6,1,0,0,-7,6,1,0,0,1,82,242,97,1,,,,,,,,
,,,,,,,,,,,,,FF,,,,,,,,0.5339,,,,,,,,,,,,,,,,,,,,,,60fda145558ce7763d95441e,610377bc03bf8ae497a56e42,2021-07-30_12h01.56.683,Simcolourproject_2stim_asymm_v5,2020.2.10,Win32,60,61025ae37ef11b136ea224fe,,,,,,,,,253,-72,-53,1,0,0,response5disk,,2,1,0,1,0,0,rectangle,1,0,1,0,0,1,0,1,0,0,1,83,243,142,1,,,,,,,,
,,,,,,,,,,,,,FF,,,,,,,,1.1711,,,,,,,,,,,,,,,,,,,,,,60fda145558ce7763d95441e,610377bc03bf8ae497a56e42,2021-07-30_12h01.56.683,Simcolourproject_2stim_asymm_v5,2020.2.10,Win32,60,61025ae37ef11b136ea224fe,,,,,,,,,1632,43,-86,1,0,0,response3disk,,4,-7,-3,1,0,0,rectangle,-7,-3,1,0,0,-7,-3,1,0,0,1,84,244,95,1,,,,,,,,
,,,,,,,,,,,,,FF,,,,,,,,3.715,,,,,,,,,,,,,,,,,,,,,,60fda145558ce7763d95441e,610377bc03bf8ae497a56e42,2021-07-30_12h01.56.683,Simcolourproject_2stim_asymm_v5,2020.2.10,Win32,60,61025ae37ef11b136ea224fe,,,,,,,,,3552,53,85,1,0,0,response1disk,,7,7,-3,1,0,0,rectangle,7,-3,1,0,0,7,-3,1,0,0,1,85,245,143,1,,,,,,,,
,,,,,,,,,,,,,FF,,,,,,,,0.8864,,,,,,,,,,,,,,,,,,,,,,60fda145558ce7763d95441e,610377bc03bf8ae497a56e42,2021-07-30_12h01.56.683,Simcolourproject_2stim_asymm_v5,2020.2.10,Win32,60,61025ae37ef11b136ea224fe,,,,,,,,,3529,73,-41,1,0,0,response3disk,,5,-3,-6,1,0,0,rectangle,-3,-6,1,0,0,-3,-6,1,0,0,1,86,246,21,1,,,,,,,,
,,,,,,,,,,,,,FF,,,,,,,,0.6866,,,,,,,,,,,,,,,,,,,,,,60fda145558ce7763d95441e,610377bc03bf8ae497a56e42,2021-07-30_12h01.56.683,Simcolourproject_2stim_asymm_v5,2020.2.10,Win32,60,61025ae37ef11b136ea224fe,,,,,,,,,2524,-52,-32,1,0,0,response5disk,,2,25,8,1,0,0,rectangle,25,8,1,0,0,25,8,1,0,0,1,87,247,150,1,,,,,,,,
,,,,,,,,,,,,,FF,,,,,,,,1.0207,,,,,,,,,,,,,,,,,,,,,,60fda145558ce7763d95441e,610377bc03bf8ae497a56e42,2021-07-30_12h01.56.683,Simcolourproject_2stim_asymm_v5,2020.2.10,Win32,60,61025ae37ef11b136ea224fe,,,,,,,,,2496,-37,96,1,0,0,response7disk,,0,-1,6,1,0,0,rectangle,-1,6,1,0,0,-1,6,1,0,0,1,88,248,38,1,,,,,,,,
,,,,,,,,,,,,,FF,,,,,,,,0.6849,,,,,,,,,,,,,,,,,,,,,,60fda145558ce7763d95441e,610377bc03bf8ae497a56e42,2021-07-30_12h01.56.683,Simcolourproject_2stim_asymm_v5,2020.2.10,Win32,60,61025ae37ef11b136ea224fe,,,,,,,,,3770,27,-79,1,0,0,response3disk,,4,-4,-10,1,0,0,rectangle,-4,-10,1,0,0,-4,-10,1,0,0,1,89,249,2,1,,,,,,,,
,,,,,,,,,,,,,FF,,,,,,,,1.0709,,,,,,,,,,,,,,,,,,,,,,60fda145558ce7763d95441e,610377bc03bf8ae497a56e42,2021-07-30_12h01.56.683,Simcolourproject_2stim_asymm_v5,2020.2.10,Win32,60,61025ae37ef11b136ea224fe,,,,,,,,,370,-31,-89,1,0,0,response5disk,,3,3,3,1,0,0,rectangle,3,3,1,0,0,3,3,1,0,0,1,90,250,120,1,,,,,,,,
,,,,,,,,,,,,,FF,,,,,,,,0.3846,,,,,,,,,,,,,,,,,,,,,,60fda145558ce7763d95441e,610377bc03bf8ae497a56e42,2021-07-30_12h01.56.683,Simcolourproject_2stim_asymm_v5,2020.2.10,Win32,60,61025ae37ef11b136ea224fe,,,,,,,,,1748,-72,-27,1,0,0,response5disk,,2,-21,-7,1,0,0,rectangle,-21,-7,1,0,0,-21,-7,1,0,0,1,91,251,33,1,,,,,,,,
,,,,,,,,,,,,,FF,,,,,,,,0.4852,,,,,,,,,,,,,,,,,,,,,,60fda145558ce7763d95441e,610377bc03bf8ae497a56e42,2021-07-30_12h01.56.683,Simcolourproject_2stim_asymm_v5,2020.2.10,Win32,60,61025ae37ef11b136ea224fe,,,,,,,,,2955,64,75,1,0,0,response1disk,,7,-6,-3,1,0,0,rectangle,-6,-3,1,0,0,-6,-3,1,0,0,1,92,252,50,1,,,,,,,,
,,,,,,,,,,,,,FF,,,,,,,,0.6188,,,,,,,,,,,,,,,,,,,,,,60fda145558ce7763d95441e,610377bc03bf8ae497a56e42,2021-07-30_12h01.56.683,Simcolourproject_2stim_asymm_v5,2020.2.10,Win32,60,61025ae37ef11b136ea224fe,,,,,,,,,1384,42,-64,1,0,0,response3disk,,4,14,7,1,0,0,rectangle,14,7,1,0,0,14,7,1,0,0,1,93,253,0,1,,,,,,,,
,,,,,,,,,,,,,FF,,,,,,,,0.4336,,,,,,,,,,,,,,,,,,,,,,60fda145558ce7763d95441e,610377bc03bf8ae497a56e42,2021-07-30_12h01.56.683,Simcolourproject_2stim_asymm_v5,2020.2.10,Win32,60,61025ae37ef11b136ea224fe,,,,,,,,,647,-80,36,1,0,0,response7disk,,1,-19,-10,1,0,0,rectangle,-19,-10,1,0,0,-19,-10,1,0,0,1,94,254,9,1,,,,,,,,
,,,,,,,,,,,,,FF,,,,,,,,0.5511,,,,,,,,,,,,,,,,,,,,,,60fda145558ce7763d95441e,610377bc03bf8ae497a56e42,2021-07-30_12h01.56.683,Simcolourproject_2stim_asymm_v5,2020.2.10,Win32,60,61025ae37ef11b136ea224fe,,,,,,,,,3291,28,50,1,0,0,response1disk,,7,5,1,1,0,0,rectangle,5,1,1,0,0,5,1,1,0,0,1,95,255,86,1,,,,,,,,
,,,,,,,,,,,,,FF,,,,,,,,0.551,,,,,,,,,,,,,,,,,,,,,,60fda145558ce7763d95441e,610377bc03bf8ae497a56e42,2021-07-30_12h01.56.683,Simcolourproject_2stim_asymm_v5,2020.2.10,Win32,60,61025ae37ef11b136ea224fe,,,,,,,,,2190,-34,-60,1,0,0,response5disk,,3,2,-10,1,0,0,rectangle,2,-10,1,0,0,2,-10,1,0,0,1,96,256,92,1,,,,,,,,
,,,,,,,,,,,,,FF,,,,,,,,0.9383,,,,,,,,,,,,,,,,,,,,,,60fda145558ce7763d95441e,610377bc03bf8ae497a56e42,2021-07-30_12h01.56.683,Simcolourproject_2stim_asymm_v5,2020.2.10,Win32,60,61025ae37ef11b136ea224fe,,,,,,,,,722,32,75,1,0,0,response1disk,,7,-10,4,1,0,0,rectangle,-10,4,1,0,0,-10,4,1,0,0,1,97,257,5,1,,,,,,,,
,,,,,,,,,,,,,FF,,,,,,,,0.6845,,,,,,,,,,,,,,,,,,,,,,60fda145558ce7763d95441e,610377bc03bf8ae497a56e42,2021-07-30_12h01.56.683,Simcolourproject_2stim_asymm_v5,2020.2.10,Win32,60,61025ae37ef11b136ea224fe,,,,,,,,,2591,53,-71,1,0,0,response3disk,,4,8,3,1,0,0,rectangle,8,3,1,0,0,8,3,1,0,0,1,98,258,119,1,,,,,,,,
,,,,,,,,,,,,,FF,,,,,,,,0.7177,,,,,,,,,,,,,,,,,,,,,,60fda145558ce7763d95441e,610377bc03bf8ae497a56e42,2021-07-30_12h01.56.683,Simcolourproject_2stim_asymm_v5,2020.2.10,Win32,60,61025ae37ef11b136ea224fe,,,,,,,,,3282,-74,-57,1,0,0,response5disk,,2,15,14,1,0,0,rectangle,15,14,1,0,0,15,14,1,0,0,1,99,259,114,1,,,,,,,,
,,,,,,,,,,,,,FF,,,,,,,,0.7519,,,,,,,,,,,,,,,,,,,,,,60fda145558ce7763d95441e,610377bc03bf8ae497a56e42,2021-07-30_12h01.56.683,Simcolourproject_2stim_asymm_v5,2020.2.10,Win32,60,61025ae37ef11b136ea224fe,,,,,,,,,314,50,58,1,0,0,response1disk,,7,19,-2,1,0,0,rectangle,19,-2,1,0,0,19,-2,1,0,0,1,100,260,156,1,,,,,,,,
,,,,,,,,,,,,,FF,,,,,,,,4.7021,,,,,,,,,,,,,,,,,,,,,,60fda145558ce7763d95441e,610377bc03bf8ae497a56e42,2021-07-30_12h01.56.683,Simcolourproject_2stim_asymm_v5,2020.2.10,Win32,60,61025ae37ef11b136ea224fe,,,,,,,,,2818,33,-114,1,0,0,response3disk,,4,2,9,1,0,0,rectangle,2,9,1,0,0,2,9,1,0,0,1,101,261,91,1,,,,,,,,
,,,,,,,,,,,,,FF,,,,,,,,1.0543,,,,,,,,,,,,,,,,,,,,,,60fda145558ce7763d95441e,610377bc03bf8ae497a56e42,2021-07-30_12h01.56.683,Simcolourproject_2stim_asymm_v5,2020.2.10,Win32,60,61025ae37ef11b136ea224fe,,,,,,,,,921,-111,-42,1,0,0,response5disk,,2,-5,-4,1,0,0,rectangle,-5,-4,1,0,0,-5,-4,1,0,0,1,102,262,84,1,,,,,,,,
,,,,,,,,,,,,,FF,,,,,,,,2.7783,,,,,,,,,,,,,,,,,,,,,,60fda145558ce7763d95441e,610377bc03bf8ae497a56e42,2021-07-30_12h01.56.683,Simcolourproject_2stim_asymm_v5,2020.2.10,Win32,60,61025ae37ef11b136ea224fe,,,,,,,,,4128,-26,20,1,0,0,response7disk,,1,-10,8,1,0,0,rectangle,-10,8,1,0,0,-10,8,1,0,0,1,103,263,133,1,,,,,,,,
,,,,,,,,,,,,,FF,,,,,,,,2.761,,,,,,,,,,,,,,,,,,,,,,60fda145558ce7763d95441e,610377bc03bf8ae497a56e42,2021-07-30_12h01.56.683,Simcolourproject_2stim_asymm_v5,2020.2.10,Win32,60,61025ae37ef11b136ea224fe,,,,,,,,,3787,51,98,1,0,0,response1disk,,7,19,-2,1,0,0,rectangle,19,-2,1,0,0,19,-2,1,0,0,1,104,264,55,1,,,,,,,,
,,,,,,,,,,,,,FF,,,,,,,,0.9033,,,,,,,,,,,,,,,,,,,,,,60fda145558ce7763d95441e,610377bc03bf8ae497a56e42,2021-07-30_12h01.56.683,Simcolourproject_2stim_asymm_v5,2020.2.10,Win32,60,61025ae37ef11b136ea224fe,,,,,,,,,4364,50,-66,1,0,0,response3disk,,4,9,-8,1,0,0,rectangle,9,-8,1,0,0,9,-8,1,0,0,1,105,265,67,1,,,,,,,,
,,,,,,,,,,,,,FF,,,,,,,,0.6703,,,,,,,,,,,,,,,,,,,,,,60fda145558ce7763d95441e,610377bc03bf8ae497a56e42,2021-07-30_12h01.56.683,Simcolourproject_2stim_asymm_v5,2020.2.10,Win32,60,61025ae37ef11b136ea224fe,,,,,,,,,891,20,67,1,0,0,response1disk,,7,-1,5,1,0,0,rectangle,-1,5,1,0,0,-1,5,1,0,0,1,106,266,118,1,,,,,,,,
,,,,,,,,,,,,,FF,,,,,,,,3.7981,,,,,,,,,,,,,,,,,,,,,,60fda145558ce7763d95441e,610377bc03bf8ae497a56e42,2021-07-30_12h01.56.683,Simcolourproject_2stim_asymm_v5,2020.2.10,Win32,60,61025ae37ef11b136ea224fe,,,,,,,,,203,50,57,1,0,0,response1disk,,7,20,7,1,0,0,rectangle,20,7,1,0,0,20,7,1,0,0,1,107,267,134,1,,,,,,,,
,,,,,,,,,,,,,FF,,,,,,,,0.6025,,,,,,,,,,,,,,,,,,,,,,60fda145558ce7763d95441e,610377bc03bf8ae497a56e42,2021-07-30_12h01.56.683,Simcolourproject_2stim_asymm_v5,2020.2.10,Win32,60,61025ae37ef11b136ea224fe,,,,,,,,,4038,31,-58,1,0,0,response3disk,,4,-3,10,1,0,0,rectangle,-3,10,1,0,0,-3,10,1,0,0,1,108,268,35,1,,,,,,,,
,,,,,,,,,,,,,FF,,,,,,,,0.8696,,,,,,,,,,,,,,,,,,,,,,60fda145558ce7763d95441e,610377bc03bf8ae497a56e42,2021-07-30_12h01.56.683,Simcolourproject_2stim_asymm_v5,2020.2.10,Win32,60,61025ae37ef11b136ea224fe,,,,,,,,,1200,69,-41,1,0,0,response3disk,,5,23,-1,1,0,0,rectangle,23,-1,1,0,0,23,-1,1,0,0,1,109,269,121,1,,,,,,,,
,,,,,,,,,,,,,FF,,,,,,,,0.6023,,,,,,,,,,,,,,,,,,,,,,60fda145558ce7763d95441e,610377bc03bf8ae497a56e42,2021-07-30_12h01.56.683,Simcolourproject_2stim_asymm_v5,2020.2.10,Win32,60,61025ae37ef11b136ea224fe,,,,,,,,,2033,50,-82,1,0,0,response3disk,,4,3,1,1,0,0,rectangle,3,1,1,0,0,3,1,1,0,0,1,110,270,145,1,,,,,,,,
,,,,,,,,,,,,,FF,,,,,,,,0.8526,,,,,,,,,,,,,,,,,,,,,,60fda145558ce7763d95441e,610377bc03bf8ae497a56e42,2021-07-30_12h01.56.683,Simcolourproject_2stim_asymm_v5,2020.2.10,Win32,60,61025ae37ef11b136ea224fe,,,,,,,,,1906,-78,-52,1,0,0,response5disk,,2,14,10,1,0,0,rectangle,14,10,1,0,0,14,10,1,0,0,1,111,271,129,1,,,,,,,,
,,,,,,,,,,,,,FF,,,,,,,,0.6348,,,,,,,,,,,,,,,,,,,,,,60fda145558ce7763d95441e,610377bc03bf8ae497a56e42,2021-07-30_12h01.56.683,Simcolourproject_2stim_asymm_v5,2020.2.10,Win32,60,61025ae37ef11b136ea224fe,,,,,,,,,3015,-81,48,1,0,0,response7disk,,1,13,8,1,0,0,rectangle,13,8,1,0,0,13,8,1,0,0,1,112,272,148,1,,,,,,,,
,,,,,,,,,,,,,FF,,,,,,,,0.5868,,,,,,,,,,,,,,,,,,,,,,60fda145558ce7763d95441e,610377bc03bf8ae497a56e42,2021-07-30_12h01.56.683,Simcolourproject_2stim_asymm_v5,2020.2.10,Win32,60,61025ae37ef11b136ea224fe,,,,,,,,,3876,37,70,1,0,0,response1disk,,7,10,2,1,0,0,rectangle,10,2,1,0,0,10,2,1,0,0,1,113,273,103,1,,,,,,,,
,,,,,,,,,,,,,FF,,,,,,,,0.6859,,,,,,,,,,,,,,,,,,,,,,60fda145558ce7763d95441e,610377bc03bf8ae497a56e42,2021-07-30_12h01.56.683,Simcolourproject_2stim_asymm_v5,2020.2.10,Win32,60,61025ae37ef11b136ea224fe,,,,,,,,,2595,49,-90,1,0,0,response3disk,,4,11,11,1,0,0,rectangle,11,11,1,0,0,11,11,1,0,0,1,114,274,107,1,,,,,,,,
,,,,,,,,,,,,,FF,,,,,,,,0.4841,,,,,,,,,,,,,,,,,,,,,,60fda145558ce7763d95441e,610377bc03bf8ae497a56e42,2021-07-30_12h01.56.683,Simcolourproject_2stim_asymm_v5,2020.2.10,Win32,60,61025ae37ef11b136ea224fe,,,,,,,,,1964,88,-46,1,0,0,response3disk,,5,24,3,1,0,0,rectangle,24,3,1,0,0,24,3,1,0,0,1,115,275,138,1,,,,,,,,
,,,,,,,,,,,,,FF,,,,,,,,0.687,,,,,,,,,,,,,,,,,,,,,,60fda145558ce7763d95441e,610377bc03bf8ae497a56e42,2021-07-30_12h01.56.683,Simcolourproject_2stim_asymm_v5,2020.2.10,Win32,60,61025ae37ef11b136ea224fe,,,,,,,,,1070,-66,-42,1,0,0,response5disk,,2,-8,3,1,0,0,rectangle,79,-52,1,0,0,-19,4,1,0,0,1,116,276,42,1,,response3disk_3,TRUE,5,5,"[2,69,74,42,135,147,285,209,160,75,20,242,75,97,315,283,39,178,277,315]",7.1959,rectangle
,,,,,,,,,,,,,FF,,,,,,,,1.9587,,,,,,,,,,,,,,,,,,,,,,60fda145558ce7763d95441e,610377bc03bf8ae497a56e42,2021-07-30_12h01.56.683,Simcolourproject_2stim_asymm_v5,2020.2.10,Win32,60,61025ae37ef11b136ea224fe,,,,,,,,,2295,63,86,1,0,0,response1disk,,7,9,1,1,0,0,rectangle,9,1,1,0,0,9,1,1,0,0,1,117,277,135,1,,,,,,,,
,,,,,,,,,,,,,FF,,,,,,,,0.3681,,,,,,,,,,,,,,,,,,,,,,60fda145558ce7763d95441e,610377bc03bf8ae497a56e42,2021-07-30_12h01.56.683,Simcolourproject_2stim_asymm_v5,2020.2.10,Win32,60,61025ae37ef11b136ea224fe,,,,,,,,,2823,-67,28,1,0,0,response7disk,,1,-14,-4,1,0,0,rectangle,-14,-4,1,0,0,-14,-4,1,0,0,1,118,278,8,1,,,,,,,,
,,,,,,,,,,,,,FF,,,,,,,,0.319,,,,,,,,,,,,,,,,,,,,,,60fda145558ce7763d95441e,610377bc03bf8ae497a56e42,2021-07-30_12h01.56.683,Simcolourproject_2stim_asymm_v5,2020.2.10,Win32,60,61025ae37ef11b136ea224fe,,,,,,,,,3647,69,-46,1,0,0,response3disk,,5,13,6,1,0,0,rectangle,13,6,1,0,0,13,6,1,0,0,1,119,279,132,1,,,,,,,,
,,,,,,,,,,,,,FF,,,,,,,,1.2048,,,,,,,,,,,,,,,,,,,,,,60fda145558ce7763d95441e,610377bc03bf8ae497a56e42,2021-07-30_12h01.56.683,Simcolourproject_2stim_asymm_v5,2020.2.10,Win32,60,61025ae37ef11b136ea224fe,,,,,,,,,263,53,-88,1,0,0,response3disk,,4,-2,-9,1,0,0,rectangle,-2,-9,1,0,0,-2,-9,1,0,0,1,120,280,32,1,,,,,,,,
,,,,,,,,,,,,,FF,,,,,,,,0.5852,,,,,,,,,,,,,,,,,,,,,,60fda145558ce7763d95441e,610377bc03bf8ae497a56e42,2021-07-30_12h01.56.683,Simcolourproject_2stim_asymm_v5,2020.2.10,Win32,60,61025ae37ef11b136ea224fe,,,,,,,,,3524,-73,-43,1,0,0,response5disk,,2,10,12,1,0,0,rectangle,10,12,1,0,0,10,12,1,0,0,1,121,281,76,1,,,,,,,,
,,,,,,,,,,,,,FF,,,,,,,,0.4186,,,,,,,,,,,,,,,,,,,,,,60fda145558ce7763d95441e,610377bc03bf8ae497a56e42,2021-07-30_12h01.56.683,Simcolourproject_2stim_asymm_v5,2020.2.10,Win32,60,61025ae37ef11b136ea224fe,,,,,,,,,2578,36,80,1,0,0,response1disk,,7,3,14,1,0,0,rectangle,-40,108,1,0,0,10,3,1,0,0,1,122,282,64,1,,response7disk_3,TRUE,0,0,"[2,69,74,42,135,147,285,209,160,75,20,242,75,97,315,283,39,178,277,315]",3.9486,rectangle
,,,,,,,,,,,,,FF,,,,,,,,0.6366,,,,,,,,,,,,,,,,,,,,,,60fda145558ce7763d95441e,610377bc03bf8ae497a56e42,2021-07-30_12h01.56.683,Simcolourproject_2stim_asymm_v5,2020.2.10,Win32,60,61025ae37ef11b136ea224fe,,,,,,,,,3097,42,71,1,0,0,response1disk,,7,2,-4,1,0,0,rectangle,2,-4,1,0,0,2,-4,1,0,0,1,123,283,70,1,,,,,,,,
,,,,,,,,,,,,,FF,,,,,,,,0.6691,,,,,,,,,,,,,,,,,,,,,,60fda145558ce7763d95441e,610377bc03bf8ae497a56e42,2021-07-30_12h01.56.683,Simcolourproject_2stim_asymm_v5,2020.2.10,Win32,60,61025ae37ef11b136ea224fe,,,,,,,,,3512,27,-82,1,0,0,response3disk,,4,12,12,1,0,0,rectangle,45,-92,1,0,0,3,6,1,0,0,1,124,284,75,1,,response3disk_3,TRUE,4,4,"[2,69,74,42,135,147,285,209,160,75,20,242,75,97,315,283,39,178,277,315]",3.0618,rectangle
,,,,,,,,,,,,,FF,,,,,,,,2.075,,,,,,,,,,,,,,,,,,,,,,60fda145558ce7763d95441e,610377bc03bf8ae497a56e42,2021-07-30_12h01.56.683,Simcolourproject_2stim_asymm_v5,2020.2.10,Win32,60,61025ae37ef11b136ea224fe,,,,,,,,,1394,98,-64,1,0,0,response3disk,,5,20,-4,1,0,0,rectangle,20,-4,1,0,0,20,-4,1,0,0,1,125,285,102,1,,,,,,,,
,,,,,,,,,,,,,FF,,,,,,,,0.9869,,,,,,,,,,,,,,,,,,,,,,60fda145558ce7763d95441e,610377bc03bf8ae497a56e42,2021-07-30_12h01.56.683,Simcolourproject_2stim_asymm_v5,2020.2.10,Win32,60,61025ae37ef11b136ea224fe,,,,,,,,,2195,109,50,1,0,0,response1disk,,6,11,15,1,0,0,rectangle,11,15,1,0,0,11,15,1,0,0,1,126,286,104,1,,,,,,,,
,,,,,,,,,,,,,FF,,,,,,,,0.6188,,,,,,,,,,,,,,,,,,,,,,60fda145558ce7763d95441e,610377bc03bf8ae497a56e42,2021-07-30_12h01.56.683,Simcolourproject_2stim_asymm_v5,2020.2.10,Win32,60,61025ae37ef11b136ea224fe,,,,,,,,,1825,-47,-99,1,0,0,response5disk,,3,0,4,1,0,0,rectangle,0,4,1,0,0,0,4,1,0,0,1,127,287,57,1,,,,,,,,
,,,,,,,,,,,,,FF,,,,,,,,0.3336,,,,,,,,,,,,,,,,,,,,,,60fda145558ce7763d95441e,610377bc03bf8ae497a56e42,2021-07-30_12h01.56.683,Simcolourproject_2stim_asymm_v5,2020.2.10,Win32,60,61025ae37ef11b136ea224fe,,,,,,,,,1301,-89,-41,1,0,0,response5disk,,2,14,10,1,0,0,rectangle,14,10,1,0,0,14,10,1,0,0,1,128,288,47,1,,,,,,,,
,,,,,,,,,,,,,FF,,,,,,,,0.4179,,,,,,,,,,,,,,,,,,,,,,60fda145558ce7763d95441e,610377bc03bf8ae497a56e42,2021-07-30_12h01.56.683,Simcolourproject_2stim_asymm_v5,2020.2.10,Win32,60,61025ae37ef11b136ea224fe,,,,,,,,,3459,35,62,1,0,0,response1disk,,7,6,2,1,0,0,rectangle,6,2,1,0,0,6,2,1,0,0,1,129,289,4,1,,,,,,,,
,,,,,,,,,,,,,FF,,,,,,,,0.4015,,,,,,,,,,,,,,,,,,,,,,60fda145558ce7763d95441e,610377bc03bf8ae497a56e42,2021-07-30_12h01.56.683,Simcolourproject_2stim_asymm_v5,2020.2.10,Win32,60,61025ae37ef11b136ea224fe,,,,,,,,,2933,58,-70,1,0,0,response3disk,,4,13,1,1,0,0,rectangle,13,1,1,0,0,13,1,1,0,0,1,130,290,126,1,,,,,,,,
,,,,,,,,,,,,,FF,,,,,,,,0.4515,,,,,,,,,,,,,,,,,,,,,,60fda145558ce7763d95441e,610377bc03bf8ae497a56e42,2021-07-30_12h01.56.683,Simcolourproject_2stim_asymm_v5,2020.2.10,Win32,60,61025ae37ef11b136ea224fe,,,,,,,,,2096,89,-25,1,0,0,response3disk,,5,11,5,1,0,0,rectangle,11,5,1,0,0,11,5,1,0,0,1,131,291,108,1,,,,,,,,
,,,,,,,,,,,,,FF,,,,,,,,0.4848,,,,,,,,,,,,,,,,,,,,,,60fda145558ce7763d95441e,610377bc03bf8ae497a56e42,2021-07-30_12h01.56.683,Simcolourproject_2stim_asymm_v5,2020.2.10,Win32,60,61025ae37ef11b136ea224fe,,,,,,,,,844,-35,-90,1,0,0,response5disk,,3,-13,2,1,0,0,rectangle,-13,2,1,0,0,-13,2,1,0,0,1,132,292,41,1,,,,,,,,
,,,,,,,,,,,,,FF,,,,,,,,0.5173,,,,,,,,,,,,,,,,,,,,,,60fda145558ce7763d95441e,610377bc03bf8ae497a56e42,2021-07-30_12h01.56.683,Simcolourproject_2stim_asymm_v5,2020.2.10,Win32,60,61025ae37ef11b136ea224fe,,,,,,,,,3799,53,73,1,0,0,response1disk,,7,4,-1,1,0,0,rectangle,4,-1,1,0,0,4,-1,1,0,0,1,133,293,25,1,,,,,,,,
,,,,,,,,,,,,,FF,,,,,,,,0.435,,,,,,,,,,,,,,,,,,,,,,60fda145558ce7763d95441e,610377bc03bf8ae497a56e42,2021-07-30_12h01.56.683,Simcolourproject_2stim_asymm_v5,2020.2.10,Win32,60,61025ae37ef11b136ea224fe,,,,,,,,,569,45,-75,1,0,0,response3disk,,4,11,5,1,0,0,rectangle,11,5,1,0,0,11,5,1,0,0,1,134,294,74,1,,,,,,,,
,,,,,,,,,,,,,FF,,,,,,,,0.6531,,,,,,,,,,,,,,,,,,,,,,60fda145558ce7763d95441e,610377bc03bf8ae497a56e42,2021-07-30_12h01.56.683,Simcolourproject_2stim_asymm_v5,2020.2.10,Win32,60,61025ae37ef11b136ea224fe,,,,,,,,,2265,-108,46,1,0,0,response7disk,,1,5,5,1,0,0,rectangle,5,5,1,0,0,5,5,1,0,0,1,135,295,15,1,,,,,,,,
,,,,,,,,,,,,,FF,,,,,,,,0.485,,,,,,,,,,,,,,,,,,,,,,60fda145558ce7763d95441e,610377bc03bf8ae497a56e42,2021-07-30_12h01.56.683,Simcolourproject_2stim_asymm_v5,2020.2.10,Win32,60,61025ae37ef11b136ea224fe,,,,,,,,,4355,32,-63,1,0,0,response3disk,,4,5,7,1,0,0,rectangle,5,7,1,0,0,5,7,1,0,0,1,136,296,125,1,,,,,,,,
,,,,,,,,,,,,,FF,,,,,,,,0.4516,,,,,,,,,,,,,,,,,,,,,,60fda145558ce7763d95441e,610377bc03bf8ae497a56e42,2021-07-30_12h01.56.683,Simcolourproject_2stim_asymm_v5,2020.2.10,Win32,60,61025ae37ef11b136ea224fe,,,,,,,,,536,71,55,1,0,0,response1disk,,6,6,7,1,0,0,rectangle,6,7,1,0,0,6,7,1,0,0,1,137,297,45,1,,,,,,,,
,,,,,,,,,,,,,FF,,,,,,,,0.3685,,,,,,,,,,,,,,,,,,,,,,60fda145558ce7763d95441e,610377bc03bf8ae497a56e42,2021-07-30_12h01.56.683,Simcolourproject_2stim_asymm_v5,2020.2.10,Win32,60,61025ae37ef11b136ea224fe,,,,,,,,,3596,-41,-88,1,0,0,response5disk,,3,8,9,1,0,0,rectangle,8,9,1,0,0,8,9,1,0,0,1,138,298,155,1,,,,,,,,
,,,,,,,,,,,,,FF,,,,,,,,0.351,,,,,,,,,,,,,,,,,,,,,,60fda145558ce7763d95441e,610377bc03bf8ae497a56e42,2021-07-30_12h01.56.683,Simcolourproject_2stim_asymm_v5,2020.2.10,Win32,60,61025ae37ef11b136ea224fe,,,,,,,,,152,-69,31,1,0,0,response7disk,,1,5,-5,1,0,0,rectangle,5,-5,1,0,0,5,-5,1,0,0,1,139,299,44,1,,,,,,,,
,,,,,,,,,,,,,FF,,,,,,,,0.6016,,,,,,,,,,,,,,,,,,,,,,60fda145558ce7763d95441e,610377bc03bf8ae497a56e42,2021-07-30_12h01.56.683,Simcolourproject_2stim_asymm_v5,2020.2.10,Win32,60,61025ae37ef11b136ea224fe,,,,,,,,,178,47,-79,1,0,0,response3disk,,4,4,9,1,0,0,rectangle,4,9,1,0,0,4,9,1,0,0,1,140,300,137,1,,,,,,,,
,,,,,,,,,,,,,FF,,,,,,,,0.3516,,,,,,,,,,,,,,,,,,,,,,60fda145558ce7763d95441e,610377bc03bf8ae497a56e42,2021-07-30_12h01.56.683,Simcolourproject_2stim_asymm_v5,2020.2.10,Win32,60,61025ae37ef11b136ea224fe,,,,,,,,,616,31,75,1,0,0,response1disk,,7,11,5,1,0,0,rectangle,11,5,1,0,0,11,5,1,0,0,1,141,301,88,1,,,,,,,,
,,,,,,,,,,,,,FF,,,,,,,,0.8535,,,,,,,,,,,,,,,,,,,,,,60fda145558ce7763d95441e,610377bc03bf8ae497a56e42,2021-07-30_12h01.56.683,Simcolourproject_2stim_asymm_v5,2020.2.10,Win32,60,61025ae37ef11b136ea224fe,,,,,,,,,2027,64,-96,1,0,0,response3disk,,4,12,6,1,0,0,rectangle,12,6,1,0,0,12,6,1,0,0,1,142,302,53,1,,,,,,,,
,,,,,,,,,,,,,FF,,,,,,,,0.4674,,,,,,,,,,,,,,,,,,,,,,60fda145558ce7763d95441e,610377bc03bf8ae497a56e42,2021-07-30_12h01.56.683,Simcolourproject_2stim_asymm_v5,2020.2.10,Win32,60,61025ae37ef11b136ea224fe,,,,,,,,,1338,99,-51,1,0,0,response3disk,,5,-2,8,1,0,0,rectangle,-2,8,1,0,0,-2,8,1,0,0,1,143,303,40,1,,,,,,,,
