key_resp.keys,key_resp.rt,key_resp_14.keys,key_resp_14.rt,key_resp_15.keys,key_resp_15.rt,key_resp_17.keys,key_resp_17.rt,key_resp_9.keys,key_resp_9.rt,key_resp_10.keys,key_resp_10.rt,practice_comparison,Ecc,mouse_5.x,mouse_5.y,mouse_5.leftButton,mouse_5.midButton,mouse_5.rightButton,mouse_5.clicked_name,pracsimilarity,response_time,mouse_10.x,mouse_10.y,mouse_10.leftButton,mouse_10.midButton,mouse_10.rightButton,mouse_10.clicked_name,mouse_7.x,mouse_7.y,mouse_7.leftButton,mouse_7.midButton,mouse_7.rightButton,mouse_6.x,mouse_6.y,mouse_6.leftButton,mouse_6.midButton,mouse_6.rightButton,duringprac.thisRepN,duringprac.thisTrialN,duringprac.thisN,duringprac.thisIndex,duringprac.ran,participant,session,date,expName,psychopyVersion,OS,frameRate,study_id,mouse_7.clicked_name,catchpracsimilarity,catch_response_time,catchnumberprac,catchtrialorderprac,mouse_6.clicked_name,key_resp_22.keys,key_resp_22.rt,realcomparison,mouse.x,mouse.y,mouse.leftButton,mouse.midButton,mouse.rightButton,mouse.clicked_name,Colour2,similarity,mouse_2.x,mouse_2.y,mouse_2.leftButton,mouse_2.midButton,mouse_2.rightButton,mouse_2.clicked_name,mouse_3.x,mouse_3.y,mouse_3.leftButton,mouse_3.midButton,mouse_3.rightButton,mouse_11.x,mouse_11.y,mouse_11.leftButton,mouse_11.midButton,mouse_11.rightButton,trials_2.thisRepN,trials_2.thisTrialN,trials_2.thisN,trials_2.thisIndex,trials_2.ran,Colour1,mouse_3.clicked_name,catchornah,catchsimilarity,catchnumber,catchtrialorder,catchRT,mouse_11.clicked_name
space,1.2036,space,18.8109,space,14.6007,space,1.7801,space,0.6554,space,2.1437,31,PF,54,118,1,0,0,response1disk_5,7,7.0448,10,3,1,0,0,rectangle_8,10,3,1,0,0,10,3,1,0,0,0,0,0,4,1,60fd03a3f22f9dd32bff5fa8,61036d7f810ea010637744ab,2021-07-30_12h40.40.156,Simcolourproject_2stim_asymm_v5,2020.2.10,Win32,60,61025ae37ef11b136ea224fe,,,,,,,,,,,,,,,,,,,,,,,,,,,,,,,,,,,,,,,,,,,,,,
,,,,,,,,,,,,130,PF,84,141,1,0,0,response1disk_5,7,2.1844,-12,-1,1,0,0,rectangle_8,-45,131,1,0,0,-3,-4,1,0,0,0,1,1,2,1,60fd03a3f22f9dd32bff5fa8,61036d7f810ea010637744ab,2021-07-30_12h40.40.156,Simcolourproject_2stim_asymm_v5,2020.2.10,Win32,60,61025ae37ef11b136ea224fe,response7disk_7,0,2.436,0,"[2,5]",rectangle_4,,,,,,,,,,,,,,,,,,,,,,,,,,,,,,,,,,,,,,,,
,,,,,,,,,,,,159,FF,118,-48,1,0,0,response3disk_5,5,3.5902,-2,4,1,0,0,rectangle_8,-2,4,1,0,0,-2,4,1,0,0,0,2,2,3,1,60fd03a3f22f9dd32bff5fa8,61036d7f810ea010637744ab,2021-07-30_12h40.40.156,Simcolourproject_2stim_asymm_v5,2020.2.10,Win32,60,61025ae37ef11b136ea224fe,,,,,,,,,,,,,,,,,,,,,,,,,,,,,,,,,,,,,,,,,,,,,,
,,,,,,,,,,,,48,PF,62,134,1,0,0,response1disk_5,7,1.7345,8,5,1,0,0,rectangle_8,8,5,1,0,0,8,5,1,0,0,0,3,3,6,1,60fd03a3f22f9dd32bff5fa8,61036d7f810ea010637744ab,2021-07-30_12h40.40.156,Simcolourproject_2stim_asymm_v5,2020.2.10,Win32,60,61025ae37ef11b136ea224fe,,,,,,,,,,,,,,,,,,,,,,,,,,,,,,,,,,,,,,,,,,,,,,
,,,,,,,,,,,,48,FF,51,135,1,0,0,response1disk_5,7,0.863,7,13,1,0,0,rectangle_8,-53,122,1,0,0,-17,2,1,0,0,0,4,4,5,1,60fd03a3f22f9dd32bff5fa8,61036d7f810ea010637744ab,2021-07-30_12h40.40.156,Simcolourproject_2stim_asymm_v5,2020.2.10,Win32,60,61025ae37ef11b136ea224fe,response7disk_7,0,1.5137,0,"[2,5]",rectangle_4,,,,,,,,,,,,,,,,,,,,,,,,,,,,,,,,,,,,,,,,
,,,,,,,,,,,,126,FF,61,-133,1,0,0,response3disk_5,4,2.0805,14,-7,1,0,0,rectangle_8,14,-7,1,0,0,14,-7,1,0,0,0,5,5,0,1,60fd03a3f22f9dd32bff5fa8,61036d7f810ea010637744ab,2021-07-30_12h40.40.156,Simcolourproject_2stim_asymm_v5,2020.2.10,Win32,60,61025ae37ef11b136ea224fe,,,,,,,,,,,,,,,,,,,,,,,,,,,,,,,,,,,,,,,,,,,,,,
,,,,,,,,,,,,108,PF,89,-51,1,0,0,response3disk_5,5,1.2024,-7,-4,1,0,0,rectangle_8,-7,-4,1,0,0,-7,-4,1,0,0,0,6,6,1,1,60fd03a3f22f9dd32bff5fa8,61036d7f810ea010637744ab,2021-07-30_12h40.40.156,Simcolourproject_2stim_asymm_v5,2020.2.10,Win32,60,61025ae37ef11b136ea224fe,,,,,,,,,,,,,,,,,,,,,,,,,,,,,,,,,,,,,,,,,,,,,,
,,,,,,,,,,,,,FF,,,,,,,,1.2467,,,,,,,,,,,,,,,,,,,,,,60fd03a3f22f9dd32bff5fa8,61036d7f810ea010637744ab,2021-07-30_12h40.40.156,Simcolourproject_2stim_asymm_v5,2020.2.10,Win32,60,61025ae37ef11b136ea224fe,,,,,,,space,2.1156,1011,90,136,1,0,0,response1disk,,7,4,-2,1,0,0,rectangle,4,-2,1,0,0,4,-2,1,0,0,0,0,0,143,1,,,,,,,,
,,,,,,,,,,,,,FF,,,,,,,,2.456,,,,,,,,,,,,,,,,,,,,,,60fd03a3f22f9dd32bff5fa8,61036d7f810ea010637744ab,2021-07-30_12h40.40.156,Simcolourproject_2stim_asymm_v5,2020.2.10,Win32,60,61025ae37ef11b136ea224fe,,,,,,,,,3243,-104,50,1,0,0,response7disk,,1,-10,-5,1,0,0,rectangle,-10,-5,1,0,0,-10,-5,1,0,0,0,1,1,8,1,,,,,,,,
,,,,,,,,,,,,,FF,,,,,,,,1.4172,,,,,,,,,,,,,,,,,,,,,,60fd03a3f22f9dd32bff5fa8,61036d7f810ea010637744ab,2021-07-30_12h40.40.156,Simcolourproject_2stim_asymm_v5,2020.2.10,Win32,60,61025ae37ef11b136ea224fe,,,,,,,,,143,59,-125,1,0,0,response3disk,,4,-1,18,1,0,0,rectangle,133,-58,1,0,0,-2,6,1,0,0,0,2,2,56,1,,response3disk_3,TRUE,5,5,"[142,74,227,253,292,141,115,320,320,34,161,92,55,266,3,99,261,9,102,267]",2.2737,rectangle
,,,,,,,,,,,,,FF,,,,,,,,1.1164,,,,,,,,,,,,,,,,,,,,,,60fd03a3f22f9dd32bff5fa8,61036d7f810ea010637744ab,2021-07-30_12h40.40.156,Simcolourproject_2stim_asymm_v5,2020.2.10,Win32,60,61025ae37ef11b136ea224fe,,,,,,,,,1282,139,33,1,0,0,response1disk,,6,-16,-2,1,0,0,rectangle,-16,-2,1,0,0,-16,-2,1,0,0,0,3,3,67,1,,,,,,,,
,,,,,,,,,,,,,FF,,,,,,,,1.0329,,,,,,,,,,,,,,,,,,,,,,60fd03a3f22f9dd32bff5fa8,61036d7f810ea010637744ab,2021-07-30_12h40.40.156,Simcolourproject_2stim_asymm_v5,2020.2.10,Win32,60,61025ae37ef11b136ea224fe,,,,,,,,,859,136,-86,1,0,0,response3disk,,5,-8,-15,1,0,0,rectangle,-8,-15,1,0,0,-8,-15,1,0,0,0,4,4,60,1,,,,,,,,
,,,,,,,,,,,,,FF,,,,,,,,0.8997,,,,,,,,,,,,,,,,,,,,,,60fd03a3f22f9dd32bff5fa8,61036d7f810ea010637744ab,2021-07-30_12h40.40.156,Simcolourproject_2stim_asymm_v5,2020.2.10,Win32,60,61025ae37ef11b136ea224fe,,,,,,,,,1394,113,-48,1,0,0,response3disk,,5,-10,1,1,0,0,rectangle,-10,1,1,0,0,-10,1,1,0,0,0,5,5,129,1,,,,,,,,
,,,,,,,,,,,,,FF,,,,,,,,1.0005,,,,,,,,,,,,,,,,,,,,,,60fd03a3f22f9dd32bff5fa8,61036d7f810ea010637744ab,2021-07-30_12h40.40.156,Simcolourproject_2stim_asymm_v5,2020.2.10,Win32,60,61025ae37ef11b136ea224fe,,,,,,,,,1399,42,-98,1,0,0,response3disk,,4,-4,-5,1,0,0,rectangle,-4,-5,1,0,0,-4,-5,1,0,0,0,6,6,104,1,,,,,,,,
,,,,,,,,,,,,,FF,,,,,,,,0.7214,,,,,,,,,,,,,,,,,,,,,,60fd03a3f22f9dd32bff5fa8,61036d7f810ea010637744ab,2021-07-30_12h40.40.156,Simcolourproject_2stim_asymm_v5,2020.2.10,Win32,60,61025ae37ef11b136ea224fe,,,,,,,,,1292,-55,-123,1,0,0,response5disk,,3,28,14,1,0,0,rectangle,28,14,1,0,0,28,14,1,0,0,0,7,7,24,1,,,,,,,,
,,,,,,,,,,,,,FF,,,,,,,,0.7998,,,,,,,,,,,,,,,,,,,,,,60fd03a3f22f9dd32bff5fa8,61036d7f810ea010637744ab,2021-07-30_12h40.40.156,Simcolourproject_2stim_asymm_v5,2020.2.10,Win32,60,61025ae37ef11b136ea224fe,,,,,,,,,1677,-52,81,1,0,0,response7disk,,0,-15,-2,1,0,0,rectangle,59,126,1,0,0,2,-3,1,0,0,0,8,8,118,1,,response1disk_3,TRUE,7,7,"[142,74,227,253,292,141,115,320,320,34,161,92,55,266,3,99,261,9,102,267]",1.933,rectangle
,,,,,,,,,,,,,FF,,,,,,,,0.9828,,,,,,,,,,,,,,,,,,,,,,60fd03a3f22f9dd32bff5fa8,61036d7f810ea010637744ab,2021-07-30_12h40.40.156,Simcolourproject_2stim_asymm_v5,2020.2.10,Win32,60,61025ae37ef11b136ea224fe,,,,,,,,,164,-134,-63,1,0,0,response5disk,,2,-1,-2,1,0,0,rectangle,-1,-2,1,0,0,-1,-2,1,0,0,0,9,9,128,1,,,,,,,,
,,,,,,,,,,,,,FF,,,,,,,,0.7843,,,,,,,,,,,,,,,,,,,,,,60fd03a3f22f9dd32bff5fa8,61036d7f810ea010637744ab,2021-07-30_12h40.40.156,Simcolourproject_2stim_asymm_v5,2020.2.10,Win32,60,61025ae37ef11b136ea224fe,,,,,,,,,2977,95,-63,1,0,0,response3disk,,5,29,-6,1,0,0,rectangle,29,-6,1,0,0,29,-6,1,0,0,0,10,10,152,1,,,,,,,,
,,,,,,,,,,,,,FF,,,,,,,,1.2348,,,,,,,,,,,,,,,,,,,,,,60fd03a3f22f9dd32bff5fa8,61036d7f810ea010637744ab,2021-07-30_12h40.40.156,Simcolourproject_2stim_asymm_v5,2020.2.10,Win32,60,61025ae37ef11b136ea224fe,,,,,,,,,4303,106,33,1,0,0,response1disk,,6,7,-5,1,0,0,rectangle,7,-5,1,0,0,7,-5,1,0,0,0,11,11,37,1,,,,,,,,
,,,,,,,,,,,,,FF,,,,,,,,0.8495,,,,,,,,,,,,,,,,,,,,,,60fd03a3f22f9dd32bff5fa8,61036d7f810ea010637744ab,2021-07-30_12h40.40.156,Simcolourproject_2stim_asymm_v5,2020.2.10,Win32,60,61025ae37ef11b136ea224fe,,,,,,,,,2248,25,-115,1,0,0,response3disk,,4,8,-4,1,0,0,rectangle,8,-4,1,0,0,8,-4,1,0,0,0,12,12,27,1,,,,,,,,
,,,,,,,,,,,,,FF,,,,,,,,0.6673,,,,,,,,,,,,,,,,,,,,,,60fd03a3f22f9dd32bff5fa8,61036d7f810ea010637744ab,2021-07-30_12h40.40.156,Simcolourproject_2stim_asymm_v5,2020.2.10,Win32,60,61025ae37ef11b136ea224fe,,,,,,,,,994,82,-50,1,0,0,response3disk,,5,8,8,1,0,0,rectangle,8,8,1,0,0,8,8,1,0,0,0,13,13,133,1,,,,,,,,
,,,,,,,,,,,,,FF,,,,,,,,1.1551,,,,,,,,,,,,,,,,,,,,,,60fd03a3f22f9dd32bff5fa8,61036d7f810ea010637744ab,2021-07-30_12h40.40.156,Simcolourproject_2stim_asymm_v5,2020.2.10,Win32,60,61025ae37ef11b136ea224fe,,,,,,,,,1166,134,48,1,0,0,response1disk,,6,-13,-6,1,0,0,rectangle,-13,-6,1,0,0,-13,-6,1,0,0,0,14,14,96,1,,,,,,,,
,,,,,,,,,,,,,FF,,,,,,,,0.6677,,,,,,,,,,,,,,,,,,,,,,60fd03a3f22f9dd32bff5fa8,61036d7f810ea010637744ab,2021-07-30_12h40.40.156,Simcolourproject_2stim_asymm_v5,2020.2.10,Win32,60,61025ae37ef11b136ea224fe,,,,,,,,,3354,53,115,1,0,0,response1disk,,7,-9,10,1,0,0,rectangle,-9,10,1,0,0,-9,10,1,0,0,0,15,15,138,1,,,,,,,,
,,,,,,,,,,,,,FF,,,,,,,,0.8214,,,,,,,,,,,,,,,,,,,,,,60fd03a3f22f9dd32bff5fa8,61036d7f810ea010637744ab,2021-07-30_12h40.40.156,Simcolourproject_2stim_asymm_v5,2020.2.10,Win32,60,61025ae37ef11b136ea224fe,,,,,,,,,3811,-63,89,1,0,0,response7disk,,0,-28,-6,1,0,0,rectangle,-28,-6,1,0,0,-28,-6,1,0,0,0,16,16,59,1,,,,,,,,
,,,,,,,,,,,,,FF,,,,,,,,0.9676,,,,,,,,,,,,,,,,,,,,,,60fd03a3f22f9dd32bff5fa8,61036d7f810ea010637744ab,2021-07-30_12h40.40.156,Simcolourproject_2stim_asymm_v5,2020.2.10,Win32,60,61025ae37ef11b136ea224fe,,,,,,,,,3247,-92,-54,1,0,0,response5disk,,2,16,-5,1,0,0,rectangle,16,-5,1,0,0,16,-5,1,0,0,0,17,17,144,1,,,,,,,,
,,,,,,,,,,,,,FF,,,,,,,,1.4843,,,,,,,,,,,,,,,,,,,,,,60fd03a3f22f9dd32bff5fa8,61036d7f810ea010637744ab,2021-07-30_12h40.40.156,Simcolourproject_2stim_asymm_v5,2020.2.10,Win32,60,61025ae37ef11b136ea224fe,,,,,,,,,3459,-46,-117,1,0,0,response5disk,,3,6,-9,1,0,0,rectangle,6,-9,1,0,0,6,-9,1,0,0,0,18,18,102,1,,,,,,,,
,,,,,,,,,,,,,FF,,,,,,,,1.3179,,,,,,,,,,,,,,,,,,,,,,60fd03a3f22f9dd32bff5fa8,61036d7f810ea010637744ab,2021-07-30_12h40.40.156,Simcolourproject_2stim_asymm_v5,2020.2.10,Win32,60,61025ae37ef11b136ea224fe,,,,,,,,,2269,68,-80,1,0,0,response3disk,,4,-13,-13,1,0,0,rectangle,-13,-13,1,0,0,-13,-13,1,0,0,0,19,19,156,1,,,,,,,,
,,,,,,,,,,,,,FF,,,,,,,,0.867,,,,,,,,,,,,,,,,,,,,,,60fd03a3f22f9dd32bff5fa8,61036d7f810ea010637744ab,2021-07-30_12h40.40.156,Simcolourproject_2stim_asymm_v5,2020.2.10,Win32,60,61025ae37ef11b136ea224fe,,,,,,,,,2744,-49,-102,1,0,0,response5disk,,3,-1,-1,1,0,0,rectangle,-1,-1,1,0,0,-1,-1,1,0,0,0,20,20,25,1,,,,,,,,
,,,,,,,,,,,,,FF,,,,,,,,0.8178,,,,,,,,,,,,,,,,,,,,,,60fd03a3f22f9dd32bff5fa8,61036d7f810ea010637744ab,2021-07-30_12h40.40.156,Simcolourproject_2stim_asymm_v5,2020.2.10,Win32,60,61025ae37ef11b136ea224fe,,,,,,,,,2694,125,-39,1,0,0,response3disk,,5,-1,-11,1,0,0,rectangle,-1,-11,1,0,0,-1,-11,1,0,0,0,21,21,89,1,,,,,,,,
,,,,,,,,,,,,,FF,,,,,,,,1.3836,,,,,,,,,,,,,,,,,,,,,,60fd03a3f22f9dd32bff5fa8,61036d7f810ea010637744ab,2021-07-30_12h40.40.156,Simcolourproject_2stim_asymm_v5,2020.2.10,Win32,60,61025ae37ef11b136ea224fe,,,,,,,,,4064,93,-47,1,0,0,response3disk,,5,-16,-19,1,0,0,rectangle,-16,-19,1,0,0,-16,-19,1,0,0,0,22,22,18,1,,,,,,,,
,,,,,,,,,,,,,FF,,,,,,,,1.7003,,,,,,,,,,,,,,,,,,,,,,60fd03a3f22f9dd32bff5fa8,61036d7f810ea010637744ab,2021-07-30_12h40.40.156,Simcolourproject_2stim_asymm_v5,2020.2.10,Win32,60,61025ae37ef11b136ea224fe,,,,,,,,,644,-54,-91,1,0,0,response5disk,,3,-7,17,1,0,0,rectangle,-7,17,1,0,0,-7,17,1,0,0,0,23,23,134,1,,,,,,,,
,,,,,,,,,,,,,FF,,,,,,,,0.769,,,,,,,,,,,,,,,,,,,,,,60fd03a3f22f9dd32bff5fa8,61036d7f810ea010637744ab,2021-07-30_12h40.40.156,Simcolourproject_2stim_asymm_v5,2020.2.10,Win32,60,61025ae37ef11b136ea224fe,,,,,,,,,3072,91,51,1,0,0,response1disk,,6,-2,0,1,0,0,rectangle,-2,0,1,0,0,-2,0,1,0,0,0,24,24,66,1,,,,,,,,
,,,,,,,,,,,,,FF,,,,,,,,0.9296,,,,,,,,,,,,,,,,,,,,,,60fd03a3f22f9dd32bff5fa8,61036d7f810ea010637744ab,2021-07-30_12h40.40.156,Simcolourproject_2stim_asymm_v5,2020.2.10,Win32,60,61025ae37ef11b136ea224fe,,,,,,,,,3341,-48,-104,1,0,0,response5disk,,3,18,19,1,0,0,rectangle,18,19,1,0,0,18,19,1,0,0,0,25,25,42,1,,,,,,,,
,,,,,,,,,,,,,FF,,,,,,,,1.7347,,,,,,,,,,,,,,,,,,,,,,60fd03a3f22f9dd32bff5fa8,61036d7f810ea010637744ab,2021-07-30_12h40.40.156,Simcolourproject_2stim_asymm_v5,2020.2.10,Win32,60,61025ae37ef11b136ea224fe,,,,,,,,,769,-40,-95,1,0,0,response5disk,,3,19,4,1,0,0,rectangle,19,4,1,0,0,19,4,1,0,0,0,26,26,35,1,,,,,,,,
,,,,,,,,,,,,,FF,,,,,,,,0.7845,,,,,,,,,,,,,,,,,,,,,,60fd03a3f22f9dd32bff5fa8,61036d7f810ea010637744ab,2021-07-30_12h40.40.156,Simcolourproject_2stim_asymm_v5,2020.2.10,Win32,60,61025ae37ef11b136ea224fe,,,,,,,,,2428,-72,-52,1,0,0,response5disk,,2,10,-5,1,0,0,rectangle,10,-5,1,0,0,10,-5,1,0,0,0,27,27,110,1,,,,,,,,
,,,,,,,,,,,,,FF,,,,,,,,0.7032,,,,,,,,,,,,,,,,,,,,,,60fd03a3f22f9dd32bff5fa8,61036d7f810ea010637744ab,2021-07-30_12h40.40.156,Simcolourproject_2stim_asymm_v5,2020.2.10,Win32,60,61025ae37ef11b136ea224fe,,,,,,,,,2538,86,-63,1,0,0,response3disk,,5,-6,-9,1,0,0,rectangle,-6,-9,1,0,0,-6,-9,1,0,0,0,28,28,136,1,,,,,,,,
,,,,,,,,,,,,,FF,,,,,,,,0.9506,,,,,,,,,,,,,,,,,,,,,,60fd03a3f22f9dd32bff5fa8,61036d7f810ea010637744ab,2021-07-30_12h40.40.156,Simcolourproject_2stim_asymm_v5,2020.2.10,Win32,60,61025ae37ef11b136ea224fe,,,,,,,,,405,123,68,1,0,0,response1disk,,6,20,-5,1,0,0,rectangle,20,-5,1,0,0,20,-5,1,0,0,0,29,29,17,1,,,,,,,,
,,,,,,,,,,,,,FF,,,,,,,,0.7334,,,,,,,,,,,,,,,,,,,,,,60fd03a3f22f9dd32bff5fa8,61036d7f810ea010637744ab,2021-07-30_12h40.40.156,Simcolourproject_2stim_asymm_v5,2020.2.10,Win32,60,61025ae37ef11b136ea224fe,,,,,,,,,571,-42,-106,1,0,0,response5disk,,3,9,-11,1,0,0,rectangle,9,-11,1,0,0,9,-11,1,0,0,0,30,30,32,1,,,,,,,,
,,,,,,,,,,,,,FF,,,,,,,,0.7514,,,,,,,,,,,,,,,,,,,,,,60fd03a3f22f9dd32bff5fa8,61036d7f810ea010637744ab,2021-07-30_12h40.40.156,Simcolourproject_2stim_asymm_v5,2020.2.10,Win32,60,61025ae37ef11b136ea224fe,,,,,,,,,124,104,-60,1,0,0,response3disk,,5,6,-5,1,0,0,rectangle,6,-5,1,0,0,6,-5,1,0,0,0,31,31,26,1,,,,,,,,
,,,,,,,,,,,,,FF,,,,,,,,0.8334,,,,,,,,,,,,,,,,,,,,,,60fd03a3f22f9dd32bff5fa8,61036d7f810ea010637744ab,2021-07-30_12h40.40.156,Simcolourproject_2stim_asymm_v5,2020.2.10,Win32,60,61025ae37ef11b136ea224fe,,,,,,,,,3186,72,-104,1,0,0,response3disk,,4,13,9,1,0,0,rectangle,13,9,1,0,0,13,9,1,0,0,0,32,32,12,1,,,,,,,,
,,,,,,,,,,,,,FF,,,,,,,,0.5181,,,,,,,,,,,,,,,,,,,,,,60fd03a3f22f9dd32bff5fa8,61036d7f810ea010637744ab,2021-07-30_12h40.40.156,Simcolourproject_2stim_asymm_v5,2020.2.10,Win32,60,61025ae37ef11b136ea224fe,,,,,,,,,588,92,-52,1,0,0,response3disk,,5,12,11,1,0,0,rectangle,-77,44,1,0,0,7,-19,1,0,0,0,33,33,61,1,,response7disk_3,TRUE,1,1,"[142,74,227,253,292,141,115,320,320,34,161,92,55,266,3,99,261,9,102,267]",1.4049,rectangle
,,,,,,,,,,,,,FF,,,,,,,,0.7505,,,,,,,,,,,,,,,,,,,,,,60fd03a3f22f9dd32bff5fa8,61036d7f810ea010637744ab,2021-07-30_12h40.40.156,Simcolourproject_2stim_asymm_v5,2020.2.10,Win32,60,61025ae37ef11b136ea224fe,,,,,,,,,4100,-34,-102,1,0,0,response5disk,,3,-2,-11,1,0,0,rectangle,-2,-11,1,0,0,-2,-11,1,0,0,0,34,34,130,1,,,,,,,,
,,,,,,,,,,,,,FF,,,,,,,,0.7671,,,,,,,,,,,,,,,,,,,,,,60fd03a3f22f9dd32bff5fa8,61036d7f810ea010637744ab,2021-07-30_12h40.40.156,Simcolourproject_2stim_asymm_v5,2020.2.10,Win32,60,61025ae37ef11b136ea224fe,,,,,,,,,592,98,41,1,0,0,response1disk,,6,8,-2,1,0,0,rectangle,8,-2,1,0,0,8,-2,1,0,0,0,35,35,68,1,,,,,,,,
,,,,,,,,,,,,,FF,,,,,,,,0.5344,,,,,,,,,,,,,,,,,,,,,,60fd03a3f22f9dd32bff5fa8,61036d7f810ea010637744ab,2021-07-30_12h40.40.156,Simcolourproject_2stim_asymm_v5,2020.2.10,Win32,60,61025ae37ef11b136ea224fe,,,,,,,,,1029,82,-44,1,0,0,response3disk,,5,-2,-11,1,0,0,rectangle,-2,-11,1,0,0,-2,-11,1,0,0,0,36,36,30,1,,,,,,,,
,,,,,,,,,,,,,FF,,,,,,,,0.6003,,,,,,,,,,,,,,,,,,,,,,60fd03a3f22f9dd32bff5fa8,61036d7f810ea010637744ab,2021-07-30_12h40.40.156,Simcolourproject_2stim_asymm_v5,2020.2.10,Win32,60,61025ae37ef11b136ea224fe,,,,,,,,,3351,70,95,1,0,0,response1disk,,7,24,10,1,0,0,rectangle,24,10,1,0,0,24,10,1,0,0,0,37,37,84,1,,,,,,,,
,,,,,,,,,,,,,FF,,,,,,,,0.8339,,,,,,,,,,,,,,,,,,,,,,60fd03a3f22f9dd32bff5fa8,61036d7f810ea010637744ab,2021-07-30_12h40.40.156,Simcolourproject_2stim_asymm_v5,2020.2.10,Win32,60,61025ae37ef11b136ea224fe,,,,,,,,,4237,-103,45,1,0,0,response7disk,,1,-8,2,1,0,0,rectangle,-8,2,1,0,0,-8,2,1,0,0,0,38,38,7,1,,,,,,,,
,,,,,,,,,,,,,FF,,,,,,,,1.2011,,,,,,,,,,,,,,,,,,,,,,60fd03a3f22f9dd32bff5fa8,61036d7f810ea010637744ab,2021-07-30_12h40.40.156,Simcolourproject_2stim_asymm_v5,2020.2.10,Win32,60,61025ae37ef11b136ea224fe,,,,,,,,,2536,123,45,1,0,0,response1disk,,6,30,-1,1,0,0,rectangle,30,-1,1,0,0,30,-1,1,0,0,0,39,39,43,1,,,,,,,,
,,,,,,,,,,,,,FF,,,,,,,,0.5504,,,,,,,,,,,,,,,,,,,,,,60fd03a3f22f9dd32bff5fa8,61036d7f810ea010637744ab,2021-07-30_12h40.40.156,Simcolourproject_2stim_asymm_v5,2020.2.10,Win32,60,61025ae37ef11b136ea224fe,,,,,,,,,3320,75,66,1,0,0,response1disk,,6,-7,-9,1,0,0,rectangle,-7,-9,1,0,0,-7,-9,1,0,0,0,40,40,29,1,,,,,,,,
,,,,,,,,,,,,,FF,,,,,,,,0.7828,,,,,,,,,,,,,,,,,,,,,,60fd03a3f22f9dd32bff5fa8,61036d7f810ea010637744ab,2021-07-30_12h40.40.156,Simcolourproject_2stim_asymm_v5,2020.2.10,Win32,60,61025ae37ef11b136ea224fe,,,,,,,,,3970,-63,-101,1,0,0,response5disk,,3,-18,-3,1,0,0,rectangle,-18,-3,1,0,0,-18,-3,1,0,0,0,41,41,36,1,,,,,,,,
,,,,,,,,,,,,,FF,,,,,,,,0.8008,,,,,,,,,,,,,,,,,,,,,,60fd03a3f22f9dd32bff5fa8,61036d7f810ea010637744ab,2021-07-30_12h40.40.156,Simcolourproject_2stim_asymm_v5,2020.2.10,Win32,60,61025ae37ef11b136ea224fe,,,,,,,,,241,41,-91,1,0,0,response3disk,,4,13,-3,1,0,0,rectangle,13,-3,1,0,0,13,-3,1,0,0,0,42,42,49,1,,,,,,,,
,,,,,,,,,,,,,FF,,,,,,,,0.7167,,,,,,,,,,,,,,,,,,,,,,60fd03a3f22f9dd32bff5fa8,61036d7f810ea010637744ab,2021-07-30_12h40.40.156,Simcolourproject_2stim_asymm_v5,2020.2.10,Win32,60,61025ae37ef11b136ea224fe,,,,,,,,,914,114,-55,1,0,0,response3disk,,5,5,16,1,0,0,rectangle,5,16,1,0,0,5,16,1,0,0,0,43,43,69,1,,,,,,,,
,,,,,,,,,,,,,FF,,,,,,,,0.5842,,,,,,,,,,,,,,,,,,,,,,60fd03a3f22f9dd32bff5fa8,61036d7f810ea010637744ab,2021-07-30_12h40.40.156,Simcolourproject_2stim_asymm_v5,2020.2.10,Win32,60,61025ae37ef11b136ea224fe,,,,,,,,,4030,-87,-136,1,0,0,response5disk,,3,-15,16,1,0,0,rectangle,-15,16,1,0,0,-15,16,1,0,0,0,44,44,21,1,,,,,,,,
,,,,,,,,,,,,,FF,,,,,,,,0.7845,,,,,,,,,,,,,,,,,,,,,,60fd03a3f22f9dd32bff5fa8,61036d7f810ea010637744ab,2021-07-30_12h40.40.156,Simcolourproject_2stim_asymm_v5,2020.2.10,Win32,60,61025ae37ef11b136ea224fe,,,,,,,,,294,137,-54,1,0,0,response3disk,,5,-15,19,1,0,0,rectangle,-15,19,1,0,0,-15,19,1,0,0,0,45,45,58,1,,,,,,,,
,,,,,,,,,,,,,FF,,,,,,,,0.818,,,,,,,,,,,,,,,,,,,,,,60fd03a3f22f9dd32bff5fa8,61036d7f810ea010637744ab,2021-07-30_12h40.40.156,Simcolourproject_2stim_asymm_v5,2020.2.10,Win32,60,61025ae37ef11b136ea224fe,,,,,,,,,2123,103,51,1,0,0,response1disk,,6,-41,4,1,0,0,rectangle,-41,4,1,0,0,-41,4,1,0,0,0,46,46,154,1,,,,,,,,
,,,,,,,,,,,,,FF,,,,,,,,0.7664,,,,,,,,,,,,,,,,,,,,,,60fd03a3f22f9dd32bff5fa8,61036d7f810ea010637744ab,2021-07-30_12h40.40.156,Simcolourproject_2stim_asymm_v5,2020.2.10,Win32,60,61025ae37ef11b136ea224fe,,,,,,,,,1457,-38,-88,1,0,0,response5disk,,3,-7,-2,1,0,0,rectangle,-7,-2,1,0,0,-7,-2,1,0,0,0,47,47,44,1,,,,,,,,
,,,,,,,,,,,,,FF,,,,,,,,0.7335,,,,,,,,,,,,,,,,,,,,,,60fd03a3f22f9dd32bff5fa8,61036d7f810ea010637744ab,2021-07-30_12h40.40.156,Simcolourproject_2stim_asymm_v5,2020.2.10,Win32,60,61025ae37ef11b136ea224fe,,,,,,,,,3610,101,49,1,0,0,response1disk,,6,-7,-11,1,0,0,rectangle,-7,-11,1,0,0,-7,-11,1,0,0,0,48,48,23,1,,,,,,,,
,,,,,,,,,,,,,FF,,,,,,,,1.0337,,,,,,,,,,,,,,,,,,,,,,60fd03a3f22f9dd32bff5fa8,61036d7f810ea010637744ab,2021-07-30_12h40.40.156,Simcolourproject_2stim_asymm_v5,2020.2.10,Win32,60,61025ae37ef11b136ea224fe,,,,,,,,,1662,126,-58,1,0,0,response3disk,,5,23,7,1,0,0,rectangle,23,7,1,0,0,23,7,1,0,0,0,49,49,40,1,,,,,,,,
,,,,,,,,,,,,,FF,,,,,,,,0.5332,,,,,,,,,,,,,,,,,,,,,,60fd03a3f22f9dd32bff5fa8,61036d7f810ea010637744ab,2021-07-30_12h40.40.156,Simcolourproject_2stim_asymm_v5,2020.2.10,Win32,60,61025ae37ef11b136ea224fe,,,,,,,,,501,130,56,1,0,0,response1disk,,6,20,-4,1,0,0,rectangle,20,-4,1,0,0,20,-4,1,0,0,0,50,50,111,1,,,,,,,,
,,,,,,,,,,,,,FF,,,,,,,,0.7502,,,,,,,,,,,,,,,,,,,,,,60fd03a3f22f9dd32bff5fa8,61036d7f810ea010637744ab,2021-07-30_12h40.40.156,Simcolourproject_2stim_asymm_v5,2020.2.10,Win32,60,61025ae37ef11b136ea224fe,,,,,,,,,3998,-101,-61,1,0,0,response5disk,,2,6,-2,1,0,0,rectangle,6,-2,1,0,0,6,-2,1,0,0,0,51,51,137,1,,,,,,,,
,,,,,,,,,,,,,FF,,,,,,,,0.5503,,,,,,,,,,,,,,,,,,,,,,60fd03a3f22f9dd32bff5fa8,61036d7f810ea010637744ab,2021-07-30_12h40.40.156,Simcolourproject_2stim_asymm_v5,2020.2.10,Win32,60,61025ae37ef11b136ea224fe,,,,,,,,,4308,88,59,1,0,0,response1disk,,6,-17,9,1,0,0,rectangle,-17,9,1,0,0,-17,9,1,0,0,0,52,52,141,1,,,,,,,,
,,,,,,,,,,,,,FF,,,,,,,,0.5175,,,,,,,,,,,,,,,,,,,,,,60fd03a3f22f9dd32bff5fa8,61036d7f810ea010637744ab,2021-07-30_12h40.40.156,Simcolourproject_2stim_asymm_v5,2020.2.10,Win32,60,61025ae37ef11b136ea224fe,,,,,,,,,1266,64,-41,1,0,0,response3disk,,5,35,-8,1,0,0,rectangle,35,-8,1,0,0,35,-8,1,0,0,0,53,53,14,1,,,,,,,,
,,,,,,,,,,,,,FF,,,,,,,,0.517,,,,,,,,,,,,,,,,,,,,,,60fd03a3f22f9dd32bff5fa8,61036d7f810ea010637744ab,2021-07-30_12h40.40.156,Simcolourproject_2stim_asymm_v5,2020.2.10,Win32,60,61025ae37ef11b136ea224fe,,,,,,,,,3591,-60,107,1,0,0,response7disk,,0,-14,1,1,0,0,rectangle,-101,-52,1,0,0,-7,8,1,0,0,0,54,54,0,1,,response5disk_3,TRUE,2,2,"[142,74,227,253,292,141,115,320,320,34,161,92,55,266,3,99,261,9,102,267]",1.9007,rectangle
,,,,,,,,,,,,,FF,,,,,,,,0.9004,,,,,,,,,,,,,,,,,,,,,,60fd03a3f22f9dd32bff5fa8,61036d7f810ea010637744ab,2021-07-30_12h40.40.156,Simcolourproject_2stim_asymm_v5,2020.2.10,Win32,60,61025ae37ef11b136ea224fe,,,,,,,,,2616,76,-106,1,0,0,response3disk,,4,27,-14,1,0,0,rectangle,27,-14,1,0,0,27,-14,1,0,0,0,55,55,113,1,,,,,,,,
,,,,,,,,,,,,,FF,,,,,,,,0.8513,,,,,,,,,,,,,,,,,,,,,,60fd03a3f22f9dd32bff5fa8,61036d7f810ea010637744ab,2021-07-30_12h40.40.156,Simcolourproject_2stim_asymm_v5,2020.2.10,Win32,60,61025ae37ef11b136ea224fe,,,,,,,,,1304,-79,36,1,0,0,response7disk,,1,-8,13,1,0,0,rectangle,-8,13,1,0,0,-8,13,1,0,0,0,56,56,148,1,,,,,,,,
,,,,,,,,,,,,,FF,,,,,,,,0.6501,,,,,,,,,,,,,,,,,,,,,,60fd03a3f22f9dd32bff5fa8,61036d7f810ea010637744ab,2021-07-30_12h40.40.156,Simcolourproject_2stim_asymm_v5,2020.2.10,Win32,60,61025ae37ef11b136ea224fe,,,,,,,,,3516,-106,-56,1,0,0,response5disk,,2,7,-9,1,0,0,rectangle,7,-9,1,0,0,7,-9,1,0,0,0,57,57,77,1,,,,,,,,
,,,,,,,,,,,,,FF,,,,,,,,1.3341,,,,,,,,,,,,,,,,,,,,,,60fd03a3f22f9dd32bff5fa8,61036d7f810ea010637744ab,2021-07-30_12h40.40.156,Simcolourproject_2stim_asymm_v5,2020.2.10,Win32,60,61025ae37ef11b136ea224fe,,,,,,,,,1143,42,-79,1,0,0,response3disk,,4,10,-16,1,0,0,rectangle,10,-16,1,0,0,10,-16,1,0,0,0,58,58,86,1,,,,,,,,
,,,,,,,,,,,,,FF,,,,,,,,0.7834,,,,,,,,,,,,,,,,,,,,,,60fd03a3f22f9dd32bff5fa8,61036d7f810ea010637744ab,2021-07-30_12h40.40.156,Simcolourproject_2stim_asymm_v5,2020.2.10,Win32,60,61025ae37ef11b136ea224fe,,,,,,,,,1370,-103,46,1,0,0,response7disk,,1,-11,-4,1,0,0,rectangle,-11,-4,1,0,0,-11,-4,1,0,0,0,59,59,120,1,,,,,,,,
,,,,,,,,,,,,,FF,,,,,,,,0.8504,,,,,,,,,,,,,,,,,,,,,,60fd03a3f22f9dd32bff5fa8,61036d7f810ea010637744ab,2021-07-30_12h40.40.156,Simcolourproject_2stim_asymm_v5,2020.2.10,Win32,60,61025ae37ef11b136ea224fe,,,,,,,,,2649,86,-40,1,0,0,response3disk,,5,2,6,1,0,0,rectangle,2,6,1,0,0,2,6,1,0,0,0,60,60,15,1,,,,,,,,
,,,,,,,,,,,,,FF,,,,,,,,0.7007,,,,,,,,,,,,,,,,,,,,,,60fd03a3f22f9dd32bff5fa8,61036d7f810ea010637744ab,2021-07-30_12h40.40.156,Simcolourproject_2stim_asymm_v5,2020.2.10,Win32,60,61025ae37ef11b136ea224fe,,,,,,,,,2056,94,30,1,0,0,response1disk,,6,-45,8,1,0,0,rectangle,-45,8,1,0,0,-45,8,1,0,0,0,61,61,150,1,,,,,,,,
,,,,,,,,,,,,,FF,,,,,,,,6.2189,,,,,,,,,,,,,,,,,,,,,,60fd03a3f22f9dd32bff5fa8,61036d7f810ea010637744ab,2021-07-30_12h40.40.156,Simcolourproject_2stim_asymm_v5,2020.2.10,Win32,60,61025ae37ef11b136ea224fe,,,,,,,,,4225,65,95.5,1,0,0,response1disk,,7,-7,-12.5,1,0,0,rectangle,-7,-12.5,1,0,0,-7,-12.5,1,0,0,0,62,62,31,1,,,,,,,,
,,,,,,,,,,,,,FF,,,,,,,,0.9008,,,,,,,,,,,,,,,,,,,,,,60fd03a3f22f9dd32bff5fa8,61036d7f810ea010637744ab,2021-07-30_12h40.40.156,Simcolourproject_2stim_asymm_v5,2020.2.10,Win32,60,61025ae37ef11b136ea224fe,,,,,,,,,456,-99,37.5,1,0,0,response7disk,,1,-25,-15.5,1,0,0,rectangle,-25,-15.5,1,0,0,-25,-15.5,1,0,0,0,63,63,114,1,,,,,,,,
,,,,,,,,,,,,,FF,,,,,,,,0.6333,,,,,,,,,,,,,,,,,,,,,,60fd03a3f22f9dd32bff5fa8,61036d7f810ea010637744ab,2021-07-30_12h40.40.156,Simcolourproject_2stim_asymm_v5,2020.2.10,Win32,60,61025ae37ef11b136ea224fe,,,,,,,,,1886,-64,120.5,1,0,0,response7disk,,0,-10,-6.5,1,0,0,rectangle,-10,-6.5,1,0,0,-10,-6.5,1,0,0,0,64,64,79,1,,,,,,,,
,,,,,,,,,,,,,FF,,,,,,,,0.6849,,,,,,,,,,,,,,,,,,,,,,60fd03a3f22f9dd32bff5fa8,61036d7f810ea010637744ab,2021-07-30_12h40.40.156,Simcolourproject_2stim_asymm_v5,2020.2.10,Win32,60,61025ae37ef11b136ea224fe,,,,,,,,,3204,-82,39.5,1,0,0,response7disk,,1,-16,14.5,1,0,0,rectangle,-16,14.5,1,0,0,-16,14.5,1,0,0,0,65,65,151,1,,,,,,,,
,,,,,,,,,,,,,FF,,,,,,,,0.633,,,,,,,,,,,,,,,,,,,,,,60fd03a3f22f9dd32bff5fa8,61036d7f810ea010637744ab,2021-07-30_12h40.40.156,Simcolourproject_2stim_asymm_v5,2020.2.10,Win32,60,61025ae37ef11b136ea224fe,,,,,,,,,2493,92,52.5,1,0,0,response1disk,,6,-6,-6.5,1,0,0,rectangle,-6,-6.5,1,0,0,-6,-6.5,1,0,0,0,66,66,107,1,,,,,,,,
,,,,,,,,,,,,,FF,,,,,,,,0.5824,,,,,,,,,,,,,,,,,,,,,,60fd03a3f22f9dd32bff5fa8,61036d7f810ea010637744ab,2021-07-30_12h40.40.156,Simcolourproject_2stim_asymm_v5,2020.2.10,Win32,60,61025ae37ef11b136ea224fe,,,,,,,,,796,67,-20.5,1,0,0,response3disk,,5,11,4.5,1,0,0,rectangle,11,4.5,1,0,0,11,4.5,1,0,0,0,67,67,127,1,,,,,,,,
,,,,,,,,,,,,,FF,,,,,,,,0.6001,,,,,,,,,,,,,,,,,,,,,,60fd03a3f22f9dd32bff5fa8,61036d7f810ea010637744ab,2021-07-30_12h40.40.156,Simcolourproject_2stim_asymm_v5,2020.2.10,Win32,60,61025ae37ef11b136ea224fe,,,,,,,,,1628,89,40.5,1,0,0,response1disk,,6,-16,18.5,1,0,0,rectangle,-16,18.5,1,0,0,-16,18.5,1,0,0,0,68,68,4,1,,,,,,,,
,,,,,,,,,,,,,FF,,,,,,,,0.3834,,,,,,,,,,,,,,,,,,,,,,60fd03a3f22f9dd32bff5fa8,61036d7f810ea010637744ab,2021-07-30_12h40.40.156,Simcolourproject_2stim_asymm_v5,2020.2.10,Win32,60,61025ae37ef11b136ea224fe,,,,,,,,,2585,63,95.5,1,0,0,response1disk,,7,25,12.5,1,0,0,rectangle,25,12.5,1,0,0,25,12.5,1,0,0,0,69,69,106,1,,,,,,,,
,,,,,,,,,,,,,FF,,,,,,,,0.4335,,,,,,,,,,,,,,,,,,,,,,60fd03a3f22f9dd32bff5fa8,61036d7f810ea010637744ab,2021-07-30_12h40.40.156,Simcolourproject_2stim_asymm_v5,2020.2.10,Win32,60,61025ae37ef11b136ea224fe,,,,,,,,,2762,60,73.5,1,0,0,response1disk,,7,31,-3.5,1,0,0,rectangle,31,-3.5,1,0,0,31,-3.5,1,0,0,0,70,70,159,1,,,,,,,,
,,,,,,,,,,,,,FF,,,,,,,,0.5008,,,,,,,,,,,,,,,,,,,,,,60fd03a3f22f9dd32bff5fa8,61036d7f810ea010637744ab,2021-07-30_12h40.40.156,Simcolourproject_2stim_asymm_v5,2020.2.10,Win32,60,61025ae37ef11b136ea224fe,,,,,,,,,365,73,97.5,1,0,0,response1disk,,7,25,4.5,1,0,0,rectangle,25,4.5,1,0,0,25,4.5,1,0,0,0,71,71,85,1,,,,,,,,
,,,,,,,,,,,,,FF,,,,,,,,0.8388,,,,,,,,,,,,,,,,,,,,,,60fd03a3f22f9dd32bff5fa8,61036d7f810ea010637744ab,2021-07-30_12h40.40.156,Simcolourproject_2stim_asymm_v5,2020.2.10,Win32,60,61025ae37ef11b136ea224fe,,,,,,,,,4052,-73,-33.5,1,0,0,response5disk,,2,13,-17.5,1,0,0,rectangle,13,-17.5,1,0,0,13,-17.5,1,0,0,0,72,72,51,1,,,,,,,,
,,,,,,,,,,,,,FF,,,,,,,,0.8061,,,,,,,,,,,,,,,,,,,,,,60fd03a3f22f9dd32bff5fa8,61036d7f810ea010637744ab,2021-07-30_12h40.40.156,Simcolourproject_2stim_asymm_v5,2020.2.10,Win32,60,61025ae37ef11b136ea224fe,,,,,,,,,3276,35,-88.5,1,0,0,response3disk,,4,3,8.5,1,0,0,rectangle,81,-128.5,1,0,0,-3,-0.5,1,0,0,0,73,73,47,1,,response3disk_3,TRUE,4,4,"[142,74,227,253,292,141,115,320,320,34,161,92,55,266,3,99,261,9,102,267]",2.1541,rectangle
,,,,,,,,,,,,,FF,,,,,,,,0.8,,,,,,,,,,,,,,,,,,,,,,60fd03a3f22f9dd32bff5fa8,61036d7f810ea010637744ab,2021-07-30_12h40.40.156,Simcolourproject_2stim_asymm_v5,2020.2.10,Win32,60,61025ae37ef11b136ea224fe,,,,,,,,,3304,-119,-57.5,1,0,0,response5disk,,2,-20,-7.5,1,0,0,rectangle,-20,-7.5,1,0,0,-20,-7.5,1,0,0,0,74,74,157,1,,,,,,,,
,,,,,,,,,,,,,FF,,,,,,,,0.8004,,,,,,,,,,,,,,,,,,,,,,60fd03a3f22f9dd32bff5fa8,61036d7f810ea010637744ab,2021-07-30_12h40.40.156,Simcolourproject_2stim_asymm_v5,2020.2.10,Win32,60,61025ae37ef11b136ea224fe,,,,,,,,,1986,74,-54.5,1,0,0,response3disk,,5,4,-6.5,1,0,0,rectangle,4,-6.5,1,0,0,4,-6.5,1,0,0,0,75,75,155,1,,,,,,,,
,,,,,,,,,,,,,FF,,,,,,,,0.6341,,,,,,,,,,,,,,,,,,,,,,60fd03a3f22f9dd32bff5fa8,61036d7f810ea010637744ab,2021-07-30_12h40.40.156,Simcolourproject_2stim_asymm_v5,2020.2.10,Win32,60,61025ae37ef11b136ea224fe,,,,,,,,,3603,42,-69.5,1,0,0,response3disk,,4,3,-4.5,1,0,0,rectangle,3,-4.5,1,0,0,3,-4.5,1,0,0,0,76,76,140,1,,,,,,,,
,,,,,,,,,,,,,FF,,,,,,,,0.5829,,,,,,,,,,,,,,,,,,,,,,60fd03a3f22f9dd32bff5fa8,61036d7f810ea010637744ab,2021-07-30_12h40.40.156,Simcolourproject_2stim_asymm_v5,2020.2.10,Win32,60,61025ae37ef11b136ea224fe,,,,,,,,,3532,113,54.5,1,0,0,response1disk,,6,10,3.5,1,0,0,rectangle,10,3.5,1,0,0,10,3.5,1,0,0,0,77,77,116,1,,,,,,,,
,,,,,,,,,,,,,FF,,,,,,,,0.7654,,,,,,,,,,,,,,,,,,,,,,60fd03a3f22f9dd32bff5fa8,61036d7f810ea010637744ab,2021-07-30_12h40.40.156,Simcolourproject_2stim_asymm_v5,2020.2.10,Win32,60,61025ae37ef11b136ea224fe,,,,,,,,,4042,68,49.5,1,0,0,response1disk,,6,-9,4.5,1,0,0,rectangle,-9,4.5,1,0,0,-9,4.5,1,0,0,0,78,78,13,1,,,,,,,,
,,,,,,,,,,,,,FF,,,,,,,,0.7845,,,,,,,,,,,,,,,,,,,,,,60fd03a3f22f9dd32bff5fa8,61036d7f810ea010637744ab,2021-07-30_12h40.40.156,Simcolourproject_2stim_asymm_v5,2020.2.10,Win32,60,61025ae37ef11b136ea224fe,,,,,,,,,2890,-54,-102.5,1,0,0,response5disk,,3,-15,-14.5,1,0,0,rectangle,-15,-14.5,1,0,0,-15,-14.5,1,0,0,0,79,79,83,1,,,,,,,,
,,,,,,,,,,,,,FF,,,,,,,,0.6001,,,,,,,,,,,,,,,,,,,,,,60fd03a3f22f9dd32bff5fa8,61036d7f810ea010637744ab,2021-07-30_12h40.40.156,Simcolourproject_2stim_asymm_v5,2020.2.10,Win32,60,61025ae37ef11b136ea224fe,,,,,,,,,1507,122,-20.5,1,0,0,response3disk,,5,4,-8.5,1,0,0,rectangle,4,-8.5,1,0,0,4,-8.5,1,0,0,0,80,80,45,1,,,,,,,,
,,,,,,,,,,,,,FF,,,,,,,,0.5829,,,,,,,,,,,,,,,,,,,,,,60fd03a3f22f9dd32bff5fa8,61036d7f810ea010637744ab,2021-07-30_12h40.40.156,Simcolourproject_2stim_asymm_v5,2020.2.10,Win32,60,61025ae37ef11b136ea224fe,,,,,,,,,1501,95,99.5,1,0,0,response1disk,,7,-10,-3.5,1,0,0,rectangle,-10,-3.5,1,0,0,-10,-3.5,1,0,0,0,81,81,105,1,,,,,,,,
,,,,,,,,,,,,,FF,,,,,,,,0.5834,,,,,,,,,,,,,,,,,,,,,,60fd03a3f22f9dd32bff5fa8,61036d7f810ea010637744ab,2021-07-30_12h40.40.156,Simcolourproject_2stim_asymm_v5,2020.2.10,Win32,60,61025ae37ef11b136ea224fe,,,,,,,,,1646,77,35.5,1,0,0,response1disk,,6,15,7.5,1,0,0,rectangle,15,7.5,1,0,0,15,7.5,1,0,0,0,82,82,53,1,,,,,,,,
,,,,,,,,,,,,,FF,,,,,,,,0.7672,,,,,,,,,,,,,,,,,,,,,,60fd03a3f22f9dd32bff5fa8,61036d7f810ea010637744ab,2021-07-30_12h40.40.156,Simcolourproject_2stim_asymm_v5,2020.2.10,Win32,60,61025ae37ef11b136ea224fe,,,,,,,,,355,-100,28.5,1,0,0,response7disk,,1,-21,-7.5,1,0,0,rectangle,-21,-7.5,1,0,0,-21,-7.5,1,0,0,0,83,83,135,1,,,,,,,,
,,,,,,,,,,,,,FF,,,,,,,,0.7508,,,,,,,,,,,,,,,,,,,,,,60fd03a3f22f9dd32bff5fa8,61036d7f810ea010637744ab,2021-07-30_12h40.40.156,Simcolourproject_2stim_asymm_v5,2020.2.10,Win32,60,61025ae37ef11b136ea224fe,,,,,,,,,4175,133,54.5,1,0,0,response1disk,,6,42,-13.5,1,0,0,rectangle,42,-13.5,1,0,0,42,-13.5,1,0,0,0,84,84,125,1,,,,,,,,
,,,,,,,,,,,,,FF,,,,,,,,0.6843,,,,,,,,,,,,,,,,,,,,,,60fd03a3f22f9dd32bff5fa8,61036d7f810ea010637744ab,2021-07-30_12h40.40.156,Simcolourproject_2stim_asymm_v5,2020.2.10,Win32,60,61025ae37ef11b136ea224fe,,,,,,,,,2177,53,-53.5,1,0,0,response3disk,,4,7,-8.5,1,0,0,rectangle,7,-8.5,1,0,0,7,-8.5,1,0,0,0,85,85,34,1,,,,,,,,
,,,,,,,,,,,,,FF,,,,,,,,0.9857,,,,,,,,,,,,,,,,,,,,,,60fd03a3f22f9dd32bff5fa8,61036d7f810ea010637744ab,2021-07-30_12h40.40.156,Simcolourproject_2stim_asymm_v5,2020.2.10,Win32,60,61025ae37ef11b136ea224fe,,,,,,,,,973,-104,-65.5,1,0,0,response5disk,,2,-14,5.5,1,0,0,rectangle,-14,5.5,1,0,0,-14,5.5,1,0,0,0,86,86,145,1,,,,,,,,
,,,,,,,,,,,,,FF,,,,,,,,0.734,,,,,,,,,,,,,,,,,,,,,,60fd03a3f22f9dd32bff5fa8,61036d7f810ea010637744ab,2021-07-30_12h40.40.156,Simcolourproject_2stim_asymm_v5,2020.2.10,Win32,60,61025ae37ef11b136ea224fe,,,,,,,,,403,87,-28.5,1,0,0,response3disk,,5,11,-5.5,1,0,0,rectangle,11,-5.5,1,0,0,11,-5.5,1,0,0,0,87,87,121,1,,,,,,,,
,,,,,,,,,,,,,FF,,,,,,,,0.7009,,,,,,,,,,,,,,,,,,,,,,60fd03a3f22f9dd32bff5fa8,61036d7f810ea010637744ab,2021-07-30_12h40.40.156,Simcolourproject_2stim_asymm_v5,2020.2.10,Win32,60,61025ae37ef11b136ea224fe,,,,,,,,,2009,130,38.5,1,0,0,response1disk,,6,1,-0.5,1,0,0,rectangle,1,-0.5,1,0,0,1,-0.5,1,0,0,0,88,88,71,1,,,,,,,,
,,,,,,,,,,,,,FF,,,,,,,,0.8011,,,,,,,,,,,,,,,,,,,,,,60fd03a3f22f9dd32bff5fa8,61036d7f810ea010637744ab,2021-07-30_12h40.40.156,Simcolourproject_2stim_asymm_v5,2020.2.10,Win32,60,61025ae37ef11b136ea224fe,,,,,,,,,1959,-95,-73.5,1,0,0,response5disk,,2,19,5.5,1,0,0,rectangle,19,5.5,1,0,0,19,5.5,1,0,0,0,89,89,147,1,,,,,,,,
,,,,,,,,,,,,,FF,,,,,,,,0.7003,,,,,,,,,,,,,,,,,,,,,,60fd03a3f22f9dd32bff5fa8,61036d7f810ea010637744ab,2021-07-30_12h40.40.156,Simcolourproject_2stim_asymm_v5,2020.2.10,Win32,60,61025ae37ef11b136ea224fe,,,,,,,,,3004,-47,-103.5,1,0,0,response5disk,,3,-4,0.5,1,0,0,rectangle,-4,0.5,1,0,0,-4,0.5,1,0,0,0,90,90,139,1,,,,,,,,
,,,,,,,,,,,,,FF,,,,,,,,0.5505,,,,,,,,,,,,,,,,,,,,,,60fd03a3f22f9dd32bff5fa8,61036d7f810ea010637744ab,2021-07-30_12h40.40.156,Simcolourproject_2stim_asymm_v5,2020.2.10,Win32,60,61025ae37ef11b136ea224fe,,,,,,,,,2523,140,63.5,1,0,0,response1disk,,6,6,-3.5,1,0,0,rectangle,-60,-133.5,1,0,0,11,-5.5,1,0,0,0,91,91,142,1,,response5disk_3,TRUE,3,3,"[142,74,227,253,292,141,115,320,320,34,161,92,55,266,3,99,261,9,102,267]",1.9509,rectangle
,,,,,,,,,,,,,FF,,,,,,,,1.5023,,,,,,,,,,,,,,,,,,,,,,60fd03a3f22f9dd32bff5fa8,61036d7f810ea010637744ab,2021-07-30_12h40.40.156,Simcolourproject_2stim_asymm_v5,2020.2.10,Win32,60,61025ae37ef11b136ea224fe,,,,,,,,,2243,-90,-58.5,1,0,0,response5disk,,2,-8,-7.5,1,0,0,rectangle,-8,-7.5,1,0,0,-8,-7.5,1,0,0,0,92,92,20,1,,,,,,,,
,,,,,,,,,,,,,FF,,,,,,,,0.7349,,,,,,,,,,,,,,,,,,,,,,60fd03a3f22f9dd32bff5fa8,61036d7f810ea010637744ab,2021-07-30_12h40.40.156,Simcolourproject_2stim_asymm_v5,2020.2.10,Win32,60,61025ae37ef11b136ea224fe,,,,,,,,,3502,41,-74.5,1,0,0,response3disk,,4,12,-5.5,1,0,0,rectangle,12,-5.5,1,0,0,12,-5.5,1,0,0,0,93,93,94,1,,,,,,,,
,,,,,,,,,,,,,FF,,,,,,,,0.9066,,,,,,,,,,,,,,,,,,,,,,60fd03a3f22f9dd32bff5fa8,61036d7f810ea010637744ab,2021-07-30_12h40.40.156,Simcolourproject_2stim_asymm_v5,2020.2.10,Win32,60,61025ae37ef11b136ea224fe,,,,,,,,,3300,63,104.5,1,0,0,response1disk,,7,-6,18.5,1,0,0,rectangle,-6,18.5,1,0,0,-6,18.5,1,0,0,0,94,94,63,1,,,,,,,,
,,,,,,,,,,,,,FF,,,,,,,,0.4842,,,,,,,,,,,,,,,,,,,,,,60fd03a3f22f9dd32bff5fa8,61036d7f810ea010637744ab,2021-07-30_12h40.40.156,Simcolourproject_2stim_asymm_v5,2020.2.10,Win32,60,61025ae37ef11b136ea224fe,,,,,,,,,2393,59,41.5,1,0,0,response1disk,,6,9,18.5,1,0,0,rectangle,9,18.5,1,0,0,9,18.5,1,0,0,0,95,95,48,1,,,,,,,,
,,,,,,,,,,,,,FF,,,,,,,,0.3968,,,,,,,,,,,,,,,,,,,,,,60fd03a3f22f9dd32bff5fa8,61036d7f810ea010637744ab,2021-07-30_12h40.40.156,Simcolourproject_2stim_asymm_v5,2020.2.10,Win32,60,61025ae37ef11b136ea224fe,,,,,,,,,850,109,49.5,1,0,0,response1disk,,6,31,6.5,1,0,0,rectangle,31,6.5,1,0,0,31,6.5,1,0,0,0,96,96,52,1,,,,,,,,
,,,,,,,,,,,,,FF,,,,,,,,0.5,,,,,,,,,,,,,,,,,,,,,,60fd03a3f22f9dd32bff5fa8,61036d7f810ea010637744ab,2021-07-30_12h40.40.156,Simcolourproject_2stim_asymm_v5,2020.2.10,Win32,60,61025ae37ef11b136ea224fe,,,,,,,,,150,44,82.5,1,0,0,response1disk,,7,19,12.5,1,0,0,rectangle,19,12.5,1,0,0,19,12.5,1,0,0,0,97,97,146,1,,,,,,,,
,,,,,,,,,,,,,FF,,,,,,,,0.6287,,,,,,,,,,,,,,,,,,,,,,60fd03a3f22f9dd32bff5fa8,61036d7f810ea010637744ab,2021-07-30_12h40.40.156,Simcolourproject_2stim_asymm_v5,2020.2.10,Win32,60,61025ae37ef11b136ea224fe,,,,,,,,,3950,-91,-41.5,1,0,0,response5disk,,2,-20,0.5,1,0,0,rectangle,-101,51.5,1,0,0,-32,-1.5,1,0,0,0,98,98,11,1,,response7disk_3,TRUE,1,1,"[142,74,227,253,292,141,115,320,320,34,161,92,55,266,3,99,261,9,102,267]",1.3226,rectangle
,,,,,,,,,,,,,FF,,,,,,,,0.8179,,,,,,,,,,,,,,,,,,,,,,60fd03a3f22f9dd32bff5fa8,61036d7f810ea010637744ab,2021-07-30_12h40.40.156,Simcolourproject_2stim_asymm_v5,2020.2.10,Win32,60,61025ae37ef11b136ea224fe,,,,,,,,,103,-85,-36.5,1,0,0,response5disk,,2,-7,-0.5,1,0,0,rectangle,-7,-0.5,1,0,0,-7,-0.5,1,0,0,0,99,99,46,1,,,,,,,,
,,,,,,,,,,,,,FF,,,,,,,,0.8336,,,,,,,,,,,,,,,,,,,,,,60fd03a3f22f9dd32bff5fa8,61036d7f810ea010637744ab,2021-07-30_12h40.40.156,Simcolourproject_2stim_asymm_v5,2020.2.10,Win32,60,61025ae37ef11b136ea224fe,,,,,,,,,190,-106,-48.5,1,0,0,response5disk,,2,13,-7.5,1,0,0,rectangle,13,-7.5,1,0,0,13,-7.5,1,0,0,0,100,100,124,1,,,,,,,,
,,,,,,,,,,,,,FF,,,,,,,,1.0025,,,,,,,,,,,,,,,,,,,,,,60fd03a3f22f9dd32bff5fa8,61036d7f810ea010637744ab,2021-07-30_12h40.40.156,Simcolourproject_2stim_asymm_v5,2020.2.10,Win32,60,61025ae37ef11b136ea224fe,,,,,,,,,2949,87,-54.5,1,0,0,response3disk,,5,-5,-9.5,1,0,0,rectangle,107,-42.5,1,0,0,-2,7.5,1,0,0,0,101,101,117,1,,response3disk_3,TRUE,5,5,"[142,74,227,253,292,141,115,320,320,34,161,92,55,266,3,99,261,9,102,267]",1.6512,rectangle
,,,,,,,,,,,,,FF,,,,,,,,1.817,,,,,,,,,,,,,,,,,,,,,,60fd03a3f22f9dd32bff5fa8,61036d7f810ea010637744ab,2021-07-30_12h40.40.156,Simcolourproject_2stim_asymm_v5,2020.2.10,Win32,60,61025ae37ef11b136ea224fe,,,,,,,,,2911,109,56.5,1,0,0,response1disk,,6,26,11.5,1,0,0,rectangle,26,11.5,1,0,0,26,11.5,1,0,0,0,102,102,153,1,,,,,,,,
,,,,,,,,,,,,,FF,,,,,,,,1.0963,,,,,,,,,,,,,,,,,,,,,,60fd03a3f22f9dd32bff5fa8,61036d7f810ea010637744ab,2021-07-30_12h40.40.156,Simcolourproject_2stim_asymm_v5,2020.2.10,Win32,60,61025ae37ef11b136ea224fe,,,,,,,,,2420,-111,67.5,1,0,0,response7disk,,1,-11,14.5,1,0,0,rectangle,-11,14.5,1,0,0,-11,14.5,1,0,0,0,103,103,33,1,,,,,,,,
,,,,,,,,,,,,,FF,,,,,,,,1.1128,,,,,,,,,,,,,,,,,,,,,,60fd03a3f22f9dd32bff5fa8,61036d7f810ea010637744ab,2021-07-30_12h40.40.156,Simcolourproject_2stim_asymm_v5,2020.2.10,Win32,60,61025ae37ef11b136ea224fe,,,,,,,,,284,-60,-124.5,1,0,0,response5disk,,3,-8,-9.5,1,0,0,rectangle,-8,-9.5,1,0,0,-8,-9.5,1,0,0,0,104,104,65,1,,,,,,,,
,,,,,,,,,,,,,FF,,,,,,,,0.617,,,,,,,,,,,,,,,,,,,,,,60fd03a3f22f9dd32bff5fa8,61036d7f810ea010637744ab,2021-07-30_12h40.40.156,Simcolourproject_2stim_asymm_v5,2020.2.10,Win32,60,61025ae37ef11b136ea224fe,,,,,,,,,2527,90,-40.5,1,0,0,response3disk,,5,-4,-12.5,1,0,0,rectangle,-4,-12.5,1,0,0,-4,-12.5,1,0,0,0,105,105,2,1,,,,,,,,
,,,,,,,,,,,,,FF,,,,,,,,0.7005,,,,,,,,,,,,,,,,,,,,,,60fd03a3f22f9dd32bff5fa8,61036d7f810ea010637744ab,2021-07-30_12h40.40.156,Simcolourproject_2stim_asymm_v5,2020.2.10,Win32,60,61025ae37ef11b136ea224fe,,,,,,,,,1442,149,29.5,1,0,0,response1disk,,6,-5,0.5,1,0,0,rectangle,-5,0.5,1,0,0,-5,0.5,1,0,0,0,106,106,122,1,,,,,,,,
,,,,,,,,,,,,,FF,,,,,,,,0.6678,,,,,,,,,,,,,,,,,,,,,,60fd03a3f22f9dd32bff5fa8,61036d7f810ea010637744ab,2021-07-30_12h40.40.156,Simcolourproject_2stim_asymm_v5,2020.2.10,Win32,60,61025ae37ef11b136ea224fe,,,,,,,,,2385,102,39.5,1,0,0,response1disk,,6,7,0.5,1,0,0,rectangle,7,0.5,1,0,0,7,0.5,1,0,0,0,107,107,73,1,,,,,,,,
,,,,,,,,,,,,,FF,,,,,,,,0.6835,,,,,,,,,,,,,,,,,,,,,,60fd03a3f22f9dd32bff5fa8,61036d7f810ea010637744ab,2021-07-30_12h40.40.156,Simcolourproject_2stim_asymm_v5,2020.2.10,Win32,60,61025ae37ef11b136ea224fe,,,,,,,,,469,76,60.5,1,0,0,response1disk,,6,-14,1.5,1,0,0,rectangle,-14,1.5,1,0,0,-14,1.5,1,0,0,0,108,108,92,1,,,,,,,,
,,,,,,,,,,,,,FF,,,,,,,,0.6625,,,,,,,,,,,,,,,,,,,,,,60fd03a3f22f9dd32bff5fa8,61036d7f810ea010637744ab,2021-07-30_12h40.40.156,Simcolourproject_2stim_asymm_v5,2020.2.10,Win32,60,61025ae37ef11b136ea224fe,,,,,,,,,1168,119,47.5,1,0,0,response1disk,,6,-22,0.5,1,0,0,rectangle,-22,0.5,1,0,0,-22,0.5,1,0,0,0,109,109,72,1,,,,,,,,
,,,,,,,,,,,,,FF,,,,,,,,0.818,,,,,,,,,,,,,,,,,,,,,,60fd03a3f22f9dd32bff5fa8,61036d7f810ea010637744ab,2021-07-30_12h40.40.156,Simcolourproject_2stim_asymm_v5,2020.2.10,Win32,60,61025ae37ef11b136ea224fe,,,,,,,,,3039,-109,-63.5,1,0,0,response5disk,,2,24,12.5,1,0,0,rectangle,24,12.5,1,0,0,24,12.5,1,0,0,0,110,110,101,1,,,,,,,,
,,,,,,,,,,,,,FF,,,,,,,,0.655,,,,,,,,,,,,,,,,,,,,,,60fd03a3f22f9dd32bff5fa8,61036d7f810ea010637744ab,2021-07-30_12h40.40.156,Simcolourproject_2stim_asymm_v5,2020.2.10,Win32,60,61025ae37ef11b136ea224fe,,,,,,,,,3360,78,81.5,1,0,0,response1disk,,7,26,3.5,1,0,0,rectangle,26,3.5,1,0,0,26,3.5,1,0,0,0,111,111,10,1,,,,,,,,
,,,,,,,,,,,,,FF,,,,,,,,0.5617,,,,,,,,,,,,,,,,,,,,,,60fd03a3f22f9dd32bff5fa8,61036d7f810ea010637744ab,2021-07-30_12h40.40.156,Simcolourproject_2stim_asymm_v5,2020.2.10,Win32,60,61025ae37ef11b136ea224fe,,,,,,,,,1564,110,55.5,1,0,0,response1disk,,6,33,15.5,1,0,0,rectangle,33,15.5,1,0,0,33,15.5,1,0,0,0,112,112,91,1,,,,,,,,
,,,,,,,,,,,,,FF,,,,,,,,0.551,,,,,,,,,,,,,,,,,,,,,,60fd03a3f22f9dd32bff5fa8,61036d7f810ea010637744ab,2021-07-30_12h40.40.156,Simcolourproject_2stim_asymm_v5,2020.2.10,Win32,60,61025ae37ef11b136ea224fe,,,,,,,,,1277,46,-29.5,1,0,0,response3disk,,5,8,4.5,1,0,0,rectangle,8,4.5,1,0,0,8,4.5,1,0,0,0,113,113,50,1,,,,,,,,
,,,,,,,,,,,,,FF,,,,,,,,0.5339,,,,,,,,,,,,,,,,,,,,,,60fd03a3f22f9dd32bff5fa8,61036d7f810ea010637744ab,2021-07-30_12h40.40.156,Simcolourproject_2stim_asymm_v5,2020.2.10,Win32,60,61025ae37ef11b136ea224fe,,,,,,,,,4174,59,102.5,1,0,0,response1disk,,7,24,15.5,1,0,0,rectangle,-112,-77.5,1,0,0,-8,-8.5,1,0,0,0,114,114,90,1,,response5disk_3,TRUE,2,2,"[142,74,227,253,292,141,115,320,320,34,161,92,55,266,3,99,261,9,102,267]",1.7492,rectangle
,,,,,,,,,,,,,FF,,,,,,,,1.8365,,,,,,,,,,,,,,,,,,,,,,60fd03a3f22f9dd32bff5fa8,61036d7f810ea010637744ab,2021-07-30_12h40.40.156,Simcolourproject_2stim_asymm_v5,2020.2.10,Win32,60,61025ae37ef11b136ea224fe,,,,,,,,,4256,-64,-92.5,1,0,0,response5disk,,3,-39,7.5,1,0,0,rectangle,-39,7.5,1,0,0,-39,7.5,1,0,0,0,115,115,22,1,,,,,,,,
,,,,,,,,,,,,,FF,,,,,,,,0.6853,,,,,,,,,,,,,,,,,,,,,,60fd03a3f22f9dd32bff5fa8,61036d7f810ea010637744ab,2021-07-30_12h40.40.156,Simcolourproject_2stim_asymm_v5,2020.2.10,Win32,60,61025ae37ef11b136ea224fe,,,,,,,,,3244,-112,50.5,1,0,0,response7disk,,1,7,3.5,1,0,0,rectangle,7,3.5,1,0,0,7,3.5,1,0,0,0,116,116,97,1,,,,,,,,
,,,,,,,,,,,,,FF,,,,,,,,0.8444,,,,,,,,,,,,,,,,,,,,,,60fd03a3f22f9dd32bff5fa8,61036d7f810ea010637744ab,2021-07-30_12h40.40.156,Simcolourproject_2stim_asymm_v5,2020.2.10,Win32,60,61025ae37ef11b136ea224fe,,,,,,,,,4345,-97,52.5,1,0,0,response7disk,,1,-9,-6.5,1,0,0,rectangle,-9,-6.5,1,0,0,-9,-6.5,1,0,0,0,117,117,74,1,,,,,,,,
,,,,,,,,,,,,,FF,,,,,,,,0.6557,,,,,,,,,,,,,,,,,,,,,,60fd03a3f22f9dd32bff5fa8,61036d7f810ea010637744ab,2021-07-30_12h40.40.156,Simcolourproject_2stim_asymm_v5,2020.2.10,Win32,60,61025ae37ef11b136ea224fe,,,,,,,,,1861,59,-27.5,1,0,0,response3disk,,5,14,2.5,1,0,0,rectangle,14,2.5,1,0,0,14,2.5,1,0,0,0,118,118,16,1,,,,,,,,
,,,,,,,,,,,,,FF,,,,,,,,0.4822,,,,,,,,,,,,,,,,,,,,,,60fd03a3f22f9dd32bff5fa8,61036d7f810ea010637744ab,2021-07-30_12h40.40.156,Simcolourproject_2stim_asymm_v5,2020.2.10,Win32,60,61025ae37ef11b136ea224fe,,,,,,,,,1848,114,40.5,1,0,0,response1disk,,6,-7,-14.5,1,0,0,rectangle,-7,-14.5,1,0,0,-7,-14.5,1,0,0,0,119,119,112,1,,,,,,,,
,,,,,,,,,,,,,FF,,,,,,,,0.4215,,,,,,,,,,,,,,,,,,,,,,60fd03a3f22f9dd32bff5fa8,61036d7f810ea010637744ab,2021-07-30_12h40.40.156,Simcolourproject_2stim_asymm_v5,2020.2.10,Win32,60,61025ae37ef11b136ea224fe,,,,,,,,,240,53,115.5,1,0,0,response1disk,,7,14,12.5,1,0,0,rectangle,14,12.5,1,0,0,14,12.5,1,0,0,0,120,120,1,1,,,,,,,,
,,,,,,,,,,,,,FF,,,,,,,,0.401,,,,,,,,,,,,,,,,,,,,,,60fd03a3f22f9dd32bff5fa8,61036d7f810ea010637744ab,2021-07-30_12h40.40.156,Simcolourproject_2stim_asymm_v5,2020.2.10,Win32,60,61025ae37ef11b136ea224fe,,,,,,,,,149,103,49.5,1,0,0,response1disk,,6,-3,1.5,1,0,0,rectangle,-3,1.5,1,0,0,-3,1.5,1,0,0,0,121,121,57,1,,,,,,,,
,,,,,,,,,,,,,FF,,,,,,,,0.6172,,,,,,,,,,,,,,,,,,,,,,60fd03a3f22f9dd32bff5fa8,61036d7f810ea010637744ab,2021-07-30_12h40.40.156,Simcolourproject_2stim_asymm_v5,2020.2.10,Win32,60,61025ae37ef11b136ea224fe,,,,,,,,,1954,86,43.5,1,0,0,response1disk,,6,-4,1.5,1,0,0,rectangle,-4,1.5,1,0,0,-4,1.5,1,0,0,0,122,122,131,1,,,,,,,,
,,,,,,,,,,,,,FF,,,,,,,,0.5501,,,,,,,,,,,,,,,,,,,,,,60fd03a3f22f9dd32bff5fa8,61036d7f810ea010637744ab,2021-07-30_12h40.40.156,Simcolourproject_2stim_asymm_v5,2020.2.10,Win32,60,61025ae37ef11b136ea224fe,,,,,,,,,2978,87,47.5,1,0,0,response1disk,,6,8,-0.5,1,0,0,rectangle,8,-0.5,1,0,0,8,-0.5,1,0,0,0,123,123,115,1,,,,,,,,
,,,,,,,,,,,,,FF,,,,,,,,0.7172,,,,,,,,,,,,,,,,,,,,,,60fd03a3f22f9dd32bff5fa8,61036d7f810ea010637744ab,2021-07-30_12h40.40.156,Simcolourproject_2stim_asymm_v5,2020.2.10,Win32,60,61025ae37ef11b136ea224fe,,,,,,,,,3631,-82,-39.5,1,0,0,response5disk,,2,-9,-4.5,1,0,0,rectangle,-9,-4.5,1,0,0,-9,-4.5,1,0,0,0,124,124,3,1,,,,,,,,
,,,,,,,,,,,,,FF,,,,,,,,0.6716,,,,,,,,,,,,,,,,,,,,,,60fd03a3f22f9dd32bff5fa8,61036d7f810ea010637744ab,2021-07-30_12h40.40.156,Simcolourproject_2stim_asymm_v5,2020.2.10,Win32,60,61025ae37ef11b136ea224fe,,,,,,,,,3571,99,-27.5,1,0,0,response3disk,,5,23,7.5,1,0,0,rectangle,23,7.5,1,0,0,23,7.5,1,0,0,0,125,125,6,1,,,,,,,,
,,,,,,,,,,,,,FF,,,,,,,,0.7181,,,,,,,,,,,,,,,,,,,,,,60fd03a3f22f9dd32bff5fa8,61036d7f810ea010637744ab,2021-07-30_12h40.40.156,Simcolourproject_2stim_asymm_v5,2020.2.10,Win32,60,61025ae37ef11b136ea224fe,,,,,,,,,2296,-104,-27.5,1,0,0,response5disk,,2,-6,-7.5,1,0,0,rectangle,-6,-7.5,1,0,0,-6,-7.5,1,0,0,0,126,126,54,1,,,,,,,,
,,,,,,,,,,,,,FF,,,,,,,,1.1555,,,,,,,,,,,,,,,,,,,,,,60fd03a3f22f9dd32bff5fa8,61036d7f810ea010637744ab,2021-07-30_12h40.40.156,Simcolourproject_2stim_asymm_v5,2020.2.10,Win32,60,61025ae37ef11b136ea224fe,,,,,,,,,2591,83,-48.5,1,0,0,response3disk,,5,28,-9.5,1,0,0,rectangle,28,-9.5,1,0,0,28,-9.5,1,0,0,0,127,127,75,1,,,,,,,,
,,,,,,,,,,,,,FF,,,,,,,,0.4374,,,,,,,,,,,,,,,,,,,,,,60fd03a3f22f9dd32bff5fa8,61036d7f810ea010637744ab,2021-07-30_12h40.40.156,Simcolourproject_2stim_asymm_v5,2020.2.10,Win32,60,61025ae37ef11b136ea224fe,,,,,,,,,69,131,43.5,1,0,0,response1disk,,6,1,5.5,1,0,0,rectangle,1,5.5,1,0,0,1,5.5,1,0,0,0,128,128,158,1,,,,,,,,
,,,,,,,,,,,,,FF,,,,,,,,0.6841,,,,,,,,,,,,,,,,,,,,,,60fd03a3f22f9dd32bff5fa8,61036d7f810ea010637744ab,2021-07-30_12h40.40.156,Simcolourproject_2stim_asymm_v5,2020.2.10,Win32,60,61025ae37ef11b136ea224fe,,,,,,,,,3006,-105,-48.5,1,0,0,response5disk,,2,-37,1.5,1,0,0,rectangle,-37,1.5,1,0,0,-37,1.5,1,0,0,0,129,129,5,1,,,,,,,,
,,,,,,,,,,,,,FF,,,,,,,,0.5286,,,,,,,,,,,,,,,,,,,,,,60fd03a3f22f9dd32bff5fa8,61036d7f810ea010637744ab,2021-07-30_12h40.40.156,Simcolourproject_2stim_asymm_v5,2020.2.10,Win32,60,61025ae37ef11b136ea224fe,,,,,,,,,1713,108,36.5,1,0,0,response1disk,,6,16,-11.5,1,0,0,rectangle,16,-11.5,1,0,0,16,-11.5,1,0,0,0,130,130,99,1,,,,,,,,
,,,,,,,,,,,,,FF,,,,,,,,0.4722,,,,,,,,,,,,,,,,,,,,,,60fd03a3f22f9dd32bff5fa8,61036d7f810ea010637744ab,2021-07-30_12h40.40.156,Simcolourproject_2stim_asymm_v5,2020.2.10,Win32,60,61025ae37ef11b136ea224fe,,,,,,,,,3947,44,78.5,1,0,0,response1disk,,7,22,-4.5,1,0,0,rectangle,22,-4.5,1,0,0,22,-4.5,1,0,0,0,131,131,132,1,,,,,,,,
,,,,,,,,,,,,,FF,,,,,,,,0.4336,,,,,,,,,,,,,,,,,,,,,,60fd03a3f22f9dd32bff5fa8,61036d7f810ea010637744ab,2021-07-30_12h40.40.156,Simcolourproject_2stim_asymm_v5,2020.2.10,Win32,60,61025ae37ef11b136ea224fe,,,,,,,,,1541,92,43.5,1,0,0,response1disk,,6,16,0.5,1,0,0,rectangle,16,0.5,1,0,0,16,0.5,1,0,0,0,132,132,62,1,,,,,,,,
,,,,,,,,,,,,,FF,,,,,,,,0.9169,,,,,,,,,,,,,,,,,,,,,,60fd03a3f22f9dd32bff5fa8,61036d7f810ea010637744ab,2021-07-30_12h40.40.156,Simcolourproject_2stim_asymm_v5,2020.2.10,Win32,60,61025ae37ef11b136ea224fe,,,,,,,,,2960,100,-50.5,1,0,0,response3disk,,5,9,3.5,1,0,0,rectangle,9,3.5,1,0,0,9,3.5,1,0,0,0,133,133,119,1,,,,,,,,
,,,,,,,,,,,,,FF,,,,,,,,0.6003,,,,,,,,,,,,,,,,,,,,,,60fd03a3f22f9dd32bff5fa8,61036d7f810ea010637744ab,2021-07-30_12h40.40.156,Simcolourproject_2stim_asymm_v5,2020.2.10,Win32,60,61025ae37ef11b136ea224fe,,,,,,,,,3658,99,65.5,1,0,0,response1disk,,6,22,15.5,1,0,0,rectangle,22,15.5,1,0,0,22,15.5,1,0,0,0,134,134,9,1,,,,,,,,
,,,,,,,,,,,,,FF,,,,,,,,0.453,,,,,,,,,,,,,,,,,,,,,,60fd03a3f22f9dd32bff5fa8,61036d7f810ea010637744ab,2021-07-30_12h40.40.156,Simcolourproject_2stim_asymm_v5,2020.2.10,Win32,60,61025ae37ef11b136ea224fe,,,,,,,,,750,54,87.5,1,0,0,response1disk,,7,34,14.5,1,0,0,rectangle,34,14.5,1,0,0,34,14.5,1,0,0,0,135,135,41,1,,,,,,,,
,,,,,,,,,,,,,FF,,,,,,,,0.5458,,,,,,,,,,,,,,,,,,,,,,60fd03a3f22f9dd32bff5fa8,61036d7f810ea010637744ab,2021-07-30_12h40.40.156,Simcolourproject_2stim_asymm_v5,2020.2.10,Win32,60,61025ae37ef11b136ea224fe,,,,,,,,,3145,47,108.5,1,0,0,response1disk,,7,23,17.5,1,0,0,rectangle,23,17.5,1,0,0,23,17.5,1,0,0,0,136,136,55,1,,,,,,,,
,,,,,,,,,,,,,FF,,,,,,,,0.4156,,,,,,,,,,,,,,,,,,,,,,60fd03a3f22f9dd32bff5fa8,61036d7f810ea010637744ab,2021-07-30_12h40.40.156,Simcolourproject_2stim_asymm_v5,2020.2.10,Win32,60,61025ae37ef11b136ea224fe,,,,,,,,,519,45,86.5,1,0,0,response1disk,,7,29,11.5,1,0,0,rectangle,29,11.5,1,0,0,29,11.5,1,0,0,0,137,137,19,1,,,,,,,,
,,,,,,,,,,,,,FF,,,,,,,,0.3792,,,,,,,,,,,,,,,,,,,,,,60fd03a3f22f9dd32bff5fa8,61036d7f810ea010637744ab,2021-07-30_12h40.40.156,Simcolourproject_2stim_asymm_v5,2020.2.10,Win32,60,61025ae37ef11b136ea224fe,,,,,,,,,3825,44,93.5,1,0,0,response1disk,,7,23,0.5,1,0,0,rectangle,23,0.5,1,0,0,23,0.5,1,0,0,0,138,138,39,1,,,,,,,,
,,,,,,,,,,,,,FF,,,,,,,,1.0834,,,,,,,,,,,,,,,,,,,,,,60fd03a3f22f9dd32bff5fa8,61036d7f810ea010637744ab,2021-07-30_12h40.40.156,Simcolourproject_2stim_asymm_v5,2020.2.10,Win32,60,61025ae37ef11b136ea224fe,,,,,,,,,4295,-69,-34.5,1,0,0,response5disk,,2,20,1.5,1,0,0,rectangle,20,1.5,1,0,0,20,1.5,1,0,0,0,139,139,81,1,,,,,,,,
,,,,,,,,,,,,,FF,,,,,,,,0.6168,,,,,,,,,,,,,,,,,,,,,,60fd03a3f22f9dd32bff5fa8,61036d7f810ea010637744ab,2021-07-30_12h40.40.156,Simcolourproject_2stim_asymm_v5,2020.2.10,Win32,60,61025ae37ef11b136ea224fe,,,,,,,,,3921,-34,-75.5,1,0,0,response5disk,,3,9,-7.5,1,0,0,rectangle,-132,61.5,1,0,0,-2,2.5,1,0,0,0,140,140,98,1,,response7disk_3,TRUE,1,1,"[142,74,227,253,292,141,115,320,320,34,161,92,55,266,3,99,261,9,102,267]",1.1178,rectangle
,,,,,,,,,,,,,FF,,,,,,,,1.6352,,,,,,,,,,,,,,,,,,,,,,60fd03a3f22f9dd32bff5fa8,61036d7f810ea010637744ab,2021-07-30_12h40.40.156,Simcolourproject_2stim_asymm_v5,2020.2.10,Win32,60,61025ae37ef11b136ea224fe,,,,,,,,,2234,-96,-47.5,1,0,0,response5disk,,2,-19,-1.5,1,0,0,rectangle,-110,49.5,1,0,0,-8,-7.5,1,0,0,0,141,141,28,1,,response7disk_3,TRUE,1,1,"[142,74,227,253,292,141,115,320,320,34,161,92,55,266,3,99,261,9,102,267]",1.519,rectangle
,,,,,,,,,,,,,FF,,,,,,,,0.7793,,,,,,,,,,,,,,,,,,,,,,60fd03a3f22f9dd32bff5fa8,61036d7f810ea010637744ab,2021-07-30_12h40.40.156,Simcolourproject_2stim_asymm_v5,2020.2.10,Win32,60,61025ae37ef11b136ea224fe,,,,,,,,,1741,51,107.5,1,0,0,response1disk,,7,8,-2.5,1,0,0,rectangle,8,-2.5,1,0,0,8,-2.5,1,0,0,0,142,142,95,1,,,,,,,,
,,,,,,,,,,,,,FF,,,,,,,,1.4005,,,,,,,,,,,,,,,,,,,,,,60fd03a3f22f9dd32bff5fa8,61036d7f810ea010637744ab,2021-07-30_12h40.40.156,Simcolourproject_2stim_asymm_v5,2020.2.10,Win32,60,61025ae37ef11b136ea224fe,,,,,,,,,187,-105,-53.5,1,0,0,response5disk,,2,-13,-0.5,1,0,0,rectangle,-13,-0.5,1,0,0,-13,-0.5,1,0,0,0,143,143,82,1,,,,,,,,
,,,,,,,,,,,,,FF,,,,,,,,0.7329,,,,,,,,,,,,,,,,,,,,,,60fd03a3f22f9dd32bff5fa8,61036d7f810ea010637744ab,2021-07-30_12h40.40.156,Simcolourproject_2stim_asymm_v5,2020.2.10,Win32,60,61025ae37ef11b136ea224fe,,,,,,,,,1686,-52,-71.5,1,0,0,response5disk,,3,-42,-18.5,1,0,0,rectangle,-42,-18.5,1,0,0,-42,-18.5,1,0,0,0,144,144,38,1,,,,,,,,
,,,,,,,,,,,,,FF,,,,,,,,0.7333,,,,,,,,,,,,,,,,,,,,,,60fd03a3f22f9dd32bff5fa8,61036d7f810ea010637744ab,2021-07-30_12h40.40.156,Simcolourproject_2stim_asymm_v5,2020.2.10,Win32,60,61025ae37ef11b136ea224fe,,,,,,,,,2142,86,113.5,1,0,0,response1disk,,7,12,3.5,1,0,0,rectangle,12,3.5,1,0,0,12,3.5,1,0,0,0,145,145,108,1,,,,,,,,
,,,,,,,,,,,,,FF,,,,,,,,0.5006,,,,,,,,,,,,,,,,,,,,,,60fd03a3f22f9dd32bff5fa8,61036d7f810ea010637744ab,2021-07-30_12h40.40.156,Simcolourproject_2stim_asymm_v5,2020.2.10,Win32,60,61025ae37ef11b136ea224fe,,,,,,,,,3541,95,42.5,1,0,0,response1disk,,6,4,-1.5,1,0,0,rectangle,4,-1.5,1,0,0,4,-1.5,1,0,0,0,146,146,78,1,,,,,,,,
,,,,,,,,,,,,,FF,,,,,,,,0.8839,,,,,,,,,,,,,,,,,,,,,,60fd03a3f22f9dd32bff5fa8,61036d7f810ea010637744ab,2021-07-30_12h40.40.156,Simcolourproject_2stim_asymm_v5,2020.2.10,Win32,60,61025ae37ef11b136ea224fe,,,,,,,,,3301,-81,-47.5,1,0,0,response5disk,,2,24,5.5,1,0,0,rectangle,24,5.5,1,0,0,24,5.5,1,0,0,0,147,147,87,1,,,,,,,,
,,,,,,,,,,,,,FF,,,,,,,,0.6996,,,,,,,,,,,,,,,,,,,,,,60fd03a3f22f9dd32bff5fa8,61036d7f810ea010637744ab,2021-07-30_12h40.40.156,Simcolourproject_2stim_asymm_v5,2020.2.10,Win32,60,61025ae37ef11b136ea224fe,,,,,,,,,3928,53,93.5,1,0,0,response1disk,,7,30,11.5,1,0,0,rectangle,30,11.5,1,0,0,30,11.5,1,0,0,0,148,148,100,1,,,,,,,,
,,,,,,,,,,,,,FF,,,,,,,,1.1336,,,,,,,,,,,,,,,,,,,,,,60fd03a3f22f9dd32bff5fa8,61036d7f810ea010637744ab,2021-07-30_12h40.40.156,Simcolourproject_2stim_asymm_v5,2020.2.10,Win32,60,61025ae37ef11b136ea224fe,,,,,,,,,1217,-59,-83.5,1,0,0,response5disk,,3,-7,-6.5,1,0,0,rectangle,-7,-6.5,1,0,0,-7,-6.5,1,0,0,0,149,149,80,1,,,,,,,,
,,,,,,,,,,,,,FF,,,,,,,,0.8675,,,,,,,,,,,,,,,,,,,,,,60fd03a3f22f9dd32bff5fa8,61036d7f810ea010637744ab,2021-07-30_12h40.40.156,Simcolourproject_2stim_asymm_v5,2020.2.10,Win32,60,61025ae37ef11b136ea224fe,,,,,,,,,1659,118,52.5,1,0,0,response1disk,,6,0,2.5,1,0,0,rectangle,0,2.5,1,0,0,0,2.5,1,0,0,0,150,150,109,1,,,,,,,,
,,,,,,,,,,,,,FF,,,,,,,,0.4505,,,,,,,,,,,,,,,,,,,,,,60fd03a3f22f9dd32bff5fa8,61036d7f810ea010637744ab,2021-07-30_12h40.40.156,Simcolourproject_2stim_asymm_v5,2020.2.10,Win32,60,61025ae37ef11b136ea224fe,,,,,,,,,3809,47,80.5,1,0,0,response1disk,,7,41,4.5,1,0,0,rectangle,41,4.5,1,0,0,41,4.5,1,0,0,0,151,151,123,1,,,,,,,,
,,,,,,,,,,,,,FF,,,,,,,,0.5509,,,,,,,,,,,,,,,,,,,,,,60fd03a3f22f9dd32bff5fa8,61036d7f810ea010637744ab,2021-07-30_12h40.40.156,Simcolourproject_2stim_asymm_v5,2020.2.10,Win32,60,61025ae37ef11b136ea224fe,,,,,,,,,2353,82,41.5,1,0,0,response1disk,,6,35,6.5,1,0,0,rectangle,35,6.5,1,0,0,35,6.5,1,0,0,0,152,152,70,1,,,,,,,,
,,,,,,,,,,,,,FF,,,,,,,,0.4501,,,,,,,,,,,,,,,,,,,,,,60fd03a3f22f9dd32bff5fa8,61036d7f810ea010637744ab,2021-07-30_12h40.40.156,Simcolourproject_2stim_asymm_v5,2020.2.10,Win32,60,61025ae37ef11b136ea224fe,,,,,,,,,1483,54,73.5,1,0,0,response1disk,,7,6,-5.5,1,0,0,rectangle,6,-5.5,1,0,0,6,-5.5,1,0,0,0,153,153,88,1,,,,,,,,
,,,,,,,,,,,,,FF,,,,,,,,0.4503,,,,,,,,,,,,,,,,,,,,,,60fd03a3f22f9dd32bff5fa8,61036d7f810ea010637744ab,2021-07-30_12h40.40.156,Simcolourproject_2stim_asymm_v5,2020.2.10,Win32,60,61025ae37ef11b136ea224fe,,,,,,,,,2570,73,82.5,1,0,0,response1disk,,7,25,7.5,1,0,0,rectangle,25,7.5,1,0,0,25,7.5,1,0,0,0,154,154,149,1,,,,,,,,
,,,,,,,,,,,,,FF,,,,,,,,0.9,,,,,,,,,,,,,,,,,,,,,,60fd03a3f22f9dd32bff5fa8,61036d7f810ea010637744ab,2021-07-30_12h40.40.156,Simcolourproject_2stim_asymm_v5,2020.2.10,Win32,60,61025ae37ef11b136ea224fe,,,,,,,,,731,80,-40.5,1,0,0,response3disk,,5,-1,-11.5,1,0,0,rectangle,-1,-11.5,1,0,0,-1,-11.5,1,0,0,0,155,155,93,1,,,,,,,,
,,,,,,,,,,,,,FF,,,,,,,,0.6667,,,,,,,,,,,,,,,,,,,,,,60fd03a3f22f9dd32bff5fa8,61036d7f810ea010637744ab,2021-07-30_12h40.40.156,Simcolourproject_2stim_asymm_v5,2020.2.10,Win32,60,61025ae37ef11b136ea224fe,,,,,,,,,2503,102,30.5,1,0,0,response1disk,,6,25,1.5,1,0,0,rectangle,25,1.5,1,0,0,25,1.5,1,0,0,0,156,156,64,1,,,,,,,,
,,,,,,,,,,,,,FF,,,,,,,,0.7175,,,,,,,,,,,,,,,,,,,,,,60fd03a3f22f9dd32bff5fa8,61036d7f810ea010637744ab,2021-07-30_12h40.40.156,Simcolourproject_2stim_asymm_v5,2020.2.10,Win32,60,61025ae37ef11b136ea224fe,,,,,,,,,964,101,-54.5,1,0,0,response3disk,,5,-1,1.5,1,0,0,rectangle,-1,1.5,1,0,0,-1,1.5,1,0,0,0,157,157,103,1,,,,,,,,
,,,,,,,,,,,,,FF,,,,,,,,0.6342,,,,,,,,,,,,,,,,,,,,,,60fd03a3f22f9dd32bff5fa8,61036d7f810ea010637744ab,2021-07-30_12h40.40.156,Simcolourproject_2stim_asymm_v5,2020.2.10,Win32,60,61025ae37ef11b136ea224fe,,,,,,,,,3025,43,152.5,1,0,0,response1disk,,7,3,-0.5,1,0,0,rectangle,3,-0.5,1,0,0,3,-0.5,1,0,0,0,158,158,126,1,,,,,,,,
,,,,,,,,,,,,,FF,,,,,,,,0.6337,,,,,,,,,,,,,,,,,,,,,,60fd03a3f22f9dd32bff5fa8,61036d7f810ea010637744ab,2021-07-30_12h40.40.156,Simcolourproject_2stim_asymm_v5,2020.2.10,Win32,60,61025ae37ef11b136ea224fe,,,,,,,,,1918,152,47.5,1,0,0,response1disk,,6,16,9.5,1,0,0,rectangle,16,9.5,1,0,0,16,9.5,1,0,0,0,159,159,76,1,,,,,,,,
,,,,,,,,,,,,,FF,,,,,,,,0.95,,,,,,,,,,,,,,,,,,,,,,60fd03a3f22f9dd32bff5fa8,61036d7f810ea010637744ab,2021-07-30_12h40.40.156,Simcolourproject_2stim_asymm_v5,2020.2.10,Win32,60,61025ae37ef11b136ea224fe,,,,,,,,,1011,121,64.5,1,0,0,response1disk,,6,17,-3.5,1,0,0,rectangle,147,69.5,1,0,0,-5,17.5,1,0,0,1,0,160,39,1,,response1disk_3,TRUE,6,0,"[142,74,227,253,292,141,115,320,320,34,161,92,55,266,3,99,261,9,102,267]",3.8679,rectangle
,,,,,,,,,,,,,FF,,,,,,,,0.4998,,,,,,,,,,,,,,,,,,,,,,60fd03a3f22f9dd32bff5fa8,61036d7f810ea010637744ab,2021-07-30_12h40.40.156,Simcolourproject_2stim_asymm_v5,2020.2.10,Win32,60,61025ae37ef11b136ea224fe,,,,,,,,,3243,-91,90.5,1,0,0,response7disk,,1,-29,0.5,1,0,0,rectangle,-29,0.5,1,0,0,-29,0.5,1,0,0,1,1,161,130,1,,,,,,,,
,,,,,,,,,,,,,FF,,,,,,,,0.8673,,,,,,,,,,,,,,,,,,,,,,60fd03a3f22f9dd32bff5fa8,61036d7f810ea010637744ab,2021-07-30_12h40.40.156,Simcolourproject_2stim_asymm_v5,2020.2.10,Win32,60,61025ae37ef11b136ea224fe,,,,,,,,,143,134,-42.5,1,0,0,response3disk,,5,-2,-8.5,1,0,0,rectangle,-2,-8.5,1,0,0,-2,-8.5,1,0,0,1,2,162,42,1,,,,,,,,
,,,,,,,,,,,,,FF,,,,,,,,0.75,,,,,,,,,,,,,,,,,,,,,,60fd03a3f22f9dd32bff5fa8,61036d7f810ea010637744ab,2021-07-30_12h40.40.156,Simcolourproject_2stim_asymm_v5,2020.2.10,Win32,60,61025ae37ef11b136ea224fe,,,,,,,,,1282,121,32.5,1,0,0,response1disk,,6,-5,0.5,1,0,0,rectangle,-5,0.5,1,0,0,-5,0.5,1,0,0,1,3,163,38,1,,,,,,,,
,,,,,,,,,,,,,FF,,,,,,,,0.4676,,,,,,,,,,,,,,,,,,,,,,60fd03a3f22f9dd32bff5fa8,61036d7f810ea010637744ab,2021-07-30_12h40.40.156,Simcolourproject_2stim_asymm_v5,2020.2.10,Win32,60,61025ae37ef11b136ea224fe,,,,,,,,,859,119,48.5,1,0,0,response1disk,,6,2,0.5,1,0,0,rectangle,2,0.5,1,0,0,2,0.5,1,0,0,1,4,164,3,1,,,,,,,,
,,,,,,,,,,,,,FF,,,,,,,,0.4508,,,,,,,,,,,,,,,,,,,,,,60fd03a3f22f9dd32bff5fa8,61036d7f810ea010637744ab,2021-07-30_12h40.40.156,Simcolourproject_2stim_asymm_v5,2020.2.10,Win32,60,61025ae37ef11b136ea224fe,,,,,,,,,1394,114,39.5,1,0,0,response1disk,,6,28,-12.5,1,0,0,rectangle,28,-12.5,1,0,0,28,-12.5,1,0,0,1,5,165,27,1,,,,,,,,
,,,,,,,,,,,,,FF,,,,,,,,0.5824,,,,,,,,,,,,,,,,,,,,,,60fd03a3f22f9dd32bff5fa8,61036d7f810ea010637744ab,2021-07-30_12h40.40.156,Simcolourproject_2stim_asymm_v5,2020.2.10,Win32,60,61025ae37ef11b136ea224fe,,,,,,,,,1399,95,-41.5,1,0,0,response3disk,,5,-17,-5.5,1,0,0,rectangle,-17,-5.5,1,0,0,-17,-5.5,1,0,0,1,6,166,117,1,,,,,,,,
,,,,,,,,,,,,,FF,,,,,,,,1.1181,,,,,,,,,,,,,,,,,,,,,,60fd03a3f22f9dd32bff5fa8,61036d7f810ea010637744ab,2021-07-30_12h40.40.156,Simcolourproject_2stim_asymm_v5,2020.2.10,Win32,60,61025ae37ef11b136ea224fe,,,,,,,,,1292,-98,-37.5,1,0,0,response5disk,,2,10,14.5,1,0,0,rectangle,10,14.5,1,0,0,10,14.5,1,0,0,1,7,167,68,1,,,,,,,,
,,,,,,,,,,,,,FF,,,,,,,,0.5792,,,,,,,,,,,,,,,,,,,,,,60fd03a3f22f9dd32bff5fa8,61036d7f810ea010637744ab,2021-07-30_12h40.40.156,Simcolourproject_2stim_asymm_v5,2020.2.10,Win32,60,61025ae37ef11b136ea224fe,,,,,,,,,1677,-41,132.5,1,0,0,response7disk,,0,7,8.5,1,0,0,rectangle,7,8.5,1,0,0,7,8.5,1,0,0,1,8,168,36,1,,,,,,,,
,,,,,,,,,,,,,FF,,,,,,,,0.768,,,,,,,,,,,,,,,,,,,,,,60fd03a3f22f9dd32bff5fa8,61036d7f810ea010637744ab,2021-07-30_12h40.40.156,Simcolourproject_2stim_asymm_v5,2020.2.10,Win32,60,61025ae37ef11b136ea224fe,,,,,,,,,164,-87,46.5,1,0,0,response7disk,,1,10,2.5,1,0,0,rectangle,10,2.5,1,0,0,10,2.5,1,0,0,1,9,169,14,1,,,,,,,,
,,,,,,,,,,,,,FF,,,,,,,,0.7669,,,,,,,,,,,,,,,,,,,,,,60fd03a3f22f9dd32bff5fa8,61036d7f810ea010637744ab,2021-07-30_12h40.40.156,Simcolourproject_2stim_asymm_v5,2020.2.10,Win32,60,61025ae37ef11b136ea224fe,,,,,,,,,2977,76,136.5,1,0,0,response1disk,,7,-7,0.5,1,0,0,rectangle,-7,0.5,1,0,0,-7,0.5,1,0,0,1,10,170,152,1,,,,,,,,
,,,,,,,,,,,,,FF,,,,,,,,0.4667,,,,,,,,,,,,,,,,,,,,,,60fd03a3f22f9dd32bff5fa8,61036d7f810ea010637744ab,2021-07-30_12h40.40.156,Simcolourproject_2stim_asymm_v5,2020.2.10,Win32,60,61025ae37ef11b136ea224fe,,,,,,,,,4303,100,51.5,1,0,0,response1disk,,6,-15,14.5,1,0,0,rectangle,-15,14.5,1,0,0,-15,14.5,1,0,0,1,11,171,93,1,,,,,,,,
,,,,,,,,,,,,,FF,,,,,,,,0.7835,,,,,,,,,,,,,,,,,,,,,,60fd03a3f22f9dd32bff5fa8,61036d7f810ea010637744ab,2021-07-30_12h40.40.156,Simcolourproject_2stim_asymm_v5,2020.2.10,Win32,60,61025ae37ef11b136ea224fe,,,,,,,,,2248,84,-38.5,1,0,0,response3disk,,5,-16,0.5,1,0,0,rectangle,-16,0.5,1,0,0,-16,0.5,1,0,0,1,12,172,109,1,,,,,,,,
,,,,,,,,,,,,,FF,,,,,,,,0.5836,,,,,,,,,,,,,,,,,,,,,,60fd03a3f22f9dd32bff5fa8,61036d7f810ea010637744ab,2021-07-30_12h40.40.156,Simcolourproject_2stim_asymm_v5,2020.2.10,Win32,60,61025ae37ef11b136ea224fe,,,,,,,,,994,57,142.5,1,0,0,response1disk,,7,-10,7.5,1,0,0,rectangle,-10,7.5,1,0,0,-10,7.5,1,0,0,1,13,173,95,1,,,,,,,,
,,,,,,,,,,,,,FF,,,,,,,,0.6002,,,,,,,,,,,,,,,,,,,,,,60fd03a3f22f9dd32bff5fa8,61036d7f810ea010637744ab,2021-07-30_12h40.40.156,Simcolourproject_2stim_asymm_v5,2020.2.10,Win32,60,61025ae37ef11b136ea224fe,,,,,,,,,1166,50,107.5,1,0,0,response1disk,,7,16,0.5,1,0,0,rectangle,16,0.5,1,0,0,16,0.5,1,0,0,1,14,174,102,1,,,,,,,,
,,,,,,,,,,,,,FF,,,,,,,,0.417,,,,,,,,,,,,,,,,,,,,,,60fd03a3f22f9dd32bff5fa8,61036d7f810ea010637744ab,2021-07-30_12h40.40.156,Simcolourproject_2stim_asymm_v5,2020.2.10,Win32,60,61025ae37ef11b136ea224fe,,,,,,,,,3354,50,81.5,1,0,0,response1disk,,7,26,-4.5,1,0,0,rectangle,26,-4.5,1,0,0,26,-4.5,1,0,0,1,15,175,71,1,,,,,,,,
,,,,,,,,,,,,,FF,,,,,,,,0.7171,,,,,,,,,,,,,,,,,,,,,,60fd03a3f22f9dd32bff5fa8,61036d7f810ea010637744ab,2021-07-30_12h40.40.156,Simcolourproject_2stim_asymm_v5,2020.2.10,Win32,60,61025ae37ef11b136ea224fe,,,,,,,,,3811,-33,101.5,1,0,0,response7disk,,0,3,-4.5,1,0,0,rectangle,3,-4.5,1,0,0,3,-4.5,1,0,0,1,16,176,23,1,,,,,,,,
,,,,,,,,,,,,,FF,,,,,,,,0.9338,,,,,,,,,,,,,,,,,,,,,,60fd03a3f22f9dd32bff5fa8,61036d7f810ea010637744ab,2021-07-30_12h40.40.156,Simcolourproject_2stim_asymm_v5,2020.2.10,Win32,60,61025ae37ef11b136ea224fe,,,,,,,,,3247,-125,-25.5,1,0,0,response5disk,,2,40,-6.5,1,0,0,rectangle,40,-6.5,1,0,0,40,-6.5,1,0,0,1,17,177,142,1,,,,,,,,
,,,,,,,,,,,,,FF,,,,,,,,0.5671,,,,,,,,,,,,,,,,,,,,,,60fd03a3f22f9dd32bff5fa8,61036d7f810ea010637744ab,2021-07-30_12h40.40.156,Simcolourproject_2stim_asymm_v5,2020.2.10,Win32,60,61025ae37ef11b136ea224fe,,,,,,,,,3459,63,131.5,1,0,0,response1disk,,7,10,7.5,1,0,0,rectangle,10,7.5,1,0,0,10,7.5,1,0,0,1,18,178,146,1,,,,,,,,
,,,,,,,,,,,,,FF,,,,,,,,1.0507,,,,,,,,,,,,,,,,,,,,,,60fd03a3f22f9dd32bff5fa8,61036d7f810ea010637744ab,2021-07-30_12h40.40.156,Simcolourproject_2stim_asymm_v5,2020.2.10,Win32,60,61025ae37ef11b136ea224fe,,,,,,,,,2269,79,80.5,1,0,0,response1disk,,7,23,-1.5,1,0,0,rectangle,23,-1.5,1,0,0,23,-1.5,1,0,0,1,19,179,72,1,,,,,,,,
,,,,,,,,,,,,,FF,,,,,,,,1.134,,,,,,,,,,,,,,,,,,,,,,60fd03a3f22f9dd32bff5fa8,61036d7f810ea010637744ab,2021-07-30_12h40.40.156,Simcolourproject_2stim_asymm_v5,2020.2.10,Win32,60,61025ae37ef11b136ea224fe,,,,,,,,,2744,62,126.5,1,0,0,response1disk,,7,13,6.5,1,0,0,rectangle,13,6.5,1,0,0,13,6.5,1,0,0,1,20,180,11,1,,,,,,,,
,,,,,,,,,,,,,FF,,,,,,,,0.3838,,,,,,,,,,,,,,,,,,,,,,60fd03a3f22f9dd32bff5fa8,61036d7f810ea010637744ab,2021-07-30_12h40.40.156,Simcolourproject_2stim_asymm_v5,2020.2.10,Win32,60,61025ae37ef11b136ea224fe,,,,,,,,,2694,69,93.5,1,0,0,response1disk,,7,32,-7.5,1,0,0,rectangle,32,-7.5,1,0,0,32,-7.5,1,0,0,1,21,181,52,1,,,,,,,,
,,,,,,,,,,,,,FF,,,,,,,,0.6671,,,,,,,,,,,,,,,,,,,,,,60fd03a3f22f9dd32bff5fa8,61036d7f810ea010637744ab,2021-07-30_12h40.40.156,Simcolourproject_2stim_asymm_v5,2020.2.10,Win32,60,61025ae37ef11b136ea224fe,,,,,,,,,4064,107,67.5,1,0,0,response1disk,,6,21,6.5,1,0,0,rectangle,21,6.5,1,0,0,21,6.5,1,0,0,1,22,182,59,1,,,,,,,,
,,,,,,,,,,,,,FF,,,,,,,,0.6175,,,,,,,,,,,,,,,,,,,,,,60fd03a3f22f9dd32bff5fa8,61036d7f810ea010637744ab,2021-07-30_12h40.40.156,Simcolourproject_2stim_asymm_v5,2020.2.10,Win32,60,61025ae37ef11b136ea224fe,,,,,,,,,644,82,-64.5,1,0,0,response3disk,,5,15,16.5,1,0,0,rectangle,15,16.5,1,0,0,15,16.5,1,0,0,1,23,183,135,1,,,,,,,,
,,,,,,,,,,,,,FF,,,,,,,,0.4504,,,,,,,,,,,,,,,,,,,,,,60fd03a3f22f9dd32bff5fa8,61036d7f810ea010637744ab,2021-07-30_12h40.40.156,Simcolourproject_2stim_asymm_v5,2020.2.10,Win32,60,61025ae37ef11b136ea224fe,,,,,,,,,3072,37,96.5,1,0,0,response1disk,,7,1,-7.5,1,0,0,rectangle,1,-7.5,1,0,0,1,-7.5,1,0,0,1,24,184,70,1,,,,,,,,
,,,,,,,,,,,,,FF,,,,,,,,0.7008,,,,,,,,,,,,,,,,,,,,,,60fd03a3f22f9dd32bff5fa8,61036d7f810ea010637744ab,2021-07-30_12h40.40.156,Simcolourproject_2stim_asymm_v5,2020.2.10,Win32,60,61025ae37ef11b136ea224fe,,,,,,,,,3341,-66,-33.5,1,0,0,response5disk,,2,22,-2.5,1,0,0,rectangle,22,-2.5,1,0,0,22,-2.5,1,0,0,1,25,185,83,1,,,,,,,,
,,,,,,,,,,,,,FF,,,,,,,,0.5341,,,,,,,,,,,,,,,,,,,,,,60fd03a3f22f9dd32bff5fa8,61036d7f810ea010637744ab,2021-07-30_12h40.40.156,Simcolourproject_2stim_asymm_v5,2020.2.10,Win32,60,61025ae37ef11b136ea224fe,,,,,,,,,769,24,95.5,1,0,0,response1disk,,7,12,-0.5,1,0,0,rectangle,12,-0.5,1,0,0,12,-0.5,1,0,0,1,26,186,19,1,,,,,,,,
,,,,,,,,,,,,,FF,,,,,,,,0.9187,,,,,,,,,,,,,,,,,,,,,,60fd03a3f22f9dd32bff5fa8,61036d7f810ea010637744ab,2021-07-30_12h40.40.156,Simcolourproject_2stim_asymm_v5,2020.2.10,Win32,60,61025ae37ef11b136ea224fe,,,,,,,,,2428,-77,-94.5,1,0,0,response5disk,,3,-8,5.5,1,0,0,rectangle,-8,5.5,1,0,0,-8,5.5,1,0,0,1,27,187,74,1,,,,,,,,
,,,,,,,,,,,,,FF,,,,,,,,0.5322,,,,,,,,,,,,,,,,,,,,,,60fd03a3f22f9dd32bff5fa8,61036d7f810ea010637744ab,2021-07-30_12h40.40.156,Simcolourproject_2stim_asymm_v5,2020.2.10,Win32,60,61025ae37ef11b136ea224fe,,,,,,,,,2538,45,-60.5,1,0,0,response3disk,,4,40,11.5,1,0,0,rectangle,40,11.5,1,0,0,40,11.5,1,0,0,1,28,188,155,1,,,,,,,,
,,,,,,,,,,,,,FF,,,,,,,,0.4665,,,,,,,,,,,,,,,,,,,,,,60fd03a3f22f9dd32bff5fa8,61036d7f810ea010637744ab,2021-07-30_12h40.40.156,Simcolourproject_2stim_asymm_v5,2020.2.10,Win32,60,61025ae37ef11b136ea224fe,,,,,,,,,405,61,76.5,1,0,0,response1disk,,7,33,2.5,1,0,0,rectangle,33,2.5,1,0,0,33,2.5,1,0,0,1,29,189,24,1,,,,,,,,
,,,,,,,,,,,,,FF,,,,,,,,0.5841,,,,,,,,,,,,,,,,,,,,,,60fd03a3f22f9dd32bff5fa8,61036d7f810ea010637744ab,2021-07-30_12h40.40.156,Simcolourproject_2stim_asymm_v5,2020.2.10,Win32,60,61025ae37ef11b136ea224fe,,,,,,,,,571,79,33.5,1,0,0,response1disk,,6,31,2.5,1,0,0,rectangle,31,2.5,1,0,0,31,2.5,1,0,0,1,30,190,57,1,,,,,,,,
,,,,,,,,,,,,,FF,,,,,,,,0.4667,,,,,,,,,,,,,,,,,,,,,,60fd03a3f22f9dd32bff5fa8,61036d7f810ea010637744ab,2021-07-30_12h40.40.156,Simcolourproject_2stim_asymm_v5,2020.2.10,Win32,60,61025ae37ef11b136ea224fe,,,,,,,,,124,51,91.5,1,0,0,response1disk,,7,37,0.5,1,0,0,rectangle,37,0.5,1,0,0,37,0.5,1,0,0,1,31,191,98,1,,,,,,,,
,,,,,,,,,,,,,FF,,,,,,,,0.7837,,,,,,,,,,,,,,,,,,,,,,60fd03a3f22f9dd32bff5fa8,61036d7f810ea010637744ab,2021-07-30_12h40.40.156,Simcolourproject_2stim_asymm_v5,2020.2.10,Win32,60,61025ae37ef11b136ea224fe,,,,,,,,,3186,59,127.5,1,0,0,response1disk,,7,17,-18.5,1,0,0,rectangle,17,-18.5,1,0,0,17,-18.5,1,0,0,1,32,192,58,1,,,,,,,,
,,,,,,,,,,,,,FF,,,,,,,,0.5681,,,,,,,,,,,,,,,,,,,,,,60fd03a3f22f9dd32bff5fa8,61036d7f810ea010637744ab,2021-07-30_12h40.40.156,Simcolourproject_2stim_asymm_v5,2020.2.10,Win32,60,61025ae37ef11b136ea224fe,,,,,,,,,588,35,33.5,1,0,0,response1disk,,6,18,-1.5,1,0,0,rectangle,18,-1.5,1,0,0,18,-1.5,1,0,0,1,33,193,150,1,,,,,,,,
,,,,,,,,,,,,,FF,,,,,,,,0.6834,,,,,,,,,,,,,,,,,,,,,,60fd03a3f22f9dd32bff5fa8,61036d7f810ea010637744ab,2021-07-30_12h40.40.156,Simcolourproject_2stim_asymm_v5,2020.2.10,Win32,60,61025ae37ef11b136ea224fe,,,,,,,,,4100,85,-65.5,1,0,0,response3disk,,5,-12,9.5,1,0,0,rectangle,-12,9.5,1,0,0,-12,9.5,1,0,0,1,34,194,29,1,,,,,,,,
,,,,,,,,,,,,,FF,,,,,,,,0.5837,,,,,,,,,,,,,,,,,,,,,,60fd03a3f22f9dd32bff5fa8,61036d7f810ea010637744ab,2021-07-30_12h40.40.156,Simcolourproject_2stim_asymm_v5,2020.2.10,Win32,60,61025ae37ef11b136ea224fe,,,,,,,,,592,97,115.5,1,0,0,response1disk,,7,45,5.5,1,0,0,rectangle,45,5.5,1,0,0,45,5.5,1,0,0,1,35,195,148,1,,,,,,,,
,,,,,,,,,,,,,FF,,,,,,,,0.5,,,,,,,,,,,,,,,,,,,,,,60fd03a3f22f9dd32bff5fa8,61036d7f810ea010637744ab,2021-07-30_12h40.40.156,Simcolourproject_2stim_asymm_v5,2020.2.10,Win32,60,61025ae37ef11b136ea224fe,,,,,,,,,1029,71,27.5,1,0,0,response1disk,,6,-3,-12.5,1,0,0,rectangle,-3,-12.5,1,0,0,-3,-12.5,1,0,0,1,36,196,13,1,,,,,,,,
,,,,,,,,,,,,,FF,,,,,,,,0.45,,,,,,,,,,,,,,,,,,,,,,60fd03a3f22f9dd32bff5fa8,61036d7f810ea010637744ab,2021-07-30_12h40.40.156,Simcolourproject_2stim_asymm_v5,2020.2.10,Win32,60,61025ae37ef11b136ea224fe,,,,,,,,,3351,69,59.5,1,0,0,response1disk,,6,0,2.5,1,0,0,rectangle,0,2.5,1,0,0,0,2.5,1,0,0,1,37,197,2,1,,,,,,,,
,,,,,,,,,,,,,FF,,,,,,,,0.6771,,,,,,,,,,,,,,,,,,,,,,60fd03a3f22f9dd32bff5fa8,61036d7f810ea010637744ab,2021-07-30_12h40.40.156,Simcolourproject_2stim_asymm_v5,2020.2.10,Win32,60,61025ae37ef11b136ea224fe,,,,,,,,,4237,-127,54.5,1,0,0,response7disk,,1,-24,7.5,1,0,0,rectangle,-24,7.5,1,0,0,-24,7.5,1,0,0,1,38,198,76,1,,,,,,,,
,,,,,,,,,,,,,FF,,,,,,,,0.6499,,,,,,,,,,,,,,,,,,,,,,60fd03a3f22f9dd32bff5fa8,61036d7f810ea010637744ab,2021-07-30_12h40.40.156,Simcolourproject_2stim_asymm_v5,2020.2.10,Win32,60,61025ae37ef11b136ea224fe,,,,,,,,,2536,88,86.5,1,0,0,response1disk,,6,-7,6.5,1,0,0,rectangle,-7,6.5,1,0,0,-7,6.5,1,0,0,1,39,199,26,1,,,,,,,,
,,,,,,,,,,,,,FF,,,,,,,,0.6176,,,,,,,,,,,,,,,,,,,,,,60fd03a3f22f9dd32bff5fa8,61036d7f810ea010637744ab,2021-07-30_12h40.40.156,Simcolourproject_2stim_asymm_v5,2020.2.10,Win32,60,61025ae37ef11b136ea224fe,,,,,,,,,3320,-41,77.5,1,0,0,response7disk,,0,23,15.5,1,0,0,rectangle,23,15.5,1,0,0,23,15.5,1,0,0,1,40,200,105,1,,,,,,,,
,,,,,,,,,,,,,FF,,,,,,,,0.6338,,,,,,,,,,,,,,,,,,,,,,60fd03a3f22f9dd32bff5fa8,61036d7f810ea010637744ab,2021-07-30_12h40.40.156,Simcolourproject_2stim_asymm_v5,2020.2.10,Win32,60,61025ae37ef11b136ea224fe,,,,,,,,,3970,-111,42.5,1,0,0,response7disk,,1,12,-11.5,1,0,0,rectangle,12,-11.5,1,0,0,12,-11.5,1,0,0,1,41,201,0,1,,,,,,,,
,,,,,,,,,,,,,FF,,,,,,,,0.7839,,,,,,,,,,,,,,,,,,,,,,60fd03a3f22f9dd32bff5fa8,61036d7f810ea010637744ab,2021-07-30_12h40.40.156,Simcolourproject_2stim_asymm_v5,2020.2.10,Win32,60,61025ae37ef11b136ea224fe,,,,,,,,,241,125,103.5,1,0,0,response1disk,,6,45,14.5,1,0,0,rectangle,45,14.5,1,0,0,45,14.5,1,0,0,1,42,202,81,1,,,,,,,,
,,,,,,,,,,,,,FF,,,,,,,,0.5835,,,,,,,,,,,,,,,,,,,,,,60fd03a3f22f9dd32bff5fa8,61036d7f810ea010637744ab,2021-07-30_12h40.40.156,Simcolourproject_2stim_asymm_v5,2020.2.10,Win32,60,61025ae37ef11b136ea224fe,,,,,,,,,914,38,105.5,1,0,0,response1disk,,7,21,-5.5,1,0,0,rectangle,21,-5.5,1,0,0,21,-5.5,1,0,0,1,43,203,77,1,,,,,,,,
,,,,,,,,,,,,,FF,,,,,,,,0.7836,,,,,,,,,,,,,,,,,,,,,,60fd03a3f22f9dd32bff5fa8,61036d7f810ea010637744ab,2021-07-30_12h40.40.156,Simcolourproject_2stim_asymm_v5,2020.2.10,Win32,60,61025ae37ef11b136ea224fe,,,,,,,,,4030,-113,-52.5,1,0,0,response5disk,,2,-24,14.5,1,0,0,rectangle,-24,14.5,1,0,0,-24,14.5,1,0,0,1,44,204,134,1,,,,,,,,
,,,,,,,,,,,,,FF,,,,,,,,0.7168,,,,,,,,,,,,,,,,,,,,,,60fd03a3f22f9dd32bff5fa8,61036d7f810ea010637744ab,2021-07-30_12h40.40.156,Simcolourproject_2stim_asymm_v5,2020.2.10,Win32,60,61025ae37ef11b136ea224fe,,,,,,,,,294,73,97.5,1,0,0,response1disk,,7,23,-6.5,1,0,0,rectangle,23,-6.5,1,0,0,23,-6.5,1,0,0,1,45,205,136,1,,,,,,,,
,,,,,,,,,,,,,FF,,,,,,,,0.4842,,,,,,,,,,,,,,,,,,,,,,60fd03a3f22f9dd32bff5fa8,61036d7f810ea010637744ab,2021-07-30_12h40.40.156,Simcolourproject_2stim_asymm_v5,2020.2.10,Win32,60,61025ae37ef11b136ea224fe,,,,,,,,,2123,59,98.5,1,0,0,response1disk,,7,41,4.5,1,0,0,rectangle,41,4.5,1,0,0,41,4.5,1,0,0,1,46,206,63,1,,,,,,,,
,,,,,,,,,,,,,FF,,,,,,,,1.0672,,,,,,,,,,,,,,,,,,,,,,60fd03a3f22f9dd32bff5fa8,61036d7f810ea010637744ab,2021-07-30_12h40.40.156,Simcolourproject_2stim_asymm_v5,2020.2.10,Win32,60,61025ae37ef11b136ea224fe,,,,,,,,,1457,-67,-111.5,1,0,0,response5disk,,3,-27,8.5,1,0,0,rectangle,-27,8.5,1,0,0,-27,8.5,1,0,0,1,47,207,128,1,,,,,,,,
,,,,,,,,,,,,,FF,,,,,,,,0.6175,,,,,,,,,,,,,,,,,,,,,,60fd03a3f22f9dd32bff5fa8,61036d7f810ea010637744ab,2021-07-30_12h40.40.156,Simcolourproject_2stim_asymm_v5,2020.2.10,Win32,60,61025ae37ef11b136ea224fe,,,,,,,,,3610,72,111.5,1,0,0,response1disk,,7,23,-9.5,1,0,0,rectangle,23,-9.5,1,0,0,23,-9.5,1,0,0,1,48,208,18,1,,,,,,,,
,,,,,,,,,,,,,FF,,,,,,,,0.5336,,,,,,,,,,,,,,,,,,,,,,60fd03a3f22f9dd32bff5fa8,61036d7f810ea010637744ab,2021-07-30_12h40.40.156,Simcolourproject_2stim_asymm_v5,2020.2.10,Win32,60,61025ae37ef11b136ea224fe,,,,,,,,,1662,103,28.5,1,0,0,response1disk,,6,8,-11.5,1,0,0,rectangle,8,-11.5,1,0,0,8,-11.5,1,0,0,1,49,209,144,1,,,,,,,,
,,,,,,,,,,,,,FF,,,,,,,,0.9505,,,,,,,,,,,,,,,,,,,,,,60fd03a3f22f9dd32bff5fa8,61036d7f810ea010637744ab,2021-07-30_12h40.40.156,Simcolourproject_2stim_asymm_v5,2020.2.10,Win32,60,61025ae37ef11b136ea224fe,,,,,,,,,501,112,-50.5,1,0,0,response3disk,,5,-5,9.5,1,0,0,rectangle,-5,9.5,1,0,0,-5,9.5,1,0,0,1,50,210,4,1,,,,,,,,
,,,,,,,,,,,,,FF,,,,,,,,0.7659,,,,,,,,,,,,,,,,,,,,,,60fd03a3f22f9dd32bff5fa8,61036d7f810ea010637744ab,2021-07-30_12h40.40.156,Simcolourproject_2stim_asymm_v5,2020.2.10,Win32,60,61025ae37ef11b136ea224fe,,,,,,,,,3998,-99,43.5,1,0,0,response7disk,,1,-12,-1.5,1,0,0,rectangle,-12,-1.5,1,0,0,-12,-1.5,1,0,0,1,51,211,10,1,,,,,,,,
,,,,,,,,,,,,,FF,,,,,,,,0.6507,,,,,,,,,,,,,,,,,,,,,,60fd03a3f22f9dd32bff5fa8,61036d7f810ea010637744ab,2021-07-30_12h40.40.156,Simcolourproject_2stim_asymm_v5,2020.2.10,Win32,60,61025ae37ef11b136ea224fe,,,,,,,,,4308,71,129.5,1,0,0,response1disk,,7,10,-0.5,1,0,0,rectangle,10,-0.5,1,0,0,10,-0.5,1,0,0,1,52,212,110,1,,,,,,,,
,,,,,,,,,,,,,FF,,,,,,,,0.8502,,,,,,,,,,,,,,,,,,,,,,60fd03a3f22f9dd32bff5fa8,61036d7f810ea010637744ab,2021-07-30_12h40.40.156,Simcolourproject_2stim_asymm_v5,2020.2.10,Win32,60,61025ae37ef11b136ea224fe,,,,,,,,,1266,96,110.5,1,0,0,response1disk,,7,32,5.5,1,0,0,rectangle,32,5.5,1,0,0,32,5.5,1,0,0,1,53,213,17,1,,,,,,,,
,,,,,,,,,,,,,FF,,,,,,,,0.5341,,,,,,,,,,,,,,,,,,,,,,60fd03a3f22f9dd32bff5fa8,61036d7f810ea010637744ab,2021-07-30_12h40.40.156,Simcolourproject_2stim_asymm_v5,2020.2.10,Win32,60,61025ae37ef11b136ea224fe,,,,,,,,,3591,-75,131.5,1,0,0,response7disk,,0,18,-12.5,1,0,0,rectangle,18,-12.5,1,0,0,18,-12.5,1,0,0,1,54,214,82,1,,,,,,,,
,,,,,,,,,,,,,FF,,,,,,,,0.8679,,,,,,,,,,,,,,,,,,,,,,60fd03a3f22f9dd32bff5fa8,61036d7f810ea010637744ab,2021-07-30_12h40.40.156,Simcolourproject_2stim_asymm_v5,2020.2.10,Win32,60,61025ae37ef11b136ea224fe,,,,,,,,,2616,92,50.5,1,0,0,response1disk,,6,2,0.5,1,0,0,rectangle,2,0.5,1,0,0,2,0.5,1,0,0,1,55,215,25,1,,,,,,,,
,,,,,,,,,,,,,FF,,,,,,,,0.934,,,,,,,,,,,,,,,,,,,,,,60fd03a3f22f9dd32bff5fa8,61036d7f810ea010637744ab,2021-07-30_12h40.40.156,Simcolourproject_2stim_asymm_v5,2020.2.10,Win32,60,61025ae37ef11b136ea224fe,,,,,,,,,1304,-62,-129.5,1,0,0,response5disk,,3,-17,15.5,1,0,0,rectangle,-17,15.5,1,0,0,-17,15.5,1,0,0,1,56,216,62,1,,,,,,,,
,,,,,,,,,,,,,FF,,,,,,,,0.6673,,,,,,,,,,,,,,,,,,,,,,60fd03a3f22f9dd32bff5fa8,61036d7f810ea010637744ab,2021-07-30_12h40.40.156,Simcolourproject_2stim_asymm_v5,2020.2.10,Win32,60,61025ae37ef11b136ea224fe,,,,,,,,,3516,-58,-86.5,1,0,0,response5disk,,3,-15,2.5,1,0,0,rectangle,-15,2.5,1,0,0,-15,2.5,1,0,0,1,57,217,91,1,,,,,,,,
,,,,,,,,,,,,,FF,,,,,,,,0.4997,,,,,,,,,,,,,,,,,,,,,,60fd03a3f22f9dd32bff5fa8,61036d7f810ea010637744ab,2021-07-30_12h40.40.156,Simcolourproject_2stim_asymm_v5,2020.2.10,Win32,60,61025ae37ef11b136ea224fe,,,,,,,,,1143,21,120.5,1,0,0,response1disk,,7,2,-5.5,1,0,0,rectangle,2,-5.5,1,0,0,2,-5.5,1,0,0,1,58,218,31,1,,,,,,,,
,,,,,,,,,,,,,FF,,,,,,,,1.0175,,,,,,,,,,,,,,,,,,,,,,60fd03a3f22f9dd32bff5fa8,61036d7f810ea010637744ab,2021-07-30_12h40.40.156,Simcolourproject_2stim_asymm_v5,2020.2.10,Win32,60,61025ae37ef11b136ea224fe,,,,,,,,,1370,-103,-37.5,1,0,0,response5disk,,2,11,16.5,1,0,0,rectangle,11,16.5,1,0,0,11,16.5,1,0,0,1,59,219,141,1,,,,,,,,
,,,,,,,,,,,,,FF,,,,,,,,0.5002,,,,,,,,,,,,,,,,,,,,,,60fd03a3f22f9dd32bff5fa8,61036d7f810ea010637744ab,2021-07-30_12h40.40.156,Simcolourproject_2stim_asymm_v5,2020.2.10,Win32,60,61025ae37ef11b136ea224fe,,,,,,,,,2649,44,116.5,1,0,0,response1disk,,7,15,-3.5,1,0,0,rectangle,15,-3.5,1,0,0,15,-3.5,1,0,0,1,60,220,123,1,,,,,,,,
,,,,,,,,,,,,,FF,,,,,,,,0.5508,,,,,,,,,,,,,,,,,,,,,,60fd03a3f22f9dd32bff5fa8,61036d7f810ea010637744ab,2021-07-30_12h40.40.156,Simcolourproject_2stim_asymm_v5,2020.2.10,Win32,60,61025ae37ef11b136ea224fe,,,,,,,,,2056,64,122.5,1,0,0,response1disk,,7,22,1.5,1,0,0,rectangle,22,1.5,1,0,0,22,1.5,1,0,0,1,61,221,32,1,,,,,,,,
,,,,,,,,,,,,,FF,,,,,,,,0.7695,,,,,,,,,,,,,,,,,,,,,,60fd03a3f22f9dd32bff5fa8,61036d7f810ea010637744ab,2021-07-30_12h40.40.156,Simcolourproject_2stim_asymm_v5,2020.2.10,Win32,60,61025ae37ef11b136ea224fe,,,,,,,,,4225,-100,74.5,1,0,0,response7disk,,1,-10,0.5,1,0,0,rectangle,-10,0.5,1,0,0,-10,0.5,1,0,0,1,62,222,159,1,,,,,,,,
,,,,,,,,,,,,,FF,,,,,,,,0.8498,,,,,,,,,,,,,,,,,,,,,,60fd03a3f22f9dd32bff5fa8,61036d7f810ea010637744ab,2021-07-30_12h40.40.156,Simcolourproject_2stim_asymm_v5,2020.2.10,Win32,60,61025ae37ef11b136ea224fe,,,,,,,,,456,-74,47.5,1,0,0,response7disk,,1,7,8.5,1,0,0,rectangle,7,8.5,1,0,0,7,8.5,1,0,0,1,63,223,9,1,,,,,,,,
,,,,,,,,,,,,,FF,,,,,,,,0.501,,,,,,,,,,,,,,,,,,,,,,60fd03a3f22f9dd32bff5fa8,61036d7f810ea010637744ab,2021-07-30_12h40.40.156,Simcolourproject_2stim_asymm_v5,2020.2.10,Win32,60,61025ae37ef11b136ea224fe,,,,,,,,,1886,-68,125.5,1,0,0,response7disk,,0,-26,7.5,1,0,0,rectangle,-26,7.5,1,0,0,-26,7.5,1,0,0,1,64,224,61,1,,,,,,,,
,,,,,,,,,,,,,FF,,,,,,,,0.6043,,,,,,,,,,,,,,,,,,,,,,60fd03a3f22f9dd32bff5fa8,61036d7f810ea010637744ab,2021-07-30_12h40.40.156,Simcolourproject_2stim_asymm_v5,2020.2.10,Win32,60,61025ae37ef11b136ea224fe,,,,,,,,,3204,-110,43.5,1,0,0,response7disk,,1,-22,-5.5,1,0,0,rectangle,-22,-5.5,1,0,0,-22,-5.5,1,0,0,1,65,225,84,1,,,,,,,,
,,,,,,,,,,,,,FF,,,,,,,,0.5295,,,,,,,,,,,,,,,,,,,,,,60fd03a3f22f9dd32bff5fa8,61036d7f810ea010637744ab,2021-07-30_12h40.40.156,Simcolourproject_2stim_asymm_v5,2020.2.10,Win32,60,61025ae37ef11b136ea224fe,,,,,,,,,2493,36,121.5,1,0,0,response1disk,,7,4,18.5,1,0,0,rectangle,-88,50.5,1,0,0,24,-0.5,1,0,0,1,66,226,97,1,,response7disk_3,TRUE,1,1,"[142,74,227,253,292,141,115,320,320,34,161,92,55,266,3,99,261,9,102,267]",1.1332,rectangle
,,,,,,,,,,,,,FF,,,,,,,,0.9672,,,,,,,,,,,,,,,,,,,,,,60fd03a3f22f9dd32bff5fa8,61036d7f810ea010637744ab,2021-07-30_12h40.40.156,Simcolourproject_2stim_asymm_v5,2020.2.10,Win32,60,61025ae37ef11b136ea224fe,,,,,,,,,796,41,23.5,1,0,0,response1disk,,6,23,-0.5,1,0,0,rectangle,23,-0.5,1,0,0,23,-0.5,1,0,0,1,67,227,138,1,,,,,,,,
,,,,,,,,,,,,,FF,,,,,,,,0.5667,,,,,,,,,,,,,,,,,,,,,,60fd03a3f22f9dd32bff5fa8,61036d7f810ea010637744ab,2021-07-30_12h40.40.156,Simcolourproject_2stim_asymm_v5,2020.2.10,Win32,60,61025ae37ef11b136ea224fe,,,,,,,,,1628,40,81.5,1,0,0,response1disk,,7,9,-10.5,1,0,0,rectangle,9,-10.5,1,0,0,9,-10.5,1,0,0,1,68,228,79,1,,,,,,,,
,,,,,,,,,,,,,FF,,,,,,,,0.7499,,,,,,,,,,,,,,,,,,,,,,60fd03a3f22f9dd32bff5fa8,61036d7f810ea010637744ab,2021-07-30_12h40.40.156,Simcolourproject_2stim_asymm_v5,2020.2.10,Win32,60,61025ae37ef11b136ea224fe,,,,,,,,,2585,42,93.5,1,0,0,response1disk,,7,23,7.5,1,0,0,rectangle,23,7.5,1,0,0,23,7.5,1,0,0,1,69,229,37,1,,,,,,,,
,,,,,,,,,,,,,FF,,,,,,,,0.4173,,,,,,,,,,,,,,,,,,,,,,60fd03a3f22f9dd32bff5fa8,61036d7f810ea010637744ab,2021-07-30_12h40.40.156,Simcolourproject_2stim_asymm_v5,2020.2.10,Win32,60,61025ae37ef11b136ea224fe,,,,,,,,,2762,48,85.5,1,0,0,response1disk,,7,18,11.5,1,0,0,rectangle,18,11.5,1,0,0,18,11.5,1,0,0,1,70,230,116,1,,,,,,,,
,,,,,,,,,,,,,FF,,,,,,,,0.5176,,,,,,,,,,,,,,,,,,,,,,60fd03a3f22f9dd32bff5fa8,61036d7f810ea010637744ab,2021-07-30_12h40.40.156,Simcolourproject_2stim_asymm_v5,2020.2.10,Win32,60,61025ae37ef11b136ea224fe,,,,,,,,,365,47,125.5,1,0,0,response1disk,,7,15,10.5,1,0,0,rectangle,15,10.5,1,0,0,15,10.5,1,0,0,1,71,231,131,1,,,,,,,,
,,,,,,,,,,,,,FF,,,,,,,,0.6499,,,,,,,,,,,,,,,,,,,,,,60fd03a3f22f9dd32bff5fa8,61036d7f810ea010637744ab,2021-07-30_12h40.40.156,Simcolourproject_2stim_asymm_v5,2020.2.10,Win32,60,61025ae37ef11b136ea224fe,,,,,,,,,4052,-102,37.5,1,0,0,response7disk,,1,34,9.5,1,0,0,rectangle,34,9.5,1,0,0,34,9.5,1,0,0,1,72,232,154,1,,,,,,,,
,,,,,,,,,,,,,FF,,,,,,,,0.5099,,,,,,,,,,,,,,,,,,,,,,60fd03a3f22f9dd32bff5fa8,61036d7f810ea010637744ab,2021-07-30_12h40.40.156,Simcolourproject_2stim_asymm_v5,2020.2.10,Win32,60,61025ae37ef11b136ea224fe,,,,,,,,,3276,59,90.5,1,0,0,response1disk,,7,15,-12.5,1,0,0,rectangle,15,-12.5,1,0,0,15,-12.5,1,0,0,1,73,233,28,1,,,,,,,,
,,,,,,,,,,,,,FF,,,,,,,,1.4522,,,,,,,,,,,,,,,,,,,,,,60fd03a3f22f9dd32bff5fa8,61036d7f810ea010637744ab,2021-07-30_12h40.40.156,Simcolourproject_2stim_asymm_v5,2020.2.10,Win32,60,61025ae37ef11b136ea224fe,,,,,,,,,3304,130,-51.5,1,0,0,response3disk,,5,-15,2.5,1,0,0,rectangle,-15,2.5,1,0,0,-15,2.5,1,0,0,1,74,234,108,1,,,,,,,,
,,,,,,,,,,,,,FF,,,,,,,,0.5339,,,,,,,,,,,,,,,,,,,,,,60fd03a3f22f9dd32bff5fa8,61036d7f810ea010637744ab,2021-07-30_12h40.40.156,Simcolourproject_2stim_asymm_v5,2020.2.10,Win32,60,61025ae37ef11b136ea224fe,,,,,,,,,1986,73,-39.5,1,0,0,response3disk,,5,-26,-7.5,1,0,0,rectangle,-26,-7.5,1,0,0,-26,-7.5,1,0,0,1,75,235,139,1,,,,,,,,
,,,,,,,,,,,,,FF,,,,,,,,0.6835,,,,,,,,,,,,,,,,,,,,,,60fd03a3f22f9dd32bff5fa8,61036d7f810ea010637744ab,2021-07-30_12h40.40.156,Simcolourproject_2stim_asymm_v5,2020.2.10,Win32,60,61025ae37ef11b136ea224fe,,,,,,,,,3603,96,66.5,1,0,0,response1disk,,6,26,1.5,1,0,0,rectangle,26,1.5,1,0,0,26,1.5,1,0,0,1,76,236,16,1,,,,,,,,
,,,,,,,,,,,,,FF,,,,,,,,0.65,,,,,,,,,,,,,,,,,,,,,,60fd03a3f22f9dd32bff5fa8,61036d7f810ea010637744ab,2021-07-30_12h40.40.156,Simcolourproject_2stim_asymm_v5,2020.2.10,Win32,60,61025ae37ef11b136ea224fe,,,,,,,,,3532,38,-70.5,1,0,0,response3disk,,4,-9,6.5,1,0,0,rectangle,-9,6.5,1,0,0,-9,6.5,1,0,0,1,77,237,51,1,,,,,,,,
,,,,,,,,,,,,,FF,,,,,,,,0.5162,,,,,,,,,,,,,,,,,,,,,,60fd03a3f22f9dd32bff5fa8,61036d7f810ea010637744ab,2021-07-30_12h40.40.156,Simcolourproject_2stim_asymm_v5,2020.2.10,Win32,60,61025ae37ef11b136ea224fe,,,,,,,,,4042,78,23.5,1,0,0,response1disk,,6,45,-13.5,1,0,0,rectangle,45,-13.5,1,0,0,45,-13.5,1,0,0,1,78,238,101,1,,,,,,,,
,,,,,,,,,,,,,FF,,,,,,,,0.6839,,,,,,,,,,,,,,,,,,,,,,60fd03a3f22f9dd32bff5fa8,61036d7f810ea010637744ab,2021-07-30_12h40.40.156,Simcolourproject_2stim_asymm_v5,2020.2.10,Win32,60,61025ae37ef11b136ea224fe,,,,,,,,,2890,-50,-77.5,1,0,0,response5disk,,3,1,14.5,1,0,0,rectangle,1,14.5,1,0,0,1,14.5,1,0,0,1,79,239,43,1,,,,,,,,
,,,,,,,,,,,,,FF,,,,,,,,0.4503,,,,,,,,,,,,,,,,,,,,,,60fd03a3f22f9dd32bff5fa8,61036d7f810ea010637744ab,2021-07-30_12h40.40.156,Simcolourproject_2stim_asymm_v5,2020.2.10,Win32,60,61025ae37ef11b136ea224fe,,,,,,,,,1507,81,52.5,1,0,0,response1disk,,6,34,5.5,1,0,0,rectangle,34,5.5,1,0,0,34,5.5,1,0,0,1,80,240,96,1,,,,,,,,
,,,,,,,,,,,,,FF,,,,,,,,0.4336,,,,,,,,,,,,,,,,,,,,,,60fd03a3f22f9dd32bff5fa8,61036d7f810ea010637744ab,2021-07-30_12h40.40.156,Simcolourproject_2stim_asymm_v5,2020.2.10,Win32,60,61025ae37ef11b136ea224fe,,,,,,,,,1501,49,83.5,1,0,0,response1disk,,7,22,-15.5,1,0,0,rectangle,22,-15.5,1,0,0,22,-15.5,1,0,0,1,81,241,33,1,,,,,,,,
,,,,,,,,,,,,,FF,,,,,,,,0.3671,,,,,,,,,,,,,,,,,,,,,,60fd03a3f22f9dd32bff5fa8,61036d7f810ea010637744ab,2021-07-30_12h40.40.156,Simcolourproject_2stim_asymm_v5,2020.2.10,Win32,60,61025ae37ef11b136ea224fe,,,,,,,,,1646,51,102.5,1,0,0,response1disk,,7,17,-7.5,1,0,0,rectangle,17,-7.5,1,0,0,17,-7.5,1,0,0,1,82,242,50,1,,,,,,,,
,,,,,,,,,,,,,FF,,,,,,,,0.5831,,,,,,,,,,,,,,,,,,,,,,60fd03a3f22f9dd32bff5fa8,61036d7f810ea010637744ab,2021-07-30_12h40.40.156,Simcolourproject_2stim_asymm_v5,2020.2.10,Win32,60,61025ae37ef11b136ea224fe,,,,,,,,,355,-73,-97.5,1,0,0,response5disk,,3,-2,17.5,1,0,0,rectangle,-2,17.5,1,0,0,-2,17.5,1,0,0,1,83,243,115,1,,,,,,,,
,,,,,,,,,,,,,FF,,,,,,,,0.4837,,,,,,,,,,,,,,,,,,,,,,60fd03a3f22f9dd32bff5fa8,61036d7f810ea010637744ab,2021-07-30_12h40.40.156,Simcolourproject_2stim_asymm_v5,2020.2.10,Win32,60,61025ae37ef11b136ea224fe,,,,,,,,,4175,32,86.5,1,0,0,response1disk,,7,14,-7.5,1,0,0,rectangle,14,-7.5,1,0,0,14,-7.5,1,0,0,1,84,244,15,1,,,,,,,,
,,,,,,,,,,,,,FF,,,,,,,,0.683,,,,,,,,,,,,,,,,,,,,,,60fd03a3f22f9dd32bff5fa8,61036d7f810ea010637744ab,2021-07-30_12h40.40.156,Simcolourproject_2stim_asymm_v5,2020.2.10,Win32,60,61025ae37ef11b136ea224fe,,,,,,,,,2177,124,43.5,1,0,0,response1disk,,6,15,-0.5,1,0,0,rectangle,15,-0.5,1,0,0,15,-0.5,1,0,0,1,85,245,45,1,,,,,,,,
,,,,,,,,,,,,,FF,,,,,,,,1.084,,,,,,,,,,,,,,,,,,,,,,60fd03a3f22f9dd32bff5fa8,61036d7f810ea010637744ab,2021-07-30_12h40.40.156,Simcolourproject_2stim_asymm_v5,2020.2.10,Win32,60,61025ae37ef11b136ea224fe,,,,,,,,,973,-66,-63.5,1,0,0,response5disk,,2,4,0.5,1,0,0,rectangle,4,0.5,1,0,0,4,0.5,1,0,0,1,86,246,137,1,,,,,,,,
,,,,,,,,,,,,,FF,,,,,,,,1.033,,,,,,,,,,,,,,,,,,,,,,60fd03a3f22f9dd32bff5fa8,61036d7f810ea010637744ab,2021-07-30_12h40.40.156,Simcolourproject_2stim_asymm_v5,2020.2.10,Win32,60,61025ae37ef11b136ea224fe,,,,,,,,,403,96,40.5,1,0,0,response1disk,,6,8,-5.5,1,0,0,rectangle,8,-5.5,1,0,0,8,-5.5,1,0,0,1,87,247,73,1,,,,,,,,
,,,,,,,,,,,,,FF,,,,,,,,0.5502,,,,,,,,,,,,,,,,,,,,,,60fd03a3f22f9dd32bff5fa8,61036d7f810ea010637744ab,2021-07-30_12h40.40.156,Simcolourproject_2stim_asymm_v5,2020.2.10,Win32,60,61025ae37ef11b136ea224fe,,,,,,,,,2009,88,127.5,1,0,0,response1disk,,7,29,7.5,1,0,0,rectangle,29,7.5,1,0,0,29,7.5,1,0,0,1,88,248,6,1,,,,,,,,
,,,,,,,,,,,,,FF,,,,,,,,1.1849,,,,,,,,,,,,,,,,,,,,,,60fd03a3f22f9dd32bff5fa8,61036d7f810ea010637744ab,2021-07-30_12h40.40.156,Simcolourproject_2stim_asymm_v5,2020.2.10,Win32,60,61025ae37ef11b136ea224fe,,,,,,,,,1959,-107,-60.5,1,0,0,response5disk,,2,-26,7.5,1,0,0,rectangle,-26,7.5,1,0,0,-26,7.5,1,0,0,1,89,249,100,1,,,,,,,,
,,,,,,,,,,,,,FF,,,,,,,,1.2339,,,,,,,,,,,,,,,,,,,,,,60fd03a3f22f9dd32bff5fa8,61036d7f810ea010637744ab,2021-07-30_12h40.40.156,Simcolourproject_2stim_asymm_v5,2020.2.10,Win32,60,61025ae37ef11b136ea224fe,,,,,,,,,3004,46,-96.5,1,0,0,response3disk,,4,3,-3.5,1,0,0,rectangle,3,-3.5,1,0,0,3,-3.5,1,0,0,1,90,250,86,1,,,,,,,,
,,,,,,,,,,,,,FF,,,,,,,,0.9065,,,,,,,,,,,,,,,,,,,,,,60fd03a3f22f9dd32bff5fa8,61036d7f810ea010637744ab,2021-07-30_12h40.40.156,Simcolourproject_2stim_asymm_v5,2020.2.10,Win32,60,61025ae37ef11b136ea224fe,,,,,,,,,2523,30,118.5,1,0,0,response1disk,,7,4,12.5,1,0,0,rectangle,4,12.5,1,0,0,4,12.5,1,0,0,1,91,251,129,1,,,,,,,,
,,,,,,,,,,,,,FF,,,,,,,,0.9998,,,,,,,,,,,,,,,,,,,,,,60fd03a3f22f9dd32bff5fa8,61036d7f810ea010637744ab,2021-07-30_12h40.40.156,Simcolourproject_2stim_asymm_v5,2020.2.10,Win32,60,61025ae37ef11b136ea224fe,,,,,,,,,2243,-94,-68.5,1,0,0,response5disk,,2,1,-10.5,1,0,0,rectangle,-35,129.5,1,0,0,-30,-7.5,1,0,0,1,92,252,133,1,,response7disk_3,TRUE,0,0,"[142,74,227,253,292,141,115,320,320,34,161,92,55,266,3,99,261,9,102,267]",1.3721,rectangle
,,,,,,,,,,,,,FF,,,,,,,,0.8887,,,,,,,,,,,,,,,,,,,,,,60fd03a3f22f9dd32bff5fa8,61036d7f810ea010637744ab,2021-07-30_12h40.40.156,Simcolourproject_2stim_asymm_v5,2020.2.10,Win32,60,61025ae37ef11b136ea224fe,,,,,,,,,3502,-32,-110.5,1,0,0,response5disk,,3,45,-11.5,1,0,0,rectangle,45,-11.5,1,0,0,45,-11.5,1,0,0,1,93,253,67,1,,,,,,,,
,,,,,,,,,,,,,FF,,,,,,,,1.2506,,,,,,,,,,,,,,,,,,,,,,60fd03a3f22f9dd32bff5fa8,61036d7f810ea010637744ab,2021-07-30_12h40.40.156,Simcolourproject_2stim_asymm_v5,2020.2.10,Win32,60,61025ae37ef11b136ea224fe,,,,,,,,,3300,38,-91.5,1,0,0,response3disk,,4,-3,7.5,1,0,0,rectangle,-3,7.5,1,0,0,-3,7.5,1,0,0,1,94,254,66,1,,,,,,,,
,,,,,,,,,,,,,FF,,,,,,,,0.5531,,,,,,,,,,,,,,,,,,,,,,60fd03a3f22f9dd32bff5fa8,61036d7f810ea010637744ab,2021-07-30_12h40.40.156,Simcolourproject_2stim_asymm_v5,2020.2.10,Win32,60,61025ae37ef11b136ea224fe,,,,,,,,,2393,106,40.5,1,0,0,response1disk,,6,16,-6.5,1,0,0,rectangle,16,-6.5,1,0,0,16,-6.5,1,0,0,1,95,255,145,1,,,,,,,,
,,,,,,,,,,,,,FF,,,,,,,,0.367,,,,,,,,,,,,,,,,,,,,,,60fd03a3f22f9dd32bff5fa8,61036d7f810ea010637744ab,2021-07-30_12h40.40.156,Simcolourproject_2stim_asymm_v5,2020.2.10,Win32,60,61025ae37ef11b136ea224fe,,,,,,,,,850,50,116.5,1,0,0,response1disk,,7,4,3.5,1,0,0,rectangle,4,3.5,1,0,0,4,3.5,1,0,0,1,96,256,87,1,,,,,,,,
,,,,,,,,,,,,,FF,,,,,,,,0.3883,,,,,,,,,,,,,,,,,,,,,,60fd03a3f22f9dd32bff5fa8,61036d7f810ea010637744ab,2021-07-30_12h40.40.156,Simcolourproject_2stim_asymm_v5,2020.2.10,Win32,60,61025ae37ef11b136ea224fe,,,,,,,,,150,37,116.5,1,0,0,response1disk,,7,0,0.5,1,0,0,rectangle,0,0.5,1,0,0,0,0.5,1,0,0,1,97,257,56,1,,,,,,,,
,,,,,,,,,,,,,FF,,,,,,,,0.706,,,,,,,,,,,,,,,,,,,,,,60fd03a3f22f9dd32bff5fa8,61036d7f810ea010637744ab,2021-07-30_12h40.40.156,Simcolourproject_2stim_asymm_v5,2020.2.10,Win32,60,61025ae37ef11b136ea224fe,,,,,,,,,3950,-47,-117.5,1,0,0,response5disk,,3,19,16.5,1,0,0,rectangle,19,16.5,1,0,0,19,16.5,1,0,0,1,98,258,124,1,,,,,,,,
,,,,,,,,,,,,,FF,,,,,,,,0.8121,,,,,,,,,,,,,,,,,,,,,,60fd03a3f22f9dd32bff5fa8,61036d7f810ea010637744ab,2021-07-30_12h40.40.156,Simcolourproject_2stim_asymm_v5,2020.2.10,Win32,60,61025ae37ef11b136ea224fe,,,,,,,,,103,-38,-66.5,1,0,0,response5disk,,3,5,1.5,1,0,0,rectangle,5,1.5,1,0,0,5,1.5,1,0,0,1,99,259,103,1,,,,,,,,
,,,,,,,,,,,,,FF,,,,,,,,0.5173,,,,,,,,,,,,,,,,,,,,,,60fd03a3f22f9dd32bff5fa8,61036d7f810ea010637744ab,2021-07-30_12h40.40.156,Simcolourproject_2stim_asymm_v5,2020.2.10,Win32,60,61025ae37ef11b136ea224fe,,,,,,,,,190,-48,-106.5,1,0,0,response5disk,,3,24,17.5,1,0,0,rectangle,130,75.5,1,0,0,10,-4.5,1,0,0,1,100,260,88,1,,response1disk_3,TRUE,6,6,"[142,74,227,253,292,141,115,320,320,34,161,92,55,266,3,99,261,9,102,267]",1.4824,rectangle
,,,,,,,,,,,,,FF,,,,,,,,0.6735,,,,,,,,,,,,,,,,,,,,,,60fd03a3f22f9dd32bff5fa8,61036d7f810ea010637744ab,2021-07-30_12h40.40.156,Simcolourproject_2stim_asymm_v5,2020.2.10,Win32,60,61025ae37ef11b136ea224fe,,,,,,,,,2949,86,34.5,1,0,0,response1disk,,6,10,4.5,1,0,0,rectangle,10,4.5,1,0,0,10,4.5,1,0,0,1,101,261,34,1,,,,,,,,
,,,,,,,,,,,,,FF,,,,,,,,0.9228,,,,,,,,,,,,,,,,,,,,,,60fd03a3f22f9dd32bff5fa8,61036d7f810ea010637744ab,2021-07-30_12h40.40.156,Simcolourproject_2stim_asymm_v5,2020.2.10,Win32,60,61025ae37ef11b136ea224fe,,,,,,,,,2911,123,-25.5,1,0,0,response3disk,,5,18,-0.5,1,0,0,rectangle,18,-0.5,1,0,0,18,-0.5,1,0,0,1,102,262,8,1,,,,,,,,
,,,,,,,,,,,,,FF,,,,,,,,0.8933,,,,,,,,,,,,,,,,,,,,,,60fd03a3f22f9dd32bff5fa8,61036d7f810ea010637744ab,2021-07-30_12h40.40.156,Simcolourproject_2stim_asymm_v5,2020.2.10,Win32,60,61025ae37ef11b136ea224fe,,,,,,,,,2420,-68,45.5,1,0,0,response7disk,,1,15,-6.5,1,0,0,rectangle,15,-6.5,1,0,0,15,-6.5,1,0,0,1,103,263,126,1,,,,,,,,
,,,,,,,,,,,,,FF,,,,,,,,0.7724,,,,,,,,,,,,,,,,,,,,,,60fd03a3f22f9dd32bff5fa8,61036d7f810ea010637744ab,2021-07-30_12h40.40.156,Simcolourproject_2stim_asymm_v5,2020.2.10,Win32,60,61025ae37ef11b136ea224fe,,,,,,,,,284,-119,-60.5,1,0,0,response5disk,,2,-18,-7.5,1,0,0,rectangle,-18,-7.5,1,0,0,-18,-7.5,1,0,0,1,104,264,60,1,,,,,,,,
,,,,,,,,,,,,,FF,,,,,,,,0.5693,,,,,,,,,,,,,,,,,,,,,,60fd03a3f22f9dd32bff5fa8,61036d7f810ea010637744ab,2021-07-30_12h40.40.156,Simcolourproject_2stim_asymm_v5,2020.2.10,Win32,60,61025ae37ef11b136ea224fe,,,,,,,,,2527,79,103.5,1,0,0,response1disk,,7,17,-9.5,1,0,0,rectangle,-100,45.5,1,0,0,20,-14.5,1,0,0,1,105,265,40,1,,response7disk_3,TRUE,1,1,"[142,74,227,253,292,141,115,320,320,34,161,92,55,266,3,99,261,9,102,267]",1.1833,rectangle
,,,,,,,,,,,,,FF,,,,,,,,0.5498,,,,,,,,,,,,,,,,,,,,,,60fd03a3f22f9dd32bff5fa8,61036d7f810ea010637744ab,2021-07-30_12h40.40.156,Simcolourproject_2stim_asymm_v5,2020.2.10,Win32,60,61025ae37ef11b136ea224fe,,,,,,,,,1442,71,49.5,1,0,0,response1disk,,6,7,-3.5,1,0,0,rectangle,117,64.5,1,0,0,12,0.5,1,0,0,1,106,266,151,1,,response1disk_3,TRUE,6,6,"[142,74,227,253,292,141,115,320,320,34,161,92,55,266,3,99,261,9,102,267]",1.1659,rectangle
,,,,,,,,,,,,,FF,,,,,,,,0.7838,,,,,,,,,,,,,,,,,,,,,,60fd03a3f22f9dd32bff5fa8,61036d7f810ea010637744ab,2021-07-30_12h40.40.156,Simcolourproject_2stim_asymm_v5,2020.2.10,Win32,60,61025ae37ef11b136ea224fe,,,,,,,,,2385,113,35.5,1,0,0,response1disk,,6,19,-2.5,1,0,0,rectangle,19,-2.5,1,0,0,19,-2.5,1,0,0,1,107,267,55,1,,,,,,,,
,,,,,,,,,,,,,FF,,,,,,,,0.3997,,,,,,,,,,,,,,,,,,,,,,60fd03a3f22f9dd32bff5fa8,61036d7f810ea010637744ab,2021-07-30_12h40.40.156,Simcolourproject_2stim_asymm_v5,2020.2.10,Win32,60,61025ae37ef11b136ea224fe,,,,,,,,,469,74,113.5,1,0,0,response1disk,,7,-14,-12.5,1,0,0,rectangle,-14,-12.5,1,0,0,-14,-12.5,1,0,0,1,108,268,147,1,,,,,,,,
,,,,,,,,,,,,,FF,,,,,,,,0.5991,,,,,,,,,,,,,,,,,,,,,,60fd03a3f22f9dd32bff5fa8,61036d7f810ea010637744ab,2021-07-30_12h40.40.156,Simcolourproject_2stim_asymm_v5,2020.2.10,Win32,60,61025ae37ef11b136ea224fe,,,,,,,,,1168,32,50.5,1,0,0,response1disk,,7,-2,14.5,1,0,0,rectangle,-2,14.5,1,0,0,-2,14.5,1,0,0,1,109,269,149,1,,,,,,,,
,,,,,,,,,,,,,FF,,,,,,,,0.6672,,,,,,,,,,,,,,,,,,,,,,60fd03a3f22f9dd32bff5fa8,61036d7f810ea010637744ab,2021-07-30_12h40.40.156,Simcolourproject_2stim_asymm_v5,2020.2.10,Win32,60,61025ae37ef11b136ea224fe,,,,,,,,,3039,-45,-76.5,1,0,0,response5disk,,3,-2,3.5,1,0,0,rectangle,-2,3.5,1,0,0,-2,3.5,1,0,0,1,110,270,104,1,,,,,,,,
,,,,,,,,,,,,,FF,,,,,,,,0.5997,,,,,,,,,,,,,,,,,,,,,,60fd03a3f22f9dd32bff5fa8,61036d7f810ea010637744ab,2021-07-30_12h40.40.156,Simcolourproject_2stim_asymm_v5,2020.2.10,Win32,60,61025ae37ef11b136ea224fe,,,,,,,,,3360,43,-81.5,1,0,0,response3disk,,4,16,-7.5,1,0,0,rectangle,16,-7.5,1,0,0,16,-7.5,1,0,0,1,111,271,92,1,,,,,,,,
,,,,,,,,,,,,,FF,,,,,,,,0.45,,,,,,,,,,,,,,,,,,,,,,60fd03a3f22f9dd32bff5fa8,61036d7f810ea010637744ab,2021-07-30_12h40.40.156,Simcolourproject_2stim_asymm_v5,2020.2.10,Win32,60,61025ae37ef11b136ea224fe,,,,,,,,,1564,65,-43.5,1,0,0,response3disk,,5,7,2.5,1,0,0,rectangle,7,2.5,1,0,0,7,2.5,1,0,0,1,112,272,5,1,,,,,,,,
,,,,,,,,,,,,,FF,,,,,,,,0.8348,,,,,,,,,,,,,,,,,,,,,,60fd03a3f22f9dd32bff5fa8,61036d7f810ea010637744ab,2021-07-30_12h40.40.156,Simcolourproject_2stim_asymm_v5,2020.2.10,Win32,60,61025ae37ef11b136ea224fe,,,,,,,,,1277,122,46.5,1,0,0,response1disk,,6,-7,-10.5,1,0,0,rectangle,-7,-10.5,1,0,0,-7,-10.5,1,0,0,1,113,273,78,1,,,,,,,,
,,,,,,,,,,,,,FF,,,,,,,,0.3338,,,,,,,,,,,,,,,,,,,,,,60fd03a3f22f9dd32bff5fa8,61036d7f810ea010637744ab,2021-07-30_12h40.40.156,Simcolourproject_2stim_asymm_v5,2020.2.10,Win32,60,61025ae37ef11b136ea224fe,,,,,,,,,4174,75,103.5,1,0,0,response1disk,,7,31,-8.5,1,0,0,rectangle,31,-8.5,1,0,0,31,-8.5,1,0,0,1,114,274,153,1,,,,,,,,
,,,,,,,,,,,,,FF,,,,,,,,0.8505,,,,,,,,,,,,,,,,,,,,,,60fd03a3f22f9dd32bff5fa8,61036d7f810ea010637744ab,2021-07-30_12h40.40.156,Simcolourproject_2stim_asymm_v5,2020.2.10,Win32,60,61025ae37ef11b136ea224fe,,,,,,,,,4256,47,-103.5,1,0,0,response3disk,,4,22,-18.5,1,0,0,rectangle,22,-18.5,1,0,0,22,-18.5,1,0,0,1,115,275,47,1,,,,,,,,
,,,,,,,,,,,,,FF,,,,,,,,0.6674,,,,,,,,,,,,,,,,,,,,,,60fd03a3f22f9dd32bff5fa8,61036d7f810ea010637744ab,2021-07-30_12h40.40.156,Simcolourproject_2stim_asymm_v5,2020.2.10,Win32,60,61025ae37ef11b136ea224fe,,,,,,,,,3244,-85,-62.5,1,0,0,response5disk,,2,16,-0.5,1,0,0,rectangle,16,-0.5,1,0,0,16,-0.5,1,0,0,1,116,276,119,1,,,,,,,,
,,,,,,,,,,,,,FF,,,,,,,,0.7004,,,,,,,,,,,,,,,,,,,,,,60fd03a3f22f9dd32bff5fa8,61036d7f810ea010637744ab,2021-07-30_12h40.40.156,Simcolourproject_2stim_asymm_v5,2020.2.10,Win32,60,61025ae37ef11b136ea224fe,,,,,,,,,4345,-80,-38.5,1,0,0,response5disk,,2,0,13.5,1,0,0,rectangle,0,13.5,1,0,0,0,13.5,1,0,0,1,117,277,107,1,,,,,,,,
,,,,,,,,,,,,,FF,,,,,,,,0.5676,,,,,,,,,,,,,,,,,,,,,,60fd03a3f22f9dd32bff5fa8,61036d7f810ea010637744ab,2021-07-30_12h40.40.156,Simcolourproject_2stim_asymm_v5,2020.2.10,Win32,60,61025ae37ef11b136ea224fe,,,,,,,,,1861,48,101.5,1,0,0,response1disk,,7,27,-7.5,1,0,0,rectangle,27,-7.5,1,0,0,27,-7.5,1,0,0,1,118,278,106,1,,,,,,,,
,,,,,,,,,,,,,FF,,,,,,,,0.4502,,,,,,,,,,,,,,,,,,,,,,60fd03a3f22f9dd32bff5fa8,61036d7f810ea010637744ab,2021-07-30_12h40.40.156,Simcolourproject_2stim_asymm_v5,2020.2.10,Win32,60,61025ae37ef11b136ea224fe,,,,,,,,,1848,80,100.5,1,0,0,response1disk,,7,35,12.5,1,0,0,rectangle,35,12.5,1,0,0,35,12.5,1,0,0,1,119,279,22,1,,,,,,,,
,,,,,,,,,,,,,FF,,,,,,,,0.3999,,,,,,,,,,,,,,,,,,,,,,60fd03a3f22f9dd32bff5fa8,61036d7f810ea010637744ab,2021-07-30_12h40.40.156,Simcolourproject_2stim_asymm_v5,2020.2.10,Win32,60,61025ae37ef11b136ea224fe,,,,,,,,,240,61,116.5,1,0,0,response1disk,,7,29,-3.5,1,0,0,rectangle,29,-3.5,1,0,0,29,-3.5,1,0,0,1,120,280,114,1,,,,,,,,
,,,,,,,,,,,,,FF,,,,,,,,0.6175,,,,,,,,,,,,,,,,,,,,,,60fd03a3f22f9dd32bff5fa8,61036d7f810ea010637744ab,2021-07-30_12h40.40.156,Simcolourproject_2stim_asymm_v5,2020.2.10,Win32,60,61025ae37ef11b136ea224fe,,,,,,,,,149,34,78.5,1,0,0,response1disk,,7,-17,-13.5,1,0,0,rectangle,-17,-13.5,1,0,0,-17,-13.5,1,0,0,1,121,281,65,1,,,,,,,,
,,,,,,,,,,,,,FF,,,,,,,,0.416,,,,,,,,,,,,,,,,,,,,,,60fd03a3f22f9dd32bff5fa8,61036d7f810ea010637744ab,2021-07-30_12h40.40.156,Simcolourproject_2stim_asymm_v5,2020.2.10,Win32,60,61025ae37ef11b136ea224fe,,,,,,,,,1954,61,88.5,1,0,0,response1disk,,7,38,-12.5,1,0,0,rectangle,38,-12.5,1,0,0,38,-12.5,1,0,0,1,122,282,41,1,,,,,,,,
,,,,,,,,,,,,,FF,,,,,,,,0.3503,,,,,,,,,,,,,,,,,,,,,,60fd03a3f22f9dd32bff5fa8,61036d7f810ea010637744ab,2021-07-30_12h40.40.156,Simcolourproject_2stim_asymm_v5,2020.2.10,Win32,60,61025ae37ef11b136ea224fe,,,,,,,,,2978,52,88.5,1,0,0,response1disk,,7,4,-4.5,1,0,0,rectangle,4,-4.5,1,0,0,4,-4.5,1,0,0,1,123,283,140,1,,,,,,,,
,,,,,,,,,,,,,FF,,,,,,,,0.6168,,,,,,,,,,,,,,,,,,,,,,60fd03a3f22f9dd32bff5fa8,61036d7f810ea010637744ab,2021-07-30_12h40.40.156,Simcolourproject_2stim_asymm_v5,2020.2.10,Win32,60,61025ae37ef11b136ea224fe,,,,,,,,,3631,81,-24.5,1,0,0,response3disk,,5,-6,0.5,1,0,0,rectangle,-6,0.5,1,0,0,-6,0.5,1,0,0,1,124,284,99,1,,,,,,,,
,,,,,,,,,,,,,FF,,,,,,,,0.4836,,,,,,,,,,,,,,,,,,,,,,60fd03a3f22f9dd32bff5fa8,61036d7f810ea010637744ab,2021-07-30_12h40.40.156,Simcolourproject_2stim_asymm_v5,2020.2.10,Win32,60,61025ae37ef11b136ea224fe,,,,,,,,,3571,91,31.5,1,0,0,response1disk,,6,34,-1.5,1,0,0,rectangle,34,-1.5,1,0,0,34,-1.5,1,0,0,1,125,285,113,1,,,,,,,,
,,,,,,,,,,,,,FF,,,,,,,,0.4672,,,,,,,,,,,,,,,,,,,,,,60fd03a3f22f9dd32bff5fa8,61036d7f810ea010637744ab,2021-07-30_12h40.40.156,Simcolourproject_2stim_asymm_v5,2020.2.10,Win32,60,61025ae37ef11b136ea224fe,,,,,,,,,2296,-44,-86.5,1,0,0,response5disk,,3,-18,11.5,1,0,0,rectangle,-18,11.5,1,0,0,-18,11.5,1,0,0,1,126,286,69,1,,,,,,,,
,,,,,,,,,,,,,FF,,,,,,,,0.4512,,,,,,,,,,,,,,,,,,,,,,60fd03a3f22f9dd32bff5fa8,61036d7f810ea010637744ab,2021-07-30_12h40.40.156,Simcolourproject_2stim_asymm_v5,2020.2.10,Win32,60,61025ae37ef11b136ea224fe,,,,,,,,,2591,35,102.5,1,0,0,response1disk,,7,11,1.5,1,0,0,rectangle,11,1.5,1,0,0,11,1.5,1,0,0,1,127,287,35,1,,,,,,,,
,,,,,,,,,,,,,FF,,,,,,,,0.4167,,,,,,,,,,,,,,,,,,,,,,60fd03a3f22f9dd32bff5fa8,61036d7f810ea010637744ab,2021-07-30_12h40.40.156,Simcolourproject_2stim_asymm_v5,2020.2.10,Win32,60,61025ae37ef11b136ea224fe,,,,,,,,,69,45,81.5,1,0,0,response1disk,,7,17,0.5,1,0,0,rectangle,17,0.5,1,0,0,17,0.5,1,0,0,1,128,288,94,1,,,,,,,,
,,,,,,,,,,,,,FF,,,,,,,,0.55,,,,,,,,,,,,,,,,,,,,,,60fd03a3f22f9dd32bff5fa8,61036d7f810ea010637744ab,2021-07-30_12h40.40.156,Simcolourproject_2stim_asymm_v5,2020.2.10,Win32,60,61025ae37ef11b136ea224fe,,,,,,,,,3006,-28,-89.5,1,0,0,response5disk,,3,4,6.5,1,0,0,rectangle,4,6.5,1,0,0,4,6.5,1,0,0,1,129,289,21,1,,,,,,,,
,,,,,,,,,,,,,FF,,,,,,,,0.6338,,,,,,,,,,,,,,,,,,,,,,60fd03a3f22f9dd32bff5fa8,61036d7f810ea010637744ab,2021-07-30_12h40.40.156,Simcolourproject_2stim_asymm_v5,2020.2.10,Win32,60,61025ae37ef11b136ea224fe,,,,,,,,,1713,57,91.5,1,0,0,response1disk,,7,21,6.5,1,0,0,rectangle,21,6.5,1,0,0,21,6.5,1,0,0,1,130,290,111,1,,,,,,,,
,,,,,,,,,,,,,FF,,,,,,,,2.0843,,,,,,,,,,,,,,,,,,,,,,60fd03a3f22f9dd32bff5fa8,61036d7f810ea010637744ab,2021-07-30_12h40.40.156,Simcolourproject_2stim_asymm_v5,2020.2.10,Win32,60,61025ae37ef11b136ea224fe,,,,,,,,,3947,39,-86.5,1,0,0,response3disk,,4,3,-6.5,1,0,0,rectangle,-139,-70.5,1,0,0,-13,0.5,1,0,0,1,131,291,75,1,,response5disk_3,TRUE,2,2,"[142,74,227,253,292,141,115,320,320,34,161,92,55,266,3,99,261,9,102,267]",1.5499,rectangle
,,,,,,,,,,,,,FF,,,,,,,,0.917,,,,,,,,,,,,,,,,,,,,,,60fd03a3f22f9dd32bff5fa8,61036d7f810ea010637744ab,2021-07-30_12h40.40.156,Simcolourproject_2stim_asymm_v5,2020.2.10,Win32,60,61025ae37ef11b136ea224fe,,,,,,,,,1541,-33,-123.5,1,0,0,response5disk,,3,-1,5.5,1,0,0,rectangle,-1,5.5,1,0,0,-1,5.5,1,0,0,1,132,292,1,1,,,,,,,,
,,,,,,,,,,,,,FF,,,,,,,,0.5845,,,,,,,,,,,,,,,,,,,,,,60fd03a3f22f9dd32bff5fa8,61036d7f810ea010637744ab,2021-07-30_12h40.40.156,Simcolourproject_2stim_asymm_v5,2020.2.10,Win32,60,61025ae37ef11b136ea224fe,,,,,,,,,2960,78,-66.5,1,0,0,response3disk,,5,45,-13.5,1,0,0,rectangle,45,-13.5,1,0,0,45,-13.5,1,0,0,1,133,293,46,1,,,,,,,,
,,,,,,,,,,,,,FF,,,,,,,,0.6165,,,,,,,,,,,,,,,,,,,,,,60fd03a3f22f9dd32bff5fa8,61036d7f810ea010637744ab,2021-07-30_12h40.40.156,Simcolourproject_2stim_asymm_v5,2020.2.10,Win32,60,61025ae37ef11b136ea224fe,,,,,,,,,3658,91,57.5,1,0,0,response1disk,,6,10,-4.5,1,0,0,rectangle,10,-4.5,1,0,0,10,-4.5,1,0,0,1,134,294,44,1,,,,,,,,
,,,,,,,,,,,,,FF,,,,,,,,0.6015,,,,,,,,,,,,,,,,,,,,,,60fd03a3f22f9dd32bff5fa8,61036d7f810ea010637744ab,2021-07-30_12h40.40.156,Simcolourproject_2stim_asymm_v5,2020.2.10,Win32,60,61025ae37ef11b136ea224fe,,,,,,,,,750,38,-84.5,1,0,0,response3disk,,4,-5,-7.5,1,0,0,rectangle,-5,-7.5,1,0,0,-5,-7.5,1,0,0,1,135,295,30,1,,,,,,,,
