key_resp.keys,key_resp.rt,key_resp_14.keys,key_resp_14.rt,key_resp_15.keys,key_resp_15.rt,key_resp_17.keys,key_resp_17.rt,key_resp_9.keys,key_resp_9.rt,key_resp_10.keys,key_resp_10.rt,practice_comparison,Ecc,mouse_5.x,mouse_5.y,mouse_5.leftButton,mouse_5.midButton,mouse_5.rightButton,mouse_5.clicked_name,pracsimilarity,response_time,mouse_10.x,mouse_10.y,mouse_10.leftButton,mouse_10.midButton,mouse_10.rightButton,mouse_10.clicked_name,mouse_7.x,mouse_7.y,mouse_7.leftButton,mouse_7.midButton,mouse_7.rightButton,mouse_6.x,mouse_6.y,mouse_6.leftButton,mouse_6.midButton,mouse_6.rightButton,duringprac.thisRepN,duringprac.thisTrialN,duringprac.thisN,duringprac.thisIndex,duringprac.ran,participant,session,date,expName,psychopyVersion,OS,frameRate,study_id,mouse_7.clicked_name,catchpracsimilarity,catch_response_time,catchnumberprac,catchtrialorderprac,mouse_6.clicked_name,key_resp_22.keys,key_resp_22.rt,realcomparison,mouse.x,mouse.y,mouse.leftButton,mouse.midButton,mouse.rightButton,mouse.clicked_name,Colour2,similarity,mouse_2.x,mouse_2.y,mouse_2.leftButton,mouse_2.midButton,mouse_2.rightButton,mouse_2.clicked_name,mouse_3.x,mouse_3.y,mouse_3.leftButton,mouse_3.midButton,mouse_3.rightButton,mouse_3.clicked_name,catchornah,catchsimilarity,catchnumber,catchtrialorder,catchRT,mouse_11.x,mouse_11.y,mouse_11.leftButton,mouse_11.midButton,mouse_11.rightButton,mouse_11.clicked_name,trials_2.thisRepN,trials_2.thisTrialN,trials_2.thisN,trials_2.thisIndex,trials_2.ran,Colour1
space,1.501,space,7.996,space,35.254,space,21.316,space,1.353,space,6.278,3,FF,26,60,1,0,0,response1disk_5,7,15.284,-2,-8,1,0,0,rectangle_8,-2,-8,1,0,0,-2,-8,1,0,0,0,0,0,5,1,60fd90280b7a39fc10749665,61036dcb1970c10567783625,2021-07-29_22h11.36.792,Simcolourproject_2stim_asymm_v5,2020.2.10,MacIntel,60,61025ae37ef11b136ea224fe,,,,,,,,,,,,,,,,,,,,,,,,,,,,,,,,,,,,,,,,,,,,,,
,,,,,,,,,,,,28,PF,38,75,1,0,0,response1disk_5,7,1.833,8,-3,1,0,0,rectangle_8,63,-44,1,0,0,0,-2,1,0,0,0,1,1,2,1,60fd90280b7a39fc10749665,61036dcb1970c10567783625,2021-07-29_22h11.36.792,Simcolourproject_2stim_asymm_v5,2020.2.10,MacIntel,60,61025ae37ef11b136ea224fe,response3disk_7,5,3.55,5,"[2,5]",rectangle_4,,,,,,,,,,,,,,,,,,,,,,,,,,,,,,,,,,,,,,,,
,,,,,,,,,,,,131,FF,29,-103,1,0,0,response3disk_5,4,7.25,-2,6,1,0,0,rectangle_8,-2,6,1,0,0,-2,6,1,0,0,0,2,2,0,1,60fd90280b7a39fc10749665,61036dcb1970c10567783625,2021-07-29_22h11.36.792,Simcolourproject_2stim_asymm_v5,2020.2.10,MacIntel,60,61025ae37ef11b136ea224fe,,,,,,,,,,,,,,,,,,,,,,,,,,,,,,,,,,,,,,,,,,,,,,
,,,,,,,,,,,,66,FF,-45,-71,1,0,0,response5disk_5,3,3.568,-14,4,1,0,0,rectangle_8,-14,4,1,0,0,-14,4,1,0,0,0,3,3,3,1,60fd90280b7a39fc10749665,61036dcb1970c10567783625,2021-07-29_22h11.36.792,Simcolourproject_2stim_asymm_v5,2020.2.10,MacIntel,60,61025ae37ef11b136ea224fe,,,,,,,,,,,,,,,,,,,,,,,,,,,,,,,,,,,,,,,,,,,,,,
,,,,,,,,,,,,29,PF,-48,74,1,0,0,response7disk_5,0,4.35,-15,4,1,0,0,rectangle_8,76,-38,1,0,0,-10,-1,1,0,0,0,4,4,6,1,60fd90280b7a39fc10749665,61036dcb1970c10567783625,2021-07-29_22h11.36.792,Simcolourproject_2stim_asymm_v5,2020.2.10,MacIntel,60,61025ae37ef11b136ea224fe,response3disk_7,5,1.966,5,"[2,5]",rectangle_4,,,,,,,,,,,,,,,,,,,,,,,,,,,,,,,,,,,,,,,,
,,,,,,,,,,,,125,PF,-78,-27,1,0,0,response5disk_5,2,1.85,2,0,1,0,0,rectangle_8,2,0,1,0,0,2,0,1,0,0,0,5,5,1,1,60fd90280b7a39fc10749665,61036dcb1970c10567783625,2021-07-29_22h11.36.792,Simcolourproject_2stim_asymm_v5,2020.2.10,MacIntel,60,61025ae37ef11b136ea224fe,,,,,,,,,,,,,,,,,,,,,,,,,,,,,,,,,,,,,,,,,,,,,,
,,,,,,,,,,,,63,PF,50,88,1,0,0,response1disk_5,7,2.5,-2,9,1,0,0,rectangle_8,-2,9,1,0,0,-2,9,1,0,0,0,6,6,4,1,60fd90280b7a39fc10749665,61036dcb1970c10567783625,2021-07-29_22h11.36.792,Simcolourproject_2stim_asymm_v5,2020.2.10,MacIntel,60,61025ae37ef11b136ea224fe,,,,,,,,,,,,,,,,,,,,,,,,,,,,,,,,,,,,,,,,,,,,,,
,,,,,,,,,,,,,FF,,,,,,,,2.749,,,,,,,,,,,,,,,,,,,,,,60fd90280b7a39fc10749665,61036dcb1970c10567783625,2021-07-29_22h11.36.792,Simcolourproject_2stim_asymm_v5,2020.2.10,MacIntel,60,61025ae37ef11b136ea224fe,,,,,,,space,3.762,199,-50,-88,1,0,0,response5disk,,3,7,10,1,0,0,rectangle,-59,95,1,0,0,response7disk_3,TRUE,0,0,"[2,134,51,145,47,320,152,309,1,60,262,283,181,45,14,267,20,251,82,267]",2.218,-12,-9,1,0,0,rectangle,0,0,0,99,1,
,,,,,,,,,,,,,FF,,,,,,,,6.248,,,,,,,,,,,,,,,,,,,,,,60fd90280b7a39fc10749665,61036dcb1970c10567783625,2021-07-29_22h11.36.792,Simcolourproject_2stim_asymm_v5,2020.2.10,MacIntel,60,61025ae37ef11b136ea224fe,,,,,,,,,3634,59,-23,1,0,0,response3disk,,5,-1,6,1,0,0,rectangle,-38,-70,1,0,0,response5disk_3,TRUE,3,3,"[2,134,51,145,47,320,152,309,1,60,262,283,181,45,14,267,20,251,82,267]",2.116,4,3,1,0,0,rectangle,0,1,1,122,1,
,,,,,,,,,,,,,FF,,,,,,,,6.199,,,,,,,,,,,,,,,,,,,,,,60fd90280b7a39fc10749665,61036dcb1970c10567783625,2021-07-29_22h11.36.792,Simcolourproject_2stim_asymm_v5,2020.2.10,MacIntel,60,61025ae37ef11b136ea224fe,,,,,,,,,725,80,-40,1,0,0,response3disk,,5,0,3,1,0,0,rectangle,0,3,1,0,0,,,,,,,0,3,1,0,0,,0,2,2,80,1,
,,,,,,,,,,,,,FF,,,,,,,,2.201,,,,,,,,,,,,,,,,,,,,,,60fd90280b7a39fc10749665,61036dcb1970c10567783625,2021-07-29_22h11.36.792,Simcolourproject_2stim_asymm_v5,2020.2.10,MacIntel,60,61025ae37ef11b136ea224fe,,,,,,,,,2818,94,36,1,0,0,response1disk,,6,-8,-10,1,0,0,rectangle,-8,-10,1,0,0,,,,,,,-8,-10,1,0,0,,0,3,3,156,1,
,,,,,,,,,,,,,FF,,,,,,,,1.367,,,,,,,,,,,,,,,,,,,,,,60fd90280b7a39fc10749665,61036dcb1970c10567783625,2021-07-29_22h11.36.792,Simcolourproject_2stim_asymm_v5,2020.2.10,MacIntel,60,61025ae37ef11b136ea224fe,,,,,,,,,3834,72,23,1,0,0,response1disk,,6,19,8,1,0,0,rectangle,19,8,1,0,0,,,,,,,19,8,1,0,0,,0,4,4,132,1,
,,,,,,,,,,,,,FF,,,,,,,,1.05,,,,,,,,,,,,,,,,,,,,,,60fd90280b7a39fc10749665,61036dcb1970c10567783625,2021-07-29_22h11.36.792,Simcolourproject_2stim_asymm_v5,2020.2.10,MacIntel,60,61025ae37ef11b136ea224fe,,,,,,,,,416,44,85,1,0,0,response1disk,,7,8,3,1,0,0,rectangle,8,3,1,0,0,,,,,,,8,3,1,0,0,,0,5,5,0,1,
,,,,,,,,,,,,,FF,,,,,,,,2.216,,,,,,,,,,,,,,,,,,,,,,60fd90280b7a39fc10749665,61036dcb1970c10567783625,2021-07-29_22h11.36.792,Simcolourproject_2stim_asymm_v5,2020.2.10,MacIntel,60,61025ae37ef11b136ea224fe,,,,,,,,,1702,67,38,1,0,0,response1disk,,6,-1,0,1,0,0,rectangle,-1,0,1,0,0,,,,,,,-1,0,1,0,0,,0,6,6,85,1,
,,,,,,,,,,,,,FF,,,,,,,,1.133,,,,,,,,,,,,,,,,,,,,,,60fd90280b7a39fc10749665,61036dcb1970c10567783625,2021-07-29_22h11.36.792,Simcolourproject_2stim_asymm_v5,2020.2.10,MacIntel,60,61025ae37ef11b136ea224fe,,,,,,,,,103,27,-63,1,0,0,response3disk,,4,9,-9,1,0,0,rectangle,9,-9,1,0,0,,,,,,,9,-9,1,0,0,,0,7,7,128,1,
,,,,,,,,,,,,,FF,,,,,,,,0.949,,,,,,,,,,,,,,,,,,,,,,60fd90280b7a39fc10749665,61036dcb1970c10567783625,2021-07-29_22h11.36.792,Simcolourproject_2stim_asymm_v5,2020.2.10,MacIntel,60,61025ae37ef11b136ea224fe,,,,,,,,,2809,56,70,1,0,0,response1disk,,7,16,0,1,0,0,rectangle,16,0,1,0,0,,,,,,,16,0,1,0,0,,0,8,8,153,1,
,,,,,,,,,,,,,FF,,,,,,,,0.715,,,,,,,,,,,,,,,,,,,,,,60fd90280b7a39fc10749665,61036dcb1970c10567783625,2021-07-29_22h11.36.792,Simcolourproject_2stim_asymm_v5,2020.2.10,MacIntel,60,61025ae37ef11b136ea224fe,,,,,,,,,1176,48,93,1,0,0,response1disk,,7,12,6,1,0,0,rectangle,12,6,1,0,0,,,,,,,12,6,1,0,0,,0,9,9,70,1,
,,,,,,,,,,,,,FF,,,,,,,,1.217,,,,,,,,,,,,,,,,,,,,,,60fd90280b7a39fc10749665,61036dcb1970c10567783625,2021-07-29_22h11.36.792,Simcolourproject_2stim_asymm_v5,2020.2.10,MacIntel,60,61025ae37ef11b136ea224fe,,,,,,,,,990,26,-72,1,0,0,response3disk,,4,6,6,1,0,0,rectangle,6,6,1,0,0,,,,,,,6,6,1,0,0,,0,10,10,146,1,
,,,,,,,,,,,,,FF,,,,,,,,2.551,,,,,,,,,,,,,,,,,,,,,,60fd90280b7a39fc10749665,61036dcb1970c10567783625,2021-07-29_22h11.36.792,Simcolourproject_2stim_asymm_v5,2020.2.10,MacIntel,60,61025ae37ef11b136ea224fe,,,,,,,,,1997,39,52,1,0,0,response1disk,,7,21,9,1,0,0,rectangle,21,9,1,0,0,,,,,,,21,9,1,0,0,,0,11,11,42,1,
,,,,,,,,,,,,,FF,,,,,,,,1.566,,,,,,,,,,,,,,,,,,,,,,60fd90280b7a39fc10749665,61036dcb1970c10567783625,2021-07-29_22h11.36.792,Simcolourproject_2stim_asymm_v5,2020.2.10,MacIntel,60,61025ae37ef11b136ea224fe,,,,,,,,,3281,46,-43,1,0,0,response3disk,,5,2,-5,1,0,0,rectangle,2,-5,1,0,0,,,,,,,2,-5,1,0,0,,0,12,12,96,1,
,,,,,,,,,,,,,FF,,,,,,,,2.85,,,,,,,,,,,,,,,,,,,,,,60fd90280b7a39fc10749665,61036dcb1970c10567783625,2021-07-29_22h11.36.792,Simcolourproject_2stim_asymm_v5,2020.2.10,MacIntel,60,61025ae37ef11b136ea224fe,,,,,,,,,2198,59,44,1,0,0,response1disk,,6,10,6,1,0,0,rectangle,32,71,1,0,0,response1disk_3,TRUE,7,7,"[2,134,51,145,47,320,152,309,1,60,262,283,181,45,14,267,20,251,82,267]",1.433,19,-6,1,0,0,rectangle,0,13,13,108,1,
,,,,,,,,,,,,,FF,,,,,,,,3.548,,,,,,,,,,,,,,,,,,,,,,60fd90280b7a39fc10749665,61036dcb1970c10567783625,2021-07-29_22h11.36.792,Simcolourproject_2stim_asymm_v5,2020.2.10,MacIntel,60,61025ae37ef11b136ea224fe,,,,,,,,,3222,67,43,1,0,0,response1disk,,6,0,-7,1,0,0,rectangle,0,-7,1,0,0,,,,,,,0,-7,1,0,0,,0,14,14,38,1,
,,,,,,,,,,,,,FF,,,,,,,,2.783,,,,,,,,,,,,,,,,,,,,,,60fd90280b7a39fc10749665,61036dcb1970c10567783625,2021-07-29_22h11.36.792,Simcolourproject_2stim_asymm_v5,2020.2.10,MacIntel,60,61025ae37ef11b136ea224fe,,,,,,,,,3107,-60,-24,1,0,0,response5disk,,2,8,2,1,0,0,rectangle,8,2,1,0,0,,,,,,,8,2,1,0,0,,0,15,15,151,1,
,,,,,,,,,,,,,FF,,,,,,,,2.216,,,,,,,,,,,,,,,,,,,,,,60fd90280b7a39fc10749665,61036dcb1970c10567783625,2021-07-29_22h11.36.792,Simcolourproject_2stim_asymm_v5,2020.2.10,MacIntel,60,61025ae37ef11b136ea224fe,,,,,,,,,1328,60,28,1,0,0,response1disk,,6,2,5,1,0,0,rectangle,2,5,1,0,0,,,,,,,2,5,1,0,0,,0,16,16,48,1,
,,,,,,,,,,,,,FF,,,,,,,,1.982,,,,,,,,,,,,,,,,,,,,,,60fd90280b7a39fc10749665,61036dcb1970c10567783625,2021-07-29_22h11.36.792,Simcolourproject_2stim_asymm_v5,2020.2.10,MacIntel,60,61025ae37ef11b136ea224fe,,,,,,,,,4037,45,25,1,0,0,response1disk,,6,-1,-2,1,0,0,rectangle,-1,-2,1,0,0,,,,,,,-1,-2,1,0,0,,0,17,17,43,1,
,,,,,,,,,,,,,FF,,,,,,,,1.399,,,,,,,,,,,,,,,,,,,,,,60fd90280b7a39fc10749665,61036dcb1970c10567783625,2021-07-29_22h11.36.792,Simcolourproject_2stim_asymm_v5,2020.2.10,MacIntel,60,61025ae37ef11b136ea224fe,,,,,,,,,4201,-52,28,1,0,0,response7disk,,1,13,0,1,0,0,rectangle,13,0,1,0,0,,,,,,,13,0,1,0,0,,0,18,18,67,1,
,,,,,,,,,,,,,FF,,,,,,,,4.217,,,,,,,,,,,,,,,,,,,,,,60fd90280b7a39fc10749665,61036dcb1970c10567783625,2021-07-29_22h11.36.792,Simcolourproject_2stim_asymm_v5,2020.2.10,MacIntel,60,61025ae37ef11b136ea224fe,,,,,,,,,3633,-64,-81,1,0,0,response5disk,,3,4,11,1,0,0,rectangle,73,-32,1,0,0,response3disk_3,TRUE,5,5,"[2,134,51,145,47,320,152,309,1,60,262,283,181,45,14,267,20,251,82,267]",1.465,5,-12,1,0,0,rectangle,0,19,19,101,1,
,,,,,,,,,,,,,FF,,,,,,,,3.499,,,,,,,,,,,,,,,,,,,,,,60fd90280b7a39fc10749665,61036dcb1970c10567783625,2021-07-29_22h11.36.792,Simcolourproject_2stim_asymm_v5,2020.2.10,MacIntel,60,61025ae37ef11b136ea224fe,,,,,,,,,3692,31,-46,1,0,0,response3disk,,4,1,-4,1,0,0,rectangle,1,-4,1,0,0,,,,,,,1,-4,1,0,0,,0,20,20,104,1,
,,,,,,,,,,,,,FF,,,,,,,,4.217,,,,,,,,,,,,,,,,,,,,,,60fd90280b7a39fc10749665,61036dcb1970c10567783625,2021-07-29_22h11.36.792,Simcolourproject_2stim_asymm_v5,2020.2.10,MacIntel,60,61025ae37ef11b136ea224fe,,,,,,,,,1652,80,-31,1,0,0,response3disk,,5,-4,10,1,0,0,rectangle,-4,10,1,0,0,,,,,,,-4,10,1,0,0,,0,21,21,136,1,
,,,,,,,,,,,,,FF,,,,,,,,1.517,,,,,,,,,,,,,,,,,,,,,,60fd90280b7a39fc10749665,61036dcb1970c10567783625,2021-07-29_22h11.36.792,Simcolourproject_2stim_asymm_v5,2020.2.10,MacIntel,60,61025ae37ef11b136ea224fe,,,,,,,,,3482,-33,-55,1,0,0,response5disk,,3,-9,0,1,0,0,rectangle,-9,0,1,0,0,,,,,,,-9,0,1,0,0,,0,22,22,23,1,
,,,,,,,,,,,,,FF,,,,,,,,3.916,,,,,,,,,,,,,,,,,,,,,,60fd90280b7a39fc10749665,61036dcb1970c10567783625,2021-07-29_22h11.36.792,Simcolourproject_2stim_asymm_v5,2020.2.10,MacIntel,60,61025ae37ef11b136ea224fe,,,,,,,,,2819,25,-52,1,0,0,response3disk,,4,-3,8,1,0,0,rectangle,-3,8,1,0,0,,,,,,,-3,8,1,0,0,,0,23,23,8,1,
,,,,,,,,,,,,,FF,,,,,,,,0.866,,,,,,,,,,,,,,,,,,,,,,60fd90280b7a39fc10749665,61036dcb1970c10567783625,2021-07-29_22h11.36.792,Simcolourproject_2stim_asymm_v5,2020.2.10,MacIntel,60,61025ae37ef11b136ea224fe,,,,,,,,,3290,-31,80,1,0,0,response7disk,,0,-2,-4,1,0,0,rectangle,-2,-4,1,0,0,,,,,,,-2,-4,1,0,0,,0,24,24,71,1,
,,,,,,,,,,,,,FF,,,,,,,,1.7,,,,,,,,,,,,,,,,,,,,,,60fd90280b7a39fc10749665,61036dcb1970c10567783625,2021-07-29_22h11.36.792,Simcolourproject_2stim_asymm_v5,2020.2.10,MacIntel,60,61025ae37ef11b136ea224fe,,,,,,,,,4365,-54,60,1,0,0,response7disk,,0,0,-14,1,0,0,rectangle,0,-14,1,0,0,,,,,,,0,-14,1,0,0,,0,25,25,29,1,
,,,,,,,,,,,,,FF,,,,,,,,1.883,,,,,,,,,,,,,,,,,,,,,,60fd90280b7a39fc10749665,61036dcb1970c10567783625,2021-07-29_22h11.36.792,Simcolourproject_2stim_asymm_v5,2020.2.10,MacIntel,60,61025ae37ef11b136ea224fe,,,,,,,,,1725,87,28,1,0,0,response1disk,,6,-5,-1,1,0,0,rectangle,-5,-1,1,0,0,,,,,,,-5,-1,1,0,0,,0,26,26,147,1,
,,,,,,,,,,,,,FF,,,,,,,,1.15,,,,,,,,,,,,,,,,,,,,,,60fd90280b7a39fc10749665,61036dcb1970c10567783625,2021-07-29_22h11.36.792,Simcolourproject_2stim_asymm_v5,2020.2.10,MacIntel,60,61025ae37ef11b136ea224fe,,,,,,,,,81,-78,33,1,0,0,response7disk,,1,-1,-3,1,0,0,rectangle,-1,-3,1,0,0,,,,,,,-1,-3,1,0,0,,0,27,27,129,1,
,,,,,,,,,,,,,FF,,,,,,,,1.033,,,,,,,,,,,,,,,,,,,,,,60fd90280b7a39fc10749665,61036dcb1970c10567783625,2021-07-29_22h11.36.792,Simcolourproject_2stim_asymm_v5,2020.2.10,MacIntel,60,61025ae37ef11b136ea224fe,,,,,,,,,1009,69,36,1,0,0,response1disk,,6,-2,6,1,0,0,rectangle,-2,6,1,0,0,,,,,,,-2,6,1,0,0,,0,28,28,58,1,
,,,,,,,,,,,,,FF,,,,,,,,0.866,,,,,,,,,,,,,,,,,,,,,,60fd90280b7a39fc10749665,61036dcb1970c10567783625,2021-07-29_22h11.36.792,Simcolourproject_2stim_asymm_v5,2020.2.10,MacIntel,60,61025ae37ef11b136ea224fe,,,,,,,,,801,-40,98,1,0,0,response7disk,,0,-6,3,1,0,0,rectangle,-6,3,1,0,0,,,,,,,-6,3,1,0,0,,0,29,29,16,1,
,,,,,,,,,,,,,FF,,,,,,,,2.169,,,,,,,,,,,,,,,,,,,,,,60fd90280b7a39fc10749665,61036dcb1970c10567783625,2021-07-29_22h11.36.792,Simcolourproject_2stim_asymm_v5,2020.2.10,MacIntel,60,61025ae37ef11b136ea224fe,,,,,,,,,4271,59,103,1,0,0,response1disk,,7,-3,-6,1,0,0,rectangle,-3,-6,1,0,0,,,,,,,-3,-6,1,0,0,,0,30,30,6,1,
,,,,,,,,,,,,,FF,,,,,,,,4.566,,,,,,,,,,,,,,,,,,,,,,60fd90280b7a39fc10749665,61036dcb1970c10567783625,2021-07-29_22h11.36.792,Simcolourproject_2stim_asymm_v5,2020.2.10,MacIntel,60,61025ae37ef11b136ea224fe,,,,,,,,,3070,77,-41,1,0,0,response3disk,,5,-5,4,1,0,0,rectangle,-5,4,1,0,0,,,,,,,-5,4,1,0,0,,0,31,31,120,1,
,,,,,,,,,,,,,FF,,,,,,,,1.949,,,,,,,,,,,,,,,,,,,,,,60fd90280b7a39fc10749665,61036dcb1970c10567783625,2021-07-29_22h11.36.792,Simcolourproject_2stim_asymm_v5,2020.2.10,MacIntel,60,61025ae37ef11b136ea224fe,,,,,,,,,3611,54,-36,1,0,0,response3disk,,5,-8,0,1,0,0,rectangle,-8,0,1,0,0,,,,,,,-8,0,1,0,0,,0,32,32,90,1,
,,,,,,,,,,,,,FF,,,,,,,,3.366,,,,,,,,,,,,,,,,,,,,,,60fd90280b7a39fc10749665,61036dcb1970c10567783625,2021-07-29_22h11.36.792,Simcolourproject_2stim_asymm_v5,2020.2.10,MacIntel,60,61025ae37ef11b136ea224fe,,,,,,,,,1988,63,90,1,0,0,response1disk,,7,-8,2,1,0,0,rectangle,-8,2,1,0,0,,,,,,,-8,2,1,0,0,,0,33,33,78,1,
,,,,,,,,,,,,,FF,,,,,,,,1.466,,,,,,,,,,,,,,,,,,,,,,60fd90280b7a39fc10749665,61036dcb1970c10567783625,2021-07-29_22h11.36.792,Simcolourproject_2stim_asymm_v5,2020.2.10,MacIntel,60,61025ae37ef11b136ea224fe,,,,,,,,,3144,-83,-31,1,0,0,response5disk,,2,-15,5,1,0,0,rectangle,-15,5,1,0,0,,,,,,,-15,5,1,0,0,,0,34,34,141,1,
,,,,,,,,,,,,,FF,,,,,,,,0.966,,,,,,,,,,,,,,,,,,,,,,60fd90280b7a39fc10749665,61036dcb1970c10567783625,2021-07-29_22h11.36.792,Simcolourproject_2stim_asymm_v5,2020.2.10,MacIntel,60,61025ae37ef11b136ea224fe,,,,,,,,,530,-79,-31,1,0,0,response5disk,,2,-13,-12,1,0,0,rectangle,-13,-12,1,0,0,,,,,,,-13,-12,1,0,0,,0,35,35,20,1,
,,,,,,,,,,,,,FF,,,,,,,,2.65,,,,,,,,,,,,,,,,,,,,,,60fd90280b7a39fc10749665,61036dcb1970c10567783625,2021-07-29_22h11.36.792,Simcolourproject_2stim_asymm_v5,2020.2.10,MacIntel,60,61025ae37ef11b136ea224fe,,,,,,,,,1209,25,-45,1,0,0,response3disk,,4,-4,1,1,0,0,rectangle,-4,1,1,0,0,,,,,,,-4,1,1,0,0,,0,36,36,40,1,
,,,,,,,,,,,,,FF,,,,,,,,2.116,,,,,,,,,,,,,,,,,,,,,,60fd90280b7a39fc10749665,61036dcb1970c10567783625,2021-07-29_22h11.36.792,Simcolourproject_2stim_asymm_v5,2020.2.10,MacIntel,60,61025ae37ef11b136ea224fe,,,,,,,,,1605,-93,-30,1,0,0,response5disk,,2,-11,11,1,0,0,rectangle,-11,11,1,0,0,,,,,,,-11,11,1,0,0,,0,37,37,50,1,
,,,,,,,,,,,,,FF,,,,,,,,0.817,,,,,,,,,,,,,,,,,,,,,,60fd90280b7a39fc10749665,61036dcb1970c10567783625,2021-07-29_22h11.36.792,Simcolourproject_2stim_asymm_v5,2020.2.10,MacIntel,60,61025ae37ef11b136ea224fe,,,,,,,,,1672,-80,-34,1,0,0,response5disk,,2,16,10,1,0,0,rectangle,16,10,1,0,0,,,,,,,16,10,1,0,0,,0,38,38,115,1,
,,,,,,,,,,,,,FF,,,,,,,,1.133,,,,,,,,,,,,,,,,,,,,,,60fd90280b7a39fc10749665,61036dcb1970c10567783625,2021-07-29_22h11.36.792,Simcolourproject_2stim_asymm_v5,2020.2.10,MacIntel,60,61025ae37ef11b136ea224fe,,,,,,,,,632,-70,48,1,0,0,response7disk,,1,-14,0,1,0,0,rectangle,-14,0,1,0,0,,,,,,,-14,0,1,0,0,,0,39,39,88,1,
,,,,,,,,,,,,,FF,,,,,,,,1.45,,,,,,,,,,,,,,,,,,,,,,60fd90280b7a39fc10749665,61036dcb1970c10567783625,2021-07-29_22h11.36.792,Simcolourproject_2stim_asymm_v5,2020.2.10,MacIntel,60,61025ae37ef11b136ea224fe,,,,,,,,,989,-29,-66,1,0,0,response5disk,,3,-13,5,1,0,0,rectangle,-13,5,1,0,0,,,,,,,-13,5,1,0,0,,0,40,40,84,1,
,,,,,,,,,,,,,FF,,,,,,,,2.65,,,,,,,,,,,,,,,,,,,,,,60fd90280b7a39fc10749665,61036dcb1970c10567783625,2021-07-29_22h11.36.792,Simcolourproject_2stim_asymm_v5,2020.2.10,MacIntel,60,61025ae37ef11b136ea224fe,,,,,,,,,3581,48,68,1,0,0,response1disk,,7,7,9,1,0,0,rectangle,7,9,1,0,0,,,,,,,7,9,1,0,0,,0,41,41,5,1,
,,,,,,,,,,,,,FF,,,,,,,,1.335,,,,,,,,,,,,,,,,,,,,,,60fd90280b7a39fc10749665,61036dcb1970c10567783625,2021-07-29_22h11.36.792,Simcolourproject_2stim_asymm_v5,2020.2.10,MacIntel,60,61025ae37ef11b136ea224fe,,,,,,,,,4337,-72,45,1,0,0,response7disk,,1,-7,-1,1,0,0,rectangle,-7,-1,1,0,0,,,,,,,-7,-1,1,0,0,,0,42,42,17,1,
,,,,,,,,,,,,,FF,,,,,,,,2.934,,,,,,,,,,,,,,,,,,,,,,60fd90280b7a39fc10749665,61036dcb1970c10567783625,2021-07-29_22h11.36.792,Simcolourproject_2stim_asymm_v5,2020.2.10,MacIntel,60,61025ae37ef11b136ea224fe,,,,,,,,,2045,-55,-82,1,0,0,response5disk,,3,-4,7,1,0,0,rectangle,-4,7,1,0,0,,,,,,,-4,7,1,0,0,,0,43,43,26,1,
,,,,,,,,,,,,,FF,,,,,,,,1.634,,,,,,,,,,,,,,,,,,,,,,60fd90280b7a39fc10749665,61036dcb1970c10567783625,2021-07-29_22h11.36.792,Simcolourproject_2stim_asymm_v5,2020.2.10,MacIntel,60,61025ae37ef11b136ea224fe,,,,,,,,,2214,37,-72,1,0,0,response3disk,,4,-3,1,1,0,0,rectangle,-30,-70,1,0,0,response5disk_3,TRUE,3,3,"[2,134,51,145,47,320,152,309,1,60,262,283,181,45,14,267,20,251,82,267]",2.482,-10,-1,1,0,0,rectangle,0,44,44,1,1,
,,,,,,,,,,,,,FF,,,,,,,,2.516,,,,,,,,,,,,,,,,,,,,,,60fd90280b7a39fc10749665,61036dcb1970c10567783625,2021-07-29_22h11.36.792,Simcolourproject_2stim_asymm_v5,2020.2.10,MacIntel,60,61025ae37ef11b136ea224fe,,,,,,,,,380,-33,-49,1,0,0,response5disk,,3,-23,-4,1,0,0,rectangle,-23,-4,1,0,0,,,,,,,-23,-4,1,0,0,,0,45,45,86,1,
,,,,,,,,,,,,,FF,,,,,,,,1.233,,,,,,,,,,,,,,,,,,,,,,60fd90280b7a39fc10749665,61036dcb1970c10567783625,2021-07-29_22h11.36.792,Simcolourproject_2stim_asymm_v5,2020.2.10,MacIntel,60,61025ae37ef11b136ea224fe,,,,,,,,,4025,64,-36,1,0,0,response3disk,,5,-3,8,1,0,0,rectangle,-93,47,1,0,0,response7disk_3,TRUE,1,1,"[2,134,51,145,47,320,152,309,1,60,262,283,181,45,14,267,20,251,82,267]",1.883,-14,-11,1,0,0,rectangle,0,46,46,148,1,
,,,,,,,,,,,,,FF,,,,,,,,1.883,,,,,,,,,,,,,,,,,,,,,,60fd90280b7a39fc10749665,61036dcb1970c10567783625,2021-07-29_22h11.36.792,Simcolourproject_2stim_asymm_v5,2020.2.10,MacIntel,60,61025ae37ef11b136ea224fe,,,,,,,,,1007,-33,-62,1,0,0,response5disk,,3,-13,-2,1,0,0,rectangle,-13,-2,1,0,0,,,,,,,-13,-2,1,0,0,,0,47,47,18,1,
,,,,,,,,,,,,,FF,,,,,,,,1.116,,,,,,,,,,,,,,,,,,,,,,60fd90280b7a39fc10749665,61036dcb1970c10567783625,2021-07-29_22h11.36.792,Simcolourproject_2stim_asymm_v5,2020.2.10,MacIntel,60,61025ae37ef11b136ea224fe,,,,,,,,,4333,45,92,1,0,0,response1disk,,7,-1,-3,1,0,0,rectangle,-1,-3,1,0,0,,,,,,,-1,-3,1,0,0,,0,48,48,59,1,
,,,,,,,,,,,,,FF,,,,,,,,1.098,,,,,,,,,,,,,,,,,,,,,,60fd90280b7a39fc10749665,61036dcb1970c10567783625,2021-07-29_22h11.36.792,Simcolourproject_2stim_asymm_v5,2020.2.10,MacIntel,60,61025ae37ef11b136ea224fe,,,,,,,,,1459,-71,33,1,0,0,response7disk,,1,0,5,1,0,0,rectangle,0,5,1,0,0,,,,,,,0,5,1,0,0,,0,49,49,31,1,
,,,,,,,,,,,,,FF,,,,,,,,2.383,,,,,,,,,,,,,,,,,,,,,,60fd90280b7a39fc10749665,61036dcb1970c10567783625,2021-07-29_22h11.36.792,Simcolourproject_2stim_asymm_v5,2020.2.10,MacIntel,60,61025ae37ef11b136ea224fe,,,,,,,,,791,-53,-74,1,0,0,response5disk,,3,-6,-7,1,0,0,rectangle,79,-46,1,0,0,response3disk_3,TRUE,5,5,"[2,134,51,145,47,320,152,309,1,60,262,283,181,45,14,267,20,251,82,267]",1.815,-1,-10,1,0,0,rectangle,0,50,50,21,1,
,,,,,,,,,,,,,FF,,,,,,,,1.949,,,,,,,,,,,,,,,,,,,,,,60fd90280b7a39fc10749665,61036dcb1970c10567783625,2021-07-29_22h11.36.792,Simcolourproject_2stim_asymm_v5,2020.2.10,MacIntel,60,61025ae37ef11b136ea224fe,,,,,,,,,4213,53,76,1,0,0,response1disk,,7,3,2,1,0,0,rectangle,3,2,1,0,0,,,,,,,3,2,1,0,0,,0,51,51,63,1,
,,,,,,,,,,,,,FF,,,,,,,,1.084,,,,,,,,,,,,,,,,,,,,,,60fd90280b7a39fc10749665,61036dcb1970c10567783625,2021-07-29_22h11.36.792,Simcolourproject_2stim_asymm_v5,2020.2.10,MacIntel,60,61025ae37ef11b136ea224fe,,,,,,,,,1551,69,-33,1,0,0,response3disk,,5,17,-14,1,0,0,rectangle,17,-14,1,0,0,,,,,,,17,-14,1,0,0,,0,52,52,94,1,
,,,,,,,,,,,,,FF,,,,,,,,1.101,,,,,,,,,,,,,,,,,,,,,,60fd90280b7a39fc10749665,61036dcb1970c10567783625,2021-07-29_22h11.36.792,Simcolourproject_2stim_asymm_v5,2020.2.10,MacIntel,60,61025ae37ef11b136ea224fe,,,,,,,,,1335,74,36,1,0,0,response1disk,,6,-3,9,1,0,0,rectangle,-3,9,1,0,0,,,,,,,-3,9,1,0,0,,0,53,53,95,1,
,,,,,,,,,,,,,FF,,,,,,,,1.417,,,,,,,,,,,,,,,,,,,,,,60fd90280b7a39fc10749665,61036dcb1970c10567783625,2021-07-29_22h11.36.792,Simcolourproject_2stim_asymm_v5,2020.2.10,MacIntel,60,61025ae37ef11b136ea224fe,,,,,,,,,3948,-47,-55,1,0,0,response5disk,,3,-15,-2,1,0,0,rectangle,-15,-2,1,0,0,,,,,,,-15,-2,1,0,0,,0,54,54,117,1,
,,,,,,,,,,,,,FF,,,,,,,,1.733,,,,,,,,,,,,,,,,,,,,,,60fd90280b7a39fc10749665,61036dcb1970c10567783625,2021-07-29_22h11.36.792,Simcolourproject_2stim_asymm_v5,2020.2.10,MacIntel,60,61025ae37ef11b136ea224fe,,,,,,,,,2740,70,24,1,0,0,response1disk,,6,-10,2,1,0,0,rectangle,-10,2,1,0,0,,,,,,,-10,2,1,0,0,,0,55,55,76,1,
,,,,,,,,,,,,,FF,,,,,,,,1.833,,,,,,,,,,,,,,,,,,,,,,60fd90280b7a39fc10749665,61036dcb1970c10567783625,2021-07-29_22h11.36.792,Simcolourproject_2stim_asymm_v5,2020.2.10,MacIntel,60,61025ae37ef11b136ea224fe,,,,,,,,,650,21,-60,1,0,0,response3disk,,4,9,7,1,0,0,rectangle,9,7,1,0,0,,,,,,,9,7,1,0,0,,0,56,56,11,1,
,,,,,,,,,,,,,FF,,,,,,,,1.483,,,,,,,,,,,,,,,,,,,,,,60fd90280b7a39fc10749665,61036dcb1970c10567783625,2021-07-29_22h11.36.792,Simcolourproject_2stim_asymm_v5,2020.2.10,MacIntel,60,61025ae37ef11b136ea224fe,,,,,,,,,865,107,17,1,0,0,response1disk,,6,-17,-10,1,0,0,rectangle,-17,-10,1,0,0,,,,,,,-17,-10,1,0,0,,0,57,57,89,1,
,,,,,,,,,,,,,FF,,,,,,,,1.666,,,,,,,,,,,,,,,,,,,,,,60fd90280b7a39fc10749665,61036dcb1970c10567783625,2021-07-29_22h11.36.792,Simcolourproject_2stim_asymm_v5,2020.2.10,MacIntel,60,61025ae37ef11b136ea224fe,,,,,,,,,3548,20,-78,1,0,0,response3disk,,4,-12,-3,1,0,0,rectangle,-12,-3,1,0,0,,,,,,,-12,-3,1,0,0,,0,58,58,77,1,
,,,,,,,,,,,,,FF,,,,,,,,1.033,,,,,,,,,,,,,,,,,,,,,,60fd90280b7a39fc10749665,61036dcb1970c10567783625,2021-07-29_22h11.36.792,Simcolourproject_2stim_asymm_v5,2020.2.10,MacIntel,60,61025ae37ef11b136ea224fe,,,,,,,,,2505,34,59,1,0,0,response1disk,,7,0,5,1,0,0,rectangle,81,-30,1,0,0,response3disk_3,TRUE,5,5,"[2,134,51,145,47,320,152,309,1,60,262,283,181,45,14,267,20,251,82,267]",1.499,4,-10,1,0,0,rectangle,0,59,59,109,1,
,,,,,,,,,,,,,FF,,,,,,,,2.567,,,,,,,,,,,,,,,,,,,,,,60fd90280b7a39fc10749665,61036dcb1970c10567783625,2021-07-29_22h11.36.792,Simcolourproject_2stim_asymm_v5,2020.2.10,MacIntel,60,61025ae37ef11b136ea224fe,,,,,,,,,2623,67,30,1,0,0,response1disk,,6,8,7,1,0,0,rectangle,8,7,1,0,0,,,,,,,8,7,1,0,0,,0,60,60,12,1,
,,,,,,,,,,,,,FF,,,,,,,,1.283,,,,,,,,,,,,,,,,,,,,,,60fd90280b7a39fc10749665,61036dcb1970c10567783625,2021-07-29_22h11.36.792,Simcolourproject_2stim_asymm_v5,2020.2.10,MacIntel,60,61025ae37ef11b136ea224fe,,,,,,,,,3259,-74,-23,1,0,0,response5disk,,2,-7,5,1,0,0,rectangle,-7,5,1,0,0,,,,,,,-7,5,1,0,0,,0,61,61,142,1,
,,,,,,,,,,,,,FF,,,,,,,,1.9,,,,,,,,,,,,,,,,,,,,,,60fd90280b7a39fc10749665,61036dcb1970c10567783625,2021-07-29_22h11.36.792,Simcolourproject_2stim_asymm_v5,2020.2.10,MacIntel,60,61025ae37ef11b136ea224fe,,,,,,,,,2695,63,-27,1,0,0,response3disk,,5,-4,-9,1,0,0,rectangle,-4,-9,1,0,0,,,,,,,-4,-9,1,0,0,,0,62,62,124,1,
,,,,,,,,,,,,,FF,,,,,,,,1.066,,,,,,,,,,,,,,,,,,,,,,60fd90280b7a39fc10749665,61036dcb1970c10567783625,2021-07-29_22h11.36.792,Simcolourproject_2stim_asymm_v5,2020.2.10,MacIntel,60,61025ae37ef11b136ea224fe,,,,,,,,,509,58,74,1,0,0,response1disk,,7,-3,-7,1,0,0,rectangle,-3,-7,1,0,0,,,,,,,-3,-7,1,0,0,,0,63,63,87,1,
,,,,,,,,,,,,,FF,,,,,,,,1.316,,,,,,,,,,,,,,,,,,,,,,60fd90280b7a39fc10749665,61036dcb1970c10567783625,2021-07-29_22h11.36.792,Simcolourproject_2stim_asymm_v5,2020.2.10,MacIntel,60,61025ae37ef11b136ea224fe,,,,,,,,,1877,73,35,1,0,0,response1disk,,6,4,-5,1,0,0,rectangle,4,-5,1,0,0,,,,,,,4,-5,1,0,0,,0,64,64,7,1,
,,,,,,,,,,,,,FF,,,,,,,,3.083,,,,,,,,,,,,,,,,,,,,,,60fd90280b7a39fc10749665,61036dcb1970c10567783625,2021-07-29_22h11.36.792,Simcolourproject_2stim_asymm_v5,2020.2.10,MacIntel,60,61025ae37ef11b136ea224fe,,,,,,,,,4017,98,-43,1,0,0,response3disk,,5,18,0,1,0,0,rectangle,18,0,1,0,0,,,,,,,18,0,1,0,0,,0,65,65,72,1,
,,,,,,,,,,,,,FF,,,,,,,,1.966,,,,,,,,,,,,,,,,,,,,,,60fd90280b7a39fc10749665,61036dcb1970c10567783625,2021-07-29_22h11.36.792,Simcolourproject_2stim_asymm_v5,2020.2.10,MacIntel,60,61025ae37ef11b136ea224fe,,,,,,,,,29,67,33,1,0,0,response1disk,,6,7,11,1,0,0,rectangle,7,11,1,0,0,,,,,,,7,11,1,0,0,,0,66,66,110,1,
,,,,,,,,,,,,,FF,,,,,,,,1.284,,,,,,,,,,,,,,,,,,,,,,60fd90280b7a39fc10749665,61036dcb1970c10567783625,2021-07-29_22h11.36.792,Simcolourproject_2stim_asymm_v5,2020.2.10,MacIntel,60,61025ae37ef11b136ea224fe,,,,,,,,,698,22,-55,1,0,0,response3disk,,4,1,-6,1,0,0,rectangle,1,-6,1,0,0,,,,,,,1,-6,1,0,0,,0,67,67,102,1,
,,,,,,,,,,,,,FF,,,,,,,,1.233,,,,,,,,,,,,,,,,,,,,,,60fd90280b7a39fc10749665,61036dcb1970c10567783625,2021-07-29_22h11.36.792,Simcolourproject_2stim_asymm_v5,2020.2.10,MacIntel,60,61025ae37ef11b136ea224fe,,,,,,,,,2381,109,-31,1,0,0,response3disk,,5,7,4,1,0,0,rectangle,7,4,1,0,0,,,,,,,7,4,1,0,0,,0,68,68,112,1,
,,,,,,,,,,,,,FF,,,,,,,,3.816,,,,,,,,,,,,,,,,,,,,,,60fd90280b7a39fc10749665,61036dcb1970c10567783625,2021-07-29_22h11.36.792,Simcolourproject_2stim_asymm_v5,2020.2.10,MacIntel,60,61025ae37ef11b136ea224fe,,,,,,,,,2744,72,-36,1,0,0,response3disk,,5,12,-17,1,0,0,rectangle,12,-17,1,0,0,,,,,,,12,-17,1,0,0,,0,69,69,135,1,
,,,,,,,,,,,,,FF,,,,,,,,1.632,,,,,,,,,,,,,,,,,,,,,,60fd90280b7a39fc10749665,61036dcb1970c10567783625,2021-07-29_22h11.36.792,Simcolourproject_2stim_asymm_v5,2020.2.10,MacIntel,60,61025ae37ef11b136ea224fe,,,,,,,,,1407,41,-53,1,0,0,response3disk,,4,5,10,1,0,0,rectangle,5,10,1,0,0,,,,,,,5,10,1,0,0,,0,70,70,15,1,
,,,,,,,,,,,,,FF,,,,,,,,0.884,,,,,,,,,,,,,,,,,,,,,,60fd90280b7a39fc10749665,61036dcb1970c10567783625,2021-07-29_22h11.36.792,Simcolourproject_2stim_asymm_v5,2020.2.10,MacIntel,60,61025ae37ef11b136ea224fe,,,,,,,,,1882,90,-33,1,0,0,response3disk,,5,-2,4,1,0,0,rectangle,-2,4,1,0,0,,,,,,,-2,4,1,0,0,,0,71,71,75,1,
,,,,,,,,,,,,,FF,,,,,,,,1.15,,,,,,,,,,,,,,,,,,,,,,60fd90280b7a39fc10749665,61036dcb1970c10567783625,2021-07-29_22h11.36.792,Simcolourproject_2stim_asymm_v5,2020.2.10,MacIntel,60,61025ae37ef11b136ea224fe,,,,,,,,,2012,95,56,1,0,0,response1disk,,6,-21,-5,1,0,0,rectangle,-21,-5,1,0,0,,,,,,,-21,-5,1,0,0,,0,72,72,69,1,
,,,,,,,,,,,,,FF,,,,,,,,1.016,,,,,,,,,,,,,,,,,,,,,,60fd90280b7a39fc10749665,61036dcb1970c10567783625,2021-07-29_22h11.36.792,Simcolourproject_2stim_asymm_v5,2020.2.10,MacIntel,60,61025ae37ef11b136ea224fe,,,,,,,,,2488,26,-75,1,0,0,response3disk,,4,4,6,1,0,0,rectangle,4,6,1,0,0,,,,,,,4,6,1,0,0,,0,73,73,53,1,
,,,,,,,,,,,,,FF,,,,,,,,1.266,,,,,,,,,,,,,,,,,,,,,,60fd90280b7a39fc10749665,61036dcb1970c10567783625,2021-07-29_22h11.36.792,Simcolourproject_2stim_asymm_v5,2020.2.10,MacIntel,60,61025ae37ef11b136ea224fe,,,,,,,,,3196,-78,-44,1,0,0,response5disk,,2,2,5,1,0,0,rectangle,2,5,1,0,0,,,,,,,2,5,1,0,0,,0,74,74,36,1,
,,,,,,,,,,,,,FF,,,,,,,,1.65,,,,,,,,,,,,,,,,,,,,,,60fd90280b7a39fc10749665,61036dcb1970c10567783625,2021-07-29_22h11.36.792,Simcolourproject_2stim_asymm_v5,2020.2.10,MacIntel,60,61025ae37ef11b136ea224fe,,,,,,,,,3652,104,-44,1,0,0,response3disk,,5,-7,-17,1,0,0,rectangle,-7,-17,1,0,0,,,,,,,-7,-17,1,0,0,,0,75,75,119,1,
,,,,,,,,,,,,,FF,,,,,,,,1.534,,,,,,,,,,,,,,,,,,,,,,60fd90280b7a39fc10749665,61036dcb1970c10567783625,2021-07-29_22h11.36.792,Simcolourproject_2stim_asymm_v5,2020.2.10,MacIntel,60,61025ae37ef11b136ea224fe,,,,,,,,,3062,84,-27,1,0,0,response3disk,,5,17,-6,1,0,0,rectangle,17,-6,1,0,0,,,,,,,17,-6,1,0,0,,0,76,76,51,1,
,,,,,,,,,,,,,FF,,,,,,,,2.033,,,,,,,,,,,,,,,,,,,,,,60fd90280b7a39fc10749665,61036dcb1970c10567783625,2021-07-29_22h11.36.792,Simcolourproject_2stim_asymm_v5,2020.2.10,MacIntel,60,61025ae37ef11b136ea224fe,,,,,,,,,3238,-72,-37,1,0,0,response5disk,,2,-14,-7,1,0,0,rectangle,-14,-7,1,0,0,,,,,,,-14,-7,1,0,0,,0,77,77,150,1,
,,,,,,,,,,,,,FF,,,,,,,,2.366,,,,,,,,,,,,,,,,,,,,,,60fd90280b7a39fc10749665,61036dcb1970c10567783625,2021-07-29_22h11.36.792,Simcolourproject_2stim_asymm_v5,2020.2.10,MacIntel,60,61025ae37ef11b136ea224fe,,,,,,,,,1026,47,24,1,0,0,response1disk,,6,-15,-6,1,0,0,rectangle,-15,-6,1,0,0,,,,,,,-15,-6,1,0,0,,0,78,78,47,1,
,,,,,,,,,,,,,FF,,,,,,,,0.95,,,,,,,,,,,,,,,,,,,,,,60fd90280b7a39fc10749665,61036dcb1970c10567783625,2021-07-29_22h11.36.792,Simcolourproject_2stim_asymm_v5,2020.2.10,MacIntel,60,61025ae37ef11b136ea224fe,,,,,,,,,4118,-50,68,1,0,0,response7disk,,0,-3,3,1,0,0,rectangle,-3,3,1,0,0,,,,,,,-3,3,1,0,0,,0,79,79,3,1,
,,,,,,,,,,,,,FF,,,,,,,,3.566,,,,,,,,,,,,,,,,,,,,,,60fd90280b7a39fc10749665,61036dcb1970c10567783625,2021-07-29_22h11.36.792,Simcolourproject_2stim_asymm_v5,2020.2.10,MacIntel,60,61025ae37ef11b136ea224fe,,,,,,,,,737,86,-38,1,0,0,response3disk,,5,-26,0,1,0,0,rectangle,-26,0,1,0,0,,,,,,,-26,0,1,0,0,,0,80,80,55,1,
,,,,,,,,,,,,,FF,,,,,,,,1.934,,,,,,,,,,,,,,,,,,,,,,60fd90280b7a39fc10749665,61036dcb1970c10567783625,2021-07-29_22h11.36.792,Simcolourproject_2stim_asymm_v5,2020.2.10,MacIntel,60,61025ae37ef11b136ea224fe,,,,,,,,,1611,-81,41,1,0,0,response7disk,,1,-5,-6,1,0,0,rectangle,45,92,1,0,0,response1disk_3,TRUE,7,7,"[2,134,51,145,47,320,152,309,1,60,262,283,181,45,14,267,20,251,82,267]",1.566,-1,3,1,0,0,rectangle,0,81,81,33,1,
,,,,,,,,,,,,,FF,,,,,,,,2.783,,,,,,,,,,,,,,,,,,,,,,60fd90280b7a39fc10749665,61036dcb1970c10567783625,2021-07-29_22h11.36.792,Simcolourproject_2stim_asymm_v5,2020.2.10,MacIntel,60,61025ae37ef11b136ea224fe,,,,,,,,,2808,71,24,1,0,0,response1disk,,6,3,-1,1,0,0,rectangle,3,-1,1,0,0,,,,,,,3,-1,1,0,0,,0,82,82,54,1,
,,,,,,,,,,,,,FF,,,,,,,,0.966,,,,,,,,,,,,,,,,,,,,,,60fd90280b7a39fc10749665,61036dcb1970c10567783625,2021-07-29_22h11.36.792,Simcolourproject_2stim_asymm_v5,2020.2.10,MacIntel,60,61025ae37ef11b136ea224fe,,,,,,,,,1013,44,93,1,0,0,response1disk,,7,2,-9,1,0,0,rectangle,2,-9,1,0,0,,,,,,,2,-9,1,0,0,,0,83,83,116,1,
,,,,,,,,,,,,,FF,,,,,,,,1.466,,,,,,,,,,,,,,,,,,,,,,60fd90280b7a39fc10749665,61036dcb1970c10567783625,2021-07-29_22h11.36.792,Simcolourproject_2stim_asymm_v5,2020.2.10,MacIntel,60,61025ae37ef11b136ea224fe,,,,,,,,,1555,97,-28,1,0,0,response3disk,,5,28,-14,1,0,0,rectangle,28,-14,1,0,0,,,,,,,28,-14,1,0,0,,0,84,84,83,1,
,,,,,,,,,,,,,FF,,,,,,,,1.267,,,,,,,,,,,,,,,,,,,,,,60fd90280b7a39fc10749665,61036dcb1970c10567783625,2021-07-29_22h11.36.792,Simcolourproject_2stim_asymm_v5,2020.2.10,MacIntel,60,61025ae37ef11b136ea224fe,,,,,,,,,538,67,37,1,0,0,response1disk,,6,-10,2,1,0,0,rectangle,-10,2,1,0,0,,,,,,,-10,2,1,0,0,,0,85,85,27,1,
,,,,,,,,,,,,,FF,,,,,,,,2.55,,,,,,,,,,,,,,,,,,,,,,60fd90280b7a39fc10749665,61036dcb1970c10567783625,2021-07-29_22h11.36.792,Simcolourproject_2stim_asymm_v5,2020.2.10,MacIntel,60,61025ae37ef11b136ea224fe,,,,,,,,,2683,79,-32,1,0,0,response3disk,,5,19,9,1,0,0,rectangle,19,9,1,0,0,,,,,,,19,9,1,0,0,,0,86,86,2,1,
,,,,,,,,,,,,,FF,,,,,,,,1.2,,,,,,,,,,,,,,,,,,,,,,60fd90280b7a39fc10749665,61036dcb1970c10567783625,2021-07-29_22h11.36.792,Simcolourproject_2stim_asymm_v5,2020.2.10,MacIntel,60,61025ae37ef11b136ea224fe,,,,,,,,,2565,52,81,1,0,0,response1disk,,7,2,9,1,0,0,rectangle,2,9,1,0,0,,,,,,,2,9,1,0,0,,0,87,87,107,1,
,,,,,,,,,,,,,FF,,,,,,,,1.4,,,,,,,,,,,,,,,,,,,,,,60fd90280b7a39fc10749665,61036dcb1970c10567783625,2021-07-29_22h11.36.792,Simcolourproject_2stim_asymm_v5,2020.2.10,MacIntel,60,61025ae37ef11b136ea224fe,,,,,,,,,3115,-29,-68,1,0,0,response5disk,,3,-6,6,1,0,0,rectangle,-6,6,1,0,0,,,,,,,-6,6,1,0,0,,0,88,88,9,1,
,,,,,,,,,,,,,FF,,,,,,,,1.65,,,,,,,,,,,,,,,,,,,,,,60fd90280b7a39fc10749665,61036dcb1970c10567783625,2021-07-29_22h11.36.792,Simcolourproject_2stim_asymm_v5,2020.2.10,MacIntel,60,61025ae37ef11b136ea224fe,,,,,,,,,4358,-73,-38,1,0,0,response5disk,,2,7,-1,1,0,0,rectangle,7,-1,1,0,0,,,,,,,7,-1,1,0,0,,0,89,89,32,1,
,,,,,,,,,,,,,FF,,,,,,,,1.549,,,,,,,,,,,,,,,,,,,,,,60fd90280b7a39fc10749665,61036dcb1970c10567783625,2021-07-29_22h11.36.792,Simcolourproject_2stim_asymm_v5,2020.2.10,MacIntel,60,61025ae37ef11b136ea224fe,,,,,,,,,2732,88,27,1,0,0,response1disk,,6,2,4,1,0,0,rectangle,2,4,1,0,0,,,,,,,2,4,1,0,0,,0,90,90,159,1,
,,,,,,,,,,,,,FF,,,,,,,,1.533,,,,,,,,,,,,,,,,,,,,,,60fd90280b7a39fc10749665,61036dcb1970c10567783625,2021-07-29_22h11.36.792,Simcolourproject_2stim_asymm_v5,2020.2.10,MacIntel,60,61025ae37ef11b136ea224fe,,,,,,,,,1954,-30,-50,1,0,0,response5disk,,3,-25,-15,1,0,0,rectangle,-25,-15,1,0,0,,,,,,,-25,-15,1,0,0,,0,91,91,62,1,
,,,,,,,,,,,,,FF,,,,,,,,1.849,,,,,,,,,,,,,,,,,,,,,,60fd90280b7a39fc10749665,61036dcb1970c10567783625,2021-07-29_22h11.36.792,Simcolourproject_2stim_asymm_v5,2020.2.10,MacIntel,60,61025ae37ef11b136ea224fe,,,,,,,,,115,24,-71,1,0,0,response3disk,,4,19,-12,1,0,0,rectangle,19,-12,1,0,0,,,,,,,19,-12,1,0,0,,0,92,92,130,1,
,,,,,,,,,,,,,FF,,,,,,,,2.783,,,,,,,,,,,,,,,,,,,,,,60fd90280b7a39fc10749665,61036dcb1970c10567783625,2021-07-29_22h11.36.792,Simcolourproject_2stim_asymm_v5,2020.2.10,MacIntel,60,61025ae37ef11b136ea224fe,,,,,,,,,1401,80,37,1,0,0,response1disk,,6,-12,4,1,0,0,rectangle,-12,4,1,0,0,,,,,,,-12,4,1,0,0,,0,93,93,97,1,
,,,,,,,,,,,,,FF,,,,,,,,0.967,,,,,,,,,,,,,,,,,,,,,,60fd90280b7a39fc10749665,61036dcb1970c10567783625,2021-07-29_22h11.36.792,Simcolourproject_2stim_asymm_v5,2020.2.10,MacIntel,60,61025ae37ef11b136ea224fe,,,,,,,,,4370,-45,108,1,0,0,response7disk,,0,-15,2,1,0,0,rectangle,-15,2,1,0,0,,,,,,,-15,2,1,0,0,,0,94,94,57,1,
,,,,,,,,,,,,,FF,,,,,,,,1.084,,,,,,,,,,,,,,,,,,,,,,60fd90280b7a39fc10749665,61036dcb1970c10567783625,2021-07-29_22h11.36.792,Simcolourproject_2stim_asymm_v5,2020.2.10,MacIntel,60,61025ae37ef11b136ea224fe,,,,,,,,,589,29,64,1,0,0,response1disk,,7,5,-15,1,0,0,rectangle,5,-15,1,0,0,,,,,,,5,-15,1,0,0,,0,95,95,131,1,
,,,,,,,,,,,,,FF,,,,,,,,1.4,,,,,,,,,,,,,,,,,,,,,,60fd90280b7a39fc10749665,61036dcb1970c10567783625,2021-07-29_22h11.36.792,Simcolourproject_2stim_asymm_v5,2020.2.10,MacIntel,60,61025ae37ef11b136ea224fe,,,,,,,,,1615,-82,-45,1,0,0,response5disk,,2,12,-3,1,0,0,rectangle,12,-3,1,0,0,,,,,,,12,-3,1,0,0,,0,96,96,139,1,
,,,,,,,,,,,,,FF,,,,,,,,1.467,,,,,,,,,,,,,,,,,,,,,,60fd90280b7a39fc10749665,61036dcb1970c10567783625,2021-07-29_22h11.36.792,Simcolourproject_2stim_asymm_v5,2020.2.10,MacIntel,60,61025ae37ef11b136ea224fe,,,,,,,,,2826,-78,-43,1,0,0,response5disk,,2,9,-7,1,0,0,rectangle,9,-7,1,0,0,,,,,,,9,-7,1,0,0,,0,97,97,56,1,
,,,,,,,,,,,,,FF,,,,,,,,1.683,,,,,,,,,,,,,,,,,,,,,,60fd90280b7a39fc10749665,61036dcb1970c10567783625,2021-07-29_22h11.36.792,Simcolourproject_2stim_asymm_v5,2020.2.10,MacIntel,60,61025ae37ef11b136ea224fe,,,,,,,,,758,72,-40,1,0,0,response3disk,,5,11,-13,1,0,0,rectangle,11,-13,1,0,0,,,,,,,11,-13,1,0,0,,0,98,98,52,1,
,,,,,,,,,,,,,FF,,,,,,,,1.866,,,,,,,,,,,,,,,,,,,,,,60fd90280b7a39fc10749665,61036dcb1970c10567783625,2021-07-29_22h11.36.792,Simcolourproject_2stim_asymm_v5,2020.2.10,MacIntel,60,61025ae37ef11b136ea224fe,,,,,,,,,1143,-78,-41,1,0,0,response5disk,,2,4,-14,1,0,0,rectangle,4,-14,1,0,0,,,,,,,4,-14,1,0,0,,0,99,99,61,1,
,,,,,,,,,,,,,FF,,,,,,,,1.95,,,,,,,,,,,,,,,,,,,,,,60fd90280b7a39fc10749665,61036dcb1970c10567783625,2021-07-29_22h11.36.792,Simcolourproject_2stim_asymm_v5,2020.2.10,MacIntel,60,61025ae37ef11b136ea224fe,,,,,,,,,3873,64,-32,1,0,0,response3disk,,5,16,-2,1,0,0,rectangle,16,-2,1,0,0,,,,,,,16,-2,1,0,0,,0,100,100,35,1,
,,,,,,,,,,,,,FF,,,,,,,,1.3,,,,,,,,,,,,,,,,,,,,,,60fd90280b7a39fc10749665,61036dcb1970c10567783625,2021-07-29_22h11.36.792,Simcolourproject_2stim_asymm_v5,2020.2.10,MacIntel,60,61025ae37ef11b136ea224fe,,,,,,,,,529,-86,-24,1,0,0,response5disk,,2,-6,-8,1,0,0,rectangle,-6,-8,1,0,0,,,,,,,-6,-8,1,0,0,,0,101,101,103,1,
,,,,,,,,,,,,,FF,,,,,,,,1.065,,,,,,,,,,,,,,,,,,,,,,60fd90280b7a39fc10749665,61036dcb1970c10567783625,2021-07-29_22h11.36.792,Simcolourproject_2stim_asymm_v5,2020.2.10,MacIntel,60,61025ae37ef11b136ea224fe,,,,,,,,,3648,47,80,1,0,0,response1disk,,7,-9,-10,1,0,0,rectangle,-9,-10,1,0,0,,,,,,,-9,-10,1,0,0,,0,102,102,158,1,
,,,,,,,,,,,,,FF,,,,,,,,1.216,,,,,,,,,,,,,,,,,,,,,,60fd90280b7a39fc10749665,61036dcb1970c10567783625,2021-07-29_22h11.36.792,Simcolourproject_2stim_asymm_v5,2020.2.10,MacIntel,60,61025ae37ef11b136ea224fe,,,,,,,,,3940,-27,-66,1,0,0,response5disk,,3,-18,-7,1,0,0,rectangle,-18,-7,1,0,0,,,,,,,-18,-7,1,0,0,,0,103,103,34,1,
,,,,,,,,,,,,,FF,,,,,,,,1.467,,,,,,,,,,,,,,,,,,,,,,60fd90280b7a39fc10749665,61036dcb1970c10567783625,2021-07-29_22h11.36.792,Simcolourproject_2stim_asymm_v5,2020.2.10,MacIntel,60,61025ae37ef11b136ea224fe,,,,,,,,,2581,59,-31,1,0,0,response3disk,,5,10,-2,1,0,0,rectangle,10,-2,1,0,0,,,,,,,10,-2,1,0,0,,0,104,104,137,1,
,,,,,,,,,,,,,FF,,,,,,,,1.083,,,,,,,,,,,,,,,,,,,,,,60fd90280b7a39fc10749665,61036dcb1970c10567783625,2021-07-29_22h11.36.792,Simcolourproject_2stim_asymm_v5,2020.2.10,MacIntel,60,61025ae37ef11b136ea224fe,,,,,,,,,108,30,-87,1,0,0,response3disk,,4,12,-3,1,0,0,rectangle,12,-3,1,0,0,,,,,,,12,-3,1,0,0,,0,105,105,92,1,
,,,,,,,,,,,,,FF,,,,,,,,0.981,,,,,,,,,,,,,,,,,,,,,,60fd90280b7a39fc10749665,61036dcb1970c10567783625,2021-07-29_22h11.36.792,Simcolourproject_2stim_asymm_v5,2020.2.10,MacIntel,60,61025ae37ef11b136ea224fe,,,,,,,,,3124,55,85,1,0,0,response1disk,,7,-5,-9,1,0,0,rectangle,-5,-9,1,0,0,,,,,,,-5,-9,1,0,0,,0,106,106,154,1,
,,,,,,,,,,,,,FF,,,,,,,,2.65,,,,,,,,,,,,,,,,,,,,,,60fd90280b7a39fc10749665,61036dcb1970c10567783625,2021-07-29_22h11.36.792,Simcolourproject_2stim_asymm_v5,2020.2.10,MacIntel,60,61025ae37ef11b136ea224fe,,,,,,,,,3970,95,27,1,0,0,response1disk,,6,-1,1,1,0,0,rectangle,-1,1,1,0,0,,,,,,,-1,1,1,0,0,,0,107,107,44,1,
,,,,,,,,,,,,,FF,,,,,,,,1.166,,,,,,,,,,,,,,,,,,,,,,60fd90280b7a39fc10749665,61036dcb1970c10567783625,2021-07-29_22h11.36.792,Simcolourproject_2stim_asymm_v5,2020.2.10,MacIntel,60,61025ae37ef11b136ea224fe,,,,,,,,,760,84,53,1,0,0,response1disk,,6,-31,14,1,0,0,rectangle,-31,14,1,0,0,,,,,,,-31,14,1,0,0,,0,108,108,64,1,
,,,,,,,,,,,,,FF,,,,,,,,1.117,,,,,,,,,,,,,,,,,,,,,,60fd90280b7a39fc10749665,61036dcb1970c10567783625,2021-07-29_22h11.36.792,Simcolourproject_2stim_asymm_v5,2020.2.10,MacIntel,60,61025ae37ef11b136ea224fe,,,,,,,,,2944,-36,-65,1,0,0,response5disk,,3,-16,9,1,0,0,rectangle,-16,9,1,0,0,,,,,,,-16,9,1,0,0,,0,109,109,149,1,
,,,,,,,,,,,,,FF,,,,,,,,3.5,,,,,,,,,,,,,,,,,,,,,,60fd90280b7a39fc10749665,61036dcb1970c10567783625,2021-07-29_22h11.36.792,Simcolourproject_2stim_asymm_v5,2020.2.10,MacIntel,60,61025ae37ef11b136ea224fe,,,,,,,,,814,27,-58,1,0,0,response3disk,,4,2,1,1,0,0,rectangle,2,1,1,0,0,,,,,,,2,1,1,0,0,,0,110,110,145,1,
,,,,,,,,,,,,,FF,,,,,,,,4.133,,,,,,,,,,,,,,,,,,,,,,60fd90280b7a39fc10749665,61036dcb1970c10567783625,2021-07-29_22h11.36.792,Simcolourproject_2stim_asymm_v5,2020.2.10,MacIntel,60,61025ae37ef11b136ea224fe,,,,,,,,,2906,68,31,1,0,0,response1disk,,6,-1,-7,1,0,0,rectangle,-1,-7,1,0,0,,,,,,,-1,-7,1,0,0,,0,111,111,155,1,
,,,,,,,,,,,,,FF,,,,,,,,1.266,,,,,,,,,,,,,,,,,,,,,,60fd90280b7a39fc10749665,61036dcb1970c10567783625,2021-07-29_22h11.36.792,Simcolourproject_2stim_asymm_v5,2020.2.10,MacIntel,60,61025ae37ef11b136ea224fe,,,,,,,,,2638,48,127,1,0,0,response1disk,,7,-15,-11,1,0,0,rectangle,-15,-11,1,0,0,,,,,,,-15,-11,1,0,0,,0,112,112,22,1,
,,,,,,,,,,,,,FF,,,,,,,,0.732,,,,,,,,,,,,,,,,,,,,,,60fd90280b7a39fc10749665,61036dcb1970c10567783625,2021-07-29_22h11.36.792,Simcolourproject_2stim_asymm_v5,2020.2.10,MacIntel,60,61025ae37ef11b136ea224fe,,,,,,,,,931,49,75,1,0,0,response1disk,,7,4,4,1,0,0,rectangle,4,4,1,0,0,,,,,,,4,4,1,0,0,,0,113,113,74,1,
,,,,,,,,,,,,,FF,,,,,,,,0.982,,,,,,,,,,,,,,,,,,,,,,60fd90280b7a39fc10749665,61036dcb1970c10567783625,2021-07-29_22h11.36.792,Simcolourproject_2stim_asymm_v5,2020.2.10,MacIntel,60,61025ae37ef11b136ea224fe,,,,,,,,,413,78,30,1,0,0,response1disk,,6,6,3,1,0,0,rectangle,6,3,1,0,0,,,,,,,6,3,1,0,0,,0,114,114,134,1,
,,,,,,,,,,,,,FF,,,,,,,,1.135,,,,,,,,,,,,,,,,,,,,,,60fd90280b7a39fc10749665,61036dcb1970c10567783625,2021-07-29_22h11.36.792,Simcolourproject_2stim_asymm_v5,2020.2.10,MacIntel,60,61025ae37ef11b136ea224fe,,,,,,,,,1180,61,-31,1,0,0,response3disk,,5,6,6,1,0,0,rectangle,6,6,1,0,0,,,,,,,6,6,1,0,0,,0,115,115,105,1,
,,,,,,,,,,,,,FF,,,,,,,,0.917,,,,,,,,,,,,,,,,,,,,,,60fd90280b7a39fc10749665,61036dcb1970c10567783625,2021-07-29_22h11.36.792,Simcolourproject_2stim_asymm_v5,2020.2.10,MacIntel,60,61025ae37ef11b136ea224fe,,,,,,,,,3506,81,-39,1,0,0,response3disk,,5,14,-4,1,0,0,rectangle,14,-4,1,0,0,,,,,,,14,-4,1,0,0,,0,116,116,125,1,
,,,,,,,,,,,,,FF,,,,,,,,1.083,,,,,,,,,,,,,,,,,,,,,,60fd90280b7a39fc10749665,61036dcb1970c10567783625,2021-07-29_22h11.36.792,Simcolourproject_2stim_asymm_v5,2020.2.10,MacIntel,60,61025ae37ef11b136ea224fe,,,,,,,,,2622,63,-32,1,0,0,response3disk,,5,24,-4,1,0,0,rectangle,24,-4,1,0,0,,,,,,,24,-4,1,0,0,,0,117,117,133,1,
,,,,,,,,,,,,,FF,,,,,,,,1.198,,,,,,,,,,,,,,,,,,,,,,60fd90280b7a39fc10749665,61036dcb1970c10567783625,2021-07-29_22h11.36.792,Simcolourproject_2stim_asymm_v5,2020.2.10,MacIntel,60,61025ae37ef11b136ea224fe,,,,,,,,,1166,72,-37,1,0,0,response3disk,,5,3,11,1,0,0,rectangle,3,11,1,0,0,,,,,,,3,11,1,0,0,,0,118,118,73,1,
,,,,,,,,,,,,,FF,,,,,,,,0.966,,,,,,,,,,,,,,,,,,,,,,60fd90280b7a39fc10749665,61036dcb1970c10567783625,2021-07-29_22h11.36.792,Simcolourproject_2stim_asymm_v5,2020.2.10,MacIntel,60,61025ae37ef11b136ea224fe,,,,,,,,,609,27,-78,1,0,0,response3disk,,4,11,-4,1,0,0,rectangle,11,-4,1,0,0,,,,,,,11,-4,1,0,0,,0,119,119,25,1,
,,,,,,,,,,,,,FF,,,,,,,,1.334,,,,,,,,,,,,,,,,,,,,,,60fd90280b7a39fc10749665,61036dcb1970c10567783625,2021-07-29_22h11.36.792,Simcolourproject_2stim_asymm_v5,2020.2.10,MacIntel,60,61025ae37ef11b136ea224fe,,,,,,,,,1249,81,-61,1,0,0,response3disk,,5,20,-11,1,0,0,rectangle,20,-11,1,0,0,,,,,,,20,-11,1,0,0,,0,120,120,37,1,
,,,,,,,,,,,,,FF,,,,,,,,0.933,,,,,,,,,,,,,,,,,,,,,,60fd90280b7a39fc10749665,61036dcb1970c10567783625,2021-07-29_22h11.36.792,Simcolourproject_2stim_asymm_v5,2020.2.10,MacIntel,60,61025ae37ef11b136ea224fe,,,,,,,,,3608,87,36,1,0,0,response1disk,,6,-10,1,1,0,0,rectangle,-10,1,1,0,0,,,,,,,-10,1,1,0,0,,0,121,121,82,1,
,,,,,,,,,,,,,FF,,,,,,,,1.55,,,,,,,,,,,,,,,,,,,,,,60fd90280b7a39fc10749665,61036dcb1970c10567783625,2021-07-29_22h11.36.792,Simcolourproject_2stim_asymm_v5,2020.2.10,MacIntel,60,61025ae37ef11b136ea224fe,,,,,,,,,3569,94,51,1,0,0,response1disk,,6,22,14,1,0,0,rectangle,22,14,1,0,0,,,,,,,22,14,1,0,0,,0,122,122,123,1,
,,,,,,,,,,,,,FF,,,,,,,,0.899,,,,,,,,,,,,,,,,,,,,,,60fd90280b7a39fc10749665,61036dcb1970c10567783625,2021-07-29_22h11.36.792,Simcolourproject_2stim_asymm_v5,2020.2.10,MacIntel,60,61025ae37ef11b136ea224fe,,,,,,,,,2173,55,-31,1,0,0,response3disk,,5,14,-4,1,0,0,rectangle,14,-4,1,0,0,,,,,,,14,-4,1,0,0,,0,123,123,138,1,
,,,,,,,,,,,,,FF,,,,,,,,1.066,,,,,,,,,,,,,,,,,,,,,,60fd90280b7a39fc10749665,61036dcb1970c10567783625,2021-07-29_22h11.36.792,Simcolourproject_2stim_asymm_v5,2020.2.10,MacIntel,60,61025ae37ef11b136ea224fe,,,,,,,,,2649,94,36,1,0,0,response1disk,,6,-1,-10,1,0,0,rectangle,-1,-10,1,0,0,,,,,,,-1,-10,1,0,0,,0,124,124,144,1,
,,,,,,,,,,,,,FF,,,,,,,,1,,,,,,,,,,,,,,,,,,,,,,60fd90280b7a39fc10749665,61036dcb1970c10567783625,2021-07-29_22h11.36.792,Simcolourproject_2stim_asymm_v5,2020.2.10,MacIntel,60,61025ae37ef11b136ea224fe,,,,,,,,,4236,-40,-59,1,0,0,response5disk,,3,-18,14,1,0,0,rectangle,-18,14,1,0,0,,,,,,,-18,14,1,0,0,,0,125,125,13,1,
,,,,,,,,,,,,,FF,,,,,,,,1.45,,,,,,,,,,,,,,,,,,,,,,60fd90280b7a39fc10749665,61036dcb1970c10567783625,2021-07-29_22h11.36.792,Simcolourproject_2stim_asymm_v5,2020.2.10,MacIntel,60,61025ae37ef11b136ea224fe,,,,,,,,,1651,88,-45,1,0,0,response3disk,,5,17,-9,1,0,0,rectangle,17,-9,1,0,0,,,,,,,17,-9,1,0,0,,0,126,126,4,1,
,,,,,,,,,,,,,FF,,,,,,,,1.8,,,,,,,,,,,,,,,,,,,,,,60fd90280b7a39fc10749665,61036dcb1970c10567783625,2021-07-29_22h11.36.792,Simcolourproject_2stim_asymm_v5,2020.2.10,MacIntel,60,61025ae37ef11b136ea224fe,,,,,,,,,1232,42,72,1,0,0,response1disk,,7,-1,-1,1,0,0,rectangle,-1,-1,1,0,0,,,,,,,-1,-1,1,0,0,,0,127,127,41,1,
,,,,,,,,,,,,,FF,,,,,,,,1.95,,,,,,,,,,,,,,,,,,,,,,60fd90280b7a39fc10749665,61036dcb1970c10567783625,2021-07-29_22h11.36.792,Simcolourproject_2stim_asymm_v5,2020.2.10,MacIntel,60,61025ae37ef11b136ea224fe,,,,,,,,,1111,45,66,1,0,0,response1disk,,7,-1,-12,1,0,0,rectangle,-1,-12,1,0,0,,,,,,,-1,-12,1,0,0,,0,128,128,93,1,
,,,,,,,,,,,,,FF,,,,,,,,2.649,,,,,,,,,,,,,,,,,,,,,,60fd90280b7a39fc10749665,61036dcb1970c10567783625,2021-07-29_22h11.36.792,Simcolourproject_2stim_asymm_v5,2020.2.10,MacIntel,60,61025ae37ef11b136ea224fe,,,,,,,,,288,-31,-49,1,0,0,response5disk,,3,7,3,1,0,0,rectangle,7,3,1,0,0,,,,,,,7,3,1,0,0,,0,129,129,126,1,
,,,,,,,,,,,,,FF,,,,,,,,1.283,,,,,,,,,,,,,,,,,,,,,,60fd90280b7a39fc10749665,61036dcb1970c10567783625,2021-07-29_22h11.36.792,Simcolourproject_2stim_asymm_v5,2020.2.10,MacIntel,60,61025ae37ef11b136ea224fe,,,,,,,,,3725,55,23,1,0,0,response1disk,,6,2,-5,1,0,0,rectangle,2,-5,1,0,0,,,,,,,2,-5,1,0,0,,0,130,130,24,1,
,,,,,,,,,,,,,FF,,,,,,,,1.217,,,,,,,,,,,,,,,,,,,,,,60fd90280b7a39fc10749665,61036dcb1970c10567783625,2021-07-29_22h11.36.792,Simcolourproject_2stim_asymm_v5,2020.2.10,MacIntel,60,61025ae37ef11b136ea224fe,,,,,,,,,381,39,-56,1,0,0,response3disk,,4,7,2,1,0,0,rectangle,7,2,1,0,0,,,,,,,7,2,1,0,0,,0,131,131,98,1,
,,,,,,,,,,,,,FF,,,,,,,,1.084,,,,,,,,,,,,,,,,,,,,,,60fd90280b7a39fc10749665,61036dcb1970c10567783625,2021-07-29_22h11.36.792,Simcolourproject_2stim_asymm_v5,2020.2.10,MacIntel,60,61025ae37ef11b136ea224fe,,,,,,,,,796,78,37,1,0,0,response1disk,,6,5,4,1,0,0,rectangle,5,4,1,0,0,,,,,,,5,4,1,0,0,,0,132,132,10,1,
,,,,,,,,,,,,,FF,,,,,,,,1.283,,,,,,,,,,,,,,,,,,,,,,60fd90280b7a39fc10749665,61036dcb1970c10567783625,2021-07-29_22h11.36.792,Simcolourproject_2stim_asymm_v5,2020.2.10,MacIntel,60,61025ae37ef11b136ea224fe,,,,,,,,,2988,-36,-68,1,0,0,response5disk,,3,-15,-3,1,0,0,rectangle,71,-42,1,0,0,response3disk_3,TRUE,5,5,"[2,134,51,145,47,320,152,309,1,60,262,283,181,45,14,267,20,251,82,267]",1.632,-4,-7,1,0,0,rectangle,0,133,133,111,1,
,,,,,,,,,,,,,FF,,,,,,,,0.999,,,,,,,,,,,,,,,,,,,,,,60fd90280b7a39fc10749665,61036dcb1970c10567783625,2021-07-29_22h11.36.792,Simcolourproject_2stim_asymm_v5,2020.2.10,MacIntel,60,61025ae37ef11b136ea224fe,,,,,,,,,1067,74,39,1,0,0,response1disk,,6,1,2,1,0,0,rectangle,1,2,1,0,0,,,,,,,1,2,1,0,0,,0,134,134,60,1,
,,,,,,,,,,,,,FF,,,,,,,,1.633,,,,,,,,,,,,,,,,,,,,,,60fd90280b7a39fc10749665,61036dcb1970c10567783625,2021-07-29_22h11.36.792,Simcolourproject_2stim_asymm_v5,2020.2.10,MacIntel,60,61025ae37ef11b136ea224fe,,,,,,,,,154,101,55,1,0,0,response1disk,,6,23,17,1,0,0,rectangle,23,17,1,0,0,,,,,,,23,17,1,0,0,,0,135,135,28,1,
,,,,,,,,,,,,,FF,,,,,,,,1.866,,,,,,,,,,,,,,,,,,,,,,60fd90280b7a39fc10749665,61036dcb1970c10567783625,2021-07-29_22h11.36.792,Simcolourproject_2stim_asymm_v5,2020.2.10,MacIntel,60,61025ae37ef11b136ea224fe,,,,,,,,,4341,39,-64,1,0,0,response3disk,,4,7,10,1,0,0,rectangle,7,10,1,0,0,,,,,,,7,10,1,0,0,,0,136,136,91,1,
,,,,,,,,,,,,,FF,,,,,,,,2.816,,,,,,,,,,,,,,,,,,,,,,60fd90280b7a39fc10749665,61036dcb1970c10567783625,2021-07-29_22h11.36.792,Simcolourproject_2stim_asymm_v5,2020.2.10,MacIntel,60,61025ae37ef11b136ea224fe,,,,,,,,,3916,29,-74,1,0,0,response3disk,,4,2,-8,1,0,0,rectangle,2,-8,1,0,0,,,,,,,2,-8,1,0,0,,0,137,137,45,1,
,,,,,,,,,,,,,FF,,,,,,,,1.783,,,,,,,,,,,,,,,,,,,,,,60fd90280b7a39fc10749665,61036dcb1970c10567783625,2021-07-29_22h11.36.792,Simcolourproject_2stim_asymm_v5,2020.2.10,MacIntel,60,61025ae37ef11b136ea224fe,,,,,,,,,731,58,-38,1,0,0,response3disk,,5,13,-5,1,0,0,rectangle,13,-5,1,0,0,,,,,,,13,-5,1,0,0,,0,138,138,81,1,
,,,,,,,,,,,,,FF,,,,,,,,1.183,,,,,,,,,,,,,,,,,,,,,,60fd90280b7a39fc10749665,61036dcb1970c10567783625,2021-07-29_22h11.36.792,Simcolourproject_2stim_asymm_v5,2020.2.10,MacIntel,60,61025ae37ef11b136ea224fe,,,,,,,,,3391,-65,28,1,0,0,response7disk,,1,0,-4,1,0,0,rectangle,0,-4,1,0,0,,,,,,,0,-4,1,0,0,,0,139,139,30,1,
,,,,,,,,,,,,,FF,,,,,,,,2.633,,,,,,,,,,,,,,,,,,,,,,60fd90280b7a39fc10749665,61036dcb1970c10567783625,2021-07-29_22h11.36.792,Simcolourproject_2stim_asymm_v5,2020.2.10,MacIntel,60,61025ae37ef11b136ea224fe,,,,,,,,,1479,52,81,1,0,0,response1disk,,7,14,1,1,0,0,rectangle,14,1,1,0,0,,,,,,,14,1,1,0,0,,0,140,140,66,1,
,,,,,,,,,,,,,FF,,,,,,,,1.649,,,,,,,,,,,,,,,,,,,,,,60fd90280b7a39fc10749665,61036dcb1970c10567783625,2021-07-29_22h11.36.792,Simcolourproject_2stim_asymm_v5,2020.2.10,MacIntel,60,61025ae37ef11b136ea224fe,,,,,,,,,2178,32,-76,1,0,0,response3disk,,4,10,-5,1,0,0,rectangle,10,-5,1,0,0,,,,,,,10,-5,1,0,0,,0,141,141,68,1,
,,,,,,,,,,,,,FF,,,,,,,,1.101,,,,,,,,,,,,,,,,,,,,,,60fd90280b7a39fc10749665,61036dcb1970c10567783625,2021-07-29_22h11.36.792,Simcolourproject_2stim_asymm_v5,2020.2.10,MacIntel,60,61025ae37ef11b136ea224fe,,,,,,,,,3174,77,-47,1,0,0,response3disk,,5,0,5,1,0,0,rectangle,0,5,1,0,0,,,,,,,0,5,1,0,0,,0,142,142,121,1,
,,,,,,,,,,,,,FF,,,,,,,,1.566,,,,,,,,,,,,,,,,,,,,,,60fd90280b7a39fc10749665,61036dcb1970c10567783625,2021-07-29_22h11.36.792,Simcolourproject_2stim_asymm_v5,2020.2.10,MacIntel,60,61025ae37ef11b136ea224fe,,,,,,,,,2451,70,-41,1,0,0,response3disk,,5,10,0,1,0,0,rectangle,10,0,1,0,0,,,,,,,10,0,1,0,0,,0,143,143,152,1,
,,,,,,,,,,,,,FF,,,,,,,,1.134,,,,,,,,,,,,,,,,,,,,,,60fd90280b7a39fc10749665,61036dcb1970c10567783625,2021-07-29_22h11.36.792,Simcolourproject_2stim_asymm_v5,2020.2.10,MacIntel,60,61025ae37ef11b136ea224fe,,,,,,,,,214,56,-43,1,0,0,response3disk,,5,7,4,1,0,0,rectangle,-86,34,1,0,0,response7disk_3,TRUE,1,1,"[2,134,51,145,47,320,152,309,1,60,262,283,181,45,14,267,20,251,82,267]",1.816,4,7,1,0,0,rectangle,0,144,144,79,1,
,,,,,,,,,,,,,FF,,,,,,,,2.533,,,,,,,,,,,,,,,,,,,,,,60fd90280b7a39fc10749665,61036dcb1970c10567783625,2021-07-29_22h11.36.792,Simcolourproject_2stim_asymm_v5,2020.2.10,MacIntel,60,61025ae37ef11b136ea224fe,,,,,,,,,2646,90,25,1,0,0,response1disk,,6,-20,-8,1,0,0,rectangle,-20,-8,1,0,0,,,,,,,-20,-8,1,0,0,,0,145,145,143,1,
,,,,,,,,,,,,,FF,,,,,,,,1.316,,,,,,,,,,,,,,,,,,,,,,60fd90280b7a39fc10749665,61036dcb1970c10567783625,2021-07-29_22h11.36.792,Simcolourproject_2stim_asymm_v5,2020.2.10,MacIntel,60,61025ae37ef11b136ea224fe,,,,,,,,,701,-50,-76,1,0,0,response5disk,,3,-15,8,1,0,0,rectangle,-15,8,1,0,0,,,,,,,-15,8,1,0,0,,0,146,146,46,1,
,,,,,,,,,,,,,FF,,,,,,,,1.133,,,,,,,,,,,,,,,,,,,,,,60fd90280b7a39fc10749665,61036dcb1970c10567783625,2021-07-29_22h11.36.792,Simcolourproject_2stim_asymm_v5,2020.2.10,MacIntel,60,61025ae37ef11b136ea224fe,,,,,,,,,4056,72,40,1,0,0,response1disk,,6,7,12,1,0,0,rectangle,7,12,1,0,0,,,,,,,7,12,1,0,0,,0,147,147,140,1,
,,,,,,,,,,,,,FF,,,,,,,,1.4,,,,,,,,,,,,,,,,,,,,,,60fd90280b7a39fc10749665,61036dcb1970c10567783625,2021-07-29_22h11.36.792,Simcolourproject_2stim_asymm_v5,2020.2.10,MacIntel,60,61025ae37ef11b136ea224fe,,,,,,,,,246,61,-39,1,0,0,response3disk,,5,12,3,1,0,0,rectangle,12,3,1,0,0,,,,,,,12,3,1,0,0,,0,148,148,39,1,
,,,,,,,,,,,,,FF,,,,,,,,1.366,,,,,,,,,,,,,,,,,,,,,,60fd90280b7a39fc10749665,61036dcb1970c10567783625,2021-07-29_22h11.36.792,Simcolourproject_2stim_asymm_v5,2020.2.10,MacIntel,60,61025ae37ef11b136ea224fe,,,,,,,,,3961,59,79,1,0,0,response1disk,,7,6,-9,1,0,0,rectangle,6,-9,1,0,0,,,,,,,6,-9,1,0,0,,0,149,149,114,1,
,,,,,,,,,,,,,FF,,,,,,,,1.95,,,,,,,,,,,,,,,,,,,,,,60fd90280b7a39fc10749665,61036dcb1970c10567783625,2021-07-29_22h11.36.792,Simcolourproject_2stim_asymm_v5,2020.2.10,MacIntel,60,61025ae37ef11b136ea224fe,,,,,,,,,2303,70,-25,1,0,0,response3disk,,5,18,-12,1,0,0,rectangle,18,-12,1,0,0,,,,,,,18,-12,1,0,0,,0,150,150,49,1,
,,,,,,,,,,,,,FF,,,,,,,,0.883,,,,,,,,,,,,,,,,,,,,,,60fd90280b7a39fc10749665,61036dcb1970c10567783625,2021-07-29_22h11.36.792,Simcolourproject_2stim_asymm_v5,2020.2.10,MacIntel,60,61025ae37ef11b136ea224fe,,,,,,,,,62,74,29,1,0,0,response1disk,,6,-6,-6,1,0,0,rectangle,67,-52,1,0,0,response3disk_3,TRUE,5,5,"[2,134,51,145,47,320,152,309,1,60,262,283,181,45,14,267,20,251,82,267]",1.282,2,-5,1,0,0,rectangle,0,151,151,113,1,
,,,,,,,,,,,,,FF,,,,,,,,1.033,,,,,,,,,,,,,,,,,,,,,,60fd90280b7a39fc10749665,61036dcb1970c10567783625,2021-07-29_22h11.36.792,Simcolourproject_2stim_asymm_v5,2020.2.10,MacIntel,60,61025ae37ef11b136ea224fe,,,,,,,,,2721,-20,-63,1,0,0,response5disk,,3,-11,1,1,0,0,rectangle,-11,1,1,0,0,,,,,,,-11,1,1,0,0,,0,152,152,65,1,
,,,,,,,,,,,,,FF,,,,,,,,1.032,,,,,,,,,,,,,,,,,,,,,,60fd90280b7a39fc10749665,61036dcb1970c10567783625,2021-07-29_22h11.36.792,Simcolourproject_2stim_asymm_v5,2020.2.10,MacIntel,60,61025ae37ef11b136ea224fe,,,,,,,,,4316,-37,81,1,0,0,response7disk,,0,-12,13,1,0,0,rectangle,-12,13,1,0,0,,,,,,,-12,13,1,0,0,,0,153,153,106,1,
,,,,,,,,,,,,,FF,,,,,,,,2.733,,,,,,,,,,,,,,,,,,,,,,60fd90280b7a39fc10749665,61036dcb1970c10567783625,2021-07-29_22h11.36.792,Simcolourproject_2stim_asymm_v5,2020.2.10,MacIntel,60,61025ae37ef11b136ea224fe,,,,,,,,,423,52,73,1,0,0,response1disk,,7,5,-4,1,0,0,rectangle,5,-4,1,0,0,,,,,,,5,-4,1,0,0,,0,154,154,118,1,
,,,,,,,,,,,,,FF,,,,,,,,1.299,,,,,,,,,,,,,,,,,,,,,,60fd90280b7a39fc10749665,61036dcb1970c10567783625,2021-07-29_22h11.36.792,Simcolourproject_2stim_asymm_v5,2020.2.10,MacIntel,60,61025ae37ef11b136ea224fe,,,,,,,,,80,-73,-38,1,0,0,response5disk,,2,-8,-13,1,0,0,rectangle,-8,-13,1,0,0,,,,,,,-8,-13,1,0,0,,0,155,155,14,1,
,,,,,,,,,,,,,FF,,,,,,,,2.032,,,,,,,,,,,,,,,,,,,,,,60fd90280b7a39fc10749665,61036dcb1970c10567783625,2021-07-29_22h11.36.792,Simcolourproject_2stim_asymm_v5,2020.2.10,MacIntel,60,61025ae37ef11b136ea224fe,,,,,,,,,2429,23,-59,1,0,0,response3disk,,4,5,-9,1,0,0,rectangle,5,-9,1,0,0,,,,,,,5,-9,1,0,0,,0,156,156,100,1,
,,,,,,,,,,,,,FF,,,,,,,,1,,,,,,,,,,,,,,,,,,,,,,60fd90280b7a39fc10749665,61036dcb1970c10567783625,2021-07-29_22h11.36.792,Simcolourproject_2stim_asymm_v5,2020.2.10,MacIntel,60,61025ae37ef11b136ea224fe,,,,,,,,,3858,50,72,1,0,0,response1disk,,7,4,11,1,0,0,rectangle,4,11,1,0,0,,,,,,,4,11,1,0,0,,0,157,157,127,1,
,,,,,,,,,,,,,FF,,,,,,,,1.832,,,,,,,,,,,,,,,,,,,,,,60fd90280b7a39fc10749665,61036dcb1970c10567783625,2021-07-29_22h11.36.792,Simcolourproject_2stim_asymm_v5,2020.2.10,MacIntel,60,61025ae37ef11b136ea224fe,,,,,,,,,1760,29,-45,1,0,0,response3disk,,4,7,-4,1,0,0,rectangle,7,-4,1,0,0,,,,,,,7,-4,1,0,0,,0,158,158,19,1,
,,,,,,,,,,,,,FF,,,,,,,,1.299,,,,,,,,,,,,,,,,,,,,,,60fd90280b7a39fc10749665,61036dcb1970c10567783625,2021-07-29_22h11.36.792,Simcolourproject_2stim_asymm_v5,2020.2.10,MacIntel,60,61025ae37ef11b136ea224fe,,,,,,,,,3231,53,75,1,0,0,response1disk,,7,0,6,1,0,0,rectangle,0,6,1,0,0,,,,,,,0,6,1,0,0,,0,159,159,157,1,
,,,,,,,,,,,,,FF,,,,,,,,1.579,,,,,,,,,,,,,,,,,,,,,,60fd90280b7a39fc10749665,61036dcb1970c10567783625,2021-07-29_22h11.36.792,Simcolourproject_2stim_asymm_v5,2020.2.10,MacIntel,60,61025ae37ef11b136ea224fe,,,,,,,,,199,36,-71,1,0,0,response3disk,,4,13,-2,1,0,0,rectangle,13,-2,1,0,0,,,,,,,13,-2,1,0,0,,1,0,160,123,1,
,,,,,,,,,,,,,FF,,,,,,,,0.978,,,,,,,,,,,,,,,,,,,,,,60fd90280b7a39fc10749665,61036dcb1970c10567783625,2021-07-29_22h11.36.792,Simcolourproject_2stim_asymm_v5,2020.2.10,MacIntel,60,61025ae37ef11b136ea224fe,,,,,,,,,3634,93,51,1,0,0,response1disk,,6,5,-9,1,0,0,rectangle,5,-9,1,0,0,,,,,,,5,-9,1,0,0,,1,1,161,51,1,
,,,,,,,,,,,,,FF,,,,,,,,1.017,,,,,,,,,,,,,,,,,,,,,,60fd90280b7a39fc10749665,61036dcb1970c10567783625,2021-07-29_22h11.36.792,Simcolourproject_2stim_asymm_v5,2020.2.10,MacIntel,60,61025ae37ef11b136ea224fe,,,,,,,,,725,79,-39,1,0,0,response3disk,,5,-10,15,1,0,0,rectangle,-10,15,1,0,0,,,,,,,-10,15,1,0,0,,1,2,162,69,1,
,,,,,,,,,,,,,FF,,,,,,,,1.55,,,,,,,,,,,,,,,,,,,,,,60fd90280b7a39fc10749665,61036dcb1970c10567783625,2021-07-29_22h11.36.792,Simcolourproject_2stim_asymm_v5,2020.2.10,MacIntel,60,61025ae37ef11b136ea224fe,,,,,,,,,2818,33,69,1,0,0,response1disk,,7,2,0,1,0,0,rectangle,2,0,1,0,0,,,,,,,2,0,1,0,0,,1,3,163,8,1,
,,,,,,,,,,,,,FF,,,,,,,,1.833,,,,,,,,,,,,,,,,,,,,,,60fd90280b7a39fc10749665,61036dcb1970c10567783625,2021-07-29_22h11.36.792,Simcolourproject_2stim_asymm_v5,2020.2.10,MacIntel,60,61025ae37ef11b136ea224fe,,,,,,,,,3834,86,56,1,0,0,response1disk,,6,17,17,1,0,0,rectangle,17,17,1,0,0,,,,,,,17,17,1,0,0,,1,4,164,117,1,
,,,,,,,,,,,,,FF,,,,,,,,1.534,,,,,,,,,,,,,,,,,,,,,,60fd90280b7a39fc10749665,61036dcb1970c10567783625,2021-07-29_22h11.36.792,Simcolourproject_2stim_asymm_v5,2020.2.10,MacIntel,60,61025ae37ef11b136ea224fe,,,,,,,,,416,54,30,1,0,0,response1disk,,6,-3,-16,1,0,0,rectangle,-3,-16,1,0,0,,,,,,,-3,-16,1,0,0,,1,5,165,154,1,
,,,,,,,,,,,,,FF,,,,,,,,1.583,,,,,,,,,,,,,,,,,,,,,,60fd90280b7a39fc10749665,61036dcb1970c10567783625,2021-07-29_22h11.36.792,Simcolourproject_2stim_asymm_v5,2020.2.10,MacIntel,60,61025ae37ef11b136ea224fe,,,,,,,,,1702,33,58,1,0,0,response1disk,,7,14,13,1,0,0,rectangle,14,13,1,0,0,,,,,,,14,13,1,0,0,,1,6,166,75,1,
,,,,,,,,,,,,,FF,,,,,,,,1.217,,,,,,,,,,,,,,,,,,,,,,60fd90280b7a39fc10749665,61036dcb1970c10567783625,2021-07-29_22h11.36.792,Simcolourproject_2stim_asymm_v5,2020.2.10,MacIntel,60,61025ae37ef11b136ea224fe,,,,,,,,,103,55,-31,1,0,0,response3disk,,5,12,3,1,0,0,rectangle,12,3,1,0,0,,,,,,,12,3,1,0,0,,1,7,167,76,1,
,,,,,,,,,,,,,FF,,,,,,,,1.583,,,,,,,,,,,,,,,,,,,,,,60fd90280b7a39fc10749665,61036dcb1970c10567783625,2021-07-29_22h11.36.792,Simcolourproject_2stim_asymm_v5,2020.2.10,MacIntel,60,61025ae37ef11b136ea224fe,,,,,,,,,2809,59,-31,1,0,0,response3disk,,5,22,-16,1,0,0,rectangle,22,-16,1,0,0,,,,,,,22,-16,1,0,0,,1,8,168,6,1,
,,,,,,,,,,,,,FF,,,,,,,,2.099,,,,,,,,,,,,,,,,,,,,,,60fd90280b7a39fc10749665,61036dcb1970c10567783625,2021-07-29_22h11.36.792,Simcolourproject_2stim_asymm_v5,2020.2.10,MacIntel,60,61025ae37ef11b136ea224fe,,,,,,,,,1176,50,81,1,0,0,response1disk,,7,2,1,1,0,0,rectangle,2,1,1,0,0,,,,,,,2,1,1,0,0,,1,9,169,11,1,
,,,,,,,,,,,,,FF,,,,,,,,1.134,,,,,,,,,,,,,,,,,,,,,,60fd90280b7a39fc10749665,61036dcb1970c10567783625,2021-07-29_22h11.36.792,Simcolourproject_2stim_asymm_v5,2020.2.10,MacIntel,60,61025ae37ef11b136ea224fe,,,,,,,,,990,92,-42,1,0,0,response3disk,,5,16,-10,1,0,0,rectangle,16,-10,1,0,0,,,,,,,16,-10,1,0,0,,1,10,170,153,1,
,,,,,,,,,,,,,FF,,,,,,,,1.083,,,,,,,,,,,,,,,,,,,,,,60fd90280b7a39fc10749665,61036dcb1970c10567783625,2021-07-29_22h11.36.792,Simcolourproject_2stim_asymm_v5,2020.2.10,MacIntel,60,61025ae37ef11b136ea224fe,,,,,,,,,1997,91,46,1,0,0,response1disk,,6,-4,-8,1,0,0,rectangle,-4,-8,1,0,0,,,,,,,-4,-8,1,0,0,,1,11,171,127,1,
,,,,,,,,,,,,,FF,,,,,,,,1.583,,,,,,,,,,,,,,,,,,,,,,60fd90280b7a39fc10749665,61036dcb1970c10567783625,2021-07-29_22h11.36.792,Simcolourproject_2stim_asymm_v5,2020.2.10,MacIntel,60,61025ae37ef11b136ea224fe,,,,,,,,,3281,69,24,1,0,0,response1disk,,6,5,11,1,0,0,rectangle,5,11,1,0,0,,,,,,,5,11,1,0,0,,1,12,172,1,1,
,,,,,,,,,,,,,FF,,,,,,,,2.1,,,,,,,,,,,,,,,,,,,,,,60fd90280b7a39fc10749665,61036dcb1970c10567783625,2021-07-29_22h11.36.792,Simcolourproject_2stim_asymm_v5,2020.2.10,MacIntel,60,61025ae37ef11b136ea224fe,,,,,,,,,2198,86,43,1,0,0,response1disk,,6,-16,-17,1,0,0,rectangle,-16,-17,1,0,0,,,,,,,-16,-17,1,0,0,,1,13,173,125,1,
,,,,,,,,,,,,,FF,,,,,,,,5.033,,,,,,,,,,,,,,,,,,,,,,60fd90280b7a39fc10749665,61036dcb1970c10567783625,2021-07-29_22h11.36.792,Simcolourproject_2stim_asymm_v5,2020.2.10,MacIntel,60,61025ae37ef11b136ea224fe,,,,,,,,,3222,52,67,1,0,0,response1disk,,7,-15,-8,1,0,0,rectangle,-15,-8,1,0,0,,,,,,,-15,-8,1,0,0,,1,14,174,111,1,
,,,,,,,,,,,,,FF,,,,,,,,1.116,,,,,,,,,,,,,,,,,,,,,,60fd90280b7a39fc10749665,61036dcb1970c10567783625,2021-07-29_22h11.36.792,Simcolourproject_2stim_asymm_v5,2020.2.10,MacIntel,60,61025ae37ef11b136ea224fe,,,,,,,,,3107,-78,-45,1,0,0,response5disk,,2,-19,-18,1,0,0,rectangle,-19,-18,1,0,0,,,,,,,-19,-18,1,0,0,,1,15,175,39,1,
,,,,,,,,,,,,,FF,,,,,,,,2.083,,,,,,,,,,,,,,,,,,,,,,60fd90280b7a39fc10749665,61036dcb1970c10567783625,2021-07-29_22h11.36.792,Simcolourproject_2stim_asymm_v5,2020.2.10,MacIntel,60,61025ae37ef11b136ea224fe,,,,,,,,,1328,34,-43,1,0,0,response3disk,,4,-1,6,1,0,0,rectangle,-1,6,1,0,0,,,,,,,-1,6,1,0,0,,1,16,176,139,1,
,,,,,,,,,,,,,FF,,,,,,,,1.366,,,,,,,,,,,,,,,,,,,,,,60fd90280b7a39fc10749665,61036dcb1970c10567783625,2021-07-29_22h11.36.792,Simcolourproject_2stim_asymm_v5,2020.2.10,MacIntel,60,61025ae37ef11b136ea224fe,,,,,,,,,4037,59,-18,1,0,0,response3disk,,5,5,9,1,0,0,rectangle,5,9,1,0,0,,,,,,,5,9,1,0,0,,1,17,177,101,1,
,,,,,,,,,,,,,FF,,,,,,,,1.883,,,,,,,,,,,,,,,,,,,,,,60fd90280b7a39fc10749665,61036dcb1970c10567783625,2021-07-29_22h11.36.792,Simcolourproject_2stim_asymm_v5,2020.2.10,MacIntel,60,61025ae37ef11b136ea224fe,,,,,,,,,4201,-98,-25,1,0,0,response5disk,,2,6,5,1,0,0,rectangle,6,5,1,0,0,,,,,,,6,5,1,0,0,,1,18,178,18,1,
,,,,,,,,,,,,,FF,,,,,,,,1.466,,,,,,,,,,,,,,,,,,,,,,60fd90280b7a39fc10749665,61036dcb1970c10567783625,2021-07-29_22h11.36.792,Simcolourproject_2stim_asymm_v5,2020.2.10,MacIntel,60,61025ae37ef11b136ea224fe,,,,,,,,,3633,-28,-59,1,0,0,response5disk,,3,-12,-9,1,0,0,rectangle,-12,-9,1,0,0,,,,,,,-12,-9,1,0,0,,1,19,179,42,1,
,,,,,,,,,,,,,FF,,,,,,,,2.083,,,,,,,,,,,,,,,,,,,,,,60fd90280b7a39fc10749665,61036dcb1970c10567783625,2021-07-29_22h11.36.792,Simcolourproject_2stim_asymm_v5,2020.2.10,MacIntel,60,61025ae37ef11b136ea224fe,,,,,,,,,3692,51,-38,1,0,0,response3disk,,5,5,-1,1,0,0,rectangle,46,-92,1,0,0,response3disk_3,TRUE,4,4,"[2,134,51,145,47,320,152,309,1,60,262,283,181,45,14,267,20,251,82,267]",1.383,17,1,1,0,0,rectangle,1,20,180,10,1,
,,,,,,,,,,,,,FF,,,,,,,,1.551,,,,,,,,,,,,,,,,,,,,,,60fd90280b7a39fc10749665,61036dcb1970c10567783625,2021-07-29_22h11.36.792,Simcolourproject_2stim_asymm_v5,2020.2.10,MacIntel,60,61025ae37ef11b136ea224fe,,,,,,,,,1652,85,-44,1,0,0,response3disk,,5,10,-1,1,0,0,rectangle,10,-1,1,0,0,,,,,,,10,-1,1,0,0,,1,21,181,17,1,
,,,,,,,,,,,,,FF,,,,,,,,2.299,,,,,,,,,,,,,,,,,,,,,,60fd90280b7a39fc10749665,61036dcb1970c10567783625,2021-07-29_22h11.36.792,Simcolourproject_2stim_asymm_v5,2020.2.10,MacIntel,60,61025ae37ef11b136ea224fe,,,,,,,,,3482,-23,-94,1,0,0,response5disk,,3,-5,10,1,0,0,rectangle,-5,10,1,0,0,,,,,,,-5,10,1,0,0,,1,22,182,60,1,
,,,,,,,,,,,,,FF,,,,,,,,1.6,,,,,,,,,,,,,,,,,,,,,,60fd90280b7a39fc10749665,61036dcb1970c10567783625,2021-07-29_22h11.36.792,Simcolourproject_2stim_asymm_v5,2020.2.10,MacIntel,60,61025ae37ef11b136ea224fe,,,,,,,,,2819,87,18,1,0,0,response1disk,,6,2,5,1,0,0,rectangle,2,5,1,0,0,,,,,,,2,5,1,0,0,,1,23,183,53,1,
,,,,,,,,,,,,,FF,,,,,,,,0.882,,,,,,,,,,,,,,,,,,,,,,60fd90280b7a39fc10749665,61036dcb1970c10567783625,2021-07-29_22h11.36.792,Simcolourproject_2stim_asymm_v5,2020.2.10,MacIntel,60,61025ae37ef11b136ea224fe,,,,,,,,,3290,-29,58,1,0,0,response7disk,,0,-12,3,1,0,0,rectangle,-12,3,1,0,0,,,,,,,-12,3,1,0,0,,1,24,184,102,1,
,,,,,,,,,,,,,FF,,,,,,,,0.715,,,,,,,,,,,,,,,,,,,,,,60fd90280b7a39fc10749665,61036dcb1970c10567783625,2021-07-29_22h11.36.792,Simcolourproject_2stim_asymm_v5,2020.2.10,MacIntel,60,61025ae37ef11b136ea224fe,,,,,,,,,4365,-35,67,1,0,0,response7disk,,0,-10,9,1,0,0,rectangle,-10,9,1,0,0,,,,,,,-10,9,1,0,0,,1,25,185,142,1,
,,,,,,,,,,,,,FF,,,,,,,,2.167,,,,,,,,,,,,,,,,,,,,,,60fd90280b7a39fc10749665,61036dcb1970c10567783625,2021-07-29_22h11.36.792,Simcolourproject_2stim_asymm_v5,2020.2.10,MacIntel,60,61025ae37ef11b136ea224fe,,,,,,,,,1725,40,56,1,0,0,response1disk,,7,7,-1,1,0,0,rectangle,7,-1,1,0,0,,,,,,,7,-1,1,0,0,,1,26,186,77,1,
,,,,,,,,,,,,,FF,,,,,,,,1.166,,,,,,,,,,,,,,,,,,,,,,60fd90280b7a39fc10749665,61036dcb1970c10567783625,2021-07-29_22h11.36.792,Simcolourproject_2stim_asymm_v5,2020.2.10,MacIntel,60,61025ae37ef11b136ea224fe,,,,,,,,,81,-81,-47,1,0,0,response5disk,,2,-7,-6,1,0,0,rectangle,-7,-6,1,0,0,,,,,,,-7,-6,1,0,0,,1,27,187,58,1,
,,,,,,,,,,,,,FF,,,,,,,,4.833,,,,,,,,,,,,,,,,,,,,,,60fd90280b7a39fc10749665,61036dcb1970c10567783625,2021-07-29_22h11.36.792,Simcolourproject_2stim_asymm_v5,2020.2.10,MacIntel,60,61025ae37ef11b136ea224fe,,,,,,,,,1009,97,37,1,0,0,response1disk,,6,5,13,1,0,0,rectangle,5,13,1,0,0,,,,,,,5,13,1,0,0,,1,28,188,85,1,
,,,,,,,,,,,,,FF,,,,,,,,0.782,,,,,,,,,,,,,,,,,,,,,,60fd90280b7a39fc10749665,61036dcb1970c10567783625,2021-07-29_22h11.36.792,Simcolourproject_2stim_asymm_v5,2020.2.10,MacIntel,60,61025ae37ef11b136ea224fe,,,,,,,,,801,-40,93,1,0,0,response7disk,,0,6,8,1,0,0,rectangle,6,8,1,0,0,,,,,,,6,8,1,0,0,,1,29,189,116,1,
,,,,,,,,,,,,,FF,,,,,,,,2.049,,,,,,,,,,,,,,,,,,,,,,60fd90280b7a39fc10749665,61036dcb1970c10567783625,2021-07-29_22h11.36.792,Simcolourproject_2stim_asymm_v5,2020.2.10,MacIntel,60,61025ae37ef11b136ea224fe,,,,,,,,,4271,73,39,1,0,0,response1disk,,6,-16,-1,1,0,0,rectangle,-16,-1,1,0,0,,,,,,,-16,-1,1,0,0,,1,30,190,133,1,
,,,,,,,,,,,,,FF,,,,,,,,1.917,,,,,,,,,,,,,,,,,,,,,,60fd90280b7a39fc10749665,61036dcb1970c10567783625,2021-07-29_22h11.36.792,Simcolourproject_2stim_asymm_v5,2020.2.10,MacIntel,60,61025ae37ef11b136ea224fe,,,,,,,,,3070,67,-32,1,0,0,response3disk,,5,17,-14,1,0,0,rectangle,17,-14,1,0,0,,,,,,,17,-14,1,0,0,,1,31,191,152,1,
,,,,,,,,,,,,,FF,,,,,,,,0.883,,,,,,,,,,,,,,,,,,,,,,60fd90280b7a39fc10749665,61036dcb1970c10567783625,2021-07-29_22h11.36.792,Simcolourproject_2stim_asymm_v5,2020.2.10,MacIntel,60,61025ae37ef11b136ea224fe,,,,,,,,,3611,70,-44,1,0,0,response3disk,,5,26,-7,1,0,0,rectangle,26,-7,1,0,0,,,,,,,26,-7,1,0,0,,1,32,192,119,1,
,,,,,,,,,,,,,FF,,,,,,,,2.017,,,,,,,,,,,,,,,,,,,,,,60fd90280b7a39fc10749665,61036dcb1970c10567783625,2021-07-29_22h11.36.792,Simcolourproject_2stim_asymm_v5,2020.2.10,MacIntel,60,61025ae37ef11b136ea224fe,,,,,,,,,1988,22,80,1,0,0,response1disk,,7,3,7,1,0,0,rectangle,3,7,1,0,0,,,,,,,3,7,1,0,0,,1,33,193,156,1,
,,,,,,,,,,,,,FF,,,,,,,,2.533,,,,,,,,,,,,,,,,,,,,,,60fd90280b7a39fc10749665,61036dcb1970c10567783625,2021-07-29_22h11.36.792,Simcolourproject_2stim_asymm_v5,2020.2.10,MacIntel,60,61025ae37ef11b136ea224fe,,,,,,,,,3144,81,43,1,0,0,response1disk,,6,14,10,1,0,0,rectangle,14,10,1,0,0,,,,,,,14,10,1,0,0,,1,34,194,159,1,
,,,,,,,,,,,,,FF,,,,,,,,1.134,,,,,,,,,,,,,,,,,,,,,,60fd90280b7a39fc10749665,61036dcb1970c10567783625,2021-07-29_22h11.36.792,Simcolourproject_2stim_asymm_v5,2020.2.10,MacIntel,60,61025ae37ef11b136ea224fe,,,,,,,,,530,74,-46,1,0,0,response3disk,,5,8,5,1,0,0,rectangle,8,5,1,0,0,,,,,,,8,5,1,0,0,,1,35,195,9,1,
,,,,,,,,,,,,,FF,,,,,,,,1.966,,,,,,,,,,,,,,,,,,,,,,60fd90280b7a39fc10749665,61036dcb1970c10567783625,2021-07-29_22h11.36.792,Simcolourproject_2stim_asymm_v5,2020.2.10,MacIntel,60,61025ae37ef11b136ea224fe,,,,,,,,,1209,101,65,1,0,0,response1disk,,6,-18,-4,1,0,0,rectangle,-18,-4,1,0,0,,,,,,,-18,-4,1,0,0,,1,36,196,7,1,
,,,,,,,,,,,,,FF,,,,,,,,1.034,,,,,,,,,,,,,,,,,,,,,,60fd90280b7a39fc10749665,61036dcb1970c10567783625,2021-07-29_22h11.36.792,Simcolourproject_2stim_asymm_v5,2020.2.10,MacIntel,60,61025ae37ef11b136ea224fe,,,,,,,,,1605,16,-53,1,0,0,response3disk,,4,2,5,1,0,0,rectangle,2,5,1,0,0,,,,,,,2,5,1,0,0,,1,37,197,148,1,
,,,,,,,,,,,,,FF,,,,,,,,0.683,,,,,,,,,,,,,,,,,,,,,,60fd90280b7a39fc10749665,61036dcb1970c10567783625,2021-07-29_22h11.36.792,Simcolourproject_2stim_asymm_v5,2020.2.10,MacIntel,60,61025ae37ef11b136ea224fe,,,,,,,,,1672,40,-50,1,0,0,response3disk,,4,12,3,1,0,0,rectangle,12,3,1,0,0,,,,,,,12,3,1,0,0,,1,38,198,27,1,
,,,,,,,,,,,,,FF,,,,,,,,0.867,,,,,,,,,,,,,,,,,,,,,,60fd90280b7a39fc10749665,61036dcb1970c10567783625,2021-07-29_22h11.36.792,Simcolourproject_2stim_asymm_v5,2020.2.10,MacIntel,60,61025ae37ef11b136ea224fe,,,,,,,,,632,-39,-62,1,0,0,response5disk,,3,-14,2,1,0,0,rectangle,-14,2,1,0,0,,,,,,,-14,2,1,0,0,,1,39,199,110,1,
,,,,,,,,,,,,,FF,,,,,,,,1.616,,,,,,,,,,,,,,,,,,,,,,60fd90280b7a39fc10749665,61036dcb1970c10567783625,2021-07-29_22h11.36.792,Simcolourproject_2stim_asymm_v5,2020.2.10,MacIntel,60,61025ae37ef11b136ea224fe,,,,,,,,,989,37,-70,1,0,0,response3disk,,4,10,3,1,0,0,rectangle,10,3,1,0,0,,,,,,,10,3,1,0,0,,1,40,200,49,1,
,,,,,,,,,,,,,FF,,,,,,,,1.283,,,,,,,,,,,,,,,,,,,,,,60fd90280b7a39fc10749665,61036dcb1970c10567783625,2021-07-29_22h11.36.792,Simcolourproject_2stim_asymm_v5,2020.2.10,MacIntel,60,61025ae37ef11b136ea224fe,,,,,,,,,3581,36,60,1,0,0,response1disk,,7,-12,-6,1,0,0,rectangle,-12,-6,1,0,0,,,,,,,-12,-6,1,0,0,,1,41,201,47,1,
,,,,,,,,,,,,,FF,,,,,,,,1.917,,,,,,,,,,,,,,,,,,,,,,60fd90280b7a39fc10749665,61036dcb1970c10567783625,2021-07-29_22h11.36.792,Simcolourproject_2stim_asymm_v5,2020.2.10,MacIntel,60,61025ae37ef11b136ea224fe,,,,,,,,,4337,-53,-89,1,0,0,response5disk,,3,-9,2,1,0,0,rectangle,-9,2,1,0,0,,,,,,,-9,2,1,0,0,,1,42,202,83,1,
,,,,,,,,,,,,,FF,,,,,,,,0.982,,,,,,,,,,,,,,,,,,,,,,60fd90280b7a39fc10749665,61036dcb1970c10567783625,2021-07-29_22h11.36.792,Simcolourproject_2stim_asymm_v5,2020.2.10,MacIntel,60,61025ae37ef11b136ea224fe,,,,,,,,,2045,89,-16,1,0,0,response3disk,,5,-1,2,1,0,0,rectangle,-1,2,1,0,0,,,,,,,-1,2,1,0,0,,1,43,203,97,1,
,,,,,,,,,,,,,FF,,,,,,,,1.549,,,,,,,,,,,,,,,,,,,,,,60fd90280b7a39fc10749665,61036dcb1970c10567783625,2021-07-29_22h11.36.792,Simcolourproject_2stim_asymm_v5,2020.2.10,MacIntel,60,61025ae37ef11b136ea224fe,,,,,,,,,2214,82,34,1,0,0,response1disk,,6,16,10,1,0,0,rectangle,16,10,1,0,0,,,,,,,16,10,1,0,0,,1,44,204,132,1,
,,,,,,,,,,,,,FF,,,,,,,,2.433,,,,,,,,,,,,,,,,,,,,,,60fd90280b7a39fc10749665,61036dcb1970c10567783625,2021-07-29_22h11.36.792,Simcolourproject_2stim_asymm_v5,2020.2.10,MacIntel,60,61025ae37ef11b136ea224fe,,,,,,,,,380,50,-77,1,0,0,response3disk,,4,23,2,1,0,0,rectangle,23,2,1,0,0,,,,,,,23,2,1,0,0,,1,45,205,120,1,
,,,,,,,,,,,,,FF,,,,,,,,1.434,,,,,,,,,,,,,,,,,,,,,,60fd90280b7a39fc10749665,61036dcb1970c10567783625,2021-07-29_22h11.36.792,Simcolourproject_2stim_asymm_v5,2020.2.10,MacIntel,60,61025ae37ef11b136ea224fe,,,,,,,,,4025,43,68,1,0,0,response1disk,,7,5,3,1,0,0,rectangle,5,3,1,0,0,,,,,,,5,3,1,0,0,,1,46,206,62,1,
,,,,,,,,,,,,,FF,,,,,,,,1.3,,,,,,,,,,,,,,,,,,,,,,60fd90280b7a39fc10749665,61036dcb1970c10567783625,2021-07-29_22h11.36.792,Simcolourproject_2stim_asymm_v5,2020.2.10,MacIntel,60,61025ae37ef11b136ea224fe,,,,,,,,,1007,62,27,1,0,0,response1disk,,6,11,-1,1,0,0,rectangle,11,-1,1,0,0,,,,,,,11,-1,1,0,0,,1,47,207,130,1,
,,,,,,,,,,,,,FF,,,,,,,,2.049,,,,,,,,,,,,,,,,,,,,,,60fd90280b7a39fc10749665,61036dcb1970c10567783625,2021-07-29_22h11.36.792,Simcolourproject_2stim_asymm_v5,2020.2.10,MacIntel,60,61025ae37ef11b136ea224fe,,,,,,,,,4333,33,85,1,0,0,response1disk,,7,-10,-8,1,0,0,rectangle,-10,-8,1,0,0,,,,,,,-10,-8,1,0,0,,1,48,208,86,1,
,,,,,,,,,,,,,FF,,,,,,,,1.201,,,,,,,,,,,,,,,,,,,,,,60fd90280b7a39fc10749665,61036dcb1970c10567783625,2021-07-29_22h11.36.792,Simcolourproject_2stim_asymm_v5,2020.2.10,MacIntel,60,61025ae37ef11b136ea224fe,,,,,,,,,1459,-50,-81,1,0,0,response5disk,,3,5,8,1,0,0,rectangle,5,8,1,0,0,,,,,,,5,8,1,0,0,,1,49,209,92,1,
,,,,,,,,,,,,,FF,,,,,,,,1.466,,,,,,,,,,,,,,,,,,,,,,60fd90280b7a39fc10749665,61036dcb1970c10567783625,2021-07-29_22h11.36.792,Simcolourproject_2stim_asymm_v5,2020.2.10,MacIntel,60,61025ae37ef11b136ea224fe,,,,,,,,,791,-33,-61,1,0,0,response5disk,,3,-10,-6,1,0,0,rectangle,-10,-6,1,0,0,,,,,,,-10,-6,1,0,0,,1,50,210,52,1,
,,,,,,,,,,,,,FF,,,,,,,,1.149,,,,,,,,,,,,,,,,,,,,,,60fd90280b7a39fc10749665,61036dcb1970c10567783625,2021-07-29_22h11.36.792,Simcolourproject_2stim_asymm_v5,2020.2.10,MacIntel,60,61025ae37ef11b136ea224fe,,,,,,,,,4213,67,-39,1,0,0,response3disk,,5,10,0,1,0,0,rectangle,10,0,1,0,0,,,,,,,10,0,1,0,0,,1,51,211,103,1,
,,,,,,,,,,,,,FF,,,,,,,,1.218,,,,,,,,,,,,,,,,,,,,,,60fd90280b7a39fc10749665,61036dcb1970c10567783625,2021-07-29_22h11.36.792,Simcolourproject_2stim_asymm_v5,2020.2.10,MacIntel,60,61025ae37ef11b136ea224fe,,,,,,,,,1551,91,44,1,0,0,response1disk,,6,25,9,1,0,0,rectangle,25,9,1,0,0,,,,,,,25,9,1,0,0,,1,52,212,87,1,
,,,,,,,,,,,,,FF,,,,,,,,1.466,,,,,,,,,,,,,,,,,,,,,,60fd90280b7a39fc10749665,61036dcb1970c10567783625,2021-07-29_22h11.36.792,Simcolourproject_2stim_asymm_v5,2020.2.10,MacIntel,60,61025ae37ef11b136ea224fe,,,,,,,,,1335,103,67,1,0,0,response1disk,,6,4,16,1,0,0,rectangle,4,16,1,0,0,,,,,,,4,16,1,0,0,,1,53,213,41,1,
,,,,,,,,,,,,,FF,,,,,,,,1.733,,,,,,,,,,,,,,,,,,,,,,60fd90280b7a39fc10749665,61036dcb1970c10567783625,2021-07-29_22h11.36.792,Simcolourproject_2stim_asymm_v5,2020.2.10,MacIntel,60,61025ae37ef11b136ea224fe,,,,,,,,,3948,99,-27,1,0,0,response3disk,,5,26,-7,1,0,0,rectangle,26,-7,1,0,0,,,,,,,26,-7,1,0,0,,1,54,214,137,1,
,,,,,,,,,,,,,FF,,,,,,,,1.265,,,,,,,,,,,,,,,,,,,,,,60fd90280b7a39fc10749665,61036dcb1970c10567783625,2021-07-29_22h11.36.792,Simcolourproject_2stim_asymm_v5,2020.2.10,MacIntel,60,61025ae37ef11b136ea224fe,,,,,,,,,2740,63,81,1,0,0,response1disk,,7,-5,-11,1,0,0,rectangle,-5,-11,1,0,0,,,,,,,-5,-11,1,0,0,,1,55,215,54,1,
,,,,,,,,,,,,,FF,,,,,,,,1.478,,,,,,,,,,,,,,,,,,,,,,60fd90280b7a39fc10749665,61036dcb1970c10567783625,2021-07-29_22h11.36.792,Simcolourproject_2stim_asymm_v5,2020.2.10,MacIntel,60,61025ae37ef11b136ea224fe,,,,,,,,,650,89,-56,1,0,0,response3disk,,5,6,7,1,0,0,rectangle,6,7,1,0,0,,,,,,,6,7,1,0,0,,1,56,216,14,1,
,,,,,,,,,,,,,FF,,,,,,,,1.399,,,,,,,,,,,,,,,,,,,,,,60fd90280b7a39fc10749665,61036dcb1970c10567783625,2021-07-29_22h11.36.792,Simcolourproject_2stim_asymm_v5,2020.2.10,MacIntel,60,61025ae37ef11b136ea224fe,,,,,,,,,865,47,108,1,0,0,response1disk,,7,-5,-4,1,0,0,rectangle,-5,-4,1,0,0,,,,,,,-5,-4,1,0,0,,1,57,217,91,1,
,,,,,,,,,,,,,FF,,,,,,,,1.533,,,,,,,,,,,,,,,,,,,,,,60fd90280b7a39fc10749665,61036dcb1970c10567783625,2021-07-29_22h11.36.792,Simcolourproject_2stim_asymm_v5,2020.2.10,MacIntel,60,61025ae37ef11b136ea224fe,,,,,,,,,3548,59,-35,1,0,0,response3disk,,5,-3,4,1,0,0,rectangle,-3,4,1,0,0,,,,,,,-3,4,1,0,0,,1,58,218,13,1,
,,,,,,,,,,,,,FF,,,,,,,,1.416,,,,,,,,,,,,,,,,,,,,,,60fd90280b7a39fc10749665,61036dcb1970c10567783625,2021-07-29_22h11.36.792,Simcolourproject_2stim_asymm_v5,2020.2.10,MacIntel,60,61025ae37ef11b136ea224fe,,,,,,,,,2505,76,39,1,0,0,response1disk,,6,-3,3,1,0,0,rectangle,-3,3,1,0,0,,,,,,,-3,3,1,0,0,,1,59,219,155,1,
,,,,,,,,,,,,,FF,,,,,,,,2.284,,,,,,,,,,,,,,,,,,,,,,60fd90280b7a39fc10749665,61036dcb1970c10567783625,2021-07-29_22h11.36.792,Simcolourproject_2stim_asymm_v5,2020.2.10,MacIntel,60,61025ae37ef11b136ea224fe,,,,,,,,,2623,45,22,1,0,0,response1disk,,6,20,6,1,0,0,rectangle,20,6,1,0,0,,,,,,,20,6,1,0,0,,1,60,220,96,1,
,,,,,,,,,,,,,FF,,,,,,,,1.283,,,,,,,,,,,,,,,,,,,,,,60fd90280b7a39fc10749665,61036dcb1970c10567783625,2021-07-29_22h11.36.792,Simcolourproject_2stim_asymm_v5,2020.2.10,MacIntel,60,61025ae37ef11b136ea224fe,,,,,,,,,3259,-28,-56,1,0,0,response5disk,,3,-6,-1,1,0,0,rectangle,-6,-1,1,0,0,,,,,,,-6,-1,1,0,0,,1,61,221,93,1,
,,,,,,,,,,,,,FF,,,,,,,,3.299,,,,,,,,,,,,,,,,,,,,,,60fd90280b7a39fc10749665,61036dcb1970c10567783625,2021-07-29_22h11.36.792,Simcolourproject_2stim_asymm_v5,2020.2.10,MacIntel,60,61025ae37ef11b136ea224fe,,,,,,,,,2695,90,-32,1,0,0,response3disk,,5,-15,-8,1,0,0,rectangle,-15,-8,1,0,0,,,,,,,-15,-8,1,0,0,,1,62,222,61,1,
,,,,,,,,,,,,,FF,,,,,,,,1.033,,,,,,,,,,,,,,,,,,,,,,60fd90280b7a39fc10749665,61036dcb1970c10567783625,2021-07-29_22h11.36.792,Simcolourproject_2stim_asymm_v5,2020.2.10,MacIntel,60,61025ae37ef11b136ea224fe,,,,,,,,,509,40,82,1,0,0,response1disk,,7,9,-3,1,0,0,rectangle,9,-3,1,0,0,,,,,,,9,-3,1,0,0,,1,63,223,15,1,
,,,,,,,,,,,,,FF,,,,,,,,1.183,,,,,,,,,,,,,,,,,,,,,,60fd90280b7a39fc10749665,61036dcb1970c10567783625,2021-07-29_22h11.36.792,Simcolourproject_2stim_asymm_v5,2020.2.10,MacIntel,60,61025ae37ef11b136ea224fe,,,,,,,,,1877,72,28,1,0,0,response1disk,,6,14,8,1,0,0,rectangle,14,8,1,0,0,,,,,,,14,8,1,0,0,,1,64,224,138,1,
,,,,,,,,,,,,,FF,,,,,,,,1.633,,,,,,,,,,,,,,,,,,,,,,60fd90280b7a39fc10749665,61036dcb1970c10567783625,2021-07-29_22h11.36.792,Simcolourproject_2stim_asymm_v5,2020.2.10,MacIntel,60,61025ae37ef11b136ea224fe,,,,,,,,,4017,51,105,1,0,0,response1disk,,7,17,12,1,0,0,rectangle,17,12,1,0,0,,,,,,,17,12,1,0,0,,1,65,225,136,1,
,,,,,,,,,,,,,FF,,,,,,,,1.416,,,,,,,,,,,,,,,,,,,,,,60fd90280b7a39fc10749665,61036dcb1970c10567783625,2021-07-29_22h11.36.792,Simcolourproject_2stim_asymm_v5,2020.2.10,MacIntel,60,61025ae37ef11b136ea224fe,,,,,,,,,29,95,-24,1,0,0,response3disk,,5,9,-4,1,0,0,rectangle,9,-4,1,0,0,,,,,,,9,-4,1,0,0,,1,66,226,109,1,
,,,,,,,,,,,,,FF,,,,,,,,2.867,,,,,,,,,,,,,,,,,,,,,,60fd90280b7a39fc10749665,61036dcb1970c10567783625,2021-07-29_22h11.36.792,Simcolourproject_2stim_asymm_v5,2020.2.10,MacIntel,60,61025ae37ef11b136ea224fe,,,,,,,,,698,22,-84,1,0,0,response3disk,,4,3,-2,1,0,0,rectangle,3,-2,1,0,0,,,,,,,3,-2,1,0,0,,1,67,227,112,1,
,,,,,,,,,,,,,FF,,,,,,,,5.501,,,,,,,,,,,,,,,,,,,,,,60fd90280b7a39fc10749665,61036dcb1970c10567783625,2021-07-29_22h11.36.792,Simcolourproject_2stim_asymm_v5,2020.2.10,MacIntel,60,61025ae37ef11b136ea224fe,,,,,,,,,2381,39,102,1,0,0,response1disk,,7,4,8,1,0,0,rectangle,4,8,1,0,0,,,,,,,4,8,1,0,0,,1,68,228,82,1,
,,,,,,,,,,,,,FF,,,,,,,,1.732,,,,,,,,,,,,,,,,,,,,,,60fd90280b7a39fc10749665,61036dcb1970c10567783625,2021-07-29_22h11.36.792,Simcolourproject_2stim_asymm_v5,2020.2.10,MacIntel,60,61025ae37ef11b136ea224fe,,,,,,,,,2744,90,40,1,0,0,response1disk,,6,-1,-1,1,0,0,rectangle,-1,-1,1,0,0,,,,,,,-1,-1,1,0,0,,1,69,229,74,1,
,,,,,,,,,,,,,FF,,,,,,,,2.066,,,,,,,,,,,,,,,,,,,,,,60fd90280b7a39fc10749665,61036dcb1970c10567783625,2021-07-29_22h11.36.792,Simcolourproject_2stim_asymm_v5,2020.2.10,MacIntel,60,61025ae37ef11b136ea224fe,,,,,,,,,1407,124,67,1,0,0,response1disk,,6,23,14,1,0,0,rectangle,23,14,1,0,0,,,,,,,23,14,1,0,0,,1,70,230,30,1,
,,,,,,,,,,,,,FF,,,,,,,,1.6,,,,,,,,,,,,,,,,,,,,,,60fd90280b7a39fc10749665,61036dcb1970c10567783625,2021-07-29_22h11.36.792,Simcolourproject_2stim_asymm_v5,2020.2.10,MacIntel,60,61025ae37ef11b136ea224fe,,,,,,,,,1882,108,65,1,0,0,response1disk,,6,20,14,1,0,0,rectangle,20,14,1,0,0,,,,,,,20,14,1,0,0,,1,71,231,68,1,
,,,,,,,,,,,,,FF,,,,,,,,2.666,,,,,,,,,,,,,,,,,,,,,,60fd90280b7a39fc10749665,61036dcb1970c10567783625,2021-07-29_22h11.36.792,Simcolourproject_2stim_asymm_v5,2020.2.10,MacIntel,60,61025ae37ef11b136ea224fe,,,,,,,,,2012,49,74,1,0,0,response1disk,,7,17,4,1,0,0,rectangle,17,4,1,0,0,,,,,,,17,4,1,0,0,,1,72,232,150,1,
,,,,,,,,,,,,,FF,,,,,,,,0.883,,,,,,,,,,,,,,,,,,,,,,60fd90280b7a39fc10749665,61036dcb1970c10567783625,2021-07-29_22h11.36.792,Simcolourproject_2stim_asymm_v5,2020.2.10,MacIntel,60,61025ae37ef11b136ea224fe,,,,,,,,,2488,80,-23,1,0,0,response3disk,,5,17,-7,1,0,0,rectangle,17,-7,1,0,0,,,,,,,17,-7,1,0,0,,1,73,233,141,1,
,,,,,,,,,,,,,FF,,,,,,,,0.966,,,,,,,,,,,,,,,,,,,,,,60fd90280b7a39fc10749665,61036dcb1970c10567783625,2021-07-29_22h11.36.792,Simcolourproject_2stim_asymm_v5,2020.2.10,MacIntel,60,61025ae37ef11b136ea224fe,,,,,,,,,3196,-29,-79,1,0,0,response5disk,,3,5,-5,1,0,0,rectangle,5,-5,1,0,0,,,,,,,5,-5,1,0,0,,1,74,234,46,1,
,,,,,,,,,,,,,FF,,,,,,,,1.016,,,,,,,,,,,,,,,,,,,,,,60fd90280b7a39fc10749665,61036dcb1970c10567783625,2021-07-29_22h11.36.792,Simcolourproject_2stim_asymm_v5,2020.2.10,MacIntel,60,61025ae37ef11b136ea224fe,,,,,,,,,3652,93,55,1,0,0,response1disk,,6,-3,-2,1,0,0,rectangle,-3,-2,1,0,0,,,,,,,-3,-2,1,0,0,,1,75,235,38,1,
,,,,,,,,,,,,,FF,,,,,,,,1.716,,,,,,,,,,,,,,,,,,,,,,60fd90280b7a39fc10749665,61036dcb1970c10567783625,2021-07-29_22h11.36.792,Simcolourproject_2stim_asymm_v5,2020.2.10,MacIntel,60,61025ae37ef11b136ea224fe,,,,,,,,,3062,106,62,1,0,0,response1disk,,6,-5,-2,1,0,0,rectangle,-5,-2,1,0,0,,,,,,,-5,-2,1,0,0,,1,76,236,131,1,
,,,,,,,,,,,,,FF,,,,,,,,1.584,,,,,,,,,,,,,,,,,,,,,,60fd90280b7a39fc10749665,61036dcb1970c10567783625,2021-07-29_22h11.36.792,Simcolourproject_2stim_asymm_v5,2020.2.10,MacIntel,60,61025ae37ef11b136ea224fe,,,,,,,,,3238,-55,-69,1,0,0,response5disk,,3,2,1,1,0,0,rectangle,2,1,1,0,0,,,,,,,2,1,1,0,0,,1,77,237,118,1,
,,,,,,,,,,,,,FF,,,,,,,,2.232,,,,,,,,,,,,,,,,,,,,,,60fd90280b7a39fc10749665,61036dcb1970c10567783625,2021-07-29_22h11.36.792,Simcolourproject_2stim_asymm_v5,2020.2.10,MacIntel,60,61025ae37ef11b136ea224fe,,,,,,,,,1026,48,60,1,0,0,response1disk,,7,5,-5,1,0,0,rectangle,5,-5,1,0,0,,,,,,,5,-5,1,0,0,,1,78,238,151,1,
,,,,,,,,,,,,,FF,,,,,,,,1.083,,,,,,,,,,,,,,,,,,,,,,60fd90280b7a39fc10749665,61036dcb1970c10567783625,2021-07-29_22h11.36.792,Simcolourproject_2stim_asymm_v5,2020.2.10,MacIntel,60,61025ae37ef11b136ea224fe,,,,,,,,,4118,-34,71,1,0,0,response7disk,,0,-6,2,1,0,0,rectangle,-6,2,1,0,0,,,,,,,-6,2,1,0,0,,1,79,239,80,1,
,,,,,,,,,,,,,FF,,,,,,,,2.334,,,,,,,,,,,,,,,,,,,,,,60fd90280b7a39fc10749665,61036dcb1970c10567783625,2021-07-29_22h11.36.792,Simcolourproject_2stim_asymm_v5,2020.2.10,MacIntel,60,61025ae37ef11b136ea224fe,,,,,,,,,737,93,49,1,0,0,response1disk,,6,4,-6,1,0,0,rectangle,4,-6,1,0,0,,,,,,,4,-6,1,0,0,,1,80,240,98,1,
,,,,,,,,,,,,,FF,,,,,,,,1.683,,,,,,,,,,,,,,,,,,,,,,60fd90280b7a39fc10749665,61036dcb1970c10567783625,2021-07-29_22h11.36.792,Simcolourproject_2stim_asymm_v5,2020.2.10,MacIntel,60,61025ae37ef11b136ea224fe,,,,,,,,,1611,-99,-49,1,0,0,response5disk,,2,-6,-18,1,0,0,rectangle,-6,-18,1,0,0,,,,,,,-6,-18,1,0,0,,1,81,241,24,1,
,,,,,,,,,,,,,FF,,,,,,,,1.95,,,,,,,,,,,,,,,,,,,,,,60fd90280b7a39fc10749665,61036dcb1970c10567783625,2021-07-29_22h11.36.792,Simcolourproject_2stim_asymm_v5,2020.2.10,MacIntel,60,61025ae37ef11b136ea224fe,,,,,,,,,2808,98,-17,1,0,0,response3disk,,5,-5,-8,1,0,0,rectangle,-5,-8,1,0,0,,,,,,,-5,-8,1,0,0,,1,82,242,2,1,
,,,,,,,,,,,,,FF,,,,,,,,1.233,,,,,,,,,,,,,,,,,,,,,,60fd90280b7a39fc10749665,61036dcb1970c10567783625,2021-07-29_22h11.36.792,Simcolourproject_2stim_asymm_v5,2020.2.10,MacIntel,60,61025ae37ef11b136ea224fe,,,,,,,,,1013,75,26,1,0,0,response1disk,,6,-8,0,1,0,0,rectangle,-8,0,1,0,0,,,,,,,-8,0,1,0,0,,1,83,243,29,1,
,,,,,,,,,,,,,FF,,,,,,,,1.566,,,,,,,,,,,,,,,,,,,,,,60fd90280b7a39fc10749665,61036dcb1970c10567783625,2021-07-29_22h11.36.792,Simcolourproject_2stim_asymm_v5,2020.2.10,MacIntel,60,61025ae37ef11b136ea224fe,,,,,,,,,1555,106,53,1,0,0,response1disk,,6,0,1,1,0,0,rectangle,0,1,1,0,0,,,,,,,0,1,1,0,0,,1,84,244,28,1,
,,,,,,,,,,,,,FF,,,,,,,,1.316,,,,,,,,,,,,,,,,,,,,,,60fd90280b7a39fc10749665,61036dcb1970c10567783625,2021-07-29_22h11.36.792,Simcolourproject_2stim_asymm_v5,2020.2.10,MacIntel,60,61025ae37ef11b136ea224fe,,,,,,,,,538,83,-37,1,0,0,response3disk,,5,15,-6,1,0,0,rectangle,15,-6,1,0,0,,,,,,,15,-6,1,0,0,,1,85,245,22,1,
,,,,,,,,,,,,,FF,,,,,,,,2.734,,,,,,,,,,,,,,,,,,,,,,60fd90280b7a39fc10749665,61036dcb1970c10567783625,2021-07-29_22h11.36.792,Simcolourproject_2stim_asymm_v5,2020.2.10,MacIntel,60,61025ae37ef11b136ea224fe,,,,,,,,,2683,60,54,1,0,0,response1disk,,6,-10,-10,1,0,0,rectangle,-10,-10,1,0,0,,,,,,,-10,-10,1,0,0,,1,86,246,99,1,
,,,,,,,,,,,,,FF,,,,,,,,1.467,,,,,,,,,,,,,,,,,,,,,,60fd90280b7a39fc10749665,61036dcb1970c10567783625,2021-07-29_22h11.36.792,Simcolourproject_2stim_asymm_v5,2020.2.10,MacIntel,60,61025ae37ef11b136ea224fe,,,,,,,,,2565,48,76,1,0,0,response1disk,,7,-5,5,1,0,0,rectangle,-5,5,1,0,0,,,,,,,-5,5,1,0,0,,1,87,247,50,1,
,,,,,,,,,,,,,FF,,,,,,,,2.083,,,,,,,,,,,,,,,,,,,,,,60fd90280b7a39fc10749665,61036dcb1970c10567783625,2021-07-29_22h11.36.792,Simcolourproject_2stim_asymm_v5,2020.2.10,MacIntel,60,61025ae37ef11b136ea224fe,,,,,,,,,3115,65,-25,1,0,0,response3disk,,5,-6,-7,1,0,0,rectangle,-6,-7,1,0,0,,,,,,,-6,-7,1,0,0,,1,88,248,34,1,
,,,,,,,,,,,,,FF,,,,,,,,2.882,,,,,,,,,,,,,,,,,,,,,,60fd90280b7a39fc10749665,61036dcb1970c10567783625,2021-07-29_22h11.36.792,Simcolourproject_2stim_asymm_v5,2020.2.10,MacIntel,60,61025ae37ef11b136ea224fe,,,,,,,,,4358,21,-63,1,0,0,response3disk,,4,-4,-16,1,0,0,rectangle,-4,-16,1,0,0,,,,,,,-4,-16,1,0,0,,1,89,249,90,1,
,,,,,,,,,,,,,FF,,,,,,,,1.799,,,,,,,,,,,,,,,,,,,,,,60fd90280b7a39fc10749665,61036dcb1970c10567783625,2021-07-29_22h11.36.792,Simcolourproject_2stim_asymm_v5,2020.2.10,MacIntel,60,61025ae37ef11b136ea224fe,,,,,,,,,2732,41,-28,1,0,0,response3disk,,5,-1,4,1,0,0,rectangle,24,-98,1,0,0,response3disk_3,TRUE,4,4,"[2,134,51,145,47,320,152,309,1,60,262,283,181,45,14,267,20,251,82,267]",1.433,-8,-12,1,0,0,rectangle,1,90,250,44,1,
,,,,,,,,,,,,,FF,,,,,,,,1.05,,,,,,,,,,,,,,,,,,,,,,60fd90280b7a39fc10749665,61036dcb1970c10567783625,2021-07-29_22h11.36.792,Simcolourproject_2stim_asymm_v5,2020.2.10,MacIntel,60,61025ae37ef11b136ea224fe,,,,,,,,,1954,-50,-77,1,0,0,response5disk,,3,7,7,1,0,0,rectangle,7,7,1,0,0,,,,,,,7,7,1,0,0,,1,91,251,36,1,
,,,,,,,,,,,,,FF,,,,,,,,1.466,,,,,,,,,,,,,,,,,,,,,,60fd90280b7a39fc10749665,61036dcb1970c10567783625,2021-07-29_22h11.36.792,Simcolourproject_2stim_asymm_v5,2020.2.10,MacIntel,60,61025ae37ef11b136ea224fe,,,,,,,,,115,113,32,1,0,0,response1disk,,6,4,13,1,0,0,rectangle,4,13,1,0,0,,,,,,,4,13,1,0,0,,1,92,252,149,1,
,,,,,,,,,,,,,FF,,,,,,,,1.783,,,,,,,,,,,,,,,,,,,,,,60fd90280b7a39fc10749665,61036dcb1970c10567783625,2021-07-29_22h11.36.792,Simcolourproject_2stim_asymm_v5,2020.2.10,MacIntel,60,61025ae37ef11b136ea224fe,,,,,,,,,1401,93,45,1,0,0,response1disk,,6,-8,15,1,0,0,rectangle,-8,15,1,0,0,,,,,,,-8,15,1,0,0,,1,93,253,108,1,
,,,,,,,,,,,,,FF,,,,,,,,1.383,,,,,,,,,,,,,,,,,,,,,,60fd90280b7a39fc10749665,61036dcb1970c10567783625,2021-07-29_22h11.36.792,Simcolourproject_2stim_asymm_v5,2020.2.10,MacIntel,60,61025ae37ef11b136ea224fe,,,,,,,,,4370,-50,85,1,0,0,response7disk,,0,-16,15,1,0,0,rectangle,-16,15,1,0,0,,,,,,,-16,15,1,0,0,,1,94,254,65,1,
,,,,,,,,,,,,,FF,,,,,,,,2.884,,,,,,,,,,,,,,,,,,,,,,60fd90280b7a39fc10749665,61036dcb1970c10567783625,2021-07-29_22h11.36.792,Simcolourproject_2stim_asymm_v5,2020.2.10,MacIntel,60,61025ae37ef11b136ea224fe,,,,,,,,,589,58,102,1,0,0,response1disk,,7,17,1,1,0,0,rectangle,17,1,1,0,0,,,,,,,17,1,1,0,0,,1,95,255,55,1,
,,,,,,,,,,,,,FF,,,,,,,,2.365,,,,,,,,,,,,,,,,,,,,,,60fd90280b7a39fc10749665,61036dcb1970c10567783625,2021-07-29_22h11.36.792,Simcolourproject_2stim_asymm_v5,2020.2.10,MacIntel,60,61025ae37ef11b136ea224fe,,,,,,,,,1615,29,-49,1,0,0,response3disk,,4,1,4,1,0,0,rectangle,1,4,1,0,0,,,,,,,1,4,1,0,0,,1,96,256,129,1,
,,,,,,,,,,,,,FF,,,,,,,,1.55,,,,,,,,,,,,,,,,,,,,,,60fd90280b7a39fc10749665,61036dcb1970c10567783625,2021-07-29_22h11.36.792,Simcolourproject_2stim_asymm_v5,2020.2.10,MacIntel,60,61025ae37ef11b136ea224fe,,,,,,,,,2826,33,-75,1,0,0,response3disk,,4,7,6,1,0,0,rectangle,7,6,1,0,0,,,,,,,7,6,1,0,0,,1,97,257,147,1,
,,,,,,,,,,,,,FF,,,,,,,,1.35,,,,,,,,,,,,,,,,,,,,,,60fd90280b7a39fc10749665,61036dcb1970c10567783625,2021-07-29_22h11.36.792,Simcolourproject_2stim_asymm_v5,2020.2.10,MacIntel,60,61025ae37ef11b136ea224fe,,,,,,,,,758,91,33,1,0,0,response1disk,,6,6,-2,1,0,0,rectangle,6,-2,1,0,0,,,,,,,6,-2,1,0,0,,1,98,258,45,1,
,,,,,,,,,,,,,FF,,,,,,,,1.867,,,,,,,,,,,,,,,,,,,,,,60fd90280b7a39fc10749665,61036dcb1970c10567783625,2021-07-29_22h11.36.792,Simcolourproject_2stim_asymm_v5,2020.2.10,MacIntel,60,61025ae37ef11b136ea224fe,,,,,,,,,1143,-31,-80,1,0,0,response5disk,,3,-10,4,1,0,0,rectangle,-10,4,1,0,0,,,,,,,-10,4,1,0,0,,1,99,259,64,1,
,,,,,,,,,,,,,FF,,,,,,,,3.483,,,,,,,,,,,,,,,,,,,,,,60fd90280b7a39fc10749665,61036dcb1970c10567783625,2021-07-29_22h11.36.792,Simcolourproject_2stim_asymm_v5,2020.2.10,MacIntel,60,61025ae37ef11b136ea224fe,,,,,,,,,3873,105,65,1,0,0,response1disk,,6,16,8,1,0,0,rectangle,16,8,1,0,0,,,,,,,16,8,1,0,0,,1,100,260,100,1,
,,,,,,,,,,,,,FF,,,,,,,,1.433,,,,,,,,,,,,,,,,,,,,,,60fd90280b7a39fc10749665,61036dcb1970c10567783625,2021-07-29_22h11.36.792,Simcolourproject_2stim_asymm_v5,2020.2.10,MacIntel,60,61025ae37ef11b136ea224fe,,,,,,,,,529,-42,-75,1,0,0,response5disk,,3,-15,-11,1,0,0,rectangle,61,19,1,0,0,response1disk_3,TRUE,6,6,"[2,134,51,145,47,320,152,309,1,60,262,283,181,45,14,267,20,251,82,267]",1.582,-5,0,1,0,0,rectangle,1,101,261,71,1,
,,,,,,,,,,,,,FF,,,,,,,,2.217,,,,,,,,,,,,,,,,,,,,,,60fd90280b7a39fc10749665,61036dcb1970c10567783625,2021-07-29_22h11.36.792,Simcolourproject_2stim_asymm_v5,2020.2.10,MacIntel,60,61025ae37ef11b136ea224fe,,,,,,,,,3648,63,35,1,0,0,response1disk,,6,-11,-3,1,0,0,rectangle,-11,-3,1,0,0,,,,,,,-11,-3,1,0,0,,1,102,262,23,1,
,,,,,,,,,,,,,FF,,,,,,,,1.833,,,,,,,,,,,,,,,,,,,,,,60fd90280b7a39fc10749665,61036dcb1970c10567783625,2021-07-29_22h11.36.792,Simcolourproject_2stim_asymm_v5,2020.2.10,MacIntel,60,61025ae37ef11b136ea224fe,,,,,,,,,3940,25,-79,1,0,0,response3disk,,4,3,-13,1,0,0,rectangle,3,-13,1,0,0,,,,,,,3,-13,1,0,0,,1,103,263,94,1,
,,,,,,,,,,,,,FF,,,,,,,,2.582,,,,,,,,,,,,,,,,,,,,,,60fd90280b7a39fc10749665,61036dcb1970c10567783625,2021-07-29_22h11.36.792,Simcolourproject_2stim_asymm_v5,2020.2.10,MacIntel,60,61025ae37ef11b136ea224fe,,,,,,,,,2581,104,49,1,0,0,response1disk,,6,-11,-4,1,0,0,rectangle,-11,-4,1,0,0,,,,,,,-11,-4,1,0,0,,1,104,264,20,1,
,,,,,,,,,,,,,FF,,,,,,,,1.233,,,,,,,,,,,,,,,,,,,,,,60fd90280b7a39fc10749665,61036dcb1970c10567783625,2021-07-29_22h11.36.792,Simcolourproject_2stim_asymm_v5,2020.2.10,MacIntel,60,61025ae37ef11b136ea224fe,,,,,,,,,108,69,-34,1,0,0,response3disk,,5,20,-3,1,0,0,rectangle,20,-3,1,0,0,,,,,,,20,-3,1,0,0,,1,105,265,124,1,
,,,,,,,,,,,,,FF,,,,,,,,0.933,,,,,,,,,,,,,,,,,,,,,,60fd90280b7a39fc10749665,61036dcb1970c10567783625,2021-07-29_22h11.36.792,Simcolourproject_2stim_asymm_v5,2020.2.10,MacIntel,60,61025ae37ef11b136ea224fe,,,,,,,,,3124,50,65,1,0,0,response1disk,,7,13,9,1,0,0,rectangle,-40,-49,1,0,0,response5disk_3,TRUE,3,3,"[2,134,51,145,47,320,152,309,1,60,262,283,181,45,14,267,20,251,82,267]",1.866,-21,-12,1,0,0,rectangle,1,106,266,5,1,
,,,,,,,,,,,,,FF,,,,,,,,2,,,,,,,,,,,,,,,,,,,,,,60fd90280b7a39fc10749665,61036dcb1970c10567783625,2021-07-29_22h11.36.792,Simcolourproject_2stim_asymm_v5,2020.2.10,MacIntel,60,61025ae37ef11b136ea224fe,,,,,,,,,3970,51,-88,1,0,0,response3disk,,4,8,2,1,0,0,rectangle,8,2,1,0,0,,,,,,,8,2,1,0,0,,1,107,267,88,1,
,,,,,,,,,,,,,FF,,,,,,,,1.249,,,,,,,,,,,,,,,,,,,,,,60fd90280b7a39fc10749665,61036dcb1970c10567783625,2021-07-29_22h11.36.792,Simcolourproject_2stim_asymm_v5,2020.2.10,MacIntel,60,61025ae37ef11b136ea224fe,,,,,,,,,760,44,63,1,0,0,response1disk,,7,-8,-16,1,0,0,rectangle,-8,-16,1,0,0,,,,,,,-8,-16,1,0,0,,1,108,268,144,1,
,,,,,,,,,,,,,FF,,,,,,,,1.734,,,,,,,,,,,,,,,,,,,,,,60fd90280b7a39fc10749665,61036dcb1970c10567783625,2021-07-29_22h11.36.792,Simcolourproject_2stim_asymm_v5,2020.2.10,MacIntel,60,61025ae37ef11b136ea224fe,,,,,,,,,2944,-73,-49,1,0,0,response5disk,,2,8,-11,1,0,0,rectangle,8,-11,1,0,0,,,,,,,8,-11,1,0,0,,1,109,269,146,1,
,,,,,,,,,,,,,FF,,,,,,,,1.833,,,,,,,,,,,,,,,,,,,,,,60fd90280b7a39fc10749665,61036dcb1970c10567783625,2021-07-29_22h11.36.792,Simcolourproject_2stim_asymm_v5,2020.2.10,MacIntel,60,61025ae37ef11b136ea224fe,,,,,,,,,814,53,-27,1,0,0,response3disk,,5,9,6,1,0,0,rectangle,9,6,1,0,0,,,,,,,9,6,1,0,0,,1,110,270,106,1,
,,,,,,,,,,,,,FF,,,,,,,,2.148,,,,,,,,,,,,,,,,,,,,,,60fd90280b7a39fc10749665,61036dcb1970c10567783625,2021-07-29_22h11.36.792,Simcolourproject_2stim_asymm_v5,2020.2.10,MacIntel,60,61025ae37ef11b136ea224fe,,,,,,,,,2906,89,60,1,0,0,response1disk,,6,-13,1,1,0,0,rectangle,-13,1,1,0,0,,,,,,,-13,1,1,0,0,,1,111,271,114,1,
,,,,,,,,,,,,,FF,,,,,,,,0.9,,,,,,,,,,,,,,,,,,,,,,60fd90280b7a39fc10749665,61036dcb1970c10567783625,2021-07-29_22h11.36.792,Simcolourproject_2stim_asymm_v5,2020.2.10,MacIntel,60,61025ae37ef11b136ea224fe,,,,,,,,,2638,57,101,1,0,0,response1disk,,7,3,-3,1,0,0,rectangle,3,-3,1,0,0,,,,,,,3,-3,1,0,0,,1,112,272,126,1,
,,,,,,,,,,,,,FF,,,,,,,,0.966,,,,,,,,,,,,,,,,,,,,,,60fd90280b7a39fc10749665,61036dcb1970c10567783625,2021-07-29_22h11.36.792,Simcolourproject_2stim_asymm_v5,2020.2.10,MacIntel,60,61025ae37ef11b136ea224fe,,,,,,,,,931,29,68,1,0,0,response1disk,,7,5,-6,1,0,0,rectangle,5,-6,1,0,0,,,,,,,5,-6,1,0,0,,1,113,273,4,1,
,,,,,,,,,,,,,FF,,,,,,,,1.017,,,,,,,,,,,,,,,,,,,,,,60fd90280b7a39fc10749665,61036dcb1970c10567783625,2021-07-29_22h11.36.792,Simcolourproject_2stim_asymm_v5,2020.2.10,MacIntel,60,61025ae37ef11b136ea224fe,,,,,,,,,413,102,59,1,0,0,response1disk,,6,7,-2,1,0,0,rectangle,7,-2,1,0,0,,,,,,,7,-2,1,0,0,,1,114,274,135,1,
,,,,,,,,,,,,,FF,,,,,,,,1.017,,,,,,,,,,,,,,,,,,,,,,60fd90280b7a39fc10749665,61036dcb1970c10567783625,2021-07-29_22h11.36.792,Simcolourproject_2stim_asymm_v5,2020.2.10,MacIntel,60,61025ae37ef11b136ea224fe,,,,,,,,,1180,112,63,1,0,0,response1disk,,6,20,7,1,0,0,rectangle,20,7,1,0,0,,,,,,,20,7,1,0,0,,1,115,275,113,1,
,,,,,,,,,,,,,FF,,,,,,,,1.516,,,,,,,,,,,,,,,,,,,,,,60fd90280b7a39fc10749665,61036dcb1970c10567783625,2021-07-29_22h11.36.792,Simcolourproject_2stim_asymm_v5,2020.2.10,MacIntel,60,61025ae37ef11b136ea224fe,,,,,,,,,3506,57,-35,1,0,0,response3disk,,5,7,-10,1,0,0,rectangle,7,-10,1,0,0,,,,,,,7,-10,1,0,0,,1,116,276,89,1,
,,,,,,,,,,,,,FF,,,,,,,,1.533,,,,,,,,,,,,,,,,,,,,,,60fd90280b7a39fc10749665,61036dcb1970c10567783625,2021-07-29_22h11.36.792,Simcolourproject_2stim_asymm_v5,2020.2.10,MacIntel,60,61025ae37ef11b136ea224fe,,,,,,,,,2622,80,40,1,0,0,response1disk,,6,1,-11,1,0,0,rectangle,1,-11,1,0,0,,,,,,,1,-11,1,0,0,,1,117,277,57,1,
,,,,,,,,,,,,,FF,,,,,,,,1.049,,,,,,,,,,,,,,,,,,,,,,60fd90280b7a39fc10749665,61036dcb1970c10567783625,2021-07-29_22h11.36.792,Simcolourproject_2stim_asymm_v5,2020.2.10,MacIntel,60,61025ae37ef11b136ea224fe,,,,,,,,,1166,104,47,1,0,0,response1disk,,6,16,8,1,0,0,rectangle,16,8,1,0,0,,,,,,,16,8,1,0,0,,1,118,278,21,1,
,,,,,,,,,,,,,FF,,,,,,,,1.15,,,,,,,,,,,,,,,,,,,,,,60fd90280b7a39fc10749665,61036dcb1970c10567783625,2021-07-29_22h11.36.792,Simcolourproject_2stim_asymm_v5,2020.2.10,MacIntel,60,61025ae37ef11b136ea224fe,,,,,,,,,609,95,-36,1,0,0,response3disk,,5,14,-6,1,0,0,rectangle,14,-6,1,0,0,,,,,,,14,-6,1,0,0,,1,119,279,107,1,
,,,,,,,,,,,,,FF,,,,,,,,1.483,,,,,,,,,,,,,,,,,,,,,,60fd90280b7a39fc10749665,61036dcb1970c10567783625,2021-07-29_22h11.36.792,Simcolourproject_2stim_asymm_v5,2020.2.10,MacIntel,60,61025ae37ef11b136ea224fe,,,,,,,,,1249,37,77,1,0,0,response1disk,,7,2,-2,1,0,0,rectangle,2,-2,1,0,0,,,,,,,2,-2,1,0,0,,1,120,280,63,1,
,,,,,,,,,,,,,FF,,,,,,,,1.05,,,,,,,,,,,,,,,,,,,,,,60fd90280b7a39fc10749665,61036dcb1970c10567783625,2021-07-29_22h11.36.792,Simcolourproject_2stim_asymm_v5,2020.2.10,MacIntel,60,61025ae37ef11b136ea224fe,,,,,,,,,3608,38,73,1,0,0,response1disk,,7,9,8,1,0,0,rectangle,9,8,1,0,0,,,,,,,9,8,1,0,0,,1,121,281,157,1,
,,,,,,,,,,,,,FF,,,,,,,,0.832,,,,,,,,,,,,,,,,,,,,,,60fd90280b7a39fc10749665,61036dcb1970c10567783625,2021-07-29_22h11.36.792,Simcolourproject_2stim_asymm_v5,2020.2.10,MacIntel,60,61025ae37ef11b136ea224fe,,,,,,,,,3569,45,86,1,0,0,response1disk,,7,-3,-1,1,0,0,rectangle,-40,-73,1,0,0,response5disk_3,TRUE,3,3,"[2,134,51,145,47,320,152,309,1,60,262,283,181,45,14,267,20,251,82,267]",1.482,-18,-1,1,0,0,rectangle,1,122,282,12,1,
,,,,,,,,,,,,,FF,,,,,,,,1.899,,,,,,,,,,,,,,,,,,,,,,60fd90280b7a39fc10749665,61036dcb1970c10567783625,2021-07-29_22h11.36.792,Simcolourproject_2stim_asymm_v5,2020.2.10,MacIntel,60,61025ae37ef11b136ea224fe,,,,,,,,,2173,-82,-31,1,0,0,response5disk,,2,0,14,1,0,0,rectangle,0,14,1,0,0,,,,,,,0,14,1,0,0,,1,123,283,122,1,
,,,,,,,,,,,,,FF,,,,,,,,2.033,,,,,,,,,,,,,,,,,,,,,,60fd90280b7a39fc10749665,61036dcb1970c10567783625,2021-07-29_22h11.36.792,Simcolourproject_2stim_asymm_v5,2020.2.10,MacIntel,60,61025ae37ef11b136ea224fe,,,,,,,,,2649,46,-25,1,0,0,response3disk,,5,6,5,1,0,0,rectangle,6,5,1,0,0,,,,,,,6,5,1,0,0,,1,124,284,73,1,
,,,,,,,,,,,,,FF,,,,,,,,1.4,,,,,,,,,,,,,,,,,,,,,,60fd90280b7a39fc10749665,61036dcb1970c10567783625,2021-07-29_22h11.36.792,Simcolourproject_2stim_asymm_v5,2020.2.10,MacIntel,60,61025ae37ef11b136ea224fe,,,,,,,,,4236,-69,-39,1,0,0,response5disk,,2,0,-4,1,0,0,rectangle,0,-4,1,0,0,,,,,,,0,-4,1,0,0,,1,125,285,70,1,
,,,,,,,,,,,,,FF,,,,,,,,1.399,,,,,,,,,,,,,,,,,,,,,,60fd90280b7a39fc10749665,61036dcb1970c10567783625,2021-07-29_22h11.36.792,Simcolourproject_2stim_asymm_v5,2020.2.10,MacIntel,60,61025ae37ef11b136ea224fe,,,,,,,,,1651,62,35,1,0,0,response1disk,,6,17,16,1,0,0,rectangle,17,16,1,0,0,,,,,,,17,16,1,0,0,,1,126,286,128,1,
,,,,,,,,,,,,,FF,,,,,,,,2.599,,,,,,,,,,,,,,,,,,,,,,60fd90280b7a39fc10749665,61036dcb1970c10567783625,2021-07-29_22h11.36.792,Simcolourproject_2stim_asymm_v5,2020.2.10,MacIntel,60,61025ae37ef11b136ea224fe,,,,,,,,,1232,73,49,1,0,0,response1disk,,6,-2,-4,1,0,0,rectangle,-2,-4,1,0,0,,,,,,,-2,-4,1,0,0,,1,127,287,40,1,
,,,,,,,,,,,,,FF,,,,,,,,1.183,,,,,,,,,,,,,,,,,,,,,,60fd90280b7a39fc10749665,61036dcb1970c10567783625,2021-07-29_22h11.36.792,Simcolourproject_2stim_asymm_v5,2020.2.10,MacIntel,60,61025ae37ef11b136ea224fe,,,,,,,,,1111,58,103,1,0,0,response1disk,,7,-4,1,1,0,0,rectangle,-4,1,1,0,0,,,,,,,-4,1,1,0,0,,1,128,288,19,1,
,,,,,,,,,,,,,FF,,,,,,,,1.132,,,,,,,,,,,,,,,,,,,,,,60fd90280b7a39fc10749665,61036dcb1970c10567783625,2021-07-29_22h11.36.792,Simcolourproject_2stim_asymm_v5,2020.2.10,MacIntel,60,61025ae37ef11b136ea224fe,,,,,,,,,288,62,-22,1,0,0,response3disk,,5,13,0,1,0,0,rectangle,13,0,1,0,0,,,,,,,13,0,1,0,0,,1,129,289,78,1,
,,,,,,,,,,,,,FF,,,,,,,,1.866,,,,,,,,,,,,,,,,,,,,,,60fd90280b7a39fc10749665,61036dcb1970c10567783625,2021-07-29_22h11.36.792,Simcolourproject_2stim_asymm_v5,2020.2.10,MacIntel,60,61025ae37ef11b136ea224fe,,,,,,,,,3725,63,83,1,0,0,response1disk,,7,1,-11,1,0,0,rectangle,1,-11,1,0,0,,,,,,,1,-11,1,0,0,,1,130,290,115,1,
,,,,,,,,,,,,,FF,,,,,,,,1.3,,,,,,,,,,,,,,,,,,,,,,60fd90280b7a39fc10749665,61036dcb1970c10567783625,2021-07-29_22h11.36.792,Simcolourproject_2stim_asymm_v5,2020.2.10,MacIntel,60,61025ae37ef11b136ea224fe,,,,,,,,,381,79,50,1,0,0,response1disk,,6,23,-3,1,0,0,rectangle,23,-3,1,0,0,,,,,,,23,-3,1,0,0,,1,131,291,72,1,
,,,,,,,,,,,,,FF,,,,,,,,3.083,,,,,,,,,,,,,,,,,,,,,,60fd90280b7a39fc10749665,61036dcb1970c10567783625,2021-07-29_22h11.36.792,Simcolourproject_2stim_asymm_v5,2020.2.10,MacIntel,60,61025ae37ef11b136ea224fe,,,,,,,,,796,77,50,1,0,0,response1disk,,6,6,0,1,0,0,rectangle,6,0,1,0,0,,,,,,,6,0,1,0,0,,1,132,292,84,1,
,,,,,,,,,,,,,FF,,,,,,,,1.433,,,,,,,,,,,,,,,,,,,,,,60fd90280b7a39fc10749665,61036dcb1970c10567783625,2021-07-29_22h11.36.792,Simcolourproject_2stim_asymm_v5,2020.2.10,MacIntel,60,61025ae37ef11b136ea224fe,,,,,,,,,2988,78,-32,1,0,0,response3disk,,5,15,-10,1,0,0,rectangle,15,-10,1,0,0,,,,,,,15,-10,1,0,0,,1,133,293,3,1,
,,,,,,,,,,,,,FF,,,,,,,,2.75,,,,,,,,,,,,,,,,,,,,,,60fd90280b7a39fc10749665,61036dcb1970c10567783625,2021-07-29_22h11.36.792,Simcolourproject_2stim_asymm_v5,2020.2.10,MacIntel,60,61025ae37ef11b136ea224fe,,,,,,,,,1067,73,32,1,0,0,response1disk,,6,-15,-13,1,0,0,rectangle,-15,-13,1,0,0,,,,,,,-15,-13,1,0,0,,1,134,294,35,1,
,,,,,,,,,,,,,FF,,,,,,,,1.767,,,,,,,,,,,,,,,,,,,,,,60fd90280b7a39fc10749665,61036dcb1970c10567783625,2021-07-29_22h11.36.792,Simcolourproject_2stim_asymm_v5,2020.2.10,MacIntel,60,61025ae37ef11b136ea224fe,,,,,,,,,154,38,17,1,0,0,response1disk,,6,-16,-4,1,0,0,rectangle,-16,-4,1,0,0,,,,,,,-16,-4,1,0,0,,1,135,295,158,1,
,,,,,,,,,,,,,FF,,,,,,,,2.184,,,,,,,,,,,,,,,,,,,,,,60fd90280b7a39fc10749665,61036dcb1970c10567783625,2021-07-29_22h11.36.792,Simcolourproject_2stim_asymm_v5,2020.2.10,MacIntel,60,61025ae37ef11b136ea224fe,,,,,,,,,4341,-54,-21,1,0,0,response5disk,,2,5,-4,1,0,0,rectangle,5,-4,1,0,0,,,,,,,5,-4,1,0,0,,1,136,296,104,1,
,,,,,,,,,,,,,FF,,,,,,,,1.25,,,,,,,,,,,,,,,,,,,,,,60fd90280b7a39fc10749665,61036dcb1970c10567783625,2021-07-29_22h11.36.792,Simcolourproject_2stim_asymm_v5,2020.2.10,MacIntel,60,61025ae37ef11b136ea224fe,,,,,,,,,3916,61,78,1,0,0,response1disk,,7,11,-8,1,0,0,rectangle,11,-8,1,0,0,,,,,,,11,-8,1,0,0,,1,137,297,43,1,
,,,,,,,,,,,,,FF,,,,,,,,1.3,,,,,,,,,,,,,,,,,,,,,,60fd90280b7a39fc10749665,61036dcb1970c10567783625,2021-07-29_22h11.36.792,Simcolourproject_2stim_asymm_v5,2020.2.10,MacIntel,60,61025ae37ef11b136ea224fe,,,,,,,,,731,35,-62,1,0,0,response3disk,,4,24,-16,1,0,0,rectangle,24,-16,1,0,0,,,,,,,24,-16,1,0,0,,1,138,298,134,1,
,,,,,,,,,,,,,FF,,,,,,,,1.017,,,,,,,,,,,,,,,,,,,,,,60fd90280b7a39fc10749665,61036dcb1970c10567783625,2021-07-29_22h11.36.792,Simcolourproject_2stim_asymm_v5,2020.2.10,MacIntel,60,61025ae37ef11b136ea224fe,,,,,,,,,3391,-75,-45,1,0,0,response5disk,,2,-6,7,1,0,0,rectangle,-6,7,1,0,0,,,,,,,-6,7,1,0,0,,1,139,299,67,1,
,,,,,,,,,,,,,FF,,,,,,,,1.25,,,,,,,,,,,,,,,,,,,,,,60fd90280b7a39fc10749665,61036dcb1970c10567783625,2021-07-29_22h11.36.792,Simcolourproject_2stim_asymm_v5,2020.2.10,MacIntel,60,61025ae37ef11b136ea224fe,,,,,,,,,1479,73,29,1,0,0,response1disk,,6,10,5,1,0,0,rectangle,10,5,1,0,0,,,,,,,10,5,1,0,0,,1,140,300,81,1,
,,,,,,,,,,,,,FF,,,,,,,,0.966,,,,,,,,,,,,,,,,,,,,,,60fd90280b7a39fc10749665,61036dcb1970c10567783625,2021-07-29_22h11.36.792,Simcolourproject_2stim_asymm_v5,2020.2.10,MacIntel,60,61025ae37ef11b136ea224fe,,,,,,,,,2178,69,54,1,0,0,response1disk,,6,-15,-6,1,0,0,rectangle,-15,-6,1,0,0,,,,,,,-15,-6,1,0,0,,1,141,301,56,1,
