key_resp.keys,key_resp.rt,key_resp_14.keys,key_resp_14.rt,key_resp_15.keys,key_resp_15.rt,key_resp_17.keys,key_resp_17.rt,key_resp_9.keys,key_resp_9.rt,key_resp_10.keys,key_resp_10.rt,practice_comparison,Ecc,mouse_5.x,mouse_5.y,mouse_5.leftButton,mouse_5.midButton,mouse_5.rightButton,mouse_5.clicked_name,pracsimilarity,response_time,mouse_10.x,mouse_10.y,mouse_10.leftButton,mouse_10.midButton,mouse_10.rightButton,mouse_10.clicked_name,mouse_7.x,mouse_7.y,mouse_7.leftButton,mouse_7.midButton,mouse_7.rightButton,mouse_6.x,mouse_6.y,mouse_6.leftButton,mouse_6.midButton,mouse_6.rightButton,duringprac.thisRepN,duringprac.thisTrialN,duringprac.thisN,duringprac.thisIndex,duringprac.ran,participant,session,date,expName,psychopyVersion,OS,frameRate,study_id,mouse_7.clicked_name,catchpracsimilarity,catch_response_time,catchnumberprac,catchtrialorderprac,mouse_6.clicked_name,key_resp_22.keys,key_resp_22.rt,realcomparison,mouse.x,mouse.y,mouse.leftButton,mouse.midButton,mouse.rightButton,mouse.clicked_name,Colour2,similarity,mouse_2.x,mouse_2.y,mouse_2.leftButton,mouse_2.midButton,mouse_2.rightButton,mouse_2.clicked_name,mouse_3.x,mouse_3.y,mouse_3.leftButton,mouse_3.midButton,mouse_3.rightButton,mouse_11.x,mouse_11.y,mouse_11.leftButton,mouse_11.midButton,mouse_11.rightButton,trials_2.thisRepN,trials_2.thisTrialN,trials_2.thisN,trials_2.thisIndex,trials_2.ran,Colour1,mouse_3.clicked_name,catchornah,catchsimilarity,catchnumber,catchtrialorder,catchRT,mouse_11.clicked_name
space,1.33,space,4.482,space,32.363,space,3.428,space,0.93,space,4.459,152,PF,77,-41,1,0,0,response3disk_5,5,23.216,0,5,1,0,0,rectangle_8,0,5,1,0,0,0,5,1,0,0,0,0,0,2,1,60fd84f001f3672f1d717cc7,61036b5d80e18145fa95da26,2021-07-29_22h01.46.129,Simcolourproject_2stim_asymm_v5,2020.2.10,MacIntel,60,61025ae37ef11b136ea224fe,,,,,,,,,,,,,,,,,,,,,,,,,,,,,,,,,,,,,,,,,,,,,,
,,,,,,,,,,,,110,PF,32,67,1,0,0,response1disk_5,7,4.634,-6,0,1,0,0,rectangle_8,38,-93,1,0,0,-5,5,1,0,0,0,1,1,1,1,60fd84f001f3672f1d717cc7,61036b5d80e18145fa95da26,2021-07-29_22h01.46.129,Simcolourproject_2stim_asymm_v5,2020.2.10,MacIntel,60,61025ae37ef11b136ea224fe,response3disk_7,4,3.418,4,"[2,5]",rectangle_4,,,,,,,,,,,,,,,,,,,,,,,,,,,,,,,,,,,,,,,,
,,,,,,,,,,,,151,PF,-40,-70,1,0,0,response5disk_5,3,4.784,13,-3,1,0,0,rectangle_8,13,-3,1,0,0,13,-3,1,0,0,0,2,2,4,1,60fd84f001f3672f1d717cc7,61036b5d80e18145fa95da26,2021-07-29_22h01.46.129,Simcolourproject_2stim_asymm_v5,2020.2.10,MacIntel,60,61025ae37ef11b136ea224fe,,,,,,,,,,,,,,,,,,,,,,,,,,,,,,,,,,,,,,,,,,,,,,
,,,,,,,,,,,,102,FF,98,32,1,0,0,response1disk_5,6,5.683,15,7,1,0,0,rectangle_8,15,7,1,0,0,15,7,1,0,0,0,3,3,3,1,60fd84f001f3672f1d717cc7,61036b5d80e18145fa95da26,2021-07-29_22h01.46.129,Simcolourproject_2stim_asymm_v5,2020.2.10,MacIntel,60,61025ae37ef11b136ea224fe,,,,,,,,,,,,,,,,,,,,,,,,,,,,,,,,,,,,,,,,,,,,,,
,,,,,,,,,,,,48,FF,71,28,1,0,0,response1disk_5,6,1.983,16,2,1,0,0,rectangle_8,54,-76,1,0,0,22,-2,1,0,0,0,4,4,5,1,60fd84f001f3672f1d717cc7,61036b5d80e18145fa95da26,2021-07-29_22h01.46.129,Simcolourproject_2stim_asymm_v5,2020.2.10,MacIntel,60,61025ae37ef11b136ea224fe,response3disk_7,4,2.099,4,"[2,5]",rectangle_4,,,,,,,,,,,,,,,,,,,,,,,,,,,,,,,,,,,,,,,,
,,,,,,,,,,,,63,FF,31,-76,1,0,0,response3disk_5,4,2.466,12,-3,1,0,0,rectangle_8,12,-3,1,0,0,12,-3,1,0,0,0,5,5,0,1,60fd84f001f3672f1d717cc7,61036b5d80e18145fa95da26,2021-07-29_22h01.46.129,Simcolourproject_2stim_asymm_v5,2020.2.10,MacIntel,60,61025ae37ef11b136ea224fe,,,,,,,,,,,,,,,,,,,,,,,,,,,,,,,,,,,,,,,,,,,,,,
,,,,,,,,,,,,40,PF,59,-48,1,0,0,response3disk_5,5,1.303,24,-6,1,0,0,rectangle_8,24,-6,1,0,0,24,-6,1,0,0,0,6,6,6,1,60fd84f001f3672f1d717cc7,61036b5d80e18145fa95da26,2021-07-29_22h01.46.129,Simcolourproject_2stim_asymm_v5,2020.2.10,MacIntel,60,61025ae37ef11b136ea224fe,,,,,,,,,,,,,,,,,,,,,,,,,,,,,,,,,,,,,,,,,,,,,,
,,,,,,,,,,,,,FF,,,,,,,,3.466,,,,,,,,,,,,,,,,,,,,,,60fd84f001f3672f1d717cc7,61036b5d80e18145fa95da26,2021-07-29_22h01.46.129,Simcolourproject_2stim_asymm_v5,2020.2.10,MacIntel,60,61025ae37ef11b136ea224fe,,,,,,,space,2.119,3220,45,-29,1,0,0,response3disk,,5,10,-1,1,0,0,rectangle,10,-1,1,0,0,10,-1,1,0,0,0,0,0,98,1,,,,,,,,
,,,,,,,,,,,,,FF,,,,,,,,3.966,,,,,,,,,,,,,,,,,,,,,,60fd84f001f3672f1d717cc7,61036b5d80e18145fa95da26,2021-07-29_22h01.46.129,Simcolourproject_2stim_asymm_v5,2020.2.10,MacIntel,60,61025ae37ef11b136ea224fe,,,,,,,,,59,41,-56,1,0,0,response3disk,,4,15,0,1,0,0,rectangle,15,0,1,0,0,15,0,1,0,0,0,1,1,125,1,,,,,,,,
,,,,,,,,,,,,,FF,,,,,,,,3.183,,,,,,,,,,,,,,,,,,,,,,60fd84f001f3672f1d717cc7,61036b5d80e18145fa95da26,2021-07-29_22h01.46.129,Simcolourproject_2stim_asymm_v5,2020.2.10,MacIntel,60,61025ae37ef11b136ea224fe,,,,,,,,,649,81,-38,1,0,0,response3disk,,5,27,-4,1,0,0,rectangle,27,-4,1,0,0,27,-4,1,0,0,0,2,2,35,1,,,,,,,,
,,,,,,,,,,,,,FF,,,,,,,,1.549,,,,,,,,,,,,,,,,,,,,,,60fd84f001f3672f1d717cc7,61036b5d80e18145fa95da26,2021-07-29_22h01.46.129,Simcolourproject_2stim_asymm_v5,2020.2.10,MacIntel,60,61025ae37ef11b136ea224fe,,,,,,,,,1096,82,48,1,0,0,response1disk,,6,19,9,1,0,0,rectangle,19,9,1,0,0,19,9,1,0,0,0,3,3,113,1,,,,,,,,
,,,,,,,,,,,,,FF,,,,,,,,1.9,,,,,,,,,,,,,,,,,,,,,,60fd84f001f3672f1d717cc7,61036b5d80e18145fa95da26,2021-07-29_22h01.46.129,Simcolourproject_2stim_asymm_v5,2020.2.10,MacIntel,60,61025ae37ef11b136ea224fe,,,,,,,,,1072,58,-40,1,0,0,response3disk,,5,13,-4,1,0,0,rectangle,13,-4,1,0,0,13,-4,1,0,0,0,4,4,82,1,,,,,,,,
,,,,,,,,,,,,,FF,,,,,,,,1.383,,,,,,,,,,,,,,,,,,,,,,60fd84f001f3672f1d717cc7,61036b5d80e18145fa95da26,2021-07-29_22h01.46.129,Simcolourproject_2stim_asymm_v5,2020.2.10,MacIntel,60,61025ae37ef11b136ea224fe,,,,,,,,,389,56,-30,1,0,0,response3disk,,5,23,-9,1,0,0,rectangle,23,-9,1,0,0,23,-9,1,0,0,0,5,5,110,1,,,,,,,,
,,,,,,,,,,,,,FF,,,,,,,,2.582,,,,,,,,,,,,,,,,,,,,,,60fd84f001f3672f1d717cc7,61036b5d80e18145fa95da26,2021-07-29_22h01.46.129,Simcolourproject_2stim_asymm_v5,2020.2.10,MacIntel,60,61025ae37ef11b136ea224fe,,,,,,,,,3450,45,-30,1,0,0,response3disk,,5,19,-3,1,0,0,rectangle,19,-3,1,0,0,19,-3,1,0,0,0,6,6,152,1,,,,,,,,
,,,,,,,,,,,,,FF,,,,,,,,2.749,,,,,,,,,,,,,,,,,,,,,,60fd84f001f3672f1d717cc7,61036b5d80e18145fa95da26,2021-07-29_22h01.46.129,Simcolourproject_2stim_asymm_v5,2020.2.10,MacIntel,60,61025ae37ef11b136ea224fe,,,,,,,,,3609,91,26,1,0,0,response1disk,,6,24,5,1,0,0,rectangle,49,102,1,0,0,15,7,1,0,0,0,7,7,99,1,,response1disk_3,TRUE,7,7,"[8,29,314,30,32,196,262,316,26,212,91,310,108,265,49,53,291,153,46,241]",3.082,rectangle
,,,,,,,,,,,,,FF,,,,,,,,4.216,,,,,,,,,,,,,,,,,,,,,,60fd84f001f3672f1d717cc7,61036b5d80e18145fa95da26,2021-07-29_22h01.46.129,Simcolourproject_2stim_asymm_v5,2020.2.10,MacIntel,60,61025ae37ef11b136ea224fe,,,,,,,,,2001,60,-33,1,0,0,response3disk,,5,13,-3,1,0,0,rectangle,13,-3,1,0,0,13,-3,1,0,0,0,8,8,57,1,,,,,,,,
,,,,,,,,,,,,,FF,,,,,,,,1.701,,,,,,,,,,,,,,,,,,,,,,60fd84f001f3672f1d717cc7,61036b5d80e18145fa95da26,2021-07-29_22h01.46.129,Simcolourproject_2stim_asymm_v5,2020.2.10,MacIntel,60,61025ae37ef11b136ea224fe,,,,,,,,,2177,-47,-64,1,0,0,response5disk,,3,5,-4,1,0,0,rectangle,5,-4,1,0,0,5,-4,1,0,0,0,9,9,10,1,,,,,,,,
,,,,,,,,,,,,,FF,,,,,,,,1.25,,,,,,,,,,,,,,,,,,,,,,60fd84f001f3672f1d717cc7,61036b5d80e18145fa95da26,2021-07-29_22h01.46.129,Simcolourproject_2stim_asymm_v5,2020.2.10,MacIntel,60,61025ae37ef11b136ea224fe,,,,,,,,,587,71,38,1,0,0,response1disk,,6,25,7,1,0,0,rectangle,25,7,1,0,0,25,7,1,0,0,0,10,10,130,1,,,,,,,,
,,,,,,,,,,,,,FF,,,,,,,,1.349,,,,,,,,,,,,,,,,,,,,,,60fd84f001f3672f1d717cc7,61036b5d80e18145fa95da26,2021-07-29_22h01.46.129,Simcolourproject_2stim_asymm_v5,2020.2.10,MacIntel,60,61025ae37ef11b136ea224fe,,,,,,,,,254,57,-40,1,0,0,response3disk,,5,15,-4,1,0,0,rectangle,15,-4,1,0,0,15,-4,1,0,0,0,11,11,88,1,,,,,,,,
,,,,,,,,,,,,,FF,,,,,,,,1.617,,,,,,,,,,,,,,,,,,,,,,60fd84f001f3672f1d717cc7,61036b5d80e18145fa95da26,2021-07-29_22h01.46.129,Simcolourproject_2stim_asymm_v5,2020.2.10,MacIntel,60,61025ae37ef11b136ea224fe,,,,,,,,,4358,-44,-56,1,0,0,response5disk,,3,-2,-10,1,0,0,rectangle,-2,-10,1,0,0,-2,-10,1,0,0,0,12,12,50,1,,,,,,,,
,,,,,,,,,,,,,FF,,,,,,,,1.334,,,,,,,,,,,,,,,,,,,,,,60fd84f001f3672f1d717cc7,61036b5d80e18145fa95da26,2021-07-29_22h01.46.129,Simcolourproject_2stim_asymm_v5,2020.2.10,MacIntel,60,61025ae37ef11b136ea224fe,,,,,,,,,1658,63,-23,1,0,0,response3disk,,5,17,0,1,0,0,rectangle,17,0,1,0,0,17,0,1,0,0,0,13,13,146,1,,,,,,,,
,,,,,,,,,,,,,FF,,,,,,,,1.116,,,,,,,,,,,,,,,,,,,,,,60fd84f001f3672f1d717cc7,61036b5d80e18145fa95da26,2021-07-29_22h01.46.129,Simcolourproject_2stim_asymm_v5,2020.2.10,MacIntel,60,61025ae37ef11b136ea224fe,,,,,,,,,3054,-27,-63,1,0,0,response5disk,,3,9,-14,1,0,0,rectangle,9,-14,1,0,0,9,-14,1,0,0,0,14,14,151,1,,,,,,,,
,,,,,,,,,,,,,FF,,,,,,,,1.149,,,,,,,,,,,,,,,,,,,,,,60fd84f001f3672f1d717cc7,61036b5d80e18145fa95da26,2021-07-29_22h01.46.129,Simcolourproject_2stim_asymm_v5,2020.2.10,MacIntel,60,61025ae37ef11b136ea224fe,,,,,,,,,3968,26,-55,1,0,0,response3disk,,4,8,-6,1,0,0,rectangle,8,-6,1,0,0,8,-6,1,0,0,0,15,15,112,1,,,,,,,,
,,,,,,,,,,,,,FF,,,,,,,,1.099,,,,,,,,,,,,,,,,,,,,,,60fd84f001f3672f1d717cc7,61036b5d80e18145fa95da26,2021-07-29_22h01.46.129,Simcolourproject_2stim_asymm_v5,2020.2.10,MacIntel,60,61025ae37ef11b136ea224fe,,,,,,,,,4214,40,50,1,0,0,response1disk,,7,16,8,1,0,0,rectangle,16,8,1,0,0,16,8,1,0,0,0,16,16,96,1,,,,,,,,
,,,,,,,,,,,,,FF,,,,,,,,1.282,,,,,,,,,,,,,,,,,,,,,,60fd84f001f3672f1d717cc7,61036b5d80e18145fa95da26,2021-07-29_22h01.46.129,Simcolourproject_2stim_asymm_v5,2020.2.10,MacIntel,60,61025ae37ef11b136ea224fe,,,,,,,,,1740,50,26,1,0,0,response1disk,,6,20,-2,1,0,0,rectangle,20,-2,1,0,0,20,-2,1,0,0,0,17,17,106,1,,,,,,,,
,,,,,,,,,,,,,FF,,,,,,,,1.016,,,,,,,,,,,,,,,,,,,,,,60fd84f001f3672f1d717cc7,61036b5d80e18145fa95da26,2021-07-29_22h01.46.129,Simcolourproject_2stim_asymm_v5,2020.2.10,MacIntel,60,61025ae37ef11b136ea224fe,,,,,,,,,3778,-32,-56,1,0,0,response5disk,,3,-2,-1,1,0,0,rectangle,-2,-1,1,0,0,-2,-1,1,0,0,0,18,18,139,1,,,,,,,,
,,,,,,,,,,,,,FF,,,,,,,,1.001,,,,,,,,,,,,,,,,,,,,,,60fd84f001f3672f1d717cc7,61036b5d80e18145fa95da26,2021-07-29_22h01.46.129,Simcolourproject_2stim_asymm_v5,2020.2.10,MacIntel,60,61025ae37ef11b136ea224fe,,,,,,,,,1207,37,30,1,0,0,response1disk,,6,13,12,1,0,0,rectangle,13,12,1,0,0,13,12,1,0,0,0,19,19,37,1,,,,,,,,
,,,,,,,,,,,,,FF,,,,,,,,1.117,,,,,,,,,,,,,,,,,,,,,,60fd84f001f3672f1d717cc7,61036b5d80e18145fa95da26,2021-07-29_22h01.46.129,Simcolourproject_2stim_asymm_v5,2020.2.10,MacIntel,60,61025ae37ef11b136ea224fe,,,,,,,,,266,60,-30,1,0,0,response3disk,,5,23,-5,1,0,0,rectangle,23,-5,1,0,0,23,-5,1,0,0,0,20,20,118,1,,,,,,,,
,,,,,,,,,,,,,FF,,,,,,,,1.45,,,,,,,,,,,,,,,,,,,,,,60fd84f001f3672f1d717cc7,61036b5d80e18145fa95da26,2021-07-29_22h01.46.129,Simcolourproject_2stim_asymm_v5,2020.2.10,MacIntel,60,61025ae37ef11b136ea224fe,,,,,,,,,372,-72,-34,1,0,0,response5disk,,2,-24,-8,1,0,0,rectangle,-24,-8,1,0,0,-24,-8,1,0,0,0,21,21,27,1,,,,,,,,
,,,,,,,,,,,,,FF,,,,,,,,0.951,,,,,,,,,,,,,,,,,,,,,,60fd84f001f3672f1d717cc7,61036b5d80e18145fa95da26,2021-07-29_22h01.46.129,Simcolourproject_2stim_asymm_v5,2020.2.10,MacIntel,60,61025ae37ef11b136ea224fe,,,,,,,,,1701,29,-53,1,0,0,response3disk,,4,10,-10,1,0,0,rectangle,10,-10,1,0,0,10,-10,1,0,0,0,22,22,132,1,,,,,,,,
,,,,,,,,,,,,,FF,,,,,,,,1.484,,,,,,,,,,,,,,,,,,,,,,60fd84f001f3672f1d717cc7,61036b5d80e18145fa95da26,2021-07-29_22h01.46.129,Simcolourproject_2stim_asymm_v5,2020.2.10,MacIntel,60,61025ae37ef11b136ea224fe,,,,,,,,,3565,31,-51,1,0,0,response3disk,,4,14,-10,1,0,0,rectangle,14,-10,1,0,0,14,-10,1,0,0,0,23,23,87,1,,,,,,,,
,,,,,,,,,,,,,FF,,,,,,,,0.899,,,,,,,,,,,,,,,,,,,,,,60fd84f001f3672f1d717cc7,61036b5d80e18145fa95da26,2021-07-29_22h01.46.129,Simcolourproject_2stim_asymm_v5,2020.2.10,MacIntel,60,61025ae37ef11b136ea224fe,,,,,,,,,1935,65,-29,1,0,0,response3disk,,5,33,-10,1,0,0,rectangle,33,-10,1,0,0,33,-10,1,0,0,0,24,24,2,1,,,,,,,,
,,,,,,,,,,,,,FF,,,,,,,,2.365,,,,,,,,,,,,,,,,,,,,,,60fd84f001f3672f1d717cc7,61036b5d80e18145fa95da26,2021-07-29_22h01.46.129,Simcolourproject_2stim_asymm_v5,2020.2.10,MacIntel,60,61025ae37ef11b136ea224fe,,,,,,,,,208,82,41,1,0,0,response1disk,,6,24,10,1,0,0,rectangle,88,38,1,0,0,21,9,1,0,0,0,25,25,104,1,,response1disk_3,TRUE,6,6,"[8,29,314,30,32,196,262,316,26,212,91,310,108,265,49,53,291,153,46,241]",1.75,rectangle
,,,,,,,,,,,,,FF,,,,,,,,1.133,,,,,,,,,,,,,,,,,,,,,,60fd84f001f3672f1d717cc7,61036b5d80e18145fa95da26,2021-07-29_22h01.46.129,Simcolourproject_2stim_asymm_v5,2020.2.10,MacIntel,60,61025ae37ef11b136ea224fe,,,,,,,,,2050,42,-68,1,0,0,response3disk,,4,16,-11,1,0,0,rectangle,16,-11,1,0,0,16,-11,1,0,0,0,26,26,97,1,,,,,,,,
,,,,,,,,,,,,,FF,,,,,,,,0.967,,,,,,,,,,,,,,,,,,,,,,60fd84f001f3672f1d717cc7,61036b5d80e18145fa95da26,2021-07-29_22h01.46.129,Simcolourproject_2stim_asymm_v5,2020.2.10,MacIntel,60,61025ae37ef11b136ea224fe,,,,,,,,,1823,-75,-30,1,0,0,response5disk,,2,-19,-1,1,0,0,rectangle,-19,-1,1,0,0,-19,-1,1,0,0,0,27,27,75,1,,,,,,,,
,,,,,,,,,,,,,FF,,,,,,,,0.934,,,,,,,,,,,,,,,,,,,,,,60fd84f001f3672f1d717cc7,61036b5d80e18145fa95da26,2021-07-29_22h01.46.129,Simcolourproject_2stim_asymm_v5,2020.2.10,MacIntel,60,61025ae37ef11b136ea224fe,,,,,,,,,999,83,-35,1,0,0,response3disk,,5,20,6,1,0,0,rectangle,42,88,1,0,0,18,12,1,0,0,0,28,28,115,1,,response1disk_3,TRUE,7,7,"[8,29,314,30,32,196,262,316,26,212,91,310,108,265,49,53,291,153,46,241]",1.417,rectangle
,,,,,,,,,,,,,FF,,,,,,,,1.216,,,,,,,,,,,,,,,,,,,,,,60fd84f001f3672f1d717cc7,61036b5d80e18145fa95da26,2021-07-29_22h01.46.129,Simcolourproject_2stim_asymm_v5,2020.2.10,MacIntel,60,61025ae37ef11b136ea224fe,,,,,,,,,1544,33,-50,1,0,0,response3disk,,4,21,-5,1,0,0,rectangle,36,-59,1,0,0,29,-1,1,0,0,0,29,29,46,1,,response3disk_3,TRUE,4,4,"[8,29,314,30,32,196,262,316,26,212,91,310,108,265,49,53,291,153,46,241]",1.583,rectangle
,,,,,,,,,,,,,FF,,,,,,,,2.267,,,,,,,,,,,,,,,,,,,,,,60fd84f001f3672f1d717cc7,61036b5d80e18145fa95da26,2021-07-29_22h01.46.129,Simcolourproject_2stim_asymm_v5,2020.2.10,MacIntel,60,61025ae37ef11b136ea224fe,,,,,,,,,3065,-31,-56,1,0,0,response5disk,,3,19,-8,1,0,0,rectangle,19,-8,1,0,0,19,-8,1,0,0,0,30,30,1,1,,,,,,,,
,,,,,,,,,,,,,FF,,,,,,,,1.067,,,,,,,,,,,,,,,,,,,,,,60fd84f001f3672f1d717cc7,61036b5d80e18145fa95da26,2021-07-29_22h01.46.129,Simcolourproject_2stim_asymm_v5,2020.2.10,MacIntel,60,61025ae37ef11b136ea224fe,,,,,,,,,1834,-62,-30,1,0,0,response5disk,,2,-19,-13,1,0,0,rectangle,19,45,1,0,0,6,7,1,0,0,0,31,31,66,1,,response1disk_3,TRUE,7,7,"[8,29,314,30,32,196,262,316,26,212,91,310,108,265,49,53,291,153,46,241]",1.449,rectangle
,,,,,,,,,,,,,FF,,,,,,,,1.633,,,,,,,,,,,,,,,,,,,,,,60fd84f001f3672f1d717cc7,61036b5d80e18145fa95da26,2021-07-29_22h01.46.129,Simcolourproject_2stim_asymm_v5,2020.2.10,MacIntel,60,61025ae37ef11b136ea224fe,,,,,,,,,1848,28,-67,1,0,0,response3disk,,4,19,-4,1,0,0,rectangle,19,-4,1,0,0,19,-4,1,0,0,0,32,32,21,1,,,,,,,,
,,,,,,,,,,,,,FF,,,,,,,,0.782,,,,,,,,,,,,,,,,,,,,,,60fd84f001f3672f1d717cc7,61036b5d80e18145fa95da26,2021-07-29_22h01.46.129,Simcolourproject_2stim_asymm_v5,2020.2.10,MacIntel,60,61025ae37ef11b136ea224fe,,,,,,,,,1898,-62,-34,1,0,0,response5disk,,2,-8,-13,1,0,0,rectangle,-8,-13,1,0,0,-8,-13,1,0,0,0,33,33,133,1,,,,,,,,
,,,,,,,,,,,,,FF,,,,,,,,1.351,,,,,,,,,,,,,,,,,,,,,,60fd84f001f3672f1d717cc7,61036b5d80e18145fa95da26,2021-07-29_22h01.46.129,Simcolourproject_2stim_asymm_v5,2020.2.10,MacIntel,60,61025ae37ef11b136ea224fe,,,,,,,,,3820,85,-28,1,0,0,response3disk,,5,32,-8,1,0,0,rectangle,32,-8,1,0,0,32,-8,1,0,0,0,34,34,78,1,,,,,,,,
,,,,,,,,,,,,,FF,,,,,,,,0.967,,,,,,,,,,,,,,,,,,,,,,60fd84f001f3672f1d717cc7,61036b5d80e18145fa95da26,2021-07-29_22h01.46.129,Simcolourproject_2stim_asymm_v5,2020.2.10,MacIntel,60,61025ae37ef11b136ea224fe,,,,,,,,,464,-30,-61,1,0,0,response5disk,,3,28,-8,1,0,0,rectangle,28,-8,1,0,0,28,-8,1,0,0,0,35,35,144,1,,,,,,,,
,,,,,,,,,,,,,FF,,,,,,,,1.484,,,,,,,,,,,,,,,,,,,,,,60fd84f001f3672f1d717cc7,61036b5d80e18145fa95da26,2021-07-29_22h01.46.129,Simcolourproject_2stim_asymm_v5,2020.2.10,MacIntel,60,61025ae37ef11b136ea224fe,,,,,,,,,3645,74,32,1,0,0,response1disk,,6,31,11,1,0,0,rectangle,31,11,1,0,0,31,11,1,0,0,0,36,36,121,1,,,,,,,,
,,,,,,,,,,,,,FF,,,,,,,,3.633,,,,,,,,,,,,,,,,,,,,,,60fd84f001f3672f1d717cc7,61036b5d80e18145fa95da26,2021-07-29_22h01.46.129,Simcolourproject_2stim_asymm_v5,2020.2.10,MacIntel,60,61025ae37ef11b136ea224fe,,,,,,,,,3376,-45,-67,1,0,0,response5disk,,3,-6,-12,1,0,0,rectangle,-6,-12,1,0,0,-6,-12,1,0,0,0,37,37,31,1,,,,,,,,
,,,,,,,,,,,,,FF,,,,,,,,3.05,,,,,,,,,,,,,,,,,,,,,,60fd84f001f3672f1d717cc7,61036b5d80e18145fa95da26,2021-07-29_22h01.46.129,Simcolourproject_2stim_asymm_v5,2020.2.10,MacIntel,60,61025ae37ef11b136ea224fe,,,,,,,,,595,63,34,1,0,0,response1disk,,6,10,8,1,0,0,rectangle,10,8,1,0,0,10,8,1,0,0,0,38,38,15,1,,,,,,,,
,,,,,,,,,,,,,FF,,,,,,,,2.534,,,,,,,,,,,,,,,,,,,,,,60fd84f001f3672f1d717cc7,61036b5d80e18145fa95da26,2021-07-29_22h01.46.129,Simcolourproject_2stim_asymm_v5,2020.2.10,MacIntel,60,61025ae37ef11b136ea224fe,,,,,,,,,2561,56,-32,1,0,0,response3disk,,5,17,-14,1,0,0,rectangle,17,-14,1,0,0,17,-14,1,0,0,0,39,39,102,1,,,,,,,,
,,,,,,,,,,,,,FF,,,,,,,,3.8,,,,,,,,,,,,,,,,,,,,,,60fd84f001f3672f1d717cc7,61036b5d80e18145fa95da26,2021-07-29_22h01.46.129,Simcolourproject_2stim_asymm_v5,2020.2.10,MacIntel,60,61025ae37ef11b136ea224fe,,,,,,,,,1565,86,34,1,0,0,response1disk,,6,25,11,1,0,0,rectangle,25,11,1,0,0,25,11,1,0,0,0,40,40,60,1,,,,,,,,
,,,,,,,,,,,,,FF,,,,,,,,1.083,,,,,,,,,,,,,,,,,,,,,,60fd84f001f3672f1d717cc7,61036b5d80e18145fa95da26,2021-07-29_22h01.46.129,Simcolourproject_2stim_asymm_v5,2020.2.10,MacIntel,60,61025ae37ef11b136ea224fe,,,,,,,,,1031,50,-24,1,0,0,response3disk,,5,21,-9,1,0,0,rectangle,21,-9,1,0,0,21,-9,1,0,0,0,41,41,26,1,,,,,,,,
,,,,,,,,,,,,,FF,,,,,,,,0.934,,,,,,,,,,,,,,,,,,,,,,60fd84f001f3672f1d717cc7,61036b5d80e18145fa95da26,2021-07-29_22h01.46.129,Simcolourproject_2stim_asymm_v5,2020.2.10,MacIntel,60,61025ae37ef11b136ea224fe,,,,,,,,,3273,65,-38,1,0,0,response3disk,,5,27,-13,1,0,0,rectangle,27,-13,1,0,0,27,-13,1,0,0,0,42,42,30,1,,,,,,,,
,,,,,,,,,,,,,FF,,,,,,,,1.4,,,,,,,,,,,,,,,,,,,,,,60fd84f001f3672f1d717cc7,61036b5d80e18145fa95da26,2021-07-29_22h01.46.129,Simcolourproject_2stim_asymm_v5,2020.2.10,MacIntel,60,61025ae37ef11b136ea224fe,,,,,,,,,2989,-22,-48,1,0,0,response5disk,,3,22,8,1,0,0,rectangle,22,8,1,0,0,22,8,1,0,0,0,43,43,45,1,,,,,,,,
,,,,,,,,,,,,,FF,,,,,,,,1.718,,,,,,,,,,,,,,,,,,,,,,60fd84f001f3672f1d717cc7,61036b5d80e18145fa95da26,2021-07-29_22h01.46.129,Simcolourproject_2stim_asymm_v5,2020.2.10,MacIntel,60,61025ae37ef11b136ea224fe,,,,,,,,,1951,56,-66,1,0,0,response3disk,,4,21,-2,1,0,0,rectangle,21,-2,1,0,0,21,-2,1,0,0,0,44,44,44,1,,,,,,,,
,,,,,,,,,,,,,FF,,,,,,,,5.083,,,,,,,,,,,,,,,,,,,,,,60fd84f001f3672f1d717cc7,61036b5d80e18145fa95da26,2021-07-29_22h01.46.129,Simcolourproject_2stim_asymm_v5,2020.2.10,MacIntel,60,61025ae37ef11b136ea224fe,,,,,,,,,2930,61,-27,1,0,0,response3disk,,5,21,-10,1,0,0,rectangle,-68,47,1,0,0,-12,11,1,0,0,0,45,45,138,1,,response7disk_3,TRUE,1,1,"[8,29,314,30,32,196,262,316,26,212,91,310,108,265,49,53,291,153,46,241]",1.8,rectangle
,,,,,,,,,,,,,FF,,,,,,,,1.066,,,,,,,,,,,,,,,,,,,,,,60fd84f001f3672f1d717cc7,61036b5d80e18145fa95da26,2021-07-29_22h01.46.129,Simcolourproject_2stim_asymm_v5,2020.2.10,MacIntel,60,61025ae37ef11b136ea224fe,,,,,,,,,3494,77,-27,1,0,0,response3disk,,5,20,0,1,0,0,rectangle,20,0,1,0,0,20,0,1,0,0,0,46,46,105,1,,,,,,,,
,,,,,,,,,,,,,FF,,,,,,,,1.6,,,,,,,,,,,,,,,,,,,,,,60fd84f001f3672f1d717cc7,61036b5d80e18145fa95da26,2021-07-29_22h01.46.129,Simcolourproject_2stim_asymm_v5,2020.2.10,MacIntel,60,61025ae37ef11b136ea224fe,,,,,,,,,4243,85,30,1,0,0,response1disk,,6,25,5,1,0,0,rectangle,25,5,1,0,0,25,5,1,0,0,0,47,47,22,1,,,,,,,,
,,,,,,,,,,,,,FF,,,,,,,,1.567,,,,,,,,,,,,,,,,,,,,,,60fd84f001f3672f1d717cc7,61036b5d80e18145fa95da26,2021-07-29_22h01.46.129,Simcolourproject_2stim_asymm_v5,2020.2.10,MacIntel,60,61025ae37ef11b136ea224fe,,,,,,,,,1042,70,-36,1,0,0,response3disk,,5,14,1,1,0,0,rectangle,37,82,1,0,0,29,2,1,0,0,0,48,48,18,1,,response1disk_3,TRUE,7,7,"[8,29,314,30,32,196,262,316,26,212,91,310,108,265,49,53,291,153,46,241]",1.416,rectangle
,,,,,,,,,,,,,FF,,,,,,,,6.084,,,,,,,,,,,,,,,,,,,,,,60fd84f001f3672f1d717cc7,61036b5d80e18145fa95da26,2021-07-29_22h01.46.129,Simcolourproject_2stim_asymm_v5,2020.2.10,MacIntel,60,61025ae37ef11b136ea224fe,,,,,,,,,3126,68,-40,1,0,0,response3disk,,5,22,3,1,0,0,rectangle,22,3,1,0,0,22,3,1,0,0,0,49,49,85,1,,,,,,,,
,,,,,,,,,,,,,FF,,,,,,,,6.45,,,,,,,,,,,,,,,,,,,,,,60fd84f001f3672f1d717cc7,61036b5d80e18145fa95da26,2021-07-29_22h01.46.129,Simcolourproject_2stim_asymm_v5,2020.2.10,MacIntel,60,61025ae37ef11b136ea224fe,,,,,,,,,2530,95,54,1,0,0,response1disk,,6,21,4,1,0,0,rectangle,21,4,1,0,0,21,4,1,0,0,0,50,50,29,1,,,,,,,,
,,,,,,,,,,,,,FF,,,,,,,,1.033,,,,,,,,,,,,,,,,,,,,,,60fd84f001f3672f1d717cc7,61036b5d80e18145fa95da26,2021-07-29_22h01.46.129,Simcolourproject_2stim_asymm_v5,2020.2.10,MacIntel,60,61025ae37ef11b136ea224fe,,,,,,,,,4343,-70,35,1,0,0,response7disk,,1,-28,10,1,0,0,rectangle,-28,10,1,0,0,-28,10,1,0,0,0,51,51,5,1,,,,,,,,
,,,,,,,,,,,,,FF,,,,,,,,1.233,,,,,,,,,,,,,,,,,,,,,,60fd84f001f3672f1d717cc7,61036b5d80e18145fa95da26,2021-07-29_22h01.46.129,Simcolourproject_2stim_asymm_v5,2020.2.10,MacIntel,60,61025ae37ef11b136ea224fe,,,,,,,,,4066,63,-33,1,0,0,response3disk,,5,16,-11,1,0,0,rectangle,-72,-28,1,0,0,-8,-7,1,0,0,0,52,52,71,1,,response5disk_3,TRUE,2,2,"[8,29,314,30,32,196,262,316,26,212,91,310,108,265,49,53,291,153,46,241]",1.799,rectangle
,,,,,,,,,,,,,FF,,,,,,,,1.949,,,,,,,,,,,,,,,,,,,,,,60fd84f001f3672f1d717cc7,61036b5d80e18145fa95da26,2021-07-29_22h01.46.129,Simcolourproject_2stim_asymm_v5,2020.2.10,MacIntel,60,61025ae37ef11b136ea224fe,,,,,,,,,738,43,-70,1,0,0,response3disk,,4,10,-5,1,0,0,rectangle,10,-5,1,0,0,10,-5,1,0,0,0,53,53,80,1,,,,,,,,
,,,,,,,,,,,,,FF,,,,,,,,2.633,,,,,,,,,,,,,,,,,,,,,,60fd84f001f3672f1d717cc7,61036b5d80e18145fa95da26,2021-07-29_22h01.46.129,Simcolourproject_2stim_asymm_v5,2020.2.10,MacIntel,60,61025ae37ef11b136ea224fe,,,,,,,,,2709,73,41,1,0,0,response1disk,,6,24,8,1,0,0,rectangle,24,8,1,0,0,24,8,1,0,0,0,54,54,119,1,,,,,,,,
,,,,,,,,,,,,,FF,,,,,,,,0.851,,,,,,,,,,,,,,,,,,,,,,60fd84f001f3672f1d717cc7,61036b5d80e18145fa95da26,2021-07-29_22h01.46.129,Simcolourproject_2stim_asymm_v5,2020.2.10,MacIntel,60,61025ae37ef11b136ea224fe,,,,,,,,,38,69,-34,1,0,0,response3disk,,5,24,-6,1,0,0,rectangle,24,-6,1,0,0,24,-6,1,0,0,0,55,55,43,1,,,,,,,,
,,,,,,,,,,,,,FF,,,,,,,,1.316,,,,,,,,,,,,,,,,,,,,,,60fd84f001f3672f1d717cc7,61036b5d80e18145fa95da26,2021-07-29_22h01.46.129,Simcolourproject_2stim_asymm_v5,2020.2.10,MacIntel,60,61025ae37ef11b136ea224fe,,,,,,,,,1054,-63,-30,1,0,0,response5disk,,2,-23,-15,1,0,0,rectangle,-23,-15,1,0,0,-23,-15,1,0,0,0,56,56,155,1,,,,,,,,
,,,,,,,,,,,,,FF,,,,,,,,1.034,,,,,,,,,,,,,,,,,,,,,,60fd84f001f3672f1d717cc7,61036b5d80e18145fa95da26,2021-07-29_22h01.46.129,Simcolourproject_2stim_asymm_v5,2020.2.10,MacIntel,60,61025ae37ef11b136ea224fe,,,,,,,,,2729,-28,-48,1,0,0,response5disk,,3,-21,-5,1,0,0,rectangle,-21,-5,1,0,0,-21,-5,1,0,0,0,57,57,54,1,,,,,,,,
,,,,,,,,,,,,,FF,,,,,,,,1.55,,,,,,,,,,,,,,,,,,,,,,60fd84f001f3672f1d717cc7,61036b5d80e18145fa95da26,2021-07-29_22h01.46.129,Simcolourproject_2stim_asymm_v5,2020.2.10,MacIntel,60,61025ae37ef11b136ea224fe,,,,,,,,,184,92,47,1,0,0,response1disk,,6,28,12,1,0,0,rectangle,28,12,1,0,0,28,12,1,0,0,0,58,58,41,1,,,,,,,,
,,,,,,,,,,,,,FF,,,,,,,,1.166,,,,,,,,,,,,,,,,,,,,,,60fd84f001f3672f1d717cc7,61036b5d80e18145fa95da26,2021-07-29_22h01.46.129,Simcolourproject_2stim_asymm_v5,2020.2.10,MacIntel,60,61025ae37ef11b136ea224fe,,,,,,,,,340,86,33,1,0,0,response1disk,,6,29,7,1,0,0,rectangle,29,7,1,0,0,29,7,1,0,0,0,59,59,72,1,,,,,,,,
,,,,,,,,,,,,,FF,,,,,,,,0.883,,,,,,,,,,,,,,,,,,,,,,60fd84f001f3672f1d717cc7,61036b5d80e18145fa95da26,2021-07-29_22h01.46.129,Simcolourproject_2stim_asymm_v5,2020.2.10,MacIntel,60,61025ae37ef11b136ea224fe,,,,,,,,,775,60,33,1,0,0,response1disk,,6,29,13,1,0,0,rectangle,29,13,1,0,0,29,13,1,0,0,0,60,60,77,1,,,,,,,,
,,,,,,,,,,,,,FF,,,,,,,,1.283,,,,,,,,,,,,,,,,,,,,,,60fd84f001f3672f1d717cc7,61036b5d80e18145fa95da26,2021-07-29_22h01.46.129,Simcolourproject_2stim_asymm_v5,2020.2.10,MacIntel,60,61025ae37ef11b136ea224fe,,,,,,,,,2626,70,38,1,0,0,response1disk,,6,18,11,1,0,0,rectangle,18,11,1,0,0,18,11,1,0,0,0,61,61,8,1,,,,,,,,
,,,,,,,,,,,,,FF,,,,,,,,45.5,,,,,,,,,,,,,,,,,,,,,,60fd84f001f3672f1d717cc7,61036b5d80e18145fa95da26,2021-07-29_22h01.46.129,Simcolourproject_2stim_asymm_v5,2020.2.10,MacIntel,60,61025ae37ef11b136ea224fe,,,,,,,,,2582,70,-33,1,0,0,response3disk,,5,2,5,1,0,0,rectangle,2,5,1,0,0,2,5,1,0,0,0,62,62,47,1,,,,,,,,
,,,,,,,,,,,,,FF,,,,,,,,1.5,,,,,,,,,,,,,,,,,,,,,,60fd84f001f3672f1d717cc7,61036b5d80e18145fa95da26,2021-07-29_22h01.46.129,Simcolourproject_2stim_asymm_v5,2020.2.10,MacIntel,60,61025ae37ef11b136ea224fe,,,,,,,,,3394,-71,-28,1,0,0,response5disk,,2,-21,-6,1,0,0,rectangle,-21,-6,1,0,0,-21,-6,1,0,0,0,63,63,24,1,,,,,,,,
,,,,,,,,,,,,,FF,,,,,,,,0.915,,,,,,,,,,,,,,,,,,,,,,60fd84f001f3672f1d717cc7,61036b5d80e18145fa95da26,2021-07-29_22h01.46.129,Simcolourproject_2stim_asymm_v5,2020.2.10,MacIntel,60,61025ae37ef11b136ea224fe,,,,,,,,,3880,29,-56,1,0,0,response3disk,,4,14,-5,1,0,0,rectangle,14,-5,1,0,0,14,-5,1,0,0,0,64,64,108,1,,,,,,,,
,,,,,,,,,,,,,FF,,,,,,,,1.234,,,,,,,,,,,,,,,,,,,,,,60fd84f001f3672f1d717cc7,61036b5d80e18145fa95da26,2021-07-29_22h01.46.129,Simcolourproject_2stim_asymm_v5,2020.2.10,MacIntel,60,61025ae37ef11b136ea224fe,,,,,,,,,795,59,-25,1,0,0,response3disk,,5,31,-4,1,0,0,rectangle,31,-4,1,0,0,31,-4,1,0,0,0,65,65,107,1,,,,,,,,
,,,,,,,,,,,,,FF,,,,,,,,1.449,,,,,,,,,,,,,,,,,,,,,,60fd84f001f3672f1d717cc7,61036b5d80e18145fa95da26,2021-07-29_22h01.46.129,Simcolourproject_2stim_asymm_v5,2020.2.10,MacIntel,60,61025ae37ef11b136ea224fe,,,,,,,,,2478,50,-29,1,0,0,response3disk,,5,22,-6,1,0,0,rectangle,22,-6,1,0,0,22,-6,1,0,0,0,66,66,48,1,,,,,,,,
,,,,,,,,,,,,,FF,,,,,,,,1.499,,,,,,,,,,,,,,,,,,,,,,60fd84f001f3672f1d717cc7,61036b5d80e18145fa95da26,2021-07-29_22h01.46.129,Simcolourproject_2stim_asymm_v5,2020.2.10,MacIntel,60,61025ae37ef11b136ea224fe,,,,,,,,,3310,74,23,1,0,0,response1disk,,6,28,11,1,0,0,rectangle,28,11,1,0,0,28,11,1,0,0,0,67,67,116,1,,,,,,,,
,,,,,,,,,,,,,FF,,,,,,,,1.199,,,,,,,,,,,,,,,,,,,,,,60fd84f001f3672f1d717cc7,61036b5d80e18145fa95da26,2021-07-29_22h01.46.129,Simcolourproject_2stim_asymm_v5,2020.2.10,MacIntel,60,61025ae37ef11b136ea224fe,,,,,,,,,1537,58,-31,1,0,0,response3disk,,5,22,-15,1,0,0,rectangle,22,-15,1,0,0,22,-15,1,0,0,0,68,68,38,1,,,,,,,,
,,,,,,,,,,,,,FF,,,,,,,,1.382,,,,,,,,,,,,,,,,,,,,,,60fd84f001f3672f1d717cc7,61036b5d80e18145fa95da26,2021-07-29_22h01.46.129,Simcolourproject_2stim_asymm_v5,2020.2.10,MacIntel,60,61025ae37ef11b136ea224fe,,,,,,,,,4333,48,74,1,0,0,response1disk,,7,21,5,1,0,0,rectangle,21,5,1,0,0,21,5,1,0,0,0,69,69,103,1,,,,,,,,
,,,,,,,,,,,,,FF,,,,,,,,16.784,,,,,,,,,,,,,,,,,,,,,,60fd84f001f3672f1d717cc7,61036b5d80e18145fa95da26,2021-07-29_22h01.46.129,Simcolourproject_2stim_asymm_v5,2020.2.10,MacIntel,60,61025ae37ef11b136ea224fe,,,,,,,,,672,62,-35,1,0,0,response3disk,,5,-19,12,1,0,0,rectangle,-19,12,1,0,0,-19,12,1,0,0,0,70,70,55,1,,,,,,,,
,,,,,,,,,,,,,FF,,,,,,,,1.749,,,,,,,,,,,,,,,,,,,,,,60fd84f001f3672f1d717cc7,61036b5d80e18145fa95da26,2021-07-29_22h01.46.129,Simcolourproject_2stim_asymm_v5,2020.2.10,MacIntel,60,61025ae37ef11b136ea224fe,,,,,,,,,946,59,-22,1,0,0,response3disk,,5,34,-1,1,0,0,rectangle,34,-1,1,0,0,34,-1,1,0,0,0,71,71,81,1,,,,,,,,
,,,,,,,,,,,,,FF,,,,,,,,2.233,,,,,,,,,,,,,,,,,,,,,,60fd84f001f3672f1d717cc7,61036b5d80e18145fa95da26,2021-07-29_22h01.46.129,Simcolourproject_2stim_asymm_v5,2020.2.10,MacIntel,60,61025ae37ef11b136ea224fe,,,,,,,,,388,74,-27,1,0,0,response3disk,,5,9,2,1,0,0,rectangle,9,2,1,0,0,9,2,1,0,0,0,72,72,109,1,,,,,,,,
,,,,,,,,,,,,,FF,,,,,,,,1.483,,,,,,,,,,,,,,,,,,,,,,60fd84f001f3672f1d717cc7,61036b5d80e18145fa95da26,2021-07-29_22h01.46.129,Simcolourproject_2stim_asymm_v5,2020.2.10,MacIntel,60,61025ae37ef11b136ea224fe,,,,,,,,,1831,-71,-31,1,0,0,response5disk,,2,-17,-6,1,0,0,rectangle,-17,-6,1,0,0,-17,-6,1,0,0,0,73,73,141,1,,,,,,,,
,,,,,,,,,,,,,FF,,,,,,,,0.999,,,,,,,,,,,,,,,,,,,,,,60fd84f001f3672f1d717cc7,61036b5d80e18145fa95da26,2021-07-29_22h01.46.129,Simcolourproject_2stim_asymm_v5,2020.2.10,MacIntel,60,61025ae37ef11b136ea224fe,,,,,,,,,1468,32,-46,1,0,0,response3disk,,4,25,-6,1,0,0,rectangle,25,-6,1,0,0,25,-6,1,0,0,0,74,74,17,1,,,,,,,,
,,,,,,,,,,,,,FF,,,,,,,,1.268,,,,,,,,,,,,,,,,,,,,,,60fd84f001f3672f1d717cc7,61036b5d80e18145fa95da26,2021-07-29_22h01.46.129,Simcolourproject_2stim_asymm_v5,2020.2.10,MacIntel,60,61025ae37ef11b136ea224fe,,,,,,,,,2912,92,27,1,0,0,response1disk,,6,17,2,1,0,0,rectangle,17,2,1,0,0,17,2,1,0,0,0,75,75,124,1,,,,,,,,
,,,,,,,,,,,,,FF,,,,,,,,0.884,,,,,,,,,,,,,,,,,,,,,,60fd84f001f3672f1d717cc7,61036b5d80e18145fa95da26,2021-07-29_22h01.46.129,Simcolourproject_2stim_asymm_v5,2020.2.10,MacIntel,60,61025ae37ef11b136ea224fe,,,,,,,,,636,-31,-44,1,0,0,response5disk,,3,-12,-6,1,0,0,rectangle,-12,-6,1,0,0,-12,-6,1,0,0,0,76,76,86,1,,,,,,,,
,,,,,,,,,,,,,FF,,,,,,,,1.416,,,,,,,,,,,,,,,,,,,,,,60fd84f001f3672f1d717cc7,61036b5d80e18145fa95da26,2021-07-29_22h01.46.129,Simcolourproject_2stim_asymm_v5,2020.2.10,MacIntel,60,61025ae37ef11b136ea224fe,,,,,,,,,2643,23,-36,1,0,0,response3disk,,4,23,-13,1,0,0,rectangle,23,-13,1,0,0,23,-13,1,0,0,0,77,77,36,1,,,,,,,,
,,,,,,,,,,,,,FF,,,,,,,,1.783,,,,,,,,,,,,,,,,,,,,,,60fd84f001f3672f1d717cc7,61036b5d80e18145fa95da26,2021-07-29_22h01.46.129,Simcolourproject_2stim_asymm_v5,2020.2.10,MacIntel,60,61025ae37ef11b136ea224fe,,,,,,,,,3316,84,32,1,0,0,response1disk,,6,21,4,1,0,0,rectangle,21,4,1,0,0,21,4,1,0,0,0,78,78,56,1,,,,,,,,
,,,,,,,,,,,,,FF,,,,,,,,1.284,,,,,,,,,,,,,,,,,,,,,,60fd84f001f3672f1d717cc7,61036b5d80e18145fa95da26,2021-07-29_22h01.46.129,Simcolourproject_2stim_asymm_v5,2020.2.10,MacIntel,60,61025ae37ef11b136ea224fe,,,,,,,,,3845,-43,-62,1,0,0,response5disk,,3,16,5,1,0,0,rectangle,16,5,1,0,0,16,5,1,0,0,0,79,79,153,1,,,,,,,,
,,,,,,,,,,,,,FF,,,,,,,,3.55,,,,,,,,,,,,,,,,,,,,,,60fd84f001f3672f1d717cc7,61036b5d80e18145fa95da26,2021-07-29_22h01.46.129,Simcolourproject_2stim_asymm_v5,2020.2.10,MacIntel,60,61025ae37ef11b136ea224fe,,,,,,,,,4359,25,-49,1,0,0,response3disk,,4,25,-13,1,0,0,rectangle,25,-13,1,0,0,25,-13,1,0,0,0,80,80,94,1,,,,,,,,
,,,,,,,,,,,,,FF,,,,,,,,2.784,,,,,,,,,,,,,,,,,,,,,,60fd84f001f3672f1d717cc7,61036b5d80e18145fa95da26,2021-07-29_22h01.46.129,Simcolourproject_2stim_asymm_v5,2020.2.10,MacIntel,60,61025ae37ef11b136ea224fe,,,,,,,,,1286,20,-57,1,0,0,response3disk,,4,15,-7,1,0,0,rectangle,15,-7,1,0,0,15,-7,1,0,0,0,81,81,9,1,,,,,,,,
,,,,,,,,,,,,,FF,,,,,,,,1.033,,,,,,,,,,,,,,,,,,,,,,60fd84f001f3672f1d717cc7,61036b5d80e18145fa95da26,2021-07-29_22h01.46.129,Simcolourproject_2stim_asymm_v5,2020.2.10,MacIntel,60,61025ae37ef11b136ea224fe,,,,,,,,,1651,54,-32,1,0,0,response3disk,,5,24,-18,1,0,0,rectangle,24,-18,1,0,0,24,-18,1,0,0,0,82,82,148,1,,,,,,,,
,,,,,,,,,,,,,FF,,,,,,,,0.983,,,,,,,,,,,,,,,,,,,,,,60fd84f001f3672f1d717cc7,61036b5d80e18145fa95da26,2021-07-29_22h01.46.129,Simcolourproject_2stim_asymm_v5,2020.2.10,MacIntel,60,61025ae37ef11b136ea224fe,,,,,,,,,342,70,27,1,0,0,response1disk,,6,29,10,1,0,0,rectangle,29,10,1,0,0,29,10,1,0,0,0,83,83,92,1,,,,,,,,
,,,,,,,,,,,,,FF,,,,,,,,1.284,,,,,,,,,,,,,,,,,,,,,,60fd84f001f3672f1d717cc7,61036b5d80e18145fa95da26,2021-07-29_22h01.46.129,Simcolourproject_2stim_asymm_v5,2020.2.10,MacIntel,60,61025ae37ef11b136ea224fe,,,,,,,,,3929,61,40,1,0,0,response1disk,,6,11,11,1,0,0,rectangle,11,11,1,0,0,11,11,1,0,0,0,84,84,120,1,,,,,,,,
,,,,,,,,,,,,,FF,,,,,,,,1.233,,,,,,,,,,,,,,,,,,,,,,60fd84f001f3672f1d717cc7,61036b5d80e18145fa95da26,2021-07-29_22h01.46.129,Simcolourproject_2stim_asymm_v5,2020.2.10,MacIntel,60,61025ae37ef11b136ea224fe,,,,,,,,,2882,-43,-58,1,0,0,response5disk,,3,-1,-3,1,0,0,rectangle,-1,-3,1,0,0,-1,-3,1,0,0,0,85,85,123,1,,,,,,,,
,,,,,,,,,,,,,FF,,,,,,,,0.882,,,,,,,,,,,,,,,,,,,,,,60fd84f001f3672f1d717cc7,61036b5d80e18145fa95da26,2021-07-29_22h01.46.129,Simcolourproject_2stim_asymm_v5,2020.2.10,MacIntel,60,61025ae37ef11b136ea224fe,,,,,,,,,3326,58,25,1,0,0,response1disk,,6,24,8,1,0,0,rectangle,24,8,1,0,0,24,8,1,0,0,0,86,86,33,1,,,,,,,,
,,,,,,,,,,,,,FF,,,,,,,,0.916,,,,,,,,,,,,,,,,,,,,,,60fd84f001f3672f1d717cc7,61036b5d80e18145fa95da26,2021-07-29_22h01.46.129,Simcolourproject_2stim_asymm_v5,2020.2.10,MacIntel,60,61025ae37ef11b136ea224fe,,,,,,,,,228,67,35,1,0,0,response1disk,,6,14,4,1,0,0,rectangle,14,4,1,0,0,14,4,1,0,0,0,87,87,0,1,,,,,,,,
,,,,,,,,,,,,,FF,,,,,,,,1.884,,,,,,,,,,,,,,,,,,,,,,60fd84f001f3672f1d717cc7,61036b5d80e18145fa95da26,2021-07-29_22h01.46.129,Simcolourproject_2stim_asymm_v5,2020.2.10,MacIntel,60,61025ae37ef11b136ea224fe,,,,,,,,,1942,66,-29,1,0,0,response3disk,,5,34,2,1,0,0,rectangle,34,2,1,0,0,34,2,1,0,0,0,88,88,52,1,,,,,,,,
,,,,,,,,,,,,,FF,,,,,,,,1.183,,,,,,,,,,,,,,,,,,,,,,60fd84f001f3672f1d717cc7,61036b5d80e18145fa95da26,2021-07-29_22h01.46.129,Simcolourproject_2stim_asymm_v5,2020.2.10,MacIntel,60,61025ae37ef11b136ea224fe,,,,,,,,,60,63,-33,1,0,0,response3disk,,5,30,-4,1,0,0,rectangle,30,-4,1,0,0,30,-4,1,0,0,0,89,89,14,1,,,,,,,,
,,,,,,,,,,,,,FF,,,,,,,,0.949,,,,,,,,,,,,,,,,,,,,,,60fd84f001f3672f1d717cc7,61036b5d80e18145fa95da26,2021-07-29_22h01.46.129,Simcolourproject_2stim_asymm_v5,2020.2.10,MacIntel,60,61025ae37ef11b136ea224fe,,,,,,,,,475,64,28,1,0,0,response1disk,,6,21,7,1,0,0,rectangle,-49,-75,1,0,0,15,-1,1,0,0,0,90,90,65,1,,response5disk_3,TRUE,3,3,"[8,29,314,30,32,196,262,316,26,212,91,310,108,265,49,53,291,153,46,241]",1.883,rectangle
,,,,,,,,,,,,,FF,,,,,,,,4.066,,,,,,,,,,,,,,,,,,,,,,60fd84f001f3672f1d717cc7,61036b5d80e18145fa95da26,2021-07-29_22h01.46.129,Simcolourproject_2stim_asymm_v5,2020.2.10,MacIntel,60,61025ae37ef11b136ea224fe,,,,,,,,,1228,34,-59,1,0,0,response3disk,,4,26,-5,1,0,0,rectangle,26,-5,1,0,0,26,-5,1,0,0,0,91,91,117,1,,,,,,,,
,,,,,,,,,,,,,FF,,,,,,,,1.168,,,,,,,,,,,,,,,,,,,,,,60fd84f001f3672f1d717cc7,61036b5d80e18145fa95da26,2021-07-29_22h01.46.129,Simcolourproject_2stim_asymm_v5,2020.2.10,MacIntel,60,61025ae37ef11b136ea224fe,,,,,,,,,657,59,-26,1,0,0,response3disk,,5,27,1,1,0,0,rectangle,27,1,1,0,0,27,1,1,0,0,0,92,92,114,1,,,,,,,,
,,,,,,,,,,,,,FF,,,,,,,,1.166,,,,,,,,,,,,,,,,,,,,,,60fd84f001f3672f1d717cc7,61036b5d80e18145fa95da26,2021-07-29_22h01.46.129,Simcolourproject_2stim_asymm_v5,2020.2.10,MacIntel,60,61025ae37ef11b136ea224fe,,,,,,,,,2321,83,31,1,0,0,response1disk,,6,22,-2,1,0,0,rectangle,22,-2,1,0,0,22,-2,1,0,0,0,93,93,128,1,,,,,,,,
,,,,,,,,,,,,,FF,,,,,,,,1.117,,,,,,,,,,,,,,,,,,,,,,60fd84f001f3672f1d717cc7,61036b5d80e18145fa95da26,2021-07-29_22h01.46.129,Simcolourproject_2stim_asymm_v5,2020.2.10,MacIntel,60,61025ae37ef11b136ea224fe,,,,,,,,,2670,18,-58,1,0,0,response3disk,,4,12,-14,1,0,0,rectangle,12,-14,1,0,0,12,-14,1,0,0,0,94,94,122,1,,,,,,,,
,,,,,,,,,,,,,FF,,,,,,,,1.049,,,,,,,,,,,,,,,,,,,,,,60fd84f001f3672f1d717cc7,61036b5d80e18145fa95da26,2021-07-29_22h01.46.129,Simcolourproject_2stim_asymm_v5,2020.2.10,MacIntel,60,61025ae37ef11b136ea224fe,,,,,,,,,2591,62,24,1,0,0,response1disk,,6,32,7,1,0,0,rectangle,32,7,1,0,0,32,7,1,0,0,0,95,95,83,1,,,,,,,,
,,,,,,,,,,,,,FF,,,,,,,,2.349,,,,,,,,,,,,,,,,,,,,,,60fd84f001f3672f1d717cc7,61036b5d80e18145fa95da26,2021-07-29_22h01.46.129,Simcolourproject_2stim_asymm_v5,2020.2.10,MacIntel,60,61025ae37ef11b136ea224fe,,,,,,,,,1439,54,-25,1,0,0,response3disk,,5,26,-9,1,0,0,rectangle,26,-9,1,0,0,26,-9,1,0,0,0,96,96,19,1,,,,,,,,
,,,,,,,,,,,,,FF,,,,,,,,6.7,,,,,,,,,,,,,,,,,,,,,,60fd84f001f3672f1d717cc7,61036b5d80e18145fa95da26,2021-07-29_22h01.46.129,Simcolourproject_2stim_asymm_v5,2020.2.10,MacIntel,60,61025ae37ef11b136ea224fe,,,,,,,,,3194,78,43,1,0,0,response1disk,,6,27,1,1,0,0,rectangle,27,1,1,0,0,27,1,1,0,0,0,97,97,68,1,,,,,,,,
,,,,,,,,,,,,,FF,,,,,,,,0.933,,,,,,,,,,,,,,,,,,,,,,60fd84f001f3672f1d717cc7,61036b5d80e18145fa95da26,2021-07-29_22h01.46.129,Simcolourproject_2stim_asymm_v5,2020.2.10,MacIntel,60,61025ae37ef11b136ea224fe,,,,,,,,,3672,-38,-75,1,0,0,response5disk,,3,8,6,1,0,0,rectangle,8,6,1,0,0,8,6,1,0,0,0,98,98,69,1,,,,,,,,
,,,,,,,,,,,,,FF,,,,,,,,1.349,,,,,,,,,,,,,,,,,,,,,,60fd84f001f3672f1d717cc7,61036b5d80e18145fa95da26,2021-07-29_22h01.46.129,Simcolourproject_2stim_asymm_v5,2020.2.10,MacIntel,60,61025ae37ef11b136ea224fe,,,,,,,,,3015,55,29,1,0,0,response1disk,,6,31,9,1,0,0,rectangle,31,9,1,0,0,31,9,1,0,0,0,99,99,23,1,,,,,,,,
,,,,,,,,,,,,,FF,,,,,,,,0.834,,,,,,,,,,,,,,,,,,,,,,60fd84f001f3672f1d717cc7,61036b5d80e18145fa95da26,2021-07-29_22h01.46.129,Simcolourproject_2stim_asymm_v5,2020.2.10,MacIntel,60,61025ae37ef11b136ea224fe,,,,,,,,,3221,64,36,1,0,0,response1disk,,6,28,9,1,0,0,rectangle,28,9,1,0,0,28,9,1,0,0,0,100,100,20,1,,,,,,,,
,,,,,,,,,,,,,FF,,,,,,,,1.616,,,,,,,,,,,,,,,,,,,,,,60fd84f001f3672f1d717cc7,61036b5d80e18145fa95da26,2021-07-29_22h01.46.129,Simcolourproject_2stim_asymm_v5,2020.2.10,MacIntel,60,61025ae37ef11b136ea224fe,,,,,,,,,994,68,-33,1,0,0,response3disk,,5,28,-2,1,0,0,rectangle,28,-2,1,0,0,28,-2,1,0,0,0,101,101,156,1,,,,,,,,
,,,,,,,,,,,,,FF,,,,,,,,1.25,,,,,,,,,,,,,,,,,,,,,,60fd84f001f3672f1d717cc7,61036b5d80e18145fa95da26,2021-07-29_22h01.46.129,Simcolourproject_2stim_asymm_v5,2020.2.10,MacIntel,60,61025ae37ef11b136ea224fe,,,,,,,,,4043,71,23,1,0,0,response1disk,,6,32,6,1,0,0,rectangle,32,6,1,0,0,32,6,1,0,0,0,102,102,7,1,,,,,,,,
,,,,,,,,,,,,,FF,,,,,,,,1.416,,,,,,,,,,,,,,,,,,,,,,60fd84f001f3672f1d717cc7,61036b5d80e18145fa95da26,2021-07-29_22h01.46.129,Simcolourproject_2stim_asymm_v5,2020.2.10,MacIntel,60,61025ae37ef11b136ea224fe,,,,,,,,,3324,70,31,1,0,0,response1disk,,6,21,0,1,0,0,rectangle,21,0,1,0,0,21,0,1,0,0,0,103,103,134,1,,,,,,,,
,,,,,,,,,,,,,FF,,,,,,,,1.399,,,,,,,,,,,,,,,,,,,,,,60fd84f001f3672f1d717cc7,61036b5d80e18145fa95da26,2021-07-29_22h01.46.129,Simcolourproject_2stim_asymm_v5,2020.2.10,MacIntel,60,61025ae37ef11b136ea224fe,,,,,,,,,4012,41,52,1,0,0,response1disk,,7,31,10,1,0,0,rectangle,31,10,1,0,0,31,10,1,0,0,0,104,104,157,1,,,,,,,,
,,,,,,,,,,,,,FF,,,,,,,,1.115,,,,,,,,,,,,,,,,,,,,,,60fd84f001f3672f1d717cc7,61036b5d80e18145fa95da26,2021-07-29_22h01.46.129,Simcolourproject_2stim_asymm_v5,2020.2.10,MacIntel,60,61025ae37ef11b136ea224fe,,,,,,,,,1022,57,27,1,0,0,response1disk,,6,32,8,1,0,0,rectangle,32,8,1,0,0,32,8,1,0,0,0,105,105,129,1,,,,,,,,
,,,,,,,,,,,,,FF,,,,,,,,0.816,,,,,,,,,,,,,,,,,,,,,,60fd84f001f3672f1d717cc7,61036b5d80e18145fa95da26,2021-07-29_22h01.46.129,Simcolourproject_2stim_asymm_v5,2020.2.10,MacIntel,60,61025ae37ef11b136ea224fe,,,,,,,,,3166,70,34,1,0,0,response1disk,,6,27,10,1,0,0,rectangle,27,10,1,0,0,27,10,1,0,0,0,106,106,39,1,,,,,,,,
,,,,,,,,,,,,,FF,,,,,,,,0.867,,,,,,,,,,,,,,,,,,,,,,60fd84f001f3672f1d717cc7,61036b5d80e18145fa95da26,2021-07-29_22h01.46.129,Simcolourproject_2stim_asymm_v5,2020.2.10,MacIntel,60,61025ae37ef11b136ea224fe,,,,,,,,,1430,61,29,1,0,0,response1disk,,6,28,9,1,0,0,rectangle,-76,-34,1,0,0,-15,-3,1,0,0,0,107,107,25,1,,response5disk_3,TRUE,2,2,"[8,29,314,30,32,196,262,316,26,212,91,310,108,265,49,53,291,153,46,241]",1.966,rectangle
,,,,,,,,,,,,,FF,,,,,,,,4.584,,,,,,,,,,,,,,,,,,,,,,60fd84f001f3672f1d717cc7,61036b5d80e18145fa95da26,2021-07-29_22h01.46.129,Simcolourproject_2stim_asymm_v5,2020.2.10,MacIntel,60,61025ae37ef11b136ea224fe,,,,,,,,,1033,91,-36,1,0,0,response3disk,,5,6,2,1,0,0,rectangle,6,2,1,0,0,6,2,1,0,0,0,108,108,42,1,,,,,,,,
,,,,,,,,,,,,,FF,,,,,,,,1.382,,,,,,,,,,,,,,,,,,,,,,60fd84f001f3672f1d717cc7,61036b5d80e18145fa95da26,2021-07-29_22h01.46.129,Simcolourproject_2stim_asymm_v5,2020.2.10,MacIntel,60,61025ae37ef11b136ea224fe,,,,,,,,,574,102,30,1,0,0,response1disk,,6,26,7,1,0,0,rectangle,26,7,1,0,0,26,7,1,0,0,0,109,109,93,1,,,,,,,,
,,,,,,,,,,,,,FF,,,,,,,,1.45,,,,,,,,,,,,,,,,,,,,,,60fd84f001f3672f1d717cc7,61036b5d80e18145fa95da26,2021-07-29_22h01.46.129,Simcolourproject_2stim_asymm_v5,2020.2.10,MacIntel,60,61025ae37ef11b136ea224fe,,,,,,,,,1665,35,62,1,0,0,response1disk,,7,23,12,1,0,0,rectangle,23,12,1,0,0,23,12,1,0,0,0,110,110,143,1,,,,,,,,
,,,,,,,,,,,,,FF,,,,,,,,1.3,,,,,,,,,,,,,,,,,,,,,,60fd84f001f3672f1d717cc7,61036b5d80e18145fa95da26,2021-07-29_22h01.46.129,Simcolourproject_2stim_asymm_v5,2020.2.10,MacIntel,60,61025ae37ef11b136ea224fe,,,,,,,,,2826,38,66,1,0,0,response1disk,,7,17,-2,1,0,0,rectangle,17,-2,1,0,0,17,-2,1,0,0,0,111,111,34,1,,,,,,,,
,,,,,,,,,,,,,FF,,,,,,,,1.85,,,,,,,,,,,,,,,,,,,,,,60fd84f001f3672f1d717cc7,61036b5d80e18145fa95da26,2021-07-29_22h01.46.129,Simcolourproject_2stim_asymm_v5,2020.2.10,MacIntel,60,61025ae37ef11b136ea224fe,,,,,,,,,505,66,44,1,0,0,response1disk,,6,26,8,1,0,0,rectangle,26,8,1,0,0,26,8,1,0,0,0,112,112,16,1,,,,,,,,
,,,,,,,,,,,,,FF,,,,,,,,0.951,,,,,,,,,,,,,,,,,,,,,,60fd84f001f3672f1d717cc7,61036b5d80e18145fa95da26,2021-07-29_22h01.46.129,Simcolourproject_2stim_asymm_v5,2020.2.10,MacIntel,60,61025ae37ef11b136ea224fe,,,,,,,,,3127,80,33,1,0,0,response1disk,,6,24,14,1,0,0,rectangle,24,14,1,0,0,24,14,1,0,0,0,113,113,53,1,,,,,,,,
,,,,,,,,,,,,,FF,,,,,,,,1.118,,,,,,,,,,,,,,,,,,,,,,60fd84f001f3672f1d717cc7,61036b5d80e18145fa95da26,2021-07-29_22h01.46.129,Simcolourproject_2stim_asymm_v5,2020.2.10,MacIntel,60,61025ae37ef11b136ea224fe,,,,,,,,,2775,-83,-37,1,0,0,response5disk,,2,-18,-1,1,0,0,rectangle,-18,-1,1,0,0,-18,-1,1,0,0,0,114,114,159,1,,,,,,,,
,,,,,,,,,,,,,FF,,,,,,,,1.449,,,,,,,,,,,,,,,,,,,,,,60fd84f001f3672f1d717cc7,61036b5d80e18145fa95da26,2021-07-29_22h01.46.129,Simcolourproject_2stim_asymm_v5,2020.2.10,MacIntel,60,61025ae37ef11b136ea224fe,,,,,,,,,729,62,-31,1,0,0,response3disk,,5,15,-4,1,0,0,rectangle,15,-4,1,0,0,15,-4,1,0,0,0,115,115,90,1,,,,,,,,
,,,,,,,,,,,,,FF,,,,,,,,1.234,,,,,,,,,,,,,,,,,,,,,,60fd84f001f3672f1d717cc7,61036b5d80e18145fa95da26,2021-07-29_22h01.46.129,Simcolourproject_2stim_asymm_v5,2020.2.10,MacIntel,60,61025ae37ef11b136ea224fe,,,,,,,,,830,68,-33,1,0,0,response3disk,,5,34,17,1,0,0,rectangle,34,17,1,0,0,34,17,1,0,0,0,116,116,158,1,,,,,,,,
,,,,,,,,,,,,,FF,,,,,,,,1.034,,,,,,,,,,,,,,,,,,,,,,60fd84f001f3672f1d717cc7,61036b5d80e18145fa95da26,2021-07-29_22h01.46.129,Simcolourproject_2stim_asymm_v5,2020.2.10,MacIntel,60,61025ae37ef11b136ea224fe,,,,,,,,,1046,63,41,1,0,0,response1disk,,6,22,10,1,0,0,rectangle,22,10,1,0,0,22,10,1,0,0,0,117,117,147,1,,,,,,,,
,,,,,,,,,,,,,FF,,,,,,,,0.949,,,,,,,,,,,,,,,,,,,,,,60fd84f001f3672f1d717cc7,61036b5d80e18145fa95da26,2021-07-29_22h01.46.129,Simcolourproject_2stim_asymm_v5,2020.2.10,MacIntel,60,61025ae37ef11b136ea224fe,,,,,,,,,2688,30,-57,1,0,0,response3disk,,4,11,-3,1,0,0,rectangle,11,-3,1,0,0,11,-3,1,0,0,0,118,118,51,1,,,,,,,,
,,,,,,,,,,,,,FF,,,,,,,,1.382,,,,,,,,,,,,,,,,,,,,,,60fd84f001f3672f1d717cc7,61036b5d80e18145fa95da26,2021-07-29_22h01.46.129,Simcolourproject_2stim_asymm_v5,2020.2.10,MacIntel,60,61025ae37ef11b136ea224fe,,,,,,,,,3446,87,49,1,0,0,response1disk,,6,31,8,1,0,0,rectangle,31,8,1,0,0,31,8,1,0,0,0,119,119,67,1,,,,,,,,
,,,,,,,,,,,,,FF,,,,,,,,0.967,,,,,,,,,,,,,,,,,,,,,,60fd84f001f3672f1d717cc7,61036b5d80e18145fa95da26,2021-07-29_22h01.46.129,Simcolourproject_2stim_asymm_v5,2020.2.10,MacIntel,60,61025ae37ef11b136ea224fe,,,,,,,,,3371,86,45,1,0,0,response1disk,,6,27,7,1,0,0,rectangle,27,7,1,0,0,27,7,1,0,0,0,120,120,12,1,,,,,,,,
,,,,,,,,,,,,,FF,,,,,,,,1.233,,,,,,,,,,,,,,,,,,,,,,60fd84f001f3672f1d717cc7,61036b5d80e18145fa95da26,2021-07-29_22h01.46.129,Simcolourproject_2stim_asymm_v5,2020.2.10,MacIntel,60,61025ae37ef11b136ea224fe,,,,,,,,,1615,25,-51,1,0,0,response3disk,,4,20,-5,1,0,0,rectangle,20,-5,1,0,0,20,-5,1,0,0,0,121,121,6,1,,,,,,,,
,,,,,,,,,,,,,FF,,,,,,,,1,,,,,,,,,,,,,,,,,,,,,,60fd84f001f3672f1d717cc7,61036b5d80e18145fa95da26,2021-07-29_22h01.46.129,Simcolourproject_2stim_asymm_v5,2020.2.10,MacIntel,60,61025ae37ef11b136ea224fe,,,,,,,,,3920,19,-49,1,0,0,response3disk,,4,13,1,1,0,0,rectangle,13,1,1,0,0,13,1,1,0,0,0,122,122,13,1,,,,,,,,
,,,,,,,,,,,,,FF,,,,,,,,1.101,,,,,,,,,,,,,,,,,,,,,,60fd84f001f3672f1d717cc7,61036b5d80e18145fa95da26,2021-07-29_22h01.46.129,Simcolourproject_2stim_asymm_v5,2020.2.10,MacIntel,60,61025ae37ef11b136ea224fe,,,,,,,,,887,-54,-35,1,0,0,response5disk,,2,-23,-15,1,0,0,rectangle,-23,-15,1,0,0,-23,-15,1,0,0,0,123,123,61,1,,,,,,,,
,,,,,,,,,,,,,FF,,,,,,,,1.318,,,,,,,,,,,,,,,,,,,,,,60fd84f001f3672f1d717cc7,61036b5d80e18145fa95da26,2021-07-29_22h01.46.129,Simcolourproject_2stim_asymm_v5,2020.2.10,MacIntel,60,61025ae37ef11b136ea224fe,,,,,,,,,415,35,-57,1,0,0,response3disk,,4,26,2,1,0,0,rectangle,26,2,1,0,0,26,2,1,0,0,0,124,124,70,1,,,,,,,,
,,,,,,,,,,,,,FF,,,,,,,,2.15,,,,,,,,,,,,,,,,,,,,,,60fd84f001f3672f1d717cc7,61036b5d80e18145fa95da26,2021-07-29_22h01.46.129,Simcolourproject_2stim_asymm_v5,2020.2.10,MacIntel,60,61025ae37ef11b136ea224fe,,,,,,,,,1516,68,-30,1,0,0,response3disk,,5,23,-10,1,0,0,rectangle,23,-10,1,0,0,23,-10,1,0,0,0,125,125,28,1,,,,,,,,
,,,,,,,,,,,,,FF,,,,,,,,0.866,,,,,,,,,,,,,,,,,,,,,,60fd84f001f3672f1d717cc7,61036b5d80e18145fa95da26,2021-07-29_22h01.46.129,Simcolourproject_2stim_asymm_v5,2020.2.10,MacIntel,60,61025ae37ef11b136ea224fe,,,,,,,,,4264,55,23,1,0,0,response1disk,,6,18,7,1,0,0,rectangle,18,7,1,0,0,18,7,1,0,0,0,126,126,140,1,,,,,,,,
,,,,,,,,,,,,,FF,,,,,,,,1.032,,,,,,,,,,,,,,,,,,,,,,60fd84f001f3672f1d717cc7,61036b5d80e18145fa95da26,2021-07-29_22h01.46.129,Simcolourproject_2stim_asymm_v5,2020.2.10,MacIntel,60,61025ae37ef11b136ea224fe,,,,,,,,,3933,-23,-54,1,0,0,response5disk,,3,-1,-11,1,0,0,rectangle,-1,-11,1,0,0,-1,-11,1,0,0,0,127,127,111,1,,,,,,,,
,,,,,,,,,,,,,FF,,,,,,,,1.367,,,,,,,,,,,,,,,,,,,,,,60fd84f001f3672f1d717cc7,61036b5d80e18145fa95da26,2021-07-29_22h01.46.129,Simcolourproject_2stim_asymm_v5,2020.2.10,MacIntel,60,61025ae37ef11b136ea224fe,,,,,,,,,3091,42,-50,1,0,0,response3disk,,4,18,-6,1,0,0,rectangle,18,-6,1,0,0,18,-6,1,0,0,0,128,128,135,1,,,,,,,,
,,,,,,,,,,,,,FF,,,,,,,,0.982,,,,,,,,,,,,,,,,,,,,,,60fd84f001f3672f1d717cc7,61036b5d80e18145fa95da26,2021-07-29_22h01.46.129,Simcolourproject_2stim_asymm_v5,2020.2.10,MacIntel,60,61025ae37ef11b136ea224fe,,,,,,,,,3474,49,-26,1,0,0,response3disk,,5,19,-13,1,0,0,rectangle,19,-13,1,0,0,19,-13,1,0,0,0,129,129,126,1,,,,,,,,
,,,,,,,,,,,,,FF,,,,,,,,0.968,,,,,,,,,,,,,,,,,,,,,,60fd84f001f3672f1d717cc7,61036b5d80e18145fa95da26,2021-07-29_22h01.46.129,Simcolourproject_2stim_asymm_v5,2020.2.10,MacIntel,60,61025ae37ef11b136ea224fe,,,,,,,,,303,61,23,1,0,0,response1disk,,6,29,7,1,0,0,rectangle,29,7,1,0,0,29,7,1,0,0,0,130,130,149,1,,,,,,,,
,,,,,,,,,,,,,FF,,,,,,,,0.716,,,,,,,,,,,,,,,,,,,,,,60fd84f001f3672f1d717cc7,61036b5d80e18145fa95da26,2021-07-29_22h01.46.129,Simcolourproject_2stim_asymm_v5,2020.2.10,MacIntel,60,61025ae37ef11b136ea224fe,,,,,,,,,2811,59,30,1,0,0,response1disk,,6,33,16,1,0,0,rectangle,33,16,1,0,0,33,16,1,0,0,0,131,131,59,1,,,,,,,,
,,,,,,,,,,,,,FF,,,,,,,,0.617,,,,,,,,,,,,,,,,,,,,,,60fd84f001f3672f1d717cc7,61036b5d80e18145fa95da26,2021-07-29_22h01.46.129,Simcolourproject_2stim_asymm_v5,2020.2.10,MacIntel,60,61025ae37ef11b136ea224fe,,,,,,,,,3765,79,37,1,0,0,response1disk,,6,22,11,1,0,0,rectangle,22,11,1,0,0,22,11,1,0,0,0,132,132,142,1,,,,,,,,
,,,,,,,,,,,,,FF,,,,,,,,0.983,,,,,,,,,,,,,,,,,,,,,,60fd84f001f3672f1d717cc7,61036b5d80e18145fa95da26,2021-07-29_22h01.46.129,Simcolourproject_2stim_asymm_v5,2020.2.10,MacIntel,60,61025ae37ef11b136ea224fe,,,,,,,,,3712,-33,-54,1,0,0,response5disk,,3,-16,-9,1,0,0,rectangle,-16,-9,1,0,0,-16,-9,1,0,0,0,133,133,74,1,,,,,,,,
,,,,,,,,,,,,,FF,,,,,,,,0.95,,,,,,,,,,,,,,,,,,,,,,60fd84f001f3672f1d717cc7,61036b5d80e18145fa95da26,2021-07-29_22h01.46.129,Simcolourproject_2stim_asymm_v5,2020.2.10,MacIntel,60,61025ae37ef11b136ea224fe,,,,,,,,,2440,36,-51,1,0,0,response3disk,,4,23,-9,1,0,0,rectangle,23,-9,1,0,0,23,-9,1,0,0,0,134,134,79,1,,,,,,,,
,,,,,,,,,,,,,FF,,,,,,,,0.832,,,,,,,,,,,,,,,,,,,,,,60fd84f001f3672f1d717cc7,61036b5d80e18145fa95da26,2021-07-29_22h01.46.129,Simcolourproject_2stim_asymm_v5,2020.2.10,MacIntel,60,61025ae37ef11b136ea224fe,,,,,,,,,1128,63,20,1,0,0,response1disk,,6,10,1,1,0,0,rectangle,10,1,1,0,0,10,1,1,0,0,0,135,135,127,1,,,,,,,,
,,,,,,,,,,,,,FF,,,,,,,,0.7,,,,,,,,,,,,,,,,,,,,,,60fd84f001f3672f1d717cc7,61036b5d80e18145fa95da26,2021-07-29_22h01.46.129,Simcolourproject_2stim_asymm_v5,2020.2.10,MacIntel,60,61025ae37ef11b136ea224fe,,,,,,,,,2248,56,41,1,0,0,response1disk,,6,20,9,1,0,0,rectangle,20,9,1,0,0,20,9,1,0,0,0,136,136,64,1,,,,,,,,
,,,,,,,,,,,,,FF,,,,,,,,0.749,,,,,,,,,,,,,,,,,,,,,,60fd84f001f3672f1d717cc7,61036b5d80e18145fa95da26,2021-07-29_22h01.46.129,Simcolourproject_2stim_asymm_v5,2020.2.10,MacIntel,60,61025ae37ef11b136ea224fe,,,,,,,,,481,66,41,1,0,0,response1disk,,6,24,13,1,0,0,rectangle,24,13,1,0,0,24,13,1,0,0,0,137,137,40,1,,,,,,,,
,,,,,,,,,,,,,FF,,,,,,,,1.284,,,,,,,,,,,,,,,,,,,,,,60fd84f001f3672f1d717cc7,61036b5d80e18145fa95da26,2021-07-29_22h01.46.129,Simcolourproject_2stim_asymm_v5,2020.2.10,MacIntel,60,61025ae37ef11b136ea224fe,,,,,,,,,1783,65,42,1,0,0,response1disk,,6,23,6,1,0,0,rectangle,23,6,1,0,0,23,6,1,0,0,0,138,138,4,1,,,,,,,,
,,,,,,,,,,,,,FF,,,,,,,,0.733,,,,,,,,,,,,,,,,,,,,,,60fd84f001f3672f1d717cc7,61036b5d80e18145fa95da26,2021-07-29_22h01.46.129,Simcolourproject_2stim_asymm_v5,2020.2.10,MacIntel,60,61025ae37ef11b136ea224fe,,,,,,,,,2739,58,29,1,0,0,response1disk,,6,23,6,1,0,0,rectangle,23,6,1,0,0,23,6,1,0,0,0,139,139,131,1,,,,,,,,
,,,,,,,,,,,,,FF,,,,,,,,0.899,,,,,,,,,,,,,,,,,,,,,,60fd84f001f3672f1d717cc7,61036b5d80e18145fa95da26,2021-07-29_22h01.46.129,Simcolourproject_2stim_asymm_v5,2020.2.10,MacIntel,60,61025ae37ef11b136ea224fe,,,,,,,,,1211,-52,-19,1,0,0,response5disk,,2,-19,-7,1,0,0,rectangle,-19,-7,1,0,0,-19,-7,1,0,0,0,140,140,58,1,,,,,,,,
,,,,,,,,,,,,,FF,,,,,,,,1.466,,,,,,,,,,,,,,,,,,,,,,60fd84f001f3672f1d717cc7,61036b5d80e18145fa95da26,2021-07-29_22h01.46.129,Simcolourproject_2stim_asymm_v5,2020.2.10,MacIntel,60,61025ae37ef11b136ea224fe,,,,,,,,,3587,92,51,1,0,0,response1disk,,6,27,14,1,0,0,rectangle,27,14,1,0,0,27,14,1,0,0,0,141,141,32,1,,,,,,,,
,,,,,,,,,,,,,FF,,,,,,,,0.8,,,,,,,,,,,,,,,,,,,,,,60fd84f001f3672f1d717cc7,61036b5d80e18145fa95da26,2021-07-29_22h01.46.129,Simcolourproject_2stim_asymm_v5,2020.2.10,MacIntel,60,61025ae37ef11b136ea224fe,,,,,,,,,384,56,-32,1,0,0,response3disk,,5,16,-5,1,0,0,rectangle,16,-5,1,0,0,16,-5,1,0,0,0,142,142,3,1,,,,,,,,
,,,,,,,,,,,,,FF,,,,,,,,1.265,,,,,,,,,,,,,,,,,,,,,,60fd84f001f3672f1d717cc7,61036b5d80e18145fa95da26,2021-07-29_22h01.46.129,Simcolourproject_2stim_asymm_v5,2020.2.10,MacIntel,60,61025ae37ef11b136ea224fe,,,,,,,,,4129,80,32,1,0,0,response1disk,,6,31,7,1,0,0,rectangle,31,7,1,0,0,31,7,1,0,0,0,143,143,101,1,,,,,,,,
,,,,,,,,,,,,,FF,,,,,,,,0.884,,,,,,,,,,,,,,,,,,,,,,60fd84f001f3672f1d717cc7,61036b5d80e18145fa95da26,2021-07-29_22h01.46.129,Simcolourproject_2stim_asymm_v5,2020.2.10,MacIntel,60,61025ae37ef11b136ea224fe,,,,,,,,,619,58,-29,1,0,0,response3disk,,5,27,1,1,0,0,rectangle,27,1,1,0,0,27,1,1,0,0,0,144,144,76,1,,,,,,,,
,,,,,,,,,,,,,FF,,,,,,,,2.199,,,,,,,,,,,,,,,,,,,,,,60fd84f001f3672f1d717cc7,61036b5d80e18145fa95da26,2021-07-29_22h01.46.129,Simcolourproject_2stim_asymm_v5,2020.2.10,MacIntel,60,61025ae37ef11b136ea224fe,,,,,,,,,749,65,-24,1,0,0,response3disk,,5,15,-6,1,0,0,rectangle,15,-6,1,0,0,15,-6,1,0,0,0,145,145,62,1,,,,,,,,
,,,,,,,,,,,,,FF,,,,,,,,1.817,,,,,,,,,,,,,,,,,,,,,,60fd84f001f3672f1d717cc7,61036b5d80e18145fa95da26,2021-07-29_22h01.46.129,Simcolourproject_2stim_asymm_v5,2020.2.10,MacIntel,60,61025ae37ef11b136ea224fe,,,,,,,,,334,57,-30,1,0,0,response3disk,,5,27,-2,1,0,0,rectangle,27,-2,1,0,0,27,-2,1,0,0,0,146,146,136,1,,,,,,,,
,,,,,,,,,,,,,FF,,,,,,,,0.782,,,,,,,,,,,,,,,,,,,,,,60fd84f001f3672f1d717cc7,61036b5d80e18145fa95da26,2021-07-29_22h01.46.129,Simcolourproject_2stim_asymm_v5,2020.2.10,MacIntel,60,61025ae37ef11b136ea224fe,,,,,,,,,4152,64,51,1,0,0,response1disk,,6,16,10,1,0,0,rectangle,16,10,1,0,0,16,10,1,0,0,0,147,147,49,1,,,,,,,,
,,,,,,,,,,,,,FF,,,,,,,,1.467,,,,,,,,,,,,,,,,,,,,,,60fd84f001f3672f1d717cc7,61036b5d80e18145fa95da26,2021-07-29_22h01.46.129,Simcolourproject_2stim_asymm_v5,2020.2.10,MacIntel,60,61025ae37ef11b136ea224fe,,,,,,,,,896,43,-55,1,0,0,response3disk,,4,29,-1,1,0,0,rectangle,29,-1,1,0,0,29,-1,1,0,0,0,148,148,84,1,,,,,,,,
,,,,,,,,,,,,,FF,,,,,,,,0.983,,,,,,,,,,,,,,,,,,,,,,60fd84f001f3672f1d717cc7,61036b5d80e18145fa95da26,2021-07-29_22h01.46.129,Simcolourproject_2stim_asymm_v5,2020.2.10,MacIntel,60,61025ae37ef11b136ea224fe,,,,,,,,,2888,-55,-37,1,0,0,response5disk,,2,-20,-9,1,0,0,rectangle,-20,-9,1,0,0,-20,-9,1,0,0,0,149,149,100,1,,,,,,,,
,,,,,,,,,,,,,FF,,,,,,,,0.966,,,,,,,,,,,,,,,,,,,,,,60fd84f001f3672f1d717cc7,61036b5d80e18145fa95da26,2021-07-29_22h01.46.129,Simcolourproject_2stim_asymm_v5,2020.2.10,MacIntel,60,61025ae37ef11b136ea224fe,,,,,,,,,67,30,-52,1,0,0,response3disk,,4,15,2,1,0,0,rectangle,15,2,1,0,0,15,2,1,0,0,0,150,150,145,1,,,,,,,,
,,,,,,,,,,,,,FF,,,,,,,,0.951,,,,,,,,,,,,,,,,,,,,,,60fd84f001f3672f1d717cc7,61036b5d80e18145fa95da26,2021-07-29_22h01.46.129,Simcolourproject_2stim_asymm_v5,2020.2.10,MacIntel,60,61025ae37ef11b136ea224fe,,,,,,,,,2895,-75,-38,1,0,0,response5disk,,2,-20,0,1,0,0,rectangle,-20,0,1,0,0,-20,0,1,0,0,0,151,151,154,1,,,,,,,,
,,,,,,,,,,,,,FF,,,,,,,,1.083,,,,,,,,,,,,,,,,,,,,,,60fd84f001f3672f1d717cc7,61036b5d80e18145fa95da26,2021-07-29_22h01.46.129,Simcolourproject_2stim_asymm_v5,2020.2.10,MacIntel,60,61025ae37ef11b136ea224fe,,,,,,,,,2536,77,-27,1,0,0,response3disk,,5,27,-11,1,0,0,rectangle,-57,35,1,0,0,-13,10,1,0,0,0,152,152,91,1,,response7disk_3,TRUE,1,1,"[8,29,314,30,32,196,262,316,26,212,91,310,108,265,49,53,291,153,46,241]",1.267,rectangle
,,,,,,,,,,,,,FF,,,,,,,,0.899,,,,,,,,,,,,,,,,,,,,,,60fd84f001f3672f1d717cc7,61036b5d80e18145fa95da26,2021-07-29_22h01.46.129,Simcolourproject_2stim_asymm_v5,2020.2.10,MacIntel,60,61025ae37ef11b136ea224fe,,,,,,,,,3108,-67,-35,1,0,0,response5disk,,2,-16,-4,1,0,0,rectangle,-16,-4,1,0,0,-16,-4,1,0,0,0,153,153,95,1,,,,,,,,
,,,,,,,,,,,,,FF,,,,,,,,1.217,,,,,,,,,,,,,,,,,,,,,,60fd84f001f3672f1d717cc7,61036b5d80e18145fa95da26,2021-07-29_22h01.46.129,Simcolourproject_2stim_asymm_v5,2020.2.10,MacIntel,60,61025ae37ef11b136ea224fe,,,,,,,,,1733,-59,-22,1,0,0,response5disk,,2,-14,-5,1,0,0,rectangle,-14,-5,1,0,0,-14,-5,1,0,0,0,154,154,63,1,,,,,,,,
,,,,,,,,,,,,,FF,,,,,,,,0.766,,,,,,,,,,,,,,,,,,,,,,60fd84f001f3672f1d717cc7,61036b5d80e18145fa95da26,2021-07-29_22h01.46.129,Simcolourproject_2stim_asymm_v5,2020.2.10,MacIntel,60,61025ae37ef11b136ea224fe,,,,,,,,,1816,-64,31,1,0,0,response7disk,,1,-18,10,1,0,0,rectangle,-18,10,1,0,0,-18,10,1,0,0,0,155,155,89,1,,,,,,,,
,,,,,,,,,,,,,FF,,,,,,,,0.983,,,,,,,,,,,,,,,,,,,,,,60fd84f001f3672f1d717cc7,61036b5d80e18145fa95da26,2021-07-29_22h01.46.129,Simcolourproject_2stim_asymm_v5,2020.2.10,MacIntel,60,61025ae37ef11b136ea224fe,,,,,,,,,3520,-35,-51,1,0,0,response5disk,,3,-7,-1,1,0,0,rectangle,-7,-1,1,0,0,-7,-1,1,0,0,0,156,156,137,1,,,,,,,,
,,,,,,,,,,,,,FF,,,,,,,,1.784,,,,,,,,,,,,,,,,,,,,,,60fd84f001f3672f1d717cc7,61036b5d80e18145fa95da26,2021-07-29_22h01.46.129,Simcolourproject_2stim_asymm_v5,2020.2.10,MacIntel,60,61025ae37ef11b136ea224fe,,,,,,,,,459,-36,-55,1,0,0,response5disk,,3,-4,-6,1,0,0,rectangle,-4,-6,1,0,0,-4,-6,1,0,0,0,157,157,73,1,,,,,,,,
,,,,,,,,,,,,,FF,,,,,,,,1.099,,,,,,,,,,,,,,,,,,,,,,60fd84f001f3672f1d717cc7,61036b5d80e18145fa95da26,2021-07-29_22h01.46.129,Simcolourproject_2stim_asymm_v5,2020.2.10,MacIntel,60,61025ae37ef11b136ea224fe,,,,,,,,,2502,21,-56,1,0,0,response3disk,,4,10,2,1,0,0,rectangle,10,2,1,0,0,10,2,1,0,0,0,158,158,150,1,,,,,,,,
,,,,,,,,,,,,,FF,,,,,,,,0.966,,,,,,,,,,,,,,,,,,,,,,60fd84f001f3672f1d717cc7,61036b5d80e18145fa95da26,2021-07-29_22h01.46.129,Simcolourproject_2stim_asymm_v5,2020.2.10,MacIntel,60,61025ae37ef11b136ea224fe,,,,,,,,,3746,-28,-44,1,0,0,response5disk,,3,19,0,1,0,0,rectangle,19,0,1,0,0,19,0,1,0,0,0,159,159,11,1,,,,,,,,
,,,,,,,,,,,,,FF,,,,,,,,1.017,,,,,,,,,,,,,,,,,,,,,,60fd84f001f3672f1d717cc7,61036b5d80e18145fa95da26,2021-07-29_22h01.46.129,Simcolourproject_2stim_asymm_v5,2020.2.10,MacIntel,60,61025ae37ef11b136ea224fe,,,,,,,,,3220,52,-41,1,0,0,response3disk,,5,18,-10,1,0,0,rectangle,18,-10,1,0,0,18,-10,1,0,0,1,0,160,119,1,,,,,,,,
,,,,,,,,,,,,,FF,,,,,,,,1.316,,,,,,,,,,,,,,,,,,,,,,60fd84f001f3672f1d717cc7,61036b5d80e18145fa95da26,2021-07-29_22h01.46.129,Simcolourproject_2stim_asymm_v5,2020.2.10,MacIntel,60,61025ae37ef11b136ea224fe,,,,,,,,,59,45,-30,1,0,0,response3disk,,5,13,0,1,0,0,rectangle,13,0,1,0,0,13,0,1,0,0,1,1,161,66,1,,,,,,,,
,,,,,,,,,,,,,FF,,,,,,,,0.968,,,,,,,,,,,,,,,,,,,,,,60fd84f001f3672f1d717cc7,61036b5d80e18145fa95da26,2021-07-29_22h01.46.129,Simcolourproject_2stim_asymm_v5,2020.2.10,MacIntel,60,61025ae37ef11b136ea224fe,,,,,,,,,649,-21,-58,1,0,0,response5disk,,3,2,-7,1,0,0,rectangle,2,-7,1,0,0,2,-7,1,0,0,1,2,162,58,1,,,,,,,,
,,,,,,,,,,,,,FF,,,,,,,,1.017,,,,,,,,,,,,,,,,,,,,,,60fd84f001f3672f1d717cc7,61036b5d80e18145fa95da26,2021-07-29_22h01.46.129,Simcolourproject_2stim_asymm_v5,2020.2.10,MacIntel,60,61025ae37ef11b136ea224fe,,,,,,,,,1096,67,-23,1,0,0,response3disk,,5,28,9,1,0,0,rectangle,28,9,1,0,0,28,9,1,0,0,1,3,163,154,1,,,,,,,,
,,,,,,,,,,,,,FF,,,,,,,,1.449,,,,,,,,,,,,,,,,,,,,,,60fd84f001f3672f1d717cc7,61036b5d80e18145fa95da26,2021-07-29_22h01.46.129,Simcolourproject_2stim_asymm_v5,2020.2.10,MacIntel,60,61025ae37ef11b136ea224fe,,,,,,,,,1072,33,-72,1,0,0,response3disk,,4,18,2,1,0,0,rectangle,18,2,1,0,0,18,2,1,0,0,1,4,164,100,1,,,,,,,,
,,,,,,,,,,,,,FF,,,,,,,,1.916,,,,,,,,,,,,,,,,,,,,,,60fd84f001f3672f1d717cc7,61036b5d80e18145fa95da26,2021-07-29_22h01.46.129,Simcolourproject_2stim_asymm_v5,2020.2.10,MacIntel,60,61025ae37ef11b136ea224fe,,,,,,,,,389,-28,-60,1,0,0,response5disk,,3,-6,-10,1,0,0,rectangle,-6,-10,1,0,0,-6,-10,1,0,0,1,5,165,67,1,,,,,,,,
,,,,,,,,,,,,,FF,,,,,,,,1.017,,,,,,,,,,,,,,,,,,,,,,60fd84f001f3672f1d717cc7,61036b5d80e18145fa95da26,2021-07-29_22h01.46.129,Simcolourproject_2stim_asymm_v5,2020.2.10,MacIntel,60,61025ae37ef11b136ea224fe,,,,,,,,,3450,66,-33,1,0,0,response3disk,,5,19,6,1,0,0,rectangle,19,6,1,0,0,19,6,1,0,0,1,6,166,132,1,,,,,,,,
,,,,,,,,,,,,,FF,,,,,,,,1.2,,,,,,,,,,,,,,,,,,,,,,60fd84f001f3672f1d717cc7,61036b5d80e18145fa95da26,2021-07-29_22h01.46.129,Simcolourproject_2stim_asymm_v5,2020.2.10,MacIntel,60,61025ae37ef11b136ea224fe,,,,,,,,,3609,55,-29,1,0,0,response3disk,,5,16,-7,1,0,0,rectangle,16,-7,1,0,0,16,-7,1,0,0,1,7,167,60,1,,,,,,,,
,,,,,,,,,,,,,FF,,,,,,,,1.633,,,,,,,,,,,,,,,,,,,,,,60fd84f001f3672f1d717cc7,61036b5d80e18145fa95da26,2021-07-29_22h01.46.129,Simcolourproject_2stim_asymm_v5,2020.2.10,MacIntel,60,61025ae37ef11b136ea224fe,,,,,,,,,2001,82,43,1,0,0,response1disk,,6,21,2,1,0,0,rectangle,21,2,1,0,0,21,2,1,0,0,1,8,168,8,1,,,,,,,,
,,,,,,,,,,,,,FF,,,,,,,,1.017,,,,,,,,,,,,,,,,,,,,,,60fd84f001f3672f1d717cc7,61036b5d80e18145fa95da26,2021-07-29_22h01.46.129,Simcolourproject_2stim_asymm_v5,2020.2.10,MacIntel,60,61025ae37ef11b136ea224fe,,,,,,,,,2177,47,-29,1,0,0,response3disk,,5,28,-12,1,0,0,rectangle,28,-12,1,0,0,28,-12,1,0,0,1,9,169,15,1,,,,,,,,
,,,,,,,,,,,,,FF,,,,,,,,1.05,,,,,,,,,,,,,,,,,,,,,,60fd84f001f3672f1d717cc7,61036b5d80e18145fa95da26,2021-07-29_22h01.46.129,Simcolourproject_2stim_asymm_v5,2020.2.10,MacIntel,60,61025ae37ef11b136ea224fe,,,,,,,,,587,68,29,1,0,0,response1disk,,6,35,2,1,0,0,rectangle,35,2,1,0,0,35,2,1,0,0,1,10,170,102,1,,,,,,,,
,,,,,,,,,,,,,FF,,,,,,,,1.833,,,,,,,,,,,,,,,,,,,,,,60fd84f001f3672f1d717cc7,61036b5d80e18145fa95da26,2021-07-29_22h01.46.129,Simcolourproject_2stim_asymm_v5,2020.2.10,MacIntel,60,61025ae37ef11b136ea224fe,,,,,,,,,254,68,41,1,0,0,response1disk,,6,25,10,1,0,0,rectangle,25,10,1,0,0,25,10,1,0,0,1,11,171,12,1,,,,,,,,
,,,,,,,,,,,,,FF,,,,,,,,1.267,,,,,,,,,,,,,,,,,,,,,,60fd84f001f3672f1d717cc7,61036b5d80e18145fa95da26,2021-07-29_22h01.46.129,Simcolourproject_2stim_asymm_v5,2020.2.10,MacIntel,60,61025ae37ef11b136ea224fe,,,,,,,,,4358,27,-49,1,0,0,response3disk,,4,26,-8,1,0,0,rectangle,26,-8,1,0,0,26,-8,1,0,0,1,12,172,7,1,,,,,,,,
,,,,,,,,,,,,,FF,,,,,,,,1.032,,,,,,,,,,,,,,,,,,,,,,60fd84f001f3672f1d717cc7,61036b5d80e18145fa95da26,2021-07-29_22h01.46.129,Simcolourproject_2stim_asymm_v5,2020.2.10,MacIntel,60,61025ae37ef11b136ea224fe,,,,,,,,,1658,70,-24,1,0,0,response3disk,,5,19,-5,1,0,0,rectangle,19,-5,1,0,0,19,-5,1,0,0,1,13,173,74,1,,,,,,,,
,,,,,,,,,,,,,FF,,,,,,,,0.867,,,,,,,,,,,,,,,,,,,,,,60fd84f001f3672f1d717cc7,61036b5d80e18145fa95da26,2021-07-29_22h01.46.129,Simcolourproject_2stim_asymm_v5,2020.2.10,MacIntel,60,61025ae37ef11b136ea224fe,,,,,,,,,3054,-29,-61,1,0,0,response5disk,,3,2,-9,1,0,0,rectangle,2,-9,1,0,0,2,-9,1,0,0,1,14,174,101,1,,,,,,,,
,,,,,,,,,,,,,FF,,,,,,,,0.883,,,,,,,,,,,,,,,,,,,,,,60fd84f001f3672f1d717cc7,61036b5d80e18145fa95da26,2021-07-29_22h01.46.129,Simcolourproject_2stim_asymm_v5,2020.2.10,MacIntel,60,61025ae37ef11b136ea224fe,,,,,,,,,3968,-41,-52,1,0,0,response5disk,,3,5,-5,1,0,0,rectangle,5,-5,1,0,0,5,-5,1,0,0,1,15,175,150,1,,,,,,,,
,,,,,,,,,,,,,FF,,,,,,,,1.633,,,,,,,,,,,,,,,,,,,,,,60fd84f001f3672f1d717cc7,61036b5d80e18145fa95da26,2021-07-29_22h01.46.129,Simcolourproject_2stim_asymm_v5,2020.2.10,MacIntel,60,61025ae37ef11b136ea224fe,,,,,,,,,4214,55,34,1,0,0,response1disk,,6,24,10,1,0,0,rectangle,24,10,1,0,0,24,10,1,0,0,1,16,176,61,1,,,,,,,,
,,,,,,,,,,,,,FF,,,,,,,,0.882,,,,,,,,,,,,,,,,,,,,,,60fd84f001f3672f1d717cc7,61036b5d80e18145fa95da26,2021-07-29_22h01.46.129,Simcolourproject_2stim_asymm_v5,2020.2.10,MacIntel,60,61025ae37ef11b136ea224fe,,,,,,,,,1740,50,-27,1,0,0,response3disk,,5,24,-4,1,0,0,rectangle,24,-4,1,0,0,24,-4,1,0,0,1,17,177,110,1,,,,,,,,
,,,,,,,,,,,,,FF,,,,,,,,1.468,,,,,,,,,,,,,,,,,,,,,,60fd84f001f3672f1d717cc7,61036b5d80e18145fa95da26,2021-07-29_22h01.46.129,Simcolourproject_2stim_asymm_v5,2020.2.10,MacIntel,60,61025ae37ef11b136ea224fe,,,,,,,,,3778,37,-64,1,0,0,response3disk,,4,19,-4,1,0,0,rectangle,19,-4,1,0,0,19,-4,1,0,0,1,18,178,47,1,,,,,,,,
,,,,,,,,,,,,,FF,,,,,,,,0.8,,,,,,,,,,,,,,,,,,,,,,60fd84f001f3672f1d717cc7,61036b5d80e18145fa95da26,2021-07-29_22h01.46.129,Simcolourproject_2stim_asymm_v5,2020.2.10,MacIntel,60,61025ae37ef11b136ea224fe,,,,,,,,,1207,73,42,1,0,0,response1disk,,6,17,0,1,0,0,rectangle,17,0,1,0,0,17,0,1,0,0,1,19,179,152,1,,,,,,,,
,,,,,,,,,,,,,FF,,,,,,,,1.084,,,,,,,,,,,,,,,,,,,,,,60fd84f001f3672f1d717cc7,61036b5d80e18145fa95da26,2021-07-29_22h01.46.129,Simcolourproject_2stim_asymm_v5,2020.2.10,MacIntel,60,61025ae37ef11b136ea224fe,,,,,,,,,266,49,-35,1,0,0,response3disk,,5,26,-9,1,0,0,rectangle,26,-9,1,0,0,26,-9,1,0,0,1,20,180,70,1,,,,,,,,
,,,,,,,,,,,,,FF,,,,,,,,1.051,,,,,,,,,,,,,,,,,,,,,,60fd84f001f3672f1d717cc7,61036b5d80e18145fa95da26,2021-07-29_22h01.46.129,Simcolourproject_2stim_asymm_v5,2020.2.10,MacIntel,60,61025ae37ef11b136ea224fe,,,,,,,,,372,26,-56,1,0,0,response3disk,,4,18,-2,1,0,0,rectangle,18,-2,1,0,0,18,-2,1,0,0,1,21,181,71,1,,,,,,,,
,,,,,,,,,,,,,FF,,,,,,,,0.684,,,,,,,,,,,,,,,,,,,,,,60fd84f001f3672f1d717cc7,61036b5d80e18145fa95da26,2021-07-29_22h01.46.129,Simcolourproject_2stim_asymm_v5,2020.2.10,MacIntel,60,61025ae37ef11b136ea224fe,,,,,,,,,1701,51,-25,1,0,0,response3disk,,5,16,-6,1,0,0,rectangle,16,-6,1,0,0,16,-6,1,0,0,1,22,182,45,1,,,,,,,,
,,,,,,,,,,,,,FF,,,,,,,,1.301,,,,,,,,,,,,,,,,,,,,,,60fd84f001f3672f1d717cc7,61036b5d80e18145fa95da26,2021-07-29_22h01.46.129,Simcolourproject_2stim_asymm_v5,2020.2.10,MacIntel,60,61025ae37ef11b136ea224fe,,,,,,,,,3565,36,-38,1,0,0,response3disk,,4,26,-11,1,0,0,rectangle,26,-11,1,0,0,26,-11,1,0,0,1,23,183,63,1,,,,,,,,
,,,,,,,,,,,,,FF,,,,,,,,0.899,,,,,,,,,,,,,,,,,,,,,,60fd84f001f3672f1d717cc7,61036b5d80e18145fa95da26,2021-07-29_22h01.46.129,Simcolourproject_2stim_asymm_v5,2020.2.10,MacIntel,60,61025ae37ef11b136ea224fe,,,,,,,,,1935,52,-30,1,0,0,response3disk,,5,20,2,1,0,0,rectangle,20,2,1,0,0,20,2,1,0,0,1,24,184,151,1,,,,,,,,
,,,,,,,,,,,,,FF,,,,,,,,1.233,,,,,,,,,,,,,,,,,,,,,,60fd84f001f3672f1d717cc7,61036b5d80e18145fa95da26,2021-07-29_22h01.46.129,Simcolourproject_2stim_asymm_v5,2020.2.10,MacIntel,60,61025ae37ef11b136ea224fe,,,,,,,,,208,54,-36,1,0,0,response3disk,,5,17,-6,1,0,0,rectangle,17,-6,1,0,0,17,-6,1,0,0,1,25,185,65,1,,,,,,,,
,,,,,,,,,,,,,FF,,,,,,,,1.284,,,,,,,,,,,,,,,,,,,,,,60fd84f001f3672f1d717cc7,61036b5d80e18145fa95da26,2021-07-29_22h01.46.129,Simcolourproject_2stim_asymm_v5,2020.2.10,MacIntel,60,61025ae37ef11b136ea224fe,,,,,,,,,2050,35,-48,1,0,0,response3disk,,4,21,5,1,0,0,rectangle,21,5,1,0,0,21,5,1,0,0,1,26,186,105,1,,,,,,,,
,,,,,,,,,,,,,FF,,,,,,,,1.616,,,,,,,,,,,,,,,,,,,,,,60fd84f001f3672f1d717cc7,61036b5d80e18145fa95da26,2021-07-29_22h01.46.129,Simcolourproject_2stim_asymm_v5,2020.2.10,MacIntel,60,61025ae37ef11b136ea224fe,,,,,,,,,1823,-59,-35,1,0,0,response5disk,,2,-4,-2,1,0,0,rectangle,-4,-2,1,0,0,-4,-2,1,0,0,1,27,187,158,1,,,,,,,,
,,,,,,,,,,,,,FF,,,,,,,,0.883,,,,,,,,,,,,,,,,,,,,,,60fd84f001f3672f1d717cc7,61036b5d80e18145fa95da26,2021-07-29_22h01.46.129,Simcolourproject_2stim_asymm_v5,2020.2.10,MacIntel,60,61025ae37ef11b136ea224fe,,,,,,,,,999,67,-30,1,0,0,response3disk,,5,25,0,1,0,0,rectangle,25,0,1,0,0,25,0,1,0,0,1,28,188,159,1,,,,,,,,
,,,,,,,,,,,,,FF,,,,,,,,0.784,,,,,,,,,,,,,,,,,,,,,,60fd84f001f3672f1d717cc7,61036b5d80e18145fa95da26,2021-07-29_22h01.46.129,Simcolourproject_2stim_asymm_v5,2020.2.10,MacIntel,60,61025ae37ef11b136ea224fe,,,,,,,,,1544,39,-50,1,0,0,response3disk,,4,29,-5,1,0,0,rectangle,29,-5,1,0,0,29,-5,1,0,0,1,29,189,56,1,,,,,,,,
,,,,,,,,,,,,,FF,,,,,,,,1.183,,,,,,,,,,,,,,,,,,,,,,60fd84f001f3672f1d717cc7,61036b5d80e18145fa95da26,2021-07-29_22h01.46.129,Simcolourproject_2stim_asymm_v5,2020.2.10,MacIntel,60,61025ae37ef11b136ea224fe,,,,,,,,,3065,-27,-59,1,0,0,response5disk,,3,-4,6,1,0,0,rectangle,-4,6,1,0,0,-4,6,1,0,0,1,30,190,73,1,,,,,,,,
,,,,,,,,,,,,,FF,,,,,,,,1.35,,,,,,,,,,,,,,,,,,,,,,60fd84f001f3672f1d717cc7,61036b5d80e18145fa95da26,2021-07-29_22h01.46.129,Simcolourproject_2stim_asymm_v5,2020.2.10,MacIntel,60,61025ae37ef11b136ea224fe,,,,,,,,,1834,-31,-56,1,0,0,response5disk,,3,-7,-9,1,0,0,rectangle,-7,-9,1,0,0,-7,-9,1,0,0,1,31,191,133,1,,,,,,,,
,,,,,,,,,,,,,FF,,,,,,,,1.718,,,,,,,,,,,,,,,,,,,,,,60fd84f001f3672f1d717cc7,61036b5d80e18145fa95da26,2021-07-29_22h01.46.129,Simcolourproject_2stim_asymm_v5,2020.2.10,MacIntel,60,61025ae37ef11b136ea224fe,,,,,,,,,1848,28,-58,1,0,0,response3disk,,4,15,-8,1,0,0,rectangle,15,-8,1,0,0,15,-8,1,0,0,1,32,192,28,1,,,,,,,,
,,,,,,,,,,,,,FF,,,,,,,,0.9,,,,,,,,,,,,,,,,,,,,,,60fd84f001f3672f1d717cc7,61036b5d80e18145fa95da26,2021-07-29_22h01.46.129,Simcolourproject_2stim_asymm_v5,2020.2.10,MacIntel,60,61025ae37ef11b136ea224fe,,,,,,,,,1898,-40,-64,1,0,0,response5disk,,3,-15,-11,1,0,0,rectangle,-15,-11,1,0,0,-15,-11,1,0,0,1,33,193,34,1,,,,,,,,
,,,,,,,,,,,,,FF,,,,,,,,0.817,,,,,,,,,,,,,,,,,,,,,,60fd84f001f3672f1d717cc7,61036b5d80e18145fa95da26,2021-07-29_22h01.46.129,Simcolourproject_2stim_asymm_v5,2020.2.10,MacIntel,60,61025ae37ef11b136ea224fe,,,,,,,,,3820,62,-32,1,0,0,response3disk,,5,23,-2,1,0,0,rectangle,23,-2,1,0,0,23,-2,1,0,0,1,34,194,82,1,,,,,,,,
,,,,,,,,,,,,,FF,,,,,,,,0.784,,,,,,,,,,,,,,,,,,,,,,60fd84f001f3672f1d717cc7,61036b5d80e18145fa95da26,2021-07-29_22h01.46.129,Simcolourproject_2stim_asymm_v5,2020.2.10,MacIntel,60,61025ae37ef11b136ea224fe,,,,,,,,,464,25,-54,1,0,0,response3disk,,4,15,-12,1,0,0,rectangle,53,-27,1,0,0,20,-12,1,0,0,1,35,195,77,1,,response3disk_3,TRUE,5,5,"[8,29,314,30,32,196,262,316,26,212,91,310,108,265,49,53,291,153,46,241]",1.483,rectangle
,,,,,,,,,,,,,FF,,,,,,,,0.882,,,,,,,,,,,,,,,,,,,,,,60fd84f001f3672f1d717cc7,61036b5d80e18145fa95da26,2021-07-29_22h01.46.129,Simcolourproject_2stim_asymm_v5,2020.2.10,MacIntel,60,61025ae37ef11b136ea224fe,,,,,,,,,3645,50,-25,1,0,0,response3disk,,5,24,-5,1,0,0,rectangle,24,-5,1,0,0,24,-5,1,0,0,1,36,196,20,1,,,,,,,,
,,,,,,,,,,,,,FF,,,,,,,,1.467,,,,,,,,,,,,,,,,,,,,,,60fd84f001f3672f1d717cc7,61036b5d80e18145fa95da26,2021-07-29_22h01.46.129,Simcolourproject_2stim_asymm_v5,2020.2.10,MacIntel,60,61025ae37ef11b136ea224fe,,,,,,,,,3376,-43,-54,1,0,0,response5disk,,3,16,-1,1,0,0,rectangle,16,-1,1,0,0,16,-1,1,0,0,1,37,197,78,1,,,,,,,,
,,,,,,,,,,,,,FF,,,,,,,,0.717,,,,,,,,,,,,,,,,,,,,,,60fd84f001f3672f1d717cc7,61036b5d80e18145fa95da26,2021-07-29_22h01.46.129,Simcolourproject_2stim_asymm_v5,2020.2.10,MacIntel,60,61025ae37ef11b136ea224fe,,,,,,,,,595,66,-25,1,0,0,response3disk,,5,25,-9,1,0,0,rectangle,25,-9,1,0,0,25,-9,1,0,0,1,38,198,37,1,,,,,,,,
,,,,,,,,,,,,,FF,,,,,,,,1.016,,,,,,,,,,,,,,,,,,,,,,60fd84f001f3672f1d717cc7,61036b5d80e18145fa95da26,2021-07-29_22h01.46.129,Simcolourproject_2stim_asymm_v5,2020.2.10,MacIntel,60,61025ae37ef11b136ea224fe,,,,,,,,,2561,33,-56,1,0,0,response3disk,,4,24,-15,1,0,0,rectangle,24,-15,1,0,0,24,-15,1,0,0,1,39,199,68,1,,,,,,,,
,,,,,,,,,,,,,FF,,,,,,,,1.35,,,,,,,,,,,,,,,,,,,,,,60fd84f001f3672f1d717cc7,61036b5d80e18145fa95da26,2021-07-29_22h01.46.129,Simcolourproject_2stim_asymm_v5,2020.2.10,MacIntel,60,61025ae37ef11b136ea224fe,,,,,,,,,1565,66,-28,1,0,0,response3disk,,5,28,-6,1,0,0,rectangle,28,-6,1,0,0,28,-6,1,0,0,1,40,200,156,1,,,,,,,,
,,,,,,,,,,,,,FF,,,,,,,,0.751,,,,,,,,,,,,,,,,,,,,,,60fd84f001f3672f1d717cc7,61036b5d80e18145fa95da26,2021-07-29_22h01.46.129,Simcolourproject_2stim_asymm_v5,2020.2.10,MacIntel,60,61025ae37ef11b136ea224fe,,,,,,,,,1031,67,-31,1,0,0,response3disk,,5,27,-5,1,0,0,rectangle,27,-5,1,0,0,27,-5,1,0,0,1,41,201,108,1,,,,,,,,
,,,,,,,,,,,,,FF,,,,,,,,1.284,,,,,,,,,,,,,,,,,,,,,,60fd84f001f3672f1d717cc7,61036b5d80e18145fa95da26,2021-07-29_22h01.46.129,Simcolourproject_2stim_asymm_v5,2020.2.10,MacIntel,60,61025ae37ef11b136ea224fe,,,,,,,,,3273,70,-38,1,0,0,response3disk,,5,31,13,1,0,0,rectangle,31,13,1,0,0,31,13,1,0,0,1,42,202,137,1,,,,,,,,
,,,,,,,,,,,,,FF,,,,,,,,1.35,,,,,,,,,,,,,,,,,,,,,,60fd84f001f3672f1d717cc7,61036b5d80e18145fa95da26,2021-07-29_22h01.46.129,Simcolourproject_2stim_asymm_v5,2020.2.10,MacIntel,60,61025ae37ef11b136ea224fe,,,,,,,,,2989,35,-60,1,0,0,response3disk,,4,5,-8,1,0,0,rectangle,5,-8,1,0,0,5,-8,1,0,0,1,43,203,98,1,,,,,,,,
,,,,,,,,,,,,,FF,,,,,,,,1.033,,,,,,,,,,,,,,,,,,,,,,60fd84f001f3672f1d717cc7,61036b5d80e18145fa95da26,2021-07-29_22h01.46.129,Simcolourproject_2stim_asymm_v5,2020.2.10,MacIntel,60,61025ae37ef11b136ea224fe,,,,,,,,,1951,34,-52,1,0,0,response3disk,,4,17,-8,1,0,0,rectangle,17,-8,1,0,0,17,-8,1,0,0,1,44,204,24,1,,,,,,,,
,,,,,,,,,,,,,FF,,,,,,,,1.884,,,,,,,,,,,,,,,,,,,,,,60fd84f001f3672f1d717cc7,61036b5d80e18145fa95da26,2021-07-29_22h01.46.129,Simcolourproject_2stim_asymm_v5,2020.2.10,MacIntel,60,61025ae37ef11b136ea224fe,,,,,,,,,2930,33,-59,1,0,0,response3disk,,4,24,-3,1,0,0,rectangle,24,-3,1,0,0,24,-3,1,0,0,1,45,205,38,1,,,,,,,,
,,,,,,,,,,,,,FF,,,,,,,,0.866,,,,,,,,,,,,,,,,,,,,,,60fd84f001f3672f1d717cc7,61036b5d80e18145fa95da26,2021-07-29_22h01.46.129,Simcolourproject_2stim_asymm_v5,2020.2.10,MacIntel,60,61025ae37ef11b136ea224fe,,,,,,,,,3494,62,-35,1,0,0,response3disk,,5,19,-3,1,0,0,rectangle,19,-3,1,0,0,19,-3,1,0,0,1,46,206,3,1,,,,,,,,
,,,,,,,,,,,,,FF,,,,,,,,0.882,,,,,,,,,,,,,,,,,,,,,,60fd84f001f3672f1d717cc7,61036b5d80e18145fa95da26,2021-07-29_22h01.46.129,Simcolourproject_2stim_asymm_v5,2020.2.10,MacIntel,60,61025ae37ef11b136ea224fe,,,,,,,,,4243,52,76,1,0,0,response1disk,,7,18,6,1,0,0,rectangle,18,6,1,0,0,18,6,1,0,0,1,47,207,18,1,,,,,,,,
,,,,,,,,,,,,,FF,,,,,,,,1.651,,,,,,,,,,,,,,,,,,,,,,60fd84f001f3672f1d717cc7,61036b5d80e18145fa95da26,2021-07-29_22h01.46.129,Simcolourproject_2stim_asymm_v5,2020.2.10,MacIntel,60,61025ae37ef11b136ea224fe,,,,,,,,,1042,-29,-55,1,0,0,response5disk,,3,9,-1,1,0,0,rectangle,9,-1,1,0,0,9,-1,1,0,0,1,48,208,36,1,,,,,,,,
,,,,,,,,,,,,,FF,,,,,,,,1.001,,,,,,,,,,,,,,,,,,,,,,60fd84f001f3672f1d717cc7,61036b5d80e18145fa95da26,2021-07-29_22h01.46.129,Simcolourproject_2stim_asymm_v5,2020.2.10,MacIntel,60,61025ae37ef11b136ea224fe,,,,,,,,,3126,54,-30,1,0,0,response3disk,,5,11,-7,1,0,0,rectangle,11,-7,1,0,0,11,-7,1,0,0,1,49,209,79,1,,,,,,,,
,,,,,,,,,,,,,FF,,,,,,,,0.783,,,,,,,,,,,,,,,,,,,,,,60fd84f001f3672f1d717cc7,61036b5d80e18145fa95da26,2021-07-29_22h01.46.129,Simcolourproject_2stim_asymm_v5,2020.2.10,MacIntel,60,61025ae37ef11b136ea224fe,,,,,,,,,2530,67,-36,1,0,0,response3disk,,5,26,-2,1,0,0,rectangle,26,-2,1,0,0,26,-2,1,0,0,1,50,210,84,1,,,,,,,,
,,,,,,,,,,,,,FF,,,,,,,,0.85,,,,,,,,,,,,,,,,,,,,,,60fd84f001f3672f1d717cc7,61036b5d80e18145fa95da26,2021-07-29_22h01.46.129,Simcolourproject_2stim_asymm_v5,2020.2.10,MacIntel,60,61025ae37ef11b136ea224fe,,,,,,,,,4343,-71,-34,1,0,0,response5disk,,2,-24,-13,1,0,0,rectangle,91,33,1,0,0,20,-1,1,0,0,1,51,211,142,1,,response1disk_3,TRUE,6,6,"[8,29,314,30,32,196,262,316,26,212,91,310,108,265,49,53,291,153,46,241]",1.666,rectangle
,,,,,,,,,,,,,FF,,,,,,,,1.283,,,,,,,,,,,,,,,,,,,,,,60fd84f001f3672f1d717cc7,61036b5d80e18145fa95da26,2021-07-29_22h01.46.129,Simcolourproject_2stim_asymm_v5,2020.2.10,MacIntel,60,61025ae37ef11b136ea224fe,,,,,,,,,4066,25,-73,1,0,0,response3disk,,4,22,-1,1,0,0,rectangle,22,-1,1,0,0,22,-1,1,0,0,1,52,212,51,1,,,,,,,,
,,,,,,,,,,,,,FF,,,,,,,,1.616,,,,,,,,,,,,,,,,,,,,,,60fd84f001f3672f1d717cc7,61036b5d80e18145fa95da26,2021-07-29_22h01.46.129,Simcolourproject_2stim_asymm_v5,2020.2.10,MacIntel,60,61025ae37ef11b136ea224fe,,,,,,,,,738,59,-33,1,0,0,response3disk,,5,12,-5,1,0,0,rectangle,12,-5,1,0,0,12,-5,1,0,0,1,53,213,146,1,,,,,,,,
,,,,,,,,,,,,,FF,,,,,,,,1.467,,,,,,,,,,,,,,,,,,,,,,60fd84f001f3672f1d717cc7,61036b5d80e18145fa95da26,2021-07-29_22h01.46.129,Simcolourproject_2stim_asymm_v5,2020.2.10,MacIntel,60,61025ae37ef11b136ea224fe,,,,,,,,,2709,74,60,1,0,0,response1disk,,6,20,4,1,0,0,rectangle,20,4,1,0,0,20,4,1,0,0,1,54,214,52,1,,,,,,,,
,,,,,,,,,,,,,FF,,,,,,,,1.284,,,,,,,,,,,,,,,,,,,,,,60fd84f001f3672f1d717cc7,61036b5d80e18145fa95da26,2021-07-29_22h01.46.129,Simcolourproject_2stim_asymm_v5,2020.2.10,MacIntel,60,61025ae37ef11b136ea224fe,,,,,,,,,38,53,-21,1,0,0,response3disk,,5,32,-10,1,0,0,rectangle,32,-10,1,0,0,32,-10,1,0,0,1,55,215,33,1,,,,,,,,
,,,,,,,,,,,,,FF,,,,,,,,0.884,,,,,,,,,,,,,,,,,,,,,,60fd84f001f3672f1d717cc7,61036b5d80e18145fa95da26,2021-07-29_22h01.46.129,Simcolourproject_2stim_asymm_v5,2020.2.10,MacIntel,60,61025ae37ef11b136ea224fe,,,,,,,,,1054,-33,-59,1,0,0,response5disk,,3,-9,-13,1,0,0,rectangle,-9,-13,1,0,0,-9,-13,1,0,0,1,56,216,89,1,,,,,,,,
,,,,,,,,,,,,,FF,,,,,,,,0.8,,,,,,,,,,,,,,,,,,,,,,60fd84f001f3672f1d717cc7,61036b5d80e18145fa95da26,2021-07-29_22h01.46.129,Simcolourproject_2stim_asymm_v5,2020.2.10,MacIntel,60,61025ae37ef11b136ea224fe,,,,,,,,,2729,-24,-43,1,0,0,response5disk,,3,-12,-15,1,0,0,rectangle,-12,-15,1,0,0,-12,-15,1,0,0,1,57,217,115,1,,,,,,,,
,,,,,,,,,,,,,FF,,,,,,,,0.867,,,,,,,,,,,,,,,,,,,,,,60fd84f001f3672f1d717cc7,61036b5d80e18145fa95da26,2021-07-29_22h01.46.129,Simcolourproject_2stim_asymm_v5,2020.2.10,MacIntel,60,61025ae37ef11b136ea224fe,,,,,,,,,184,68,-34,1,0,0,response3disk,,5,24,-7,1,0,0,rectangle,24,-7,1,0,0,24,-7,1,0,0,1,58,218,81,1,,,,,,,,
,,,,,,,,,,,,,FF,,,,,,,,0.849,,,,,,,,,,,,,,,,,,,,,,60fd84f001f3672f1d717cc7,61036b5d80e18145fa95da26,2021-07-29_22h01.46.129,Simcolourproject_2stim_asymm_v5,2020.2.10,MacIntel,60,61025ae37ef11b136ea224fe,,,,,,,,,340,60,-29,1,0,0,response3disk,,5,22,-3,1,0,0,rectangle,22,-3,1,0,0,22,-3,1,0,0,1,59,219,96,1,,,,,,,,
,,,,,,,,,,,,,FF,,,,,,,,0.685,,,,,,,,,,,,,,,,,,,,,,60fd84f001f3672f1d717cc7,61036b5d80e18145fa95da26,2021-07-29_22h01.46.129,Simcolourproject_2stim_asymm_v5,2020.2.10,MacIntel,60,61025ae37ef11b136ea224fe,,,,,,,,,775,55,-32,1,0,0,response3disk,,5,19,-4,1,0,0,rectangle,19,-4,1,0,0,19,-4,1,0,0,1,60,220,23,1,,,,,,,,
,,,,,,,,,,,,,FF,,,,,,,,2.65,,,,,,,,,,,,,,,,,,,,,,60fd84f001f3672f1d717cc7,61036b5d80e18145fa95da26,2021-07-29_22h01.46.129,Simcolourproject_2stim_asymm_v5,2020.2.10,MacIntel,60,61025ae37ef11b136ea224fe,,,,,,,,,2626,70,-38,1,0,0,response3disk,,5,17,-10,1,0,0,rectangle,17,-10,1,0,0,17,-10,1,0,0,1,61,221,109,1,,,,,,,,
,,,,,,,,,,,,,FF,,,,,,,,1.133,,,,,,,,,,,,,,,,,,,,,,60fd84f001f3672f1d717cc7,61036b5d80e18145fa95da26,2021-07-29_22h01.46.129,Simcolourproject_2stim_asymm_v5,2020.2.10,MacIntel,60,61025ae37ef11b136ea224fe,,,,,,,,,2582,45,-33,1,0,0,response3disk,,5,16,-3,1,0,0,rectangle,16,-3,1,0,0,16,-3,1,0,0,1,62,222,59,1,,,,,,,,
,,,,,,,,,,,,,FF,,,,,,,,0.984,,,,,,,,,,,,,,,,,,,,,,60fd84f001f3672f1d717cc7,61036b5d80e18145fa95da26,2021-07-29_22h01.46.129,Simcolourproject_2stim_asymm_v5,2020.2.10,MacIntel,60,61025ae37ef11b136ea224fe,,,,,,,,,3394,-30,-64,1,0,0,response5disk,,3,9,-1,1,0,0,rectangle,9,-1,1,0,0,9,-1,1,0,0,1,63,223,53,1,,,,,,,,
,,,,,,,,,,,,,FF,,,,,,,,0.766,,,,,,,,,,,,,,,,,,,,,,60fd84f001f3672f1d717cc7,61036b5d80e18145fa95da26,2021-07-29_22h01.46.129,Simcolourproject_2stim_asymm_v5,2020.2.10,MacIntel,60,61025ae37ef11b136ea224fe,,,,,,,,,3880,25,-53,1,0,0,response3disk,,4,11,-1,1,0,0,rectangle,11,-1,1,0,0,11,-1,1,0,0,1,64,224,2,1,,,,,,,,
,,,,,,,,,,,,,FF,,,,,,,,1.067,,,,,,,,,,,,,,,,,,,,,,60fd84f001f3672f1d717cc7,61036b5d80e18145fa95da26,2021-07-29_22h01.46.129,Simcolourproject_2stim_asymm_v5,2020.2.10,MacIntel,60,61025ae37ef11b136ea224fe,,,,,,,,,795,36,-65,1,0,0,response3disk,,4,24,-2,1,0,0,rectangle,24,-2,1,0,0,24,-2,1,0,0,1,65,225,69,1,,,,,,,,
,,,,,,,,,,,,,FF,,,,,,,,1.183,,,,,,,,,,,,,,,,,,,,,,60fd84f001f3672f1d717cc7,61036b5d80e18145fa95da26,2021-07-29_22h01.46.129,Simcolourproject_2stim_asymm_v5,2020.2.10,MacIntel,60,61025ae37ef11b136ea224fe,,,,,,,,,2478,71,21,1,0,0,response1disk,,6,29,7,1,0,0,rectangle,29,7,1,0,0,29,7,1,0,0,1,66,226,103,1,,,,,,,,
,,,,,,,,,,,,,FF,,,,,,,,1.1,,,,,,,,,,,,,,,,,,,,,,60fd84f001f3672f1d717cc7,61036b5d80e18145fa95da26,2021-07-29_22h01.46.129,Simcolourproject_2stim_asymm_v5,2020.2.10,MacIntel,60,61025ae37ef11b136ea224fe,,,,,,,,,3310,57,-27,1,0,0,response3disk,,5,18,2,1,0,0,rectangle,18,2,1,0,0,18,2,1,0,0,1,67,227,11,1,,,,,,,,
,,,,,,,,,,,,,FF,,,,,,,,0.983,,,,,,,,,,,,,,,,,,,,,,60fd84f001f3672f1d717cc7,61036b5d80e18145fa95da26,2021-07-29_22h01.46.129,Simcolourproject_2stim_asymm_v5,2020.2.10,MacIntel,60,61025ae37ef11b136ea224fe,,,,,,,,,1537,-28,-55,1,0,0,response5disk,,3,30,4,1,0,0,rectangle,30,4,1,0,0,30,4,1,0,0,1,68,228,43,1,,,,,,,,
,,,,,,,,,,,,,FF,,,,,,,,0.966,,,,,,,,,,,,,,,,,,,,,,60fd84f001f3672f1d717cc7,61036b5d80e18145fa95da26,2021-07-29_22h01.46.129,Simcolourproject_2stim_asymm_v5,2020.2.10,MacIntel,60,61025ae37ef11b136ea224fe,,,,,,,,,4333,45,72,1,0,0,response1disk,,7,21,17,1,0,0,rectangle,21,17,1,0,0,21,17,1,0,0,1,69,229,55,1,,,,,,,,
,,,,,,,,,,,,,FF,,,,,,,,1.2,,,,,,,,,,,,,,,,,,,,,,60fd84f001f3672f1d717cc7,61036b5d80e18145fa95da26,2021-07-29_22h01.46.129,Simcolourproject_2stim_asymm_v5,2020.2.10,MacIntel,60,61025ae37ef11b136ea224fe,,,,,,,,,672,59,-39,1,0,0,response3disk,,5,10,-10,1,0,0,rectangle,10,-10,1,0,0,10,-10,1,0,0,1,70,230,0,1,,,,,,,,
,,,,,,,,,,,,,FF,,,,,,,,0.949,,,,,,,,,,,,,,,,,,,,,,60fd84f001f3672f1d717cc7,61036b5d80e18145fa95da26,2021-07-29_22h01.46.129,Simcolourproject_2stim_asymm_v5,2020.2.10,MacIntel,60,61025ae37ef11b136ea224fe,,,,,,,,,946,60,-26,1,0,0,response3disk,,5,33,-12,1,0,0,rectangle,33,-12,1,0,0,33,-12,1,0,0,1,71,231,120,1,,,,,,,,
,,,,,,,,,,,,,FF,,,,,,,,1.516,,,,,,,,,,,,,,,,,,,,,,60fd84f001f3672f1d717cc7,61036b5d80e18145fa95da26,2021-07-29_22h01.46.129,Simcolourproject_2stim_asymm_v5,2020.2.10,MacIntel,60,61025ae37ef11b136ea224fe,,,,,,,,,388,34,-59,1,0,0,response3disk,,4,29,-6,1,0,0,rectangle,29,-6,1,0,0,29,-6,1,0,0,1,72,232,39,1,,,,,,,,
,,,,,,,,,,,,,FF,,,,,,,,0.817,,,,,,,,,,,,,,,,,,,,,,60fd84f001f3672f1d717cc7,61036b5d80e18145fa95da26,2021-07-29_22h01.46.129,Simcolourproject_2stim_asymm_v5,2020.2.10,MacIntel,60,61025ae37ef11b136ea224fe,,,,,,,,,1831,-36,-68,1,0,0,response5disk,,3,-17,-9,1,0,0,rectangle,-17,-9,1,0,0,-17,-9,1,0,0,1,73,233,6,1,,,,,,,,
,,,,,,,,,,,,,FF,,,,,,,,0.933,,,,,,,,,,,,,,,,,,,,,,60fd84f001f3672f1d717cc7,61036b5d80e18145fa95da26,2021-07-29_22h01.46.129,Simcolourproject_2stim_asymm_v5,2020.2.10,MacIntel,60,61025ae37ef11b136ea224fe,,,,,,,,,1468,38,-56,1,0,0,response3disk,,4,34,-11,1,0,0,rectangle,34,-11,1,0,0,34,-11,1,0,0,1,74,234,19,1,,,,,,,,
,,,,,,,,,,,,,FF,,,,,,,,0.8,,,,,,,,,,,,,,,,,,,,,,60fd84f001f3672f1d717cc7,61036b5d80e18145fa95da26,2021-07-29_22h01.46.129,Simcolourproject_2stim_asymm_v5,2020.2.10,MacIntel,60,61025ae37ef11b136ea224fe,,,,,,,,,2912,54,-27,1,0,0,response3disk,,5,32,-10,1,0,0,rectangle,32,-10,1,0,0,32,-10,1,0,0,1,75,235,35,1,,,,,,,,
,,,,,,,,,,,,,FF,,,,,,,,0.867,,,,,,,,,,,,,,,,,,,,,,60fd84f001f3672f1d717cc7,61036b5d80e18145fa95da26,2021-07-29_22h01.46.129,Simcolourproject_2stim_asymm_v5,2020.2.10,MacIntel,60,61025ae37ef11b136ea224fe,,,,,,,,,636,-31,-81,1,0,0,response5disk,,3,-14,-15,1,0,0,rectangle,-14,-15,1,0,0,-14,-15,1,0,0,1,76,236,87,1,,,,,,,,
,,,,,,,,,,,,,FF,,,,,,,,1,,,,,,,,,,,,,,,,,,,,,,60fd84f001f3672f1d717cc7,61036b5d80e18145fa95da26,2021-07-29_22h01.46.129,Simcolourproject_2stim_asymm_v5,2020.2.10,MacIntel,60,61025ae37ef11b136ea224fe,,,,,,,,,2643,37,-56,1,0,0,response3disk,,4,24,-9,1,0,0,rectangle,24,-9,1,0,0,24,-9,1,0,0,1,77,237,40,1,,,,,,,,
,,,,,,,,,,,,,FF,,,,,,,,2.249,,,,,,,,,,,,,,,,,,,,,,60fd84f001f3672f1d717cc7,61036b5d80e18145fa95da26,2021-07-29_22h01.46.129,Simcolourproject_2stim_asymm_v5,2020.2.10,MacIntel,60,61025ae37ef11b136ea224fe,,,,,,,,,3316,79,-28,1,0,0,response3disk,,5,7,-3,1,0,0,rectangle,7,-3,1,0,0,7,-3,1,0,0,1,78,238,127,1,,,,,,,,
,,,,,,,,,,,,,FF,,,,,,,,1.033,,,,,,,,,,,,,,,,,,,,,,60fd84f001f3672f1d717cc7,61036b5d80e18145fa95da26,2021-07-29_22h01.46.129,Simcolourproject_2stim_asymm_v5,2020.2.10,MacIntel,60,61025ae37ef11b136ea224fe,,,,,,,,,3845,27,-62,1,0,0,response3disk,,4,26,-14,1,0,0,rectangle,26,-14,1,0,0,26,-14,1,0,0,1,79,239,113,1,,,,,,,,
,,,,,,,,,,,,,FF,,,,,,,,1.55,,,,,,,,,,,,,,,,,,,,,,60fd84f001f3672f1d717cc7,61036b5d80e18145fa95da26,2021-07-29_22h01.46.129,Simcolourproject_2stim_asymm_v5,2020.2.10,MacIntel,60,61025ae37ef11b136ea224fe,,,,,,,,,4359,51,-38,1,0,0,response3disk,,5,21,-6,1,0,0,rectangle,36,-76,1,0,0,29,-3,1,0,0,1,80,240,116,1,,response3disk_3,TRUE,4,4,"[8,29,314,30,32,196,262,316,26,212,91,310,108,265,49,53,291,153,46,241]",1.583,rectangle
,,,,,,,,,,,,,FF,,,,,,,,2.534,,,,,,,,,,,,,,,,,,,,,,60fd84f001f3672f1d717cc7,61036b5d80e18145fa95da26,2021-07-29_22h01.46.129,Simcolourproject_2stim_asymm_v5,2020.2.10,MacIntel,60,61025ae37ef11b136ea224fe,,,,,,,,,1286,54,-27,1,0,0,response3disk,,5,18,-2,1,0,0,rectangle,18,-2,1,0,0,18,-2,1,0,0,1,81,241,104,1,,,,,,,,
,,,,,,,,,,,,,FF,,,,,,,,1.3,,,,,,,,,,,,,,,,,,,,,,60fd84f001f3672f1d717cc7,61036b5d80e18145fa95da26,2021-07-29_22h01.46.129,Simcolourproject_2stim_asymm_v5,2020.2.10,MacIntel,60,61025ae37ef11b136ea224fe,,,,,,,,,1651,66,-47,1,0,0,response3disk,,5,25,-14,1,0,0,rectangle,25,-14,1,0,0,25,-14,1,0,0,1,82,242,88,1,,,,,,,,
,,,,,,,,,,,,,FF,,,,,,,,0.9,,,,,,,,,,,,,,,,,,,,,,60fd84f001f3672f1d717cc7,61036b5d80e18145fa95da26,2021-07-29_22h01.46.129,Simcolourproject_2stim_asymm_v5,2020.2.10,MacIntel,60,61025ae37ef11b136ea224fe,,,,,,,,,342,27,-46,1,0,0,response3disk,,4,14,4,1,0,0,rectangle,14,4,1,0,0,14,4,1,0,0,1,83,243,57,1,,,,,,,,
,,,,,,,,,,,,,FF,,,,,,,,1.25,,,,,,,,,,,,,,,,,,,,,,60fd84f001f3672f1d717cc7,61036b5d80e18145fa95da26,2021-07-29_22h01.46.129,Simcolourproject_2stim_asymm_v5,2020.2.10,MacIntel,60,61025ae37ef11b136ea224fe,,,,,,,,,3929,96,42,1,0,0,response1disk,,6,29,4,1,0,0,rectangle,29,4,1,0,0,29,4,1,0,0,1,84,244,134,1,,,,,,,,
,,,,,,,,,,,,,FF,,,,,,,,1.001,,,,,,,,,,,,,,,,,,,,,,60fd84f001f3672f1d717cc7,61036b5d80e18145fa95da26,2021-07-29_22h01.46.129,Simcolourproject_2stim_asymm_v5,2020.2.10,MacIntel,60,61025ae37ef11b136ea224fe,,,,,,,,,2882,-29,-65,1,0,0,response5disk,,3,-22,-8,1,0,0,rectangle,-22,-8,1,0,0,-22,-8,1,0,0,1,85,245,143,1,,,,,,,,
,,,,,,,,,,,,,FF,,,,,,,,1.083,,,,,,,,,,,,,,,,,,,,,,60fd84f001f3672f1d717cc7,61036b5d80e18145fa95da26,2021-07-29_22h01.46.129,Simcolourproject_2stim_asymm_v5,2020.2.10,MacIntel,60,61025ae37ef11b136ea224fe,,,,,,,,,3326,59,-83,1,0,0,response3disk,,4,9,1,1,0,0,rectangle,9,1,1,0,0,9,1,1,0,0,1,86,246,54,1,,,,,,,,
,,,,,,,,,,,,,FF,,,,,,,,1.082,,,,,,,,,,,,,,,,,,,,,,60fd84f001f3672f1d717cc7,61036b5d80e18145fa95da26,2021-07-29_22h01.46.129,Simcolourproject_2stim_asymm_v5,2020.2.10,MacIntel,60,61025ae37ef11b136ea224fe,,,,,,,,,228,80,-47,1,0,0,response3disk,,5,18,-5,1,0,0,rectangle,18,-5,1,0,0,18,-5,1,0,0,1,87,247,123,1,,,,,,,,
,,,,,,,,,,,,,FF,,,,,,,,0.8,,,,,,,,,,,,,,,,,,,,,,60fd84f001f3672f1d717cc7,61036b5d80e18145fa95da26,2021-07-29_22h01.46.129,Simcolourproject_2stim_asymm_v5,2020.2.10,MacIntel,60,61025ae37ef11b136ea224fe,,,,,,,,,1942,62,-37,1,0,0,response3disk,,5,29,1,1,0,0,rectangle,29,1,1,0,0,29,1,1,0,0,1,88,248,139,1,,,,,,,,
,,,,,,,,,,,,,FF,,,,,,,,0.932,,,,,,,,,,,,,,,,,,,,,,60fd84f001f3672f1d717cc7,61036b5d80e18145fa95da26,2021-07-29_22h01.46.129,Simcolourproject_2stim_asymm_v5,2020.2.10,MacIntel,60,61025ae37ef11b136ea224fe,,,,,,,,,60,72,-39,1,0,0,response3disk,,5,15,0,1,0,0,rectangle,15,0,1,0,0,15,0,1,0,0,1,89,249,149,1,,,,,,,,
,,,,,,,,,,,,,FF,,,,,,,,0.717,,,,,,,,,,,,,,,,,,,,,,60fd84f001f3672f1d717cc7,61036b5d80e18145fa95da26,2021-07-29_22h01.46.129,Simcolourproject_2stim_asymm_v5,2020.2.10,MacIntel,60,61025ae37ef11b136ea224fe,,,,,,,,,475,61,-42,1,0,0,response3disk,,5,23,3,1,0,0,rectangle,23,3,1,0,0,23,3,1,0,0,1,90,250,141,1,,,,,,,,
,,,,,,,,,,,,,FF,,,,,,,,1,,,,,,,,,,,,,,,,,,,,,,60fd84f001f3672f1d717cc7,61036b5d80e18145fa95da26,2021-07-29_22h01.46.129,Simcolourproject_2stim_asymm_v5,2020.2.10,MacIntel,60,61025ae37ef11b136ea224fe,,,,,,,,,1228,25,-57,1,0,0,response3disk,,4,18,-2,1,0,0,rectangle,18,-2,1,0,0,18,-2,1,0,0,1,91,251,117,1,,,,,,,,
,,,,,,,,,,,,,FF,,,,,,,,1.2,,,,,,,,,,,,,,,,,,,,,,60fd84f001f3672f1d717cc7,61036b5d80e18145fa95da26,2021-07-29_22h01.46.129,Simcolourproject_2stim_asymm_v5,2020.2.10,MacIntel,60,61025ae37ef11b136ea224fe,,,,,,,,,657,30,-50,1,0,0,response3disk,,4,21,-3,1,0,0,rectangle,21,-3,1,0,0,21,-3,1,0,0,1,92,252,124,1,,,,,,,,
,,,,,,,,,,,,,FF,,,,,,,,1.001,,,,,,,,,,,,,,,,,,,,,,60fd84f001f3672f1d717cc7,61036b5d80e18145fa95da26,2021-07-29_22h01.46.129,Simcolourproject_2stim_asymm_v5,2020.2.10,MacIntel,60,61025ae37ef11b136ea224fe,,,,,,,,,2321,101,-41,1,0,0,response3disk,,5,21,-1,1,0,0,rectangle,21,-1,1,0,0,21,-1,1,0,0,1,93,253,30,1,,,,,,,,
,,,,,,,,,,,,,FF,,,,,,,,1.066,,,,,,,,,,,,,,,,,,,,,,60fd84f001f3672f1d717cc7,61036b5d80e18145fa95da26,2021-07-29_22h01.46.129,Simcolourproject_2stim_asymm_v5,2020.2.10,MacIntel,60,61025ae37ef11b136ea224fe,,,,,,,,,2670,-28,-64,1,0,0,response5disk,,3,-4,-16,1,0,0,rectangle,-4,-16,1,0,0,-4,-16,1,0,0,1,94,254,21,1,,,,,,,,
,,,,,,,,,,,,,FF,,,,,,,,0.883,,,,,,,,,,,,,,,,,,,,,,60fd84f001f3672f1d717cc7,61036b5d80e18145fa95da26,2021-07-29_22h01.46.129,Simcolourproject_2stim_asymm_v5,2020.2.10,MacIntel,60,61025ae37ef11b136ea224fe,,,,,,,,,2591,55,-23,1,0,0,response3disk,,5,12,-2,1,0,0,rectangle,12,-2,1,0,0,12,-2,1,0,0,1,95,255,148,1,,,,,,,,
,,,,,,,,,,,,,FF,,,,,,,,0.951,,,,,,,,,,,,,,,,,,,,,,60fd84f001f3672f1d717cc7,61036b5d80e18145fa95da26,2021-07-29_22h01.46.129,Simcolourproject_2stim_asymm_v5,2020.2.10,MacIntel,60,61025ae37ef11b136ea224fe,,,,,,,,,1439,75,-26,1,0,0,response3disk,,5,17,-5,1,0,0,rectangle,17,-5,1,0,0,17,-5,1,0,0,1,96,256,41,1,,,,,,,,
,,,,,,,,,,,,,FF,,,,,,,,0.966,,,,,,,,,,,,,,,,,,,,,,60fd84f001f3672f1d717cc7,61036b5d80e18145fa95da26,2021-07-29_22h01.46.129,Simcolourproject_2stim_asymm_v5,2020.2.10,MacIntel,60,61025ae37ef11b136ea224fe,,,,,,,,,3194,58,37,1,0,0,response1disk,,6,10,10,1,0,0,rectangle,10,10,1,0,0,10,10,1,0,0,1,97,257,97,1,,,,,,,,
,,,,,,,,,,,,,FF,,,,,,,,1.183,,,,,,,,,,,,,,,,,,,,,,60fd84f001f3672f1d717cc7,61036b5d80e18145fa95da26,2021-07-29_22h01.46.129,Simcolourproject_2stim_asymm_v5,2020.2.10,MacIntel,60,61025ae37ef11b136ea224fe,,,,,,,,,3672,-38,-63,1,0,0,response5disk,,3,-3,-7,1,0,0,rectangle,-3,-7,1,0,0,-3,-7,1,0,0,1,98,258,72,1,,,,,,,,
,,,,,,,,,,,,,FF,,,,,,,,1.016,,,,,,,,,,,,,,,,,,,,,,60fd84f001f3672f1d717cc7,61036b5d80e18145fa95da26,2021-07-29_22h01.46.129,Simcolourproject_2stim_asymm_v5,2020.2.10,MacIntel,60,61025ae37ef11b136ea224fe,,,,,,,,,3015,62,41,1,0,0,response1disk,,6,24,12,1,0,0,rectangle,24,12,1,0,0,24,12,1,0,0,1,99,259,129,1,,,,,,,,
,,,,,,,,,,,,,FF,,,,,,,,0.866,,,,,,,,,,,,,,,,,,,,,,60fd84f001f3672f1d717cc7,61036b5d80e18145fa95da26,2021-07-29_22h01.46.129,Simcolourproject_2stim_asymm_v5,2020.2.10,MacIntel,60,61025ae37ef11b136ea224fe,,,,,,,,,3221,67,-20,1,0,0,response3disk,,5,15,3,1,0,0,rectangle,15,3,1,0,0,15,3,1,0,0,1,100,260,5,1,,,,,,,,
,,,,,,,,,,,,,FF,,,,,,,,0.816,,,,,,,,,,,,,,,,,,,,,,60fd84f001f3672f1d717cc7,61036b5d80e18145fa95da26,2021-07-29_22h01.46.129,Simcolourproject_2stim_asymm_v5,2020.2.10,MacIntel,60,61025ae37ef11b136ea224fe,,,,,,,,,994,61,-35,1,0,0,response3disk,,5,19,-5,1,0,0,rectangle,73,34,1,0,0,30,6,1,0,0,1,101,261,107,1,,response1disk_3,TRUE,6,6,"[8,29,314,30,32,196,262,316,26,212,91,310,108,265,49,53,291,153,46,241]",1.634,rectangle
,,,,,,,,,,,,,FF,,,,,,,,1.283,,,,,,,,,,,,,,,,,,,,,,60fd84f001f3672f1d717cc7,61036b5d80e18145fa95da26,2021-07-29_22h01.46.129,Simcolourproject_2stim_asymm_v5,2020.2.10,MacIntel,60,61025ae37ef11b136ea224fe,,,,,,,,,4043,76,-33,1,0,0,response3disk,,5,22,7,1,0,0,rectangle,22,7,1,0,0,22,7,1,0,0,1,102,262,17,1,,,,,,,,
,,,,,,,,,,,,,FF,,,,,,,,0.583,,,,,,,,,,,,,,,,,,,,,,60fd84f001f3672f1d717cc7,61036b5d80e18145fa95da26,2021-07-29_22h01.46.129,Simcolourproject_2stim_asymm_v5,2020.2.10,MacIntel,60,61025ae37ef11b136ea224fe,,,,,,,,,3324,70,-27,1,0,0,response3disk,,5,29,-2,1,0,0,rectangle,29,-2,1,0,0,29,-2,1,0,0,1,103,263,42,1,,,,,,,,
,,,,,,,,,,,,,FF,,,,,,,,1.317,,,,,,,,,,,,,,,,,,,,,,60fd84f001f3672f1d717cc7,61036b5d80e18145fa95da26,2021-07-29_22h01.46.129,Simcolourproject_2stim_asymm_v5,2020.2.10,MacIntel,60,61025ae37ef11b136ea224fe,,,,,,,,,4012,77,55,1,0,0,response1disk,,6,28,2,1,0,0,rectangle,69,-32,1,0,0,27,-7,1,0,0,1,104,264,10,1,,response3disk_3,TRUE,5,5,"[8,29,314,30,32,196,262,316,26,212,91,310,108,265,49,53,291,153,46,241]",1.65,rectangle
,,,,,,,,,,,,,FF,,,,,,,,1.082,,,,,,,,,,,,,,,,,,,,,,60fd84f001f3672f1d717cc7,61036b5d80e18145fa95da26,2021-07-29_22h01.46.129,Simcolourproject_2stim_asymm_v5,2020.2.10,MacIntel,60,61025ae37ef11b136ea224fe,,,,,,,,,1022,75,-24,1,0,0,response3disk,,5,25,-9,1,0,0,rectangle,25,-9,1,0,0,25,-9,1,0,0,1,105,265,22,1,,,,,,,,
,,,,,,,,,,,,,FF,,,,,,,,2.7,,,,,,,,,,,,,,,,,,,,,,60fd84f001f3672f1d717cc7,61036b5d80e18145fa95da26,2021-07-29_22h01.46.129,Simcolourproject_2stim_asymm_v5,2020.2.10,MacIntel,60,61025ae37ef11b136ea224fe,,,,,,,,,3166,40,-64,1,0,0,response3disk,,4,23,-3,1,0,0,rectangle,23,-3,1,0,0,23,-3,1,0,0,1,106,266,92,1,,,,,,,,
,,,,,,,,,,,,,FF,,,,,,,,3.05,,,,,,,,,,,,,,,,,,,,,,60fd84f001f3672f1d717cc7,61036b5d80e18145fa95da26,2021-07-29_22h01.46.129,Simcolourproject_2stim_asymm_v5,2020.2.10,MacIntel,60,61025ae37ef11b136ea224fe,,,,,,,,,1430,82,-39,1,0,0,response3disk,,5,12,-2,1,0,0,rectangle,12,-2,1,0,0,12,-2,1,0,0,1,107,267,13,1,,,,,,,,
,,,,,,,,,,,,,FF,,,,,,,,1.05,,,,,,,,,,,,,,,,,,,,,,60fd84f001f3672f1d717cc7,61036b5d80e18145fa95da26,2021-07-29_22h01.46.129,Simcolourproject_2stim_asymm_v5,2020.2.10,MacIntel,60,61025ae37ef11b136ea224fe,,,,,,,,,1033,83,39,1,0,0,response1disk,,6,11,15,1,0,0,rectangle,11,15,1,0,0,11,15,1,0,0,1,108,268,26,1,,,,,,,,
,,,,,,,,,,,,,FF,,,,,,,,0.899,,,,,,,,,,,,,,,,,,,,,,60fd84f001f3672f1d717cc7,61036b5d80e18145fa95da26,2021-07-29_22h01.46.129,Simcolourproject_2stim_asymm_v5,2020.2.10,MacIntel,60,61025ae37ef11b136ea224fe,,,,,,,,,574,32,-63,1,0,0,response3disk,,4,17,-6,1,0,0,rectangle,17,-6,1,0,0,17,-6,1,0,0,1,109,269,91,1,,,,,,,,
,,,,,,,,,,,,,FF,,,,,,,,1.516,,,,,,,,,,,,,,,,,,,,,,60fd84f001f3672f1d717cc7,61036b5d80e18145fa95da26,2021-07-29_22h01.46.129,Simcolourproject_2stim_asymm_v5,2020.2.10,MacIntel,60,61025ae37ef11b136ea224fe,,,,,,,,,1665,58,25,1,0,0,response1disk,,6,27,1,1,0,0,rectangle,27,1,1,0,0,27,1,1,0,0,1,110,270,76,1,,,,,,,,
,,,,,,,,,,,,,FF,,,,,,,,1.184,,,,,,,,,,,,,,,,,,,,,,60fd84f001f3672f1d717cc7,61036b5d80e18145fa95da26,2021-07-29_22h01.46.129,Simcolourproject_2stim_asymm_v5,2020.2.10,MacIntel,60,61025ae37ef11b136ea224fe,,,,,,,,,2826,-21,-54,1,0,0,response5disk,,3,-3,-14,1,0,0,rectangle,-3,-14,1,0,0,-3,-14,1,0,0,1,111,271,136,1,,,,,,,,
,,,,,,,,,,,,,FF,,,,,,,,0.866,,,,,,,,,,,,,,,,,,,,,,60fd84f001f3672f1d717cc7,61036b5d80e18145fa95da26,2021-07-29_22h01.46.129,Simcolourproject_2stim_asymm_v5,2020.2.10,MacIntel,60,61025ae37ef11b136ea224fe,,,,,,,,,505,56,-29,1,0,0,response3disk,,5,26,-2,1,0,0,rectangle,26,-2,1,0,0,26,-2,1,0,0,1,112,272,1,1,,,,,,,,
,,,,,,,,,,,,,FF,,,,,,,,1.101,,,,,,,,,,,,,,,,,,,,,,60fd84f001f3672f1d717cc7,61036b5d80e18145fa95da26,2021-07-29_22h01.46.129,Simcolourproject_2stim_asymm_v5,2020.2.10,MacIntel,60,61025ae37ef11b136ea224fe,,,,,,,,,3127,53,-43,1,0,0,response3disk,,5,24,-9,1,0,0,rectangle,24,-9,1,0,0,24,-9,1,0,0,1,113,273,122,1,,,,,,,,
,,,,,,,,,,,,,FF,,,,,,,,1.283,,,,,,,,,,,,,,,,,,,,,,60fd84f001f3672f1d717cc7,61036b5d80e18145fa95da26,2021-07-29_22h01.46.129,Simcolourproject_2stim_asymm_v5,2020.2.10,MacIntel,60,61025ae37ef11b136ea224fe,,,,,,,,,2775,-79,32,1,0,0,response7disk,,1,-10,3,1,0,0,rectangle,-10,3,1,0,0,-10,3,1,0,0,1,114,274,14,1,,,,,,,,
,,,,,,,,,,,,,FF,,,,,,,,1.683,,,,,,,,,,,,,,,,,,,,,,60fd84f001f3672f1d717cc7,61036b5d80e18145fa95da26,2021-07-29_22h01.46.129,Simcolourproject_2stim_asymm_v5,2020.2.10,MacIntel,60,61025ae37ef11b136ea224fe,,,,,,,,,729,17,-70,1,0,0,response3disk,,4,8,-2,1,0,0,rectangle,8,-2,1,0,0,8,-2,1,0,0,1,115,275,155,1,,,,,,,,
,,,,,,,,,,,,,FF,,,,,,,,1.35,,,,,,,,,,,,,,,,,,,,,,60fd84f001f3672f1d717cc7,61036b5d80e18145fa95da26,2021-07-29_22h01.46.129,Simcolourproject_2stim_asymm_v5,2020.2.10,MacIntel,60,61025ae37ef11b136ea224fe,,,,,,,,,830,71,-46,1,0,0,response3disk,,5,17,-1,1,0,0,rectangle,17,-1,1,0,0,17,-1,1,0,0,1,116,276,75,1,,,,,,,,
,,,,,,,,,,,,,FF,,,,,,,,1.301,,,,,,,,,,,,,,,,,,,,,,60fd84f001f3672f1d717cc7,61036b5d80e18145fa95da26,2021-07-29_22h01.46.129,Simcolourproject_2stim_asymm_v5,2020.2.10,MacIntel,60,61025ae37ef11b136ea224fe,,,,,,,,,1046,58,20,1,0,0,response1disk,,6,14,-5,1,0,0,rectangle,14,-5,1,0,0,14,-5,1,0,0,1,117,277,31,1,,,,,,,,
,,,,,,,,,,,,,FF,,,,,,,,0.883,,,,,,,,,,,,,,,,,,,,,,60fd84f001f3672f1d717cc7,61036b5d80e18145fa95da26,2021-07-29_22h01.46.129,Simcolourproject_2stim_asymm_v5,2020.2.10,MacIntel,60,61025ae37ef11b136ea224fe,,,,,,,,,2688,69,36,1,0,0,response1disk,,6,21,11,1,0,0,rectangle,21,11,1,0,0,21,11,1,0,0,1,118,278,49,1,,,,,,,,
,,,,,,,,,,,,,FF,,,,,,,,0.817,,,,,,,,,,,,,,,,,,,,,,60fd84f001f3672f1d717cc7,61036b5d80e18145fa95da26,2021-07-29_22h01.46.129,Simcolourproject_2stim_asymm_v5,2020.2.10,MacIntel,60,61025ae37ef11b136ea224fe,,,,,,,,,3446,42,56,1,0,0,response1disk,,7,17,11,1,0,0,rectangle,17,11,1,0,0,17,11,1,0,0,1,119,279,93,1,,,,,,,,
,,,,,,,,,,,,,FF,,,,,,,,1.236,,,,,,,,,,,,,,,,,,,,,,60fd84f001f3672f1d717cc7,61036b5d80e18145fa95da26,2021-07-29_22h01.46.129,Simcolourproject_2stim_asymm_v5,2020.2.10,MacIntel,60,61025ae37ef11b136ea224fe,,,,,,,,,3371,70,-28,1,0,0,response3disk,,5,33,-3,1,0,0,rectangle,33,-3,1,0,0,33,-3,1,0,0,1,120,280,130,1,,,,,,,,
,,,,,,,,,,,,,FF,,,,,,,,1.734,,,,,,,,,,,,,,,,,,,,,,60fd84f001f3672f1d717cc7,61036b5d80e18145fa95da26,2021-07-29_22h01.46.129,Simcolourproject_2stim_asymm_v5,2020.2.10,MacIntel,60,61025ae37ef11b136ea224fe,,,,,,,,,1615,-40,-75,1,0,0,response5disk,,3,17,8,1,0,0,rectangle,17,8,1,0,0,17,8,1,0,0,1,121,281,64,1,,,,,,,,
,,,,,,,,,,,,,FF,,,,,,,,0.949,,,,,,,,,,,,,,,,,,,,,,60fd84f001f3672f1d717cc7,61036b5d80e18145fa95da26,2021-07-29_22h01.46.129,Simcolourproject_2stim_asymm_v5,2020.2.10,MacIntel,60,61025ae37ef11b136ea224fe,,,,,,,,,3920,69,-30,1,0,0,response3disk,,5,30,-8,1,0,0,rectangle,30,-8,1,0,0,30,-8,1,0,0,1,122,282,83,1,,,,,,,,
,,,,,,,,,,,,,FF,,,,,,,,0.867,,,,,,,,,,,,,,,,,,,,,,60fd84f001f3672f1d717cc7,61036b5d80e18145fa95da26,2021-07-29_22h01.46.129,Simcolourproject_2stim_asymm_v5,2020.2.10,MacIntel,60,61025ae37ef11b136ea224fe,,,,,,,,,887,-60,-34,1,0,0,response5disk,,2,-10,-8,1,0,0,rectangle,-10,-8,1,0,0,-10,-8,1,0,0,1,123,283,16,1,,,,,,,,
,,,,,,,,,,,,,FF,,,,,,,,0.832,,,,,,,,,,,,,,,,,,,,,,60fd84f001f3672f1d717cc7,61036b5d80e18145fa95da26,2021-07-29_22h01.46.129,Simcolourproject_2stim_asymm_v5,2020.2.10,MacIntel,60,61025ae37ef11b136ea224fe,,,,,,,,,415,71,-33,1,0,0,response3disk,,5,28,-3,1,0,0,rectangle,28,-3,1,0,0,28,-3,1,0,0,1,124,284,144,1,,,,,,,,
,,,,,,,,,,,,,FF,,,,,,,,1.183,,,,,,,,,,,,,,,,,,,,,,60fd84f001f3672f1d717cc7,61036b5d80e18145fa95da26,2021-07-29_22h01.46.129,Simcolourproject_2stim_asymm_v5,2020.2.10,MacIntel,60,61025ae37ef11b136ea224fe,,,,,,,,,1516,47,-31,1,0,0,response3disk,,5,14,-2,1,0,0,rectangle,14,-2,1,0,0,14,-2,1,0,0,1,125,285,62,1,,,,,,,,
,,,,,,,,,,,,,FF,,,,,,,,0.766,,,,,,,,,,,,,,,,,,,,,,60fd84f001f3672f1d717cc7,61036b5d80e18145fa95da26,2021-07-29_22h01.46.129,Simcolourproject_2stim_asymm_v5,2020.2.10,MacIntel,60,61025ae37ef11b136ea224fe,,,,,,,,,4264,74,49,1,0,0,response1disk,,6,33,13,1,0,0,rectangle,33,13,1,0,0,33,13,1,0,0,1,126,286,46,1,,,,,,,,
,,,,,,,,,,,,,FF,,,,,,,,1.167,,,,,,,,,,,,,,,,,,,,,,60fd84f001f3672f1d717cc7,61036b5d80e18145fa95da26,2021-07-29_22h01.46.129,Simcolourproject_2stim_asymm_v5,2020.2.10,MacIntel,60,61025ae37ef11b136ea224fe,,,,,,,,,3933,66,29,1,0,0,response1disk,,6,26,3,1,0,0,rectangle,26,3,1,0,0,26,3,1,0,0,1,127,287,106,1,,,,,,,,
,,,,,,,,,,,,,FF,,,,,,,,1.016,,,,,,,,,,,,,,,,,,,,,,60fd84f001f3672f1d717cc7,61036b5d80e18145fa95da26,2021-07-29_22h01.46.129,Simcolourproject_2stim_asymm_v5,2020.2.10,MacIntel,60,61025ae37ef11b136ea224fe,,,,,,,,,3091,-30,-57,1,0,0,response5disk,,3,7,-8,1,0,0,rectangle,7,-8,1,0,0,7,-8,1,0,0,1,128,288,111,1,,,,,,,,
,,,,,,,,,,,,,FF,,,,,,,,0.816,,,,,,,,,,,,,,,,,,,,,,60fd84f001f3672f1d717cc7,61036b5d80e18145fa95da26,2021-07-29_22h01.46.129,Simcolourproject_2stim_asymm_v5,2020.2.10,MacIntel,60,61025ae37ef11b136ea224fe,,,,,,,,,3474,30,-51,1,0,0,response3disk,,4,24,-8,1,0,0,rectangle,24,-8,1,0,0,24,-8,1,0,0,1,129,289,147,1,,,,,,,,
,,,,,,,,,,,,,FF,,,,,,,,1.067,,,,,,,,,,,,,,,,,,,,,,60fd84f001f3672f1d717cc7,61036b5d80e18145fa95da26,2021-07-29_22h01.46.129,Simcolourproject_2stim_asymm_v5,2020.2.10,MacIntel,60,61025ae37ef11b136ea224fe,,,,,,,,,303,52,-35,1,0,0,response3disk,,5,14,-6,1,0,0,rectangle,57,-28,1,0,0,25,-5,1,0,0,1,130,290,4,1,,response3disk_3,TRUE,5,5,"[8,29,314,30,32,196,262,316,26,212,91,310,108,265,49,53,291,153,46,241]",1.217,rectangle
,,,,,,,,,,,,,FF,,,,,,,,1.866,,,,,,,,,,,,,,,,,,,,,,60fd84f001f3672f1d717cc7,61036b5d80e18145fa95da26,2021-07-29_22h01.46.129,Simcolourproject_2stim_asymm_v5,2020.2.10,MacIntel,60,61025ae37ef11b136ea224fe,,,,,,,,,2811,52,-36,1,0,0,response3disk,,5,18,-10,1,0,0,rectangle,18,-10,1,0,0,18,-10,1,0,0,1,131,291,9,1,,,,,,,,
,,,,,,,,,,,,,FF,,,,,,,,1.485,,,,,,,,,,,,,,,,,,,,,,60fd84f001f3672f1d717cc7,61036b5d80e18145fa95da26,2021-07-29_22h01.46.129,Simcolourproject_2stim_asymm_v5,2020.2.10,MacIntel,60,61025ae37ef11b136ea224fe,,,,,,,,,3765,106,36,1,0,0,response1disk,,6,29,3,1,0,0,rectangle,29,3,1,0,0,29,3,1,0,0,1,132,292,85,1,,,,,,,,
,,,,,,,,,,,,,FF,,,,,,,,1.017,,,,,,,,,,,,,,,,,,,,,,60fd84f001f3672f1d717cc7,61036b5d80e18145fa95da26,2021-07-29_22h01.46.129,Simcolourproject_2stim_asymm_v5,2020.2.10,MacIntel,60,61025ae37ef11b136ea224fe,,,,,,,,,3712,-25,-57,1,0,0,response5disk,,3,4,0,1,0,0,rectangle,4,0,1,0,0,4,0,1,0,0,1,133,293,99,1,,,,,,,,
,,,,,,,,,,,,,FF,,,,,,,,0.917,,,,,,,,,,,,,,,,,,,,,,60fd84f001f3672f1d717cc7,61036b5d80e18145fa95da26,2021-07-29_22h01.46.129,Simcolourproject_2stim_asymm_v5,2020.2.10,MacIntel,60,61025ae37ef11b136ea224fe,,,,,,,,,2440,29,-47,1,0,0,response3disk,,4,17,-8,1,0,0,rectangle,17,-8,1,0,0,17,-8,1,0,0,1,134,294,153,1,,,,,,,,
,,,,,,,,,,,,,FF,,,,,,,,1.034,,,,,,,,,,,,,,,,,,,,,,60fd84f001f3672f1d717cc7,61036b5d80e18145fa95da26,2021-07-29_22h01.46.129,Simcolourproject_2stim_asymm_v5,2020.2.10,MacIntel,60,61025ae37ef11b136ea224fe,,,,,,,,,1128,74,29,1,0,0,response1disk,,6,23,6,1,0,0,rectangle,23,6,1,0,0,23,6,1,0,0,1,135,295,32,1,,,,,,,,
,,,,,,,,,,,,,FF,,,,,,,,0.883,,,,,,,,,,,,,,,,,,,,,,60fd84f001f3672f1d717cc7,61036b5d80e18145fa95da26,2021-07-29_22h01.46.129,Simcolourproject_2stim_asymm_v5,2020.2.10,MacIntel,60,61025ae37ef11b136ea224fe,,,,,,,,,2248,46,-32,1,0,0,response3disk,,5,18,-6,1,0,0,rectangle,18,-6,1,0,0,18,-6,1,0,0,1,136,296,50,1,,,,,,,,
,,,,,,,,,,,,,FF,,,,,,,,0.933,,,,,,,,,,,,,,,,,,,,,,60fd84f001f3672f1d717cc7,61036b5d80e18145fa95da26,2021-07-29_22h01.46.129,Simcolourproject_2stim_asymm_v5,2020.2.10,MacIntel,60,61025ae37ef11b136ea224fe,,,,,,,,,481,58,-26,1,0,0,response3disk,,5,17,-1,1,0,0,rectangle,17,-1,1,0,0,17,-1,1,0,0,1,137,297,27,1,,,,,,,,
,,,,,,,,,,,,,FF,,,,,,,,1.034,,,,,,,,,,,,,,,,,,,,,,60fd84f001f3672f1d717cc7,61036b5d80e18145fa95da26,2021-07-29_22h01.46.129,Simcolourproject_2stim_asymm_v5,2020.2.10,MacIntel,60,61025ae37ef11b136ea224fe,,,,,,,,,1783,51,-26,1,0,0,response3disk,,5,23,-2,1,0,0,rectangle,23,-2,1,0,0,23,-2,1,0,0,1,138,298,145,1,,,,,,,,
,,,,,,,,,,,,,FF,,,,,,,,0.785,,,,,,,,,,,,,,,,,,,,,,60fd84f001f3672f1d717cc7,61036b5d80e18145fa95da26,2021-07-29_22h01.46.129,Simcolourproject_2stim_asymm_v5,2020.2.10,MacIntel,60,61025ae37ef11b136ea224fe,,,,,,,,,2739,52,-26,1,0,0,response3disk,,5,25,-1,1,0,0,rectangle,25,-1,1,0,0,25,-1,1,0,0,1,139,299,128,1,,,,,,,,
,,,,,,,,,,,,,FF,,,,,,,,1,,,,,,,,,,,,,,,,,,,,,,60fd84f001f3672f1d717cc7,61036b5d80e18145fa95da26,2021-07-29_22h01.46.129,Simcolourproject_2stim_asymm_v5,2020.2.10,MacIntel,60,61025ae37ef11b136ea224fe,,,,,,,,,1211,-47,33,1,0,0,response7disk,,1,-5,13,1,0,0,rectangle,-5,13,1,0,0,-5,13,1,0,0,1,140,300,48,1,,,,,,,,
