key_resp.keys,key_resp.rt,key_resp_14.keys,key_resp_14.rt,key_resp_15.keys,key_resp_15.rt,key_resp_17.keys,key_resp_17.rt,key_resp_9.keys,key_resp_9.rt,key_resp_10.keys,key_resp_10.rt,practice_comparison,Ecc,mouse_5.x,mouse_5.y,mouse_5.leftButton,mouse_5.midButton,mouse_5.rightButton,mouse_5.clicked_name,pracsimilarity,response_time,mouse_10.x,mouse_10.y,mouse_10.leftButton,mouse_10.midButton,mouse_10.rightButton,mouse_10.clicked_name,mouse_7.x,mouse_7.y,mouse_7.leftButton,mouse_7.midButton,mouse_7.rightButton,mouse_6.x,mouse_6.y,mouse_6.leftButton,mouse_6.midButton,mouse_6.rightButton,duringprac.thisRepN,duringprac.thisTrialN,duringprac.thisN,duringprac.thisIndex,duringprac.ran,participant,session,date,expName,psychopyVersion,OS,frameRate,study_id,mouse_7.clicked_name,catchpracsimilarity,catch_response_time,catchnumberprac,catchtrialorderprac,mouse_6.clicked_name,key_resp_22.keys,key_resp_22.rt,realcomparison,mouse.x,mouse.y,mouse.leftButton,mouse.midButton,mouse.rightButton,mouse.clicked_name,Colour2,similarity,mouse_2.x,mouse_2.y,mouse_2.leftButton,mouse_2.midButton,mouse_2.rightButton,mouse_2.clicked_name,mouse_3.x,mouse_3.y,mouse_3.leftButton,mouse_3.midButton,mouse_3.rightButton,mouse_11.x,mouse_11.y,mouse_11.leftButton,mouse_11.midButton,mouse_11.rightButton,trials_2.thisRepN,trials_2.thisTrialN,trials_2.thisN,trials_2.thisIndex,trials_2.ran,Colour1,mouse_3.clicked_name,catchornah,catchsimilarity,catchnumber,catchtrialorder,catchRT,mouse_11.clicked_name
space,0.189,space,4.566,space,27.97,space,11.635,space,1.341,space,3.953,103,PF,29,81,1,0,0,response1disk_5,7,44.002,-1,-3,1,0,0,rectangle_8,-1,-3,1,0,0,-1,-3,1,0,0,0,0,0,2,1,60fd874909b4baa52c9c1c4a,61036f458ce0b5626cb1166a,2021-07-29_23h17.57.315,Simcolourproject_2stim_asymm_v5,2020.2.10,MacIntel,60,61025ae37ef11b136ea224fe,,,,,,,,,,,,,,,,,,,,,,,,,,,,,,,,,,,,,,,,,,,,,,
,,,,,,,,,,,,100,PF,-37,-62,1,0,0,response5disk_5,3,7.583,0,7,1,0,0,rectangle_8,-70,-35,1,0,0,-8,-8,1,0,0,0,1,1,1,1,60fd874909b4baa52c9c1c4a,61036f458ce0b5626cb1166a,2021-07-29_23h17.57.315,Simcolourproject_2stim_asymm_v5,2020.2.10,MacIntel,60,61025ae37ef11b136ea224fe,response5disk_7,2,3.533,2,"[2,5]",rectangle_4,,,,,,,,,,,,,,,,,,,,,,,,,,,,,,,,,,,,,,,,
,,,,,,,,,,,,60,FF,74,54,1,0,0,response1disk_5,6,2.384,11,7,1,0,0,rectangle_8,11,7,1,0,0,11,7,1,0,0,0,2,2,5,1,60fd874909b4baa52c9c1c4a,61036f458ce0b5626cb1166a,2021-07-29_23h17.57.315,Simcolourproject_2stim_asymm_v5,2020.2.10,MacIntel,60,61025ae37ef11b136ea224fe,,,,,,,,,,,,,,,,,,,,,,,,,,,,,,,,,,,,,,,,,,,,,,
,,,,,,,,,,,,118,PF,-49,44,1,0,0,response7disk_5,1,2.3,-8,5,1,0,0,rectangle_8,-8,5,1,0,0,-8,5,1,0,0,0,3,3,4,1,60fd874909b4baa52c9c1c4a,61036f458ce0b5626cb1166a,2021-07-29_23h17.57.315,Simcolourproject_2stim_asymm_v5,2020.2.10,MacIntel,60,61025ae37ef11b136ea224fe,,,,,,,,,,,,,,,,,,,,,,,,,,,,,,,,,,,,,,,,,,,,,,
,,,,,,,,,,,,20,FF,-56,20,1,0,0,response7disk_5,1,1.133,-27,4,1,0,0,rectangle_8,-71,-30,1,0,0,-5,-6,1,0,0,0,4,4,3,1,60fd874909b4baa52c9c1c4a,61036f458ce0b5626cb1166a,2021-07-29_23h17.57.315,Simcolourproject_2stim_asymm_v5,2020.2.10,MacIntel,60,61025ae37ef11b136ea224fe,response5disk_7,2,2.7,2,"[2,5]",rectangle_4,,,,,,,,,,,,,,,,,,,,,,,,,,,,,,,,,,,,,,,,
,,,,,,,,,,,,138,FF,-79,39,1,0,0,response7disk_5,1,1.116,-17,8,1,0,0,rectangle_8,-17,8,1,0,0,-17,8,1,0,0,0,5,5,0,1,60fd874909b4baa52c9c1c4a,61036f458ce0b5626cb1166a,2021-07-29_23h17.57.315,Simcolourproject_2stim_asymm_v5,2020.2.10,MacIntel,60,61025ae37ef11b136ea224fe,,,,,,,,,,,,,,,,,,,,,,,,,,,,,,,,,,,,,,,,,,,,,,
,,,,,,,,,,,,146,PF,76,37,1,0,0,response1disk_5,6,1.783,18,6,1,0,0,rectangle_8,18,6,1,0,0,18,6,1,0,0,0,6,6,6,1,60fd874909b4baa52c9c1c4a,61036f458ce0b5626cb1166a,2021-07-29_23h17.57.315,Simcolourproject_2stim_asymm_v5,2020.2.10,MacIntel,60,61025ae37ef11b136ea224fe,,,,,,,,,,,,,,,,,,,,,,,,,,,,,,,,,,,,,,,,,,,,,,
,,,,,,,,,,,,,FF,,,,,,,,4.616,,,,,,,,,,,,,,,,,,,,,,60fd874909b4baa52c9c1c4a,61036f458ce0b5626cb1166a,2021-07-29_23h17.57.315,Simcolourproject_2stim_asymm_v5,2020.2.10,MacIntel,60,61025ae37ef11b136ea224fe,,,,,,,space,4.098,622,56,-60,1,0,0,response3disk,,4,-1,8,1,0,0,rectangle,-1,8,1,0,0,-1,8,1,0,0,0,0,0,138,1,,,,,,,,
,,,,,,,,,,,,,FF,,,,,,,,6.815,,,,,,,,,,,,,,,,,,,,,,60fd874909b4baa52c9c1c4a,61036f458ce0b5626cb1166a,2021-07-29_23h17.57.315,Simcolourproject_2stim_asymm_v5,2020.2.10,MacIntel,60,61025ae37ef11b136ea224fe,,,,,,,,,843,89,59,1,0,0,response1disk,,6,7,12,1,0,0,rectangle,7,12,1,0,0,7,12,1,0,0,0,1,1,80,1,,,,,,,,
,,,,,,,,,,,,,FF,,,,,,,,1.216,,,,,,,,,,,,,,,,,,,,,,60fd874909b4baa52c9c1c4a,61036f458ce0b5626cb1166a,2021-07-29_23h17.57.315,Simcolourproject_2stim_asymm_v5,2020.2.10,MacIntel,60,61025ae37ef11b136ea224fe,,,,,,,,,256,-53,-17,1,0,0,response5disk,,2,-14,-12,1,0,0,rectangle,-14,-12,1,0,0,-14,-12,1,0,0,0,2,2,143,1,,,,,,,,
,,,,,,,,,,,,,FF,,,,,,,,1.117,,,,,,,,,,,,,,,,,,,,,,60fd874909b4baa52c9c1c4a,61036f458ce0b5626cb1166a,2021-07-29_23h17.57.315,Simcolourproject_2stim_asymm_v5,2020.2.10,MacIntel,60,61025ae37ef11b136ea224fe,,,,,,,,,4067,48,-46,1,0,0,response3disk,,5,7,-5,1,0,0,rectangle,7,-5,1,0,0,7,-5,1,0,0,0,3,3,48,1,,,,,,,,
,,,,,,,,,,,,,FF,,,,,,,,1.268,,,,,,,,,,,,,,,,,,,,,,60fd874909b4baa52c9c1c4a,61036f458ce0b5626cb1166a,2021-07-29_23h17.57.315,Simcolourproject_2stim_asymm_v5,2020.2.10,MacIntel,60,61025ae37ef11b136ea224fe,,,,,,,,,1527,-75,35,1,0,0,response7disk,,1,-6,10,1,0,0,rectangle,-6,10,1,0,0,-6,10,1,0,0,0,4,4,130,1,,,,,,,,
,,,,,,,,,,,,,FF,,,,,,,,1.751,,,,,,,,,,,,,,,,,,,,,,60fd874909b4baa52c9c1c4a,61036f458ce0b5626cb1166a,2021-07-29_23h17.57.315,Simcolourproject_2stim_asymm_v5,2020.2.10,MacIntel,60,61025ae37ef11b136ea224fe,,,,,,,,,2936,-79,28,1,0,0,response7disk,,1,-12,10,1,0,0,rectangle,-12,10,1,0,0,-12,10,1,0,0,0,5,5,70,1,,,,,,,,
,,,,,,,,,,,,,FF,,,,,,,,0.801,,,,,,,,,,,,,,,,,,,,,,60fd874909b4baa52c9c1c4a,61036f458ce0b5626cb1166a,2021-07-29_23h17.57.315,Simcolourproject_2stim_asymm_v5,2020.2.10,MacIntel,60,61025ae37ef11b136ea224fe,,,,,,,,,4235,-34,65,1,0,0,response7disk,,0,-14,12,1,0,0,rectangle,-14,12,1,0,0,-14,12,1,0,0,0,6,6,124,1,,,,,,,,
,,,,,,,,,,,,,FF,,,,,,,,1.433,,,,,,,,,,,,,,,,,,,,,,60fd874909b4baa52c9c1c4a,61036f458ce0b5626cb1166a,2021-07-29_23h17.57.315,Simcolourproject_2stim_asymm_v5,2020.2.10,MacIntel,60,61025ae37ef11b136ea224fe,,,,,,,,,2319,72,36,1,0,0,response1disk,,6,14,5,1,0,0,rectangle,14,5,1,0,0,14,5,1,0,0,0,7,7,88,1,,,,,,,,
,,,,,,,,,,,,,FF,,,,,,,,0.748,,,,,,,,,,,,,,,,,,,,,,60fd874909b4baa52c9c1c4a,61036f458ce0b5626cb1166a,2021-07-29_23h17.57.315,Simcolourproject_2stim_asymm_v5,2020.2.10,MacIntel,60,61025ae37ef11b136ea224fe,,,,,,,,,781,79,52,1,0,0,response1disk,,6,13,5,1,0,0,rectangle,13,5,1,0,0,13,5,1,0,0,0,8,8,97,1,,,,,,,,
,,,,,,,,,,,,,FF,,,,,,,,1.134,,,,,,,,,,,,,,,,,,,,,,60fd874909b4baa52c9c1c4a,61036f458ce0b5626cb1166a,2021-07-29_23h17.57.315,Simcolourproject_2stim_asymm_v5,2020.2.10,MacIntel,60,61025ae37ef11b136ea224fe,,,,,,,,,3276,95,62,1,0,0,response1disk,,6,11,5,1,0,0,rectangle,11,5,1,0,0,11,5,1,0,0,0,9,9,93,1,,,,,,,,
,,,,,,,,,,,,,FF,,,,,,,,0.867,,,,,,,,,,,,,,,,,,,,,,60fd874909b4baa52c9c1c4a,61036f458ce0b5626cb1166a,2021-07-29_23h17.57.315,Simcolourproject_2stim_asymm_v5,2020.2.10,MacIntel,60,61025ae37ef11b136ea224fe,,,,,,,,,3591,-48,91,1,0,0,response7disk,,0,-13,2,1,0,0,rectangle,-13,2,1,0,0,-13,2,1,0,0,0,10,10,113,1,,,,,,,,
,,,,,,,,,,,,,FF,,,,,,,,1.15,,,,,,,,,,,,,,,,,,,,,,60fd874909b4baa52c9c1c4a,61036f458ce0b5626cb1166a,2021-07-29_23h17.57.315,Simcolourproject_2stim_asymm_v5,2020.2.10,MacIntel,60,61025ae37ef11b136ea224fe,,,,,,,,,855,68,-35,1,0,0,response3disk,,5,14,3,1,0,0,rectangle,-56,25,1,0,0,-9,7,1,0,0,0,11,11,29,1,,response7disk_3,TRUE,1,1,"[211,165,171,289,250,89,208,51,286,224,252,18,241,63,12,113,303,206,65,112]",1.8,rectangle
,,,,,,,,,,,,,FF,,,,,,,,1.866,,,,,,,,,,,,,,,,,,,,,,60fd874909b4baa52c9c1c4a,61036f458ce0b5626cb1166a,2021-07-29_23h17.57.315,Simcolourproject_2stim_asymm_v5,2020.2.10,MacIntel,60,61025ae37ef11b136ea224fe,,,,,,,,,650,29,-74,1,0,0,response3disk,,4,12,11,1,0,0,rectangle,12,11,1,0,0,12,11,1,0,0,0,12,12,3,1,,,,,,,,
,,,,,,,,,,,,,FF,,,,,,,,0.899,,,,,,,,,,,,,,,,,,,,,,60fd874909b4baa52c9c1c4a,61036f458ce0b5626cb1166a,2021-07-29_23h17.57.315,Simcolourproject_2stim_asymm_v5,2020.2.10,MacIntel,60,61025ae37ef11b136ea224fe,,,,,,,,,2151,35,-58,1,0,0,response3disk,,4,32,-11,1,0,0,rectangle,32,-11,1,0,0,32,-11,1,0,0,0,13,13,123,1,,,,,,,,
,,,,,,,,,,,,,FF,,,,,,,,0.983,,,,,,,,,,,,,,,,,,,,,,60fd874909b4baa52c9c1c4a,61036f458ce0b5626cb1166a,2021-07-29_23h17.57.315,Simcolourproject_2stim_asymm_v5,2020.2.10,MacIntel,60,61025ae37ef11b136ea224fe,,,,,,,,,1508,23,69,1,0,0,response1disk,,7,11,3,1,0,0,rectangle,11,3,1,0,0,11,3,1,0,0,0,14,14,11,1,,,,,,,,
,,,,,,,,,,,,,FF,,,,,,,,0.8,,,,,,,,,,,,,,,,,,,,,,60fd874909b4baa52c9c1c4a,61036f458ce0b5626cb1166a,2021-07-29_23h17.57.315,Simcolourproject_2stim_asymm_v5,2020.2.10,MacIntel,60,61025ae37ef11b136ea224fe,,,,,,,,,3076,33,59,1,0,0,response1disk,,7,3,6,1,0,0,rectangle,3,6,1,0,0,3,6,1,0,0,0,15,15,116,1,,,,,,,,
,,,,,,,,,,,,,FF,,,,,,,,1.017,,,,,,,,,,,,,,,,,,,,,,60fd874909b4baa52c9c1c4a,61036f458ce0b5626cb1166a,2021-07-29_23h17.57.315,Simcolourproject_2stim_asymm_v5,2020.2.10,MacIntel,60,61025ae37ef11b136ea224fe,,,,,,,,,1958,-70,34,1,0,0,response7disk,,1,-16,1,1,0,0,rectangle,-16,1,1,0,0,-16,1,1,0,0,0,16,16,141,1,,,,,,,,
,,,,,,,,,,,,,FF,,,,,,,,1.033,,,,,,,,,,,,,,,,,,,,,,60fd874909b4baa52c9c1c4a,61036f458ce0b5626cb1166a,2021-07-29_23h17.57.315,Simcolourproject_2stim_asymm_v5,2020.2.10,MacIntel,60,61025ae37ef11b136ea224fe,,,,,,,,,2113,44,-68,1,0,0,response3disk,,4,27,-9,1,0,0,rectangle,-62,-44,1,0,0,-13,1,1,0,0,0,17,17,37,1,,response5disk_3,TRUE,2,2,"[211,165,171,289,250,89,208,51,286,224,252,18,241,63,12,113,303,206,65,112]",1.717,rectangle
,,,,,,,,,,,,,FF,,,,,,,,2.299,,,,,,,,,,,,,,,,,,,,,,60fd874909b4baa52c9c1c4a,61036f458ce0b5626cb1166a,2021-07-29_23h17.57.315,Simcolourproject_2stim_asymm_v5,2020.2.10,MacIntel,60,61025ae37ef11b136ea224fe,,,,,,,,,2353,-26,-91,1,0,0,response5disk,,3,9,-2,1,0,0,rectangle,9,-2,1,0,0,9,-2,1,0,0,0,18,18,109,1,,,,,,,,
,,,,,,,,,,,,,FF,,,,,,,,3.166,,,,,,,,,,,,,,,,,,,,,,60fd874909b4baa52c9c1c4a,61036f458ce0b5626cb1166a,2021-07-29_23h17.57.315,Simcolourproject_2stim_asymm_v5,2020.2.10,MacIntel,60,61025ae37ef11b136ea224fe,,,,,,,,,4242,75,-35,1,0,0,response3disk,,5,2,6,1,0,0,rectangle,2,6,1,0,0,2,6,1,0,0,0,19,19,144,1,,,,,,,,
,,,,,,,,,,,,,FF,,,,,,,,1.415,,,,,,,,,,,,,,,,,,,,,,60fd874909b4baa52c9c1c4a,61036f458ce0b5626cb1166a,2021-07-29_23h17.57.315,Simcolourproject_2stim_asymm_v5,2020.2.10,MacIntel,60,61025ae37ef11b136ea224fe,,,,,,,,,3994,-83,-29,1,0,0,response5disk,,2,12,4,1,0,0,rectangle,12,4,1,0,0,12,4,1,0,0,0,20,20,147,1,,,,,,,,
,,,,,,,,,,,,,FF,,,,,,,,0.933,,,,,,,,,,,,,,,,,,,,,,60fd874909b4baa52c9c1c4a,61036f458ce0b5626cb1166a,2021-07-29_23h17.57.315,Simcolourproject_2stim_asymm_v5,2020.2.10,MacIntel,60,61025ae37ef11b136ea224fe,,,,,,,,,1753,-75,-29,1,0,0,response5disk,,2,14,-3,1,0,0,rectangle,14,-3,1,0,0,14,-3,1,0,0,0,21,21,16,1,,,,,,,,
,,,,,,,,,,,,,FF,,,,,,,,1.05,,,,,,,,,,,,,,,,,,,,,,60fd874909b4baa52c9c1c4a,61036f458ce0b5626cb1166a,2021-07-29_23h17.57.315,Simcolourproject_2stim_asymm_v5,2020.2.10,MacIntel,60,61025ae37ef11b136ea224fe,,,,,,,,,3752,73,42,1,0,0,response1disk,,6,14,10,1,0,0,rectangle,14,10,1,0,0,14,10,1,0,0,0,22,22,79,1,,,,,,,,
,,,,,,,,,,,,,FF,,,,,,,,1.268,,,,,,,,,,,,,,,,,,,,,,60fd874909b4baa52c9c1c4a,61036f458ce0b5626cb1166a,2021-07-29_23h17.57.315,Simcolourproject_2stim_asymm_v5,2020.2.10,MacIntel,60,61025ae37ef11b136ea224fe,,,,,,,,,372,-61,-79,1,0,0,response5disk,,3,1,8,1,0,0,rectangle,1,8,1,0,0,1,8,1,0,0,0,23,23,59,1,,,,,,,,
,,,,,,,,,,,,,FF,,,,,,,,1.015,,,,,,,,,,,,,,,,,,,,,,60fd874909b4baa52c9c1c4a,61036f458ce0b5626cb1166a,2021-07-29_23h17.57.315,Simcolourproject_2stim_asymm_v5,2020.2.10,MacIntel,60,61025ae37ef11b136ea224fe,,,,,,,,,2489,-26,-55,1,0,0,response5disk,,3,14,-7,1,0,0,rectangle,14,-7,1,0,0,14,-7,1,0,0,0,24,24,148,1,,,,,,,,
,,,,,,,,,,,,,FF,,,,,,,,1.1,,,,,,,,,,,,,,,,,,,,,,60fd874909b4baa52c9c1c4a,61036f458ce0b5626cb1166a,2021-07-29_23h17.57.315,Simcolourproject_2stim_asymm_v5,2020.2.10,MacIntel,60,61025ae37ef11b136ea224fe,,,,,,,,,274,34,77,1,0,0,response1disk,,7,16,12,1,0,0,rectangle,16,12,1,0,0,16,12,1,0,0,0,25,25,22,1,,,,,,,,
,,,,,,,,,,,,,FF,,,,,,,,0.882,,,,,,,,,,,,,,,,,,,,,,60fd874909b4baa52c9c1c4a,61036f458ce0b5626cb1166a,2021-07-29_23h17.57.315,Simcolourproject_2stim_asymm_v5,2020.2.10,MacIntel,60,61025ae37ef11b136ea224fe,,,,,,,,,2752,40,69,1,0,0,response1disk,,7,17,10,1,0,0,rectangle,17,10,1,0,0,17,10,1,0,0,0,26,26,60,1,,,,,,,,
,,,,,,,,,,,,,FF,,,,,,,,0.6,,,,,,,,,,,,,,,,,,,,,,60fd874909b4baa52c9c1c4a,61036f458ce0b5626cb1166a,2021-07-29_23h17.57.315,Simcolourproject_2stim_asymm_v5,2020.2.10,MacIntel,60,61025ae37ef11b136ea224fe,,,,,,,,,2458,38,57,1,0,0,response1disk,,7,20,12,1,0,0,rectangle,20,12,1,0,0,20,12,1,0,0,0,27,27,73,1,,,,,,,,
,,,,,,,,,,,,,FF,,,,,,,,0.949,,,,,,,,,,,,,,,,,,,,,,60fd874909b4baa52c9c1c4a,61036f458ce0b5626cb1166a,2021-07-29_23h17.57.315,Simcolourproject_2stim_asymm_v5,2020.2.10,MacIntel,60,61025ae37ef11b136ea224fe,,,,,,,,,1830,34,-43,1,0,0,response3disk,,4,33,7,1,0,0,rectangle,33,7,1,0,0,33,7,1,0,0,0,28,28,107,1,,,,,,,,
,,,,,,,,,,,,,FF,,,,,,,,0.833,,,,,,,,,,,,,,,,,,,,,,60fd874909b4baa52c9c1c4a,61036f458ce0b5626cb1166a,2021-07-29_23h17.57.315,Simcolourproject_2stim_asymm_v5,2020.2.10,MacIntel,60,61025ae37ef11b136ea224fe,,,,,,,,,1061,23,-67,1,0,0,response3disk,,4,13,2,1,0,0,rectangle,13,2,1,0,0,13,2,1,0,0,0,29,29,39,1,,,,,,,,
,,,,,,,,,,,,,FF,,,,,,,,0.816,,,,,,,,,,,,,,,,,,,,,,60fd874909b4baa52c9c1c4a,61036f458ce0b5626cb1166a,2021-07-29_23h17.57.315,Simcolourproject_2stim_asymm_v5,2020.2.10,MacIntel,60,61025ae37ef11b136ea224fe,,,,,,,,,2979,38,62,1,0,0,response1disk,,7,13,7,1,0,0,rectangle,13,7,1,0,0,13,7,1,0,0,0,30,30,56,1,,,,,,,,
,,,,,,,,,,,,,FF,,,,,,,,2.132,,,,,,,,,,,,,,,,,,,,,,60fd874909b4baa52c9c1c4a,61036f458ce0b5626cb1166a,2021-07-29_23h17.57.315,Simcolourproject_2stim_asymm_v5,2020.2.10,MacIntel,60,61025ae37ef11b136ea224fe,,,,,,,,,1557,80,36,1,0,0,response1disk,,6,6,16,1,0,0,rectangle,6,16,1,0,0,6,16,1,0,0,0,31,31,41,1,,,,,,,,
,,,,,,,,,,,,,FF,,,,,,,,1.117,,,,,,,,,,,,,,,,,,,,,,60fd874909b4baa52c9c1c4a,61036f458ce0b5626cb1166a,2021-07-29_23h17.57.315,Simcolourproject_2stim_asymm_v5,2020.2.10,MacIntel,60,61025ae37ef11b136ea224fe,,,,,,,,,3136,36,55,1,0,0,response1disk,,7,22,14,1,0,0,rectangle,22,14,1,0,0,22,14,1,0,0,0,32,32,150,1,,,,,,,,
,,,,,,,,,,,,,FF,,,,,,,,1.151,,,,,,,,,,,,,,,,,,,,,,60fd874909b4baa52c9c1c4a,61036f458ce0b5626cb1166a,2021-07-29_23h17.57.315,Simcolourproject_2stim_asymm_v5,2020.2.10,MacIntel,60,61025ae37ef11b136ea224fe,,,,,,,,,3426,-68,42,1,0,0,response7disk,,1,-8,13,1,0,0,rectangle,-8,13,1,0,0,-8,13,1,0,0,0,33,33,134,1,,,,,,,,
,,,,,,,,,,,,,FF,,,,,,,,1.349,,,,,,,,,,,,,,,,,,,,,,60fd874909b4baa52c9c1c4a,61036f458ce0b5626cb1166a,2021-07-29_23h17.57.315,Simcolourproject_2stim_asymm_v5,2020.2.10,MacIntel,60,61025ae37ef11b136ea224fe,,,,,,,,,147,73,32,1,0,0,response1disk,,6,12,0,1,0,0,rectangle,12,0,1,0,0,12,0,1,0,0,0,34,34,14,1,,,,,,,,
,,,,,,,,,,,,,FF,,,,,,,,1.067,,,,,,,,,,,,,,,,,,,,,,60fd874909b4baa52c9c1c4a,61036f458ce0b5626cb1166a,2021-07-29_23h17.57.315,Simcolourproject_2stim_asymm_v5,2020.2.10,MacIntel,60,61025ae37ef11b136ea224fe,,,,,,,,,347,-47,-102,1,0,0,response5disk,,3,-4,-1,1,0,0,rectangle,-4,-1,1,0,0,-4,-1,1,0,0,0,35,35,121,1,,,,,,,,
,,,,,,,,,,,,,FF,,,,,,,,1.599,,,,,,,,,,,,,,,,,,,,,,60fd874909b4baa52c9c1c4a,61036f458ce0b5626cb1166a,2021-07-29_23h17.57.315,Simcolourproject_2stim_asymm_v5,2020.2.10,MacIntel,60,61025ae37ef11b136ea224fe,,,,,,,,,3549,36,-68,1,0,0,response3disk,,4,21,-2,1,0,0,rectangle,21,-2,1,0,0,21,-2,1,0,0,0,36,36,43,1,,,,,,,,
,,,,,,,,,,,,,FF,,,,,,,,1.317,,,,,,,,,,,,,,,,,,,,,,60fd874909b4baa52c9c1c4a,61036f458ce0b5626cb1166a,2021-07-29_23h17.57.315,Simcolourproject_2stim_asymm_v5,2020.2.10,MacIntel,60,61025ae37ef11b136ea224fe,,,,,,,,,4059,49,-30,1,0,0,response3disk,,5,13,-2,1,0,0,rectangle,13,-2,1,0,0,13,-2,1,0,0,0,37,37,135,1,,,,,,,,
,,,,,,,,,,,,,FF,,,,,,,,1.35,,,,,,,,,,,,,,,,,,,,,,60fd874909b4baa52c9c1c4a,61036f458ce0b5626cb1166a,2021-07-29_23h17.57.315,Simcolourproject_2stim_asymm_v5,2020.2.10,MacIntel,60,61025ae37ef11b136ea224fe,,,,,,,,,1697,58,-43,1,0,0,response3disk,,5,21,-12,1,0,0,rectangle,21,-12,1,0,0,21,-12,1,0,0,0,38,38,51,1,,,,,,,,
,,,,,,,,,,,,,FF,,,,,,,,1.15,,,,,,,,,,,,,,,,,,,,,,60fd874909b4baa52c9c1c4a,61036f458ce0b5626cb1166a,2021-07-29_23h17.57.315,Simcolourproject_2stim_asymm_v5,2020.2.10,MacIntel,60,61025ae37ef11b136ea224fe,,,,,,,,,2171,-58,-20,1,0,0,response5disk,,2,-18,-6,1,0,0,rectangle,-18,-6,1,0,0,-18,-6,1,0,0,0,39,39,68,1,,,,,,,,
,,,,,,,,,,,,,FF,,,,,,,,1.267,,,,,,,,,,,,,,,,,,,,,,60fd874909b4baa52c9c1c4a,61036f458ce0b5626cb1166a,2021-07-29_23h17.57.315,Simcolourproject_2stim_asymm_v5,2020.2.10,MacIntel,60,61025ae37ef11b136ea224fe,,,,,,,,,3948,66,39,1,0,0,response1disk,,6,16,-7,1,0,0,rectangle,16,-7,1,0,0,16,-7,1,0,0,0,40,40,45,1,,,,,,,,
,,,,,,,,,,,,,FF,,,,,,,,1.55,,,,,,,,,,,,,,,,,,,,,,60fd874909b4baa52c9c1c4a,61036f458ce0b5626cb1166a,2021-07-29_23h17.57.315,Simcolourproject_2stim_asymm_v5,2020.2.10,MacIntel,60,61025ae37ef11b136ea224fe,,,,,,,,,3622,-52,23,1,0,0,response7disk,,1,-2,2,1,0,0,rectangle,-2,2,1,0,0,-2,2,1,0,0,0,41,41,154,1,,,,,,,,
,,,,,,,,,,,,,FF,,,,,,,,3.317,,,,,,,,,,,,,,,,,,,,,,60fd874909b4baa52c9c1c4a,61036f458ce0b5626cb1166a,2021-07-29_23h17.57.315,Simcolourproject_2stim_asymm_v5,2020.2.10,MacIntel,60,61025ae37ef11b136ea224fe,,,,,,,,,2733,-76,-40,1,0,0,response5disk,,2,2,-7,1,0,0,rectangle,2,-7,1,0,0,2,-7,1,0,0,0,42,42,96,1,,,,,,,,
,,,,,,,,,,,,,FF,,,,,,,,1.316,,,,,,,,,,,,,,,,,,,,,,60fd874909b4baa52c9c1c4a,61036f458ce0b5626cb1166a,2021-07-29_23h17.57.315,Simcolourproject_2stim_asymm_v5,2020.2.10,MacIntel,60,61025ae37ef11b136ea224fe,,,,,,,,,2352,-66,-38,1,0,0,response5disk,,2,-1,-11,1,0,0,rectangle,-1,-11,1,0,0,-1,-11,1,0,0,0,43,43,13,1,,,,,,,,
,,,,,,,,,,,,,FF,,,,,,,,1.05,,,,,,,,,,,,,,,,,,,,,,60fd874909b4baa52c9c1c4a,61036f458ce0b5626cb1166a,2021-07-29_23h17.57.315,Simcolourproject_2stim_asymm_v5,2020.2.10,MacIntel,60,61025ae37ef11b136ea224fe,,,,,,,,,3424,-62,24,1,0,0,response7disk,,1,-25,3,1,0,0,rectangle,-25,3,1,0,0,-25,3,1,0,0,0,44,44,114,1,,,,,,,,
,,,,,,,,,,,,,FF,,,,,,,,0.866,,,,,,,,,,,,,,,,,,,,,,60fd874909b4baa52c9c1c4a,61036f458ce0b5626cb1166a,2021-07-29_23h17.57.315,Simcolourproject_2stim_asymm_v5,2020.2.10,MacIntel,60,61025ae37ef11b136ea224fe,,,,,,,,,2569,77,-28,1,0,0,response3disk,,5,19,1,1,0,0,rectangle,19,1,1,0,0,19,1,1,0,0,0,45,45,118,1,,,,,,,,
,,,,,,,,,,,,,FF,,,,,,,,1.1,,,,,,,,,,,,,,,,,,,,,,60fd874909b4baa52c9c1c4a,61036f458ce0b5626cb1166a,2021-07-29_23h17.57.315,Simcolourproject_2stim_asymm_v5,2020.2.10,MacIntel,60,61025ae37ef11b136ea224fe,,,,,,,,,453,29,-62,1,0,0,response3disk,,4,12,-7,1,0,0,rectangle,12,-7,1,0,0,12,-7,1,0,0,0,46,46,28,1,,,,,,,,
,,,,,,,,,,,,,FF,,,,,,,,0.983,,,,,,,,,,,,,,,,,,,,,,60fd874909b4baa52c9c1c4a,61036f458ce0b5626cb1166a,2021-07-29_23h17.57.315,Simcolourproject_2stim_asymm_v5,2020.2.10,MacIntel,60,61025ae37ef11b136ea224fe,,,,,,,,,3844,-39,-52,1,0,0,response5disk,,3,-1,-13,1,0,0,rectangle,-1,-13,1,0,0,-1,-13,1,0,0,0,47,47,21,1,,,,,,,,
,,,,,,,,,,,,,FF,,,,,,,,0.816,,,,,,,,,,,,,,,,,,,,,,60fd874909b4baa52c9c1c4a,61036f458ce0b5626cb1166a,2021-07-29_23h17.57.315,Simcolourproject_2stim_asymm_v5,2020.2.10,MacIntel,60,61025ae37ef11b136ea224fe,,,,,,,,,2296,-48,-20,1,0,0,response5disk,,2,-2,-2,1,0,0,rectangle,-2,-2,1,0,0,-2,-2,1,0,0,0,48,48,120,1,,,,,,,,
,,,,,,,,,,,,,FF,,,,,,,,0.767,,,,,,,,,,,,,,,,,,,,,,60fd874909b4baa52c9c1c4a,61036f458ce0b5626cb1166a,2021-07-29_23h17.57.315,Simcolourproject_2stim_asymm_v5,2020.2.10,MacIntel,60,61025ae37ef11b136ea224fe,,,,,,,,,456,-61,29,1,0,0,response7disk,,1,-18,4,1,0,0,rectangle,-18,4,1,0,0,-18,4,1,0,0,0,49,49,55,1,,,,,,,,
,,,,,,,,,,,,,FF,,,,,,,,1.117,,,,,,,,,,,,,,,,,,,,,,60fd874909b4baa52c9c1c4a,61036f458ce0b5626cb1166a,2021-07-29_23h17.57.315,Simcolourproject_2stim_asymm_v5,2020.2.10,MacIntel,60,61025ae37ef11b136ea224fe,,,,,,,,,1813,-61,-30,1,0,0,response5disk,,2,-12,1,1,0,0,rectangle,80,48,1,0,0,1,-7,1,0,0,0,50,50,47,1,,response1disk_3,TRUE,6,6,"[211,165,171,289,250,89,208,51,286,224,252,18,241,63,12,113,303,206,65,112]",1.9,rectangle
,,,,,,,,,,,,,FF,,,,,,,,12.15,,,,,,,,,,,,,,,,,,,,,,60fd874909b4baa52c9c1c4a,61036f458ce0b5626cb1166a,2021-07-29_23h17.57.315,Simcolourproject_2stim_asymm_v5,2020.2.10,MacIntel,60,61025ae37ef11b136ea224fe,,,,,,,,,2311,39,-89,1,0,0,response3disk,,4,19,0,1,0,0,rectangle,19,0,1,0,0,19,0,1,0,0,0,51,51,84,1,,,,,,,,
,,,,,,,,,,,,,FF,,,,,,,,0.834,,,,,,,,,,,,,,,,,,,,,,60fd874909b4baa52c9c1c4a,61036f458ce0b5626cb1166a,2021-07-29_23h17.57.315,Simcolourproject_2stim_asymm_v5,2020.2.10,MacIntel,60,61025ae37ef11b136ea224fe,,,,,,,,,3851,-67,-107,1,0,0,response5disk,,3,-1,11,1,0,0,rectangle,-1,11,1,0,0,-1,11,1,0,0,0,52,52,158,1,,,,,,,,
,,,,,,,,,,,,,FF,,,,,,,,0.832,,,,,,,,,,,,,,,,,,,,,,60fd874909b4baa52c9c1c4a,61036f458ce0b5626cb1166a,2021-07-29_23h17.57.315,Simcolourproject_2stim_asymm_v5,2020.2.10,MacIntel,60,61025ae37ef11b136ea224fe,,,,,,,,,1649,103,35,1,0,0,response1disk,,6,23,0,1,0,0,rectangle,23,0,1,0,0,23,0,1,0,0,0,53,53,101,1,,,,,,,,
,,,,,,,,,,,,,FF,,,,,,,,1.616,,,,,,,,,,,,,,,,,,,,,,60fd874909b4baa52c9c1c4a,61036f458ce0b5626cb1166a,2021-07-29_23h17.57.315,Simcolourproject_2stim_asymm_v5,2020.2.10,MacIntel,60,61025ae37ef11b136ea224fe,,,,,,,,,822,26,-79,1,0,0,response3disk,,4,22,2,1,0,0,rectangle,22,2,1,0,0,22,2,1,0,0,0,54,54,137,1,,,,,,,,
,,,,,,,,,,,,,FF,,,,,,,,0.883,,,,,,,,,,,,,,,,,,,,,,60fd874909b4baa52c9c1c4a,61036f458ce0b5626cb1166a,2021-07-29_23h17.57.315,Simcolourproject_2stim_asymm_v5,2020.2.10,MacIntel,60,61025ae37ef11b136ea224fe,,,,,,,,,175,-30,-69,1,0,0,response5disk,,3,0,-3,1,0,0,rectangle,0,-3,1,0,0,0,-3,1,0,0,0,55,55,69,1,,,,,,,,
,,,,,,,,,,,,,FF,,,,,,,,1.216,,,,,,,,,,,,,,,,,,,,,,60fd874909b4baa52c9c1c4a,61036f458ce0b5626cb1166a,2021-07-29_23h17.57.315,Simcolourproject_2stim_asymm_v5,2020.2.10,MacIntel,60,61025ae37ef11b136ea224fe,,,,,,,,,2965,83,50,1,0,0,response1disk,,6,26,4,1,0,0,rectangle,26,4,1,0,0,26,4,1,0,0,0,56,56,31,1,,,,,,,,
,,,,,,,,,,,,,FF,,,,,,,,0.733,,,,,,,,,,,,,,,,,,,,,,60fd874909b4baa52c9c1c4a,61036f458ce0b5626cb1166a,2021-07-29_23h17.57.315,Simcolourproject_2stim_asymm_v5,2020.2.10,MacIntel,60,61025ae37ef11b136ea224fe,,,,,,,,,605,36,68,1,0,0,response1disk,,7,26,7,1,0,0,rectangle,26,7,1,0,0,26,7,1,0,0,0,57,57,8,1,,,,,,,,
,,,,,,,,,,,,,FF,,,,,,,,0.783,,,,,,,,,,,,,,,,,,,,,,60fd874909b4baa52c9c1c4a,61036f458ce0b5626cb1166a,2021-07-29_23h17.57.315,Simcolourproject_2stim_asymm_v5,2020.2.10,MacIntel,60,61025ae37ef11b136ea224fe,,,,,,,,,4085,37,-15,1,0,0,response3disk,,5,28,4,1,0,0,rectangle,28,4,1,0,0,28,4,1,0,0,0,58,58,106,1,,,,,,,,
,,,,,,,,,,,,,FF,,,,,,,,0.983,,,,,,,,,,,,,,,,,,,,,,60fd874909b4baa52c9c1c4a,61036f458ce0b5626cb1166a,2021-07-29_23h17.57.315,Simcolourproject_2stim_asymm_v5,2020.2.10,MacIntel,60,61025ae37ef11b136ea224fe,,,,,,,,,2385,59,48,1,0,0,response1disk,,6,19,12,1,0,0,rectangle,19,12,1,0,0,19,12,1,0,0,0,59,59,5,1,,,,,,,,
,,,,,,,,,,,,,FF,,,,,,,,0.9,,,,,,,,,,,,,,,,,,,,,,60fd874909b4baa52c9c1c4a,61036f458ce0b5626cb1166a,2021-07-29_23h17.57.315,Simcolourproject_2stim_asymm_v5,2020.2.10,MacIntel,60,61025ae37ef11b136ea224fe,,,,,,,,,1167,35,70,1,0,0,response1disk,,7,13,-5,1,0,0,rectangle,13,-5,1,0,0,13,-5,1,0,0,0,60,60,145,1,,,,,,,,
,,,,,,,,,,,,,FF,,,,,,,,1.233,,,,,,,,,,,,,,,,,,,,,,60fd874909b4baa52c9c1c4a,61036f458ce0b5626cb1166a,2021-07-29_23h17.57.315,Simcolourproject_2stim_asymm_v5,2020.2.10,MacIntel,60,61025ae37ef11b136ea224fe,,,,,,,,,4181,-45,81,1,0,0,response7disk,,0,-6,4,1,0,0,rectangle,-6,4,1,0,0,-6,4,1,0,0,0,61,61,132,1,,,,,,,,
,,,,,,,,,,,,,FF,,,,,,,,2.116,,,,,,,,,,,,,,,,,,,,,,60fd874909b4baa52c9c1c4a,61036f458ce0b5626cb1166a,2021-07-29_23h17.57.315,Simcolourproject_2stim_asymm_v5,2020.2.10,MacIntel,60,61025ae37ef11b136ea224fe,,,,,,,,,3456,71,43,1,0,0,response1disk,,6,33,1,1,0,0,rectangle,-63,-48,1,0,0,-13,5,1,0,0,0,62,62,36,1,,response5disk_3,TRUE,2,2,"[211,165,171,289,250,89,208,51,286,224,252,18,241,63,12,113,303,206,65,112]",2.033,rectangle
,,,,,,,,,,,,,FF,,,,,,,,4.017,,,,,,,,,,,,,,,,,,,,,,60fd874909b4baa52c9c1c4a,61036f458ce0b5626cb1166a,2021-07-29_23h17.57.315,Simcolourproject_2stim_asymm_v5,2020.2.10,MacIntel,60,61025ae37ef11b136ea224fe,,,,,,,,,719,-70,22,1,0,0,response7disk,,1,-1,3,1,0,0,rectangle,-1,3,1,0,0,-1,3,1,0,0,0,63,63,15,1,,,,,,,,
,,,,,,,,,,,,,FF,,,,,,,,0.866,,,,,,,,,,,,,,,,,,,,,,60fd874909b4baa52c9c1c4a,61036f458ce0b5626cb1166a,2021-07-29_23h17.57.315,Simcolourproject_2stim_asymm_v5,2020.2.10,MacIntel,60,61025ae37ef11b136ea224fe,,,,,,,,,573,84,30,1,0,0,response1disk,,6,8,5,1,0,0,rectangle,-76,-39,1,0,0,-10,-5,1,0,0,0,64,64,159,1,,response5disk_3,TRUE,2,2,"[211,165,171,289,250,89,208,51,286,224,252,18,241,63,12,113,303,206,65,112]",2.215,rectangle
,,,,,,,,,,,,,FF,,,,,,,,0.867,,,,,,,,,,,,,,,,,,,,,,60fd874909b4baa52c9c1c4a,61036f458ce0b5626cb1166a,2021-07-29_23h17.57.315,Simcolourproject_2stim_asymm_v5,2020.2.10,MacIntel,60,61025ae37ef11b136ea224fe,,,,,,,,,2986,-55,-32,1,0,0,response5disk,,2,-2,4,1,0,0,rectangle,-2,4,1,0,0,-2,4,1,0,0,0,65,65,75,1,,,,,,,,
,,,,,,,,,,,,,FF,,,,,,,,0.866,,,,,,,,,,,,,,,,,,,,,,60fd874909b4baa52c9c1c4a,61036f458ce0b5626cb1166a,2021-07-29_23h17.57.315,Simcolourproject_2stim_asymm_v5,2020.2.10,MacIntel,60,61025ae37ef11b136ea224fe,,,,,,,,,3176,70,-23,1,0,0,response3disk,,5,12,-9,1,0,0,rectangle,12,-9,1,0,0,12,-9,1,0,0,0,66,66,9,1,,,,,,,,
,,,,,,,,,,,,,FF,,,,,,,,0.699,,,,,,,,,,,,,,,,,,,,,,60fd874909b4baa52c9c1c4a,61036f458ce0b5626cb1166a,2021-07-29_23h17.57.315,Simcolourproject_2stim_asymm_v5,2020.2.10,MacIntel,60,61025ae37ef11b136ea224fe,,,,,,,,,3573,65,-33,1,0,0,response3disk,,5,12,-11,1,0,0,rectangle,12,-11,1,0,0,12,-11,1,0,0,0,67,67,23,1,,,,,,,,
,,,,,,,,,,,,,FF,,,,,,,,1.483,,,,,,,,,,,,,,,,,,,,,,60fd874909b4baa52c9c1c4a,61036f458ce0b5626cb1166a,2021-07-29_23h17.57.315,Simcolourproject_2stim_asymm_v5,2020.2.10,MacIntel,60,61025ae37ef11b136ea224fe,,,,,,,,,746,-30,-81,1,0,0,response5disk,,3,6,-9,1,0,0,rectangle,6,-9,1,0,0,6,-9,1,0,0,0,68,68,115,1,,,,,,,,
,,,,,,,,,,,,,FF,,,,,,,,1.333,,,,,,,,,,,,,,,,,,,,,,60fd874909b4baa52c9c1c4a,61036f458ce0b5626cb1166a,2021-07-29_23h17.57.315,Simcolourproject_2stim_asymm_v5,2020.2.10,MacIntel,60,61025ae37ef11b136ea224fe,,,,,,,,,87,79,25,1,0,0,response1disk,,6,-4,6,1,0,0,rectangle,-4,6,1,0,0,-4,6,1,0,0,0,69,69,1,1,,,,,,,,
,,,,,,,,,,,,,FF,,,,,,,,0.7,,,,,,,,,,,,,,,,,,,,,,60fd874909b4baa52c9c1c4a,61036f458ce0b5626cb1166a,2021-07-29_23h17.57.315,Simcolourproject_2stim_asymm_v5,2020.2.10,MacIntel,60,61025ae37ef11b136ea224fe,,,,,,,,,3067,90,38,1,0,0,response1disk,,6,10,5,1,0,0,rectangle,10,5,1,0,0,10,5,1,0,0,0,70,70,86,1,,,,,,,,
,,,,,,,,,,,,,FF,,,,,,,,0.9,,,,,,,,,,,,,,,,,,,,,,60fd874909b4baa52c9c1c4a,61036f458ce0b5626cb1166a,2021-07-29_23h17.57.315,Simcolourproject_2stim_asymm_v5,2020.2.10,MacIntel,60,61025ae37ef11b136ea224fe,,,,,,,,,2486,-39,-53,1,0,0,response5disk,,3,-18,-16,1,0,0,rectangle,-18,-16,1,0,0,-18,-16,1,0,0,0,71,71,74,1,,,,,,,,
,,,,,,,,,,,,,FF,,,,,,,,1.434,,,,,,,,,,,,,,,,,,,,,,60fd874909b4baa52c9c1c4a,61036f458ce0b5626cb1166a,2021-07-29_23h17.57.315,Simcolourproject_2stim_asymm_v5,2020.2.10,MacIntel,60,61025ae37ef11b136ea224fe,,,,,,,,,2957,27,62,1,0,0,response1disk,,7,9,12,1,0,0,rectangle,9,12,1,0,0,9,12,1,0,0,0,72,72,66,1,,,,,,,,
,,,,,,,,,,,,,FF,,,,,,,,1.133,,,,,,,,,,,,,,,,,,,,,,60fd874909b4baa52c9c1c4a,61036f458ce0b5626cb1166a,2021-07-29_23h17.57.315,Simcolourproject_2stim_asymm_v5,2020.2.10,MacIntel,60,61025ae37ef11b136ea224fe,,,,,,,,,2970,26,79,1,0,0,response1disk,,7,15,-1,1,0,0,rectangle,15,-1,1,0,0,15,-1,1,0,0,0,73,73,131,1,,,,,,,,
,,,,,,,,,,,,,FF,,,,,,,,0.65,,,,,,,,,,,,,,,,,,,,,,60fd874909b4baa52c9c1c4a,61036f458ce0b5626cb1166a,2021-07-29_23h17.57.315,Simcolourproject_2stim_asymm_v5,2020.2.10,MacIntel,60,61025ae37ef11b136ea224fe,,,,,,,,,2530,35,83,1,0,0,response1disk,,7,13,10,1,0,0,rectangle,13,10,1,0,0,13,10,1,0,0,0,74,74,151,1,,,,,,,,
,,,,,,,,,,,,,FF,,,,,,,,0.883,,,,,,,,,,,,,,,,,,,,,,60fd874909b4baa52c9c1c4a,61036f458ce0b5626cb1166a,2021-07-29_23h17.57.315,Simcolourproject_2stim_asymm_v5,2020.2.10,MacIntel,60,61025ae37ef11b136ea224fe,,,,,,,,,2723,31,-49,1,0,0,response3disk,,4,25,-5,1,0,0,rectangle,25,-5,1,0,0,25,-5,1,0,0,0,75,75,57,1,,,,,,,,
,,,,,,,,,,,,,FF,,,,,,,,0.884,,,,,,,,,,,,,,,,,,,,,,60fd874909b4baa52c9c1c4a,61036f458ce0b5626cb1166a,2021-07-29_23h17.57.315,Simcolourproject_2stim_asymm_v5,2020.2.10,MacIntel,60,61025ae37ef11b136ea224fe,,,,,,,,,1524,-37,-60,1,0,0,response5disk,,3,-22,-3,1,0,0,rectangle,-22,-3,1,0,0,-22,-3,1,0,0,0,76,76,81,1,,,,,,,,
,,,,,,,,,,,,,FF,,,,,,,,0.816,,,,,,,,,,,,,,,,,,,,,,60fd874909b4baa52c9c1c4a,61036f458ce0b5626cb1166a,2021-07-29_23h17.57.315,Simcolourproject_2stim_asymm_v5,2020.2.10,MacIntel,60,61025ae37ef11b136ea224fe,,,,,,,,,901,17,-41,1,0,0,response3disk,,4,17,-10,1,0,0,rectangle,17,-10,1,0,0,17,-10,1,0,0,0,77,77,92,1,,,,,,,,
,,,,,,,,,,,,,FF,,,,,,,,1.15,,,,,,,,,,,,,,,,,,,,,,60fd874909b4baa52c9c1c4a,61036f458ce0b5626cb1166a,2021-07-29_23h17.57.315,Simcolourproject_2stim_asymm_v5,2020.2.10,MacIntel,60,61025ae37ef11b136ea224fe,,,,,,,,,1335,27,70,1,0,0,response1disk,,7,10,5,1,0,0,rectangle,10,5,1,0,0,10,5,1,0,0,0,78,78,85,1,,,,,,,,
,,,,,,,,,,,,,FF,,,,,,,,1.232,,,,,,,,,,,,,,,,,,,,,,60fd874909b4baa52c9c1c4a,61036f458ce0b5626cb1166a,2021-07-29_23h17.57.315,Simcolourproject_2stim_asymm_v5,2020.2.10,MacIntel,60,61025ae37ef11b136ea224fe,,,,,,,,,991,44,-76,1,0,0,response3disk,,4,18,-4,1,0,0,rectangle,18,-4,1,0,0,18,-4,1,0,0,0,79,79,35,1,,,,,,,,
,,,,,,,,,,,,,FF,,,,,,,,1.067,,,,,,,,,,,,,,,,,,,,,,60fd874909b4baa52c9c1c4a,61036f458ce0b5626cb1166a,2021-07-29_23h17.57.315,Simcolourproject_2stim_asymm_v5,2020.2.10,MacIntel,60,61025ae37ef11b136ea224fe,,,,,,,,,3240,-59,-30,1,0,0,response5disk,,2,-8,-4,1,0,0,rectangle,-8,-4,1,0,0,-8,-4,1,0,0,0,80,80,2,1,,,,,,,,
,,,,,,,,,,,,,FF,,,,,,,,1.983,,,,,,,,,,,,,,,,,,,,,,60fd874909b4baa52c9c1c4a,61036f458ce0b5626cb1166a,2021-07-29_23h17.57.315,Simcolourproject_2stim_asymm_v5,2020.2.10,MacIntel,60,61025ae37ef11b136ea224fe,,,,,,,,,1519,-21,-66,1,0,0,response5disk,,3,3,6,1,0,0,rectangle,3,6,1,0,0,3,6,1,0,0,0,81,81,62,1,,,,,,,,
,,,,,,,,,,,,,FF,,,,,,,,1.05,,,,,,,,,,,,,,,,,,,,,,60fd874909b4baa52c9c1c4a,61036f458ce0b5626cb1166a,2021-07-29_23h17.57.315,Simcolourproject_2stim_asymm_v5,2020.2.10,MacIntel,60,61025ae37ef11b136ea224fe,,,,,,,,,1098,15,60,1,0,0,response1disk,,7,5,4,1,0,0,rectangle,5,4,1,0,0,5,4,1,0,0,0,82,82,27,1,,,,,,,,
,,,,,,,,,,,,,FF,,,,,,,,0.733,,,,,,,,,,,,,,,,,,,,,,60fd874909b4baa52c9c1c4a,61036f458ce0b5626cb1166a,2021-07-29_23h17.57.315,Simcolourproject_2stim_asymm_v5,2020.2.10,MacIntel,60,61025ae37ef11b136ea224fe,,,,,,,,,3486,30,59,1,0,0,response1disk,,7,22,8,1,0,0,rectangle,22,8,1,0,0,22,8,1,0,0,0,83,83,19,1,,,,,,,,
,,,,,,,,,,,,,FF,,,,,,,,0.735,,,,,,,,,,,,,,,,,,,,,,60fd874909b4baa52c9c1c4a,61036f458ce0b5626cb1166a,2021-07-29_23h17.57.315,Simcolourproject_2stim_asymm_v5,2020.2.10,MacIntel,60,61025ae37ef11b136ea224fe,,,,,,,,,3827,31,70,1,0,0,response1disk,,7,21,7,1,0,0,rectangle,21,7,1,0,0,21,7,1,0,0,0,84,84,140,1,,,,,,,,
,,,,,,,,,,,,,FF,,,,,,,,0.783,,,,,,,,,,,,,,,,,,,,,,60fd874909b4baa52c9c1c4a,61036f458ce0b5626cb1166a,2021-07-29_23h17.57.315,Simcolourproject_2stim_asymm_v5,2020.2.10,MacIntel,60,61025ae37ef11b136ea224fe,,,,,,,,,1168,39,72,1,0,0,response1disk,,7,21,6,1,0,0,rectangle,21,6,1,0,0,21,6,1,0,0,0,85,85,82,1,,,,,,,,
,,,,,,,,,,,,,FF,,,,,,,,1.166,,,,,,,,,,,,,,,,,,,,,,60fd874909b4baa52c9c1c4a,61036f458ce0b5626cb1166a,2021-07-29_23h17.57.315,Simcolourproject_2stim_asymm_v5,2020.2.10,MacIntel,60,61025ae37ef11b136ea224fe,,,,,,,,,1967,40,-74,1,0,0,response3disk,,4,16,-10,1,0,0,rectangle,16,-10,1,0,0,16,-10,1,0,0,0,86,86,108,1,,,,,,,,
,,,,,,,,,,,,,FF,,,,,,,,1.7,,,,,,,,,,,,,,,,,,,,,,60fd874909b4baa52c9c1c4a,61036f458ce0b5626cb1166a,2021-07-29_23h17.57.315,Simcolourproject_2stim_asymm_v5,2020.2.10,MacIntel,60,61025ae37ef11b136ea224fe,,,,,,,,,1163,71,-35,1,0,0,response3disk,,5,18,-11,1,0,0,rectangle,18,-11,1,0,0,18,-11,1,0,0,0,87,87,65,1,,,,,,,,
,,,,,,,,,,,,,FF,,,,,,,,0.849,,,,,,,,,,,,,,,,,,,,,,60fd874909b4baa52c9c1c4a,61036f458ce0b5626cb1166a,2021-07-29_23h17.57.315,Simcolourproject_2stim_asymm_v5,2020.2.10,MacIntel,60,61025ae37ef11b136ea224fe,,,,,,,,,1075,59,-27,1,0,0,response3disk,,5,15,-9,1,0,0,rectangle,67,-47,1,0,0,-5,5,1,0,0,0,88,88,149,1,,response3disk_3,TRUE,5,5,"[211,165,171,289,250,89,208,51,286,224,252,18,241,63,12,113,303,206,65,112]",1.299,rectangle
,,,,,,,,,,,,,FF,,,,,,,,2.367,,,,,,,,,,,,,,,,,,,,,,60fd874909b4baa52c9c1c4a,61036f458ce0b5626cb1166a,2021-07-29_23h17.57.315,Simcolourproject_2stim_asymm_v5,2020.2.10,MacIntel,60,61025ae37ef11b136ea224fe,,,,,,,,,2700,27,59,1,0,0,response1disk,,7,17,0,1,0,0,rectangle,17,0,1,0,0,17,0,1,0,0,0,89,89,98,1,,,,,,,,
,,,,,,,,,,,,,FF,,,,,,,,0.883,,,,,,,,,,,,,,,,,,,,,,60fd874909b4baa52c9c1c4a,61036f458ce0b5626cb1166a,2021-07-29_23h17.57.315,Simcolourproject_2stim_asymm_v5,2020.2.10,MacIntel,60,61025ae37ef11b136ea224fe,,,,,,,,,617,45,-63,1,0,0,response3disk,,4,16,10,1,0,0,rectangle,16,10,1,0,0,16,10,1,0,0,0,90,90,157,1,,,,,,,,
,,,,,,,,,,,,,FF,,,,,,,,0.865,,,,,,,,,,,,,,,,,,,,,,60fd874909b4baa52c9c1c4a,61036f458ce0b5626cb1166a,2021-07-29_23h17.57.315,Simcolourproject_2stim_asymm_v5,2020.2.10,MacIntel,60,61025ae37ef11b136ea224fe,,,,,,,,,2312,42,-72,1,0,0,response3disk,,4,21,-2,1,0,0,rectangle,21,-2,1,0,0,21,-2,1,0,0,0,91,91,42,1,,,,,,,,
,,,,,,,,,,,,,FF,,,,,,,,0.583,,,,,,,,,,,,,,,,,,,,,,60fd874909b4baa52c9c1c4a,61036f458ce0b5626cb1166a,2021-07-29_23h17.57.315,Simcolourproject_2stim_asymm_v5,2020.2.10,MacIntel,60,61025ae37ef11b136ea224fe,,,,,,,,,2842,24,-59,1,0,0,response3disk,,4,1,-4,1,0,0,rectangle,1,-4,1,0,0,1,-4,1,0,0,0,92,92,44,1,,,,,,,,
,,,,,,,,,,,,,FF,,,,,,,,1.001,,,,,,,,,,,,,,,,,,,,,,60fd874909b4baa52c9c1c4a,61036f458ce0b5626cb1166a,2021-07-29_23h17.57.315,Simcolourproject_2stim_asymm_v5,2020.2.10,MacIntel,60,61025ae37ef11b136ea224fe,,,,,,,,,3780,-85,-45,1,0,0,response5disk,,2,-25,1,1,0,0,rectangle,-25,1,1,0,0,-25,1,1,0,0,0,93,93,32,1,,,,,,,,
,,,,,,,,,,,,,FF,,,,,,,,1.5,,,,,,,,,,,,,,,,,,,,,,60fd874909b4baa52c9c1c4a,61036f458ce0b5626cb1166a,2021-07-29_23h17.57.315,Simcolourproject_2stim_asymm_v5,2020.2.10,MacIntel,60,61025ae37ef11b136ea224fe,,,,,,,,,2305,25,-77,1,0,0,response3disk,,4,15,2,1,0,0,rectangle,15,2,1,0,0,15,2,1,0,0,0,94,94,87,1,,,,,,,,
,,,,,,,,,,,,,FF,,,,,,,,1.434,,,,,,,,,,,,,,,,,,,,,,60fd874909b4baa52c9c1c4a,61036f458ce0b5626cb1166a,2021-07-29_23h17.57.315,Simcolourproject_2stim_asymm_v5,2020.2.10,MacIntel,60,61025ae37ef11b136ea224fe,,,,,,,,,1745,-64,28,1,0,0,response7disk,,1,-3,8,1,0,0,rectangle,-3,8,1,0,0,-3,8,1,0,0,0,95,95,119,1,,,,,,,,
,,,,,,,,,,,,,FF,,,,,,,,1.75,,,,,,,,,,,,,,,,,,,,,,60fd874909b4baa52c9c1c4a,61036f458ce0b5626cb1166a,2021-07-29_23h17.57.315,Simcolourproject_2stim_asymm_v5,2020.2.10,MacIntel,60,61025ae37ef11b136ea224fe,,,,,,,,,4106,44,-80,1,0,0,response3disk,,4,14,4,1,0,0,rectangle,14,4,1,0,0,14,4,1,0,0,0,96,96,136,1,,,,,,,,
,,,,,,,,,,,,,FF,,,,,,,,1.2,,,,,,,,,,,,,,,,,,,,,,60fd874909b4baa52c9c1c4a,61036f458ce0b5626cb1166a,2021-07-29_23h17.57.315,Simcolourproject_2stim_asymm_v5,2020.2.10,MacIntel,60,61025ae37ef11b136ea224fe,,,,,,,,,3910,-68,-58,1,0,0,response5disk,,2,-15,-5,1,0,0,rectangle,-15,-5,1,0,0,-15,-5,1,0,0,0,97,97,155,1,,,,,,,,
,,,,,,,,,,,,,FF,,,,,,,,0.85,,,,,,,,,,,,,,,,,,,,,,60fd874909b4baa52c9c1c4a,61036f458ce0b5626cb1166a,2021-07-29_23h17.57.315,Simcolourproject_2stim_asymm_v5,2020.2.10,MacIntel,60,61025ae37ef11b136ea224fe,,,,,,,,,714,-63,-45,1,0,0,response5disk,,2,-25,-17,1,0,0,rectangle,-25,-17,1,0,0,-25,-17,1,0,0,0,98,98,53,1,,,,,,,,
,,,,,,,,,,,,,FF,,,,,,,,0.917,,,,,,,,,,,,,,,,,,,,,,60fd874909b4baa52c9c1c4a,61036f458ce0b5626cb1166a,2021-07-29_23h17.57.315,Simcolourproject_2stim_asymm_v5,2020.2.10,MacIntel,60,61025ae37ef11b136ea224fe,,,,,,,,,3759,14,67,1,0,0,response1disk,,7,-7,-11,1,0,0,rectangle,-7,-11,1,0,0,-7,-11,1,0,0,0,99,99,133,1,,,,,,,,
,,,,,,,,,,,,,FF,,,,,,,,1.6,,,,,,,,,,,,,,,,,,,,,,60fd874909b4baa52c9c1c4a,61036f458ce0b5626cb1166a,2021-07-29_23h17.57.315,Simcolourproject_2stim_asymm_v5,2020.2.10,MacIntel,60,61025ae37ef11b136ea224fe,,,,,,,,,2532,36,-82,1,0,0,response3disk,,4,13,-9,1,0,0,rectangle,13,-9,1,0,0,13,-9,1,0,0,0,100,100,95,1,,,,,,,,
,,,,,,,,,,,,,FF,,,,,,,,0.983,,,,,,,,,,,,,,,,,,,,,,60fd874909b4baa52c9c1c4a,61036f458ce0b5626cb1166a,2021-07-29_23h17.57.315,Simcolourproject_2stim_asymm_v5,2020.2.10,MacIntel,60,61025ae37ef11b136ea224fe,,,,,,,,,1211,-33,76,1,0,0,response7disk,,0,-14,1,1,0,0,rectangle,-14,1,1,0,0,-14,1,1,0,0,0,101,101,63,1,,,,,,,,
,,,,,,,,,,,,,FF,,,,,,,,3.315,,,,,,,,,,,,,,,,,,,,,,60fd874909b4baa52c9c1c4a,61036f458ce0b5626cb1166a,2021-07-29_23h17.57.315,Simcolourproject_2stim_asymm_v5,2020.2.10,MacIntel,60,61025ae37ef11b136ea224fe,,,,,,,,,1049,49,-71,1,0,0,response3disk,,4,22,-2,1,0,0,rectangle,22,-2,1,0,0,22,-2,1,0,0,0,102,102,99,1,,,,,,,,
,,,,,,,,,,,,,FF,,,,,,,,1.184,,,,,,,,,,,,,,,,,,,,,,60fd874909b4baa52c9c1c4a,61036f458ce0b5626cb1166a,2021-07-29_23h17.57.315,Simcolourproject_2stim_asymm_v5,2020.2.10,MacIntel,60,61025ae37ef11b136ea224fe,,,,,,,,,1125,35,-70,1,0,0,response3disk,,4,3,9,1,0,0,rectangle,3,9,1,0,0,3,9,1,0,0,0,103,103,24,1,,,,,,,,
,,,,,,,,,,,,,FF,,,,,,,,2.116,,,,,,,,,,,,,,,,,,,,,,60fd874909b4baa52c9c1c4a,61036f458ce0b5626cb1166a,2021-07-29_23h17.57.315,Simcolourproject_2stim_asymm_v5,2020.2.10,MacIntel,60,61025ae37ef11b136ea224fe,,,,,,,,,1869,71,-41,1,0,0,response3disk,,5,-2,5,1,0,0,rectangle,-2,5,1,0,0,-2,5,1,0,0,0,104,104,128,1,,,,,,,,
,,,,,,,,,,,,,FF,,,,,,,,1.516,,,,,,,,,,,,,,,,,,,,,,60fd874909b4baa52c9c1c4a,61036f458ce0b5626cb1166a,2021-07-29_23h17.57.315,Simcolourproject_2stim_asymm_v5,2020.2.10,MacIntel,60,61025ae37ef11b136ea224fe,,,,,,,,,612,42,-86,1,0,0,response3disk,,4,-4,-11,1,0,0,rectangle,-4,-11,1,0,0,-4,-11,1,0,0,0,105,105,100,1,,,,,,,,
,,,,,,,,,,,,,FF,,,,,,,,2.05,,,,,,,,,,,,,,,,,,,,,,60fd874909b4baa52c9c1c4a,61036f458ce0b5626cb1166a,2021-07-29_23h17.57.315,Simcolourproject_2stim_asymm_v5,2020.2.10,MacIntel,60,61025ae37ef11b136ea224fe,,,,,,,,,2607,-75,28,1,0,0,response7disk,,1,-14,9,1,0,0,rectangle,-14,9,1,0,0,-14,9,1,0,0,0,106,106,52,1,,,,,,,,
,,,,,,,,,,,,,FF,,,,,,,,1.316,,,,,,,,,,,,,,,,,,,,,,60fd874909b4baa52c9c1c4a,61036f458ce0b5626cb1166a,2021-07-29_23h17.57.315,Simcolourproject_2stim_asymm_v5,2020.2.10,MacIntel,60,61025ae37ef11b136ea224fe,,,,,,,,,517,69,28,1,0,0,response1disk,,6,24,-5,1,0,0,rectangle,24,-5,1,0,0,24,-5,1,0,0,0,107,107,94,1,,,,,,,,
,,,,,,,,,,,,,FF,,,,,,,,0.849,,,,,,,,,,,,,,,,,,,,,,60fd874909b4baa52c9c1c4a,61036f458ce0b5626cb1166a,2021-07-29_23h17.57.315,Simcolourproject_2stim_asymm_v5,2020.2.10,MacIntel,60,61025ae37ef11b136ea224fe,,,,,,,,,2602,56,-29,1,0,0,response3disk,,5,11,8,1,0,0,rectangle,11,8,1,0,0,11,8,1,0,0,0,108,108,112,1,,,,,,,,
,,,,,,,,,,,,,FF,,,,,,,,0.783,,,,,,,,,,,,,,,,,,,,,,60fd874909b4baa52c9c1c4a,61036f458ce0b5626cb1166a,2021-07-29_23h17.57.315,Simcolourproject_2stim_asymm_v5,2020.2.10,MacIntel,60,61025ae37ef11b136ea224fe,,,,,,,,,821,61,-35,1,0,0,response3disk,,5,26,-7,1,0,0,rectangle,26,-7,1,0,0,26,-7,1,0,0,0,109,109,49,1,,,,,,,,
,,,,,,,,,,,,,FF,,,,,,,,0.633,,,,,,,,,,,,,,,,,,,,,,60fd874909b4baa52c9c1c4a,61036f458ce0b5626cb1166a,2021-07-29_23h17.57.315,Simcolourproject_2stim_asymm_v5,2020.2.10,MacIntel,60,61025ae37ef11b136ea224fe,,,,,,,,,1431,57,-33,1,0,0,response3disk,,5,15,-11,1,0,0,rectangle,15,-11,1,0,0,15,-11,1,0,0,0,110,110,46,1,,,,,,,,
,,,,,,,,,,,,,FF,,,,,,,,1.184,,,,,,,,,,,,,,,,,,,,,,60fd874909b4baa52c9c1c4a,61036f458ce0b5626cb1166a,2021-07-29_23h17.57.315,Simcolourproject_2stim_asymm_v5,2020.2.10,MacIntel,60,61025ae37ef11b136ea224fe,,,,,,,,,1014,25,61,1,0,0,response1disk,,7,2,-7,1,0,0,rectangle,62,104,1,0,0,13,5,1,0,0,0,111,111,61,1,,response1disk_3,TRUE,7,7,"[211,165,171,289,250,89,208,51,286,224,252,18,241,63,12,113,303,206,65,112]",2.366,rectangle
,,,,,,,,,,,,,FF,,,,,,,,3.25,,,,,,,,,,,,,,,,,,,,,,60fd874909b4baa52c9c1c4a,61036f458ce0b5626cb1166a,2021-07-29_23h17.57.315,Simcolourproject_2stim_asymm_v5,2020.2.10,MacIntel,60,61025ae37ef11b136ea224fe,,,,,,,,,1173,65,-67,1,0,0,response3disk,,4,7,-12,1,0,0,rectangle,-54,-30,1,0,0,0,-4,1,0,0,0,112,112,0,1,,response5disk_3,TRUE,2,2,"[211,165,171,289,250,89,208,51,286,224,252,18,241,63,12,113,303,206,65,112]",2.066,rectangle
,,,,,,,,,,,,,FF,,,,,,,,1.482,,,,,,,,,,,,,,,,,,,,,,60fd874909b4baa52c9c1c4a,61036f458ce0b5626cb1166a,2021-07-29_23h17.57.315,Simcolourproject_2stim_asymm_v5,2020.2.10,MacIntel,60,61025ae37ef11b136ea224fe,,,,,,,,,2853,63,81,1,0,0,response1disk,,7,24,-7,1,0,0,rectangle,24,-7,1,0,0,24,-7,1,0,0,0,113,113,83,1,,,,,,,,
,,,,,,,,,,,,,FF,,,,,,,,0.899,,,,,,,,,,,,,,,,,,,,,,60fd874909b4baa52c9c1c4a,61036f458ce0b5626cb1166a,2021-07-29_23h17.57.315,Simcolourproject_2stim_asymm_v5,2020.2.10,MacIntel,60,61025ae37ef11b136ea224fe,,,,,,,,,2267,20,63,1,0,0,response1disk,,7,11,-4,1,0,0,rectangle,11,-4,1,0,0,11,-4,1,0,0,0,114,114,17,1,,,,,,,,
,,,,,,,,,,,,,FF,,,,,,,,1.383,,,,,,,,,,,,,,,,,,,,,,60fd874909b4baa52c9c1c4a,61036f458ce0b5626cb1166a,2021-07-29_23h17.57.315,Simcolourproject_2stim_asymm_v5,2020.2.10,MacIntel,60,61025ae37ef11b136ea224fe,,,,,,,,,2682,51,31,1,0,0,response1disk,,6,23,11,1,0,0,rectangle,23,11,1,0,0,23,11,1,0,0,0,115,115,90,1,,,,,,,,
,,,,,,,,,,,,,FF,,,,,,,,0.866,,,,,,,,,,,,,,,,,,,,,,60fd874909b4baa52c9c1c4a,61036f458ce0b5626cb1166a,2021-07-29_23h17.57.315,Simcolourproject_2stim_asymm_v5,2020.2.10,MacIntel,60,61025ae37ef11b136ea224fe,,,,,,,,,4179,29,67,1,0,0,response1disk,,7,22,8,1,0,0,rectangle,22,8,1,0,0,22,8,1,0,0,0,116,116,129,1,,,,,,,,
,,,,,,,,,,,,,FF,,,,,,,,1.233,,,,,,,,,,,,,,,,,,,,,,60fd874909b4baa52c9c1c4a,61036f458ce0b5626cb1166a,2021-07-29_23h17.57.315,Simcolourproject_2stim_asymm_v5,2020.2.10,MacIntel,60,61025ae37ef11b136ea224fe,,,,,,,,,4297,69,22,1,0,0,response1disk,,6,17,1,1,0,0,rectangle,17,1,1,0,0,17,1,1,0,0,0,117,117,78,1,,,,,,,,
,,,,,,,,,,,,,FF,,,,,,,,1.866,,,,,,,,,,,,,,,,,,,,,,60fd874909b4baa52c9c1c4a,61036f458ce0b5626cb1166a,2021-07-29_23h17.57.315,Simcolourproject_2stim_asymm_v5,2020.2.10,MacIntel,60,61025ae37ef11b136ea224fe,,,,,,,,,3235,59,-30,1,0,0,response3disk,,5,2,7,1,0,0,rectangle,2,7,1,0,0,2,7,1,0,0,0,118,118,26,1,,,,,,,,
,,,,,,,,,,,,,FF,,,,,,,,1.6,,,,,,,,,,,,,,,,,,,,,,60fd874909b4baa52c9c1c4a,61036f458ce0b5626cb1166a,2021-07-29_23h17.57.315,Simcolourproject_2stim_asymm_v5,2020.2.10,MacIntel,60,61025ae37ef11b136ea224fe,,,,,,,,,4026,35,52,1,0,0,response1disk,,7,25,-2,1,0,0,rectangle,25,-2,1,0,0,25,-2,1,0,0,0,119,119,156,1,,,,,,,,
,,,,,,,,,,,,,FF,,,,,,,,1.099,,,,,,,,,,,,,,,,,,,,,,60fd874909b4baa52c9c1c4a,61036f458ce0b5626cb1166a,2021-07-29_23h17.57.315,Simcolourproject_2stim_asymm_v5,2020.2.10,MacIntel,60,61025ae37ef11b136ea224fe,,,,,,,,,3809,14,52,1,0,0,response1disk,,7,11,0,1,0,0,rectangle,11,0,1,0,0,11,0,1,0,0,0,120,120,58,1,,,,,,,,
,,,,,,,,,,,,,FF,,,,,,,,0.783,,,,,,,,,,,,,,,,,,,,,,60fd874909b4baa52c9c1c4a,61036f458ce0b5626cb1166a,2021-07-29_23h17.57.315,Simcolourproject_2stim_asymm_v5,2020.2.10,MacIntel,60,61025ae37ef11b136ea224fe,,,,,,,,,2590,69,44,1,0,0,response1disk,,6,28,6,1,0,0,rectangle,28,6,1,0,0,28,6,1,0,0,0,121,121,122,1,,,,,,,,
,,,,,,,,,,,,,FF,,,,,,,,0.734,,,,,,,,,,,,,,,,,,,,,,60fd874909b4baa52c9c1c4a,61036f458ce0b5626cb1166a,2021-07-29_23h17.57.315,Simcolourproject_2stim_asymm_v5,2020.2.10,MacIntel,60,61025ae37ef11b136ea224fe,,,,,,,,,681,33,53,1,0,0,response1disk,,7,18,8,1,0,0,rectangle,18,8,1,0,0,18,8,1,0,0,0,122,122,105,1,,,,,,,,
,,,,,,,,,,,,,FF,,,,,,,,1.517,,,,,,,,,,,,,,,,,,,,,,60fd874909b4baa52c9c1c4a,61036f458ce0b5626cb1166a,2021-07-29_23h17.57.315,Simcolourproject_2stim_asymm_v5,2020.2.10,MacIntel,60,61025ae37ef11b136ea224fe,,,,,,,,,4022,-27,-61,1,0,0,response5disk,,3,-8,0,1,0,0,rectangle,-8,0,1,0,0,-8,0,1,0,0,0,123,123,102,1,,,,,,,,
,,,,,,,,,,,,,FF,,,,,,,,1.267,,,,,,,,,,,,,,,,,,,,,,60fd874909b4baa52c9c1c4a,61036f458ce0b5626cb1166a,2021-07-29_23h17.57.315,Simcolourproject_2stim_asymm_v5,2020.2.10,MacIntel,60,61025ae37ef11b136ea224fe,,,,,,,,,1515,39,-46,1,0,0,response3disk,,4,-4,-4,1,0,0,rectangle,-4,-4,1,0,0,-4,-4,1,0,0,0,124,124,104,1,,,,,,,,
,,,,,,,,,,,,,FF,,,,,,,,0.867,,,,,,,,,,,,,,,,,,,,,,60fd874909b4baa52c9c1c4a,61036f458ce0b5626cb1166a,2021-07-29_23h17.57.315,Simcolourproject_2stim_asymm_v5,2020.2.10,MacIntel,60,61025ae37ef11b136ea224fe,,,,,,,,,2829,22,-42,1,0,0,response3disk,,4,1,-8,1,0,0,rectangle,1,-8,1,0,0,1,-8,1,0,0,0,125,125,110,1,,,,,,,,
,,,,,,,,,,,,,FF,,,,,,,,1,,,,,,,,,,,,,,,,,,,,,,60fd874909b4baa52c9c1c4a,61036f458ce0b5626cb1166a,2021-07-29_23h17.57.315,Simcolourproject_2stim_asymm_v5,2020.2.10,MacIntel,60,61025ae37ef11b136ea224fe,,,,,,,,,4062,31,72,1,0,0,response1disk,,7,12,2,1,0,0,rectangle,12,2,1,0,0,12,2,1,0,0,0,126,126,76,1,,,,,,,,
,,,,,,,,,,,,,FF,,,,,,,,1.166,,,,,,,,,,,,,,,,,,,,,,60fd874909b4baa52c9c1c4a,61036f458ce0b5626cb1166a,2021-07-29_23h17.57.315,Simcolourproject_2stim_asymm_v5,2020.2.10,MacIntel,60,61025ae37ef11b136ea224fe,,,,,,,,,3913,-74,-42,1,0,0,response5disk,,2,-19,-11,1,0,0,rectangle,-19,-11,1,0,0,-19,-11,1,0,0,0,127,127,77,1,,,,,,,,
,,,,,,,,,,,,,FF,,,,,,,,1.399,,,,,,,,,,,,,,,,,,,,,,60fd874909b4baa52c9c1c4a,61036f458ce0b5626cb1166a,2021-07-29_23h17.57.315,Simcolourproject_2stim_asymm_v5,2020.2.10,MacIntel,60,61025ae37ef11b136ea224fe,,,,,,,,,830,38,-71,1,0,0,response3disk,,4,21,-13,1,0,0,rectangle,21,-13,1,0,0,21,-13,1,0,0,0,128,128,34,1,,,,,,,,
,,,,,,,,,,,,,FF,,,,,,,,0.85,,,,,,,,,,,,,,,,,,,,,,60fd874909b4baa52c9c1c4a,61036f458ce0b5626cb1166a,2021-07-29_23h17.57.315,Simcolourproject_2stim_asymm_v5,2020.2.10,MacIntel,60,61025ae37ef11b136ea224fe,,,,,,,,,1038,23,-56,1,0,0,response3disk,,4,19,-4,1,0,0,rectangle,19,-4,1,0,0,19,-4,1,0,0,0,129,129,10,1,,,,,,,,
,,,,,,,,,,,,,FF,,,,,,,,0.95,,,,,,,,,,,,,,,,,,,,,,60fd874909b4baa52c9c1c4a,61036f458ce0b5626cb1166a,2021-07-29_23h17.57.315,Simcolourproject_2stim_asymm_v5,2020.2.10,MacIntel,60,61025ae37ef11b136ea224fe,,,,,,,,,2389,21,51,1,0,0,response1disk,,7,8,-5,1,0,0,rectangle,8,-5,1,0,0,8,-5,1,0,0,0,130,130,146,1,,,,,,,,
,,,,,,,,,,,,,FF,,,,,,,,3.949,,,,,,,,,,,,,,,,,,,,,,60fd874909b4baa52c9c1c4a,61036f458ce0b5626cb1166a,2021-07-29_23h17.57.315,Simcolourproject_2stim_asymm_v5,2020.2.10,MacIntel,60,61025ae37ef11b136ea224fe,,,,,,,,,62,29,53,1,0,0,response1disk,,7,0,0,1,0,0,rectangle,0,0,1,0,0,0,0,1,0,0,0,131,131,117,1,,,,,,,,
,,,,,,,,,,,,,FF,,,,,,,,2.082,,,,,,,,,,,,,,,,,,,,,,60fd874909b4baa52c9c1c4a,61036f458ce0b5626cb1166a,2021-07-29_23h17.57.315,Simcolourproject_2stim_asymm_v5,2020.2.10,MacIntel,60,61025ae37ef11b136ea224fe,,,,,,,,,1664,36,-79,1,0,0,response3disk,,4,19,2,1,0,0,rectangle,19,2,1,0,0,19,2,1,0,0,0,132,132,125,1,,,,,,,,
,,,,,,,,,,,,,FF,,,,,,,,1.217,,,,,,,,,,,,,,,,,,,,,,60fd874909b4baa52c9c1c4a,61036f458ce0b5626cb1166a,2021-07-29_23h17.57.315,Simcolourproject_2stim_asymm_v5,2020.2.10,MacIntel,60,61025ae37ef11b136ea224fe,,,,,,,,,86,17,39,1,0,0,response1disk,,7,17,4,1,0,0,rectangle,17,4,1,0,0,17,4,1,0,0,0,133,133,64,1,,,,,,,,
,,,,,,,,,,,,,FF,,,,,,,,2.25,,,,,,,,,,,,,,,,,,,,,,60fd874909b4baa52c9c1c4a,61036f458ce0b5626cb1166a,2021-07-29_23h17.57.315,Simcolourproject_2stim_asymm_v5,2020.2.10,MacIntel,60,61025ae37ef11b136ea224fe,,,,,,,,,3212,38,-62,1,0,0,response3disk,,4,27,4,1,0,0,rectangle,27,4,1,0,0,27,4,1,0,0,0,134,134,54,1,,,,,,,,
,,,,,,,,,,,,,FF,,,,,,,,0.8,,,,,,,,,,,,,,,,,,,,,,60fd874909b4baa52c9c1c4a,61036f458ce0b5626cb1166a,2021-07-29_23h17.57.315,Simcolourproject_2stim_asymm_v5,2020.2.10,MacIntel,60,61025ae37ef11b136ea224fe,,,,,,,,,2900,29,-48,1,0,0,response3disk,,4,23,-3,1,0,0,rectangle,23,-3,1,0,0,23,-3,1,0,0,0,135,135,7,1,,,,,,,,
,,,,,,,,,,,,,FF,,,,,,,,0.867,,,,,,,,,,,,,,,,,,,,,,60fd874909b4baa52c9c1c4a,61036f458ce0b5626cb1166a,2021-07-29_23h17.57.315,Simcolourproject_2stim_asymm_v5,2020.2.10,MacIntel,60,61025ae37ef11b136ea224fe,,,,,,,,,363,48,27,1,0,0,response1disk,,6,6,2,1,0,0,rectangle,6,2,1,0,0,6,2,1,0,0,0,136,136,40,1,,,,,,,,
,,,,,,,,,,,,,FF,,,,,,,,1.017,,,,,,,,,,,,,,,,,,,,,,60fd874909b4baa52c9c1c4a,61036f458ce0b5626cb1166a,2021-07-29_23h17.57.315,Simcolourproject_2stim_asymm_v5,2020.2.10,MacIntel,60,61025ae37ef11b136ea224fe,,,,,,,,,2683,48,26,1,0,0,response1disk,,6,16,9,1,0,0,rectangle,16,9,1,0,0,16,9,1,0,0,0,137,137,126,1,,,,,,,,
,,,,,,,,,,,,,FF,,,,,,,,0.817,,,,,,,,,,,,,,,,,,,,,,60fd874909b4baa52c9c1c4a,61036f458ce0b5626cb1166a,2021-07-29_23h17.57.315,Simcolourproject_2stim_asymm_v5,2020.2.10,MacIntel,60,61025ae37ef11b136ea224fe,,,,,,,,,1825,-42,-48,1,0,0,response5disk,,3,-27,-11,1,0,0,rectangle,-27,-11,1,0,0,-27,-11,1,0,0,0,138,138,91,1,,,,,,,,
,,,,,,,,,,,,,FF,,,,,,,,1.683,,,,,,,,,,,,,,,,,,,,,,60fd874909b4baa52c9c1c4a,61036f458ce0b5626cb1166a,2021-07-29_23h17.57.315,Simcolourproject_2stim_asymm_v5,2020.2.10,MacIntel,60,61025ae37ef11b136ea224fe,,,,,,,,,4091,24,-54,1,0,0,response3disk,,4,21,-8,1,0,0,rectangle,21,-8,1,0,0,21,-8,1,0,0,0,139,139,139,1,,,,,,,,
,,,,,,,,,,,,,FF,,,,,,,,1.416,,,,,,,,,,,,,,,,,,,,,,60fd874909b4baa52c9c1c4a,61036f458ce0b5626cb1166a,2021-07-29_23h17.57.315,Simcolourproject_2stim_asymm_v5,2020.2.10,MacIntel,60,61025ae37ef11b136ea224fe,,,,,,,,,688,30,-45,1,0,0,response3disk,,4,21,12,1,0,0,rectangle,21,12,1,0,0,21,12,1,0,0,0,140,140,71,1,,,,,,,,
,,,,,,,,,,,,,FF,,,,,,,,0.733,,,,,,,,,,,,,,,,,,,,,,60fd874909b4baa52c9c1c4a,61036f458ce0b5626cb1166a,2021-07-29_23h17.57.315,Simcolourproject_2stim_asymm_v5,2020.2.10,MacIntel,60,61025ae37ef11b136ea224fe,,,,,,,,,316,42,18,1,0,0,response1disk,,6,23,-5,1,0,0,rectangle,23,-5,1,0,0,23,-5,1,0,0,0,141,141,20,1,,,,,,,,
,,,,,,,,,,,,,FF,,,,,,,,1.066,,,,,,,,,,,,,,,,,,,,,,60fd874909b4baa52c9c1c4a,61036f458ce0b5626cb1166a,2021-07-29_23h17.57.315,Simcolourproject_2stim_asymm_v5,2020.2.10,MacIntel,60,61025ae37ef11b136ea224fe,,,,,,,,,2576,25,70,1,0,0,response1disk,,7,24,5,1,0,0,rectangle,24,5,1,0,0,24,5,1,0,0,0,142,142,72,1,,,,,,,,
,,,,,,,,,,,,,FF,,,,,,,,2.733,,,,,,,,,,,,,,,,,,,,,,60fd874909b4baa52c9c1c4a,61036f458ce0b5626cb1166a,2021-07-29_23h17.57.315,Simcolourproject_2stim_asymm_v5,2020.2.10,MacIntel,60,61025ae37ef11b136ea224fe,,,,,,,,,3652,35,69,1,0,0,response1disk,,7,28,11,1,0,0,rectangle,28,11,1,0,0,28,11,1,0,0,0,143,143,4,1,,,,,,,,
,,,,,,,,,,,,,FF,,,,,,,,0.766,,,,,,,,,,,,,,,,,,,,,,60fd874909b4baa52c9c1c4a,61036f458ce0b5626cb1166a,2021-07-29_23h17.57.315,Simcolourproject_2stim_asymm_v5,2020.2.10,MacIntel,60,61025ae37ef11b136ea224fe,,,,,,,,,2445,55,38,1,0,0,response1disk,,6,24,17,1,0,0,rectangle,24,17,1,0,0,24,17,1,0,0,0,144,144,142,1,,,,,,,,
,,,,,,,,,,,,,FF,,,,,,,,0.817,,,,,,,,,,,,,,,,,,,,,,60fd874909b4baa52c9c1c4a,61036f458ce0b5626cb1166a,2021-07-29_23h17.57.315,Simcolourproject_2stim_asymm_v5,2020.2.10,MacIntel,60,61025ae37ef11b136ea224fe,,,,,,,,,3362,60,50,1,0,0,response1disk,,6,23,5,1,0,0,rectangle,23,5,1,0,0,23,5,1,0,0,0,145,145,89,1,,,,,,,,
,,,,,,,,,,,,,FF,,,,,,,,0.832,,,,,,,,,,,,,,,,,,,,,,60fd874909b4baa52c9c1c4a,61036f458ce0b5626cb1166a,2021-07-29_23h17.57.315,Simcolourproject_2stim_asymm_v5,2020.2.10,MacIntel,60,61025ae37ef11b136ea224fe,,,,,,,,,1866,21,55,1,0,0,response1disk,,7,21,3,1,0,0,rectangle,21,3,1,0,0,21,3,1,0,0,0,146,146,38,1,,,,,,,,
,,,,,,,,,,,,,FF,,,,,,,,0.75,,,,,,,,,,,,,,,,,,,,,,60fd874909b4baa52c9c1c4a,61036f458ce0b5626cb1166a,2021-07-29_23h17.57.315,Simcolourproject_2stim_asymm_v5,2020.2.10,MacIntel,60,61025ae37ef11b136ea224fe,,,,,,,,,1461,-66,39,1,0,0,response7disk,,1,-12,7,1,0,0,rectangle,-12,7,1,0,0,-12,7,1,0,0,0,147,147,50,1,,,,,,,,
,,,,,,,,,,,,,FF,,,,,,,,0.933,,,,,,,,,,,,,,,,,,,,,,60fd874909b4baa52c9c1c4a,61036f458ce0b5626cb1166a,2021-07-29_23h17.57.315,Simcolourproject_2stim_asymm_v5,2020.2.10,MacIntel,60,61025ae37ef11b136ea224fe,,,,,,,,,4069,25,-48,1,0,0,response3disk,,4,9,-1,1,0,0,rectangle,9,-1,1,0,0,9,-1,1,0,0,0,148,148,103,1,,,,,,,,
,,,,,,,,,,,,,FF,,,,,,,,1.633,,,,,,,,,,,,,,,,,,,,,,60fd874909b4baa52c9c1c4a,61036f458ce0b5626cb1166a,2021-07-29_23h17.57.315,Simcolourproject_2stim_asymm_v5,2020.2.10,MacIntel,60,61025ae37ef11b136ea224fe,,,,,,,,,879,24,66,1,0,0,response1disk,,7,18,-1,1,0,0,rectangle,18,-1,1,0,0,18,-1,1,0,0,0,149,149,153,1,,,,,,,,
,,,,,,,,,,,,,FF,,,,,,,,1.067,,,,,,,,,,,,,,,,,,,,,,60fd874909b4baa52c9c1c4a,61036f458ce0b5626cb1166a,2021-07-29_23h17.57.315,Simcolourproject_2stim_asymm_v5,2020.2.10,MacIntel,60,61025ae37ef11b136ea224fe,,,,,,,,,3452,17,52,1,0,0,response1disk,,7,16,-9,1,0,0,rectangle,16,-9,1,0,0,16,-9,1,0,0,0,150,150,33,1,,,,,,,,
,,,,,,,,,,,,,FF,,,,,,,,1.717,,,,,,,,,,,,,,,,,,,,,,60fd874909b4baa52c9c1c4a,61036f458ce0b5626cb1166a,2021-07-29_23h17.57.315,Simcolourproject_2stim_asymm_v5,2020.2.10,MacIntel,60,61025ae37ef11b136ea224fe,,,,,,,,,1761,62,-27,1,0,0,response3disk,,5,18,6,1,0,0,rectangle,18,6,1,0,0,18,6,1,0,0,0,151,151,152,1,,,,,,,,
,,,,,,,,,,,,,FF,,,,,,,,0.883,,,,,,,,,,,,,,,,,,,,,,60fd874909b4baa52c9c1c4a,61036f458ce0b5626cb1166a,2021-07-29_23h17.57.315,Simcolourproject_2stim_asymm_v5,2020.2.10,MacIntel,60,61025ae37ef11b136ea224fe,,,,,,,,,3954,21,43,1,0,0,response1disk,,7,10,3,1,0,0,rectangle,10,3,1,0,0,10,3,1,0,0,0,152,152,18,1,,,,,,,,
,,,,,,,,,,,,,FF,,,,,,,,1.05,,,,,,,,,,,,,,,,,,,,,,60fd874909b4baa52c9c1c4a,61036f458ce0b5626cb1166a,2021-07-29_23h17.57.315,Simcolourproject_2stim_asymm_v5,2020.2.10,MacIntel,60,61025ae37ef11b136ea224fe,,,,,,,,,3898,66,40,1,0,0,response1disk,,6,32,9,1,0,0,rectangle,32,9,1,0,0,32,9,1,0,0,0,153,153,30,1,,,,,,,,
,,,,,,,,,,,,,FF,,,,,,,,0.85,,,,,,,,,,,,,,,,,,,,,,60fd874909b4baa52c9c1c4a,61036f458ce0b5626cb1166a,2021-07-29_23h17.57.315,Simcolourproject_2stim_asymm_v5,2020.2.10,MacIntel,60,61025ae37ef11b136ea224fe,,,,,,,,,3941,29,46,1,0,0,response1disk,,7,4,-15,1,0,0,rectangle,4,-15,1,0,0,4,-15,1,0,0,0,154,154,12,1,,,,,,,,
,,,,,,,,,,,,,FF,,,,,,,,2.249,,,,,,,,,,,,,,,,,,,,,,60fd874909b4baa52c9c1c4a,61036f458ce0b5626cb1166a,2021-07-29_23h17.57.315,Simcolourproject_2stim_asymm_v5,2020.2.10,MacIntel,60,61025ae37ef11b136ea224fe,,,,,,,,,2208,36,25,1,0,0,response1disk,,6,17,4,1,0,0,rectangle,17,4,1,0,0,17,4,1,0,0,0,155,155,127,1,,,,,,,,
,,,,,,,,,,,,,FF,,,,,,,,0.949,,,,,,,,,,,,,,,,,,,,,,60fd874909b4baa52c9c1c4a,61036f458ce0b5626cb1166a,2021-07-29_23h17.57.315,Simcolourproject_2stim_asymm_v5,2020.2.10,MacIntel,60,61025ae37ef11b136ea224fe,,,,,,,,,740,29,-55,1,0,0,response3disk,,4,12,-12,1,0,0,rectangle,12,-12,1,0,0,12,-12,1,0,0,0,156,156,111,1,,,,,,,,
,,,,,,,,,,,,,FF,,,,,,,,1.151,,,,,,,,,,,,,,,,,,,,,,60fd874909b4baa52c9c1c4a,61036f458ce0b5626cb1166a,2021-07-29_23h17.57.315,Simcolourproject_2stim_asymm_v5,2020.2.10,MacIntel,60,61025ae37ef11b136ea224fe,,,,,,,,,320,54,35,1,0,0,response1disk,,6,21,12,1,0,0,rectangle,21,12,1,0,0,21,12,1,0,0,0,157,157,6,1,,,,,,,,
,,,,,,,,,,,,,FF,,,,,,,,0.783,,,,,,,,,,,,,,,,,,,,,,60fd874909b4baa52c9c1c4a,61036f458ce0b5626cb1166a,2021-07-29_23h17.57.315,Simcolourproject_2stim_asymm_v5,2020.2.10,MacIntel,60,61025ae37ef11b136ea224fe,,,,,,,,,3414,60,59,1,0,0,response1disk,,6,21,-1,1,0,0,rectangle,21,-1,1,0,0,21,-1,1,0,0,0,158,158,67,1,,,,,,,,
,,,,,,,,,,,,,FF,,,,,,,,0.999,,,,,,,,,,,,,,,,,,,,,,60fd874909b4baa52c9c1c4a,61036f458ce0b5626cb1166a,2021-07-29_23h17.57.315,Simcolourproject_2stim_asymm_v5,2020.2.10,MacIntel,60,61025ae37ef11b136ea224fe,,,,,,,,,4161,-26,80,1,0,0,response7disk,,0,-10,8,1,0,0,rectangle,-10,8,1,0,0,-10,8,1,0,0,0,159,159,25,1,,,,,,,,
,,,,,,,,,,,,,FF,,,,,,,,3.866,,,,,,,,,,,,,,,,,,,,,,60fd874909b4baa52c9c1c4a,61036f458ce0b5626cb1166a,2021-07-29_23h17.57.315,Simcolourproject_2stim_asymm_v5,2020.2.10,MacIntel,60,61025ae37ef11b136ea224fe,,,,,,,,,622,16,-44,1,0,0,response3disk,,4,5,-7,1,0,0,rectangle,5,-7,1,0,0,5,-7,1,0,0,1,0,160,84,1,,,,,,,,
,,,,,,,,,,,,,FF,,,,,,,,1,,,,,,,,,,,,,,,,,,,,,,60fd874909b4baa52c9c1c4a,61036f458ce0b5626cb1166a,2021-07-29_23h17.57.315,Simcolourproject_2stim_asymm_v5,2020.2.10,MacIntel,60,61025ae37ef11b136ea224fe,,,,,,,,,843,55,26,1,0,0,response1disk,,6,21,3,1,0,0,rectangle,21,3,1,0,0,21,3,1,0,0,1,1,161,72,1,,,,,,,,
,,,,,,,,,,,,,FF,,,,,,,,1.233,,,,,,,,,,,,,,,,,,,,,,60fd874909b4baa52c9c1c4a,61036f458ce0b5626cb1166a,2021-07-29_23h17.57.315,Simcolourproject_2stim_asymm_v5,2020.2.10,MacIntel,60,61025ae37ef11b136ea224fe,,,,,,,,,256,-42,-20,1,0,0,response5disk,,2,9,1,1,0,0,rectangle,9,1,1,0,0,9,1,1,0,0,1,2,162,136,1,,,,,,,,
,,,,,,,,,,,,,FF,,,,,,,,2.317,,,,,,,,,,,,,,,,,,,,,,60fd874909b4baa52c9c1c4a,61036f458ce0b5626cb1166a,2021-07-29_23h17.57.315,Simcolourproject_2stim_asymm_v5,2020.2.10,MacIntel,60,61025ae37ef11b136ea224fe,,,,,,,,,4067,23,56,1,0,0,response1disk,,7,7,0,1,0,0,rectangle,7,0,1,0,0,7,0,1,0,0,1,3,163,135,1,,,,,,,,
,,,,,,,,,,,,,FF,,,,,,,,0.949,,,,,,,,,,,,,,,,,,,,,,60fd874909b4baa52c9c1c4a,61036f458ce0b5626cb1166a,2021-07-29_23h17.57.315,Simcolourproject_2stim_asymm_v5,2020.2.10,MacIntel,60,61025ae37ef11b136ea224fe,,,,,,,,,1527,-43,40,1,0,0,response7disk,,1,-13,-5,1,0,0,rectangle,28,81,1,0,0,8,5,1,0,0,1,4,164,145,1,,response1disk_3,TRUE,7,7,"[211,165,171,289,250,89,208,51,286,224,252,18,241,63,12,113,303,206,65,112]",2.115,rectangle
,,,,,,,,,,,,,FF,,,,,,,,1.533,,,,,,,,,,,,,,,,,,,,,,60fd874909b4baa52c9c1c4a,61036f458ce0b5626cb1166a,2021-07-29_23h17.57.315,Simcolourproject_2stim_asymm_v5,2020.2.10,MacIntel,60,61025ae37ef11b136ea224fe,,,,,,,,,2936,-62,-32,1,0,0,response5disk,,2,-16,-6,1,0,0,rectangle,-16,-6,1,0,0,-16,-6,1,0,0,1,5,165,101,1,,,,,,,,
,,,,,,,,,,,,,FF,,,,,,,,1.3,,,,,,,,,,,,,,,,,,,,,,60fd874909b4baa52c9c1c4a,61036f458ce0b5626cb1166a,2021-07-29_23h17.57.315,Simcolourproject_2stim_asymm_v5,2020.2.10,MacIntel,60,61025ae37ef11b136ea224fe,,,,,,,,,4235,-24,65,1,0,0,response7disk,,0,-20,4,1,0,0,rectangle,-20,4,1,0,0,-20,4,1,0,0,1,6,166,125,1,,,,,,,,
,,,,,,,,,,,,,FF,,,,,,,,2.517,,,,,,,,,,,,,,,,,,,,,,60fd874909b4baa52c9c1c4a,61036f458ce0b5626cb1166a,2021-07-29_23h17.57.315,Simcolourproject_2stim_asymm_v5,2020.2.10,MacIntel,60,61025ae37ef11b136ea224fe,,,,,,,,,2319,30,69,1,0,0,response1disk,,7,-5,-6,1,0,0,rectangle,-5,-6,1,0,0,-5,-6,1,0,0,1,7,167,115,1,,,,,,,,
,,,,,,,,,,,,,FF,,,,,,,,0.816,,,,,,,,,,,,,,,,,,,,,,60fd874909b4baa52c9c1c4a,61036f458ce0b5626cb1166a,2021-07-29_23h17.57.315,Simcolourproject_2stim_asymm_v5,2020.2.10,MacIntel,60,61025ae37ef11b136ea224fe,,,,,,,,,781,16,62,1,0,0,response1disk,,7,9,9,1,0,0,rectangle,9,9,1,0,0,9,9,1,0,0,1,8,168,151,1,,,,,,,,
,,,,,,,,,,,,,FF,,,,,,,,0.65,,,,,,,,,,,,,,,,,,,,,,60fd874909b4baa52c9c1c4a,61036f458ce0b5626cb1166a,2021-07-29_23h17.57.315,Simcolourproject_2stim_asymm_v5,2020.2.10,MacIntel,60,61025ae37ef11b136ea224fe,,,,,,,,,3276,28,49,1,0,0,response1disk,,7,13,13,1,0,0,rectangle,13,13,1,0,0,13,13,1,0,0,1,9,169,57,1,,,,,,,,
,,,,,,,,,,,,,FF,,,,,,,,0.849,,,,,,,,,,,,,,,,,,,,,,60fd874909b4baa52c9c1c4a,61036f458ce0b5626cb1166a,2021-07-29_23h17.57.315,Simcolourproject_2stim_asymm_v5,2020.2.10,MacIntel,60,61025ae37ef11b136ea224fe,,,,,,,,,3591,-31,63,1,0,0,response7disk,,0,-24,14,1,0,0,rectangle,-30,-89,1,0,0,-3,-2,1,0,0,1,10,170,123,1,,response5disk_3,TRUE,3,3,"[211,165,171,289,250,89,208,51,286,224,252,18,241,63,12,113,303,206,65,112]",3.133,rectangle
,,,,,,,,,,,,,FF,,,,,,,,1.184,,,,,,,,,,,,,,,,,,,,,,60fd874909b4baa52c9c1c4a,61036f458ce0b5626cb1166a,2021-07-29_23h17.57.315,Simcolourproject_2stim_asymm_v5,2020.2.10,MacIntel,60,61025ae37ef11b136ea224fe,,,,,,,,,855,50,36,1,0,0,response1disk,,6,14,-1,1,0,0,rectangle,14,-1,1,0,0,14,-1,1,0,0,1,11,171,88,1,,,,,,,,
,,,,,,,,,,,,,FF,,,,,,,,1.433,,,,,,,,,,,,,,,,,,,,,,60fd874909b4baa52c9c1c4a,61036f458ce0b5626cb1166a,2021-07-29_23h17.57.315,Simcolourproject_2stim_asymm_v5,2020.2.10,MacIntel,60,61025ae37ef11b136ea224fe,,,,,,,,,650,-23,-68,1,0,0,response5disk,,3,-3,15,1,0,0,rectangle,-3,15,1,0,0,-3,15,1,0,0,1,12,172,109,1,,,,,,,,
,,,,,,,,,,,,,FF,,,,,,,,0.767,,,,,,,,,,,,,,,,,,,,,,60fd874909b4baa52c9c1c4a,61036f458ce0b5626cb1166a,2021-07-29_23h17.57.315,Simcolourproject_2stim_asymm_v5,2020.2.10,MacIntel,60,61025ae37ef11b136ea224fe,,,,,,,,,2151,-21,-53,1,0,0,response5disk,,3,-13,-7,1,0,0,rectangle,-13,-7,1,0,0,-13,-7,1,0,0,1,13,173,157,1,,,,,,,,
,,,,,,,,,,,,,FF,,,,,,,,0.715,,,,,,,,,,,,,,,,,,,,,,60fd874909b4baa52c9c1c4a,61036f458ce0b5626cb1166a,2021-07-29_23h17.57.315,Simcolourproject_2stim_asymm_v5,2020.2.10,MacIntel,60,61025ae37ef11b136ea224fe,,,,,,,,,1508,43,65,1,0,0,response1disk,,7,22,-6,1,0,0,rectangle,22,-6,1,0,0,22,-6,1,0,0,1,14,174,30,1,,,,,,,,
,,,,,,,,,,,,,FF,,,,,,,,0.917,,,,,,,,,,,,,,,,,,,,,,60fd874909b4baa52c9c1c4a,61036f458ce0b5626cb1166a,2021-07-29_23h17.57.315,Simcolourproject_2stim_asymm_v5,2020.2.10,MacIntel,60,61025ae37ef11b136ea224fe,,,,,,,,,3076,30,42,1,0,0,response1disk,,7,25,4,1,0,0,rectangle,25,4,1,0,0,25,4,1,0,0,1,15,175,140,1,,,,,,,,
,,,,,,,,,,,,,FF,,,,,,,,0.849,,,,,,,,,,,,,,,,,,,,,,60fd874909b4baa52c9c1c4a,61036f458ce0b5626cb1166a,2021-07-29_23h17.57.315,Simcolourproject_2stim_asymm_v5,2020.2.10,MacIntel,60,61025ae37ef11b136ea224fe,,,,,,,,,1958,-43,22,1,0,0,response7disk,,1,-17,10,1,0,0,rectangle,-17,10,1,0,0,-17,10,1,0,0,1,16,176,44,1,,,,,,,,
,,,,,,,,,,,,,FF,,,,,,,,3.116,,,,,,,,,,,,,,,,,,,,,,60fd874909b4baa52c9c1c4a,61036f458ce0b5626cb1166a,2021-07-29_23h17.57.315,Simcolourproject_2stim_asymm_v5,2020.2.10,MacIntel,60,61025ae37ef11b136ea224fe,,,,,,,,,2113,46,-65,1,0,0,response3disk,,4,13,0,1,0,0,rectangle,13,0,1,0,0,13,0,1,0,0,1,17,177,75,1,,,,,,,,
,,,,,,,,,,,,,FF,,,,,,,,1.817,,,,,,,,,,,,,,,,,,,,,,60fd874909b4baa52c9c1c4a,61036f458ce0b5626cb1166a,2021-07-29_23h17.57.315,Simcolourproject_2stim_asymm_v5,2020.2.10,MacIntel,60,61025ae37ef11b136ea224fe,,,,,,,,,2353,34,-62,1,0,0,response3disk,,4,15,-12,1,0,0,rectangle,15,-12,1,0,0,15,-12,1,0,0,1,18,178,81,1,,,,,,,,
,,,,,,,,,,,,,FF,,,,,,,,1.033,,,,,,,,,,,,,,,,,,,,,,60fd874909b4baa52c9c1c4a,61036f458ce0b5626cb1166a,2021-07-29_23h17.57.315,Simcolourproject_2stim_asymm_v5,2020.2.10,MacIntel,60,61025ae37ef11b136ea224fe,,,,,,,,,4242,39,63,1,0,0,response1disk,,7,21,-5,1,0,0,rectangle,21,-5,1,0,0,21,-5,1,0,0,1,19,179,153,1,,,,,,,,
,,,,,,,,,,,,,FF,,,,,,,,1.483,,,,,,,,,,,,,,,,,,,,,,60fd874909b4baa52c9c1c4a,61036f458ce0b5626cb1166a,2021-07-29_23h17.57.315,Simcolourproject_2stim_asymm_v5,2020.2.10,MacIntel,60,61025ae37ef11b136ea224fe,,,,,,,,,3994,-52,21,1,0,0,response7disk,,1,-14,-1,1,0,0,rectangle,-14,-1,1,0,0,-14,-1,1,0,0,1,20,180,97,1,,,,,,,,
,,,,,,,,,,,,,FF,,,,,,,,0.8,,,,,,,,,,,,,,,,,,,,,,60fd874909b4baa52c9c1c4a,61036f458ce0b5626cb1166a,2021-07-29_23h17.57.315,Simcolourproject_2stim_asymm_v5,2020.2.10,MacIntel,60,61025ae37ef11b136ea224fe,,,,,,,,,1753,-58,26,1,0,0,response7disk,,1,-16,3,1,0,0,rectangle,-16,3,1,0,0,-16,3,1,0,0,1,21,181,152,1,,,,,,,,
,,,,,,,,,,,,,FF,,,,,,,,0.798,,,,,,,,,,,,,,,,,,,,,,60fd874909b4baa52c9c1c4a,61036f458ce0b5626cb1166a,2021-07-29_23h17.57.315,Simcolourproject_2stim_asymm_v5,2020.2.10,MacIntel,60,61025ae37ef11b136ea224fe,,,,,,,,,3752,23,54,1,0,0,response1disk,,7,3,2,1,0,0,rectangle,3,2,1,0,0,3,2,1,0,0,1,22,182,68,1,,,,,,,,
,,,,,,,,,,,,,FF,,,,,,,,1.182,,,,,,,,,,,,,,,,,,,,,,60fd874909b4baa52c9c1c4a,61036f458ce0b5626cb1166a,2021-07-29_23h17.57.315,Simcolourproject_2stim_asymm_v5,2020.2.10,MacIntel,60,61025ae37ef11b136ea224fe,,,,,,,,,372,-55,-67,1,0,0,response5disk,,3,-22,-7,1,0,0,rectangle,-22,-7,1,0,0,-22,-7,1,0,0,1,23,183,74,1,,,,,,,,
,,,,,,,,,,,,,FF,,,,,,,,0.734,,,,,,,,,,,,,,,,,,,,,,60fd874909b4baa52c9c1c4a,61036f458ce0b5626cb1166a,2021-07-29_23h17.57.315,Simcolourproject_2stim_asymm_v5,2020.2.10,MacIntel,60,61025ae37ef11b136ea224fe,,,,,,,,,2489,-42,-48,1,0,0,response5disk,,3,-10,-11,1,0,0,rectangle,-10,-11,1,0,0,-10,-11,1,0,0,1,24,184,5,1,,,,,,,,
,,,,,,,,,,,,,FF,,,,,,,,1.049,,,,,,,,,,,,,,,,,,,,,,60fd874909b4baa52c9c1c4a,61036f458ce0b5626cb1166a,2021-07-29_23h17.57.315,Simcolourproject_2stim_asymm_v5,2020.2.10,MacIntel,60,61025ae37ef11b136ea224fe,,,,,,,,,274,57,-67,1,0,0,response3disk,,4,22,-17,1,0,0,rectangle,22,-17,1,0,0,22,-17,1,0,0,1,25,185,110,1,,,,,,,,
,,,,,,,,,,,,,FF,,,,,,,,2.266,,,,,,,,,,,,,,,,,,,,,,60fd874909b4baa52c9c1c4a,61036f458ce0b5626cb1166a,2021-07-29_23h17.57.315,Simcolourproject_2stim_asymm_v5,2020.2.10,MacIntel,60,61025ae37ef11b136ea224fe,,,,,,,,,2752,31,55,1,0,0,response1disk,,7,19,-1,1,0,0,rectangle,19,-1,1,0,0,19,-1,1,0,0,1,26,186,134,1,,,,,,,,
,,,,,,,,,,,,,FF,,,,,,,,0.799,,,,,,,,,,,,,,,,,,,,,,60fd874909b4baa52c9c1c4a,61036f458ce0b5626cb1166a,2021-07-29_23h17.57.315,Simcolourproject_2stim_asymm_v5,2020.2.10,MacIntel,60,61025ae37ef11b136ea224fe,,,,,,,,,2458,55,72,1,0,0,response1disk,,7,25,3,1,0,0,rectangle,25,3,1,0,0,25,3,1,0,0,1,27,187,119,1,,,,,,,,
,,,,,,,,,,,,,FF,,,,,,,,0.862,,,,,,,,,,,,,,,,,,,,,,60fd874909b4baa52c9c1c4a,61036f458ce0b5626cb1166a,2021-07-29_23h17.57.315,Simcolourproject_2stim_asymm_v5,2020.2.10,MacIntel,60,61025ae37ef11b136ea224fe,,,,,,,,,1830,-25,-59,1,0,0,response5disk,,3,-17,-6,1,0,0,rectangle,-17,-6,1,0,0,-17,-6,1,0,0,1,28,188,27,1,,,,,,,,
,,,,,,,,,,,,,FF,,,,,,,,0.682,,,,,,,,,,,,,,,,,,,,,,60fd874909b4baa52c9c1c4a,61036f458ce0b5626cb1166a,2021-07-29_23h17.57.315,Simcolourproject_2stim_asymm_v5,2020.2.10,MacIntel,60,61025ae37ef11b136ea224fe,,,,,,,,,1061,-30,-75,1,0,0,response5disk,,3,-6,-6,1,0,0,rectangle,-6,-6,1,0,0,-6,-6,1,0,0,1,29,189,89,1,,,,,,,,
,,,,,,,,,,,,,FF,,,,,,,,1.083,,,,,,,,,,,,,,,,,,,,,,60fd874909b4baa52c9c1c4a,61036f458ce0b5626cb1166a,2021-07-29_23h17.57.315,Simcolourproject_2stim_asymm_v5,2020.2.10,MacIntel,60,61025ae37ef11b136ea224fe,,,,,,,,,2979,39,76,1,0,0,response1disk,,7,14,-1,1,0,0,rectangle,14,-1,1,0,0,14,-1,1,0,0,1,30,190,64,1,,,,,,,,
,,,,,,,,,,,,,FF,,,,,,,,2.917,,,,,,,,,,,,,,,,,,,,,,60fd874909b4baa52c9c1c4a,61036f458ce0b5626cb1166a,2021-07-29_23h17.57.315,Simcolourproject_2stim_asymm_v5,2020.2.10,MacIntel,60,61025ae37ef11b136ea224fe,,,,,,,,,1557,51,-74,1,0,0,response3disk,,4,14,1,1,0,0,rectangle,14,1,1,0,0,14,1,1,0,0,1,31,191,85,1,,,,,,,,
,,,,,,,,,,,,,FF,,,,,,,,0.817,,,,,,,,,,,,,,,,,,,,,,60fd874909b4baa52c9c1c4a,61036f458ce0b5626cb1166a,2021-07-29_23h17.57.315,Simcolourproject_2stim_asymm_v5,2020.2.10,MacIntel,60,61025ae37ef11b136ea224fe,,,,,,,,,3136,37,70,1,0,0,response1disk,,7,20,-14,1,0,0,rectangle,20,-14,1,0,0,20,-14,1,0,0,1,32,192,46,1,,,,,,,,
,,,,,,,,,,,,,FF,,,,,,,,0.9,,,,,,,,,,,,,,,,,,,,,,60fd874909b4baa52c9c1c4a,61036f458ce0b5626cb1166a,2021-07-29_23h17.57.315,Simcolourproject_2stim_asymm_v5,2020.2.10,MacIntel,60,61025ae37ef11b136ea224fe,,,,,,,,,3426,-25,19,1,0,0,response7disk,,1,-7,-1,1,0,0,rectangle,-7,-1,1,0,0,-7,-1,1,0,0,1,33,193,67,1,,,,,,,,
,,,,,,,,,,,,,FF,,,,,,,,1.116,,,,,,,,,,,,,,,,,,,,,,60fd874909b4baa52c9c1c4a,61036f458ce0b5626cb1166a,2021-07-29_23h17.57.315,Simcolourproject_2stim_asymm_v5,2020.2.10,MacIntel,60,61025ae37ef11b136ea224fe,,,,,,,,,147,66,47,1,0,0,response1disk,,6,-5,-6,1,0,0,rectangle,-5,-6,1,0,0,-5,-6,1,0,0,1,34,194,148,1,,,,,,,,
,,,,,,,,,,,,,FF,,,,,,,,1.035,,,,,,,,,,,,,,,,,,,,,,60fd874909b4baa52c9c1c4a,61036f458ce0b5626cb1166a,2021-07-29_23h17.57.315,Simcolourproject_2stim_asymm_v5,2020.2.10,MacIntel,60,61025ae37ef11b136ea224fe,,,,,,,,,347,31,-66,1,0,0,response3disk,,4,7,-12,1,0,0,rectangle,7,-12,1,0,0,7,-12,1,0,0,1,35,195,48,1,,,,,,,,
,,,,,,,,,,,,,FF,,,,,,,,1,,,,,,,,,,,,,,,,,,,,,,60fd874909b4baa52c9c1c4a,61036f458ce0b5626cb1166a,2021-07-29_23h17.57.315,Simcolourproject_2stim_asymm_v5,2020.2.10,MacIntel,60,61025ae37ef11b136ea224fe,,,,,,,,,3549,66,-29,1,0,0,response3disk,,5,15,-5,1,0,0,rectangle,15,-5,1,0,0,15,-5,1,0,0,1,36,196,137,1,,,,,,,,
,,,,,,,,,,,,,FF,,,,,,,,0.749,,,,,,,,,,,,,,,,,,,,,,60fd874909b4baa52c9c1c4a,61036f458ce0b5626cb1166a,2021-07-29_23h17.57.315,Simcolourproject_2stim_asymm_v5,2020.2.10,MacIntel,60,61025ae37ef11b136ea224fe,,,,,,,,,4059,22,-55,1,0,0,response3disk,,4,-8,-15,1,0,0,rectangle,-8,-15,1,0,0,-8,-15,1,0,0,1,37,197,124,1,,,,,,,,
,,,,,,,,,,,,,FF,,,,,,,,1.484,,,,,,,,,,,,,,,,,,,,,,60fd874909b4baa52c9c1c4a,61036f458ce0b5626cb1166a,2021-07-29_23h17.57.315,Simcolourproject_2stim_asymm_v5,2020.2.10,MacIntel,60,61025ae37ef11b136ea224fe,,,,,,,,,1697,94,33,1,0,0,response1disk,,6,20,0,1,0,0,rectangle,20,0,1,0,0,20,0,1,0,0,1,38,198,24,1,,,,,,,,
,,,,,,,,,,,,,FF,,,,,,,,1.083,,,,,,,,,,,,,,,,,,,,,,60fd874909b4baa52c9c1c4a,61036f458ce0b5626cb1166a,2021-07-29_23h17.57.315,Simcolourproject_2stim_asymm_v5,2020.2.10,MacIntel,60,61025ae37ef11b136ea224fe,,,,,,,,,2171,68,-35,1,0,0,response3disk,,5,23,2,1,0,0,rectangle,23,2,1,0,0,23,2,1,0,0,1,39,199,159,1,,,,,,,,
,,,,,,,,,,,,,FF,,,,,,,,0.933,,,,,,,,,,,,,,,,,,,,,,60fd874909b4baa52c9c1c4a,61036f458ce0b5626cb1166a,2021-07-29_23h17.57.315,Simcolourproject_2stim_asymm_v5,2020.2.10,MacIntel,60,61025ae37ef11b136ea224fe,,,,,,,,,3948,64,26,1,0,0,response1disk,,6,13,0,1,0,0,rectangle,13,0,1,0,0,13,0,1,0,0,1,40,200,92,1,,,,,,,,
,,,,,,,,,,,,,FF,,,,,,,,1.866,,,,,,,,,,,,,,,,,,,,,,60fd874909b4baa52c9c1c4a,61036f458ce0b5626cb1166a,2021-07-29_23h17.57.315,Simcolourproject_2stim_asymm_v5,2020.2.10,MacIntel,60,61025ae37ef11b136ea224fe,,,,,,,,,3622,60,-25,1,0,0,response3disk,,5,17,8,1,0,0,rectangle,17,8,1,0,0,17,8,1,0,0,1,41,201,12,1,,,,,,,,
,,,,,,,,,,,,,FF,,,,,,,,0.85,,,,,,,,,,,,,,,,,,,,,,60fd874909b4baa52c9c1c4a,61036f458ce0b5626cb1166a,2021-07-29_23h17.57.315,Simcolourproject_2stim_asymm_v5,2020.2.10,MacIntel,60,61025ae37ef11b136ea224fe,,,,,,,,,2733,48,-20,1,0,0,response3disk,,5,11,1,1,0,0,rectangle,11,1,1,0,0,11,1,1,0,0,1,42,202,43,1,,,,,,,,
,,,,,,,,,,,,,FF,,,,,,,,0.833,,,,,,,,,,,,,,,,,,,,,,60fd874909b4baa52c9c1c4a,61036f458ce0b5626cb1166a,2021-07-29_23h17.57.315,Simcolourproject_2stim_asymm_v5,2020.2.10,MacIntel,60,61025ae37ef11b136ea224fe,,,,,,,,,2352,32,-74,1,0,0,response3disk,,4,4,15,1,0,0,rectangle,4,15,1,0,0,4,15,1,0,0,1,43,203,131,1,,,,,,,,
,,,,,,,,,,,,,FF,,,,,,,,1.484,,,,,,,,,,,,,,,,,,,,,,60fd874909b4baa52c9c1c4a,61036f458ce0b5626cb1166a,2021-07-29_23h17.57.315,Simcolourproject_2stim_asymm_v5,2020.2.10,MacIntel,60,61025ae37ef11b136ea224fe,,,,,,,,,3424,31,-48,1,0,0,response3disk,,4,1,6,1,0,0,rectangle,1,6,1,0,0,1,6,1,0,0,1,44,204,4,1,,,,,,,,
,,,,,,,,,,,,,FF,,,,,,,,0.815,,,,,,,,,,,,,,,,,,,,,,60fd874909b4baa52c9c1c4a,61036f458ce0b5626cb1166a,2021-07-29_23h17.57.315,Simcolourproject_2stim_asymm_v5,2020.2.10,MacIntel,60,61025ae37ef11b136ea224fe,,,,,,,,,2569,22,51,1,0,0,response1disk,,7,0,-2,1,0,0,rectangle,-87,-51,1,0,0,-2,12,1,0,0,1,45,205,16,1,,response5disk_3,TRUE,2,2,"[211,165,171,289,250,89,208,51,286,224,252,18,241,63,12,113,303,206,65,112]",1.649,rectangle
,,,,,,,,,,,,,FF,,,,,,,,1.801,,,,,,,,,,,,,,,,,,,,,,60fd874909b4baa52c9c1c4a,61036f458ce0b5626cb1166a,2021-07-29_23h17.57.315,Simcolourproject_2stim_asymm_v5,2020.2.10,MacIntel,60,61025ae37ef11b136ea224fe,,,,,,,,,453,57,-31,1,0,0,response3disk,,5,35,-3,1,0,0,rectangle,35,-3,1,0,0,35,-3,1,0,0,1,46,206,111,1,,,,,,,,
,,,,,,,,,,,,,FF,,,,,,,,1.134,,,,,,,,,,,,,,,,,,,,,,60fd874909b4baa52c9c1c4a,61036f458ce0b5626cb1166a,2021-07-29_23h17.57.315,Simcolourproject_2stim_asymm_v5,2020.2.10,MacIntel,60,61025ae37ef11b136ea224fe,,,,,,,,,3844,-30,-91,1,0,0,response5disk,,3,-11,-14,1,0,0,rectangle,53,100,1,0,0,14,12,1,0,0,1,47,207,150,1,,response1disk_3,TRUE,7,7,"[211,165,171,289,250,89,208,51,286,224,252,18,241,63,12,113,303,206,65,112]",2.15,rectangle
,,,,,,,,,,,,,FF,,,,,,,,2.466,,,,,,,,,,,,,,,,,,,,,,60fd874909b4baa52c9c1c4a,61036f458ce0b5626cb1166a,2021-07-29_23h17.57.315,Simcolourproject_2stim_asymm_v5,2020.2.10,MacIntel,60,61025ae37ef11b136ea224fe,,,,,,,,,2296,-99,-45,1,0,0,response5disk,,2,-23,-4,1,0,0,rectangle,-23,-4,1,0,0,-23,-4,1,0,0,1,48,208,71,1,,,,,,,,
,,,,,,,,,,,,,FF,,,,,,,,5.317,,,,,,,,,,,,,,,,,,,,,,60fd874909b4baa52c9c1c4a,61036f458ce0b5626cb1166a,2021-07-29_23h17.57.315,Simcolourproject_2stim_asymm_v5,2020.2.10,MacIntel,60,61025ae37ef11b136ea224fe,,,,,,,,,456,38,-61,1,0,0,response3disk,,4,5,6,1,0,0,rectangle,5,6,1,0,0,5,6,1,0,0,1,49,209,149,1,,,,,,,,
,,,,,,,,,,,,,FF,,,,,,,,1.366,,,,,,,,,,,,,,,,,,,,,,60fd874909b4baa52c9c1c4a,61036f458ce0b5626cb1166a,2021-07-29_23h17.57.315,Simcolourproject_2stim_asymm_v5,2020.2.10,MacIntel,60,61025ae37ef11b136ea224fe,,,,,,,,,1813,-53,-81,1,0,0,response5disk,,3,-10,-2,1,0,0,rectangle,-52,-81,1,0,0,-7,-11,1,0,0,1,50,210,103,1,,response5disk_3,TRUE,3,3,"[211,165,171,289,250,89,208,51,286,224,252,18,241,63,12,113,303,206,65,112]",3.098,rectangle
,,,,,,,,,,,,,FF,,,,,,,,1.266,,,,,,,,,,,,,,,,,,,,,,60fd874909b4baa52c9c1c4a,61036f458ce0b5626cb1166a,2021-07-29_23h17.57.315,Simcolourproject_2stim_asymm_v5,2020.2.10,MacIntel,60,61025ae37ef11b136ea224fe,,,,,,,,,2311,71,-30,1,0,0,response3disk,,5,31,-11,1,0,0,rectangle,31,-11,1,0,0,31,-11,1,0,0,1,51,211,2,1,,,,,,,,
,,,,,,,,,,,,,FF,,,,,,,,0.984,,,,,,,,,,,,,,,,,,,,,,60fd874909b4baa52c9c1c4a,61036f458ce0b5626cb1166a,2021-07-29_23h17.57.315,Simcolourproject_2stim_asymm_v5,2020.2.10,MacIntel,60,61025ae37ef11b136ea224fe,,,,,,,,,3851,-24,-69,1,0,0,response5disk,,3,-7,-15,1,0,0,rectangle,-7,-15,1,0,0,-7,-15,1,0,0,1,52,212,117,1,,,,,,,,
,,,,,,,,,,,,,FF,,,,,,,,1.283,,,,,,,,,,,,,,,,,,,,,,60fd874909b4baa52c9c1c4a,61036f458ce0b5626cb1166a,2021-07-29_23h17.57.315,Simcolourproject_2stim_asymm_v5,2020.2.10,MacIntel,60,61025ae37ef11b136ea224fe,,,,,,,,,1649,62,31,1,0,0,response1disk,,6,-1,8,1,0,0,rectangle,-1,8,1,0,0,-1,8,1,0,0,1,53,213,55,1,,,,,,,,
,,,,,,,,,,,,,FF,,,,,,,,0.916,,,,,,,,,,,,,,,,,,,,,,60fd874909b4baa52c9c1c4a,61036f458ce0b5626cb1166a,2021-07-29_23h17.57.315,Simcolourproject_2stim_asymm_v5,2020.2.10,MacIntel,60,61025ae37ef11b136ea224fe,,,,,,,,,822,-35,-74,1,0,0,response5disk,,3,-6,-7,1,0,0,rectangle,-6,-7,1,0,0,-6,-7,1,0,0,1,54,214,116,1,,,,,,,,
,,,,,,,,,,,,,FF,,,,,,,,0.849,,,,,,,,,,,,,,,,,,,,,,60fd874909b4baa52c9c1c4a,61036f458ce0b5626cb1166a,2021-07-29_23h17.57.315,Simcolourproject_2stim_asymm_v5,2020.2.10,MacIntel,60,61025ae37ef11b136ea224fe,,,,,,,,,175,-43,-53,1,0,0,response5disk,,3,-11,10,1,0,0,rectangle,-11,10,1,0,0,-11,10,1,0,0,1,55,215,130,1,,,,,,,,
,,,,,,,,,,,,,FF,,,,,,,,0.965,,,,,,,,,,,,,,,,,,,,,,60fd874909b4baa52c9c1c4a,61036f458ce0b5626cb1166a,2021-07-29_23h17.57.315,Simcolourproject_2stim_asymm_v5,2020.2.10,MacIntel,60,61025ae37ef11b136ea224fe,,,,,,,,,2965,28,60,1,0,0,response1disk,,7,7,-7,1,0,0,rectangle,7,-7,1,0,0,7,-7,1,0,0,1,56,216,77,1,,,,,,,,
,,,,,,,,,,,,,FF,,,,,,,,1,,,,,,,,,,,,,,,,,,,,,,60fd874909b4baa52c9c1c4a,61036f458ce0b5626cb1166a,2021-07-29_23h17.57.315,Simcolourproject_2stim_asymm_v5,2020.2.10,MacIntel,60,61025ae37ef11b136ea224fe,,,,,,,,,605,37,53,1,0,0,response1disk,,7,26,6,1,0,0,rectangle,26,6,1,0,0,26,6,1,0,0,1,57,217,76,1,,,,,,,,
,,,,,,,,,,,,,FF,,,,,,,,1.349,,,,,,,,,,,,,,,,,,,,,,60fd874909b4baa52c9c1c4a,61036f458ce0b5626cb1166a,2021-07-29_23h17.57.315,Simcolourproject_2stim_asymm_v5,2020.2.10,MacIntel,60,61025ae37ef11b136ea224fe,,,,,,,,,4085,37,-49,1,0,0,response3disk,,4,21,5,1,0,0,rectangle,21,5,1,0,0,21,5,1,0,0,1,58,218,141,1,,,,,,,,
,,,,,,,,,,,,,FF,,,,,,,,1.616,,,,,,,,,,,,,,,,,,,,,,60fd874909b4baa52c9c1c4a,61036f458ce0b5626cb1166a,2021-07-29_23h17.57.315,Simcolourproject_2stim_asymm_v5,2020.2.10,MacIntel,60,61025ae37ef11b136ea224fe,,,,,,,,,2385,74,35,1,0,0,response1disk,,6,14,-7,1,0,0,rectangle,14,-7,1,0,0,14,-7,1,0,0,1,59,219,147,1,,,,,,,,
,,,,,,,,,,,,,FF,,,,,,,,0.934,,,,,,,,,,,,,,,,,,,,,,60fd874909b4baa52c9c1c4a,61036f458ce0b5626cb1166a,2021-07-29_23h17.57.315,Simcolourproject_2stim_asymm_v5,2020.2.10,MacIntel,60,61025ae37ef11b136ea224fe,,,,,,,,,1167,31,59,1,0,0,response1disk,,7,1,4,1,0,0,rectangle,1,4,1,0,0,1,4,1,0,0,1,60,220,56,1,,,,,,,,
,,,,,,,,,,,,,FF,,,,,,,,0.899,,,,,,,,,,,,,,,,,,,,,,60fd874909b4baa52c9c1c4a,61036f458ce0b5626cb1166a,2021-07-29_23h17.57.315,Simcolourproject_2stim_asymm_v5,2020.2.10,MacIntel,60,61025ae37ef11b136ea224fe,,,,,,,,,4181,-38,72,1,0,0,response7disk,,0,0,0,1,0,0,rectangle,0,0,1,0,0,0,0,1,0,0,1,61,221,139,1,,,,,,,,
,,,,,,,,,,,,,FF,,,,,,,,1.283,,,,,,,,,,,,,,,,,,,,,,60fd874909b4baa52c9c1c4a,61036f458ce0b5626cb1166a,2021-07-29_23h17.57.315,Simcolourproject_2stim_asymm_v5,2020.2.10,MacIntel,60,61025ae37ef11b136ea224fe,,,,,,,,,3456,67,40,1,0,0,response1disk,,6,14,15,1,0,0,rectangle,14,15,1,0,0,14,15,1,0,0,1,62,222,38,1,,,,,,,,
,,,,,,,,,,,,,FF,,,,,,,,0.815,,,,,,,,,,,,,,,,,,,,,,60fd874909b4baa52c9c1c4a,61036f458ce0b5626cb1166a,2021-07-29_23h17.57.315,Simcolourproject_2stim_asymm_v5,2020.2.10,MacIntel,60,61025ae37ef11b136ea224fe,,,,,,,,,719,-55,28,1,0,0,response7disk,,1,-18,10,1,0,0,rectangle,-31,107,1,0,0,1,4,1,0,0,1,63,223,18,1,,response7disk_3,TRUE,0,0,"[211,165,171,289,250,89,208,51,286,224,252,18,241,63,12,113,303,206,65,112]",1.499,rectangle
,,,,,,,,,,,,,FF,,,,,,,,1.015,,,,,,,,,,,,,,,,,,,,,,60fd874909b4baa52c9c1c4a,61036f458ce0b5626cb1166a,2021-07-29_23h17.57.315,Simcolourproject_2stim_asymm_v5,2020.2.10,MacIntel,60,61025ae37ef11b136ea224fe,,,,,,,,,573,53,21,1,0,0,response1disk,,6,12,3,1,0,0,rectangle,12,3,1,0,0,12,3,1,0,0,1,64,224,3,1,,,,,,,,
,,,,,,,,,,,,,FF,,,,,,,,1.834,,,,,,,,,,,,,,,,,,,,,,60fd874909b4baa52c9c1c4a,61036f458ce0b5626cb1166a,2021-07-29_23h17.57.315,Simcolourproject_2stim_asymm_v5,2020.2.10,MacIntel,60,61025ae37ef11b136ea224fe,,,,,,,,,2986,-80,-29,1,0,0,response5disk,,2,-24,-15,1,0,0,rectangle,-24,-15,1,0,0,-24,-15,1,0,0,1,65,225,0,1,,,,,,,,
,,,,,,,,,,,,,FF,,,,,,,,1.299,,,,,,,,,,,,,,,,,,,,,,60fd874909b4baa52c9c1c4a,61036f458ce0b5626cb1166a,2021-07-29_23h17.57.315,Simcolourproject_2stim_asymm_v5,2020.2.10,MacIntel,60,61025ae37ef11b136ea224fe,,,,,,,,,3176,56,22,1,0,0,response1disk,,6,9,3,1,0,0,rectangle,9,3,1,0,0,9,3,1,0,0,1,66,226,37,1,,,,,,,,
,,,,,,,,,,,,,FF,,,,,,,,0.85,,,,,,,,,,,,,,,,,,,,,,60fd874909b4baa52c9c1c4a,61036f458ce0b5626cb1166a,2021-07-29_23h17.57.315,Simcolourproject_2stim_asymm_v5,2020.2.10,MacIntel,60,61025ae37ef11b136ea224fe,,,,,,,,,3573,55,80,1,0,0,response1disk,,7,-1,9,1,0,0,rectangle,-1,9,1,0,0,-1,9,1,0,0,1,67,227,155,1,,,,,,,,
,,,,,,,,,,,,,FF,,,,,,,,0.933,,,,,,,,,,,,,,,,,,,,,,60fd874909b4baa52c9c1c4a,61036f458ce0b5626cb1166a,2021-07-29_23h17.57.315,Simcolourproject_2stim_asymm_v5,2020.2.10,MacIntel,60,61025ae37ef11b136ea224fe,,,,,,,,,746,-26,-61,1,0,0,response5disk,,3,-7,-6,1,0,0,rectangle,-7,-6,1,0,0,-7,-6,1,0,0,1,68,228,80,1,,,,,,,,
,,,,,,,,,,,,,FF,,,,,,,,3.5,,,,,,,,,,,,,,,,,,,,,,60fd874909b4baa52c9c1c4a,61036f458ce0b5626cb1166a,2021-07-29_23h17.57.315,Simcolourproject_2stim_asymm_v5,2020.2.10,MacIntel,60,61025ae37ef11b136ea224fe,,,,,,,,,87,79,-35,1,0,0,response3disk,,5,3,-7,1,0,0,rectangle,3,-7,1,0,0,3,-7,1,0,0,1,69,229,127,1,,,,,,,,
,,,,,,,,,,,,,FF,,,,,,,,0.7,,,,,,,,,,,,,,,,,,,,,,60fd874909b4baa52c9c1c4a,61036f458ce0b5626cb1166a,2021-07-29_23h17.57.315,Simcolourproject_2stim_asymm_v5,2020.2.10,MacIntel,60,61025ae37ef11b136ea224fe,,,,,,,,,3067,58,-24,1,0,0,response3disk,,5,-2,-11,1,0,0,rectangle,-2,-11,1,0,0,-2,-11,1,0,0,1,70,230,31,1,,,,,,,,
,,,,,,,,,,,,,FF,,,,,,,,0.766,,,,,,,,,,,,,,,,,,,,,,60fd874909b4baa52c9c1c4a,61036f458ce0b5626cb1166a,2021-07-29_23h17.57.315,Simcolourproject_2stim_asymm_v5,2020.2.10,MacIntel,60,61025ae37ef11b136ea224fe,,,,,,,,,2486,-52,-65,1,0,0,response5disk,,3,-17,7,1,0,0,rectangle,-17,7,1,0,0,-17,7,1,0,0,1,71,231,106,1,,,,,,,,
,,,,,,,,,,,,,FF,,,,,,,,1.083,,,,,,,,,,,,,,,,,,,,,,60fd874909b4baa52c9c1c4a,61036f458ce0b5626cb1166a,2021-07-29_23h17.57.315,Simcolourproject_2stim_asymm_v5,2020.2.10,MacIntel,60,61025ae37ef11b136ea224fe,,,,,,,,,2957,96,29,1,0,0,response1disk,,6,7,10,1,0,0,rectangle,7,10,1,0,0,7,10,1,0,0,1,72,232,98,1,,,,,,,,
,,,,,,,,,,,,,FF,,,,,,,,0.7,,,,,,,,,,,,,,,,,,,,,,60fd874909b4baa52c9c1c4a,61036f458ce0b5626cb1166a,2021-07-29_23h17.57.315,Simcolourproject_2stim_asymm_v5,2020.2.10,MacIntel,60,61025ae37ef11b136ea224fe,,,,,,,,,2970,79,43,1,0,0,response1disk,,6,8,5,1,0,0,rectangle,8,5,1,0,0,8,5,1,0,0,1,73,233,82,1,,,,,,,,
,,,,,,,,,,,,,FF,,,,,,,,0.499,,,,,,,,,,,,,,,,,,,,,,60fd874909b4baa52c9c1c4a,61036f458ce0b5626cb1166a,2021-07-29_23h17.57.315,Simcolourproject_2stim_asymm_v5,2020.2.10,MacIntel,60,61025ae37ef11b136ea224fe,,,,,,,,,2530,72,41,1,0,0,response1disk,,6,1,-3,1,0,0,rectangle,1,-3,1,0,0,1,-3,1,0,0,1,74,234,87,1,,,,,,,,
,,,,,,,,,,,,,FF,,,,,,,,0.882,,,,,,,,,,,,,,,,,,,,,,60fd874909b4baa52c9c1c4a,61036f458ce0b5626cb1166a,2021-07-29_23h17.57.315,Simcolourproject_2stim_asymm_v5,2020.2.10,MacIntel,60,61025ae37ef11b136ea224fe,,,,,,,,,2723,-53,-52,1,0,0,response5disk,,2,-11,16,1,0,0,rectangle,-11,16,1,0,0,-11,16,1,0,0,1,75,235,79,1,,,,,,,,
,,,,,,,,,,,,,FF,,,,,,,,1.167,,,,,,,,,,,,,,,,,,,,,,60fd874909b4baa52c9c1c4a,61036f458ce0b5626cb1166a,2021-07-29_23h17.57.315,Simcolourproject_2stim_asymm_v5,2020.2.10,MacIntel,60,61025ae37ef11b136ea224fe,,,,,,,,,1524,-68,43,1,0,0,response7disk,,1,4,5,1,0,0,rectangle,4,5,1,0,0,4,5,1,0,0,1,76,236,94,1,,,,,,,,
,,,,,,,,,,,,,FF,,,,,,,,0.766,,,,,,,,,,,,,,,,,,,,,,60fd874909b4baa52c9c1c4a,61036f458ce0b5626cb1166a,2021-07-29_23h17.57.315,Simcolourproject_2stim_asymm_v5,2020.2.10,MacIntel,60,61025ae37ef11b136ea224fe,,,,,,,,,901,-44,-66,1,0,0,response5disk,,3,-9,-14,1,0,0,rectangle,-9,-14,1,0,0,-9,-14,1,0,0,1,77,237,70,1,,,,,,,,
,,,,,,,,,,,,,FF,,,,,,,,2.833,,,,,,,,,,,,,,,,,,,,,,60fd874909b4baa52c9c1c4a,61036f458ce0b5626cb1166a,2021-07-29_23h17.57.315,Simcolourproject_2stim_asymm_v5,2020.2.10,MacIntel,60,61025ae37ef11b136ea224fe,,,,,,,,,1335,71,34,1,0,0,response1disk,,6,-17,-10,1,0,0,rectangle,-17,-10,1,0,0,-17,-10,1,0,0,1,78,238,32,1,,,,,,,,
,,,,,,,,,,,,,FF,,,,,,,,1.215,,,,,,,,,,,,,,,,,,,,,,60fd874909b4baa52c9c1c4a,61036f458ce0b5626cb1166a,2021-07-29_23h17.57.315,Simcolourproject_2stim_asymm_v5,2020.2.10,MacIntel,60,61025ae37ef11b136ea224fe,,,,,,,,,991,30,-76,1,0,0,response3disk,,4,9,2,1,0,0,rectangle,9,2,1,0,0,9,2,1,0,0,1,79,239,1,1,,,,,,,,
,,,,,,,,,,,,,FF,,,,,,,,1.082,,,,,,,,,,,,,,,,,,,,,,60fd874909b4baa52c9c1c4a,61036f458ce0b5626cb1166a,2021-07-29_23h17.57.315,Simcolourproject_2stim_asymm_v5,2020.2.10,MacIntel,60,61025ae37ef11b136ea224fe,,,,,,,,,3240,-68,-37,1,0,0,response5disk,,2,15,10,1,0,0,rectangle,-28,78,1,0,0,-5,-6,1,0,0,1,80,240,50,1,,response7disk_3,TRUE,0,0,"[211,165,171,289,250,89,208,51,286,224,252,18,241,63,12,113,303,206,65,112]",2.349,rectangle
,,,,,,,,,,,,,FF,,,,,,,,0.883,,,,,,,,,,,,,,,,,,,,,,60fd874909b4baa52c9c1c4a,61036f458ce0b5626cb1166a,2021-07-29_23h17.57.315,Simcolourproject_2stim_asymm_v5,2020.2.10,MacIntel,60,61025ae37ef11b136ea224fe,,,,,,,,,1519,33,-64,1,0,0,response3disk,,4,23,-2,1,0,0,rectangle,23,-2,1,0,0,23,-2,1,0,0,1,81,241,104,1,,,,,,,,
,,,,,,,,,,,,,FF,,,,,,,,0.9,,,,,,,,,,,,,,,,,,,,,,60fd874909b4baa52c9c1c4a,61036f458ce0b5626cb1166a,2021-07-29_23h17.57.315,Simcolourproject_2stim_asymm_v5,2020.2.10,MacIntel,60,61025ae37ef11b136ea224fe,,,,,,,,,1098,78,49,1,0,0,response1disk,,6,14,5,1,0,0,rectangle,14,5,1,0,0,14,5,1,0,0,1,82,242,15,1,,,,,,,,
,,,,,,,,,,,,,FF,,,,,,,,1.566,,,,,,,,,,,,,,,,,,,,,,60fd874909b4baa52c9c1c4a,61036f458ce0b5626cb1166a,2021-07-29_23h17.57.315,Simcolourproject_2stim_asymm_v5,2020.2.10,MacIntel,60,61025ae37ef11b136ea224fe,,,,,,,,,3486,70,29,1,0,0,response1disk,,6,13,7,1,0,0,rectangle,13,7,1,0,0,13,7,1,0,0,1,83,243,40,1,,,,,,,,
,,,,,,,,,,,,,FF,,,,,,,,0.633,,,,,,,,,,,,,,,,,,,,,,60fd874909b4baa52c9c1c4a,61036f458ce0b5626cb1166a,2021-07-29_23h17.57.315,Simcolourproject_2stim_asymm_v5,2020.2.10,MacIntel,60,61025ae37ef11b136ea224fe,,,,,,,,,3827,68,-40,1,0,0,response3disk,,5,26,2,1,0,0,rectangle,26,2,1,0,0,26,2,1,0,0,1,84,244,63,1,,,,,,,,
,,,,,,,,,,,,,FF,,,,,,,,0.716,,,,,,,,,,,,,,,,,,,,,,60fd874909b4baa52c9c1c4a,61036f458ce0b5626cb1166a,2021-07-29_23h17.57.315,Simcolourproject_2stim_asymm_v5,2020.2.10,MacIntel,60,61025ae37ef11b136ea224fe,,,,,,,,,1168,79,-44,1,0,0,response3disk,,5,18,17,1,0,0,rectangle,18,17,1,0,0,18,17,1,0,0,1,85,245,13,1,,,,,,,,
,,,,,,,,,,,,,FF,,,,,,,,0.983,,,,,,,,,,,,,,,,,,,,,,60fd874909b4baa52c9c1c4a,61036f458ce0b5626cb1166a,2021-07-29_23h17.57.315,Simcolourproject_2stim_asymm_v5,2020.2.10,MacIntel,60,61025ae37ef11b136ea224fe,,,,,,,,,1967,-30,-64,1,0,0,response5disk,,3,-7,10,1,0,0,rectangle,-7,10,1,0,0,-7,10,1,0,0,1,86,246,95,1,,,,,,,,
,,,,,,,,,,,,,FF,,,,,,,,0.749,,,,,,,,,,,,,,,,,,,,,,60fd874909b4baa52c9c1c4a,61036f458ce0b5626cb1166a,2021-07-29_23h17.57.315,Simcolourproject_2stim_asymm_v5,2020.2.10,MacIntel,60,61025ae37ef11b136ea224fe,,,,,,,,,1163,78,40,1,0,0,response1disk,,6,11,10,1,0,0,rectangle,11,10,1,0,0,11,10,1,0,0,1,87,247,107,1,,,,,,,,
,,,,,,,,,,,,,FF,,,,,,,,0.949,,,,,,,,,,,,,,,,,,,,,,60fd874909b4baa52c9c1c4a,61036f458ce0b5626cb1166a,2021-07-29_23h17.57.315,Simcolourproject_2stim_asymm_v5,2020.2.10,MacIntel,60,61025ae37ef11b136ea224fe,,,,,,,,,1075,61,46,1,0,0,response1disk,,6,1,5,1,0,0,rectangle,1,5,1,0,0,1,5,1,0,0,1,88,248,9,1,,,,,,,,
,,,,,,,,,,,,,FF,,,,,,,,0.9,,,,,,,,,,,,,,,,,,,,,,60fd874909b4baa52c9c1c4a,61036f458ce0b5626cb1166a,2021-07-29_23h17.57.315,Simcolourproject_2stim_asymm_v5,2020.2.10,MacIntel,60,61025ae37ef11b136ea224fe,,,,,,,,,2700,76,41,1,0,0,response1disk,,6,9,8,1,0,0,rectangle,-66,33,1,0,0,-3,11,1,0,0,1,89,249,49,1,,response7disk_3,TRUE,1,1,"[211,165,171,289,250,89,208,51,286,224,252,18,241,63,12,113,303,206,65,112]",1.415,rectangle
,,,,,,,,,,,,,FF,,,,,,,,1.449,,,,,,,,,,,,,,,,,,,,,,60fd874909b4baa52c9c1c4a,61036f458ce0b5626cb1166a,2021-07-29_23h17.57.315,Simcolourproject_2stim_asymm_v5,2020.2.10,MacIntel,60,61025ae37ef11b136ea224fe,,,,,,,,,617,-37,-61,1,0,0,response5disk,,3,-14,-7,1,0,0,rectangle,-14,-7,1,0,0,-14,-7,1,0,0,1,90,250,73,1,,,,,,,,
,,,,,,,,,,,,,FF,,,,,,,,0.966,,,,,,,,,,,,,,,,,,,,,,60fd874909b4baa52c9c1c4a,61036f458ce0b5626cb1166a,2021-07-29_23h17.57.315,Simcolourproject_2stim_asymm_v5,2020.2.10,MacIntel,60,61025ae37ef11b136ea224fe,,,,,,,,,2312,29,-59,1,0,0,response3disk,,4,13,-16,1,0,0,rectangle,71,43,1,0,0,5,-10,1,0,0,1,91,251,19,1,,response1disk_3,TRUE,6,6,"[211,165,171,289,250,89,208,51,286,224,252,18,241,63,12,113,303,206,65,112]",2.849,rectangle
,,,,,,,,,,,,,FF,,,,,,,,1.919,,,,,,,,,,,,,,,,,,,,,,60fd874909b4baa52c9c1c4a,61036f458ce0b5626cb1166a,2021-07-29_23h17.57.315,Simcolourproject_2stim_asymm_v5,2020.2.10,MacIntel,60,61025ae37ef11b136ea224fe,,,,,,,,,2842,-28,-62,1,0,0,response5disk,,3,-13,3,1,0,0,rectangle,-13,3,1,0,0,-13,3,1,0,0,1,92,252,69,1,,,,,,,,
,,,,,,,,,,,,,FF,,,,,,,,0.849,,,,,,,,,,,,,,,,,,,,,,60fd874909b4baa52c9c1c4a,61036f458ce0b5626cb1166a,2021-07-29_23h17.57.315,Simcolourproject_2stim_asymm_v5,2020.2.10,MacIntel,60,61025ae37ef11b136ea224fe,,,,,,,,,3780,-68,-23,1,0,0,response5disk,,2,-2,7,1,0,0,rectangle,-2,7,1,0,0,-2,7,1,0,0,1,93,253,83,1,,,,,,,,
,,,,,,,,,,,,,FF,,,,,,,,0.766,,,,,,,,,,,,,,,,,,,,,,60fd874909b4baa52c9c1c4a,61036f458ce0b5626cb1166a,2021-07-29_23h17.57.315,Simcolourproject_2stim_asymm_v5,2020.2.10,MacIntel,60,61025ae37ef11b136ea224fe,,,,,,,,,2305,-68,-45,1,0,0,response5disk,,2,3,2,1,0,0,rectangle,3,2,1,0,0,3,2,1,0,0,1,94,254,62,1,,,,,,,,
,,,,,,,,,,,,,FF,,,,,,,,0.867,,,,,,,,,,,,,,,,,,,,,,60fd874909b4baa52c9c1c4a,61036f458ce0b5626cb1166a,2021-07-29_23h17.57.315,Simcolourproject_2stim_asymm_v5,2020.2.10,MacIntel,60,61025ae37ef11b136ea224fe,,,,,,,,,1745,-54,40,1,0,0,response7disk,,1,-6,0,1,0,0,rectangle,-6,0,1,0,0,-6,0,1,0,0,1,95,255,14,1,,,,,,,,
,,,,,,,,,,,,,FF,,,,,,,,0.85,,,,,,,,,,,,,,,,,,,,,,60fd874909b4baa52c9c1c4a,61036f458ce0b5626cb1166a,2021-07-29_23h17.57.315,Simcolourproject_2stim_asymm_v5,2020.2.10,MacIntel,60,61025ae37ef11b136ea224fe,,,,,,,,,4106,-62,-39,1,0,0,response5disk,,2,-18,-15,1,0,0,rectangle,-18,-15,1,0,0,-18,-15,1,0,0,1,96,256,34,1,,,,,,,,
,,,,,,,,,,,,,FF,,,,,,,,0.482,,,,,,,,,,,,,,,,,,,,,,60fd874909b4baa52c9c1c4a,61036f458ce0b5626cb1166a,2021-07-29_23h17.57.315,Simcolourproject_2stim_asymm_v5,2020.2.10,MacIntel,60,61025ae37ef11b136ea224fe,,,,,,,,,3910,-66,-29,1,0,0,response5disk,,2,-16,-13,1,0,0,rectangle,-16,-13,1,0,0,-16,-13,1,0,0,1,97,257,128,1,,,,,,,,
,,,,,,,,,,,,,FF,,,,,,,,0.666,,,,,,,,,,,,,,,,,,,,,,60fd874909b4baa52c9c1c4a,61036f458ce0b5626cb1166a,2021-07-29_23h17.57.315,Simcolourproject_2stim_asymm_v5,2020.2.10,MacIntel,60,61025ae37ef11b136ea224fe,,,,,,,,,714,37,-61,1,0,0,response3disk,,4,13,-1,1,0,0,rectangle,13,-1,1,0,0,13,-1,1,0,0,1,98,258,120,1,,,,,,,,
,,,,,,,,,,,,,FF,,,,,,,,1.232,,,,,,,,,,,,,,,,,,,,,,60fd874909b4baa52c9c1c4a,61036f458ce0b5626cb1166a,2021-07-29_23h17.57.315,Simcolourproject_2stim_asymm_v5,2020.2.10,MacIntel,60,61025ae37ef11b136ea224fe,,,,,,,,,3759,24,57,1,0,0,response1disk,,7,6,-1,1,0,0,rectangle,6,-1,1,0,0,6,-1,1,0,0,1,99,259,36,1,,,,,,,,
,,,,,,,,,,,,,FF,,,,,,,,0.882,,,,,,,,,,,,,,,,,,,,,,60fd874909b4baa52c9c1c4a,61036f458ce0b5626cb1166a,2021-07-29_23h17.57.315,Simcolourproject_2stim_asymm_v5,2020.2.10,MacIntel,60,61025ae37ef11b136ea224fe,,,,,,,,,2532,68,-29,1,0,0,response3disk,,5,14,-11,1,0,0,rectangle,14,-11,1,0,0,14,-11,1,0,0,1,100,260,45,1,,,,,,,,
,,,,,,,,,,,,,FF,,,,,,,,0.7,,,,,,,,,,,,,,,,,,,,,,60fd874909b4baa52c9c1c4a,61036f458ce0b5626cb1166a,2021-07-29_23h17.57.315,Simcolourproject_2stim_asymm_v5,2020.2.10,MacIntel,60,61025ae37ef11b136ea224fe,,,,,,,,,1211,-29,68,1,0,0,response7disk,,0,-6,8,1,0,0,rectangle,-6,8,1,0,0,-6,8,1,0,0,1,101,261,11,1,,,,,,,,
,,,,,,,,,,,,,FF,,,,,,,,2.382,,,,,,,,,,,,,,,,,,,,,,60fd874909b4baa52c9c1c4a,61036f458ce0b5626cb1166a,2021-07-29_23h17.57.315,Simcolourproject_2stim_asymm_v5,2020.2.10,MacIntel,60,61025ae37ef11b136ea224fe,,,,,,,,,1049,38,-73,1,0,0,response3disk,,4,24,-11,1,0,0,rectangle,24,-11,1,0,0,24,-11,1,0,0,1,102,262,112,1,,,,,,,,
,,,,,,,,,,,,,FF,,,,,,,,2.949,,,,,,,,,,,,,,,,,,,,,,60fd874909b4baa52c9c1c4a,61036f458ce0b5626cb1166a,2021-07-29_23h17.57.315,Simcolourproject_2stim_asymm_v5,2020.2.10,MacIntel,60,61025ae37ef11b136ea224fe,,,,,,,,,1125,78,-68,1,0,0,response3disk,,5,12,-5,1,0,0,rectangle,12,-5,1,0,0,12,-5,1,0,0,1,103,263,118,1,,,,,,,,
,,,,,,,,,,,,,FF,,,,,,,,0.883,,,,,,,,,,,,,,,,,,,,,,60fd874909b4baa52c9c1c4a,61036f458ce0b5626cb1166a,2021-07-29_23h17.57.315,Simcolourproject_2stim_asymm_v5,2020.2.10,MacIntel,60,61025ae37ef11b136ea224fe,,,,,,,,,1869,75,38,1,0,0,response1disk,,6,19,0,1,0,0,rectangle,19,0,1,0,0,19,0,1,0,0,1,104,264,108,1,,,,,,,,
,,,,,,,,,,,,,FF,,,,,,,,1.016,,,,,,,,,,,,,,,,,,,,,,60fd874909b4baa52c9c1c4a,61036f458ce0b5626cb1166a,2021-07-29_23h17.57.315,Simcolourproject_2stim_asymm_v5,2020.2.10,MacIntel,60,61025ae37ef11b136ea224fe,,,,,,,,,612,-33,-51,1,0,0,response5disk,,3,1,1,1,0,0,rectangle,1,1,1,0,0,1,1,1,0,0,1,105,265,51,1,,,,,,,,
,,,,,,,,,,,,,FF,,,,,,,,1.149,,,,,,,,,,,,,,,,,,,,,,60fd874909b4baa52c9c1c4a,61036f458ce0b5626cb1166a,2021-07-29_23h17.57.315,Simcolourproject_2stim_asymm_v5,2020.2.10,MacIntel,60,61025ae37ef11b136ea224fe,,,,,,,,,2607,-65,-29,1,0,0,response5disk,,2,5,4,1,0,0,rectangle,5,4,1,0,0,5,4,1,0,0,1,106,266,86,1,,,,,,,,
,,,,,,,,,,,,,FF,,,,,,,,0.95,,,,,,,,,,,,,,,,,,,,,,60fd874909b4baa52c9c1c4a,61036f458ce0b5626cb1166a,2021-07-29_23h17.57.315,Simcolourproject_2stim_asymm_v5,2020.2.10,MacIntel,60,61025ae37ef11b136ea224fe,,,,,,,,,517,70,-70,1,0,0,response3disk,,5,6,-12,1,0,0,rectangle,6,-12,1,0,0,6,-12,1,0,0,1,107,267,47,1,,,,,,,,
,,,,,,,,,,,,,FF,,,,,,,,0.746,,,,,,,,,,,,,,,,,,,,,,60fd874909b4baa52c9c1c4a,61036f458ce0b5626cb1166a,2021-07-29_23h17.57.315,Simcolourproject_2stim_asymm_v5,2020.2.10,MacIntel,60,61025ae37ef11b136ea224fe,,,,,,,,,2602,37,-83,1,0,0,response3disk,,4,13,-7,1,0,0,rectangle,13,-7,1,0,0,13,-7,1,0,0,1,108,268,23,1,,,,,,,,
,,,,,,,,,,,,,FF,,,,,,,,0.683,,,,,,,,,,,,,,,,,,,,,,60fd874909b4baa52c9c1c4a,61036f458ce0b5626cb1166a,2021-07-29_23h17.57.315,Simcolourproject_2stim_asymm_v5,2020.2.10,MacIntel,60,61025ae37ef11b136ea224fe,,,,,,,,,821,41,-61,1,0,0,response3disk,,4,19,-4,1,0,0,rectangle,19,-4,1,0,0,19,-4,1,0,0,1,109,269,33,1,,,,,,,,
,,,,,,,,,,,,,FF,,,,,,,,1.067,,,,,,,,,,,,,,,,,,,,,,60fd874909b4baa52c9c1c4a,61036f458ce0b5626cb1166a,2021-07-29_23h17.57.315,Simcolourproject_2stim_asymm_v5,2020.2.10,MacIntel,60,61025ae37ef11b136ea224fe,,,,,,,,,1431,-34,-72,1,0,0,response5disk,,3,16,12,1,0,0,rectangle,16,12,1,0,0,16,12,1,0,0,1,110,270,54,1,,,,,,,,
,,,,,,,,,,,,,FF,,,,,,,,0.916,,,,,,,,,,,,,,,,,,,,,,60fd874909b4baa52c9c1c4a,61036f458ce0b5626cb1166a,2021-07-29_23h17.57.315,Simcolourproject_2stim_asymm_v5,2020.2.10,MacIntel,60,61025ae37ef11b136ea224fe,,,,,,,,,1014,95,48,1,0,0,response1disk,,6,22,3,1,0,0,rectangle,22,3,1,0,0,22,3,1,0,0,1,111,271,61,1,,,,,,,,
,,,,,,,,,,,,,FF,,,,,,,,0.865,,,,,,,,,,,,,,,,,,,,,,60fd874909b4baa52c9c1c4a,61036f458ce0b5626cb1166a,2021-07-29_23h17.57.315,Simcolourproject_2stim_asymm_v5,2020.2.10,MacIntel,60,61025ae37ef11b136ea224fe,,,,,,,,,1173,80,-48,1,0,0,response3disk,,5,8,14,1,0,0,rectangle,8,14,1,0,0,8,14,1,0,0,1,112,272,60,1,,,,,,,,
,,,,,,,,,,,,,FF,,,,,,,,0.633,,,,,,,,,,,,,,,,,,,,,,60fd874909b4baa52c9c1c4a,61036f458ce0b5626cb1166a,2021-07-29_23h17.57.315,Simcolourproject_2stim_asymm_v5,2020.2.10,MacIntel,60,61025ae37ef11b136ea224fe,,,,,,,,,2853,68,-40,1,0,0,response3disk,,5,20,-15,1,0,0,rectangle,20,-15,1,0,0,20,-15,1,0,0,1,113,273,113,1,,,,,,,,
,,,,,,,,,,,,,FF,,,,,,,,1.099,,,,,,,,,,,,,,,,,,,,,,60fd874909b4baa52c9c1c4a,61036f458ce0b5626cb1166a,2021-07-29_23h17.57.315,Simcolourproject_2stim_asymm_v5,2020.2.10,MacIntel,60,61025ae37ef11b136ea224fe,,,,,,,,,2267,19,53,1,0,0,response1disk,,7,7,16,1,0,0,rectangle,7,16,1,0,0,7,16,1,0,0,1,114,274,100,1,,,,,,,,
,,,,,,,,,,,,,FF,,,,,,,,1.633,,,,,,,,,,,,,,,,,,,,,,60fd874909b4baa52c9c1c4a,61036f458ce0b5626cb1166a,2021-07-29_23h17.57.315,Simcolourproject_2stim_asymm_v5,2020.2.10,MacIntel,60,61025ae37ef11b136ea224fe,,,,,,,,,2682,84,48,1,0,0,response1disk,,6,3,7,1,0,0,rectangle,3,7,1,0,0,3,7,1,0,0,1,115,275,65,1,,,,,,,,
,,,,,,,,,,,,,FF,,,,,,,,2.516,,,,,,,,,,,,,,,,,,,,,,60fd874909b4baa52c9c1c4a,61036f458ce0b5626cb1166a,2021-07-29_23h17.57.315,Simcolourproject_2stim_asymm_v5,2020.2.10,MacIntel,60,61025ae37ef11b136ea224fe,,,,,,,,,4179,64,35,1,0,0,response1disk,,6,18,9,1,0,0,rectangle,18,9,1,0,0,18,9,1,0,0,1,116,276,99,1,,,,,,,,
,,,,,,,,,,,,,FF,,,,,,,,2.599,,,,,,,,,,,,,,,,,,,,,,60fd874909b4baa52c9c1c4a,61036f458ce0b5626cb1166a,2021-07-29_23h17.57.315,Simcolourproject_2stim_asymm_v5,2020.2.10,MacIntel,60,61025ae37ef11b136ea224fe,,,,,,,,,4297,77,-36,1,0,0,response3disk,,5,27,-17,1,0,0,rectangle,27,-17,1,0,0,27,-17,1,0,0,1,117,277,126,1,,,,,,,,
,,,,,,,,,,,,,FF,,,,,,,,1.266,,,,,,,,,,,,,,,,,,,,,,60fd874909b4baa52c9c1c4a,61036f458ce0b5626cb1166a,2021-07-29_23h17.57.315,Simcolourproject_2stim_asymm_v5,2020.2.10,MacIntel,60,61025ae37ef11b136ea224fe,,,,,,,,,3235,37,-85,1,0,0,response3disk,,4,12,-18,1,0,0,rectangle,12,-18,1,0,0,12,-18,1,0,0,1,118,278,91,1,,,,,,,,
,,,,,,,,,,,,,FF,,,,,,,,0.967,,,,,,,,,,,,,,,,,,,,,,60fd874909b4baa52c9c1c4a,61036f458ce0b5626cb1166a,2021-07-29_23h17.57.315,Simcolourproject_2stim_asymm_v5,2020.2.10,MacIntel,60,61025ae37ef11b136ea224fe,,,,,,,,,4026,38,81,1,0,0,response1disk,,7,11,4,1,0,0,rectangle,11,4,1,0,0,11,4,1,0,0,1,119,279,138,1,,,,,,,,
,,,,,,,,,,,,,FF,,,,,,,,1.851,,,,,,,,,,,,,,,,,,,,,,60fd874909b4baa52c9c1c4a,61036f458ce0b5626cb1166a,2021-07-29_23h17.57.315,Simcolourproject_2stim_asymm_v5,2020.2.10,MacIntel,60,61025ae37ef11b136ea224fe,,,,,,,,,3809,86,52,1,0,0,response1disk,,6,4,5,1,0,0,rectangle,4,5,1,0,0,4,5,1,0,0,1,120,280,122,1,,,,,,,,
,,,,,,,,,,,,,FF,,,,,,,,1.5,,,,,,,,,,,,,,,,,,,,,,60fd874909b4baa52c9c1c4a,61036f458ce0b5626cb1166a,2021-07-29_23h17.57.315,Simcolourproject_2stim_asymm_v5,2020.2.10,MacIntel,60,61025ae37ef11b136ea224fe,,,,,,,,,2590,90,54,1,0,0,response1disk,,6,6,-6,1,0,0,rectangle,6,-6,1,0,0,6,-6,1,0,0,1,121,281,132,1,,,,,,,,
,,,,,,,,,,,,,FF,,,,,,,,1.299,,,,,,,,,,,,,,,,,,,,,,60fd874909b4baa52c9c1c4a,61036f458ce0b5626cb1166a,2021-07-29_23h17.57.315,Simcolourproject_2stim_asymm_v5,2020.2.10,MacIntel,60,61025ae37ef11b136ea224fe,,,,,,,,,681,32,79,1,0,0,response1disk,,7,19,1,1,0,0,rectangle,19,1,1,0,0,19,1,1,0,0,1,122,282,28,1,,,,,,,,
,,,,,,,,,,,,,FF,,,,,,,,0.916,,,,,,,,,,,,,,,,,,,,,,60fd874909b4baa52c9c1c4a,61036f458ce0b5626cb1166a,2021-07-29_23h17.57.315,Simcolourproject_2stim_asymm_v5,2020.2.10,MacIntel,60,61025ae37ef11b136ea224fe,,,,,,,,,4022,-34,-52,1,0,0,response5disk,,3,10,3,1,0,0,rectangle,10,3,1,0,0,10,3,1,0,0,1,123,283,158,1,,,,,,,,
,,,,,,,,,,,,,FF,,,,,,,,0.915,,,,,,,,,,,,,,,,,,,,,,60fd874909b4baa52c9c1c4a,61036f458ce0b5626cb1166a,2021-07-29_23h17.57.315,Simcolourproject_2stim_asymm_v5,2020.2.10,MacIntel,60,61025ae37ef11b136ea224fe,,,,,,,,,1515,-39,-81,1,0,0,response5disk,,3,0,-8,1,0,0,rectangle,0,-8,1,0,0,0,-8,1,0,0,1,124,284,25,1,,,,,,,,
,,,,,,,,,,,,,FF,,,,,,,,0.849,,,,,,,,,,,,,,,,,,,,,,60fd874909b4baa52c9c1c4a,61036f458ce0b5626cb1166a,2021-07-29_23h17.57.315,Simcolourproject_2stim_asymm_v5,2020.2.10,MacIntel,60,61025ae37ef11b136ea224fe,,,,,,,,,2829,-33,-84,1,0,0,response5disk,,3,8,-1,1,0,0,rectangle,41,82,1,0,0,-7,12,1,0,0,1,125,285,53,1,,response1disk_3,TRUE,7,7,"[211,165,171,289,250,89,208,51,286,224,252,18,241,63,12,113,303,206,65,112]",2.5,rectangle
,,,,,,,,,,,,,FF,,,,,,,,2.583,,,,,,,,,,,,,,,,,,,,,,60fd874909b4baa52c9c1c4a,61036f458ce0b5626cb1166a,2021-07-29_23h17.57.315,Simcolourproject_2stim_asymm_v5,2020.2.10,MacIntel,60,61025ae37ef11b136ea224fe,,,,,,,,,4062,26,-66,1,0,0,response3disk,,4,13,13,1,0,0,rectangle,13,13,1,0,0,13,13,1,0,0,1,126,286,66,1,,,,,,,,
,,,,,,,,,,,,,FF,,,,,,,,1.032,,,,,,,,,,,,,,,,,,,,,,60fd874909b4baa52c9c1c4a,61036f458ce0b5626cb1166a,2021-07-29_23h17.57.315,Simcolourproject_2stim_asymm_v5,2020.2.10,MacIntel,60,61025ae37ef11b136ea224fe,,,,,,,,,3913,-59,-39,1,0,0,response5disk,,2,-19,-6,1,0,0,rectangle,-19,-6,1,0,0,-19,-6,1,0,0,1,127,287,21,1,,,,,,,,
,,,,,,,,,,,,,FF,,,,,,,,1.2,,,,,,,,,,,,,,,,,,,,,,60fd874909b4baa52c9c1c4a,61036f458ce0b5626cb1166a,2021-07-29_23h17.57.315,Simcolourproject_2stim_asymm_v5,2020.2.10,MacIntel,60,61025ae37ef11b136ea224fe,,,,,,,,,830,-73,-45,1,0,0,response5disk,,2,-27,-5,1,0,0,rectangle,78,-40,1,0,0,7,1,1,0,0,1,128,288,78,1,,response3disk_3,TRUE,5,5,"[211,165,171,289,250,89,208,51,286,224,252,18,241,63,12,113,303,206,65,112]",2.799,rectangle
,,,,,,,,,,,,,FF,,,,,,,,1.716,,,,,,,,,,,,,,,,,,,,,,60fd874909b4baa52c9c1c4a,61036f458ce0b5626cb1166a,2021-07-29_23h17.57.315,Simcolourproject_2stim_asymm_v5,2020.2.10,MacIntel,60,61025ae37ef11b136ea224fe,,,,,,,,,1038,-41,-62,1,0,0,response5disk,,3,-13,-2,1,0,0,rectangle,-13,-2,1,0,0,-13,-2,1,0,0,1,129,289,6,1,,,,,,,,
,,,,,,,,,,,,,FF,,,,,,,,1.133,,,,,,,,,,,,,,,,,,,,,,60fd874909b4baa52c9c1c4a,61036f458ce0b5626cb1166a,2021-07-29_23h17.57.315,Simcolourproject_2stim_asymm_v5,2020.2.10,MacIntel,60,61025ae37ef11b136ea224fe,,,,,,,,,2389,42,59,1,0,0,response1disk,,7,16,-8,1,0,0,rectangle,16,-8,1,0,0,16,-8,1,0,0,1,130,290,22,1,,,,,,,,
,,,,,,,,,,,,,FF,,,,,,,,0.933,,,,,,,,,,,,,,,,,,,,,,60fd874909b4baa52c9c1c4a,61036f458ce0b5626cb1166a,2021-07-29_23h17.57.315,Simcolourproject_2stim_asymm_v5,2020.2.10,MacIntel,60,61025ae37ef11b136ea224fe,,,,,,,,,62,35,58,1,0,0,response1disk,,7,23,17,1,0,0,rectangle,23,17,1,0,0,23,17,1,0,0,1,131,291,59,1,,,,,,,,
,,,,,,,,,,,,,FF,,,,,,,,0.95,,,,,,,,,,,,,,,,,,,,,,60fd874909b4baa52c9c1c4a,61036f458ce0b5626cb1166a,2021-07-29_23h17.57.315,Simcolourproject_2stim_asymm_v5,2020.2.10,MacIntel,60,61025ae37ef11b136ea224fe,,,,,,,,,1664,70,-16,1,0,0,response3disk,,5,18,-12,1,0,0,rectangle,18,-12,1,0,0,18,-12,1,0,0,1,132,292,17,1,,,,,,,,
,,,,,,,,,,,,,FF,,,,,,,,1.716,,,,,,,,,,,,,,,,,,,,,,60fd874909b4baa52c9c1c4a,61036f458ce0b5626cb1166a,2021-07-29_23h17.57.315,Simcolourproject_2stim_asymm_v5,2020.2.10,MacIntel,60,61025ae37ef11b136ea224fe,,,,,,,,,86,24,30,1,0,0,response1disk,,7,9,-6,1,0,0,rectangle,9,-6,1,0,0,9,-6,1,0,0,1,133,293,35,1,,,,,,,,
,,,,,,,,,,,,,FF,,,,,,,,1.066,,,,,,,,,,,,,,,,,,,,,,60fd874909b4baa52c9c1c4a,61036f458ce0b5626cb1166a,2021-07-29_23h17.57.315,Simcolourproject_2stim_asymm_v5,2020.2.10,MacIntel,60,61025ae37ef11b136ea224fe,,,,,,,,,3212,41,-65,1,0,0,response3disk,,4,35,-16,1,0,0,rectangle,35,-16,1,0,0,35,-16,1,0,0,1,134,294,42,1,,,,,,,,
,,,,,,,,,,,,,FF,,,,,,,,1.301,,,,,,,,,,,,,,,,,,,,,,60fd874909b4baa52c9c1c4a,61036f458ce0b5626cb1166a,2021-07-29_23h17.57.315,Simcolourproject_2stim_asymm_v5,2020.2.10,MacIntel,60,61025ae37ef11b136ea224fe,,,,,,,,,2900,-51,-71,1,0,0,response5disk,,3,-10,7,1,0,0,rectangle,-10,7,1,0,0,-10,7,1,0,0,1,135,295,143,1,,,,,,,,
,,,,,,,,,,,,,FF,,,,,,,,1.065,,,,,,,,,,,,,,,,,,,,,,60fd874909b4baa52c9c1c4a,61036f458ce0b5626cb1166a,2021-07-29_23h17.57.315,Simcolourproject_2stim_asymm_v5,2020.2.10,MacIntel,60,61025ae37ef11b136ea224fe,,,,,,,,,363,61,-59,1,0,0,response3disk,,5,4,-14,1,0,0,rectangle,4,-14,1,0,0,4,-14,1,0,0,1,136,296,129,1,,,,,,,,
,,,,,,,,,,,,,FF,,,,,,,,0.766,,,,,,,,,,,,,,,,,,,,,,60fd874909b4baa52c9c1c4a,61036f458ce0b5626cb1166a,2021-07-29_23h17.57.315,Simcolourproject_2stim_asymm_v5,2020.2.10,MacIntel,60,61025ae37ef11b136ea224fe,,,,,,,,,2683,74,-31,1,0,0,response3disk,,5,27,-10,1,0,0,rectangle,27,-10,1,0,0,27,-10,1,0,0,1,137,297,8,1,,,,,,,,
,,,,,,,,,,,,,FF,,,,,,,,0.85,,,,,,,,,,,,,,,,,,,,,,60fd874909b4baa52c9c1c4a,61036f458ce0b5626cb1166a,2021-07-29_23h17.57.315,Simcolourproject_2stim_asymm_v5,2020.2.10,MacIntel,60,61025ae37ef11b136ea224fe,,,,,,,,,1825,-29,-53,1,0,0,response5disk,,3,2,3,1,0,0,rectangle,2,3,1,0,0,2,3,1,0,0,1,138,298,102,1,,,,,,,,
,,,,,,,,,,,,,FF,,,,,,,,1.016,,,,,,,,,,,,,,,,,,,,,,60fd874909b4baa52c9c1c4a,61036f458ce0b5626cb1166a,2021-07-29_23h17.57.315,Simcolourproject_2stim_asymm_v5,2020.2.10,MacIntel,60,61025ae37ef11b136ea224fe,,,,,,,,,4091,76,39,1,0,0,response1disk,,6,23,16,1,0,0,rectangle,23,16,1,0,0,23,16,1,0,0,1,139,299,20,1,,,,,,,,
