key_resp.keys,key_resp.rt,key_resp_14.keys,key_resp_14.rt,key_resp_15.keys,key_resp_15.rt,key_resp_17.keys,key_resp_17.rt,key_resp_9.keys,key_resp_9.rt,key_resp_10.keys,key_resp_10.rt,practice_comparison,Ecc,mouse_5.x,mouse_5.y,mouse_5.leftButton,mouse_5.midButton,mouse_5.rightButton,mouse_5.clicked_name,pracsimilarity,response_time,mouse_10.x,mouse_10.y,mouse_10.leftButton,mouse_10.midButton,mouse_10.rightButton,mouse_10.clicked_name,mouse_7.x,mouse_7.y,mouse_7.leftButton,mouse_7.midButton,mouse_7.rightButton,mouse_6.x,mouse_6.y,mouse_6.leftButton,mouse_6.midButton,mouse_6.rightButton,duringprac.thisRepN,duringprac.thisTrialN,duringprac.thisN,duringprac.thisIndex,duringprac.ran,participant,session,date,expName,psychopyVersion,OS,frameRate,study_id,mouse_7.clicked_name,catchpracsimilarity,catch_response_time,catchnumberprac,catchtrialorderprac,mouse_6.clicked_name,key_resp_22.keys,key_resp_22.rt,realcomparison,mouse.x,mouse.y,mouse.leftButton,mouse.midButton,mouse.rightButton,mouse.clicked_name,Colour2,similarity,mouse_2.x,mouse_2.y,mouse_2.leftButton,mouse_2.midButton,mouse_2.rightButton,mouse_2.clicked_name,mouse_3.x,mouse_3.y,mouse_3.leftButton,mouse_3.midButton,mouse_3.rightButton,mouse_11.x,mouse_11.y,mouse_11.leftButton,mouse_11.midButton,mouse_11.rightButton,trials_2.thisRepN,trials_2.thisTrialN,trials_2.thisN,trials_2.thisIndex,trials_2.ran,Colour1,mouse_3.clicked_name,catchornah,catchsimilarity,catchnumber,catchtrialorder,catchRT,mouse_11.clicked_name
space,3.5137,space,9.6073,space,37.7088,space,4.8837,space,1.5839,space,4.5564,127,FF,-43.33331555,81.99999171,1,0,0,response7disk_5,0,4.0127,-2.666606983,-2.666677475,1,0,0,rectangle_8,-2.666606983,-2.666677475,1,0,0,-2.666606983,-2.666677475,1,0,0,0,0,0,5,1,60fd025b3771dba1f0c29671,61036c8e2e04dc1b32ea0d49,2021-07-29_21h07.00.564,Simcolourproject_2stim_asymm_v5,2020.2.10,Win32,60,61025ae37ef11b136ea224fe,,,,,,,,,,,,,,,,,,,,,,,,,,,,,,,,,,,,,,,,,,,,,,
,,,,,,,,,,,,58,PF,50.66668725,-56.66667908,1,0,0,response3disk_5,4,27.4419,-9.999981225,3.333322704,1,0,0,rectangle_8,34.00002009,-92.00001347,1,0,0,-9.333314538,3.99998939,1,0,0,0,1,1,1,1,60fd025b3771dba1f0c29671,61036c8e2e04dc1b32ea0d49,2021-07-29_21h07.00.564,Simcolourproject_2stim_asymm_v5,2020.2.10,Win32,60,61025ae37ef11b136ea224fe,response3disk_7,4,2.7166,4,"[2,5]",rectangle_4,,,,,,,,,,,,,,,,,,,,,,,,,,,,,,,,,,,,,,,,
,,,,,,,,,,,,0,PF,69.33335447,43.33330355,1,0,0,response1disk_5,6,46.8997,-2.666606983,-1.07288E-05,1,0,0,rectangle_8,-2.666606983,-1.07288E-05,1,0,0,-2.666606983,-1.07288E-05,1,0,0,0,2,2,4,1,60fd025b3771dba1f0c29671,61036c8e2e04dc1b32ea0d49,2021-07-29_21h07.00.564,Simcolourproject_2stim_asymm_v5,2020.2.10,Win32,60,61025ae37ef11b136ea224fe,,,,,,,,,,,,,,,,,,,,,,,,,,,,,,,,,,,,,,,,,,,,,,
,,,,,,,,,,,,39,PF,89.33335507,30.66665685,1,0,0,response1disk_5,6,4.267,-14.66660734,-10.66667771,1,0,0,rectangle_8,-14.66660734,-10.66667771,1,0,0,-14.66660734,-10.66667771,1,0,0,0,3,3,6,1,60fd025b3771dba1f0c29671,61036c8e2e04dc1b32ea0d49,2021-07-29_21h07.00.564,Simcolourproject_2stim_asymm_v5,2020.2.10,Win32,60,61025ae37ef11b136ea224fe,,,,,,,,,,,,,,,,,,,,,,,,,,,,,,,,,,,,,,,,,,,,,,
,,,,,,,,,,,,131,FF,-72.66660907,-32.66667837,1,0,0,response5disk_5,2,2.2156,4.666685879,-6.000010908,1,0,0,rectangle_8,14.00001949,-60.6666792,1,0,0,-3.333314359,-2.666677475,1,0,0,0,4,4,3,1,60fd025b3771dba1f0c29671,61036c8e2e04dc1b32ea0d49,2021-07-29_21h07.00.564,Simcolourproject_2stim_asymm_v5,2020.2.10,Win32,60,61025ae37ef11b136ea224fe,response3disk_7,4,1.949,4,"[2,5]",rectangle_4,,,,,,,,,,,,,,,,,,,,,,,,,,,,,,,,,,,,,,,,
,,,,,,,,,,,,106,FF,-57.33331597,-36.0000118,1,0,0,response5disk_5,2,7.3642,-1.999980986,2.666656017,1,0,0,rectangle_8,-1.999980986,2.666656017,1,0,0,-1.999980986,2.666656017,1,0,0,0,5,5,0,1,60fd025b3771dba1f0c29671,61036c8e2e04dc1b32ea0d49,2021-07-29_21h07.00.564,Simcolourproject_2stim_asymm_v5,2020.2.10,Win32,60,61025ae37ef11b136ea224fe,,,,,,,,,,,,,,,,,,,,,,,,,,,,,,,,,,,,,,,,,,,,,,
,,,,,,,,,,,,24,PF,78.0000214,35.33330331,1,0,0,response1disk_5,6,2.8825,-1.999980986,2.666656017,1,0,0,rectangle_8,-1.999980986,2.666656017,1,0,0,-1.999980986,2.666656017,1,0,0,0,6,6,2,1,60fd025b3771dba1f0c29671,61036c8e2e04dc1b32ea0d49,2021-07-29_21h07.00.564,Simcolourproject_2stim_asymm_v5,2020.2.10,Win32,60,61025ae37ef11b136ea224fe,,,,,,,,,,,,,,,,,,,,,,,,,,,,,,,,,,,,,,,,,,,,,,
,,,,,,,,,,,,,FF,,,,,,,,2.4819,,,,,,,,,,,,,,,,,,,,,,60fd025b3771dba1f0c29671,61036c8e2e04dc1b32ea0d49,2021-07-29_21h07.00.564,Simcolourproject_2stim_asymm_v5,2020.2.10,Win32,60,61025ae37ef11b136ea224fe,,,,,,,space,2.87,2844,-31.99998188,-57.33334577,1,0,0,response5disk,,3,-0.666606923,7.333322823,1,0,0,rectangle,-0.666606923,7.333322823,1,0,0,-0.666606923,7.333322823,1,0,0,0,0,0,8,1,,,,,,,,
,,,,,,,,,,,,,FF,,,,,,,,3.9641,,,,,,,,,,,,,,,,,,,,,,60fd025b3771dba1f0c29671,61036c8e2e04dc1b32ea0d49,2021-07-29_21h07.00.564,Simcolourproject_2stim_asymm_v5,2020.2.10,Win32,60,61025ae37ef11b136ea224fe,,,,,,,,,767,46.66668713,76.66665822,1,0,0,response1disk,,7,2.000019133,2.666656017,1,0,0,rectangle,2.000019133,2.666656017,1,0,0,2.000019133,2.666656017,1,0,0,0,1,1,91,1,,,,,,,,
,,,,,,,,,,,,,FF,,,,,,,,4.0979,,,,,,,,,,,,,,,,,,,,,,60fd025b3771dba1f0c29671,61036c8e2e04dc1b32ea0d49,2021-07-29_21h07.00.564,Simcolourproject_2stim_asymm_v5,2020.2.10,Win32,60,61025ae37ef11b136ea224fe,,,,,,,,,2509,74.00002128,-28.66667825,1,0,0,response3disk,,5,-11.3333146,1.999989331,1,0,0,rectangle,-11.3333146,1.999989331,1,0,0,-11.3333146,1.999989331,1,0,0,0,2,2,144,1,,,,,,,,
,,,,,,,,,,,,,FF,,,,,,,,2.9543,,,,,,,,,,,,,,,,,,,,,,60fd025b3771dba1f0c29671,61036c8e2e04dc1b32ea0d49,2021-07-29_21h07.00.564,Simcolourproject_2stim_asymm_v5,2020.2.10,Win32,60,61025ae37ef11b136ea224fe,,,,,,,,,1687,-77.33331656,27.33330307,1,0,0,response7disk,,1,-2.666606983,1.999989331,1,0,0,rectangle,-2.666606983,1.999989331,1,0,0,-2.666606983,1.999989331,1,0,0,0,3,3,30,1,,,,,,,,
,,,,,,,,,,,,,FF,,,,,,,,2.5122,,,,,,,,,,,,,,,,,,,,,,60fd025b3771dba1f0c29671,61036c8e2e04dc1b32ea0d49,2021-07-29_21h07.00.564,Simcolourproject_2stim_asymm_v5,2020.2.10,Win32,60,61025ae37ef11b136ea224fe,,,,,,,,,1714,65.33335435,28.66665679,1,0,0,response1disk,,6,3.333393196,0.666655958,1,0,0,rectangle,3.333393196,0.666655958,1,0,0,3.333393196,0.666655958,1,0,0,0,4,4,79,1,,,,,,,,
,,,,,,,,,,,,,FF,,,,,,,,1.4702,,,,,,,,,,,,,,,,,,,,,,60fd025b3771dba1f0c29671,61036c8e2e04dc1b32ea0d49,2021-07-29_21h07.00.564,Simcolourproject_2stim_asymm_v5,2020.2.10,Win32,60,61025ae37ef11b136ea224fe,,,,,,,,,2564,59.33335418,-22.00001138,1,0,0,response3disk,,5,2.66668582,3.99998939,1,0,0,rectangle,2.66668582,3.99998939,1,0,0,2.66668582,3.99998939,1,0,0,0,5,5,129,1,,,,,,,,
,,,,,,,,,,,,,FF,,,,,,,,6.3638,,,,,,,,,,,,,,,,,,,,,,60fd025b3771dba1f0c29671,61036c8e2e04dc1b32ea0d49,2021-07-29_21h07.00.564,Simcolourproject_2stim_asymm_v5,2020.2.10,Win32,60,61025ae37ef11b136ea224fe,,,,,,,,,3618,68.0000211,34.66665697,1,0,0,response1disk,,6,-13.33331466,-0.666677415,1,0,0,rectangle,-13.33331466,-0.666677415,1,0,0,-13.33331466,-0.666677415,1,0,0,0,6,6,63,1,,,,,,,,
,,,,,,,,,,,,,FF,,,,,,,,2.5993,,,,,,,,,,,,,,,,,,,,,,60fd025b3771dba1f0c29671,61036c8e2e04dc1b32ea0d49,2021-07-29_21h07.00.564,Simcolourproject_2stim_asymm_v5,2020.2.10,Win32,60,61025ae37ef11b136ea224fe,,,,,,,,,1048,54.66668737,-72.66667956,1,0,0,response3disk,,4,-0.666606923,7.333322823,1,0,0,rectangle,-0.666606923,7.333322823,1,0,0,-0.666606923,7.333322823,1,0,0,0,7,7,18,1,,,,,,,,
,,,,,,,,,,,,,FF,,,,,,,,3.0868,,,,,,,,,,,,,,,,,,,,,,60fd025b3771dba1f0c29671,61036c8e2e04dc1b32ea0d49,2021-07-29_21h07.00.564,Simcolourproject_2stim_asymm_v5,2020.2.10,Win32,60,61025ae37ef11b136ea224fe,,,,,,,,,474,75.33335465,-25.33334482,1,0,0,response3disk,,5,-3.999981046,-4.000010848,1,0,0,rectangle,-3.999981046,-4.000010848,1,0,0,-3.999981046,-4.000010848,1,0,0,0,8,8,109,1,,,,,,,,
,,,,,,,,,,,,,FF,,,,,,,,2.1045,,,,,,,,,,,,,,,,,,,,,,60fd025b3771dba1f0c29671,61036c8e2e04dc1b32ea0d49,2021-07-29_21h07.00.564,Simcolourproject_2stim_asymm_v5,2020.2.10,Win32,60,61025ae37ef11b136ea224fe,,,,,,,,,111,74.00002128,-37.33334517,1,0,0,response3disk,,5,1.333393137,-3.333344162,1,0,0,rectangle,1.333393137,-3.333344162,1,0,0,1.333393137,-3.333344162,1,0,0,0,9,9,53,1,,,,,,,,
,,,,,,,,,,,,,FF,,,,,,,,2.3996,,,,,,,,,,,,,,,,,,,,,,60fd025b3771dba1f0c29671,61036c8e2e04dc1b32ea0d49,2021-07-29_21h07.00.564,Simcolourproject_2stim_asymm_v5,2020.2.10,Win32,60,61025ae37ef11b136ea224fe,,,,,,,,,693,-61.33331609,-40.00001192,1,0,0,response5disk,,2,-3.999981046,1.999989331,1,0,0,rectangle,26.66668653,66.66665792,1,0,0,-3.999981046,0.666655958,1,0,0,0,10,10,27,1,,response1disk_3,TRUE,7,7,"[138,67,282,248,226,241,102,58,17,53,268,135,257,289,248,244,11,49,63,20]",2.2157,rectangle
,,,,,,,,,,,,,FF,,,,,,,,2.8168,,,,,,,,,,,,,,,,,,,,,,60fd025b3771dba1f0c29671,61036c8e2e04dc1b32ea0d49,2021-07-29_21h07.00.564,Simcolourproject_2stim_asymm_v5,2020.2.10,Win32,60,61025ae37ef11b136ea224fe,,,,,,,,,2951,-36.666608,-52.00001228,1,0,0,response5disk,,3,3.333393196,3.99998939,1,0,0,rectangle,3.333393196,3.99998939,1,0,0,3.333393196,3.99998939,1,0,0,0,11,11,128,1,,,,,,,,
,,,,,,,,,,,,,FF,,,,,,,,4.5201,,,,,,,,,,,,,,,,,,,,,,60fd025b3771dba1f0c29671,61036c8e2e04dc1b32ea0d49,2021-07-29_21h07.00.564,Simcolourproject_2stim_asymm_v5,2020.2.10,Win32,60,61025ae37ef11b136ea224fe,,,,,,,,,42,81.33335483,-45.33334541,1,0,0,response3disk,,5,-4.666607042,2.666656017,1,0,0,rectangle,-4.666607042,2.666656017,1,0,0,-4.666607042,2.666656017,1,0,0,0,12,12,45,1,,,,,,,,
,,,,,,,,,,,,,FF,,,,,,,,1.2848,,,,,,,,,,,,,,,,,,,,,,60fd025b3771dba1f0c29671,61036c8e2e04dc1b32ea0d49,2021-07-29_21h07.00.564,Simcolourproject_2stim_asymm_v5,2020.2.10,Win32,60,61025ae37ef11b136ea224fe,,,,,,,,,3602,-79.33331662,-30.66667831,1,0,0,response5disk,,2,4.000019193,3.99998939,1,0,0,rectangle,4.000019193,3.99998939,1,0,0,4.000019193,3.99998939,1,0,0,0,13,13,71,1,,,,,,,,
,,,,,,,,,,,,,FF,,,,,,,,2.0036,,,,,,,,,,,,,,,,,,,,,,60fd025b3771dba1f0c29671,61036c8e2e04dc1b32ea0d49,2021-07-29_21h07.00.564,Simcolourproject_2stim_asymm_v5,2020.2.10,Win32,60,61025ae37ef11b136ea224fe,,,,,,,,,2594,-69.33331633,-38.66667855,1,0,0,response5disk,,2,4.000019193,-0.666677415,1,0,0,rectangle,4.000019193,-0.666677415,1,0,0,4.000019193,-0.666677415,1,0,0,0,14,14,70,1,,,,,,,,
,,,,,,,,,,,,,FF,,,,,,,,1.5811,,,,,,,,,,,,,,,,,,,,,,60fd025b3771dba1f0c29671,61036c8e2e04dc1b32ea0d49,2021-07-29_21h07.00.564,Simcolourproject_2stim_asymm_v5,2020.2.10,Win32,60,61025ae37ef11b136ea224fe,,,,,,,,,3442,-61.33331609,21.99998993,1,0,0,response7disk,,1,-5.999981105,-3.333344162,1,0,0,rectangle,-5.999981105,-3.333344162,1,0,0,-5.999981105,-3.333344162,1,0,0,0,15,15,13,1,,,,,,,,
,,,,,,,,,,,,,FF,,,,,,,,2.1165,,,,,,,,,,,,,,,,,,,,,,60fd025b3771dba1f0c29671,61036c8e2e04dc1b32ea0d49,2021-07-29_21h07.00.564,Simcolourproject_2stim_asymm_v5,2020.2.10,Win32,60,61025ae37ef11b136ea224fe,,,,,,,,,1058,-78.66660925,35.99999034,1,0,0,response7disk,,1,-17.99998146,4.666656077,1,0,0,rectangle,84.00002158,39.99999046,1,0,0,-4.666607042,1.999989331,1,0,0,0,16,16,120,1,,response1disk_3,TRUE,6,6,"[138,67,282,248,226,241,102,58,17,53,268,135,257,289,248,244,11,49,63,20]",1.9302,rectangle
,,,,,,,,,,,,,FF,,,,,,,,2.8816,,,,,,,,,,,,,,,,,,,,,,60fd025b3771dba1f0c29671,61036c8e2e04dc1b32ea0d49,2021-07-29_21h07.00.564,Simcolourproject_2stim_asymm_v5,2020.2.10,Win32,60,61025ae37ef11b136ea224fe,,,,,,,,,2395,54.66668737,-82.00001317,1,0,0,response3disk,,4,-11.3333146,4.666656077,1,0,0,rectangle,-11.3333146,4.666656077,1,0,0,-11.3333146,4.666656077,1,0,0,0,17,17,59,1,,,,,,,,
,,,,,,,,,,,,,FF,,,,,,,,2.1965,,,,,,,,,,,,,,,,,,,,,,60fd025b3771dba1f0c29671,61036c8e2e04dc1b32ea0d49,2021-07-29_21h07.00.564,Simcolourproject_2stim_asymm_v5,2020.2.10,Win32,60,61025ae37ef11b136ea224fe,,,,,,,,,2474,-71.99998307,-35.33334512,1,0,0,response5disk,,2,1.333393137,5.99998945,1,0,0,rectangle,1.333393137,5.99998945,1,0,0,1.333393137,5.99998945,1,0,0,0,18,18,121,1,,,,,,,,
,,,,,,,,,,,,,FF,,,,,,,,2.4154,,,,,,,,,,,,,,,,,,,,,,60fd025b3771dba1f0c29671,61036c8e2e04dc1b32ea0d49,2021-07-29_21h07.00.564,Simcolourproject_2stim_asymm_v5,2020.2.10,Win32,60,61025ae37ef11b136ea224fe,,,,,,,,,1586,-47.33331567,-98.66668034,1,0,0,response5disk,,3,-7.333314478,-5.333344221,1,0,0,rectangle,84.00002158,-20.00001132,1,0,0,-15.9999814,10.66665626,1,0,0,0,19,19,135,1,,response3disk_3,TRUE,5,5,"[138,67,282,248,226,241,102,58,17,53,268,135,257,289,248,244,11,49,63,20]",2.3365,rectangle
,,,,,,,,,,,,,FF,,,,,,,,2.0541,,,,,,,,,,,,,,,,,,,,,,60fd025b3771dba1f0c29671,61036c8e2e04dc1b32ea0d49,2021-07-29_21h07.00.564,Simcolourproject_2stim_asymm_v5,2020.2.10,Win32,60,61025ae37ef11b136ea224fe,,,,,,,,,709,94.00002187,-52.66667897,1,0,0,response3disk,,5,-3.333314359,4.666656077,1,0,0,rectangle,-3.333314359,4.666656077,1,0,0,-3.333314359,4.666656077,1,0,0,0,20,20,66,1,,,,,,,,
,,,,,,,,,,,,,FF,,,,,,,,2.1321,,,,,,,,,,,,,,,,,,,,,,60fd025b3771dba1f0c29671,61036c8e2e04dc1b32ea0d49,2021-07-29_21h07.00.564,Simcolourproject_2stim_asymm_v5,2020.2.10,Win32,60,61025ae37ef11b136ea224fe,,,,,,,,,3496,28.66668659,-74.00001293,1,0,0,response3disk,,4,1.333393137,3.99998939,1,0,0,rectangle,1.333393137,3.99998939,1,0,0,1.333393137,3.99998939,1,0,0,0,21,21,141,1,,,,,,,,
,,,,,,,,,,,,,FF,,,,,,,,2.3504,,,,,,,,,,,,,,,,,,,,,,60fd025b3771dba1f0c29671,61036c8e2e04dc1b32ea0d49,2021-07-29_21h07.00.564,Simcolourproject_2stim_asymm_v5,2020.2.10,Win32,60,61025ae37ef11b136ea224fe,,,,,,,,,4317,-72.66660907,-41.33334529,1,0,0,response5disk,,2,5.333393256,5.333322763,1,0,0,rectangle,5.333393256,5.333322763,1,0,0,5.333393256,5.333322763,1,0,0,0,22,22,145,1,,,,,,,,
,,,,,,,,,,,,,FF,,,,,,,,2.1653,,,,,,,,,,,,,,,,,,,,,,60fd025b3771dba1f0c29671,61036c8e2e04dc1b32ea0d49,2021-07-29_21h07.00.564,Simcolourproject_2stim_asymm_v5,2020.2.10,Win32,60,61025ae37ef11b136ea224fe,,,,,,,,,4,-80.66660931,37.33330337,1,0,0,response7disk,,1,-17.99998146,6.666656137,1,0,0,rectangle,-17.99998146,6.666656137,1,0,0,-17.99998146,6.666656137,1,0,0,0,23,23,152,1,,,,,,,,
,,,,,,,,,,,,,FF,,,,,,,,2.5984,,,,,,,,,,,,,,,,,,,,,,60fd025b3771dba1f0c29671,61036c8e2e04dc1b32ea0d49,2021-07-29_21h07.00.564,Simcolourproject_2stim_asymm_v5,2020.2.10,Win32,60,61025ae37ef11b136ea224fe,,,,,,,,,4156,82.6666882,29.99999017,1,0,0,response1disk,,6,-6.666607102,-2.000010788,1,0,0,rectangle,-6.666607102,-2.000010788,1,0,0,-6.666607102,-2.000010788,1,0,0,0,24,24,76,1,,,,,,,,
,,,,,,,,,,,,,FF,,,,,,,,1.0676,,,,,,,,,,,,,,,,,,,,,,60fd025b3771dba1f0c29671,61036c8e2e04dc1b32ea0d49,2021-07-29_21h07.00.564,Simcolourproject_2stim_asymm_v5,2020.2.10,Win32,60,61025ae37ef11b136ea224fe,,,,,,,,,1618,-49.99998242,24.66665667,1,0,0,response7disk,,1,19.33339367,-1.333344102,1,0,0,rectangle,19.33339367,-1.333344102,1,0,0,19.33339367,-1.333344102,1,0,0,0,25,25,102,1,,,,,,,,
,,,,,,,,,,,,,FF,,,,,,,,1.8546,,,,,,,,,,,,,,,,,,,,,,60fd025b3771dba1f0c29671,61036c8e2e04dc1b32ea0d49,2021-07-29_21h07.00.564,Simcolourproject_2stim_asymm_v5,2020.2.10,Win32,60,61025ae37ef11b136ea224fe,,,,,,,,,1258,80.66668814,-41.33334529,1,0,0,response3disk,,5,-2.666606983,-1.333344102,1,0,0,rectangle,-2.666606983,-1.333344102,1,0,0,-2.666606983,-1.333344102,1,0,0,0,26,26,32,1,,,,,,,,
,,,,,,,,,,,,,FF,,,,,,,,1.9794,,,,,,,,,,,,,,,,,,,,,,60fd025b3771dba1f0c29671,61036c8e2e04dc1b32ea0d49,2021-07-29_21h07.00.564,Simcolourproject_2stim_asymm_v5,2020.2.10,Win32,60,61025ae37ef11b136ea224fe,,,,,,,,,2744,-37.99998206,-74.00001293,1,0,0,response5disk,,3,-7.999981165,-5.333344221,1,0,0,rectangle,-7.999981165,-5.333344221,1,0,0,-7.999981165,-5.333344221,1,0,0,0,27,27,67,1,,,,,,,,
,,,,,,,,,,,,,FF,,,,,,,,1.1005,,,,,,,,,,,,,,,,,,,,,,60fd025b3771dba1f0c29671,61036c8e2e04dc1b32ea0d49,2021-07-29_21h07.00.564,Simcolourproject_2stim_asymm_v5,2020.2.10,Win32,60,61025ae37ef11b136ea224fe,,,,,,,,,4129,-85.3333168,-46.66667879,1,0,0,response5disk,,2,-6.666607102,-2.666677475,1,0,0,rectangle,-6.666607102,-2.666677475,1,0,0,-6.666607102,-2.666677475,1,0,0,0,28,28,158,1,,,,,,,,
,,,,,,,,,,,,,FF,,,,,,,,1.954,,,,,,,,,,,,,,,,,,,,,,60fd025b3771dba1f0c29671,61036c8e2e04dc1b32ea0d49,2021-07-29_21h07.00.564,Simcolourproject_2stim_asymm_v5,2020.2.10,Win32,60,61025ae37ef11b136ea224fe,,,,,,,,,2369,-33.33331525,-63.33334595,1,0,0,response5disk,,3,6.666685939,7.333322823,1,0,0,rectangle,6.666685939,7.333322823,1,0,0,6.666685939,7.333322823,1,0,0,0,29,29,83,1,,,,,,,,
,,,,,,,,,,,,,FF,,,,,,,,1.248,,,,,,,,,,,,,,,,,,,,,,60fd025b3771dba1f0c29671,61036c8e2e04dc1b32ea0d49,2021-07-29_21h07.00.564,Simcolourproject_2stim_asymm_v5,2020.2.10,Win32,60,61025ae37ef11b136ea224fe,,,,,,,,,1756,-75.3333165,-30.66667831,1,0,0,response5disk,,2,-7.333314478,3.99998939,1,0,0,rectangle,-7.333314478,3.99998939,1,0,0,-7.333314478,3.99998939,1,0,0,0,30,30,48,1,,,,,,,,
,,,,,,,,,,,,,FF,,,,,,,,1.6334,,,,,,,,,,,,,,,,,,,,,,60fd025b3771dba1f0c29671,61036c8e2e04dc1b32ea0d49,2021-07-29_21h07.00.564,Simcolourproject_2stim_asymm_v5,2020.2.10,Win32,60,61025ae37ef11b136ea224fe,,,,,,,,,713,50.66668725,-88.00001335,1,0,0,response3disk,,4,0.66668576,5.333322763,1,0,0,rectangle,0.66668576,5.333322763,1,0,0,0.66668576,5.333322763,1,0,0,0,31,31,130,1,,,,,,,,
,,,,,,,,,,,,,FF,,,,,,,,5.6528,,,,,,,,,,,,,,,,,,,,,,60fd025b3771dba1f0c29671,61036c8e2e04dc1b32ea0d49,2021-07-29_21h07.00.564,Simcolourproject_2stim_asymm_v5,2020.2.10,Win32,60,61025ae37ef11b136ea224fe,,,,,,,,,3279,26.66668653,-58.00001246,1,0,0,response3disk,,4,6.000019252,5.333322763,1,0,0,rectangle,6.000019252,5.333322763,1,0,0,6.000019252,5.333322763,1,0,0,0,32,32,34,1,,,,,,,,
,,,,,,,,,,,,,FF,,,,,,,,1.4371,,,,,,,,,,,,,,,,,,,,,,60fd025b3771dba1f0c29671,61036c8e2e04dc1b32ea0d49,2021-07-29_21h07.00.564,Simcolourproject_2stim_asymm_v5,2020.2.10,Win32,60,61025ae37ef11b136ea224fe,,,,,,,,,3414,48.0000205,-58.66667914,1,0,0,response3disk,,4,9.333393375,-8.000010967,1,0,0,rectangle,9.333393375,-8.000010967,1,0,0,9.333393375,-8.000010967,1,0,0,0,33,33,116,1,,,,,,,,
,,,,,,,,,,,,,FF,,,,,,,,1.282,,,,,,,,,,,,,,,,,,,,,,60fd025b3771dba1f0c29671,61036c8e2e04dc1b32ea0d49,2021-07-29_21h07.00.564,Simcolourproject_2stim_asymm_v5,2020.2.10,Win32,60,61025ae37ef11b136ea224fe,,,,,,,,,830,-56.66660859,-87.33334666,1,0,0,response5disk,,3,2.66668582,3.99998939,1,0,0,rectangle,2.66668582,3.99998939,1,0,0,2.66668582,3.99998939,1,0,0,0,34,34,103,1,,,,,,,,
,,,,,,,,,,,,,FF,,,,,,,,2.7379,,,,,,,,,,,,,,,,,,,,,,60fd025b3771dba1f0c29671,61036c8e2e04dc1b32ea0d49,2021-07-29_21h07.00.564,Simcolourproject_2stim_asymm_v5,2020.2.10,Win32,60,61025ae37ef11b136ea224fe,,,,,,,,,2437,-28.66660776,-80.00001311,1,0,0,response5disk,,3,-8.666607161,1.999989331,1,0,0,rectangle,-8.666607161,1.999989331,1,0,0,-8.666607161,1.999989331,1,0,0,0,35,35,55,1,,,,,,,,
,,,,,,,,,,,,,FF,,,,,,,,1.4158,,,,,,,,,,,,,,,,,,,,,,60fd025b3771dba1f0c29671,61036c8e2e04dc1b32ea0d49,2021-07-29_21h07.00.564,Simcolourproject_2stim_asymm_v5,2020.2.10,Win32,60,61025ae37ef11b136ea224fe,,,,,,,,,2018,-49.99998242,-79.33334643,1,0,0,response5disk,,3,2.66668582,4.666656077,1,0,0,rectangle,2.66668582,4.666656077,1,0,0,2.66668582,4.666656077,1,0,0,0,36,36,134,1,,,,,,,,
,,,,,,,,,,,,,FF,,,,,,,,1.6154,,,,,,,,,,,,,,,,,,,,,,60fd025b3771dba1f0c29671,61036c8e2e04dc1b32ea0d49,2021-07-29_21h07.00.564,Simcolourproject_2stim_asymm_v5,2020.2.10,Win32,60,61025ae37ef11b136ea224fe,,,,,,,,,2072,76.66668802,44.66665727,1,0,0,response1disk,,6,6.000019252,-9.33334434,1,0,0,rectangle,6.000019252,-9.33334434,1,0,0,6.000019252,-9.33334434,1,0,0,0,37,37,14,1,,,,,,,,
,,,,,,,,,,,,,FF,,,,,,,,1.0993,,,,,,,,,,,,,,,,,,,,,,60fd025b3771dba1f0c29671,61036c8e2e04dc1b32ea0d49,2021-07-29_21h07.00.564,Simcolourproject_2stim_asymm_v5,2020.2.10,Win32,60,61025ae37ef11b136ea224fe,,,,,,,,,1,-61.33331609,32.66665691,1,0,0,response7disk,,1,-9.999981225,0.666655958,1,0,0,rectangle,-9.999981225,0.666655958,1,0,0,-9.999981225,0.666655958,1,0,0,0,38,38,133,1,,,,,,,,
,,,,,,,,,,,,,FF,,,,,,,,2.7998,,,,,,,,,,,,,,,,,,,,,,60fd025b3771dba1f0c29671,61036c8e2e04dc1b32ea0d49,2021-07-29_21h07.00.564,Simcolourproject_2stim_asymm_v5,2020.2.10,Win32,60,61025ae37ef11b136ea224fe,,,,,,,,,2153,-75.99998319,-45.33334541,1,0,0,response5disk,,2,-9.333314538,-3.333344162,1,0,0,rectangle,-9.333314538,-3.333344162,1,0,0,-9.333314538,-3.333344162,1,0,0,0,39,39,117,1,,,,,,,,
,,,,,,,,,,,,,FF,,,,,,,,2.9699,,,,,,,,,,,,,,,,,,,,,,60fd025b3771dba1f0c29671,61036c8e2e04dc1b32ea0d49,2021-07-29_21h07.00.564,Simcolourproject_2stim_asymm_v5,2020.2.10,Win32,60,61025ae37ef11b136ea224fe,,,,,,,,,2506,78.0000214,37.33330337,1,0,0,response1disk,,6,4.666685879,-1.07288E-05,1,0,0,rectangle,4.666685879,-1.07288E-05,1,0,0,4.666685879,-1.07288E-05,1,0,0,0,40,40,156,1,,,,,,,,
,,,,,,,,,,,,,FF,,,,,,,,1.672,,,,,,,,,,,,,,,,,,,,,,60fd025b3771dba1f0c29671,61036c8e2e04dc1b32ea0d49,2021-07-29_21h07.00.564,Simcolourproject_2stim_asymm_v5,2020.2.10,Win32,60,61025ae37ef11b136ea224fe,,,,,,,,,3311,45.33335376,-68.66667944,1,0,0,response3disk,,4,-1.3333143,3.333322704,1,0,0,rectangle,-1.3333143,3.333322704,1,0,0,-1.3333143,3.333322704,1,0,0,0,41,41,123,1,,,,,,,,
,,,,,,,,,,,,,FF,,,,,,,,2.9376,,,,,,,,,,,,,,,,,,,,,,60fd025b3771dba1f0c29671,61036c8e2e04dc1b32ea0d49,2021-07-29_21h07.00.564,Simcolourproject_2stim_asymm_v5,2020.2.10,Win32,60,61025ae37ef11b136ea224fe,,,,,,,,,987,36.66668683,-80.6666798,1,0,0,response3disk,,4,-1.3333143,5.99998945,1,0,0,rectangle,-1.3333143,5.99998945,1,0,0,-1.3333143,5.99998945,1,0,0,0,42,42,131,1,,,,,,,,
,,,,,,,,,,,,,FF,,,,,,,,2.5663,,,,,,,,,,,,,,,,,,,,,,60fd025b3771dba1f0c29671,61036c8e2e04dc1b32ea0d49,2021-07-29_21h07.00.564,Simcolourproject_2stim_asymm_v5,2020.2.10,Win32,60,61025ae37ef11b136ea224fe,,,,,,,,,2595,-45.9999823,-80.6666798,1,0,0,response5disk,,3,0.66668576,2.666656017,1,0,0,rectangle,0.66668576,2.666656017,1,0,0,0.66668576,2.666656017,1,0,0,0,43,43,1,1,,,,,,,,
,,,,,,,,,,,,,FF,,,,,,,,3.3319,,,,,,,,,,,,,,,,,,,,,,60fd025b3771dba1f0c29671,61036c8e2e04dc1b32ea0d49,2021-07-29_21h07.00.564,Simcolourproject_2stim_asymm_v5,2020.2.10,Win32,60,61025ae37ef11b136ea224fe,,,,,,,,,2640,69.33335447,-26.0000115,1,0,0,response3disk,,5,4.000019193,0.666655958,1,0,0,rectangle,4.000019193,0.666655958,1,0,0,4.000019193,0.666655958,1,0,0,0,44,44,47,1,,,,,,,,
,,,,,,,,,,,,,FF,,,,,,,,4.082,,,,,,,,,,,,,,,,,,,,,,60fd025b3771dba1f0c29671,61036c8e2e04dc1b32ea0d49,2021-07-29_21h07.00.564,Simcolourproject_2stim_asymm_v5,2020.2.10,Win32,60,61025ae37ef11b136ea224fe,,,,,,,,,2949,28.66668659,-60.6666792,1,0,0,response3disk,,4,-7.999981165,5.333322763,1,0,0,rectangle,-7.999981165,5.333322763,1,0,0,-7.999981165,5.333322763,1,0,0,0,45,45,115,1,,,,,,,,
,,,,,,,,,,,,,FF,,,,,,,,1.1358,,,,,,,,,,,,,,,,,,,,,,60fd025b3771dba1f0c29671,61036c8e2e04dc1b32ea0d49,2021-07-29_21h07.00.564,Simcolourproject_2stim_asymm_v5,2020.2.10,Win32,60,61025ae37ef11b136ea224fe,,,,,,,,,1300,-65.99998289,33.99999028,1,0,0,response7disk,,1,-0.666606923,-0.666677415,1,0,0,rectangle,-0.666606923,-0.666677415,1,0,0,-0.666606923,-0.666677415,1,0,0,0,46,46,157,1,,,,,,,,
,,,,,,,,,,,,,FF,,,,,,,,3.2505,,,,,,,,,,,,,,,,,,,,,,60fd025b3771dba1f0c29671,61036c8e2e04dc1b32ea0d49,2021-07-29_21h07.00.564,Simcolourproject_2stim_asymm_v5,2020.2.10,Win32,60,61025ae37ef11b136ea224fe,,,,,,,,,918,84.66668826,39.33330343,1,0,0,response1disk,,6,-9.333314538,-2.000010788,1,0,0,rectangle,-9.333314538,-2.000010788,1,0,0,-9.333314538,-2.000010788,1,0,0,0,47,47,56,1,,,,,,,,
,,,,,,,,,,,,,FF,,,,,,,,2.5155,,,,,,,,,,,,,,,,,,,,,,60fd025b3771dba1f0c29671,61036c8e2e04dc1b32ea0d49,2021-07-29_21h07.00.564,Simcolourproject_2stim_asymm_v5,2020.2.10,Win32,60,61025ae37ef11b136ea224fe,,,,,,,,,2406,74.00002128,-30.66667831,1,0,0,response3disk,,5,-7.999981165,0.666655958,1,0,0,rectangle,105.3333555,-55.33334571,1,0,0,-15.9999814,9.333322883,1,0,0,0,48,48,155,1,,response3disk_3,TRUE,5,5,"[138,67,282,248,226,241,102,58,17,53,268,135,257,289,248,244,11,49,63,20]",1.7496,rectangle
,,,,,,,,,,,,,FF,,,,,,,,1.038,,,,,,,,,,,,,,,,,,,,,,60fd025b3771dba1f0c29671,61036c8e2e04dc1b32ea0d49,2021-07-29_21h07.00.564,Simcolourproject_2stim_asymm_v5,2020.2.10,Win32,60,61025ae37ef11b136ea224fe,,,,,,,,,3107,-73.99998313,25.33330301,1,0,0,response7disk,,1,-3.999981046,-7.333344281,1,0,0,rectangle,-3.999981046,-7.333344281,1,0,0,-3.999981046,-7.333344281,1,0,0,0,49,49,118,1,,,,,,,,
,,,,,,,,,,,,,FF,,,,,,,,1.0542,,,,,,,,,,,,,,,,,,,,,,60fd025b3771dba1f0c29671,61036c8e2e04dc1b32ea0d49,2021-07-29_21h07.00.564,Simcolourproject_2stim_asymm_v5,2020.2.10,Win32,60,61025ae37ef11b136ea224fe,,,,,,,,,3555,-53.99998254,23.33330295,1,0,0,response7disk,,1,6.666685939,-6.666677594,1,0,0,rectangle,6.666685939,-6.666677594,1,0,0,6.666685939,-6.666677594,1,0,0,0,50,50,89,1,,,,,,,,
,,,,,,,,,,,,,FF,,,,,,,,1.9981,,,,,,,,,,,,,,,,,,,,,,60fd025b3771dba1f0c29671,61036c8e2e04dc1b32ea0d49,2021-07-29_21h07.00.564,Simcolourproject_2stim_asymm_v5,2020.2.10,Win32,60,61025ae37ef11b136ea224fe,,,,,,,,,432,-86.66660949,-42.00001198,1,0,0,response5disk,,2,4.666685879,1.999989331,1,0,0,rectangle,4.666685879,1.999989331,1,0,0,4.666685879,1.999989331,1,0,0,0,51,51,5,1,,,,,,,,
,,,,,,,,,,,,,FF,,,,,,,,1.5664,,,,,,,,,,,,,,,,,,,,,,60fd025b3771dba1f0c29671,61036c8e2e04dc1b32ea0d49,2021-07-29_21h07.00.564,Simcolourproject_2stim_asymm_v5,2020.2.10,Win32,60,61025ae37ef11b136ea224fe,,,,,,,,,1294,-61.99998277,35.33330331,1,0,0,response7disk,,1,1.333393137,-6.666677594,1,0,0,rectangle,60.00002086,41.99999052,1,0,0,9.333393375,8.666656196,1,0,0,0,52,52,69,1,,response1disk_3,TRUE,6,6,"[138,67,282,248,226,241,102,58,17,53,268,135,257,289,248,244,11,49,63,20]",3.8482,rectangle
,,,,,,,,,,,,,FF,,,,,,,,1.4539,,,,,,,,,,,,,,,,,,,,,,60fd025b3771dba1f0c29671,61036c8e2e04dc1b32ea0d49,2021-07-29_21h07.00.564,Simcolourproject_2stim_asymm_v5,2020.2.10,Win32,60,61025ae37ef11b136ea224fe,,,,,,,,,3269,74.00002128,-21.3333447,1,0,0,response3disk,,5,-4.666607042,9.333322883,1,0,0,rectangle,-4.666607042,9.333322883,1,0,0,-4.666607042,9.333322883,1,0,0,0,53,53,94,1,,,,,,,,
,,,,,,,,,,,,,FF,,,,,,,,0.9543,,,,,,,,,,,,,,,,,,,,,,60fd025b3771dba1f0c29671,61036c8e2e04dc1b32ea0d49,2021-07-29_21h07.00.564,Simcolourproject_2stim_asymm_v5,2020.2.10,Win32,60,61025ae37ef11b136ea224fe,,,,,,,,,4084,-69.99998301,34.66665697,1,0,0,response7disk,,1,-13.33331466,5.99998945,1,0,0,rectangle,-13.33331466,5.99998945,1,0,0,-13.33331466,5.99998945,1,0,0,0,54,54,78,1,,,,,,,,
,,,,,,,,,,,,,FF,,,,,,,,1.1499,,,,,,,,,,,,,,,,,,,,,,60fd025b3771dba1f0c29671,61036c8e2e04dc1b32ea0d49,2021-07-29_21h07.00.564,Simcolourproject_2stim_asymm_v5,2020.2.10,Win32,60,61025ae37ef11b136ea224fe,,,,,,,,,1398,-30.66660782,-44.00001204,1,0,0,response5disk,,3,-1.3333143,1.999989331,1,0,0,rectangle,-1.3333143,1.999989331,1,0,0,-1.3333143,1.999989331,1,0,0,0,55,55,4,1,,,,,,,,
,,,,,,,,,,,,,FF,,,,,,,,4.2829,,,,,,,,,,,,,,,,,,,,,,60fd025b3771dba1f0c29671,61036c8e2e04dc1b32ea0d49,2021-07-29_21h07.00.564,Simcolourproject_2stim_asymm_v5,2020.2.10,Win32,60,61025ae37ef11b136ea224fe,,,,,,,,,1091,68.0000211,45.33330361,1,0,0,response1disk,,6,-0.666606923,7.333322823,1,0,0,rectangle,-0.666606923,7.333322823,1,0,0,-0.666606923,7.333322823,1,0,0,0,56,56,111,1,,,,,,,,
,,,,,,,,,,,,,FF,,,,,,,,2.9037,,,,,,,,,,,,,,,,,,,,,,60fd025b3771dba1f0c29671,61036c8e2e04dc1b32ea0d49,2021-07-29_21h07.00.564,Simcolourproject_2stim_asymm_v5,2020.2.10,Win32,60,61025ae37ef11b136ea224fe,,,,,,,,,4289,56.66668743,60.66665775,1,0,0,response1disk,,7,2.000019133,4.666656077,1,0,0,rectangle,-30.66660782,-82.00001317,1,0,0,-5.333314419,3.99998939,1,0,0,0,57,57,2,1,,response5disk_3,TRUE,3,3,"[138,67,282,248,226,241,102,58,17,53,268,135,257,289,248,244,11,49,63,20]",2.2655,rectangle
,,,,,,,,,,,,,FF,,,,,,,,4.0988,,,,,,,,,,,,,,,,,,,,,,60fd025b3771dba1f0c29671,61036c8e2e04dc1b32ea0d49,2021-07-29_21h07.00.564,Simcolourproject_2stim_asymm_v5,2020.2.10,Win32,60,61025ae37ef11b136ea224fe,,,,,,,,,3806,-28.66660776,-68.66667944,1,0,0,response5disk,,3,2.000019133,-0.666677415,1,0,0,rectangle,2.000019133,-0.666677415,1,0,0,2.000019133,-0.666677415,1,0,0,0,58,58,154,1,,,,,,,,
,,,,,,,,,,,,,FF,,,,,,,,1.6001,,,,,,,,,,,,,,,,,,,,,,60fd025b3771dba1f0c29671,61036c8e2e04dc1b32ea0d49,2021-07-29_21h07.00.564,Simcolourproject_2stim_asymm_v5,2020.2.10,Win32,60,61025ae37ef11b136ea224fe,,,,,,,,,1873,65.33335435,-32.66667837,1,0,0,response3disk,,5,9.333393375,-6.000010908,1,0,0,rectangle,9.333393375,-6.000010908,1,0,0,9.333393375,-6.000010908,1,0,0,0,59,59,29,1,,,,,,,,
,,,,,,,,,,,,,FF,,,,,,,,1.1353,,,,,,,,,,,,,,,,,,,,,,60fd025b3771dba1f0c29671,61036c8e2e04dc1b32ea0d49,2021-07-29_21h07.00.564,Simcolourproject_2stim_asymm_v5,2020.2.10,Win32,60,61025ae37ef11b136ea224fe,,,,,,,,,3157,-55.9999826,-27.33334488,1,0,0,response5disk,,2,12.66668612,1.333322644,1,0,0,rectangle,12.66668612,1.333322644,1,0,0,12.66668612,1.333322644,1,0,0,0,60,60,19,1,,,,,,,,
,,,,,,,,,,,,,FF,,,,,,,,2.5373,,,,,,,,,,,,,,,,,,,,,,60fd025b3771dba1f0c29671,61036c8e2e04dc1b32ea0d49,2021-07-29_21h07.00.564,Simcolourproject_2stim_asymm_v5,2020.2.10,Win32,60,61025ae37ef11b136ea224fe,,,,,,,,,3451,14.00001949,-66.0000127,1,0,0,response3disk,,4,-14.66660734,4.666656077,1,0,0,rectangle,-14.66660734,4.666656077,1,0,0,-14.66660734,4.666656077,1,0,0,0,61,61,62,1,,,,,,,,
,,,,,,,,,,,,,FF,,,,,,,,1.5884,,,,,,,,,,,,,,,,,,,,,,60fd025b3771dba1f0c29671,61036c8e2e04dc1b32ea0d49,2021-07-29_21h07.00.564,Simcolourproject_2stim_asymm_v5,2020.2.10,Win32,60,61025ae37ef11b136ea224fe,,,,,,,,,272,58.0000208,-66.66667938,1,0,0,response3disk,,4,9.333393375,11.99998963,1,0,0,rectangle,33.33339409,-88.66668004,1,0,0,-1.3333143,6.666656137,1,0,0,0,62,62,95,1,,response3disk_3,TRUE,4,4,"[138,67,282,248,226,241,102,58,17,53,268,135,257,289,248,244,11,49,63,20]",1.8312,rectangle
,,,,,,,,,,,,,FF,,,,,,,,4.1826,,,,,,,,,,,,,,,,,,,,,,60fd025b3771dba1f0c29671,61036c8e2e04dc1b32ea0d49,2021-07-29_21h07.00.564,Simcolourproject_2stim_asymm_v5,2020.2.10,Win32,60,61025ae37ef11b136ea224fe,,,,,,,,,598,47.33335382,-55.33334571,1,0,0,response3disk,,4,4.666685879,-4.666677535,1,0,0,rectangle,4.666685879,-4.666677535,1,0,0,4.666685879,-4.666677535,1,0,0,0,63,63,139,1,,,,,,,,
,,,,,,,,,,,,,FF,,,,,,,,1.4162,,,,,,,,,,,,,,,,,,,,,,60fd025b3771dba1f0c29671,61036c8e2e04dc1b32ea0d49,2021-07-29_21h07.00.564,Simcolourproject_2stim_asymm_v5,2020.2.10,Win32,60,61025ae37ef11b136ea224fe,,,,,,,,,2237,-91.99998367,51.33330379,1,0,0,response7disk,,1,-17.33331478,-1.07288E-05,1,0,0,rectangle,-17.33331478,-1.07288E-05,1,0,0,-17.33331478,-1.07288E-05,1,0,0,0,64,64,74,1,,,,,,,,
,,,,,,,,,,,,,FF,,,,,,,,0.9489,,,,,,,,,,,,,,,,,,,,,,60fd025b3771dba1f0c29671,61036c8e2e04dc1b32ea0d49,2021-07-29_21h07.00.564,Simcolourproject_2stim_asymm_v5,2020.2.10,Win32,60,61025ae37ef11b136ea224fe,,,,,,,,,2026,-59.33331603,29.99999017,1,0,0,response7disk,,1,1.9735E-05,3.99998939,1,0,0,rectangle,1.9735E-05,3.99998939,1,0,0,1.9735E-05,3.99998939,1,0,0,0,65,65,127,1,,,,,,,,
,,,,,,,,,,,,,FF,,,,,,,,1.022,,,,,,,,,,,,,,,,,,,,,,60fd025b3771dba1f0c29671,61036c8e2e04dc1b32ea0d49,2021-07-29_21h07.00.564,Simcolourproject_2stim_asymm_v5,2020.2.10,Win32,60,61025ae37ef11b136ea224fe,,,,,,,,,1464,-78.66660925,-29.33334494,1,0,0,response5disk,,2,-13.99998134,-2.666677475,1,0,0,rectangle,-18.66660746,-83.33334655,1,0,0,-0.666606923,10.66665626,1,0,0,0,66,66,51,1,,response5disk_3,TRUE,3,3,"[138,67,282,248,226,241,102,58,17,53,268,135,257,289,248,244,11,49,63,20]",1.9203,rectangle
,,,,,,,,,,,,,FF,,,,,,,,2.9874,,,,,,,,,,,,,,,,,,,,,,60fd025b3771dba1f0c29671,61036c8e2e04dc1b32ea0d49,2021-07-29_21h07.00.564,Simcolourproject_2stim_asymm_v5,2020.2.10,Win32,60,61025ae37ef11b136ea224fe,,,,,,,,,716,-19.99998152,-71.33334619,1,0,0,response5disk,,3,1.333393137,-5.333344221,1,0,0,rectangle,1.333393137,-5.333344221,1,0,0,1.333393137,-5.333344221,1,0,0,0,67,67,11,1,,,,,,,,
,,,,,,,,,,,,,FF,,,,,,,,1.304,,,,,,,,,,,,,,,,,,,,,,60fd025b3771dba1f0c29671,61036c8e2e04dc1b32ea0d49,2021-07-29_21h07.00.564,Simcolourproject_2stim_asymm_v5,2020.2.10,Win32,60,61025ae37ef11b136ea224fe,,,,,,,,,2615,-72.66660907,25.33330301,1,0,0,response7disk,,1,-9.333314538,1.333322644,1,0,0,rectangle,-9.333314538,1.333322644,1,0,0,-9.333314538,1.333322644,1,0,0,0,68,68,101,1,,,,,,,,
,,,,,,,,,,,,,FF,,,,,,,,2.9845,,,,,,,,,,,,,,,,,,,,,,60fd025b3771dba1f0c29671,61036c8e2e04dc1b32ea0d49,2021-07-29_21h07.00.564,Simcolourproject_2stim_asymm_v5,2020.2.10,Win32,60,61025ae37ef11b136ea224fe,,,,,,,,,2958,32.00002003,-101.3333471,1,0,0,response3disk,,4,-12.66660728,6.666656137,1,0,0,rectangle,-12.66660728,6.666656137,1,0,0,-12.66660728,6.666656137,1,0,0,0,69,69,113,1,,,,,,,,
,,,,,,,,,,,,,FF,,,,,,,,1.1174,,,,,,,,,,,,,,,,,,,,,,60fd025b3771dba1f0c29671,61036c8e2e04dc1b32ea0d49,2021-07-29_21h07.00.564,Simcolourproject_2stim_asymm_v5,2020.2.10,Win32,60,61025ae37ef11b136ea224fe,,,,,,,,,1518,89.33335507,-25.33334482,1,0,0,response3disk,,5,1.9735E-05,-4.000010848,1,0,0,rectangle,1.9735E-05,-4.000010848,1,0,0,1.9735E-05,-4.000010848,1,0,0,0,70,70,77,1,,,,,,,,
,,,,,,,,,,,,,FF,,,,,,,,1.4818,,,,,,,,,,,,,,,,,,,,,,60fd025b3771dba1f0c29671,61036c8e2e04dc1b32ea0d49,2021-07-29_21h07.00.564,Simcolourproject_2stim_asymm_v5,2020.2.10,Win32,60,61025ae37ef11b136ea224fe,,,,,,,,,2511,90.00002176,-32.00001168,1,0,0,response3disk,,5,-1.999980986,-4.666677535,1,0,0,rectangle,-1.999980986,-4.666677535,1,0,0,-1.999980986,-4.666677535,1,0,0,0,71,71,93,1,,,,,,,,
,,,,,,,,,,,,,FF,,,,,,,,1.1714,,,,,,,,,,,,,,,,,,,,,,60fd025b3771dba1f0c29671,61036c8e2e04dc1b32ea0d49,2021-07-29_21h07.00.564,Simcolourproject_2stim_asymm_v5,2020.2.10,Win32,60,61025ae37ef11b136ea224fe,,,,,,,,,3166,-21.99998158,-57.33334577,1,0,0,response5disk,,3,4.666685879,1.333322644,1,0,0,rectangle,4.666685879,1.333322644,1,0,0,4.666685879,1.333322644,1,0,0,0,72,72,52,1,,,,,,,,
,,,,,,,,,,,,,FF,,,,,,,,0.9488,,,,,,,,,,,,,,,,,,,,,,60fd025b3771dba1f0c29671,61036c8e2e04dc1b32ea0d49,2021-07-29_21h07.00.564,Simcolourproject_2stim_asymm_v5,2020.2.10,Win32,60,61025ae37ef11b136ea224fe,,,,,,,,,3675,-62.66660877,30.66665685,1,0,0,response7disk,,1,-1.999980986,9.333322883,1,0,0,rectangle,-1.999980986,9.333322883,1,0,0,-1.999980986,9.333322883,1,0,0,0,73,73,159,1,,,,,,,,
,,,,,,,,,,,,,FF,,,,,,,,2.3819,,,,,,,,,,,,,,,,,,,,,,60fd025b3771dba1f0c29671,61036c8e2e04dc1b32ea0d49,2021-07-29_21h07.00.564,Simcolourproject_2stim_asymm_v5,2020.2.10,Win32,60,61025ae37ef11b136ea224fe,,,,,,,,,754,54.66668737,29.99999017,1,0,0,response1disk,,6,5.333393256,1.333322644,1,0,0,rectangle,5.333393256,1.333322644,1,0,0,5.333393256,1.333322644,1,0,0,0,74,74,24,1,,,,,,,,
,,,,,,,,,,,,,FF,,,,,,,,2.6989,,,,,,,,,,,,,,,,,,,,,,60fd025b3771dba1f0c29671,61036c8e2e04dc1b32ea0d49,2021-07-29_21h07.00.564,Simcolourproject_2stim_asymm_v5,2020.2.10,Win32,60,61025ae37ef11b136ea224fe,,,,,,,,,2446,72.00002122,42.66665721,1,0,0,response1disk,,6,2.66668582,-6.000010908,1,0,0,rectangle,2.66668582,-6.000010908,1,0,0,2.66668582,-6.000010908,1,0,0,0,75,75,149,1,,,,,,,,
,,,,,,,,,,,,,FF,,,,,,,,1.4174,,,,,,,,,,,,,,,,,,,,,,60fd025b3771dba1f0c29671,61036c8e2e04dc1b32ea0d49,2021-07-29_21h07.00.564,Simcolourproject_2stim_asymm_v5,2020.2.10,Win32,60,61025ae37ef11b136ea224fe,,,,,,,,,604,-75.99998319,-40.00001192,1,0,0,response5disk,,2,2.66668582,-6.000010908,1,0,0,rectangle,2.66668582,-6.000010908,1,0,0,2.66668582,-6.000010908,1,0,0,0,76,76,82,1,,,,,,,,
,,,,,,,,,,,,,FF,,,,,,,,1.4831,,,,,,,,,,,,,,,,,,,,,,60fd025b3771dba1f0c29671,61036c8e2e04dc1b32ea0d49,2021-07-29_21h07.00.564,Simcolourproject_2stim_asymm_v5,2020.2.10,Win32,60,61025ae37ef11b136ea224fe,,,,,,,,,939,50.66668725,-85.33334661,1,0,0,response3disk,,4,-7.999981165,-8.000010967,1,0,0,rectangle,-7.999981165,-8.000010967,1,0,0,-7.999981165,-8.000010967,1,0,0,0,77,77,143,1,,,,,,,,
,,,,,,,,,,,,,FF,,,,,,,,1.6322,,,,,,,,,,,,,,,,,,,,,,60fd025b3771dba1f0c29671,61036c8e2e04dc1b32ea0d49,2021-07-29_21h07.00.564,Simcolourproject_2stim_asymm_v5,2020.2.10,Win32,60,61025ae37ef11b136ea224fe,,,,,,,,,408,84.00002158,-46.0000121,1,0,0,response3disk,,5,1.333393137,6.666656137,1,0,0,rectangle,1.333393137,6.666656137,1,0,0,1.333393137,6.666656137,1,0,0,0,78,78,12,1,,,,,,,,
,,,,,,,,,,,,,FF,,,,,,,,0.9711,,,,,,,,,,,,,,,,,,,,,,60fd025b3771dba1f0c29671,61036c8e2e04dc1b32ea0d49,2021-07-29_21h07.00.564,Simcolourproject_2stim_asymm_v5,2020.2.10,Win32,60,61025ae37ef11b136ea224fe,,,,,,,,,3478,-75.99998319,28.66665679,1,0,0,response7disk,,1,-7.999981165,1.999989331,1,0,0,rectangle,-7.999981165,1.999989331,1,0,0,-7.999981165,1.999989331,1,0,0,0,79,79,106,1,,,,,,,,
,,,,,,,,,,,,,FF,,,,,,,,1.6875,,,,,,,,,,,,,,,,,,,,,,60fd025b3771dba1f0c29671,61036c8e2e04dc1b32ea0d49,2021-07-29_21h07.00.564,Simcolourproject_2stim_asymm_v5,2020.2.10,Win32,60,61025ae37ef11b136ea224fe,,,,,,,,,2187,54.00002068,-90.00001341,1,0,0,response3disk,,4,-10.66660722,1.999989331,1,0,0,rectangle,-10.66660722,1.999989331,1,0,0,-10.66660722,1.999989331,1,0,0,0,80,80,26,1,,,,,,,,
,,,,,,,,,,,,,FF,,,,,,,,1.0886,,,,,,,,,,,,,,,,,,,,,,60fd025b3771dba1f0c29671,61036c8e2e04dc1b32ea0d49,2021-07-29_21h07.00.564,Simcolourproject_2stim_asymm_v5,2020.2.10,Win32,60,61025ae37ef11b136ea224fe,,,,,,,,,3122,81.33335483,-49.33334553,1,0,0,response3disk,,5,-13.33331466,-11.3333444,1,0,0,rectangle,-13.33331466,-11.3333444,1,0,0,-13.33331466,-11.3333444,1,0,0,0,81,81,10,1,,,,,,,,
,,,,,,,,,,,,,FF,,,,,,,,1.2035,,,,,,,,,,,,,,,,,,,,,,60fd025b3771dba1f0c29671,61036c8e2e04dc1b32ea0d49,2021-07-29_21h07.00.564,Simcolourproject_2stim_asymm_v5,2020.2.10,Win32,60,61025ae37ef11b136ea224fe,,,,,,,,,1164,44.00002038,-74.00001293,1,0,0,response3disk,,4,-1.3333143,-1.07288E-05,1,0,0,rectangle,-1.3333143,-1.07288E-05,1,0,0,-1.3333143,-1.07288E-05,1,0,0,0,82,82,28,1,,,,,,,,
,,,,,,,,,,,,,FF,,,,,,,,2.1822,,,,,,,,,,,,,,,,,,,,,,60fd025b3771dba1f0c29671,61036c8e2e04dc1b32ea0d49,2021-07-29_21h07.00.564,Simcolourproject_2stim_asymm_v5,2020.2.10,Win32,60,61025ae37ef11b136ea224fe,,,,,,,,,3313,88.0000217,45.99999064,1,0,0,response1disk,,6,0.66668576,-4.000010848,1,0,0,rectangle,0.66668576,-4.000010848,1,0,0,0.66668576,-4.000010848,1,0,0,0,83,83,61,1,,,,,,,,
,,,,,,,,,,,,,FF,,,,,,,,1.4004,,,,,,,,,,,,,,,,,,,,,,60fd025b3771dba1f0c29671,61036c8e2e04dc1b32ea0d49,2021-07-29_21h07.00.564,Simcolourproject_2stim_asymm_v5,2020.2.10,Win32,60,61025ae37ef11b136ea224fe,,,,,,,,,4081,44.00002038,-64.66667932,1,0,0,response3disk,,4,-0.666606923,0.666655958,1,0,0,rectangle,-0.666606923,0.666655958,1,0,0,-0.666606923,0.666655958,1,0,0,0,84,84,35,1,,,,,,,,
,,,,,,,,,,,,,FF,,,,,,,,1.7536,,,,,,,,,,,,,,,,,,,,,,60fd025b3771dba1f0c29671,61036c8e2e04dc1b32ea0d49,2021-07-29_21h07.00.564,Simcolourproject_2stim_asymm_v5,2020.2.10,Win32,60,61025ae37ef11b136ea224fe,,,,,,,,,1389,50.66668725,-79.33334643,1,0,0,response3disk,,4,-15.9999814,-2.000010788,1,0,0,rectangle,-15.9999814,-2.000010788,1,0,0,-15.9999814,-2.000010788,1,0,0,0,85,85,92,1,,,,,,,,
,,,,,,,,,,,,,FF,,,,,,,,2.3202,,,,,,,,,,,,,,,,,,,,,,60fd025b3771dba1f0c29671,61036c8e2e04dc1b32ea0d49,2021-07-29_21h07.00.564,Simcolourproject_2stim_asymm_v5,2020.2.10,Win32,60,61025ae37ef11b136ea224fe,,,,,,,,,826,-35.999982,-78.66667974,1,0,0,response5disk,,3,-3.999981046,-1.07288E-05,1,0,0,rectangle,-3.999981046,-1.07288E-05,1,0,0,-3.999981046,-1.07288E-05,1,0,0,0,86,86,126,1,,,,,,,,
,,,,,,,,,,,,,FF,,,,,,,,1.8496,,,,,,,,,,,,,,,,,,,,,,60fd025b3771dba1f0c29671,61036c8e2e04dc1b32ea0d49,2021-07-29_21h07.00.564,Simcolourproject_2stim_asymm_v5,2020.2.10,Win32,60,61025ae37ef11b136ea224fe,,,,,,,,,686,78.66668808,-54.66667902,1,0,0,response3disk,,5,-9.999981225,1.333322644,1,0,0,rectangle,-9.999981225,1.333322644,1,0,0,-9.999981225,1.333322644,1,0,0,0,87,87,20,1,,,,,,,,
,,,,,,,,,,,,,FF,,,,,,,,2.2146,,,,,,,,,,,,,,,,,,,,,,60fd025b3771dba1f0c29671,61036c8e2e04dc1b32ea0d49,2021-07-29_21h07.00.564,Simcolourproject_2stim_asymm_v5,2020.2.10,Win32,60,61025ae37ef11b136ea224fe,,,,,,,,,4113,88.66668838,-22.66667807,1,0,0,response3disk,,5,4.000019193,12.66665632,1,0,0,rectangle,4.000019193,12.66665632,1,0,0,4.000019193,12.66665632,1,0,0,0,88,88,38,1,,,,,,,,
,,,,,,,,,,,,,FF,,,,,,,,1.1005,,,,,,,,,,,,,,,,,,,,,,60fd025b3771dba1f0c29671,61036c8e2e04dc1b32ea0d49,2021-07-29_21h07.00.564,Simcolourproject_2stim_asymm_v5,2020.2.10,Win32,60,61025ae37ef11b136ea224fe,,,,,,,,,253,-37.99998206,-66.66667938,1,0,0,response5disk,,3,1.9735E-05,6.666656137,1,0,0,rectangle,1.9735E-05,6.666656137,1,0,0,1.9735E-05,6.666656137,1,0,0,0,89,89,105,1,,,,,,,,
,,,,,,,,,,,,,FF,,,,,,,,3.071,,,,,,,,,,,,,,,,,,,,,,60fd025b3771dba1f0c29671,61036c8e2e04dc1b32ea0d49,2021-07-29_21h07.00.564,Simcolourproject_2stim_asymm_v5,2020.2.10,Win32,60,61025ae37ef11b136ea224fe,,,,,,,,,2253,40.00002027,-81.33334649,1,0,0,response3disk,,4,-0.666606923,1.999989331,1,0,0,rectangle,-0.666606923,1.999989331,1,0,0,-0.666606923,1.999989331,1,0,0,0,90,90,36,1,,,,,,,,
,,,,,,,,,,,,,FF,,,,,,,,3.2041,,,,,,,,,,,,,,,,,,,,,,60fd025b3771dba1f0c29671,61036c8e2e04dc1b32ea0d49,2021-07-29_21h07.00.564,Simcolourproject_2stim_asymm_v5,2020.2.10,Win32,60,61025ae37ef11b136ea224fe,,,,,,,,,951,76.00002134,-44.66667873,1,0,0,response3disk,,5,1.9735E-05,7.99998951,1,0,0,rectangle,1.9735E-05,7.99998951,1,0,0,1.9735E-05,7.99998951,1,0,0,0,91,91,3,1,,,,,,,,
,,,,,,,,,,,,,FF,,,,,,,,1.0546,,,,,,,,,,,,,,,,,,,,,,60fd025b3771dba1f0c29671,61036c8e2e04dc1b32ea0d49,2021-07-29_21h07.00.564,Simcolourproject_2stim_asymm_v5,2020.2.10,Win32,60,61025ae37ef11b136ea224fe,,,,,,,,,1799,83.33335489,-19.33334464,1,0,0,response3disk,,5,-17.33331478,-5.333344221,1,0,0,rectangle,-17.33331478,-5.333344221,1,0,0,-17.33331478,-5.333344221,1,0,0,0,92,92,84,1,,,,,,,,
,,,,,,,,,,,,,FF,,,,,,,,1.5321,,,,,,,,,,,,,,,,,,,,,,60fd025b3771dba1f0c29671,61036c8e2e04dc1b32ea0d49,2021-07-29_21h07.00.564,Simcolourproject_2stim_asymm_v5,2020.2.10,Win32,60,61025ae37ef11b136ea224fe,,,,,,,,,1375,-74.66660913,50.66665745,1,0,0,response7disk,,1,14.00001949,-10.00001103,1,0,0,rectangle,14.00001949,-10.00001103,1,0,0,14.00001949,-10.00001103,1,0,0,0,93,93,15,1,,,,,,,,
,,,,,,,,,,,,,FF,,,,,,,,0.9526,,,,,,,,,,,,,,,,,,,,,,60fd025b3771dba1f0c29671,61036c8e2e04dc1b32ea0d49,2021-07-29_21h07.00.564,Simcolourproject_2stim_asymm_v5,2020.2.10,Win32,60,61025ae37ef11b136ea224fe,,,,,,,,,2332,30.00001997,-78.00001305,1,0,0,response3disk,,4,-4.666607042,-5.333344221,1,0,0,rectangle,-4.666607042,-5.333344221,1,0,0,-4.666607042,-5.333344221,1,0,0,0,94,94,90,1,,,,,,,,
,,,,,,,,,,,,,FF,,,,,,,,1.7826,,,,,,,,,,,,,,,,,,,,,,60fd025b3771dba1f0c29671,61036c8e2e04dc1b32ea0d49,2021-07-29_21h07.00.564,Simcolourproject_2stim_asymm_v5,2020.2.10,Win32,60,61025ae37ef11b136ea224fe,,,,,,,,,4279,62.00002092,-70.00001281,1,0,0,response3disk,,4,13.33339349,4.666656077,1,0,0,rectangle,13.33339349,4.666656077,1,0,0,13.33339349,4.666656077,1,0,0,0,95,95,7,1,,,,,,,,
,,,,,,,,,,,,,FF,,,,,,,,3.0128,,,,,,,,,,,,,,,,,,,,,,60fd025b3771dba1f0c29671,61036c8e2e04dc1b32ea0d49,2021-07-29_21h07.00.564,Simcolourproject_2stim_asymm_v5,2020.2.10,Win32,60,61025ae37ef11b136ea224fe,,,,,,,,,3309,52.66668731,-74.00001293,1,0,0,response3disk,,4,-12.66660728,3.333322704,1,0,0,rectangle,-12.66660728,3.333322704,1,0,0,-12.66660728,3.333322704,1,0,0,0,96,96,140,1,,,,,,,,
,,,,,,,,,,,,,FF,,,,,,,,1.0798,,,,,,,,,,,,,,,,,,,,,,60fd025b3771dba1f0c29671,61036c8e2e04dc1b32ea0d49,2021-07-29_21h07.00.564,Simcolourproject_2stim_asymm_v5,2020.2.10,Win32,60,61025ae37ef11b136ea224fe,,,,,,,,,615,-53.33331585,-24.00001144,1,0,0,response5disk,,2,6.000019252,8.666656196,1,0,0,rectangle,6.000019252,8.666656196,1,0,0,6.000019252,8.666656196,1,0,0,0,97,97,65,1,,,,,,,,
,,,,,,,,,,,,,FF,,,,,,,,1.1015,,,,,,,,,,,,,,,,,,,,,,60fd025b3771dba1f0c29671,61036c8e2e04dc1b32ea0d49,2021-07-29_21h07.00.564,Simcolourproject_2stim_asymm_v5,2020.2.10,Win32,60,61025ae37ef11b136ea224fe,,,,,,,,,3981,-69.33331633,-28.00001156,1,0,0,response5disk,,2,-0.666606923,-3.333344162,1,0,0,rectangle,-0.666606923,-3.333344162,1,0,0,-0.666606923,-3.333344162,1,0,0,0,98,98,122,1,,,,,,,,
,,,,,,,,,,,,,FF,,,,,,,,1.0877,,,,,,,,,,,,,,,,,,,,,,60fd025b3771dba1f0c29671,61036c8e2e04dc1b32ea0d49,2021-07-29_21h07.00.564,Simcolourproject_2stim_asymm_v5,2020.2.10,Win32,60,61025ae37ef11b136ea224fe,,,,,,,,,4046,-23.33331496,76.66665822,1,0,0,response7disk,,0,0.66668576,7.333322823,1,0,0,rectangle,0.66668576,7.333322823,1,0,0,0.66668576,7.333322823,1,0,0,0,99,99,31,1,,,,,,,,
,,,,,,,,,,,,,FF,,,,,,,,1.3164,,,,,,,,,,,,,,,,,,,,,,60fd025b3771dba1f0c29671,61036c8e2e04dc1b32ea0d49,2021-07-29_21h07.00.564,Simcolourproject_2stim_asymm_v5,2020.2.10,Win32,60,61025ae37ef11b136ea224fe,,,,,,,,,1436,-77.33331656,-23.33334476,1,0,0,response5disk,,2,-4.666607042,7.99998951,1,0,0,rectangle,-4.666607042,7.99998951,1,0,0,-4.666607042,7.99998951,1,0,0,0,100,100,86,1,,,,,,,,
,,,,,,,,,,,,,FF,,,,,,,,1.9818,,,,,,,,,,,,,,,,,,,,,,60fd025b3771dba1f0c29671,61036c8e2e04dc1b32ea0d49,2021-07-29_21h07.00.564,Simcolourproject_2stim_asymm_v5,2020.2.10,Win32,60,61025ae37ef11b136ea224fe,,,,,,,,,2039,-70.66660901,26.66665673,1,0,0,response7disk,,1,-3.999981046,-4.000010848,1,0,0,rectangle,82.00002152,-28.00001156,1,0,0,1.333393137,5.99998945,1,0,0,0,101,101,112,1,,response3disk_3,TRUE,5,5,"[138,67,282,248,226,241,102,58,17,53,268,135,257,289,248,244,11,49,63,20]",1.5366,rectangle
,,,,,,,,,,,,,FF,,,,,,,,1.6991,,,,,,,,,,,,,,,,,,,,,,60fd025b3771dba1f0c29671,61036c8e2e04dc1b32ea0d49,2021-07-29_21h07.00.564,Simcolourproject_2stim_asymm_v5,2020.2.10,Win32,60,61025ae37ef11b136ea224fe,,,,,,,,,1835,-37.99998206,-83.33334655,1,0,0,response5disk,,3,2.000019133,-6.000010908,1,0,0,rectangle,2.000019133,-6.000010908,1,0,0,2.000019133,-6.000010908,1,0,0,0,102,102,49,1,,,,,,,,
,,,,,,,,,,,,,FF,,,,,,,,1.2157,,,,,,,,,,,,,,,,,,,,,,60fd025b3771dba1f0c29671,61036c8e2e04dc1b32ea0d49,2021-07-29_21h07.00.564,Simcolourproject_2stim_asymm_v5,2020.2.10,Win32,60,61025ae37ef11b136ea224fe,,,,,,,,,3575,76.66668802,-53.33334565,1,0,0,response3disk,,5,-9.999981225,6.666656137,1,0,0,rectangle,-9.999981225,6.666656137,1,0,0,-9.999981225,6.666656137,1,0,0,0,103,103,107,1,,,,,,,,
,,,,,,,,,,,,,FF,,,,,,,,0.9205,,,,,,,,,,,,,,,,,,,,,,60fd025b3771dba1f0c29671,61036c8e2e04dc1b32ea0d49,2021-07-29_21h07.00.564,Simcolourproject_2stim_asymm_v5,2020.2.10,Win32,60,61025ae37ef11b136ea224fe,,,,,,,,,1732,77.33335471,-34.66667843,1,0,0,response3disk,,5,7.333393315,4.666656077,1,0,0,rectangle,7.333393315,4.666656077,1,0,0,7.333393315,4.666656077,1,0,0,0,104,104,37,1,,,,,,,,
,,,,,,,,,,,,,FF,,,,,,,,1.287,,,,,,,,,,,,,,,,,,,,,,60fd025b3771dba1f0c29671,61036c8e2e04dc1b32ea0d49,2021-07-29_21h07.00.564,Simcolourproject_2stim_asymm_v5,2020.2.10,Win32,60,61025ae37ef11b136ea224fe,,,,,,,,,2238,-32.66660788,-65.33334601,1,0,0,response5disk,,3,7.333393315,0.666655958,1,0,0,rectangle,7.333393315,0.666655958,1,0,0,7.333393315,0.666655958,1,0,0,0,105,105,68,1,,,,,,,,
,,,,,,,,,,,,,FF,,,,,,,,0.8831,,,,,,,,,,,,,,,,,,,,,,60fd025b3771dba1f0c29671,61036c8e2e04dc1b32ea0d49,2021-07-29_21h07.00.564,Simcolourproject_2stim_asymm_v5,2020.2.10,Win32,60,61025ae37ef11b136ea224fe,,,,,,,,,737,43.3333537,-71.33334619,1,0,0,response3disk,,4,-3.999981046,11.99998963,1,0,0,rectangle,-3.999981046,11.99998963,1,0,0,-3.999981046,11.99998963,1,0,0,0,106,106,104,1,,,,,,,,
,,,,,,,,,,,,,FF,,,,,,,,1.8493,,,,,,,,,,,,,,,,,,,,,,60fd025b3771dba1f0c29671,61036c8e2e04dc1b32ea0d49,2021-07-29_21h07.00.564,Simcolourproject_2stim_asymm_v5,2020.2.10,Win32,60,61025ae37ef11b136ea224fe,,,,,,,,,3882,-53.99998254,60.66665775,1,0,0,response7disk,,0,1.333393137,5.99998945,1,0,0,rectangle,1.333393137,5.99998945,1,0,0,1.333393137,5.99998945,1,0,0,0,107,107,64,1,,,,,,,,
,,,,,,,,,,,,,FF,,,,,,,,4.4483,,,,,,,,,,,,,,,,,,,,,,60fd025b3771dba1f0c29671,61036c8e2e04dc1b32ea0d49,2021-07-29_21h07.00.564,Simcolourproject_2stim_asymm_v5,2020.2.10,Win32,60,61025ae37ef11b136ea224fe,,,,,,,,,2154,-28.66660776,-62.00001258,1,0,0,response5disk,,3,1.9735E-05,5.99998945,1,0,0,rectangle,1.9735E-05,5.99998945,1,0,0,1.9735E-05,5.99998945,1,0,0,0,108,108,9,1,,,,,,,,
,,,,,,,,,,,,,FF,,,,,,,,1.583,,,,,,,,,,,,,,,,,,,,,,60fd025b3771dba1f0c29671,61036c8e2e04dc1b32ea0d49,2021-07-29_21h07.00.564,Simcolourproject_2stim_asymm_v5,2020.2.10,Win32,60,61025ae37ef11b136ea224fe,,,,,,,,,1108,98.00002199,-56.66667908,1,0,0,response3disk,,5,8.666685998,1.999989331,1,0,0,rectangle,8.666685998,1.999989331,1,0,0,8.666685998,1.999989331,1,0,0,0,109,109,81,1,,,,,,,,
,,,,,,,,,,,,,FF,,,,,,,,0.8657,,,,,,,,,,,,,,,,,,,,,,60fd025b3771dba1f0c29671,61036c8e2e04dc1b32ea0d49,2021-07-29_21h07.00.564,Simcolourproject_2stim_asymm_v5,2020.2.10,Win32,60,61025ae37ef11b136ea224fe,,,,,,,,,393,74.00002128,-34.00001174,1,0,0,response3disk,,5,-5.999981105,10.66665626,1,0,0,rectangle,-5.999981105,10.66665626,1,0,0,-5.999981105,10.66665626,1,0,0,0,110,110,119,1,,,,,,,,
,,,,,,,,,,,,,FF,,,,,,,,2.0988,,,,,,,,,,,,,,,,,,,,,,60fd025b3771dba1f0c29671,61036c8e2e04dc1b32ea0d49,2021-07-29_21h07.00.564,Simcolourproject_2stim_asymm_v5,2020.2.10,Win32,60,61025ae37ef11b136ea224fe,,,,,,,,,2389,54.66668737,-61.33334589,1,0,0,response3disk,,4,-15.33331472,11.99998963,1,0,0,rectangle,-15.33331472,11.99998963,1,0,0,-15.33331472,11.99998963,1,0,0,0,111,111,108,1,,,,,,,,
,,,,,,,,,,,,,FF,,,,,,,,1.1545,,,,,,,,,,,,,,,,,,,,,,60fd025b3771dba1f0c29671,61036c8e2e04dc1b32ea0d49,2021-07-29_21h07.00.564,Simcolourproject_2stim_asymm_v5,2020.2.10,Win32,60,61025ae37ef11b136ea224fe,,,,,,,,,1943,77.33335471,-24.66667813,1,0,0,response3disk,,5,-1.3333143,8.666656196,1,0,0,rectangle,-1.3333143,8.666656196,1,0,0,-1.3333143,8.666656196,1,0,0,0,112,112,96,1,,,,,,,,
,,,,,,,,,,,,,FF,,,,,,,,1.1873,,,,,,,,,,,,,,,,,,,,,,60fd025b3771dba1f0c29671,61036c8e2e04dc1b32ea0d49,2021-07-29_21h07.00.564,Simcolourproject_2stim_asymm_v5,2020.2.10,Win32,60,61025ae37ef11b136ea224fe,,,,,,,,,4060,-48.66660835,27.33330307,1,0,0,response7disk,,1,6.666685939,-8.666677654,1,0,0,rectangle,6.666685939,-8.666677654,1,0,0,6.666685939,-8.666677654,1,0,0,0,113,113,43,1,,,,,,,,
,,,,,,,,,,,,,FF,,,,,,,,1.3713,,,,,,,,,,,,,,,,,,,,,,60fd025b3771dba1f0c29671,61036c8e2e04dc1b32ea0d49,2021-07-29_21h07.00.564,Simcolourproject_2stim_asymm_v5,2020.2.10,Win32,60,61025ae37ef11b136ea224fe,,,,,,,,,2695,46.00002044,-82.66667986,1,0,0,response3disk,,4,-1.3333143,8.666656196,1,0,0,rectangle,-1.3333143,8.666656196,1,0,0,-1.3333143,8.666656196,1,0,0,0,114,114,23,1,,,,,,,,
,,,,,,,,,,,,,FF,,,,,,,,1.1486,,,,,,,,,,,,,,,,,,,,,,60fd025b3771dba1f0c29671,61036c8e2e04dc1b32ea0d49,2021-07-29_21h07.00.564,Simcolourproject_2stim_asymm_v5,2020.2.10,Win32,60,61025ae37ef11b136ea224fe,,,,,,,,,80,-61.33331609,-37.33334517,1,0,0,response5disk,,2,-1.999980986,-7.333344281,1,0,0,rectangle,-1.999980986,-7.333344281,1,0,0,-1.999980986,-7.333344281,1,0,0,0,115,115,99,1,,,,,,,,
,,,,,,,,,,,,,FF,,,,,,,,0.8368,,,,,,,,,,,,,,,,,,,,,,60fd025b3771dba1f0c29671,61036c8e2e04dc1b32ea0d49,2021-07-29_21h07.00.564,Simcolourproject_2stim_asymm_v5,2020.2.10,Win32,60,61025ae37ef11b136ea224fe,,,,,,,,,3557,-66.66660889,-31.333345,1,0,0,response5disk,,2,-0.666606923,-4.000010848,1,0,0,rectangle,-0.666606923,-4.000010848,1,0,0,-0.666606923,-4.000010848,1,0,0,0,116,116,17,1,,,,,,,,
,,,,,,,,,,,,,FF,,,,,,,,2.5999,,,,,,,,,,,,,,,,,,,,,,60fd025b3771dba1f0c29671,61036c8e2e04dc1b32ea0d49,2021-07-29_21h07.00.564,Simcolourproject_2stim_asymm_v5,2020.2.10,Win32,60,61025ae37ef11b136ea224fe,,,,,,,,,3351,58.66668749,-76.66667968,1,0,0,response3disk,,4,10.66668606,7.99998951,1,0,0,rectangle,10.66668606,7.99998951,1,0,0,10.66668606,7.99998951,1,0,0,0,117,117,148,1,,,,,,,,
,,,,,,,,,,,,,FF,,,,,,,,0.8326,,,,,,,,,,,,,,,,,,,,,,60fd025b3771dba1f0c29671,61036c8e2e04dc1b32ea0d49,2021-07-29_21h07.00.564,Simcolourproject_2stim_asymm_v5,2020.2.10,Win32,60,61025ae37ef11b136ea224fe,,,,,,,,,1308,-72.66660907,-32.66667837,1,0,0,response5disk,,2,4.000019193,13.99998969,1,0,0,rectangle,4.000019193,13.99998969,1,0,0,4.000019193,13.99998969,1,0,0,0,118,118,0,1,,,,,,,,
,,,,,,,,,,,,,FF,,,,,,,,1.1212,,,,,,,,,,,,,,,,,,,,,,60fd025b3771dba1f0c29671,61036c8e2e04dc1b32ea0d49,2021-07-29_21h07.00.564,Simcolourproject_2stim_asymm_v5,2020.2.10,Win32,60,61025ae37ef11b136ea224fe,,,,,,,,,2388,88.66668838,-26.0000115,1,0,0,response3disk,,5,-1.3333143,3.99998939,1,0,0,rectangle,-1.3333143,3.99998939,1,0,0,-1.3333143,3.99998939,1,0,0,0,119,119,50,1,,,,,,,,
,,,,,,,,,,,,,FF,,,,,,,,5.2475,,,,,,,,,,,,,,,,,,,,,,60fd025b3771dba1f0c29671,61036c8e2e04dc1b32ea0d49,2021-07-29_21h07.00.564,Simcolourproject_2stim_asymm_v5,2020.2.10,Win32,60,61025ae37ef11b136ea224fe,,,,,,,,,4131,91.33335513,61.99999112,1,0,0,response1disk,,6,-6.666607102,-1.333344102,1,0,0,rectangle,-6.666607102,-1.333344102,1,0,0,-6.666607102,-1.333344102,1,0,0,0,120,120,25,1,,,,,,,,
,,,,,,,,,,,,,FF,,,,,,,,1.451,,,,,,,,,,,,,,,,,,,,,,60fd025b3771dba1f0c29671,61036c8e2e04dc1b32ea0d49,2021-07-29_21h07.00.564,Simcolourproject_2stim_asymm_v5,2020.2.10,Win32,60,61025ae37ef11b136ea224fe,,,,,,,,,3347,63.33335429,-70.6666795,1,0,0,response3disk,,4,4.000019193,7.99998951,1,0,0,rectangle,4.000019193,7.99998951,1,0,0,4.000019193,7.99998951,1,0,0,0,121,121,137,1,,,,,,,,
,,,,,,,,,,,,,FF,,,,,,,,1.1493,,,,,,,,,,,,,,,,,,,,,,60fd025b3771dba1f0c29671,61036c8e2e04dc1b32ea0d49,2021-07-29_21h07.00.564,Simcolourproject_2stim_asymm_v5,2020.2.10,Win32,60,61025ae37ef11b136ea224fe,,,,,,,,,1998,44.00002038,60.66665775,1,0,0,response1disk,,7,-1.3333143,-0.666677415,1,0,0,rectangle,-1.3333143,-0.666677415,1,0,0,-1.3333143,-0.666677415,1,0,0,0,122,122,46,1,,,,,,,,
,,,,,,,,,,,,,FF,,,,,,,,1.6331,,,,,,,,,,,,,,,,,,,,,,60fd025b3771dba1f0c29671,61036c8e2e04dc1b32ea0d49,2021-07-29_21h07.00.564,Simcolourproject_2stim_asymm_v5,2020.2.10,Win32,60,61025ae37ef11b136ea224fe,,,,,,,,,2186,82.00002152,48.66665739,1,0,0,response1disk,,6,-15.33331472,9.333322883,1,0,0,rectangle,-15.33331472,9.333322883,1,0,0,-15.33331472,9.333322883,1,0,0,0,123,123,60,1,,,,,,,,
,,,,,,,,,,,,,FF,,,,,,,,1.1006,,,,,,,,,,,,,,,,,,,,,,60fd025b3771dba1f0c29671,61036c8e2e04dc1b32ea0d49,2021-07-29_21h07.00.564,Simcolourproject_2stim_asymm_v5,2020.2.10,Win32,60,61025ae37ef11b136ea224fe,,,,,,,,,785,-29.33331513,-76.00001299,1,0,0,response5disk,,3,-1.3333143,3.99998939,1,0,0,rectangle,-1.3333143,3.99998939,1,0,0,-1.3333143,3.99998939,1,0,0,0,124,124,41,1,,,,,,,,
,,,,,,,,,,,,,FF,,,,,,,,1.1989,,,,,,,,,,,,,,,,,,,,,,60fd025b3771dba1f0c29671,61036c8e2e04dc1b32ea0d49,2021-07-29_21h07.00.564,Simcolourproject_2stim_asymm_v5,2020.2.10,Win32,60,61025ae37ef11b136ea224fe,,,,,,,,,2622,-35.33331531,-80.6666798,1,0,0,response5disk,,3,-2.666606983,0.666655958,1,0,0,rectangle,-2.666606983,0.666655958,1,0,0,-2.666606983,0.666655958,1,0,0,0,125,125,58,1,,,,,,,,
,,,,,,,,,,,,,FF,,,,,,,,0.8709,,,,,,,,,,,,,,,,,,,,,,60fd025b3771dba1f0c29671,61036c8e2e04dc1b32ea0d49,2021-07-29_21h07.00.564,Simcolourproject_2stim_asymm_v5,2020.2.10,Win32,60,61025ae37ef11b136ea224fe,,,,,,,,,282,-28.66660776,-70.00001281,1,0,0,response5disk,,3,-3.999981046,1.333322644,1,0,0,rectangle,-3.999981046,1.333322644,1,0,0,-3.999981046,1.333322644,1,0,0,0,126,126,22,1,,,,,,,,
,,,,,,,,,,,,,FF,,,,,,,,0.8825,,,,,,,,,,,,,,,,,,,,,,60fd025b3771dba1f0c29671,61036c8e2e04dc1b32ea0d49,2021-07-29_21h07.00.564,Simcolourproject_2stim_asymm_v5,2020.2.10,Win32,60,61025ae37ef11b136ea224fe,,,,,,,,,2886,-20.66660752,53.99999088,1,0,0,response7disk,,0,5.333393256,5.333322763,1,0,0,rectangle,5.333393256,5.333322763,1,0,0,5.333393256,5.333322763,1,0,0,0,127,127,136,1,,,,,,,,
,,,,,,,,,,,,,FF,,,,,,,,1.1507,,,,,,,,,,,,,,,,,,,,,,60fd025b3771dba1f0c29671,61036c8e2e04dc1b32ea0d49,2021-07-29_21h07.00.564,Simcolourproject_2stim_asymm_v5,2020.2.10,Win32,60,61025ae37ef11b136ea224fe,,,,,,,,,3386,-54.66660853,21.99998993,1,0,0,response7disk,,1,-11.3333146,-6.666677594,1,0,0,rectangle,-11.3333146,-6.666677594,1,0,0,-11.3333146,-6.666677594,1,0,0,0,128,128,132,1,,,,,,,,
,,,,,,,,,,,,,FF,,,,,,,,1.0496,,,,,,,,,,,,,,,,,,,,,,60fd025b3771dba1f0c29671,61036c8e2e04dc1b32ea0d49,2021-07-29_21h07.00.564,Simcolourproject_2stim_asymm_v5,2020.2.10,Win32,60,61025ae37ef11b136ea224fe,,,,,,,,,2771,-35.33331531,-94.00001353,1,0,0,response5disk,,3,-5.333314419,-4.000010848,1,0,0,rectangle,-5.333314419,-4.000010848,1,0,0,-5.333314419,-4.000010848,1,0,0,0,129,129,114,1,,,,,,,,
,,,,,,,,,,,,,FF,,,,,,,,1.5479,,,,,,,,,,,,,,,,,,,,,,60fd025b3771dba1f0c29671,61036c8e2e04dc1b32ea0d49,2021-07-29_21h07.00.564,Simcolourproject_2stim_asymm_v5,2020.2.10,Win32,60,61025ae37ef11b136ea224fe,,,,,,,,,1932,70.66668785,-48.66667885,1,0,0,response3disk,,5,1.333393137,12.66665632,1,0,0,rectangle,1.333393137,12.66665632,1,0,0,1.333393137,12.66665632,1,0,0,0,130,130,39,1,,,,,,,,
,,,,,,,,,,,,,FF,,,,,,,,1.5541,,,,,,,,,,,,,,,,,,,,,,60fd025b3771dba1f0c29671,61036c8e2e04dc1b32ea0d49,2021-07-29_21h07.00.564,Simcolourproject_2stim_asymm_v5,2020.2.10,Win32,60,61025ae37ef11b136ea224fe,,,,,,,,,3435,-79.33331662,-26.66667819,1,0,0,response5disk,,2,-15.33331472,12.66665632,1,0,0,rectangle,-15.33331472,12.66665632,1,0,0,-15.33331472,12.66665632,1,0,0,0,131,131,54,1,,,,,,,,
,,,,,,,,,,,,,FF,,,,,,,,1.2878,,,,,,,,,,,,,,,,,,,,,,60fd025b3771dba1f0c29671,61036c8e2e04dc1b32ea0d49,2021-07-29_21h07.00.564,Simcolourproject_2stim_asymm_v5,2020.2.10,Win32,60,61025ae37ef11b136ea224fe,,,,,,,,,248,-18.66660746,-65.33334601,1,0,0,response5disk,,3,12.00001943,3.333322704,1,0,0,rectangle,12.00001943,3.333322704,1,0,0,12.00001943,3.333322704,1,0,0,0,132,132,125,1,,,,,,,,
,,,,,,,,,,,,,FF,,,,,,,,1.2046,,,,,,,,,,,,,,,,,,,,,,60fd025b3771dba1f0c29671,61036c8e2e04dc1b32ea0d49,2021-07-29_21h07.00.564,Simcolourproject_2stim_asymm_v5,2020.2.10,Win32,60,61025ae37ef11b136ea224fe,,,,,,,,,1883,60.66668755,-79.33334643,1,0,0,response3disk,,4,-9.999981225,0.666655958,1,0,0,rectangle,-9.999981225,0.666655958,1,0,0,-9.999981225,0.666655958,1,0,0,0,133,133,100,1,,,,,,,,
,,,,,,,,,,,,,FF,,,,,,,,1.3503,,,,,,,,,,,,,,,,,,,,,,60fd025b3771dba1f0c29671,61036c8e2e04dc1b32ea0d49,2021-07-29_21h07.00.564,Simcolourproject_2stim_asymm_v5,2020.2.10,Win32,60,61025ae37ef11b136ea224fe,,,,,,,,,3683,-37.33331537,-88.00001335,1,0,0,response5disk,,3,-7.999981165,2.666656017,1,0,0,rectangle,-87.99998355,-29.33334494,1,0,0,-2.666606983,1.999989331,1,0,0,0,134,134,57,1,,response5disk_3,TRUE,2,2,"[138,67,282,248,226,241,102,58,17,53,268,135,257,289,248,244,11,49,63,20]",2.0645,rectangle
,,,,,,,,,,,,,FF,,,,,,,,0.9544,,,,,,,,,,,,,,,,,,,,,,60fd025b3771dba1f0c29671,61036c8e2e04dc1b32ea0d49,2021-07-29_21h07.00.564,Simcolourproject_2stim_asymm_v5,2020.2.10,Win32,60,61025ae37ef11b136ea224fe,,,,,,,,,1035,-25.33331501,-76.66667968,1,0,0,response5disk,,3,-3.333314359,1.999989331,1,0,0,rectangle,-3.333314359,1.999989331,1,0,0,-3.333314359,1.999989331,1,0,0,0,135,135,75,1,,,,,,,,
,,,,,,,,,,,,,FF,,,,,,,,1.499,,,,,,,,,,,,,,,,,,,,,,60fd025b3771dba1f0c29671,61036c8e2e04dc1b32ea0d49,2021-07-29_21h07.00.564,Simcolourproject_2stim_asymm_v5,2020.2.10,Win32,60,61025ae37ef11b136ea224fe,,,,,,,,,1847,-37.33331537,-47.33334547,1,0,0,response5disk,,3,-9.333314538,9.333322883,1,0,0,rectangle,-9.333314538,9.333322883,1,0,0,-9.333314538,9.333322883,1,0,0,0,136,136,142,1,,,,,,,,
,,,,,,,,,,,,,FF,,,,,,,,2.3146,,,,,,,,,,,,,,,,,,,,,,60fd025b3771dba1f0c29671,61036c8e2e04dc1b32ea0d49,2021-07-29_21h07.00.564,Simcolourproject_2stim_asymm_v5,2020.2.10,Win32,60,61025ae37ef11b136ea224fe,,,,,,,,,3717,-41.99998218,-87.33334666,1,0,0,response5disk,,3,6.000019252,3.99998939,1,0,0,rectangle,-37.33331537,96.66665882,1,0,0,2.66668582,4.666656077,1,0,0,0,137,137,146,1,,response7disk_3,TRUE,0,0,"[138,67,282,248,226,241,102,58,17,53,268,135,257,289,248,244,11,49,63,20]",1.948,rectangle
,,,,,,,,,,,,,FF,,,,,,,,1.2544,,,,,,,,,,,,,,,,,,,,,,60fd025b3771dba1f0c29671,61036c8e2e04dc1b32ea0d49,2021-07-29_21h07.00.564,Simcolourproject_2stim_asymm_v5,2020.2.10,Win32,60,61025ae37ef11b136ea224fe,,,,,,,,,71,-41.99998218,-76.66667968,1,0,0,response5disk,,3,-2.666606983,0.666655958,1,0,0,rectangle,-2.666606983,0.666655958,1,0,0,-2.666606983,0.666655958,1,0,0,0,138,138,124,1,,,,,,,,
,,,,,,,,,,,,,FF,,,,,,,,1.3045,,,,,,,,,,,,,,,,,,,,,,60fd025b3771dba1f0c29671,61036c8e2e04dc1b32ea0d49,2021-07-29_21h07.00.564,Simcolourproject_2stim_asymm_v5,2020.2.10,Win32,60,61025ae37ef11b136ea224fe,,,,,,,,,1114,78.0000214,-46.66667879,1,0,0,response3disk,,5,9.333393375,1.999989331,1,0,0,rectangle,9.333393375,1.999989331,1,0,0,9.333393375,1.999989331,1,0,0,0,139,139,88,1,,,,,,,,
,,,,,,,,,,,,,FF,,,,,,,,0.8052,,,,,,,,,,,,,,,,,,,,,,60fd025b3771dba1f0c29671,61036c8e2e04dc1b32ea0d49,2021-07-29_21h07.00.564,Simcolourproject_2stim_asymm_v5,2020.2.10,Win32,60,61025ae37ef11b136ea224fe,,,,,,,,,207,95.33335525,-52.00001228,1,0,0,response3disk,,5,-5.333314419,5.99998945,1,0,0,rectangle,-5.333314419,5.99998945,1,0,0,-5.333314419,5.99998945,1,0,0,0,140,140,153,1,,,,,,,,
,,,,,,,,,,,,,FF,,,,,,,,1.3702,,,,,,,,,,,,,,,,,,,,,,60fd025b3771dba1f0c29671,61036c8e2e04dc1b32ea0d49,2021-07-29_21h07.00.564,Simcolourproject_2stim_asymm_v5,2020.2.10,Win32,60,61025ae37ef11b136ea224fe,,,,,,,,,2416,42.00002033,-78.00001305,1,0,0,response3disk,,4,-2.666606983,-2.666677475,1,0,0,rectangle,-2.666606983,-2.666677475,1,0,0,-2.666606983,-2.666677475,1,0,0,0,141,141,97,1,,,,,,,,
,,,,,,,,,,,,,FF,,,,,,,,1.287,,,,,,,,,,,,,,,,,,,,,,60fd025b3771dba1f0c29671,61036c8e2e04dc1b32ea0d49,2021-07-29_21h07.00.564,Simcolourproject_2stim_asymm_v5,2020.2.10,Win32,60,61025ae37ef11b136ea224fe,,,,,,,,,3396,-82.66660937,-43.33334535,1,0,0,response5disk,,2,12.00001943,6.666656137,1,0,0,rectangle,12.00001943,6.666656137,1,0,0,12.00001943,6.666656137,1,0,0,0,142,142,110,1,,,,,,,,
,,,,,,,,,,,,,FF,,,,,,,,1.6992,,,,,,,,,,,,,,,,,,,,,,60fd025b3771dba1f0c29671,61036c8e2e04dc1b32ea0d49,2021-07-29_21h07.00.564,Simcolourproject_2stim_asymm_v5,2020.2.10,Win32,60,61025ae37ef11b136ea224fe,,,,,,,,,687,76.66668802,-34.00001174,1,0,0,response3disk,,5,13.33339349,-1.07288E-05,1,0,0,rectangle,13.33339349,-1.07288E-05,1,0,0,13.33339349,-1.07288E-05,1,0,0,0,143,143,72,1,,,,,,,,
,,,,,,,,,,,,,FF,,,,,,,,1.0661,,,,,,,,,,,,,,,,,,,,,,60fd025b3771dba1f0c29671,61036c8e2e04dc1b32ea0d49,2021-07-29_21h07.00.564,Simcolourproject_2stim_asymm_v5,2020.2.10,Win32,60,61025ae37ef11b136ea224fe,,,,,,,,,4037,67.33335441,48.66665739,1,0,0,response1disk,,6,6.666685939,7.333322823,1,0,0,rectangle,6.666685939,7.333322823,1,0,0,6.666685939,7.333322823,1,0,0,0,144,144,80,1,,,,,,,,
,,,,,,,,,,,,,FF,,,,,,,,1.2039,,,,,,,,,,,,,,,,,,,,,,60fd025b3771dba1f0c29671,61036c8e2e04dc1b32ea0d49,2021-07-29_21h07.00.564,Simcolourproject_2stim_asymm_v5,2020.2.10,Win32,60,61025ae37ef11b136ea224fe,,,,,,,,,3667,52.66668731,25.33330301,1,0,0,response1disk,,6,-9.333314538,-13.33334446,1,0,0,rectangle,-9.333314538,-13.33334446,1,0,0,-9.333314538,-13.33334446,1,0,0,0,145,145,73,1,,,,,,,,
,,,,,,,,,,,,,FF,,,,,,,,1.5212,,,,,,,,,,,,,,,,,,,,,,60fd025b3771dba1f0c29671,61036c8e2e04dc1b32ea0d49,2021-07-29_21h07.00.564,Simcolourproject_2stim_asymm_v5,2020.2.10,Win32,60,61025ae37ef11b136ea224fe,,,,,,,,,3034,72.00002122,29.33330313,1,0,0,response1disk,,6,0.66668576,-1.07288E-05,1,0,0,rectangle,0.66668576,-1.07288E-05,1,0,0,0.66668576,-1.07288E-05,1,0,0,0,146,146,151,1,,,,,,,,
,,,,,,,,,,,,,FF,,,,,,,,0.9714,,,,,,,,,,,,,,,,,,,,,,60fd025b3771dba1f0c29671,61036c8e2e04dc1b32ea0d49,2021-07-29_21h07.00.564,Simcolourproject_2stim_asymm_v5,2020.2.10,Win32,60,61025ae37ef11b136ea224fe,,,,,,,,,1506,56.66668743,-28.00001156,1,0,0,response3disk,,5,-4.666607042,4.666656077,1,0,0,rectangle,-4.666607042,4.666656077,1,0,0,-4.666607042,4.666656077,1,0,0,0,147,147,42,1,,,,,,,,
,,,,,,,,,,,,,FF,,,,,,,,1.3814,,,,,,,,,,,,,,,,,,,,,,60fd025b3771dba1f0c29671,61036c8e2e04dc1b32ea0d49,2021-07-29_21h07.00.564,Simcolourproject_2stim_asymm_v5,2020.2.10,Win32,60,61025ae37ef11b136ea224fe,,,,,,,,,507,66.66668773,-42.66667867,1,0,0,response3disk,,5,3.333393196,-2.000010788,1,0,0,rectangle,3.333393196,-2.000010788,1,0,0,3.333393196,-2.000010788,1,0,0,0,148,148,21,1,,,,,,,,
,,,,,,,,,,,,,FF,,,,,,,,1.537,,,,,,,,,,,,,,,,,,,,,,60fd025b3771dba1f0c29671,61036c8e2e04dc1b32ea0d49,2021-07-29_21h07.00.564,Simcolourproject_2stim_asymm_v5,2020.2.10,Win32,60,61025ae37ef11b136ea224fe,,,,,,,,,2138,54.00002068,65.99999124,1,0,0,response1disk,,7,9.333393375,-0.666677415,1,0,0,rectangle,9.333393375,-0.666677415,1,0,0,9.333393375,-0.666677415,1,0,0,0,149,149,40,1,,,,,,,,
,,,,,,,,,,,,,FF,,,,,,,,3.3982,,,,,,,,,,,,,,,,,,,,,,60fd025b3771dba1f0c29671,61036c8e2e04dc1b32ea0d49,2021-07-29_21h07.00.564,Simcolourproject_2stim_asymm_v5,2020.2.10,Win32,60,61025ae37ef11b136ea224fe,,,,,,,,,273,28.00001991,-50.00001222,1,0,0,response3disk,,4,5.333393256,-4.000010848,1,0,0,rectangle,5.333393256,-4.000010848,1,0,0,5.333393256,-4.000010848,1,0,0,0,150,150,147,1,,,,,,,,
,,,,,,,,,,,,,FF,,,,,,,,0.9544,,,,,,,,,,,,,,,,,,,,,,60fd025b3771dba1f0c29671,61036c8e2e04dc1b32ea0d49,2021-07-29_21h07.00.564,Simcolourproject_2stim_asymm_v5,2020.2.10,Win32,60,61025ae37ef11b136ea224fe,,,,,,,,,518,-37.99998206,-76.66667968,1,0,0,response5disk,,3,2.66668582,3.333322704,1,0,0,rectangle,2.66668582,3.333322704,1,0,0,2.66668582,3.333322704,1,0,0,0,151,151,87,1,,,,,,,,
,,,,,,,,,,,,,FF,,,,,,,,0.8885,,,,,,,,,,,,,,,,,,,,,,60fd025b3771dba1f0c29671,61036c8e2e04dc1b32ea0d49,2021-07-29_21h07.00.564,Simcolourproject_2stim_asymm_v5,2020.2.10,Win32,60,61025ae37ef11b136ea224fe,,,,,,,,,2849,70.00002116,-29.33334494,1,0,0,response3disk,,5,6.000019252,5.99998945,1,0,0,rectangle,6.000019252,5.99998945,1,0,0,6.000019252,5.99998945,1,0,0,0,152,152,85,1,,,,,,,,
,,,,,,,,,,,,,FF,,,,,,,,0.9318,,,,,,,,,,,,,,,,,,,,,,60fd025b3771dba1f0c29671,61036c8e2e04dc1b32ea0d49,2021-07-29_21h07.00.564,Simcolourproject_2stim_asymm_v5,2020.2.10,Win32,60,61025ae37ef11b136ea224fe,,,,,,,,,3681,38.00002021,-74.00001293,1,0,0,response3disk,,4,-19.99998152,9.333322883,1,0,0,rectangle,-19.99998152,9.333322883,1,0,0,-19.99998152,9.333322883,1,0,0,0,153,153,6,1,,,,,,,,
,,,,,,,,,,,,,FF,,,,,,,,1.2549,,,,,,,,,,,,,,,,,,,,,,60fd025b3771dba1f0c29671,61036c8e2e04dc1b32ea0d49,2021-07-29_21h07.00.564,Simcolourproject_2stim_asymm_v5,2020.2.10,Win32,60,61025ae37ef11b136ea224fe,,,,,,,,,4258,74.66668797,29.99999017,1,0,0,response1disk,,6,8.000019312,-12.00001109,1,0,0,rectangle,8.000019312,-12.00001109,1,0,0,8.000019312,-12.00001109,1,0,0,0,154,154,16,1,,,,,,,,
,,,,,,,,,,,,,FF,,,,,,,,1.6491,,,,,,,,,,,,,,,,,,,,,,60fd025b3771dba1f0c29671,61036c8e2e04dc1b32ea0d49,2021-07-29_21h07.00.564,Simcolourproject_2stim_asymm_v5,2020.2.10,Win32,60,61025ae37ef11b136ea224fe,,,,,,,,,1404,68.0000211,-55.33334571,1,0,0,response3disk,,5,-16.6666074,-1.333344102,1,0,0,rectangle,-16.6666074,-1.333344102,1,0,0,-16.6666074,-1.333344102,1,0,0,0,155,155,150,1,,,,,,,,
,,,,,,,,,,,,,FF,,,,,,,,1.8336,,,,,,,,,,,,,,,,,,,,,,60fd025b3771dba1f0c29671,61036c8e2e04dc1b32ea0d49,2021-07-29_21h07.00.564,Simcolourproject_2stim_asymm_v5,2020.2.10,Win32,60,61025ae37ef11b136ea224fe,,,,,,,,,1811,51.33335394,-83.33334655,1,0,0,response3disk,,4,7.333393315,-12.66667777,1,0,0,rectangle,7.333393315,-12.66667777,1,0,0,7.333393315,-12.66667777,1,0,0,0,156,156,44,1,,,,,,,,
,,,,,,,,,,,,,FF,,,,,,,,1.0546,,,,,,,,,,,,,,,,,,,,,,60fd025b3771dba1f0c29671,61036c8e2e04dc1b32ea0d49,2021-07-29_21h07.00.564,Simcolourproject_2stim_asymm_v5,2020.2.10,Win32,60,61025ae37ef11b136ea224fe,,,,,,,,,3951,-29.99998182,-66.66667938,1,0,0,response5disk,,3,1.333393137,9.999989569,1,0,0,rectangle,1.333393137,9.999989569,1,0,0,1.333393137,9.999989569,1,0,0,0,157,157,98,1,,,,,,,,
,,,,,,,,,,,,,FF,,,,,,,,1.5162,,,,,,,,,,,,,,,,,,,,,,60fd025b3771dba1f0c29671,61036c8e2e04dc1b32ea0d49,2021-07-29_21h07.00.564,Simcolourproject_2stim_asymm_v5,2020.2.10,Win32,60,61025ae37ef11b136ea224fe,,,,,,,,,3390,-57.33331597,35.33330331,1,0,0,response7disk,,1,9.333393375,-2.000010788,1,0,0,rectangle,9.333393375,-2.000010788,1,0,0,9.333393375,-2.000010788,1,0,0,0,158,158,138,1,,,,,,,,
,,,,,,,,,,,,,FF,,,,,,,,1.6822,,,,,,,,,,,,,,,,,,,,,,60fd025b3771dba1f0c29671,61036c8e2e04dc1b32ea0d49,2021-07-29_21h07.00.564,Simcolourproject_2stim_asymm_v5,2020.2.10,Win32,60,61025ae37ef11b136ea224fe,,,,,,,,,570,-39.33331543,-74.00001293,1,0,0,response5disk,,3,7.333393315,0.666655958,1,0,0,rectangle,7.333393315,0.666655958,1,0,0,7.333393315,0.666655958,1,0,0,0,159,159,33,1,,,,,,,,
,,,,,,,,,,,,,FF,,,,,,,,2.2552,,,,,,,,,,,,,,,,,,,,,,60fd025b3771dba1f0c29671,61036c8e2e04dc1b32ea0d49,2021-07-29_21h07.00.564,Simcolourproject_2stim_asymm_v5,2020.2.10,Win32,60,61025ae37ef11b136ea224fe,,,,,,,,,2844,44.00002038,-89.33334672,1,0,0,response3disk,,4,-14.66660734,9.333322883,1,0,0,rectangle,-14.66660734,9.333322883,1,0,0,-14.66660734,9.333322883,1,0,0,1,0,160,117,1,,,,,,,,
,,,,,,,,,,,,,FF,,,,,,,,1.1489,,,,,,,,,,,,,,,,,,,,,,60fd025b3771dba1f0c29671,61036c8e2e04dc1b32ea0d49,2021-07-29_21h07.00.564,Simcolourproject_2stim_asymm_v5,2020.2.10,Win32,60,61025ae37ef11b136ea224fe,,,,,,,,,767,61.33335423,27.33330307,1,0,0,response1disk,,6,10.00001937,5.333322763,1,0,0,rectangle,10.00001937,5.333322763,1,0,0,10.00001937,5.333322763,1,0,0,1,1,161,110,1,,,,,,,,
,,,,,,,,,,,,,FF,,,,,,,,1.2483,,,,,,,,,,,,,,,,,,,,,,60fd025b3771dba1f0c29671,61036c8e2e04dc1b32ea0d49,2021-07-29_21h07.00.564,Simcolourproject_2stim_asymm_v5,2020.2.10,Win32,60,61025ae37ef11b136ea224fe,,,,,,,,,2509,90.00002176,48.66665739,1,0,0,response1disk,,6,6.666685939,-2.000010788,1,0,0,rectangle,6.666685939,-2.000010788,1,0,0,6.666685939,-2.000010788,1,0,0,1,2,162,60,1,,,,,,,,
,,,,,,,,,,,,,FF,,,,,,,,2.8052,,,,,,,,,,,,,,,,,,,,,,60fd025b3771dba1f0c29671,61036c8e2e04dc1b32ea0d49,2021-07-29_21h07.00.564,Simcolourproject_2stim_asymm_v5,2020.2.10,Win32,60,61025ae37ef11b136ea224fe,,,,,,,,,1687,-27.33331507,-65.33334601,1,0,0,response5disk,,3,4.000019193,3.99998939,1,0,0,rectangle,4.000019193,3.99998939,1,0,0,4.000019193,3.99998939,1,0,0,1,3,163,96,1,,,,,,,,
,,,,,,,,,,,,,FF,,,,,,,,1.2671,,,,,,,,,,,,,,,,,,,,,,60fd025b3771dba1f0c29671,61036c8e2e04dc1b32ea0d49,2021-07-29_21h07.00.564,Simcolourproject_2stim_asymm_v5,2020.2.10,Win32,60,61025ae37ef11b136ea224fe,,,,,,,,,1714,66.66668773,42.66665721,1,0,0,response1disk,,6,9.333393375,-2.666677475,1,0,0,rectangle,9.333393375,-2.666677475,1,0,0,9.333393375,-2.666677475,1,0,0,1,4,164,128,1,,,,,,,,
,,,,,,,,,,,,,FF,,,,,,,,1.1378,,,,,,,,,,,,,,,,,,,,,,60fd025b3771dba1f0c29671,61036c8e2e04dc1b32ea0d49,2021-07-29_21h07.00.564,Simcolourproject_2stim_asymm_v5,2020.2.10,Win32,60,61025ae37ef11b136ea224fe,,,,,,,,,2564,68.66668779,-38.00001186,1,0,0,response3disk,,5,2.66668582,2.666656017,1,0,0,rectangle,2.66668582,2.666656017,1,0,0,2.66668582,2.666656017,1,0,0,1,5,165,148,1,,,,,,,,
,,,,,,,,,,,,,FF,,,,,,,,1.3492,,,,,,,,,,,,,,,,,,,,,,60fd025b3771dba1f0c29671,61036c8e2e04dc1b32ea0d49,2021-07-29_21h07.00.564,Simcolourproject_2stim_asymm_v5,2020.2.10,Win32,60,61025ae37ef11b136ea224fe,,,,,,,,,3618,101.3333554,-23.33334476,1,0,0,response3disk,,5,-19.99998152,5.99998945,1,0,0,rectangle,-19.99998152,5.99998945,1,0,0,-19.99998152,5.99998945,1,0,0,1,6,166,24,1,,,,,,,,
,,,,,,,,,,,,,FF,,,,,,,,1.7823,,,,,,,,,,,,,,,,,,,,,,60fd025b3771dba1f0c29671,61036c8e2e04dc1b32ea0d49,2021-07-29_21h07.00.564,Simcolourproject_2stim_asymm_v5,2020.2.10,Win32,60,61025ae37ef11b136ea224fe,,,,,,,,,1048,96.66668862,-60.00001252,1,0,0,response3disk,,5,20.00001967,-2.000010788,1,0,0,rectangle,20.00001967,-2.000010788,1,0,0,20.00001967,-2.000010788,1,0,0,1,7,167,47,1,,,,,,,,
,,,,,,,,,,,,,FF,,,,,,,,0.8,,,,,,,,,,,,,,,,,,,,,,60fd025b3771dba1f0c29671,61036c8e2e04dc1b32ea0d49,2021-07-29_21h07.00.564,Simcolourproject_2stim_asymm_v5,2020.2.10,Win32,60,61025ae37ef11b136ea224fe,,,,,,,,,474,78.66668808,-32.00001168,1,0,0,response3disk,,5,-5.333314419,7.99998951,1,0,0,rectangle,-5.333314419,7.99998951,1,0,0,-5.333314419,7.99998951,1,0,0,1,8,168,123,1,,,,,,,,
,,,,,,,,,,,,,FF,,,,,,,,0.6709,,,,,,,,,,,,,,,,,,,,,,60fd025b3771dba1f0c29671,61036c8e2e04dc1b32ea0d49,2021-07-29_21h07.00.564,Simcolourproject_2stim_asymm_v5,2020.2.10,Win32,60,61025ae37ef11b136ea224fe,,,,,,,,,111,58.66668749,-25.33334482,1,0,0,response3disk,,5,-6.666607102,3.99998939,1,0,0,rectangle,-6.666607102,3.99998939,1,0,0,-6.666607102,3.99998939,1,0,0,1,9,169,87,1,,,,,,,,
,,,,,,,,,,,,,FF,,,,,,,,1.0384,,,,,,,,,,,,,,,,,,,,,,60fd025b3771dba1f0c29671,61036c8e2e04dc1b32ea0d49,2021-07-29_21h07.00.564,Simcolourproject_2stim_asymm_v5,2020.2.10,Win32,60,61025ae37ef11b136ea224fe,,,,,,,,,693,-31.99998188,-80.6666798,1,0,0,response5disk,,3,4.000019193,-3.333344162,1,0,0,rectangle,4.000019193,-3.333344162,1,0,0,4.000019193,-3.333344162,1,0,0,1,10,170,158,1,,,,,,,,
,,,,,,,,,,,,,FF,,,,,,,,1.6502,,,,,,,,,,,,,,,,,,,,,,60fd025b3771dba1f0c29671,61036c8e2e04dc1b32ea0d49,2021-07-29_21h07.00.564,Simcolourproject_2stim_asymm_v5,2020.2.10,Win32,60,61025ae37ef11b136ea224fe,,,,,,,,,2951,-65.99998289,-29.33334494,1,0,0,response5disk,,2,18.6666863,7.99998951,1,0,0,rectangle,18.6666863,7.99998951,1,0,0,18.6666863,7.99998951,1,0,0,1,11,171,102,1,,,,,,,,
,,,,,,,,,,,,,FF,,,,,,,,2.0655,,,,,,,,,,,,,,,,,,,,,,60fd025b3771dba1f0c29671,61036c8e2e04dc1b32ea0d49,2021-07-29_21h07.00.564,Simcolourproject_2stim_asymm_v5,2020.2.10,Win32,60,61025ae37ef11b136ea224fe,,,,,,,,,42,37.33339421,-74.00001293,1,0,0,response3disk,,4,4.666685879,-2.666677475,1,0,0,rectangle,4.666685879,-2.666677475,1,0,0,4.666685879,-2.666677475,1,0,0,1,12,172,93,1,,,,,,,,
,,,,,,,,,,,,,FF,,,,,,,,1.1371,,,,,,,,,,,,,,,,,,,,,,60fd025b3771dba1f0c29671,61036c8e2e04dc1b32ea0d49,2021-07-29_21h07.00.564,Simcolourproject_2stim_asymm_v5,2020.2.10,Win32,60,61025ae37ef11b136ea224fe,,,,,,,,,3602,48.0000205,-79.33334643,1,0,0,response3disk,,4,-12.66660728,-7.333344281,1,0,0,rectangle,-12.66660728,-7.333344281,1,0,0,-12.66660728,-7.333344281,1,0,0,1,13,173,25,1,,,,,,,,
,,,,,,,,,,,,,FF,,,,,,,,1.2319,,,,,,,,,,,,,,,,,,,,,,60fd025b3771dba1f0c29671,61036c8e2e04dc1b32ea0d49,2021-07-29_21h07.00.564,Simcolourproject_2stim_asymm_v5,2020.2.10,Win32,60,61025ae37ef11b136ea224fe,,,,,,,,,2594,-65.33331621,-74.66667962,1,0,0,response5disk,,3,-5.333314419,2.666656017,1,0,0,rectangle,-5.333314419,2.666656017,1,0,0,-5.333314419,2.666656017,1,0,0,1,14,174,83,1,,,,,,,,
,,,,,,,,,,,,,FF,,,,,,,,1.216,,,,,,,,,,,,,,,,,,,,,,60fd025b3771dba1f0c29671,61036c8e2e04dc1b32ea0d49,2021-07-29_21h07.00.564,Simcolourproject_2stim_asymm_v5,2020.2.10,Win32,60,61025ae37ef11b136ea224fe,,,,,,,,,3442,-71.99998307,-42.00001198,1,0,0,response5disk,,2,-7.333314478,-9.33334434,1,0,0,rectangle,-7.333314478,-9.33334434,1,0,0,-7.333314478,-9.33334434,1,0,0,1,15,175,44,1,,,,,,,,
,,,,,,,,,,,,,FF,,,,,,,,1.3832,,,,,,,,,,,,,,,,,,,,,,60fd025b3771dba1f0c29671,61036c8e2e04dc1b32ea0d49,2021-07-29_21h07.00.564,Simcolourproject_2stim_asymm_v5,2020.2.10,Win32,60,61025ae37ef11b136ea224fe,,,,,,,,,1058,-65.99998289,45.33330361,1,0,0,response7disk,,1,1.333393137,5.333322763,1,0,0,rectangle,1.333393137,5.333322763,1,0,0,1.333393137,5.333322763,1,0,0,1,16,176,11,1,,,,,,,,
,,,,,,,,,,,,,FF,,,,,,,,7.031,,,,,,,,,,,,,,,,,,,,,,60fd025b3771dba1f0c29671,61036c8e2e04dc1b32ea0d49,2021-07-29_21h07.00.564,Simcolourproject_2stim_asymm_v5,2020.2.10,Win32,60,61025ae37ef11b136ea224fe,,,,,,,,,2395,47.33335382,-68.66667944,1,0,0,response3disk,,4,10.66668606,-12.00001109,1,0,0,rectangle,10.66668606,-12.00001109,1,0,0,10.66668606,-12.00001109,1,0,0,1,17,177,91,1,,,,,,,,
,,,,,,,,,,,,,FF,,,,,,,,1.2156,,,,,,,,,,,,,,,,,,,,,,60fd025b3771dba1f0c29671,61036c8e2e04dc1b32ea0d49,2021-07-29_21h07.00.564,Simcolourproject_2stim_asymm_v5,2020.2.10,Win32,60,61025ae37ef11b136ea224fe,,,,,,,,,2474,-37.99998206,-57.33334577,1,0,0,response5disk,,3,-7.999981165,1.333322644,1,0,0,rectangle,-7.999981165,1.333322644,1,0,0,-7.999981165,1.333322644,1,0,0,1,18,178,68,1,,,,,,,,
,,,,,,,,,,,,,FF,,,,,,,,1.3985,,,,,,,,,,,,,,,,,,,,,,60fd025b3771dba1f0c29671,61036c8e2e04dc1b32ea0d49,2021-07-29_21h07.00.564,Simcolourproject_2stim_asymm_v5,2020.2.10,Win32,60,61025ae37ef11b136ea224fe,,,,,,,,,1586,32.00002003,-76.00001299,1,0,0,response3disk,,4,-1.3333143,1.999989331,1,0,0,rectangle,-1.3333143,1.999989331,1,0,0,-1.3333143,1.999989331,1,0,0,1,19,179,153,1,,,,,,,,
,,,,,,,,,,,,,FF,,,,,,,,2.032,,,,,,,,,,,,,,,,,,,,,,60fd025b3771dba1f0c29671,61036c8e2e04dc1b32ea0d49,2021-07-29_21h07.00.564,Simcolourproject_2stim_asymm_v5,2020.2.10,Win32,60,61025ae37ef11b136ea224fe,,,,,,,,,709,36.00002015,-55.33334571,1,0,0,response3disk,,4,-3.333314359,0.666655958,1,0,0,rectangle,-3.333314359,0.666655958,1,0,0,-3.333314359,0.666655958,1,0,0,1,20,180,113,1,,,,,,,,
,,,,,,,,,,,,,FF,,,,,,,,1.3706,,,,,,,,,,,,,,,,,,,,,,60fd025b3771dba1f0c29671,61036c8e2e04dc1b32ea0d49,2021-07-29_21h07.00.564,Simcolourproject_2stim_asymm_v5,2020.2.10,Win32,60,61025ae37ef11b136ea224fe,,,,,,,,,3496,-27.99998176,-58.00001246,1,0,0,response5disk,,3,2.000019133,3.333322704,1,0,0,rectangle,2.000019133,3.333322704,1,0,0,2.000019133,3.333322704,1,0,0,1,21,181,107,1,,,,,,,,
,,,,,,,,,,,,,FF,,,,,,,,1.4834,,,,,,,,,,,,,,,,,,,,,,60fd025b3771dba1f0c29671,61036c8e2e04dc1b32ea0d49,2021-07-29_21h07.00.564,Simcolourproject_2stim_asymm_v5,2020.2.10,Win32,60,61025ae37ef11b136ea224fe,,,,,,,,,4317,-79.33331662,-51.33334559,1,0,0,response5disk,,2,14.66668618,2.666656017,1,0,0,rectangle,14.66668618,2.666656017,1,0,0,14.66668618,2.666656017,1,0,0,1,22,182,82,1,,,,,,,,
,,,,,,,,,,,,,FF,,,,,,,,1.7668,,,,,,,,,,,,,,,,,,,,,,60fd025b3771dba1f0c29671,61036c8e2e04dc1b32ea0d49,2021-07-29_21h07.00.564,Simcolourproject_2stim_asymm_v5,2020.2.10,Win32,60,61025ae37ef11b136ea224fe,,,,,,,,,4,32.66668671,-75.33334631,1,0,0,response3disk,,4,8.000019312,-6.000010908,1,0,0,rectangle,8.000019312,-6.000010908,1,0,0,8.000019312,-6.000010908,1,0,0,1,23,183,20,1,,,,,,,,
,,,,,,,,,,,,,FF,,,,,,,,1.1485,,,,,,,,,,,,,,,,,,,,,,60fd025b3771dba1f0c29671,61036c8e2e04dc1b32ea0d49,2021-07-29_21h07.00.564,Simcolourproject_2stim_asymm_v5,2020.2.10,Win32,60,61025ae37ef11b136ea224fe,,,,,,,,,4156,68.66668779,-37.33334517,1,0,0,response3disk,,5,-3.999981046,1.999989331,1,0,0,rectangle,-3.999981046,1.999989331,1,0,0,-3.999981046,1.999989331,1,0,0,1,24,184,127,1,,,,,,,,
,,,,,,,,,,,,,FF,,,,,,,,0.9831,,,,,,,,,,,,,,,,,,,,,,60fd025b3771dba1f0c29671,61036c8e2e04dc1b32ea0d49,2021-07-29_21h07.00.564,Simcolourproject_2stim_asymm_v5,2020.2.10,Win32,60,61025ae37ef11b136ea224fe,,,,,,,,,1618,-65.99998289,40.66665715,1,0,0,response7disk,,1,-13.99998134,7.333322823,1,0,0,rectangle,-13.99998134,7.333322823,1,0,0,-13.99998134,7.333322823,1,0,0,1,25,185,12,1,,,,,,,,
,,,,,,,,,,,,,FF,,,,,,,,1.3172,,,,,,,,,,,,,,,,,,,,,,60fd025b3771dba1f0c29671,61036c8e2e04dc1b32ea0d49,2021-07-29_21h07.00.564,Simcolourproject_2stim_asymm_v5,2020.2.10,Win32,60,61025ae37ef11b136ea224fe,,,,,,,,,1258,84.66668826,-22.66667807,1,0,0,response3disk,,5,2.000019133,9.999989569,1,0,0,rectangle,2.000019133,9.999989569,1,0,0,2.000019133,9.999989569,1,0,0,1,26,186,121,1,,,,,,,,
,,,,,,,,,,,,,FF,,,,,,,,1.0324,,,,,,,,,,,,,,,,,,,,,,60fd025b3771dba1f0c29671,61036c8e2e04dc1b32ea0d49,2021-07-29_21h07.00.564,Simcolourproject_2stim_asymm_v5,2020.2.10,Win32,60,61025ae37ef11b136ea224fe,,,,,,,,,2744,79.33335477,-48.66667885,1,0,0,response3disk,,5,-17.33331478,11.99998963,1,0,0,rectangle,-17.33331478,11.99998963,1,0,0,-17.33331478,11.99998963,1,0,0,1,27,187,61,1,,,,,,,,
,,,,,,,,,,,,,FF,,,,,,,,1.4647,,,,,,,,,,,,,,,,,,,,,,60fd025b3771dba1f0c29671,61036c8e2e04dc1b32ea0d49,2021-07-29_21h07.00.564,Simcolourproject_2stim_asymm_v5,2020.2.10,Win32,60,61025ae37ef11b136ea224fe,,,,,,,,,4129,-71.33331639,-37.33334517,1,0,0,response5disk,,2,3.333393196,-1.333344102,1,0,0,rectangle,3.333393196,-1.333344102,1,0,0,3.333393196,-1.333344102,1,0,0,1,28,188,38,1,,,,,,,,
,,,,,,,,,,,,,FF,,,,,,,,0.8001,,,,,,,,,,,,,,,,,,,,,,60fd025b3771dba1f0c29671,61036c8e2e04dc1b32ea0d49,2021-07-29_21h07.00.564,Simcolourproject_2stim_asymm_v5,2020.2.10,Win32,60,61025ae37ef11b136ea224fe,,,,,,,,,2369,-111.3333176,-48.66667885,1,0,0,response5disk,,2,-11.99998128,-11.3333444,1,0,0,rectangle,-11.99998128,-11.3333444,1,0,0,-11.99998128,-11.3333444,1,0,0,1,29,189,52,1,,,,,,,,
,,,,,,,,,,,,,FF,,,,,,,,0.8153,,,,,,,,,,,,,,,,,,,,,,60fd025b3771dba1f0c29671,61036c8e2e04dc1b32ea0d49,2021-07-29_21h07.00.564,Simcolourproject_2stim_asymm_v5,2020.2.10,Win32,60,61025ae37ef11b136ea224fe,,,,,,,,,1756,-49.99998242,-26.66667819,1,0,0,response5disk,,2,16.66668624,0.666655958,1,0,0,rectangle,16.66668624,0.666655958,1,0,0,16.66668624,0.666655958,1,0,0,1,30,190,126,1,,,,,,,,
,,,,,,,,,,,,,FF,,,,,,,,1.0877,,,,,,,,,,,,,,,,,,,,,,60fd025b3771dba1f0c29671,61036c8e2e04dc1b32ea0d49,2021-07-29_21h07.00.564,Simcolourproject_2stim_asymm_v5,2020.2.10,Win32,60,61025ae37ef11b136ea224fe,,,,,,,,,713,38.00002021,-66.0000127,1,0,0,response3disk,,4,-2.666606983,10.66665626,1,0,0,rectangle,-2.666606983,10.66665626,1,0,0,-2.666606983,10.66665626,1,0,0,1,31,191,64,1,,,,,,,,
,,,,,,,,,,,,,FF,,,,,,,,0.9203,,,,,,,,,,,,,,,,,,,,,,60fd025b3771dba1f0c29671,61036c8e2e04dc1b32ea0d49,2021-07-29_21h07.00.564,Simcolourproject_2stim_asymm_v5,2020.2.10,Win32,60,61025ae37ef11b136ea224fe,,,,,,,,,3279,80.00002146,-43.33334535,1,0,0,response3disk,,5,-1.999980986,4.666656077,1,0,0,rectangle,-1.999980986,4.666656077,1,0,0,-1.999980986,4.666656077,1,0,0,1,32,192,3,1,,,,,,,,
,,,,,,,,,,,,,FF,,,,,,,,1.5147,,,,,,,,,,,,,,,,,,,,,,60fd025b3771dba1f0c29671,61036c8e2e04dc1b32ea0d49,2021-07-29_21h07.00.564,Simcolourproject_2stim_asymm_v5,2020.2.10,Win32,60,61025ae37ef11b136ea224fe,,,,,,,,,3414,48.0000205,-76.66667968,1,0,0,response3disk,,4,-0.666606923,-2.666677475,1,0,0,rectangle,-0.666606923,-2.666677475,1,0,0,-0.666606923,-2.666677475,1,0,0,1,33,193,89,1,,,,,,,,
,,,,,,,,,,,,,FF,,,,,,,,1.6673,,,,,,,,,,,,,,,,,,,,,,60fd025b3771dba1f0c29671,61036c8e2e04dc1b32ea0d49,2021-07-29_21h07.00.564,Simcolourproject_2stim_asymm_v5,2020.2.10,Win32,60,61025ae37ef11b136ea224fe,,,,,,,,,830,-47.33331567,-60.00001252,1,0,0,response5disk,,3,-0.666606923,-2.000010788,1,0,0,rectangle,-0.666606923,-2.000010788,1,0,0,-0.666606923,-2.000010788,1,0,0,1,34,194,29,1,,,,,,,,
,,,,,,,,,,,,,FF,,,,,,,,1.3043,,,,,,,,,,,,,,,,,,,,,,60fd025b3771dba1f0c29671,61036c8e2e04dc1b32ea0d49,2021-07-29_21h07.00.564,Simcolourproject_2stim_asymm_v5,2020.2.10,Win32,60,61025ae37ef11b136ea224fe,,,,,,,,,2437,95.33335525,27.33330307,1,0,0,response1disk,,6,-8.666607161,-3.333344162,1,0,0,rectangle,-8.666607161,-3.333344162,1,0,0,-8.666607161,-3.333344162,1,0,0,1,35,195,51,1,,,,,,,,
,,,,,,,,,,,,,FF,,,,,,,,2.7976,,,,,,,,,,,,,,,,,,,,,,60fd025b3771dba1f0c29671,61036c8e2e04dc1b32ea0d49,2021-07-29_21h07.00.564,Simcolourproject_2stim_asymm_v5,2020.2.10,Win32,60,61025ae37ef11b136ea224fe,,,,,,,,,2018,-47.99998236,-83.33334655,1,0,0,response5disk,,3,2.000019133,-0.666677415,1,0,0,rectangle,2.000019133,-0.666677415,1,0,0,2.000019133,-0.666677415,1,0,0,1,36,196,84,1,,,,,,,,
,,,,,,,,,,,,,FF,,,,,,,,1.1202,,,,,,,,,,,,,,,,,,,,,,60fd025b3771dba1f0c29671,61036c8e2e04dc1b32ea0d49,2021-07-29_21h07.00.564,Simcolourproject_2stim_asymm_v5,2020.2.10,Win32,60,61025ae37ef11b136ea224fe,,,,,,,,,2072,60.00002086,-36.66667849,1,0,0,response3disk,,5,-5.999981105,5.333322763,1,0,0,rectangle,-5.999981105,5.333322763,1,0,0,-5.999981105,5.333322763,1,0,0,1,37,197,34,1,,,,,,,,
,,,,,,,,,,,,,FF,,,,,,,,3.6641,,,,,,,,,,,,,,,,,,,,,,60fd025b3771dba1f0c29671,61036c8e2e04dc1b32ea0d49,2021-07-29_21h07.00.564,Simcolourproject_2stim_asymm_v5,2020.2.10,Win32,60,61025ae37ef11b136ea224fe,,,,,,,,,1,18.00001961,-54.66667902,1,0,0,response3disk,,4,-5.999981105,4.666656077,1,0,0,rectangle,-5.999981105,4.666656077,1,0,0,-5.999981105,4.666656077,1,0,0,1,38,198,86,1,,,,,,,,
,,,,,,,,,,,,,FF,,,,,,,,1.0822,,,,,,,,,,,,,,,,,,,,,,60fd025b3771dba1f0c29671,61036c8e2e04dc1b32ea0d49,2021-07-29_21h07.00.564,Simcolourproject_2stim_asymm_v5,2020.2.10,Win32,60,61025ae37ef11b136ea224fe,,,,,,,,,2153,-27.33331507,-70.6666795,1,0,0,response5disk,,3,-3.333314359,3.99998939,1,0,0,rectangle,-3.333314359,3.99998939,1,0,0,-3.333314359,3.99998939,1,0,0,1,39,199,26,1,,,,,,,,
,,,,,,,,,,,,,FF,,,,,,,,3.0044,,,,,,,,,,,,,,,,,,,,,,60fd025b3771dba1f0c29671,61036c8e2e04dc1b32ea0d49,2021-07-29_21h07.00.564,Simcolourproject_2stim_asymm_v5,2020.2.10,Win32,60,61025ae37ef11b136ea224fe,,,,,,,,,2506,-35.999982,-76.00001299,1,0,0,response5disk,,3,-3.333314359,7.333322823,1,0,0,rectangle,-3.333314359,7.333322823,1,0,0,-3.333314359,7.333322823,1,0,0,1,40,200,65,1,,,,,,,,
,,,,,,,,,,,,,FF,,,,,,,,1.1045,,,,,,,,,,,,,,,,,,,,,,60fd025b3771dba1f0c29671,61036c8e2e04dc1b32ea0d49,2021-07-29_21h07.00.564,Simcolourproject_2stim_asymm_v5,2020.2.10,Win32,60,61025ae37ef11b136ea224fe,,,,,,,,,3311,-39.99998212,-89.33334672,1,0,0,response5disk,,3,-7.999981165,0.666655958,1,0,0,rectangle,-7.999981165,0.666655958,1,0,0,-7.999981165,0.666655958,1,0,0,1,41,201,45,1,,,,,,,,
,,,,,,,,,,,,,FF,,,,,,,,0.92,,,,,,,,,,,,,,,,,,,,,,60fd025b3771dba1f0c29671,61036c8e2e04dc1b32ea0d49,2021-07-29_21h07.00.564,Simcolourproject_2stim_asymm_v5,2020.2.10,Win32,60,61025ae37ef11b136ea224fe,,,,,,,,,987,66.66668773,-71.33334619,1,0,0,response3disk,,4,-2.666606983,2.666656017,1,0,0,rectangle,-2.666606983,2.666656017,1,0,0,-2.666606983,2.666656017,1,0,0,1,42,202,144,1,,,,,,,,
,,,,,,,,,,,,,FF,,,,,,,,1.1822,,,,,,,,,,,,,,,,,,,,,,60fd025b3771dba1f0c29671,61036c8e2e04dc1b32ea0d49,2021-07-29_21h07.00.564,Simcolourproject_2stim_asymm_v5,2020.2.10,Win32,60,61025ae37ef11b136ea224fe,,,,,,,,,2595,-26.6666077,-74.66667962,1,0,0,response5disk,,3,8.666685998,1.333322644,1,0,0,rectangle,8.666685998,1.333322644,1,0,0,8.666685998,1.333322644,1,0,0,1,43,203,23,1,,,,,,,,
,,,,,,,,,,,,,FF,,,,,,,,0.9546,,,,,,,,,,,,,,,,,,,,,,60fd025b3771dba1f0c29671,61036c8e2e04dc1b32ea0d49,2021-07-29_21h07.00.564,Simcolourproject_2stim_asymm_v5,2020.2.10,Win32,60,61025ae37ef11b136ea224fe,,,,,,,,,2640,72.00002122,-27.33334488,1,0,0,response3disk,,5,4.000019193,0.666655958,1,0,0,rectangle,4.000019193,0.666655958,1,0,0,4.000019193,0.666655958,1,0,0,1,44,204,39,1,,,,,,,,
,,,,,,,,,,,,,FF,,,,,,,,1.171,,,,,,,,,,,,,,,,,,,,,,60fd025b3771dba1f0c29671,61036c8e2e04dc1b32ea0d49,2021-07-29_21h07.00.564,Simcolourproject_2stim_asymm_v5,2020.2.10,Win32,60,61025ae37ef11b136ea224fe,,,,,,,,,2949,-30.66660782,-59.33334583,1,0,0,response5disk,,3,1.9735E-05,-1.333344102,1,0,0,rectangle,1.9735E-05,-1.333344102,1,0,0,1.9735E-05,-1.333344102,1,0,0,1,45,205,78,1,,,,,,,,
,,,,,,,,,,,,,FF,,,,,,,,0.8053,,,,,,,,,,,,,,,,,,,,,,60fd025b3771dba1f0c29671,61036c8e2e04dc1b32ea0d49,2021-07-29_21h07.00.564,Simcolourproject_2stim_asymm_v5,2020.2.10,Win32,60,61025ae37ef11b136ea224fe,,,,,,,,,1300,-85.3333168,-32.00001168,1,0,0,response5disk,,2,-6.666607102,2.666656017,1,0,0,rectangle,-6.666607102,2.666656017,1,0,0,-6.666607102,2.666656017,1,0,0,1,46,206,146,1,,,,,,,,
,,,,,,,,,,,,,FF,,,,,,,,1.1897,,,,,,,,,,,,,,,,,,,,,,60fd025b3771dba1f0c29671,61036c8e2e04dc1b32ea0d49,2021-07-29_21h07.00.564,Simcolourproject_2stim_asymm_v5,2020.2.10,Win32,60,61025ae37ef11b136ea224fe,,,,,,,,,918,100.0000221,-30.66667831,1,0,0,response3disk,,5,-16.6666074,7.333322823,1,0,0,rectangle,-16.6666074,7.333322823,1,0,0,-16.6666074,7.333322823,1,0,0,1,47,207,16,1,,,,,,,,
,,,,,,,,,,,,,FF,,,,,,,,17.0605,,,,,,,,,,,,,,,,,,,,,,60fd025b3771dba1f0c29671,61036c8e2e04dc1b32ea0d49,2021-07-29_21h07.00.564,Simcolourproject_2stim_asymm_v5,2020.2.10,Win32,60,61025ae37ef11b136ea224fe,,,,,,,,,2406,31.33339403,-60.00001252,1,0,0,response3disk,,4,-3.999981046,9.333322883,1,0,0,rectangle,-3.999981046,9.333322883,1,0,0,-3.999981046,9.333322883,1,0,0,1,48,208,73,1,,,,,,,,
,,,,,,,,,,,,,FF,,,,,,,,1.0327,,,,,,,,,,,,,,,,,,,,,,60fd025b3771dba1f0c29671,61036c8e2e04dc1b32ea0d49,2021-07-29_21h07.00.564,Simcolourproject_2stim_asymm_v5,2020.2.10,Win32,60,61025ae37ef11b136ea224fe,,,,,,,,,3107,-70.66660901,32.66665691,1,0,0,response7disk,,1,2.000019133,-2.666677475,1,0,0,rectangle,2.000019133,-2.666677475,1,0,0,2.000019133,-2.666677475,1,0,0,1,49,209,156,1,,,,,,,,
,,,,,,,,,,,,,FF,,,,,,,,1.1648,,,,,,,,,,,,,,,,,,,,,,60fd025b3771dba1f0c29671,61036c8e2e04dc1b32ea0d49,2021-07-29_21h07.00.564,Simcolourproject_2stim_asymm_v5,2020.2.10,Win32,60,61025ae37ef11b136ea224fe,,,,,,,,,3555,-71.33331639,-21.3333447,1,0,0,response5disk,,2,4.666685879,3.333322704,1,0,0,rectangle,4.666685879,3.333322704,1,0,0,4.666685879,3.333322704,1,0,0,1,50,210,36,1,,,,,,,,
,,,,,,,,,,,,,FF,,,,,,,,0.8208,,,,,,,,,,,,,,,,,,,,,,60fd025b3771dba1f0c29671,61036c8e2e04dc1b32ea0d49,2021-07-29_21h07.00.564,Simcolourproject_2stim_asymm_v5,2020.2.10,Win32,60,61025ae37ef11b136ea224fe,,,,,,,,,432,-55.33331591,-19.33334464,1,0,0,response5disk,,2,10.00001937,0.666655958,1,0,0,rectangle,10.00001937,0.666655958,1,0,0,10.00001937,0.666655958,1,0,0,1,51,211,4,1,,,,,,,,
,,,,,,,,,,,,,FF,,,,,,,,1.6828,,,,,,,,,,,,,,,,,,,,,,60fd025b3771dba1f0c29671,61036c8e2e04dc1b32ea0d49,2021-07-29_21h07.00.564,Simcolourproject_2stim_asymm_v5,2020.2.10,Win32,60,61025ae37ef11b136ea224fe,,,,,,,,,1294,-69.33331633,-31.333345,1,0,0,response5disk,,2,4.666685879,-4.000010848,1,0,0,rectangle,4.666685879,-4.000010848,1,0,0,4.666685879,-4.000010848,1,0,0,1,52,212,76,1,,,,,,,,
,,,,,,,,,,,,,FF,,,,,,,,0.9322,,,,,,,,,,,,,,,,,,,,,,60fd025b3771dba1f0c29671,61036c8e2e04dc1b32ea0d49,2021-07-29_21h07.00.564,Simcolourproject_2stim_asymm_v5,2020.2.10,Win32,60,61025ae37ef11b136ea224fe,,,,,,,,,3269,38.66668689,-76.66667968,1,0,0,response3disk,,4,-4.666607042,-1.333344102,1,0,0,rectangle,-4.666607042,-1.333344102,1,0,0,-4.666607042,-1.333344102,1,0,0,1,53,213,77,1,,,,,,,,
,,,,,,,,,,,,,FF,,,,,,,,1.0323,,,,,,,,,,,,,,,,,,,,,,60fd025b3771dba1f0c29671,61036c8e2e04dc1b32ea0d49,2021-07-29_21h07.00.564,Simcolourproject_2stim_asymm_v5,2020.2.10,Win32,60,61025ae37ef11b136ea224fe,,,,,,,,,4084,-64.66660883,28.66665679,1,0,0,response7disk,,1,-1.3333143,-2.666677475,1,0,0,rectangle,-1.3333143,-2.666677475,1,0,0,-1.3333143,-2.666677475,1,0,0,1,54,214,30,1,,,,,,,,
,,,,,,,,,,,,,FF,,,,,,,,13.3947,,,,,,,,,,,,,,,,,,,,,,60fd025b3771dba1f0c29671,61036c8e2e04dc1b32ea0d49,2021-07-29_21h07.00.564,Simcolourproject_2stim_asymm_v5,2020.2.10,Win32,60,61025ae37ef11b136ea224fe,,,,,,,,,1398,33.33339409,-70.6666795,1,0,0,response3disk,,4,-5.999981105,3.99998939,1,0,0,rectangle,-5.999981105,3.99998939,1,0,0,-5.999981105,3.99998939,1,0,0,1,55,215,157,1,,,,,,,,
,,,,,,,,,,,,,FF,,,,,,,,1.3992,,,,,,,,,,,,,,,,,,,,,,60fd025b3771dba1f0c29671,61036c8e2e04dc1b32ea0d49,2021-07-29_21h07.00.564,Simcolourproject_2stim_asymm_v5,2020.2.10,Win32,60,61025ae37ef11b136ea224fe,,,,,,,,,1091,66.66668773,26.66665673,1,0,0,response1disk,,6,8.666685998,5.333322763,1,0,0,rectangle,8.666685998,5.333322763,1,0,0,8.666685998,5.333322763,1,0,0,1,56,216,33,1,,,,,,,,
,,,,,,,,,,,,,FF,,,,,,,,1.2496,,,,,,,,,,,,,,,,,,,,,,60fd025b3771dba1f0c29671,61036c8e2e04dc1b32ea0d49,2021-07-29_21h07.00.564,Simcolourproject_2stim_asymm_v5,2020.2.10,Win32,60,61025ae37ef11b136ea224fe,,,,,,,,,4289,73.33335459,-26.0000115,1,0,0,response3disk,,5,-3.333314359,-2.666677475,1,0,0,rectangle,-3.333314359,-2.666677475,1,0,0,-3.333314359,-2.666677475,1,0,0,1,57,217,101,1,,,,,,,,
,,,,,,,,,,,,,FF,,,,,,,,2.2825,,,,,,,,,,,,,,,,,,,,,,60fd025b3771dba1f0c29671,61036c8e2e04dc1b32ea0d49,2021-07-29_21h07.00.564,Simcolourproject_2stim_asymm_v5,2020.2.10,Win32,60,61025ae37ef11b136ea224fe,,,,,,,,,3806,-39.99998212,-70.00001281,1,0,0,response5disk,,3,18.00001961,11.99998963,1,0,0,rectangle,18.00001961,11.99998963,1,0,0,18.00001961,11.99998963,1,0,0,1,58,218,112,1,,,,,,,,
,,,,,,,,,,,,,FF,,,,,,,,0.8364,,,,,,,,,,,,,,,,,,,,,,60fd025b3771dba1f0c29671,61036c8e2e04dc1b32ea0d49,2021-07-29_21h07.00.564,Simcolourproject_2stim_asymm_v5,2020.2.10,Win32,60,61025ae37ef11b136ea224fe,,,,,,,,,1873,90.66668844,-37.33334517,1,0,0,response3disk,,5,3.333393196,-1.333344102,1,0,0,rectangle,3.333393196,-1.333344102,1,0,0,3.333393196,-1.333344102,1,0,0,1,59,219,6,1,,,,,,,,
,,,,,,,,,,,,,FF,,,,,,,,0.8874,,,,,,,,,,,,,,,,,,,,,,60fd025b3771dba1f0c29671,61036c8e2e04dc1b32ea0d49,2021-07-29_21h07.00.564,Simcolourproject_2stim_asymm_v5,2020.2.10,Win32,60,61025ae37ef11b136ea224fe,,,,,,,,,3157,-68.66660895,-34.00001174,1,0,0,response5disk,,2,-4.666607042,-2.000010788,1,0,0,rectangle,-4.666607042,-2.000010788,1,0,0,-4.666607042,-2.000010788,1,0,0,1,60,220,66,1,,,,,,,,
,,,,,,,,,,,,,FF,,,,,,,,1.0327,,,,,,,,,,,,,,,,,,,,,,60fd025b3771dba1f0c29671,61036c8e2e04dc1b32ea0d49,2021-07-29_21h07.00.564,Simcolourproject_2stim_asymm_v5,2020.2.10,Win32,60,61025ae37ef11b136ea224fe,,,,,,,,,3451,44.66668707,-78.66667974,1,0,0,response3disk,,4,-9.333314538,-2.666677475,1,0,0,rectangle,-9.333314538,-2.666677475,1,0,0,-9.333314538,-2.666677475,1,0,0,1,61,221,46,1,,,,,,,,
,,,,,,,,,,,,,FF,,,,,,,,9.8182,,,,,,,,,,,,,,,,,,,,,,60fd025b3771dba1f0c29671,61036c8e2e04dc1b32ea0d49,2021-07-29_21h07.00.564,Simcolourproject_2stim_asymm_v5,2020.2.10,Win32,60,61025ae37ef11b136ea224fe,,,,,,,,,272,-19.33331484,-102.0000138,1,0,0,response5disk,,3,-2.666606983,-6.666677594,1,0,0,rectangle,-2.666606983,-6.666677594,1,0,0,-2.666606983,-6.666677594,1,0,0,1,62,222,97,1,,,,,,,,
,,,,,,,,,,,,,FF,,,,,,,,1.0205,,,,,,,,,,,,,,,,,,,,,,60fd025b3771dba1f0c29671,61036c8e2e04dc1b32ea0d49,2021-07-29_21h07.00.564,Simcolourproject_2stim_asymm_v5,2020.2.10,Win32,60,61025ae37ef11b136ea224fe,,,,,,,,,598,41.33339433,-65.33334601,1,0,0,response3disk,,4,3.333393196,-6.666677594,1,0,0,rectangle,3.333393196,-6.666677594,1,0,0,3.333393196,-6.666677594,1,0,0,1,63,223,134,1,,,,,,,,
,,,,,,,,,,,,,FF,,,,,,,,0.8209,,,,,,,,,,,,,,,,,,,,,,60fd025b3771dba1f0c29671,61036c8e2e04dc1b32ea0d49,2021-07-29_21h07.00.564,Simcolourproject_2stim_asymm_v5,2020.2.10,Win32,60,61025ae37ef11b136ea224fe,,,,,,,,,2237,-65.99998289,-38.66667855,1,0,0,response5disk,,2,2.66668582,-0.666677415,1,0,0,rectangle,2.66668582,-0.666677415,1,0,0,2.66668582,-0.666677415,1,0,0,1,64,224,49,1,,,,,,,,
,,,,,,,,,,,,,FF,,,,,,,,0.767,,,,,,,,,,,,,,,,,,,,,,60fd025b3771dba1f0c29671,61036c8e2e04dc1b32ea0d49,2021-07-29_21h07.00.564,Simcolourproject_2stim_asymm_v5,2020.2.10,Win32,60,61025ae37ef11b136ea224fe,,,,,,,,,2026,-61.99998277,17.99998981,1,0,0,response7disk,,1,-7.333314478,-11.3333444,1,0,0,rectangle,-44.66660823,71.33330439,1,0,0,-5.999981105,-5.333344221,1,0,0,1,65,225,131,1,,response7disk_3,TRUE,0,0,"[138,67,282,248,226,241,102,58,17,53,268,135,257,289,248,244,11,49,63,20]",1.6151,rectangle
,,,,,,,,,,,,,FF,,,,,,,,1.9701,,,,,,,,,,,,,,,,,,,,,,60fd025b3771dba1f0c29671,61036c8e2e04dc1b32ea0d49,2021-07-29_21h07.00.564,Simcolourproject_2stim_asymm_v5,2020.2.10,Win32,60,61025ae37ef11b136ea224fe,,,,,,,,,1464,-95.99998379,-42.66667867,1,0,0,response5disk,,2,13.33339349,8.666656196,1,0,0,rectangle,13.33339349,8.666656196,1,0,0,13.33339349,8.666656196,1,0,0,1,66,226,104,1,,,,,,,,
,,,,,,,,,,,,,FF,,,,,,,,0.971,,,,,,,,,,,,,,,,,,,,,,60fd025b3771dba1f0c29671,61036c8e2e04dc1b32ea0d49,2021-07-29_21h07.00.564,Simcolourproject_2stim_asymm_v5,2020.2.10,Win32,60,61025ae37ef11b136ea224fe,,,,,,,,,716,-21.99998158,65.99999124,1,0,0,response7disk,,0,6.666685939,4.666656077,1,0,0,rectangle,6.666685939,4.666656077,1,0,0,6.666685939,4.666656077,1,0,0,1,67,227,132,1,,,,,,,,
,,,,,,,,,,,,,FF,,,,,,,,0.8541,,,,,,,,,,,,,,,,,,,,,,60fd025b3771dba1f0c29671,61036c8e2e04dc1b32ea0d49,2021-07-29_21h07.00.564,Simcolourproject_2stim_asymm_v5,2020.2.10,Win32,60,61025ae37ef11b136ea224fe,,,,,,,,,2615,-69.99998301,22.66665661,1,0,0,response7disk,,1,-9.333314538,-6.000010908,1,0,0,rectangle,-9.333314538,-6.000010908,1,0,0,-9.333314538,-6.000010908,1,0,0,1,68,228,59,1,,,,,,,,
,,,,,,,,,,,,,FF,,,,,,,,0.8545,,,,,,,,,,,,,,,,,,,,,,60fd025b3771dba1f0c29671,61036c8e2e04dc1b32ea0d49,2021-07-29_21h07.00.564,Simcolourproject_2stim_asymm_v5,2020.2.10,Win32,60,61025ae37ef11b136ea224fe,,,,,,,,,2958,43.3333537,-62.00001258,1,0,0,response3disk,,4,10.00001937,-8.000010967,1,0,0,rectangle,10.00001937,-8.000010967,1,0,0,10.00001937,-8.000010967,1,0,0,1,69,229,54,1,,,,,,,,
,,,,,,,,,,,,,FF,,,,,,,,1.3317,,,,,,,,,,,,,,,,,,,,,,60fd025b3771dba1f0c29671,61036c8e2e04dc1b32ea0d49,2021-07-29_21h07.00.564,Simcolourproject_2stim_asymm_v5,2020.2.10,Win32,60,61025ae37ef11b136ea224fe,,,,,,,,,1518,64.66668767,-40.66667861,1,0,0,response3disk,,5,-2.666606983,10.66665626,1,0,0,rectangle,-2.666606983,10.66665626,1,0,0,-2.666606983,10.66665626,1,0,0,1,70,230,155,1,,,,,,,,
,,,,,,,,,,,,,FF,,,,,,,,1.4325,,,,,,,,,,,,,,,,,,,,,,60fd025b3771dba1f0c29671,61036c8e2e04dc1b32ea0d49,2021-07-29_21h07.00.564,Simcolourproject_2stim_asymm_v5,2020.2.10,Win32,60,61025ae37ef11b136ea224fe,,,,,,,,,2511,90.66668844,-31.333345,1,0,0,response3disk,,5,-3.999981046,7.333322823,1,0,0,rectangle,-3.999981046,7.333322823,1,0,0,-3.999981046,7.333322823,1,0,0,1,71,231,63,1,,,,,,,,
,,,,,,,,,,,,,FF,,,,,,,,1.1039,,,,,,,,,,,,,,,,,,,,,,60fd025b3771dba1f0c29671,61036c8e2e04dc1b32ea0d49,2021-07-29_21h07.00.564,Simcolourproject_2stim_asymm_v5,2020.2.10,Win32,60,61025ae37ef11b136ea224fe,,,,,,,,,3166,-29.33331513,-59.33334583,1,0,0,response5disk,,3,-3.333314359,9.333322883,1,0,0,rectangle,-3.333314359,9.333322883,1,0,0,-3.333314359,9.333322883,1,0,0,1,72,232,43,1,,,,,,,,
,,,,,,,,,,,,,FF,,,,,,,,0.817,,,,,,,,,,,,,,,,,,,,,,60fd025b3771dba1f0c29671,61036c8e2e04dc1b32ea0d49,2021-07-29_21h07.00.564,Simcolourproject_2stim_asymm_v5,2020.2.10,Win32,60,61025ae37ef11b136ea224fe,,,,,,,,,3675,-83.33331674,45.33330361,1,0,0,response7disk,,1,-4.666607042,3.99998939,1,0,0,rectangle,-4.666607042,3.99998939,1,0,0,-4.666607042,3.99998939,1,0,0,1,73,233,10,1,,,,,,,,
,,,,,,,,,,,,,FF,,,,,,,,0.8317,,,,,,,,,,,,,,,,,,,,,,60fd025b3771dba1f0c29671,61036c8e2e04dc1b32ea0d49,2021-07-29_21h07.00.564,Simcolourproject_2stim_asymm_v5,2020.2.10,Win32,60,61025ae37ef11b136ea224fe,,,,,,,,,754,60.66668755,-73.33334625,1,0,0,response3disk,,4,8.666685998,-5.333344221,1,0,0,rectangle,8.666685998,-5.333344221,1,0,0,8.666685998,-5.333344221,1,0,0,1,74,234,99,1,,,,,,,,
,,,,,,,,,,,,,FF,,,,,,,,3.4154,,,,,,,,,,,,,,,,,,,,,,60fd025b3771dba1f0c29671,61036c8e2e04dc1b32ea0d49,2021-07-29_21h07.00.564,Simcolourproject_2stim_asymm_v5,2020.2.10,Win32,60,61025ae37ef11b136ea224fe,,,,,,,,,2446,84.66668826,25.33330301,1,0,0,response1disk,,6,0.66668576,-5.333344221,1,0,0,rectangle,0.66668576,-5.333344221,1,0,0,0.66668576,-5.333344221,1,0,0,1,75,235,56,1,,,,,,,,
,,,,,,,,,,,,,FF,,,,,,,,1.0375,,,,,,,,,,,,,,,,,,,,,,60fd025b3771dba1f0c29671,61036c8e2e04dc1b32ea0d49,2021-07-29_21h07.00.564,Simcolourproject_2stim_asymm_v5,2020.2.10,Win32,60,61025ae37ef11b136ea224fe,,,,,,,,,604,52.00002062,-72.00001287,1,0,0,response3disk,,4,-4.666607042,9.999989569,1,0,0,rectangle,-4.666607042,9.999989569,1,0,0,-4.666607042,9.999989569,1,0,0,1,76,236,114,1,,,,,,,,
,,,,,,,,,,,,,FF,,,,,,,,1.3711,,,,,,,,,,,,,,,,,,,,,,60fd025b3771dba1f0c29671,61036c8e2e04dc1b32ea0d49,2021-07-29_21h07.00.564,Simcolourproject_2stim_asymm_v5,2020.2.10,Win32,60,61025ae37ef11b136ea224fe,,,,,,,,,939,104.6666889,-60.6666792,1,0,0,response3disk,,5,4.666685879,13.99998969,1,0,0,rectangle,4.666685879,13.99998969,1,0,0,4.666685879,13.99998969,1,0,0,1,77,237,130,1,,,,,,,,
,,,,,,,,,,,,,FF,,,,,,,,1.121,,,,,,,,,,,,,,,,,,,,,,60fd025b3771dba1f0c29671,61036c8e2e04dc1b32ea0d49,2021-07-29_21h07.00.564,Simcolourproject_2stim_asymm_v5,2020.2.10,Win32,60,61025ae37ef11b136ea224fe,,,,,,,,,408,92.6666885,-30.66667831,1,0,0,response3disk,,5,-7.999981165,11.33332294,1,0,0,rectangle,-7.999981165,11.33332294,1,0,0,-7.999981165,11.33332294,1,0,0,1,78,238,85,1,,,,,,,,
,,,,,,,,,,,,,FF,,,,,,,,1.038,,,,,,,,,,,,,,,,,,,,,,60fd025b3771dba1f0c29671,61036c8e2e04dc1b32ea0d49,2021-07-29_21h07.00.564,Simcolourproject_2stim_asymm_v5,2020.2.10,Win32,60,61025ae37ef11b136ea224fe,,,,,,,,,3478,-55.33331591,43.99999058,1,0,0,response7disk,,1,6.666685939,1.333322644,1,0,0,rectangle,6.666685939,1.333322644,1,0,0,6.666685939,1.333322644,1,0,0,1,79,239,2,1,,,,,,,,
,,,,,,,,,,,,,FF,,,,,,,,1.233,,,,,,,,,,,,,,,,,,,,,,60fd025b3771dba1f0c29671,61036c8e2e04dc1b32ea0d49,2021-07-29_21h07.00.564,Simcolourproject_2stim_asymm_v5,2020.2.10,Win32,60,61025ae37ef11b136ea224fe,,,,,,,,,2187,40.66668695,-74.66667962,1,0,0,response3disk,,4,14.66668618,-1.333344102,1,0,0,rectangle,36.66668683,-80.6666798,1,0,0,-7.999981165,-1.333344102,1,0,0,1,80,240,139,1,,response3disk_3,TRUE,4,4,"[138,67,282,248,226,241,102,58,17,53,268,135,257,289,248,244,11,49,63,20]",1.503,rectangle
,,,,,,,,,,,,,FF,,,,,,,,0.9997,,,,,,,,,,,,,,,,,,,,,,60fd025b3771dba1f0c29671,61036c8e2e04dc1b32ea0d49,2021-07-29_21h07.00.564,Simcolourproject_2stim_asymm_v5,2020.2.10,Win32,60,61025ae37ef11b136ea224fe,,,,,,,,,3122,38.66668689,-71.33334619,1,0,0,response3disk,,4,3.333393196,9.999989569,1,0,0,rectangle,3.333393196,9.999989569,1,0,0,3.333393196,9.999989569,1,0,0,1,81,241,111,1,,,,,,,,
,,,,,,,,,,,,,FF,,,,,,,,2.5868,,,,,,,,,,,,,,,,,,,,,,60fd025b3771dba1f0c29671,61036c8e2e04dc1b32ea0d49,2021-07-29_21h07.00.564,Simcolourproject_2stim_asymm_v5,2020.2.10,Win32,60,61025ae37ef11b136ea224fe,,,,,,,,,1164,20.00001967,-56.66667908,1,0,0,response3disk,,4,-3.333314359,3.99998939,1,0,0,rectangle,-3.333314359,3.99998939,1,0,0,-3.333314359,3.99998939,1,0,0,1,82,242,41,1,,,,,,,,
,,,,,,,,,,,,,FF,,,,,,,,1.5376,,,,,,,,,,,,,,,,,,,,,,60fd025b3771dba1f0c29671,61036c8e2e04dc1b32ea0d49,2021-07-29_21h07.00.564,Simcolourproject_2stim_asymm_v5,2020.2.10,Win32,60,61025ae37ef11b136ea224fe,,,,,,,,,3313,109.3333557,-46.66667879,1,0,0,response3disk,,5,2.000019133,-2.666677475,1,0,0,rectangle,-55.33331591,55.99999094,1,0,0,-7.999981165,-1.333344102,1,0,0,1,83,243,129,1,,response7disk_3,TRUE,0,1,"[138,67,282,248,226,241,102,58,17,53,268,135,257,289,248,244,11,49,63,20]",1.5003,rectangle
