key_resp.keys,key_resp.rt,key_resp_14.keys,key_resp_14.rt,key_resp_15.keys,key_resp_15.rt,key_resp_17.keys,key_resp_17.rt,key_resp_9.keys,key_resp_9.rt,key_resp_10.keys,key_resp_10.rt,practice_comparison,Ecc,mouse_5.x,mouse_5.y,mouse_5.leftButton,mouse_5.midButton,mouse_5.rightButton,mouse_5.clicked_name,pracsimilarity,response_time,mouse_10.x,mouse_10.y,mouse_10.leftButton,mouse_10.midButton,mouse_10.rightButton,mouse_10.clicked_name,mouse_7.x,mouse_7.y,mouse_7.leftButton,mouse_7.midButton,mouse_7.rightButton,mouse_6.x,mouse_6.y,mouse_6.leftButton,mouse_6.midButton,mouse_6.rightButton,duringprac.thisRepN,duringprac.thisTrialN,duringprac.thisN,duringprac.thisIndex,duringprac.ran,participant,session,date,expName,psychopyVersion,OS,frameRate,study_id,mouse_7.clicked_name,catchpracsimilarity,catch_response_time,catchnumberprac,catchtrialorderprac,mouse_6.clicked_name,key_resp_22.keys,key_resp_22.rt,realcomparison,mouse.x,mouse.y,mouse.leftButton,mouse.midButton,mouse.rightButton,mouse.clicked_name,Colour2,similarity,mouse_2.x,mouse_2.y,mouse_2.leftButton,mouse_2.midButton,mouse_2.rightButton,mouse_2.clicked_name,mouse_3.x,mouse_3.y,mouse_3.leftButton,mouse_3.midButton,mouse_3.rightButton,mouse_11.x,mouse_11.y,mouse_11.leftButton,mouse_11.midButton,mouse_11.rightButton,trials_2.thisRepN,trials_2.thisTrialN,trials_2.thisN,trials_2.thisIndex,trials_2.ran,Colour1,mouse_3.clicked_name,catchornah,catchsimilarity,catchnumber,catchtrialorder,catchRT,mouse_11.clicked_name
space,1.4638,space,17.9486,space,8.0574,space,4.848,space,17.3831,space,3.1327,6,PF,-40.09375,97.73046875,1,0,0,response7disk_5,0,9.2181,-5.26953125,-2.8984375,1,0,0,rectangle_8,-5.26953125,-2.8984375,1,0,0,-5.26953125,-2.8984375,1,0,0,0,0,0,1,1,60fd5aa0c4e4ead0c9a6fff7,61036eebdfbeb787579eee8f,2021-07-30_15h19.22.047,Simcolourproject_2stim_asymm_v5,2020.2.10,MacIntel,60,61025ae37ef11b136ea224fe,,,,,,,,,,,,,,,,,,,,,,,,,,,,,,,,,,,,,,,,,,,,,,
,,,,,,,,,,,,22,FF,24.78515625,71.1796875,1,0,0,response1disk_5,7,1.8163,9.078125,0.421875,1,0,0,rectangle_8,48.4609375,77.60546875,1,0,0,8.44921875,-8.41015625,1,0,0,0,1,1,3,1,60fd5aa0c4e4ead0c9a6fff7,61036eebdfbeb787579eee8f,2021-07-30_15h19.22.047,Simcolourproject_2stim_asymm_v5,2020.2.10,MacIntel,60,61025ae37ef11b136ea224fe,response1disk_7,7,2.3328,7,"[2,5]",rectangle_4,,,,,,,,,,,,,,,,,,,,,,,,,,,,,,,,,,,,,,,,
,,,,,,,,,,,,154,FF,26.6328125,-18.97265625,1,0,0,response3disk_5,5,4.7499,15.65625,-6.3984375,1,0,0,rectangle_8,15.65625,-6.3984375,1,0,0,15.65625,-6.3984375,1,0,0,0,2,2,5,1,60fd5aa0c4e4ead0c9a6fff7,61036eebdfbeb787579eee8f,2021-07-30_15h19.22.047,Simcolourproject_2stim_asymm_v5,2020.2.10,MacIntel,60,61025ae37ef11b136ea224fe,,,,,,,,,,,,,,,,,,,,,,,,,,,,,,,,,,,,,,,,,,,,,,
,,,,,,,,,,,,66,PF,27.03515625,67.28125,1,0,0,response1disk_5,7,1.1812,-5.265625,13.625,1,0,0,rectangle_8,-5.265625,13.625,1,0,0,-5.265625,13.625,1,0,0,0,3,3,4,1,60fd5aa0c4e4ead0c9a6fff7,61036eebdfbeb787579eee8f,2021-07-30_15h19.22.047,Simcolourproject_2stim_asymm_v5,2020.2.10,MacIntel,60,61025ae37ef11b136ea224fe,,,,,,,,,,,,,,,,,,,,,,,,,,,,,,,,,,,,,,,,,,,,,,
,,,,,,,,,,,,53,PF,38.203125,74.40625,1,0,0,response1disk_5,7,0.7336,16.78515625,5.60546875,1,0,0,rectangle_8,26.13671875,43.77734375,1,0,0,1.0234375,-9.07421875,1,0,0,0,4,4,2,1,60fd5aa0c4e4ead0c9a6fff7,61036eebdfbeb787579eee8f,2021-07-30_15h19.22.047,Simcolourproject_2stim_asymm_v5,2020.2.10,MacIntel,60,61025ae37ef11b136ea224fe,response1disk_7,7,2.5854,7,"[2,5]",rectangle_4,,,,,,,,,,,,,,,,,,,,,,,,,,,,,,,,,,,,,,,,
,,,,,,,,,,,,114,FF,55.3515625,76.20703125,1,0,0,response1disk_5,7,1.0002,29.828125,7.98828125,1,0,0,rectangle_8,29.828125,7.98828125,1,0,0,29.828125,7.98828125,1,0,0,0,5,5,0,1,60fd5aa0c4e4ead0c9a6fff7,61036eebdfbeb787579eee8f,2021-07-30_15h19.22.047,Simcolourproject_2stim_asymm_v5,2020.2.10,MacIntel,60,61025ae37ef11b136ea224fe,,,,,,,,,,,,,,,,,,,,,,,,,,,,,,,,,,,,,,,,,,,,,,
,,,,,,,,,,,,100,PF,-68.33984375,-99.92578125,1,0,0,response5disk_5,3,2.4009,-12.37890625,-5.34375,1,0,0,rectangle_8,-12.37890625,-5.34375,1,0,0,-12.37890625,-5.34375,1,0,0,0,6,6,6,1,60fd5aa0c4e4ead0c9a6fff7,61036eebdfbeb787579eee8f,2021-07-30_15h19.22.047,Simcolourproject_2stim_asymm_v5,2020.2.10,MacIntel,60,61025ae37ef11b136ea224fe,,,,,,,,,,,,,,,,,,,,,,,,,,,,,,,,,,,,,,,,,,,,,,
,,,,,,,,,,,,,FF,,,,,,,,4.4338,,,,,,,,,,,,,,,,,,,,,,60fd5aa0c4e4ead0c9a6fff7,61036eebdfbeb787579eee8f,2021-07-30_15h19.22.047,Simcolourproject_2stim_asymm_v5,2020.2.10,MacIntel,60,61025ae37ef11b136ea224fe,,,,,,,space,3.6435,3896,89.41796875,31.76953125,1,0,0,response1disk,,6,18.5859375,3.25,1,0,0,rectangle,18.5859375,3.25,1,0,0,18.5859375,3.25,1,0,0,0,0,0,40,1,,,,,,,,
,,,,,,,,,,,,,FF,,,,,,,,1.832,,,,,,,,,,,,,,,,,,,,,,60fd5aa0c4e4ead0c9a6fff7,61036eebdfbeb787579eee8f,2021-07-30_15h19.22.047,Simcolourproject_2stim_asymm_v5,2020.2.10,MacIntel,60,61025ae37ef11b136ea224fe,,,,,,,,,3795,87.99609375,-49.32421875,1,0,0,response3disk,,5,20.40625,17.4140625,1,0,0,rectangle,20.40625,17.4140625,1,0,0,20.40625,17.4140625,1,0,0,0,1,1,144,1,,,,,,,,
,,,,,,,,,,,,,FF,,,,,,,,0.8654,,,,,,,,,,,,,,,,,,,,,,60fd5aa0c4e4ead0c9a6fff7,61036eebdfbeb787579eee8f,2021-07-30_15h19.22.047,Simcolourproject_2stim_asymm_v5,2020.2.10,MacIntel,60,61025ae37ef11b136ea224fe,,,,,,,,,1009,52.0390625,67.1328125,1,0,0,response1disk,,7,28.54296875,-1.46875,1,0,0,rectangle,28.54296875,-1.46875,1,0,0,28.54296875,-1.46875,1,0,0,0,2,2,81,1,,,,,,,,
,,,,,,,,,,,,,FF,,,,,,,,1.3339,,,,,,,,,,,,,,,,,,,,,,60fd5aa0c4e4ead0c9a6fff7,61036eebdfbeb787579eee8f,2021-07-30_15h19.22.047,Simcolourproject_2stim_asymm_v5,2020.2.10,MacIntel,60,61025ae37ef11b136ea224fe,,,,,,,,,3270,43.58203125,61.74609375,1,0,0,response1disk,,7,2.1484375,-2.8984375,1,0,0,rectangle,2.1484375,-2.8984375,1,0,0,2.1484375,-2.8984375,1,0,0,0,3,3,140,1,,,,,,,,
,,,,,,,,,,,,,FF,,,,,,,,1.5154,,,,,,,,,,,,,,,,,,,,,,60fd5aa0c4e4ead0c9a6fff7,61036eebdfbeb787579eee8f,2021-07-30_15h19.22.047,Simcolourproject_2stim_asymm_v5,2020.2.10,MacIntel,60,61025ae37ef11b136ea224fe,,,,,,,,,2111,-91.2421875,-43.57421875,1,0,0,response5disk,,2,11.2734375,-0.40625,1,0,0,rectangle,11.2734375,-0.40625,1,0,0,11.2734375,-0.40625,1,0,0,0,4,4,148,1,,,,,,,,
,,,,,,,,,,,,,FF,,,,,,,,2.0168,,,,,,,,,,,,,,,,,,,,,,60fd5aa0c4e4ead0c9a6fff7,61036eebdfbeb787579eee8f,2021-07-30_15h19.22.047,Simcolourproject_2stim_asymm_v5,2020.2.10,MacIntel,60,61025ae37ef11b136ea224fe,,,,,,,,,3975,-54.546875,-79.4453125,1,0,0,response5disk,,3,5.08203125,-13.7734375,1,0,0,rectangle,5.08203125,-13.7734375,1,0,0,5.08203125,-13.7734375,1,0,0,0,5,5,128,1,,,,,,,,
,,,,,,,,,,,,,FF,,,,,,,,1.3331,,,,,,,,,,,,,,,,,,,,,,60fd5aa0c4e4ead0c9a6fff7,61036eebdfbeb787579eee8f,2021-07-30_15h19.22.047,Simcolourproject_2stim_asymm_v5,2020.2.10,MacIntel,60,61025ae37ef11b136ea224fe,,,,,,,,,3831,-34.85546875,-90.0390625,1,0,0,response5disk,,3,-0.00390625,-8.73828125,1,0,0,rectangle,-0.00390625,-8.73828125,1,0,0,-0.00390625,-8.73828125,1,0,0,0,6,6,112,1,,,,,,,,
,,,,,,,,,,,,,FF,,,,,,,,2.8647,,,,,,,,,,,,,,,,,,,,,,60fd5aa0c4e4ead0c9a6fff7,61036eebdfbeb787579eee8f,2021-07-30_15h19.22.047,Simcolourproject_2stim_asymm_v5,2020.2.10,MacIntel,60,61025ae37ef11b136ea224fe,,,,,,,,,1201,47.38671875,-64.76171875,1,0,0,response3disk,,4,27.76171875,-9.26953125,1,0,0,rectangle,27.76171875,-9.26953125,1,0,0,27.76171875,-9.26953125,1,0,0,0,7,7,130,1,,,,,,,,
,,,,,,,,,,,,,FF,,,,,,,,1.1831,,,,,,,,,,,,,,,,,,,,,,60fd5aa0c4e4ead0c9a6fff7,61036eebdfbeb787579eee8f,2021-07-30_15h19.22.047,Simcolourproject_2stim_asymm_v5,2020.2.10,MacIntel,60,61025ae37ef11b136ea224fe,,,,,,,,,2372,-70.625,-41.6328125,1,0,0,response5disk,,2,10.8515625,-15.40625,1,0,0,rectangle,10.8515625,-15.40625,1,0,0,10.8515625,-15.40625,1,0,0,0,8,8,151,1,,,,,,,,
,,,,,,,,,,,,,FF,,,,,,,,1.2682,,,,,,,,,,,,,,,,,,,,,,60fd5aa0c4e4ead0c9a6fff7,61036eebdfbeb787579eee8f,2021-07-30_15h19.22.047,Simcolourproject_2stim_asymm_v5,2020.2.10,MacIntel,60,61025ae37ef11b136ea224fe,,,,,,,,,2331,48.2890625,62.75,1,0,0,response1disk,,7,11.3515625,-15.4765625,1,0,0,rectangle,11.3515625,-15.4765625,1,0,0,11.3515625,-15.4765625,1,0,0,0,9,9,101,1,,,,,,,,
,,,,,,,,,,,,,FF,,,,,,,,0.7496,,,,,,,,,,,,,,,,,,,,,,60fd5aa0c4e4ead0c9a6fff7,61036eebdfbeb787579eee8f,2021-07-30_15h19.22.047,Simcolourproject_2stim_asymm_v5,2020.2.10,MacIntel,60,61025ae37ef11b136ea224fe,,,,,,,,,2642,26.68359375,41.3984375,1,0,0,response1disk,,7,11.51171875,3.47265625,1,0,0,rectangle,11.51171875,3.47265625,1,0,0,11.51171875,3.47265625,1,0,0,0,10,10,136,1,,,,,,,,
,,,,,,,,,,,,,FF,,,,,,,,1.5492,,,,,,,,,,,,,,,,,,,,,,60fd5aa0c4e4ead0c9a6fff7,61036eebdfbeb787579eee8f,2021-07-30_15h19.22.047,Simcolourproject_2stim_asymm_v5,2020.2.10,MacIntel,60,61025ae37ef11b136ea224fe,,,,,,,,,2722,-108.7265625,-40.0703125,1,0,0,response5disk,,2,-16.48046875,0.87109375,1,0,0,rectangle,-16.48046875,0.87109375,1,0,0,-16.48046875,0.87109375,1,0,0,0,11,11,85,1,,,,,,,,
,,,,,,,,,,,,,FF,,,,,,,,2.9663,,,,,,,,,,,,,,,,,,,,,,60fd5aa0c4e4ead0c9a6fff7,61036eebdfbeb787579eee8f,2021-07-30_15h19.22.047,Simcolourproject_2stim_asymm_v5,2020.2.10,MacIntel,60,61025ae37ef11b136ea224fe,,,,,,,,,2402,78.51953125,28.015625,1,0,0,response1disk,,6,32.25,-5.2421875,1,0,0,rectangle,32.25,-5.2421875,1,0,0,32.25,-5.2421875,1,0,0,0,12,12,21,1,,,,,,,,
,,,,,,,,,,,,,FF,,,,,,,,0.9666,,,,,,,,,,,,,,,,,,,,,,60fd5aa0c4e4ead0c9a6fff7,61036eebdfbeb787579eee8f,2021-07-30_15h19.22.047,Simcolourproject_2stim_asymm_v5,2020.2.10,MacIntel,60,61025ae37ef11b136ea224fe,,,,,,,,,1343,56.05859375,-31.265625,1,0,0,response3disk,,5,25.89453125,-10.1484375,1,0,0,rectangle,25.89453125,-10.1484375,1,0,0,25.89453125,-10.1484375,1,0,0,0,13,13,152,1,,,,,,,,
,,,,,,,,,,,,,FF,,,,,,,,0.9326,,,,,,,,,,,,,,,,,,,,,,60fd5aa0c4e4ead0c9a6fff7,61036eebdfbeb787579eee8f,2021-07-30_15h19.22.047,Simcolourproject_2stim_asymm_v5,2020.2.10,MacIntel,60,61025ae37ef11b136ea224fe,,,,,,,,,2651,39.67578125,49.09765625,1,0,0,response1disk,,7,25.4296875,-2.5859375,1,0,0,rectangle,25.4296875,-2.5859375,1,0,0,25.4296875,-2.5859375,1,0,0,0,14,14,93,1,,,,,,,,
,,,,,,,,,,,,,FF,,,,,,,,1.9828,,,,,,,,,,,,,,,,,,,,,,60fd5aa0c4e4ead0c9a6fff7,61036eebdfbeb787579eee8f,2021-07-30_15h19.22.047,Simcolourproject_2stim_asymm_v5,2020.2.10,MacIntel,60,61025ae37ef11b136ea224fe,,,,,,,,,4321,24.7109375,82.08984375,1,0,0,response1disk,,7,5.1171875,0.140625,1,0,0,rectangle,5.1171875,0.140625,1,0,0,5.1171875,0.140625,1,0,0,0,15,15,134,1,,,,,,,,
,,,,,,,,,,,,,FF,,,,,,,,0.5839,,,,,,,,,,,,,,,,,,,,,,60fd5aa0c4e4ead0c9a6fff7,61036eebdfbeb787579eee8f,2021-07-30_15h19.22.047,Simcolourproject_2stim_asymm_v5,2020.2.10,MacIntel,60,61025ae37ef11b136ea224fe,,,,,,,,,1568,43.921875,50.52734375,1,0,0,response1disk,,7,17.3984375,7.91015625,1,0,0,rectangle,17.3984375,7.91015625,1,0,0,17.3984375,7.91015625,1,0,0,0,16,16,145,1,,,,,,,,
,,,,,,,,,,,,,FF,,,,,,,,1.1831,,,,,,,,,,,,,,,,,,,,,,60fd5aa0c4e4ead0c9a6fff7,61036eebdfbeb787579eee8f,2021-07-30_15h19.22.047,Simcolourproject_2stim_asymm_v5,2020.2.10,MacIntel,60,61025ae37ef11b136ea224fe,,,,,,,,,4345,-59.01171875,37.19921875,1,0,0,response7disk,,1,-25.04296875,-2.46875,1,0,0,rectangle,-25.04296875,-2.46875,1,0,0,-25.04296875,-2.46875,1,0,0,0,17,17,42,1,,,,,,,,
,,,,,,,,,,,,,FF,,,,,,,,0.7002,,,,,,,,,,,,,,,,,,,,,,60fd5aa0c4e4ead0c9a6fff7,61036eebdfbeb787579eee8f,2021-07-30_15h19.22.047,Simcolourproject_2stim_asymm_v5,2020.2.10,MacIntel,60,61025ae37ef11b136ea224fe,,,,,,,,,1253,20.8515625,54.58203125,1,0,0,response1disk,,7,14.03515625,-0.08203125,1,0,0,rectangle,14.03515625,-0.08203125,1,0,0,14.03515625,-0.08203125,1,0,0,0,18,18,35,1,,,,,,,,
,,,,,,,,,,,,,FF,,,,,,,,1.2161,,,,,,,,,,,,,,,,,,,,,,60fd5aa0c4e4ead0c9a6fff7,61036eebdfbeb787579eee8f,2021-07-30_15h19.22.047,Simcolourproject_2stim_asymm_v5,2020.2.10,MacIntel,60,61025ae37ef11b136ea224fe,,,,,,,,,2500,46.05078125,60.02734375,1,0,0,response1disk,,7,29.27734375,-2.52734375,1,0,0,rectangle,29.27734375,-2.52734375,1,0,0,29.27734375,-2.52734375,1,0,0,0,19,19,124,1,,,,,,,,
,,,,,,,,,,,,,FF,,,,,,,,0.7176,,,,,,,,,,,,,,,,,,,,,,60fd5aa0c4e4ead0c9a6fff7,61036eebdfbeb787579eee8f,2021-07-30_15h19.22.047,Simcolourproject_2stim_asymm_v5,2020.2.10,MacIntel,60,61025ae37ef11b136ea224fe,,,,,,,,,160,45.3359375,68.7734375,1,0,0,response1disk,,7,19.96875,-3.34375,1,0,0,rectangle,19.96875,-3.34375,1,0,0,19.96875,-3.34375,1,0,0,0,20,20,78,1,,,,,,,,
,,,,,,,,,,,,,FF,,,,,,,,0.933,,,,,,,,,,,,,,,,,,,,,,60fd5aa0c4e4ead0c9a6fff7,61036eebdfbeb787579eee8f,2021-07-30_15h19.22.047,Simcolourproject_2stim_asymm_v5,2020.2.10,MacIntel,60,61025ae37ef11b136ea224fe,,,,,,,,,2846,34.484375,-59.78515625,1,0,0,response3disk,,4,30.171875,-11.1484375,1,0,0,rectangle,30.171875,-11.1484375,1,0,0,30.171875,-11.1484375,1,0,0,0,21,21,67,1,,,,,,,,
,,,,,,,,,,,,,FF,,,,,,,,1.0831,,,,,,,,,,,,,,,,,,,,,,60fd5aa0c4e4ead0c9a6fff7,61036eebdfbeb787579eee8f,2021-07-30_15h19.22.047,Simcolourproject_2stim_asymm_v5,2020.2.10,MacIntel,60,61025ae37ef11b136ea224fe,,,,,,,,,1305,-41.41796875,-54.3828125,1,0,0,response5disk,,3,-7.77734375,-13.76953125,1,0,0,rectangle,-7.77734375,-13.76953125,1,0,0,-7.77734375,-13.76953125,1,0,0,0,22,22,8,1,,,,,,,,
,,,,,,,,,,,,,FF,,,,,,,,1.6499,,,,,,,,,,,,,,,,,,,,,,60fd5aa0c4e4ead0c9a6fff7,61036eebdfbeb787579eee8f,2021-07-30_15h19.22.047,Simcolourproject_2stim_asymm_v5,2020.2.10,MacIntel,60,61025ae37ef11b136ea224fe,,,,,,,,,2098,-87.43359375,27.11328125,1,0,0,response7disk,,1,-2.30078125,11.26953125,1,0,0,rectangle,-2.30078125,11.26953125,1,0,0,-2.30078125,11.26953125,1,0,0,0,23,23,107,1,,,,,,,,
,,,,,,,,,,,,,FF,,,,,,,,0.9181,,,,,,,,,,,,,,,,,,,,,,60fd5aa0c4e4ead0c9a6fff7,61036eebdfbeb787579eee8f,2021-07-30_15h19.22.047,Simcolourproject_2stim_asymm_v5,2020.2.10,MacIntel,60,61025ae37ef11b136ea224fe,,,,,,,,,2409,55.81640625,66.1328125,1,0,0,response1disk,,7,24.83203125,-6.69140625,1,0,0,rectangle,24.83203125,-6.69140625,1,0,0,24.83203125,-6.69140625,1,0,0,0,24,24,123,1,,,,,,,,
,,,,,,,,,,,,,FF,,,,,,,,0.7164,,,,,,,,,,,,,,,,,,,,,,60fd5aa0c4e4ead0c9a6fff7,61036eebdfbeb787579eee8f,2021-07-30_15h19.22.047,Simcolourproject_2stim_asymm_v5,2020.2.10,MacIntel,60,61025ae37ef11b136ea224fe,,,,,,,,,232,67.52734375,25.1953125,1,0,0,response1disk,,6,20.76953125,5.93359375,1,0,0,rectangle,20.76953125,5.93359375,1,0,0,20.76953125,5.93359375,1,0,0,0,25,25,97,1,,,,,,,,
,,,,,,,,,,,,,FF,,,,,,,,4.2513,,,,,,,,,,,,,,,,,,,,,,60fd5aa0c4e4ead0c9a6fff7,61036eebdfbeb787579eee8f,2021-07-30_15h19.22.047,Simcolourproject_2stim_asymm_v5,2020.2.10,MacIntel,60,61025ae37ef11b136ea224fe,,,,,,,,,3373,-48.453125,-73.21484375,1,0,0,response5disk,,3,-15.95703125,-5.8203125,1,0,0,rectangle,-15.95703125,-5.8203125,1,0,0,-15.95703125,-5.8203125,1,0,0,0,26,26,5,1,,,,,,,,
,,,,,,,,,,,,,FF,,,,,,,,0.7334,,,,,,,,,,,,,,,,,,,,,,60fd5aa0c4e4ead0c9a6fff7,61036eebdfbeb787579eee8f,2021-07-30_15h19.22.047,Simcolourproject_2stim_asymm_v5,2020.2.10,MacIntel,60,61025ae37ef11b136ea224fe,,,,,,,,,3225,24.90234375,64.5625,1,0,0,response1disk,,7,-3.6640625,7.71875,1,0,0,rectangle,-3.6640625,7.71875,1,0,0,-3.6640625,7.71875,1,0,0,0,27,27,16,1,,,,,,,,
,,,,,,,,,,,,,FF,,,,,,,,1.835,,,,,,,,,,,,,,,,,,,,,,60fd5aa0c4e4ead0c9a6fff7,61036eebdfbeb787579eee8f,2021-07-30_15h19.22.047,Simcolourproject_2stim_asymm_v5,2020.2.10,MacIntel,60,61025ae37ef11b136ea224fe,,,,,,,,,3628,115.9296875,-70.8125,1,0,0,response3disk,,5,27.58984375,-10.64453125,1,0,0,rectangle,27.58984375,-10.64453125,1,0,0,27.58984375,-10.64453125,1,0,0,0,28,28,63,1,,,,,,,,
,,,,,,,,,,,,,FF,,,,,,,,3.6998,,,,,,,,,,,,,,,,,,,,,,60fd5aa0c4e4ead0c9a6fff7,61036eebdfbeb787579eee8f,2021-07-30_15h19.22.047,Simcolourproject_2stim_asymm_v5,2020.2.10,MacIntel,60,61025ae37ef11b136ea224fe,,,,,,,,,2411,106.7460938,17.5234375,1,0,0,response1disk,,6,5.26171875,1.51171875,1,0,0,rectangle,5.26171875,1.51171875,1,0,0,5.26171875,1.51171875,1,0,0,0,29,29,58,1,,,,,,,,
,,,,,,,,,,,,,FF,,,,,,,,0.717,,,,,,,,,,,,,,,,,,,,,,60fd5aa0c4e4ead0c9a6fff7,61036eebdfbeb787579eee8f,2021-07-30_15h19.22.047,Simcolourproject_2stim_asymm_v5,2020.2.10,MacIntel,60,61025ae37ef11b136ea224fe,,,,,,,,,2676,67.9296875,-30.35546875,1,0,0,response3disk,,5,25.17578125,-11.67578125,1,0,0,rectangle,25.17578125,-11.67578125,1,0,0,25.17578125,-11.67578125,1,0,0,0,30,30,104,1,,,,,,,,
,,,,,,,,,,,,,FF,,,,,,,,0.9499,,,,,,,,,,,,,,,,,,,,,,60fd5aa0c4e4ead0c9a6fff7,61036eebdfbeb787579eee8f,2021-07-30_15h19.22.047,Simcolourproject_2stim_asymm_v5,2020.2.10,MacIntel,60,61025ae37ef11b136ea224fe,,,,,,,,,3272,43.6796875,70.34765625,1,0,0,response1disk,,7,3.83203125,8.35546875,1,0,0,rectangle,3.83203125,8.35546875,1,0,0,3.83203125,8.35546875,1,0,0,0,31,31,121,1,,,,,,,,
,,,,,,,,,,,,,FF,,,,,,,,0.5832,,,,,,,,,,,,,,,,,,,,,,60fd5aa0c4e4ead0c9a6fff7,61036eebdfbeb787579eee8f,2021-07-30_15h19.22.047,Simcolourproject_2stim_asymm_v5,2020.2.10,MacIntel,60,61025ae37ef11b136ea224fe,,,,,,,,,308,29.51171875,52.94140625,1,0,0,response1disk,,7,1.5703125,6.75,1,0,0,rectangle,1.5703125,6.75,1,0,0,1.5703125,6.75,1,0,0,0,32,32,43,1,,,,,,,,
,,,,,,,,,,,,,FF,,,,,,,,1.1163,,,,,,,,,,,,,,,,,,,,,,60fd5aa0c4e4ead0c9a6fff7,61036eebdfbeb787579eee8f,2021-07-30_15h19.22.047,Simcolourproject_2stim_asymm_v5,2020.2.10,MacIntel,60,61025ae37ef11b136ea224fe,,,,,,,,,2838,-61.96875,-80.56640625,1,0,0,response5disk,,3,-24.453125,-6.66015625,1,0,0,rectangle,-24.453125,-6.66015625,1,0,0,-24.453125,-6.66015625,1,0,0,0,33,33,74,1,,,,,,,,
,,,,,,,,,,,,,FF,,,,,,,,1.4479,,,,,,,,,,,,,,,,,,,,,,60fd5aa0c4e4ead0c9a6fff7,61036eebdfbeb787579eee8f,2021-07-30_15h19.22.047,Simcolourproject_2stim_asymm_v5,2020.2.10,MacIntel,60,61025ae37ef11b136ea224fe,,,,,,,,,197,-48.27734375,-86.1796875,1,0,0,response5disk,,3,-28.5625,-1.375,1,0,0,rectangle,43.0390625,-30.59765625,1,0,0,14.21484375,-11.8828125,1,0,0,0,34,34,90,1,,response3disk_3,TRUE,5,7,"[167,229,146,61,189,237,302,35,265,218,84,284,215,184,131,177,294,154,193,263]",1.6166,rectangle
,,,,,,,,,,,,,FF,,,,,,,,1.8832,,,,,,,,,,,,,,,,,,,,,,60fd5aa0c4e4ead0c9a6fff7,61036eebdfbeb787579eee8f,2021-07-30_15h19.22.047,Simcolourproject_2stim_asymm_v5,2020.2.10,MacIntel,60,61025ae37ef11b136ea224fe,,,,,,,,,2745,31.8671875,61.48046875,1,0,0,response1disk,,7,-4.0546875,8.16015625,1,0,0,rectangle,-4.0546875,8.16015625,1,0,0,-4.0546875,8.16015625,1,0,0,0,35,35,56,1,,,,,,,,
,,,,,,,,,,,,,FF,,,,,,,,1.6335,,,,,,,,,,,,,,,,,,,,,,60fd5aa0c4e4ead0c9a6fff7,61036eebdfbeb787579eee8f,2021-07-30_15h19.22.047,Simcolourproject_2stim_asymm_v5,2020.2.10,MacIntel,60,61025ae37ef11b136ea224fe,,,,,,,,,1545,59.64453125,68.640625,1,0,0,response1disk,,7,16.02734375,5.1484375,1,0,0,rectangle,16.02734375,5.1484375,1,0,0,16.02734375,5.1484375,1,0,0,0,36,36,157,1,,,,,,,,
,,,,,,,,,,,,,FF,,,,,,,,0.867,,,,,,,,,,,,,,,,,,,,,,60fd5aa0c4e4ead0c9a6fff7,61036eebdfbeb787579eee8f,2021-07-30_15h19.22.047,Simcolourproject_2stim_asymm_v5,2020.2.10,MacIntel,60,61025ae37ef11b136ea224fe,,,,,,,,,1332,39.796875,64.11328125,1,0,0,response1disk,,7,15.23828125,-6.2421875,1,0,0,rectangle,15.23828125,-6.2421875,1,0,0,15.23828125,-6.2421875,1,0,0,0,37,37,138,1,,,,,,,,
,,,,,,,,,,,,,FF,,,,,,,,1.1824,,,,,,,,,,,,,,,,,,,,,,60fd5aa0c4e4ead0c9a6fff7,61036eebdfbeb787579eee8f,2021-07-30_15h19.22.047,Simcolourproject_2stim_asymm_v5,2020.2.10,MacIntel,60,61025ae37ef11b136ea224fe,,,,,,,,,2226,-54.2890625,64.9296875,1,0,0,response7disk,,0,-13.23046875,-6.546875,1,0,0,rectangle,-13.23046875,-6.546875,1,0,0,-13.23046875,-6.546875,1,0,0,0,38,38,24,1,,,,,,,,
,,,,,,,,,,,,,FF,,,,,,,,1.5491,,,,,,,,,,,,,,,,,,,,,,60fd5aa0c4e4ead0c9a6fff7,61036eebdfbeb787579eee8f,2021-07-30_15h19.22.047,Simcolourproject_2stim_asymm_v5,2020.2.10,MacIntel,60,61025ae37ef11b136ea224fe,,,,,,,,,1736,75.55078125,-39.80078125,1,0,0,response3disk,,5,29.02734375,-13.88671875,1,0,0,rectangle,29.02734375,-13.88671875,1,0,0,29.02734375,-13.88671875,1,0,0,0,39,39,110,1,,,,,,,,
,,,,,,,,,,,,,FF,,,,,,,,0.9828,,,,,,,,,,,,,,,,,,,,,,60fd5aa0c4e4ead0c9a6fff7,61036eebdfbeb787579eee8f,2021-07-30_15h19.22.047,Simcolourproject_2stim_asymm_v5,2020.2.10,MacIntel,60,61025ae37ef11b136ea224fe,,,,,,,,,2796,29.2265625,-28.3125,1,0,0,response3disk,,5,21.69921875,-3.21875,1,0,0,rectangle,21.69921875,-3.21875,1,0,0,21.69921875,-3.21875,1,0,0,0,40,40,149,1,,,,,,,,
,,,,,,,,,,,,,FF,,,,,,,,1.4501,,,,,,,,,,,,,,,,,,,,,,60fd5aa0c4e4ead0c9a6fff7,61036eebdfbeb787579eee8f,2021-07-30_15h19.22.047,Simcolourproject_2stim_asymm_v5,2020.2.10,MacIntel,60,61025ae37ef11b136ea224fe,,,,,,,,,1056,-59.75390625,-79.71484375,1,0,0,response5disk,,3,-3.0546875,10.40625,1,0,0,rectangle,-3.0546875,10.40625,1,0,0,-3.0546875,10.40625,1,0,0,0,41,41,50,1,,,,,,,,
,,,,,,,,,,,,,FF,,,,,,,,0.9004,,,,,,,,,,,,,,,,,,,,,,60fd5aa0c4e4ead0c9a6fff7,61036eebdfbeb787579eee8f,2021-07-30_15h19.22.047,Simcolourproject_2stim_asymm_v5,2020.2.10,MacIntel,60,61025ae37ef11b136ea224fe,,,,,,,,,2041,-38.30859375,-50.15234375,1,0,0,response5disk,,3,-20.40625,-0.23828125,1,0,0,rectangle,-20.40625,-0.23828125,1,0,0,-20.40625,-0.23828125,1,0,0,0,42,42,92,1,,,,,,,,
,,,,,,,,,,,,,FF,,,,,,,,1.0509,,,,,,,,,,,,,,,,,,,,,,60fd5aa0c4e4ead0c9a6fff7,61036eebdfbeb787579eee8f,2021-07-30_15h19.22.047,Simcolourproject_2stim_asymm_v5,2020.2.10,MacIntel,60,61025ae37ef11b136ea224fe,,,,,,,,,1969,44.5390625,-51.97265625,1,0,0,response3disk,,4,26.0234375,-14.2265625,1,0,0,rectangle,26.0234375,-14.2265625,1,0,0,26.0234375,-14.2265625,1,0,0,0,43,43,98,1,,,,,,,,
,,,,,,,,,,,,,FF,,,,,,,,0.5012,,,,,,,,,,,,,,,,,,,,,,60fd5aa0c4e4ead0c9a6fff7,61036eebdfbeb787579eee8f,2021-07-30_15h19.22.047,Simcolourproject_2stim_asymm_v5,2020.2.10,MacIntel,60,61025ae37ef11b136ea224fe,,,,,,,,,3651,30.734375,-56.3828125,1,0,0,response3disk,,4,25.38671875,-9.1015625,1,0,0,rectangle,25.38671875,-9.1015625,1,0,0,25.38671875,-9.1015625,1,0,0,0,44,44,29,1,,,,,,,,
,,,,,,,,,,,,,FF,,,,,,,,0.666,,,,,,,,,,,,,,,,,,,,,,60fd5aa0c4e4ead0c9a6fff7,61036eebdfbeb787579eee8f,2021-07-30_15h19.22.047,Simcolourproject_2stim_asymm_v5,2020.2.10,MacIntel,60,61025ae37ef11b136ea224fe,,,,,,,,,1571,32.31640625,-44.39453125,1,0,0,response3disk,,4,19.9140625,-11.1796875,1,0,0,rectangle,19.9140625,-11.1796875,1,0,0,19.9140625,-11.1796875,1,0,0,0,45,45,23,1,,,,,,,,
,,,,,,,,,,,,,FF,,,,,,,,0.5843,,,,,,,,,,,,,,,,,,,,,,60fd5aa0c4e4ead0c9a6fff7,61036eebdfbeb787579eee8f,2021-07-30_15h19.22.047,Simcolourproject_2stim_asymm_v5,2020.2.10,MacIntel,60,61025ae37ef11b136ea224fe,,,,,,,,,284,69.8046875,-22.1640625,1,0,0,response3disk,,5,4.1484375,3.36328125,1,0,0,rectangle,4.1484375,3.36328125,1,0,0,4.1484375,3.36328125,1,0,0,0,46,46,18,1,,,,,,,,
,,,,,,,,,,,,,FF,,,,,,,,3.3353,,,,,,,,,,,,,,,,,,,,,,60fd5aa0c4e4ead0c9a6fff7,61036eebdfbeb787579eee8f,2021-07-30_15h19.22.047,Simcolourproject_2stim_asymm_v5,2020.2.10,MacIntel,60,61025ae37ef11b136ea224fe,,,,,,,,,3571,54.56640625,-24.1171875,1,0,0,response3disk,,5,14.04296875,15.53515625,1,0,0,rectangle,14.04296875,15.53515625,1,0,0,14.04296875,15.53515625,1,0,0,0,47,47,82,1,,,,,,,,
,,,,,,,,,,,,,FF,,,,,,,,4.7834,,,,,,,,,,,,,,,,,,,,,,60fd5aa0c4e4ead0c9a6fff7,61036eebdfbeb787579eee8f,2021-07-30_15h19.22.047,Simcolourproject_2stim_asymm_v5,2020.2.10,MacIntel,60,61025ae37ef11b136ea224fe,,,,,,,,,1243,33.90234375,84.76953125,1,0,0,response1disk,,7,-1.55078125,2.453125,1,0,0,rectangle,-1.55078125,2.453125,1,0,0,-1.55078125,2.453125,1,0,0,0,48,48,37,1,,,,,,,,
,,,,,,,,,,,,,FF,,,,,,,,5.7653,,,,,,,,,,,,,,,,,,,,,,60fd5aa0c4e4ead0c9a6fff7,61036eebdfbeb787579eee8f,2021-07-30_15h19.22.047,Simcolourproject_2stim_asymm_v5,2020.2.10,MacIntel,60,61025ae37ef11b136ea224fe,,,,,,,,,3825,46.9140625,-84.3984375,1,0,0,response3disk,,4,-14.4765625,1.55078125,1,0,0,rectangle,-14.4765625,1.55078125,1,0,0,-14.4765625,1.55078125,1,0,0,0,49,49,80,1,,,,,,,,
,,,,,,,,,,,,,FF,,,,,,,,2.3006,,,,,,,,,,,,,,,,,,,,,,60fd5aa0c4e4ead0c9a6fff7,61036eebdfbeb787579eee8f,2021-07-30_15h19.22.047,Simcolourproject_2stim_asymm_v5,2020.2.10,MacIntel,60,61025ae37ef11b136ea224fe,,,,,,,,,709,91.984375,-59.7578125,1,0,0,response3disk,,5,24.8515625,11.421875,1,0,0,rectangle,24.8515625,11.421875,1,0,0,24.8515625,11.421875,1,0,0,0,50,50,125,1,,,,,,,,
,,,,,,,,,,,,,FF,,,,,,,,2.6159,,,,,,,,,,,,,,,,,,,,,,60fd5aa0c4e4ead0c9a6fff7,61036eebdfbeb787579eee8f,2021-07-30_15h19.22.047,Simcolourproject_2stim_asymm_v5,2020.2.10,MacIntel,60,61025ae37ef11b136ea224fe,,,,,,,,,307,68.6484375,32.7109375,1,0,0,response1disk,,6,-22.98828125,-4.16015625,1,0,0,rectangle,-22.98828125,-4.16015625,1,0,0,-22.98828125,-4.16015625,1,0,0,0,51,51,129,1,,,,,,,,
,,,,,,,,,,,,,FF,,,,,,,,0.6157,,,,,,,,,,,,,,,,,,,,,,60fd5aa0c4e4ead0c9a6fff7,61036eebdfbeb787579eee8f,2021-07-30_15h19.22.047,Simcolourproject_2stim_asymm_v5,2020.2.10,MacIntel,60,61025ae37ef11b136ea224fe,,,,,,,,,1988,17.62890625,40.21875,1,0,0,response1disk,,7,2.40625,-4.4375,1,0,0,rectangle,2.40625,-4.4375,1,0,0,2.40625,-4.4375,1,0,0,0,52,52,96,1,,,,,,,,
,,,,,,,,,,,,,FF,,,,,,,,0.4994,,,,,,,,,,,,,,,,,,,,,,60fd5aa0c4e4ead0c9a6fff7,61036eebdfbeb787579eee8f,2021-07-30_15h19.22.047,Simcolourproject_2stim_asymm_v5,2020.2.10,MacIntel,60,61025ae37ef11b136ea224fe,,,,,,,,,1284,43.4609375,54.43359375,1,0,0,response1disk,,7,6.03125,-1.16796875,1,0,0,rectangle,6.03125,-1.16796875,1,0,0,6.03125,-1.16796875,1,0,0,0,53,53,133,1,,,,,,,,
,,,,,,,,,,,,,FF,,,,,,,,14.3167,,,,,,,,,,,,,,,,,,,,,,60fd5aa0c4e4ead0c9a6fff7,61036eebdfbeb787579eee8f,2021-07-30_15h19.22.047,Simcolourproject_2stim_asymm_v5,2020.2.10,MacIntel,60,61025ae37ef11b136ea224fe,,,,,,,,,3578,59.17578125,75.66015625,1,0,0,response1disk,,7,13.5,12.19140625,1,0,0,rectangle,13.5,12.19140625,1,0,0,13.5,12.19140625,1,0,0,0,54,54,51,1,,,,,,,,
,,,,,,,,,,,,,FF,,,,,,,,1.3164,,,,,,,,,,,,,,,,,,,,,,60fd5aa0c4e4ead0c9a6fff7,61036eebdfbeb787579eee8f,2021-07-30_15h19.22.047,Simcolourproject_2stim_asymm_v5,2020.2.10,MacIntel,60,61025ae37ef11b136ea224fe,,,,,,,,,4081,47.75390625,82.48046875,1,0,0,response1disk,,7,-7.515625,6.046875,1,0,0,rectangle,-7.515625,6.046875,1,0,0,-7.515625,6.046875,1,0,0,0,55,55,6,1,,,,,,,,
,,,,,,,,,,,,,FF,,,,,,,,0.8664,,,,,,,,,,,,,,,,,,,,,,60fd5aa0c4e4ead0c9a6fff7,61036eebdfbeb787579eee8f,2021-07-30_15h19.22.047,Simcolourproject_2stim_asymm_v5,2020.2.10,MacIntel,60,61025ae37ef11b136ea224fe,,,,,,,,,3457,18.3359375,59.59765625,1,0,0,response1disk,,7,-6.78125,-4.46875,1,0,0,rectangle,-6.78125,-4.46875,1,0,0,-6.78125,-4.46875,1,0,0,0,56,56,113,1,,,,,,,,
,,,,,,,,,,,,,FF,,,,,,,,0.6993,,,,,,,,,,,,,,,,,,,,,,60fd5aa0c4e4ead0c9a6fff7,61036eebdfbeb787579eee8f,2021-07-30_15h19.22.047,Simcolourproject_2stim_asymm_v5,2020.2.10,MacIntel,60,61025ae37ef11b136ea224fe,,,,,,,,,3123,25.04296875,58.68359375,1,0,0,response1disk,,7,-6,4.9375,1,0,0,rectangle,-6,4.9375,1,0,0,-6,4.9375,1,0,0,0,57,57,30,1,,,,,,,,
,,,,,,,,,,,,,FF,,,,,,,,0.7841,,,,,,,,,,,,,,,,,,,,,,60fd5aa0c4e4ead0c9a6fff7,61036eebdfbeb787579eee8f,2021-07-30_15h19.22.047,Simcolourproject_2stim_asymm_v5,2020.2.10,MacIntel,60,61025ae37ef11b136ea224fe,,,,,,,,,1140,44.65625,81.2734375,1,0,0,response1disk,,7,14.546875,-2.03125,1,0,0,rectangle,14.546875,-2.03125,1,0,0,14.546875,-2.03125,1,0,0,0,58,58,76,1,,,,,,,,
,,,,,,,,,,,,,FF,,,,,,,,0.815,,,,,,,,,,,,,,,,,,,,,,60fd5aa0c4e4ead0c9a6fff7,61036eebdfbeb787579eee8f,2021-07-30_15h19.22.047,Simcolourproject_2stim_asymm_v5,2020.2.10,MacIntel,60,61025ae37ef11b136ea224fe,,,,,,,,,3226,42.1484375,58.87890625,1,0,0,response1disk,,7,24.25390625,7.43359375,1,0,0,rectangle,24.25390625,7.43359375,1,0,0,24.25390625,7.43359375,1,0,0,0,59,59,120,1,,,,,,,,
,,,,,,,,,,,,,FF,,,,,,,,1.166,,,,,,,,,,,,,,,,,,,,,,60fd5aa0c4e4ead0c9a6fff7,61036eebdfbeb787579eee8f,2021-07-30_15h19.22.047,Simcolourproject_2stim_asymm_v5,2020.2.10,MacIntel,60,61025ae37ef11b136ea224fe,,,,,,,,,3589,-61.63671875,-52.23046875,1,0,0,response5disk,,2,-8.28515625,-5.40625,1,0,0,rectangle,-92.78125,-42.64453125,1,0,0,-16.640625,-0.93359375,1,0,0,0,60,60,131,1,,response5disk_3,TRUE,2,2,"[167,229,146,61,189,237,302,35,265,218,84,284,215,184,131,177,294,154,193,263]",2.683,rectangle
,,,,,,,,,,,,,FF,,,,,,,,1.7994,,,,,,,,,,,,,,,,,,,,,,60fd5aa0c4e4ead0c9a6fff7,61036eebdfbeb787579eee8f,2021-07-30_15h19.22.047,Simcolourproject_2stim_asymm_v5,2020.2.10,MacIntel,60,61025ae37ef11b136ea224fe,,,,,,,,,2483,68.75,-21.63671875,1,0,0,response3disk,,5,20.13671875,1.3203125,1,0,0,rectangle,20.13671875,1.3203125,1,0,0,20.13671875,1.3203125,1,0,0,0,61,61,44,1,,,,,,,,
,,,,,,,,,,,,,FF,,,,,,,,9.7328,,,,,,,,,,,,,,,,,,,,,,60fd5aa0c4e4ead0c9a6fff7,61036eebdfbeb787579eee8f,2021-07-30_15h19.22.047,Simcolourproject_2stim_asymm_v5,2020.2.10,MacIntel,60,61025ae37ef11b136ea224fe,,,,,,,,,1047,26.6171875,49.34765625,1,0,0,response1disk,,7,9.5546875,-14.51171875,1,0,0,rectangle,9.5546875,-14.51171875,1,0,0,9.5546875,-14.51171875,1,0,0,0,62,62,15,1,,,,,,,,
,,,,,,,,,,,,,FF,,,,,,,,0.9492,,,,,,,,,,,,,,,,,,,,,,60fd5aa0c4e4ead0c9a6fff7,61036eebdfbeb787579eee8f,2021-07-30_15h19.22.047,Simcolourproject_2stim_asymm_v5,2020.2.10,MacIntel,60,61025ae37ef11b136ea224fe,,,,,,,,,4285,46.95703125,45.5625,1,0,0,response1disk,,6,20.65625,-7.40234375,1,0,0,rectangle,20.65625,-7.40234375,1,0,0,20.65625,-7.40234375,1,0,0,0,63,63,155,1,,,,,,,,
,,,,,,,,,,,,,FF,,,,,,,,0.5824,,,,,,,,,,,,,,,,,,,,,,60fd5aa0c4e4ead0c9a6fff7,61036eebdfbeb787579eee8f,2021-07-30_15h19.22.047,Simcolourproject_2stim_asymm_v5,2020.2.10,MacIntel,60,61025ae37ef11b136ea224fe,,,,,,,,,1646,31.95703125,62.66796875,1,0,0,response1disk,,7,13.4296875,6.48828125,1,0,0,rectangle,13.4296875,6.48828125,1,0,0,13.4296875,6.48828125,1,0,0,0,64,64,100,1,,,,,,,,
,,,,,,,,,,,,,FF,,,,,,,,0.0986,,,,,,,,,,,,,,,,,,,,,,60fd5aa0c4e4ead0c9a6fff7,61036eebdfbeb787579eee8f,2021-07-30_15h19.22.047,Simcolourproject_2stim_asymm_v5,2020.2.10,MacIntel,60,61025ae37ef11b136ea224fe,,,,,,,,,884,80.94140625,17.0390625,1,0,0,response1disk,,6,-2.67578125,11.17578125,1,0,0,rectangle,-2.67578125,11.17578125,1,0,0,-2.67578125,11.17578125,1,0,0,0,65,65,72,1,,,,,,,,
,,,,,,,,,,,,,FF,,,,,,,,0.8168,,,,,,,,,,,,,,,,,,,,,,60fd5aa0c4e4ead0c9a6fff7,61036eebdfbeb787579eee8f,2021-07-30_15h19.22.047,Simcolourproject_2stim_asymm_v5,2020.2.10,MacIntel,60,61025ae37ef11b136ea224fe,,,,,,,,,3986,47.45703125,90.34765625,1,0,0,response1disk,,7,-1.62109375,-10.41796875,1,0,0,rectangle,-1.62109375,-10.41796875,1,0,0,-1.62109375,-10.41796875,1,0,0,0,66,66,2,1,,,,,,,,
,,,,,,,,,,,,,FF,,,,,,,,0.451,,,,,,,,,,,,,,,,,,,,,,60fd5aa0c4e4ead0c9a6fff7,61036eebdfbeb787579eee8f,2021-07-30_15h19.22.047,Simcolourproject_2stim_asymm_v5,2020.2.10,MacIntel,60,61025ae37ef11b136ea224fe,,,,,,,,,2473,41.76171875,62.02734375,1,0,0,response1disk,,7,8.26953125,7.21484375,1,0,0,rectangle,8.26953125,7.21484375,1,0,0,8.26953125,7.21484375,1,0,0,0,67,67,32,1,,,,,,,,
,,,,,,,,,,,,,FF,,,,,,,,0.5162,,,,,,,,,,,,,,,,,,,,,,60fd5aa0c4e4ead0c9a6fff7,61036eebdfbeb787579eee8f,2021-07-30_15h19.22.047,Simcolourproject_2stim_asymm_v5,2020.2.10,MacIntel,60,61025ae37ef11b136ea224fe,,,,,,,,,3459,37.83984375,68.29296875,1,0,0,response1disk,,7,11.85546875,3.4453125,1,0,0,rectangle,11.85546875,3.4453125,1,0,0,11.85546875,3.4453125,1,0,0,0,68,68,65,1,,,,,,,,
,,,,,,,,,,,,,FF,,,,,,,,0.7501,,,,,,,,,,,,,,,,,,,,,,60fd5aa0c4e4ead0c9a6fff7,61036eebdfbeb787579eee8f,2021-07-30_15h19.22.047,Simcolourproject_2stim_asymm_v5,2020.2.10,MacIntel,60,61025ae37ef11b136ea224fe,,,,,,,,,1156,53.05078125,61.36328125,1,0,0,response1disk,,7,21.03125,-4.421875,1,0,0,rectangle,21.03125,-4.421875,1,0,0,21.03125,-4.421875,1,0,0,0,69,69,28,1,,,,,,,,
,,,,,,,,,,,,,FF,,,,,,,,1.0494,,,,,,,,,,,,,,,,,,,,,,60fd5aa0c4e4ead0c9a6fff7,61036eebdfbeb787579eee8f,2021-07-30_15h19.22.047,Simcolourproject_2stim_asymm_v5,2020.2.10,MacIntel,60,61025ae37ef11b136ea224fe,,,,,,,,,3257,57.6953125,63.80859375,1,0,0,response1disk,,7,18.40625,-8.125,1,0,0,rectangle,18.40625,-8.125,1,0,0,18.40625,-8.125,1,0,0,0,70,70,141,1,,,,,,,,
,,,,,,,,,,,,,FF,,,,,,,,0.9492,,,,,,,,,,,,,,,,,,,,,,60fd5aa0c4e4ead0c9a6fff7,61036eebdfbeb787579eee8f,2021-07-30_15h19.22.047,Simcolourproject_2stim_asymm_v5,2020.2.10,MacIntel,60,61025ae37ef11b136ea224fe,,,,,,,,,443,-71.25390625,-40.1171875,1,0,0,response5disk,,2,-28.87890625,-15.55859375,1,0,0,rectangle,-28.87890625,-15.55859375,1,0,0,-28.87890625,-15.55859375,1,0,0,0,71,71,142,1,,,,,,,,
,,,,,,,,,,,,,FF,,,,,,,,0.8338,,,,,,,,,,,,,,,,,,,,,,60fd5aa0c4e4ead0c9a6fff7,61036eebdfbeb787579eee8f,2021-07-30_15h19.22.047,Simcolourproject_2stim_asymm_v5,2020.2.10,MacIntel,60,61025ae37ef11b136ea224fe,,,,,,,,,2263,36.10546875,56.55078125,1,0,0,response1disk,,7,9.8828125,9.16015625,1,0,0,rectangle,9.8828125,9.16015625,1,0,0,9.8828125,9.16015625,1,0,0,0,72,72,9,1,,,,,,,,
,,,,,,,,,,,,,FF,,,,,,,,0.7994,,,,,,,,,,,,,,,,,,,,,,60fd5aa0c4e4ead0c9a6fff7,61036eebdfbeb787579eee8f,2021-07-30_15h19.22.047,Simcolourproject_2stim_asymm_v5,2020.2.10,MacIntel,60,61025ae37ef11b136ea224fe,,,,,,,,,2033,-51.890625,-21.84375,1,0,0,response5disk,,2,-9.328125,11.671875,1,0,0,rectangle,-9.328125,11.671875,1,0,0,-9.328125,11.671875,1,0,0,0,73,73,27,1,,,,,,,,
,,,,,,,,,,,,,FF,,,,,,,,0.7847,,,,,,,,,,,,,,,,,,,,,,60fd5aa0c4e4ead0c9a6fff7,61036eebdfbeb787579eee8f,2021-07-30_15h19.22.047,Simcolourproject_2stim_asymm_v5,2020.2.10,MacIntel,60,61025ae37ef11b136ea224fe,,,,,,,,,757,26.60546875,41,1,0,0,response1disk,,7,10.3359375,13.609375,1,0,0,rectangle,10.3359375,13.609375,1,0,0,10.3359375,13.609375,1,0,0,0,74,74,105,1,,,,,,,,
,,,,,,,,,,,,,FF,,,,,,,,0.6159,,,,,,,,,,,,,,,,,,,,,,60fd5aa0c4e4ead0c9a6fff7,61036eebdfbeb787579eee8f,2021-07-30_15h19.22.047,Simcolourproject_2stim_asymm_v5,2020.2.10,MacIntel,60,61025ae37ef11b136ea224fe,,,,,,,,,794,-37.5703125,-26.5078125,1,0,0,response5disk,,2,4.23046875,11.5390625,1,0,0,rectangle,4.23046875,11.5390625,1,0,0,4.23046875,11.5390625,1,0,0,0,75,75,158,1,,,,,,,,
,,,,,,,,,,,,,FF,,,,,,,,0.4326,,,,,,,,,,,,,,,,,,,,,,60fd5aa0c4e4ead0c9a6fff7,61036eebdfbeb787579eee8f,2021-07-30_15h19.22.047,Simcolourproject_2stim_asymm_v5,2020.2.10,MacIntel,60,61025ae37ef11b136ea224fe,,,,,,,,,4216,37.80078125,49.73828125,1,0,0,response1disk,,7,1.53125,1.9921875,1,0,0,rectangle,1.53125,1.9921875,1,0,0,1.53125,1.9921875,1,0,0,0,76,76,53,1,,,,,,,,
,,,,,,,,,,,,,FF,,,,,,,,0.5503,,,,,,,,,,,,,,,,,,,,,,60fd5aa0c4e4ead0c9a6fff7,61036eebdfbeb787579eee8f,2021-07-30_15h19.22.047,Simcolourproject_2stim_asymm_v5,2020.2.10,MacIntel,60,61025ae37ef11b136ea224fe,,,,,,,,,1760,32.43359375,52.1484375,1,0,0,response1disk,,7,-4.75,-6.0234375,1,0,0,rectangle,-4.75,-6.0234375,1,0,0,-4.75,-6.0234375,1,0,0,0,77,77,127,1,,,,,,,,
,,,,,,,,,,,,,FF,,,,,,,,0.4505,,,,,,,,,,,,,,,,,,,,,,60fd5aa0c4e4ead0c9a6fff7,61036eebdfbeb787579eee8f,2021-07-30_15h19.22.047,Simcolourproject_2stim_asymm_v5,2020.2.10,MacIntel,60,61025ae37ef11b136ea224fe,,,,,,,,,701,29.5390625,41.796875,1,0,0,response1disk,,7,2.62890625,-6.63671875,1,0,0,rectangle,2.62890625,-6.63671875,1,0,0,2.62890625,-6.63671875,1,0,0,0,78,78,70,1,,,,,,,,
,,,,,,,,,,,,,FF,,,,,,,,1.3506,,,,,,,,,,,,,,,,,,,,,,60fd5aa0c4e4ead0c9a6fff7,61036eebdfbeb787579eee8f,2021-07-30_15h19.22.047,Simcolourproject_2stim_asymm_v5,2020.2.10,MacIntel,60,61025ae37ef11b136ea224fe,,,,,,,,,1535,35.21484375,-46.30078125,1,0,0,response3disk,,4,28.1171875,-13.6640625,1,0,0,rectangle,28.1171875,-13.6640625,1,0,0,28.1171875,-13.6640625,1,0,0,0,79,79,59,1,,,,,,,,
,,,,,,,,,,,,,FF,,,,,,,,1.4672,,,,,,,,,,,,,,,,,,,,,,60fd5aa0c4e4ead0c9a6fff7,61036eebdfbeb787579eee8f,2021-07-30_15h19.22.047,Simcolourproject_2stim_asymm_v5,2020.2.10,MacIntel,60,61025ae37ef11b136ea224fe,,,,,,,,,1206,27.00390625,62.90625,1,0,0,response1disk,,7,-1.14453125,10.4140625,1,0,0,rectangle,-1.14453125,10.4140625,1,0,0,-1.14453125,10.4140625,1,0,0,0,80,80,61,1,,,,,,,,
,,,,,,,,,,,,,FF,,,,,,,,0.8168,,,,,,,,,,,,,,,,,,,,,,60fd5aa0c4e4ead0c9a6fff7,61036eebdfbeb787579eee8f,2021-07-30_15h19.22.047,Simcolourproject_2stim_asymm_v5,2020.2.10,MacIntel,60,61025ae37ef11b136ea224fe,,,,,,,,,154,-55.62890625,-21.2578125,1,0,0,response5disk,,2,-2.0703125,11.69140625,1,0,0,rectangle,-2.0703125,11.69140625,1,0,0,-2.0703125,11.69140625,1,0,0,0,81,81,26,1,,,,,,,,
,,,,,,,,,,,,,FF,,,,,,,,0.4507,,,,,,,,,,,,,,,,,,,,,,60fd5aa0c4e4ead0c9a6fff7,61036eebdfbeb787579eee8f,2021-07-30_15h19.22.047,Simcolourproject_2stim_asymm_v5,2020.2.10,MacIntel,60,61025ae37ef11b136ea224fe,,,,,,,,,1869,46.35546875,41.1640625,1,0,0,response1disk,,6,15.58203125,-12.55078125,1,0,0,rectangle,15.58203125,-12.55078125,1,0,0,15.58203125,-12.55078125,1,0,0,0,82,82,94,1,,,,,,,,
,,,,,,,,,,,,,FF,,,,,,,,0.3505,,,,,,,,,,,,,,,,,,,,,,60fd5aa0c4e4ead0c9a6fff7,61036eebdfbeb787579eee8f,2021-07-30_15h19.22.047,Simcolourproject_2stim_asymm_v5,2020.2.10,MacIntel,60,61025ae37ef11b136ea224fe,,,,,,,,,2007,55.7734375,22.92578125,1,0,0,response1disk,,6,25.2734375,-1.09765625,1,0,0,rectangle,-82.87109375,40.66015625,1,0,0,-9.41796875,7.98828125,1,0,0,0,83,83,83,1,,response7disk_3,TRUE,1,1,"[167,229,146,61,189,237,302,35,265,218,84,284,215,184,131,177,294,154,193,263]",1.9664,rectangle
,,,,,,,,,,,,,FF,,,,,,,,0.4667,,,,,,,,,,,,,,,,,,,,,,60fd5aa0c4e4ead0c9a6fff7,61036eebdfbeb787579eee8f,2021-07-30_15h19.22.047,Simcolourproject_2stim_asymm_v5,2020.2.10,MacIntel,60,61025ae37ef11b136ea224fe,,,,,,,,,1372,40.5703125,54.47265625,1,0,0,response1disk,,7,-20.02734375,12.296875,1,0,0,rectangle,-20.02734375,12.296875,1,0,0,-20.02734375,12.296875,1,0,0,0,84,84,132,1,,,,,,,,
,,,,,,,,,,,,,FF,,,,,,,,2.7835,,,,,,,,,,,,,,,,,,,,,,60fd5aa0c4e4ead0c9a6fff7,61036eebdfbeb787579eee8f,2021-07-30_15h19.22.047,Simcolourproject_2stim_asymm_v5,2020.2.10,MacIntel,60,61025ae37ef11b136ea224fe,,,,,,,,,1104,60.8828125,55.0859375,1,0,0,response1disk,,6,10.9296875,0.87109375,1,0,0,rectangle,10.9296875,0.87109375,1,0,0,10.9296875,0.87109375,1,0,0,0,85,85,86,1,,,,,,,,
,,,,,,,,,,,,,FF,,,,,,,,0.9668,,,,,,,,,,,,,,,,,,,,,,60fd5aa0c4e4ead0c9a6fff7,61036eebdfbeb787579eee8f,2021-07-30_15h19.22.047,Simcolourproject_2stim_asymm_v5,2020.2.10,MacIntel,60,61025ae37ef11b136ea224fe,,,,,,,,,4005,-56.69140625,-50.96875,1,0,0,response5disk,,2,11.7734375,12.32421875,1,0,0,rectangle,11.7734375,12.32421875,1,0,0,11.7734375,12.32421875,1,0,0,0,86,86,12,1,,,,,,,,
,,,,,,,,,,,,,FF,,,,,,,,1.0504,,,,,,,,,,,,,,,,,,,,,,60fd5aa0c4e4ead0c9a6fff7,61036eebdfbeb787579eee8f,2021-07-30_15h19.22.047,Simcolourproject_2stim_asymm_v5,2020.2.10,MacIntel,60,61025ae37ef11b136ea224fe,,,,,,,,,2880,-35.6953125,-57.44140625,1,0,0,response5disk,,3,-21.30078125,-7.98046875,1,0,0,rectangle,-21.30078125,-7.98046875,1,0,0,-21.30078125,-7.98046875,1,0,0,0,87,87,62,1,,,,,,,,
,,,,,,,,,,,,,FF,,,,,,,,0.5993,,,,,,,,,,,,,,,,,,,,,,60fd5aa0c4e4ead0c9a6fff7,61036eebdfbeb787579eee8f,2021-07-30_15h19.22.047,Simcolourproject_2stim_asymm_v5,2020.2.10,MacIntel,60,61025ae37ef11b136ea224fe,,,,,,,,,3071,-22.8671875,-42.36328125,1,0,0,response5disk,,3,25.68359375,-6.359375,1,0,0,rectangle,25.68359375,-6.359375,1,0,0,25.68359375,-6.359375,1,0,0,0,88,88,39,1,,,,,,,,
,,,,,,,,,,,,,FF,,,,,,,,0.6662,,,,,,,,,,,,,,,,,,,,,,60fd5aa0c4e4ead0c9a6fff7,61036eebdfbeb787579eee8f,2021-07-30_15h19.22.047,Simcolourproject_2stim_asymm_v5,2020.2.10,MacIntel,60,61025ae37ef11b136ea224fe,,,,,,,,,848,63.88671875,47.0546875,1,0,0,response1disk,,6,25.2734375,4.953125,1,0,0,rectangle,25.2734375,4.953125,1,0,0,25.2734375,4.953125,1,0,0,0,89,89,150,1,,,,,,,,
,,,,,,,,,,,,,FF,,,,,,,,0.4329,,,,,,,,,,,,,,,,,,,,,,60fd5aa0c4e4ead0c9a6fff7,61036eebdfbeb787579eee8f,2021-07-30_15h19.22.047,Simcolourproject_2stim_asymm_v5,2020.2.10,MacIntel,60,61025ae37ef11b136ea224fe,,,,,,,,,844,52.32421875,47.51953125,1,0,0,response1disk,,6,15,-9.53515625,1,0,0,rectangle,15,-9.53515625,1,0,0,15,-9.53515625,1,0,0,0,90,90,69,1,,,,,,,,
,,,,,,,,,,,,,FF,,,,,,,,0.8161,,,,,,,,,,,,,,,,,,,,,,60fd5aa0c4e4ead0c9a6fff7,61036eebdfbeb787579eee8f,2021-07-30_15h19.22.047,Simcolourproject_2stim_asymm_v5,2020.2.10,MacIntel,60,61025ae37ef11b136ea224fe,,,,,,,,,303,33.3828125,48.08984375,1,0,0,response1disk,,7,-2.1953125,-12.9453125,1,0,0,rectangle,-2.1953125,-12.9453125,1,0,0,-2.1953125,-12.9453125,1,0,0,0,91,91,115,1,,,,,,,,
,,,,,,,,,,,,,FF,,,,,,,,0.6835,,,,,,,,,,,,,,,,,,,,,,60fd5aa0c4e4ead0c9a6fff7,61036eebdfbeb787579eee8f,2021-07-30_15h19.22.047,Simcolourproject_2stim_asymm_v5,2020.2.10,MacIntel,60,61025ae37ef11b136ea224fe,,,,,,,,,1245,34.84765625,50.51953125,1,0,0,response1disk,,7,17.93359375,10.73046875,1,0,0,rectangle,17.93359375,10.73046875,1,0,0,17.93359375,10.73046875,1,0,0,0,92,92,91,1,,,,,,,,
,,,,,,,,,,,,,FF,,,,,,,,0.6326,,,,,,,,,,,,,,,,,,,,,,60fd5aa0c4e4ead0c9a6fff7,61036eebdfbeb787579eee8f,2021-07-30_15h19.22.047,Simcolourproject_2stim_asymm_v5,2020.2.10,MacIntel,60,61025ae37ef11b136ea224fe,,,,,,,,,4314,34.76953125,49.76171875,1,0,0,response1disk,,7,26.6875,16.83203125,1,0,0,rectangle,26.6875,16.83203125,1,0,0,26.6875,16.83203125,1,0,0,0,93,93,36,1,,,,,,,,
,,,,,,,,,,,,,FF,,,,,,,,0.583,,,,,,,,,,,,,,,,,,,,,,60fd5aa0c4e4ead0c9a6fff7,61036eebdfbeb787579eee8f,2021-07-30_15h19.22.047,Simcolourproject_2stim_asymm_v5,2020.2.10,MacIntel,60,61025ae37ef11b136ea224fe,,,,,,,,,341,45.9296875,61.5234375,1,0,0,response1disk,,7,27.95703125,11.69921875,1,0,0,rectangle,27.95703125,11.69921875,1,0,0,27.95703125,11.69921875,1,0,0,0,94,94,55,1,,,,,,,,
,,,,,,,,,,,,,FF,,,,,,,,0.6502,,,,,,,,,,,,,,,,,,,,,,60fd5aa0c4e4ead0c9a6fff7,61036eebdfbeb787579eee8f,2021-07-30_15h19.22.047,Simcolourproject_2stim_asymm_v5,2020.2.10,MacIntel,60,61025ae37ef11b136ea224fe,,,,,,,,,1430,36.8984375,63.72265625,1,0,0,response1disk,,7,17.07421875,6.4375,1,0,0,rectangle,17.07421875,6.4375,1,0,0,17.07421875,6.4375,1,0,0,0,95,95,159,1,,,,,,,,
,,,,,,,,,,,,,FF,,,,,,,,0.5495,,,,,,,,,,,,,,,,,,,,,,60fd5aa0c4e4ead0c9a6fff7,61036eebdfbeb787579eee8f,2021-07-30_15h19.22.047,Simcolourproject_2stim_asymm_v5,2020.2.10,MacIntel,60,61025ae37ef11b136ea224fe,,,,,,,,,3357,31.12890625,47.0625,1,0,0,response1disk,,7,19.7109375,15.06640625,1,0,0,rectangle,19.7109375,15.06640625,1,0,0,19.7109375,15.06640625,1,0,0,0,96,96,139,1,,,,,,,,
,,,,,,,,,,,,,FF,,,,,,,,0.3833,,,,,,,,,,,,,,,,,,,,,,60fd5aa0c4e4ead0c9a6fff7,61036eebdfbeb787579eee8f,2021-07-30_15h19.22.047,Simcolourproject_2stim_asymm_v5,2020.2.10,MacIntel,60,61025ae37ef11b136ea224fe,,,,,,,,,2578,48.84375,59.6015625,1,0,0,response1disk,,7,30.9140625,12.62109375,1,0,0,rectangle,30.9140625,12.62109375,1,0,0,30.9140625,12.62109375,1,0,0,0,97,97,75,1,,,,,,,,
,,,,,,,,,,,,,FF,,,,,,,,0.5838,,,,,,,,,,,,,,,,,,,,,,60fd5aa0c4e4ead0c9a6fff7,61036eebdfbeb787579eee8f,2021-07-30_15h19.22.047,Simcolourproject_2stim_asymm_v5,2020.2.10,MacIntel,60,61025ae37ef11b136ea224fe,,,,,,,,,2073,41.42578125,71.65234375,1,0,0,response1disk,,7,13.90234375,3.87109375,1,0,0,rectangle,13.90234375,3.87109375,1,0,0,13.90234375,3.87109375,1,0,0,0,98,98,114,1,,,,,,,,
,,,,,,,,,,,,,FF,,,,,,,,1.0828,,,,,,,,,,,,,,,,,,,,,,60fd5aa0c4e4ead0c9a6fff7,61036eebdfbeb787579eee8f,2021-07-30_15h19.22.047,Simcolourproject_2stim_asymm_v5,2020.2.10,MacIntel,60,61025ae37ef11b136ea224fe,,,,,,,,,1734,-73.9375,43.1875,1,0,0,response7disk,,1,-21.18359375,13.70703125,1,0,0,rectangle,-21.18359375,13.70703125,1,0,0,-21.18359375,13.70703125,1,0,0,0,99,99,1,1,,,,,,,,
,,,,,,,,,,,,,FF,,,,,,,,1.2998,,,,,,,,,,,,,,,,,,,,,,60fd5aa0c4e4ead0c9a6fff7,61036eebdfbeb787579eee8f,2021-07-30_15h19.22.047,Simcolourproject_2stim_asymm_v5,2020.2.10,MacIntel,60,61025ae37ef11b136ea224fe,,,,,,,,,3627,-63.5625,-36.234375,1,0,0,response5disk,,2,-14.72265625,8.86328125,1,0,0,rectangle,-14.72265625,8.86328125,1,0,0,-14.72265625,8.86328125,1,0,0,0,100,100,48,1,,,,,,,,
,,,,,,,,,,,,,FF,,,,,,,,0.6836,,,,,,,,,,,,,,,,,,,,,,60fd5aa0c4e4ead0c9a6fff7,61036eebdfbeb787579eee8f,2021-07-30_15h19.22.047,Simcolourproject_2stim_asymm_v5,2020.2.10,MacIntel,60,61025ae37ef11b136ea224fe,,,,,,,,,1964,-59.8203125,-34.62890625,1,0,0,response5disk,,2,21.8046875,9.65625,1,0,0,rectangle,21.8046875,9.65625,1,0,0,21.8046875,9.65625,1,0,0,0,101,101,20,1,,,,,,,,
,,,,,,,,,,,,,FF,,,,,,,,1.3331,,,,,,,,,,,,,,,,,,,,,,60fd5aa0c4e4ead0c9a6fff7,61036eebdfbeb787579eee8f,2021-07-30_15h19.22.047,Simcolourproject_2stim_asymm_v5,2020.2.10,MacIntel,60,61025ae37ef11b136ea224fe,,,,,,,,,1346,30.3515625,60.54296875,1,0,0,response1disk,,7,6.9375,3.1875,1,0,0,rectangle,6.9375,3.1875,1,0,0,6.9375,3.1875,1,0,0,0,102,102,47,1,,,,,,,,
,,,,,,,,,,,,,FF,,,,,,,,4.8659,,,,,,,,,,,,,,,,,,,,,,60fd5aa0c4e4ead0c9a6fff7,61036eebdfbeb787579eee8f,2021-07-30_15h19.22.047,Simcolourproject_2stim_asymm_v5,2020.2.10,MacIntel,60,61025ae37ef11b136ea224fe,,,,,,,,,1503,31.6015625,54.25,1,0,0,response1disk,,7,7.1953125,4.02734375,1,0,0,rectangle,7.1953125,4.02734375,1,0,0,7.1953125,4.02734375,1,0,0,0,103,103,73,1,,,,,,,,
,,,,,,,,,,,,,FF,,,,,,,,0.5836,,,,,,,,,,,,,,,,,,,,,,60fd5aa0c4e4ead0c9a6fff7,61036eebdfbeb787579eee8f,2021-07-30_15h19.22.047,Simcolourproject_2stim_asymm_v5,2020.2.10,MacIntel,60,61025ae37ef11b136ea224fe,,,,,,,,,3024,34.24609375,41.24609375,1,0,0,response1disk,,7,9.73828125,3.9296875,1,0,0,rectangle,9.73828125,3.9296875,1,0,0,9.73828125,3.9296875,1,0,0,0,104,104,126,1,,,,,,,,
,,,,,,,,,,,,,FF,,,,,,,,0.9004,,,,,,,,,,,,,,,,,,,,,,60fd5aa0c4e4ead0c9a6fff7,61036eebdfbeb787579eee8f,2021-07-30_15h19.22.047,Simcolourproject_2stim_asymm_v5,2020.2.10,MacIntel,60,61025ae37ef11b136ea224fe,,,,,,,,,4008,36.4921875,45.12109375,1,0,0,response1disk,,7,26.828125,2.4140625,1,0,0,rectangle,26.828125,2.4140625,1,0,0,26.828125,2.4140625,1,0,0,0,105,105,41,1,,,,,,,,
,,,,,,,,,,,,,FF,,,,,,,,1.0669,,,,,,,,,,,,,,,,,,,,,,60fd5aa0c4e4ead0c9a6fff7,61036eebdfbeb787579eee8f,2021-07-30_15h19.22.047,Simcolourproject_2stim_asymm_v5,2020.2.10,MacIntel,60,61025ae37ef11b136ea224fe,,,,,,,,,606,-36.88671875,-85.32421875,1,0,0,response5disk,,3,-7.49609375,-11.90625,1,0,0,rectangle,-7.49609375,-11.90625,1,0,0,-7.49609375,-11.90625,1,0,0,0,106,106,102,1,,,,,,,,
,,,,,,,,,,,,,FF,,,,,,,,1.9505,,,,,,,,,,,,,,,,,,,,,,60fd5aa0c4e4ead0c9a6fff7,61036eebdfbeb787579eee8f,2021-07-30_15h19.22.047,Simcolourproject_2stim_asymm_v5,2020.2.10,MacIntel,60,61025ae37ef11b136ea224fe,,,,,,,,,1671,45.83203125,-55.1953125,1,0,0,response3disk,,4,21.4609375,-9.83984375,1,0,0,rectangle,21.4609375,-9.83984375,1,0,0,21.4609375,-9.83984375,1,0,0,0,107,107,19,1,,,,,,,,
,,,,,,,,,,,,,FF,,,,,,,,1.0509,,,,,,,,,,,,,,,,,,,,,,60fd5aa0c4e4ead0c9a6fff7,61036eebdfbeb787579eee8f,2021-07-30_15h19.22.047,Simcolourproject_2stim_asymm_v5,2020.2.10,MacIntel,60,61025ae37ef11b136ea224fe,,,,,,,,,2099,-53.9609375,-59.1875,1,0,0,response5disk,,3,-16.6484375,-0.07421875,1,0,0,rectangle,-16.6484375,-0.07421875,1,0,0,-16.6484375,-0.07421875,1,0,0,0,108,108,99,1,,,,,,,,
,,,,,,,,,,,,,FF,,,,,,,,1.1168,,,,,,,,,,,,,,,,,,,,,,60fd5aa0c4e4ead0c9a6fff7,61036eebdfbeb787579eee8f,2021-07-30_15h19.22.047,Simcolourproject_2stim_asymm_v5,2020.2.10,MacIntel,60,61025ae37ef11b136ea224fe,,,,,,,,,1950,47.22265625,-70.94921875,1,0,0,response3disk,,4,19.0546875,-4.59765625,1,0,0,rectangle,19.0546875,-4.59765625,1,0,0,19.0546875,-4.59765625,1,0,0,0,109,109,111,1,,,,,,,,
,,,,,,,,,,,,,FF,,,,,,,,1.7165,,,,,,,,,,,,,,,,,,,,,,60fd5aa0c4e4ead0c9a6fff7,61036eebdfbeb787579eee8f,2021-07-30_15h19.22.047,Simcolourproject_2stim_asymm_v5,2020.2.10,MacIntel,60,61025ae37ef11b136ea224fe,,,,,,,,,350,81.56640625,-64.43359375,1,0,0,response3disk,,5,17.328125,-6.5234375,1,0,0,rectangle,17.328125,-6.5234375,1,0,0,17.328125,-6.5234375,1,0,0,0,110,110,54,1,,,,,,,,
,,,,,,,,,,,,,FF,,,,,,,,1.6996,,,,,,,,,,,,,,,,,,,,,,60fd5aa0c4e4ead0c9a6fff7,61036eebdfbeb787579eee8f,2021-07-30_15h19.22.047,Simcolourproject_2stim_asymm_v5,2020.2.10,MacIntel,60,61025ae37ef11b136ea224fe,,,,,,,,,947,-45.640625,-81.74609375,1,0,0,response5disk,,3,-1.64453125,-14.16796875,1,0,0,rectangle,-1.64453125,-14.16796875,1,0,0,-1.64453125,-14.16796875,1,0,0,0,111,111,122,1,,,,,,,,
,,,,,,,,,,,,,FF,,,,,,,,1.0003,,,,,,,,,,,,,,,,,,,,,,60fd5aa0c4e4ead0c9a6fff7,61036eebdfbeb787579eee8f,2021-07-30_15h19.22.047,Simcolourproject_2stim_asymm_v5,2020.2.10,MacIntel,60,61025ae37ef11b136ea224fe,,,,,,,,,37,-82.97265625,-32.1171875,1,0,0,response5disk,,2,19.8828125,-1.45703125,1,0,0,rectangle,19.8828125,-1.45703125,1,0,0,19.8828125,-1.45703125,1,0,0,0,112,112,22,1,,,,,,,,
,,,,,,,,,,,,,FF,,,,,,,,0.7003,,,,,,,,,,,,,,,,,,,,,,60fd5aa0c4e4ead0c9a6fff7,61036eebdfbeb787579eee8f,2021-07-30_15h19.22.047,Simcolourproject_2stim_asymm_v5,2020.2.10,MacIntel,60,61025ae37ef11b136ea224fe,,,,,,,,,3815,-64.1875,-34.19921875,1,0,0,response5disk,,2,-20.9375,-12.97265625,1,0,0,rectangle,-20.9375,-12.97265625,1,0,0,-20.9375,-12.97265625,1,0,0,0,113,113,52,1,,,,,,,,
,,,,,,,,,,,,,FF,,,,,,,,0.9348,,,,,,,,,,,,,,,,,,,,,,60fd5aa0c4e4ead0c9a6fff7,61036eebdfbeb787579eee8f,2021-07-30_15h19.22.047,Simcolourproject_2stim_asymm_v5,2020.2.10,MacIntel,60,61025ae37ef11b136ea224fe,,,,,,,,,1193,-16.8046875,-91.359375,1,0,0,response5disk,,3,-4.23046875,-4.39453125,1,0,0,rectangle,-4.23046875,-4.39453125,1,0,0,-4.23046875,-4.39453125,1,0,0,0,114,114,88,1,,,,,,,,
,,,,,,,,,,,,,FF,,,,,,,,1.8838,,,,,,,,,,,,,,,,,,,,,,60fd5aa0c4e4ead0c9a6fff7,61036eebdfbeb787579eee8f,2021-07-30_15h19.22.047,Simcolourproject_2stim_asymm_v5,2020.2.10,MacIntel,60,61025ae37ef11b136ea224fe,,,,,,,,,982,26.77734375,-71.03515625,1,0,0,response3disk,,4,4.86328125,-9.7890625,1,0,0,rectangle,4.86328125,-9.7890625,1,0,0,4.86328125,-9.7890625,1,0,0,0,115,115,154,1,,,,,,,,
,,,,,,,,,,,,,FF,,,,,,,,1.0157,,,,,,,,,,,,,,,,,,,,,,60fd5aa0c4e4ead0c9a6fff7,61036eebdfbeb787579eee8f,2021-07-30_15h19.22.047,Simcolourproject_2stim_asymm_v5,2020.2.10,MacIntel,60,61025ae37ef11b136ea224fe,,,,,,,,,4017,43.328125,-64.625,1,0,0,response3disk,,4,15.71484375,-1.6328125,1,0,0,rectangle,15.71484375,-1.6328125,1,0,0,15.71484375,-1.6328125,1,0,0,0,116,116,109,1,,,,,,,,
,,,,,,,,,,,,,FF,,,,,,,,0.9827,,,,,,,,,,,,,,,,,,,,,,60fd5aa0c4e4ead0c9a6fff7,61036eebdfbeb787579eee8f,2021-07-30_15h19.22.047,Simcolourproject_2stim_asymm_v5,2020.2.10,MacIntel,60,61025ae37ef11b136ea224fe,,,,,,,,,1219,-52.796875,-104.9726563,1,0,0,response5disk,,3,-4.79296875,5.78515625,1,0,0,rectangle,-4.79296875,5.78515625,1,0,0,-4.79296875,5.78515625,1,0,0,0,117,117,79,1,,,,,,,,
,,,,,,,,,,,,,FF,,,,,,,,1.3497,,,,,,,,,,,,,,,,,,,,,,60fd5aa0c4e4ead0c9a6fff7,61036eebdfbeb787579eee8f,2021-07-30_15h19.22.047,Simcolourproject_2stim_asymm_v5,2020.2.10,MacIntel,60,61025ae37ef11b136ea224fe,,,,,,,,,3241,26.23046875,-59.3828125,1,0,0,response3disk,,4,8.609375,9.40625,1,0,0,rectangle,8.609375,9.40625,1,0,0,8.609375,9.40625,1,0,0,0,118,118,25,1,,,,,,,,
,,,,,,,,,,,,,FF,,,,,,,,1.0664,,,,,,,,,,,,,,,,,,,,,,60fd5aa0c4e4ead0c9a6fff7,61036eebdfbeb787579eee8f,2021-07-30_15h19.22.047,Simcolourproject_2stim_asymm_v5,2020.2.10,MacIntel,60,61025ae37ef11b136ea224fe,,,,,,,,,332,46.8515625,60.83984375,1,0,0,response1disk,,7,18.3984375,-8.8125,1,0,0,rectangle,18.3984375,-8.8125,1,0,0,18.3984375,-8.8125,1,0,0,0,119,119,60,1,,,,,,,,
,,,,,,,,,,,,,FF,,,,,,,,1.1656,,,,,,,,,,,,,,,,,,,,,,60fd5aa0c4e4ead0c9a6fff7,61036eebdfbeb787579eee8f,2021-07-30_15h19.22.047,Simcolourproject_2stim_asymm_v5,2020.2.10,MacIntel,60,61025ae37ef11b136ea224fe,,,,,,,,,1109,39.44140625,53.328125,1,0,0,response1disk,,7,20.9140625,1.5234375,1,0,0,rectangle,20.9140625,1.5234375,1,0,0,20.9140625,1.5234375,1,0,0,0,120,120,106,1,,,,,,,,
,,,,,,,,,,,,,FF,,,,,,,,1.2007,,,,,,,,,,,,,,,,,,,,,,60fd5aa0c4e4ead0c9a6fff7,61036eebdfbeb787579eee8f,2021-07-30_15h19.22.047,Simcolourproject_2stim_asymm_v5,2020.2.10,MacIntel,60,61025ae37ef11b136ea224fe,,,,,,,,,2984,72.21484375,-54.66796875,1,0,0,response3disk,,5,25.61328125,-3.76171875,1,0,0,rectangle,25.61328125,-3.76171875,1,0,0,25.61328125,-3.76171875,1,0,0,0,121,121,143,1,,,,,,,,
,,,,,,,,,,,,,FF,,,,,,,,0.6833,,,,,,,,,,,,,,,,,,,,,,60fd5aa0c4e4ead0c9a6fff7,61036eebdfbeb787579eee8f,2021-07-30_15h19.22.047,Simcolourproject_2stim_asymm_v5,2020.2.10,MacIntel,60,61025ae37ef11b136ea224fe,,,,,,,,,3010,29.44921875,34.48046875,1,0,0,response1disk,,7,6.05078125,-13.390625,1,0,0,rectangle,6.05078125,-13.390625,1,0,0,6.05078125,-13.390625,1,0,0,0,122,122,17,1,,,,,,,,
,,,,,,,,,,,,,FF,,,,,,,,2.9834,,,,,,,,,,,,,,,,,,,,,,60fd5aa0c4e4ead0c9a6fff7,61036eebdfbeb787579eee8f,2021-07-30_15h19.22.047,Simcolourproject_2stim_asymm_v5,2020.2.10,MacIntel,60,61025ae37ef11b136ea224fe,,,,,,,,,3755,51.28515625,40.9375,1,0,0,response1disk,,6,-1.98828125,11.875,1,0,0,rectangle,-1.98828125,11.875,1,0,0,-1.98828125,11.875,1,0,0,0,123,123,49,1,,,,,,,,
,,,,,,,,,,,,,FF,,,,,,,,0.4669,,,,,,,,,,,,,,,,,,,,,,60fd5aa0c4e4ead0c9a6fff7,61036eebdfbeb787579eee8f,2021-07-30_15h19.22.047,Simcolourproject_2stim_asymm_v5,2020.2.10,MacIntel,60,61025ae37ef11b136ea224fe,,,,,,,,,1336,42.5,48.16015625,1,0,0,response1disk,,7,21.96875,12.73046875,1,0,0,rectangle,21.96875,12.73046875,1,0,0,21.96875,12.73046875,1,0,0,0,124,124,147,1,,,,,,,,
,,,,,,,,,,,,,FF,,,,,,,,0.8664,,,,,,,,,,,,,,,,,,,,,,60fd5aa0c4e4ead0c9a6fff7,61036eebdfbeb787579eee8f,2021-07-30_15h19.22.047,Simcolourproject_2stim_asymm_v5,2020.2.10,MacIntel,60,61025ae37ef11b136ea224fe,,,,,,,,,3211,36.2421875,53.12109375,1,0,0,response1disk,,7,19.1796875,-2.90234375,1,0,0,rectangle,19.1796875,-2.90234375,1,0,0,19.1796875,-2.90234375,1,0,0,0,125,125,118,1,,,,,,,,
,,,,,,,,,,,,,FF,,,,,,,,0.3673,,,,,,,,,,,,,,,,,,,,,,60fd5aa0c4e4ead0c9a6fff7,61036eebdfbeb787579eee8f,2021-07-30_15h19.22.047,Simcolourproject_2stim_asymm_v5,2020.2.10,MacIntel,60,61025ae37ef11b136ea224fe,,,,,,,,,2515,43.875,73.55078125,1,0,0,response1disk,,7,15.35546875,6.00390625,1,0,0,rectangle,15.35546875,6.00390625,1,0,0,15.35546875,6.00390625,1,0,0,0,126,126,33,1,,,,,,,,
,,,,,,,,,,,,,FF,,,,,,,,0.3995,,,,,,,,,,,,,,,,,,,,,,60fd5aa0c4e4ead0c9a6fff7,61036eebdfbeb787579eee8f,2021-07-30_15h19.22.047,Simcolourproject_2stim_asymm_v5,2020.2.10,MacIntel,60,61025ae37ef11b136ea224fe,,,,,,,,,1706,48.34765625,62.5859375,1,0,0,response1disk,,7,20.5703125,5.08203125,1,0,0,rectangle,20.5703125,5.08203125,1,0,0,20.5703125,5.08203125,1,0,0,0,127,127,153,1,,,,,,,,
,,,,,,,,,,,,,FF,,,,,,,,3.067,,,,,,,,,,,,,,,,,,,,,,60fd5aa0c4e4ead0c9a6fff7,61036eebdfbeb787579eee8f,2021-07-30_15h19.22.047,Simcolourproject_2stim_asymm_v5,2020.2.10,MacIntel,60,61025ae37ef11b136ea224fe,,,,,,,,,571,39.078125,50.73828125,1,0,0,response1disk,,7,16.54296875,10.515625,1,0,0,rectangle,16.54296875,10.515625,1,0,0,16.54296875,10.515625,1,0,0,0,128,128,4,1,,,,,,,,
,,,,,,,,,,,,,FF,,,,,,,,0.8335,,,,,,,,,,,,,,,,,,,,,,60fd5aa0c4e4ead0c9a6fff7,61036eebdfbeb787579eee8f,2021-07-30_15h19.22.047,Simcolourproject_2stim_asymm_v5,2020.2.10,MacIntel,60,61025ae37ef11b136ea224fe,,,,,,,,,539,43.07421875,54.87890625,1,0,0,response1disk,,7,8.0390625,-10.203125,1,0,0,rectangle,8.0390625,-10.203125,1,0,0,8.0390625,-10.203125,1,0,0,0,129,129,87,1,,,,,,,,
,,,,,,,,,,,,,FF,,,,,,,,1.4,,,,,,,,,,,,,,,,,,,,,,60fd5aa0c4e4ead0c9a6fff7,61036eebdfbeb787579eee8f,2021-07-30_15h19.22.047,Simcolourproject_2stim_asymm_v5,2020.2.10,MacIntel,60,61025ae37ef11b136ea224fe,,,,,,,,,1526,27.953125,-62.53515625,1,0,0,response3disk,,4,7.21875,-15.5390625,1,0,0,rectangle,-105.1171875,-38.98046875,1,0,0,-13.1796875,7.5390625,1,0,0,0,130,130,46,1,,response5disk_3,TRUE,2,2,"[167,229,146,61,189,237,302,35,265,218,84,284,215,184,131,177,294,154,193,263]",2.1843,rectangle
,,,,,,,,,,,,,FF,,,,,,,,0.8322,,,,,,,,,,,,,,,,,,,,,,60fd5aa0c4e4ead0c9a6fff7,61036eebdfbeb787579eee8f,2021-07-30_15h19.22.047,Simcolourproject_2stim_asymm_v5,2020.2.10,MacIntel,60,61025ae37ef11b136ea224fe,,,,,,,,,2628,31.2734375,47.83984375,1,0,0,response1disk,,7,-13.5078125,-16.4296875,1,0,0,rectangle,-13.5078125,-16.4296875,1,0,0,-13.5078125,-16.4296875,1,0,0,0,131,131,34,1,,,,,,,,
,,,,,,,,,,,,,FF,,,,,,,,1.1328,,,,,,,,,,,,,,,,,,,,,,60fd5aa0c4e4ead0c9a6fff7,61036eebdfbeb787579eee8f,2021-07-30_15h19.22.047,Simcolourproject_2stim_asymm_v5,2020.2.10,MacIntel,60,61025ae37ef11b136ea224fe,,,,,,,,,1366,61.89453125,25.078125,1,0,0,response1disk,,6,20.65625,-2.2734375,1,0,0,rectangle,20.65625,-2.2734375,1,0,0,20.65625,-2.2734375,1,0,0,0,132,132,38,1,,,,,,,,
,,,,,,,,,,,,,FF,,,,,,,,36.5012,,,,,,,,,,,,,,,,,,,,,,60fd5aa0c4e4ead0c9a6fff7,61036eebdfbeb787579eee8f,2021-07-30_15h19.22.047,Simcolourproject_2stim_asymm_v5,2020.2.10,MacIntel,60,61025ae37ef11b136ea224fe,,,,,,,,,2361,24.85546875,64.82421875,1,0,0,response1disk,,7,22.8125,-7.4296875,1,0,0,rectangle,22.8125,-7.4296875,1,0,0,22.8125,-7.4296875,1,0,0,0,133,133,64,1,,,,,,,,
,,,,,,,,,,,,,FF,,,,,,,,1.0658,,,,,,,,,,,,,,,,,,,,,,60fd5aa0c4e4ead0c9a6fff7,61036eebdfbeb787579eee8f,2021-07-30_15h19.22.047,Simcolourproject_2stim_asymm_v5,2020.2.10,MacIntel,60,61025ae37ef11b136ea224fe,,,,,,,,,39,44.234375,73.72265625,1,0,0,response1disk,,7,31.35546875,1.5546875,1,0,0,rectangle,31.35546875,1.5546875,1,0,0,31.35546875,1.5546875,1,0,0,0,134,134,103,1,,,,,,,,
,,,,,,,,,,,,,FF,,,,,,,,1.6012,,,,,,,,,,,,,,,,,,,,,,60fd5aa0c4e4ead0c9a6fff7,61036eebdfbeb787579eee8f,2021-07-30_15h19.22.047,Simcolourproject_2stim_asymm_v5,2020.2.10,MacIntel,60,61025ae37ef11b136ea224fe,,,,,,,,,2781,55.74609375,-30.05859375,1,0,0,response3disk,,5,20.66796875,6.203125,1,0,0,rectangle,20.66796875,6.203125,1,0,0,20.66796875,6.203125,1,0,0,0,135,135,57,1,,,,,,,,
,,,,,,,,,,,,,FF,,,,,,,,1.3001,,,,,,,,,,,,,,,,,,,,,,60fd5aa0c4e4ead0c9a6fff7,61036eebdfbeb787579eee8f,2021-07-30_15h19.22.047,Simcolourproject_2stim_asymm_v5,2020.2.10,MacIntel,60,61025ae37ef11b136ea224fe,,,,,,,,,187,90.90625,-45.3984375,1,0,0,response3disk,,5,13.9140625,-13.0234375,1,0,0,rectangle,13.9140625,-13.0234375,1,0,0,13.9140625,-13.0234375,1,0,0,0,136,136,135,1,,,,,,,,
,,,,,,,,,,,,,FF,,,,,,,,0.7828,,,,,,,,,,,,,,,,,,,,,,60fd5aa0c4e4ead0c9a6fff7,61036eebdfbeb787579eee8f,2021-07-30_15h19.22.047,Simcolourproject_2stim_asymm_v5,2020.2.10,MacIntel,60,61025ae37ef11b136ea224fe,,,,,,,,,2443,57.07421875,-47.203125,1,0,0,response3disk,,5,5.58984375,-3.390625,1,0,0,rectangle,5.58984375,-3.390625,1,0,0,5.58984375,-3.390625,1,0,0,0,137,137,108,1,,,,,,,,
,,,,,,,,,,,,,FF,,,,,,,,0.6843,,,,,,,,,,,,,,,,,,,,,,60fd5aa0c4e4ead0c9a6fff7,61036eebdfbeb787579eee8f,2021-07-30_15h19.22.047,Simcolourproject_2stim_asymm_v5,2020.2.10,MacIntel,60,61025ae37ef11b136ea224fe,,,,,,,,,1475,39.61328125,50.57421875,1,0,0,response1disk,,7,23.75390625,9.46875,1,0,0,rectangle,23.75390625,9.46875,1,0,0,23.75390625,9.46875,1,0,0,0,138,138,3,1,,,,,,,,
,,,,,,,,,,,,,FF,,,,,,,,48.5827,,,,,,,,,,,,,,,,,,,,,,60fd5aa0c4e4ead0c9a6fff7,61036eebdfbeb787579eee8f,2021-07-30_15h19.22.047,Simcolourproject_2stim_asymm_v5,2020.2.10,MacIntel,60,61025ae37ef11b136ea224fe,,,,,,,,,3924,78.265625,37.4765625,1,0,0,response1disk,,6,19.16015625,2.6640625,1,0,0,rectangle,19.16015625,2.6640625,1,0,0,19.16015625,2.6640625,1,0,0,0,139,139,31,1,,,,,,,,
,,,,,,,,,,,,,FF,,,,,,,,1.6165,,,,,,,,,,,,,,,,,,,,,,60fd5aa0c4e4ead0c9a6fff7,61036eebdfbeb787579eee8f,2021-07-30_15h19.22.047,Simcolourproject_2stim_asymm_v5,2020.2.10,MacIntel,60,61025ae37ef11b136ea224fe,,,,,,,,,2556,24.48046875,-57.56640625,1,0,0,response3disk,,4,-7.03515625,-7.6171875,1,0,0,rectangle,-7.03515625,-7.6171875,1,0,0,-7.03515625,-7.6171875,1,0,0,0,140,140,77,1,,,,,,,,
,,,,,,,,,,,,,FF,,,,,,,,0.7995,,,,,,,,,,,,,,,,,,,,,,60fd5aa0c4e4ead0c9a6fff7,61036eebdfbeb787579eee8f,2021-07-30_15h19.22.047,Simcolourproject_2stim_asymm_v5,2020.2.10,MacIntel,60,61025ae37ef11b136ea224fe,,,,,,,,,384,29.375,68.55859375,1,0,0,response1disk,,7,-12.12109375,-5.16015625,1,0,0,rectangle,-12.12109375,-5.16015625,1,0,0,-12.12109375,-5.16015625,1,0,0,0,141,141,84,1,,,,,,,,
,,,,,,,,,,,,,FF,,,,,,,,2.6829,,,,,,,,,,,,,,,,,,,,,,60fd5aa0c4e4ead0c9a6fff7,61036eebdfbeb787579eee8f,2021-07-30_15h19.22.047,Simcolourproject_2stim_asymm_v5,2020.2.10,MacIntel,60,61025ae37ef11b136ea224fe,,,,,,,,,983,39.61328125,59.55859375,1,0,0,response1disk,,7,12.3203125,14.81640625,1,0,0,rectangle,12.3203125,14.81640625,1,0,0,12.3203125,14.81640625,1,0,0,0,142,142,14,1,,,,,,,,
,,,,,,,,,,,,,FF,,,,,,,,0.5496,,,,,,,,,,,,,,,,,,,,,,60fd5aa0c4e4ead0c9a6fff7,61036eebdfbeb787579eee8f,2021-07-30_15h19.22.047,Simcolourproject_2stim_asymm_v5,2020.2.10,MacIntel,60,61025ae37ef11b136ea224fe,,,,,,,,,331,39.55078125,77.13671875,1,0,0,response1disk,,7,18.49609375,-5.15625,1,0,0,rectangle,18.49609375,-5.15625,1,0,0,18.49609375,-5.15625,1,0,0,0,143,143,156,1,,,,,,,,
,,,,,,,,,,,,,FF,,,,,,,,2.3656,,,,,,,,,,,,,,,,,,,,,,60fd5aa0c4e4ead0c9a6fff7,61036eebdfbeb787579eee8f,2021-07-30_15h19.22.047,Simcolourproject_2stim_asymm_v5,2020.2.10,MacIntel,60,61025ae37ef11b136ea224fe,,,,,,,,,3507,70.48046875,45.7265625,1,0,0,response1disk,,6,15.35546875,-5.77734375,1,0,0,rectangle,15.35546875,-5.77734375,1,0,0,15.35546875,-5.77734375,1,0,0,0,144,144,95,1,,,,,,,,
,,,,,,,,,,,,,FF,,,,,,,,0.9837,,,,,,,,,,,,,,,,,,,,,,60fd5aa0c4e4ead0c9a6fff7,61036eebdfbeb787579eee8f,2021-07-30_15h19.22.047,Simcolourproject_2stim_asymm_v5,2020.2.10,MacIntel,60,61025ae37ef11b136ea224fe,,,,,,,,,887,-93.75,36.56640625,1,0,0,response7disk,,1,-34.3359375,-4.4296875,1,0,0,rectangle,85.48046875,35.44140625,1,0,0,10.53515625,-8.60546875,1,0,0,0,145,145,117,1,,response1disk_3,TRUE,6,6,"[167,229,146,61,189,237,302,35,265,218,84,284,215,184,131,177,294,154,193,263]",1.8505,rectangle
,,,,,,,,,,,,,FF,,,,,,,,1.1005,,,,,,,,,,,,,,,,,,,,,,60fd5aa0c4e4ead0c9a6fff7,61036eebdfbeb787579eee8f,2021-07-30_15h19.22.047,Simcolourproject_2stim_asymm_v5,2020.2.10,MacIntel,60,61025ae37ef11b136ea224fe,,,,,,,,,1312,-24.73828125,-34.51953125,1,0,0,response5disk,,3,-15.3671875,-0.00390625,1,0,0,rectangle,-15.3671875,-0.00390625,1,0,0,-15.3671875,-0.00390625,1,0,0,0,146,146,10,1,,,,,,,,
,,,,,,,,,,,,,FF,,,,,,,,11.3506,,,,,,,,,,,,,,,,,,,,,,60fd5aa0c4e4ead0c9a6fff7,61036eebdfbeb787579eee8f,2021-07-30_15h19.22.047,Simcolourproject_2stim_asymm_v5,2020.2.10,MacIntel,60,61025ae37ef11b136ea224fe,,,,,,,,,2056,45.41796875,-29.0859375,1,0,0,response3disk,,5,26.6484375,-6.7734375,1,0,0,rectangle,26.6484375,-6.7734375,1,0,0,26.6484375,-6.7734375,1,0,0,0,147,147,45,1,,,,,,,,
,,,,,,,,,,,,,FF,,,,,,,,0.9322,,,,,,,,,,,,,,,,,,,,,,60fd5aa0c4e4ead0c9a6fff7,61036eebdfbeb787579eee8f,2021-07-30_15h19.22.047,Simcolourproject_2stim_asymm_v5,2020.2.10,MacIntel,60,61025ae37ef11b136ea224fe,,,,,,,,,891,-39.3203125,-50.86328125,1,0,0,response5disk,,3,-12.984375,-0.53125,1,0,0,rectangle,-12.984375,-0.53125,1,0,0,-12.984375,-0.53125,1,0,0,0,148,148,68,1,,,,,,,,
,,,,,,,,,,,,,FF,,,,,,,,1.6003,,,,,,,,,,,,,,,,,,,,,,60fd5aa0c4e4ead0c9a6fff7,61036eebdfbeb787579eee8f,2021-07-30_15h19.22.047,Simcolourproject_2stim_asymm_v5,2020.2.10,MacIntel,60,61025ae37ef11b136ea224fe,,,,,,,,,961,39.234375,66.1640625,1,0,0,response1disk,,7,5.5546875,10.50390625,1,0,0,rectangle,5.5546875,10.50390625,1,0,0,5.5546875,10.50390625,1,0,0,0,149,149,13,1,,,,,,,,
,,,,,,,,,,,,,FF,,,,,,,,1.2323,,,,,,,,,,,,,,,,,,,,,,60fd5aa0c4e4ead0c9a6fff7,61036eebdfbeb787579eee8f,2021-07-30_15h19.22.047,Simcolourproject_2stim_asymm_v5,2020.2.10,MacIntel,60,61025ae37ef11b136ea224fe,,,,,,,,,4006,57.875,-74.91796875,1,0,0,response3disk,,4,26.421875,-3.6953125,1,0,0,rectangle,26.421875,-3.6953125,1,0,0,26.421875,-3.6953125,1,0,0,0,150,150,119,1,,,,,,,,
,,,,,,,,,,,,,FF,,,,,,,,1.7162,,,,,,,,,,,,,,,,,,,,,,60fd5aa0c4e4ead0c9a6fff7,61036eebdfbeb787579eee8f,2021-07-30_15h19.22.047,Simcolourproject_2stim_asymm_v5,2020.2.10,MacIntel,60,61025ae37ef11b136ea224fe,,,,,,,,,3265,48.49609375,60.99609375,1,0,0,response1disk,,7,22.44921875,8.0234375,1,0,0,rectangle,22.44921875,8.0234375,1,0,0,22.44921875,8.0234375,1,0,0,0,151,151,11,1,,,,,,,,
,,,,,,,,,,,,,FF,,,,,,,,0.6341,,,,,,,,,,,,,,,,,,,,,,60fd5aa0c4e4ead0c9a6fff7,61036eebdfbeb787579eee8f,2021-07-30_15h19.22.047,Simcolourproject_2stim_asymm_v5,2020.2.10,MacIntel,60,61025ae37ef11b136ea224fe,,,,,,,,,1068,32.0390625,90.68359375,1,0,0,response1disk,,7,14.265625,6.01171875,1,0,0,rectangle,14.265625,6.01171875,1,0,0,14.265625,6.01171875,1,0,0,0,152,152,137,1,,,,,,,,
,,,,,,,,,,,,,FF,,,,,,,,0.7823,,,,,,,,,,,,,,,,,,,,,,60fd5aa0c4e4ead0c9a6fff7,61036eebdfbeb787579eee8f,2021-07-30_15h19.22.047,Simcolourproject_2stim_asymm_v5,2020.2.10,MacIntel,60,61025ae37ef11b136ea224fe,,,,,,,,,0,-55.7890625,104.6914063,1,0,0,response7disk,,0,-25.73046875,8.24609375,1,0,0,rectangle,74.42578125,92.13671875,1,0,0,-3.53125,-6.9921875,1,0,0,0,153,153,116,1,,response1disk_3,TRUE,7,3,"[167,229,146,61,189,237,302,35,265,218,84,284,215,184,131,177,294,154,193,263]",2.2996,rectangle
,,,,,,,,,,,,,FF,,,,,,,,1.0158,,,,,,,,,,,,,,,,,,,,,,60fd5aa0c4e4ead0c9a6fff7,61036eebdfbeb787579eee8f,2021-07-30_15h19.22.047,Simcolourproject_2stim_asymm_v5,2020.2.10,MacIntel,60,61025ae37ef11b136ea224fe,,,,,,,,,893,-57.56640625,19.5078125,1,0,0,response7disk,,1,-21.51171875,11.26171875,1,0,0,rectangle,-21.51171875,11.26171875,1,0,0,-21.51171875,11.26171875,1,0,0,0,154,154,7,1,,,,,,,,
,,,,,,,,,,,,,FF,,,,,,,,0.7333,,,,,,,,,,,,,,,,,,,,,,60fd5aa0c4e4ead0c9a6fff7,61036eebdfbeb787579eee8f,2021-07-30_15h19.22.047,Simcolourproject_2stim_asymm_v5,2020.2.10,MacIntel,60,61025ae37ef11b136ea224fe,,,,,,,,,1279,29.79296875,67.35546875,1,0,0,response1disk,,7,22.203125,-0.66015625,1,0,0,rectangle,22.203125,-0.66015625,1,0,0,22.203125,-0.66015625,1,0,0,0,155,155,71,1,,,,,,,,
,,,,,,,,,,,,,FF,,,,,,,,1.2339,,,,,,,,,,,,,,,,,,,,,,60fd5aa0c4e4ead0c9a6fff7,61036eebdfbeb787579eee8f,2021-07-30_15h19.22.047,Simcolourproject_2stim_asymm_v5,2020.2.10,MacIntel,60,61025ae37ef11b136ea224fe,,,,,,,,,4338,101.2617188,-67.70703125,1,0,0,response3disk,,5,-9.46484375,8.1953125,1,0,0,rectangle,-9.46484375,8.1953125,1,0,0,-9.46484375,8.1953125,1,0,0,0,156,156,146,1,,,,,,,,
,,,,,,,,,,,,,FF,,,,,,,,0.5839,,,,,,,,,,,,,,,,,,,,,,60fd5aa0c4e4ead0c9a6fff7,61036eebdfbeb787579eee8f,2021-07-30_15h19.22.047,Simcolourproject_2stim_asymm_v5,2020.2.10,MacIntel,60,61025ae37ef11b136ea224fe,,,,,,,,,4130,20.9765625,40.4296875,1,0,0,response1disk,,7,8.609375,9.484375,1,0,0,rectangle,8.609375,9.484375,1,0,0,8.609375,9.484375,1,0,0,0,157,157,0,1,,,,,,,,
,,,,,,,,,,,,,FF,,,,,,,,0.9161,,,,,,,,,,,,,,,,,,,,,,60fd5aa0c4e4ead0c9a6fff7,61036eebdfbeb787579eee8f,2021-07-30_15h19.22.047,Simcolourproject_2stim_asymm_v5,2020.2.10,MacIntel,60,61025ae37ef11b136ea224fe,,,,,,,,,3597,-42.20703125,-58.71484375,1,0,0,response5disk,,3,-22.0546875,-2.1328125,1,0,0,rectangle,-22.0546875,-2.1328125,1,0,0,-22.0546875,-2.1328125,1,0,0,0,158,158,66,1,,,,,,,,
,,,,,,,,,,,,,FF,,,,,,,,1.0161,,,,,,,,,,,,,,,,,,,,,,60fd5aa0c4e4ead0c9a6fff7,61036eebdfbeb787579eee8f,2021-07-30_15h19.22.047,Simcolourproject_2stim_asymm_v5,2020.2.10,MacIntel,60,61025ae37ef11b136ea224fe,,,,,,,,,549,-21.9609375,-36.28125,1,0,0,response5disk,,3,-7.84375,1.2109375,1,0,0,rectangle,-7.84375,1.2109375,1,0,0,-7.84375,1.2109375,1,0,0,0,159,159,89,1,,,,,,,,
,,,,,,,,,,,,,FF,,,,,,,,0.7325,,,,,,,,,,,,,,,,,,,,,,60fd5aa0c4e4ead0c9a6fff7,61036eebdfbeb787579eee8f,2021-07-30_15h19.22.047,Simcolourproject_2stim_asymm_v5,2020.2.10,MacIntel,60,61025ae37ef11b136ea224fe,,,,,,,,,3896,64.8515625,-20.80859375,1,0,0,response3disk,,5,18.2734375,-4.1171875,1,0,0,rectangle,18.2734375,-4.1171875,1,0,0,18.2734375,-4.1171875,1,0,0,1,0,160,121,1,,,,,,,,
,,,,,,,,,,,,,FF,,,,,,,,0.7998,,,,,,,,,,,,,,,,,,,,,,60fd5aa0c4e4ead0c9a6fff7,61036eebdfbeb787579eee8f,2021-07-30_15h19.22.047,Simcolourproject_2stim_asymm_v5,2020.2.10,MacIntel,60,61025ae37ef11b136ea224fe,,,,,,,,,3795,39.93359375,61.41015625,1,0,0,response1disk,,7,16.97265625,1.40625,1,0,0,rectangle,16.97265625,1.40625,1,0,0,16.97265625,1.40625,1,0,0,1,1,161,80,1,,,,,,,,
,,,,,,,,,,,,,FF,,,,,,,,0.417,,,,,,,,,,,,,,,,,,,,,,60fd5aa0c4e4ead0c9a6fff7,61036eebdfbeb787579eee8f,2021-07-30_15h19.22.047,Simcolourproject_2stim_asymm_v5,2020.2.10,MacIntel,60,61025ae37ef11b136ea224fe,,,,,,,,,1009,37.78515625,49.4140625,1,0,0,response1disk,,7,26.6875,4.3671875,1,0,0,rectangle,26.6875,4.3671875,1,0,0,26.6875,4.3671875,1,0,0,1,2,162,154,1,,,,,,,,
,,,,,,,,,,,,,FF,,,,,,,,0.6837,,,,,,,,,,,,,,,,,,,,,,60fd5aa0c4e4ead0c9a6fff7,61036eebdfbeb787579eee8f,2021-07-30_15h19.22.047,Simcolourproject_2stim_asymm_v5,2020.2.10,MacIntel,60,61025ae37ef11b136ea224fe,,,,,,,,,3270,35.828125,49.24609375,1,0,0,response1disk,,7,29.4375,10.703125,1,0,0,rectangle,29.4375,10.703125,1,0,0,29.4375,10.703125,1,0,0,1,3,163,148,1,,,,,,,,
,,,,,,,,,,,,,FF,,,,,,,,1.4831,,,,,,,,,,,,,,,,,,,,,,60fd5aa0c4e4ead0c9a6fff7,61036eebdfbeb787579eee8f,2021-07-30_15h19.22.047,Simcolourproject_2stim_asymm_v5,2020.2.10,MacIntel,60,61025ae37ef11b136ea224fe,,,,,,,,,2111,42.7109375,54.56640625,1,0,0,response1disk,,7,0.20703125,2.75390625,1,0,0,rectangle,0.20703125,2.75390625,1,0,0,0.20703125,2.75390625,1,0,0,1,4,164,108,1,,,,,,,,
,,,,,,,,,,,,,FF,,,,,,,,0.8336,,,,,,,,,,,,,,,,,,,,,,60fd5aa0c4e4ead0c9a6fff7,61036eebdfbeb787579eee8f,2021-07-30_15h19.22.047,Simcolourproject_2stim_asymm_v5,2020.2.10,MacIntel,60,61025ae37ef11b136ea224fe,,,,,,,,,3975,67.9140625,32.3984375,1,0,0,response1disk,,6,29.27734375,10.76171875,1,0,0,rectangle,29.27734375,10.76171875,1,0,0,29.27734375,10.76171875,1,0,0,1,5,165,64,1,,,,,,,,
,,,,,,,,,,,,,FF,,,,,,,,1.0338,,,,,,,,,,,,,,,,,,,,,,60fd5aa0c4e4ead0c9a6fff7,61036eebdfbeb787579eee8f,2021-07-30_15h19.22.047,Simcolourproject_2stim_asymm_v5,2020.2.10,MacIntel,60,61025ae37ef11b136ea224fe,,,,,,,,,3831,48.35546875,35.80078125,1,0,0,response1disk,,6,13.91015625,15.96484375,1,0,0,rectangle,56.10546875,38.64453125,1,0,0,9.77734375,-2.01171875,1,0,0,1,6,166,67,1,,response1disk_3,TRUE,6,5,"[167,229,146,61,189,237,302,35,265,218,84,284,215,184,131,177,294,154,193,263]",0.9678,rectangle
,,,,,,,,,,,,,FF,,,,,,,,1.433,,,,,,,,,,,,,,,,,,,,,,60fd5aa0c4e4ead0c9a6fff7,61036eebdfbeb787579eee8f,2021-07-30_15h19.22.047,Simcolourproject_2stim_asymm_v5,2020.2.10,MacIntel,60,61025ae37ef11b136ea224fe,,,,,,,,,1201,-72.90625,-41.01953125,1,0,0,response5disk,,2,-2.8828125,-10.0390625,1,0,0,rectangle,-2.8828125,-10.0390625,1,0,0,-2.8828125,-10.0390625,1,0,0,1,7,167,22,1,,,,,,,,
,,,,,,,,,,,,,FF,,,,,,,,1.1004,,,,,,,,,,,,,,,,,,,,,,60fd5aa0c4e4ead0c9a6fff7,61036eebdfbeb787579eee8f,2021-07-30_15h19.22.047,Simcolourproject_2stim_asymm_v5,2020.2.10,MacIntel,60,61025ae37ef11b136ea224fe,,,,,,,,,2372,70.3203125,-21.03515625,1,0,0,response3disk,,5,6.65234375,-8.734375,1,0,0,rectangle,6.65234375,-8.734375,1,0,0,6.65234375,-8.734375,1,0,0,1,8,168,150,1,,,,,,,,
,,,,,,,,,,,,,FF,,,,,,,,0.7005,,,,,,,,,,,,,,,,,,,,,,60fd5aa0c4e4ead0c9a6fff7,61036eebdfbeb787579eee8f,2021-07-30_15h19.22.047,Simcolourproject_2stim_asymm_v5,2020.2.10,MacIntel,60,61025ae37ef11b136ea224fe,,,,,,,,,2331,92.78125,-26.4296875,1,0,0,response3disk,,5,22.44140625,-4.8828125,1,0,0,rectangle,22.44140625,-4.8828125,1,0,0,22.44140625,-4.8828125,1,0,0,1,9,169,58,1,,,,,,,,
,,,,,,,,,,,,,FF,,,,,,,,0.7671,,,,,,,,,,,,,,,,,,,,,,60fd5aa0c4e4ead0c9a6fff7,61036eebdfbeb787579eee8f,2021-07-30_15h19.22.047,Simcolourproject_2stim_asymm_v5,2020.2.10,MacIntel,60,61025ae37ef11b136ea224fe,,,,,,,,,2642,34.03125,50.29296875,1,0,0,response1disk,,7,3.01953125,3.40234375,1,0,0,rectangle,3.01953125,3.40234375,1,0,0,3.01953125,3.40234375,1,0,0,1,10,170,51,1,,,,,,,,
,,,,,,,,,,,,,FF,,,,,,,,1.2003,,,,,,,,,,,,,,,,,,,,,,60fd5aa0c4e4ead0c9a6fff7,61036eebdfbeb787579eee8f,2021-07-30_15h19.22.047,Simcolourproject_2stim_asymm_v5,2020.2.10,MacIntel,60,61025ae37ef11b136ea224fe,,,,,,,,,2722,-27.7734375,-92.32421875,1,0,0,response5disk,,3,-8.7109375,5.12109375,1,0,0,rectangle,-8.7109375,5.12109375,1,0,0,-8.7109375,5.12109375,1,0,0,1,11,171,100,1,,,,,,,,
,,,,,,,,,,,,,FF,,,,,,,,3.6171,,,,,,,,,,,,,,,,,,,,,,60fd5aa0c4e4ead0c9a6fff7,61036eebdfbeb787579eee8f,2021-07-30_15h19.22.047,Simcolourproject_2stim_asymm_v5,2020.2.10,MacIntel,60,61025ae37ef11b136ea224fe,,,,,,,,,2402,54.62890625,69.83203125,1,0,0,response1disk,,7,17.875,-1.91015625,1,0,0,rectangle,17.875,-1.91015625,1,0,0,17.875,-1.91015625,1,0,0,1,12,172,63,1,,,,,,,,
,,,,,,,,,,,,,FF,,,,,,,,1.7991,,,,,,,,,,,,,,,,,,,,,,60fd5aa0c4e4ead0c9a6fff7,61036eebdfbeb787579eee8f,2021-07-30_15h19.22.047,Simcolourproject_2stim_asymm_v5,2020.2.10,MacIntel,60,61025ae37ef11b136ea224fe,,,,,,,,,1343,-25.85546875,-68.484375,1,0,0,response5disk,,3,-2.7109375,-16.65234375,1,0,0,rectangle,-2.7109375,-16.65234375,1,0,0,-2.7109375,-16.65234375,1,0,0,1,13,173,89,1,,,,,,,,
,,,,,,,,,,,,,FF,,,,,,,,1.484,,,,,,,,,,,,,,,,,,,,,,60fd5aa0c4e4ead0c9a6fff7,61036eebdfbeb787579eee8f,2021-07-30_15h19.22.047,Simcolourproject_2stim_asymm_v5,2020.2.10,MacIntel,60,61025ae37ef11b136ea224fe,,,,,,,,,2651,-33.7578125,-70.2890625,1,0,0,response5disk,,3,-11.83984375,-7.01171875,1,0,0,rectangle,-11.83984375,-7.01171875,1,0,0,-11.83984375,-7.01171875,1,0,0,1,14,174,16,1,,,,,,,,
,,,,,,,,,,,,,FF,,,,,,,,1.0171,,,,,,,,,,,,,,,,,,,,,,60fd5aa0c4e4ead0c9a6fff7,61036eebdfbeb787579eee8f,2021-07-30_15h19.22.047,Simcolourproject_2stim_asymm_v5,2020.2.10,MacIntel,60,61025ae37ef11b136ea224fe,,,,,,,,,4321,-75.65234375,-74.53515625,1,0,0,response5disk,,2,-21.0078125,8.0234375,1,0,0,rectangle,-21.0078125,8.0234375,1,0,0,-21.0078125,8.0234375,1,0,0,1,15,175,73,1,,,,,,,,
,,,,,,,,,,,,,FF,,,,,,,,0.5829,,,,,,,,,,,,,,,,,,,,,,60fd5aa0c4e4ead0c9a6fff7,61036eebdfbeb787579eee8f,2021-07-30_15h19.22.047,Simcolourproject_2stim_asymm_v5,2020.2.10,MacIntel,60,61025ae37ef11b136ea224fe,,,,,,,,,1568,59.3046875,-24.97265625,1,0,0,response3disk,,5,6.48046875,1.66796875,1,0,0,rectangle,54.54296875,-34.7578125,1,0,0,13.76171875,0.10546875,1,0,0,1,16,176,155,1,,response3disk_3,TRUE,5,5,"[167,229,146,61,189,237,302,35,265,218,84,284,215,184,131,177,294,154,193,263]",1.7998,rectangle
,,,,,,,,,,,,,FF,,,,,,,,0.8834,,,,,,,,,,,,,,,,,,,,,,60fd5aa0c4e4ead0c9a6fff7,61036eebdfbeb787579eee8f,2021-07-30_15h19.22.047,Simcolourproject_2stim_asymm_v5,2020.2.10,MacIntel,60,61025ae37ef11b136ea224fe,,,,,,,,,4345,-38.6328125,-44.76171875,1,0,0,response5disk,,3,-6.05859375,-0.0625,1,0,0,rectangle,-6.05859375,-0.0625,1,0,0,-6.05859375,-0.0625,1,0,0,1,17,177,141,1,,,,,,,,
,,,,,,,,,,,,,FF,,,,,,,,0.9501,,,,,,,,,,,,,,,,,,,,,,60fd5aa0c4e4ead0c9a6fff7,61036eebdfbeb787579eee8f,2021-07-30_15h19.22.047,Simcolourproject_2stim_asymm_v5,2020.2.10,MacIntel,60,61025ae37ef11b136ea224fe,,,,,,,,,1253,-39.8203125,-52.69140625,1,0,0,response5disk,,3,-16.37109375,-15.625,1,0,0,rectangle,-16.37109375,-15.625,1,0,0,-16.37109375,-15.625,1,0,0,1,18,178,45,1,,,,,,,,
,,,,,,,,,,,,,FF,,,,,,,,0.6171,,,,,,,,,,,,,,,,,,,,,,60fd5aa0c4e4ead0c9a6fff7,61036eebdfbeb787579eee8f,2021-07-30_15h19.22.047,Simcolourproject_2stim_asymm_v5,2020.2.10,MacIntel,60,61025ae37ef11b136ea224fe,,,,,,,,,2500,46.75,-30.85546875,1,0,0,response3disk,,5,8.71875,-5.16796875,1,0,0,rectangle,8.71875,-5.16796875,1,0,0,8.71875,-5.16796875,1,0,0,1,19,179,122,1,,,,,,,,
,,,,,,,,,,,,,FF,,,,,,,,0.7004,,,,,,,,,,,,,,,,,,,,,,60fd5aa0c4e4ead0c9a6fff7,61036eebdfbeb787579eee8f,2021-07-30_15h19.22.047,Simcolourproject_2stim_asymm_v5,2020.2.10,MacIntel,60,61025ae37ef11b136ea224fe,,,,,,,,,160,50.99609375,-42.3125,1,0,0,response3disk,,5,31.625,-5.234375,1,0,0,rectangle,31.625,-5.234375,1,0,0,31.625,-5.234375,1,0,0,1,20,180,52,1,,,,,,,,
,,,,,,,,,,,,,FF,,,,,,,,0.5996,,,,,,,,,,,,,,,,,,,,,,60fd5aa0c4e4ead0c9a6fff7,61036eebdfbeb787579eee8f,2021-07-30_15h19.22.047,Simcolourproject_2stim_asymm_v5,2020.2.10,MacIntel,60,61025ae37ef11b136ea224fe,,,,,,,,,2846,47.54296875,-44.56640625,1,0,0,response3disk,,5,19.3046875,-8.80859375,1,0,0,rectangle,19.3046875,-8.80859375,1,0,0,19.3046875,-8.80859375,1,0,0,1,21,181,120,1,,,,,,,,
,,,,,,,,,,,,,FF,,,,,,,,0.5668,,,,,,,,,,,,,,,,,,,,,,60fd5aa0c4e4ead0c9a6fff7,61036eebdfbeb787579eee8f,2021-07-30_15h19.22.047,Simcolourproject_2stim_asymm_v5,2020.2.10,MacIntel,60,61025ae37ef11b136ea224fe,,,,,,,,,1305,49.31640625,-38.5859375,1,0,0,response3disk,,5,22.40625,-6.625,1,0,0,rectangle,22.40625,-6.625,1,0,0,22.40625,-6.625,1,0,0,1,22,182,117,1,,,,,,,,
,,,,,,,,,,,,,FF,,,,,,,,1.3329,,,,,,,,,,,,,,,,,,,,,,60fd5aa0c4e4ead0c9a6fff7,61036eebdfbeb787579eee8f,2021-07-30_15h19.22.047,Simcolourproject_2stim_asymm_v5,2020.2.10,MacIntel,60,61025ae37ef11b136ea224fe,,,,,,,,,2098,-66.5390625,28.94140625,1,0,0,response7disk,,1,3.265625,2.25,1,0,0,rectangle,72.0234375,-40.86328125,1,0,0,27.2578125,-4.1171875,1,0,0,1,23,183,103,1,,response3disk_3,TRUE,5,5,"[167,229,146,61,189,237,302,35,265,218,84,284,215,184,131,177,294,154,193,263]",1.8667,rectangle
,,,,,,,,,,,,,FF,,,,,,,,1.0336,,,,,,,,,,,,,,,,,,,,,,60fd5aa0c4e4ead0c9a6fff7,61036eebdfbeb787579eee8f,2021-07-30_15h19.22.047,Simcolourproject_2stim_asymm_v5,2020.2.10,MacIntel,60,61025ae37ef11b136ea224fe,,,,,,,,,2409,53.6796875,93.62890625,1,0,0,response1disk,,7,5.25390625,3.87890625,1,0,0,rectangle,5.25390625,3.87890625,1,0,0,5.25390625,3.87890625,1,0,0,1,24,184,59,1,,,,,,,,
,,,,,,,,,,,,,FF,,,,,,,,0.8676,,,,,,,,,,,,,,,,,,,,,,60fd5aa0c4e4ead0c9a6fff7,61036eebdfbeb787579eee8f,2021-07-30_15h19.22.047,Simcolourproject_2stim_asymm_v5,2020.2.10,MacIntel,60,61025ae37ef11b136ea224fe,,,,,,,,,232,88.56640625,38,1,0,0,response1disk,,6,11.94140625,3.3125,1,0,0,rectangle,11.94140625,3.3125,1,0,0,11.94140625,3.3125,1,0,0,1,25,185,32,1,,,,,,,,
,,,,,,,,,,,,,FF,,,,,,,,0.8986,,,,,,,,,,,,,,,,,,,,,,60fd5aa0c4e4ead0c9a6fff7,61036eebdfbeb787579eee8f,2021-07-30_15h19.22.047,Simcolourproject_2stim_asymm_v5,2020.2.10,MacIntel,60,61025ae37ef11b136ea224fe,,,,,,,,,3373,-59.24609375,29.72265625,1,0,0,response7disk,,1,-2.05078125,1.8671875,1,0,0,rectangle,-2.05078125,1.8671875,1,0,0,-2.05078125,1.8671875,1,0,0,1,26,186,85,1,,,,,,,,
,,,,,,,,,,,,,FF,,,,,,,,0.6821,,,,,,,,,,,,,,,,,,,,,,60fd5aa0c4e4ead0c9a6fff7,61036eebdfbeb787579eee8f,2021-07-30_15h19.22.047,Simcolourproject_2stim_asymm_v5,2020.2.10,MacIntel,60,61025ae37ef11b136ea224fe,,,,,,,,,3225,34.234375,47.5625,1,0,0,response1disk,,7,11.5546875,1.84375,1,0,0,rectangle,11.5546875,1.84375,1,0,0,11.5546875,1.84375,1,0,0,1,27,187,124,1,,,,,,,,
,,,,,,,,,,,,,FF,,,,,,,,0.9661,,,,,,,,,,,,,,,,,,,,,,60fd5aa0c4e4ead0c9a6fff7,61036eebdfbeb787579eee8f,2021-07-30_15h19.22.047,Simcolourproject_2stim_asymm_v5,2020.2.10,MacIntel,60,61025ae37ef11b136ea224fe,,,,,,,,,3628,-43.78515625,-61.75,1,0,0,response5disk,,3,-20.54296875,-15.078125,1,0,0,rectangle,57.12109375,-45.27734375,1,0,0,15.6640625,2.70703125,1,0,0,1,28,188,123,1,,response3disk_3,TRUE,5,5,"[167,229,146,61,189,237,302,35,265,218,84,284,215,184,131,177,294,154,193,263]",1.0837,rectangle
,,,,,,,,,,,,,FF,,,,,,,,3.0005,,,,,,,,,,,,,,,,,,,,,,60fd5aa0c4e4ead0c9a6fff7,61036eebdfbeb787579eee8f,2021-07-30_15h19.22.047,Simcolourproject_2stim_asymm_v5,2020.2.10,MacIntel,60,61025ae37ef11b136ea224fe,,,,,,,,,2411,80.7421875,-40.5625,1,0,0,response3disk,,5,7.63671875,-15.47265625,1,0,0,rectangle,7.63671875,-15.47265625,1,0,0,7.63671875,-15.47265625,1,0,0,1,29,189,37,1,,,,,,,,
,,,,,,,,,,,,,FF,,,,,,,,0.7657,,,,,,,,,,,,,,,,,,,,,,60fd5aa0c4e4ead0c9a6fff7,61036eebdfbeb787579eee8f,2021-07-30_15h19.22.047,Simcolourproject_2stim_asymm_v5,2020.2.10,MacIntel,60,61025ae37ef11b136ea224fe,,,,,,,,,2676,48.203125,-23.1640625,1,0,0,response3disk,,5,3.6484375,4.7265625,1,0,0,rectangle,3.6484375,4.7265625,1,0,0,3.6484375,4.7265625,1,0,0,1,30,190,2,1,,,,,,,,
,,,,,,,,,,,,,FF,,,,,,,,0.6336,,,,,,,,,,,,,,,,,,,,,,60fd5aa0c4e4ead0c9a6fff7,61036eebdfbeb787579eee8f,2021-07-30_15h19.22.047,Simcolourproject_2stim_asymm_v5,2020.2.10,MacIntel,60,61025ae37ef11b136ea224fe,,,,,,,,,3272,46.94921875,63.20703125,1,0,0,response1disk,,7,7.4765625,6.5859375,1,0,0,rectangle,7.4765625,6.5859375,1,0,0,7.4765625,6.5859375,1,0,0,1,31,191,1,1,,,,,,,,
,,,,,,,,,,,,,FF,,,,,,,,0.634,,,,,,,,,,,,,,,,,,,,,,60fd5aa0c4e4ead0c9a6fff7,61036eebdfbeb787579eee8f,2021-07-30_15h19.22.047,Simcolourproject_2stim_asymm_v5,2020.2.10,MacIntel,60,61025ae37ef11b136ea224fe,,,,,,,,,308,27.6484375,58.66796875,1,0,0,response1disk,,7,17.05859375,15.62890625,1,0,0,rectangle,-69.9921875,-21.08203125,1,0,0,-17.75390625,4.8671875,1,0,0,1,32,192,8,1,,response5disk_3,TRUE,2,2,"[167,229,146,61,189,237,302,35,265,218,84,284,215,184,131,177,294,154,193,263]",1.7332,rectangle
,,,,,,,,,,,,,FF,,,,,,,,1.2673,,,,,,,,,,,,,,,,,,,,,,60fd5aa0c4e4ead0c9a6fff7,61036eebdfbeb787579eee8f,2021-07-30_15h19.22.047,Simcolourproject_2stim_asymm_v5,2020.2.10,MacIntel,60,61025ae37ef11b136ea224fe,,,,,,,,,2838,-28.8203125,-85.15625,1,0,0,response5disk,,3,-15.10546875,11.796875,1,0,0,rectangle,-15.10546875,11.796875,1,0,0,-15.10546875,11.796875,1,0,0,1,33,193,55,1,,,,,,,,
,,,,,,,,,,,,,FF,,,,,,,,0.6834,,,,,,,,,,,,,,,,,,,,,,60fd5aa0c4e4ead0c9a6fff7,61036eebdfbeb787579eee8f,2021-07-30_15h19.22.047,Simcolourproject_2stim_asymm_v5,2020.2.10,MacIntel,60,61025ae37ef11b136ea224fe,,,,,,,,,197,45.60546875,-20.35546875,1,0,0,response3disk,,5,12.47265625,-1.96875,1,0,0,rectangle,12.47265625,-1.96875,1,0,0,12.47265625,-1.96875,1,0,0,1,34,194,18,1,,,,,,,,
,,,,,,,,,,,,,FF,,,,,,,,0.7166,,,,,,,,,,,,,,,,,,,,,,60fd5aa0c4e4ead0c9a6fff7,61036eebdfbeb787579eee8f,2021-07-30_15h19.22.047,Simcolourproject_2stim_asymm_v5,2020.2.10,MacIntel,60,61025ae37ef11b136ea224fe,,,,,,,,,2745,33.37890625,41.22265625,1,0,0,response1disk,,7,9.04296875,2.28125,1,0,0,rectangle,9.04296875,2.28125,1,0,0,9.04296875,2.28125,1,0,0,1,35,195,76,1,,,,,,,,
,,,,,,,,,,,,,FF,,,,,,,,0.667,,,,,,,,,,,,,,,,,,,,,,60fd5aa0c4e4ead0c9a6fff7,61036eebdfbeb787579eee8f,2021-07-30_15h19.22.047,Simcolourproject_2stim_asymm_v5,2020.2.10,MacIntel,60,61025ae37ef11b136ea224fe,,,,,,,,,1545,34.3984375,48.4609375,1,0,0,response1disk,,7,16.83203125,-3.66015625,1,0,0,rectangle,16.83203125,-3.66015625,1,0,0,16.83203125,-3.66015625,1,0,0,1,36,196,99,1,,,,,,,,
,,,,,,,,,,,,,FF,,,,,,,,1.6334,,,,,,,,,,,,,,,,,,,,,,60fd5aa0c4e4ead0c9a6fff7,61036eebdfbeb787579eee8f,2021-07-30_15h19.22.047,Simcolourproject_2stim_asymm_v5,2020.2.10,MacIntel,60,61025ae37ef11b136ea224fe,,,,,,,,,1332,100.3320313,64.35546875,1,0,0,response1disk,,6,-4.07421875,-17.58203125,1,0,0,rectangle,-4.07421875,-17.58203125,1,0,0,-4.07421875,-17.58203125,1,0,0,1,37,197,156,1,,,,,,,,
,,,,,,,,,,,,,FF,,,,,,,,0.7168,,,,,,,,,,,,,,,,,,,,,,60fd5aa0c4e4ead0c9a6fff7,61036eebdfbeb787579eee8f,2021-07-30_15h19.22.047,Simcolourproject_2stim_asymm_v5,2020.2.10,MacIntel,60,61025ae37ef11b136ea224fe,,,,,,,,,2226,-53.7890625,76.71484375,1,0,0,response7disk,,0,-15.0234375,-17.12890625,1,0,0,rectangle,-15.0234375,-17.12890625,1,0,0,-15.0234375,-17.12890625,1,0,0,1,38,198,47,1,,,,,,,,
,,,,,,,,,,,,,FF,,,,,,,,0.7501,,,,,,,,,,,,,,,,,,,,,,60fd5aa0c4e4ead0c9a6fff7,61036eebdfbeb787579eee8f,2021-07-30_15h19.22.047,Simcolourproject_2stim_asymm_v5,2020.2.10,MacIntel,60,61025ae37ef11b136ea224fe,,,,,,,,,1736,39.515625,67.59375,1,0,0,response1disk,,7,-3.84765625,-9.41015625,1,0,0,rectangle,-3.84765625,-9.41015625,1,0,0,-3.84765625,-9.41015625,1,0,0,1,39,199,38,1,,,,,,,,
,,,,,,,,,,,,,FF,,,,,,,,0.9499,,,,,,,,,,,,,,,,,,,,,,60fd5aa0c4e4ead0c9a6fff7,61036eebdfbeb787579eee8f,2021-07-30_15h19.22.047,Simcolourproject_2stim_asymm_v5,2020.2.10,MacIntel,60,61025ae37ef11b136ea224fe,,,,,,,,,2796,58.21484375,37.8671875,1,0,0,response1disk,,6,7.4453125,-3.96875,1,0,0,rectangle,7.4453125,-3.96875,1,0,0,7.4453125,-3.96875,1,0,0,1,40,200,86,1,,,,,,,,
,,,,,,,,,,,,,FF,,,,,,,,0.8003,,,,,,,,,,,,,,,,,,,,,,60fd5aa0c4e4ead0c9a6fff7,61036eebdfbeb787579eee8f,2021-07-30_15h19.22.047,Simcolourproject_2stim_asymm_v5,2020.2.10,MacIntel,60,61025ae37ef11b136ea224fe,,,,,,,,,1056,-62.94140625,-46.953125,1,0,0,response5disk,,2,-12.1953125,-16.4765625,1,0,0,rectangle,-12.1953125,-16.4765625,1,0,0,-12.1953125,-16.4765625,1,0,0,1,41,201,77,1,,,,,,,,
,,,,,,,,,,,,,FF,,,,,,,,1.1164,,,,,,,,,,,,,,,,,,,,,,60fd5aa0c4e4ead0c9a6fff7,61036eebdfbeb787579eee8f,2021-07-30_15h19.22.047,Simcolourproject_2stim_asymm_v5,2020.2.10,MacIntel,60,61025ae37ef11b136ea224fe,,,,,,,,,2041,-31.67578125,-87.234375,1,0,0,response5disk,,3,4.03515625,-8.203125,1,0,0,rectangle,4.03515625,-8.203125,1,0,0,4.03515625,-8.203125,1,0,0,1,42,202,104,1,,,,,,,,
,,,,,,,,,,,,,FF,,,,,,,,1.4839,,,,,,,,,,,,,,,,,,,,,,60fd5aa0c4e4ead0c9a6fff7,61036eebdfbeb787579eee8f,2021-07-30_15h19.22.047,Simcolourproject_2stim_asymm_v5,2020.2.10,MacIntel,60,61025ae37ef11b136ea224fe,,,,,,,,,1969,40.76953125,-24.24609375,1,0,0,response3disk,,5,14.37109375,4.2734375,1,0,0,rectangle,14.37109375,4.2734375,1,0,0,14.37109375,4.2734375,1,0,0,1,43,203,106,1,,,,,,,,
,,,,,,,,,,,,,FF,,,,,,,,0.7993,,,,,,,,,,,,,,,,,,,,,,60fd5aa0c4e4ead0c9a6fff7,61036eebdfbeb787579eee8f,2021-07-30_15h19.22.047,Simcolourproject_2stim_asymm_v5,2020.2.10,MacIntel,60,61025ae37ef11b136ea224fe,,,,,,,,,3651,34.65234375,72.3828125,1,0,0,response1disk,,7,17.578125,9.65234375,1,0,0,rectangle,17.578125,9.65234375,1,0,0,17.578125,9.65234375,1,0,0,1,44,204,101,1,,,,,,,,
,,,,,,,,,,,,,FF,,,,,,,,0.5164,,,,,,,,,,,,,,,,,,,,,,60fd5aa0c4e4ead0c9a6fff7,61036eebdfbeb787579eee8f,2021-07-30_15h19.22.047,Simcolourproject_2stim_asymm_v5,2020.2.10,MacIntel,60,61025ae37ef11b136ea224fe,,,,,,,,,1571,44.03515625,30.296875,1,0,0,response1disk,,6,11.5703125,14.203125,1,0,0,rectangle,11.5703125,14.203125,1,0,0,11.5703125,14.203125,1,0,0,1,45,205,9,1,,,,,,,,
,,,,,,,,,,,,,FF,,,,,,,,0.6664,,,,,,,,,,,,,,,,,,,,,,60fd5aa0c4e4ead0c9a6fff7,61036eebdfbeb787579eee8f,2021-07-30_15h19.22.047,Simcolourproject_2stim_asymm_v5,2020.2.10,MacIntel,60,61025ae37ef11b136ea224fe,,,,,,,,,284,57.18359375,-29.4765625,1,0,0,response3disk,,5,21.9609375,13.37109375,1,0,0,rectangle,21.9609375,13.37109375,1,0,0,21.9609375,13.37109375,1,0,0,1,46,206,50,1,,,,,,,,
,,,,,,,,,,,,,FF,,,,,,,,0.5165,,,,,,,,,,,,,,,,,,,,,,60fd5aa0c4e4ead0c9a6fff7,61036eebdfbeb787579eee8f,2021-07-30_15h19.22.047,Simcolourproject_2stim_asymm_v5,2020.2.10,MacIntel,60,61025ae37ef11b136ea224fe,,,,,,,,,3571,46.90625,-25.62890625,1,0,0,response3disk,,5,14.48046875,5.4921875,1,0,0,rectangle,14.48046875,5.4921875,1,0,0,14.48046875,5.4921875,1,0,0,1,47,207,116,1,,,,,,,,
,,,,,,,,,,,,,FF,,,,,,,,0.3834,,,,,,,,,,,,,,,,,,,,,,60fd5aa0c4e4ead0c9a6fff7,61036eebdfbeb787579eee8f,2021-07-30_15h19.22.047,Simcolourproject_2stim_asymm_v5,2020.2.10,MacIntel,60,61025ae37ef11b136ea224fe,,,,,,,,,1243,98.9765625,35.0234375,1,0,0,response1disk,,6,28.7578125,2.81640625,1,0,0,rectangle,28.7578125,2.81640625,1,0,0,28.7578125,2.81640625,1,0,0,1,48,208,33,1,,,,,,,,
,,,,,,,,,,,,,FF,,,,,,,,0.5175,,,,,,,,,,,,,,,,,,,,,,60fd5aa0c4e4ead0c9a6fff7,61036eebdfbeb787579eee8f,2021-07-30_15h19.22.047,Simcolourproject_2stim_asymm_v5,2020.2.10,MacIntel,60,61025ae37ef11b136ea224fe,,,,,,,,,3825,69.75390625,47.59765625,1,0,0,response1disk,,6,9.10546875,3.51953125,1,0,0,rectangle,9.10546875,3.51953125,1,0,0,9.10546875,3.51953125,1,0,0,1,49,209,151,1,,,,,,,,
,,,,,,,,,,,,,FF,,,,,,,,0.3999,,,,,,,,,,,,,,,,,,,,,,60fd5aa0c4e4ead0c9a6fff7,61036eebdfbeb787579eee8f,2021-07-30_15h19.22.047,Simcolourproject_2stim_asymm_v5,2020.2.10,MacIntel,60,61025ae37ef11b136ea224fe,,,,,,,,,709,69.00390625,65.51953125,1,0,0,response1disk,,6,10.62109375,8.5859375,1,0,0,rectangle,10.62109375,8.5859375,1,0,0,10.62109375,8.5859375,1,0,0,1,50,210,140,1,,,,,,,,
,,,,,,,,,,,,,FF,,,,,,,,15.9159,,,,,,,,,,,,,,,,,,,,,,60fd5aa0c4e4ead0c9a6fff7,61036eebdfbeb787579eee8f,2021-07-30_15h19.22.047,Simcolourproject_2stim_asymm_v5,2020.2.10,MacIntel,60,61025ae37ef11b136ea224fe,,,,,,,,,307,70.10546875,49.9375,1,0,0,response1disk,,6,5.4140625,17.66796875,1,0,0,rectangle,5.4140625,17.66796875,1,0,0,5.4140625,17.66796875,1,0,0,1,51,211,136,1,,,,,,,,
,,,,,,,,,,,,,FF,,,,,,,,0.6667,,,,,,,,,,,,,,,,,,,,,,60fd5aa0c4e4ead0c9a6fff7,61036eebdfbeb787579eee8f,2021-07-30_15h19.22.047,Simcolourproject_2stim_asymm_v5,2020.2.10,MacIntel,60,61025ae37ef11b136ea224fe,,,,,,,,,1988,35.94921875,69.74609375,1,0,0,response1disk,,7,4.84765625,13.9296875,1,0,0,rectangle,4.84765625,13.9296875,1,0,0,4.84765625,13.9296875,1,0,0,1,52,212,34,1,,,,,,,,
,,,,,,,,,,,,,FF,,,,,,,,0.8509,,,,,,,,,,,,,,,,,,,,,,60fd5aa0c4e4ead0c9a6fff7,61036eebdfbeb787579eee8f,2021-07-30_15h19.22.047,Simcolourproject_2stim_asymm_v5,2020.2.10,MacIntel,60,61025ae37ef11b136ea224fe,,,,,,,,,1284,121.8789063,59.87890625,1,0,0,response1disk,,6,-6.28515625,7.56640625,1,0,0,rectangle,-6.28515625,7.56640625,1,0,0,-6.28515625,7.56640625,1,0,0,1,53,213,139,1,,,,,,,,
,,,,,,,,,,,,,FF,,,,,,,,3.5666,,,,,,,,,,,,,,,,,,,,,,60fd5aa0c4e4ead0c9a6fff7,61036eebdfbeb787579eee8f,2021-07-30_15h19.22.047,Simcolourproject_2stim_asymm_v5,2020.2.10,MacIntel,60,61025ae37ef11b136ea224fe,,,,,,,,,3578,119.5703125,40.65234375,1,0,0,response1disk,,6,32.24609375,-7.5703125,1,0,0,rectangle,64.83984375,-53.16796875,1,0,0,27.91796875,-0.328125,1,0,0,1,54,214,153,1,,response3disk_3,TRUE,5,5,"[167,229,146,61,189,237,302,35,265,218,84,284,215,184,131,177,294,154,193,263]",1.232,rectangle
,,,,,,,,,,,,,FF,,,,,,,,5.2002,,,,,,,,,,,,,,,,,,,,,,60fd5aa0c4e4ead0c9a6fff7,61036eebdfbeb787579eee8f,2021-07-30_15h19.22.047,Simcolourproject_2stim_asymm_v5,2020.2.10,MacIntel,60,61025ae37ef11b136ea224fe,,,,,,,,,4081,69.42578125,-30.625,1,0,0,response3disk,,5,-11,6.17578125,1,0,0,rectangle,-11,6.17578125,1,0,0,-11,6.17578125,1,0,0,1,55,215,128,1,,,,,,,,
,,,,,,,,,,,,,FF,,,,,,,,0.8994,,,,,,,,,,,,,,,,,,,,,,60fd5aa0c4e4ead0c9a6fff7,61036eebdfbeb787579eee8f,2021-07-30_15h19.22.047,Simcolourproject_2stim_asymm_v5,2020.2.10,MacIntel,60,61025ae37ef11b136ea224fe,,,,,,,,,3457,51.39453125,65.19921875,1,0,0,response1disk,,7,19.8359375,4.25,1,0,0,rectangle,19.8359375,4.25,1,0,0,19.8359375,4.25,1,0,0,1,56,216,70,1,,,,,,,,
,,,,,,,,,,,,,FF,,,,,,,,0.6669,,,,,,,,,,,,,,,,,,,,,,60fd5aa0c4e4ead0c9a6fff7,61036eebdfbeb787579eee8f,2021-07-30_15h19.22.047,Simcolourproject_2stim_asymm_v5,2020.2.10,MacIntel,60,61025ae37ef11b136ea224fe,,,,,,,,,3123,90.46484375,28.703125,1,0,0,response1disk,,6,30.32421875,10.0546875,1,0,0,rectangle,69.4375,-30.609375,1,0,0,1.296875,2.9375,1,0,0,1,57,217,11,1,,response3disk_3,TRUE,5,5,"[167,229,146,61,189,237,302,35,265,218,84,284,215,184,131,177,294,154,193,263]",1.2165,rectangle
,,,,,,,,,,,,,FF,,,,,,,,1.3841,,,,,,,,,,,,,,,,,,,,,,60fd5aa0c4e4ead0c9a6fff7,61036eebdfbeb787579eee8f,2021-07-30_15h19.22.047,Simcolourproject_2stim_asymm_v5,2020.2.10,MacIntel,60,61025ae37ef11b136ea224fe,,,,,,,,,1140,108.5429688,40.1875,1,0,0,response1disk,,6,4.36328125,8.09375,1,0,0,rectangle,4.36328125,8.09375,1,0,0,4.36328125,8.09375,1,0,0,1,58,218,137,1,,,,,,,,
,,,,,,,,,,,,,FF,,,,,,,,1.6665,,,,,,,,,,,,,,,,,,,,,,60fd5aa0c4e4ead0c9a6fff7,61036eebdfbeb787579eee8f,2021-07-30_15h19.22.047,Simcolourproject_2stim_asymm_v5,2020.2.10,MacIntel,60,61025ae37ef11b136ea224fe,,,,,,,,,3226,90.33984375,34.83984375,1,0,0,response1disk,,6,14.125,-3.71875,1,0,0,rectangle,14.125,-3.71875,1,0,0,14.125,-3.71875,1,0,0,1,59,219,112,1,,,,,,,,
,,,,,,,,,,,,,FF,,,,,,,,1.6671,,,,,,,,,,,,,,,,,,,,,,60fd5aa0c4e4ead0c9a6fff7,61036eebdfbeb787579eee8f,2021-07-30_15h19.22.047,Simcolourproject_2stim_asymm_v5,2020.2.10,MacIntel,60,61025ae37ef11b136ea224fe,,,,,,,,,3589,94.125,55.57421875,1,0,0,response1disk,,6,2.30078125,9.91796875,1,0,0,rectangle,2.30078125,9.91796875,1,0,0,2.30078125,9.91796875,1,0,0,1,60,220,29,1,,,,,,,,
,,,,,,,,,,,,,FF,,,,,,,,0.8663,,,,,,,,,,,,,,,,,,,,,,60fd5aa0c4e4ead0c9a6fff7,61036eebdfbeb787579eee8f,2021-07-30_15h19.22.047,Simcolourproject_2stim_asymm_v5,2020.2.10,MacIntel,60,61025ae37ef11b136ea224fe,,,,,,,,,2483,61.7890625,54.05859375,1,0,0,response1disk,,6,14.15234375,15.46484375,1,0,0,rectangle,14.15234375,15.46484375,1,0,0,14.15234375,15.46484375,1,0,0,1,61,221,14,1,,,,,,,,
,,,,,,,,,,,,,FF,,,,,,,,1.0831,,,,,,,,,,,,,,,,,,,,,,60fd5aa0c4e4ead0c9a6fff7,61036eebdfbeb787579eee8f,2021-07-30_15h19.22.047,Simcolourproject_2stim_asymm_v5,2020.2.10,MacIntel,60,61025ae37ef11b136ea224fe,,,,,,,,,1047,33.0546875,-63.5703125,1,0,0,response3disk,,4,1.0234375,0.578125,1,0,0,rectangle,1.0234375,0.578125,1,0,0,1.0234375,0.578125,1,0,0,1,62,222,94,1,,,,,,,,
,,,,,,,,,,,,,FF,,,,,,,,0.7158,,,,,,,,,,,,,,,,,,,,,,60fd5aa0c4e4ead0c9a6fff7,61036eebdfbeb787579eee8f,2021-07-30_15h19.22.047,Simcolourproject_2stim_asymm_v5,2020.2.10,MacIntel,60,61025ae37ef11b136ea224fe,,,,,,,,,4285,39.63671875,58.6484375,1,0,0,response1disk,,7,3.6953125,1.29296875,1,0,0,rectangle,3.6953125,1.29296875,1,0,0,3.6953125,1.29296875,1,0,0,1,63,223,143,1,,,,,,,,
,,,,,,,,,,,,,FF,,,,,,,,0.7667,,,,,,,,,,,,,,,,,,,,,,60fd5aa0c4e4ead0c9a6fff7,61036eebdfbeb787579eee8f,2021-07-30_15h19.22.047,Simcolourproject_2stim_asymm_v5,2020.2.10,MacIntel,60,61025ae37ef11b136ea224fe,,,,,,,,,1646,28.015625,86.12109375,1,0,0,response1disk,,7,4.51953125,3.34375,1,0,0,rectangle,4.51953125,3.34375,1,0,0,4.51953125,3.34375,1,0,0,1,64,224,56,1,,,,,,,,
,,,,,,,,,,,,,FF,,,,,,,,1.0166,,,,,,,,,,,,,,,,,,,,,,60fd5aa0c4e4ead0c9a6fff7,61036eebdfbeb787579eee8f,2021-07-30_15h19.22.047,Simcolourproject_2stim_asymm_v5,2020.2.10,MacIntel,60,61025ae37ef11b136ea224fe,,,,,,,,,884,44.8828125,72.9375,1,0,0,response1disk,,7,14.40234375,-2.17578125,1,0,0,rectangle,14.40234375,-2.17578125,1,0,0,14.40234375,-2.17578125,1,0,0,1,65,225,5,1,,,,,,,,
,,,,,,,,,,,,,FF,,,,,,,,0.4677,,,,,,,,,,,,,,,,,,,,,,60fd5aa0c4e4ead0c9a6fff7,61036eebdfbeb787579eee8f,2021-07-30_15h19.22.047,Simcolourproject_2stim_asymm_v5,2020.2.10,MacIntel,60,61025ae37ef11b136ea224fe,,,,,,,,,3986,52.05078125,66.79296875,1,0,0,response1disk,,7,18.8671875,1.28125,1,0,0,rectangle,18.8671875,1.28125,1,0,0,18.8671875,1.28125,1,0,0,1,66,226,7,1,,,,,,,,
,,,,,,,,,,,,,FF,,,,,,,,0.4495,,,,,,,,,,,,,,,,,,,,,,60fd5aa0c4e4ead0c9a6fff7,61036eebdfbeb787579eee8f,2021-07-30_15h19.22.047,Simcolourproject_2stim_asymm_v5,2020.2.10,MacIntel,60,61025ae37ef11b136ea224fe,,,,,,,,,2473,59.04296875,77.6328125,1,0,0,response1disk,,7,12.9296875,-4.69921875,1,0,0,rectangle,12.9296875,-4.69921875,1,0,0,12.9296875,-4.69921875,1,0,0,1,67,227,147,1,,,,,,,,
,,,,,,,,,,,,,FF,,,,,,,,0.666,,,,,,,,,,,,,,,,,,,,,,60fd5aa0c4e4ead0c9a6fff7,61036eebdfbeb787579eee8f,2021-07-30_15h19.22.047,Simcolourproject_2stim_asymm_v5,2020.2.10,MacIntel,60,61025ae37ef11b136ea224fe,,,,,,,,,3459,57.9375,61.6953125,1,0,0,response1disk,,7,20.33984375,6.984375,1,0,0,rectangle,-35.41796875,-63.70703125,1,0,0,-21.56640625,10.58984375,1,0,0,1,68,228,13,1,,response5disk_3,TRUE,3,3,"[167,229,146,61,189,237,302,35,265,218,84,284,215,184,131,177,294,154,193,263]",1.5659,rectangle
,,,,,,,,,,,,,FF,,,,,,,,0.5327,,,,,,,,,,,,,,,,,,,,,,60fd5aa0c4e4ead0c9a6fff7,61036eebdfbeb787579eee8f,2021-07-30_15h19.22.047,Simcolourproject_2stim_asymm_v5,2020.2.10,MacIntel,60,61025ae37ef11b136ea224fe,,,,,,,,,1156,43.609375,30.63671875,1,0,0,response1disk,,6,-10.66796875,-17.11328125,1,0,0,rectangle,-10.66796875,-17.11328125,1,0,0,-10.66796875,-17.11328125,1,0,0,1,69,229,10,1,,,,,,,,
,,,,,,,,,,,,,FF,,,,,,,,1.2826,,,,,,,,,,,,,,,,,,,,,,60fd5aa0c4e4ead0c9a6fff7,61036eebdfbeb787579eee8f,2021-07-30_15h19.22.047,Simcolourproject_2stim_asymm_v5,2020.2.10,MacIntel,60,61025ae37ef11b136ea224fe,,,,,,,,,3257,51.765625,-68.85546875,1,0,0,response3disk,,4,-9.99609375,1.00390625,1,0,0,rectangle,-9.99609375,1.00390625,1,0,0,-9.99609375,1.00390625,1,0,0,1,70,230,131,1,,,,,,,,
,,,,,,,,,,,,,FF,,,,,,,,0.8997,,,,,,,,,,,,,,,,,,,,,,60fd5aa0c4e4ead0c9a6fff7,61036eebdfbeb787579eee8f,2021-07-30_15h19.22.047,Simcolourproject_2stim_asymm_v5,2020.2.10,MacIntel,60,61025ae37ef11b136ea224fe,,,,,,,,,443,-63.90234375,35.9296875,1,0,0,response7disk,,1,-19.53515625,11.91015625,1,0,0,rectangle,-19.53515625,11.91015625,1,0,0,-19.53515625,11.91015625,1,0,0,1,71,231,23,1,,,,,,,,
,,,,,,,,,,,,,FF,,,,,,,,0.8503,,,,,,,,,,,,,,,,,,,,,,60fd5aa0c4e4ead0c9a6fff7,61036eebdfbeb787579eee8f,2021-07-30_15h19.22.047,Simcolourproject_2stim_asymm_v5,2020.2.10,MacIntel,60,61025ae37ef11b136ea224fe,,,,,,,,,2263,61.21875,19.87109375,1,0,0,response1disk,,6,9.75390625,1.7578125,1,0,0,rectangle,9.75390625,1.7578125,1,0,0,9.75390625,1.7578125,1,0,0,1,72,232,90,1,,,,,,,,
,,,,,,,,,,,,,FF,,,,,,,,1.454,,,,,,,,,,,,,,,,,,,,,,60fd5aa0c4e4ead0c9a6fff7,61036eebdfbeb787579eee8f,2021-07-30_15h19.22.047,Simcolourproject_2stim_asymm_v5,2020.2.10,MacIntel,60,61025ae37ef11b136ea224fe,,,,,,,,,2033,-61.43359375,-48.83984375,1,0,0,response5disk,,2,-1.46875,1.8515625,1,0,0,rectangle,-1.46875,1.8515625,1,0,0,-1.46875,1.8515625,1,0,0,1,73,233,27,1,,,,,,,,
,,,,,,,,,,,,,FF,,,,,,,,2.3841,,,,,,,,,,,,,,,,,,,,,,60fd5aa0c4e4ead0c9a6fff7,61036eebdfbeb787579eee8f,2021-07-30_15h19.22.047,Simcolourproject_2stim_asymm_v5,2020.2.10,MacIntel,60,61025ae37ef11b136ea224fe,,,,,,,,,757,58.03515625,87.37890625,1,0,0,response1disk,,7,4.92578125,4.6015625,1,0,0,rectangle,4.92578125,4.6015625,1,0,0,4.92578125,4.6015625,1,0,0,1,74,234,46,1,,,,,,,,
,,,,,,,,,,,,,FF,,,,,,,,3.3333,,,,,,,,,,,,,,,,,,,,,,60fd5aa0c4e4ead0c9a6fff7,61036eebdfbeb787579eee8f,2021-07-30_15h19.22.047,Simcolourproject_2stim_asymm_v5,2020.2.10,MacIntel,60,61025ae37ef11b136ea224fe,,,,,,,,,794,101.7734375,47.5625,1,0,0,response1disk,,6,5.6328125,11.5390625,1,0,0,rectangle,5.6328125,11.5390625,1,0,0,5.6328125,11.5390625,1,0,0,1,75,235,81,1,,,,,,,,
,,,,,,,,,,,,,FF,,,,,,,,0.7169,,,,,,,,,,,,,,,,,,,,,,60fd5aa0c4e4ead0c9a6fff7,61036eebdfbeb787579eee8f,2021-07-30_15h19.22.047,Simcolourproject_2stim_asymm_v5,2020.2.10,MacIntel,60,61025ae37ef11b136ea224fe,,,,,,,,,4216,28.68359375,76.1796875,1,0,0,response1disk,,7,1.5390625,8.35546875,1,0,0,rectangle,-69.1640625,83.23046875,1,0,0,-27.05078125,12.01171875,1,0,0,1,76,236,62,1,,response7disk_3,TRUE,0,0,"[167,229,146,61,189,237,302,35,265,218,84,284,215,184,131,177,294,154,193,263]",1.8992,rectangle
,,,,,,,,,,,,,FF,,,,,,,,2.6999,,,,,,,,,,,,,,,,,,,,,,60fd5aa0c4e4ead0c9a6fff7,61036eebdfbeb787579eee8f,2021-07-30_15h19.22.047,Simcolourproject_2stim_asymm_v5,2020.2.10,MacIntel,60,61025ae37ef11b136ea224fe,,,,,,,,,1760,78.38671875,-71.69921875,1,0,0,response3disk,,5,0.84765625,0.0390625,1,0,0,rectangle,0.84765625,0.0390625,1,0,0,0.84765625,0.0390625,1,0,0,1,77,237,115,1,,,,,,,,
,,,,,,,,,,,,,FF,,,,,,,,1.8333,,,,,,,,,,,,,,,,,,,,,,60fd5aa0c4e4ead0c9a6fff7,61036eebdfbeb787579eee8f,2021-07-30_15h19.22.047,Simcolourproject_2stim_asymm_v5,2020.2.10,MacIntel,60,61025ae37ef11b136ea224fe,,,,,,,,,701,-32.47265625,-79.4296875,1,0,0,response5disk,,3,-30.5078125,7.0078125,1,0,0,rectangle,-30.5078125,7.0078125,1,0,0,-30.5078125,7.0078125,1,0,0,1,78,238,15,1,,,,,,,,
,,,,,,,,,,,,,FF,,,,,,,,1.3666,,,,,,,,,,,,,,,,,,,,,,60fd5aa0c4e4ead0c9a6fff7,61036eebdfbeb787579eee8f,2021-07-30_15h19.22.047,Simcolourproject_2stim_asymm_v5,2020.2.10,MacIntel,60,61025ae37ef11b136ea224fe,,,,,,,,,1535,76.02734375,33.1875,1,0,0,response1disk,,6,26.859375,12.05078125,1,0,0,rectangle,26.859375,12.05078125,1,0,0,26.859375,12.05078125,1,0,0,1,79,239,48,1,,,,,,,,
,,,,,,,,,,,,,FF,,,,,,,,1.4999,,,,,,,,,,,,,,,,,,,,,,60fd5aa0c4e4ead0c9a6fff7,61036eebdfbeb787579eee8f,2021-07-30_15h19.22.047,Simcolourproject_2stim_asymm_v5,2020.2.10,MacIntel,60,61025ae37ef11b136ea224fe,,,,,,,,,1206,44.35546875,83.37890625,1,0,0,response1disk,,7,22.30078125,-7.49609375,1,0,0,rectangle,22.30078125,-7.49609375,1,0,0,22.30078125,-7.49609375,1,0,0,1,80,240,102,1,,,,,,,,
,,,,,,,,,,,,,FF,,,,,,,,1.6343,,,,,,,,,,,,,,,,,,,,,,60fd5aa0c4e4ead0c9a6fff7,61036eebdfbeb787579eee8f,2021-07-30_15h19.22.047,Simcolourproject_2stim_asymm_v5,2020.2.10,MacIntel,60,61025ae37ef11b136ea224fe,,,,,,,,,154,73.09765625,31.9765625,1,0,0,response1disk,,6,28.0546875,2.875,1,0,0,rectangle,28.0546875,2.875,1,0,0,28.0546875,2.875,1,0,0,1,81,241,149,1,,,,,,,,
,,,,,,,,,,,,,FF,,,,,,,,0.7821,,,,,,,,,,,,,,,,,,,,,,60fd5aa0c4e4ead0c9a6fff7,61036eebdfbeb787579eee8f,2021-07-30_15h19.22.047,Simcolourproject_2stim_asymm_v5,2020.2.10,MacIntel,60,61025ae37ef11b136ea224fe,,,,,,,,,1869,41.80078125,62.6796875,1,0,0,response1disk,,7,22.55078125,0.8671875,1,0,0,rectangle,22.55078125,0.8671875,1,0,0,22.55078125,0.8671875,1,0,0,1,82,242,142,1,,,,,,,,
,,,,,,,,,,,,,FF,,,,,,,,0.7324,,,,,,,,,,,,,,,,,,,,,,60fd5aa0c4e4ead0c9a6fff7,61036eebdfbeb787579eee8f,2021-07-30_15h19.22.047,Simcolourproject_2stim_asymm_v5,2020.2.10,MacIntel,60,61025ae37ef11b136ea224fe,,,,,,,,,2007,35.56640625,62.15625,1,0,0,response1disk,,7,7.55078125,2.05078125,1,0,0,rectangle,7.55078125,2.05078125,1,0,0,7.55078125,2.05078125,1,0,0,1,83,243,41,1,,,,,,,,
,,,,,,,,,,,,,FF,,,,,,,,0.9831,,,,,,,,,,,,,,,,,,,,,,60fd5aa0c4e4ead0c9a6fff7,61036eebdfbeb787579eee8f,2021-07-30_15h19.22.047,Simcolourproject_2stim_asymm_v5,2020.2.10,MacIntel,60,61025ae37ef11b136ea224fe,,,,,,,,,1372,-64.8359375,-95.2890625,1,0,0,response5disk,,3,-9.55078125,5.57421875,1,0,0,rectangle,-9.55078125,5.57421875,1,0,0,-9.55078125,5.57421875,1,0,0,1,84,244,0,1,,,,,,,,
,,,,,,,,,,,,,FF,,,,,,,,0.8505,,,,,,,,,,,,,,,,,,,,,,60fd5aa0c4e4ead0c9a6fff7,61036eebdfbeb787579eee8f,2021-07-30_15h19.22.047,Simcolourproject_2stim_asymm_v5,2020.2.10,MacIntel,60,61025ae37ef11b136ea224fe,,,,,,,,,1104,35.01171875,76.5703125,1,0,0,response1disk,,7,5.81640625,2.9609375,1,0,0,rectangle,5.81640625,2.9609375,1,0,0,5.81640625,2.9609375,1,0,0,1,85,245,109,1,,,,,,,,
,,,,,,,,,,,,,FF,,,,,,,,0.6842,,,,,,,,,,,,,,,,,,,,,,60fd5aa0c4e4ead0c9a6fff7,61036eebdfbeb787579eee8f,2021-07-30_15h19.22.047,Simcolourproject_2stim_asymm_v5,2020.2.10,MacIntel,60,61025ae37ef11b136ea224fe,,,,,,,,,4005,68.74609375,34.89453125,1,0,0,response1disk,,6,-3.3515625,-2.08984375,1,0,0,rectangle,-3.3515625,-2.08984375,1,0,0,-3.3515625,-2.08984375,1,0,0,1,86,246,43,1,,,,,,,,
,,,,,,,,,,,,,FF,,,,,,,,0.4836,,,,,,,,,,,,,,,,,,,,,,60fd5aa0c4e4ead0c9a6fff7,61036eebdfbeb787579eee8f,2021-07-30_15h19.22.047,Simcolourproject_2stim_asymm_v5,2020.2.10,MacIntel,60,61025ae37ef11b136ea224fe,,,,,,,,,2880,80.9140625,37.0078125,1,0,0,response1disk,,6,18.67578125,-13.83203125,1,0,0,rectangle,18.67578125,-13.83203125,1,0,0,18.67578125,-13.83203125,1,0,0,1,87,247,26,1,,,,,,,,
