key_resp.keys,key_resp.rt,key_resp_14.keys,key_resp_14.rt,key_resp_15.keys,key_resp_15.rt,key_resp_17.keys,key_resp_17.rt,key_resp_9.keys,key_resp_9.rt,key_resp_10.keys,key_resp_10.rt,practice_comparison,Ecc,mouse_5.x,mouse_5.y,mouse_5.leftButton,mouse_5.midButton,mouse_5.rightButton,mouse_5.clicked_name,pracsimilarity,response_time,mouse_10.x,mouse_10.y,mouse_10.leftButton,mouse_10.midButton,mouse_10.rightButton,mouse_10.clicked_name,mouse_7.x,mouse_7.y,mouse_7.leftButton,mouse_7.midButton,mouse_7.rightButton,mouse_6.x,mouse_6.y,mouse_6.leftButton,mouse_6.midButton,mouse_6.rightButton,duringprac.thisRepN,duringprac.thisTrialN,duringprac.thisN,duringprac.thisIndex,duringprac.ran,participant,session,date,expName,psychopyVersion,OS,frameRate,study_id,mouse_7.clicked_name,catchpracsimilarity,catch_response_time,catchnumberprac,catchtrialorderprac,mouse_6.clicked_name,key_resp_22.keys,key_resp_22.rt,realcomparison,mouse.x,mouse.y,mouse.leftButton,mouse.midButton,mouse.rightButton,mouse.clicked_name,Colour2,similarity,mouse_2.x,mouse_2.y,mouse_2.leftButton,mouse_2.midButton,mouse_2.rightButton,mouse_2.clicked_name,mouse_3.x,mouse_3.y,mouse_3.leftButton,mouse_3.midButton,mouse_3.rightButton,mouse_11.x,mouse_11.y,mouse_11.leftButton,mouse_11.midButton,mouse_11.rightButton,trials_2.thisRepN,trials_2.thisTrialN,trials_2.thisN,trials_2.thisIndex,trials_2.ran,Colour1,mouse_3.clicked_name,catchornah,catchsimilarity,catchnumber,catchtrialorder,catchRT,mouse_11.clicked_name
space,1.66016,space,6.04271,space,17.886855,space,11.517675,space,0.80431,space,12.0205,80,FF,43.91796875,81.6875,1,0,0,response1disk_5,7,4.602875,-10.09375,0.48046875,1,0,0,rectangle_8,-10.09375,0.48046875,1,0,0,-10.09375,0.48046875,1,0,0,0,0,0,0,1,60fde3934048d744f301ccb7,6103681652747e33664b3160,2021-07-29_22h47.36.832,Simcolourproject_2stim_asymm_v5,2020.2.10,MacIntel,60,61025ae37ef11b136ea224fe,,,,,,,,,,,,,,,,,,,,,,,,,,,,,,,,,,,,,,,,,,,,,,
,,,,,,,,,,,,18,FF,102.0976563,24.5234375,1,0,0,response1disk_5,6,2.53164,8.2421875,2.73828125,1,0,0,rectangle_8,40.75,-87.734375,1,0,0,-3.86328125,-4.640625,1,0,0,0,1,1,3,1,60fde3934048d744f301ccb7,6103681652747e33664b3160,2021-07-29_22h47.36.832,Simcolourproject_2stim_asymm_v5,2020.2.10,MacIntel,60,61025ae37ef11b136ea224fe,response3disk_7,4,2.48516,4,"[2,5]",rectangle_4,,,,,,,,,,,,,,,,,,,,,,,,,,,,,,,,,,,,,,,,
,,,,,,,,,,,,51,PF,78.859375,21.328125,1,0,0,response1disk_5,6,1.6189,12.9453125,0.10546875,1,0,0,rectangle_8,12.9453125,0.10546875,1,0,0,12.9453125,0.10546875,1,0,0,0,2,2,4,1,60fde3934048d744f301ccb7,6103681652747e33664b3160,2021-07-29_22h47.36.832,Simcolourproject_2stim_asymm_v5,2020.2.10,MacIntel,60,61025ae37ef11b136ea224fe,,,,,,,,,,,,,,,,,,,,,,,,,,,,,,,,,,,,,,,,,,,,,,
,,,,,,,,,,,,96,PF,-58.8515625,-101.9257813,1,0,0,response5disk_5,3,1.60124,-3.73828125,-11.21484375,1,0,0,rectangle_8,-3.73828125,-11.21484375,1,0,0,-3.73828125,-11.21484375,1,0,0,0,3,3,6,1,60fde3934048d744f301ccb7,6103681652747e33664b3160,2021-07-29_22h47.36.832,Simcolourproject_2stim_asymm_v5,2020.2.10,MacIntel,60,61025ae37ef11b136ea224fe,,,,,,,,,,,,,,,,,,,,,,,,,,,,,,,,,,,,,,,,,,,,,,
,,,,,,,,,,,,24,PF,90.8515625,-52.2265625,1,0,0,response3disk_5,5,1.533025,1.9375,0.9453125,1,0,0,rectangle_8,36.140625,-89.5,1,0,0,0.140625,-2.09765625,1,0,0,0,4,4,1,1,60fde3934048d744f301ccb7,6103681652747e33664b3160,2021-07-29_22h47.36.832,Simcolourproject_2stim_asymm_v5,2020.2.10,MacIntel,60,61025ae37ef11b136ea224fe,response3disk_7,4,1.98514,4,"[2,5]",rectangle_4,,,,,,,,,,,,,,,,,,,,,,,,,,,,,,,,,,,,,,,,
,,,,,,,,,,,,67,FF,88.8515625,-50.66015625,1,0,0,response3disk_5,5,1.41746,0.21484375,-6.3828125,1,0,0,rectangle_8,0.21484375,-6.3828125,1,0,0,0.21484375,-6.3828125,1,0,0,0,5,5,5,1,60fde3934048d744f301ccb7,6103681652747e33664b3160,2021-07-29_22h47.36.832,Simcolourproject_2stim_asymm_v5,2020.2.10,MacIntel,60,61025ae37ef11b136ea224fe,,,,,,,,,,,,,,,,,,,,,,,,,,,,,,,,,,,,,,,,,,,,,,
,,,,,,,,,,,,34,PF,-29.15234375,-88.3203125,1,0,0,response5disk_5,3,1.2521,-6.1640625,-2.7578125,1,0,0,rectangle_8,-6.1640625,-2.7578125,1,0,0,-6.1640625,-2.7578125,1,0,0,0,6,6,2,1,60fde3934048d744f301ccb7,6103681652747e33664b3160,2021-07-29_22h47.36.832,Simcolourproject_2stim_asymm_v5,2020.2.10,MacIntel,60,61025ae37ef11b136ea224fe,,,,,,,,,,,,,,,,,,,,,,,,,,,,,,,,,,,,,,,,,,,,,,
,,,,,,,,,,,,,FF,,,,,,,,1.98418,,,,,,,,,,,,,,,,,,,,,,60fde3934048d744f301ccb7,6103681652747e33664b3160,2021-07-29_22h47.36.832,Simcolourproject_2stim_asymm_v5,2020.2.10,MacIntel,60,61025ae37ef11b136ea224fe,,,,,,,space,3.325305,915,81.75,29.10546875,1,0,0,response1disk,,6,18.8359375,-2.5390625,1,0,0,rectangle,18.8359375,-2.5390625,1,0,0,18.8359375,-2.5390625,1,0,0,0,0,0,125,1,,,,,,,,
,,,,,,,,,,,,,FF,,,,,,,,0.96836,,,,,,,,,,,,,,,,,,,,,,60fde3934048d744f301ccb7,6103681652747e33664b3160,2021-07-29_22h47.36.832,Simcolourproject_2stim_asymm_v5,2020.2.10,MacIntel,60,61025ae37ef11b136ea224fe,,,,,,,,,4302,-31.7109375,-93.22265625,1,0,0,response5disk,,3,16.01171875,0.7890625,1,0,0,rectangle,16.01171875,0.7890625,1,0,0,16.01171875,0.7890625,1,0,0,0,1,1,25,1,,,,,,,,
,,,,,,,,,,,,,FF,,,,,,,,1.586995,,,,,,,,,,,,,,,,,,,,,,60fde3934048d744f301ccb7,6103681652747e33664b3160,2021-07-29_22h47.36.832,Simcolourproject_2stim_asymm_v5,2020.2.10,MacIntel,60,61025ae37ef11b136ea224fe,,,,,,,,,936,71.18359375,-34.16015625,1,0,0,response3disk,,5,-28.8046875,-1.13671875,1,0,0,rectangle,-28.8046875,-1.13671875,1,0,0,-28.8046875,-1.13671875,1,0,0,0,2,2,152,1,,,,,,,,
,,,,,,,,,,,,,FF,,,,,,,,1.066445,,,,,,,,,,,,,,,,,,,,,,60fde3934048d744f301ccb7,6103681652747e33664b3160,2021-07-29_22h47.36.832,Simcolourproject_2stim_asymm_v5,2020.2.10,MacIntel,60,61025ae37ef11b136ea224fe,,,,,,,,,2685,83.80078125,-44.7734375,1,0,0,response3disk,,5,11.43359375,4.65234375,1,0,0,rectangle,11.43359375,4.65234375,1,0,0,11.43359375,4.65234375,1,0,0,0,3,3,37,1,,,,,,,,
,,,,,,,,,,,,,FF,,,,,,,,1.08273,,,,,,,,,,,,,,,,,,,,,,60fde3934048d744f301ccb7,6103681652747e33664b3160,2021-07-29_22h47.36.832,Simcolourproject_2stim_asymm_v5,2020.2.10,MacIntel,60,61025ae37ef11b136ea224fe,,,,,,,,,108,-103.390625,-57.7734375,1,0,0,response5disk,,2,-18.03125,-11.94140625,1,0,0,rectangle,-18.03125,-11.94140625,1,0,0,-18.03125,-11.94140625,1,0,0,0,4,4,131,1,,,,,,,,
,,,,,,,,,,,,,FF,,,,,,,,0.932235,,,,,,,,,,,,,,,,,,,,,,60fde3934048d744f301ccb7,6103681652747e33664b3160,2021-07-29_22h47.36.832,Simcolourproject_2stim_asymm_v5,2020.2.10,MacIntel,60,61025ae37ef11b136ea224fe,,,,,,,,,3056,-70.08203125,-46.06640625,1,0,0,response5disk,,2,-5.0859375,-0.83984375,1,0,0,rectangle,-5.0859375,-0.83984375,1,0,0,-5.0859375,-0.83984375,1,0,0,0,5,5,67,1,,,,,,,,
,,,,,,,,,,,,,FF,,,,,,,,1.848445,,,,,,,,,,,,,,,,,,,,,,60fde3934048d744f301ccb7,6103681652747e33664b3160,2021-07-29_22h47.36.832,Simcolourproject_2stim_asymm_v5,2020.2.10,MacIntel,60,61025ae37ef11b136ea224fe,,,,,,,,,2164,-65.046875,38.45703125,1,0,0,response7disk,,1,20.8671875,-7.76953125,1,0,0,rectangle,20.8671875,-7.76953125,1,0,0,20.8671875,-7.76953125,1,0,0,0,6,6,8,1,,,,,,,,
,,,,,,,,,,,,,FF,,,,,,,,0.983315,,,,,,,,,,,,,,,,,,,,,,60fde3934048d744f301ccb7,6103681652747e33664b3160,2021-07-29_22h47.36.832,Simcolourproject_2stim_asymm_v5,2020.2.10,MacIntel,60,61025ae37ef11b136ea224fe,,,,,,,,,2923,66.609375,-49.54296875,1,0,0,response3disk,,5,23.40625,-3.05078125,1,0,0,rectangle,23.40625,-3.05078125,1,0,0,23.40625,-3.05078125,1,0,0,0,7,7,12,1,,,,,,,,
,,,,,,,,,,,,,FF,,,,,,,,1.629935,,,,,,,,,,,,,,,,,,,,,,60fde3934048d744f301ccb7,6103681652747e33664b3160,2021-07-29_22h47.36.832,Simcolourproject_2stim_asymm_v5,2020.2.10,MacIntel,60,61025ae37ef11b136ea224fe,,,,,,,,,3529,53.61328125,-84.49609375,1,0,0,response3disk,,4,30.5625,-10.02734375,1,0,0,rectangle,30.5625,-10.02734375,1,0,0,30.5625,-10.02734375,1,0,0,0,8,8,23,1,,,,,,,,
,,,,,,,,,,,,,FF,,,,,,,,1.417895,,,,,,,,,,,,,,,,,,,,,,60fde3934048d744f301ccb7,6103681652747e33664b3160,2021-07-29_22h47.36.832,Simcolourproject_2stim_asymm_v5,2020.2.10,MacIntel,60,61025ae37ef11b136ea224fe,,,,,,,,,3726,27.7265625,-75.75,1,0,0,response3disk,,4,-2.84765625,-7.578125,1,0,0,rectangle,-2.84765625,-7.578125,1,0,0,-2.84765625,-7.578125,1,0,0,0,9,9,129,1,,,,,,,,
,,,,,,,,,,,,,FF,,,,,,,,1.30014,,,,,,,,,,,,,,,,,,,,,,60fde3934048d744f301ccb7,6103681652747e33664b3160,2021-07-29_22h47.36.832,Simcolourproject_2stim_asymm_v5,2020.2.10,MacIntel,60,61025ae37ef11b136ea224fe,,,,,,,,,2040,-53.82421875,-73.83984375,1,0,0,response5disk,,3,-27.79296875,-4.3671875,1,0,0,rectangle,-27.79296875,-4.3671875,1,0,0,-27.79296875,-4.3671875,1,0,0,0,10,10,26,1,,,,,,,,
,,,,,,,,,,,,,FF,,,,,,,,0.718155,,,,,,,,,,,,,,,,,,,,,,60fde3934048d744f301ccb7,6103681652747e33664b3160,2021-07-29_22h47.36.832,Simcolourproject_2stim_asymm_v5,2020.2.10,MacIntel,60,61025ae37ef11b136ea224fe,,,,,,,,,1522,-55.8984375,-34.65625,1,0,0,response5disk,,2,15.9609375,-4.6875,1,0,0,rectangle,15.9609375,-4.6875,1,0,0,15.9609375,-4.6875,1,0,0,0,11,11,50,1,,,,,,,,
,,,,,,,,,,,,,FF,,,,,,,,1.08357,,,,,,,,,,,,,,,,,,,,,,60fde3934048d744f301ccb7,6103681652747e33664b3160,2021-07-29_22h47.36.832,Simcolourproject_2stim_asymm_v5,2020.2.10,MacIntel,60,61025ae37ef11b136ea224fe,,,,,,,,,2026,-82.8515625,-58.34765625,1,0,0,response5disk,,2,3.55078125,-2.09765625,1,0,0,rectangle,3.55078125,-2.09765625,1,0,0,3.55078125,-2.09765625,1,0,0,0,12,12,95,1,,,,,,,,
,,,,,,,,,,,,,FF,,,,,,,,0.99962,,,,,,,,,,,,,,,,,,,,,,60fde3934048d744f301ccb7,6103681652747e33664b3160,2021-07-29_22h47.36.832,Simcolourproject_2stim_asymm_v5,2020.2.10,MacIntel,60,61025ae37ef11b136ea224fe,,,,,,,,,1848,37.76953125,-70.6328125,1,0,0,response3disk,,4,8.75390625,-2.2890625,1,0,0,rectangle,8.75390625,-2.2890625,1,0,0,8.75390625,-2.2890625,1,0,0,0,13,13,148,1,,,,,,,,
,,,,,,,,,,,,,FF,,,,,,,,0.800045,,,,,,,,,,,,,,,,,,,,,,60fde3934048d744f301ccb7,6103681652747e33664b3160,2021-07-29_22h47.36.832,Simcolourproject_2stim_asymm_v5,2020.2.10,MacIntel,60,61025ae37ef11b136ea224fe,,,,,,,,,3472,-41.3828125,-96.6015625,1,0,0,response5disk,,3,-15.62109375,-10.05078125,1,0,0,rectangle,-15.62109375,-10.05078125,1,0,0,-15.62109375,-10.05078125,1,0,0,0,14,14,21,1,,,,,,,,
,,,,,,,,,,,,,FF,,,,,,,,1.49947,,,,,,,,,,,,,,,,,,,,,,60fde3934048d744f301ccb7,6103681652747e33664b3160,2021-07-29_22h47.36.832,Simcolourproject_2stim_asymm_v5,2020.2.10,MacIntel,60,61025ae37ef11b136ea224fe,,,,,,,,,2528,55.15234375,70.7265625,1,0,0,response1disk,,7,3.44140625,-3.0625,1,0,0,rectangle,3.44140625,-3.0625,1,0,0,3.44140625,-3.0625,1,0,0,0,15,15,103,1,,,,,,,,
,,,,,,,,,,,,,FF,,,,,,,,1.68231,,,,,,,,,,,,,,,,,,,,,,60fde3934048d744f301ccb7,6103681652747e33664b3160,2021-07-29_22h47.36.832,Simcolourproject_2stim_asymm_v5,2020.2.10,MacIntel,60,61025ae37ef11b136ea224fe,,,,,,,,,3004,-40.9609375,-61.609375,1,0,0,response5disk,,3,1.83203125,-2.71875,1,0,0,rectangle,1.83203125,-2.71875,1,0,0,1.83203125,-2.71875,1,0,0,0,16,16,130,1,,,,,,,,
,,,,,,,,,,,,,FF,,,,,,,,1.249765,,,,,,,,,,,,,,,,,,,,,,60fde3934048d744f301ccb7,6103681652747e33664b3160,2021-07-29_22h47.36.832,Simcolourproject_2stim_asymm_v5,2020.2.10,MacIntel,60,61025ae37ef11b136ea224fe,,,,,,,,,4199,55.77734375,-31.37109375,1,0,0,response3disk,,5,21.8515625,-1.7578125,1,0,0,rectangle,21.8515625,-1.7578125,1,0,0,21.8515625,-1.7578125,1,0,0,0,17,17,86,1,,,,,,,,
,,,,,,,,,,,,,FF,,,,,,,,1.43366,,,,,,,,,,,,,,,,,,,,,,60fde3934048d744f301ccb7,6103681652747e33664b3160,2021-07-29_22h47.36.832,Simcolourproject_2stim_asymm_v5,2020.2.10,MacIntel,60,61025ae37ef11b136ea224fe,,,,,,,,,1842,63.6953125,28.85546875,1,0,0,response1disk,,6,23.109375,1.66015625,1,0,0,rectangle,23.109375,1.66015625,1,0,0,23.109375,1.66015625,1,0,0,0,18,18,33,1,,,,,,,,
,,,,,,,,,,,,,FF,,,,,,,,0.96611,,,,,,,,,,,,,,,,,,,,,,60fde3934048d744f301ccb7,6103681652747e33664b3160,2021-07-29_22h47.36.832,Simcolourproject_2stim_asymm_v5,2020.2.10,MacIntel,60,61025ae37ef11b136ea224fe,,,,,,,,,1570,55.2734375,23.33203125,1,0,0,response1disk,,6,-17.69140625,2.625,1,0,0,rectangle,-17.69140625,2.625,1,0,0,-17.69140625,2.625,1,0,0,0,19,19,157,1,,,,,,,,
,,,,,,,,,,,,,FF,,,,,,,,1.21778,,,,,,,,,,,,,,,,,,,,,,60fde3934048d744f301ccb7,6103681652747e33664b3160,2021-07-29_22h47.36.832,Simcolourproject_2stim_asymm_v5,2020.2.10,MacIntel,60,61025ae37ef11b136ea224fe,,,,,,,,,1728,76.1953125,29.93359375,1,0,0,response1disk,,6,-14.22265625,-4.94140625,1,0,0,rectangle,58.9296875,109.5195313,1,0,0,19.67578125,8.8828125,1,0,0,0,20,20,78,1,,response1disk_3,TRUE,7,7,"[29,64,33,195,21,263,220,64,23,89,122,275,82,308,99,168,35,235,118,217]",2.464405,rectangle
,,,,,,,,,,,,,FF,,,,,,,,1.750515,,,,,,,,,,,,,,,,,,,,,,60fde3934048d744f301ccb7,6103681652747e33664b3160,2021-07-29_22h47.36.832,Simcolourproject_2stim_asymm_v5,2020.2.10,MacIntel,60,61025ae37ef11b136ea224fe,,,,,,,,,4369,-66.50390625,36.96875,1,0,0,response7disk,,1,-10.28125,-13.6015625,1,0,0,rectangle,-10.28125,-13.6015625,1,0,0,-10.28125,-13.6015625,1,0,0,0,21,21,58,1,,,,,,,,
,,,,,,,,,,,,,FF,,,,,,,,1.452955,,,,,,,,,,,,,,,,,,,,,,60fde3934048d744f301ccb7,6103681652747e33664b3160,2021-07-29_22h47.36.832,Simcolourproject_2stim_asymm_v5,2020.2.10,MacIntel,60,61025ae37ef11b136ea224fe,,,,,,,,,1635,38.6796875,66.265625,1,0,0,response1disk,,7,11.21484375,5.21875,1,0,0,rectangle,-66.9765625,58.1484375,1,0,0,-16.8828125,3.0703125,1,0,0,0,22,22,114,1,,response7disk_3,TRUE,1,1,"[29,64,33,195,21,263,220,64,23,89,122,275,82,308,99,168,35,235,118,217]",1.78555,rectangle
,,,,,,,,,,,,,FF,,,,,,,,1.633445,,,,,,,,,,,,,,,,,,,,,,60fde3934048d744f301ccb7,6103681652747e33664b3160,2021-07-29_22h47.36.832,Simcolourproject_2stim_asymm_v5,2020.2.10,MacIntel,60,61025ae37ef11b136ea224fe,,,,,,,,,2892,-106.359375,-39.125,1,0,0,response5disk,,2,8.95703125,-0.48046875,1,0,0,rectangle,8.95703125,-0.48046875,1,0,0,8.95703125,-0.48046875,1,0,0,0,23,23,48,1,,,,,,,,
,,,,,,,,,,,,,FF,,,,,,,,1.45001,,,,,,,,,,,,,,,,,,,,,,60fde3934048d744f301ccb7,6103681652747e33664b3160,2021-07-29_22h47.36.832,Simcolourproject_2stim_asymm_v5,2020.2.10,MacIntel,60,61025ae37ef11b136ea224fe,,,,,,,,,4329,25.7109375,-83.66796875,1,0,0,response3disk,,4,11.171875,-10.28125,1,0,0,rectangle,11.171875,-10.28125,1,0,0,11.171875,-10.28125,1,0,0,0,24,24,150,1,,,,,,,,
,,,,,,,,,,,,,FF,,,,,,,,0.75024,,,,,,,,,,,,,,,,,,,,,,60fde3934048d744f301ccb7,6103681652747e33664b3160,2021-07-29_22h47.36.832,Simcolourproject_2stim_asymm_v5,2020.2.10,MacIntel,60,61025ae37ef11b136ea224fe,,,,,,,,,3501,86.2578125,-52.81640625,1,0,0,response3disk,,5,-4.7265625,-5.890625,1,0,0,rectangle,-4.7265625,-5.890625,1,0,0,-4.7265625,-5.890625,1,0,0,0,25,25,80,1,,,,,,,,
,,,,,,,,,,,,,FF,,,,,,,,1.066275,,,,,,,,,,,,,,,,,,,,,,60fde3934048d744f301ccb7,6103681652747e33664b3160,2021-07-29_22h47.36.832,Simcolourproject_2stim_asymm_v5,2020.2.10,MacIntel,60,61025ae37ef11b136ea224fe,,,,,,,,,93,-52.83203125,28.65234375,1,0,0,response7disk,,1,4.26171875,-7.94921875,1,0,0,rectangle,4.26171875,-7.94921875,1,0,0,4.26171875,-7.94921875,1,0,0,0,26,26,3,1,,,,,,,,
,,,,,,,,,,,,,FF,,,,,,,,1.448765,,,,,,,,,,,,,,,,,,,,,,60fde3934048d744f301ccb7,6103681652747e33664b3160,2021-07-29_22h47.36.832,Simcolourproject_2stim_asymm_v5,2020.2.10,MacIntel,60,61025ae37ef11b136ea224fe,,,,,,,,,771,76.81640625,-29.48828125,1,0,0,response3disk,,5,16.640625,-11.265625,1,0,0,rectangle,16.640625,-11.265625,1,0,0,16.640625,-11.265625,1,0,0,0,27,27,30,1,,,,,,,,
,,,,,,,,,,,,,FF,,,,,,,,1.718725,,,,,,,,,,,,,,,,,,,,,,60fde3934048d744f301ccb7,6103681652747e33664b3160,2021-07-29_22h47.36.832,Simcolourproject_2stim_asymm_v5,2020.2.10,MacIntel,60,61025ae37ef11b136ea224fe,,,,,,,,,425,22.6875,-75.28515625,1,0,0,response3disk,,4,11.640625,-2.39453125,1,0,0,rectangle,-29.578125,-86.52734375,1,0,0,11.28125,1.453125,1,0,0,0,28,28,36,1,,response5disk_3,TRUE,3,3,"[29,64,33,195,21,263,220,64,23,89,122,275,82,308,99,168,35,235,118,217]",2.29966,rectangle
,,,,,,,,,,,,,FF,,,,,,,,1.73213,,,,,,,,,,,,,,,,,,,,,,60fde3934048d744f301ccb7,6103681652747e33664b3160,2021-07-29_22h47.36.832,Simcolourproject_2stim_asymm_v5,2020.2.10,MacIntel,60,61025ae37ef11b136ea224fe,,,,,,,,,807,28.234375,-68.74609375,1,0,0,response3disk,,4,1.98828125,-10.375,1,0,0,rectangle,1.98828125,-10.375,1,0,0,1.98828125,-10.375,1,0,0,0,29,29,76,1,,,,,,,,
,,,,,,,,,,,,,FF,,,,,,,,1.915555,,,,,,,,,,,,,,,,,,,,,,60fde3934048d744f301ccb7,6103681652747e33664b3160,2021-07-29_22h47.36.832,Simcolourproject_2stim_asymm_v5,2020.2.10,MacIntel,60,61025ae37ef11b136ea224fe,,,,,,,,,2525,49.1015625,79.54296875,1,0,0,response1disk,,7,2.85546875,8.33203125,1,0,0,rectangle,2.85546875,8.33203125,1,0,0,2.85546875,8.33203125,1,0,0,0,30,30,155,1,,,,,,,,
,,,,,,,,,,,,,FF,,,,,,,,1.20104,,,,,,,,,,,,,,,,,,,,,,60fde3934048d744f301ccb7,6103681652747e33664b3160,2021-07-29_22h47.36.832,Simcolourproject_2stim_asymm_v5,2020.2.10,MacIntel,60,61025ae37ef11b136ea224fe,,,,,,,,,1523,-34.4765625,-82.32421875,1,0,0,response5disk,,3,4.9453125,7.3359375,1,0,0,rectangle,4.9453125,7.3359375,1,0,0,4.9453125,7.3359375,1,0,0,0,31,31,151,1,,,,,,,,
,,,,,,,,,,,,,FF,,,,,,,,1.215595,,,,,,,,,,,,,,,,,,,,,,60fde3934048d744f301ccb7,6103681652747e33664b3160,2021-07-29_22h47.36.832,Simcolourproject_2stim_asymm_v5,2020.2.10,MacIntel,60,61025ae37ef11b136ea224fe,,,,,,,,,3429,-43.5546875,-67.20703125,1,0,0,response5disk,,3,-10.91796875,-5.01171875,1,0,0,rectangle,-24.71484375,-75.71875,1,0,0,18.39453125,8.04296875,1,0,0,0,32,32,94,1,,response5disk_3,TRUE,3,3,"[29,64,33,195,21,263,220,64,23,89,122,275,82,308,99,168,35,235,118,217]",1.63362,rectangle
,,,,,,,,,,,,,FF,,,,,,,,1.09952,,,,,,,,,,,,,,,,,,,,,,60fde3934048d744f301ccb7,6103681652747e33664b3160,2021-07-29_22h47.36.832,Simcolourproject_2stim_asymm_v5,2020.2.10,MacIntel,60,61025ae37ef11b136ea224fe,,,,,,,,,4296,38.796875,63.25,1,0,0,response1disk,,7,1.71484375,1.58203125,1,0,0,rectangle,1.71484375,1.58203125,1,0,0,1.71484375,1.58203125,1,0,0,0,33,33,120,1,,,,,,,,
,,,,,,,,,,,,,FF,,,,,,,,1.349575,,,,,,,,,,,,,,,,,,,,,,60fde3934048d744f301ccb7,6103681652747e33664b3160,2021-07-29_22h47.36.832,Simcolourproject_2stim_asymm_v5,2020.2.10,MacIntel,60,61025ae37ef11b136ea224fe,,,,,,,,,1389,26.63671875,-60.73046875,1,0,0,response3disk,,4,23.20703125,-8.3359375,1,0,0,rectangle,-77.62890625,38.0390625,1,0,0,-7.74609375,-13.24609375,1,0,0,0,34,34,110,1,,response7disk_3,TRUE,1,1,"[29,64,33,195,21,263,220,64,23,89,122,275,82,308,99,168,35,235,118,217]",1.83248,rectangle
,,,,,,,,,,,,,FF,,,,,,,,1.13861,,,,,,,,,,,,,,,,,,,,,,60fde3934048d744f301ccb7,6103681652747e33664b3160,2021-07-29_22h47.36.832,Simcolourproject_2stim_asymm_v5,2020.2.10,MacIntel,60,61025ae37ef11b136ea224fe,,,,,,,,,553,-32.828125,-68.1640625,1,0,0,response5disk,,3,-2.93359375,-5.125,1,0,0,rectangle,-2.93359375,-5.125,1,0,0,-2.93359375,-5.125,1,0,0,0,35,35,128,1,,,,,,,,
,,,,,,,,,,,,,FF,,,,,,,,0.864165,,,,,,,,,,,,,,,,,,,,,,60fde3934048d744f301ccb7,6103681652747e33664b3160,2021-07-29_22h47.36.832,Simcolourproject_2stim_asymm_v5,2020.2.10,MacIntel,60,61025ae37ef11b136ea224fe,,,,,,,,,610,-49.55859375,-87.33203125,1,0,0,response5disk,,3,-3.6171875,-12.1328125,1,0,0,rectangle,-3.6171875,-12.1328125,1,0,0,-3.6171875,-12.1328125,1,0,0,0,36,36,154,1,,,,,,,,
,,,,,,,,,,,,,FF,,,,,,,,1.2152,,,,,,,,,,,,,,,,,,,,,,60fde3934048d744f301ccb7,6103681652747e33664b3160,2021-07-29_22h47.36.832,Simcolourproject_2stim_asymm_v5,2020.2.10,MacIntel,60,61025ae37ef11b136ea224fe,,,,,,,,,1516,28.53125,-50.4140625,1,0,0,response3disk,,4,4.39453125,9.625,1,0,0,rectangle,4.39453125,9.625,1,0,0,4.39453125,9.625,1,0,0,0,37,37,7,1,,,,,,,,
,,,,,,,,,,,,,FF,,,,,,,,1.220205,,,,,,,,,,,,,,,,,,,,,,60fde3934048d744f301ccb7,6103681652747e33664b3160,2021-07-29_22h47.36.832,Simcolourproject_2stim_asymm_v5,2020.2.10,MacIntel,60,61025ae37ef11b136ea224fe,,,,,,,,,3564,56.6796875,37.3984375,1,0,0,response1disk,,6,14.57421875,-7.13671875,1,0,0,rectangle,14.57421875,-7.13671875,1,0,0,14.57421875,-7.13671875,1,0,0,0,38,38,90,1,,,,,,,,
,,,,,,,,,,,,,FF,,,,,,,,1.4832,,,,,,,,,,,,,,,,,,,,,,60fde3934048d744f301ccb7,6103681652747e33664b3160,2021-07-29_22h47.36.832,Simcolourproject_2stim_asymm_v5,2020.2.10,MacIntel,60,61025ae37ef11b136ea224fe,,,,,,,,,2680,27.0703125,-70.828125,1,0,0,response3disk,,4,15.90234375,-6.21484375,1,0,0,rectangle,15.90234375,-6.21484375,1,0,0,15.90234375,-6.21484375,1,0,0,0,39,39,107,1,,,,,,,,
,,,,,,,,,,,,,FF,,,,,,,,1.00192,,,,,,,,,,,,,,,,,,,,,,60fde3934048d744f301ccb7,6103681652747e33664b3160,2021-07-29_22h47.36.832,Simcolourproject_2stim_asymm_v5,2020.2.10,MacIntel,60,61025ae37ef11b136ea224fe,,,,,,,,,722,-76.84375,-33.16015625,1,0,0,response5disk,,2,-3.0546875,-14.04296875,1,0,0,rectangle,-3.0546875,-14.04296875,1,0,0,-3.0546875,-14.04296875,1,0,0,0,40,40,2,1,,,,,,,,
,,,,,,,,,,,,,FF,,,,,,,,0.898545,,,,,,,,,,,,,,,,,,,,,,60fde3934048d744f301ccb7,6103681652747e33664b3160,2021-07-29_22h47.36.832,Simcolourproject_2stim_asymm_v5,2020.2.10,MacIntel,60,61025ae37ef11b136ea224fe,,,,,,,,,618,-45.50390625,-49.7265625,1,0,0,response5disk,,3,-12.0390625,-14.01171875,1,0,0,rectangle,-12.0390625,-14.01171875,1,0,0,-12.0390625,-14.01171875,1,0,0,0,41,41,70,1,,,,,,,,
,,,,,,,,,,,,,FF,,,,,,,,1.699145,,,,,,,,,,,,,,,,,,,,,,60fde3934048d744f301ccb7,6103681652747e33664b3160,2021-07-29_22h47.36.832,Simcolourproject_2stim_asymm_v5,2020.2.10,MacIntel,60,61025ae37ef11b136ea224fe,,,,,,,,,656,79.7890625,29.84375,1,0,0,response1disk,,6,15.69140625,2.19140625,1,0,0,rectangle,15.69140625,2.19140625,1,0,0,15.69140625,2.19140625,1,0,0,0,42,42,117,1,,,,,,,,
,,,,,,,,,,,,,FF,,,,,,,,1.16917,,,,,,,,,,,,,,,,,,,,,,60fde3934048d744f301ccb7,6103681652747e33664b3160,2021-07-29_22h47.36.832,Simcolourproject_2stim_asymm_v5,2020.2.10,MacIntel,60,61025ae37ef11b136ea224fe,,,,,,,,,2446,51.96484375,27.50390625,1,0,0,response1disk,,6,1.7421875,-4.828125,1,0,0,rectangle,1.7421875,-4.828125,1,0,0,1.7421875,-4.828125,1,0,0,0,43,43,115,1,,,,,,,,
,,,,,,,,,,,,,FF,,,,,,,,0.750655,,,,,,,,,,,,,,,,,,,,,,60fde3934048d744f301ccb7,6103681652747e33664b3160,2021-07-29_22h47.36.832,Simcolourproject_2stim_asymm_v5,2020.2.10,MacIntel,60,61025ae37ef11b136ea224fe,,,,,,,,,2353,31.70703125,60.10546875,1,0,0,response1disk,,7,13.9453125,14.26953125,1,0,0,rectangle,13.9453125,14.26953125,1,0,0,13.9453125,14.26953125,1,0,0,0,44,44,88,1,,,,,,,,
,,,,,,,,,,,,,FF,,,,,,,,2.1492,,,,,,,,,,,,,,,,,,,,,,60fde3934048d744f301ccb7,6103681652747e33664b3160,2021-07-29_22h47.36.832,Simcolourproject_2stim_asymm_v5,2020.2.10,MacIntel,60,61025ae37ef11b136ea224fe,,,,,,,,,714,61.98046875,20.4765625,1,0,0,response1disk,,6,5.8125,2.10546875,1,0,0,rectangle,5.8125,2.10546875,1,0,0,5.8125,2.10546875,1,0,0,0,45,45,65,1,,,,,,,,
,,,,,,,,,,,,,FF,,,,,,,,1.764945,,,,,,,,,,,,,,,,,,,,,,60fde3934048d744f301ccb7,6103681652747e33664b3160,2021-07-29_22h47.36.832,Simcolourproject_2stim_asymm_v5,2020.2.10,MacIntel,60,61025ae37ef11b136ea224fe,,,,,,,,,1950,51.19140625,-52.55859375,1,0,0,response3disk,,4,-11.39453125,10.0703125,1,0,0,rectangle,-11.39453125,10.0703125,1,0,0,-11.39453125,10.0703125,1,0,0,0,46,46,74,1,,,,,,,,
,,,,,,,,,,,,,FF,,,,,,,,1.70104,,,,,,,,,,,,,,,,,,,,,,60fde3934048d744f301ccb7,6103681652747e33664b3160,2021-07-29_22h47.36.832,Simcolourproject_2stim_asymm_v5,2020.2.10,MacIntel,60,61025ae37ef11b136ea224fe,,,,,,,,,1762,73.51171875,-32.9453125,1,0,0,response3disk,,5,15.3984375,-7.2578125,1,0,0,rectangle,15.3984375,-7.2578125,1,0,0,15.3984375,-7.2578125,1,0,0,0,47,47,84,1,,,,,,,,
,,,,,,,,,,,,,FF,,,,,,,,1.000765,,,,,,,,,,,,,,,,,,,,,,60fde3934048d744f301ccb7,6103681652747e33664b3160,2021-07-29_22h47.36.832,Simcolourproject_2stim_asymm_v5,2020.2.10,MacIntel,60,61025ae37ef11b136ea224fe,,,,,,,,,3417,88.99609375,28.21484375,1,0,0,response1disk,,6,19.42578125,6.50390625,1,0,0,rectangle,19.42578125,6.50390625,1,0,0,19.42578125,6.50390625,1,0,0,0,48,48,140,1,,,,,,,,
,,,,,,,,,,,,,FF,,,,,,,,0.86715,,,,,,,,,,,,,,,,,,,,,,60fde3934048d744f301ccb7,6103681652747e33664b3160,2021-07-29_22h47.36.832,Simcolourproject_2stim_asymm_v5,2020.2.10,MacIntel,60,61025ae37ef11b136ea224fe,,,,,,,,,2875,30.453125,54.15625,1,0,0,response1disk,,7,-2.46875,6.7265625,1,0,0,rectangle,-2.46875,6.7265625,1,0,0,-2.46875,6.7265625,1,0,0,0,49,49,15,1,,,,,,,,
,,,,,,,,,,,,,FF,,,,,,,,0.849655,,,,,,,,,,,,,,,,,,,,,,60fde3934048d744f301ccb7,6103681652747e33664b3160,2021-07-29_22h47.36.832,Simcolourproject_2stim_asymm_v5,2020.2.10,MacIntel,60,61025ae37ef11b136ea224fe,,,,,,,,,4137,28.95703125,67.171875,1,0,0,response1disk,,7,2.921875,12.08203125,1,0,0,rectangle,2.921875,12.08203125,1,0,0,2.921875,12.08203125,1,0,0,0,50,50,63,1,,,,,,,,
,,,,,,,,,,,,,FF,,,,,,,,0.60086,,,,,,,,,,,,,,,,,,,,,,60fde3934048d744f301ccb7,6103681652747e33664b3160,2021-07-29_22h47.36.832,Simcolourproject_2stim_asymm_v5,2020.2.10,MacIntel,60,61025ae37ef11b136ea224fe,,,,,,,,,2755,28.41015625,43.8203125,1,0,0,response1disk,,7,20.359375,-5.08203125,1,0,0,rectangle,20.359375,-5.08203125,1,0,0,20.359375,-5.08203125,1,0,0,0,51,51,105,1,,,,,,,,
,,,,,,,,,,,,,FF,,,,,,,,1.26616,,,,,,,,,,,,,,,,,,,,,,60fde3934048d744f301ccb7,6103681652747e33664b3160,2021-07-29_22h47.36.832,Simcolourproject_2stim_asymm_v5,2020.2.10,MacIntel,60,61025ae37ef11b136ea224fe,,,,,,,,,1662,57.17578125,-27.765625,1,0,0,response3disk,,5,18.04296875,-16.91796875,1,0,0,rectangle,18.04296875,-16.91796875,1,0,0,18.04296875,-16.91796875,1,0,0,0,52,52,141,1,,,,,,,,
,,,,,,,,,,,,,FF,,,,,,,,1.68247,,,,,,,,,,,,,,,,,,,,,,60fde3934048d744f301ccb7,6103681652747e33664b3160,2021-07-29_22h47.36.832,Simcolourproject_2stim_asymm_v5,2020.2.10,MacIntel,60,61025ae37ef11b136ea224fe,,,,,,,,,2344,29.734375,51.140625,1,0,0,response1disk,,7,-1.62890625,-3.3125,1,0,0,rectangle,-1.62890625,-3.3125,1,0,0,-1.62890625,-3.3125,1,0,0,0,53,53,123,1,,,,,,,,
,,,,,,,,,,,,,FF,,,,,,,,1.617735,,,,,,,,,,,,,,,,,,,,,,60fde3934048d744f301ccb7,6103681652747e33664b3160,2021-07-29_22h47.36.832,Simcolourproject_2stim_asymm_v5,2020.2.10,MacIntel,60,61025ae37ef11b136ea224fe,,,,,,,,,3969,40.5,-81.22265625,1,0,0,response3disk,,4,-15.95703125,-0.01953125,1,0,0,rectangle,-15.95703125,-0.01953125,1,0,0,-15.95703125,-0.01953125,1,0,0,0,54,54,57,1,,,,,,,,
,,,,,,,,,,,,,FF,,,,,,,,0.868105,,,,,,,,,,,,,,,,,,,,,,60fde3934048d744f301ccb7,6103681652747e33664b3160,2021-07-29_22h47.36.832,Simcolourproject_2stim_asymm_v5,2020.2.10,MacIntel,60,61025ae37ef11b136ea224fe,,,,,,,,,3937,-35.67578125,-68.92578125,1,0,0,response5disk,,3,-1.1171875,-9.34375,1,0,0,rectangle,-1.1171875,-9.34375,1,0,0,-1.1171875,-9.34375,1,0,0,0,55,55,93,1,,,,,,,,
,,,,,,,,,,,,,FF,,,,,,,,10.8155,,,,,,,,,,,,,,,,,,,,,,60fde3934048d744f301ccb7,6103681652747e33664b3160,2021-07-29_22h47.36.832,Simcolourproject_2stim_asymm_v5,2020.2.10,MacIntel,60,61025ae37ef11b136ea224fe,,,,,,,,,572,69.01171875,-46.19921875,1,0,0,response3disk,,5,6.2265625,2.30078125,1,0,0,rectangle,6.2265625,2.30078125,1,0,0,6.2265625,2.30078125,1,0,0,0,56,56,121,1,,,,,,,,
,,,,,,,,,,,,,FF,,,,,,,,1.230975,,,,,,,,,,,,,,,,,,,,,,60fde3934048d744f301ccb7,6103681652747e33664b3160,2021-07-29_22h47.36.832,Simcolourproject_2stim_asymm_v5,2020.2.10,MacIntel,60,61025ae37ef11b136ea224fe,,,,,,,,,2052,65.765625,-55.28125,1,0,0,response3disk,,5,18.2734375,-4.4609375,1,0,0,rectangle,18.2734375,-4.4609375,1,0,0,18.2734375,-4.4609375,1,0,0,0,57,57,52,1,,,,,,,,
,,,,,,,,,,,,,FF,,,,,,,,1.1169,,,,,,,,,,,,,,,,,,,,,,60fde3934048d744f301ccb7,6103681652747e33664b3160,2021-07-29_22h47.36.832,Simcolourproject_2stim_asymm_v5,2020.2.10,MacIntel,60,61025ae37ef11b136ea224fe,,,,,,,,,2392,109.6835938,68.4921875,1,0,0,response1disk,,6,13.6171875,-6.96484375,1,0,0,rectangle,13.6171875,-6.96484375,1,0,0,13.6171875,-6.96484375,1,0,0,0,58,58,54,1,,,,,,,,
,,,,,,,,,,,,,FF,,,,,,,,0.90027,,,,,,,,,,,,,,,,,,,,,,60fde3934048d744f301ccb7,6103681652747e33664b3160,2021-07-29_22h47.36.832,Simcolourproject_2stim_asymm_v5,2020.2.10,MacIntel,60,61025ae37ef11b136ea224fe,,,,,,,,,4153,83.58203125,37.9453125,1,0,0,response1disk,,6,-31.95703125,-0.56640625,1,0,0,rectangle,-31.95703125,-0.56640625,1,0,0,-31.95703125,-0.56640625,1,0,0,0,59,59,85,1,,,,,,,,
,,,,,,,,,,,,,FF,,,,,,,,1.499465,,,,,,,,,,,,,,,,,,,,,,60fde3934048d744f301ccb7,6103681652747e33664b3160,2021-07-29_22h47.36.832,Simcolourproject_2stim_asymm_v5,2020.2.10,MacIntel,60,61025ae37ef11b136ea224fe,,,,,,,,,999,80.81640625,26.140625,1,0,0,response1disk,,6,-3.0703125,-6.63671875,1,0,0,rectangle,-3.0703125,-6.63671875,1,0,0,-3.0703125,-6.63671875,1,0,0,0,60,60,136,1,,,,,,,,
,,,,,,,,,,,,,FF,,,,,,,,0.99939,,,,,,,,,,,,,,,,,,,,,,60fde3934048d744f301ccb7,6103681652747e33664b3160,2021-07-29_22h47.36.832,Simcolourproject_2stim_asymm_v5,2020.2.10,MacIntel,60,61025ae37ef11b136ea224fe,,,,,,,,,1954,43.37109375,-73.6484375,1,0,0,response3disk,,4,4.296875,-0.28125,1,0,0,rectangle,4.296875,-0.28125,1,0,0,4.296875,-0.28125,1,0,0,0,61,61,102,1,,,,,,,,
,,,,,,,,,,,,,FF,,,,,,,,1.149615,,,,,,,,,,,,,,,,,,,,,,60fde3934048d744f301ccb7,6103681652747e33664b3160,2021-07-29_22h47.36.832,Simcolourproject_2stim_asymm_v5,2020.2.10,MacIntel,60,61025ae37ef11b136ea224fe,,,,,,,,,2976,44.6875,55.66015625,1,0,0,response1disk,,7,21.796875,5.31640625,1,0,0,rectangle,21.796875,5.31640625,1,0,0,21.796875,5.31640625,1,0,0,0,62,62,132,1,,,,,,,,
,,,,,,,,,,,,,FF,,,,,,,,1.18328,,,,,,,,,,,,,,,,,,,,,,60fde3934048d744f301ccb7,6103681652747e33664b3160,2021-07-29_22h47.36.832,Simcolourproject_2stim_asymm_v5,2020.2.10,MacIntel,60,61025ae37ef11b136ea224fe,,,,,,,,,3337,26.4609375,-69.62890625,1,0,0,response3disk,,4,-3.87109375,5.89453125,1,0,0,rectangle,-24.76171875,-80.515625,1,0,0,-0.7890625,-1.6953125,1,0,0,0,63,63,45,1,,response5disk_3,TRUE,3,3,"[29,64,33,195,21,263,220,64,23,89,122,275,82,308,99,168,35,235,118,217]",2.0497,rectangle
,,,,,,,,,,,,,FF,,,,,,,,0.96653,,,,,,,,,,,,,,,,,,,,,,60fde3934048d744f301ccb7,6103681652747e33664b3160,2021-07-29_22h47.36.832,Simcolourproject_2stim_asymm_v5,2020.2.10,MacIntel,60,61025ae37ef11b136ea224fe,,,,,,,,,3675,-18.81640625,-75.30859375,1,0,0,response5disk,,3,-12.77734375,-3.7421875,1,0,0,rectangle,-12.77734375,-3.7421875,1,0,0,-12.77734375,-3.7421875,1,0,0,0,64,64,89,1,,,,,,,,
,,,,,,,,,,,,,FF,,,,,,,,1.3831,,,,,,,,,,,,,,,,,,,,,,60fde3934048d744f301ccb7,6103681652747e33664b3160,2021-07-29_22h47.36.832,Simcolourproject_2stim_asymm_v5,2020.2.10,MacIntel,60,61025ae37ef11b136ea224fe,,,,,,,,,180,65.96484375,17.85546875,1,0,0,response1disk,,6,7.23046875,5.80078125,1,0,0,rectangle,7.23046875,5.80078125,1,0,0,7.23046875,5.80078125,1,0,0,0,65,65,87,1,,,,,,,,
,,,,,,,,,,,,,FF,,,,,,,,1.71476,,,,,,,,,,,,,,,,,,,,,,60fde3934048d744f301ccb7,6103681652747e33664b3160,2021-07-29_22h47.36.832,Simcolourproject_2stim_asymm_v5,2020.2.10,MacIntel,60,61025ae37ef11b136ea224fe,,,,,,,,,4362,-57.6640625,85.78125,1,0,0,response7disk,,0,2.29296875,5.48046875,1,0,0,rectangle,2.29296875,5.48046875,1,0,0,2.29296875,5.48046875,1,0,0,0,66,66,56,1,,,,,,,,
,,,,,,,,,,,,,FF,,,,,,,,2.416675,,,,,,,,,,,,,,,,,,,,,,60fde3934048d744f301ccb7,6103681652747e33664b3160,2021-07-29_22h47.36.832,Simcolourproject_2stim_asymm_v5,2020.2.10,MacIntel,60,61025ae37ef11b136ea224fe,,,,,,,,,654,41.80078125,97.8203125,1,0,0,response1disk,,7,-2.24609375,-8.09375,1,0,0,rectangle,-2.24609375,-8.09375,1,0,0,-2.24609375,-8.09375,1,0,0,0,67,67,10,1,,,,,,,,
,,,,,,,,,,,,,FF,,,,,,,,1.682895,,,,,,,,,,,,,,,,,,,,,,60fde3934048d744f301ccb7,6103681652747e33664b3160,2021-07-29_22h47.36.832,Simcolourproject_2stim_asymm_v5,2020.2.10,MacIntel,60,61025ae37ef11b136ea224fe,,,,,,,,,3758,38.81640625,72.08984375,1,0,0,response1disk,,7,-0.4140625,8.87109375,1,0,0,rectangle,-0.4140625,8.87109375,1,0,0,-0.4140625,8.87109375,1,0,0,0,68,68,111,1,,,,,,,,
,,,,,,,,,,,,,FF,,,,,,,,0.68428,,,,,,,,,,,,,,,,,,,,,,60fde3934048d744f301ccb7,6103681652747e33664b3160,2021-07-29_22h47.36.832,Simcolourproject_2stim_asymm_v5,2020.2.10,MacIntel,60,61025ae37ef11b136ea224fe,,,,,,,,,295,36.58984375,60.890625,1,0,0,response1disk,,7,7.953125,0.2265625,1,0,0,rectangle,7.953125,0.2265625,1,0,0,7.953125,0.2265625,1,0,0,0,69,69,137,1,,,,,,,,
,,,,,,,,,,,,,FF,,,,,,,,1.53159,,,,,,,,,,,,,,,,,,,,,,60fde3934048d744f301ccb7,6103681652747e33664b3160,2021-07-29_22h47.36.832,Simcolourproject_2stim_asymm_v5,2020.2.10,MacIntel,60,61025ae37ef11b136ea224fe,,,,,,,,,3698,43.828125,-52.453125,1,0,0,response3disk,,4,24.44140625,1.51953125,1,0,0,rectangle,24.44140625,1.51953125,1,0,0,24.44140625,1.51953125,1,0,0,0,70,70,42,1,,,,,,,,
,,,,,,,,,,,,,FF,,,,,,,,1.665935,,,,,,,,,,,,,,,,,,,,,,60fde3934048d744f301ccb7,6103681652747e33664b3160,2021-07-29_22h47.36.832,Simcolourproject_2stim_asymm_v5,2020.2.10,MacIntel,60,61025ae37ef11b136ea224fe,,,,,,,,,1414,57.8125,-38.1953125,1,0,0,response3disk,,5,13.64453125,-11.36328125,1,0,0,rectangle,13.64453125,-11.36328125,1,0,0,13.64453125,-11.36328125,1,0,0,0,71,71,51,1,,,,,,,,
,,,,,,,,,,,,,FF,,,,,,,,1.200775,,,,,,,,,,,,,,,,,,,,,,60fde3934048d744f301ccb7,6103681652747e33664b3160,2021-07-29_22h47.36.832,Simcolourproject_2stim_asymm_v5,2020.2.10,MacIntel,60,61025ae37ef11b136ea224fe,,,,,,,,,4271,45.47265625,79.71484375,1,0,0,response1disk,,7,23.8203125,8.35546875,1,0,0,rectangle,23.8203125,8.35546875,1,0,0,23.8203125,8.35546875,1,0,0,0,72,72,143,1,,,,,,,,
,,,,,,,,,,,,,FF,,,,,,,,0.983945,,,,,,,,,,,,,,,,,,,,,,60fde3934048d744f301ccb7,6103681652747e33664b3160,2021-07-29_22h47.36.832,Simcolourproject_2stim_asymm_v5,2020.2.10,MacIntel,60,61025ae37ef11b136ea224fe,,,,,,,,,3720,38.70703125,-73.49609375,1,0,0,response3disk,,4,1.98828125,-0.578125,1,0,0,rectangle,1.98828125,-0.578125,1,0,0,1.98828125,-0.578125,1,0,0,0,73,73,13,1,,,,,,,,
,,,,,,,,,,,,,FF,,,,,,,,0.79982,,,,,,,,,,,,,,,,,,,,,,60fde3934048d744f301ccb7,6103681652747e33664b3160,2021-07-29_22h47.36.832,Simcolourproject_2stim_asymm_v5,2020.2.10,MacIntel,60,61025ae37ef11b136ea224fe,,,,,,,,,1292,-47.06640625,-66.67578125,1,0,0,response5disk,,3,-2.37890625,-14.95703125,1,0,0,rectangle,-2.37890625,-14.95703125,1,0,0,-2.37890625,-14.95703125,1,0,0,0,74,74,75,1,,,,,,,,
,,,,,,,,,,,,,FF,,,,,,,,0.798735,,,,,,,,,,,,,,,,,,,,,,60fde3934048d744f301ccb7,6103681652747e33664b3160,2021-07-29_22h47.36.832,Simcolourproject_2stim_asymm_v5,2020.2.10,MacIntel,60,61025ae37ef11b136ea224fe,,,,,,,,,3880,-23.96484375,-65.2890625,1,0,0,response5disk,,3,-0.98828125,-7.7421875,1,0,0,rectangle,-0.98828125,-7.7421875,1,0,0,-0.98828125,-7.7421875,1,0,0,0,75,75,27,1,,,,,,,,
,,,,,,,,,,,,,FF,,,,,,,,1.73345,,,,,,,,,,,,,,,,,,,,,,60fde3934048d744f301ccb7,6103681652747e33664b3160,2021-07-29_22h47.36.832,Simcolourproject_2stim_asymm_v5,2020.2.10,MacIntel,60,61025ae37ef11b136ea224fe,,,,,,,,,2822,39.31640625,83.4609375,1,0,0,response1disk,,7,-15.30078125,4.765625,1,0,0,rectangle,-15.30078125,4.765625,1,0,0,-15.30078125,4.765625,1,0,0,0,76,76,59,1,,,,,,,,
,,,,,,,,,,,,,FF,,,,,,,,0.85055,,,,,,,,,,,,,,,,,,,,,,60fde3934048d744f301ccb7,6103681652747e33664b3160,2021-07-29_22h47.36.832,Simcolourproject_2stim_asymm_v5,2020.2.10,MacIntel,60,61025ae37ef11b136ea224fe,,,,,,,,,1261,24.67578125,57.6875,1,0,0,response1disk,,7,6.00390625,-0.9453125,1,0,0,rectangle,6.00390625,-0.9453125,1,0,0,6.00390625,-0.9453125,1,0,0,0,77,77,62,1,,,,,,,,
,,,,,,,,,,,,,FF,,,,,,,,0.816015,,,,,,,,,,,,,,,,,,,,,,60fde3934048d744f301ccb7,6103681652747e33664b3160,2021-07-29_22h47.36.832,Simcolourproject_2stim_asymm_v5,2020.2.10,MacIntel,60,61025ae37ef11b136ea224fe,,,,,,,,,1861,33.69921875,60.453125,1,0,0,response1disk,,7,7.17578125,-7.4140625,1,0,0,rectangle,7.17578125,-7.4140625,1,0,0,7.17578125,-7.4140625,1,0,0,0,78,78,4,1,,,,,,,,
,,,,,,,,,,,,,FF,,,,,,,,1.500915,,,,,,,,,,,,,,,,,,,,,,60fde3934048d744f301ccb7,6103681652747e33664b3160,2021-07-29_22h47.36.832,Simcolourproject_2stim_asymm_v5,2020.2.10,MacIntel,60,61025ae37ef11b136ea224fe,,,,,,,,,3933,77.5703125,31.4921875,1,0,0,response1disk,,6,22.21875,10.390625,1,0,0,rectangle,22.21875,10.390625,1,0,0,22.21875,10.390625,1,0,0,0,79,79,79,1,,,,,,,,
,,,,,,,,,,,,,FF,,,,,,,,0.699655,,,,,,,,,,,,,,,,,,,,,,60fde3934048d744f301ccb7,6103681652747e33664b3160,2021-07-29_22h47.36.832,Simcolourproject_2stim_asymm_v5,2020.2.10,MacIntel,60,61025ae37ef11b136ea224fe,,,,,,,,,1732,51.6328125,68.25,1,0,0,response1disk,,7,24.88671875,-7.87890625,1,0,0,rectangle,24.88671875,-7.87890625,1,0,0,24.88671875,-7.87890625,1,0,0,0,80,80,22,1,,,,,,,,
,,,,,,,,,,,,,FF,,,,,,,,1.16712,,,,,,,,,,,,,,,,,,,,,,60fde3934048d744f301ccb7,6103681652747e33664b3160,2021-07-29_22h47.36.832,Simcolourproject_2stim_asymm_v5,2020.2.10,MacIntel,60,61025ae37ef11b136ea224fe,,,,,,,,,183,32.94921875,44.76953125,1,0,0,response1disk,,7,28.23046875,-4.43359375,1,0,0,rectangle,44.5390625,123.0078125,1,0,0,-21.578125,-4.52734375,1,0,0,0,81,81,66,1,,response1disk_3,TRUE,7,7,"[29,64,33,195,21,263,220,64,23,89,122,275,82,308,99,168,35,235,118,217]",1.99896,rectangle
,,,,,,,,,,,,,FF,,,,,,,,1.16972,,,,,,,,,,,,,,,,,,,,,,60fde3934048d744f301ccb7,6103681652747e33664b3160,2021-07-29_22h47.36.832,Simcolourproject_2stim_asymm_v5,2020.2.10,MacIntel,60,61025ae37ef11b136ea224fe,,,,,,,,,3468,-22.27734375,60.81640625,1,0,0,response7disk,,0,-11.9609375,-12.24609375,1,0,0,rectangle,-11.9609375,-12.24609375,1,0,0,-11.9609375,-12.24609375,1,0,0,0,82,82,99,1,,,,,,,,
,,,,,,,,,,,,,FF,,,,,,,,2.115535,,,,,,,,,,,,,,,,,,,,,,60fde3934048d744f301ccb7,6103681652747e33664b3160,2021-07-29_22h47.36.832,Simcolourproject_2stim_asymm_v5,2020.2.10,MacIntel,60,61025ae37ef11b136ea224fe,,,,,,,,,3149,-105.3984375,-36.25390625,1,0,0,response5disk,,2,-13.92578125,0.9375,1,0,0,rectangle,-13.92578125,0.9375,1,0,0,-13.92578125,0.9375,1,0,0,0,83,83,73,1,,,,,,,,
,,,,,,,,,,,,,FF,,,,,,,,1.365185,,,,,,,,,,,,,,,,,,,,,,60fde3934048d744f301ccb7,6103681652747e33664b3160,2021-07-29_22h47.36.832,Simcolourproject_2stim_asymm_v5,2020.2.10,MacIntel,60,61025ae37ef11b136ea224fe,,,,,,,,,1246,46.47265625,-90.796875,1,0,0,response3disk,,4,18.64453125,12.3203125,1,0,0,rectangle,18.64453125,12.3203125,1,0,0,18.64453125,12.3203125,1,0,0,0,84,84,159,1,,,,,,,,
,,,,,,,,,,,,,FF,,,,,,,,2.58394,,,,,,,,,,,,,,,,,,,,,,60fde3934048d744f301ccb7,6103681652747e33664b3160,2021-07-29_22h47.36.832,Simcolourproject_2stim_asymm_v5,2020.2.10,MacIntel,60,61025ae37ef11b136ea224fe,,,,,,,,,2629,82.15625,24.484375,1,0,0,response1disk,,6,-18.65234375,-12.6328125,1,0,0,rectangle,-18.65234375,-12.6328125,1,0,0,-18.65234375,-12.6328125,1,0,0,0,85,85,35,1,,,,,,,,
,,,,,,,,,,,,,FF,,,,,,,,1.01663,,,,,,,,,,,,,,,,,,,,,,60fde3934048d744f301ccb7,6103681652747e33664b3160,2021-07-29_22h47.36.832,Simcolourproject_2stim_asymm_v5,2020.2.10,MacIntel,60,61025ae37ef11b136ea224fe,,,,,,,,,2464,27.65625,81.66796875,1,0,0,response1disk,,7,-5.20703125,5.40234375,1,0,0,rectangle,-5.20703125,5.40234375,1,0,0,-5.20703125,5.40234375,1,0,0,0,86,86,147,1,,,,,,,,
,,,,,,,,,,,,,FF,,,,,,,,0.837085,,,,,,,,,,,,,,,,,,,,,,60fde3934048d744f301ccb7,6103681652747e33664b3160,2021-07-29_22h47.36.832,Simcolourproject_2stim_asymm_v5,2020.2.10,MacIntel,60,61025ae37ef11b136ea224fe,,,,,,,,,681,34.99609375,53.3671875,1,0,0,response1disk,,7,8.7109375,5.15234375,1,0,0,rectangle,8.7109375,5.15234375,1,0,0,8.7109375,5.15234375,1,0,0,0,87,87,32,1,,,,,,,,
,,,,,,,,,,,,,FF,,,,,,,,0.717805,,,,,,,,,,,,,,,,,,,,,,60fde3934048d744f301ccb7,6103681652747e33664b3160,2021-07-29_22h47.36.832,Simcolourproject_2stim_asymm_v5,2020.2.10,MacIntel,60,61025ae37ef11b136ea224fe,,,,,,,,,2982,42.99609375,59.6640625,1,0,0,response1disk,,7,21.08203125,9.63671875,1,0,0,rectangle,95.98046875,62.94921875,1,0,0,11.19921875,4.76953125,1,0,0,0,88,88,5,1,,response1disk_3,TRUE,6,6,"[29,64,33,195,21,263,220,64,23,89,122,275,82,308,99,168,35,235,118,217]",1.514225,rectangle
,,,,,,,,,,,,,FF,,,,,,,,1.049205,,,,,,,,,,,,,,,,,,,,,,60fde3934048d744f301ccb7,6103681652747e33664b3160,2021-07-29_22h47.36.832,Simcolourproject_2stim_asymm_v5,2020.2.10,MacIntel,60,61025ae37ef11b136ea224fe,,,,,,,,,1911,57.67578125,30.25390625,1,0,0,response1disk,,6,6.0859375,6.65625,1,0,0,rectangle,6.0859375,6.65625,1,0,0,6.0859375,6.65625,1,0,0,0,89,89,6,1,,,,,,,,
,,,,,,,,,,,,,FF,,,,,,,,1.53342,,,,,,,,,,,,,,,,,,,,,,60fde3934048d744f301ccb7,6103681652747e33664b3160,2021-07-29_22h47.36.832,Simcolourproject_2stim_asymm_v5,2020.2.10,MacIntel,60,61025ae37ef11b136ea224fe,,,,,,,,,903,32.71484375,63.21484375,1,0,0,response1disk,,7,9.5703125,10.94921875,1,0,0,rectangle,9.5703125,10.94921875,1,0,0,9.5703125,10.94921875,1,0,0,0,90,90,96,1,,,,,,,,
,,,,,,,,,,,,,FF,,,,,,,,1.665115,,,,,,,,,,,,,,,,,,,,,,60fde3934048d744f301ccb7,6103681652747e33664b3160,2021-07-29_22h47.36.832,Simcolourproject_2stim_asymm_v5,2020.2.10,MacIntel,60,61025ae37ef11b136ea224fe,,,,,,,,,1212,71.73828125,-49.3046875,1,0,0,response3disk,,5,12.7421875,7.8828125,1,0,0,rectangle,12.7421875,7.8828125,1,0,0,12.7421875,7.8828125,1,0,0,0,91,91,119,1,,,,,,,,
,,,,,,,,,,,,,FF,,,,,,,,1.04856,,,,,,,,,,,,,,,,,,,,,,60fde3934048d744f301ccb7,6103681652747e33664b3160,2021-07-29_22h47.36.832,Simcolourproject_2stim_asymm_v5,2020.2.10,MacIntel,60,61025ae37ef11b136ea224fe,,,,,,,,,2704,57.16015625,15.22265625,1,0,0,response1disk,,6,13.70703125,-11.90625,1,0,0,rectangle,13.70703125,-11.90625,1,0,0,13.70703125,-11.90625,1,0,0,0,92,92,40,1,,,,,,,,
,,,,,,,,,,,,,FF,,,,,,,,0.8681,,,,,,,,,,,,,,,,,,,,,,60fde3934048d744f301ccb7,6103681652747e33664b3160,2021-07-29_22h47.36.832,Simcolourproject_2stim_asymm_v5,2020.2.10,MacIntel,60,61025ae37ef11b136ea224fe,,,,,,,,,3335,44.31640625,63.2578125,1,0,0,response1disk,,7,10.37890625,-0.30078125,1,0,0,rectangle,10.37890625,-0.30078125,1,0,0,10.37890625,-0.30078125,1,0,0,0,93,93,81,1,,,,,,,,
,,,,,,,,,,,,,FF,,,,,,,,1.067225,,,,,,,,,,,,,,,,,,,,,,60fde3934048d744f301ccb7,6103681652747e33664b3160,2021-07-29_22h47.36.832,Simcolourproject_2stim_asymm_v5,2020.2.10,MacIntel,60,61025ae37ef11b136ea224fe,,,,,,,,,693,28.59375,-73.8046875,1,0,0,response3disk,,4,4.2109375,-6.4921875,1,0,0,rectangle,4.2109375,-6.4921875,1,0,0,4.2109375,-6.4921875,1,0,0,0,94,94,61,1,,,,,,,,
,,,,,,,,,,,,,FF,,,,,,,,0.850125,,,,,,,,,,,,,,,,,,,,,,60fde3934048d744f301ccb7,6103681652747e33664b3160,2021-07-29_22h47.36.832,Simcolourproject_2stim_asymm_v5,2020.2.10,MacIntel,60,61025ae37ef11b136ea224fe,,,,,,,,,3799,44.5859375,67.56640625,1,0,0,response1disk,,7,6.42578125,4.953125,1,0,0,rectangle,6.42578125,4.953125,1,0,0,6.42578125,4.953125,1,0,0,0,95,95,20,1,,,,,,,,
,,,,,,,,,,,,,FF,,,,,,,,0.833345,,,,,,,,,,,,,,,,,,,,,,60fde3934048d744f301ccb7,6103681652747e33664b3160,2021-07-29_22h47.36.832,Simcolourproject_2stim_asymm_v5,2020.2.10,MacIntel,60,61025ae37ef11b136ea224fe,,,,,,,,,3507,34.8203125,-67.703125,1,0,0,response3disk,,4,4.875,-10.6171875,1,0,0,rectangle,4.875,-10.6171875,1,0,0,4.875,-10.6171875,1,0,0,0,96,96,69,1,,,,,,,,
,,,,,,,,,,,,,FF,,,,,,,,0.78286,,,,,,,,,,,,,,,,,,,,,,60fde3934048d744f301ccb7,6103681652747e33664b3160,2021-07-29_22h47.36.832,Simcolourproject_2stim_asymm_v5,2020.2.10,MacIntel,60,61025ae37ef11b136ea224fe,,,,,,,,,3748,-45.38671875,-68.1328125,1,0,0,response5disk,,3,-10.44921875,-5.72265625,1,0,0,rectangle,-10.44921875,-5.72265625,1,0,0,-10.44921875,-5.72265625,1,0,0,0,97,97,17,1,,,,,,,,
,,,,,,,,,,,,,FF,,,,,,,,0.93329,,,,,,,,,,,,,,,,,,,,,,60fde3934048d744f301ccb7,6103681652747e33664b3160,2021-07-29_22h47.36.832,Simcolourproject_2stim_asymm_v5,2020.2.10,MacIntel,60,61025ae37ef11b136ea224fe,,,,,,,,,810,-52.2109375,-30.25390625,1,0,0,response5disk,,2,-29.3359375,-8.4765625,1,0,0,rectangle,41.109375,-94.64453125,1,0,0,16.71875,-14.8359375,1,0,0,0,98,98,77,1,,response3disk_3,TRUE,4,4,"[29,64,33,195,21,263,220,64,23,89,122,275,82,308,99,168,35,235,118,217]",2.41665,rectangle
,,,,,,,,,,,,,FF,,,,,,,,1.248705,,,,,,,,,,,,,,,,,,,,,,60fde3934048d744f301ccb7,6103681652747e33664b3160,2021-07-29_22h47.36.832,Simcolourproject_2stim_asymm_v5,2020.2.10,MacIntel,60,61025ae37ef11b136ea224fe,,,,,,,,,822,74.5,-105.25,1,0,0,response3disk,,4,4.3984375,-9.03515625,1,0,0,rectangle,4.3984375,-9.03515625,1,0,0,4.3984375,-9.03515625,1,0,0,0,99,99,44,1,,,,,,,,
,,,,,,,,,,,,,FF,,,,,,,,1.450805,,,,,,,,,,,,,,,,,,,,,,60fde3934048d744f301ccb7,6103681652747e33664b3160,2021-07-29_22h47.36.832,Simcolourproject_2stim_asymm_v5,2020.2.10,MacIntel,60,61025ae37ef11b136ea224fe,,,,,,,,,3231,75.37109375,27.94921875,1,0,0,response1disk,,6,15.61328125,2.96875,1,0,0,rectangle,15.61328125,2.96875,1,0,0,15.61328125,2.96875,1,0,0,0,100,100,24,1,,,,,,,,
,,,,,,,,,,,,,FF,,,,,,,,0.81428,,,,,,,,,,,,,,,,,,,,,,60fde3934048d744f301ccb7,6103681652747e33664b3160,2021-07-29_22h47.36.832,Simcolourproject_2stim_asymm_v5,2020.2.10,MacIntel,60,61025ae37ef11b136ea224fe,,,,,,,,,3851,-35.55078125,-47.03515625,1,0,0,response5disk,,3,12.32421875,2.91796875,1,0,0,rectangle,12.32421875,2.91796875,1,0,0,12.32421875,2.91796875,1,0,0,0,101,101,1,1,,,,,,,,
,,,,,,,,,,,,,FF,,,,,,,,1.116865,,,,,,,,,,,,,,,,,,,,,,60fde3934048d744f301ccb7,6103681652747e33664b3160,2021-07-29_22h47.36.832,Simcolourproject_2stim_asymm_v5,2020.2.10,MacIntel,60,61025ae37ef11b136ea224fe,,,,,,,,,1976,75.375,29.69921875,1,0,0,response1disk,,6,16.2890625,-9.6875,1,0,0,rectangle,16.2890625,-9.6875,1,0,0,16.2890625,-9.6875,1,0,0,0,102,102,47,1,,,,,,,,
,,,,,,,,,,,,,FF,,,,,,,,1.183445,,,,,,,,,,,,,,,,,,,,,,60fde3934048d744f301ccb7,6103681652747e33664b3160,2021-07-29_22h47.36.832,Simcolourproject_2stim_asymm_v5,2020.2.10,MacIntel,60,61025ae37ef11b136ea224fe,,,,,,,,,1689,52.73046875,26.71875,1,0,0,response1disk,,6,17.2421875,2.51953125,1,0,0,rectangle,17.2421875,2.51953125,1,0,0,17.2421875,2.51953125,1,0,0,0,103,103,72,1,,,,,,,,
,,,,,,,,,,,,,FF,,,,,,,,0.799935,,,,,,,,,,,,,,,,,,,,,,60fde3934048d744f301ccb7,6103681652747e33664b3160,2021-07-29_22h47.36.832,Simcolourproject_2stim_asymm_v5,2020.2.10,MacIntel,60,61025ae37ef11b136ea224fe,,,,,,,,,3161,63.19140625,33.953125,1,0,0,response1disk,,6,25.48828125,12.19921875,1,0,0,rectangle,25.48828125,12.19921875,1,0,0,25.48828125,12.19921875,1,0,0,0,104,104,144,1,,,,,,,,
,,,,,,,,,,,,,FF,,,,,,,,1.01588,,,,,,,,,,,,,,,,,,,,,,60fde3934048d744f301ccb7,6103681652747e33664b3160,2021-07-29_22h47.36.832,Simcolourproject_2stim_asymm_v5,2020.2.10,MacIntel,60,61025ae37ef11b136ea224fe,,,,,,,,,1380,68.53515625,32.28125,1,0,0,response1disk,,6,5.13671875,-1.3984375,1,0,0,rectangle,5.13671875,-1.3984375,1,0,0,5.13671875,-1.3984375,1,0,0,0,105,105,100,1,,,,,,,,
,,,,,,,,,,,,,FF,,,,,,,,0.79889,,,,,,,,,,,,,,,,,,,,,,60fde3934048d744f301ccb7,6103681652747e33664b3160,2021-07-29_22h47.36.832,Simcolourproject_2stim_asymm_v5,2020.2.10,MacIntel,60,61025ae37ef11b136ea224fe,,,,,,,,,1737,63.421875,33.765625,1,0,0,response1disk,,6,14.375,5.8515625,1,0,0,rectangle,14.375,5.8515625,1,0,0,14.375,5.8515625,1,0,0,0,106,106,101,1,,,,,,,,
,,,,,,,,,,,,,FF,,,,,,,,0.650435,,,,,,,,,,,,,,,,,,,,,,60fde3934048d744f301ccb7,6103681652747e33664b3160,2021-07-29_22h47.36.832,Simcolourproject_2stim_asymm_v5,2020.2.10,MacIntel,60,61025ae37ef11b136ea224fe,,,,,,,,,1190,55.1171875,29.6640625,1,0,0,response1disk,,6,27.59375,9.14453125,1,0,0,rectangle,27.59375,9.14453125,1,0,0,27.59375,9.14453125,1,0,0,0,107,107,135,1,,,,,,,,
,,,,,,,,,,,,,FF,,,,,,,,1.51566,,,,,,,,,,,,,,,,,,,,,,60fde3934048d744f301ccb7,6103681652747e33664b3160,2021-07-29_22h47.36.832,Simcolourproject_2stim_asymm_v5,2020.2.10,MacIntel,60,61025ae37ef11b136ea224fe,,,,,,,,,1676,75.2421875,-39.234375,1,0,0,response3disk,,5,25.50390625,-1.140625,1,0,0,rectangle,25.50390625,-1.140625,1,0,0,25.50390625,-1.140625,1,0,0,0,108,108,133,1,,,,,,,,
,,,,,,,,,,,,,FF,,,,,,,,1.667175,,,,,,,,,,,,,,,,,,,,,,60fde3934048d744f301ccb7,6103681652747e33664b3160,2021-07-29_22h47.36.832,Simcolourproject_2stim_asymm_v5,2020.2.10,MacIntel,60,61025ae37ef11b136ea224fe,,,,,,,,,325,23.83984375,85.46875,1,0,0,response1disk,,7,-14.4296875,5.19140625,1,0,0,rectangle,-14.4296875,5.19140625,1,0,0,-14.4296875,5.19140625,1,0,0,0,109,109,39,1,,,,,,,,
,,,,,,,,,,,,,FF,,,,,,,,1.266415,,,,,,,,,,,,,,,,,,,,,,60fde3934048d744f301ccb7,6103681652747e33664b3160,2021-07-29_22h47.36.832,Simcolourproject_2stim_asymm_v5,2020.2.10,MacIntel,60,61025ae37ef11b136ea224fe,,,,,,,,,2294,27.578125,-45.90234375,1,0,0,response3disk,,4,18.58203125,-13.86328125,1,0,0,rectangle,18.58203125,-13.86328125,1,0,0,18.58203125,-13.86328125,1,0,0,0,110,110,60,1,,,,,,,,
,,,,,,,,,,,,,FF,,,,,,,,1.935615,,,,,,,,,,,,,,,,,,,,,,60fde3934048d744f301ccb7,6103681652747e33664b3160,2021-07-29_22h47.36.832,Simcolourproject_2stim_asymm_v5,2020.2.10,MacIntel,60,61025ae37ef11b136ea224fe,,,,,,,,,3575,43.390625,55.24609375,1,0,0,response1disk,,7,-2.62890625,-15.578125,1,0,0,rectangle,-2.62890625,-15.578125,1,0,0,-2.62890625,-15.578125,1,0,0,0,111,111,138,1,,,,,,,,
,,,,,,,,,,,,,FF,,,,,,,,0.780055,,,,,,,,,,,,,,,,,,,,,,60fde3934048d744f301ccb7,6103681652747e33664b3160,2021-07-29_22h47.36.832,Simcolourproject_2stim_asymm_v5,2020.2.10,MacIntel,60,61025ae37ef11b136ea224fe,,,,,,,,,394,45.44140625,73.171875,1,0,0,response1disk,,7,7.30078125,-1.5,1,0,0,rectangle,7.30078125,-1.5,1,0,0,7.30078125,-1.5,1,0,0,0,112,112,82,1,,,,,,,,
,,,,,,,,,,,,,FF,,,,,,,,1.050705,,,,,,,,,,,,,,,,,,,,,,60fde3934048d744f301ccb7,6103681652747e33664b3160,2021-07-29_22h47.36.832,Simcolourproject_2stim_asymm_v5,2020.2.10,MacIntel,60,61025ae37ef11b136ea224fe,,,,,,,,,1338,33.39453125,49.2265625,1,0,0,response1disk,,7,10.71875,1.0078125,1,0,0,rectangle,10.71875,1.0078125,1,0,0,10.71875,1.0078125,1,0,0,0,113,113,92,1,,,,,,,,
,,,,,,,,,,,,,FF,,,,,,,,0.96616,,,,,,,,,,,,,,,,,,,,,,60fde3934048d744f301ccb7,6103681652747e33664b3160,2021-07-29_22h47.36.832,Simcolourproject_2stim_asymm_v5,2020.2.10,MacIntel,60,61025ae37ef11b136ea224fe,,,,,,,,,55,38.49609375,66.62890625,1,0,0,response1disk,,7,11.4140625,11.390625,1,0,0,rectangle,11.4140625,11.390625,1,0,0,11.4140625,11.390625,1,0,0,0,114,114,31,1,,,,,,,,
,,,,,,,,,,,,,FF,,,,,,,,0.88213,,,,,,,,,,,,,,,,,,,,,,60fde3934048d744f301ccb7,6103681652747e33664b3160,2021-07-29_22h47.36.832,Simcolourproject_2stim_asymm_v5,2020.2.10,MacIntel,60,61025ae37ef11b136ea224fe,,,,,,,,,2154,30.921875,54.4921875,1,0,0,response1disk,,7,3.34765625,-1.05078125,1,0,0,rectangle,3.34765625,-1.05078125,1,0,0,3.34765625,-1.05078125,1,0,0,0,115,115,97,1,,,,,,,,
,,,,,,,,,,,,,FF,,,,,,,,1.29806,,,,,,,,,,,,,,,,,,,,,,60fde3934048d744f301ccb7,6103681652747e33664b3160,2021-07-29_22h47.36.832,Simcolourproject_2stim_asymm_v5,2020.2.10,MacIntel,60,61025ae37ef11b136ea224fe,,,,,,,,,4102,-35.99609375,-21.7265625,1,0,0,response5disk,,2,-10.03125,9.640625,1,0,0,rectangle,-10.03125,9.640625,1,0,0,-10.03125,9.640625,1,0,0,0,116,116,71,1,,,,,,,,
,,,,,,,,,,,,,FF,,,,,,,,0.883875,,,,,,,,,,,,,,,,,,,,,,60fde3934048d744f301ccb7,6103681652747e33664b3160,2021-07-29_22h47.36.832,Simcolourproject_2stim_asymm_v5,2020.2.10,MacIntel,60,61025ae37ef11b136ea224fe,,,,,,,,,3681,37.0390625,-55.42578125,1,0,0,response3disk,,4,17.06640625,-2.55859375,1,0,0,rectangle,-26.6953125,-76.25390625,1,0,0,13.78125,10.05859375,1,0,0,0,117,117,104,1,,response5disk_3,TRUE,3,3,"[29,64,33,195,21,263,220,64,23,89,122,275,82,308,99,168,35,235,118,217]",2.03332,rectangle
,,,,,,,,,,,,,FF,,,,,,,,1.18235,,,,,,,,,,,,,,,,,,,,,,60fde3934048d744f301ccb7,6103681652747e33664b3160,2021-07-29_22h47.36.832,Simcolourproject_2stim_asymm_v5,2020.2.10,MacIntel,60,61025ae37ef11b136ea224fe,,,,,,,,,1918,57.953125,19.35546875,1,0,0,response1disk,,6,28.1640625,-1.734375,1,0,0,rectangle,28.1640625,-1.734375,1,0,0,28.1640625,-1.734375,1,0,0,0,118,118,41,1,,,,,,,,
,,,,,,,,,,,,,FF,,,,,,,,1.50102,,,,,,,,,,,,,,,,,,,,,,60fde3934048d744f301ccb7,6103681652747e33664b3160,2021-07-29_22h47.36.832,Simcolourproject_2stim_asymm_v5,2020.2.10,MacIntel,60,61025ae37ef11b136ea224fe,,,,,,,,,1939,39.71484375,101.4375,1,0,0,response1disk,,7,3.421875,-2.21875,1,0,0,rectangle,3.421875,-2.21875,1,0,0,3.421875,-2.21875,1,0,0,0,119,119,108,1,,,,,,,,
,,,,,,,,,,,,,FF,,,,,,,,0.83479,,,,,,,,,,,,,,,,,,,,,,60fde3934048d744f301ccb7,6103681652747e33664b3160,2021-07-29_22h47.36.832,Simcolourproject_2stim_asymm_v5,2020.2.10,MacIntel,60,61025ae37ef11b136ea224fe,,,,,,,,,4112,36.953125,53.4765625,1,0,0,response1disk,,7,12.5,4.77734375,1,0,0,rectangle,12.5,4.77734375,1,0,0,12.5,4.77734375,1,0,0,0,120,120,68,1,,,,,,,,
,,,,,,,,,,,,,FF,,,,,,,,0.800025,,,,,,,,,,,,,,,,,,,,,,60fde3934048d744f301ccb7,6103681652747e33664b3160,2021-07-29_22h47.36.832,Simcolourproject_2stim_asymm_v5,2020.2.10,MacIntel,60,61025ae37ef11b136ea224fe,,,,,,,,,1015,33.5078125,56.42578125,1,0,0,response1disk,,7,24.73828125,-1.3203125,1,0,0,rectangle,-22.74609375,-46.6015625,1,0,0,13.95703125,5.89453125,1,0,0,0,121,121,149,1,,response5disk_3,TRUE,3,3,"[29,64,33,195,21,263,220,64,23,89,122,275,82,308,99,168,35,235,118,217]",1.88358,rectangle
,,,,,,,,,,,,,FF,,,,,,,,0.820395,,,,,,,,,,,,,,,,,,,,,,60fde3934048d744f301ccb7,6103681652747e33664b3160,2021-07-29_22h47.36.832,Simcolourproject_2stim_asymm_v5,2020.2.10,MacIntel,60,61025ae37ef11b136ea224fe,,,,,,,,,235,36.78515625,54.16015625,1,0,0,response1disk,,7,3.45703125,-13.1015625,1,0,0,rectangle,3.45703125,-13.1015625,1,0,0,3.45703125,-13.1015625,1,0,0,0,122,122,11,1,,,,,,,,
,,,,,,,,,,,,,FF,,,,,,,,1.283945,,,,,,,,,,,,,,,,,,,,,,60fde3934048d744f301ccb7,6103681652747e33664b3160,2021-07-29_22h47.36.832,Simcolourproject_2stim_asymm_v5,2020.2.10,MacIntel,60,61025ae37ef11b136ea224fe,,,,,,,,,336,82.4375,-19.4765625,1,0,0,response3disk,,5,27.5,-6.4921875,1,0,0,rectangle,27.5,-6.4921875,1,0,0,27.5,-6.4921875,1,0,0,0,123,123,9,1,,,,,,,,
,,,,,,,,,,,,,FF,,,,,,,,0.834495,,,,,,,,,,,,,,,,,,,,,,60fde3934048d744f301ccb7,6103681652747e33664b3160,2021-07-29_22h47.36.832,Simcolourproject_2stim_asymm_v5,2020.2.10,MacIntel,60,61025ae37ef11b136ea224fe,,,,,,,,,2189,35.76171875,64.0390625,1,0,0,response1disk,,7,30.73828125,3.0078125,1,0,0,rectangle,30.73828125,3.0078125,1,0,0,30.73828125,3.0078125,1,0,0,0,124,124,46,1,,,,,,,,
,,,,,,,,,,,,,FF,,,,,,,,0.76561,,,,,,,,,,,,,,,,,,,,,,60fde3934048d744f301ccb7,6103681652747e33664b3160,2021-07-29_22h47.36.832,Simcolourproject_2stim_asymm_v5,2020.2.10,MacIntel,60,61025ae37ef11b136ea224fe,,,,,,,,,2060,48.859375,64.6796875,1,0,0,response1disk,,7,34.97265625,8.30859375,1,0,0,rectangle,34.97265625,8.30859375,1,0,0,34.97265625,8.30859375,1,0,0,0,125,125,112,1,,,,,,,,
,,,,,,,,,,,,,FF,,,,,,,,1.615575,,,,,,,,,,,,,,,,,,,,,,60fde3934048d744f301ccb7,6103681652747e33664b3160,2021-07-29_22h47.36.832,Simcolourproject_2stim_asymm_v5,2020.2.10,MacIntel,60,61025ae37ef11b136ea224fe,,,,,,,,,515,64.5859375,-47.2890625,1,0,0,response3disk,,5,3.63671875,-3.1875,1,0,0,rectangle,3.63671875,-3.1875,1,0,0,3.63671875,-3.1875,1,0,0,0,126,126,106,1,,,,,,,,
,,,,,,,,,,,,,FF,,,,,,,,0.9335,,,,,,,,,,,,,,,,,,,,,,60fde3934048d744f301ccb7,6103681652747e33664b3160,2021-07-29_22h47.36.832,Simcolourproject_2stim_asymm_v5,2020.2.10,MacIntel,60,61025ae37ef11b136ea224fe,,,,,,,,,1899,-26.5703125,-44.84765625,1,0,0,response5disk,,3,-3.5390625,3.62890625,1,0,0,rectangle,-3.5390625,3.62890625,1,0,0,-3.5390625,3.62890625,1,0,0,0,127,127,153,1,,,,,,,,
,,,,,,,,,,,,,FF,,,,,,,,1.217105,,,,,,,,,,,,,,,,,,,,,,60fde3934048d744f301ccb7,6103681652747e33664b3160,2021-07-29_22h47.36.832,Simcolourproject_2stim_asymm_v5,2020.2.10,MacIntel,60,61025ae37ef11b136ea224fe,,,,,,,,,255,-56.83984375,-70.9140625,1,0,0,response5disk,,3,-5.87890625,5.0546875,1,0,0,rectangle,-5.87890625,5.0546875,1,0,0,-5.87890625,5.0546875,1,0,0,0,128,128,146,1,,,,,,,,
,,,,,,,,,,,,,FF,,,,,,,,0.970165,,,,,,,,,,,,,,,,,,,,,,60fde3934048d744f301ccb7,6103681652747e33664b3160,2021-07-29_22h47.36.832,Simcolourproject_2stim_asymm_v5,2020.2.10,MacIntel,60,61025ae37ef11b136ea224fe,,,,,,,,,3559,-77.7890625,-66.75390625,1,0,0,response5disk,,2,-11.44140625,-7.5,1,0,0,rectangle,-11.44140625,-7.5,1,0,0,-11.44140625,-7.5,1,0,0,0,129,129,16,1,,,,,,,,
,,,,,,,,,,,,,FF,,,,,,,,2.00157,,,,,,,,,,,,,,,,,,,,,,60fde3934048d744f301ccb7,6103681652747e33664b3160,2021-07-29_22h47.36.832,Simcolourproject_2stim_asymm_v5,2020.2.10,MacIntel,60,61025ae37ef11b136ea224fe,,,,,,,,,1182,41.02734375,98.0078125,1,0,0,response1disk,,7,-3.390625,7.0625,1,0,0,rectangle,-3.390625,7.0625,1,0,0,-3.390625,7.0625,1,0,0,0,130,130,109,1,,,,,,,,
,,,,,,,,,,,,,FF,,,,,,,,0.799645,,,,,,,,,,,,,,,,,,,,,,60fde3934048d744f301ccb7,6103681652747e33664b3160,2021-07-29_22h47.36.832,Simcolourproject_2stim_asymm_v5,2020.2.10,MacIntel,60,61025ae37ef11b136ea224fe,,,,,,,,,3539,42.33203125,65.96484375,1,0,0,response1disk,,7,6.15234375,1.765625,1,0,0,rectangle,6.15234375,1.765625,1,0,0,6.15234375,1.765625,1,0,0,0,131,131,55,1,,,,,,,,
,,,,,,,,,,,,,FF,,,,,,,,1.747665,,,,,,,,,,,,,,,,,,,,,,60fde3934048d744f301ccb7,6103681652747e33664b3160,2021-07-29_22h47.36.832,Simcolourproject_2stim_asymm_v5,2020.2.10,MacIntel,60,61025ae37ef11b136ea224fe,,,,,,,,,4224,-78.68359375,-21.38671875,1,0,0,response5disk,,2,-23.875,0.96875,1,0,0,rectangle,-23.875,0.96875,1,0,0,-23.875,0.96875,1,0,0,0,132,132,28,1,,,,,,,,
,,,,,,,,,,,,,FF,,,,,,,,1.368035,,,,,,,,,,,,,,,,,,,,,,60fde3934048d744f301ccb7,6103681652747e33664b3160,2021-07-29_22h47.36.832,Simcolourproject_2stim_asymm_v5,2020.2.10,MacIntel,60,61025ae37ef11b136ea224fe,,,,,,,,,397,31.3515625,68.61328125,1,0,0,response1disk,,7,-22.76953125,14.40625,1,0,0,rectangle,-22.76953125,14.40625,1,0,0,-22.76953125,14.40625,1,0,0,0,133,133,43,1,,,,,,,,
,,,,,,,,,,,,,FF,,,,,,,,1.24902,,,,,,,,,,,,,,,,,,,,,,60fde3934048d744f301ccb7,6103681652747e33664b3160,2021-07-29_22h47.36.832,Simcolourproject_2stim_asymm_v5,2020.2.10,MacIntel,60,61025ae37ef11b136ea224fe,,,,,,,,,3099,-98.40625,-39.7421875,1,0,0,response5disk,,2,-16.4296875,-11.41015625,1,0,0,rectangle,-16.4296875,-11.41015625,1,0,0,-16.4296875,-11.41015625,1,0,0,0,134,134,29,1,,,,,,,,
,,,,,,,,,,,,,FF,,,,,,,,1.38351,,,,,,,,,,,,,,,,,,,,,,60fde3934048d744f301ccb7,6103681652747e33664b3160,2021-07-29_22h47.36.832,Simcolourproject_2stim_asymm_v5,2020.2.10,MacIntel,60,61025ae37ef11b136ea224fe,,,,,,,,,4010,-47.515625,-74.15234375,1,0,0,response5disk,,3,5.93359375,3.14453125,1,0,0,rectangle,5.93359375,3.14453125,1,0,0,5.93359375,3.14453125,1,0,0,0,135,135,118,1,,,,,,,,
,,,,,,,,,,,,,FF,,,,,,,,0.88209,,,,,,,,,,,,,,,,,,,,,,60fde3934048d744f301ccb7,6103681652747e33664b3160,2021-07-29_22h47.36.832,Simcolourproject_2stim_asymm_v5,2020.2.10,MacIntel,60,61025ae37ef11b136ea224fe,,,,,,,,,3742,-80.78125,-28.1640625,1,0,0,response5disk,,2,-12.8984375,-1.7578125,1,0,0,rectangle,-12.8984375,-1.7578125,1,0,0,-12.8984375,-1.7578125,1,0,0,0,136,136,64,1,,,,,,,,
,,,,,,,,,,,,,FF,,,,,,,,1.333355,,,,,,,,,,,,,,,,,,,,,,60fde3934048d744f301ccb7,6103681652747e33664b3160,2021-07-29_22h47.36.832,Simcolourproject_2stim_asymm_v5,2020.2.10,MacIntel,60,61025ae37ef11b136ea224fe,,,,,,,,,1221,40.81640625,-88.9921875,1,0,0,response3disk,,4,-2.1328125,-13.39453125,1,0,0,rectangle,-2.1328125,-13.39453125,1,0,0,-2.1328125,-13.39453125,1,0,0,0,137,137,156,1,,,,,,,,
,,,,,,,,,,,,,FF,,,,,,,,2.05116,,,,,,,,,,,,,,,,,,,,,,60fde3934048d744f301ccb7,6103681652747e33664b3160,2021-07-29_22h47.36.832,Simcolourproject_2stim_asymm_v5,2020.2.10,MacIntel,60,61025ae37ef11b136ea224fe,,,,,,,,,3044,60.0234375,59.86328125,1,0,0,response1disk,,6,-0.3359375,-3.66796875,1,0,0,rectangle,-0.3359375,-3.66796875,1,0,0,-0.3359375,-3.66796875,1,0,0,0,138,138,122,1,,,,,,,,
,,,,,,,,,,,,,FF,,,,,,,,1.099895,,,,,,,,,,,,,,,,,,,,,,60fde3934048d744f301ccb7,6103681652747e33664b3160,2021-07-29_22h47.36.832,Simcolourproject_2stim_asymm_v5,2020.2.10,MacIntel,60,61025ae37ef11b136ea224fe,,,,,,,,,3034,40.36328125,60.08984375,1,0,0,response1disk,,7,13.57421875,5.55859375,1,0,0,rectangle,13.57421875,5.55859375,1,0,0,13.57421875,5.55859375,1,0,0,0,139,139,124,1,,,,,,,,
,,,,,,,,,,,,,FF,,,,,,,,1.215635,,,,,,,,,,,,,,,,,,,,,,60fde3934048d744f301ccb7,6103681652747e33664b3160,2021-07-29_22h47.36.832,Simcolourproject_2stim_asymm_v5,2020.2.10,MacIntel,60,61025ae37ef11b136ea224fe,,,,,,,,,907,38.09375,-45.81640625,1,0,0,response3disk,,4,11.66796875,-10.3671875,1,0,0,rectangle,11.66796875,-10.3671875,1,0,0,11.66796875,-10.3671875,1,0,0,0,140,140,83,1,,,,,,,,
,,,,,,,,,,,,,FF,,,,,,,,1.58059,,,,,,,,,,,,,,,,,,,,,,60fde3934048d744f301ccb7,6103681652747e33664b3160,2021-07-29_22h47.36.832,Simcolourproject_2stim_asymm_v5,2020.2.10,MacIntel,60,61025ae37ef11b136ea224fe,,,,,,,,,2556,27.0234375,-66.5546875,1,0,0,response3disk,,4,7.71484375,16.8203125,1,0,0,rectangle,7.71484375,16.8203125,1,0,0,7.71484375,16.8203125,1,0,0,0,141,141,0,1,,,,,,,,
,,,,,,,,,,,,,FF,,,,,,,,1.25096,,,,,,,,,,,,,,,,,,,,,,60fde3934048d744f301ccb7,6103681652747e33664b3160,2021-07-29_22h47.36.832,Simcolourproject_2stim_asymm_v5,2020.2.10,MacIntel,60,61025ae37ef11b136ea224fe,,,,,,,,,2713,49.73046875,-65.64453125,1,0,0,response3disk,,4,13.69921875,-11.27734375,1,0,0,rectangle,13.69921875,-11.27734375,1,0,0,13.69921875,-11.27734375,1,0,0,0,142,142,139,1,,,,,,,,
,,,,,,,,,,,,,FF,,,,,,,,0.89939,,,,,,,,,,,,,,,,,,,,,,60fde3934048d744f301ccb7,6103681652747e33664b3160,2021-07-29_22h47.36.832,Simcolourproject_2stim_asymm_v5,2020.2.10,MacIntel,60,61025ae37ef11b136ea224fe,,,,,,,,,3153,-26.65234375,-56.4609375,1,0,0,response5disk,,3,6.48046875,-8.5546875,1,0,0,rectangle,6.48046875,-8.5546875,1,0,0,6.48046875,-8.5546875,1,0,0,0,143,143,116,1,,,,,,,,
,,,,,,,,,,,,,FF,,,,,,,,1.21529,,,,,,,,,,,,,,,,,,,,,,60fde3934048d744f301ccb7,6103681652747e33664b3160,2021-07-29_22h47.36.832,Simcolourproject_2stim_asymm_v5,2020.2.10,MacIntel,60,61025ae37ef11b136ea224fe,,,,,,,,,1573,72.4140625,-36.9375,1,0,0,response3disk,,5,21.36328125,-0.828125,1,0,0,rectangle,21.36328125,-0.828125,1,0,0,21.36328125,-0.828125,1,0,0,0,144,144,19,1,,,,,,,,
,,,,,,,,,,,,,FF,,,,,,,,0.93248,,,,,,,,,,,,,,,,,,,,,,60fde3934048d744f301ccb7,6103681652747e33664b3160,2021-07-29_22h47.36.832,Simcolourproject_2stim_asymm_v5,2020.2.10,MacIntel,60,61025ae37ef11b136ea224fe,,,,,,,,,1263,22.890625,80.85546875,1,0,0,response1disk,,7,6.4140625,10.859375,1,0,0,rectangle,6.4140625,10.859375,1,0,0,6.4140625,10.859375,1,0,0,0,145,145,158,1,,,,,,,,
,,,,,,,,,,,,,FF,,,,,,,,0.81878,,,,,,,,,,,,,,,,,,,,,,60fde3934048d744f301ccb7,6103681652747e33664b3160,2021-07-29_22h47.36.832,Simcolourproject_2stim_asymm_v5,2020.2.10,MacIntel,60,61025ae37ef11b136ea224fe,,,,,,,,,1343,41.01953125,64.82421875,1,0,0,response1disk,,7,8.66015625,2.54296875,1,0,0,rectangle,8.66015625,2.54296875,1,0,0,8.66015625,2.54296875,1,0,0,0,146,146,53,1,,,,,,,,
,,,,,,,,,,,,,FF,,,,,,,,1.033935,,,,,,,,,,,,,,,,,,,,,,60fde3934048d744f301ccb7,6103681652747e33664b3160,2021-07-29_22h47.36.832,Simcolourproject_2stim_asymm_v5,2020.2.10,MacIntel,60,61025ae37ef11b136ea224fe,,,,,,,,,1630,48.078125,82.1015625,1,0,0,response1disk,,7,7.375,1.00390625,1,0,0,rectangle,7.375,1.00390625,1,0,0,7.375,1.00390625,1,0,0,0,147,147,14,1,,,,,,,,
,,,,,,,,,,,,,FF,,,,,,,,1.431265,,,,,,,,,,,,,,,,,,,,,,60fde3934048d744f301ccb7,6103681652747e33664b3160,2021-07-29_22h47.36.832,Simcolourproject_2stim_asymm_v5,2020.2.10,MacIntel,60,61025ae37ef11b136ea224fe,,,,,,,,,3553,27.203125,-63.85546875,1,0,0,response3disk,,4,-1.48046875,-4.22265625,1,0,0,rectangle,-1.48046875,-4.22265625,1,0,0,-1.48046875,-4.22265625,1,0,0,0,148,148,98,1,,,,,,,,
,,,,,,,,,,,,,FF,,,,,,,,0.868415,,,,,,,,,,,,,,,,,,,,,,60fde3934048d744f301ccb7,6103681652747e33664b3160,2021-07-29_22h47.36.832,Simcolourproject_2stim_asymm_v5,2020.2.10,MacIntel,60,61025ae37ef11b136ea224fe,,,,,,,,,4191,38.55078125,62.1015625,1,0,0,response1disk,,7,17.1171875,-4.89453125,1,0,0,rectangle,17.1171875,-4.89453125,1,0,0,17.1171875,-4.89453125,1,0,0,0,149,149,127,1,,,,,,,,
,,,,,,,,,,,,,FF,,,,,,,,0.934905,,,,,,,,,,,,,,,,,,,,,,60fde3934048d744f301ccb7,6103681652747e33664b3160,2021-07-29_22h47.36.832,Simcolourproject_2stim_asymm_v5,2020.2.10,MacIntel,60,61025ae37ef11b136ea224fe,,,,,,,,,2508,59.48046875,86.8984375,1,0,0,response1disk,,7,24.74609375,5.421875,1,0,0,rectangle,24.74609375,5.421875,1,0,0,24.74609375,5.421875,1,0,0,0,150,150,91,1,,,,,,,,
,,,,,,,,,,,,,FF,,,,,,,,1.449685,,,,,,,,,,,,,,,,,,,,,,60fde3934048d744f301ccb7,6103681652747e33664b3160,2021-07-29_22h47.36.832,Simcolourproject_2stim_asymm_v5,2020.2.10,MacIntel,60,61025ae37ef11b136ea224fe,,,,,,,,,3196,-45.61328125,-62.04296875,1,0,0,response5disk,,3,-13.12109375,-9.57421875,1,0,0,rectangle,-13.12109375,-9.57421875,1,0,0,-13.12109375,-9.57421875,1,0,0,0,151,151,126,1,,,,,,,,
,,,,,,,,,,,,,FF,,,,,,,,2.34993,,,,,,,,,,,,,,,,,,,,,,60fde3934048d744f301ccb7,6103681652747e33664b3160,2021-07-29_22h47.36.832,Simcolourproject_2stim_asymm_v5,2020.2.10,MacIntel,60,61025ae37ef11b136ea224fe,,,,,,,,,3731,43.64453125,53.8984375,1,0,0,response1disk,,7,-7.87890625,-6.078125,1,0,0,rectangle,-7.87890625,-6.078125,1,0,0,-7.87890625,-6.078125,1,0,0,0,152,152,38,1,,,,,,,,
,,,,,,,,,,,,,FF,,,,,,,,1.366725,,,,,,,,,,,,,,,,,,,,,,60fde3934048d744f301ccb7,6103681652747e33664b3160,2021-07-29_22h47.36.832,Simcolourproject_2stim_asymm_v5,2020.2.10,MacIntel,60,61025ae37ef11b136ea224fe,,,,,,,,,1733,19.7734375,52.41796875,1,0,0,response1disk,,7,-7.28515625,-11.6015625,1,0,0,rectangle,-7.28515625,-11.6015625,1,0,0,-7.28515625,-11.6015625,1,0,0,0,153,153,49,1,,,,,,,,
,,,,,,,,,,,,,FF,,,,,,,,1.19899,,,,,,,,,,,,,,,,,,,,,,60fde3934048d744f301ccb7,6103681652747e33664b3160,2021-07-29_22h47.36.832,Simcolourproject_2stim_asymm_v5,2020.2.10,MacIntel,60,61025ae37ef11b136ea224fe,,,,,,,,,1085,34.2421875,53.80078125,1,0,0,response1disk,,7,11.32421875,-6.140625,1,0,0,rectangle,11.32421875,-6.140625,1,0,0,11.32421875,-6.140625,1,0,0,0,154,154,18,1,,,,,,,,
,,,,,,,,,,,,,FF,,,,,,,,0.88363,,,,,,,,,,,,,,,,,,,,,,60fde3934048d744f301ccb7,6103681652747e33664b3160,2021-07-29_22h47.36.832,Simcolourproject_2stim_asymm_v5,2020.2.10,MacIntel,60,61025ae37ef11b136ea224fe,,,,,,,,,4340,23.078125,46.9375,1,0,0,response1disk,,7,5.10546875,9.234375,1,0,0,rectangle,5.10546875,9.234375,1,0,0,5.10546875,9.234375,1,0,0,0,155,155,142,1,,,,,,,,
,,,,,,,,,,,,,FF,,,,,,,,1.26523,,,,,,,,,,,,,,,,,,,,,,60fde3934048d744f301ccb7,6103681652747e33664b3160,2021-07-29_22h47.36.832,Simcolourproject_2stim_asymm_v5,2020.2.10,MacIntel,60,61025ae37ef11b136ea224fe,,,,,,,,,1937,45.07421875,61.671875,1,0,0,response1disk,,7,19.09375,5.56640625,1,0,0,rectangle,19.09375,5.56640625,1,0,0,19.09375,5.56640625,1,0,0,0,156,156,113,1,,,,,,,,
,,,,,,,,,,,,,FF,,,,,,,,0.700275,,,,,,,,,,,,,,,,,,,,,,60fde3934048d744f301ccb7,6103681652747e33664b3160,2021-07-29_22h47.36.832,Simcolourproject_2stim_asymm_v5,2020.2.10,MacIntel,60,61025ae37ef11b136ea224fe,,,,,,,,,1922,45.15234375,64.85546875,1,0,0,response1disk,,7,18.10546875,7.5078125,1,0,0,rectangle,18.10546875,7.5078125,1,0,0,18.10546875,7.5078125,1,0,0,0,157,157,134,1,,,,,,,,
,,,,,,,,,,,,,FF,,,,,,,,1.36672,,,,,,,,,,,,,,,,,,,,,,60fde3934048d744f301ccb7,6103681652747e33664b3160,2021-07-29_22h47.36.832,Simcolourproject_2stim_asymm_v5,2020.2.10,MacIntel,60,61025ae37ef11b136ea224fe,,,,,,,,,347,47.109375,-94.08203125,1,0,0,response3disk,,4,10.18359375,-0.38671875,1,0,0,rectangle,10.18359375,-0.38671875,1,0,0,10.18359375,-0.38671875,1,0,0,0,158,158,34,1,,,,,,,,
,,,,,,,,,,,,,FF,,,,,,,,1.066235,,,,,,,,,,,,,,,,,,,,,,60fde3934048d744f301ccb7,6103681652747e33664b3160,2021-07-29_22h47.36.832,Simcolourproject_2stim_asymm_v5,2020.2.10,MacIntel,60,61025ae37ef11b136ea224fe,,,,,,,,,3654,30.1484375,51.42578125,1,0,0,response1disk,,7,2.69140625,7.9296875,1,0,0,rectangle,2.69140625,7.9296875,1,0,0,2.69140625,7.9296875,1,0,0,0,159,159,145,1,,,,,,,,
,,,,,,,,,,,,,FF,,,,,,,,0.633365,,,,,,,,,,,,,,,,,,,,,,60fde3934048d744f301ccb7,6103681652747e33664b3160,2021-07-29_22h47.36.832,Simcolourproject_2stim_asymm_v5,2020.2.10,MacIntel,60,61025ae37ef11b136ea224fe,,,,,,,,,915,49.65234375,90.76953125,1,0,0,response1disk,,7,3.97265625,-8.8515625,1,0,0,rectangle,3.97265625,-8.8515625,1,0,0,3.97265625,-8.8515625,1,0,0,1,0,160,47,1,,,,,,,,
,,,,,,,,,,,,,FF,,,,,,,,0.73319,,,,,,,,,,,,,,,,,,,,,,60fde3934048d744f301ccb7,6103681652747e33664b3160,2021-07-29_22h47.36.832,Simcolourproject_2stim_asymm_v5,2020.2.10,MacIntel,60,61025ae37ef11b136ea224fe,,,,,,,,,4302,37.13671875,69.62109375,1,0,0,response1disk,,7,8.30859375,16.12109375,1,0,0,rectangle,8.30859375,16.12109375,1,0,0,8.30859375,16.12109375,1,0,0,1,1,161,73,1,,,,,,,,
,,,,,,,,,,,,,FF,,,,,,,,0.566645,,,,,,,,,,,,,,,,,,,,,,60fde3934048d744f301ccb7,6103681652747e33664b3160,2021-07-29_22h47.36.832,Simcolourproject_2stim_asymm_v5,2020.2.10,MacIntel,60,61025ae37ef11b136ea224fe,,,,,,,,,936,43.94140625,80.8515625,1,0,0,response1disk,,7,21.3984375,-6.03125,1,0,0,rectangle,21.3984375,-6.03125,1,0,0,21.3984375,-6.03125,1,0,0,1,2,162,97,1,,,,,,,,
,,,,,,,,,,,,,FF,,,,,,,,1.18248,,,,,,,,,,,,,,,,,,,,,,60fde3934048d744f301ccb7,6103681652747e33664b3160,2021-07-29_22h47.36.832,Simcolourproject_2stim_asymm_v5,2020.2.10,MacIntel,60,61025ae37ef11b136ea224fe,,,,,,,,,2685,34.5546875,43.73046875,1,0,0,response1disk,,7,12.4453125,7.34375,1,0,0,rectangle,12.4453125,7.34375,1,0,0,12.4453125,7.34375,1,0,0,1,3,163,148,1,,,,,,,,
,,,,,,,,,,,,,FF,,,,,,,,1.283225,,,,,,,,,,,,,,,,,,,,,,60fde3934048d744f301ccb7,6103681652747e33664b3160,2021-07-29_22h47.36.832,Simcolourproject_2stim_asymm_v5,2020.2.10,MacIntel,60,61025ae37ef11b136ea224fe,,,,,,,,,108,71.203125,-53.46875,1,0,0,response3disk,,5,27.6015625,-5.89453125,1,0,0,rectangle,27.6015625,-5.89453125,1,0,0,27.6015625,-5.89453125,1,0,0,1,4,164,78,1,,,,,,,,
,,,,,,,,,,,,,FF,,,,,,,,1.301575,,,,,,,,,,,,,,,,,,,,,,60fde3934048d744f301ccb7,6103681652747e33664b3160,2021-07-29_22h47.36.832,Simcolourproject_2stim_asymm_v5,2020.2.10,MacIntel,60,61025ae37ef11b136ea224fe,,,,,,,,,3056,-32.7734375,-80.0078125,1,0,0,response5disk,,3,-0.46484375,-1.76953125,1,0,0,rectangle,-0.46484375,-1.76953125,1,0,0,-0.46484375,-1.76953125,1,0,0,1,5,165,72,1,,,,,,,,
,,,,,,,,,,,,,FF,,,,,,,,1.599105,,,,,,,,,,,,,,,,,,,,,,60fde3934048d744f301ccb7,6103681652747e33664b3160,2021-07-29_22h47.36.832,Simcolourproject_2stim_asymm_v5,2020.2.10,MacIntel,60,61025ae37ef11b136ea224fe,,,,,,,,,2164,-23.13671875,-92.4921875,1,0,0,response5disk,,3,9.515625,-17.17578125,1,0,0,rectangle,9.515625,-17.17578125,1,0,0,9.515625,-17.17578125,1,0,0,1,6,166,90,1,,,,,,,,
,,,,,,,,,,,,,FF,,,,,,,,2.232975,,,,,,,,,,,,,,,,,,,,,,60fde3934048d744f301ccb7,6103681652747e33664b3160,2021-07-29_22h47.36.832,Simcolourproject_2stim_asymm_v5,2020.2.10,MacIntel,60,61025ae37ef11b136ea224fe,,,,,,,,,2923,31.9140625,64.984375,1,0,0,response1disk,,7,-4.05859375,9.42578125,1,0,0,rectangle,-75.7421875,63.27734375,1,0,0,-13.95703125,2.41015625,1,0,0,1,7,167,38,1,,response7disk_3,TRUE,1,1,"[29,64,33,195,21,263,220,64,23,89,122,275,82,308,99,168,35,235,118,217]",1.43581,rectangle
,,,,,,,,,,,,,FF,,,,,,,,1.219175,,,,,,,,,,,,,,,,,,,,,,60fde3934048d744f301ccb7,6103681652747e33664b3160,2021-07-29_22h47.36.832,Simcolourproject_2stim_asymm_v5,2020.2.10,MacIntel,60,61025ae37ef11b136ea224fe,,,,,,,,,3529,88.61328125,15.1484375,1,0,0,response1disk,,6,-1.9921875,-4.0625,1,0,0,rectangle,-1.9921875,-4.0625,1,0,0,-1.9921875,-4.0625,1,0,0,1,8,168,154,1,,,,,,,,
,,,,,,,,,,,,,FF,,,,,,,,1.0666,,,,,,,,,,,,,,,,,,,,,,60fde3934048d744f301ccb7,6103681652747e33664b3160,2021-07-29_22h47.36.832,Simcolourproject_2stim_asymm_v5,2020.2.10,MacIntel,60,61025ae37ef11b136ea224fe,,,,,,,,,3726,26.296875,67.12109375,1,0,0,response1disk,,7,-16.34375,-0.19140625,1,0,0,rectangle,-16.34375,-0.19140625,1,0,0,-16.34375,-0.19140625,1,0,0,1,9,169,49,1,,,,,,,,
,,,,,,,,,,,,,FF,,,,,,,,0.883375,,,,,,,,,,,,,,,,,,,,,,60fde3934048d744f301ccb7,6103681652747e33664b3160,2021-07-29_22h47.36.832,Simcolourproject_2stim_asymm_v5,2020.2.10,MacIntel,60,61025ae37ef11b136ea224fe,,,,,,,,,2040,-48.71875,-77.06640625,1,0,0,response5disk,,3,5.16796875,15.5703125,1,0,0,rectangle,5.16796875,15.5703125,1,0,0,5.16796875,15.5703125,1,0,0,1,10,170,18,1,,,,,,,,
,,,,,,,,,,,,,FF,,,,,,,,1.184945,,,,,,,,,,,,,,,,,,,,,,60fde3934048d744f301ccb7,6103681652747e33664b3160,2021-07-29_22h47.36.832,Simcolourproject_2stim_asymm_v5,2020.2.10,MacIntel,60,61025ae37ef11b136ea224fe,,,,,,,,,1522,-50.5234375,-59.57421875,1,0,0,response5disk,,3,14.6875,11.4921875,1,0,0,rectangle,14.6875,11.4921875,1,0,0,14.6875,11.4921875,1,0,0,1,11,171,33,1,,,,,,,,
,,,,,,,,,,,,,FF,,,,,,,,0.66757,,,,,,,,,,,,,,,,,,,,,,60fde3934048d744f301ccb7,6103681652747e33664b3160,2021-07-29_22h47.36.832,Simcolourproject_2stim_asymm_v5,2020.2.10,MacIntel,60,61025ae37ef11b136ea224fe,,,,,,,,,2026,-75.484375,-20.67578125,1,0,0,response5disk,,2,-22.93359375,-7.4296875,1,0,0,rectangle,-22.93359375,-7.4296875,1,0,0,-22.93359375,-7.4296875,1,0,0,1,12,172,93,1,,,,,,,,
,,,,,,,,,,,,,FF,,,,,,,,1.049905,,,,,,,,,,,,,,,,,,,,,,60fde3934048d744f301ccb7,6103681652747e33664b3160,2021-07-29_22h47.36.832,Simcolourproject_2stim_asymm_v5,2020.2.10,MacIntel,60,61025ae37ef11b136ea224fe,,,,,,,,,1848,18.3671875,35.5078125,1,0,0,response1disk,,7,14.26171875,-14.44140625,1,0,0,rectangle,14.26171875,-14.44140625,1,0,0,14.26171875,-14.44140625,1,0,0,1,13,173,100,1,,,,,,,,
,,,,,,,,,,,,,FF,,,,,,,,0.932785,,,,,,,,,,,,,,,,,,,,,,60fde3934048d744f301ccb7,6103681652747e33664b3160,2021-07-29_22h47.36.832,Simcolourproject_2stim_asymm_v5,2020.2.10,MacIntel,60,61025ae37ef11b136ea224fe,,,,,,,,,3472,-92.30078125,-53.3046875,1,0,0,response5disk,,2,-19.34765625,-6.69921875,1,0,0,rectangle,-19.34765625,-6.69921875,1,0,0,-19.34765625,-6.69921875,1,0,0,1,14,174,133,1,,,,,,,,
,,,,,,,,,,,,,FF,,,,,,,,1.000305,,,,,,,,,,,,,,,,,,,,,,60fde3934048d744f301ccb7,6103681652747e33664b3160,2021-07-29_22h47.36.832,Simcolourproject_2stim_asymm_v5,2020.2.10,MacIntel,60,61025ae37ef11b136ea224fe,,,,,,,,,2528,27.01953125,48.36328125,1,0,0,response1disk,,7,-5.48828125,-5.48046875,1,0,0,rectangle,-5.48828125,-5.48046875,1,0,0,-5.48828125,-5.48046875,1,0,0,1,15,175,159,1,,,,,,,,
,,,,,,,,,,,,,FF,,,,,,,,0.949635,,,,,,,,,,,,,,,,,,,,,,60fde3934048d744f301ccb7,6103681652747e33664b3160,2021-07-29_22h47.36.832,Simcolourproject_2stim_asymm_v5,2020.2.10,MacIntel,60,61025ae37ef11b136ea224fe,,,,,,,,,3004,-74.1015625,-48.0625,1,0,0,response5disk,,2,-17.75,-5.03515625,1,0,0,rectangle,-17.75,-5.03515625,1,0,0,-17.75,-5.03515625,1,0,0,1,16,176,123,1,,,,,,,,
,,,,,,,,,,,,,FF,,,,,,,,0.78367,,,,,,,,,,,,,,,,,,,,,,60fde3934048d744f301ccb7,6103681652747e33664b3160,2021-07-29_22h47.36.832,Simcolourproject_2stim_asymm_v5,2020.2.10,MacIntel,60,61025ae37ef11b136ea224fe,,,,,,,,,4199,49.78125,61.76171875,1,0,0,response1disk,,7,12.26953125,2.34375,1,0,0,rectangle,12.26953125,2.34375,1,0,0,12.26953125,2.34375,1,0,0,1,17,177,2,1,,,,,,,,
,,,,,,,,,,,,,FF,,,,,,,,0.78252,,,,,,,,,,,,,,,,,,,,,,60fde3934048d744f301ccb7,6103681652747e33664b3160,2021-07-29_22h47.36.832,Simcolourproject_2stim_asymm_v5,2020.2.10,MacIntel,60,61025ae37ef11b136ea224fe,,,,,,,,,1842,40.96484375,53.91796875,1,0,0,response1disk,,7,32.25390625,8.3359375,1,0,0,rectangle,32.25390625,8.3359375,1,0,0,32.25390625,8.3359375,1,0,0,1,18,178,62,1,,,,,,,,
,,,,,,,,,,,,,FF,,,,,,,,0.85029,,,,,,,,,,,,,,,,,,,,,,60fde3934048d744f301ccb7,6103681652747e33664b3160,2021-07-29_22h47.36.832,Simcolourproject_2stim_asymm_v5,2020.2.10,MacIntel,60,61025ae37ef11b136ea224fe,,,,,,,,,1570,59.4765625,79.078125,1,0,0,response1disk,,7,20.875,6.76953125,1,0,0,rectangle,20.875,6.76953125,1,0,0,20.875,6.76953125,1,0,0,1,19,179,107,1,,,,,,,,
,,,,,,,,,,,,,FF,,,,,,,,0.616835,,,,,,,,,,,,,,,,,,,,,,60fde3934048d744f301ccb7,6103681652747e33664b3160,2021-07-29_22h47.36.832,Simcolourproject_2stim_asymm_v5,2020.2.10,MacIntel,60,61025ae37ef11b136ea224fe,,,,,,,,,1728,24.55859375,57.79296875,1,0,0,response1disk,,7,25.015625,6.7109375,1,0,0,rectangle,25.015625,6.7109375,1,0,0,25.015625,6.7109375,1,0,0,1,20,180,150,1,,,,,,,,
,,,,,,,,,,,,,FF,,,,,,,,0.849605,,,,,,,,,,,,,,,,,,,,,,60fde3934048d744f301ccb7,6103681652747e33664b3160,2021-07-29_22h47.36.832,Simcolourproject_2stim_asymm_v5,2020.2.10,MacIntel,60,61025ae37ef11b136ea224fe,,,,,,,,,4369,-35.9765625,62.46875,1,0,0,response7disk,,0,-11.8515625,-0.21875,1,0,0,rectangle,-11.8515625,-0.21875,1,0,0,-11.8515625,-0.21875,1,0,0,1,21,181,118,1,,,,,,,,
,,,,,,,,,,,,,FF,,,,,,,,1.048855,,,,,,,,,,,,,,,,,,,,,,60fde3934048d744f301ccb7,6103681652747e33664b3160,2021-07-29_22h47.36.832,Simcolourproject_2stim_asymm_v5,2020.2.10,MacIntel,60,61025ae37ef11b136ea224fe,,,,,,,,,1635,37.30859375,68.71875,1,0,0,response1disk,,7,3.50390625,-2.8203125,1,0,0,rectangle,3.50390625,-2.8203125,1,0,0,3.50390625,-2.8203125,1,0,0,1,22,182,67,1,,,,,,,,
,,,,,,,,,,,,,FF,,,,,,,,0.64826,,,,,,,,,,,,,,,,,,,,,,60fde3934048d744f301ccb7,6103681652747e33664b3160,2021-07-29_22h47.36.832,Simcolourproject_2stim_asymm_v5,2020.2.10,MacIntel,60,61025ae37ef11b136ea224fe,,,,,,,,,2892,-100.2929688,-50.77734375,1,0,0,response5disk,,2,17.11328125,5.91796875,1,0,0,rectangle,17.11328125,5.91796875,1,0,0,17.11328125,5.91796875,1,0,0,1,23,183,70,1,,,,,,,,
,,,,,,,,,,,,,FF,,,,,,,,1.33382,,,,,,,,,,,,,,,,,,,,,,60fde3934048d744f301ccb7,6103681652747e33664b3160,2021-07-29_22h47.36.832,Simcolourproject_2stim_asymm_v5,2020.2.10,MacIntel,60,61025ae37ef11b136ea224fe,,,,,,,,,4329,70.08984375,27.38671875,1,0,0,response1disk,,6,-17.07421875,1.7578125,1,0,0,rectangle,-17.07421875,1.7578125,1,0,0,-17.07421875,1.7578125,1,0,0,1,24,184,153,1,,,,,,,,
,,,,,,,,,,,,,FF,,,,,,,,0.85153,,,,,,,,,,,,,,,,,,,,,,60fde3934048d744f301ccb7,6103681652747e33664b3160,2021-07-29_22h47.36.832,Simcolourproject_2stim_asymm_v5,2020.2.10,MacIntel,60,61025ae37ef11b136ea224fe,,,,,,,,,3501,16.99609375,52.6015625,1,0,0,response1disk,,7,5.24609375,0.47265625,1,0,0,rectangle,5.24609375,0.47265625,1,0,0,5.24609375,0.47265625,1,0,0,1,25,185,117,1,,,,,,,,
,,,,,,,,,,,,,FF,,,,,,,,0.98321,,,,,,,,,,,,,,,,,,,,,,60fde3934048d744f301ccb7,6103681652747e33664b3160,2021-07-29_22h47.36.832,Simcolourproject_2stim_asymm_v5,2020.2.10,MacIntel,60,61025ae37ef11b136ea224fe,,,,,,,,,93,-59.81640625,39.07421875,1,0,0,response7disk,,1,-11.91796875,1.36328125,1,0,0,rectangle,-11.91796875,1.36328125,1,0,0,-11.91796875,1.36328125,1,0,0,1,26,186,34,1,,,,,,,,
,,,,,,,,,,,,,FF,,,,,,,,0.750375,,,,,,,,,,,,,,,,,,,,,,60fde3934048d744f301ccb7,6103681652747e33664b3160,2021-07-29_22h47.36.832,Simcolourproject_2stim_asymm_v5,2020.2.10,MacIntel,60,61025ae37ef11b136ea224fe,,,,,,,,,771,19.5390625,49.8984375,1,0,0,response1disk,,7,18.80078125,9.171875,1,0,0,rectangle,18.80078125,9.171875,1,0,0,18.80078125,9.171875,1,0,0,1,27,187,22,1,,,,,,,,
,,,,,,,,,,,,,FF,,,,,,,,0.81688,,,,,,,,,,,,,,,,,,,,,,60fde3934048d744f301ccb7,6103681652747e33664b3160,2021-07-29_22h47.36.832,Simcolourproject_2stim_asymm_v5,2020.2.10,MacIntel,60,61025ae37ef11b136ea224fe,,,,,,,,,425,48.125,74.30859375,1,0,0,response1disk,,7,28.3359375,7.27734375,1,0,0,rectangle,28.3359375,7.27734375,1,0,0,28.3359375,7.27734375,1,0,0,1,28,188,57,1,,,,,,,,
,,,,,,,,,,,,,FF,,,,,,,,0.867535,,,,,,,,,,,,,,,,,,,,,,60fde3934048d744f301ccb7,6103681652747e33664b3160,2021-07-29_22h47.36.832,Simcolourproject_2stim_asymm_v5,2020.2.10,MacIntel,60,61025ae37ef11b136ea224fe,,,,,,,,,807,75.234375,30.109375,1,0,0,response1disk,,6,-18.640625,-11.01171875,1,0,0,rectangle,-18.640625,-11.01171875,1,0,0,-18.640625,-11.01171875,1,0,0,1,29,189,130,1,,,,,,,,
,,,,,,,,,,,,,FF,,,,,,,,1.03375,,,,,,,,,,,,,,,,,,,,,,60fde3934048d744f301ccb7,6103681652747e33664b3160,2021-07-29_22h47.36.832,Simcolourproject_2stim_asymm_v5,2020.2.10,MacIntel,60,61025ae37ef11b136ea224fe,,,,,,,,,2525,26.96484375,51.890625,1,0,0,response1disk,,7,10.2421875,-1.9453125,1,0,0,rectangle,10.2421875,-1.9453125,1,0,0,10.2421875,-1.9453125,1,0,0,1,30,190,151,1,,,,,,,,
,,,,,,,,,,,,,FF,,,,,,,,0.93378,,,,,,,,,,,,,,,,,,,,,,60fde3934048d744f301ccb7,6103681652747e33664b3160,2021-07-29_22h47.36.832,Simcolourproject_2stim_asymm_v5,2020.2.10,MacIntel,60,61025ae37ef11b136ea224fe,,,,,,,,,1523,39.84765625,-70.26171875,1,0,0,response3disk,,4,22.44921875,-7.28125,1,0,0,rectangle,22.44921875,-7.28125,1,0,0,22.44921875,-7.28125,1,0,0,1,31,191,98,1,,,,,,,,
,,,,,,,,,,,,,FF,,,,,,,,0.76772,,,,,,,,,,,,,,,,,,,,,,60fde3934048d744f301ccb7,6103681652747e33664b3160,2021-07-29_22h47.36.832,Simcolourproject_2stim_asymm_v5,2020.2.10,MacIntel,60,61025ae37ef11b136ea224fe,,,,,,,,,3429,37.0234375,-57.69140625,1,0,0,response3disk,,4,21.8359375,-2.46875,1,0,0,rectangle,21.8359375,-2.46875,1,0,0,21.8359375,-2.46875,1,0,0,1,32,192,11,1,,,,,,,,
,,,,,,,,,,,,,FF,,,,,,,,0.933645,,,,,,,,,,,,,,,,,,,,,,60fde3934048d744f301ccb7,6103681652747e33664b3160,2021-07-29_22h47.36.832,Simcolourproject_2stim_asymm_v5,2020.2.10,MacIntel,60,61025ae37ef11b136ea224fe,,,,,,,,,4296,48.9609375,67.6875,1,0,0,response1disk,,7,23.01171875,2.09765625,1,0,0,rectangle,23.01171875,2.09765625,1,0,0,23.01171875,2.09765625,1,0,0,1,33,193,106,1,,,,,,,,
,,,,,,,,,,,,,FF,,,,,,,,1.49948,,,,,,,,,,,,,,,,,,,,,,60fde3934048d744f301ccb7,6103681652747e33664b3160,2021-07-29_22h47.36.832,Simcolourproject_2stim_asymm_v5,2020.2.10,MacIntel,60,61025ae37ef11b136ea224fe,,,,,,,,,1389,108.4257813,39.4140625,1,0,0,response1disk,,6,1.58984375,7.67578125,1,0,0,rectangle,-97.1796875,-49.96484375,1,0,0,-0.2421875,1.546875,1,0,0,1,34,194,101,1,,response5disk_3,TRUE,2,2,"[29,64,33,195,21,263,220,64,23,89,122,275,82,308,99,168,35,235,118,217]",2.269235,rectangle
,,,,,,,,,,,,,FF,,,,,,,,1.449705,,,,,,,,,,,,,,,,,,,,,,60fde3934048d744f301ccb7,6103681652747e33664b3160,2021-07-29_22h47.36.832,Simcolourproject_2stim_asymm_v5,2020.2.10,MacIntel,60,61025ae37ef11b136ea224fe,,,,,,,,,553,32.8515625,-76.70703125,1,0,0,response3disk,,4,4.8984375,-0.68359375,1,0,0,rectangle,4.8984375,-0.68359375,1,0,0,4.8984375,-0.68359375,1,0,0,1,35,195,0,1,,,,,,,,
,,,,,,,,,,,,,FF,,,,,,,,0.899705,,,,,,,,,,,,,,,,,,,,,,60fde3934048d744f301ccb7,6103681652747e33664b3160,2021-07-29_22h47.36.832,Simcolourproject_2stim_asymm_v5,2020.2.10,MacIntel,60,61025ae37ef11b136ea224fe,,,,,,,,,610,-40.984375,-76.5390625,1,0,0,response5disk,,3,-11.30078125,-4.46875,1,0,0,rectangle,-11.30078125,-4.46875,1,0,0,-11.30078125,-4.46875,1,0,0,1,36,196,137,1,,,,,,,,
,,,,,,,,,,,,,FF,,,,,,,,0.98291,,,,,,,,,,,,,,,,,,,,,,60fde3934048d744f301ccb7,6103681652747e33664b3160,2021-07-29_22h47.36.832,Simcolourproject_2stim_asymm_v5,2020.2.10,MacIntel,60,61025ae37ef11b136ea224fe,,,,,,,,,1516,63.33984375,22.84375,1,0,0,response1disk,,6,14.2578125,2,1,0,0,rectangle,14.2578125,2,1,0,0,14.2578125,2,1,0,0,1,37,197,82,1,,,,,,,,
,,,,,,,,,,,,,FF,,,,,,,,0.71682,,,,,,,,,,,,,,,,,,,,,,60fde3934048d744f301ccb7,6103681652747e33664b3160,2021-07-29_22h47.36.832,Simcolourproject_2stim_asymm_v5,2020.2.10,MacIntel,60,61025ae37ef11b136ea224fe,,,,,,,,,3564,54.2265625,23.3515625,1,0,0,response1disk,,6,19.97265625,4.8515625,1,0,0,rectangle,19.97265625,4.8515625,1,0,0,19.97265625,4.8515625,1,0,0,1,38,198,17,1,,,,,,,,
,,,,,,,,,,,,,FF,,,,,,,,1.51762,,,,,,,,,,,,,,,,,,,,,,60fde3934048d744f301ccb7,6103681652747e33664b3160,2021-07-29_22h47.36.832,Simcolourproject_2stim_asymm_v5,2020.2.10,MacIntel,60,61025ae37ef11b136ea224fe,,,,,,,,,2680,61.88671875,43.734375,1,0,0,response1disk,,6,12.32421875,13.875,1,0,0,rectangle,12.32421875,13.875,1,0,0,12.32421875,13.875,1,0,0,1,39,199,147,1,,,,,,,,
,,,,,,,,,,,,,FF,,,,,,,,0.98456,,,,,,,,,,,,,,,,,,,,,,60fde3934048d744f301ccb7,6103681652747e33664b3160,2021-07-29_22h47.36.832,Simcolourproject_2stim_asymm_v5,2020.2.10,MacIntel,60,61025ae37ef11b136ea224fe,,,,,,,,,722,37.328125,-58.96484375,1,0,0,response3disk,,4,6.55078125,-5.171875,1,0,0,rectangle,6.55078125,-5.171875,1,0,0,6.55078125,-5.171875,1,0,0,1,40,200,132,1,,,,,,,,
,,,,,,,,,,,,,FF,,,,,,,,0.765395,,,,,,,,,,,,,,,,,,,,,,60fde3934048d744f301ccb7,6103681652747e33664b3160,2021-07-29_22h47.36.832,Simcolourproject_2stim_asymm_v5,2020.2.10,MacIntel,60,61025ae37ef11b136ea224fe,,,,,,,,,618,-44.2109375,-85.6484375,1,0,0,response5disk,,3,-25.03515625,-6.27734375,1,0,0,rectangle,-25.03515625,-6.27734375,1,0,0,-25.03515625,-6.27734375,1,0,0,1,41,201,68,1,,,,,,,,
,,,,,,,,,,,,,FF,,,,,,,,1.001485,,,,,,,,,,,,,,,,,,,,,,60fde3934048d744f301ccb7,6103681652747e33664b3160,2021-07-29_22h47.36.832,Simcolourproject_2stim_asymm_v5,2020.2.10,MacIntel,60,61025ae37ef11b136ea224fe,,,,,,,,,656,63.66796875,22.7734375,1,0,0,response1disk,,6,7.69921875,17.86328125,1,0,0,rectangle,7.69921875,17.86328125,1,0,0,7.69921875,17.86328125,1,0,0,1,42,202,131,1,,,,,,,,
,,,,,,,,,,,,,FF,,,,,,,,0.66616,,,,,,,,,,,,,,,,,,,,,,60fde3934048d744f301ccb7,6103681652747e33664b3160,2021-07-29_22h47.36.832,Simcolourproject_2stim_asymm_v5,2020.2.10,MacIntel,60,61025ae37ef11b136ea224fe,,,,,,,,,2446,56.234375,72.6953125,1,0,0,response1disk,,7,11.43359375,-9.16796875,1,0,0,rectangle,11.43359375,-9.16796875,1,0,0,11.43359375,-9.16796875,1,0,0,1,43,203,105,1,,,,,,,,
,,,,,,,,,,,,,FF,,,,,,,,0.716565,,,,,,,,,,,,,,,,,,,,,,60fde3934048d744f301ccb7,6103681652747e33664b3160,2021-07-29_22h47.36.832,Simcolourproject_2stim_asymm_v5,2020.2.10,MacIntel,60,61025ae37ef11b136ea224fe,,,,,,,,,2353,48.9375,71.51953125,1,0,0,response1disk,,7,20.96484375,8.24609375,1,0,0,rectangle,20.96484375,8.24609375,1,0,0,20.96484375,8.24609375,1,0,0,1,44,204,5,1,,,,,,,,
,,,,,,,,,,,,,FF,,,,,,,,0.866445,,,,,,,,,,,,,,,,,,,,,,60fde3934048d744f301ccb7,6103681652747e33664b3160,2021-07-29_22h47.36.832,Simcolourproject_2stim_asymm_v5,2020.2.10,MacIntel,60,61025ae37ef11b136ea224fe,,,,,,,,,714,44.65234375,61.93359375,1,0,0,response1disk,,7,22.75,4.95703125,1,0,0,rectangle,22.75,4.95703125,1,0,0,22.75,4.95703125,1,0,0,1,45,205,124,1,,,,,,,,
,,,,,,,,,,,,,FF,,,,,,,,1.01786,,,,,,,,,,,,,,,,,,,,,,60fde3934048d744f301ccb7,6103681652747e33664b3160,2021-07-29_22h47.36.832,Simcolourproject_2stim_asymm_v5,2020.2.10,MacIntel,60,61025ae37ef11b136ea224fe,,,,,,,,,1950,90.80078125,25.7421875,1,0,0,response1disk,,6,-6.0390625,-10.9375,1,0,0,rectangle,-6.0390625,-10.9375,1,0,0,-6.0390625,-10.9375,1,0,0,1,46,206,81,1,,,,,,,,
,,,,,,,,,,,,,FF,,,,,,,,0.718335,,,,,,,,,,,,,,,,,,,,,,60fde3934048d744f301ccb7,6103681652747e33664b3160,2021-07-29_22h47.36.832,Simcolourproject_2stim_asymm_v5,2020.2.10,MacIntel,60,61025ae37ef11b136ea224fe,,,,,,,,,1762,68.171875,33.5546875,1,0,0,response1disk,,6,10.17578125,14.2265625,1,0,0,rectangle,10.17578125,14.2265625,1,0,0,10.17578125,14.2265625,1,0,0,1,47,207,13,1,,,,,,,,
,,,,,,,,,,,,,FF,,,,,,,,0.917055,,,,,,,,,,,,,,,,,,,,,,60fde3934048d744f301ccb7,6103681652747e33664b3160,2021-07-29_22h47.36.832,Simcolourproject_2stim_asymm_v5,2020.2.10,MacIntel,60,61025ae37ef11b136ea224fe,,,,,,,,,3417,34.66015625,-68.0859375,1,0,0,response3disk,,4,8.875,-11.140625,1,0,0,rectangle,8.875,-11.140625,1,0,0,8.875,-11.140625,1,0,0,1,48,208,15,1,,,,,,,,
,,,,,,,,,,,,,FF,,,,,,,,1.184515,,,,,,,,,,,,,,,,,,,,,,60fde3934048d744f301ccb7,6103681652747e33664b3160,2021-07-29_22h47.36.832,Simcolourproject_2stim_asymm_v5,2020.2.10,MacIntel,60,61025ae37ef11b136ea224fe,,,,,,,,,2875,36.3203125,57.171875,1,0,0,response1disk,,7,-3.16015625,2.0234375,1,0,0,rectangle,-3.16015625,2.0234375,1,0,0,-3.16015625,2.0234375,1,0,0,1,49,209,134,1,,,,,,,,
,,,,,,,,,,,,,FF,,,,,,,,0.86523,,,,,,,,,,,,,,,,,,,,,,60fde3934048d744f301ccb7,6103681652747e33664b3160,2021-07-29_22h47.36.832,Simcolourproject_2stim_asymm_v5,2020.2.10,MacIntel,60,61025ae37ef11b136ea224fe,,,,,,,,,4137,23.9609375,46.75390625,1,0,0,response1disk,,7,1.484375,6.26953125,1,0,0,rectangle,1.484375,6.26953125,1,0,0,1.484375,6.26953125,1,0,0,1,50,210,114,1,,,,,,,,
,,,,,,,,,,,,,FF,,,,,,,,0.680735,,,,,,,,,,,,,,,,,,,,,,60fde3934048d744f301ccb7,6103681652747e33664b3160,2021-07-29_22h47.36.832,Simcolourproject_2stim_asymm_v5,2020.2.10,MacIntel,60,61025ae37ef11b136ea224fe,,,,,,,,,2755,47.37890625,54.40625,1,0,0,response1disk,,7,24.71875,6.55078125,1,0,0,rectangle,24.71875,6.55078125,1,0,0,24.71875,6.55078125,1,0,0,1,51,211,69,1,,,,,,,,
,,,,,,,,,,,,,FF,,,,,,,,0.786245,,,,,,,,,,,,,,,,,,,,,,60fde3934048d744f301ccb7,6103681652747e33664b3160,2021-07-29_22h47.36.832,Simcolourproject_2stim_asymm_v5,2020.2.10,MacIntel,60,61025ae37ef11b136ea224fe,,,,,,,,,1662,54.4609375,-53.47265625,1,0,0,response3disk,,5,-12.30859375,7.484375,1,0,0,rectangle,-12.30859375,7.484375,1,0,0,-12.30859375,7.484375,1,0,0,1,52,212,42,1,,,,,,,,
,,,,,,,,,,,,,FF,,,,,,,,0.835875,,,,,,,,,,,,,,,,,,,,,,60fde3934048d744f301ccb7,6103681652747e33664b3160,2021-07-29_22h47.36.832,Simcolourproject_2stim_asymm_v5,2020.2.10,MacIntel,60,61025ae37ef11b136ea224fe,,,,,,,,,2344,56.2578125,76.09765625,1,0,0,response1disk,,7,9.97265625,-3.98046875,1,0,0,rectangle,9.97265625,-3.98046875,1,0,0,9.97265625,-3.98046875,1,0,0,1,53,213,139,1,,,,,,,,
,,,,,,,,,,,,,FF,,,,,,,,1.268135,,,,,,,,,,,,,,,,,,,,,,60fde3934048d744f301ccb7,6103681652747e33664b3160,2021-07-29_22h47.36.832,Simcolourproject_2stim_asymm_v5,2020.2.10,MacIntel,60,61025ae37ef11b136ea224fe,,,,,,,,,3969,-27.0625,-62.36328125,1,0,0,response5disk,,3,2.91015625,9.04296875,1,0,0,rectangle,2.91015625,9.04296875,1,0,0,2.91015625,9.04296875,1,0,0,1,54,214,135,1,,,,,,,,
,,,,,,,,,,,,,FF,,,,,,,,1.15116,,,,,,,,,,,,,,,,,,,,,,60fde3934048d744f301ccb7,6103681652747e33664b3160,2021-07-29_22h47.36.832,Simcolourproject_2stim_asymm_v5,2020.2.10,MacIntel,60,61025ae37ef11b136ea224fe,,,,,,,,,3937,-111.4726563,-29.69921875,1,0,0,response5disk,,2,4.22265625,12.10546875,1,0,0,rectangle,4.22265625,12.10546875,1,0,0,4.22265625,12.10546875,1,0,0,1,55,215,59,1,,,,,,,,
,,,,,,,,,,,,,FF,,,,,,,,0.81717,,,,,,,,,,,,,,,,,,,,,,60fde3934048d744f301ccb7,6103681652747e33664b3160,2021-07-29_22h47.36.832,Simcolourproject_2stim_asymm_v5,2020.2.10,MacIntel,60,61025ae37ef11b136ea224fe,,,,,,,,,572,47.40234375,71.8125,1,0,0,response1disk,,7,2.25390625,-4.94140625,1,0,0,rectangle,-112.8828125,-48.625,1,0,0,-16.7109375,-0.546875,1,0,0,1,56,216,51,1,,response5disk_3,TRUE,2,2,"[29,64,33,195,21,263,220,64,23,89,122,275,82,308,99,168,35,235,118,217]",1.585185,rectangle
,,,,,,,,,,,,,FF,,,,,,,,0.983445,,,,,,,,,,,,,,,,,,,,,,60fde3934048d744f301ccb7,6103681652747e33664b3160,2021-07-29_22h47.36.832,Simcolourproject_2stim_asymm_v5,2020.2.10,MacIntel,60,61025ae37ef11b136ea224fe,,,,,,,,,2052,46.359375,-59.27734375,1,0,0,response3disk,,4,24.48046875,3.34375,1,0,0,rectangle,24.48046875,3.34375,1,0,0,24.48046875,3.34375,1,0,0,1,57,217,129,1,,,,,,,,
,,,,,,,,,,,,,FF,,,,,,,,0.71571,,,,,,,,,,,,,,,,,,,,,,60fde3934048d744f301ccb7,6103681652747e33664b3160,2021-07-29_22h47.36.832,Simcolourproject_2stim_asymm_v5,2020.2.10,MacIntel,60,61025ae37ef11b136ea224fe,,,,,,,,,2392,30.52734375,-51.87109375,1,0,0,response3disk,,4,25.75390625,-7.33203125,1,0,0,rectangle,25.75390625,-7.33203125,1,0,0,25.75390625,-7.33203125,1,0,0,1,58,218,6,1,,,,,,,,
,,,,,,,,,,,,,FF,,,,,,,,0.6983,,,,,,,,,,,,,,,,,,,,,,60fde3934048d744f301ccb7,6103681652747e33664b3160,2021-07-29_22h47.36.832,Simcolourproject_2stim_asymm_v5,2020.2.10,MacIntel,60,61025ae37ef11b136ea224fe,,,,,,,,,4153,43.4921875,62.05078125,1,0,0,response1disk,,7,17.87109375,6.41015625,1,0,0,rectangle,73.2890625,-41.9296875,1,0,0,9.56640625,15.03125,1,0,0,1,59,219,43,1,,response3disk_3,TRUE,5,5,"[29,64,33,195,21,263,220,64,23,89,122,275,82,308,99,168,35,235,118,217]",2.94915,rectangle
,,,,,,,,,,,,,FF,,,,,,,,1.332955,,,,,,,,,,,,,,,,,,,,,,60fde3934048d744f301ccb7,6103681652747e33664b3160,2021-07-29_22h47.36.832,Simcolourproject_2stim_asymm_v5,2020.2.10,MacIntel,60,61025ae37ef11b136ea224fe,,,,,,,,,999,78.359375,31.140625,1,0,0,response1disk,,6,17.7265625,-12.22265625,1,0,0,rectangle,17.7265625,-12.22265625,1,0,0,17.7265625,-12.22265625,1,0,0,1,60,220,122,1,,,,,,,,
,,,,,,,,,,,,,FF,,,,,,,,1.36657,,,,,,,,,,,,,,,,,,,,,,60fde3934048d744f301ccb7,6103681652747e33664b3160,2021-07-29_22h47.36.832,Simcolourproject_2stim_asymm_v5,2020.2.10,MacIntel,60,61025ae37ef11b136ea224fe,,,,,,,,,1954,81.31640625,35.4921875,1,0,0,response1disk,,6,-5.5390625,-2.59765625,1,0,0,rectangle,-5.5390625,-2.59765625,1,0,0,-5.5390625,-2.59765625,1,0,0,1,61,221,52,1,,,,,,,,
,,,,,,,,,,,,,FF,,,,,,,,0.76585,,,,,,,,,,,,,,,,,,,,,,60fde3934048d744f301ccb7,6103681652747e33664b3160,2021-07-29_22h47.36.832,Simcolourproject_2stim_asymm_v5,2020.2.10,MacIntel,60,61025ae37ef11b136ea224fe,,,,,,,,,2976,51.875,32.57421875,1,0,0,response1disk,,6,4.51953125,0.41796875,1,0,0,rectangle,4.51953125,0.41796875,1,0,0,4.51953125,0.41796875,1,0,0,1,62,222,95,1,,,,,,,,
,,,,,,,,,,,,,FF,,,,,,,,1.5843,,,,,,,,,,,,,,,,,,,,,,60fde3934048d744f301ccb7,6103681652747e33664b3160,2021-07-29_22h47.36.832,Simcolourproject_2stim_asymm_v5,2020.2.10,MacIntel,60,61025ae37ef11b136ea224fe,,,,,,,,,3337,-50.23046875,-74.85546875,1,0,0,response5disk,,3,12.92578125,4.9453125,1,0,0,rectangle,12.92578125,4.9453125,1,0,0,12.92578125,4.9453125,1,0,0,1,63,223,116,1,,,,,,,,
,,,,,,,,,,,,,FF,,,,,,,,0.76747,,,,,,,,,,,,,,,,,,,,,,60fde3934048d744f301ccb7,6103681652747e33664b3160,2021-07-29_22h47.36.832,Simcolourproject_2stim_asymm_v5,2020.2.10,MacIntel,60,61025ae37ef11b136ea224fe,,,,,,,,,3675,-86.19921875,-31.55078125,1,0,0,response5disk,,2,-7.1953125,12.7578125,1,0,0,rectangle,-7.1953125,12.7578125,1,0,0,-7.1953125,12.7578125,1,0,0,1,64,224,65,1,,,,,,,,
,,,,,,,,,,,,,FF,,,,,,,,1.00093,,,,,,,,,,,,,,,,,,,,,,60fde3934048d744f301ccb7,6103681652747e33664b3160,2021-07-29_22h47.36.832,Simcolourproject_2stim_asymm_v5,2020.2.10,MacIntel,60,61025ae37ef11b136ea224fe,,,,,,,,,180,72.50390625,63.65234375,1,0,0,response1disk,,6,3.07421875,16.703125,1,0,0,rectangle,3.07421875,16.703125,1,0,0,3.07421875,16.703125,1,0,0,1,65,225,103,1,,,,,,,,
,,,,,,,,,,,,,FF,,,,,,,,0.79879,,,,,,,,,,,,,,,,,,,,,,60fde3934048d744f301ccb7,6103681652747e33664b3160,2021-07-29_22h47.36.832,Simcolourproject_2stim_asymm_v5,2020.2.10,MacIntel,60,61025ae37ef11b136ea224fe,,,,,,,,,4362,-35.08984375,63.046875,1,0,0,response7disk,,0,-13.65625,0.83203125,1,0,0,rectangle,-13.65625,0.83203125,1,0,0,-13.65625,0.83203125,1,0,0,1,66,226,37,1,,,,,,,,
,,,,,,,,,,,,,FF,,,,,,,,0.99876,,,,,,,,,,,,,,,,,,,,,,60fde3934048d744f301ccb7,6103681652747e33664b3160,2021-07-29_22h47.36.832,Simcolourproject_2stim_asymm_v5,2020.2.10,MacIntel,60,61025ae37ef11b136ea224fe,,,,,,,,,654,43.7578125,22.25,1,0,0,response1disk,,6,-4.16796875,-12.15234375,1,0,0,rectangle,-4.16796875,-12.15234375,1,0,0,-4.16796875,-12.15234375,1,0,0,1,67,227,16,1,,,,,,,,
,,,,,,,,,,,,,FF,,,,,,,,0.88537,,,,,,,,,,,,,,,,,,,,,,60fde3934048d744f301ccb7,6103681652747e33664b3160,2021-07-29_22h47.36.832,Simcolourproject_2stim_asymm_v5,2020.2.10,MacIntel,60,61025ae37ef11b136ea224fe,,,,,,,,,3758,46.12890625,17.87890625,1,0,0,response1disk,,6,2.31640625,-7.75,1,0,0,rectangle,2.31640625,-7.75,1,0,0,2.31640625,-7.75,1,0,0,1,68,228,84,1,,,,,,,,
,,,,,,,,,,,,,FF,,,,,,,,0.81518,,,,,,,,,,,,,,,,,,,,,,60fde3934048d744f301ccb7,6103681652747e33664b3160,2021-07-29_22h47.36.832,Simcolourproject_2stim_asymm_v5,2020.2.10,MacIntel,60,61025ae37ef11b136ea224fe,,,,,,,,,295,75.40625,30.40625,1,0,0,response1disk,,6,17.109375,-1.16796875,1,0,0,rectangle,17.109375,-1.16796875,1,0,0,17.109375,-1.16796875,1,0,0,1,69,229,53,1,,,,,,,,
,,,,,,,,,,,,,FF,,,,,,,,1.283125,,,,,,,,,,,,,,,,,,,,,,60fde3934048d744f301ccb7,6103681652747e33664b3160,2021-07-29_22h47.36.832,Simcolourproject_2stim_asymm_v5,2020.2.10,MacIntel,60,61025ae37ef11b136ea224fe,,,,,,,,,3698,84.296875,-44.82421875,1,0,0,response3disk,,5,21.5,6.2265625,1,0,0,rectangle,21.5,6.2265625,1,0,0,21.5,6.2265625,1,0,0,1,70,230,152,1,,,,,,,,
,,,,,,,,,,,,,FF,,,,,,,,0.733685,,,,,,,,,,,,,,,,,,,,,,60fde3934048d744f301ccb7,6103681652747e33664b3160,2021-07-29_22h47.36.832,Simcolourproject_2stim_asymm_v5,2020.2.10,MacIntel,60,61025ae37ef11b136ea224fe,,,,,,,,,1414,80.24609375,38.58203125,1,0,0,response1disk,,6,10.7890625,-1.60546875,1,0,0,rectangle,10.7890625,-1.60546875,1,0,0,10.7890625,-1.60546875,1,0,0,1,71,231,80,1,,,,,,,,
,,,,,,,,,,,,,FF,,,,,,,,0.749985,,,,,,,,,,,,,,,,,,,,,,60fde3934048d744f301ccb7,6103681652747e33664b3160,2021-07-29_22h47.36.832,Simcolourproject_2stim_asymm_v5,2020.2.10,MacIntel,60,61025ae37ef11b136ea224fe,,,,,,,,,4271,41.14453125,61.22265625,1,0,0,response1disk,,7,15.0546875,6.82421875,1,0,0,rectangle,15.0546875,6.82421875,1,0,0,15.0546875,6.82421875,1,0,0,1,72,232,24,1,,,,,,,,
,,,,,,,,,,,,,FF,,,,,,,,0.999375,,,,,,,,,,,,,,,,,,,,,,60fde3934048d744f301ccb7,6103681652747e33664b3160,2021-07-29_22h47.36.832,Simcolourproject_2stim_asymm_v5,2020.2.10,MacIntel,60,61025ae37ef11b136ea224fe,,,,,,,,,3720,32.734375,57.91796875,1,0,0,response1disk,,7,9.59765625,2.75390625,1,0,0,rectangle,9.59765625,2.75390625,1,0,0,9.59765625,2.75390625,1,0,0,1,73,233,54,1,,,,,,,,
,,,,,,,,,,,,,FF,,,,,,,,1.499985,,,,,,,,,,,,,,,,,,,,,,60fde3934048d744f301ccb7,6103681652747e33664b3160,2021-07-29_22h47.36.832,Simcolourproject_2stim_asymm_v5,2020.2.10,MacIntel,60,61025ae37ef11b136ea224fe,,,,,,,,,1292,-46.98046875,-51.09765625,1,0,0,response5disk,,3,-2.33984375,15.22265625,1,0,0,rectangle,-42.5,-73.83203125,1,0,0,3.140625,-5.50390625,1,0,0,1,74,234,30,1,,response5disk_3,TRUE,3,3,"[29,64,33,195,21,263,220,64,23,89,122,275,82,308,99,168,35,235,118,217]",1.948645,rectangle
,,,,,,,,,,,,,FF,,,,,,,,1.082635,,,,,,,,,,,,,,,,,,,,,,60fde3934048d744f301ccb7,6103681652747e33664b3160,2021-07-29_22h47.36.832,Simcolourproject_2stim_asymm_v5,2020.2.10,MacIntel,60,61025ae37ef11b136ea224fe,,,,,,,,,3880,29.46875,-44.04296875,1,0,0,response3disk,,4,7.25390625,-2.65625,1,0,0,rectangle,7.25390625,-2.65625,1,0,0,7.25390625,-2.65625,1,0,0,1,75,235,141,1,,,,,,,,
,,,,,,,,,,,,,FF,,,,,,,,0.66687,,,,,,,,,,,,,,,,,,,,,,60fde3934048d744f301ccb7,6103681652747e33664b3160,2021-07-29_22h47.36.832,Simcolourproject_2stim_asymm_v5,2020.2.10,MacIntel,60,61025ae37ef11b136ea224fe,,,,,,,,,2822,47.734375,71.2734375,1,0,0,response1disk,,7,20.9921875,8.375,1,0,0,rectangle,20.9921875,8.375,1,0,0,20.9921875,8.375,1,0,0,1,76,236,142,1,,,,,,,,
,,,,,,,,,,,,,FF,,,,,,,,0.66657,,,,,,,,,,,,,,,,,,,,,,60fde3934048d744f301ccb7,6103681652747e33664b3160,2021-07-29_22h47.36.832,Simcolourproject_2stim_asymm_v5,2020.2.10,MacIntel,60,61025ae37ef11b136ea224fe,,,,,,,,,1261,51.328125,60.4765625,1,0,0,response1disk,,7,17.609375,0.85546875,1,0,0,rectangle,17.609375,0.85546875,1,0,0,17.609375,0.85546875,1,0,0,1,77,237,28,1,,,,,,,,
,,,,,,,,,,,,,FF,,,,,,,,0.616795,,,,,,,,,,,,,,,,,,,,,,60fde3934048d744f301ccb7,6103681652747e33664b3160,2021-07-29_22h47.36.832,Simcolourproject_2stim_asymm_v5,2020.2.10,MacIntel,60,61025ae37ef11b136ea224fe,,,,,,,,,1861,42.4609375,62.125,1,0,0,response1disk,,7,16.6953125,1.71875,1,0,0,rectangle,16.6953125,1.71875,1,0,0,16.6953125,1.71875,1,0,0,1,78,238,111,1,,,,,,,,
,,,,,,,,,,,,,FF,,,,,,,,0.93314,,,,,,,,,,,,,,,,,,,,,,60fde3934048d744f301ccb7,6103681652747e33664b3160,2021-07-29_22h47.36.832,Simcolourproject_2stim_asymm_v5,2020.2.10,MacIntel,60,61025ae37ef11b136ea224fe,,,,,,,,,3933,78.24609375,28.4453125,1,0,0,response1disk,,6,11.1640625,2.85546875,1,0,0,rectangle,11.1640625,2.85546875,1,0,0,11.1640625,2.85546875,1,0,0,1,79,239,10,1,,,,,,,,
,,,,,,,,,,,,,FF,,,,,,,,0.584325,,,,,,,,,,,,,,,,,,,,,,60fde3934048d744f301ccb7,6103681652747e33664b3160,2021-07-29_22h47.36.832,Simcolourproject_2stim_asymm_v5,2020.2.10,MacIntel,60,61025ae37ef11b136ea224fe,,,,,,,,,1732,36.0390625,67.4140625,1,0,0,response1disk,,7,4.5625,15.203125,1,0,0,rectangle,4.5625,15.203125,1,0,0,4.5625,15.203125,1,0,0,1,80,240,144,1,,,,,,,,
,,,,,,,,,,,,,FF,,,,,,,,0.66782,,,,,,,,,,,,,,,,,,,,,,60fde3934048d744f301ccb7,6103681652747e33664b3160,2021-07-29_22h47.36.832,Simcolourproject_2stim_asymm_v5,2020.2.10,MacIntel,60,61025ae37ef11b136ea224fe,,,,,,,,,183,31.296875,58.53125,1,0,0,response1disk,,7,2.1875,-5.234375,1,0,0,rectangle,2.1875,-5.234375,1,0,0,2.1875,-5.234375,1,0,0,1,81,241,71,1,,,,,,,,
,,,,,,,,,,,,,FF,,,,,,,,0.86547,,,,,,,,,,,,,,,,,,,,,,60fde3934048d744f301ccb7,6103681652747e33664b3160,2021-07-29_22h47.36.832,Simcolourproject_2stim_asymm_v5,2020.2.10,MacIntel,60,61025ae37ef11b136ea224fe,,,,,,,,,3468,-73.12109375,30.4375,1,0,0,response7disk,,1,5.74609375,6.52734375,1,0,0,rectangle,5.74609375,6.52734375,1,0,0,5.74609375,6.52734375,1,0,0,1,82,242,32,1,,,,,,,,
,,,,,,,,,,,,,FF,,,,,,,,0.767745,,,,,,,,,,,,,,,,,,,,,,60fde3934048d744f301ccb7,6103681652747e33664b3160,2021-07-29_22h47.36.832,Simcolourproject_2stim_asymm_v5,2020.2.10,MacIntel,60,61025ae37ef11b136ea224fe,,,,,,,,,3149,-55.203125,-28.9609375,1,0,0,response5disk,,2,-10.87890625,-3.9296875,1,0,0,rectangle,-10.87890625,-3.9296875,1,0,0,-10.87890625,-3.9296875,1,0,0,1,83,243,89,1,,,,,,,,
,,,,,,,,,,,,,FF,,,,,,,,2.083365,,,,,,,,,,,,,,,,,,,,,,60fde3934048d744f301ccb7,6103681652747e33664b3160,2021-07-29_22h47.36.832,Simcolourproject_2stim_asymm_v5,2020.2.10,MacIntel,60,61025ae37ef11b136ea224fe,,,,,,,,,1246,107.6601563,-27.9140625,1,0,0,response3disk,,5,18.9375,11.9140625,1,0,0,rectangle,18.9375,11.9140625,1,0,0,18.9375,11.9140625,1,0,0,1,84,244,102,1,,,,,,,,
,,,,,,,,,,,,,FF,,,,,,,,0.98404,,,,,,,,,,,,,,,,,,,,,,60fde3934048d744f301ccb7,6103681652747e33664b3160,2021-07-29_22h47.36.832,Simcolourproject_2stim_asymm_v5,2020.2.10,MacIntel,60,61025ae37ef11b136ea224fe,,,,,,,,,2629,67.5390625,-22.796875,1,0,0,response3disk,,5,-0.11328125,11.9140625,1,0,0,rectangle,-0.11328125,11.9140625,1,0,0,-0.11328125,11.9140625,1,0,0,1,85,245,127,1,,,,,,,,
,,,,,,,,,,,,,FF,,,,,,,,0.61529,,,,,,,,,,,,,,,,,,,,,,60fde3934048d744f301ccb7,6103681652747e33664b3160,2021-07-29_22h47.36.832,Simcolourproject_2stim_asymm_v5,2020.2.10,MacIntel,60,61025ae37ef11b136ea224fe,,,,,,,,,2464,34.3984375,75.61328125,1,0,0,response1disk,,7,8.421875,2.10546875,1,0,0,rectangle,8.421875,2.10546875,1,0,0,8.421875,2.10546875,1,0,0,1,86,246,77,1,,,,,,,,
