key_resp.keys,key_resp.rt,key_resp_14.keys,key_resp_14.rt,key_resp_15.keys,key_resp_15.rt,key_resp_17.keys,key_resp_17.rt,key_resp_9.keys,key_resp_9.rt,key_resp_10.keys,key_resp_10.rt,practice_comparison,Ecc,mouse_5.x,mouse_5.y,mouse_5.leftButton,mouse_5.midButton,mouse_5.rightButton,mouse_5.clicked_name,pracsimilarity,response_time,mouse_10.x,mouse_10.y,mouse_10.leftButton,mouse_10.midButton,mouse_10.rightButton,mouse_10.clicked_name,mouse_7.x,mouse_7.y,mouse_7.leftButton,mouse_7.midButton,mouse_7.rightButton,mouse_6.x,mouse_6.y,mouse_6.leftButton,mouse_6.midButton,mouse_6.rightButton,duringprac.thisRepN,duringprac.thisTrialN,duringprac.thisN,duringprac.thisIndex,duringprac.ran,participant,session,date,expName,psychopyVersion,OS,frameRate,study_id,mouse_7.clicked_name,catchpracsimilarity,catch_response_time,catchnumberprac,catchtrialorderprac,mouse_6.clicked_name,key_resp_22.keys,key_resp_22.rt,realcomparison,mouse.x,mouse.y,mouse.leftButton,mouse.midButton,mouse.rightButton,mouse.clicked_name,Colour2,similarity,mouse_2.x,mouse_2.y,mouse_2.leftButton,mouse_2.midButton,mouse_2.rightButton,mouse_2.clicked_name,mouse_3.x,mouse_3.y,mouse_3.leftButton,mouse_3.midButton,mouse_3.rightButton,mouse_11.x,mouse_11.y,mouse_11.leftButton,mouse_11.midButton,mouse_11.rightButton,trials_2.thisRepN,trials_2.thisTrialN,trials_2.thisN,trials_2.thisIndex,trials_2.ran,Colour1,mouse_3.clicked_name,catchornah,catchsimilarity,catchnumber,catchtrialorder,catchRT,mouse_11.clicked_name
space,1.5741,space,69.9514,space,61.7136,space,30.0197,space,4.3338,space,9.1946,121,PF,27,61,1,0,0,response1disk_5,7,9.4416,1,2,1,0,0,rectangle_8,1,2,1,0,0,1,2,1,0,0,0,0,0,4,1,60fd54dcb1e2c1c546aa86b3,6103651d804dea9511c5231d,2021-07-30_12h47.26.040,Simcolourproject_2stim_asymm_v5,2020.2.10,Win32,60,61025ae37ef11b136ea224fe,,,,,,,,,,,,,,,,,,,,,,,,,,,,,,,,,,,,,,,,,,,,,,
,,,,,,,,,,,,28,PF,77,-56,1,0,0,response3disk_5,5,4.5302,1,-2,1,0,0,rectangle_8,-85,-34,1,0,0,6,1,1,0,0,0,1,1,6,1,60fd54dcb1e2c1c546aa86b3,6103651d804dea9511c5231d,2021-07-30_12h47.26.040,Simcolourproject_2stim_asymm_v5,2020.2.10,Win32,60,61025ae37ef11b136ea224fe,response5disk_7,2,9.4295,2,"[2,5]",rectangle_4,,,,,,,,,,,,,,,,,,,,,,,,,,,,,,,,,,,,,,,,
,,,,,,,,,,,,94,FF,42,-97,1,0,0,response3disk_5,4,8.6149,-8,-1,1,0,0,rectangle_8,-8,-1,1,0,0,-8,-1,1,0,0,0,2,2,0,1,60fd54dcb1e2c1c546aa86b3,6103651d804dea9511c5231d,2021-07-30_12h47.26.040,Simcolourproject_2stim_asymm_v5,2020.2.10,Win32,60,61025ae37ef11b136ea224fe,,,,,,,,,,,,,,,,,,,,,,,,,,,,,,,,,,,,,,,,,,,,,,
,,,,,,,,,,,,43,PF,89,48,1,0,0,response1disk_5,6,7.0765,0,-3,1,0,0,rectangle_8,0,-3,1,0,0,0,-3,1,0,0,0,3,3,1,1,60fd54dcb1e2c1c546aa86b3,6103651d804dea9511c5231d,2021-07-30_12h47.26.040,Simcolourproject_2stim_asymm_v5,2020.2.10,Win32,60,61025ae37ef11b136ea224fe,,,,,,,,,,,,,,,,,,,,,,,,,,,,,,,,,,,,,,,,,,,,,,
,,,,,,,,,,,,46,PF,-86,-34,1,0,0,response5disk_5,2,4.079,-1,9,1,0,0,rectangle_8,-83,-34,1,0,0,-5,0,1,0,0,0,4,4,2,1,60fd54dcb1e2c1c546aa86b3,6103651d804dea9511c5231d,2021-07-30_12h47.26.040,Simcolourproject_2stim_asymm_v5,2020.2.10,Win32,60,61025ae37ef11b136ea224fe,response5disk_7,2,4.7815,2,"[2,5]",rectangle_4,,,,,,,,,,,,,,,,,,,,,,,,,,,,,,,,,,,,,,,,
,,,,,,,,,,,,137,FF,-49,-75,1,0,0,response5disk_5,3,3.8144,-3,7,1,0,0,rectangle_8,-3,7,1,0,0,-3,7,1,0,0,0,5,5,3,1,60fd54dcb1e2c1c546aa86b3,6103651d804dea9511c5231d,2021-07-30_12h47.26.040,Simcolourproject_2stim_asymm_v5,2020.2.10,Win32,60,61025ae37ef11b136ea224fe,,,,,,,,,,,,,,,,,,,,,,,,,,,,,,,,,,,,,,,,,,,,,,
,,,,,,,,,,,,142,FF,31,-81,1,0,0,response3disk_5,4,4.1627,0,-2,1,0,0,rectangle_8,0,-2,1,0,0,0,-2,1,0,0,0,6,6,5,1,60fd54dcb1e2c1c546aa86b3,6103651d804dea9511c5231d,2021-07-30_12h47.26.040,Simcolourproject_2stim_asymm_v5,2020.2.10,Win32,60,61025ae37ef11b136ea224fe,,,,,,,,,,,,,,,,,,,,,,,,,,,,,,,,,,,,,,,,,,,,,,
,,,,,,,,,,,,,FF,,,,,,,,8.0599,,,,,,,,,,,,,,,,,,,,,,60fd54dcb1e2c1c546aa86b3,6103651d804dea9511c5231d,2021-07-30_12h47.26.040,Simcolourproject_2stim_asymm_v5,2020.2.10,Win32,60,61025ae37ef11b136ea224fe,,,,,,,space,33.9509,2273,77,-39,1,0,0,response3disk,,5,-3,0,1,0,0,rectangle,-3,0,1,0,0,-3,0,1,0,0,0,0,0,140,1,,,,,,,,
,,,,,,,,,,,,,FF,,,,,,,,4.4634,,,,,,,,,,,,,,,,,,,,,,60fd54dcb1e2c1c546aa86b3,6103651d804dea9511c5231d,2021-07-30_12h47.26.040,Simcolourproject_2stim_asymm_v5,2020.2.10,Win32,60,61025ae37ef11b136ea224fe,,,,,,,,,3037,-83,-31,1,0,0,response5disk,,2,0,4,1,0,0,rectangle,0,4,1,0,0,0,4,1,0,0,0,1,1,116,1,,,,,,,,
,,,,,,,,,,,,,FF,,,,,,,,2.3317,,,,,,,,,,,,,,,,,,,,,,60fd54dcb1e2c1c546aa86b3,6103651d804dea9511c5231d,2021-07-30_12h47.26.040,Simcolourproject_2stim_asymm_v5,2020.2.10,Win32,60,61025ae37ef11b136ea224fe,,,,,,,,,2771,-26,-101,1,0,0,response5disk,,3,-2,-8,1,0,0,rectangle,-2,-8,1,0,0,-2,-8,1,0,0,0,2,2,37,1,,,,,,,,
,,,,,,,,,,,,,FF,,,,,,,,3.7648,,,,,,,,,,,,,,,,,,,,,,60fd54dcb1e2c1c546aa86b3,6103651d804dea9511c5231d,2021-07-30_12h47.26.040,Simcolourproject_2stim_asymm_v5,2020.2.10,Win32,60,61025ae37ef11b136ea224fe,,,,,,,,,116,72,48,1,0,0,response1disk,,6,5,6,1,0,0,rectangle,5,6,1,0,0,5,6,1,0,0,0,3,3,44,1,,,,,,,,
,,,,,,,,,,,,,FF,,,,,,,,3.1499,,,,,,,,,,,,,,,,,,,,,,60fd54dcb1e2c1c546aa86b3,6103651d804dea9511c5231d,2021-07-30_12h47.26.040,Simcolourproject_2stim_asymm_v5,2020.2.10,Win32,60,61025ae37ef11b136ea224fe,,,,,,,,,4038,54,-30,1,0,0,response3disk,,5,18,-4,1,0,0,rectangle,18,-4,1,0,0,18,-4,1,0,0,0,4,4,34,1,,,,,,,,
,,,,,,,,,,,,,FF,,,,,,,,3.6637,,,,,,,,,,,,,,,,,,,,,,60fd54dcb1e2c1c546aa86b3,6103651d804dea9511c5231d,2021-07-30_12h47.26.040,Simcolourproject_2stim_asymm_v5,2020.2.10,Win32,60,61025ae37ef11b136ea224fe,,,,,,,,,1945,75,-32,1,0,0,response3disk,,5,8,5,1,0,0,rectangle,8,5,1,0,0,8,5,1,0,0,0,5,5,98,1,,,,,,,,
,,,,,,,,,,,,,FF,,,,,,,,2.7974,,,,,,,,,,,,,,,,,,,,,,60fd54dcb1e2c1c546aa86b3,6103651d804dea9511c5231d,2021-07-30_12h47.26.040,Simcolourproject_2stim_asymm_v5,2020.2.10,Win32,60,61025ae37ef11b136ea224fe,,,,,,,,,2677,-49,-96,1,0,0,response5disk,,3,-4,7,1,0,0,rectangle,-86,38,1,0,0,-3,-6,1,0,0,0,6,6,16,1,,response7disk_3,TRUE,1,1,"[7,122,103,200,70,305,247,33,218,32,286,221,59,271,53,226,127,97,147,122]",2.6825,rectangle
,,,,,,,,,,,,,FF,,,,,,,,4.4469,,,,,,,,,,,,,,,,,,,,,,60fd54dcb1e2c1c546aa86b3,6103651d804dea9511c5231d,2021-07-30_12h47.26.040,Simcolourproject_2stim_asymm_v5,2020.2.10,Win32,60,61025ae37ef11b136ea224fe,,,,,,,,,988,-48,-85,1,0,0,response5disk,,3,-2,4,1,0,0,rectangle,-2,4,1,0,0,-2,4,1,0,0,0,7,7,15,1,,,,,,,,
,,,,,,,,,,,,,FF,,,,,,,,3.9133,,,,,,,,,,,,,,,,,,,,,,60fd54dcb1e2c1c546aa86b3,6103651d804dea9511c5231d,2021-07-30_12h47.26.040,Simcolourproject_2stim_asymm_v5,2020.2.10,Win32,60,61025ae37ef11b136ea224fe,,,,,,,,,2480,-44,89,1,0,0,response7disk,,0,2,-9,1,0,0,rectangle,2,-9,1,0,0,2,-9,1,0,0,0,8,8,103,1,,,,,,,,
,,,,,,,,,,,,,FF,,,,,,,,6.6951,,,,,,,,,,,,,,,,,,,,,,60fd54dcb1e2c1c546aa86b3,6103651d804dea9511c5231d,2021-07-30_12h47.26.040,Simcolourproject_2stim_asymm_v5,2020.2.10,Win32,60,61025ae37ef11b136ea224fe,,,,,,,,,3460,54,-61,1,0,0,response3disk,,4,5,3,1,0,0,rectangle,5,3,1,0,0,5,3,1,0,0,0,9,9,49,1,,,,,,,,
,,,,,,,,,,,,,FF,,,,,,,,3.0318,,,,,,,,,,,,,,,,,,,,,,60fd54dcb1e2c1c546aa86b3,6103651d804dea9511c5231d,2021-07-30_12h47.26.040,Simcolourproject_2stim_asymm_v5,2020.2.10,Win32,60,61025ae37ef11b136ea224fe,,,,,,,,,3580,40,-79,1,0,0,response3disk,,4,-1,-1,1,0,0,rectangle,-1,-1,1,0,0,-1,-1,1,0,0,0,10,10,129,1,,,,,,,,
,,,,,,,,,,,,,FF,,,,,,,,2.6491,,,,,,,,,,,,,,,,,,,,,,60fd54dcb1e2c1c546aa86b3,6103651d804dea9511c5231d,2021-07-30_12h47.26.040,Simcolourproject_2stim_asymm_v5,2020.2.10,Win32,60,61025ae37ef11b136ea224fe,,,,,,,,,1209,64,-36,1,0,0,response3disk,,5,8,-5,1,0,0,rectangle,8,-5,1,0,0,8,-5,1,0,0,0,11,11,146,1,,,,,,,,
,,,,,,,,,,,,,FF,,,,,,,,7.2607,,,,,,,,,,,,,,,,,,,,,,60fd54dcb1e2c1c546aa86b3,6103651d804dea9511c5231d,2021-07-30_12h47.26.040,Simcolourproject_2stim_asymm_v5,2020.2.10,Win32,60,61025ae37ef11b136ea224fe,,,,,,,,,3922,-47,-81,1,0,0,response5disk,,3,8,-2,1,0,0,rectangle,8,-2,1,0,0,8,-2,1,0,0,0,12,12,67,1,,,,,,,,
,,,,,,,,,,,,,FF,,,,,,,,1.5651,,,,,,,,,,,,,,,,,,,,,,60fd54dcb1e2c1c546aa86b3,6103651d804dea9511c5231d,2021-07-30_12h47.26.040,Simcolourproject_2stim_asymm_v5,2020.2.10,Win32,60,61025ae37ef11b136ea224fe,,,,,,,,,60,48,-77,1,0,0,response3disk,,4,1,-3,1,0,0,rectangle,1,-3,1,0,0,1,-3,1,0,0,0,13,13,106,1,,,,,,,,
,,,,,,,,,,,,,FF,,,,,,,,4.6469,,,,,,,,,,,,,,,,,,,,,,60fd54dcb1e2c1c546aa86b3,6103651d804dea9511c5231d,2021-07-30_12h47.26.040,Simcolourproject_2stim_asymm_v5,2020.2.10,Win32,60,61025ae37ef11b136ea224fe,,,,,,,,,701,25,-91,1,0,0,response3disk,,4,-8,-8,1,0,0,rectangle,-8,-8,1,0,0,-8,-8,1,0,0,0,14,14,2,1,,,,,,,,
,,,,,,,,,,,,,FF,,,,,,,,4.2804,,,,,,,,,,,,,,,,,,,,,,60fd54dcb1e2c1c546aa86b3,6103651d804dea9511c5231d,2021-07-30_12h47.26.040,Simcolourproject_2stim_asymm_v5,2020.2.10,Win32,60,61025ae37ef11b136ea224fe,,,,,,,,,1106,61,27,1,0,0,response1disk,,6,20,7,1,0,0,rectangle,20,7,1,0,0,20,7,1,0,0,0,15,15,99,1,,,,,,,,
,,,,,,,,,,,,,FF,,,,,,,,1.7148,,,,,,,,,,,,,,,,,,,,,,60fd54dcb1e2c1c546aa86b3,6103651d804dea9511c5231d,2021-07-30_12h47.26.040,Simcolourproject_2stim_asymm_v5,2020.2.10,Win32,60,61025ae37ef11b136ea224fe,,,,,,,,,3107,-87,-54,1,0,0,response5disk,,2,-13,-1,1,0,0,rectangle,-13,-1,1,0,0,-13,-1,1,0,0,0,16,16,142,1,,,,,,,,
,,,,,,,,,,,,,FF,,,,,,,,2.8321,,,,,,,,,,,,,,,,,,,,,,60fd54dcb1e2c1c546aa86b3,6103651d804dea9511c5231d,2021-07-30_12h47.26.040,Simcolourproject_2stim_asymm_v5,2020.2.10,Win32,60,61025ae37ef11b136ea224fe,,,,,,,,,757,45,-75,1,0,0,response3disk,,4,1,4,1,0,0,rectangle,1,4,1,0,0,1,4,1,0,0,0,17,17,137,1,,,,,,,,
,,,,,,,,,,,,,FF,,,,,,,,6.3975,,,,,,,,,,,,,,,,,,,,,,60fd54dcb1e2c1c546aa86b3,6103651d804dea9511c5231d,2021-07-30_12h47.26.040,Simcolourproject_2stim_asymm_v5,2020.2.10,Win32,60,61025ae37ef11b136ea224fe,,,,,,,,,662,71,-51,1,0,0,response3disk,,5,8,-5,1,0,0,rectangle,8,-5,1,0,0,8,-5,1,0,0,0,18,18,154,1,,,,,,,,
,,,,,,,,,,,,,FF,,,,,,,,3.3141,,,,,,,,,,,,,,,,,,,,,,60fd54dcb1e2c1c546aa86b3,6103651d804dea9511c5231d,2021-07-30_12h47.26.040,Simcolourproject_2stim_asymm_v5,2020.2.10,Win32,60,61025ae37ef11b136ea224fe,,,,,,,,,3190,-24,-71,1,0,0,response5disk,,3,0,-2,1,0,0,rectangle,0,-2,1,0,0,0,-2,1,0,0,0,19,19,111,1,,,,,,,,
,,,,,,,,,,,,,FF,,,,,,,,1.382,,,,,,,,,,,,,,,,,,,,,,60fd54dcb1e2c1c546aa86b3,6103651d804dea9511c5231d,2021-07-30_12h47.26.040,Simcolourproject_2stim_asymm_v5,2020.2.10,Win32,60,61025ae37ef11b136ea224fe,,,,,,,,,1147,-43,-86,1,0,0,response5disk,,3,6,7,1,0,0,rectangle,6,7,1,0,0,6,7,1,0,0,0,20,20,65,1,,,,,,,,
,,,,,,,,,,,,,FF,,,,,,,,2.033,,,,,,,,,,,,,,,,,,,,,,60fd54dcb1e2c1c546aa86b3,6103651d804dea9511c5231d,2021-07-30_12h47.26.040,Simcolourproject_2stim_asymm_v5,2020.2.10,Win32,60,61025ae37ef11b136ea224fe,,,,,,,,,3758,31,-104,1,0,0,response3disk,,4,6,-2,1,0,0,rectangle,6,-2,1,0,0,6,-2,1,0,0,0,21,21,6,1,,,,,,,,
,,,,,,,,,,,,,FF,,,,,,,,2.8829,,,,,,,,,,,,,,,,,,,,,,60fd54dcb1e2c1c546aa86b3,6103651d804dea9511c5231d,2021-07-30_12h47.26.040,Simcolourproject_2stim_asymm_v5,2020.2.10,Win32,60,61025ae37ef11b136ea224fe,,,,,,,,,2731,53,-82,1,0,0,response3disk,,4,1,2,1,0,0,rectangle,1,2,1,0,0,1,2,1,0,0,0,22,22,10,1,,,,,,,,
,,,,,,,,,,,,,FF,,,,,,,,2.399,,,,,,,,,,,,,,,,,,,,,,60fd54dcb1e2c1c546aa86b3,6103651d804dea9511c5231d,2021-07-30_12h47.26.040,Simcolourproject_2stim_asymm_v5,2020.2.10,Win32,60,61025ae37ef11b136ea224fe,,,,,,,,,2215,88,62,1,0,0,response1disk,,6,0,0,1,0,0,rectangle,0,0,1,0,0,0,0,1,0,0,0,23,23,4,1,,,,,,,,
,,,,,,,,,,,,,FF,,,,,,,,2.1144,,,,,,,,,,,,,,,,,,,,,,60fd54dcb1e2c1c546aa86b3,6103651d804dea9511c5231d,2021-07-30_12h47.26.040,Simcolourproject_2stim_asymm_v5,2020.2.10,Win32,60,61025ae37ef11b136ea224fe,,,,,,,,,1349,69,-40,1,0,0,response3disk,,5,-4,8,1,0,0,rectangle,-4,8,1,0,0,-4,8,1,0,0,0,24,24,36,1,,,,,,,,
,,,,,,,,,,,,,FF,,,,,,,,1.4315,,,,,,,,,,,,,,,,,,,,,,60fd54dcb1e2c1c546aa86b3,6103651d804dea9511c5231d,2021-07-30_12h47.26.040,Simcolourproject_2stim_asymm_v5,2020.2.10,Win32,60,61025ae37ef11b136ea224fe,,,,,,,,,214,52,-36,1,0,0,response3disk,,5,9,-8,1,0,0,rectangle,9,-8,1,0,0,9,-8,1,0,0,0,25,25,25,1,,,,,,,,
,,,,,,,,,,,,,FF,,,,,,,,2.329,,,,,,,,,,,,,,,,,,,,,,60fd54dcb1e2c1c546aa86b3,6103651d804dea9511c5231d,2021-07-30_12h47.26.040,Simcolourproject_2stim_asymm_v5,2020.2.10,Win32,60,61025ae37ef11b136ea224fe,,,,,,,,,208,20,-43,1,0,0,response3disk,,4,-13,4,1,0,0,rectangle,-13,4,1,0,0,-13,4,1,0,0,0,26,26,45,1,,,,,,,,
,,,,,,,,,,,,,FF,,,,,,,,2.8663,,,,,,,,,,,,,,,,,,,,,,60fd54dcb1e2c1c546aa86b3,6103651d804dea9511c5231d,2021-07-30_12h47.26.040,Simcolourproject_2stim_asymm_v5,2020.2.10,Win32,60,61025ae37ef11b136ea224fe,,,,,,,,,852,81,41,1,0,0,response1disk,,6,7,7,1,0,0,rectangle,7,7,1,0,0,7,7,1,0,0,0,27,27,30,1,,,,,,,,
,,,,,,,,,,,,,FF,,,,,,,,1.6838,,,,,,,,,,,,,,,,,,,,,,60fd54dcb1e2c1c546aa86b3,6103651d804dea9511c5231d,2021-07-30_12h47.26.040,Simcolourproject_2stim_asymm_v5,2020.2.10,Win32,60,61025ae37ef11b136ea224fe,,,,,,,,,733,89,28,1,0,0,response1disk,,6,1,-8,1,0,0,rectangle,1,-8,1,0,0,1,-8,1,0,0,0,28,28,151,1,,,,,,,,
,,,,,,,,,,,,,FF,,,,,,,,1.8483,,,,,,,,,,,,,,,,,,,,,,60fd54dcb1e2c1c546aa86b3,6103651d804dea9511c5231d,2021-07-30_12h47.26.040,Simcolourproject_2stim_asymm_v5,2020.2.10,Win32,60,61025ae37ef11b136ea224fe,,,,,,,,,991,77,-42,1,0,0,response3disk,,5,3,6,1,0,0,rectangle,3,6,1,0,0,3,6,1,0,0,0,29,29,122,1,,,,,,,,
,,,,,,,,,,,,,FF,,,,,,,,1.6004,,,,,,,,,,,,,,,,,,,,,,60fd54dcb1e2c1c546aa86b3,6103651d804dea9511c5231d,2021-07-30_12h47.26.040,Simcolourproject_2stim_asymm_v5,2020.2.10,Win32,60,61025ae37ef11b136ea224fe,,,,,,,,,2097,-88,-54,1,0,0,response5disk,,2,7,7,1,0,0,rectangle,7,7,1,0,0,7,7,1,0,0,0,30,30,147,1,,,,,,,,
,,,,,,,,,,,,,FF,,,,,,,,1.6665,,,,,,,,,,,,,,,,,,,,,,60fd54dcb1e2c1c546aa86b3,6103651d804dea9511c5231d,2021-07-30_12h47.26.040,Simcolourproject_2stim_asymm_v5,2020.2.10,Win32,60,61025ae37ef11b136ea224fe,,,,,,,,,2904,36,-97,1,0,0,response3disk,,4,-5,-8,1,0,0,rectangle,42,-102,1,0,0,-2,7,1,0,0,0,31,31,38,1,,response3disk_3,TRUE,4,4,"[7,122,103,200,70,305,247,33,218,32,286,221,59,271,53,226,127,97,147,122]",2.9808,rectangle
,,,,,,,,,,,,,FF,,,,,,,,4.7822,,,,,,,,,,,,,,,,,,,,,,60fd54dcb1e2c1c546aa86b3,6103651d804dea9511c5231d,2021-07-30_12h47.26.040,Simcolourproject_2stim_asymm_v5,2020.2.10,Win32,60,61025ae37ef11b136ea224fe,,,,,,,,,1206,100,-35,1,0,0,response3disk,,5,-1,7,1,0,0,rectangle,-85,35,1,0,0,-3,-5,1,0,0,0,32,32,53,1,,response7disk_3,TRUE,1,1,"[7,122,103,200,70,305,247,33,218,32,286,221,59,271,53,226,127,97,147,122]",2.3638,rectangle
,,,,,,,,,,,,,FF,,,,,,,,1.4993,,,,,,,,,,,,,,,,,,,,,,60fd54dcb1e2c1c546aa86b3,6103651d804dea9511c5231d,2021-07-30_12h47.26.040,Simcolourproject_2stim_asymm_v5,2020.2.10,Win32,60,61025ae37ef11b136ea224fe,,,,,,,,,2000,60,-25,1,0,0,response3disk,,5,-2,2,1,0,0,rectangle,-2,2,1,0,0,-2,2,1,0,0,0,33,33,7,1,,,,,,,,
,,,,,,,,,,,,,FF,,,,,,,,1.367,,,,,,,,,,,,,,,,,,,,,,60fd54dcb1e2c1c546aa86b3,6103651d804dea9511c5231d,2021-07-30_12h47.26.040,Simcolourproject_2stim_asymm_v5,2020.2.10,Win32,60,61025ae37ef11b136ea224fe,,,,,,,,,3243,-64,86,1,0,0,response7disk,,0,-1,0,1,0,0,rectangle,-1,0,1,0,0,-1,0,1,0,0,0,34,34,80,1,,,,,,,,
,,,,,,,,,,,,,FF,,,,,,,,4.0154,,,,,,,,,,,,,,,,,,,,,,60fd54dcb1e2c1c546aa86b3,6103651d804dea9511c5231d,2021-07-30_12h47.26.040,Simcolourproject_2stim_asymm_v5,2020.2.10,Win32,60,61025ae37ef11b136ea224fe,,,,,,,,,1047,42,-92,1,0,0,response3disk,,4,-2,2,1,0,0,rectangle,-2,2,1,0,0,-2,2,1,0,0,0,35,35,0,1,,,,,,,,
,,,,,,,,,,,,,FF,,,,,,,,1.7815,,,,,,,,,,,,,,,,,,,,,,60fd54dcb1e2c1c546aa86b3,6103651d804dea9511c5231d,2021-07-30_12h47.26.040,Simcolourproject_2stim_asymm_v5,2020.2.10,Win32,60,61025ae37ef11b136ea224fe,,,,,,,,,596,98,55,1,0,0,response1disk,,6,6,15,1,0,0,rectangle,6,15,1,0,0,6,15,1,0,0,0,36,36,41,1,,,,,,,,
,,,,,,,,,,,,,FF,,,,,,,,1.2166,,,,,,,,,,,,,,,,,,,,,,60fd54dcb1e2c1c546aa86b3,6103651d804dea9511c5231d,2021-07-30_12h47.26.040,Simcolourproject_2stim_asymm_v5,2020.2.10,Win32,60,61025ae37ef11b136ea224fe,,,,,,,,,317,59,34,1,0,0,response1disk,,6,-1,-5,1,0,0,rectangle,-1,-5,1,0,0,-1,-5,1,0,0,0,37,37,89,1,,,,,,,,
,,,,,,,,,,,,,FF,,,,,,,,2.5817,,,,,,,,,,,,,,,,,,,,,,60fd54dcb1e2c1c546aa86b3,6103651d804dea9511c5231d,2021-07-30_12h47.26.040,Simcolourproject_2stim_asymm_v5,2020.2.10,Win32,60,61025ae37ef11b136ea224fe,,,,,,,,,1625,26,-98,1,0,0,response3disk,,4,2,-5,1,0,0,rectangle,2,-5,1,0,0,2,-5,1,0,0,0,38,38,125,1,,,,,,,,
,,,,,,,,,,,,,FF,,,,,,,,2.1502,,,,,,,,,,,,,,,,,,,,,,60fd54dcb1e2c1c546aa86b3,6103651d804dea9511c5231d,2021-07-30_12h47.26.040,Simcolourproject_2stim_asymm_v5,2020.2.10,Win32,60,61025ae37ef11b136ea224fe,,,,,,,,,3722,-41,-80,1,0,0,response5disk,,3,4,0,1,0,0,rectangle,4,0,1,0,0,4,0,1,0,0,0,39,39,128,1,,,,,,,,
,,,,,,,,,,,,,FF,,,,,,,,1.1531,,,,,,,,,,,,,,,,,,,,,,60fd54dcb1e2c1c546aa86b3,6103651d804dea9511c5231d,2021-07-30_12h47.26.040,Simcolourproject_2stim_asymm_v5,2020.2.10,Win32,60,61025ae37ef11b136ea224fe,,,,,,,,,1159,39,-99,1,0,0,response3disk,,4,-3,-4,1,0,0,rectangle,-3,-4,1,0,0,-3,-4,1,0,0,0,40,40,93,1,,,,,,,,
,,,,,,,,,,,,,FF,,,,,,,,1.4175,,,,,,,,,,,,,,,,,,,,,,60fd54dcb1e2c1c546aa86b3,6103651d804dea9511c5231d,2021-07-30_12h47.26.040,Simcolourproject_2stim_asymm_v5,2020.2.10,Win32,60,61025ae37ef11b136ea224fe,,,,,,,,,4027,-81,34,1,0,0,response7disk,,1,4,-7,1,0,0,rectangle,4,-7,1,0,0,4,-7,1,0,0,0,41,41,101,1,,,,,,,,
,,,,,,,,,,,,,FF,,,,,,,,1.5525,,,,,,,,,,,,,,,,,,,,,,60fd54dcb1e2c1c546aa86b3,6103651d804dea9511c5231d,2021-07-30_12h47.26.040,Simcolourproject_2stim_asymm_v5,2020.2.10,Win32,60,61025ae37ef11b136ea224fe,,,,,,,,,2232,-28,-100,1,0,0,response5disk,,3,5,-7,1,0,0,rectangle,5,-7,1,0,0,5,-7,1,0,0,0,42,42,117,1,,,,,,,,
,,,,,,,,,,,,,FF,,,,,,,,1.8865,,,,,,,,,,,,,,,,,,,,,,60fd54dcb1e2c1c546aa86b3,6103651d804dea9511c5231d,2021-07-30_12h47.26.040,Simcolourproject_2stim_asymm_v5,2020.2.10,Win32,60,61025ae37ef11b136ea224fe,,,,,,,,,4276,60,-66,1,0,0,response3disk,,4,3,-3,1,0,0,rectangle,3,-3,1,0,0,3,-3,1,0,0,0,43,43,83,1,,,,,,,,
,,,,,,,,,,,,,FF,,,,,,,,1.6351,,,,,,,,,,,,,,,,,,,,,,60fd54dcb1e2c1c546aa86b3,6103651d804dea9511c5231d,2021-07-30_12h47.26.040,Simcolourproject_2stim_asymm_v5,2020.2.10,Win32,60,61025ae37ef11b136ea224fe,,,,,,,,,416,83,26,1,0,0,response1disk,,6,1,-5,1,0,0,rectangle,1,-5,1,0,0,1,-5,1,0,0,0,44,44,95,1,,,,,,,,
,,,,,,,,,,,,,FF,,,,,,,,1.9816,,,,,,,,,,,,,,,,,,,,,,60fd54dcb1e2c1c546aa86b3,6103651d804dea9511c5231d,2021-07-30_12h47.26.040,Simcolourproject_2stim_asymm_v5,2020.2.10,Win32,60,61025ae37ef11b136ea224fe,,,,,,,,,3154,-95,-74,1,0,0,response5disk,,2,6,0,1,0,0,rectangle,6,0,1,0,0,6,0,1,0,0,0,45,45,48,1,,,,,,,,
,,,,,,,,,,,,,FF,,,,,,,,1.9015,,,,,,,,,,,,,,,,,,,,,,60fd54dcb1e2c1c546aa86b3,6103651d804dea9511c5231d,2021-07-30_12h47.26.040,Simcolourproject_2stim_asymm_v5,2020.2.10,Win32,60,61025ae37ef11b136ea224fe,,,,,,,,,2427,30,-105,1,0,0,response3disk,,4,-2,10,1,0,0,rectangle,-2,10,1,0,0,-2,10,1,0,0,0,46,46,82,1,,,,,,,,
,,,,,,,,,,,,,FF,,,,,,,,3.0961,,,,,,,,,,,,,,,,,,,,,,60fd54dcb1e2c1c546aa86b3,6103651d804dea9511c5231d,2021-07-30_12h47.26.040,Simcolourproject_2stim_asymm_v5,2020.2.10,Win32,60,61025ae37ef11b136ea224fe,,,,,,,,,90,86,-34,1,0,0,response3disk,,5,-6,6,1,0,0,rectangle,-6,6,1,0,0,-6,6,1,0,0,0,47,47,97,1,,,,,,,,
,,,,,,,,,,,,,FF,,,,,,,,1.287,,,,,,,,,,,,,,,,,,,,,,60fd54dcb1e2c1c546aa86b3,6103651d804dea9511c5231d,2021-07-30_12h47.26.040,Simcolourproject_2stim_asymm_v5,2020.2.10,Win32,60,61025ae37ef11b136ea224fe,,,,,,,,,2428,45,-79,1,0,0,response3disk,,4,1,-3,1,0,0,rectangle,1,-3,1,0,0,1,-3,1,0,0,0,48,48,18,1,,,,,,,,
,,,,,,,,,,,,,FF,,,,,,,,3.3679,,,,,,,,,,,,,,,,,,,,,,60fd54dcb1e2c1c546aa86b3,6103651d804dea9511c5231d,2021-07-30_12h47.26.040,Simcolourproject_2stim_asymm_v5,2020.2.10,Win32,60,61025ae37ef11b136ea224fe,,,,,,,,,172,-83,-29,1,0,0,response5disk,,2,4,0,1,0,0,rectangle,4,0,1,0,0,4,0,1,0,0,0,49,49,60,1,,,,,,,,
,,,,,,,,,,,,,FF,,,,,,,,2.6525,,,,,,,,,,,,,,,,,,,,,,60fd54dcb1e2c1c546aa86b3,6103651d804dea9511c5231d,2021-07-30_12h47.26.040,Simcolourproject_2stim_asymm_v5,2020.2.10,Win32,60,61025ae37ef11b136ea224fe,,,,,,,,,2709,85,67,1,0,0,response1disk,,6,-1,3,1,0,0,rectangle,-1,3,1,0,0,-1,3,1,0,0,0,50,50,61,1,,,,,,,,
,,,,,,,,,,,,,FF,,,,,,,,1.5343,,,,,,,,,,,,,,,,,,,,,,60fd54dcb1e2c1c546aa86b3,6103651d804dea9511c5231d,2021-07-30_12h47.26.040,Simcolourproject_2stim_asymm_v5,2020.2.10,Win32,60,61025ae37ef11b136ea224fe,,,,,,,,,3118,52,69,1,0,0,response1disk,,7,6,-2,1,0,0,rectangle,6,-2,1,0,0,6,-2,1,0,0,0,51,51,5,1,,,,,,,,
,,,,,,,,,,,,,FF,,,,,,,,1.682,,,,,,,,,,,,,,,,,,,,,,60fd54dcb1e2c1c546aa86b3,6103651d804dea9511c5231d,2021-07-30_12h47.26.040,Simcolourproject_2stim_asymm_v5,2020.2.10,Win32,60,61025ae37ef11b136ea224fe,,,,,,,,,1753,-89,-29,1,0,0,response5disk,,2,2,6,1,0,0,rectangle,110,48,1,0,0,1,4,1,0,0,0,52,52,23,1,,response1disk_3,TRUE,6,6,"[7,122,103,200,70,305,247,33,218,32,286,221,59,271,53,226,127,97,147,122]",3.1122,rectangle
,,,,,,,,,,,,,FF,,,,,,,,1.6813,,,,,,,,,,,,,,,,,,,,,,60fd54dcb1e2c1c546aa86b3,6103651d804dea9511c5231d,2021-07-30_12h47.26.040,Simcolourproject_2stim_asymm_v5,2020.2.10,Win32,60,61025ae37ef11b136ea224fe,,,,,,,,,4049,-78,-27,1,0,0,response5disk,,2,-9,-1,1,0,0,rectangle,-9,-1,1,0,0,-9,-1,1,0,0,0,53,53,143,1,,,,,,,,
,,,,,,,,,,,,,FF,,,,,,,,0.8664,,,,,,,,,,,,,,,,,,,,,,60fd54dcb1e2c1c546aa86b3,6103651d804dea9511c5231d,2021-07-30_12h47.26.040,Simcolourproject_2stim_asymm_v5,2020.2.10,Win32,60,61025ae37ef11b136ea224fe,,,,,,,,,261,-59,33,1,0,0,response7disk,,1,1,3,1,0,0,rectangle,1,3,1,0,0,1,3,1,0,0,0,54,54,114,1,,,,,,,,
,,,,,,,,,,,,,FF,,,,,,,,1.6319,,,,,,,,,,,,,,,,,,,,,,60fd54dcb1e2c1c546aa86b3,6103651d804dea9511c5231d,2021-07-30_12h47.26.040,Simcolourproject_2stim_asymm_v5,2020.2.10,Win32,60,61025ae37ef11b136ea224fe,,,,,,,,,2811,73,50,1,0,0,response1disk,,6,-7,-2,1,0,0,rectangle,-7,-2,1,0,0,-7,-2,1,0,0,0,55,55,88,1,,,,,,,,
,,,,,,,,,,,,,FF,,,,,,,,1.5818,,,,,,,,,,,,,,,,,,,,,,60fd54dcb1e2c1c546aa86b3,6103651d804dea9511c5231d,2021-07-30_12h47.26.040,Simcolourproject_2stim_asymm_v5,2020.2.10,Win32,60,61025ae37ef11b136ea224fe,,,,,,,,,2366,45,-84,1,0,0,response3disk,,4,8,0,1,0,0,rectangle,8,0,1,0,0,8,0,1,0,0,0,56,56,75,1,,,,,,,,
,,,,,,,,,,,,,FF,,,,,,,,1.5169,,,,,,,,,,,,,,,,,,,,,,60fd54dcb1e2c1c546aa86b3,6103651d804dea9511c5231d,2021-07-30_12h47.26.040,Simcolourproject_2stim_asymm_v5,2020.2.10,Win32,60,61025ae37ef11b136ea224fe,,,,,,,,,2852,73,32,1,0,0,response1disk,,6,3,-5,1,0,0,rectangle,3,-5,1,0,0,3,-5,1,0,0,0,57,57,81,1,,,,,,,,
,,,,,,,,,,,,,FF,,,,,,,,1.3811,,,,,,,,,,,,,,,,,,,,,,60fd54dcb1e2c1c546aa86b3,6103651d804dea9511c5231d,2021-07-30_12h47.26.040,Simcolourproject_2stim_asymm_v5,2020.2.10,Win32,60,61025ae37ef11b136ea224fe,,,,,,,,,1788,86,48,1,0,0,response1disk,,6,12,3,1,0,0,rectangle,-85,-32,1,0,0,7,6,1,0,0,0,58,58,91,1,,response5disk_3,TRUE,2,2,"[7,122,103,200,70,305,247,33,218,32,286,221,59,271,53,226,127,97,147,122]",2.9483,rectangle
,,,,,,,,,,,,,FF,,,,,,,,1.7145,,,,,,,,,,,,,,,,,,,,,,60fd54dcb1e2c1c546aa86b3,6103651d804dea9511c5231d,2021-07-30_12h47.26.040,Simcolourproject_2stim_asymm_v5,2020.2.10,Win32,60,61025ae37ef11b136ea224fe,,,,,,,,,2379,-59,-91,1,0,0,response5disk,,3,-10,-4,1,0,0,rectangle,-10,-4,1,0,0,-10,-4,1,0,0,0,59,59,69,1,,,,,,,,
,,,,,,,,,,,,,FF,,,,,,,,1.401,,,,,,,,,,,,,,,,,,,,,,60fd54dcb1e2c1c546aa86b3,6103651d804dea9511c5231d,2021-07-30_12h47.26.040,Simcolourproject_2stim_asymm_v5,2020.2.10,Win32,60,61025ae37ef11b136ea224fe,,,,,,,,,572,75,-34,1,0,0,response3disk,,5,-1,1,1,0,0,rectangle,-1,1,1,0,0,-1,1,1,0,0,0,60,60,135,1,,,,,,,,
,,,,,,,,,,,,,FF,,,,,,,,1.7817,,,,,,,,,,,,,,,,,,,,,,60fd54dcb1e2c1c546aa86b3,6103651d804dea9511c5231d,2021-07-30_12h47.26.040,Simcolourproject_2stim_asymm_v5,2020.2.10,Win32,60,61025ae37ef11b136ea224fe,,,,,,,,,2339,72,49,1,0,0,response1disk,,6,9,5,1,0,0,rectangle,9,5,1,0,0,9,5,1,0,0,0,61,61,108,1,,,,,,,,
,,,,,,,,,,,,,FF,,,,,,,,4.9301,,,,,,,,,,,,,,,,,,,,,,60fd54dcb1e2c1c546aa86b3,6103651d804dea9511c5231d,2021-07-30_12h47.26.040,Simcolourproject_2stim_asymm_v5,2020.2.10,Win32,60,61025ae37ef11b136ea224fe,,,,,,,,,3525,42,-65,1,0,0,response3disk,,4,14,2,1,0,0,rectangle,14,2,1,0,0,14,2,1,0,0,0,62,62,1,1,,,,,,,,
,,,,,,,,,,,,,FF,,,,,,,,2.531,,,,,,,,,,,,,,,,,,,,,,60fd54dcb1e2c1c546aa86b3,6103651d804dea9511c5231d,2021-07-30_12h47.26.040,Simcolourproject_2stim_asymm_v5,2020.2.10,Win32,60,61025ae37ef11b136ea224fe,,,,,,,,,1914,17,-92,1,0,0,response3disk,,4,-8,2,1,0,0,rectangle,-8,2,1,0,0,-8,2,1,0,0,0,63,63,70,1,,,,,,,,
,,,,,,,,,,,,,FF,,,,,,,,3.9635,,,,,,,,,,,,,,,,,,,,,,60fd54dcb1e2c1c546aa86b3,6103651d804dea9511c5231d,2021-07-30_12h47.26.040,Simcolourproject_2stim_asymm_v5,2020.2.10,Win32,60,61025ae37ef11b136ea224fe,,,,,,,,,1557,28,-53,1,0,0,response3disk,,4,6,2,1,0,0,rectangle,6,2,1,0,0,6,2,1,0,0,0,64,64,66,1,,,,,,,,
,,,,,,,,,,,,,FF,,,,,,,,2.4657,,,,,,,,,,,,,,,,,,,,,,60fd54dcb1e2c1c546aa86b3,6103651d804dea9511c5231d,2021-07-30_12h47.26.040,Simcolourproject_2stim_asymm_v5,2020.2.10,Win32,60,61025ae37ef11b136ea224fe,,,,,,,,,2250,-33,-90,1,0,0,response5disk,,3,3,3,1,0,0,rectangle,3,3,1,0,0,3,3,1,0,0,0,65,65,26,1,,,,,,,,
,,,,,,,,,,,,,FF,,,,,,,,1.3487,,,,,,,,,,,,,,,,,,,,,,60fd54dcb1e2c1c546aa86b3,6103651d804dea9511c5231d,2021-07-30_12h47.26.040,Simcolourproject_2stim_asymm_v5,2020.2.10,Win32,60,61025ae37ef11b136ea224fe,,,,,,,,,2081,70,25,1,0,0,response1disk,,6,26,10,1,0,0,rectangle,26,10,1,0,0,26,10,1,0,0,0,66,66,96,1,,,,,,,,
,,,,,,,,,,,,,FF,,,,,,,,2.1812,,,,,,,,,,,,,,,,,,,,,,60fd54dcb1e2c1c546aa86b3,6103651d804dea9511c5231d,2021-07-30_12h47.26.040,Simcolourproject_2stim_asymm_v5,2020.2.10,Win32,60,61025ae37ef11b136ea224fe,,,,,,,,,207,31,83,1,0,0,response1disk,,7,0,2,1,0,0,rectangle,0,2,1,0,0,0,2,1,0,0,0,67,67,109,1,,,,,,,,
,,,,,,,,,,,,,FF,,,,,,,,1.3338,,,,,,,,,,,,,,,,,,,,,,60fd54dcb1e2c1c546aa86b3,6103651d804dea9511c5231d,2021-07-30_12h47.26.040,Simcolourproject_2stim_asymm_v5,2020.2.10,Win32,60,61025ae37ef11b136ea224fe,,,,,,,,,761,62,33,1,0,0,response1disk,,6,4,3,1,0,0,rectangle,4,3,1,0,0,4,3,1,0,0,0,68,68,158,1,,,,,,,,
,,,,,,,,,,,,,FF,,,,,,,,1.1842,,,,,,,,,,,,,,,,,,,,,,60fd54dcb1e2c1c546aa86b3,6103651d804dea9511c5231d,2021-07-30_12h47.26.040,Simcolourproject_2stim_asymm_v5,2020.2.10,Win32,60,61025ae37ef11b136ea224fe,,,,,,,,,2978,51,31,1,0,0,response1disk,,6,9,6,1,0,0,rectangle,79,55,1,0,0,2,-2,1,0,0,0,69,69,87,1,,response1disk_3,TRUE,6,6,"[7,122,103,200,70,305,247,33,218,32,286,221,59,271,53,226,127,97,147,122]",3.015,rectangle
,,,,,,,,,,,,,FF,,,,,,,,1.6501,,,,,,,,,,,,,,,,,,,,,,60fd54dcb1e2c1c546aa86b3,6103651d804dea9511c5231d,2021-07-30_12h47.26.040,Simcolourproject_2stim_asymm_v5,2020.2.10,Win32,60,61025ae37ef11b136ea224fe,,,,,,,,,415,68,38,1,0,0,response1disk,,6,-2,8,1,0,0,rectangle,-2,8,1,0,0,-2,8,1,0,0,0,70,70,123,1,,,,,,,,
,,,,,,,,,,,,,FF,,,,,,,,2.248,,,,,,,,,,,,,,,,,,,,,,60fd54dcb1e2c1c546aa86b3,6103651d804dea9511c5231d,2021-07-30_12h47.26.040,Simcolourproject_2stim_asymm_v5,2020.2.10,Win32,60,61025ae37ef11b136ea224fe,,,,,,,,,3619,78,42,1,0,0,response1disk,,6,0,8,1,0,0,rectangle,0,8,1,0,0,0,8,1,0,0,0,71,71,56,1,,,,,,,,
,,,,,,,,,,,,,FF,,,,,,,,1.2172,,,,,,,,,,,,,,,,,,,,,,60fd54dcb1e2c1c546aa86b3,6103651d804dea9511c5231d,2021-07-30_12h47.26.040,Simcolourproject_2stim_asymm_v5,2020.2.10,Win32,60,61025ae37ef11b136ea224fe,,,,,,,,,587,52,97,1,0,0,response1disk,,7,-8,10,1,0,0,rectangle,-8,10,1,0,0,-8,10,1,0,0,0,72,72,9,1,,,,,,,,
,,,,,,,,,,,,,FF,,,,,,,,1.8118,,,,,,,,,,,,,,,,,,,,,,60fd54dcb1e2c1c546aa86b3,6103651d804dea9511c5231d,2021-07-30_12h47.26.040,Simcolourproject_2stim_asymm_v5,2020.2.10,Win32,60,61025ae37ef11b136ea224fe,,,,,,,,,374,-36,-89,1,0,0,response5disk,,3,6,5,1,0,0,rectangle,6,5,1,0,0,6,5,1,0,0,0,73,73,11,1,,,,,,,,
,,,,,,,,,,,,,FF,,,,,,,,1.816,,,,,,,,,,,,,,,,,,,,,,60fd54dcb1e2c1c546aa86b3,6103651d804dea9511c5231d,2021-07-30_12h47.26.040,Simcolourproject_2stim_asymm_v5,2020.2.10,Win32,60,61025ae37ef11b136ea224fe,,,,,,,,,785,-43,-96,1,0,0,response5disk,,3,-6,7,1,0,0,rectangle,-6,7,1,0,0,-6,7,1,0,0,0,74,74,126,1,,,,,,,,
,,,,,,,,,,,,,FF,,,,,,,,1.6824,,,,,,,,,,,,,,,,,,,,,,60fd54dcb1e2c1c546aa86b3,6103651d804dea9511c5231d,2021-07-30_12h47.26.040,Simcolourproject_2stim_asymm_v5,2020.2.10,Win32,60,61025ae37ef11b136ea224fe,,,,,,,,,619,-96,-31,1,0,0,response5disk,,2,-4,3,1,0,0,rectangle,-4,3,1,0,0,-4,3,1,0,0,0,75,75,77,1,,,,,,,,
,,,,,,,,,,,,,FF,,,,,,,,1.6685,,,,,,,,,,,,,,,,,,,,,,60fd54dcb1e2c1c546aa86b3,6103651d804dea9511c5231d,2021-07-30_12h47.26.040,Simcolourproject_2stim_asymm_v5,2020.2.10,Win32,60,61025ae37ef11b136ea224fe,,,,,,,,,452,19,-71,1,0,0,response3disk,,4,1,1,1,0,0,rectangle,1,1,1,0,0,1,1,1,0,0,0,76,76,149,1,,,,,,,,
,,,,,,,,,,,,,FF,,,,,,,,2.1235,,,,,,,,,,,,,,,,,,,,,,60fd54dcb1e2c1c546aa86b3,6103651d804dea9511c5231d,2021-07-30_12h47.26.040,Simcolourproject_2stim_asymm_v5,2020.2.10,Win32,60,61025ae37ef11b136ea224fe,,,,,,,,,1009,84,53,1,0,0,response1disk,,6,3,1,1,0,0,rectangle,3,1,1,0,0,3,1,1,0,0,0,77,77,92,1,,,,,,,,
,,,,,,,,,,,,,FF,,,,,,,,2.3826,,,,,,,,,,,,,,,,,,,,,,60fd54dcb1e2c1c546aa86b3,6103651d804dea9511c5231d,2021-07-30_12h47.26.040,Simcolourproject_2stim_asymm_v5,2020.2.10,Win32,60,61025ae37ef11b136ea224fe,,,,,,,,,2935,-82,-36,1,0,0,response5disk,,2,-2,2,1,0,0,rectangle,-2,2,1,0,0,-2,2,1,0,0,0,78,78,104,1,,,,,,,,
,,,,,,,,,,,,,FF,,,,,,,,2.5037,,,,,,,,,,,,,,,,,,,,,,60fd54dcb1e2c1c546aa86b3,6103651d804dea9511c5231d,2021-07-30_12h47.26.040,Simcolourproject_2stim_asymm_v5,2020.2.10,Win32,60,61025ae37ef11b136ea224fe,,,,,,,,,3371,83,-37,1,0,0,response3disk,,5,2,-2,1,0,0,rectangle,2,-2,1,0,0,2,-2,1,0,0,0,79,79,72,1,,,,,,,,
,,,,,,,,,,,,,FF,,,,,,,,4.5674,,,,,,,,,,,,,,,,,,,,,,60fd54dcb1e2c1c546aa86b3,6103651d804dea9511c5231d,2021-07-30_12h47.26.040,Simcolourproject_2stim_asymm_v5,2020.2.10,Win32,60,61025ae37ef11b136ea224fe,,,,,,,,,4008,46,-87,1,0,0,response3disk,,4,-1,0,1,0,0,rectangle,-1,0,1,0,0,-1,0,1,0,0,0,80,80,119,1,,,,,,,,
,,,,,,,,,,,,,FF,,,,,,,,1.5337,,,,,,,,,,,,,,,,,,,,,,60fd54dcb1e2c1c546aa86b3,6103651d804dea9511c5231d,2021-07-30_12h47.26.040,Simcolourproject_2stim_asymm_v5,2020.2.10,Win32,60,61025ae37ef11b136ea224fe,,,,,,,,,729,-69,-77,1,0,0,response5disk,,3,-6,2,1,0,0,rectangle,-6,2,1,0,0,-6,2,1,0,0,0,81,81,57,1,,,,,,,,
,,,,,,,,,,,,,FF,,,,,,,,4.2191,,,,,,,,,,,,,,,,,,,,,,60fd54dcb1e2c1c546aa86b3,6103651d804dea9511c5231d,2021-07-30_12h47.26.040,Simcolourproject_2stim_asymm_v5,2020.2.10,Win32,60,61025ae37ef11b136ea224fe,,,,,,,,,1688,-88,-32,1,0,0,response5disk,,2,-8,7,1,0,0,rectangle,-8,7,1,0,0,-8,7,1,0,0,0,82,82,14,1,,,,,,,,
,,,,,,,,,,,,,FF,,,,,,,,1.0474,,,,,,,,,,,,,,,,,,,,,,60fd54dcb1e2c1c546aa86b3,6103651d804dea9511c5231d,2021-07-30_12h47.26.040,Simcolourproject_2stim_asymm_v5,2020.2.10,Win32,60,61025ae37ef11b136ea224fe,,,,,,,,,2360,-69,51,1,0,0,response7disk,,1,6,5,1,0,0,rectangle,6,5,1,0,0,6,5,1,0,0,0,83,83,24,1,,,,,,,,
,,,,,,,,,,,,,FF,,,,,,,,1.9969,,,,,,,,,,,,,,,,,,,,,,60fd54dcb1e2c1c546aa86b3,6103651d804dea9511c5231d,2021-07-30_12h47.26.040,Simcolourproject_2stim_asymm_v5,2020.2.10,Win32,60,61025ae37ef11b136ea224fe,,,,,,,,,3214,46,-86,1,0,0,response3disk,,4,4,-3,1,0,0,rectangle,4,-3,1,0,0,4,-3,1,0,0,0,84,84,115,1,,,,,,,,
,,,,,,,,,,,,,FF,,,,,,,,2.1859,,,,,,,,,,,,,,,,,,,,,,60fd54dcb1e2c1c546aa86b3,6103651d804dea9511c5231d,2021-07-30_12h47.26.040,Simcolourproject_2stim_asymm_v5,2020.2.10,Win32,60,61025ae37ef11b136ea224fe,,,,,,,,,2624,92,-51,1,0,0,response3disk,,5,-5,-3,1,0,0,rectangle,-5,-3,1,0,0,-5,-3,1,0,0,0,85,85,3,1,,,,,,,,
,,,,,,,,,,,,,FF,,,,,,,,1.7875,,,,,,,,,,,,,,,,,,,,,,60fd54dcb1e2c1c546aa86b3,6103651d804dea9511c5231d,2021-07-30_12h47.26.040,Simcolourproject_2stim_asymm_v5,2020.2.10,Win32,60,61025ae37ef11b136ea224fe,,,,,,,,,3949,-45,-88,1,0,0,response5disk,,3,-4,-3,1,0,0,rectangle,-4,-3,1,0,0,-4,-3,1,0,0,0,86,86,136,1,,,,,,,,
,,,,,,,,,,,,,FF,,,,,,,,1.7983,,,,,,,,,,,,,,,,,,,,,,60fd54dcb1e2c1c546aa86b3,6103651d804dea9511c5231d,2021-07-30_12h47.26.040,Simcolourproject_2stim_asymm_v5,2020.2.10,Win32,60,61025ae37ef11b136ea224fe,,,,,,,,,2778,-92,-49,1,0,0,response5disk,,2,6,4,1,0,0,rectangle,6,4,1,0,0,6,4,1,0,0,0,87,87,28,1,,,,,,,,
,,,,,,,,,,,,,FF,,,,,,,,1.436,,,,,,,,,,,,,,,,,,,,,,60fd54dcb1e2c1c546aa86b3,6103651d804dea9511c5231d,2021-07-30_12h47.26.040,Simcolourproject_2stim_asymm_v5,2020.2.10,Win32,60,61025ae37ef11b136ea224fe,,,,,,,,,2238,-44,-81,1,0,0,response5disk,,3,-5,-6,1,0,0,rectangle,-5,-6,1,0,0,-5,-6,1,0,0,0,88,88,43,1,,,,,,,,
,,,,,,,,,,,,,FF,,,,,,,,1.4328,,,,,,,,,,,,,,,,,,,,,,60fd54dcb1e2c1c546aa86b3,6103651d804dea9511c5231d,2021-07-30_12h47.26.040,Simcolourproject_2stim_asymm_v5,2020.2.10,Win32,60,61025ae37ef11b136ea224fe,,,,,,,,,1326,74,-49,1,0,0,response3disk,,5,6,-5,1,0,0,rectangle,6,-5,1,0,0,6,-5,1,0,0,0,89,89,8,1,,,,,,,,
,,,,,,,,,,,,,FF,,,,,,,,2.8523,,,,,,,,,,,,,,,,,,,,,,60fd54dcb1e2c1c546aa86b3,6103651d804dea9511c5231d,2021-07-30_12h47.26.040,Simcolourproject_2stim_asymm_v5,2020.2.10,Win32,60,61025ae37ef11b136ea224fe,,,,,,,,,1481,64,-31,1,0,0,response3disk,,5,0,3,1,0,0,rectangle,0,3,1,0,0,0,3,1,0,0,0,90,90,131,1,,,,,,,,
,,,,,,,,,,,,,FF,,,,,,,,1.7511,,,,,,,,,,,,,,,,,,,,,,60fd54dcb1e2c1c546aa86b3,6103651d804dea9511c5231d,2021-07-30_12h47.26.040,Simcolourproject_2stim_asymm_v5,2020.2.10,Win32,60,61025ae37ef11b136ea224fe,,,,,,,,,2247,94,-48,1,0,0,response3disk,,5,-1,-5,1,0,0,rectangle,-1,-5,1,0,0,-1,-5,1,0,0,0,91,91,63,1,,,,,,,,
,,,,,,,,,,,,,FF,,,,,,,,1.3173,,,,,,,,,,,,,,,,,,,,,,60fd54dcb1e2c1c546aa86b3,6103651d804dea9511c5231d,2021-07-30_12h47.26.040,Simcolourproject_2stim_asymm_v5,2020.2.10,Win32,60,61025ae37ef11b136ea224fe,,,,,,,,,1856,102,52,1,0,0,response1disk,,6,-2,-7,1,0,0,rectangle,-2,-7,1,0,0,-2,-7,1,0,0,0,92,92,133,1,,,,,,,,
,,,,,,,,,,,,,FF,,,,,,,,2.2257,,,,,,,,,,,,,,,,,,,,,,60fd54dcb1e2c1c546aa86b3,6103651d804dea9511c5231d,2021-07-30_12h47.26.040,Simcolourproject_2stim_asymm_v5,2020.2.10,Win32,60,61025ae37ef11b136ea224fe,,,,,,,,,568,54,36,1,0,0,response1disk,,6,1,1,1,0,0,rectangle,1,1,1,0,0,1,1,1,0,0,0,93,93,105,1,,,,,,,,
,,,,,,,,,,,,,FF,,,,,,,,3.5689,,,,,,,,,,,,,,,,,,,,,,60fd54dcb1e2c1c546aa86b3,6103651d804dea9511c5231d,2021-07-30_12h47.26.040,Simcolourproject_2stim_asymm_v5,2020.2.10,Win32,60,61025ae37ef11b136ea224fe,,,,,,,,,1523,-39,-84,1,0,0,response5disk,,3,-1,-5,1,0,0,rectangle,-1,-5,1,0,0,-1,-5,1,0,0,0,94,94,12,1,,,,,,,,
,,,,,,,,,,,,,FF,,,,,,,,1.5387,,,,,,,,,,,,,,,,,,,,,,60fd54dcb1e2c1c546aa86b3,6103651d804dea9511c5231d,2021-07-30_12h47.26.040,Simcolourproject_2stim_asymm_v5,2020.2.10,Win32,60,61025ae37ef11b136ea224fe,,,,,,,,,4186,48,-107,1,0,0,response3disk,,4,-4,-2,1,0,0,rectangle,-4,-2,1,0,0,-4,-2,1,0,0,0,95,95,94,1,,,,,,,,
,,,,,,,,,,,,,FF,,,,,,,,2.8468,,,,,,,,,,,,,,,,,,,,,,60fd54dcb1e2c1c546aa86b3,6103651d804dea9511c5231d,2021-07-30_12h47.26.040,Simcolourproject_2stim_asymm_v5,2020.2.10,Win32,60,61025ae37ef11b136ea224fe,,,,,,,,,2949,25,-98,1,0,0,response3disk,,4,3,-4,1,0,0,rectangle,94,41,1,0,0,2,12,1,0,0,0,96,96,127,1,,response1disk_3,TRUE,6,6,"[7,122,103,200,70,305,247,33,218,32,286,221,59,271,53,226,127,97,147,122]",2.4669,rectangle
,,,,,,,,,,,,,FF,,,,,,,,3.4986,,,,,,,,,,,,,,,,,,,,,,60fd54dcb1e2c1c546aa86b3,6103651d804dea9511c5231d,2021-07-30_12h47.26.040,Simcolourproject_2stim_asymm_v5,2020.2.10,Win32,60,61025ae37ef11b136ea224fe,,,,,,,,,778,-32,-85,1,0,0,response5disk,,3,-4,3,1,0,0,rectangle,-4,3,1,0,0,-4,3,1,0,0,0,97,97,150,1,,,,,,,,
,,,,,,,,,,,,,FF,,,,,,,,1.6669,,,,,,,,,,,,,,,,,,,,,,60fd54dcb1e2c1c546aa86b3,6103651d804dea9511c5231d,2021-07-30_12h47.26.040,Simcolourproject_2stim_asymm_v5,2020.2.10,Win32,60,61025ae37ef11b136ea224fe,,,,,,,,,291,-29,-78,1,0,0,response5disk,,3,1,9,1,0,0,rectangle,1,9,1,0,0,1,9,1,0,0,0,98,98,76,1,,,,,,,,
,,,,,,,,,,,,,FF,,,,,,,,1.832,,,,,,,,,,,,,,,,,,,,,,60fd54dcb1e2c1c546aa86b3,6103651d804dea9511c5231d,2021-07-30_12h47.26.040,Simcolourproject_2stim_asymm_v5,2020.2.10,Win32,60,61025ae37ef11b136ea224fe,,,,,,,,,1322,82,-40,1,0,0,response3disk,,5,7,3,1,0,0,rectangle,7,3,1,0,0,7,3,1,0,0,0,99,99,152,1,,,,,,,,
,,,,,,,,,,,,,FF,,,,,,,,1.1481,,,,,,,,,,,,,,,,,,,,,,60fd54dcb1e2c1c546aa86b3,6103651d804dea9511c5231d,2021-07-30_12h47.26.040,Simcolourproject_2stim_asymm_v5,2020.2.10,Win32,60,61025ae37ef11b136ea224fe,,,,,,,,,4157,83,-61,1,0,0,response3disk,,5,-4,10,1,0,0,rectangle,-4,10,1,0,0,-4,10,1,0,0,0,100,100,51,1,,,,,,,,
,,,,,,,,,,,,,FF,,,,,,,,2.1874,,,,,,,,,,,,,,,,,,,,,,60fd54dcb1e2c1c546aa86b3,6103651d804dea9511c5231d,2021-07-30_12h47.26.040,Simcolourproject_2stim_asymm_v5,2020.2.10,Win32,60,61025ae37ef11b136ea224fe,,,,,,,,,979,-51,-98,1,0,0,response5disk,,3,-5,4,1,0,0,rectangle,-5,4,1,0,0,-5,4,1,0,0,0,101,101,59,1,,,,,,,,
,,,,,,,,,,,,,FF,,,,,,,,1.8652,,,,,,,,,,,,,,,,,,,,,,60fd54dcb1e2c1c546aa86b3,6103651d804dea9511c5231d,2021-07-30_12h47.26.040,Simcolourproject_2stim_asymm_v5,2020.2.10,Win32,60,61025ae37ef11b136ea224fe,,,,,,,,,1780,53,36,1,0,0,response1disk,,6,1,7,1,0,0,rectangle,100,38,1,0,0,7,5,1,0,0,0,102,102,55,1,,response1disk_3,TRUE,6,6,"[7,122,103,200,70,305,247,33,218,32,286,221,59,271,53,226,127,97,147,122]",3.5305,rectangle
,,,,,,,,,,,,,FF,,,,,,,,2.0821,,,,,,,,,,,,,,,,,,,,,,60fd54dcb1e2c1c546aa86b3,6103651d804dea9511c5231d,2021-07-30_12h47.26.040,Simcolourproject_2stim_asymm_v5,2020.2.10,Win32,60,61025ae37ef11b136ea224fe,,,,,,,,,3567,-43,-88,1,0,0,response5disk,,3,-2,4,1,0,0,rectangle,-2,4,1,0,0,-2,4,1,0,0,0,103,103,31,1,,,,,,,,
,,,,,,,,,,,,,FF,,,,,,,,1.6161,,,,,,,,,,,,,,,,,,,,,,60fd54dcb1e2c1c546aa86b3,6103651d804dea9511c5231d,2021-07-30_12h47.26.040,Simcolourproject_2stim_asymm_v5,2020.2.10,Win32,60,61025ae37ef11b136ea224fe,,,,,,,,,751,46,-79,1,0,0,response3disk,,4,-1,1,1,0,0,rectangle,-1,1,1,0,0,-1,1,1,0,0,0,104,104,100,1,,,,,,,,
,,,,,,,,,,,,,FF,,,,,,,,1.8474,,,,,,,,,,,,,,,,,,,,,,60fd54dcb1e2c1c546aa86b3,6103651d804dea9511c5231d,2021-07-30_12h47.26.040,Simcolourproject_2stim_asymm_v5,2020.2.10,Win32,60,61025ae37ef11b136ea224fe,,,,,,,,,1605,-89,33,1,0,0,response7disk,,1,-7,3,1,0,0,rectangle,-7,3,1,0,0,-7,3,1,0,0,0,105,105,39,1,,,,,,,,
,,,,,,,,,,,,,FF,,,,,,,,2.4315,,,,,,,,,,,,,,,,,,,,,,60fd54dcb1e2c1c546aa86b3,6103651d804dea9511c5231d,2021-07-30_12h47.26.040,Simcolourproject_2stim_asymm_v5,2020.2.10,Win32,60,61025ae37ef11b136ea224fe,,,,,,,,,2410,70,-41,1,0,0,response3disk,,5,-9,1,1,0,0,rectangle,-9,1,1,0,0,-9,1,1,0,0,0,106,106,113,1,,,,,,,,
,,,,,,,,,,,,,FF,,,,,,,,1.9985,,,,,,,,,,,,,,,,,,,,,,60fd54dcb1e2c1c546aa86b3,6103651d804dea9511c5231d,2021-07-30_12h47.26.040,Simcolourproject_2stim_asymm_v5,2020.2.10,Win32,60,61025ae37ef11b136ea224fe,,,,,,,,,985,85,-36,1,0,0,response3disk,,5,12,-4,1,0,0,rectangle,12,-4,1,0,0,12,-4,1,0,0,0,107,107,132,1,,,,,,,,
,,,,,,,,,,,,,FF,,,,,,,,1.3156,,,,,,,,,,,,,,,,,,,,,,60fd54dcb1e2c1c546aa86b3,6103651d804dea9511c5231d,2021-07-30_12h47.26.040,Simcolourproject_2stim_asymm_v5,2020.2.10,Win32,60,61025ae37ef11b136ea224fe,,,,,,,,,2611,75,-38,1,0,0,response3disk,,5,-1,-1,1,0,0,rectangle,-1,-1,1,0,0,-1,-1,1,0,0,0,108,108,68,1,,,,,,,,
,,,,,,,,,,,,,FF,,,,,,,,1.1656,,,,,,,,,,,,,,,,,,,,,,60fd54dcb1e2c1c546aa86b3,6103651d804dea9511c5231d,2021-07-30_12h47.26.040,Simcolourproject_2stim_asymm_v5,2020.2.10,Win32,60,61025ae37ef11b136ea224fe,,,,,,,,,1645,54,37,1,0,0,response1disk,,6,-3,-7,1,0,0,rectangle,-3,-7,1,0,0,-3,-7,1,0,0,0,109,109,13,1,,,,,,,,
,,,,,,,,,,,,,FF,,,,,,,,1.9994,,,,,,,,,,,,,,,,,,,,,,60fd54dcb1e2c1c546aa86b3,6103651d804dea9511c5231d,2021-07-30_12h47.26.040,Simcolourproject_2stim_asymm_v5,2020.2.10,Win32,60,61025ae37ef11b136ea224fe,,,,,,,,,772,33,86,1,0,0,response1disk,,7,-6,-5,1,0,0,rectangle,-6,-5,1,0,0,-6,-5,1,0,0,0,110,110,40,1,,,,,,,,
,,,,,,,,,,,,,FF,,,,,,,,2.0172,,,,,,,,,,,,,,,,,,,,,,60fd54dcb1e2c1c546aa86b3,6103651d804dea9511c5231d,2021-07-30_12h47.26.040,Simcolourproject_2stim_asymm_v5,2020.2.10,Win32,60,61025ae37ef11b136ea224fe,,,,,,,,,1845,49,-72,1,0,0,response3disk,,4,0,-1,1,0,0,rectangle,0,-1,1,0,0,0,-1,1,0,0,0,111,111,155,1,,,,,,,,
,,,,,,,,,,,,,FF,,,,,,,,1.3686,,,,,,,,,,,,,,,,,,,,,,60fd54dcb1e2c1c546aa86b3,6103651d804dea9511c5231d,2021-07-30_12h47.26.040,Simcolourproject_2stim_asymm_v5,2020.2.10,Win32,60,61025ae37ef11b136ea224fe,,,,,,,,,1732,43,67,1,0,0,response1disk,,7,6,0,1,0,0,rectangle,6,0,1,0,0,6,0,1,0,0,0,112,112,159,1,,,,,,,,
,,,,,,,,,,,,,FF,,,,,,,,1.9998,,,,,,,,,,,,,,,,,,,,,,60fd54dcb1e2c1c546aa86b3,6103651d804dea9511c5231d,2021-07-30_12h47.26.040,Simcolourproject_2stim_asymm_v5,2020.2.10,Win32,60,61025ae37ef11b136ea224fe,,,,,,,,,549,33,-93,1,0,0,response3disk,,4,-5,-9,1,0,0,rectangle,-5,-9,1,0,0,-5,-9,1,0,0,0,113,113,86,1,,,,,,,,
,,,,,,,,,,,,,FF,,,,,,,,1.7474,,,,,,,,,,,,,,,,,,,,,,60fd54dcb1e2c1c546aa86b3,6103651d804dea9511c5231d,2021-07-30_12h47.26.040,Simcolourproject_2stim_asymm_v5,2020.2.10,Win32,60,61025ae37ef11b136ea224fe,,,,,,,,,2998,-81,-42,1,0,0,response5disk,,2,1,-2,1,0,0,rectangle,1,-2,1,0,0,1,-2,1,0,0,0,114,114,124,1,,,,,,,,
,,,,,,,,,,,,,FF,,,,,,,,1.6167,,,,,,,,,,,,,,,,,,,,,,60fd54dcb1e2c1c546aa86b3,6103651d804dea9511c5231d,2021-07-30_12h47.26.040,Simcolourproject_2stim_asymm_v5,2020.2.10,Win32,60,61025ae37ef11b136ea224fe,,,,,,,,,2146,82,-47,1,0,0,response3disk,,5,12,7,1,0,0,rectangle,12,7,1,0,0,12,7,1,0,0,0,115,115,118,1,,,,,,,,
,,,,,,,,,,,,,FF,,,,,,,,2.1661,,,,,,,,,,,,,,,,,,,,,,60fd54dcb1e2c1c546aa86b3,6103651d804dea9511c5231d,2021-07-30_12h47.26.040,Simcolourproject_2stim_asymm_v5,2020.2.10,Win32,60,61025ae37ef11b136ea224fe,,,,,,,,,3980,33,-95,1,0,0,response3disk,,4,3,3,1,0,0,rectangle,3,3,1,0,0,3,3,1,0,0,0,116,116,110,1,,,,,,,,
,,,,,,,,,,,,,FF,,,,,,,,3.6807,,,,,,,,,,,,,,,,,,,,,,60fd54dcb1e2c1c546aa86b3,6103651d804dea9511c5231d,2021-07-30_12h47.26.040,Simcolourproject_2stim_asymm_v5,2020.2.10,Win32,60,61025ae37ef11b136ea224fe,,,,,,,,,3681,88,-51,1,0,0,response3disk,,5,5,5,1,0,0,rectangle,5,5,1,0,0,5,5,1,0,0,0,117,117,62,1,,,,,,,,
,,,,,,,,,,,,,FF,,,,,,,,1.4828,,,,,,,,,,,,,,,,,,,,,,60fd54dcb1e2c1c546aa86b3,6103651d804dea9511c5231d,2021-07-30_12h47.26.040,Simcolourproject_2stim_asymm_v5,2020.2.10,Win32,60,61025ae37ef11b136ea224fe,,,,,,,,,3737,35,99,1,0,0,response1disk,,7,-5,1,1,0,0,rectangle,-5,1,1,0,0,-5,1,1,0,0,0,118,118,35,1,,,,,,,,
,,,,,,,,,,,,,FF,,,,,,,,3.4961,,,,,,,,,,,,,,,,,,,,,,60fd54dcb1e2c1c546aa86b3,6103651d804dea9511c5231d,2021-07-30_12h47.26.040,Simcolourproject_2stim_asymm_v5,2020.2.10,Win32,60,61025ae37ef11b136ea224fe,,,,,,,,,424,93,38,1,0,0,response1disk,,6,6,-2,1,0,0,rectangle,6,-2,1,0,0,6,-2,1,0,0,0,119,119,130,1,,,,,,,,
,,,,,,,,,,,,,FF,,,,,,,,2.3686,,,,,,,,,,,,,,,,,,,,,,60fd54dcb1e2c1c546aa86b3,6103651d804dea9511c5231d,2021-07-30_12h47.26.040,Simcolourproject_2stim_asymm_v5,2020.2.10,Win32,60,61025ae37ef11b136ea224fe,,,,,,,,,3338,33,-74,1,0,0,response3disk,,4,-8,2,1,0,0,rectangle,-8,2,1,0,0,-8,2,1,0,0,0,120,120,47,1,,,,,,,,
,,,,,,,,,,,,,FF,,,,,,,,3.2648,,,,,,,,,,,,,,,,,,,,,,60fd54dcb1e2c1c546aa86b3,6103651d804dea9511c5231d,2021-07-30_12h47.26.040,Simcolourproject_2stim_asymm_v5,2020.2.10,Win32,60,61025ae37ef11b136ea224fe,,,,,,,,,1995,108,37,1,0,0,response1disk,,6,-4,-3,1,0,0,rectangle,-80,46,1,0,0,2,-6,1,0,0,0,121,121,54,1,,response7disk_3,TRUE,1,1,"[7,122,103,200,70,305,247,33,218,32,286,221,59,271,53,226,127,97,147,122]",1.9654,rectangle
,,,,,,,,,,,,,FF,,,,,,,,2.1659,,,,,,,,,,,,,,,,,,,,,,60fd54dcb1e2c1c546aa86b3,6103651d804dea9511c5231d,2021-07-30_12h47.26.040,Simcolourproject_2stim_asymm_v5,2020.2.10,Win32,60,61025ae37ef11b136ea224fe,,,,,,,,,159,-25,-81,1,0,0,response5disk,,3,1,-3,1,0,0,rectangle,1,-3,1,0,0,1,-3,1,0,0,0,122,122,50,1,,,,,,,,
,,,,,,,,,,,,,FF,,,,,,,,1.7981,,,,,,,,,,,,,,,,,,,,,,60fd54dcb1e2c1c546aa86b3,6103651d804dea9511c5231d,2021-07-30_12h47.26.040,Simcolourproject_2stim_asymm_v5,2020.2.10,Win32,60,61025ae37ef11b136ea224fe,,,,,,,,,3367,87,-27,1,0,0,response3disk,,5,-3,9,1,0,0,rectangle,-3,9,1,0,0,-3,9,1,0,0,0,123,123,46,1,,,,,,,,
,,,,,,,,,,,,,FF,,,,,,,,1.7311,,,,,,,,,,,,,,,,,,,,,,60fd54dcb1e2c1c546aa86b3,6103651d804dea9511c5231d,2021-07-30_12h47.26.040,Simcolourproject_2stim_asymm_v5,2020.2.10,Win32,60,61025ae37ef11b136ea224fe,,,,,,,,,1294,-85,28,1,0,0,response7disk,,1,2,3,1,0,0,rectangle,2,3,1,0,0,2,3,1,0,0,0,124,124,32,1,,,,,,,,
,,,,,,,,,,,,,FF,,,,,,,,1.666,,,,,,,,,,,,,,,,,,,,,,60fd54dcb1e2c1c546aa86b3,6103651d804dea9511c5231d,2021-07-30_12h47.26.040,Simcolourproject_2stim_asymm_v5,2020.2.10,Win32,60,61025ae37ef11b136ea224fe,,,,,,,,,797,-46,-112,1,0,0,response5disk,,3,-7,-8,1,0,0,rectangle,-7,-8,1,0,0,-7,-8,1,0,0,0,125,125,19,1,,,,,,,,
,,,,,,,,,,,,,FF,,,,,,,,1.2491,,,,,,,,,,,,,,,,,,,,,,60fd54dcb1e2c1c546aa86b3,6103651d804dea9511c5231d,2021-07-30_12h47.26.040,Simcolourproject_2stim_asymm_v5,2020.2.10,Win32,60,61025ae37ef11b136ea224fe,,,,,,,,,3492,85,42,1,0,0,response1disk,,6,-4,-5,1,0,0,rectangle,-43,-95,1,0,0,3,14,1,0,0,0,126,126,102,1,,response5disk_3,TRUE,3,3,"[7,122,103,200,70,305,247,33,218,32,286,221,59,271,53,226,127,97,147,122]",4.263,rectangle
,,,,,,,,,,,,,FF,,,,,,,,1.3154,,,,,,,,,,,,,,,,,,,,,,60fd54dcb1e2c1c546aa86b3,6103651d804dea9511c5231d,2021-07-30_12h47.26.040,Simcolourproject_2stim_asymm_v5,2020.2.10,Win32,60,61025ae37ef11b136ea224fe,,,,,,,,,1028,74,37,1,0,0,response1disk,,6,7,11,1,0,0,rectangle,7,11,1,0,0,7,11,1,0,0,0,127,127,42,1,,,,,,,,
,,,,,,,,,,,,,FF,,,,,,,,3.1139,,,,,,,,,,,,,,,,,,,,,,60fd54dcb1e2c1c546aa86b3,6103651d804dea9511c5231d,2021-07-30_12h47.26.040,Simcolourproject_2stim_asymm_v5,2020.2.10,Win32,60,61025ae37ef11b136ea224fe,,,,,,,,,145,79,-27,1,0,0,response3disk,,5,-3,-3,1,0,0,rectangle,-3,-3,1,0,0,-3,-3,1,0,0,0,128,128,20,1,,,,,,,,
,,,,,,,,,,,,,FF,,,,,,,,2.4185,,,,,,,,,,,,,,,,,,,,,,60fd54dcb1e2c1c546aa86b3,6103651d804dea9511c5231d,2021-07-30_12h47.26.040,Simcolourproject_2stim_asymm_v5,2020.2.10,Win32,60,61025ae37ef11b136ea224fe,,,,,,,,,2262,99,60,1,0,0,response1disk,,6,5,4,1,0,0,rectangle,5,4,1,0,0,5,4,1,0,0,0,129,129,107,1,,,,,,,,
,,,,,,,,,,,,,FF,,,,,,,,3.4139,,,,,,,,,,,,,,,,,,,,,,60fd54dcb1e2c1c546aa86b3,6103651d804dea9511c5231d,2021-07-30_12h47.26.040,Simcolourproject_2stim_asymm_v5,2020.2.10,Win32,60,61025ae37ef11b136ea224fe,,,,,,,,,2575,33,103,1,0,0,response1disk,,7,-9,-8,1,0,0,rectangle,-9,-8,1,0,0,-9,-8,1,0,0,0,130,130,141,1,,,,,,,,
,,,,,,,,,,,,,FF,,,,,,,,1.4844,,,,,,,,,,,,,,,,,,,,,,60fd54dcb1e2c1c546aa86b3,6103651d804dea9511c5231d,2021-07-30_12h47.26.040,Simcolourproject_2stim_asymm_v5,2020.2.10,Win32,60,61025ae37ef11b136ea224fe,,,,,,,,,4056,35,-99,1,0,0,response3disk,,4,9,-5,1,0,0,rectangle,9,-5,1,0,0,9,-5,1,0,0,0,131,131,120,1,,,,,,,,
,,,,,,,,,,,,,FF,,,,,,,,1.3362,,,,,,,,,,,,,,,,,,,,,,60fd54dcb1e2c1c546aa86b3,6103651d804dea9511c5231d,2021-07-30_12h47.26.040,Simcolourproject_2stim_asymm_v5,2020.2.10,Win32,60,61025ae37ef11b136ea224fe,,,,,,,,,295,68,53,1,0,0,response1disk,,6,3,3,1,0,0,rectangle,3,3,1,0,0,3,3,1,0,0,0,132,132,112,1,,,,,,,,
,,,,,,,,,,,,,FF,,,,,,,,1.3698,,,,,,,,,,,,,,,,,,,,,,60fd54dcb1e2c1c546aa86b3,6103651d804dea9511c5231d,2021-07-30_12h47.26.040,Simcolourproject_2stim_asymm_v5,2020.2.10,Win32,60,61025ae37ef11b136ea224fe,,,,,,,,,293,66,36,1,0,0,response1disk,,6,8,8,1,0,0,rectangle,8,8,1,0,0,8,8,1,0,0,0,133,133,121,1,,,,,,,,
,,,,,,,,,,,,,FF,,,,,,,,2.981,,,,,,,,,,,,,,,,,,,,,,60fd54dcb1e2c1c546aa86b3,6103651d804dea9511c5231d,2021-07-30_12h47.26.040,Simcolourproject_2stim_asymm_v5,2020.2.10,Win32,60,61025ae37ef11b136ea224fe,,,,,,,,,2323,74,35,1,0,0,response1disk,,6,9,3,1,0,0,rectangle,9,3,1,0,0,9,3,1,0,0,0,134,134,145,1,,,,,,,,
,,,,,,,,,,,,,FF,,,,,,,,1.4147,,,,,,,,,,,,,,,,,,,,,,60fd54dcb1e2c1c546aa86b3,6103651d804dea9511c5231d,2021-07-30_12h47.26.040,Simcolourproject_2stim_asymm_v5,2020.2.10,Win32,60,61025ae37ef11b136ea224fe,,,,,,,,,282,-69,-31,1,0,0,response5disk,,2,4,6,1,0,0,rectangle,4,6,1,0,0,4,6,1,0,0,0,135,135,156,1,,,,,,,,
,,,,,,,,,,,,,FF,,,,,,,,2.0165,,,,,,,,,,,,,,,,,,,,,,60fd54dcb1e2c1c546aa86b3,6103651d804dea9511c5231d,2021-07-30_12h47.26.040,Simcolourproject_2stim_asymm_v5,2020.2.10,Win32,60,61025ae37ef11b136ea224fe,,,,,,,,,3311,92,-40,1,0,0,response3disk,,5,9,-5,1,0,0,rectangle,9,-5,1,0,0,9,-5,1,0,0,0,136,136,71,1,,,,,,,,
,,,,,,,,,,,,,FF,,,,,,,,1.2662,,,,,,,,,,,,,,,,,,,,,,60fd54dcb1e2c1c546aa86b3,6103651d804dea9511c5231d,2021-07-30_12h47.26.040,Simcolourproject_2stim_asymm_v5,2020.2.10,Win32,60,61025ae37ef11b136ea224fe,,,,,,,,,3694,70,38,1,0,0,response1disk,,6,11,2,1,0,0,rectangle,11,2,1,0,0,11,2,1,0,0,0,137,137,21,1,,,,,,,,
,,,,,,,,,,,,,FF,,,,,,,,1.4865,,,,,,,,,,,,,,,,,,,,,,60fd54dcb1e2c1c546aa86b3,6103651d804dea9511c5231d,2021-07-30_12h47.26.040,Simcolourproject_2stim_asymm_v5,2020.2.10,Win32,60,61025ae37ef11b136ea224fe,,,,,,,,,1895,-85,49,1,0,0,response7disk,,1,1,-3,1,0,0,rectangle,1,-3,1,0,0,1,-3,1,0,0,0,138,138,74,1,,,,,,,,
,,,,,,,,,,,,,FF,,,,,,,,2.0142,,,,,,,,,,,,,,,,,,,,,,60fd54dcb1e2c1c546aa86b3,6103651d804dea9511c5231d,2021-07-30_12h47.26.040,Simcolourproject_2stim_asymm_v5,2020.2.10,Win32,60,61025ae37ef11b136ea224fe,,,,,,,,,1574,89,44,1,0,0,response1disk,,6,-6,3,1,0,0,rectangle,-6,3,1,0,0,-6,3,1,0,0,0,139,139,27,1,,,,,,,,
,,,,,,,,,,,,,FF,,,,,,,,1.181,,,,,,,,,,,,,,,,,,,,,,60fd54dcb1e2c1c546aa86b3,6103651d804dea9511c5231d,2021-07-30_12h47.26.040,Simcolourproject_2stim_asymm_v5,2020.2.10,Win32,60,61025ae37ef11b136ea224fe,,,,,,,,,93,-46,65,1,0,0,response7disk,,0,2,-3,1,0,0,rectangle,2,-3,1,0,0,2,-3,1,0,0,0,140,140,73,1,,,,,,,,
,,,,,,,,,,,,,FF,,,,,,,,3.8135,,,,,,,,,,,,,,,,,,,,,,60fd54dcb1e2c1c546aa86b3,6103651d804dea9511c5231d,2021-07-30_12h47.26.040,Simcolourproject_2stim_asymm_v5,2020.2.10,Win32,60,61025ae37ef11b136ea224fe,,,,,,,,,1499,30,81,1,0,0,response1disk,,7,2,0,1,0,0,rectangle,2,0,1,0,0,2,0,1,0,0,0,141,141,138,1,,,,,,,,
,,,,,,,,,,,,,FF,,,,,,,,1.1331,,,,,,,,,,,,,,,,,,,,,,60fd54dcb1e2c1c546aa86b3,6103651d804dea9511c5231d,2021-07-30_12h47.26.040,Simcolourproject_2stim_asymm_v5,2020.2.10,Win32,60,61025ae37ef11b136ea224fe,,,,,,,,,755,53,38,1,0,0,response1disk,,6,9,-3,1,0,0,rectangle,9,-3,1,0,0,9,-3,1,0,0,0,142,142,134,1,,,,,,,,
,,,,,,,,,,,,,FF,,,,,,,,2.5491,,,,,,,,,,,,,,,,,,,,,,60fd54dcb1e2c1c546aa86b3,6103651d804dea9511c5231d,2021-07-30_12h47.26.040,Simcolourproject_2stim_asymm_v5,2020.2.10,Win32,60,61025ae37ef11b136ea224fe,,,,,,,,,1529,-92,-44,1,0,0,response5disk,,2,3,2,1,0,0,rectangle,3,2,1,0,0,3,2,1,0,0,0,143,143,84,1,,,,,,,,
,,,,,,,,,,,,,FF,,,,,,,,1.5692,,,,,,,,,,,,,,,,,,,,,,60fd54dcb1e2c1c546aa86b3,6103651d804dea9511c5231d,2021-07-30_12h47.26.040,Simcolourproject_2stim_asymm_v5,2020.2.10,Win32,60,61025ae37ef11b136ea224fe,,,,,,,,,3244,-72,47,1,0,0,response7disk,,1,-5,-5,1,0,0,rectangle,-5,-5,1,0,0,-5,-5,1,0,0,0,144,144,85,1,,,,,,,,
,,,,,,,,,,,,,FF,,,,,,,,2.2157,,,,,,,,,,,,,,,,,,,,,,60fd54dcb1e2c1c546aa86b3,6103651d804dea9511c5231d,2021-07-30_12h47.26.040,Simcolourproject_2stim_asymm_v5,2020.2.10,Win32,60,61025ae37ef11b136ea224fe,,,,,,,,,3279,68,-48,1,0,0,response3disk,,5,0,7,1,0,0,rectangle,0,7,1,0,0,0,7,1,0,0,0,145,145,157,1,,,,,,,,
,,,,,,,,,,,,,FF,,,,,,,,2.5201,,,,,,,,,,,,,,,,,,,,,,60fd54dcb1e2c1c546aa86b3,6103651d804dea9511c5231d,2021-07-30_12h47.26.040,Simcolourproject_2stim_asymm_v5,2020.2.10,Win32,60,61025ae37ef11b136ea224fe,,,,,,,,,1388,-20,-81,1,0,0,response5disk,,3,-3,-9,1,0,0,rectangle,45,90,1,0,0,3,-3,1,0,0,0,146,146,90,1,,response1disk_3,TRUE,7,7,"[7,122,103,200,70,305,247,33,218,32,286,221,59,271,53,226,127,97,147,122]",2.5292,rectangle
,,,,,,,,,,,,,FF,,,,,,,,3.9231,,,,,,,,,,,,,,,,,,,,,,60fd54dcb1e2c1c546aa86b3,6103651d804dea9511c5231d,2021-07-30_12h47.26.040,Simcolourproject_2stim_asymm_v5,2020.2.10,Win32,60,61025ae37ef11b136ea224fe,,,,,,,,,3523,35,-65,1,0,0,response3disk,,4,-3,3,1,0,0,rectangle,-3,3,1,0,0,-3,3,1,0,0,0,147,147,79,1,,,,,,,,
,,,,,,,,,,,,,FF,,,,,,,,1.1837,,,,,,,,,,,,,,,,,,,,,,60fd54dcb1e2c1c546aa86b3,6103651d804dea9511c5231d,2021-07-30_12h47.26.040,Simcolourproject_2stim_asymm_v5,2020.2.10,Win32,60,61025ae37ef11b136ea224fe,,,,,,,,,4307,32,85,1,0,0,response1disk,,7,-2,6,1,0,0,rectangle,-2,6,1,0,0,-2,6,1,0,0,0,148,148,17,1,,,,,,,,
,,,,,,,,,,,,,FF,,,,,,,,1.5849,,,,,,,,,,,,,,,,,,,,,,60fd54dcb1e2c1c546aa86b3,6103651d804dea9511c5231d,2021-07-30_12h47.26.040,Simcolourproject_2stim_asymm_v5,2020.2.10,Win32,60,61025ae37ef11b136ea224fe,,,,,,,,,3370,64,75,1,0,0,response1disk,,7,24,3,1,0,0,rectangle,24,3,1,0,0,24,3,1,0,0,0,149,149,148,1,,,,,,,,
,,,,,,,,,,,,,FF,,,,,,,,1.9151,,,,,,,,,,,,,,,,,,,,,,60fd54dcb1e2c1c546aa86b3,6103651d804dea9511c5231d,2021-07-30_12h47.26.040,Simcolourproject_2stim_asymm_v5,2020.2.10,Win32,60,61025ae37ef11b136ea224fe,,,,,,,,,1570,81,15,1,0,0,response1disk,,6,9,8,1,0,0,rectangle,9,8,1,0,0,9,8,1,0,0,0,150,150,22,1,,,,,,,,
,,,,,,,,,,,,,FF,,,,,,,,3.2156,,,,,,,,,,,,,,,,,,,,,,60fd54dcb1e2c1c546aa86b3,6103651d804dea9511c5231d,2021-07-30_12h47.26.040,Simcolourproject_2stim_asymm_v5,2020.2.10,Win32,60,61025ae37ef11b136ea224fe,,,,,,,,,864,36,-67,1,0,0,response3disk,,4,3,2,1,0,0,rectangle,3,2,1,0,0,3,2,1,0,0,0,151,151,153,1,,,,,,,,
,,,,,,,,,,,,,FF,,,,,,,,2.7189,,,,,,,,,,,,,,,,,,,,,,60fd54dcb1e2c1c546aa86b3,6103651d804dea9511c5231d,2021-07-30_12h47.26.040,Simcolourproject_2stim_asymm_v5,2020.2.10,Win32,60,61025ae37ef11b136ea224fe,,,,,,,,,2091,86,-42,1,0,0,response3disk,,5,-7,-3,1,0,0,rectangle,-7,-3,1,0,0,-7,-3,1,0,0,0,152,152,52,1,,,,,,,,
,,,,,,,,,,,,,FF,,,,,,,,1.8151,,,,,,,,,,,,,,,,,,,,,,60fd54dcb1e2c1c546aa86b3,6103651d804dea9511c5231d,2021-07-30_12h47.26.040,Simcolourproject_2stim_asymm_v5,2020.2.10,Win32,60,61025ae37ef11b136ea224fe,,,,,,,,,2547,-95,-61,1,0,0,response5disk,,2,2,4,1,0,0,rectangle,2,4,1,0,0,2,4,1,0,0,0,153,153,58,1,,,,,,,,
,,,,,,,,,,,,,FF,,,,,,,,3.1516,,,,,,,,,,,,,,,,,,,,,,60fd54dcb1e2c1c546aa86b3,6103651d804dea9511c5231d,2021-07-30_12h47.26.040,Simcolourproject_2stim_asymm_v5,2020.2.10,Win32,60,61025ae37ef11b136ea224fe,,,,,,,,,2956,87,-39,1,0,0,response3disk,,5,1,3,1,0,0,rectangle,1,3,1,0,0,1,3,1,0,0,0,154,154,33,1,,,,,,,,
,,,,,,,,,,,,,FF,,,,,,,,2.0193,,,,,,,,,,,,,,,,,,,,,,60fd54dcb1e2c1c546aa86b3,6103651d804dea9511c5231d,2021-07-30_12h47.26.040,Simcolourproject_2stim_asymm_v5,2020.2.10,Win32,60,61025ae37ef11b136ea224fe,,,,,,,,,1976,40,-81,1,0,0,response3disk,,4,3,9,1,0,0,rectangle,3,9,1,0,0,3,9,1,0,0,0,155,155,144,1,,,,,,,,
,,,,,,,,,,,,,FF,,,,,,,,1.2369,,,,,,,,,,,,,,,,,,,,,,60fd54dcb1e2c1c546aa86b3,6103651d804dea9511c5231d,2021-07-30_12h47.26.040,Simcolourproject_2stim_asymm_v5,2020.2.10,Win32,60,61025ae37ef11b136ea224fe,,,,,,,,,1449,-72,-41,1,0,0,response5disk,,2,4,6,1,0,0,rectangle,4,6,1,0,0,4,6,1,0,0,0,156,156,139,1,,,,,,,,
,,,,,,,,,,,,,FF,,,,,,,,2.2337,,,,,,,,,,,,,,,,,,,,,,60fd54dcb1e2c1c546aa86b3,6103651d804dea9511c5231d,2021-07-30_12h47.26.040,Simcolourproject_2stim_asymm_v5,2020.2.10,Win32,60,61025ae37ef11b136ea224fe,,,,,,,,,3830,-23,-84,1,0,0,response5disk,,3,1,-6,1,0,0,rectangle,1,-6,1,0,0,1,-6,1,0,0,0,157,157,64,1,,,,,,,,
,,,,,,,,,,,,,FF,,,,,,,,1.4529,,,,,,,,,,,,,,,,,,,,,,60fd54dcb1e2c1c546aa86b3,6103651d804dea9511c5231d,2021-07-30_12h47.26.040,Simcolourproject_2stim_asymm_v5,2020.2.10,Win32,60,61025ae37ef11b136ea224fe,,,,,,,,,3715,-75,-20,1,0,0,response5disk,,2,6,2,1,0,0,rectangle,6,2,1,0,0,6,2,1,0,0,0,158,158,29,1,,,,,,,,
,,,,,,,,,,,,,FF,,,,,,,,1.9661,,,,,,,,,,,,,,,,,,,,,,60fd54dcb1e2c1c546aa86b3,6103651d804dea9511c5231d,2021-07-30_12h47.26.040,Simcolourproject_2stim_asymm_v5,2020.2.10,Win32,60,61025ae37ef11b136ea224fe,,,,,,,,,2505,71,34,1,0,0,response1disk,,6,6,1,1,0,0,rectangle,6,1,1,0,0,6,1,1,0,0,0,159,159,78,1,,,,,,,,
,,,,,,,,,,,,,FF,,,,,,,,1.235,,,,,,,,,,,,,,,,,,,,,,60fd54dcb1e2c1c546aa86b3,6103651d804dea9511c5231d,2021-07-30_12h47.26.040,Simcolourproject_2stim_asymm_v5,2020.2.10,Win32,60,61025ae37ef11b136ea224fe,,,,,,,,,2273,57,27,1,0,0,response1disk,,6,6,4,1,0,0,rectangle,6,4,1,0,0,6,4,1,0,0,1,0,160,43,1,,,,,,,,
,,,,,,,,,,,,,FF,,,,,,,,0.9857,,,,,,,,,,,,,,,,,,,,,,60fd54dcb1e2c1c546aa86b3,6103651d804dea9511c5231d,2021-07-30_12h47.26.040,Simcolourproject_2stim_asymm_v5,2020.2.10,Win32,60,61025ae37ef11b136ea224fe,,,,,,,,,3037,28,55,1,0,0,response1disk,,7,8,-2,1,0,0,rectangle,8,-2,1,0,0,8,-2,1,0,0,1,1,161,70,1,,,,,,,,
,,,,,,,,,,,,,FF,,,,,,,,1.92,,,,,,,,,,,,,,,,,,,,,,60fd54dcb1e2c1c546aa86b3,6103651d804dea9511c5231d,2021-07-30_12h47.26.040,Simcolourproject_2stim_asymm_v5,2020.2.10,Win32,60,61025ae37ef11b136ea224fe,,,,,,,,,2771,-29,-81,1,0,0,response5disk,,3,7,10,1,0,0,rectangle,7,10,1,0,0,7,10,1,0,0,1,2,162,85,1,,,,,,,,
,,,,,,,,,,,,,FF,,,,,,,,2.7961,,,,,,,,,,,,,,,,,,,,,,60fd54dcb1e2c1c546aa86b3,6103651d804dea9511c5231d,2021-07-30_12h47.26.040,Simcolourproject_2stim_asymm_v5,2020.2.10,Win32,60,61025ae37ef11b136ea224fe,,,,,,,,,116,66,-38,1,0,0,response3disk,,5,-6,12,1,0,0,rectangle,-6,12,1,0,0,-6,12,1,0,0,1,3,163,26,1,,,,,,,,
,,,,,,,,,,,,,FF,,,,,,,,1.6109,,,,,,,,,,,,,,,,,,,,,,60fd54dcb1e2c1c546aa86b3,6103651d804dea9511c5231d,2021-07-30_12h47.26.040,Simcolourproject_2stim_asymm_v5,2020.2.10,Win32,60,61025ae37ef11b136ea224fe,,,,,,,,,4038,81,39,1,0,0,response1disk,,6,16,-4,1,0,0,rectangle,16,-4,1,0,0,16,-4,1,0,0,1,4,164,138,1,,,,,,,,
,,,,,,,,,,,,,FF,,,,,,,,1.2686,,,,,,,,,,,,,,,,,,,,,,60fd54dcb1e2c1c546aa86b3,6103651d804dea9511c5231d,2021-07-30_12h47.26.040,Simcolourproject_2stim_asymm_v5,2020.2.10,Win32,60,61025ae37ef11b136ea224fe,,,,,,,,,1945,65,24,1,0,0,response1disk,,6,6,-3,1,0,0,rectangle,6,-3,1,0,0,6,-3,1,0,0,1,5,165,4,1,,,,,,,,
,,,,,,,,,,,,,FF,,,,,,,,1.617,,,,,,,,,,,,,,,,,,,,,,60fd54dcb1e2c1c546aa86b3,6103651d804dea9511c5231d,2021-07-30_12h47.26.040,Simcolourproject_2stim_asymm_v5,2020.2.10,Win32,60,61025ae37ef11b136ea224fe,,,,,,,,,2677,-88,-49,1,0,0,response5disk,,2,-12,-5,1,0,0,rectangle,-12,-5,1,0,0,-12,-5,1,0,0,1,6,166,14,1,,,,,,,,
,,,,,,,,,,,,,FF,,,,,,,,2.8337,,,,,,,,,,,,,,,,,,,,,,60fd54dcb1e2c1c546aa86b3,6103651d804dea9511c5231d,2021-07-30_12h47.26.040,Simcolourproject_2stim_asymm_v5,2020.2.10,Win32,60,61025ae37ef11b136ea224fe,,,,,,,,,988,-56,-87,1,0,0,response5disk,,3,-6,12,1,0,0,rectangle,-6,12,1,0,0,-6,12,1,0,0,1,7,167,82,1,,,,,,,,
,,,,,,,,,,,,,FF,,,,,,,,1.5531,,,,,,,,,,,,,,,,,,,,,,60fd54dcb1e2c1c546aa86b3,6103651d804dea9511c5231d,2021-07-30_12h47.26.040,Simcolourproject_2stim_asymm_v5,2020.2.10,Win32,60,61025ae37ef11b136ea224fe,,,,,,,,,2480,-86,55,1,0,0,response7disk,,1,-8,4,1,0,0,rectangle,-8,4,1,0,0,-8,4,1,0,0,1,8,168,127,1,,,,,,,,
,,,,,,,,,,,,,FF,,,,,,,,2.6464,,,,,,,,,,,,,,,,,,,,,,60fd54dcb1e2c1c546aa86b3,6103651d804dea9511c5231d,2021-07-30_12h47.26.040,Simcolourproject_2stim_asymm_v5,2020.2.10,Win32,60,61025ae37ef11b136ea224fe,,,,,,,,,3460,85,-52,1,0,0,response3disk,,5,11,-4,1,0,0,rectangle,11,-4,1,0,0,11,-4,1,0,0,1,9,169,158,1,,,,,,,,
,,,,,,,,,,,,,FF,,,,,,,,1.4184,,,,,,,,,,,,,,,,,,,,,,60fd54dcb1e2c1c546aa86b3,6103651d804dea9511c5231d,2021-07-30_12h47.26.040,Simcolourproject_2stim_asymm_v5,2020.2.10,Win32,60,61025ae37ef11b136ea224fe,,,,,,,,,3580,89,-22,1,0,0,response3disk,,5,-3,9,1,0,0,rectangle,-3,9,1,0,0,-3,9,1,0,0,1,10,170,18,1,,,,,,,,
,,,,,,,,,,,,,FF,,,,,,,,1.312,,,,,,,,,,,,,,,,,,,,,,60fd54dcb1e2c1c546aa86b3,6103651d804dea9511c5231d,2021-07-30_12h47.26.040,Simcolourproject_2stim_asymm_v5,2020.2.10,Win32,60,61025ae37ef11b136ea224fe,,,,,,,,,1209,77,35,1,0,0,response1disk,,6,4,2,1,0,0,rectangle,4,2,1,0,0,4,2,1,0,0,1,11,171,15,1,,,,,,,,
,,,,,,,,,,,,,FF,,,,,,,,1.6649,,,,,,,,,,,,,,,,,,,,,,60fd54dcb1e2c1c546aa86b3,6103651d804dea9511c5231d,2021-07-30_12h47.26.040,Simcolourproject_2stim_asymm_v5,2020.2.10,Win32,60,61025ae37ef11b136ea224fe,,,,,,,,,3922,-71,-44,1,0,0,response5disk,,2,-8,-3,1,0,0,rectangle,-8,-3,1,0,0,-8,-3,1,0,0,1,12,172,40,1,,,,,,,,
,,,,,,,,,,,,,FF,,,,,,,,1.2657,,,,,,,,,,,,,,,,,,,,,,60fd54dcb1e2c1c546aa86b3,6103651d804dea9511c5231d,2021-07-30_12h47.26.040,Simcolourproject_2stim_asymm_v5,2020.2.10,Win32,60,61025ae37ef11b136ea224fe,,,,,,,,,60,35,-94,1,0,0,response3disk,,4,0,4,1,0,0,rectangle,0,4,1,0,0,0,4,1,0,0,1,13,173,39,1,,,,,,,,
,,,,,,,,,,,,,FF,,,,,,,,1.5168,,,,,,,,,,,,,,,,,,,,,,60fd54dcb1e2c1c546aa86b3,6103651d804dea9511c5231d,2021-07-30_12h47.26.040,Simcolourproject_2stim_asymm_v5,2020.2.10,Win32,60,61025ae37ef11b136ea224fe,,,,,,,,,701,-88,-35,1,0,0,response5disk,,2,-3,-1,1,0,0,rectangle,-3,-1,1,0,0,-3,-1,1,0,0,1,14,174,129,1,,,,,,,,
,,,,,,,,,,,,,FF,,,,,,,,1.4155,,,,,,,,,,,,,,,,,,,,,,60fd54dcb1e2c1c546aa86b3,6103651d804dea9511c5231d,2021-07-30_12h47.26.040,Simcolourproject_2stim_asymm_v5,2020.2.10,Win32,60,61025ae37ef11b136ea224fe,,,,,,,,,1106,51,85,1,0,0,response1disk,,7,-4,1,1,0,0,rectangle,-4,1,1,0,0,-4,1,1,0,0,1,15,175,60,1,,,,,,,,
,,,,,,,,,,,,,FF,,,,,,,,1.5506,,,,,,,,,,,,,,,,,,,,,,60fd54dcb1e2c1c546aa86b3,6103651d804dea9511c5231d,2021-07-30_12h47.26.040,Simcolourproject_2stim_asymm_v5,2020.2.10,Win32,60,61025ae37ef11b136ea224fe,,,,,,,,,3107,-87,-43,1,0,0,response5disk,,2,5,3,1,0,0,rectangle,5,3,1,0,0,5,3,1,0,0,1,16,176,19,1,,,,,,,,
,,,,,,,,,,,,,FF,,,,,,,,3.9301,,,,,,,,,,,,,,,,,,,,,,60fd54dcb1e2c1c546aa86b3,6103651d804dea9511c5231d,2021-07-30_12h47.26.040,Simcolourproject_2stim_asymm_v5,2020.2.10,Win32,60,61025ae37ef11b136ea224fe,,,,,,,,,757,98,41,1,0,0,response1disk,,6,6,5,1,0,0,rectangle,6,5,1,0,0,6,5,1,0,0,1,17,177,61,1,,,,,,,,
,,,,,,,,,,,,,FF,,,,,,,,1.9334,,,,,,,,,,,,,,,,,,,,,,60fd54dcb1e2c1c546aa86b3,6103651d804dea9511c5231d,2021-07-30_12h47.26.040,Simcolourproject_2stim_asymm_v5,2020.2.10,Win32,60,61025ae37ef11b136ea224fe,,,,,,,,,662,91,45,1,0,0,response1disk,,6,10,12,1,0,0,rectangle,10,12,1,0,0,10,12,1,0,0,1,18,178,131,1,,,,,,,,
,,,,,,,,,,,,,FF,,,,,,,,2.3471,,,,,,,,,,,,,,,,,,,,,,60fd54dcb1e2c1c546aa86b3,6103651d804dea9511c5231d,2021-07-30_12h47.26.040,Simcolourproject_2stim_asymm_v5,2020.2.10,Win32,60,61025ae37ef11b136ea224fe,,,,,,,,,3190,-60,-68,1,0,0,response5disk,,3,2,-6,1,0,0,rectangle,2,-6,1,0,0,2,-6,1,0,0,1,19,179,79,1,,,,,,,,
,,,,,,,,,,,,,FF,,,,,,,,1.4816,,,,,,,,,,,,,,,,,,,,,,60fd54dcb1e2c1c546aa86b3,6103651d804dea9511c5231d,2021-07-30_12h47.26.040,Simcolourproject_2stim_asymm_v5,2020.2.10,Win32,60,61025ae37ef11b136ea224fe,,,,,,,,,1147,72,-40,1,0,0,response3disk,,5,2,-1,1,0,0,rectangle,2,-1,1,0,0,2,-1,1,0,0,1,20,180,73,1,,,,,,,,
,,,,,,,,,,,,,FF,,,,,,,,2.5478,,,,,,,,,,,,,,,,,,,,,,60fd54dcb1e2c1c546aa86b3,6103651d804dea9511c5231d,2021-07-30_12h47.26.040,Simcolourproject_2stim_asymm_v5,2020.2.10,Win32,60,61025ae37ef11b136ea224fe,,,,,,,,,3758,84,28,1,0,0,response1disk,,6,6,5,1,0,0,rectangle,6,5,1,0,0,6,5,1,0,0,1,21,181,137,1,,,,,,,,
,,,,,,,,,,,,,FF,,,,,,,,2.4139,,,,,,,,,,,,,,,,,,,,,,60fd54dcb1e2c1c546aa86b3,6103651d804dea9511c5231d,2021-07-30_12h47.26.040,Simcolourproject_2stim_asymm_v5,2020.2.10,Win32,60,61025ae37ef11b136ea224fe,,,,,,,,,2731,81,-49,1,0,0,response3disk,,5,-2,4,1,0,0,rectangle,-2,4,1,0,0,-2,4,1,0,0,1,22,182,63,1,,,,,,,,
,,,,,,,,,,,,,FF,,,,,,,,1.4994,,,,,,,,,,,,,,,,,,,,,,60fd54dcb1e2c1c546aa86b3,6103651d804dea9511c5231d,2021-07-30_12h47.26.040,Simcolourproject_2stim_asymm_v5,2020.2.10,Win32,60,61025ae37ef11b136ea224fe,,,,,,,,,2215,51,91,1,0,0,response1disk,,7,12,5,1,0,0,rectangle,12,5,1,0,0,12,5,1,0,0,1,23,183,153,1,,,,,,,,
,,,,,,,,,,,,,FF,,,,,,,,2.3479,,,,,,,,,,,,,,,,,,,,,,60fd54dcb1e2c1c546aa86b3,6103651d804dea9511c5231d,2021-07-30_12h47.26.040,Simcolourproject_2stim_asymm_v5,2020.2.10,Win32,60,61025ae37ef11b136ea224fe,,,,,,,,,1349,90,59,1,0,0,response1disk,,6,6,4,1,0,0,rectangle,6,4,1,0,0,6,4,1,0,0,1,24,184,147,1,,,,,,,,
,,,,,,,,,,,,,FF,,,,,,,,1.932,,,,,,,,,,,,,,,,,,,,,,60fd54dcb1e2c1c546aa86b3,6103651d804dea9511c5231d,2021-07-30_12h47.26.040,Simcolourproject_2stim_asymm_v5,2020.2.10,Win32,60,61025ae37ef11b136ea224fe,,,,,,,,,214,82,48,1,0,0,response1disk,,6,8,3,1,0,0,rectangle,8,3,1,0,0,8,3,1,0,0,1,25,185,7,1,,,,,,,,
,,,,,,,,,,,,,FF,,,,,,,,1.2153,,,,,,,,,,,,,,,,,,,,,,60fd54dcb1e2c1c546aa86b3,6103651d804dea9511c5231d,2021-07-30_12h47.26.040,Simcolourproject_2stim_asymm_v5,2020.2.10,Win32,60,61025ae37ef11b136ea224fe,,,,,,,,,208,80,38,1,0,0,response1disk,,6,-3,-2,1,0,0,rectangle,-3,-2,1,0,0,-3,-2,1,0,0,1,26,186,46,1,,,,,,,,
,,,,,,,,,,,,,FF,,,,,,,,1.8148,,,,,,,,,,,,,,,,,,,,,,60fd54dcb1e2c1c546aa86b3,6103651d804dea9511c5231d,2021-07-30_12h47.26.040,Simcolourproject_2stim_asymm_v5,2020.2.10,Win32,60,61025ae37ef11b136ea224fe,,,,,,,,,852,63,50,1,0,0,response1disk,,6,-5,8,1,0,0,rectangle,-5,8,1,0,0,-5,8,1,0,0,1,27,187,146,1,,,,,,,,
,,,,,,,,,,,,,FF,,,,,,,,0.9338,,,,,,,,,,,,,,,,,,,,,,60fd54dcb1e2c1c546aa86b3,6103651d804dea9511c5231d,2021-07-30_12h47.26.040,Simcolourproject_2stim_asymm_v5,2020.2.10,Win32,60,61025ae37ef11b136ea224fe,,,,,,,,,733,58,-29,1,0,0,response3disk,,5,2,6,1,0,0,rectangle,2,6,1,0,0,2,6,1,0,0,1,28,188,143,1,,,,,,,,
,,,,,,,,,,,,,FF,,,,,,,,3.9136,,,,,,,,,,,,,,,,,,,,,,60fd54dcb1e2c1c546aa86b3,6103651d804dea9511c5231d,2021-07-30_12h47.26.040,Simcolourproject_2stim_asymm_v5,2020.2.10,Win32,60,61025ae37ef11b136ea224fe,,,,,,,,,991,82,-21,1,0,0,response3disk,,5,-12,-4,1,0,0,rectangle,-12,-4,1,0,0,-12,-4,1,0,0,1,29,189,74,1,,,,,,,,
,,,,,,,,,,,,,FF,,,,,,,,1.7165,,,,,,,,,,,,,,,,,,,,,,60fd54dcb1e2c1c546aa86b3,6103651d804dea9511c5231d,2021-07-30_12h47.26.040,Simcolourproject_2stim_asymm_v5,2020.2.10,Win32,60,61025ae37ef11b136ea224fe,,,,,,,,,2097,-43,-53,1,0,0,response5disk,,3,-1,-2,1,0,0,rectangle,-1,-2,1,0,0,-1,-2,1,0,0,1,30,190,89,1,,,,,,,,
,,,,,,,,,,,,,FF,,,,,,,,2.9647,,,,,,,,,,,,,,,,,,,,,,60fd54dcb1e2c1c546aa86b3,6103651d804dea9511c5231d,2021-07-30_12h47.26.040,Simcolourproject_2stim_asymm_v5,2020.2.10,Win32,60,61025ae37ef11b136ea224fe,,,,,,,,,2904,90,28,1,0,0,response1disk,,6,17,4,1,0,0,rectangle,17,4,1,0,0,17,4,1,0,0,1,31,191,142,1,,,,,,,,
,,,,,,,,,,,,,FF,,,,,,,,2.2823,,,,,,,,,,,,,,,,,,,,,,60fd54dcb1e2c1c546aa86b3,6103651d804dea9511c5231d,2021-07-30_12h47.26.040,Simcolourproject_2stim_asymm_v5,2020.2.10,Win32,60,61025ae37ef11b136ea224fe,,,,,,,,,1206,72,25,1,0,0,response1disk,,6,20,9,1,0,0,rectangle,20,9,1,0,0,20,9,1,0,0,1,32,192,113,1,,,,,,,,
,,,,,,,,,,,,,FF,,,,,,,,1.6322,,,,,,,,,,,,,,,,,,,,,,60fd54dcb1e2c1c546aa86b3,6103651d804dea9511c5231d,2021-07-30_12h47.26.040,Simcolourproject_2stim_asymm_v5,2020.2.10,Win32,60,61025ae37ef11b136ea224fe,,,,,,,,,2000,77,47,1,0,0,response1disk,,6,-5,1,1,0,0,rectangle,-5,1,1,0,0,-5,1,1,0,0,1,33,193,100,1,,,,,,,,
,,,,,,,,,,,,,FF,,,,,,,,1.9677,,,,,,,,,,,,,,,,,,,,,,60fd54dcb1e2c1c546aa86b3,6103651d804dea9511c5231d,2021-07-30_12h47.26.040,Simcolourproject_2stim_asymm_v5,2020.2.10,Win32,60,61025ae37ef11b136ea224fe,,,,,,,,,3243,-85,50,1,0,0,response7disk,,1,-11,2,1,0,0,rectangle,-11,2,1,0,0,-11,2,1,0,0,1,34,194,103,1,,,,,,,,
,,,,,,,,,,,,,FF,,,,,,,,2.4833,,,,,,,,,,,,,,,,,,,,,,60fd54dcb1e2c1c546aa86b3,6103651d804dea9511c5231d,2021-07-30_12h47.26.040,Simcolourproject_2stim_asymm_v5,2020.2.10,Win32,60,61025ae37ef11b136ea224fe,,,,,,,,,1047,88,56,1,0,0,response1disk,,6,-2,2,1,0,0,rectangle,-2,2,1,0,0,-2,2,1,0,0,1,35,195,65,1,,,,,,,,
,,,,,,,,,,,,,FF,,,,,,,,1.1828,,,,,,,,,,,,,,,,,,,,,,60fd54dcb1e2c1c546aa86b3,6103651d804dea9511c5231d,2021-07-30_12h47.26.040,Simcolourproject_2stim_asymm_v5,2020.2.10,Win32,60,61025ae37ef11b136ea224fe,,,,,,,,,596,62,93,1,0,0,response1disk,,7,4,10,1,0,0,rectangle,4,10,1,0,0,4,10,1,0,0,1,36,196,34,1,,,,,,,,
,,,,,,,,,,,,,FF,,,,,,,,2.0317,,,,,,,,,,,,,,,,,,,,,,60fd54dcb1e2c1c546aa86b3,6103651d804dea9511c5231d,2021-07-30_12h47.26.040,Simcolourproject_2stim_asymm_v5,2020.2.10,Win32,60,61025ae37ef11b136ea224fe,,,,,,,,,317,42,70,1,0,0,response1disk,,7,3,9,1,0,0,rectangle,3,9,1,0,0,3,9,1,0,0,1,37,197,8,1,,,,,,,,
,,,,,,,,,,,,,FF,,,,,,,,1.9835,,,,,,,,,,,,,,,,,,,,,,60fd54dcb1e2c1c546aa86b3,6103651d804dea9511c5231d,2021-07-30_12h47.26.040,Simcolourproject_2stim_asymm_v5,2020.2.10,Win32,60,61025ae37ef11b136ea224fe,,,,,,,,,1625,-43,-76,1,0,0,response5disk,,3,1,0,1,0,0,rectangle,1,0,1,0,0,1,0,1,0,0,1,38,198,68,1,,,,,,,,
,,,,,,,,,,,,,FF,,,,,,,,1.7987,,,,,,,,,,,,,,,,,,,,,,60fd54dcb1e2c1c546aa86b3,6103651d804dea9511c5231d,2021-07-30_12h47.26.040,Simcolourproject_2stim_asymm_v5,2020.2.10,Win32,60,61025ae37ef11b136ea224fe,,,,,,,,,3722,37,-71,1,0,0,response3disk,,4,8,1,1,0,0,rectangle,95,36,1,0,0,-7,-1,1,0,0,1,39,199,80,1,,response1disk_3,TRUE,6,6,"[7,122,103,200,70,305,247,33,218,32,286,221,59,271,53,226,127,97,147,122]",2.4168,rectangle
,,,,,,,,,,,,,FF,,,,,,,,1.548,,,,,,,,,,,,,,,,,,,,,,60fd54dcb1e2c1c546aa86b3,6103651d804dea9511c5231d,2021-07-30_12h47.26.040,Simcolourproject_2stim_asymm_v5,2020.2.10,Win32,60,61025ae37ef11b136ea224fe,,,,,,,,,1159,-63,-37,1,0,0,response5disk,,2,1,0,1,0,0,rectangle,1,0,1,0,0,1,0,1,0,0,1,40,200,136,1,,,,,,,,
,,,,,,,,,,,,,FF,,,,,,,,1.3844,,,,,,,,,,,,,,,,,,,,,,60fd54dcb1e2c1c546aa86b3,6103651d804dea9511c5231d,2021-07-30_12h47.26.040,Simcolourproject_2stim_asymm_v5,2020.2.10,Win32,60,61025ae37ef11b136ea224fe,,,,,,,,,4027,-54,25,1,0,0,response7disk,,1,5,3,1,0,0,rectangle,5,3,1,0,0,5,3,1,0,0,1,41,201,45,1,,,,,,,,
,,,,,,,,,,,,,FF,,,,,,,,1.2137,,,,,,,,,,,,,,,,,,,,,,60fd54dcb1e2c1c546aa86b3,6103651d804dea9511c5231d,2021-07-30_12h47.26.040,Simcolourproject_2stim_asymm_v5,2020.2.10,Win32,60,61025ae37ef11b136ea224fe,,,,,,,,,2232,-77,-67,1,0,0,response5disk,,2,8,-8,1,0,0,rectangle,8,-8,1,0,0,8,-8,1,0,0,1,42,202,48,1,,,,,,,,
,,,,,,,,,,,,,FF,,,,,,,,1.7959,,,,,,,,,,,,,,,,,,,,,,60fd54dcb1e2c1c546aa86b3,6103651d804dea9511c5231d,2021-07-30_12h47.26.040,Simcolourproject_2stim_asymm_v5,2020.2.10,Win32,60,61025ae37ef11b136ea224fe,,,,,,,,,4276,44,-74,1,0,0,response3disk,,4,0,-5,1,0,0,rectangle,0,-5,1,0,0,0,-5,1,0,0,1,43,203,156,1,,,,,,,,
,,,,,,,,,,,,,FF,,,,,,,,1.4459,,,,,,,,,,,,,,,,,,,,,,60fd54dcb1e2c1c546aa86b3,6103651d804dea9511c5231d,2021-07-30_12h47.26.040,Simcolourproject_2stim_asymm_v5,2020.2.10,Win32,60,61025ae37ef11b136ea224fe,,,,,,,,,416,84,-37,1,0,0,response3disk,,5,-13,12,1,0,0,rectangle,-13,12,1,0,0,-13,12,1,0,0,1,44,204,149,1,,,,,,,,
,,,,,,,,,,,,,FF,,,,,,,,1.5207,,,,,,,,,,,,,,,,,,,,,,60fd54dcb1e2c1c546aa86b3,6103651d804dea9511c5231d,2021-07-30_12h47.26.040,Simcolourproject_2stim_asymm_v5,2020.2.10,Win32,60,61025ae37ef11b136ea224fe,,,,,,,,,3154,-87,-28,1,0,0,response5disk,,2,-6,4,1,0,0,rectangle,-6,4,1,0,0,-6,4,1,0,0,1,45,205,87,1,,,,,,,,
,,,,,,,,,,,,,FF,,,,,,,,1.3373,,,,,,,,,,,,,,,,,,,,,,60fd54dcb1e2c1c546aa86b3,6103651d804dea9511c5231d,2021-07-30_12h47.26.040,Simcolourproject_2stim_asymm_v5,2020.2.10,Win32,60,61025ae37ef11b136ea224fe,,,,,,,,,2427,-63,-32,1,0,0,response5disk,,2,-16,-1,1,0,0,rectangle,-16,-1,1,0,0,-16,-1,1,0,0,1,46,206,133,1,,,,,,,,
,,,,,,,,,,,,,FF,,,,,,,,2.0299,,,,,,,,,,,,,,,,,,,,,,60fd54dcb1e2c1c546aa86b3,6103651d804dea9511c5231d,2021-07-30_12h47.26.040,Simcolourproject_2stim_asymm_v5,2020.2.10,Win32,60,61025ae37ef11b136ea224fe,,,,,,,,,90,58,-25,1,0,0,response3disk,,5,10,-2,1,0,0,rectangle,10,-2,1,0,0,10,-2,1,0,0,1,47,207,97,1,,,,,,,,
,,,,,,,,,,,,,FF,,,,,,,,3.9501,,,,,,,,,,,,,,,,,,,,,,60fd54dcb1e2c1c546aa86b3,6103651d804dea9511c5231d,2021-07-30_12h47.26.040,Simcolourproject_2stim_asymm_v5,2020.2.10,Win32,60,61025ae37ef11b136ea224fe,,,,,,,,,2428,-98,-42,1,0,0,response5disk,,2,-15,-3,1,0,0,rectangle,-15,-3,1,0,0,-15,-3,1,0,0,1,48,208,88,1,,,,,,,,
,,,,,,,,,,,,,FF,,,,,,,,1.4172,,,,,,,,,,,,,,,,,,,,,,60fd54dcb1e2c1c546aa86b3,6103651d804dea9511c5231d,2021-07-30_12h47.26.040,Simcolourproject_2stim_asymm_v5,2020.2.10,Win32,60,61025ae37ef11b136ea224fe,,,,,,,,,172,-72,-43,1,0,0,response5disk,,2,0,-5,1,0,0,rectangle,0,-5,1,0,0,0,-5,1,0,0,1,49,209,55,1,,,,,,,,
,,,,,,,,,,,,,FF,,,,,,,,1.6645,,,,,,,,,,,,,,,,,,,,,,60fd54dcb1e2c1c546aa86b3,6103651d804dea9511c5231d,2021-07-30_12h47.26.040,Simcolourproject_2stim_asymm_v5,2020.2.10,Win32,60,61025ae37ef11b136ea224fe,,,,,,,,,2709,47,94,1,0,0,response1disk,,7,-9,-5,1,0,0,rectangle,-9,-5,1,0,0,-9,-5,1,0,0,1,50,210,122,1,,,,,,,,
,,,,,,,,,,,,,FF,,,,,,,,4.5304,,,,,,,,,,,,,,,,,,,,,,60fd54dcb1e2c1c546aa86b3,6103651d804dea9511c5231d,2021-07-30_12h47.26.040,Simcolourproject_2stim_asymm_v5,2020.2.10,Win32,60,61025ae37ef11b136ea224fe,,,,,,,,,3118,79,37,1,0,0,response1disk,,6,9,-2,1,0,0,rectangle,9,-2,1,0,0,9,-2,1,0,0,1,51,211,72,1,,,,,,,,
,,,,,,,,,,,,,FF,,,,,,,,1.5323,,,,,,,,,,,,,,,,,,,,,,60fd54dcb1e2c1c546aa86b3,6103651d804dea9511c5231d,2021-07-30_12h47.26.040,Simcolourproject_2stim_asymm_v5,2020.2.10,Win32,60,61025ae37ef11b136ea224fe,,,,,,,,,1753,-75,29,1,0,0,response7disk,,1,-11,1,1,0,0,rectangle,-11,1,1,0,0,-11,1,1,0,0,1,52,212,110,1,,,,,,,,
,,,,,,,,,,,,,FF,,,,,,,,1.3978,,,,,,,,,,,,,,,,,,,,,,60fd54dcb1e2c1c546aa86b3,6103651d804dea9511c5231d,2021-07-30_12h47.26.040,Simcolourproject_2stim_asymm_v5,2020.2.10,Win32,60,61025ae37ef11b136ea224fe,,,,,,,,,4049,-88,-63,1,0,0,response5disk,,2,-5,0,1,0,0,rectangle,-5,0,1,0,0,-5,0,1,0,0,1,53,213,84,1,,,,,,,,
,,,,,,,,,,,,,FF,,,,,,,,1.1863,,,,,,,,,,,,,,,,,,,,,,60fd54dcb1e2c1c546aa86b3,6103651d804dea9511c5231d,2021-07-30_12h47.26.040,Simcolourproject_2stim_asymm_v5,2020.2.10,Win32,60,61025ae37ef11b136ea224fe,,,,,,,,,261,-96,-50,1,0,0,response5disk,,2,-11,-9,1,0,0,rectangle,-11,-9,1,0,0,-11,-9,1,0,0,1,54,214,111,1,,,,,,,,
,,,,,,,,,,,,,FF,,,,,,,,1.302,,,,,,,,,,,,,,,,,,,,,,60fd54dcb1e2c1c546aa86b3,6103651d804dea9511c5231d,2021-07-30_12h47.26.040,Simcolourproject_2stim_asymm_v5,2020.2.10,Win32,60,61025ae37ef11b136ea224fe,,,,,,,,,2811,69,43,1,0,0,response1disk,,6,9,-1,1,0,0,rectangle,9,-1,1,0,0,9,-1,1,0,0,1,55,215,92,1,,,,,,,,
,,,,,,,,,,,,,FF,,,,,,,,1.3511,,,,,,,,,,,,,,,,,,,,,,60fd54dcb1e2c1c546aa86b3,6103651d804dea9511c5231d,2021-07-30_12h47.26.040,Simcolourproject_2stim_asymm_v5,2020.2.10,Win32,60,61025ae37ef11b136ea224fe,,,,,,,,,2366,62,27,1,0,0,response1disk,,6,-17,3,1,0,0,rectangle,-17,3,1,0,0,-17,3,1,0,0,1,56,216,22,1,,,,,,,,
,,,,,,,,,,,,,FF,,,,,,,,1.5138,,,,,,,,,,,,,,,,,,,,,,60fd54dcb1e2c1c546aa86b3,6103651d804dea9511c5231d,2021-07-30_12h47.26.040,Simcolourproject_2stim_asymm_v5,2020.2.10,Win32,60,61025ae37ef11b136ea224fe,,,,,,,,,2852,93,35,1,0,0,response1disk,,6,1,-6,1,0,0,rectangle,50,-87,1,0,0,3,1,1,0,0,1,57,217,57,1,,response3disk_3,TRUE,4,4,"[7,122,103,200,70,305,247,33,218,32,286,221,59,271,53,226,127,97,147,122]",2.3851,rectangle
,,,,,,,,,,,,,FF,,,,,,,,6.3138,,,,,,,,,,,,,,,,,,,,,,60fd54dcb1e2c1c546aa86b3,6103651d804dea9511c5231d,2021-07-30_12h47.26.040,Simcolourproject_2stim_asymm_v5,2020.2.10,Win32,60,61025ae37ef11b136ea224fe,,,,,,,,,1788,75,37,1,0,0,response1disk,,6,3,-2,1,0,0,rectangle,3,-2,1,0,0,3,-2,1,0,0,1,58,218,116,1,,,,,,,,
,,,,,,,,,,,,,FF,,,,,,,,1.4832,,,,,,,,,,,,,,,,,,,,,,60fd54dcb1e2c1c546aa86b3,6103651d804dea9511c5231d,2021-07-30_12h47.26.040,Simcolourproject_2stim_asymm_v5,2020.2.10,Win32,60,61025ae37ef11b136ea224fe,,,,,,,,,2379,-28,-80,1,0,0,response5disk,,3,8,-5,1,0,0,rectangle,8,-5,1,0,0,8,-5,1,0,0,1,59,219,91,1,,,,,,,,
,,,,,,,,,,,,,FF,,,,,,,,2.7129,,,,,,,,,,,,,,,,,,,,,,60fd54dcb1e2c1c546aa86b3,6103651d804dea9511c5231d,2021-07-30_12h47.26.040,Simcolourproject_2stim_asymm_v5,2020.2.10,Win32,60,61025ae37ef11b136ea224fe,,,,,,,,,572,101,34,1,0,0,response1disk,,6,20,-2,1,0,0,rectangle,-45,88,1,0,0,5,5,1,0,0,1,60,220,121,1,,response7disk_3,TRUE,0,0,"[7,122,103,200,70,305,247,33,218,32,286,221,59,271,53,226,127,97,147,122]",2.7558,rectangle
,,,,,,,,,,,,,FF,,,,,,,,2.1484,,,,,,,,,,,,,,,,,,,,,,60fd54dcb1e2c1c546aa86b3,6103651d804dea9511c5231d,2021-07-30_12h47.26.040,Simcolourproject_2stim_asymm_v5,2020.2.10,Win32,60,61025ae37ef11b136ea224fe,,,,,,,,,2339,88,-41,1,0,0,response3disk,,5,15,6,1,0,0,rectangle,15,6,1,0,0,15,6,1,0,0,1,61,221,102,1,,,,,,,,
,,,,,,,,,,,,,FF,,,,,,,,2.6329,,,,,,,,,,,,,,,,,,,,,,60fd54dcb1e2c1c546aa86b3,6103651d804dea9511c5231d,2021-07-30_12h47.26.040,Simcolourproject_2stim_asymm_v5,2020.2.10,Win32,60,61025ae37ef11b136ea224fe,,,,,,,,,3525,41,-96,1,0,0,response3disk,,4,9,6,1,0,0,rectangle,9,6,1,0,0,9,6,1,0,0,1,62,222,35,1,,,,,,,,
,,,,,,,,,,,,,FF,,,,,,,,2.2986,,,,,,,,,,,,,,,,,,,,,,60fd54dcb1e2c1c546aa86b3,6103651d804dea9511c5231d,2021-07-30_12h47.26.040,Simcolourproject_2stim_asymm_v5,2020.2.10,Win32,60,61025ae37ef11b136ea224fe,,,,,,,,,1914,82,-29,1,0,0,response3disk,,5,-6,9,1,0,0,rectangle,-6,9,1,0,0,-6,9,1,0,0,1,63,223,36,1,,,,,,,,
,,,,,,,,,,,,,FF,,,,,,,,1.8177,,,,,,,,,,,,,,,,,,,,,,60fd54dcb1e2c1c546aa86b3,6103651d804dea9511c5231d,2021-07-30_12h47.26.040,Simcolourproject_2stim_asymm_v5,2020.2.10,Win32,60,61025ae37ef11b136ea224fe,,,,,,,,,1557,99,24,1,0,0,response1disk,,6,28,7,1,0,0,rectangle,28,7,1,0,0,28,7,1,0,0,1,64,224,25,1,,,,,,,,
,,,,,,,,,,,,,FF,,,,,,,,1.549,,,,,,,,,,,,,,,,,,,,,,60fd54dcb1e2c1c546aa86b3,6103651d804dea9511c5231d,2021-07-30_12h47.26.040,Simcolourproject_2stim_asymm_v5,2020.2.10,Win32,60,61025ae37ef11b136ea224fe,,,,,,,,,2250,39,-64,1,0,0,response3disk,,4,15,2,1,0,0,rectangle,31,-87,1,0,0,-9,-5,1,0,0,1,65,225,41,1,,response3disk_3,TRUE,4,4,"[7,122,103,200,70,305,247,33,218,32,286,221,59,271,53,226,127,97,147,122]",2.3142,rectangle
,,,,,,,,,,,,,FF,,,,,,,,1.3179,,,,,,,,,,,,,,,,,,,,,,60fd54dcb1e2c1c546aa86b3,6103651d804dea9511c5231d,2021-07-30_12h47.26.040,Simcolourproject_2stim_asymm_v5,2020.2.10,Win32,60,61025ae37ef11b136ea224fe,,,,,,,,,2081,91,-40,1,0,0,response3disk,,5,-9,10,1,0,0,rectangle,-9,10,1,0,0,-9,10,1,0,0,1,66,226,64,1,,,,,,,,
,,,,,,,,,,,,,FF,,,,,,,,2.0163,,,,,,,,,,,,,,,,,,,,,,60fd54dcb1e2c1c546aa86b3,6103651d804dea9511c5231d,2021-07-30_12h47.26.040,Simcolourproject_2stim_asymm_v5,2020.2.10,Win32,60,61025ae37ef11b136ea224fe,,,,,,,,,207,86,65,1,0,0,response1disk,,6,2,13,1,0,0,rectangle,2,13,1,0,0,2,13,1,0,0,1,67,227,135,1,,,,,,,,
,,,,,,,,,,,,,FF,,,,,,,,1.3974,,,,,,,,,,,,,,,,,,,,,,60fd54dcb1e2c1c546aa86b3,6103651d804dea9511c5231d,2021-07-30_12h47.26.040,Simcolourproject_2stim_asymm_v5,2020.2.10,Win32,60,61025ae37ef11b136ea224fe,,,,,,,,,761,51,21,1,0,0,response1disk,,6,-6,13,1,0,0,rectangle,-6,13,1,0,0,-6,13,1,0,0,1,68,228,101,1,,,,,,,,
,,,,,,,,,,,,,FF,,,,,,,,2.7471,,,,,,,,,,,,,,,,,,,,,,60fd54dcb1e2c1c546aa86b3,6103651d804dea9511c5231d,2021-07-30_12h47.26.040,Simcolourproject_2stim_asymm_v5,2020.2.10,Win32,60,61025ae37ef11b136ea224fe,,,,,,,,,2978,40,59,1,0,0,response1disk,,7,-5,-3,1,0,0,rectangle,-5,-3,1,0,0,-5,-3,1,0,0,1,69,229,59,1,,,,,,,,
,,,,,,,,,,,,,FF,,,,,,,,1.099,,,,,,,,,,,,,,,,,,,,,,60fd54dcb1e2c1c546aa86b3,6103651d804dea9511c5231d,2021-07-30_12h47.26.040,Simcolourproject_2stim_asymm_v5,2020.2.10,Win32,60,61025ae37ef11b136ea224fe,,,,,,,,,415,86,38,1,0,0,response1disk,,6,2,2,1,0,0,rectangle,2,2,1,0,0,2,2,1,0,0,1,70,230,24,1,,,,,,,,
,,,,,,,,,,,,,FF,,,,,,,,2.0656,,,,,,,,,,,,,,,,,,,,,,60fd54dcb1e2c1c546aa86b3,6103651d804dea9511c5231d,2021-07-30_12h47.26.040,Simcolourproject_2stim_asymm_v5,2020.2.10,Win32,60,61025ae37ef11b136ea224fe,,,,,,,,,3619,54,74,1,0,0,response1disk,,7,9,-3,1,0,0,rectangle,9,-3,1,0,0,9,-3,1,0,0,1,71,231,49,1,,,,,,,,
,,,,,,,,,,,,,FF,,,,,,,,1.3183,,,,,,,,,,,,,,,,,,,,,,60fd54dcb1e2c1c546aa86b3,6103651d804dea9511c5231d,2021-07-30_12h47.26.040,Simcolourproject_2stim_asymm_v5,2020.2.10,Win32,60,61025ae37ef11b136ea224fe,,,,,,,,,587,26,44,1,0,0,response1disk,,7,-7,-9,1,0,0,rectangle,-7,-9,1,0,0,-7,-9,1,0,0,1,72,232,124,1,,,,,,,,
,,,,,,,,,,,,,FF,,,,,,,,1.5805,,,,,,,,,,,,,,,,,,,,,,60fd54dcb1e2c1c546aa86b3,6103651d804dea9511c5231d,2021-07-30_12h47.26.040,Simcolourproject_2stim_asymm_v5,2020.2.10,Win32,60,61025ae37ef11b136ea224fe,,,,,,,,,374,-78,-42,1,0,0,response5disk,,2,-4,1,1,0,0,rectangle,-4,1,1,0,0,-4,1,1,0,0,1,73,233,67,1,,,,,,,,
,,,,,,,,,,,,,FF,,,,,,,,1.0502,,,,,,,,,,,,,,,,,,,,,,60fd54dcb1e2c1c546aa86b3,6103651d804dea9511c5231d,2021-07-30_12h47.26.040,Simcolourproject_2stim_asymm_v5,2020.2.10,Win32,60,61025ae37ef11b136ea224fe,,,,,,,,,785,-58,-101,1,0,0,response5disk,,3,17,-6,1,0,0,rectangle,17,-6,1,0,0,17,-6,1,0,0,1,74,234,33,1,,,,,,,,
,,,,,,,,,,,,,FF,,,,,,,,2.6303,,,,,,,,,,,,,,,,,,,,,,60fd54dcb1e2c1c546aa86b3,6103651d804dea9511c5231d,2021-07-30_12h47.26.040,Simcolourproject_2stim_asymm_v5,2020.2.10,Win32,60,61025ae37ef11b136ea224fe,,,,,,,,,619,-84,20,1,0,0,response7disk,,1,0,-2,1,0,0,rectangle,0,-2,1,0,0,0,-2,1,0,0,1,75,235,123,1,,,,,,,,
,,,,,,,,,,,,,FF,,,,,,,,1.3329,,,,,,,,,,,,,,,,,,,,,,60fd54dcb1e2c1c546aa86b3,6103651d804dea9511c5231d,2021-07-30_12h47.26.040,Simcolourproject_2stim_asymm_v5,2020.2.10,Win32,60,61025ae37ef11b136ea224fe,,,,,,,,,452,86,35,1,0,0,response1disk,,6,-1,-2,1,0,0,rectangle,-1,-2,1,0,0,-1,-2,1,0,0,1,76,236,44,1,,,,,,,,
,,,,,,,,,,,,,FF,,,,,,,,1.8686,,,,,,,,,,,,,,,,,,,,,,60fd54dcb1e2c1c546aa86b3,6103651d804dea9511c5231d,2021-07-30_12h47.26.040,Simcolourproject_2stim_asymm_v5,2020.2.10,Win32,60,61025ae37ef11b136ea224fe,,,,,,,,,1009,16,46,1,0,0,response1disk,,7,-5,1,1,0,0,rectangle,-5,1,1,0,0,-5,1,1,0,0,1,77,237,27,1,,,,,,,,
,,,,,,,,,,,,,FF,,,,,,,,2.184,,,,,,,,,,,,,,,,,,,,,,60fd54dcb1e2c1c546aa86b3,6103651d804dea9511c5231d,2021-07-30_12h47.26.040,Simcolourproject_2stim_asymm_v5,2020.2.10,Win32,60,61025ae37ef11b136ea224fe,,,,,,,,,2935,-41,-93,1,0,0,response5disk,,3,-1,-5,1,0,0,rectangle,-1,-5,1,0,0,-1,-5,1,0,0,1,78,238,1,1,,,,,,,,
,,,,,,,,,,,,,FF,,,,,,,,1.3665,,,,,,,,,,,,,,,,,,,,,,60fd54dcb1e2c1c546aa86b3,6103651d804dea9511c5231d,2021-07-30_12h47.26.040,Simcolourproject_2stim_asymm_v5,2020.2.10,Win32,60,61025ae37ef11b136ea224fe,,,,,,,,,3371,92,-22,1,0,0,response3disk,,5,8,-5,1,0,0,rectangle,8,-5,1,0,0,8,-5,1,0,0,1,79,239,0,1,,,,,,,,
,,,,,,,,,,,,,FF,,,,,,,,1.6985,,,,,,,,,,,,,,,,,,,,,,60fd54dcb1e2c1c546aa86b3,6103651d804dea9511c5231d,2021-07-30_12h47.26.040,Simcolourproject_2stim_asymm_v5,2020.2.10,Win32,60,61025ae37ef11b136ea224fe,,,,,,,,,4008,54,-36,1,0,0,response3disk,,5,-3,-2,1,0,0,rectangle,-3,-2,1,0,0,-3,-2,1,0,0,1,80,240,141,1,,,,,,,,
,,,,,,,,,,,,,FF,,,,,,,,1.1487,,,,,,,,,,,,,,,,,,,,,,60fd54dcb1e2c1c546aa86b3,6103651d804dea9511c5231d,2021-07-30_12h47.26.040,Simcolourproject_2stim_asymm_v5,2020.2.10,Win32,60,61025ae37ef11b136ea224fe,,,,,,,,,729,-45,-105,1,0,0,response5disk,,3,-2,9,1,0,0,rectangle,-2,9,1,0,0,-2,9,1,0,0,1,81,241,96,1,,,,,,,,
,,,,,,,,,,,,,FF,,,,,,,,1.6314,,,,,,,,,,,,,,,,,,,,,,60fd54dcb1e2c1c546aa86b3,6103651d804dea9511c5231d,2021-07-30_12h47.26.040,Simcolourproject_2stim_asymm_v5,2020.2.10,Win32,60,61025ae37ef11b136ea224fe,,,,,,,,,1688,-78,-26,1,0,0,response5disk,,2,0,0,1,0,0,rectangle,0,0,1,0,0,0,0,1,0,0,1,82,242,66,1,,,,,,,,
,,,,,,,,,,,,,FF,,,,,,,,1.2163,,,,,,,,,,,,,,,,,,,,,,60fd54dcb1e2c1c546aa86b3,6103651d804dea9511c5231d,2021-07-30_12h47.26.040,Simcolourproject_2stim_asymm_v5,2020.2.10,Win32,60,61025ae37ef11b136ea224fe,,,,,,,,,2360,-66,34,1,0,0,response7disk,,1,-2,7,1,0,0,rectangle,-2,7,1,0,0,-2,7,1,0,0,1,83,243,81,1,,,,,,,,
,,,,,,,,,,,,,FF,,,,,,,,1.4653,,,,,,,,,,,,,,,,,,,,,,60fd54dcb1e2c1c546aa86b3,6103651d804dea9511c5231d,2021-07-30_12h47.26.040,Simcolourproject_2stim_asymm_v5,2020.2.10,Win32,60,61025ae37ef11b136ea224fe,,,,,,,,,3214,60,-35,1,0,0,response3disk,,5,1,-3,1,0,0,rectangle,1,-3,1,0,0,1,-3,1,0,0,1,84,244,117,1,,,,,,,,
,,,,,,,,,,,,,FF,,,,,,,,1.5156,,,,,,,,,,,,,,,,,,,,,,60fd54dcb1e2c1c546aa86b3,6103651d804dea9511c5231d,2021-07-30_12h47.26.040,Simcolourproject_2stim_asymm_v5,2020.2.10,Win32,60,61025ae37ef11b136ea224fe,,,,,,,,,2624,60,41,1,0,0,response1disk,,6,5,1,1,0,0,rectangle,5,1,1,0,0,5,1,1,0,0,1,85,245,31,1,,,,,,,,
,,,,,,,,,,,,,FF,,,,,,,,2.1163,,,,,,,,,,,,,,,,,,,,,,60fd54dcb1e2c1c546aa86b3,6103651d804dea9511c5231d,2021-07-30_12h47.26.040,Simcolourproject_2stim_asymm_v5,2020.2.10,Win32,60,61025ae37ef11b136ea224fe,,,,,,,,,3949,23,-86,1,0,0,response3disk,,4,3,3,1,0,0,rectangle,-39,-75,1,0,0,-4,-2,1,0,0,1,86,246,9,1,,response5disk_3,TRUE,3,3,"[7,122,103,200,70,305,247,33,218,32,286,221,59,271,53,226,127,97,147,122]",3.1146,rectangle
,,,,,,,,,,,,,FF,,,,,,,,2.1014,,,,,,,,,,,,,,,,,,,,,,60fd54dcb1e2c1c546aa86b3,6103651d804dea9511c5231d,2021-07-30_12h47.26.040,Simcolourproject_2stim_asymm_v5,2020.2.10,Win32,60,61025ae37ef11b136ea224fe,,,,,,,,,2778,-78,-41,1,0,0,response5disk,,2,10,-3,1,0,0,rectangle,10,-3,1,0,0,10,-3,1,0,0,1,87,247,77,1,,,,,,,,
,,,,,,,,,,,,,FF,,,,,,,,1.7463,,,,,,,,,,,,,,,,,,,,,,60fd54dcb1e2c1c546aa86b3,6103651d804dea9511c5231d,2021-07-30_12h47.26.040,Simcolourproject_2stim_asymm_v5,2020.2.10,Win32,60,61025ae37ef11b136ea224fe,,,,,,,,,2238,-26,-94,1,0,0,response5disk,,3,4,0,1,0,0,rectangle,4,0,1,0,0,4,0,1,0,0,1,88,248,2,1,,,,,,,,
,,,,,,,,,,,,,FF,,,,,,,,1.4175,,,,,,,,,,,,,,,,,,,,,,60fd54dcb1e2c1c546aa86b3,6103651d804dea9511c5231d,2021-07-30_12h47.26.040,Simcolourproject_2stim_asymm_v5,2020.2.10,Win32,60,61025ae37ef11b136ea224fe,,,,,,,,,1326,41,-67,1,0,0,response3disk,,4,18,10,1,0,0,rectangle,18,10,1,0,0,18,10,1,0,0,1,89,249,52,1,,,,,,,,
,,,,,,,,,,,,,FF,,,,,,,,3.1484,,,,,,,,,,,,,,,,,,,,,,60fd54dcb1e2c1c546aa86b3,6103651d804dea9511c5231d,2021-07-30_12h47.26.040,Simcolourproject_2stim_asymm_v5,2020.2.10,Win32,60,61025ae37ef11b136ea224fe,,,,,,,,,1481,73,-52,1,0,0,response3disk,,5,2,-2,1,0,0,rectangle,2,-2,1,0,0,2,-2,1,0,0,1,90,250,120,1,,,,,,,,
,,,,,,,,,,,,,FF,,,,,,,,1.069,,,,,,,,,,,,,,,,,,,,,,60fd54dcb1e2c1c546aa86b3,6103651d804dea9511c5231d,2021-07-30_12h47.26.040,Simcolourproject_2stim_asymm_v5,2020.2.10,Win32,60,61025ae37ef11b136ea224fe,,,,,,,,,2247,91,-20,1,0,0,response3disk,,5,3,5,1,0,0,rectangle,3,5,1,0,0,3,5,1,0,0,1,91,251,157,1,,,,,,,,
,,,,,,,,,,,,,FF,,,,,,,,1.3835,,,,,,,,,,,,,,,,,,,,,,60fd54dcb1e2c1c546aa86b3,6103651d804dea9511c5231d,2021-07-30_12h47.26.040,Simcolourproject_2stim_asymm_v5,2020.2.10,Win32,60,61025ae37ef11b136ea224fe,,,,,,,,,1856,63,79,1,0,0,response1disk,,7,8,15,1,0,0,rectangle,8,15,1,0,0,8,15,1,0,0,1,92,252,95,1,,,,,,,,
,,,,,,,,,,,,,FF,,,,,,,,3.3193,,,,,,,,,,,,,,,,,,,,,,60fd54dcb1e2c1c546aa86b3,6103651d804dea9511c5231d,2021-07-30_12h47.26.040,Simcolourproject_2stim_asymm_v5,2020.2.10,Win32,60,61025ae37ef11b136ea224fe,,,,,,,,,568,57,-75,1,0,0,response3disk,,4,8,4,1,0,0,rectangle,8,4,1,0,0,8,4,1,0,0,1,93,253,118,1,,,,,,,,
,,,,,,,,,,,,,FF,,,,,,,,2.133,,,,,,,,,,,,,,,,,,,,,,60fd54dcb1e2c1c546aa86b3,6103651d804dea9511c5231d,2021-07-30_12h47.26.040,Simcolourproject_2stim_asymm_v5,2020.2.10,Win32,60,61025ae37ef11b136ea224fe,,,,,,,,,1523,-26,-83,1,0,0,response5disk,,3,-6,-4,1,0,0,rectangle,-6,-4,1,0,0,-6,-4,1,0,0,1,94,254,126,1,,,,,,,,
,,,,,,,,,,,,,FF,,,,,,,,1.0655,,,,,,,,,,,,,,,,,,,,,,60fd54dcb1e2c1c546aa86b3,6103651d804dea9511c5231d,2021-07-30_12h47.26.040,Simcolourproject_2stim_asymm_v5,2020.2.10,Win32,60,61025ae37ef11b136ea224fe,,,,,,,,,4186,-49,-116,1,0,0,response5disk,,3,2,-1,1,0,0,rectangle,2,-1,1,0,0,2,-1,1,0,0,1,95,255,114,1,,,,,,,,
,,,,,,,,,,,,,FF,,,,,,,,1.3168,,,,,,,,,,,,,,,,,,,,,,60fd54dcb1e2c1c546aa86b3,6103651d804dea9511c5231d,2021-07-30_12h47.26.040,Simcolourproject_2stim_asymm_v5,2020.2.10,Win32,60,61025ae37ef11b136ea224fe,,,,,,,,,2949,104,40,1,0,0,response1disk,,6,17,10,1,0,0,rectangle,17,10,1,0,0,17,10,1,0,0,1,96,256,119,1,,,,,,,,
,,,,,,,,,,,,,FF,,,,,,,,1.6974,,,,,,,,,,,,,,,,,,,,,,60fd54dcb1e2c1c546aa86b3,6103651d804dea9511c5231d,2021-07-30_12h47.26.040,Simcolourproject_2stim_asymm_v5,2020.2.10,Win32,60,61025ae37ef11b136ea224fe,,,,,,,,,778,66,-50,1,0,0,response3disk,,5,7,-5,1,0,0,rectangle,7,-5,1,0,0,7,-5,1,0,0,1,97,257,115,1,,,,,,,,
,,,,,,,,,,,,,FF,,,,,,,,1.2023,,,,,,,,,,,,,,,,,,,,,,60fd54dcb1e2c1c546aa86b3,6103651d804dea9511c5231d,2021-07-30_12h47.26.040,Simcolourproject_2stim_asymm_v5,2020.2.10,Win32,60,61025ae37ef11b136ea224fe,,,,,,,,,291,35,-84,1,0,0,response3disk,,4,0,4,1,0,0,rectangle,0,4,1,0,0,0,4,1,0,0,1,98,258,150,1,,,,,,,,
,,,,,,,,,,,,,FF,,,,,,,,1.8354,,,,,,,,,,,,,,,,,,,,,,60fd54dcb1e2c1c546aa86b3,6103651d804dea9511c5231d,2021-07-30_12h47.26.040,Simcolourproject_2stim_asymm_v5,2020.2.10,Win32,60,61025ae37ef11b136ea224fe,,,,,,,,,1322,58,-43,1,0,0,response3disk,,5,0,9,1,0,0,rectangle,0,9,1,0,0,0,9,1,0,0,1,99,259,109,1,,,,,,,,
,,,,,,,,,,,,,FF,,,,,,,,1.2528,,,,,,,,,,,,,,,,,,,,,,60fd54dcb1e2c1c546aa86b3,6103651d804dea9511c5231d,2021-07-30_12h47.26.040,Simcolourproject_2stim_asymm_v5,2020.2.10,Win32,60,61025ae37ef11b136ea224fe,,,,,,,,,4157,62,24,1,0,0,response1disk,,6,-1,-1,1,0,0,rectangle,-1,-1,1,0,0,-1,-1,1,0,0,1,100,260,139,1,,,,,,,,
,,,,,,,,,,,,,FF,,,,,,,,1.6956,,,,,,,,,,,,,,,,,,,,,,60fd54dcb1e2c1c546aa86b3,6103651d804dea9511c5231d,2021-07-30_12h47.26.040,Simcolourproject_2stim_asymm_v5,2020.2.10,Win32,60,61025ae37ef11b136ea224fe,,,,,,,,,979,50,-66,1,0,0,response3disk,,4,5,2,1,0,0,rectangle,5,2,1,0,0,5,2,1,0,0,1,101,261,148,1,,,,,,,,
,,,,,,,,,,,,,FF,,,,,,,,1.55,,,,,,,,,,,,,,,,,,,,,,60fd54dcb1e2c1c546aa86b3,6103651d804dea9511c5231d,2021-07-30_12h47.26.040,Simcolourproject_2stim_asymm_v5,2020.2.10,Win32,60,61025ae37ef11b136ea224fe,,,,,,,,,1780,37,-54,1,0,0,response3disk,,4,2,4,1,0,0,rectangle,2,4,1,0,0,2,4,1,0,0,1,102,262,132,1,,,,,,,,
,,,,,,,,,,,,,FF,,,,,,,,1.7157,,,,,,,,,,,,,,,,,,,,,,60fd54dcb1e2c1c546aa86b3,6103651d804dea9511c5231d,2021-07-30_12h47.26.040,Simcolourproject_2stim_asymm_v5,2020.2.10,Win32,60,61025ae37ef11b136ea224fe,,,,,,,,,3567,18,-43,1,0,0,response3disk,,4,-4,-8,1,0,0,rectangle,-4,-8,1,0,0,-4,-8,1,0,0,1,103,263,145,1,,,,,,,,
,,,,,,,,,,,,,FF,,,,,,,,2.1832,,,,,,,,,,,,,,,,,,,,,,60fd54dcb1e2c1c546aa86b3,6103651d804dea9511c5231d,2021-07-30_12h47.26.040,Simcolourproject_2stim_asymm_v5,2020.2.10,Win32,60,61025ae37ef11b136ea224fe,,,,,,,,,751,96,44,1,0,0,response1disk,,6,14,-3,1,0,0,rectangle,14,-3,1,0,0,14,-3,1,0,0,1,104,264,106,1,,,,,,,,
,,,,,,,,,,,,,FF,,,,,,,,1.374,,,,,,,,,,,,,,,,,,,,,,60fd54dcb1e2c1c546aa86b3,6103651d804dea9511c5231d,2021-07-30_12h47.26.040,Simcolourproject_2stim_asymm_v5,2020.2.10,Win32,60,61025ae37ef11b136ea224fe,,,,,,,,,1605,-73,-36,1,0,0,response5disk,,2,1,4,1,0,0,rectangle,1,4,1,0,0,1,4,1,0,0,1,105,265,128,1,,,,,,,,
,,,,,,,,,,,,,FF,,,,,,,,4.0955,,,,,,,,,,,,,,,,,,,,,,60fd54dcb1e2c1c546aa86b3,6103651d804dea9511c5231d,2021-07-30_12h47.26.040,Simcolourproject_2stim_asymm_v5,2020.2.10,Win32,60,61025ae37ef11b136ea224fe,,,,,,,,,2410,29,-79,1,0,0,response3disk,,4,13,8,1,0,0,rectangle,13,8,1,0,0,13,8,1,0,0,1,106,266,17,1,,,,,,,,
,,,,,,,,,,,,,FF,,,,,,,,1.4182,,,,,,,,,,,,,,,,,,,,,,60fd54dcb1e2c1c546aa86b3,6103651d804dea9511c5231d,2021-07-30_12h47.26.040,Simcolourproject_2stim_asymm_v5,2020.2.10,Win32,60,61025ae37ef11b136ea224fe,,,,,,,,,985,26,-97,1,0,0,response3disk,,4,0,-5,1,0,0,rectangle,0,-5,1,0,0,0,-5,1,0,0,1,107,267,104,1,,,,,,,,
,,,,,,,,,,,,,FF,,,,,,,,1.5493,,,,,,,,,,,,,,,,,,,,,,60fd54dcb1e2c1c546aa86b3,6103651d804dea9511c5231d,2021-07-30_12h47.26.040,Simcolourproject_2stim_asymm_v5,2020.2.10,Win32,60,61025ae37ef11b136ea224fe,,,,,,,,,2611,105,-46,1,0,0,response3disk,,5,2,3,1,0,0,rectangle,2,3,1,0,0,2,3,1,0,0,1,108,268,54,1,,,,,,,,
,,,,,,,,,,,,,FF,,,,,,,,1.635,,,,,,,,,,,,,,,,,,,,,,60fd54dcb1e2c1c546aa86b3,6103651d804dea9511c5231d,2021-07-30_12h47.26.040,Simcolourproject_2stim_asymm_v5,2020.2.10,Win32,60,61025ae37ef11b136ea224fe,,,,,,,,,1645,30,74,1,0,0,response1disk,,7,6,-1,1,0,0,rectangle,6,-1,1,0,0,6,-1,1,0,0,1,109,269,69,1,,,,,,,,
,,,,,,,,,,,,,FF,,,,,,,,1.418,,,,,,,,,,,,,,,,,,,,,,60fd54dcb1e2c1c546aa86b3,6103651d804dea9511c5231d,2021-07-30_12h47.26.040,Simcolourproject_2stim_asymm_v5,2020.2.10,Win32,60,61025ae37ef11b136ea224fe,,,,,,,,,772,89,36,1,0,0,response1disk,,6,18,0,1,0,0,rectangle,-59,29,1,0,0,-7,-4,1,0,0,1,110,270,6,1,,response7disk_3,TRUE,1,1,"[7,122,103,200,70,305,247,33,218,32,286,221,59,271,53,226,127,97,147,122]",2.2528,rectangle
,,,,,,,,,,,,,FF,,,,,,,,8.9747,,,,,,,,,,,,,,,,,,,,,,60fd54dcb1e2c1c546aa86b3,6103651d804dea9511c5231d,2021-07-30_12h47.26.040,Simcolourproject_2stim_asymm_v5,2020.2.10,Win32,60,61025ae37ef11b136ea224fe,,,,,,,,,1845,41,-98,1,0,0,response3disk,,4,-1,-5,1,0,0,rectangle,-1,-5,1,0,0,-1,-5,1,0,0,1,111,271,94,1,,,,,,,,
,,,,,,,,,,,,,FF,,,,,,,,2.0812,,,,,,,,,,,,,,,,,,,,,,60fd54dcb1e2c1c546aa86b3,6103651d804dea9511c5231d,2021-07-30_12h47.26.040,Simcolourproject_2stim_asymm_v5,2020.2.10,Win32,60,61025ae37ef11b136ea224fe,,,,,,,,,1732,75,47,1,0,0,response1disk,,6,18,-2,1,0,0,rectangle,18,-2,1,0,0,18,-2,1,0,0,1,112,272,98,1,,,,,,,,
,,,,,,,,,,,,,FF,,,,,,,,2.1967,,,,,,,,,,,,,,,,,,,,,,60fd54dcb1e2c1c546aa86b3,6103651d804dea9511c5231d,2021-07-30_12h47.26.040,Simcolourproject_2stim_asymm_v5,2020.2.10,Win32,60,61025ae37ef11b136ea224fe,,,,,,,,,549,-41,-72,1,0,0,response5disk,,3,-6,-3,1,0,0,rectangle,-6,-3,1,0,0,-6,-3,1,0,0,1,113,273,144,1,,,,,,,,
,,,,,,,,,,,,,FF,,,,,,,,2.615,,,,,,,,,,,,,,,,,,,,,,60fd54dcb1e2c1c546aa86b3,6103651d804dea9511c5231d,2021-07-30_12h47.26.040,Simcolourproject_2stim_asymm_v5,2020.2.10,Win32,60,61025ae37ef11b136ea224fe,,,,,,,,,2998,-99,-48,1,0,0,response5disk,,2,-3,6,1,0,0,rectangle,-3,6,1,0,0,-3,6,1,0,0,1,114,274,12,1,,,,,,,,
,,,,,,,,,,,,,FF,,,,,,,,1.2329,,,,,,,,,,,,,,,,,,,,,,60fd54dcb1e2c1c546aa86b3,6103651d804dea9511c5231d,2021-07-30_12h47.26.040,Simcolourproject_2stim_asymm_v5,2020.2.10,Win32,60,61025ae37ef11b136ea224fe,,,,,,,,,2146,79,28,1,0,0,response1disk,,6,-3,-3,1,0,0,rectangle,-3,-3,1,0,0,-3,-3,1,0,0,1,115,275,30,1,,,,,,,,
,,,,,,,,,,,,,FF,,,,,,,,1.6164,,,,,,,,,,,,,,,,,,,,,,60fd54dcb1e2c1c546aa86b3,6103651d804dea9511c5231d,2021-07-30_12h47.26.040,Simcolourproject_2stim_asymm_v5,2020.2.10,Win32,60,61025ae37ef11b136ea224fe,,,,,,,,,3980,17,-92,1,0,0,response3disk,,4,-11,-7,1,0,0,rectangle,-11,-7,1,0,0,-11,-7,1,0,0,1,116,276,20,1,,,,,,,,
,,,,,,,,,,,,,FF,,,,,,,,1.6822,,,,,,,,,,,,,,,,,,,,,,60fd54dcb1e2c1c546aa86b3,6103651d804dea9511c5231d,2021-07-30_12h47.26.040,Simcolourproject_2stim_asymm_v5,2020.2.10,Win32,60,61025ae37ef11b136ea224fe,,,,,,,,,3681,36,-60,1,0,0,response3disk,,4,5,-3,1,0,0,rectangle,5,-3,1,0,0,5,-3,1,0,0,1,117,277,58,1,,,,,,,,
,,,,,,,,,,,,,FF,,,,,,,,1.5642,,,,,,,,,,,,,,,,,,,,,,60fd54dcb1e2c1c546aa86b3,6103651d804dea9511c5231d,2021-07-30_12h47.26.040,Simcolourproject_2stim_asymm_v5,2020.2.10,Win32,60,61025ae37ef11b136ea224fe,,,,,,,,,3737,74,46,1,0,0,response1disk,,6,2,1,1,0,0,rectangle,2,1,1,0,0,2,1,1,0,0,1,118,278,125,1,,,,,,,,
,,,,,,,,,,,,,FF,,,,,,,,2.997,,,,,,,,,,,,,,,,,,,,,,60fd54dcb1e2c1c546aa86b3,6103651d804dea9511c5231d,2021-07-30_12h47.26.040,Simcolourproject_2stim_asymm_v5,2020.2.10,Win32,60,61025ae37ef11b136ea224fe,,,,,,,,,424,64,41,1,0,0,response1disk,,6,2,6,1,0,0,rectangle,2,6,1,0,0,2,6,1,0,0,1,119,279,152,1,,,,,,,,
,,,,,,,,,,,,,FF,,,,,,,,1.2162,,,,,,,,,,,,,,,,,,,,,,60fd54dcb1e2c1c546aa86b3,6103651d804dea9511c5231d,2021-07-30_12h47.26.040,Simcolourproject_2stim_asymm_v5,2020.2.10,Win32,60,61025ae37ef11b136ea224fe,,,,,,,,,3338,63,32,1,0,0,response1disk,,6,-2,-8,1,0,0,rectangle,-2,-8,1,0,0,-2,-8,1,0,0,1,120,280,140,1,,,,,,,,
,,,,,,,,,,,,,FF,,,,,,,,2.8655,,,,,,,,,,,,,,,,,,,,,,60fd54dcb1e2c1c546aa86b3,6103651d804dea9511c5231d,2021-07-30_12h47.26.040,Simcolourproject_2stim_asymm_v5,2020.2.10,Win32,60,61025ae37ef11b136ea224fe,,,,,,,,,1995,41,81,1,0,0,response1disk,,7,11,-8,1,0,0,rectangle,11,-8,1,0,0,11,-8,1,0,0,1,121,281,16,1,,,,,,,,
,,,,,,,,,,,,,FF,,,,,,,,1.1657,,,,,,,,,,,,,,,,,,,,,,60fd54dcb1e2c1c546aa86b3,6103651d804dea9511c5231d,2021-07-30_12h47.26.040,Simcolourproject_2stim_asymm_v5,2020.2.10,Win32,60,61025ae37ef11b136ea224fe,,,,,,,,,159,27,-57,1,0,0,response3disk,,4,7,-8,1,0,0,rectangle,7,-8,1,0,0,7,-8,1,0,0,1,122,282,51,1,,,,,,,,
,,,,,,,,,,,,,FF,,,,,,,,1.1338,,,,,,,,,,,,,,,,,,,,,,60fd54dcb1e2c1c546aa86b3,6103651d804dea9511c5231d,2021-07-30_12h47.26.040,Simcolourproject_2stim_asymm_v5,2020.2.10,Win32,60,61025ae37ef11b136ea224fe,,,,,,,,,3367,119,47,1,0,0,response1disk,,6,4,5,1,0,0,rectangle,4,5,1,0,0,4,5,1,0,0,1,123,283,78,1,,,,,,,,
,,,,,,,,,,,,,FF,,,,,,,,1.6167,,,,,,,,,,,,,,,,,,,,,,60fd54dcb1e2c1c546aa86b3,6103651d804dea9511c5231d,2021-07-30_12h47.26.040,Simcolourproject_2stim_asymm_v5,2020.2.10,Win32,60,61025ae37ef11b136ea224fe,,,,,,,,,1294,-61,-40,1,0,0,response5disk,,2,-1,-6,1,0,0,rectangle,-1,-6,1,0,0,-1,-6,1,0,0,1,124,284,10,1,,,,,,,,
,,,,,,,,,,,,,FF,,,,,,,,1.8645,,,,,,,,,,,,,,,,,,,,,,60fd54dcb1e2c1c546aa86b3,6103651d804dea9511c5231d,2021-07-30_12h47.26.040,Simcolourproject_2stim_asymm_v5,2020.2.10,Win32,60,61025ae37ef11b136ea224fe,,,,,,,,,797,29,-70,1,0,0,response3disk,,4,9,-3,1,0,0,rectangle,84,-32,1,0,0,15,-7,1,0,0,1,125,285,38,1,,response3disk_3,TRUE,5,5,"[7,122,103,200,70,305,247,33,218,32,286,221,59,271,53,226,127,97,147,122]",2.4474,rectangle
,,,,,,,,,,,,,FF,,,,,,,,2.1854,,,,,,,,,,,,,,,,,,,,,,60fd54dcb1e2c1c546aa86b3,6103651d804dea9511c5231d,2021-07-30_12h47.26.040,Simcolourproject_2stim_asymm_v5,2020.2.10,Win32,60,61025ae37ef11b136ea224fe,,,,,,,,,3492,46,-34,1,0,0,response3disk,,5,6,-8,1,0,0,rectangle,6,-8,1,0,0,6,-8,1,0,0,1,126,286,53,1,,,,,,,,
,,,,,,,,,,,,,FF,,,,,,,,4.1316,,,,,,,,,,,,,,,,,,,,,,60fd54dcb1e2c1c546aa86b3,6103651d804dea9511c5231d,2021-07-30_12h47.26.040,Simcolourproject_2stim_asymm_v5,2020.2.10,Win32,60,61025ae37ef11b136ea224fe,,,,,,,,,1028,89,-48,1,0,0,response3disk,,5,7,-15,1,0,0,rectangle,7,-15,1,0,0,7,-15,1,0,0,1,127,287,93,1,,,,,,,,
,,,,,,,,,,,,,FF,,,,,,,,1.5821,,,,,,,,,,,,,,,,,,,,,,60fd54dcb1e2c1c546aa86b3,6103651d804dea9511c5231d,2021-07-30_12h47.26.040,Simcolourproject_2stim_asymm_v5,2020.2.10,Win32,60,61025ae37ef11b136ea224fe,,,,,,,,,145,90,-44,1,0,0,response3disk,,5,-2,9,1,0,0,rectangle,-2,9,1,0,0,-2,9,1,0,0,1,128,288,151,1,,,,,,,,
,,,,,,,,,,,,,FF,,,,,,,,2.1798,,,,,,,,,,,,,,,,,,,,,,60fd54dcb1e2c1c546aa86b3,6103651d804dea9511c5231d,2021-07-30_12h47.26.040,Simcolourproject_2stim_asymm_v5,2020.2.10,Win32,60,61025ae37ef11b136ea224fe,,,,,,,,,2262,28,-76,1,0,0,response3disk,,4,-5,-7,1,0,0,rectangle,-5,-7,1,0,0,-5,-7,1,0,0,1,129,289,32,1,,,,,,,,
,,,,,,,,,,,,,FF,,,,,,,,1.5119,,,,,,,,,,,,,,,,,,,,,,60fd54dcb1e2c1c546aa86b3,6103651d804dea9511c5231d,2021-07-30_12h47.26.040,Simcolourproject_2stim_asymm_v5,2020.2.10,Win32,60,61025ae37ef11b136ea224fe,,,,,,,,,2575,60,34,1,0,0,response1disk,,6,19,2,1,0,0,rectangle,19,2,1,0,0,19,2,1,0,0,1,130,290,134,1,,,,,,,,
,,,,,,,,,,,,,FF,,,,,,,,2.215,,,,,,,,,,,,,,,,,,,,,,60fd54dcb1e2c1c546aa86b3,6103651d804dea9511c5231d,2021-07-30_12h47.26.040,Simcolourproject_2stim_asymm_v5,2020.2.10,Win32,60,61025ae37ef11b136ea224fe,,,,,,,,,4056,16,-54,1,0,0,response3disk,,4,-3,-6,1,0,0,rectangle,-3,-6,1,0,0,-3,-6,1,0,0,1,131,291,83,1,,,,,,,,
,,,,,,,,,,,,,FF,,,,,,,,1.0996,,,,,,,,,,,,,,,,,,,,,,60fd54dcb1e2c1c546aa86b3,6103651d804dea9511c5231d,2021-07-30_12h47.26.040,Simcolourproject_2stim_asymm_v5,2020.2.10,Win32,60,61025ae37ef11b136ea224fe,,,,,,,,,295,74,29,1,0,0,response1disk,,6,-20,-9,1,0,0,rectangle,-20,-9,1,0,0,-20,-9,1,0,0,1,132,292,13,1,,,,,,,,
,,,,,,,,,,,,,FF,,,,,,,,1.8155,,,,,,,,,,,,,,,,,,,,,,60fd54dcb1e2c1c546aa86b3,6103651d804dea9511c5231d,2021-07-30_12h47.26.040,Simcolourproject_2stim_asymm_v5,2020.2.10,Win32,60,61025ae37ef11b136ea224fe,,,,,,,,,293,50,41,1,0,0,response1disk,,6,1,1,1,0,0,rectangle,1,1,1,0,0,1,1,1,0,0,1,133,293,86,1,,,,,,,,
,,,,,,,,,,,,,FF,,,,,,,,1.3653,,,,,,,,,,,,,,,,,,,,,,60fd54dcb1e2c1c546aa86b3,6103651d804dea9511c5231d,2021-07-30_12h47.26.040,Simcolourproject_2stim_asymm_v5,2020.2.10,Win32,60,61025ae37ef11b136ea224fe,,,,,,,,,2323,44,-72,1,0,0,response3disk,,4,1,-3,1,0,0,rectangle,1,-3,1,0,0,1,-3,1,0,0,1,134,294,130,1,,,,,,,,
,,,,,,,,,,,,,FF,,,,,,,,3.0988,,,,,,,,,,,,,,,,,,,,,,60fd54dcb1e2c1c546aa86b3,6103651d804dea9511c5231d,2021-07-30_12h47.26.040,Simcolourproject_2stim_asymm_v5,2020.2.10,Win32,60,61025ae37ef11b136ea224fe,,,,,,,,,282,-83,-58,1,0,0,response5disk,,2,3,4,1,0,0,rectangle,3,4,1,0,0,3,4,1,0,0,1,135,295,154,1,,,,,,,,
,,,,,,,,,,,,,FF,,,,,,,,3.134,,,,,,,,,,,,,,,,,,,,,,60fd54dcb1e2c1c546aa86b3,6103651d804dea9511c5231d,2021-07-30_12h47.26.040,Simcolourproject_2stim_asymm_v5,2020.2.10,Win32,60,61025ae37ef11b136ea224fe,,,,,,,,,3311,-35,-79,1,0,0,response5disk,,3,-1,-5,1,0,0,rectangle,-1,-5,1,0,0,-1,-5,1,0,0,1,136,296,105,1,,,,,,,,
,,,,,,,,,,,,,FF,,,,,,,,1.4797,,,,,,,,,,,,,,,,,,,,,,60fd54dcb1e2c1c546aa86b3,6103651d804dea9511c5231d,2021-07-30_12h47.26.040,Simcolourproject_2stim_asymm_v5,2020.2.10,Win32,60,61025ae37ef11b136ea224fe,,,,,,,,,3694,67,43,1,0,0,response1disk,,6,-8,-11,1,0,0,rectangle,-8,-11,1,0,0,-8,-11,1,0,0,1,137,297,76,1,,,,,,,,
,,,,,,,,,,,,,FF,,,,,,,,2.1974,,,,,,,,,,,,,,,,,,,,,,60fd54dcb1e2c1c546aa86b3,6103651d804dea9511c5231d,2021-07-30_12h47.26.040,Simcolourproject_2stim_asymm_v5,2020.2.10,Win32,60,61025ae37ef11b136ea224fe,,,,,,,,,1895,-75,-43,1,0,0,response5disk,,2,11,-6,1,0,0,rectangle,11,-6,1,0,0,11,-6,1,0,0,1,138,298,11,1,,,,,,,,
,,,,,,,,,,,,,FF,,,,,,,,1.5686,,,,,,,,,,,,,,,,,,,,,,60fd54dcb1e2c1c546aa86b3,6103651d804dea9511c5231d,2021-07-30_12h47.26.040,Simcolourproject_2stim_asymm_v5,2020.2.10,Win32,60,61025ae37ef11b136ea224fe,,,,,,,,,1574,96,57,1,0,0,response1disk,,6,7,-7,1,0,0,rectangle,7,-7,1,0,0,7,-7,1,0,0,1,139,299,42,1,,,,,,,,
,,,,,,,,,,,,,FF,,,,,,,,1.2817,,,,,,,,,,,,,,,,,,,,,,60fd54dcb1e2c1c546aa86b3,6103651d804dea9511c5231d,2021-07-30_12h47.26.040,Simcolourproject_2stim_asymm_v5,2020.2.10,Win32,60,61025ae37ef11b136ea224fe,,,,,,,,,93,-76,45,1,0,0,response7disk,,1,-6,3,1,0,0,rectangle,-6,3,1,0,0,-6,3,1,0,0,1,140,300,23,1,,,,,,,,
,,,,,,,,,,,,,FF,,,,,,,,1.3353,,,,,,,,,,,,,,,,,,,,,,60fd54dcb1e2c1c546aa86b3,6103651d804dea9511c5231d,2021-07-30_12h47.26.040,Simcolourproject_2stim_asymm_v5,2020.2.10,Win32,60,61025ae37ef11b136ea224fe,,,,,,,,,1499,98,26,1,0,0,response1disk,,6,6,-5,1,0,0,rectangle,6,-5,1,0,0,6,-5,1,0,0,1,141,301,112,1,,,,,,,,
,,,,,,,,,,,,,FF,,,,,,,,1.8848,,,,,,,,,,,,,,,,,,,,,,60fd54dcb1e2c1c546aa86b3,6103651d804dea9511c5231d,2021-07-30_12h47.26.040,Simcolourproject_2stim_asymm_v5,2020.2.10,Win32,60,61025ae37ef11b136ea224fe,,,,,,,,,755,74,40,1,0,0,response1disk,,6,4,-3,1,0,0,rectangle,4,-3,1,0,0,4,-3,1,0,0,1,142,302,37,1,,,,,,,,
,,,,,,,,,,,,,FF,,,,,,,,1.929,,,,,,,,,,,,,,,,,,,,,,60fd54dcb1e2c1c546aa86b3,6103651d804dea9511c5231d,2021-07-30_12h47.26.040,Simcolourproject_2stim_asymm_v5,2020.2.10,Win32,60,61025ae37ef11b136ea224fe,,,,,,,,,1529,-92,-20,1,0,0,response5disk,,2,-6,-3,1,0,0,rectangle,-6,-3,1,0,0,-6,-3,1,0,0,1,143,303,99,1,,,,,,,,
