key_resp.keys,key_resp.rt,key_resp_14.keys,key_resp_14.rt,key_resp_15.keys,key_resp_15.rt,key_resp_17.keys,key_resp_17.rt,key_resp_9.keys,key_resp_9.rt,key_resp_10.keys,key_resp_10.rt,practice_comparison,Ecc,mouse_5.x,mouse_5.y,mouse_5.leftButton,mouse_5.midButton,mouse_5.rightButton,mouse_5.clicked_name,pracsimilarity,response_time,mouse_10.x,mouse_10.y,mouse_10.leftButton,mouse_10.midButton,mouse_10.rightButton,mouse_10.clicked_name,mouse_7.x,mouse_7.y,mouse_7.leftButton,mouse_7.midButton,mouse_7.rightButton,mouse_6.x,mouse_6.y,mouse_6.leftButton,mouse_6.midButton,mouse_6.rightButton,duringprac.thisRepN,duringprac.thisTrialN,duringprac.thisN,duringprac.thisIndex,duringprac.ran,participant,session,date,expName,psychopyVersion,OS,frameRate,study_id,mouse_7.clicked_name,catchpracsimilarity,catch_response_time,catchnumberprac,catchtrialorderprac,mouse_6.clicked_name,key_resp_22.keys,key_resp_22.rt,realcomparison,mouse.x,mouse.y,mouse.leftButton,mouse.midButton,mouse.rightButton,mouse.clicked_name,Colour2,similarity,mouse_2.x,mouse_2.y,mouse_2.leftButton,mouse_2.midButton,mouse_2.rightButton,mouse_2.clicked_name,mouse_3.x,mouse_3.y,mouse_3.leftButton,mouse_3.midButton,mouse_3.rightButton,mouse_11.x,mouse_11.y,mouse_11.leftButton,mouse_11.midButton,mouse_11.rightButton,trials_2.thisRepN,trials_2.thisTrialN,trials_2.thisN,trials_2.thisIndex,trials_2.ran,Colour1,mouse_3.clicked_name,catchornah,catchsimilarity,catchnumber,catchtrialorder,catchRT,mouse_11.clicked_name
space,9.517,space,1.572,space,10.395,space,7.025,space,0.67,space,8.619,56,PF,83,-26,1,0,0,response3disk_5,5,11.1,-8,-4,1,0,0,rectangle_8,-8,-4,1,0,0,-8,-4,1,0,0,0,0,0,1,1,60fde5cdab904cdcf81f2ccd,61036d564801fb346dd0fa63,2021-07-29_22h11.02.872,Simcolourproject_2stim_asymm_v5,2020.2.10,MacIntel,60,61025ae37ef11b136ea224fe,,,,,,,,,,,,,,,,,,,,,,,,,,,,,,,,,,,,,,,,,,,,,,
,,,,,,,,,,,,147,PF,100,36,1,0,0,response1disk_5,6,2.983,13,4,1,0,0,rectangle_8,101,46,1,0,0,13,-11,1,0,0,0,1,1,6,1,60fde5cdab904cdcf81f2ccd,61036d564801fb346dd0fa63,2021-07-29_22h11.02.872,Simcolourproject_2stim_asymm_v5,2020.2.10,MacIntel,60,61025ae37ef11b136ea224fe,response1disk_7,6,2.9,6,"[2,5]",rectangle_4,,,,,,,,,,,,,,,,,,,,,,,,,,,,,,,,,,,,,,,,
,,,,,,,,,,,,160,PF,67,-30,1,0,0,response3disk_5,5,2.182,7,1,1,0,0,rectangle_8,7,1,1,0,0,7,1,1,0,0,0,2,2,4,1,60fde5cdab904cdcf81f2ccd,61036d564801fb346dd0fa63,2021-07-29_22h11.02.872,Simcolourproject_2stim_asymm_v5,2020.2.10,MacIntel,60,61025ae37ef11b136ea224fe,,,,,,,,,,,,,,,,,,,,,,,,,,,,,,,,,,,,,,,,,,,,,,
,,,,,,,,,,,,73,PF,44,85,1,0,0,response1disk_5,7,1.699,-6,-7,1,0,0,rectangle_8,-6,-7,1,0,0,-6,-7,1,0,0,0,3,3,2,1,60fde5cdab904cdcf81f2ccd,61036d564801fb346dd0fa63,2021-07-29_22h11.02.872,Simcolourproject_2stim_asymm_v5,2020.2.10,MacIntel,60,61025ae37ef11b136ea224fe,,,,,,,,,,,,,,,,,,,,,,,,,,,,,,,,,,,,,,,,,,,,,,
,,,,,,,,,,,,150,FF,62,51,1,0,0,response1disk_5,6,2.766,15,-2,1,0,0,rectangle_8,90,39,1,0,0,1,5,1,0,0,0,4,4,3,1,60fde5cdab904cdcf81f2ccd,61036d564801fb346dd0fa63,2021-07-29_22h11.02.872,Simcolourproject_2stim_asymm_v5,2020.2.10,MacIntel,60,61025ae37ef11b136ea224fe,response1disk_7,6,2.116,6,"[2,5]",rectangle_4,,,,,,,,,,,,,,,,,,,,,,,,,,,,,,,,,,,,,,,,
,,,,,,,,,,,,23,FF,65,-40,1,0,0,response3disk_5,5,2.132,-5,7,1,0,0,rectangle_8,-5,7,1,0,0,-5,7,1,0,0,0,5,5,5,1,60fde5cdab904cdcf81f2ccd,61036d564801fb346dd0fa63,2021-07-29_22h11.02.872,Simcolourproject_2stim_asymm_v5,2020.2.10,MacIntel,60,61025ae37ef11b136ea224fe,,,,,,,,,,,,,,,,,,,,,,,,,,,,,,,,,,,,,,,,,,,,,,
,,,,,,,,,,,,122,FF,32,-65,1,0,0,response3disk_5,4,1.749,10,8,1,0,0,rectangle_8,10,8,1,0,0,10,8,1,0,0,0,6,6,0,1,60fde5cdab904cdcf81f2ccd,61036d564801fb346dd0fa63,2021-07-29_22h11.02.872,Simcolourproject_2stim_asymm_v5,2020.2.10,MacIntel,60,61025ae37ef11b136ea224fe,,,,,,,,,,,,,,,,,,,,,,,,,,,,,,,,,,,,,,,,,,,,,,
,,,,,,,,,,,,,FF,,,,,,,,4.818,,,,,,,,,,,,,,,,,,,,,,60fde5cdab904cdcf81f2ccd,61036d564801fb346dd0fa63,2021-07-29_22h11.02.872,Simcolourproject_2stim_asymm_v5,2020.2.10,MacIntel,60,61025ae37ef11b136ea224fe,,,,,,,space,3.013,3036,43,-61,1,0,0,response3disk,,4,11,10,1,0,0,rectangle,11,10,1,0,0,11,10,1,0,0,0,0,0,50,1,,,,,,,,
,,,,,,,,,,,,,FF,,,,,,,,4.283,,,,,,,,,,,,,,,,,,,,,,60fde5cdab904cdcf81f2ccd,61036d564801fb346dd0fa63,2021-07-29_22h11.02.872,Simcolourproject_2stim_asymm_v5,2020.2.10,MacIntel,60,61025ae37ef11b136ea224fe,,,,,,,,,167,-29,-95,1,0,0,response5disk,,3,19,8,1,0,0,rectangle,19,8,1,0,0,19,8,1,0,0,0,1,1,158,1,,,,,,,,
,,,,,,,,,,,,,FF,,,,,,,,2.516,,,,,,,,,,,,,,,,,,,,,,60fde5cdab904cdcf81f2ccd,61036d564801fb346dd0fa63,2021-07-29_22h11.02.872,Simcolourproject_2stim_asymm_v5,2020.2.10,MacIntel,60,61025ae37ef11b136ea224fe,,,,,,,,,4047,-38,-79,1,0,0,response5disk,,3,7,5,1,0,0,rectangle,7,5,1,0,0,7,5,1,0,0,0,2,2,143,1,,,,,,,,
,,,,,,,,,,,,,FF,,,,,,,,1.449,,,,,,,,,,,,,,,,,,,,,,60fde5cdab904cdcf81f2ccd,61036d564801fb346dd0fa63,2021-07-29_22h11.02.872,Simcolourproject_2stim_asymm_v5,2020.2.10,MacIntel,60,61025ae37ef11b136ea224fe,,,,,,,,,1661,43,-84,1,0,0,response3disk,,4,12,0,1,0,0,rectangle,12,0,1,0,0,12,0,1,0,0,0,3,3,7,1,,,,,,,,
,,,,,,,,,,,,,FF,,,,,,,,3.399,,,,,,,,,,,,,,,,,,,,,,60fde5cdab904cdcf81f2ccd,61036d564801fb346dd0fa63,2021-07-29_22h11.02.872,Simcolourproject_2stim_asymm_v5,2020.2.10,MacIntel,60,61025ae37ef11b136ea224fe,,,,,,,,,2714,28,-53,1,0,0,response3disk,,4,16,17,1,0,0,rectangle,16,17,1,0,0,16,17,1,0,0,0,4,4,108,1,,,,,,,,
,,,,,,,,,,,,,FF,,,,,,,,1.599,,,,,,,,,,,,,,,,,,,,,,60fde5cdab904cdcf81f2ccd,61036d564801fb346dd0fa63,2021-07-29_22h11.02.872,Simcolourproject_2stim_asymm_v5,2020.2.10,MacIntel,60,61025ae37ef11b136ea224fe,,,,,,,,,2007,68,38,1,0,0,response1disk,,6,-2,0,1,0,0,rectangle,30,-90,1,0,0,2,0,1,0,0,0,5,5,20,1,,response3disk_3,TRUE,4,4,"[74,151,184,129,88,269,274,275,244,289,314,242,14,6,111,162,271,146,91,24]",2.499,rectangle
,,,,,,,,,,,,,FF,,,,,,,,2.033,,,,,,,,,,,,,,,,,,,,,,60fde5cdab904cdcf81f2ccd,61036d564801fb346dd0fa63,2021-07-29_22h11.02.872,Simcolourproject_2stim_asymm_v5,2020.2.10,MacIntel,60,61025ae37ef11b136ea224fe,,,,,,,,,4098,69,-49,1,0,0,response3disk,,5,12,2,1,0,0,rectangle,12,2,1,0,0,12,2,1,0,0,0,6,6,27,1,,,,,,,,
,,,,,,,,,,,,,FF,,,,,,,,1.416,,,,,,,,,,,,,,,,,,,,,,60fde5cdab904cdcf81f2ccd,61036d564801fb346dd0fa63,2021-07-29_22h11.02.872,Simcolourproject_2stim_asymm_v5,2020.2.10,MacIntel,60,61025ae37ef11b136ea224fe,,,,,,,,,1559,82,36,1,0,0,response1disk,,6,10,-1,1,0,0,rectangle,10,-1,1,0,0,10,-1,1,0,0,0,7,7,119,1,,,,,,,,
,,,,,,,,,,,,,FF,,,,,,,,2.166,,,,,,,,,,,,,,,,,,,,,,60fde5cdab904cdcf81f2ccd,61036d564801fb346dd0fa63,2021-07-29_22h11.02.872,Simcolourproject_2stim_asymm_v5,2020.2.10,MacIntel,60,61025ae37ef11b136ea224fe,,,,,,,,,3125,34,67,1,0,0,response1disk,,7,18,4,1,0,0,rectangle,18,4,1,0,0,18,4,1,0,0,0,8,8,17,1,,,,,,,,
,,,,,,,,,,,,,FF,,,,,,,,1.916,,,,,,,,,,,,,,,,,,,,,,60fde5cdab904cdcf81f2ccd,61036d564801fb346dd0fa63,2021-07-29_22h11.02.872,Simcolourproject_2stim_asymm_v5,2020.2.10,MacIntel,60,61025ae37ef11b136ea224fe,,,,,,,,,3868,64,-50,1,0,0,response3disk,,5,13,-1,1,0,0,rectangle,13,-1,1,0,0,13,-1,1,0,0,0,9,9,149,1,,,,,,,,
,,,,,,,,,,,,,FF,,,,,,,,2.218,,,,,,,,,,,,,,,,,,,,,,60fde5cdab904cdcf81f2ccd,61036d564801fb346dd0fa63,2021-07-29_22h11.02.872,Simcolourproject_2stim_asymm_v5,2020.2.10,MacIntel,60,61025ae37ef11b136ea224fe,,,,,,,,,2801,93,39,1,0,0,response1disk,,6,12,-7,1,0,0,rectangle,12,-7,1,0,0,12,-7,1,0,0,0,10,10,97,1,,,,,,,,
,,,,,,,,,,,,,FF,,,,,,,,1.017,,,,,,,,,,,,,,,,,,,,,,60fde5cdab904cdcf81f2ccd,61036d564801fb346dd0fa63,2021-07-29_22h11.02.872,Simcolourproject_2stim_asymm_v5,2020.2.10,MacIntel,60,61025ae37ef11b136ea224fe,,,,,,,,,2745,79,32,1,0,0,response1disk,,6,-1,-18,1,0,0,rectangle,-1,-18,1,0,0,-1,-18,1,0,0,0,11,11,52,1,,,,,,,,
,,,,,,,,,,,,,FF,,,,,,,,1.866,,,,,,,,,,,,,,,,,,,,,,60fde5cdab904cdcf81f2ccd,61036d564801fb346dd0fa63,2021-07-29_22h11.02.872,Simcolourproject_2stim_asymm_v5,2020.2.10,MacIntel,60,61025ae37ef11b136ea224fe,,,,,,,,,2311,45,-31,1,0,0,response3disk,,5,9,3,1,0,0,rectangle,9,3,1,0,0,9,3,1,0,0,0,12,12,0,1,,,,,,,,
,,,,,,,,,,,,,FF,,,,,,,,1.75,,,,,,,,,,,,,,,,,,,,,,60fde5cdab904cdcf81f2ccd,61036d564801fb346dd0fa63,2021-07-29_22h11.02.872,Simcolourproject_2stim_asymm_v5,2020.2.10,MacIntel,60,61025ae37ef11b136ea224fe,,,,,,,,,2543,-49,-94,1,0,0,response5disk,,3,-4,-1,1,0,0,rectangle,96,-56,1,0,0,9,1,1,0,0,0,13,13,128,1,,response3disk_3,TRUE,5,5,"[74,151,184,129,88,269,274,275,244,289,314,242,14,6,111,162,271,146,91,24]",1.933,rectangle
,,,,,,,,,,,,,FF,,,,,,,,5.568,,,,,,,,,,,,,,,,,,,,,,60fde5cdab904cdcf81f2ccd,61036d564801fb346dd0fa63,2021-07-29_22h11.02.872,Simcolourproject_2stim_asymm_v5,2020.2.10,MacIntel,60,61025ae37ef11b136ea224fe,,,,,,,,,1659,76,26,1,0,0,response1disk,,6,25,-2,1,0,0,rectangle,25,-2,1,0,0,25,-2,1,0,0,0,14,14,139,1,,,,,,,,
,,,,,,,,,,,,,FF,,,,,,,,1.784,,,,,,,,,,,,,,,,,,,,,,60fde5cdab904cdcf81f2ccd,61036d564801fb346dd0fa63,2021-07-29_22h11.02.872,Simcolourproject_2stim_asymm_v5,2020.2.10,MacIntel,60,61025ae37ef11b136ea224fe,,,,,,,,,3254,80,-38,1,0,0,response3disk,,5,15,1,1,0,0,rectangle,15,1,1,0,0,15,1,1,0,0,0,15,15,34,1,,,,,,,,
,,,,,,,,,,,,,FF,,,,,,,,2.417,,,,,,,,,,,,,,,,,,,,,,60fde5cdab904cdcf81f2ccd,61036d564801fb346dd0fa63,2021-07-29_22h11.02.872,Simcolourproject_2stim_asymm_v5,2020.2.10,MacIntel,60,61025ae37ef11b136ea224fe,,,,,,,,,1964,-95,-42,1,0,0,response5disk,,2,-8,0,1,0,0,rectangle,-8,0,1,0,0,-8,0,1,0,0,0,16,16,66,1,,,,,,,,
,,,,,,,,,,,,,FF,,,,,,,,2.634,,,,,,,,,,,,,,,,,,,,,,60fde5cdab904cdcf81f2ccd,61036d564801fb346dd0fa63,2021-07-29_22h11.02.872,Simcolourproject_2stim_asymm_v5,2020.2.10,MacIntel,60,61025ae37ef11b136ea224fe,,,,,,,,,362,35,79,1,0,0,response1disk,,7,23,9,1,0,0,rectangle,23,9,1,0,0,23,9,1,0,0,0,17,17,37,1,,,,,,,,
,,,,,,,,,,,,,FF,,,,,,,,0.849,,,,,,,,,,,,,,,,,,,,,,60fde5cdab904cdcf81f2ccd,61036d564801fb346dd0fa63,2021-07-29_22h11.02.872,Simcolourproject_2stim_asymm_v5,2020.2.10,MacIntel,60,61025ae37ef11b136ea224fe,,,,,,,,,1144,84,41,1,0,0,response1disk,,6,21,9,1,0,0,rectangle,21,9,1,0,0,21,9,1,0,0,0,18,18,127,1,,,,,,,,
,,,,,,,,,,,,,FF,,,,,,,,2.65,,,,,,,,,,,,,,,,,,,,,,60fde5cdab904cdcf81f2ccd,61036d564801fb346dd0fa63,2021-07-29_22h11.02.872,Simcolourproject_2stim_asymm_v5,2020.2.10,MacIntel,60,61025ae37ef11b136ea224fe,,,,,,,,,4310,71,29,1,0,0,response1disk,,6,12,3,1,0,0,rectangle,12,3,1,0,0,12,3,1,0,0,0,19,19,53,1,,,,,,,,
,,,,,,,,,,,,,FF,,,,,,,,1.199,,,,,,,,,,,,,,,,,,,,,,60fde5cdab904cdcf81f2ccd,61036d564801fb346dd0fa63,2021-07-29_22h11.02.872,Simcolourproject_2stim_asymm_v5,2020.2.10,MacIntel,60,61025ae37ef11b136ea224fe,,,,,,,,,3779,80,-55,1,0,0,response3disk,,5,13,-9,1,0,0,rectangle,13,-9,1,0,0,13,-9,1,0,0,0,20,20,141,1,,,,,,,,
,,,,,,,,,,,,,FF,,,,,,,,1.165,,,,,,,,,,,,,,,,,,,,,,60fde5cdab904cdcf81f2ccd,61036d564801fb346dd0fa63,2021-07-29_22h11.02.872,Simcolourproject_2stim_asymm_v5,2020.2.10,MacIntel,60,61025ae37ef11b136ea224fe,,,,,,,,,2853,78,30,1,0,0,response1disk,,6,7,1,1,0,0,rectangle,7,1,1,0,0,7,1,1,0,0,0,21,21,30,1,,,,,,,,
,,,,,,,,,,,,,FF,,,,,,,,0.999,,,,,,,,,,,,,,,,,,,,,,60fde5cdab904cdcf81f2ccd,61036d564801fb346dd0fa63,2021-07-29_22h11.02.872,Simcolourproject_2stim_asymm_v5,2020.2.10,MacIntel,60,61025ae37ef11b136ea224fe,,,,,,,,,3344,36,60,1,0,0,response1disk,,7,16,5,1,0,0,rectangle,16,5,1,0,0,16,5,1,0,0,0,22,22,5,1,,,,,,,,
,,,,,,,,,,,,,FF,,,,,,,,1.367,,,,,,,,,,,,,,,,,,,,,,60fde5cdab904cdcf81f2ccd,61036d564801fb346dd0fa63,2021-07-29_22h11.02.872,Simcolourproject_2stim_asymm_v5,2020.2.10,MacIntel,60,61025ae37ef11b136ea224fe,,,,,,,,,772,20,57,1,0,0,response1disk,,7,5,3,1,0,0,rectangle,-46,-90,1,0,0,-10,-2,1,0,0,0,23,23,154,1,,response5disk_3,TRUE,3,3,"[74,151,184,129,88,269,274,275,244,289,314,242,14,6,111,162,271,146,91,24]",1.966,rectangle
,,,,,,,,,,,,,FF,,,,,,,,3.234,,,,,,,,,,,,,,,,,,,,,,60fde5cdab904cdcf81f2ccd,61036d564801fb346dd0fa63,2021-07-29_22h11.02.872,Simcolourproject_2stim_asymm_v5,2020.2.10,MacIntel,60,61025ae37ef11b136ea224fe,,,,,,,,,2929,65,47,1,0,0,response1disk,,6,20,1,1,0,0,rectangle,20,1,1,0,0,20,1,1,0,0,0,24,24,111,1,,,,,,,,
,,,,,,,,,,,,,FF,,,,,,,,2.467,,,,,,,,,,,,,,,,,,,,,,60fde5cdab904cdcf81f2ccd,61036d564801fb346dd0fa63,2021-07-29_22h11.02.872,Simcolourproject_2stim_asymm_v5,2020.2.10,MacIntel,60,61025ae37ef11b136ea224fe,,,,,,,,,2451,43,71,1,0,0,response1disk,,7,16,3,1,0,0,rectangle,16,3,1,0,0,16,3,1,0,0,0,25,25,117,1,,,,,,,,
,,,,,,,,,,,,,FF,,,,,,,,1,,,,,,,,,,,,,,,,,,,,,,60fde5cdab904cdcf81f2ccd,61036d564801fb346dd0fa63,2021-07-29_22h11.02.872,Simcolourproject_2stim_asymm_v5,2020.2.10,MacIntel,60,61025ae37ef11b136ea224fe,,,,,,,,,3033,86,40,1,0,0,response1disk,,6,23,3,1,0,0,rectangle,23,3,1,0,0,23,3,1,0,0,0,26,26,100,1,,,,,,,,
,,,,,,,,,,,,,FF,,,,,,,,1.267,,,,,,,,,,,,,,,,,,,,,,60fde5cdab904cdcf81f2ccd,61036d564801fb346dd0fa63,2021-07-29_22h11.02.872,Simcolourproject_2stim_asymm_v5,2020.2.10,MacIntel,60,61025ae37ef11b136ea224fe,,,,,,,,,357,80,54,1,0,0,response1disk,,6,2,7,1,0,0,rectangle,2,7,1,0,0,2,7,1,0,0,0,27,27,87,1,,,,,,,,
,,,,,,,,,,,,,FF,,,,,,,,1.451,,,,,,,,,,,,,,,,,,,,,,60fde5cdab904cdcf81f2ccd,61036d564801fb346dd0fa63,2021-07-29_22h11.02.872,Simcolourproject_2stim_asymm_v5,2020.2.10,MacIntel,60,61025ae37ef11b136ea224fe,,,,,,,,,3580,77,44,1,0,0,response1disk,,6,-4,7,1,0,0,rectangle,-4,7,1,0,0,-4,7,1,0,0,0,28,28,31,1,,,,,,,,
,,,,,,,,,,,,,FF,,,,,,,,1.782,,,,,,,,,,,,,,,,,,,,,,60fde5cdab904cdcf81f2ccd,61036d564801fb346dd0fa63,2021-07-29_22h11.02.872,Simcolourproject_2stim_asymm_v5,2020.2.10,MacIntel,60,61025ae37ef11b136ea224fe,,,,,,,,,2396,74,46,1,0,0,response1disk,,6,3,5,1,0,0,rectangle,3,5,1,0,0,3,5,1,0,0,0,29,29,68,1,,,,,,,,
,,,,,,,,,,,,,FF,,,,,,,,1.434,,,,,,,,,,,,,,,,,,,,,,60fde5cdab904cdcf81f2ccd,61036d564801fb346dd0fa63,2021-07-29_22h11.02.872,Simcolourproject_2stim_asymm_v5,2020.2.10,MacIntel,60,61025ae37ef11b136ea224fe,,,,,,,,,1278,76,39,1,0,0,response1disk,,6,-7,1,1,0,0,rectangle,-7,1,1,0,0,-7,1,1,0,0,0,30,30,113,1,,,,,,,,
,,,,,,,,,,,,,FF,,,,,,,,1.452,,,,,,,,,,,,,,,,,,,,,,60fde5cdab904cdcf81f2ccd,61036d564801fb346dd0fa63,2021-07-29_22h11.02.872,Simcolourproject_2stim_asymm_v5,2020.2.10,MacIntel,60,61025ae37ef11b136ea224fe,,,,,,,,,4075,52,-41,1,0,0,response3disk,,5,0,7,1,0,0,rectangle,0,7,1,0,0,0,7,1,0,0,0,31,31,57,1,,,,,,,,
,,,,,,,,,,,,,FF,,,,,,,,1.034,,,,,,,,,,,,,,,,,,,,,,60fde5cdab904cdcf81f2ccd,61036d564801fb346dd0fa63,2021-07-29_22h11.02.872,Simcolourproject_2stim_asymm_v5,2020.2.10,MacIntel,60,61025ae37ef11b136ea224fe,,,,,,,,,2370,53,-42,1,0,0,response3disk,,5,0,9,1,0,0,rectangle,0,9,1,0,0,0,9,1,0,0,0,32,32,98,1,,,,,,,,
,,,,,,,,,,,,,FF,,,,,,,,2.068,,,,,,,,,,,,,,,,,,,,,,60fde5cdab904cdcf81f2ccd,61036d564801fb346dd0fa63,2021-07-29_22h11.02.872,Simcolourproject_2stim_asymm_v5,2020.2.10,MacIntel,60,61025ae37ef11b136ea224fe,,,,,,,,,619,-28,-98,1,0,0,response5disk,,3,4,4,1,0,0,rectangle,4,4,1,0,0,4,4,1,0,0,0,33,33,151,1,,,,,,,,
,,,,,,,,,,,,,FF,,,,,,,,1.083,,,,,,,,,,,,,,,,,,,,,,60fde5cdab904cdcf81f2ccd,61036d564801fb346dd0fa63,2021-07-29_22h11.02.872,Simcolourproject_2stim_asymm_v5,2020.2.10,MacIntel,60,61025ae37ef11b136ea224fe,,,,,,,,,1425,72,-36,1,0,0,response3disk,,5,19,-4,1,0,0,rectangle,19,-4,1,0,0,19,-4,1,0,0,0,34,34,54,1,,,,,,,,
,,,,,,,,,,,,,FF,,,,,,,,1.234,,,,,,,,,,,,,,,,,,,,,,60fde5cdab904cdcf81f2ccd,61036d564801fb346dd0fa63,2021-07-29_22h11.02.872,Simcolourproject_2stim_asymm_v5,2020.2.10,MacIntel,60,61025ae37ef11b136ea224fe,,,,,,,,,241,79,29,1,0,0,response1disk,,6,22,2,1,0,0,rectangle,22,2,1,0,0,22,2,1,0,0,0,35,35,106,1,,,,,,,,
,,,,,,,,,,,,,FF,,,,,,,,1.7,,,,,,,,,,,,,,,,,,,,,,60fde5cdab904cdcf81f2ccd,61036d564801fb346dd0fa63,2021-07-29_22h11.02.872,Simcolourproject_2stim_asymm_v5,2020.2.10,MacIntel,60,61025ae37ef11b136ea224fe,,,,,,,,,3543,54,-38,1,0,0,response3disk,,5,18,8,1,0,0,rectangle,18,8,1,0,0,18,8,1,0,0,0,36,36,103,1,,,,,,,,
,,,,,,,,,,,,,FF,,,,,,,,1.299,,,,,,,,,,,,,,,,,,,,,,60fde5cdab904cdcf81f2ccd,61036d564801fb346dd0fa63,2021-07-29_22h11.02.872,Simcolourproject_2stim_asymm_v5,2020.2.10,MacIntel,60,61025ae37ef11b136ea224fe,,,,,,,,,1122,65,-30,1,0,0,response3disk,,5,27,-8,1,0,0,rectangle,27,-8,1,0,0,27,-8,1,0,0,0,37,37,152,1,,,,,,,,
,,,,,,,,,,,,,FF,,,,,,,,0.75,,,,,,,,,,,,,,,,,,,,,,60fde5cdab904cdcf81f2ccd,61036d564801fb346dd0fa63,2021-07-29_22h11.02.872,Simcolourproject_2stim_asymm_v5,2020.2.10,MacIntel,60,61025ae37ef11b136ea224fe,,,,,,,,,3,62,-30,1,0,0,response3disk,,5,2,-12,1,0,0,rectangle,2,-12,1,0,0,2,-12,1,0,0,0,38,38,6,1,,,,,,,,
,,,,,,,,,,,,,FF,,,,,,,,1.899,,,,,,,,,,,,,,,,,,,,,,60fde5cdab904cdcf81f2ccd,61036d564801fb346dd0fa63,2021-07-29_22h11.02.872,Simcolourproject_2stim_asymm_v5,2020.2.10,MacIntel,60,61025ae37ef11b136ea224fe,,,,,,,,,3606,32,-42,1,0,0,response3disk,,4,18,-12,1,0,0,rectangle,18,-12,1,0,0,18,-12,1,0,0,0,39,39,133,1,,,,,,,,
,,,,,,,,,,,,,FF,,,,,,,,1.617,,,,,,,,,,,,,,,,,,,,,,60fde5cdab904cdcf81f2ccd,61036d564801fb346dd0fa63,2021-07-29_22h11.02.872,Simcolourproject_2stim_asymm_v5,2020.2.10,MacIntel,60,61025ae37ef11b136ea224fe,,,,,,,,,1305,-60,-45,1,0,0,response5disk,,2,-19,-13,1,0,0,rectangle,-19,-13,1,0,0,-19,-13,1,0,0,0,40,40,12,1,,,,,,,,
,,,,,,,,,,,,,FF,,,,,,,,2.267,,,,,,,,,,,,,,,,,,,,,,60fde5cdab904cdcf81f2ccd,61036d564801fb346dd0fa63,2021-07-29_22h11.02.872,Simcolourproject_2stim_asymm_v5,2020.2.10,MacIntel,60,61025ae37ef11b136ea224fe,,,,,,,,,1580,-29,-76,1,0,0,response5disk,,3,3,-4,1,0,0,rectangle,3,-4,1,0,0,3,-4,1,0,0,0,41,41,93,1,,,,,,,,
,,,,,,,,,,,,,FF,,,,,,,,1.383,,,,,,,,,,,,,,,,,,,,,,60fde5cdab904cdcf81f2ccd,61036d564801fb346dd0fa63,2021-07-29_22h11.02.872,Simcolourproject_2stim_asymm_v5,2020.2.10,MacIntel,60,61025ae37ef11b136ea224fe,,,,,,,,,4077,24,-46,1,0,0,response3disk,,4,19,-3,1,0,0,rectangle,19,-3,1,0,0,19,-3,1,0,0,0,42,42,10,1,,,,,,,,
,,,,,,,,,,,,,FF,,,,,,,,1.033,,,,,,,,,,,,,,,,,,,,,,60fde5cdab904cdcf81f2ccd,61036d564801fb346dd0fa63,2021-07-29_22h11.02.872,Simcolourproject_2stim_asymm_v5,2020.2.10,MacIntel,60,61025ae37ef11b136ea224fe,,,,,,,,,379,31,-50,1,0,0,response3disk,,4,16,6,1,0,0,rectangle,16,6,1,0,0,16,6,1,0,0,0,43,43,120,1,,,,,,,,
,,,,,,,,,,,,,FF,,,,,,,,1.963,,,,,,,,,,,,,,,,,,,,,,60fde5cdab904cdcf81f2ccd,61036d564801fb346dd0fa63,2021-07-29_22h11.02.872,Simcolourproject_2stim_asymm_v5,2020.2.10,MacIntel,60,61025ae37ef11b136ea224fe,,,,,,,,,3796,79,32,1,0,0,response1disk,,6,21,-5,1,0,0,rectangle,21,-5,1,0,0,21,-5,1,0,0,0,44,44,92,1,,,,,,,,
,,,,,,,,,,,,,FF,,,,,,,,1.018,,,,,,,,,,,,,,,,,,,,,,60fde5cdab904cdcf81f2ccd,61036d564801fb346dd0fa63,2021-07-29_22h11.02.872,Simcolourproject_2stim_asymm_v5,2020.2.10,MacIntel,60,61025ae37ef11b136ea224fe,,,,,,,,,1592,48,-32,1,0,0,response3disk,,5,21,-8,1,0,0,rectangle,21,-8,1,0,0,21,-8,1,0,0,0,45,45,131,1,,,,,,,,
,,,,,,,,,,,,,FF,,,,,,,,3.366,,,,,,,,,,,,,,,,,,,,,,60fde5cdab904cdcf81f2ccd,61036d564801fb346dd0fa63,2021-07-29_22h11.02.872,Simcolourproject_2stim_asymm_v5,2020.2.10,MacIntel,60,61025ae37ef11b136ea224fe,,,,,,,,,1177,22,68,1,0,0,response1disk,,7,-6,-2,1,0,0,rectangle,-6,-2,1,0,0,-6,-2,1,0,0,0,46,46,86,1,,,,,,,,
,,,,,,,,,,,,,FF,,,,,,,,1.716,,,,,,,,,,,,,,,,,,,,,,60fde5cdab904cdcf81f2ccd,61036d564801fb346dd0fa63,2021-07-29_22h11.02.872,Simcolourproject_2stim_asymm_v5,2020.2.10,MacIntel,60,61025ae37ef11b136ea224fe,,,,,,,,,4061,-71,-43,1,0,0,response5disk,,2,-9,8,1,0,0,rectangle,-9,8,1,0,0,-9,8,1,0,0,0,47,47,9,1,,,,,,,,
,,,,,,,,,,,,,FF,,,,,,,,4.7,,,,,,,,,,,,,,,,,,,,,,60fde5cdab904cdcf81f2ccd,61036d564801fb346dd0fa63,2021-07-29_22h11.02.872,Simcolourproject_2stim_asymm_v5,2020.2.10,MacIntel,60,61025ae37ef11b136ea224fe,,,,,,,,,3314,51,-27,1,0,0,response3disk,,5,25,4,1,0,0,rectangle,25,4,1,0,0,25,4,1,0,0,0,48,48,32,1,,,,,,,,
,,,,,,,,,,,,,FF,,,,,,,,2.149,,,,,,,,,,,,,,,,,,,,,,60fde5cdab904cdcf81f2ccd,61036d564801fb346dd0fa63,2021-07-29_22h11.02.872,Simcolourproject_2stim_asymm_v5,2020.2.10,MacIntel,60,61025ae37ef11b136ea224fe,,,,,,,,,4350,-50,69,1,0,0,response7disk,,0,-23,-1,1,0,0,rectangle,-23,-1,1,0,0,-23,-1,1,0,0,0,49,49,70,1,,,,,,,,
,,,,,,,,,,,,,FF,,,,,,,,1.367,,,,,,,,,,,,,,,,,,,,,,60fde5cdab904cdcf81f2ccd,61036d564801fb346dd0fa63,2021-07-29_22h11.02.872,Simcolourproject_2stim_asymm_v5,2020.2.10,MacIntel,60,61025ae37ef11b136ea224fe,,,,,,,,,2362,-87,33,1,0,0,response7disk,,1,-10,5,1,0,0,rectangle,-10,5,1,0,0,-10,5,1,0,0,0,50,50,8,1,,,,,,,,
,,,,,,,,,,,,,FF,,,,,,,,0.782,,,,,,,,,,,,,,,,,,,,,,60fde5cdab904cdcf81f2ccd,61036d564801fb346dd0fa63,2021-07-29_22h11.02.872,Simcolourproject_2stim_asymm_v5,2020.2.10,MacIntel,60,61025ae37ef11b136ea224fe,,,,,,,,,550,-54,33,1,0,0,response7disk,,1,-5,0,1,0,0,rectangle,-5,0,1,0,0,-5,0,1,0,0,0,51,51,67,1,,,,,,,,
,,,,,,,,,,,,,FF,,,,,,,,1.349,,,,,,,,,,,,,,,,,,,,,,60fde5cdab904cdcf81f2ccd,61036d564801fb346dd0fa63,2021-07-29_22h11.02.872,Simcolourproject_2stim_asymm_v5,2020.2.10,MacIntel,60,61025ae37ef11b136ea224fe,,,,,,,,,3225,87,53,1,0,0,response1disk,,6,12,2,1,0,0,rectangle,12,2,1,0,0,12,2,1,0,0,0,52,52,102,1,,,,,,,,
,,,,,,,,,,,,,FF,,,,,,,,1.25,,,,,,,,,,,,,,,,,,,,,,60fde5cdab904cdcf81f2ccd,61036d564801fb346dd0fa63,2021-07-29_22h11.02.872,Simcolourproject_2stim_asymm_v5,2020.2.10,MacIntel,60,61025ae37ef11b136ea224fe,,,,,,,,,1325,74,46,1,0,0,response1disk,,6,15,4,1,0,0,rectangle,15,4,1,0,0,15,4,1,0,0,0,53,53,42,1,,,,,,,,
,,,,,,,,,,,,,FF,,,,,,,,1.033,,,,,,,,,,,,,,,,,,,,,,60fde5cdab904cdcf81f2ccd,61036d564801fb346dd0fa63,2021-07-29_22h11.02.872,Simcolourproject_2stim_asymm_v5,2020.2.10,MacIntel,60,61025ae37ef11b136ea224fe,,,,,,,,,1944,59,-17,1,0,0,response3disk,,5,16,3,1,0,0,rectangle,16,3,1,0,0,16,3,1,0,0,0,54,54,109,1,,,,,,,,
,,,,,,,,,,,,,FF,,,,,,,,1.35,,,,,,,,,,,,,,,,,,,,,,60fde5cdab904cdcf81f2ccd,61036d564801fb346dd0fa63,2021-07-29_22h11.02.872,Simcolourproject_2stim_asymm_v5,2020.2.10,MacIntel,60,61025ae37ef11b136ea224fe,,,,,,,,,4209,45,67,1,0,0,response1disk,,7,22,-13,1,0,0,rectangle,22,-13,1,0,0,22,-13,1,0,0,0,55,55,104,1,,,,,,,,
,,,,,,,,,,,,,FF,,,,,,,,1.416,,,,,,,,,,,,,,,,,,,,,,60fde5cdab904cdcf81f2ccd,61036d564801fb346dd0fa63,2021-07-29_22h11.02.872,Simcolourproject_2stim_asymm_v5,2020.2.10,MacIntel,60,61025ae37ef11b136ea224fe,,,,,,,,,2433,-76,-49,1,0,0,response5disk,,2,-19,-3,1,0,0,rectangle,-19,-3,1,0,0,-19,-3,1,0,0,0,56,56,74,1,,,,,,,,
,,,,,,,,,,,,,FF,,,,,,,,4.499,,,,,,,,,,,,,,,,,,,,,,60fde5cdab904cdcf81f2ccd,61036d564801fb346dd0fa63,2021-07-29_22h11.02.872,Simcolourproject_2stim_asymm_v5,2020.2.10,MacIntel,60,61025ae37ef11b136ea224fe,,,,,,,,,674,-44,-73,1,0,0,response5disk,,3,-11,-4,1,0,0,rectangle,-11,-4,1,0,0,-11,-4,1,0,0,0,57,57,89,1,,,,,,,,
,,,,,,,,,,,,,FF,,,,,,,,2.466,,,,,,,,,,,,,,,,,,,,,,60fde5cdab904cdcf81f2ccd,61036d564801fb346dd0fa63,2021-07-29_22h11.02.872,Simcolourproject_2stim_asymm_v5,2020.2.10,MacIntel,60,61025ae37ef11b136ea224fe,,,,,,,,,3397,-30,-69,1,0,0,response5disk,,3,1,4,1,0,0,rectangle,1,4,1,0,0,1,4,1,0,0,0,58,58,137,1,,,,,,,,
,,,,,,,,,,,,,FF,,,,,,,,2.334,,,,,,,,,,,,,,,,,,,,,,60fde5cdab904cdcf81f2ccd,61036d564801fb346dd0fa63,2021-07-29_22h11.02.872,Simcolourproject_2stim_asymm_v5,2020.2.10,MacIntel,60,61025ae37ef11b136ea224fe,,,,,,,,,2495,63,-51,1,0,0,response3disk,,5,5,-4,1,0,0,rectangle,5,-4,1,0,0,5,-4,1,0,0,0,59,59,140,1,,,,,,,,
,,,,,,,,,,,,,FF,,,,,,,,1.083,,,,,,,,,,,,,,,,,,,,,,60fde5cdab904cdcf81f2ccd,61036d564801fb346dd0fa63,2021-07-29_22h11.02.872,Simcolourproject_2stim_asymm_v5,2020.2.10,MacIntel,60,61025ae37ef11b136ea224fe,,,,,,,,,83,40,-65,1,0,0,response3disk,,4,17,-4,1,0,0,rectangle,17,-4,1,0,0,17,-4,1,0,0,0,60,60,95,1,,,,,,,,
,,,,,,,,,,,,,FF,,,,,,,,1.483,,,,,,,,,,,,,,,,,,,,,,60fde5cdab904cdcf81f2ccd,61036d564801fb346dd0fa63,2021-07-29_22h11.02.872,Simcolourproject_2stim_asymm_v5,2020.2.10,MacIntel,60,61025ae37ef11b136ea224fe,,,,,,,,,645,66,40,1,0,0,response1disk,,6,11,1,1,0,0,rectangle,11,1,1,0,0,11,1,1,0,0,0,61,61,18,1,,,,,,,,
,,,,,,,,,,,,,FF,,,,,,,,0.749,,,,,,,,,,,,,,,,,,,,,,60fde5cdab904cdcf81f2ccd,61036d564801fb346dd0fa63,2021-07-29_22h11.02.872,Simcolourproject_2stim_asymm_v5,2020.2.10,MacIntel,60,61025ae37ef11b136ea224fe,,,,,,,,,105,45,-25,1,0,0,response3disk,,5,18,-1,1,0,0,rectangle,18,-1,1,0,0,18,-1,1,0,0,0,62,62,159,1,,,,,,,,
,,,,,,,,,,,,,FF,,,,,,,,1.699,,,,,,,,,,,,,,,,,,,,,,60fde5cdab904cdcf81f2ccd,61036d564801fb346dd0fa63,2021-07-29_22h11.02.872,Simcolourproject_2stim_asymm_v5,2020.2.10,MacIntel,60,61025ae37ef11b136ea224fe,,,,,,,,,157,93,56,1,0,0,response1disk,,6,-10,4,1,0,0,rectangle,-10,4,1,0,0,-10,4,1,0,0,0,63,63,148,1,,,,,,,,
,,,,,,,,,,,,,FF,,,,,,,,0.901,,,,,,,,,,,,,,,,,,,,,,60fde5cdab904cdcf81f2ccd,61036d564801fb346dd0fa63,2021-07-29_22h11.02.872,Simcolourproject_2stim_asymm_v5,2020.2.10,MacIntel,60,61025ae37ef11b136ea224fe,,,,,,,,,3096,-39,57,1,0,0,response7disk,,0,-15,2,1,0,0,rectangle,-15,2,1,0,0,-15,2,1,0,0,0,64,64,78,1,,,,,,,,
,,,,,,,,,,,,,FF,,,,,,,,3.099,,,,,,,,,,,,,,,,,,,,,,60fde5cdab904cdcf81f2ccd,61036d564801fb346dd0fa63,2021-07-29_22h11.02.872,Simcolourproject_2stim_asymm_v5,2020.2.10,MacIntel,60,61025ae37ef11b136ea224fe,,,,,,,,,3230,62,29,1,0,0,response1disk,,6,14,-5,1,0,0,rectangle,14,-5,1,0,0,14,-5,1,0,0,0,65,65,62,1,,,,,,,,
,,,,,,,,,,,,,FF,,,,,,,,4.416,,,,,,,,,,,,,,,,,,,,,,60fde5cdab904cdcf81f2ccd,61036d564801fb346dd0fa63,2021-07-29_22h11.02.872,Simcolourproject_2stim_asymm_v5,2020.2.10,MacIntel,60,61025ae37ef11b136ea224fe,,,,,,,,,2254,64,27,1,0,0,response1disk,,6,8,-4,1,0,0,rectangle,8,-4,1,0,0,8,-4,1,0,0,0,66,66,142,1,,,,,,,,
,,,,,,,,,,,,,FF,,,,,,,,1.149,,,,,,,,,,,,,,,,,,,,,,60fde5cdab904cdcf81f2ccd,61036d564801fb346dd0fa63,2021-07-29_22h11.02.872,Simcolourproject_2stim_asymm_v5,2020.2.10,MacIntel,60,61025ae37ef11b136ea224fe,,,,,,,,,790,74,26,1,0,0,response1disk,,6,17,-5,1,0,0,rectangle,17,-5,1,0,0,17,-5,1,0,0,0,67,67,3,1,,,,,,,,
,,,,,,,,,,,,,FF,,,,,,,,0.9,,,,,,,,,,,,,,,,,,,,,,60fde5cdab904cdcf81f2ccd,61036d564801fb346dd0fa63,2021-07-29_22h11.02.872,Simcolourproject_2stim_asymm_v5,2020.2.10,MacIntel,60,61025ae37ef11b136ea224fe,,,,,,,,,3601,40,-34,1,0,0,response3disk,,5,12,3,1,0,0,rectangle,12,3,1,0,0,12,3,1,0,0,0,68,68,58,1,,,,,,,,
,,,,,,,,,,,,,FF,,,,,,,,2.016,,,,,,,,,,,,,,,,,,,,,,60fde5cdab904cdcf81f2ccd,61036d564801fb346dd0fa63,2021-07-29_22h11.02.872,Simcolourproject_2stim_asymm_v5,2020.2.10,MacIntel,60,61025ae37ef11b136ea224fe,,,,,,,,,2670,44,-71,1,0,0,response3disk,,4,11,-10,1,0,0,rectangle,11,-10,1,0,0,11,-10,1,0,0,0,69,69,47,1,,,,,,,,
,,,,,,,,,,,,,FF,,,,,,,,0.9,,,,,,,,,,,,,,,,,,,,,,60fde5cdab904cdcf81f2ccd,61036d564801fb346dd0fa63,2021-07-29_22h11.02.872,Simcolourproject_2stim_asymm_v5,2020.2.10,MacIntel,60,61025ae37ef11b136ea224fe,,,,,,,,,1868,58,-35,1,0,0,response3disk,,5,13,-2,1,0,0,rectangle,13,-2,1,0,0,13,-2,1,0,0,0,70,70,49,1,,,,,,,,
,,,,,,,,,,,,,FF,,,,,,,,0.966,,,,,,,,,,,,,,,,,,,,,,60fde5cdab904cdcf81f2ccd,61036d564801fb346dd0fa63,2021-07-29_22h11.02.872,Simcolourproject_2stim_asymm_v5,2020.2.10,MacIntel,60,61025ae37ef11b136ea224fe,,,,,,,,,3952,47,-20,1,0,0,response3disk,,5,10,1,1,0,0,rectangle,10,1,1,0,0,10,1,1,0,0,0,71,71,147,1,,,,,,,,
,,,,,,,,,,,,,FF,,,,,,,,1.433,,,,,,,,,,,,,,,,,,,,,,60fde5cdab904cdcf81f2ccd,61036d564801fb346dd0fa63,2021-07-29_22h11.02.872,Simcolourproject_2stim_asymm_v5,2020.2.10,MacIntel,60,61025ae37ef11b136ea224fe,,,,,,,,,1555,78,44,1,0,0,response1disk,,6,19,1,1,0,0,rectangle,19,1,1,0,0,19,1,1,0,0,0,72,72,40,1,,,,,,,,
,,,,,,,,,,,,,FF,,,,,,,,0.7,,,,,,,,,,,,,,,,,,,,,,60fde5cdab904cdcf81f2ccd,61036d564801fb346dd0fa63,2021-07-29_22h11.02.872,Simcolourproject_2stim_asymm_v5,2020.2.10,MacIntel,60,61025ae37ef11b136ea224fe,,,,,,,,,3306,59,29,1,0,0,response1disk,,6,3,-7,1,0,0,rectangle,-40,-96,1,0,0,-2,-5,1,0,0,0,73,73,48,1,,response5disk_3,TRUE,3,3,"[74,151,184,129,88,269,274,275,244,289,314,242,14,6,111,162,271,146,91,24]",2.265,rectangle
,,,,,,,,,,,,,FF,,,,,,,,2.7,,,,,,,,,,,,,,,,,,,,,,60fde5cdab904cdcf81f2ccd,61036d564801fb346dd0fa63,2021-07-29_22h11.02.872,Simcolourproject_2stim_asymm_v5,2020.2.10,MacIntel,60,61025ae37ef11b136ea224fe,,,,,,,,,988,72,-19,1,0,0,response3disk,,5,13,-8,1,0,0,rectangle,13,-8,1,0,0,13,-8,1,0,0,0,74,74,38,1,,,,,,,,
,,,,,,,,,,,,,FF,,,,,,,,1.399,,,,,,,,,,,,,,,,,,,,,,60fde5cdab904cdcf81f2ccd,61036d564801fb346dd0fa63,2021-07-29_22h11.02.872,Simcolourproject_2stim_asymm_v5,2020.2.10,MacIntel,60,61025ae37ef11b136ea224fe,,,,,,,,,35,76,33,1,0,0,response1disk,,6,26,-2,1,0,0,rectangle,26,-2,1,0,0,26,-2,1,0,0,0,75,75,155,1,,,,,,,,
,,,,,,,,,,,,,FF,,,,,,,,0.7,,,,,,,,,,,,,,,,,,,,,,60fde5cdab904cdcf81f2ccd,61036d564801fb346dd0fa63,2021-07-29_22h11.02.872,Simcolourproject_2stim_asymm_v5,2020.2.10,MacIntel,60,61025ae37ef11b136ea224fe,,,,,,,,,3264,60,-31,1,0,0,response3disk,,5,24,-13,1,0,0,rectangle,24,-13,1,0,0,24,-13,1,0,0,0,76,76,156,1,,,,,,,,
,,,,,,,,,,,,,FF,,,,,,,,4.251,,,,,,,,,,,,,,,,,,,,,,60fde5cdab904cdcf81f2ccd,61036d564801fb346dd0fa63,2021-07-29_22h11.02.872,Simcolourproject_2stim_asymm_v5,2020.2.10,MacIntel,60,61025ae37ef11b136ea224fe,,,,,,,,,3529,50,-75,1,0,0,response3disk,,4,16,0,1,0,0,rectangle,16,0,1,0,0,16,0,1,0,0,0,77,77,19,1,,,,,,,,
,,,,,,,,,,,,,FF,,,,,,,,1.549,,,,,,,,,,,,,,,,,,,,,,60fde5cdab904cdcf81f2ccd,61036d564801fb346dd0fa63,2021-07-29_22h11.02.872,Simcolourproject_2stim_asymm_v5,2020.2.10,MacIntel,60,61025ae37ef11b136ea224fe,,,,,,,,,3520,-53,-65,1,0,0,response5disk,,3,-25,3,1,0,0,rectangle,-25,3,1,0,0,-25,3,1,0,0,0,78,78,105,1,,,,,,,,
,,,,,,,,,,,,,FF,,,,,,,,1.416,,,,,,,,,,,,,,,,,,,,,,60fde5cdab904cdcf81f2ccd,61036d564801fb346dd0fa63,2021-07-29_22h11.02.872,Simcolourproject_2stim_asymm_v5,2020.2.10,MacIntel,60,61025ae37ef11b136ea224fe,,,,,,,,,3408,86,39,1,0,0,response1disk,,6,19,2,1,0,0,rectangle,19,2,1,0,0,19,2,1,0,0,0,79,79,116,1,,,,,,,,
,,,,,,,,,,,,,FF,,,,,,,,1.517,,,,,,,,,,,,,,,,,,,,,,60fde5cdab904cdcf81f2ccd,61036d564801fb346dd0fa63,2021-07-29_22h11.02.872,Simcolourproject_2stim_asymm_v5,2020.2.10,MacIntel,60,61025ae37ef11b136ea224fe,,,,,,,,,4369,-37,62,1,0,0,response7disk,,0,-22,-5,1,0,0,rectangle,-22,-5,1,0,0,-22,-5,1,0,0,0,80,80,122,1,,,,,,,,
,,,,,,,,,,,,,FF,,,,,,,,1.2,,,,,,,,,,,,,,,,,,,,,,60fde5cdab904cdcf81f2ccd,61036d564801fb346dd0fa63,2021-07-29_22h11.02.872,Simcolourproject_2stim_asymm_v5,2020.2.10,MacIntel,60,61025ae37ef11b136ea224fe,,,,,,,,,3028,62,39,1,0,0,response1disk,,6,12,7,1,0,0,rectangle,12,7,1,0,0,12,7,1,0,0,0,81,81,145,1,,,,,,,,
,,,,,,,,,,,,,FF,,,,,,,,1.934,,,,,,,,,,,,,,,,,,,,,,60fde5cdab904cdcf81f2ccd,61036d564801fb346dd0fa63,2021-07-29_22h11.02.872,Simcolourproject_2stim_asymm_v5,2020.2.10,MacIntel,60,61025ae37ef11b136ea224fe,,,,,,,,,1710,45,-32,1,0,0,response3disk,,5,11,10,1,0,0,rectangle,11,10,1,0,0,11,10,1,0,0,0,82,82,60,1,,,,,,,,
,,,,,,,,,,,,,FF,,,,,,,,1.183,,,,,,,,,,,,,,,,,,,,,,60fde5cdab904cdcf81f2ccd,61036d564801fb346dd0fa63,2021-07-29_22h11.02.872,Simcolourproject_2stim_asymm_v5,2020.2.10,MacIntel,60,61025ae37ef11b136ea224fe,,,,,,,,,3917,-37,-69,1,0,0,response5disk,,3,-11,-2,1,0,0,rectangle,-11,-2,1,0,0,-11,-2,1,0,0,0,83,83,15,1,,,,,,,,
,,,,,,,,,,,,,FF,,,,,,,,1.483,,,,,,,,,,,,,,,,,,,,,,60fde5cdab904cdcf81f2ccd,61036d564801fb346dd0fa63,2021-07-29_22h11.02.872,Simcolourproject_2stim_asymm_v5,2020.2.10,MacIntel,60,61025ae37ef11b136ea224fe,,,,,,,,,1827,-60,-42,1,0,0,response5disk,,2,-17,-8,1,0,0,rectangle,-17,-8,1,0,0,-17,-8,1,0,0,0,84,84,130,1,,,,,,,,
,,,,,,,,,,,,,FF,,,,,,,,1.433,,,,,,,,,,,,,,,,,,,,,,60fde5cdab904cdcf81f2ccd,61036d564801fb346dd0fa63,2021-07-29_22h11.02.872,Simcolourproject_2stim_asymm_v5,2020.2.10,MacIntel,60,61025ae37ef11b136ea224fe,,,,,,,,,2075,73,45,1,0,0,response1disk,,6,11,-9,1,0,0,rectangle,11,-9,1,0,0,11,-9,1,0,0,0,85,85,23,1,,,,,,,,
,,,,,,,,,,,,,FF,,,,,,,,1.15,,,,,,,,,,,,,,,,,,,,,,60fde5cdab904cdcf81f2ccd,61036d564801fb346dd0fa63,2021-07-29_22h11.02.872,Simcolourproject_2stim_asymm_v5,2020.2.10,MacIntel,60,61025ae37ef11b136ea224fe,,,,,,,,,1601,-81,-33,1,0,0,response5disk,,2,-19,-8,1,0,0,rectangle,-19,-8,1,0,0,-19,-8,1,0,0,0,86,86,88,1,,,,,,,,
,,,,,,,,,,,,,FF,,,,,,,,1.183,,,,,,,,,,,,,,,,,,,,,,60fde5cdab904cdcf81f2ccd,61036d564801fb346dd0fa63,2021-07-29_22h11.02.872,Simcolourproject_2stim_asymm_v5,2020.2.10,MacIntel,60,61025ae37ef11b136ea224fe,,,,,,,,,2087,-42,-83,1,0,0,response5disk,,3,-10,5,1,0,0,rectangle,36,-85,1,0,0,16,1,1,0,0,0,87,87,59,1,,response3disk_3,TRUE,4,4,"[74,151,184,129,88,269,274,275,244,289,314,242,14,6,111,162,271,146,91,24]",1.416,rectangle
,,,,,,,,,,,,,FF,,,,,,,,1.469,,,,,,,,,,,,,,,,,,,,,,60fde5cdab904cdcf81f2ccd,61036d564801fb346dd0fa63,2021-07-29_22h11.02.872,Simcolourproject_2stim_asymm_v5,2020.2.10,MacIntel,60,61025ae37ef11b136ea224fe,,,,,,,,,3649,38,-64,1,0,0,response3disk,,4,21,0,1,0,0,rectangle,21,0,1,0,0,21,0,1,0,0,0,88,88,135,1,,,,,,,,
,,,,,,,,,,,,,FF,,,,,,,,1.366,,,,,,,,,,,,,,,,,,,,,,60fde5cdab904cdcf81f2ccd,61036d564801fb346dd0fa63,2021-07-29_22h11.02.872,Simcolourproject_2stim_asymm_v5,2020.2.10,MacIntel,60,61025ae37ef11b136ea224fe,,,,,,,,,816,70,-39,1,0,0,response3disk,,5,14,10,1,0,0,rectangle,14,10,1,0,0,14,10,1,0,0,0,89,89,41,1,,,,,,,,
,,,,,,,,,,,,,FF,,,,,,,,0.782,,,,,,,,,,,,,,,,,,,,,,60fde5cdab904cdcf81f2ccd,61036d564801fb346dd0fa63,2021-07-29_22h11.02.872,Simcolourproject_2stim_asymm_v5,2020.2.10,MacIntel,60,61025ae37ef11b136ea224fe,,,,,,,,,4362,-24,45,1,0,0,response7disk,,0,-5,-2,1,0,0,rectangle,-85,-49,1,0,0,-3,-1,1,0,0,0,90,90,125,1,,response5disk_3,TRUE,2,2,"[74,151,184,129,88,269,274,275,244,289,314,242,14,6,111,162,271,146,91,24]",2.198,rectangle
,,,,,,,,,,,,,FF,,,,,,,,1.201,,,,,,,,,,,,,,,,,,,,,,60fde5cdab904cdcf81f2ccd,61036d564801fb346dd0fa63,2021-07-29_22h11.02.872,Simcolourproject_2stim_asymm_v5,2020.2.10,MacIntel,60,61025ae37ef11b136ea224fe,,,,,,,,,3043,30,66,1,0,0,response1disk,,7,17,6,1,0,0,rectangle,17,6,1,0,0,17,6,1,0,0,0,91,91,39,1,,,,,,,,
,,,,,,,,,,,,,FF,,,,,,,,1.683,,,,,,,,,,,,,,,,,,,,,,60fde5cdab904cdcf81f2ccd,61036d564801fb346dd0fa63,2021-07-29_22h11.02.872,Simcolourproject_2stim_asymm_v5,2020.2.10,MacIntel,60,61025ae37ef11b136ea224fe,,,,,,,,,808,-87,-36,1,0,0,response5disk,,2,-26,1,1,0,0,rectangle,-26,1,1,0,0,-26,1,1,0,0,0,92,92,129,1,,,,,,,,
,,,,,,,,,,,,,FF,,,,,,,,2.25,,,,,,,,,,,,,,,,,,,,,,60fde5cdab904cdcf81f2ccd,61036d564801fb346dd0fa63,2021-07-29_22h11.02.872,Simcolourproject_2stim_asymm_v5,2020.2.10,MacIntel,60,61025ae37ef11b136ea224fe,,,,,,,,,2535,60,-33,1,0,0,response3disk,,5,15,-1,1,0,0,rectangle,15,-1,1,0,0,15,-1,1,0,0,0,93,93,13,1,,,,,,,,
,,,,,,,,,,,,,FF,,,,,,,,0.967,,,,,,,,,,,,,,,,,,,,,,60fde5cdab904cdcf81f2ccd,61036d564801fb346dd0fa63,2021-07-29_22h11.02.872,Simcolourproject_2stim_asymm_v5,2020.2.10,MacIntel,60,61025ae37ef11b136ea224fe,,,,,,,,,46,60,-51,1,0,0,response3disk,,5,14,13,1,0,0,rectangle,14,13,1,0,0,14,13,1,0,0,0,94,94,91,1,,,,,,,,
,,,,,,,,,,,,,FF,,,,,,,,2,,,,,,,,,,,,,,,,,,,,,,60fde5cdab904cdcf81f2ccd,61036d564801fb346dd0fa63,2021-07-29_22h11.02.872,Simcolourproject_2stim_asymm_v5,2020.2.10,MacIntel,60,61025ae37ef11b136ea224fe,,,,,,,,,2235,-39,67,1,0,0,response7disk,,0,-14,1,1,0,0,rectangle,-14,1,1,0,0,-14,1,1,0,0,0,95,95,63,1,,,,,,,,
,,,,,,,,,,,,,FF,,,,,,,,1.534,,,,,,,,,,,,,,,,,,,,,,60fde5cdab904cdcf81f2ccd,61036d564801fb346dd0fa63,2021-07-29_22h11.02.872,Simcolourproject_2stim_asymm_v5,2020.2.10,MacIntel,60,61025ae37ef11b136ea224fe,,,,,,,,,2811,33,64,1,0,0,response1disk,,7,22,-5,1,0,0,rectangle,22,-5,1,0,0,22,-5,1,0,0,0,96,96,146,1,,,,,,,,
,,,,,,,,,,,,,FF,,,,,,,,1.1,,,,,,,,,,,,,,,,,,,,,,60fde5cdab904cdcf81f2ccd,61036d564801fb346dd0fa63,2021-07-29_22h11.02.872,Simcolourproject_2stim_asymm_v5,2020.2.10,MacIntel,60,61025ae37ef11b136ea224fe,,,,,,,,,922,68,32,1,0,0,response1disk,,6,10,2,1,0,0,rectangle,10,2,1,0,0,10,2,1,0,0,0,97,97,132,1,,,,,,,,
,,,,,,,,,,,,,FF,,,,,,,,1.1,,,,,,,,,,,,,,,,,,,,,,60fde5cdab904cdcf81f2ccd,61036d564801fb346dd0fa63,2021-07-29_22h11.02.872,Simcolourproject_2stim_asymm_v5,2020.2.10,MacIntel,60,61025ae37ef11b136ea224fe,,,,,,,,,2597,26,73,1,0,0,response1disk,,7,6,-1,1,0,0,rectangle,6,-1,1,0,0,6,-1,1,0,0,0,98,98,1,1,,,,,,,,
,,,,,,,,,,,,,FF,,,,,,,,0.816,,,,,,,,,,,,,,,,,,,,,,60fde5cdab904cdcf81f2ccd,61036d564801fb346dd0fa63,2021-07-29_22h11.02.872,Simcolourproject_2stim_asymm_v5,2020.2.10,MacIntel,60,61025ae37ef11b136ea224fe,,,,,,,,,2130,47,82,1,0,0,response1disk,,7,19,0,1,0,0,rectangle,19,0,1,0,0,19,0,1,0,0,0,99,99,33,1,,,,,,,,
,,,,,,,,,,,,,FF,,,,,,,,2.9,,,,,,,,,,,,,,,,,,,,,,60fde5cdab904cdcf81f2ccd,61036d564801fb346dd0fa63,2021-07-29_22h11.02.872,Simcolourproject_2stim_asymm_v5,2020.2.10,MacIntel,60,61025ae37ef11b136ea224fe,,,,,,,,,4090,73,48,1,0,0,response1disk,,6,8,-14,1,0,0,rectangle,8,-14,1,0,0,8,-14,1,0,0,0,100,100,90,1,,,,,,,,
,,,,,,,,,,,,,FF,,,,,,,,1.001,,,,,,,,,,,,,,,,,,,,,,60fde5cdab904cdcf81f2ccd,61036d564801fb346dd0fa63,2021-07-29_22h11.02.872,Simcolourproject_2stim_asymm_v5,2020.2.10,MacIntel,60,61025ae37ef11b136ea224fe,,,,,,,,,1146,66,39,1,0,0,response1disk,,6,5,-5,1,0,0,rectangle,5,-5,1,0,0,5,-5,1,0,0,0,101,101,81,1,,,,,,,,
,,,,,,,,,,,,,FF,,,,,,,,0.967,,,,,,,,,,,,,,,,,,,,,,60fde5cdab904cdcf81f2ccd,61036d564801fb346dd0fa63,2021-07-29_22h11.02.872,Simcolourproject_2stim_asymm_v5,2020.2.10,MacIntel,60,61025ae37ef11b136ea224fe,,,,,,,,,4346,-52,30,1,0,0,response7disk,,1,-9,4,1,0,0,rectangle,-9,4,1,0,0,-9,4,1,0,0,0,102,102,96,1,,,,,,,,
,,,,,,,,,,,,,FF,,,,,,,,0.782,,,,,,,,,,,,,,,,,,,,,,60fde5cdab904cdcf81f2ccd,61036d564801fb346dd0fa63,2021-07-29_22h11.02.872,Simcolourproject_2stim_asymm_v5,2020.2.10,MacIntel,60,61025ae37ef11b136ea224fe,,,,,,,,,4056,72,37,1,0,0,response1disk,,6,5,-4,1,0,0,rectangle,5,-4,1,0,0,5,-4,1,0,0,0,103,103,71,1,,,,,,,,
,,,,,,,,,,,,,FF,,,,,,,,0.884,,,,,,,,,,,,,,,,,,,,,,60fde5cdab904cdcf81f2ccd,61036d564801fb346dd0fa63,2021-07-29_22h11.02.872,Simcolourproject_2stim_asymm_v5,2020.2.10,MacIntel,60,61025ae37ef11b136ea224fe,,,,,,,,,1849,47,59,1,0,0,response1disk,,7,19,0,1,0,0,rectangle,19,0,1,0,0,19,0,1,0,0,0,104,104,28,1,,,,,,,,
,,,,,,,,,,,,,FF,,,,,,,,0.75,,,,,,,,,,,,,,,,,,,,,,60fde5cdab904cdcf81f2ccd,61036d564801fb346dd0fa63,2021-07-29_22h11.02.872,Simcolourproject_2stim_asymm_v5,2020.2.10,MacIntel,60,61025ae37ef11b136ea224fe,,,,,,,,,2904,21,67,1,0,0,response1disk,,7,5,6,1,0,0,rectangle,5,6,1,0,0,5,6,1,0,0,0,105,105,51,1,,,,,,,,
,,,,,,,,,,,,,FF,,,,,,,,0.799,,,,,,,,,,,,,,,,,,,,,,60fde5cdab904cdcf81f2ccd,61036d564801fb346dd0fa63,2021-07-29_22h11.02.872,Simcolourproject_2stim_asymm_v5,2020.2.10,MacIntel,60,61025ae37ef11b136ea224fe,,,,,,,,,3301,47,82,1,0,0,response1disk,,7,17,1,1,0,0,rectangle,17,1,1,0,0,17,1,1,0,0,0,106,106,112,1,,,,,,,,
,,,,,,,,,,,,,FF,,,,,,,,0.816,,,,,,,,,,,,,,,,,,,,,,60fde5cdab904cdcf81f2ccd,61036d564801fb346dd0fa63,2021-07-29_22h11.02.872,Simcolourproject_2stim_asymm_v5,2020.2.10,MacIntel,60,61025ae37ef11b136ea224fe,,,,,,,,,616,64,28,1,0,0,response1disk,,6,7,-5,1,0,0,rectangle,7,-5,1,0,0,7,-5,1,0,0,0,107,107,14,1,,,,,,,,
,,,,,,,,,,,,,FF,,,,,,,,1.217,,,,,,,,,,,,,,,,,,,,,,60fde5cdab904cdcf81f2ccd,61036d564801fb346dd0fa63,2021-07-29_22h11.02.872,Simcolourproject_2stim_asymm_v5,2020.2.10,MacIntel,60,61025ae37ef11b136ea224fe,,,,,,,,,328,72,30,1,0,0,response1disk,,6,8,-3,1,0,0,rectangle,8,-3,1,0,0,8,-3,1,0,0,0,108,108,126,1,,,,,,,,
,,,,,,,,,,,,,FF,,,,,,,,0.985,,,,,,,,,,,,,,,,,,,,,,60fde5cdab904cdcf81f2ccd,61036d564801fb346dd0fa63,2021-07-29_22h11.02.872,Simcolourproject_2stim_asymm_v5,2020.2.10,MacIntel,60,61025ae37ef11b136ea224fe,,,,,,,,,3967,-54,-41,1,0,0,response5disk,,2,-21,-5,1,0,0,rectangle,-21,-5,1,0,0,-21,-5,1,0,0,0,109,109,25,1,,,,,,,,
,,,,,,,,,,,,,FF,,,,,,,,1.948,,,,,,,,,,,,,,,,,,,,,,60fde5cdab904cdcf81f2ccd,61036d564801fb346dd0fa63,2021-07-29_22h11.02.872,Simcolourproject_2stim_asymm_v5,2020.2.10,MacIntel,60,61025ae37ef11b136ea224fe,,,,,,,,,137,61,-32,1,0,0,response3disk,,5,23,-1,1,0,0,rectangle,-51,-102,1,0,0,-9,7,1,0,0,0,110,110,16,1,,response5disk_3,TRUE,3,3,"[74,151,184,129,88,269,274,275,244,289,314,242,14,6,111,162,271,146,91,24]",1.683,rectangle
,,,,,,,,,,,,,FF,,,,,,,,1.1,,,,,,,,,,,,,,,,,,,,,,60fde5cdab904cdcf81f2ccd,61036d564801fb346dd0fa63,2021-07-29_22h11.02.872,Simcolourproject_2stim_asymm_v5,2020.2.10,MacIntel,60,61025ae37ef11b136ea224fe,,,,,,,,,2449,65,29,1,0,0,response1disk,,6,8,0,1,0,0,rectangle,8,0,1,0,0,8,0,1,0,0,0,111,111,82,1,,,,,,,,
,,,,,,,,,,,,,FF,,,,,,,,2,,,,,,,,,,,,,,,,,,,,,,60fde5cdab904cdcf81f2ccd,61036d564801fb346dd0fa63,2021-07-29_22h11.02.872,Simcolourproject_2stim_asymm_v5,2020.2.10,MacIntel,60,61025ae37ef11b136ea224fe,,,,,,,,,4055,38,-49,1,0,0,response3disk,,4,12,-6,1,0,0,rectangle,12,-6,1,0,0,12,-6,1,0,0,0,112,112,124,1,,,,,,,,
,,,,,,,,,,,,,FF,,,,,,,,0.816,,,,,,,,,,,,,,,,,,,,,,60fde5cdab904cdcf81f2ccd,61036d564801fb346dd0fa63,2021-07-29_22h11.02.872,Simcolourproject_2stim_asymm_v5,2020.2.10,MacIntel,60,61025ae37ef11b136ea224fe,,,,,,,,,3177,84,43,1,0,0,response1disk,,6,8,-3,1,0,0,rectangle,8,-3,1,0,0,8,-3,1,0,0,0,113,113,29,1,,,,,,,,
,,,,,,,,,,,,,FF,,,,,,,,1.2,,,,,,,,,,,,,,,,,,,,,,60fde5cdab904cdcf81f2ccd,61036d564801fb346dd0fa63,2021-07-29_22h11.02.872,Simcolourproject_2stim_asymm_v5,2020.2.10,MacIntel,60,61025ae37ef11b136ea224fe,,,,,,,,,48,43,84,1,0,0,response1disk,,7,7,3,1,0,0,rectangle,7,3,1,0,0,7,3,1,0,0,0,114,114,80,1,,,,,,,,
,,,,,,,,,,,,,FF,,,,,,,,1.516,,,,,,,,,,,,,,,,,,,,,,60fde5cdab904cdcf81f2ccd,61036d564801fb346dd0fa63,2021-07-29_22h11.02.872,Simcolourproject_2stim_asymm_v5,2020.2.10,MacIntel,60,61025ae37ef11b136ea224fe,,,,,,,,,2270,74,35,1,0,0,response1disk,,6,19,8,1,0,0,rectangle,19,8,1,0,0,19,8,1,0,0,0,115,115,85,1,,,,,,,,
,,,,,,,,,,,,,FF,,,,,,,,1.6,,,,,,,,,,,,,,,,,,,,,,60fde5cdab904cdcf81f2ccd,61036d564801fb346dd0fa63,2021-07-29_22h11.02.872,Simcolourproject_2stim_asymm_v5,2020.2.10,MacIntel,60,61025ae37ef11b136ea224fe,,,,,,,,,678,60,39,1,0,0,response1disk,,6,17,7,1,0,0,rectangle,17,7,1,0,0,17,7,1,0,0,0,116,116,110,1,,,,,,,,
,,,,,,,,,,,,,FF,,,,,,,,1.533,,,,,,,,,,,,,,,,,,,,,,60fde5cdab904cdcf81f2ccd,61036d564801fb346dd0fa63,2021-07-29_22h11.02.872,Simcolourproject_2stim_asymm_v5,2020.2.10,MacIntel,60,61025ae37ef11b136ea224fe,,,,,,,,,4009,56,-42,1,0,0,response3disk,,5,14,-7,1,0,0,rectangle,14,-7,1,0,0,14,-7,1,0,0,0,117,117,99,1,,,,,,,,
,,,,,,,,,,,,,FF,,,,,,,,0.901,,,,,,,,,,,,,,,,,,,,,,60fde5cdab904cdcf81f2ccd,61036d564801fb346dd0fa63,2021-07-29_22h11.02.872,Simcolourproject_2stim_asymm_v5,2020.2.10,MacIntel,60,61025ae37ef11b136ea224fe,,,,,,,,,753,67,34,1,0,0,response1disk,,6,9,-5,1,0,0,rectangle,9,-5,1,0,0,9,-5,1,0,0,0,118,118,43,1,,,,,,,,
,,,,,,,,,,,,,FF,,,,,,,,1.334,,,,,,,,,,,,,,,,,,,,,,60fde5cdab904cdcf81f2ccd,61036d564801fb346dd0fa63,2021-07-29_22h11.02.872,Simcolourproject_2stim_asymm_v5,2020.2.10,MacIntel,60,61025ae37ef11b136ea224fe,,,,,,,,,2425,-43,31,1,0,0,response7disk,,1,-9,2,1,0,0,rectangle,-9,2,1,0,0,-9,2,1,0,0,0,119,119,22,1,,,,,,,,
,,,,,,,,,,,,,FF,,,,,,,,1.034,,,,,,,,,,,,,,,,,,,,,,60fde5cdab904cdcf81f2ccd,61036d564801fb346dd0fa63,2021-07-29_22h11.02.872,Simcolourproject_2stim_asymm_v5,2020.2.10,MacIntel,60,61025ae37ef11b136ea224fe,,,,,,,,,2911,93,22,1,0,0,response1disk,,6,21,1,1,0,0,rectangle,21,1,1,0,0,21,1,1,0,0,0,120,120,150,1,,,,,,,,
,,,,,,,,,,,,,FF,,,,,,,,1.134,,,,,,,,,,,,,,,,,,,,,,60fde5cdab904cdcf81f2ccd,61036d564801fb346dd0fa63,2021-07-29_22h11.02.872,Simcolourproject_2stim_asymm_v5,2020.2.10,MacIntel,60,61025ae37ef11b136ea224fe,,,,,,,,,3863,81,28,1,0,0,response1disk,,6,-1,-4,1,0,0,rectangle,-1,-4,1,0,0,-1,-4,1,0,0,0,121,121,138,1,,,,,,,,
,,,,,,,,,,,,,FF,,,,,,,,1.699,,,,,,,,,,,,,,,,,,,,,,60fde5cdab904cdcf81f2ccd,61036d564801fb346dd0fa63,2021-07-29_22h11.02.872,Simcolourproject_2stim_asymm_v5,2020.2.10,MacIntel,60,61025ae37ef11b136ea224fe,,,,,,,,,2152,-44,-80,1,0,0,response5disk,,3,-16,11,1,0,0,rectangle,-16,11,1,0,0,-16,11,1,0,0,0,122,122,94,1,,,,,,,,
,,,,,,,,,,,,,FF,,,,,,,,1.133,,,,,,,,,,,,,,,,,,,,,,60fde5cdab904cdcf81f2ccd,61036d564801fb346dd0fa63,2021-07-29_22h11.02.872,Simcolourproject_2stim_asymm_v5,2020.2.10,MacIntel,60,61025ae37ef11b136ea224fe,,,,,,,,,2381,62,64,1,0,0,response1disk,,7,0,-4,1,0,0,rectangle,0,-4,1,0,0,0,-4,1,0,0,0,123,123,118,1,,,,,,,,
,,,,,,,,,,,,,FF,,,,,,,,1.201,,,,,,,,,,,,,,,,,,,,,,60fde5cdab904cdcf81f2ccd,61036d564801fb346dd0fa63,2021-07-29_22h11.02.872,Simcolourproject_2stim_asymm_v5,2020.2.10,MacIntel,60,61025ae37ef11b136ea224fe,,,,,,,,,275,57,-42,1,0,0,response3disk,,5,26,-10,1,0,0,rectangle,26,-10,1,0,0,26,-10,1,0,0,0,124,124,84,1,,,,,,,,
,,,,,,,,,,,,,FF,,,,,,,,1.484,,,,,,,,,,,,,,,,,,,,,,60fde5cdab904cdcf81f2ccd,61036d564801fb346dd0fa63,2021-07-29_22h11.02.872,Simcolourproject_2stim_asymm_v5,2020.2.10,MacIntel,60,61025ae37ef11b136ea224fe,,,,,,,,,3521,-24,-83,1,0,0,response5disk,,3,10,0,1,0,0,rectangle,10,0,1,0,0,10,0,1,0,0,0,125,125,76,1,,,,,,,,
,,,,,,,,,,,,,FF,,,,,,,,2.666,,,,,,,,,,,,,,,,,,,,,,60fde5cdab904cdcf81f2ccd,61036d564801fb346dd0fa63,2021-07-29_22h11.02.872,Simcolourproject_2stim_asymm_v5,2020.2.10,MacIntel,60,61025ae37ef11b136ea224fe,,,,,,,,,2757,43,75,1,0,0,response1disk,,7,14,3,1,0,0,rectangle,14,3,1,0,0,14,3,1,0,0,0,126,126,77,1,,,,,,,,
,,,,,,,,,,,,,FF,,,,,,,,1.201,,,,,,,,,,,,,,,,,,,,,,60fde5cdab904cdcf81f2ccd,61036d564801fb346dd0fa63,2021-07-29_22h11.02.872,Simcolourproject_2stim_asymm_v5,2020.2.10,MacIntel,60,61025ae37ef11b136ea224fe,,,,,,,,,2503,80,42,1,0,0,response1disk,,6,15,-5,1,0,0,rectangle,15,-5,1,0,0,15,-5,1,0,0,0,127,127,11,1,,,,,,,,
,,,,,,,,,,,,,FF,,,,,,,,1.25,,,,,,,,,,,,,,,,,,,,,,60fde5cdab904cdcf81f2ccd,61036d564801fb346dd0fa63,2021-07-29_22h11.02.872,Simcolourproject_2stim_asymm_v5,2020.2.10,MacIntel,60,61025ae37ef11b136ea224fe,,,,,,,,,298,75,36,1,0,0,response1disk,,6,8,2,1,0,0,rectangle,87,42,1,0,0,1,0,1,0,0,0,128,128,75,1,,response1disk_3,TRUE,6,6,"[74,151,184,129,88,269,274,275,244,289,314,242,14,6,111,162,271,146,91,24]",1.517,rectangle
,,,,,,,,,,,,,FF,,,,,,,,1.283,,,,,,,,,,,,,,,,,,,,,,60fde5cdab904cdcf81f2ccd,61036d564801fb346dd0fa63,2021-07-29_22h11.02.872,Simcolourproject_2stim_asymm_v5,2020.2.10,MacIntel,60,61025ae37ef11b136ea224fe,,,,,,,,,4161,-28,60,1,0,0,response7disk,,0,-16,-5,1,0,0,rectangle,-16,-5,1,0,0,-16,-5,1,0,0,0,129,129,24,1,,,,,,,,
,,,,,,,,,,,,,FF,,,,,,,,1.849,,,,,,,,,,,,,,,,,,,,,,60fde5cdab904cdcf81f2ccd,61036d564801fb346dd0fa63,2021-07-29_22h11.02.872,Simcolourproject_2stim_asymm_v5,2020.2.10,MacIntel,60,61025ae37ef11b136ea224fe,,,,,,,,,1396,66,-44,1,0,0,response3disk,,5,25,-5,1,0,0,rectangle,25,-5,1,0,0,25,-5,1,0,0,0,130,130,55,1,,,,,,,,
,,,,,,,,,,,,,FF,,,,,,,,1.317,,,,,,,,,,,,,,,,,,,,,,60fde5cdab904cdcf81f2ccd,61036d564801fb346dd0fa63,2021-07-29_22h11.02.872,Simcolourproject_2stim_asymm_v5,2020.2.10,MacIntel,60,61025ae37ef11b136ea224fe,,,,,,,,,1172,72,43,1,0,0,response1disk,,6,5,-12,1,0,0,rectangle,5,-12,1,0,0,5,-12,1,0,0,0,131,131,134,1,,,,,,,,
,,,,,,,,,,,,,FF,,,,,,,,0.816,,,,,,,,,,,,,,,,,,,,,,60fde5cdab904cdcf81f2ccd,61036d564801fb346dd0fa63,2021-07-29_22h11.02.872,Simcolourproject_2stim_asymm_v5,2020.2.10,MacIntel,60,61025ae37ef11b136ea224fe,,,,,,,,,4313,43,73,1,0,0,response1disk,,7,18,5,1,0,0,rectangle,18,5,1,0,0,18,5,1,0,0,0,132,132,144,1,,,,,,,,
,,,,,,,,,,,,,FF,,,,,,,,1.233,,,,,,,,,,,,,,,,,,,,,,60fde5cdab904cdcf81f2ccd,61036d564801fb346dd0fa63,2021-07-29_22h11.02.872,Simcolourproject_2stim_asymm_v5,2020.2.10,MacIntel,60,61025ae37ef11b136ea224fe,,,,,,,,,3623,-88,26,1,0,0,response7disk,,1,-15,8,1,0,0,rectangle,-15,8,1,0,0,-15,8,1,0,0,0,133,133,153,1,,,,,,,,
,,,,,,,,,,,,,FF,,,,,,,,1.065,,,,,,,,,,,,,,,,,,,,,,60fde5cdab904cdcf81f2ccd,61036d564801fb346dd0fa63,2021-07-29_22h11.02.872,Simcolourproject_2stim_asymm_v5,2020.2.10,MacIntel,60,61025ae37ef11b136ea224fe,,,,,,,,,3108,-63,-36,1,0,0,response5disk,,2,-4,4,1,0,0,rectangle,-4,4,1,0,0,-4,4,1,0,0,0,134,134,46,1,,,,,,,,
,,,,,,,,,,,,,FF,,,,,,,,2.15,,,,,,,,,,,,,,,,,,,,,,60fde5cdab904cdcf81f2ccd,61036d564801fb346dd0fa63,2021-07-29_22h11.02.872,Simcolourproject_2stim_asymm_v5,2020.2.10,MacIntel,60,61025ae37ef11b136ea224fe,,,,,,,,,2867,64,-26,1,0,0,response3disk,,5,10,-1,1,0,0,rectangle,10,-1,1,0,0,10,-1,1,0,0,0,135,135,79,1,,,,,,,,
,,,,,,,,,,,,,FF,,,,,,,,1.233,,,,,,,,,,,,,,,,,,,,,,60fde5cdab904cdcf81f2ccd,61036d564801fb346dd0fa63,2021-07-29_22h11.02.872,Simcolourproject_2stim_asymm_v5,2020.2.10,MacIntel,60,61025ae37ef11b136ea224fe,,,,,,,,,777,51,-73,1,0,0,response3disk,,4,18,-12,1,0,0,rectangle,18,-12,1,0,0,18,-12,1,0,0,0,136,136,107,1,,,,,,,,
,,,,,,,,,,,,,FF,,,,,,,,3.866,,,,,,,,,,,,,,,,,,,,,,60fde5cdab904cdcf81f2ccd,61036d564801fb346dd0fa63,2021-07-29_22h11.02.872,Simcolourproject_2stim_asymm_v5,2020.2.10,MacIntel,60,61025ae37ef11b136ea224fe,,,,,,,,,22,79,26,1,0,0,response1disk,,6,13,-6,1,0,0,rectangle,13,-6,1,0,0,13,-6,1,0,0,0,137,137,2,1,,,,,,,,
,,,,,,,,,,,,,FF,,,,,,,,0.818,,,,,,,,,,,,,,,,,,,,,,60fde5cdab904cdcf81f2ccd,61036d564801fb346dd0fa63,2021-07-29_22h11.02.872,Simcolourproject_2stim_asymm_v5,2020.2.10,MacIntel,60,61025ae37ef11b136ea224fe,,,,,,,,,3993,-32,46,1,0,0,response7disk,,0,-8,-4,1,0,0,rectangle,-8,-4,1,0,0,-8,-4,1,0,0,0,138,138,36,1,,,,,,,,
,,,,,,,,,,,,,FF,,,,,,,,1.549,,,,,,,,,,,,,,,,,,,,,,60fde5cdab904cdcf81f2ccd,61036d564801fb346dd0fa63,2021-07-29_22h11.02.872,Simcolourproject_2stim_asymm_v5,2020.2.10,MacIntel,60,61025ae37ef11b136ea224fe,,,,,,,,,1355,61,-21,1,0,0,response3disk,,5,14,-9,1,0,0,rectangle,14,-9,1,0,0,14,-9,1,0,0,0,139,139,73,1,,,,,,,,
,,,,,,,,,,,,,FF,,,,,,,,2.734,,,,,,,,,,,,,,,,,,,,,,60fde5cdab904cdcf81f2ccd,61036d564801fb346dd0fa63,2021-07-29_22h11.02.872,Simcolourproject_2stim_asymm_v5,2020.2.10,MacIntel,60,61025ae37ef11b136ea224fe,,,,,,,,,4149,-60,-50,1,0,0,response5disk,,2,-6,11,1,0,0,rectangle,-6,11,1,0,0,-6,11,1,0,0,0,140,140,26,1,,,,,,,,
,,,,,,,,,,,,,FF,,,,,,,,0.95,,,,,,,,,,,,,,,,,,,,,,60fde5cdab904cdcf81f2ccd,61036d564801fb346dd0fa63,2021-07-29_22h11.02.872,Simcolourproject_2stim_asymm_v5,2020.2.10,MacIntel,60,61025ae37ef11b136ea224fe,,,,,,,,,3111,-36,-86,1,0,0,response5disk,,3,-1,-2,1,0,0,rectangle,-1,-2,1,0,0,-1,-2,1,0,0,0,141,141,69,1,,,,,,,,
,,,,,,,,,,,,,FF,,,,,,,,1.133,,,,,,,,,,,,,,,,,,,,,,60fde5cdab904cdcf81f2ccd,61036d564801fb346dd0fa63,2021-07-29_22h11.02.872,Simcolourproject_2stim_asymm_v5,2020.2.10,MacIntel,60,61025ae37ef11b136ea224fe,,,,,,,,,3371,34,-46,1,0,0,response3disk,,4,20,-8,1,0,0,rectangle,20,-8,1,0,0,20,-8,1,0,0,0,142,142,35,1,,,,,,,,
,,,,,,,,,,,,,FF,,,,,,,,1.8,,,,,,,,,,,,,,,,,,,,,,60fde5cdab904cdcf81f2ccd,61036d564801fb346dd0fa63,2021-07-29_22h11.02.872,Simcolourproject_2stim_asymm_v5,2020.2.10,MacIntel,60,61025ae37ef11b136ea224fe,,,,,,,,,3918,34,-56,1,0,0,response3disk,,4,9,-10,1,0,0,rectangle,9,-10,1,0,0,9,-10,1,0,0,0,143,143,157,1,,,,,,,,
,,,,,,,,,,,,,FF,,,,,,,,2.034,,,,,,,,,,,,,,,,,,,,,,60fde5cdab904cdcf81f2ccd,61036d564801fb346dd0fa63,2021-07-29_22h11.02.872,Simcolourproject_2stim_asymm_v5,2020.2.10,MacIntel,60,61025ae37ef11b136ea224fe,,,,,,,,,3186,65,-37,1,0,0,response3disk,,5,11,-11,1,0,0,rectangle,11,-11,1,0,0,11,-11,1,0,0,0,144,144,136,1,,,,,,,,
,,,,,,,,,,,,,FF,,,,,,,,1.084,,,,,,,,,,,,,,,,,,,,,,60fde5cdab904cdcf81f2ccd,61036d564801fb346dd0fa63,2021-07-29_22h11.02.872,Simcolourproject_2stim_asymm_v5,2020.2.10,MacIntel,60,61025ae37ef11b136ea224fe,,,,,,,,,450,76,40,1,0,0,response1disk,,6,-1,0,1,0,0,rectangle,-84,-47,1,0,0,-11,5,1,0,0,0,145,145,83,1,,response5disk_3,TRUE,2,2,"[74,151,184,129,88,269,274,275,244,289,314,242,14,6,111,162,271,146,91,24]",1.964,rectangle
,,,,,,,,,,,,,FF,,,,,,,,1.017,,,,,,,,,,,,,,,,,,,,,,60fde5cdab904cdcf81f2ccd,61036d564801fb346dd0fa63,2021-07-29_22h11.02.872,Simcolourproject_2stim_asymm_v5,2020.2.10,MacIntel,60,61025ae37ef11b136ea224fe,,,,,,,,,1999,46,-22,1,0,0,response3disk,,5,11,6,1,0,0,rectangle,11,6,1,0,0,11,6,1,0,0,0,146,146,56,1,,,,,,,,
,,,,,,,,,,,,,FF,,,,,,,,0.8,,,,,,,,,,,,,,,,,,,,,,60fde5cdab904cdcf81f2ccd,61036d564801fb346dd0fa63,2021-07-29_22h11.02.872,Simcolourproject_2stim_asymm_v5,2020.2.10,MacIntel,60,61025ae37ef11b136ea224fe,,,,,,,,,57,50,-23,1,0,0,response3disk,,5,13,5,1,0,0,rectangle,13,5,1,0,0,13,5,1,0,0,0,147,147,21,1,,,,,,,,
,,,,,,,,,,,,,FF,,,,,,,,0.949,,,,,,,,,,,,,,,,,,,,,,60fde5cdab904cdcf81f2ccd,61036d564801fb346dd0fa63,2021-07-29_22h11.02.872,Simcolourproject_2stim_asymm_v5,2020.2.10,MacIntel,60,61025ae37ef11b136ea224fe,,,,,,,,,1669,83,34,1,0,0,response1disk,,6,-20,1,1,0,0,rectangle,-20,1,1,0,0,-20,1,1,0,0,0,148,148,101,1,,,,,,,,
,,,,,,,,,,,,,FF,,,,,,,,0.749,,,,,,,,,,,,,,,,,,,,,,60fde5cdab904cdcf81f2ccd,61036d564801fb346dd0fa63,2021-07-29_22h11.02.872,Simcolourproject_2stim_asymm_v5,2020.2.10,MacIntel,60,61025ae37ef11b136ea224fe,,,,,,,,,3269,65,41,1,0,0,response1disk,,6,-3,2,1,0,0,rectangle,-3,2,1,0,0,-3,2,1,0,0,0,149,149,44,1,,,,,,,,
,,,,,,,,,,,,,FF,,,,,,,,0.75,,,,,,,,,,,,,,,,,,,,,,60fde5cdab904cdcf81f2ccd,61036d564801fb346dd0fa63,2021-07-29_22h11.02.872,Simcolourproject_2stim_asymm_v5,2020.2.10,MacIntel,60,61025ae37ef11b136ea224fe,,,,,,,,,3242,64,37,1,0,0,response1disk,,6,-4,5,1,0,0,rectangle,-44,-70,1,0,0,-8,11,1,0,0,0,150,150,115,1,,response5disk_3,TRUE,3,3,"[74,151,184,129,88,269,274,275,244,289,314,242,14,6,111,162,271,146,91,24]",2.131,rectangle
,,,,,,,,,,,,,FF,,,,,,,,1.317,,,,,,,,,,,,,,,,,,,,,,60fde5cdab904cdcf81f2ccd,61036d564801fb346dd0fa63,2021-07-29_22h11.02.872,Simcolourproject_2stim_asymm_v5,2020.2.10,MacIntel,60,61025ae37ef11b136ea224fe,,,,,,,,,130,42,-24,1,0,0,response3disk,,5,8,2,1,0,0,rectangle,8,2,1,0,0,8,2,1,0,0,0,151,151,114,1,,,,,,,,
,,,,,,,,,,,,,FF,,,,,,,,0.984,,,,,,,,,,,,,,,,,,,,,,60fde5cdab904cdcf81f2ccd,61036d564801fb346dd0fa63,2021-07-29_22h11.02.872,Simcolourproject_2stim_asymm_v5,2020.2.10,MacIntel,60,61025ae37ef11b136ea224fe,,,,,,,,,1285,60,-36,1,0,0,response3disk,,5,-2,6,1,0,0,rectangle,-2,6,1,0,0,-2,6,1,0,0,0,152,152,4,1,,,,,,,,
,,,,,,,,,,,,,FF,,,,,,,,1.083,,,,,,,,,,,,,,,,,,,,,,60fde5cdab904cdcf81f2ccd,61036d564801fb346dd0fa63,2021-07-29_22h11.02.872,Simcolourproject_2stim_asymm_v5,2020.2.10,MacIntel,60,61025ae37ef11b136ea224fe,,,,,,,,,1394,72,41,1,0,0,response1disk,,6,-3,-17,1,0,0,rectangle,-3,-17,1,0,0,-3,-17,1,0,0,0,153,153,65,1,,,,,,,,
,,,,,,,,,,,,,FF,,,,,,,,0.683,,,,,,,,,,,,,,,,,,,,,,60fde5cdab904cdcf81f2ccd,61036d564801fb346dd0fa63,2021-07-29_22h11.02.872,Simcolourproject_2stim_asymm_v5,2020.2.10,MacIntel,60,61025ae37ef11b136ea224fe,,,,,,,,,1777,65,27,1,0,0,response1disk,,6,0,-5,1,0,0,rectangle,0,-5,1,0,0,0,-5,1,0,0,0,154,154,45,1,,,,,,,,
,,,,,,,,,,,,,FF,,,,,,,,0.801,,,,,,,,,,,,,,,,,,,,,,60fde5cdab904cdcf81f2ccd,61036d564801fb346dd0fa63,2021-07-29_22h11.02.872,Simcolourproject_2stim_asymm_v5,2020.2.10,MacIntel,60,61025ae37ef11b136ea224fe,,,,,,,,,1525,57,-21,1,0,0,response3disk,,5,17,-2,1,0,0,rectangle,17,-2,1,0,0,17,-2,1,0,0,0,155,155,64,1,,,,,,,,
,,,,,,,,,,,,,FF,,,,,,,,0.883,,,,,,,,,,,,,,,,,,,,,,60fde5cdab904cdcf81f2ccd,61036d564801fb346dd0fa63,2021-07-29_22h11.02.872,Simcolourproject_2stim_asymm_v5,2020.2.10,MacIntel,60,61025ae37ef11b136ea224fe,,,,,,,,,2662,-57,26,1,0,0,response7disk,,1,-21,1,1,0,0,rectangle,-21,1,1,0,0,-21,1,1,0,0,0,156,156,121,1,,,,,,,,
,,,,,,,,,,,,,FF,,,,,,,,1.101,,,,,,,,,,,,,,,,,,,,,,60fde5cdab904cdcf81f2ccd,61036d564801fb346dd0fa63,2021-07-29_22h11.02.872,Simcolourproject_2stim_asymm_v5,2020.2.10,MacIntel,60,61025ae37ef11b136ea224fe,,,,,,,,,2695,-65,-39,1,0,0,response5disk,,2,-15,-7,1,0,0,rectangle,-15,-7,1,0,0,-15,-7,1,0,0,0,157,157,61,1,,,,,,,,
,,,,,,,,,,,,,FF,,,,,,,,0.849,,,,,,,,,,,,,,,,,,,,,,60fde5cdab904cdcf81f2ccd,61036d564801fb346dd0fa63,2021-07-29_22h11.02.872,Simcolourproject_2stim_asymm_v5,2020.2.10,MacIntel,60,61025ae37ef11b136ea224fe,,,,,,,,,848,51,-34,1,0,0,response3disk,,5,1,-12,1,0,0,rectangle,1,-12,1,0,0,1,-12,1,0,0,0,158,158,123,1,,,,,,,,
,,,,,,,,,,,,,FF,,,,,,,,1.751,,,,,,,,,,,,,,,,,,,,,,60fde5cdab904cdcf81f2ccd,61036d564801fb346dd0fa63,2021-07-29_22h11.02.872,Simcolourproject_2stim_asymm_v5,2020.2.10,MacIntel,60,61025ae37ef11b136ea224fe,,,,,,,,,3100,-80,21,1,0,0,response7disk,,1,-16,1,1,0,0,rectangle,-16,1,1,0,0,-16,1,1,0,0,0,159,159,72,1,,,,,,,,
,,,,,,,,,,,,,FF,,,,,,,,0.901,,,,,,,,,,,,,,,,,,,,,,60fde5cdab904cdcf81f2ccd,61036d564801fb346dd0fa63,2021-07-29_22h11.02.872,Simcolourproject_2stim_asymm_v5,2020.2.10,MacIntel,60,61025ae37ef11b136ea224fe,,,,,,,,,3036,-49,29,1,0,0,response7disk,,1,-5,-5,1,0,0,rectangle,-5,-5,1,0,0,-5,-5,1,0,0,1,0,160,24,1,,,,,,,,
,,,,,,,,,,,,,FF,,,,,,,,0.983,,,,,,,,,,,,,,,,,,,,,,60fde5cdab904cdcf81f2ccd,61036d564801fb346dd0fa63,2021-07-29_22h11.02.872,Simcolourproject_2stim_asymm_v5,2020.2.10,MacIntel,60,61025ae37ef11b136ea224fe,,,,,,,,,167,-55,-44,1,0,0,response5disk,,2,2,-7,1,0,0,rectangle,89,51,1,0,0,-6,1,1,0,0,1,1,161,152,1,,response1disk_3,TRUE,6,6,"[74,151,184,129,88,269,274,275,244,289,314,242,14,6,111,162,271,146,91,24]",1.333,rectangle
,,,,,,,,,,,,,FF,,,,,,,,2.084,,,,,,,,,,,,,,,,,,,,,,60fde5cdab904cdcf81f2ccd,61036d564801fb346dd0fa63,2021-07-29_22h11.02.872,Simcolourproject_2stim_asymm_v5,2020.2.10,MacIntel,60,61025ae37ef11b136ea224fe,,,,,,,,,4047,-78,39,1,0,0,response7disk,,1,-23,3,1,0,0,rectangle,-23,3,1,0,0,-23,3,1,0,0,1,2,162,118,1,,,,,,,,
,,,,,,,,,,,,,FF,,,,,,,,2.867,,,,,,,,,,,,,,,,,,,,,,60fde5cdab904cdcf81f2ccd,61036d564801fb346dd0fa63,2021-07-29_22h11.02.872,Simcolourproject_2stim_asymm_v5,2020.2.10,MacIntel,60,61025ae37ef11b136ea224fe,,,,,,,,,1661,-67,-39,1,0,0,response5disk,,2,-18,-6,1,0,0,rectangle,-18,-6,1,0,0,-18,-6,1,0,0,1,3,163,41,1,,,,,,,,
,,,,,,,,,,,,,FF,,,,,,,,1.05,,,,,,,,,,,,,,,,,,,,,,60fde5cdab904cdcf81f2ccd,61036d564801fb346dd0fa63,2021-07-29_22h11.02.872,Simcolourproject_2stim_asymm_v5,2020.2.10,MacIntel,60,61025ae37ef11b136ea224fe,,,,,,,,,2714,-66,-39,1,0,0,response5disk,,2,-18,-3,1,0,0,rectangle,-18,-3,1,0,0,-18,-3,1,0,0,1,4,164,123,1,,,,,,,,
,,,,,,,,,,,,,FF,,,,,,,,0.917,,,,,,,,,,,,,,,,,,,,,,60fde5cdab904cdcf81f2ccd,61036d564801fb346dd0fa63,2021-07-29_22h11.02.872,Simcolourproject_2stim_asymm_v5,2020.2.10,MacIntel,60,61025ae37ef11b136ea224fe,,,,,,,,,2007,51,-23,1,0,0,response3disk,,5,20,-4,1,0,0,rectangle,20,-4,1,0,0,20,-4,1,0,0,1,5,165,46,1,,,,,,,,
,,,,,,,,,,,,,FF,,,,,,,,1.917,,,,,,,,,,,,,,,,,,,,,,60fde5cdab904cdcf81f2ccd,61036d564801fb346dd0fa63,2021-07-29_22h11.02.872,Simcolourproject_2stim_asymm_v5,2020.2.10,MacIntel,60,61025ae37ef11b136ea224fe,,,,,,,,,4098,18,-82,1,0,0,response3disk,,4,4,-8,1,0,0,rectangle,4,-8,1,0,0,4,-8,1,0,0,1,6,166,109,1,,,,,,,,
,,,,,,,,,,,,,FF,,,,,,,,1.049,,,,,,,,,,,,,,,,,,,,,,60fde5cdab904cdcf81f2ccd,61036d564801fb346dd0fa63,2021-07-29_22h11.02.872,Simcolourproject_2stim_asymm_v5,2020.2.10,MacIntel,60,61025ae37ef11b136ea224fe,,,,,,,,,1559,67,52,1,0,0,response1disk,,6,-3,11,1,0,0,rectangle,-3,11,1,0,0,-3,11,1,0,0,1,7,167,141,1,,,,,,,,
,,,,,,,,,,,,,FF,,,,,,,,0.933,,,,,,,,,,,,,,,,,,,,,,60fde5cdab904cdcf81f2ccd,61036d564801fb346dd0fa63,2021-07-29_22h11.02.872,Simcolourproject_2stim_asymm_v5,2020.2.10,MacIntel,60,61025ae37ef11b136ea224fe,,,,,,,,,3125,32,47,1,0,0,response1disk,,7,7,-2,1,0,0,rectangle,7,-2,1,0,0,7,-2,1,0,0,1,8,168,155,1,,,,,,,,
,,,,,,,,,,,,,FF,,,,,,,,1.033,,,,,,,,,,,,,,,,,,,,,,60fde5cdab904cdcf81f2ccd,61036d564801fb346dd0fa63,2021-07-29_22h11.02.872,Simcolourproject_2stim_asymm_v5,2020.2.10,MacIntel,60,61025ae37ef11b136ea224fe,,,,,,,,,3868,36,-77,1,0,0,response3disk,,4,12,-3,1,0,0,rectangle,12,-3,1,0,0,12,-3,1,0,0,1,9,169,37,1,,,,,,,,
,,,,,,,,,,,,,FF,,,,,,,,1.55,,,,,,,,,,,,,,,,,,,,,,60fde5cdab904cdcf81f2ccd,61036d564801fb346dd0fa63,2021-07-29_22h11.02.872,Simcolourproject_2stim_asymm_v5,2020.2.10,MacIntel,60,61025ae37ef11b136ea224fe,,,,,,,,,2801,40,-65,1,0,0,response3disk,,4,14,10,1,0,0,rectangle,14,10,1,0,0,14,10,1,0,0,1,10,170,69,1,,,,,,,,
,,,,,,,,,,,,,FF,,,,,,,,0.966,,,,,,,,,,,,,,,,,,,,,,60fde5cdab904cdcf81f2ccd,61036d564801fb346dd0fa63,2021-07-29_22h11.02.872,Simcolourproject_2stim_asymm_v5,2020.2.10,MacIntel,60,61025ae37ef11b136ea224fe,,,,,,,,,2745,50,-78,1,0,0,response3disk,,4,13,5,1,0,0,rectangle,13,5,1,0,0,13,5,1,0,0,1,11,171,42,1,,,,,,,,
,,,,,,,,,,,,,FF,,,,,,,,0.883,,,,,,,,,,,,,,,,,,,,,,60fde5cdab904cdcf81f2ccd,61036d564801fb346dd0fa63,2021-07-29_22h11.02.872,Simcolourproject_2stim_asymm_v5,2020.2.10,MacIntel,60,61025ae37ef11b136ea224fe,,,,,,,,,2311,59,-29,1,0,0,response3disk,,5,6,-1,1,0,0,rectangle,6,-1,1,0,0,6,-1,1,0,0,1,12,172,32,1,,,,,,,,
,,,,,,,,,,,,,FF,,,,,,,,1.467,,,,,,,,,,,,,,,,,,,,,,60fde5cdab904cdcf81f2ccd,61036d564801fb346dd0fa63,2021-07-29_22h11.02.872,Simcolourproject_2stim_asymm_v5,2020.2.10,MacIntel,60,61025ae37ef11b136ea224fe,,,,,,,,,2543,-38,-73,1,0,0,response5disk,,3,-20,5,1,0,0,rectangle,-20,5,1,0,0,-20,5,1,0,0,1,13,173,158,1,,,,,,,,
,,,,,,,,,,,,,FF,,,,,,,,0.783,,,,,,,,,,,,,,,,,,,,,,60fde5cdab904cdcf81f2ccd,61036d564801fb346dd0fa63,2021-07-29_22h11.02.872,Simcolourproject_2stim_asymm_v5,2020.2.10,MacIntel,60,61025ae37ef11b136ea224fe,,,,,,,,,1659,29,-59,1,0,0,response3disk,,4,14,14,1,0,0,rectangle,14,14,1,0,0,14,14,1,0,0,1,14,174,104,1,,,,,,,,
,,,,,,,,,,,,,FF,,,,,,,,1.184,,,,,,,,,,,,,,,,,,,,,,60fde5cdab904cdcf81f2ccd,61036d564801fb346dd0fa63,2021-07-29_22h11.02.872,Simcolourproject_2stim_asymm_v5,2020.2.10,MacIntel,60,61025ae37ef11b136ea224fe,,,,,,,,,3254,77,40,1,0,0,response1disk,,6,0,-6,1,0,0,rectangle,0,-6,1,0,0,0,-6,1,0,0,1,15,175,71,1,,,,,,,,
,,,,,,,,,,,,,FF,,,,,,,,1.066,,,,,,,,,,,,,,,,,,,,,,60fde5cdab904cdcf81f2ccd,61036d564801fb346dd0fa63,2021-07-29_22h11.02.872,Simcolourproject_2stim_asymm_v5,2020.2.10,MacIntel,60,61025ae37ef11b136ea224fe,,,,,,,,,1964,-51,32,1,0,0,response7disk,,1,-2,0,1,0,0,rectangle,-2,0,1,0,0,-2,0,1,0,0,1,16,176,139,1,,,,,,,,
,,,,,,,,,,,,,FF,,,,,,,,0.782,,,,,,,,,,,,,,,,,,,,,,60fde5cdab904cdcf81f2ccd,61036d564801fb346dd0fa63,2021-07-29_22h11.02.872,Simcolourproject_2stim_asymm_v5,2020.2.10,MacIntel,60,61025ae37ef11b136ea224fe,,,,,,,,,362,48,-31,1,0,0,response3disk,,5,-4,5,1,0,0,rectangle,-4,5,1,0,0,-4,5,1,0,0,1,17,177,15,1,,,,,,,,
,,,,,,,,,,,,,FF,,,,,,,,0.884,,,,,,,,,,,,,,,,,,,,,,60fde5cdab904cdcf81f2ccd,61036d564801fb346dd0fa63,2021-07-29_22h11.02.872,Simcolourproject_2stim_asymm_v5,2020.2.10,MacIntel,60,61025ae37ef11b136ea224fe,,,,,,,,,1144,76,56,1,0,0,response1disk,,6,-5,-7,1,0,0,rectangle,-5,-7,1,0,0,-5,-7,1,0,0,1,18,178,30,1,,,,,,,,
,,,,,,,,,,,,,FF,,,,,,,,0.817,,,,,,,,,,,,,,,,,,,,,,60fde5cdab904cdcf81f2ccd,61036d564801fb346dd0fa63,2021-07-29_22h11.02.872,Simcolourproject_2stim_asymm_v5,2020.2.10,MacIntel,60,61025ae37ef11b136ea224fe,,,,,,,,,4310,65,26,1,0,0,response1disk,,6,5,-6,1,0,0,rectangle,5,-6,1,0,0,5,-6,1,0,0,1,19,179,54,1,,,,,,,,
,,,,,,,,,,,,,FF,,,,,,,,0.732,,,,,,,,,,,,,,,,,,,,,,60fde5cdab904cdcf81f2ccd,61036d564801fb346dd0fa63,2021-07-29_22h11.02.872,Simcolourproject_2stim_asymm_v5,2020.2.10,MacIntel,60,61025ae37ef11b136ea224fe,,,,,,,,,3779,78,37,1,0,0,response1disk,,6,-1,-3,1,0,0,rectangle,-1,-3,1,0,0,-1,-3,1,0,0,1,20,180,4,1,,,,,,,,
,,,,,,,,,,,,,FF,,,,,,,,1.217,,,,,,,,,,,,,,,,,,,,,,60fde5cdab904cdcf81f2ccd,61036d564801fb346dd0fa63,2021-07-29_22h11.02.872,Simcolourproject_2stim_asymm_v5,2020.2.10,MacIntel,60,61025ae37ef11b136ea224fe,,,,,,,,,2853,72,-30,1,0,0,response3disk,,5,9,-5,1,0,0,rectangle,9,-5,1,0,0,9,-5,1,0,0,1,21,181,6,1,,,,,,,,
,,,,,,,,,,,,,FF,,,,,,,,0.85,,,,,,,,,,,,,,,,,,,,,,60fde5cdab904cdcf81f2ccd,61036d564801fb346dd0fa63,2021-07-29_22h11.02.872,Simcolourproject_2stim_asymm_v5,2020.2.10,MacIntel,60,61025ae37ef11b136ea224fe,,,,,,,,,3344,71,-31,1,0,0,response3disk,,5,4,-6,1,0,0,rectangle,4,-6,1,0,0,4,-6,1,0,0,1,22,182,153,1,,,,,,,,
,,,,,,,,,,,,,FF,,,,,,,,0.77,,,,,,,,,,,,,,,,,,,,,,60fde5cdab904cdcf81f2ccd,61036d564801fb346dd0fa63,2021-07-29_22h11.02.872,Simcolourproject_2stim_asymm_v5,2020.2.10,MacIntel,60,61025ae37ef11b136ea224fe,,,,,,,,,772,34,-65,1,0,0,response3disk,,4,18,2,1,0,0,rectangle,-32,-91,1,0,0,1,1,1,0,0,1,23,183,5,1,,response5disk_3,TRUE,3,3,"[74,151,184,129,88,269,274,275,244,289,314,242,14,6,111,162,271,146,91,24]",1.348,rectangle
,,,,,,,,,,,,,FF,,,,,,,,1.134,,,,,,,,,,,,,,,,,,,,,,60fde5cdab904cdcf81f2ccd,61036d564801fb346dd0fa63,2021-07-29_22h11.02.872,Simcolourproject_2stim_asymm_v5,2020.2.10,MacIntel,60,61025ae37ef11b136ea224fe,,,,,,,,,2929,68,-27,1,0,0,response3disk,,5,15,1,1,0,0,rectangle,15,1,1,0,0,15,1,1,0,0,1,24,184,23,1,,,,,,,,
,,,,,,,,,,,,,FF,,,,,,,,0.85,,,,,,,,,,,,,,,,,,,,,,60fde5cdab904cdcf81f2ccd,61036d564801fb346dd0fa63,2021-07-29_22h11.02.872,Simcolourproject_2stim_asymm_v5,2020.2.10,MacIntel,60,61025ae37ef11b136ea224fe,,,,,,,,,2451,66,45,1,0,0,response1disk,,6,10,12,1,0,0,rectangle,10,12,1,0,0,10,12,1,0,0,1,25,185,154,1,,,,,,,,
,,,,,,,,,,,,,FF,,,,,,,,1.098,,,,,,,,,,,,,,,,,,,,,,60fde5cdab904cdcf81f2ccd,61036d564801fb346dd0fa63,2021-07-29_22h11.02.872,Simcolourproject_2stim_asymm_v5,2020.2.10,MacIntel,60,61025ae37ef11b136ea224fe,,,,,,,,,3033,72,-39,1,0,0,response3disk,,5,11,-4,1,0,0,rectangle,11,-4,1,0,0,11,-4,1,0,0,1,26,186,134,1,,,,,,,,
,,,,,,,,,,,,,FF,,,,,,,,1.582,,,,,,,,,,,,,,,,,,,,,,60fde5cdab904cdcf81f2ccd,61036d564801fb346dd0fa63,2021-07-29_22h11.02.872,Simcolourproject_2stim_asymm_v5,2020.2.10,MacIntel,60,61025ae37ef11b136ea224fe,,,,,,,,,357,71,24,1,0,0,response1disk,,6,21,1,1,0,0,rectangle,21,1,1,0,0,21,1,1,0,0,1,27,187,113,1,,,,,,,,
,,,,,,,,,,,,,FF,,,,,,,,0.849,,,,,,,,,,,,,,,,,,,,,,60fde5cdab904cdcf81f2ccd,61036d564801fb346dd0fa63,2021-07-29_22h11.02.872,Simcolourproject_2stim_asymm_v5,2020.2.10,MacIntel,60,61025ae37ef11b136ea224fe,,,,,,,,,3580,46,-26,1,0,0,response3disk,,5,-1,6,1,0,0,rectangle,-1,6,1,0,0,-1,6,1,0,0,1,28,188,95,1,,,,,,,,
,,,,,,,,,,,,,FF,,,,,,,,1.216,,,,,,,,,,,,,,,,,,,,,,60fde5cdab904cdcf81f2ccd,61036d564801fb346dd0fa63,2021-07-29_22h11.02.872,Simcolourproject_2stim_asymm_v5,2020.2.10,MacIntel,60,61025ae37ef11b136ea224fe,,,,,,,,,2396,74,-25,1,0,0,response3disk,,5,27,11,1,0,0,rectangle,27,11,1,0,0,27,11,1,0,0,1,29,189,122,1,,,,,,,,
,,,,,,,,,,,,,FF,,,,,,,,0.766,,,,,,,,,,,,,,,,,,,,,,60fde5cdab904cdcf81f2ccd,61036d564801fb346dd0fa63,2021-07-29_22h11.02.872,Simcolourproject_2stim_asymm_v5,2020.2.10,MacIntel,60,61025ae37ef11b136ea224fe,,,,,,,,,1278,33,-67,1,0,0,response3disk,,4,15,-3,1,0,0,rectangle,15,-3,1,0,0,15,-3,1,0,0,1,30,190,98,1,,,,,,,,
,,,,,,,,,,,,,FF,,,,,,,,1.067,,,,,,,,,,,,,,,,,,,,,,60fde5cdab904cdcf81f2ccd,61036d564801fb346dd0fa63,2021-07-29_22h11.02.872,Simcolourproject_2stim_asymm_v5,2020.2.10,MacIntel,60,61025ae37ef11b136ea224fe,,,,,,,,,4075,66,-37,1,0,0,response3disk,,5,14,-3,1,0,0,rectangle,14,-3,1,0,0,14,-3,1,0,0,1,31,191,70,1,,,,,,,,
,,,,,,,,,,,,,FF,,,,,,,,1.399,,,,,,,,,,,,,,,,,,,,,,60fde5cdab904cdcf81f2ccd,61036d564801fb346dd0fa63,2021-07-29_22h11.02.872,Simcolourproject_2stim_asymm_v5,2020.2.10,MacIntel,60,61025ae37ef11b136ea224fe,,,,,,,,,2370,-42,-75,1,0,0,response5disk,,3,-18,-8,1,0,0,rectangle,-18,-8,1,0,0,-18,-8,1,0,0,1,32,192,0,1,,,,,,,,
,,,,,,,,,,,,,FF,,,,,,,,0.983,,,,,,,,,,,,,,,,,,,,,,60fde5cdab904cdcf81f2ccd,61036d564801fb346dd0fa63,2021-07-29_22h11.02.872,Simcolourproject_2stim_asymm_v5,2020.2.10,MacIntel,60,61025ae37ef11b136ea224fe,,,,,,,,,619,-76,-35,1,0,0,response5disk,,2,-20,-7,1,0,0,rectangle,-20,-7,1,0,0,-20,-7,1,0,0,1,33,193,22,1,,,,,,,,
,,,,,,,,,,,,,FF,,,,,,,,1.183,,,,,,,,,,,,,,,,,,,,,,60fde5cdab904cdcf81f2ccd,61036d564801fb346dd0fa63,2021-07-29_22h11.02.872,Simcolourproject_2stim_asymm_v5,2020.2.10,MacIntel,60,61025ae37ef11b136ea224fe,,,,,,,,,1425,66,-49,1,0,0,response3disk,,5,15,-2,1,0,0,rectangle,15,-2,1,0,0,15,-2,1,0,0,1,34,194,92,1,,,,,,,,
,,,,,,,,,,,,,FF,,,,,,,,0.632,,,,,,,,,,,,,,,,,,,,,,60fde5cdab904cdcf81f2ccd,61036d564801fb346dd0fa63,2021-07-29_22h11.02.872,Simcolourproject_2stim_asymm_v5,2020.2.10,MacIntel,60,61025ae37ef11b136ea224fe,,,,,,,,,241,35,-62,1,0,0,response3disk,,4,10,-7,1,0,0,rectangle,10,-7,1,0,0,10,-7,1,0,0,1,35,195,19,1,,,,,,,,
,,,,,,,,,,,,,FF,,,,,,,,1.317,,,,,,,,,,,,,,,,,,,,,,60fde5cdab904cdcf81f2ccd,61036d564801fb346dd0fa63,2021-07-29_22h11.02.872,Simcolourproject_2stim_asymm_v5,2020.2.10,MacIntel,60,61025ae37ef11b136ea224fe,,,,,,,,,3543,-75,-52,1,0,0,response5disk,,2,-22,-12,1,0,0,rectangle,-22,-12,1,0,0,-22,-12,1,0,0,1,36,196,136,1,,,,,,,,
,,,,,,,,,,,,,FF,,,,,,,,1.551,,,,,,,,,,,,,,,,,,,,,,60fde5cdab904cdcf81f2ccd,61036d564801fb346dd0fa63,2021-07-29_22h11.02.872,Simcolourproject_2stim_asymm_v5,2020.2.10,MacIntel,60,61025ae37ef11b136ea224fe,,,,,,,,,1122,28,-67,1,0,0,response3disk,,4,13,-6,1,0,0,rectangle,13,-6,1,0,0,13,-6,1,0,0,1,37,197,107,1,,,,,,,,
,,,,,,,,,,,,,FF,,,,,,,,1.033,,,,,,,,,,,,,,,,,,,,,,60fde5cdab904cdcf81f2ccd,61036d564801fb346dd0fa63,2021-07-29_22h11.02.872,Simcolourproject_2stim_asymm_v5,2020.2.10,MacIntel,60,61025ae37ef11b136ea224fe,,,,,,,,,3,-51,-34,1,0,0,response5disk,,2,-4,1,1,0,0,rectangle,-4,1,1,0,0,-4,1,1,0,0,1,38,198,29,1,,,,,,,,
,,,,,,,,,,,,,FF,,,,,,,,1.1,,,,,,,,,,,,,,,,,,,,,,60fde5cdab904cdcf81f2ccd,61036d564801fb346dd0fa63,2021-07-29_22h11.02.872,Simcolourproject_2stim_asymm_v5,2020.2.10,MacIntel,60,61025ae37ef11b136ea224fe,,,,,,,,,3606,46,-38,1,0,0,response3disk,,5,16,-7,1,0,0,rectangle,16,-7,1,0,0,16,-7,1,0,0,1,39,199,40,1,,,,,,,,
,,,,,,,,,,,,,FF,,,,,,,,1.333,,,,,,,,,,,,,,,,,,,,,,60fde5cdab904cdcf81f2ccd,61036d564801fb346dd0fa63,2021-07-29_22h11.02.872,Simcolourproject_2stim_asymm_v5,2020.2.10,MacIntel,60,61025ae37ef11b136ea224fe,,,,,,,,,1305,-67,-42,1,0,0,response5disk,,2,-14,3,1,0,0,rectangle,-14,3,1,0,0,-14,3,1,0,0,1,40,200,80,1,,,,,,,,
,,,,,,,,,,,,,FF,,,,,,,,0.9,,,,,,,,,,,,,,,,,,,,,,60fde5cdab904cdcf81f2ccd,61036d564801fb346dd0fa63,2021-07-29_22h11.02.872,Simcolourproject_2stim_asymm_v5,2020.2.10,MacIntel,60,61025ae37ef11b136ea224fe,,,,,,,,,1580,66,-16,1,0,0,response3disk,,5,18,3,1,0,0,rectangle,18,3,1,0,0,18,3,1,0,0,1,41,201,33,1,,,,,,,,
,,,,,,,,,,,,,FF,,,,,,,,0.932,,,,,,,,,,,,,,,,,,,,,,60fde5cdab904cdcf81f2ccd,61036d564801fb346dd0fa63,2021-07-29_22h11.02.872,Simcolourproject_2stim_asymm_v5,2020.2.10,MacIntel,60,61025ae37ef11b136ea224fe,,,,,,,,,4077,36,-52,1,0,0,response3disk,,4,3,-5,1,0,0,rectangle,3,-5,1,0,0,3,-5,1,0,0,1,42,202,68,1,,,,,,,,
,,,,,,,,,,,,,FF,,,,,,,,0.783,,,,,,,,,,,,,,,,,,,,,,60fde5cdab904cdcf81f2ccd,61036d564801fb346dd0fa63,2021-07-29_22h11.02.872,Simcolourproject_2stim_asymm_v5,2020.2.10,MacIntel,60,61025ae37ef11b136ea224fe,,,,,,,,,379,56,-37,1,0,0,response3disk,,5,10,-14,1,0,0,rectangle,10,-14,1,0,0,10,-14,1,0,0,1,43,203,39,1,,,,,,,,
,,,,,,,,,,,,,FF,,,,,,,,0.766,,,,,,,,,,,,,,,,,,,,,,60fde5cdab904cdcf81f2ccd,61036d564801fb346dd0fa63,2021-07-29_22h11.02.872,Simcolourproject_2stim_asymm_v5,2020.2.10,MacIntel,60,61025ae37ef11b136ea224fe,,,,,,,,,3796,38,-62,1,0,0,response3disk,,4,12,6,1,0,0,rectangle,12,6,1,0,0,12,6,1,0,0,1,44,204,124,1,,,,,,,,
,,,,,,,,,,,,,FF,,,,,,,,1.266,,,,,,,,,,,,,,,,,,,,,,60fde5cdab904cdcf81f2ccd,61036d564801fb346dd0fa63,2021-07-29_22h11.02.872,Simcolourproject_2stim_asymm_v5,2020.2.10,MacIntel,60,61025ae37ef11b136ea224fe,,,,,,,,,1592,73,34,1,0,0,response1disk,,6,8,1,1,0,0,rectangle,8,1,1,0,0,8,1,1,0,0,1,45,205,66,1,,,,,,,,
,,,,,,,,,,,,,FF,,,,,,,,1.483,,,,,,,,,,,,,,,,,,,,,,60fde5cdab904cdcf81f2ccd,61036d564801fb346dd0fa63,2021-07-29_22h11.02.872,Simcolourproject_2stim_asymm_v5,2020.2.10,MacIntel,60,61025ae37ef11b136ea224fe,,,,,,,,,1177,48,70,1,0,0,response1disk,,7,25,3,1,0,0,rectangle,25,3,1,0,0,25,3,1,0,0,1,46,206,49,1,,,,,,,,
,,,,,,,,,,,,,FF,,,,,,,,1.316,,,,,,,,,,,,,,,,,,,,,,60fde5cdab904cdcf81f2ccd,61036d564801fb346dd0fa63,2021-07-29_22h11.02.872,Simcolourproject_2stim_asymm_v5,2020.2.10,MacIntel,60,61025ae37ef11b136ea224fe,,,,,,,,,4061,68,-23,1,0,0,response3disk,,5,15,-7,1,0,0,rectangle,15,-7,1,0,0,15,-7,1,0,0,1,47,207,106,1,,,,,,,,
,,,,,,,,,,,,,FF,,,,,,,,1.35,,,,,,,,,,,,,,,,,,,,,,60fde5cdab904cdcf81f2ccd,61036d564801fb346dd0fa63,2021-07-29_22h11.02.872,Simcolourproject_2stim_asymm_v5,2020.2.10,MacIntel,60,61025ae37ef11b136ea224fe,,,,,,,,,3314,75,28,1,0,0,response1disk,,6,6,1,1,0,0,rectangle,6,1,1,0,0,6,1,1,0,0,1,48,208,105,1,,,,,,,,
,,,,,,,,,,,,,FF,,,,,,,,1.033,,,,,,,,,,,,,,,,,,,,,,60fde5cdab904cdcf81f2ccd,61036d564801fb346dd0fa63,2021-07-29_22h11.02.872,Simcolourproject_2stim_asymm_v5,2020.2.10,MacIntel,60,61025ae37ef11b136ea224fe,,,,,,,,,4350,-30,58,1,0,0,response7disk,,0,-15,2,1,0,0,rectangle,-15,2,1,0,0,-15,2,1,0,0,1,49,209,110,1,,,,,,,,
,,,,,,,,,,,,,FF,,,,,,,,1.117,,,,,,,,,,,,,,,,,,,,,,60fde5cdab904cdcf81f2ccd,61036d564801fb346dd0fa63,2021-07-29_22h11.02.872,Simcolourproject_2stim_asymm_v5,2020.2.10,MacIntel,60,61025ae37ef11b136ea224fe,,,,,,,,,2362,-50,31,1,0,0,response7disk,,1,-2,-1,1,0,0,rectangle,-2,-1,1,0,0,-2,-1,1,0,0,1,50,210,129,1,,,,,,,,
,,,,,,,,,,,,,FF,,,,,,,,0.734,,,,,,,,,,,,,,,,,,,,,,60fde5cdab904cdcf81f2ccd,61036d564801fb346dd0fa63,2021-07-29_22h11.02.872,Simcolourproject_2stim_asymm_v5,2020.2.10,MacIntel,60,61025ae37ef11b136ea224fe,,,,,,,,,550,-60,37,1,0,0,response7disk,,1,-15,7,1,0,0,rectangle,-15,7,1,0,0,-15,7,1,0,0,1,51,211,87,1,,,,,,,,
,,,,,,,,,,,,,FF,,,,,,,,1.633,,,,,,,,,,,,,,,,,,,,,,60fde5cdab904cdcf81f2ccd,61036d564801fb346dd0fa63,2021-07-29_22h11.02.872,Simcolourproject_2stim_asymm_v5,2020.2.10,MacIntel,60,61025ae37ef11b136ea224fe,,,,,,,,,3225,-52,-80,1,0,0,response5disk,,3,-22,7,1,0,0,rectangle,-22,7,1,0,0,-22,7,1,0,0,1,52,212,45,1,,,,,,,,
,,,,,,,,,,,,,FF,,,,,,,,1.783,,,,,,,,,,,,,,,,,,,,,,60fde5cdab904cdcf81f2ccd,61036d564801fb346dd0fa63,2021-07-29_22h11.02.872,Simcolourproject_2stim_asymm_v5,2020.2.10,MacIntel,60,61025ae37ef11b136ea224fe,,,,,,,,,1325,78,44,1,0,0,response1disk,,6,14,-8,1,0,0,rectangle,14,-8,1,0,0,14,-8,1,0,0,1,53,213,12,1,,,,,,,,
,,,,,,,,,,,,,FF,,,,,,,,1.249,,,,,,,,,,,,,,,,,,,,,,60fde5cdab904cdcf81f2ccd,61036d564801fb346dd0fa63,2021-07-29_22h11.02.872,Simcolourproject_2stim_asymm_v5,2020.2.10,MacIntel,60,61025ae37ef11b136ea224fe,,,,,,,,,1944,65,-32,1,0,0,response3disk,,5,17,3,1,0,0,rectangle,17,3,1,0,0,17,3,1,0,0,1,54,214,38,1,,,,,,,,
,,,,,,,,,,,,,FF,,,,,,,,1.082,,,,,,,,,,,,,,,,,,,,,,60fde5cdab904cdcf81f2ccd,61036d564801fb346dd0fa63,2021-07-29_22h11.02.872,Simcolourproject_2stim_asymm_v5,2020.2.10,MacIntel,60,61025ae37ef11b136ea224fe,,,,,,,,,4209,39,69,1,0,0,response1disk,,7,22,6,1,0,0,rectangle,22,6,1,0,0,22,6,1,0,0,1,55,215,57,1,,,,,,,,
,,,,,,,,,,,,,FF,,,,,,,,0.801,,,,,,,,,,,,,,,,,,,,,,60fde5cdab904cdcf81f2ccd,61036d564801fb346dd0fa63,2021-07-29_22h11.02.872,Simcolourproject_2stim_asymm_v5,2020.2.10,MacIntel,60,61025ae37ef11b136ea224fe,,,,,,,,,2433,60,36,1,0,0,response1disk,,6,7,4,1,0,0,rectangle,7,4,1,0,0,7,4,1,0,0,1,56,216,67,1,,,,,,,,
,,,,,,,,,,,,,FF,,,,,,,,0.917,,,,,,,,,,,,,,,,,,,,,,60fde5cdab904cdcf81f2ccd,61036d564801fb346dd0fa63,2021-07-29_22h11.02.872,Simcolourproject_2stim_asymm_v5,2020.2.10,MacIntel,60,61025ae37ef11b136ea224fe,,,,,,,,,674,68,-28,1,0,0,response3disk,,5,-5,2,1,0,0,rectangle,-5,2,1,0,0,-5,2,1,0,0,1,57,217,44,1,,,,,,,,
,,,,,,,,,,,,,FF,,,,,,,,1.317,,,,,,,,,,,,,,,,,,,,,,60fde5cdab904cdcf81f2ccd,61036d564801fb346dd0fa63,2021-07-29_22h11.02.872,Simcolourproject_2stim_asymm_v5,2020.2.10,MacIntel,60,61025ae37ef11b136ea224fe,,,,,,,,,3397,43,-50,1,0,0,response3disk,,4,25,-4,1,0,0,rectangle,25,-4,1,0,0,25,-4,1,0,0,1,58,218,149,1,,,,,,,,
,,,,,,,,,,,,,FF,,,,,,,,1.567,,,,,,,,,,,,,,,,,,,,,,60fde5cdab904cdcf81f2ccd,61036d564801fb346dd0fa63,2021-07-29_22h11.02.872,Simcolourproject_2stim_asymm_v5,2020.2.10,MacIntel,60,61025ae37ef11b136ea224fe,,,,,,,,,2495,49,18,1,0,0,response1disk,,6,0,6,1,0,0,rectangle,0,6,1,0,0,0,6,1,0,0,1,59,219,20,1,,,,,,,,
,,,,,,,,,,,,,FF,,,,,,,,1.117,,,,,,,,,,,,,,,,,,,,,,60fde5cdab904cdcf81f2ccd,61036d564801fb346dd0fa63,2021-07-29_22h11.02.872,Simcolourproject_2stim_asymm_v5,2020.2.10,MacIntel,60,61025ae37ef11b136ea224fe,,,,,,,,,83,54,-35,1,0,0,response3disk,,5,15,-8,1,0,0,rectangle,15,-8,1,0,0,15,-8,1,0,0,1,60,220,83,1,,,,,,,,
,,,,,,,,,,,,,FF,,,,,,,,0.85,,,,,,,,,,,,,,,,,,,,,,60fde5cdab904cdcf81f2ccd,61036d564801fb346dd0fa63,2021-07-29_22h11.02.872,Simcolourproject_2stim_asymm_v5,2020.2.10,MacIntel,60,61025ae37ef11b136ea224fe,,,,,,,,,645,54,37,1,0,0,response1disk,,6,6,10,1,0,0,rectangle,6,10,1,0,0,6,10,1,0,0,1,61,221,26,1,,,,,,,,
,,,,,,,,,,,,,FF,,,,,,,,1.983,,,,,,,,,,,,,,,,,,,,,,60fde5cdab904cdcf81f2ccd,61036d564801fb346dd0fa63,2021-07-29_22h11.02.872,Simcolourproject_2stim_asymm_v5,2020.2.10,MacIntel,60,61025ae37ef11b136ea224fe,,,,,,,,,105,57,-30,1,0,0,response3disk,,5,21,-7,1,0,0,rectangle,21,-7,1,0,0,21,-7,1,0,0,1,62,222,11,1,,,,,,,,
,,,,,,,,,,,,,FF,,,,,,,,0.7,,,,,,,,,,,,,,,,,,,,,,60fde5cdab904cdcf81f2ccd,61036d564801fb346dd0fa63,2021-07-29_22h11.02.872,Simcolourproject_2stim_asymm_v5,2020.2.10,MacIntel,60,61025ae37ef11b136ea224fe,,,,,,,,,157,60,-30,1,0,0,response3disk,,5,16,1,1,0,0,rectangle,16,1,1,0,0,16,1,1,0,0,1,63,223,55,1,,,,,,,,
,,,,,,,,,,,,,FF,,,,,,,,1.05,,,,,,,,,,,,,,,,,,,,,,60fde5cdab904cdcf81f2ccd,61036d564801fb346dd0fa63,2021-07-29_22h11.02.872,Simcolourproject_2stim_asymm_v5,2020.2.10,MacIntel,60,61025ae37ef11b136ea224fe,,,,,,,,,3096,-41,67,1,0,0,response7disk,,0,-23,-4,1,0,0,rectangle,-23,-4,1,0,0,-23,-4,1,0,0,1,64,224,2,1,,,,,,,,
,,,,,,,,,,,,,FF,,,,,,,,1.833,,,,,,,,,,,,,,,,,,,,,,60fde5cdab904cdcf81f2ccd,61036d564801fb346dd0fa63,2021-07-29_22h11.02.872,Simcolourproject_2stim_asymm_v5,2020.2.10,MacIntel,60,61025ae37ef11b136ea224fe,,,,,,,,,3230,70,44,1,0,0,response1disk,,6,10,14,1,0,0,rectangle,10,14,1,0,0,10,14,1,0,0,1,65,225,50,1,,,,,,,,
,,,,,,,,,,,,,FF,,,,,,,,1.549,,,,,,,,,,,,,,,,,,,,,,60fde5cdab904cdcf81f2ccd,61036d564801fb346dd0fa63,2021-07-29_22h11.02.872,Simcolourproject_2stim_asymm_v5,2020.2.10,MacIntel,60,61025ae37ef11b136ea224fe,,,,,,,,,2254,73,35,1,0,0,response1disk,,6,4,6,1,0,0,rectangle,4,6,1,0,0,4,6,1,0,0,1,66,226,100,1,,,,,,,,
,,,,,,,,,,,,,FF,,,,,,,,1.916,,,,,,,,,,,,,,,,,,,,,,60fde5cdab904cdcf81f2ccd,61036d564801fb346dd0fa63,2021-07-29_22h11.02.872,Simcolourproject_2stim_asymm_v5,2020.2.10,MacIntel,60,61025ae37ef11b136ea224fe,,,,,,,,,790,33,-63,1,0,0,response3disk,,4,17,-5,1,0,0,rectangle,17,-5,1,0,0,17,-5,1,0,0,1,67,227,1,1,,,,,,,,
,,,,,,,,,,,,,FF,,,,,,,,0.867,,,,,,,,,,,,,,,,,,,,,,60fde5cdab904cdcf81f2ccd,61036d564801fb346dd0fa63,2021-07-29_22h11.02.872,Simcolourproject_2stim_asymm_v5,2020.2.10,MacIntel,60,61025ae37ef11b136ea224fe,,,,,,,,,3601,42,-32,1,0,0,response3disk,,5,18,-15,1,0,0,rectangle,18,-15,1,0,0,18,-15,1,0,0,1,68,228,125,1,,,,,,,,
,,,,,,,,,,,,,FF,,,,,,,,2.067,,,,,,,,,,,,,,,,,,,,,,60fde5cdab904cdcf81f2ccd,61036d564801fb346dd0fa63,2021-07-29_22h11.02.872,Simcolourproject_2stim_asymm_v5,2020.2.10,MacIntel,60,61025ae37ef11b136ea224fe,,,,,,,,,2670,-55,-81,1,0,0,response5disk,,3,-12,5,1,0,0,rectangle,-12,5,1,0,0,-12,5,1,0,0,1,69,229,133,1,,,,,,,,
,,,,,,,,,,,,,FF,,,,,,,,0.934,,,,,,,,,,,,,,,,,,,,,,60fde5cdab904cdcf81f2ccd,61036d564801fb346dd0fa63,2021-07-29_22h11.02.872,Simcolourproject_2stim_asymm_v5,2020.2.10,MacIntel,60,61025ae37ef11b136ea224fe,,,,,,,,,1868,69,53,1,0,0,response1disk,,6,16,4,1,0,0,rectangle,16,4,1,0,0,16,4,1,0,0,1,70,230,16,1,,,,,,,,
,,,,,,,,,,,,,FF,,,,,,,,2.115,,,,,,,,,,,,,,,,,,,,,,60fde5cdab904cdcf81f2ccd,61036d564801fb346dd0fa63,2021-07-29_22h11.02.872,Simcolourproject_2stim_asymm_v5,2020.2.10,MacIntel,60,61025ae37ef11b136ea224fe,,,,,,,,,3952,67,-34,1,0,0,response3disk,,5,2,3,1,0,0,rectangle,2,3,1,0,0,2,3,1,0,0,1,71,231,147,1,,,,,,,,
,,,,,,,,,,,,,FF,,,,,,,,1.033,,,,,,,,,,,,,,,,,,,,,,60fde5cdab904cdcf81f2ccd,61036d564801fb346dd0fa63,2021-07-29_22h11.02.872,Simcolourproject_2stim_asymm_v5,2020.2.10,MacIntel,60,61025ae37ef11b136ea224fe,,,,,,,,,1555,81,35,1,0,0,response1disk,,6,13,-7,1,0,0,rectangle,13,-7,1,0,0,13,-7,1,0,0,1,72,232,56,1,,,,,,,,
,,,,,,,,,,,,,FF,,,,,,,,0.848,,,,,,,,,,,,,,,,,,,,,,60fde5cdab904cdcf81f2ccd,61036d564801fb346dd0fa63,2021-07-29_22h11.02.872,Simcolourproject_2stim_asymm_v5,2020.2.10,MacIntel,60,61025ae37ef11b136ea224fe,,,,,,,,,3306,27,66,1,0,0,response1disk,,7,14,3,1,0,0,rectangle,14,3,1,0,0,14,3,1,0,0,1,73,233,90,1,,,,,,,,
,,,,,,,,,,,,,FF,,,,,,,,0.717,,,,,,,,,,,,,,,,,,,,,,60fde5cdab904cdcf81f2ccd,61036d564801fb346dd0fa63,2021-07-29_22h11.02.872,Simcolourproject_2stim_asymm_v5,2020.2.10,MacIntel,60,61025ae37ef11b136ea224fe,,,,,,,,,988,61,-29,1,0,0,response3disk,,5,22,1,1,0,0,rectangle,22,1,1,0,0,22,1,1,0,0,1,74,234,51,1,,,,,,,,
,,,,,,,,,,,,,FF,,,,,,,,1.417,,,,,,,,,,,,,,,,,,,,,,60fde5cdab904cdcf81f2ccd,61036d564801fb346dd0fa63,2021-07-29_22h11.02.872,Simcolourproject_2stim_asymm_v5,2020.2.10,MacIntel,60,61025ae37ef11b136ea224fe,,,,,,,,,35,73,42,1,0,0,response1disk,,6,16,2,1,0,0,rectangle,16,2,1,0,0,16,2,1,0,0,1,75,235,137,1,,,,,,,,
,,,,,,,,,,,,,FF,,,,,,,,0.996,,,,,,,,,,,,,,,,,,,,,,60fde5cdab904cdcf81f2ccd,61036d564801fb346dd0fa63,2021-07-29_22h11.02.872,Simcolourproject_2stim_asymm_v5,2020.2.10,MacIntel,60,61025ae37ef11b136ea224fe,,,,,,,,,3264,45,-30,1,0,0,response3disk,,5,2,-11,1,0,0,rectangle,2,-11,1,0,0,2,-11,1,0,0,1,76,236,151,1,,,,,,,,
,,,,,,,,,,,,,FF,,,,,,,,0.916,,,,,,,,,,,,,,,,,,,,,,60fde5cdab904cdcf81f2ccd,61036d564801fb346dd0fa63,2021-07-29_22h11.02.872,Simcolourproject_2stim_asymm_v5,2020.2.10,MacIntel,60,61025ae37ef11b136ea224fe,,,,,,,,,3529,66,38,1,0,0,response1disk,,6,6,15,1,0,0,rectangle,6,15,1,0,0,6,15,1,0,0,1,77,237,94,1,,,,,,,,
,,,,,,,,,,,,,FF,,,,,,,,0.966,,,,,,,,,,,,,,,,,,,,,,60fde5cdab904cdcf81f2ccd,61036d564801fb346dd0fa63,2021-07-29_22h11.02.872,Simcolourproject_2stim_asymm_v5,2020.2.10,MacIntel,60,61025ae37ef11b136ea224fe,,,,,,,,,3520,26,-68,1,0,0,response3disk,,4,2,-9,1,0,0,rectangle,2,-9,1,0,0,2,-9,1,0,0,1,78,238,36,1,,,,,,,,
,,,,,,,,,,,,,FF,,,,,,,,0.8,,,,,,,,,,,,,,,,,,,,,,60fde5cdab904cdcf81f2ccd,61036d564801fb346dd0fa63,2021-07-29_22h11.02.872,Simcolourproject_2stim_asymm_v5,2020.2.10,MacIntel,60,61025ae37ef11b136ea224fe,,,,,,,,,3408,69,42,1,0,0,response1disk,,6,-2,-3,1,0,0,rectangle,-2,-3,1,0,0,-2,-3,1,0,0,1,79,239,85,1,,,,,,,,
,,,,,,,,,,,,,FF,,,,,,,,1.115,,,,,,,,,,,,,,,,,,,,,,60fde5cdab904cdcf81f2ccd,61036d564801fb346dd0fa63,2021-07-29_22h11.02.872,Simcolourproject_2stim_asymm_v5,2020.2.10,MacIntel,60,61025ae37ef11b136ea224fe,,,,,,,,,4369,-27,43,1,0,0,response7disk,,0,-8,-3,1,0,0,rectangle,-8,-3,1,0,0,-8,-3,1,0,0,1,80,240,18,1,,,,,,,,
,,,,,,,,,,,,,FF,,,,,,,,0.815,,,,,,,,,,,,,,,,,,,,,,60fde5cdab904cdcf81f2ccd,61036d564801fb346dd0fa63,2021-07-29_22h11.02.872,Simcolourproject_2stim_asymm_v5,2020.2.10,MacIntel,60,61025ae37ef11b136ea224fe,,,,,,,,,3028,70,25,1,0,0,response1disk,,6,21,4,1,0,0,rectangle,76,-31,1,0,0,26,-1,1,0,0,1,81,241,127,1,,response3disk_3,TRUE,5,5,"[74,151,184,129,88,269,274,275,244,289,314,242,14,6,111,162,271,146,91,24]",1.415,rectangle
,,,,,,,,,,,,,FF,,,,,,,,1.001,,,,,,,,,,,,,,,,,,,,,,60fde5cdab904cdcf81f2ccd,61036d564801fb346dd0fa63,2021-07-29_22h11.02.872,Simcolourproject_2stim_asymm_v5,2020.2.10,MacIntel,60,61025ae37ef11b136ea224fe,,,,,,,,,1710,74,-52,1,0,0,response3disk,,5,5,7,1,0,0,rectangle,5,7,1,0,0,5,7,1,0,0,1,82,242,114,1,,,,,,,,
,,,,,,,,,,,,,FF,,,,,,,,1.151,,,,,,,,,,,,,,,,,,,,,,60fde5cdab904cdcf81f2ccd,61036d564801fb346dd0fa63,2021-07-29_22h11.02.872,Simcolourproject_2stim_asymm_v5,2020.2.10,MacIntel,60,61025ae37ef11b136ea224fe,,,,,,,,,3917,-24,-78,1,0,0,response5disk,,3,-3,-3,1,0,0,rectangle,-60,44,1,0,0,-13,4,1,0,0,1,83,243,132,1,,response7disk_3,TRUE,1,1,"[74,151,184,129,88,269,274,275,244,289,314,242,14,6,111,162,271,146,91,24]",1.532,rectangle
,,,,,,,,,,,,,FF,,,,,,,,1.634,,,,,,,,,,,,,,,,,,,,,,60fde5cdab904cdcf81f2ccd,61036d564801fb346dd0fa63,2021-07-29_22h11.02.872,Simcolourproject_2stim_asymm_v5,2020.2.10,MacIntel,60,61025ae37ef11b136ea224fe,,,,,,,,,1827,-89,29,1,0,0,response7disk,,1,-18,5,1,0,0,rectangle,-18,5,1,0,0,-18,5,1,0,0,1,84,244,62,1,,,,,,,,
,,,,,,,,,,,,,FF,,,,,,,,1.518,,,,,,,,,,,,,,,,,,,,,,60fde5cdab904cdcf81f2ccd,61036d564801fb346dd0fa63,2021-07-29_22h11.02.872,Simcolourproject_2stim_asymm_v5,2020.2.10,MacIntel,60,61025ae37ef11b136ea224fe,,,,,,,,,2075,79,40,1,0,0,response1disk,,6,14,4,1,0,0,rectangle,14,4,1,0,0,14,4,1,0,0,1,85,245,9,1,,,,,,,,
,,,,,,,,,,,,,FF,,,,,,,,1.1,,,,,,,,,,,,,,,,,,,,,,60fde5cdab904cdcf81f2ccd,61036d564801fb346dd0fa63,2021-07-29_22h11.02.872,Simcolourproject_2stim_asymm_v5,2020.2.10,MacIntel,60,61025ae37ef11b136ea224fe,,,,,,,,,1601,30,75,1,0,0,response1disk,,7,-6,8,1,0,0,rectangle,-6,8,1,0,0,-6,8,1,0,0,1,86,246,65,1,,,,,,,,
,,,,,,,,,,,,,FF,,,,,,,,1.217,,,,,,,,,,,,,,,,,,,,,,60fde5cdab904cdcf81f2ccd,61036d564801fb346dd0fa63,2021-07-29_22h11.02.872,Simcolourproject_2stim_asymm_v5,2020.2.10,MacIntel,60,61025ae37ef11b136ea224fe,,,,,,,,,2087,76,40,1,0,0,response1disk,,6,-16,14,1,0,0,rectangle,-16,14,1,0,0,-16,14,1,0,0,1,87,247,3,1,,,,,,,,
,,,,,,,,,,,,,FF,,,,,,,,1.016,,,,,,,,,,,,,,,,,,,,,,60fde5cdab904cdcf81f2ccd,61036d564801fb346dd0fa63,2021-07-29_22h11.02.872,Simcolourproject_2stim_asymm_v5,2020.2.10,MacIntel,60,61025ae37ef11b136ea224fe,,,,,,,,,3649,-74,-53,1,0,0,response5disk,,2,-9,-10,1,0,0,rectangle,-9,-10,1,0,0,-9,-10,1,0,0,1,88,248,81,1,,,,,,,,
,,,,,,,,,,,,,FF,,,,,,,,2.9,,,,,,,,,,,,,,,,,,,,,,60fde5cdab904cdcf81f2ccd,61036d564801fb346dd0fa63,2021-07-29_22h11.02.872,Simcolourproject_2stim_asymm_v5,2020.2.10,MacIntel,60,61025ae37ef11b136ea224fe,,,,,,,,,816,-35,-68,1,0,0,response5disk,,3,-10,4,1,0,0,rectangle,-10,4,1,0,0,-10,4,1,0,0,1,89,249,60,1,,,,,,,,
,,,,,,,,,,,,,FF,,,,,,,,0.768,,,,,,,,,,,,,,,,,,,,,,60fde5cdab904cdcf81f2ccd,61036d564801fb346dd0fa63,2021-07-29_22h11.02.872,Simcolourproject_2stim_asymm_v5,2020.2.10,MacIntel,60,61025ae37ef11b136ea224fe,,,,,,,,,4362,-35,62,1,0,0,response7disk,,0,-18,-2,1,0,0,rectangle,-18,-2,1,0,0,-18,-2,1,0,0,1,90,250,77,1,,,,,,,,
,,,,,,,,,,,,,FF,,,,,,,,1.233,,,,,,,,,,,,,,,,,,,,,,60fde5cdab904cdcf81f2ccd,61036d564801fb346dd0fa63,2021-07-29_22h11.02.872,Simcolourproject_2stim_asymm_v5,2020.2.10,MacIntel,60,61025ae37ef11b136ea224fe,,,,,,,,,3043,27,63,1,0,0,response1disk,,7,-2,-12,1,0,0,rectangle,-2,-12,1,0,0,-2,-12,1,0,0,1,91,251,143,1,,,,,,,,
,,,,,,,,,,,,,FF,,,,,,,,1.482,,,,,,,,,,,,,,,,,,,,,,60fde5cdab904cdcf81f2ccd,61036d564801fb346dd0fa63,2021-07-29_22h11.02.872,Simcolourproject_2stim_asymm_v5,2020.2.10,MacIntel,60,61025ae37ef11b136ea224fe,,,,,,,,,808,-69,21,1,0,0,response7disk,,1,-28,6,1,0,0,rectangle,-28,6,1,0,0,-28,6,1,0,0,1,92,252,73,1,,,,,,,,
,,,,,,,,,,,,,FF,,,,,,,,1.034,,,,,,,,,,,,,,,,,,,,,,60fde5cdab904cdcf81f2ccd,61036d564801fb346dd0fa63,2021-07-29_22h11.02.872,Simcolourproject_2stim_asymm_v5,2020.2.10,MacIntel,60,61025ae37ef11b136ea224fe,,,,,,,,,2535,31,-73,1,0,0,response3disk,,4,10,-6,1,0,0,rectangle,10,-6,1,0,0,10,-6,1,0,0,1,93,253,130,1,,,,,,,,
,,,,,,,,,,,,,FF,,,,,,,,1.5,,,,,,,,,,,,,,,,,,,,,,60fde5cdab904cdcf81f2ccd,61036d564801fb346dd0fa63,2021-07-29_22h11.02.872,Simcolourproject_2stim_asymm_v5,2020.2.10,MacIntel,60,61025ae37ef11b136ea224fe,,,,,,,,,46,63,-27,1,0,0,response3disk,,5,2,0,1,0,0,rectangle,2,0,1,0,0,2,0,1,0,0,1,94,254,27,1,,,,,,,,
,,,,,,,,,,,,,FF,,,,,,,,1.034,,,,,,,,,,,,,,,,,,,,,,60fde5cdab904cdcf81f2ccd,61036d564801fb346dd0fa63,2021-07-29_22h11.02.872,Simcolourproject_2stim_asymm_v5,2020.2.10,MacIntel,60,61025ae37ef11b136ea224fe,,,,,,,,,2235,-103,-33,1,0,0,response5disk,,2,-21,1,1,0,0,rectangle,-21,1,1,0,0,-21,1,1,0,0,1,95,255,48,1,,,,,,,,
,,,,,,,,,,,,,FF,,,,,,,,0.768,,,,,,,,,,,,,,,,,,,,,,60fde5cdab904cdcf81f2ccd,61036d564801fb346dd0fa63,2021-07-29_22h11.02.872,Simcolourproject_2stim_asymm_v5,2020.2.10,MacIntel,60,61025ae37ef11b136ea224fe,,,,,,,,,2811,86,19,1,0,0,response1disk,,6,8,-15,1,0,0,rectangle,8,-15,1,0,0,8,-15,1,0,0,1,96,256,28,1,,,,,,,,
,,,,,,,,,,,,,FF,,,,,,,,2.183,,,,,,,,,,,,,,,,,,,,,,60fde5cdab904cdcf81f2ccd,61036d564801fb346dd0fa63,2021-07-29_22h11.02.872,Simcolourproject_2stim_asymm_v5,2020.2.10,MacIntel,60,61025ae37ef11b136ea224fe,,,,,,,,,922,68,39,1,0,0,response1disk,,6,-8,7,1,0,0,rectangle,-8,7,1,0,0,-8,7,1,0,0,1,97,257,17,1,,,,,,,,
,,,,,,,,,,,,,FF,,,,,,,,0.933,,,,,,,,,,,,,,,,,,,,,,60fde5cdab904cdcf81f2ccd,61036d564801fb346dd0fa63,2021-07-29_22h11.02.872,Simcolourproject_2stim_asymm_v5,2020.2.10,MacIntel,60,61025ae37ef11b136ea224fe,,,,,,,,,2597,33,59,1,0,0,response1disk,,7,-4,-11,1,0,0,rectangle,-4,-11,1,0,0,-4,-11,1,0,0,1,98,258,128,1,,,,,,,,
,,,,,,,,,,,,,FF,,,,,,,,0.867,,,,,,,,,,,,,,,,,,,,,,60fde5cdab904cdcf81f2ccd,61036d564801fb346dd0fa63,2021-07-29_22h11.02.872,Simcolourproject_2stim_asymm_v5,2020.2.10,MacIntel,60,61025ae37ef11b136ea224fe,,,,,,,,,2130,33,80,1,0,0,response1disk,,7,11,10,1,0,0,rectangle,11,10,1,0,0,11,10,1,0,0,1,99,259,102,1,,,,,,,,
,,,,,,,,,,,,,FF,,,,,,,,0.967,,,,,,,,,,,,,,,,,,,,,,60fde5cdab904cdcf81f2ccd,61036d564801fb346dd0fa63,2021-07-29_22h11.02.872,Simcolourproject_2stim_asymm_v5,2020.2.10,MacIntel,60,61025ae37ef11b136ea224fe,,,,,,,,,4090,65,46,1,0,0,response1disk,,6,10,6,1,0,0,rectangle,10,6,1,0,0,10,6,1,0,0,1,100,260,157,1,,,,,,,,
,,,,,,,,,,,,,FF,,,,,,,,1.45,,,,,,,,,,,,,,,,,,,,,,60fde5cdab904cdcf81f2ccd,61036d564801fb346dd0fa63,2021-07-29_22h11.02.872,Simcolourproject_2stim_asymm_v5,2020.2.10,MacIntel,60,61025ae37ef11b136ea224fe,,,,,,,,,1146,71,-36,1,0,0,response3disk,,5,17,7,1,0,0,rectangle,17,7,1,0,0,17,7,1,0,0,1,101,261,14,1,,,,,,,,
,,,,,,,,,,,,,FF,,,,,,,,1.567,,,,,,,,,,,,,,,,,,,,,,60fde5cdab904cdcf81f2ccd,61036d564801fb346dd0fa63,2021-07-29_22h11.02.872,Simcolourproject_2stim_asymm_v5,2020.2.10,MacIntel,60,61025ae37ef11b136ea224fe,,,,,,,,,4346,-104,-45,1,0,0,response5disk,,2,-12,-2,1,0,0,rectangle,-12,-2,1,0,0,-12,-2,1,0,0,1,102,262,88,1,,,,,,,,
,,,,,,,,,,,,,FF,,,,,,,,0.983,,,,,,,,,,,,,,,,,,,,,,60fde5cdab904cdcf81f2ccd,61036d564801fb346dd0fa63,2021-07-29_22h11.02.872,Simcolourproject_2stim_asymm_v5,2020.2.10,MacIntel,60,61025ae37ef11b136ea224fe,,,,,,,,,4056,-41,-71,1,0,0,response5disk,,3,4,-5,1,0,0,rectangle,4,-5,1,0,0,4,-5,1,0,0,1,103,263,34,1,,,,,,,,
,,,,,,,,,,,,,FF,,,,,,,,1.281,,,,,,,,,,,,,,,,,,,,,,60fde5cdab904cdcf81f2ccd,61036d564801fb346dd0fa63,2021-07-29_22h11.02.872,Simcolourproject_2stim_asymm_v5,2020.2.10,MacIntel,60,61025ae37ef11b136ea224fe,,,,,,,,,1849,58,-30,1,0,0,response3disk,,5,24,-5,1,0,0,rectangle,24,-5,1,0,0,24,-5,1,0,0,1,104,264,43,1,,,,,,,,
,,,,,,,,,,,,,FF,,,,,,,,0.799,,,,,,,,,,,,,,,,,,,,,,60fde5cdab904cdcf81f2ccd,61036d564801fb346dd0fa63,2021-07-29_22h11.02.872,Simcolourproject_2stim_asymm_v5,2020.2.10,MacIntel,60,61025ae37ef11b136ea224fe,,,,,,,,,2904,76,47,1,0,0,response1disk,,6,-15,3,1,0,0,rectangle,-15,3,1,0,0,-15,3,1,0,0,1,105,265,63,1,,,,,,,,
,,,,,,,,,,,,,FF,,,,,,,,1.383,,,,,,,,,,,,,,,,,,,,,,60fde5cdab904cdcf81f2ccd,61036d564801fb346dd0fa63,2021-07-29_22h11.02.872,Simcolourproject_2stim_asymm_v5,2020.2.10,MacIntel,60,61025ae37ef11b136ea224fe,,,,,,,,,3301,66,51,1,0,0,response1disk,,6,7,12,1,0,0,rectangle,7,12,1,0,0,7,12,1,0,0,1,106,266,111,1,,,,,,,,
,,,,,,,,,,,,,FF,,,,,,,,1.016,,,,,,,,,,,,,,,,,,,,,,60fde5cdab904cdcf81f2ccd,61036d564801fb346dd0fa63,2021-07-29_22h11.02.872,Simcolourproject_2stim_asymm_v5,2020.2.10,MacIntel,60,61025ae37ef11b136ea224fe,,,,,,,,,616,35,-62,1,0,0,response3disk,,4,-1,-2,1,0,0,rectangle,-1,-2,1,0,0,-1,-2,1,0,0,1,107,267,121,1,,,,,,,,
,,,,,,,,,,,,,FF,,,,,,,,2.05,,,,,,,,,,,,,,,,,,,,,,60fde5cdab904cdcf81f2ccd,61036d564801fb346dd0fa63,2021-07-29_22h11.02.872,Simcolourproject_2stim_asymm_v5,2020.2.10,MacIntel,60,61025ae37ef11b136ea224fe,,,,,,,,,328,77,36,1,0,0,response1disk,,6,8,1,1,0,0,rectangle,-28,-102,1,0,0,17,4,1,0,0,1,108,268,74,1,,response5disk_3,TRUE,3,3,"[74,151,184,129,88,269,274,275,244,289,314,242,14,6,111,162,271,146,91,24]",1.633,rectangle
,,,,,,,,,,,,,FF,,,,,,,,1.367,,,,,,,,,,,,,,,,,,,,,,60fde5cdab904cdcf81f2ccd,61036d564801fb346dd0fa63,2021-07-29_22h11.02.872,Simcolourproject_2stim_asymm_v5,2020.2.10,MacIntel,60,61025ae37ef11b136ea224fe,,,,,,,,,3967,-84,30,1,0,0,response7disk,,1,-24,-4,1,0,0,rectangle,-24,-4,1,0,0,-24,-4,1,0,0,1,109,269,53,1,,,,,,,,
,,,,,,,,,,,,,FF,,,,,,,,1.25,,,,,,,,,,,,,,,,,,,,,,60fde5cdab904cdcf81f2ccd,61036d564801fb346dd0fa63,2021-07-29_22h11.02.872,Simcolourproject_2stim_asymm_v5,2020.2.10,MacIntel,60,61025ae37ef11b136ea224fe,,,,,,,,,137,-35,-68,1,0,0,response5disk,,3,-4,0,1,0,0,rectangle,21,65,1,0,0,2,-7,1,0,0,1,110,270,47,1,,response1disk_3,TRUE,7,7,"[74,151,184,129,88,269,274,275,244,289,314,242,14,6,111,162,271,146,91,24]",1.715,rectangle
,,,,,,,,,,,,,FF,,,,,,,,1.067,,,,,,,,,,,,,,,,,,,,,,60fde5cdab904cdcf81f2ccd,61036d564801fb346dd0fa63,2021-07-29_22h11.02.872,Simcolourproject_2stim_asymm_v5,2020.2.10,MacIntel,60,61025ae37ef11b136ea224fe,,,,,,,,,2449,71,33,1,0,0,response1disk,,6,6,5,1,0,0,rectangle,6,5,1,0,0,6,5,1,0,0,1,111,271,79,1,,,,,,,,
,,,,,,,,,,,,,FF,,,,,,,,0.749,,,,,,,,,,,,,,,,,,,,,,60fde5cdab904cdcf81f2ccd,61036d564801fb346dd0fa63,2021-07-29_22h11.02.872,Simcolourproject_2stim_asymm_v5,2020.2.10,MacIntel,60,61025ae37ef11b136ea224fe,,,,,,,,,4055,57,-20,1,0,0,response3disk,,5,17,-2,1,0,0,rectangle,17,-2,1,0,0,17,-2,1,0,0,1,112,272,135,1,,,,,,,,
,,,,,,,,,,,,,FF,,,,,,,,0.849,,,,,,,,,,,,,,,,,,,,,,60fde5cdab904cdcf81f2ccd,61036d564801fb346dd0fa63,2021-07-29_22h11.02.872,Simcolourproject_2stim_asymm_v5,2020.2.10,MacIntel,60,61025ae37ef11b136ea224fe,,,,,,,,,3177,62,-22,1,0,0,response3disk,,5,24,-1,1,0,0,rectangle,35,-74,1,0,0,14,-11,1,0,0,1,113,273,156,1,,response3disk_3,TRUE,4,4,"[74,151,184,129,88,269,274,275,244,289,314,242,14,6,111,162,271,146,91,24]",1.259,rectangle
,,,,,,,,,,,,,FF,,,,,,,,0.833,,,,,,,,,,,,,,,,,,,,,,60fde5cdab904cdcf81f2ccd,61036d564801fb346dd0fa63,2021-07-29_22h11.02.872,Simcolourproject_2stim_asymm_v5,2020.2.10,MacIntel,60,61025ae37ef11b136ea224fe,,,,,,,,,48,40,-34,1,0,0,response3disk,,5,9,-9,1,0,0,rectangle,-98,-53,1,0,0,14,-1,1,0,0,1,114,274,140,1,,response5disk_3,TRUE,2,2,"[74,151,184,129,88,269,274,275,244,289,314,242,14,6,111,162,271,146,91,24]",2.183,rectangle
,,,,,,,,,,,,,FF,,,,,,,,1.767,,,,,,,,,,,,,,,,,,,,,,60fde5cdab904cdcf81f2ccd,61036d564801fb346dd0fa63,2021-07-29_22h11.02.872,Simcolourproject_2stim_asymm_v5,2020.2.10,MacIntel,60,61025ae37ef11b136ea224fe,,,,,,,,,2270,75,21,1,0,0,response1disk,,6,6,-9,1,0,0,rectangle,6,-9,1,0,0,6,-9,1,0,0,1,115,275,131,1,,,,,,,,
,,,,,,,,,,,,,FF,,,,,,,,0.6,,,,,,,,,,,,,,,,,,,,,,60fde5cdab904cdcf81f2ccd,61036d564801fb346dd0fa63,2021-07-29_22h11.02.872,Simcolourproject_2stim_asymm_v5,2020.2.10,MacIntel,60,61025ae37ef11b136ea224fe,,,,,,,,,678,62,-35,1,0,0,response3disk,,5,9,-12,1,0,0,rectangle,9,-12,1,0,0,9,-12,1,0,0,1,116,276,8,1,,,,,,,,
,,,,,,,,,,,,,FF,,,,,,,,1.433,,,,,,,,,,,,,,,,,,,,,,60fde5cdab904cdcf81f2ccd,61036d564801fb346dd0fa63,2021-07-29_22h11.02.872,Simcolourproject_2stim_asymm_v5,2020.2.10,MacIntel,60,61025ae37ef11b136ea224fe,,,,,,,,,4009,75,26,1,0,0,response1disk,,6,24,5,1,0,0,rectangle,24,5,1,0,0,24,5,1,0,0,1,117,277,120,1,,,,,,,,
,,,,,,,,,,,,,FF,,,,,,,,0.717,,,,,,,,,,,,,,,,,,,,,,60fde5cdab904cdcf81f2ccd,61036d564801fb346dd0fa63,2021-07-29_22h11.02.872,Simcolourproject_2stim_asymm_v5,2020.2.10,MacIntel,60,61025ae37ef11b136ea224fe,,,,,,,,,753,60,-31,1,0,0,response3disk,,5,-2,-2,1,0,0,rectangle,-2,-2,1,0,0,-2,-2,1,0,0,1,118,278,78,1,,,,,,,,
,,,,,,,,,,,,,FF,,,,,,,,0.934,,,,,,,,,,,,,,,,,,,,,,60fde5cdab904cdcf81f2ccd,61036d564801fb346dd0fa63,2021-07-29_22h11.02.872,Simcolourproject_2stim_asymm_v5,2020.2.10,MacIntel,60,61025ae37ef11b136ea224fe,,,,,,,,,2425,-72,35,1,0,0,response7disk,,1,-20,2,1,0,0,rectangle,-20,2,1,0,0,-20,2,1,0,0,1,119,279,82,1,,,,,,,,
,,,,,,,,,,,,,FF,,,,,,,,0.784,,,,,,,,,,,,,,,,,,,,,,60fde5cdab904cdcf81f2ccd,61036d564801fb346dd0fa63,2021-07-29_22h11.02.872,Simcolourproject_2stim_asymm_v5,2020.2.10,MacIntel,60,61025ae37ef11b136ea224fe,,,,,,,,,2911,-35,-68,1,0,0,response5disk,,3,-8,-10,1,0,0,rectangle,-8,-10,1,0,0,-8,-10,1,0,0,1,120,280,59,1,,,,,,,,
,,,,,,,,,,,,,FF,,,,,,,,0.717,,,,,,,,,,,,,,,,,,,,,,60fde5cdab904cdcf81f2ccd,61036d564801fb346dd0fa63,2021-07-29_22h11.02.872,Simcolourproject_2stim_asymm_v5,2020.2.10,MacIntel,60,61025ae37ef11b136ea224fe,,,,,,,,,3863,43,-45,1,0,0,response3disk,,4,18,1,1,0,0,rectangle,18,1,1,0,0,18,1,1,0,0,1,121,281,148,1,,,,,,,,
,,,,,,,,,,,,,FF,,,,,,,,1.216,,,,,,,,,,,,,,,,,,,,,,60fde5cdab904cdcf81f2ccd,61036d564801fb346dd0fa63,2021-07-29_22h11.02.872,Simcolourproject_2stim_asymm_v5,2020.2.10,MacIntel,60,61025ae37ef11b136ea224fe,,,,,,,,,2152,-30,-71,1,0,0,response5disk,,3,6,13,1,0,0,rectangle,6,13,1,0,0,6,13,1,0,0,1,122,282,150,1,,,,,,,,
,,,,,,,,,,,,,FF,,,,,,,,0.867,,,,,,,,,,,,,,,,,,,,,,60fde5cdab904cdcf81f2ccd,61036d564801fb346dd0fa63,2021-07-29_22h11.02.872,Simcolourproject_2stim_asymm_v5,2020.2.10,MacIntel,60,61025ae37ef11b136ea224fe,,,,,,,,,2381,56,-36,1,0,0,response3disk,,5,19,-8,1,0,0,rectangle,19,-8,1,0,0,19,-8,1,0,0,1,123,283,13,1,,,,,,,,
,,,,,,,,,,,,,FF,,,,,,,,1.167,,,,,,,,,,,,,,,,,,,,,,60fde5cdab904cdcf81f2ccd,61036d564801fb346dd0fa63,2021-07-29_22h11.02.872,Simcolourproject_2stim_asymm_v5,2020.2.10,MacIntel,60,61025ae37ef11b136ea224fe,,,,,,,,,275,62,-36,1,0,0,response3disk,,5,9,2,1,0,0,rectangle,9,2,1,0,0,9,2,1,0,0,1,124,284,146,1,,,,,,,,
,,,,,,,,,,,,,FF,,,,,,,,1.665,,,,,,,,,,,,,,,,,,,,,,60fde5cdab904cdcf81f2ccd,61036d564801fb346dd0fa63,2021-07-29_22h11.02.872,Simcolourproject_2stim_asymm_v5,2020.2.10,MacIntel,60,61025ae37ef11b136ea224fe,,,,,,,,,3521,35,-63,1,0,0,response3disk,,4,8,8,1,0,0,rectangle,8,8,1,0,0,8,8,1,0,0,1,125,285,108,1,,,,,,,,
,,,,,,,,,,,,,FF,,,,,,,,1,,,,,,,,,,,,,,,,,,,,,,60fde5cdab904cdcf81f2ccd,61036d564801fb346dd0fa63,2021-07-29_22h11.02.872,Simcolourproject_2stim_asymm_v5,2020.2.10,MacIntel,60,61025ae37ef11b136ea224fe,,,,,,,,,2757,68,34,1,0,0,response1disk,,6,16,6,1,0,0,rectangle,16,6,1,0,0,16,6,1,0,0,1,126,286,64,1,,,,,,,,
,,,,,,,,,,,,,FF,,,,,,,,1.314,,,,,,,,,,,,,,,,,,,,,,60fde5cdab904cdcf81f2ccd,61036d564801fb346dd0fa63,2021-07-29_22h11.02.872,Simcolourproject_2stim_asymm_v5,2020.2.10,MacIntel,60,61025ae37ef11b136ea224fe,,,,,,,,,2503,75,-32,1,0,0,response3disk,,5,10,8,1,0,0,rectangle,10,8,1,0,0,10,8,1,0,0,1,127,287,126,1,,,,,,,,
,,,,,,,,,,,,,FF,,,,,,,,1.166,,,,,,,,,,,,,,,,,,,,,,60fde5cdab904cdcf81f2ccd,61036d564801fb346dd0fa63,2021-07-29_22h11.02.872,Simcolourproject_2stim_asymm_v5,2020.2.10,MacIntel,60,61025ae37ef11b136ea224fe,,,,,,,,,298,55,-25,1,0,0,response3disk,,5,25,-9,1,0,0,rectangle,-35,-64,1,0,0,-11,-6,1,0,0,1,128,288,159,1,,response5disk_3,TRUE,3,3,"[74,151,184,129,88,269,274,275,244,289,314,242,14,6,111,162,271,146,91,24]",1.199,rectangle
,,,,,,,,,,,,,FF,,,,,,,,0.783,,,,,,,,,,,,,,,,,,,,,,60fde5cdab904cdcf81f2ccd,61036d564801fb346dd0fa63,2021-07-29_22h11.02.872,Simcolourproject_2stim_asymm_v5,2020.2.10,MacIntel,60,61025ae37ef11b136ea224fe,,,,,,,,,4161,-50,64,1,0,0,response7disk,,0,-18,-1,1,0,0,rectangle,-18,-1,1,0,0,-18,-1,1,0,0,1,129,289,21,1,,,,,,,,
,,,,,,,,,,,,,FF,,,,,,,,1.232,,,,,,,,,,,,,,,,,,,,,,60fde5cdab904cdcf81f2ccd,61036d564801fb346dd0fa63,2021-07-29_22h11.02.872,Simcolourproject_2stim_asymm_v5,2020.2.10,MacIntel,60,61025ae37ef11b136ea224fe,,,,,,,,,1396,-32,-67,1,0,0,response5disk,,3,-4,1,1,0,0,rectangle,-4,1,1,0,0,-4,1,1,0,0,1,130,290,99,1,,,,,,,,
,,,,,,,,,,,,,FF,,,,,,,,0.782,,,,,,,,,,,,,,,,,,,,,,60fde5cdab904cdcf81f2ccd,61036d564801fb346dd0fa63,2021-07-29_22h11.02.872,Simcolourproject_2stim_asymm_v5,2020.2.10,MacIntel,60,61025ae37ef11b136ea224fe,,,,,,,,,1172,27,-67,1,0,0,response3disk,,4,11,-10,1,0,0,rectangle,11,-10,1,0,0,11,-10,1,0,0,1,131,291,145,1,,,,,,,,
,,,,,,,,,,,,,FF,,,,,,,,0.749,,,,,,,,,,,,,,,,,,,,,,60fde5cdab904cdcf81f2ccd,61036d564801fb346dd0fa63,2021-07-29_22h11.02.872,Simcolourproject_2stim_asymm_v5,2020.2.10,MacIntel,60,61025ae37ef11b136ea224fe,,,,,,,,,4313,86,-41,1,0,0,response3disk,,5,12,-3,1,0,0,rectangle,12,-3,1,0,0,12,-3,1,0,0,1,132,292,115,1,,,,,,,,
,,,,,,,,,,,,,FF,,,,,,,,0.984,,,,,,,,,,,,,,,,,,,,,,60fde5cdab904cdcf81f2ccd,61036d564801fb346dd0fa63,2021-07-29_22h11.02.872,Simcolourproject_2stim_asymm_v5,2020.2.10,MacIntel,60,61025ae37ef11b136ea224fe,,,,,,,,,3623,-73,-31,1,0,0,response5disk,,2,-15,15,1,0,0,rectangle,-15,15,1,0,0,-15,15,1,0,0,1,133,293,52,1,,,,,,,,
,,,,,,,,,,,,,FF,,,,,,,,0.866,,,,,,,,,,,,,,,,,,,,,,60fde5cdab904cdcf81f2ccd,61036d564801fb346dd0fa63,2021-07-29_22h11.02.872,Simcolourproject_2stim_asymm_v5,2020.2.10,MacIntel,60,61025ae37ef11b136ea224fe,,,,,,,,,3108,-65,-33,1,0,0,response5disk,,2,-15,-10,1,0,0,rectangle,-15,-10,1,0,0,-15,-10,1,0,0,1,134,294,89,1,,,,,,,,
,,,,,,,,,,,,,FF,,,,,,,,0.667,,,,,,,,,,,,,,,,,,,,,,60fde5cdab904cdcf81f2ccd,61036d564801fb346dd0fa63,2021-07-29_22h11.02.872,Simcolourproject_2stim_asymm_v5,2020.2.10,MacIntel,60,61025ae37ef11b136ea224fe,,,,,,,,,2867,-48,-78,1,0,0,response5disk,,3,-9,-3,1,0,0,rectangle,-9,-3,1,0,0,-9,-3,1,0,0,1,135,295,58,1,,,,,,,,
,,,,,,,,,,,,,FF,,,,,,,,1.068,,,,,,,,,,,,,,,,,,,,,,60fde5cdab904cdcf81f2ccd,61036d564801fb346dd0fa63,2021-07-29_22h11.02.872,Simcolourproject_2stim_asymm_v5,2020.2.10,MacIntel,60,61025ae37ef11b136ea224fe,,,,,,,,,777,25,-53,1,0,0,response3disk,,4,5,-13,1,0,0,rectangle,5,-13,1,0,0,5,-13,1,0,0,1,136,296,84,1,,,,,,,,
,,,,,,,,,,,,,FF,,,,,,,,0.648,,,,,,,,,,,,,,,,,,,,,,60fde5cdab904cdcf81f2ccd,61036d564801fb346dd0fa63,2021-07-29_22h11.02.872,Simcolourproject_2stim_asymm_v5,2020.2.10,MacIntel,60,61025ae37ef11b136ea224fe,,,,,,,,,22,52,-25,1,0,0,response3disk,,5,15,2,1,0,0,rectangle,15,2,1,0,0,15,2,1,0,0,1,137,297,144,1,,,,,,,,
,,,,,,,,,,,,,FF,,,,,,,,0.818,,,,,,,,,,,,,,,,,,,,,,60fde5cdab904cdcf81f2ccd,61036d564801fb346dd0fa63,2021-07-29_22h11.02.872,Simcolourproject_2stim_asymm_v5,2020.2.10,MacIntel,60,61025ae37ef11b136ea224fe,,,,,,,,,3993,-56,76,1,0,0,response7disk,,0,-21,-2,1,0,0,rectangle,-21,-2,1,0,0,-21,-2,1,0,0,1,138,298,7,1,,,,,,,,
,,,,,,,,,,,,,FF,,,,,,,,0.833,,,,,,,,,,,,,,,,,,,,,,60fde5cdab904cdcf81f2ccd,61036d564801fb346dd0fa63,2021-07-29_22h11.02.872,Simcolourproject_2stim_asymm_v5,2020.2.10,MacIntel,60,61025ae37ef11b136ea224fe,,,,,,,,,1355,48,-46,1,0,0,response3disk,,5,23,-7,1,0,0,rectangle,23,-7,1,0,0,23,-7,1,0,0,1,139,299,142,1,,,,,,,,
,,,,,,,,,,,,,FF,,,,,,,,1.083,,,,,,,,,,,,,,,,,,,,,,60fde5cdab904cdcf81f2ccd,61036d564801fb346dd0fa63,2021-07-29_22h11.02.872,Simcolourproject_2stim_asymm_v5,2020.2.10,MacIntel,60,61025ae37ef11b136ea224fe,,,,,,,,,4149,-60,-69,1,0,0,response5disk,,3,-5,12,1,0,0,rectangle,-5,12,1,0,0,-5,12,1,0,0,1,140,300,10,1,,,,,,,,
