key_resp.keys,key_resp.rt,key_resp_14.keys,key_resp_14.rt,key_resp_15.keys,key_resp_15.rt,key_resp_17.keys,key_resp_17.rt,key_resp_9.keys,key_resp_9.rt,key_resp_10.keys,key_resp_10.rt,practice_comparison,Ecc,mouse_5.x,mouse_5.y,mouse_5.leftButton,mouse_5.midButton,mouse_5.rightButton,mouse_5.clicked_name,pracsimilarity,response_time,mouse_10.x,mouse_10.y,mouse_10.leftButton,mouse_10.midButton,mouse_10.rightButton,mouse_10.clicked_name,mouse_7.x,mouse_7.y,mouse_7.leftButton,mouse_7.midButton,mouse_7.rightButton,mouse_6.x,mouse_6.y,mouse_6.leftButton,mouse_6.midButton,mouse_6.rightButton,duringprac.thisRepN,duringprac.thisTrialN,duringprac.thisN,duringprac.thisIndex,duringprac.ran,participant,session,date,expName,psychopyVersion,OS,frameRate,study_id,mouse_7.clicked_name,catchpracsimilarity,catch_response_time,catchnumberprac,catchtrialorderprac,mouse_6.clicked_name,key_resp_22.keys,key_resp_22.rt,realcomparison,mouse.x,mouse.y,mouse.leftButton,mouse.midButton,mouse.rightButton,mouse.clicked_name,Colour2,similarity,mouse_2.x,mouse_2.y,mouse_2.leftButton,mouse_2.midButton,mouse_2.rightButton,mouse_2.clicked_name,mouse_3.x,mouse_3.y,mouse_3.leftButton,mouse_3.midButton,mouse_3.rightButton,mouse_11.x,mouse_11.y,mouse_11.leftButton,mouse_11.midButton,mouse_11.rightButton,trials_2.thisRepN,trials_2.thisTrialN,trials_2.thisN,trials_2.thisIndex,trials_2.ran,Colour1,mouse_3.clicked_name,catchornah,catchsimilarity,catchnumber,catchtrialorder,catchRT,mouse_11.clicked_name
space,1.058,space,3.335,space,10.921,space,4.092,space,0.17,space,4.116,92,PF,-55,77,1,0,0,response7disk_5,0,11.505,-5,0,1,0,0,rectangle_8,-5,0,1,0,0,-5,0,1,0,0,0,0,0,6,1,60fd0d8d6d2e25846daa2ef3,610376c2e9fde9675d8d908e,2021-07-30_00h10.16.103,Simcolourproject_2stim_asymm_v5,2020.2.10,MacIntel,60,61025ae37ef11b136ea224fe,,,,,,,,,,,,,,,,,,,,,,,,,,,,,,,,,,,,,,,,,,,,,,
,,,,,,,,,,,,137,FF,71,-40,1,0,0,response3disk_5,5,14.621,0,5,1,0,0,rectangle_8,-46,80,1,0,0,-5,0,1,0,0,0,1,1,5,1,60fd0d8d6d2e25846daa2ef3,610376c2e9fde9675d8d908e,2021-07-30_00h10.16.103,Simcolourproject_2stim_asymm_v5,2020.2.10,MacIntel,60,61025ae37ef11b136ea224fe,response7disk_7,0,4.768,0,"[2,5]",rectangle_4,,,,,,,,,,,,,,,,,,,,,,,,,,,,,,,,,,,,,,,,
,,,,,,,,,,,,81,PF,76,31,1,0,0,response1disk_5,6,3.383,3,-6,1,0,0,rectangle_8,3,-6,1,0,0,3,-6,1,0,0,0,2,2,4,1,60fd0d8d6d2e25846daa2ef3,610376c2e9fde9675d8d908e,2021-07-30_00h10.16.103,Simcolourproject_2stim_asymm_v5,2020.2.10,MacIntel,60,61025ae37ef11b136ea224fe,,,,,,,,,,,,,,,,,,,,,,,,,,,,,,,,,,,,,,,,,,,,,,
,,,,,,,,,,,,29,PF,28,74,1,0,0,response1disk_5,7,2.667,-1,-5,1,0,0,rectangle_8,-1,-5,1,0,0,-1,-5,1,0,0,0,3,3,2,1,60fd0d8d6d2e25846daa2ef3,610376c2e9fde9675d8d908e,2021-07-30_00h10.16.103,Simcolourproject_2stim_asymm_v5,2020.2.10,MacIntel,60,61025ae37ef11b136ea224fe,,,,,,,,,,,,,,,,,,,,,,,,,,,,,,,,,,,,,,,,,,,,,,
,,,,,,,,,,,,30,FF,-60,-31,1,0,0,response5disk_5,2,1.85,-3,5,1,0,0,rectangle_8,-30,68,1,0,0,-12,6,1,0,0,0,4,4,3,1,60fd0d8d6d2e25846daa2ef3,610376c2e9fde9675d8d908e,2021-07-30_00h10.16.103,Simcolourproject_2stim_asymm_v5,2020.2.10,MacIntel,60,61025ae37ef11b136ea224fe,response7disk_7,0,2.968,0,"[2,5]",rectangle_4,,,,,,,,,,,,,,,,,,,,,,,,,,,,,,,,,,,,,,,,
,,,,,,,,,,,,5,PF,79,-32,1,0,0,response3disk_5,5,5.367,13,-3,1,0,0,rectangle_8,13,-3,1,0,0,13,-3,1,0,0,0,5,5,1,1,60fd0d8d6d2e25846daa2ef3,610376c2e9fde9675d8d908e,2021-07-30_00h10.16.103,Simcolourproject_2stim_asymm_v5,2020.2.10,MacIntel,60,61025ae37ef11b136ea224fe,,,,,,,,,,,,,,,,,,,,,,,,,,,,,,,,,,,,,,,,,,,,,,
,,,,,,,,,,,,160,FF,-80,23,1,0,0,response7disk_5,1,2.822,-10,-2,1,0,0,rectangle_8,-10,-2,1,0,0,-10,-2,1,0,0,0,6,6,0,1,60fd0d8d6d2e25846daa2ef3,610376c2e9fde9675d8d908e,2021-07-30_00h10.16.103,Simcolourproject_2stim_asymm_v5,2020.2.10,MacIntel,60,61025ae37ef11b136ea224fe,,,,,,,,,,,,,,,,,,,,,,,,,,,,,,,,,,,,,,,,,,,,,,
,,,,,,,,,,,,,FF,,,,,,,,3.224,,,,,,,,,,,,,,,,,,,,,,60fd0d8d6d2e25846daa2ef3,610376c2e9fde9675d8d908e,2021-07-30_00h10.16.103,Simcolourproject_2stim_asymm_v5,2020.2.10,MacIntel,60,61025ae37ef11b136ea224fe,,,,,,,space,5.815,4126,-90,-29,1,0,0,response5disk,,2,-1,-7,1,0,0,rectangle,-1,-7,1,0,0,-1,-7,1,0,0,0,0,0,34,1,,,,,,,,
,,,,,,,,,,,,,FF,,,,,,,,1.783,,,,,,,,,,,,,,,,,,,,,,60fd0d8d6d2e25846daa2ef3,610376c2e9fde9675d8d908e,2021-07-30_00h10.16.103,Simcolourproject_2stim_asymm_v5,2020.2.10,MacIntel,60,61025ae37ef11b136ea224fe,,,,,,,,,1132,-65,24,1,0,0,response7disk,,1,-4,9,1,0,0,rectangle,-4,9,1,0,0,-4,9,1,0,0,0,1,1,97,1,,,,,,,,
,,,,,,,,,,,,,FF,,,,,,,,1.306,,,,,,,,,,,,,,,,,,,,,,60fd0d8d6d2e25846daa2ef3,610376c2e9fde9675d8d908e,2021-07-30_00h10.16.103,Simcolourproject_2stim_asymm_v5,2020.2.10,MacIntel,60,61025ae37ef11b136ea224fe,,,,,,,,,2317,-24,-65,1,0,0,response5disk,,3,-19,-7,1,0,0,rectangle,-19,-7,1,0,0,-19,-7,1,0,0,0,2,2,85,1,,,,,,,,
,,,,,,,,,,,,,FF,,,,,,,,1.306,,,,,,,,,,,,,,,,,,,,,,60fd0d8d6d2e25846daa2ef3,610376c2e9fde9675d8d908e,2021-07-30_00h10.16.103,Simcolourproject_2stim_asymm_v5,2020.2.10,MacIntel,60,61025ae37ef11b136ea224fe,,,,,,,,,4241,-70,-25,1,0,0,response5disk,,2,-3,-4,1,0,0,rectangle,-3,-4,1,0,0,-3,-4,1,0,0,0,3,3,142,1,,,,,,,,
,,,,,,,,,,,,,FF,,,,,,,,1.203,,,,,,,,,,,,,,,,,,,,,,60fd0d8d6d2e25846daa2ef3,610376c2e9fde9675d8d908e,2021-07-30_00h10.16.103,Simcolourproject_2stim_asymm_v5,2020.2.10,MacIntel,60,61025ae37ef11b136ea224fe,,,,,,,,,1437,52,-39,1,0,0,response3disk,,5,-12,1,1,0,0,rectangle,-12,1,1,0,0,-12,1,1,0,0,0,4,4,52,1,,,,,,,,
,,,,,,,,,,,,,FF,,,,,,,,0.934,,,,,,,,,,,,,,,,,,,,,,60fd0d8d6d2e25846daa2ef3,610376c2e9fde9675d8d908e,2021-07-30_00h10.16.103,Simcolourproject_2stim_asymm_v5,2020.2.10,MacIntel,60,61025ae37ef11b136ea224fe,,,,,,,,,2540,28,53,1,0,0,response1disk,,7,13,1,1,0,0,rectangle,13,1,1,0,0,13,1,1,0,0,0,5,5,159,1,,,,,,,,
,,,,,,,,,,,,,FF,,,,,,,,1.578,,,,,,,,,,,,,,,,,,,,,,60fd0d8d6d2e25846daa2ef3,610376c2e9fde9675d8d908e,2021-07-30_00h10.16.103,Simcolourproject_2stim_asymm_v5,2020.2.10,MacIntel,60,61025ae37ef11b136ea224fe,,,,,,,,,1100,53,41,1,0,0,response1disk,,6,7,1,1,0,0,rectangle,7,1,1,0,0,7,1,1,0,0,0,6,6,102,1,,,,,,,,
,,,,,,,,,,,,,FF,,,,,,,,1.414,,,,,,,,,,,,,,,,,,,,,,60fd0d8d6d2e25846daa2ef3,610376c2e9fde9675d8d908e,2021-07-30_00h10.16.103,Simcolourproject_2stim_asymm_v5,2020.2.10,MacIntel,60,61025ae37ef11b136ea224fe,,,,,,,,,3635,-51,-59,1,0,0,response5disk,,3,10,10,1,0,0,rectangle,10,10,1,0,0,10,10,1,0,0,0,7,7,155,1,,,,,,,,
,,,,,,,,,,,,,FF,,,,,,,,2.751,,,,,,,,,,,,,,,,,,,,,,60fd0d8d6d2e25846daa2ef3,610376c2e9fde9675d8d908e,2021-07-30_00h10.16.103,Simcolourproject_2stim_asymm_v5,2020.2.10,MacIntel,60,61025ae37ef11b136ea224fe,,,,,,,,,2914,46,38,1,0,0,response1disk,,6,23,10,1,0,0,rectangle,23,10,1,0,0,23,10,1,0,0,0,8,8,104,1,,,,,,,,
,,,,,,,,,,,,,FF,,,,,,,,1.185,,,,,,,,,,,,,,,,,,,,,,60fd0d8d6d2e25846daa2ef3,610376c2e9fde9675d8d908e,2021-07-30_00h10.16.103,Simcolourproject_2stim_asymm_v5,2020.2.10,MacIntel,60,61025ae37ef11b136ea224fe,,,,,,,,,4248,22,-45,1,0,0,response3disk,,4,0,-10,1,0,0,rectangle,0,-10,1,0,0,0,-10,1,0,0,0,9,9,67,1,,,,,,,,
,,,,,,,,,,,,,FF,,,,,,,,1.513,,,,,,,,,,,,,,,,,,,,,,60fd0d8d6d2e25846daa2ef3,610376c2e9fde9675d8d908e,2021-07-30_00h10.16.103,Simcolourproject_2stim_asymm_v5,2020.2.10,MacIntel,60,61025ae37ef11b136ea224fe,,,,,,,,,4278,38,-60,1,0,0,response3disk,,4,6,1,1,0,0,rectangle,6,1,1,0,0,6,1,1,0,0,0,10,10,47,1,,,,,,,,
,,,,,,,,,,,,,FF,,,,,,,,1.469,,,,,,,,,,,,,,,,,,,,,,60fd0d8d6d2e25846daa2ef3,610376c2e9fde9675d8d908e,2021-07-30_00h10.16.103,Simcolourproject_2stim_asymm_v5,2020.2.10,MacIntel,60,61025ae37ef11b136ea224fe,,,,,,,,,719,-70,49,1,0,0,response7disk,,1,-25,9,1,0,0,rectangle,-25,9,1,0,0,-25,9,1,0,0,0,11,11,55,1,,,,,,,,
,,,,,,,,,,,,,FF,,,,,,,,1.402,,,,,,,,,,,,,,,,,,,,,,60fd0d8d6d2e25846daa2ef3,610376c2e9fde9675d8d908e,2021-07-30_00h10.16.103,Simcolourproject_2stim_asymm_v5,2020.2.10,MacIntel,60,61025ae37ef11b136ea224fe,,,,,,,,,1871,66,-44,1,0,0,response3disk,,5,14,-9,1,0,0,rectangle,14,-9,1,0,0,14,-9,1,0,0,0,12,12,79,1,,,,,,,,
,,,,,,,,,,,,,FF,,,,,,,,1.737,,,,,,,,,,,,,,,,,,,,,,60fd0d8d6d2e25846daa2ef3,610376c2e9fde9675d8d908e,2021-07-30_00h10.16.103,Simcolourproject_2stim_asymm_v5,2020.2.10,MacIntel,60,61025ae37ef11b136ea224fe,,,,,,,,,2683,49,-26,1,0,0,response3disk,,5,14,-11,1,0,0,rectangle,-35,-62,1,0,0,-10,-8,1,0,0,0,13,13,130,1,,response5disk_3,TRUE,3,3,"[73,254,35,269,14,243,148,145,179,132,137,321,38,17,55,168,99,45,62,245]",3.04,rectangle
,,,,,,,,,,,,,FF,,,,,,,,1.855,,,,,,,,,,,,,,,,,,,,,,60fd0d8d6d2e25846daa2ef3,610376c2e9fde9675d8d908e,2021-07-30_00h10.16.103,Simcolourproject_2stim_asymm_v5,2020.2.10,MacIntel,60,61025ae37ef11b136ea224fe,,,,,,,,,2270,63,32,1,0,0,response1disk,,6,8,8,1,0,0,rectangle,8,8,1,0,0,8,8,1,0,0,0,14,14,154,1,,,,,,,,
,,,,,,,,,,,,,FF,,,,,,,,1.468,,,,,,,,,,,,,,,,,,,,,,60fd0d8d6d2e25846daa2ef3,610376c2e9fde9675d8d908e,2021-07-30_00h10.16.103,Simcolourproject_2stim_asymm_v5,2020.2.10,MacIntel,60,61025ae37ef11b136ea224fe,,,,,,,,,2495,-26,-47,1,0,0,response5disk,,3,-6,-9,1,0,0,rectangle,-6,-9,1,0,0,-6,-9,1,0,0,0,15,15,25,1,,,,,,,,
,,,,,,,,,,,,,FF,,,,,,,,2.2,,,,,,,,,,,,,,,,,,,,,,60fd0d8d6d2e25846daa2ef3,610376c2e9fde9675d8d908e,2021-07-30_00h10.16.103,Simcolourproject_2stim_asymm_v5,2020.2.10,MacIntel,60,61025ae37ef11b136ea224fe,,,,,,,,,3578,64,36,1,0,0,response1disk,,6,13,-4,1,0,0,rectangle,-67,43,1,0,0,-10,11,1,0,0,0,16,16,42,1,,response7disk_3,TRUE,1,1,"[73,254,35,269,14,243,148,145,179,132,137,321,38,17,55,168,99,45,62,245]",1.601,rectangle
,,,,,,,,,,,,,FF,,,,,,,,1.918,,,,,,,,,,,,,,,,,,,,,,60fd0d8d6d2e25846daa2ef3,610376c2e9fde9675d8d908e,2021-07-30_00h10.16.103,Simcolourproject_2stim_asymm_v5,2020.2.10,MacIntel,60,61025ae37ef11b136ea224fe,,,,,,,,,3050,-74,-54,1,0,0,response5disk,,2,-18,-11,1,0,0,rectangle,-18,-11,1,0,0,-18,-11,1,0,0,0,17,17,69,1,,,,,,,,
,,,,,,,,,,,,,FF,,,,,,,,1.418,,,,,,,,,,,,,,,,,,,,,,60fd0d8d6d2e25846daa2ef3,610376c2e9fde9675d8d908e,2021-07-30_00h10.16.103,Simcolourproject_2stim_asymm_v5,2020.2.10,MacIntel,60,61025ae37ef11b136ea224fe,,,,,,,,,2920,72,-30,1,0,0,response3disk,,5,-10,2,1,0,0,rectangle,-10,2,1,0,0,-10,2,1,0,0,0,18,18,60,1,,,,,,,,
,,,,,,,,,,,,,FF,,,,,,,,1.918,,,,,,,,,,,,,,,,,,,,,,60fd0d8d6d2e25846daa2ef3,610376c2e9fde9675d8d908e,2021-07-30_00h10.16.103,Simcolourproject_2stim_asymm_v5,2020.2.10,MacIntel,60,61025ae37ef11b136ea224fe,,,,,,,,,2185,30,-54,1,0,0,response3disk,,4,20,-5,1,0,0,rectangle,20,-5,1,0,0,20,-5,1,0,0,0,19,19,134,1,,,,,,,,
,,,,,,,,,,,,,FF,,,,,,,,1.218,,,,,,,,,,,,,,,,,,,,,,60fd0d8d6d2e25846daa2ef3,610376c2e9fde9675d8d908e,2021-07-30_00h10.16.103,Simcolourproject_2stim_asymm_v5,2020.2.10,MacIntel,60,61025ae37ef11b136ea224fe,,,,,,,,,3399,-38,-66,1,0,0,response5disk,,3,-25,-3,1,0,0,rectangle,-25,-3,1,0,0,-25,-3,1,0,0,0,20,20,7,1,,,,,,,,
,,,,,,,,,,,,,FF,,,,,,,,1.736,,,,,,,,,,,,,,,,,,,,,,60fd0d8d6d2e25846daa2ef3,610376c2e9fde9675d8d908e,2021-07-30_00h10.16.103,Simcolourproject_2stim_asymm_v5,2020.2.10,MacIntel,60,61025ae37ef11b136ea224fe,,,,,,,,,3721,30,-44,1,0,0,response3disk,,4,-1,4,1,0,0,rectangle,-1,4,1,0,0,-1,4,1,0,0,0,21,21,105,1,,,,,,,,
,,,,,,,,,,,,,FF,,,,,,,,3.151,,,,,,,,,,,,,,,,,,,,,,60fd0d8d6d2e25846daa2ef3,610376c2e9fde9675d8d908e,2021-07-30_00h10.16.103,Simcolourproject_2stim_asymm_v5,2020.2.10,MacIntel,60,61025ae37ef11b136ea224fe,,,,,,,,,122,19,-47,1,0,0,response3disk,,4,0,2,1,0,0,rectangle,0,2,1,0,0,0,2,1,0,0,0,22,22,75,1,,,,,,,,
,,,,,,,,,,,,,FF,,,,,,,,1.019,,,,,,,,,,,,,,,,,,,,,,60fd0d8d6d2e25846daa2ef3,610376c2e9fde9675d8d908e,2021-07-30_00h10.16.103,Simcolourproject_2stim_asymm_v5,2020.2.10,MacIntel,60,61025ae37ef11b136ea224fe,,,,,,,,,3854,-53,-34,1,0,0,response5disk,,2,7,2,1,0,0,rectangle,7,2,1,0,0,7,2,1,0,0,0,23,23,18,1,,,,,,,,
,,,,,,,,,,,,,FF,,,,,,,,1.619,,,,,,,,,,,,,,,,,,,,,,60fd0d8d6d2e25846daa2ef3,610376c2e9fde9675d8d908e,2021-07-30_00h10.16.103,Simcolourproject_2stim_asymm_v5,2020.2.10,MacIntel,60,61025ae37ef11b136ea224fe,,,,,,,,,2183,30,-71,1,0,0,response3disk,,4,7,-6,1,0,0,rectangle,7,-6,1,0,0,7,-6,1,0,0,0,24,24,81,1,,,,,,,,
,,,,,,,,,,,,,FF,,,,,,,,1.186,,,,,,,,,,,,,,,,,,,,,,60fd0d8d6d2e25846daa2ef3,610376c2e9fde9675d8d908e,2021-07-30_00h10.16.103,Simcolourproject_2stim_asymm_v5,2020.2.10,MacIntel,60,61025ae37ef11b136ea224fe,,,,,,,,,3847,-31,-45,1,0,0,response5disk,,3,-13,-14,1,0,0,rectangle,-13,-14,1,0,0,-13,-14,1,0,0,0,25,25,58,1,,,,,,,,
,,,,,,,,,,,,,FF,,,,,,,,1.899,,,,,,,,,,,,,,,,,,,,,,60fd0d8d6d2e25846daa2ef3,610376c2e9fde9675d8d908e,2021-07-30_00h10.16.103,Simcolourproject_2stim_asymm_v5,2020.2.10,MacIntel,60,61025ae37ef11b136ea224fe,,,,,,,,,3470,-30,74,1,0,0,response7disk,,0,-1,6,1,0,0,rectangle,-1,6,1,0,0,-1,6,1,0,0,0,26,26,151,1,,,,,,,,
,,,,,,,,,,,,,FF,,,,,,,,1.001,,,,,,,,,,,,,,,,,,,,,,60fd0d8d6d2e25846daa2ef3,610376c2e9fde9675d8d908e,2021-07-30_00h10.16.103,Simcolourproject_2stim_asymm_v5,2020.2.10,MacIntel,60,61025ae37ef11b136ea224fe,,,,,,,,,1245,29,-47,1,0,0,response3disk,,4,29,17,1,0,0,rectangle,29,17,1,0,0,29,17,1,0,0,0,27,27,45,1,,,,,,,,
,,,,,,,,,,,,,FF,,,,,,,,0.883,,,,,,,,,,,,,,,,,,,,,,60fd0d8d6d2e25846daa2ef3,610376c2e9fde9675d8d908e,2021-07-30_00h10.16.103,Simcolourproject_2stim_asymm_v5,2020.2.10,MacIntel,60,61025ae37ef11b136ea224fe,,,,,,,,,2147,41,59,1,0,0,response1disk,,7,23,-7,1,0,0,rectangle,23,-7,1,0,0,23,-7,1,0,0,0,28,28,13,1,,,,,,,,
,,,,,,,,,,,,,FF,,,,,,,,1.988,,,,,,,,,,,,,,,,,,,,,,60fd0d8d6d2e25846daa2ef3,610376c2e9fde9675d8d908e,2021-07-30_00h10.16.103,Simcolourproject_2stim_asymm_v5,2020.2.10,MacIntel,60,61025ae37ef11b136ea224fe,,,,,,,,,1784,30,-40,1,0,0,response3disk,,4,20,-9,1,0,0,rectangle,20,-9,1,0,0,20,-9,1,0,0,0,29,29,141,1,,,,,,,,
,,,,,,,,,,,,,FF,,,,,,,,1.034,,,,,,,,,,,,,,,,,,,,,,60fd0d8d6d2e25846daa2ef3,610376c2e9fde9675d8d908e,2021-07-30_00h10.16.103,Simcolourproject_2stim_asymm_v5,2020.2.10,MacIntel,60,61025ae37ef11b136ea224fe,,,,,,,,,2104,-64,-33,1,0,0,response5disk,,2,-11,2,1,0,0,rectangle,-11,2,1,0,0,-11,2,1,0,0,0,30,30,10,1,,,,,,,,
,,,,,,,,,,,,,FF,,,,,,,,1.167,,,,,,,,,,,,,,,,,,,,,,60fd0d8d6d2e25846daa2ef3,610376c2e9fde9675d8d908e,2021-07-30_00h10.16.103,Simcolourproject_2stim_asymm_v5,2020.2.10,MacIntel,60,61025ae37ef11b136ea224fe,,,,,,,,,4364,-62,33,1,0,0,response7disk,,1,-10,0,1,0,0,rectangle,-10,0,1,0,0,-10,0,1,0,0,0,31,31,77,1,,,,,,,,
,,,,,,,,,,,,,FF,,,,,,,,1.001,,,,,,,,,,,,,,,,,,,,,,60fd0d8d6d2e25846daa2ef3,610376c2e9fde9675d8d908e,2021-07-30_00h10.16.103,Simcolourproject_2stim_asymm_v5,2020.2.10,MacIntel,60,61025ae37ef11b136ea224fe,,,,,,,,,206,-26,-78,1,0,0,response5disk,,3,21,4,1,0,0,rectangle,21,4,1,0,0,21,4,1,0,0,0,32,32,63,1,,,,,,,,
,,,,,,,,,,,,,FF,,,,,,,,1.15,,,,,,,,,,,,,,,,,,,,,,60fd0d8d6d2e25846daa2ef3,610376c2e9fde9675d8d908e,2021-07-30_00h10.16.103,Simcolourproject_2stim_asymm_v5,2020.2.10,MacIntel,60,61025ae37ef11b136ea224fe,,,,,,,,,1672,-37,-65,1,0,0,response5disk,,3,-19,9,1,0,0,rectangle,-19,9,1,0,0,-19,9,1,0,0,0,33,33,61,1,,,,,,,,
,,,,,,,,,,,,,FF,,,,,,,,0.969,,,,,,,,,,,,,,,,,,,,,,60fd0d8d6d2e25846daa2ef3,610376c2e9fde9675d8d908e,2021-07-30_00h10.16.103,Simcolourproject_2stim_asymm_v5,2020.2.10,MacIntel,60,61025ae37ef11b136ea224fe,,,,,,,,,1293,-71,30,1,0,0,response7disk,,1,-15,-1,1,0,0,rectangle,83,-30,1,0,0,5,-3,1,0,0,0,34,34,144,1,,response3disk_3,TRUE,5,5,"[73,254,35,269,14,243,148,145,179,132,137,321,38,17,55,168,99,45,62,245]",2.168,rectangle
,,,,,,,,,,,,,FF,,,,,,,,1.887,,,,,,,,,,,,,,,,,,,,,,60fd0d8d6d2e25846daa2ef3,610376c2e9fde9675d8d908e,2021-07-30_00h10.16.103,Simcolourproject_2stim_asymm_v5,2020.2.10,MacIntel,60,61025ae37ef11b136ea224fe,,,,,,,,,2877,-28,-77,1,0,0,response5disk,,3,-7,-9,1,0,0,rectangle,-7,-9,1,0,0,-7,-9,1,0,0,0,35,35,74,1,,,,,,,,
,,,,,,,,,,,,,FF,,,,,,,,1.073,,,,,,,,,,,,,,,,,,,,,,60fd0d8d6d2e25846daa2ef3,610376c2e9fde9675d8d908e,2021-07-30_00h10.16.103,Simcolourproject_2stim_asymm_v5,2020.2.10,MacIntel,60,61025ae37ef11b136ea224fe,,,,,,,,,979,-65,-37,1,0,0,response5disk,,2,-1,4,1,0,0,rectangle,-1,4,1,0,0,-1,4,1,0,0,0,36,36,72,1,,,,,,,,
,,,,,,,,,,,,,FF,,,,,,,,0.934,,,,,,,,,,,,,,,,,,,,,,60fd0d8d6d2e25846daa2ef3,610376c2e9fde9675d8d908e,2021-07-30_00h10.16.103,Simcolourproject_2stim_asymm_v5,2020.2.10,MacIntel,60,61025ae37ef11b136ea224fe,,,,,,,,,3937,-38,60,1,0,0,response7disk,,0,-10,-3,1,0,0,rectangle,-64,40,1,0,0,-7,4,1,0,0,0,37,37,35,1,,response7disk_3,TRUE,1,1,"[73,254,35,269,14,243,148,145,179,132,137,321,38,17,55,168,99,45,62,245]",1.451,rectangle
,,,,,,,,,,,,,FF,,,,,,,,1.371,,,,,,,,,,,,,,,,,,,,,,60fd0d8d6d2e25846daa2ef3,610376c2e9fde9675d8d908e,2021-07-30_00h10.16.103,Simcolourproject_2stim_asymm_v5,2020.2.10,MacIntel,60,61025ae37ef11b136ea224fe,,,,,,,,,232,21,-72,1,0,0,response3disk,,4,-1,-6,1,0,0,rectangle,-1,-6,1,0,0,-1,-6,1,0,0,0,38,38,125,1,,,,,,,,
,,,,,,,,,,,,,FF,,,,,,,,1.119,,,,,,,,,,,,,,,,,,,,,,60fd0d8d6d2e25846daa2ef3,610376c2e9fde9675d8d908e,2021-07-30_00h10.16.103,Simcolourproject_2stim_asymm_v5,2020.2.10,MacIntel,60,61025ae37ef11b136ea224fe,,,,,,,,,3507,-84,-34,1,0,0,response5disk,,2,0,-3,1,0,0,rectangle,0,-3,1,0,0,0,-3,1,0,0,0,39,39,65,1,,,,,,,,
,,,,,,,,,,,,,FF,,,,,,,,1.074,,,,,,,,,,,,,,,,,,,,,,60fd0d8d6d2e25846daa2ef3,610376c2e9fde9675d8d908e,2021-07-30_00h10.16.103,Simcolourproject_2stim_asymm_v5,2020.2.10,MacIntel,60,61025ae37ef11b136ea224fe,,,,,,,,,2549,-30,-65,1,0,0,response5disk,,3,-3,-8,1,0,0,rectangle,-3,-8,1,0,0,-3,-8,1,0,0,0,40,40,41,1,,,,,,,,
,,,,,,,,,,,,,FF,,,,,,,,3.269,,,,,,,,,,,,,,,,,,,,,,60fd0d8d6d2e25846daa2ef3,610376c2e9fde9675d8d908e,2021-07-30_00h10.16.103,Simcolourproject_2stim_asymm_v5,2020.2.10,MacIntel,60,61025ae37ef11b136ea224fe,,,,,,,,,4088,41,-76,1,0,0,response3disk,,4,1,1,1,0,0,rectangle,1,1,1,0,0,1,1,1,0,0,0,41,41,123,1,,,,,,,,
,,,,,,,,,,,,,FF,,,,,,,,0.944,,,,,,,,,,,,,,,,,,,,,,60fd0d8d6d2e25846daa2ef3,610376c2e9fde9675d8d908e,2021-07-30_00h10.16.103,Simcolourproject_2stim_asymm_v5,2020.2.10,MacIntel,60,61025ae37ef11b136ea224fe,,,,,,,,,639,-63,37,1,0,0,response7disk,,1,-4,-3,1,0,0,rectangle,-4,-3,1,0,0,-4,-3,1,0,0,0,42,42,143,1,,,,,,,,
,,,,,,,,,,,,,FF,,,,,,,,3.022,,,,,,,,,,,,,,,,,,,,,,60fd0d8d6d2e25846daa2ef3,610376c2e9fde9675d8d908e,2021-07-30_00h10.16.103,Simcolourproject_2stim_asymm_v5,2020.2.10,MacIntel,60,61025ae37ef11b136ea224fe,,,,,,,,,558,-62,-25,1,0,0,response5disk,,2,-24,-8,1,0,0,rectangle,-24,-8,1,0,0,-24,-8,1,0,0,0,43,43,64,1,,,,,,,,
,,,,,,,,,,,,,FF,,,,,,,,1.503,,,,,,,,,,,,,,,,,,,,,,60fd0d8d6d2e25846daa2ef3,610376c2e9fde9675d8d908e,2021-07-30_00h10.16.103,Simcolourproject_2stim_asymm_v5,2020.2.10,MacIntel,60,61025ae37ef11b136ea224fe,,,,,,,,,2203,74,-40,1,0,0,response3disk,,5,16,13,1,0,0,rectangle,-82,-30,1,0,0,-18,-1,1,0,0,0,44,44,39,1,,response5disk_3,TRUE,2,2,"[73,254,35,269,14,243,148,145,179,132,137,321,38,17,55,168,99,45,62,245]",1.566,rectangle
,,,,,,,,,,,,,FF,,,,,,,,0.845,,,,,,,,,,,,,,,,,,,,,,60fd0d8d6d2e25846daa2ef3,610376c2e9fde9675d8d908e,2021-07-30_00h10.16.103,Simcolourproject_2stim_asymm_v5,2020.2.10,MacIntel,60,61025ae37ef11b136ea224fe,,,,,,,,,3933,-56,-41,1,0,0,response5disk,,2,7,2,1,0,0,rectangle,7,2,1,0,0,7,2,1,0,0,0,45,45,107,1,,,,,,,,
,,,,,,,,,,,,,FF,,,,,,,,2.002,,,,,,,,,,,,,,,,,,,,,,60fd0d8d6d2e25846daa2ef3,610376c2e9fde9675d8d908e,2021-07-30_00h10.16.103,Simcolourproject_2stim_asymm_v5,2020.2.10,MacIntel,60,61025ae37ef11b136ea224fe,,,,,,,,,1758,-66,-31,1,0,0,response5disk,,2,-21,1,1,0,0,rectangle,-21,1,1,0,0,-21,1,1,0,0,0,46,46,129,1,,,,,,,,
,,,,,,,,,,,,,FF,,,,,,,,0.853,,,,,,,,,,,,,,,,,,,,,,60fd0d8d6d2e25846daa2ef3,610376c2e9fde9675d8d908e,2021-07-30_00h10.16.103,Simcolourproject_2stim_asymm_v5,2020.2.10,MacIntel,60,61025ae37ef11b136ea224fe,,,,,,,,,3081,43,-75,1,0,0,response3disk,,4,9,-2,1,0,0,rectangle,9,-2,1,0,0,9,-2,1,0,0,0,47,47,116,1,,,,,,,,
,,,,,,,,,,,,,FF,,,,,,,,1.334,,,,,,,,,,,,,,,,,,,,,,60fd0d8d6d2e25846daa2ef3,610376c2e9fde9675d8d908e,2021-07-30_00h10.16.103,Simcolourproject_2stim_asymm_v5,2020.2.10,MacIntel,60,61025ae37ef11b136ea224fe,,,,,,,,,2366,44,-59,1,0,0,response3disk,,4,5,-12,1,0,0,rectangle,5,-12,1,0,0,5,-12,1,0,0,0,48,48,1,1,,,,,,,,
,,,,,,,,,,,,,FF,,,,,,,,1.428,,,,,,,,,,,,,,,,,,,,,,60fd0d8d6d2e25846daa2ef3,610376c2e9fde9675d8d908e,2021-07-30_00h10.16.103,Simcolourproject_2stim_asymm_v5,2020.2.10,MacIntel,60,61025ae37ef11b136ea224fe,,,,,,,,,1688,-46,-66,1,0,0,response5disk,,3,-10,-3,1,0,0,rectangle,-10,-3,1,0,0,-10,-3,1,0,0,0,49,49,32,1,,,,,,,,
,,,,,,,,,,,,,FF,,,,,,,,0.752,,,,,,,,,,,,,,,,,,,,,,60fd0d8d6d2e25846daa2ef3,610376c2e9fde9675d8d908e,2021-07-30_00h10.16.103,Simcolourproject_2stim_asymm_v5,2020.2.10,MacIntel,60,61025ae37ef11b136ea224fe,,,,,,,,,1897,-73,-39,1,0,0,response5disk,,2,-20,-6,1,0,0,rectangle,-20,-6,1,0,0,-20,-6,1,0,0,0,50,50,101,1,,,,,,,,
,,,,,,,,,,,,,FF,,,,,,,,1.284,,,,,,,,,,,,,,,,,,,,,,60fd0d8d6d2e25846daa2ef3,610376c2e9fde9675d8d908e,2021-07-30_00h10.16.103,Simcolourproject_2stim_asymm_v5,2020.2.10,MacIntel,60,61025ae37ef11b136ea224fe,,,,,,,,,1788,75,25,1,0,0,response1disk,,6,-6,-18,1,0,0,rectangle,-6,-18,1,0,0,-6,-18,1,0,0,0,51,51,121,1,,,,,,,,
,,,,,,,,,,,,,FF,,,,,,,,1.494,,,,,,,,,,,,,,,,,,,,,,60fd0d8d6d2e25846daa2ef3,610376c2e9fde9675d8d908e,2021-07-30_00h10.16.103,Simcolourproject_2stim_asymm_v5,2020.2.10,MacIntel,60,61025ae37ef11b136ea224fe,,,,,,,,,3350,-63,-41,1,0,0,response5disk,,2,-17,0,1,0,0,rectangle,-17,0,1,0,0,-17,0,1,0,0,0,52,52,147,1,,,,,,,,
,,,,,,,,,,,,,FF,,,,,,,,1.753,,,,,,,,,,,,,,,,,,,,,,60fd0d8d6d2e25846daa2ef3,610376c2e9fde9675d8d908e,2021-07-30_00h10.16.103,Simcolourproject_2stim_asymm_v5,2020.2.10,MacIntel,60,61025ae37ef11b136ea224fe,,,,,,,,,2435,-57,-27,1,0,0,response5disk,,2,-14,12,1,0,0,rectangle,-14,12,1,0,0,-14,12,1,0,0,0,53,53,109,1,,,,,,,,
,,,,,,,,,,,,,FF,,,,,,,,1.142,,,,,,,,,,,,,,,,,,,,,,60fd0d8d6d2e25846daa2ef3,610376c2e9fde9675d8d908e,2021-07-30_00h10.16.103,Simcolourproject_2stim_asymm_v5,2020.2.10,MacIntel,60,61025ae37ef11b136ea224fe,,,,,,,,,788,-44,-19,1,0,0,response5disk,,2,4,5,1,0,0,rectangle,21,-70,1,0,0,-2,4,1,0,0,0,54,54,148,1,,response3disk_3,TRUE,4,4,"[73,254,35,269,14,243,148,145,179,132,137,321,38,17,55,168,99,45,62,245]",2.009,rectangle
,,,,,,,,,,,,,FF,,,,,,,,1.803,,,,,,,,,,,,,,,,,,,,,,60fd0d8d6d2e25846daa2ef3,610376c2e9fde9675d8d908e,2021-07-30_00h10.16.103,Simcolourproject_2stim_asymm_v5,2020.2.10,MacIntel,60,61025ae37ef11b136ea224fe,,,,,,,,,491,47,-26,1,0,0,response3disk,,5,8,0,1,0,0,rectangle,8,0,1,0,0,8,0,1,0,0,0,55,55,124,1,,,,,,,,
,,,,,,,,,,,,,FF,,,,,,,,2.719,,,,,,,,,,,,,,,,,,,,,,60fd0d8d6d2e25846daa2ef3,610376c2e9fde9675d8d908e,2021-07-30_00h10.16.103,Simcolourproject_2stim_asymm_v5,2020.2.10,MacIntel,60,61025ae37ef11b136ea224fe,,,,,,,,,2631,53,-36,1,0,0,response3disk,,5,2,-5,1,0,0,rectangle,2,-5,1,0,0,2,-5,1,0,0,0,56,56,30,1,,,,,,,,
,,,,,,,,,,,,,FF,,,,,,,,1.902,,,,,,,,,,,,,,,,,,,,,,60fd0d8d6d2e25846daa2ef3,610376c2e9fde9675d8d908e,2021-07-30_00h10.16.103,Simcolourproject_2stim_asymm_v5,2020.2.10,MacIntel,60,61025ae37ef11b136ea224fe,,,,,,,,,1355,47,-90,1,0,0,response3disk,,4,-4,-6,1,0,0,rectangle,-4,-6,1,0,0,-4,-6,1,0,0,0,57,57,12,1,,,,,,,,
,,,,,,,,,,,,,FF,,,,,,,,1.006,,,,,,,,,,,,,,,,,,,,,,60fd0d8d6d2e25846daa2ef3,610376c2e9fde9675d8d908e,2021-07-30_00h10.16.103,Simcolourproject_2stim_asymm_v5,2020.2.10,MacIntel,60,61025ae37ef11b136ea224fe,,,,,,,,,2227,-55,26,1,0,0,response7disk,,1,-5,14,1,0,0,rectangle,-5,14,1,0,0,-5,14,1,0,0,0,58,58,139,1,,,,,,,,
,,,,,,,,,,,,,FF,,,,,,,,6.218,,,,,,,,,,,,,,,,,,,,,,60fd0d8d6d2e25846daa2ef3,610376c2e9fde9675d8d908e,2021-07-30_00h10.16.103,Simcolourproject_2stim_asymm_v5,2020.2.10,MacIntel,60,61025ae37ef11b136ea224fe,,,,,,,,,611,-26,-79,1,0,0,response5disk,,3,1,-12,1,0,0,rectangle,1,-12,1,0,0,1,-12,1,0,0,0,59,59,89,1,,,,,,,,
,,,,,,,,,,,,,FF,,,,,,,,1.3,,,,,,,,,,,,,,,,,,,,,,60fd0d8d6d2e25846daa2ef3,610376c2e9fde9675d8d908e,2021-07-30_00h10.16.103,Simcolourproject_2stim_asymm_v5,2020.2.10,MacIntel,60,61025ae37ef11b136ea224fe,,,,,,,,,3128,54,31,1,0,0,response1disk,,6,5,16,1,0,0,rectangle,5,16,1,0,0,5,16,1,0,0,0,60,60,122,1,,,,,,,,
,,,,,,,,,,,,,FF,,,,,,,,3.39,,,,,,,,,,,,,,,,,,,,,,60fd0d8d6d2e25846daa2ef3,610376c2e9fde9675d8d908e,2021-07-30_00h10.16.103,Simcolourproject_2stim_asymm_v5,2020.2.10,MacIntel,60,61025ae37ef11b136ea224fe,,,,,,,,,179,59,-28,1,0,0,response3disk,,5,16,-4,1,0,0,rectangle,-68,-42,1,0,0,-5,1,1,0,0,0,61,61,51,1,,response5disk_3,TRUE,2,2,"[73,254,35,269,14,243,148,145,179,132,137,321,38,17,55,168,99,45,62,245]",1.587,rectangle
,,,,,,,,,,,,,FF,,,,,,,,1.034,,,,,,,,,,,,,,,,,,,,,,60fd0d8d6d2e25846daa2ef3,610376c2e9fde9675d8d908e,2021-07-30_00h10.16.103,Simcolourproject_2stim_asymm_v5,2020.2.10,MacIntel,60,61025ae37ef11b136ea224fe,,,,,,,,,312,60,-40,1,0,0,response3disk,,5,-3,-10,1,0,0,rectangle,-3,-10,1,0,0,-3,-10,1,0,0,0,62,62,3,1,,,,,,,,
,,,,,,,,,,,,,FF,,,,,,,,19.401,,,,,,,,,,,,,,,,,,,,,,60fd0d8d6d2e25846daa2ef3,610376c2e9fde9675d8d908e,2021-07-30_00h10.16.103,Simcolourproject_2stim_asymm_v5,2020.2.10,MacIntel,60,61025ae37ef11b136ea224fe,,,,,,,,,660,33,-48,1,0,0,response3disk,,4,6,3,1,0,0,rectangle,6,3,1,0,0,6,3,1,0,0,0,63,63,36,1,,,,,,,,
,,,,,,,,,,,,,FF,,,,,,,,1.283,,,,,,,,,,,,,,,,,,,,,,60fd0d8d6d2e25846daa2ef3,610376c2e9fde9675d8d908e,2021-07-30_00h10.16.103,Simcolourproject_2stim_asymm_v5,2020.2.10,MacIntel,60,61025ae37ef11b136ea224fe,,,,,,,,,761,50,-30,1,0,0,response3disk,,5,-18,-3,1,0,0,rectangle,-18,-3,1,0,0,-18,-3,1,0,0,0,64,64,9,1,,,,,,,,
,,,,,,,,,,,,,FF,,,,,,,,0.835,,,,,,,,,,,,,,,,,,,,,,60fd0d8d6d2e25846daa2ef3,610376c2e9fde9675d8d908e,2021-07-30_00h10.16.103,Simcolourproject_2stim_asymm_v5,2020.2.10,MacIntel,60,61025ae37ef11b136ea224fe,,,,,,,,,193,-67,24,1,0,0,response7disk,,1,-10,-17,1,0,0,rectangle,-10,-17,1,0,0,-10,-17,1,0,0,0,65,65,132,1,,,,,,,,
,,,,,,,,,,,,,FF,,,,,,,,6.183,,,,,,,,,,,,,,,,,,,,,,60fd0d8d6d2e25846daa2ef3,610376c2e9fde9675d8d908e,2021-07-30_00h10.16.103,Simcolourproject_2stim_asymm_v5,2020.2.10,MacIntel,60,61025ae37ef11b136ea224fe,,,,,,,,,2653,-49,-33,1,0,0,response5disk,,2,17,-3,1,0,0,rectangle,17,-3,1,0,0,17,-3,1,0,0,0,66,66,84,1,,,,,,,,
,,,,,,,,,,,,,FF,,,,,,,,2.64,,,,,,,,,,,,,,,,,,,,,,60fd0d8d6d2e25846daa2ef3,610376c2e9fde9675d8d908e,2021-07-30_00h10.16.103,Simcolourproject_2stim_asymm_v5,2020.2.10,MacIntel,60,61025ae37ef11b136ea224fe,,,,,,,,,4333,23,44,1,0,0,response1disk,,7,14,-2,1,0,0,rectangle,14,-2,1,0,0,14,-2,1,0,0,0,67,67,146,1,,,,,,,,
,,,,,,,,,,,,,FF,,,,,,,,2.602,,,,,,,,,,,,,,,,,,,,,,60fd0d8d6d2e25846daa2ef3,610376c2e9fde9675d8d908e,2021-07-30_00h10.16.103,Simcolourproject_2stim_asymm_v5,2020.2.10,MacIntel,60,61025ae37ef11b136ea224fe,,,,,,,,,562,-18,-94,1,0,0,response5disk,,3,-16,-2,1,0,0,rectangle,-16,-2,1,0,0,-16,-2,1,0,0,0,68,68,86,1,,,,,,,,
,,,,,,,,,,,,,FF,,,,,,,,1.652,,,,,,,,,,,,,,,,,,,,,,60fd0d8d6d2e25846daa2ef3,610376c2e9fde9675d8d908e,2021-07-30_00h10.16.103,Simcolourproject_2stim_asymm_v5,2020.2.10,MacIntel,60,61025ae37ef11b136ea224fe,,,,,,,,,2555,-42,-63,1,0,0,response5disk,,3,-27,-3,1,0,0,rectangle,-27,-3,1,0,0,-27,-3,1,0,0,0,69,69,112,1,,,,,,,,
,,,,,,,,,,,,,FF,,,,,,,,1.179,,,,,,,,,,,,,,,,,,,,,,60fd0d8d6d2e25846daa2ef3,610376c2e9fde9675d8d908e,2021-07-30_00h10.16.103,Simcolourproject_2stim_asymm_v5,2020.2.10,MacIntel,60,61025ae37ef11b136ea224fe,,,,,,,,,3576,65,-50,1,0,0,response3disk,,5,14,-1,1,0,0,rectangle,14,-1,1,0,0,14,-1,1,0,0,0,70,70,20,1,,,,,,,,
,,,,,,,,,,,,,FF,,,,,,,,1.757,,,,,,,,,,,,,,,,,,,,,,60fd0d8d6d2e25846daa2ef3,610376c2e9fde9675d8d908e,2021-07-30_00h10.16.103,Simcolourproject_2stim_asymm_v5,2020.2.10,MacIntel,60,61025ae37ef11b136ea224fe,,,,,,,,,1710,49,-24,1,0,0,response3disk,,5,16,-10,1,0,0,rectangle,16,-10,1,0,0,16,-10,1,0,0,0,71,71,88,1,,,,,,,,
,,,,,,,,,,,,,FF,,,,,,,,2.536,,,,,,,,,,,,,,,,,,,,,,60fd0d8d6d2e25846daa2ef3,610376c2e9fde9675d8d908e,2021-07-30_00h10.16.103,Simcolourproject_2stim_asymm_v5,2020.2.10,MacIntel,60,61025ae37ef11b136ea224fe,,,,,,,,,4261,29,-53,1,0,0,response3disk,,4,-1,-3,1,0,0,rectangle,-83,40,1,0,0,-16,0,1,0,0,0,72,72,100,1,,response7disk_3,TRUE,1,1,"[73,254,35,269,14,243,148,145,179,132,137,321,38,17,55,168,99,45,62,245]",1.63,rectangle
,,,,,,,,,,,,,FF,,,,,,,,1.021,,,,,,,,,,,,,,,,,,,,,,60fd0d8d6d2e25846daa2ef3,610376c2e9fde9675d8d908e,2021-07-30_00h10.16.103,Simcolourproject_2stim_asymm_v5,2020.2.10,MacIntel,60,61025ae37ef11b136ea224fe,,,,,,,,,2486,-77,-44,1,0,0,response5disk,,2,-12,-7,1,0,0,rectangle,-12,-7,1,0,0,-12,-7,1,0,0,0,73,73,29,1,,,,,,,,
,,,,,,,,,,,,,FF,,,,,,,,2.401,,,,,,,,,,,,,,,,,,,,,,60fd0d8d6d2e25846daa2ef3,610376c2e9fde9675d8d908e,2021-07-30_00h10.16.103,Simcolourproject_2stim_asymm_v5,2020.2.10,MacIntel,60,61025ae37ef11b136ea224fe,,,,,,,,,2281,61,-40,1,0,0,response3disk,,5,12,-2,1,0,0,rectangle,12,-2,1,0,0,12,-2,1,0,0,0,74,74,22,1,,,,,,,,
,,,,,,,,,,,,,FF,,,,,,,,1.257,,,,,,,,,,,,,,,,,,,,,,60fd0d8d6d2e25846daa2ef3,610376c2e9fde9675d8d908e,2021-07-30_00h10.16.103,Simcolourproject_2stim_asymm_v5,2020.2.10,MacIntel,60,61025ae37ef11b136ea224fe,,,,,,,,,34,24,-54,1,0,0,response3disk,,4,7,-8,1,0,0,rectangle,7,-8,1,0,0,7,-8,1,0,0,0,75,75,8,1,,,,,,,,
,,,,,,,,,,,,,FF,,,,,,,,9.14,,,,,,,,,,,,,,,,,,,,,,60fd0d8d6d2e25846daa2ef3,610376c2e9fde9675d8d908e,2021-07-30_00h10.16.103,Simcolourproject_2stim_asymm_v5,2020.2.10,MacIntel,60,61025ae37ef11b136ea224fe,,,,,,,,,792,21,-44,1,0,0,response3disk,,4,-8,12,1,0,0,rectangle,-8,12,1,0,0,-8,12,1,0,0,0,76,76,158,1,,,,,,,,
,,,,,,,,,,,,,FF,,,,,,,,1.152,,,,,,,,,,,,,,,,,,,,,,60fd0d8d6d2e25846daa2ef3,610376c2e9fde9675d8d908e,2021-07-30_00h10.16.103,Simcolourproject_2stim_asymm_v5,2020.2.10,MacIntel,60,61025ae37ef11b136ea224fe,,,,,,,,,513,-78,-64,1,0,0,response5disk,,2,-31,-12,1,0,0,rectangle,-31,-12,1,0,0,-31,-12,1,0,0,0,77,77,33,1,,,,,,,,
,,,,,,,,,,,,,FF,,,,,,,,11.667,,,,,,,,,,,,,,,,,,,,,,60fd0d8d6d2e25846daa2ef3,610376c2e9fde9675d8d908e,2021-07-30_00h10.16.103,Simcolourproject_2stim_asymm_v5,2020.2.10,MacIntel,60,61025ae37ef11b136ea224fe,,,,,,,,,3465,-55,24,1,0,0,response7disk,,1,-8,12,1,0,0,rectangle,-8,12,1,0,0,-8,12,1,0,0,0,78,78,57,1,,,,,,,,
,,,,,,,,,,,,,FF,,,,,,,,0.902,,,,,,,,,,,,,,,,,,,,,,60fd0d8d6d2e25846daa2ef3,610376c2e9fde9675d8d908e,2021-07-30_00h10.16.103,Simcolourproject_2stim_asymm_v5,2020.2.10,MacIntel,60,61025ae37ef11b136ea224fe,,,,,,,,,3976,-91,-46,1,0,0,response5disk,,2,-30,-13,1,0,0,rectangle,-30,-13,1,0,0,-30,-13,1,0,0,0,79,79,4,1,,,,,,,,
,,,,,,,,,,,,,FF,,,,,,,,1.134,,,,,,,,,,,,,,,,,,,,,,60fd0d8d6d2e25846daa2ef3,610376c2e9fde9675d8d908e,2021-07-30_00h10.16.103,Simcolourproject_2stim_asymm_v5,2020.2.10,MacIntel,60,61025ae37ef11b136ea224fe,,,,,,,,,187,-67,38,1,0,0,response7disk,,1,20,2,1,0,0,rectangle,20,2,1,0,0,20,2,1,0,0,0,80,80,153,1,,,,,,,,
,,,,,,,,,,,,,FF,,,,,,,,1.755,,,,,,,,,,,,,,,,,,,,,,60fd0d8d6d2e25846daa2ef3,610376c2e9fde9675d8d908e,2021-07-30_00h10.16.103,Simcolourproject_2stim_asymm_v5,2020.2.10,MacIntel,60,61025ae37ef11b136ea224fe,,,,,,,,,361,54,-80,1,0,0,response3disk,,4,-6,-5,1,0,0,rectangle,-6,-5,1,0,0,-6,-5,1,0,0,0,81,81,131,1,,,,,,,,
,,,,,,,,,,,,,FF,,,,,,,,0.917,,,,,,,,,,,,,,,,,,,,,,60fd0d8d6d2e25846daa2ef3,610376c2e9fde9675d8d908e,2021-07-30_00h10.16.103,Simcolourproject_2stim_asymm_v5,2020.2.10,MacIntel,60,61025ae37ef11b136ea224fe,,,,,,,,,2642,47,-62,1,0,0,response3disk,,4,3,-2,1,0,0,rectangle,3,-2,1,0,0,3,-2,1,0,0,0,82,82,87,1,,,,,,,,
,,,,,,,,,,,,,FF,,,,,,,,1.134,,,,,,,,,,,,,,,,,,,,,,60fd0d8d6d2e25846daa2ef3,610376c2e9fde9675d8d908e,2021-07-30_00h10.16.103,Simcolourproject_2stim_asymm_v5,2020.2.10,MacIntel,60,61025ae37ef11b136ea224fe,,,,,,,,,63,-71,-28,1,0,0,response5disk,,2,-34,-6,1,0,0,rectangle,-34,-6,1,0,0,-34,-6,1,0,0,0,83,83,46,1,,,,,,,,
,,,,,,,,,,,,,FF,,,,,,,,0.935,,,,,,,,,,,,,,,,,,,,,,60fd0d8d6d2e25846daa2ef3,610376c2e9fde9675d8d908e,2021-07-30_00h10.16.103,Simcolourproject_2stim_asymm_v5,2020.2.10,MacIntel,60,61025ae37ef11b136ea224fe,,,,,,,,,3837,-64,-30,1,0,0,response5disk,,2,-15,5,1,0,0,rectangle,-15,5,1,0,0,-15,5,1,0,0,0,84,84,117,1,,,,,,,,
,,,,,,,,,,,,,FF,,,,,,,,1.919,,,,,,,,,,,,,,,,,,,,,,60fd0d8d6d2e25846daa2ef3,610376c2e9fde9675d8d908e,2021-07-30_00h10.16.103,Simcolourproject_2stim_asymm_v5,2020.2.10,MacIntel,60,61025ae37ef11b136ea224fe,,,,,,,,,2456,76,21,1,0,0,response1disk,,6,6,6,1,0,0,rectangle,6,6,1,0,0,6,6,1,0,0,0,85,85,76,1,,,,,,,,
,,,,,,,,,,,,,FF,,,,,,,,0.997,,,,,,,,,,,,,,,,,,,,,,60fd0d8d6d2e25846daa2ef3,610376c2e9fde9675d8d908e,2021-07-30_00h10.16.103,Simcolourproject_2stim_asymm_v5,2020.2.10,MacIntel,60,61025ae37ef11b136ea224fe,,,,,,,,,2102,-64,-26,1,0,0,response5disk,,2,-1,8,1,0,0,rectangle,-1,8,1,0,0,-1,8,1,0,0,0,86,86,48,1,,,,,,,,
,,,,,,,,,,,,,FF,,,,,,,,5.169,,,,,,,,,,,,,,,,,,,,,,60fd0d8d6d2e25846daa2ef3,610376c2e9fde9675d8d908e,2021-07-30_00h10.16.103,Simcolourproject_2stim_asymm_v5,2020.2.10,MacIntel,60,61025ae37ef11b136ea224fe,,,,,,,,,1740,-58,-27,1,0,0,response5disk,,2,-23,-2,1,0,0,rectangle,-23,-2,1,0,0,-23,-2,1,0,0,0,87,87,6,1,,,,,,,,
,,,,,,,,,,,,,FF,,,,,,,,0.833,,,,,,,,,,,,,,,,,,,,,,60fd0d8d6d2e25846daa2ef3,610376c2e9fde9675d8d908e,2021-07-30_00h10.16.103,Simcolourproject_2stim_asymm_v5,2020.2.10,MacIntel,60,61025ae37ef11b136ea224fe,,,,,,,,,3071,57,-34,1,0,0,response3disk,,5,7,-14,1,0,0,rectangle,7,-14,1,0,0,7,-14,1,0,0,0,88,88,83,1,,,,,,,,
,,,,,,,,,,,,,FF,,,,,,,,1.918,,,,,,,,,,,,,,,,,,,,,,60fd0d8d6d2e25846daa2ef3,610376c2e9fde9675d8d908e,2021-07-30_00h10.16.103,Simcolourproject_2stim_asymm_v5,2020.2.10,MacIntel,60,61025ae37ef11b136ea224fe,,,,,,,,,2569,28,-33,1,0,0,response3disk,,4,5,-6,1,0,0,rectangle,5,-6,1,0,0,5,-6,1,0,0,0,89,89,126,1,,,,,,,,
,,,,,,,,,,,,,FF,,,,,,,,11.617,,,,,,,,,,,,,,,,,,,,,,60fd0d8d6d2e25846daa2ef3,610376c2e9fde9675d8d908e,2021-07-30_00h10.16.103,Simcolourproject_2stim_asymm_v5,2020.2.10,MacIntel,60,61025ae37ef11b136ea224fe,,,,,,,,,382,48,-96,1,0,0,response3disk,,4,19,-4,1,0,0,rectangle,19,-4,1,0,0,19,-4,1,0,0,0,90,90,80,1,,,,,,,,
,,,,,,,,,,,,,FF,,,,,,,,1.321,,,,,,,,,,,,,,,,,,,,,,60fd0d8d6d2e25846daa2ef3,610376c2e9fde9675d8d908e,2021-07-30_00h10.16.103,Simcolourproject_2stim_asymm_v5,2020.2.10,MacIntel,60,61025ae37ef11b136ea224fe,,,,,,,,,669,34,-24,1,0,0,response3disk,,5,10,-12,1,0,0,rectangle,10,-12,1,0,0,10,-12,1,0,0,0,91,91,94,1,,,,,,,,
,,,,,,,,,,,,,FF,,,,,,,,1.042,,,,,,,,,,,,,,,,,,,,,,60fd0d8d6d2e25846daa2ef3,610376c2e9fde9675d8d908e,2021-07-30_00h10.16.103,Simcolourproject_2stim_asymm_v5,2020.2.10,MacIntel,60,61025ae37ef11b136ea224fe,,,,,,,,,3152,-80,30,1,0,0,response7disk,,1,-33,12,1,0,0,rectangle,-33,12,1,0,0,-33,12,1,0,0,0,92,92,138,1,,,,,,,,
,,,,,,,,,,,,,FF,,,,,,,,1.524,,,,,,,,,,,,,,,,,,,,,,60fd0d8d6d2e25846daa2ef3,610376c2e9fde9675d8d908e,2021-07-30_00h10.16.103,Simcolourproject_2stim_asymm_v5,2020.2.10,MacIntel,60,61025ae37ef11b136ea224fe,,,,,,,,,1207,-26,-86,1,0,0,response5disk,,3,-11,-2,1,0,0,rectangle,-11,-2,1,0,0,-11,-2,1,0,0,0,93,93,152,1,,,,,,,,
,,,,,,,,,,,,,FF,,,,,,,,0.822,,,,,,,,,,,,,,,,,,,,,,60fd0d8d6d2e25846daa2ef3,610376c2e9fde9675d8d908e,2021-07-30_00h10.16.103,Simcolourproject_2stim_asymm_v5,2020.2.10,MacIntel,60,61025ae37ef11b136ea224fe,,,,,,,,,3471,-41,76,1,0,0,response7disk,,0,-13,2,1,0,0,rectangle,-13,2,1,0,0,-13,2,1,0,0,0,94,94,137,1,,,,,,,,
,,,,,,,,,,,,,FF,,,,,,,,1.211,,,,,,,,,,,,,,,,,,,,,,60fd0d8d6d2e25846daa2ef3,610376c2e9fde9675d8d908e,2021-07-30_00h10.16.103,Simcolourproject_2stim_asymm_v5,2020.2.10,MacIntel,60,61025ae37ef11b136ea224fe,,,,,,,,,626,-29,-89,1,0,0,response5disk,,3,0,-1,1,0,0,rectangle,0,-1,1,0,0,0,-1,1,0,0,0,95,95,114,1,,,,,,,,
,,,,,,,,,,,,,FF,,,,,,,,1.368,,,,,,,,,,,,,,,,,,,,,,60fd0d8d6d2e25846daa2ef3,610376c2e9fde9675d8d908e,2021-07-30_00h10.16.103,Simcolourproject_2stim_asymm_v5,2020.2.10,MacIntel,60,61025ae37ef11b136ea224fe,,,,,,,,,4220,32,-62,1,0,0,response3disk,,4,8,-11,1,0,0,rectangle,8,-11,1,0,0,8,-11,1,0,0,0,96,96,118,1,,,,,,,,
,,,,,,,,,,,,,FF,,,,,,,,0.751,,,,,,,,,,,,,,,,,,,,,,60fd0d8d6d2e25846daa2ef3,610376c2e9fde9675d8d908e,2021-07-30_00h10.16.103,Simcolourproject_2stim_asymm_v5,2020.2.10,MacIntel,60,61025ae37ef11b136ea224fe,,,,,,,,,4368,-28,60,1,0,0,response7disk,,0,-7,-12,1,0,0,rectangle,-7,-12,1,0,0,-7,-12,1,0,0,0,97,97,44,1,,,,,,,,
,,,,,,,,,,,,,FF,,,,,,,,2.134,,,,,,,,,,,,,,,,,,,,,,60fd0d8d6d2e25846daa2ef3,610376c2e9fde9675d8d908e,2021-07-30_00h10.16.103,Simcolourproject_2stim_asymm_v5,2020.2.10,MacIntel,60,61025ae37ef11b136ea224fe,,,,,,,,,2869,78,-45,1,0,0,response3disk,,5,11,-7,1,0,0,rectangle,-79,35,1,0,0,-13,6,1,0,0,0,98,98,145,1,,response7disk_3,TRUE,1,1,"[73,254,35,269,14,243,148,145,179,132,137,321,38,17,55,168,99,45,62,245]",1.618,rectangle
,,,,,,,,,,,,,FF,,,,,,,,11.244,,,,,,,,,,,,,,,,,,,,,,60fd0d8d6d2e25846daa2ef3,610376c2e9fde9675d8d908e,2021-07-30_00h10.16.103,Simcolourproject_2stim_asymm_v5,2020.2.10,MacIntel,60,61025ae37ef11b136ea224fe,,,,,,,,,3676,43,-91,1,0,0,response3disk,,4,-17,11,1,0,0,rectangle,-17,11,1,0,0,-17,11,1,0,0,0,99,99,31,1,,,,,,,,
,,,,,,,,,,,,,FF,,,,,,,,2.024,,,,,,,,,,,,,,,,,,,,,,60fd0d8d6d2e25846daa2ef3,610376c2e9fde9675d8d908e,2021-07-30_00h10.16.103,Simcolourproject_2stim_asymm_v5,2020.2.10,MacIntel,60,61025ae37ef11b136ea224fe,,,,,,,,,4302,-41,-74,1,0,0,response5disk,,3,7,6,1,0,0,rectangle,7,6,1,0,0,7,6,1,0,0,0,100,100,27,1,,,,,,,,
,,,,,,,,,,,,,FF,,,,,,,,2.522,,,,,,,,,,,,,,,,,,,,,,60fd0d8d6d2e25846daa2ef3,610376c2e9fde9675d8d908e,2021-07-30_00h10.16.103,Simcolourproject_2stim_asymm_v5,2020.2.10,MacIntel,60,61025ae37ef11b136ea224fe,,,,,,,,,4131,85,34,1,0,0,response1disk,,6,-4,-5,1,0,0,rectangle,-4,-5,1,0,0,-4,-5,1,0,0,0,101,101,11,1,,,,,,,,
,,,,,,,,,,,,,FF,,,,,,,,1.952,,,,,,,,,,,,,,,,,,,,,,60fd0d8d6d2e25846daa2ef3,610376c2e9fde9675d8d908e,2021-07-30_00h10.16.103,Simcolourproject_2stim_asymm_v5,2020.2.10,MacIntel,60,61025ae37ef11b136ea224fe,,,,,,,,,3959,49,-21,1,0,0,response3disk,,5,-4,-9,1,0,0,rectangle,-4,-9,1,0,0,-4,-9,1,0,0,0,102,102,21,1,,,,,,,,
,,,,,,,,,,,,,FF,,,,,,,,0.917,,,,,,,,,,,,,,,,,,,,,,60fd0d8d6d2e25846daa2ef3,610376c2e9fde9675d8d908e,2021-07-30_00h10.16.103,Simcolourproject_2stim_asymm_v5,2020.2.10,MacIntel,60,61025ae37ef11b136ea224fe,,,,,,,,,1373,-83,35,1,0,0,response7disk,,1,-13,5,1,0,0,rectangle,-13,5,1,0,0,-13,5,1,0,0,0,103,103,95,1,,,,,,,,
,,,,,,,,,,,,,FF,,,,,,,,1.057,,,,,,,,,,,,,,,,,,,,,,60fd0d8d6d2e25846daa2ef3,610376c2e9fde9675d8d908e,2021-07-30_00h10.16.103,Simcolourproject_2stim_asymm_v5,2020.2.10,MacIntel,60,61025ae37ef11b136ea224fe,,,,,,,,,2272,29,-70,1,0,0,response3disk,,4,2,-18,1,0,0,rectangle,2,-18,1,0,0,2,-18,1,0,0,0,104,104,49,1,,,,,,,,
,,,,,,,,,,,,,FF,,,,,,,,0.874,,,,,,,,,,,,,,,,,,,,,,60fd0d8d6d2e25846daa2ef3,610376c2e9fde9675d8d908e,2021-07-30_00h10.16.103,Simcolourproject_2stim_asymm_v5,2020.2.10,MacIntel,60,61025ae37ef11b136ea224fe,,,,,,,,,2269,24,-44,1,0,0,response3disk,,4,-4,-9,1,0,0,rectangle,-4,-9,1,0,0,-4,-9,1,0,0,0,105,105,24,1,,,,,,,,
,,,,,,,,,,,,,FF,,,,,,,,2.702,,,,,,,,,,,,,,,,,,,,,,60fd0d8d6d2e25846daa2ef3,610376c2e9fde9675d8d908e,2021-07-30_00h10.16.103,Simcolourproject_2stim_asymm_v5,2020.2.10,MacIntel,60,61025ae37ef11b136ea224fe,,,,,,,,,1158,-38,-75,1,0,0,response5disk,,3,-26,-9,1,0,0,rectangle,-26,-9,1,0,0,-26,-9,1,0,0,0,106,106,150,1,,,,,,,,
,,,,,,,,,,,,,FF,,,,,,,,8.07,,,,,,,,,,,,,,,,,,,,,,60fd0d8d6d2e25846daa2ef3,610376c2e9fde9675d8d908e,2021-07-30_00h10.16.103,Simcolourproject_2stim_asymm_v5,2020.2.10,MacIntel,60,61025ae37ef11b136ea224fe,,,,,,,,,1196,-38,-76,1,0,0,response5disk,,3,-15,-14,1,0,0,rectangle,-15,-14,1,0,0,-15,-14,1,0,0,0,107,107,68,1,,,,,,,,
,,,,,,,,,,,,,FF,,,,,,,,0.851,,,,,,,,,,,,,,,,,,,,,,60fd0d8d6d2e25846daa2ef3,610376c2e9fde9675d8d908e,2021-07-30_00h10.16.103,Simcolourproject_2stim_asymm_v5,2020.2.10,MacIntel,60,61025ae37ef11b136ea224fe,,,,,,,,,4251,-33,71,1,0,0,response7disk,,0,-2,-4,1,0,0,rectangle,-2,-4,1,0,0,-2,-4,1,0,0,0,108,108,70,1,,,,,,,,
,,,,,,,,,,,,,FF,,,,,,,,1.651,,,,,,,,,,,,,,,,,,,,,,60fd0d8d6d2e25846daa2ef3,610376c2e9fde9675d8d908e,2021-07-30_00h10.16.103,Simcolourproject_2stim_asymm_v5,2020.2.10,MacIntel,60,61025ae37ef11b136ea224fe,,,,,,,,,1620,56,-76,1,0,0,response3disk,,4,6,6,1,0,0,rectangle,6,6,1,0,0,6,6,1,0,0,0,109,109,93,1,,,,,,,,
,,,,,,,,,,,,,FF,,,,,,,,8.77,,,,,,,,,,,,,,,,,,,,,,60fd0d8d6d2e25846daa2ef3,610376c2e9fde9675d8d908e,2021-07-30_00h10.16.103,Simcolourproject_2stim_asymm_v5,2020.2.10,MacIntel,60,61025ae37ef11b136ea224fe,,,,,,,,,3445,40,-77,1,0,0,response3disk,,4,18,-4,1,0,0,rectangle,18,-4,1,0,0,18,-4,1,0,0,0,110,110,98,1,,,,,,,,
,,,,,,,,,,,,,FF,,,,,,,,0.786,,,,,,,,,,,,,,,,,,,,,,60fd0d8d6d2e25846daa2ef3,610376c2e9fde9675d8d908e,2021-07-30_00h10.16.103,Simcolourproject_2stim_asymm_v5,2020.2.10,MacIntel,60,61025ae37ef11b136ea224fe,,,,,,,,,1963,-41,67,1,0,0,response7disk,,0,-8,10,1,0,0,rectangle,-8,10,1,0,0,-8,10,1,0,0,0,111,111,149,1,,,,,,,,
,,,,,,,,,,,,,FF,,,,,,,,7.95,,,,,,,,,,,,,,,,,,,,,,60fd0d8d6d2e25846daa2ef3,610376c2e9fde9675d8d908e,2021-07-30_00h10.16.103,Simcolourproject_2stim_asymm_v5,2020.2.10,MacIntel,60,61025ae37ef11b136ea224fe,,,,,,,,,4068,36,-61,1,0,0,response3disk,,4,17,11,1,0,0,rectangle,17,11,1,0,0,17,11,1,0,0,0,112,112,2,1,,,,,,,,
,,,,,,,,,,,,,FF,,,,,,,,0.784,,,,,,,,,,,,,,,,,,,,,,60fd0d8d6d2e25846daa2ef3,610376c2e9fde9675d8d908e,2021-07-30_00h10.16.103,Simcolourproject_2stim_asymm_v5,2020.2.10,MacIntel,60,61025ae37ef11b136ea224fe,,,,,,,,,1137,-106,-42,1,0,0,response5disk,,2,-3,6,1,0,0,rectangle,-3,6,1,0,0,-3,6,1,0,0,0,113,113,16,1,,,,,,,,
,,,,,,,,,,,,,FF,,,,,,,,0.938,,,,,,,,,,,,,,,,,,,,,,60fd0d8d6d2e25846daa2ef3,610376c2e9fde9675d8d908e,2021-07-30_00h10.16.103,Simcolourproject_2stim_asymm_v5,2020.2.10,MacIntel,60,61025ae37ef11b136ea224fe,,,,,,,,,547,-68,40,1,0,0,response7disk,,1,8,-1,1,0,0,rectangle,8,-1,1,0,0,8,-1,1,0,0,0,114,114,82,1,,,,,,,,
,,,,,,,,,,,,,FF,,,,,,,,1.637,,,,,,,,,,,,,,,,,,,,,,60fd0d8d6d2e25846daa2ef3,610376c2e9fde9675d8d908e,2021-07-30_00h10.16.103,Simcolourproject_2stim_asymm_v5,2020.2.10,MacIntel,60,61025ae37ef11b136ea224fe,,,,,,,,,462,-87,36,1,0,0,response7disk,,1,-10,2,1,0,0,rectangle,-10,2,1,0,0,-10,2,1,0,0,0,115,115,0,1,,,,,,,,
,,,,,,,,,,,,,FF,,,,,,,,0.668,,,,,,,,,,,,,,,,,,,,,,60fd0d8d6d2e25846daa2ef3,610376c2e9fde9675d8d908e,2021-07-30_00h10.16.103,Simcolourproject_2stim_asymm_v5,2020.2.10,MacIntel,60,61025ae37ef11b136ea224fe,,,,,,,,,4305,-51,74,1,0,0,response7disk,,0,-4,-5,1,0,0,rectangle,-4,-5,1,0,0,-4,-5,1,0,0,0,116,116,26,1,,,,,,,,
,,,,,,,,,,,,,FF,,,,,,,,8.306,,,,,,,,,,,,,,,,,,,,,,60fd0d8d6d2e25846daa2ef3,610376c2e9fde9675d8d908e,2021-07-30_00h10.16.103,Simcolourproject_2stim_asymm_v5,2020.2.10,MacIntel,60,61025ae37ef11b136ea224fe,,,,,,,,,1911,-43,-64,1,0,0,response5disk,,3,1,1,1,0,0,rectangle,1,1,1,0,0,1,1,1,0,0,0,117,117,106,1,,,,,,,,
,,,,,,,,,,,,,FF,,,,,,,,7.123,,,,,,,,,,,,,,,,,,,,,,60fd0d8d6d2e25846daa2ef3,610376c2e9fde9675d8d908e,2021-07-30_00h10.16.103,Simcolourproject_2stim_asymm_v5,2020.2.10,MacIntel,60,61025ae37ef11b136ea224fe,,,,,,,,,942,27,-61,1,0,0,response3disk,,4,10,8,1,0,0,rectangle,10,8,1,0,0,10,8,1,0,0,0,118,118,108,1,,,,,,,,
,,,,,,,,,,,,,FF,,,,,,,,1.045,,,,,,,,,,,,,,,,,,,,,,60fd0d8d6d2e25846daa2ef3,610376c2e9fde9675d8d908e,2021-07-30_00h10.16.103,Simcolourproject_2stim_asymm_v5,2020.2.10,MacIntel,60,61025ae37ef11b136ea224fe,,,,,,,,,1552,-52,-72,1,0,0,response5disk,,3,-14,-16,1,0,0,rectangle,-14,-16,1,0,0,-14,-16,1,0,0,0,119,119,37,1,,,,,,,,
,,,,,,,,,,,,,FF,,,,,,,,1.135,,,,,,,,,,,,,,,,,,,,,,60fd0d8d6d2e25846daa2ef3,610376c2e9fde9675d8d908e,2021-07-30_00h10.16.103,Simcolourproject_2stim_asymm_v5,2020.2.10,MacIntel,60,61025ae37ef11b136ea224fe,,,,,,,,,2455,95,20,1,0,0,response1disk,,6,26,-1,1,0,0,rectangle,26,-1,1,0,0,26,-1,1,0,0,0,120,120,59,1,,,,,,,,
,,,,,,,,,,,,,FF,,,,,,,,2.586,,,,,,,,,,,,,,,,,,,,,,60fd0d8d6d2e25846daa2ef3,610376c2e9fde9675d8d908e,2021-07-30_00h10.16.103,Simcolourproject_2stim_asymm_v5,2020.2.10,MacIntel,60,61025ae37ef11b136ea224fe,,,,,,,,,2180,21,-61,1,0,0,response3disk,,4,-1,-3,1,0,0,rectangle,-1,-3,1,0,0,-1,-3,1,0,0,0,121,121,133,1,,,,,,,,
,,,,,,,,,,,,,FF,,,,,,,,0.776,,,,,,,,,,,,,,,,,,,,,,60fd0d8d6d2e25846daa2ef3,610376c2e9fde9675d8d908e,2021-07-30_00h10.16.103,Simcolourproject_2stim_asymm_v5,2020.2.10,MacIntel,60,61025ae37ef11b136ea224fe,,,,,,,,,3200,-65,29,1,0,0,response7disk,,1,-1,4,1,0,0,rectangle,-1,4,1,0,0,-1,4,1,0,0,0,122,122,103,1,,,,,,,,
,,,,,,,,,,,,,FF,,,,,,,,0.89,,,,,,,,,,,,,,,,,,,,,,60fd0d8d6d2e25846daa2ef3,610376c2e9fde9675d8d908e,2021-07-30_00h10.16.103,Simcolourproject_2stim_asymm_v5,2020.2.10,MacIntel,60,61025ae37ef11b136ea224fe,,,,,,,,,325,90,-49,1,0,0,response3disk,,5,-8,-6,1,0,0,rectangle,-8,-6,1,0,0,-8,-6,1,0,0,0,123,123,23,1,,,,,,,,
,,,,,,,,,,,,,FF,,,,,,,,1.109,,,,,,,,,,,,,,,,,,,,,,60fd0d8d6d2e25846daa2ef3,610376c2e9fde9675d8d908e,2021-07-30_00h10.16.103,Simcolourproject_2stim_asymm_v5,2020.2.10,MacIntel,60,61025ae37ef11b136ea224fe,,,,,,,,,1928,-40,-72,1,0,0,response5disk,,3,-17,-17,1,0,0,rectangle,-17,-17,1,0,0,-17,-17,1,0,0,0,124,124,38,1,,,,,,,,
,,,,,,,,,,,,,FF,,,,,,,,0.95,,,,,,,,,,,,,,,,,,,,,,60fd0d8d6d2e25846daa2ef3,610376c2e9fde9675d8d908e,2021-07-30_00h10.16.103,Simcolourproject_2stim_asymm_v5,2020.2.10,MacIntel,60,61025ae37ef11b136ea224fe,,,,,,,,,712,-74,34,1,0,0,response7disk,,1,-16,-1,1,0,0,rectangle,-16,-1,1,0,0,-16,-1,1,0,0,0,125,125,140,1,,,,,,,,
,,,,,,,,,,,,,FF,,,,,,,,3.022,,,,,,,,,,,,,,,,,,,,,,60fd0d8d6d2e25846daa2ef3,610376c2e9fde9675d8d908e,2021-07-30_00h10.16.103,Simcolourproject_2stim_asymm_v5,2020.2.10,MacIntel,60,61025ae37ef11b136ea224fe,,,,,,,,,3806,-49,-29,1,0,0,response5disk,,2,-9,-7,1,0,0,rectangle,-9,-7,1,0,0,-9,-7,1,0,0,0,126,126,19,1,,,,,,,,
,,,,,,,,,,,,,FF,,,,,,,,0.843,,,,,,,,,,,,,,,,,,,,,,60fd0d8d6d2e25846daa2ef3,610376c2e9fde9675d8d908e,2021-07-30_00h10.16.103,Simcolourproject_2stim_asymm_v5,2020.2.10,MacIntel,60,61025ae37ef11b136ea224fe,,,,,,,,,684,-63,-32,1,0,0,response5disk,,2,4,2,1,0,0,rectangle,4,2,1,0,0,4,2,1,0,0,0,127,127,40,1,,,,,,,,
,,,,,,,,,,,,,FF,,,,,,,,1.732,,,,,,,,,,,,,,,,,,,,,,60fd0d8d6d2e25846daa2ef3,610376c2e9fde9675d8d908e,2021-07-30_00h10.16.103,Simcolourproject_2stim_asymm_v5,2020.2.10,MacIntel,60,61025ae37ef11b136ea224fe,,,,,,,,,1724,69,-56,1,0,0,response3disk,,5,1,6,1,0,0,rectangle,1,6,1,0,0,1,6,1,0,0,0,128,128,71,1,,,,,,,,
,,,,,,,,,,,,,FF,,,,,,,,0.726,,,,,,,,,,,,,,,,,,,,,,60fd0d8d6d2e25846daa2ef3,610376c2e9fde9675d8d908e,2021-07-30_00h10.16.103,Simcolourproject_2stim_asymm_v5,2020.2.10,MacIntel,60,61025ae37ef11b136ea224fe,,,,,,,,,215,43,-31,1,0,0,response3disk,,5,3,-4,1,0,0,rectangle,3,-4,1,0,0,3,-4,1,0,0,0,129,129,50,1,,,,,,,,
,,,,,,,,,,,,,FF,,,,,,,,0.876,,,,,,,,,,,,,,,,,,,,,,60fd0d8d6d2e25846daa2ef3,610376c2e9fde9675d8d908e,2021-07-30_00h10.16.103,Simcolourproject_2stim_asymm_v5,2020.2.10,MacIntel,60,61025ae37ef11b136ea224fe,,,,,,,,,3251,-76,51,1,0,0,response7disk,,1,4,7,1,0,0,rectangle,4,7,1,0,0,4,7,1,0,0,0,130,130,96,1,,,,,,,,
,,,,,,,,,,,,,FF,,,,,,,,0.811,,,,,,,,,,,,,,,,,,,,,,60fd0d8d6d2e25846daa2ef3,610376c2e9fde9675d8d908e,2021-07-30_00h10.16.103,Simcolourproject_2stim_asymm_v5,2020.2.10,MacIntel,60,61025ae37ef11b136ea224fe,,,,,,,,,3077,-36,-59,1,0,0,response5disk,,3,-23,-11,1,0,0,rectangle,44,72,1,0,0,7,-2,1,0,0,0,131,131,90,1,,response1disk_3,TRUE,7,7,"[73,254,35,269,14,243,148,145,179,132,137,321,38,17,55,168,99,45,62,245]",1.992,rectangle
,,,,,,,,,,,,,FF,,,,,,,,1.019,,,,,,,,,,,,,,,,,,,,,,60fd0d8d6d2e25846daa2ef3,610376c2e9fde9675d8d908e,2021-07-30_00h10.16.103,Simcolourproject_2stim_asymm_v5,2020.2.10,MacIntel,60,61025ae37ef11b136ea224fe,,,,,,,,,3508,-68,-32,1,0,0,response5disk,,2,-11,5,1,0,0,rectangle,-11,5,1,0,0,-11,5,1,0,0,0,132,132,54,1,,,,,,,,
,,,,,,,,,,,,,FF,,,,,,,,1.984,,,,,,,,,,,,,,,,,,,,,,60fd0d8d6d2e25846daa2ef3,610376c2e9fde9675d8d908e,2021-07-30_00h10.16.103,Simcolourproject_2stim_asymm_v5,2020.2.10,MacIntel,60,61025ae37ef11b136ea224fe,,,,,,,,,141,-23,-69,1,0,0,response5disk,,3,6,-7,1,0,0,rectangle,6,-7,1,0,0,6,-7,1,0,0,0,133,133,120,1,,,,,,,,
,,,,,,,,,,,,,FF,,,,,,,,0.86,,,,,,,,,,,,,,,,,,,,,,60fd0d8d6d2e25846daa2ef3,610376c2e9fde9675d8d908e,2021-07-30_00h10.16.103,Simcolourproject_2stim_asymm_v5,2020.2.10,MacIntel,60,61025ae37ef11b136ea224fe,,,,,,,,,3499,42,-34,1,0,0,response3disk,,5,-4,-8,1,0,0,rectangle,-4,-8,1,0,0,-4,-8,1,0,0,0,134,134,128,1,,,,,,,,
,,,,,,,,,,,,,FF,,,,,,,,1.039,,,,,,,,,,,,,,,,,,,,,,60fd0d8d6d2e25846daa2ef3,610376c2e9fde9675d8d908e,2021-07-30_00h10.16.103,Simcolourproject_2stim_asymm_v5,2020.2.10,MacIntel,60,61025ae37ef11b136ea224fe,,,,,,,,,2951,-89,-43,1,0,0,response5disk,,2,-14,2,1,0,0,rectangle,-14,2,1,0,0,-14,2,1,0,0,0,135,135,99,1,,,,,,,,
,,,,,,,,,,,,,FF,,,,,,,,1.582,,,,,,,,,,,,,,,,,,,,,,60fd0d8d6d2e25846daa2ef3,610376c2e9fde9675d8d908e,2021-07-30_00h10.16.103,Simcolourproject_2stim_asymm_v5,2020.2.10,MacIntel,60,61025ae37ef11b136ea224fe,,,,,,,,,4050,-50,-29,1,0,0,response5disk,,2,-16,-7,1,0,0,rectangle,87,41,1,0,0,7,8,1,0,0,0,136,136,43,1,,response1disk_3,TRUE,6,6,"[73,254,35,269,14,243,148,145,179,132,137,321,38,17,55,168,99,45,62,245]",1.954,rectangle
,,,,,,,,,,,,,FF,,,,,,,,3.016,,,,,,,,,,,,,,,,,,,,,,60fd0d8d6d2e25846daa2ef3,610376c2e9fde9675d8d908e,2021-07-30_00h10.16.103,Simcolourproject_2stim_asymm_v5,2020.2.10,MacIntel,60,61025ae37ef11b136ea224fe,,,,,,,,,1391,55,-48,1,0,0,response3disk,,5,3,-4,1,0,0,rectangle,3,-4,1,0,0,3,-4,1,0,0,0,137,137,62,1,,,,,,,,
,,,,,,,,,,,,,FF,,,,,,,,0.821,,,,,,,,,,,,,,,,,,,,,,60fd0d8d6d2e25846daa2ef3,610376c2e9fde9675d8d908e,2021-07-30_00h10.16.103,Simcolourproject_2stim_asymm_v5,2020.2.10,MacIntel,60,61025ae37ef11b136ea224fe,,,,,,,,,3511,-62,29,1,0,0,response7disk,,1,6,-2,1,0,0,rectangle,6,-2,1,0,0,6,-2,1,0,0,0,138,138,136,1,,,,,,,,
,,,,,,,,,,,,,FF,,,,,,,,6.056,,,,,,,,,,,,,,,,,,,,,,60fd0d8d6d2e25846daa2ef3,610376c2e9fde9675d8d908e,2021-07-30_00h10.16.103,Simcolourproject_2stim_asymm_v5,2020.2.10,MacIntel,60,61025ae37ef11b136ea224fe,,,,,,,,,1542,-85,-34,1,0,0,response5disk,,2,-7,-5,1,0,0,rectangle,-7,-5,1,0,0,-7,-5,1,0,0,0,139,139,66,1,,,,,,,,
,,,,,,,,,,,,,FF,,,,,,,,1,,,,,,,,,,,,,,,,,,,,,,60fd0d8d6d2e25846daa2ef3,610376c2e9fde9675d8d908e,2021-07-30_00h10.16.103,Simcolourproject_2stim_asymm_v5,2020.2.10,MacIntel,60,61025ae37ef11b136ea224fe,,,,,,,,,2879,-78,-39,1,0,0,response5disk,,2,-17,-14,1,0,0,rectangle,-17,-14,1,0,0,-17,-14,1,0,0,0,140,140,91,1,,,,,,,,
,,,,,,,,,,,,,FF,,,,,,,,1.37,,,,,,,,,,,,,,,,,,,,,,60fd0d8d6d2e25846daa2ef3,610376c2e9fde9675d8d908e,2021-07-30_00h10.16.103,Simcolourproject_2stim_asymm_v5,2020.2.10,MacIntel,60,61025ae37ef11b136ea224fe,,,,,,,,,797,-32,-77,1,0,0,response5disk,,3,-11,-3,1,0,0,rectangle,-11,-3,1,0,0,-11,-3,1,0,0,0,141,141,135,1,,,,,,,,
,,,,,,,,,,,,,FF,,,,,,,,0.889,,,,,,,,,,,,,,,,,,,,,,60fd0d8d6d2e25846daa2ef3,610376c2e9fde9675d8d908e,2021-07-30_00h10.16.103,Simcolourproject_2stim_asymm_v5,2020.2.10,MacIntel,60,61025ae37ef11b136ea224fe,,,,,,,,,1717,33,-48,1,0,0,response3disk,,4,11,11,1,0,0,rectangle,11,11,1,0,0,11,11,1,0,0,0,142,142,157,1,,,,,,,,
,,,,,,,,,,,,,FF,,,,,,,,1.221,,,,,,,,,,,,,,,,,,,,,,60fd0d8d6d2e25846daa2ef3,610376c2e9fde9675d8d908e,2021-07-30_00h10.16.103,Simcolourproject_2stim_asymm_v5,2020.2.10,MacIntel,60,61025ae37ef11b136ea224fe,,,,,,,,,4174,61,32,1,0,0,response1disk,,6,-23,5,1,0,0,rectangle,-23,5,1,0,0,-23,5,1,0,0,0,143,143,115,1,,,,,,,,
,,,,,,,,,,,,,FF,,,,,,,,0.968,,,,,,,,,,,,,,,,,,,,,,60fd0d8d6d2e25846daa2ef3,610376c2e9fde9675d8d908e,2021-07-30_00h10.16.103,Simcolourproject_2stim_asymm_v5,2020.2.10,MacIntel,60,61025ae37ef11b136ea224fe,,,,,,,,,2880,-90,-33,1,0,0,response5disk,,2,-2,1,1,0,0,rectangle,90,30,1,0,0,14,3,1,0,0,0,144,144,53,1,,response1disk_3,TRUE,6,6,"[73,254,35,269,14,243,148,145,179,132,137,321,38,17,55,168,99,45,62,245]",1.669,rectangle
,,,,,,,,,,,,,FF,,,,,,,,3.085,,,,,,,,,,,,,,,,,,,,,,60fd0d8d6d2e25846daa2ef3,610376c2e9fde9675d8d908e,2021-07-30_00h10.16.103,Simcolourproject_2stim_asymm_v5,2020.2.10,MacIntel,60,61025ae37ef11b136ea224fe,,,,,,,,,4090,-32,-85,1,0,0,response5disk,,3,-7,-10,1,0,0,rectangle,-7,-10,1,0,0,-7,-10,1,0,0,0,145,145,156,1,,,,,,,,
,,,,,,,,,,,,,FF,,,,,,,,1.921,,,,,,,,,,,,,,,,,,,,,,60fd0d8d6d2e25846daa2ef3,610376c2e9fde9675d8d908e,2021-07-30_00h10.16.103,Simcolourproject_2stim_asymm_v5,2020.2.10,MacIntel,60,61025ae37ef11b136ea224fe,,,,,,,,,863,84,40,1,0,0,response1disk,,6,4,0,1,0,0,rectangle,4,0,1,0,0,4,0,1,0,0,0,146,146,113,1,,,,,,,,
,,,,,,,,,,,,,FF,,,,,,,,2.744,,,,,,,,,,,,,,,,,,,,,,60fd0d8d6d2e25846daa2ef3,610376c2e9fde9675d8d908e,2021-07-30_00h10.16.103,Simcolourproject_2stim_asymm_v5,2020.2.10,MacIntel,60,61025ae37ef11b136ea224fe,,,,,,,,,1722,69,44,1,0,0,response1disk,,6,-24,4,1,0,0,rectangle,-45,-81,1,0,0,6,-7,1,0,0,0,147,147,78,1,,response5disk_3,TRUE,3,3,"[73,254,35,269,14,243,148,145,179,132,137,321,38,17,55,168,99,45,62,245]",14.62,rectangle
,,,,,,,,,,,,,FF,,,,,,,,1.538,,,,,,,,,,,,,,,,,,,,,,60fd0d8d6d2e25846daa2ef3,610376c2e9fde9675d8d908e,2021-07-30_00h10.16.103,Simcolourproject_2stim_asymm_v5,2020.2.10,MacIntel,60,61025ae37ef11b136ea224fe,,,,,,,,,1062,-39,-67,1,0,0,response5disk,,3,-13,9,1,0,0,rectangle,-13,9,1,0,0,-13,9,1,0,0,0,148,148,56,1,,,,,,,,
,,,,,,,,,,,,,FF,,,,,,,,5.57,,,,,,,,,,,,,,,,,,,,,,60fd0d8d6d2e25846daa2ef3,610376c2e9fde9675d8d908e,2021-07-30_00h10.16.103,Simcolourproject_2stim_asymm_v5,2020.2.10,MacIntel,60,61025ae37ef11b136ea224fe,,,,,,,,,3484,43,-81,1,0,0,response3disk,,4,6,8,1,0,0,rectangle,6,8,1,0,0,6,8,1,0,0,0,149,149,73,1,,,,,,,,
,,,,,,,,,,,,,FF,,,,,,,,3.574,,,,,,,,,,,,,,,,,,,,,,60fd0d8d6d2e25846daa2ef3,610376c2e9fde9675d8d908e,2021-07-30_00h10.16.103,Simcolourproject_2stim_asymm_v5,2020.2.10,MacIntel,60,61025ae37ef11b136ea224fe,,,,,,,,,755,73,21,1,0,0,response1disk,,6,-7,2,1,0,0,rectangle,-7,2,1,0,0,-7,2,1,0,0,0,150,150,17,1,,,,,,,,
,,,,,,,,,,,,,FF,,,,,,,,0.836,,,,,,,,,,,,,,,,,,,,,,60fd0d8d6d2e25846daa2ef3,610376c2e9fde9675d8d908e,2021-07-30_00h10.16.103,Simcolourproject_2stim_asymm_v5,2020.2.10,MacIntel,60,61025ae37ef11b136ea224fe,,,,,,,,,8,-66,-24,1,0,0,response5disk,,2,-33,-7,1,0,0,rectangle,-33,-7,1,0,0,-33,-7,1,0,0,0,151,151,28,1,,,,,,,,
,,,,,,,,,,,,,FF,,,,,,,,0.955,,,,,,,,,,,,,,,,,,,,,,60fd0d8d6d2e25846daa2ef3,610376c2e9fde9675d8d908e,2021-07-30_00h10.16.103,Simcolourproject_2stim_asymm_v5,2020.2.10,MacIntel,60,61025ae37ef11b136ea224fe,,,,,,,,,2090,-82,-36,1,0,0,response5disk,,2,-9,1,1,0,0,rectangle,-9,1,1,0,0,-9,1,1,0,0,0,152,152,119,1,,,,,,,,
,,,,,,,,,,,,,FF,,,,,,,,9.631,,,,,,,,,,,,,,,,,,,,,,60fd0d8d6d2e25846daa2ef3,610376c2e9fde9675d8d908e,2021-07-30_00h10.16.103,Simcolourproject_2stim_asymm_v5,2020.2.10,MacIntel,60,61025ae37ef11b136ea224fe,,,,,,,,,1834,-54,-90,1,0,0,response5disk,,3,-5,4,1,0,0,rectangle,-5,4,1,0,0,-5,4,1,0,0,0,153,153,14,1,,,,,,,,
,,,,,,,,,,,,,FF,,,,,,,,0.963,,,,,,,,,,,,,,,,,,,,,,60fd0d8d6d2e25846daa2ef3,610376c2e9fde9675d8d908e,2021-07-30_00h10.16.103,Simcolourproject_2stim_asymm_v5,2020.2.10,MacIntel,60,61025ae37ef11b136ea224fe,,,,,,,,,935,58,-31,1,0,0,response3disk,,5,0,-3,1,0,0,rectangle,0,-3,1,0,0,0,-3,1,0,0,0,154,154,110,1,,,,,,,,
,,,,,,,,,,,,,FF,,,,,,,,1.471,,,,,,,,,,,,,,,,,,,,,,60fd0d8d6d2e25846daa2ef3,610376c2e9fde9675d8d908e,2021-07-30_00h10.16.103,Simcolourproject_2stim_asymm_v5,2020.2.10,MacIntel,60,61025ae37ef11b136ea224fe,,,,,,,,,1049,43,-26,1,0,0,response3disk,,5,-5,-13,1,0,0,rectangle,-5,-13,1,0,0,-5,-13,1,0,0,0,155,155,111,1,,,,,,,,
,,,,,,,,,,,,,FF,,,,,,,,1.031,,,,,,,,,,,,,,,,,,,,,,60fd0d8d6d2e25846daa2ef3,610376c2e9fde9675d8d908e,2021-07-30_00h10.16.103,Simcolourproject_2stim_asymm_v5,2020.2.10,MacIntel,60,61025ae37ef11b136ea224fe,,,,,,,,,1099,100,50,1,0,0,response1disk,,6,27,6,1,0,0,rectangle,27,6,1,0,0,27,6,1,0,0,0,156,156,92,1,,,,,,,,
,,,,,,,,,,,,,FF,,,,,,,,1.487,,,,,,,,,,,,,,,,,,,,,,60fd0d8d6d2e25846daa2ef3,610376c2e9fde9675d8d908e,2021-07-30_00h10.16.103,Simcolourproject_2stim_asymm_v5,2020.2.10,MacIntel,60,61025ae37ef11b136ea224fe,,,,,,,,,540,78,35,1,0,0,response1disk,,6,8,12,1,0,0,rectangle,8,12,1,0,0,8,12,1,0,0,0,157,157,5,1,,,,,,,,
,,,,,,,,,,,,,FF,,,,,,,,1.009,,,,,,,,,,,,,,,,,,,,,,60fd0d8d6d2e25846daa2ef3,610376c2e9fde9675d8d908e,2021-07-30_00h10.16.103,Simcolourproject_2stim_asymm_v5,2020.2.10,MacIntel,60,61025ae37ef11b136ea224fe,,,,,,,,,3988,28,-66,1,0,0,response3disk,,4,2,-1,1,0,0,rectangle,2,-1,1,0,0,2,-1,1,0,0,0,158,158,127,1,,,,,,,,
,,,,,,,,,,,,,FF,,,,,,,,1.154,,,,,,,,,,,,,,,,,,,,,,60fd0d8d6d2e25846daa2ef3,610376c2e9fde9675d8d908e,2021-07-30_00h10.16.103,Simcolourproject_2stim_asymm_v5,2020.2.10,MacIntel,60,61025ae37ef11b136ea224fe,,,,,,,,,2482,-99,-45,1,0,0,response5disk,,2,-7,1,1,0,0,rectangle,-7,1,1,0,0,-7,1,1,0,0,0,159,159,15,1,,,,,,,,
,,,,,,,,,,,,,FF,,,,,,,,0.942,,,,,,,,,,,,,,,,,,,,,,60fd0d8d6d2e25846daa2ef3,610376c2e9fde9675d8d908e,2021-07-30_00h10.16.103,Simcolourproject_2stim_asymm_v5,2020.2.10,MacIntel,60,61025ae37ef11b136ea224fe,,,,,,,,,4126,-67,-26,1,0,0,response5disk,,2,-17,-4,1,0,0,rectangle,-17,-4,1,0,0,-17,-4,1,0,0,1,0,160,25,1,,,,,,,,
,,,,,,,,,,,,,FF,,,,,,,,1.124,,,,,,,,,,,,,,,,,,,,,,60fd0d8d6d2e25846daa2ef3,610376c2e9fde9675d8d908e,2021-07-30_00h10.16.103,Simcolourproject_2stim_asymm_v5,2020.2.10,MacIntel,60,61025ae37ef11b136ea224fe,,,,,,,,,1132,-68,-18,1,0,0,response5disk,,2,-12,10,1,0,0,rectangle,-12,10,1,0,0,-12,10,1,0,0,1,1,161,4,1,,,,,,,,
,,,,,,,,,,,,,FF,,,,,,,,0.917,,,,,,,,,,,,,,,,,,,,,,60fd0d8d6d2e25846daa2ef3,610376c2e9fde9675d8d908e,2021-07-30_00h10.16.103,Simcolourproject_2stim_asymm_v5,2020.2.10,MacIntel,60,61025ae37ef11b136ea224fe,,,,,,,,,2317,79,-39,1,0,0,response3disk,,5,5,8,1,0,0,rectangle,5,8,1,0,0,5,8,1,0,0,1,2,162,150,1,,,,,,,,
,,,,,,,,,,,,,FF,,,,,,,,1.246,,,,,,,,,,,,,,,,,,,,,,60fd0d8d6d2e25846daa2ef3,610376c2e9fde9675d8d908e,2021-07-30_00h10.16.103,Simcolourproject_2stim_asymm_v5,2020.2.10,MacIntel,60,61025ae37ef11b136ea224fe,,,,,,,,,4241,-53,-65,1,0,0,response5disk,,3,-14,-5,1,0,0,rectangle,-14,-5,1,0,0,-14,-5,1,0,0,1,3,163,88,1,,,,,,,,
,,,,,,,,,,,,,FF,,,,,,,,2.974,,,,,,,,,,,,,,,,,,,,,,60fd0d8d6d2e25846daa2ef3,610376c2e9fde9675d8d908e,2021-07-30_00h10.16.103,Simcolourproject_2stim_asymm_v5,2020.2.10,MacIntel,60,61025ae37ef11b136ea224fe,,,,,,,,,1437,24,-52,1,0,0,response3disk,,4,6,-7,1,0,0,rectangle,6,-7,1,0,0,6,-7,1,0,0,1,4,164,79,1,,,,,,,,
,,,,,,,,,,,,,FF,,,,,,,,2.025,,,,,,,,,,,,,,,,,,,,,,60fd0d8d6d2e25846daa2ef3,610376c2e9fde9675d8d908e,2021-07-30_00h10.16.103,Simcolourproject_2stim_asymm_v5,2020.2.10,MacIntel,60,61025ae37ef11b136ea224fe,,,,,,,,,2540,62,-28,1,0,0,response3disk,,5,16,-8,1,0,0,rectangle,16,-8,1,0,0,16,-8,1,0,0,1,5,165,115,1,,,,,,,,
,,,,,,,,,,,,,FF,,,,,,,,1.724,,,,,,,,,,,,,,,,,,,,,,60fd0d8d6d2e25846daa2ef3,610376c2e9fde9675d8d908e,2021-07-30_00h10.16.103,Simcolourproject_2stim_asymm_v5,2020.2.10,MacIntel,60,61025ae37ef11b136ea224fe,,,,,,,,,1100,89,28,1,0,0,response1disk,,6,14,12,1,0,0,rectangle,14,12,1,0,0,14,12,1,0,0,1,6,166,49,1,,,,,,,,
,,,,,,,,,,,,,FF,,,,,,,,1.456,,,,,,,,,,,,,,,,,,,,,,60fd0d8d6d2e25846daa2ef3,610376c2e9fde9675d8d908e,2021-07-30_00h10.16.103,Simcolourproject_2stim_asymm_v5,2020.2.10,MacIntel,60,61025ae37ef11b136ea224fe,,,,,,,,,3635,-62,-45,1,0,0,response5disk,,2,-25,-14,1,0,0,rectangle,-37,-65,1,0,0,-17,-3,1,0,0,1,7,167,54,1,,response5disk_3,TRUE,3,3,"[73,254,35,269,14,243,148,145,179,132,137,321,38,17,55,168,99,45,62,245]",2.526,rectangle
,,,,,,,,,,,,,FF,,,,,,,,1.402,,,,,,,,,,,,,,,,,,,,,,60fd0d8d6d2e25846daa2ef3,610376c2e9fde9675d8d908e,2021-07-30_00h10.16.103,Simcolourproject_2stim_asymm_v5,2020.2.10,MacIntel,60,61025ae37ef11b136ea224fe,,,,,,,,,2914,40,-61,1,0,0,response3disk,,4,15,-4,1,0,0,rectangle,15,-4,1,0,0,15,-4,1,0,0,1,8,168,102,1,,,,,,,,
,,,,,,,,,,,,,FF,,,,,,,,0.926,,,,,,,,,,,,,,,,,,,,,,60fd0d8d6d2e25846daa2ef3,610376c2e9fde9675d8d908e,2021-07-30_00h10.16.103,Simcolourproject_2stim_asymm_v5,2020.2.10,MacIntel,60,61025ae37ef11b136ea224fe,,,,,,,,,4248,-75,-55,1,0,0,response5disk,,2,-7,-5,1,0,0,rectangle,-7,-5,1,0,0,-7,-5,1,0,0,1,9,169,68,1,,,,,,,,
,,,,,,,,,,,,,FF,,,,,,,,0.811,,,,,,,,,,,,,,,,,,,,,,60fd0d8d6d2e25846daa2ef3,610376c2e9fde9675d8d908e,2021-07-30_00h10.16.103,Simcolourproject_2stim_asymm_v5,2020.2.10,MacIntel,60,61025ae37ef11b136ea224fe,,,,,,,,,4278,-78,-44,1,0,0,response5disk,,2,-10,-11,1,0,0,rectangle,-10,-11,1,0,0,-10,-11,1,0,0,1,10,170,130,1,,,,,,,,
,,,,,,,,,,,,,FF,,,,,,,,1.163,,,,,,,,,,,,,,,,,,,,,,60fd0d8d6d2e25846daa2ef3,610376c2e9fde9675d8d908e,2021-07-30_00h10.16.103,Simcolourproject_2stim_asymm_v5,2020.2.10,MacIntel,60,61025ae37ef11b136ea224fe,,,,,,,,,719,-68,45,1,0,0,response7disk,,1,2,10,1,0,0,rectangle,2,10,1,0,0,2,10,1,0,0,1,11,171,117,1,,,,,,,,
,,,,,,,,,,,,,FF,,,,,,,,0.922,,,,,,,,,,,,,,,,,,,,,,60fd0d8d6d2e25846daa2ef3,610376c2e9fde9675d8d908e,2021-07-30_00h10.16.103,Simcolourproject_2stim_asymm_v5,2020.2.10,MacIntel,60,61025ae37ef11b136ea224fe,,,,,,,,,1871,31,-53,1,0,0,response3disk,,4,24,4,1,0,0,rectangle,24,4,1,0,0,24,4,1,0,0,1,12,172,18,1,,,,,,,,
,,,,,,,,,,,,,FF,,,,,,,,1.805,,,,,,,,,,,,,,,,,,,,,,60fd0d8d6d2e25846daa2ef3,610376c2e9fde9675d8d908e,2021-07-30_00h10.16.103,Simcolourproject_2stim_asymm_v5,2020.2.10,MacIntel,60,61025ae37ef11b136ea224fe,,,,,,,,,2683,45,-32,1,0,0,response3disk,,5,14,-6,1,0,0,rectangle,14,-6,1,0,0,14,-6,1,0,0,1,13,173,57,1,,,,,,,,
,,,,,,,,,,,,,FF,,,,,,,,1.139,,,,,,,,,,,,,,,,,,,,,,60fd0d8d6d2e25846daa2ef3,610376c2e9fde9675d8d908e,2021-07-30_00h10.16.103,Simcolourproject_2stim_asymm_v5,2020.2.10,MacIntel,60,61025ae37ef11b136ea224fe,,,,,,,,,2270,-27,-75,1,0,0,response5disk,,3,-6,-14,1,0,0,rectangle,-6,-14,1,0,0,-6,-14,1,0,0,1,14,174,9,1,,,,,,,,
,,,,,,,,,,,,,FF,,,,,,,,0.927,,,,,,,,,,,,,,,,,,,,,,60fd0d8d6d2e25846daa2ef3,610376c2e9fde9675d8d908e,2021-07-30_00h10.16.103,Simcolourproject_2stim_asymm_v5,2020.2.10,MacIntel,60,61025ae37ef11b136ea224fe,,,,,,,,,2495,-41,-63,1,0,0,response5disk,,3,7,4,1,0,0,rectangle,7,4,1,0,0,7,4,1,0,0,1,15,175,27,1,,,,,,,,
,,,,,,,,,,,,,FF,,,,,,,,2.477,,,,,,,,,,,,,,,,,,,,,,60fd0d8d6d2e25846daa2ef3,610376c2e9fde9675d8d908e,2021-07-30_00h10.16.103,Simcolourproject_2stim_asymm_v5,2020.2.10,MacIntel,60,61025ae37ef11b136ea224fe,,,,,,,,,3578,77,24,1,0,0,response1disk,,6,7,-4,1,0,0,rectangle,7,-4,1,0,0,7,-4,1,0,0,1,16,176,47,1,,,,,,,,
,,,,,,,,,,,,,FF,,,,,,,,1.498,,,,,,,,,,,,,,,,,,,,,,60fd0d8d6d2e25846daa2ef3,610376c2e9fde9675d8d908e,2021-07-30_00h10.16.103,Simcolourproject_2stim_asymm_v5,2020.2.10,MacIntel,60,61025ae37ef11b136ea224fe,,,,,,,,,3050,-88,-34,1,0,0,response5disk,,2,-3,4,1,0,0,rectangle,-3,4,1,0,0,-3,4,1,0,0,1,17,177,153,1,,,,,,,,
,,,,,,,,,,,,,FF,,,,,,,,4.298,,,,,,,,,,,,,,,,,,,,,,60fd0d8d6d2e25846daa2ef3,610376c2e9fde9675d8d908e,2021-07-30_00h10.16.103,Simcolourproject_2stim_asymm_v5,2020.2.10,MacIntel,60,61025ae37ef11b136ea224fe,,,,,,,,,2920,53,-22,1,0,0,response3disk,,5,18,-18,1,0,0,rectangle,69,-52,1,0,0,11,0,1,0,0,1,18,178,147,1,,response3disk_3,TRUE,5,5,"[73,254,35,269,14,243,148,145,179,132,137,321,38,17,55,168,99,45,62,245]",2.245,rectangle
,,,,,,,,,,,,,FF,,,,,,,,8.117,,,,,,,,,,,,,,,,,,,,,,60fd0d8d6d2e25846daa2ef3,610376c2e9fde9675d8d908e,2021-07-30_00h10.16.103,Simcolourproject_2stim_asymm_v5,2020.2.10,MacIntel,60,61025ae37ef11b136ea224fe,,,,,,,,,2185,-98,-20,1,0,0,response5disk,,2,-17,2,1,0,0,rectangle,-17,2,1,0,0,-17,2,1,0,0,1,19,179,136,1,,,,,,,,
,,,,,,,,,,,,,FF,,,,,,,,4.169,,,,,,,,,,,,,,,,,,,,,,60fd0d8d6d2e25846daa2ef3,610376c2e9fde9675d8d908e,2021-07-30_00h10.16.103,Simcolourproject_2stim_asymm_v5,2020.2.10,MacIntel,60,61025ae37ef11b136ea224fe,,,,,,,,,3399,-55,-19,1,0,0,response5disk,,2,-15,-14,1,0,0,rectangle,-15,-14,1,0,0,-15,-14,1,0,0,1,20,180,135,1,,,,,,,,
,,,,,,,,,,,,,FF,,,,,,,,1.44,,,,,,,,,,,,,,,,,,,,,,60fd0d8d6d2e25846daa2ef3,610376c2e9fde9675d8d908e,2021-07-30_00h10.16.103,Simcolourproject_2stim_asymm_v5,2020.2.10,MacIntel,60,61025ae37ef11b136ea224fe,,,,,,,,,3721,-45,-74,1,0,0,response5disk,,3,-14,-5,1,0,0,rectangle,-14,-5,1,0,0,-14,-5,1,0,0,1,21,181,114,1,,,,,,,,
,,,,,,,,,,,,,FF,,,,,,,,7.986,,,,,,,,,,,,,,,,,,,,,,60fd0d8d6d2e25846daa2ef3,610376c2e9fde9675d8d908e,2021-07-30_00h10.16.103,Simcolourproject_2stim_asymm_v5,2020.2.10,MacIntel,60,61025ae37ef11b136ea224fe,,,,,,,,,122,-44,-96,1,0,0,response5disk,,3,-11,-14,1,0,0,rectangle,-11,-14,1,0,0,-11,-14,1,0,0,1,22,182,32,1,,,,,,,,
,,,,,,,,,,,,,FF,,,,,,,,4.058,,,,,,,,,,,,,,,,,,,,,,60fd0d8d6d2e25846daa2ef3,610376c2e9fde9675d8d908e,2021-07-30_00h10.16.103,Simcolourproject_2stim_asymm_v5,2020.2.10,MacIntel,60,61025ae37ef11b136ea224fe,,,,,,,,,3854,-40,-70,1,0,0,response5disk,,3,-21,0,1,0,0,rectangle,-21,0,1,0,0,-21,0,1,0,0,1,23,183,155,1,,,,,,,,
,,,,,,,,,,,,,FF,,,,,,,,1.096,,,,,,,,,,,,,,,,,,,,,,60fd0d8d6d2e25846daa2ef3,610376c2e9fde9675d8d908e,2021-07-30_00h10.16.103,Simcolourproject_2stim_asymm_v5,2020.2.10,MacIntel,60,61025ae37ef11b136ea224fe,,,,,,,,,2183,90,-42,1,0,0,response3disk,,5,20,-14,1,0,0,rectangle,20,-14,1,0,0,20,-14,1,0,0,1,24,184,11,1,,,,,,,,
,,,,,,,,,,,,,FF,,,,,,,,0.734,,,,,,,,,,,,,,,,,,,,,,60fd0d8d6d2e25846daa2ef3,610376c2e9fde9675d8d908e,2021-07-30_00h10.16.103,Simcolourproject_2stim_asymm_v5,2020.2.10,MacIntel,60,61025ae37ef11b136ea224fe,,,,,,,,,3847,-89,-38,1,0,0,response5disk,,2,12,0,1,0,0,rectangle,12,0,1,0,0,12,0,1,0,0,1,25,185,108,1,,,,,,,,
,,,,,,,,,,,,,FF,,,,,,,,0.989,,,,,,,,,,,,,,,,,,,,,,60fd0d8d6d2e25846daa2ef3,610376c2e9fde9675d8d908e,2021-07-30_00h10.16.103,Simcolourproject_2stim_asymm_v5,2020.2.10,MacIntel,60,61025ae37ef11b136ea224fe,,,,,,,,,3470,-50,79,1,0,0,response7disk,,0,-8,4,1,0,0,rectangle,-8,4,1,0,0,-8,4,1,0,0,1,26,186,87,1,,,,,,,,
,,,,,,,,,,,,,FF,,,,,,,,2.54,,,,,,,,,,,,,,,,,,,,,,60fd0d8d6d2e25846daa2ef3,610376c2e9fde9675d8d908e,2021-07-30_00h10.16.103,Simcolourproject_2stim_asymm_v5,2020.2.10,MacIntel,60,61025ae37ef11b136ea224fe,,,,,,,,,1245,58,-45,1,0,0,response3disk,,5,-1,-5,1,0,0,rectangle,-1,-5,1,0,0,-1,-5,1,0,0,1,27,187,100,1,,,,,,,,
,,,,,,,,,,,,,FF,,,,,,,,1.333,,,,,,,,,,,,,,,,,,,,,,60fd0d8d6d2e25846daa2ef3,610376c2e9fde9675d8d908e,2021-07-30_00h10.16.103,Simcolourproject_2stim_asymm_v5,2020.2.10,MacIntel,60,61025ae37ef11b136ea224fe,,,,,,,,,2147,58,39,1,0,0,response1disk,,6,4,0,1,0,0,rectangle,4,0,1,0,0,4,0,1,0,0,1,28,188,146,1,,,,,,,,
,,,,,,,,,,,,,FF,,,,,,,,8.256,,,,,,,,,,,,,,,,,,,,,,60fd0d8d6d2e25846daa2ef3,610376c2e9fde9675d8d908e,2021-07-30_00h10.16.103,Simcolourproject_2stim_asymm_v5,2020.2.10,MacIntel,60,61025ae37ef11b136ea224fe,,,,,,,,,1784,53,24,1,0,0,response1disk,,6,4,13,1,0,0,rectangle,4,13,1,0,0,4,13,1,0,0,1,29,189,31,1,,,,,,,,
,,,,,,,,,,,,,FF,,,,,,,,1.018,,,,,,,,,,,,,,,,,,,,,,60fd0d8d6d2e25846daa2ef3,610376c2e9fde9675d8d908e,2021-07-30_00h10.16.103,Simcolourproject_2stim_asymm_v5,2020.2.10,MacIntel,60,61025ae37ef11b136ea224fe,,,,,,,,,2104,-61,-39,1,0,0,response5disk,,2,-10,-16,1,0,0,rectangle,-10,-16,1,0,0,-10,-16,1,0,0,1,30,190,142,1,,,,,,,,
,,,,,,,,,,,,,FF,,,,,,,,1.398,,,,,,,,,,,,,,,,,,,,,,60fd0d8d6d2e25846daa2ef3,610376c2e9fde9675d8d908e,2021-07-30_00h10.16.103,Simcolourproject_2stim_asymm_v5,2020.2.10,MacIntel,60,61025ae37ef11b136ea224fe,,,,,,,,,4364,-63,29,1,0,0,response7disk,,1,-8,2,1,0,0,rectangle,-8,2,1,0,0,-8,2,1,0,0,1,31,191,159,1,,,,,,,,
,,,,,,,,,,,,,FF,,,,,,,,1.684,,,,,,,,,,,,,,,,,,,,,,60fd0d8d6d2e25846daa2ef3,610376c2e9fde9675d8d908e,2021-07-30_00h10.16.103,Simcolourproject_2stim_asymm_v5,2020.2.10,MacIntel,60,61025ae37ef11b136ea224fe,,,,,,,,,206,-78,-54,1,0,0,response5disk,,2,-5,-7,1,0,0,rectangle,-5,-7,1,0,0,-5,-7,1,0,0,1,32,192,149,1,,,,,,,,
,,,,,,,,,,,,,FF,,,,,,,,1.301,,,,,,,,,,,,,,,,,,,,,,60fd0d8d6d2e25846daa2ef3,610376c2e9fde9675d8d908e,2021-07-30_00h10.16.103,Simcolourproject_2stim_asymm_v5,2020.2.10,MacIntel,60,61025ae37ef11b136ea224fe,,,,,,,,,1672,-91,-47,1,0,0,response5disk,,2,-19,3,1,0,0,rectangle,-19,3,1,0,0,-19,3,1,0,0,1,33,193,127,1,,,,,,,,
,,,,,,,,,,,,,FF,,,,,,,,0.67,,,,,,,,,,,,,,,,,,,,,,60fd0d8d6d2e25846daa2ef3,610376c2e9fde9675d8d908e,2021-07-30_00h10.16.103,Simcolourproject_2stim_asymm_v5,2020.2.10,MacIntel,60,61025ae37ef11b136ea224fe,,,,,,,,,1293,-69,31,1,0,0,response7disk,,1,-17,6,1,0,0,rectangle,-17,6,1,0,0,-17,6,1,0,0,1,34,194,59,1,,,,,,,,
,,,,,,,,,,,,,FF,,,,,,,,9.001,,,,,,,,,,,,,,,,,,,,,,60fd0d8d6d2e25846daa2ef3,610376c2e9fde9675d8d908e,2021-07-30_00h10.16.103,Simcolourproject_2stim_asymm_v5,2020.2.10,MacIntel,60,61025ae37ef11b136ea224fe,,,,,,,,,2877,-30,-39,1,0,0,response5disk,,3,-16,1,1,0,0,rectangle,-16,1,1,0,0,-16,1,1,0,0,1,35,195,158,1,,,,,,,,
,,,,,,,,,,,,,FF,,,,,,,,1.004,,,,,,,,,,,,,,,,,,,,,,60fd0d8d6d2e25846daa2ef3,610376c2e9fde9675d8d908e,2021-07-30_00h10.16.103,Simcolourproject_2stim_asymm_v5,2020.2.10,MacIntel,60,61025ae37ef11b136ea224fe,,,,,,,,,979,-61,31,1,0,0,response7disk,,1,-14,5,1,0,0,rectangle,-14,5,1,0,0,-14,5,1,0,0,1,36,196,53,1,,,,,,,,
,,,,,,,,,,,,,FF,,,,,,,,1.308,,,,,,,,,,,,,,,,,,,,,,60fd0d8d6d2e25846daa2ef3,610376c2e9fde9675d8d908e,2021-07-30_00h10.16.103,Simcolourproject_2stim_asymm_v5,2020.2.10,MacIntel,60,61025ae37ef11b136ea224fe,,,,,,,,,3937,-35,53,1,0,0,response7disk,,0,-15,6,1,0,0,rectangle,-15,6,1,0,0,-15,6,1,0,0,1,37,197,34,1,,,,,,,,
,,,,,,,,,,,,,FF,,,,,,,,0.795,,,,,,,,,,,,,,,,,,,,,,60fd0d8d6d2e25846daa2ef3,610376c2e9fde9675d8d908e,2021-07-30_00h10.16.103,Simcolourproject_2stim_asymm_v5,2020.2.10,MacIntel,60,61025ae37ef11b136ea224fe,,,,,,,,,232,-67,-34,1,0,0,response5disk,,2,-25,-13,1,0,0,rectangle,-25,-13,1,0,0,-25,-13,1,0,0,1,38,198,46,1,,,,,,,,
,,,,,,,,,,,,,FF,,,,,,,,0.766,,,,,,,,,,,,,,,,,,,,,,60fd0d8d6d2e25846daa2ef3,610376c2e9fde9675d8d908e,2021-07-30_00h10.16.103,Simcolourproject_2stim_asymm_v5,2020.2.10,MacIntel,60,61025ae37ef11b136ea224fe,,,,,,,,,3507,-72,-29,1,0,0,response5disk,,2,-27,-8,1,0,0,rectangle,-27,-8,1,0,0,-27,-8,1,0,0,1,39,199,30,1,,,,,,,,
,,,,,,,,,,,,,FF,,,,,,,,0.786,,,,,,,,,,,,,,,,,,,,,,60fd0d8d6d2e25846daa2ef3,610376c2e9fde9675d8d908e,2021-07-30_00h10.16.103,Simcolourproject_2stim_asymm_v5,2020.2.10,MacIntel,60,61025ae37ef11b136ea224fe,,,,,,,,,2549,-63,-34,1,0,0,response5disk,,2,1,1,1,0,0,rectangle,1,1,1,0,0,1,1,1,0,0,1,40,200,56,1,,,,,,,,
,,,,,,,,,,,,,FF,,,,,,,,11.084,,,,,,,,,,,,,,,,,,,,,,60fd0d8d6d2e25846daa2ef3,610376c2e9fde9675d8d908e,2021-07-30_00h10.16.103,Simcolourproject_2stim_asymm_v5,2020.2.10,MacIntel,60,61025ae37ef11b136ea224fe,,,,,,,,,4088,-74,-92,1,0,0,response5disk,,3,4,-6,1,0,0,rectangle,4,-6,1,0,0,4,-6,1,0,0,1,41,201,26,1,,,,,,,,
,,,,,,,,,,,,,FF,,,,,,,,0.9,,,,,,,,,,,,,,,,,,,,,,60fd0d8d6d2e25846daa2ef3,610376c2e9fde9675d8d908e,2021-07-30_00h10.16.103,Simcolourproject_2stim_asymm_v5,2020.2.10,MacIntel,60,61025ae37ef11b136ea224fe,,,,,,,,,639,-63,25,1,0,0,response7disk,,1,-8,10,1,0,0,rectangle,-8,10,1,0,0,-8,10,1,0,0,1,42,202,145,1,,,,,,,,
,,,,,,,,,,,,,FF,,,,,,,,0.835,,,,,,,,,,,,,,,,,,,,,,60fd0d8d6d2e25846daa2ef3,610376c2e9fde9675d8d908e,2021-07-30_00h10.16.103,Simcolourproject_2stim_asymm_v5,2020.2.10,MacIntel,60,61025ae37ef11b136ea224fe,,,,,,,,,558,-88,-49,1,0,0,response5disk,,2,-2,-11,1,0,0,rectangle,-2,-11,1,0,0,-2,-11,1,0,0,1,43,203,63,1,,,,,,,,
,,,,,,,,,,,,,FF,,,,,,,,0.901,,,,,,,,,,,,,,,,,,,,,,60fd0d8d6d2e25846daa2ef3,610376c2e9fde9675d8d908e,2021-07-30_00h10.16.103,Simcolourproject_2stim_asymm_v5,2020.2.10,MacIntel,60,61025ae37ef11b136ea224fe,,,,,,,,,2203,43,-68,1,0,0,response3disk,,4,3,-10,1,0,0,rectangle,3,-10,1,0,0,3,-10,1,0,0,1,44,204,81,1,,,,,,,,
,,,,,,,,,,,,,FF,,,,,,,,1.985,,,,,,,,,,,,,,,,,,,,,,60fd0d8d6d2e25846daa2ef3,610376c2e9fde9675d8d908e,2021-07-30_00h10.16.103,Simcolourproject_2stim_asymm_v5,2020.2.10,MacIntel,60,61025ae37ef11b136ea224fe,,,,,,,,,3933,-80,-45,1,0,0,response5disk,,2,-14,4,1,0,0,rectangle,-14,4,1,0,0,-14,4,1,0,0,1,45,205,40,1,,,,,,,,
,,,,,,,,,,,,,FF,,,,,,,,2.004,,,,,,,,,,,,,,,,,,,,,,60fd0d8d6d2e25846daa2ef3,610376c2e9fde9675d8d908e,2021-07-30_00h10.16.103,Simcolourproject_2stim_asymm_v5,2020.2.10,MacIntel,60,61025ae37ef11b136ea224fe,,,,,,,,,1758,-34,-62,1,0,0,response5disk,,3,7,3,1,0,0,rectangle,7,3,1,0,0,7,3,1,0,0,1,46,206,21,1,,,,,,,,
,,,,,,,,,,,,,FF,,,,,,,,7.885,,,,,,,,,,,,,,,,,,,,,,60fd0d8d6d2e25846daa2ef3,610376c2e9fde9675d8d908e,2021-07-30_00h10.16.103,Simcolourproject_2stim_asymm_v5,2020.2.10,MacIntel,60,61025ae37ef11b136ea224fe,,,,,,,,,3081,-28,-58,1,0,0,response5disk,,3,17,6,1,0,0,rectangle,17,6,1,0,0,17,6,1,0,0,1,47,207,151,1,,,,,,,,
,,,,,,,,,,,,,FF,,,,,,,,1.004,,,,,,,,,,,,,,,,,,,,,,60fd0d8d6d2e25846daa2ef3,610376c2e9fde9675d8d908e,2021-07-30_00h10.16.103,Simcolourproject_2stim_asymm_v5,2020.2.10,MacIntel,60,61025ae37ef11b136ea224fe,,,,,,,,,2366,-85,-46,1,0,0,response5disk,,2,-5,-8,1,0,0,rectangle,-5,-8,1,0,0,-5,-8,1,0,0,1,48,208,1,1,,,,,,,,
,,,,,,,,,,,,,FF,,,,,,,,11.452,,,,,,,,,,,,,,,,,,,,,,60fd0d8d6d2e25846daa2ef3,610376c2e9fde9675d8d908e,2021-07-30_00h10.16.103,Simcolourproject_2stim_asymm_v5,2020.2.10,MacIntel,60,61025ae37ef11b136ea224fe,,,,,,,,,1688,-110,-75,1,0,0,response5disk,,2,21,2,1,0,0,rectangle,21,2,1,0,0,21,2,1,0,0,1,49,209,66,1,,,,,,,,
,,,,,,,,,,,,,FF,,,,,,,,0.889,,,,,,,,,,,,,,,,,,,,,,60fd0d8d6d2e25846daa2ef3,610376c2e9fde9675d8d908e,2021-07-30_00h10.16.103,Simcolourproject_2stim_asymm_v5,2020.2.10,MacIntel,60,61025ae37ef11b136ea224fe,,,,,,,,,1897,-89,22,1,0,0,response7disk,,1,-19,5,1,0,0,rectangle,-19,5,1,0,0,-19,5,1,0,0,1,50,210,60,1,,,,,,,,
,,,,,,,,,,,,,FF,,,,,,,,1.692,,,,,,,,,,,,,,,,,,,,,,60fd0d8d6d2e25846daa2ef3,610376c2e9fde9675d8d908e,2021-07-30_00h10.16.103,Simcolourproject_2stim_asymm_v5,2020.2.10,MacIntel,60,61025ae37ef11b136ea224fe,,,,,,,,,1788,76,-48,1,0,0,response3disk,,5,8,-10,1,0,0,rectangle,8,-10,1,0,0,8,-10,1,0,0,1,51,211,95,1,,,,,,,,
,,,,,,,,,,,,,FF,,,,,,,,2.252,,,,,,,,,,,,,,,,,,,,,,60fd0d8d6d2e25846daa2ef3,610376c2e9fde9675d8d908e,2021-07-30_00h10.16.103,Simcolourproject_2stim_asymm_v5,2020.2.10,MacIntel,60,61025ae37ef11b136ea224fe,,,,,,,,,3350,-26,-76,1,0,0,response5disk,,3,2,-7,1,0,0,rectangle,2,-7,1,0,0,2,-7,1,0,0,1,52,212,143,1,,,,,,,,
,,,,,,,,,,,,,FF,,,,,,,,1.271,,,,,,,,,,,,,,,,,,,,,,60fd0d8d6d2e25846daa2ef3,610376c2e9fde9675d8d908e,2021-07-30_00h10.16.103,Simcolourproject_2stim_asymm_v5,2020.2.10,MacIntel,60,61025ae37ef11b136ea224fe,,,,,,,,,2435,85,-37,1,0,0,response3disk,,5,-9,-9,1,0,0,rectangle,-9,-9,1,0,0,-9,-9,1,0,0,1,53,213,84,1,,,,,,,,
,,,,,,,,,,,,,FF,,,,,,,,1.535,,,,,,,,,,,,,,,,,,,,,,60fd0d8d6d2e25846daa2ef3,610376c2e9fde9675d8d908e,2021-07-30_00h10.16.103,Simcolourproject_2stim_asymm_v5,2020.2.10,MacIntel,60,61025ae37ef11b136ea224fe,,,,,,,,,788,54,-63,1,0,0,response3disk,,4,4,-2,1,0,0,rectangle,4,-2,1,0,0,4,-2,1,0,0,1,54,214,138,1,,,,,,,,
,,,,,,,,,,,,,FF,,,,,,,,3.103,,,,,,,,,,,,,,,,,,,,,,60fd0d8d6d2e25846daa2ef3,610376c2e9fde9675d8d908e,2021-07-30_00h10.16.103,Simcolourproject_2stim_asymm_v5,2020.2.10,MacIntel,60,61025ae37ef11b136ea224fe,,,,,,,,,491,118,36,1,0,0,response1disk,,6,28,12,1,0,0,rectangle,28,12,1,0,0,28,12,1,0,0,1,55,215,12,1,,,,,,,,
,,,,,,,,,,,,,FF,,,,,,,,0.887,,,,,,,,,,,,,,,,,,,,,,60fd0d8d6d2e25846daa2ef3,610376c2e9fde9675d8d908e,2021-07-30_00h10.16.103,Simcolourproject_2stim_asymm_v5,2020.2.10,MacIntel,60,61025ae37ef11b136ea224fe,,,,,,,,,2631,67,32,1,0,0,response1disk,,6,0,8,1,0,0,rectangle,0,8,1,0,0,0,8,1,0,0,1,56,216,116,1,,,,,,,,
,,,,,,,,,,,,,FF,,,,,,,,6.901,,,,,,,,,,,,,,,,,,,,,,60fd0d8d6d2e25846daa2ef3,610376c2e9fde9675d8d908e,2021-07-30_00h10.16.103,Simcolourproject_2stim_asymm_v5,2020.2.10,MacIntel,60,61025ae37ef11b136ea224fe,,,,,,,,,1355,75,-49,1,0,0,response3disk,,5,-4,5,1,0,0,rectangle,-4,5,1,0,0,-4,5,1,0,0,1,57,217,131,1,,,,,,,,
,,,,,,,,,,,,,FF,,,,,,,,0.935,,,,,,,,,,,,,,,,,,,,,,60fd0d8d6d2e25846daa2ef3,610376c2e9fde9675d8d908e,2021-07-30_00h10.16.103,Simcolourproject_2stim_asymm_v5,2020.2.10,MacIntel,60,61025ae37ef11b136ea224fe,,,,,,,,,2227,-63,34,1,0,0,response7disk,,1,-20,5,1,0,0,rectangle,-20,5,1,0,0,-20,5,1,0,0,1,58,218,43,1,,,,,,,,
,,,,,,,,,,,,,FF,,,,,,,,1.517,,,,,,,,,,,,,,,,,,,,,,60fd0d8d6d2e25846daa2ef3,610376c2e9fde9675d8d908e,2021-07-30_00h10.16.103,Simcolourproject_2stim_asymm_v5,2020.2.10,MacIntel,60,61025ae37ef11b136ea224fe,,,,,,,,,611,-76,-25,1,0,0,response5disk,,2,-7,-2,1,0,0,rectangle,-7,-2,1,0,0,-7,-2,1,0,0,1,59,219,2,1,,,,,,,,
,,,,,,,,,,,,,FF,,,,,,,,0.836,,,,,,,,,,,,,,,,,,,,,,60fd0d8d6d2e25846daa2ef3,610376c2e9fde9675d8d908e,2021-07-30_00h10.16.103,Simcolourproject_2stim_asymm_v5,2020.2.10,MacIntel,60,61025ae37ef11b136ea224fe,,,,,,,,,3128,73,-37,1,0,0,response3disk,,5,4,4,1,0,0,rectangle,4,4,1,0,0,4,4,1,0,0,1,60,220,52,1,,,,,,,,
,,,,,,,,,,,,,FF,,,,,,,,1.219,,,,,,,,,,,,,,,,,,,,,,60fd0d8d6d2e25846daa2ef3,610376c2e9fde9675d8d908e,2021-07-30_00h10.16.103,Simcolourproject_2stim_asymm_v5,2020.2.10,MacIntel,60,61025ae37ef11b136ea224fe,,,,,,,,,179,53,-25,1,0,0,response3disk,,5,26,-11,1,0,0,rectangle,26,-11,1,0,0,26,-11,1,0,0,1,61,221,90,1,,,,,,,,
,,,,,,,,,,,,,FF,,,,,,,,4.556,,,,,,,,,,,,,,,,,,,,,,60fd0d8d6d2e25846daa2ef3,610376c2e9fde9675d8d908e,2021-07-30_00h10.16.103,Simcolourproject_2stim_asymm_v5,2020.2.10,MacIntel,60,61025ae37ef11b136ea224fe,,,,,,,,,312,90,-49,1,0,0,response3disk,,5,-10,8,1,0,0,rectangle,-10,8,1,0,0,-10,8,1,0,0,1,62,222,121,1,,,,,,,,
,,,,,,,,,,,,,FF,,,,,,,,1.134,,,,,,,,,,,,,,,,,,,,,,60fd0d8d6d2e25846daa2ef3,610376c2e9fde9675d8d908e,2021-07-30_00h10.16.103,Simcolourproject_2stim_asymm_v5,2020.2.10,MacIntel,60,61025ae37ef11b136ea224fe,,,,,,,,,660,-73,-33,1,0,0,response5disk,,2,-34,-4,1,0,0,rectangle,-34,-4,1,0,0,-34,-4,1,0,0,1,63,223,45,1,,,,,,,,
,,,,,,,,,,,,,FF,,,,,,,,5.51,,,,,,,,,,,,,,,,,,,,,,60fd0d8d6d2e25846daa2ef3,610376c2e9fde9675d8d908e,2021-07-30_00h10.16.103,Simcolourproject_2stim_asymm_v5,2020.2.10,MacIntel,60,61025ae37ef11b136ea224fe,,,,,,,,,761,-26,-66,1,0,0,response5disk,,3,3,-1,1,0,0,rectangle,3,-1,1,0,0,3,-1,1,0,0,1,64,224,80,1,,,,,,,,
,,,,,,,,,,,,,FF,,,,,,,,1.473,,,,,,,,,,,,,,,,,,,,,,60fd0d8d6d2e25846daa2ef3,610376c2e9fde9675d8d908e,2021-07-30_00h10.16.103,Simcolourproject_2stim_asymm_v5,2020.2.10,MacIntel,60,61025ae37ef11b136ea224fe,,,,,,,,,193,-97,-39,1,0,0,response5disk,,2,-1,1,1,0,0,rectangle,-1,1,1,0,0,-1,1,1,0,0,1,65,225,124,1,,,,,,,,
,,,,,,,,,,,,,FF,,,,,,,,6.584,,,,,,,,,,,,,,,,,,,,,,60fd0d8d6d2e25846daa2ef3,610376c2e9fde9675d8d908e,2021-07-30_00h10.16.103,Simcolourproject_2stim_asymm_v5,2020.2.10,MacIntel,60,61025ae37ef11b136ea224fe,,,,,,,,,2653,34,-74,1,0,0,response3disk,,4,4,-8,1,0,0,rectangle,4,-8,1,0,0,4,-8,1,0,0,1,66,226,23,1,,,,,,,,
,,,,,,,,,,,,,FF,,,,,,,,1.167,,,,,,,,,,,,,,,,,,,,,,60fd0d8d6d2e25846daa2ef3,610376c2e9fde9675d8d908e,2021-07-30_00h10.16.103,Simcolourproject_2stim_asymm_v5,2020.2.10,MacIntel,60,61025ae37ef11b136ea224fe,,,,,,,,,4333,74,32,1,0,0,response1disk,,6,14,-7,1,0,0,rectangle,14,-7,1,0,0,14,-7,1,0,0,1,67,227,104,1,,,,,,,,
,,,,,,,,,,,,,FF,,,,,,,,0.936,,,,,,,,,,,,,,,,,,,,,,60fd0d8d6d2e25846daa2ef3,610376c2e9fde9675d8d908e,2021-07-30_00h10.16.103,Simcolourproject_2stim_asymm_v5,2020.2.10,MacIntel,60,61025ae37ef11b136ea224fe,,,,,,,,,562,20,-71,1,0,0,response3disk,,4,0,4,1,0,0,rectangle,0,4,1,0,0,0,4,1,0,0,1,68,228,94,1,,,,,,,,
,,,,,,,,,,,,,FF,,,,,,,,2.137,,,,,,,,,,,,,,,,,,,,,,60fd0d8d6d2e25846daa2ef3,610376c2e9fde9675d8d908e,2021-07-30_00h10.16.103,Simcolourproject_2stim_asymm_v5,2020.2.10,MacIntel,60,61025ae37ef11b136ea224fe,,,,,,,,,2555,69,-43,1,0,0,response3disk,,5,-3,-7,1,0,0,rectangle,-3,-7,1,0,0,-3,-7,1,0,0,1,69,229,107,1,,,,,,,,
,,,,,,,,,,,,,FF,,,,,,,,5.051,,,,,,,,,,,,,,,,,,,,,,60fd0d8d6d2e25846daa2ef3,610376c2e9fde9675d8d908e,2021-07-30_00h10.16.103,Simcolourproject_2stim_asymm_v5,2020.2.10,MacIntel,60,61025ae37ef11b136ea224fe,,,,,,,,,3576,61,-37,1,0,0,response3disk,,5,9,-4,1,0,0,rectangle,9,-4,1,0,0,9,-4,1,0,0,1,70,230,14,1,,,,,,,,
,,,,,,,,,,,,,FF,,,,,,,,5.169,,,,,,,,,,,,,,,,,,,,,,60fd0d8d6d2e25846daa2ef3,610376c2e9fde9675d8d908e,2021-07-30_00h10.16.103,Simcolourproject_2stim_asymm_v5,2020.2.10,MacIntel,60,61025ae37ef11b136ea224fe,,,,,,,,,1710,37,-68,1,0,0,response3disk,,4,31,-17,1,0,0,rectangle,31,-17,1,0,0,31,-17,1,0,0,1,71,231,137,1,,,,,,,,
,,,,,,,,,,,,,FF,,,,,,,,1.443,,,,,,,,,,,,,,,,,,,,,,60fd0d8d6d2e25846daa2ef3,610376c2e9fde9675d8d908e,2021-07-30_00h10.16.103,Simcolourproject_2stim_asymm_v5,2020.2.10,MacIntel,60,61025ae37ef11b136ea224fe,,,,,,,,,4261,29,-107,1,0,0,response3disk,,4,13,-13,1,0,0,rectangle,13,-13,1,0,0,13,-13,1,0,0,1,72,232,140,1,,,,,,,,
,,,,,,,,,,,,,FF,,,,,,,,1.201,,,,,,,,,,,,,,,,,,,,,,60fd0d8d6d2e25846daa2ef3,610376c2e9fde9675d8d908e,2021-07-30_00h10.16.103,Simcolourproject_2stim_asymm_v5,2020.2.10,MacIntel,60,61025ae37ef11b136ea224fe,,,,,,,,,2486,-62,-80,1,0,0,response5disk,,3,-5,-7,1,0,0,rectangle,-5,-7,1,0,0,-5,-7,1,0,0,1,73,233,61,1,,,,,,,,
,,,,,,,,,,,,,FF,,,,,,,,1.034,,,,,,,,,,,,,,,,,,,,,,60fd0d8d6d2e25846daa2ef3,610376c2e9fde9675d8d908e,2021-07-30_00h10.16.103,Simcolourproject_2stim_asymm_v5,2020.2.10,MacIntel,60,61025ae37ef11b136ea224fe,,,,,,,,,2281,81,-41,1,0,0,response3disk,,5,9,-2,1,0,0,rectangle,9,-2,1,0,0,9,-2,1,0,0,1,74,234,144,1,,,,,,,,
,,,,,,,,,,,,,FF,,,,,,,,4.038,,,,,,,,,,,,,,,,,,,,,,60fd0d8d6d2e25846daa2ef3,610376c2e9fde9675d8d908e,2021-07-30_00h10.16.103,Simcolourproject_2stim_asymm_v5,2020.2.10,MacIntel,60,61025ae37ef11b136ea224fe,,,,,,,,,34,66,-28,1,0,0,response3disk,,5,27,-9,1,0,0,rectangle,27,-9,1,0,0,27,-9,1,0,0,1,75,235,157,1,,,,,,,,
,,,,,,,,,,,,,FF,,,,,,,,1.938,,,,,,,,,,,,,,,,,,,,,,60fd0d8d6d2e25846daa2ef3,610376c2e9fde9675d8d908e,2021-07-30_00h10.16.103,Simcolourproject_2stim_asymm_v5,2020.2.10,MacIntel,60,61025ae37ef11b136ea224fe,,,,,,,,,792,62,26,1,0,0,response1disk,,6,6,7,1,0,0,rectangle,6,7,1,0,0,6,7,1,0,0,1,76,236,97,1,,,,,,,,
,,,,,,,,,,,,,FF,,,,,,,,1.285,,,,,,,,,,,,,,,,,,,,,,60fd0d8d6d2e25846daa2ef3,610376c2e9fde9675d8d908e,2021-07-30_00h10.16.103,Simcolourproject_2stim_asymm_v5,2020.2.10,MacIntel,60,61025ae37ef11b136ea224fe,,,,,,,,,513,-37,-66,1,0,0,response5disk,,3,-3,-12,1,0,0,rectangle,-3,-12,1,0,0,-3,-12,1,0,0,1,77,237,58,1,,,,,,,,
,,,,,,,,,,,,,FF,,,,,,,,2.72,,,,,,,,,,,,,,,,,,,,,,60fd0d8d6d2e25846daa2ef3,610376c2e9fde9675d8d908e,2021-07-30_00h10.16.103,Simcolourproject_2stim_asymm_v5,2020.2.10,MacIntel,60,61025ae37ef11b136ea224fe,,,,,,,,,3465,-56,-40,1,0,0,response5disk,,2,11,-12,1,0,0,rectangle,11,-12,1,0,0,11,-12,1,0,0,1,78,238,55,1,,,,,,,,
,,,,,,,,,,,,,FF,,,,,,,,0.835,,,,,,,,,,,,,,,,,,,,,,60fd0d8d6d2e25846daa2ef3,610376c2e9fde9675d8d908e,2021-07-30_00h10.16.103,Simcolourproject_2stim_asymm_v5,2020.2.10,MacIntel,60,61025ae37ef11b136ea224fe,,,,,,,,,3976,-53,-26,1,0,0,response5disk,,2,3,2,1,0,0,rectangle,3,2,1,0,0,3,2,1,0,0,1,79,239,75,1,,,,,,,,
,,,,,,,,,,,,,FF,,,,,,,,2.002,,,,,,,,,,,,,,,,,,,,,,60fd0d8d6d2e25846daa2ef3,610376c2e9fde9675d8d908e,2021-07-30_00h10.16.103,Simcolourproject_2stim_asymm_v5,2020.2.10,MacIntel,60,61025ae37ef11b136ea224fe,,,,,,,,,187,-73,-44,1,0,0,response5disk,,2,-2,-9,1,0,0,rectangle,-2,-9,1,0,0,-2,-9,1,0,0,1,80,240,82,1,,,,,,,,
,,,,,,,,,,,,,FF,,,,,,,,1.669,,,,,,,,,,,,,,,,,,,,,,60fd0d8d6d2e25846daa2ef3,610376c2e9fde9675d8d908e,2021-07-30_00h10.16.103,Simcolourproject_2stim_asymm_v5,2020.2.10,MacIntel,60,61025ae37ef11b136ea224fe,,,,,,,,,361,66,-89,1,0,0,response3disk,,4,8,-12,1,0,0,rectangle,8,-12,1,0,0,8,-12,1,0,0,1,81,241,41,1,,,,,,,,
,,,,,,,,,,,,,FF,,,,,,,,1.284,,,,,,,,,,,,,,,,,,,,,,60fd0d8d6d2e25846daa2ef3,610376c2e9fde9675d8d908e,2021-07-30_00h10.16.103,Simcolourproject_2stim_asymm_v5,2020.2.10,MacIntel,60,61025ae37ef11b136ea224fe,,,,,,,,,2642,-76,-31,1,0,0,response5disk,,2,-4,-10,1,0,0,rectangle,51,-82,1,0,0,18,-14,1,0,0,1,82,242,7,1,,response3disk_3,TRUE,4,4,"[73,254,35,269,14,243,148,145,179,132,137,321,38,17,55,168,99,45,62,245]",1.484,rectangle
,,,,,,,,,,,,,FF,,,,,,,,0.869,,,,,,,,,,,,,,,,,,,,,,60fd0d8d6d2e25846daa2ef3,610376c2e9fde9675d8d908e,2021-07-30_00h10.16.103,Simcolourproject_2stim_asymm_v5,2020.2.10,MacIntel,60,61025ae37ef11b136ea224fe,,,,,,,,,63,-79,-36,1,0,0,response5disk,,2,9,5,1,0,0,rectangle,9,5,1,0,0,9,5,1,0,0,1,83,243,5,1,,,,,,,,
,,,,,,,,,,,,,FF,,,,,,,,0.983,,,,,,,,,,,,,,,,,,,,,,60fd0d8d6d2e25846daa2ef3,610376c2e9fde9675d8d908e,2021-07-30_00h10.16.103,Simcolourproject_2stim_asymm_v5,2020.2.10,MacIntel,60,61025ae37ef11b136ea224fe,,,,,,,,,3837,-88,-33,1,0,0,response5disk,,2,-20,3,1,0,0,rectangle,92,45,1,0,0,19,11,1,0,0,1,84,244,36,1,,response1disk_3,TRUE,6,6,"[73,254,35,269,14,243,148,145,179,132,137,321,38,17,55,168,99,45,62,245]",1.538,rectangle
,,,,,,,,,,,,,FF,,,,,,,,1.393,,,,,,,,,,,,,,,,,,,,,,60fd0d8d6d2e25846daa2ef3,610376c2e9fde9675d8d908e,2021-07-30_00h10.16.103,Simcolourproject_2stim_asymm_v5,2020.2.10,MacIntel,60,61025ae37ef11b136ea224fe,,,,,,,,,2456,26,-58,1,0,0,response3disk,,4,9,-11,1,0,0,rectangle,9,-11,1,0,0,9,-11,1,0,0,1,85,245,73,1,,,,,,,,
,,,,,,,,,,,,,FF,,,,,,,,0.924,,,,,,,,,,,,,,,,,,,,,,60fd0d8d6d2e25846daa2ef3,610376c2e9fde9675d8d908e,2021-07-30_00h10.16.103,Simcolourproject_2stim_asymm_v5,2020.2.10,MacIntel,60,61025ae37ef11b136ea224fe,,,,,,,,,2102,-73,31,1,0,0,response7disk,,1,-4,0,1,0,0,rectangle,-4,0,1,0,0,-4,0,1,0,0,1,86,246,118,1,,,,,,,,
,,,,,,,,,,,,,FF,,,,,,,,1.485,,,,,,,,,,,,,,,,,,,,,,60fd0d8d6d2e25846daa2ef3,610376c2e9fde9675d8d908e,2021-07-30_00h10.16.103,Simcolourproject_2stim_asymm_v5,2020.2.10,MacIntel,60,61025ae37ef11b136ea224fe,,,,,,,,,1740,24,-82,1,0,0,response3disk,,4,14,2,1,0,0,rectangle,14,2,1,0,0,14,2,1,0,0,1,87,247,72,1,,,,,,,,
,,,,,,,,,,,,,FF,,,,,,,,4.791,,,,,,,,,,,,,,,,,,,,,,60fd0d8d6d2e25846daa2ef3,610376c2e9fde9675d8d908e,2021-07-30_00h10.16.103,Simcolourproject_2stim_asymm_v5,2020.2.10,MacIntel,60,61025ae37ef11b136ea224fe,,,,,,,,,3071,49,-21,1,0,0,response3disk,,5,9,8,1,0,0,rectangle,9,8,1,0,0,9,8,1,0,0,1,88,248,139,1,,,,,,,,
,,,,,,,,,,,,,FF,,,,,,,,4.051,,,,,,,,,,,,,,,,,,,,,,60fd0d8d6d2e25846daa2ef3,610376c2e9fde9675d8d908e,2021-07-30_00h10.16.103,Simcolourproject_2stim_asymm_v5,2020.2.10,MacIntel,60,61025ae37ef11b136ea224fe,,,,,,,,,2569,29,-57,1,0,0,response3disk,,4,7,0,1,0,0,rectangle,7,0,1,0,0,7,0,1,0,0,1,89,249,134,1,,,,,,,,
,,,,,,,,,,,,,FF,,,,,,,,1.005,,,,,,,,,,,,,,,,,,,,,,60fd0d8d6d2e25846daa2ef3,610376c2e9fde9675d8d908e,2021-07-30_00h10.16.103,Simcolourproject_2stim_asymm_v5,2020.2.10,MacIntel,60,61025ae37ef11b136ea224fe,,,,,,,,,382,-91,-82,1,0,0,response5disk,,2,-14,-9,1,0,0,rectangle,-14,-9,1,0,0,-14,-9,1,0,0,1,90,250,154,1,,,,,,,,
,,,,,,,,,,,,,FF,,,,,,,,1.789,,,,,,,,,,,,,,,,,,,,,,60fd0d8d6d2e25846daa2ef3,610376c2e9fde9675d8d908e,2021-07-30_00h10.16.103,Simcolourproject_2stim_asymm_v5,2020.2.10,MacIntel,60,61025ae37ef11b136ea224fe,,,,,,,,,669,82,27,1,0,0,response1disk,,6,21,-7,1,0,0,rectangle,21,-7,1,0,0,21,-7,1,0,0,1,91,251,3,1,,,,,,,,
,,,,,,,,,,,,,FF,,,,,,,,1.085,,,,,,,,,,,,,,,,,,,,,,60fd0d8d6d2e25846daa2ef3,610376c2e9fde9675d8d908e,2021-07-30_00h10.16.103,Simcolourproject_2stim_asymm_v5,2020.2.10,MacIntel,60,61025ae37ef11b136ea224fe,,,,,,,,,3152,-60,-39,1,0,0,response5disk,,2,-19,-7,1,0,0,rectangle,-19,-7,1,0,0,-19,-7,1,0,0,1,92,252,6,1,,,,,,,,
,,,,,,,,,,,,,FF,,,,,,,,3.352,,,,,,,,,,,,,,,,,,,,,,60fd0d8d6d2e25846daa2ef3,610376c2e9fde9675d8d908e,2021-07-30_00h10.16.103,Simcolourproject_2stim_asymm_v5,2020.2.10,MacIntel,60,61025ae37ef11b136ea224fe,,,,,,,,,1207,-43,-72,1,0,0,response5disk,,3,9,3,1,0,0,rectangle,-25,64,1,0,0,-14,2,1,0,0,1,93,253,37,1,,response7disk_3,TRUE,0,0,"[73,254,35,269,14,243,148,145,179,132,137,321,38,17,55,168,99,45,62,245]",1.484,rectangle
,,,,,,,,,,,,,FF,,,,,,,,1.268,,,,,,,,,,,,,,,,,,,,,,60fd0d8d6d2e25846daa2ef3,610376c2e9fde9675d8d908e,2021-07-30_00h10.16.103,Simcolourproject_2stim_asymm_v5,2020.2.10,MacIntel,60,61025ae37ef11b136ea224fe,,,,,,,,,3471,-63,38,1,0,0,response7disk,,1,9,11,1,0,0,rectangle,9,11,1,0,0,9,11,1,0,0,1,94,254,33,1,,,,,,,,
,,,,,,,,,,,,,FF,,,,,,,,1.151,,,,,,,,,,,,,,,,,,,,,,60fd0d8d6d2e25846daa2ef3,610376c2e9fde9675d8d908e,2021-07-30_00h10.16.103,Simcolourproject_2stim_asymm_v5,2020.2.10,MacIntel,60,61025ae37ef11b136ea224fe,,,,,,,,,626,84,-48,1,0,0,response3disk,,5,-3,-9,1,0,0,rectangle,-3,-9,1,0,0,-3,-9,1,0,0,1,95,255,17,1,,,,,,,,
,,,,,,,,,,,,,FF,,,,,,,,4.184,,,,,,,,,,,,,,,,,,,,,,60fd0d8d6d2e25846daa2ef3,610376c2e9fde9675d8d908e,2021-07-30_00h10.16.103,Simcolourproject_2stim_asymm_v5,2020.2.10,MacIntel,60,61025ae37ef11b136ea224fe,,,,,,,,,4220,-32,-84,1,0,0,response5disk,,3,9,6,1,0,0,rectangle,9,6,1,0,0,9,6,1,0,0,1,96,256,64,1,,,,,,,,
,,,,,,,,,,,,,FF,,,,,,,,0.706,,,,,,,,,,,,,,,,,,,,,,60fd0d8d6d2e25846daa2ef3,610376c2e9fde9675d8d908e,2021-07-30_00h10.16.103,Simcolourproject_2stim_asymm_v5,2020.2.10,MacIntel,60,61025ae37ef11b136ea224fe,,,,,,,,,4368,-33,73,1,0,0,response7disk,,0,-8,11,1,0,0,rectangle,-8,11,1,0,0,-8,11,1,0,0,1,97,257,0,1,,,,,,,,
,,,,,,,,,,,,,FF,,,,,,,,3.254,,,,,,,,,,,,,,,,,,,,,,60fd0d8d6d2e25846daa2ef3,610376c2e9fde9675d8d908e,2021-07-30_00h10.16.103,Simcolourproject_2stim_asymm_v5,2020.2.10,MacIntel,60,61025ae37ef11b136ea224fe,,,,,,,,,2869,38,-86,1,0,0,response3disk,,4,8,-2,1,0,0,rectangle,8,-2,1,0,0,8,-2,1,0,0,1,98,258,106,1,,,,,,,,
,,,,,,,,,,,,,FF,,,,,,,,0.937,,,,,,,,,,,,,,,,,,,,,,60fd0d8d6d2e25846daa2ef3,610376c2e9fde9675d8d908e,2021-07-30_00h10.16.103,Simcolourproject_2stim_asymm_v5,2020.2.10,MacIntel,60,61025ae37ef11b136ea224fe,,,,,,,,,3676,-64,24,1,0,0,response7disk,,1,-10,-2,1,0,0,rectangle,-10,-2,1,0,0,-10,-2,1,0,0,1,99,259,24,1,,,,,,,,
,,,,,,,,,,,,,FF,,,,,,,,1.035,,,,,,,,,,,,,,,,,,,,,,60fd0d8d6d2e25846daa2ef3,610376c2e9fde9675d8d908e,2021-07-30_00h10.16.103,Simcolourproject_2stim_asymm_v5,2020.2.10,MacIntel,60,61025ae37ef11b136ea224fe,,,,,,,,,4302,-43,-68,1,0,0,response5disk,,3,3,2,1,0,0,rectangle,3,2,1,0,0,3,2,1,0,0,1,100,260,42,1,,,,,,,,
,,,,,,,,,,,,,FF,,,,,,,,1.117,,,,,,,,,,,,,,,,,,,,,,60fd0d8d6d2e25846daa2ef3,610376c2e9fde9675d8d908e,2021-07-30_00h10.16.103,Simcolourproject_2stim_asymm_v5,2020.2.10,MacIntel,60,61025ae37ef11b136ea224fe,,,,,,,,,4131,78,50,1,0,0,response1disk,,6,8,10,1,0,0,rectangle,8,10,1,0,0,8,10,1,0,0,1,101,261,156,1,,,,,,,,
,,,,,,,,,,,,,FF,,,,,,,,6.584,,,,,,,,,,,,,,,,,,,,,,60fd0d8d6d2e25846daa2ef3,610376c2e9fde9675d8d908e,2021-07-30_00h10.16.103,Simcolourproject_2stim_asymm_v5,2020.2.10,MacIntel,60,61025ae37ef11b136ea224fe,,,,,,,,,3959,66,49,1,0,0,response1disk,,6,8,-8,1,0,0,rectangle,8,-8,1,0,0,8,-8,1,0,0,1,102,262,101,1,,,,,,,,
,,,,,,,,,,,,,FF,,,,,,,,1.067,,,,,,,,,,,,,,,,,,,,,,60fd0d8d6d2e25846daa2ef3,610376c2e9fde9675d8d908e,2021-07-30_00h10.16.103,Simcolourproject_2stim_asymm_v5,2020.2.10,MacIntel,60,61025ae37ef11b136ea224fe,,,,,,,,,1373,-48,24,1,0,0,response7disk,,1,-2,-5,1,0,0,rectangle,-2,-5,1,0,0,-2,-5,1,0,0,1,103,263,129,1,,,,,,,,
,,,,,,,,,,,,,FF,,,,,,,,8.25,,,,,,,,,,,,,,,,,,,,,,60fd0d8d6d2e25846daa2ef3,610376c2e9fde9675d8d908e,2021-07-30_00h10.16.103,Simcolourproject_2stim_asymm_v5,2020.2.10,MacIntel,60,61025ae37ef11b136ea224fe,,,,,,,,,2272,-45,-105,1,0,0,response5disk,,3,1,-7,1,0,0,rectangle,1,-7,1,0,0,1,-7,1,0,0,1,104,264,71,1,,,,,,,,
,,,,,,,,,,,,,FF,,,,,,,,1.938,,,,,,,,,,,,,,,,,,,,,,60fd0d8d6d2e25846daa2ef3,610376c2e9fde9675d8d908e,2021-07-30_00h10.16.103,Simcolourproject_2stim_asymm_v5,2020.2.10,MacIntel,60,61025ae37ef11b136ea224fe,,,,,,,,,2269,67,-36,1,0,0,response3disk,,5,7,-14,1,0,0,rectangle,7,-14,1,0,0,7,-14,1,0,0,1,105,265,113,1,,,,,,,,
,,,,,,,,,,,,,FF,,,,,,,,3.536,,,,,,,,,,,,,,,,,,,,,,60fd0d8d6d2e25846daa2ef3,610376c2e9fde9675d8d908e,2021-07-30_00h10.16.103,Simcolourproject_2stim_asymm_v5,2020.2.10,MacIntel,60,61025ae37ef11b136ea224fe,,,,,,,,,1158,-41,-67,1,0,0,response5disk,,3,-17,3,1,0,0,rectangle,-17,3,1,0,0,-17,3,1,0,0,1,106,266,119,1,,,,,,,,
,,,,,,,,,,,,,FF,,,,,,,,2.109,,,,,,,,,,,,,,,,,,,,,,60fd0d8d6d2e25846daa2ef3,610376c2e9fde9675d8d908e,2021-07-30_00h10.16.103,Simcolourproject_2stim_asymm_v5,2020.2.10,MacIntel,60,61025ae37ef11b136ea224fe,,,,,,,,,1196,-49,-67,1,0,0,response5disk,,3,-22,-4,1,0,0,rectangle,-22,-4,1,0,0,-22,-4,1,0,0,1,107,267,141,1,,,,,,,,
,,,,,,,,,,,,,FF,,,,,,,,0.767,,,,,,,,,,,,,,,,,,,,,,60fd0d8d6d2e25846daa2ef3,610376c2e9fde9675d8d908e,2021-07-30_00h10.16.103,Simcolourproject_2stim_asymm_v5,2020.2.10,MacIntel,60,61025ae37ef11b136ea224fe,,,,,,,,,4251,-39,63,1,0,0,response7disk,,0,3,-5,1,0,0,rectangle,47,70,1,0,0,28,1,1,0,0,1,108,268,39,1,,response1disk_3,TRUE,7,7,"[73,254,35,269,14,243,148,145,179,132,137,321,38,17,55,168,99,45,62,245]",1.551,rectangle
,,,,,,,,,,,,,FF,,,,,,,,1.23,,,,,,,,,,,,,,,,,,,,,,60fd0d8d6d2e25846daa2ef3,610376c2e9fde9675d8d908e,2021-07-30_00h10.16.103,Simcolourproject_2stim_asymm_v5,2020.2.10,MacIntel,60,61025ae37ef11b136ea224fe,,,,,,,,,1620,21,-62,1,0,0,response3disk,,4,15,-8,1,0,0,rectangle,15,-8,1,0,0,15,-8,1,0,0,1,109,269,93,1,,,,,,,,
,,,,,,,,,,,,,FF,,,,,,,,2.495,,,,,,,,,,,,,,,,,,,,,,60fd0d8d6d2e25846daa2ef3,610376c2e9fde9675d8d908e,2021-07-30_00h10.16.103,Simcolourproject_2stim_asymm_v5,2020.2.10,MacIntel,60,61025ae37ef11b136ea224fe,,,,,,,,,3445,74,25,1,0,0,response1disk,,6,2,-7,1,0,0,rectangle,2,-7,1,0,0,2,-7,1,0,0,1,110,270,126,1,,,,,,,,
,,,,,,,,,,,,,FF,,,,,,,,3.87,,,,,,,,,,,,,,,,,,,,,,60fd0d8d6d2e25846daa2ef3,610376c2e9fde9675d8d908e,2021-07-30_00h10.16.103,Simcolourproject_2stim_asymm_v5,2020.2.10,MacIntel,60,61025ae37ef11b136ea224fe,,,,,,,,,1963,43,-95,1,0,0,response3disk,,4,-3,-4,1,0,0,rectangle,-3,-4,1,0,0,-3,-4,1,0,0,1,111,271,50,1,,,,,,,,
,,,,,,,,,,,,,FF,,,,,,,,1.094,,,,,,,,,,,,,,,,,,,,,,60fd0d8d6d2e25846daa2ef3,610376c2e9fde9675d8d908e,2021-07-30_00h10.16.103,Simcolourproject_2stim_asymm_v5,2020.2.10,MacIntel,60,61025ae37ef11b136ea224fe,,,,,,,,,4068,-47,-88,1,0,0,response5disk,,3,-8,-1,1,0,0,rectangle,-8,-1,1,0,0,-8,-1,1,0,0,1,112,272,110,1,,,,,,,,
,,,,,,,,,,,,,FF,,,,,,,,0.752,,,,,,,,,,,,,,,,,,,,,,60fd0d8d6d2e25846daa2ef3,610376c2e9fde9675d8d908e,2021-07-30_00h10.16.103,Simcolourproject_2stim_asymm_v5,2020.2.10,MacIntel,60,61025ae37ef11b136ea224fe,,,,,,,,,1137,-89,-44,1,0,0,response5disk,,2,-18,-11,1,0,0,rectangle,-18,-11,1,0,0,-18,-11,1,0,0,1,113,273,120,1,,,,,,,,
,,,,,,,,,,,,,FF,,,,,,,,0.752,,,,,,,,,,,,,,,,,,,,,,60fd0d8d6d2e25846daa2ef3,610376c2e9fde9675d8d908e,2021-07-30_00h10.16.103,Simcolourproject_2stim_asymm_v5,2020.2.10,MacIntel,60,61025ae37ef11b136ea224fe,,,,,,,,,547,-95,-33,1,0,0,response5disk,,2,-23,2,1,0,0,rectangle,-23,2,1,0,0,-23,2,1,0,0,1,114,274,112,1,,,,,,,,
,,,,,,,,,,,,,FF,,,,,,,,0.719,,,,,,,,,,,,,,,,,,,,,,60fd0d8d6d2e25846daa2ef3,610376c2e9fde9675d8d908e,2021-07-30_00h10.16.103,Simcolourproject_2stim_asymm_v5,2020.2.10,MacIntel,60,61025ae37ef11b136ea224fe,,,,,,,,,462,-64,-24,1,0,0,response5disk,,2,-14,-9,1,0,0,rectangle,-14,-9,1,0,0,-14,-9,1,0,0,1,115,275,125,1,,,,,,,,
,,,,,,,,,,,,,FF,,,,,,,,0.652,,,,,,,,,,,,,,,,,,,,,,60fd0d8d6d2e25846daa2ef3,610376c2e9fde9675d8d908e,2021-07-30_00h10.16.103,Simcolourproject_2stim_asymm_v5,2020.2.10,MacIntel,60,61025ae37ef11b136ea224fe,,,,,,,,,4305,-39,65,1,0,0,response7disk,,0,-25,-3,1,0,0,rectangle,-25,-3,1,0,0,-25,-3,1,0,0,1,116,276,148,1,,,,,,,,
,,,,,,,,,,,,,FF,,,,,,,,1.698,,,,,,,,,,,,,,,,,,,,,,60fd0d8d6d2e25846daa2ef3,610376c2e9fde9675d8d908e,2021-07-30_00h10.16.103,Simcolourproject_2stim_asymm_v5,2020.2.10,MacIntel,60,61025ae37ef11b136ea224fe,,,,,,,,,1911,-27,-80,1,0,0,response5disk,,3,20,-10,1,0,0,rectangle,20,-10,1,0,0,20,-10,1,0,0,1,117,277,29,1,,,,,,,,
,,,,,,,,,,,,,FF,,,,,,,,0.797,,,,,,,,,,,,,,,,,,,,,,60fd0d8d6d2e25846daa2ef3,610376c2e9fde9675d8d908e,2021-07-30_00h10.16.103,Simcolourproject_2stim_asymm_v5,2020.2.10,MacIntel,60,61025ae37ef11b136ea224fe,,,,,,,,,942,51,-21,1,0,0,response3disk,,5,-6,14,1,0,0,rectangle,-6,14,1,0,0,-6,14,1,0,0,1,118,278,103,1,,,,,,,,
,,,,,,,,,,,,,FF,,,,,,,,1.669,,,,,,,,,,,,,,,,,,,,,,60fd0d8d6d2e25846daa2ef3,610376c2e9fde9675d8d908e,2021-07-30_00h10.16.103,Simcolourproject_2stim_asymm_v5,2020.2.10,MacIntel,60,61025ae37ef11b136ea224fe,,,,,,,,,1552,63,-25,1,0,0,response3disk,,5,16,-17,1,0,0,rectangle,16,-17,1,0,0,16,-17,1,0,0,1,119,279,89,1,,,,,,,,
,,,,,,,,,,,,,FF,,,,,,,,1.8,,,,,,,,,,,,,,,,,,,,,,60fd0d8d6d2e25846daa2ef3,610376c2e9fde9675d8d908e,2021-07-30_00h10.16.103,Simcolourproject_2stim_asymm_v5,2020.2.10,MacIntel,60,61025ae37ef11b136ea224fe,,,,,,,,,2455,78,42,1,0,0,response1disk,,6,-5,-3,1,0,0,rectangle,-5,-3,1,0,0,-5,-3,1,0,0,1,120,280,16,1,,,,,,,,
,,,,,,,,,,,,,FF,,,,,,,,1.187,,,,,,,,,,,,,,,,,,,,,,60fd0d8d6d2e25846daa2ef3,610376c2e9fde9675d8d908e,2021-07-30_00h10.16.103,Simcolourproject_2stim_asymm_v5,2020.2.10,MacIntel,60,61025ae37ef11b136ea224fe,,,,,,,,,2180,18,-75,1,0,0,response3disk,,4,8,-4,1,0,0,rectangle,8,-4,1,0,0,8,-4,1,0,0,1,121,281,10,1,,,,,,,,
,,,,,,,,,,,,,FF,,,,,,,,0.834,,,,,,,,,,,,,,,,,,,,,,60fd0d8d6d2e25846daa2ef3,610376c2e9fde9675d8d908e,2021-07-30_00h10.16.103,Simcolourproject_2stim_asymm_v5,2020.2.10,MacIntel,60,61025ae37ef11b136ea224fe,,,,,,,,,3200,-76,-43,1,0,0,response5disk,,2,-14,-8,1,0,0,rectangle,-14,-8,1,0,0,-14,-8,1,0,0,1,122,282,13,1,,,,,,,,
,,,,,,,,,,,,,FF,,,,,,,,2.068,,,,,,,,,,,,,,,,,,,,,,60fd0d8d6d2e25846daa2ef3,610376c2e9fde9675d8d908e,2021-07-30_00h10.16.103,Simcolourproject_2stim_asymm_v5,2020.2.10,MacIntel,60,61025ae37ef11b136ea224fe,,,,,,,,,325,69,-34,1,0,0,response3disk,,5,11,-2,1,0,0,rectangle,11,-2,1,0,0,11,-2,1,0,0,1,123,283,69,1,,,,,,,,
,,,,,,,,,,,,,FF,,,,,,,,1.387,,,,,,,,,,,,,,,,,,,,,,60fd0d8d6d2e25846daa2ef3,610376c2e9fde9675d8d908e,2021-07-30_00h10.16.103,Simcolourproject_2stim_asymm_v5,2020.2.10,MacIntel,60,61025ae37ef11b136ea224fe,,,,,,,,,1928,-57,-34,1,0,0,response5disk,,2,7,1,1,0,0,rectangle,7,1,1,0,0,7,1,1,0,0,1,124,284,51,1,,,,,,,,
,,,,,,,,,,,,,FF,,,,,,,,0.721,,,,,,,,,,,,,,,,,,,,,,60fd0d8d6d2e25846daa2ef3,610376c2e9fde9675d8d908e,2021-07-30_00h10.16.103,Simcolourproject_2stim_asymm_v5,2020.2.10,MacIntel,60,61025ae37ef11b136ea224fe,,,,,,,,,712,-85,-44,1,0,0,response5disk,,2,-19,4,1,0,0,rectangle,-19,4,1,0,0,-19,4,1,0,0,1,125,285,123,1,,,,,,,,
,,,,,,,,,,,,,FF,,,,,,,,3.164,,,,,,,,,,,,,,,,,,,,,,60fd0d8d6d2e25846daa2ef3,610376c2e9fde9675d8d908e,2021-07-30_00h10.16.103,Simcolourproject_2stim_asymm_v5,2020.2.10,MacIntel,60,61025ae37ef11b136ea224fe,,,,,,,,,3806,-30,-73,1,0,0,response5disk,,3,-13,-6,1,0,0,rectangle,-13,-6,1,0,0,-13,-6,1,0,0,1,126,286,70,1,,,,,,,,
,,,,,,,,,,,,,FF,,,,,,,,1.267,,,,,,,,,,,,,,,,,,,,,,60fd0d8d6d2e25846daa2ef3,610376c2e9fde9675d8d908e,2021-07-30_00h10.16.103,Simcolourproject_2stim_asymm_v5,2020.2.10,MacIntel,60,61025ae37ef11b136ea224fe,,,,,,,,,684,-37,-66,1,0,0,response5disk,,3,-15,-17,1,0,0,rectangle,-15,-17,1,0,0,-15,-17,1,0,0,1,127,287,96,1,,,,,,,,
,,,,,,,,,,,,,FF,,,,,,,,1.338,,,,,,,,,,,,,,,,,,,,,,60fd0d8d6d2e25846daa2ef3,610376c2e9fde9675d8d908e,2021-07-30_00h10.16.103,Simcolourproject_2stim_asymm_v5,2020.2.10,MacIntel,60,61025ae37ef11b136ea224fe,,,,,,,,,1724,45,-58,1,0,0,response3disk,,4,7,1,1,0,0,rectangle,7,1,1,0,0,7,1,1,0,0,1,128,288,74,1,,,,,,,,
,,,,,,,,,,,,,FF,,,,,,,,2.584,,,,,,,,,,,,,,,,,,,,,,60fd0d8d6d2e25846daa2ef3,610376c2e9fde9675d8d908e,2021-07-30_00h10.16.103,Simcolourproject_2stim_asymm_v5,2020.2.10,MacIntel,60,61025ae37ef11b136ea224fe,,,,,,,,,215,80,-39,1,0,0,response3disk,,5,-2,-2,1,0,0,rectangle,-2,-2,1,0,0,-2,-2,1,0,0,1,129,289,19,1,,,,,,,,
,,,,,,,,,,,,,FF,,,,,,,,0.766,,,,,,,,,,,,,,,,,,,,,,60fd0d8d6d2e25846daa2ef3,610376c2e9fde9675d8d908e,2021-07-30_00h10.16.103,Simcolourproject_2stim_asymm_v5,2020.2.10,MacIntel,60,61025ae37ef11b136ea224fe,,,,,,,,,3251,-79,-33,1,0,0,response5disk,,2,-31,0,1,0,0,rectangle,-31,0,1,0,0,-31,0,1,0,0,1,130,290,85,1,,,,,,,,
,,,,,,,,,,,,,FF,,,,,,,,2.624,,,,,,,,,,,,,,,,,,,,,,60fd0d8d6d2e25846daa2ef3,610376c2e9fde9675d8d908e,2021-07-30_00h10.16.103,Simcolourproject_2stim_asymm_v5,2020.2.10,MacIntel,60,61025ae37ef11b136ea224fe,,,,,,,,,3077,68,-43,1,0,0,response3disk,,5,19,0,1,0,0,rectangle,19,0,1,0,0,19,0,1,0,0,1,131,291,76,1,,,,,,,,
,,,,,,,,,,,,,FF,,,,,,,,1.72,,,,,,,,,,,,,,,,,,,,,,60fd0d8d6d2e25846daa2ef3,610376c2e9fde9675d8d908e,2021-07-30_00h10.16.103,Simcolourproject_2stim_asymm_v5,2020.2.10,MacIntel,60,61025ae37ef11b136ea224fe,,,,,,,,,3508,-91,-33,1,0,0,response5disk,,2,-3,-8,1,0,0,rectangle,-3,-8,1,0,0,-3,-8,1,0,0,1,132,292,109,1,,,,,,,,
,,,,,,,,,,,,,FF,,,,,,,,4.293,,,,,,,,,,,,,,,,,,,,,,60fd0d8d6d2e25846daa2ef3,610376c2e9fde9675d8d908e,2021-07-30_00h10.16.103,Simcolourproject_2stim_asymm_v5,2020.2.10,MacIntel,60,61025ae37ef11b136ea224fe,,,,,,,,,141,57,-100,1,0,0,response3disk,,4,15,11,1,0,0,rectangle,15,11,1,0,0,15,11,1,0,0,1,133,293,91,1,,,,,,,,
,,,,,,,,,,,,,FF,,,,,,,,2.002,,,,,,,,,,,,,,,,,,,,,,60fd0d8d6d2e25846daa2ef3,610376c2e9fde9675d8d908e,2021-07-30_00h10.16.103,Simcolourproject_2stim_asymm_v5,2020.2.10,MacIntel,60,61025ae37ef11b136ea224fe,,,,,,,,,3499,57,-27,1,0,0,response3disk,,5,9,-1,1,0,0,rectangle,9,-1,1,0,0,9,-1,1,0,0,1,134,294,38,1,,,,,,,,
,,,,,,,,,,,,,FF,,,,,,,,0.821,,,,,,,,,,,,,,,,,,,,,,60fd0d8d6d2e25846daa2ef3,610376c2e9fde9675d8d908e,2021-07-30_00h10.16.103,Simcolourproject_2stim_asymm_v5,2020.2.10,MacIntel,60,61025ae37ef11b136ea224fe,,,,,,,,,2951,-50,-33,1,0,0,response5disk,,2,3,7,1,0,0,rectangle,3,7,1,0,0,3,7,1,0,0,1,135,295,15,1,,,,,,,,
,,,,,,,,,,,,,FF,,,,,,,,0.884,,,,,,,,,,,,,,,,,,,,,,60fd0d8d6d2e25846daa2ef3,610376c2e9fde9675d8d908e,2021-07-30_00h10.16.103,Simcolourproject_2stim_asymm_v5,2020.2.10,MacIntel,60,61025ae37ef11b136ea224fe,,,,,,,,,4050,-49,-30,1,0,0,response5disk,,2,-17,0,1,0,0,rectangle,-17,0,1,0,0,-17,0,1,0,0,1,136,296,86,1,,,,,,,,
,,,,,,,,,,,,,FF,,,,,,,,1.153,,,,,,,,,,,,,,,,,,,,,,60fd0d8d6d2e25846daa2ef3,610376c2e9fde9675d8d908e,2021-07-30_00h10.16.103,Simcolourproject_2stim_asymm_v5,2020.2.10,MacIntel,60,61025ae37ef11b136ea224fe,,,,,,,,,1391,27,-50,1,0,0,response3disk,,4,9,-6,1,0,0,rectangle,9,-6,1,0,0,9,-6,1,0,0,1,137,297,22,1,,,,,,,,
,,,,,,,,,,,,,FF,,,,,,,,0.801,,,,,,,,,,,,,,,,,,,,,,60fd0d8d6d2e25846daa2ef3,610376c2e9fde9675d8d908e,2021-07-30_00h10.16.103,Simcolourproject_2stim_asymm_v5,2020.2.10,MacIntel,60,61025ae37ef11b136ea224fe,,,,,,,,,3511,-65,34,1,0,0,response7disk,,1,25,-2,1,0,0,rectangle,25,-2,1,0,0,25,-2,1,0,0,1,138,298,35,1,,,,,,,,
,,,,,,,,,,,,,FF,,,,,,,,0.884,,,,,,,,,,,,,,,,,,,,,,60fd0d8d6d2e25846daa2ef3,610376c2e9fde9675d8d908e,2021-07-30_00h10.16.103,Simcolourproject_2stim_asymm_v5,2020.2.10,MacIntel,60,61025ae37ef11b136ea224fe,,,,,,,,,1542,-57,-101,1,0,0,response5disk,,3,-8,-8,1,0,0,rectangle,-8,-8,1,0,0,-8,-8,1,0,0,1,139,299,111,1,,,,,,,,
