key_resp.keys,key_resp.rt,key_resp_14.keys,key_resp_14.rt,key_resp_15.keys,key_resp_15.rt,key_resp_17.keys,key_resp_17.rt,key_resp_9.keys,key_resp_9.rt,key_resp_10.keys,key_resp_10.rt,practice_comparison,Ecc,mouse_5.x,mouse_5.y,mouse_5.leftButton,mouse_5.midButton,mouse_5.rightButton,mouse_5.clicked_name,pracsimilarity,response_time,mouse_10.x,mouse_10.y,mouse_10.leftButton,mouse_10.midButton,mouse_10.rightButton,mouse_10.clicked_name,mouse_7.x,mouse_7.y,mouse_7.leftButton,mouse_7.midButton,mouse_7.rightButton,mouse_6.x,mouse_6.y,mouse_6.leftButton,mouse_6.midButton,mouse_6.rightButton,duringprac.thisRepN,duringprac.thisTrialN,duringprac.thisN,duringprac.thisIndex,duringprac.ran,participant,session,date,expName,psychopyVersion,OS,frameRate,study_id,mouse_7.clicked_name,catchpracsimilarity,catch_response_time,catchnumberprac,catchtrialorderprac,mouse_6.clicked_name,key_resp_22.keys,key_resp_22.rt,realcomparison,mouse.x,mouse.y,mouse.leftButton,mouse.midButton,mouse.rightButton,mouse.clicked_name,Colour2,similarity,mouse_2.x,mouse_2.y,mouse_2.leftButton,mouse_2.midButton,mouse_2.rightButton,mouse_2.clicked_name,mouse_3.x,mouse_3.y,mouse_3.leftButton,mouse_3.midButton,mouse_3.rightButton,mouse_3.clicked_name,catchornah,catchsimilarity,catchnumber,catchtrialorder,catchRT,mouse_11.x,mouse_11.y,mouse_11.leftButton,mouse_11.midButton,mouse_11.rightButton,mouse_11.clicked_name,trials_2.thisRepN,trials_2.thisTrialN,trials_2.thisN,trials_2.thisIndex,trials_2.ran,Colour1
space,3.929,space,5.711,space,27.126,space,9.958,space,1.419,space,5.023,148,PF,67,23,1,0,0,response1disk_5,6,10.132,11,-4,1,0,0,rectangle_8,11,-4,1,0,0,11,-4,1,0,0,0,0,0,2,1,60fd8a9b878fb74422fa9a78,61036f7647f5f4229f401fc5,2021-07-29_23h18.57.378,Simcolourproject_2stim_asymm_v5,2020.2.10,MacIntel,60,61025ae37ef11b136ea224fe,,,,,,,,,,,,,,,,,,,,,,,,,,,,,,,,,,,,,,,,,,,,,,
,,,,,,,,,,,,118,FF,-27,-62,1,0,0,response5disk_5,3,2.035,10,-1,1,0,0,rectangle_8,75,22,1,0,0,11,6,1,0,0,0,1,1,5,1,60fd8a9b878fb74422fa9a78,61036f7647f5f4229f401fc5,2021-07-29_23h18.57.378,Simcolourproject_2stim_asymm_v5,2020.2.10,MacIntel,60,61025ae37ef11b136ea224fe,response1disk_7,6,5.264,6,"[2,5]",rectangle_4,,,,,,,,,,,,,,,,,,,,,,,,,,,,,,,,,,,,,,,,
,,,,,,,,,,,,34,PF,22,-64,1,0,0,response3disk_5,4,2.321,6,-7,1,0,0,rectangle_8,6,-7,1,0,0,6,-7,1,0,0,0,2,2,6,1,60fd8a9b878fb74422fa9a78,61036f7647f5f4229f401fc5,2021-07-29_23h18.57.378,Simcolourproject_2stim_asymm_v5,2020.2.10,MacIntel,60,61025ae37ef11b136ea224fe,,,,,,,,,,,,,,,,,,,,,,,,,,,,,,,,,,,,,,,,,,,,,,
,,,,,,,,,,,,0,FF,65,-45,1,0,0,response3disk_5,5,2.332,10,3,1,0,0,rectangle_8,10,3,1,0,0,10,3,1,0,0,0,3,3,3,1,60fd8a9b878fb74422fa9a78,61036f7647f5f4229f401fc5,2021-07-29_23h18.57.378,Simcolourproject_2stim_asymm_v5,2020.2.10,MacIntel,60,61025ae37ef11b136ea224fe,,,,,,,,,,,,,,,,,,,,,,,,,,,,,,,,,,,,,,,,,,,,,,
,,,,,,,,,,,,113,FF,52,-26,1,0,0,response3disk_5,5,1.455,5,4,1,0,0,rectangle_8,76,25,1,0,0,9,-2,1,0,0,0,4,4,0,1,60fd8a9b878fb74422fa9a78,61036f7647f5f4229f401fc5,2021-07-29_23h18.57.378,Simcolourproject_2stim_asymm_v5,2020.2.10,MacIntel,60,61025ae37ef11b136ea224fe,response1disk_7,6,2.95,6,"[2,5]",rectangle_4,,,,,,,,,,,,,,,,,,,,,,,,,,,,,,,,,,,,,,,,
,,,,,,,,,,,,119,PF,-14,-70,1,0,0,response5disk_5,3,1.454,14,-3,1,0,0,rectangle_8,14,-3,1,0,0,14,-3,1,0,0,0,5,5,4,1,60fd8a9b878fb74422fa9a78,61036f7647f5f4229f401fc5,2021-07-29_23h18.57.378,Simcolourproject_2stim_asymm_v5,2020.2.10,MacIntel,60,61025ae37ef11b136ea224fe,,,,,,,,,,,,,,,,,,,,,,,,,,,,,,,,,,,,,,,,,,,,,,
,,,,,,,,,,,,78,PF,-16,-59,1,0,0,response5disk_5,3,1.234,9,-3,1,0,0,rectangle_8,9,-3,1,0,0,9,-3,1,0,0,0,6,6,1,1,60fd8a9b878fb74422fa9a78,61036f7647f5f4229f401fc5,2021-07-29_23h18.57.378,Simcolourproject_2stim_asymm_v5,2020.2.10,MacIntel,60,61025ae37ef11b136ea224fe,,,,,,,,,,,,,,,,,,,,,,,,,,,,,,,,,,,,,,,,,,,,,,
,,,,,,,,,,,,,FF,,,,,,,,1.367,,,,,,,,,,,,,,,,,,,,,,60fd8a9b878fb74422fa9a78,61036f7647f5f4229f401fc5,2021-07-29_23h18.57.378,Simcolourproject_2stim_asymm_v5,2020.2.10,MacIntel,60,61025ae37ef11b136ea224fe,,,,,,,space,5.062,2712,36,-59,1,0,0,response3disk,,4,13,2,1,0,0,rectangle,-62,-30,1,0,0,response5disk_3,TRUE,2,2,"[55,199,71,91,84,251,317,88,1,131,310,320,308,30,39,260,133,230,193,317]",2.804,2,0,1,0,0,rectangle,0,0,0,28,1,
,,,,,,,,,,,,,FF,,,,,,,,1.308,,,,,,,,,,,,,,,,,,,,,,60fd8a9b878fb74422fa9a78,61036f7647f5f4229f401fc5,2021-07-29_23h18.57.378,Simcolourproject_2stim_asymm_v5,2020.2.10,MacIntel,60,61025ae37ef11b136ea224fe,,,,,,,,,3139,-52,-30,1,0,0,response5disk,,2,0,-2,1,0,0,rectangle,0,-2,1,0,0,,,,,,,0,-2,1,0,0,,0,1,1,31,1,
,,,,,,,,,,,,,FF,,,,,,,,1.456,,,,,,,,,,,,,,,,,,,,,,60fd8a9b878fb74422fa9a78,61036f7647f5f4229f401fc5,2021-07-29_23h18.57.378,Simcolourproject_2stim_asymm_v5,2020.2.10,MacIntel,60,61025ae37ef11b136ea224fe,,,,,,,,,2604,-36,-57,1,0,0,response5disk,,3,11,3,1,0,0,rectangle,11,3,1,0,0,,,,,,,11,3,1,0,0,,0,2,2,143,1,
,,,,,,,,,,,,,FF,,,,,,,,1.341,,,,,,,,,,,,,,,,,,,,,,60fd8a9b878fb74422fa9a78,61036f7647f5f4229f401fc5,2021-07-29_23h18.57.378,Simcolourproject_2stim_asymm_v5,2020.2.10,MacIntel,60,61025ae37ef11b136ea224fe,,,,,,,,,2222,55,-19,1,0,0,response3disk,,5,0,1,1,0,0,rectangle,0,1,1,0,0,,,,,,,0,1,1,0,0,,0,3,3,128,1,
,,,,,,,,,,,,,FF,,,,,,,,1.535,,,,,,,,,,,,,,,,,,,,,,60fd8a9b878fb74422fa9a78,61036f7647f5f4229f401fc5,2021-07-29_23h18.57.378,Simcolourproject_2stim_asymm_v5,2020.2.10,MacIntel,60,61025ae37ef11b136ea224fe,,,,,,,,,4203,-37,-54,1,0,0,response5disk,,3,0,1,1,0,0,rectangle,0,1,1,0,0,,,,,,,0,1,1,0,0,,0,4,4,78,1,
,,,,,,,,,,,,,FF,,,,,,,,1.354,,,,,,,,,,,,,,,,,,,,,,60fd8a9b878fb74422fa9a78,61036f7647f5f4229f401fc5,2021-07-29_23h18.57.378,Simcolourproject_2stim_asymm_v5,2020.2.10,MacIntel,60,61025ae37ef11b136ea224fe,,,,,,,,,420,67,12,1,0,0,response1disk,,6,-3,-4,1,0,0,rectangle,-3,-4,1,0,0,,,,,,,-3,-4,1,0,0,,0,5,5,56,1,
,,,,,,,,,,,,,FF,,,,,,,,0.908,,,,,,,,,,,,,,,,,,,,,,60fd8a9b878fb74422fa9a78,61036f7647f5f4229f401fc5,2021-07-29_23h18.57.378,Simcolourproject_2stim_asymm_v5,2020.2.10,MacIntel,60,61025ae37ef11b136ea224fe,,,,,,,,,3915,-34,-58,1,0,0,response5disk,,3,7,-4,1,0,0,rectangle,7,-4,1,0,0,,,,,,,7,-4,1,0,0,,0,6,6,150,1,
,,,,,,,,,,,,,FF,,,,,,,,1.551,,,,,,,,,,,,,,,,,,,,,,60fd8a9b878fb74422fa9a78,61036f7647f5f4229f401fc5,2021-07-29_23h18.57.378,Simcolourproject_2stim_asymm_v5,2020.2.10,MacIntel,60,61025ae37ef11b136ea224fe,,,,,,,,,40,22,58,1,0,0,response1disk,,7,-1,-4,1,0,0,rectangle,-1,-4,1,0,0,,,,,,,-1,-4,1,0,0,,0,7,7,34,1,
,,,,,,,,,,,,,FF,,,,,,,,1.192,,,,,,,,,,,,,,,,,,,,,,60fd8a9b878fb74422fa9a78,61036f7647f5f4229f401fc5,2021-07-29_23h18.57.378,Simcolourproject_2stim_asymm_v5,2020.2.10,MacIntel,60,61025ae37ef11b136ea224fe,,,,,,,,,2996,-32,-54,1,0,0,response5disk,,3,15,-5,1,0,0,rectangle,15,-5,1,0,0,,,,,,,15,-5,1,0,0,,0,8,8,33,1,
,,,,,,,,,,,,,FF,,,,,,,,1.124,,,,,,,,,,,,,,,,,,,,,,60fd8a9b878fb74422fa9a78,61036f7647f5f4229f401fc5,2021-07-29_23h18.57.378,Simcolourproject_2stim_asymm_v5,2020.2.10,MacIntel,60,61025ae37ef11b136ea224fe,,,,,,,,,4294,-39,-52,1,0,0,response5disk,,3,-5,-5,1,0,0,rectangle,-5,-5,1,0,0,,,,,,,-5,-5,1,0,0,,0,9,9,29,1,
,,,,,,,,,,,,,FF,,,,,,,,1.167,,,,,,,,,,,,,,,,,,,,,,60fd8a9b878fb74422fa9a78,61036f7647f5f4229f401fc5,2021-07-29_23h18.57.378,Simcolourproject_2stim_asymm_v5,2020.2.10,MacIntel,60,61025ae37ef11b136ea224fe,,,,,,,,,2265,33,48,1,0,0,response1disk,,7,2,1,1,0,0,rectangle,2,1,1,0,0,,,,,,,2,1,1,0,0,,0,10,10,119,1,
,,,,,,,,,,,,,FF,,,,,,,,1.475,,,,,,,,,,,,,,,,,,,,,,60fd8a9b878fb74422fa9a78,61036f7647f5f4229f401fc5,2021-07-29_23h18.57.378,Simcolourproject_2stim_asymm_v5,2020.2.10,MacIntel,60,61025ae37ef11b136ea224fe,,,,,,,,,1507,25,50,1,0,0,response1disk,,7,-5,-6,1,0,0,rectangle,-5,-6,1,0,0,,,,,,,-5,-6,1,0,0,,0,11,11,136,1,
,,,,,,,,,,,,,FF,,,,,,,,1.676,,,,,,,,,,,,,,,,,,,,,,60fd8a9b878fb74422fa9a78,61036f7647f5f4229f401fc5,2021-07-29_23h18.57.378,Simcolourproject_2stim_asymm_v5,2020.2.10,MacIntel,60,61025ae37ef11b136ea224fe,,,,,,,,,2176,31,-49,1,0,0,response3disk,,4,3,0,1,0,0,rectangle,3,0,1,0,0,,,,,,,3,0,1,0,0,,0,12,12,19,1,
,,,,,,,,,,,,,FF,,,,,,,,1.367,,,,,,,,,,,,,,,,,,,,,,60fd8a9b878fb74422fa9a78,61036f7647f5f4229f401fc5,2021-07-29_23h18.57.378,Simcolourproject_2stim_asymm_v5,2020.2.10,MacIntel,60,61025ae37ef11b136ea224fe,,,,,,,,,1429,19,-52,1,0,0,response3disk,,4,1,8,1,0,0,rectangle,1,8,1,0,0,,,,,,,1,8,1,0,0,,0,13,13,157,1,
,,,,,,,,,,,,,FF,,,,,,,,0.858,,,,,,,,,,,,,,,,,,,,,,60fd8a9b878fb74422fa9a78,61036f7647f5f4229f401fc5,2021-07-29_23h18.57.378,Simcolourproject_2stim_asymm_v5,2020.2.10,MacIntel,60,61025ae37ef11b136ea224fe,,,,,,,,,365,38,58,1,0,0,response1disk,,7,5,-3,1,0,0,rectangle,5,-3,1,0,0,,,,,,,5,-3,1,0,0,,0,14,14,89,1,
,,,,,,,,,,,,,FF,,,,,,,,0.935,,,,,,,,,,,,,,,,,,,,,,60fd8a9b878fb74422fa9a78,61036f7647f5f4229f401fc5,2021-07-29_23h18.57.378,Simcolourproject_2stim_asymm_v5,2020.2.10,MacIntel,60,61025ae37ef11b136ea224fe,,,,,,,,,2046,26,-69,1,0,0,response3disk,,4,7,-6,1,0,0,rectangle,7,-6,1,0,0,,,,,,,7,-6,1,0,0,,0,15,15,26,1,
,,,,,,,,,,,,,FF,,,,,,,,1.141,,,,,,,,,,,,,,,,,,,,,,60fd8a9b878fb74422fa9a78,61036f7647f5f4229f401fc5,2021-07-29_23h18.57.378,Simcolourproject_2stim_asymm_v5,2020.2.10,MacIntel,60,61025ae37ef11b136ea224fe,,,,,,,,,104,70,-28,1,0,0,response3disk,,5,16,-4,1,0,0,rectangle,16,-4,1,0,0,,,,,,,16,-4,1,0,0,,0,16,16,7,1,
,,,,,,,,,,,,,FF,,,,,,,,1.141,,,,,,,,,,,,,,,,,,,,,,60fd8a9b878fb74422fa9a78,61036f7647f5f4229f401fc5,2021-07-29_23h18.57.378,Simcolourproject_2stim_asymm_v5,2020.2.10,MacIntel,60,61025ae37ef11b136ea224fe,,,,,,,,,179,59,16,1,0,0,response1disk,,6,12,1,1,0,0,rectangle,12,1,1,0,0,,,,,,,12,1,1,0,0,,0,17,17,81,1,
,,,,,,,,,,,,,FF,,,,,,,,1.077,,,,,,,,,,,,,,,,,,,,,,60fd8a9b878fb74422fa9a78,61036f7647f5f4229f401fc5,2021-07-29_23h18.57.378,Simcolourproject_2stim_asymm_v5,2020.2.10,MacIntel,60,61025ae37ef11b136ea224fe,,,,,,,,,3685,59,23,1,0,0,response1disk,,6,9,5,1,0,0,rectangle,9,5,1,0,0,,,,,,,9,5,1,0,0,,0,18,18,66,1,
,,,,,,,,,,,,,FF,,,,,,,,1.654,,,,,,,,,,,,,,,,,,,,,,60fd8a9b878fb74422fa9a78,61036f7647f5f4229f401fc5,2021-07-29_23h18.57.378,Simcolourproject_2stim_asymm_v5,2020.2.10,MacIntel,60,61025ae37ef11b136ea224fe,,,,,,,,,245,35,56,1,0,0,response1disk,,7,8,-1,1,0,0,rectangle,8,-1,1,0,0,,,,,,,8,-1,1,0,0,,0,19,19,144,1,
,,,,,,,,,,,,,FF,,,,,,,,1.205,,,,,,,,,,,,,,,,,,,,,,60fd8a9b878fb74422fa9a78,61036f7647f5f4229f401fc5,2021-07-29_23h18.57.378,Simcolourproject_2stim_asymm_v5,2020.2.10,MacIntel,60,61025ae37ef11b136ea224fe,,,,,,,,,4198,38,50,1,0,0,response1disk,,7,10,0,1,0,0,rectangle,10,0,1,0,0,,,,,,,10,0,1,0,0,,0,20,20,18,1,
,,,,,,,,,,,,,FF,,,,,,,,1.1,,,,,,,,,,,,,,,,,,,,,,60fd8a9b878fb74422fa9a78,61036f7647f5f4229f401fc5,2021-07-29_23h18.57.378,Simcolourproject_2stim_asymm_v5,2020.2.10,MacIntel,60,61025ae37ef11b136ea224fe,,,,,,,,,49,67,25,1,0,0,response1disk,,6,20,-7,1,0,0,rectangle,20,-7,1,0,0,,,,,,,20,-7,1,0,0,,0,21,21,27,1,
,,,,,,,,,,,,,FF,,,,,,,,2.092,,,,,,,,,,,,,,,,,,,,,,60fd8a9b878fb74422fa9a78,61036f7647f5f4229f401fc5,2021-07-29_23h18.57.378,Simcolourproject_2stim_asymm_v5,2020.2.10,MacIntel,60,61025ae37ef11b136ea224fe,,,,,,,,,887,-62,-23,1,0,0,response5disk,,2,14,3,1,0,0,rectangle,14,3,1,0,0,,,,,,,14,3,1,0,0,,0,22,22,109,1,
,,,,,,,,,,,,,FF,,,,,,,,1.69,,,,,,,,,,,,,,,,,,,,,,60fd8a9b878fb74422fa9a78,61036f7647f5f4229f401fc5,2021-07-29_23h18.57.378,Simcolourproject_2stim_asymm_v5,2020.2.10,MacIntel,60,61025ae37ef11b136ea224fe,,,,,,,,,899,66,-29,1,0,0,response3disk,,5,7,-11,1,0,0,rectangle,7,-11,1,0,0,,,,,,,7,-11,1,0,0,,0,23,23,154,1,
,,,,,,,,,,,,,FF,,,,,,,,1.115,,,,,,,,,,,,,,,,,,,,,,60fd8a9b878fb74422fa9a78,61036f7647f5f4229f401fc5,2021-07-29_23h18.57.378,Simcolourproject_2stim_asymm_v5,2020.2.10,MacIntel,60,61025ae37ef11b136ea224fe,,,,,,,,,1073,72,29,1,0,0,response1disk,,6,3,1,1,0,0,rectangle,3,1,1,0,0,,,,,,,3,1,1,0,0,,0,24,24,101,1,
,,,,,,,,,,,,,FF,,,,,,,,0.936,,,,,,,,,,,,,,,,,,,,,,60fd8a9b878fb74422fa9a78,61036f7647f5f4229f401fc5,2021-07-29_23h18.57.378,Simcolourproject_2stim_asymm_v5,2020.2.10,MacIntel,60,61025ae37ef11b136ea224fe,,,,,,,,,1859,32,68,1,0,0,response1disk,,7,-3,6,1,0,0,rectangle,-3,6,1,0,0,,,,,,,-3,6,1,0,0,,0,25,25,115,1,
,,,,,,,,,,,,,FF,,,,,,,,2.109,,,,,,,,,,,,,,,,,,,,,,60fd8a9b878fb74422fa9a78,61036f7647f5f4229f401fc5,2021-07-29_23h18.57.378,Simcolourproject_2stim_asymm_v5,2020.2.10,MacIntel,60,61025ae37ef11b136ea224fe,,,,,,,,,1521,-27,74,1,0,0,response7disk,,0,12,8,1,0,0,rectangle,12,8,1,0,0,,,,,,,12,8,1,0,0,,0,26,26,60,1,
,,,,,,,,,,,,,FF,,,,,,,,1.635,,,,,,,,,,,,,,,,,,,,,,60fd8a9b878fb74422fa9a78,61036f7647f5f4229f401fc5,2021-07-29_23h18.57.378,Simcolourproject_2stim_asymm_v5,2020.2.10,MacIntel,60,61025ae37ef11b136ea224fe,,,,,,,,,181,59,35,1,0,0,response1disk,,6,10,8,1,0,0,rectangle,10,8,1,0,0,,,,,,,10,8,1,0,0,,0,27,27,99,1,
,,,,,,,,,,,,,FF,,,,,,,,1.003,,,,,,,,,,,,,,,,,,,,,,60fd8a9b878fb74422fa9a78,61036f7647f5f4229f401fc5,2021-07-29_23h18.57.378,Simcolourproject_2stim_asymm_v5,2020.2.10,MacIntel,60,61025ae37ef11b136ea224fe,,,,,,,,,305,37,54,1,0,0,response1disk,,7,5,2,1,0,0,rectangle,5,2,1,0,0,,,,,,,5,2,1,0,0,,0,28,28,129,1,
,,,,,,,,,,,,,FF,,,,,,,,0.863,,,,,,,,,,,,,,,,,,,,,,60fd8a9b878fb74422fa9a78,61036f7647f5f4229f401fc5,2021-07-29_23h18.57.378,Simcolourproject_2stim_asymm_v5,2020.2.10,MacIntel,60,61025ae37ef11b136ea224fe,,,,,,,,,738,25,60,1,0,0,response1disk,,7,-2,1,1,0,0,rectangle,-61,28,1,0,0,response7disk_3,TRUE,1,1,"[55,199,71,91,84,251,317,88,1,131,310,320,308,30,39,260,133,230,193,317]",1.917,10,-4,1,0,0,rectangle,0,29,29,125,1,
,,,,,,,,,,,,,FF,,,,,,,,1.043,,,,,,,,,,,,,,,,,,,,,,60fd8a9b878fb74422fa9a78,61036f7647f5f4229f401fc5,2021-07-29_23h18.57.378,Simcolourproject_2stim_asymm_v5,2020.2.10,MacIntel,60,61025ae37ef11b136ea224fe,,,,,,,,,3653,33,53,1,0,0,response1disk,,7,1,3,1,0,0,rectangle,1,3,1,0,0,,,,,,,1,3,1,0,0,,0,30,30,88,1,
,,,,,,,,,,,,,FF,,,,,,,,0.83,,,,,,,,,,,,,,,,,,,,,,60fd8a9b878fb74422fa9a78,61036f7647f5f4229f401fc5,2021-07-29_23h18.57.378,Simcolourproject_2stim_asymm_v5,2020.2.10,MacIntel,60,61025ae37ef11b136ea224fe,,,,,,,,,3314,32,70,1,0,0,response1disk,,7,9,9,1,0,0,rectangle,9,9,1,0,0,,,,,,,9,9,1,0,0,,0,31,31,73,1,
,,,,,,,,,,,,,FF,,,,,,,,0.767,,,,,,,,,,,,,,,,,,,,,,60fd8a9b878fb74422fa9a78,61036f7647f5f4229f401fc5,2021-07-29_23h18.57.378,Simcolourproject_2stim_asymm_v5,2020.2.10,MacIntel,60,61025ae37ef11b136ea224fe,,,,,,,,,496,35,59,1,0,0,response1disk,,7,2,2,1,0,0,rectangle,2,2,1,0,0,,,,,,,2,2,1,0,0,,0,32,32,64,1,
,,,,,,,,,,,,,FF,,,,,,,,1.051,,,,,,,,,,,,,,,,,,,,,,60fd8a9b878fb74422fa9a78,61036f7647f5f4229f401fc5,2021-07-29_23h18.57.378,Simcolourproject_2stim_asymm_v5,2020.2.10,MacIntel,60,61025ae37ef11b136ea224fe,,,,,,,,,796,37,59,1,0,0,response1disk,,7,12,7,1,0,0,rectangle,12,7,1,0,0,,,,,,,12,7,1,0,0,,0,33,33,80,1,
,,,,,,,,,,,,,FF,,,,,,,,1.442,,,,,,,,,,,,,,,,,,,,,,60fd8a9b878fb74422fa9a78,61036f7647f5f4229f401fc5,2021-07-29_23h18.57.378,Simcolourproject_2stim_asymm_v5,2020.2.10,MacIntel,60,61025ae37ef11b136ea224fe,,,,,,,,,3764,58,-22,1,0,0,response3disk,,5,7,-3,1,0,0,rectangle,7,-3,1,0,0,,,,,,,7,-3,1,0,0,,0,34,34,51,1,
,,,,,,,,,,,,,FF,,,,,,,,0.799,,,,,,,,,,,,,,,,,,,,,,60fd8a9b878fb74422fa9a78,61036f7647f5f4229f401fc5,2021-07-29_23h18.57.378,Simcolourproject_2stim_asymm_v5,2020.2.10,MacIntel,60,61025ae37ef11b136ea224fe,,,,,,,,,362,38,65,1,0,0,response1disk,,7,3,2,1,0,0,rectangle,3,2,1,0,0,,,,,,,3,2,1,0,0,,0,35,35,113,1,
,,,,,,,,,,,,,FF,,,,,,,,0.883,,,,,,,,,,,,,,,,,,,,,,60fd8a9b878fb74422fa9a78,61036f7647f5f4229f401fc5,2021-07-29_23h18.57.378,Simcolourproject_2stim_asymm_v5,2020.2.10,MacIntel,60,61025ae37ef11b136ea224fe,,,,,,,,,2224,30,81,1,0,0,response1disk,,7,3,7,1,0,0,rectangle,3,7,1,0,0,,,,,,,3,7,1,0,0,,0,36,36,57,1,
,,,,,,,,,,,,,FF,,,,,,,,2.218,,,,,,,,,,,,,,,,,,,,,,60fd8a9b878fb74422fa9a78,61036f7647f5f4229f401fc5,2021-07-29_23h18.57.378,Simcolourproject_2stim_asymm_v5,2020.2.10,MacIntel,60,61025ae37ef11b136ea224fe,,,,,,,,,1294,65,-49,1,0,0,response3disk,,5,-4,9,1,0,0,rectangle,-4,9,1,0,0,,,,,,,-4,9,1,0,0,,0,37,37,63,1,
,,,,,,,,,,,,,FF,,,,,,,,1.116,,,,,,,,,,,,,,,,,,,,,,60fd8a9b878fb74422fa9a78,61036f7647f5f4229f401fc5,2021-07-29_23h18.57.378,Simcolourproject_2stim_asymm_v5,2020.2.10,MacIntel,60,61025ae37ef11b136ea224fe,,,,,,,,,3633,55,-25,1,0,0,response3disk,,5,-8,1,1,0,0,rectangle,73,28,1,0,0,response1disk_3,TRUE,6,6,"[55,199,71,91,84,251,317,88,1,131,310,320,308,30,39,260,133,230,193,317]",2.11,15,4,1,0,0,rectangle,0,38,38,21,1,
,,,,,,,,,,,,,FF,,,,,,,,1.711,,,,,,,,,,,,,,,,,,,,,,60fd8a9b878fb74422fa9a78,61036f7647f5f4229f401fc5,2021-07-29_23h18.57.378,Simcolourproject_2stim_asymm_v5,2020.2.10,MacIntel,60,61025ae37ef11b136ea224fe,,,,,,,,,2789,36,-59,1,0,0,response3disk,,4,-13,3,1,0,0,rectangle,-13,3,1,0,0,,,,,,,-13,3,1,0,0,,0,39,39,121,1,
,,,,,,,,,,,,,FF,,,,,,,,1.308,,,,,,,,,,,,,,,,,,,,,,60fd8a9b878fb74422fa9a78,61036f7647f5f4229f401fc5,2021-07-29_23h18.57.378,Simcolourproject_2stim_asymm_v5,2020.2.10,MacIntel,60,61025ae37ef11b136ea224fe,,,,,,,,,3525,67,33,1,0,0,response1disk,,6,0,4,1,0,0,rectangle,0,4,1,0,0,,,,,,,0,4,1,0,0,,0,40,40,11,1,
,,,,,,,,,,,,,FF,,,,,,,,0.951,,,,,,,,,,,,,,,,,,,,,,60fd8a9b878fb74422fa9a78,61036f7647f5f4229f401fc5,2021-07-29_23h18.57.378,Simcolourproject_2stim_asymm_v5,2020.2.10,MacIntel,60,61025ae37ef11b136ea224fe,,,,,,,,,154,29,62,1,0,0,response1disk,,7,4,5,1,0,0,rectangle,4,5,1,0,0,,,,,,,4,5,1,0,0,,0,41,41,102,1,
,,,,,,,,,,,,,FF,,,,,,,,2.215,,,,,,,,,,,,,,,,,,,,,,60fd8a9b878fb74422fa9a78,61036f7647f5f4229f401fc5,2021-07-29_23h18.57.378,Simcolourproject_2stim_asymm_v5,2020.2.10,MacIntel,60,61025ae37ef11b136ea224fe,,,,,,,,,3912,23,-73,1,0,0,response3disk,,4,6,-11,1,0,0,rectangle,6,-11,1,0,0,,,,,,,6,-11,1,0,0,,0,42,42,149,1,
,,,,,,,,,,,,,FF,,,,,,,,0.96,,,,,,,,,,,,,,,,,,,,,,60fd8a9b878fb74422fa9a78,61036f7647f5f4229f401fc5,2021-07-29_23h18.57.378,Simcolourproject_2stim_asymm_v5,2020.2.10,MacIntel,60,61025ae37ef11b136ea224fe,,,,,,,,,2678,63,28,1,0,0,response1disk,,6,13,10,1,0,0,rectangle,13,10,1,0,0,,,,,,,13,10,1,0,0,,0,43,43,92,1,
,,,,,,,,,,,,,FF,,,,,,,,0.942,,,,,,,,,,,,,,,,,,,,,,60fd8a9b878fb74422fa9a78,61036f7647f5f4229f401fc5,2021-07-29_23h18.57.378,Simcolourproject_2stim_asymm_v5,2020.2.10,MacIntel,60,61025ae37ef11b136ea224fe,,,,,,,,,3809,25,56,1,0,0,response1disk,,7,1,-5,1,0,0,rectangle,1,-5,1,0,0,,,,,,,1,-5,1,0,0,,0,44,44,9,1,
,,,,,,,,,,,,,FF,,,,,,,,0.842,,,,,,,,,,,,,,,,,,,,,,60fd8a9b878fb74422fa9a78,61036f7647f5f4229f401fc5,2021-07-29_23h18.57.378,Simcolourproject_2stim_asymm_v5,2020.2.10,MacIntel,60,61025ae37ef11b136ea224fe,,,,,,,,,208,36,61,1,0,0,response1disk,,7,8,3,1,0,0,rectangle,8,3,1,0,0,,,,,,,8,3,1,0,0,,0,45,45,36,1,
,,,,,,,,,,,,,FF,,,,,,,,1.303,,,,,,,,,,,,,,,,,,,,,,60fd8a9b878fb74422fa9a78,61036f7647f5f4229f401fc5,2021-07-29_23h18.57.378,Simcolourproject_2stim_asymm_v5,2020.2.10,MacIntel,60,61025ae37ef11b136ea224fe,,,,,,,,,2962,41,55,1,0,0,response1disk,,7,3,-3,1,0,0,rectangle,3,-3,1,0,0,,,,,,,3,-3,1,0,0,,0,46,46,117,1,
,,,,,,,,,,,,,FF,,,,,,,,0.801,,,,,,,,,,,,,,,,,,,,,,60fd8a9b878fb74422fa9a78,61036f7647f5f4229f401fc5,2021-07-29_23h18.57.378,Simcolourproject_2stim_asymm_v5,2020.2.10,MacIntel,60,61025ae37ef11b136ea224fe,,,,,,,,,3549,31,52,1,0,0,response1disk,,7,8,9,1,0,0,rectangle,8,9,1,0,0,,,,,,,8,9,1,0,0,,0,47,47,106,1,
,,,,,,,,,,,,,FF,,,,,,,,0.731,,,,,,,,,,,,,,,,,,,,,,60fd8a9b878fb74422fa9a78,61036f7647f5f4229f401fc5,2021-07-29_23h18.57.378,Simcolourproject_2stim_asymm_v5,2020.2.10,MacIntel,60,61025ae37ef11b136ea224fe,,,,,,,,,2851,35,64,1,0,0,response1disk,,7,12,2,1,0,0,rectangle,12,2,1,0,0,,,,,,,12,2,1,0,0,,0,48,48,105,1,
,,,,,,,,,,,,,FF,,,,,,,,0.829,,,,,,,,,,,,,,,,,,,,,,60fd8a9b878fb74422fa9a78,61036f7647f5f4229f401fc5,2021-07-29_23h18.57.378,Simcolourproject_2stim_asymm_v5,2020.2.10,MacIntel,60,61025ae37ef11b136ea224fe,,,,,,,,,2634,37,52,1,0,0,response1disk,,7,7,-4,1,0,0,rectangle,7,-4,1,0,0,,,,,,,7,-4,1,0,0,,0,49,49,134,1,
,,,,,,,,,,,,,FF,,,,,,,,0.967,,,,,,,,,,,,,,,,,,,,,,60fd8a9b878fb74422fa9a78,61036f7647f5f4229f401fc5,2021-07-29_23h18.57.378,Simcolourproject_2stim_asymm_v5,2020.2.10,MacIntel,60,61025ae37ef11b136ea224fe,,,,,,,,,770,35,63,1,0,0,response1disk,,7,4,-2,1,0,0,rectangle,4,-2,1,0,0,,,,,,,4,-2,1,0,0,,0,50,50,87,1,
,,,,,,,,,,,,,FF,,,,,,,,0.993,,,,,,,,,,,,,,,,,,,,,,60fd8a9b878fb74422fa9a78,61036f7647f5f4229f401fc5,2021-07-29_23h18.57.378,Simcolourproject_2stim_asymm_v5,2020.2.10,MacIntel,60,61025ae37ef11b136ea224fe,,,,,,,,,39,64,36,1,0,0,response1disk,,6,4,1,1,0,0,rectangle,4,1,1,0,0,,,,,,,4,1,1,0,0,,0,51,51,148,1,
,,,,,,,,,,,,,FF,,,,,,,,0.85,,,,,,,,,,,,,,,,,,,,,,60fd8a9b878fb74422fa9a78,61036f7647f5f4229f401fc5,2021-07-29_23h18.57.378,Simcolourproject_2stim_asymm_v5,2020.2.10,MacIntel,60,61025ae37ef11b136ea224fe,,,,,,,,,3168,34,56,1,0,0,response1disk,,7,13,-2,1,0,0,rectangle,13,-2,1,0,0,,,,,,,13,-2,1,0,0,,0,52,52,146,1,
,,,,,,,,,,,,,FF,,,,,,,,0.962,,,,,,,,,,,,,,,,,,,,,,60fd8a9b878fb74422fa9a78,61036f7647f5f4229f401fc5,2021-07-29_23h18.57.378,Simcolourproject_2stim_asymm_v5,2020.2.10,MacIntel,60,61025ae37ef11b136ea224fe,,,,,,,,,4043,44,61,1,0,0,response1disk,,7,7,1,1,0,0,rectangle,7,1,1,0,0,,,,,,,7,1,1,0,0,,0,53,53,135,1,
,,,,,,,,,,,,,FF,,,,,,,,1.268,,,,,,,,,,,,,,,,,,,,,,60fd8a9b878fb74422fa9a78,61036f7647f5f4229f401fc5,2021-07-29_23h18.57.378,Simcolourproject_2stim_asymm_v5,2020.2.10,MacIntel,60,61025ae37ef11b136ea224fe,,,,,,,,,3286,64,47,1,0,0,response1disk,,6,4,-14,1,0,0,rectangle,21,-70,1,0,0,response3disk_3,TRUE,4,4,"[55,199,71,91,84,251,317,88,1,131,310,320,308,30,39,260,133,230,193,317]",1.955,8,7,1,0,0,rectangle,0,54,54,39,1,
,,,,,,,,,,,,,FF,,,,,,,,1.291,,,,,,,,,,,,,,,,,,,,,,60fd8a9b878fb74422fa9a78,61036f7647f5f4229f401fc5,2021-07-29_23h18.57.378,Simcolourproject_2stim_asymm_v5,2020.2.10,MacIntel,60,61025ae37ef11b136ea224fe,,,,,,,,,4279,67,34,1,0,0,response1disk,,6,11,4,1,0,0,rectangle,11,4,1,0,0,,,,,,,11,4,1,0,0,,0,55,55,75,1,
,,,,,,,,,,,,,FF,,,,,,,,1.032,,,,,,,,,,,,,,,,,,,,,,60fd8a9b878fb74422fa9a78,61036f7647f5f4229f401fc5,2021-07-29_23h18.57.378,Simcolourproject_2stim_asymm_v5,2020.2.10,MacIntel,60,61025ae37ef11b136ea224fe,,,,,,,,,4143,-24,-72,1,0,0,response5disk,,3,9,-2,1,0,0,rectangle,9,-2,1,0,0,,,,,,,9,-2,1,0,0,,0,56,56,76,1,
,,,,,,,,,,,,,FF,,,,,,,,2.205,,,,,,,,,,,,,,,,,,,,,,60fd8a9b878fb74422fa9a78,61036f7647f5f4229f401fc5,2021-07-29_23h18.57.378,Simcolourproject_2stim_asymm_v5,2020.2.10,MacIntel,60,61025ae37ef11b136ea224fe,,,,,,,,,2250,39,53,1,0,0,response1disk,,7,14,-2,1,0,0,rectangle,14,-2,1,0,0,,,,,,,14,-2,1,0,0,,0,57,57,145,1,
,,,,,,,,,,,,,FF,,,,,,,,0.87,,,,,,,,,,,,,,,,,,,,,,60fd8a9b878fb74422fa9a78,61036f7647f5f4229f401fc5,2021-07-29_23h18.57.378,Simcolourproject_2stim_asymm_v5,2020.2.10,MacIntel,60,61025ae37ef11b136ea224fe,,,,,,,,,3629,32,48,1,0,0,response1disk,,7,15,2,1,0,0,rectangle,15,2,1,0,0,,,,,,,15,2,1,0,0,,0,58,58,61,1,
,,,,,,,,,,,,,FF,,,,,,,,0.832,,,,,,,,,,,,,,,,,,,,,,60fd8a9b878fb74422fa9a78,61036f7647f5f4229f401fc5,2021-07-29_23h18.57.378,Simcolourproject_2stim_asymm_v5,2020.2.10,MacIntel,60,61025ae37ef11b136ea224fe,,,,,,,,,2575,42,60,1,0,0,response1disk,,7,16,5,1,0,0,rectangle,16,5,1,0,0,,,,,,,16,5,1,0,0,,0,59,59,155,1,
,,,,,,,,,,,,,FF,,,,,,,,1.083,,,,,,,,,,,,,,,,,,,,,,60fd8a9b878fb74422fa9a78,61036f7647f5f4229f401fc5,2021-07-29_23h18.57.378,Simcolourproject_2stim_asymm_v5,2020.2.10,MacIntel,60,61025ae37ef11b136ea224fe,,,,,,,,,3819,48,23,1,0,0,response1disk,,6,9,9,1,0,0,rectangle,9,9,1,0,0,,,,,,,9,9,1,0,0,,0,60,60,151,1,
,,,,,,,,,,,,,FF,,,,,,,,0.818,,,,,,,,,,,,,,,,,,,,,,60fd8a9b878fb74422fa9a78,61036f7647f5f4229f401fc5,2021-07-29_23h18.57.378,Simcolourproject_2stim_asymm_v5,2020.2.10,MacIntel,60,61025ae37ef11b136ea224fe,,,,,,,,,3174,25,60,1,0,0,response1disk,,7,11,3,1,0,0,rectangle,11,3,1,0,0,,,,,,,11,3,1,0,0,,0,61,61,8,1,
,,,,,,,,,,,,,FF,,,,,,,,2.299,,,,,,,,,,,,,,,,,,,,,,60fd8a9b878fb74422fa9a78,61036f7647f5f4229f401fc5,2021-07-29_23h18.57.378,Simcolourproject_2stim_asymm_v5,2020.2.10,MacIntel,60,61025ae37ef11b136ea224fe,,,,,,,,,3290,-26,51,1,0,0,response7disk,,0,5,0,1,0,0,rectangle,5,0,1,0,0,,,,,,,5,0,1,0,0,,0,62,62,3,1,
,,,,,,,,,,,,,FF,,,,,,,,1.038,,,,,,,,,,,,,,,,,,,,,,60fd8a9b878fb74422fa9a78,61036f7647f5f4229f401fc5,2021-07-29_23h18.57.378,Simcolourproject_2stim_asymm_v5,2020.2.10,MacIntel,60,61025ae37ef11b136ea224fe,,,,,,,,,3605,37,59,1,0,0,response1disk,,7,12,12,1,0,0,rectangle,12,12,1,0,0,,,,,,,12,12,1,0,0,,0,63,63,93,1,
,,,,,,,,,,,,,FF,,,,,,,,1.092,,,,,,,,,,,,,,,,,,,,,,60fd8a9b878fb74422fa9a78,61036f7647f5f4229f401fc5,2021-07-29_23h18.57.378,Simcolourproject_2stim_asymm_v5,2020.2.10,MacIntel,60,61025ae37ef11b136ea224fe,,,,,,,,,710,45,69,1,0,0,response1disk,,7,16,3,1,0,0,rectangle,16,3,1,0,0,,,,,,,16,3,1,0,0,,0,64,64,30,1,
,,,,,,,,,,,,,FF,,,,,,,,1.617,,,,,,,,,,,,,,,,,,,,,,60fd8a9b878fb74422fa9a78,61036f7647f5f4229f401fc5,2021-07-29_23h18.57.378,Simcolourproject_2stim_asymm_v5,2020.2.10,MacIntel,60,61025ae37ef11b136ea224fe,,,,,,,,,3258,57,32,1,0,0,response1disk,,6,6,0,1,0,0,rectangle,6,0,1,0,0,,,,,,,6,0,1,0,0,,0,65,65,85,1,
,,,,,,,,,,,,,FF,,,,,,,,0.95,,,,,,,,,,,,,,,,,,,,,,60fd8a9b878fb74422fa9a78,61036f7647f5f4229f401fc5,2021-07-29_23h18.57.378,Simcolourproject_2stim_asymm_v5,2020.2.10,MacIntel,60,61025ae37ef11b136ea224fe,,,,,,,,,737,67,36,1,0,0,response1disk,,6,14,-1,1,0,0,rectangle,14,-1,1,0,0,,,,,,,14,-1,1,0,0,,0,66,66,38,1,
,,,,,,,,,,,,,FF,,,,,,,,0.977,,,,,,,,,,,,,,,,,,,,,,60fd8a9b878fb74422fa9a78,61036f7647f5f4229f401fc5,2021-07-29_23h18.57.378,Simcolourproject_2stim_asymm_v5,2020.2.10,MacIntel,60,61025ae37ef11b136ea224fe,,,,,,,,,3365,37,48,1,0,0,response1disk,,7,-2,-18,1,0,0,rectangle,-2,-18,1,0,0,,,,,,,-2,-18,1,0,0,,0,67,67,82,1,
,,,,,,,,,,,,,FF,,,,,,,,1.061,,,,,,,,,,,,,,,,,,,,,,60fd8a9b878fb74422fa9a78,61036f7647f5f4229f401fc5,2021-07-29_23h18.57.378,Simcolourproject_2stim_asymm_v5,2020.2.10,MacIntel,60,61025ae37ef11b136ea224fe,,,,,,,,,1545,28,64,1,0,0,response1disk,,7,5,8,1,0,0,rectangle,5,8,1,0,0,,,,,,,5,8,1,0,0,,0,68,68,90,1,
,,,,,,,,,,,,,FF,,,,,,,,1.1,,,,,,,,,,,,,,,,,,,,,,60fd8a9b878fb74422fa9a78,61036f7647f5f4229f401fc5,2021-07-29_23h18.57.378,Simcolourproject_2stim_asymm_v5,2020.2.10,MacIntel,60,61025ae37ef11b136ea224fe,,,,,,,,,995,62,46,1,0,0,response1disk,,6,13,7,1,0,0,rectangle,13,7,1,0,0,,,,,,,13,7,1,0,0,,0,69,69,98,1,
,,,,,,,,,,,,,FF,,,,,,,,0.971,,,,,,,,,,,,,,,,,,,,,,60fd8a9b878fb74422fa9a78,61036f7647f5f4229f401fc5,2021-07-29_23h18.57.378,Simcolourproject_2stim_asymm_v5,2020.2.10,MacIntel,60,61025ae37ef11b136ea224fe,,,,,,,,,1439,31,56,1,0,0,response1disk,,7,20,12,1,0,0,rectangle,-62,-20,1,0,0,response5disk_3,TRUE,2,2,"[55,199,71,91,84,251,317,88,1,131,310,320,308,30,39,260,133,230,193,317]",2.065,-2,-6,1,0,0,rectangle,0,70,70,0,1,
,,,,,,,,,,,,,FF,,,,,,,,1.546,,,,,,,,,,,,,,,,,,,,,,60fd8a9b878fb74422fa9a78,61036f7647f5f4229f401fc5,2021-07-29_23h18.57.378,Simcolourproject_2stim_asymm_v5,2020.2.10,MacIntel,60,61025ae37ef11b136ea224fe,,,,,,,,,3635,70,-34,1,0,0,response3disk,,5,0,0,1,0,0,rectangle,0,0,1,0,0,,,,,,,0,0,1,0,0,,0,71,71,79,1,
,,,,,,,,,,,,,FF,,,,,,,,0.98,,,,,,,,,,,,,,,,,,,,,,60fd8a9b878fb74422fa9a78,61036f7647f5f4229f401fc5,2021-07-29_23h18.57.378,Simcolourproject_2stim_asymm_v5,2020.2.10,MacIntel,60,61025ae37ef11b136ea224fe,,,,,,,,,853,26,57,1,0,0,response1disk,,7,8,1,1,0,0,rectangle,8,1,1,0,0,,,,,,,8,1,1,0,0,,0,72,72,46,1,
,,,,,,,,,,,,,FF,,,,,,,,0.96,,,,,,,,,,,,,,,,,,,,,,60fd8a9b878fb74422fa9a78,61036f7647f5f4229f401fc5,2021-07-29_23h18.57.378,Simcolourproject_2stim_asymm_v5,2020.2.10,MacIntel,60,61025ae37ef11b136ea224fe,,,,,,,,,4049,-49,-41,1,0,0,response5disk,,2,-9,-7,1,0,0,rectangle,-9,-7,1,0,0,,,,,,,-9,-7,1,0,0,,0,73,73,23,1,
,,,,,,,,,,,,,FF,,,,,,,,1.159,,,,,,,,,,,,,,,,,,,,,,60fd8a9b878fb74422fa9a78,61036f7647f5f4229f401fc5,2021-07-29_23h18.57.378,Simcolourproject_2stim_asymm_v5,2020.2.10,MacIntel,60,61025ae37ef11b136ea224fe,,,,,,,,,4125,-22,-57,1,0,0,response5disk,,3,5,3,1,0,0,rectangle,5,3,1,0,0,,,,,,,5,3,1,0,0,,0,74,74,147,1,
,,,,,,,,,,,,,FF,,,,,,,,1.084,,,,,,,,,,,,,,,,,,,,,,60fd8a9b878fb74422fa9a78,61036f7647f5f4229f401fc5,2021-07-29_23h18.57.378,Simcolourproject_2stim_asymm_v5,2020.2.10,MacIntel,60,61025ae37ef11b136ea224fe,,,,,,,,,2142,33,64,1,0,0,response1disk,,7,12,0,1,0,0,rectangle,12,0,1,0,0,,,,,,,12,0,1,0,0,,0,75,75,112,1,
,,,,,,,,,,,,,FF,,,,,,,,0.847,,,,,,,,,,,,,,,,,,,,,,60fd8a9b878fb74422fa9a78,61036f7647f5f4229f401fc5,2021-07-29_23h18.57.378,Simcolourproject_2stim_asymm_v5,2020.2.10,MacIntel,60,61025ae37ef11b136ea224fe,,,,,,,,,746,32,55,1,0,0,response1disk,,7,7,-9,1,0,0,rectangle,7,-9,1,0,0,,,,,,,7,-9,1,0,0,,0,76,76,122,1,
,,,,,,,,,,,,,FF,,,,,,,,0.989,,,,,,,,,,,,,,,,,,,,,,60fd8a9b878fb74422fa9a78,61036f7647f5f4229f401fc5,2021-07-29_23h18.57.378,Simcolourproject_2stim_asymm_v5,2020.2.10,MacIntel,60,61025ae37ef11b136ea224fe,,,,,,,,,4267,-36,-55,1,0,0,response5disk,,3,2,0,1,0,0,rectangle,2,0,1,0,0,,,,,,,2,0,1,0,0,,0,77,77,49,1,
,,,,,,,,,,,,,FF,,,,,,,,1.102,,,,,,,,,,,,,,,,,,,,,,60fd8a9b878fb74422fa9a78,61036f7647f5f4229f401fc5,2021-07-29_23h18.57.378,Simcolourproject_2stim_asymm_v5,2020.2.10,MacIntel,60,61025ae37ef11b136ea224fe,,,,,,,,,3690,46,67,1,0,0,response1disk,,7,15,-8,1,0,0,rectangle,15,-8,1,0,0,,,,,,,15,-8,1,0,0,,0,78,78,96,1,
,,,,,,,,,,,,,FF,,,,,,,,1.684,,,,,,,,,,,,,,,,,,,,,,60fd8a9b878fb74422fa9a78,61036f7647f5f4229f401fc5,2021-07-29_23h18.57.378,Simcolourproject_2stim_asymm_v5,2020.2.10,MacIntel,60,61025ae37ef11b136ea224fe,,,,,,,,,3544,-21,-76,1,0,0,response5disk,,3,9,1,1,0,0,rectangle,9,1,1,0,0,,,,,,,9,1,1,0,0,,0,79,79,62,1,
,,,,,,,,,,,,,FF,,,,,,,,0.928,,,,,,,,,,,,,,,,,,,,,,60fd8a9b878fb74422fa9a78,61036f7647f5f4229f401fc5,2021-07-29_23h18.57.378,Simcolourproject_2stim_asymm_v5,2020.2.10,MacIntel,60,61025ae37ef11b136ea224fe,,,,,,,,,2632,50,66,1,0,0,response1disk,,7,10,-1,1,0,0,rectangle,10,-1,1,0,0,,,,,,,10,-1,1,0,0,,0,80,80,15,1,
,,,,,,,,,,,,,FF,,,,,,,,1.084,,,,,,,,,,,,,,,,,,,,,,60fd8a9b878fb74422fa9a78,61036f7647f5f4229f401fc5,2021-07-29_23h18.57.378,Simcolourproject_2stim_asymm_v5,2020.2.10,MacIntel,60,61025ae37ef11b136ea224fe,,,,,,,,,4243,28,51,1,0,0,response1disk,,7,17,2,1,0,0,rectangle,17,2,1,0,0,,,,,,,17,2,1,0,0,,0,81,81,100,1,
,,,,,,,,,,,,,FF,,,,,,,,0.943,,,,,,,,,,,,,,,,,,,,,,60fd8a9b878fb74422fa9a78,61036f7647f5f4229f401fc5,2021-07-29_23h18.57.378,Simcolourproject_2stim_asymm_v5,2020.2.10,MacIntel,60,61025ae37ef11b136ea224fe,,,,,,,,,3391,-21,-55,1,0,0,response5disk,,3,1,1,1,0,0,rectangle,1,1,1,0,0,,,,,,,1,1,1,0,0,,0,82,82,131,1,
,,,,,,,,,,,,,FF,,,,,,,,1.445,,,,,,,,,,,,,,,,,,,,,,60fd8a9b878fb74422fa9a78,61036f7647f5f4229f401fc5,2021-07-29_23h18.57.378,Simcolourproject_2stim_asymm_v5,2020.2.10,MacIntel,60,61025ae37ef11b136ea224fe,,,,,,,,,2053,45,-19,1,0,0,response3disk,,5,22,-2,1,0,0,rectangle,80,35,1,0,0,response1disk_3,TRUE,6,6,"[55,199,71,91,84,251,317,88,1,131,310,320,308,30,39,260,133,230,193,317]",1.802,9,-7,1,0,0,rectangle,0,83,83,86,1,
,,,,,,,,,,,,,FF,,,,,,,,0.971,,,,,,,,,,,,,,,,,,,,,,60fd8a9b878fb74422fa9a78,61036f7647f5f4229f401fc5,2021-07-29_23h18.57.378,Simcolourproject_2stim_asymm_v5,2020.2.10,MacIntel,60,61025ae37ef11b136ea224fe,,,,,,,,,3001,-33,-69,1,0,0,response5disk,,3,12,0,1,0,0,rectangle,12,0,1,0,0,,,,,,,12,0,1,0,0,,0,84,84,42,1,
,,,,,,,,,,,,,FF,,,,,,,,1.076,,,,,,,,,,,,,,,,,,,,,,60fd8a9b878fb74422fa9a78,61036f7647f5f4229f401fc5,2021-07-29_23h18.57.378,Simcolourproject_2stim_asymm_v5,2020.2.10,MacIntel,60,61025ae37ef11b136ea224fe,,,,,,,,,2700,38,66,1,0,0,response1disk,,7,-3,-6,1,0,0,rectangle,-3,-6,1,0,0,,,,,,,-3,-6,1,0,0,,0,85,85,17,1,
,,,,,,,,,,,,,FF,,,,,,,,1.366,,,,,,,,,,,,,,,,,,,,,,60fd8a9b878fb74422fa9a78,61036f7647f5f4229f401fc5,2021-07-29_23h18.57.378,Simcolourproject_2stim_asymm_v5,2020.2.10,MacIntel,60,61025ae37ef11b136ea224fe,,,,,,,,,4305,-30,58,1,0,0,response7disk,,0,-10,-8,1,0,0,rectangle,-10,-8,1,0,0,,,,,,,-10,-8,1,0,0,,0,86,86,45,1,
,,,,,,,,,,,,,FF,,,,,,,,1.02,,,,,,,,,,,,,,,,,,,,,,60fd8a9b878fb74422fa9a78,61036f7647f5f4229f401fc5,2021-07-29_23h18.57.378,Simcolourproject_2stim_asymm_v5,2020.2.10,MacIntel,60,61025ae37ef11b136ea224fe,,,,,,,,,1648,34,57,1,0,0,response1disk,,7,11,5,1,0,0,rectangle,67,30,1,0,0,response1disk_3,TRUE,6,6,"[55,199,71,91,84,251,317,88,1,131,310,320,308,30,39,260,133,230,193,317]",1.534,11,-5,1,0,0,rectangle,0,87,87,97,1,
,,,,,,,,,,,,,FF,,,,,,,,1.013,,,,,,,,,,,,,,,,,,,,,,60fd8a9b878fb74422fa9a78,61036f7647f5f4229f401fc5,2021-07-29_23h18.57.378,Simcolourproject_2stim_asymm_v5,2020.2.10,MacIntel,60,61025ae37ef11b136ea224fe,,,,,,,,,2132,39,59,1,0,0,response1disk,,7,14,8,1,0,0,rectangle,14,8,1,0,0,,,,,,,14,8,1,0,0,,0,88,88,108,1,
,,,,,,,,,,,,,FF,,,,,,,,1.016,,,,,,,,,,,,,,,,,,,,,,60fd8a9b878fb74422fa9a78,61036f7647f5f4229f401fc5,2021-07-29_23h18.57.378,Simcolourproject_2stim_asymm_v5,2020.2.10,MacIntel,60,61025ae37ef11b136ea224fe,,,,,,,,,3396,-23,-47,1,0,0,response5disk,,3,-11,-10,1,0,0,rectangle,-11,-10,1,0,0,,,,,,,-11,-10,1,0,0,,0,89,89,94,1,
,,,,,,,,,,,,,FF,,,,,,,,0.844,,,,,,,,,,,,,,,,,,,,,,60fd8a9b878fb74422fa9a78,61036f7647f5f4229f401fc5,2021-07-29_23h18.57.378,Simcolourproject_2stim_asymm_v5,2020.2.10,MacIntel,60,61025ae37ef11b136ea224fe,,,,,,,,,2980,25,52,1,0,0,response1disk,,7,16,5,1,0,0,rectangle,-57,-21,1,0,0,response5disk_3,TRUE,2,2,"[55,199,71,91,84,251,317,88,1,131,310,320,308,30,39,260,133,230,193,317]",1.834,-4,4,1,0,0,rectangle,0,90,90,116,1,
,,,,,,,,,,,,,FF,,,,,,,,1.069,,,,,,,,,,,,,,,,,,,,,,60fd8a9b878fb74422fa9a78,61036f7647f5f4229f401fc5,2021-07-29_23h18.57.378,Simcolourproject_2stim_asymm_v5,2020.2.10,MacIntel,60,61025ae37ef11b136ea224fe,,,,,,,,,2567,27,58,1,0,0,response1disk,,7,6,1,1,0,0,rectangle,6,1,1,0,0,,,,,,,6,1,1,0,0,,0,91,91,110,1,
,,,,,,,,,,,,,FF,,,,,,,,0.818,,,,,,,,,,,,,,,,,,,,,,60fd8a9b878fb74422fa9a78,61036f7647f5f4229f401fc5,2021-07-29_23h18.57.378,Simcolourproject_2stim_asymm_v5,2020.2.10,MacIntel,60,61025ae37ef11b136ea224fe,,,,,,,,,4018,19,52,1,0,0,response1disk,,7,12,4,1,0,0,rectangle,12,4,1,0,0,,,,,,,12,4,1,0,0,,0,92,92,95,1,
,,,,,,,,,,,,,FF,,,,,,,,0.801,,,,,,,,,,,,,,,,,,,,,,60fd8a9b878fb74422fa9a78,61036f7647f5f4229f401fc5,2021-07-29_23h18.57.378,Simcolourproject_2stim_asymm_v5,2020.2.10,MacIntel,60,61025ae37ef11b136ea224fe,,,,,,,,,2524,54,28,1,0,0,response1disk,,6,3,-5,1,0,0,rectangle,3,-5,1,0,0,,,,,,,3,-5,1,0,0,,0,93,93,6,1,
,,,,,,,,,,,,,FF,,,,,,,,0.864,,,,,,,,,,,,,,,,,,,,,,60fd8a9b878fb74422fa9a78,61036f7647f5f4229f401fc5,2021-07-29_23h18.57.378,Simcolourproject_2stim_asymm_v5,2020.2.10,MacIntel,60,61025ae37ef11b136ea224fe,,,,,,,,,3709,-20,-55,1,0,0,response5disk,,3,-6,0,1,0,0,rectangle,-6,0,1,0,0,,,,,,,-6,0,1,0,0,,0,94,94,53,1,
,,,,,,,,,,,,,FF,,,,,,,,0.829,,,,,,,,,,,,,,,,,,,,,,60fd8a9b878fb74422fa9a78,61036f7647f5f4229f401fc5,2021-07-29_23h18.57.378,Simcolourproject_2stim_asymm_v5,2020.2.10,MacIntel,60,61025ae37ef11b136ea224fe,,,,,,,,,3560,-23,-40,1,0,0,response5disk,,3,-8,5,1,0,0,rectangle,-8,5,1,0,0,,,,,,,-8,5,1,0,0,,0,95,95,5,1,
,,,,,,,,,,,,,FF,,,,,,,,0.798,,,,,,,,,,,,,,,,,,,,,,60fd8a9b878fb74422fa9a78,61036f7647f5f4229f401fc5,2021-07-29_23h18.57.378,Simcolourproject_2stim_asymm_v5,2020.2.10,MacIntel,60,61025ae37ef11b136ea224fe,,,,,,,,,1116,31,67,1,0,0,response1disk,,7,14,-2,1,0,0,rectangle,14,-2,1,0,0,,,,,,,14,-2,1,0,0,,0,96,96,84,1,
,,,,,,,,,,,,,FF,,,,,,,,1.148,,,,,,,,,,,,,,,,,,,,,,60fd8a9b878fb74422fa9a78,61036f7647f5f4229f401fc5,2021-07-29_23h18.57.378,Simcolourproject_2stim_asymm_v5,2020.2.10,MacIntel,60,61025ae37ef11b136ea224fe,,,,,,,,,547,66,25,1,0,0,response1disk,,6,12,5,1,0,0,rectangle,12,5,1,0,0,,,,,,,12,5,1,0,0,,0,97,97,114,1,
,,,,,,,,,,,,,FF,,,,,,,,0.899,,,,,,,,,,,,,,,,,,,,,,60fd8a9b878fb74422fa9a78,61036f7647f5f4229f401fc5,2021-07-29_23h18.57.378,Simcolourproject_2stim_asymm_v5,2020.2.10,MacIntel,60,61025ae37ef11b136ea224fe,,,,,,,,,1678,40,66,1,0,0,response1disk,,7,27,9,1,0,0,rectangle,27,9,1,0,0,,,,,,,27,9,1,0,0,,0,98,98,10,1,
,,,,,,,,,,,,,FF,,,,,,,,0.716,,,,,,,,,,,,,,,,,,,,,,60fd8a9b878fb74422fa9a78,61036f7647f5f4229f401fc5,2021-07-29_23h18.57.378,Simcolourproject_2stim_asymm_v5,2020.2.10,MacIntel,60,61025ae37ef11b136ea224fe,,,,,,,,,325,60,23,1,0,0,response1disk,,6,21,14,1,0,0,rectangle,21,14,1,0,0,,,,,,,21,14,1,0,0,,0,99,99,140,1,
,,,,,,,,,,,,,FF,,,,,,,,1.136,,,,,,,,,,,,,,,,,,,,,,60fd8a9b878fb74422fa9a78,61036f7647f5f4229f401fc5,2021-07-29_23h18.57.378,Simcolourproject_2stim_asymm_v5,2020.2.10,MacIntel,60,61025ae37ef11b136ea224fe,,,,,,,,,2934,-47,-35,1,0,0,response5disk,,2,-6,1,1,0,0,rectangle,-6,1,1,0,0,,,,,,,-6,1,1,0,0,,0,100,100,118,1,
,,,,,,,,,,,,,FF,,,,,,,,0.864,,,,,,,,,,,,,,,,,,,,,,60fd8a9b878fb74422fa9a78,61036f7647f5f4229f401fc5,2021-07-29_23h18.57.378,Simcolourproject_2stim_asymm_v5,2020.2.10,MacIntel,60,61025ae37ef11b136ea224fe,,,,,,,,,1577,34,63,1,0,0,response1disk,,7,17,5,1,0,0,rectangle,17,5,1,0,0,,,,,,,17,5,1,0,0,,0,101,101,72,1,
,,,,,,,,,,,,,FF,,,,,,,,1.034,,,,,,,,,,,,,,,,,,,,,,60fd8a9b878fb74422fa9a78,61036f7647f5f4229f401fc5,2021-07-29_23h18.57.378,Simcolourproject_2stim_asymm_v5,2020.2.10,MacIntel,60,61025ae37ef11b136ea224fe,,,,,,,,,2034,-50,-27,1,0,0,response5disk,,2,-4,-1,1,0,0,rectangle,-4,-1,1,0,0,,,,,,,-4,-1,1,0,0,,0,102,102,74,1,
,,,,,,,,,,,,,FF,,,,,,,,1.866,,,,,,,,,,,,,,,,,,,,,,60fd8a9b878fb74422fa9a78,61036f7647f5f4229f401fc5,2021-07-29_23h18.57.378,Simcolourproject_2stim_asymm_v5,2020.2.10,MacIntel,60,61025ae37ef11b136ea224fe,,,,,,,,,3865,65,-23,1,0,0,response3disk,,5,8,1,1,0,0,rectangle,8,1,1,0,0,,,,,,,8,1,1,0,0,,0,103,103,83,1,
,,,,,,,,,,,,,FF,,,,,,,,0.951,,,,,,,,,,,,,,,,,,,,,,60fd8a9b878fb74422fa9a78,61036f7647f5f4229f401fc5,2021-07-29_23h18.57.378,Simcolourproject_2stim_asymm_v5,2020.2.10,MacIntel,60,61025ae37ef11b136ea224fe,,,,,,,,,1223,-33,-56,1,0,0,response5disk,,3,2,5,1,0,0,rectangle,2,5,1,0,0,,,,,,,2,5,1,0,0,,0,104,104,103,1,
,,,,,,,,,,,,,FF,,,,,,,,0.719,,,,,,,,,,,,,,,,,,,,,,60fd8a9b878fb74422fa9a78,61036f7647f5f4229f401fc5,2021-07-29_23h18.57.378,Simcolourproject_2stim_asymm_v5,2020.2.10,MacIntel,60,61025ae37ef11b136ea224fe,,,,,,,,,1689,27,61,1,0,0,response1disk,,7,21,-12,1,0,0,rectangle,21,-12,1,0,0,,,,,,,21,-12,1,0,0,,0,105,105,54,1,
,,,,,,,,,,,,,FF,,,,,,,,1.132,,,,,,,,,,,,,,,,,,,,,,60fd8a9b878fb74422fa9a78,61036f7647f5f4229f401fc5,2021-07-29_23h18.57.378,Simcolourproject_2stim_asymm_v5,2020.2.10,MacIntel,60,61025ae37ef11b136ea224fe,,,,,,,,,188,-53,-36,1,0,0,response5disk,,2,2,-10,1,0,0,rectangle,2,-10,1,0,0,,,,,,,2,-10,1,0,0,,0,106,106,153,1,
,,,,,,,,,,,,,FF,,,,,,,,0.757,,,,,,,,,,,,,,,,,,,,,,60fd8a9b878fb74422fa9a78,61036f7647f5f4229f401fc5,2021-07-29_23h18.57.378,Simcolourproject_2stim_asymm_v5,2020.2.10,MacIntel,60,61025ae37ef11b136ea224fe,,,,,,,,,3057,-44,-31,1,0,0,response5disk,,2,-9,-10,1,0,0,rectangle,-9,-10,1,0,0,,,,,,,-9,-10,1,0,0,,0,107,107,130,1,
,,,,,,,,,,,,,FF,,,,,,,,0.884,,,,,,,,,,,,,,,,,,,,,,60fd8a9b878fb74422fa9a78,61036f7647f5f4229f401fc5,2021-07-29_23h18.57.378,Simcolourproject_2stim_asymm_v5,2020.2.10,MacIntel,60,61025ae37ef11b136ea224fe,,,,,,,,,3990,35,56,1,0,0,response1disk,,7,18,-2,1,0,0,rectangle,18,-2,1,0,0,,,,,,,18,-2,1,0,0,,0,108,108,2,1,
,,,,,,,,,,,,,FF,,,,,,,,0.716,,,,,,,,,,,,,,,,,,,,,,60fd8a9b878fb74422fa9a78,61036f7647f5f4229f401fc5,2021-07-29_23h18.57.378,Simcolourproject_2stim_asymm_v5,2020.2.10,MacIntel,60,61025ae37ef11b136ea224fe,,,,,,,,,1581,31,44,1,0,0,response1disk,,7,22,10,1,0,0,rectangle,22,10,1,0,0,,,,,,,22,10,1,0,0,,0,109,109,139,1,
,,,,,,,,,,,,,FF,,,,,,,,1.133,,,,,,,,,,,,,,,,,,,,,,60fd8a9b878fb74422fa9a78,61036f7647f5f4229f401fc5,2021-07-29_23h18.57.378,Simcolourproject_2stim_asymm_v5,2020.2.10,MacIntel,60,61025ae37ef11b136ea224fe,,,,,,,,,1932,37,50,1,0,0,response1disk,,7,32,1,1,0,0,rectangle,32,1,1,0,0,,,,,,,32,1,1,0,0,,0,110,110,47,1,
,,,,,,,,,,,,,FF,,,,,,,,0.977,,,,,,,,,,,,,,,,,,,,,,60fd8a9b878fb74422fa9a78,61036f7647f5f4229f401fc5,2021-07-29_23h18.57.378,Simcolourproject_2stim_asymm_v5,2020.2.10,MacIntel,60,61025ae37ef11b136ea224fe,,,,,,,,,979,36,54,1,0,0,response1disk,,7,25,13,1,0,0,rectangle,25,13,1,0,0,,,,,,,25,13,1,0,0,,0,111,111,120,1,
,,,,,,,,,,,,,FF,,,,,,,,0.682,,,,,,,,,,,,,,,,,,,,,,60fd8a9b878fb74422fa9a78,61036f7647f5f4229f401fc5,2021-07-29_23h18.57.378,Simcolourproject_2stim_asymm_v5,2020.2.10,MacIntel,60,61025ae37ef11b136ea224fe,,,,,,,,,4341,38,71,1,0,0,response1disk,,7,24,8,1,0,0,rectangle,24,8,1,0,0,,,,,,,24,8,1,0,0,,0,112,112,25,1,
,,,,,,,,,,,,,FF,,,,,,,,0.666,,,,,,,,,,,,,,,,,,,,,,60fd8a9b878fb74422fa9a78,61036f7647f5f4229f401fc5,2021-07-29_23h18.57.378,Simcolourproject_2stim_asymm_v5,2020.2.10,MacIntel,60,61025ae37ef11b136ea224fe,,,,,,,,,378,31,68,1,0,0,response1disk,,7,23,7,1,0,0,rectangle,23,7,1,0,0,,,,,,,23,7,1,0,0,,0,113,113,24,1,
,,,,,,,,,,,,,FF,,,,,,,,0.592,,,,,,,,,,,,,,,,,,,,,,60fd8a9b878fb74422fa9a78,61036f7647f5f4229f401fc5,2021-07-29_23h18.57.378,Simcolourproject_2stim_asymm_v5,2020.2.10,MacIntel,60,61025ae37ef11b136ea224fe,,,,,,,,,4114,34,79,1,0,0,response1disk,,7,19,10,1,0,0,rectangle,19,10,1,0,0,,,,,,,19,10,1,0,0,,0,114,114,70,1,
,,,,,,,,,,,,,FF,,,,,,,,0.541,,,,,,,,,,,,,,,,,,,,,,60fd8a9b878fb74422fa9a78,61036f7647f5f4229f401fc5,2021-07-29_23h18.57.378,Simcolourproject_2stim_asymm_v5,2020.2.10,MacIntel,60,61025ae37ef11b136ea224fe,,,,,,,,,2313,33,56,1,0,0,response1disk,,7,27,12,1,0,0,rectangle,27,12,1,0,0,,,,,,,27,12,1,0,0,,0,115,115,69,1,
,,,,,,,,,,,,,FF,,,,,,,,0.884,,,,,,,,,,,,,,,,,,,,,,60fd8a9b878fb74422fa9a78,61036f7647f5f4229f401fc5,2021-07-29_23h18.57.378,Simcolourproject_2stim_asymm_v5,2020.2.10,MacIntel,60,61025ae37ef11b136ea224fe,,,,,,,,,3889,55,30,1,0,0,response1disk,,6,-3,15,1,0,0,rectangle,-3,15,1,0,0,,,,,,,-3,15,1,0,0,,0,116,116,152,1,
,,,,,,,,,,,,,FF,,,,,,,,1.41,,,,,,,,,,,,,,,,,,,,,,60fd8a9b878fb74422fa9a78,61036f7647f5f4229f401fc5,2021-07-29_23h18.57.378,Simcolourproject_2stim_asymm_v5,2020.2.10,MacIntel,60,61025ae37ef11b136ea224fe,,,,,,,,,1003,34,58,1,0,0,response1disk,,7,12,-5,1,0,0,rectangle,12,-5,1,0,0,,,,,,,12,-5,1,0,0,,0,117,117,44,1,
,,,,,,,,,,,,,FF,,,,,,,,1.077,,,,,,,,,,,,,,,,,,,,,,60fd8a9b878fb74422fa9a78,61036f7647f5f4229f401fc5,2021-07-29_23h18.57.378,Simcolourproject_2stim_asymm_v5,2020.2.10,MacIntel,60,61025ae37ef11b136ea224fe,,,,,,,,,3975,25,-51,1,0,0,response3disk,,4,-6,-12,1,0,0,rectangle,-6,-12,1,0,0,,,,,,,-6,-12,1,0,0,,0,118,118,137,1,
,,,,,,,,,,,,,FF,,,,,,,,1.735,,,,,,,,,,,,,,,,,,,,,,60fd8a9b878fb74422fa9a78,61036f7647f5f4229f401fc5,2021-07-29_23h18.57.378,Simcolourproject_2stim_asymm_v5,2020.2.10,MacIntel,60,61025ae37ef11b136ea224fe,,,,,,,,,809,78,33,1,0,0,response1disk,,6,24,1,1,0,0,rectangle,24,1,1,0,0,,,,,,,24,1,1,0,0,,0,119,119,59,1,
,,,,,,,,,,,,,FF,,,,,,,,0.958,,,,,,,,,,,,,,,,,,,,,,60fd8a9b878fb74422fa9a78,61036f7647f5f4229f401fc5,2021-07-29_23h18.57.378,Simcolourproject_2stim_asymm_v5,2020.2.10,MacIntel,60,61025ae37ef11b136ea224fe,,,,,,,,,4158,44,59,1,0,0,response1disk,,7,32,13,1,0,0,rectangle,32,13,1,0,0,,,,,,,32,13,1,0,0,,0,120,120,159,1,
,,,,,,,,,,,,,FF,,,,,,,,0.907,,,,,,,,,,,,,,,,,,,,,,60fd8a9b878fb74422fa9a78,61036f7647f5f4229f401fc5,2021-07-29_23h18.57.378,Simcolourproject_2stim_asymm_v5,2020.2.10,MacIntel,60,61025ae37ef11b136ea224fe,,,,,,,,,662,32,71,1,0,0,response1disk,,7,7,0,1,0,0,rectangle,7,0,1,0,0,,,,,,,7,0,1,0,0,,0,121,121,35,1,
,,,,,,,,,,,,,FF,,,,,,,,0.717,,,,,,,,,,,,,,,,,,,,,,60fd8a9b878fb74422fa9a78,61036f7647f5f4229f401fc5,2021-07-29_23h18.57.378,Simcolourproject_2stim_asymm_v5,2020.2.10,MacIntel,60,61025ae37ef11b136ea224fe,,,,,,,,,2014,33,74,1,0,0,response1disk,,7,2,2,1,0,0,rectangle,2,2,1,0,0,,,,,,,2,2,1,0,0,,0,122,122,138,1,
,,,,,,,,,,,,,FF,,,,,,,,0.741,,,,,,,,,,,,,,,,,,,,,,60fd8a9b878fb74422fa9a78,61036f7647f5f4229f401fc5,2021-07-29_23h18.57.378,Simcolourproject_2stim_asymm_v5,2020.2.10,MacIntel,60,61025ae37ef11b136ea224fe,,,,,,,,,1195,38,61,1,0,0,response1disk,,7,-2,-7,1,0,0,rectangle,-2,-7,1,0,0,,,,,,,-2,-7,1,0,0,,0,123,123,77,1,
,,,,,,,,,,,,,FF,,,,,,,,0.709,,,,,,,,,,,,,,,,,,,,,,60fd8a9b878fb74422fa9a78,61036f7647f5f4229f401fc5,2021-07-29_23h18.57.378,Simcolourproject_2stim_asymm_v5,2020.2.10,MacIntel,60,61025ae37ef11b136ea224fe,,,,,,,,,2576,41,59,1,0,0,response1disk,,7,13,-9,1,0,0,rectangle,13,-9,1,0,0,,,,,,,13,-9,1,0,0,,0,124,124,123,1,
,,,,,,,,,,,,,FF,,,,,,,,1.117,,,,,,,,,,,,,,,,,,,,,,60fd8a9b878fb74422fa9a78,61036f7647f5f4229f401fc5,2021-07-29_23h18.57.378,Simcolourproject_2stim_asymm_v5,2020.2.10,MacIntel,60,61025ae37ef11b136ea224fe,,,,,,,,,2948,-19,53,1,0,0,response7disk,,0,-6,-4,1,0,0,rectangle,-6,-4,1,0,0,,,,,,,-6,-4,1,0,0,,0,125,125,68,1,
,,,,,,,,,,,,,FF,,,,,,,,1.255,,,,,,,,,,,,,,,,,,,,,,60fd8a9b878fb74422fa9a78,61036f7647f5f4229f401fc5,2021-07-29_23h18.57.378,Simcolourproject_2stim_asymm_v5,2020.2.10,MacIntel,60,61025ae37ef11b136ea224fe,,,,,,,,,1156,76,45,1,0,0,response1disk,,6,30,0,1,0,0,rectangle,30,0,1,0,0,,,,,,,30,0,1,0,0,,0,126,126,91,1,
,,,,,,,,,,,,,FF,,,,,,,,1.102,,,,,,,,,,,,,,,,,,,,,,60fd8a9b878fb74422fa9a78,61036f7647f5f4229f401fc5,2021-07-29_23h18.57.378,Simcolourproject_2stim_asymm_v5,2020.2.10,MacIntel,60,61025ae37ef11b136ea224fe,,,,,,,,,2737,29,-44,1,0,0,response3disk,,4,21,-7,1,0,0,rectangle,21,-7,1,0,0,,,,,,,21,-7,1,0,0,,0,127,127,50,1,
,,,,,,,,,,,,,FF,,,,,,,,0.892,,,,,,,,,,,,,,,,,,,,,,60fd8a9b878fb74422fa9a78,61036f7647f5f4229f401fc5,2021-07-29_23h18.57.378,Simcolourproject_2stim_asymm_v5,2020.2.10,MacIntel,60,61025ae37ef11b136ea224fe,,,,,,,,,1876,22,52,1,0,0,response1disk,,7,12,2,1,0,0,rectangle,12,2,1,0,0,,,,,,,12,2,1,0,0,,0,128,128,132,1,
,,,,,,,,,,,,,FF,,,,,,,,1.108,,,,,,,,,,,,,,,,,,,,,,60fd8a9b878fb74422fa9a78,61036f7647f5f4229f401fc5,2021-07-29_23h18.57.378,Simcolourproject_2stim_asymm_v5,2020.2.10,MacIntel,60,61025ae37ef11b136ea224fe,,,,,,,,,2088,24,59,1,0,0,response1disk,,7,16,4,1,0,0,rectangle,16,4,1,0,0,,,,,,,16,4,1,0,0,,0,129,129,133,1,
,,,,,,,,,,,,,FF,,,,,,,,1.434,,,,,,,,,,,,,,,,,,,,,,60fd8a9b878fb74422fa9a78,61036f7647f5f4229f401fc5,2021-07-29_23h18.57.378,Simcolourproject_2stim_asymm_v5,2020.2.10,MacIntel,60,61025ae37ef11b136ea224fe,,,,,,,,,1348,37,60,1,0,0,response1disk,,7,23,7,1,0,0,rectangle,24,-65,1,0,0,response3disk_3,TRUE,4,4,"[55,199,71,91,84,251,317,88,1,131,310,320,308,30,39,260,133,230,193,317]",1.97,18,2,1,0,0,rectangle,0,130,130,158,1,
,,,,,,,,,,,,,FF,,,,,,,,1.685,,,,,,,,,,,,,,,,,,,,,,60fd8a9b878fb74422fa9a78,61036f7647f5f4229f401fc5,2021-07-29_23h18.57.378,Simcolourproject_2stim_asymm_v5,2020.2.10,MacIntel,60,61025ae37ef11b136ea224fe,,,,,,,,,2997,-36,-61,1,0,0,response5disk,,3,-7,7,1,0,0,rectangle,-7,7,1,0,0,,,,,,,-7,7,1,0,0,,0,131,131,107,1,
,,,,,,,,,,,,,FF,,,,,,,,1.309,,,,,,,,,,,,,,,,,,,,,,60fd8a9b878fb74422fa9a78,61036f7647f5f4229f401fc5,2021-07-29_23h18.57.378,Simcolourproject_2stim_asymm_v5,2020.2.10,MacIntel,60,61025ae37ef11b136ea224fe,,,,,,,,,2544,-45,-55,1,0,0,response5disk,,3,5,-3,1,0,0,rectangle,71,31,1,0,0,response1disk_3,TRUE,6,6,"[55,199,71,91,84,251,317,88,1,131,310,320,308,30,39,260,133,230,193,317]",2.604,5,-4,1,0,0,rectangle,0,132,132,141,1,
,,,,,,,,,,,,,FF,,,,,,,,0.91,,,,,,,,,,,,,,,,,,,,,,60fd8a9b878fb74422fa9a78,61036f7647f5f4229f401fc5,2021-07-29_23h18.57.378,Simcolourproject_2stim_asymm_v5,2020.2.10,MacIntel,60,61025ae37ef11b136ea224fe,,,,,,,,,1884,24,54,1,0,0,response1disk,,7,5,1,1,0,0,rectangle,5,1,1,0,0,,,,,,,5,1,1,0,0,,0,133,133,67,1,
,,,,,,,,,,,,,FF,,,,,,,,0.92,,,,,,,,,,,,,,,,,,,,,,60fd8a9b878fb74422fa9a78,61036f7647f5f4229f401fc5,2021-07-29_23h18.57.378,Simcolourproject_2stim_asymm_v5,2020.2.10,MacIntel,60,61025ae37ef11b136ea224fe,,,,,,,,,3758,16,-54,1,0,0,response3disk,,4,3,-10,1,0,0,rectangle,3,-10,1,0,0,,,,,,,3,-10,1,0,0,,0,134,134,20,1,
,,,,,,,,,,,,,FF,,,,,,,,1.417,,,,,,,,,,,,,,,,,,,,,,60fd8a9b878fb74422fa9a78,61036f7647f5f4229f401fc5,2021-07-29_23h18.57.378,Simcolourproject_2stim_asymm_v5,2020.2.10,MacIntel,60,61025ae37ef11b136ea224fe,,,,,,,,,2177,35,-51,1,0,0,response3disk,,4,33,-4,1,0,0,rectangle,33,-4,1,0,0,,,,,,,33,-4,1,0,0,,0,135,135,16,1,
,,,,,,,,,,,,,FF,,,,,,,,1.005,,,,,,,,,,,,,,,,,,,,,,60fd8a9b878fb74422fa9a78,61036f7647f5f4229f401fc5,2021-07-29_23h18.57.378,Simcolourproject_2stim_asymm_v5,2020.2.10,MacIntel,60,61025ae37ef11b136ea224fe,,,,,,,,,1704,32,58,1,0,0,response1disk,,7,12,12,1,0,0,rectangle,12,12,1,0,0,,,,,,,12,12,1,0,0,,0,136,136,126,1,
,,,,,,,,,,,,,FF,,,,,,,,1.502,,,,,,,,,,,,,,,,,,,,,,60fd8a9b878fb74422fa9a78,61036f7647f5f4229f401fc5,2021-07-29_23h18.57.378,Simcolourproject_2stim_asymm_v5,2020.2.10,MacIntel,60,61025ae37ef11b136ea224fe,,,,,,,,,2956,61,-18,1,0,0,response3disk,,5,-1,-4,1,0,0,rectangle,-1,-4,1,0,0,,,,,,,-1,-4,1,0,0,,0,137,137,52,1,
,,,,,,,,,,,,,FF,,,,,,,,0.926,,,,,,,,,,,,,,,,,,,,,,60fd8a9b878fb74422fa9a78,61036f7647f5f4229f401fc5,2021-07-29_23h18.57.378,Simcolourproject_2stim_asymm_v5,2020.2.10,MacIntel,60,61025ae37ef11b136ea224fe,,,,,,,,,1009,35,61,1,0,0,response1disk,,7,6,0,1,0,0,rectangle,6,0,1,0,0,,,,,,,6,0,1,0,0,,0,138,138,55,1,
,,,,,,,,,,,,,FF,,,,,,,,1.145,,,,,,,,,,,,,,,,,,,,,,60fd8a9b878fb74422fa9a78,61036f7647f5f4229f401fc5,2021-07-29_23h18.57.378,Simcolourproject_2stim_asymm_v5,2020.2.10,MacIntel,60,61025ae37ef11b136ea224fe,,,,,,,,,193,67,44,1,0,0,response1disk,,6,16,5,1,0,0,rectangle,16,5,1,0,0,,,,,,,16,5,1,0,0,,0,139,139,22,1,
,,,,,,,,,,,,,FF,,,,,,,,0.949,,,,,,,,,,,,,,,,,,,,,,60fd8a9b878fb74422fa9a78,61036f7647f5f4229f401fc5,2021-07-29_23h18.57.378,Simcolourproject_2stim_asymm_v5,2020.2.10,MacIntel,60,61025ae37ef11b136ea224fe,,,,,,,,,2820,31,75,1,0,0,response1disk,,7,7,1,1,0,0,rectangle,7,1,1,0,0,,,,,,,7,1,1,0,0,,0,140,140,156,1,
,,,,,,,,,,,,,FF,,,,,,,,2.267,,,,,,,,,,,,,,,,,,,,,,60fd8a9b878fb74422fa9a78,61036f7647f5f4229f401fc5,2021-07-29_23h18.57.378,Simcolourproject_2stim_asymm_v5,2020.2.10,MacIntel,60,61025ae37ef11b136ea224fe,,,,,,,,,844,37,79,1,0,0,response1disk,,7,-17,3,1,0,0,rectangle,-17,3,1,0,0,,,,,,,-17,3,1,0,0,,0,141,141,41,1,
,,,,,,,,,,,,,FF,,,,,,,,0.99,,,,,,,,,,,,,,,,,,,,,,60fd8a9b878fb74422fa9a78,61036f7647f5f4229f401fc5,2021-07-29_23h18.57.378,Simcolourproject_2stim_asymm_v5,2020.2.10,MacIntel,60,61025ae37ef11b136ea224fe,,,,,,,,,1965,-36,61,1,0,0,response7disk,,0,-11,17,1,0,0,rectangle,-11,17,1,0,0,,,,,,,-11,17,1,0,0,,0,142,142,1,1,
,,,,,,,,,,,,,FF,,,,,,,,1.366,,,,,,,,,,,,,,,,,,,,,,60fd8a9b878fb74422fa9a78,61036f7647f5f4229f401fc5,2021-07-29_23h18.57.378,Simcolourproject_2stim_asymm_v5,2020.2.10,MacIntel,60,61025ae37ef11b136ea224fe,,,,,,,,,958,59,45,1,0,0,response1disk,,6,-12,0,1,0,0,rectangle,-12,0,1,0,0,,,,,,,-12,0,1,0,0,,0,143,143,37,1,
,,,,,,,,,,,,,FF,,,,,,,,0.937,,,,,,,,,,,,,,,,,,,,,,60fd8a9b878fb74422fa9a78,61036f7647f5f4229f401fc5,2021-07-29_23h18.57.378,Simcolourproject_2stim_asymm_v5,2020.2.10,MacIntel,60,61025ae37ef11b136ea224fe,,,,,,,,,2585,19,49,1,0,0,response1disk,,7,-5,-9,1,0,0,rectangle,-5,-9,1,0,0,,,,,,,-5,-9,1,0,0,,0,144,144,14,1,
,,,,,,,,,,,,,FF,,,,,,,,1.268,,,,,,,,,,,,,,,,,,,,,,60fd8a9b878fb74422fa9a78,61036f7647f5f4229f401fc5,2021-07-29_23h18.57.378,Simcolourproject_2stim_asymm_v5,2020.2.10,MacIntel,60,61025ae37ef11b136ea224fe,,,,,,,,,3700,35,74,1,0,0,response1disk,,7,8,0,1,0,0,rectangle,8,0,1,0,0,,,,,,,8,0,1,0,0,,0,145,145,71,1,
,,,,,,,,,,,,,FF,,,,,,,,0.905,,,,,,,,,,,,,,,,,,,,,,60fd8a9b878fb74422fa9a78,61036f7647f5f4229f401fc5,2021-07-29_23h18.57.378,Simcolourproject_2stim_asymm_v5,2020.2.10,MacIntel,60,61025ae37ef11b136ea224fe,,,,,,,,,3229,44,63,1,0,0,response1disk,,7,19,5,1,0,0,rectangle,19,5,1,0,0,,,,,,,19,5,1,0,0,,0,146,146,111,1,
,,,,,,,,,,,,,FF,,,,,,,,0.786,,,,,,,,,,,,,,,,,,,,,,60fd8a9b878fb74422fa9a78,61036f7647f5f4229f401fc5,2021-07-29_23h18.57.378,Simcolourproject_2stim_asymm_v5,2020.2.10,MacIntel,60,61025ae37ef11b136ea224fe,,,,,,,,,3274,39,67,1,0,0,response1disk,,7,10,2,1,0,0,rectangle,10,2,1,0,0,,,,,,,10,2,1,0,0,,0,147,147,40,1,
,,,,,,,,,,,,,FF,,,,,,,,0.825,,,,,,,,,,,,,,,,,,,,,,60fd8a9b878fb74422fa9a78,61036f7647f5f4229f401fc5,2021-07-29_23h18.57.378,Simcolourproject_2stim_asymm_v5,2020.2.10,MacIntel,60,61025ae37ef11b136ea224fe,,,,,,,,,4304,23,70,1,0,0,response1disk,,7,18,7,1,0,0,rectangle,18,7,1,0,0,,,,,,,18,7,1,0,0,,0,148,148,142,1,
,,,,,,,,,,,,,FF,,,,,,,,1.116,,,,,,,,,,,,,,,,,,,,,,60fd8a9b878fb74422fa9a78,61036f7647f5f4229f401fc5,2021-07-29_23h18.57.378,Simcolourproject_2stim_asymm_v5,2020.2.10,MacIntel,60,61025ae37ef11b136ea224fe,,,,,,,,,3982,-18,-51,1,0,0,response5disk,,3,-7,1,1,0,0,rectangle,-7,1,1,0,0,,,,,,,-7,1,1,0,0,,0,149,149,13,1,
,,,,,,,,,,,,,FF,,,,,,,,0.879,,,,,,,,,,,,,,,,,,,,,,60fd8a9b878fb74422fa9a78,61036f7647f5f4229f401fc5,2021-07-29_23h18.57.378,Simcolourproject_2stim_asymm_v5,2020.2.10,MacIntel,60,61025ae37ef11b136ea224fe,,,,,,,,,470,32,65,1,0,0,response1disk,,7,13,5,1,0,0,rectangle,13,5,1,0,0,,,,,,,13,5,1,0,0,,0,150,150,65,1,
,,,,,,,,,,,,,FF,,,,,,,,0.763,,,,,,,,,,,,,,,,,,,,,,60fd8a9b878fb74422fa9a78,61036f7647f5f4229f401fc5,2021-07-29_23h18.57.378,Simcolourproject_2stim_asymm_v5,2020.2.10,MacIntel,60,61025ae37ef11b136ea224fe,,,,,,,,,1910,40,75,1,0,0,response1disk,,7,20,8,1,0,0,rectangle,20,8,1,0,0,,,,,,,20,8,1,0,0,,0,151,151,32,1,
,,,,,,,,,,,,,FF,,,,,,,,0.701,,,,,,,,,,,,,,,,,,,,,,60fd8a9b878fb74422fa9a78,61036f7647f5f4229f401fc5,2021-07-29_23h18.57.378,Simcolourproject_2stim_asymm_v5,2020.2.10,MacIntel,60,61025ae37ef11b136ea224fe,,,,,,,,,1099,33,76,1,0,0,response1disk,,7,16,6,1,0,0,rectangle,16,6,1,0,0,,,,,,,16,6,1,0,0,,0,152,152,43,1,
,,,,,,,,,,,,,FF,,,,,,,,0.778,,,,,,,,,,,,,,,,,,,,,,60fd8a9b878fb74422fa9a78,61036f7647f5f4229f401fc5,2021-07-29_23h18.57.378,Simcolourproject_2stim_asymm_v5,2020.2.10,MacIntel,60,61025ae37ef11b136ea224fe,,,,,,,,,4291,23,72,1,0,0,response1disk,,7,11,1,1,0,0,rectangle,11,1,1,0,0,,,,,,,11,1,1,0,0,,0,153,153,4,1,
,,,,,,,,,,,,,FF,,,,,,,,0.666,,,,,,,,,,,,,,,,,,,,,,60fd8a9b878fb74422fa9a78,61036f7647f5f4229f401fc5,2021-07-29_23h18.57.378,Simcolourproject_2stim_asymm_v5,2020.2.10,MacIntel,60,61025ae37ef11b136ea224fe,,,,,,,,,2344,25,65,1,0,0,response1disk,,7,20,-1,1,0,0,rectangle,20,-1,1,0,0,,,,,,,20,-1,1,0,0,,0,154,154,124,1,
,,,,,,,,,,,,,FF,,,,,,,,1.216,,,,,,,,,,,,,,,,,,,,,,60fd8a9b878fb74422fa9a78,61036f7647f5f4229f401fc5,2021-07-29_23h18.57.378,Simcolourproject_2stim_asymm_v5,2020.2.10,MacIntel,60,61025ae37ef11b136ea224fe,,,,,,,,,2945,-59,-45,1,0,0,response5disk,,2,-14,-1,1,0,0,rectangle,-14,-1,1,0,0,,,,,,,-14,-1,1,0,0,,0,155,155,127,1,
,,,,,,,,,,,,,FF,,,,,,,,0.801,,,,,,,,,,,,,,,,,,,,,,60fd8a9b878fb74422fa9a78,61036f7647f5f4229f401fc5,2021-07-29_23h18.57.378,Simcolourproject_2stim_asymm_v5,2020.2.10,MacIntel,60,61025ae37ef11b136ea224fe,,,,,,,,,2495,30,64,1,0,0,response1disk,,7,20,6,1,0,0,rectangle,20,6,1,0,0,,,,,,,20,6,1,0,0,,0,156,156,48,1,
,,,,,,,,,,,,,FF,,,,,,,,0.915,,,,,,,,,,,,,,,,,,,,,,60fd8a9b878fb74422fa9a78,61036f7647f5f4229f401fc5,2021-07-29_23h18.57.378,Simcolourproject_2stim_asymm_v5,2020.2.10,MacIntel,60,61025ae37ef11b136ea224fe,,,,,,,,,1763,32,66,1,0,0,response1disk,,7,16,7,1,0,0,rectangle,16,7,1,0,0,,,,,,,16,7,1,0,0,,0,157,157,104,1,
,,,,,,,,,,,,,FF,,,,,,,,0.676,,,,,,,,,,,,,,,,,,,,,,60fd8a9b878fb74422fa9a78,61036f7647f5f4229f401fc5,2021-07-29_23h18.57.378,Simcolourproject_2stim_asymm_v5,2020.2.10,MacIntel,60,61025ae37ef11b136ea224fe,,,,,,,,,732,43,66,1,0,0,response1disk,,7,25,-9,1,0,0,rectangle,25,-9,1,0,0,,,,,,,25,-9,1,0,0,,0,158,158,12,1,
,,,,,,,,,,,,,FF,,,,,,,,1.484,,,,,,,,,,,,,,,,,,,,,,60fd8a9b878fb74422fa9a78,61036f7647f5f4229f401fc5,2021-07-29_23h18.57.378,Simcolourproject_2stim_asymm_v5,2020.2.10,MacIntel,60,61025ae37ef11b136ea224fe,,,,,,,,,4367,-57,-22,1,0,0,response5disk,,2,-24,-2,1,0,0,rectangle,-24,-2,1,0,0,,,,,,,-24,-2,1,0,0,,0,159,159,58,1,
,,,,,,,,,,,,,FF,,,,,,,,0.916,,,,,,,,,,,,,,,,,,,,,,60fd8a9b878fb74422fa9a78,61036f7647f5f4229f401fc5,2021-07-29_23h18.57.378,Simcolourproject_2stim_asymm_v5,2020.2.10,MacIntel,60,61025ae37ef11b136ea224fe,,,,,,,,,2712,35,59,1,0,0,response1disk,,7,14,5,1,0,0,rectangle,14,5,1,0,0,,,,,,,14,5,1,0,0,,1,0,160,2,1,
,,,,,,,,,,,,,FF,,,,,,,,1.118,,,,,,,,,,,,,,,,,,,,,,60fd8a9b878fb74422fa9a78,61036f7647f5f4229f401fc5,2021-07-29_23h18.57.378,Simcolourproject_2stim_asymm_v5,2020.2.10,MacIntel,60,61025ae37ef11b136ea224fe,,,,,,,,,3139,-22,-57,1,0,0,response5disk,,3,-2,4,1,0,0,rectangle,-2,4,1,0,0,,,,,,,-2,4,1,0,0,,1,1,161,155,1,
,,,,,,,,,,,,,FF,,,,,,,,0.835,,,,,,,,,,,,,,,,,,,,,,60fd8a9b878fb74422fa9a78,61036f7647f5f4229f401fc5,2021-07-29_23h18.57.378,Simcolourproject_2stim_asymm_v5,2020.2.10,MacIntel,60,61025ae37ef11b136ea224fe,,,,,,,,,2604,-19,-41,1,0,0,response5disk,,3,-4,-2,1,0,0,rectangle,-4,-2,1,0,0,,,,,,,-4,-2,1,0,0,,1,2,162,56,1,
,,,,,,,,,,,,,FF,,,,,,,,1.226,,,,,,,,,,,,,,,,,,,,,,60fd8a9b878fb74422fa9a78,61036f7647f5f4229f401fc5,2021-07-29_23h18.57.378,Simcolourproject_2stim_asymm_v5,2020.2.10,MacIntel,60,61025ae37ef11b136ea224fe,,,,,,,,,2222,39,38,1,0,0,response1disk,,6,16,-10,1,0,0,rectangle,16,-10,1,0,0,,,,,,,16,-10,1,0,0,,1,3,163,41,1,
,,,,,,,,,,,,,FF,,,,,,,,0.869,,,,,,,,,,,,,,,,,,,,,,60fd8a9b878fb74422fa9a78,61036f7647f5f4229f401fc5,2021-07-29_23h18.57.378,Simcolourproject_2stim_asymm_v5,2020.2.10,MacIntel,60,61025ae37ef11b136ea224fe,,,,,,,,,4203,-29,-43,1,0,0,response5disk,,3,-2,-1,1,0,0,rectangle,-2,-1,1,0,0,,,,,,,-2,-1,1,0,0,,1,4,164,152,1,
,,,,,,,,,,,,,FF,,,,,,,,0.872,,,,,,,,,,,,,,,,,,,,,,60fd8a9b878fb74422fa9a78,61036f7647f5f4229f401fc5,2021-07-29_23h18.57.378,Simcolourproject_2stim_asymm_v5,2020.2.10,MacIntel,60,61025ae37ef11b136ea224fe,,,,,,,,,420,32,54,1,0,0,response1disk,,7,12,-3,1,0,0,rectangle,12,-3,1,0,0,,,,,,,12,-3,1,0,0,,1,5,165,57,1,
,,,,,,,,,,,,,FF,,,,,,,,0.857,,,,,,,,,,,,,,,,,,,,,,60fd8a9b878fb74422fa9a78,61036f7647f5f4229f401fc5,2021-07-29_23h18.57.378,Simcolourproject_2stim_asymm_v5,2020.2.10,MacIntel,60,61025ae37ef11b136ea224fe,,,,,,,,,3915,-23,-57,1,0,0,response5disk,,3,1,8,1,0,0,rectangle,1,8,1,0,0,,,,,,,1,8,1,0,0,,1,6,166,127,1,
,,,,,,,,,,,,,FF,,,,,,,,0.809,,,,,,,,,,,,,,,,,,,,,,60fd8a9b878fb74422fa9a78,61036f7647f5f4229f401fc5,2021-07-29_23h18.57.378,Simcolourproject_2stim_asymm_v5,2020.2.10,MacIntel,60,61025ae37ef11b136ea224fe,,,,,,,,,40,25,54,1,0,0,response1disk,,7,5,-6,1,0,0,rectangle,5,-6,1,0,0,,,,,,,5,-6,1,0,0,,1,7,167,113,1,
,,,,,,,,,,,,,FF,,,,,,,,1.834,,,,,,,,,,,,,,,,,,,,,,60fd8a9b878fb74422fa9a78,61036f7647f5f4229f401fc5,2021-07-29_23h18.57.378,Simcolourproject_2stim_asymm_v5,2020.2.10,MacIntel,60,61025ae37ef11b136ea224fe,,,,,,,,,2996,-13,-69,1,0,0,response5disk,,3,6,5,1,0,0,rectangle,6,5,1,0,0,,,,,,,6,5,1,0,0,,1,8,168,48,1,
,,,,,,,,,,,,,FF,,,,,,,,0.958,,,,,,,,,,,,,,,,,,,,,,60fd8a9b878fb74422fa9a78,61036f7647f5f4229f401fc5,2021-07-29_23h18.57.378,Simcolourproject_2stim_asymm_v5,2020.2.10,MacIntel,60,61025ae37ef11b136ea224fe,,,,,,,,,4294,-52,-34,1,0,0,response5disk,,2,-8,-5,1,0,0,rectangle,-8,-5,1,0,0,,,,,,,-8,-5,1,0,0,,1,9,169,70,1,
,,,,,,,,,,,,,FF,,,,,,,,0.966,,,,,,,,,,,,,,,,,,,,,,60fd8a9b878fb74422fa9a78,61036f7647f5f4229f401fc5,2021-07-29_23h18.57.378,Simcolourproject_2stim_asymm_v5,2020.2.10,MacIntel,60,61025ae37ef11b136ea224fe,,,,,,,,,2265,29,44,1,0,0,response1disk,,7,-1,-10,1,0,0,rectangle,-1,-10,1,0,0,,,,,,,-1,-10,1,0,0,,1,10,170,159,1,
,,,,,,,,,,,,,FF,,,,,,,,0.665,,,,,,,,,,,,,,,,,,,,,,60fd8a9b878fb74422fa9a78,61036f7647f5f4229f401fc5,2021-07-29_23h18.57.378,Simcolourproject_2stim_asymm_v5,2020.2.10,MacIntel,60,61025ae37ef11b136ea224fe,,,,,,,,,1507,29,59,1,0,0,response1disk,,7,11,-14,1,0,0,rectangle,11,-14,1,0,0,,,,,,,11,-14,1,0,0,,1,11,171,103,1,
,,,,,,,,,,,,,FF,,,,,,,,0.916,,,,,,,,,,,,,,,,,,,,,,60fd8a9b878fb74422fa9a78,61036f7647f5f4229f401fc5,2021-07-29_23h18.57.378,Simcolourproject_2stim_asymm_v5,2020.2.10,MacIntel,60,61025ae37ef11b136ea224fe,,,,,,,,,2176,-29,-43,1,0,0,response5disk,,3,-9,-1,1,0,0,rectangle,-9,-1,1,0,0,,,,,,,-9,-1,1,0,0,,1,12,172,35,1,
,,,,,,,,,,,,,FF,,,,,,,,1.474,,,,,,,,,,,,,,,,,,,,,,60fd8a9b878fb74422fa9a78,61036f7647f5f4229f401fc5,2021-07-29_23h18.57.378,Simcolourproject_2stim_asymm_v5,2020.2.10,MacIntel,60,61025ae37ef11b136ea224fe,,,,,,,,,1429,28,-46,1,0,0,response3disk,,4,13,-4,1,0,0,rectangle,13,-4,1,0,0,,,,,,,13,-4,1,0,0,,1,13,173,110,1,
,,,,,,,,,,,,,FF,,,,,,,,0.778,,,,,,,,,,,,,,,,,,,,,,60fd8a9b878fb74422fa9a78,61036f7647f5f4229f401fc5,2021-07-29_23h18.57.378,Simcolourproject_2stim_asymm_v5,2020.2.10,MacIntel,60,61025ae37ef11b136ea224fe,,,,,,,,,365,30,49,1,0,0,response1disk,,7,11,-2,1,0,0,rectangle,11,-2,1,0,0,,,,,,,11,-2,1,0,0,,1,14,174,116,1,
,,,,,,,,,,,,,FF,,,,,,,,0.899,,,,,,,,,,,,,,,,,,,,,,60fd8a9b878fb74422fa9a78,61036f7647f5f4229f401fc5,2021-07-29_23h18.57.378,Simcolourproject_2stim_asymm_v5,2020.2.10,MacIntel,60,61025ae37ef11b136ea224fe,,,,,,,,,2046,26,-50,1,0,0,response3disk,,4,24,-13,1,0,0,rectangle,24,-13,1,0,0,,,,,,,24,-13,1,0,0,,1,15,175,18,1,
,,,,,,,,,,,,,FF,,,,,,,,0.724,,,,,,,,,,,,,,,,,,,,,,60fd8a9b878fb74422fa9a78,61036f7647f5f4229f401fc5,2021-07-29_23h18.57.378,Simcolourproject_2stim_asymm_v5,2020.2.10,MacIntel,60,61025ae37ef11b136ea224fe,,,,,,,,,104,29,46,1,0,0,response1disk,,7,23,5,1,0,0,rectangle,23,5,1,0,0,,,,,,,23,5,1,0,0,,1,16,176,94,1,
,,,,,,,,,,,,,FF,,,,,,,,0.911,,,,,,,,,,,,,,,,,,,,,,60fd8a9b878fb74422fa9a78,61036f7647f5f4229f401fc5,2021-07-29_23h18.57.378,Simcolourproject_2stim_asymm_v5,2020.2.10,MacIntel,60,61025ae37ef11b136ea224fe,,,,,,,,,179,29,48,1,0,0,response1disk,,7,14,10,1,0,0,rectangle,14,10,1,0,0,,,,,,,14,10,1,0,0,,1,17,177,0,1,
,,,,,,,,,,,,,FF,,,,,,,,1.849,,,,,,,,,,,,,,,,,,,,,,60fd8a9b878fb74422fa9a78,61036f7647f5f4229f401fc5,2021-07-29_23h18.57.378,Simcolourproject_2stim_asymm_v5,2020.2.10,MacIntel,60,61025ae37ef11b136ea224fe,,,,,,,,,3685,56,-12,1,0,0,response3disk,,5,26,6,1,0,0,rectangle,26,6,1,0,0,,,,,,,26,6,1,0,0,,1,18,178,24,1,
,,,,,,,,,,,,,FF,,,,,,,,0.899,,,,,,,,,,,,,,,,,,,,,,60fd8a9b878fb74422fa9a78,61036f7647f5f4229f401fc5,2021-07-29_23h18.57.378,Simcolourproject_2stim_asymm_v5,2020.2.10,MacIntel,60,61025ae37ef11b136ea224fe,,,,,,,,,245,33,65,1,0,0,response1disk,,7,14,4,1,0,0,rectangle,14,4,1,0,0,,,,,,,14,4,1,0,0,,1,19,179,5,1,
,,,,,,,,,,,,,FF,,,,,,,,0.741,,,,,,,,,,,,,,,,,,,,,,60fd8a9b878fb74422fa9a78,61036f7647f5f4229f401fc5,2021-07-29_23h18.57.378,Simcolourproject_2stim_asymm_v5,2020.2.10,MacIntel,60,61025ae37ef11b136ea224fe,,,,,,,,,4198,40,71,1,0,0,response1disk,,7,8,15,1,0,0,rectangle,8,15,1,0,0,,,,,,,8,15,1,0,0,,1,20,180,75,1,
,,,,,,,,,,,,,FF,,,,,,,,0.604,,,,,,,,,,,,,,,,,,,,,,60fd8a9b878fb74422fa9a78,61036f7647f5f4229f401fc5,2021-07-29_23h18.57.378,Simcolourproject_2stim_asymm_v5,2020.2.10,MacIntel,60,61025ae37ef11b136ea224fe,,,,,,,,,49,30,57,1,0,0,response1disk,,7,20,13,1,0,0,rectangle,20,13,1,0,0,,,,,,,20,13,1,0,0,,1,21,181,3,1,
,,,,,,,,,,,,,FF,,,,,,,,1.427,,,,,,,,,,,,,,,,,,,,,,60fd8a9b878fb74422fa9a78,61036f7647f5f4229f401fc5,2021-07-29_23h18.57.378,Simcolourproject_2stim_asymm_v5,2020.2.10,MacIntel,60,61025ae37ef11b136ea224fe,,,,,,,,,887,-56,25,1,0,0,response7disk,,1,1,3,1,0,0,rectangle,1,3,1,0,0,,,,,,,1,3,1,0,0,,1,22,182,89,1,
,,,,,,,,,,,,,FF,,,,,,,,1.537,,,,,,,,,,,,,,,,,,,,,,60fd8a9b878fb74422fa9a78,61036f7647f5f4229f401fc5,2021-07-29_23h18.57.378,Simcolourproject_2stim_asymm_v5,2020.2.10,MacIntel,60,61025ae37ef11b136ea224fe,,,,,,,,,899,58,-34,1,0,0,response3disk,,5,15,5,1,0,0,rectangle,15,5,1,0,0,,,,,,,15,5,1,0,0,,1,23,183,67,1,
,,,,,,,,,,,,,FF,,,,,,,,0.779,,,,,,,,,,,,,,,,,,,,,,60fd8a9b878fb74422fa9a78,61036f7647f5f4229f401fc5,2021-07-29_23h18.57.378,Simcolourproject_2stim_asymm_v5,2020.2.10,MacIntel,60,61025ae37ef11b136ea224fe,,,,,,,,,1073,29,75,1,0,0,response1disk,,7,11,14,1,0,0,rectangle,11,14,1,0,0,,,,,,,11,14,1,0,0,,1,24,184,27,1,
,,,,,,,,,,,,,FF,,,,,,,,0.713,,,,,,,,,,,,,,,,,,,,,,60fd8a9b878fb74422fa9a78,61036f7647f5f4229f401fc5,2021-07-29_23h18.57.378,Simcolourproject_2stim_asymm_v5,2020.2.10,MacIntel,60,61025ae37ef11b136ea224fe,,,,,,,,,1859,34,81,1,0,0,response1disk,,7,11,1,1,0,0,rectangle,11,1,1,0,0,,,,,,,11,1,1,0,0,,1,25,185,135,1,
,,,,,,,,,,,,,FF,,,,,,,,0.926,,,,,,,,,,,,,,,,,,,,,,60fd8a9b878fb74422fa9a78,61036f7647f5f4229f401fc5,2021-07-29_23h18.57.378,Simcolourproject_2stim_asymm_v5,2020.2.10,MacIntel,60,61025ae37ef11b136ea224fe,,,,,,,,,1521,-19,65,1,0,0,response7disk,,0,-11,14,1,0,0,rectangle,-11,14,1,0,0,,,,,,,-11,14,1,0,0,,1,26,186,58,1,
,,,,,,,,,,,,,FF,,,,,,,,0.757,,,,,,,,,,,,,,,,,,,,,,60fd8a9b878fb74422fa9a78,61036f7647f5f4229f401fc5,2021-07-29_23h18.57.378,Simcolourproject_2stim_asymm_v5,2020.2.10,MacIntel,60,61025ae37ef11b136ea224fe,,,,,,,,,181,31,76,1,0,0,response1disk,,7,9,17,1,0,0,rectangle,9,17,1,0,0,,,,,,,9,17,1,0,0,,1,27,187,140,1,
,,,,,,,,,,,,,FF,,,,,,,,0.894,,,,,,,,,,,,,,,,,,,,,,60fd8a9b878fb74422fa9a78,61036f7647f5f4229f401fc5,2021-07-29_23h18.57.378,Simcolourproject_2stim_asymm_v5,2020.2.10,MacIntel,60,61025ae37ef11b136ea224fe,,,,,,,,,305,54,31,1,0,0,response1disk,,6,11,-5,1,0,0,rectangle,11,-5,1,0,0,,,,,,,11,-5,1,0,0,,1,28,188,131,1,
,,,,,,,,,,,,,FF,,,,,,,,1.141,,,,,,,,,,,,,,,,,,,,,,60fd8a9b878fb74422fa9a78,61036f7647f5f4229f401fc5,2021-07-29_23h18.57.378,Simcolourproject_2stim_asymm_v5,2020.2.10,MacIntel,60,61025ae37ef11b136ea224fe,,,,,,,,,738,36,54,1,0,0,response1disk,,7,17,-16,1,0,0,rectangle,17,-16,1,0,0,,,,,,,17,-16,1,0,0,,1,29,189,11,1,
,,,,,,,,,,,,,FF,,,,,,,,0.614,,,,,,,,,,,,,,,,,,,,,,60fd8a9b878fb74422fa9a78,61036f7647f5f4229f401fc5,2021-07-29_23h18.57.378,Simcolourproject_2stim_asymm_v5,2020.2.10,MacIntel,60,61025ae37ef11b136ea224fe,,,,,,,,,3653,23,62,1,0,0,response1disk,,7,14,5,1,0,0,rectangle,14,5,1,0,0,,,,,,,14,5,1,0,0,,1,30,190,62,1,
,,,,,,,,,,,,,FF,,,,,,,,0.572,,,,,,,,,,,,,,,,,,,,,,60fd8a9b878fb74422fa9a78,61036f7647f5f4229f401fc5,2021-07-29_23h18.57.378,Simcolourproject_2stim_asymm_v5,2020.2.10,MacIntel,60,61025ae37ef11b136ea224fe,,,,,,,,,3314,31,60,1,0,0,response1disk,,7,24,13,1,0,0,rectangle,24,13,1,0,0,,,,,,,24,13,1,0,0,,1,31,191,157,1,
,,,,,,,,,,,,,FF,,,,,,,,0.648,,,,,,,,,,,,,,,,,,,,,,60fd8a9b878fb74422fa9a78,61036f7647f5f4229f401fc5,2021-07-29_23h18.57.378,Simcolourproject_2stim_asymm_v5,2020.2.10,MacIntel,60,61025ae37ef11b136ea224fe,,,,,,,,,496,37,77,1,0,0,response1disk,,7,12,5,1,0,0,rectangle,24,74,1,0,0,response1disk_3,TRUE,7,7,"[55,199,71,91,84,251,317,88,1,131,310,320,308,30,39,260,133,230,193,317]",1.853,4,-1,1,0,0,rectangle,1,32,192,151,1,
,,,,,,,,,,,,,FF,,,,,,,,1.111,,,,,,,,,,,,,,,,,,,,,,60fd8a9b878fb74422fa9a78,61036f7647f5f4229f401fc5,2021-07-29_23h18.57.378,Simcolourproject_2stim_asymm_v5,2020.2.10,MacIntel,60,61025ae37ef11b136ea224fe,,,,,,,,,796,32,53,1,0,0,response1disk,,7,8,2,1,0,0,rectangle,8,2,1,0,0,,,,,,,8,2,1,0,0,,1,33,193,72,1,
,,,,,,,,,,,,,FF,,,,,,,,3.517,,,,,,,,,,,,,,,,,,,,,,60fd8a9b878fb74422fa9a78,61036f7647f5f4229f401fc5,2021-07-29_23h18.57.378,Simcolourproject_2stim_asymm_v5,2020.2.10,MacIntel,60,61025ae37ef11b136ea224fe,,,,,,,,,3764,72,30,1,0,0,response1disk,,6,9,-6,1,0,0,rectangle,9,-6,1,0,0,,,,,,,9,-6,1,0,0,,1,34,194,52,1,
,,,,,,,,,,,,,FF,,,,,,,,0.782,,,,,,,,,,,,,,,,,,,,,,60fd8a9b878fb74422fa9a78,61036f7647f5f4229f401fc5,2021-07-29_23h18.57.378,Simcolourproject_2stim_asymm_v5,2020.2.10,MacIntel,60,61025ae37ef11b136ea224fe,,,,,,,,,362,42,63,1,0,0,response1disk,,7,4,5,1,0,0,rectangle,4,5,1,0,0,,,,,,,4,5,1,0,0,,1,35,195,158,1,
,,,,,,,,,,,,,FF,,,,,,,,0.799,,,,,,,,,,,,,,,,,,,,,,60fd8a9b878fb74422fa9a78,61036f7647f5f4229f401fc5,2021-07-29_23h18.57.378,Simcolourproject_2stim_asymm_v5,2020.2.10,MacIntel,60,61025ae37ef11b136ea224fe,,,,,,,,,2224,28,56,1,0,0,response1disk,,7,12,10,1,0,0,rectangle,12,10,1,0,0,,,,,,,12,10,1,0,0,,1,36,196,46,1,
,,,,,,,,,,,,,FF,,,,,,,,0.925,,,,,,,,,,,,,,,,,,,,,,60fd8a9b878fb74422fa9a78,61036f7647f5f4229f401fc5,2021-07-29_23h18.57.378,Simcolourproject_2stim_asymm_v5,2020.2.10,MacIntel,60,61025ae37ef11b136ea224fe,,,,,,,,,1294,-23,-73,1,0,0,response5disk,,3,-6,-7,1,0,0,rectangle,-6,-7,1,0,0,,,,,,,-6,-7,1,0,0,,1,37,197,136,1,
,,,,,,,,,,,,,FF,,,,,,,,1.046,,,,,,,,,,,,,,,,,,,,,,60fd8a9b878fb74422fa9a78,61036f7647f5f4229f401fc5,2021-07-29_23h18.57.378,Simcolourproject_2stim_asymm_v5,2020.2.10,MacIntel,60,61025ae37ef11b136ea224fe,,,,,,,,,3633,-25,-44,1,0,0,response5disk,,3,-15,-9,1,0,0,rectangle,-18,54,1,0,0,response7disk_3,TRUE,0,0,"[55,199,71,91,84,251,317,88,1,131,310,320,308,30,39,260,133,230,193,317]",1.729,-2,-4,1,0,0,rectangle,1,38,198,117,1,
,,,,,,,,,,,,,FF,,,,,,,,0.813,,,,,,,,,,,,,,,,,,,,,,60fd8a9b878fb74422fa9a78,61036f7647f5f4229f401fc5,2021-07-29_23h18.57.378,Simcolourproject_2stim_asymm_v5,2020.2.10,MacIntel,60,61025ae37ef11b136ea224fe,,,,,,,,,2789,-23,-53,1,0,0,response5disk,,3,-2,-13,1,0,0,rectangle,-2,-13,1,0,0,,,,,,,-2,-13,1,0,0,,1,39,199,139,1,
,,,,,,,,,,,,,FF,,,,,,,,3.16,,,,,,,,,,,,,,,,,,,,,,60fd8a9b878fb74422fa9a78,61036f7647f5f4229f401fc5,2021-07-29_23h18.57.378,Simcolourproject_2stim_asymm_v5,2020.2.10,MacIntel,60,61025ae37ef11b136ea224fe,,,,,,,,,3525,33,53,1,0,0,response1disk,,7,2,3,1,0,0,rectangle,2,3,1,0,0,,,,,,,2,3,1,0,0,,1,40,200,146,1,
,,,,,,,,,,,,,FF,,,,,,,,0.957,,,,,,,,,,,,,,,,,,,,,,60fd8a9b878fb74422fa9a78,61036f7647f5f4229f401fc5,2021-07-29_23h18.57.378,Simcolourproject_2stim_asymm_v5,2020.2.10,MacIntel,60,61025ae37ef11b136ea224fe,,,,,,,,,154,27,44,1,0,0,response1disk,,7,10,3,1,0,0,rectangle,10,3,1,0,0,,,,,,,10,3,1,0,0,,1,41,201,42,1,
,,,,,,,,,,,,,FF,,,,,,,,0.95,,,,,,,,,,,,,,,,,,,,,,60fd8a9b878fb74422fa9a78,61036f7647f5f4229f401fc5,2021-07-29_23h18.57.378,Simcolourproject_2stim_asymm_v5,2020.2.10,MacIntel,60,61025ae37ef11b136ea224fe,,,,,,,,,3912,-35,-66,1,0,0,response5disk,,3,9,1,1,0,0,rectangle,9,1,1,0,0,,,,,,,9,1,1,0,0,,1,42,202,101,1,
,,,,,,,,,,,,,FF,,,,,,,,0.844,,,,,,,,,,,,,,,,,,,,,,60fd8a9b878fb74422fa9a78,61036f7647f5f4229f401fc5,2021-07-29_23h18.57.378,Simcolourproject_2stim_asymm_v5,2020.2.10,MacIntel,60,61025ae37ef11b136ea224fe,,,,,,,,,2678,41,62,1,0,0,response1disk,,7,15,-6,1,0,0,rectangle,15,-6,1,0,0,,,,,,,15,-6,1,0,0,,1,43,203,85,1,
,,,,,,,,,,,,,FF,,,,,,,,0.805,,,,,,,,,,,,,,,,,,,,,,60fd8a9b878fb74422fa9a78,61036f7647f5f4229f401fc5,2021-07-29_23h18.57.378,Simcolourproject_2stim_asymm_v5,2020.2.10,MacIntel,60,61025ae37ef11b136ea224fe,,,,,,,,,3809,39,55,1,0,0,response1disk,,7,12,0,1,0,0,rectangle,12,0,1,0,0,,,,,,,12,0,1,0,0,,1,44,204,79,1,
,,,,,,,,,,,,,FF,,,,,,,,1.04,,,,,,,,,,,,,,,,,,,,,,60fd8a9b878fb74422fa9a78,61036f7647f5f4229f401fc5,2021-07-29_23h18.57.378,Simcolourproject_2stim_asymm_v5,2020.2.10,MacIntel,60,61025ae37ef11b136ea224fe,,,,,,,,,208,69,47,1,0,0,response1disk,,6,11,-2,1,0,0,rectangle,11,-2,1,0,0,,,,,,,11,-2,1,0,0,,1,45,205,47,1,
,,,,,,,,,,,,,FF,,,,,,,,0.929,,,,,,,,,,,,,,,,,,,,,,60fd8a9b878fb74422fa9a78,61036f7647f5f4229f401fc5,2021-07-29_23h18.57.378,Simcolourproject_2stim_asymm_v5,2020.2.10,MacIntel,60,61025ae37ef11b136ea224fe,,,,,,,,,2962,50,30,1,0,0,response1disk,,6,10,1,1,0,0,rectangle,10,1,1,0,0,,,,,,,10,1,1,0,0,,1,46,206,63,1,
,,,,,,,,,,,,,FF,,,,,,,,0.701,,,,,,,,,,,,,,,,,,,,,,60fd8a9b878fb74422fa9a78,61036f7647f5f4229f401fc5,2021-07-29_23h18.57.378,Simcolourproject_2stim_asymm_v5,2020.2.10,MacIntel,60,61025ae37ef11b136ea224fe,,,,,,,,,3549,32,71,1,0,0,response1disk,,7,3,4,1,0,0,rectangle,3,4,1,0,0,,,,,,,3,4,1,0,0,,1,47,207,55,1,
,,,,,,,,,,,,,FF,,,,,,,,0.79,,,,,,,,,,,,,,,,,,,,,,60fd8a9b878fb74422fa9a78,61036f7647f5f4229f401fc5,2021-07-29_23h18.57.378,Simcolourproject_2stim_asymm_v5,2020.2.10,MacIntel,60,61025ae37ef11b136ea224fe,,,,,,,,,2851,35,70,1,0,0,response1disk,,7,8,0,1,0,0,rectangle,8,0,1,0,0,,,,,,,8,0,1,0,0,,1,48,208,125,1,
,,,,,,,,,,,,,FF,,,,,,,,0.969,,,,,,,,,,,,,,,,,,,,,,60fd8a9b878fb74422fa9a78,61036f7647f5f4229f401fc5,2021-07-29_23h18.57.378,Simcolourproject_2stim_asymm_v5,2020.2.10,MacIntel,60,61025ae37ef11b136ea224fe,,,,,,,,,2634,33,63,1,0,0,response1disk,,7,9,2,1,0,0,rectangle,9,2,1,0,0,,,,,,,9,2,1,0,0,,1,49,209,34,1,
,,,,,,,,,,,,,FF,,,,,,,,0.717,,,,,,,,,,,,,,,,,,,,,,60fd8a9b878fb74422fa9a78,61036f7647f5f4229f401fc5,2021-07-29_23h18.57.378,Simcolourproject_2stim_asymm_v5,2020.2.10,MacIntel,60,61025ae37ef11b136ea224fe,,,,,,,,,770,30,67,1,0,0,response1disk,,7,10,5,1,0,0,rectangle,10,5,1,0,0,,,,,,,10,5,1,0,0,,1,50,210,81,1,
,,,,,,,,,,,,,FF,,,,,,,,0.616,,,,,,,,,,,,,,,,,,,,,,60fd8a9b878fb74422fa9a78,61036f7647f5f4229f401fc5,2021-07-29_23h18.57.378,Simcolourproject_2stim_asymm_v5,2020.2.10,MacIntel,60,61025ae37ef11b136ea224fe,,,,,,,,,39,30,67,1,0,0,response1disk,,7,20,3,1,0,0,rectangle,20,3,1,0,0,,,,,,,20,3,1,0,0,,1,51,211,147,1,
,,,,,,,,,,,,,FF,,,,,,,,0.699,,,,,,,,,,,,,,,,,,,,,,60fd8a9b878fb74422fa9a78,61036f7647f5f4229f401fc5,2021-07-29_23h18.57.378,Simcolourproject_2stim_asymm_v5,2020.2.10,MacIntel,60,61025ae37ef11b136ea224fe,,,,,,,,,3168,29,61,1,0,0,response1disk,,7,21,5,1,0,0,rectangle,21,5,1,0,0,,,,,,,21,5,1,0,0,,1,52,212,10,1,
,,,,,,,,,,,,,FF,,,,,,,,0.978,,,,,,,,,,,,,,,,,,,,,,60fd8a9b878fb74422fa9a78,61036f7647f5f4229f401fc5,2021-07-29_23h18.57.378,Simcolourproject_2stim_asymm_v5,2020.2.10,MacIntel,60,61025ae37ef11b136ea224fe,,,,,,,,,4043,62,41,1,0,0,response1disk,,6,5,8,1,0,0,rectangle,5,8,1,0,0,,,,,,,5,8,1,0,0,,1,53,213,109,1,
,,,,,,,,,,,,,FF,,,,,,,,0.735,,,,,,,,,,,,,,,,,,,,,,60fd8a9b878fb74422fa9a78,61036f7647f5f4229f401fc5,2021-07-29_23h18.57.378,Simcolourproject_2stim_asymm_v5,2020.2.10,MacIntel,60,61025ae37ef11b136ea224fe,,,,,,,,,3286,29,81,1,0,0,response1disk,,7,-1,7,1,0,0,rectangle,-1,7,1,0,0,,,,,,,-1,7,1,0,0,,1,54,214,80,1,
,,,,,,,,,,,,,FF,,,,,,,,1.129,,,,,,,,,,,,,,,,,,,,,,60fd8a9b878fb74422fa9a78,61036f7647f5f4229f401fc5,2021-07-29_23h18.57.378,Simcolourproject_2stim_asymm_v5,2020.2.10,MacIntel,60,61025ae37ef11b136ea224fe,,,,,,,,,4279,41,82,1,0,0,response1disk,,7,-2,0,1,0,0,rectangle,-2,0,1,0,0,,,,,,,-2,0,1,0,0,,1,55,215,154,1,
,,,,,,,,,,,,,FF,,,,,,,,0.967,,,,,,,,,,,,,,,,,,,,,,60fd8a9b878fb74422fa9a78,61036f7647f5f4229f401fc5,2021-07-29_23h18.57.378,Simcolourproject_2stim_asymm_v5,2020.2.10,MacIntel,60,61025ae37ef11b136ea224fe,,,,,,,,,4143,-36,-67,1,0,0,response5disk,,3,7,0,1,0,0,rectangle,7,0,1,0,0,,,,,,,7,0,1,0,0,,1,56,216,30,1,
,,,,,,,,,,,,,FF,,,,,,,,0.783,,,,,,,,,,,,,,,,,,,,,,60fd8a9b878fb74422fa9a78,61036f7647f5f4229f401fc5,2021-07-29_23h18.57.378,Simcolourproject_2stim_asymm_v5,2020.2.10,MacIntel,60,61025ae37ef11b136ea224fe,,,,,,,,,2250,30,55,1,0,0,response1disk,,7,7,-18,1,0,0,rectangle,7,-18,1,0,0,,,,,,,7,-18,1,0,0,,1,57,217,33,1,
,,,,,,,,,,,,,FF,,,,,,,,0.703,,,,,,,,,,,,,,,,,,,,,,60fd8a9b878fb74422fa9a78,61036f7647f5f4229f401fc5,2021-07-29_23h18.57.378,Simcolourproject_2stim_asymm_v5,2020.2.10,MacIntel,60,61025ae37ef11b136ea224fe,,,,,,,,,3629,30,52,1,0,0,response1disk,,7,13,-1,1,0,0,rectangle,13,-1,1,0,0,,,,,,,13,-1,1,0,0,,1,58,218,65,1,
,,,,,,,,,,,,,FF,,,,,,,,0.944,,,,,,,,,,,,,,,,,,,,,,60fd8a9b878fb74422fa9a78,61036f7647f5f4229f401fc5,2021-07-29_23h18.57.378,Simcolourproject_2stim_asymm_v5,2020.2.10,MacIntel,60,61025ae37ef11b136ea224fe,,,,,,,,,2575,31,56,1,0,0,response1disk,,7,17,4,1,0,0,rectangle,17,4,1,0,0,,,,,,,17,4,1,0,0,,1,59,219,9,1,
,,,,,,,,,,,,,FF,,,,,,,,1.192,,,,,,,,,,,,,,,,,,,,,,60fd8a9b878fb74422fa9a78,61036f7647f5f4229f401fc5,2021-07-29_23h18.57.378,Simcolourproject_2stim_asymm_v5,2020.2.10,MacIntel,60,61025ae37ef11b136ea224fe,,,,,,,,,3819,57,26,1,0,0,response1disk,,6,1,0,1,0,0,rectangle,1,0,1,0,0,,,,,,,1,0,1,0,0,,1,60,220,134,1,
,,,,,,,,,,,,,FF,,,,,,,,0.751,,,,,,,,,,,,,,,,,,,,,,60fd8a9b878fb74422fa9a78,61036f7647f5f4229f401fc5,2021-07-29_23h18.57.378,Simcolourproject_2stim_asymm_v5,2020.2.10,MacIntel,60,61025ae37ef11b136ea224fe,,,,,,,,,3174,31,64,1,0,0,response1disk,,7,13,5,1,0,0,rectangle,13,5,1,0,0,,,,,,,13,5,1,0,0,,1,61,221,64,1,
,,,,,,,,,,,,,FF,,,,,,,,1.385,,,,,,,,,,,,,,,,,,,,,,60fd8a9b878fb74422fa9a78,61036f7647f5f4229f401fc5,2021-07-29_23h18.57.378,Simcolourproject_2stim_asymm_v5,2020.2.10,MacIntel,60,61025ae37ef11b136ea224fe,,,,,,,,,3290,-18,44,1,0,0,response7disk,,0,-1,0,1,0,0,rectangle,-1,0,1,0,0,,,,,,,-1,0,1,0,0,,1,62,222,88,1,
,,,,,,,,,,,,,FF,,,,,,,,0.869,,,,,,,,,,,,,,,,,,,,,,60fd8a9b878fb74422fa9a78,61036f7647f5f4229f401fc5,2021-07-29_23h18.57.378,Simcolourproject_2stim_asymm_v5,2020.2.10,MacIntel,60,61025ae37ef11b136ea224fe,,,,,,,,,3605,36,70,1,0,0,response1disk,,7,14,4,1,0,0,rectangle,14,4,1,0,0,,,,,,,14,4,1,0,0,,1,63,223,129,1,
,,,,,,,,,,,,,FF,,,,,,,,0.58,,,,,,,,,,,,,,,,,,,,,,60fd8a9b878fb74422fa9a78,61036f7647f5f4229f401fc5,2021-07-29_23h18.57.378,Simcolourproject_2stim_asymm_v5,2020.2.10,MacIntel,60,61025ae37ef11b136ea224fe,,,,,,,,,710,23,50,1,0,0,response1disk,,7,7,-12,1,0,0,rectangle,7,-12,1,0,0,,,,,,,7,-12,1,0,0,,1,64,224,32,1,
,,,,,,,,,,,,,FF,,,,,,,,1.021,,,,,,,,,,,,,,,,,,,,,,60fd8a9b878fb74422fa9a78,61036f7647f5f4229f401fc5,2021-07-29_23h18.57.378,Simcolourproject_2stim_asymm_v5,2020.2.10,MacIntel,60,61025ae37ef11b136ea224fe,,,,,,,,,3258,60,26,1,0,0,response1disk,,6,-8,5,1,0,0,rectangle,-8,5,1,0,0,,,,,,,-8,5,1,0,0,,1,65,225,86,1,
,,,,,,,,,,,,,FF,,,,,,,,0.863,,,,,,,,,,,,,,,,,,,,,,60fd8a9b878fb74422fa9a78,61036f7647f5f4229f401fc5,2021-07-29_23h18.57.378,Simcolourproject_2stim_asymm_v5,2020.2.10,MacIntel,60,61025ae37ef11b136ea224fe,,,,,,,,,737,24,59,1,0,0,response1disk,,7,-3,-4,1,0,0,rectangle,-3,-4,1,0,0,,,,,,,-3,-4,1,0,0,,1,66,226,137,1,
,,,,,,,,,,,,,FF,,,,,,,,0.802,,,,,,,,,,,,,,,,,,,,,,60fd8a9b878fb74422fa9a78,61036f7647f5f4229f401fc5,2021-07-29_23h18.57.378,Simcolourproject_2stim_asymm_v5,2020.2.10,MacIntel,60,61025ae37ef11b136ea224fe,,,,,,,,,3365,23,47,1,0,0,response1disk,,7,-2,-4,1,0,0,rectangle,-2,-4,1,0,0,,,,,,,-2,-4,1,0,0,,1,67,227,132,1,
,,,,,,,,,,,,,FF,,,,,,,,0.624,,,,,,,,,,,,,,,,,,,,,,60fd8a9b878fb74422fa9a78,61036f7647f5f4229f401fc5,2021-07-29_23h18.57.378,Simcolourproject_2stim_asymm_v5,2020.2.10,MacIntel,60,61025ae37ef11b136ea224fe,,,,,,,,,1545,21,46,1,0,0,response1disk,,7,10,10,1,0,0,rectangle,10,10,1,0,0,,,,,,,10,10,1,0,0,,1,68,228,114,1,
,,,,,,,,,,,,,FF,,,,,,,,3.19,,,,,,,,,,,,,,,,,,,,,,60fd8a9b878fb74422fa9a78,61036f7647f5f4229f401fc5,2021-07-29_23h18.57.378,Simcolourproject_2stim_asymm_v5,2020.2.10,MacIntel,60,61025ae37ef11b136ea224fe,,,,,,,,,995,44,58,1,0,0,response1disk,,7,8,0,1,0,0,rectangle,-20,59,1,0,0,response7disk_3,TRUE,0,0,"[55,199,71,91,84,251,317,88,1,131,310,320,308,30,39,260,133,230,193,317]",1.648,-2,6,1,0,0,rectangle,1,69,229,100,1,
,,,,,,,,,,,,,FF,,,,,,,,1.318,,,,,,,,,,,,,,,,,,,,,,60fd8a9b878fb74422fa9a78,61036f7647f5f4229f401fc5,2021-07-29_23h18.57.378,Simcolourproject_2stim_asymm_v5,2020.2.10,MacIntel,60,61025ae37ef11b136ea224fe,,,,,,,,,1439,71,-27,1,0,0,response3disk,,5,18,-5,1,0,0,rectangle,18,-5,1,0,0,,,,,,,18,-5,1,0,0,,1,70,230,44,1,
,,,,,,,,,,,,,FF,,,,,,,,1.117,,,,,,,,,,,,,,,,,,,,,,60fd8a9b878fb74422fa9a78,61036f7647f5f4229f401fc5,2021-07-29_23h18.57.378,Simcolourproject_2stim_asymm_v5,2020.2.10,MacIntel,60,61025ae37ef11b136ea224fe,,,,,,,,,3635,-45,-35,1,0,0,response5disk,,2,3,2,1,0,0,rectangle,3,2,1,0,0,,,,,,,3,2,1,0,0,,1,71,231,118,1,
,,,,,,,,,,,,,FF,,,,,,,,0.793,,,,,,,,,,,,,,,,,,,,,,60fd8a9b878fb74422fa9a78,61036f7647f5f4229f401fc5,2021-07-29_23h18.57.378,Simcolourproject_2stim_asymm_v5,2020.2.10,MacIntel,60,61025ae37ef11b136ea224fe,,,,,,,,,853,27,44,1,0,0,response1disk,,7,7,-2,1,0,0,rectangle,7,-2,1,0,0,,,,,,,7,-2,1,0,0,,1,72,232,39,1,
,,,,,,,,,,,,,FF,,,,,,,,0.977,,,,,,,,,,,,,,,,,,,,,,60fd8a9b878fb74422fa9a78,61036f7647f5f4229f401fc5,2021-07-29_23h18.57.378,Simcolourproject_2stim_asymm_v5,2020.2.10,MacIntel,60,61025ae37ef11b136ea224fe,,,,,,,,,4049,-51,-33,1,0,0,response5disk,,2,-9,11,1,0,0,rectangle,-9,11,1,0,0,,,,,,,-9,11,1,0,0,,1,73,233,71,1,
,,,,,,,,,,,,,FF,,,,,,,,0.809,,,,,,,,,,,,,,,,,,,,,,60fd8a9b878fb74422fa9a78,61036f7647f5f4229f401fc5,2021-07-29_23h18.57.378,Simcolourproject_2stim_asymm_v5,2020.2.10,MacIntel,60,61025ae37ef11b136ea224fe,,,,,,,,,4125,-48,-34,1,0,0,response5disk,,2,-3,-7,1,0,0,rectangle,-3,-7,1,0,0,,,,,,,-3,-7,1,0,0,,1,74,234,51,1,
,,,,,,,,,,,,,FF,,,,,,,,0.825,,,,,,,,,,,,,,,,,,,,,,60fd8a9b878fb74422fa9a78,61036f7647f5f4229f401fc5,2021-07-29_23h18.57.378,Simcolourproject_2stim_asymm_v5,2020.2.10,MacIntel,60,61025ae37ef11b136ea224fe,,,,,,,,,2142,28,52,1,0,0,response1disk,,7,3,1,1,0,0,rectangle,3,1,1,0,0,,,,,,,3,1,1,0,0,,1,75,235,150,1,
,,,,,,,,,,,,,FF,,,,,,,,0.688,,,,,,,,,,,,,,,,,,,,,,60fd8a9b878fb74422fa9a78,61036f7647f5f4229f401fc5,2021-07-29_23h18.57.378,Simcolourproject_2stim_asymm_v5,2020.2.10,MacIntel,60,61025ae37ef11b136ea224fe,,,,,,,,,746,28,59,1,0,0,response1disk,,7,15,11,1,0,0,rectangle,15,11,1,0,0,,,,,,,15,11,1,0,0,,1,76,236,60,1,
,,,,,,,,,,,,,FF,,,,,,,,0.797,,,,,,,,,,,,,,,,,,,,,,60fd8a9b878fb74422fa9a78,61036f7647f5f4229f401fc5,2021-07-29_23h18.57.378,Simcolourproject_2stim_asymm_v5,2020.2.10,MacIntel,60,61025ae37ef11b136ea224fe,,,,,,,,,4267,-33,-66,1,0,0,response5disk,,3,6,0,1,0,0,rectangle,6,0,1,0,0,,,,,,,6,0,1,0,0,,1,77,237,102,1,
,,,,,,,,,,,,,FF,,,,,,,,1.833,,,,,,,,,,,,,,,,,,,,,,60fd8a9b878fb74422fa9a78,61036f7647f5f4229f401fc5,2021-07-29_23h18.57.378,Simcolourproject_2stim_asymm_v5,2020.2.10,MacIntel,60,61025ae37ef11b136ea224fe,,,,,,,,,3690,37,-64,1,0,0,response3disk,,4,9,-10,1,0,0,rectangle,9,-10,1,0,0,,,,,,,9,-10,1,0,0,,1,78,238,83,1,
,,,,,,,,,,,,,FF,,,,,,,,0.917,,,,,,,,,,,,,,,,,,,,,,60fd8a9b878fb74422fa9a78,61036f7647f5f4229f401fc5,2021-07-29_23h18.57.378,Simcolourproject_2stim_asymm_v5,2020.2.10,MacIntel,60,61025ae37ef11b136ea224fe,,,,,,,,,3544,24,-46,1,0,0,response3disk,,4,13,-17,1,0,0,rectangle,13,-17,1,0,0,,,,,,,13,-17,1,0,0,,1,79,239,22,1,
,,,,,,,,,,,,,FF,,,,,,,,0.694,,,,,,,,,,,,,,,,,,,,,,60fd8a9b878fb74422fa9a78,61036f7647f5f4229f401fc5,2021-07-29_23h18.57.378,Simcolourproject_2stim_asymm_v5,2020.2.10,MacIntel,60,61025ae37ef11b136ea224fe,,,,,,,,,2632,39,46,1,0,0,response1disk,,7,-1,-7,1,0,0,rectangle,-1,-7,1,0,0,,,,,,,-1,-7,1,0,0,,1,80,240,153,1,
,,,,,,,,,,,,,FF,,,,,,,,0.684,,,,,,,,,,,,,,,,,,,,,,60fd8a9b878fb74422fa9a78,61036f7647f5f4229f401fc5,2021-07-29_23h18.57.378,Simcolourproject_2stim_asymm_v5,2020.2.10,MacIntel,60,61025ae37ef11b136ea224fe,,,,,,,,,4243,28,65,1,0,0,response1disk,,7,6,9,1,0,0,rectangle,6,9,1,0,0,,,,,,,6,9,1,0,0,,1,81,241,124,1,
,,,,,,,,,,,,,FF,,,,,,,,0.959,,,,,,,,,,,,,,,,,,,,,,60fd8a9b878fb74422fa9a78,61036f7647f5f4229f401fc5,2021-07-29_23h18.57.378,Simcolourproject_2stim_asymm_v5,2020.2.10,MacIntel,60,61025ae37ef11b136ea224fe,,,,,,,,,3391,25,-73,1,0,0,response3disk,,4,12,0,1,0,0,rectangle,12,0,1,0,0,,,,,,,12,0,1,0,0,,1,82,242,130,1,
,,,,,,,,,,,,,FF,,,,,,,,1.236,,,,,,,,,,,,,,,,,,,,,,60fd8a9b878fb74422fa9a78,61036f7647f5f4229f401fc5,2021-07-29_23h18.57.378,Simcolourproject_2stim_asymm_v5,2020.2.10,MacIntel,60,61025ae37ef11b136ea224fe,,,,,,,,,2053,63,37,1,0,0,response1disk,,6,1,9,1,0,0,rectangle,1,9,1,0,0,,,,,,,1,9,1,0,0,,1,83,243,50,1,
,,,,,,,,,,,,,FF,,,,,,,,1.145,,,,,,,,,,,,,,,,,,,,,,60fd8a9b878fb74422fa9a78,61036f7647f5f4229f401fc5,2021-07-29_23h18.57.378,Simcolourproject_2stim_asymm_v5,2020.2.10,MacIntel,60,61025ae37ef11b136ea224fe,,,,,,,,,3001,16,-73,1,0,0,response3disk,,4,9,-12,1,0,0,rectangle,9,-12,1,0,0,,,,,,,9,-12,1,0,0,,1,84,244,141,1,
,,,,,,,,,,,,,FF,,,,,,,,0.904,,,,,,,,,,,,,,,,,,,,,,60fd8a9b878fb74422fa9a78,61036f7647f5f4229f401fc5,2021-07-29_23h18.57.378,Simcolourproject_2stim_asymm_v5,2020.2.10,MacIntel,60,61025ae37ef11b136ea224fe,,,,,,,,,2700,34,59,1,0,0,response1disk,,7,7,3,1,0,0,rectangle,7,3,1,0,0,,,,,,,7,3,1,0,0,,1,85,245,93,1,
,,,,,,,,,,,,,FF,,,,,,,,0.717,,,,,,,,,,,,,,,,,,,,,,60fd8a9b878fb74422fa9a78,61036f7647f5f4229f401fc5,2021-07-29_23h18.57.378,Simcolourproject_2stim_asymm_v5,2020.2.10,MacIntel,60,61025ae37ef11b136ea224fe,,,,,,,,,4305,-21,45,1,0,0,response7disk,,0,2,1,1,0,0,rectangle,2,1,1,0,0,,,,,,,2,1,1,0,0,,1,86,246,121,1,
,,,,,,,,,,,,,FF,,,,,,,,0.733,,,,,,,,,,,,,,,,,,,,,,60fd8a9b878fb74422fa9a78,61036f7647f5f4229f401fc5,2021-07-29_23h18.57.378,Simcolourproject_2stim_asymm_v5,2020.2.10,MacIntel,60,61025ae37ef11b136ea224fe,,,,,,,,,1648,27,61,1,0,0,response1disk,,7,13,10,1,0,0,rectangle,13,10,1,0,0,,,,,,,13,10,1,0,0,,1,87,247,20,1,
,,,,,,,,,,,,,FF,,,,,,,,0.716,,,,,,,,,,,,,,,,,,,,,,60fd8a9b878fb74422fa9a78,61036f7647f5f4229f401fc5,2021-07-29_23h18.57.378,Simcolourproject_2stim_asymm_v5,2020.2.10,MacIntel,60,61025ae37ef11b136ea224fe,,,,,,,,,2132,36,64,1,0,0,response1disk,,7,18,7,1,0,0,rectangle,18,7,1,0,0,,,,,,,18,7,1,0,0,,1,88,248,122,1,
,,,,,,,,,,,,,FF,,,,,,,,1.207,,,,,,,,,,,,,,,,,,,,,,60fd8a9b878fb74422fa9a78,61036f7647f5f4229f401fc5,2021-07-29_23h18.57.378,Simcolourproject_2stim_asymm_v5,2020.2.10,MacIntel,60,61025ae37ef11b136ea224fe,,,,,,,,,3396,-23,-69,1,0,0,response5disk,,3,8,-3,1,0,0,rectangle,8,-3,1,0,0,,,,,,,8,-3,1,0,0,,1,89,249,111,1,
,,,,,,,,,,,,,FF,,,,,,,,0.994,,,,,,,,,,,,,,,,,,,,,,60fd8a9b878fb74422fa9a78,61036f7647f5f4229f401fc5,2021-07-29_23h18.57.378,Simcolourproject_2stim_asymm_v5,2020.2.10,MacIntel,60,61025ae37ef11b136ea224fe,,,,,,,,,2980,25,49,1,0,0,response1disk,,7,7,10,1,0,0,rectangle,37,-64,1,0,0,response3disk_3,TRUE,4,4,"[55,199,71,91,84,251,317,88,1,131,310,320,308,30,39,260,133,230,193,317]",1.983,14,2,1,0,0,rectangle,1,90,250,23,1,
,,,,,,,,,,,,,FF,,,,,,,,0.895,,,,,,,,,,,,,,,,,,,,,,60fd8a9b878fb74422fa9a78,61036f7647f5f4229f401fc5,2021-07-29_23h18.57.378,Simcolourproject_2stim_asymm_v5,2020.2.10,MacIntel,60,61025ae37ef11b136ea224fe,,,,,,,,,2567,25,60,1,0,0,response1disk,,7,-1,5,1,0,0,rectangle,-1,5,1,0,0,,,,,,,-1,5,1,0,0,,1,91,251,25,1,
,,,,,,,,,,,,,FF,,,,,,,,0.744,,,,,,,,,,,,,,,,,,,,,,60fd8a9b878fb74422fa9a78,61036f7647f5f4229f401fc5,2021-07-29_23h18.57.378,Simcolourproject_2stim_asymm_v5,2020.2.10,MacIntel,60,61025ae37ef11b136ea224fe,,,,,,,,,4018,31,64,1,0,0,response1disk,,7,19,2,1,0,0,rectangle,19,2,1,0,0,,,,,,,19,2,1,0,0,,1,92,252,126,1,
,,,,,,,,,,,,,FF,,,,,,,,0.917,,,,,,,,,,,,,,,,,,,,,,60fd8a9b878fb74422fa9a78,61036f7647f5f4229f401fc5,2021-07-29_23h18.57.378,Simcolourproject_2stim_asymm_v5,2020.2.10,MacIntel,60,61025ae37ef11b136ea224fe,,,,,,,,,2524,59,23,1,0,0,response1disk,,6,21,1,1,0,0,rectangle,21,1,1,0,0,,,,,,,21,1,1,0,0,,1,93,253,40,1,
,,,,,,,,,,,,,FF,,,,,,,,1.968,,,,,,,,,,,,,,,,,,,,,,60fd8a9b878fb74422fa9a78,61036f7647f5f4229f401fc5,2021-07-29_23h18.57.378,Simcolourproject_2stim_asymm_v5,2020.2.10,MacIntel,60,61025ae37ef11b136ea224fe,,,,,,,,,3709,69,-36,1,0,0,response3disk,,5,15,-10,1,0,0,rectangle,15,-10,1,0,0,,,,,,,15,-10,1,0,0,,1,94,254,123,1,
,,,,,,,,,,,,,FF,,,,,,,,1.577,,,,,,,,,,,,,,,,,,,,,,60fd8a9b878fb74422fa9a78,61036f7647f5f4229f401fc5,2021-07-29_23h18.57.378,Simcolourproject_2stim_asymm_v5,2020.2.10,MacIntel,60,61025ae37ef11b136ea224fe,,,,,,,,,3560,-29,-67,1,0,0,response5disk,,3,-3,-4,1,0,0,rectangle,-3,-4,1,0,0,,,,,,,-3,-4,1,0,0,,1,95,255,6,1,
,,,,,,,,,,,,,FF,,,,,,,,1.189,,,,,,,,,,,,,,,,,,,,,,60fd8a9b878fb74422fa9a78,61036f7647f5f4229f401fc5,2021-07-29_23h18.57.378,Simcolourproject_2stim_asymm_v5,2020.2.10,MacIntel,60,61025ae37ef11b136ea224fe,,,,,,,,,1116,46,64,1,0,0,response1disk,,7,2,-6,1,0,0,rectangle,2,-6,1,0,0,,,,,,,2,-6,1,0,0,,1,96,256,143,1,
,,,,,,,,,,,,,FF,,,,,,,,0.889,,,,,,,,,,,,,,,,,,,,,,60fd8a9b878fb74422fa9a78,61036f7647f5f4229f401fc5,2021-07-29_23h18.57.378,Simcolourproject_2stim_asymm_v5,2020.2.10,MacIntel,60,61025ae37ef11b136ea224fe,,,,,,,,,547,71,38,1,0,0,response1disk,,6,9,14,1,0,0,rectangle,9,14,1,0,0,,,,,,,9,14,1,0,0,,1,97,257,98,1,
,,,,,,,,,,,,,FF,,,,,,,,0.633,,,,,,,,,,,,,,,,,,,,,,60fd8a9b878fb74422fa9a78,61036f7647f5f4229f401fc5,2021-07-29_23h18.57.378,Simcolourproject_2stim_asymm_v5,2020.2.10,MacIntel,60,61025ae37ef11b136ea224fe,,,,,,,,,1678,18,56,1,0,0,response1disk,,7,8,4,1,0,0,rectangle,8,4,1,0,0,,,,,,,8,4,1,0,0,,1,98,258,106,1,
,,,,,,,,,,,,,FF,,,,,,,,0.726,,,,,,,,,,,,,,,,,,,,,,60fd8a9b878fb74422fa9a78,61036f7647f5f4229f401fc5,2021-07-29_23h18.57.378,Simcolourproject_2stim_asymm_v5,2020.2.10,MacIntel,60,61025ae37ef11b136ea224fe,,,,,,,,,325,27,59,1,0,0,response1disk,,7,16,9,1,0,0,rectangle,80,33,1,0,0,response1disk_3,TRUE,6,6,"[55,199,71,91,84,251,317,88,1,131,310,320,308,30,39,260,133,230,193,317]",1.476,4,-2,1,0,0,rectangle,1,99,259,90,1,
,,,,,,,,,,,,,FF,,,,,,,,1.36,,,,,,,,,,,,,,,,,,,,,,60fd8a9b878fb74422fa9a78,61036f7647f5f4229f401fc5,2021-07-29_23h18.57.378,Simcolourproject_2stim_asymm_v5,2020.2.10,MacIntel,60,61025ae37ef11b136ea224fe,,,,,,,,,2934,-19,-67,1,0,0,response5disk,,3,0,0,1,0,0,rectangle,0,0,1,0,0,,,,,,,0,0,1,0,0,,1,100,260,133,1,
,,,,,,,,,,,,,FF,,,,,,,,0.858,,,,,,,,,,,,,,,,,,,,,,60fd8a9b878fb74422fa9a78,61036f7647f5f4229f401fc5,2021-07-29_23h18.57.378,Simcolourproject_2stim_asymm_v5,2020.2.10,MacIntel,60,61025ae37ef11b136ea224fe,,,,,,,,,1577,19,46,1,0,0,response1disk,,7,-5,-10,1,0,0,rectangle,-5,-10,1,0,0,,,,,,,-5,-10,1,0,0,,1,101,261,53,1,
,,,,,,,,,,,,,FF,,,,,,,,1.042,,,,,,,,,,,,,,,,,,,,,,60fd8a9b878fb74422fa9a78,61036f7647f5f4229f401fc5,2021-07-29_23h18.57.378,Simcolourproject_2stim_asymm_v5,2020.2.10,MacIntel,60,61025ae37ef11b136ea224fe,,,,,,,,,2034,-50,-34,1,0,0,response5disk,,2,6,11,1,0,0,rectangle,6,11,1,0,0,,,,,,,6,11,1,0,0,,1,102,262,96,1,
,,,,,,,,,,,,,FF,,,,,,,,0.95,,,,,,,,,,,,,,,,,,,,,,60fd8a9b878fb74422fa9a78,61036f7647f5f4229f401fc5,2021-07-29_23h18.57.378,Simcolourproject_2stim_asymm_v5,2020.2.10,MacIntel,60,61025ae37ef11b136ea224fe,,,,,,,,,3865,44,74,1,0,0,response1disk,,7,-4,-3,1,0,0,rectangle,-4,-3,1,0,0,,,,,,,-4,-3,1,0,0,,1,103,263,73,1,
,,,,,,,,,,,,,FF,,,,,,,,1.024,,,,,,,,,,,,,,,,,,,,,,60fd8a9b878fb74422fa9a78,61036f7647f5f4229f401fc5,2021-07-29_23h18.57.378,Simcolourproject_2stim_asymm_v5,2020.2.10,MacIntel,60,61025ae37ef11b136ea224fe,,,,,,,,,1223,26,-59,1,0,0,response3disk,,4,10,-10,1,0,0,rectangle,10,-10,1,0,0,,,,,,,10,-10,1,0,0,,1,104,264,82,1,
,,,,,,,,,,,,,FF,,,,,,,,0.783,,,,,,,,,,,,,,,,,,,,,,60fd8a9b878fb74422fa9a78,61036f7647f5f4229f401fc5,2021-07-29_23h18.57.378,Simcolourproject_2stim_asymm_v5,2020.2.10,MacIntel,60,61025ae37ef11b136ea224fe,,,,,,,,,1689,34,54,1,0,0,response1disk,,7,2,1,1,0,0,rectangle,2,1,1,0,0,,,,,,,2,1,1,0,0,,1,105,265,14,1,
,,,,,,,,,,,,,FF,,,,,,,,0.788,,,,,,,,,,,,,,,,,,,,,,60fd8a9b878fb74422fa9a78,61036f7647f5f4229f401fc5,2021-07-29_23h18.57.378,Simcolourproject_2stim_asymm_v5,2020.2.10,MacIntel,60,61025ae37ef11b136ea224fe,,,,,,,,,188,-24,-61,1,0,0,response5disk,,3,-2,-3,1,0,0,rectangle,-2,-3,1,0,0,,,,,,,-2,-3,1,0,0,,1,106,266,36,1,
,,,,,,,,,,,,,FF,,,,,,,,0.812,,,,,,,,,,,,,,,,,,,,,,60fd8a9b878fb74422fa9a78,61036f7647f5f4229f401fc5,2021-07-29_23h18.57.378,Simcolourproject_2stim_asymm_v5,2020.2.10,MacIntel,60,61025ae37ef11b136ea224fe,,,,,,,,,3057,-27,-46,1,0,0,response5disk,,3,7,4,1,0,0,rectangle,7,4,1,0,0,,,,,,,7,4,1,0,0,,1,107,267,16,1,
,,,,,,,,,,,,,FF,,,,,,,,1.574,,,,,,,,,,,,,,,,,,,,,,60fd8a9b878fb74422fa9a78,61036f7647f5f4229f401fc5,2021-07-29_23h18.57.378,Simcolourproject_2stim_asymm_v5,2020.2.10,MacIntel,60,61025ae37ef11b136ea224fe,,,,,,,,,3990,36,63,1,0,0,response1disk,,7,3,-5,1,0,0,rectangle,3,-5,1,0,0,,,,,,,3,-5,1,0,0,,1,108,268,144,1,
,,,,,,,,,,,,,FF,,,,,,,,0.891,,,,,,,,,,,,,,,,,,,,,,60fd8a9b878fb74422fa9a78,61036f7647f5f4229f401fc5,2021-07-29_23h18.57.378,Simcolourproject_2stim_asymm_v5,2020.2.10,MacIntel,60,61025ae37ef11b136ea224fe,,,,,,,,,1581,77,26,1,0,0,response1disk,,6,-7,6,1,0,0,rectangle,-7,6,1,0,0,,,,,,,-7,6,1,0,0,,1,109,269,37,1,
,,,,,,,,,,,,,FF,,,,,,,,1.123,,,,,,,,,,,,,,,,,,,,,,60fd8a9b878fb74422fa9a78,61036f7647f5f4229f401fc5,2021-07-29_23h18.57.378,Simcolourproject_2stim_asymm_v5,2020.2.10,MacIntel,60,61025ae37ef11b136ea224fe,,,,,,,,,1932,41,62,1,0,0,response1disk,,7,3,4,1,0,0,rectangle,3,4,1,0,0,,,,,,,3,4,1,0,0,,1,110,270,138,1,
,,,,,,,,,,,,,FF,,,,,,,,0.967,,,,,,,,,,,,,,,,,,,,,,60fd8a9b878fb74422fa9a78,61036f7647f5f4229f401fc5,2021-07-29_23h18.57.378,Simcolourproject_2stim_asymm_v5,2020.2.10,MacIntel,60,61025ae37ef11b136ea224fe,,,,,,,,,979,62,26,1,0,0,response1disk,,6,7,-2,1,0,0,rectangle,7,-2,1,0,0,,,,,,,7,-2,1,0,0,,1,111,271,31,1,
,,,,,,,,,,,,,FF,,,,,,,,0.85,,,,,,,,,,,,,,,,,,,,,,60fd8a9b878fb74422fa9a78,61036f7647f5f4229f401fc5,2021-07-29_23h18.57.378,Simcolourproject_2stim_asymm_v5,2020.2.10,MacIntel,60,61025ae37ef11b136ea224fe,,,,,,,,,4341,28,68,1,0,0,response1disk,,7,-9,12,1,0,0,rectangle,-9,12,1,0,0,,,,,,,-9,12,1,0,0,,1,112,272,120,1,
,,,,,,,,,,,,,FF,,,,,,,,0.765,,,,,,,,,,,,,,,,,,,,,,60fd8a9b878fb74422fa9a78,61036f7647f5f4229f401fc5,2021-07-29_23h18.57.378,Simcolourproject_2stim_asymm_v5,2020.2.10,MacIntel,60,61025ae37ef11b136ea224fe,,,,,,,,,378,62,26,1,0,0,response1disk,,6,6,3,1,0,0,rectangle,6,3,1,0,0,,,,,,,6,3,1,0,0,,1,113,273,4,1,
,,,,,,,,,,,,,FF,,,,,,,,1.217,,,,,,,,,,,,,,,,,,,,,,60fd8a9b878fb74422fa9a78,61036f7647f5f4229f401fc5,2021-07-29_23h18.57.378,Simcolourproject_2stim_asymm_v5,2020.2.10,MacIntel,60,61025ae37ef11b136ea224fe,,,,,,,,,4114,70,36,1,0,0,response1disk,,6,-8,1,1,0,0,rectangle,-8,1,1,0,0,,,,,,,-8,1,1,0,0,,1,114,274,77,1,
,,,,,,,,,,,,,FF,,,,,,,,0.733,,,,,,,,,,,,,,,,,,,,,,60fd8a9b878fb74422fa9a78,61036f7647f5f4229f401fc5,2021-07-29_23h18.57.378,Simcolourproject_2stim_asymm_v5,2020.2.10,MacIntel,60,61025ae37ef11b136ea224fe,,,,,,,,,2313,34,67,1,0,0,response1disk,,7,1,9,1,0,0,rectangle,1,9,1,0,0,,,,,,,1,9,1,0,0,,1,115,275,99,1,
,,,,,,,,,,,,,FF,,,,,,,,1.717,,,,,,,,,,,,,,,,,,,,,,60fd8a9b878fb74422fa9a78,61036f7647f5f4229f401fc5,2021-07-29_23h18.57.378,Simcolourproject_2stim_asymm_v5,2020.2.10,MacIntel,60,61025ae37ef11b136ea224fe,,,,,,,,,3889,52,-66,1,0,0,response3disk,,4,20,-8,1,0,0,rectangle,20,-8,1,0,0,,,,,,,20,-8,1,0,0,,1,116,276,92,1,
,,,,,,,,,,,,,FF,,,,,,,,0.895,,,,,,,,,,,,,,,,,,,,,,60fd8a9b878fb74422fa9a78,61036f7647f5f4229f401fc5,2021-07-29_23h18.57.378,Simcolourproject_2stim_asymm_v5,2020.2.10,MacIntel,60,61025ae37ef11b136ea224fe,,,,,,,,,1003,37,60,1,0,0,response1disk,,7,0,7,1,0,0,rectangle,0,7,1,0,0,,,,,,,0,7,1,0,0,,1,117,277,95,1,
,,,,,,,,,,,,,FF,,,,,,,,1.368,,,,,,,,,,,,,,,,,,,,,,60fd8a9b878fb74422fa9a78,61036f7647f5f4229f401fc5,2021-07-29_23h18.57.378,Simcolourproject_2stim_asymm_v5,2020.2.10,MacIntel,60,61025ae37ef11b136ea224fe,,,,,,,,,3975,40,-71,1,0,0,response3disk,,4,1,5,1,0,0,rectangle,1,5,1,0,0,,,,,,,1,5,1,0,0,,1,118,278,66,1,
,,,,,,,,,,,,,FF,,,,,,,,1.102,,,,,,,,,,,,,,,,,,,,,,60fd8a9b878fb74422fa9a78,61036f7647f5f4229f401fc5,2021-07-29_23h18.57.378,Simcolourproject_2stim_asymm_v5,2020.2.10,MacIntel,60,61025ae37ef11b136ea224fe,,,,,,,,,809,67,35,1,0,0,response1disk,,6,-6,5,1,0,0,rectangle,-6,5,1,0,0,,,,,,,-6,5,1,0,0,,1,119,279,97,1,
,,,,,,,,,,,,,FF,,,,,,,,0.999,,,,,,,,,,,,,,,,,,,,,,60fd8a9b878fb74422fa9a78,61036f7647f5f4229f401fc5,2021-07-29_23h18.57.378,Simcolourproject_2stim_asymm_v5,2020.2.10,MacIntel,60,61025ae37ef11b136ea224fe,,,,,,,,,4158,45,63,1,0,0,response1disk,,7,2,-7,1,0,0,rectangle,2,-7,1,0,0,,,,,,,2,-7,1,0,0,,1,120,280,21,1,
,,,,,,,,,,,,,FF,,,,,,,,0.736,,,,,,,,,,,,,,,,,,,,,,60fd8a9b878fb74422fa9a78,61036f7647f5f4229f401fc5,2021-07-29_23h18.57.378,Simcolourproject_2stim_asymm_v5,2020.2.10,MacIntel,60,61025ae37ef11b136ea224fe,,,,,,,,,662,30,59,1,0,0,response1disk,,7,3,8,1,0,0,rectangle,3,8,1,0,0,,,,,,,3,8,1,0,0,,1,121,281,61,1,
,,,,,,,,,,,,,FF,,,,,,,,0.711,,,,,,,,,,,,,,,,,,,,,,60fd8a9b878fb74422fa9a78,61036f7647f5f4229f401fc5,2021-07-29_23h18.57.378,Simcolourproject_2stim_asymm_v5,2020.2.10,MacIntel,60,61025ae37ef11b136ea224fe,,,,,,,,,2014,34,66,1,0,0,response1disk,,7,3,-1,1,0,0,rectangle,3,-1,1,0,0,,,,,,,3,-1,1,0,0,,1,122,282,69,1,
,,,,,,,,,,,,,FF,,,,,,,,0.665,,,,,,,,,,,,,,,,,,,,,,60fd8a9b878fb74422fa9a78,61036f7647f5f4229f401fc5,2021-07-29_23h18.57.378,Simcolourproject_2stim_asymm_v5,2020.2.10,MacIntel,60,61025ae37ef11b136ea224fe,,,,,,,,,1195,32,61,1,0,0,response1disk,,7,16,2,1,0,0,rectangle,16,2,1,0,0,,,,,,,16,2,1,0,0,,1,123,283,115,1,
,,,,,,,,,,,,,FF,,,,,,,,0.667,,,,,,,,,,,,,,,,,,,,,,60fd8a9b878fb74422fa9a78,61036f7647f5f4229f401fc5,2021-07-29_23h18.57.378,Simcolourproject_2stim_asymm_v5,2020.2.10,MacIntel,60,61025ae37ef11b136ea224fe,,,,,,,,,2576,39,66,1,0,0,response1disk,,7,14,-2,1,0,0,rectangle,14,-2,1,0,0,,,,,,,14,-2,1,0,0,,1,124,284,91,1,
,,,,,,,,,,,,,FF,,,,,,,,0.744,,,,,,,,,,,,,,,,,,,,,,60fd8a9b878fb74422fa9a78,61036f7647f5f4229f401fc5,2021-07-29_23h18.57.378,Simcolourproject_2stim_asymm_v5,2020.2.10,MacIntel,60,61025ae37ef11b136ea224fe,,,,,,,,,2948,-26,47,1,0,0,response7disk,,0,1,5,1,0,0,rectangle,1,5,1,0,0,,,,,,,1,5,1,0,0,,1,125,285,84,1,
,,,,,,,,,,,,,FF,,,,,,,,0.791,,,,,,,,,,,,,,,,,,,,,,60fd8a9b878fb74422fa9a78,61036f7647f5f4229f401fc5,2021-07-29_23h18.57.378,Simcolourproject_2stim_asymm_v5,2020.2.10,MacIntel,60,61025ae37ef11b136ea224fe,,,,,,,,,1156,32,69,1,0,0,response1disk,,7,12,0,1,0,0,rectangle,12,0,1,0,0,,,,,,,12,0,1,0,0,,1,126,286,148,1,
,,,,,,,,,,,,,FF,,,,,,,,0.883,,,,,,,,,,,,,,,,,,,,,,60fd8a9b878fb74422fa9a78,61036f7647f5f4229f401fc5,2021-07-29_23h18.57.378,Simcolourproject_2stim_asymm_v5,2020.2.10,MacIntel,60,61025ae37ef11b136ea224fe,,,,,,,,,2737,-17,-62,1,0,0,response5disk,,3,-3,-5,1,0,0,rectangle,-3,-5,1,0,0,,,,,,,-3,-5,1,0,0,,1,127,287,28,1,
,,,,,,,,,,,,,FF,,,,,,,,0.726,,,,,,,,,,,,,,,,,,,,,,60fd8a9b878fb74422fa9a78,61036f7647f5f4229f401fc5,2021-07-29_23h18.57.378,Simcolourproject_2stim_asymm_v5,2020.2.10,MacIntel,60,61025ae37ef11b136ea224fe,,,,,,,,,1876,30,75,1,0,0,response1disk,,7,9,11,1,0,0,rectangle,9,11,1,0,0,,,,,,,9,11,1,0,0,,1,128,288,19,1,
,,,,,,,,,,,,,FF,,,,,,,,0.789,,,,,,,,,,,,,,,,,,,,,,60fd8a9b878fb74422fa9a78,61036f7647f5f4229f401fc5,2021-07-29_23h18.57.378,Simcolourproject_2stim_asymm_v5,2020.2.10,MacIntel,60,61025ae37ef11b136ea224fe,,,,,,,,,2088,24,51,1,0,0,response1disk,,7,10,-6,1,0,0,rectangle,10,-6,1,0,0,,,,,,,10,-6,1,0,0,,1,129,289,68,1,
,,,,,,,,,,,,,FF,,,,,,,,1.139,,,,,,,,,,,,,,,,,,,,,,60fd8a9b878fb74422fa9a78,61036f7647f5f4229f401fc5,2021-07-29_23h18.57.378,Simcolourproject_2stim_asymm_v5,2020.2.10,MacIntel,60,61025ae37ef11b136ea224fe,,,,,,,,,1348,32,59,1,0,0,response1disk,,7,11,-1,1,0,0,rectangle,11,-1,1,0,0,,,,,,,11,-1,1,0,0,,1,130,290,54,1,
,,,,,,,,,,,,,FF,,,,,,,,0.935,,,,,,,,,,,,,,,,,,,,,,60fd8a9b878fb74422fa9a78,61036f7647f5f4229f401fc5,2021-07-29_23h18.57.378,Simcolourproject_2stim_asymm_v5,2020.2.10,MacIntel,60,61025ae37ef11b136ea224fe,,,,,,,,,2997,-31,-43,1,0,0,response5disk,,3,-16,-6,1,0,0,rectangle,-16,-6,1,0,0,,,,,,,-16,-6,1,0,0,,1,131,291,87,1,
,,,,,,,,,,,,,FF,,,,,,,,1.67,,,,,,,,,,,,,,,,,,,,,,60fd8a9b878fb74422fa9a78,61036f7647f5f4229f401fc5,2021-07-29_23h18.57.378,Simcolourproject_2stim_asymm_v5,2020.2.10,MacIntel,60,61025ae37ef11b136ea224fe,,,,,,,,,2544,-23,-47,1,0,0,response5disk,,3,-3,-1,1,0,0,rectangle,-3,-1,1,0,0,,,,,,,-3,-1,1,0,0,,1,132,292,13,1,
,,,,,,,,,,,,,FF,,,,,,,,1.075,,,,,,,,,,,,,,,,,,,,,,60fd8a9b878fb74422fa9a78,61036f7647f5f4229f401fc5,2021-07-29_23h18.57.378,Simcolourproject_2stim_asymm_v5,2020.2.10,MacIntel,60,61025ae37ef11b136ea224fe,,,,,,,,,1884,22,63,1,0,0,response1disk,,7,3,2,1,0,0,rectangle,3,2,1,0,0,,,,,,,3,2,1,0,0,,1,133,293,59,1,
,,,,,,,,,,,,,FF,,,,,,,,0.903,,,,,,,,,,,,,,,,,,,,,,60fd8a9b878fb74422fa9a78,61036f7647f5f4229f401fc5,2021-07-29_23h18.57.378,Simcolourproject_2stim_asymm_v5,2020.2.10,MacIntel,60,61025ae37ef11b136ea224fe,,,,,,,,,3758,63,30,1,0,0,response1disk,,6,12,2,1,0,0,rectangle,12,2,1,0,0,,,,,,,12,2,1,0,0,,1,134,294,128,1,
,,,,,,,,,,,,,FF,,,,,,,,1.068,,,,,,,,,,,,,,,,,,,,,,60fd8a9b878fb74422fa9a78,61036f7647f5f4229f401fc5,2021-07-29_23h18.57.378,Simcolourproject_2stim_asymm_v5,2020.2.10,MacIntel,60,61025ae37ef11b136ea224fe,,,,,,,,,2177,29,61,1,0,0,response1disk,,7,10,4,1,0,0,rectangle,10,4,1,0,0,,,,,,,10,4,1,0,0,,1,135,295,29,1,
,,,,,,,,,,,,,FF,,,,,,,,1.268,,,,,,,,,,,,,,,,,,,,,,60fd8a9b878fb74422fa9a78,61036f7647f5f4229f401fc5,2021-07-29_23h18.57.378,Simcolourproject_2stim_asymm_v5,2020.2.10,MacIntel,60,61025ae37ef11b136ea224fe,,,,,,,,,1704,31,49,1,0,0,response1disk,,7,1,1,1,0,0,rectangle,1,1,1,0,0,,,,,,,1,1,1,0,0,,1,136,296,142,1,
,,,,,,,,,,,,,FF,,,,,,,,1.248,,,,,,,,,,,,,,,,,,,,,,60fd8a9b878fb74422fa9a78,61036f7647f5f4229f401fc5,2021-07-29_23h18.57.378,Simcolourproject_2stim_asymm_v5,2020.2.10,MacIntel,60,61025ae37ef11b136ea224fe,,,,,,,,,2956,68,46,1,0,0,response1disk,,6,24,12,1,0,0,rectangle,24,12,1,0,0,,,,,,,24,12,1,0,0,,1,137,297,7,1,
,,,,,,,,,,,,,FF,,,,,,,,0.659,,,,,,,,,,,,,,,,,,,,,,60fd8a9b878fb74422fa9a78,61036f7647f5f4229f401fc5,2021-07-29_23h18.57.378,Simcolourproject_2stim_asymm_v5,2020.2.10,MacIntel,60,61025ae37ef11b136ea224fe,,,,,,,,,1009,42,58,1,0,0,response1disk,,7,16,11,1,0,0,rectangle,16,11,1,0,0,,,,,,,16,11,1,0,0,,1,138,298,17,1,
,,,,,,,,,,,,,FF,,,,,,,,0.901,,,,,,,,,,,,,,,,,,,,,,60fd8a9b878fb74422fa9a78,61036f7647f5f4229f401fc5,2021-07-29_23h18.57.378,Simcolourproject_2stim_asymm_v5,2020.2.10,MacIntel,60,61025ae37ef11b136ea224fe,,,,,,,,,193,55,29,1,0,0,response1disk,,6,11,2,1,0,0,rectangle,11,2,1,0,0,,,,,,,11,2,1,0,0,,1,139,299,105,1,
,,,,,,,,,,,,,FF,,,,,,,,0.706,,,,,,,,,,,,,,,,,,,,,,60fd8a9b878fb74422fa9a78,61036f7647f5f4229f401fc5,2021-07-29_23h18.57.378,Simcolourproject_2stim_asymm_v5,2020.2.10,MacIntel,60,61025ae37ef11b136ea224fe,,,,,,,,,2820,32,67,1,0,0,response1disk,,7,13,13,1,0,0,rectangle,13,13,1,0,0,,,,,,,13,13,1,0,0,,1,140,300,15,1,
,,,,,,,,,,,,,FF,,,,,,,,0.686,,,,,,,,,,,,,,,,,,,,,,60fd8a9b878fb74422fa9a78,61036f7647f5f4229f401fc5,2021-07-29_23h18.57.378,Simcolourproject_2stim_asymm_v5,2020.2.10,MacIntel,60,61025ae37ef11b136ea224fe,,,,,,,,,844,47,81,1,0,0,response1disk,,7,9,5,1,0,0,rectangle,9,5,1,0,0,,,,,,,9,5,1,0,0,,1,141,301,119,1,
,,,,,,,,,,,,,FF,,,,,,,,1.201,,,,,,,,,,,,,,,,,,,,,,60fd8a9b878fb74422fa9a78,61036f7647f5f4229f401fc5,2021-07-29_23h18.57.378,Simcolourproject_2stim_asymm_v5,2020.2.10,MacIntel,60,61025ae37ef11b136ea224fe,,,,,,,,,1965,-43,18,1,0,0,response7disk,,1,1,11,1,0,0,rectangle,1,11,1,0,0,,,,,,,1,11,1,0,0,,1,142,302,49,1,
