key_resp.keys,key_resp.rt,key_resp_14.keys,key_resp_14.rt,key_resp_15.keys,key_resp_15.rt,key_resp_17.keys,key_resp_17.rt,key_resp_9.keys,key_resp_9.rt,key_resp_10.keys,key_resp_10.rt,practice_comparison,Ecc,mouse_5.x,mouse_5.y,mouse_5.leftButton,mouse_5.midButton,mouse_5.rightButton,mouse_5.clicked_name,pracsimilarity,response_time,mouse_10.x,mouse_10.y,mouse_10.leftButton,mouse_10.midButton,mouse_10.rightButton,mouse_10.clicked_name,mouse_7.x,mouse_7.y,mouse_7.leftButton,mouse_7.midButton,mouse_7.rightButton,mouse_6.x,mouse_6.y,mouse_6.leftButton,mouse_6.midButton,mouse_6.rightButton,duringprac.thisRepN,duringprac.thisTrialN,duringprac.thisN,duringprac.thisIndex,duringprac.ran,participant,session,date,expName,psychopyVersion,OS,frameRate,study_id,mouse_7.clicked_name,catchpracsimilarity,catch_response_time,catchnumberprac,catchtrialorderprac,mouse_6.clicked_name,key_resp_22.keys,key_resp_22.rt,realcomparison,mouse.x,mouse.y,mouse.leftButton,mouse.midButton,mouse.rightButton,mouse.clicked_name,Colour2,similarity,mouse_2.x,mouse_2.y,mouse_2.leftButton,mouse_2.midButton,mouse_2.rightButton,mouse_2.clicked_name,mouse_3.x,mouse_3.y,mouse_3.leftButton,mouse_3.midButton,mouse_3.rightButton,mouse_11.x,mouse_11.y,mouse_11.leftButton,mouse_11.midButton,mouse_11.rightButton,trials_2.thisRepN,trials_2.thisTrialN,trials_2.thisN,trials_2.thisIndex,trials_2.ran,Colour1,mouse_3.clicked_name,catchornah,catchsimilarity,catchnumber,catchtrialorder,catchRT,mouse_11.clicked_name
space,1.2763,space,18.8121,space,55.5629,space,8.1991,space,2.872,space,4.0172,59,FF,42.66668701,89.99999195,1,0,0,response1disk_5,7,3.1353,2.66668582,-2.000010788,1,0,0,rectangle_8,2.66668582,-2.000010788,1,0,0,2.66668582,-2.000010788,1,0,0,0,0,0,0,1,60fdd47cb6da7411e888e23c,61036dd7292d5a54a075b625,2021-07-29_22h12.00.124,Simcolourproject_2stim_asymm_v5,2020.2.10,Win32,60,61025ae37ef11b136ea224fe,,,,,,,,,,,,,,,,,,,,,,,,,,,,,,,,,,,,,,,,,,,,,,
,,,,,,,,,,,,67,PF,43.3333537,17.33332312,1,0,0,response1disk_5,6,4.8832,18.6666863,-7.333344281,1,0,0,rectangle_8,-81.99998337,-48.00001216,1,0,0,16.00001955,9.999989569,1,0,0,0,1,1,6,1,60fdd47cb6da7411e888e23c,61036dd7292d5a54a075b625,2021-07-29_22h12.00.124,Simcolourproject_2stim_asymm_v5,2020.2.10,Win32,60,61025ae37ef11b136ea224fe,response5disk_7,2,3.5155,2,"[2,5]",rectangle_4,,,,,,,,,,,,,,,,,,,,,,,,,,,,,,,,,,,,,,,,
,,,,,,,,,,,,126,PF,75.33335465,33.33330325,1,0,0,response1disk_5,6,3.1663,12.00001943,-4.666677535,1,0,0,rectangle_8,12.00001943,-4.666677535,1,0,0,12.00001943,-4.666677535,1,0,0,0,2,2,4,1,60fdd47cb6da7411e888e23c,61036dd7292d5a54a075b625,2021-07-29_22h12.00.124,Simcolourproject_2stim_asymm_v5,2020.2.10,Win32,60,61025ae37ef11b136ea224fe,,,,,,,,,,,,,,,,,,,,,,,,,,,,,,,,,,,,,,,,,,,,,,
,,,,,,,,,,,,36,FF,24.00001979,68.66665798,1,0,0,response1disk_5,7,1.149,6.000019252,-10.66667771,1,0,0,rectangle_8,6.000019252,-10.66667771,1,0,0,6.000019252,-10.66667771,1,0,0,0,3,3,3,1,60fdd47cb6da7411e888e23c,61036dd7292d5a54a075b625,2021-07-29_22h12.00.124,Simcolourproject_2stim_asymm_v5,2020.2.10,Win32,60,61025ae37ef11b136ea224fe,,,,,,,,,,,,,,,,,,,,,,,,,,,,,,,,,,,,,,,,,,,,,,
,,,,,,,,,,,,64,PF,39.33339427,-60.6666792,1,0,0,response3disk_5,4,1.7336,8.000019312,-6.666677594,1,0,0,rectangle_8,-56.66660859,-45.33334541,1,0,0,4.000019193,-1.07288E-05,1,0,0,0,4,4,1,1,60fdd47cb6da7411e888e23c,61036dd7292d5a54a075b625,2021-07-29_22h12.00.124,Simcolourproject_2stim_asymm_v5,2020.2.10,Win32,60,61025ae37ef11b136ea224fe,response5disk_7,2,2.6668,2,"[2,5]",rectangle_4,,,,,,,,,,,,,,,,,,,,,,,,,,,,,,,,,,,,,,,,
,,,,,,,,,,,,26,FF,-27.99998176,76.66665822,1,0,0,response7disk_5,0,1.3333,16.66668624,-2.000010788,1,0,0,rectangle_8,16.66668624,-2.000010788,1,0,0,16.66668624,-2.000010788,1,0,0,0,5,5,5,1,60fdd47cb6da7411e888e23c,61036dd7292d5a54a075b625,2021-07-29_22h12.00.124,Simcolourproject_2stim_asymm_v5,2020.2.10,Win32,60,61025ae37ef11b136ea224fe,,,,,,,,,,,,,,,,,,,,,,,,,,,,,,,,,,,,,,,,,,,,,,
,,,,,,,,,,,,62,PF,62.00002092,29.99999017,1,0,0,response1disk_5,6,1.6668,1.9735E-05,-7.333344281,1,0,0,rectangle_8,1.9735E-05,-7.333344281,1,0,0,1.9735E-05,-7.333344281,1,0,0,0,6,6,2,1,60fdd47cb6da7411e888e23c,61036dd7292d5a54a075b625,2021-07-29_22h12.00.124,Simcolourproject_2stim_asymm_v5,2020.2.10,Win32,60,61025ae37ef11b136ea224fe,,,,,,,,,,,,,,,,,,,,,,,,,,,,,,,,,,,,,,,,,,,,,,
,,,,,,,,,,,,,FF,,,,,,,,1.7839,,,,,,,,,,,,,,,,,,,,,,60fdd47cb6da7411e888e23c,61036dd7292d5a54a075b625,2021-07-29_22h12.00.124,Simcolourproject_2stim_asymm_v5,2020.2.10,Win32,60,61025ae37ef11b136ea224fe,,,,,,,space,2.9801,224,66.66668773,22.66665661,1,0,0,response1disk,,6,7.333393315,-6.000010908,1,0,0,rectangle,7.333393315,-6.000010908,1,0,0,7.333393315,-6.000010908,1,0,0,0,0,0,19,1,,,,,,,,
,,,,,,,,,,,,,FF,,,,,,,,1.1997,,,,,,,,,,,,,,,,,,,,,,60fdd47cb6da7411e888e23c,61036dd7292d5a54a075b625,2021-07-29_22h12.00.124,Simcolourproject_2stim_asymm_v5,2020.2.10,Win32,60,61025ae37ef11b136ea224fe,,,,,,,,,1427,59.33335418,30.66665685,1,0,0,response1disk,,6,-1.3333143,-6.000010908,1,0,0,rectangle,-1.3333143,-6.000010908,1,0,0,-1.3333143,-6.000010908,1,0,0,0,1,1,31,1,,,,,,,,
,,,,,,,,,,,,,FF,,,,,,,,1.3502,,,,,,,,,,,,,,,,,,,,,,60fdd47cb6da7411e888e23c,61036dd7292d5a54a075b625,2021-07-29_22h12.00.124,Simcolourproject_2stim_asymm_v5,2020.2.10,Win32,60,61025ae37ef11b136ea224fe,,,,,,,,,974,27.33339391,-72.66667956,1,0,0,response3disk,,4,-2.666606983,3.333322704,1,0,0,rectangle,-2.666606983,3.333322704,1,0,0,-2.666606983,3.333322704,1,0,0,0,2,2,47,1,,,,,,,,
,,,,,,,,,,,,,FF,,,,,,,,1.0346,,,,,,,,,,,,,,,,,,,,,,60fdd47cb6da7411e888e23c,61036dd7292d5a54a075b625,2021-07-29_22h12.00.124,Simcolourproject_2stim_asymm_v5,2020.2.10,Win32,60,61025ae37ef11b136ea224fe,,,,,,,,,3627,-32.66660788,-64.66667932,1,0,0,response5disk,,3,-8.666607161,-12.66667777,1,0,0,rectangle,-8.666607161,-12.66667777,1,0,0,-8.666607161,-12.66667777,1,0,0,0,3,3,93,1,,,,,,,,
,,,,,,,,,,,,,FF,,,,,,,,1.0171,,,,,,,,,,,,,,,,,,,,,,60fdd47cb6da7411e888e23c,61036dd7292d5a54a075b625,2021-07-29_22h12.00.124,Simcolourproject_2stim_asymm_v5,2020.2.10,Win32,60,61025ae37ef11b136ea224fe,,,,,,,,,773,40.00002027,-60.6666792,1,0,0,response3disk,,4,1.333393137,7.333322823,1,0,0,rectangle,1.333393137,7.333322823,1,0,0,1.333393137,7.333322823,1,0,0,0,4,4,154,1,,,,,,,,
,,,,,,,,,,,,,FF,,,,,,,,1.2332,,,,,,,,,,,,,,,,,,,,,,60fdd47cb6da7411e888e23c,61036dd7292d5a54a075b625,2021-07-29_22h12.00.124,Simcolourproject_2stim_asymm_v5,2020.2.10,Win32,60,61025ae37ef11b136ea224fe,,,,,,,,,4281,-65.99998289,29.99999017,1,0,0,response7disk,,1,7.333393315,-0.666677415,1,0,0,rectangle,7.333393315,-0.666677415,1,0,0,7.333393315,-0.666677415,1,0,0,0,5,5,16,1,,,,,,,,
,,,,,,,,,,,,,FF,,,,,,,,1.3778,,,,,,,,,,,,,,,,,,,,,,60fdd47cb6da7411e888e23c,61036dd7292d5a54a075b625,2021-07-29_22h12.00.124,Simcolourproject_2stim_asymm_v5,2020.2.10,Win32,60,61025ae37ef11b136ea224fe,,,,,,,,,706,-51.33331579,31.33330319,1,0,0,response7disk,,1,8.000019312,-0.666677415,1,0,0,rectangle,8.000019312,-0.666677415,1,0,0,8.000019312,-0.666677415,1,0,0,0,6,6,152,1,,,,,,,,
,,,,,,,,,,,,,FF,,,,,,,,1.0863,,,,,,,,,,,,,,,,,,,,,,60fdd47cb6da7411e888e23c,61036dd7292d5a54a075b625,2021-07-29_22h12.00.124,Simcolourproject_2stim_asymm_v5,2020.2.10,Win32,60,61025ae37ef11b136ea224fe,,,,,,,,,69,-48.66660835,-58.66667914,1,0,0,response5disk,,3,-1.999980986,-0.666677415,1,0,0,rectangle,-1.999980986,-0.666677415,1,0,0,-1.999980986,-0.666677415,1,0,0,0,7,7,55,1,,,,,,,,
,,,,,,,,,,,,,FF,,,,,,,,1.1,,,,,,,,,,,,,,,,,,,,,,60fdd47cb6da7411e888e23c,61036dd7292d5a54a075b625,2021-07-29_22h12.00.124,Simcolourproject_2stim_asymm_v5,2020.2.10,Win32,60,61025ae37ef11b136ea224fe,,,,,,,,,3730,23.33339379,-59.33334583,1,0,0,response3disk,,4,18.00001961,-2.000010788,1,0,0,rectangle,18.00001961,-2.000010788,1,0,0,18.00001961,-2.000010788,1,0,0,0,8,8,73,1,,,,,,,,
,,,,,,,,,,,,,FF,,,,,,,,1.7188,,,,,,,,,,,,,,,,,,,,,,60fdd47cb6da7411e888e23c,61036dd7292d5a54a075b625,2021-07-29_22h12.00.124,Simcolourproject_2stim_asymm_v5,2020.2.10,Win32,60,61025ae37ef11b136ea224fe,,,,,,,,,1185,32.00002003,63.99999118,1,0,0,response1disk,,7,0.66668576,7.333322823,1,0,0,rectangle,0.66668576,7.333322823,1,0,0,0.66668576,7.333322823,1,0,0,0,9,9,76,1,,,,,,,,
,,,,,,,,,,,,,FF,,,,,,,,0.9834,,,,,,,,,,,,,,,,,,,,,,60fdd47cb6da7411e888e23c,61036dd7292d5a54a075b625,2021-07-29_22h12.00.124,Simcolourproject_2stim_asymm_v5,2020.2.10,Win32,60,61025ae37ef11b136ea224fe,,,,,,,,,1038,63.33335429,14.66665637,1,0,0,response1disk,,6,3.333393196,-2.666677475,1,0,0,rectangle,3.333393196,-2.666677475,1,0,0,3.333393196,-2.666677475,1,0,0,0,10,10,3,1,,,,,,,,
,,,,,,,,,,,,,FF,,,,,,,,1.2673,,,,,,,,,,,,,,,,,,,,,,60fdd47cb6da7411e888e23c,61036dd7292d5a54a075b625,2021-07-29_22h12.00.124,Simcolourproject_2stim_asymm_v5,2020.2.10,Win32,60,61025ae37ef11b136ea224fe,,,,,,,,,2529,29.33339397,60.66665775,1,0,0,response1disk,,7,11.33339343,9.333322883,1,0,0,rectangle,11.33339343,9.333322883,1,0,0,11.33339343,9.333322883,1,0,0,0,11,11,71,1,,,,,,,,
,,,,,,,,,,,,,FF,,,,,,,,0.6685,,,,,,,,,,,,,,,,,,,,,,60fdd47cb6da7411e888e23c,61036dd7292d5a54a075b625,2021-07-29_22h12.00.124,Simcolourproject_2stim_asymm_v5,2020.2.10,Win32,60,61025ae37ef11b136ea224fe,,,,,,,,,2616,22.00001973,57.33330397,1,0,0,response1disk,,7,10.66668606,9.333322883,1,0,0,rectangle,10.66668606,9.333322883,1,0,0,10.66668606,9.333322883,1,0,0,0,12,12,77,1,,,,,,,,
,,,,,,,,,,,,,FF,,,,,,,,2.0868,,,,,,,,,,,,,,,,,,,,,,60fdd47cb6da7411e888e23c,61036dd7292d5a54a075b625,2021-07-29_22h12.00.124,Simcolourproject_2stim_asymm_v5,2020.2.10,Win32,60,61025ae37ef11b136ea224fe,,,,,,,,,3051,32.00002003,-74.66667962,1,0,0,response3disk,,4,8.666685998,-2.000010788,1,0,0,rectangle,8.666685998,-2.000010788,1,0,0,8.666685998,-2.000010788,1,0,0,0,13,13,54,1,,,,,,,,
,,,,,,,,,,,,,FF,,,,,,,,1.1841,,,,,,,,,,,,,,,,,,,,,,60fdd47cb6da7411e888e23c,61036dd7292d5a54a075b625,2021-07-29_22h12.00.124,Simcolourproject_2stim_asymm_v5,2020.2.10,Win32,60,61025ae37ef11b136ea224fe,,,,,,,,,3865,28.66668659,62.66665781,1,0,0,response1disk,,7,-2.666606983,-4.666677535,1,0,0,rectangle,-2.666606983,-4.666677535,1,0,0,-2.666606983,-4.666677535,1,0,0,0,14,14,66,1,,,,,,,,
,,,,,,,,,,,,,FF,,,,,,,,0.8343,,,,,,,,,,,,,,,,,,,,,,60fdd47cb6da7411e888e23c,61036dd7292d5a54a075b625,2021-07-29_22h12.00.124,Simcolourproject_2stim_asymm_v5,2020.2.10,Win32,60,61025ae37ef11b136ea224fe,,,,,,,,,900,30.00001997,58.66665769,1,0,0,response1disk,,7,4.000019193,-4.666677535,1,0,0,rectangle,-81.99998337,-37.33334517,1,0,0,6.666685939,4.666656077,1,0,0,0,15,15,119,1,,response5disk_3,TRUE,2,2,"[94,317,97,217,106,316,58,131,100,89,78,178,232,16,34,292,258,290,94,322]",4.3166,rectangle
,,,,,,,,,,,,,FF,,,,,,,,2.0993,,,,,,,,,,,,,,,,,,,,,,60fdd47cb6da7411e888e23c,61036dd7292d5a54a075b625,2021-07-29_22h12.00.124,Simcolourproject_2stim_asymm_v5,2020.2.10,Win32,60,61025ae37ef11b136ea224fe,,,,,,,,,2008,18.6666863,77.9999916,1,0,0,response1disk,,7,-1.999980986,-5.333344221,1,0,0,rectangle,-1.999980986,-5.333344221,1,0,0,-1.999980986,-5.333344221,1,0,0,0,16,16,43,1,,,,,,,,
,,,,,,,,,,,,,FF,,,,,,,,1.1168,,,,,,,,,,,,,,,,,,,,,,60fdd47cb6da7411e888e23c,61036dd7292d5a54a075b625,2021-07-29_22h12.00.124,Simcolourproject_2stim_asymm_v5,2020.2.10,Win32,60,61025ae37ef11b136ea224fe,,,,,,,,,3004,64.00002098,-36.66667849,1,0,0,response3disk,,5,9.333393375,-2.666677475,1,0,0,rectangle,9.333393375,-2.666677475,1,0,0,9.333393375,-2.666677475,1,0,0,0,17,17,51,1,,,,,,,,
,,,,,,,,,,,,,FF,,,,,,,,1.0992,,,,,,,,,,,,,,,,,,,,,,60fdd47cb6da7411e888e23c,61036dd7292d5a54a075b625,2021-07-29_22h12.00.124,Simcolourproject_2stim_asymm_v5,2020.2.10,Win32,60,61025ae37ef11b136ea224fe,,,,,,,,,4350,-26.6666077,81.99999171,1,0,0,response7disk,,0,-7.999981165,4.666656077,1,0,0,rectangle,-7.999981165,4.666656077,1,0,0,-7.999981165,4.666656077,1,0,0,0,18,18,34,1,,,,,,,,
,,,,,,,,,,,,,FF,,,,,,,,1.1329,,,,,,,,,,,,,,,,,,,,,,60fdd47cb6da7411e888e23c,61036dd7292d5a54a075b625,2021-07-29_22h12.00.124,Simcolourproject_2stim_asymm_v5,2020.2.10,Win32,60,61025ae37ef11b136ea224fe,,,,,,,,,131,-40.66660812,-53.33334565,1,0,0,response5disk,,3,-3.333314359,-4.666677535,1,0,0,rectangle,-3.333314359,-4.666677535,1,0,0,-3.333314359,-4.666677535,1,0,0,0,19,19,82,1,,,,,,,,
,,,,,,,,,,,,,FF,,,,,,,,0.6839,,,,,,,,,,,,,,,,,,,,,,60fdd47cb6da7411e888e23c,61036dd7292d5a54a075b625,2021-07-29_22h12.00.124,Simcolourproject_2stim_asymm_v5,2020.2.10,Win32,60,61025ae37ef11b136ea224fe,,,,,,,,,1519,42.66668701,77.33330456,1,0,0,response1disk,,7,5.333393256,-2.666677475,1,0,0,rectangle,5.333393256,-2.666677475,1,0,0,5.333393256,-2.666677475,1,0,0,0,20,20,21,1,,,,,,,,
,,,,,,,,,,,,,FF,,,,,,,,0.6834,,,,,,,,,,,,,,,,,,,,,,60fdd47cb6da7411e888e23c,61036dd7292d5a54a075b625,2021-07-29_22h12.00.124,Simcolourproject_2stim_asymm_v5,2020.2.10,Win32,60,61025ae37ef11b136ea224fe,,,,,,,,,663,36.00002015,69.99999136,1,0,0,response1disk,,7,-1.999980986,-12.00001109,1,0,0,rectangle,-1.999980986,-12.00001109,1,0,0,-1.999980986,-12.00001109,1,0,0,0,21,21,33,1,,,,,,,,
,,,,,,,,,,,,,FF,,,,,,,,0.9995,,,,,,,,,,,,,,,,,,,,,,60fdd47cb6da7411e888e23c,61036dd7292d5a54a075b625,2021-07-29_22h12.00.124,Simcolourproject_2stim_asymm_v5,2020.2.10,Win32,60,61025ae37ef11b136ea224fe,,,,,,,,,1306,64.66668767,-36.66667849,1,0,0,response3disk,,5,16.00001955,0.666655958,1,0,0,rectangle,16.00001955,0.666655958,1,0,0,16.00001955,0.666655958,1,0,0,0,22,22,105,1,,,,,,,,
,,,,,,,,,,,,,FF,,,,,,,,0.7158,,,,,,,,,,,,,,,,,,,,,,60fdd47cb6da7411e888e23c,61036dd7292d5a54a075b625,2021-07-29_22h12.00.124,Simcolourproject_2stim_asymm_v5,2020.2.10,Win32,60,61025ae37ef11b136ea224fe,,,,,,,,,4043,26.00001985,47.33330367,1,0,0,response1disk,,7,14.66668618,-7.333344281,1,0,0,rectangle,14.66668618,-7.333344281,1,0,0,14.66668618,-7.333344281,1,0,0,0,23,23,159,1,,,,,,,,
,,,,,,,,,,,,,FF,,,,,,,,1.4179,,,,,,,,,,,,,,,,,,,,,,60fdd47cb6da7411e888e23c,61036dd7292d5a54a075b625,2021-07-29_22h12.00.124,Simcolourproject_2stim_asymm_v5,2020.2.10,Win32,60,61025ae37ef11b136ea224fe,,,,,,,,,4282,-59.33331603,-36.0000118,1,0,0,response5disk,,2,-7.333314478,-7.333344281,1,0,0,rectangle,-7.333314478,-7.333344281,1,0,0,-7.333314478,-7.333344281,1,0,0,0,24,24,37,1,,,,,,,,
,,,,,,,,,,,,,FF,,,,,,,,0.7503,,,,,,,,,,,,,,,,,,,,,,60fdd47cb6da7411e888e23c,61036dd7292d5a54a075b625,2021-07-29_22h12.00.124,Simcolourproject_2stim_asymm_v5,2020.2.10,Win32,60,61025ae37ef11b136ea224fe,,,,,,,,,1651,29.33339397,69.99999136,1,0,0,response1disk,,7,5.333393256,2.666656017,1,0,0,rectangle,5.333393256,2.666656017,1,0,0,5.333393256,2.666656017,1,0,0,0,25,25,96,1,,,,,,,,
,,,,,,,,,,,,,FF,,,,,,,,0.9344,,,,,,,,,,,,,,,,,,,,,,60fdd47cb6da7411e888e23c,61036dd7292d5a54a075b625,2021-07-29_22h12.00.124,Simcolourproject_2stim_asymm_v5,2020.2.10,Win32,60,61025ae37ef11b136ea224fe,,,,,,,,,4200,-43.99998224,54.66665757,1,0,0,response7disk,,0,7.333393315,-10.00001103,1,0,0,rectangle,7.333393315,-10.00001103,1,0,0,7.333393315,-10.00001103,1,0,0,0,26,26,18,1,,,,,,,,
,,,,,,,,,,,,,FF,,,,,,,,0.7507,,,,,,,,,,,,,,,,,,,,,,60fdd47cb6da7411e888e23c,61036dd7292d5a54a075b625,2021-07-29_22h12.00.124,Simcolourproject_2stim_asymm_v5,2020.2.10,Win32,60,61025ae37ef11b136ea224fe,,,,,,,,,2523,28.66668659,66.66665792,1,0,0,response1disk,,7,16.00001955,-4.000010848,1,0,0,rectangle,16.00001955,-4.000010848,1,0,0,16.00001955,-4.000010848,1,0,0,0,27,27,121,1,,,,,,,,
,,,,,,,,,,,,,FF,,,,,,,,0.6189,,,,,,,,,,,,,,,,,,,,,,60fdd47cb6da7411e888e23c,61036dd7292d5a54a075b625,2021-07-29_22h12.00.124,Simcolourproject_2stim_asymm_v5,2020.2.10,Win32,60,61025ae37ef11b136ea224fe,,,,,,,,,2446,30.00001997,75.99999154,1,0,0,response1disk,,7,17.33339361,1.999989331,1,0,0,rectangle,17.33339361,1.999989331,1,0,0,17.33339361,1.999989331,1,0,0,0,28,28,60,1,,,,,,,,
,,,,,,,,,,,,,FF,,,,,,,,0.5017,,,,,,,,,,,,,,,,,,,,,,60fdd47cb6da7411e888e23c,61036dd7292d5a54a075b625,2021-07-29_22h12.00.124,Simcolourproject_2stim_asymm_v5,2020.2.10,Win32,60,61025ae37ef11b136ea224fe,,,,,,,,,3803,30.00001997,82.6666584,1,0,0,response1disk,,7,13.33339349,-4.666677535,1,0,0,rectangle,13.33339349,-4.666677535,1,0,0,13.33339349,-4.666677535,1,0,0,0,29,29,107,1,,,,,,,,
,,,,,,,,,,,,,FF,,,,,,,,1.2171,,,,,,,,,,,,,,,,,,,,,,60fdd47cb6da7411e888e23c,61036dd7292d5a54a075b625,2021-07-29_22h12.00.124,Simcolourproject_2stim_asymm_v5,2020.2.10,Win32,60,61025ae37ef11b136ea224fe,,,,,,,,,1370,-57.33331597,-47.33334547,1,0,0,response5disk,,2,-4.666607042,-4.666677535,1,0,0,rectangle,-4.666607042,-4.666677535,1,0,0,-4.666607042,-4.666677535,1,0,0,0,30,30,135,1,,,,,,,,
,,,,,,,,,,,,,FF,,,,,,,,2.0168,,,,,,,,,,,,,,,,,,,,,,60fdd47cb6da7411e888e23c,61036dd7292d5a54a075b625,2021-07-29_22h12.00.124,Simcolourproject_2stim_asymm_v5,2020.2.10,Win32,60,61025ae37ef11b136ea224fe,,,,,,,,,878,80.00002146,-40.00001192,1,0,0,response3disk,,5,14.66668618,-10.00001103,1,0,0,rectangle,14.66668618,-10.00001103,1,0,0,14.66668618,-10.00001103,1,0,0,0,31,31,72,1,,,,,,,,
,,,,,,,,,,,,,FF,,,,,,,,0.5669,,,,,,,,,,,,,,,,,,,,,,60fdd47cb6da7411e888e23c,61036dd7292d5a54a075b625,2021-07-29_22h12.00.124,Simcolourproject_2stim_asymm_v5,2020.2.10,Win32,60,61025ae37ef11b136ea224fe,,,,,,,,,4178,30.00001997,61.33330409,1,0,0,response1disk,,7,18.00001961,3.333322704,1,0,0,rectangle,18.00001961,3.333322704,1,0,0,18.00001961,3.333322704,1,0,0,0,32,32,151,1,,,,,,,,
,,,,,,,,,,,,,FF,,,,,,,,0.4842,,,,,,,,,,,,,,,,,,,,,,60fdd47cb6da7411e888e23c,61036dd7292d5a54a075b625,2021-07-29_22h12.00.124,Simcolourproject_2stim_asymm_v5,2020.2.10,Win32,60,61025ae37ef11b136ea224fe,,,,,,,,,189,31.33339403,59.99999106,1,0,0,response1disk,,7,12.00001943,7.99998951,1,0,0,rectangle,-86.66660949,39.33330343,1,0,0,-13.33331466,-0.666677415,1,0,0,0,33,33,127,1,,response7disk_3,TRUE,1,1,"[94,317,97,217,106,316,58,131,100,89,78,178,232,16,34,292,258,290,94,322]",2.2017,rectangle
,,,,,,,,,,,,,FF,,,,,,,,1.5493,,,,,,,,,,,,,,,,,,,,,,60fdd47cb6da7411e888e23c,61036dd7292d5a54a075b625,2021-07-29_22h12.00.124,Simcolourproject_2stim_asymm_v5,2020.2.10,Win32,60,61025ae37ef11b136ea224fe,,,,,,,,,1541,29.33339397,-55.33334571,1,0,0,response3disk,,4,22.00001973,-2.666677475,1,0,0,rectangle,22.00001973,-2.666677475,1,0,0,22.00001973,-2.666677475,1,0,0,0,34,34,5,1,,,,,,,,
,,,,,,,,,,,,,FF,,,,,,,,0.9496,,,,,,,,,,,,,,,,,,,,,,60fdd47cb6da7411e888e23c,61036dd7292d5a54a075b625,2021-07-29_22h12.00.124,Simcolourproject_2stim_asymm_v5,2020.2.10,Win32,60,61025ae37ef11b136ea224fe,,,,,,,,,1374,44.66668707,19.33330284,1,0,0,response1disk,,6,-2.666606983,9.999989569,1,0,0,rectangle,-2.666606983,9.999989569,1,0,0,-2.666606983,9.999989569,1,0,0,0,35,35,63,1,,,,,,,,
,,,,,,,,,,,,,FF,,,,,,,,0.7502,,,,,,,,,,,,,,,,,,,,,,60fdd47cb6da7411e888e23c,61036dd7292d5a54a075b625,2021-07-29_22h12.00.124,Simcolourproject_2stim_asymm_v5,2020.2.10,Win32,60,61025ae37ef11b136ea224fe,,,,,,,,,3767,33.33339409,57.33330397,1,0,0,response1disk,,7,12.00001943,1.999989331,1,0,0,rectangle,12.00001943,1.999989331,1,0,0,12.00001943,1.999989331,1,0,0,0,36,36,14,1,,,,,,,,
,,,,,,,,,,,,,FF,,,,,,,,0.9997,,,,,,,,,,,,,,,,,,,,,,60fdd47cb6da7411e888e23c,61036dd7292d5a54a075b625,2021-07-29_22h12.00.124,Simcolourproject_2stim_asymm_v5,2020.2.10,Win32,60,61025ae37ef11b136ea224fe,,,,,,,,,4015,43.3333537,64.66665787,1,0,0,response1disk,,7,18.6666863,-3.333344162,1,0,0,rectangle,18.6666863,-3.333344162,1,0,0,18.6666863,-3.333344162,1,0,0,0,37,37,52,1,,,,,,,,
,,,,,,,,,,,,,FF,,,,,,,,0.8994,,,,,,,,,,,,,,,,,,,,,,60fdd47cb6da7411e888e23c,61036dd7292d5a54a075b625,2021-07-29_22h12.00.124,Simcolourproject_2stim_asymm_v5,2020.2.10,Win32,60,61025ae37ef11b136ea224fe,,,,,,,,,808,-41.99998218,-59.33334583,1,0,0,response5disk,,3,-5.999981105,6.666656137,1,0,0,rectangle,-5.999981105,6.666656137,1,0,0,-5.999981105,6.666656137,1,0,0,0,38,38,59,1,,,,,,,,
,,,,,,,,,,,,,FF,,,,,,,,0.9166,,,,,,,,,,,,,,,,,,,,,,60fdd47cb6da7411e888e23c,61036dd7292d5a54a075b625,2021-07-29_22h12.00.124,Simcolourproject_2stim_asymm_v5,2020.2.10,Win32,60,61025ae37ef11b136ea224fe,,,,,,,,,3091,30.66668665,-66.66667938,1,0,0,response3disk,,4,16.00001955,9.999989569,1,0,0,rectangle,16.00001955,9.999989569,1,0,0,16.00001955,9.999989569,1,0,0,0,39,39,99,1,,,,,,,,
,,,,,,,,,,,,,FF,,,,,,,,0.7162,,,,,,,,,,,,,,,,,,,,,,60fdd47cb6da7411e888e23c,61036dd7292d5a54a075b625,2021-07-29_22h12.00.124,Simcolourproject_2stim_asymm_v5,2020.2.10,Win32,60,61025ae37ef11b136ea224fe,,,,,,,,,3369,26.00001985,56.66665763,1,0,0,response1disk,,7,6.666685939,-4.000010848,1,0,0,rectangle,6.666685939,-4.000010848,1,0,0,6.666685939,-4.000010848,1,0,0,0,40,40,89,1,,,,,,,,
,,,,,,,,,,,,,FF,,,,,,,,0.7326,,,,,,,,,,,,,,,,,,,,,,60fdd47cb6da7411e888e23c,61036dd7292d5a54a075b625,2021-07-29_22h12.00.124,Simcolourproject_2stim_asymm_v5,2020.2.10,Win32,60,61025ae37ef11b136ea224fe,,,,,,,,,759,43.3333537,72.6666581,1,0,0,response1disk,,7,18.6666863,5.99998945,1,0,0,rectangle,18.6666863,5.99998945,1,0,0,18.6666863,5.99998945,1,0,0,0,41,41,62,1,,,,,,,,
,,,,,,,,,,,,,FF,,,,,,,,0.5805,,,,,,,,,,,,,,,,,,,,,,60fdd47cb6da7411e888e23c,61036dd7292d5a54a075b625,2021-07-29_22h12.00.124,Simcolourproject_2stim_asymm_v5,2020.2.10,Win32,60,61025ae37ef11b136ea224fe,,,,,,,,,2463,34.00002009,47.33330367,1,0,0,response1disk,,7,0.66668576,-4.666677535,1,0,0,rectangle,0.66668576,-4.666677535,1,0,0,0.66668576,-4.666677535,1,0,0,0,42,42,12,1,,,,,,,,
,,,,,,,,,,,,,FF,,,,,,,,0.6797,,,,,,,,,,,,,,,,,,,,,,60fdd47cb6da7411e888e23c,61036dd7292d5a54a075b625,2021-07-29_22h12.00.124,Simcolourproject_2stim_asymm_v5,2020.2.10,Win32,60,61025ae37ef11b136ea224fe,,,,,,,,,1021,27.33339391,74.66665816,1,0,0,response1disk,,7,14.66668618,9.999989569,1,0,0,rectangle,14.66668618,9.999989569,1,0,0,14.66668618,9.999989569,1,0,0,0,43,43,40,1,,,,,,,,
,,,,,,,,,,,,,FF,,,,,,,,0.8833,,,,,,,,,,,,,,,,,,,,,,60fdd47cb6da7411e888e23c,61036dd7292d5a54a075b625,2021-07-29_22h12.00.124,Simcolourproject_2stim_asymm_v5,2020.2.10,Win32,60,61025ae37ef11b136ea224fe,,,,,,,,,732,40.66668695,73.33330444,1,0,0,response1disk,,7,16.66668624,-6.666677594,1,0,0,rectangle,16.66668624,-6.666677594,1,0,0,16.66668624,-6.666677594,1,0,0,0,44,44,13,1,,,,,,,,
,,,,,,,,,,,,,FF,,,,,,,,0.9141,,,,,,,,,,,,,,,,,,,,,,60fdd47cb6da7411e888e23c,61036dd7292d5a54a075b625,2021-07-29_22h12.00.124,Simcolourproject_2stim_asymm_v5,2020.2.10,Win32,60,61025ae37ef11b136ea224fe,,,,,,,,,191,72.66668791,30.66665685,1,0,0,response1disk,,6,5.333393256,-2.000010788,1,0,0,rectangle,5.333393256,-2.000010788,1,0,0,5.333393256,-2.000010788,1,0,0,0,45,45,101,1,,,,,,,,
,,,,,,,,,,,,,FF,,,,,,,,1.2634,,,,,,,,,,,,,,,,,,,,,,60fdd47cb6da7411e888e23c,61036dd7292d5a54a075b625,2021-07-29_22h12.00.124,Simcolourproject_2stim_asymm_v5,2020.2.10,Win32,60,61025ae37ef11b136ea224fe,,,,,,,,,2735,34.00002009,-74.66667962,1,0,0,response3disk,,4,7.333393315,-5.333344221,1,0,0,rectangle,7.333393315,-5.333344221,1,0,0,7.333393315,-5.333344221,1,0,0,0,46,46,146,1,,,,,,,,
,,,,,,,,,,,,,FF,,,,,,,,0.8005,,,,,,,,,,,,,,,,,,,,,,60fdd47cb6da7411e888e23c,61036dd7292d5a54a075b625,2021-07-29_22h12.00.124,Simcolourproject_2stim_asymm_v5,2020.2.10,Win32,60,61025ae37ef11b136ea224fe,,,,,,,,,4312,37.33339421,61.33330409,1,0,0,response1disk,,7,6.000019252,-1.07288E-05,1,0,0,rectangle,6.000019252,-1.07288E-05,1,0,0,6.000019252,-1.07288E-05,1,0,0,0,47,47,102,1,,,,,,,,
,,,,,,,,,,,,,FF,,,,,,,,0.6675,,,,,,,,,,,,,,,,,,,,,,60fdd47cb6da7411e888e23c,61036dd7292d5a54a075b625,2021-07-29_22h12.00.124,Simcolourproject_2stim_asymm_v5,2020.2.10,Win32,60,61025ae37ef11b136ea224fe,,,,,,,,,3124,27.33339391,59.99999106,1,0,0,response1disk,,7,17.33339361,2.666656017,1,0,0,rectangle,17.33339361,2.666656017,1,0,0,17.33339361,2.666656017,1,0,0,0,48,48,20,1,,,,,,,,
,,,,,,,,,,,,,FF,,,,,,,,0.618,,,,,,,,,,,,,,,,,,,,,,60fdd47cb6da7411e888e23c,61036dd7292d5a54a075b625,2021-07-29_22h12.00.124,Simcolourproject_2stim_asymm_v5,2020.2.10,Win32,60,61025ae37ef11b136ea224fe,,,,,,,,,3179,37.33339421,77.9999916,1,0,0,response1disk,,7,4.666685879,-8.666677654,1,0,0,rectangle,4.666685879,-8.666677654,1,0,0,4.666685879,-8.666677654,1,0,0,0,49,49,27,1,,,,,,,,
,,,,,,,,,,,,,FF,,,,,,,,0.8515,,,,,,,,,,,,,,,,,,,,,,60fdd47cb6da7411e888e23c,61036dd7292d5a54a075b625,2021-07-29_22h12.00.124,Simcolourproject_2stim_asymm_v5,2020.2.10,Win32,60,61025ae37ef11b136ea224fe,,,,,,,,,4166,-33.33331525,-56.0000124,1,0,0,response5disk,,3,4.000019193,1.999989331,1,0,0,rectangle,4.000019193,1.999989331,1,0,0,4.000019193,1.999989331,1,0,0,0,50,50,1,1,,,,,,,,
,,,,,,,,,,,,,FF,,,,,,,,0.6313,,,,,,,,,,,,,,,,,,,,,,60fdd47cb6da7411e888e23c,61036dd7292d5a54a075b625,2021-07-29_22h12.00.124,Simcolourproject_2stim_asymm_v5,2020.2.10,Win32,60,61025ae37ef11b136ea224fe,,,,,,,,,1499,32.00002003,71.99999142,1,0,0,response1disk,,7,9.333393375,-8.000010967,1,0,0,rectangle,9.333393375,-8.000010967,1,0,0,9.333393375,-8.000010967,1,0,0,0,51,51,116,1,,,,,,,,
,,,,,,,,,,,,,FF,,,,,,,,0.5985,,,,,,,,,,,,,,,,,,,,,,60fdd47cb6da7411e888e23c,61036dd7292d5a54a075b625,2021-07-29_22h12.00.124,Simcolourproject_2stim_asymm_v5,2020.2.10,Win32,60,61025ae37ef11b136ea224fe,,,,,,,,,1104,34.66668677,69.99999136,1,0,0,response1disk,,7,11.33339343,-5.333344221,1,0,0,rectangle,11.33339343,-5.333344221,1,0,0,11.33339343,-5.333344221,1,0,0,0,52,52,9,1,,,,,,,,
,,,,,,,,,,,,,FF,,,,,,,,0.4858,,,,,,,,,,,,,,,,,,,,,,60fdd47cb6da7411e888e23c,61036dd7292d5a54a075b625,2021-07-29_22h12.00.124,Simcolourproject_2stim_asymm_v5,2020.2.10,Win32,60,61025ae37ef11b136ea224fe,,,,,,,,,332,41.33339433,71.33330439,1,0,0,response1disk,,7,17.33339361,0.666655958,1,0,0,rectangle,17.33339361,0.666655958,1,0,0,17.33339361,0.666655958,1,0,0,0,53,53,145,1,,,,,,,,
,,,,,,,,,,,,,FF,,,,,,,,0.5171,,,,,,,,,,,,,,,,,,,,,,60fdd47cb6da7411e888e23c,61036dd7292d5a54a075b625,2021-07-29_22h12.00.124,Simcolourproject_2stim_asymm_v5,2020.2.10,Win32,60,61025ae37ef11b136ea224fe,,,,,,,,,1848,42.00002033,51.99999082,1,0,0,response1disk,,7,15.33339355,-0.666677415,1,0,0,rectangle,15.33339355,-0.666677415,1,0,0,15.33339355,-0.666677415,1,0,0,0,54,54,38,1,,,,,,,,
,,,,,,,,,,,,,FF,,,,,,,,0.5474,,,,,,,,,,,,,,,,,,,,,,60fdd47cb6da7411e888e23c,61036dd7292d5a54a075b625,2021-07-29_22h12.00.124,Simcolourproject_2stim_asymm_v5,2020.2.10,Win32,60,61025ae37ef11b136ea224fe,,,,,,,,,1667,30.00001997,67.33330427,1,0,0,response1disk,,7,12.66668612,-6.000010908,1,0,0,rectangle,12.66668612,-6.000010908,1,0,0,12.66668612,-6.000010908,1,0,0,0,55,55,158,1,,,,,,,,
,,,,,,,,,,,,,FF,,,,,,,,0.5806,,,,,,,,,,,,,,,,,,,,,,60fdd47cb6da7411e888e23c,61036dd7292d5a54a075b625,2021-07-29_22h12.00.124,Simcolourproject_2stim_asymm_v5,2020.2.10,Win32,60,61025ae37ef11b136ea224fe,,,,,,,,,1493,36.66668683,62.66665781,1,0,0,response1disk,,7,14.66668618,0.666655958,1,0,0,rectangle,14.66668618,0.666655958,1,0,0,14.66668618,0.666655958,1,0,0,0,56,56,2,1,,,,,,,,
,,,,,,,,,,,,,FF,,,,,,,,0.6318,,,,,,,,,,,,,,,,,,,,,,60fdd47cb6da7411e888e23c,61036dd7292d5a54a075b625,2021-07-29_22h12.00.124,Simcolourproject_2stim_asymm_v5,2020.2.10,Win32,60,61025ae37ef11b136ea224fe,,,,,,,,,2014,30.66668665,58.66665769,1,0,0,response1disk,,7,7.333393315,-3.333344162,1,0,0,rectangle,-62.66660877,32.66665691,1,0,0,4.000019193,-11.3333444,1,0,0,0,57,57,86,1,,response7disk_3,TRUE,1,1,"[94,317,97,217,106,316,58,131,100,89,78,178,232,16,34,292,258,290,94,322]",1.551,rectangle
,,,,,,,,,,,,,FF,,,,,,,,1.0195,,,,,,,,,,,,,,,,,,,,,,60fdd47cb6da7411e888e23c,61036dd7292d5a54a075b625,2021-07-29_22h12.00.124,Simcolourproject_2stim_asymm_v5,2020.2.10,Win32,60,61025ae37ef11b136ea224fe,,,,,,,,,2674,-23.33331496,-70.6666795,1,0,0,response5disk,,3,9.333393375,-10.00001103,1,0,0,rectangle,9.333393375,-10.00001103,1,0,0,9.333393375,-10.00001103,1,0,0,0,58,58,94,1,,,,,,,,
,,,,,,,,,,,,,FF,,,,,,,,0.5172,,,,,,,,,,,,,,,,,,,,,,60fdd47cb6da7411e888e23c,61036dd7292d5a54a075b625,2021-07-29_22h12.00.124,Simcolourproject_2stim_asymm_v5,2020.2.10,Win32,60,61025ae37ef11b136ea224fe,,,,,,,,,1124,36.00002015,75.3333045,1,0,0,response1disk,,7,12.00001943,0.666655958,1,0,0,rectangle,12.00001943,0.666655958,1,0,0,12.00001943,0.666655958,1,0,0,0,59,59,95,1,,,,,,,,
,,,,,,,,,,,,,FF,,,,,,,,1.0842,,,,,,,,,,,,,,,,,,,,,,60fdd47cb6da7411e888e23c,61036dd7292d5a54a075b625,2021-07-29_22h12.00.124,Simcolourproject_2stim_asymm_v5,2020.2.10,Win32,60,61025ae37ef11b136ea224fe,,,,,,,,,726,30.00001997,-52.00001228,1,0,0,response3disk,,4,16.00001955,11.99998963,1,0,0,rectangle,16.00001955,11.99998963,1,0,0,16.00001955,11.99998963,1,0,0,0,60,60,100,1,,,,,,,,
,,,,,,,,,,,,,FF,,,,,,,,0.6856,,,,,,,,,,,,,,,,,,,,,,60fdd47cb6da7411e888e23c,61036dd7292d5a54a075b625,2021-07-29_22h12.00.124,Simcolourproject_2stim_asymm_v5,2020.2.10,Win32,60,61025ae37ef11b136ea224fe,,,,,,,,,1925,22.66668642,55.99999094,1,0,0,response1disk,,7,2.000019133,-1.333344102,1,0,0,rectangle,2.000019133,-1.333344102,1,0,0,2.000019133,-1.333344102,1,0,0,0,61,61,49,1,,,,,,,,
,,,,,,,,,,,,,FF,,,,,,,,0.5144,,,,,,,,,,,,,,,,,,,,,,60fdd47cb6da7411e888e23c,61036dd7292d5a54a075b625,2021-07-29_22h12.00.124,Simcolourproject_2stim_asymm_v5,2020.2.10,Win32,60,61025ae37ef11b136ea224fe,,,,,,,,,1727,44.00002038,70.66665804,1,0,0,response1disk,,7,12.00001943,-2.000010788,1,0,0,rectangle,12.00001943,-2.000010788,1,0,0,12.00001943,-2.000010788,1,0,0,0,62,62,50,1,,,,,,,,
,,,,,,,,,,,,,FF,,,,,,,,0.9143,,,,,,,,,,,,,,,,,,,,,,60fdd47cb6da7411e888e23c,61036dd7292d5a54a075b625,2021-07-29_22h12.00.124,Simcolourproject_2stim_asymm_v5,2020.2.10,Win32,60,61025ae37ef11b136ea224fe,,,,,,,,,466,44.00002038,60.66665775,1,0,0,response1disk,,7,13.33339349,-6.666677594,1,0,0,rectangle,13.33339349,-6.666677594,1,0,0,13.33339349,-6.666677594,1,0,0,0,63,63,92,1,,,,,,,,
,,,,,,,,,,,,,FF,,,,,,,,0.5316,,,,,,,,,,,,,,,,,,,,,,60fdd47cb6da7411e888e23c,61036dd7292d5a54a075b625,2021-07-29_22h12.00.124,Simcolourproject_2stim_asymm_v5,2020.2.10,Win32,60,61025ae37ef11b136ea224fe,,,,,,,,,2310,24.00001979,45.33330361,1,0,0,response1disk,,7,10.00001937,-1.333344102,1,0,0,rectangle,10.00001937,-1.333344102,1,0,0,10.00001937,-1.333344102,1,0,0,0,64,64,78,1,,,,,,,,
,,,,,,,,,,,,,FF,,,,,,,,0.5144,,,,,,,,,,,,,,,,,,,,,,60fdd47cb6da7411e888e23c,61036dd7292d5a54a075b625,2021-07-29_22h12.00.124,Simcolourproject_2stim_asymm_v5,2020.2.10,Win32,60,61025ae37ef11b136ea224fe,,,,,,,,,2909,36.66668683,73.99999148,1,0,0,response1disk,,7,9.333393375,9.333322883,1,0,0,rectangle,9.333393375,9.333322883,1,0,0,9.333393375,9.333322883,1,0,0,0,65,65,124,1,,,,,,,,
,,,,,,,,,,,,,FF,,,,,,,,0.4991,,,,,,,,,,,,,,,,,,,,,,60fdd47cb6da7411e888e23c,61036dd7292d5a54a075b625,2021-07-29_22h12.00.124,Simcolourproject_2stim_asymm_v5,2020.2.10,Win32,60,61025ae37ef11b136ea224fe,,,,,,,,,343,28.66668659,61.99999112,1,0,0,response1disk,,7,7.333393315,3.333322704,1,0,0,rectangle,7.333393315,3.333322704,1,0,0,7.333393315,3.333322704,1,0,0,0,66,66,129,1,,,,,,,,
,,,,,,,,,,,,,FF,,,,,,,,0.7849,,,,,,,,,,,,,,,,,,,,,,60fdd47cb6da7411e888e23c,61036dd7292d5a54a075b625,2021-07-29_22h12.00.124,Simcolourproject_2stim_asymm_v5,2020.2.10,Win32,60,61025ae37ef11b136ea224fe,,,,,,,,,2615,60.00002086,21.99998993,1,0,0,response1disk,,6,-5.999981105,-3.333344162,1,0,0,rectangle,-5.999981105,-3.333344162,1,0,0,-5.999981105,-3.333344162,1,0,0,0,67,67,24,1,,,,,,,,
,,,,,,,,,,,,,FF,,,,,,,,1.4538,,,,,,,,,,,,,,,,,,,,,,60fdd47cb6da7411e888e23c,61036dd7292d5a54a075b625,2021-07-29_22h12.00.124,Simcolourproject_2stim_asymm_v5,2020.2.10,Win32,60,61025ae37ef11b136ea224fe,,,,,,,,,3143,39.33339427,-74.66667962,1,0,0,response3disk,,4,11.33339343,3.333322704,1,0,0,rectangle,11.33339343,3.333322704,1,0,0,11.33339343,3.333322704,1,0,0,0,68,68,48,1,,,,,,,,
,,,,,,,,,,,,,FF,,,,,,,,1.2667,,,,,,,,,,,,,,,,,,,,,,60fdd47cb6da7411e888e23c,61036dd7292d5a54a075b625,2021-07-29_22h12.00.124,Simcolourproject_2stim_asymm_v5,2020.2.10,Win32,60,61025ae37ef11b136ea224fe,,,,,,,,,3126,38.66668689,-80.6666798,1,0,0,response3disk,,4,8.000019312,-2.666677475,1,0,0,rectangle,8.000019312,-2.666677475,1,0,0,8.000019312,-2.666677475,1,0,0,0,69,69,85,1,,,,,,,,
,,,,,,,,,,,,,FF,,,,,,,,0.7321,,,,,,,,,,,,,,,,,,,,,,60fdd47cb6da7411e888e23c,61036dd7292d5a54a075b625,2021-07-29_22h12.00.124,Simcolourproject_2stim_asymm_v5,2020.2.10,Win32,60,61025ae37ef11b136ea224fe,,,,,,,,,3530,38.66668689,-58.66667914,1,0,0,response3disk,,4,12.66668612,11.99998963,1,0,0,rectangle,12.66668612,11.99998963,1,0,0,12.66668612,11.99998963,1,0,0,0,70,70,133,1,,,,,,,,
,,,,,,,,,,,,,FF,,,,,,,,7.0844,,,,,,,,,,,,,,,,,,,,,,60fdd47cb6da7411e888e23c,61036dd7292d5a54a075b625,2021-07-29_22h12.00.124,Simcolourproject_2stim_asymm_v5,2020.2.10,Win32,60,61025ae37ef11b136ea224fe,,,,,,,,,3890,45.33335376,-69.33334613,1,0,0,response3disk,,4,3.333393196,-10.66667771,1,0,0,rectangle,3.333393196,-10.66667771,1,0,0,3.333393196,-10.66667771,1,0,0,0,71,71,69,1,,,,,,,,
,,,,,,,,,,,,,FF,,,,,,,,0.664,,,,,,,,,,,,,,,,,,,,,,60fdd47cb6da7411e888e23c,61036dd7292d5a54a075b625,2021-07-29_22h12.00.124,Simcolourproject_2stim_asymm_v5,2020.2.10,Win32,60,61025ae37ef11b136ea224fe,,,,,,,,,1807,46.66668713,54.66665757,1,0,0,response1disk,,7,16.66668624,8.666656196,1,0,0,rectangle,16.66668624,8.666656196,1,0,0,16.66668624,8.666656196,1,0,0,0,72,72,8,1,,,,,,,,
,,,,,,,,,,,,,FF,,,,,,,,1.5169,,,,,,,,,,,,,,,,,,,,,,60fdd47cb6da7411e888e23c,61036dd7292d5a54a075b625,2021-07-29_22h12.00.124,Simcolourproject_2stim_asymm_v5,2020.2.10,Win32,60,61025ae37ef11b136ea224fe,,,,,,,,,3019,82.6666882,17.33332312,1,0,0,response1disk,,6,8.666685998,1.999989331,1,0,0,rectangle,8.666685998,1.999989331,1,0,0,8.666685998,1.999989331,1,0,0,0,73,73,128,1,,,,,,,,
,,,,,,,,,,,,,FF,,,,,,,,0.9975,,,,,,,,,,,,,,,,,,,,,,60fdd47cb6da7411e888e23c,61036dd7292d5a54a075b625,2021-07-29_22h12.00.124,Simcolourproject_2stim_asymm_v5,2020.2.10,Win32,60,61025ae37ef11b136ea224fe,,,,,,,,,1838,-45.33331561,53.33330385,1,0,0,response7disk,,0,-9.999981225,-1.07288E-05,1,0,0,rectangle,-9.999981225,-1.07288E-05,1,0,0,-9.999981225,-1.07288E-05,1,0,0,0,74,74,6,1,,,,,,,,
,,,,,,,,,,,,,FF,,,,,,,,1.0363,,,,,,,,,,,,,,,,,,,,,,60fdd47cb6da7411e888e23c,61036dd7292d5a54a075b625,2021-07-29_22h12.00.124,Simcolourproject_2stim_asymm_v5,2020.2.10,Win32,60,61025ae37ef11b136ea224fe,,,,,,,,,1204,41.33339433,36.66665703,1,0,0,response1disk,,6,17.33339361,-2.666677475,1,0,0,rectangle,17.33339361,-2.666677475,1,0,0,17.33339361,-2.666677475,1,0,0,0,75,75,103,1,,,,,,,,
,,,,,,,,,,,,,FF,,,,,,,,1.9189,,,,,,,,,,,,,,,,,,,,,,60fdd47cb6da7411e888e23c,61036dd7292d5a54a075b625,2021-07-29_22h12.00.124,Simcolourproject_2stim_asymm_v5,2020.2.10,Win32,60,61025ae37ef11b136ea224fe,,,,,,,,,1278,59.33337402,38.66665649,1,0,0,response1disk,,6,30.66668701,1.333312988,1,0,0,rectangle,30.66668701,1.333312988,1,0,0,30.66668701,1.333312988,1,0,0,0,76,76,131,1,,,,,,,,
,,,,,,,,,,,,,FF,,,,,,,,0.2003,,,,,,,,,,,,,,,,,,,,,,60fdd47cb6da7411e888e23c,61036dd7292d5a54a075b625,2021-07-29_22h12.00.124,Simcolourproject_2stim_asymm_v5,2020.2.10,Win32,60,61025ae37ef11b136ea224fe,,,,,,,,,1078,106,32.66665649,1,0,0,response1disk,,6,14.66668701,-8.666687012,1,0,0,rectangle,49.33337402,51.33331299,1,0,0,15.33337402,-9.333343506,1,0,0,0,77,77,109,1,,response1disk_3,TRUE,7,3,"[94,317,97,217,106,316,58,131,100,89,78,178,232,16,34,292,258,290,94,322]",0.3855,rectangle
,,,,,,,,,,,,,FF,,,,,,,,0.3582,,,,,,,,,,,,,,,,,,,,,,60fdd47cb6da7411e888e23c,61036dd7292d5a54a075b625,2021-07-29_22h12.00.124,Simcolourproject_2stim_asymm_v5,2020.2.10,Win32,60,61025ae37ef11b136ea224fe,,,,,,,,,2933,46.66668701,58,1,0,0,response1disk,,7,12.66668701,-1.333343506,1,0,0,rectangle,12.66668701,-1.333343506,1,0,0,12.66668701,-1.333343506,1,0,0,0,78,78,150,1,,,,,,,,
,,,,,,,,,,,,,FF,,,,,,,,0.3332,,,,,,,,,,,,,,,,,,,,,,60fdd47cb6da7411e888e23c,61036dd7292d5a54a075b625,2021-07-29_22h12.00.124,Simcolourproject_2stim_asymm_v5,2020.2.10,Win32,60,61025ae37ef11b136ea224fe,,,,,,,,,1934,55.33337402,71.33331299,1,0,0,response1disk,,7,17.33337402,0,1,0,0,rectangle,17.33337402,0,1,0,0,17.33337402,0,1,0,0,0,79,79,84,1,,,,,,,,
,,,,,,,,,,,,,FF,,,,,,,,0.1196,,,,,,,,,,,,,,,,,,,,,,60fdd47cb6da7411e888e23c,61036dd7292d5a54a075b625,2021-07-29_22h12.00.124,Simcolourproject_2stim_asymm_v5,2020.2.10,Win32,60,61025ae37ef11b136ea224fe,,,,,,,,,310,58,62.66665649,1,0,0,response1disk,,7,6,-12.66668701,1,0,0,rectangle,6,-12.66668701,1,0,0,6,-12.66668701,1,0,0,0,80,80,0,1,,,,,,,,
,,,,,,,,,,,,,FF,,,,,,,,0.0641,,,,,,,,,,,,,,,,,,,,,,60fdd47cb6da7411e888e23c,61036dd7292d5a54a075b625,2021-07-29_22h12.00.124,Simcolourproject_2stim_asymm_v5,2020.2.10,Win32,60,61025ae37ef11b136ea224fe,,,,,,,,,1497,53.33337402,67.33331299,1,0,0,response1disk,,7,10.66668701,-12.66668701,1,0,0,rectangle,10.66668701,-12.66668701,1,0,0,10.66668701,-12.66668701,1,0,0,0,81,81,137,1,,,,,,,,
,,,,,,,,,,,,,FF,,,,,,,,0.1175,,,,,,,,,,,,,,,,,,,,,,60fdd47cb6da7411e888e23c,61036dd7292d5a54a075b625,2021-07-29_22h12.00.124,Simcolourproject_2stim_asymm_v5,2020.2.10,Win32,60,61025ae37ef11b136ea224fe,,,,,,,,,838,54,65.33331299,1,0,0,response1disk,,7,6,-11.33334351,1,0,0,rectangle,6,-11.33334351,1,0,0,6,-11.33334351,1,0,0,0,82,82,113,1,,,,,,,,
,,,,,,,,,,,,,FF,,,,,,,,0.0813,,,,,,,,,,,,,,,,,,,,,,60fdd47cb6da7411e888e23c,61036dd7292d5a54a075b625,2021-07-29_22h12.00.124,Simcolourproject_2stim_asymm_v5,2020.2.10,Win32,60,61025ae37ef11b136ea224fe,,,,,,,,,2312,57.33337402,74.66665649,1,0,0,response1disk,,7,9.333374023,0,1,0,0,rectangle,9.333374023,0,1,0,0,9.333374023,0,1,0,0,0,83,83,25,1,,,,,,,,
,,,,,,,,,,,,,FF,,,,,,,,0.1146,,,,,,,,,,,,,,,,,,,,,,60fdd47cb6da7411e888e23c,61036dd7292d5a54a075b625,2021-07-29_22h12.00.124,Simcolourproject_2stim_asymm_v5,2020.2.10,Win32,60,61025ae37ef11b136ea224fe,,,,,,,,,1522,69.33337402,82.66665649,1,0,0,response1disk,,7,22,-2.666687012,1,0,0,rectangle,22,-2.666687012,1,0,0,22,-2.666687012,1,0,0,0,84,84,53,1,,,,,,,,
,,,,,,,,,,,,,FF,,,,,,,,0.4327,,,,,,,,,,,,,,,,,,,,,,60fdd47cb6da7411e888e23c,61036dd7292d5a54a075b625,2021-07-29_22h12.00.124,Simcolourproject_2stim_asymm_v5,2020.2.10,Win32,60,61025ae37ef11b136ea224fe,,,,,,,,,2040,58,74.66665649,1,0,0,response1disk,,7,11.33337402,-2.666687012,1,0,0,rectangle,11.33337402,-2.666687012,1,0,0,11.33337402,-2.666687012,1,0,0,0,85,85,29,1,,,,,,,,
,,,,,,,,,,,,,FF,,,,,,,,1.9174,,,,,,,,,,,,,,,,,,,,,,60fdd47cb6da7411e888e23c,61036dd7292d5a54a075b625,2021-07-29_22h12.00.124,Simcolourproject_2stim_asymm_v5,2020.2.10,Win32,60,61025ae37ef11b136ea224fe,,,,,,,,,981,44.66668701,69.33331299,1,0,0,response1disk,,7,10.66668701,1.333312988,1,0,0,rectangle,10.66668701,1.333312988,1,0,0,10.66668701,1.333312988,1,0,0,0,86,86,70,1,,,,,,,,
,,,,,,,,,,,,,FF,,,,,,,,7.1294,,,,,,,,,,,,,,,,,,,,,,60fdd47cb6da7411e888e23c,61036dd7292d5a54a075b625,2021-07-29_22h12.00.124,Simcolourproject_2stim_asymm_v5,2020.2.10,Win32,60,61025ae37ef11b136ea224fe,,,,,,,,,3098,42,69.33331299,1,0,0,response1disk,,7,14,-6.666687012,1,0,0,rectangle,14,-6.666687012,1,0,0,14,-6.666687012,1,0,0,0,87,87,147,1,,,,,,,,
,,,,,,,,,,,,,FF,,,,,,,,2.3675,,,,,,,,,,,,,,,,,,,,,,60fdd47cb6da7411e888e23c,61036dd7292d5a54a075b625,2021-07-29_22h12.00.124,Simcolourproject_2stim_asymm_v5,2020.2.10,Win32,60,61025ae37ef11b136ea224fe,,,,,,,,,1901,54,76,1,0,0,response1disk,,7,21.33337402,-4,1,0,0,rectangle,47.33337402,86.66665649,1,0,0,10,-4,1,0,0,0,88,88,111,1,,response1disk_3,TRUE,7,7,"[94,317,97,217,106,316,58,131,100,89,78,178,232,16,34,292,258,290,94,322]",1.3818,rectangle
,,,,,,,,,,,,,FF,,,,,,,,1.6498,,,,,,,,,,,,,,,,,,,,,,60fdd47cb6da7411e888e23c,61036dd7292d5a54a075b625,2021-07-29_22h12.00.124,Simcolourproject_2stim_asymm_v5,2020.2.10,Win32,60,61025ae37ef11b136ea224fe,,,,,,,,,2252,-54,29.33331299,1,0,0,response7disk,,1,7.333374023,-4,1,0,0,rectangle,7.333374023,-4,1,0,0,7.333374023,-4,1,0,0,0,89,89,65,1,,,,,,,,
,,,,,,,,,,,,,FF,,,,,,,,4.1329,,,,,,,,,,,,,,,,,,,,,,60fdd47cb6da7411e888e23c,61036dd7292d5a54a075b625,2021-07-29_22h12.00.124,Simcolourproject_2stim_asymm_v5,2020.2.10,Win32,60,61025ae37ef11b136ea224fe,,,,,,,,,1309,42.66668701,86.66665649,1,0,0,response1disk,,7,6.666687012,-2,1,0,0,rectangle,6.666687012,-2,1,0,0,6.666687012,-2,1,0,0,0,90,90,7,1,,,,,,,,
,,,,,,,,,,,,,FF,,,,,,,,3.4185,,,,,,,,,,,,,,,,,,,,,,60fdd47cb6da7411e888e23c,61036dd7292d5a54a075b625,2021-07-29_22h12.00.124,Simcolourproject_2stim_asymm_v5,2020.2.10,Win32,60,61025ae37ef11b136ea224fe,,,,,,,,,66,69.33337402,30,1,0,0,response1disk,,6,10,0,1,0,0,rectangle,10,0,1,0,0,10,0,1,0,0,0,91,91,57,1,,,,,,,,
,,,,,,,,,,,,,FF,,,,,,,,0.8857,,,,,,,,,,,,,,,,,,,,,,60fdd47cb6da7411e888e23c,61036dd7292d5a54a075b625,2021-07-29_22h12.00.124,Simcolourproject_2stim_asymm_v5,2020.2.10,Win32,60,61025ae37ef11b136ea224fe,,,,,,,,,3000,-57.33331299,-31.33334351,1,0,0,response5disk,,2,26.66668701,10,1,0,0,rectangle,26.66668701,10,1,0,0,26.66668701,10,1,0,0,0,92,92,143,1,,,,,,,,
,,,,,,,,,,,,,FF,,,,,,,,0.4,,,,,,,,,,,,,,,,,,,,,,60fdd47cb6da7411e888e23c,61036dd7292d5a54a075b625,2021-07-29_22h12.00.124,Simcolourproject_2stim_asymm_v5,2020.2.10,Win32,60,61025ae37ef11b136ea224fe,,,,,,,,,1023,44.66668701,68.66665649,1,0,0,response1disk,,7,14,-4,1,0,0,rectangle,46,60.66665649,1,0,0,17.33337402,-3.333343506,1,0,0,0,93,93,125,1,,response1disk_3,TRUE,7,4,"[94,317,97,217,106,316,58,131,100,89,78,178,232,16,34,292,258,290,94,322]",0.41,rectangle
,,,,,,,,,,,,,FF,,,,,,,,0.6667,,,,,,,,,,,,,,,,,,,,,,60fdd47cb6da7411e888e23c,61036dd7292d5a54a075b625,2021-07-29_22h12.00.124,Simcolourproject_2stim_asymm_v5,2020.2.10,Win32,60,61025ae37ef11b136ea224fe,,,,,,,,,72,-57.33331299,-38,1,0,0,response5disk,,2,22,6,1,0,0,rectangle,22,6,1,0,0,22,6,1,0,0,0,94,94,67,1,,,,,,,,
,,,,,,,,,,,,,FF,,,,,,,,1.3692,,,,,,,,,,,,,,,,,,,,,,60fdd47cb6da7411e888e23c,61036dd7292d5a54a075b625,2021-07-29_22h12.00.124,Simcolourproject_2stim_asymm_v5,2020.2.10,Win32,60,61025ae37ef11b136ea224fe,,,,,,,,,2173,-50,-44.66668701,1,0,0,response5disk,,2,15.33337402,-5.333343506,1,0,0,rectangle,15.33337402,-5.333343506,1,0,0,15.33337402,-5.333343506,1,0,0,0,95,95,68,1,,,,,,,,
,,,,,,,,,,,,,FF,,,,,,,,0.3827,,,,,,,,,,,,,,,,,,,,,,60fdd47cb6da7411e888e23c,61036dd7292d5a54a075b625,2021-07-29_22h12.00.124,Simcolourproject_2stim_asymm_v5,2020.2.10,Win32,60,61025ae37ef11b136ea224fe,,,,,,,,,2372,49.33337402,68.66665649,1,0,0,response1disk,,7,8.666687012,8.666656494,1,0,0,rectangle,46.66668701,78.66665649,1,0,0,6.666687012,-10,1,0,0,0,96,96,56,1,,response1disk_3,TRUE,7,6,"[94,317,97,217,106,316,58,131,100,89,78,178,232,16,34,292,258,290,94,322]",0.4973,rectangle
,,,,,,,,,,,,,FF,,,,,,,,0.4023,,,,,,,,,,,,,,,,,,,,,,60fdd47cb6da7411e888e23c,61036dd7292d5a54a075b625,2021-07-29_22h12.00.124,Simcolourproject_2stim_asymm_v5,2020.2.10,Win32,60,61025ae37ef11b136ea224fe,,,,,,,,,4216,49.33337402,67.33331299,1,0,0,response1disk,,7,8.666687012,2,1,0,0,rectangle,8.666687012,2,1,0,0,8.666687012,2,1,0,0,0,97,97,136,1,,,,,,,,
,,,,,,,,,,,,,FF,,,,,,,,0.3336,,,,,,,,,,,,,,,,,,,,,,60fdd47cb6da7411e888e23c,61036dd7292d5a54a075b625,2021-07-29_22h12.00.124,Simcolourproject_2stim_asymm_v5,2020.2.10,Win32,60,61025ae37ef11b136ea224fe,,,,,,,,,4194,56,80.66665649,1,0,0,response1disk,,7,20,-4,1,0,0,rectangle,20,-4,1,0,0,20,-4,1,0,0,0,98,98,122,1,,,,,,,,
,,,,,,,,,,,,,FF,,,,,,,,0.3512,,,,,,,,,,,,,,,,,,,,,,60fdd47cb6da7411e888e23c,61036dd7292d5a54a075b625,2021-07-29_22h12.00.124,Simcolourproject_2stim_asymm_v5,2020.2.10,Win32,60,61025ae37ef11b136ea224fe,,,,,,,,,3984,56,67.33331299,1,0,0,response1disk,,7,20,-6,1,0,0,rectangle,41.33337402,78,1,0,0,6.666687012,-8.666687012,1,0,0,0,99,99,132,1,,response1disk_3,TRUE,7,4,"[94,317,97,217,106,316,58,131,100,89,78,178,232,16,34,292,258,290,94,322]",0.3798,rectangle
,,,,,,,,,,,,,FF,,,,,,,,0.3334,,,,,,,,,,,,,,,,,,,,,,60fdd47cb6da7411e888e23c,61036dd7292d5a54a075b625,2021-07-29_22h12.00.124,Simcolourproject_2stim_asymm_v5,2020.2.10,Win32,60,61025ae37ef11b136ea224fe,,,,,,,,,1339,42,69.33331299,1,0,0,response1disk,,7,16.66668701,-7.333343506,1,0,0,rectangle,16.66668701,-7.333343506,1,0,0,16.66668701,-7.333343506,1,0,0,0,100,100,144,1,,,,,,,,
,,,,,,,,,,,,,FF,,,,,,,,0.331,,,,,,,,,,,,,,,,,,,,,,60fdd47cb6da7411e888e23c,61036dd7292d5a54a075b625,2021-07-29_22h12.00.124,Simcolourproject_2stim_asymm_v5,2020.2.10,Win32,60,61025ae37ef11b136ea224fe,,,,,,,,,2648,48,58,1,0,0,response1disk,,7,16,-11.33334351,1,0,0,rectangle,16,-11.33334351,1,0,0,16,-11.33334351,1,0,0,0,101,101,140,1,,,,,,,,
,,,,,,,,,,,,,FF,,,,,,,,0.6328,,,,,,,,,,,,,,,,,,,,,,60fdd47cb6da7411e888e23c,61036dd7292d5a54a075b625,2021-07-29_22h12.00.124,Simcolourproject_2stim_asymm_v5,2020.2.10,Win32,60,61025ae37ef11b136ea224fe,,,,,,,,,3068,36.66668701,61.33331299,1,0,0,response1disk,,7,11.33337402,2.666656494,1,0,0,rectangle,11.33337402,2.666656494,1,0,0,11.33337402,2.666656494,1,0,0,0,102,102,149,1,,,,,,,,
,,,,,,,,,,,,,FF,,,,,,,,0.3339,,,,,,,,,,,,,,,,,,,,,,60fdd47cb6da7411e888e23c,61036dd7292d5a54a075b625,2021-07-29_22h12.00.124,Simcolourproject_2stim_asymm_v5,2020.2.10,Win32,60,61025ae37ef11b136ea224fe,,,,,,,,,2984,44.66668701,73.33331299,1,0,0,response1disk,,7,12.66668701,-4.666687012,1,0,0,rectangle,12.66668701,-4.666687012,1,0,0,12.66668701,-4.666687012,1,0,0,0,103,103,42,1,,,,,,,,
,,,,,,,,,,,,,FF,,,,,,,,0.92,,,,,,,,,,,,,,,,,,,,,,60fdd47cb6da7411e888e23c,61036dd7292d5a54a075b625,2021-07-29_22h12.00.124,Simcolourproject_2stim_asymm_v5,2020.2.10,Win32,60,61025ae37ef11b136ea224fe,,,,,,,,,4361,-50.66662598,35.33331299,1,0,0,response7disk,,1,20,-8.666687012,1,0,0,rectangle,20,-8.666687012,1,0,0,20,-8.666687012,1,0,0,0,104,104,61,1,,,,,,,,
,,,,,,,,,,,,,FF,,,,,,,,0.7499,,,,,,,,,,,,,,,,,,,,,,60fdd47cb6da7411e888e23c,61036dd7292d5a54a075b625,2021-07-29_22h12.00.124,Simcolourproject_2stim_asymm_v5,2020.2.10,Win32,60,61025ae37ef11b136ea224fe,,,,,,,,,1957,-54,32.66665649,1,0,0,response7disk,,1,29.33337402,-6.666687012,1,0,0,rectangle,-24,71.33331299,1,0,0,18.66668701,-8.666687012,1,0,0,0,105,105,114,1,,response7disk_3,TRUE,0,0,"[94,317,97,217,106,316,58,131,100,89,78,178,232,16,34,292,258,290,94,322]",1.7189,rectangle
,,,,,,,,,,,,,FF,,,,,,,,0.7524,,,,,,,,,,,,,,,,,,,,,,60fdd47cb6da7411e888e23c,61036dd7292d5a54a075b625,2021-07-29_22h12.00.124,Simcolourproject_2stim_asymm_v5,2020.2.10,Win32,60,61025ae37ef11b136ea224fe,,,,,,,,,4362,-70,31.33331299,1,0,0,response7disk,,1,28.66668701,-2.666687012,1,0,0,rectangle,28.66668701,-2.666687012,1,0,0,28.66668701,-2.666687012,1,0,0,0,106,106,4,1,,,,,,,,
,,,,,,,,,,,,,FF,,,,,,,,0.9663,,,,,,,,,,,,,,,,,,,,,,60fdd47cb6da7411e888e23c,61036dd7292d5a54a075b625,2021-07-29_22h12.00.124,Simcolourproject_2stim_asymm_v5,2020.2.10,Win32,60,61025ae37ef11b136ea224fe,,,,,,,,,1910,43.33337402,87.33331299,1,0,0,response1disk,,7,10,0,1,0,0,rectangle,10,0,1,0,0,10,0,1,0,0,0,107,107,74,1,,,,,,,,
,,,,,,,,,,,,,FF,,,,,,,,0.4528,,,,,,,,,,,,,,,,,,,,,,60fdd47cb6da7411e888e23c,61036dd7292d5a54a075b625,2021-07-29_22h12.00.124,Simcolourproject_2stim_asymm_v5,2020.2.10,Win32,60,61025ae37ef11b136ea224fe,,,,,,,,,1223,42,72,1,0,0,response1disk,,7,0.666687012,-5.333343506,1,0,0,rectangle,0.666687012,-5.333343506,1,0,0,0.666687012,-5.333343506,1,0,0,0,108,108,141,1,,,,,,,,
,,,,,,,,,,,,,FF,,,,,,,,0.3147,,,,,,,,,,,,,,,,,,,,,,60fdd47cb6da7411e888e23c,61036dd7292d5a54a075b625,2021-07-29_22h12.00.124,Simcolourproject_2stim_asymm_v5,2020.2.10,Win32,60,61025ae37ef11b136ea224fe,,,,,,,,,1035,53.33337402,69.33331299,1,0,0,response1disk,,7,11.33337402,6.666656494,1,0,0,rectangle,11.33337402,6.666656494,1,0,0,11.33337402,6.666656494,1,0,0,0,109,109,75,1,,,,,,,,
,,,,,,,,,,,,,FF,,,,,,,,0.2696,,,,,,,,,,,,,,,,,,,,,,60fdd47cb6da7411e888e23c,61036dd7292d5a54a075b625,2021-07-29_22h12.00.124,Simcolourproject_2stim_asymm_v5,2020.2.10,Win32,60,61025ae37ef11b136ea224fe,,,,,,,,,1018,53.33337402,86,1,0,0,response1disk,,7,9.333374023,-4,1,0,0,rectangle,9.333374023,-4,1,0,0,9.333374023,-4,1,0,0,0,110,110,88,1,,,,,,,,
,,,,,,,,,,,,,FF,,,,,,,,0.2295,,,,,,,,,,,,,,,,,,,,,,60fdd47cb6da7411e888e23c,61036dd7292d5a54a075b625,2021-07-29_22h12.00.124,Simcolourproject_2stim_asymm_v5,2020.2.10,Win32,60,61025ae37ef11b136ea224fe,,,,,,,,,3740,53.33337402,78.66665649,1,0,0,response1disk,,7,16.66668701,-4,1,0,0,rectangle,16.66668701,-4,1,0,0,16.66668701,-4,1,0,0,0,111,111,157,1,,,,,,,,
,,,,,,,,,,,,,FF,,,,,,,,0.2814,,,,,,,,,,,,,,,,,,,,,,60fdd47cb6da7411e888e23c,61036dd7292d5a54a075b625,2021-07-29_22h12.00.124,Simcolourproject_2stim_asymm_v5,2020.2.10,Win32,60,61025ae37ef11b136ea224fe,,,,,,,,,3914,52,78.66665649,1,0,0,response1disk,,7,7.333374023,-6.666687012,1,0,0,rectangle,7.333374023,-6.666687012,1,0,0,7.333374023,-6.666687012,1,0,0,0,112,112,44,1,,,,,,,,
,,,,,,,,,,,,,FF,,,,,,,,0.1144,,,,,,,,,,,,,,,,,,,,,,60fdd47cb6da7411e888e23c,61036dd7292d5a54a075b625,2021-07-29_22h12.00.124,Simcolourproject_2stim_asymm_v5,2020.2.10,Win32,60,61025ae37ef11b136ea224fe,,,,,,,,,1249,50,72.66665649,1,0,0,response1disk,,7,21.33337402,6.666656494,1,0,0,rectangle,21.33337402,6.666656494,1,0,0,21.33337402,6.666656494,1,0,0,0,113,113,28,1,,,,,,,,
,,,,,,,,,,,,,FF,,,,,,,,0.1326,,,,,,,,,,,,,,,,,,,,,,60fdd47cb6da7411e888e23c,61036dd7292d5a54a075b625,2021-07-29_22h12.00.124,Simcolourproject_2stim_asymm_v5,2020.2.10,Win32,60,61025ae37ef11b136ea224fe,,,,,,,,,4315,46,86,1,0,0,response1disk,,7,10.66668701,-12.66668701,1,0,0,rectangle,10.66668701,-12.66668701,1,0,0,10.66668701,-12.66668701,1,0,0,0,114,114,148,1,,,,,,,,
,,,,,,,,,,,,,FF,,,,,,,,0.099,,,,,,,,,,,,,,,,,,,,,,60fdd47cb6da7411e888e23c,61036dd7292d5a54a075b625,2021-07-29_22h12.00.124,Simcolourproject_2stim_asymm_v5,2020.2.10,Win32,60,61025ae37ef11b136ea224fe,,,,,,,,,660,48.66668701,72.66665649,1,0,0,response1disk,,7,4,0.666656494,1,0,0,rectangle,4,0.666656494,1,0,0,4,0.666656494,1,0,0,0,115,115,134,1,,,,,,,,
,,,,,,,,,,,,,FF,,,,,,,,0.334,,,,,,,,,,,,,,,,,,,,,,60fdd47cb6da7411e888e23c,61036dd7292d5a54a075b625,2021-07-29_22h12.00.124,Simcolourproject_2stim_asymm_v5,2020.2.10,Win32,60,61025ae37ef11b136ea224fe,,,,,,,,,3423,42,76.66665649,1,0,0,response1disk,,7,16.66668701,-2,1,0,0,rectangle,16.66668701,-2,1,0,0,16.66668701,-2,1,0,0,0,116,116,104,1,,,,,,,,
,,,,,,,,,,,,,FF,,,,,,,,0.102,,,,,,,,,,,,,,,,,,,,,,60fdd47cb6da7411e888e23c,61036dd7292d5a54a075b625,2021-07-29_22h12.00.124,Simcolourproject_2stim_asymm_v5,2020.2.10,Win32,60,61025ae37ef11b136ea224fe,,,,,,,,,529,56,71.33331299,1,0,0,response1disk,,7,11.33337402,-10,1,0,0,rectangle,11.33337402,-10,1,0,0,11.33337402,-10,1,0,0,0,117,117,46,1,,,,,,,,
,,,,,,,,,,,,,FF,,,,,,,,0.2817,,,,,,,,,,,,,,,,,,,,,,60fdd47cb6da7411e888e23c,61036dd7292d5a54a075b625,2021-07-29_22h12.00.124,Simcolourproject_2stim_asymm_v5,2020.2.10,Win32,60,61025ae37ef11b136ea224fe,,,,,,,,,3302,55.33337402,86.66665649,1,0,0,response1disk,,7,13.33337402,-8.666687012,1,0,0,rectangle,13.33337402,-8.666687012,1,0,0,13.33337402,-8.666687012,1,0,0,0,118,118,153,1,,,,,,,,
,,,,,,,,,,,,,FF,,,,,,,,0.1363,,,,,,,,,,,,,,,,,,,,,,60fdd47cb6da7411e888e23c,61036dd7292d5a54a075b625,2021-07-29_22h12.00.124,Simcolourproject_2stim_asymm_v5,2020.2.10,Win32,60,61025ae37ef11b136ea224fe,,,,,,,,,2782,48.66668701,70,1,0,0,response1disk,,7,9.333374023,-9.333343506,1,0,0,rectangle,9.333374023,-9.333343506,1,0,0,9.333374023,-9.333343506,1,0,0,0,119,119,64,1,,,,,,,,
,,,,,,,,,,,,,FF,,,,,,,,0.1195,,,,,,,,,,,,,,,,,,,,,,60fdd47cb6da7411e888e23c,61036dd7292d5a54a075b625,2021-07-29_22h12.00.124,Simcolourproject_2stim_asymm_v5,2020.2.10,Win32,60,61025ae37ef11b136ea224fe,,,,,,,,,2343,51.33337402,72.66665649,1,0,0,response1disk,,7,12.66668701,0.666656494,1,0,0,rectangle,12.66668701,0.666656494,1,0,0,12.66668701,0.666656494,1,0,0,0,120,120,35,1,,,,,,,,
,,,,,,,,,,,,,FF,,,,,,,,0.1148,,,,,,,,,,,,,,,,,,,,,,60fdd47cb6da7411e888e23c,61036dd7292d5a54a075b625,2021-07-29_22h12.00.124,Simcolourproject_2stim_asymm_v5,2020.2.10,Win32,60,61025ae37ef11b136ea224fe,,,,,,,,,3339,49.33337402,65.33331299,1,0,0,response1disk,,7,20,-11.33334351,1,0,0,rectangle,20,-11.33334351,1,0,0,20,-11.33334351,1,0,0,0,121,121,23,1,,,,,,,,
,,,,,,,,,,,,,FF,,,,,,,,0.1165,,,,,,,,,,,,,,,,,,,,,,60fdd47cb6da7411e888e23c,61036dd7292d5a54a075b625,2021-07-29_22h12.00.124,Simcolourproject_2stim_asymm_v5,2020.2.10,Win32,60,61025ae37ef11b136ea224fe,,,,,,,,,3638,50.66668701,60,1,0,0,response1disk,,7,24.66668701,-1.333343506,1,0,0,rectangle,24.66668701,-1.333343506,1,0,0,24.66668701,-1.333343506,1,0,0,0,122,122,30,1,,,,,,,,
,,,,,,,,,,,,,FF,,,,,,,,0.0833,,,,,,,,,,,,,,,,,,,,,,60fdd47cb6da7411e888e23c,61036dd7292d5a54a075b625,2021-07-29_22h12.00.124,Simcolourproject_2stim_asymm_v5,2020.2.10,Win32,60,61025ae37ef11b136ea224fe,,,,,,,,,3601,58.66668701,72.66665649,1,0,0,response1disk,,7,10,2.666656494,1,0,0,rectangle,10,2.666656494,1,0,0,10,2.666656494,1,0,0,0,123,123,26,1,,,,,,,,
,,,,,,,,,,,,,FF,,,,,,,,0.1192,,,,,,,,,,,,,,,,,,,,,,60fdd47cb6da7411e888e23c,61036dd7292d5a54a075b625,2021-07-29_22h12.00.124,Simcolourproject_2stim_asymm_v5,2020.2.10,Win32,60,61025ae37ef11b136ea224fe,,,,,,,,,841,55.33337402,80.66665649,1,0,0,response1disk,,7,18,0.666656494,1,0,0,rectangle,18,0.666656494,1,0,0,18,0.666656494,1,0,0,0,124,124,15,1,,,,,,,,
,,,,,,,,,,,,,FF,,,,,,,,0.1037,,,,,,,,,,,,,,,,,,,,,,60fdd47cb6da7411e888e23c,61036dd7292d5a54a075b625,2021-07-29_22h12.00.124,Simcolourproject_2stim_asymm_v5,2020.2.10,Win32,60,61025ae37ef11b136ea224fe,,,,,,,,,2936,57.33337402,71.33331299,1,0,0,response1disk,,7,8.666687012,-2,1,0,0,rectangle,8.666687012,-2,1,0,0,8.666687012,-2,1,0,0,0,125,125,83,1,,,,,,,,
,,,,,,,,,,,,,FF,,,,,,,,0.0801,,,,,,,,,,,,,,,,,,,,,,60fdd47cb6da7411e888e23c,61036dd7292d5a54a075b625,2021-07-29_22h12.00.124,Simcolourproject_2stim_asymm_v5,2020.2.10,Win32,60,61025ae37ef11b136ea224fe,,,,,,,,,3491,58.66668701,74,1,0,0,response1disk,,7,6,-11.33334351,1,0,0,rectangle,6,-11.33334351,1,0,0,6,-11.33334351,1,0,0,0,126,126,39,1,,,,,,,,
,,,,,,,,,,,,,FF,,,,,,,,0.1008,,,,,,,,,,,,,,,,,,,,,,60fdd47cb6da7411e888e23c,61036dd7292d5a54a075b625,2021-07-29_22h12.00.124,Simcolourproject_2stim_asymm_v5,2020.2.10,Win32,60,61025ae37ef11b136ea224fe,,,,,,,,,1105,49.33337402,79.33331299,1,0,0,response1disk,,7,2.666687012,-0.666687012,1,0,0,rectangle,2.666687012,-0.666687012,1,0,0,2.666687012,-0.666687012,1,0,0,0,127,127,81,1,,,,,,,,
,,,,,,,,,,,,,FF,,,,,,,,0.0671,,,,,,,,,,,,,,,,,,,,,,60fdd47cb6da7411e888e23c,61036dd7292d5a54a075b625,2021-07-29_22h12.00.124,Simcolourproject_2stim_asymm_v5,2020.2.10,Win32,60,61025ae37ef11b136ea224fe,,,,,,,,,1696,56,76.66665649,1,0,0,response1disk,,7,14,0,1,0,0,rectangle,14,0,1,0,0,14,0,1,0,0,0,128,128,118,1,,,,,,,,
,,,,,,,,,,,,,FF,,,,,,,,0.5831,,,,,,,,,,,,,,,,,,,,,,60fdd47cb6da7411e888e23c,61036dd7292d5a54a075b625,2021-07-29_22h12.00.124,Simcolourproject_2stim_asymm_v5,2020.2.10,Win32,60,61025ae37ef11b136ea224fe,,,,,,,,,1055,43.33337402,60,1,0,0,response1disk,,7,8.666687012,0.666656494,1,0,0,rectangle,8.666687012,0.666656494,1,0,0,8.666687012,0.666656494,1,0,0,0,129,129,90,1,,,,,,,,
,,,,,,,,,,,,,FF,,,,,,,,0.353,,,,,,,,,,,,,,,,,,,,,,60fdd47cb6da7411e888e23c,61036dd7292d5a54a075b625,2021-07-29_22h12.00.124,Simcolourproject_2stim_asymm_v5,2020.2.10,Win32,60,61025ae37ef11b136ea224fe,,,,,,,,,2741,55.33337402,86.66665649,1,0,0,response1disk,,7,2.666687012,-10,1,0,0,rectangle,51.33337402,71.33331299,1,0,0,2,-5.333343506,1,0,0,0,130,130,36,1,,response1disk_3,TRUE,7,7,"[94,317,97,217,106,316,58,131,100,89,78,178,232,16,34,292,258,290,94,322]",0.3525,rectangle
,,,,,,,,,,,,,FF,,,,,,,,0.5483,,,,,,,,,,,,,,,,,,,,,,60fdd47cb6da7411e888e23c,61036dd7292d5a54a075b625,2021-07-29_22h12.00.124,Simcolourproject_2stim_asymm_v5,2020.2.10,Win32,60,61025ae37ef11b136ea224fe,,,,,,,,,1347,46,70,1,0,0,response1disk,,7,15.33337402,-1.333343506,1,0,0,rectangle,15.33337402,-1.333343506,1,0,0,15.33337402,-1.333343506,1,0,0,0,131,131,11,1,,,,,,,,
,,,,,,,,,,,,,FF,,,,,,,,0.103,,,,,,,,,,,,,,,,,,,,,,60fdd47cb6da7411e888e23c,61036dd7292d5a54a075b625,2021-07-29_22h12.00.124,Simcolourproject_2stim_asymm_v5,2020.2.10,Win32,60,61025ae37ef11b136ea224fe,,,,,,,,,134,42,54,1,0,0,response1disk,,7,18,-6,1,0,0,rectangle,18,-6,1,0,0,18,-6,1,0,0,0,132,132,32,1,,,,,,,,
,,,,,,,,,,,,,FF,,,,,,,,0.1531,,,,,,,,,,,,,,,,,,,,,,60fdd47cb6da7411e888e23c,61036dd7292d5a54a075b625,2021-07-29_22h12.00.124,Simcolourproject_2stim_asymm_v5,2020.2.10,Win32,60,61025ae37ef11b136ea224fe,,,,,,,,,3110,34.66668701,50,1,0,0,response1disk,,7,6,-4,1,0,0,rectangle,6,-4,1,0,0,6,-4,1,0,0,0,133,133,58,1,,,,,,,,
,,,,,,,,,,,,,FF,,,,,,,,0.1,,,,,,,,,,,,,,,,,,,,,,60fdd47cb6da7411e888e23c,61036dd7292d5a54a075b625,2021-07-29_22h12.00.124,Simcolourproject_2stim_asymm_v5,2020.2.10,Win32,60,61025ae37ef11b136ea224fe,,,,,,,,,2973,51.33337402,62.66665649,1,0,0,response1disk,,7,8,-3.333343506,1,0,0,rectangle,8,-3.333343506,1,0,0,8,-3.333343506,1,0,0,0,134,134,41,1,,,,,,,,
,,,,,,,,,,,,,FF,,,,,,,,0.1527,,,,,,,,,,,,,,,,,,,,,,60fdd47cb6da7411e888e23c,61036dd7292d5a54a075b625,2021-07-29_22h12.00.124,Simcolourproject_2stim_asymm_v5,2020.2.10,Win32,60,61025ae37ef11b136ea224fe,,,,,,,,,3381,48,69.33331299,1,0,0,response1disk,,7,14,-5.333343506,1,0,0,rectangle,14,-5.333343506,1,0,0,14,-5.333343506,1,0,0,0,135,135,10,1,,,,,,,,
,,,,,,,,,,,,,FF,,,,,,,,0.4142,,,,,,,,,,,,,,,,,,,,,,60fdd47cb6da7411e888e23c,61036dd7292d5a54a075b625,2021-07-29_22h12.00.124,Simcolourproject_2stim_asymm_v5,2020.2.10,Win32,60,61025ae37ef11b136ea224fe,,,,,,,,,2239,43.33337402,76.66665649,1,0,0,response1disk,,7,8.666687012,-8.666687012,1,0,0,rectangle,8.666687012,-8.666687012,1,0,0,8.666687012,-8.666687012,1,0,0,0,136,136,156,1,,,,,,,,
,,,,,,,,,,,,,FF,,,,,,,,0.4168,,,,,,,,,,,,,,,,,,,,,,60fdd47cb6da7411e888e23c,61036dd7292d5a54a075b625,2021-07-29_22h12.00.124,Simcolourproject_2stim_asymm_v5,2020.2.10,Win32,60,61025ae37ef11b136ea224fe,,,,,,,,,3255,52,74,1,0,0,response1disk,,7,7.333374023,-6,1,0,0,rectangle,7.333374023,-6,1,0,0,7.333374023,-6,1,0,0,0,137,137,45,1,,,,,,,,
,,,,,,,,,,,,,FF,,,,,,,,0.1969,,,,,,,,,,,,,,,,,,,,,,60fdd47cb6da7411e888e23c,61036dd7292d5a54a075b625,2021-07-29_22h12.00.124,Simcolourproject_2stim_asymm_v5,2020.2.10,Win32,60,61025ae37ef11b136ea224fe,,,,,,,,,1555,47.33337402,75.33331299,1,0,0,response1disk,,7,4,-8.666687012,1,0,0,rectangle,4,-8.666687012,1,0,0,4,-8.666687012,1,0,0,0,138,138,97,1,,,,,,,,
,,,,,,,,,,,,,FF,,,,,,,,0.1866,,,,,,,,,,,,,,,,,,,,,,60fdd47cb6da7411e888e23c,61036dd7292d5a54a075b625,2021-07-29_22h12.00.124,Simcolourproject_2stim_asymm_v5,2020.2.10,Win32,60,61025ae37ef11b136ea224fe,,,,,,,,,474,43.33337402,71.33331299,1,0,0,response1disk,,7,18,6,1,0,0,rectangle,18,6,1,0,0,18,6,1,0,0,0,139,139,110,1,,,,,,,,
,,,,,,,,,,,,,FF,,,,,,,,0.1033,,,,,,,,,,,,,,,,,,,,,,60fdd47cb6da7411e888e23c,61036dd7292d5a54a075b625,2021-07-29_22h12.00.124,Simcolourproject_2stim_asymm_v5,2020.2.10,Win32,60,61025ae37ef11b136ea224fe,,,,,,,,,2690,62,80.66665649,1,0,0,response1disk,,7,16.66668701,-1.333343506,1,0,0,rectangle,16.66668701,-1.333343506,1,0,0,16.66668701,-1.333343506,1,0,0,0,140,140,98,1,,,,,,,,
,,,,,,,,,,,,,FF,,,,,,,,0.0698,,,,,,,,,,,,,,,,,,,,,,60fdd47cb6da7411e888e23c,61036dd7292d5a54a075b625,2021-07-29_22h12.00.124,Simcolourproject_2stim_asymm_v5,2020.2.10,Win32,60,61025ae37ef11b136ea224fe,,,,,,,,,2016,46,81.33331299,1,0,0,response1disk,,7,9.333374023,-12,1,0,0,rectangle,9.333374023,-12,1,0,0,9.333374023,-12,1,0,0,0,141,141,120,1,,,,,,,,
,,,,,,,,,,,,,FF,,,,,,,,0.1173,,,,,,,,,,,,,,,,,,,,,,60fdd47cb6da7411e888e23c,61036dd7292d5a54a075b625,2021-07-29_22h12.00.124,Simcolourproject_2stim_asymm_v5,2020.2.10,Win32,60,61025ae37ef11b136ea224fe,,,,,,,,,4275,48,71.33331299,1,0,0,response1disk,,7,16.66668701,-2.666687012,1,0,0,rectangle,16.66668701,-2.666687012,1,0,0,16.66668701,-2.666687012,1,0,0,0,142,142,22,1,,,,,,,,
,,,,,,,,,,,,,FF,,,,,,,,0.3493,,,,,,,,,,,,,,,,,,,,,,60fdd47cb6da7411e888e23c,61036dd7292d5a54a075b625,2021-07-29_22h12.00.124,Simcolourproject_2stim_asymm_v5,2020.2.10,Win32,60,61025ae37ef11b136ea224fe,,,,,,,,,2202,48,70,1,0,0,response1disk,,7,1.333374023,-8.666687012,1,0,0,rectangle,1.333374023,-8.666687012,1,0,0,1.333374023,-8.666687012,1,0,0,0,143,143,130,1,,,,,,,,
,,,,,,,,,,,,,FF,,,,,,,,0.1667,,,,,,,,,,,,,,,,,,,,,,60fdd47cb6da7411e888e23c,61036dd7292d5a54a075b625,2021-07-29_22h12.00.124,Simcolourproject_2stim_asymm_v5,2020.2.10,Win32,60,61025ae37ef11b136ea224fe,,,,,,,,,4290,53.33337402,61.33331299,1,0,0,response1disk,,7,24,-7.333343506,1,0,0,rectangle,24,-7.333343506,1,0,0,24,-7.333343506,1,0,0,0,144,144,126,1,,,,,,,,
,,,,,,,,,,,,,FF,,,,,,,,0.2697,,,,,,,,,,,,,,,,,,,,,,60fdd47cb6da7411e888e23c,61036dd7292d5a54a075b625,2021-07-29_22h12.00.124,Simcolourproject_2stim_asymm_v5,2020.2.10,Win32,60,61025ae37ef11b136ea224fe,,,,,,,,,4073,50.66668701,68.66665649,1,0,0,response1disk,,7,22.66668701,-12.66668701,1,0,0,rectangle,22.66668701,-12.66668701,1,0,0,22.66668701,-12.66668701,1,0,0,0,145,145,17,1,,,,,,,,
,,,,,,,,,,,,,FF,,,,,,,,0.0854,,,,,,,,,,,,,,,,,,,,,,60fdd47cb6da7411e888e23c,61036dd7292d5a54a075b625,2021-07-29_22h12.00.124,Simcolourproject_2stim_asymm_v5,2020.2.10,Win32,60,61025ae37ef11b136ea224fe,,,,,,,,,1776,43.33337402,58,1,0,0,response1disk,,7,10.66668701,-12.66668701,1,0,0,rectangle,10.66668701,-12.66668701,1,0,0,10.66668701,-12.66668701,1,0,0,0,146,146,108,1,,,,,,,,
,,,,,,,,,,,,,FF,,,,,,,,0.0806,,,,,,,,,,,,,,,,,,,,,,60fdd47cb6da7411e888e23c,61036dd7292d5a54a075b625,2021-07-29_22h12.00.124,Simcolourproject_2stim_asymm_v5,2020.2.10,Win32,60,61025ae37ef11b136ea224fe,,,,,,,,,3641,53.33337402,74,1,0,0,response1disk,,7,7.333374023,-14,1,0,0,rectangle,7.333374023,-14,1,0,0,7.333374023,-14,1,0,0,0,147,147,106,1,,,,,,,,
,,,,,,,,,,,,,FF,,,,,,,,0.0529,,,,,,,,,,,,,,,,,,,,,,60fdd47cb6da7411e888e23c,61036dd7292d5a54a075b625,2021-07-29_22h12.00.124,Simcolourproject_2stim_asymm_v5,2020.2.10,Win32,60,61025ae37ef11b136ea224fe,,,,,,,,,1385,42,65.33331299,1,0,0,response1disk,,7,12,-6,1,0,0,rectangle,12,-6,1,0,0,12,-6,1,0,0,0,148,148,155,1,,,,,,,,
,,,,,,,,,,,,,FF,,,,,,,,0.0456,,,,,,,,,,,,,,,,,,,,,,60fdd47cb6da7411e888e23c,61036dd7292d5a54a075b625,2021-07-29_22h12.00.124,Simcolourproject_2stim_asymm_v5,2020.2.10,Win32,60,61025ae37ef11b136ea224fe,,,,,,,,,499,39.33337402,67.33331299,1,0,0,response1disk,,7,15.33337402,-10,1,0,0,rectangle,15.33337402,-10,1,0,0,15.33337402,-10,1,0,0,0,149,149,79,1,,,,,,,,
,,,,,,,,,,,,,FF,,,,,,,,0.033,,,,,,,,,,,,,,,,,,,,,,60fdd47cb6da7411e888e23c,61036dd7292d5a54a075b625,2021-07-29_22h12.00.124,Simcolourproject_2stim_asymm_v5,2020.2.10,Win32,60,61025ae37ef11b136ea224fe,,,,,,,,,3408,40,58.66665649,1,0,0,response1disk,,7,12.66668701,-13.33334351,1,0,0,rectangle,12.66668701,-13.33334351,1,0,0,12.66668701,-13.33334351,1,0,0,0,150,150,117,1,,,,,,,,
,,,,,,,,,,,,,FF,,,,,,,,0.069,,,,,,,,,,,,,,,,,,,,,,60fdd47cb6da7411e888e23c,61036dd7292d5a54a075b625,2021-07-29_22h12.00.124,Simcolourproject_2stim_asymm_v5,2020.2.10,Win32,60,61025ae37ef11b136ea224fe,,,,,,,,,2957,43.33337402,58.66665649,1,0,0,response1disk,,7,18.66668701,-2,1,0,0,rectangle,18.66668701,-2,1,0,0,18.66668701,-2,1,0,0,0,151,151,139,1,,,,,,,,
,,,,,,,,,,,,,FF,,,,,,,,0.0702,,,,,,,,,,,,,,,,,,,,,,60fdd47cb6da7411e888e23c,61036dd7292d5a54a075b625,2021-07-29_22h12.00.124,Simcolourproject_2stim_asymm_v5,2020.2.10,Win32,60,61025ae37ef11b136ea224fe,,,,,,,,,2736,43.33337402,55.33331299,1,0,0,response1disk,,7,14,-11.33334351,1,0,0,rectangle,14,-11.33334351,1,0,0,14,-11.33334351,1,0,0,0,152,152,115,1,,,,,,,,
,,,,,,,,,,,,,FF,,,,,,,,0.134,,,,,,,,,,,,,,,,,,,,,,60fdd47cb6da7411e888e23c,61036dd7292d5a54a075b625,2021-07-29_22h12.00.124,Simcolourproject_2stim_asymm_v5,2020.2.10,Win32,60,61025ae37ef11b136ea224fe,,,,,,,,,2477,50.66668701,55.33331299,1,0,0,response1disk,,7,18.66668701,-0.666687012,1,0,0,rectangle,18.66668701,-0.666687012,1,0,0,18.66668701,-0.666687012,1,0,0,0,153,153,80,1,,,,,,,,
,,,,,,,,,,,,,FF,,,,,,,,0.1192,,,,,,,,,,,,,,,,,,,,,,60fdd47cb6da7411e888e23c,61036dd7292d5a54a075b625,2021-07-29_22h12.00.124,Simcolourproject_2stim_asymm_v5,2020.2.10,Win32,60,61025ae37ef11b136ea224fe,,,,,,,,,340,47.33337402,53.33331299,1,0,0,response1disk,,7,13.33337402,-6.666687012,1,0,0,rectangle,13.33337402,-6.666687012,1,0,0,13.33337402,-6.666687012,1,0,0,0,154,154,112,1,,,,,,,,
,,,,,,,,,,,,,FF,,,,,,,,0.1333,,,,,,,,,,,,,,,,,,,,,,60fdd47cb6da7411e888e23c,61036dd7292d5a54a075b625,2021-07-29_22h12.00.124,Simcolourproject_2stim_asymm_v5,2020.2.10,Win32,60,61025ae37ef11b136ea224fe,,,,,,,,,421,47.33337402,51.33331299,1,0,0,response1disk,,7,20,-12,1,0,0,rectangle,20,-12,1,0,0,20,-12,1,0,0,0,155,155,87,1,,,,,,,,
,,,,,,,,,,,,,FF,,,,,,,,0.069,,,,,,,,,,,,,,,,,,,,,,60fdd47cb6da7411e888e23c,61036dd7292d5a54a075b625,2021-07-29_22h12.00.124,Simcolourproject_2stim_asymm_v5,2020.2.10,Win32,60,61025ae37ef11b136ea224fe,,,,,,,,,3657,44.66668701,51.33331299,1,0,0,response1disk,,7,24,-12.66668701,1,0,0,rectangle,24,-12.66668701,1,0,0,24,-12.66668701,1,0,0,0,156,156,138,1,,,,,,,,
,,,,,,,,,,,,,FF,,,,,,,,0.0512,,,,,,,,,,,,,,,,,,,,,,60fdd47cb6da7411e888e23c,61036dd7292d5a54a075b625,2021-07-29_22h12.00.124,Simcolourproject_2stim_asymm_v5,2020.2.10,Win32,60,61025ae37ef11b136ea224fe,,,,,,,,,2814,53.33337402,56,1,0,0,response1disk,,7,21.33337402,4,1,0,0,rectangle,21.33337402,4,1,0,0,21.33337402,4,1,0,0,0,157,157,142,1,,,,,,,,
,,,,,,,,,,,,,FF,,,,,,,,0.1134,,,,,,,,,,,,,,,,,,,,,,60fdd47cb6da7411e888e23c,61036dd7292d5a54a075b625,2021-07-29_22h12.00.124,Simcolourproject_2stim_asymm_v5,2020.2.10,Win32,60,61025ae37ef11b136ea224fe,,,,,,,,,2588,55.33337402,79.33331299,1,0,0,response1disk,,7,24.66668701,4.666656494,1,0,0,rectangle,24.66668701,4.666656494,1,0,0,24.66668701,4.666656494,1,0,0,0,158,158,123,1,,,,,,,,
,,,,,,,,,,,,,FF,,,,,,,,0.0364,,,,,,,,,,,,,,,,,,,,,,60fdd47cb6da7411e888e23c,61036dd7292d5a54a075b625,2021-07-29_22h12.00.124,Simcolourproject_2stim_asymm_v5,2020.2.10,Win32,60,61025ae37ef11b136ea224fe,,,,,,,,,3512,44.66668701,68.66665649,1,0,0,response1disk,,7,6,-4,1,0,0,rectangle,6,-4,1,0,0,6,-4,1,0,0,0,159,159,91,1,,,,,,,,
,,,,,,,,,,,,,FF,,,,,,,,1.148,,,,,,,,,,,,,,,,,,,,,,60fdd47cb6da7411e888e23c,61036dd7292d5a54a075b625,2021-07-29_22h12.00.124,Simcolourproject_2stim_asymm_v5,2020.2.10,Win32,60,61025ae37ef11b136ea224fe,,,,,,,,,224,34,54,1,0,0,response1disk,,7,8.666687012,5.333312988,1,0,0,rectangle,8.666687012,5.333312988,1,0,0,8.666687012,5.333312988,1,0,0,1,0,160,5,1,,,,,,,,
,,,,,,,,,,,,,FF,,,,,,,,0.0844,,,,,,,,,,,,,,,,,,,,,,60fdd47cb6da7411e888e23c,61036dd7292d5a54a075b625,2021-07-29_22h12.00.124,Simcolourproject_2stim_asymm_v5,2020.2.10,Win32,60,61025ae37ef11b136ea224fe,,,,,,,,,1427,46,68.66665649,1,0,0,response1disk,,7,15.33337402,1.333312988,1,0,0,rectangle,15.33337402,1.333312988,1,0,0,15.33337402,1.333312988,1,0,0,1,1,161,40,1,,,,,,,,
,,,,,,,,,,,,,FF,,,,,,,,0.0362,,,,,,,,,,,,,,,,,,,,,,60fdd47cb6da7411e888e23c,61036dd7292d5a54a075b625,2021-07-29_22h12.00.124,Simcolourproject_2stim_asymm_v5,2020.2.10,Win32,60,61025ae37ef11b136ea224fe,,,,,,,,,974,41.33337402,65.33331299,1,0,0,response1disk,,7,8.666687012,-12,1,0,0,rectangle,8.666687012,-12,1,0,0,8.666687012,-12,1,0,0,1,2,162,61,1,,,,,,,,
,,,,,,,,,,,,,FF,,,,,,,,0.1168,,,,,,,,,,,,,,,,,,,,,,60fdd47cb6da7411e888e23c,61036dd7292d5a54a075b625,2021-07-29_22h12.00.124,Simcolourproject_2stim_asymm_v5,2020.2.10,Win32,60,61025ae37ef11b136ea224fe,,,,,,,,,3627,45.33337402,64,1,0,0,response1disk,,7,16,-7.333343506,1,0,0,rectangle,16,-7.333343506,1,0,0,16,-7.333343506,1,0,0,1,3,163,102,1,,,,,,,,
,,,,,,,,,,,,,FF,,,,,,,,0.131,,,,,,,,,,,,,,,,,,,,,,60fdd47cb6da7411e888e23c,61036dd7292d5a54a075b625,2021-07-29_22h12.00.124,Simcolourproject_2stim_asymm_v5,2020.2.10,Win32,60,61025ae37ef11b136ea224fe,,,,,,,,,773,45.33337402,70.66665649,1,0,0,response1disk,,7,6,-12.66668701,1,0,0,rectangle,6,-12.66668701,1,0,0,6,-12.66668701,1,0,0,1,4,164,38,1,,,,,,,,
,,,,,,,,,,,,,FF,,,,,,,,0.0666,,,,,,,,,,,,,,,,,,,,,,60fdd47cb6da7411e888e23c,61036dd7292d5a54a075b625,2021-07-29_22h12.00.124,Simcolourproject_2stim_asymm_v5,2020.2.10,Win32,60,61025ae37ef11b136ea224fe,,,,,,,,,4281,42.66668701,64,1,0,0,response1disk,,7,6,-14,1,0,0,rectangle,6,-14,1,0,0,6,-14,1,0,0,1,5,165,107,1,,,,,,,,
,,,,,,,,,,,,,FF,,,,,,,,0.0999,,,,,,,,,,,,,,,,,,,,,,60fdd47cb6da7411e888e23c,61036dd7292d5a54a075b625,2021-07-29_22h12.00.124,Simcolourproject_2stim_asymm_v5,2020.2.10,Win32,60,61025ae37ef11b136ea224fe,,,,,,,,,706,34.66668701,57.33331299,1,0,0,response1disk,,7,7.333374023,-7.333343506,1,0,0,rectangle,7.333374023,-7.333343506,1,0,0,7.333374023,-7.333343506,1,0,0,1,6,166,11,1,,,,,,,,
,,,,,,,,,,,,,FF,,,,,,,,0.0311,,,,,,,,,,,,,,,,,,,,,,60fdd47cb6da7411e888e23c,61036dd7292d5a54a075b625,2021-07-29_22h12.00.124,Simcolourproject_2stim_asymm_v5,2020.2.10,Win32,60,61025ae37ef11b136ea224fe,,,,,,,,,69,44.66668701,70.66665649,1,0,0,response1disk,,7,19.33337402,-7.333343506,1,0,0,rectangle,19.33337402,-7.333343506,1,0,0,19.33337402,-7.333343506,1,0,0,1,7,167,145,1,,,,,,,,
,,,,,,,,,,,,,FF,,,,,,,,0.033,,,,,,,,,,,,,,,,,,,,,,60fdd47cb6da7411e888e23c,61036dd7292d5a54a075b625,2021-07-29_22h12.00.124,Simcolourproject_2stim_asymm_v5,2020.2.10,Win32,60,61025ae37ef11b136ea224fe,,,,,,,,,3730,55.33337402,63.33331299,1,0,0,response1disk,,7,6.666687012,-0.666687012,1,0,0,rectangle,6.666687012,-0.666687012,1,0,0,6.666687012,-0.666687012,1,0,0,1,8,168,104,1,,,,,,,,
,,,,,,,,,,,,,FF,,,,,,,,0.1505,,,,,,,,,,,,,,,,,,,,,,60fdd47cb6da7411e888e23c,61036dd7292d5a54a075b625,2021-07-29_22h12.00.124,Simcolourproject_2stim_asymm_v5,2020.2.10,Win32,60,61025ae37ef11b136ea224fe,,,,,,,,,1185,54.66668701,72,1,0,0,response1disk,,7,15.33337402,-12.66668701,1,0,0,rectangle,15.33337402,-12.66668701,1,0,0,15.33337402,-12.66668701,1,0,0,1,9,169,118,1,,,,,,,,
,,,,,,,,,,,,,FF,,,,,,,,0.0491,,,,,,,,,,,,,,,,,,,,,,60fdd47cb6da7411e888e23c,61036dd7292d5a54a075b625,2021-07-29_22h12.00.124,Simcolourproject_2stim_asymm_v5,2020.2.10,Win32,60,61025ae37ef11b136ea224fe,,,,,,,,,1038,43.33337402,62.66665649,1,0,0,response1disk,,7,20,-4,1,0,0,rectangle,20,-4,1,0,0,20,-4,1,0,0,1,10,170,86,1,,,,,,,,
,,,,,,,,,,,,,FF,,,,,,,,0.0863,,,,,,,,,,,,,,,,,,,,,,60fdd47cb6da7411e888e23c,61036dd7292d5a54a075b625,2021-07-29_22h12.00.124,Simcolourproject_2stim_asymm_v5,2020.2.10,Win32,60,61025ae37ef11b136ea224fe,,,,,,,,,2529,47.33337402,70,1,0,0,response1disk,,7,21.33337402,4,1,0,0,rectangle,21.33337402,4,1,0,0,21.33337402,4,1,0,0,1,11,171,33,1,,,,,,,,
,,,,,,,,,,,,,FF,,,,,,,,0.1165,,,,,,,,,,,,,,,,,,,,,,60fdd47cb6da7411e888e23c,61036dd7292d5a54a075b625,2021-07-29_22h12.00.124,Simcolourproject_2stim_asymm_v5,2020.2.10,Win32,60,61025ae37ef11b136ea224fe,,,,,,,,,2616,43.33337402,57.33331299,1,0,0,response1disk,,7,10,0,1,0,0,rectangle,10,0,1,0,0,10,0,1,0,0,1,12,172,52,1,,,,,,,,
,,,,,,,,,,,,,FF,,,,,,,,0.165,,,,,,,,,,,,,,,,,,,,,,60fdd47cb6da7411e888e23c,61036dd7292d5a54a075b625,2021-07-29_22h12.00.124,Simcolourproject_2stim_asymm_v5,2020.2.10,Win32,60,61025ae37ef11b136ea224fe,,,,,,,,,3051,54.66668701,79.33331299,1,0,0,response1disk,,7,21.33337402,10.66665649,1,0,0,rectangle,21.33337402,10.66665649,1,0,0,21.33337402,10.66665649,1,0,0,1,13,173,68,1,,,,,,,,
,,,,,,,,,,,,,FF,,,,,,,,0.0479,,,,,,,,,,,,,,,,,,,,,,60fdd47cb6da7411e888e23c,61036dd7292d5a54a075b625,2021-07-29_22h12.00.124,Simcolourproject_2stim_asymm_v5,2020.2.10,Win32,60,61025ae37ef11b136ea224fe,,,,,,,,,3865,50.66668701,74,1,0,0,response1disk,,7,11.33337402,-4,1,0,0,rectangle,11.33337402,-4,1,0,0,11.33337402,-4,1,0,0,1,14,174,43,1,,,,,,,,
,,,,,,,,,,,,,FF,,,,,,,,0.083,,,,,,,,,,,,,,,,,,,,,,60fdd47cb6da7411e888e23c,61036dd7292d5a54a075b625,2021-07-29_22h12.00.124,Simcolourproject_2stim_asymm_v5,2020.2.10,Win32,60,61025ae37ef11b136ea224fe,,,,,,,,,900,41.33337402,59.33331299,1,0,0,response1disk,,7,10,-9.333343506,1,0,0,rectangle,10,-9.333343506,1,0,0,10,-9.333343506,1,0,0,1,15,175,138,1,,,,,,,,
,,,,,,,,,,,,,FF,,,,,,,,0.0664,,,,,,,,,,,,,,,,,,,,,,60fdd47cb6da7411e888e23c,61036dd7292d5a54a075b625,2021-07-29_22h12.00.124,Simcolourproject_2stim_asymm_v5,2020.2.10,Win32,60,61025ae37ef11b136ea224fe,,,,,,,,,2008,48,64,1,0,0,response1disk,,7,18,-6.666687012,1,0,0,rectangle,18,-6.666687012,1,0,0,18,-6.666687012,1,0,0,1,16,176,30,1,,,,,,,,
,,,,,,,,,,,,,FF,,,,,,,,0.0668,,,,,,,,,,,,,,,,,,,,,,60fdd47cb6da7411e888e23c,61036dd7292d5a54a075b625,2021-07-29_22h12.00.124,Simcolourproject_2stim_asymm_v5,2020.2.10,Win32,60,61025ae37ef11b136ea224fe,,,,,,,,,3004,49.33337402,50,1,0,0,response1disk,,7,12,-13.33334351,1,0,0,rectangle,48.66668701,51.33331299,1,0,0,9.333374023,-14,1,0,0,1,17,177,105,1,,response1disk_3,TRUE,7,2,"[94,317,97,217,106,316,58,131,100,89,78,178,232,16,34,292,258,290,94,322]",0.3463,rectangle
,,,,,,,,,,,,,FF,,,,,,,,0.064,,,,,,,,,,,,,,,,,,,,,,60fdd47cb6da7411e888e23c,61036dd7292d5a54a075b625,2021-07-29_22h12.00.124,Simcolourproject_2stim_asymm_v5,2020.2.10,Win32,60,61025ae37ef11b136ea224fe,,,,,,,,,4350,40.66668701,53.33331299,1,0,0,response1disk,,7,16.66668701,-8.666687012,1,0,0,rectangle,16.66668701,-8.666687012,1,0,0,16.66668701,-8.666687012,1,0,0,1,18,178,147,1,,,,,,,,
,,,,,,,,,,,,,FF,,,,,,,,0.6331,,,,,,,,,,,,,,,,,,,,,,60fdd47cb6da7411e888e23c,61036dd7292d5a54a075b625,2021-07-29_22h12.00.124,Simcolourproject_2stim_asymm_v5,2020.2.10,Win32,60,61025ae37ef11b136ea224fe,,,,,,,,,131,37.33337402,53.33331299,1,0,0,response1disk,,7,16.66668701,-2.666687012,1,0,0,rectangle,16.66668701,-2.666687012,1,0,0,16.66668701,-2.666687012,1,0,0,1,19,179,151,1,,,,,,,,
,,,,,,,,,,,,,FF,,,,,,,,0.0485,,,,,,,,,,,,,,,,,,,,,,60fdd47cb6da7411e888e23c,61036dd7292d5a54a075b625,2021-07-29_22h12.00.124,Simcolourproject_2stim_asymm_v5,2020.2.10,Win32,60,61025ae37ef11b136ea224fe,,,,,,,,,1519,48.66668701,58.66665649,1,0,0,response1disk,,7,13.33337402,-6.666687012,1,0,0,rectangle,13.33337402,-6.666687012,1,0,0,13.33337402,-6.666687012,1,0,0,1,20,180,79,1,,,,,,,,
,,,,,,,,,,,,,FF,,,,,,,,0.0966,,,,,,,,,,,,,,,,,,,,,,60fdd47cb6da7411e888e23c,61036dd7292d5a54a075b625,2021-07-29_22h12.00.124,Simcolourproject_2stim_asymm_v5,2020.2.10,Win32,60,61025ae37ef11b136ea224fe,,,,,,,,,663,41.33337402,59.33331299,1,0,0,response1disk,,7,22.66668701,-8.666687012,1,0,0,rectangle,22.66668701,-8.666687012,1,0,0,22.66668701,-8.666687012,1,0,0,1,21,181,77,1,,,,,,,,
,,,,,,,,,,,,,FF,,,,,,,,0.0337,,,,,,,,,,,,,,,,,,,,,,60fdd47cb6da7411e888e23c,61036dd7292d5a54a075b625,2021-07-29_22h12.00.124,Simcolourproject_2stim_asymm_v5,2020.2.10,Win32,60,61025ae37ef11b136ea224fe,,,,,,,,,1306,35.33337402,56,1,0,0,response1disk,,7,21.33337402,2,1,0,0,rectangle,21.33337402,2,1,0,0,21.33337402,2,1,0,0,1,22,182,85,1,,,,,,,,
,,,,,,,,,,,,,FF,,,,,,,,0.0827,,,,,,,,,,,,,,,,,,,,,,60fdd47cb6da7411e888e23c,61036dd7292d5a54a075b625,2021-07-29_22h12.00.124,Simcolourproject_2stim_asymm_v5,2020.2.10,Win32,60,61025ae37ef11b136ea224fe,,,,,,,,,4043,42,65.33331299,1,0,0,response1disk,,7,16.66668701,-4,1,0,0,rectangle,16.66668701,-4,1,0,0,16.66668701,-4,1,0,0,1,23,183,83,1,,,,,,,,
,,,,,,,,,,,,,FF,,,,,,,,0.1347,,,,,,,,,,,,,,,,,,,,,,60fdd47cb6da7411e888e23c,61036dd7292d5a54a075b625,2021-07-29_22h12.00.124,Simcolourproject_2stim_asymm_v5,2020.2.10,Win32,60,61025ae37ef11b136ea224fe,,,,,,,,,4282,44.66668701,52.66665649,1,0,0,response1disk,,7,18,-6,1,0,0,rectangle,18,-6,1,0,0,18,-6,1,0,0,1,24,184,109,1,,,,,,,,
,,,,,,,,,,,,,FF,,,,,,,,0.1198,,,,,,,,,,,,,,,,,,,,,,60fdd47cb6da7411e888e23c,61036dd7292d5a54a075b625,2021-07-29_22h12.00.124,Simcolourproject_2stim_asymm_v5,2020.2.10,Win32,60,61025ae37ef11b136ea224fe,,,,,,,,,1651,36.66668701,55.33331299,1,0,0,response1disk,,7,13.33337402,-9.333343506,1,0,0,rectangle,13.33337402,-9.333343506,1,0,0,13.33337402,-9.333343506,1,0,0,1,25,185,34,1,,,,,,,,
,,,,,,,,,,,,,FF,,,,,,,,0.0858,,,,,,,,,,,,,,,,,,,,,,60fdd47cb6da7411e888e23c,61036dd7292d5a54a075b625,2021-07-29_22h12.00.124,Simcolourproject_2stim_asymm_v5,2020.2.10,Win32,60,61025ae37ef11b136ea224fe,,,,,,,,,4200,46,60.66665649,1,0,0,response1disk,,7,18,0,1,0,0,rectangle,18,0,1,0,0,18,0,1,0,0,1,26,186,124,1,,,,,,,,
,,,,,,,,,,,,,FF,,,,,,,,0.0172,,,,,,,,,,,,,,,,,,,,,,60fdd47cb6da7411e888e23c,61036dd7292d5a54a075b625,2021-07-29_22h12.00.124,Simcolourproject_2stim_asymm_v5,2020.2.10,Win32,60,61025ae37ef11b136ea224fe,,,,,,,,,2523,43.33337402,70,1,0,0,response1disk,,7,12.66668701,-6.666687012,1,0,0,rectangle,12.66668701,-6.666687012,1,0,0,12.66668701,-6.666687012,1,0,0,1,27,187,13,1,,,,,,,,
,,,,,,,,,,,,,FF,,,,,,,,0.0515,,,,,,,,,,,,,,,,,,,,,,60fdd47cb6da7411e888e23c,61036dd7292d5a54a075b625,2021-07-29_22h12.00.124,Simcolourproject_2stim_asymm_v5,2020.2.10,Win32,60,61025ae37ef11b136ea224fe,,,,,,,,,2446,42,59.33331299,1,0,0,response1disk,,7,16.66668701,-10,1,0,0,rectangle,16.66668701,-10,1,0,0,16.66668701,-10,1,0,0,1,28,188,153,1,,,,,,,,
,,,,,,,,,,,,,FF,,,,,,,,0.0478,,,,,,,,,,,,,,,,,,,,,,60fdd47cb6da7411e888e23c,61036dd7292d5a54a075b625,2021-07-29_22h12.00.124,Simcolourproject_2stim_asymm_v5,2020.2.10,Win32,60,61025ae37ef11b136ea224fe,,,,,,,,,3803,46,55.33331299,1,0,0,response1disk,,7,16.66668701,-2,1,0,0,rectangle,16.66668701,-2,1,0,0,16.66668701,-2,1,0,0,1,29,189,27,1,,,,,,,,
,,,,,,,,,,,,,FF,,,,,,,,0.204,,,,,,,,,,,,,,,,,,,,,,60fdd47cb6da7411e888e23c,61036dd7292d5a54a075b625,2021-07-29_22h12.00.124,Simcolourproject_2stim_asymm_v5,2020.2.10,Win32,60,61025ae37ef11b136ea224fe,,,,,,,,,1370,43.33337402,71.33331299,1,0,0,response1disk,,7,18.66668701,-1.333343506,1,0,0,rectangle,18.66668701,-1.333343506,1,0,0,18.66668701,-1.333343506,1,0,0,1,30,190,44,1,,,,,,,,
,,,,,,,,,,,,,FF,,,,,,,,0.1004,,,,,,,,,,,,,,,,,,,,,,60fdd47cb6da7411e888e23c,61036dd7292d5a54a075b625,2021-07-29_22h12.00.124,Simcolourproject_2stim_asymm_v5,2020.2.10,Win32,60,61025ae37ef11b136ea224fe,,,,,,,,,878,44.66668701,64.66665649,1,0,0,response1disk,,7,12.66668701,-5.333343506,1,0,0,rectangle,12.66668701,-5.333343506,1,0,0,12.66668701,-5.333343506,1,0,0,1,31,191,60,1,,,,,,,,
,,,,,,,,,,,,,FF,,,,,,,,0.1508,,,,,,,,,,,,,,,,,,,,,,60fdd47cb6da7411e888e23c,61036dd7292d5a54a075b625,2021-07-29_22h12.00.124,Simcolourproject_2stim_asymm_v5,2020.2.10,Win32,60,61025ae37ef11b136ea224fe,,,,,,,,,4178,47.33337402,64,1,0,0,response1disk,,7,16.66668701,-3.333343506,1,0,0,rectangle,16.66668701,-3.333343506,1,0,0,16.66668701,-3.333343506,1,0,0,1,32,192,112,1,,,,,,,,
,,,,,,,,,,,,,FF,,,,,,,,0.1061,,,,,,,,,,,,,,,,,,,,,,60fdd47cb6da7411e888e23c,61036dd7292d5a54a075b625,2021-07-29_22h12.00.124,Simcolourproject_2stim_asymm_v5,2020.2.10,Win32,60,61025ae37ef11b136ea224fe,,,,,,,,,189,41.33337402,58.66665649,1,0,0,response1disk,,7,18,-0.666687012,1,0,0,rectangle,18,-0.666687012,1,0,0,18,-0.666687012,1,0,0,1,33,193,78,1,,,,,,,,
,,,,,,,,,,,,,FF,,,,,,,,0.1167,,,,,,,,,,,,,,,,,,,,,,60fdd47cb6da7411e888e23c,61036dd7292d5a54a075b625,2021-07-29_22h12.00.124,Simcolourproject_2stim_asymm_v5,2020.2.10,Win32,60,61025ae37ef11b136ea224fe,,,,,,,,,1541,43.33337402,58,1,0,0,response1disk,,7,17.33337402,-3.333343506,1,0,0,rectangle,17.33337402,-3.333343506,1,0,0,17.33337402,-3.333343506,1,0,0,1,34,194,1,1,,,,,,,,
,,,,,,,,,,,,,FF,,,,,,,,0.0314,,,,,,,,,,,,,,,,,,,,,,60fdd47cb6da7411e888e23c,61036dd7292d5a54a075b625,2021-07-29_22h12.00.124,Simcolourproject_2stim_asymm_v5,2020.2.10,Win32,60,61025ae37ef11b136ea224fe,,,,,,,,,1374,46.66668701,57.33331299,1,0,0,response1disk,,7,24,-6,1,0,0,rectangle,24,-6,1,0,0,24,-6,1,0,0,1,35,195,72,1,,,,,,,,
,,,,,,,,,,,,,FF,,,,,,,,0.081,,,,,,,,,,,,,,,,,,,,,,60fdd47cb6da7411e888e23c,61036dd7292d5a54a075b625,2021-07-29_22h12.00.124,Simcolourproject_2stim_asymm_v5,2020.2.10,Win32,60,61025ae37ef11b136ea224fe,,,,,,,,,3767,42,47.33331299,1,0,0,response1disk,,7,18,-2.666687012,1,0,0,rectangle,18,-2.666687012,1,0,0,18,-2.666687012,1,0,0,1,36,196,50,1,,,,,,,,
,,,,,,,,,,,,,FF,,,,,,,,0.1002,,,,,,,,,,,,,,,,,,,,,,60fdd47cb6da7411e888e23c,61036dd7292d5a54a075b625,2021-07-29_22h12.00.124,Simcolourproject_2stim_asymm_v5,2020.2.10,Win32,60,61025ae37ef11b136ea224fe,,,,,,,,,4015,44.66668701,55.33331299,1,0,0,response1disk,,7,18,0,1,0,0,rectangle,18,0,1,0,0,18,0,1,0,0,1,37,197,136,1,,,,,,,,
,,,,,,,,,,,,,FF,,,,,,,,0.1032,,,,,,,,,,,,,,,,,,,,,,60fdd47cb6da7411e888e23c,61036dd7292d5a54a075b625,2021-07-29_22h12.00.124,Simcolourproject_2stim_asymm_v5,2020.2.10,Win32,60,61025ae37ef11b136ea224fe,,,,,,,,,808,47.33337402,70,1,0,0,response1disk,,7,11.33337402,-7.333343506,1,0,0,rectangle,11.33337402,-7.333343506,1,0,0,11.33337402,-7.333343506,1,0,0,1,38,198,23,1,,,,,,,,
,,,,,,,,,,,,,FF,,,,,,,,0.2009,,,,,,,,,,,,,,,,,,,,,,60fdd47cb6da7411e888e23c,61036dd7292d5a54a075b625,2021-07-29_22h12.00.124,Simcolourproject_2stim_asymm_v5,2020.2.10,Win32,60,61025ae37ef11b136ea224fe,,,,,,,,,3091,50.66668701,62.66665649,1,0,0,response1disk,,7,19.33337402,-1.333343506,1,0,0,rectangle,19.33337402,-1.333343506,1,0,0,19.33337402,-1.333343506,1,0,0,1,39,199,140,1,,,,,,,,
,,,,,,,,,,,,,FF,,,,,,,,0.0335,,,,,,,,,,,,,,,,,,,,,,60fdd47cb6da7411e888e23c,61036dd7292d5a54a075b625,2021-07-29_22h12.00.124,Simcolourproject_2stim_asymm_v5,2020.2.10,Win32,60,61025ae37ef11b136ea224fe,,,,,,,,,3369,44,62,1,0,0,response1disk,,7,10,-13.33334351,1,0,0,rectangle,10,-13.33334351,1,0,0,10,-13.33334351,1,0,0,1,40,200,146,1,,,,,,,,
,,,,,,,,,,,,,FF,,,,,,,,0.0837,,,,,,,,,,,,,,,,,,,,,,60fdd47cb6da7411e888e23c,61036dd7292d5a54a075b625,2021-07-29_22h12.00.124,Simcolourproject_2stim_asymm_v5,2020.2.10,Win32,60,61025ae37ef11b136ea224fe,,,,,,,,,759,44.66668701,48.66665649,1,0,0,response1disk,,7,18,-7.333343506,1,0,0,rectangle,18,-7.333343506,1,0,0,18,-7.333343506,1,0,0,1,41,201,62,1,,,,,,,,
,,,,,,,,,,,,,FF,,,,,,,,0.1171,,,,,,,,,,,,,,,,,,,,,,60fdd47cb6da7411e888e23c,61036dd7292d5a54a075b625,2021-07-29_22h12.00.124,Simcolourproject_2stim_asymm_v5,2020.2.10,Win32,60,61025ae37ef11b136ea224fe,,,,,,,,,2463,46,52.66665649,1,0,0,response1disk,,7,14,-6.666687012,1,0,0,rectangle,14,-6.666687012,1,0,0,14,-6.666687012,1,0,0,1,42,202,17,1,,,,,,,,
,,,,,,,,,,,,,FF,,,,,,,,0.1034,,,,,,,,,,,,,,,,,,,,,,60fdd47cb6da7411e888e23c,61036dd7292d5a54a075b625,2021-07-29_22h12.00.124,Simcolourproject_2stim_asymm_v5,2020.2.10,Win32,60,61025ae37ef11b136ea224fe,,,,,,,,,1021,38.66668701,45.33331299,1,0,0,response1disk,,7,12,-7.333343506,1,0,0,rectangle,12,-7.333343506,1,0,0,12,-7.333343506,1,0,0,1,43,203,56,1,,,,,,,,
,,,,,,,,,,,,,FF,,,,,,,,0.1667,,,,,,,,,,,,,,,,,,,,,,60fdd47cb6da7411e888e23c,61036dd7292d5a54a075b625,2021-07-29_22h12.00.124,Simcolourproject_2stim_asymm_v5,2020.2.10,Win32,60,61025ae37ef11b136ea224fe,,,,,,,,,732,41.33337402,54,1,0,0,response1disk,,7,16,-3.333343506,1,0,0,rectangle,16,-3.333343506,1,0,0,16,-3.333343506,1,0,0,1,44,204,0,1,,,,,,,,
,,,,,,,,,,,,,FF,,,,,,,,0.1003,,,,,,,,,,,,,,,,,,,,,,60fdd47cb6da7411e888e23c,61036dd7292d5a54a075b625,2021-07-29_22h12.00.124,Simcolourproject_2stim_asymm_v5,2020.2.10,Win32,60,61025ae37ef11b136ea224fe,,,,,,,,,191,40,47.33331299,1,0,0,response1disk,,7,10.66668701,-6,1,0,0,rectangle,10.66668701,-6,1,0,0,10.66668701,-6,1,0,0,1,45,205,58,1,,,,,,,,
,,,,,,,,,,,,,FF,,,,,,,,0.1196,,,,,,,,,,,,,,,,,,,,,,60fdd47cb6da7411e888e23c,61036dd7292d5a54a075b625,2021-07-29_22h12.00.124,Simcolourproject_2stim_asymm_v5,2020.2.10,Win32,60,61025ae37ef11b136ea224fe,,,,,,,,,2735,40,47.33331299,1,0,0,response1disk,,7,19.33337402,-8,1,0,0,rectangle,19.33337402,-8,1,0,0,19.33337402,-8,1,0,0,1,46,206,35,1,,,,,,,,
,,,,,,,,,,,,,FF,,,,,,,,0.1337,,,,,,,,,,,,,,,,,,,,,,60fdd47cb6da7411e888e23c,61036dd7292d5a54a075b625,2021-07-29_22h12.00.124,Simcolourproject_2stim_asymm_v5,2020.2.10,Win32,60,61025ae37ef11b136ea224fe,,,,,,,,,4312,43.33337402,51.33331299,1,0,0,response1disk,,7,16.66668701,-10,1,0,0,rectangle,16.66668701,-10,1,0,0,16.66668701,-10,1,0,0,1,47,207,73,1,,,,,,,,
,,,,,,,,,,,,,FF,,,,,,,,0.2139,,,,,,,,,,,,,,,,,,,,,,60fdd47cb6da7411e888e23c,61036dd7292d5a54a075b625,2021-07-29_22h12.00.124,Simcolourproject_2stim_asymm_v5,2020.2.10,Win32,60,61025ae37ef11b136ea224fe,,,,,,,,,3124,46,50,1,0,0,response1disk,,7,14.66668701,-10,1,0,0,rectangle,14.66668701,-10,1,0,0,14.66668701,-10,1,0,0,1,48,208,90,1,,,,,,,,
,,,,,,,,,,,,,FF,,,,,,,,0.2695,,,,,,,,,,,,,,,,,,,,,,60fdd47cb6da7411e888e23c,61036dd7292d5a54a075b625,2021-07-29_22h12.00.124,Simcolourproject_2stim_asymm_v5,2020.2.10,Win32,60,61025ae37ef11b136ea224fe,,,,,,,,,3179,37.33337402,51.33331299,1,0,0,response1disk,,7,14.66668701,-2,1,0,0,rectangle,14.66668701,-2,1,0,0,14.66668701,-2,1,0,0,1,49,209,6,1,,,,,,,,
,,,,,,,,,,,,,FF,,,,,,,,0.2474,,,,,,,,,,,,,,,,,,,,,,60fdd47cb6da7411e888e23c,61036dd7292d5a54a075b625,2021-07-29_22h12.00.124,Simcolourproject_2stim_asymm_v5,2020.2.10,Win32,60,61025ae37ef11b136ea224fe,,,,,,,,,4166,40.66668701,58,1,0,0,response1disk,,7,14.66668701,-2.666687012,1,0,0,rectangle,14.66668701,-2.666687012,1,0,0,14.66668701,-2.666687012,1,0,0,1,50,210,24,1,,,,,,,,
,,,,,,,,,,,,,FF,,,,,,,,0.1529,,,,,,,,,,,,,,,,,,,,,,60fdd47cb6da7411e888e23c,61036dd7292d5a54a075b625,2021-07-29_22h12.00.124,Simcolourproject_2stim_asymm_v5,2020.2.10,Win32,60,61025ae37ef11b136ea224fe,,,,,,,,,1499,41.33337402,54.66665649,1,0,0,response1disk,,7,16,1.333312988,1,0,0,rectangle,16,1.333312988,1,0,0,16,1.333312988,1,0,0,1,51,211,120,1,,,,,,,,
,,,,,,,,,,,,,FF,,,,,,,,0.1148,,,,,,,,,,,,,,,,,,,,,,60fdd47cb6da7411e888e23c,61036dd7292d5a54a075b625,2021-07-29_22h12.00.124,Simcolourproject_2stim_asymm_v5,2020.2.10,Win32,60,61025ae37ef11b136ea224fe,,,,,,,,,1104,46,65.33331299,1,0,0,response1disk,,7,20,6,1,0,0,rectangle,20,6,1,0,0,20,6,1,0,0,1,52,212,137,1,,,,,,,,
,,,,,,,,,,,,,FF,,,,,,,,0.0864,,,,,,,,,,,,,,,,,,,,,,60fdd47cb6da7411e888e23c,61036dd7292d5a54a075b625,2021-07-29_22h12.00.124,Simcolourproject_2stim_asymm_v5,2020.2.10,Win32,60,61025ae37ef11b136ea224fe,,,,,,,,,332,44.66668701,66,1,0,0,response1disk,,7,21.33337402,-0.666687012,1,0,0,rectangle,21.33337402,-0.666687012,1,0,0,21.33337402,-0.666687012,1,0,0,1,53,213,31,1,,,,,,,,
,,,,,,,,,,,,,FF,,,,,,,,0.0676,,,,,,,,,,,,,,,,,,,,,,60fdd47cb6da7411e888e23c,61036dd7292d5a54a075b625,2021-07-29_22h12.00.124,Simcolourproject_2stim_asymm_v5,2020.2.10,Win32,60,61025ae37ef11b136ea224fe,,,,,,,,,1848,45.33337402,58.66665649,1,0,0,response1disk,,7,18,-7.333343506,1,0,0,rectangle,18,-7.333343506,1,0,0,18,-7.333343506,1,0,0,1,54,214,125,1,,,,,,,,
,,,,,,,,,,,,,FF,,,,,,,,0.0161,,,,,,,,,,,,,,,,,,,,,,60fdd47cb6da7411e888e23c,61036dd7292d5a54a075b625,2021-07-29_22h12.00.124,Simcolourproject_2stim_asymm_v5,2020.2.10,Win32,60,61025ae37ef11b136ea224fe,,,,,,,,,1667,48.66668701,63.33331299,1,0,0,response1disk,,7,23.33337402,-3.333343506,1,0,0,rectangle,23.33337402,-3.333343506,1,0,0,23.33337402,-3.333343506,1,0,0,1,55,215,82,1,,,,,,,,
,,,,,,,,,,,,,FF,,,,,,,,0.1165,,,,,,,,,,,,,,,,,,,,,,60fdd47cb6da7411e888e23c,61036dd7292d5a54a075b625,2021-07-29_22h12.00.124,Simcolourproject_2stim_asymm_v5,2020.2.10,Win32,60,61025ae37ef11b136ea224fe,,,,,,,,,1493,44.66668701,62.66665649,1,0,0,response1disk,,7,16.66668701,1.333312988,1,0,0,rectangle,34.66668701,44.66665649,1,0,0,14,-7.333343506,1,0,0,1,56,216,132,1,,response1disk_3,TRUE,7,4,"[94,317,97,217,106,316,58,131,100,89,78,178,232,16,34,292,258,290,94,322]",0.3018,rectangle
,,,,,,,,,,,,,FF,,,,,,,,0.2498,,,,,,,,,,,,,,,,,,,,,,60fdd47cb6da7411e888e23c,61036dd7292d5a54a075b625,2021-07-29_22h12.00.124,Simcolourproject_2stim_asymm_v5,2020.2.10,Win32,60,61025ae37ef11b136ea224fe,,,,,,,,,2014,36.66668701,56.66665649,1,0,0,response1disk,,7,16.66668701,1.333312988,1,0,0,rectangle,16.66668701,1.333312988,1,0,0,16.66668701,1.333312988,1,0,0,1,57,217,54,1,,,,,,,,
,,,,,,,,,,,,,FF,,,,,,,,0.0357,,,,,,,,,,,,,,,,,,,,,,60fdd47cb6da7411e888e23c,61036dd7292d5a54a075b625,2021-07-29_22h12.00.124,Simcolourproject_2stim_asymm_v5,2020.2.10,Win32,60,61025ae37ef11b136ea224fe,,,,,,,,,2674,32,41.33331299,1,0,0,response1disk,,7,2.666687012,-6,1,0,0,rectangle,2.666687012,-6,1,0,0,2.666687012,-6,1,0,0,1,58,218,116,1,,,,,,,,
,,,,,,,,,,,,,FF,,,,,,,,3.9672,,,,,,,,,,,,,,,,,,,,,,60fdd47cb6da7411e888e23c,61036dd7292d5a54a075b625,2021-07-29_22h12.00.124,Simcolourproject_2stim_asymm_v5,2020.2.10,Win32,60,61025ae37ef11b136ea224fe,,,,,,,,,1124,43.33337402,54,1,0,0,response1disk,,7,12.66668701,-10,1,0,0,rectangle,12.66668701,-10,1,0,0,12.66668701,-10,1,0,0,1,59,219,87,1,,,,,,,,
,,,,,,,,,,,,,FF,,,,,,,,0.1174,,,,,,,,,,,,,,,,,,,,,,60fdd47cb6da7411e888e23c,61036dd7292d5a54a075b625,2021-07-29_22h12.00.124,Simcolourproject_2stim_asymm_v5,2020.2.10,Win32,60,61025ae37ef11b136ea224fe,,,,,,,,,726,24,32.66665649,1,0,0,response1disk,,7,2,-12.66668701,1,0,0,rectangle,2,-12.66668701,1,0,0,2,-12.66668701,1,0,0,1,60,220,49,1,,,,,,,,
,,,,,,,,,,,,,FF,,,,,,,,0.3525,,,,,,,,,,,,,,,,,,,,,,60fdd47cb6da7411e888e23c,61036dd7292d5a54a075b625,2021-07-29_22h12.00.124,Simcolourproject_2stim_asymm_v5,2020.2.10,Win32,60,61025ae37ef11b136ea224fe,,,,,,,,,1925,44.66668701,58.66665649,1,0,0,response1disk,,7,9.333374023,6,1,0,0,rectangle,9.333374023,6,1,0,0,9.333374023,6,1,0,0,1,61,221,28,1,,,,,,,,
,,,,,,,,,,,,,FF,,,,,,,,0.0648,,,,,,,,,,,,,,,,,,,,,,60fdd47cb6da7411e888e23c,61036dd7292d5a54a075b625,2021-07-29_22h12.00.124,Simcolourproject_2stim_asymm_v5,2020.2.10,Win32,60,61025ae37ef11b136ea224fe,,,,,,,,,1727,34.66668701,60,1,0,0,response1disk,,7,13.33337402,1.333312988,1,0,0,rectangle,13.33337402,1.333312988,1,0,0,13.33337402,1.333312988,1,0,0,1,62,222,59,1,,,,,,,,
,,,,,,,,,,,,,FF,,,,,,,,0.4345,,,,,,,,,,,,,,,,,,,,,,60fdd47cb6da7411e888e23c,61036dd7292d5a54a075b625,2021-07-29_22h12.00.124,Simcolourproject_2stim_asymm_v5,2020.2.10,Win32,60,61025ae37ef11b136ea224fe,,,,,,,,,466,40,72.66665649,1,0,0,response1disk,,7,10,-8.666687012,1,0,0,rectangle,10,-8.666687012,1,0,0,10,-8.666687012,1,0,0,1,63,223,133,1,,,,,,,,
,,,,,,,,,,,,,FF,,,,,,,,0.1177,,,,,,,,,,,,,,,,,,,,,,60fdd47cb6da7411e888e23c,61036dd7292d5a54a075b625,2021-07-29_22h12.00.124,Simcolourproject_2stim_asymm_v5,2020.2.10,Win32,60,61025ae37ef11b136ea224fe,,,,,,,,,2310,40.66668701,50,1,0,0,response1disk,,7,12.66668701,-6,1,0,0,rectangle,12.66668701,-6,1,0,0,12.66668701,-6,1,0,0,1,64,224,4,1,,,,,,,,
,,,,,,,,,,,,,FF,,,,,,,,0.1507,,,,,,,,,,,,,,,,,,,,,,60fdd47cb6da7411e888e23c,61036dd7292d5a54a075b625,2021-07-29_22h12.00.124,Simcolourproject_2stim_asymm_v5,2020.2.10,Win32,60,61025ae37ef11b136ea224fe,,,,,,,,,2909,40.66668701,53.33331299,1,0,0,response1disk,,7,-1.333312988,-6,1,0,0,rectangle,-1.333312988,-6,1,0,0,-1.333312988,-6,1,0,0,1,65,225,93,1,,,,,,,,
,,,,,,,,,,,,,FF,,,,,,,,0.0665,,,,,,,,,,,,,,,,,,,,,,60fdd47cb6da7411e888e23c,61036dd7292d5a54a075b625,2021-07-29_22h12.00.124,Simcolourproject_2stim_asymm_v5,2020.2.10,Win32,60,61025ae37ef11b136ea224fe,,,,,,,,,343,43.33337402,54,1,0,0,response1disk,,7,11.33337402,-9.333343506,1,0,0,rectangle,11.33337402,-9.333343506,1,0,0,11.33337402,-9.333343506,1,0,0,1,66,226,99,1,,,,,,,,
,,,,,,,,,,,,,FF,,,,,,,,0.1005,,,,,,,,,,,,,,,,,,,,,,60fdd47cb6da7411e888e23c,61036dd7292d5a54a075b625,2021-07-29_22h12.00.124,Simcolourproject_2stim_asymm_v5,2020.2.10,Win32,60,61025ae37ef11b136ea224fe,,,,,,,,,2615,47.33337402,52.66665649,1,0,0,response1disk,,7,9.333374023,-12,1,0,0,rectangle,9.333374023,-12,1,0,0,9.333374023,-12,1,0,0,1,67,227,115,1,,,,,,,,
,,,,,,,,,,,,,FF,,,,,,,,0.0812,,,,,,,,,,,,,,,,,,,,,,60fdd47cb6da7411e888e23c,61036dd7292d5a54a075b625,2021-07-29_22h12.00.124,Simcolourproject_2stim_asymm_v5,2020.2.10,Win32,60,61025ae37ef11b136ea224fe,,,,,,,,,3143,40.66668701,44,1,0,0,response1disk,,7,11.33337402,-6.666687012,1,0,0,rectangle,11.33337402,-6.666687012,1,0,0,11.33337402,-6.666687012,1,0,0,1,68,228,108,1,,,,,,,,
,,,,,,,,,,,,,FF,,,,,,,,0.3872,,,,,,,,,,,,,,,,,,,,,,60fdd47cb6da7411e888e23c,61036dd7292d5a54a075b625,2021-07-29_22h12.00.124,Simcolourproject_2stim_asymm_v5,2020.2.10,Win32,60,61025ae37ef11b136ea224fe,,,,,,,,,3126,61.33337402,-39.33334351,1,0,0,response3disk,,5,14,6,1,0,0,rectangle,14,6,1,0,0,14,6,1,0,0,1,69,229,95,1,,,,,,,,
,,,,,,,,,,,,,FF,,,,,,,,0.0677,,,,,,,,,,,,,,,,,,,,,,60fdd47cb6da7411e888e23c,61036dd7292d5a54a075b625,2021-07-29_22h12.00.124,Simcolourproject_2stim_asymm_v5,2020.2.10,Win32,60,61025ae37ef11b136ea224fe,,,,,,,,,3530,-42,-44,1,0,0,response5disk,,3,2,1.333312988,1,0,0,rectangle,2,1.333312988,1,0,0,2,1.333312988,1,0,0,1,70,230,25,1,,,,,,,,
,,,,,,,,,,,,,FF,,,,,,,,0.6181,,,,,,,,,,,,,,,,,,,,,,60fdd47cb6da7411e888e23c,61036dd7292d5a54a075b625,2021-07-29_22h12.00.124,Simcolourproject_2stim_asymm_v5,2020.2.10,Win32,60,61025ae37ef11b136ea224fe,,,,,,,,,3890,-19.33331299,-62.66668701,1,0,0,response5disk,,3,8.666687012,-5.333343506,1,0,0,rectangle,46,-59.33334351,1,0,0,15.33337402,2,1,0,0,1,71,231,74,1,,response3disk_3,TRUE,4,1,"[94,317,97,217,106,316,58,131,100,89,78,178,232,16,34,292,258,290,94,322]",0.4018,rectangle
,,,,,,,,,,,,,FF,,,,,,,,0.4335,,,,,,,,,,,,,,,,,,,,,,60fdd47cb6da7411e888e23c,61036dd7292d5a54a075b625,2021-07-29_22h12.00.124,Simcolourproject_2stim_asymm_v5,2020.2.10,Win32,60,61025ae37ef11b136ea224fe,,,,,,,,,1807,-39.33331299,-50.66668701,1,0,0,response5disk,,3,15.33337402,-4,1,0,0,rectangle,15.33337402,-4,1,0,0,15.33337402,-4,1,0,0,1,72,232,21,1,,,,,,,,
,,,,,,,,,,,,,FF,,,,,,,,0.0995,,,,,,,,,,,,,,,,,,,,,,60fdd47cb6da7411e888e23c,61036dd7292d5a54a075b625,2021-07-29_22h12.00.124,Simcolourproject_2stim_asymm_v5,2020.2.10,Win32,60,61025ae37ef11b136ea224fe,,,,,,,,,3019,70,50,1,0,0,response1disk,,6,-8.666625977,-13.33334351,1,0,0,rectangle,-8.666625977,-13.33334351,1,0,0,-8.666625977,-13.33334351,1,0,0,1,73,233,47,1,,,,,,,,
,,,,,,,,,,,,,FF,,,,,,,,0.3187,,,,,,,,,,,,,,,,,,,,,,60fdd47cb6da7411e888e23c,61036dd7292d5a54a075b625,2021-07-29_22h12.00.124,Simcolourproject_2stim_asymm_v5,2020.2.10,Win32,60,61025ae37ef11b136ea224fe,,,,,,,,,1838,-42,14.66665649,1,0,0,response7disk,,1,-6,-11.33334351,1,0,0,rectangle,-6,-11.33334351,1,0,0,-6,-11.33334351,1,0,0,1,74,234,101,1,,,,,,,,
,,,,,,,,,,,,,FF,,,,,,,,0.0704,,,,,,,,,,,,,,,,,,,,,,60fdd47cb6da7411e888e23c,61036dd7292d5a54a075b625,2021-07-29_22h12.00.124,Simcolourproject_2stim_asymm_v5,2020.2.10,Win32,60,61025ae37ef11b136ea224fe,,,,,,,,,1204,40.66668701,22.66665649,1,0,0,response1disk,,6,5.333374023,-1.333343506,1,0,0,rectangle,5.333374023,-1.333343506,1,0,0,5.333374023,-1.333343506,1,0,0,1,75,235,55,1,,,,,,,,
,,,,,,,,,,,,,FF,,,,,,,,0.4698,,,,,,,,,,,,,,,,,,,,,,60fdd47cb6da7411e888e23c,61036dd7292d5a54a075b625,2021-07-29_22h12.00.124,Simcolourproject_2stim_asymm_v5,2020.2.10,Win32,60,61025ae37ef11b136ea224fe,,,,,,,,,1278,-18,28.66665649,1,0,0,response7disk,,0,18,-11.33334351,1,0,0,rectangle,18,-11.33334351,1,0,0,18,-11.33334351,1,0,0,1,76,236,64,1,,,,,,,,
,,,,,,,,,,,,,FF,,,,,,,,0.8148,,,,,,,,,,,,,,,,,,,,,,60fdd47cb6da7411e888e23c,61036dd7292d5a54a075b625,2021-07-29_22h12.00.124,Simcolourproject_2stim_asymm_v5,2020.2.10,Win32,60,61025ae37ef11b136ea224fe,,,,,,,,,1078,83.33337402,27.33331299,1,0,0,response1disk,,6,8.666687012,2.666656494,1,0,0,rectangle,8.666687012,2.666656494,1,0,0,8.666687012,2.666656494,1,0,0,1,77,237,117,1,,,,,,,,
,,,,,,,,,,,,,FF,,,,,,,,0.2864,,,,,,,,,,,,,,,,,,,,,,60fdd47cb6da7411e888e23c,61036dd7292d5a54a075b625,2021-07-29_22h12.00.124,Simcolourproject_2stim_asymm_v5,2020.2.10,Win32,60,61025ae37ef11b136ea224fe,,,,,,,,,2933,70.66668701,-58,1,0,0,response3disk,,5,16.66668701,2.666656494,1,0,0,rectangle,16.66668701,2.666656494,1,0,0,16.66668701,2.666656494,1,0,0,1,78,238,91,1,,,,,,,,
,,,,,,,,,,,,,FF,,,,,,,,0.1322,,,,,,,,,,,,,,,,,,,,,,60fdd47cb6da7411e888e23c,61036dd7292d5a54a075b625,2021-07-29_22h12.00.124,Simcolourproject_2stim_asymm_v5,2020.2.10,Win32,60,61025ae37ef11b136ea224fe,,,,,,,,,1934,-52.66662598,-55.33334351,1,0,0,response5disk,,3,8,10,1,0,0,rectangle,8,10,1,0,0,8,10,1,0,0,1,79,239,48,1,,,,,,,,
,,,,,,,,,,,,,FF,,,,,,,,0.1165,,,,,,,,,,,,,,,,,,,,,,60fdd47cb6da7411e888e23c,61036dd7292d5a54a075b625,2021-07-29_22h12.00.124,Simcolourproject_2stim_asymm_v5,2020.2.10,Win32,60,61025ae37ef11b136ea224fe,,,,,,,,,310,67.33337402,-42.66668701,1,0,0,response3disk,,5,4,-6,1,0,0,rectangle,4,-6,1,0,0,4,-6,1,0,0,1,80,240,22,1,,,,,,,,
,,,,,,,,,,,,,FF,,,,,,,,0.3333,,,,,,,,,,,,,,,,,,,,,,60fdd47cb6da7411e888e23c,61036dd7292d5a54a075b625,2021-07-29_22h12.00.124,Simcolourproject_2stim_asymm_v5,2020.2.10,Win32,60,61025ae37ef11b136ea224fe,,,,,,,,,1497,-59.33331299,22.66665649,1,0,0,response7disk,,1,20,-12.66668701,1,0,0,rectangle,20,-12.66668701,1,0,0,20,-12.66668701,1,0,0,1,81,241,84,1,,,,,,,,
,,,,,,,,,,,,,FF,,,,,,,,0.1179,,,,,,,,,,,,,,,,,,,,,,60fdd47cb6da7411e888e23c,61036dd7292d5a54a075b625,2021-07-29_22h12.00.124,Simcolourproject_2stim_asymm_v5,2020.2.10,Win32,60,61025ae37ef11b136ea224fe,,,,,,,,,838,76,29.33331299,1,0,0,response1disk,,6,5.333374023,-8,1,0,0,rectangle,5.333374023,-8,1,0,0,5.333374023,-8,1,0,0,1,82,242,3,1,,,,,,,,
,,,,,,,,,,,,,FF,,,,,,,,0.1333,,,,,,,,,,,,,,,,,,,,,,60fdd47cb6da7411e888e23c,61036dd7292d5a54a075b625,2021-07-29_22h12.00.124,Simcolourproject_2stim_asymm_v5,2020.2.10,Win32,60,61025ae37ef11b136ea224fe,,,,,,,,,2312,85.33337402,32.66665649,1,0,0,response1disk,,6,4.666687012,-6,1,0,0,rectangle,4.666687012,-6,1,0,0,4.666687012,-6,1,0,0,1,83,243,96,1,,,,,,,,
,,,,,,,,,,,,,FF,,,,,,,,0.1531,,,,,,,,,,,,,,,,,,,,,,60fdd47cb6da7411e888e23c,61036dd7292d5a54a075b625,2021-07-29_22h12.00.124,Simcolourproject_2stim_asymm_v5,2020.2.10,Win32,60,61025ae37ef11b136ea224fe,,,,,,,,,1522,-43.33331299,-56.66668701,1,0,0,response5disk,,3,18.66668701,0.666656494,1,0,0,rectangle,18.66668701,0.666656494,1,0,0,18.66668701,0.666656494,1,0,0,1,84,244,80,1,,,,,,,,
,,,,,,,,,,,,,FF,,,,,,,,0.1467,,,,,,,,,,,,,,,,,,,,,,60fdd47cb6da7411e888e23c,61036dd7292d5a54a075b625,2021-07-29_22h12.00.124,Simcolourproject_2stim_asymm_v5,2020.2.10,Win32,60,61025ae37ef11b136ea224fe,,,,,,,,,2040,66.66668701,-60.66668701,1,0,0,response3disk,,5,12,-10.66668701,1,0,0,rectangle,12,-10.66668701,1,0,0,12,-10.66668701,1,0,0,1,85,245,19,1,,,,,,,,
,,,,,,,,,,,,,FF,,,,,,,,0.3808,,,,,,,,,,,,,,,,,,,,,,60fdd47cb6da7411e888e23c,61036dd7292d5a54a075b625,2021-07-29_22h12.00.124,Simcolourproject_2stim_asymm_v5,2020.2.10,Win32,60,61025ae37ef11b136ea224fe,,,,,,,,,981,-36.66662598,-67.33334351,1,0,0,response5disk,,3,8.666687012,-2.666687012,1,0,0,rectangle,8.666687012,-2.666687012,1,0,0,8.666687012,-2.666687012,1,0,0,1,86,246,110,1,,,,,,,,
,,,,,,,,,,,,,FF,,,,,,,,0.2507,,,,,,,,,,,,,,,,,,,,,,60fdd47cb6da7411e888e23c,61036dd7292d5a54a075b625,2021-07-29_22h12.00.124,Simcolourproject_2stim_asymm_v5,2020.2.10,Win32,60,61025ae37ef11b136ea224fe,,,,,,,,,3098,85.33337402,37.33331299,1,0,0,response1disk,,6,2,-9.333343506,1,0,0,rectangle,2,-9.333343506,1,0,0,2,-9.333343506,1,0,0,1,87,247,103,1,,,,,,,,
,,,,,,,,,,,,,FF,,,,,,,,0.3306,,,,,,,,,,,,,,,,,,,,,,60fdd47cb6da7411e888e23c,61036dd7292d5a54a075b625,2021-07-29_22h12.00.124,Simcolourproject_2stim_asymm_v5,2020.2.10,Win32,60,61025ae37ef11b136ea224fe,,,,,,,,,1901,63.33337402,-54.66668701,1,0,0,response3disk,,5,12,8.666656494,1,0,0,rectangle,12,8.666656494,1,0,0,12,8.666656494,1,0,0,1,88,248,71,1,,,,,,,,
,,,,,,,,,,,,,FF,,,,,,,,0.3534,,,,,,,,,,,,,,,,,,,,,,60fdd47cb6da7411e888e23c,61036dd7292d5a54a075b625,2021-07-29_22h12.00.124,Simcolourproject_2stim_asymm_v5,2020.2.10,Win32,60,61025ae37ef11b136ea224fe,,,,,,,,,2252,-38.66662598,-54,1,0,0,response5disk,,3,0,9.333312988,1,0,0,rectangle,0,9.333312988,1,0,0,0,9.333312988,1,0,0,1,89,249,144,1,,,,,,,,
,,,,,,,,,,,,,FF,,,,,,,,0.3833,,,,,,,,,,,,,,,,,,,,,,60fdd47cb6da7411e888e23c,61036dd7292d5a54a075b625,2021-07-29_22h12.00.124,Simcolourproject_2stim_asymm_v5,2020.2.10,Win32,60,61025ae37ef11b136ea224fe,,,,,,,,,1309,-37.33331299,-44,1,0,0,response5disk,,3,4,6.666656494,1,0,0,rectangle,4,6.666656494,1,0,0,4,6.666656494,1,0,0,1,90,250,37,1,,,,,,,,
,,,,,,,,,,,,,FF,,,,,,,,0.3643,,,,,,,,,,,,,,,,,,,,,,60fdd47cb6da7411e888e23c,61036dd7292d5a54a075b625,2021-07-29_22h12.00.124,Simcolourproject_2stim_asymm_v5,2020.2.10,Win32,60,61025ae37ef11b136ea224fe,,,,,,,,,66,-39.33331299,-49.33334351,1,0,0,response5disk,,3,-14,-10,1,0,0,rectangle,-14,-10,1,0,0,-14,-10,1,0,0,1,91,251,92,1,,,,,,,,
,,,,,,,,,,,,,FF,,,,,,,,0.8505,,,,,,,,,,,,,,,,,,,,,,60fdd47cb6da7411e888e23c,61036dd7292d5a54a075b625,2021-07-29_22h12.00.124,Simcolourproject_2stim_asymm_v5,2020.2.10,Win32,60,61025ae37ef11b136ea224fe,,,,,,,,,3000,-52,29.33331299,1,0,0,response7disk,,1,18,6,1,0,0,rectangle,18,6,1,0,0,18,6,1,0,0,1,92,252,135,1,,,,,,,,
,,,,,,,,,,,,,FF,,,,,,,,0.8185,,,,,,,,,,,,,,,,,,,,,,60fdd47cb6da7411e888e23c,61036dd7292d5a54a075b625,2021-07-29_22h12.00.124,Simcolourproject_2stim_asymm_v5,2020.2.10,Win32,60,61025ae37ef11b136ea224fe,,,,,,,,,1023,55.33337402,36.66665649,1,0,0,response1disk,,6,6.666687012,-6.666687012,1,0,0,rectangle,6.666687012,-6.666687012,1,0,0,6.666687012,-6.666687012,1,0,0,1,93,253,97,1,,,,,,,,
,,,,,,,,,,,,,FF,,,,,,,,0.7177,,,,,,,,,,,,,,,,,,,,,,60fdd47cb6da7411e888e23c,61036dd7292d5a54a075b625,2021-07-29_22h12.00.124,Simcolourproject_2stim_asymm_v5,2020.2.10,Win32,60,61025ae37ef11b136ea224fe,,,,,,,,,72,-44.66662598,30,1,0,0,response7disk,,1,4.666687012,-13.33334351,1,0,0,rectangle,4.666687012,-13.33334351,1,0,0,4.666687012,-13.33334351,1,0,0,1,94,254,2,1,,,,,,,,
,,,,,,,,,,,,,FF,,,,,,,,0.5691,,,,,,,,,,,,,,,,,,,,,,60fdd47cb6da7411e888e23c,61036dd7292d5a54a075b625,2021-07-29_22h12.00.124,Simcolourproject_2stim_asymm_v5,2020.2.10,Win32,60,61025ae37ef11b136ea224fe,,,,,,,,,2173,46.66668701,32.66665649,1,0,0,response1disk,,6,4,-2.666687012,1,0,0,rectangle,4,-2.666687012,1,0,0,4,-2.666687012,1,0,0,1,95,255,63,1,,,,,,,,
,,,,,,,,,,,,,FF,,,,,,,,0.4356,,,,,,,,,,,,,,,,,,,,,,60fdd47cb6da7411e888e23c,61036dd7292d5a54a075b625,2021-07-29_22h12.00.124,Simcolourproject_2stim_asymm_v5,2020.2.10,Win32,60,61025ae37ef11b136ea224fe,,,,,,,,,2372,23.33337402,34,1,0,0,response1disk,,7,-1.333312988,-4,1,0,0,rectangle,-1.333312988,-4,1,0,0,-1.333312988,-4,1,0,0,1,96,256,9,1,,,,,,,,
