key_resp.keys,key_resp.rt,key_resp_14.keys,key_resp_14.rt,key_resp_15.keys,key_resp_15.rt,key_resp_17.keys,key_resp_17.rt,key_resp_9.keys,key_resp_9.rt,key_resp_10.keys,key_resp_10.rt,practice_comparison,Ecc,mouse_5.x,mouse_5.y,mouse_5.leftButton,mouse_5.midButton,mouse_5.rightButton,mouse_5.clicked_name,pracsimilarity,response_time,mouse_10.x,mouse_10.y,mouse_10.leftButton,mouse_10.midButton,mouse_10.rightButton,mouse_10.clicked_name,mouse_7.x,mouse_7.y,mouse_7.leftButton,mouse_7.midButton,mouse_7.rightButton,mouse_6.x,mouse_6.y,mouse_6.leftButton,mouse_6.midButton,mouse_6.rightButton,duringprac.thisRepN,duringprac.thisTrialN,duringprac.thisN,duringprac.thisIndex,duringprac.ran,participant,session,date,expName,psychopyVersion,OS,frameRate,study_id,mouse_7.clicked_name,catchpracsimilarity,catch_response_time,catchnumberprac,catchtrialorderprac,mouse_6.clicked_name,key_resp_22.keys,key_resp_22.rt,realcomparison,mouse.x,mouse.y,mouse.leftButton,mouse.midButton,mouse.rightButton,mouse.clicked_name,Colour2,similarity,mouse_2.x,mouse_2.y,mouse_2.leftButton,mouse_2.midButton,mouse_2.rightButton,mouse_2.clicked_name,mouse_3.x,mouse_3.y,mouse_3.leftButton,mouse_3.midButton,mouse_3.rightButton,mouse_11.x,mouse_11.y,mouse_11.leftButton,mouse_11.midButton,mouse_11.rightButton,trials_2.thisRepN,trials_2.thisTrialN,trials_2.thisN,trials_2.thisIndex,trials_2.ran,Colour1,mouse_3.clicked_name,catchornah,catchsimilarity,catchnumber,catchtrialorder,catchRT,mouse_11.clicked_name
space,1.301,space,10.5703,space,8.6495,space,2.372,space,1.0742,space,3.6467,50,PF,-37.26940918,99.15658569,1,0,0,response7disk_5,0,3.7357,-4.426757813,-12.10546875,1,0,0,rectangle_8,-4.426757813,-12.10546875,1,0,0,-4.426757813,-12.10546875,1,0,0,0,0,0,1,1,60fd5ff30bc43791db242818,61036e246c80f4089f7f1147,2021-07-29_20h13.41.451,Simcolourproject_2stim_asymm_v5,2020.2.10,MacIntel,60,61025ae37ef11b136ea224fe,,,,,,,,,,,,,,,,,,,,,,,,,,,,,,,,,,,,,,,,,,,,,,
,,,,,,,,,,,,117,PF,43.06292725,-77.32348633,1,0,0,response3disk_5,4,4.4324,-1.931762695,3.800628662,1,0,0,rectangle_8,98.27349854,59.0960083,1,0,0,-10.96356201,-8.377746582,1,0,0,0,1,1,2,1,60fd5ff30bc43791db242818,61036e246c80f4089f7f1147,2021-07-29_20h13.41.451,Simcolourproject_2stim_asymm_v5,2020.2.10,MacIntel,60,61025ae37ef11b136ea224fe,response1disk_7,6,2.7337,6,"[2,5]",rectangle_4,,,,,,,,,,,,,,,,,,,,,,,,,,,,,,,,,,,,,,,,
,,,,,,,,,,,,136,PF,-54.62194824,88.85723877,1,0,0,response7disk_5,0,1.699,2.063903809,4.334533691,1,0,0,rectangle_8,2.063903809,4.334533691,1,0,0,2.063903809,4.334533691,1,0,0,0,2,2,4,1,60fd5ff30bc43791db242818,61036e246c80f4089f7f1147,2021-07-29_20h13.41.451,Simcolourproject_2stim_asymm_v5,2020.2.10,MacIntel,60,61025ae37ef11b136ea224fe,,,,,,,,,,,,,,,,,,,,,,,,,,,,,,,,,,,,,,,,,,,,,,
,,,,,,,,,,,,142,FF,-35.87683105,-82.66546631,1,0,0,response5disk_5,3,3.2168,1.635986328,-0.844543457,1,0,0,rectangle_8,1.635986328,-0.844543457,1,0,0,1.635986328,-0.844543457,1,0,0,0,3,3,5,1,60fd5ff30bc43791db242818,61036e246c80f4089f7f1147,2021-07-29_20h13.41.451,Simcolourproject_2stim_asymm_v5,2020.2.10,MacIntel,60,61025ae37ef11b136ea224fe,,,,,,,,,,,,,,,,,,,,,,,,,,,,,,,,,,,,,,,,,,,,,,
,,,,,,,,,,,,112,PF,56.39910889,82.08795166,1,0,0,response1disk_5,7,1.8988,-9.718505859,1.442932129,1,0,0,rectangle_8,86.37597656,37.99035645,1,0,0,8.112731934,-7.580291748,1,0,0,0,4,4,6,1,60fd5ff30bc43791db242818,61036e246c80f4089f7f1147,2021-07-29_20h13.41.451,Simcolourproject_2stim_asymm_v5,2020.2.10,MacIntel,60,61025ae37ef11b136ea224fe,response1disk_7,6,2.1167,6,"[2,5]",rectangle_4,,,,,,,,,,,,,,,,,,,,,,,,,,,,,,,,,,,,,,,,
,,,,,,,,,,,,36,FF,84.14935303,-26.3074646,1,0,0,response3disk_5,5,2.3519,4.349914551,1.839080811,1,0,0,rectangle_8,4.349914551,1.839080811,1,0,0,4.349914551,1.839080811,1,0,0,0,5,5,3,1,60fd5ff30bc43791db242818,61036e246c80f4089f7f1147,2021-07-29_20h13.41.451,Simcolourproject_2stim_asymm_v5,2020.2.10,MacIntel,60,61025ae37ef11b136ea224fe,,,,,,,,,,,,,,,,,,,,,,,,,,,,,,,,,,,,,,,,,,,,,,
,,,,,,,,,,,,137,FF,82.33026123,-54.99493408,1,0,0,response3disk_5,5,1.1682,-6.14276123,-2.672637939,1,0,0,rectangle_8,-6.14276123,-2.672637939,1,0,0,-6.14276123,-2.672637939,1,0,0,0,6,6,0,1,60fd5ff30bc43791db242818,61036e246c80f4089f7f1147,2021-07-29_20h13.41.451,Simcolourproject_2stim_asymm_v5,2020.2.10,MacIntel,60,61025ae37ef11b136ea224fe,,,,,,,,,,,,,,,,,,,,,,,,,,,,,,,,,,,,,,,,,,,,,,
,,,,,,,,,,,,,FF,,,,,,,,2.0828,,,,,,,,,,,,,,,,,,,,,,60fd5ff30bc43791db242818,61036e246c80f4089f7f1147,2021-07-29_20h13.41.451,Simcolourproject_2stim_asymm_v5,2020.2.10,MacIntel,60,61025ae37ef11b136ea224fe,,,,,,,space,2.9115,3774,45.17547607,-93.52862549,1,0,0,response3disk,,4,2.004638672,9.44128418,1,0,0,rectangle,2.004638672,9.44128418,1,0,0,2.004638672,9.44128418,1,0,0,0,0,0,128,1,,,,,,,,
,,,,,,,,,,,,,FF,,,,,,,,1.083,,,,,,,,,,,,,,,,,,,,,,60fd5ff30bc43791db242818,61036e246c80f4089f7f1147,2021-07-29_20h13.41.451,Simcolourproject_2stim_asymm_v5,2020.2.10,MacIntel,60,61025ae37ef11b136ea224fe,,,,,,,,,238,80.6105957,-48.51620483,1,0,0,response3disk,,5,2.050720215,0.116699219,1,0,0,rectangle,2.050720215,0.116699219,1,0,0,2.050720215,0.116699219,1,0,0,0,1,1,87,1,,,,,,,,
,,,,,,,,,,,,,FF,,,,,,,,1.7502,,,,,,,,,,,,,,,,,,,,,,60fd5ff30bc43791db242818,61036e246c80f4089f7f1147,2021-07-29_20h13.41.451,Simcolourproject_2stim_asymm_v5,2020.2.10,MacIntel,60,61025ae37ef11b136ea224fe,,,,,,,,,1313,-58.77276611,-85.68170166,1,0,0,response5disk,,3,3.420410156,-4.454345703,1,0,0,rectangle,3.420410156,-4.454345703,1,0,0,3.420410156,-4.454345703,1,0,0,0,2,2,31,1,,,,,,,,
,,,,,,,,,,,,,FF,,,,,,,,1.0808,,,,,,,,,,,,,,,,,,,,,,60fd5ff30bc43791db242818,61036e246c80f4089f7f1147,2021-07-29_20h13.41.451,Simcolourproject_2stim_asymm_v5,2020.2.10,MacIntel,60,61025ae37ef11b136ea224fe,,,,,,,,,3052,-42.38598633,-107.2808838,1,0,0,response5disk,,3,6.039428711,-8.390045166,1,0,0,rectangle,6.039428711,-8.390045166,1,0,0,6.039428711,-8.390045166,1,0,0,0,3,3,111,1,,,,,,,,
,,,,,,,,,,,,,FF,,,,,,,,2.6837,,,,,,,,,,,,,,,,,,,,,,60fd5ff30bc43791db242818,61036e246c80f4089f7f1147,2021-07-29_20h13.41.451,Simcolourproject_2stim_asymm_v5,2020.2.10,MacIntel,60,61025ae37ef11b136ea224fe,,,,,,,,,4103,-91.50274658,-40.78067017,1,0,0,response5disk,,2,-10.13220215,13.90808105,1,0,0,rectangle,-10.13220215,13.90808105,1,0,0,-10.13220215,13.90808105,1,0,0,0,4,4,132,1,,,,,,,,
,,,,,,,,,,,,,FF,,,,,,,,1.7171,,,,,,,,,,,,,,,,,,,,,,60fd5ff30bc43791db242818,61036e246c80f4089f7f1147,2021-07-29_20h13.41.451,Simcolourproject_2stim_asymm_v5,2020.2.10,MacIntel,60,61025ae37ef11b136ea224fe,,,,,,,,,2454,85.87023926,-52.65393066,1,0,0,response3disk,,5,8.386169434,-5.455535889,1,0,0,rectangle,8.386169434,-5.455535889,1,0,0,8.386169434,-5.455535889,1,0,0,0,5,5,137,1,,,,,,,,
,,,,,,,,,,,,,FF,,,,,,,,1.2185,,,,,,,,,,,,,,,,,,,,,,60fd5ff30bc43791db242818,61036e246c80f4089f7f1147,2021-07-29_20h13.41.451,Simcolourproject_2stim_asymm_v5,2020.2.10,MacIntel,60,61025ae37ef11b136ea224fe,,,,,,,,,3348,71.07025146,-35.71884155,1,0,0,response3disk,,5,6.985107422,1.514678955,1,0,0,rectangle,6.985107422,1.514678955,1,0,0,6.985107422,1.514678955,1,0,0,0,6,6,20,1,,,,,,,,
,,,,,,,,,,,,,FF,,,,,,,,1.3166,,,,,,,,,,,,,,,,,,,,,,60fd5ff30bc43791db242818,61036e246c80f4089f7f1147,2021-07-29_20h13.41.451,Simcolourproject_2stim_asymm_v5,2020.2.10,MacIntel,60,61025ae37ef11b136ea224fe,,,,,,,,,208,94.99542236,-56.73324585,1,0,0,response3disk,,5,-15.07452393,4.528686523,1,0,0,rectangle,-15.07452393,4.528686523,1,0,0,-15.07452393,4.528686523,1,0,0,0,7,7,101,1,,,,,,,,
,,,,,,,,,,,,,FF,,,,,,,,1.7154,,,,,,,,,,,,,,,,,,,,,,60fd5ff30bc43791db242818,61036e246c80f4089f7f1147,2021-07-29_20h13.41.451,Simcolourproject_2stim_asymm_v5,2020.2.10,MacIntel,60,61025ae37ef11b136ea224fe,,,,,,,,,1737,-50.93841553,-78.4196167,1,0,0,response5disk,,3,7.00213623,-5.380126953,1,0,0,rectangle,7.00213623,-5.380126953,1,0,0,7.00213623,-5.380126953,1,0,0,0,8,8,42,1,,,,,,,,
,,,,,,,,,,,,,FF,,,,,,,,0.9501,,,,,,,,,,,,,,,,,,,,,,60fd5ff30bc43791db242818,61036e246c80f4089f7f1147,2021-07-29_20h13.41.451,Simcolourproject_2stim_asymm_v5,2020.2.10,MacIntel,60,61025ae37ef11b136ea224fe,,,,,,,,,314,68.48516846,-41.67150879,1,0,0,response3disk,,5,-2.782287598,2.278442383,1,0,0,rectangle,-2.782287598,2.278442383,1,0,0,-2.782287598,2.278442383,1,0,0,0,9,9,1,1,,,,,,,,
,,,,,,,,,,,,,FF,,,,,,,,1.2187,,,,,,,,,,,,,,,,,,,,,,60fd5ff30bc43791db242818,61036e246c80f4089f7f1147,2021-07-29_20h13.41.451,Simcolourproject_2stim_asymm_v5,2020.2.10,MacIntel,60,61025ae37ef11b136ea224fe,,,,,,,,,2849,71.31390381,-43.42797852,1,0,0,response3disk,,5,-13.06610107,0.494476318,1,0,0,rectangle,41.9074707,-87.11364746,1,0,0,-2.701171875,4.86819458,1,0,0,0,10,10,50,1,,response3disk_3,TRUE,4,4,"[39,180,219,257,112,239,62,87,162,61,102,297,100,171,101,11,102,120,314,256]",2.4168,rectangle
,,,,,,,,,,,,,FF,,,,,,,,1.2339,,,,,,,,,,,,,,,,,,,,,,60fd5ff30bc43791db242818,61036e246c80f4089f7f1147,2021-07-29_20h13.41.451,Simcolourproject_2stim_asymm_v5,2020.2.10,MacIntel,60,61025ae37ef11b136ea224fe,,,,,,,,,2629,56.62713623,-93.20513916,1,0,0,response3disk,,4,-0.206604004,4.995819092,1,0,0,rectangle,-0.206604004,4.995819092,1,0,0,-0.206604004,4.995819092,1,0,0,0,11,11,136,1,,,,,,,,
,,,,,,,,,,,,,FF,,,,,,,,1.665,,,,,,,,,,,,,,,,,,,,,,60fd5ff30bc43791db242818,61036e246c80f4089f7f1147,2021-07-29_20h13.41.451,Simcolourproject_2stim_asymm_v5,2020.2.10,MacIntel,60,61025ae37ef11b136ea224fe,,,,,,,,,3609,48.02038574,-86.83398438,1,0,0,response3disk,,4,-15.23651123,-0.238525391,1,0,0,rectangle,-15.23651123,-0.238525391,1,0,0,-15.23651123,-0.238525391,1,0,0,0,12,12,78,1,,,,,,,,
,,,,,,,,,,,,,FF,,,,,,,,0.8832,,,,,,,,,,,,,,,,,,,,,,60fd5ff30bc43791db242818,61036e246c80f4089f7f1147,2021-07-29_20h13.41.451,Simcolourproject_2stim_asymm_v5,2020.2.10,MacIntel,60,61025ae37ef11b136ea224fe,,,,,,,,,1644,89.68493652,-43.05157471,1,0,0,response3disk,,5,4.430541992,-2.72567749,1,0,0,rectangle,4.430541992,-2.72567749,1,0,0,4.430541992,-2.72567749,1,0,0,0,13,13,140,1,,,,,,,,
,,,,,,,,,,,,,FF,,,,,,,,1.3666,,,,,,,,,,,,,,,,,,,,,,60fd5ff30bc43791db242818,61036e246c80f4089f7f1147,2021-07-29_20h13.41.451,Simcolourproject_2stim_asymm_v5,2020.2.10,MacIntel,60,61025ae37ef11b136ea224fe,,,,,,,,,1582,40.87640381,-73.60516357,1,0,0,response3disk,,4,-6.512207031,-1.359863281,1,0,0,rectangle,-6.512207031,-1.359863281,1,0,0,-6.512207031,-1.359863281,1,0,0,0,14,14,25,1,,,,,,,,
,,,,,,,,,,,,,FF,,,,,,,,2.3671,,,,,,,,,,,,,,,,,,,,,,60fd5ff30bc43791db242818,61036e246c80f4089f7f1147,2021-07-29_20h13.41.451,Simcolourproject_2stim_asymm_v5,2020.2.10,MacIntel,60,61025ae37ef11b136ea224fe,,,,,,,,,2286,45.88677979,-94.41412354,1,0,0,response3disk,,4,-21.87597656,6.800811768,1,0,0,rectangle,-21.87597656,6.800811768,1,0,0,-21.87597656,6.800811768,1,0,0,0,15,15,129,1,,,,,,,,
,,,,,,,,,,,,,FF,,,,,,,,1.3326,,,,,,,,,,,,,,,,,,,,,,60fd5ff30bc43791db242818,61036e246c80f4089f7f1147,2021-07-29_20h13.41.451,Simcolourproject_2stim_asymm_v5,2020.2.10,MacIntel,60,61025ae37ef11b136ea224fe,,,,,,,,,2667,-72.40209961,40.04147339,1,0,0,response7disk,,1,-6.072875977,0.986602783,1,0,0,rectangle,-6.072875977,0.986602783,1,0,0,-6.072875977,0.986602783,1,0,0,0,16,16,21,1,,,,,,,,
,,,,,,,,,,,,,FF,,,,,,,,1.4859,,,,,,,,,,,,,,,,,,,,,,60fd5ff30bc43791db242818,61036e246c80f4089f7f1147,2021-07-29_20h13.41.451,Simcolourproject_2stim_asymm_v5,2020.2.10,MacIntel,60,61025ae37ef11b136ea224fe,,,,,,,,,1530,-42.76513672,-73.86553955,1,0,0,response5disk,,3,1.872314453,2.306762695,1,0,0,rectangle,1.872314453,2.306762695,1,0,0,1.872314453,2.306762695,1,0,0,0,17,17,112,1,,,,,,,,
,,,,,,,,,,,,,FF,,,,,,,,1.1505,,,,,,,,,,,,,,,,,,,,,,60fd5ff30bc43791db242818,61036e246c80f4089f7f1147,2021-07-29_20h13.41.451,Simcolourproject_2stim_asymm_v5,2020.2.10,MacIntel,60,61025ae37ef11b136ea224fe,,,,,,,,,419,90.32971191,35.82620239,1,0,0,response1disk,,6,4.676269531,-6.873382568,1,0,0,rectangle,4.676269531,-6.873382568,1,0,0,4.676269531,-6.873382568,1,0,0,0,18,18,104,1,,,,,,,,
,,,,,,,,,,,,,FF,,,,,,,,1.2162,,,,,,,,,,,,,,,,,,,,,,60fd5ff30bc43791db242818,61036e246c80f4089f7f1147,2021-07-29_20h13.41.451,Simcolourproject_2stim_asymm_v5,2020.2.10,MacIntel,60,61025ae37ef11b136ea224fe,,,,,,,,,3656,41.42944336,-90.97454834,1,0,0,response3disk,,4,3.454284668,3.39630127,1,0,0,rectangle,3.454284668,3.39630127,1,0,0,3.454284668,3.39630127,1,0,0,0,19,19,126,1,,,,,,,,
,,,,,,,,,,,,,FF,,,,,,,,1.1175,,,,,,,,,,,,,,,,,,,,,,60fd5ff30bc43791db242818,61036e246c80f4089f7f1147,2021-07-29_20h13.41.451,Simcolourproject_2stim_asymm_v5,2020.2.10,MacIntel,60,61025ae37ef11b136ea224fe,,,,,,,,,2875,45.39019775,97.22131348,1,0,0,response1disk,,7,-3.015075684,4.190948486,1,0,0,rectangle,-3.015075684,4.190948486,1,0,0,-3.015075684,4.190948486,1,0,0,0,20,20,67,1,,,,,,,,
,,,,,,,,,,,,,FF,,,,,,,,1.2138,,,,,,,,,,,,,,,,,,,,,,60fd5ff30bc43791db242818,61036e246c80f4089f7f1147,2021-07-29_20h13.41.451,Simcolourproject_2stim_asymm_v5,2020.2.10,MacIntel,60,61025ae37ef11b136ea224fe,,,,,,,,,1549,86.25640869,-59.15878296,1,0,0,response3disk,,5,0.185791016,-5.349060059,1,0,0,rectangle,0.185791016,-5.349060059,1,0,0,0.185791016,-5.349060059,1,0,0,0,21,21,107,1,,,,,,,,
,,,,,,,,,,,,,FF,,,,,,,,1.6318,,,,,,,,,,,,,,,,,,,,,,60fd5ff30bc43791db242818,61036e246c80f4089f7f1147,2021-07-29_20h13.41.451,Simcolourproject_2stim_asymm_v5,2020.2.10,MacIntel,60,61025ae37ef11b136ea224fe,,,,,,,,,888,-96.9520874,-47.75082397,1,0,0,response5disk,,2,-19.16143799,-8.518798828,1,0,0,rectangle,-19.16143799,-8.518798828,1,0,0,-19.16143799,-8.518798828,1,0,0,0,22,22,141,1,,,,,,,,
,,,,,,,,,,,,,FF,,,,,,,,1.1314,,,,,,,,,,,,,,,,,,,,,,60fd5ff30bc43791db242818,61036e246c80f4089f7f1147,2021-07-29_20h13.41.451,Simcolourproject_2stim_asymm_v5,2020.2.10,MacIntel,60,61025ae37ef11b136ea224fe,,,,,,,,,572,81.64483643,-55.08016968,1,0,0,response3disk,,5,12.23022461,4.835632324,1,0,0,rectangle,12.23022461,4.835632324,1,0,0,12.23022461,4.835632324,1,0,0,0,23,23,69,1,,,,,,,,
,,,,,,,,,,,,,FF,,,,,,,,1.066,,,,,,,,,,,,,,,,,,,,,,60fd5ff30bc43791db242818,61036e246c80f4089f7f1147,2021-07-29_20h13.41.451,Simcolourproject_2stim_asymm_v5,2020.2.10,MacIntel,60,61025ae37ef11b136ea224fe,,,,,,,,,697,40.46179199,-77.4319458,1,0,0,response3disk,,4,0.142578125,3.309783936,1,0,0,rectangle,0.142578125,3.309783936,1,0,0,0.142578125,3.309783936,1,0,0,0,24,24,0,1,,,,,,,,
,,,,,,,,,,,,,FF,,,,,,,,1.5664,,,,,,,,,,,,,,,,,,,,,,60fd5ff30bc43791db242818,61036e246c80f4089f7f1147,2021-07-29_20h13.41.451,Simcolourproject_2stim_asymm_v5,2020.2.10,MacIntel,60,61025ae37ef11b136ea224fe,,,,,,,,,694,100.9495239,37.25640869,1,0,0,response1disk,,6,-4.370056152,0.316436768,1,0,0,rectangle,-4.370056152,0.316436768,1,0,0,-4.370056152,0.316436768,1,0,0,0,25,25,61,1,,,,,,,,
,,,,,,,,,,,,,FF,,,,,,,,1.067,,,,,,,,,,,,,,,,,,,,,,60fd5ff30bc43791db242818,61036e246c80f4089f7f1147,2021-07-29_20h13.41.451,Simcolourproject_2stim_asymm_v5,2020.2.10,MacIntel,60,61025ae37ef11b136ea224fe,,,,,,,,,346,-84.02825928,-47.12878418,1,0,0,response5disk,,2,-5.333557129,4.302215576,1,0,0,rectangle,-5.333557129,4.302215576,1,0,0,-5.333557129,4.302215576,1,0,0,0,26,26,144,1,,,,,,,,
,,,,,,,,,,,,,FF,,,,,,,,0.9339,,,,,,,,,,,,,,,,,,,,,,60fd5ff30bc43791db242818,61036e246c80f4089f7f1147,2021-07-29_20h13.41.451,Simcolourproject_2stim_asymm_v5,2020.2.10,MacIntel,60,61025ae37ef11b136ea224fe,,,,,,,,,2080,67.04901123,37.60925293,1,0,0,response1disk,,6,6.146789551,-1.077484131,1,0,0,rectangle,6.146789551,-1.077484131,1,0,0,6.146789551,-1.077484131,1,0,0,0,27,27,23,1,,,,,,,,
,,,,,,,,,,,,,FF,,,,,,,,1.3674,,,,,,,,,,,,,,,,,,,,,,60fd5ff30bc43791db242818,61036e246c80f4089f7f1147,2021-07-29_20h13.41.451,Simcolourproject_2stim_asymm_v5,2020.2.10,MacIntel,60,61025ae37ef11b136ea224fe,,,,,,,,,1470,35.8560791,-81.10314941,1,0,0,response3disk,,4,7.838684082,1.41027832,1,0,0,rectangle,7.838684082,1.41027832,1,0,0,7.838684082,1.41027832,1,0,0,0,28,28,19,1,,,,,,,,
,,,,,,,,,,,,,FF,,,,,,,,1.1653,,,,,,,,,,,,,,,,,,,,,,60fd5ff30bc43791db242818,61036e246c80f4089f7f1147,2021-07-29_20h13.41.451,Simcolourproject_2stim_asymm_v5,2020.2.10,MacIntel,60,61025ae37ef11b136ea224fe,,,,,,,,,2512,88.62304688,31.72335815,1,0,0,response1disk,,6,1.909301758,-0.971984863,1,0,0,rectangle,1.909301758,-0.971984863,1,0,0,1.909301758,-0.971984863,1,0,0,0,29,29,28,1,,,,,,,,
,,,,,,,,,,,,,FF,,,,,,,,1.3011,,,,,,,,,,,,,,,,,,,,,,60fd5ff30bc43791db242818,61036e246c80f4089f7f1147,2021-07-29_20h13.41.451,Simcolourproject_2stim_asymm_v5,2020.2.10,MacIntel,60,61025ae37ef11b136ea224fe,,,,,,,,,3969,-104.4648438,-40.17767334,1,0,0,response5disk,,2,-21.3157959,-2.758270264,1,0,0,rectangle,-21.3157959,-2.758270264,1,0,0,-21.3157959,-2.758270264,1,0,0,0,30,30,8,1,,,,,,,,
,,,,,,,,,,,,,FF,,,,,,,,1.1326,,,,,,,,,,,,,,,,,,,,,,60fd5ff30bc43791db242818,61036e246c80f4089f7f1147,2021-07-29_20h13.41.451,Simcolourproject_2stim_asymm_v5,2020.2.10,MacIntel,60,61025ae37ef11b136ea224fe,,,,,,,,,244,28.61767578,-62.97613525,1,0,0,response3disk,,4,-2.581848145,-4.016235352,1,0,0,rectangle,-2.581848145,-4.016235352,1,0,0,-2.581848145,-4.016235352,1,0,0,0,31,31,108,1,,,,,,,,
,,,,,,,,,,,,,FF,,,,,,,,0.9167,,,,,,,,,,,,,,,,,,,,,,60fd5ff30bc43791db242818,61036e246c80f4089f7f1147,2021-07-29_20h13.41.451,Simcolourproject_2stim_asymm_v5,2020.2.10,MacIntel,60,61025ae37ef11b136ea224fe,,,,,,,,,2330,87.02185059,-16.51791382,1,0,0,response3disk,,5,-0.36315918,-6.202972412,1,0,0,rectangle,-0.36315918,-6.202972412,1,0,0,-0.36315918,-6.202972412,1,0,0,0,32,32,123,1,,,,,,,,
,,,,,,,,,,,,,FF,,,,,,,,2.2887,,,,,,,,,,,,,,,,,,,,,,60fd5ff30bc43791db242818,61036e246c80f4089f7f1147,2021-07-29_20h13.41.451,Simcolourproject_2stim_asymm_v5,2020.2.10,MacIntel,60,61025ae37ef11b136ea224fe,,,,,,,,,501,-72.90869141,-48.4246521,1,0,0,response5disk,,2,7.058898926,-5.6925354,1,0,0,rectangle,7.058898926,-5.6925354,1,0,0,7.058898926,-5.6925354,1,0,0,0,33,33,98,1,,,,,,,,
,,,,,,,,,,,,,FF,,,,,,,,1.1842,,,,,,,,,,,,,,,,,,,,,,60fd5ff30bc43791db242818,61036e246c80f4089f7f1147,2021-07-29_20h13.41.451,Simcolourproject_2stim_asymm_v5,2020.2.10,MacIntel,60,61025ae37ef11b136ea224fe,,,,,,,,,3654,68.93347168,-29.54800415,1,0,0,response3disk,,5,1.146728516,-3.714935303,1,0,0,rectangle,1.146728516,-3.714935303,1,0,0,1.146728516,-3.714935303,1,0,0,0,34,34,103,1,,,,,,,,
,,,,,,,,,,,,,FF,,,,,,,,0.9165,,,,,,,,,,,,,,,,,,,,,,60fd5ff30bc43791db242818,61036e246c80f4089f7f1147,2021-07-29_20h13.41.451,Simcolourproject_2stim_asymm_v5,2020.2.10,MacIntel,60,61025ae37ef11b136ea224fe,,,,,,,,,615,-76.04998779,-38.30117798,1,0,0,response5disk,,2,-14.1940918,-7.022521973,1,0,0,rectangle,-14.1940918,-7.022521973,1,0,0,-14.1940918,-7.022521973,1,0,0,0,35,35,154,1,,,,,,,,
,,,,,,,,,,,,,FF,,,,,,,,0.9842,,,,,,,,,,,,,,,,,,,,,,60fd5ff30bc43791db242818,61036e246c80f4089f7f1147,2021-07-29_20h13.41.451,Simcolourproject_2stim_asymm_v5,2020.2.10,MacIntel,60,61025ae37ef11b136ea224fe,,,,,,,,,3929,46.66986084,-81.85864258,1,0,0,response3disk,,4,3.584533691,6.202545166,1,0,0,rectangle,3.584533691,6.202545166,1,0,0,3.584533691,6.202545166,1,0,0,0,36,36,41,1,,,,,,,,
,,,,,,,,,,,,,FF,,,,,,,,1.1836,,,,,,,,,,,,,,,,,,,,,,60fd5ff30bc43791db242818,61036e246c80f4089f7f1147,2021-07-29_20h13.41.451,Simcolourproject_2stim_asymm_v5,2020.2.10,MacIntel,60,61025ae37ef11b136ea224fe,,,,,,,,,3024,74.12805176,54.76330566,1,0,0,response1disk,,6,2.36529541,4.771270752,1,0,0,rectangle,2.36529541,4.771270752,1,0,0,2.36529541,4.771270752,1,0,0,0,37,37,96,1,,,,,,,,
,,,,,,,,,,,,,FF,,,,,,,,1.1334,,,,,,,,,,,,,,,,,,,,,,60fd5ff30bc43791db242818,61036e246c80f4089f7f1147,2021-07-29_20h13.41.451,Simcolourproject_2stim_asymm_v5,2020.2.10,MacIntel,60,61025ae37ef11b136ea224fe,,,,,,,,,3338,-41.09918213,-81.24609375,1,0,0,response5disk,,3,-1.830383301,-7.362304688,1,0,0,rectangle,-39.36877441,-92.03149414,1,0,0,3.497436523,-9.095489502,1,0,0,0,38,38,37,1,,response5disk_3,TRUE,3,3,"[39,180,219,257,112,239,62,87,162,61,102,297,100,171,101,11,102,120,314,256]",2.3667,rectangle
,,,,,,,,,,,,,FF,,,,,,,,1.134,,,,,,,,,,,,,,,,,,,,,,60fd5ff30bc43791db242818,61036e246c80f4089f7f1147,2021-07-29_20h13.41.451,Simcolourproject_2stim_asymm_v5,2020.2.10,MacIntel,60,61025ae37ef11b136ea224fe,,,,,,,,,3340,-71.67877197,-54.49246216,1,0,0,response5disk,,2,-16.6763916,-10.18438721,1,0,0,rectangle,-16.6763916,-10.18438721,1,0,0,-16.6763916,-10.18438721,1,0,0,0,39,39,4,1,,,,,,,,
,,,,,,,,,,,,,FF,,,,,,,,1.233,,,,,,,,,,,,,,,,,,,,,,60fd5ff30bc43791db242818,61036e246c80f4089f7f1147,2021-07-29_20h13.41.451,Simcolourproject_2stim_asymm_v5,2020.2.10,MacIntel,60,61025ae37ef11b136ea224fe,,,,,,,,,1409,98.41143799,36.74841309,1,0,0,response1disk,,6,15.50561523,-1.53616333,1,0,0,rectangle,15.50561523,-1.53616333,1,0,0,15.50561523,-1.53616333,1,0,0,0,40,40,27,1,,,,,,,,
,,,,,,,,,,,,,FF,,,,,,,,1.8173,,,,,,,,,,,,,,,,,,,,,,60fd5ff30bc43791db242818,61036e246c80f4089f7f1147,2021-07-29_20h13.41.451,Simcolourproject_2stim_asymm_v5,2020.2.10,MacIntel,60,61025ae37ef11b136ea224fe,,,,,,,,,2076,76.51928711,28.51934814,1,0,0,response1disk,,6,18.97558594,16.30075073,1,0,0,rectangle,18.97558594,16.30075073,1,0,0,18.97558594,16.30075073,1,0,0,0,41,41,68,1,,,,,,,,
,,,,,,,,,,,,,FF,,,,,,,,0.8977,,,,,,,,,,,,,,,,,,,,,,60fd5ff30bc43791db242818,61036e246c80f4089f7f1147,2021-07-29_20h13.41.451,Simcolourproject_2stim_asymm_v5,2020.2.10,MacIntel,60,61025ae37ef11b136ea224fe,,,,,,,,,3048,-101.1101074,40.65454102,1,0,0,response7disk,,1,-1.871032715,-1.585754395,1,0,0,rectangle,-1.871032715,-1.585754395,1,0,0,-1.871032715,-1.585754395,1,0,0,0,42,42,12,1,,,,,,,,
,,,,,,,,,,,,,FF,,,,,,,,1.1183,,,,,,,,,,,,,,,,,,,,,,60fd5ff30bc43791db242818,61036e246c80f4089f7f1147,2021-07-29_20h13.41.451,Simcolourproject_2stim_asymm_v5,2020.2.10,MacIntel,60,61025ae37ef11b136ea224fe,,,,,,,,,3723,71.91821289,30.84112549,1,0,0,response1disk,,6,24.63739014,-0.489593506,1,0,0,rectangle,24.63739014,-0.489593506,1,0,0,24.63739014,-0.489593506,1,0,0,0,43,43,125,1,,,,,,,,
,,,,,,,,,,,,,FF,,,,,,,,0.9828,,,,,,,,,,,,,,,,,,,,,,60fd5ff30bc43791db242818,61036e246c80f4089f7f1147,2021-07-29_20h13.41.451,Simcolourproject_2stim_asymm_v5,2020.2.10,MacIntel,60,61025ae37ef11b136ea224fe,,,,,,,,,2170,37.40551758,-80.68878174,1,0,0,response3disk,,4,5.583129883,-4.676544189,1,0,0,rectangle,5.583129883,-4.676544189,1,0,0,5.583129883,-4.676544189,1,0,0,0,44,44,18,1,,,,,,,,
,,,,,,,,,,,,,FF,,,,,,,,1.1174,,,,,,,,,,,,,,,,,,,,,,60fd5ff30bc43791db242818,61036e246c80f4089f7f1147,2021-07-29_20h13.41.451,Simcolourproject_2stim_asymm_v5,2020.2.10,MacIntel,60,61025ae37ef11b136ea224fe,,,,,,,,,328,49.45483398,80.72784424,1,0,0,response1disk,,7,3.694824219,-5.97958374,1,0,0,rectangle,3.694824219,-5.97958374,1,0,0,3.694824219,-5.97958374,1,0,0,0,45,45,48,1,,,,,,,,
,,,,,,,,,,,,,FF,,,,,,,,1.1332,,,,,,,,,,,,,,,,,,,,,,60fd5ff30bc43791db242818,61036e246c80f4089f7f1147,2021-07-29_20h13.41.451,Simcolourproject_2stim_asymm_v5,2020.2.10,MacIntel,60,61025ae37ef11b136ea224fe,,,,,,,,,3143,-42.93109131,-85.85327148,1,0,0,response5disk,,3,3.432800293,-15.2522583,1,0,0,rectangle,3.432800293,-15.2522583,1,0,0,3.432800293,-15.2522583,1,0,0,0,46,46,92,1,,,,,,,,
,,,,,,,,,,,,,FF,,,,,,,,1.2342,,,,,,,,,,,,,,,,,,,,,,60fd5ff30bc43791db242818,61036e246c80f4089f7f1147,2021-07-29_20h13.41.451,Simcolourproject_2stim_asymm_v5,2020.2.10,MacIntel,60,61025ae37ef11b136ea224fe,,,,,,,,,540,79.28790283,49.76519775,1,0,0,response1disk,,6,-1.260864258,-4.617370605,1,0,0,rectangle,-1.260864258,-4.617370605,1,0,0,-1.260864258,-4.617370605,1,0,0,0,47,47,94,1,,,,,,,,
,,,,,,,,,,,,,FF,,,,,,,,1.9501,,,,,,,,,,,,,,,,,,,,,,60fd5ff30bc43791db242818,61036e246c80f4089f7f1147,2021-07-29_20h13.41.451,Simcolourproject_2stim_asymm_v5,2020.2.10,MacIntel,60,61025ae37ef11b136ea224fe,,,,,,,,,1769,47.77380371,-90.23217773,1,0,0,response3disk,,4,-1.023742676,-0.290924072,1,0,0,rectangle,-1.023742676,-0.290924072,1,0,0,-1.023742676,-0.290924072,1,0,0,0,48,48,159,1,,,,,,,,
,,,,,,,,,,,,,FF,,,,,,,,1.0844,,,,,,,,,,,,,,,,,,,,,,60fd5ff30bc43791db242818,61036e246c80f4089f7f1147,2021-07-29_20h13.41.451,Simcolourproject_2stim_asymm_v5,2020.2.10,MacIntel,60,61025ae37ef11b136ea224fe,,,,,,,,,1890,-100.5772095,-46.81008911,1,0,0,response5disk,,2,-17.71630859,4.623626709,1,0,0,rectangle,-17.71630859,4.623626709,1,0,0,-17.71630859,4.623626709,1,0,0,0,49,49,51,1,,,,,,,,
,,,,,,,,,,,,,FF,,,,,,,,0.7502,,,,,,,,,,,,,,,,,,,,,,60fd5ff30bc43791db242818,61036e246c80f4089f7f1147,2021-07-29_20h13.41.451,Simcolourproject_2stim_asymm_v5,2020.2.10,MacIntel,60,61025ae37ef11b136ea224fe,,,,,,,,,2355,-50.55065918,86.00527954,1,0,0,response7disk,,0,-3.763366699,-13.06158447,1,0,0,rectangle,-3.763366699,-13.06158447,1,0,0,-3.763366699,-13.06158447,1,0,0,0,50,50,91,1,,,,,,,,
,,,,,,,,,,,,,FF,,,,,,,,1.3003,,,,,,,,,,,,,,,,,,,,,,60fd5ff30bc43791db242818,61036e246c80f4089f7f1147,2021-07-29_20h13.41.451,Simcolourproject_2stim_asymm_v5,2020.2.10,MacIntel,60,61025ae37ef11b136ea224fe,,,,,,,,,1145,-50.17370605,-70.0513916,1,0,0,response5disk,,3,-3.163635254,-0.020019531,1,0,0,rectangle,-3.163635254,-0.020019531,1,0,0,-3.163635254,-0.020019531,1,0,0,0,51,51,86,1,,,,,,,,
,,,,,,,,,,,,,FF,,,,,,,,1.2522,,,,,,,,,,,,,,,,,,,,,,60fd5ff30bc43791db242818,61036e246c80f4089f7f1147,2021-07-29_20h13.41.451,Simcolourproject_2stim_asymm_v5,2020.2.10,MacIntel,60,61025ae37ef11b136ea224fe,,,,,,,,,470,54.19671631,93.96774292,1,0,0,response1disk,,7,-3.510192871,7.672454834,1,0,0,rectangle,-3.510192871,7.672454834,1,0,0,-3.510192871,7.672454834,1,0,0,0,52,52,17,1,,,,,,,,
,,,,,,,,,,,,,FF,,,,,,,,0.8972,,,,,,,,,,,,,,,,,,,,,,60fd5ff30bc43791db242818,61036e246c80f4089f7f1147,2021-07-29_20h13.41.451,Simcolourproject_2stim_asymm_v5,2020.2.10,MacIntel,60,61025ae37ef11b136ea224fe,,,,,,,,,4210,47.75341797,82.81103516,1,0,0,response1disk,,7,2.476318359,-5.82635498,1,0,0,rectangle,2.476318359,-5.82635498,1,0,0,2.476318359,-5.82635498,1,0,0,0,53,53,22,1,,,,,,,,
,,,,,,,,,,,,,FF,,,,,,,,0.9503,,,,,,,,,,,,,,,,,,,,,,60fd5ff30bc43791db242818,61036e246c80f4089f7f1147,2021-07-29_20h13.41.451,Simcolourproject_2stim_asymm_v5,2020.2.10,MacIntel,60,61025ae37ef11b136ea224fe,,,,,,,,,3515,-36.8449707,-86.18945313,1,0,0,response5disk,,3,4.462646484,6.772247314,1,0,0,rectangle,4.462646484,6.772247314,1,0,0,4.462646484,6.772247314,1,0,0,0,54,54,7,1,,,,,,,,
,,,,,,,,,,,,,FF,,,,,,,,1.2838,,,,,,,,,,,,,,,,,,,,,,60fd5ff30bc43791db242818,61036e246c80f4089f7f1147,2021-07-29_20h13.41.451,Simcolourproject_2stim_asymm_v5,2020.2.10,MacIntel,60,61025ae37ef11b136ea224fe,,,,,,,,,1240,95.92993164,39.02459717,1,0,0,response1disk,,6,14.38726807,5.344360352,1,0,0,rectangle,14.38726807,5.344360352,1,0,0,14.38726807,5.344360352,1,0,0,0,55,55,65,1,,,,,,,,
,,,,,,,,,,,,,FF,,,,,,,,0.9981,,,,,,,,,,,,,,,,,,,,,,60fd5ff30bc43791db242818,61036e246c80f4089f7f1147,2021-07-29_20h13.41.451,Simcolourproject_2stim_asymm_v5,2020.2.10,MacIntel,60,61025ae37ef11b136ea224fe,,,,,,,,,3381,-34.92962646,86.79669189,1,0,0,response7disk,,0,7.029907227,-5.65927124,1,0,0,rectangle,7.029907227,-5.65927124,1,0,0,7.029907227,-5.65927124,1,0,0,0,56,56,150,1,,,,,,,,
,,,,,,,,,,,,,FF,,,,,,,,1.1166,,,,,,,,,,,,,,,,,,,,,,60fd5ff30bc43791db242818,61036e246c80f4089f7f1147,2021-07-29_20h13.41.451,Simcolourproject_2stim_asymm_v5,2020.2.10,MacIntel,60,61025ae37ef11b136ea224fe,,,,,,,,,2542,-94.22888184,39.49551392,1,0,0,response7disk,,1,-16.30053711,4.846801758,1,0,0,rectangle,-16.30053711,4.846801758,1,0,0,-16.30053711,4.846801758,1,0,0,0,57,57,147,1,,,,,,,,
,,,,,,,,,,,,,FF,,,,,,,,1.0329,,,,,,,,,,,,,,,,,,,,,,60fd5ff30bc43791db242818,61036e246c80f4089f7f1147,2021-07-29_20h13.41.451,Simcolourproject_2stim_asymm_v5,2020.2.10,MacIntel,60,61025ae37ef11b136ea224fe,,,,,,,,,1721,86.53485107,41.70251465,1,0,0,response1disk,,6,22.42980957,7.531158447,1,0,0,rectangle,22.42980957,7.531158447,1,0,0,22.42980957,7.531158447,1,0,0,0,58,58,102,1,,,,,,,,
,,,,,,,,,,,,,FF,,,,,,,,0.9498,,,,,,,,,,,,,,,,,,,,,,60fd5ff30bc43791db242818,61036e246c80f4089f7f1147,2021-07-29_20h13.41.451,Simcolourproject_2stim_asymm_v5,2020.2.10,MacIntel,60,61025ae37ef11b136ea224fe,,,,,,,,,3322,82.61590576,37.23666382,1,0,0,response1disk,,6,22.7711792,-12.65805054,1,0,0,rectangle,22.7711792,-12.65805054,1,0,0,22.7711792,-12.65805054,1,0,0,0,59,59,14,1,,,,,,,,
,,,,,,,,,,,,,FF,,,,,,,,0.9999,,,,,,,,,,,,,,,,,,,,,,60fd5ff30bc43791db242818,61036e246c80f4089f7f1147,2021-07-29_20h13.41.451,Simcolourproject_2stim_asymm_v5,2020.2.10,MacIntel,60,61025ae37ef11b136ea224fe,,,,,,,,,4155,109.8424072,58.55233765,1,0,0,response1disk,,6,13.25091553,-1.881408691,1,0,0,rectangle,-53.29907227,92.69128418,1,0,0,-3.414672852,6.463562012,1,0,0,0,60,60,54,1,,response7disk_3,TRUE,0,0,"[39,180,219,257,112,239,62,87,162,61,102,297,100,171,101,11,102,120,314,256]",1.8673,rectangle
,,,,,,,,,,,,,FF,,,,,,,,1.0004,,,,,,,,,,,,,,,,,,,,,,60fd5ff30bc43791db242818,61036e246c80f4089f7f1147,2021-07-29_20h13.41.451,Simcolourproject_2stim_asymm_v5,2020.2.10,MacIntel,60,61025ae37ef11b136ea224fe,,,,,,,,,550,-68.68005371,25.64782715,1,0,0,response7disk,,1,-16.31182861,-4.596099854,1,0,0,rectangle,45.15393066,-88.49133301,1,0,0,1.656066895,11.89300537,1,0,0,0,61,61,153,1,,response3disk_3,TRUE,4,4,"[39,180,219,257,112,239,62,87,162,61,102,297,100,171,101,11,102,120,314,256]",2.1016,rectangle
,,,,,,,,,,,,,FF,,,,,,,,1.1334,,,,,,,,,,,,,,,,,,,,,,60fd5ff30bc43791db242818,61036e246c80f4089f7f1147,2021-07-29_20h13.41.451,Simcolourproject_2stim_asymm_v5,2020.2.10,MacIntel,60,61025ae37ef11b136ea224fe,,,,,,,,,4067,-48.78930664,-74.12097168,1,0,0,response5disk,,3,-10.52874756,-11.546875,1,0,0,rectangle,-10.52874756,-11.546875,1,0,0,-10.52874756,-11.546875,1,0,0,0,62,62,9,1,,,,,,,,
,,,,,,,,,,,,,FF,,,,,,,,1.1008,,,,,,,,,,,,,,,,,,,,,,60fd5ff30bc43791db242818,61036e246c80f4089f7f1147,2021-07-29_20h13.41.451,Simcolourproject_2stim_asymm_v5,2020.2.10,MacIntel,60,61025ae37ef11b136ea224fe,,,,,,,,,979,51.5177002,-81.47583008,1,0,0,response3disk,,4,25.26849365,2.261352539,1,0,0,rectangle,25.26849365,2.261352539,1,0,0,25.26849365,2.261352539,1,0,0,0,63,63,81,1,,,,,,,,
,,,,,,,,,,,,,FF,,,,,,,,1.0539,,,,,,,,,,,,,,,,,,,,,,60fd5ff30bc43791db242818,61036e246c80f4089f7f1147,2021-07-29_20h13.41.451,Simcolourproject_2stim_asymm_v5,2020.2.10,MacIntel,60,61025ae37ef11b136ea224fe,,,,,,,,,1473,28.56628418,81.72512817,1,0,0,response1disk,,7,-12.49359131,0.284759521,1,0,0,rectangle,-12.49359131,0.284759521,1,0,0,-12.49359131,0.284759521,1,0,0,0,64,64,115,1,,,,,,,,
,,,,,,,,,,,,,FF,,,,,,,,1.3848,,,,,,,,,,,,,,,,,,,,,,60fd5ff30bc43791db242818,61036e246c80f4089f7f1147,2021-07-29_20h13.41.451,Simcolourproject_2stim_asymm_v5,2020.2.10,MacIntel,60,61025ae37ef11b136ea224fe,,,,,,,,,3393,-96.21484375,-53.38815308,1,0,0,response5disk,,2,-7.023986816,0.396606445,1,0,0,rectangle,-7.023986816,0.396606445,1,0,0,-7.023986816,0.396606445,1,0,0,0,65,65,114,1,,,,,,,,
,,,,,,,,,,,,,FF,,,,,,,,1.1492,,,,,,,,,,,,,,,,,,,,,,60fd5ff30bc43791db242818,61036e246c80f4089f7f1147,2021-07-29_20h13.41.451,Simcolourproject_2stim_asymm_v5,2020.2.10,MacIntel,60,61025ae37ef11b136ea224fe,,,,,,,,,2981,104.5250244,43.19787598,1,0,0,response1disk,,6,14.02331543,5.919281006,1,0,0,rectangle,14.02331543,5.919281006,1,0,0,14.02331543,5.919281006,1,0,0,0,66,66,116,1,,,,,,,,
,,,,,,,,,,,,,FF,,,,,,,,1.2676,,,,,,,,,,,,,,,,,,,,,,60fd5ff30bc43791db242818,61036e246c80f4089f7f1147,2021-07-29_20h13.41.451,Simcolourproject_2stim_asymm_v5,2020.2.10,MacIntel,60,61025ae37ef11b136ea224fe,,,,,,,,,13,-50.0324707,-82.55725098,1,0,0,response5disk,,3,-2.05847168,-2.845123291,1,0,0,rectangle,-2.05847168,-2.845123291,1,0,0,-2.05847168,-2.845123291,1,0,0,0,67,67,106,1,,,,,,,,
,,,,,,,,,,,,,FF,,,,,,,,0.9838,,,,,,,,,,,,,,,,,,,,,,60fd5ff30bc43791db242818,61036e246c80f4089f7f1147,2021-07-29_20h13.41.451,Simcolourproject_2stim_asymm_v5,2020.2.10,MacIntel,60,61025ae37ef11b136ea224fe,,,,,,,,,4200,-37.89105225,78.54611206,1,0,0,response7disk,,0,10.87036133,0.276550293,1,0,0,rectangle,10.87036133,0.276550293,1,0,0,10.87036133,0.276550293,1,0,0,0,68,68,49,1,,,,,,,,
,,,,,,,,,,,,,FF,,,,,,,,1.6166,,,,,,,,,,,,,,,,,,,,,,60fd5ff30bc43791db242818,61036e246c80f4089f7f1147,2021-07-29_20h13.41.451,Simcolourproject_2stim_asymm_v5,2020.2.10,MacIntel,60,61025ae37ef11b136ea224fe,,,,,,,,,860,41.63885498,-78.98040771,1,0,0,response3disk,,4,6.556518555,-9.398773193,1,0,0,rectangle,6.556518555,-9.398773193,1,0,0,6.556518555,-9.398773193,1,0,0,0,69,69,40,1,,,,,,,,
,,,,,,,,,,,,,FF,,,,,,,,1.0498,,,,,,,,,,,,,,,,,,,,,,60fd5ff30bc43791db242818,61036e246c80f4089f7f1147,2021-07-29_20h13.41.451,Simcolourproject_2stim_asymm_v5,2020.2.10,MacIntel,60,61025ae37ef11b136ea224fe,,,,,,,,,2670,-83.96551514,-29.42572021,1,0,0,response5disk,,2,-21.11199951,-3.059570313,1,0,0,rectangle,-21.11199951,-3.059570313,1,0,0,-21.11199951,-3.059570313,1,0,0,0,70,70,45,1,,,,,,,,
,,,,,,,,,,,,,FF,,,,,,,,0.9826,,,,,,,,,,,,,,,,,,,,,,60fd5ff30bc43791db242818,61036e246c80f4089f7f1147,2021-07-29_20h13.41.451,Simcolourproject_2stim_asymm_v5,2020.2.10,MacIntel,60,61025ae37ef11b136ea224fe,,,,,,,,,3327,74.36016846,31.60128784,1,0,0,response1disk,,6,16.07208252,0.083435059,1,0,0,rectangle,16.07208252,0.083435059,1,0,0,16.07208252,0.083435059,1,0,0,0,71,71,73,1,,,,,,,,
,,,,,,,,,,,,,FF,,,,,,,,1.4509,,,,,,,,,,,,,,,,,,,,,,60fd5ff30bc43791db242818,61036e246c80f4089f7f1147,2021-07-29_20h13.41.451,Simcolourproject_2stim_asymm_v5,2020.2.10,MacIntel,60,61025ae37ef11b136ea224fe,,,,,,,,,1379,33.51159668,-61.3470459,1,0,0,response3disk,,4,4.413635254,5.37411499,1,0,0,rectangle,4.413635254,5.37411499,1,0,0,4.413635254,5.37411499,1,0,0,0,72,72,90,1,,,,,,,,
,,,,,,,,,,,,,FF,,,,,,,,1.1845,,,,,,,,,,,,,,,,,,,,,,60fd5ff30bc43791db242818,61036e246c80f4089f7f1147,2021-07-29_20h13.41.451,Simcolourproject_2stim_asymm_v5,2020.2.10,MacIntel,60,61025ae37ef11b136ea224fe,,,,,,,,,1950,76.37097168,-30.57168579,1,0,0,response3disk,,5,11.94763184,4.618927002,1,0,0,rectangle,11.94763184,4.618927002,1,0,0,11.94763184,4.618927002,1,0,0,0,73,73,71,1,,,,,,,,
,,,,,,,,,,,,,FF,,,,,,,,1.1964,,,,,,,,,,,,,,,,,,,,,,60fd5ff30bc43791db242818,61036e246c80f4089f7f1147,2021-07-29_20h13.41.451,Simcolourproject_2stim_asymm_v5,2020.2.10,MacIntel,60,61025ae37ef11b136ea224fe,,,,,,,,,2937,-33.19818115,-70.18927002,1,0,0,response5disk,,3,6.237060547,-5.330230713,1,0,0,rectangle,6.237060547,-5.330230713,1,0,0,6.237060547,-5.330230713,1,0,0,0,74,74,149,1,,,,,,,,
,,,,,,,,,,,,,FF,,,,,,,,0.9533,,,,,,,,,,,,,,,,,,,,,,60fd5ff30bc43791db242818,61036e246c80f4089f7f1147,2021-07-29_20h13.41.451,Simcolourproject_2stim_asymm_v5,2020.2.10,MacIntel,60,61025ae37ef11b136ea224fe,,,,,,,,,3839,-41.77453613,-70.46661377,1,0,0,response5disk,,3,7.147583008,-6.911712646,1,0,0,rectangle,7.147583008,-6.911712646,1,0,0,7.147583008,-6.911712646,1,0,0,0,75,75,85,1,,,,,,,,
,,,,,,,,,,,,,FF,,,,,,,,1.1622,,,,,,,,,,,,,,,,,,,,,,60fd5ff30bc43791db242818,61036e246c80f4089f7f1147,2021-07-29_20h13.41.451,Simcolourproject_2stim_asymm_v5,2020.2.10,MacIntel,60,61025ae37ef11b136ea224fe,,,,,,,,,1377,52.80267334,-92.55657959,1,0,0,response3disk,,4,3.544311523,16.10253906,1,0,0,rectangle,3.544311523,16.10253906,1,0,0,3.544311523,16.10253906,1,0,0,0,76,76,13,1,,,,,,,,
,,,,,,,,,,,,,FF,,,,,,,,1.4831,,,,,,,,,,,,,,,,,,,,,,60fd5ff30bc43791db242818,61036e246c80f4089f7f1147,2021-07-29_20h13.41.451,Simcolourproject_2stim_asymm_v5,2020.2.10,MacIntel,60,61025ae37ef11b136ea224fe,,,,,,,,,4347,-110.7426147,-39.28646851,1,0,0,response5disk,,2,-21.29486084,-8.134429932,1,0,0,rectangle,-21.29486084,-8.134429932,1,0,0,-21.29486084,-8.134429932,1,0,0,0,77,77,89,1,,,,,,,,
,,,,,,,,,,,,,FF,,,,,,,,1.0686,,,,,,,,,,,,,,,,,,,,,,60fd5ff30bc43791db242818,61036e246c80f4089f7f1147,2021-07-29_20h13.41.451,Simcolourproject_2stim_asymm_v5,2020.2.10,MacIntel,60,61025ae37ef11b136ea224fe,,,,,,,,,2648,65.18353271,40.64517212,1,0,0,response1disk,,6,-7.711303711,1.305847168,1,0,0,rectangle,-7.711303711,1.305847168,1,0,0,-7.711303711,1.305847168,1,0,0,0,78,78,6,1,,,,,,,,
,,,,,,,,,,,,,FF,,,,,,,,0.8671,,,,,,,,,,,,,,,,,,,,,,60fd5ff30bc43791db242818,61036e246c80f4089f7f1147,2021-07-29_20h13.41.451,Simcolourproject_2stim_asymm_v5,2020.2.10,MacIntel,60,61025ae37ef11b136ea224fe,,,,,,,,,1457,49.65301514,-113.21875,1,0,0,response3disk,,4,3.561950684,2.223846436,1,0,0,rectangle,3.561950684,2.223846436,1,0,0,3.561950684,2.223846436,1,0,0,0,79,79,138,1,,,,,,,,
,,,,,,,,,,,,,FF,,,,,,,,0.8831,,,,,,,,,,,,,,,,,,,,,,60fd5ff30bc43791db242818,61036e246c80f4089f7f1147,2021-07-29_20h13.41.451,Simcolourproject_2stim_asymm_v5,2020.2.10,MacIntel,60,61025ae37ef11b136ea224fe,,,,,,,,,1373,-83.66149902,-34.45870972,1,0,0,response5disk,,2,-25.7913208,1.08013916,1,0,0,rectangle,-25.7913208,1.08013916,1,0,0,-25.7913208,1.08013916,1,0,0,0,80,80,135,1,,,,,,,,
,,,,,,,,,,,,,FF,,,,,,,,1.5343,,,,,,,,,,,,,,,,,,,,,,60fd5ff30bc43791db242818,61036e246c80f4089f7f1147,2021-07-29_20h13.41.451,Simcolourproject_2stim_asymm_v5,2020.2.10,MacIntel,60,61025ae37ef11b136ea224fe,,,,,,,,,1200,-29.38409424,-81.10778809,1,0,0,response5disk,,3,17.75335693,5.82144165,1,0,0,rectangle,17.75335693,5.82144165,1,0,0,17.75335693,5.82144165,1,0,0,0,81,81,3,1,,,,,,,,
,,,,,,,,,,,,,FF,,,,,,,,0.9496,,,,,,,,,,,,,,,,,,,,,,60fd5ff30bc43791db242818,61036e246c80f4089f7f1147,2021-07-29_20h13.41.451,Simcolourproject_2stim_asymm_v5,2020.2.10,MacIntel,60,61025ae37ef11b136ea224fe,,,,,,,,,2509,60.24121094,91.6776123,1,0,0,response1disk,,7,12.53704834,6.730133057,1,0,0,rectangle,12.53704834,6.730133057,1,0,0,12.53704834,6.730133057,1,0,0,0,82,82,35,1,,,,,,,,
,,,,,,,,,,,,,FF,,,,,,,,0.901,,,,,,,,,,,,,,,,,,,,,,60fd5ff30bc43791db242818,61036e246c80f4089f7f1147,2021-07-29_20h13.41.451,Simcolourproject_2stim_asymm_v5,2020.2.10,MacIntel,60,61025ae37ef11b136ea224fe,,,,,,,,,1965,-73.83825684,53.90087891,1,0,0,response7disk,,1,6.646179199,6.375213623,1,0,0,rectangle,6.646179199,6.375213623,1,0,0,6.646179199,6.375213623,1,0,0,0,83,83,131,1,,,,,,,,
,,,,,,,,,,,,,FF,,,,,,,,0.8168,,,,,,,,,,,,,,,,,,,,,,60fd5ff30bc43791db242818,61036e246c80f4089f7f1147,2021-07-29_20h13.41.451,Simcolourproject_2stim_asymm_v5,2020.2.10,MacIntel,60,61025ae37ef11b136ea224fe,,,,,,,,,2511,51.85931396,85.637146,1,0,0,response1disk,,7,11.25006104,4.823699951,1,0,0,rectangle,11.25006104,4.823699951,1,0,0,11.25006104,4.823699951,1,0,0,0,84,84,70,1,,,,,,,,
,,,,,,,,,,,,,FF,,,,,,,,0.7336,,,,,,,,,,,,,,,,,,,,,,60fd5ff30bc43791db242818,61036e246c80f4089f7f1147,2021-07-29_20h13.41.451,Simcolourproject_2stim_asymm_v5,2020.2.10,MacIntel,60,61025ae37ef11b136ea224fe,,,,,,,,,968,-47.22442627,80.21881104,1,0,0,response7disk,,0,-1.176391602,4.70614624,1,0,0,rectangle,-1.176391602,4.70614624,1,0,0,-1.176391602,4.70614624,1,0,0,0,85,85,2,1,,,,,,,,
,,,,,,,,,,,,,FF,,,,,,,,1.4159,,,,,,,,,,,,,,,,,,,,,,60fd5ff30bc43791db242818,61036e246c80f4089f7f1147,2021-07-29_20h13.41.451,Simcolourproject_2stim_asymm_v5,2020.2.10,MacIntel,60,61025ae37ef11b136ea224fe,,,,,,,,,3040,-74.20233154,-48.89367676,1,0,0,response5disk,,2,0.209655762,6.431915283,1,0,0,rectangle,82.77478027,55.12515259,1,0,0,12.75115967,-8.057128906,1,0,0,0,86,86,82,1,,response1disk_3,TRUE,6,6,"[39,180,219,257,112,239,62,87,162,61,102,297,100,171,101,11,102,120,314,256]",1.7479,rectangle
,,,,,,,,,,,,,FF,,,,,,,,1.1539,,,,,,,,,,,,,,,,,,,,,,60fd5ff30bc43791db242818,61036e246c80f4089f7f1147,2021-07-29_20h13.41.451,Simcolourproject_2stim_asymm_v5,2020.2.10,MacIntel,60,61025ae37ef11b136ea224fe,,,,,,,,,2559,69.14080811,-40.11898804,1,0,0,response3disk,,5,10.07269287,4.789703369,1,0,0,rectangle,10.07269287,4.789703369,1,0,0,10.07269287,4.789703369,1,0,0,0,87,87,152,1,,,,,,,,
,,,,,,,,,,,,,FF,,,,,,,,0.8329,,,,,,,,,,,,,,,,,,,,,,60fd5ff30bc43791db242818,61036e246c80f4089f7f1147,2021-07-29_20h13.41.451,Simcolourproject_2stim_asymm_v5,2020.2.10,MacIntel,60,61025ae37ef11b136ea224fe,,,,,,,,,2367,-76.22930908,-41.14697266,1,0,0,response5disk,,2,4.334716797,-2.588867188,1,0,0,rectangle,4.334716797,-2.588867188,1,0,0,4.334716797,-2.588867188,1,0,0,0,88,88,139,1,,,,,,,,
,,,,,,,,,,,,,FF,,,,,,,,1.0822,,,,,,,,,,,,,,,,,,,,,,60fd5ff30bc43791db242818,61036e246c80f4089f7f1147,2021-07-29_20h13.41.451,Simcolourproject_2stim_asymm_v5,2020.2.10,MacIntel,60,61025ae37ef11b136ea224fe,,,,,,,,,2470,52.63903809,98.68005371,1,0,0,response1disk,,7,7.755432129,-1.097412109,1,0,0,rectangle,7.755432129,-1.097412109,1,0,0,7.755432129,-1.097412109,1,0,0,0,89,89,53,1,,,,,,,,
,,,,,,,,,,,,,FF,,,,,,,,1.2655,,,,,,,,,,,,,,,,,,,,,,60fd5ff30bc43791db242818,61036e246c80f4089f7f1147,2021-07-29_20h13.41.451,Simcolourproject_2stim_asymm_v5,2020.2.10,MacIntel,60,61025ae37ef11b136ea224fe,,,,,,,,,2397,72.76147461,32.3397522,1,0,0,response1disk,,6,16.87054443,3.944122314,1,0,0,rectangle,16.87054443,3.944122314,1,0,0,16.87054443,3.944122314,1,0,0,0,90,90,133,1,,,,,,,,
,,,,,,,,,,,,,FF,,,,,,,,0.9506,,,,,,,,,,,,,,,,,,,,,,60fd5ff30bc43791db242818,61036e246c80f4089f7f1147,2021-07-29_20h13.41.451,Simcolourproject_2stim_asymm_v5,2020.2.10,MacIntel,60,61025ae37ef11b136ea224fe,,,,,,,,,2225,35.42315674,75.53237915,1,0,0,response1disk,,7,-15.81115723,-10.34588623,1,0,0,rectangle,-15.81115723,-10.34588623,1,0,0,-15.81115723,-10.34588623,1,0,0,0,91,91,59,1,,,,,,,,
,,,,,,,,,,,,,FF,,,,,,,,1.1344,,,,,,,,,,,,,,,,,,,,,,60fd5ff30bc43791db242818,61036e246c80f4089f7f1147,2021-07-29_20h13.41.451,Simcolourproject_2stim_asymm_v5,2020.2.10,MacIntel,60,61025ae37ef11b136ea224fe,,,,,,,,,2416,37.42297363,64.64880371,1,0,0,response1disk,,7,8.520080566,-8.317962646,1,0,0,rectangle,8.520080566,-8.317962646,1,0,0,8.520080566,-8.317962646,1,0,0,0,92,92,5,1,,,,,,,,
,,,,,,,,,,,,,FF,,,,,,,,1.0834,,,,,,,,,,,,,,,,,,,,,,60fd5ff30bc43791db242818,61036e246c80f4089f7f1147,2021-07-29_20h13.41.451,Simcolourproject_2stim_asymm_v5,2020.2.10,MacIntel,60,61025ae37ef11b136ea224fe,,,,,,,,,2544,-40.89605713,-86.12805176,1,0,0,response5disk,,3,11.1751709,-10.23181152,1,0,0,rectangle,11.1751709,-10.23181152,1,0,0,11.1751709,-10.23181152,1,0,0,0,93,93,158,1,,,,,,,,
,,,,,,,,,,,,,FF,,,,,,,,1.0165,,,,,,,,,,,,,,,,,,,,,,60fd5ff30bc43791db242818,61036e246c80f4089f7f1147,2021-07-29_20h13.41.451,Simcolourproject_2stim_asymm_v5,2020.2.10,MacIntel,60,61025ae37ef11b136ea224fe,,,,,,,,,27,41.90863037,82.02264404,1,0,0,response1disk,,7,21.92559814,2.271636963,1,0,0,rectangle,21.92559814,2.271636963,1,0,0,21.92559814,2.271636963,1,0,0,0,94,94,110,1,,,,,,,,
,,,,,,,,,,,,,FF,,,,,,,,0.884,,,,,,,,,,,,,,,,,,,,,,60fd5ff30bc43791db242818,61036e246c80f4089f7f1147,2021-07-29_20h13.41.451,Simcolourproject_2stim_asymm_v5,2020.2.10,MacIntel,60,61025ae37ef11b136ea224fe,,,,,,,,,1695,44.29248047,106.5757141,1,0,0,response1disk,,7,-14.42938232,8.104797363,1,0,0,rectangle,-14.42938232,8.104797363,1,0,0,-14.42938232,8.104797363,1,0,0,0,95,95,55,1,,,,,,,,
,,,,,,,,,,,,,FF,,,,,,,,1.1501,,,,,,,,,,,,,,,,,,,,,,60fd5ff30bc43791db242818,61036e246c80f4089f7f1147,2021-07-29_20h13.41.451,Simcolourproject_2stim_asymm_v5,2020.2.10,MacIntel,60,61025ae37ef11b136ea224fe,,,,,,,,,525,-81.30041504,-34.26947021,1,0,0,response5disk,,2,-18.41918945,-2.444519043,1,0,0,rectangle,-18.41918945,-2.444519043,1,0,0,-18.41918945,-2.444519043,1,0,0,0,96,96,72,1,,,,,,,,
,,,,,,,,,,,,,FF,,,,,,,,0.8665,,,,,,,,,,,,,,,,,,,,,,60fd5ff30bc43791db242818,61036e246c80f4089f7f1147,2021-07-29_20h13.41.451,Simcolourproject_2stim_asymm_v5,2020.2.10,MacIntel,60,61025ae37ef11b136ea224fe,,,,,,,,,2229,-96.07037354,-45.72003174,1,0,0,response5disk,,2,-1.662719727,-8.663879395,1,0,0,rectangle,-1.662719727,-8.663879395,1,0,0,-1.662719727,-8.663879395,1,0,0,0,97,97,93,1,,,,,,,,
,,,,,,,,,,,,,FF,,,,,,,,1.0536,,,,,,,,,,,,,,,,,,,,,,60fd5ff30bc43791db242818,61036e246c80f4089f7f1147,2021-07-29_20h13.41.451,Simcolourproject_2stim_asymm_v5,2020.2.10,MacIntel,60,61025ae37ef11b136ea224fe,,,,,,,,,3632,-27.68383789,-56.69125366,1,0,0,response5disk,,3,-4.48449707,-8.90020752,1,0,0,rectangle,-4.48449707,-8.90020752,1,0,0,-4.48449707,-8.90020752,1,0,0,0,98,98,84,1,,,,,,,,
,,,,,,,,,,,,,FF,,,,,,,,1.2164,,,,,,,,,,,,,,,,,,,,,,60fd5ff30bc43791db242818,61036e246c80f4089f7f1147,2021-07-29_20h13.41.451,Simcolourproject_2stim_asymm_v5,2020.2.10,MacIntel,60,61025ae37ef11b136ea224fe,,,,,,,,,1571,62.58898926,36.53210449,1,0,0,response1disk,,6,15.14447021,0.075469971,1,0,0,rectangle,-44.60760498,-58.37786865,1,0,0,-9.409301758,1.348724365,1,0,0,0,99,99,66,1,,response5disk_3,TRUE,3,3,"[39,180,219,257,112,239,62,87,162,61,102,297,100,171,101,11,102,120,314,256]",1.6335,rectangle
,,,,,,,,,,,,,FF,,,,,,,,1.1499,,,,,,,,,,,,,,,,,,,,,,60fd5ff30bc43791db242818,61036e246c80f4089f7f1147,2021-07-29_20h13.41.451,Simcolourproject_2stim_asymm_v5,2020.2.10,MacIntel,60,61025ae37ef11b136ea224fe,,,,,,,,,2065,41.32202148,-62.61291504,1,0,0,response3disk,,4,-0.924072266,1.030029297,1,0,0,rectangle,90.24890137,-66.17211914,1,0,0,4.440917969,-1.700195313,1,0,0,0,100,100,38,1,,response3disk_3,TRUE,5,5,"[39,180,219,257,112,239,62,87,162,61,102,297,100,171,101,11,102,120,314,256]",2.1164,rectangle
,,,,,,,,,,,,,FF,,,,,,,,1.2997,,,,,,,,,,,,,,,,,,,,,,60fd5ff30bc43791db242818,61036e246c80f4089f7f1147,2021-07-29_20h13.41.451,Simcolourproject_2stim_asymm_v5,2020.2.10,MacIntel,60,61025ae37ef11b136ea224fe,,,,,,,,,1719,62.2434082,-34.29400635,1,0,0,response3disk,,5,1.099365234,-3.497497559,1,0,0,rectangle,-54.20074463,86.12664795,1,0,0,-4.639160156,15.77810669,1,0,0,0,101,101,119,1,,response7disk_3,TRUE,0,0,"[39,180,219,257,112,239,62,87,162,61,102,297,100,171,101,11,102,120,314,256]",1.4175,rectangle
,,,,,,,,,,,,,FF,,,,,,,,1.0663,,,,,,,,,,,,,,,,,,,,,,60fd5ff30bc43791db242818,61036e246c80f4089f7f1147,2021-07-29_20h13.41.451,Simcolourproject_2stim_asymm_v5,2020.2.10,MacIntel,60,61025ae37ef11b136ea224fe,,,,,,,,,3977,-25.69073486,-63.16729736,1,0,0,response5disk,,3,2.766479492,-2.130767822,1,0,0,rectangle,2.766479492,-2.130767822,1,0,0,2.766479492,-2.130767822,1,0,0,0,102,102,97,1,,,,,,,,
,,,,,,,,,,,,,FF,,,,,,,,1.0315,,,,,,,,,,,,,,,,,,,,,,60fd5ff30bc43791db242818,61036e246c80f4089f7f1147,2021-07-29_20h13.41.451,Simcolourproject_2stim_asymm_v5,2020.2.10,MacIntel,60,61025ae37ef11b136ea224fe,,,,,,,,,2041,-98.03845215,-42.2013855,1,0,0,response5disk,,2,-5.48260498,-3.658203125,1,0,0,rectangle,-5.48260498,-3.658203125,1,0,0,-5.48260498,-3.658203125,1,0,0,0,103,103,15,1,,,,,,,,
,,,,,,,,,,,,,FF,,,,,,,,1.0344,,,,,,,,,,,,,,,,,,,,,,60fd5ff30bc43791db242818,61036e246c80f4089f7f1147,2021-07-29_20h13.41.451,Simcolourproject_2stim_asymm_v5,2020.2.10,MacIntel,60,61025ae37ef11b136ea224fe,,,,,,,,,2531,90.15148926,-24.43087769,1,0,0,response3disk,,5,19.84283447,-5.421417236,1,0,0,rectangle,19.84283447,-5.421417236,1,0,0,19.84283447,-5.421417236,1,0,0,0,104,104,34,1,,,,,,,,
,,,,,,,,,,,,,FF,,,,,,,,1.0179,,,,,,,,,,,,,,,,,,,,,,60fd5ff30bc43791db242818,61036e246c80f4089f7f1147,2021-07-29_20h13.41.451,Simcolourproject_2stim_asymm_v5,2020.2.10,MacIntel,60,61025ae37ef11b136ea224fe,,,,,,,,,1993,70.43469238,48.74078369,1,0,0,response1disk,,6,13.24432373,2.542327881,1,0,0,rectangle,13.24432373,2.542327881,1,0,0,13.24432373,2.542327881,1,0,0,0,105,105,95,1,,,,,,,,
,,,,,,,,,,,,,FF,,,,,,,,0.834,,,,,,,,,,,,,,,,,,,,,,60fd5ff30bc43791db242818,61036e246c80f4089f7f1147,2021-07-29_20h13.41.451,Simcolourproject_2stim_asymm_v5,2020.2.10,MacIntel,60,61025ae37ef11b136ea224fe,,,,,,,,,1554,97.83258057,46.0645752,1,0,0,response1disk,,6,23.25152588,0.26852417,1,0,0,rectangle,23.25152588,0.26852417,1,0,0,23.25152588,0.26852417,1,0,0,0,106,106,88,1,,,,,,,,
,,,,,,,,,,,,,FF,,,,,,,,1.3839,,,,,,,,,,,,,,,,,,,,,,60fd5ff30bc43791db242818,61036e246c80f4089f7f1147,2021-07-29_20h13.41.451,Simcolourproject_2stim_asymm_v5,2020.2.10,MacIntel,60,61025ae37ef11b136ea224fe,,,,,,,,,3138,30.63934326,-53.24414063,1,0,0,response3disk,,4,0.64453125,0.203491211,1,0,0,rectangle,0.64453125,0.203491211,1,0,0,0.64453125,0.203491211,1,0,0,0,107,107,148,1,,,,,,,,
,,,,,,,,,,,,,FF,,,,,,,,1.0356,,,,,,,,,,,,,,,,,,,,,,60fd5ff30bc43791db242818,61036e246c80f4089f7f1147,2021-07-29_20h13.41.451,Simcolourproject_2stim_asymm_v5,2020.2.10,MacIntel,60,61025ae37ef11b136ea224fe,,,,,,,,,65,-39.23724365,-74.34710693,1,0,0,response5disk,,3,-11.73339844,-13.4289856,1,0,0,rectangle,-11.73339844,-13.4289856,1,0,0,-11.73339844,-13.4289856,1,0,0,0,108,108,74,1,,,,,,,,
,,,,,,,,,,,,,FF,,,,,,,,0.9667,,,,,,,,,,,,,,,,,,,,,,60fd5ff30bc43791db242818,61036e246c80f4089f7f1147,2021-07-29_20h13.41.451,Simcolourproject_2stim_asymm_v5,2020.2.10,MacIntel,60,61025ae37ef11b136ea224fe,,,,,,,,,2844,-34.41156006,-66.25134277,1,0,0,response5disk,,3,13.3112793,3.370391846,1,0,0,rectangle,13.3112793,3.370391846,1,0,0,13.3112793,3.370391846,1,0,0,0,109,109,56,1,,,,,,,,
,,,,,,,,,,,,,FF,,,,,,,,0.8002,,,,,,,,,,,,,,,,,,,,,,60fd5ff30bc43791db242818,61036e246c80f4089f7f1147,2021-07-29_20h13.41.451,Simcolourproject_2stim_asymm_v5,2020.2.10,MacIntel,60,61025ae37ef11b136ea224fe,,,,,,,,,4257,40.56951904,94.49502563,1,0,0,response1disk,,7,1.421508789,-15.0380249,1,0,0,rectangle,1.421508789,-15.0380249,1,0,0,1.421508789,-15.0380249,1,0,0,0,110,110,36,1,,,,,,,,
,,,,,,,,,,,,,FF,,,,,,,,1.001,,,,,,,,,,,,,,,,,,,,,,60fd5ff30bc43791db242818,61036e246c80f4089f7f1147,2021-07-29_20h13.41.451,Simcolourproject_2stim_asymm_v5,2020.2.10,MacIntel,60,61025ae37ef11b136ea224fe,,,,,,,,,3263,28.74407959,69.37994385,1,0,0,response1disk,,7,10.29162598,3.064147949,1,0,0,rectangle,53.64715576,-24.90383911,1,0,0,23.42169189,-10.35098267,1,0,0,0,111,111,11,1,,response3disk_3,TRUE,5,5,"[39,180,219,257,112,239,62,87,162,61,102,297,100,171,101,11,102,120,314,256]",1.684,rectangle
,,,,,,,,,,,,,FF,,,,,,,,1.0833,,,,,,,,,,,,,,,,,,,,,,60fd5ff30bc43791db242818,61036e246c80f4089f7f1147,2021-07-29_20h13.41.451,Simcolourproject_2stim_asymm_v5,2020.2.10,MacIntel,60,61025ae37ef11b136ea224fe,,,,,,,,,306,40.51849365,67.54602051,1,0,0,response1disk,,7,13.48571777,12.02023315,1,0,0,rectangle,13.48571777,12.02023315,1,0,0,13.48571777,12.02023315,1,0,0,0,112,112,26,1,,,,,,,,
,,,,,,,,,,,,,FF,,,,,,,,1.1513,,,,,,,,,,,,,,,,,,,,,,60fd5ff30bc43791db242818,61036e246c80f4089f7f1147,2021-07-29_20h13.41.451,Simcolourproject_2stim_asymm_v5,2020.2.10,MacIntel,60,61025ae37ef11b136ea224fe,,,,,,,,,4073,-42.65472412,-75.1272583,1,0,0,response5disk,,3,-15.57818604,-1.788452148,1,0,0,rectangle,-15.57818604,-1.788452148,1,0,0,-15.57818604,-1.788452148,1,0,0,0,113,113,121,1,,,,,,,,
,,,,,,,,,,,,,FF,,,,,,,,0.9151,,,,,,,,,,,,,,,,,,,,,,60fd5ff30bc43791db242818,61036e246c80f4089f7f1147,2021-07-29_20h13.41.451,Simcolourproject_2stim_asymm_v5,2020.2.10,MacIntel,60,61025ae37ef11b136ea224fe,,,,,,,,,4000,-75.17938232,33.17486572,1,0,0,response7disk,,1,-8.540161133,-15.67382813,1,0,0,rectangle,-8.540161133,-15.67382813,1,0,0,-8.540161133,-15.67382813,1,0,0,0,114,114,62,1,,,,,,,,
,,,,,,,,,,,,,FF,,,,,,,,0.9681,,,,,,,,,,,,,,,,,,,,,,60fd5ff30bc43791db242818,61036e246c80f4089f7f1147,2021-07-29_20h13.41.451,Simcolourproject_2stim_asymm_v5,2020.2.10,MacIntel,60,61025ae37ef11b136ea224fe,,,,,,,,,2975,68.44549561,40.96942139,1,0,0,response1disk,,6,13.37536621,-0.26260376,1,0,0,rectangle,13.37536621,-0.26260376,1,0,0,13.37536621,-0.26260376,1,0,0,0,115,115,64,1,,,,,,,,
,,,,,,,,,,,,,FF,,,,,,,,1.0511,,,,,,,,,,,,,,,,,,,,,,60fd5ff30bc43791db242818,61036e246c80f4089f7f1147,2021-07-29_20h13.41.451,Simcolourproject_2stim_asymm_v5,2020.2.10,MacIntel,60,61025ae37ef11b136ea224fe,,,,,,,,,1246,40.00274658,-78.53295898,1,0,0,response3disk,,4,13.05169678,8.708343506,1,0,0,rectangle,13.05169678,8.708343506,1,0,0,13.05169678,8.708343506,1,0,0,0,116,116,32,1,,,,,,,,
,,,,,,,,,,,,,FF,,,,,,,,1.134,,,,,,,,,,,,,,,,,,,,,,60fd5ff30bc43791db242818,61036e246c80f4089f7f1147,2021-07-29_20h13.41.451,Simcolourproject_2stim_asymm_v5,2020.2.10,MacIntel,60,61025ae37ef11b136ea224fe,,,,,,,,,3701,25.68096924,-41.19454956,1,0,0,response3disk,,4,10.61102295,6.543609619,1,0,0,rectangle,10.61102295,6.543609619,1,0,0,10.61102295,6.543609619,1,0,0,0,117,117,30,1,,,,,,,,
,,,,,,,,,,,,,FF,,,,,,,,0.9864,,,,,,,,,,,,,,,,,,,,,,60fd5ff30bc43791db242818,61036e246c80f4089f7f1147,2021-07-29_20h13.41.451,Simcolourproject_2stim_asymm_v5,2020.2.10,MacIntel,60,61025ae37ef11b136ea224fe,,,,,,,,,1371,-84.21081543,43.60836792,1,0,0,response7disk,,1,-26.31506348,3.779632568,1,0,0,rectangle,-26.31506348,3.779632568,1,0,0,-26.31506348,3.779632568,1,0,0,0,118,118,127,1,,,,,,,,
,,,,,,,,,,,,,FF,,,,,,,,0.9515,,,,,,,,,,,,,,,,,,,,,,60fd5ff30bc43791db242818,61036e246c80f4089f7f1147,2021-07-29_20h13.41.451,Simcolourproject_2stim_asymm_v5,2020.2.10,MacIntel,60,61025ae37ef11b136ea224fe,,,,,,,,,2591,68.972229,36.75531006,1,0,0,response1disk,,6,20.84576416,4.970062256,1,0,0,rectangle,25.94573975,-59.86032104,1,0,0,4.977233887,1.125488281,1,0,0,0,119,119,100,1,,response3disk_3,TRUE,4,4,"[39,180,219,257,112,239,62,87,162,61,102,297,100,171,101,11,102,120,314,256]",1.499,rectangle
,,,,,,,,,,,,,FF,,,,,,,,1.234,,,,,,,,,,,,,,,,,,,,,,60fd5ff30bc43791db242818,61036e246c80f4089f7f1147,2021-07-29_20h13.41.451,Simcolourproject_2stim_asymm_v5,2020.2.10,MacIntel,60,61025ae37ef11b136ea224fe,,,,,,,,,822,31.9387207,-74.37145996,1,0,0,response3disk,,4,10.60949707,0.144104004,1,0,0,rectangle,10.60949707,0.144104004,1,0,0,10.60949707,0.144104004,1,0,0,0,120,120,33,1,,,,,,,,
,,,,,,,,,,,,,FF,,,,,,,,0.9332,,,,,,,,,,,,,,,,,,,,,,60fd5ff30bc43791db242818,61036e246c80f4089f7f1147,2021-07-29_20h13.41.451,Simcolourproject_2stim_asymm_v5,2020.2.10,MacIntel,60,61025ae37ef11b136ea224fe,,,,,,,,,266,-84.45056152,-61.08007813,1,0,0,response5disk,,2,1.323974609,-8.698577881,1,0,0,rectangle,1.323974609,-8.698577881,1,0,0,1.323974609,-8.698577881,1,0,0,0,121,121,60,1,,,,,,,,
,,,,,,,,,,,,,FF,,,,,,,,0.9014,,,,,,,,,,,,,,,,,,,,,,60fd5ff30bc43791db242818,61036e246c80f4089f7f1147,2021-07-29_20h13.41.451,Simcolourproject_2stim_asymm_v5,2020.2.10,MacIntel,60,61025ae37ef11b136ea224fe,,,,,,,,,1732,65.43414307,34.24938965,1,0,0,response1disk,,6,14.55688477,4.636383057,1,0,0,rectangle,14.55688477,4.636383057,1,0,0,14.55688477,4.636383057,1,0,0,0,122,122,109,1,,,,,,,,
,,,,,,,,,,,,,FF,,,,,,,,1.1332,,,,,,,,,,,,,,,,,,,,,,60fd5ff30bc43791db242818,61036e246c80f4089f7f1147,2021-07-29_20h13.41.451,Simcolourproject_2stim_asymm_v5,2020.2.10,MacIntel,60,61025ae37ef11b136ea224fe,,,,,,,,,2517,42.27850342,-109.0513306,1,0,0,response3disk,,4,8.226135254,-14.37234497,1,0,0,rectangle,8.226135254,-14.37234497,1,0,0,8.226135254,-14.37234497,1,0,0,0,123,123,63,1,,,,,,,,
,,,,,,,,,,,,,FF,,,,,,,,1.199,,,,,,,,,,,,,,,,,,,,,,60fd5ff30bc43791db242818,61036e246c80f4089f7f1147,2021-07-29_20h13.41.451,Simcolourproject_2stim_asymm_v5,2020.2.10,MacIntel,60,61025ae37ef11b136ea224fe,,,,,,,,,608,38.0791626,-53.37145996,1,0,0,response3disk,,4,18.73846436,-0.772369385,1,0,0,rectangle,18.73846436,-0.772369385,1,0,0,18.73846436,-0.772369385,1,0,0,0,124,124,155,1,,,,,,,,
,,,,,,,,,,,,,FF,,,,,,,,1.4324,,,,,,,,,,,,,,,,,,,,,,60fd5ff30bc43791db242818,61036e246c80f4089f7f1147,2021-07-29_20h13.41.451,Simcolourproject_2stim_asymm_v5,2020.2.10,MacIntel,60,61025ae37ef11b136ea224fe,,,,,,,,,3043,67.81347656,50.51907349,1,0,0,response1disk,,6,-0.180480957,4.534118652,1,0,0,rectangle,-0.180480957,4.534118652,1,0,0,-0.180480957,4.534118652,1,0,0,0,125,125,120,1,,,,,,,,
,,,,,,,,,,,,,FF,,,,,,,,1.4004,,,,,,,,,,,,,,,,,,,,,,60fd5ff30bc43791db242818,61036e246c80f4089f7f1147,2021-07-29_20h13.41.451,Simcolourproject_2stim_asymm_v5,2020.2.10,MacIntel,60,61025ae37ef11b136ea224fe,,,,,,,,,2203,38.12091064,82.79440308,1,0,0,response1disk,,7,4.458984375,7.469726563,1,0,0,rectangle,4.458984375,7.469726563,1,0,0,4.458984375,7.469726563,1,0,0,0,126,126,76,1,,,,,,,,
,,,,,,,,,,,,,FF,,,,,,,,1.2174,,,,,,,,,,,,,,,,,,,,,,60fd5ff30bc43791db242818,61036e246c80f4089f7f1147,2021-07-29_20h13.41.451,Simcolourproject_2stim_asymm_v5,2020.2.10,MacIntel,60,61025ae37ef11b136ea224fe,,,,,,,,,1433,44.69403076,-79.71032715,1,0,0,response3disk,,4,-1.272216797,-5.741973877,1,0,0,rectangle,-1.272216797,-5.741973877,1,0,0,-1.272216797,-5.741973877,1,0,0,0,127,127,24,1,,,,,,,,
,,,,,,,,,,,,,FF,,,,,,,,0.7869,,,,,,,,,,,,,,,,,,,,,,60fd5ff30bc43791db242818,61036e246c80f4089f7f1147,2021-07-29_20h13.41.451,Simcolourproject_2stim_asymm_v5,2020.2.10,MacIntel,60,61025ae37ef11b136ea224fe,,,,,,,,,2191,85.87866211,50.40194702,1,0,0,response1disk,,6,14.50183105,-9.131652832,1,0,0,rectangle,14.50183105,-9.131652832,1,0,0,14.50183105,-9.131652832,1,0,0,0,128,128,145,1,,,,,,,,
,,,,,,,,,,,,,FF,,,,,,,,1.6855,,,,,,,,,,,,,,,,,,,,,,60fd5ff30bc43791db242818,61036e246c80f4089f7f1147,2021-07-29_20h13.41.451,Simcolourproject_2stim_asymm_v5,2020.2.10,MacIntel,60,61025ae37ef11b136ea224fe,,,,,,,,,2432,75.76989746,-45.76834106,1,0,0,response3disk,,5,9.431274414,-8.227172852,1,0,0,rectangle,9.431274414,-8.227172852,1,0,0,9.431274414,-8.227172852,1,0,0,0,129,129,29,1,,,,,,,,
,,,,,,,,,,,,,FF,,,,,,,,1.0635,,,,,,,,,,,,,,,,,,,,,,60fd5ff30bc43791db242818,61036e246c80f4089f7f1147,2021-07-29_20h13.41.451,Simcolourproject_2stim_asymm_v5,2020.2.10,MacIntel,60,61025ae37ef11b136ea224fe,,,,,,,,,2688,33.80432129,-81.34069824,1,0,0,response3disk,,4,3.346313477,-1.721801758,1,0,0,rectangle,3.346313477,-1.721801758,1,0,0,3.346313477,-1.721801758,1,0,0,0,130,130,57,1,,,,,,,,
,,,,,,,,,,,,,FF,,,,,,,,0.9168,,,,,,,,,,,,,,,,,,,,,,60fd5ff30bc43791db242818,61036e246c80f4089f7f1147,2021-07-29_20h13.41.451,Simcolourproject_2stim_asymm_v5,2020.2.10,MacIntel,60,61025ae37ef11b136ea224fe,,,,,,,,,2181,-74.76293945,38.15048218,1,0,0,response7disk,,1,-12.37219238,5.487518311,1,0,0,rectangle,-12.37219238,5.487518311,1,0,0,-12.37219238,5.487518311,1,0,0,0,131,131,44,1,,,,,,,,
,,,,,,,,,,,,,FF,,,,,,,,0.9151,,,,,,,,,,,,,,,,,,,,,,60fd5ff30bc43791db242818,61036e246c80f4089f7f1147,2021-07-29_20h13.41.451,Simcolourproject_2stim_asymm_v5,2020.2.10,MacIntel,60,61025ae37ef11b136ea224fe,,,,,,,,,1014,51.33630371,85.35546875,1,0,0,response1disk,,7,6.817993164,-8.346405029,1,0,0,rectangle,6.817993164,-8.346405029,1,0,0,6.817993164,-8.346405029,1,0,0,0,132,132,52,1,,,,,,,,
,,,,,,,,,,,,,FF,,,,,,,,0.8503,,,,,,,,,,,,,,,,,,,,,,60fd5ff30bc43791db242818,61036e246c80f4089f7f1147,2021-07-29_20h13.41.451,Simcolourproject_2stim_asymm_v5,2020.2.10,MacIntel,60,61025ae37ef11b136ea224fe,,,,,,,,,4342,52.33483887,81.51141357,1,0,0,response1disk,,7,8.75982666,8.727813721,1,0,0,rectangle,8.75982666,8.727813721,1,0,0,8.75982666,8.727813721,1,0,0,0,133,133,83,1,,,,,,,,
,,,,,,,,,,,,,FF,,,,,,,,0.9682,,,,,,,,,,,,,,,,,,,,,,60fd5ff30bc43791db242818,61036e246c80f4089f7f1147,2021-07-29_20h13.41.451,Simcolourproject_2stim_asymm_v5,2020.2.10,MacIntel,60,61025ae37ef11b136ea224fe,,,,,,,,,2576,54.4967041,-40.56231689,1,0,0,response3disk,,5,13.83209229,-6.082061768,1,0,0,rectangle,13.83209229,-6.082061768,1,0,0,13.83209229,-6.082061768,1,0,0,0,134,134,46,1,,,,,,,,
,,,,,,,,,,,,,FF,,,,,,,,1.251,,,,,,,,,,,,,,,,,,,,,,60fd5ff30bc43791db242818,61036e246c80f4089f7f1147,2021-07-29_20h13.41.451,Simcolourproject_2stim_asymm_v5,2020.2.10,MacIntel,60,61025ae37ef11b136ea224fe,,,,,,,,,2121,24.73474121,-76.58728027,1,0,0,response3disk,,4,8.16986084,-7.261657715,1,0,0,rectangle,8.16986084,-7.261657715,1,0,0,8.16986084,-7.261657715,1,0,0,0,135,135,156,1,,,,,,,,
,,,,,,,,,,,,,FF,,,,,,,,0.8165,,,,,,,,,,,,,,,,,,,,,,60fd5ff30bc43791db242818,61036e246c80f4089f7f1147,2021-07-29_20h13.41.451,Simcolourproject_2stim_asymm_v5,2020.2.10,MacIntel,60,61025ae37ef11b136ea224fe,,,,,,,,,3707,-43.32861328,84.91394043,1,0,0,response7disk,,0,6.495849609,2.049041748,1,0,0,rectangle,6.495849609,2.049041748,1,0,0,6.495849609,2.049041748,1,0,0,0,136,136,79,1,,,,,,,,
,,,,,,,,,,,,,FF,,,,,,,,1.3834,,,,,,,,,,,,,,,,,,,,,,60fd5ff30bc43791db242818,61036e246c80f4089f7f1147,2021-07-29_20h13.41.451,Simcolourproject_2stim_asymm_v5,2020.2.10,MacIntel,60,61025ae37ef11b136ea224fe,,,,,,,,,1174,92.04119873,36.13101196,1,0,0,response1disk,,6,10.85571289,6.155181885,1,0,0,rectangle,10.85571289,6.155181885,1,0,0,10.85571289,6.155181885,1,0,0,0,137,137,39,1,,,,,,,,
,,,,,,,,,,,,,FF,,,,,,,,0.967,,,,,,,,,,,,,,,,,,,,,,60fd5ff30bc43791db242818,61036e246c80f4089f7f1147,2021-07-29_20h13.41.451,Simcolourproject_2stim_asymm_v5,2020.2.10,MacIntel,60,61025ae37ef11b136ea224fe,,,,,,,,,3483,-45.02099609,-65.4029541,1,0,0,response5disk,,3,-0.461486816,10.32492065,1,0,0,rectangle,-0.461486816,10.32492065,1,0,0,-0.461486816,10.32492065,1,0,0,0,138,138,113,1,,,,,,,,
,,,,,,,,,,,,,FF,,,,,,,,0.9012,,,,,,,,,,,,,,,,,,,,,,60fd5ff30bc43791db242818,61036e246c80f4089f7f1147,2021-07-29_20h13.41.451,Simcolourproject_2stim_asymm_v5,2020.2.10,MacIntel,60,61025ae37ef11b136ea224fe,,,,,,,,,1692,35.0625,-66.32550049,1,0,0,response3disk,,4,15.32763672,-4.366699219,1,0,0,rectangle,15.32763672,-4.366699219,1,0,0,15.32763672,-4.366699219,1,0,0,0,139,139,130,1,,,,,,,,
,,,,,,,,,,,,,FF,,,,,,,,1.038,,,,,,,,,,,,,,,,,,,,,,60fd5ff30bc43791db242818,61036e246c80f4089f7f1147,2021-07-29_20h13.41.451,Simcolourproject_2stim_asymm_v5,2020.2.10,MacIntel,60,61025ae37ef11b136ea224fe,,,,,,,,,4084,-76.00500488,-38.76651001,1,0,0,response5disk,,2,-11.86932373,0.135742188,1,0,0,rectangle,-11.86932373,0.135742188,1,0,0,-11.86932373,0.135742188,1,0,0,0,140,140,142,1,,,,,,,,
,,,,,,,,,,,,,FF,,,,,,,,1.9164,,,,,,,,,,,,,,,,,,,,,,60fd5ff30bc43791db242818,61036e246c80f4089f7f1147,2021-07-29_20h13.41.451,Simcolourproject_2stim_asymm_v5,2020.2.10,MacIntel,60,61025ae37ef11b136ea224fe,,,,,,,,,2417,78.18737793,47.109375,1,0,0,response1disk,,6,-2.710571289,-0.22366333,1,0,0,rectangle,-2.710571289,-0.22366333,1,0,0,-2.710571289,-0.22366333,1,0,0,0,141,141,58,1,,,,,,,,
,,,,,,,,,,,,,FF,,,,,,,,1.1168,,,,,,,,,,,,,,,,,,,,,,60fd5ff30bc43791db242818,61036e246c80f4089f7f1147,2021-07-29_20h13.41.451,Simcolourproject_2stim_asymm_v5,2020.2.10,MacIntel,60,61025ae37ef11b136ea224fe,,,,,,,,,2250,37.71350098,-69.82189941,1,0,0,response3disk,,4,11.55963135,0.367340088,1,0,0,rectangle,11.55963135,0.367340088,1,0,0,11.55963135,0.367340088,1,0,0,0,142,142,124,1,,,,,,,,
,,,,,,,,,,,,,FF,,,,,,,,1.469,,,,,,,,,,,,,,,,,,,,,,60fd5ff30bc43791db242818,61036e246c80f4089f7f1147,2021-07-29_20h13.41.451,Simcolourproject_2stim_asymm_v5,2020.2.10,MacIntel,60,61025ae37ef11b136ea224fe,,,,,,,,,3520,-92.79290771,-50.13842773,1,0,0,response5disk,,2,3.084289551,-0.173736572,1,0,0,rectangle,3.084289551,-0.173736572,1,0,0,3.084289551,-0.173736572,1,0,0,0,143,143,143,1,,,,,,,,
,,,,,,,,,,,,,FF,,,,,,,,1.0343,,,,,,,,,,,,,,,,,,,,,,60fd5ff30bc43791db242818,61036e246c80f4089f7f1147,2021-07-29_20h13.41.451,Simcolourproject_2stim_asymm_v5,2020.2.10,MacIntel,60,61025ae37ef11b136ea224fe,,,,,,,,,3456,48.2835083,45.87750244,1,0,0,response1disk,,6,-3.828979492,-1.15524292,1,0,0,rectangle,-3.828979492,-1.15524292,1,0,0,-3.828979492,-1.15524292,1,0,0,0,144,144,134,1,,,,,,,,
,,,,,,,,,,,,,FF,,,,,,,,0.8994,,,,,,,,,,,,,,,,,,,,,,60fd5ff30bc43791db242818,61036e246c80f4089f7f1147,2021-07-29_20h13.41.451,Simcolourproject_2stim_asymm_v5,2020.2.10,MacIntel,60,61025ae37ef11b136ea224fe,,,,,,,,,852,55.52459717,-86.4185791,1,0,0,response3disk,,4,5.083862305,-11.97235107,1,0,0,rectangle,5.083862305,-11.97235107,1,0,0,5.083862305,-11.97235107,1,0,0,0,145,145,122,1,,,,,,,,
,,,,,,,,,,,,,FF,,,,,,,,1.0176,,,,,,,,,,,,,,,,,,,,,,60fd5ff30bc43791db242818,61036e246c80f4089f7f1147,2021-07-29_20h13.41.451,Simcolourproject_2stim_asymm_v5,2020.2.10,MacIntel,60,61025ae37ef11b136ea224fe,,,,,,,,,2194,52.99707031,97.2739563,1,0,0,response1disk,,7,18.29016113,17.3119812,1,0,0,rectangle,18.29016113,17.3119812,1,0,0,18.29016113,17.3119812,1,0,0,0,146,146,105,1,,,,,,,,
,,,,,,,,,,,,,FF,,,,,,,,0.9323,,,,,,,,,,,,,,,,,,,,,,60fd5ff30bc43791db242818,61036e246c80f4089f7f1147,2021-07-29_20h13.41.451,Simcolourproject_2stim_asymm_v5,2020.2.10,MacIntel,60,61025ae37ef11b136ea224fe,,,,,,,,,2994,-30.74395752,-60.75866699,1,0,0,response5disk,,3,9.921936035,-1.099121094,1,0,0,rectangle,9.921936035,-1.099121094,1,0,0,9.921936035,-1.099121094,1,0,0,0,147,147,43,1,,,,,,,,
,,,,,,,,,,,,,FF,,,,,,,,0.8822,,,,,,,,,,,,,,,,,,,,,,60fd5ff30bc43791db242818,61036e246c80f4089f7f1147,2021-07-29_20h13.41.451,Simcolourproject_2stim_asymm_v5,2020.2.10,MacIntel,60,61025ae37ef11b136ea224fe,,,,,,,,,4034,-40.92578125,-74.5324707,1,0,0,response5disk,,3,11.46234131,-12.00521851,1,0,0,rectangle,11.46234131,-12.00521851,1,0,0,11.46234131,-12.00521851,1,0,0,0,148,148,117,1,,,,,,,,
,,,,,,,,,,,,,FF,,,,,,,,0.7338,,,,,,,,,,,,,,,,,,,,,,60fd5ff30bc43791db242818,61036e246c80f4089f7f1147,2021-07-29_20h13.41.451,Simcolourproject_2stim_asymm_v5,2020.2.10,MacIntel,60,61025ae37ef11b136ea224fe,,,,,,,,,1175,47.28070068,61.92352295,1,0,0,response1disk,,7,6.880004883,-6.4296875,1,0,0,rectangle,6.880004883,-6.4296875,1,0,0,6.880004883,-6.4296875,1,0,0,0,149,149,99,1,,,,,,,,
,,,,,,,,,,,,,FF,,,,,,,,1.1021,,,,,,,,,,,,,,,,,,,,,,60fd5ff30bc43791db242818,61036e246c80f4089f7f1147,2021-07-29_20h13.41.451,Simcolourproject_2stim_asymm_v5,2020.2.10,MacIntel,60,61025ae37ef11b136ea224fe,,,,,,,,,3111,-34.7255249,-68.67120361,1,0,0,response5disk,,3,-18.32281494,-5.215454102,1,0,0,rectangle,-18.32281494,-5.215454102,1,0,0,-18.32281494,-5.215454102,1,0,0,0,150,150,157,1,,,,,,,,
,,,,,,,,,,,,,FF,,,,,,,,0.9164,,,,,,,,,,,,,,,,,,,,,,60fd5ff30bc43791db242818,61036e246c80f4089f7f1147,2021-07-29_20h13.41.451,Simcolourproject_2stim_asymm_v5,2020.2.10,MacIntel,60,61025ae37ef11b136ea224fe,,,,,,,,,1244,102.3513794,53.33764648,1,0,0,response1disk,,6,19.44024658,-9.848754883,1,0,0,rectangle,19.44024658,-9.848754883,1,0,0,19.44024658,-9.848754883,1,0,0,0,151,151,10,1,,,,,,,,
,,,,,,,,,,,,,FF,,,,,,,,0.8039,,,,,,,,,,,,,,,,,,,,,,60fd5ff30bc43791db242818,61036e246c80f4089f7f1147,2021-07-29_20h13.41.451,Simcolourproject_2stim_asymm_v5,2020.2.10,MacIntel,60,61025ae37ef11b136ea224fe,,,,,,,,,3430,-51.45257568,-76.72027588,1,0,0,response5disk,,3,-15.37573242,0.433807373,1,0,0,rectangle,-15.37573242,0.433807373,1,0,0,-15.37573242,0.433807373,1,0,0,0,152,152,146,1,,,,,,,,
,,,,,,,,,,,,,FF,,,,,,,,0.9858,,,,,,,,,,,,,,,,,,,,,,60fd5ff30bc43791db242818,61036e246c80f4089f7f1147,2021-07-29_20h13.41.451,Simcolourproject_2stim_asymm_v5,2020.2.10,MacIntel,60,61025ae37ef11b136ea224fe,,,,,,,,,2840,-78.87469482,-43.7996521,1,0,0,response5disk,,2,-7.859375,-5.688568115,1,0,0,rectangle,-7.859375,-5.688568115,1,0,0,-7.859375,-5.688568115,1,0,0,0,153,153,80,1,,,,,,,,
,,,,,,,,,,,,,FF,,,,,,,,2.2287,,,,,,,,,,,,,,,,,,,,,,60fd5ff30bc43791db242818,61036e246c80f4089f7f1147,2021-07-29_20h13.41.451,Simcolourproject_2stim_asymm_v5,2020.2.10,MacIntel,60,61025ae37ef11b136ea224fe,,,,,,,,,4199,77.39654541,106.8731384,1,0,0,response1disk,,7,4.996154785,14.39358521,1,0,0,rectangle,4.996154785,14.39358521,1,0,0,4.996154785,14.39358521,1,0,0,0,154,154,75,1,,,,,,,,
,,,,,,,,,,,,,FF,,,,,,,,1.15,,,,,,,,,,,,,,,,,,,,,,60fd5ff30bc43791db242818,61036e246c80f4089f7f1147,2021-07-29_20h13.41.451,Simcolourproject_2stim_asymm_v5,2020.2.10,MacIntel,60,61025ae37ef11b136ea224fe,,,,,,,,,2814,70.2131958,38.89434814,1,0,0,response1disk,,6,8.687927246,1.976928711,1,0,0,rectangle,8.687927246,1.976928711,1,0,0,8.687927246,1.976928711,1,0,0,0,155,155,77,1,,,,,,,,
,,,,,,,,,,,,,FF,,,,,,,,1.0675,,,,,,,,,,,,,,,,,,,,,,60fd5ff30bc43791db242818,61036e246c80f4089f7f1147,2021-07-29_20h13.41.451,Simcolourproject_2stim_asymm_v5,2020.2.10,MacIntel,60,61025ae37ef11b136ea224fe,,,,,,,,,3607,99.59112549,55.43847656,1,0,0,response1disk,,6,13.76104736,2.478607178,1,0,0,rectangle,13.76104736,2.478607178,1,0,0,13.76104736,2.478607178,1,0,0,0,156,156,47,1,,,,,,,,
,,,,,,,,,,,,,FF,,,,,,,,1.5006,,,,,,,,,,,,,,,,,,,,,,60fd5ff30bc43791db242818,61036e246c80f4089f7f1147,2021-07-29_20h13.41.451,Simcolourproject_2stim_asymm_v5,2020.2.10,MacIntel,60,61025ae37ef11b136ea224fe,,,,,,,,,1772,83.54888916,64.9102478,1,0,0,response1disk,,6,2.798461914,7.450531006,1,0,0,rectangle,2.798461914,7.450531006,1,0,0,2.798461914,7.450531006,1,0,0,0,157,157,151,1,,,,,,,,
,,,,,,,,,,,,,FF,,,,,,,,1.1168,,,,,,,,,,,,,,,,,,,,,,60fd5ff30bc43791db242818,61036e246c80f4089f7f1147,2021-07-29_20h13.41.451,Simcolourproject_2stim_asymm_v5,2020.2.10,MacIntel,60,61025ae37ef11b136ea224fe,,,,,,,,,2262,100.4157104,58.56939697,1,0,0,response1disk,,6,13.46832275,2.272155762,1,0,0,rectangle,13.46832275,2.272155762,1,0,0,13.46832275,2.272155762,1,0,0,0,158,158,16,1,,,,,,,,
,,,,,,,,,,,,,FF,,,,,,,,1.084,,,,,,,,,,,,,,,,,,,,,,60fd5ff30bc43791db242818,61036e246c80f4089f7f1147,2021-07-29_20h13.41.451,Simcolourproject_2stim_asymm_v5,2020.2.10,MacIntel,60,61025ae37ef11b136ea224fe,,,,,,,,,928,77.59240723,56.88360596,1,0,0,response1disk,,6,-0.551086426,8.257873535,1,0,0,rectangle,-0.551086426,8.257873535,1,0,0,-0.551086426,8.257873535,1,0,0,0,159,159,118,1,,,,,,,,
,,,,,,,,,,,,,FF,,,,,,,,1.3673,,,,,,,,,,,,,,,,,,,,,,60fd5ff30bc43791db242818,61036e246c80f4089f7f1147,2021-07-29_20h13.41.451,Simcolourproject_2stim_asymm_v5,2020.2.10,MacIntel,60,61025ae37ef11b136ea224fe,,,,,,,,,3774,43.04449463,-60.66397095,1,0,0,response3disk,,4,10.54406738,-3.959411621,1,0,0,rectangle,10.54406738,-3.959411621,1,0,0,10.54406738,-3.959411621,1,0,0,1,0,160,82,1,,,,,,,,
,,,,,,,,,,,,,FF,,,,,,,,1.0834,,,,,,,,,,,,,,,,,,,,,,60fd5ff30bc43791db242818,61036e246c80f4089f7f1147,2021-07-29_20h13.41.451,Simcolourproject_2stim_asymm_v5,2020.2.10,MacIntel,60,61025ae37ef11b136ea224fe,,,,,,,,,238,43.47460938,90.42868042,1,0,0,response1disk,,7,7.499389648,12.91082764,1,0,0,rectangle,36.06072998,86.66744995,1,0,0,-13.07476807,1.297576904,1,0,0,1,1,161,135,1,,response1disk_3,TRUE,7,7,"[39,180,219,257,112,239,62,87,162,61,102,297,100,171,101,11,102,120,314,256]",1.5848,rectangle
,,,,,,,,,,,,,FF,,,,,,,,1.233,,,,,,,,,,,,,,,,,,,,,,60fd5ff30bc43791db242818,61036e246c80f4089f7f1147,2021-07-29_20h13.41.451,Simcolourproject_2stim_asymm_v5,2020.2.10,MacIntel,60,61025ae37ef11b136ea224fe,,,,,,,,,1313,-37.66351318,-72.44433594,1,0,0,response5disk,,3,-6.426696777,-7.710632324,1,0,0,rectangle,-6.426696777,-7.710632324,1,0,0,-6.426696777,-7.710632324,1,0,0,1,2,162,40,1,,,,,,,,
,,,,,,,,,,,,,FF,,,,,,,,0.8025,,,,,,,,,,,,,,,,,,,,,,60fd5ff30bc43791db242818,61036e246c80f4089f7f1147,2021-07-29_20h13.41.451,Simcolourproject_2stim_asymm_v5,2020.2.10,MacIntel,60,61025ae37ef11b136ea224fe,,,,,,,,,3052,-42.66259766,-61.79324341,1,0,0,response5disk,,3,-15.40270996,-14.29495239,1,0,0,rectangle,-15.40270996,-14.29495239,1,0,0,-15.40270996,-14.29495239,1,0,0,1,3,163,87,1,,,,,,,,
,,,,,,,,,,,,,FF,,,,,,,,0.7835,,,,,,,,,,,,,,,,,,,,,,60fd5ff30bc43791db242818,61036e246c80f4089f7f1147,2021-07-29_20h13.41.451,Simcolourproject_2stim_asymm_v5,2020.2.10,MacIntel,60,61025ae37ef11b136ea224fe,,,,,,,,,4103,-81.30871582,49.13827515,1,0,0,response7disk,,1,-12.28887939,6.814147949,1,0,0,rectangle,-12.28887939,6.814147949,1,0,0,-12.28887939,6.814147949,1,0,0,1,4,164,151,1,,,,,,,,
,,,,,,,,,,,,,FF,,,,,,,,0.9141,,,,,,,,,,,,,,,,,,,,,,60fd5ff30bc43791db242818,61036e246c80f4089f7f1147,2021-07-29_20h13.41.451,Simcolourproject_2stim_asymm_v5,2020.2.10,MacIntel,60,61025ae37ef11b136ea224fe,,,,,,,,,2454,88.44421387,35.93685913,1,0,0,response1disk,,6,10.94580078,-8.218963623,1,0,0,rectangle,10.94580078,-8.218963623,1,0,0,10.94580078,-8.218963623,1,0,0,1,5,165,9,1,,,,,,,,
,,,,,,,,,,,,,FF,,,,,,,,0.9002,,,,,,,,,,,,,,,,,,,,,,60fd5ff30bc43791db242818,61036e246c80f4089f7f1147,2021-07-29_20h13.41.451,Simcolourproject_2stim_asymm_v5,2020.2.10,MacIntel,60,61025ae37ef11b136ea224fe,,,,,,,,,3348,73.52716064,-32.4659729,1,0,0,response3disk,,5,14.28973389,-0.128051758,1,0,0,rectangle,14.28973389,-0.128051758,1,0,0,14.28973389,-0.128051758,1,0,0,1,6,166,73,1,,,,,,,,
,,,,,,,,,,,,,FF,,,,,,,,0.882,,,,,,,,,,,,,,,,,,,,,,60fd5ff30bc43791db242818,61036e246c80f4089f7f1147,2021-07-29_20h13.41.451,Simcolourproject_2stim_asymm_v5,2020.2.10,MacIntel,60,61025ae37ef11b136ea224fe,,,,,,,,,208,63.85528564,36.02178955,1,0,0,response1disk,,6,-2.048583984,-5.650817871,1,0,0,rectangle,-2.048583984,-5.650817871,1,0,0,-2.048583984,-5.650817871,1,0,0,1,7,167,93,1,,,,,,,,
,,,,,,,,,,,,,FF,,,,,,,,1.1013,,,,,,,,,,,,,,,,,,,,,,60fd5ff30bc43791db242818,61036e246c80f4089f7f1147,2021-07-29_20h13.41.451,Simcolourproject_2stim_asymm_v5,2020.2.10,MacIntel,60,61025ae37ef11b136ea224fe,,,,,,,,,1737,31.37353516,-87.24194336,1,0,0,response3disk,,4,0.347717285,-2.475738525,1,0,0,rectangle,0.347717285,-2.475738525,1,0,0,0.347717285,-2.475738525,1,0,0,1,8,168,36,1,,,,,,,,
,,,,,,,,,,,,,FF,,,,,,,,1.0658,,,,,,,,,,,,,,,,,,,,,,60fd5ff30bc43791db242818,61036e246c80f4089f7f1147,2021-07-29_20h13.41.451,Simcolourproject_2stim_asymm_v5,2020.2.10,MacIntel,60,61025ae37ef11b136ea224fe,,,,,,,,,314,95.00177002,58.25509644,1,0,0,response1disk,,6,-15.35345459,-14.85302734,1,0,0,rectangle,-15.35345459,-14.85302734,1,0,0,-15.35345459,-14.85302734,1,0,0,1,9,169,49,1,,,,,,,,
,,,,,,,,,,,,,FF,,,,,,,,0.8503,,,,,,,,,,,,,,,,,,,,,,60fd5ff30bc43791db242818,61036e246c80f4089f7f1147,2021-07-29_20h13.41.451,Simcolourproject_2stim_asymm_v5,2020.2.10,MacIntel,60,61025ae37ef11b136ea224fe,,,,,,,,,2849,83.53820801,43.57507324,1,0,0,response1disk,,6,18.11206055,10.30981445,1,0,0,rectangle,-44.34393311,66.59313965,1,0,0,-12.59436035,4.301055908,1,0,0,1,10,170,27,1,,response7disk_3,TRUE,0,0,"[39,180,219,257,112,239,62,87,162,61,102,297,100,171,101,11,102,120,314,256]",1.5672,rectangle
,,,,,,,,,,,,,FF,,,,,,,,1.6666,,,,,,,,,,,,,,,,,,,,,,60fd5ff30bc43791db242818,61036e246c80f4089f7f1147,2021-07-29_20h13.41.451,Simcolourproject_2stim_asymm_v5,2020.2.10,MacIntel,60,61025ae37ef11b136ea224fe,,,,,,,,,2629,45.50366211,-68.24627686,1,0,0,response3disk,,4,2.047668457,11.08889771,1,0,0,rectangle,2.047668457,11.08889771,1,0,0,2.047668457,11.08889771,1,0,0,1,11,171,85,1,,,,,,,,
,,,,,,,,,,,,,FF,,,,,,,,0.8008,,,,,,,,,,,,,,,,,,,,,,60fd5ff30bc43791db242818,61036e246c80f4089f7f1147,2021-07-29_20h13.41.451,Simcolourproject_2stim_asymm_v5,2020.2.10,MacIntel,60,61025ae37ef11b136ea224fe,,,,,,,,,3609,70.88470459,32.98077393,1,0,0,response1disk,,6,7.831726074,-7.374450684,1,0,0,rectangle,7.831726074,-7.374450684,1,0,0,7.831726074,-7.374450684,1,0,0,1,12,172,109,1,,,,,,,,
,,,,,,,,,,,,,FF,,,,,,,,0.684,,,,,,,,,,,,,,,,,,,,,,60fd5ff30bc43791db242818,61036e246c80f4089f7f1147,2021-07-29_20h13.41.451,Simcolourproject_2stim_asymm_v5,2020.2.10,MacIntel,60,61025ae37ef11b136ea224fe,,,,,,,,,1644,81.54876709,46.86291504,1,0,0,response1disk,,6,23.30438232,12.6690979,1,0,0,rectangle,23.30438232,12.6690979,1,0,0,23.30438232,12.6690979,1,0,0,1,13,173,41,1,,,,,,,,
,,,,,,,,,,,,,FF,,,,,,,,1.2035,,,,,,,,,,,,,,,,,,,,,,60fd5ff30bc43791db242818,61036e246c80f4089f7f1147,2021-07-29_20h13.41.451,Simcolourproject_2stim_asymm_v5,2020.2.10,MacIntel,60,61025ae37ef11b136ea224fe,,,,,,,,,1582,-46.71972656,-84.35632324,1,0,0,response5disk,,3,-1.983520508,-14.58822632,1,0,0,rectangle,-1.983520508,-14.58822632,1,0,0,-1.983520508,-14.58822632,1,0,0,1,14,174,24,1,,,,,,,,
,,,,,,,,,,,,,FF,,,,,,,,1.0728,,,,,,,,,,,,,,,,,,,,,,60fd5ff30bc43791db242818,61036e246c80f4089f7f1147,2021-07-29_20h13.41.451,Simcolourproject_2stim_asymm_v5,2020.2.10,MacIntel,60,61025ae37ef11b136ea224fe,,,,,,,,,2286,29.29290771,-63.68530273,1,0,0,response3disk,,4,15.574646,-0.110443115,1,0,0,rectangle,15.574646,-0.110443115,1,0,0,15.574646,-0.110443115,1,0,0,1,15,175,86,1,,,,,,,,
,,,,,,,,,,,,,FF,,,,,,,,0.9363,,,,,,,,,,,,,,,,,,,,,,60fd5ff30bc43791db242818,61036e246c80f4089f7f1147,2021-07-29_20h13.41.451,Simcolourproject_2stim_asymm_v5,2020.2.10,MacIntel,60,61025ae37ef11b136ea224fe,,,,,,,,,2667,-83.10614014,49.52825928,1,0,0,response7disk,,1,-1.494812012,7.252807617,1,0,0,rectangle,-1.494812012,7.252807617,1,0,0,-1.494812012,7.252807617,1,0,0,1,16,176,4,1,,,,,,,,
,,,,,,,,,,,,,FF,,,,,,,,0.8842,,,,,,,,,,,,,,,,,,,,,,60fd5ff30bc43791db242818,61036e246c80f4089f7f1147,2021-07-29_20h13.41.451,Simcolourproject_2stim_asymm_v5,2020.2.10,MacIntel,60,61025ae37ef11b136ea224fe,,,,,,,,,1530,-72.484375,-48.48352051,1,0,0,response5disk,,2,-8.14465332,1.909454346,1,0,0,rectangle,-8.14465332,1.909454346,1,0,0,-8.14465332,1.909454346,1,0,0,1,17,177,15,1,,,,,,,,
,,,,,,,,,,,,,FF,,,,,,,,0.9042,,,,,,,,,,,,,,,,,,,,,,60fd5ff30bc43791db242818,61036e246c80f4089f7f1147,2021-07-29_20h13.41.451,Simcolourproject_2stim_asymm_v5,2020.2.10,MacIntel,60,61025ae37ef11b136ea224fe,,,,,,,,,419,63.43280029,20.59957886,1,0,0,response1disk,,6,11.64807129,0.437072754,1,0,0,rectangle,11.64807129,0.437072754,1,0,0,11.64807129,0.437072754,1,0,0,1,18,178,53,1,,,,,,,,
,,,,,,,,,,,,,FF,,,,,,,,0.8342,,,,,,,,,,,,,,,,,,,,,,60fd5ff30bc43791db242818,61036e246c80f4089f7f1147,2021-07-29_20h13.41.451,Simcolourproject_2stim_asymm_v5,2020.2.10,MacIntel,60,61025ae37ef11b136ea224fe,,,,,,,,,3656,78.09387207,48.26126099,1,0,0,response1disk,,6,4.804870605,6.485168457,1,0,0,rectangle,-45.98651123,-65.80517578,1,0,0,11.65808105,-1.07131958,1,0,0,1,19,179,80,1,,response5disk_3,TRUE,3,3,"[39,180,219,257,112,239,62,87,162,61,102,297,100,171,101,11,102,120,314,256]",1.5507,rectangle
,,,,,,,,,,,,,FF,,,,,,,,0.9194,,,,,,,,,,,,,,,,,,,,,,60fd5ff30bc43791db242818,61036e246c80f4089f7f1147,2021-07-29_20h13.41.451,Simcolourproject_2stim_asymm_v5,2020.2.10,MacIntel,60,61025ae37ef11b136ea224fe,,,,,,,,,2875,62.74200439,30.11550903,1,0,0,response1disk,,6,5.019775391,-15.07870483,1,0,0,rectangle,5.019775391,-15.07870483,1,0,0,5.019775391,-15.07870483,1,0,0,1,20,180,22,1,,,,,,,,
,,,,,,,,,,,,,FF,,,,,,,,1.4671,,,,,,,,,,,,,,,,,,,,,,60fd5ff30bc43791db242818,61036e246c80f4089f7f1147,2021-07-29_20h13.41.451,Simcolourproject_2stim_asymm_v5,2020.2.10,MacIntel,60,61025ae37ef11b136ea224fe,,,,,,,,,1549,88.50750732,-30.06033325,1,0,0,response3disk,,5,4.395324707,13.06311035,1,0,0,rectangle,4.395324707,13.06311035,1,0,0,4.395324707,13.06311035,1,0,0,1,21,181,44,1,,,,,,,,
,,,,,,,,,,,,,FF,,,,,,,,1.0669,,,,,,,,,,,,,,,,,,,,,,60fd5ff30bc43791db242818,61036e246c80f4089f7f1147,2021-07-29_20h13.41.451,Simcolourproject_2stim_asymm_v5,2020.2.10,MacIntel,60,61025ae37ef11b136ea224fe,,,,,,,,,888,-76.7197876,48.40829468,1,0,0,response7disk,,1,-14.43621826,-2.130157471,1,0,0,rectangle,-14.43621826,-2.130157471,1,0,0,-14.43621826,-2.130157471,1,0,0,1,22,182,124,1,,,,,,,,
,,,,,,,,,,,,,FF,,,,,,,,1.0667,,,,,,,,,,,,,,,,,,,,,,60fd5ff30bc43791db242818,61036e246c80f4089f7f1147,2021-07-29_20h13.41.451,Simcolourproject_2stim_asymm_v5,2020.2.10,MacIntel,60,61025ae37ef11b136ea224fe,,,,,,,,,572,79.04724121,33.32150269,1,0,0,response1disk,,6,6.203186035,-9.96484375,1,0,0,rectangle,6.203186035,-9.96484375,1,0,0,6.203186035,-9.96484375,1,0,0,1,23,183,77,1,,,,,,,,
,,,,,,,,,,,,,FF,,,,,,,,1.102,,,,,,,,,,,,,,,,,,,,,,60fd5ff30bc43791db242818,61036e246c80f4089f7f1147,2021-07-29_20h13.41.451,Simcolourproject_2stim_asymm_v5,2020.2.10,MacIntel,60,61025ae37ef11b136ea224fe,,,,,,,,,697,-40.97601318,-69.14312744,1,0,0,response5disk,,3,-12.05096436,2.974639893,1,0,0,rectangle,-12.05096436,2.974639893,1,0,0,-12.05096436,2.974639893,1,0,0,1,24,184,64,1,,,,,,,,
,,,,,,,,,,,,,FF,,,,,,,,1.535,,,,,,,,,,,,,,,,,,,,,,60fd5ff30bc43791db242818,61036e246c80f4089f7f1147,2021-07-29_20h13.41.451,Simcolourproject_2stim_asymm_v5,2020.2.10,MacIntel,60,61025ae37ef11b136ea224fe,,,,,,,,,694,52.78674316,-75.3793335,1,0,0,response3disk,,4,17.94604492,3.664154053,1,0,0,rectangle,17.94604492,3.664154053,1,0,0,17.94604492,3.664154053,1,0,0,1,25,185,25,1,,,,,,,,
,,,,,,,,,,,,,FF,,,,,,,,0.7334,,,,,,,,,,,,,,,,,,,,,,60fd5ff30bc43791db242818,61036e246c80f4089f7f1147,2021-07-29_20h13.41.451,Simcolourproject_2stim_asymm_v5,2020.2.10,MacIntel,60,61025ae37ef11b136ea224fe,,,,,,,,,346,-85.88116455,56.06027222,1,0,0,response7disk,,1,-16.2454834,0.895904541,1,0,0,rectangle,-16.2454834,0.895904541,1,0,0,-16.2454834,0.895904541,1,0,0,1,26,186,119,1,,,,,,,,
,,,,,,,,,,,,,FF,,,,,,,,0.8883,,,,,,,,,,,,,,,,,,,,,,60fd5ff30bc43791db242818,61036e246c80f4089f7f1147,2021-07-29_20h13.41.451,Simcolourproject_2stim_asymm_v5,2020.2.10,MacIntel,60,61025ae37ef11b136ea224fe,,,,,,,,,2080,58.05780029,37.06072998,1,0,0,response1disk,,6,8.125915527,0.610198975,1,0,0,rectangle,8.125915527,0.610198975,1,0,0,8.125915527,0.610198975,1,0,0,1,27,187,128,1,,,,,,,,
,,,,,,,,,,,,,FF,,,,,,,,1.0348,,,,,,,,,,,,,,,,,,,,,,60fd5ff30bc43791db242818,61036e246c80f4089f7f1147,2021-07-29_20h13.41.451,Simcolourproject_2stim_asymm_v5,2020.2.10,MacIntel,60,61025ae37ef11b136ea224fe,,,,,,,,,1470,32.52709961,-66.28765869,1,0,0,response3disk,,4,11.79705811,-2.543701172,1,0,0,rectangle,11.79705811,-2.543701172,1,0,0,11.79705811,-2.543701172,1,0,0,1,28,188,138,1,,,,,,,,
,,,,,,,,,,,,,FF,,,,,,,,1.1191,,,,,,,,,,,,,,,,,,,,,,60fd5ff30bc43791db242818,61036e246c80f4089f7f1147,2021-07-29_20h13.41.451,Simcolourproject_2stim_asymm_v5,2020.2.10,MacIntel,60,61025ae37ef11b136ea224fe,,,,,,,,,2512,45.05102539,116.5041809,1,0,0,response1disk,,7,15.40795898,5.102813721,1,0,0,rectangle,15.40795898,5.102813721,1,0,0,15.40795898,5.102813721,1,0,0,1,29,189,144,1,,,,,,,,
,,,,,,,,,,,,,FF,,,,,,,,0.8839,,,,,,,,,,,,,,,,,,,,,,60fd5ff30bc43791db242818,61036e246c80f4089f7f1147,2021-07-29_20h13.41.451,Simcolourproject_2stim_asymm_v5,2020.2.10,MacIntel,60,61025ae37ef11b136ea224fe,,,,,,,,,3969,-77.809021,-39.31430054,1,0,0,response5disk,,2,-9.461608887,-3.166015625,1,0,0,rectangle,-9.461608887,-3.166015625,1,0,0,-9.461608887,-3.166015625,1,0,0,1,30,190,67,1,,,,,,,,
,,,,,,,,,,,,,FF,,,,,,,,1.0169,,,,,,,,,,,,,,,,,,,,,,60fd5ff30bc43791db242818,61036e246c80f4089f7f1147,2021-07-29_20h13.41.451,Simcolourproject_2stim_asymm_v5,2020.2.10,MacIntel,60,61025ae37ef11b136ea224fe,,,,,,,,,244,-37.42510986,-74.18133545,1,0,0,response5disk,,3,-2.901489258,-1.945373535,1,0,0,rectangle,-2.901489258,-1.945373535,1,0,0,-2.901489258,-1.945373535,1,0,0,1,31,191,58,1,,,,,,,,
,,,,,,,,,,,,,FF,,,,,,,,1.0499,,,,,,,,,,,,,,,,,,,,,,60fd5ff30bc43791db242818,61036e246c80f4089f7f1147,2021-07-29_20h13.41.451,Simcolourproject_2stim_asymm_v5,2020.2.10,MacIntel,60,61025ae37ef11b136ea224fe,,,,,,,,,2330,80.78192139,27.94192505,1,0,0,response1disk,,6,10.95245361,-3.816894531,1,0,0,rectangle,10.95245361,-3.816894531,1,0,0,10.95245361,-3.816894531,1,0,0,1,32,192,136,1,,,,,,,,
,,,,,,,,,,,,,FF,,,,,,,,0.7985,,,,,,,,,,,,,,,,,,,,,,60fd5ff30bc43791db242818,61036e246c80f4089f7f1147,2021-07-29_20h13.41.451,Simcolourproject_2stim_asymm_v5,2020.2.10,MacIntel,60,61025ae37ef11b136ea224fe,,,,,,,,,501,36.30114746,111.3748474,1,0,0,response1disk,,7,2.390380859,-2.988525391,1,0,0,rectangle,2.390380859,-2.988525391,1,0,0,2.390380859,-2.988525391,1,0,0,1,33,193,84,1,,,,,,,,
,,,,,,,,,,,,,FF,,,,,,,,1.2994,,,,,,,,,,,,,,,,,,,,,,60fd5ff30bc43791db242818,61036e246c80f4089f7f1147,2021-07-29_20h13.41.451,Simcolourproject_2stim_asymm_v5,2020.2.10,MacIntel,60,61025ae37ef11b136ea224fe,,,,,,,,,3654,40.84350586,78.30426025,1,0,0,response1disk,,7,2.061767578,-1.271209717,1,0,0,rectangle,2.061767578,-1.271209717,1,0,0,2.061767578,-1.271209717,1,0,0,1,34,194,156,1,,,,,,,,
,,,,,,,,,,,,,FF,,,,,,,,0.8675,,,,,,,,,,,,,,,,,,,,,,60fd5ff30bc43791db242818,61036e246c80f4089f7f1147,2021-07-29_20h13.41.451,Simcolourproject_2stim_asymm_v5,2020.2.10,MacIntel,60,61025ae37ef11b136ea224fe,,,,,,,,,615,-79.87158203,-41.61334229,1,0,0,response5disk,,2,-12.01464844,5.964538574,1,0,0,rectangle,-12.01464844,5.964538574,1,0,0,-12.01464844,5.964538574,1,0,0,1,35,195,57,1,,,,,,,,
,,,,,,,,,,,,,FF,,,,,,,,0.9173,,,,,,,,,,,,,,,,,,,,,,60fd5ff30bc43791db242818,61036e246c80f4089f7f1147,2021-07-29_20h13.41.451,Simcolourproject_2stim_asymm_v5,2020.2.10,MacIntel,60,61025ae37ef11b136ea224fe,,,,,,,,,3929,52.55023193,39.61083984,1,0,0,response1disk,,6,1.558044434,7.945037842,1,0,0,rectangle,1.558044434,7.945037842,1,0,0,1.558044434,7.945037842,1,0,0,1,36,196,43,1,,,,,,,,
,,,,,,,,,,,,,FF,,,,,,,,0.8339,,,,,,,,,,,,,,,,,,,,,,60fd5ff30bc43791db242818,61036e246c80f4089f7f1147,2021-07-29_20h13.41.451,Simcolourproject_2stim_asymm_v5,2020.2.10,MacIntel,60,61025ae37ef11b136ea224fe,,,,,,,,,3024,29.39916992,62.90097046,1,0,0,response1disk,,7,10.44750977,8.81048584,1,0,0,rectangle,10.44750977,8.81048584,1,0,0,10.44750977,8.81048584,1,0,0,1,37,197,63,1,,,,,,,,
,,,,,,,,,,,,,FF,,,,,,,,0.9728,,,,,,,,,,,,,,,,,,,,,,60fd5ff30bc43791db242818,61036e246c80f4089f7f1147,2021-07-29_20h13.41.451,Simcolourproject_2stim_asymm_v5,2020.2.10,MacIntel,60,61025ae37ef11b136ea224fe,,,,,,,,,3338,-36.32165527,-83.45239258,1,0,0,response5disk,,3,-2.559143066,-7.805450439,1,0,0,rectangle,-2.559143066,-7.805450439,1,0,0,-2.559143066,-7.805450439,1,0,0,1,38,198,132,1,,,,,,,,
,,,,,,,,,,,,,FF,,,,,,,,1.1366,,,,,,,,,,,,,,,,,,,,,,60fd5ff30bc43791db242818,61036e246c80f4089f7f1147,2021-07-29_20h13.41.451,Simcolourproject_2stim_asymm_v5,2020.2.10,MacIntel,60,61025ae37ef11b136ea224fe,,,,,,,,,3340,-52.67724609,-75.56634521,1,0,0,response5disk,,3,-0.918701172,0.966552734,1,0,0,rectangle,-0.918701172,0.966552734,1,0,0,-0.918701172,0.966552734,1,0,0,1,39,199,103,1,,,,,,,,
,,,,,,,,,,,,,FF,,,,,,,,1.0868,,,,,,,,,,,,,,,,,,,,,,60fd5ff30bc43791db242818,61036e246c80f4089f7f1147,2021-07-29_20h13.41.451,Simcolourproject_2stim_asymm_v5,2020.2.10,MacIntel,60,61025ae37ef11b136ea224fe,,,,,,,,,1409,71.40344238,-31.91967773,1,0,0,response3disk,,5,12.40429688,-2.305755615,1,0,0,rectangle,12.40429688,-2.305755615,1,0,0,12.40429688,-2.305755615,1,0,0,1,40,200,12,1,,,,,,,,
,,,,,,,,,,,,,FF,,,,,,,,1.732,,,,,,,,,,,,,,,,,,,,,,60fd5ff30bc43791db242818,61036e246c80f4089f7f1147,2021-07-29_20h13.41.451,Simcolourproject_2stim_asymm_v5,2020.2.10,MacIntel,60,61025ae37ef11b136ea224fe,,,,,,,,,2076,45.52148438,-68.62548828,1,0,0,response3disk,,4,4.006408691,-1.468444824,1,0,0,rectangle,4.006408691,-1.468444824,1,0,0,4.006408691,-1.468444824,1,0,0,1,41,201,66,1,,,,,,,,
,,,,,,,,,,,,,FF,,,,,,,,0.9013,,,,,,,,,,,,,,,,,,,,,,60fd5ff30bc43791db242818,61036e246c80f4089f7f1147,2021-07-29_20h13.41.451,Simcolourproject_2stim_asymm_v5,2020.2.10,MacIntel,60,61025ae37ef11b136ea224fe,,,,,,,,,3048,-71.00366211,36.53991699,1,0,0,response7disk,,1,-0.763183594,-6.917114258,1,0,0,rectangle,-0.763183594,-6.917114258,1,0,0,-0.763183594,-6.917114258,1,0,0,1,42,202,45,1,,,,,,,,
,,,,,,,,,,,,,FF,,,,,,,,1.3003,,,,,,,,,,,,,,,,,,,,,,60fd5ff30bc43791db242818,61036e246c80f4089f7f1147,2021-07-29_20h13.41.451,Simcolourproject_2stim_asymm_v5,2020.2.10,MacIntel,60,61025ae37ef11b136ea224fe,,,,,,,,,3723,90.54309082,35.55340576,1,0,0,response1disk,,6,10.74609375,1.789489746,1,0,0,rectangle,10.74609375,1.789489746,1,0,0,10.74609375,1.789489746,1,0,0,1,43,203,32,1,,,,,,,,
,,,,,,,,,,,,,FF,,,,,,,,1.0516,,,,,,,,,,,,,,,,,,,,,,60fd5ff30bc43791db242818,61036e246c80f4089f7f1147,2021-07-29_20h13.41.451,Simcolourproject_2stim_asymm_v5,2020.2.10,MacIntel,60,61025ae37ef11b136ea224fe,,,,,,,,,2170,-78.57434082,-37.53210449,1,0,0,response5disk,,2,-14.88604736,-4.391967773,1,0,0,rectangle,-14.88604736,-4.391967773,1,0,0,-14.88604736,-4.391967773,1,0,0,1,44,204,130,1,,,,,,,,
,,,,,,,,,,,,,FF,,,,,,,,1.1338,,,,,,,,,,,,,,,,,,,,,,60fd5ff30bc43791db242818,61036e246c80f4089f7f1147,2021-07-29_20h13.41.451,Simcolourproject_2stim_asymm_v5,2020.2.10,MacIntel,60,61025ae37ef11b136ea224fe,,,,,,,,,328,34.81469727,72.27832031,1,0,0,response1disk,,7,-0.545288086,-10.20767212,1,0,0,rectangle,-0.545288086,-10.20767212,1,0,0,-0.545288086,-10.20767212,1,0,0,1,45,205,123,1,,,,,,,,
,,,,,,,,,,,,,FF,,,,,,,,1.2998,,,,,,,,,,,,,,,,,,,,,,60fd5ff30bc43791db242818,61036e246c80f4089f7f1147,2021-07-29_20h13.41.451,Simcolourproject_2stim_asymm_v5,2020.2.10,MacIntel,60,61025ae37ef11b136ea224fe,,,,,,,,,3143,-41.6229248,-63.44384766,1,0,0,response5disk,,3,1.958068848,6.187957764,1,0,0,rectangle,1.958068848,6.187957764,1,0,0,1.958068848,6.187957764,1,0,0,1,46,206,145,1,,,,,,,,
,,,,,,,,,,,,,FF,,,,,,,,0.8164,,,,,,,,,,,,,,,,,,,,,,60fd5ff30bc43791db242818,61036e246c80f4089f7f1147,2021-07-29_20h13.41.451,Simcolourproject_2stim_asymm_v5,2020.2.10,MacIntel,60,61025ae37ef11b136ea224fe,,,,,,,,,540,71.99572754,41.51507568,1,0,0,response1disk,,6,11.56512451,2.316680908,1,0,0,rectangle,11.56512451,2.316680908,1,0,0,11.56512451,2.316680908,1,0,0,1,47,207,125,1,,,,,,,,
,,,,,,,,,,,,,FF,,,,,,,,1.7314,,,,,,,,,,,,,,,,,,,,,,60fd5ff30bc43791db242818,61036e246c80f4089f7f1147,2021-07-29_20h13.41.451,Simcolourproject_2stim_asymm_v5,2020.2.10,MacIntel,60,61025ae37ef11b136ea224fe,,,,,,,,,1769,64.20654297,-29.85043335,1,0,0,response3disk,,5,5.341308594,-4.220275879,1,0,0,rectangle,5.341308594,-4.220275879,1,0,0,5.341308594,-4.220275879,1,0,0,1,48,208,88,1,,,,,,,,
,,,,,,,,,,,,,FF,,,,,,,,1.7346,,,,,,,,,,,,,,,,,,,,,,60fd5ff30bc43791db242818,61036e246c80f4089f7f1147,2021-07-29_20h13.41.451,Simcolourproject_2stim_asymm_v5,2020.2.10,MacIntel,60,61025ae37ef11b136ea224fe,,,,,,,,,1890,-87.69238281,43.73916626,1,0,0,response7disk,,1,-13.53540039,-0.919494629,1,0,0,rectangle,-13.53540039,-0.919494629,1,0,0,-13.53540039,-0.919494629,1,0,0,1,49,209,8,1,,,,,,,,
,,,,,,,,,,,,,FF,,,,,,,,0.7959,,,,,,,,,,,,,,,,,,,,,,60fd5ff30bc43791db242818,61036e246c80f4089f7f1147,2021-07-29_20h13.41.451,Simcolourproject_2stim_asymm_v5,2020.2.10,MacIntel,60,61025ae37ef11b136ea224fe,,,,,,,,,2355,-36.04376221,84.55462646,1,0,0,response7disk,,0,-9.356506348,7.214050293,1,0,0,rectangle,-9.356506348,7.214050293,1,0,0,-9.356506348,7.214050293,1,0,0,1,50,210,39,1,,,,,,,,
,,,,,,,,,,,,,FF,,,,,,,,0.966,,,,,,,,,,,,,,,,,,,,,,60fd5ff30bc43791db242818,61036e246c80f4089f7f1147,2021-07-29_20h13.41.451,Simcolourproject_2stim_asymm_v5,2020.2.10,MacIntel,60,61025ae37ef11b136ea224fe,,,,,,,,,1145,-85.54870605,42.0428772,1,0,0,response7disk,,1,-4.351196289,-8.091400146,1,0,0,rectangle,-4.351196289,-8.091400146,1,0,0,-4.351196289,-8.091400146,1,0,0,1,51,211,96,1,,,,,,,,
,,,,,,,,,,,,,FF,,,,,,,,0.9831,,,,,,,,,,,,,,,,,,,,,,60fd5ff30bc43791db242818,61036e246c80f4089f7f1147,2021-07-29_20h13.41.451,Simcolourproject_2stim_asymm_v5,2020.2.10,MacIntel,60,61025ae37ef11b136ea224fe,,,,,,,,,470,-44.956604,-73.0279541,1,0,0,response5disk,,3,-10.20343018,-15.78817749,1,0,0,rectangle,-10.20343018,-15.78817749,1,0,0,-10.20343018,-15.78817749,1,0,0,1,52,212,122,1,,,,,,,,
,,,,,,,,,,,,,FF,,,,,,,,1.2164,,,,,,,,,,,,,,,,,,,,,,60fd5ff30bc43791db242818,61036e246c80f4089f7f1147,2021-07-29_20h13.41.451,Simcolourproject_2stim_asymm_v5,2020.2.10,MacIntel,60,61025ae37ef11b136ea224fe,,,,,,,,,4210,61.45385742,47.93908691,1,0,0,response1disk,,6,2.874816895,14.36358643,1,0,0,rectangle,2.874816895,14.36358643,1,0,0,2.874816895,14.36358643,1,0,0,1,53,213,94,1,,,,,,,,
,,,,,,,,,,,,,FF,,,,,,,,0.7495,,,,,,,,,,,,,,,,,,,,,,60fd5ff30bc43791db242818,61036e246c80f4089f7f1147,2021-07-29_20h13.41.451,Simcolourproject_2stim_asymm_v5,2020.2.10,MacIntel,60,61025ae37ef11b136ea224fe,,,,,,,,,3515,-86.21807861,53.81887817,1,0,0,response7disk,,1,-19.26324463,2.503875732,1,0,0,rectangle,-19.26324463,2.503875732,1,0,0,-19.26324463,2.503875732,1,0,0,1,54,214,19,1,,,,,,,,
,,,,,,,,,,,,,FF,,,,,,,,1.1342,,,,,,,,,,,,,,,,,,,,,,60fd5ff30bc43791db242818,61036e246c80f4089f7f1147,2021-07-29_20h13.41.451,Simcolourproject_2stim_asymm_v5,2020.2.10,MacIntel,60,61025ae37ef11b136ea224fe,,,,,,,,,1240,62.4598999,-42.98727417,1,0,0,response3disk,,5,-2.083190918,2.888977051,1,0,0,rectangle,-2.083190918,2.888977051,1,0,0,-2.083190918,2.888977051,1,0,0,1,55,215,83,1,,,,,,,,
,,,,,,,,,,,,,FF,,,,,,,,0.6838,,,,,,,,,,,,,,,,,,,,,,60fd5ff30bc43791db242818,61036e246c80f4089f7f1147,2021-07-29_20h13.41.451,Simcolourproject_2stim_asymm_v5,2020.2.10,MacIntel,60,61025ae37ef11b136ea224fe,,,,,,,,,3381,-46.06036377,81.30401611,1,0,0,response7disk,,0,-1.573730469,-9.445709229,1,0,0,rectangle,-1.573730469,-9.445709229,1,0,0,-1.573730469,-9.445709229,1,0,0,1,56,216,141,1,,,,,,,,
,,,,,,,,,,,,,FF,,,,,,,,0.7496,,,,,,,,,,,,,,,,,,,,,,60fd5ff30bc43791db242818,61036e246c80f4089f7f1147,2021-07-29_20h13.41.451,Simcolourproject_2stim_asymm_v5,2020.2.10,MacIntel,60,61025ae37ef11b136ea224fe,,,,,,,,,2542,-103.4793091,49.86767578,1,0,0,response7disk,,1,-17.13574219,-3.043762207,1,0,0,rectangle,-17.13574219,-3.043762207,1,0,0,-17.13574219,-3.043762207,1,0,0,1,57,217,60,1,,,,,,,,
,,,,,,,,,,,,,FF,,,,,,,,0.8181,,,,,,,,,,,,,,,,,,,,,,60fd5ff30bc43791db242818,61036e246c80f4089f7f1147,2021-07-29_20h13.41.451,Simcolourproject_2stim_asymm_v5,2020.2.10,MacIntel,60,61025ae37ef11b136ea224fe,,,,,,,,,1721,71.20855713,21.51681519,1,0,0,response1disk,,6,15.57196045,-2.133789063,1,0,0,rectangle,31.70220947,70.0562439,1,0,0,7.612426758,-6.72756958,1,0,0,1,58,218,120,1,,response1disk_3,TRUE,7,7,"[39,180,219,257,112,239,62,87,162,61,102,297,100,171,101,11,102,120,314,256]",1.6169,rectangle
,,,,,,,,,,,,,FF,,,,,,,,1.049,,,,,,,,,,,,,,,,,,,,,,60fd5ff30bc43791db242818,61036e246c80f4089f7f1147,2021-07-29_20h13.41.451,Simcolourproject_2stim_asymm_v5,2020.2.10,MacIntel,60,61025ae37ef11b136ea224fe,,,,,,,,,3322,91.09619141,51.47955322,1,0,0,response1disk,,6,27.82849121,15.42379761,1,0,0,rectangle,27.82849121,15.42379761,1,0,0,27.82849121,15.42379761,1,0,0,1,59,219,133,1,,,,,,,,
,,,,,,,,,,,,,FF,,,,,,,,1.0652,,,,,,,,,,,,,,,,,,,,,,60fd5ff30bc43791db242818,61036e246c80f4089f7f1147,2021-07-29_20h13.41.451,Simcolourproject_2stim_asymm_v5,2020.2.10,MacIntel,60,61025ae37ef11b136ea224fe,,,,,,,,,4155,36.2076416,-56.58776855,1,0,0,response3disk,,4,9.911193848,-0.002471924,1,0,0,rectangle,9.911193848,-0.002471924,1,0,0,9.911193848,-0.002471924,1,0,0,1,60,220,115,1,,,,,,,,
,,,,,,,,,,,,,FF,,,,,,,,0.7174,,,,,,,,,,,,,,,,,,,,,,60fd5ff30bc43791db242818,61036e246c80f4089f7f1147,2021-07-29_20h13.41.451,Simcolourproject_2stim_asymm_v5,2020.2.10,MacIntel,60,61025ae37ef11b136ea224fe,,,,,,,,,550,-62.90771484,39.96984863,1,0,0,response7disk,,1,-4.905822754,4.184265137,1,0,0,rectangle,-4.905822754,4.184265137,1,0,0,-4.905822754,4.184265137,1,0,0,1,61,221,29,1,,,,,,,,
,,,,,,,,,,,,,FF,,,,,,,,0.9349,,,,,,,,,,,,,,,,,,,,,,60fd5ff30bc43791db242818,61036e246c80f4089f7f1147,2021-07-29_20h13.41.451,Simcolourproject_2stim_asymm_v5,2020.2.10,MacIntel,60,61025ae37ef11b136ea224fe,,,,,,,,,4067,36.19952393,-63.1685791,1,0,0,response3disk,,4,0.68170166,-1.233734131,1,0,0,rectangle,0.68170166,-1.233734131,1,0,0,0.68170166,-1.233734131,1,0,0,1,62,222,52,1,,,,,,,,
,,,,,,,,,,,,,FF,,,,,,,,1.0529,,,,,,,,,,,,,,,,,,,,,,60fd5ff30bc43791db242818,61036e246c80f4089f7f1147,2021-07-29_20h13.41.451,Simcolourproject_2stim_asymm_v5,2020.2.10,MacIntel,60,61025ae37ef11b136ea224fe,,,,,,,,,979,-44.69268799,-77.97399902,1,0,0,response5disk,,3,3.606079102,-7.953857422,1,0,0,rectangle,3.606079102,-7.953857422,1,0,0,3.606079102,-7.953857422,1,0,0,1,63,223,105,1,,,,,,,,
,,,,,,,,,,,,,FF,,,,,,,,1.1163,,,,,,,,,,,,,,,,,,,,,,60fd5ff30bc43791db242818,61036e246c80f4089f7f1147,2021-07-29_20h13.41.451,Simcolourproject_2stim_asymm_v5,2020.2.10,MacIntel,60,61025ae37ef11b136ea224fe,,,,,,,,,1473,45.83001709,-66.04034424,1,0,0,response3disk,,4,20.27819824,-7.87097168,1,0,0,rectangle,20.27819824,-7.87097168,1,0,0,20.27819824,-7.87097168,1,0,0,1,64,224,106,1,,,,,,,,
,,,,,,,,,,,,,FF,,,,,,,,0.7794,,,,,,,,,,,,,,,,,,,,,,60fd5ff30bc43791db242818,61036e246c80f4089f7f1147,2021-07-29_20h13.41.451,Simcolourproject_2stim_asymm_v5,2020.2.10,MacIntel,60,61025ae37ef11b136ea224fe,,,,,,,,,3393,-77.20214844,-17.40994263,1,0,0,response5disk,,2,-1.544799805,6.21875,1,0,0,rectangle,-1.544799805,6.21875,1,0,0,-1.544799805,6.21875,1,0,0,1,65,225,108,1,,,,,,,,
,,,,,,,,,,,,,FF,,,,,,,,0.7849,,,,,,,,,,,,,,,,,,,,,,60fd5ff30bc43791db242818,61036e246c80f4089f7f1147,2021-07-29_20h13.41.451,Simcolourproject_2stim_asymm_v5,2020.2.10,MacIntel,60,61025ae37ef11b136ea224fe,,,,,,,,,2981,79.109375,-33.82699585,1,0,0,response3disk,,5,20.57720947,-2.847503662,1,0,0,rectangle,20.57720947,-2.847503662,1,0,0,20.57720947,-2.847503662,1,0,0,1,66,226,99,1,,,,,,,,
,,,,,,,,,,,,,FF,,,,,,,,1.083,,,,,,,,,,,,,,,,,,,,,,60fd5ff30bc43791db242818,61036e246c80f4089f7f1147,2021-07-29_20h13.41.451,Simcolourproject_2stim_asymm_v5,2020.2.10,MacIntel,60,61025ae37ef11b136ea224fe,,,,,,,,,13,-40.42944336,-80.01043701,1,0,0,response5disk,,3,5.944030762,-3.315124512,1,0,0,rectangle,5.944030762,-3.315124512,1,0,0,5.944030762,-3.315124512,1,0,0,1,67,227,7,1,,,,,,,,
,,,,,,,,,,,,,FF,,,,,,,,0.7016,,,,,,,,,,,,,,,,,,,,,,60fd5ff30bc43791db242818,61036e246c80f4089f7f1147,2021-07-29_20h13.41.451,Simcolourproject_2stim_asymm_v5,2020.2.10,MacIntel,60,61025ae37ef11b136ea224fe,,,,,,,,,4200,-44.36291504,77.95373535,1,0,0,response7disk,,0,-8.814086914,6.263916016,1,0,0,rectangle,-8.814086914,6.263916016,1,0,0,-8.814086914,6.263916016,1,0,0,1,68,228,137,1,,,,,,,,
,,,,,,,,,,,,,FF,,,,,,,,1.0679,,,,,,,,,,,,,,,,,,,,,,60fd5ff30bc43791db242818,61036e246c80f4089f7f1147,2021-07-29_20h13.41.451,Simcolourproject_2stim_asymm_v5,2020.2.10,MacIntel,60,61025ae37ef11b136ea224fe,,,,,,,,,860,-80.48492432,-55.44766235,1,0,0,response5disk,,2,-7.084289551,-1.839569092,1,0,0,rectangle,-7.084289551,-1.839569092,1,0,0,-7.084289551,-1.839569092,1,0,0,1,69,229,33,1,,,,,,,,
,,,,,,,,,,,,,FF,,,,,,,,0.9158,,,,,,,,,,,,,,,,,,,,,,60fd5ff30bc43791db242818,61036e246c80f4089f7f1147,2021-07-29_20h13.41.451,Simcolourproject_2stim_asymm_v5,2020.2.10,MacIntel,60,61025ae37ef11b136ea224fe,,,,,,,,,2670,-79.93981934,29.67910767,1,0,0,response7disk,,1,-16.84405518,-13.62420654,1,0,0,rectangle,-16.84405518,-13.62420654,1,0,0,-16.84405518,-13.62420654,1,0,0,1,70,230,104,1,,,,,,,,
,,,,,,,,,,,,,FF,,,,,,,,0.9,,,,,,,,,,,,,,,,,,,,,,60fd5ff30bc43791db242818,61036e246c80f4089f7f1147,2021-07-29_20h13.41.451,Simcolourproject_2stim_asymm_v5,2020.2.10,MacIntel,60,61025ae37ef11b136ea224fe,,,,,,,,,3327,-37.32434082,-79.37194824,1,0,0,response5disk,,3,7.636657715,-2.7394104,1,0,0,rectangle,7.636657715,-2.7394104,1,0,0,7.636657715,-2.7394104,1,0,0,1,71,231,79,1,,,,,,,,
,,,,,,,,,,,,,FF,,,,,,,,0.7503,,,,,,,,,,,,,,,,,,,,,,60fd5ff30bc43791db242818,61036e246c80f4089f7f1147,2021-07-29_20h13.41.451,Simcolourproject_2stim_asymm_v5,2020.2.10,MacIntel,60,61025ae37ef11b136ea224fe,,,,,,,,,1379,-95.45788574,-32.48510742,1,0,0,response5disk,,2,5.656311035,-0.475341797,1,0,0,rectangle,5.656311035,-0.475341797,1,0,0,5.656311035,-0.475341797,1,0,0,1,72,232,121,1,,,,,,,,
,,,,,,,,,,,,,FF,,,,,,,,0.9165,,,,,,,,,,,,,,,,,,,,,,60fd5ff30bc43791db242818,61036e246c80f4089f7f1147,2021-07-29_20h13.41.451,Simcolourproject_2stim_asymm_v5,2020.2.10,MacIntel,60,61025ae37ef11b136ea224fe,,,,,,,,,1950,-52.66986084,-77.48913574,1,0,0,response5disk,,3,6.452026367,2.374542236,1,0,0,rectangle,6.452026367,2.374542236,1,0,0,6.452026367,2.374542236,1,0,0,1,73,233,71,1,,,,,,,,
,,,,,,,,,,,,,FF,,,,,,,,0.8501,,,,,,,,,,,,,,,,,,,,,,60fd5ff30bc43791db242818,61036e246c80f4089f7f1147,2021-07-29_20h13.41.451,Simcolourproject_2stim_asymm_v5,2020.2.10,MacIntel,60,61025ae37ef11b136ea224fe,,,,,,,,,2937,-100.4042358,-30.05633545,1,0,0,response5disk,,2,-2.973144531,-11.34713745,1,0,0,rectangle,-2.973144531,-11.34713745,1,0,0,-2.973144531,-11.34713745,1,0,0,1,74,234,148,1,,,,,,,,
,,,,,,,,,,,,,FF,,,,,,,,0.896,,,,,,,,,,,,,,,,,,,,,,60fd5ff30bc43791db242818,61036e246c80f4089f7f1147,2021-07-29_20h13.41.451,Simcolourproject_2stim_asymm_v5,2020.2.10,MacIntel,60,61025ae37ef11b136ea224fe,,,,,,,,,3839,-43.67199707,-72.21008301,1,0,0,response5disk,,3,6.700744629,3.358062744,1,0,0,rectangle,6.700744629,3.358062744,1,0,0,6.700744629,3.358062744,1,0,0,1,75,235,50,1,,,,,,,,
,,,,,,,,,,,,,FF,,,,,,,,0.9004,,,,,,,,,,,,,,,,,,,,,,60fd5ff30bc43791db242818,61036e246c80f4089f7f1147,2021-07-29_20h13.41.451,Simcolourproject_2stim_asymm_v5,2020.2.10,MacIntel,60,61025ae37ef11b136ea224fe,,,,,,,,,1377,-76.8137207,44.62280273,1,0,0,response7disk,,1,-9.601257324,-6.671875,1,0,0,rectangle,-9.601257324,-6.671875,1,0,0,-9.601257324,-6.671875,1,0,0,1,76,236,70,1,,,,,,,,
,,,,,,,,,,,,,FF,,,,,,,,1.412,,,,,,,,,,,,,,,,,,,,,,60fd5ff30bc43791db242818,61036e246c80f4089f7f1147,2021-07-29_20h13.41.451,Simcolourproject_2stim_asymm_v5,2020.2.10,MacIntel,60,61025ae37ef11b136ea224fe,,,,,,,,,4347,-86.41687012,-66.68212891,1,0,0,response5disk,,2,8.456970215,1.783355713,1,0,0,rectangle,8.456970215,1.783355713,1,0,0,8.456970215,1.783355713,1,0,0,1,77,237,111,1,,,,,,,,
,,,,,,,,,,,,,FF,,,,,,,,0.9002,,,,,,,,,,,,,,,,,,,,,,60fd5ff30bc43791db242818,61036e246c80f4089f7f1147,2021-07-29_20h13.41.451,Simcolourproject_2stim_asymm_v5,2020.2.10,MacIntel,60,61025ae37ef11b136ea224fe,,,,,,,,,2648,76.29125977,-25.14724731,1,0,0,response3disk,,5,23.82855225,3.197998047,1,0,0,rectangle,-40.83050537,-76.28216553,1,0,0,8.905700684,-0.672088623,1,0,0,1,78,238,131,1,,response5disk_3,TRUE,3,3,"[39,180,219,257,112,239,62,87,162,61,102,297,100,171,101,11,102,120,314,256]",1.9324,rectangle
,,,,,,,,,,,,,FF,,,,,,,,0.9342,,,,,,,,,,,,,,,,,,,,,,60fd5ff30bc43791db242818,61036e246c80f4089f7f1147,2021-07-29_20h13.41.451,Simcolourproject_2stim_asymm_v5,2020.2.10,MacIntel,60,61025ae37ef11b136ea224fe,,,,,,,,,1457,-72.31524658,-40.34002686,1,0,0,response5disk,,2,-6.222839355,-3.280090332,1,0,0,rectangle,-6.222839355,-3.280090332,1,0,0,-6.222839355,-3.280090332,1,0,0,1,79,239,16,1,,,,,,,,
,,,,,,,,,,,,,FF,,,,,,,,0.7993,,,,,,,,,,,,,,,,,,,,,,60fd5ff30bc43791db242818,61036e246c80f4089f7f1147,2021-07-29_20h13.41.451,Simcolourproject_2stim_asymm_v5,2020.2.10,MacIntel,60,61025ae37ef11b136ea224fe,,,,,,,,,1373,-86.52264404,-51.15286255,1,0,0,response5disk,,2,-23.12683105,5.804931641,1,0,0,rectangle,-23.12683105,5.804931641,1,0,0,-23.12683105,5.804931641,1,0,0,1,80,240,17,1,,,,,,,,
