key_resp.keys,key_resp.rt,key_resp_14.keys,key_resp_14.rt,key_resp_15.keys,key_resp_15.rt,key_resp_17.keys,key_resp_17.rt,key_resp_9.keys,key_resp_9.rt,key_resp_10.keys,key_resp_10.rt,practice_comparison,Ecc,mouse_5.x,mouse_5.y,mouse_5.leftButton,mouse_5.midButton,mouse_5.rightButton,mouse_5.clicked_name,pracsimilarity,response_time,mouse_10.x,mouse_10.y,mouse_10.leftButton,mouse_10.midButton,mouse_10.rightButton,mouse_10.clicked_name,mouse_7.x,mouse_7.y,mouse_7.leftButton,mouse_7.midButton,mouse_7.rightButton,mouse_6.x,mouse_6.y,mouse_6.leftButton,mouse_6.midButton,mouse_6.rightButton,duringprac.thisRepN,duringprac.thisTrialN,duringprac.thisN,duringprac.thisIndex,duringprac.ran,participant,session,date,expName,psychopyVersion,OS,frameRate,study_id,mouse_7.clicked_name,catchpracsimilarity,catch_response_time,catchnumberprac,catchtrialorderprac,mouse_6.clicked_name,key_resp_22.keys,key_resp_22.rt,realcomparison,mouse.x,mouse.y,mouse.leftButton,mouse.midButton,mouse.rightButton,mouse.clicked_name,Colour2,similarity,mouse_2.x,mouse_2.y,mouse_2.leftButton,mouse_2.midButton,mouse_2.rightButton,mouse_2.clicked_name,mouse_3.x,mouse_3.y,mouse_3.leftButton,mouse_3.midButton,mouse_3.rightButton,mouse_11.x,mouse_11.y,mouse_11.leftButton,mouse_11.midButton,mouse_11.rightButton,trials_2.thisRepN,trials_2.thisTrialN,trials_2.thisN,trials_2.thisIndex,trials_2.ran,Colour1,mouse_3.clicked_name,catchornah,catchsimilarity,catchnumber,catchtrialorder,catchRT,mouse_11.clicked_name
space,4.8604,space,16.4943,space,29.759,space,8.7281,space,5.7728,space,4.5196,83,PF,-95.19998997,-48.00000715,1,0,0,response5disk_5,2,14.6169,-8.799988687,-0.800006449,1,0,0,rectangle_8,-8.799988687,-0.800006449,1,0,0,-8.799988687,-0.800006449,1,0,0,0,0,0,6,1,60fdb491fed04550de2a2068,61036dbc0932c682af6e03df,2021-07-29_23h13.47.463,Simcolourproject_2stim_asymm_v5,2020.2.10,Win32,60,61025ae37ef11b136ea224fe,,,,,,,,,,,,,,,,,,,,,,,,,,,,,,,,,,,,,,,,,,,,,,
,,,,,,,,,,,,132,FF,41.60006089,75.19997027,1,0,0,response1disk_5,7,3.7591,5.600060356,0.799993575,1,0,0,rectangle_8,39.20001203,99.19997063,1,0,0,4.000011504,10.39999372,1,0,0,0,1,1,5,1,60fdb491fed04550de2a2068,61036dbc0932c682af6e03df,2021-07-29_23h13.47.463,Simcolourproject_2stim_asymm_v5,2020.2.10,Win32,60,61025ae37ef11b136ea224fe,response1disk_7,7,2.6333,7,"[2,5]",rectangle_4,,,,,,,,,,,,,,,,,,,,,,,,,,,,,,,,,,,,,,,,
,,,,,,,,,,,,149,PF,48.80001217,92.79999495,1,0,0,response1disk_5,7,6.8109,-15.19998878,-4.000006497,1,0,0,rectangle_8,-15.19998878,-4.000006497,1,0,0,-15.19998878,-4.000006497,1,0,0,0,2,2,1,1,60fdb491fed04550de2a2068,61036dbc0932c682af6e03df,2021-07-29_23h13.47.463,Simcolourproject_2stim_asymm_v5,2020.2.10,Win32,60,61025ae37ef11b136ea224fe,,,,,,,,,,,,,,,,,,,,,,,,,,,,,,,,,,,,,,,,,,,,,,
,,,,,,,,,,,,37,FF,-54.39994054,91.99999493,1,0,0,response7disk_5,0,2.8843,3.200011492,3.999993622,1,0,0,rectangle_8,3.200011492,3.999993622,1,0,0,3.200011492,3.999993622,1,0,0,0,3,3,0,1,60fdb491fed04550de2a2068,61036dbc0932c682af6e03df,2021-07-29_23h13.47.463,Simcolourproject_2stim_asymm_v5,2020.2.10,Win32,60,61025ae37ef11b136ea224fe,,,,,,,,,,,,,,,,,,,,,,,,,,,,,,,,,,,,,,,,,,,,,,
,,,,,,,,,,,,82,FF,80.80001265,-49.60000718,1,0,0,response3disk_5,5,7.4602,3.200011492,-4.000006497,1,0,0,rectangle_8,41.60006089,103.1999707,1,0,0,-0.799988568,-2.400006473,1,0,0,0,4,4,3,1,60fdb491fed04550de2a2068,61036dbc0932c682af6e03df,2021-07-29_23h13.47.463,Simcolourproject_2stim_asymm_v5,2020.2.10,Win32,60,61025ae37ef11b136ea224fe,response1disk_7,7,2.1967,7,"[2,5]",rectangle_4,,,,,,,,,,,,,,,,,,,,,,,,,,,,,,,,,,,,,,,,
,,,,,,,,,,,,70,PF,92.80001283,45.59999424,1,0,0,response1disk_5,6,2.7482,-15.99998879,-8.000006557,1,0,0,rectangle_8,-15.99998879,-8.000006557,1,0,0,-15.99998879,-8.000006557,1,0,0,0,5,5,2,1,60fdb491fed04550de2a2068,61036dbc0932c682af6e03df,2021-07-29_23h13.47.463,Simcolourproject_2stim_asymm_v5,2020.2.10,Win32,60,61025ae37ef11b136ea224fe,,,,,,,,,,,,,,,,,,,,,,,,,,,,,,,,,,,,,,,,,,,,,,
,,,,,,,,,,,,33,PF,38.40001202,70.39999461,1,0,0,response1disk_5,7,9.2147,3.200011492,3.19999361,1,0,0,rectangle_8,3.200011492,3.19999361,1,0,0,3.200011492,3.19999361,1,0,0,0,6,6,4,1,60fdb491fed04550de2a2068,61036dbc0932c682af6e03df,2021-07-29_23h13.47.463,Simcolourproject_2stim_asymm_v5,2020.2.10,Win32,60,61025ae37ef11b136ea224fe,,,,,,,,,,,,,,,,,,,,,,,,,,,,,,,,,,,,,,,,,,,,,,
,,,,,,,,,,,,,FF,,,,,,,,1.9337,,,,,,,,,,,,,,,,,,,,,,60fdb491fed04550de2a2068,61036dbc0932c682af6e03df,2021-07-29_23h13.47.463,Simcolourproject_2stim_asymm_v5,2020.2.10,Win32,60,61025ae37ef11b136ea224fe,,,,,,,space,2.1187,2844,33.60006077,70.39999461,1,0,0,response1disk,,7,-5.599988639,-0.800006449,1,0,0,rectangle,-5.599988639,-0.800006449,1,0,0,-5.599988639,-0.800006449,1,0,0,0,0,0,62,1,,,,,,,,
,,,,,,,,,,,,,FF,,,,,,,,2.7635,,,,,,,,,,,,,,,,,,,,,,60fdb491fed04550de2a2068,61036dbc0932c682af6e03df,2021-07-29_23h13.47.463,Simcolourproject_2stim_asymm_v5,2020.2.10,Win32,60,61025ae37ef11b136ea224fe,,,,,,,,,1457,-58.3999406,-74.40000755,1,0,0,response5disk,,3,16.00001168,3.999993622,1,0,0,rectangle,16.00001168,3.999993622,1,0,0,16.00001168,3.999993622,1,0,0,0,1,1,119,1,,,,,,,,
,,,,,,,,,,,,,FF,,,,,,,,1.4322,,,,,,,,,,,,,,,,,,,,,,60fdb491fed04550de2a2068,61036dbc0932c682af6e03df,2021-07-29_23h13.47.463,Simcolourproject_2stim_asymm_v5,2020.2.10,Win32,60,61025ae37ef11b136ea224fe,,,,,,,,,3032,56.00001228,96.79999501,1,0,0,response1disk,,7,-17.59998882,-2.400006473,1,0,0,rectangle,-17.59998882,-2.400006473,1,0,0,-17.59998882,-2.400006473,1,0,0,0,2,2,69,1,,,,,,,,
,,,,,,,,,,,,,FF,,,,,,,,2.9803,,,,,,,,,,,,,,,,,,,,,,60fdb491fed04550de2a2068,61036dbc0932c682af6e03df,2021-07-29_23h13.47.463,Simcolourproject_2stim_asymm_v5,2020.2.10,Win32,60,61025ae37ef11b136ea224fe,,,,,,,,,1471,-67.99998957,-36.00000697,1,0,0,response5disk,,2,1.600060296,6.399993658,1,0,0,rectangle,1.600060296,6.399993658,1,0,0,1.600060296,6.399993658,1,0,0,0,3,3,109,1,,,,,,,,
,,,,,,,,,,,,,FF,,,,,,,,1.6188,,,,,,,,,,,,,,,,,,,,,,60fdb491fed04550de2a2068,61036dbc0932c682af6e03df,2021-07-29_23h13.47.463,Simcolourproject_2stim_asymm_v5,2020.2.10,Win32,60,61025ae37ef11b136ea224fe,,,,,,,,,902,-58.3999406,-79.20000762,1,0,0,response5disk,,3,-1.59998858,-7.200006545,1,0,0,rectangle,-1.59998858,-7.200006545,1,0,0,-1.59998858,-7.200006545,1,0,0,0,4,4,74,1,,,,,,,,
,,,,,,,,,,,,,FF,,,,,,,,3.7136,,,,,,,,,,,,,,,,,,,,,,60fdb491fed04550de2a2068,61036dbc0932c682af6e03df,2021-07-29_23h13.47.463,Simcolourproject_2stim_asymm_v5,2020.2.10,Win32,60,61025ae37ef11b136ea224fe,,,,,,,,,3651,91.2000128,24.79999393,1,0,0,response1disk,,6,-3.999988616,-12.00000662,1,0,0,rectangle,-3.999988616,-12.00000662,1,0,0,-3.999988616,-12.00000662,1,0,0,0,5,5,8,1,,,,,,,,
,,,,,,,,,,,,,FF,,,,,,,,1.7496,,,,,,,,,,,,,,,,,,,,,,60fdb491fed04550de2a2068,61036dbc0932c682af6e03df,2021-07-29_23h13.47.463,Simcolourproject_2stim_asymm_v5,2020.2.10,Win32,60,61025ae37ef11b136ea224fe,,,,,,,,,128,68.00001246,33.59999406,1,0,0,response1disk,,6,-7.999988675,0.799993575,1,0,0,rectangle,-71.99998963,-34.40000695,1,0,0,-4.799988627,-0.800006449,1,0,0,0,6,6,34,1,,response5disk_3,TRUE,2,2,"[7,284,205,52,171,261,167,318,36,292,103,267,125,112,288,51,124,224,239,160]",2.2664,rectangle
,,,,,,,,,,,,,FF,,,,,,,,4.0853,,,,,,,,,,,,,,,,,,,,,,60fdb491fed04550de2a2068,61036dbc0932c682af6e03df,2021-07-29_23h13.47.463,Simcolourproject_2stim_asymm_v5,2020.2.10,Win32,60,61025ae37ef11b136ea224fe,,,,,,,,,4197,103.200013,48.79999429,1,0,0,response1disk,,6,1.14441E-05,-4.000006497,1,0,0,rectangle,1.14441E-05,-4.000006497,1,0,0,1.14441E-05,-4.000006497,1,0,0,0,7,7,86,1,,,,,,,,
,,,,,,,,,,,,,FF,,,,,,,,1.0994,,,,,,,,,,,,,,,,,,,,,,60fdb491fed04550de2a2068,61036dbc0932c682af6e03df,2021-07-29_23h13.47.463,Simcolourproject_2stim_asymm_v5,2020.2.10,Win32,60,61025ae37ef11b136ea224fe,,,,,,,,,712,68.00001246,35.9999941,1,0,0,response1disk,,6,3.200011492,4.799993634,1,0,0,rectangle,3.200011492,4.799993634,1,0,0,3.200011492,4.799993634,1,0,0,0,8,8,9,1,,,,,,,,
,,,,,,,,,,,,,FF,,,,,,,,2.7546,,,,,,,,,,,,,,,,,,,,,,60fdb491fed04550de2a2068,61036dbc0932c682af6e03df,2021-07-29_23h13.47.463,Simcolourproject_2stim_asymm_v5,2020.2.10,Win32,60,61025ae37ef11b136ea224fe,,,,,,,,,427,-51.99998933,-89.6000566,1,0,0,response5disk,,3,12.00001162,-9.60000658,1,0,0,rectangle,12.00001162,-9.60000658,1,0,0,12.00001162,-9.60000658,1,0,0,0,9,9,103,1,,,,,,,,
,,,,,,,,,,,,,FF,,,,,,,,1.9482,,,,,,,,,,,,,,,,,,,,,,60fdb491fed04550de2a2068,61036dbc0932c682af6e03df,2021-07-29_23h13.47.463,Simcolourproject_2stim_asymm_v5,2020.2.10,Win32,60,61025ae37ef11b136ea224fe,,,,,,,,,1148,-55.19998938,-68.80000746,1,0,0,response5disk,,3,3.200011492,2.399993598,1,0,0,rectangle,3.200011492,2.399993598,1,0,0,3.200011492,2.399993598,1,0,0,0,10,10,94,1,,,,,,,,
,,,,,,,,,,,,,FF,,,,,,,,1.4203,,,,,,,,,,,,,,,,,,,,,,60fdb491fed04550de2a2068,61036dbc0932c682af6e03df,2021-07-29_23h13.47.463,Simcolourproject_2stim_asymm_v5,2020.2.10,Win32,60,61025ae37ef11b136ea224fe,,,,,,,,,602,-47.19998926,-68.80000746,1,0,0,response5disk,,3,16.80001169,-6.4373E-06,1,0,0,rectangle,16.80001169,-6.4373E-06,1,0,0,16.80001169,-6.4373E-06,1,0,0,0,11,11,82,1,,,,,,,,
,,,,,,,,,,,,,FF,,,,,,,,1.4142,,,,,,,,,,,,,,,,,,,,,,60fdb491fed04550de2a2068,61036dbc0932c682af6e03df,2021-07-29_23h13.47.463,Simcolourproject_2stim_asymm_v5,2020.2.10,Win32,60,61025ae37ef11b136ea224fe,,,,,,,,,1654,76.00001258,46.39999425,1,0,0,response1disk,,6,-3.199988604,-0.800006449,1,0,0,rectangle,-3.199988604,-0.800006449,1,0,0,-3.199988604,-0.800006449,1,0,0,0,12,12,52,1,,,,,,,,
,,,,,,,,,,,,,FF,,,,,,,,1.4824,,,,,,,,,,,,,,,,,,,,,,60fdb491fed04550de2a2068,61036dbc0932c682af6e03df,2021-07-29_23h13.47.463,Simcolourproject_2stim_asymm_v5,2020.2.10,Win32,60,61025ae37ef11b136ea224fe,,,,,,,,,716,-77.59998971,35.9999941,1,0,0,response7disk,,1,2.40001148,2.399993598,1,0,0,rectangle,2.40001148,2.399993598,1,0,0,2.40001148,2.399993598,1,0,0,0,13,13,30,1,,,,,,,,
,,,,,,,,,,,,,FF,,,,,,,,3.4476,,,,,,,,,,,,,,,,,,,,,,60fdb491fed04550de2a2068,61036dbc0932c682af6e03df,2021-07-29_23h13.47.463,Simcolourproject_2stim_asymm_v5,2020.2.10,Win32,60,61025ae37ef11b136ea224fe,,,,,,,,,1582,85.60001272,-28.00000685,1,0,0,response3disk,,5,-21.59998888,-1.600006461,1,0,0,rectangle,-21.59998888,-1.600006461,1,0,0,-21.59998888,-1.600006461,1,0,0,0,14,14,29,1,,,,,,,,
,,,,,,,,,,,,,FF,,,,,,,,1.2717,,,,,,,,,,,,,,,,,,,,,,60fdb491fed04550de2a2068,61036dbc0932c682af6e03df,2021-07-29_23h13.47.463,Simcolourproject_2stim_asymm_v5,2020.2.10,Win32,60,61025ae37ef11b136ea224fe,,,,,,,,,1150,-37.59998912,-80.00000763,1,0,0,response5disk,,3,20.80001175,4.799993634,1,0,0,rectangle,20.80001175,4.799993634,1,0,0,20.80001175,4.799993634,1,0,0,0,15,15,0,1,,,,,,,,
,,,,,,,,,,,,,FF,,,,,,,,1.1545,,,,,,,,,,,,,,,,,,,,,,60fdb491fed04550de2a2068,61036dbc0932c682af6e03df,2021-07-29_23h13.47.463,Simcolourproject_2stim_asymm_v5,2020.2.10,Win32,60,61025ae37ef11b136ea224fe,,,,,,,,,3668,-39.99998915,69.5999946,1,0,0,response7disk,,0,9.600060415,0.799993575,1,0,0,rectangle,9.600060415,0.799993575,1,0,0,9.600060415,0.799993575,1,0,0,0,16,16,98,1,,,,,,,,
,,,,,,,,,,,,,FF,,,,,,,,1.6151,,,,,,,,,,,,,,,,,,,,,,60fdb491fed04550de2a2068,61036dbc0932c682af6e03df,2021-07-29_23h13.47.463,Simcolourproject_2stim_asymm_v5,2020.2.10,Win32,60,61025ae37ef11b136ea224fe,,,,,,,,,1356,75.20001256,-36.80000699,1,0,0,response3disk,,5,0.800011456,8.799993694,1,0,0,rectangle,0.800011456,8.799993694,1,0,0,0.800011456,8.799993694,1,0,0,0,17,17,6,1,,,,,,,,
,,,,,,,,,,,,,FF,,,,,,,,1.7663,,,,,,,,,,,,,,,,,,,,,,60fdb491fed04550de2a2068,61036dbc0932c682af6e03df,2021-07-29_23h13.47.463,Simcolourproject_2stim_asymm_v5,2020.2.10,Win32,60,61025ae37ef11b136ea224fe,,,,,,,,,4054,44.0000121,-102.400008,1,0,0,response3disk,,4,-3.999988616,-0.800006449,1,0,0,rectangle,-3.999988616,-0.800006449,1,0,0,-3.999988616,-0.800006449,1,0,0,0,18,18,101,1,,,,,,,,
,,,,,,,,,,,,,FF,,,,,,,,1.2823,,,,,,,,,,,,,,,,,,,,,,60fdb491fed04550de2a2068,61036dbc0932c682af6e03df,2021-07-29_23h13.47.463,Simcolourproject_2stim_asymm_v5,2020.2.10,Win32,60,61025ae37ef11b136ea224fe,,,,,,,,,3977,-39.19998914,-78.40000761,1,0,0,response5disk,,3,0.800011456,-2.400006473,1,0,0,rectangle,0.800011456,-2.400006473,1,0,0,0.800011456,-2.400006473,1,0,0,0,19,19,129,1,,,,,,,,
,,,,,,,,,,,,,FF,,,,,,,,2.2971,,,,,,,,,,,,,,,,,,,,,,60fdb491fed04550de2a2068,61036dbc0932c682af6e03df,2021-07-29_23h13.47.463,Simcolourproject_2stim_asymm_v5,2020.2.10,Win32,60,61025ae37ef11b136ea224fe,,,,,,,,,14,84.80001271,72.79999465,1,0,0,response1disk,,6,-8.799988687,-11.2000066,1,0,0,rectangle,-8.799988687,-11.2000066,1,0,0,-8.799988687,-11.2000066,1,0,0,0,20,20,150,1,,,,,,,,
,,,,,,,,,,,,,FF,,,,,,,,0.9201,,,,,,,,,,,,,,,,,,,,,,60fdb491fed04550de2a2068,61036dbc0932c682af6e03df,2021-07-29_23h13.47.463,Simcolourproject_2stim_asymm_v5,2020.2.10,Win32,60,61025ae37ef11b136ea224fe,,,,,,,,,218,71.20001251,42.39999419,1,0,0,response1disk,,6,4.800011516,3.999993622,1,0,0,rectangle,4.800011516,3.999993622,1,0,0,4.800011516,3.999993622,1,0,0,0,21,21,26,1,,,,,,,,
,,,,,,,,,,,,,FF,,,,,,,,5.0797,,,,,,,,,,,,,,,,,,,,,,60fdb491fed04550de2a2068,61036dbc0932c682af6e03df,2021-07-29_23h13.47.463,Simcolourproject_2stim_asymm_v5,2020.2.10,Win32,60,61025ae37ef11b136ea224fe,,,,,,,,,1825,81.60001266,-40.80000705,1,0,0,response3disk,,5,-18.39994,1.599993587,1,0,0,rectangle,-18.39994,1.599993587,1,0,0,-18.39994,1.599993587,1,0,0,0,22,22,121,1,,,,,,,,
,,,,,,,,,,,,,FF,,,,,,,,6.2795,,,,,,,,,,,,,,,,,,,,,,60fdb491fed04550de2a2068,61036dbc0932c682af6e03df,2021-07-29_23h13.47.463,Simcolourproject_2stim_asymm_v5,2020.2.10,Win32,60,61025ae37ef11b136ea224fe,,,,,,,,,530,-45.59998924,-96.80000788,1,0,0,response5disk,,3,-22.39994006,-8.000006557,1,0,0,rectangle,-22.39994006,-8.000006557,1,0,0,-22.39994006,-8.000006557,1,0,0,0,23,23,3,1,,,,,,,,
,,,,,,,,,,,,,FF,,,,,,,,1.1712,,,,,,,,,,,,,,,,,,,,,,60fdb491fed04550de2a2068,61036dbc0932c682af6e03df,2021-07-29_23h13.47.463,Simcolourproject_2stim_asymm_v5,2020.2.10,Win32,60,61025ae37ef11b136ea224fe,,,,,,,,,3411,95.20001286,66.39999455,1,0,0,response1disk,,6,1.600060296,-1.600006461,1,0,0,rectangle,1.600060296,-1.600006461,1,0,0,1.600060296,-1.600006461,1,0,0,0,24,24,149,1,,,,,,,,
,,,,,,,,,,,,,FF,,,,,,,,1.5659,,,,,,,,,,,,,,,,,,,,,,60fdb491fed04550de2a2068,61036dbc0932c682af6e03df,2021-07-29_23h13.47.463,Simcolourproject_2stim_asymm_v5,2020.2.10,Win32,60,61025ae37ef11b136ea224fe,,,,,,,,,3918,-35.99998909,-64.8000074,1,0,0,response5disk,,3,4.800011516,3.999993622,1,0,0,rectangle,4.800011516,3.999993622,1,0,0,4.800011516,3.999993622,1,0,0,0,25,25,67,1,,,,,,,,
,,,,,,,,,,,,,FF,,,,,,,,1.6152,,,,,,,,,,,,,,,,,,,,,,60fdb491fed04550de2a2068,61036dbc0932c682af6e03df,2021-07-29_23h13.47.463,Simcolourproject_2stim_asymm_v5,2020.2.10,Win32,60,61025ae37ef11b136ea224fe,,,,,,,,,3571,47.20001215,55.9999944,1,0,0,response1disk,,7,-8.799988687,-8.800006568,1,0,0,rectangle,-8.799988687,-8.800006568,1,0,0,-8.799988687,-8.800006568,1,0,0,0,26,26,60,1,,,,,,,,
,,,,,,,,,,,,,FF,,,,,,,,1.1995,,,,,,,,,,,,,,,,,,,,,,60fdb491fed04550de2a2068,61036dbc0932c682af6e03df,2021-07-29_23h13.47.463,Simcolourproject_2stim_asymm_v5,2020.2.10,Win32,60,61025ae37ef11b136ea224fe,,,,,,,,,4226,72.80001253,39.99999416,1,0,0,response1disk,,6,-1.59998858,-7.200006545,1,0,0,rectangle,-1.59998858,-7.200006545,1,0,0,-1.59998858,-7.200006545,1,0,0,0,27,27,7,1,,,,,,,,
,,,,,,,,,,,,,FF,,,,,,,,1.532,,,,,,,,,,,,,,,,,,,,,,60fdb491fed04550de2a2068,61036dbc0932c682af6e03df,2021-07-29_23h13.47.463,Simcolourproject_2stim_asymm_v5,2020.2.10,Win32,60,61025ae37ef11b136ea224fe,,,,,,,,,3055,54.40001225,-36.80000699,1,0,0,response3disk,,5,-19.99998885,7.999993682,1,0,0,rectangle,-19.99998885,7.999993682,1,0,0,-19.99998885,7.999993682,1,0,0,0,28,28,96,1,,,,,,,,
,,,,,,,,,,,,,FF,,,,,,,,1.0496,,,,,,,,,,,,,,,,,,,,,,60fdb491fed04550de2a2068,61036dbc0932c682af6e03df,2021-07-29_23h13.47.463,Simcolourproject_2stim_asymm_v5,2020.2.10,Win32,60,61025ae37ef11b136ea224fe,,,,,,,,,3013,31.20001191,-74.40000755,1,0,0,response3disk,,4,1.14441E-05,3.999993622,1,0,0,rectangle,1.14441E-05,3.999993622,1,0,0,1.14441E-05,3.999993622,1,0,0,0,29,29,117,1,,,,,,,,
,,,,,,,,,,,,,FF,,,,,,,,0.8326,,,,,,,,,,,,,,,,,,,,,,60fdb491fed04550de2a2068,61036dbc0932c682af6e03df,2021-07-29_23h13.47.463,Simcolourproject_2stim_asymm_v5,2020.2.10,Win32,60,61025ae37ef11b136ea224fe,,,,,,,,,1241,-81.59998977,-39.20000702,1,0,0,response5disk,,2,9.600060415,6.399993658,1,0,0,rectangle,9.600060415,6.399993658,1,0,0,9.600060415,6.399993658,1,0,0,0,30,30,125,1,,,,,,,,
,,,,,,,,,,,,,FF,,,,,,,,0.7661,,,,,,,,,,,,,,,,,,,,,,60fdb491fed04550de2a2068,61036dbc0932c682af6e03df,2021-07-29_23h13.47.463,Simcolourproject_2stim_asymm_v5,2020.2.10,Win32,60,61025ae37ef11b136ea224fe,,,,,,,,,1768,-73.59998965,-35.20000696,1,0,0,response5disk,,2,10.4000116,3.999993622,1,0,0,rectangle,10.4000116,3.999993622,1,0,0,10.4000116,3.999993622,1,0,0,0,31,31,95,1,,,,,,,,
,,,,,,,,,,,,,FF,,,,,,,,1.1,,,,,,,,,,,,,,,,,,,,,,60fdb491fed04550de2a2068,61036dbc0932c682af6e03df,2021-07-29_23h13.47.463,Simcolourproject_2stim_asymm_v5,2020.2.10,Win32,60,61025ae37ef11b136ea224fe,,,,,,,,,1013,-35.99998909,-82.40000767,1,0,0,response5disk,,3,8.800011575,3.19999361,1,0,0,rectangle,8.800011575,3.19999361,1,0,0,8.800011575,3.19999361,1,0,0,0,32,32,71,1,,,,,,,,
,,,,,,,,,,,,,FF,,,,,,,,5.2952,,,,,,,,,,,,,,,,,,,,,,60fdb491fed04550de2a2068,61036dbc0932c682af6e03df,2021-07-29_23h13.47.463,Simcolourproject_2stim_asymm_v5,2020.2.10,Win32,60,61025ae37ef11b136ea224fe,,,,,,,,,2988,55.20001227,75.19997027,1,0,0,response1disk,,7,-6.399939823,-8.000006557,1,0,0,rectangle,-6.399939823,-8.000006557,1,0,0,-6.399939823,-8.000006557,1,0,0,0,33,33,16,1,,,,,,,,
,,,,,,,,,,,,,FF,,,,,,,,0.9897,,,,,,,,,,,,,,,,,,,,,,60fdb491fed04550de2a2068,61036dbc0932c682af6e03df,2021-07-29_23h13.47.463,Simcolourproject_2stim_asymm_v5,2020.2.10,Win32,60,61025ae37ef11b136ea224fe,,,,,,,,,3487,-43.1999892,-73.60000753,1,0,0,response5disk,,3,-17.59998882,-6.4373E-06,1,0,0,rectangle,-17.59998882,-6.4373E-06,1,0,0,-17.59998882,-6.4373E-06,1,0,0,0,34,34,114,1,,,,,,,,
,,,,,,,,,,,,,FF,,,,,,,,1.2986,,,,,,,,,,,,,,,,,,,,,,60fdb491fed04550de2a2068,61036dbc0932c682af6e03df,2021-07-29_23h13.47.463,Simcolourproject_2stim_asymm_v5,2020.2.10,Win32,60,61025ae37ef11b136ea224fe,,,,,,,,,557,46.40001214,-82.40000767,1,0,0,response3disk,,4,6.400011539,5.599993646,1,0,0,rectangle,34.40001196,87.19997045,1,0,0,-2.399939764,3.19999361,1,0,0,0,35,35,91,1,,response1disk_3,TRUE,7,7,"[7,284,205,52,171,261,167,318,36,292,103,267,125,112,288,51,124,224,239,160]",1.6338,rectangle
,,,,,,,,,,,,,FF,,,,,,,,1.1208,,,,,,,,,,,,,,,,,,,,,,60fdb491fed04550de2a2068,61036dbc0932c682af6e03df,2021-07-29_23h13.47.463,Simcolourproject_2stim_asymm_v5,2020.2.10,Win32,60,61025ae37ef11b136ea224fe,,,,,,,,,2538,-51.99998933,-88.80000776,1,0,0,response5disk,,3,7.200011551,-9.60000658,1,0,0,rectangle,7.200011551,-9.60000658,1,0,0,7.200011551,-9.60000658,1,0,0,0,36,36,156,1,,,,,,,,
,,,,,,,,,,,,,FF,,,,,,,,0.9823,,,,,,,,,,,,,,,,,,,,,,60fdb491fed04550de2a2068,61036dbc0932c682af6e03df,2021-07-29_23h13.47.463,Simcolourproject_2stim_asymm_v5,2020.2.10,Win32,60,61025ae37ef11b136ea224fe,,,,,,,,,1211,-39.19998914,82.39999479,1,0,0,response7disk,,0,5.600060356,1.599993587,1,0,0,rectangle,5.600060356,1.599993587,1,0,0,5.600060356,1.599993587,1,0,0,0,37,37,99,1,,,,,,,,
,,,,,,,,,,,,,FF,,,,,,,,1.882,,,,,,,,,,,,,,,,,,,,,,60fdb491fed04550de2a2068,61036dbc0932c682af6e03df,2021-07-29_23h13.47.463,Simcolourproject_2stim_asymm_v5,2020.2.10,Win32,60,61025ae37ef11b136ea224fe,,,,,,,,,293,48.80001217,85.59999484,1,0,0,response1disk,,7,-33.59998906,-0.800006449,1,0,0,rectangle,-33.59998906,-0.800006449,1,0,0,-33.59998906,-0.800006449,1,0,0,0,38,38,38,1,,,,,,,,
,,,,,,,,,,,,,FF,,,,,,,,1.0214,,,,,,,,,,,,,,,,,,,,,,60fdb491fed04550de2a2068,61036dbc0932c682af6e03df,2021-07-29_23h13.47.463,Simcolourproject_2stim_asymm_v5,2020.2.10,Win32,60,61025ae37ef11b136ea224fe,,,,,,,,,2080,43.20001209,90.39999491,1,0,0,response1disk,,7,0.800011456,10.39999372,1,0,0,rectangle,0.800011456,10.39999372,1,0,0,0.800011456,10.39999372,1,0,0,0,39,39,135,1,,,,,,,,
,,,,,,,,,,,,,FF,,,,,,,,0.9366,,,,,,,,,,,,,,,,,,,,,,60fdb491fed04550de2a2068,61036dbc0932c682af6e03df,2021-07-29_23h13.47.463,Simcolourproject_2stim_asymm_v5,2020.2.10,Win32,60,61025ae37ef11b136ea224fe,,,,,,,,,4087,96.80001289,42.39999419,1,0,0,response1disk,,6,2.40001148,4.799993634,1,0,0,rectangle,2.40001148,4.799993634,1,0,0,2.40001148,4.799993634,1,0,0,0,40,40,48,1,,,,,,,,
,,,,,,,,,,,,,FF,,,,,,,,1.0657,,,,,,,,,,,,,,,,,,,,,,60fdb491fed04550de2a2068,61036dbc0932c682af6e03df,2021-07-29_23h13.47.463,Simcolourproject_2stim_asymm_v5,2020.2.10,Win32,60,61025ae37ef11b136ea224fe,,,,,,,,,3049,-46.39994042,-92.00000781,1,0,0,response5disk,,3,4.800011516,-0.800006449,1,0,0,rectangle,4.800011516,-0.800006449,1,0,0,4.800011516,-0.800006449,1,0,0,0,41,41,153,1,,,,,,,,
,,,,,,,,,,,,,FF,,,,,,,,1.665,,,,,,,,,,,,,,,,,,,,,,60fdb491fed04550de2a2068,61036dbc0932c682af6e03df,2021-07-29_23h13.47.463,Simcolourproject_2stim_asymm_v5,2020.2.10,Win32,60,61025ae37ef11b136ea224fe,,,,,,,,,3951,85.60001272,51.99999434,1,0,0,response1disk,,6,-3.999988616,-11.2000066,1,0,0,rectangle,-3.999988616,-11.2000066,1,0,0,-3.999988616,-11.2000066,1,0,0,0,42,42,89,1,,,,,,,,
,,,,,,,,,,,,,FF,,,,,,,,1.6165,,,,,,,,,,,,,,,,,,,,,,60fdb491fed04550de2a2068,61036dbc0932c682af6e03df,2021-07-29_23h13.47.463,Simcolourproject_2stim_asymm_v5,2020.2.10,Win32,60,61025ae37ef11b136ea224fe,,,,,,,,,4069,52.00001222,46.39999425,1,0,0,response1disk,,6,1.14441E-05,0.799993575,1,0,0,rectangle,1.14441E-05,0.799993575,1,0,0,1.14441E-05,0.799993575,1,0,0,0,43,43,33,1,,,,,,,,
,,,,,,,,,,,,,FF,,,,,,,,1.7992,,,,,,,,,,,,,,,,,,,,,,60fdb491fed04550de2a2068,61036dbc0932c682af6e03df,2021-07-29_23h13.47.463,Simcolourproject_2stim_asymm_v5,2020.2.10,Win32,60,61025ae37ef11b136ea224fe,,,,,,,,,2995,-75.19998968,-48.00000715,1,0,0,response5disk,,2,6.400011539,-8.800006568,1,0,0,rectangle,6.400011539,-8.800006568,1,0,0,6.400011539,-8.800006568,1,0,0,0,44,44,106,1,,,,,,,,
,,,,,,,,,,,,,FF,,,,,,,,0.9274,,,,,,,,,,,,,,,,,,,,,,60fdb491fed04550de2a2068,61036dbc0932c682af6e03df,2021-07-29_23h13.47.463,Simcolourproject_2stim_asymm_v5,2020.2.10,Win32,60,61025ae37ef11b136ea224fe,,,,,,,,,2210,46.40001214,89.5999949,1,0,0,response1disk,,7,-4.799988627,-11.2000066,1,0,0,rectangle,-4.799988627,-11.2000066,1,0,0,-4.799988627,-11.2000066,1,0,0,0,45,45,151,1,,,,,,,,
,,,,,,,,,,,,,FF,,,,,,,,1.116,,,,,,,,,,,,,,,,,,,,,,60fdb491fed04550de2a2068,61036dbc0932c682af6e03df,2021-07-29_23h13.47.463,Simcolourproject_2stim_asymm_v5,2020.2.10,Win32,60,61025ae37ef11b136ea224fe,,,,,,,,,3235,-34.39994024,-74.40000755,1,0,0,response5disk,,3,-0.799988568,3.999993622,1,0,0,rectangle,-0.799988568,3.999993622,1,0,0,-0.799988568,3.999993622,1,0,0,0,46,46,50,1,,,,,,,,
,,,,,,,,,,,,,FF,,,,,,,,2.4328,,,,,,,,,,,,,,,,,,,,,,60fdb491fed04550de2a2068,61036dbc0932c682af6e03df,2021-07-29_23h13.47.463,Simcolourproject_2stim_asymm_v5,2020.2.10,Win32,60,61025ae37ef11b136ea224fe,,,,,,,,,2065,84.80001271,59.99999446,1,0,0,response1disk,,6,-11.19998872,-12.00000662,1,0,0,rectangle,-11.19998872,-12.00000662,1,0,0,-11.19998872,-12.00000662,1,0,0,0,47,47,73,1,,,,,,,,
,,,,,,,,,,,,,FF,,,,,,,,1.0991,,,,,,,,,,,,,,,,,,,,,,60fdb491fed04550de2a2068,61036dbc0932c682af6e03df,2021-07-29_23h13.47.463,Simcolourproject_2stim_asymm_v5,2020.2.10,Win32,60,61025ae37ef11b136ea224fe,,,,,,,,,2905,86.40001273,-45.60000712,1,0,0,response3disk,,5,-15.19998878,2.399993598,1,0,0,rectangle,-15.19998878,2.399993598,1,0,0,-15.19998878,2.399993598,1,0,0,0,48,48,54,1,,,,,,,,
,,,,,,,,,,,,,FF,,,,,,,,0.8823,,,,,,,,,,,,,,,,,,,,,,60fdb491fed04550de2a2068,61036dbc0932c682af6e03df,2021-07-29_23h13.47.463,Simcolourproject_2stim_asymm_v5,2020.2.10,Win32,60,61025ae37ef11b136ea224fe,,,,,,,,,3706,-71.19998962,-32.80000693,1,0,0,response5disk,,2,-3.999988616,16.79999381,1,0,0,rectangle,-3.999988616,16.79999381,1,0,0,-3.999988616,16.79999381,1,0,0,0,49,49,87,1,,,,,,,,
,,,,,,,,,,,,,FF,,,,,,,,1.7987,,,,,,,,,,,,,,,,,,,,,,60fdb491fed04550de2a2068,61036dbc0932c682af6e03df,2021-07-29_23h13.47.463,Simcolourproject_2stim_asymm_v5,2020.2.10,Win32,60,61025ae37ef11b136ea224fe,,,,,,,,,1553,80.00001264,35.19996967,1,0,0,response1disk,,6,-15.19998878,-6.400006533,1,0,0,rectangle,-41.59998918,-88.00000775,1,0,0,-5.599988639,-2.400006473,1,0,0,0,50,50,77,1,,response5disk_3,TRUE,3,3,"[7,284,205,52,171,261,167,318,36,292,103,267,125,112,288,51,124,224,239,160]",1.9644,rectangle
,,,,,,,,,,,,,FF,,,,,,,,0.8659,,,,,,,,,,,,,,,,,,,,,,60fdb491fed04550de2a2068,61036dbc0932c682af6e03df,2021-07-29_23h13.47.463,Simcolourproject_2stim_asymm_v5,2020.2.10,Win32,60,61025ae37ef11b136ea224fe,,,,,,,,,1837,-85.59998983,-59.20000732,1,0,0,response5disk,,2,-8.799988687,-13.60000664,1,0,0,rectangle,40.00001204,95.19997057,1,0,0,1.600060296,3.999993622,1,0,0,0,51,51,111,1,,response1disk_3,TRUE,7,7,"[7,284,205,52,171,261,167,318,36,292,103,267,125,112,288,51,124,224,239,160]",1.8983,rectangle
,,,,,,,,,,,,,FF,,,,,,,,1.3707,,,,,,,,,,,,,,,,,,,,,,60fdb491fed04550de2a2068,61036dbc0932c682af6e03df,2021-07-29_23h13.47.463,Simcolourproject_2stim_asymm_v5,2020.2.10,Win32,60,61025ae37ef11b136ea224fe,,,,,,,,,937,-43.1999892,-83.20000768,1,0,0,response5disk,,3,-0.799988568,5.599993646,1,0,0,rectangle,-0.799988568,5.599993646,1,0,0,-0.799988568,5.599993646,1,0,0,0,52,52,39,1,,,,,,,,
,,,,,,,,,,,,,FF,,,,,,,,1.349,,,,,,,,,,,,,,,,,,,,,,60fdb491fed04550de2a2068,61036dbc0932c682af6e03df,2021-07-29_23h13.47.463,Simcolourproject_2stim_asymm_v5,2020.2.10,Win32,60,61025ae37ef11b136ea224fe,,,,,,,,,2404,65.60001242,-32.80000693,1,0,0,response3disk,,5,-6.399939823,5.599993646,1,0,0,rectangle,-6.399939823,5.599993646,1,0,0,-6.399939823,5.599993646,1,0,0,0,53,53,32,1,,,,,,,,
,,,,,,,,,,,,,FF,,,,,,,,0.8502,,,,,,,,,,,,,,,,,,,,,,60fdb491fed04550de2a2068,61036dbc0932c682af6e03df,2021-07-29_23h13.47.463,Simcolourproject_2stim_asymm_v5,2020.2.10,Win32,60,61025ae37ef11b136ea224fe,,,,,,,,,2169,-83.99998981,-54.40000725,1,0,0,response5disk,,2,-3.199988604,-3.200006485,1,0,0,rectangle,-3.199988604,-3.200006485,1,0,0,-3.199988604,-3.200006485,1,0,0,0,54,54,57,1,,,,,,,,
,,,,,,,,,,,,,FF,,,,,,,,1.3817,,,,,,,,,,,,,,,,,,,,,,60fdb491fed04550de2a2068,61036dbc0932c682af6e03df,2021-07-29_23h13.47.463,Simcolourproject_2stim_asymm_v5,2020.2.10,Win32,60,61025ae37ef11b136ea224fe,,,,,,,,,3073,74.40001255,44.79999423,1,0,0,response1disk,,6,-10.39993988,-2.400006473,1,0,0,rectangle,-10.39993988,-2.400006473,1,0,0,-10.39993988,-2.400006473,1,0,0,0,55,55,10,1,,,,,,,,
,,,,,,,,,,,,,FF,,,,,,,,1.2649,,,,,,,,,,,,,,,,,,,,,,60fdb491fed04550de2a2068,61036dbc0932c682af6e03df,2021-07-29_23h13.47.463,Simcolourproject_2stim_asymm_v5,2020.2.10,Win32,60,61025ae37ef11b136ea224fe,,,,,,,,,3137,-29.599989,-89.6000566,1,0,0,response5disk,,3,4.000011504,2.399993598,1,0,0,rectangle,4.000011504,2.399993598,1,0,0,4.000011504,2.399993598,1,0,0,0,56,56,159,1,,,,,,,,
,,,,,,,,,,,,,FF,,,,,,,,0.7997,,,,,,,,,,,,,,,,,,,,,,60fdb491fed04550de2a2068,61036dbc0932c682af6e03df,2021-07-29_23h13.47.463,Simcolourproject_2stim_asymm_v5,2020.2.10,Win32,60,61025ae37ef11b136ea224fe,,,,,,,,,4022,-87.19998986,-49.60000718,1,0,0,response5disk,,2,23.20001179,4.799993634,1,0,0,rectangle,23.20001179,4.799993634,1,0,0,23.20001179,4.799993634,1,0,0,0,57,57,40,1,,,,,,,,
,,,,,,,,,,,,,FF,,,,,,,,1.0485,,,,,,,,,,,,,,,,,,,,,,60fdb491fed04550de2a2068,61036dbc0932c682af6e03df,2021-07-29_23h13.47.463,Simcolourproject_2stim_asymm_v5,2020.2.10,Win32,60,61025ae37ef11b136ea224fe,,,,,,,,,2935,41.60006089,105.5999951,1,0,0,response1disk,,7,8.000011563,16.79999381,1,0,0,rectangle,8.000011563,16.79999381,1,0,0,8.000011563,16.79999381,1,0,0,0,58,58,68,1,,,,,,,,
,,,,,,,,,,,,,FF,,,,,,,,0.9985,,,,,,,,,,,,,,,,,,,,,,60fdb491fed04550de2a2068,61036dbc0932c682af6e03df,2021-07-29_23h13.47.463,Simcolourproject_2stim_asymm_v5,2020.2.10,Win32,60,61025ae37ef11b136ea224fe,,,,,,,,,2373,-63.99998951,-39.20000702,1,0,0,response5disk,,2,23.20001179,15.19999379,1,0,0,rectangle,23.20001179,15.19999379,1,0,0,23.20001179,15.19999379,1,0,0,0,59,59,104,1,,,,,,,,
,,,,,,,,,,,,,FF,,,,,,,,2.9639,,,,,,,,,,,,,,,,,,,,,,60fdb491fed04550de2a2068,61036dbc0932c682af6e03df,2021-07-29_23h13.47.463,Simcolourproject_2stim_asymm_v5,2020.2.10,Win32,60,61025ae37ef11b136ea224fe,,,,,,,,,2324,96.80001289,-52.80000722,1,0,0,response3disk,,5,-15.99998879,-4.800006509,1,0,0,rectangle,-15.99998879,-4.800006509,1,0,0,-15.99998879,-4.800006509,1,0,0,0,60,60,141,1,,,,,,,,
,,,,,,,,,,,,,FF,,,,,,,,0.8331,,,,,,,,,,,,,,,,,,,,,,60fdb491fed04550de2a2068,61036dbc0932c682af6e03df,2021-07-29_23h13.47.463,Simcolourproject_2stim_asymm_v5,2020.2.10,Win32,60,61025ae37ef11b136ea224fe,,,,,,,,,2075,24.0000118,95.99999499,1,0,0,response1disk,,7,1.14441E-05,-2.400006473,1,0,0,rectangle,1.14441E-05,-2.400006473,1,0,0,1.14441E-05,-2.400006473,1,0,0,0,61,61,42,1,,,,,,,,
,,,,,,,,,,,,,FF,,,,,,,,0.716,,,,,,,,,,,,,,,,,,,,,,60fdb491fed04550de2a2068,61036dbc0932c682af6e03df,2021-07-29_23h13.47.463,Simcolourproject_2stim_asymm_v5,2020.2.10,Win32,60,61025ae37ef11b136ea224fe,,,,,,,,,3649,73.60001254,46.39999425,1,0,0,response1disk,,6,6.400011539,-4.000006497,1,0,0,rectangle,6.400011539,-4.000006497,1,0,0,6.400011539,-4.000006497,1,0,0,0,62,62,44,1,,,,,,,,
,,,,,,,,,,,,,FF,,,,,,,,0.8833,,,,,,,,,,,,,,,,,,,,,,60fdb491fed04550de2a2068,61036dbc0932c682af6e03df,2021-07-29_23h13.47.463,Simcolourproject_2stim_asymm_v5,2020.2.10,Win32,60,61025ae37ef11b136ea224fe,,,,,,,,,2243,-40.79998916,-98.4000079,1,0,0,response5disk,,3,6.400011539,11.99999374,1,0,0,rectangle,6.400011539,11.99999374,1,0,0,6.400011539,11.99999374,1,0,0,0,63,63,43,1,,,,,,,,
,,,,,,,,,,,,,FF,,,,,,,,1.1161,,,,,,,,,,,,,,,,,,,,,,60fdb491fed04550de2a2068,61036dbc0932c682af6e03df,2021-07-29_23h13.47.463,Simcolourproject_2stim_asymm_v5,2020.2.10,Win32,60,61025ae37ef11b136ea224fe,,,,,,,,,570,95.20001286,-53.60000724,1,0,0,response3disk,,5,1.600060296,-10.40000659,1,0,0,rectangle,1.600060296,-10.40000659,1,0,0,1.600060296,-10.40000659,1,0,0,0,64,64,14,1,,,,,,,,
,,,,,,,,,,,,,FF,,,,,,,,1.0826,,,,,,,,,,,,,,,,,,,,,,60fdb491fed04550de2a2068,61036dbc0932c682af6e03df,2021-07-29_23h13.47.463,Simcolourproject_2stim_asymm_v5,2020.2.10,Win32,60,61025ae37ef11b136ea224fe,,,,,,,,,4,-51.19998932,-100.8000079,1,0,0,response5disk,,3,4.000011504,-3.200006485,1,0,0,rectangle,4.000011504,-3.200006485,1,0,0,4.000011504,-3.200006485,1,0,0,0,65,65,41,1,,,,,,,,
,,,,,,,,,,,,,FF,,,,,,,,1.7315,,,,,,,,,,,,,,,,,,,,,,60fdb491fed04550de2a2068,61036dbc0932c682af6e03df,2021-07-29_23h13.47.463,Simcolourproject_2stim_asymm_v5,2020.2.10,Win32,60,61025ae37ef11b136ea224fe,,,,,,,,,2692,94.40001285,-43.20000708,1,0,0,response3disk,,5,-0.799988568,-7.200006545,1,0,0,rectangle,-0.799988568,-7.200006545,1,0,0,-0.799988568,-7.200006545,1,0,0,0,66,66,53,1,,,,,,,,
,,,,,,,,,,,,,FF,,,,,,,,0.7492,,,,,,,,,,,,,,,,,,,,,,60fdb491fed04550de2a2068,61036dbc0932c682af6e03df,2021-07-29_23h13.47.463,Simcolourproject_2stim_asymm_v5,2020.2.10,Win32,60,61025ae37ef11b136ea224fe,,,,,,,,,471,33.60006077,-74.40000755,1,0,0,response3disk,,4,-7.999988675,7.999993682,1,0,0,rectangle,-7.999988675,7.999993682,1,0,0,-7.999988675,7.999993682,1,0,0,0,67,67,45,1,,,,,,,,
,,,,,,,,,,,,,FF,,,,,,,,1.5321,,,,,,,,,,,,,,,,,,,,,,60fdb491fed04550de2a2068,61036dbc0932c682af6e03df,2021-07-29_23h13.47.463,Simcolourproject_2stim_asymm_v5,2020.2.10,Win32,60,61025ae37ef11b136ea224fe,,,,,,,,,3960,45.60006095,79.19997033,1,0,0,response1disk,,7,-3.199988604,8.799993694,1,0,0,rectangle,-3.199988604,8.799993694,1,0,0,-3.199988604,8.799993694,1,0,0,0,68,68,152,1,,,,,,,,
,,,,,,,,,,,,,FF,,,,,,,,1.1154,,,,,,,,,,,,,,,,,,,,,,60fdb491fed04550de2a2068,61036dbc0932c682af6e03df,2021-07-29_23h13.47.463,Simcolourproject_2stim_asymm_v5,2020.2.10,Win32,60,61025ae37ef11b136ea224fe,,,,,,,,,3184,49.60006101,80.79999477,1,0,0,response1disk,,7,1.600060296,8.799993694,1,0,0,rectangle,1.600060296,8.799993694,1,0,0,1.600060296,8.799993694,1,0,0,0,69,69,61,1,,,,,,,,
,,,,,,,,,,,,,FF,,,,,,,,2.1154,,,,,,,,,,,,,,,,,,,,,,60fdb491fed04550de2a2068,61036dbc0932c682af6e03df,2021-07-29_23h13.47.463,Simcolourproject_2stim_asymm_v5,2020.2.10,Win32,60,61025ae37ef11b136ea224fe,,,,,,,,,852,95.20001286,40.79999417,1,0,0,response1disk,,6,8.800011575,-6.4373E-06,1,0,0,rectangle,8.800011575,-6.4373E-06,1,0,0,8.800011575,-6.4373E-06,1,0,0,0,70,70,5,1,,,,,,,,
,,,,,,,,,,,,,FF,,,,,,,,1.2651,,,,,,,,,,,,,,,,,,,,,,60fdb491fed04550de2a2068,61036dbc0932c682af6e03df,2021-07-29_23h13.47.463,Simcolourproject_2stim_asymm_v5,2020.2.10,Win32,60,61025ae37ef11b136ea224fe,,,,,,,,,1606,-51.99998933,-105.6000568,1,0,0,response5disk,,3,-10.39993988,7.19999367,1,0,0,rectangle,-10.39993988,7.19999367,1,0,0,-10.39993988,7.19999367,1,0,0,0,71,71,137,1,,,,,,,,
,,,,,,,,,,,,,FF,,,,,,,,1.6653,,,,,,,,,,,,,,,,,,,,,,60fdb491fed04550de2a2068,61036dbc0932c682af6e03df,2021-07-29_23h13.47.463,Simcolourproject_2stim_asymm_v5,2020.2.10,Win32,60,61025ae37ef11b136ea224fe,,,,,,,,,931,85.60001272,55.9999944,1,0,0,response1disk,,6,-7.999988675,-5.600006521,1,0,0,rectangle,-7.999988675,-5.600006521,1,0,0,-7.999988675,-5.600006521,1,0,0,0,72,72,24,1,,,,,,,,
,,,,,,,,,,,,,FF,,,,,,,,0.8826,,,,,,,,,,,,,,,,,,,,,,60fdb491fed04550de2a2068,61036dbc0932c682af6e03df,2021-07-29_23h13.47.463,Simcolourproject_2stim_asymm_v5,2020.2.10,Win32,60,61025ae37ef11b136ea224fe,,,,,,,,,3708,-91.19998991,-42.40000707,1,0,0,response5disk,,2,-4.799988627,-7.200006545,1,0,0,rectangle,-4.799988627,-7.200006545,1,0,0,-4.799988627,-7.200006545,1,0,0,0,73,73,15,1,,,,,,,,
,,,,,,,,,,,,,FF,,,,,,,,1.8976,,,,,,,,,,,,,,,,,,,,,,60fdb491fed04550de2a2068,61036dbc0932c682af6e03df,2021-07-29_23h13.47.463,Simcolourproject_2stim_asymm_v5,2020.2.10,Win32,60,61025ae37ef11b136ea224fe,,,,,,,,,4170,97.6000129,31.19996961,1,0,0,response1disk,,6,9.600060415,7.19999367,1,0,0,rectangle,9.600060415,7.19999367,1,0,0,9.600060415,7.19999367,1,0,0,0,74,74,138,1,,,,,,,,
,,,,,,,,,,,,,FF,,,,,,,,1.4489,,,,,,,,,,,,,,,,,,,,,,60fdb491fed04550de2a2068,61036dbc0932c682af6e03df,2021-07-29_23h13.47.463,Simcolourproject_2stim_asymm_v5,2020.2.10,Win32,60,61025ae37ef11b136ea224fe,,,,,,,,,1503,44.0000121,101.5999951,1,0,0,response1disk,,7,3.200011492,7.19999367,1,0,0,rectangle,3.200011492,7.19999367,1,0,0,3.200011492,7.19999367,1,0,0,0,75,75,19,1,,,,,,,,
,,,,,,,,,,,,,FF,,,,,,,,1.0489,,,,,,,,,,,,,,,,,,,,,,60fdb491fed04550de2a2068,61036dbc0932c682af6e03df,2021-07-29_23h13.47.463,Simcolourproject_2stim_asymm_v5,2020.2.10,Win32,60,61025ae37ef11b136ea224fe,,,,,,,,,1360,-75.99998969,26.39999396,1,0,0,response7disk,,1,4.000011504,-9.60000658,1,0,0,rectangle,4.000011504,-9.60000658,1,0,0,4.000011504,-9.60000658,1,0,0,0,76,76,22,1,,,,,,,,
,,,,,,,,,,,,,FF,,,,,,,,0.8992,,,,,,,,,,,,,,,,,,,,,,60fdb491fed04550de2a2068,61036dbc0932c682af6e03df,2021-07-29_23h13.47.463,Simcolourproject_2stim_asymm_v5,2020.2.10,Win32,60,61025ae37ef11b136ea224fe,,,,,,,,,3976,-90.39994107,27.19996955,1,0,0,response7disk,,1,-3.199988604,-16.80000669,1,0,0,rectangle,-3.199988604,-16.80000669,1,0,0,-3.199988604,-16.80000669,1,0,0,0,77,77,83,1,,,,,,,,
,,,,,,,,,,,,,FF,,,,,,,,0.7825,,,,,,,,,,,,,,,,,,,,,,60fdb491fed04550de2a2068,61036dbc0932c682af6e03df,2021-07-29_23h13.47.463,Simcolourproject_2stim_asymm_v5,2020.2.10,Win32,60,61025ae37ef11b136ea224fe,,,,,,,,,2226,-42.39994036,77.59999472,1,0,0,response7disk,,0,7.200011551,5.599993646,1,0,0,rectangle,7.200011551,5.599993646,1,0,0,7.200011551,5.599993646,1,0,0,0,78,78,144,1,,,,,,,,
,,,,,,,,,,,,,FF,,,,,,,,1.2492,,,,,,,,,,,,,,,,,,,,,,60fdb491fed04550de2a2068,61036dbc0932c682af6e03df,2021-07-29_23h13.47.463,Simcolourproject_2stim_asymm_v5,2020.2.10,Win32,60,61025ae37ef11b136ea224fe,,,,,,,,,2879,-78.3999409,-50.40000719,1,0,0,response5disk,,2,12.80001163,-3.200006485,1,0,0,rectangle,12.80001163,-3.200006485,1,0,0,12.80001163,-3.200006485,1,0,0,0,79,79,154,1,,,,,,,,
,,,,,,,,,,,,,FF,,,,,,,,0.8318,,,,,,,,,,,,,,,,,,,,,,60fdb491fed04550de2a2068,61036dbc0932c682af6e03df,2021-07-29_23h13.47.463,Simcolourproject_2stim_asymm_v5,2020.2.10,Win32,60,61025ae37ef11b136ea224fe,,,,,,,,,475,34.40001196,81.59999478,1,0,0,response1disk,,7,-10.39993988,-2.400006473,1,0,0,rectangle,-10.39993988,-2.400006473,1,0,0,-10.39993988,-2.400006473,1,0,0,0,80,80,36,1,,,,,,,,
,,,,,,,,,,,,,FF,,,,,,,,0.8656,,,,,,,,,,,,,,,,,,,,,,60fdb491fed04550de2a2068,61036dbc0932c682af6e03df,2021-07-29_23h13.47.463,Simcolourproject_2stim_asymm_v5,2020.2.10,Win32,60,61025ae37ef11b136ea224fe,,,,,,,,,3284,-36.7999891,-81.60005648,1,0,0,response5disk,,3,10.4000116,3.999993622,1,0,0,rectangle,10.4000116,3.999993622,1,0,0,10.4000116,3.999993622,1,0,0,0,81,81,126,1,,,,,,,,
,,,,,,,,,,,,,FF,,,,,,,,1.2991,,,,,,,,,,,,,,,,,,,,,,60fdb491fed04550de2a2068,61036dbc0932c682af6e03df,2021-07-29_23h13.47.463,Simcolourproject_2stim_asymm_v5,2020.2.10,Win32,60,61025ae37ef11b136ea224fe,,,,,,,,,1065,25.60006065,-86.40000772,1,0,0,response3disk,,4,-18.39994,15.19999379,1,0,0,rectangle,-18.39994,15.19999379,1,0,0,-18.39994,15.19999379,1,0,0,0,82,82,28,1,,,,,,,,
,,,,,,,,,,,,,FF,,,,,,,,1.7315,,,,,,,,,,,,,,,,,,,,,,60fdb491fed04550de2a2068,61036dbc0932c682af6e03df,2021-07-29_23h13.47.463,Simcolourproject_2stim_asymm_v5,2020.2.10,Win32,60,61025ae37ef11b136ea224fe,,,,,,,,,1994,54.40001225,72.79999465,1,0,0,response1disk,,7,-11.99998873,-0.800006449,1,0,0,rectangle,-11.99998873,-0.800006449,1,0,0,-11.99998873,-0.800006449,1,0,0,0,83,83,51,1,,,,,,,,
,,,,,,,,,,,,,FF,,,,,,,,1.7309,,,,,,,,,,,,,,,,,,,,,,60fdb491fed04550de2a2068,61036dbc0932c682af6e03df,2021-07-29_23h13.47.463,Simcolourproject_2stim_asymm_v5,2020.2.10,Win32,60,61025ae37ef11b136ea224fe,,,,,,,,,1006,108.0000131,-44.00000709,1,0,0,response3disk,,5,0.800011456,-6.4373E-06,1,0,0,rectangle,0.800011456,-6.4373E-06,1,0,0,0.800011456,-6.4373E-06,1,0,0,0,84,84,25,1,,,,,,,,
,,,,,,,,,,,,,FF,,,,,,,,0.9825,,,,,,,,,,,,,,,,,,,,,,60fdb491fed04550de2a2068,61036dbc0932c682af6e03df,2021-07-29_23h13.47.463,Simcolourproject_2stim_asymm_v5,2020.2.10,Win32,60,61025ae37ef11b136ea224fe,,,,,,,,,4187,41.60006089,-88.00000775,1,0,0,response3disk,,4,4.000011504,11.19999373,1,0,0,rectangle,4.000011504,11.19999373,1,0,0,4.000011504,11.19999373,1,0,0,0,85,85,63,1,,,,,,,,
,,,,,,,,,,,,,FF,,,,,,,,1.0655,,,,,,,,,,,,,,,,,,,,,,60fdb491fed04550de2a2068,61036dbc0932c682af6e03df,2021-07-29_23h13.47.463,Simcolourproject_2stim_asymm_v5,2020.2.10,Win32,60,61025ae37ef11b136ea224fe,,,,,,,,,3183,80.00001264,-32.00000691,1,0,0,response3disk,,5,12.00001162,-4.000006497,1,0,0,rectangle,12.00001162,-4.000006497,1,0,0,12.00001162,-4.000006497,1,0,0,0,86,86,85,1,,,,,,,,
,,,,,,,,,,,,,FF,,,,,,,,0.9492,,,,,,,,,,,,,,,,,,,,,,60fdb491fed04550de2a2068,61036dbc0932c682af6e03df,2021-07-29_23h13.47.463,Simcolourproject_2stim_asymm_v5,2020.2.10,Win32,60,61025ae37ef11b136ea224fe,,,,,,,,,1439,-101.5999901,-48.00000715,1,0,0,response5disk,,2,3.200011492,-3.200006485,1,0,0,rectangle,3.200011492,-3.200006485,1,0,0,3.200011492,-3.200006485,1,0,0,0,87,87,130,1,,,,,,,,
,,,,,,,,,,,,,FF,,,,,,,,1.0492,,,,,,,,,,,,,,,,,,,,,,60fdb491fed04550de2a2068,61036dbc0932c682af6e03df,2021-07-29_23h13.47.463,Simcolourproject_2stim_asymm_v5,2020.2.10,Win32,60,61025ae37ef11b136ea224fe,,,,,,,,,206,96.00001287,27.19996955,1,0,0,response1disk,,6,10.4000116,9.599993706,1,0,0,rectangle,10.4000116,9.599993706,1,0,0,10.4000116,9.599993706,1,0,0,0,88,88,155,1,,,,,,,,
,,,,,,,,,,,,,FF,,,,,,,,0.9664,,,,,,,,,,,,,,,,,,,,,,60fdb491fed04550de2a2068,61036dbc0932c682af6e03df,2021-07-29_23h13.47.463,Simcolourproject_2stim_asymm_v5,2020.2.10,Win32,60,61025ae37ef11b136ea224fe,,,,,,,,,806,61.60001236,-40.80000705,1,0,0,response3disk,,5,1.600060296,-6.400006533,1,0,0,rectangle,1.600060296,-6.400006533,1,0,0,1.600060296,-6.400006533,1,0,0,0,89,89,88,1,,,,,,,,
,,,,,,,,,,,,,FF,,,,,,,,1.299,,,,,,,,,,,,,,,,,,,,,,60fdb491fed04550de2a2068,61036dbc0932c682af6e03df,2021-07-29_23h13.47.463,Simcolourproject_2stim_asymm_v5,2020.2.10,Win32,60,61025ae37ef11b136ea224fe,,,,,,,,,2817,88.80001277,40.79999417,1,0,0,response1disk,,6,11.20001161,3.19999361,1,0,0,rectangle,11.20001161,3.19999361,1,0,0,11.20001161,3.19999361,1,0,0,0,90,90,128,1,,,,,,,,
,,,,,,,,,,,,,FF,,,,,,,,1.3156,,,,,,,,,,,,,,,,,,,,,,60fdb491fed04550de2a2068,61036dbc0932c682af6e03df,2021-07-29_23h13.47.463,Simcolourproject_2stim_asymm_v5,2020.2.10,Win32,60,61025ae37ef11b136ea224fe,,,,,,,,,3330,26.40001184,-49.60000718,1,0,0,response3disk,,4,1.600060296,2.399993598,1,0,0,rectangle,1.600060296,2.399993598,1,0,0,1.600060296,2.399993598,1,0,0,0,91,91,64,1,,,,,,,,
,,,,,,,,,,,,,FF,,,,,,,,1.1165,,,,,,,,,,,,,,,,,,,,,,60fdb491fed04550de2a2068,61036dbc0932c682af6e03df,2021-07-29_23h13.47.463,Simcolourproject_2stim_asymm_v5,2020.2.10,Win32,60,61025ae37ef11b136ea224fe,,,,,,,,,308,35.20001197,88.79999489,1,0,0,response1disk,,7,-5.599988639,7.999993682,1,0,0,rectangle,-5.599988639,7.999993682,1,0,0,-5.599988639,7.999993682,1,0,0,0,92,92,93,1,,,,,,,,
,,,,,,,,,,,,,FF,,,,,,,,0.8819,,,,,,,,,,,,,,,,,,,,,,60fdb491fed04550de2a2068,61036dbc0932c682af6e03df,2021-07-29_23h13.47.463,Simcolourproject_2stim_asymm_v5,2020.2.10,Win32,60,61025ae37ef11b136ea224fe,,,,,,,,,1468,-51.19998932,-74.40000755,1,0,0,response5disk,,3,-21.59998888,8.799993694,1,0,0,rectangle,-21.59998888,8.799993694,1,0,0,-21.59998888,8.799993694,1,0,0,0,93,93,142,1,,,,,,,,
,,,,,,,,,,,,,FF,,,,,,,,0.8491,,,,,,,,,,,,,,,,,,,,,,60fdb491fed04550de2a2068,61036dbc0932c682af6e03df,2021-07-29_23h13.47.463,Simcolourproject_2stim_asymm_v5,2020.2.10,Win32,60,61025ae37ef11b136ea224fe,,,,,,,,,4119,-91.19998991,-50.40000719,1,0,0,response5disk,,2,8.000011563,-0.800006449,1,0,0,rectangle,8.000011563,-0.800006449,1,0,0,8.000011563,-0.800006449,1,0,0,0,94,94,105,1,,,,,,,,
,,,,,,,,,,,,,FF,,,,,,,,0.7995,,,,,,,,,,,,,,,,,,,,,,60fdb491fed04550de2a2068,61036dbc0932c682af6e03df,2021-07-29_23h13.47.463,Simcolourproject_2stim_asymm_v5,2020.2.10,Win32,60,61025ae37ef11b136ea224fe,,,,,,,,,1799,93.60001284,32.79999405,1,0,0,response1disk,,6,9.600060415,13.59999377,1,0,0,rectangle,9.600060415,13.59999377,1,0,0,9.600060415,13.59999377,1,0,0,0,95,95,140,1,,,,,,,,
,,,,,,,,,,,,,FF,,,,,,,,0.9827,,,,,,,,,,,,,,,,,,,,,,60fdb491fed04550de2a2068,61036dbc0932c682af6e03df,2021-07-29_23h13.47.463,Simcolourproject_2stim_asymm_v5,2020.2.10,Win32,60,61025ae37ef11b136ea224fe,,,,,,,,,2140,40.00001204,97.59999502,1,0,0,response1disk,,7,-8.799988687,-4.800006509,1,0,0,rectangle,-8.799988687,-4.800006509,1,0,0,-8.799988687,-4.800006509,1,0,0,0,96,96,97,1,,,,,,,,
,,,,,,,,,,,,,FF,,,,,,,,1.5987,,,,,,,,,,,,,,,,,,,,,,60fdb491fed04550de2a2068,61036dbc0932c682af6e03df,2021-07-29_23h13.47.463,Simcolourproject_2stim_asymm_v5,2020.2.10,Win32,60,61025ae37ef11b136ea224fe,,,,,,,,,1058,-32.79998904,-90.40000778,1,0,0,response5disk,,3,9.600060415,9.599993706,1,0,0,rectangle,9.600060415,9.599993706,1,0,0,9.600060415,9.599993706,1,0,0,0,97,97,37,1,,,,,,,,
,,,,,,,,,,,,,FF,,,,,,,,1.5991,,,,,,,,,,,,,,,,,,,,,,60fdb491fed04550de2a2068,61036dbc0932c682af6e03df,2021-07-29_23h13.47.463,Simcolourproject_2stim_asymm_v5,2020.2.10,Win32,60,61025ae37ef11b136ea224fe,,,,,,,,,3654,68.80001247,24.79999393,1,0,0,response1disk,,6,-11.99998873,-6.400006533,1,0,0,rectangle,-11.99998873,-6.400006533,1,0,0,-11.99998873,-6.400006533,1,0,0,0,98,98,35,1,,,,,,,,
,,,,,,,,,,,,,FF,,,,,,,,0.7825,,,,,,,,,,,,,,,,,,,,,,60fdb491fed04550de2a2068,61036dbc0932c682af6e03df,2021-07-29_23h13.47.463,Simcolourproject_2stim_asymm_v5,2020.2.10,Win32,60,61025ae37ef11b136ea224fe,,,,,,,,,4075,-34.39994024,-78.40000761,1,0,0,response5disk,,3,4.000011504,7.19999367,1,0,0,rectangle,4.000011504,7.19999367,1,0,0,4.000011504,7.19999367,1,0,0,0,99,99,76,1,,,,,,,,
,,,,,,,,,,,,,FF,,,,,,,,2.5837,,,,,,,,,,,,,,,,,,,,,,60fdb491fed04550de2a2068,61036dbc0932c682af6e03df,2021-07-29_23h13.47.463,Simcolourproject_2stim_asymm_v5,2020.2.10,Win32,60,61025ae37ef11b136ea224fe,,,,,,,,,2112,63.20001239,-46.40000713,1,0,0,response3disk,,5,8.800011575,-8.800006568,1,0,0,rectangle,8.800011575,-8.800006568,1,0,0,8.800011575,-8.800006568,1,0,0,0,100,100,131,1,,,,,,,,
,,,,,,,,,,,,,FF,,,,,,,,2.0645,,,,,,,,,,,,,,,,,,,,,,60fdb491fed04550de2a2068,61036dbc0932c682af6e03df,2021-07-29_23h13.47.463,Simcolourproject_2stim_asymm_v5,2020.2.10,Win32,60,61025ae37ef11b136ea224fe,,,,,,,,,2013,36.00001198,63.99999452,1,0,0,response1disk,,7,8.000011563,2.399993598,1,0,0,rectangle,8.000011563,2.399993598,1,0,0,8.000011563,2.399993598,1,0,0,0,101,101,110,1,,,,,,,,
,,,,,,,,,,,,,FF,,,,,,,,1.3153,,,,,,,,,,,,,,,,,,,,,,60fdb491fed04550de2a2068,61036dbc0932c682af6e03df,2021-07-29_23h13.47.463,Simcolourproject_2stim_asymm_v5,2020.2.10,Win32,60,61025ae37ef11b136ea224fe,,,,,,,,,930,67.20001245,38.39999413,1,0,0,response1disk,,6,4.800011516,-4.000006497,1,0,0,rectangle,53.60001224,-88.80000776,1,0,0,-11.99998873,-6.4373E-06,1,0,0,0,102,102,27,1,,response3disk_3,TRUE,4,4,"[7,284,205,52,171,261,167,318,36,292,103,267,125,112,288,51,124,224,239,160]",1.9821,rectangle
,,,,,,,,,,,,,FF,,,,,,,,0.9328,,,,,,,,,,,,,,,,,,,,,,60fdb491fed04550de2a2068,61036dbc0932c682af6e03df,2021-07-29_23h13.47.463,Simcolourproject_2stim_asymm_v5,2020.2.10,Win32,60,61025ae37ef11b136ea224fe,,,,,,,,,1000,-51.19998932,-104.800008,1,0,0,response5disk,,3,9.600060415,-4.800006509,1,0,0,rectangle,9.600060415,-4.800006509,1,0,0,9.600060415,-4.800006509,1,0,0,0,103,103,143,1,,,,,,,,
,,,,,,,,,,,,,FF,,,,,,,,1.2979,,,,,,,,,,,,,,,,,,,,,,60fdb491fed04550de2a2068,61036dbc0932c682af6e03df,2021-07-29_23h13.47.463,Simcolourproject_2stim_asymm_v5,2020.2.10,Win32,60,61025ae37ef11b136ea224fe,,,,,,,,,2022,-43.1999892,-71.2000075,1,0,0,response5disk,,3,-6.399939823,0.799993575,1,0,0,rectangle,-6.399939823,0.799993575,1,0,0,-6.399939823,0.799993575,1,0,0,0,104,104,55,1,,,,,,,,
,,,,,,,,,,,,,FF,,,,,,,,0.7829,,,,,,,,,,,,,,,,,,,,,,60fdb491fed04550de2a2068,61036dbc0932c682af6e03df,2021-07-29_23h13.47.463,Simcolourproject_2stim_asymm_v5,2020.2.10,Win32,60,61025ae37ef11b136ea224fe,,,,,,,,,2651,-43.1999892,-100.8000079,1,0,0,response5disk,,3,-4.799988627,-3.200006485,1,0,0,rectangle,-4.799988627,-3.200006485,1,0,0,-4.799988627,-3.200006485,1,0,0,0,105,105,116,1,,,,,,,,
,,,,,,,,,,,,,FF,,,,,,,,0.7993,,,,,,,,,,,,,,,,,,,,,,60fdb491fed04550de2a2068,61036dbc0932c682af6e03df,2021-07-29_23h13.47.463,Simcolourproject_2stim_asymm_v5,2020.2.10,Win32,60,61025ae37ef11b136ea224fe,,,,,,,,,3406,-68.79998958,-38.40000701,1,0,0,response5disk,,2,-1.59998858,-5.600006521,1,0,0,rectangle,-1.59998858,-5.600006521,1,0,0,-1.59998858,-5.600006521,1,0,0,0,106,106,132,1,,,,,,,,
,,,,,,,,,,,,,FF,,,,,,,,0.9163,,,,,,,,,,,,,,,,,,,,,,60fdb491fed04550de2a2068,61036dbc0932c682af6e03df,2021-07-29_23h13.47.463,Simcolourproject_2stim_asymm_v5,2020.2.10,Win32,60,61025ae37ef11b136ea224fe,,,,,,,,,3766,108.0000131,23.19996949,1,0,0,response1disk,,6,-23.99998891,-14.40000665,1,0,0,rectangle,-23.99998891,-14.40000665,1,0,0,-23.99998891,-14.40000665,1,0,0,0,107,107,17,1,,,,,,,,
,,,,,,,,,,,,,FF,,,,,,,,1.0326,,,,,,,,,,,,,,,,,,,,,,60fdb491fed04550de2a2068,61036dbc0932c682af6e03df,2021-07-29_23h13.47.463,Simcolourproject_2stim_asymm_v5,2020.2.10,Win32,60,61025ae37ef11b136ea224fe,,,,,,,,,3386,61.60001236,-36.80000699,1,0,0,response3disk,,5,-1.59998858,-6.400006533,1,0,0,rectangle,-1.59998858,-6.400006533,1,0,0,-1.59998858,-6.400006533,1,0,0,0,108,108,113,1,,,,,,,,
,,,,,,,,,,,,,FF,,,,,,,,1.4,,,,,,,,,,,,,,,,,,,,,,60fdb491fed04550de2a2068,61036dbc0932c682af6e03df,2021-07-29_23h13.47.463,Simcolourproject_2stim_asymm_v5,2020.2.10,Win32,60,61025ae37ef11b136ea224fe,,,,,,,,,1613,-36.7999891,-76.80000758,1,0,0,response5disk,,3,-11.19998872,-5.600006521,1,0,0,rectangle,-11.19998872,-5.600006521,1,0,0,-11.19998872,-5.600006521,1,0,0,0,109,109,72,1,,,,,,,,
,,,,,,,,,,,,,FF,,,,,,,,0.8161,,,,,,,,,,,,,,,,,,,,,,60fdb491fed04550de2a2068,61036dbc0932c682af6e03df,2021-07-29_23h13.47.463,Simcolourproject_2stim_asymm_v5,2020.2.10,Win32,60,61025ae37ef11b136ea224fe,,,,,,,,,2999,-30.39994018,-64.8000074,1,0,0,response5disk,,3,3.200011492,-4.800006509,1,0,0,rectangle,3.200011492,-4.800006509,1,0,0,3.200011492,-4.800006509,1,0,0,0,110,110,12,1,,,,,,,,
,,,,,,,,,,,,,FF,,,,,,,,0.9324,,,,,,,,,,,,,,,,,,,,,,60fdb491fed04550de2a2068,61036dbc0932c682af6e03df,2021-07-29_23h13.47.463,Simcolourproject_2stim_asymm_v5,2020.2.10,Win32,60,61025ae37ef11b136ea224fe,,,,,,,,,3167,92.80001283,42.39999419,1,0,0,response1disk,,6,8.800011575,4.799993634,1,0,0,rectangle,97.6000129,38.39999413,1,0,0,-10.39993988,-8.800006568,1,0,0,0,111,111,102,1,,response1disk_3,TRUE,6,6,"[7,284,205,52,171,261,167,318,36,292,103,267,125,112,288,51,124,224,239,160]",1.5322,rectangle
,,,,,,,,,,,,,FF,,,,,,,,2.9854,,,,,,,,,,,,,,,,,,,,,,60fdb491fed04550de2a2068,61036dbc0932c682af6e03df,2021-07-29_23h13.47.463,Simcolourproject_2stim_asymm_v5,2020.2.10,Win32,60,61025ae37ef11b136ea224fe,,,,,,,,,1424,82.40001267,-43.20000708,1,0,0,response3disk,,5,-3.999988616,-2.400006473,1,0,0,rectangle,-3.999988616,-2.400006473,1,0,0,-3.999988616,-2.400006473,1,0,0,0,112,112,49,1,,,,,,,,
,,,,,,,,,,,,,FF,,,,,,,,1.0653,,,,,,,,,,,,,,,,,,,,,,60fdb491fed04550de2a2068,61036dbc0932c682af6e03df,2021-07-29_23h13.47.463,Simcolourproject_2stim_asymm_v5,2020.2.10,Win32,60,61025ae37ef11b136ea224fe,,,,,,,,,3874,25.60006065,-84.8000077,1,0,0,response3disk,,4,-14.39993994,-3.200006485,1,0,0,rectangle,-14.39993994,-3.200006485,1,0,0,-14.39993994,-3.200006485,1,0,0,0,113,113,66,1,,,,,,,,
,,,,,,,,,,,,,FF,,,,,,,,1.1324,,,,,,,,,,,,,,,,,,,,,,60fdb491fed04550de2a2068,61036dbc0932c682af6e03df,2021-07-29_23h13.47.463,Simcolourproject_2stim_asymm_v5,2020.2.10,Win32,60,61025ae37ef11b136ea224fe,,,,,,,,,3612,84.80001271,59.19997003,1,0,0,response1disk,,6,4.000011504,6.399993658,1,0,0,rectangle,4.000011504,6.399993658,1,0,0,4.000011504,6.399993658,1,0,0,0,114,114,18,1,,,,,,,,
,,,,,,,,,,,,,FF,,,,,,,,2.8193,,,,,,,,,,,,,,,,,,,,,,60fdb491fed04550de2a2068,61036dbc0932c682af6e03df,2021-07-29_23h13.47.463,Simcolourproject_2stim_asymm_v5,2020.2.10,Win32,60,61025ae37ef11b136ea224fe,,,,,,,,,1174,63.20001239,-30.40000689,1,0,0,response3disk,,5,-11.99998873,0.799993575,1,0,0,rectangle,-11.99998873,0.799993575,1,0,0,-11.99998873,0.799993575,1,0,0,0,115,115,2,1,,,,,,,,
,,,,,,,,,,,,,FF,,,,,,,,2.1475,,,,,,,,,,,,,,,,,,,,,,60fdb491fed04550de2a2068,61036dbc0932c682af6e03df,2021-07-29_23h13.47.463,Simcolourproject_2stim_asymm_v5,2020.2.10,Win32,60,61025ae37ef11b136ea224fe,,,,,,,,,4357,76.80001259,-32.80000693,1,0,0,response3disk,,5,1.600060296,-3.200006485,1,0,0,rectangle,1.600060296,-3.200006485,1,0,0,1.600060296,-3.200006485,1,0,0,0,116,116,84,1,,,,,,,,
,,,,,,,,,,,,,FF,,,,,,,,0.8992,,,,,,,,,,,,,,,,,,,,,,60fdb491fed04550de2a2068,61036dbc0932c682af6e03df,2021-07-29_23h13.47.463,Simcolourproject_2stim_asymm_v5,2020.2.10,Win32,60,61025ae37ef11b136ea224fe,,,,,,,,,4245,86.40001273,55.9999944,1,0,0,response1disk,,6,-0.799988568,-6.4373E-06,1,0,0,rectangle,-0.799988568,-6.4373E-06,1,0,0,-0.799988568,-6.4373E-06,1,0,0,0,117,117,13,1,,,,,,,,
,,,,,,,,,,,,,FF,,,,,,,,1.0009,,,,,,,,,,,,,,,,,,,,,,60fdb491fed04550de2a2068,61036dbc0932c682af6e03df,2021-07-29_23h13.47.463,Simcolourproject_2stim_asymm_v5,2020.2.10,Win32,60,61025ae37ef11b136ea224fe,,,,,,,,,3750,-27.99998897,-98.4000079,1,0,0,response5disk,,3,-7.999988675,-14.40000665,1,0,0,rectangle,-7.999988675,-14.40000665,1,0,0,-7.999988675,-14.40000665,1,0,0,0,118,118,158,1,,,,,,,,
,,,,,,,,,,,,,FF,,,,,,,,0.8993,,,,,,,,,,,,,,,,,,,,,,60fdb491fed04550de2a2068,61036dbc0932c682af6e03df,2021-07-29_23h13.47.463,Simcolourproject_2stim_asymm_v5,2020.2.10,Win32,60,61025ae37ef11b136ea224fe,,,,,,,,,691,90.40001279,51.99999434,1,0,0,response1disk,,6,-19.99998885,1.599993587,1,0,0,rectangle,-19.99998885,1.599993587,1,0,0,-19.99998885,1.599993587,1,0,0,0,119,119,108,1,,,,,,,,
,,,,,,,,,,,,,FF,,,,,,,,0.7162,,,,,,,,,,,,,,,,,,,,,,60fdb491fed04550de2a2068,61036dbc0932c682af6e03df,2021-07-29_23h13.47.463,Simcolourproject_2stim_asymm_v5,2020.2.10,Win32,60,61025ae37ef11b136ea224fe,,,,,,,,,612,30.4000119,86.39999485,1,0,0,response1disk,,7,1.600060296,-12.80000663,1,0,0,rectangle,1.600060296,-12.80000663,1,0,0,1.600060296,-12.80000663,1,0,0,0,120,120,146,1,,,,,,,,
,,,,,,,,,,,,,FF,,,,,,,,1.0825,,,,,,,,,,,,,,,,,,,,,,60fdb491fed04550de2a2068,61036dbc0932c682af6e03df,2021-07-29_23h13.47.463,Simcolourproject_2stim_asymm_v5,2020.2.10,Win32,60,61025ae37ef11b136ea224fe,,,,,,,,,2061,85.60001272,-46.40000713,1,0,0,response3disk,,5,-3.199988604,-3.200006485,1,0,0,rectangle,-3.199988604,-3.200006485,1,0,0,-3.199988604,-3.200006485,1,0,0,0,121,121,120,1,,,,,,,,
,,,,,,,,,,,,,FF,,,,,,,,3.5133,,,,,,,,,,,,,,,,,,,,,,60fdb491fed04550de2a2068,61036dbc0932c682af6e03df,2021-07-29_23h13.47.463,Simcolourproject_2stim_asymm_v5,2020.2.10,Win32,60,61025ae37ef11b136ea224fe,,,,,,,,,3067,34.40001196,-89.6000566,1,0,0,response3disk,,4,-2.399939764,-12.80000663,1,0,0,rectangle,-2.399939764,-12.80000663,1,0,0,-2.399939764,-12.80000663,1,0,0,0,122,122,65,1,,,,,,,,
,,,,,,,,,,,,,FF,,,,,,,,0.8825,,,,,,,,,,,,,,,,,,,,,,60fdb491fed04550de2a2068,61036dbc0932c682af6e03df,2021-07-29_23h13.47.463,Simcolourproject_2stim_asymm_v5,2020.2.10,Win32,60,61025ae37ef11b136ea224fe,,,,,,,,,123,89.60001278,49.5999943,1,0,0,response1disk,,6,-5.599988639,0.799993575,1,0,0,rectangle,-44.79998922,-68.00000745,1,0,0,-7.199988663,7.19999367,1,0,0,0,123,123,81,1,,response5disk_3,TRUE,3,3,"[7,284,205,52,171,261,167,318,36,292,103,267,125,112,288,51,124,224,239,160]",2.0645,rectangle
,,,,,,,,,,,,,FF,,,,,,,,1.0657,,,,,,,,,,,,,,,,,,,,,,60fdb491fed04550de2a2068,61036dbc0932c682af6e03df,2021-07-29_23h13.47.463,Simcolourproject_2stim_asymm_v5,2020.2.10,Win32,60,61025ae37ef11b136ea224fe,,,,,,,,,2352,-35.19998908,-97.60005672,1,0,0,response5disk,,3,-8.799988687,-3.200006485,1,0,0,rectangle,-59.99998945,-104.000008,1,0,0,-4.799988627,-11.2000066,1,0,0,0,124,124,147,1,,response5disk_3,TRUE,3,3,"[7,284,205,52,171,261,167,318,36,292,103,267,125,112,288,51,124,224,239,160]",2.3155,rectangle
,,,,,,,,,,,,,FF,,,,,,,,1.3995,,,,,,,,,,,,,,,,,,,,,,60fdb491fed04550de2a2068,61036dbc0932c682af6e03df,2021-07-29_23h13.47.463,Simcolourproject_2stim_asymm_v5,2020.2.10,Win32,60,61025ae37ef11b136ea224fe,,,,,,,,,1341,95.20001286,37.59999412,1,0,0,response1disk,,6,26.40001184,10.39999372,1,0,0,rectangle,26.40001184,10.39999372,1,0,0,26.40001184,10.39999372,1,0,0,0,125,125,23,1,,,,,,,,
,,,,,,,,,,,,,FF,,,,,,,,0.9155,,,,,,,,,,,,,,,,,,,,,,60fdb491fed04550de2a2068,61036dbc0932c682af6e03df,2021-07-29_23h13.47.463,Simcolourproject_2stim_asymm_v5,2020.2.10,Win32,60,61025ae37ef11b136ea224fe,,,,,,,,,1518,-85.59998983,-46.40000713,1,0,0,response5disk,,2,-16.79998881,7.19999367,1,0,0,rectangle,-16.79998881,7.19999367,1,0,0,-16.79998881,7.19999367,1,0,0,0,126,126,127,1,,,,,,,,
,,,,,,,,,,,,,FF,,,,,,,,1.6813,,,,,,,,,,,,,,,,,,,,,,60fdb491fed04550de2a2068,61036dbc0932c682af6e03df,2021-07-29_23h13.47.463,Simcolourproject_2stim_asymm_v5,2020.2.10,Win32,60,61025ae37ef11b136ea224fe,,,,,,,,,1282,-75.99998969,41.59999418,1,0,0,response7disk,,1,-3.999988616,-15.20000666,1,0,0,rectangle,-3.999988616,-15.20000666,1,0,0,-3.999988616,-15.20000666,1,0,0,0,127,127,78,1,,,,,,,,
,,,,,,,,,,,,,FF,,,,,,,,1.2443,,,,,,,,,,,,,,,,,,,,,,60fdb491fed04550de2a2068,61036dbc0932c682af6e03df,2021-07-29_23h13.47.463,Simcolourproject_2stim_asymm_v5,2020.2.10,Win32,60,61025ae37ef11b136ea224fe,,,,,,,,,2049,92.00001281,35.9999941,1,0,0,response1disk,,6,-12.79998875,-2.400006473,1,0,0,rectangle,-12.79998875,-2.400006473,1,0,0,-12.79998875,-2.400006473,1,0,0,0,128,128,80,1,,,,,,,,
,,,,,,,,,,,,,FF,,,,,,,,0.8344,,,,,,,,,,,,,,,,,,,,,,60fdb491fed04550de2a2068,61036dbc0932c682af6e03df,2021-07-29_23h13.47.463,Simcolourproject_2stim_asymm_v5,2020.2.10,Win32,60,61025ae37ef11b136ea224fe,,,,,,,,,4053,-53.59998935,-82.40000767,1,0,0,response5disk,,3,-9.599988699,-8.000006557,1,0,0,rectangle,-9.599988699,-8.000006557,1,0,0,-9.599988699,-8.000006557,1,0,0,0,129,129,31,1,,,,,,,,
,,,,,,,,,,,,,FF,,,,,,,,0.9658,,,,,,,,,,,,,,,,,,,,,,60fdb491fed04550de2a2068,61036dbc0932c682af6e03df,2021-07-29_23h13.47.463,Simcolourproject_2stim_asymm_v5,2020.2.10,Win32,60,61025ae37ef11b136ea224fe,,,,,,,,,2710,-44.79998922,-72.80000752,1,0,0,response5disk,,3,-3.199988604,-9.60000658,1,0,0,rectangle,-3.199988604,-9.60000658,1,0,0,-3.199988604,-9.60000658,1,0,0,0,130,130,134,1,,,,,,,,
,,,,,,,,,,,,,FF,,,,,,,,0.7659,,,,,,,,,,,,,,,,,,,,,,60fdb491fed04550de2a2068,61036dbc0932c682af6e03df,2021-07-29_23h13.47.463,Simcolourproject_2stim_asymm_v5,2020.2.10,Win32,60,61025ae37ef11b136ea224fe,,,,,,,,,1507,84.80001271,51.19996991,1,0,0,response1disk,,6,-1.59998858,-3.200006485,1,0,0,rectangle,-1.59998858,-3.200006485,1,0,0,-1.59998858,-3.200006485,1,0,0,0,131,131,107,1,,,,,,,,
,,,,,,,,,,,,,FF,,,,,,,,0.8996,,,,,,,,,,,,,,,,,,,,,,60fdb491fed04550de2a2068,61036dbc0932c682af6e03df,2021-07-29_23h13.47.463,Simcolourproject_2stim_asymm_v5,2020.2.10,Win32,60,61025ae37ef11b136ea224fe,,,,,,,,,227,64.0000124,26.39999396,1,0,0,response1disk,,6,-11.99998873,-0.800006449,1,0,0,rectangle,-11.99998873,-0.800006449,1,0,0,-11.99998873,-0.800006449,1,0,0,0,132,132,92,1,,,,,,,,
,,,,,,,,,,,,,FF,,,,,,,,0.8549,,,,,,,,,,,,,,,,,,,,,,60fdb491fed04550de2a2068,61036dbc0932c682af6e03df,2021-07-29_23h13.47.463,Simcolourproject_2stim_asymm_v5,2020.2.10,Win32,60,61025ae37ef11b136ea224fe,,,,,,,,,201,80.80001265,-32.80000693,1,0,0,response3disk,,5,0.800011456,-6.4373E-06,1,0,0,rectangle,0.800011456,-6.4373E-06,1,0,0,0.800011456,-6.4373E-06,1,0,0,0,133,133,47,1,,,,,,,,
,,,,,,,,,,,,,FF,,,,,,,,1.7485,,,,,,,,,,,,,,,,,,,,,,60fdb491fed04550de2a2068,61036dbc0932c682af6e03df,2021-07-29_23h13.47.463,Simcolourproject_2stim_asymm_v5,2020.2.10,Win32,60,61025ae37ef11b136ea224fe,,,,,,,,,1784,79.20001262,-66.40000743,1,0,0,response3disk,,5,-24.79998893,-0.800006449,1,0,0,rectangle,-24.79998893,-0.800006449,1,0,0,-24.79998893,-0.800006449,1,0,0,0,134,134,145,1,,,,,,,,
,,,,,,,,,,,,,FF,,,,,,,,0.8662,,,,,,,,,,,,,,,,,,,,,,60fdb491fed04550de2a2068,61036dbc0932c682af6e03df,2021-07-29_23h13.47.463,Simcolourproject_2stim_asymm_v5,2020.2.10,Win32,60,61025ae37ef11b136ea224fe,,,,,,,,,1943,40.00001204,99.99999505,1,0,0,response1disk,,7,-9.599988699,-6.400006533,1,0,0,rectangle,-9.599988699,-6.400006533,1,0,0,-9.599988699,-6.400006533,1,0,0,0,135,135,133,1,,,,,,,,
,,,,,,,,,,,,,FF,,,,,,,,1.1098,,,,,,,,,,,,,,,,,,,,,,60fdb491fed04550de2a2068,61036dbc0932c682af6e03df,2021-07-29_23h13.47.463,Simcolourproject_2stim_asymm_v5,2020.2.10,Win32,60,61025ae37ef11b136ea224fe,,,,,,,,,4007,107.200013,44.79999423,1,0,0,response1disk,,6,14.40001166,11.19999373,1,0,0,rectangle,14.40001166,11.19999373,1,0,0,14.40001166,11.19999373,1,0,0,0,136,136,56,1,,,,,,,,
,,,,,,,,,,,,,FF,,,,,,,,1.9315,,,,,,,,,,,,,,,,,,,,,,60fdb491fed04550de2a2068,61036dbc0932c682af6e03df,2021-07-29_23h13.47.463,Simcolourproject_2stim_asymm_v5,2020.2.10,Win32,60,61025ae37ef11b136ea224fe,,,,,,,,,12,-44.79998922,-94.40000784,1,0,0,response5disk,,3,0.800011456,-7.200006545,1,0,0,rectangle,0.800011456,-7.200006545,1,0,0,0.800011456,-7.200006545,1,0,0,0,137,137,21,1,,,,,,,,
,,,,,,,,,,,,,FF,,,,,,,,1.5654,,,,,,,,,,,,,,,,,,,,,,60fdb491fed04550de2a2068,61036dbc0932c682af6e03df,2021-07-29_23h13.47.463,Simcolourproject_2stim_asymm_v5,2020.2.10,Win32,60,61025ae37ef11b136ea224fe,,,,,,,,,4067,63.20001239,-36.80000699,1,0,0,response3disk,,5,-15.99998879,3.19999361,1,0,0,rectangle,-15.99998879,3.19999361,1,0,0,-15.99998879,3.19999361,1,0,0,0,138,138,75,1,,,,,,,,
,,,,,,,,,,,,,FF,,,,,,,,1.1822,,,,,,,,,,,,,,,,,,,,,,60fdb491fed04550de2a2068,61036dbc0932c682af6e03df,2021-07-29_23h13.47.463,Simcolourproject_2stim_asymm_v5,2020.2.10,Win32,60,61025ae37ef11b136ea224fe,,,,,,,,,4173,54.40001225,93.59999496,1,0,0,response1disk,,7,-2.399939764,3.19999361,1,0,0,rectangle,-2.399939764,3.19999361,1,0,0,-2.399939764,3.19999361,1,0,0,0,139,139,100,1,,,,,,,,
,,,,,,,,,,,,,FF,,,,,,,,0.7996,,,,,,,,,,,,,,,,,,,,,,60fdb491fed04550de2a2068,61036dbc0932c682af6e03df,2021-07-29_23h13.47.463,Simcolourproject_2stim_asymm_v5,2020.2.10,Win32,60,61025ae37ef11b136ea224fe,,,,,,,,,1864,85.60001272,43.19996979,1,0,0,response1disk,,6,16.80001169,6.399993658,1,0,0,rectangle,16.80001169,6.399993658,1,0,0,16.80001169,6.399993658,1,0,0,0,140,140,136,1,,,,,,,,
,,,,,,,,,,,,,FF,,,,,,,,0.9327,,,,,,,,,,,,,,,,,,,,,,60fdb491fed04550de2a2068,61036dbc0932c682af6e03df,2021-07-29_23h13.47.463,Simcolourproject_2stim_asymm_v5,2020.2.10,Win32,60,61025ae37ef11b136ea224fe,,,,,,,,,3886,93.60001284,48.79999429,1,0,0,response1disk,,6,10.4000116,7.999993682,1,0,0,rectangle,10.4000116,7.999993682,1,0,0,10.4000116,7.999993682,1,0,0,0,141,141,1,1,,,,,,,,
,,,,,,,,,,,,,FF,,,,,,,,1.2321,,,,,,,,,,,,,,,,,,,,,,60fdb491fed04550de2a2068,61036dbc0932c682af6e03df,2021-07-29_23h13.47.463,Simcolourproject_2stim_asymm_v5,2020.2.10,Win32,60,61025ae37ef11b136ea224fe,,,,,,,,,2870,79.20001262,52.79999435,1,0,0,response1disk,,6,-6.399939823,-0.800006449,1,0,0,rectangle,-6.399939823,-0.800006449,1,0,0,-6.399939823,-0.800006449,1,0,0,0,142,142,79,1,,,,,,,,
,,,,,,,,,,,,,FF,,,,,,,,0.8659,,,,,,,,,,,,,,,,,,,,,,60fdb491fed04550de2a2068,61036dbc0932c682af6e03df,2021-07-29_23h13.47.463,Simcolourproject_2stim_asymm_v5,2020.2.10,Win32,60,61025ae37ef11b136ea224fe,,,,,,,,,4018,107.200013,47.99999428,1,0,0,response1disk,,6,-11.99998873,-8.000006557,1,0,0,rectangle,-11.99998873,-8.000006557,1,0,0,-11.99998873,-8.000006557,1,0,0,0,143,143,4,1,,,,,,,,
,,,,,,,,,,,,,FF,,,,,,,,1.1995,,,,,,,,,,,,,,,,,,,,,,60fdb491fed04550de2a2068,61036dbc0932c682af6e03df,2021-07-29_23h13.47.463,Simcolourproject_2stim_asymm_v5,2020.2.10,Win32,60,61025ae37ef11b136ea224fe,,,,,,,,,3510,-51.99998933,87.19997045,1,0,0,response7disk,,0,-3.199988604,-1.600006461,1,0,0,rectangle,-3.199988604,-1.600006461,1,0,0,-3.199988604,-1.600006461,1,0,0,0,144,144,123,1,,,,,,,,
,,,,,,,,,,,,,FF,,,,,,,,1.5033,,,,,,,,,,,,,,,,,,,,,,60fdb491fed04550de2a2068,61036dbc0932c682af6e03df,2021-07-29_23h13.47.463,Simcolourproject_2stim_asymm_v5,2020.2.10,Win32,60,61025ae37ef11b136ea224fe,,,,,,,,,3688,-33.59998906,-99.20000792,1,0,0,response5disk,,3,16.80001169,9.599993706,1,0,0,rectangle,16.80001169,9.599993706,1,0,0,16.80001169,9.599993706,1,0,0,0,145,145,112,1,,,,,,,,
,,,,,,,,,,,,,FF,,,,,,,,1.1982,,,,,,,,,,,,,,,,,,,,,,60fdb491fed04550de2a2068,61036dbc0932c682af6e03df,2021-07-29_23h13.47.463,Simcolourproject_2stim_asymm_v5,2020.2.10,Win32,60,61025ae37ef11b136ea224fe,,,,,,,,,909,-25.59998894,-74.40000755,1,0,0,response5disk,,3,4.800011516,2.399993598,1,0,0,rectangle,4.800011516,2.399993598,1,0,0,4.800011516,2.399993598,1,0,0,0,146,146,20,1,,,,,,,,
,,,,,,,,,,,,,FF,,,,,,,,0.8997,,,,,,,,,,,,,,,,,,,,,,60fdb491fed04550de2a2068,61036dbc0932c682af6e03df,2021-07-29_23h13.47.463,Simcolourproject_2stim_asymm_v5,2020.2.10,Win32,60,61025ae37ef11b136ea224fe,,,,,,,,,3496,65.60001242,-54.40000725,1,0,0,response3disk,,5,-7.199988663,9.599993706,1,0,0,rectangle,-7.199988663,9.599993706,1,0,0,-7.199988663,9.599993706,1,0,0,0,147,147,11,1,,,,,,,,
,,,,,,,,,,,,,FF,,,,,,,,1.0529,,,,,,,,,,,,,,,,,,,,,,60fdb491fed04550de2a2068,61036dbc0932c682af6e03df,2021-07-29_23h13.47.463,Simcolourproject_2stim_asymm_v5,2020.2.10,Win32,60,61025ae37ef11b136ea224fe,,,,,,,,,1662,41.60006089,-60.80000734,1,0,0,response3disk,,4,-3.999988616,4.799993634,1,0,0,rectangle,-3.999988616,4.799993634,1,0,0,-3.999988616,4.799993634,1,0,0,0,148,148,90,1,,,,,,,,
,,,,,,,,,,,,,FF,,,,,,,,1.4209,,,,,,,,,,,,,,,,,,,,,,60fdb491fed04550de2a2068,61036dbc0932c682af6e03df,2021-07-29_23h13.47.463,Simcolourproject_2stim_asymm_v5,2020.2.10,Win32,60,61025ae37ef11b136ea224fe,,,,,,,,,4113,21.60006059,80.79999477,1,0,0,response1disk,,7,-11.19998872,0.799993575,1,0,0,rectangle,-11.19998872,0.799993575,1,0,0,-11.19998872,0.799993575,1,0,0,0,149,149,118,1,,,,,,,,
,,,,,,,,,,,,,FF,,,,,,,,1.4655,,,,,,,,,,,,,,,,,,,,,,60fdb491fed04550de2a2068,61036dbc0932c682af6e03df,2021-07-29_23h13.47.463,Simcolourproject_2stim_asymm_v5,2020.2.10,Win32,60,61025ae37ef11b136ea224fe,,,,,,,,,352,-88.79998988,-48.00000715,1,0,0,response5disk,,2,1.600060296,0.799993575,1,0,0,rectangle,1.600060296,0.799993575,1,0,0,1.600060296,0.799993575,1,0,0,0,150,150,122,1,,,,,,,,
,,,,,,,,,,,,,FF,,,,,,,,0.8656,,,,,,,,,,,,,,,,,,,,,,60fdb491fed04550de2a2068,61036dbc0932c682af6e03df,2021-07-29_23h13.47.463,Simcolourproject_2stim_asymm_v5,2020.2.10,Win32,60,61025ae37ef11b136ea224fe,,,,,,,,,2745,88.80001277,30.39999402,1,0,0,response1disk,,6,8.800011575,-3.200006485,1,0,0,rectangle,8.800011575,-3.200006485,1,0,0,8.800011575,-3.200006485,1,0,0,0,151,151,59,1,,,,,,,,
,,,,,,,,,,,,,FF,,,,,,,,0.9986,,,,,,,,,,,,,,,,,,,,,,60fdb491fed04550de2a2068,61036dbc0932c682af6e03df,2021-07-29_23h13.47.463,Simcolourproject_2stim_asymm_v5,2020.2.10,Win32,60,61025ae37ef11b136ea224fe,,,,,,,,,3927,59.20001233,38.39999413,1,0,0,response1disk,,6,20.00001174,9.599993706,1,0,0,rectangle,20.00001174,9.599993706,1,0,0,20.00001174,9.599993706,1,0,0,0,152,152,124,1,,,,,,,,
,,,,,,,,,,,,,FF,,,,,,,,0.8659,,,,,,,,,,,,,,,,,,,,,,60fdb491fed04550de2a2068,61036dbc0932c682af6e03df,2021-07-29_23h13.47.463,Simcolourproject_2stim_asymm_v5,2020.2.10,Win32,60,61025ae37ef11b136ea224fe,,,,,,,,,354,-62.39994066,-79.20000762,1,0,0,response5disk,,3,4.800011516,-0.800006449,1,0,0,rectangle,4.800011516,-0.800006449,1,0,0,4.800011516,-0.800006449,1,0,0,0,153,153,157,1,,,,,,,,
,,,,,,,,,,,,,FF,,,,,,,,0.8548,,,,,,,,,,,,,,,,,,,,,,60fdb491fed04550de2a2068,61036dbc0932c682af6e03df,2021-07-29_23h13.47.463,Simcolourproject_2stim_asymm_v5,2020.2.10,Win32,60,61025ae37ef11b136ea224fe,,,,,,,,,2398,68.00001246,45.59999424,1,0,0,response1disk,,6,8.800011575,6.399993658,1,0,0,rectangle,8.800011575,6.399993658,1,0,0,8.800011575,6.399993658,1,0,0,0,154,154,148,1,,,,,,,,
,,,,,,,,,,,,,FF,,,,,,,,1.0832,,,,,,,,,,,,,,,,,,,,,,60fdb491fed04550de2a2068,61036dbc0932c682af6e03df,2021-07-29_23h13.47.463,Simcolourproject_2stim_asymm_v5,2020.2.10,Win32,60,61025ae37ef11b136ea224fe,,,,,,,,,4350,-43.1999892,110.3999952,1,0,0,response7disk,,0,9.600060415,3.19999361,1,0,0,rectangle,9.600060415,3.19999361,1,0,0,9.600060415,3.19999361,1,0,0,0,155,155,115,1,,,,,,,,
,,,,,,,,,,,,,FF,,,,,,,,0.7326,,,,,,,,,,,,,,,,,,,,,,60fdb491fed04550de2a2068,61036dbc0932c682af6e03df,2021-07-29_23h13.47.463,Simcolourproject_2stim_asymm_v5,2020.2.10,Win32,60,61025ae37ef11b136ea224fe,,,,,,,,,2965,80.00001264,47.19996985,1,0,0,response1disk,,6,8.000011563,-3.200006485,1,0,0,rectangle,8.000011563,-3.200006485,1,0,0,8.000011563,-3.200006485,1,0,0,0,156,156,70,1,,,,,,,,
,,,,,,,,,,,,,FF,,,,,,,,0.7987,,,,,,,,,,,,,,,,,,,,,,60fdb491fed04550de2a2068,61036dbc0932c682af6e03df,2021-07-29_23h13.47.463,Simcolourproject_2stim_asymm_v5,2020.2.10,Win32,60,61025ae37ef11b136ea224fe,,,,,,,,,3249,48.00001216,85.59999484,1,0,0,response1disk,,7,11.20001161,11.99999374,1,0,0,rectangle,11.20001161,11.99999374,1,0,0,11.20001161,11.99999374,1,0,0,0,157,157,58,1,,,,,,,,
,,,,,,,,,,,,,FF,,,,,,,,1.0542,,,,,,,,,,,,,,,,,,,,,,60fdb491fed04550de2a2068,61036dbc0932c682af6e03df,2021-07-29_23h13.47.463,Simcolourproject_2stim_asymm_v5,2020.2.10,Win32,60,61025ae37ef11b136ea224fe,,,,,,,,,187,-34.39994024,-64.8000074,1,0,0,response5disk,,3,6.400011539,0.799993575,1,0,0,rectangle,6.400011539,0.799993575,1,0,0,6.400011539,0.799993575,1,0,0,0,158,158,46,1,,,,,,,,
,,,,,,,,,,,,,FF,,,,,,,,0.8498,,,,,,,,,,,,,,,,,,,,,,60fdb491fed04550de2a2068,61036dbc0932c682af6e03df,2021-07-29_23h13.47.463,Simcolourproject_2stim_asymm_v5,2020.2.10,Win32,60,61025ae37ef11b136ea224fe,,,,,,,,,2377,90.40001279,40.79999417,1,0,0,response1disk,,6,6.400011539,0.799993575,1,0,0,rectangle,-91.99998993,-30.40000689,1,0,0,-14.39993994,-9.60000658,1,0,0,0,159,159,139,1,,response5disk_3,TRUE,2,2,"[7,284,205,52,171,261,167,318,36,292,103,267,125,112,288,51,124,224,239,160]",1.614,rectangle
,,,,,,,,,,,,,FF,,,,,,,,0.9043,,,,,,,,,,,,,,,,,,,,,,60fdb491fed04550de2a2068,61036dbc0932c682af6e03df,2021-07-29_23h13.47.463,Simcolourproject_2stim_asymm_v5,2020.2.10,Win32,60,61025ae37ef11b136ea224fe,,,,,,,,,2844,-30.39994018,-65.60000741,1,0,0,response5disk,,3,5.600060356,-6.400006533,1,0,0,rectangle,5.600060356,-6.400006533,1,0,0,5.600060356,-6.400006533,1,0,0,1,0,160,44,1,,,,,,,,
,,,,,,,,,,,,,FF,,,,,,,,0.8493,,,,,,,,,,,,,,,,,,,,,,60fdb491fed04550de2a2068,61036dbc0932c682af6e03df,2021-07-29_23h13.47.463,Simcolourproject_2stim_asymm_v5,2020.2.10,Win32,60,61025ae37ef11b136ea224fe,,,,,,,,,1457,-43.99998921,-95.20000786,1,0,0,response5disk,,3,17.60006053,2.399993598,1,0,0,rectangle,17.60006053,2.399993598,1,0,0,17.60006053,2.399993598,1,0,0,1,1,161,157,1,,,,,,,,
,,,,,,,,,,,,,FF,,,,,,,,0.8159,,,,,,,,,,,,,,,,,,,,,,60fdb491fed04550de2a2068,61036dbc0932c682af6e03df,2021-07-29_23h13.47.463,Simcolourproject_2stim_asymm_v5,2020.2.10,Win32,60,61025ae37ef11b136ea224fe,,,,,,,,,3032,35.20001197,91.19997051,1,0,0,response1disk,,7,-15.99998879,-16.80000669,1,0,0,rectangle,-15.99998879,-16.80000669,1,0,0,-15.99998879,-16.80000669,1,0,0,1,2,162,9,1,,,,,,,,
,,,,,,,,,,,,,FF,,,,,,,,0.8327,,,,,,,,,,,,,,,,,,,,,,60fdb491fed04550de2a2068,61036dbc0932c682af6e03df,2021-07-29_23h13.47.463,Simcolourproject_2stim_asymm_v5,2020.2.10,Win32,60,61025ae37ef11b136ea224fe,,,,,,,,,1471,-90.39994107,-43.20000708,1,0,0,response5disk,,2,-6.399939823,-7.200006545,1,0,0,rectangle,-6.399939823,-7.200006545,1,0,0,-6.399939823,-7.200006545,1,0,0,1,3,163,156,1,,,,,,,,
,,,,,,,,,,,,,FF,,,,,,,,1.0323,,,,,,,,,,,,,,,,,,,,,,60fdb491fed04550de2a2068,61036dbc0932c682af6e03df,2021-07-29_23h13.47.463,Simcolourproject_2stim_asymm_v5,2020.2.10,Win32,60,61025ae37ef11b136ea224fe,,,,,,,,,902,-50.39994048,-73.60000753,1,0,0,response5disk,,3,4.800011516,3.19999361,1,0,0,rectangle,4.800011516,3.19999361,1,0,0,4.800011516,3.19999361,1,0,0,1,4,164,117,1,,,,,,,,
,,,,,,,,,,,,,FF,,,,,,,,0.7006,,,,,,,,,,,,,,,,,,,,,,60fdb491fed04550de2a2068,61036dbc0932c682af6e03df,2021-07-29_23h13.47.463,Simcolourproject_2stim_asymm_v5,2020.2.10,Win32,60,61025ae37ef11b136ea224fe,,,,,,,,,3651,80.80001265,43.19996979,1,0,0,response1disk,,6,-11.99998873,3.19999361,1,0,0,rectangle,-11.99998873,3.19999361,1,0,0,-11.99998873,3.19999361,1,0,0,1,5,165,135,1,,,,,,,,
,,,,,,,,,,,,,FF,,,,,,,,0.8827,,,,,,,,,,,,,,,,,,,,,,60fdb491fed04550de2a2068,61036dbc0932c682af6e03df,2021-07-29_23h13.47.463,Simcolourproject_2stim_asymm_v5,2020.2.10,Win32,60,61025ae37ef11b136ea224fe,,,,,,,,,128,95.20001286,51.19996991,1,0,0,response1disk,,6,7.200011551,3.19999361,1,0,0,rectangle,73.60001254,55.9999944,1,0,0,2.40001148,7.19999367,1,0,0,1,6,166,87,1,,response1disk_3,TRUE,6,6,"[7,284,205,52,171,261,167,318,36,292,103,267,125,112,288,51,124,224,239,160]",1.7647,rectangle
,,,,,,,,,,,,,FF,,,,,,,,0.9657,,,,,,,,,,,,,,,,,,,,,,60fdb491fed04550de2a2068,61036dbc0932c682af6e03df,2021-07-29_23h13.47.463,Simcolourproject_2stim_asymm_v5,2020.2.10,Win32,60,61025ae37ef11b136ea224fe,,,,,,,,,4197,-33.59998906,-81.60005648,1,0,0,response5disk,,3,4.800011516,1.599993587,1,0,0,rectangle,4.800011516,1.599993587,1,0,0,4.800011516,1.599993587,1,0,0,1,7,167,49,1,,,,,,,,
,,,,,,,,,,,,,FF,,,,,,,,0.7325,,,,,,,,,,,,,,,,,,,,,,60fdb491fed04550de2a2068,61036dbc0932c682af6e03df,2021-07-29_23h13.47.463,Simcolourproject_2stim_asymm_v5,2020.2.10,Win32,60,61025ae37ef11b136ea224fe,,,,,,,,,712,-51.99998933,-80.00000763,1,0,0,response5disk,,3,8.000011563,5.599993646,1,0,0,rectangle,8.000011563,5.599993646,1,0,0,8.000011563,5.599993646,1,0,0,1,8,168,103,1,,,,,,,,
,,,,,,,,,,,,,FF,,,,,,,,0.883,,,,,,,,,,,,,,,,,,,,,,60fdb491fed04550de2a2068,61036dbc0932c682af6e03df,2021-07-29_23h13.47.463,Simcolourproject_2stim_asymm_v5,2020.2.10,Win32,60,61025ae37ef11b136ea224fe,,,,,,,,,427,90.40001279,-44.00000709,1,0,0,response3disk,,5,0.800011456,-10.40000659,1,0,0,rectangle,0.800011456,-10.40000659,1,0,0,0.800011456,-10.40000659,1,0,0,1,9,169,63,1,,,,,,,,
,,,,,,,,,,,,,FF,,,,,,,,0.7825,,,,,,,,,,,,,,,,,,,,,,60fdb491fed04550de2a2068,61036dbc0932c682af6e03df,2021-07-29_23h13.47.463,Simcolourproject_2stim_asymm_v5,2020.2.10,Win32,60,61025ae37ef11b136ea224fe,,,,,,,,,1148,-43.1999892,-70.40000749,1,0,0,response5disk,,3,-9.599988699,6.399993658,1,0,0,rectangle,-94.39994113,-49.60000718,1,0,0,-9.599988699,-2.400006473,1,0,0,1,10,170,51,1,,response5disk_3,TRUE,2,2,"[7,284,205,52,171,261,167,318,36,292,103,267,125,112,288,51,124,224,239,160]",1.998,rectangle
,,,,,,,,,,,,,FF,,,,,,,,1.0826,,,,,,,,,,,,,,,,,,,,,,60fdb491fed04550de2a2068,61036dbc0932c682af6e03df,2021-07-29_23h13.47.463,Simcolourproject_2stim_asymm_v5,2020.2.10,Win32,60,61025ae37ef11b136ea224fe,,,,,,,,,602,37.60006083,-76.80000758,1,0,0,response3disk,,4,-15.99998879,3.19999361,1,0,0,rectangle,-15.99998879,3.19999361,1,0,0,-15.99998879,3.19999361,1,0,0,1,11,171,64,1,,,,,,,,
,,,,,,,,,,,,,FF,,,,,,,,0.8503,,,,,,,,,,,,,,,,,,,,,,60fdb491fed04550de2a2068,61036dbc0932c682af6e03df,2021-07-29_23h13.47.463,Simcolourproject_2stim_asymm_v5,2020.2.10,Win32,60,61025ae37ef11b136ea224fe,,,,,,,,,1654,112.0000131,51.99999434,1,0,0,response1disk,,6,-13.59998876,-4.000006497,1,0,0,rectangle,-13.59998876,-4.000006497,1,0,0,-13.59998876,-4.000006497,1,0,0,1,12,172,31,1,,,,,,,,
,,,,,,,,,,,,,FF,,,,,,,,1.4825,,,,,,,,,,,,,,,,,,,,,,60fdb491fed04550de2a2068,61036dbc0932c682af6e03df,2021-07-29_23h13.47.463,Simcolourproject_2stim_asymm_v5,2020.2.10,Win32,60,61025ae37ef11b136ea224fe,,,,,,,,,716,-90.39994107,27.19996955,1,0,0,response7disk,,1,2.40001148,-6.4373E-06,1,0,0,rectangle,2.40001148,-6.4373E-06,1,0,0,2.40001148,-6.4373E-06,1,0,0,1,13,173,140,1,,,,,,,,
,,,,,,,,,,,,,FF,,,,,,,,0.866,,,,,,,,,,,,,,,,,,,,,,60fdb491fed04550de2a2068,61036dbc0932c682af6e03df,2021-07-29_23h13.47.463,Simcolourproject_2stim_asymm_v5,2020.2.10,Win32,60,61025ae37ef11b136ea224fe,,,,,,,,,1582,93.60001284,45.59999424,1,0,0,response1disk,,6,-2.399939764,-4.800006509,1,0,0,rectangle,-2.399939764,-4.800006509,1,0,0,-2.399939764,-4.800006509,1,0,0,1,14,174,24,1,,,,,,,,
,,,,,,,,,,,,,FF,,,,,,,,0.8992,,,,,,,,,,,,,,,,,,,,,,60fdb491fed04550de2a2068,61036dbc0932c682af6e03df,2021-07-29_23h13.47.463,Simcolourproject_2stim_asymm_v5,2020.2.10,Win32,60,61025ae37ef11b136ea224fe,,,,,,,,,1150,-36.7999891,-87.20000774,1,0,0,response5disk,,3,4.000011504,6.399993658,1,0,0,rectangle,4.000011504,6.399993658,1,0,0,4.000011504,6.399993658,1,0,0,1,15,175,2,1,,,,,,,,
,,,,,,,,,,,,,FF,,,,,,,,0.7203,,,,,,,,,,,,,,,,,,,,,,60fdb491fed04550de2a2068,61036dbc0932c682af6e03df,2021-07-29_23h13.47.463,Simcolourproject_2stim_asymm_v5,2020.2.10,Win32,60,61025ae37ef11b136ea224fe,,,,,,,,,3668,-36.7999891,83.19997039,1,0,0,response7disk,,0,24.0000118,-1.600006461,1,0,0,rectangle,24.0000118,-1.600006461,1,0,0,24.0000118,-1.600006461,1,0,0,1,16,176,20,1,,,,,,,,
,,,,,,,,,,,,,FF,,,,,,,,0.8817,,,,,,,,,,,,,,,,,,,,,,60fdb491fed04550de2a2068,61036dbc0932c682af6e03df,2021-07-29_23h13.47.463,Simcolourproject_2stim_asymm_v5,2020.2.10,Win32,60,61025ae37ef11b136ea224fe,,,,,,,,,1356,-30.39994018,-91.2000078,1,0,0,response5disk,,3,3.200011492,-6.4373E-06,1,0,0,rectangle,3.200011492,-6.4373E-06,1,0,0,3.200011492,-6.4373E-06,1,0,0,1,17,177,139,1,,,,,,,,
,,,,,,,,,,,,,FF,,,,,,,,1.2486,,,,,,,,,,,,,,,,,,,,,,60fdb491fed04550de2a2068,61036dbc0932c682af6e03df,2021-07-29_23h13.47.463,Simcolourproject_2stim_asymm_v5,2020.2.10,Win32,60,61025ae37ef11b136ea224fe,,,,,,,,,4054,-53.59998935,-81.60005648,1,0,0,response5disk,,3,12.00001162,-4.800006509,1,0,0,rectangle,12.00001162,-4.800006509,1,0,0,12.00001162,-4.800006509,1,0,0,1,18,178,8,1,,,,,,,,
,,,,,,,,,,,,,FF,,,,,,,,1.4163,,,,,,,,,,,,,,,,,,,,,,60fdb491fed04550de2a2068,61036dbc0932c682af6e03df,2021-07-29_23h13.47.463,Simcolourproject_2stim_asymm_v5,2020.2.10,Win32,60,61025ae37ef11b136ea224fe,,,,,,,,,3977,-92.79998994,-56.00000727,1,0,0,response5disk,,2,4.000011504,3.999993622,1,0,0,rectangle,4.000011504,3.999993622,1,0,0,4.000011504,3.999993622,1,0,0,1,19,179,58,1,,,,,,,,
,,,,,,,,,,,,,FF,,,,,,,,1.2154,,,,,,,,,,,,,,,,,,,,,,60fdb491fed04550de2a2068,61036dbc0932c682af6e03df,2021-07-29_23h13.47.463,Simcolourproject_2stim_asymm_v5,2020.2.10,Win32,60,61025ae37ef11b136ea224fe,,,,,,,,,14,58.40001231,28.79999399,1,0,0,response1disk,,6,-7.199988663,-12.00000662,1,0,0,rectangle,-7.199988663,-12.00000662,1,0,0,-7.199988663,-12.00000662,1,0,0,1,20,180,129,1,,,,,,,,
,,,,,,,,,,,,,FF,,,,,,,,0.9328,,,,,,,,,,,,,,,,,,,,,,60fdb491fed04550de2a2068,61036dbc0932c682af6e03df,2021-07-29_23h13.47.463,Simcolourproject_2stim_asymm_v5,2020.2.10,Win32,60,61025ae37ef11b136ea224fe,,,,,,,,,218,93.60001284,32.79999405,1,0,0,response1disk,,6,-13.59998876,-8.800006568,1,0,0,rectangle,-13.59998876,-8.800006568,1,0,0,-13.59998876,-8.800006568,1,0,0,1,21,181,71,1,,,,,,,,
,,,,,,,,,,,,,FF,,,,,,,,0.999,,,,,,,,,,,,,,,,,,,,,,60fdb491fed04550de2a2068,61036dbc0932c682af6e03df,2021-07-29_23h13.47.463,Simcolourproject_2stim_asymm_v5,2020.2.10,Win32,60,61025ae37ef11b136ea224fe,,,,,,,,,1825,-47.99998927,-91.2000078,1,0,0,response5disk,,3,-0.799988568,-9.60000658,1,0,0,rectangle,-0.799988568,-9.60000658,1,0,0,-0.799988568,-9.60000658,1,0,0,1,22,182,147,1,,,,,,,,
,,,,,,,,,,,,,FF,,,,,,,,0.7661,,,,,,,,,,,,,,,,,,,,,,60fdb491fed04550de2a2068,61036dbc0932c682af6e03df,2021-07-29_23h13.47.463,Simcolourproject_2stim_asymm_v5,2020.2.10,Win32,60,61025ae37ef11b136ea224fe,,,,,,,,,530,-82.39994096,-23.20000678,1,0,0,response5disk,,2,10.4000116,2.399993598,1,0,0,rectangle,10.4000116,2.399993598,1,0,0,10.4000116,2.399993598,1,0,0,1,23,183,21,1,,,,,,,,
,,,,,,,,,,,,,FF,,,,,,,,1.0014,,,,,,,,,,,,,,,,,,,,,,60fdb491fed04550de2a2068,61036dbc0932c682af6e03df,2021-07-29_23h13.47.463,Simcolourproject_2stim_asymm_v5,2020.2.10,Win32,60,61025ae37ef11b136ea224fe,,,,,,,,,3411,77.6000126,-56.80000728,1,0,0,response3disk,,5,-9.599988699,-15.20000666,1,0,0,rectangle,-9.599988699,-15.20000666,1,0,0,-9.599988699,-15.20000666,1,0,0,1,24,184,154,1,,,,,,,,
,,,,,,,,,,,,,FF,,,,,,,,1.6983,,,,,,,,,,,,,,,,,,,,,,60fdb491fed04550de2a2068,61036dbc0932c682af6e03df,2021-07-29_23h13.47.463,Simcolourproject_2stim_asymm_v5,2020.2.10,Win32,60,61025ae37ef11b136ea224fe,,,,,,,,,3918,20.80001175,-96.80000788,1,0,0,response3disk,,4,-7.199988663,-9.60000658,1,0,0,rectangle,-7.199988663,-9.60000658,1,0,0,-7.199988663,-9.60000658,1,0,0,1,25,185,54,1,,,,,,,,
,,,,,,,,,,,,,FF,,,,,,,,0.8822,,,,,,,,,,,,,,,,,,,,,,60fdb491fed04550de2a2068,61036dbc0932c682af6e03df,2021-07-29_23h13.47.463,Simcolourproject_2stim_asymm_v5,2020.2.10,Win32,60,61025ae37ef11b136ea224fe,,,,,,,,,3571,45.60006095,-84.8000077,1,0,0,response3disk,,4,6.400011539,1.599993587,1,0,0,rectangle,6.400011539,1.599993587,1,0,0,6.400011539,1.599993587,1,0,0,1,26,186,136,1,,,,,,,,
,,,,,,,,,,,,,FF,,,,,,,,0.7831,,,,,,,,,,,,,,,,,,,,,,60fdb491fed04550de2a2068,61036dbc0932c682af6e03df,2021-07-29_23h13.47.463,Simcolourproject_2stim_asymm_v5,2020.2.10,Win32,60,61025ae37ef11b136ea224fe,,,,,,,,,4226,98.40001291,43.19996979,1,0,0,response1disk,,6,-12.79998875,1.599993587,1,0,0,rectangle,-12.79998875,1.599993587,1,0,0,-12.79998875,1.599993587,1,0,0,1,27,187,29,1,,,,,,,,
,,,,,,,,,,,,,FF,,,,,,,,0.849,,,,,,,,,,,,,,,,,,,,,,60fdb491fed04550de2a2068,61036dbc0932c682af6e03df,2021-07-29_23h13.47.463,Simcolourproject_2stim_asymm_v5,2020.2.10,Win32,60,61025ae37ef11b136ea224fe,,,,,,,,,3055,-50.39994048,-91.2000078,1,0,0,response5disk,,3,-13.59998876,-5.600006521,1,0,0,rectangle,-13.59998876,-5.600006521,1,0,0,-13.59998876,-5.600006521,1,0,0,1,28,188,99,1,,,,,,,,
,,,,,,,,,,,,,FF,,,,,,,,1.0658,,,,,,,,,,,,,,,,,,,,,,60fdb491fed04550de2a2068,61036dbc0932c682af6e03df,2021-07-29_23h13.47.463,Simcolourproject_2stim_asymm_v5,2020.2.10,Win32,60,61025ae37ef11b136ea224fe,,,,,,,,,3013,-39.19998914,-73.60000753,1,0,0,response5disk,,3,0.800011456,1.599993587,1,0,0,rectangle,0.800011456,1.599993587,1,0,0,0.800011456,1.599993587,1,0,0,1,29,189,59,1,,,,,,,,
,,,,,,,,,,,,,FF,,,,,,,,0.8659,,,,,,,,,,,,,,,,,,,,,,60fdb491fed04550de2a2068,61036dbc0932c682af6e03df,2021-07-29_23h13.47.463,Simcolourproject_2stim_asymm_v5,2020.2.10,Win32,60,61025ae37ef11b136ea224fe,,,,,,,,,1241,-95.99998999,-38.40000701,1,0,0,response5disk,,2,19.20001173,-6.400006533,1,0,0,rectangle,19.20001173,-6.400006533,1,0,0,19.20001173,-6.400006533,1,0,0,1,30,190,144,1,,,,,,,,
,,,,,,,,,,,,,FF,,,,,,,,0.7318,,,,,,,,,,,,,,,,,,,,,,60fdb491fed04550de2a2068,61036dbc0932c682af6e03df,2021-07-29_23h13.47.463,Simcolourproject_2stim_asymm_v5,2020.2.10,Win32,60,61025ae37ef11b136ea224fe,,,,,,,,,1768,-87.19998986,32.79999405,1,0,0,response7disk,,1,1.14441E-05,-12.00000662,1,0,0,rectangle,1.14441E-05,-12.00000662,1,0,0,1.14441E-05,-12.00000662,1,0,0,1,31,191,94,1,,,,,,,,
,,,,,,,,,,,,,FF,,,,,,,,1.3156,,,,,,,,,,,,,,,,,,,,,,60fdb491fed04550de2a2068,61036dbc0932c682af6e03df,2021-07-29_23h13.47.463,Simcolourproject_2stim_asymm_v5,2020.2.10,Win32,60,61025ae37ef11b136ea224fe,,,,,,,,,1013,70.40001249,-72.80000752,1,0,0,response3disk,,4,2.40001148,10.39999372,1,0,0,rectangle,2.40001148,10.39999372,1,0,0,2.40001148,10.39999372,1,0,0,1,32,192,124,1,,,,,,,,
,,,,,,,,,,,,,FF,,,,,,,,1.3866,,,,,,,,,,,,,,,,,,,,,,60fdb491fed04550de2a2068,61036dbc0932c682af6e03df,2021-07-29_23h13.47.463,Simcolourproject_2stim_asymm_v5,2020.2.10,Win32,60,61025ae37ef11b136ea224fe,,,,,,,,,2988,40.00001204,80.79999477,1,0,0,response1disk,,7,-7.999988675,7.999993682,1,0,0,rectangle,-7.999988675,7.999993682,1,0,0,-7.999988675,7.999993682,1,0,0,1,33,193,119,1,,,,,,,,
,,,,,,,,,,,,,FF,,,,,,,,0.9489,,,,,,,,,,,,,,,,,,,,,,60fdb491fed04550de2a2068,61036dbc0932c682af6e03df,2021-07-29_23h13.47.463,Simcolourproject_2stim_asymm_v5,2020.2.10,Win32,60,61025ae37ef11b136ea224fe,,,,,,,,,3487,67.20001245,-40.80000705,1,0,0,response3disk,,5,-4.799988627,0.799993575,1,0,0,rectangle,-4.799988627,0.799993575,1,0,0,-4.799988627,0.799993575,1,0,0,1,34,194,130,1,,,,,,,,
,,,,,,,,,,,,,FF,,,,,,,,1.0326,,,,,,,,,,,,,,,,,,,,,,60fdb491fed04550de2a2068,61036dbc0932c682af6e03df,2021-07-29_23h13.47.463,Simcolourproject_2stim_asymm_v5,2020.2.10,Win32,60,61025ae37ef11b136ea224fe,,,,,,,,,557,33.60006077,-80.80000764,1,0,0,response3disk,,4,-18.39994,12.79999375,1,0,0,rectangle,-18.39994,12.79999375,1,0,0,-18.39994,12.79999375,1,0,0,1,35,195,121,1,,,,,,,,
,,,,,,,,,,,,,FF,,,,,,,,1.015,,,,,,,,,,,,,,,,,,,,,,60fdb491fed04550de2a2068,61036dbc0932c682af6e03df,2021-07-29_23h13.47.463,Simcolourproject_2stim_asymm_v5,2020.2.10,Win32,60,61025ae37ef11b136ea224fe,,,,,,,,,2538,-35.99998909,-87.20000774,1,0,0,response5disk,,3,-7.199988663,-6.400006533,1,0,0,rectangle,-7.199988663,-6.400006533,1,0,0,-7.199988663,-6.400006533,1,0,0,1,36,196,37,1,,,,,,,,
,,,,,,,,,,,,,FF,,,,,,,,0.7992,,,,,,,,,,,,,,,,,,,,,,60fdb491fed04550de2a2068,61036dbc0932c682af6e03df,2021-07-29_23h13.47.463,Simcolourproject_2stim_asymm_v5,2020.2.10,Win32,60,61025ae37ef11b136ea224fe,,,,,,,,,1211,-47.99998927,89.5999949,1,0,0,response7disk,,0,3.200011492,-0.800006449,1,0,0,rectangle,3.200011492,-0.800006449,1,0,0,3.200011492,-0.800006449,1,0,0,1,37,197,69,1,,,,,,,,
,,,,,,,,,,,,,FF,,,,,,,,0.8994,,,,,,,,,,,,,,,,,,,,,,60fdb491fed04550de2a2068,61036dbc0932c682af6e03df,2021-07-29_23h13.47.463,Simcolourproject_2stim_asymm_v5,2020.2.10,Win32,60,61025ae37ef11b136ea224fe,,,,,,,,,293,97.6000129,-53.60000724,1,0,0,response3disk,,5,4.800011516,-0.800006449,1,0,0,rectangle,4.800011516,-0.800006449,1,0,0,4.800011516,-0.800006449,1,0,0,1,38,198,108,1,,,,,,,,
,,,,,,,,,,,,,FF,,,,,,,,0.9492,,,,,,,,,,,,,,,,,,,,,,60fdb491fed04550de2a2068,61036dbc0932c682af6e03df,2021-07-29_23h13.47.463,Simcolourproject_2stim_asymm_v5,2020.2.10,Win32,60,61025ae37ef11b136ea224fe,,,,,,,,,2080,28.80001187,94.39999497,1,0,0,response1disk,,7,-7.999988675,-1.600006461,1,0,0,rectangle,-7.999988675,-1.600006461,1,0,0,-7.999988675,-1.600006461,1,0,0,1,39,199,90,1,,,,,,,,
,,,,,,,,,,,,,FF,,,,,,,,1.4993,,,,,,,,,,,,,,,,,,,,,,60fdb491fed04550de2a2068,61036dbc0932c682af6e03df,2021-07-29_23h13.47.463,Simcolourproject_2stim_asymm_v5,2020.2.10,Win32,60,61025ae37ef11b136ea224fe,,,,,,,,,4087,88.00001276,-37.600007,1,0,0,response3disk,,5,-2.399939764,0.799993575,1,0,0,rectangle,-2.399939764,0.799993575,1,0,0,-2.399939764,0.799993575,1,0,0,1,40,200,77,1,,,,,,,,
,,,,,,,,,,,,,FF,,,,,,,,0.933,,,,,,,,,,,,,,,,,,,,,,60fdb491fed04550de2a2068,61036dbc0932c682af6e03df,2021-07-29_23h13.47.463,Simcolourproject_2stim_asymm_v5,2020.2.10,Win32,60,61025ae37ef11b136ea224fe,,,,,,,,,3049,-99.19999003,-54.40000725,1,0,0,response5disk,,2,-1.59998858,2.399993598,1,0,0,rectangle,-1.59998858,2.399993598,1,0,0,-1.59998858,2.399993598,1,0,0,1,41,201,137,1,,,,,,,,
,,,,,,,,,,,,,FF,,,,,,,,0.9824,,,,,,,,,,,,,,,,,,,,,,60fdb491fed04550de2a2068,61036dbc0932c682af6e03df,2021-07-29_23h13.47.463,Simcolourproject_2stim_asymm_v5,2020.2.10,Win32,60,61025ae37ef11b136ea224fe,,,,,,,,,3951,-92.79998994,-42.40000707,1,0,0,response5disk,,2,4.800011516,14.39999378,1,0,0,rectangle,4.800011516,14.39999378,1,0,0,4.800011516,14.39999378,1,0,0,1,42,202,115,1,,,,,,,,
,,,,,,,,,,,,,FF,,,,,,,,0.866,,,,,,,,,,,,,,,,,,,,,,60fdb491fed04550de2a2068,61036dbc0932c682af6e03df,2021-07-29_23h13.47.463,Simcolourproject_2stim_asymm_v5,2020.2.10,Win32,60,61025ae37ef11b136ea224fe,,,,,,,,,4069,-37.59998912,-81.60005648,1,0,0,response5disk,,3,1.14441E-05,7.999993682,1,0,0,rectangle,1.14441E-05,7.999993682,1,0,0,1.14441E-05,7.999993682,1,0,0,1,43,203,113,1,,,,,,,,
,,,,,,,,,,,,,FF,,,,,,,,1.1997,,,,,,,,,,,,,,,,,,,,,,60fdb491fed04550de2a2068,61036dbc0932c682af6e03df,2021-07-29_23h13.47.463,Simcolourproject_2stim_asymm_v5,2020.2.10,Win32,60,61025ae37ef11b136ea224fe,,,,,,,,,2995,-81.59998977,29.599994,1,0,0,response7disk,,1,-7.999988675,7.999993682,1,0,0,rectangle,-58.3999406,-82.40000767,1,0,0,-10.39993988,5.599993646,1,0,0,1,44,204,40,1,,response5disk_3,TRUE,3,3,"[7,284,205,52,171,261,167,318,36,292,103,267,125,112,288,51,124,224,239,160]",1.6478,rectangle
,,,,,,,,,,,,,FF,,,,,,,,2.8146,,,,,,,,,,,,,,,,,,,,,,60fdb491fed04550de2a2068,61036dbc0932c682af6e03df,2021-07-29_23h13.47.463,Simcolourproject_2stim_asymm_v5,2020.2.10,Win32,60,61025ae37ef11b136ea224fe,,,,,,,,,2210,84.0000127,-29.60000688,1,0,0,response3disk,,5,7.200011551,14.39999378,1,0,0,rectangle,7.200011551,14.39999378,1,0,0,7.200011551,14.39999378,1,0,0,1,45,205,47,1,,,,,,,,
,,,,,,,,,,,,,FF,,,,,,,,0.7824,,,,,,,,,,,,,,,,,,,,,,60fdb491fed04550de2a2068,61036dbc0932c682af6e03df,2021-07-29_23h13.47.463,Simcolourproject_2stim_asymm_v5,2020.2.10,Win32,60,61025ae37ef11b136ea224fe,,,,,,,,,3235,-56.7999894,-70.40000749,1,0,0,response5disk,,3,-5.599988639,4.799993634,1,0,0,rectangle,-5.599988639,4.799993634,1,0,0,-5.599988639,4.799993634,1,0,0,1,46,206,0,1,,,,,,,,
,,,,,,,,,,,,,FF,,,,,,,,0.8159,,,,,,,,,,,,,,,,,,,,,,60fdb491fed04550de2a2068,61036dbc0932c682af6e03df,2021-07-29_23h13.47.463,Simcolourproject_2stim_asymm_v5,2020.2.10,Win32,60,61025ae37ef11b136ea224fe,,,,,,,,,2065,80.80001265,-39.20000702,1,0,0,response3disk,,5,11.20001161,-11.2000066,1,0,0,rectangle,11.20001161,-11.2000066,1,0,0,11.20001161,-11.2000066,1,0,0,1,47,207,27,1,,,,,,,,
,,,,,,,,,,,,,FF,,,,,,,,0.7827,,,,,,,,,,,,,,,,,,,,,,60fdb491fed04550de2a2068,61036dbc0932c682af6e03df,2021-07-29_23h13.47.463,Simcolourproject_2stim_asymm_v5,2020.2.10,Win32,60,61025ae37ef11b136ea224fe,,,,,,,,,2905,89.60001278,39.99999416,1,0,0,response1disk,,6,20.00001174,7.999993682,1,0,0,rectangle,20.00001174,7.999993682,1,0,0,20.00001174,7.999993682,1,0,0,1,48,208,73,1,,,,,,,,
,,,,,,,,,,,,,FF,,,,,,,,0.7823,,,,,,,,,,,,,,,,,,,,,,60fdb491fed04550de2a2068,61036dbc0932c682af6e03df,2021-07-29_23h13.47.463,Simcolourproject_2stim_asymm_v5,2020.2.10,Win32,60,61025ae37ef11b136ea224fe,,,,,,,,,3706,-80.79998976,-48.00000715,1,0,0,response5disk,,2,2.40001148,-6.400006533,1,0,0,rectangle,2.40001148,-6.400006533,1,0,0,2.40001148,-6.400006533,1,0,0,1,49,209,41,1,,,,,,,,
,,,,,,,,,,,,,FF,,,,,,,,0.85,,,,,,,,,,,,,,,,,,,,,,60fdb491fed04550de2a2068,61036dbc0932c682af6e03df,2021-07-29_23h13.47.463,Simcolourproject_2stim_asymm_v5,2020.2.10,Win32,60,61025ae37ef11b136ea224fe,,,,,,,,,1553,89.60001278,31.99999404,1,0,0,response1disk,,6,4.800011516,3.19999361,1,0,0,rectangle,4.800011516,3.19999361,1,0,0,4.800011516,3.19999361,1,0,0,1,50,210,134,1,,,,,,,,
,,,,,,,,,,,,,FF,,,,,,,,0.9536,,,,,,,,,,,,,,,,,,,,,,60fdb491fed04550de2a2068,61036dbc0932c682af6e03df,2021-07-29_23h13.47.463,Simcolourproject_2stim_asymm_v5,2020.2.10,Win32,60,61025ae37ef11b136ea224fe,,,,,,,,,1837,-104.7999901,-56.80000728,1,0,0,response5disk,,2,-7.199988663,-14.40000665,1,0,0,rectangle,-7.199988663,-14.40000665,1,0,0,-7.199988663,-14.40000665,1,0,0,1,51,211,158,1,,,,,,,,
,,,,,,,,,,,,,FF,,,,,,,,1.1821,,,,,,,,,,,,,,,,,,,,,,60fdb491fed04550de2a2068,61036dbc0932c682af6e03df,2021-07-29_23h13.47.463,Simcolourproject_2stim_asymm_v5,2020.2.10,Win32,60,61025ae37ef11b136ea224fe,,,,,,,,,937,87.20001274,-34.40000695,1,0,0,response3disk,,5,-3.199988604,-11.2000066,1,0,0,rectangle,-3.199988604,-11.2000066,1,0,0,-3.199988604,-11.2000066,1,0,0,1,52,212,126,1,,,,,,,,
,,,,,,,,,,,,,FF,,,,,,,,0.9656,,,,,,,,,,,,,,,,,,,,,,60fdb491fed04550de2a2068,61036dbc0932c682af6e03df,2021-07-29_23h13.47.463,Simcolourproject_2stim_asymm_v5,2020.2.10,Win32,60,61025ae37ef11b136ea224fe,,,,,,,,,2404,104.000013,47.99999428,1,0,0,response1disk,,6,7.200011551,7.999993682,1,0,0,rectangle,7.200011551,7.999993682,1,0,0,7.200011551,7.999993682,1,0,0,1,53,213,39,1,,,,,,,,
,,,,,,,,,,,,,FF,,,,,,,,0.7661,,,,,,,,,,,,,,,,,,,,,,60fdb491fed04550de2a2068,61036dbc0932c682af6e03df,2021-07-29_23h13.47.463,Simcolourproject_2stim_asymm_v5,2020.2.10,Win32,60,61025ae37ef11b136ea224fe,,,,,,,,,2169,-99.19999003,-43.20000708,1,0,0,response5disk,,2,23.20001179,11.99999374,1,0,0,rectangle,23.20001179,11.99999374,1,0,0,23.20001179,11.99999374,1,0,0,1,54,214,70,1,,,,,,,,
,,,,,,,,,,,,,FF,,,,,,,,2.1546,,,,,,,,,,,,,,,,,,,,,,60fdb491fed04550de2a2068,61036dbc0932c682af6e03df,2021-07-29_23h13.47.463,Simcolourproject_2stim_asymm_v5,2020.2.10,Win32,60,61025ae37ef11b136ea224fe,,,,,,,,,3073,111.2000131,35.9999941,1,0,0,response1disk,,6,8.000011563,-9.60000658,1,0,0,rectangle,8.000011563,-9.60000658,1,0,0,8.000011563,-9.60000658,1,0,0,1,55,215,151,1,,,,,,,,
,,,,,,,,,,,,,FF,,,,,,,,0.7656,,,,,,,,,,,,,,,,,,,,,,60fdb491fed04550de2a2068,61036dbc0932c682af6e03df,2021-07-29_23h13.47.463,Simcolourproject_2stim_asymm_v5,2020.2.10,Win32,60,61025ae37ef11b136ea224fe,,,,,,,,,3137,-55.99998939,-83.20000768,1,0,0,response5disk,,3,-4.799988627,-5.600006521,1,0,0,rectangle,-4.799988627,-5.600006521,1,0,0,-4.799988627,-5.600006521,1,0,0,1,56,216,23,1,,,,,,,,
,,,,,,,,,,,,,FF,,,,,,,,0.732,,,,,,,,,,,,,,,,,,,,,,60fdb491fed04550de2a2068,61036dbc0932c682af6e03df,2021-07-29_23h13.47.463,Simcolourproject_2stim_asymm_v5,2020.2.10,Win32,60,61025ae37ef11b136ea224fe,,,,,,,,,4022,-89.59998989,-54.40000725,1,0,0,response5disk,,2,16.00001168,12.79999375,1,0,0,rectangle,16.00001168,12.79999375,1,0,0,16.00001168,12.79999375,1,0,0,1,57,217,60,1,,,,,,,,
,,,,,,,,,,,,,FF,,,,,,,,0.9993,,,,,,,,,,,,,,,,,,,,,,60fdb491fed04550de2a2068,61036dbc0932c682af6e03df,2021-07-29_23h13.47.463,Simcolourproject_2stim_asymm_v5,2020.2.10,Win32,60,61025ae37ef11b136ea224fe,,,,,,,,,2935,45.60006095,99.99999505,1,0,0,response1disk,,7,8.800011575,-1.600006461,1,0,0,rectangle,8.800011575,-1.600006461,1,0,0,8.800011575,-1.600006461,1,0,0,1,58,218,35,1,,,,,,,,
,,,,,,,,,,,,,FF,,,,,,,,0.8501,,,,,,,,,,,,,,,,,,,,,,60fdb491fed04550de2a2068,61036dbc0932c682af6e03df,2021-07-29_23h13.47.463,Simcolourproject_2stim_asymm_v5,2020.2.10,Win32,60,61025ae37ef11b136ea224fe,,,,,,,,,2373,108.0000131,35.19996967,1,0,0,response1disk,,6,20.80001175,1.599993587,1,0,0,rectangle,20.80001175,1.599993587,1,0,0,20.80001175,1.599993587,1,0,0,1,59,219,155,1,,,,,,,,
,,,,,,,,,,,,,FF,,,,,,,,2.2213,,,,,,,,,,,,,,,,,,,,,,60fdb491fed04550de2a2068,61036dbc0932c682af6e03df,2021-07-29_23h13.47.463,Simcolourproject_2stim_asymm_v5,2020.2.10,Win32,60,61025ae37ef11b136ea224fe,,,,,,,,,2324,52.80001223,-38.40000701,1,0,0,response3disk,,5,-9.599988699,-4.000006497,1,0,0,rectangle,-9.599988699,-4.000006497,1,0,0,-9.599988699,-4.000006497,1,0,0,1,60,220,74,1,,,,,,,,
,,,,,,,,,,,,,FF,,,,,,,,2.4979,,,,,,,,,,,,,,,,,,,,,,60fdb491fed04550de2a2068,61036dbc0932c682af6e03df,2021-07-29_23h13.47.463,Simcolourproject_2stim_asymm_v5,2020.2.10,Win32,60,61025ae37ef11b136ea224fe,,,,,,,,,2075,45.60006095,-71.2000075,1,0,0,response3disk,,4,7.200011551,-5.600006521,1,0,0,rectangle,7.200011551,-5.600006521,1,0,0,7.200011551,-5.600006521,1,0,0,1,61,221,82,1,,,,,,,,
,,,,,,,,,,,,,FF,,,,,,,,1.9815,,,,,,,,,,,,,,,,,,,,,,60fdb491fed04550de2a2068,61036dbc0932c682af6e03df,2021-07-29_23h13.47.463,Simcolourproject_2stim_asymm_v5,2020.2.10,Win32,60,61025ae37ef11b136ea224fe,,,,,,,,,3649,80.00001264,-50.40000719,1,0,0,response3disk,,5,-3.999988616,3.19999361,1,0,0,rectangle,-3.999988616,3.19999361,1,0,0,-3.999988616,3.19999361,1,0,0,1,62,222,19,1,,,,,,,,
,,,,,,,,,,,,,FF,,,,,,,,0.7522,,,,,,,,,,,,,,,,,,,,,,60fdb491fed04550de2a2068,61036dbc0932c682af6e03df,2021-07-29_23h13.47.463,Simcolourproject_2stim_asymm_v5,2020.2.10,Win32,60,61025ae37ef11b136ea224fe,,,,,,,,,2243,-108.7999902,-40.00000703,1,0,0,response5disk,,2,4.000011504,15.19999379,1,0,0,rectangle,75.20001256,-44.00000709,1,0,0,16.80001169,-8.800006568,1,0,0,1,63,223,7,1,,response3disk_3,TRUE,5,5,"[7,284,205,52,171,261,167,318,36,292,103,267,125,112,288,51,124,224,239,160]",1.6149,rectangle
,,,,,,,,,,,,,FF,,,,,,,,1.4213,,,,,,,,,,,,,,,,,,,,,,60fdb491fed04550de2a2068,61036dbc0932c682af6e03df,2021-07-29_23h13.47.463,Simcolourproject_2stim_asymm_v5,2020.2.10,Win32,60,61025ae37ef11b136ea224fe,,,,,,,,,570,33.60006077,-93.60005666,1,0,0,response3disk,,4,1.14441E-05,-8.000006557,1,0,0,rectangle,1.14441E-05,-8.000006557,1,0,0,1.14441E-05,-8.000006557,1,0,0,1,64,224,91,1,,,,,,,,
,,,,,,,,,,,,,FF,,,,,,,,0.7658,,,,,,,,,,,,,,,,,,,,,,60fdb491fed04550de2a2068,61036dbc0932c682af6e03df,2021-07-29_23h13.47.463,Simcolourproject_2stim_asymm_v5,2020.2.10,Win32,60,61025ae37ef11b136ea224fe,,,,,,,,,4,-99.99999005,-36.00000697,1,0,0,response5disk,,2,4.000011504,15.9999938,1,0,0,rectangle,4.000011504,15.9999938,1,0,0,4.000011504,15.9999938,1,0,0,1,65,225,122,1,,,,,,,,
,,,,,,,,,,,,,FF,,,,,,,,1.0849,,,,,,,,,,,,,,,,,,,,,,60fdb491fed04550de2a2068,61036dbc0932c682af6e03df,2021-07-29_23h13.47.463,Simcolourproject_2stim_asymm_v5,2020.2.10,Win32,60,61025ae37ef11b136ea224fe,,,,,,,,,2692,107.200013,34.39999408,1,0,0,response1disk,,6,-3.999988616,0.799993575,1,0,0,rectangle,-3.999988616,0.799993575,1,0,0,-3.999988616,0.799993575,1,0,0,1,66,226,30,1,,,,,,,,
,,,,,,,,,,,,,FF,,,,,,,,0.8824,,,,,,,,,,,,,,,,,,,,,,60fdb491fed04550de2a2068,61036dbc0932c682af6e03df,2021-07-29_23h13.47.463,Simcolourproject_2stim_asymm_v5,2020.2.10,Win32,60,61025ae37ef11b136ea224fe,,,,,,,,,471,75.20001256,-38.40000701,1,0,0,response3disk,,5,-7.199988663,-0.800006449,1,0,0,rectangle,-7.199988663,-0.800006449,1,0,0,-7.199988663,-0.800006449,1,0,0,1,67,227,133,1,,,,,,,,
,,,,,,,,,,,,,FF,,,,,,,,1.1822,,,,,,,,,,,,,,,,,,,,,,60fdb491fed04550de2a2068,61036dbc0932c682af6e03df,2021-07-29_23h13.47.463,Simcolourproject_2stim_asymm_v5,2020.2.10,Win32,60,61025ae37ef11b136ea224fe,,,,,,,,,3960,24.0000118,86.39999485,1,0,0,response1disk,,7,-4.799988627,-12.00000662,1,0,0,rectangle,-4.799988627,-12.00000662,1,0,0,-4.799988627,-12.00000662,1,0,0,1,68,228,114,1,,,,,,,,
,,,,,,,,,,,,,FF,,,,,,,,1.5821,,,,,,,,,,,,,,,,,,,,,,60fdb491fed04550de2a2068,61036dbc0932c682af6e03df,2021-07-29_23h13.47.463,Simcolourproject_2stim_asymm_v5,2020.2.10,Win32,60,61025ae37ef11b136ea224fe,,,,,,,,,3184,70.40001249,-47.20000714,1,0,0,response3disk,,5,7.200011551,-4.000006497,1,0,0,rectangle,7.200011551,-4.000006497,1,0,0,7.200011551,-4.000006497,1,0,0,1,69,229,85,1,,,,,,,,
,,,,,,,,,,,,,FF,,,,,,,,0.9041,,,,,,,,,,,,,,,,,,,,,,60fdb491fed04550de2a2068,61036dbc0932c682af6e03df,2021-07-29_23h13.47.463,Simcolourproject_2stim_asymm_v5,2020.2.10,Win32,60,61025ae37ef11b136ea224fe,,,,,,,,,852,88.00001276,25.59999394,1,0,0,response1disk,,6,0.800011456,-3.200006485,1,0,0,rectangle,0.800011456,-3.200006485,1,0,0,0.800011456,-3.200006485,1,0,0,1,70,230,57,1,,,,,,,,
,,,,,,,,,,,,,FF,,,,,,,,0.7159,,,,,,,,,,,,,,,,,,,,,,60fdb491fed04550de2a2068,61036dbc0932c682af6e03df,2021-07-29_23h13.47.463,Simcolourproject_2stim_asymm_v5,2020.2.10,Win32,60,61025ae37ef11b136ea224fe,,,,,,,,,1606,-73.59998965,-42.40000707,1,0,0,response5disk,,2,12.80001163,-12.80000663,1,0,0,rectangle,12.80001163,-12.80000663,1,0,0,12.80001163,-12.80000663,1,0,0,1,71,231,45,1,,,,,,,,
,,,,,,,,,,,,,FF,,,,,,,,0.9657,,,,,,,,,,,,,,,,,,,,,,60fdb491fed04550de2a2068,61036dbc0932c682af6e03df,2021-07-29_23h13.47.463,Simcolourproject_2stim_asymm_v5,2020.2.10,Win32,60,61025ae37ef11b136ea224fe,,,,,,,,,931,66.40001243,-36.00000697,1,0,0,response3disk,,5,3.200011492,6.399993658,1,0,0,rectangle,3.200011492,6.399993658,1,0,0,3.200011492,6.399993658,1,0,0,1,72,232,33,1,,,,,,,,
,,,,,,,,,,,,,FF,,,,,,,,1.1028,,,,,,,,,,,,,,,,,,,,,,60fdb491fed04550de2a2068,61036dbc0932c682af6e03df,2021-07-29_23h13.47.463,Simcolourproject_2stim_asymm_v5,2020.2.10,Win32,60,61025ae37ef11b136ea224fe,,,,,,,,,3708,-79.99998975,35.19996967,1,0,0,response7disk,,1,-19.99998885,7.19999367,1,0,0,rectangle,-19.99998885,7.19999367,1,0,0,-19.99998885,7.19999367,1,0,0,1,73,233,11,1,,,,,,,,
,,,,,,,,,,,,,FF,,,,,,,,0.8828,,,,,,,,,,,,,,,,,,,,,,60fdb491fed04550de2a2068,61036dbc0932c682af6e03df,2021-07-29_23h13.47.463,Simcolourproject_2stim_asymm_v5,2020.2.10,Win32,60,61025ae37ef11b136ea224fe,,,,,,,,,4170,-26.39994012,-92.80000782,1,0,0,response5disk,,3,-2.399939764,7.999993682,1,0,0,rectangle,-2.399939764,7.999993682,1,0,0,-2.399939764,7.999993682,1,0,0,1,74,234,4,1,,,,,,,,
,,,,,,,,,,,,,FF,,,,,,,,0.9494,,,,,,,,,,,,,,,,,,,,,,60fdb491fed04550de2a2068,61036dbc0932c682af6e03df,2021-07-29_23h13.47.463,Simcolourproject_2stim_asymm_v5,2020.2.10,Win32,60,61025ae37ef11b136ea224fe,,,,,,,,,1503,115.2000132,35.9999941,1,0,0,response1disk,,6,1.14441E-05,-6.400006533,1,0,0,rectangle,1.14441E-05,-6.400006533,1,0,0,1.14441E-05,-6.400006533,1,0,0,1,75,235,146,1,,,,,,,,
,,,,,,,,,,,,,FF,,,,,,,,0.8159,,,,,,,,,,,,,,,,,,,,,,60fdb491fed04550de2a2068,61036dbc0932c682af6e03df,2021-07-29_23h13.47.463,Simcolourproject_2stim_asymm_v5,2020.2.10,Win32,60,61025ae37ef11b136ea224fe,,,,,,,,,1360,-83.99998981,-48.80000716,1,0,0,response5disk,,2,8.000011563,3.999993622,1,0,0,rectangle,8.000011563,3.999993622,1,0,0,8.000011563,3.999993622,1,0,0,1,76,236,118,1,,,,,,,,
,,,,,,,,,,,,,FF,,,,,,,,2.781,,,,,,,,,,,,,,,,,,,,,,60fdb491fed04550de2a2068,61036dbc0932c682af6e03df,2021-07-29_23h13.47.463,Simcolourproject_2stim_asymm_v5,2020.2.10,Win32,60,61025ae37ef11b136ea224fe,,,,,,,,,3976,-99.19999003,-43.20000708,1,0,0,response5disk,,2,4.000011504,-4.800006509,1,0,0,rectangle,4.000011504,-4.800006509,1,0,0,4.000011504,-4.800006509,1,0,0,1,77,237,92,1,,,,,,,,
,,,,,,,,,,,,,FF,,,,,,,,0.7824,,,,,,,,,,,,,,,,,,,,,,60fdb491fed04550de2a2068,61036dbc0932c682af6e03df,2021-07-29_23h13.47.463,Simcolourproject_2stim_asymm_v5,2020.2.10,Win32,60,61025ae37ef11b136ea224fe,,,,,,,,,2226,-57.59998941,90.39999491,1,0,0,response7disk,,0,8.000011563,-5.600006521,1,0,0,rectangle,104.800013,39.19996973,1,0,0,-1.59998858,-1.600006461,1,0,0,1,78,238,3,1,,response1disk_3,TRUE,6,6,"[7,284,205,52,171,261,167,318,36,292,103,267,125,112,288,51,124,224,239,160]",1.2811,rectangle
,,,,,,,,,,,,,FF,,,,,,,,1.6154,,,,,,,,,,,,,,,,,,,,,,60fdb491fed04550de2a2068,61036dbc0932c682af6e03df,2021-07-29_23h13.47.463,Simcolourproject_2stim_asymm_v5,2020.2.10,Win32,60,61025ae37ef11b136ea224fe,,,,,,,,,2879,-87.19998986,-47.20000714,1,0,0,response5disk,,2,22.40001178,12.79999375,1,0,0,rectangle,22.40001178,12.79999375,1,0,0,22.40001178,12.79999375,1,0,0,1,79,239,86,1,,,,,,,,
,,,,,,,,,,,,,FF,,,,,,,,0.8993,,,,,,,,,,,,,,,,,,,,,,60fdb491fed04550de2a2068,61036dbc0932c682af6e03df,2021-07-29_23h13.47.463,Simcolourproject_2stim_asymm_v5,2020.2.10,Win32,60,61025ae37ef11b136ea224fe,,,,,,,,,475,39.20001203,90.39999491,1,0,0,response1disk,,7,-24.79998893,-10.40000659,1,0,0,rectangle,-24.79998893,-10.40000659,1,0,0,-24.79998893,-10.40000659,1,0,0,1,80,240,141,1,,,,,,,,
,,,,,,,,,,,,,FF,,,,,,,,0.9327,,,,,,,,,,,,,,,,,,,,,,60fdb491fed04550de2a2068,61036dbc0932c682af6e03df,2021-07-29_23h13.47.463,Simcolourproject_2stim_asymm_v5,2020.2.10,Win32,60,61025ae37ef11b136ea224fe,,,,,,,,,3284,-97.59999001,-56.80000728,1,0,0,response5disk,,2,-0.799988568,-2.400006473,1,0,0,rectangle,-0.799988568,-2.400006473,1,0,0,-0.799988568,-2.400006473,1,0,0,1,81,241,153,1,,,,,,,,
,,,,,,,,,,,,,FF,,,,,,,,0.8824,,,,,,,,,,,,,,,,,,,,,,60fdb491fed04550de2a2068,61036dbc0932c682af6e03df,2021-07-29_23h13.47.463,Simcolourproject_2stim_asymm_v5,2020.2.10,Win32,60,61025ae37ef11b136ea224fe,,,,,,,,,1065,-50.39994048,-86.40000772,1,0,0,response5disk,,3,15.20001167,10.39999372,1,0,0,rectangle,15.20001167,10.39999372,1,0,0,15.20001167,10.39999372,1,0,0,1,82,242,152,1,,,,,,,,
