key_resp.keys,key_resp.rt,key_resp_14.keys,key_resp_14.rt,key_resp_15.keys,key_resp_15.rt,key_resp_17.keys,key_resp_17.rt,key_resp_9.keys,key_resp_9.rt,key_resp_10.keys,key_resp_10.rt,practice_comparison,Ecc,mouse_5.x,mouse_5.y,mouse_5.leftButton,mouse_5.midButton,mouse_5.rightButton,mouse_5.clicked_name,pracsimilarity,response_time,mouse_10.x,mouse_10.y,mouse_10.leftButton,mouse_10.midButton,mouse_10.rightButton,mouse_10.clicked_name,mouse_7.x,mouse_7.y,mouse_7.leftButton,mouse_7.midButton,mouse_7.rightButton,mouse_6.x,mouse_6.y,mouse_6.leftButton,mouse_6.midButton,mouse_6.rightButton,duringprac.thisRepN,duringprac.thisTrialN,duringprac.thisN,duringprac.thisIndex,duringprac.ran,participant,session,date,expName,psychopyVersion,OS,frameRate,study_id,mouse_7.clicked_name,catchpracsimilarity,catch_response_time,catchnumberprac,catchtrialorderprac,mouse_6.clicked_name,key_resp_22.keys,key_resp_22.rt,realcomparison,mouse.x,mouse.y,mouse.leftButton,mouse.midButton,mouse.rightButton,mouse.clicked_name,Colour2,similarity,mouse_2.x,mouse_2.y,mouse_2.leftButton,mouse_2.midButton,mouse_2.rightButton,mouse_2.clicked_name,mouse_3.x,mouse_3.y,mouse_3.leftButton,mouse_3.midButton,mouse_3.rightButton,mouse_11.x,mouse_11.y,mouse_11.leftButton,mouse_11.midButton,mouse_11.rightButton,trials_2.thisRepN,trials_2.thisTrialN,trials_2.thisN,trials_2.thisIndex,trials_2.ran,Colour1,mouse_3.clicked_name,catchornah,catchsimilarity,catchnumber,catchtrialorder,catchRT,mouse_11.clicked_name
space,1.449,space,15.204,space,60.162,space,20.694,space,2.738,space,5.139,93,FF,42,87,1,0,0,response1disk_5,7,17.784,7,3,1,0,0,rectangle_8,7,3,1,0,0,7,3,1,0,0,0,0,0,3,1,60fd8ea378ec4f0fa9a043be,61036f235259933529c752cd,2021-07-29_20h18.00.086,Simcolourproject_2stim_asymm_v5,2020.2.10,MacIntel,60,61025ae37ef11b136ea224fe,,,,,,,,,,,,,,,,,,,,,,,,,,,,,,,,,,,,,,,,,,,,,,
,,,,,,,,,,,,155,PF,87,36,1,0,0,response1disk_5,6,6.767,-7,9,1,0,0,rectangle_8,-49,107,1,0,0,3,2,1,0,0,0,1,1,2,1,60fd8ea378ec4f0fa9a043be,61036f235259933529c752cd,2021-07-29_20h18.00.086,Simcolourproject_2stim_asymm_v5,2020.2.10,MacIntel,60,61025ae37ef11b136ea224fe,response7disk_7,0,3.983,0,"[2,5]",rectangle_4,,,,,,,,,,,,,,,,,,,,,,,,,,,,,,,,,,,,,,,,
,,,,,,,,,,,,153,PF,105,38,1,0,0,response1disk_5,6,5.167,-1,1,1,0,0,rectangle_8,-1,1,1,0,0,-1,1,1,0,0,0,2,2,1,1,60fd8ea378ec4f0fa9a043be,61036f235259933529c752cd,2021-07-29_20h18.00.086,Simcolourproject_2stim_asymm_v5,2020.2.10,MacIntel,60,61025ae37ef11b136ea224fe,,,,,,,,,,,,,,,,,,,,,,,,,,,,,,,,,,,,,,,,,,,,,,
,,,,,,,,,,,,15,FF,51,82,1,0,0,response1disk_5,7,3.352,-9,-9,1,0,0,rectangle_8,-9,-9,1,0,0,-9,-9,1,0,0,0,3,3,5,1,60fd8ea378ec4f0fa9a043be,61036f235259933529c752cd,2021-07-29_20h18.00.086,Simcolourproject_2stim_asymm_v5,2020.2.10,MacIntel,60,61025ae37ef11b136ea224fe,,,,,,,,,,,,,,,,,,,,,,,,,,,,,,,,,,,,,,,,,,,,,,
,,,,,,,,,,,,117,PF,41,97,1,0,0,response1disk_5,7,2.149,1,-4,1,0,0,rectangle_8,-40,102,1,0,0,-1,1,1,0,0,0,4,4,4,1,60fd8ea378ec4f0fa9a043be,61036f235259933529c752cd,2021-07-29_20h18.00.086,Simcolourproject_2stim_asymm_v5,2020.2.10,MacIntel,60,61025ae37ef11b136ea224fe,response7disk_7,0,3.701,0,"[2,5]",rectangle_4,,,,,,,,,,,,,,,,,,,,,,,,,,,,,,,,,,,,,,,,
,,,,,,,,,,,,6,PF,40,75,1,0,0,response1disk_5,7,2.584,3,5,1,0,0,rectangle_8,3,5,1,0,0,3,5,1,0,0,0,5,5,6,1,60fd8ea378ec4f0fa9a043be,61036f235259933529c752cd,2021-07-29_20h18.00.086,Simcolourproject_2stim_asymm_v5,2020.2.10,MacIntel,60,61025ae37ef11b136ea224fe,,,,,,,,,,,,,,,,,,,,,,,,,,,,,,,,,,,,,,,,,,,,,,
,,,,,,,,,,,,114,FF,99,34,1,0,0,response1disk_5,6,3.283,1,5,1,0,0,rectangle_8,1,5,1,0,0,1,5,1,0,0,0,6,6,0,1,60fd8ea378ec4f0fa9a043be,61036f235259933529c752cd,2021-07-29_20h18.00.086,Simcolourproject_2stim_asymm_v5,2020.2.10,MacIntel,60,61025ae37ef11b136ea224fe,,,,,,,,,,,,,,,,,,,,,,,,,,,,,,,,,,,,,,,,,,,,,,
,,,,,,,,,,,,,FF,,,,,,,,3.133,,,,,,,,,,,,,,,,,,,,,,60fd8ea378ec4f0fa9a043be,61036f235259933529c752cd,2021-07-29_20h18.00.086,Simcolourproject_2stim_asymm_v5,2020.2.10,MacIntel,60,61025ae37ef11b136ea224fe,,,,,,,space,3.946,2525,75,46,1,0,0,response1disk,,6,0,-1,1,0,0,rectangle,0,-1,1,0,0,0,-1,1,0,0,0,0,0,124,1,,,,,,,,
,,,,,,,,,,,,,FF,,,,,,,,3.466,,,,,,,,,,,,,,,,,,,,,,60fd8ea378ec4f0fa9a043be,61036f235259933529c752cd,2021-07-29_20h18.00.086,Simcolourproject_2stim_asymm_v5,2020.2.10,MacIntel,60,61025ae37ef11b136ea224fe,,,,,,,,,604,80,37,1,0,0,response1disk,,6,-2,2,1,0,0,rectangle,-2,2,1,0,0,-2,2,1,0,0,0,1,1,50,1,,,,,,,,
,,,,,,,,,,,,,FF,,,,,,,,3.716,,,,,,,,,,,,,,,,,,,,,,60fd8ea378ec4f0fa9a043be,61036f235259933529c752cd,2021-07-29_20h18.00.086,Simcolourproject_2stim_asymm_v5,2020.2.10,MacIntel,60,61025ae37ef11b136ea224fe,,,,,,,,,1896,-101,-34,1,0,0,response5disk,,2,-3,3,1,0,0,rectangle,-3,3,1,0,0,-3,3,1,0,0,0,2,2,24,1,,,,,,,,
,,,,,,,,,,,,,FF,,,,,,,,2.483,,,,,,,,,,,,,,,,,,,,,,60fd8ea378ec4f0fa9a043be,61036f235259933529c752cd,2021-07-29_20h18.00.086,Simcolourproject_2stim_asymm_v5,2020.2.10,MacIntel,60,61025ae37ef11b136ea224fe,,,,,,,,,450,69,-44,1,0,0,response3disk,,5,3,-1,1,0,0,rectangle,3,-1,1,0,0,3,-1,1,0,0,0,3,3,10,1,,,,,,,,
,,,,,,,,,,,,,FF,,,,,,,,2.767,,,,,,,,,,,,,,,,,,,,,,60fd8ea378ec4f0fa9a043be,61036f235259933529c752cd,2021-07-29_20h18.00.086,Simcolourproject_2stim_asymm_v5,2020.2.10,MacIntel,60,61025ae37ef11b136ea224fe,,,,,,,,,1323,36,-73,1,0,0,response3disk,,4,-3,1,1,0,0,rectangle,-3,1,1,0,0,-3,1,1,0,0,0,4,4,63,1,,,,,,,,
,,,,,,,,,,,,,FF,,,,,,,,2.834,,,,,,,,,,,,,,,,,,,,,,60fd8ea378ec4f0fa9a043be,61036f235259933529c752cd,2021-07-29_20h18.00.086,Simcolourproject_2stim_asymm_v5,2020.2.10,MacIntel,60,61025ae37ef11b136ea224fe,,,,,,,,,1297,-42,-90,1,0,0,response5disk,,3,-2,-3,1,0,0,rectangle,-2,-3,1,0,0,-2,-3,1,0,0,0,5,5,99,1,,,,,,,,
,,,,,,,,,,,,,FF,,,,,,,,3.317,,,,,,,,,,,,,,,,,,,,,,60fd8ea378ec4f0fa9a043be,61036f235259933529c752cd,2021-07-29_20h18.00.086,Simcolourproject_2stim_asymm_v5,2020.2.10,MacIntel,60,61025ae37ef11b136ea224fe,,,,,,,,,929,84,33,1,0,0,response1disk,,6,-2,-2,1,0,0,rectangle,-2,-2,1,0,0,-2,-2,1,0,0,0,6,6,58,1,,,,,,,,
,,,,,,,,,,,,,FF,,,,,,,,5.634,,,,,,,,,,,,,,,,,,,,,,60fd8ea378ec4f0fa9a043be,61036f235259933529c752cd,2021-07-29_20h18.00.086,Simcolourproject_2stim_asymm_v5,2020.2.10,MacIntel,60,61025ae37ef11b136ea224fe,,,,,,,,,3161,38,-83,1,0,0,response3disk,,4,-1,4,1,0,0,rectangle,-1,4,1,0,0,-1,4,1,0,0,0,7,7,4,1,,,,,,,,
,,,,,,,,,,,,,FF,,,,,,,,3.301,,,,,,,,,,,,,,,,,,,,,,60fd8ea378ec4f0fa9a043be,61036f235259933529c752cd,2021-07-29_20h18.00.086,Simcolourproject_2stim_asymm_v5,2020.2.10,MacIntel,60,61025ae37ef11b136ea224fe,,,,,,,,,1976,94,-36,1,0,0,response3disk,,5,2,1,1,0,0,rectangle,2,1,1,0,0,2,1,1,0,0,0,8,8,26,1,,,,,,,,
,,,,,,,,,,,,,FF,,,,,,,,4.284,,,,,,,,,,,,,,,,,,,,,,60fd8ea378ec4f0fa9a043be,61036f235259933529c752cd,2021-07-29_20h18.00.086,Simcolourproject_2stim_asymm_v5,2020.2.10,MacIntel,60,61025ae37ef11b136ea224fe,,,,,,,,,65,-95,-45,1,0,0,response5disk,,2,6,1,1,0,0,rectangle,6,1,1,0,0,6,1,1,0,0,0,9,9,134,1,,,,,,,,
,,,,,,,,,,,,,FF,,,,,,,,3.534,,,,,,,,,,,,,,,,,,,,,,60fd8ea378ec4f0fa9a043be,61036f235259933529c752cd,2021-07-29_20h18.00.086,Simcolourproject_2stim_asymm_v5,2020.2.10,MacIntel,60,61025ae37ef11b136ea224fe,,,,,,,,,2168,-96,-54,1,0,0,response5disk,,2,-6,-5,1,0,0,rectangle,98,51,1,0,0,-1,3,1,0,0,0,10,10,131,1,,response1disk_3,TRUE,6,6,"[11,18,309,242,159,173,51,36,302,132,243,273,118,178,121,289,120,274,32,40]",2.934,rectangle
,,,,,,,,,,,,,FF,,,,,,,,2.167,,,,,,,,,,,,,,,,,,,,,,60fd8ea378ec4f0fa9a043be,61036f235259933529c752cd,2021-07-29_20h18.00.086,Simcolourproject_2stim_asymm_v5,2020.2.10,MacIntel,60,61025ae37ef11b136ea224fe,,,,,,,,,3849,-47,-116,1,0,0,response5disk,,3,3,4,1,0,0,rectangle,3,4,1,0,0,3,4,1,0,0,0,11,11,97,1,,,,,,,,
,,,,,,,,,,,,,FF,,,,,,,,2.4,,,,,,,,,,,,,,,,,,,,,,60fd8ea378ec4f0fa9a043be,61036f235259933529c752cd,2021-07-29_20h18.00.086,Simcolourproject_2stim_asymm_v5,2020.2.10,MacIntel,60,61025ae37ef11b136ea224fe,,,,,,,,,492,83,36,1,0,0,response1disk,,6,-2,-5,1,0,0,rectangle,-2,-5,1,0,0,-2,-5,1,0,0,0,12,12,3,1,,,,,,,,
,,,,,,,,,,,,,FF,,,,,,,,1.199,,,,,,,,,,,,,,,,,,,,,,60fd8ea378ec4f0fa9a043be,61036f235259933529c752cd,2021-07-29_20h18.00.086,Simcolourproject_2stim_asymm_v5,2020.2.10,MacIntel,60,61025ae37ef11b136ea224fe,,,,,,,,,1332,76,-33,1,0,0,response3disk,,5,-2,0,1,0,0,rectangle,-2,0,1,0,0,-2,0,1,0,0,0,13,13,146,1,,,,,,,,
,,,,,,,,,,,,,FF,,,,,,,,2.1,,,,,,,,,,,,,,,,,,,,,,60fd8ea378ec4f0fa9a043be,61036f235259933529c752cd,2021-07-29_20h18.00.086,Simcolourproject_2stim_asymm_v5,2020.2.10,MacIntel,60,61025ae37ef11b136ea224fe,,,,,,,,,417,35,-75,1,0,0,response3disk,,4,6,0,1,0,0,rectangle,6,0,1,0,0,6,0,1,0,0,0,14,14,45,1,,,,,,,,
,,,,,,,,,,,,,FF,,,,,,,,2.966,,,,,,,,,,,,,,,,,,,,,,60fd8ea378ec4f0fa9a043be,61036f235259933529c752cd,2021-07-29_20h18.00.086,Simcolourproject_2stim_asymm_v5,2020.2.10,MacIntel,60,61025ae37ef11b136ea224fe,,,,,,,,,2585,67,36,1,0,0,response1disk,,6,-7,-1,1,0,0,rectangle,-7,-1,1,0,0,-7,-1,1,0,0,0,15,15,59,1,,,,,,,,
,,,,,,,,,,,,,FF,,,,,,,,1.567,,,,,,,,,,,,,,,,,,,,,,60fd8ea378ec4f0fa9a043be,61036f235259933529c752cd,2021-07-29_20h18.00.086,Simcolourproject_2stim_asymm_v5,2020.2.10,MacIntel,60,61025ae37ef11b136ea224fe,,,,,,,,,2307,30,-81,1,0,0,response3disk,,4,1,-5,1,0,0,rectangle,1,-5,1,0,0,1,-5,1,0,0,0,16,16,31,1,,,,,,,,
,,,,,,,,,,,,,FF,,,,,,,,2.117,,,,,,,,,,,,,,,,,,,,,,60fd8ea378ec4f0fa9a043be,61036f235259933529c752cd,2021-07-29_20h18.00.086,Simcolourproject_2stim_asymm_v5,2020.2.10,MacIntel,60,61025ae37ef11b136ea224fe,,,,,,,,,628,92,-41,1,0,0,response3disk,,5,-4,8,1,0,0,rectangle,-41,91,1,0,0,-2,-5,1,0,0,0,17,17,15,1,,response7disk_3,TRUE,0,0,"[11,18,309,242,159,173,51,36,302,132,243,273,118,178,121,289,120,274,32,40]",1.601,rectangle
,,,,,,,,,,,,,FF,,,,,,,,3.1,,,,,,,,,,,,,,,,,,,,,,60fd8ea378ec4f0fa9a043be,61036f235259933529c752cd,2021-07-29_20h18.00.086,Simcolourproject_2stim_asymm_v5,2020.2.10,MacIntel,60,61025ae37ef11b136ea224fe,,,,,,,,,611,-36,-79,1,0,0,response5disk,,3,-1,1,1,0,0,rectangle,-1,1,1,0,0,-1,1,1,0,0,0,18,18,105,1,,,,,,,,
,,,,,,,,,,,,,FF,,,,,,,,1.884,,,,,,,,,,,,,,,,,,,,,,60fd8ea378ec4f0fa9a043be,61036f235259933529c752cd,2021-07-29_20h18.00.086,Simcolourproject_2stim_asymm_v5,2020.2.10,MacIntel,60,61025ae37ef11b136ea224fe,,,,,,,,,235,42,-85,1,0,0,response3disk,,4,-3,-1,1,0,0,rectangle,-3,-1,1,0,0,-3,-1,1,0,0,0,19,19,33,1,,,,,,,,
,,,,,,,,,,,,,FF,,,,,,,,2.285,,,,,,,,,,,,,,,,,,,,,,60fd8ea378ec4f0fa9a043be,61036f235259933529c752cd,2021-07-29_20h18.00.086,Simcolourproject_2stim_asymm_v5,2020.2.10,MacIntel,60,61025ae37ef11b136ea224fe,,,,,,,,,258,-42,-83,1,0,0,response5disk,,3,-1,-6,1,0,0,rectangle,-1,-6,1,0,0,-1,-6,1,0,0,0,20,20,23,1,,,,,,,,
,,,,,,,,,,,,,FF,,,,,,,,1.983,,,,,,,,,,,,,,,,,,,,,,60fd8ea378ec4f0fa9a043be,61036f235259933529c752cd,2021-07-29_20h18.00.086,Simcolourproject_2stim_asymm_v5,2020.2.10,MacIntel,60,61025ae37ef11b136ea224fe,,,,,,,,,518,35,-89,1,0,0,response3disk,,4,11,10,1,0,0,rectangle,11,10,1,0,0,11,10,1,0,0,0,21,21,46,1,,,,,,,,
,,,,,,,,,,,,,FF,,,,,,,,3.383,,,,,,,,,,,,,,,,,,,,,,60fd8ea378ec4f0fa9a043be,61036f235259933529c752cd,2021-07-29_20h18.00.086,Simcolourproject_2stim_asymm_v5,2020.2.10,MacIntel,60,61025ae37ef11b136ea224fe,,,,,,,,,949,45,-86,1,0,0,response3disk,,4,7,-8,1,0,0,rectangle,7,-8,1,0,0,7,-8,1,0,0,0,22,22,159,1,,,,,,,,
,,,,,,,,,,,,,FF,,,,,,,,1.784,,,,,,,,,,,,,,,,,,,,,,60fd8ea378ec4f0fa9a043be,61036f235259933529c752cd,2021-07-29_20h18.00.086,Simcolourproject_2stim_asymm_v5,2020.2.10,MacIntel,60,61025ae37ef11b136ea224fe,,,,,,,,,225,92,-48,1,0,0,response3disk,,5,8,6,1,0,0,rectangle,8,6,1,0,0,8,6,1,0,0,0,23,23,81,1,,,,,,,,
,,,,,,,,,,,,,FF,,,,,,,,1.216,,,,,,,,,,,,,,,,,,,,,,60fd8ea378ec4f0fa9a043be,61036f235259933529c752cd,2021-07-29_20h18.00.086,Simcolourproject_2stim_asymm_v5,2020.2.10,MacIntel,60,61025ae37ef11b136ea224fe,,,,,,,,,2266,79,-35,1,0,0,response3disk,,5,-6,1,1,0,0,rectangle,-6,1,1,0,0,-6,1,1,0,0,0,24,24,74,1,,,,,,,,
,,,,,,,,,,,,,FF,,,,,,,,1.534,,,,,,,,,,,,,,,,,,,,,,60fd8ea378ec4f0fa9a043be,61036f235259933529c752cd,2021-07-29_20h18.00.086,Simcolourproject_2stim_asymm_v5,2020.2.10,MacIntel,60,61025ae37ef11b136ea224fe,,,,,,,,,1061,-34,-85,1,0,0,response5disk,,3,-3,2,1,0,0,rectangle,-3,2,1,0,0,-3,2,1,0,0,0,25,25,144,1,,,,,,,,
,,,,,,,,,,,,,FF,,,,,,,,1.516,,,,,,,,,,,,,,,,,,,,,,60fd8ea378ec4f0fa9a043be,61036f235259933529c752cd,2021-07-29_20h18.00.086,Simcolourproject_2stim_asymm_v5,2020.2.10,MacIntel,60,61025ae37ef11b136ea224fe,,,,,,,,,3823,79,-51,1,0,0,response3disk,,5,4,6,1,0,0,rectangle,4,6,1,0,0,4,6,1,0,0,0,26,26,32,1,,,,,,,,
,,,,,,,,,,,,,FF,,,,,,,,2.767,,,,,,,,,,,,,,,,,,,,,,60fd8ea378ec4f0fa9a043be,61036f235259933529c752cd,2021-07-29_20h18.00.086,Simcolourproject_2stim_asymm_v5,2020.2.10,MacIntel,60,61025ae37ef11b136ea224fe,,,,,,,,,889,-95,-42,1,0,0,response5disk,,2,-1,7,1,0,0,rectangle,-1,7,1,0,0,-1,7,1,0,0,0,27,27,39,1,,,,,,,,
,,,,,,,,,,,,,FF,,,,,,,,2.35,,,,,,,,,,,,,,,,,,,,,,60fd8ea378ec4f0fa9a043be,61036f235259933529c752cd,2021-07-29_20h18.00.086,Simcolourproject_2stim_asymm_v5,2020.2.10,MacIntel,60,61025ae37ef11b136ea224fe,,,,,,,,,2182,106,54,1,0,0,response1disk,,6,-24,-1,1,0,0,rectangle,-24,-1,1,0,0,-24,-1,1,0,0,0,28,28,92,1,,,,,,,,
,,,,,,,,,,,,,FF,,,,,,,,1.484,,,,,,,,,,,,,,,,,,,,,,60fd8ea378ec4f0fa9a043be,61036f235259933529c752cd,2021-07-29_20h18.00.086,Simcolourproject_2stim_asymm_v5,2020.2.10,MacIntel,60,61025ae37ef11b136ea224fe,,,,,,,,,615,23,-95,1,0,0,response3disk,,4,-5,10,1,0,0,rectangle,-5,10,1,0,0,-5,10,1,0,0,0,29,29,95,1,,,,,,,,
,,,,,,,,,,,,,FF,,,,,,,,1.201,,,,,,,,,,,,,,,,,,,,,,60fd8ea378ec4f0fa9a043be,61036f235259933529c752cd,2021-07-29_20h18.00.086,Simcolourproject_2stim_asymm_v5,2020.2.10,MacIntel,60,61025ae37ef11b136ea224fe,,,,,,,,,1450,-45,-99,1,0,0,response5disk,,3,5,-4,1,0,0,rectangle,5,-4,1,0,0,5,-4,1,0,0,0,30,30,57,1,,,,,,,,
,,,,,,,,,,,,,FF,,,,,,,,1.133,,,,,,,,,,,,,,,,,,,,,,60fd8ea378ec4f0fa9a043be,61036f235259933529c752cd,2021-07-29_20h18.00.086,Simcolourproject_2stim_asymm_v5,2020.2.10,MacIntel,60,61025ae37ef11b136ea224fe,,,,,,,,,2445,91,42,1,0,0,response1disk,,6,-7,1,1,0,0,rectangle,-100,51,1,0,0,0,0,1,0,0,0,31,31,96,1,,response7disk_3,TRUE,1,1,"[11,18,309,242,159,173,51,36,302,132,243,273,118,178,121,289,120,274,32,40]",3.85,rectangle
,,,,,,,,,,,,,FF,,,,,,,,0.983,,,,,,,,,,,,,,,,,,,,,,60fd8ea378ec4f0fa9a043be,61036f235259933529c752cd,2021-07-29_20h18.00.086,Simcolourproject_2stim_asymm_v5,2020.2.10,MacIntel,60,61025ae37ef11b136ea224fe,,,,,,,,,1520,44,116,1,0,0,response1disk,,7,3,2,1,0,0,rectangle,3,2,1,0,0,3,2,1,0,0,0,32,32,82,1,,,,,,,,
,,,,,,,,,,,,,FF,,,,,,,,3.717,,,,,,,,,,,,,,,,,,,,,,60fd8ea378ec4f0fa9a043be,61036f235259933529c752cd,2021-07-29_20h18.00.086,Simcolourproject_2stim_asymm_v5,2020.2.10,MacIntel,60,61025ae37ef11b136ea224fe,,,,,,,,,1903,44,-76,1,0,0,response3disk,,4,5,-4,1,0,0,rectangle,5,-4,1,0,0,5,-4,1,0,0,0,33,33,83,1,,,,,,,,
,,,,,,,,,,,,,FF,,,,,,,,1.8,,,,,,,,,,,,,,,,,,,,,,60fd8ea378ec4f0fa9a043be,61036f235259933529c752cd,2021-07-29_20h18.00.086,Simcolourproject_2stim_asymm_v5,2020.2.10,MacIntel,60,61025ae37ef11b136ea224fe,,,,,,,,,2679,110,-35,1,0,0,response3disk,,5,-6,8,1,0,0,rectangle,-6,8,1,0,0,-6,8,1,0,0,0,34,34,147,1,,,,,,,,
,,,,,,,,,,,,,FF,,,,,,,,2.45,,,,,,,,,,,,,,,,,,,,,,60fd8ea378ec4f0fa9a043be,61036f235259933529c752cd,2021-07-29_20h18.00.086,Simcolourproject_2stim_asymm_v5,2020.2.10,MacIntel,60,61025ae37ef11b136ea224fe,,,,,,,,,4111,85,-36,1,0,0,response3disk,,5,3,1,1,0,0,rectangle,-82,33,1,0,0,-6,5,1,0,0,0,35,35,125,1,,response7disk_3,TRUE,1,1,"[11,18,309,242,159,173,51,36,302,132,243,273,118,178,121,289,120,274,32,40]",1.316,rectangle
,,,,,,,,,,,,,FF,,,,,,,,1.367,,,,,,,,,,,,,,,,,,,,,,60fd8ea378ec4f0fa9a043be,61036f235259933529c752cd,2021-07-29_20h18.00.086,Simcolourproject_2stim_asymm_v5,2020.2.10,MacIntel,60,61025ae37ef11b136ea224fe,,,,,,,,,1963,-93,45,1,0,0,response7disk,,1,-6,-7,1,0,0,rectangle,-6,-7,1,0,0,-6,-7,1,0,0,0,36,36,18,1,,,,,,,,
,,,,,,,,,,,,,FF,,,,,,,,5.066,,,,,,,,,,,,,,,,,,,,,,60fd8ea378ec4f0fa9a043be,61036f235259933529c752cd,2021-07-29_20h18.00.086,Simcolourproject_2stim_asymm_v5,2020.2.10,MacIntel,60,61025ae37ef11b136ea224fe,,,,,,,,,2079,112,44,1,0,0,response1disk,,6,-4,6,1,0,0,rectangle,-4,6,1,0,0,-4,6,1,0,0,0,37,37,27,1,,,,,,,,
,,,,,,,,,,,,,FF,,,,,,,,1.116,,,,,,,,,,,,,,,,,,,,,,60fd8ea378ec4f0fa9a043be,61036f235259933529c752cd,2021-07-29_20h18.00.086,Simcolourproject_2stim_asymm_v5,2020.2.10,MacIntel,60,61025ae37ef11b136ea224fe,,,,,,,,,3000,-87,46,1,0,0,response7disk,,1,2,-9,1,0,0,rectangle,2,-9,1,0,0,2,-9,1,0,0,0,38,38,108,1,,,,,,,,
,,,,,,,,,,,,,FF,,,,,,,,1.55,,,,,,,,,,,,,,,,,,,,,,60fd8ea378ec4f0fa9a043be,61036f235259933529c752cd,2021-07-29_20h18.00.086,Simcolourproject_2stim_asymm_v5,2020.2.10,MacIntel,60,61025ae37ef11b136ea224fe,,,,,,,,,3715,104,-32,1,0,0,response3disk,,5,13,9,1,0,0,rectangle,87,-42,1,0,0,1,3,1,0,0,0,39,39,115,1,,response3disk_3,TRUE,5,5,"[11,18,309,242,159,173,51,36,302,132,243,273,118,178,121,289,120,274,32,40]",2.534,rectangle
,,,,,,,,,,,,,FF,,,,,,,,2.251,,,,,,,,,,,,,,,,,,,,,,60fd8ea378ec4f0fa9a043be,61036f235259933529c752cd,2021-07-29_20h18.00.086,Simcolourproject_2stim_asymm_v5,2020.2.10,MacIntel,60,61025ae37ef11b136ea224fe,,,,,,,,,3928,33,90,1,0,0,response1disk,,7,3,2,1,0,0,rectangle,3,2,1,0,0,3,2,1,0,0,0,40,40,102,1,,,,,,,,
,,,,,,,,,,,,,FF,,,,,,,,2,,,,,,,,,,,,,,,,,,,,,,60fd8ea378ec4f0fa9a043be,61036f235259933529c752cd,2021-07-29_20h18.00.086,Simcolourproject_2stim_asymm_v5,2020.2.10,MacIntel,60,61025ae37ef11b136ea224fe,,,,,,,,,1466,89,-51,1,0,0,response3disk,,5,0,1,1,0,0,rectangle,0,1,1,0,0,0,1,1,0,0,0,41,41,110,1,,,,,,,,
,,,,,,,,,,,,,FF,,,,,,,,1.334,,,,,,,,,,,,,,,,,,,,,,60fd8ea378ec4f0fa9a043be,61036f235259933529c752cd,2021-07-29_20h18.00.086,Simcolourproject_2stim_asymm_v5,2020.2.10,MacIntel,60,61025ae37ef11b136ea224fe,,,,,,,,,61,93,-42,1,0,0,response3disk,,5,7,-8,1,0,0,rectangle,7,-8,1,0,0,7,-8,1,0,0,0,42,42,141,1,,,,,,,,
,,,,,,,,,,,,,FF,,,,,,,,1.317,,,,,,,,,,,,,,,,,,,,,,60fd8ea378ec4f0fa9a043be,61036f235259933529c752cd,2021-07-29_20h18.00.086,Simcolourproject_2stim_asymm_v5,2020.2.10,MacIntel,60,61025ae37ef11b136ea224fe,,,,,,,,,3819,35,-86,1,0,0,response3disk,,4,-8,-1,1,0,0,rectangle,-8,-1,1,0,0,-8,-1,1,0,0,0,43,43,126,1,,,,,,,,
,,,,,,,,,,,,,FF,,,,,,,,1.267,,,,,,,,,,,,,,,,,,,,,,60fd8ea378ec4f0fa9a043be,61036f235259933529c752cd,2021-07-29_20h18.00.086,Simcolourproject_2stim_asymm_v5,2020.2.10,MacIntel,60,61025ae37ef11b136ea224fe,,,,,,,,,1193,30,-73,1,0,0,response3disk,,4,-1,4,1,0,0,rectangle,-1,4,1,0,0,-1,4,1,0,0,0,44,44,49,1,,,,,,,,
,,,,,,,,,,,,,FF,,,,,,,,1.733,,,,,,,,,,,,,,,,,,,,,,60fd8ea378ec4f0fa9a043be,61036f235259933529c752cd,2021-07-29_20h18.00.086,Simcolourproject_2stim_asymm_v5,2020.2.10,MacIntel,60,61025ae37ef11b136ea224fe,,,,,,,,,3361,46,95,1,0,0,response1disk,,7,13,-4,1,0,0,rectangle,13,-4,1,0,0,13,-4,1,0,0,0,45,45,84,1,,,,,,,,
,,,,,,,,,,,,,FF,,,,,,,,1.368,,,,,,,,,,,,,,,,,,,,,,60fd8ea378ec4f0fa9a043be,61036f235259933529c752cd,2021-07-29_20h18.00.086,Simcolourproject_2stim_asymm_v5,2020.2.10,MacIntel,60,61025ae37ef11b136ea224fe,,,,,,,,,2596,46,85,1,0,0,response1disk,,7,3,1,1,0,0,rectangle,3,1,1,0,0,3,1,1,0,0,0,46,46,118,1,,,,,,,,
,,,,,,,,,,,,,FF,,,,,,,,1.082,,,,,,,,,,,,,,,,,,,,,,60fd8ea378ec4f0fa9a043be,61036f235259933529c752cd,2021-07-29_20h18.00.086,Simcolourproject_2stim_asymm_v5,2020.2.10,MacIntel,60,61025ae37ef11b136ea224fe,,,,,,,,,2153,95,38,1,0,0,response1disk,,6,8,0,1,0,0,rectangle,8,0,1,0,0,8,0,1,0,0,0,47,47,51,1,,,,,,,,
,,,,,,,,,,,,,FF,,,,,,,,2.384,,,,,,,,,,,,,,,,,,,,,,60fd8ea378ec4f0fa9a043be,61036f235259933529c752cd,2021-07-29_20h18.00.086,Simcolourproject_2stim_asymm_v5,2020.2.10,MacIntel,60,61025ae37ef11b136ea224fe,,,,,,,,,18,96,55,1,0,0,response1disk,,6,10,2,1,0,0,rectangle,10,2,1,0,0,10,2,1,0,0,0,48,48,68,1,,,,,,,,
,,,,,,,,,,,,,FF,,,,,,,,1.516,,,,,,,,,,,,,,,,,,,,,,60fd8ea378ec4f0fa9a043be,61036f235259933529c752cd,2021-07-29_20h18.00.086,Simcolourproject_2stim_asymm_v5,2020.2.10,MacIntel,60,61025ae37ef11b136ea224fe,,,,,,,,,56,84,-52,1,0,0,response3disk,,5,12,2,1,0,0,rectangle,12,2,1,0,0,12,2,1,0,0,0,49,49,0,1,,,,,,,,
,,,,,,,,,,,,,FF,,,,,,,,1.033,,,,,,,,,,,,,,,,,,,,,,60fd8ea378ec4f0fa9a043be,61036f235259933529c752cd,2021-07-29_20h18.00.086,Simcolourproject_2stim_asymm_v5,2020.2.10,MacIntel,60,61025ae37ef11b136ea224fe,,,,,,,,,3402,92,-48,1,0,0,response3disk,,5,3,-4,1,0,0,rectangle,-46,-96,1,0,0,-8,15,1,0,0,0,50,50,13,1,,response5disk_3,TRUE,3,3,"[11,18,309,242,159,173,51,36,302,132,243,273,118,178,121,289,120,274,32,40]",1.815,rectangle
,,,,,,,,,,,,,FF,,,,,,,,1.066,,,,,,,,,,,,,,,,,,,,,,60fd8ea378ec4f0fa9a043be,61036f235259933529c752cd,2021-07-29_20h18.00.086,Simcolourproject_2stim_asymm_v5,2020.2.10,MacIntel,60,61025ae37ef11b136ea224fe,,,,,,,,,3147,-29,-85,1,0,0,response5disk,,3,0,7,1,0,0,rectangle,0,7,1,0,0,0,7,1,0,0,0,51,51,35,1,,,,,,,,
,,,,,,,,,,,,,FF,,,,,,,,4.017,,,,,,,,,,,,,,,,,,,,,,60fd8ea378ec4f0fa9a043be,61036f235259933529c752cd,2021-07-29_20h18.00.086,Simcolourproject_2stim_asymm_v5,2020.2.10,MacIntel,60,61025ae37ef11b136ea224fe,,,,,,,,,2387,97,29,1,0,0,response1disk,,6,-13,-6,1,0,0,rectangle,-13,-6,1,0,0,-13,-6,1,0,0,0,52,52,116,1,,,,,,,,
,,,,,,,,,,,,,FF,,,,,,,,1.299,,,,,,,,,,,,,,,,,,,,,,60fd8ea378ec4f0fa9a043be,61036f235259933529c752cd,2021-07-29_20h18.00.086,Simcolourproject_2stim_asymm_v5,2020.2.10,MacIntel,60,61025ae37ef11b136ea224fe,,,,,,,,,1944,93,-42,1,0,0,response3disk,,5,-5,6,1,0,0,rectangle,-5,6,1,0,0,-5,6,1,0,0,0,53,53,30,1,,,,,,,,
,,,,,,,,,,,,,FF,,,,,,,,1.385,,,,,,,,,,,,,,,,,,,,,,60fd8ea378ec4f0fa9a043be,61036f235259933529c752cd,2021-07-29_20h18.00.086,Simcolourproject_2stim_asymm_v5,2020.2.10,MacIntel,60,61025ae37ef11b136ea224fe,,,,,,,,,1957,-93,-31,1,0,0,response5disk,,2,-10,0,1,0,0,rectangle,-10,0,1,0,0,-10,0,1,0,0,0,54,54,155,1,,,,,,,,
,,,,,,,,,,,,,FF,,,,,,,,1.232,,,,,,,,,,,,,,,,,,,,,,60fd8ea378ec4f0fa9a043be,61036f235259933529c752cd,2021-07-29_20h18.00.086,Simcolourproject_2stim_asymm_v5,2020.2.10,MacIntel,60,61025ae37ef11b136ea224fe,,,,,,,,,521,37,-90,1,0,0,response3disk,,4,11,6,1,0,0,rectangle,11,6,1,0,0,11,6,1,0,0,0,55,55,98,1,,,,,,,,
,,,,,,,,,,,,,FF,,,,,,,,1.334,,,,,,,,,,,,,,,,,,,,,,60fd8ea378ec4f0fa9a043be,61036f235259933529c752cd,2021-07-29_20h18.00.086,Simcolourproject_2stim_asymm_v5,2020.2.10,MacIntel,60,61025ae37ef11b136ea224fe,,,,,,,,,1129,49,85,1,0,0,response1disk,,7,1,5,1,0,0,rectangle,1,5,1,0,0,1,5,1,0,0,0,56,56,152,1,,,,,,,,
,,,,,,,,,,,,,FF,,,,,,,,1.167,,,,,,,,,,,,,,,,,,,,,,60fd8ea378ec4f0fa9a043be,61036f235259933529c752cd,2021-07-29_20h18.00.086,Simcolourproject_2stim_asymm_v5,2020.2.10,MacIntel,60,61025ae37ef11b136ea224fe,,,,,,,,,1847,92,36,1,0,0,response1disk,,6,-7,-1,1,0,0,rectangle,-7,-1,1,0,0,-7,-1,1,0,0,0,57,57,132,1,,,,,,,,
,,,,,,,,,,,,,FF,,,,,,,,1.083,,,,,,,,,,,,,,,,,,,,,,60fd8ea378ec4f0fa9a043be,61036f235259933529c752cd,2021-07-29_20h18.00.086,Simcolourproject_2stim_asymm_v5,2020.2.10,MacIntel,60,61025ae37ef11b136ea224fe,,,,,,,,,2440,45,97,1,0,0,response1disk,,7,11,-3,1,0,0,rectangle,11,-3,1,0,0,11,-3,1,0,0,0,58,58,17,1,,,,,,,,
,,,,,,,,,,,,,FF,,,,,,,,1.683,,,,,,,,,,,,,,,,,,,,,,60fd8ea378ec4f0fa9a043be,61036f235259933529c752cd,2021-07-29_20h18.00.086,Simcolourproject_2stim_asymm_v5,2020.2.10,MacIntel,60,61025ae37ef11b136ea224fe,,,,,,,,,893,-44,-89,1,0,0,response5disk,,3,-8,2,1,0,0,rectangle,-8,2,1,0,0,-8,2,1,0,0,0,59,59,156,1,,,,,,,,
,,,,,,,,,,,,,FF,,,,,,,,1.017,,,,,,,,,,,,,,,,,,,,,,60fd8ea378ec4f0fa9a043be,61036f235259933529c752cd,2021-07-29_20h18.00.086,Simcolourproject_2stim_asymm_v5,2020.2.10,MacIntel,60,61025ae37ef11b136ea224fe,,,,,,,,,2652,-47,-88,1,0,0,response5disk,,3,1,-4,1,0,0,rectangle,1,-4,1,0,0,1,-4,1,0,0,0,60,60,14,1,,,,,,,,
,,,,,,,,,,,,,FF,,,,,,,,1.05,,,,,,,,,,,,,,,,,,,,,,60fd8ea378ec4f0fa9a043be,61036f235259933529c752cd,2021-07-29_20h18.00.086,Simcolourproject_2stim_asymm_v5,2020.2.10,MacIntel,60,61025ae37ef11b136ea224fe,,,,,,,,,2741,95,34,1,0,0,response1disk,,6,13,1,1,0,0,rectangle,13,1,1,0,0,13,1,1,0,0,0,61,61,8,1,,,,,,,,
,,,,,,,,,,,,,FF,,,,,,,,1.834,,,,,,,,,,,,,,,,,,,,,,60fd8ea378ec4f0fa9a043be,61036f235259933529c752cd,2021-07-29_20h18.00.086,Simcolourproject_2stim_asymm_v5,2020.2.10,MacIntel,60,61025ae37ef11b136ea224fe,,,,,,,,,2002,88,55,1,0,0,response1disk,,6,-16,-16,1,0,0,rectangle,-16,-16,1,0,0,-16,-16,1,0,0,0,62,62,52,1,,,,,,,,
,,,,,,,,,,,,,FF,,,,,,,,2.484,,,,,,,,,,,,,,,,,,,,,,60fd8ea378ec4f0fa9a043be,61036f235259933529c752cd,2021-07-29_20h18.00.086,Simcolourproject_2stim_asymm_v5,2020.2.10,MacIntel,60,61025ae37ef11b136ea224fe,,,,,,,,,4355,78,-30,1,0,0,response3disk,,5,20,2,1,0,0,rectangle,20,2,1,0,0,20,2,1,0,0,0,63,63,11,1,,,,,,,,
,,,,,,,,,,,,,FF,,,,,,,,1.049,,,,,,,,,,,,,,,,,,,,,,60fd8ea378ec4f0fa9a043be,61036f235259933529c752cd,2021-07-29_20h18.00.086,Simcolourproject_2stim_asymm_v5,2020.2.10,MacIntel,60,61025ae37ef11b136ea224fe,,,,,,,,,1735,-96,52,1,0,0,response7disk,,1,-13,5,1,0,0,rectangle,-13,5,1,0,0,-13,5,1,0,0,0,64,64,48,1,,,,,,,,
,,,,,,,,,,,,,FF,,,,,,,,1.001,,,,,,,,,,,,,,,,,,,,,,60fd8ea378ec4f0fa9a043be,61036f235259933529c752cd,2021-07-29_20h18.00.086,Simcolourproject_2stim_asymm_v5,2020.2.10,MacIntel,60,61025ae37ef11b136ea224fe,,,,,,,,,1184,83,-34,1,0,0,response3disk,,5,1,-14,1,0,0,rectangle,1,-14,1,0,0,1,-14,1,0,0,0,65,65,109,1,,,,,,,,
,,,,,,,,,,,,,FF,,,,,,,,0.933,,,,,,,,,,,,,,,,,,,,,,60fd8ea378ec4f0fa9a043be,61036f235259933529c752cd,2021-07-29_20h18.00.086,Simcolourproject_2stim_asymm_v5,2020.2.10,MacIntel,60,61025ae37ef11b136ea224fe,,,,,,,,,2380,86,-20,1,0,0,response3disk,,5,15,1,1,0,0,rectangle,15,1,1,0,0,15,1,1,0,0,0,66,66,80,1,,,,,,,,
,,,,,,,,,,,,,FF,,,,,,,,0.849,,,,,,,,,,,,,,,,,,,,,,60fd8ea378ec4f0fa9a043be,61036f235259933529c752cd,2021-07-29_20h18.00.086,Simcolourproject_2stim_asymm_v5,2020.2.10,MacIntel,60,61025ae37ef11b136ea224fe,,,,,,,,,3523,95,57,1,0,0,response1disk,,6,8,7,1,0,0,rectangle,8,7,1,0,0,8,7,1,0,0,0,67,67,1,1,,,,,,,,
,,,,,,,,,,,,,FF,,,,,,,,1.833,,,,,,,,,,,,,,,,,,,,,,60fd8ea378ec4f0fa9a043be,61036f235259933529c752cd,2021-07-29_20h18.00.086,Simcolourproject_2stim_asymm_v5,2020.2.10,MacIntel,60,61025ae37ef11b136ea224fe,,,,,,,,,1828,-45,-89,1,0,0,response5disk,,3,14,1,1,0,0,rectangle,14,1,1,0,0,14,1,1,0,0,0,68,68,122,1,,,,,,,,
,,,,,,,,,,,,,FF,,,,,,,,1.234,,,,,,,,,,,,,,,,,,,,,,60fd8ea378ec4f0fa9a043be,61036f235259933529c752cd,2021-07-29_20h18.00.086,Simcolourproject_2stim_asymm_v5,2020.2.10,MacIntel,60,61025ae37ef11b136ea224fe,,,,,,,,,864,46,-87,1,0,0,response3disk,,4,4,-13,1,0,0,rectangle,4,-13,1,0,0,4,-13,1,0,0,0,69,69,7,1,,,,,,,,
,,,,,,,,,,,,,FF,,,,,,,,1.266,,,,,,,,,,,,,,,,,,,,,,60fd8ea378ec4f0fa9a043be,61036f235259933529c752cd,2021-07-29_20h18.00.086,Simcolourproject_2stim_asymm_v5,2020.2.10,MacIntel,60,61025ae37ef11b136ea224fe,,,,,,,,,1947,40,72,1,0,0,response1disk,,7,-1,5,1,0,0,rectangle,-1,5,1,0,0,-1,5,1,0,0,0,70,70,70,1,,,,,,,,
,,,,,,,,,,,,,FF,,,,,,,,0.9,,,,,,,,,,,,,,,,,,,,,,60fd8ea378ec4f0fa9a043be,61036f235259933529c752cd,2021-07-29_20h18.00.086,Simcolourproject_2stim_asymm_v5,2020.2.10,MacIntel,60,61025ae37ef11b136ea224fe,,,,,,,,,4179,34,94,1,0,0,response1disk,,7,19,-17,1,0,0,rectangle,19,-17,1,0,0,19,-17,1,0,0,0,71,71,25,1,,,,,,,,
,,,,,,,,,,,,,FF,,,,,,,,1.534,,,,,,,,,,,,,,,,,,,,,,60fd8ea378ec4f0fa9a043be,61036f235259933529c752cd,2021-07-29_20h18.00.086,Simcolourproject_2stim_asymm_v5,2020.2.10,MacIntel,60,61025ae37ef11b136ea224fe,,,,,,,,,2234,-91,-35,1,0,0,response5disk,,2,-8,-2,1,0,0,rectangle,-8,-2,1,0,0,-8,-2,1,0,0,0,72,72,76,1,,,,,,,,
,,,,,,,,,,,,,FF,,,,,,,,4.533,,,,,,,,,,,,,,,,,,,,,,60fd8ea378ec4f0fa9a043be,61036f235259933529c752cd,2021-07-29_20h18.00.086,Simcolourproject_2stim_asymm_v5,2020.2.10,MacIntel,60,61025ae37ef11b136ea224fe,,,,,,,,,2200,48,18,1,0,0,response1disk,,6,-12,-4,1,0,0,rectangle,-12,-4,1,0,0,-12,-4,1,0,0,0,73,73,140,1,,,,,,,,
,,,,,,,,,,,,,FF,,,,,,,,0.867,,,,,,,,,,,,,,,,,,,,,,60fd8ea378ec4f0fa9a043be,61036f235259933529c752cd,2021-07-29_20h18.00.086,Simcolourproject_2stim_asymm_v5,2020.2.10,MacIntel,60,61025ae37ef11b136ea224fe,,,,,,,,,4168,-79,36,1,0,0,response7disk,,1,-18,4,1,0,0,rectangle,-18,4,1,0,0,-18,4,1,0,0,0,74,74,103,1,,,,,,,,
,,,,,,,,,,,,,FF,,,,,,,,0.817,,,,,,,,,,,,,,,,,,,,,,60fd8ea378ec4f0fa9a043be,61036f235259933529c752cd,2021-07-29_20h18.00.086,Simcolourproject_2stim_asymm_v5,2020.2.10,MacIntel,60,61025ae37ef11b136ea224fe,,,,,,,,,2409,60,79,1,0,0,response1disk,,7,29,10,1,0,0,rectangle,29,10,1,0,0,29,10,1,0,0,0,75,75,41,1,,,,,,,,
,,,,,,,,,,,,,FF,,,,,,,,0.817,,,,,,,,,,,,,,,,,,,,,,60fd8ea378ec4f0fa9a043be,61036f235259933529c752cd,2021-07-29_20h18.00.086,Simcolourproject_2stim_asymm_v5,2020.2.10,MacIntel,60,61025ae37ef11b136ea224fe,,,,,,,,,1848,30,75,1,0,0,response1disk,,7,19,-8,1,0,0,rectangle,19,-8,1,0,0,19,-8,1,0,0,0,76,76,71,1,,,,,,,,
,,,,,,,,,,,,,FF,,,,,,,,1,,,,,,,,,,,,,,,,,,,,,,60fd8ea378ec4f0fa9a043be,61036f235259933529c752cd,2021-07-29_20h18.00.086,Simcolourproject_2stim_asymm_v5,2020.2.10,MacIntel,60,61025ae37ef11b136ea224fe,,,,,,,,,3746,-94,-57,1,0,0,response5disk,,2,10,8,1,0,0,rectangle,10,8,1,0,0,10,8,1,0,0,0,77,77,42,1,,,,,,,,
,,,,,,,,,,,,,FF,,,,,,,,1.083,,,,,,,,,,,,,,,,,,,,,,60fd8ea378ec4f0fa9a043be,61036f235259933529c752cd,2021-07-29_20h18.00.086,Simcolourproject_2stim_asymm_v5,2020.2.10,MacIntel,60,61025ae37ef11b136ea224fe,,,,,,,,,4236,-79,-36,1,0,0,response5disk,,2,-10,-9,1,0,0,rectangle,-10,-9,1,0,0,-10,-9,1,0,0,0,78,78,20,1,,,,,,,,
,,,,,,,,,,,,,FF,,,,,,,,1.183,,,,,,,,,,,,,,,,,,,,,,60fd8ea378ec4f0fa9a043be,61036f235259933529c752cd,2021-07-29_20h18.00.086,Simcolourproject_2stim_asymm_v5,2020.2.10,MacIntel,60,61025ae37ef11b136ea224fe,,,,,,,,,3005,37,-76,1,0,0,response3disk,,4,-7,-3,1,0,0,rectangle,-7,-3,1,0,0,-7,-3,1,0,0,0,79,79,62,1,,,,,,,,
,,,,,,,,,,,,,FF,,,,,,,,1.149,,,,,,,,,,,,,,,,,,,,,,60fd8ea378ec4f0fa9a043be,61036f235259933529c752cd,2021-07-29_20h18.00.086,Simcolourproject_2stim_asymm_v5,2020.2.10,MacIntel,60,61025ae37ef11b136ea224fe,,,,,,,,,1420,33,-81,1,0,0,response3disk,,4,11,4,1,0,0,rectangle,11,4,1,0,0,11,4,1,0,0,0,80,80,150,1,,,,,,,,
,,,,,,,,,,,,,FF,,,,,,,,0.867,,,,,,,,,,,,,,,,,,,,,,60fd8ea378ec4f0fa9a043be,61036f235259933529c752cd,2021-07-29_20h18.00.086,Simcolourproject_2stim_asymm_v5,2020.2.10,MacIntel,60,61025ae37ef11b136ea224fe,,,,,,,,,1366,22,-61,1,0,0,response3disk,,4,-4,-9,1,0,0,rectangle,-4,-9,1,0,0,-4,-9,1,0,0,0,81,81,89,1,,,,,,,,
,,,,,,,,,,,,,FF,,,,,,,,1.018,,,,,,,,,,,,,,,,,,,,,,60fd8ea378ec4f0fa9a043be,61036f235259933529c752cd,2021-07-29_20h18.00.086,Simcolourproject_2stim_asymm_v5,2020.2.10,MacIntel,60,61025ae37ef11b136ea224fe,,,,,,,,,2207,105,43,1,0,0,response1disk,,6,-1,6,1,0,0,rectangle,-1,6,1,0,0,-1,6,1,0,0,0,82,82,135,1,,,,,,,,
,,,,,,,,,,,,,FF,,,,,,,,0.916,,,,,,,,,,,,,,,,,,,,,,60fd8ea378ec4f0fa9a043be,61036f235259933529c752cd,2021-07-29_20h18.00.086,Simcolourproject_2stim_asymm_v5,2020.2.10,MacIntel,60,61025ae37ef11b136ea224fe,,,,,,,,,2483,95,55,1,0,0,response1disk,,6,7,10,1,0,0,rectangle,7,10,1,0,0,7,10,1,0,0,0,83,83,79,1,,,,,,,,
,,,,,,,,,,,,,FF,,,,,,,,0.85,,,,,,,,,,,,,,,,,,,,,,60fd8ea378ec4f0fa9a043be,61036f235259933529c752cd,2021-07-29_20h18.00.086,Simcolourproject_2stim_asymm_v5,2020.2.10,MacIntel,60,61025ae37ef11b136ea224fe,,,,,,,,,2589,85,39,1,0,0,response1disk,,6,3,1,1,0,0,rectangle,3,1,1,0,0,3,1,1,0,0,0,84,84,143,1,,,,,,,,
,,,,,,,,,,,,,FF,,,,,,,,0.683,,,,,,,,,,,,,,,,,,,,,,60fd8ea378ec4f0fa9a043be,61036f235259933529c752cd,2021-07-29_20h18.00.086,Simcolourproject_2stim_asymm_v5,2020.2.10,MacIntel,60,61025ae37ef11b136ea224fe,,,,,,,,,1651,77,37,1,0,0,response1disk,,6,9,-2,1,0,0,rectangle,9,-2,1,0,0,9,-2,1,0,0,0,85,85,127,1,,,,,,,,
,,,,,,,,,,,,,FF,,,,,,,,2.435,,,,,,,,,,,,,,,,,,,,,,60fd8ea378ec4f0fa9a043be,61036f235259933529c752cd,2021-07-29_20h18.00.086,Simcolourproject_2stim_asymm_v5,2020.2.10,MacIntel,60,61025ae37ef11b136ea224fe,,,,,,,,,28,77,-29,1,0,0,response3disk,,5,11,4,1,0,0,rectangle,11,4,1,0,0,11,4,1,0,0,0,86,86,37,1,,,,,,,,
,,,,,,,,,,,,,FF,,,,,,,,1.934,,,,,,,,,,,,,,,,,,,,,,60fd8ea378ec4f0fa9a043be,61036f235259933529c752cd,2021-07-29_20h18.00.086,Simcolourproject_2stim_asymm_v5,2020.2.10,MacIntel,60,61025ae37ef11b136ea224fe,,,,,,,,,4239,-40,-92,1,0,0,response5disk,,3,-5,-10,1,0,0,rectangle,-5,-10,1,0,0,-5,-10,1,0,0,0,87,87,12,1,,,,,,,,
,,,,,,,,,,,,,FF,,,,,,,,1.016,,,,,,,,,,,,,,,,,,,,,,60fd8ea378ec4f0fa9a043be,61036f235259933529c752cd,2021-07-29_20h18.00.086,Simcolourproject_2stim_asymm_v5,2020.2.10,MacIntel,60,61025ae37ef11b136ea224fe,,,,,,,,,2084,100,40,1,0,0,response1disk,,6,11,0,1,0,0,rectangle,11,0,1,0,0,11,0,1,0,0,0,88,88,119,1,,,,,,,,
,,,,,,,,,,,,,FF,,,,,,,,0.984,,,,,,,,,,,,,,,,,,,,,,60fd8ea378ec4f0fa9a043be,61036f235259933529c752cd,2021-07-29_20h18.00.086,Simcolourproject_2stim_asymm_v5,2020.2.10,MacIntel,60,61025ae37ef11b136ea224fe,,,,,,,,,3564,21,95,1,0,0,response1disk,,7,13,8,1,0,0,rectangle,13,8,1,0,0,13,8,1,0,0,0,89,89,87,1,,,,,,,,
,,,,,,,,,,,,,FF,,,,,,,,0.665,,,,,,,,,,,,,,,,,,,,,,60fd8ea378ec4f0fa9a043be,61036f235259933529c752cd,2021-07-29_20h18.00.086,Simcolourproject_2stim_asymm_v5,2020.2.10,MacIntel,60,61025ae37ef11b136ea224fe,,,,,,,,,3215,31,71,1,0,0,response1disk,,7,-4,-4,1,0,0,rectangle,-4,-4,1,0,0,-4,-4,1,0,0,0,90,90,6,1,,,,,,,,
,,,,,,,,,,,,,FF,,,,,,,,0.734,,,,,,,,,,,,,,,,,,,,,,60fd8ea378ec4f0fa9a043be,61036f235259933529c752cd,2021-07-29_20h18.00.086,Simcolourproject_2stim_asymm_v5,2020.2.10,MacIntel,60,61025ae37ef11b136ea224fe,,,,,,,,,1006,34,68,1,0,0,response1disk,,7,2,0,1,0,0,rectangle,2,0,1,0,0,2,0,1,0,0,0,91,91,38,1,,,,,,,,
,,,,,,,,,,,,,FF,,,,,,,,0.683,,,,,,,,,,,,,,,,,,,,,,60fd8ea378ec4f0fa9a043be,61036f235259933529c752cd,2021-07-29_20h18.00.086,Simcolourproject_2stim_asymm_v5,2020.2.10,MacIntel,60,61025ae37ef11b136ea224fe,,,,,,,,,2922,39,72,1,0,0,response1disk,,7,2,-5,1,0,0,rectangle,2,-5,1,0,0,2,-5,1,0,0,0,92,92,137,1,,,,,,,,
,,,,,,,,,,,,,FF,,,,,,,,0.599,,,,,,,,,,,,,,,,,,,,,,60fd8ea378ec4f0fa9a043be,61036f235259933529c752cd,2021-07-29_20h18.00.086,Simcolourproject_2stim_asymm_v5,2020.2.10,MacIntel,60,61025ae37ef11b136ea224fe,,,,,,,,,3791,27,70,1,0,0,response1disk,,7,7,-10,1,0,0,rectangle,7,-10,1,0,0,7,-10,1,0,0,0,93,93,93,1,,,,,,,,
,,,,,,,,,,,,,FF,,,,,,,,1.1,,,,,,,,,,,,,,,,,,,,,,60fd8ea378ec4f0fa9a043be,61036f235259933529c752cd,2021-07-29_20h18.00.086,Simcolourproject_2stim_asymm_v5,2020.2.10,MacIntel,60,61025ae37ef11b136ea224fe,,,,,,,,,3433,43,-74,1,0,0,response3disk,,4,9,-16,1,0,0,rectangle,9,-16,1,0,0,9,-16,1,0,0,0,94,94,151,1,,,,,,,,
,,,,,,,,,,,,,FF,,,,,,,,0.85,,,,,,,,,,,,,,,,,,,,,,60fd8ea378ec4f0fa9a043be,61036f235259933529c752cd,2021-07-29_20h18.00.086,Simcolourproject_2stim_asymm_v5,2020.2.10,MacIntel,60,61025ae37ef11b136ea224fe,,,,,,,,,2082,79,-35,1,0,0,response3disk,,5,12,-8,1,0,0,rectangle,12,-8,1,0,0,12,-8,1,0,0,0,95,95,91,1,,,,,,,,
,,,,,,,,,,,,,FF,,,,,,,,0.85,,,,,,,,,,,,,,,,,,,,,,60fd8ea378ec4f0fa9a043be,61036f235259933529c752cd,2021-07-29_20h18.00.086,Simcolourproject_2stim_asymm_v5,2020.2.10,MacIntel,60,61025ae37ef11b136ea224fe,,,,,,,,,3750,41,-81,1,0,0,response3disk,,4,6,-18,1,0,0,rectangle,6,-18,1,0,0,6,-18,1,0,0,0,96,96,133,1,,,,,,,,
,,,,,,,,,,,,,FF,,,,,,,,0.766,,,,,,,,,,,,,,,,,,,,,,60fd8ea378ec4f0fa9a043be,61036f235259933529c752cd,2021-07-29_20h18.00.086,Simcolourproject_2stim_asymm_v5,2020.2.10,MacIntel,60,61025ae37ef11b136ea224fe,,,,,,,,,2869,82,-31,1,0,0,response3disk,,5,-3,-7,1,0,0,rectangle,-3,-7,1,0,0,-3,-7,1,0,0,0,97,97,61,1,,,,,,,,
,,,,,,,,,,,,,FF,,,,,,,,1.851,,,,,,,,,,,,,,,,,,,,,,60fd8ea378ec4f0fa9a043be,61036f235259933529c752cd,2021-07-29_20h18.00.086,Simcolourproject_2stim_asymm_v5,2020.2.10,MacIntel,60,61025ae37ef11b136ea224fe,,,,,,,,,1285,38,-78,1,0,0,response3disk,,4,2,0,1,0,0,rectangle,2,0,1,0,0,2,0,1,0,0,0,98,98,129,1,,,,,,,,
,,,,,,,,,,,,,FF,,,,,,,,1.15,,,,,,,,,,,,,,,,,,,,,,60fd8ea378ec4f0fa9a043be,61036f235259933529c752cd,2021-07-29_20h18.00.086,Simcolourproject_2stim_asymm_v5,2020.2.10,MacIntel,60,61025ae37ef11b136ea224fe,,,,,,,,,1486,96,48,1,0,0,response1disk,,6,3,12,1,0,0,rectangle,3,12,1,0,0,3,12,1,0,0,0,99,99,123,1,,,,,,,,
,,,,,,,,,,,,,FF,,,,,,,,1.067,,,,,,,,,,,,,,,,,,,,,,60fd8ea378ec4f0fa9a043be,61036f235259933529c752cd,2021-07-29_20h18.00.086,Simcolourproject_2stim_asymm_v5,2020.2.10,MacIntel,60,61025ae37ef11b136ea224fe,,,,,,,,,1738,30,73,1,0,0,response1disk,,7,13,0,1,0,0,rectangle,13,0,1,0,0,13,0,1,0,0,0,100,100,130,1,,,,,,,,
,,,,,,,,,,,,,FF,,,,,,,,1.134,,,,,,,,,,,,,,,,,,,,,,60fd8ea378ec4f0fa9a043be,61036f235259933529c752cd,2021-07-29_20h18.00.086,Simcolourproject_2stim_asymm_v5,2020.2.10,MacIntel,60,61025ae37ef11b136ea224fe,,,,,,,,,4050,26,-68,1,0,0,response3disk,,4,8,4,1,0,0,rectangle,8,4,1,0,0,8,4,1,0,0,0,101,101,56,1,,,,,,,,
,,,,,,,,,,,,,FF,,,,,,,,0.967,,,,,,,,,,,,,,,,,,,,,,60fd8ea378ec4f0fa9a043be,61036f235259933529c752cd,2021-07-29_20h18.00.086,Simcolourproject_2stim_asymm_v5,2020.2.10,MacIntel,60,61025ae37ef11b136ea224fe,,,,,,,,,3492,79,34,1,0,0,response1disk,,6,7,-1,1,0,0,rectangle,7,-1,1,0,0,7,-1,1,0,0,0,102,102,145,1,,,,,,,,
,,,,,,,,,,,,,FF,,,,,,,,1.101,,,,,,,,,,,,,,,,,,,,,,60fd8ea378ec4f0fa9a043be,61036f235259933529c752cd,2021-07-29_20h18.00.086,Simcolourproject_2stim_asymm_v5,2020.2.10,MacIntel,60,61025ae37ef11b136ea224fe,,,,,,,,,1539,38,83,1,0,0,response1disk,,7,23,0,1,0,0,rectangle,23,0,1,0,0,23,0,1,0,0,0,103,103,9,1,,,,,,,,
,,,,,,,,,,,,,FF,,,,,,,,1.582,,,,,,,,,,,,,,,,,,,,,,60fd8ea378ec4f0fa9a043be,61036f235259933529c752cd,2021-07-29_20h18.00.086,Simcolourproject_2stim_asymm_v5,2020.2.10,MacIntel,60,61025ae37ef11b136ea224fe,,,,,,,,,4116,38,-97,1,0,0,response3disk,,4,13,-7,1,0,0,rectangle,13,-7,1,0,0,13,-7,1,0,0,0,104,104,21,1,,,,,,,,
,,,,,,,,,,,,,FF,,,,,,,,1.616,,,,,,,,,,,,,,,,,,,,,,60fd8ea378ec4f0fa9a043be,61036f235259933529c752cd,2021-07-29_20h18.00.086,Simcolourproject_2stim_asymm_v5,2020.2.10,MacIntel,60,61025ae37ef11b136ea224fe,,,,,,,,,2994,-54,-102,1,0,0,response5disk,,3,1,7,1,0,0,rectangle,1,7,1,0,0,1,7,1,0,0,0,105,105,65,1,,,,,,,,
,,,,,,,,,,,,,FF,,,,,,,,0.784,,,,,,,,,,,,,,,,,,,,,,60fd8ea378ec4f0fa9a043be,61036f235259933529c752cd,2021-07-29_20h18.00.086,Simcolourproject_2stim_asymm_v5,2020.2.10,MacIntel,60,61025ae37ef11b136ea224fe,,,,,,,,,328,91,49,1,0,0,response1disk,,6,23,5,1,0,0,rectangle,23,5,1,0,0,23,5,1,0,0,0,106,106,47,1,,,,,,,,
,,,,,,,,,,,,,FF,,,,,,,,0.751,,,,,,,,,,,,,,,,,,,,,,60fd8ea378ec4f0fa9a043be,61036f235259933529c752cd,2021-07-29_20h18.00.086,Simcolourproject_2stim_asymm_v5,2020.2.10,MacIntel,60,61025ae37ef11b136ea224fe,,,,,,,,,231,73,34,1,0,0,response1disk,,6,6,-7,1,0,0,rectangle,6,-7,1,0,0,6,-7,1,0,0,0,107,107,72,1,,,,,,,,
,,,,,,,,,,,,,FF,,,,,,,,0.7,,,,,,,,,,,,,,,,,,,,,,60fd8ea378ec4f0fa9a043be,61036f235259933529c752cd,2021-07-29_20h18.00.086,Simcolourproject_2stim_asymm_v5,2020.2.10,MacIntel,60,61025ae37ef11b136ea224fe,,,,,,,,,3365,73,32,1,0,0,response1disk,,6,9,1,1,0,0,rectangle,9,1,1,0,0,9,1,1,0,0,0,108,108,29,1,,,,,,,,
,,,,,,,,,,,,,FF,,,,,,,,1.233,,,,,,,,,,,,,,,,,,,,,,60fd8ea378ec4f0fa9a043be,61036f235259933529c752cd,2021-07-29_20h18.00.086,Simcolourproject_2stim_asymm_v5,2020.2.10,MacIntel,60,61025ae37ef11b136ea224fe,,,,,,,,,1326,85,-38,1,0,0,response3disk,,5,14,-8,1,0,0,rectangle,14,-8,1,0,0,14,-8,1,0,0,0,109,109,120,1,,,,,,,,
,,,,,,,,,,,,,FF,,,,,,,,1.017,,,,,,,,,,,,,,,,,,,,,,60fd8ea378ec4f0fa9a043be,61036f235259933529c752cd,2021-07-29_20h18.00.086,Simcolourproject_2stim_asymm_v5,2020.2.10,MacIntel,60,61025ae37ef11b136ea224fe,,,,,,,,,960,80,-35,1,0,0,response3disk,,5,14,-13,1,0,0,rectangle,14,-13,1,0,0,14,-13,1,0,0,0,110,110,64,1,,,,,,,,
,,,,,,,,,,,,,FF,,,,,,,,0.817,,,,,,,,,,,,,,,,,,,,,,60fd8ea378ec4f0fa9a043be,61036f235259933529c752cd,2021-07-29_20h18.00.086,Simcolourproject_2stim_asymm_v5,2020.2.10,MacIntel,60,61025ae37ef11b136ea224fe,,,,,,,,,34,83,32,1,0,0,response1disk,,6,6,3,1,0,0,rectangle,6,3,1,0,0,6,3,1,0,0,0,111,111,142,1,,,,,,,,
,,,,,,,,,,,,,FF,,,,,,,,1,,,,,,,,,,,,,,,,,,,,,,60fd8ea378ec4f0fa9a043be,61036f235259933529c752cd,2021-07-29_20h18.00.086,Simcolourproject_2stim_asymm_v5,2020.2.10,MacIntel,60,61025ae37ef11b136ea224fe,,,,,,,,,612,-44,-97,1,0,0,response5disk,,3,-7,1,1,0,0,rectangle,-7,1,1,0,0,-7,1,1,0,0,0,112,112,66,1,,,,,,,,
,,,,,,,,,,,,,FF,,,,,,,,1.684,,,,,,,,,,,,,,,,,,,,,,60fd8ea378ec4f0fa9a043be,61036f235259933529c752cd,2021-07-29_20h18.00.086,Simcolourproject_2stim_asymm_v5,2020.2.10,MacIntel,60,61025ae37ef11b136ea224fe,,,,,,,,,1417,51,-86,1,0,0,response3disk,,4,7,1,1,0,0,rectangle,7,1,1,0,0,7,1,1,0,0,0,113,113,100,1,,,,,,,,
,,,,,,,,,,,,,FF,,,,,,,,0.984,,,,,,,,,,,,,,,,,,,,,,60fd8ea378ec4f0fa9a043be,61036f235259933529c752cd,2021-07-29_20h18.00.086,Simcolourproject_2stim_asymm_v5,2020.2.10,MacIntel,60,61025ae37ef11b136ea224fe,,,,,,,,,1784,81,-35,1,0,0,response3disk,,5,23,-5,1,0,0,rectangle,23,-5,1,0,0,23,-5,1,0,0,0,114,114,69,1,,,,,,,,
,,,,,,,,,,,,,FF,,,,,,,,0.999,,,,,,,,,,,,,,,,,,,,,,60fd8ea378ec4f0fa9a043be,61036f235259933529c752cd,2021-07-29_20h18.00.086,Simcolourproject_2stim_asymm_v5,2020.2.10,MacIntel,60,61025ae37ef11b136ea224fe,,,,,,,,,58,-44,-83,1,0,0,response5disk,,3,-7,-6,1,0,0,rectangle,-7,-6,1,0,0,-7,-6,1,0,0,0,115,115,106,1,,,,,,,,
,,,,,,,,,,,,,FF,,,,,,,,0.883,,,,,,,,,,,,,,,,,,,,,,60fd8ea378ec4f0fa9a043be,61036f235259933529c752cd,2021-07-29_20h18.00.086,Simcolourproject_2stim_asymm_v5,2020.2.10,MacIntel,60,61025ae37ef11b136ea224fe,,,,,,,,,3055,-38,-75,1,0,0,response5disk,,3,-16,-2,1,0,0,rectangle,-16,-2,1,0,0,-16,-2,1,0,0,0,116,116,121,1,,,,,,,,
,,,,,,,,,,,,,FF,,,,,,,,1.183,,,,,,,,,,,,,,,,,,,,,,60fd8ea378ec4f0fa9a043be,61036f235259933529c752cd,2021-07-29_20h18.00.086,Simcolourproject_2stim_asymm_v5,2020.2.10,MacIntel,60,61025ae37ef11b136ea224fe,,,,,,,,,398,96,51,1,0,0,response1disk,,6,25,15,1,0,0,rectangle,-89,42,1,0,0,-2,1,1,0,0,0,117,117,53,1,,response7disk_3,TRUE,1,1,"[11,18,309,242,159,173,51,36,302,132,243,273,118,178,121,289,120,274,32,40]",1.399,rectangle
,,,,,,,,,,,,,FF,,,,,,,,1.1,,,,,,,,,,,,,,,,,,,,,,60fd8ea378ec4f0fa9a043be,61036f235259933529c752cd,2021-07-29_20h18.00.086,Simcolourproject_2stim_asymm_v5,2020.2.10,MacIntel,60,61025ae37ef11b136ea224fe,,,,,,,,,3769,-49,-113,1,0,0,response5disk,,3,-8,-18,1,0,0,rectangle,-8,-18,1,0,0,-8,-18,1,0,0,0,118,118,85,1,,,,,,,,
,,,,,,,,,,,,,FF,,,,,,,,1.45,,,,,,,,,,,,,,,,,,,,,,60fd8ea378ec4f0fa9a043be,61036f235259933529c752cd,2021-07-29_20h18.00.086,Simcolourproject_2stim_asymm_v5,2020.2.10,MacIntel,60,61025ae37ef11b136ea224fe,,,,,,,,,558,42,-66,1,0,0,response3disk,,4,14,7,1,0,0,rectangle,104,48,1,0,0,2,2,1,0,0,0,119,119,54,1,,response1disk_3,TRUE,6,6,"[11,18,309,242,159,173,51,36,302,132,243,273,118,178,121,289,120,274,32,40]",1.615,rectangle
,,,,,,,,,,,,,FF,,,,,,,,0.816,,,,,,,,,,,,,,,,,,,,,,60fd8ea378ec4f0fa9a043be,61036f235259933529c752cd,2021-07-29_20h18.00.086,Simcolourproject_2stim_asymm_v5,2020.2.10,MacIntel,60,61025ae37ef11b136ea224fe,,,,,,,,,317,82,44,1,0,0,response1disk,,6,7,9,1,0,0,rectangle,80,50,1,0,0,1,-6,1,0,0,0,120,120,158,1,,response1disk_3,TRUE,6,2,"[11,18,309,242,159,173,51,36,302,132,243,273,118,178,121,289,120,274,32,40]",1.566,rectangle
,,,,,,,,,,,,,FF,,,,,,,,1.516,,,,,,,,,,,,,,,,,,,,,,60fd8ea378ec4f0fa9a043be,61036f235259933529c752cd,2021-07-29_20h18.00.086,Simcolourproject_2stim_asymm_v5,2020.2.10,MacIntel,60,61025ae37ef11b136ea224fe,,,,,,,,,3550,93,-45,1,0,0,response3disk,,5,7,-9,1,0,0,rectangle,7,-9,1,0,0,7,-9,1,0,0,0,121,121,60,1,,,,,,,,
,,,,,,,,,,,,,FF,,,,,,,,0.949,,,,,,,,,,,,,,,,,,,,,,60fd8ea378ec4f0fa9a043be,61036f235259933529c752cd,2021-07-29_20h18.00.086,Simcolourproject_2stim_asymm_v5,2020.2.10,MacIntel,60,61025ae37ef11b136ea224fe,,,,,,,,,973,-93,-44,1,0,0,response5disk,,2,-1,0,1,0,0,rectangle,-1,0,1,0,0,-1,0,1,0,0,0,122,122,16,1,,,,,,,,
,,,,,,,,,,,,,FF,,,,,,,,1.067,,,,,,,,,,,,,,,,,,,,,,60fd8ea378ec4f0fa9a043be,61036f235259933529c752cd,2021-07-29_20h18.00.086,Simcolourproject_2stim_asymm_v5,2020.2.10,MacIntel,60,61025ae37ef11b136ea224fe,,,,,,,,,2553,86,-33,1,0,0,response3disk,,5,8,0,1,0,0,rectangle,8,0,1,0,0,8,0,1,0,0,0,123,123,34,1,,,,,,,,
,,,,,,,,,,,,,FF,,,,,,,,1.016,,,,,,,,,,,,,,,,,,,,,,60fd8ea378ec4f0fa9a043be,61036f235259933529c752cd,2021-07-29_20h18.00.086,Simcolourproject_2stim_asymm_v5,2020.2.10,MacIntel,60,61025ae37ef11b136ea224fe,,,,,,,,,1446,47,-87,1,0,0,response3disk,,4,2,-16,1,0,0,rectangle,2,-16,1,0,0,2,-16,1,0,0,0,124,124,113,1,,,,,,,,
,,,,,,,,,,,,,FF,,,,,,,,1.084,,,,,,,,,,,,,,,,,,,,,,60fd8ea378ec4f0fa9a043be,61036f235259933529c752cd,2021-07-29_20h18.00.086,Simcolourproject_2stim_asymm_v5,2020.2.10,MacIntel,60,61025ae37ef11b136ea224fe,,,,,,,,,2691,114,54,1,0,0,response1disk,,6,-21,5,1,0,0,rectangle,-21,5,1,0,0,-21,5,1,0,0,0,125,125,148,1,,,,,,,,
,,,,,,,,,,,,,FF,,,,,,,,0.984,,,,,,,,,,,,,,,,,,,,,,60fd8ea378ec4f0fa9a043be,61036f235259933529c752cd,2021-07-29_20h18.00.086,Simcolourproject_2stim_asymm_v5,2020.2.10,MacIntel,60,61025ae37ef11b136ea224fe,,,,,,,,,2110,45,89,1,0,0,response1disk,,7,18,7,1,0,0,rectangle,18,7,1,0,0,18,7,1,0,0,0,126,126,86,1,,,,,,,,
,,,,,,,,,,,,,FF,,,,,,,,0.9,,,,,,,,,,,,,,,,,,,,,,60fd8ea378ec4f0fa9a043be,61036f235259933529c752cd,2021-07-29_20h18.00.086,Simcolourproject_2stim_asymm_v5,2020.2.10,MacIntel,60,61025ae37ef11b136ea224fe,,,,,,,,,1556,76,39,1,0,0,response1disk,,6,22,9,1,0,0,rectangle,22,9,1,0,0,22,9,1,0,0,0,127,127,153,1,,,,,,,,
,,,,,,,,,,,,,FF,,,,,,,,0.952,,,,,,,,,,,,,,,,,,,,,,60fd8ea378ec4f0fa9a043be,61036f235259933529c752cd,2021-07-29_20h18.00.086,Simcolourproject_2stim_asymm_v5,2020.2.10,MacIntel,60,61025ae37ef11b136ea224fe,,,,,,,,,3618,70,43,1,0,0,response1disk,,6,-9,-8,1,0,0,rectangle,-9,-8,1,0,0,-9,-8,1,0,0,0,128,128,114,1,,,,,,,,
,,,,,,,,,,,,,FF,,,,,,,,1.15,,,,,,,,,,,,,,,,,,,,,,60fd8ea378ec4f0fa9a043be,61036f235259933529c752cd,2021-07-29_20h18.00.086,Simcolourproject_2stim_asymm_v5,2020.2.10,MacIntel,60,61025ae37ef11b136ea224fe,,,,,,,,,4085,35,-61,1,0,0,response3disk,,4,3,-12,1,0,0,rectangle,3,-12,1,0,0,3,-12,1,0,0,0,129,129,40,1,,,,,,,,
,,,,,,,,,,,,,FF,,,,,,,,2.116,,,,,,,,,,,,,,,,,,,,,,60fd8ea378ec4f0fa9a043be,61036f235259933529c752cd,2021-07-29_20h18.00.086,Simcolourproject_2stim_asymm_v5,2020.2.10,MacIntel,60,61025ae37ef11b136ea224fe,,,,,,,,,957,75,-38,1,0,0,response3disk,,5,14,7,1,0,0,rectangle,14,7,1,0,0,14,7,1,0,0,0,130,130,67,1,,,,,,,,
,,,,,,,,,,,,,FF,,,,,,,,0.866,,,,,,,,,,,,,,,,,,,,,,60fd8ea378ec4f0fa9a043be,61036f235259933529c752cd,2021-07-29_20h18.00.086,Simcolourproject_2stim_asymm_v5,2020.2.10,MacIntel,60,61025ae37ef11b136ea224fe,,,,,,,,,3066,34,-84,1,0,0,response3disk,,4,14,3,1,0,0,rectangle,30,105,1,0,0,-4,-1,1,0,0,0,131,131,157,1,,response1disk_3,TRUE,7,7,"[11,18,309,242,159,173,51,36,302,132,243,273,118,178,121,289,120,274,32,40]",2.416,rectangle
,,,,,,,,,,,,,FF,,,,,,,,1.167,,,,,,,,,,,,,,,,,,,,,,60fd8ea378ec4f0fa9a043be,61036f235259933529c752cd,2021-07-29_20h18.00.086,Simcolourproject_2stim_asymm_v5,2020.2.10,MacIntel,60,61025ae37ef11b136ea224fe,,,,,,,,,3607,68,47,1,0,0,response1disk,,6,20,-1,1,0,0,rectangle,20,-1,1,0,0,20,-1,1,0,0,0,132,132,55,1,,,,,,,,
,,,,,,,,,,,,,FF,,,,,,,,1.8,,,,,,,,,,,,,,,,,,,,,,60fd8ea378ec4f0fa9a043be,61036f235259933529c752cd,2021-07-29_20h18.00.086,Simcolourproject_2stim_asymm_v5,2020.2.10,MacIntel,60,61025ae37ef11b136ea224fe,,,,,,,,,977,34,-82,1,0,0,response3disk,,4,11,-5,1,0,0,rectangle,11,-5,1,0,0,11,-5,1,0,0,0,133,133,22,1,,,,,,,,
,,,,,,,,,,,,,FF,,,,,,,,0.917,,,,,,,,,,,,,,,,,,,,,,60fd8ea378ec4f0fa9a043be,61036f235259933529c752cd,2021-07-29_20h18.00.086,Simcolourproject_2stim_asymm_v5,2020.2.10,MacIntel,60,61025ae37ef11b136ea224fe,,,,,,,,,590,71,26,1,0,0,response1disk,,6,5,-7,1,0,0,rectangle,5,-7,1,0,0,5,-7,1,0,0,0,134,134,78,1,,,,,,,,
,,,,,,,,,,,,,FF,,,,,,,,1.733,,,,,,,,,,,,,,,,,,,,,,60fd8ea378ec4f0fa9a043be,61036f235259933529c752cd,2021-07-29_20h18.00.086,Simcolourproject_2stim_asymm_v5,2020.2.10,MacIntel,60,61025ae37ef11b136ea224fe,,,,,,,,,3565,18,-82,1,0,0,response3disk,,4,2,-11,1,0,0,rectangle,2,-11,1,0,0,2,-11,1,0,0,0,135,135,88,1,,,,,,,,
,,,,,,,,,,,,,FF,,,,,,,,0.866,,,,,,,,,,,,,,,,,,,,,,60fd8ea378ec4f0fa9a043be,61036f235259933529c752cd,2021-07-29_20h18.00.086,Simcolourproject_2stim_asymm_v5,2020.2.10,MacIntel,60,61025ae37ef11b136ea224fe,,,,,,,,,1843,84,-28,1,0,0,response3disk,,5,14,-17,1,0,0,rectangle,14,-17,1,0,0,14,-17,1,0,0,0,136,136,5,1,,,,,,,,
,,,,,,,,,,,,,FF,,,,,,,,1.3,,,,,,,,,,,,,,,,,,,,,,60fd8ea378ec4f0fa9a043be,61036f235259933529c752cd,2021-07-29_20h18.00.086,Simcolourproject_2stim_asymm_v5,2020.2.10,MacIntel,60,61025ae37ef11b136ea224fe,,,,,,,,,504,74,38,1,0,0,response1disk,,6,11,16,1,0,0,rectangle,11,16,1,0,0,11,16,1,0,0,0,137,137,136,1,,,,,,,,
,,,,,,,,,,,,,FF,,,,,,,,1.5,,,,,,,,,,,,,,,,,,,,,,60fd8ea378ec4f0fa9a043be,61036f235259933529c752cd,2021-07-29_20h18.00.086,Simcolourproject_2stim_asymm_v5,2020.2.10,MacIntel,60,61025ae37ef11b136ea224fe,,,,,,,,,2694,38,84,1,0,0,response1disk,,7,21,1,1,0,0,rectangle,21,1,1,0,0,21,1,1,0,0,0,138,138,101,1,,,,,,,,
,,,,,,,,,,,,,FF,,,,,,,,1.051,,,,,,,,,,,,,,,,,,,,,,60fd8ea378ec4f0fa9a043be,61036f235259933529c752cd,2021-07-29_20h18.00.086,Simcolourproject_2stim_asymm_v5,2020.2.10,MacIntel,60,61025ae37ef11b136ea224fe,,,,,,,,,2615,-79,-42,1,0,0,response5disk,,2,-3,0,1,0,0,rectangle,-3,0,1,0,0,-3,0,1,0,0,0,139,139,43,1,,,,,,,,
,,,,,,,,,,,,,FF,,,,,,,,1.783,,,,,,,,,,,,,,,,,,,,,,60fd8ea378ec4f0fa9a043be,61036f235259933529c752cd,2021-07-29_20h18.00.086,Simcolourproject_2stim_asymm_v5,2020.2.10,MacIntel,60,61025ae37ef11b136ea224fe,,,,,,,,,136,54,-41,1,0,0,response3disk,,5,16,1,1,0,0,rectangle,16,1,1,0,0,16,1,1,0,0,0,140,140,90,1,,,,,,,,
,,,,,,,,,,,,,FF,,,,,,,,2.817,,,,,,,,,,,,,,,,,,,,,,60fd8ea378ec4f0fa9a043be,61036f235259933529c752cd,2021-07-29_20h18.00.086,Simcolourproject_2stim_asymm_v5,2020.2.10,MacIntel,60,61025ae37ef11b136ea224fe,,,,,,,,,848,92,52,1,0,0,response1disk,,6,-7,-11,1,0,0,rectangle,-7,-11,1,0,0,-7,-11,1,0,0,0,141,141,75,1,,,,,,,,
,,,,,,,,,,,,,FF,,,,,,,,1.866,,,,,,,,,,,,,,,,,,,,,,60fd8ea378ec4f0fa9a043be,61036f235259933529c752cd,2021-07-29_20h18.00.086,Simcolourproject_2stim_asymm_v5,2020.2.10,MacIntel,60,61025ae37ef11b136ea224fe,,,,,,,,,1464,-47,-92,1,0,0,response5disk,,3,-11,-2,1,0,0,rectangle,-11,-2,1,0,0,-11,-2,1,0,0,0,142,142,138,1,,,,,,,,
,,,,,,,,,,,,,FF,,,,,,,,0.983,,,,,,,,,,,,,,,,,,,,,,60fd8ea378ec4f0fa9a043be,61036f235259933529c752cd,2021-07-29_20h18.00.086,Simcolourproject_2stim_asymm_v5,2020.2.10,MacIntel,60,61025ae37ef11b136ea224fe,,,,,,,,,2335,64,29,1,0,0,response1disk,,6,11,3,1,0,0,rectangle,11,3,1,0,0,11,3,1,0,0,0,143,143,149,1,,,,,,,,
,,,,,,,,,,,,,FF,,,,,,,,0.982,,,,,,,,,,,,,,,,,,,,,,60fd8ea378ec4f0fa9a043be,61036f235259933529c752cd,2021-07-29_20h18.00.086,Simcolourproject_2stim_asymm_v5,2020.2.10,MacIntel,60,61025ae37ef11b136ea224fe,,,,,,,,,3289,33,80,1,0,0,response1disk,,7,19,-1,1,0,0,rectangle,19,-1,1,0,0,19,-1,1,0,0,0,144,144,77,1,,,,,,,,
,,,,,,,,,,,,,FF,,,,,,,,0.85,,,,,,,,,,,,,,,,,,,,,,60fd8ea378ec4f0fa9a043be,61036f235259933529c752cd,2021-07-29_20h18.00.086,Simcolourproject_2stim_asymm_v5,2020.2.10,MacIntel,60,61025ae37ef11b136ea224fe,,,,,,,,,1854,36,71,1,0,0,response1disk,,7,24,10,1,0,0,rectangle,24,10,1,0,0,24,10,1,0,0,0,145,145,104,1,,,,,,,,
,,,,,,,,,,,,,FF,,,,,,,,0.982,,,,,,,,,,,,,,,,,,,,,,60fd8ea378ec4f0fa9a043be,61036f235259933529c752cd,2021-07-29_20h18.00.086,Simcolourproject_2stim_asymm_v5,2020.2.10,MacIntel,60,61025ae37ef11b136ea224fe,,,,,,,,,3409,101,-23,1,0,0,response3disk,,5,13,-8,1,0,0,rectangle,13,-8,1,0,0,13,-8,1,0,0,0,146,146,111,1,,,,,,,,
,,,,,,,,,,,,,FF,,,,,,,,1.133,,,,,,,,,,,,,,,,,,,,,,60fd8ea378ec4f0fa9a043be,61036f235259933529c752cd,2021-07-29_20h18.00.086,Simcolourproject_2stim_asymm_v5,2020.2.10,MacIntel,60,61025ae37ef11b136ea224fe,,,,,,,,,3929,87,19,1,0,0,response1disk,,6,4,-2,1,0,0,rectangle,4,-2,1,0,0,4,-2,1,0,0,0,147,147,112,1,,,,,,,,
,,,,,,,,,,,,,FF,,,,,,,,1.331,,,,,,,,,,,,,,,,,,,,,,60fd8ea378ec4f0fa9a043be,61036f235259933529c752cd,2021-07-29_20h18.00.086,Simcolourproject_2stim_asymm_v5,2020.2.10,MacIntel,60,61025ae37ef11b136ea224fe,,,,,,,,,199,-28,-71,1,0,0,response5disk,,3,3,-9,1,0,0,rectangle,3,-9,1,0,0,3,-9,1,0,0,0,148,148,19,1,,,,,,,,
,,,,,,,,,,,,,FF,,,,,,,,1.267,,,,,,,,,,,,,,,,,,,,,,60fd8ea378ec4f0fa9a043be,61036f235259933529c752cd,2021-07-29_20h18.00.086,Simcolourproject_2stim_asymm_v5,2020.2.10,MacIntel,60,61025ae37ef11b136ea224fe,,,,,,,,,1186,35,-102,1,0,0,response3disk,,4,15,-2,1,0,0,rectangle,15,-2,1,0,0,15,-2,1,0,0,0,149,149,139,1,,,,,,,,
,,,,,,,,,,,,,FF,,,,,,,,0.984,,,,,,,,,,,,,,,,,,,,,,60fd8ea378ec4f0fa9a043be,61036f235259933529c752cd,2021-07-29_20h18.00.086,Simcolourproject_2stim_asymm_v5,2020.2.10,MacIntel,60,61025ae37ef11b136ea224fe,,,,,,,,,3515,-39,-81,1,0,0,response5disk,,3,-5,1,1,0,0,rectangle,-5,1,1,0,0,-5,1,1,0,0,0,150,150,36,1,,,,,,,,
,,,,,,,,,,,,,FF,,,,,,,,1.299,,,,,,,,,,,,,,,,,,,,,,60fd8ea378ec4f0fa9a043be,61036f235259933529c752cd,2021-07-29_20h18.00.086,Simcolourproject_2stim_asymm_v5,2020.2.10,MacIntel,60,61025ae37ef11b136ea224fe,,,,,,,,,72,-94,-39,1,0,0,response5disk,,2,2,3,1,0,0,rectangle,2,3,1,0,0,2,3,1,0,0,0,151,151,2,1,,,,,,,,
,,,,,,,,,,,,,FF,,,,,,,,0.799,,,,,,,,,,,,,,,,,,,,,,60fd8ea378ec4f0fa9a043be,61036f235259933529c752cd,2021-07-29_20h18.00.086,Simcolourproject_2stim_asymm_v5,2020.2.10,MacIntel,60,61025ae37ef11b136ea224fe,,,,,,,,,3008,67,32,1,0,0,response1disk,,6,17,5,1,0,0,rectangle,17,5,1,0,0,17,5,1,0,0,0,152,152,94,1,,,,,,,,
,,,,,,,,,,,,,FF,,,,,,,,1.084,,,,,,,,,,,,,,,,,,,,,,60fd8ea378ec4f0fa9a043be,61036f235259933529c752cd,2021-07-29_20h18.00.086,Simcolourproject_2stim_asymm_v5,2020.2.10,MacIntel,60,61025ae37ef11b136ea224fe,,,,,,,,,3506,-83,-46,1,0,0,response5disk,,2,3,11,1,0,0,rectangle,3,11,1,0,0,3,11,1,0,0,0,153,153,44,1,,,,,,,,
,,,,,,,,,,,,,FF,,,,,,,,1.051,,,,,,,,,,,,,,,,,,,,,,60fd8ea378ec4f0fa9a043be,61036f235259933529c752cd,2021-07-29_20h18.00.086,Simcolourproject_2stim_asymm_v5,2020.2.10,MacIntel,60,61025ae37ef11b136ea224fe,,,,,,,,,2566,81,24,1,0,0,response1disk,,6,13,-2,1,0,0,rectangle,13,-2,1,0,0,13,-2,1,0,0,0,154,154,28,1,,,,,,,,
,,,,,,,,,,,,,FF,,,,,,,,1.051,,,,,,,,,,,,,,,,,,,,,,60fd8ea378ec4f0fa9a043be,61036f235259933529c752cd,2021-07-29_20h18.00.086,Simcolourproject_2stim_asymm_v5,2020.2.10,MacIntel,60,61025ae37ef11b136ea224fe,,,,,,,,,4044,-36,-61,1,0,0,response5disk,,3,15,3,1,0,0,rectangle,15,3,1,0,0,15,3,1,0,0,0,155,155,128,1,,,,,,,,
,,,,,,,,,,,,,FF,,,,,,,,0.849,,,,,,,,,,,,,,,,,,,,,,60fd8ea378ec4f0fa9a043be,61036f235259933529c752cd,2021-07-29_20h18.00.086,Simcolourproject_2stim_asymm_v5,2020.2.10,MacIntel,60,61025ae37ef11b136ea224fe,,,,,,,,,4073,28,-73,1,0,0,response3disk,,4,25,-17,1,0,0,rectangle,25,-17,1,0,0,25,-17,1,0,0,0,156,156,117,1,,,,,,,,
,,,,,,,,,,,,,FF,,,,,,,,0.951,,,,,,,,,,,,,,,,,,,,,,60fd8ea378ec4f0fa9a043be,61036f235259933529c752cd,2021-07-29_20h18.00.086,Simcolourproject_2stim_asymm_v5,2020.2.10,MacIntel,60,61025ae37ef11b136ea224fe,,,,,,,,,4190,30,-78,1,0,0,response3disk,,4,4,2,1,0,0,rectangle,4,2,1,0,0,4,2,1,0,0,0,157,157,107,1,,,,,,,,
,,,,,,,,,,,,,FF,,,,,,,,0.851,,,,,,,,,,,,,,,,,,,,,,60fd8ea378ec4f0fa9a043be,61036f235259933529c752cd,2021-07-29_20h18.00.086,Simcolourproject_2stim_asymm_v5,2020.2.10,MacIntel,60,61025ae37ef11b136ea224fe,,,,,,,,,2109,76,39,1,0,0,response1disk,,6,-2,3,1,0,0,rectangle,-49,103,1,0,0,1,-10,1,0,0,0,158,158,154,1,,response7disk_3,TRUE,0,0,"[11,18,309,242,159,173,51,36,302,132,243,273,118,178,121,289,120,274,32,40]",1.716,rectangle
,,,,,,,,,,,,,FF,,,,,,,,2.35,,,,,,,,,,,,,,,,,,,,,,60fd8ea378ec4f0fa9a043be,61036f235259933529c752cd,2021-07-29_20h18.00.086,Simcolourproject_2stim_asymm_v5,2020.2.10,MacIntel,60,61025ae37ef11b136ea224fe,,,,,,,,,234,69,-32,1,0,0,response3disk,,5,15,-3,1,0,0,rectangle,15,-3,1,0,0,15,-3,1,0,0,0,159,159,73,1,,,,,,,,
,,,,,,,,,,,,,FF,,,,,,,,0.883,,,,,,,,,,,,,,,,,,,,,,60fd8ea378ec4f0fa9a043be,61036f235259933529c752cd,2021-07-29_20h18.00.086,Simcolourproject_2stim_asymm_v5,2020.2.10,MacIntel,60,61025ae37ef11b136ea224fe,,,,,,,,,2525,102,47,1,0,0,response1disk,,6,9,7,1,0,0,rectangle,9,7,1,0,0,9,7,1,0,0,1,0,160,63,1,,,,,,,,
,,,,,,,,,,,,,FF,,,,,,,,1,,,,,,,,,,,,,,,,,,,,,,60fd8ea378ec4f0fa9a043be,61036f235259933529c752cd,2021-07-29_20h18.00.086,Simcolourproject_2stim_asymm_v5,2020.2.10,MacIntel,60,61025ae37ef11b136ea224fe,,,,,,,,,604,78,35,1,0,0,response1disk,,6,6,15,1,0,0,rectangle,6,15,1,0,0,6,15,1,0,0,1,1,161,60,1,,,,,,,,
,,,,,,,,,,,,,FF,,,,,,,,1.1,,,,,,,,,,,,,,,,,,,,,,60fd8ea378ec4f0fa9a043be,61036f235259933529c752cd,2021-07-29_20h18.00.086,Simcolourproject_2stim_asymm_v5,2020.2.10,MacIntel,60,61025ae37ef11b136ea224fe,,,,,,,,,1896,-50,-80,1,0,0,response5disk,,3,-3,5,1,0,0,rectangle,-3,5,1,0,0,-3,5,1,0,0,1,2,162,29,1,,,,,,,,
,,,,,,,,,,,,,FF,,,,,,,,1.268,,,,,,,,,,,,,,,,,,,,,,60fd8ea378ec4f0fa9a043be,61036f235259933529c752cd,2021-07-29_20h18.00.086,Simcolourproject_2stim_asymm_v5,2020.2.10,MacIntel,60,61025ae37ef11b136ea224fe,,,,,,,,,450,25,-80,1,0,0,response3disk,,4,5,-11,1,0,0,rectangle,5,-11,1,0,0,5,-11,1,0,0,1,3,163,100,1,,,,,,,,
,,,,,,,,,,,,,FF,,,,,,,,1.1,,,,,,,,,,,,,,,,,,,,,,60fd8ea378ec4f0fa9a043be,61036f235259933529c752cd,2021-07-29_20h18.00.086,Simcolourproject_2stim_asymm_v5,2020.2.10,MacIntel,60,61025ae37ef11b136ea224fe,,,,,,,,,1323,60,-41,1,0,0,response3disk,,5,17,-17,1,0,0,rectangle,17,-17,1,0,0,17,-17,1,0,0,1,4,164,53,1,,,,,,,,
,,,,,,,,,,,,,FF,,,,,,,,1.065,,,,,,,,,,,,,,,,,,,,,,60fd8ea378ec4f0fa9a043be,61036f235259933529c752cd,2021-07-29_20h18.00.086,Simcolourproject_2stim_asymm_v5,2020.2.10,MacIntel,60,61025ae37ef11b136ea224fe,,,,,,,,,1297,-52,-92,1,0,0,response5disk,,3,-17,-6,1,0,0,rectangle,-17,-6,1,0,0,-17,-6,1,0,0,1,5,165,152,1,,,,,,,,
,,,,,,,,,,,,,FF,,,,,,,,1.334,,,,,,,,,,,,,,,,,,,,,,60fd8ea378ec4f0fa9a043be,61036f235259933529c752cd,2021-07-29_20h18.00.086,Simcolourproject_2stim_asymm_v5,2020.2.10,MacIntel,60,61025ae37ef11b136ea224fe,,,,,,,,,929,44,80,1,0,0,response1disk,,7,31,-2,1,0,0,rectangle,31,-2,1,0,0,31,-2,1,0,0,1,6,166,89,1,,,,,,,,
,,,,,,,,,,,,,FF,,,,,,,,0.983,,,,,,,,,,,,,,,,,,,,,,60fd8ea378ec4f0fa9a043be,61036f235259933529c752cd,2021-07-29_20h18.00.086,Simcolourproject_2stim_asymm_v5,2020.2.10,MacIntel,60,61025ae37ef11b136ea224fe,,,,,,,,,3161,26,-62,1,0,0,response3disk,,4,14,-7,1,0,0,rectangle,14,-7,1,0,0,14,-7,1,0,0,1,7,167,0,1,,,,,,,,
,,,,,,,,,,,,,FF,,,,,,,,1.167,,,,,,,,,,,,,,,,,,,,,,60fd8ea378ec4f0fa9a043be,61036f235259933529c752cd,2021-07-29_20h18.00.086,Simcolourproject_2stim_asymm_v5,2020.2.10,MacIntel,60,61025ae37ef11b136ea224fe,,,,,,,,,1976,54,34,1,0,0,response1disk,,6,21,-1,1,0,0,rectangle,21,-1,1,0,0,21,-1,1,0,0,1,8,168,135,1,,,,,,,,
,,,,,,,,,,,,,FF,,,,,,,,1.117,,,,,,,,,,,,,,,,,,,,,,60fd8ea378ec4f0fa9a043be,61036f235259933529c752cd,2021-07-29_20h18.00.086,Simcolourproject_2stim_asymm_v5,2020.2.10,MacIntel,60,61025ae37ef11b136ea224fe,,,,,,,,,65,-108,-49,1,0,0,response5disk,,2,-11,-10,1,0,0,rectangle,-11,-10,1,0,0,-11,-10,1,0,0,1,9,169,15,1,,,,,,,,
,,,,,,,,,,,,,FF,,,,,,,,1.134,,,,,,,,,,,,,,,,,,,,,,60fd8ea378ec4f0fa9a043be,61036f235259933529c752cd,2021-07-29_20h18.00.086,Simcolourproject_2stim_asymm_v5,2020.2.10,MacIntel,60,61025ae37ef11b136ea224fe,,,,,,,,,2168,60,-35,1,0,0,response3disk,,5,13,-11,1,0,0,rectangle,13,-11,1,0,0,13,-11,1,0,0,1,10,170,105,1,,,,,,,,
,,,,,,,,,,,,,FF,,,,,,,,0.883,,,,,,,,,,,,,,,,,,,,,,60fd8ea378ec4f0fa9a043be,61036f235259933529c752cd,2021-07-29_20h18.00.086,Simcolourproject_2stim_asymm_v5,2020.2.10,MacIntel,60,61025ae37ef11b136ea224fe,,,,,,,,,3849,-39,-77,1,0,0,response5disk,,3,4,10,1,0,0,rectangle,4,10,1,0,0,4,10,1,0,0,1,11,171,3,1,,,,,,,,
,,,,,,,,,,,,,FF,,,,,,,,1.183,,,,,,,,,,,,,,,,,,,,,,60fd8ea378ec4f0fa9a043be,61036f235259933529c752cd,2021-07-29_20h18.00.086,Simcolourproject_2stim_asymm_v5,2020.2.10,MacIntel,60,61025ae37ef11b136ea224fe,,,,,,,,,492,73,48,1,0,0,response1disk,,6,0,-6,1,0,0,rectangle,-47,90,1,0,0,-10,5,1,0,0,1,12,172,66,1,,response7disk_3,TRUE,0,0,"[11,18,309,242,159,173,51,36,302,132,243,273,118,178,121,289,120,274,32,40]",1.566,rectangle
,,,,,,,,,,,,,FF,,,,,,,,0.899,,,,,,,,,,,,,,,,,,,,,,60fd8ea378ec4f0fa9a043be,61036f235259933529c752cd,2021-07-29_20h18.00.086,Simcolourproject_2stim_asymm_v5,2020.2.10,MacIntel,60,61025ae37ef11b136ea224fe,,,,,,,,,1332,68,40,1,0,0,response1disk,,6,-7,-3,1,0,0,rectangle,-7,-3,1,0,0,-7,-3,1,0,0,1,13,173,139,1,,,,,,,,
,,,,,,,,,,,,,FF,,,,,,,,1.5,,,,,,,,,,,,,,,,,,,,,,60fd8ea378ec4f0fa9a043be,61036f235259933529c752cd,2021-07-29_20h18.00.086,Simcolourproject_2stim_asymm_v5,2020.2.10,MacIntel,60,61025ae37ef11b136ea224fe,,,,,,,,,417,42,-59,1,0,0,response3disk,,4,22,-5,1,0,0,rectangle,22,-5,1,0,0,22,-5,1,0,0,1,14,174,142,1,,,,,,,,
,,,,,,,,,,,,,FF,,,,,,,,0.751,,,,,,,,,,,,,,,,,,,,,,60fd8ea378ec4f0fa9a043be,61036f235259933529c752cd,2021-07-29_20h18.00.086,Simcolourproject_2stim_asymm_v5,2020.2.10,MacIntel,60,61025ae37ef11b136ea224fe,,,,,,,,,2585,87,52,1,0,0,response1disk,,6,10,6,1,0,0,rectangle,10,6,1,0,0,10,6,1,0,0,1,15,175,108,1,,,,,,,,
,,,,,,,,,,,,,FF,,,,,,,,0.866,,,,,,,,,,,,,,,,,,,,,,60fd8ea378ec4f0fa9a043be,61036f235259933529c752cd,2021-07-29_20h18.00.086,Simcolourproject_2stim_asymm_v5,2020.2.10,MacIntel,60,61025ae37ef11b136ea224fe,,,,,,,,,2307,68,-37,1,0,0,response3disk,,5,18,-7,1,0,0,rectangle,18,-7,1,0,0,18,-7,1,0,0,1,16,176,43,1,,,,,,,,
,,,,,,,,,,,,,FF,,,,,,,,1.516,,,,,,,,,,,,,,,,,,,,,,60fd8ea378ec4f0fa9a043be,61036f235259933529c752cd,2021-07-29_20h18.00.086,Simcolourproject_2stim_asymm_v5,2020.2.10,MacIntel,60,61025ae37ef11b136ea224fe,,,,,,,,,628,112,46,1,0,0,response1disk,,6,2,-2,1,0,0,rectangle,-92,44,1,0,0,-7,1,1,0,0,1,17,177,112,1,,response7disk_3,TRUE,1,1,"[11,18,309,242,159,173,51,36,302,132,243,273,118,178,121,289,120,274,32,40]",1.233,rectangle
,,,,,,,,,,,,,FF,,,,,,,,1.332,,,,,,,,,,,,,,,,,,,,,,60fd8ea378ec4f0fa9a043be,61036f235259933529c752cd,2021-07-29_20h18.00.086,Simcolourproject_2stim_asymm_v5,2020.2.10,MacIntel,60,61025ae37ef11b136ea224fe,,,,,,,,,611,27,-54,1,0,0,response3disk,,4,-10,14,1,0,0,rectangle,-10,14,1,0,0,-10,14,1,0,0,1,18,178,85,1,,,,,,,,
,,,,,,,,,,,,,FF,,,,,,,,0.833,,,,,,,,,,,,,,,,,,,,,,60fd8ea378ec4f0fa9a043be,61036f235259933529c752cd,2021-07-29_20h18.00.086,Simcolourproject_2stim_asymm_v5,2020.2.10,MacIntel,60,61025ae37ef11b136ea224fe,,,,,,,,,235,-42,-74,1,0,0,response5disk,,3,-6,-2,1,0,0,rectangle,-6,-2,1,0,0,-6,-2,1,0,0,1,19,179,74,1,,,,,,,,
,,,,,,,,,,,,,FF,,,,,,,,0.885,,,,,,,,,,,,,,,,,,,,,,60fd8ea378ec4f0fa9a043be,61036f235259933529c752cd,2021-07-29_20h18.00.086,Simcolourproject_2stim_asymm_v5,2020.2.10,MacIntel,60,61025ae37ef11b136ea224fe,,,,,,,,,258,-100,-56,1,0,0,response5disk,,2,5,-7,1,0,0,rectangle,5,-7,1,0,0,5,-7,1,0,0,1,20,180,118,1,,,,,,,,
,,,,,,,,,,,,,FF,,,,,,,,1.783,,,,,,,,,,,,,,,,,,,,,,60fd8ea378ec4f0fa9a043be,61036f235259933529c752cd,2021-07-29_20h18.00.086,Simcolourproject_2stim_asymm_v5,2020.2.10,MacIntel,60,61025ae37ef11b136ea224fe,,,,,,,,,518,-32,-89,1,0,0,response5disk,,3,-6,1,1,0,0,rectangle,-6,1,1,0,0,-6,1,1,0,0,1,21,181,69,1,,,,,,,,
,,,,,,,,,,,,,FF,,,,,,,,1.017,,,,,,,,,,,,,,,,,,,,,,60fd8ea378ec4f0fa9a043be,61036f235259933529c752cd,2021-07-29_20h18.00.086,Simcolourproject_2stim_asymm_v5,2020.2.10,MacIntel,60,61025ae37ef11b136ea224fe,,,,,,,,,949,-31,-52,1,0,0,response5disk,,3,-14,-10,1,0,0,rectangle,-14,-10,1,0,0,-14,-10,1,0,0,1,22,182,49,1,,,,,,,,
,,,,,,,,,,,,,FF,,,,,,,,1.701,,,,,,,,,,,,,,,,,,,,,,60fd8ea378ec4f0fa9a043be,61036f235259933529c752cd,2021-07-29_20h18.00.086,Simcolourproject_2stim_asymm_v5,2020.2.10,MacIntel,60,61025ae37ef11b136ea224fe,,,,,,,,,225,40,-75,1,0,0,response3disk,,4,8,0,1,0,0,rectangle,8,0,1,0,0,8,0,1,0,0,1,23,183,124,1,,,,,,,,
,,,,,,,,,,,,,FF,,,,,,,,1,,,,,,,,,,,,,,,,,,,,,,60fd8ea378ec4f0fa9a043be,61036f235259933529c752cd,2021-07-29_20h18.00.086,Simcolourproject_2stim_asymm_v5,2020.2.10,MacIntel,60,61025ae37ef11b136ea224fe,,,,,,,,,2266,34,-90,1,0,0,response3disk,,4,5,-13,1,0,0,rectangle,5,-13,1,0,0,5,-13,1,0,0,1,24,184,27,1,,,,,,,,
,,,,,,,,,,,,,FF,,,,,,,,0.933,,,,,,,,,,,,,,,,,,,,,,60fd8ea378ec4f0fa9a043be,61036f235259933529c752cd,2021-07-29_20h18.00.086,Simcolourproject_2stim_asymm_v5,2020.2.10,MacIntel,60,61025ae37ef11b136ea224fe,,,,,,,,,1061,-47,-87,1,0,0,response5disk,,3,-7,5,1,0,0,rectangle,-7,5,1,0,0,-7,5,1,0,0,1,25,185,111,1,,,,,,,,
,,,,,,,,,,,,,FF,,,,,,,,0.984,,,,,,,,,,,,,,,,,,,,,,60fd8ea378ec4f0fa9a043be,61036f235259933529c752cd,2021-07-29_20h18.00.086,Simcolourproject_2stim_asymm_v5,2020.2.10,MacIntel,60,61025ae37ef11b136ea224fe,,,,,,,,,3823,97,46,1,0,0,response1disk,,6,15,3,1,0,0,rectangle,15,3,1,0,0,15,3,1,0,0,1,26,186,73,1,,,,,,,,
,,,,,,,,,,,,,FF,,,,,,,,0.933,,,,,,,,,,,,,,,,,,,,,,60fd8ea378ec4f0fa9a043be,61036f235259933529c752cd,2021-07-29_20h18.00.086,Simcolourproject_2stim_asymm_v5,2020.2.10,MacIntel,60,61025ae37ef11b136ea224fe,,,,,,,,,889,-42,-88,1,0,0,response5disk,,3,-8,0,1,0,0,rectangle,-8,0,1,0,0,-8,0,1,0,0,1,27,187,133,1,,,,,,,,
,,,,,,,,,,,,,FF,,,,,,,,0.867,,,,,,,,,,,,,,,,,,,,,,60fd8ea378ec4f0fa9a043be,61036f235259933529c752cd,2021-07-29_20h18.00.086,Simcolourproject_2stim_asymm_v5,2020.2.10,MacIntel,60,61025ae37ef11b136ea224fe,,,,,,,,,2182,45,85,1,0,0,response1disk,,7,22,-5,1,0,0,rectangle,22,-5,1,0,0,22,-5,1,0,0,1,28,188,39,1,,,,,,,,
,,,,,,,,,,,,,FF,,,,,,,,0.999,,,,,,,,,,,,,,,,,,,,,,60fd8ea378ec4f0fa9a043be,61036f235259933529c752cd,2021-07-29_20h18.00.086,Simcolourproject_2stim_asymm_v5,2020.2.10,MacIntel,60,61025ae37ef11b136ea224fe,,,,,,,,,615,39,-81,1,0,0,response3disk,,4,-5,-6,1,0,0,rectangle,-5,-6,1,0,0,-5,-6,1,0,0,1,29,189,82,1,,,,,,,,
,,,,,,,,,,,,,FF,,,,,,,,0.849,,,,,,,,,,,,,,,,,,,,,,60fd8ea378ec4f0fa9a043be,61036f235259933529c752cd,2021-07-29_20h18.00.086,Simcolourproject_2stim_asymm_v5,2020.2.10,MacIntel,60,61025ae37ef11b136ea224fe,,,,,,,,,1450,-56,-72,1,0,0,response5disk,,3,-11,-12,1,0,0,rectangle,-11,-12,1,0,0,-11,-12,1,0,0,1,30,190,6,1,,,,,,,,
,,,,,,,,,,,,,FF,,,,,,,,1.034,,,,,,,,,,,,,,,,,,,,,,60fd8ea378ec4f0fa9a043be,61036f235259933529c752cd,2021-07-29_20h18.00.086,Simcolourproject_2stim_asymm_v5,2020.2.10,MacIntel,60,61025ae37ef11b136ea224fe,,,,,,,,,2445,101,-39,1,0,0,response3disk,,5,11,-6,1,0,0,rectangle,11,-6,1,0,0,11,-6,1,0,0,1,31,191,130,1,,,,,,,,
,,,,,,,,,,,,,FF,,,,,,,,0.886,,,,,,,,,,,,,,,,,,,,,,60fd8ea378ec4f0fa9a043be,61036f235259933529c752cd,2021-07-29_20h18.00.086,Simcolourproject_2stim_asymm_v5,2020.2.10,MacIntel,60,61025ae37ef11b136ea224fe,,,,,,,,,1520,74,-28,1,0,0,response3disk,,5,5,-2,1,0,0,rectangle,5,-2,1,0,0,5,-2,1,0,0,1,32,192,120,1,,,,,,,,
,,,,,,,,,,,,,FF,,,,,,,,1.1,,,,,,,,,,,,,,,,,,,,,,60fd8ea378ec4f0fa9a043be,61036f235259933529c752cd,2021-07-29_20h18.00.086,Simcolourproject_2stim_asymm_v5,2020.2.10,MacIntel,60,61025ae37ef11b136ea224fe,,,,,,,,,1903,45,-89,1,0,0,response3disk,,4,20,-9,1,0,0,rectangle,20,-9,1,0,0,20,-9,1,0,0,1,33,193,116,1,,,,,,,,
,,,,,,,,,,,,,FF,,,,,,,,1.667,,,,,,,,,,,,,,,,,,,,,,60fd8ea378ec4f0fa9a043be,61036f235259933529c752cd,2021-07-29_20h18.00.086,Simcolourproject_2stim_asymm_v5,2020.2.10,MacIntel,60,61025ae37ef11b136ea224fe,,,,,,,,,2679,89,54,1,0,0,response1disk,,6,28,10,1,0,0,rectangle,28,10,1,0,0,28,10,1,0,0,1,34,194,127,1,,,,,,,,
,,,,,,,,,,,,,FF,,,,,,,,0.95,,,,,,,,,,,,,,,,,,,,,,60fd8ea378ec4f0fa9a043be,61036f235259933529c752cd,2021-07-29_20h18.00.086,Simcolourproject_2stim_asymm_v5,2020.2.10,MacIntel,60,61025ae37ef11b136ea224fe,,,,,,,,,4111,32,87,1,0,0,response1disk,,7,28,-16,1,0,0,rectangle,28,-16,1,0,0,28,-16,1,0,0,1,35,195,95,1,,,,,,,,
,,,,,,,,,,,,,FF,,,,,,,,1.049,,,,,,,,,,,,,,,,,,,,,,60fd8ea378ec4f0fa9a043be,61036f235259933529c752cd,2021-07-29_20h18.00.086,Simcolourproject_2stim_asymm_v5,2020.2.10,MacIntel,60,61025ae37ef11b136ea224fe,,,,,,,,,1963,-85,44,1,0,0,response7disk,,1,-12,4,1,0,0,rectangle,-12,4,1,0,0,-12,4,1,0,0,1,36,196,25,1,,,,,,,,
,,,,,,,,,,,,,FF,,,,,,,,2.167,,,,,,,,,,,,,,,,,,,,,,60fd8ea378ec4f0fa9a043be,61036f235259933529c752cd,2021-07-29_20h18.00.086,Simcolourproject_2stim_asymm_v5,2020.2.10,MacIntel,60,61025ae37ef11b136ea224fe,,,,,,,,,2079,54,-31,1,0,0,response3disk,,5,12,-2,1,0,0,rectangle,12,-2,1,0,0,12,-2,1,0,0,1,37,197,81,1,,,,,,,,
,,,,,,,,,,,,,FF,,,,,,,,1.15,,,,,,,,,,,,,,,,,,,,,,60fd8ea378ec4f0fa9a043be,61036f235259933529c752cd,2021-07-29_20h18.00.086,Simcolourproject_2stim_asymm_v5,2020.2.10,MacIntel,60,61025ae37ef11b136ea224fe,,,,,,,,,3000,-56,95,1,0,0,response7disk,,0,-1,3,1,0,0,rectangle,-1,3,1,0,0,-1,3,1,0,0,1,38,198,128,1,,,,,,,,
,,,,,,,,,,,,,FF,,,,,,,,2.266,,,,,,,,,,,,,,,,,,,,,,60fd8ea378ec4f0fa9a043be,61036f235259933529c752cd,2021-07-29_20h18.00.086,Simcolourproject_2stim_asymm_v5,2020.2.10,MacIntel,60,61025ae37ef11b136ea224fe,,,,,,,,,3715,65,31,1,0,0,response1disk,,6,3,4,1,0,0,rectangle,3,4,1,0,0,3,4,1,0,0,1,39,199,40,1,,,,,,,,
,,,,,,,,,,,,,FF,,,,,,,,0.801,,,,,,,,,,,,,,,,,,,,,,60fd8ea378ec4f0fa9a043be,61036f235259933529c752cd,2021-07-29_20h18.00.086,Simcolourproject_2stim_asymm_v5,2020.2.10,MacIntel,60,61025ae37ef11b136ea224fe,,,,,,,,,3928,58,86,1,0,0,response1disk,,7,19,0,1,0,0,rectangle,19,0,1,0,0,19,0,1,0,0,1,40,200,99,1,,,,,,,,
,,,,,,,,,,,,,FF,,,,,,,,1.067,,,,,,,,,,,,,,,,,,,,,,60fd8ea378ec4f0fa9a043be,61036f235259933529c752cd,2021-07-29_20h18.00.086,Simcolourproject_2stim_asymm_v5,2020.2.10,MacIntel,60,61025ae37ef11b136ea224fe,,,,,,,,,1466,70,-36,1,0,0,response3disk,,5,-3,-11,1,0,0,rectangle,-3,-11,1,0,0,-3,-11,1,0,0,1,41,201,11,1,,,,,,,,
,,,,,,,,,,,,,FF,,,,,,,,0.834,,,,,,,,,,,,,,,,,,,,,,60fd8ea378ec4f0fa9a043be,61036f235259933529c752cd,2021-07-29_20h18.00.086,Simcolourproject_2stim_asymm_v5,2020.2.10,MacIntel,60,61025ae37ef11b136ea224fe,,,,,,,,,61,101,57,1,0,0,response1disk,,6,16,11,1,0,0,rectangle,16,11,1,0,0,16,11,1,0,0,1,42,202,117,1,,,,,,,,
,,,,,,,,,,,,,FF,,,,,,,,0.816,,,,,,,,,,,,,,,,,,,,,,60fd8ea378ec4f0fa9a043be,61036f235259933529c752cd,2021-07-29_20h18.00.086,Simcolourproject_2stim_asymm_v5,2020.2.10,MacIntel,60,61025ae37ef11b136ea224fe,,,,,,,,,3819,37,83,1,0,0,response1disk,,7,25,5,1,0,0,rectangle,25,5,1,0,0,25,5,1,0,0,1,43,203,24,1,,,,,,,,
,,,,,,,,,,,,,FF,,,,,,,,1.067,,,,,,,,,,,,,,,,,,,,,,60fd8ea378ec4f0fa9a043be,61036f235259933529c752cd,2021-07-29_20h18.00.086,Simcolourproject_2stim_asymm_v5,2020.2.10,MacIntel,60,61025ae37ef11b136ea224fe,,,,,,,,,1193,72,-41,1,0,0,response3disk,,5,-4,2,1,0,0,rectangle,-4,2,1,0,0,-4,2,1,0,0,1,44,204,5,1,,,,,,,,
,,,,,,,,,,,,,FF,,,,,,,,1.166,,,,,,,,,,,,,,,,,,,,,,60fd8ea378ec4f0fa9a043be,61036f235259933529c752cd,2021-07-29_20h18.00.086,Simcolourproject_2stim_asymm_v5,2020.2.10,MacIntel,60,61025ae37ef11b136ea224fe,,,,,,,,,3361,26,92,1,0,0,response1disk,,7,17,4,1,0,0,rectangle,17,4,1,0,0,17,4,1,0,0,1,45,205,26,1,,,,,,,,
,,,,,,,,,,,,,FF,,,,,,,,1.099,,,,,,,,,,,,,,,,,,,,,,60fd8ea378ec4f0fa9a043be,61036f235259933529c752cd,2021-07-29_20h18.00.086,Simcolourproject_2stim_asymm_v5,2020.2.10,MacIntel,60,61025ae37ef11b136ea224fe,,,,,,,,,2596,59,48,1,0,0,response1disk,,6,9,-6,1,0,0,rectangle,9,-6,1,0,0,9,-6,1,0,0,1,46,206,94,1,,,,,,,,
,,,,,,,,,,,,,FF,,,,,,,,0.749,,,,,,,,,,,,,,,,,,,,,,60fd8ea378ec4f0fa9a043be,61036f235259933529c752cd,2021-07-29_20h18.00.086,Simcolourproject_2stim_asymm_v5,2020.2.10,MacIntel,60,61025ae37ef11b136ea224fe,,,,,,,,,2153,35,70,1,0,0,response1disk,,7,21,5,1,0,0,rectangle,21,5,1,0,0,21,5,1,0,0,1,47,207,121,1,,,,,,,,
,,,,,,,,,,,,,FF,,,,,,,,1.133,,,,,,,,,,,,,,,,,,,,,,60fd8ea378ec4f0fa9a043be,61036f235259933529c752cd,2021-07-29_20h18.00.086,Simcolourproject_2stim_asymm_v5,2020.2.10,MacIntel,60,61025ae37ef11b136ea224fe,,,,,,,,,18,87,38,1,0,0,response1disk,,6,1,6,1,0,0,rectangle,1,6,1,0,0,1,6,1,0,0,1,48,208,68,1,,,,,,,,
,,,,,,,,,,,,,FF,,,,,,,,0.933,,,,,,,,,,,,,,,,,,,,,,60fd8ea378ec4f0fa9a043be,61036f235259933529c752cd,2021-07-29_20h18.00.086,Simcolourproject_2stim_asymm_v5,2020.2.10,MacIntel,60,61025ae37ef11b136ea224fe,,,,,,,,,56,68,-29,1,0,0,response3disk,,5,10,-14,1,0,0,rectangle,10,-14,1,0,0,10,-14,1,0,0,1,49,209,33,1,,,,,,,,
,,,,,,,,,,,,,FF,,,,,,,,0.9,,,,,,,,,,,,,,,,,,,,,,60fd8ea378ec4f0fa9a043be,61036f235259933529c752cd,2021-07-29_20h18.00.086,Simcolourproject_2stim_asymm_v5,2020.2.10,MacIntel,60,61025ae37ef11b136ea224fe,,,,,,,,,3402,67,-35,1,0,0,response3disk,,5,9,6,1,0,0,rectangle,9,6,1,0,0,9,6,1,0,0,1,50,210,48,1,,,,,,,,
,,,,,,,,,,,,,FF,,,,,,,,1.034,,,,,,,,,,,,,,,,,,,,,,60fd8ea378ec4f0fa9a043be,61036f235259933529c752cd,2021-07-29_20h18.00.086,Simcolourproject_2stim_asymm_v5,2020.2.10,MacIntel,60,61025ae37ef11b136ea224fe,,,,,,,,,3147,-84,-33,1,0,0,response5disk,,2,8,-5,1,0,0,rectangle,8,-5,1,0,0,8,-5,1,0,0,1,51,211,125,1,,,,,,,,
,,,,,,,,,,,,,FF,,,,,,,,1.117,,,,,,,,,,,,,,,,,,,,,,60fd8ea378ec4f0fa9a043be,61036f235259933529c752cd,2021-07-29_20h18.00.086,Simcolourproject_2stim_asymm_v5,2020.2.10,MacIntel,60,61025ae37ef11b136ea224fe,,,,,,,,,2387,42,78,1,0,0,response1disk,,7,6,6,1,0,0,rectangle,6,6,1,0,0,6,6,1,0,0,1,52,212,19,1,,,,,,,,
,,,,,,,,,,,,,FF,,,,,,,,1.216,,,,,,,,,,,,,,,,,,,,,,60fd8ea378ec4f0fa9a043be,61036f235259933529c752cd,2021-07-29_20h18.00.086,Simcolourproject_2stim_asymm_v5,2020.2.10,MacIntel,60,61025ae37ef11b136ea224fe,,,,,,,,,1944,42,-65,1,0,0,response3disk,,4,-3,6,1,0,0,rectangle,-3,6,1,0,0,-3,6,1,0,0,1,53,213,131,1,,,,,,,,
,,,,,,,,,,,,,FF,,,,,,,,1.466,,,,,,,,,,,,,,,,,,,,,,60fd8ea378ec4f0fa9a043be,61036f235259933529c752cd,2021-07-29_20h18.00.086,Simcolourproject_2stim_asymm_v5,2020.2.10,MacIntel,60,61025ae37ef11b136ea224fe,,,,,,,,,1957,-99,-42,1,0,0,response5disk,,2,13,-2,1,0,0,rectangle,13,-2,1,0,0,13,-2,1,0,0,1,54,214,115,1,,,,,,,,
,,,,,,,,,,,,,FF,,,,,,,,1.55,,,,,,,,,,,,,,,,,,,,,,60fd8ea378ec4f0fa9a043be,61036f235259933529c752cd,2021-07-29_20h18.00.086,Simcolourproject_2stim_asymm_v5,2020.2.10,MacIntel,60,61025ae37ef11b136ea224fe,,,,,,,,,521,-36,-76,1,0,0,response5disk,,3,-19,-9,1,0,0,rectangle,-19,-9,1,0,0,-19,-9,1,0,0,1,55,215,144,1,,,,,,,,
,,,,,,,,,,,,,FF,,,,,,,,0.834,,,,,,,,,,,,,,,,,,,,,,60fd8ea378ec4f0fa9a043be,61036f235259933529c752cd,2021-07-29_20h18.00.086,Simcolourproject_2stim_asymm_v5,2020.2.10,MacIntel,60,61025ae37ef11b136ea224fe,,,,,,,,,1129,84,43,1,0,0,response1disk,,6,33,15,1,0,0,rectangle,33,15,1,0,0,33,15,1,0,0,1,56,216,137,1,,,,,,,,
,,,,,,,,,,,,,FF,,,,,,,,1.15,,,,,,,,,,,,,,,,,,,,,,60fd8ea378ec4f0fa9a043be,61036f235259933529c752cd,2021-07-29_20h18.00.086,Simcolourproject_2stim_asymm_v5,2020.2.10,MacIntel,60,61025ae37ef11b136ea224fe,,,,,,,,,1847,61,-34,1,0,0,response3disk,,5,-1,2,1,0,0,rectangle,-1,2,1,0,0,-1,2,1,0,0,1,57,217,52,1,,,,,,,,
,,,,,,,,,,,,,FF,,,,,,,,0.767,,,,,,,,,,,,,,,,,,,,,,60fd8ea378ec4f0fa9a043be,61036f235259933529c752cd,2021-07-29_20h18.00.086,Simcolourproject_2stim_asymm_v5,2020.2.10,MacIntel,60,61025ae37ef11b136ea224fe,,,,,,,,,2440,30,75,1,0,0,response1disk,,7,9,-3,1,0,0,rectangle,9,-3,1,0,0,9,-3,1,0,0,1,58,218,146,1,,,,,,,,
,,,,,,,,,,,,,FF,,,,,,,,0.9,,,,,,,,,,,,,,,,,,,,,,60fd8ea378ec4f0fa9a043be,61036f235259933529c752cd,2021-07-29_20h18.00.086,Simcolourproject_2stim_asymm_v5,2020.2.10,MacIntel,60,61025ae37ef11b136ea224fe,,,,,,,,,893,-80,-51,1,0,0,response5disk,,2,-6,-3,1,0,0,rectangle,-6,-3,1,0,0,-6,-3,1,0,0,1,59,219,35,1,,,,,,,,
,,,,,,,,,,,,,FF,,,,,,,,1.033,,,,,,,,,,,,,,,,,,,,,,60fd8ea378ec4f0fa9a043be,61036f235259933529c752cd,2021-07-29_20h18.00.086,Simcolourproject_2stim_asymm_v5,2020.2.10,MacIntel,60,61025ae37ef11b136ea224fe,,,,,,,,,2652,-79,-35,1,0,0,response5disk,,2,11,-3,1,0,0,rectangle,11,-3,1,0,0,11,-3,1,0,0,1,60,220,132,1,,,,,,,,
,,,,,,,,,,,,,FF,,,,,,,,1.316,,,,,,,,,,,,,,,,,,,,,,60fd8ea378ec4f0fa9a043be,61036f235259933529c752cd,2021-07-29_20h18.00.086,Simcolourproject_2stim_asymm_v5,2020.2.10,MacIntel,60,61025ae37ef11b136ea224fe,,,,,,,,,2741,30,-74,1,0,0,response3disk,,4,15,-7,1,0,0,rectangle,15,-7,1,0,0,15,-7,1,0,0,1,61,221,156,1,,,,,,,,
,,,,,,,,,,,,,FF,,,,,,,,0.949,,,,,,,,,,,,,,,,,,,,,,60fd8ea378ec4f0fa9a043be,61036f235259933529c752cd,2021-07-29_20h18.00.086,Simcolourproject_2stim_asymm_v5,2020.2.10,MacIntel,60,61025ae37ef11b136ea224fe,,,,,,,,,2002,78,37,1,0,0,response1disk,,6,-6,-1,1,0,0,rectangle,-6,-1,1,0,0,-6,-1,1,0,0,1,62,222,149,1,,,,,,,,
,,,,,,,,,,,,,FF,,,,,,,,1.1,,,,,,,,,,,,,,,,,,,,,,60fd8ea378ec4f0fa9a043be,61036f235259933529c752cd,2021-07-29_20h18.00.086,Simcolourproject_2stim_asymm_v5,2020.2.10,MacIntel,60,61025ae37ef11b136ea224fe,,,,,,,,,4355,85,49,1,0,0,response1disk,,6,-2,8,1,0,0,rectangle,-2,8,1,0,0,-2,8,1,0,0,1,63,223,78,1,,,,,,,,
,,,,,,,,,,,,,FF,,,,,,,,1.082,,,,,,,,,,,,,,,,,,,,,,60fd8ea378ec4f0fa9a043be,61036f235259933529c752cd,2021-07-29_20h18.00.086,Simcolourproject_2stim_asymm_v5,2020.2.10,MacIntel,60,61025ae37ef11b136ea224fe,,,,,,,,,1735,-92,-30,1,0,0,response5disk,,2,9,-8,1,0,0,rectangle,9,-8,1,0,0,9,-8,1,0,0,1,64,224,2,1,,,,,,,,
,,,,,,,,,,,,,FF,,,,,,,,0.966,,,,,,,,,,,,,,,,,,,,,,60fd8ea378ec4f0fa9a043be,61036f235259933529c752cd,2021-07-29_20h18.00.086,Simcolourproject_2stim_asymm_v5,2020.2.10,MacIntel,60,61025ae37ef11b136ea224fe,,,,,,,,,1184,70,-33,1,0,0,response3disk,,5,2,-9,1,0,0,rectangle,2,-9,1,0,0,2,-9,1,0,0,1,65,225,101,1,,,,,,,,
,,,,,,,,,,,,,FF,,,,,,,,1.15,,,,,,,,,,,,,,,,,,,,,,60fd8ea378ec4f0fa9a043be,61036f235259933529c752cd,2021-07-29_20h18.00.086,Simcolourproject_2stim_asymm_v5,2020.2.10,MacIntel,60,61025ae37ef11b136ea224fe,,,,,,,,,2380,70,42,1,0,0,response1disk,,6,19,10,1,0,0,rectangle,19,10,1,0,0,19,10,1,0,0,1,66,226,83,1,,,,,,,,
,,,,,,,,,,,,,FF,,,,,,,,0.7,,,,,,,,,,,,,,,,,,,,,,60fd8ea378ec4f0fa9a043be,61036f235259933529c752cd,2021-07-29_20h18.00.086,Simcolourproject_2stim_asymm_v5,2020.2.10,MacIntel,60,61025ae37ef11b136ea224fe,,,,,,,,,3523,69,48,1,0,0,response1disk,,6,10,-3,1,0,0,rectangle,10,-3,1,0,0,10,-3,1,0,0,1,67,227,72,1,,,,,,,,
,,,,,,,,,,,,,FF,,,,,,,,0.95,,,,,,,,,,,,,,,,,,,,,,60fd8ea378ec4f0fa9a043be,61036f235259933529c752cd,2021-07-29_20h18.00.086,Simcolourproject_2stim_asymm_v5,2020.2.10,MacIntel,60,61025ae37ef11b136ea224fe,,,,,,,,,1828,36,-79,1,0,0,response3disk,,4,11,-14,1,0,0,rectangle,11,-14,1,0,0,11,-14,1,0,0,1,68,228,17,1,,,,,,,,
,,,,,,,,,,,,,FF,,,,,,,,0.85,,,,,,,,,,,,,,,,,,,,,,60fd8ea378ec4f0fa9a043be,61036f235259933529c752cd,2021-07-29_20h18.00.086,Simcolourproject_2stim_asymm_v5,2020.2.10,MacIntel,60,61025ae37ef11b136ea224fe,,,,,,,,,864,29,-60,1,0,0,response3disk,,4,13,-14,1,0,0,rectangle,13,-14,1,0,0,13,-14,1,0,0,1,69,229,151,1,,,,,,,,
,,,,,,,,,,,,,FF,,,,,,,,0.816,,,,,,,,,,,,,,,,,,,,,,60fd8ea378ec4f0fa9a043be,61036f235259933529c752cd,2021-07-29_20h18.00.086,Simcolourproject_2stim_asymm_v5,2020.2.10,MacIntel,60,61025ae37ef11b136ea224fe,,,,,,,,,1947,32,77,1,0,0,response1disk,,7,23,3,1,0,0,rectangle,23,3,1,0,0,23,3,1,0,0,1,70,230,154,1,,,,,,,,
,,,,,,,,,,,,,FF,,,,,,,,0.8,,,,,,,,,,,,,,,,,,,,,,60fd8ea378ec4f0fa9a043be,61036f235259933529c752cd,2021-07-29_20h18.00.086,Simcolourproject_2stim_asymm_v5,2020.2.10,MacIntel,60,61025ae37ef11b136ea224fe,,,,,,,,,4179,37,89,1,0,0,response1disk,,7,29,-2,1,0,0,rectangle,29,-2,1,0,0,29,-2,1,0,0,1,71,231,90,1,,,,,,,,
,,,,,,,,,,,,,FF,,,,,,,,0.833,,,,,,,,,,,,,,,,,,,,,,60fd8ea378ec4f0fa9a043be,61036f235259933529c752cd,2021-07-29_20h18.00.086,Simcolourproject_2stim_asymm_v5,2020.2.10,MacIntel,60,61025ae37ef11b136ea224fe,,,,,,,,,2234,-47,-73,1,0,0,response5disk,,3,-2,-3,1,0,0,rectangle,-2,-3,1,0,0,-2,-3,1,0,0,1,72,232,34,1,,,,,,,,
,,,,,,,,,,,,,FF,,,,,,,,0.801,,,,,,,,,,,,,,,,,,,,,,60fd8ea378ec4f0fa9a043be,61036f235259933529c752cd,2021-07-29_20h18.00.086,Simcolourproject_2stim_asymm_v5,2020.2.10,MacIntel,60,61025ae37ef11b136ea224fe,,,,,,,,,2200,32,71,1,0,0,response1disk,,7,14,4,1,0,0,rectangle,14,4,1,0,0,14,4,1,0,0,1,73,233,67,1,,,,,,,,
,,,,,,,,,,,,,FF,,,,,,,,1.066,,,,,,,,,,,,,,,,,,,,,,60fd8ea378ec4f0fa9a043be,61036f235259933529c752cd,2021-07-29_20h18.00.086,Simcolourproject_2stim_asymm_v5,2020.2.10,MacIntel,60,61025ae37ef11b136ea224fe,,,,,,,,,4168,-84,-40,1,0,0,response5disk,,2,6,-9,1,0,0,rectangle,6,-9,1,0,0,6,-9,1,0,0,1,74,234,87,1,,,,,,,,
,,,,,,,,,,,,,FF,,,,,,,,0.717,,,,,,,,,,,,,,,,,,,,,,60fd8ea378ec4f0fa9a043be,61036f235259933529c752cd,2021-07-29_20h18.00.086,Simcolourproject_2stim_asymm_v5,2020.2.10,MacIntel,60,61025ae37ef11b136ea224fe,,,,,,,,,2409,33,69,1,0,0,response1disk,,7,-1,5,1,0,0,rectangle,-1,5,1,0,0,-1,5,1,0,0,1,75,235,114,1,,,,,,,,
,,,,,,,,,,,,,FF,,,,,,,,0.734,,,,,,,,,,,,,,,,,,,,,,60fd8ea378ec4f0fa9a043be,61036f235259933529c752cd,2021-07-29_20h18.00.086,Simcolourproject_2stim_asymm_v5,2020.2.10,MacIntel,60,61025ae37ef11b136ea224fe,,,,,,,,,1848,22,77,1,0,0,response1disk,,7,22,3,1,0,0,rectangle,22,3,1,0,0,22,3,1,0,0,1,76,236,32,1,,,,,,,,
,,,,,,,,,,,,,FF,,,,,,,,1.082,,,,,,,,,,,,,,,,,,,,,,60fd8ea378ec4f0fa9a043be,61036f235259933529c752cd,2021-07-29_20h18.00.086,Simcolourproject_2stim_asymm_v5,2020.2.10,MacIntel,60,61025ae37ef11b136ea224fe,,,,,,,,,3746,76,-42,1,0,0,response3disk,,5,-3,-3,1,0,0,rectangle,-3,-3,1,0,0,-3,-3,1,0,0,1,77,237,148,1,,,,,,,,
,,,,,,,,,,,,,FF,,,,,,,,1.166,,,,,,,,,,,,,,,,,,,,,,60fd8ea378ec4f0fa9a043be,61036f235259933529c752cd,2021-07-29_20h18.00.086,Simcolourproject_2stim_asymm_v5,2020.2.10,MacIntel,60,61025ae37ef11b136ea224fe,,,,,,,,,4236,38,-53,1,0,0,response3disk,,4,19,-13,1,0,0,rectangle,19,-13,1,0,0,19,-13,1,0,0,1,78,238,97,1,,,,,,,,
,,,,,,,,,,,,,FF,,,,,,,,1.1,,,,,,,,,,,,,,,,,,,,,,60fd8ea378ec4f0fa9a043be,61036f235259933529c752cd,2021-07-29_20h18.00.086,Simcolourproject_2stim_asymm_v5,2020.2.10,MacIntel,60,61025ae37ef11b136ea224fe,,,,,,,,,3005,37,-74,1,0,0,response3disk,,4,23,-18,1,0,0,rectangle,23,-18,1,0,0,23,-18,1,0,0,1,79,239,13,1,,,,,,,,
,,,,,,,,,,,,,FF,,,,,,,,0.8,,,,,,,,,,,,,,,,,,,,,,60fd8ea378ec4f0fa9a043be,61036f235259933529c752cd,2021-07-29_20h18.00.086,Simcolourproject_2stim_asymm_v5,2020.2.10,MacIntel,60,61025ae37ef11b136ea224fe,,,,,,,,,1420,-45,-78,1,0,0,response5disk,,3,-18,10,1,0,0,rectangle,-18,10,1,0,0,-18,10,1,0,0,1,80,240,107,1,,,,,,,,
,,,,,,,,,,,,,FF,,,,,,,,1.316,,,,,,,,,,,,,,,,,,,,,,60fd8ea378ec4f0fa9a043be,61036f235259933529c752cd,2021-07-29_20h18.00.086,Simcolourproject_2stim_asymm_v5,2020.2.10,MacIntel,60,61025ae37ef11b136ea224fe,,,,,,,,,1366,35,-60,1,0,0,response3disk,,4,20,3,1,0,0,rectangle,36,-97,1,0,0,-8,-5,1,0,0,1,81,241,150,1,,response3disk_3,TRUE,4,4,"[11,18,309,242,159,173,51,36,302,132,243,273,118,178,121,289,120,274,32,40]",1.852,rectangle
,,,,,,,,,,,,,FF,,,,,,,,1.066,,,,,,,,,,,,,,,,,,,,,,60fd8ea378ec4f0fa9a043be,61036f235259933529c752cd,2021-07-29_20h18.00.086,Simcolourproject_2stim_asymm_v5,2020.2.10,MacIntel,60,61025ae37ef11b136ea224fe,,,,,,,,,2207,63,30,1,0,0,response1disk,,6,10,6,1,0,0,rectangle,40,109,1,0,0,-7,-5,1,0,0,1,82,242,65,1,,response1disk_3,TRUE,7,7,"[11,18,309,242,159,173,51,36,302,132,243,273,118,178,121,289,120,274,32,40]",1.883,rectangle
,,,,,,,,,,,,,FF,,,,,,,,0.934,,,,,,,,,,,,,,,,,,,,,,60fd8ea378ec4f0fa9a043be,61036f235259933529c752cd,2021-07-29_20h18.00.086,Simcolourproject_2stim_asymm_v5,2020.2.10,MacIntel,60,61025ae37ef11b136ea224fe,,,,,,,,,2483,33,87,1,0,0,response1disk,,7,5,-2,1,0,0,rectangle,5,-2,1,0,0,5,-2,1,0,0,1,83,243,119,1,,,,,,,,
,,,,,,,,,,,,,FF,,,,,,,,0.666,,,,,,,,,,,,,,,,,,,,,,60fd8ea378ec4f0fa9a043be,61036f235259933529c752cd,2021-07-29_20h18.00.086,Simcolourproject_2stim_asymm_v5,2020.2.10,MacIntel,60,61025ae37ef11b136ea224fe,,,,,,,,,2589,55,30,1,0,0,response1disk,,6,3,8,1,0,0,rectangle,3,8,1,0,0,3,8,1,0,0,1,84,244,9,1,,,,,,,,
,,,,,,,,,,,,,FF,,,,,,,,0.634,,,,,,,,,,,,,,,,,,,,,,60fd8ea378ec4f0fa9a043be,61036f235259933529c752cd,2021-07-29_20h18.00.086,Simcolourproject_2stim_asymm_v5,2020.2.10,MacIntel,60,61025ae37ef11b136ea224fe,,,,,,,,,1651,57,29,1,0,0,response1disk,,6,9,13,1,0,0,rectangle,9,13,1,0,0,9,13,1,0,0,1,85,245,140,1,,,,,,,,
,,,,,,,,,,,,,FF,,,,,,,,1.118,,,,,,,,,,,,,,,,,,,,,,60fd8ea378ec4f0fa9a043be,61036f235259933529c752cd,2021-07-29_20h18.00.086,Simcolourproject_2stim_asymm_v5,2020.2.10,MacIntel,60,61025ae37ef11b136ea224fe,,,,,,,,,28,65,37,1,0,0,response1disk,,6,4,5,1,0,0,rectangle,4,5,1,0,0,4,5,1,0,0,1,86,246,80,1,,,,,,,,
,,,,,,,,,,,,,FF,,,,,,,,1.401,,,,,,,,,,,,,,,,,,,,,,60fd8ea378ec4f0fa9a043be,61036f235259933529c752cd,2021-07-29_20h18.00.086,Simcolourproject_2stim_asymm_v5,2020.2.10,MacIntel,60,61025ae37ef11b136ea224fe,,,,,,,,,4239,-38,-77,1,0,0,response5disk,,3,4,-3,1,0,0,rectangle,4,-3,1,0,0,4,-3,1,0,0,1,87,247,38,1,,,,,,,,
,,,,,,,,,,,,,FF,,,,,,,,1.068,,,,,,,,,,,,,,,,,,,,,,60fd8ea378ec4f0fa9a043be,61036f235259933529c752cd,2021-07-29_20h18.00.086,Simcolourproject_2stim_asymm_v5,2020.2.10,MacIntel,60,61025ae37ef11b136ea224fe,,,,,,,,,2084,28,82,1,0,0,response1disk,,7,16,0,1,0,0,rectangle,16,0,1,0,0,16,0,1,0,0,1,88,248,20,1,,,,,,,,
,,,,,,,,,,,,,FF,,,,,,,,0.917,,,,,,,,,,,,,,,,,,,,,,60fd8ea378ec4f0fa9a043be,61036f235259933529c752cd,2021-07-29_20h18.00.086,Simcolourproject_2stim_asymm_v5,2020.2.10,MacIntel,60,61025ae37ef11b136ea224fe,,,,,,,,,3564,32,85,1,0,0,response1disk,,7,27,-16,1,0,0,rectangle,27,-16,1,0,0,27,-16,1,0,0,1,89,249,57,1,,,,,,,,
,,,,,,,,,,,,,FF,,,,,,,,0.65,,,,,,,,,,,,,,,,,,,,,,60fd8ea378ec4f0fa9a043be,61036f235259933529c752cd,2021-07-29_20h18.00.086,Simcolourproject_2stim_asymm_v5,2020.2.10,MacIntel,60,61025ae37ef11b136ea224fe,,,,,,,,,3215,30,77,1,0,0,response1disk,,7,22,6,1,0,0,rectangle,22,6,1,0,0,22,6,1,0,0,1,90,250,50,1,,,,,,,,
,,,,,,,,,,,,,FF,,,,,,,,0.816,,,,,,,,,,,,,,,,,,,,,,60fd8ea378ec4f0fa9a043be,61036f235259933529c752cd,2021-07-29_20h18.00.086,Simcolourproject_2stim_asymm_v5,2020.2.10,MacIntel,60,61025ae37ef11b136ea224fe,,,,,,,,,1006,31,54,1,0,0,response1disk,,7,15,5,1,0,0,rectangle,15,5,1,0,0,15,5,1,0,0,1,91,251,7,1,,,,,,,,
,,,,,,,,,,,,,FF,,,,,,,,0.95,,,,,,,,,,,,,,,,,,,,,,60fd8ea378ec4f0fa9a043be,61036f235259933529c752cd,2021-07-29_20h18.00.086,Simcolourproject_2stim_asymm_v5,2020.2.10,MacIntel,60,61025ae37ef11b136ea224fe,,,,,,,,,2922,33,57,1,0,0,response1disk,,7,0,15,1,0,0,rectangle,0,15,1,0,0,0,15,1,0,0,1,92,252,79,1,,,,,,,,
,,,,,,,,,,,,,FF,,,,,,,,0.767,,,,,,,,,,,,,,,,,,,,,,60fd8ea378ec4f0fa9a043be,61036f235259933529c752cd,2021-07-29_20h18.00.086,Simcolourproject_2stim_asymm_v5,2020.2.10,MacIntel,60,61025ae37ef11b136ea224fe,,,,,,,,,3791,62,34,1,0,0,response1disk,,6,15,7,1,0,0,rectangle,15,7,1,0,0,15,7,1,0,0,1,93,253,157,1,,,,,,,,
,,,,,,,,,,,,,FF,,,,,,,,0.984,,,,,,,,,,,,,,,,,,,,,,60fd8ea378ec4f0fa9a043be,61036f235259933529c752cd,2021-07-29_20h18.00.086,Simcolourproject_2stim_asymm_v5,2020.2.10,MacIntel,60,61025ae37ef11b136ea224fe,,,,,,,,,3433,25,-71,1,0,0,response3disk,,4,3,1,1,0,0,rectangle,3,1,1,0,0,3,1,1,0,0,1,94,254,138,1,,,,,,,,
,,,,,,,,,,,,,FF,,,,,,,,1.267,,,,,,,,,,,,,,,,,,,,,,60fd8ea378ec4f0fa9a043be,61036f235259933529c752cd,2021-07-29_20h18.00.086,Simcolourproject_2stim_asymm_v5,2020.2.10,MacIntel,60,61025ae37ef11b136ea224fe,,,,,,,,,2082,68,-46,1,0,0,response3disk,,5,9,3,1,0,0,rectangle,9,3,1,0,0,9,3,1,0,0,1,95,255,113,1,,,,,,,,
,,,,,,,,,,,,,FF,,,,,,,,0.9,,,,,,,,,,,,,,,,,,,,,,60fd8ea378ec4f0fa9a043be,61036f235259933529c752cd,2021-07-29_20h18.00.086,Simcolourproject_2stim_asymm_v5,2020.2.10,MacIntel,60,61025ae37ef11b136ea224fe,,,,,,,,,3750,37,-89,1,0,0,response3disk,,4,0,9,1,0,0,rectangle,0,9,1,0,0,0,9,1,0,0,1,96,256,45,1,,,,,,,,
,,,,,,,,,,,,,FF,,,,,,,,2.633,,,,,,,,,,,,,,,,,,,,,,60fd8ea378ec4f0fa9a043be,61036f235259933529c752cd,2021-07-29_20h18.00.086,Simcolourproject_2stim_asymm_v5,2020.2.10,MacIntel,60,61025ae37ef11b136ea224fe,,,,,,,,,2869,69,37,1,0,0,response1disk,,6,2,-3,1,0,0,rectangle,2,-3,1,0,0,2,-3,1,0,0,1,97,257,59,1,,,,,,,,
,,,,,,,,,,,,,FF,,,,,,,,1.217,,,,,,,,,,,,,,,,,,,,,,60fd8ea378ec4f0fa9a043be,61036f235259933529c752cd,2021-07-29_20h18.00.086,Simcolourproject_2stim_asymm_v5,2020.2.10,MacIntel,60,61025ae37ef11b136ea224fe,,,,,,,,,1285,-48,-96,1,0,0,response5disk,,3,9,10,1,0,0,rectangle,9,10,1,0,0,9,10,1,0,0,1,98,258,44,1,,,,,,,,
,,,,,,,,,,,,,FF,,,,,,,,0.783,,,,,,,,,,,,,,,,,,,,,,60fd8ea378ec4f0fa9a043be,61036f235259933529c752cd,2021-07-29_20h18.00.086,Simcolourproject_2stim_asymm_v5,2020.2.10,MacIntel,60,61025ae37ef11b136ea224fe,,,,,,,,,1486,84,42,1,0,0,response1disk,,6,6,-4,1,0,0,rectangle,6,-4,1,0,0,6,-4,1,0,0,1,99,259,1,1,,,,,,,,
,,,,,,,,,,,,,FF,,,,,,,,0.9,,,,,,,,,,,,,,,,,,,,,,60fd8ea378ec4f0fa9a043be,61036f235259933529c752cd,2021-07-29_20h18.00.086,Simcolourproject_2stim_asymm_v5,2020.2.10,MacIntel,60,61025ae37ef11b136ea224fe,,,,,,,,,1738,59,-42,1,0,0,response3disk,,5,15,5,1,0,0,rectangle,15,5,1,0,0,15,5,1,0,0,1,100,260,8,1,,,,,,,,
,,,,,,,,,,,,,FF,,,,,,,,0.967,,,,,,,,,,,,,,,,,,,,,,60fd8ea378ec4f0fa9a043be,61036f235259933529c752cd,2021-07-29_20h18.00.086,Simcolourproject_2stim_asymm_v5,2020.2.10,MacIntel,60,61025ae37ef11b136ea224fe,,,,,,,,,4050,31,-43,1,0,0,response3disk,,4,10,-4,1,0,0,rectangle,10,-4,1,0,0,10,-4,1,0,0,1,101,261,41,1,,,,,,,,
,,,,,,,,,,,,,FF,,,,,,,,0.933,,,,,,,,,,,,,,,,,,,,,,60fd8ea378ec4f0fa9a043be,61036f235259933529c752cd,2021-07-29_20h18.00.086,Simcolourproject_2stim_asymm_v5,2020.2.10,MacIntel,60,61025ae37ef11b136ea224fe,,,,,,,,,3492,92,42,1,0,0,response1disk,,6,2,5,1,0,0,rectangle,2,5,1,0,0,2,5,1,0,0,1,102,262,77,1,,,,,,,,
,,,,,,,,,,,,,FF,,,,,,,,0.65,,,,,,,,,,,,,,,,,,,,,,60fd8ea378ec4f0fa9a043be,61036f235259933529c752cd,2021-07-29_20h18.00.086,Simcolourproject_2stim_asymm_v5,2020.2.10,MacIntel,60,61025ae37ef11b136ea224fe,,,,,,,,,1539,71,37,1,0,0,response1disk,,6,19,6,1,0,0,rectangle,19,6,1,0,0,19,6,1,0,0,1,103,263,46,1,,,,,,,,
,,,,,,,,,,,,,FF,,,,,,,,0.933,,,,,,,,,,,,,,,,,,,,,,60fd8ea378ec4f0fa9a043be,61036f235259933529c752cd,2021-07-29_20h18.00.086,Simcolourproject_2stim_asymm_v5,2020.2.10,MacIntel,60,61025ae37ef11b136ea224fe,,,,,,,,,4116,-54,-82,1,0,0,response5disk,,3,-13,-7,1,0,0,rectangle,-13,-7,1,0,0,-13,-7,1,0,0,1,104,264,106,1,,,,,,,,
,,,,,,,,,,,,,FF,,,,,,,,1.25,,,,,,,,,,,,,,,,,,,,,,60fd8ea378ec4f0fa9a043be,61036f235259933529c752cd,2021-07-29_20h18.00.086,Simcolourproject_2stim_asymm_v5,2020.2.10,MacIntel,60,61025ae37ef11b136ea224fe,,,,,,,,,2994,-40,-72,1,0,0,response5disk,,3,-20,1,1,0,0,rectangle,-20,1,1,0,0,-20,1,1,0,0,1,105,265,143,1,,,,,,,,
,,,,,,,,,,,,,FF,,,,,,,,0.734,,,,,,,,,,,,,,,,,,,,,,60fd8ea378ec4f0fa9a043be,61036f235259933529c752cd,2021-07-29_20h18.00.086,Simcolourproject_2stim_asymm_v5,2020.2.10,MacIntel,60,61025ae37ef11b136ea224fe,,,,,,,,,328,43,75,1,0,0,response1disk,,7,14,7,1,0,0,rectangle,14,7,1,0,0,14,7,1,0,0,1,106,266,36,1,,,,,,,,
,,,,,,,,,,,,,FF,,,,,,,,1.201,,,,,,,,,,,,,,,,,,,,,,60fd8ea378ec4f0fa9a043be,61036f235259933529c752cd,2021-07-29_20h18.00.086,Simcolourproject_2stim_asymm_v5,2020.2.10,MacIntel,60,61025ae37ef11b136ea224fe,,,,,,,,,231,33,65,1,0,0,response1disk,,7,20,-4,1,0,0,rectangle,20,-4,1,0,0,20,-4,1,0,0,1,107,267,122,1,,,,,,,,
,,,,,,,,,,,,,FF,,,,,,,,1.017,,,,,,,,,,,,,,,,,,,,,,60fd8ea378ec4f0fa9a043be,61036f235259933529c752cd,2021-07-29_20h18.00.086,Simcolourproject_2stim_asymm_v5,2020.2.10,MacIntel,60,61025ae37ef11b136ea224fe,,,,,,,,,3365,82,43,1,0,0,response1disk,,6,13,13,1,0,0,rectangle,13,13,1,0,0,13,13,1,0,0,1,108,268,126,1,,,,,,,,
,,,,,,,,,,,,,FF,,,,,,,,0.933,,,,,,,,,,,,,,,,,,,,,,60fd8ea378ec4f0fa9a043be,61036f235259933529c752cd,2021-07-29_20h18.00.086,Simcolourproject_2stim_asymm_v5,2020.2.10,MacIntel,60,61025ae37ef11b136ea224fe,,,,,,,,,1326,45,36,1,0,0,response1disk,,6,6,-3,1,0,0,rectangle,6,-3,1,0,0,6,-3,1,0,0,1,109,269,4,1,,,,,,,,
,,,,,,,,,,,,,FF,,,,,,,,1.651,,,,,,,,,,,,,,,,,,,,,,60fd8ea378ec4f0fa9a043be,61036f235259933529c752cd,2021-07-29_20h18.00.086,Simcolourproject_2stim_asymm_v5,2020.2.10,MacIntel,60,61025ae37ef11b136ea224fe,,,,,,,,,960,64,30,1,0,0,response1disk,,6,-9,4,1,0,0,rectangle,-9,4,1,0,0,-9,4,1,0,0,1,110,270,28,1,,,,,,,,
,,,,,,,,,,,,,FF,,,,,,,,0.599,,,,,,,,,,,,,,,,,,,,,,60fd8ea378ec4f0fa9a043be,61036f235259933529c752cd,2021-07-29_20h18.00.086,Simcolourproject_2stim_asymm_v5,2020.2.10,MacIntel,60,61025ae37ef11b136ea224fe,,,,,,,,,34,66,39,1,0,0,response1disk,,6,17,8,1,0,0,rectangle,17,8,1,0,0,17,8,1,0,0,1,111,271,123,1,,,,,,,,
,,,,,,,,,,,,,FF,,,,,,,,1.716,,,,,,,,,,,,,,,,,,,,,,60fd8ea378ec4f0fa9a043be,61036f235259933529c752cd,2021-07-29_20h18.00.086,Simcolourproject_2stim_asymm_v5,2020.2.10,MacIntel,60,61025ae37ef11b136ea224fe,,,,,,,,,612,27,-61,1,0,0,response3disk,,4,15,-14,1,0,0,rectangle,93,-36,1,0,0,-2,8,1,0,0,1,112,272,61,1,,response3disk_3,TRUE,5,5,"[11,18,309,242,159,173,51,36,302,132,243,273,118,178,121,289,120,274,32,40]",1.715,rectangle
,,,,,,,,,,,,,FF,,,,,,,,1.467,,,,,,,,,,,,,,,,,,,,,,60fd8ea378ec4f0fa9a043be,61036f235259933529c752cd,2021-07-29_20h18.00.086,Simcolourproject_2stim_asymm_v5,2020.2.10,MacIntel,60,61025ae37ef11b136ea224fe,,,,,,,,,1417,59,-24,1,0,0,response3disk,,5,11,-5,1,0,0,rectangle,90,43,1,0,0,-2,-3,1,0,0,1,113,273,62,1,,response1disk_3,TRUE,6,6,"[11,18,309,242,159,173,51,36,302,132,243,273,118,178,121,289,120,274,32,40]",1.666,rectangle
,,,,,,,,,,,,,FF,,,,,,,,1.333,,,,,,,,,,,,,,,,,,,,,,60fd8ea378ec4f0fa9a043be,61036f235259933529c752cd,2021-07-29_20h18.00.086,Simcolourproject_2stim_asymm_v5,2020.2.10,MacIntel,60,61025ae37ef11b136ea224fe,,,,,,,,,1784,67,-41,1,0,0,response3disk,,5,17,-3,1,0,0,rectangle,17,-3,1,0,0,17,-3,1,0,0,1,114,274,22,1,,,,,,,,
,,,,,,,,,,,,,FF,,,,,,,,0.982,,,,,,,,,,,,,,,,,,,,,,60fd8ea378ec4f0fa9a043be,61036f235259933529c752cd,2021-07-29_20h18.00.086,Simcolourproject_2stim_asymm_v5,2020.2.10,MacIntel,60,61025ae37ef11b136ea224fe,,,,,,,,,58,58,-27,1,0,0,response3disk,,5,7,-3,1,0,0,rectangle,7,-3,1,0,0,7,-3,1,0,0,1,115,275,30,1,,,,,,,,
,,,,,,,,,,,,,FF,,,,,,,,1.133,,,,,,,,,,,,,,,,,,,,,,60fd8ea378ec4f0fa9a043be,61036f235259933529c752cd,2021-07-29_20h18.00.086,Simcolourproject_2stim_asymm_v5,2020.2.10,MacIntel,60,61025ae37ef11b136ea224fe,,,,,,,,,3055,-45,-74,1,0,0,response5disk,,3,-14,-4,1,0,0,rectangle,-14,-4,1,0,0,-14,-4,1,0,0,1,116,276,14,1,,,,,,,,
,,,,,,,,,,,,,FF,,,,,,,,1.05,,,,,,,,,,,,,,,,,,,,,,60fd8ea378ec4f0fa9a043be,61036f235259933529c752cd,2021-07-29_20h18.00.086,Simcolourproject_2stim_asymm_v5,2020.2.10,MacIntel,60,61025ae37ef11b136ea224fe,,,,,,,,,398,86,45,1,0,0,response1disk,,6,23,7,1,0,0,rectangle,23,7,1,0,0,23,7,1,0,0,1,117,277,141,1,,,,,,,,
,,,,,,,,,,,,,FF,,,,,,,,1.349,,,,,,,,,,,,,,,,,,,,,,60fd8ea378ec4f0fa9a043be,61036f235259933529c752cd,2021-07-29_20h18.00.086,Simcolourproject_2stim_asymm_v5,2020.2.10,MacIntel,60,61025ae37ef11b136ea224fe,,,,,,,,,3769,64,-19,1,0,0,response3disk,,5,-6,-4,1,0,0,rectangle,-6,-4,1,0,0,-6,-4,1,0,0,1,118,278,64,1,,,,,,,,
,,,,,,,,,,,,,FF,,,,,,,,0.817,,,,,,,,,,,,,,,,,,,,,,60fd8ea378ec4f0fa9a043be,61036f235259933529c752cd,2021-07-29_20h18.00.086,Simcolourproject_2stim_asymm_v5,2020.2.10,MacIntel,60,61025ae37ef11b136ea224fe,,,,,,,,,558,38,74,1,0,0,response1disk,,7,11,-7,1,0,0,rectangle,11,-7,1,0,0,11,-7,1,0,0,1,119,279,58,1,,,,,,,,
,,,,,,,,,,,,,FF,,,,,,,,0.75,,,,,,,,,,,,,,,,,,,,,,60fd8ea378ec4f0fa9a043be,61036f235259933529c752cd,2021-07-29_20h18.00.086,Simcolourproject_2stim_asymm_v5,2020.2.10,MacIntel,60,61025ae37ef11b136ea224fe,,,,,,,,,317,28,58,1,0,0,response1disk,,7,1,-1,1,0,0,rectangle,1,-1,1,0,0,1,-1,1,0,0,1,120,280,42,1,,,,,,,,
,,,,,,,,,,,,,FF,,,,,,,,0.817,,,,,,,,,,,,,,,,,,,,,,60fd8ea378ec4f0fa9a043be,61036f235259933529c752cd,2021-07-29_20h18.00.086,Simcolourproject_2stim_asymm_v5,2020.2.10,MacIntel,60,61025ae37ef11b136ea224fe,,,,,,,,,3550,73,37,1,0,0,response1disk,,6,7,5,1,0,0,rectangle,7,5,1,0,0,7,5,1,0,0,1,121,281,109,1,,,,,,,,
,,,,,,,,,,,,,FF,,,,,,,,1.45,,,,,,,,,,,,,,,,,,,,,,60fd8ea378ec4f0fa9a043be,61036f235259933529c752cd,2021-07-29_20h18.00.086,Simcolourproject_2stim_asymm_v5,2020.2.10,MacIntel,60,61025ae37ef11b136ea224fe,,,,,,,,,973,-46,-85,1,0,0,response5disk,,3,-19,-8,1,0,0,rectangle,-19,-8,1,0,0,-19,-8,1,0,0,1,122,282,55,1,,,,,,,,
,,,,,,,,,,,,,FF,,,,,,,,0.901,,,,,,,,,,,,,,,,,,,,,,60fd8ea378ec4f0fa9a043be,61036f235259933529c752cd,2021-07-29_20h18.00.086,Simcolourproject_2stim_asymm_v5,2020.2.10,MacIntel,60,61025ae37ef11b136ea224fe,,,,,,,,,2553,37,80,1,0,0,response1disk,,7,13,1,1,0,0,rectangle,13,1,1,0,0,13,1,1,0,0,1,123,283,147,1,,,,,,,,
,,,,,,,,,,,,,FF,,,,,,,,1.133,,,,,,,,,,,,,,,,,,,,,,60fd8ea378ec4f0fa9a043be,61036f235259933529c752cd,2021-07-29_20h18.00.086,Simcolourproject_2stim_asymm_v5,2020.2.10,MacIntel,60,61025ae37ef11b136ea224fe,,,,,,,,,1446,45,-88,1,0,0,response3disk,,4,13,-8,1,0,0,rectangle,13,-8,1,0,0,13,-8,1,0,0,1,124,284,51,1,,,,,,,,
,,,,,,,,,,,,,FF,,,,,,,,0.85,,,,,,,,,,,,,,,,,,,,,,60fd8ea378ec4f0fa9a043be,61036f235259933529c752cd,2021-07-29_20h18.00.086,Simcolourproject_2stim_asymm_v5,2020.2.10,MacIntel,60,61025ae37ef11b136ea224fe,,,,,,,,,2691,34,87,1,0,0,response1disk,,7,18,15,1,0,0,rectangle,18,15,1,0,0,18,15,1,0,0,1,125,285,91,1,,,,,,,,
,,,,,,,,,,,,,FF,,,,,,,,0.816,,,,,,,,,,,,,,,,,,,,,,60fd8ea378ec4f0fa9a043be,61036f235259933529c752cd,2021-07-29_20h18.00.086,Simcolourproject_2stim_asymm_v5,2020.2.10,MacIntel,60,61025ae37ef11b136ea224fe,,,,,,,,,2110,32,84,1,0,0,response1disk,,7,24,-4,1,0,0,rectangle,24,-4,1,0,0,24,-4,1,0,0,1,126,286,96,1,,,,,,,,
,,,,,,,,,,,,,FF,,,,,,,,1.116,,,,,,,,,,,,,,,,,,,,,,60fd8ea378ec4f0fa9a043be,61036f235259933529c752cd,2021-07-29_20h18.00.086,Simcolourproject_2stim_asymm_v5,2020.2.10,MacIntel,60,61025ae37ef11b136ea224fe,,,,,,,,,1556,73,37,1,0,0,response1disk,,6,20,1,1,0,0,rectangle,20,1,1,0,0,20,1,1,0,0,1,127,287,75,1,,,,,,,,
,,,,,,,,,,,,,FF,,,,,,,,1.2,,,,,,,,,,,,,,,,,,,,,,60fd8ea378ec4f0fa9a043be,61036f235259933529c752cd,2021-07-29_20h18.00.086,Simcolourproject_2stim_asymm_v5,2020.2.10,MacIntel,60,61025ae37ef11b136ea224fe,,,,,,,,,3618,33,74,1,0,0,response1disk,,7,8,0,1,0,0,rectangle,77,-28,1,0,0,5,-5,1,0,0,1,128,288,10,1,,response3disk_3,TRUE,5,5,"[11,18,309,242,159,173,51,36,302,132,243,273,118,178,121,289,120,274,32,40]",1.417,rectangle
,,,,,,,,,,,,,FF,,,,,,,,1.7,,,,,,,,,,,,,,,,,,,,,,60fd8ea378ec4f0fa9a043be,61036f235259933529c752cd,2021-07-29_20h18.00.086,Simcolourproject_2stim_asymm_v5,2020.2.10,MacIntel,60,61025ae37ef11b136ea224fe,,,,,,,,,4085,-49,-83,1,0,0,response5disk,,3,6,6,1,0,0,rectangle,6,6,1,0,0,6,6,1,0,0,1,129,289,145,1,,,,,,,,
,,,,,,,,,,,,,FF,,,,,,,,0.883,,,,,,,,,,,,,,,,,,,,,,60fd8ea378ec4f0fa9a043be,61036f235259933529c752cd,2021-07-29_20h18.00.086,Simcolourproject_2stim_asymm_v5,2020.2.10,MacIntel,60,61025ae37ef11b136ea224fe,,,,,,,,,957,35,-49,1,0,0,response3disk,,4,21,-8,1,0,0,rectangle,21,-8,1,0,0,21,-8,1,0,0,1,130,290,37,1,,,,,,,,
,,,,,,,,,,,,,FF,,,,,,,,0.85,,,,,,,,,,,,,,,,,,,,,,60fd8ea378ec4f0fa9a043be,61036f235259933529c752cd,2021-07-29_20h18.00.086,Simcolourproject_2stim_asymm_v5,2020.2.10,MacIntel,60,61025ae37ef11b136ea224fe,,,,,,,,,3066,18,-61,1,0,0,response3disk,,4,10,-8,1,0,0,rectangle,10,-8,1,0,0,10,-8,1,0,0,1,131,291,31,1,,,,,,,,
,,,,,,,,,,,,,FF,,,,,,,,0.783,,,,,,,,,,,,,,,,,,,,,,60fd8ea378ec4f0fa9a043be,61036f235259933529c752cd,2021-07-29_20h18.00.086,Simcolourproject_2stim_asymm_v5,2020.2.10,MacIntel,60,61025ae37ef11b136ea224fe,,,,,,,,,3607,55,-29,1,0,0,response3disk,,5,11,3,1,0,0,rectangle,11,3,1,0,0,11,3,1,0,0,1,132,292,110,1,,,,,,,,
,,,,,,,,,,,,,FF,,,,,,,,1.417,,,,,,,,,,,,,,,,,,,,,,60fd8ea378ec4f0fa9a043be,61036f235259933529c752cd,2021-07-29_20h18.00.086,Simcolourproject_2stim_asymm_v5,2020.2.10,MacIntel,60,61025ae37ef11b136ea224fe,,,,,,,,,977,28,-61,1,0,0,response3disk,,4,20,-13,1,0,0,rectangle,20,-13,1,0,0,20,-13,1,0,0,1,133,293,102,1,,,,,,,,
,,,,,,,,,,,,,FF,,,,,,,,1.25,,,,,,,,,,,,,,,,,,,,,,60fd8ea378ec4f0fa9a043be,61036f235259933529c752cd,2021-07-29_20h18.00.086,Simcolourproject_2stim_asymm_v5,2020.2.10,MacIntel,60,61025ae37ef11b136ea224fe,,,,,,,,,590,66,42,1,0,0,response1disk,,6,13,1,1,0,0,rectangle,13,1,1,0,0,13,1,1,0,0,1,134,294,12,1,,,,,,,,
,,,,,,,,,,,,,FF,,,,,,,,1.134,,,,,,,,,,,,,,,,,,,,,,60fd8ea378ec4f0fa9a043be,61036f235259933529c752cd,2021-07-29_20h18.00.086,Simcolourproject_2stim_asymm_v5,2020.2.10,MacIntel,60,61025ae37ef11b136ea224fe,,,,,,,,,3565,65,-42,1,0,0,response3disk,,5,6,-6,1,0,0,rectangle,6,-6,1,0,0,6,-6,1,0,0,1,135,295,18,1,,,,,,,,
,,,,,,,,,,,,,FF,,,,,,,,0.868,,,,,,,,,,,,,,,,,,,,,,60fd8ea378ec4f0fa9a043be,61036f235259933529c752cd,2021-07-29_20h18.00.086,Simcolourproject_2stim_asymm_v5,2020.2.10,MacIntel,60,61025ae37ef11b136ea224fe,,,,,,,,,1843,80,38,1,0,0,response1disk,,6,-8,-14,1,0,0,rectangle,-8,-14,1,0,0,-8,-14,1,0,0,1,136,296,70,1,,,,,,,,
,,,,,,,,,,,,,FF,,,,,,,,0.817,,,,,,,,,,,,,,,,,,,,,,60fd8ea378ec4f0fa9a043be,61036f235259933529c752cd,2021-07-29_20h18.00.086,Simcolourproject_2stim_asymm_v5,2020.2.10,MacIntel,60,61025ae37ef11b136ea224fe,,,,,,,,,504,24,70,1,0,0,response1disk,,7,14,9,1,0,0,rectangle,14,9,1,0,0,14,9,1,0,0,1,137,297,103,1,,,,,,,,
,,,,,,,,,,,,,FF,,,,,,,,0.682,,,,,,,,,,,,,,,,,,,,,,60fd8ea378ec4f0fa9a043be,61036f235259933529c752cd,2021-07-29_20h18.00.086,Simcolourproject_2stim_asymm_v5,2020.2.10,MacIntel,60,61025ae37ef11b136ea224fe,,,,,,,,,2694,29,48,1,0,0,response1disk,,7,15,4,1,0,0,rectangle,15,4,1,0,0,15,4,1,0,0,1,138,298,98,1,,,,,,,,
,,,,,,,,,,,,,FF,,,,,,,,0.85,,,,,,,,,,,,,,,,,,,,,,60fd8ea378ec4f0fa9a043be,61036f235259933529c752cd,2021-07-29_20h18.00.086,Simcolourproject_2stim_asymm_v5,2020.2.10,MacIntel,60,61025ae37ef11b136ea224fe,,,,,,,,,2615,-77,-29,1,0,0,response5disk,,2,-12,-3,1,0,0,rectangle,-12,-3,1,0,0,-12,-3,1,0,0,1,139,299,47,1,,,,,,,,
,,,,,,,,,,,,,FF,,,,,,,,0.734,,,,,,,,,,,,,,,,,,,,,,60fd8ea378ec4f0fa9a043be,61036f235259933529c752cd,2021-07-29_20h18.00.086,Simcolourproject_2stim_asymm_v5,2020.2.10,MacIntel,60,61025ae37ef11b136ea224fe,,,,,,,,,136,43,58,1,0,0,response1disk,,7,23,7,1,0,0,rectangle,23,7,1,0,0,23,7,1,0,0,1,140,300,56,1,,,,,,,,
