key_resp.keys,key_resp.rt,key_resp_14.keys,key_resp_14.rt,key_resp_15.keys,key_resp_15.rt,key_resp_17.keys,key_resp_17.rt,key_resp_9.keys,key_resp_9.rt,key_resp_10.keys,key_resp_10.rt,practice_comparison,Ecc,mouse_5.x,mouse_5.y,mouse_5.leftButton,mouse_5.midButton,mouse_5.rightButton,mouse_5.clicked_name,pracsimilarity,response_time,mouse_10.x,mouse_10.y,mouse_10.leftButton,mouse_10.midButton,mouse_10.rightButton,mouse_10.clicked_name,mouse_7.x,mouse_7.y,mouse_7.leftButton,mouse_7.midButton,mouse_7.rightButton,mouse_6.x,mouse_6.y,mouse_6.leftButton,mouse_6.midButton,mouse_6.rightButton,duringprac.thisRepN,duringprac.thisTrialN,duringprac.thisN,duringprac.thisIndex,duringprac.ran,participant,session,date,expName,psychopyVersion,OS,frameRate,study_id,mouse_7.clicked_name,catchpracsimilarity,catch_response_time,catchnumberprac,catchtrialorderprac,mouse_6.clicked_name,key_resp_22.keys,key_resp_22.rt,realcomparison,mouse.x,mouse.y,mouse.leftButton,mouse.midButton,mouse.rightButton,mouse.clicked_name,Colour2,similarity,mouse_2.x,mouse_2.y,mouse_2.leftButton,mouse_2.midButton,mouse_2.rightButton,mouse_2.clicked_name,mouse_3.x,mouse_3.y,mouse_3.leftButton,mouse_3.midButton,mouse_3.rightButton,mouse_11.x,mouse_11.y,mouse_11.leftButton,mouse_11.midButton,mouse_11.rightButton,trials_2.thisRepN,trials_2.thisTrialN,trials_2.thisN,trials_2.thisIndex,trials_2.ran,Colour1,mouse_3.clicked_name,catchornah,catchsimilarity,catchnumber,catchtrialorder,catchRT,mouse_11.clicked_name
space,2.067,space,20.859,space,25.822,space,3.912,space,3.578,space,2.714,112,FF,-29,-102,1,0,0,response5disk_5,3,10.794,-2,-4,1,0,0,rectangle_8,-2,-4,1,0,0,-2,-4,1,0,0,0,0,0,3,1,60fd92f2e5bceebabcd863de,61036c541f359c350597b31a,2021-07-29_22h09.25.055,Simcolourproject_2stim_asymm_v5,2020.2.10,Win32,60,61025ae37ef11b136ea224fe,,,,,,,,,,,,,,,,,,,,,,,,,,,,,,,,,,,,,,,,,,,,,,
,,,,,,,,,,,,7,PF,69,-29,1,0,0,response3disk_5,5,3.927,-4,-3,1,0,0,rectangle_8,39,92,1,0,0,6,-3,1,0,0,0,1,1,4,1,60fd92f2e5bceebabcd863de,61036c541f359c350597b31a,2021-07-29_22h09.25.055,Simcolourproject_2stim_asymm_v5,2020.2.10,Win32,60,61025ae37ef11b136ea224fe,response1disk_7,7,2.498,7,"[2,5]",rectangle_4,,,,,,,,,,,,,,,,,,,,,,,,,,,,,,,,,,,,,,,,
,,,,,,,,,,,,95,PF,53,79,1,0,0,response1disk_5,7,10.673,2,1,1,0,0,rectangle_8,2,1,1,0,0,2,1,1,0,0,0,2,2,6,1,60fd92f2e5bceebabcd863de,61036c541f359c350597b31a,2021-07-29_22h09.25.055,Simcolourproject_2stim_asymm_v5,2020.2.10,Win32,60,61025ae37ef11b136ea224fe,,,,,,,,,,,,,,,,,,,,,,,,,,,,,,,,,,,,,,,,,,,,,,
,,,,,,,,,,,,88,FF,68,37,1,0,0,response1disk_5,6,5.352,-8,-5,1,0,0,rectangle_8,-8,-5,1,0,0,-8,-5,1,0,0,0,3,3,5,1,60fd92f2e5bceebabcd863de,61036c541f359c350597b31a,2021-07-29_22h09.25.055,Simcolourproject_2stim_asymm_v5,2020.2.10,Win32,60,61025ae37ef11b136ea224fe,,,,,,,,,,,,,,,,,,,,,,,,,,,,,,,,,,,,,,,,,,,,,,
,,,,,,,,,,,,103,PF,54,-100,1,0,0,response3disk_5,4,2.673,-1,6,1,0,0,rectangle_8,28,94,1,0,0,-27,-1,1,0,0,0,4,4,2,1,60fd92f2e5bceebabcd863de,61036c541f359c350597b31a,2021-07-29_22h09.25.055,Simcolourproject_2stim_asymm_v5,2020.2.10,Win32,60,61025ae37ef11b136ea224fe,response1disk_7,7,2.074,7,"[2,5]",rectangle_4,,,,,,,,,,,,,,,,,,,,,,,,,,,,,,,,,,,,,,,,
,,,,,,,,,,,,18,PF,35,76,1,0,0,response1disk_5,7,1.394,-5,-4,1,0,0,rectangle_8,-5,-4,1,0,0,-5,-4,1,0,0,0,5,5,1,1,60fd92f2e5bceebabcd863de,61036c541f359c350597b31a,2021-07-29_22h09.25.055,Simcolourproject_2stim_asymm_v5,2020.2.10,Win32,60,61025ae37ef11b136ea224fe,,,,,,,,,,,,,,,,,,,,,,,,,,,,,,,,,,,,,,,,,,,,,,
,,,,,,,,,,,,125,FF,60,107,1,0,0,response1disk_5,7,6.291,0,2,1,0,0,rectangle_8,0,2,1,0,0,0,2,1,0,0,0,6,6,0,1,60fd92f2e5bceebabcd863de,61036c541f359c350597b31a,2021-07-29_22h09.25.055,Simcolourproject_2stim_asymm_v5,2020.2.10,Win32,60,61025ae37ef11b136ea224fe,,,,,,,,,,,,,,,,,,,,,,,,,,,,,,,,,,,,,,,,,,,,,,
,,,,,,,,,,,,,FF,,,,,,,,11.581,,,,,,,,,,,,,,,,,,,,,,60fd92f2e5bceebabcd863de,61036c541f359c350597b31a,2021-07-29_22h09.25.055,Simcolourproject_2stim_asymm_v5,2020.2.10,Win32,60,61025ae37ef11b136ea224fe,,,,,,,space,4.093,1342,32,74,1,0,0,response1disk,,7,5,-2,1,0,0,rectangle,5,-2,1,0,0,5,-2,1,0,0,0,0,0,140,1,,,,,,,,
,,,,,,,,,,,,,FF,,,,,,,,10.77,,,,,,,,,,,,,,,,,,,,,,60fd92f2e5bceebabcd863de,61036c541f359c350597b31a,2021-07-29_22h09.25.055,Simcolourproject_2stim_asymm_v5,2020.2.10,Win32,60,61025ae37ef11b136ea224fe,,,,,,,,,3139,-26,-62,1,0,0,response5disk,,3,-12,-10,1,0,0,rectangle,-12,-10,1,0,0,-12,-10,1,0,0,0,1,1,131,1,,,,,,,,
,,,,,,,,,,,,,FF,,,,,,,,4.939,,,,,,,,,,,,,,,,,,,,,,60fd92f2e5bceebabcd863de,61036c541f359c350597b31a,2021-07-29_22h09.25.055,Simcolourproject_2stim_asymm_v5,2020.2.10,Win32,60,61025ae37ef11b136ea224fe,,,,,,,,,2698,22,47,1,0,0,response1disk,,7,2,-4,1,0,0,rectangle,2,-4,1,0,0,2,-4,1,0,0,0,2,2,143,1,,,,,,,,
,,,,,,,,,,,,,FF,,,,,,,,2.637,,,,,,,,,,,,,,,,,,,,,,60fd92f2e5bceebabcd863de,61036c541f359c350597b31a,2021-07-29_22h09.25.055,Simcolourproject_2stim_asymm_v5,2020.2.10,Win32,60,61025ae37ef11b136ea224fe,,,,,,,,,2743,49,-88,1,0,0,response3disk,,4,-9,5,1,0,0,rectangle,-9,5,1,0,0,-9,5,1,0,0,0,3,3,16,1,,,,,,,,
,,,,,,,,,,,,,FF,,,,,,,,7.625,,,,,,,,,,,,,,,,,,,,,,60fd92f2e5bceebabcd863de,61036c541f359c350597b31a,2021-07-29_22h09.25.055,Simcolourproject_2stim_asymm_v5,2020.2.10,Win32,60,61025ae37ef11b136ea224fe,,,,,,,,,1668,74,-39,1,0,0,response3disk,,5,11,3,1,0,0,rectangle,11,3,1,0,0,11,3,1,0,0,0,4,4,20,1,,,,,,,,
,,,,,,,,,,,,,FF,,,,,,,,2.897,,,,,,,,,,,,,,,,,,,,,,60fd92f2e5bceebabcd863de,61036c541f359c350597b31a,2021-07-29_22h09.25.055,Simcolourproject_2stim_asymm_v5,2020.2.10,Win32,60,61025ae37ef11b136ea224fe,,,,,,,,,1916,26,-71,1,0,0,response3disk,,4,4,-4,1,0,0,rectangle,4,-4,1,0,0,4,-4,1,0,0,0,5,5,7,1,,,,,,,,
,,,,,,,,,,,,,FF,,,,,,,,3.152,,,,,,,,,,,,,,,,,,,,,,60fd92f2e5bceebabcd863de,61036c541f359c350597b31a,2021-07-29_22h09.25.055,Simcolourproject_2stim_asymm_v5,2020.2.10,Win32,60,61025ae37ef11b136ea224fe,,,,,,,,,298,54,33,1,0,0,response1disk,,6,11,1,1,0,0,rectangle,11,1,1,0,0,11,1,1,0,0,0,6,6,104,1,,,,,,,,
,,,,,,,,,,,,,FF,,,,,,,,2.442,,,,,,,,,,,,,,,,,,,,,,60fd92f2e5bceebabcd863de,61036c541f359c350597b31a,2021-07-29_22h09.25.055,Simcolourproject_2stim_asymm_v5,2020.2.10,Win32,60,61025ae37ef11b136ea224fe,,,,,,,,,3218,81,-30,1,0,0,response3disk,,5,7,-5,1,0,0,rectangle,7,-5,1,0,0,7,-5,1,0,0,0,7,7,30,1,,,,,,,,
,,,,,,,,,,,,,FF,,,,,,,,1.237,,,,,,,,,,,,,,,,,,,,,,60fd92f2e5bceebabcd863de,61036c541f359c350597b31a,2021-07-29_22h09.25.055,Simcolourproject_2stim_asymm_v5,2020.2.10,Win32,60,61025ae37ef11b136ea224fe,,,,,,,,,4288,33,79,1,0,0,response1disk,,7,19,2,1,0,0,rectangle,19,2,1,0,0,19,2,1,0,0,0,8,8,127,1,,,,,,,,
,,,,,,,,,,,,,FF,,,,,,,,3.54,,,,,,,,,,,,,,,,,,,,,,60fd92f2e5bceebabcd863de,61036c541f359c350597b31a,2021-07-29_22h09.25.055,Simcolourproject_2stim_asymm_v5,2020.2.10,Win32,60,61025ae37ef11b136ea224fe,,,,,,,,,1778,52,37,1,0,0,response1disk,,6,23,-21,1,0,0,rectangle,23,-21,1,0,0,23,-21,1,0,0,0,9,9,129,1,,,,,,,,
,,,,,,,,,,,,,FF,,,,,,,,1.448,,,,,,,,,,,,,,,,,,,,,,60fd92f2e5bceebabcd863de,61036c541f359c350597b31a,2021-07-29_22h09.25.055,Simcolourproject_2stim_asymm_v5,2020.2.10,Win32,60,61025ae37ef11b136ea224fe,,,,,,,,,1096,40,86,1,0,0,response1disk,,7,26,4,1,0,0,rectangle,26,4,1,0,0,26,4,1,0,0,0,10,10,22,1,,,,,,,,
,,,,,,,,,,,,,FF,,,,,,,,1.467,,,,,,,,,,,,,,,,,,,,,,60fd92f2e5bceebabcd863de,61036c541f359c350597b31a,2021-07-29_22h09.25.055,Simcolourproject_2stim_asymm_v5,2020.2.10,Win32,60,61025ae37ef11b136ea224fe,,,,,,,,,3790,55,66,1,0,0,response1disk,,7,24,-13,1,0,0,rectangle,24,-13,1,0,0,24,-13,1,0,0,0,11,11,56,1,,,,,,,,
,,,,,,,,,,,,,FF,,,,,,,,0.957,,,,,,,,,,,,,,,,,,,,,,60fd92f2e5bceebabcd863de,61036c541f359c350597b31a,2021-07-29_22h09.25.055,Simcolourproject_2stim_asymm_v5,2020.2.10,Win32,60,61025ae37ef11b136ea224fe,,,,,,,,,3532,83,24,1,0,0,response1disk,,6,7,-1,1,0,0,rectangle,7,-1,1,0,0,7,-1,1,0,0,0,12,12,114,1,,,,,,,,
,,,,,,,,,,,,,FF,,,,,,,,1.128,,,,,,,,,,,,,,,,,,,,,,60fd92f2e5bceebabcd863de,61036c541f359c350597b31a,2021-07-29_22h09.25.055,Simcolourproject_2stim_asymm_v5,2020.2.10,Win32,60,61025ae37ef11b136ea224fe,,,,,,,,,550,57,36,1,0,0,response1disk,,6,15,-4,1,0,0,rectangle,15,-4,1,0,0,15,-4,1,0,0,0,13,13,147,1,,,,,,,,
,,,,,,,,,,,,,FF,,,,,,,,16.442,,,,,,,,,,,,,,,,,,,,,,60fd92f2e5bceebabcd863de,61036c541f359c350597b31a,2021-07-29_22h09.25.055,Simcolourproject_2stim_asymm_v5,2020.2.10,Win32,60,61025ae37ef11b136ea224fe,,,,,,,,,1511,46,75,1,0,0,response1disk,,7,-7,0,1,0,0,rectangle,-7,0,1,0,0,-7,0,1,0,0,0,14,14,12,1,,,,,,,,
,,,,,,,,,,,,,FF,,,,,,,,4.727,,,,,,,,,,,,,,,,,,,,,,60fd92f2e5bceebabcd863de,61036c541f359c350597b31a,2021-07-29_22h09.25.055,Simcolourproject_2stim_asymm_v5,2020.2.10,Win32,60,61025ae37ef11b136ea224fe,,,,,,,,,3396,-58,-33,1,0,0,response5disk,,2,1,4,1,0,0,rectangle,1,4,1,0,0,1,4,1,0,0,0,15,15,148,1,,,,,,,,
,,,,,,,,,,,,,FF,,,,,,,,1.54,,,,,,,,,,,,,,,,,,,,,,60fd92f2e5bceebabcd863de,61036c541f359c350597b31a,2021-07-29_22h09.25.055,Simcolourproject_2stim_asymm_v5,2020.2.10,Win32,60,61025ae37ef11b136ea224fe,,,,,,,,,713,32,-73,1,0,0,response3disk,,4,-27,9,1,0,0,rectangle,-27,9,1,0,0,-27,9,1,0,0,0,16,16,41,1,,,,,,,,
,,,,,,,,,,,,,FF,,,,,,,,1.418,,,,,,,,,,,,,,,,,,,,,,60fd92f2e5bceebabcd863de,61036c541f359c350597b31a,2021-07-29_22h09.25.055,Simcolourproject_2stim_asymm_v5,2020.2.10,Win32,60,61025ae37ef11b136ea224fe,,,,,,,,,4357,73,35,1,0,0,response1disk,,6,17,-7,1,0,0,rectangle,17,-7,1,0,0,17,-7,1,0,0,0,17,17,123,1,,,,,,,,
,,,,,,,,,,,,,FF,,,,,,,,3.225,,,,,,,,,,,,,,,,,,,,,,60fd92f2e5bceebabcd863de,61036c541f359c350597b31a,2021-07-29_22h09.25.055,Simcolourproject_2stim_asymm_v5,2020.2.10,Win32,60,61025ae37ef11b136ea224fe,,,,,,,,,2100,-101,35,1,0,0,response7disk,,1,-2,-13,1,0,0,rectangle,107,59,1,0,0,3,-1,1,0,0,0,18,18,122,1,,response1disk_3,TRUE,6,6,"[47,192,36,242,27,121,208,19,244,138,244,140,231,266,119,77,286,74,302,322]",1.927,rectangle
,,,,,,,,,,,,,FF,,,,,,,,6,,,,,,,,,,,,,,,,,,,,,,60fd92f2e5bceebabcd863de,61036c541f359c350597b31a,2021-07-29_22h09.25.055,Simcolourproject_2stim_asymm_v5,2020.2.10,Win32,60,61025ae37ef11b136ea224fe,,,,,,,,,2624,119,-43,1,0,0,response3disk,,5,-13,-8,1,0,0,rectangle,-13,-8,1,0,0,-13,-8,1,0,0,0,19,19,39,1,,,,,,,,
,,,,,,,,,,,,,FF,,,,,,,,2.048,,,,,,,,,,,,,,,,,,,,,,60fd92f2e5bceebabcd863de,61036c541f359c350597b31a,2021-07-29_22h09.25.055,Simcolourproject_2stim_asymm_v5,2020.2.10,Win32,60,61025ae37ef11b136ea224fe,,,,,,,,,3844,-41,-63,1,0,0,response5disk,,3,4,-4,1,0,0,rectangle,4,-4,1,0,0,4,-4,1,0,0,0,20,20,74,1,,,,,,,,
,,,,,,,,,,,,,FF,,,,,,,,2.303,,,,,,,,,,,,,,,,,,,,,,60fd92f2e5bceebabcd863de,61036c541f359c350597b31a,2021-07-29_22h09.25.055,Simcolourproject_2stim_asymm_v5,2020.2.10,Win32,60,61025ae37ef11b136ea224fe,,,,,,,,,1268,32,54,1,0,0,response1disk,,7,-4,-16,1,0,0,rectangle,-4,-16,1,0,0,-4,-16,1,0,0,0,21,21,45,1,,,,,,,,
,,,,,,,,,,,,,FF,,,,,,,,0.86,,,,,,,,,,,,,,,,,,,,,,60fd92f2e5bceebabcd863de,61036c541f359c350597b31a,2021-07-29_22h09.25.055,Simcolourproject_2stim_asymm_v5,2020.2.10,Win32,60,61025ae37ef11b136ea224fe,,,,,,,,,2646,40,61,1,0,0,response1disk,,7,10,-4,1,0,0,rectangle,10,-4,1,0,0,10,-4,1,0,0,0,22,22,142,1,,,,,,,,
,,,,,,,,,,,,,FF,,,,,,,,5.497,,,,,,,,,,,,,,,,,,,,,,60fd92f2e5bceebabcd863de,61036c541f359c350597b31a,2021-07-29_22h09.25.055,Simcolourproject_2stim_asymm_v5,2020.2.10,Win32,60,61025ae37ef11b136ea224fe,,,,,,,,,4329,80,-61,1,0,0,response3disk,,5,23,0,1,0,0,rectangle,23,0,1,0,0,23,0,1,0,0,0,23,23,93,1,,,,,,,,
,,,,,,,,,,,,,FF,,,,,,,,3.382,,,,,,,,,,,,,,,,,,,,,,60fd92f2e5bceebabcd863de,61036c541f359c350597b31a,2021-07-29_22h09.25.055,Simcolourproject_2stim_asymm_v5,2020.2.10,Win32,60,61025ae37ef11b136ea224fe,,,,,,,,,4275,27,50,1,0,0,response1disk,,7,0,-19,1,0,0,rectangle,0,-19,1,0,0,0,-19,1,0,0,0,24,24,135,1,,,,,,,,
,,,,,,,,,,,,,FF,,,,,,,,1.969,,,,,,,,,,,,,,,,,,,,,,60fd92f2e5bceebabcd863de,61036c541f359c350597b31a,2021-07-29_22h09.25.055,Simcolourproject_2stim_asymm_v5,2020.2.10,Win32,60,61025ae37ef11b136ea224fe,,,,,,,,,371,-77,-31,1,0,0,response5disk,,2,6,-2,1,0,0,rectangle,6,-2,1,0,0,6,-2,1,0,0,0,25,25,150,1,,,,,,,,
,,,,,,,,,,,,,FF,,,,,,,,1.855,,,,,,,,,,,,,,,,,,,,,,60fd92f2e5bceebabcd863de,61036c541f359c350597b31a,2021-07-29_22h09.25.055,Simcolourproject_2stim_asymm_v5,2020.2.10,Win32,60,61025ae37ef11b136ea224fe,,,,,,,,,226,31,54,1,0,0,response1disk,,7,17,-8,1,0,0,rectangle,-91,27,1,0,0,11,-5,1,0,0,0,26,26,17,1,,response7disk_3,TRUE,1,1,"[47,192,36,242,27,121,208,19,244,138,244,140,231,266,119,77,286,74,302,322]",2,rectangle
,,,,,,,,,,,,,FF,,,,,,,,3.278,,,,,,,,,,,,,,,,,,,,,,60fd92f2e5bceebabcd863de,61036c541f359c350597b31a,2021-07-29_22h09.25.055,Simcolourproject_2stim_asymm_v5,2020.2.10,Win32,60,61025ae37ef11b136ea224fe,,,,,,,,,1608,-80,31,1,0,0,response7disk,,1,30,-5,1,0,0,rectangle,30,-5,1,0,0,30,-5,1,0,0,0,27,27,141,1,,,,,,,,
,,,,,,,,,,,,,FF,,,,,,,,1.54,,,,,,,,,,,,,,,,,,,,,,60fd92f2e5bceebabcd863de,61036c541f359c350597b31a,2021-07-29_22h09.25.055,Simcolourproject_2stim_asymm_v5,2020.2.10,Win32,60,61025ae37ef11b136ea224fe,,,,,,,,,2033,-59,40,1,0,0,response7disk,,1,28,-16,1,0,0,rectangle,28,-16,1,0,0,28,-16,1,0,0,0,28,28,91,1,,,,,,,,
,,,,,,,,,,,,,FF,,,,,,,,3.939,,,,,,,,,,,,,,,,,,,,,,60fd92f2e5bceebabcd863de,61036c541f359c350597b31a,2021-07-29_22h09.25.055,Simcolourproject_2stim_asymm_v5,2020.2.10,Win32,60,61025ae37ef11b136ea224fe,,,,,,,,,2382,89,43,1,0,0,response1disk,,6,20,-10,1,0,0,rectangle,20,-10,1,0,0,20,-10,1,0,0,0,29,29,117,1,,,,,,,,
,,,,,,,,,,,,,FF,,,,,,,,22.344,,,,,,,,,,,,,,,,,,,,,,60fd92f2e5bceebabcd863de,61036c541f359c350597b31a,2021-07-29_22h09.25.055,Simcolourproject_2stim_asymm_v5,2020.2.10,Win32,60,61025ae37ef11b136ea224fe,,,,,,,,,593,92,52,1,0,0,response1disk,,6,-2,2,1,0,0,rectangle,-2,2,1,0,0,-2,2,1,0,0,0,30,30,105,1,,,,,,,,
,,,,,,,,,,,,,FF,,,,,,,,1.908,,,,,,,,,,,,,,,,,,,,,,60fd92f2e5bceebabcd863de,61036c541f359c350597b31a,2021-07-29_22h09.25.055,Simcolourproject_2stim_asymm_v5,2020.2.10,Win32,60,61025ae37ef11b136ea224fe,,,,,,,,,2548,-100,-58,1,0,0,response5disk,,2,-4,-7,1,0,0,rectangle,-4,-7,1,0,0,-4,-7,1,0,0,0,31,31,99,1,,,,,,,,
,,,,,,,,,,,,,FF,,,,,,,,1.183,,,,,,,,,,,,,,,,,,,,,,60fd92f2e5bceebabcd863de,61036c541f359c350597b31a,2021-07-29_22h09.25.055,Simcolourproject_2stim_asymm_v5,2020.2.10,Win32,60,61025ae37ef11b136ea224fe,,,,,,,,,1675,-70,36,1,0,0,response7disk,,1,-12,0,1,0,0,rectangle,-12,0,1,0,0,-12,0,1,0,0,0,32,32,40,1,,,,,,,,
,,,,,,,,,,,,,FF,,,,,,,,1.734,,,,,,,,,,,,,,,,,,,,,,60fd92f2e5bceebabcd863de,61036c541f359c350597b31a,2021-07-29_22h09.25.055,Simcolourproject_2stim_asymm_v5,2020.2.10,Win32,60,61025ae37ef11b136ea224fe,,,,,,,,,2788,23,-103,1,0,0,response3disk,,4,-20,0,1,0,0,rectangle,-20,0,1,0,0,-20,0,1,0,0,0,33,33,84,1,,,,,,,,
,,,,,,,,,,,,,FF,,,,,,,,1.357,,,,,,,,,,,,,,,,,,,,,,60fd92f2e5bceebabcd863de,61036c541f359c350597b31a,2021-07-29_22h09.25.055,Simcolourproject_2stim_asymm_v5,2020.2.10,Win32,60,61025ae37ef11b136ea224fe,,,,,,,,,223,34,78,1,0,0,response1disk,,7,7,8,1,0,0,rectangle,7,8,1,0,0,7,8,1,0,0,0,34,34,62,1,,,,,,,,
,,,,,,,,,,,,,FF,,,,,,,,0.631,,,,,,,,,,,,,,,,,,,,,,60fd92f2e5bceebabcd863de,61036c541f359c350597b31a,2021-07-29_22h09.25.055,Simcolourproject_2stim_asymm_v5,2020.2.10,Win32,60,61025ae37ef11b136ea224fe,,,,,,,,,3316,30,82,1,0,0,response1disk,,7,26,-5,1,0,0,rectangle,-88,-46,1,0,0,3,5,1,0,0,0,35,35,55,1,,response5disk_3,TRUE,2,2,"[47,192,36,242,27,121,208,19,244,138,244,140,231,266,119,77,286,74,302,322]",2.284,rectangle
,,,,,,,,,,,,,FF,,,,,,,,2.243,,,,,,,,,,,,,,,,,,,,,,60fd92f2e5bceebabcd863de,61036c541f359c350597b31a,2021-07-29_22h09.25.055,Simcolourproject_2stim_asymm_v5,2020.2.10,Win32,60,61025ae37ef11b136ea224fe,,,,,,,,,3397,-28,-93,1,0,0,response5disk,,3,-3,-11,1,0,0,rectangle,-3,-11,1,0,0,-3,-11,1,0,0,0,36,36,34,1,,,,,,,,
,,,,,,,,,,,,,FF,,,,,,,,1.212,,,,,,,,,,,,,,,,,,,,,,60fd92f2e5bceebabcd863de,61036c541f359c350597b31a,2021-07-29_22h09.25.055,Simcolourproject_2stim_asymm_v5,2020.2.10,Win32,60,61025ae37ef11b136ea224fe,,,,,,,,,1373,-62,-38,1,0,0,response5disk,,2,-5,-5,1,0,0,rectangle,-5,-5,1,0,0,-5,-5,1,0,0,0,37,37,35,1,,,,,,,,
,,,,,,,,,,,,,FF,,,,,,,,10.055,,,,,,,,,,,,,,,,,,,,,,60fd92f2e5bceebabcd863de,61036c541f359c350597b31a,2021-07-29_22h09.25.055,Simcolourproject_2stim_asymm_v5,2020.2.10,Win32,60,61025ae37ef11b136ea224fe,,,,,,,,,360,55,91,1,0,0,response1disk,,7,27,10,1,0,0,rectangle,27,10,1,0,0,27,10,1,0,0,0,38,38,109,1,,,,,,,,
,,,,,,,,,,,,,FF,,,,,,,,1.958,,,,,,,,,,,,,,,,,,,,,,60fd92f2e5bceebabcd863de,61036c541f359c350597b31a,2021-07-29_22h09.25.055,Simcolourproject_2stim_asymm_v5,2020.2.10,Win32,60,61025ae37ef11b136ea224fe,,,,,,,,,2867,54,66,1,0,0,response1disk,,7,8,-10,1,0,0,rectangle,8,-10,1,0,0,8,-10,1,0,0,0,39,39,65,1,,,,,,,,
,,,,,,,,,,,,,FF,,,,,,,,2.212,,,,,,,,,,,,,,,,,,,,,,60fd92f2e5bceebabcd863de,61036c541f359c350597b31a,2021-07-29_22h09.25.055,Simcolourproject_2stim_asymm_v5,2020.2.10,Win32,60,61025ae37ef11b136ea224fe,,,,,,,,,4133,60,42,1,0,0,response1disk,,6,26,0,1,0,0,rectangle,26,0,1,0,0,26,0,1,0,0,0,40,40,13,1,,,,,,,,
,,,,,,,,,,,,,FF,,,,,,,,2.709,,,,,,,,,,,,,,,,,,,,,,60fd92f2e5bceebabcd863de,61036c541f359c350597b31a,2021-07-29_22h09.25.055,Simcolourproject_2stim_asymm_v5,2020.2.10,Win32,60,61025ae37ef11b136ea224fe,,,,,,,,,120,100,-55,1,0,0,response3disk,,5,19,-5,1,0,0,rectangle,19,-5,1,0,0,19,-5,1,0,0,0,41,41,48,1,,,,,,,,
,,,,,,,,,,,,,FF,,,,,,,,0.843,,,,,,,,,,,,,,,,,,,,,,60fd92f2e5bceebabcd863de,61036c541f359c350597b31a,2021-07-29_22h09.25.055,Simcolourproject_2stim_asymm_v5,2020.2.10,Win32,60,61025ae37ef11b136ea224fe,,,,,,,,,2458,38,75,1,0,0,response1disk,,7,18,5,1,0,0,rectangle,18,5,1,0,0,18,5,1,0,0,0,42,42,120,1,,,,,,,,
,,,,,,,,,,,,,FF,,,,,,,,1.497,,,,,,,,,,,,,,,,,,,,,,60fd92f2e5bceebabcd863de,61036c541f359c350597b31a,2021-07-29_22h09.25.055,Simcolourproject_2stim_asymm_v5,2020.2.10,Win32,60,61025ae37ef11b136ea224fe,,,,,,,,,138,22,45,1,0,0,response1disk,,7,15,7,1,0,0,rectangle,15,7,1,0,0,15,7,1,0,0,0,43,43,95,1,,,,,,,,
,,,,,,,,,,,,,FF,,,,,,,,2.958,,,,,,,,,,,,,,,,,,,,,,60fd92f2e5bceebabcd863de,61036c541f359c350597b31a,2021-07-29_22h09.25.055,Simcolourproject_2stim_asymm_v5,2020.2.10,Win32,60,61025ae37ef11b136ea224fe,,,,,,,,,696,36,-77,1,0,0,response3disk,,4,33,-5,1,0,0,rectangle,33,-5,1,0,0,33,-5,1,0,0,0,44,44,106,1,,,,,,,,
,,,,,,,,,,,,,FF,,,,,,,,7.036,,,,,,,,,,,,,,,,,,,,,,60fd92f2e5bceebabcd863de,61036c541f359c350597b31a,2021-07-29_22h09.25.055,Simcolourproject_2stim_asymm_v5,2020.2.10,Win32,60,61025ae37ef11b136ea224fe,,,,,,,,,2529,36,59,1,0,0,response1disk,,7,20,-10,1,0,0,rectangle,20,-10,1,0,0,20,-10,1,0,0,0,45,45,121,1,,,,,,,,
,,,,,,,,,,,,,FF,,,,,,,,5.078,,,,,,,,,,,,,,,,,,,,,,60fd92f2e5bceebabcd863de,61036c541f359c350597b31a,2021-07-29_22h09.25.055,Simcolourproject_2stim_asymm_v5,2020.2.10,Win32,60,61025ae37ef11b136ea224fe,,,,,,,,,1120,-34,-88,1,0,0,response5disk,,3,11,-12,1,0,0,rectangle,57,99,1,0,0,0,-8,1,0,0,0,46,46,78,1,,response1disk_3,TRUE,7,7,"[47,192,36,242,27,121,208,19,244,138,244,140,231,266,119,77,286,74,302,322]",2.406,rectangle
,,,,,,,,,,,,,FF,,,,,,,,6.315,,,,,,,,,,,,,,,,,,,,,,60fd92f2e5bceebabcd863de,61036c541f359c350597b31a,2021-07-29_22h09.25.055,Simcolourproject_2stim_asymm_v5,2020.2.10,Win32,60,61025ae37ef11b136ea224fe,,,,,,,,,1103,34,54,1,0,0,response1disk,,7,17,0,1,0,0,rectangle,17,0,1,0,0,17,0,1,0,0,0,47,47,11,1,,,,,,,,
,,,,,,,,,,,,,FF,,,,,,,,2.012,,,,,,,,,,,,,,,,,,,,,,60fd92f2e5bceebabcd863de,61036c541f359c350597b31a,2021-07-29_22h09.25.055,Simcolourproject_2stim_asymm_v5,2020.2.10,Win32,60,61025ae37ef11b136ea224fe,,,,,,,,,2554,-43,-65,1,0,0,response5disk,,3,16,-3,1,0,0,rectangle,16,-3,1,0,0,16,-3,1,0,0,0,48,48,31,1,,,,,,,,
,,,,,,,,,,,,,FF,,,,,,,,1.219,,,,,,,,,,,,,,,,,,,,,,60fd92f2e5bceebabcd863de,61036c541f359c350597b31a,2021-07-29_22h09.25.055,Simcolourproject_2stim_asymm_v5,2020.2.10,Win32,60,61025ae37ef11b136ea224fe,,,,,,,,,2973,33,56,1,0,0,response1disk,,7,12,-6,1,0,0,rectangle,12,-6,1,0,0,12,-6,1,0,0,0,49,49,14,1,,,,,,,,
,,,,,,,,,,,,,FF,,,,,,,,0.909,,,,,,,,,,,,,,,,,,,,,,60fd92f2e5bceebabcd863de,61036c541f359c350597b31a,2021-07-29_22h09.25.055,Simcolourproject_2stim_asymm_v5,2020.2.10,Win32,60,61025ae37ef11b136ea224fe,,,,,,,,,2253,30,48,1,0,0,response1disk,,7,8,-8,1,0,0,rectangle,8,-8,1,0,0,8,-8,1,0,0,0,50,50,18,1,,,,,,,,
,,,,,,,,,,,,,FF,,,,,,,,1.722,,,,,,,,,,,,,,,,,,,,,,60fd92f2e5bceebabcd863de,61036c541f359c350597b31a,2021-07-29_22h09.25.055,Simcolourproject_2stim_asymm_v5,2020.2.10,Win32,60,61025ae37ef11b136ea224fe,,,,,,,,,2824,-44,-71,1,0,0,response5disk,,3,13,-2,1,0,0,rectangle,13,-2,1,0,0,13,-2,1,0,0,0,51,51,0,1,,,,,,,,
,,,,,,,,,,,,,FF,,,,,,,,1.473,,,,,,,,,,,,,,,,,,,,,,60fd92f2e5bceebabcd863de,61036c541f359c350597b31a,2021-07-29_22h09.25.055,Simcolourproject_2stim_asymm_v5,2020.2.10,Win32,60,61025ae37ef11b136ea224fe,,,,,,,,,3565,-76,-45,1,0,0,response5disk,,2,7,-13,1,0,0,rectangle,7,-13,1,0,0,7,-13,1,0,0,0,52,52,156,1,,,,,,,,
,,,,,,,,,,,,,FF,,,,,,,,3.073,,,,,,,,,,,,,,,,,,,,,,60fd92f2e5bceebabcd863de,61036c541f359c350597b31a,2021-07-29_22h09.25.055,Simcolourproject_2stim_asymm_v5,2020.2.10,Win32,60,61025ae37ef11b136ea224fe,,,,,,,,,1863,39,48,1,0,0,response1disk,,7,23,6,1,0,0,rectangle,23,6,1,0,0,23,6,1,0,0,0,53,53,102,1,,,,,,,,
,,,,,,,,,,,,,FF,,,,,,,,2.005,,,,,,,,,,,,,,,,,,,,,,60fd92f2e5bceebabcd863de,61036c541f359c350597b31a,2021-07-29_22h09.25.055,Simcolourproject_2stim_asymm_v5,2020.2.10,Win32,60,61025ae37ef11b136ea224fe,,,,,,,,,1530,-35,-61,1,0,0,response5disk,,3,19,4,1,0,0,rectangle,19,4,1,0,0,19,4,1,0,0,0,54,54,134,1,,,,,,,,
,,,,,,,,,,,,,FF,,,,,,,,1.545,,,,,,,,,,,,,,,,,,,,,,60fd92f2e5bceebabcd863de,61036c541f359c350597b31a,2021-07-29_22h09.25.055,Simcolourproject_2stim_asymm_v5,2020.2.10,Win32,60,61025ae37ef11b136ea224fe,,,,,,,,,2387,44,-82,1,0,0,response3disk,,4,22,-11,1,0,0,rectangle,22,-11,1,0,0,22,-11,1,0,0,0,55,55,44,1,,,,,,,,
,,,,,,,,,,,,,FF,,,,,,,,1.806,,,,,,,,,,,,,,,,,,,,,,60fd92f2e5bceebabcd863de,61036c541f359c350597b31a,2021-07-29_22h09.25.055,Simcolourproject_2stim_asymm_v5,2020.2.10,Win32,60,61025ae37ef11b136ea224fe,,,,,,,,,3528,32,59,1,0,0,response1disk,,7,24,0,1,0,0,rectangle,24,0,1,0,0,24,0,1,0,0,0,56,56,112,1,,,,,,,,
,,,,,,,,,,,,,FF,,,,,,,,1.879,,,,,,,,,,,,,,,,,,,,,,60fd92f2e5bceebabcd863de,61036c541f359c350597b31a,2021-07-29_22h09.25.055,Simcolourproject_2stim_asymm_v5,2020.2.10,Win32,60,61025ae37ef11b136ea224fe,,,,,,,,,1857,33,48,1,0,0,response1disk,,7,24,1,1,0,0,rectangle,24,1,1,0,0,24,1,1,0,0,0,57,57,138,1,,,,,,,,
,,,,,,,,,,,,,FF,,,,,,,,0.655,,,,,,,,,,,,,,,,,,,,,,60fd92f2e5bceebabcd863de,61036c541f359c350597b31a,2021-07-29_22h09.25.055,Simcolourproject_2stim_asymm_v5,2020.2.10,Win32,60,61025ae37ef11b136ea224fe,,,,,,,,,3955,33,44,1,0,0,response1disk,,7,23,-7,1,0,0,rectangle,23,-7,1,0,0,23,-7,1,0,0,0,58,58,101,1,,,,,,,,
,,,,,,,,,,,,,FF,,,,,,,,0.782,,,,,,,,,,,,,,,,,,,,,,60fd92f2e5bceebabcd863de,61036c541f359c350597b31a,2021-07-29_22h09.25.055,Simcolourproject_2stim_asymm_v5,2020.2.10,Win32,60,61025ae37ef11b136ea224fe,,,,,,,,,308,29,54,1,0,0,response1disk,,7,30,8,1,0,0,rectangle,30,8,1,0,0,30,8,1,0,0,0,59,59,152,1,,,,,,,,
,,,,,,,,,,,,,FF,,,,,,,,2.03,,,,,,,,,,,,,,,,,,,,,,60fd92f2e5bceebabcd863de,61036c541f359c350597b31a,2021-07-29_22h09.25.055,Simcolourproject_2stim_asymm_v5,2020.2.10,Win32,60,61025ae37ef11b136ea224fe,,,,,,,,,191,-36,-57,1,0,0,response5disk,,3,8,0,1,0,0,rectangle,8,0,1,0,0,8,0,1,0,0,0,60,60,113,1,,,,,,,,
,,,,,,,,,,,,,FF,,,,,,,,0.921,,,,,,,,,,,,,,,,,,,,,,60fd92f2e5bceebabcd863de,61036c541f359c350597b31a,2021-07-29_22h09.25.055,Simcolourproject_2stim_asymm_v5,2020.2.10,Win32,60,61025ae37ef11b136ea224fe,,,,,,,,,3272,44,56,1,0,0,response1disk,,7,32,1,1,0,0,rectangle,32,1,1,0,0,32,1,1,0,0,0,61,61,144,1,,,,,,,,
,,,,,,,,,,,,,FF,,,,,,,,1.503,,,,,,,,,,,,,,,,,,,,,,60fd92f2e5bceebabcd863de,61036c541f359c350597b31a,2021-07-29_22h09.25.055,Simcolourproject_2stim_asymm_v5,2020.2.10,Win32,60,61025ae37ef11b136ea224fe,,,,,,,,,901,-69,-38,1,0,0,response5disk,,2,6,11,1,0,0,rectangle,6,11,1,0,0,6,11,1,0,0,0,62,62,157,1,,,,,,,,
,,,,,,,,,,,,,FF,,,,,,,,1.667,,,,,,,,,,,,,,,,,,,,,,60fd92f2e5bceebabcd863de,61036c541f359c350597b31a,2021-07-29_22h09.25.055,Simcolourproject_2stim_asymm_v5,2020.2.10,Win32,60,61025ae37ef11b136ea224fe,,,,,,,,,1345,30,-77,1,0,0,response3disk,,4,23,2,1,0,0,rectangle,23,2,1,0,0,23,2,1,0,0,0,63,63,103,1,,,,,,,,
,,,,,,,,,,,,,FF,,,,,,,,1.424,,,,,,,,,,,,,,,,,,,,,,60fd92f2e5bceebabcd863de,61036c541f359c350597b31a,2021-07-29_22h09.25.055,Simcolourproject_2stim_asymm_v5,2020.2.10,Win32,60,61025ae37ef11b136ea224fe,,,,,,,,,852,20,-70,1,0,0,response3disk,,4,16,-10,1,0,0,rectangle,16,-10,1,0,0,16,-10,1,0,0,0,64,64,124,1,,,,,,,,
,,,,,,,,,,,,,FF,,,,,,,,3.236,,,,,,,,,,,,,,,,,,,,,,60fd92f2e5bceebabcd863de,61036c541f359c350597b31a,2021-07-29_22h09.25.055,Simcolourproject_2stim_asymm_v5,2020.2.10,Win32,60,61025ae37ef11b136ea224fe,,,,,,,,,2889,-88,-37,1,0,0,response5disk,,2,-10,5,1,0,0,rectangle,-10,5,1,0,0,-10,5,1,0,0,0,65,65,96,1,,,,,,,,
,,,,,,,,,,,,,FF,,,,,,,,1.824,,,,,,,,,,,,,,,,,,,,,,60fd92f2e5bceebabcd863de,61036c541f359c350597b31a,2021-07-29_22h09.25.055,Simcolourproject_2stim_asymm_v5,2020.2.10,Win32,60,61025ae37ef11b136ea224fe,,,,,,,,,753,61,44,1,0,0,response1disk,,6,9,13,1,0,0,rectangle,9,13,1,0,0,9,13,1,0,0,0,66,66,132,1,,,,,,,,
,,,,,,,,,,,,,FF,,,,,,,,2.418,,,,,,,,,,,,,,,,,,,,,,60fd92f2e5bceebabcd863de,61036c541f359c350597b31a,2021-07-29_22h09.25.055,Simcolourproject_2stim_asymm_v5,2020.2.10,Win32,60,61025ae37ef11b136ea224fe,,,,,,,,,648,98,-55,1,0,0,response3disk,,5,11,-1,1,0,0,rectangle,11,-1,1,0,0,11,-1,1,0,0,0,67,67,118,1,,,,,,,,
,,,,,,,,,,,,,FF,,,,,,,,1.224,,,,,,,,,,,,,,,,,,,,,,60fd92f2e5bceebabcd863de,61036c541f359c350597b31a,2021-07-29_22h09.25.055,Simcolourproject_2stim_asymm_v5,2020.2.10,Win32,60,61025ae37ef11b136ea224fe,,,,,,,,,3162,-21,-76,1,0,0,response5disk,,3,14,-9,1,0,0,rectangle,14,-9,1,0,0,14,-9,1,0,0,0,68,68,100,1,,,,,,,,
,,,,,,,,,,,,,FF,,,,,,,,1.461,,,,,,,,,,,,,,,,,,,,,,60fd92f2e5bceebabcd863de,61036c541f359c350597b31a,2021-07-29_22h09.25.055,Simcolourproject_2stim_asymm_v5,2020.2.10,Win32,60,61025ae37ef11b136ea224fe,,,,,,,,,3475,-85,27,1,0,0,response7disk,,1,10,10,1,0,0,rectangle,10,10,1,0,0,10,10,1,0,0,0,69,69,119,1,,,,,,,,
,,,,,,,,,,,,,FF,,,,,,,,0.71,,,,,,,,,,,,,,,,,,,,,,60fd92f2e5bceebabcd863de,61036c541f359c350597b31a,2021-07-29_22h09.25.055,Simcolourproject_2stim_asymm_v5,2020.2.10,Win32,60,61025ae37ef11b136ea224fe,,,,,,,,,1597,-61,44,1,0,0,response7disk,,1,25,4,1,0,0,rectangle,25,4,1,0,0,25,4,1,0,0,0,70,70,24,1,,,,,,,,
,,,,,,,,,,,,,FF,,,,,,,,5.843,,,,,,,,,,,,,,,,,,,,,,60fd92f2e5bceebabcd863de,61036c541f359c350597b31a,2021-07-29_22h09.25.055,Simcolourproject_2stim_asymm_v5,2020.2.10,Win32,60,61025ae37ef11b136ea224fe,,,,,,,,,3383,-54,-24,1,0,0,response5disk,,2,-1,-2,1,0,0,rectangle,-1,-2,1,0,0,-1,-2,1,0,0,0,71,71,136,1,,,,,,,,
,,,,,,,,,,,,,FF,,,,,,,,2.218,,,,,,,,,,,,,,,,,,,,,,60fd92f2e5bceebabcd863de,61036c541f359c350597b31a,2021-07-29_22h09.25.055,Simcolourproject_2stim_asymm_v5,2020.2.10,Win32,60,61025ae37ef11b136ea224fe,,,,,,,,,2097,-30,-62,1,0,0,response5disk,,3,9,-6,1,0,0,rectangle,9,-6,1,0,0,9,-6,1,0,0,0,72,72,72,1,,,,,,,,
,,,,,,,,,,,,,FF,,,,,,,,4.419,,,,,,,,,,,,,,,,,,,,,,60fd92f2e5bceebabcd863de,61036c541f359c350597b31a,2021-07-29_22h09.25.055,Simcolourproject_2stim_asymm_v5,2020.2.10,Win32,60,61025ae37ef11b136ea224fe,,,,,,,,,4108,29,-45,1,0,0,response3disk,,4,-9,1,1,0,0,rectangle,-109,61,1,0,0,-8,-9,1,0,0,0,73,73,68,1,,response7disk_3,TRUE,1,1,"[47,192,36,242,27,121,208,19,244,138,244,140,231,266,119,77,286,74,302,322]",1.534,rectangle
,,,,,,,,,,,,,FF,,,,,,,,0.872,,,,,,,,,,,,,,,,,,,,,,60fd92f2e5bceebabcd863de,61036c541f359c350597b31a,2021-07-29_22h09.25.055,Simcolourproject_2stim_asymm_v5,2020.2.10,Win32,60,61025ae37ef11b136ea224fe,,,,,,,,,1684,-71,27,1,0,0,response7disk,,1,8,-4,1,0,0,rectangle,8,-4,1,0,0,8,-4,1,0,0,0,74,74,57,1,,,,,,,,
,,,,,,,,,,,,,FF,,,,,,,,2.988,,,,,,,,,,,,,,,,,,,,,,60fd92f2e5bceebabcd863de,61036c541f359c350597b31a,2021-07-29_22h09.25.055,Simcolourproject_2stim_asymm_v5,2020.2.10,Win32,60,61025ae37ef11b136ea224fe,,,,,,,,,1565,30,-59,1,0,0,response3disk,,4,10,-2,1,0,0,rectangle,10,-2,1,0,0,10,-2,1,0,0,0,75,75,23,1,,,,,,,,
,,,,,,,,,,,,,FF,,,,,,,,0.989,,,,,,,,,,,,,,,,,,,,,,60fd92f2e5bceebabcd863de,61036c541f359c350597b31a,2021-07-29_22h09.25.055,Simcolourproject_2stim_asymm_v5,2020.2.10,Win32,60,61025ae37ef11b136ea224fe,,,,,,,,,3411,39,71,1,0,0,response1disk,,7,22,-5,1,0,0,rectangle,-62,47,1,0,0,19,-3,1,0,0,0,76,76,110,1,,response7disk_3,TRUE,1,1,"[47,192,36,242,27,121,208,19,244,138,244,140,231,266,119,77,286,74,302,322]",1.582,rectangle
,,,,,,,,,,,,,FF,,,,,,,,0.909,,,,,,,,,,,,,,,,,,,,,,60fd92f2e5bceebabcd863de,61036c541f359c350597b31a,2021-07-29_22h09.25.055,Simcolourproject_2stim_asymm_v5,2020.2.10,Win32,60,61025ae37ef11b136ea224fe,,,,,,,,,4365,-37,84,1,0,0,response7disk,,0,0,0,1,0,0,rectangle,0,0,1,0,0,0,0,1,0,0,0,77,77,86,1,,,,,,,,
,,,,,,,,,,,,,FF,,,,,,,,0.692,,,,,,,,,,,,,,,,,,,,,,60fd92f2e5bceebabcd863de,61036c541f359c350597b31a,2021-07-29_22h09.25.055,Simcolourproject_2stim_asymm_v5,2020.2.10,Win32,60,61025ae37ef11b136ea224fe,,,,,,,,,3778,-79,30,1,0,0,response7disk,,1,-13,-3,1,0,0,rectangle,-13,-3,1,0,0,-13,-3,1,0,0,0,78,78,128,1,,,,,,,,
,,,,,,,,,,,,,FF,,,,,,,,3.728,,,,,,,,,,,,,,,,,,,,,,60fd92f2e5bceebabcd863de,61036c541f359c350597b31a,2021-07-29_22h09.25.055,Simcolourproject_2stim_asymm_v5,2020.2.10,Win32,60,61025ae37ef11b136ea224fe,,,,,,,,,3387,22,-56,1,0,0,response3disk,,4,3,0,1,0,0,rectangle,3,0,1,0,0,3,0,1,0,0,0,79,79,82,1,,,,,,,,
,,,,,,,,,,,,,FF,,,,,,,,1.674,,,,,,,,,,,,,,,,,,,,,,60fd92f2e5bceebabcd863de,61036c541f359c350597b31a,2021-07-29_22h09.25.055,Simcolourproject_2stim_asymm_v5,2020.2.10,Win32,60,61025ae37ef11b136ea224fe,,,,,,,,,2940,-41,80,1,0,0,response7disk,,0,-8,5,1,0,0,rectangle,-8,5,1,0,0,-8,5,1,0,0,0,80,80,54,1,,,,,,,,
,,,,,,,,,,,,,FF,,,,,,,,2.128,,,,,,,,,,,,,,,,,,,,,,60fd92f2e5bceebabcd863de,61036c541f359c350597b31a,2021-07-29_22h09.25.055,Simcolourproject_2stim_asymm_v5,2020.2.10,Win32,60,61025ae37ef11b136ea224fe,,,,,,,,,325,23,60,1,0,0,response1disk,,7,3,-3,1,0,0,rectangle,3,-3,1,0,0,3,-3,1,0,0,0,81,81,154,1,,,,,,,,
,,,,,,,,,,,,,FF,,,,,,,,0.806,,,,,,,,,,,,,,,,,,,,,,60fd92f2e5bceebabcd863de,61036c541f359c350597b31a,2021-07-29_22h09.25.055,Simcolourproject_2stim_asymm_v5,2020.2.10,Win32,60,61025ae37ef11b136ea224fe,,,,,,,,,2507,41,66,1,0,0,response1disk,,7,17,5,1,0,0,rectangle,17,5,1,0,0,17,5,1,0,0,0,82,82,21,1,,,,,,,,
,,,,,,,,,,,,,FF,,,,,,,,1.231,,,,,,,,,,,,,,,,,,,,,,60fd92f2e5bceebabcd863de,61036c541f359c350597b31a,2021-07-29_22h09.25.055,Simcolourproject_2stim_asymm_v5,2020.2.10,Win32,60,61025ae37ef11b136ea224fe,,,,,,,,,2727,-43,-80,1,0,0,response5disk,,3,28,2,1,0,0,rectangle,28,2,1,0,0,28,2,1,0,0,0,83,83,49,1,,,,,,,,
,,,,,,,,,,,,,FF,,,,,,,,1.109,,,,,,,,,,,,,,,,,,,,,,60fd92f2e5bceebabcd863de,61036c541f359c350597b31a,2021-07-29_22h09.25.055,Simcolourproject_2stim_asymm_v5,2020.2.10,Win32,60,61025ae37ef11b136ea224fe,,,,,,,,,75,28,-62,1,0,0,response3disk,,4,-2,-9,1,0,0,rectangle,-2,-9,1,0,0,-2,-9,1,0,0,0,84,84,63,1,,,,,,,,
,,,,,,,,,,,,,FF,,,,,,,,1.661,,,,,,,,,,,,,,,,,,,,,,60fd92f2e5bceebabcd863de,61036c541f359c350597b31a,2021-07-29_22h09.25.055,Simcolourproject_2stim_asymm_v5,2020.2.10,Win32,60,61025ae37ef11b136ea224fe,,,,,,,,,4363,-66,-34,1,0,0,response5disk,,2,3,16,1,0,0,rectangle,3,16,1,0,0,3,16,1,0,0,0,85,85,71,1,,,,,,,,
,,,,,,,,,,,,,FF,,,,,,,,1.225,,,,,,,,,,,,,,,,,,,,,,60fd92f2e5bceebabcd863de,61036c541f359c350597b31a,2021-07-29_22h09.25.055,Simcolourproject_2stim_asymm_v5,2020.2.10,Win32,60,61025ae37ef11b136ea224fe,,,,,,,,,3913,-21,-51,1,0,0,response5disk,,3,-4,-11,1,0,0,rectangle,-4,-11,1,0,0,-4,-11,1,0,0,0,86,86,36,1,,,,,,,,
,,,,,,,,,,,,,FF,,,,,,,,1.74,,,,,,,,,,,,,,,,,,,,,,60fd92f2e5bceebabcd863de,61036c541f359c350597b31a,2021-07-29_22h09.25.055,Simcolourproject_2stim_asymm_v5,2020.2.10,Win32,60,61025ae37ef11b136ea224fe,,,,,,,,,4137,29,54,1,0,0,response1disk,,7,8,0,1,0,0,rectangle,8,0,1,0,0,8,0,1,0,0,0,87,87,61,1,,,,,,,,
,,,,,,,,,,,,,FF,,,,,,,,1.405,,,,,,,,,,,,,,,,,,,,,,60fd92f2e5bceebabcd863de,61036c541f359c350597b31a,2021-07-29_22h09.25.055,Simcolourproject_2stim_asymm_v5,2020.2.10,Win32,60,61025ae37ef11b136ea224fe,,,,,,,,,1928,51,40,1,0,0,response1disk,,6,33,-2,1,0,0,rectangle,33,-2,1,0,0,33,-2,1,0,0,0,88,88,69,1,,,,,,,,
,,,,,,,,,,,,,FF,,,,,,,,2.134,,,,,,,,,,,,,,,,,,,,,,60fd92f2e5bceebabcd863de,61036c541f359c350597b31a,2021-07-29_22h09.25.055,Simcolourproject_2stim_asymm_v5,2020.2.10,Win32,60,61025ae37ef11b136ea224fe,,,,,,,,,3441,34,66,1,0,0,response1disk,,7,24,17,1,0,0,rectangle,24,17,1,0,0,24,17,1,0,0,0,89,89,111,1,,,,,,,,
,,,,,,,,,,,,,FF,,,,,,,,3.533,,,,,,,,,,,,,,,,,,,,,,60fd92f2e5bceebabcd863de,61036c541f359c350597b31a,2021-07-29_22h09.25.055,Simcolourproject_2stim_asymm_v5,2020.2.10,Win32,60,61025ae37ef11b136ea224fe,,,,,,,,,4306,-33,-52,1,0,0,response5disk,,3,-14,10,1,0,0,rectangle,-14,10,1,0,0,-14,10,1,0,0,0,90,90,153,1,,,,,,,,
,,,,,,,,,,,,,FF,,,,,,,,0.847,,,,,,,,,,,,,,,,,,,,,,60fd92f2e5bceebabcd863de,61036c541f359c350597b31a,2021-07-29_22h09.25.055,Simcolourproject_2stim_asymm_v5,2020.2.10,Win32,60,61025ae37ef11b136ea224fe,,,,,,,,,3777,-74,-40,1,0,0,response5disk,,2,-7,-14,1,0,0,rectangle,-7,-14,1,0,0,-7,-14,1,0,0,0,91,91,125,1,,,,,,,,
,,,,,,,,,,,,,FF,,,,,,,,1.812,,,,,,,,,,,,,,,,,,,,,,60fd92f2e5bceebabcd863de,61036c541f359c350597b31a,2021-07-29_22h09.25.055,Simcolourproject_2stim_asymm_v5,2020.2.10,Win32,60,61025ae37ef11b136ea224fe,,,,,,,,,1548,51,36,1,0,0,response1disk,,6,-5,7,1,0,0,rectangle,-5,7,1,0,0,-5,7,1,0,0,0,92,92,97,1,,,,,,,,
,,,,,,,,,,,,,FF,,,,,,,,2.25,,,,,,,,,,,,,,,,,,,,,,60fd92f2e5bceebabcd863de,61036c541f359c350597b31a,2021-07-29_22h09.25.055,Simcolourproject_2stim_asymm_v5,2020.2.10,Win32,60,61025ae37ef11b136ea224fe,,,,,,,,,3681,42,57,1,0,0,response1disk,,7,21,1,1,0,0,rectangle,21,1,1,0,0,21,1,1,0,0,0,93,93,4,1,,,,,,,,
,,,,,,,,,,,,,FF,,,,,,,,1.23,,,,,,,,,,,,,,,,,,,,,,60fd92f2e5bceebabcd863de,61036c541f359c350597b31a,2021-07-29_22h09.25.055,Simcolourproject_2stim_asymm_v5,2020.2.10,Win32,60,61025ae37ef11b136ea224fe,,,,,,,,,2045,54,28,1,0,0,response1disk,,6,-2,-1,1,0,0,rectangle,-2,-1,1,0,0,-2,-1,1,0,0,0,94,94,38,1,,,,,,,,
,,,,,,,,,,,,,FF,,,,,,,,1.758,,,,,,,,,,,,,,,,,,,,,,60fd92f2e5bceebabcd863de,61036c541f359c350597b31a,2021-07-29_22h09.25.055,Simcolourproject_2stim_asymm_v5,2020.2.10,Win32,60,61025ae37ef11b136ea224fe,,,,,,,,,569,75,-46,1,0,0,response3disk,,5,2,-10,1,0,0,rectangle,2,-10,1,0,0,2,-10,1,0,0,0,95,95,32,1,,,,,,,,
,,,,,,,,,,,,,FF,,,,,,,,1.212,,,,,,,,,,,,,,,,,,,,,,60fd92f2e5bceebabcd863de,61036c541f359c350597b31a,2021-07-29_22h09.25.055,Simcolourproject_2stim_asymm_v5,2020.2.10,Win32,60,61025ae37ef11b136ea224fe,,,,,,,,,3024,41,56,1,0,0,response1disk,,7,24,9,1,0,0,rectangle,24,9,1,0,0,24,9,1,0,0,0,96,96,75,1,,,,,,,,
,,,,,,,,,,,,,FF,,,,,,,,3.716,,,,,,,,,,,,,,,,,,,,,,60fd92f2e5bceebabcd863de,61036c541f359c350597b31a,2021-07-29_22h09.25.055,Simcolourproject_2stim_asymm_v5,2020.2.10,Win32,60,61025ae37ef11b136ea224fe,,,,,,,,,4169,20,-46,1,0,0,response3disk,,4,1,3,1,0,0,rectangle,1,3,1,0,0,1,3,1,0,0,0,97,97,25,1,,,,,,,,
,,,,,,,,,,,,,FF,,,,,,,,1.909,,,,,,,,,,,,,,,,,,,,,,60fd92f2e5bceebabcd863de,61036c541f359c350597b31a,2021-07-29_22h09.25.055,Simcolourproject_2stim_asymm_v5,2020.2.10,Win32,60,61025ae37ef11b136ea224fe,,,,,,,,,2060,42,73,1,0,0,response1disk,,7,0,-8,1,0,0,rectangle,0,-8,1,0,0,0,-8,1,0,0,0,98,98,50,1,,,,,,,,
,,,,,,,,,,,,,FF,,,,,,,,0.848,,,,,,,,,,,,,,,,,,,,,,60fd92f2e5bceebabcd863de,61036c541f359c350597b31a,2021-07-29_22h09.25.055,Simcolourproject_2stim_asymm_v5,2020.2.10,Win32,60,61025ae37ef11b136ea224fe,,,,,,,,,2528,33,56,1,0,0,response1disk,,7,7,-14,1,0,0,rectangle,7,-14,1,0,0,7,-14,1,0,0,0,99,99,28,1,,,,,,,,
,,,,,,,,,,,,,FF,,,,,,,,10.564,,,,,,,,,,,,,,,,,,,,,,60fd92f2e5bceebabcd863de,61036c541f359c350597b31a,2021-07-29_22h09.25.055,Simcolourproject_2stim_asymm_v5,2020.2.10,Win32,60,61025ae37ef11b136ea224fe,,,,,,,,,2505,30,40,1,0,0,response1disk,,7,17,4,1,0,0,rectangle,17,4,1,0,0,17,4,1,0,0,0,100,100,60,1,,,,,,,,
,,,,,,,,,,,,,FF,,,,,,,,2.91,,,,,,,,,,,,,,,,,,,,,,60fd92f2e5bceebabcd863de,61036c541f359c350597b31a,2021-07-29_22h09.25.055,Simcolourproject_2stim_asymm_v5,2020.2.10,Win32,60,61025ae37ef11b136ea224fe,,,,,,,,,2962,34,56,1,0,0,response1disk,,7,9,5,1,0,0,rectangle,9,5,1,0,0,9,5,1,0,0,0,101,101,2,1,,,,,,,,
,,,,,,,,,,,,,FF,,,,,,,,4.163,,,,,,,,,,,,,,,,,,,,,,60fd92f2e5bceebabcd863de,61036c541f359c350597b31a,2021-07-29_22h09.25.055,Simcolourproject_2stim_asymm_v5,2020.2.10,Win32,60,61025ae37ef11b136ea224fe,,,,,,,,,151,80,-46,1,0,0,response3disk,,5,-4,0,1,0,0,rectangle,-4,0,1,0,0,-4,0,1,0,0,0,102,102,145,1,,,,,,,,
,,,,,,,,,,,,,FF,,,,,,,,4.558,,,,,,,,,,,,,,,,,,,,,,60fd92f2e5bceebabcd863de,61036c541f359c350597b31a,2021-07-29_22h09.25.055,Simcolourproject_2stim_asymm_v5,2020.2.10,Win32,60,61025ae37ef11b136ea224fe,,,,,,,,,1044,65,26,1,0,0,response1disk,,6,19,-6,1,0,0,rectangle,19,-6,1,0,0,19,-6,1,0,0,0,103,103,133,1,,,,,,,,
,,,,,,,,,,,,,FF,,,,,,,,1.739,,,,,,,,,,,,,,,,,,,,,,60fd92f2e5bceebabcd863de,61036c541f359c350597b31a,2021-07-29_22h09.25.055,Simcolourproject_2stim_asymm_v5,2020.2.10,Win32,60,61025ae37ef11b136ea224fe,,,,,,,,,3483,75,-40,1,0,0,response3disk,,5,17,1,1,0,0,rectangle,17,1,1,0,0,17,1,1,0,0,0,104,104,6,1,,,,,,,,
,,,,,,,,,,,,,FF,,,,,,,,1.061,,,,,,,,,,,,,,,,,,,,,,60fd92f2e5bceebabcd863de,61036c541f359c350597b31a,2021-07-29_22h09.25.055,Simcolourproject_2stim_asymm_v5,2020.2.10,Win32,60,61025ae37ef11b136ea224fe,,,,,,,,,140,24,64,1,0,0,response1disk,,7,7,-1,1,0,0,rectangle,7,-1,1,0,0,7,-1,1,0,0,0,105,105,26,1,,,,,,,,
,,,,,,,,,,,,,FF,,,,,,,,3.248,,,,,,,,,,,,,,,,,,,,,,60fd92f2e5bceebabcd863de,61036c541f359c350597b31a,2021-07-29_22h09.25.055,Simcolourproject_2stim_asymm_v5,2020.2.10,Win32,60,61025ae37ef11b136ea224fe,,,,,,,,,4283,-22,-48,1,0,0,response5disk,,3,-9,4,1,0,0,rectangle,-9,4,1,0,0,-9,4,1,0,0,0,106,106,66,1,,,,,,,,
,,,,,,,,,,,,,FF,,,,,,,,1.963,,,,,,,,,,,,,,,,,,,,,,60fd92f2e5bceebabcd863de,61036c541f359c350597b31a,2021-07-29_22h09.25.055,Simcolourproject_2stim_asymm_v5,2020.2.10,Win32,60,61025ae37ef11b136ea224fe,,,,,,,,,4180,32,46,1,0,0,response1disk,,7,19,3,1,0,0,rectangle,19,3,1,0,0,19,3,1,0,0,0,107,107,46,1,,,,,,,,
,,,,,,,,,,,,,FF,,,,,,,,1.526,,,,,,,,,,,,,,,,,,,,,,60fd92f2e5bceebabcd863de,61036c541f359c350597b31a,2021-07-29_22h09.25.055,Simcolourproject_2stim_asymm_v5,2020.2.10,Win32,60,61025ae37ef11b136ea224fe,,,,,,,,,950,70,42,1,0,0,response1disk,,6,17,-1,1,0,0,rectangle,17,-1,1,0,0,17,-1,1,0,0,0,108,108,64,1,,,,,,,,
,,,,,,,,,,,,,FF,,,,,,,,2.697,,,,,,,,,,,,,,,,,,,,,,60fd92f2e5bceebabcd863de,61036c541f359c350597b31a,2021-07-29_22h09.25.055,Simcolourproject_2stim_asymm_v5,2020.2.10,Win32,60,61025ae37ef11b136ea224fe,,,,,,,,,92,70,-82,1,0,0,response3disk,,4,18,-3,1,0,0,rectangle,18,-3,1,0,0,18,-3,1,0,0,0,109,109,3,1,,,,,,,,
,,,,,,,,,,,,,FF,,,,,,,,2.236,,,,,,,,,,,,,,,,,,,,,,60fd92f2e5bceebabcd863de,61036c541f359c350597b31a,2021-07-29_22h09.25.055,Simcolourproject_2stim_asymm_v5,2020.2.10,Win32,60,61025ae37ef11b136ea224fe,,,,,,,,,3821,92,33,1,0,0,response1disk,,6,7,-4,1,0,0,rectangle,7,-4,1,0,0,7,-4,1,0,0,0,110,110,43,1,,,,,,,,
,,,,,,,,,,,,,FF,,,,,,,,1.315,,,,,,,,,,,,,,,,,,,,,,60fd92f2e5bceebabcd863de,61036c541f359c350597b31a,2021-07-29_22h09.25.055,Simcolourproject_2stim_asymm_v5,2020.2.10,Win32,60,61025ae37ef11b136ea224fe,,,,,,,,,2400,32,65,1,0,0,response1disk,,7,15,-9,1,0,0,rectangle,15,-9,1,0,0,15,-9,1,0,0,0,111,111,58,1,,,,,,,,
,,,,,,,,,,,,,FF,,,,,,,,0.94,,,,,,,,,,,,,,,,,,,,,,60fd92f2e5bceebabcd863de,61036c541f359c350597b31a,2021-07-29_22h09.25.055,Simcolourproject_2stim_asymm_v5,2020.2.10,Win32,60,61025ae37ef11b136ea224fe,,,,,,,,,347,64,31,1,0,0,response1disk,,6,9,-12,1,0,0,rectangle,9,-12,1,0,0,9,-12,1,0,0,0,112,112,51,1,,,,,,,,
,,,,,,,,,,,,,FF,,,,,,,,1.922,,,,,,,,,,,,,,,,,,,,,,60fd92f2e5bceebabcd863de,61036c541f359c350597b31a,2021-07-29_22h09.25.055,Simcolourproject_2stim_asymm_v5,2020.2.10,Win32,60,61025ae37ef11b136ea224fe,,,,,,,,,1948,42,-68,1,0,0,response3disk,,4,14,-9,1,0,0,rectangle,14,-9,1,0,0,14,-9,1,0,0,0,113,113,108,1,,,,,,,,
,,,,,,,,,,,,,FF,,,,,,,,0.926,,,,,,,,,,,,,,,,,,,,,,60fd92f2e5bceebabcd863de,61036c541f359c350597b31a,2021-07-29_22h09.25.055,Simcolourproject_2stim_asymm_v5,2020.2.10,Win32,60,61025ae37ef11b136ea224fe,,,,,,,,,2933,-34,-61,1,0,0,response5disk,,3,-6,-15,1,0,0,rectangle,-6,-15,1,0,0,-6,-15,1,0,0,0,114,114,87,1,,,,,,,,
,,,,,,,,,,,,,FF,,,,,,,,1.151,,,,,,,,,,,,,,,,,,,,,,60fd92f2e5bceebabcd863de,61036c541f359c350597b31a,2021-07-29_22h09.25.055,Simcolourproject_2stim_asymm_v5,2020.2.10,Win32,60,61025ae37ef11b136ea224fe,,,,,,,,,4272,22,55,1,0,0,response1disk,,7,4,3,1,0,0,rectangle,4,3,1,0,0,4,3,1,0,0,0,115,115,149,1,,,,,,,,
,,,,,,,,,,,,,FF,,,,,,,,0.807,,,,,,,,,,,,,,,,,,,,,,60fd92f2e5bceebabcd863de,61036c541f359c350597b31a,2021-07-29_22h09.25.055,Simcolourproject_2stim_asymm_v5,2020.2.10,Win32,60,61025ae37ef11b136ea224fe,,,,,,,,,2627,22,40,1,0,0,response1disk,,7,7,-13,1,0,0,rectangle,7,-13,1,0,0,7,-13,1,0,0,0,116,116,98,1,,,,,,,,
,,,,,,,,,,,,,FF,,,,,,,,2.042,,,,,,,,,,,,,,,,,,,,,,60fd92f2e5bceebabcd863de,61036c541f359c350597b31a,2021-07-29_22h09.25.055,Simcolourproject_2stim_asymm_v5,2020.2.10,Win32,60,61025ae37ef11b136ea224fe,,,,,,,,,3304,57,-74,1,0,0,response3disk,,4,14,-8,1,0,0,rectangle,14,-8,1,0,0,14,-8,1,0,0,0,117,117,47,1,,,,,,,,
,,,,,,,,,,,,,FF,,,,,,,,1.189,,,,,,,,,,,,,,,,,,,,,,60fd92f2e5bceebabcd863de,61036c541f359c350597b31a,2021-07-29_22h09.25.055,Simcolourproject_2stim_asymm_v5,2020.2.10,Win32,60,61025ae37ef11b136ea224fe,,,,,,,,,3379,38,77,1,0,0,response1disk,,7,24,14,1,0,0,rectangle,-25,80,1,0,0,1,3,1,0,0,0,118,118,19,1,,response7disk_3,TRUE,0,0,"[47,192,36,242,27,121,208,19,244,138,244,140,231,266,119,77,286,74,302,322]",1.679,rectangle
,,,,,,,,,,,,,FF,,,,,,,,3.194,,,,,,,,,,,,,,,,,,,,,,60fd92f2e5bceebabcd863de,61036c541f359c350597b31a,2021-07-29_22h09.25.055,Simcolourproject_2stim_asymm_v5,2020.2.10,Win32,60,61025ae37ef11b136ea224fe,,,,,,,,,745,55,-63,1,0,0,response3disk,,4,-3,1,1,0,0,rectangle,-3,1,1,0,0,-3,1,1,0,0,0,119,119,94,1,,,,,,,,
,,,,,,,,,,,,,FF,,,,,,,,1.048,,,,,,,,,,,,,,,,,,,,,,60fd92f2e5bceebabcd863de,61036c541f359c350597b31a,2021-07-29_22h09.25.055,Simcolourproject_2stim_asymm_v5,2020.2.10,Win32,60,61025ae37ef11b136ea224fe,,,,,,,,,1820,-27,-54,1,0,0,response5disk,,3,-8,1,1,0,0,rectangle,-57,96,1,0,0,-37,12,1,0,0,0,120,120,115,1,,response7disk_3,TRUE,0,0,"[47,192,36,242,27,121,208,19,244,138,244,140,231,266,119,77,286,74,302,322]",1.57,rectangle
,,,,,,,,,,,,,FF,,,,,,,,3.296,,,,,,,,,,,,,,,,,,,,,,60fd92f2e5bceebabcd863de,61036c541f359c350597b31a,2021-07-29_22h09.25.055,Simcolourproject_2stim_asymm_v5,2020.2.10,Win32,60,61025ae37ef11b136ea224fe,,,,,,,,,494,36,63,1,0,0,response1disk,,7,15,0,1,0,0,rectangle,15,0,1,0,0,15,0,1,0,0,0,121,121,15,1,,,,,,,,
,,,,,,,,,,,,,FF,,,,,,,,2.157,,,,,,,,,,,,,,,,,,,,,,60fd92f2e5bceebabcd863de,61036c541f359c350597b31a,2021-07-29_22h09.25.055,Simcolourproject_2stim_asymm_v5,2020.2.10,Win32,60,61025ae37ef11b136ea224fe,,,,,,,,,3992,28,-80,1,0,0,response3disk,,4,-5,7,1,0,0,rectangle,-5,7,1,0,0,-5,7,1,0,0,0,122,122,67,1,,,,,,,,
,,,,,,,,,,,,,FF,,,,,,,,1.51,,,,,,,,,,,,,,,,,,,,,,60fd92f2e5bceebabcd863de,61036c541f359c350597b31a,2021-07-29_22h09.25.055,Simcolourproject_2stim_asymm_v5,2020.2.10,Win32,60,61025ae37ef11b136ea224fe,,,,,,,,,2343,40,73,1,0,0,response1disk,,7,23,19,1,0,0,rectangle,23,19,1,0,0,23,19,1,0,0,0,123,123,33,1,,,,,,,,
,,,,,,,,,,,,,FF,,,,,,,,4.479,,,,,,,,,,,,,,,,,,,,,,60fd92f2e5bceebabcd863de,61036c541f359c350597b31a,2021-07-29_22h09.25.055,Simcolourproject_2stim_asymm_v5,2020.2.10,Win32,60,61025ae37ef11b136ea224fe,,,,,,,,,1276,26,-90,1,0,0,response3disk,,4,-6,-8,1,0,0,rectangle,-6,-8,1,0,0,-6,-8,1,0,0,0,124,124,83,1,,,,,,,,
,,,,,,,,,,,,,FF,,,,,,,,5.302,,,,,,,,,,,,,,,,,,,,,,60fd92f2e5bceebabcd863de,61036c541f359c350597b31a,2021-07-29_22h09.25.055,Simcolourproject_2stim_asymm_v5,2020.2.10,Win32,60,61025ae37ef11b136ea224fe,,,,,,,,,296,54,-32,1,0,0,response3disk,,5,-10,-6,1,0,0,rectangle,-10,-6,1,0,0,-10,-6,1,0,0,0,125,125,85,1,,,,,,,,
,,,,,,,,,,,,,FF,,,,,,,,1.582,,,,,,,,,,,,,,,,,,,,,,60fd92f2e5bceebabcd863de,61036c541f359c350597b31a,2021-07-29_22h09.25.055,Simcolourproject_2stim_asymm_v5,2020.2.10,Win32,60,61025ae37ef11b136ea224fe,,,,,,,,,3319,46,32,1,0,0,response1disk,,6,-2,3,1,0,0,rectangle,-2,3,1,0,0,-2,3,1,0,0,0,126,126,130,1,,,,,,,,
,,,,,,,,,,,,,FF,,,,,,,,0.734,,,,,,,,,,,,,,,,,,,,,,60fd92f2e5bceebabcd863de,61036c541f359c350597b31a,2021-07-29_22h09.25.055,Simcolourproject_2stim_asymm_v5,2020.2.10,Win32,60,61025ae37ef11b136ea224fe,,,,,,,,,472,30,53,1,0,0,response1disk,,7,20,4,1,0,0,rectangle,20,4,1,0,0,20,4,1,0,0,0,127,127,27,1,,,,,,,,
,,,,,,,,,,,,,FF,,,,,,,,0.631,,,,,,,,,,,,,,,,,,,,,,60fd92f2e5bceebabcd863de,61036c541f359c350597b31a,2021-07-29_22h09.25.055,Simcolourproject_2stim_asymm_v5,2020.2.10,Win32,60,61025ae37ef11b136ea224fe,,,,,,,,,329,48,74,1,0,0,response1disk,,7,21,3,1,0,0,rectangle,21,3,1,0,0,21,3,1,0,0,0,128,128,80,1,,,,,,,,
,,,,,,,,,,,,,FF,,,,,,,,1.55,,,,,,,,,,,,,,,,,,,,,,60fd92f2e5bceebabcd863de,61036c541f359c350597b31a,2021-07-29_22h09.25.055,Simcolourproject_2stim_asymm_v5,2020.2.10,Win32,60,61025ae37ef11b136ea224fe,,,,,,,,,2801,34,66,1,0,0,response1disk,,7,18,10,1,0,0,rectangle,18,10,1,0,0,18,10,1,0,0,0,129,129,146,1,,,,,,,,
,,,,,,,,,,,,,FF,,,,,,,,1.685,,,,,,,,,,,,,,,,,,,,,,60fd92f2e5bceebabcd863de,61036c541f359c350597b31a,2021-07-29_22h09.25.055,Simcolourproject_2stim_asymm_v5,2020.2.10,Win32,60,61025ae37ef11b136ea224fe,,,,,,,,,3442,73,-40,1,0,0,response3disk,,5,18,5,1,0,0,rectangle,18,5,1,0,0,18,5,1,0,0,0,130,130,73,1,,,,,,,,
,,,,,,,,,,,,,FF,,,,,,,,1.497,,,,,,,,,,,,,,,,,,,,,,60fd92f2e5bceebabcd863de,61036c541f359c350597b31a,2021-07-29_22h09.25.055,Simcolourproject_2stim_asymm_v5,2020.2.10,Win32,60,61025ae37ef11b136ea224fe,,,,,,,,,1033,56,39,1,0,0,response1disk,,6,25,19,1,0,0,rectangle,25,19,1,0,0,25,19,1,0,0,0,131,131,139,1,,,,,,,,
,,,,,,,,,,,,,FF,,,,,,,,0.83,,,,,,,,,,,,,,,,,,,,,,60fd92f2e5bceebabcd863de,61036c541f359c350597b31a,2021-07-29_22h09.25.055,Simcolourproject_2stim_asymm_v5,2020.2.10,Win32,60,61025ae37ef11b136ea224fe,,,,,,,,,2693,33,78,1,0,0,response1disk,,7,15,7,1,0,0,rectangle,15,7,1,0,0,15,7,1,0,0,0,132,132,52,1,,,,,,,,
,,,,,,,,,,,,,FF,,,,,,,,0.702,,,,,,,,,,,,,,,,,,,,,,60fd92f2e5bceebabcd863de,61036c541f359c350597b31a,2021-07-29_22h09.25.055,Simcolourproject_2stim_asymm_v5,2020.2.10,Win32,60,61025ae37ef11b136ea224fe,,,,,,,,,4314,32,55,1,0,0,response1disk,,7,14,-5,1,0,0,rectangle,14,-5,1,0,0,14,-5,1,0,0,0,133,133,37,1,,,,,,,,
,,,,,,,,,,,,,FF,,,,,,,,1.152,,,,,,,,,,,,,,,,,,,,,,60fd92f2e5bceebabcd863de,61036c541f359c350597b31a,2021-07-29_22h09.25.055,Simcolourproject_2stim_asymm_v5,2020.2.10,Win32,60,61025ae37ef11b136ea224fe,,,,,,,,,1609,-29,60,1,0,0,response7disk,,0,1,9,1,0,0,rectangle,1,9,1,0,0,1,9,1,0,0,0,134,134,107,1,,,,,,,,
,,,,,,,,,,,,,FF,,,,,,,,3.691,,,,,,,,,,,,,,,,,,,,,,60fd92f2e5bceebabcd863de,61036c541f359c350597b31a,2021-07-29_22h09.25.055,Simcolourproject_2stim_asymm_v5,2020.2.10,Win32,60,61025ae37ef11b136ea224fe,,,,,,,,,1637,32,70,1,0,0,response1disk,,7,15,-2,1,0,0,rectangle,15,-2,1,0,0,15,-2,1,0,0,0,135,135,92,1,,,,,,,,
,,,,,,,,,,,,,FF,,,,,,,,1.788,,,,,,,,,,,,,,,,,,,,,,60fd92f2e5bceebabcd863de,61036c541f359c350597b31a,2021-07-29_22h09.25.055,Simcolourproject_2stim_asymm_v5,2020.2.10,Win32,60,61025ae37ef11b136ea224fe,,,,,,,,,2619,92,-28,1,0,0,response3disk,,5,19,0,1,0,0,rectangle,19,0,1,0,0,19,0,1,0,0,0,136,136,8,1,,,,,,,,
,,,,,,,,,,,,,FF,,,,,,,,1.855,,,,,,,,,,,,,,,,,,,,,,60fd92f2e5bceebabcd863de,61036c541f359c350597b31a,2021-07-29_22h09.25.055,Simcolourproject_2stim_asymm_v5,2020.2.10,Win32,60,61025ae37ef11b136ea224fe,,,,,,,,,3261,30,60,1,0,0,response1disk,,7,19,5,1,0,0,rectangle,-34,81,1,0,0,-17,-9,1,0,0,0,137,137,77,1,,response7disk_3,TRUE,0,0,"[47,192,36,242,27,121,208,19,244,138,244,140,231,266,119,77,286,74,302,322]",1.37,rectangle
,,,,,,,,,,,,,FF,,,,,,,,3.352,,,,,,,,,,,,,,,,,,,,,,60fd92f2e5bceebabcd863de,61036c541f359c350597b31a,2021-07-29_22h09.25.055,Simcolourproject_2stim_asymm_v5,2020.2.10,Win32,60,61025ae37ef11b136ea224fe,,,,,,,,,116,63,39,1,0,0,response1disk,,6,36,1,1,0,0,rectangle,36,1,1,0,0,36,1,1,0,0,0,138,138,53,1,,,,,,,,
,,,,,,,,,,,,,FF,,,,,,,,2.133,,,,,,,,,,,,,,,,,,,,,,60fd92f2e5bceebabcd863de,61036c541f359c350597b31a,2021-07-29_22h09.25.055,Simcolourproject_2stim_asymm_v5,2020.2.10,Win32,60,61025ae37ef11b136ea224fe,,,,,,,,,1228,31,-67,1,0,0,response3disk,,4,-9,-2,1,0,0,rectangle,-87,35,1,0,0,-9,-1,1,0,0,0,139,139,59,1,,response7disk_3,TRUE,1,1,"[47,192,36,242,27,121,208,19,244,138,244,140,231,266,119,77,286,74,302,322]",1.291,rectangle
,,,,,,,,,,,,,FF,,,,,,,,2.321,,,,,,,,,,,,,,,,,,,,,,60fd92f2e5bceebabcd863de,61036c541f359c350597b31a,2021-07-29_22h09.25.055,Simcolourproject_2stim_asymm_v5,2020.2.10,Win32,60,61025ae37ef11b136ea224fe,,,,,,,,,1927,32,-68,1,0,0,response3disk,,4,-6,-2,1,0,0,rectangle,-6,-2,1,0,0,-6,-2,1,0,0,0,140,140,5,1,,,,,,,,
,,,,,,,,,,,,,FF,,,,,,,,1.63,,,,,,,,,,,,,,,,,,,,,,60fd92f2e5bceebabcd863de,61036c541f359c350597b31a,2021-07-29_22h09.25.055,Simcolourproject_2stim_asymm_v5,2020.2.10,Win32,60,61025ae37ef11b136ea224fe,,,,,,,,,3236,66,-32,1,0,0,response3disk,,5,5,5,1,0,0,rectangle,5,5,1,0,0,5,5,1,0,0,0,141,141,159,1,,,,,,,,
,,,,,,,,,,,,,FF,,,,,,,,1.758,,,,,,,,,,,,,,,,,,,,,,60fd92f2e5bceebabcd863de,61036c541f359c350597b31a,2021-07-29_22h09.25.055,Simcolourproject_2stim_asymm_v5,2020.2.10,Win32,60,61025ae37ef11b136ea224fe,,,,,,,,,1448,-55,-27,1,0,0,response5disk,,2,-25,2,1,0,0,rectangle,-25,2,1,0,0,-25,2,1,0,0,0,142,142,116,1,,,,,,,,
,,,,,,,,,,,,,FF,,,,,,,,1.303,,,,,,,,,,,,,,,,,,,,,,60fd92f2e5bceebabcd863de,61036c541f359c350597b31a,2021-07-29_22h09.25.055,Simcolourproject_2stim_asymm_v5,2020.2.10,Win32,60,61025ae37ef11b136ea224fe,,,,,,,,,2047,35,-61,1,0,0,response3disk,,4,-3,2,1,0,0,rectangle,-3,2,1,0,0,-3,2,1,0,0,0,143,143,9,1,,,,,,,,
,,,,,,,,,,,,,FF,,,,,,,,0.964,,,,,,,,,,,,,,,,,,,,,,60fd92f2e5bceebabcd863de,61036c541f359c350597b31a,2021-07-29_22h09.25.055,Simcolourproject_2stim_asymm_v5,2020.2.10,Win32,60,61025ae37ef11b136ea224fe,,,,,,,,,1449,-28,-52,1,0,0,response5disk,,3,-1,-2,1,0,0,rectangle,-1,-2,1,0,0,-1,-2,1,0,0,0,144,144,79,1,,,,,,,,
,,,,,,,,,,,,,FF,,,,,,,,1.547,,,,,,,,,,,,,,,,,,,,,,60fd92f2e5bceebabcd863de,61036c541f359c350597b31a,2021-07-29_22h09.25.055,Simcolourproject_2stim_asymm_v5,2020.2.10,Win32,60,61025ae37ef11b136ea224fe,,,,,,,,,3521,40,-18,1,0,0,response3disk,,5,5,9,1,0,0,rectangle,5,9,1,0,0,5,9,1,0,0,0,145,145,158,1,,,,,,,,
,,,,,,,,,,,,,FF,,,,,,,,1.128,,,,,,,,,,,,,,,,,,,,,,60fd92f2e5bceebabcd863de,61036c541f359c350597b31a,2021-07-29_22h09.25.055,Simcolourproject_2stim_asymm_v5,2020.2.10,Win32,60,61025ae37ef11b136ea224fe,,,,,,,,,845,42,30,1,0,0,response1disk,,6,-5,-9,1,0,0,rectangle,-5,-9,1,0,0,-5,-9,1,0,0,0,146,146,10,1,,,,,,,,
,,,,,,,,,,,,,FF,,,,,,,,1.06,,,,,,,,,,,,,,,,,,,,,,60fd92f2e5bceebabcd863de,61036c541f359c350597b31a,2021-07-29_22h09.25.055,Simcolourproject_2stim_asymm_v5,2020.2.10,Win32,60,61025ae37ef11b136ea224fe,,,,,,,,,2881,49,27,1,0,0,response1disk,,6,8,-6,1,0,0,rectangle,8,-6,1,0,0,8,-6,1,0,0,0,147,147,88,1,,,,,,,,
,,,,,,,,,,,,,FF,,,,,,,,2.999,,,,,,,,,,,,,,,,,,,,,,60fd92f2e5bceebabcd863de,61036c541f359c350597b31a,2021-07-29_22h09.25.055,Simcolourproject_2stim_asymm_v5,2020.2.10,Win32,60,61025ae37ef11b136ea224fe,,,,,,,,,1286,55,-42,1,0,0,response3disk,,5,4,-7,1,0,0,rectangle,4,-7,1,0,0,4,-7,1,0,0,0,148,148,155,1,,,,,,,,
,,,,,,,,,,,,,FF,,,,,,,,1.175,,,,,,,,,,,,,,,,,,,,,,60fd92f2e5bceebabcd863de,61036c541f359c350597b31a,2021-07-29_22h09.25.055,Simcolourproject_2stim_asymm_v5,2020.2.10,Win32,60,61025ae37ef11b136ea224fe,,,,,,,,,4237,-75,42,1,0,0,response7disk,,1,6,8,1,0,0,rectangle,6,8,1,0,0,6,8,1,0,0,0,149,149,151,1,,,,,,,,
,,,,,,,,,,,,,FF,,,,,,,,2.212,,,,,,,,,,,,,,,,,,,,,,60fd92f2e5bceebabcd863de,61036c541f359c350597b31a,2021-07-29_22h09.25.055,Simcolourproject_2stim_asymm_v5,2020.2.10,Win32,60,61025ae37ef11b136ea224fe,,,,,,,,,2104,63,-36,1,0,0,response3disk,,5,4,-7,1,0,0,rectangle,4,-7,1,0,0,4,-7,1,0,0,0,150,150,1,1,,,,,,,,
,,,,,,,,,,,,,FF,,,,,,,,0.72,,,,,,,,,,,,,,,,,,,,,,60fd92f2e5bceebabcd863de,61036c541f359c350597b31a,2021-07-29_22h09.25.055,Simcolourproject_2stim_asymm_v5,2020.2.10,Win32,60,61025ae37ef11b136ea224fe,,,,,,,,,337,36,65,1,0,0,response1disk,,7,23,2,1,0,0,rectangle,23,2,1,0,0,23,2,1,0,0,0,151,151,126,1,,,,,,,,
,,,,,,,,,,,,,FF,,,,,,,,1.697,,,,,,,,,,,,,,,,,,,,,,60fd92f2e5bceebabcd863de,61036c541f359c350597b31a,2021-07-29_22h09.25.055,Simcolourproject_2stim_asymm_v5,2020.2.10,Win32,60,61025ae37ef11b136ea224fe,,,,,,,,,3080,57,-28,1,0,0,response3disk,,5,14,-17,1,0,0,rectangle,14,-17,1,0,0,14,-17,1,0,0,0,152,152,76,1,,,,,,,,
,,,,,,,,,,,,,FF,,,,,,,,0.715,,,,,,,,,,,,,,,,,,,,,,60fd92f2e5bceebabcd863de,61036c541f359c350597b31a,2021-07-29_22h09.25.055,Simcolourproject_2stim_asymm_v5,2020.2.10,Win32,60,61025ae37ef11b136ea224fe,,,,,,,,,2153,30,55,1,0,0,response1disk,,7,12,1,1,0,0,rectangle,12,1,1,0,0,12,1,1,0,0,0,153,153,29,1,,,,,,,,
,,,,,,,,,,,,,FF,,,,,,,,2.557,,,,,,,,,,,,,,,,,,,,,,60fd92f2e5bceebabcd863de,61036c541f359c350597b31a,2021-07-29_22h09.25.055,Simcolourproject_2stim_asymm_v5,2020.2.10,Win32,60,61025ae37ef11b136ea224fe,,,,,,,,,3887,-48,-22,1,0,0,response5disk,,2,-6,7,1,0,0,rectangle,-6,7,1,0,0,-6,7,1,0,0,0,154,154,81,1,,,,,,,,
,,,,,,,,,,,,,FF,,,,,,,,2.175,,,,,,,,,,,,,,,,,,,,,,60fd92f2e5bceebabcd863de,61036c541f359c350597b31a,2021-07-29_22h09.25.055,Simcolourproject_2stim_asymm_v5,2020.2.10,Win32,60,61025ae37ef11b136ea224fe,,,,,,,,,3326,62,30,1,0,0,response1disk,,6,-1,12,1,0,0,rectangle,-1,12,1,0,0,-1,12,1,0,0,0,155,155,42,1,,,,,,,,
,,,,,,,,,,,,,FF,,,,,,,,1.236,,,,,,,,,,,,,,,,,,,,,,60fd92f2e5bceebabcd863de,61036c541f359c350597b31a,2021-07-29_22h09.25.055,Simcolourproject_2stim_asymm_v5,2020.2.10,Win32,60,61025ae37ef11b136ea224fe,,,,,,,,,718,-81,-29,1,0,0,response5disk,,2,0,5,1,0,0,rectangle,0,5,1,0,0,0,5,1,0,0,0,156,156,90,1,,,,,,,,
,,,,,,,,,,,,,FF,,,,,,,,1.557,,,,,,,,,,,,,,,,,,,,,,60fd92f2e5bceebabcd863de,61036c541f359c350597b31a,2021-07-29_22h09.25.055,Simcolourproject_2stim_asymm_v5,2020.2.10,Win32,60,61025ae37ef11b136ea224fe,,,,,,,,,2999,-71,37,1,0,0,response7disk,,1,-8,9,1,0,0,rectangle,-8,9,1,0,0,-8,9,1,0,0,0,157,157,137,1,,,,,,,,
,,,,,,,,,,,,,FF,,,,,,,,2.067,,,,,,,,,,,,,,,,,,,,,,60fd92f2e5bceebabcd863de,61036c541f359c350597b31a,2021-07-29_22h09.25.055,Simcolourproject_2stim_asymm_v5,2020.2.10,Win32,60,61025ae37ef11b136ea224fe,,,,,,,,,2774,60,-26,1,0,0,response3disk,,5,1,4,1,0,0,rectangle,1,4,1,0,0,1,4,1,0,0,0,158,158,70,1,,,,,,,,
,,,,,,,,,,,,,FF,,,,,,,,2.297,,,,,,,,,,,,,,,,,,,,,,60fd92f2e5bceebabcd863de,61036c541f359c350597b31a,2021-07-29_22h09.25.055,Simcolourproject_2stim_asymm_v5,2020.2.10,Win32,60,61025ae37ef11b136ea224fe,,,,,,,,,3555,-72,-33,1,0,0,response5disk,,2,-2,-3,1,0,0,rectangle,-2,-3,1,0,0,-2,-3,1,0,0,0,159,159,89,1,,,,,,,,
,,,,,,,,,,,,,FF,,,,,,,,1.418,,,,,,,,,,,,,,,,,,,,,,60fd92f2e5bceebabcd863de,61036c541f359c350597b31a,2021-07-29_22h09.25.055,Simcolourproject_2stim_asymm_v5,2020.2.10,Win32,60,61025ae37ef11b136ea224fe,,,,,,,,,1342,34,18,1,0,0,response1disk,,6,27,15,1,0,0,rectangle,27,15,1,0,0,27,15,1,0,0,1,0,160,134,1,,,,,,,,
,,,,,,,,,,,,,FF,,,,,,,,2.188,,,,,,,,,,,,,,,,,,,,,,60fd92f2e5bceebabcd863de,61036c541f359c350597b31a,2021-07-29_22h09.25.055,Simcolourproject_2stim_asymm_v5,2020.2.10,Win32,60,61025ae37ef11b136ea224fe,,,,,,,,,3139,56,26,1,0,0,response1disk,,6,19,5,1,0,0,rectangle,19,5,1,0,0,19,5,1,0,0,1,1,161,51,1,,,,,,,,
,,,,,,,,,,,,,FF,,,,,,,,0.631,,,,,,,,,,,,,,,,,,,,,,60fd92f2e5bceebabcd863de,61036c541f359c350597b31a,2021-07-29_22h09.25.055,Simcolourproject_2stim_asymm_v5,2020.2.10,Win32,60,61025ae37ef11b136ea224fe,,,,,,,,,2698,33,56,1,0,0,response1disk,,7,26,9,1,0,0,rectangle,26,9,1,0,0,26,9,1,0,0,1,2,162,94,1,,,,,,,,
,,,,,,,,,,,,,FF,,,,,,,,1.679,,,,,,,,,,,,,,,,,,,,,,60fd92f2e5bceebabcd863de,61036c541f359c350597b31a,2021-07-29_22h09.25.055,Simcolourproject_2stim_asymm_v5,2020.2.10,Win32,60,61025ae37ef11b136ea224fe,,,,,,,,,2743,56,33,1,0,0,response1disk,,6,13,18,1,0,0,rectangle,13,18,1,0,0,13,18,1,0,0,1,3,163,104,1,,,,,,,,
,,,,,,,,,,,,,FF,,,,,,,,3.406,,,,,,,,,,,,,,,,,,,,,,60fd92f2e5bceebabcd863de,61036c541f359c350597b31a,2021-07-29_22h09.25.055,Simcolourproject_2stim_asymm_v5,2020.2.10,Win32,60,61025ae37ef11b136ea224fe,,,,,,,,,1668,35,54,1,0,0,response1disk,,7,22,-4,1,0,0,rectangle,22,-4,1,0,0,22,-4,1,0,0,1,4,164,132,1,,,,,,,,
,,,,,,,,,,,,,FF,,,,,,,,3.084,,,,,,,,,,,,,,,,,,,,,,60fd92f2e5bceebabcd863de,61036c541f359c350597b31a,2021-07-29_22h09.25.055,Simcolourproject_2stim_asymm_v5,2020.2.10,Win32,60,61025ae37ef11b136ea224fe,,,,,,,,,1916,56,-77,1,0,0,response3disk,,4,12,-13,1,0,0,rectangle,12,-13,1,0,0,12,-13,1,0,0,1,5,165,151,1,,,,,,,,
,,,,,,,,,,,,,FF,,,,,,,,1.025,,,,,,,,,,,,,,,,,,,,,,60fd92f2e5bceebabcd863de,61036c541f359c350597b31a,2021-07-29_22h09.25.055,Simcolourproject_2stim_asymm_v5,2020.2.10,Win32,60,61025ae37ef11b136ea224fe,,,,,,,,,298,54,39,1,0,0,response1disk,,6,6,-2,1,0,0,rectangle,6,-2,1,0,0,6,-2,1,0,0,1,6,166,71,1,,,,,,,,
,,,,,,,,,,,,,FF,,,,,,,,1.352,,,,,,,,,,,,,,,,,,,,,,60fd92f2e5bceebabcd863de,61036c541f359c350597b31a,2021-07-29_22h09.25.055,Simcolourproject_2stim_asymm_v5,2020.2.10,Win32,60,61025ae37ef11b136ea224fe,,,,,,,,,3218,36,49,1,0,0,response1disk,,7,20,5,1,0,0,rectangle,20,5,1,0,0,20,5,1,0,0,1,7,167,7,1,,,,,,,,
,,,,,,,,,,,,,FF,,,,,,,,0.909,,,,,,,,,,,,,,,,,,,,,,60fd92f2e5bceebabcd863de,61036c541f359c350597b31a,2021-07-29_22h09.25.055,Simcolourproject_2stim_asymm_v5,2020.2.10,Win32,60,61025ae37ef11b136ea224fe,,,,,,,,,4288,28,46,1,0,0,response1disk,,7,17,4,1,0,0,rectangle,17,4,1,0,0,17,4,1,0,0,1,8,168,129,1,,,,,,,,
,,,,,,,,,,,,,FF,,,,,,,,1.48,,,,,,,,,,,,,,,,,,,,,,60fd92f2e5bceebabcd863de,61036c541f359c350597b31a,2021-07-29_22h09.25.055,Simcolourproject_2stim_asymm_v5,2020.2.10,Win32,60,61025ae37ef11b136ea224fe,,,,,,,,,1778,66,-34,1,0,0,response3disk,,5,0,-1,1,0,0,rectangle,0,-1,1,0,0,0,-1,1,0,0,1,9,169,133,1,,,,,,,,
,,,,,,,,,,,,,FF,,,,,,,,0.975,,,,,,,,,,,,,,,,,,,,,,60fd92f2e5bceebabcd863de,61036c541f359c350597b31a,2021-07-29_22h09.25.055,Simcolourproject_2stim_asymm_v5,2020.2.10,Win32,60,61025ae37ef11b136ea224fe,,,,,,,,,1096,31,61,1,0,0,response1disk,,7,-6,-4,1,0,0,rectangle,-6,-4,1,0,0,-6,-4,1,0,0,1,10,170,64,1,,,,,,,,
,,,,,,,,,,,,,FF,,,,,,,,0.66,,,,,,,,,,,,,,,,,,,,,,60fd92f2e5bceebabcd863de,61036c541f359c350597b31a,2021-07-29_22h09.25.055,Simcolourproject_2stim_asymm_v5,2020.2.10,Win32,60,61025ae37ef11b136ea224fe,,,,,,,,,3790,26,62,1,0,0,response1disk,,7,13,13,1,0,0,rectangle,13,13,1,0,0,13,13,1,0,0,1,11,171,56,1,,,,,,,,
,,,,,,,,,,,,,FF,,,,,,,,0.642,,,,,,,,,,,,,,,,,,,,,,60fd92f2e5bceebabcd863de,61036c541f359c350597b31a,2021-07-29_22h09.25.055,Simcolourproject_2stim_asymm_v5,2020.2.10,Win32,60,61025ae37ef11b136ea224fe,,,,,,,,,3532,27,48,1,0,0,response1disk,,7,13,0,1,0,0,rectangle,13,0,1,0,0,13,0,1,0,0,1,12,172,17,1,,,,,,,,
,,,,,,,,,,,,,FF,,,,,,,,1.504,,,,,,,,,,,,,,,,,,,,,,60fd92f2e5bceebabcd863de,61036c541f359c350597b31a,2021-07-29_22h09.25.055,Simcolourproject_2stim_asymm_v5,2020.2.10,Win32,60,61025ae37ef11b136ea224fe,,,,,,,,,550,-82,43,1,0,0,response7disk,,1,-9,7,1,0,0,rectangle,-9,7,1,0,0,-9,7,1,0,0,1,13,173,52,1,,,,,,,,
,,,,,,,,,,,,,FF,,,,,,,,3.195,,,,,,,,,,,,,,,,,,,,,,60fd92f2e5bceebabcd863de,61036c541f359c350597b31a,2021-07-29_22h09.25.055,Simcolourproject_2stim_asymm_v5,2020.2.10,Win32,60,61025ae37ef11b136ea224fe,,,,,,,,,1511,82,-33,1,0,0,response3disk,,5,7,6,1,0,0,rectangle,7,6,1,0,0,7,6,1,0,0,1,14,174,78,1,,,,,,,,
,,,,,,,,,,,,,FF,,,,,,,,1.254,,,,,,,,,,,,,,,,,,,,,,60fd92f2e5bceebabcd863de,61036c541f359c350597b31a,2021-07-29_22h09.25.055,Simcolourproject_2stim_asymm_v5,2020.2.10,Win32,60,61025ae37ef11b136ea224fe,,,,,,,,,3396,-41,-63,1,0,0,response5disk,,3,-31,10,1,0,0,rectangle,-31,10,1,0,0,-31,10,1,0,0,1,15,175,75,1,,,,,,,,
,,,,,,,,,,,,,FF,,,,,,,,1.769,,,,,,,,,,,,,,,,,,,,,,60fd92f2e5bceebabcd863de,61036c541f359c350597b31a,2021-07-29_22h09.25.055,Simcolourproject_2stim_asymm_v5,2020.2.10,Win32,60,61025ae37ef11b136ea224fe,,,,,,,,,713,42,-49,1,0,0,response3disk,,4,13,7,1,0,0,rectangle,13,7,1,0,0,13,7,1,0,0,1,16,176,112,1,,,,,,,,
,,,,,,,,,,,,,FF,,,,,,,,1.273,,,,,,,,,,,,,,,,,,,,,,60fd92f2e5bceebabcd863de,61036c541f359c350597b31a,2021-07-29_22h09.25.055,Simcolourproject_2stim_asymm_v5,2020.2.10,Win32,60,61025ae37ef11b136ea224fe,,,,,,,,,4357,-79,31,1,0,0,response7disk,,1,8,3,1,0,0,rectangle,8,3,1,0,0,8,3,1,0,0,1,17,177,119,1,,,,,,,,
,,,,,,,,,,,,,FF,,,,,,,,0.582,,,,,,,,,,,,,,,,,,,,,,60fd92f2e5bceebabcd863de,61036c541f359c350597b31a,2021-07-29_22h09.25.055,Simcolourproject_2stim_asymm_v5,2020.2.10,Win32,60,61025ae37ef11b136ea224fe,,,,,,,,,2100,-77,30,1,0,0,response7disk,,1,0,6,1,0,0,rectangle,0,6,1,0,0,0,6,1,0,0,1,18,178,120,1,,,,,,,,
,,,,,,,,,,,,,FF,,,,,,,,1.903,,,,,,,,,,,,,,,,,,,,,,60fd92f2e5bceebabcd863de,61036c541f359c350597b31a,2021-07-29_22h09.25.055,Simcolourproject_2stim_asymm_v5,2020.2.10,Win32,60,61025ae37ef11b136ea224fe,,,,,,,,,2624,65,31,1,0,0,response1disk,,6,3,-10,1,0,0,rectangle,3,-10,1,0,0,3,-10,1,0,0,1,19,179,154,1,,,,,,,,
,,,,,,,,,,,,,FF,,,,,,,,1.696,,,,,,,,,,,,,,,,,,,,,,60fd92f2e5bceebabcd863de,61036c541f359c350597b31a,2021-07-29_22h09.25.055,Simcolourproject_2stim_asymm_v5,2020.2.10,Win32,60,61025ae37ef11b136ea224fe,,,,,,,,,3844,-37,-60,1,0,0,response5disk,,3,-19,7,1,0,0,rectangle,-19,7,1,0,0,-19,7,1,0,0,1,20,180,67,1,,,,,,,,
,,,,,,,,,,,,,FF,,,,,,,,1.206,,,,,,,,,,,,,,,,,,,,,,60fd92f2e5bceebabcd863de,61036c541f359c350597b31a,2021-07-29_22h09.25.055,Simcolourproject_2stim_asymm_v5,2020.2.10,Win32,60,61025ae37ef11b136ea224fe,,,,,,,,,1268,81,-32,1,0,0,response3disk,,5,13,13,1,0,0,rectangle,13,13,1,0,0,13,13,1,0,0,1,21,181,3,1,,,,,,,,
,,,,,,,,,,,,,FF,,,,,,,,2.031,,,,,,,,,,,,,,,,,,,,,,60fd92f2e5bceebabcd863de,61036c541f359c350597b31a,2021-07-29_22h09.25.055,Simcolourproject_2stim_asymm_v5,2020.2.10,Win32,60,61025ae37ef11b136ea224fe,,,,,,,,,2646,80,-43,1,0,0,response3disk,,5,3,-4,1,0,0,rectangle,3,-4,1,0,0,3,-4,1,0,0,1,22,182,58,1,,,,,,,,
,,,,,,,,,,,,,FF,,,,,,,,2.237,,,,,,,,,,,,,,,,,,,,,,60fd92f2e5bceebabcd863de,61036c541f359c350597b31a,2021-07-29_22h09.25.055,Simcolourproject_2stim_asymm_v5,2020.2.10,Win32,60,61025ae37ef11b136ea224fe,,,,,,,,,4329,46,-82,1,0,0,response3disk,,4,-24,-5,1,0,0,rectangle,-24,-5,1,0,0,-24,-5,1,0,0,1,23,183,155,1,,,,,,,,
,,,,,,,,,,,,,FF,,,,,,,,1.223,,,,,,,,,,,,,,,,,,,,,,60fd92f2e5bceebabcd863de,61036c541f359c350597b31a,2021-07-29_22h09.25.055,Simcolourproject_2stim_asymm_v5,2020.2.10,Win32,60,61025ae37ef11b136ea224fe,,,,,,,,,4275,39,-79,1,0,0,response3disk,,4,-1,-4,1,0,0,rectangle,-1,-4,1,0,0,-1,-4,1,0,0,1,24,184,26,1,,,,,,,,
,,,,,,,,,,,,,FF,,,,,,,,0.904,,,,,,,,,,,,,,,,,,,,,,60fd92f2e5bceebabcd863de,61036c541f359c350597b31a,2021-07-29_22h09.25.055,Simcolourproject_2stim_asymm_v5,2020.2.10,Win32,60,61025ae37ef11b136ea224fe,,,,,,,,,371,-44,-72,1,0,0,response5disk,,3,0,2,1,0,0,rectangle,0,2,1,0,0,0,2,1,0,0,1,25,185,68,1,,,,,,,,
,,,,,,,,,,,,,FF,,,,,,,,1.509,,,,,,,,,,,,,,,,,,,,,,60fd92f2e5bceebabcd863de,61036c541f359c350597b31a,2021-07-29_22h09.25.055,Simcolourproject_2stim_asymm_v5,2020.2.10,Win32,60,61025ae37ef11b136ea224fe,,,,,,,,,226,61,-24,1,0,0,response3disk,,5,31,5,1,0,0,rectangle,31,5,1,0,0,31,5,1,0,0,1,26,186,121,1,,,,,,,,
,,,,,,,,,,,,,FF,,,,,,,,0.897,,,,,,,,,,,,,,,,,,,,,,60fd92f2e5bceebabcd863de,61036c541f359c350597b31a,2021-07-29_22h09.25.055,Simcolourproject_2stim_asymm_v5,2020.2.10,Win32,60,61025ae37ef11b136ea224fe,,,,,,,,,1608,-114,33,1,0,0,response7disk,,1,28,-2,1,0,0,rectangle,28,-2,1,0,0,28,-2,1,0,0,1,27,187,2,1,,,,,,,,
,,,,,,,,,,,,,FF,,,,,,,,0.442,,,,,,,,,,,,,,,,,,,,,,60fd92f2e5bceebabcd863de,61036c541f359c350597b31a,2021-07-29_22h09.25.055,Simcolourproject_2stim_asymm_v5,2020.2.10,Win32,60,61025ae37ef11b136ea224fe,,,,,,,,,2033,-67,35,1,0,0,response7disk,,1,40,-12,1,0,0,rectangle,40,-12,1,0,0,40,-12,1,0,0,1,28,188,65,1,,,,,,,,
,,,,,,,,,,,,,FF,,,,,,,,1.878,,,,,,,,,,,,,,,,,,,,,,60fd92f2e5bceebabcd863de,61036c541f359c350597b31a,2021-07-29_22h09.25.055,Simcolourproject_2stim_asymm_v5,2020.2.10,Win32,60,61025ae37ef11b136ea224fe,,,,,,,,,2382,59,37,1,0,0,response1disk,,6,25,-14,1,0,0,rectangle,25,-14,1,0,0,25,-14,1,0,0,1,29,189,20,1,,,,,,,,
,,,,,,,,,,,,,FF,,,,,,,,0.74,,,,,,,,,,,,,,,,,,,,,,60fd92f2e5bceebabcd863de,61036c541f359c350597b31a,2021-07-29_22h09.25.055,Simcolourproject_2stim_asymm_v5,2020.2.10,Win32,60,61025ae37ef11b136ea224fe,,,,,,,,,593,34,72,1,0,0,response1disk,,7,26,9,1,0,0,rectangle,26,9,1,0,0,26,9,1,0,0,1,30,190,14,1,,,,,,,,
,,,,,,,,,,,,,FF,,,,,,,,1.429,,,,,,,,,,,,,,,,,,,,,,60fd92f2e5bceebabcd863de,61036c541f359c350597b31a,2021-07-29_22h09.25.055,Simcolourproject_2stim_asymm_v5,2020.2.10,Win32,60,61025ae37ef11b136ea224fe,,,,,,,,,2548,-71,-46,1,0,0,response5disk,,2,-13,-2,1,0,0,rectangle,-87,45,1,0,0,-26,9,1,0,0,1,31,191,106,1,,response7disk_3,TRUE,1,1,"[47,192,36,242,27,121,208,19,244,138,244,140,231,266,119,77,286,74,302,322]",1.146,rectangle
,,,,,,,,,,,,,FF,,,,,,,,3.017,,,,,,,,,,,,,,,,,,,,,,60fd92f2e5bceebabcd863de,61036c541f359c350597b31a,2021-07-29_22h09.25.055,Simcolourproject_2stim_asymm_v5,2020.2.10,Win32,60,61025ae37ef11b136ea224fe,,,,,,,,,1675,-84,-31,1,0,0,response5disk,,2,9,-8,1,0,0,rectangle,9,-8,1,0,0,9,-8,1,0,0,1,32,192,5,1,,,,,,,,
,,,,,,,,,,,,,FF,,,,,,,,1.025,,,,,,,,,,,,,,,,,,,,,,60fd92f2e5bceebabcd863de,61036c541f359c350597b31a,2021-07-29_22h09.25.055,Simcolourproject_2stim_asymm_v5,2020.2.10,Win32,60,61025ae37ef11b136ea224fe,,,,,,,,,2788,-41,-66,1,0,0,response5disk,,3,-21,-14,1,0,0,rectangle,-21,-14,1,0,0,-21,-14,1,0,0,1,33,193,39,1,,,,,,,,
,,,,,,,,,,,,,FF,,,,,,,,2.521,,,,,,,,,,,,,,,,,,,,,,60fd92f2e5bceebabcd863de,61036c541f359c350597b31a,2021-07-29_22h09.25.055,Simcolourproject_2stim_asymm_v5,2020.2.10,Win32,60,61025ae37ef11b136ea224fe,,,,,,,,,223,93,-42,1,0,0,response3disk,,5,12,8,1,0,0,rectangle,12,8,1,0,0,12,8,1,0,0,1,34,194,11,1,,,,,,,,
,,,,,,,,,,,,,FF,,,,,,,,1.109,,,,,,,,,,,,,,,,,,,,,,60fd92f2e5bceebabcd863de,61036c541f359c350597b31a,2021-07-29_22h09.25.055,Simcolourproject_2stim_asymm_v5,2020.2.10,Win32,60,61025ae37ef11b136ea224fe,,,,,,,,,3316,39,73,1,0,0,response1disk,,7,32,10,1,0,0,rectangle,32,10,1,0,0,32,10,1,0,0,1,35,195,158,1,,,,,,,,
,,,,,,,,,,,,,FF,,,,,,,,1.539,,,,,,,,,,,,,,,,,,,,,,60fd92f2e5bceebabcd863de,61036c541f359c350597b31a,2021-07-29_22h09.25.055,Simcolourproject_2stim_asymm_v5,2020.2.10,Win32,60,61025ae37ef11b136ea224fe,,,,,,,,,3397,45,-64,1,0,0,response3disk,,4,10,11,1,0,0,rectangle,10,11,1,0,0,10,11,1,0,0,1,36,196,74,1,,,,,,,,
,,,,,,,,,,,,,FF,,,,,,,,1.678,,,,,,,,,,,,,,,,,,,,,,60fd92f2e5bceebabcd863de,61036c541f359c350597b31a,2021-07-29_22h09.25.055,Simcolourproject_2stim_asymm_v5,2020.2.10,Win32,60,61025ae37ef11b136ea224fe,,,,,,,,,1373,-81,-43,1,0,0,response5disk,,2,-2,16,1,0,0,rectangle,-2,16,1,0,0,-2,16,1,0,0,1,37,197,109,1,,,,,,,,
,,,,,,,,,,,,,FF,,,,,,,,0.903,,,,,,,,,,,,,,,,,,,,,,60fd92f2e5bceebabcd863de,61036c541f359c350597b31a,2021-07-29_22h09.25.055,Simcolourproject_2stim_asymm_v5,2020.2.10,Win32,60,61025ae37ef11b136ea224fe,,,,,,,,,360,53,25,1,0,0,response1disk,,6,20,2,1,0,0,rectangle,20,2,1,0,0,20,2,1,0,0,1,38,198,139,1,,,,,,,,
,,,,,,,,,,,,,FF,,,,,,,,1.468,,,,,,,,,,,,,,,,,,,,,,60fd92f2e5bceebabcd863de,61036c541f359c350597b31a,2021-07-29_22h09.25.055,Simcolourproject_2stim_asymm_v5,2020.2.10,Win32,60,61025ae37ef11b136ea224fe,,,,,,,,,2867,65,-31,1,0,0,response3disk,,5,12,6,1,0,0,rectangle,12,6,1,0,0,12,6,1,0,0,1,39,199,98,1,,,,,,,,
,,,,,,,,,,,,,FF,,,,,,,,0.969,,,,,,,,,,,,,,,,,,,,,,60fd92f2e5bceebabcd863de,61036c541f359c350597b31a,2021-07-29_22h09.25.055,Simcolourproject_2stim_asymm_v5,2020.2.10,Win32,60,61025ae37ef11b136ea224fe,,,,,,,,,4133,41,79,1,0,0,response1disk,,7,30,-6,1,0,0,rectangle,30,-6,1,0,0,30,-6,1,0,0,1,40,200,147,1,,,,,,,,
,,,,,,,,,,,,,FF,,,,,,,,1.879,,,,,,,,,,,,,,,,,,,,,,60fd92f2e5bceebabcd863de,61036c541f359c350597b31a,2021-07-29_22h09.25.055,Simcolourproject_2stim_asymm_v5,2020.2.10,Win32,60,61025ae37ef11b136ea224fe,,,,,,,,,120,81,-59,1,0,0,response3disk,,5,14,0,1,0,0,rectangle,14,0,1,0,0,14,0,1,0,0,1,41,201,12,1,,,,,,,,
,,,,,,,,,,,,,FF,,,,,,,,0.722,,,,,,,,,,,,,,,,,,,,,,60fd92f2e5bceebabcd863de,61036c541f359c350597b31a,2021-07-29_22h09.25.055,Simcolourproject_2stim_asymm_v5,2020.2.10,Win32,60,61025ae37ef11b136ea224fe,,,,,,,,,2458,41,69,1,0,0,response1disk,,7,31,10,1,0,0,rectangle,31,10,1,0,0,31,10,1,0,0,1,42,202,138,1,,,,,,,,
,,,,,,,,,,,,,FF,,,,,,,,1.837,,,,,,,,,,,,,,,,,,,,,,60fd92f2e5bceebabcd863de,61036c541f359c350597b31a,2021-07-29_22h09.25.055,Simcolourproject_2stim_asymm_v5,2020.2.10,Win32,60,61025ae37ef11b136ea224fe,,,,,,,,,138,84,34,1,0,0,response1disk,,6,36,-1,1,0,0,rectangle,36,-1,1,0,0,36,-1,1,0,0,1,43,203,86,1,,,,,,,,
,,,,,,,,,,,,,FF,,,,,,,,1.418,,,,,,,,,,,,,,,,,,,,,,60fd92f2e5bceebabcd863de,61036c541f359c350597b31a,2021-07-29_22h09.25.055,Simcolourproject_2stim_asymm_v5,2020.2.10,Win32,60,61025ae37ef11b136ea224fe,,,,,,,,,696,67,33,1,0,0,response1disk,,6,31,5,1,0,0,rectangle,31,5,1,0,0,31,5,1,0,0,1,44,204,27,1,,,,,,,,
,,,,,,,,,,,,,FF,,,,,,,,1.545,,,,,,,,,,,,,,,,,,,,,,60fd92f2e5bceebabcd863de,61036c541f359c350597b31a,2021-07-29_22h09.25.055,Simcolourproject_2stim_asymm_v5,2020.2.10,Win32,60,61025ae37ef11b136ea224fe,,,,,,,,,2529,40,83,1,0,0,response1disk,,7,38,21,1,0,0,rectangle,38,21,1,0,0,38,21,1,0,0,1,45,205,135,1,,,,,,,,
,,,,,,,,,,,,,FF,,,,,,,,1.897,,,,,,,,,,,,,,,,,,,,,,60fd92f2e5bceebabcd863de,61036c541f359c350597b31a,2021-07-29_22h09.25.055,Simcolourproject_2stim_asymm_v5,2020.2.10,Win32,60,61025ae37ef11b136ea224fe,,,,,,,,,1120,64,-33,1,0,0,response3disk,,5,28,13,1,0,0,rectangle,28,13,1,0,0,28,13,1,0,0,1,46,206,97,1,,,,,,,,
,,,,,,,,,,,,,FF,,,,,,,,0.582,,,,,,,,,,,,,,,,,,,,,,60fd92f2e5bceebabcd863de,61036c541f359c350597b31a,2021-07-29_22h09.25.055,Simcolourproject_2stim_asymm_v5,2020.2.10,Win32,60,61025ae37ef11b136ea224fe,,,,,,,,,1103,30,67,1,0,0,response1disk,,7,32,19,1,0,0,rectangle,-88,39,1,0,0,-3,4,1,0,0,1,47,207,127,1,,response7disk_3,TRUE,1,1,"[47,192,36,242,27,121,208,19,244,138,244,140,231,266,119,77,286,74,302,322]",0.988,rectangle
,,,,,,,,,,,,,FF,,,,,,,,1.97,,,,,,,,,,,,,,,,,,,,,,60fd92f2e5bceebabcd863de,61036c541f359c350597b31a,2021-07-29_22h09.25.055,Simcolourproject_2stim_asymm_v5,2020.2.10,Win32,60,61025ae37ef11b136ea224fe,,,,,,,,,2554,69,-41,1,0,0,response3disk,,5,-2,-5,1,0,0,rectangle,-2,-5,1,0,0,-2,-5,1,0,0,1,48,208,72,1,,,,,,,,
,,,,,,,,,,,,,FF,,,,,,,,1.308,,,,,,,,,,,,,,,,,,,,,,60fd92f2e5bceebabcd863de,61036c541f359c350597b31a,2021-07-29_22h09.25.055,Simcolourproject_2stim_asymm_v5,2020.2.10,Win32,60,61025ae37ef11b136ea224fe,,,,,,,,,2973,26,48,1,0,0,response1disk,,7,20,0,1,0,0,rectangle,20,0,1,0,0,20,0,1,0,0,1,49,209,92,1,,,,,,,,
,,,,,,,,,,,,,FF,,,,,,,,0.6,,,,,,,,,,,,,,,,,,,,,,60fd92f2e5bceebabcd863de,61036c541f359c350597b31a,2021-07-29_22h09.25.055,Simcolourproject_2stim_asymm_v5,2020.2.10,Win32,60,61025ae37ef11b136ea224fe,,,,,,,,,2253,43,97,1,0,0,response1disk,,7,20,16,1,0,0,rectangle,20,16,1,0,0,20,16,1,0,0,1,50,210,88,1,,,,,,,,
,,,,,,,,,,,,,FF,,,,,,,,1.236,,,,,,,,,,,,,,,,,,,,,,60fd92f2e5bceebabcd863de,61036c541f359c350597b31a,2021-07-29_22h09.25.055,Simcolourproject_2stim_asymm_v5,2020.2.10,Win32,60,61025ae37ef11b136ea224fe,,,,,,,,,2824,101,-25,1,0,0,response3disk,,5,39,12,1,0,0,rectangle,39,12,1,0,0,39,12,1,0,0,1,51,211,19,1,,,,,,,,
,,,,,,,,,,,,,FF,,,,,,,,1.836,,,,,,,,,,,,,,,,,,,,,,60fd92f2e5bceebabcd863de,61036c541f359c350597b31a,2021-07-29_22h09.25.055,Simcolourproject_2stim_asymm_v5,2020.2.10,Win32,60,61025ae37ef11b136ea224fe,,,,,,,,,3565,29,-77,1,0,0,response3disk,,4,-8,-10,1,0,0,rectangle,-8,-10,1,0,0,-8,-10,1,0,0,1,52,212,103,1,,,,,,,,
,,,,,,,,,,,,,FF,,,,,,,,1.485,,,,,,,,,,,,,,,,,,,,,,60fd92f2e5bceebabcd863de,61036c541f359c350597b31a,2021-07-29_22h09.25.055,Simcolourproject_2stim_asymm_v5,2020.2.10,Win32,60,61025ae37ef11b136ea224fe,,,,,,,,,1863,64,-66,1,0,0,response3disk,,4,0,-2,1,0,0,rectangle,0,-2,1,0,0,0,-2,1,0,0,1,53,213,73,1,,,,,,,,
,,,,,,,,,,,,,FF,,,,,,,,4.169,,,,,,,,,,,,,,,,,,,,,,60fd92f2e5bceebabcd863de,61036c541f359c350597b31a,2021-07-29_22h09.25.055,Simcolourproject_2stim_asymm_v5,2020.2.10,Win32,60,61025ae37ef11b136ea224fe,,,,,,,,,1530,-38,-55,1,0,0,response5disk,,3,-25,-9,1,0,0,rectangle,-25,-9,1,0,0,-25,-9,1,0,0,1,54,214,6,1,,,,,,,,
,,,,,,,,,,,,,FF,,,,,,,,1.94,,,,,,,,,,,,,,,,,,,,,,60fd92f2e5bceebabcd863de,61036c541f359c350597b31a,2021-07-29_22h09.25.055,Simcolourproject_2stim_asymm_v5,2020.2.10,Win32,60,61025ae37ef11b136ea224fe,,,,,,,,,2387,57,79,1,0,0,response1disk,,7,27,13,1,0,0,rectangle,27,13,1,0,0,27,13,1,0,0,1,55,215,100,1,,,,,,,,
,,,,,,,,,,,,,FF,,,,,,,,2.818,,,,,,,,,,,,,,,,,,,,,,60fd92f2e5bceebabcd863de,61036c541f359c350597b31a,2021-07-29_22h09.25.055,Simcolourproject_2stim_asymm_v5,2020.2.10,Win32,60,61025ae37ef11b136ea224fe,,,,,,,,,3528,91,-45,1,0,0,response3disk,,5,-5,2,1,0,0,rectangle,-5,2,1,0,0,-5,2,1,0,0,1,56,216,77,1,,,,,,,,
,,,,,,,,,,,,,FF,,,,,,,,1.235,,,,,,,,,,,,,,,,,,,,,,60fd92f2e5bceebabcd863de,61036c541f359c350597b31a,2021-07-29_22h09.25.055,Simcolourproject_2stim_asymm_v5,2020.2.10,Win32,60,61025ae37ef11b136ea224fe,,,,,,,,,1857,91,41,1,0,0,response1disk,,6,36,6,1,0,0,rectangle,36,6,1,0,0,36,6,1,0,0,1,57,217,105,1,,,,,,,,
,,,,,,,,,,,,,FF,,,,,,,,0.71,,,,,,,,,,,,,,,,,,,,,,60fd92f2e5bceebabcd863de,61036c541f359c350597b31a,2021-07-29_22h09.25.055,Simcolourproject_2stim_asymm_v5,2020.2.10,Win32,60,61025ae37ef11b136ea224fe,,,,,,,,,3955,28,56,1,0,0,response1disk,,7,19,2,1,0,0,rectangle,19,2,1,0,0,19,2,1,0,0,1,58,218,85,1,,,,,,,,
,,,,,,,,,,,,,FF,,,,,,,,0.527,,,,,,,,,,,,,,,,,,,,,,60fd92f2e5bceebabcd863de,61036c541f359c350597b31a,2021-07-29_22h09.25.055,Simcolourproject_2stim_asymm_v5,2020.2.10,Win32,60,61025ae37ef11b136ea224fe,,,,,,,,,308,18,57,1,0,0,response1disk,,7,16,-2,1,0,0,rectangle,16,-2,1,0,0,16,-2,1,0,0,1,59,219,145,1,,,,,,,,
,,,,,,,,,,,,,FF,,,,,,,,1.564,,,,,,,,,,,,,,,,,,,,,,60fd92f2e5bceebabcd863de,61036c541f359c350597b31a,2021-07-29_22h09.25.055,Simcolourproject_2stim_asymm_v5,2020.2.10,Win32,60,61025ae37ef11b136ea224fe,,,,,,,,,191,-39,-73,1,0,0,response5disk,,3,11,-3,1,0,0,rectangle,11,-3,1,0,0,11,-3,1,0,0,1,60,220,95,1,,,,,,,,
,,,,,,,,,,,,,FF,,,,,,,,3.097,,,,,,,,,,,,,,,,,,,,,,60fd92f2e5bceebabcd863de,61036c541f359c350597b31a,2021-07-29_22h09.25.055,Simcolourproject_2stim_asymm_v5,2020.2.10,Win32,60,61025ae37ef11b136ea224fe,,,,,,,,,3272,62,33,1,0,0,response1disk,,6,26,9,1,0,0,rectangle,26,9,1,0,0,26,9,1,0,0,1,61,221,38,1,,,,,,,,
,,,,,,,,,,,,,FF,,,,,,,,1.449,,,,,,,,,,,,,,,,,,,,,,60fd92f2e5bceebabcd863de,61036c541f359c350597b31a,2021-07-29_22h09.25.055,Simcolourproject_2stim_asymm_v5,2020.2.10,Win32,60,61025ae37ef11b136ea224fe,,,,,,,,,901,37,-59,1,0,0,response3disk,,4,-10,-7,1,0,0,rectangle,-10,-7,1,0,0,-10,-7,1,0,0,1,62,222,90,1,,,,,,,,
,,,,,,,,,,,,,FF,,,,,,,,1.134,,,,,,,,,,,,,,,,,,,,,,60fd92f2e5bceebabcd863de,61036c541f359c350597b31a,2021-07-29_22h09.25.055,Simcolourproject_2stim_asymm_v5,2020.2.10,Win32,60,61025ae37ef11b136ea224fe,,,,,,,,,1345,42,-25,1,0,0,response3disk,,5,-2,-7,1,0,0,rectangle,-2,-7,1,0,0,-2,-7,1,0,0,1,63,223,137,1,,,,,,,,
,,,,,,,,,,,,,FF,,,,,,,,1.357,,,,,,,,,,,,,,,,,,,,,,60fd92f2e5bceebabcd863de,61036c541f359c350597b31a,2021-07-29_22h09.25.055,Simcolourproject_2stim_asymm_v5,2020.2.10,Win32,60,61025ae37ef11b136ea224fe,,,,,,,,,852,105,-33,1,0,0,response3disk,,5,-4,-7,1,0,0,rectangle,-4,-7,1,0,0,-4,-7,1,0,0,1,64,224,40,1,,,,,,,,
,,,,,,,,,,,,,FF,,,,,,,,1.109,,,,,,,,,,,,,,,,,,,,,,60fd92f2e5bceebabcd863de,61036c541f359c350597b31a,2021-07-29_22h09.25.055,Simcolourproject_2stim_asymm_v5,2020.2.10,Win32,60,61025ae37ef11b136ea224fe,,,,,,,,,2889,-47,-72,1,0,0,response5disk,,3,-13,2,1,0,0,rectangle,-13,2,1,0,0,-13,2,1,0,0,1,65,225,50,1,,,,,,,,
,,,,,,,,,,,,,FF,,,,,,,,1.339,,,,,,,,,,,,,,,,,,,,,,60fd92f2e5bceebabcd863de,61036c541f359c350597b31a,2021-07-29_22h09.25.055,Simcolourproject_2stim_asymm_v5,2020.2.10,Win32,60,61025ae37ef11b136ea224fe,,,,,,,,,753,62,42,1,0,0,response1disk,,6,-4,4,1,0,0,rectangle,-4,4,1,0,0,-4,4,1,0,0,1,66,226,136,1,,,,,,,,
,,,,,,,,,,,,,FF,,,,,,,,0.958,,,,,,,,,,,,,,,,,,,,,,60fd92f2e5bceebabcd863de,61036c541f359c350597b31a,2021-07-29_22h09.25.055,Simcolourproject_2stim_asymm_v5,2020.2.10,Win32,60,61025ae37ef11b136ea224fe,,,,,,,,,648,90,-40,1,0,0,response3disk,,5,22,-4,1,0,0,rectangle,22,-4,1,0,0,22,-4,1,0,0,1,67,227,21,1,,,,,,,,
,,,,,,,,,,,,,FF,,,,,,,,1.285,,,,,,,,,,,,,,,,,,,,,,60fd92f2e5bceebabcd863de,61036c541f359c350597b31a,2021-07-29_22h09.25.055,Simcolourproject_2stim_asymm_v5,2020.2.10,Win32,60,61025ae37ef11b136ea224fe,,,,,,,,,3162,-48,-74,1,0,0,response5disk,,3,-19,-9,1,0,0,rectangle,-19,-9,1,0,0,-19,-9,1,0,0,1,68,228,1,1,,,,,,,,
,,,,,,,,,,,,,FF,,,,,,,,1.376,,,,,,,,,,,,,,,,,,,,,,60fd92f2e5bceebabcd863de,61036c541f359c350597b31a,2021-07-29_22h09.25.055,Simcolourproject_2stim_asymm_v5,2020.2.10,Win32,60,61025ae37ef11b136ea224fe,,,,,,,,,3475,-67,33,1,0,0,response7disk,,1,21,7,1,0,0,rectangle,21,7,1,0,0,21,7,1,0,0,1,69,229,141,1,,,,,,,,
,,,,,,,,,,,,,FF,,,,,,,,0.478,,,,,,,,,,,,,,,,,,,,,,60fd92f2e5bceebabcd863de,61036c541f359c350597b31a,2021-07-29_22h09.25.055,Simcolourproject_2stim_asymm_v5,2020.2.10,Win32,60,61025ae37ef11b136ea224fe,,,,,,,,,1597,-61,34,1,0,0,response7disk,,1,24,-7,1,0,0,rectangle,-47,99,1,0,0,-12,-17,1,0,0,1,70,230,23,1,,response7disk_3,TRUE,0,0,"[47,192,36,242,27,121,208,19,244,138,244,140,231,266,119,77,286,74,302,322]",1.145,rectangle
,,,,,,,,,,,,,FF,,,,,,,,1.067,,,,,,,,,,,,,,,,,,,,,,60fd92f2e5bceebabcd863de,61036c541f359c350597b31a,2021-07-29_22h09.25.055,Simcolourproject_2stim_asymm_v5,2020.2.10,Win32,60,61025ae37ef11b136ea224fe,,,,,,,,,3383,-73,45,1,0,0,response7disk,,1,1,11,1,0,0,rectangle,1,11,1,0,0,1,11,1,0,0,1,71,231,122,1,,,,,,,,
,,,,,,,,,,,,,FF,,,,,,,,1.388,,,,,,,,,,,,,,,,,,,,,,60fd92f2e5bceebabcd863de,61036c541f359c350597b31a,2021-07-29_22h09.25.055,Simcolourproject_2stim_asymm_v5,2020.2.10,Win32,60,61025ae37ef11b136ea224fe,,,,,,,,,2097,24,-67,1,0,0,response3disk,,4,-17,2,1,0,0,rectangle,-17,2,1,0,0,-17,2,1,0,0,1,72,232,15,1,,,,,,,,
,,,,,,,,,,,,,FF,,,,,,,,1.819,,,,,,,,,,,,,,,,,,,,,,60fd92f2e5bceebabcd863de,61036c541f359c350597b31a,2021-07-29_22h09.25.055,Simcolourproject_2stim_asymm_v5,2020.2.10,Win32,60,61025ae37ef11b136ea224fe,,,,,,,,,4108,54,36,1,0,0,response1disk,,6,16,11,1,0,0,rectangle,16,11,1,0,0,16,11,1,0,0,1,73,233,93,1,,,,,,,,
,,,,,,,,,,,,,FF,,,,,,,,1.442,,,,,,,,,,,,,,,,,,,,,,60fd92f2e5bceebabcd863de,61036c541f359c350597b31a,2021-07-29_22h09.25.055,Simcolourproject_2stim_asymm_v5,2020.2.10,Win32,60,61025ae37ef11b136ea224fe,,,,,,,,,1684,-75,21,1,0,0,response7disk,,1,-18,-3,1,0,0,rectangle,-18,-3,1,0,0,-18,-3,1,0,0,1,74,234,9,1,,,,,,,,
,,,,,,,,,,,,,FF,,,,,,,,1.637,,,,,,,,,,,,,,,,,,,,,,60fd92f2e5bceebabcd863de,61036c541f359c350597b31a,2021-07-29_22h09.25.055,Simcolourproject_2stim_asymm_v5,2020.2.10,Win32,60,61025ae37ef11b136ea224fe,,,,,,,,,1565,37,-78,1,0,0,response3disk,,4,-29,-9,1,0,0,rectangle,-29,-9,1,0,0,-29,-9,1,0,0,1,75,235,25,1,,,,,,,,
,,,,,,,,,,,,,FF,,,,,,,,1.788,,,,,,,,,,,,,,,,,,,,,,60fd92f2e5bceebabcd863de,61036c541f359c350597b31a,2021-07-29_22h09.25.055,Simcolourproject_2stim_asymm_v5,2020.2.10,Win32,60,61025ae37ef11b136ea224fe,,,,,,,,,3411,86,-26,1,0,0,response3disk,,5,27,19,1,0,0,rectangle,27,19,1,0,0,27,19,1,0,0,1,76,236,117,1,,,,,,,,
,,,,,,,,,,,,,FF,,,,,,,,0.691,,,,,,,,,,,,,,,,,,,,,,60fd92f2e5bceebabcd863de,61036c541f359c350597b31a,2021-07-29_22h09.25.055,Simcolourproject_2stim_asymm_v5,2020.2.10,Win32,60,61025ae37ef11b136ea224fe,,,,,,,,,4365,-76,41,1,0,0,response7disk,,1,-1,12,1,0,0,rectangle,-1,12,1,0,0,-1,12,1,0,0,1,77,237,156,1,,,,,,,,
,,,,,,,,,,,,,FF,,,,,,,,1.025,,,,,,,,,,,,,,,,,,,,,,60fd92f2e5bceebabcd863de,61036c541f359c350597b31a,2021-07-29_22h09.25.055,Simcolourproject_2stim_asymm_v5,2020.2.10,Win32,60,61025ae37ef11b136ea224fe,,,,,,,,,3778,-52,-31,1,0,0,response5disk,,2,22,-2,1,0,0,rectangle,22,-2,1,0,0,22,-2,1,0,0,1,78,238,70,1,,,,,,,,
,,,,,,,,,,,,,FF,,,,,,,,3.539,,,,,,,,,,,,,,,,,,,,,,60fd92f2e5bceebabcd863de,61036c541f359c350597b31a,2021-07-29_22h09.25.055,Simcolourproject_2stim_asymm_v5,2020.2.10,Win32,60,61025ae37ef11b136ea224fe,,,,,,,,,3387,30,-51,1,0,0,response3disk,,4,10,-1,1,0,0,rectangle,10,-1,1,0,0,10,-1,1,0,0,1,79,239,66,1,,,,,,,,
,,,,,,,,,,,,,FF,,,,,,,,0.551,,,,,,,,,,,,,,,,,,,,,,60fd92f2e5bceebabcd863de,61036c541f359c350597b31a,2021-07-29_22h09.25.055,Simcolourproject_2stim_asymm_v5,2020.2.10,Win32,60,61025ae37ef11b136ea224fe,,,,,,,,,2940,-64,36,1,0,0,response7disk,,1,3,12,1,0,0,rectangle,3,12,1,0,0,3,12,1,0,0,1,80,240,13,1,,,,,,,,
,,,,,,,,,,,,,FF,,,,,,,,2.2,,,,,,,,,,,,,,,,,,,,,,60fd92f2e5bceebabcd863de,61036c541f359c350597b31a,2021-07-29_22h09.25.055,Simcolourproject_2stim_asymm_v5,2020.2.10,Win32,60,61025ae37ef11b136ea224fe,,,,,,,,,325,29,69,1,0,0,response1disk,,7,9,0,1,0,0,rectangle,-37,-75,1,0,0,-9,2,1,0,0,1,81,241,108,1,,response5disk_3,TRUE,3,3,"[47,192,36,242,27,121,208,19,244,138,244,140,231,266,119,77,286,74,302,322]",1.812,rectangle
,,,,,,,,,,,,,FF,,,,,,,,0.722,,,,,,,,,,,,,,,,,,,,,,60fd92f2e5bceebabcd863de,61036c541f359c350597b31a,2021-07-29_22h09.25.055,Simcolourproject_2stim_asymm_v5,2020.2.10,Win32,60,61025ae37ef11b136ea224fe,,,,,,,,,2507,29,57,1,0,0,response1disk,,7,13,16,1,0,0,rectangle,13,16,1,0,0,13,16,1,0,0,1,82,242,115,1,,,,,,,,
,,,,,,,,,,,,,FF,,,,,,,,1.376,,,,,,,,,,,,,,,,,,,,,,60fd92f2e5bceebabcd863de,61036c541f359c350597b31a,2021-07-29_22h09.25.055,Simcolourproject_2stim_asymm_v5,2020.2.10,Win32,60,61025ae37ef11b136ea224fe,,,,,,,,,2727,-70,-26,1,0,0,response5disk,,2,-1,2,1,0,0,rectangle,50,112,1,0,0,7,20,1,0,0,1,83,243,62,1,,response1disk_3,TRUE,7,7,"[47,192,36,242,27,121,208,19,244,138,244,140,231,266,119,77,286,74,302,322]",1.648,rectangle
,,,,,,,,,,,,,FF,,,,,,,,1.582,,,,,,,,,,,,,,,,,,,,,,60fd92f2e5bceebabcd863de,61036c541f359c350597b31a,2021-07-29_22h09.25.055,Simcolourproject_2stim_asymm_v5,2020.2.10,Win32,60,61025ae37ef11b136ea224fe,,,,,,,,,75,20,-60,1,0,0,response3disk,,4,-7,-6,1,0,0,rectangle,-7,-6,1,0,0,-7,-6,1,0,0,1,84,244,30,1,,,,,,,,
,,,,,,,,,,,,,FF,,,,,,,,1.352,,,,,,,,,,,,,,,,,,,,,,60fd92f2e5bceebabcd863de,61036c541f359c350597b31a,2021-07-29_22h09.25.055,Simcolourproject_2stim_asymm_v5,2020.2.10,Win32,60,61025ae37ef11b136ea224fe,,,,,,,,,4363,-77,29,1,0,0,response7disk,,1,-10,-1,1,0,0,rectangle,-10,-1,1,0,0,-10,-1,1,0,0,1,85,245,149,1,,,,,,,,
,,,,,,,,,,,,,FF,,,,,,,,0.661,,,,,,,,,,,,,,,,,,,,,,60fd92f2e5bceebabcd863de,61036c541f359c350597b31a,2021-07-29_22h09.25.055,Simcolourproject_2stim_asymm_v5,2020.2.10,Win32,60,61025ae37ef11b136ea224fe,,,,,,,,,3913,-96,35,1,0,0,response7disk,,1,-23,0,1,0,0,rectangle,-23,0,1,0,0,-23,0,1,0,0,1,86,246,60,1,,,,,,,,
,,,,,,,,,,,,,FF,,,,,,,,1.067,,,,,,,,,,,,,,,,,,,,,,60fd92f2e5bceebabcd863de,61036c541f359c350597b31a,2021-07-29_22h09.25.055,Simcolourproject_2stim_asymm_v5,2020.2.10,Win32,60,61025ae37ef11b136ea224fe,,,,,,,,,4137,38,60,1,0,0,response1disk,,7,-10,5,1,0,0,rectangle,-10,5,1,0,0,-10,5,1,0,0,1,87,247,125,1,,,,,,,,
,,,,,,,,,,,,,FF,,,,,,,,1.061,,,,,,,,,,,,,,,,,,,,,,60fd92f2e5bceebabcd863de,61036c541f359c350597b31a,2021-07-29_22h09.25.055,Simcolourproject_2stim_asymm_v5,2020.2.10,Win32,60,61025ae37ef11b136ea224fe,,,,,,,,,1928,-22,-56,1,0,0,response5disk,,3,1,-10,1,0,0,rectangle,1,-10,1,0,0,1,-10,1,0,0,1,88,248,99,1,,,,,,,,
,,,,,,,,,,,,,FF,,,,,,,,1.739,,,,,,,,,,,,,,,,,,,,,,60fd92f2e5bceebabcd863de,61036c541f359c350597b31a,2021-07-29_22h09.25.055,Simcolourproject_2stim_asymm_v5,2020.2.10,Win32,60,61025ae37ef11b136ea224fe,,,,,,,,,3441,16,-40,1,0,0,response3disk,,4,-12,-6,1,0,0,rectangle,-12,-6,1,0,0,-12,-6,1,0,0,1,89,249,157,1,,,,,,,,
,,,,,,,,,,,,,FF,,,,,,,,0.824,,,,,,,,,,,,,,,,,,,,,,60fd92f2e5bceebabcd863de,61036c541f359c350597b31a,2021-07-29_22h09.25.055,Simcolourproject_2stim_asymm_v5,2020.2.10,Win32,60,61025ae37ef11b136ea224fe,,,,,,,,,4306,-76,29,1,0,0,response7disk,,1,-7,-1,1,0,0,rectangle,-7,-1,1,0,0,-7,-1,1,0,0,1,90,250,32,1,,,,,,,,
,,,,,,,,,,,,,FF,,,,,,,,0.534,,,,,,,,,,,,,,,,,,,,,,60fd92f2e5bceebabcd863de,61036c541f359c350597b31a,2021-07-29_22h09.25.055,Simcolourproject_2stim_asymm_v5,2020.2.10,Win32,60,61025ae37ef11b136ea224fe,,,,,,,,,3777,-78,30,1,0,0,response7disk,,1,-10,-2,1,0,0,rectangle,-10,-2,1,0,0,-10,-2,1,0,0,1,91,251,49,1,,,,,,,,
,,,,,,,,,,,,,FF,,,,,,,,1.521,,,,,,,,,,,,,,,,,,,,,,60fd92f2e5bceebabcd863de,61036c541f359c350597b31a,2021-07-29_22h09.25.055,Simcolourproject_2stim_asymm_v5,2020.2.10,Win32,60,61025ae37ef11b136ea224fe,,,,,,,,,1548,-40,-53,1,0,0,response5disk,,3,-1,8,1,0,0,rectangle,-1,8,1,0,0,-1,8,1,0,0,1,92,252,84,1,,,,,,,,
,,,,,,,,,,,,,FF,,,,,,,,2.576,,,,,,,,,,,,,,,,,,,,,,60fd92f2e5bceebabcd863de,61036c541f359c350597b31a,2021-07-29_22h09.25.055,Simcolourproject_2stim_asymm_v5,2020.2.10,Win32,60,61025ae37ef11b136ea224fe,,,,,,,,,3681,98,-31,1,0,0,response3disk,,5,-6,-14,1,0,0,rectangle,-6,-14,1,0,0,-6,-14,1,0,0,1,93,253,89,1,,,,,,,,
,,,,,,,,,,,,,FF,,,,,,,,1.376,,,,,,,,,,,,,,,,,,,,,,60fd92f2e5bceebabcd863de,61036c541f359c350597b31a,2021-07-29_22h09.25.055,Simcolourproject_2stim_asymm_v5,2020.2.10,Win32,60,61025ae37ef11b136ea224fe,,,,,,,,,2045,91,-35,1,0,0,response3disk,,5,-8,6,1,0,0,rectangle,-8,6,1,0,0,-8,6,1,0,0,1,94,254,80,1,,,,,,,,
,,,,,,,,,,,,,FF,,,,,,,,0.928,,,,,,,,,,,,,,,,,,,,,,60fd92f2e5bceebabcd863de,61036c541f359c350597b31a,2021-07-29_22h09.25.055,Simcolourproject_2stim_asymm_v5,2020.2.10,Win32,60,61025ae37ef11b136ea224fe,,,,,,,,,569,-35,-68,1,0,0,response5disk,,3,-31,-13,1,0,0,rectangle,-31,-13,1,0,0,-31,-13,1,0,0,1,95,255,46,1,,,,,,,,
,,,,,,,,,,,,,FF,,,,,,,,1.042,,,,,,,,,,,,,,,,,,,,,,60fd92f2e5bceebabcd863de,61036c541f359c350597b31a,2021-07-29_22h09.25.055,Simcolourproject_2stim_asymm_v5,2020.2.10,Win32,60,61025ae37ef11b136ea224fe,,,,,,,,,3024,30,47,1,0,0,response1disk,,7,9,-15,1,0,0,rectangle,9,-15,1,0,0,9,-15,1,0,0,1,96,256,57,1,,,,,,,,
,,,,,,,,,,,,,FF,,,,,,,,2.048,,,,,,,,,,,,,,,,,,,,,,60fd92f2e5bceebabcd863de,61036c541f359c350597b31a,2021-07-29_22h09.25.055,Simcolourproject_2stim_asymm_v5,2020.2.10,Win32,60,61025ae37ef11b136ea224fe,,,,,,,,,4169,-37,-67,1,0,0,response5disk,,3,-12,-6,1,0,0,rectangle,-12,-6,1,0,0,-12,-6,1,0,0,1,97,257,10,1,,,,,,,,
,,,,,,,,,,,,,FF,,,,,,,,1.969,,,,,,,,,,,,,,,,,,,,,,60fd92f2e5bceebabcd863de,61036c541f359c350597b31a,2021-07-29_22h09.25.055,Simcolourproject_2stim_asymm_v5,2020.2.10,Win32,60,61025ae37ef11b136ea224fe,,,,,,,,,2060,54,-32,1,0,0,response3disk,,5,-9,-15,1,0,0,rectangle,-9,-15,1,0,0,-9,-15,1,0,0,1,98,258,123,1,,,,,,,,
,,,,,,,,,,,,,FF,,,,,,,,1.243,,,,,,,,,,,,,,,,,,,,,,60fd92f2e5bceebabcd863de,61036c541f359c350597b31a,2021-07-29_22h09.25.055,Simcolourproject_2stim_asymm_v5,2020.2.10,Win32,60,61025ae37ef11b136ea224fe,,,,,,,,,2528,33,56,1,0,0,response1disk,,7,11,-12,1,0,0,rectangle,11,-12,1,0,0,11,-12,1,0,0,1,99,259,148,1,,,,,,,,
,,,,,,,,,,,,,FF,,,,,,,,0.521,,,,,,,,,,,,,,,,,,,,,,60fd92f2e5bceebabcd863de,61036c541f359c350597b31a,2021-07-29_22h09.25.055,Simcolourproject_2stim_asymm_v5,2020.2.10,Win32,60,61025ae37ef11b136ea224fe,,,,,,,,,2505,38,71,1,0,0,response1disk,,7,16,-5,1,0,0,rectangle,16,-5,1,0,0,16,-5,1,0,0,1,100,260,42,1,,,,,,,,
,,,,,,,,,,,,,FF,,,,,,,,1.727,,,,,,,,,,,,,,,,,,,,,,60fd92f2e5bceebabcd863de,61036c541f359c350597b31a,2021-07-29_22h09.25.055,Simcolourproject_2stim_asymm_v5,2020.2.10,Win32,60,61025ae37ef11b136ea224fe,,,,,,,,,2962,-31,-53,1,0,0,response5disk,,3,-5,0,1,0,0,rectangle,-5,0,1,0,0,-5,0,1,0,0,1,101,261,113,1,,,,,,,,
,,,,,,,,,,,,,FF,,,,,,,,1.206,,,,,,,,,,,,,,,,,,,,,,60fd92f2e5bceebabcd863de,61036c541f359c350597b31a,2021-07-29_22h09.25.055,Simcolourproject_2stim_asymm_v5,2020.2.10,Win32,60,61025ae37ef11b136ea224fe,,,,,,,,,151,35,59,1,0,0,response1disk,,7,10,0,1,0,0,rectangle,10,0,1,0,0,10,0,1,0,0,1,102,262,146,1,,,,,,,,
,,,,,,,,,,,,,FF,,,,,,,,3.327,,,,,,,,,,,,,,,,,,,,,,60fd92f2e5bceebabcd863de,61036c541f359c350597b31a,2021-07-29_22h09.25.055,Simcolourproject_2stim_asymm_v5,2020.2.10,Win32,60,61025ae37ef11b136ea224fe,,,,,,,,,1044,35,-42,1,0,0,response3disk,,4,-10,-5,1,0,0,rectangle,-10,-5,1,0,0,-10,-5,1,0,0,1,103,263,87,1,,,,,,,,
,,,,,,,,,,,,,FF,,,,,,,,1.377,,,,,,,,,,,,,,,,,,,,,,60fd92f2e5bceebabcd863de,61036c541f359c350597b31a,2021-07-29_22h09.25.055,Simcolourproject_2stim_asymm_v5,2020.2.10,Win32,60,61025ae37ef11b136ea224fe,,,,,,,,,3483,35,-61,1,0,0,response3disk,,4,-5,4,1,0,0,rectangle,-5,4,1,0,0,-5,4,1,0,0,1,104,264,16,1,,,,,,,,
,,,,,,,,,,,,,FF,,,,,,,,4.297,,,,,,,,,,,,,,,,,,,,,,60fd92f2e5bceebabcd863de,61036c541f359c350597b31a,2021-07-29_22h09.25.055,Simcolourproject_2stim_asymm_v5,2020.2.10,Win32,60,61025ae37ef11b136ea224fe,,,,,,,,,140,24,-20,1,0,0,response3disk,,5,-31,9,1,0,0,rectangle,-76,58,1,0,0,-12,10,1,0,0,1,105,265,34,1,,response7disk_3,TRUE,1,1,"[47,192,36,242,27,121,208,19,244,138,244,140,231,266,119,77,286,74,302,322]",1.152,rectangle
,,,,,,,,,,,,,FF,,,,,,,,1.399,,,,,,,,,,,,,,,,,,,,,,60fd92f2e5bceebabcd863de,61036c541f359c350597b31a,2021-07-29_22h09.25.055,Simcolourproject_2stim_asymm_v5,2020.2.10,Win32,60,61025ae37ef11b136ea224fe,,,,,,,,,4283,-59,-36,1,0,0,response5disk,,2,7,0,1,0,0,rectangle,7,0,1,0,0,7,0,1,0,0,1,106,266,131,1,,,,,,,,
,,,,,,,,,,,,,FF,,,,,,,,1.878,,,,,,,,,,,,,,,,,,,,,,60fd92f2e5bceebabcd863de,61036c541f359c350597b31a,2021-07-29_22h09.25.055,Simcolourproject_2stim_asymm_v5,2020.2.10,Win32,60,61025ae37ef11b136ea224fe,,,,,,,,,4180,33,72,1,0,0,response1disk,,7,19,12,1,0,0,rectangle,19,12,1,0,0,19,12,1,0,0,1,107,267,45,1,,,,,,,,
,,,,,,,,,,,,,FF,,,,,,,,2.092,,,,,,,,,,,,,,,,,,,,,,60fd92f2e5bceebabcd863de,61036c541f359c350597b31a,2021-07-29_22h09.25.055,Simcolourproject_2stim_asymm_v5,2020.2.10,Win32,60,61025ae37ef11b136ea224fe,,,,,,,,,950,61,-71,1,0,0,response3disk,,4,-4,-12,1,0,0,rectangle,-4,-12,1,0,0,-4,-12,1,0,0,1,108,268,107,1,,,,,,,,
,,,,,,,,,,,,,FF,,,,,,,,1.376,,,,,,,,,,,,,,,,,,,,,,60fd92f2e5bceebabcd863de,61036c541f359c350597b31a,2021-07-29_22h09.25.055,Simcolourproject_2stim_asymm_v5,2020.2.10,Win32,60,61025ae37ef11b136ea224fe,,,,,,,,,92,29,56,1,0,0,response1disk,,7,12,9,1,0,0,rectangle,12,9,1,0,0,12,9,1,0,0,1,109,269,79,1,,,,,,,,
,,,,,,,,,,,,,FF,,,,,,,,1.613,,,,,,,,,,,,,,,,,,,,,,60fd92f2e5bceebabcd863de,61036c541f359c350597b31a,2021-07-29_22h09.25.055,Simcolourproject_2stim_asymm_v5,2020.2.10,Win32,60,61025ae37ef11b136ea224fe,,,,,,,,,3821,88,30,1,0,0,response1disk,,6,16,5,1,0,0,rectangle,16,5,1,0,0,16,5,1,0,0,1,110,270,59,1,,,,,,,,
,,,,,,,,,,,,,FF,,,,,,,,1.37,,,,,,,,,,,,,,,,,,,,,,60fd92f2e5bceebabcd863de,61036c541f359c350597b31a,2021-07-29_22h09.25.055,Simcolourproject_2stim_asymm_v5,2020.2.10,Win32,60,61025ae37ef11b136ea224fe,,,,,,,,,2400,42,53,1,0,0,response1disk,,7,12,9,1,0,0,rectangle,12,9,1,0,0,12,9,1,0,0,1,111,271,76,1,,,,,,,,
,,,,,,,,,,,,,FF,,,,,,,,2.394,,,,,,,,,,,,,,,,,,,,,,60fd92f2e5bceebabcd863de,61036c541f359c350597b31a,2021-07-29_22h09.25.055,Simcolourproject_2stim_asymm_v5,2020.2.10,Win32,60,61025ae37ef11b136ea224fe,,,,,,,,,347,-39,-63,1,0,0,response5disk,,3,-4,-7,1,0,0,rectangle,-4,-7,1,0,0,-4,-7,1,0,0,1,112,272,159,1,,,,,,,,
,,,,,,,,,,,,,FF,,,,,,,,2.29,,,,,,,,,,,,,,,,,,,,,,60fd92f2e5bceebabcd863de,61036c541f359c350597b31a,2021-07-29_22h09.25.055,Simcolourproject_2stim_asymm_v5,2020.2.10,Win32,60,61025ae37ef11b136ea224fe,,,,,,,,,1948,39,33,1,0,0,response1disk,,6,-1,1,1,0,0,rectangle,-1,1,1,0,0,-1,1,1,0,0,1,113,273,69,1,,,,,,,,
,,,,,,,,,,,,,FF,,,,,,,,1.783,,,,,,,,,,,,,,,,,,,,,,60fd92f2e5bceebabcd863de,61036c541f359c350597b31a,2021-07-29_22h09.25.055,Simcolourproject_2stim_asymm_v5,2020.2.10,Win32,60,61025ae37ef11b136ea224fe,,,,,,,,,2933,-70,-31,1,0,0,response5disk,,2,-17,-2,1,0,0,rectangle,-17,-2,1,0,0,-17,-2,1,0,0,1,114,274,41,1,,,,,,,,
,,,,,,,,,,,,,FF,,,,,,,,3.558,,,,,,,,,,,,,,,,,,,,,,60fd92f2e5bceebabcd863de,61036c541f359c350597b31a,2021-07-29_22h09.25.055,Simcolourproject_2stim_asymm_v5,2020.2.10,Win32,60,61025ae37ef11b136ea224fe,,,,,,,,,4272,54,-64,1,0,0,response3disk,,4,-1,-18,1,0,0,rectangle,-1,-18,1,0,0,-1,-18,1,0,0,1,115,275,31,1,,,,,,,,
,,,,,,,,,,,,,FF,,,,,,,,2.213,,,,,,,,,,,,,,,,,,,,,,60fd92f2e5bceebabcd863de,61036c541f359c350597b31a,2021-07-29_22h09.25.055,Simcolourproject_2stim_asymm_v5,2020.2.10,Win32,60,61025ae37ef11b136ea224fe,,,,,,,,,2627,97,19,1,0,0,response1disk,,6,14,9,1,0,0,rectangle,14,9,1,0,0,14,9,1,0,0,1,116,276,47,1,,,,,,,,
,,,,,,,,,,,,,FF,,,,,,,,1.382,,,,,,,,,,,,,,,,,,,,,,60fd92f2e5bceebabcd863de,61036c541f359c350597b31a,2021-07-29_22h09.25.055,Simcolourproject_2stim_asymm_v5,2020.2.10,Win32,60,61025ae37ef11b136ea224fe,,,,,,,,,3304,29,-80,1,0,0,response3disk,,4,-36,-14,1,0,0,rectangle,-36,-14,1,0,0,-36,-14,1,0,0,1,117,277,53,1,,,,,,,,
,,,,,,,,,,,,,FF,,,,,,,,1.218,,,,,,,,,,,,,,,,,,,,,,60fd92f2e5bceebabcd863de,61036c541f359c350597b31a,2021-07-29_22h09.25.055,Simcolourproject_2stim_asymm_v5,2020.2.10,Win32,60,61025ae37ef11b136ea224fe,,,,,,,,,3379,21,51,1,0,0,response1disk,,7,-1,8,1,0,0,rectangle,-1,8,1,0,0,-1,8,1,0,0,1,118,278,83,1,,,,,,,,
,,,,,,,,,,,,,FF,,,,,,,,2.376,,,,,,,,,,,,,,,,,,,,,,60fd92f2e5bceebabcd863de,61036c541f359c350597b31a,2021-07-29_22h09.25.055,Simcolourproject_2stim_asymm_v5,2020.2.10,Win32,60,61025ae37ef11b136ea224fe,,,,,,,,,745,55,-31,1,0,0,response3disk,,5,-23,7,1,0,0,rectangle,-23,7,1,0,0,-23,7,1,0,0,1,119,279,29,1,,,,,,,,
,,,,,,,,,,,,,FF,,,,,,,,1.2,,,,,,,,,,,,,,,,,,,,,,60fd92f2e5bceebabcd863de,61036c541f359c350597b31a,2021-07-29_22h09.25.055,Simcolourproject_2stim_asymm_v5,2020.2.10,Win32,60,61025ae37ef11b136ea224fe,,,,,,,,,1820,-34,-68,1,0,0,response5disk,,3,-24,-11,1,0,0,rectangle,-24,-11,1,0,0,-24,-11,1,0,0,1,120,280,0,1,,,,,,,,
,,,,,,,,,,,,,FF,,,,,,,,2.599,,,,,,,,,,,,,,,,,,,,,,60fd92f2e5bceebabcd863de,61036c541f359c350597b31a,2021-07-29_22h09.25.055,Simcolourproject_2stim_asymm_v5,2020.2.10,Win32,60,61025ae37ef11b136ea224fe,,,,,,,,,494,29,52,1,0,0,response1disk,,7,-7,8,1,0,0,rectangle,-7,8,1,0,0,-7,8,1,0,0,1,121,281,144,1,,,,,,,,
,,,,,,,,,,,,,FF,,,,,,,,1.631,,,,,,,,,,,,,,,,,,,,,,60fd92f2e5bceebabcd863de,61036c541f359c350597b31a,2021-07-29_22h09.25.055,Simcolourproject_2stim_asymm_v5,2020.2.10,Win32,60,61025ae37ef11b136ea224fe,,,,,,,,,3992,38,-70,1,0,0,response3disk,,4,4,6,1,0,0,rectangle,4,6,1,0,0,4,6,1,0,0,1,122,282,96,1,,,,,,,,
,,,,,,,,,,,,,FF,,,,,,,,2.418,,,,,,,,,,,,,,,,,,,,,,60fd92f2e5bceebabcd863de,61036c541f359c350597b31a,2021-07-29_22h09.25.055,Simcolourproject_2stim_asymm_v5,2020.2.10,Win32,60,61025ae37ef11b136ea224fe,,,,,,,,,2343,81,40,1,0,0,response1disk,,6,20,6,1,0,0,rectangle,20,6,1,0,0,20,6,1,0,0,1,123,283,101,1,,,,,,,,
,,,,,,,,,,,,,FF,,,,,,,,1.454,,,,,,,,,,,,,,,,,,,,,,60fd92f2e5bceebabcd863de,61036c541f359c350597b31a,2021-07-29_22h09.25.055,Simcolourproject_2stim_asymm_v5,2020.2.10,Win32,60,61025ae37ef11b136ea224fe,,,,,,,,,1276,68,-31,1,0,0,response3disk,,5,20,10,1,0,0,rectangle,20,10,1,0,0,20,10,1,0,0,1,124,284,54,1,,,,,,,,
,,,,,,,,,,,,,FF,,,,,,,,1.091,,,,,,,,,,,,,,,,,,,,,,60fd92f2e5bceebabcd863de,61036c541f359c350597b31a,2021-07-29_22h09.25.055,Simcolourproject_2stim_asymm_v5,2020.2.10,Win32,60,61025ae37ef11b136ea224fe,,,,,,,,,296,52,-24,1,0,0,response3disk,,5,6,-3,1,0,0,rectangle,47,78,1,0,0,-8,-3,1,0,0,1,125,285,33,1,,response1disk_3,TRUE,7,7,"[47,192,36,242,27,121,208,19,244,138,244,140,231,266,119,77,286,74,302,322]",1.703,rectangle
,,,,,,,,,,,,,FF,,,,,,,,1.254,,,,,,,,,,,,,,,,,,,,,,60fd92f2e5bceebabcd863de,61036c541f359c350597b31a,2021-07-29_22h09.25.055,Simcolourproject_2stim_asymm_v5,2020.2.10,Win32,60,61025ae37ef11b136ea224fe,,,,,,,,,3319,30,-56,1,0,0,response3disk,,4,2,-10,1,0,0,rectangle,2,-10,1,0,0,2,-10,1,0,0,1,126,286,18,1,,,,,,,,
,,,,,,,,,,,,,FF,,,,,,,,1.739,,,,,,,,,,,,,,,,,,,,,,60fd92f2e5bceebabcd863de,61036c541f359c350597b31a,2021-07-29_22h09.25.055,Simcolourproject_2stim_asymm_v5,2020.2.10,Win32,60,61025ae37ef11b136ea224fe,,,,,,,,,472,31,84,1,0,0,response1disk,,7,5,21,1,0,0,rectangle,5,21,1,0,0,5,21,1,0,0,1,127,287,116,1,,,,,,,,
,,,,,,,,,,,,,FF,,,,,,,,0.819,,,,,,,,,,,,,,,,,,,,,,60fd92f2e5bceebabcd863de,61036c541f359c350597b31a,2021-07-29_22h09.25.055,Simcolourproject_2stim_asymm_v5,2020.2.10,Win32,60,61025ae37ef11b136ea224fe,,,,,,,,,329,19,42,1,0,0,response1disk,,7,0,-1,1,0,0,rectangle,0,-1,1,0,0,0,-1,1,0,0,1,128,288,37,1,,,,,,,,
,,,,,,,,,,,,,FF,,,,,,,,1.612,,,,,,,,,,,,,,,,,,,,,,60fd92f2e5bceebabcd863de,61036c541f359c350597b31a,2021-07-29_22h09.25.055,Simcolourproject_2stim_asymm_v5,2020.2.10,Win32,60,61025ae37ef11b136ea224fe,,,,,,,,,2801,69,29,1,0,0,response1disk,,6,14,5,1,0,0,rectangle,14,5,1,0,0,14,5,1,0,0,1,129,289,126,1,,,,,,,,
,,,,,,,,,,,,,FF,,,,,,,,1.509,,,,,,,,,,,,,,,,,,,,,,60fd92f2e5bceebabcd863de,61036c541f359c350597b31a,2021-07-29_22h09.25.055,Simcolourproject_2stim_asymm_v5,2020.2.10,Win32,60,61025ae37ef11b136ea224fe,,,,,,,,,3442,26,-71,1,0,0,response3disk,,4,-23,-11,1,0,0,rectangle,-23,-11,1,0,0,-23,-11,1,0,0,1,130,290,55,1,,,,,,,,
,,,,,,,,,,,,,FF,,,,,,,,0.993,,,,,,,,,,,,,,,,,,,,,,60fd92f2e5bceebabcd863de,61036c541f359c350597b31a,2021-07-29_22h09.25.055,Simcolourproject_2stim_asymm_v5,2020.2.10,Win32,60,61025ae37ef11b136ea224fe,,,,,,,,,1033,-36,-62,1,0,0,response5disk,,3,2,1,1,0,0,rectangle,2,1,1,0,0,2,1,1,0,0,1,131,291,44,1,,,,,,,,
,,,,,,,,,,,,,FF,,,,,,,,1.86,,,,,,,,,,,,,,,,,,,,,,60fd92f2e5bceebabcd863de,61036c541f359c350597b31a,2021-07-29_22h09.25.055,Simcolourproject_2stim_asymm_v5,2020.2.10,Win32,60,61025ae37ef11b136ea224fe,,,,,,,,,2693,94,33,1,0,0,response1disk,,6,43,6,1,0,0,rectangle,43,6,1,0,0,43,6,1,0,0,1,132,292,102,1,,,,,,,,
,,,,,,,,,,,,,FF,,,,,,,,0.672,,,,,,,,,,,,,,,,,,,,,,60fd92f2e5bceebabcd863de,61036c541f359c350597b31a,2021-07-29_22h09.25.055,Simcolourproject_2stim_asymm_v5,2020.2.10,Win32,60,61025ae37ef11b136ea224fe,,,,,,,,,4314,36,70,1,0,0,response1disk,,7,16,-8,1,0,0,rectangle,16,-8,1,0,0,16,-8,1,0,0,1,133,293,111,1,,,,,,,,
,,,,,,,,,,,,,FF,,,,,,,,0.63,,,,,,,,,,,,,,,,,,,,,,60fd92f2e5bceebabcd863de,61036c541f359c350597b31a,2021-07-29_22h09.25.055,Simcolourproject_2stim_asymm_v5,2020.2.10,Win32,60,61025ae37ef11b136ea224fe,,,,,,,,,1609,-89,42,1,0,0,response7disk,,1,-8,14,1,0,0,rectangle,-8,14,1,0,0,-8,14,1,0,0,1,134,294,118,1,,,,,,,,
,,,,,,,,,,,,,FF,,,,,,,,2,,,,,,,,,,,,,,,,,,,,,,60fd92f2e5bceebabcd863de,61036c541f359c350597b31a,2021-07-29_22h09.25.055,Simcolourproject_2stim_asymm_v5,2020.2.10,Win32,60,61025ae37ef11b136ea224fe,,,,,,,,,1637,41,55,1,0,0,response1disk,,7,5,14,1,0,0,rectangle,5,14,1,0,0,5,14,1,0,0,1,135,295,8,1,,,,,,,,
,,,,,,,,,,,,,FF,,,,,,,,1.2,,,,,,,,,,,,,,,,,,,,,,60fd92f2e5bceebabcd863de,61036c541f359c350597b31a,2021-07-29_22h09.25.055,Simcolourproject_2stim_asymm_v5,2020.2.10,Win32,60,61025ae37ef11b136ea224fe,,,,,,,,,2619,30,43,1,0,0,response1disk,,7,12,9,1,0,0,rectangle,12,9,1,0,0,12,9,1,0,0,1,136,296,82,1,,,,,,,,
,,,,,,,,,,,,,FF,,,,,,,,1.788,,,,,,,,,,,,,,,,,,,,,,60fd92f2e5bceebabcd863de,61036c541f359c350597b31a,2021-07-29_22h09.25.055,Simcolourproject_2stim_asymm_v5,2020.2.10,Win32,60,61025ae37ef11b136ea224fe,,,,,,,,,3261,33,-73,1,0,0,response3disk,,4,-12,-14,1,0,0,rectangle,-12,-14,1,0,0,-12,-14,1,0,0,1,137,297,4,1,,,,,,,,
,,,,,,,,,,,,,FF,,,,,,,,2.14,,,,,,,,,,,,,,,,,,,,,,60fd92f2e5bceebabcd863de,61036c541f359c350597b31a,2021-07-29_22h09.25.055,Simcolourproject_2stim_asymm_v5,2020.2.10,Win32,60,61025ae37ef11b136ea224fe,,,,,,,,,116,48,-37,1,0,0,response3disk,,5,0,-16,1,0,0,rectangle,0,-16,1,0,0,0,-16,1,0,0,1,138,298,140,1,,,,,,,,
,,,,,,,,,,,,,FF,,,,,,,,1.291,,,,,,,,,,,,,,,,,,,,,,60fd92f2e5bceebabcd863de,61036c541f359c350597b31a,2021-07-29_22h09.25.055,Simcolourproject_2stim_asymm_v5,2020.2.10,Win32,60,61025ae37ef11b136ea224fe,,,,,,,,,1228,-65,-40,1,0,0,response5disk,,2,14,8,1,0,0,rectangle,14,8,1,0,0,14,8,1,0,0,1,139,299,61,1,,,,,,,,
,,,,,,,,,,,,,FF,,,,,,,,1.443,,,,,,,,,,,,,,,,,,,,,,60fd92f2e5bceebabcd863de,61036c541f359c350597b31a,2021-07-29_22h09.25.055,Simcolourproject_2stim_asymm_v5,2020.2.10,Win32,60,61025ae37ef11b136ea224fe,,,,,,,,,1927,46,-64,1,0,0,response3disk,,4,-18,-4,1,0,0,rectangle,-18,-4,1,0,0,-18,-4,1,0,0,1,140,300,36,1,,,,,,,,
,,,,,,,,,,,,,FF,,,,,,,,1.849,,,,,,,,,,,,,,,,,,,,,,60fd92f2e5bceebabcd863de,61036c541f359c350597b31a,2021-07-29_22h09.25.055,Simcolourproject_2stim_asymm_v5,2020.2.10,Win32,60,61025ae37ef11b136ea224fe,,,,,,,,,3236,-37,-65,1,0,0,response5disk,,3,-29,-3,1,0,0,rectangle,108,-69,1,0,0,-8,-4,1,0,0,1,141,301,22,1,,response3disk_3,TRUE,5,5,"[47,192,36,242,27,121,208,19,244,138,244,140,231,266,119,77,286,74,302,322]",1.643,rectangle
,,,,,,,,,,,,,FF,,,,,,,,1.413,,,,,,,,,,,,,,,,,,,,,,60fd92f2e5bceebabcd863de,61036c541f359c350597b31a,2021-07-29_22h09.25.055,Simcolourproject_2stim_asymm_v5,2020.2.10,Win32,60,61025ae37ef11b136ea224fe,,,,,,,,,1448,-64,-21,1,0,0,response5disk,,2,21,17,1,0,0,rectangle,21,17,1,0,0,21,17,1,0,0,1,142,302,24,1,,,,,,,,
,,,,,,,,,,,,,FF,,,,,,,,3.612,,,,,,,,,,,,,,,,,,,,,,60fd92f2e5bceebabcd863de,61036c541f359c350597b31a,2021-07-29_22h09.25.055,Simcolourproject_2stim_asymm_v5,2020.2.10,Win32,60,61025ae37ef11b136ea224fe,,,,,,,,,2047,-50,-53,1,0,0,response5disk,,3,-3,5,1,0,0,rectangle,-3,5,1,0,0,-3,5,1,0,0,1,143,303,91,1,,,,,,,,
