key_resp.keys,key_resp.rt,key_resp_14.keys,key_resp_14.rt,key_resp_15.keys,key_resp_15.rt,key_resp_17.keys,key_resp_17.rt,key_resp_9.keys,key_resp_9.rt,key_resp_10.keys,key_resp_10.rt,practice_comparison,Ecc,mouse_5.x,mouse_5.y,mouse_5.leftButton,mouse_5.midButton,mouse_5.rightButton,mouse_5.clicked_name,pracsimilarity,response_time,mouse_10.x,mouse_10.y,mouse_10.leftButton,mouse_10.midButton,mouse_10.rightButton,mouse_10.clicked_name,mouse_7.x,mouse_7.y,mouse_7.leftButton,mouse_7.midButton,mouse_7.rightButton,mouse_6.x,mouse_6.y,mouse_6.leftButton,mouse_6.midButton,mouse_6.rightButton,duringprac.thisRepN,duringprac.thisTrialN,duringprac.thisN,duringprac.thisIndex,duringprac.ran,participant,session,date,expName,psychopyVersion,OS,frameRate,study_id,mouse_7.clicked_name,catchpracsimilarity,catch_response_time,catchnumberprac,catchtrialorderprac,mouse_6.clicked_name,key_resp_22.keys,key_resp_22.rt,realcomparison,mouse.x,mouse.y,mouse.leftButton,mouse.midButton,mouse.rightButton,mouse.clicked_name,Colour2,similarity,mouse_2.x,mouse_2.y,mouse_2.leftButton,mouse_2.midButton,mouse_2.rightButton,mouse_2.clicked_name,mouse_3.x,mouse_3.y,mouse_3.leftButton,mouse_3.midButton,mouse_3.rightButton,mouse_11.x,mouse_11.y,mouse_11.leftButton,mouse_11.midButton,mouse_11.rightButton,trials_2.thisRepN,trials_2.thisTrialN,trials_2.thisN,trials_2.thisIndex,trials_2.ran,Colour1,mouse_3.clicked_name,catchornah,catchsimilarity,catchnumber,catchtrialorder,catchRT,mouse_11.clicked_name
space,2.0183,space,57.6672,space,67.8966,space,10.0964,space,1.7375,space,4.1507,18,PF,56,79,1,0,0,response1disk_5,7,5.5671,-7,-2,1,0,0,rectangle_8,-7,-2,1,0,0,-7,-2,1,0,0,0,0,0,2,1,60fdf3211250e26b5354eb2d,61036f2c8038912cbf35a9b8,2021-07-29_22h19.21.285,Simcolourproject_2stim_asymm_v5,2020.2.10,Win32,60,61025ae37ef11b136ea224fe,,,,,,,,,,,,,,,,,,,,,,,,,,,,,,,,,,,,,,,,,,,,,,
,,,,,,,,,,,,33,FF,-41,-64,1,0,0,response5disk_5,3,3.8162,11,6,1,0,0,rectangle_8,-79,-36,1,0,0,3,-1,1,0,0,0,1,1,5,1,60fdf3211250e26b5354eb2d,61036f2c8038912cbf35a9b8,2021-07-29_22h19.21.285,Simcolourproject_2stim_asymm_v5,2020.2.10,Win32,60,61025ae37ef11b136ea224fe,response5disk_7,2,5.0495,2,"[2,5]",rectangle_4,,,,,,,,,,,,,,,,,,,,,,,,,,,,,,,,,,,,,,,,
,,,,,,,,,,,,111,PF,72,49,1,0,0,response1disk_5,6,4.4496,0,1,1,0,0,rectangle_8,0,1,1,0,0,0,1,1,0,0,0,2,2,4,1,60fdf3211250e26b5354eb2d,61036f2c8038912cbf35a9b8,2021-07-29_22h19.21.285,Simcolourproject_2stim_asymm_v5,2020.2.10,Win32,60,61025ae37ef11b136ea224fe,,,,,,,,,,,,,,,,,,,,,,,,,,,,,,,,,,,,,,,,,,,,,,
,,,,,,,,,,,,123,FF,-29,-98,1,0,0,response5disk_5,3,9.0838,9,10,1,0,0,rectangle_8,9,10,1,0,0,9,10,1,0,0,0,3,3,3,1,60fdf3211250e26b5354eb2d,61036f2c8038912cbf35a9b8,2021-07-29_22h19.21.285,Simcolourproject_2stim_asymm_v5,2020.2.10,Win32,60,61025ae37ef11b136ea224fe,,,,,,,,,,,,,,,,,,,,,,,,,,,,,,,,,,,,,,,,,,,,,,
,,,,,,,,,,,,103,FF,79,-27,1,0,0,response3disk_5,5,3.4507,7,9,1,0,0,rectangle_8,-88,-30,1,0,0,9,9,1,0,0,0,4,4,0,1,60fdf3211250e26b5354eb2d,61036f2c8038912cbf35a9b8,2021-07-29_22h19.21.285,Simcolourproject_2stim_asymm_v5,2020.2.10,Win32,60,61025ae37ef11b136ea224fe,response5disk_7,2,3.1999,2,"[2,5]",rectangle_4,,,,,,,,,,,,,,,,,,,,,,,,,,,,,,,,,,,,,,,,
,,,,,,,,,,,,19,PF,84,-45,1,0,0,response3disk_5,5,1.8997,-4,12,1,0,0,rectangle_8,-4,12,1,0,0,-4,12,1,0,0,0,5,5,6,1,60fdf3211250e26b5354eb2d,61036f2c8038912cbf35a9b8,2021-07-29_22h19.21.285,Simcolourproject_2stim_asymm_v5,2020.2.10,Win32,60,61025ae37ef11b136ea224fe,,,,,,,,,,,,,,,,,,,,,,,,,,,,,,,,,,,,,,,,,,,,,,
,,,,,,,,,,,,25,PF,-91,-48,1,0,0,response5disk_5,2,2.5336,10,1,1,0,0,rectangle_8,10,1,1,0,0,10,1,1,0,0,0,6,6,1,1,60fdf3211250e26b5354eb2d,61036f2c8038912cbf35a9b8,2021-07-29_22h19.21.285,Simcolourproject_2stim_asymm_v5,2020.2.10,Win32,60,61025ae37ef11b136ea224fe,,,,,,,,,,,,,,,,,,,,,,,,,,,,,,,,,,,,,,,,,,,,,,
,,,,,,,,,,,,,FF,,,,,,,,3.9679,,,,,,,,,,,,,,,,,,,,,,60fdf3211250e26b5354eb2d,61036f2c8038912cbf35a9b8,2021-07-29_22h19.21.285,Simcolourproject_2stim_asymm_v5,2020.2.10,Win32,60,61025ae37ef11b136ea224fe,,,,,,,space,3.6581,940,41,77,1,0,0,response1disk,,7,12,13,1,0,0,rectangle,12,13,1,0,0,12,13,1,0,0,0,0,0,113,1,,,,,,,,
,,,,,,,,,,,,,FF,,,,,,,,2.6497,,,,,,,,,,,,,,,,,,,,,,60fdf3211250e26b5354eb2d,61036f2c8038912cbf35a9b8,2021-07-29_22h19.21.285,Simcolourproject_2stim_asymm_v5,2020.2.10,Win32,60,61025ae37ef11b136ea224fe,,,,,,,,,2122,91,-35,1,0,0,response3disk,,5,8,3,1,0,0,rectangle,8,3,1,0,0,8,3,1,0,0,0,1,1,138,1,,,,,,,,
,,,,,,,,,,,,,FF,,,,,,,,1.9339,,,,,,,,,,,,,,,,,,,,,,60fdf3211250e26b5354eb2d,61036f2c8038912cbf35a9b8,2021-07-29_22h19.21.285,Simcolourproject_2stim_asymm_v5,2020.2.10,Win32,60,61025ae37ef11b136ea224fe,,,,,,,,,19,82,-45,1,0,0,response3disk,,5,6,6,1,0,0,rectangle,6,6,1,0,0,6,6,1,0,0,0,2,2,2,1,,,,,,,,
,,,,,,,,,,,,,FF,,,,,,,,4.2,,,,,,,,,,,,,,,,,,,,,,60fdf3211250e26b5354eb2d,61036f2c8038912cbf35a9b8,2021-07-29_22h19.21.285,Simcolourproject_2stim_asymm_v5,2020.2.10,Win32,60,61025ae37ef11b136ea224fe,,,,,,,,,1533,-46,-73,1,0,0,response5disk,,3,6,8,1,0,0,rectangle,6,8,1,0,0,6,8,1,0,0,0,3,3,108,1,,,,,,,,
,,,,,,,,,,,,,FF,,,,,,,,2.083,,,,,,,,,,,,,,,,,,,,,,60fdf3211250e26b5354eb2d,61036f2c8038912cbf35a9b8,2021-07-29_22h19.21.285,Simcolourproject_2stim_asymm_v5,2020.2.10,Win32,60,61025ae37ef11b136ea224fe,,,,,,,,,4353,47,-79,1,0,0,response3disk,,4,4,5,1,0,0,rectangle,4,5,1,0,0,4,5,1,0,0,0,4,4,158,1,,,,,,,,
,,,,,,,,,,,,,FF,,,,,,,,2.0338,,,,,,,,,,,,,,,,,,,,,,60fdf3211250e26b5354eb2d,61036f2c8038912cbf35a9b8,2021-07-29_22h19.21.285,Simcolourproject_2stim_asymm_v5,2020.2.10,Win32,60,61025ae37ef11b136ea224fe,,,,,,,,,2635,85,31,1,0,0,response1disk,,6,10,-2,1,0,0,rectangle,10,-2,1,0,0,10,-2,1,0,0,0,5,5,20,1,,,,,,,,
,,,,,,,,,,,,,FF,,,,,,,,2.9831,,,,,,,,,,,,,,,,,,,,,,60fdf3211250e26b5354eb2d,61036f2c8038912cbf35a9b8,2021-07-29_22h19.21.285,Simcolourproject_2stim_asymm_v5,2020.2.10,Win32,60,61025ae37ef11b136ea224fe,,,,,,,,,88,54,85,1,0,0,response1disk,,7,12,-2,1,0,0,rectangle,12,-2,1,0,0,12,-2,1,0,0,0,6,6,56,1,,,,,,,,
,,,,,,,,,,,,,FF,,,,,,,,1.634,,,,,,,,,,,,,,,,,,,,,,60fdf3211250e26b5354eb2d,61036f2c8038912cbf35a9b8,2021-07-29_22h19.21.285,Simcolourproject_2stim_asymm_v5,2020.2.10,Win32,60,61025ae37ef11b136ea224fe,,,,,,,,,3451,44,82,1,0,0,response1disk,,7,-6,-4,1,0,0,rectangle,-6,-4,1,0,0,-6,-4,1,0,0,0,7,7,67,1,,,,,,,,
,,,,,,,,,,,,,FF,,,,,,,,1.7001,,,,,,,,,,,,,,,,,,,,,,60fdf3211250e26b5354eb2d,61036f2c8038912cbf35a9b8,2021-07-29_22h19.21.285,Simcolourproject_2stim_asymm_v5,2020.2.10,Win32,60,61025ae37ef11b136ea224fe,,,,,,,,,1924,41,65,1,0,0,response1disk,,7,-6,-3,1,0,0,rectangle,-6,-3,1,0,0,-6,-3,1,0,0,0,8,8,140,1,,,,,,,,
,,,,,,,,,,,,,FF,,,,,,,,3.9335,,,,,,,,,,,,,,,,,,,,,,60fdf3211250e26b5354eb2d,61036f2c8038912cbf35a9b8,2021-07-29_22h19.21.285,Simcolourproject_2stim_asymm_v5,2020.2.10,Win32,60,61025ae37ef11b136ea224fe,,,,,,,,,3516,-40,-60,1,0,0,response5disk,,3,1,0,1,0,0,rectangle,1,0,1,0,0,1,0,1,0,0,0,9,9,97,1,,,,,,,,
,,,,,,,,,,,,,FF,,,,,,,,2.8334,,,,,,,,,,,,,,,,,,,,,,60fdf3211250e26b5354eb2d,61036f2c8038912cbf35a9b8,2021-07-29_22h19.21.285,Simcolourproject_2stim_asymm_v5,2020.2.10,Win32,60,61025ae37ef11b136ea224fe,,,,,,,,,2365,-41,-77,1,0,0,response5disk,,3,5,-1,1,0,0,rectangle,5,-1,1,0,0,5,-1,1,0,0,0,10,10,81,1,,,,,,,,
,,,,,,,,,,,,,FF,,,,,,,,3.6834,,,,,,,,,,,,,,,,,,,,,,60fdf3211250e26b5354eb2d,61036f2c8038912cbf35a9b8,2021-07-29_22h19.21.285,Simcolourproject_2stim_asymm_v5,2020.2.10,Win32,60,61025ae37ef11b136ea224fe,,,,,,,,,2156,62,-41,1,0,0,response3disk,,5,19,0,1,0,0,rectangle,19,0,1,0,0,19,0,1,0,0,0,11,11,119,1,,,,,,,,
,,,,,,,,,,,,,FF,,,,,,,,1.7664,,,,,,,,,,,,,,,,,,,,,,60fdf3211250e26b5354eb2d,61036f2c8038912cbf35a9b8,2021-07-29_22h19.21.285,Simcolourproject_2stim_asymm_v5,2020.2.10,Win32,60,61025ae37ef11b136ea224fe,,,,,,,,,1170,31,66,1,0,0,response1disk,,7,9,0,1,0,0,rectangle,9,0,1,0,0,9,0,1,0,0,0,12,12,36,1,,,,,,,,
,,,,,,,,,,,,,FF,,,,,,,,1.8999,,,,,,,,,,,,,,,,,,,,,,60fdf3211250e26b5354eb2d,61036f2c8038912cbf35a9b8,2021-07-29_22h19.21.285,Simcolourproject_2stim_asymm_v5,2020.2.10,Win32,60,61025ae37ef11b136ea224fe,,,,,,,,,1323,39,-81,1,0,0,response3disk,,4,8,2,1,0,0,rectangle,8,2,1,0,0,8,2,1,0,0,0,13,13,5,1,,,,,,,,
,,,,,,,,,,,,,FF,,,,,,,,2.6669,,,,,,,,,,,,,,,,,,,,,,60fdf3211250e26b5354eb2d,61036f2c8038912cbf35a9b8,2021-07-29_22h19.21.285,Simcolourproject_2stim_asymm_v5,2020.2.10,Win32,60,61025ae37ef11b136ea224fe,,,,,,,,,338,44,-103,1,0,0,response3disk,,4,15,-1,1,0,0,rectangle,15,-1,1,0,0,15,-1,1,0,0,0,14,14,62,1,,,,,,,,
,,,,,,,,,,,,,FF,,,,,,,,1.6168,,,,,,,,,,,,,,,,,,,,,,60fdf3211250e26b5354eb2d,61036f2c8038912cbf35a9b8,2021-07-29_22h19.21.285,Simcolourproject_2stim_asymm_v5,2020.2.10,Win32,60,61025ae37ef11b136ea224fe,,,,,,,,,2120,90,-33,1,0,0,response3disk,,5,26,0,1,0,0,rectangle,26,0,1,0,0,26,0,1,0,0,0,15,15,61,1,,,,,,,,
,,,,,,,,,,,,,FF,,,,,,,,2.5996,,,,,,,,,,,,,,,,,,,,,,60fdf3211250e26b5354eb2d,61036f2c8038912cbf35a9b8,2021-07-29_22h19.21.285,Simcolourproject_2stim_asymm_v5,2020.2.10,Win32,60,61025ae37ef11b136ea224fe,,,,,,,,,1152,22,-97,1,0,0,response3disk,,4,16,3,1,0,0,rectangle,16,3,1,0,0,16,3,1,0,0,0,16,16,48,1,,,,,,,,
,,,,,,,,,,,,,FF,,,,,,,,3.0505,,,,,,,,,,,,,,,,,,,,,,60fdf3211250e26b5354eb2d,61036f2c8038912cbf35a9b8,2021-07-29_22h19.21.285,Simcolourproject_2stim_asymm_v5,2020.2.10,Win32,60,61025ae37ef11b136ea224fe,,,,,,,,,666,94,41,1,0,0,response1disk,,6,0,0,1,0,0,rectangle,0,0,1,0,0,0,0,1,0,0,0,17,17,117,1,,,,,,,,
,,,,,,,,,,,,,FF,,,,,,,,1.4833,,,,,,,,,,,,,,,,,,,,,,60fdf3211250e26b5354eb2d,61036f2c8038912cbf35a9b8,2021-07-29_22h19.21.285,Simcolourproject_2stim_asymm_v5,2020.2.10,Win32,60,61025ae37ef11b136ea224fe,,,,,,,,,3209,25,78,1,0,0,response1disk,,7,9,3,1,0,0,rectangle,9,3,1,0,0,9,3,1,0,0,0,18,18,35,1,,,,,,,,
,,,,,,,,,,,,,FF,,,,,,,,2.9498,,,,,,,,,,,,,,,,,,,,,,60fdf3211250e26b5354eb2d,61036f2c8038912cbf35a9b8,2021-07-29_22h19.21.285,Simcolourproject_2stim_asymm_v5,2020.2.10,Win32,60,61025ae37ef11b136ea224fe,,,,,,,,,449,90,-39,1,0,0,response3disk,,5,-10,2,1,0,0,rectangle,-10,2,1,0,0,-10,2,1,0,0,0,19,19,136,1,,,,,,,,
,,,,,,,,,,,,,FF,,,,,,,,2.6499,,,,,,,,,,,,,,,,,,,,,,60fdf3211250e26b5354eb2d,61036f2c8038912cbf35a9b8,2021-07-29_22h19.21.285,Simcolourproject_2stim_asymm_v5,2020.2.10,Win32,60,61025ae37ef11b136ea224fe,,,,,,,,,3260,100,38,1,0,0,response1disk,,6,7,9,1,0,0,rectangle,7,9,1,0,0,7,9,1,0,0,0,20,20,150,1,,,,,,,,
,,,,,,,,,,,,,FF,,,,,,,,1.1833,,,,,,,,,,,,,,,,,,,,,,60fdf3211250e26b5354eb2d,61036f2c8038912cbf35a9b8,2021-07-29_22h19.21.285,Simcolourproject_2stim_asymm_v5,2020.2.10,Win32,60,61025ae37ef11b136ea224fe,,,,,,,,,2344,52,112,1,0,0,response1disk,,7,6,7,1,0,0,rectangle,6,7,1,0,0,6,7,1,0,0,0,21,21,18,1,,,,,,,,
,,,,,,,,,,,,,FF,,,,,,,,3.3497,,,,,,,,,,,,,,,,,,,,,,60fdf3211250e26b5354eb2d,61036f2c8038912cbf35a9b8,2021-07-29_22h19.21.285,Simcolourproject_2stim_asymm_v5,2020.2.10,Win32,60,61025ae37ef11b136ea224fe,,,,,,,,,675,77,70,1,0,0,response1disk,,6,1,-4,1,0,0,rectangle,1,-4,1,0,0,1,-4,1,0,0,0,22,22,141,1,,,,,,,,
,,,,,,,,,,,,,FF,,,,,,,,1.2504,,,,,,,,,,,,,,,,,,,,,,60fdf3211250e26b5354eb2d,61036f2c8038912cbf35a9b8,2021-07-29_22h19.21.285,Simcolourproject_2stim_asymm_v5,2020.2.10,Win32,60,61025ae37ef11b136ea224fe,,,,,,,,,1090,42,73,1,0,0,response1disk,,7,12,-5,1,0,0,rectangle,12,-5,1,0,0,12,-5,1,0,0,0,23,23,134,1,,,,,,,,
,,,,,,,,,,,,,FF,,,,,,,,1.5005,,,,,,,,,,,,,,,,,,,,,,60fdf3211250e26b5354eb2d,61036f2c8038912cbf35a9b8,2021-07-29_22h19.21.285,Simcolourproject_2stim_asymm_v5,2020.2.10,Win32,60,61025ae37ef11b136ea224fe,,,,,,,,,1626,81,41,1,0,0,response1disk,,6,13,0,1,0,0,rectangle,13,0,1,0,0,13,0,1,0,0,0,24,24,132,1,,,,,,,,
,,,,,,,,,,,,,FF,,,,,,,,1.8163,,,,,,,,,,,,,,,,,,,,,,60fdf3211250e26b5354eb2d,61036f2c8038912cbf35a9b8,2021-07-29_22h19.21.285,Simcolourproject_2stim_asymm_v5,2020.2.10,Win32,60,61025ae37ef11b136ea224fe,,,,,,,,,4163,-79,-48,1,0,0,response5disk,,2,-6,14,1,0,0,rectangle,-6,14,1,0,0,-6,14,1,0,0,0,25,25,106,1,,,,,,,,
,,,,,,,,,,,,,FF,,,,,,,,1.5831,,,,,,,,,,,,,,,,,,,,,,60fdf3211250e26b5354eb2d,61036f2c8038912cbf35a9b8,2021-07-29_22h19.21.285,Simcolourproject_2stim_asymm_v5,2020.2.10,Win32,60,61025ae37ef11b136ea224fe,,,,,,,,,2153,62,-32,1,0,0,response3disk,,5,7,0,1,0,0,rectangle,7,0,1,0,0,7,0,1,0,0,0,26,26,0,1,,,,,,,,
,,,,,,,,,,,,,FF,,,,,,,,1.3345,,,,,,,,,,,,,,,,,,,,,,60fdf3211250e26b5354eb2d,61036f2c8038912cbf35a9b8,2021-07-29_22h19.21.285,Simcolourproject_2stim_asymm_v5,2020.2.10,Win32,60,61025ae37ef11b136ea224fe,,,,,,,,,1337,86,53,1,0,0,response1disk,,6,-4,0,1,0,0,rectangle,-4,0,1,0,0,-4,0,1,0,0,0,27,27,7,1,,,,,,,,
,,,,,,,,,,,,,FF,,,,,,,,2.2338,,,,,,,,,,,,,,,,,,,,,,60fdf3211250e26b5354eb2d,61036f2c8038912cbf35a9b8,2021-07-29_22h19.21.285,Simcolourproject_2stim_asymm_v5,2020.2.10,Win32,60,61025ae37ef11b136ea224fe,,,,,,,,,2093,-36,65,1,0,0,response7disk,,0,11,-4,1,0,0,rectangle,11,-4,1,0,0,11,-4,1,0,0,0,28,28,3,1,,,,,,,,
,,,,,,,,,,,,,FF,,,,,,,,1.5339,,,,,,,,,,,,,,,,,,,,,,60fdf3211250e26b5354eb2d,61036f2c8038912cbf35a9b8,2021-07-29_22h19.21.285,Simcolourproject_2stim_asymm_v5,2020.2.10,Win32,60,61025ae37ef11b136ea224fe,,,,,,,,,3342,-89,-29,1,0,0,response5disk,,2,-14,13,1,0,0,rectangle,-14,13,1,0,0,-14,13,1,0,0,0,29,29,90,1,,,,,,,,
,,,,,,,,,,,,,FF,,,,,,,,1.5164,,,,,,,,,,,,,,,,,,,,,,60fdf3211250e26b5354eb2d,61036f2c8038912cbf35a9b8,2021-07-29_22h19.21.285,Simcolourproject_2stim_asymm_v5,2020.2.10,Win32,60,61025ae37ef11b136ea224fe,,,,,,,,,1941,78,53,1,0,0,response1disk,,6,15,-13,1,0,0,rectangle,15,-13,1,0,0,15,-13,1,0,0,0,30,30,65,1,,,,,,,,
,,,,,,,,,,,,,FF,,,,,,,,2.1002,,,,,,,,,,,,,,,,,,,,,,60fdf3211250e26b5354eb2d,61036f2c8038912cbf35a9b8,2021-07-29_22h19.21.285,Simcolourproject_2stim_asymm_v5,2020.2.10,Win32,60,61025ae37ef11b136ea224fe,,,,,,,,,3346,-29,-79,1,0,0,response5disk,,3,17,1,1,0,0,rectangle,17,1,1,0,0,17,1,1,0,0,0,31,31,109,1,,,,,,,,
,,,,,,,,,,,,,FF,,,,,,,,2.0003,,,,,,,,,,,,,,,,,,,,,,60fdf3211250e26b5354eb2d,61036f2c8038912cbf35a9b8,2021-07-29_22h19.21.285,Simcolourproject_2stim_asymm_v5,2020.2.10,Win32,60,61025ae37ef11b136ea224fe,,,,,,,,,370,40,-68,1,0,0,response3disk,,4,6,0,1,0,0,rectangle,6,0,1,0,0,6,0,1,0,0,0,32,32,89,1,,,,,,,,
,,,,,,,,,,,,,FF,,,,,,,,2.2332,,,,,,,,,,,,,,,,,,,,,,60fdf3211250e26b5354eb2d,61036f2c8038912cbf35a9b8,2021-07-29_22h19.21.285,Simcolourproject_2stim_asymm_v5,2020.2.10,Win32,60,61025ae37ef11b136ea224fe,,,,,,,,,3677,-53,-82,1,0,0,response5disk,,3,6,-3,1,0,0,rectangle,6,-3,1,0,0,6,-3,1,0,0,0,33,33,144,1,,,,,,,,
,,,,,,,,,,,,,FF,,,,,,,,1.2334,,,,,,,,,,,,,,,,,,,,,,60fdf3211250e26b5354eb2d,61036f2c8038912cbf35a9b8,2021-07-29_22h19.21.285,Simcolourproject_2stim_asymm_v5,2020.2.10,Win32,60,61025ae37ef11b136ea224fe,,,,,,,,,1454,-95,-37,1,0,0,response5disk,,2,-5,8,1,0,0,rectangle,-5,8,1,0,0,-5,8,1,0,0,0,34,34,10,1,,,,,,,,
,,,,,,,,,,,,,FF,,,,,,,,1.3003,,,,,,,,,,,,,,,,,,,,,,60fdf3211250e26b5354eb2d,61036f2c8038912cbf35a9b8,2021-07-29_22h19.21.285,Simcolourproject_2stim_asymm_v5,2020.2.10,Win32,60,61025ae37ef11b136ea224fe,,,,,,,,,4141,-25,-55,1,0,0,response5disk,,3,9,2,1,0,0,rectangle,9,2,1,0,0,9,2,1,0,0,0,35,35,4,1,,,,,,,,
,,,,,,,,,,,,,FF,,,,,,,,1.9061,,,,,,,,,,,,,,,,,,,,,,60fdf3211250e26b5354eb2d,61036f2c8038912cbf35a9b8,2021-07-29_22h19.21.285,Simcolourproject_2stim_asymm_v5,2020.2.10,Win32,60,61025ae37ef11b136ea224fe,,,,,,,,,1882,94,-38,1,0,0,response3disk,,5,6,-2,1,0,0,rectangle,6,-2,1,0,0,6,-2,1,0,0,0,36,36,130,1,,,,,,,,
,,,,,,,,,,,,,FF,,,,,,,,1.3995,,,,,,,,,,,,,,,,,,,,,,60fdf3211250e26b5354eb2d,61036f2c8038912cbf35a9b8,2021-07-29_22h19.21.285,Simcolourproject_2stim_asymm_v5,2020.2.10,Win32,60,61025ae37ef11b136ea224fe,,,,,,,,,3876,57,42,1,0,0,response1disk,,6,14,3,1,0,0,rectangle,14,3,1,0,0,14,3,1,0,0,0,37,37,46,1,,,,,,,,
,,,,,,,,,,,,,FF,,,,,,,,1.2169,,,,,,,,,,,,,,,,,,,,,,60fdf3211250e26b5354eb2d,61036f2c8038912cbf35a9b8,2021-07-29_22h19.21.285,Simcolourproject_2stim_asymm_v5,2020.2.10,Win32,60,61025ae37ef11b136ea224fe,,,,,,,,,3806,34,74,1,0,0,response1disk,,7,11,3,1,0,0,rectangle,11,3,1,0,0,11,3,1,0,0,0,38,38,146,1,,,,,,,,
,,,,,,,,,,,,,FF,,,,,,,,1.5667,,,,,,,,,,,,,,,,,,,,,,60fdf3211250e26b5354eb2d,61036f2c8038912cbf35a9b8,2021-07-29_22h19.21.285,Simcolourproject_2stim_asymm_v5,2020.2.10,Win32,60,61025ae37ef11b136ea224fe,,,,,,,,,2123,109,82,1,0,0,response1disk,,6,13,-8,1,0,0,rectangle,13,-8,1,0,0,13,-8,1,0,0,0,39,39,26,1,,,,,,,,
,,,,,,,,,,,,,FF,,,,,,,,1.6001,,,,,,,,,,,,,,,,,,,,,,60fdf3211250e26b5354eb2d,61036f2c8038912cbf35a9b8,2021-07-29_22h19.21.285,Simcolourproject_2stim_asymm_v5,2020.2.10,Win32,60,61025ae37ef11b136ea224fe,,,,,,,,,843,88,39,1,0,0,response1disk,,6,3,-9,1,0,0,rectangle,3,-9,1,0,0,3,-9,1,0,0,0,40,40,47,1,,,,,,,,
,,,,,,,,,,,,,FF,,,,,,,,1.6003,,,,,,,,,,,,,,,,,,,,,,60fdf3211250e26b5354eb2d,61036f2c8038912cbf35a9b8,2021-07-29_22h19.21.285,Simcolourproject_2stim_asymm_v5,2020.2.10,Win32,60,61025ae37ef11b136ea224fe,,,,,,,,,3988,36,71,1,0,0,response1disk,,7,7,4,1,0,0,rectangle,7,4,1,0,0,7,4,1,0,0,0,41,41,68,1,,,,,,,,
,,,,,,,,,,,,,FF,,,,,,,,2.3503,,,,,,,,,,,,,,,,,,,,,,60fdf3211250e26b5354eb2d,61036f2c8038912cbf35a9b8,2021-07-29_22h19.21.285,Simcolourproject_2stim_asymm_v5,2020.2.10,Win32,60,61025ae37ef11b136ea224fe,,,,,,,,,1399,59,37,1,0,0,response1disk,,6,7,11,1,0,0,rectangle,7,11,1,0,0,7,11,1,0,0,0,42,42,21,1,,,,,,,,
,,,,,,,,,,,,,FF,,,,,,,,2.4165,,,,,,,,,,,,,,,,,,,,,,60fdf3211250e26b5354eb2d,61036f2c8038912cbf35a9b8,2021-07-29_22h19.21.285,Simcolourproject_2stim_asymm_v5,2020.2.10,Win32,60,61025ae37ef11b136ea224fe,,,,,,,,,123,52,64,1,0,0,response1disk,,7,14,6,1,0,0,rectangle,14,6,1,0,0,14,6,1,0,0,0,43,43,43,1,,,,,,,,
,,,,,,,,,,,,,FF,,,,,,,,2.8662,,,,,,,,,,,,,,,,,,,,,,60fdf3211250e26b5354eb2d,61036f2c8038912cbf35a9b8,2021-07-29_22h19.21.285,Simcolourproject_2stim_asymm_v5,2020.2.10,Win32,60,61025ae37ef11b136ea224fe,,,,,,,,,2933,41,-65,1,0,0,response3disk,,4,7,-3,1,0,0,rectangle,39,85,1,0,0,5,-3,1,0,0,0,44,44,77,1,,response1disk_3,TRUE,7,7,"[297,243,279,208,221,103,257,85,45,102,118,48,191,178,136,180,189,171,48,197]",2.9842,rectangle
,,,,,,,,,,,,,FF,,,,,,,,1.4495,,,,,,,,,,,,,,,,,,,,,,60fdf3211250e26b5354eb2d,61036f2c8038912cbf35a9b8,2021-07-29_22h19.21.285,Simcolourproject_2stim_asymm_v5,2020.2.10,Win32,60,61025ae37ef11b136ea224fe,,,,,,,,,1867,83,42,1,0,0,response1disk,,6,-4,-1,1,0,0,rectangle,-4,-1,1,0,0,-4,-1,1,0,0,0,45,45,111,1,,,,,,,,
,,,,,,,,,,,,,FF,,,,,,,,1.9671,,,,,,,,,,,,,,,,,,,,,,60fdf3211250e26b5354eb2d,61036f2c8038912cbf35a9b8,2021-07-29_22h19.21.285,Simcolourproject_2stim_asymm_v5,2020.2.10,Win32,60,61025ae37ef11b136ea224fe,,,,,,,,,2165,29,-82,1,0,0,response3disk,,4,-3,-9,1,0,0,rectangle,-3,-9,1,0,0,-3,-9,1,0,0,0,46,46,31,1,,,,,,,,
,,,,,,,,,,,,,FF,,,,,,,,1.2829,,,,,,,,,,,,,,,,,,,,,,60fdf3211250e26b5354eb2d,61036f2c8038912cbf35a9b8,2021-07-29_22h19.21.285,Simcolourproject_2stim_asymm_v5,2020.2.10,Win32,60,61025ae37ef11b136ea224fe,,,,,,,,,3943,-86,-51,1,0,0,response5disk,,2,-1,-4,1,0,0,rectangle,74,-38,1,0,0,3,3,1,0,0,0,47,47,22,1,,response3disk_3,TRUE,5,5,"[297,243,279,208,221,103,257,85,45,102,118,48,191,178,136,180,189,171,48,197]",2.3831,rectangle
,,,,,,,,,,,,,FF,,,,,,,,2.0332,,,,,,,,,,,,,,,,,,,,,,60fdf3211250e26b5354eb2d,61036f2c8038912cbf35a9b8,2021-07-29_22h19.21.285,Simcolourproject_2stim_asymm_v5,2020.2.10,Win32,60,61025ae37ef11b136ea224fe,,,,,,,,,548,-48,-84,1,0,0,response5disk,,3,8,8,1,0,0,rectangle,8,8,1,0,0,8,8,1,0,0,0,48,48,88,1,,,,,,,,
,,,,,,,,,,,,,FF,,,,,,,,2.4498,,,,,,,,,,,,,,,,,,,,,,60fdf3211250e26b5354eb2d,61036f2c8038912cbf35a9b8,2021-07-29_22h19.21.285,Simcolourproject_2stim_asymm_v5,2020.2.10,Win32,60,61025ae37ef11b136ea224fe,,,,,,,,,2911,49,73,1,0,0,response1disk,,7,6,2,1,0,0,rectangle,6,2,1,0,0,6,2,1,0,0,0,49,49,155,1,,,,,,,,
,,,,,,,,,,,,,FF,,,,,,,,1.2166,,,,,,,,,,,,,,,,,,,,,,60fdf3211250e26b5354eb2d,61036f2c8038912cbf35a9b8,2021-07-29_22h19.21.285,Simcolourproject_2stim_asymm_v5,2020.2.10,Win32,60,61025ae37ef11b136ea224fe,,,,,,,,,1393,69,31,1,0,0,response1disk,,6,14,-6,1,0,0,rectangle,14,-6,1,0,0,14,-6,1,0,0,0,50,50,64,1,,,,,,,,
,,,,,,,,,,,,,FF,,,,,,,,1.8834,,,,,,,,,,,,,,,,,,,,,,60fdf3211250e26b5354eb2d,61036f2c8038912cbf35a9b8,2021-07-29_22h19.21.285,Simcolourproject_2stim_asymm_v5,2020.2.10,Win32,60,61025ae37ef11b136ea224fe,,,,,,,,,1695,49,42,1,0,0,response1disk,,6,9,-5,1,0,0,rectangle,9,-5,1,0,0,9,-5,1,0,0,0,51,51,78,1,,,,,,,,
,,,,,,,,,,,,,FF,,,,,,,,1.516,,,,,,,,,,,,,,,,,,,,,,60fdf3211250e26b5354eb2d,61036f2c8038912cbf35a9b8,2021-07-29_22h19.21.285,Simcolourproject_2stim_asymm_v5,2020.2.10,Win32,60,61025ae37ef11b136ea224fe,,,,,,,,,3800,27,80,1,0,0,response1disk,,7,1,5,1,0,0,rectangle,1,5,1,0,0,1,5,1,0,0,0,52,52,104,1,,,,,,,,
,,,,,,,,,,,,,FF,,,,,,,,3.6329,,,,,,,,,,,,,,,,,,,,,,60fdf3211250e26b5354eb2d,61036f2c8038912cbf35a9b8,2021-07-29_22h19.21.285,Simcolourproject_2stim_asymm_v5,2020.2.10,Win32,60,61025ae37ef11b136ea224fe,,,,,,,,,1464,41,-62,1,0,0,response3disk,,4,8,0,1,0,0,rectangle,8,0,1,0,0,8,0,1,0,0,0,53,53,131,1,,,,,,,,
,,,,,,,,,,,,,FF,,,,,,,,3.2994,,,,,,,,,,,,,,,,,,,,,,60fdf3211250e26b5354eb2d,61036f2c8038912cbf35a9b8,2021-07-29_22h19.21.285,Simcolourproject_2stim_asymm_v5,2020.2.10,Win32,60,61025ae37ef11b136ea224fe,,,,,,,,,24,52,92,1,0,0,response1disk,,7,-1,-1,1,0,0,rectangle,-1,-1,1,0,0,-1,-1,1,0,0,0,54,54,23,1,,,,,,,,
,,,,,,,,,,,,,FF,,,,,,,,1.4494,,,,,,,,,,,,,,,,,,,,,,60fdf3211250e26b5354eb2d,61036f2c8038912cbf35a9b8,2021-07-29_22h19.21.285,Simcolourproject_2stim_asymm_v5,2020.2.10,Win32,60,61025ae37ef11b136ea224fe,,,,,,,,,2193,49,68,1,0,0,response1disk,,7,4,-1,1,0,0,rectangle,4,-1,1,0,0,4,-1,1,0,0,0,55,55,139,1,,,,,,,,
,,,,,,,,,,,,,FF,,,,,,,,1.3832,,,,,,,,,,,,,,,,,,,,,,60fdf3211250e26b5354eb2d,61036f2c8038912cbf35a9b8,2021-07-29_22h19.21.285,Simcolourproject_2stim_asymm_v5,2020.2.10,Win32,60,61025ae37ef11b136ea224fe,,,,,,,,,4196,41,69,1,0,0,response1disk,,7,15,12,1,0,0,rectangle,15,12,1,0,0,15,12,1,0,0,0,56,56,51,1,,,,,,,,
,,,,,,,,,,,,,FF,,,,,,,,1.15,,,,,,,,,,,,,,,,,,,,,,60fdf3211250e26b5354eb2d,61036f2c8038912cbf35a9b8,2021-07-29_22h19.21.285,Simcolourproject_2stim_asymm_v5,2020.2.10,Win32,60,61025ae37ef11b136ea224fe,,,,,,,,,3776,-30,73,1,0,0,response7disk,,0,2,11,1,0,0,rectangle,2,11,1,0,0,2,11,1,0,0,0,57,57,42,1,,,,,,,,
,,,,,,,,,,,,,FF,,,,,,,,3.2163,,,,,,,,,,,,,,,,,,,,,,60fdf3211250e26b5354eb2d,61036f2c8038912cbf35a9b8,2021-07-29_22h19.21.285,Simcolourproject_2stim_asymm_v5,2020.2.10,Win32,60,61025ae37ef11b136ea224fe,,,,,,,,,2434,83,-25,1,0,0,response3disk,,5,5,-1,1,0,0,rectangle,5,-1,1,0,0,5,-1,1,0,0,0,58,58,15,1,,,,,,,,
,,,,,,,,,,,,,FF,,,,,,,,2.9165,,,,,,,,,,,,,,,,,,,,,,60fdf3211250e26b5354eb2d,61036f2c8038912cbf35a9b8,2021-07-29_22h19.21.285,Simcolourproject_2stim_asymm_v5,2020.2.10,Win32,60,61025ae37ef11b136ea224fe,,,,,,,,,1188,69,-33,1,0,0,response3disk,,5,7,5,1,0,0,rectangle,7,5,1,0,0,7,5,1,0,0,0,59,59,37,1,,,,,,,,
,,,,,,,,,,,,,FF,,,,,,,,2.3832,,,,,,,,,,,,,,,,,,,,,,60fdf3211250e26b5354eb2d,61036f2c8038912cbf35a9b8,2021-07-29_22h19.21.285,Simcolourproject_2stim_asymm_v5,2020.2.10,Win32,60,61025ae37ef11b136ea224fe,,,,,,,,,1228,-61,-70,1,0,0,response5disk,,3,-4,2,1,0,0,rectangle,-4,2,1,0,0,-4,2,1,0,0,0,60,60,9,1,,,,,,,,
,,,,,,,,,,,,,FF,,,,,,,,1.2503,,,,,,,,,,,,,,,,,,,,,,60fdf3211250e26b5354eb2d,61036f2c8038912cbf35a9b8,2021-07-29_22h19.21.285,Simcolourproject_2stim_asymm_v5,2020.2.10,Win32,60,61025ae37ef11b136ea224fe,,,,,,,,,1528,-84,-60,1,0,0,response5disk,,2,4,-2,1,0,0,rectangle,4,-2,1,0,0,4,-2,1,0,0,0,61,61,17,1,,,,,,,,
,,,,,,,,,,,,,FF,,,,,,,,4.8331,,,,,,,,,,,,,,,,,,,,,,60fdf3211250e26b5354eb2d,61036f2c8038912cbf35a9b8,2021-07-29_22h19.21.285,Simcolourproject_2stim_asymm_v5,2020.2.10,Win32,60,61025ae37ef11b136ea224fe,,,,,,,,,1398,84,-34,1,0,0,response3disk,,5,7,0,1,0,0,rectangle,7,0,1,0,0,7,0,1,0,0,0,62,62,145,1,,,,,,,,
,,,,,,,,,,,,,FF,,,,,,,,2.7334,,,,,,,,,,,,,,,,,,,,,,60fdf3211250e26b5354eb2d,61036f2c8038912cbf35a9b8,2021-07-29_22h19.21.285,Simcolourproject_2stim_asymm_v5,2020.2.10,Win32,60,61025ae37ef11b136ea224fe,,,,,,,,,1042,34,-82,1,0,0,response3disk,,4,21,0,1,0,0,rectangle,21,0,1,0,0,21,0,1,0,0,0,63,63,84,1,,,,,,,,
,,,,,,,,,,,,,FF,,,,,,,,1.4503,,,,,,,,,,,,,,,,,,,,,,60fdf3211250e26b5354eb2d,61036f2c8038912cbf35a9b8,2021-07-29_22h19.21.285,Simcolourproject_2stim_asymm_v5,2020.2.10,Win32,60,61025ae37ef11b136ea224fe,,,,,,,,,3751,-84,-48,1,0,0,response5disk,,2,-7,-1,1,0,0,rectangle,-7,-1,1,0,0,-7,-1,1,0,0,0,64,64,34,1,,,,,,,,
,,,,,,,,,,,,,FF,,,,,,,,2.2666,,,,,,,,,,,,,,,,,,,,,,60fdf3211250e26b5354eb2d,61036f2c8038912cbf35a9b8,2021-07-29_22h19.21.285,Simcolourproject_2stim_asymm_v5,2020.2.10,Win32,60,61025ae37ef11b136ea224fe,,,,,,,,,3644,89,-61,1,0,0,response3disk,,5,16,-8,1,0,0,rectangle,16,-8,1,0,0,16,-8,1,0,0,0,65,65,72,1,,,,,,,,
,,,,,,,,,,,,,FF,,,,,,,,1.484,,,,,,,,,,,,,,,,,,,,,,60fdf3211250e26b5354eb2d,61036f2c8038912cbf35a9b8,2021-07-29_22h19.21.285,Simcolourproject_2stim_asymm_v5,2020.2.10,Win32,60,61025ae37ef11b136ea224fe,,,,,,,,,4094,62,43,1,0,0,response1disk,,6,3,3,1,0,0,rectangle,3,3,1,0,0,3,3,1,0,0,0,66,66,151,1,,,,,,,,
,,,,,,,,,,,,,FF,,,,,,,,1.6,,,,,,,,,,,,,,,,,,,,,,60fdf3211250e26b5354eb2d,61036f2c8038912cbf35a9b8,2021-07-29_22h19.21.285,Simcolourproject_2stim_asymm_v5,2020.2.10,Win32,60,61025ae37ef11b136ea224fe,,,,,,,,,1872,70,46,1,0,0,response1disk,,6,5,-12,1,0,0,rectangle,5,-12,1,0,0,5,-12,1,0,0,0,67,67,54,1,,,,,,,,
,,,,,,,,,,,,,FF,,,,,,,,2.9333,,,,,,,,,,,,,,,,,,,,,,60fdf3211250e26b5354eb2d,61036f2c8038912cbf35a9b8,2021-07-29_22h19.21.285,Simcolourproject_2stim_asymm_v5,2020.2.10,Win32,60,61025ae37ef11b136ea224fe,,,,,,,,,3847,32,-68,1,0,0,response3disk,,4,5,-8,1,0,0,rectangle,5,-8,1,0,0,5,-8,1,0,0,0,68,68,128,1,,,,,,,,
,,,,,,,,,,,,,FF,,,,,,,,1.2167,,,,,,,,,,,,,,,,,,,,,,60fdf3211250e26b5354eb2d,61036f2c8038912cbf35a9b8,2021-07-29_22h19.21.285,Simcolourproject_2stim_asymm_v5,2020.2.10,Win32,60,61025ae37ef11b136ea224fe,,,,,,,,,1527,-23,-70,1,0,0,response5disk,,3,16,8,1,0,0,rectangle,16,8,1,0,0,16,8,1,0,0,0,69,69,135,1,,,,,,,,
,,,,,,,,,,,,,FF,,,,,,,,1.4165,,,,,,,,,,,,,,,,,,,,,,60fdf3211250e26b5354eb2d,61036f2c8038912cbf35a9b8,2021-07-29_22h19.21.285,Simcolourproject_2stim_asymm_v5,2020.2.10,Win32,60,61025ae37ef11b136ea224fe,,,,,,,,,494,99,-37,1,0,0,response3disk,,5,17,2,1,0,0,rectangle,17,2,1,0,0,17,2,1,0,0,0,70,70,105,1,,,,,,,,
,,,,,,,,,,,,,FF,,,,,,,,1.5867,,,,,,,,,,,,,,,,,,,,,,60fdf3211250e26b5354eb2d,61036f2c8038912cbf35a9b8,2021-07-29_22h19.21.285,Simcolourproject_2stim_asymm_v5,2020.2.10,Win32,60,61025ae37ef11b136ea224fe,,,,,,,,,3481,24,-63,1,0,0,response3disk,,4,0,7,1,0,0,rectangle,0,7,1,0,0,0,7,1,0,0,0,71,71,80,1,,,,,,,,
,,,,,,,,,,,,,FF,,,,,,,,3.4502,,,,,,,,,,,,,,,,,,,,,,60fdf3211250e26b5354eb2d,61036f2c8038912cbf35a9b8,2021-07-29_22h19.21.285,Simcolourproject_2stim_asymm_v5,2020.2.10,Win32,60,61025ae37ef11b136ea224fe,,,,,,,,,1023,88,41,1,0,0,response1disk,,6,13,-6,1,0,0,rectangle,13,-6,1,0,0,13,-6,1,0,0,0,72,72,156,1,,,,,,,,
,,,,,,,,,,,,,FF,,,,,,,,1.3834,,,,,,,,,,,,,,,,,,,,,,60fdf3211250e26b5354eb2d,61036f2c8038912cbf35a9b8,2021-07-29_22h19.21.285,Simcolourproject_2stim_asymm_v5,2020.2.10,Win32,60,61025ae37ef11b136ea224fe,,,,,,,,,591,65,46,1,0,0,response1disk,,6,0,-8,1,0,0,rectangle,0,-8,1,0,0,0,-8,1,0,0,0,73,73,45,1,,,,,,,,
,,,,,,,,,,,,,FF,,,,,,,,1.7835,,,,,,,,,,,,,,,,,,,,,,60fdf3211250e26b5354eb2d,61036f2c8038912cbf35a9b8,2021-07-29_22h19.21.285,Simcolourproject_2stim_asymm_v5,2020.2.10,Win32,60,61025ae37ef11b136ea224fe,,,,,,,,,1975,-26,-79,1,0,0,response5disk,,3,5,1,1,0,0,rectangle,5,1,1,0,0,5,1,1,0,0,0,74,74,11,1,,,,,,,,
,,,,,,,,,,,,,FF,,,,,,,,1.6669,,,,,,,,,,,,,,,,,,,,,,60fdf3211250e26b5354eb2d,61036f2c8038912cbf35a9b8,2021-07-29_22h19.21.285,Simcolourproject_2stim_asymm_v5,2020.2.10,Win32,60,61025ae37ef11b136ea224fe,,,,,,,,,661,78,-41,1,0,0,response3disk,,5,25,-12,1,0,0,rectangle,25,-12,1,0,0,25,-12,1,0,0,0,75,75,92,1,,,,,,,,
,,,,,,,,,,,,,FF,,,,,,,,1.4354,,,,,,,,,,,,,,,,,,,,,,60fdf3211250e26b5354eb2d,61036f2c8038912cbf35a9b8,2021-07-29_22h19.21.285,Simcolourproject_2stim_asymm_v5,2020.2.10,Win32,60,61025ae37ef11b136ea224fe,,,,,,,,,1816,-77,-29,1,0,0,response5disk,,2,8,-2,1,0,0,rectangle,8,-2,1,0,0,8,-2,1,0,0,0,76,76,12,1,,,,,,,,
,,,,,,,,,,,,,FF,,,,,,,,2.1666,,,,,,,,,,,,,,,,,,,,,,60fdf3211250e26b5354eb2d,61036f2c8038912cbf35a9b8,2021-07-29_22h19.21.285,Simcolourproject_2stim_asymm_v5,2020.2.10,Win32,60,61025ae37ef11b136ea224fe,,,,,,,,,1844,45,-77,1,0,0,response3disk,,4,16,2,1,0,0,rectangle,16,2,1,0,0,16,2,1,0,0,0,77,77,95,1,,,,,,,,
,,,,,,,,,,,,,FF,,,,,,,,1.9828,,,,,,,,,,,,,,,,,,,,,,60fdf3211250e26b5354eb2d,61036f2c8038912cbf35a9b8,2021-07-29_22h19.21.285,Simcolourproject_2stim_asymm_v5,2020.2.10,Win32,60,61025ae37ef11b136ea224fe,,,,,,,,,2499,86,41,1,0,0,response1disk,,6,5,-1,1,0,0,rectangle,5,-1,1,0,0,5,-1,1,0,0,0,78,78,122,1,,,,,,,,
,,,,,,,,,,,,,FF,,,,,,,,1.2864,,,,,,,,,,,,,,,,,,,,,,60fdf3211250e26b5354eb2d,61036f2c8038912cbf35a9b8,2021-07-29_22h19.21.285,Simcolourproject_2stim_asymm_v5,2020.2.10,Win32,60,61025ae37ef11b136ea224fe,,,,,,,,,3721,39,81,1,0,0,response1disk,,7,7,9,1,0,0,rectangle,7,9,1,0,0,7,9,1,0,0,0,79,79,71,1,,,,,,,,
,,,,,,,,,,,,,FF,,,,,,,,1.6831,,,,,,,,,,,,,,,,,,,,,,60fdf3211250e26b5354eb2d,61036f2c8038912cbf35a9b8,2021-07-29_22h19.21.285,Simcolourproject_2stim_asymm_v5,2020.2.10,Win32,60,61025ae37ef11b136ea224fe,,,,,,,,,4148,-50,-71,1,0,0,response5disk,,3,3,14,1,0,0,rectangle,3,14,1,0,0,3,14,1,0,0,0,80,80,120,1,,,,,,,,
,,,,,,,,,,,,,FF,,,,,,,,2.7172,,,,,,,,,,,,,,,,,,,,,,60fdf3211250e26b5354eb2d,61036f2c8038912cbf35a9b8,2021-07-29_22h19.21.285,Simcolourproject_2stim_asymm_v5,2020.2.10,Win32,60,61025ae37ef11b136ea224fe,,,,,,,,,1912,93,-26,1,0,0,response3disk,,5,-18,12,1,0,0,rectangle,-18,12,1,0,0,-18,12,1,0,0,0,81,81,75,1,,,,,,,,
,,,,,,,,,,,,,FF,,,,,,,,1.2498,,,,,,,,,,,,,,,,,,,,,,60fdf3211250e26b5354eb2d,61036f2c8038912cbf35a9b8,2021-07-29_22h19.21.285,Simcolourproject_2stim_asymm_v5,2020.2.10,Win32,60,61025ae37ef11b136ea224fe,,,,,,,,,2435,41,-59,1,0,0,response3disk,,4,6,4,1,0,0,rectangle,6,4,1,0,0,6,4,1,0,0,0,82,82,40,1,,,,,,,,
,,,,,,,,,,,,,FF,,,,,,,,2.8835,,,,,,,,,,,,,,,,,,,,,,60fdf3211250e26b5354eb2d,61036f2c8038912cbf35a9b8,2021-07-29_22h19.21.285,Simcolourproject_2stim_asymm_v5,2020.2.10,Win32,60,61025ae37ef11b136ea224fe,,,,,,,,,1590,87,42,1,0,0,response1disk,,6,9,2,1,0,0,rectangle,9,2,1,0,0,9,2,1,0,0,0,83,83,86,1,,,,,,,,
,,,,,,,,,,,,,FF,,,,,,,,4.3166,,,,,,,,,,,,,,,,,,,,,,60fdf3211250e26b5354eb2d,61036f2c8038912cbf35a9b8,2021-07-29_22h19.21.285,Simcolourproject_2stim_asymm_v5,2020.2.10,Win32,60,61025ae37ef11b136ea224fe,,,,,,,,,3504,50,-104,1,0,0,response3disk,,4,-3,-2,1,0,0,rectangle,73,-30,1,0,0,7,7,1,0,0,0,84,84,19,1,,response3disk_3,TRUE,5,5,"[297,243,279,208,221,103,257,85,45,102,118,48,191,178,136,180,189,171,48,197]",2.2032,rectangle
,,,,,,,,,,,,,FF,,,,,,,,2.1006,,,,,,,,,,,,,,,,,,,,,,60fdf3211250e26b5354eb2d,61036f2c8038912cbf35a9b8,2021-07-29_22h19.21.285,Simcolourproject_2stim_asymm_v5,2020.2.10,Win32,60,61025ae37ef11b136ea224fe,,,,,,,,,3307,79,33,1,0,0,response1disk,,6,13,-4,1,0,0,rectangle,13,-4,1,0,0,13,-4,1,0,0,0,85,85,102,1,,,,,,,,
,,,,,,,,,,,,,FF,,,,,,,,1.1339,,,,,,,,,,,,,,,,,,,,,,60fdf3211250e26b5354eb2d,61036f2c8038912cbf35a9b8,2021-07-29_22h19.21.285,Simcolourproject_2stim_asymm_v5,2020.2.10,Win32,60,61025ae37ef11b136ea224fe,,,,,,,,,2043,28,-58,1,0,0,response3disk,,4,-4,-4,1,0,0,rectangle,-4,-4,1,0,0,-4,-4,1,0,0,0,86,86,28,1,,,,,,,,
,,,,,,,,,,,,,FF,,,,,,,,1.8188,,,,,,,,,,,,,,,,,,,,,,60fdf3211250e26b5354eb2d,61036f2c8038912cbf35a9b8,2021-07-29_22h19.21.285,Simcolourproject_2stim_asymm_v5,2020.2.10,Win32,60,61025ae37ef11b136ea224fe,,,,,,,,,1946,90,33,1,0,0,response1disk,,6,12,-7,1,0,0,rectangle,12,-7,1,0,0,12,-7,1,0,0,0,87,87,149,1,,,,,,,,
,,,,,,,,,,,,,FF,,,,,,,,1.2498,,,,,,,,,,,,,,,,,,,,,,60fdf3211250e26b5354eb2d,61036f2c8038912cbf35a9b8,2021-07-29_22h19.21.285,Simcolourproject_2stim_asymm_v5,2020.2.10,Win32,60,61025ae37ef11b136ea224fe,,,,,,,,,4285,34,63,1,0,0,response1disk,,7,9,3,1,0,0,rectangle,9,3,1,0,0,9,3,1,0,0,0,88,88,98,1,,,,,,,,
,,,,,,,,,,,,,FF,,,,,,,,3.5026,,,,,,,,,,,,,,,,,,,,,,60fdf3211250e26b5354eb2d,61036f2c8038912cbf35a9b8,2021-07-29_22h19.21.285,Simcolourproject_2stim_asymm_v5,2020.2.10,Win32,60,61025ae37ef11b136ea224fe,,,,,,,,,3765,79,50,1,0,0,response1disk,,6,4,8,1,0,0,rectangle,4,8,1,0,0,4,8,1,0,0,0,89,89,58,1,,,,,,,,
,,,,,,,,,,,,,FF,,,,,,,,2.5829,,,,,,,,,,,,,,,,,,,,,,60fdf3211250e26b5354eb2d,61036f2c8038912cbf35a9b8,2021-07-29_22h19.21.285,Simcolourproject_2stim_asymm_v5,2020.2.10,Win32,60,61025ae37ef11b136ea224fe,,,,,,,,,2848,104,50,1,0,0,response1disk,,6,1,0,1,0,0,rectangle,1,0,1,0,0,1,0,1,0,0,0,90,90,49,1,,,,,,,,
,,,,,,,,,,,,,FF,,,,,,,,1.1172,,,,,,,,,,,,,,,,,,,,,,60fdf3211250e26b5354eb2d,61036f2c8038912cbf35a9b8,2021-07-29_22h19.21.285,Simcolourproject_2stim_asymm_v5,2020.2.10,Win32,60,61025ae37ef11b136ea224fe,,,,,,,,,1030,60,-26,1,0,0,response3disk,,5,22,-7,1,0,0,rectangle,22,-7,1,0,0,22,-7,1,0,0,0,91,91,32,1,,,,,,,,
,,,,,,,,,,,,,FF,,,,,,,,1.666,,,,,,,,,,,,,,,,,,,,,,60fdf3211250e26b5354eb2d,61036f2c8038912cbf35a9b8,2021-07-29_22h19.21.285,Simcolourproject_2stim_asymm_v5,2020.2.10,Win32,60,61025ae37ef11b136ea224fe,,,,,,,,,1150,-42,-79,1,0,0,response5disk,,3,6,1,1,0,0,rectangle,6,1,1,0,0,6,1,1,0,0,0,92,92,101,1,,,,,,,,
,,,,,,,,,,,,,FF,,,,,,,,2.5335,,,,,,,,,,,,,,,,,,,,,,60fdf3211250e26b5354eb2d,61036f2c8038912cbf35a9b8,2021-07-29_22h19.21.285,Simcolourproject_2stim_asymm_v5,2020.2.10,Win32,60,61025ae37ef11b136ea224fe,,,,,,,,,2842,107,39,1,0,0,response1disk,,6,0,-8,1,0,0,rectangle,0,-8,1,0,0,0,-8,1,0,0,0,93,93,96,1,,,,,,,,
,,,,,,,,,,,,,FF,,,,,,,,1.4331,,,,,,,,,,,,,,,,,,,,,,60fdf3211250e26b5354eb2d,61036f2c8038912cbf35a9b8,2021-07-29_22h19.21.285,Simcolourproject_2stim_asymm_v5,2020.2.10,Win32,60,61025ae37ef11b136ea224fe,,,,,,,,,837,85,48,1,0,0,response1disk,,6,7,-3,1,0,0,rectangle,7,-3,1,0,0,7,-3,1,0,0,0,94,94,30,1,,,,,,,,
,,,,,,,,,,,,,FF,,,,,,,,1.448,,,,,,,,,,,,,,,,,,,,,,60fdf3211250e26b5354eb2d,61036f2c8038912cbf35a9b8,2021-07-29_22h19.21.285,Simcolourproject_2stim_asymm_v5,2020.2.10,Win32,60,61025ae37ef11b136ea224fe,,,,,,,,,3722,36,-46,1,0,0,response3disk,,4,14,1,1,0,0,rectangle,14,1,1,0,0,14,1,1,0,0,0,95,95,76,1,,,,,,,,
,,,,,,,,,,,,,FF,,,,,,,,1.3168,,,,,,,,,,,,,,,,,,,,,,60fdf3211250e26b5354eb2d,61036f2c8038912cbf35a9b8,2021-07-29_22h19.21.285,Simcolourproject_2stim_asymm_v5,2020.2.10,Win32,60,61025ae37ef11b136ea224fe,,,,,,,,,2114,68,44,1,0,0,response1disk,,6,15,12,1,0,0,rectangle,15,12,1,0,0,15,12,1,0,0,0,96,96,112,1,,,,,,,,
,,,,,,,,,,,,,FF,,,,,,,,1.6838,,,,,,,,,,,,,,,,,,,,,,60fdf3211250e26b5354eb2d,61036f2c8038912cbf35a9b8,2021-07-29_22h19.21.285,Simcolourproject_2stim_asymm_v5,2020.2.10,Win32,60,61025ae37ef11b136ea224fe,,,,,,,,,1649,32,65,1,0,0,response1disk,,7,18,3,1,0,0,rectangle,18,3,1,0,0,18,3,1,0,0,0,97,97,159,1,,,,,,,,
,,,,,,,,,,,,,FF,,,,,,,,1.2139,,,,,,,,,,,,,,,,,,,,,,60fdf3211250e26b5354eb2d,61036f2c8038912cbf35a9b8,2021-07-29_22h19.21.285,Simcolourproject_2stim_asymm_v5,2020.2.10,Win32,60,61025ae37ef11b136ea224fe,,,,,,,,,2813,36,62,1,0,0,response1disk,,7,13,4,1,0,0,rectangle,13,4,1,0,0,13,4,1,0,0,0,98,98,79,1,,,,,,,,
,,,,,,,,,,,,,FF,,,,,,,,2.6994,,,,,,,,,,,,,,,,,,,,,,60fdf3211250e26b5354eb2d,61036f2c8038912cbf35a9b8,2021-07-29_22h19.21.285,Simcolourproject_2stim_asymm_v5,2020.2.10,Win32,60,61025ae37ef11b136ea224fe,,,,,,,,,2602,-47,-66,1,0,0,response5disk,,3,-4,8,1,0,0,rectangle,-4,8,1,0,0,-4,8,1,0,0,0,99,99,8,1,,,,,,,,
,,,,,,,,,,,,,FF,,,,,,,,1.3327,,,,,,,,,,,,,,,,,,,,,,60fdf3211250e26b5354eb2d,61036f2c8038912cbf35a9b8,2021-07-29_22h19.21.285,Simcolourproject_2stim_asymm_v5,2020.2.10,Win32,60,61025ae37ef11b136ea224fe,,,,,,,,,1799,68,-28,1,0,0,response3disk,,5,13,-1,1,0,0,rectangle,13,-1,1,0,0,13,-1,1,0,0,0,100,100,148,1,,,,,,,,
,,,,,,,,,,,,,FF,,,,,,,,1.9313,,,,,,,,,,,,,,,,,,,,,,60fdf3211250e26b5354eb2d,61036f2c8038912cbf35a9b8,2021-07-29_22h19.21.285,Simcolourproject_2stim_asymm_v5,2020.2.10,Win32,60,61025ae37ef11b136ea224fe,,,,,,,,,3945,39,-59,1,0,0,response3disk,,4,17,6,1,0,0,rectangle,78,37,1,0,0,18,-5,1,0,0,0,101,101,154,1,,response1disk_3,TRUE,6,6,"[297,243,279,208,221,103,257,85,45,102,118,48,191,178,136,180,189,171,48,197]",2.0499,rectangle
,,,,,,,,,,,,,FF,,,,,,,,1.3008,,,,,,,,,,,,,,,,,,,,,,60fdf3211250e26b5354eb2d,61036f2c8038912cbf35a9b8,2021-07-29_22h19.21.285,Simcolourproject_2stim_asymm_v5,2020.2.10,Win32,60,61025ae37ef11b136ea224fe,,,,,,,,,3388,-52,65,1,0,0,response7disk,,0,-12,6,1,0,0,rectangle,86,41,1,0,0,18,7,1,0,0,0,102,102,123,1,,response1disk_3,TRUE,6,6,"[297,243,279,208,221,103,257,85,45,102,118,48,191,178,136,180,189,171,48,197]",2.0835,rectangle
,,,,,,,,,,,,,FF,,,,,,,,1.3834,,,,,,,,,,,,,,,,,,,,,,60fdf3211250e26b5354eb2d,61036f2c8038912cbf35a9b8,2021-07-29_22h19.21.285,Simcolourproject_2stim_asymm_v5,2020.2.10,Win32,60,61025ae37ef11b136ea224fe,,,,,,,,,1500,70,41,1,0,0,response1disk,,6,11,2,1,0,0,rectangle,11,2,1,0,0,11,2,1,0,0,0,103,103,29,1,,,,,,,,
,,,,,,,,,,,,,FF,,,,,,,,1.5338,,,,,,,,,,,,,,,,,,,,,,60fdf3211250e26b5354eb2d,61036f2c8038912cbf35a9b8,2021-07-29_22h19.21.285,Simcolourproject_2stim_asymm_v5,2020.2.10,Win32,60,61025ae37ef11b136ea224fe,,,,,,,,,3197,-74,37,1,0,0,response7disk,,1,-11,8,1,0,0,rectangle,-11,8,1,0,0,-11,8,1,0,0,0,104,104,41,1,,,,,,,,
,,,,,,,,,,,,,FF,,,,,,,,2.5335,,,,,,,,,,,,,,,,,,,,,,60fdf3211250e26b5354eb2d,61036f2c8038912cbf35a9b8,2021-07-29_22h19.21.285,Simcolourproject_2stim_asymm_v5,2020.2.10,Win32,60,61025ae37ef11b136ea224fe,,,,,,,,,3283,-65,-36,1,0,0,response5disk,,2,13,0,1,0,0,rectangle,13,0,1,0,0,13,0,1,0,0,0,105,105,53,1,,,,,,,,
,,,,,,,,,,,,,FF,,,,,,,,1.233,,,,,,,,,,,,,,,,,,,,,,60fdf3211250e26b5354eb2d,61036f2c8038912cbf35a9b8,2021-07-29_22h19.21.285,Simcolourproject_2stim_asymm_v5,2020.2.10,Win32,60,61025ae37ef11b136ea224fe,,,,,,,,,1910,66,-25,1,0,0,response3disk,,5,18,1,1,0,0,rectangle,18,1,1,0,0,18,1,1,0,0,0,106,106,126,1,,,,,,,,
,,,,,,,,,,,,,FF,,,,,,,,1.8171,,,,,,,,,,,,,,,,,,,,,,60fdf3211250e26b5354eb2d,61036f2c8038912cbf35a9b8,2021-07-29_22h19.21.285,Simcolourproject_2stim_asymm_v5,2020.2.10,Win32,60,61025ae37ef11b136ea224fe,,,,,,,,,3643,27,-43,1,0,0,response3disk,,4,11,2,1,0,0,rectangle,11,2,1,0,0,11,2,1,0,0,0,107,107,27,1,,,,,,,,
,,,,,,,,,,,,,FF,,,,,,,,1.1838,,,,,,,,,,,,,,,,,,,,,,60fdf3211250e26b5354eb2d,61036f2c8038912cbf35a9b8,2021-07-29_22h19.21.285,Simcolourproject_2stim_asymm_v5,2020.2.10,Win32,60,61025ae37ef11b136ea224fe,,,,,,,,,2439,73,39,1,0,0,response1disk,,6,-6,-12,1,0,0,rectangle,-6,-12,1,0,0,-6,-12,1,0,0,0,108,108,83,1,,,,,,,,
,,,,,,,,,,,,,FF,,,,,,,,1.7529,,,,,,,,,,,,,,,,,,,,,,60fdf3211250e26b5354eb2d,61036f2c8038912cbf35a9b8,2021-07-29_22h19.21.285,Simcolourproject_2stim_asymm_v5,2020.2.10,Win32,60,61025ae37ef11b136ea224fe,,,,,,,,,3784,36,-85,1,0,0,response3disk,,4,12,-1,1,0,0,rectangle,12,-1,1,0,0,12,-1,1,0,0,0,109,109,25,1,,,,,,,,
,,,,,,,,,,,,,FF,,,,,,,,1.2001,,,,,,,,,,,,,,,,,,,,,,60fdf3211250e26b5354eb2d,61036f2c8038912cbf35a9b8,2021-07-29_22h19.21.285,Simcolourproject_2stim_asymm_v5,2020.2.10,Win32,60,61025ae37ef11b136ea224fe,,,,,,,,,2750,69,38,1,0,0,response1disk,,6,8,0,1,0,0,rectangle,8,0,1,0,0,8,0,1,0,0,0,110,110,137,1,,,,,,,,
,,,,,,,,,,,,,FF,,,,,,,,1.7834,,,,,,,,,,,,,,,,,,,,,,60fdf3211250e26b5354eb2d,61036f2c8038912cbf35a9b8,2021-07-29_22h19.21.285,Simcolourproject_2stim_asymm_v5,2020.2.10,Win32,60,61025ae37ef11b136ea224fe,,,,,,,,,2769,35,-47,1,0,0,response3disk,,4,8,-5,1,0,0,rectangle,8,-5,1,0,0,8,-5,1,0,0,0,111,111,103,1,,,,,,,,
,,,,,,,,,,,,,FF,,,,,,,,2.5857,,,,,,,,,,,,,,,,,,,,,,60fdf3211250e26b5354eb2d,61036f2c8038912cbf35a9b8,2021-07-29_22h19.21.285,Simcolourproject_2stim_asymm_v5,2020.2.10,Win32,60,61025ae37ef11b136ea224fe,,,,,,,,,198,66,-26,1,0,0,response3disk,,5,24,0,1,0,0,rectangle,24,0,1,0,0,24,0,1,0,0,0,112,112,133,1,,,,,,,,
,,,,,,,,,,,,,FF,,,,,,,,1.1813,,,,,,,,,,,,,,,,,,,,,,60fdf3211250e26b5354eb2d,61036f2c8038912cbf35a9b8,2021-07-29_22h19.21.285,Simcolourproject_2stim_asymm_v5,2020.2.10,Win32,60,61025ae37ef11b136ea224fe,,,,,,,,,3493,76,39,1,0,0,response1disk,,6,13,-6,1,0,0,rectangle,13,-6,1,0,0,13,-6,1,0,0,0,113,113,114,1,,,,,,,,
,,,,,,,,,,,,,FF,,,,,,,,2.9474,,,,,,,,,,,,,,,,,,,,,,60fdf3211250e26b5354eb2d,61036f2c8038912cbf35a9b8,2021-07-29_22h19.21.285,Simcolourproject_2stim_asymm_v5,2020.2.10,Win32,60,61025ae37ef11b136ea224fe,,,,,,,,,3211,32,-85,1,0,0,response3disk,,4,13,-9,1,0,0,rectangle,13,-9,1,0,0,13,-9,1,0,0,0,114,114,74,1,,,,,,,,
,,,,,,,,,,,,,FF,,,,,,,,1.2838,,,,,,,,,,,,,,,,,,,,,,60fdf3211250e26b5354eb2d,61036f2c8038912cbf35a9b8,2021-07-29_22h19.21.285,Simcolourproject_2stim_asymm_v5,2020.2.10,Win32,60,61025ae37ef11b136ea224fe,,,,,,,,,422,87,48,1,0,0,response1disk,,6,11,-3,1,0,0,rectangle,11,-3,1,0,0,11,-3,1,0,0,0,115,115,85,1,,,,,,,,
,,,,,,,,,,,,,FF,,,,,,,,1.434,,,,,,,,,,,,,,,,,,,,,,60fdf3211250e26b5354eb2d,61036f2c8038912cbf35a9b8,2021-07-29_22h19.21.285,Simcolourproject_2stim_asymm_v5,2020.2.10,Win32,60,61025ae37ef11b136ea224fe,,,,,,,,,1751,-62,-26,1,0,0,response5disk,,2,-8,-5,1,0,0,rectangle,-8,-5,1,0,0,-8,-5,1,0,0,0,116,116,100,1,,,,,,,,
,,,,,,,,,,,,,FF,,,,,,,,1.1001,,,,,,,,,,,,,,,,,,,,,,60fdf3211250e26b5354eb2d,61036f2c8038912cbf35a9b8,2021-07-29_22h19.21.285,Simcolourproject_2stim_asymm_v5,2020.2.10,Win32,60,61025ae37ef11b136ea224fe,,,,,,,,,2296,-71,-36,1,0,0,response5disk,,2,-6,-2,1,0,0,rectangle,-81,48,1,0,0,7,5,1,0,0,0,117,117,124,1,,response7disk_3,TRUE,1,1,"[297,243,279,208,221,103,257,85,45,102,118,48,191,178,136,180,189,171,48,197]",1.8327,rectangle
,,,,,,,,,,,,,FF,,,,,,,,1.2305,,,,,,,,,,,,,,,,,,,,,,60fdf3211250e26b5354eb2d,61036f2c8038912cbf35a9b8,2021-07-29_22h19.21.285,Simcolourproject_2stim_asymm_v5,2020.2.10,Win32,60,61025ae37ef11b136ea224fe,,,,,,,,,2431,-51,-25,1,0,0,response5disk,,2,-12,-11,1,0,0,rectangle,-12,-11,1,0,0,-12,-11,1,0,0,0,118,118,59,1,,,,,,,,
,,,,,,,,,,,,,FF,,,,,,,,1.5669,,,,,,,,,,,,,,,,,,,,,,60fdf3211250e26b5354eb2d,61036f2c8038912cbf35a9b8,2021-07-29_22h19.21.285,Simcolourproject_2stim_asymm_v5,2020.2.10,Win32,60,61025ae37ef11b136ea224fe,,,,,,,,,1651,80,37,1,0,0,response1disk,,6,12,-11,1,0,0,rectangle,12,-11,1,0,0,12,-11,1,0,0,0,119,119,110,1,,,,,,,,
,,,,,,,,,,,,,FF,,,,,,,,1.2309,,,,,,,,,,,,,,,,,,,,,,60fdf3211250e26b5354eb2d,61036f2c8038912cbf35a9b8,2021-07-29_22h19.21.285,Simcolourproject_2stim_asymm_v5,2020.2.10,Win32,60,61025ae37ef11b136ea224fe,,,,,,,,,382,58,30,1,0,0,response1disk,,6,20,4,1,0,0,rectangle,20,4,1,0,0,20,4,1,0,0,0,120,120,115,1,,,,,,,,
,,,,,,,,,,,,,FF,,,,,,,,1.6832,,,,,,,,,,,,,,,,,,,,,,60fdf3211250e26b5354eb2d,61036f2c8038912cbf35a9b8,2021-07-29_22h19.21.285,Simcolourproject_2stim_asymm_v5,2020.2.10,Win32,60,61025ae37ef11b136ea224fe,,,,,,,,,3908,-80,-27,1,0,0,response5disk,,2,-13,1,1,0,0,rectangle,-13,1,1,0,0,-13,1,1,0,0,0,121,121,91,1,,,,,,,,
,,,,,,,,,,,,,FF,,,,,,,,1.2169,,,,,,,,,,,,,,,,,,,,,,60fdf3211250e26b5354eb2d,61036f2c8038912cbf35a9b8,2021-07-29_22h19.21.285,Simcolourproject_2stim_asymm_v5,2020.2.10,Win32,60,61025ae37ef11b136ea224fe,,,,,,,,,540,37,73,1,0,0,response1disk,,7,2,-4,1,0,0,rectangle,2,-4,1,0,0,2,-4,1,0,0,0,122,122,6,1,,,,,,,,
,,,,,,,,,,,,,FF,,,,,,,,2.4501,,,,,,,,,,,,,,,,,,,,,,60fdf3211250e26b5354eb2d,61036f2c8038912cbf35a9b8,2021-07-29_22h19.21.285,Simcolourproject_2stim_asymm_v5,2020.2.10,Win32,60,61025ae37ef11b136ea224fe,,,,,,,,,97,39,-64,1,0,0,response3disk,,4,10,-1,1,0,0,rectangle,10,-1,1,0,0,10,-1,1,0,0,0,123,123,39,1,,,,,,,,
,,,,,,,,,,,,,FF,,,,,,,,1.484,,,,,,,,,,,,,,,,,,,,,,60fdf3211250e26b5354eb2d,61036f2c8038912cbf35a9b8,2021-07-29_22h19.21.285,Simcolourproject_2stim_asymm_v5,2020.2.10,Win32,60,61025ae37ef11b136ea224fe,,,,,,,,,1502,75,49,1,0,0,response1disk,,6,7,4,1,0,0,rectangle,7,4,1,0,0,7,4,1,0,0,0,124,124,147,1,,,,,,,,
,,,,,,,,,,,,,FF,,,,,,,,1.1672,,,,,,,,,,,,,,,,,,,,,,60fdf3211250e26b5354eb2d,61036f2c8038912cbf35a9b8,2021-07-29_22h19.21.285,Simcolourproject_2stim_asymm_v5,2020.2.10,Win32,60,61025ae37ef11b136ea224fe,,,,,,,,,2306,-59,-28,1,0,0,response5disk,,2,-1,5,1,0,0,rectangle,-1,5,1,0,0,-1,5,1,0,0,0,125,125,121,1,,,,,,,,
,,,,,,,,,,,,,FF,,,,,,,,1.0823,,,,,,,,,,,,,,,,,,,,,,60fdf3211250e26b5354eb2d,61036f2c8038912cbf35a9b8,2021-07-29_22h19.21.285,Simcolourproject_2stim_asymm_v5,2020.2.10,Win32,60,61025ae37ef11b136ea224fe,,,,,,,,,2603,-62,-30,1,0,0,response5disk,,2,-3,-1,1,0,0,rectangle,-3,-1,1,0,0,-3,-1,1,0,0,0,126,126,152,1,,,,,,,,
,,,,,,,,,,,,,FF,,,,,,,,2.1167,,,,,,,,,,,,,,,,,,,,,,60fdf3211250e26b5354eb2d,61036f2c8038912cbf35a9b8,2021-07-29_22h19.21.285,Simcolourproject_2stim_asymm_v5,2020.2.10,Win32,60,61025ae37ef11b136ea224fe,,,,,,,,,320,46,61,1,0,0,response1disk,,7,10,3,1,0,0,rectangle,10,3,1,0,0,10,3,1,0,0,0,127,127,142,1,,,,,,,,
,,,,,,,,,,,,,FF,,,,,,,,1.6497,,,,,,,,,,,,,,,,,,,,,,60fdf3211250e26b5354eb2d,61036f2c8038912cbf35a9b8,2021-07-29_22h19.21.285,Simcolourproject_2stim_asymm_v5,2020.2.10,Win32,60,61025ae37ef11b136ea224fe,,,,,,,,,2827,26,-53,1,0,0,response3disk,,4,2,-1,1,0,0,rectangle,2,-1,1,0,0,2,-1,1,0,0,0,128,128,24,1,,,,,,,,
,,,,,,,,,,,,,FF,,,,,,,,1.7344,,,,,,,,,,,,,,,,,,,,,,60fdf3211250e26b5354eb2d,61036f2c8038912cbf35a9b8,2021-07-29_22h19.21.285,Simcolourproject_2stim_asymm_v5,2020.2.10,Win32,60,61025ae37ef11b136ea224fe,,,,,,,,,1486,42,68,1,0,0,response1disk,,7,8,8,1,0,0,rectangle,8,8,1,0,0,8,8,1,0,0,0,129,129,1,1,,,,,,,,
,,,,,,,,,,,,,FF,,,,,,,,1.4862,,,,,,,,,,,,,,,,,,,,,,60fdf3211250e26b5354eb2d,61036f2c8038912cbf35a9b8,2021-07-29_22h19.21.285,Simcolourproject_2stim_asymm_v5,2020.2.10,Win32,60,61025ae37ef11b136ea224fe,,,,,,,,,4062,42,61,1,0,0,response1disk,,7,18,12,1,0,0,rectangle,18,12,1,0,0,18,12,1,0,0,0,130,130,66,1,,,,,,,,
,,,,,,,,,,,,,FF,,,,,,,,1.2857,,,,,,,,,,,,,,,,,,,,,,60fdf3211250e26b5354eb2d,61036f2c8038912cbf35a9b8,2021-07-29_22h19.21.285,Simcolourproject_2stim_asymm_v5,2020.2.10,Win32,60,61025ae37ef11b136ea224fe,,,,,,,,,1685,-86,-47,1,0,0,response5disk,,2,-6,8,1,0,0,rectangle,-6,8,1,0,0,-6,8,1,0,0,0,131,131,69,1,,,,,,,,
,,,,,,,,,,,,,FF,,,,,,,,2.3652,,,,,,,,,,,,,,,,,,,,,,60fdf3211250e26b5354eb2d,61036f2c8038912cbf35a9b8,2021-07-29_22h19.21.285,Simcolourproject_2stim_asymm_v5,2020.2.10,Win32,60,61025ae37ef11b136ea224fe,,,,,,,,,4068,33,63,1,0,0,response1disk,,7,5,14,1,0,0,rectangle,5,14,1,0,0,5,14,1,0,0,0,132,132,38,1,,,,,,,,
,,,,,,,,,,,,,FF,,,,,,,,1.2495,,,,,,,,,,,,,,,,,,,,,,60fdf3211250e26b5354eb2d,61036f2c8038912cbf35a9b8,2021-07-29_22h19.21.285,Simcolourproject_2stim_asymm_v5,2020.2.10,Win32,60,61025ae37ef11b136ea224fe,,,,,,,,,541,41,78,1,0,0,response1disk,,7,11,1,1,0,0,rectangle,11,1,1,0,0,11,1,1,0,0,0,133,133,16,1,,,,,,,,
,,,,,,,,,,,,,FF,,,,,,,,2.7138,,,,,,,,,,,,,,,,,,,,,,60fdf3211250e26b5354eb2d,61036f2c8038912cbf35a9b8,2021-07-29_22h19.21.285,Simcolourproject_2stim_asymm_v5,2020.2.10,Win32,60,61025ae37ef11b136ea224fe,,,,,,,,,2090,26,-60,1,0,0,response3disk,,4,9,-7,1,0,0,rectangle,9,-7,1,0,0,9,-7,1,0,0,0,134,134,129,1,,,,,,,,
,,,,,,,,,,,,,FF,,,,,,,,1.6338,,,,,,,,,,,,,,,,,,,,,,60fdf3211250e26b5354eb2d,61036f2c8038912cbf35a9b8,2021-07-29_22h19.21.285,Simcolourproject_2stim_asymm_v5,2020.2.10,Win32,60,61025ae37ef11b136ea224fe,,,,,,,,,2384,93,47,1,0,0,response1disk,,6,27,3,1,0,0,rectangle,-41,-81,1,0,0,11,2,1,0,0,0,135,135,57,1,,response5disk_3,TRUE,3,3,"[297,243,279,208,221,103,257,85,45,102,118,48,191,178,136,180,189,171,48,197]",2.483,rectangle
,,,,,,,,,,,,,FF,,,,,,,,1.6145,,,,,,,,,,,,,,,,,,,,,,60fdf3211250e26b5354eb2d,61036f2c8038912cbf35a9b8,2021-07-29_22h19.21.285,Simcolourproject_2stim_asymm_v5,2020.2.10,Win32,60,61025ae37ef11b136ea224fe,,,,,,,,,2323,85,36,1,0,0,response1disk,,6,17,5,1,0,0,rectangle,17,5,1,0,0,17,5,1,0,0,0,136,136,82,1,,,,,,,,
,,,,,,,,,,,,,FF,,,,,,,,1.366,,,,,,,,,,,,,,,,,,,,,,60fdf3211250e26b5354eb2d,61036f2c8038912cbf35a9b8,2021-07-29_22h19.21.285,Simcolourproject_2stim_asymm_v5,2020.2.10,Win32,60,61025ae37ef11b136ea224fe,,,,,,,,,2199,22,60,1,0,0,response1disk,,7,-5,9,1,0,0,rectangle,-5,9,1,0,0,-5,9,1,0,0,0,137,137,143,1,,,,,,,,
,,,,,,,,,,,,,FF,,,,,,,,2,,,,,,,,,,,,,,,,,,,,,,60fdf3211250e26b5354eb2d,61036f2c8038912cbf35a9b8,2021-07-29_22h19.21.285,Simcolourproject_2stim_asymm_v5,2020.2.10,Win32,60,61025ae37ef11b136ea224fe,,,,,,,,,870,42,-72,1,0,0,response3disk,,4,20,-5,1,0,0,rectangle,20,-5,1,0,0,20,-5,1,0,0,0,138,138,70,1,,,,,,,,
,,,,,,,,,,,,,FF,,,,,,,,2.0147,,,,,,,,,,,,,,,,,,,,,,60fdf3211250e26b5354eb2d,61036f2c8038912cbf35a9b8,2021-07-29_22h19.21.285,Simcolourproject_2stim_asymm_v5,2020.2.10,Win32,60,61025ae37ef11b136ea224fe,,,,,,,,,2762,50,63,1,0,0,response1disk,,7,8,7,1,0,0,rectangle,8,7,1,0,0,8,7,1,0,0,0,139,139,125,1,,,,,,,,
,,,,,,,,,,,,,FF,,,,,,,,1.2527,,,,,,,,,,,,,,,,,,,,,,60fdf3211250e26b5354eb2d,61036f2c8038912cbf35a9b8,2021-07-29_22h19.21.285,Simcolourproject_2stim_asymm_v5,2020.2.10,Win32,60,61025ae37ef11b136ea224fe,,,,,,,,,2574,28,52,1,0,0,response1disk,,7,12,2,1,0,0,rectangle,12,2,1,0,0,12,2,1,0,0,0,140,140,50,1,,,,,,,,
,,,,,,,,,,,,,FF,,,,,,,,1.8476,,,,,,,,,,,,,,,,,,,,,,60fdf3211250e26b5354eb2d,61036f2c8038912cbf35a9b8,2021-07-29_22h19.21.285,Simcolourproject_2stim_asymm_v5,2020.2.10,Win32,60,61025ae37ef11b136ea224fe,,,,,,,,,1895,-42,-69,1,0,0,response5disk,,3,-6,-1,1,0,0,rectangle,-6,-1,1,0,0,-6,-1,1,0,0,0,141,141,93,1,,,,,,,,
,,,,,,,,,,,,,FF,,,,,,,,2.1329,,,,,,,,,,,,,,,,,,,,,,60fdf3211250e26b5354eb2d,61036f2c8038912cbf35a9b8,2021-07-29_22h19.21.285,Simcolourproject_2stim_asymm_v5,2020.2.10,Win32,60,61025ae37ef11b136ea224fe,,,,,,,,,2999,-20,-72,1,0,0,response5disk,,3,15,6,1,0,0,rectangle,15,6,1,0,0,15,6,1,0,0,0,142,142,94,1,,,,,,,,
,,,,,,,,,,,,,FF,,,,,,,,1.1331,,,,,,,,,,,,,,,,,,,,,,60fdf3211250e26b5354eb2d,61036f2c8038912cbf35a9b8,2021-07-29_22h19.21.285,Simcolourproject_2stim_asymm_v5,2020.2.10,Win32,60,61025ae37ef11b136ea224fe,,,,,,,,,806,-65,-26,1,0,0,response5disk,,2,-19,-5,1,0,0,rectangle,-19,-5,1,0,0,-19,-5,1,0,0,0,143,143,118,1,,,,,,,,
,,,,,,,,,,,,,FF,,,,,,,,1.1871,,,,,,,,,,,,,,,,,,,,,,60fdf3211250e26b5354eb2d,61036f2c8038912cbf35a9b8,2021-07-29_22h19.21.285,Simcolourproject_2stim_asymm_v5,2020.2.10,Win32,60,61025ae37ef11b136ea224fe,,,,,,,,,2285,36,-71,1,0,0,response3disk,,4,-6,1,1,0,0,rectangle,-6,1,1,0,0,-6,1,1,0,0,0,144,144,116,1,,,,,,,,
,,,,,,,,,,,,,FF,,,,,,,,1.5168,,,,,,,,,,,,,,,,,,,,,,60fdf3211250e26b5354eb2d,61036f2c8038912cbf35a9b8,2021-07-29_22h19.21.285,Simcolourproject_2stim_asymm_v5,2020.2.10,Win32,60,61025ae37ef11b136ea224fe,,,,,,,,,2198,33,59,1,0,0,response1disk,,7,10,7,1,0,0,rectangle,10,7,1,0,0,10,7,1,0,0,0,145,145,63,1,,,,,,,,
,,,,,,,,,,,,,FF,,,,,,,,1.9666,,,,,,,,,,,,,,,,,,,,,,60fdf3211250e26b5354eb2d,61036f2c8038912cbf35a9b8,2021-07-29_22h19.21.285,Simcolourproject_2stim_asymm_v5,2020.2.10,Win32,60,61025ae37ef11b136ea224fe,,,,,,,,,1906,27,-62,1,0,0,response3disk,,4,-1,0,1,0,0,rectangle,-1,0,1,0,0,-1,0,1,0,0,0,146,146,14,1,,,,,,,,
,,,,,,,,,,,,,FF,,,,,,,,1.9837,,,,,,,,,,,,,,,,,,,,,,60fdf3211250e26b5354eb2d,61036f2c8038912cbf35a9b8,2021-07-29_22h19.21.285,Simcolourproject_2stim_asymm_v5,2020.2.10,Win32,60,61025ae37ef11b136ea224fe,,,,,,,,,3422,68,-47,1,0,0,response3disk,,5,4,1,1,0,0,rectangle,4,1,1,0,0,4,1,1,0,0,0,147,147,52,1,,,,,,,,
,,,,,,,,,,,,,FF,,,,,,,,2.0332,,,,,,,,,,,,,,,,,,,,,,60fdf3211250e26b5354eb2d,61036f2c8038912cbf35a9b8,2021-07-29_22h19.21.285,Simcolourproject_2stim_asymm_v5,2020.2.10,Win32,60,61025ae37ef11b136ea224fe,,,,,,,,,2636,25,71,1,0,0,response1disk,,7,11,10,1,0,0,rectangle,11,10,1,0,0,11,10,1,0,0,0,148,148,13,1,,,,,,,,
,,,,,,,,,,,,,FF,,,,,,,,1.2326,,,,,,,,,,,,,,,,,,,,,,60fdf3211250e26b5354eb2d,61036f2c8038912cbf35a9b8,2021-07-29_22h19.21.285,Simcolourproject_2stim_asymm_v5,2020.2.10,Win32,60,61025ae37ef11b136ea224fe,,,,,,,,,2585,43,78,1,0,0,response1disk,,7,16,5,1,0,0,rectangle,16,5,1,0,0,16,5,1,0,0,0,149,149,44,1,,,,,,,,
,,,,,,,,,,,,,FF,,,,,,,,1.1337,,,,,,,,,,,,,,,,,,,,,,60fdf3211250e26b5354eb2d,61036f2c8038912cbf35a9b8,2021-07-29_22h19.21.285,Simcolourproject_2stim_asymm_v5,2020.2.10,Win32,60,61025ae37ef11b136ea224fe,,,,,,,,,1473,28,45,1,0,0,response1disk,,7,25,6,1,0,0,rectangle,25,6,1,0,0,25,6,1,0,0,0,150,150,107,1,,,,,,,,
,,,,,,,,,,,,,FF,,,,,,,,0.9338,,,,,,,,,,,,,,,,,,,,,,60fdf3211250e26b5354eb2d,61036f2c8038912cbf35a9b8,2021-07-29_22h19.21.285,Simcolourproject_2stim_asymm_v5,2020.2.10,Win32,60,61025ae37ef11b136ea224fe,,,,,,,,,868,76,50,1,0,0,response1disk,,6,17,1,1,0,0,rectangle,17,1,1,0,0,17,1,1,0,0,0,151,151,60,1,,,,,,,,
,,,,,,,,,,,,,FF,,,,,,,,1.3169,,,,,,,,,,,,,,,,,,,,,,60fdf3211250e26b5354eb2d,61036f2c8038912cbf35a9b8,2021-07-29_22h19.21.285,Simcolourproject_2stim_asymm_v5,2020.2.10,Win32,60,61025ae37ef11b136ea224fe,,,,,,,,,4180,30,49,1,0,0,response1disk,,7,11,4,1,0,0,rectangle,11,4,1,0,0,11,4,1,0,0,0,152,152,73,1,,,,,,,,
,,,,,,,,,,,,,FF,,,,,,,,1.2167,,,,,,,,,,,,,,,,,,,,,,60fdf3211250e26b5354eb2d,61036f2c8038912cbf35a9b8,2021-07-29_22h19.21.285,Simcolourproject_2stim_asymm_v5,2020.2.10,Win32,60,61025ae37ef11b136ea224fe,,,,,,,,,1627,25,59,1,0,0,response1disk,,7,-1,-5,1,0,0,rectangle,-1,-5,1,0,0,-1,-5,1,0,0,0,153,153,99,1,,,,,,,,
,,,,,,,,,,,,,FF,,,,,,,,1.0839,,,,,,,,,,,,,,,,,,,,,,60fdf3211250e26b5354eb2d,61036f2c8038912cbf35a9b8,2021-07-29_22h19.21.285,Simcolourproject_2stim_asymm_v5,2020.2.10,Win32,60,61025ae37ef11b136ea224fe,,,,,,,,,810,-36,-65,1,0,0,response5disk,,3,3,1,1,0,0,rectangle,3,1,1,0,0,3,1,1,0,0,0,154,154,157,1,,,,,,,,
,,,,,,,,,,,,,FF,,,,,,,,1.0836,,,,,,,,,,,,,,,,,,,,,,60fdf3211250e26b5354eb2d,61036f2c8038912cbf35a9b8,2021-07-29_22h19.21.285,Simcolourproject_2stim_asymm_v5,2020.2.10,Win32,60,61025ae37ef11b136ea224fe,,,,,,,,,3817,-59,-35,1,0,0,response5disk,,2,-2,3,1,0,0,rectangle,-2,3,1,0,0,-2,3,1,0,0,0,155,155,153,1,,,,,,,,
,,,,,,,,,,,,,FF,,,,,,,,1.1169,,,,,,,,,,,,,,,,,,,,,,60fdf3211250e26b5354eb2d,61036f2c8038912cbf35a9b8,2021-07-29_22h19.21.285,Simcolourproject_2stim_asymm_v5,2020.2.10,Win32,60,61025ae37ef11b136ea224fe,,,,,,,,,2980,40,66,1,0,0,response1disk,,7,20,5,1,0,0,rectangle,20,5,1,0,0,20,5,1,0,0,0,156,156,55,1,,,,,,,,
,,,,,,,,,,,,,FF,,,,,,,,1.0676,,,,,,,,,,,,,,,,,,,,,,60fdf3211250e26b5354eb2d,61036f2c8038912cbf35a9b8,2021-07-29_22h19.21.285,Simcolourproject_2stim_asymm_v5,2020.2.10,Win32,60,61025ae37ef11b136ea224fe,,,,,,,,,4214,31,58,1,0,0,response1disk,,7,12,3,1,0,0,rectangle,12,3,1,0,0,12,3,1,0,0,0,157,157,33,1,,,,,,,,
,,,,,,,,,,,,,FF,,,,,,,,1.6667,,,,,,,,,,,,,,,,,,,,,,60fdf3211250e26b5354eb2d,61036f2c8038912cbf35a9b8,2021-07-29_22h19.21.285,Simcolourproject_2stim_asymm_v5,2020.2.10,Win32,60,61025ae37ef11b136ea224fe,,,,,,,,,2727,32,-48,1,0,0,response3disk,,4,13,-4,1,0,0,rectangle,13,-4,1,0,0,13,-4,1,0,0,0,158,158,87,1,,,,,,,,
,,,,,,,,,,,,,FF,,,,,,,,1.8667,,,,,,,,,,,,,,,,,,,,,,60fdf3211250e26b5354eb2d,61036f2c8038912cbf35a9b8,2021-07-29_22h19.21.285,Simcolourproject_2stim_asymm_v5,2020.2.10,Win32,60,61025ae37ef11b136ea224fe,,,,,,,,,2389,61,37,1,0,0,response1disk,,6,13,4,1,0,0,rectangle,13,4,1,0,0,13,4,1,0,0,0,159,159,127,1,,,,,,,,
,,,,,,,,,,,,,FF,,,,,,,,1.8168,,,,,,,,,,,,,,,,,,,,,,60fdf3211250e26b5354eb2d,61036f2c8038912cbf35a9b8,2021-07-29_22h19.21.285,Simcolourproject_2stim_asymm_v5,2020.2.10,Win32,60,61025ae37ef11b136ea224fe,,,,,,,,,940,42,58,1,0,0,response1disk,,7,24,-1,1,0,0,rectangle,24,-1,1,0,0,24,-1,1,0,0,1,0,160,50,1,,,,,,,,
,,,,,,,,,,,,,FF,,,,,,,,1.3001,,,,,,,,,,,,,,,,,,,,,,60fdf3211250e26b5354eb2d,61036f2c8038912cbf35a9b8,2021-07-29_22h19.21.285,Simcolourproject_2stim_asymm_v5,2020.2.10,Win32,60,61025ae37ef11b136ea224fe,,,,,,,,,2122,47,-28,1,0,0,response3disk,,5,15,-4,1,0,0,rectangle,15,-4,1,0,0,15,-4,1,0,0,1,1,161,107,1,,,,,,,,
,,,,,,,,,,,,,FF,,,,,,,,2.2996,,,,,,,,,,,,,,,,,,,,,,60fdf3211250e26b5354eb2d,61036f2c8038912cbf35a9b8,2021-07-29_22h19.21.285,Simcolourproject_2stim_asymm_v5,2020.2.10,Win32,60,61025ae37ef11b136ea224fe,,,,,,,,,19,55,35,1,0,0,response1disk,,6,19,12,1,0,0,rectangle,19,12,1,0,0,19,12,1,0,0,1,2,162,116,1,,,,,,,,
,,,,,,,,,,,,,FF,,,,,,,,1.2837,,,,,,,,,,,,,,,,,,,,,,60fdf3211250e26b5354eb2d,61036f2c8038912cbf35a9b8,2021-07-29_22h19.21.285,Simcolourproject_2stim_asymm_v5,2020.2.10,Win32,60,61025ae37ef11b136ea224fe,,,,,,,,,1533,25,-55,1,0,0,response3disk,,4,6,2,1,0,0,rectangle,6,2,1,0,0,6,2,1,0,0,1,3,163,23,1,,,,,,,,
,,,,,,,,,,,,,FF,,,,,,,,1.3003,,,,,,,,,,,,,,,,,,,,,,60fdf3211250e26b5354eb2d,61036f2c8038912cbf35a9b8,2021-07-29_22h19.21.285,Simcolourproject_2stim_asymm_v5,2020.2.10,Win32,60,61025ae37ef11b136ea224fe,,,,,,,,,4353,31,-33,1,0,0,response3disk,,4,13,12,1,0,0,rectangle,13,12,1,0,0,13,12,1,0,0,1,4,164,64,1,,,,,,,,
,,,,,,,,,,,,,FF,,,,,,,,3.0167,,,,,,,,,,,,,,,,,,,,,,60fdf3211250e26b5354eb2d,61036f2c8038912cbf35a9b8,2021-07-29_22h19.21.285,Simcolourproject_2stim_asymm_v5,2020.2.10,Win32,60,61025ae37ef11b136ea224fe,,,,,,,,,2635,29,56,1,0,0,response1disk,,7,11,3,1,0,0,rectangle,11,3,1,0,0,11,3,1,0,0,1,5,165,99,1,,,,,,,,
,,,,,,,,,,,,,FF,,,,,,,,1.1832,,,,,,,,,,,,,,,,,,,,,,60fdf3211250e26b5354eb2d,61036f2c8038912cbf35a9b8,2021-07-29_22h19.21.285,Simcolourproject_2stim_asymm_v5,2020.2.10,Win32,60,61025ae37ef11b136ea224fe,,,,,,,,,88,65,34,1,0,0,response1disk,,6,19,4,1,0,0,rectangle,19,4,1,0,0,19,4,1,0,0,1,6,166,31,1,,,,,,,,
,,,,,,,,,,,,,FF,,,,,,,,1.1334,,,,,,,,,,,,,,,,,,,,,,60fdf3211250e26b5354eb2d,61036f2c8038912cbf35a9b8,2021-07-29_22h19.21.285,Simcolourproject_2stim_asymm_v5,2020.2.10,Win32,60,61025ae37ef11b136ea224fe,,,,,,,,,3451,30,58,1,0,0,response1disk,,7,-3,0,1,0,0,rectangle,-3,0,1,0,0,-3,0,1,0,0,1,7,167,92,1,,,,,,,,
,,,,,,,,,,,,,FF,,,,,,,,1.3665,,,,,,,,,,,,,,,,,,,,,,60fdf3211250e26b5354eb2d,61036f2c8038912cbf35a9b8,2021-07-29_22h19.21.285,Simcolourproject_2stim_asymm_v5,2020.2.10,Win32,60,61025ae37ef11b136ea224fe,,,,,,,,,1924,68,-24,1,0,0,response3disk,,5,1,3,1,0,0,rectangle,1,3,1,0,0,1,3,1,0,0,1,8,168,153,1,,,,,,,,
,,,,,,,,,,,,,FF,,,,,,,,1.1835,,,,,,,,,,,,,,,,,,,,,,60fdf3211250e26b5354eb2d,61036f2c8038912cbf35a9b8,2021-07-29_22h19.21.285,Simcolourproject_2stim_asymm_v5,2020.2.10,Win32,60,61025ae37ef11b136ea224fe,,,,,,,,,3516,-27,-48,1,0,0,response5disk,,3,-2,2,1,0,0,rectangle,-2,2,1,0,0,-2,2,1,0,0,1,9,169,101,1,,,,,,,,
,,,,,,,,,,,,,FF,,,,,,,,1.1665,,,,,,,,,,,,,,,,,,,,,,60fdf3211250e26b5354eb2d,61036f2c8038912cbf35a9b8,2021-07-29_22h19.21.285,Simcolourproject_2stim_asymm_v5,2020.2.10,Win32,60,61025ae37ef11b136ea224fe,,,,,,,,,2365,37,-51,1,0,0,response3disk,,4,15,-3,1,0,0,rectangle,32,-78,1,0,0,1,-3,1,0,0,1,10,170,46,1,,response3disk_3,TRUE,4,4,"[297,243,279,208,221,103,257,85,45,102,118,48,191,178,136,180,189,171,48,197]",2.516,rectangle
,,,,,,,,,,,,,FF,,,,,,,,1.3832,,,,,,,,,,,,,,,,,,,,,,60fdf3211250e26b5354eb2d,61036f2c8038912cbf35a9b8,2021-07-29_22h19.21.285,Simcolourproject_2stim_asymm_v5,2020.2.10,Win32,60,61025ae37ef11b136ea224fe,,,,,,,,,2156,56,31,1,0,0,response1disk,,6,15,2,1,0,0,rectangle,15,2,1,0,0,15,2,1,0,0,1,11,171,63,1,,,,,,,,
,,,,,,,,,,,,,FF,,,,,,,,1.0334,,,,,,,,,,,,,,,,,,,,,,60fdf3211250e26b5354eb2d,61036f2c8038912cbf35a9b8,2021-07-29_22h19.21.285,Simcolourproject_2stim_asymm_v5,2020.2.10,Win32,60,61025ae37ef11b136ea224fe,,,,,,,,,1170,48,-29,1,0,0,response3disk,,5,14,-4,1,0,0,rectangle,14,-4,1,0,0,14,-4,1,0,0,1,12,172,12,1,,,,,,,,
,,,,,,,,,,,,,FF,,,,,,,,1.2334,,,,,,,,,,,,,,,,,,,,,,60fdf3211250e26b5354eb2d,61036f2c8038912cbf35a9b8,2021-07-29_22h19.21.285,Simcolourproject_2stim_asymm_v5,2020.2.10,Win32,60,61025ae37ef11b136ea224fe,,,,,,,,,1323,60,44,1,0,0,response1disk,,6,14,-2,1,0,0,rectangle,14,-2,1,0,0,14,-2,1,0,0,1,13,173,138,1,,,,,,,,
,,,,,,,,,,,,,FF,,,,,,,,1.1668,,,,,,,,,,,,,,,,,,,,,,60fdf3211250e26b5354eb2d,61036f2c8038912cbf35a9b8,2021-07-29_22h19.21.285,Simcolourproject_2stim_asymm_v5,2020.2.10,Win32,60,61025ae37ef11b136ea224fe,,,,,,,,,338,29,-56,1,0,0,response3disk,,4,16,-7,1,0,0,rectangle,16,-7,1,0,0,16,-7,1,0,0,1,14,174,2,1,,,,,,,,
,,,,,,,,,,,,,FF,,,,,,,,1.2495,,,,,,,,,,,,,,,,,,,,,,60fdf3211250e26b5354eb2d,61036f2c8038912cbf35a9b8,2021-07-29_22h19.21.285,Simcolourproject_2stim_asymm_v5,2020.2.10,Win32,60,61025ae37ef11b136ea224fe,,,,,,,,,2120,71,31,1,0,0,response1disk,,6,9,-1,1,0,0,rectangle,9,-1,1,0,0,9,-1,1,0,0,1,15,175,36,1,,,,,,,,
,,,,,,,,,,,,,FF,,,,,,,,1.6833,,,,,,,,,,,,,,,,,,,,,,60fdf3211250e26b5354eb2d,61036f2c8038912cbf35a9b8,2021-07-29_22h19.21.285,Simcolourproject_2stim_asymm_v5,2020.2.10,Win32,60,61025ae37ef11b136ea224fe,,,,,,,,,1152,28,-52,1,0,0,response3disk,,4,6,-9,1,0,0,rectangle,6,-9,1,0,0,6,-9,1,0,0,1,16,176,9,1,,,,,,,,
,,,,,,,,,,,,,FF,,,,,,,,1.8501,,,,,,,,,,,,,,,,,,,,,,60fdf3211250e26b5354eb2d,61036f2c8038912cbf35a9b8,2021-07-29_22h19.21.285,Simcolourproject_2stim_asymm_v5,2020.2.10,Win32,60,61025ae37ef11b136ea224fe,,,,,,,,,666,58,-21,1,0,0,response3disk,,5,14,2,1,0,0,rectangle,39,-80,1,0,0,13,1,1,0,0,1,17,177,158,1,,response3disk_3,TRUE,4,4,"[297,243,279,208,221,103,257,85,45,102,118,48,191,178,136,180,189,171,48,197]",1.8668,rectangle
,,,,,,,,,,,,,FF,,,,,,,,1.8498,,,,,,,,,,,,,,,,,,,,,,60fdf3211250e26b5354eb2d,61036f2c8038912cbf35a9b8,2021-07-29_22h19.21.285,Simcolourproject_2stim_asymm_v5,2020.2.10,Win32,60,61025ae37ef11b136ea224fe,,,,,,,,,3209,34,46,1,0,0,response1disk,,7,21,6,1,0,0,rectangle,21,6,1,0,0,21,6,1,0,0,1,18,178,157,1,,,,,,,,
,,,,,,,,,,,,,FF,,,,,,,,1.5002,,,,,,,,,,,,,,,,,,,,,,60fdf3211250e26b5354eb2d,61036f2c8038912cbf35a9b8,2021-07-29_22h19.21.285,Simcolourproject_2stim_asymm_v5,2020.2.10,Win32,60,61025ae37ef11b136ea224fe,,,,,,,,,449,61,-32,1,0,0,response3disk,,5,14,-1,1,0,0,rectangle,-51,62,1,0,0,2,2,1,0,0,1,19,179,34,1,,response7disk_3,TRUE,0,0,"[297,243,279,208,221,103,257,85,45,102,118,48,191,178,136,180,189,171,48,197]",3.0167,rectangle
,,,,,,,,,,,,,FF,,,,,,,,2.5003,,,,,,,,,,,,,,,,,,,,,,60fdf3211250e26b5354eb2d,61036f2c8038912cbf35a9b8,2021-07-29_22h19.21.285,Simcolourproject_2stim_asymm_v5,2020.2.10,Win32,60,61025ae37ef11b136ea224fe,,,,,,,,,3260,69,33,1,0,0,response1disk,,6,18,5,1,0,0,rectangle,18,5,1,0,0,18,5,1,0,0,1,20,180,155,1,,,,,,,,
,,,,,,,,,,,,,FF,,,,,,,,1.1833,,,,,,,,,,,,,,,,,,,,,,60fdf3211250e26b5354eb2d,61036f2c8038912cbf35a9b8,2021-07-29_22h19.21.285,Simcolourproject_2stim_asymm_v5,2020.2.10,Win32,60,61025ae37ef11b136ea224fe,,,,,,,,,2344,22,63,1,0,0,response1disk,,7,5,-1,1,0,0,rectangle,5,-1,1,0,0,5,-1,1,0,0,1,21,181,113,1,,,,,,,,
,,,,,,,,,,,,,FF,,,,,,,,2.1999,,,,,,,,,,,,,,,,,,,,,,60fdf3211250e26b5354eb2d,61036f2c8038912cbf35a9b8,2021-07-29_22h19.21.285,Simcolourproject_2stim_asymm_v5,2020.2.10,Win32,60,61025ae37ef11b136ea224fe,,,,,,,,,675,78,36,1,0,0,response1disk,,6,15,2,1,0,0,rectangle,15,2,1,0,0,15,2,1,0,0,1,22,182,117,1,,,,,,,,
,,,,,,,,,,,,,FF,,,,,,,,1.15,,,,,,,,,,,,,,,,,,,,,,60fdf3211250e26b5354eb2d,61036f2c8038912cbf35a9b8,2021-07-29_22h19.21.285,Simcolourproject_2stim_asymm_v5,2020.2.10,Win32,60,61025ae37ef11b136ea224fe,,,,,,,,,1090,44,78,1,0,0,response1disk,,7,13,6,1,0,0,rectangle,13,6,1,0,0,13,6,1,0,0,1,23,183,142,1,,,,,,,,
,,,,,,,,,,,,,FF,,,,,,,,1.2335,,,,,,,,,,,,,,,,,,,,,,60fdf3211250e26b5354eb2d,61036f2c8038912cbf35a9b8,2021-07-29_22h19.21.285,Simcolourproject_2stim_asymm_v5,2020.2.10,Win32,60,61025ae37ef11b136ea224fe,,,,,,,,,1626,53,34,1,0,0,response1disk,,6,14,5,1,0,0,rectangle,14,5,1,0,0,14,5,1,0,0,1,24,184,61,1,,,,,,,,
,,,,,,,,,,,,,FF,,,,,,,,1.7168,,,,,,,,,,,,,,,,,,,,,,60fdf3211250e26b5354eb2d,61036f2c8038912cbf35a9b8,2021-07-29_22h19.21.285,Simcolourproject_2stim_asymm_v5,2020.2.10,Win32,60,61025ae37ef11b136ea224fe,,,,,,,,,4163,-28,-65,1,0,0,response5disk,,3,9,6,1,0,0,rectangle,9,6,1,0,0,9,6,1,0,0,1,25,185,120,1,,,,,,,,
,,,,,,,,,,,,,FF,,,,,,,,1.1836,,,,,,,,,,,,,,,,,,,,,,60fdf3211250e26b5354eb2d,61036f2c8038912cbf35a9b8,2021-07-29_22h19.21.285,Simcolourproject_2stim_asymm_v5,2020.2.10,Win32,60,61025ae37ef11b136ea224fe,,,,,,,,,2153,77,43,1,0,0,response1disk,,6,5,-8,1,0,0,rectangle,5,-8,1,0,0,5,-8,1,0,0,1,26,186,152,1,,,,,,,,
,,,,,,,,,,,,,FF,,,,,,,,1.3335,,,,,,,,,,,,,,,,,,,,,,60fdf3211250e26b5354eb2d,61036f2c8038912cbf35a9b8,2021-07-29_22h19.21.285,Simcolourproject_2stim_asymm_v5,2020.2.10,Win32,60,61025ae37ef11b136ea224fe,,,,,,,,,1337,63,-34,1,0,0,response3disk,,5,11,1,1,0,0,rectangle,11,1,1,0,0,11,1,1,0,0,1,27,187,90,1,,,,,,,,
,,,,,,,,,,,,,FF,,,,,,,,1.2502,,,,,,,,,,,,,,,,,,,,,,60fdf3211250e26b5354eb2d,61036f2c8038912cbf35a9b8,2021-07-29_22h19.21.285,Simcolourproject_2stim_asymm_v5,2020.2.10,Win32,60,61025ae37ef11b136ea224fe,,,,,,,,,2093,-31,60,1,0,0,response7disk,,0,-4,-8,1,0,0,rectangle,-79,46,1,0,0,-4,-2,1,0,0,1,28,188,96,1,,response7disk_3,TRUE,1,1,"[297,243,279,208,221,103,257,85,45,102,118,48,191,178,136,180,189,171,48,197]",1.9995,rectangle
,,,,,,,,,,,,,FF,,,,,,,,1.5836,,,,,,,,,,,,,,,,,,,,,,60fdf3211250e26b5354eb2d,61036f2c8038912cbf35a9b8,2021-07-29_22h19.21.285,Simcolourproject_2stim_asymm_v5,2020.2.10,Win32,60,61025ae37ef11b136ea224fe,,,,,,,,,3342,-30,-64,1,0,0,response5disk,,3,11,0,1,0,0,rectangle,11,0,1,0,0,11,0,1,0,0,1,29,189,91,1,,,,,,,,
,,,,,,,,,,,,,FF,,,,,,,,2.6168,,,,,,,,,,,,,,,,,,,,,,60fdf3211250e26b5354eb2d,61036f2c8038912cbf35a9b8,2021-07-29_22h19.21.285,Simcolourproject_2stim_asymm_v5,2020.2.10,Win32,60,61025ae37ef11b136ea224fe,,,,,,,,,1941,84,-33,1,0,0,response3disk,,5,22,8,1,0,0,rectangle,-36,64,1,0,0,-7,-3,1,0,0,1,30,190,81,1,,response7disk_3,TRUE,0,0,"[297,243,279,208,221,103,257,85,45,102,118,48,191,178,136,180,189,171,48,197]",1.8828,rectangle
,,,,,,,,,,,,,FF,,,,,,,,2.8834,,,,,,,,,,,,,,,,,,,,,,60fdf3211250e26b5354eb2d,61036f2c8038912cbf35a9b8,2021-07-29_22h19.21.285,Simcolourproject_2stim_asymm_v5,2020.2.10,Win32,60,61025ae37ef11b136ea224fe,,,,,,,,,3346,42,-99,1,0,0,response3disk,,4,-5,4,1,0,0,rectangle,-5,4,1,0,0,-5,4,1,0,0,1,31,191,102,1,,,,,,,,
,,,,,,,,,,,,,FF,,,,,,,,1.3003,,,,,,,,,,,,,,,,,,,,,,60fdf3211250e26b5354eb2d,61036f2c8038912cbf35a9b8,2021-07-29_22h19.21.285,Simcolourproject_2stim_asymm_v5,2020.2.10,Win32,60,61025ae37ef11b136ea224fe,,,,,,,,,370,41,-63,1,0,0,response3disk,,4,15,8,1,0,0,rectangle,15,8,1,0,0,15,8,1,0,0,1,32,192,21,1,,,,,,,,
,,,,,,,,,,,,,FF,,,,,,,,1.0332,,,,,,,,,,,,,,,,,,,,,,60fdf3211250e26b5354eb2d,61036f2c8038912cbf35a9b8,2021-07-29_22h19.21.285,Simcolourproject_2stim_asymm_v5,2020.2.10,Win32,60,61025ae37ef11b136ea224fe,,,,,,,,,3677,-31,-54,1,0,0,response5disk,,3,10,3,1,0,0,rectangle,10,3,1,0,0,10,3,1,0,0,1,33,193,159,1,,,,,,,,
,,,,,,,,,,,,,FF,,,,,,,,1.1002,,,,,,,,,,,,,,,,,,,,,,60fdf3211250e26b5354eb2d,61036f2c8038912cbf35a9b8,2021-07-29_22h19.21.285,Simcolourproject_2stim_asymm_v5,2020.2.10,Win32,60,61025ae37ef11b136ea224fe,,,,,,,,,1454,-76,-33,1,0,0,response5disk,,2,-11,0,1,0,0,rectangle,-11,0,1,0,0,-11,0,1,0,0,1,34,194,122,1,,,,,,,,
,,,,,,,,,,,,,FF,,,,,,,,1.4502,,,,,,,,,,,,,,,,,,,,,,60fdf3211250e26b5354eb2d,61036f2c8038912cbf35a9b8,2021-07-29_22h19.21.285,Simcolourproject_2stim_asymm_v5,2020.2.10,Win32,60,61025ae37ef11b136ea224fe,,,,,,,,,4141,-35,-60,1,0,0,response5disk,,3,4,-1,1,0,0,rectangle,4,-1,1,0,0,4,-1,1,0,0,1,35,195,17,1,,,,,,,,
,,,,,,,,,,,,,FF,,,,,,,,1.4497,,,,,,,,,,,,,,,,,,,,,,60fdf3211250e26b5354eb2d,61036f2c8038912cbf35a9b8,2021-07-29_22h19.21.285,Simcolourproject_2stim_asymm_v5,2020.2.10,Win32,60,61025ae37ef11b136ea224fe,,,,,,,,,1882,71,-26,1,0,0,response3disk,,5,3,5,1,0,0,rectangle,-55,81,1,0,0,5,5,1,0,0,1,36,196,77,1,,response7disk_3,TRUE,0,0,"[297,243,279,208,221,103,257,85,45,102,118,48,191,178,136,180,189,171,48,197]",2.0337,rectangle
,,,,,,,,,,,,,FF,,,,,,,,2.0501,,,,,,,,,,,,,,,,,,,,,,60fdf3211250e26b5354eb2d,61036f2c8038912cbf35a9b8,2021-07-29_22h19.21.285,Simcolourproject_2stim_asymm_v5,2020.2.10,Win32,60,61025ae37ef11b136ea224fe,,,,,,,,,3876,67,-52,1,0,0,response3disk,,5,11,11,1,0,0,rectangle,11,11,1,0,0,11,11,1,0,0,1,37,197,123,1,,,,,,,,
,,,,,,,,,,,,,FF,,,,,,,,2.0333,,,,,,,,,,,,,,,,,,,,,,60fdf3211250e26b5354eb2d,61036f2c8038912cbf35a9b8,2021-07-29_22h19.21.285,Simcolourproject_2stim_asymm_v5,2020.2.10,Win32,60,61025ae37ef11b136ea224fe,,,,,,,,,3806,70,33,1,0,0,response1disk,,6,18,5,1,0,0,rectangle,18,5,1,0,0,18,5,1,0,0,1,38,198,19,1,,,,,,,,
,,,,,,,,,,,,,FF,,,,,,,,1.3335,,,,,,,,,,,,,,,,,,,,,,60fdf3211250e26b5354eb2d,61036f2c8038912cbf35a9b8,2021-07-29_22h19.21.285,Simcolourproject_2stim_asymm_v5,2020.2.10,Win32,60,61025ae37ef11b136ea224fe,,,,,,,,,2123,32,55,1,0,0,response1disk,,7,12,10,1,0,0,rectangle,12,10,1,0,0,12,10,1,0,0,1,39,199,30,1,,,,,,,,
,,,,,,,,,,,,,FF,,,,,,,,1.5168,,,,,,,,,,,,,,,,,,,,,,60fdf3211250e26b5354eb2d,61036f2c8038912cbf35a9b8,2021-07-29_22h19.21.285,Simcolourproject_2stim_asymm_v5,2020.2.10,Win32,60,61025ae37ef11b136ea224fe,,,,,,,,,843,69,-30,1,0,0,response3disk,,5,26,-5,1,0,0,rectangle,26,-5,1,0,0,26,-5,1,0,0,1,40,200,44,1,,,,,,,,
,,,,,,,,,,,,,FF,,,,,,,,1.7003,,,,,,,,,,,,,,,,,,,,,,60fdf3211250e26b5354eb2d,61036f2c8038912cbf35a9b8,2021-07-29_22h19.21.285,Simcolourproject_2stim_asymm_v5,2020.2.10,Win32,60,61025ae37ef11b136ea224fe,,,,,,,,,3988,67,-34,1,0,0,response3disk,,5,10,6,1,0,0,rectangle,10,6,1,0,0,10,6,1,0,0,1,41,201,79,1,,,,,,,,
,,,,,,,,,,,,,FF,,,,,,,,1.5337,,,,,,,,,,,,,,,,,,,,,,60fdf3211250e26b5354eb2d,61036f2c8038912cbf35a9b8,2021-07-29_22h19.21.285,Simcolourproject_2stim_asymm_v5,2020.2.10,Win32,60,61025ae37ef11b136ea224fe,,,,,,,,,1399,76,52,1,0,0,response1disk,,6,2,-12,1,0,0,rectangle,2,-12,1,0,0,2,-12,1,0,0,1,42,202,148,1,,,,,,,,
,,,,,,,,,,,,,FF,,,,,,,,1.2169,,,,,,,,,,,,,,,,,,,,,,60fdf3211250e26b5354eb2d,61036f2c8038912cbf35a9b8,2021-07-29_22h19.21.285,Simcolourproject_2stim_asymm_v5,2020.2.10,Win32,60,61025ae37ef11b136ea224fe,,,,,,,,,123,72,36,1,0,0,response1disk,,6,13,0,1,0,0,rectangle,13,0,1,0,0,13,0,1,0,0,1,43,203,137,1,,,,,,,,
,,,,,,,,,,,,,FF,,,,,,,,1.1002,,,,,,,,,,,,,,,,,,,,,,60fdf3211250e26b5354eb2d,61036f2c8038912cbf35a9b8,2021-07-29_22h19.21.285,Simcolourproject_2stim_asymm_v5,2020.2.10,Win32,60,61025ae37ef11b136ea224fe,,,,,,,,,2933,36,-57,1,0,0,response3disk,,4,14,-2,1,0,0,rectangle,14,-2,1,0,0,14,-2,1,0,0,1,44,204,28,1,,,,,,,,
,,,,,,,,,,,,,FF,,,,,,,,1.8502,,,,,,,,,,,,,,,,,,,,,,60fdf3211250e26b5354eb2d,61036f2c8038912cbf35a9b8,2021-07-29_22h19.21.285,Simcolourproject_2stim_asymm_v5,2020.2.10,Win32,60,61025ae37ef11b136ea224fe,,,,,,,,,1867,64,39,1,0,0,response1disk,,6,8,7,1,0,0,rectangle,8,7,1,0,0,8,7,1,0,0,1,45,205,109,1,,,,,,,,
,,,,,,,,,,,,,FF,,,,,,,,1.2505,,,,,,,,,,,,,,,,,,,,,,60fdf3211250e26b5354eb2d,61036f2c8038912cbf35a9b8,2021-07-29_22h19.21.285,Simcolourproject_2stim_asymm_v5,2020.2.10,Win32,60,61025ae37ef11b136ea224fe,,,,,,,,,2165,28,-72,1,0,0,response3disk,,4,9,0,1,0,0,rectangle,9,0,1,0,0,9,0,1,0,0,1,46,206,3,1,,,,,,,,
,,,,,,,,,,,,,FF,,,,,,,,1.0163,,,,,,,,,,,,,,,,,,,,,,60fdf3211250e26b5354eb2d,61036f2c8038912cbf35a9b8,2021-07-29_22h19.21.285,Simcolourproject_2stim_asymm_v5,2020.2.10,Win32,60,61025ae37ef11b136ea224fe,,,,,,,,,3943,-26,-54,1,0,0,response5disk,,3,2,3,1,0,0,rectangle,19,63,1,0,0,11,1,1,0,0,1,47,207,126,1,,response1disk_3,TRUE,7,7,"[297,243,279,208,221,103,257,85,45,102,118,48,191,178,136,180,189,171,48,197]",2.4162,rectangle
,,,,,,,,,,,,,FF,,,,,,,,1.3997,,,,,,,,,,,,,,,,,,,,,,60fdf3211250e26b5354eb2d,61036f2c8038912cbf35a9b8,2021-07-29_22h19.21.285,Simcolourproject_2stim_asymm_v5,2020.2.10,Win32,60,61025ae37ef11b136ea224fe,,,,,,,,,548,40,-75,1,0,0,response3disk,,4,24,-2,1,0,0,rectangle,24,-2,1,0,0,24,-2,1,0,0,1,48,208,33,1,,,,,,,,
,,,,,,,,,,,,,FF,,,,,,,,1.5168,,,,,,,,,,,,,,,,,,,,,,60fdf3211250e26b5354eb2d,61036f2c8038912cbf35a9b8,2021-07-29_22h19.21.285,Simcolourproject_2stim_asymm_v5,2020.2.10,Win32,60,61025ae37ef11b136ea224fe,,,,,,,,,2911,70,33,1,0,0,response1disk,,6,2,-4,1,0,0,rectangle,2,-4,1,0,0,2,-4,1,0,0,1,49,209,27,1,,,,,,,,
,,,,,,,,,,,,,FF,,,,,,,,1.4336,,,,,,,,,,,,,,,,,,,,,,60fdf3211250e26b5354eb2d,61036f2c8038912cbf35a9b8,2021-07-29_22h19.21.285,Simcolourproject_2stim_asymm_v5,2020.2.10,Win32,60,61025ae37ef11b136ea224fe,,,,,,,,,1393,41,-63,1,0,0,response3disk,,4,5,12,1,0,0,rectangle,5,12,1,0,0,5,12,1,0,0,1,50,210,53,1,,,,,,,,
,,,,,,,,,,,,,FF,,,,,,,,1.7001,,,,,,,,,,,,,,,,,,,,,,60fdf3211250e26b5354eb2d,61036f2c8038912cbf35a9b8,2021-07-29_22h19.21.285,Simcolourproject_2stim_asymm_v5,2020.2.10,Win32,60,61025ae37ef11b136ea224fe,,,,,,,,,1695,86,37,1,0,0,response1disk,,6,21,6,1,0,0,rectangle,21,6,1,0,0,21,6,1,0,0,1,51,211,51,1,,,,,,,,
,,,,,,,,,,,,,FF,,,,,,,,1.1535,,,,,,,,,,,,,,,,,,,,,,60fdf3211250e26b5354eb2d,61036f2c8038912cbf35a9b8,2021-07-29_22h19.21.285,Simcolourproject_2stim_asymm_v5,2020.2.10,Win32,60,61025ae37ef11b136ea224fe,,,,,,,,,3800,22,48,1,0,0,response1disk,,7,14,7,1,0,0,rectangle,14,7,1,0,0,14,7,1,0,0,1,52,212,8,1,,,,,,,,
,,,,,,,,,,,,,FF,,,,,,,,1.5836,,,,,,,,,,,,,,,,,,,,,,60fdf3211250e26b5354eb2d,61036f2c8038912cbf35a9b8,2021-07-29_22h19.21.285,Simcolourproject_2stim_asymm_v5,2020.2.10,Win32,60,61025ae37ef11b136ea224fe,,,,,,,,,1464,73,-43,1,0,0,response3disk,,5,21,-1,1,0,0,rectangle,21,-1,1,0,0,21,-1,1,0,0,1,53,213,37,1,,,,,,,,
,,,,,,,,,,,,,FF,,,,,,,,1.0155,,,,,,,,,,,,,,,,,,,,,,60fdf3211250e26b5354eb2d,61036f2c8038912cbf35a9b8,2021-07-29_22h19.21.285,Simcolourproject_2stim_asymm_v5,2020.2.10,Win32,60,61025ae37ef11b136ea224fe,,,,,,,,,24,64,41,1,0,0,response1disk,,6,19,8,1,0,0,rectangle,19,8,1,0,0,19,8,1,0,0,1,54,214,100,1,,,,,,,,
,,,,,,,,,,,,,FF,,,,,,,,1.9668,,,,,,,,,,,,,,,,,,,,,,60fdf3211250e26b5354eb2d,61036f2c8038912cbf35a9b8,2021-07-29_22h19.21.285,Simcolourproject_2stim_asymm_v5,2020.2.10,Win32,60,61025ae37ef11b136ea224fe,,,,,,,,,2193,76,-40,1,0,0,response3disk,,5,17,-1,1,0,0,rectangle,17,-1,1,0,0,17,-1,1,0,0,1,55,215,7,1,,,,,,,,
,,,,,,,,,,,,,FF,,,,,,,,1.4336,,,,,,,,,,,,,,,,,,,,,,60fdf3211250e26b5354eb2d,61036f2c8038912cbf35a9b8,2021-07-29_22h19.21.285,Simcolourproject_2stim_asymm_v5,2020.2.10,Win32,60,61025ae37ef11b136ea224fe,,,,,,,,,4196,59,-33,1,0,0,response3disk,,5,16,6,1,0,0,rectangle,16,6,1,0,0,16,6,1,0,0,1,56,216,1,1,,,,,,,,
,,,,,,,,,,,,,FF,,,,,,,,1.1496,,,,,,,,,,,,,,,,,,,,,,60fdf3211250e26b5354eb2d,61036f2c8038912cbf35a9b8,2021-07-29_22h19.21.285,Simcolourproject_2stim_asymm_v5,2020.2.10,Win32,60,61025ae37ef11b136ea224fe,,,,,,,,,3776,-34,79,1,0,0,response7disk,,0,13,0,1,0,0,rectangle,13,0,1,0,0,13,0,1,0,0,1,57,217,143,1,,,,,,,,
,,,,,,,,,,,,,FF,,,,,,,,2.2,,,,,,,,,,,,,,,,,,,,,,60fdf3211250e26b5354eb2d,61036f2c8038912cbf35a9b8,2021-07-29_22h19.21.285,Simcolourproject_2stim_asymm_v5,2020.2.10,Win32,60,61025ae37ef11b136ea224fe,,,,,,,,,2434,75,27,1,0,0,response1disk,,6,10,-4,1,0,0,rectangle,10,-4,1,0,0,10,-4,1,0,0,1,58,218,115,1,,,,,,,,
,,,,,,,,,,,,,FF,,,,,,,,1.2166,,,,,,,,,,,,,,,,,,,,,,60fdf3211250e26b5354eb2d,61036f2c8038912cbf35a9b8,2021-07-29_22h19.21.285,Simcolourproject_2stim_asymm_v5,2020.2.10,Win32,60,61025ae37ef11b136ea224fe,,,,,,,,,1188,26,-58,1,0,0,response3disk,,4,4,8,1,0,0,rectangle,4,8,1,0,0,4,8,1,0,0,1,59,219,108,1,,,,,,,,
,,,,,,,,,,,,,FF,,,,,,,,1.1169,,,,,,,,,,,,,,,,,,,,,,60fdf3211250e26b5354eb2d,61036f2c8038912cbf35a9b8,2021-07-29_22h19.21.285,Simcolourproject_2stim_asymm_v5,2020.2.10,Win32,60,61025ae37ef11b136ea224fe,,,,,,,,,1228,-37,-57,1,0,0,response5disk,,3,8,6,1,0,0,rectangle,37,79,1,0,0,13,-2,1,0,0,1,60,220,72,1,,response1disk_3,TRUE,7,7,"[297,243,279,208,221,103,257,85,45,102,118,48,191,178,136,180,189,171,48,197]",2.2325,rectangle
,,,,,,,,,,,,,FF,,,,,,,,1.5666,,,,,,,,,,,,,,,,,,,,,,60fdf3211250e26b5354eb2d,61036f2c8038912cbf35a9b8,2021-07-29_22h19.21.285,Simcolourproject_2stim_asymm_v5,2020.2.10,Win32,60,61025ae37ef11b136ea224fe,,,,,,,,,1528,30,-51,1,0,0,response3disk,,4,16,-4,1,0,0,rectangle,16,-4,1,0,0,16,-4,1,0,0,1,61,221,146,1,,,,,,,,
,,,,,,,,,,,,,FF,,,,,,,,1.1336,,,,,,,,,,,,,,,,,,,,,,60fdf3211250e26b5354eb2d,61036f2c8038912cbf35a9b8,2021-07-29_22h19.21.285,Simcolourproject_2stim_asymm_v5,2020.2.10,Win32,60,61025ae37ef11b136ea224fe,,,,,,,,,1398,71,-27,1,0,0,response3disk,,5,11,0,1,0,0,rectangle,11,0,1,0,0,11,0,1,0,0,1,62,222,110,1,,,,,,,,
,,,,,,,,,,,,,FF,,,,,,,,1.9,,,,,,,,,,,,,,,,,,,,,,60fdf3211250e26b5354eb2d,61036f2c8038912cbf35a9b8,2021-07-29_22h19.21.285,Simcolourproject_2stim_asymm_v5,2020.2.10,Win32,60,61025ae37ef11b136ea224fe,,,,,,,,,1042,69,-41,1,0,0,response3disk,,5,20,-3,1,0,0,rectangle,20,-3,1,0,0,20,-3,1,0,0,1,63,223,132,1,,,,,,,,
,,,,,,,,,,,,,FF,,,,,,,,0.9335,,,,,,,,,,,,,,,,,,,,,,60fdf3211250e26b5354eb2d,61036f2c8038912cbf35a9b8,2021-07-29_22h19.21.285,Simcolourproject_2stim_asymm_v5,2020.2.10,Win32,60,61025ae37ef11b136ea224fe,,,,,,,,,3751,35,-65,1,0,0,response3disk,,4,14,11,1,0,0,rectangle,14,11,1,0,0,14,11,1,0,0,1,64,224,22,1,,,,,,,,
,,,,,,,,,,,,,FF,,,,,,,,2.2685,,,,,,,,,,,,,,,,,,,,,,60fdf3211250e26b5354eb2d,61036f2c8038912cbf35a9b8,2021-07-29_22h19.21.285,Simcolourproject_2stim_asymm_v5,2020.2.10,Win32,60,61025ae37ef11b136ea224fe,,,,,,,,,3644,63,-50,1,0,0,response3disk,,5,17,-5,1,0,0,rectangle,17,-5,1,0,0,17,-5,1,0,0,1,65,225,69,1,,,,,,,,
,,,,,,,,,,,,,FF,,,,,,,,2.4501,,,,,,,,,,,,,,,,,,,,,,60fdf3211250e26b5354eb2d,61036f2c8038912cbf35a9b8,2021-07-29_22h19.21.285,Simcolourproject_2stim_asymm_v5,2020.2.10,Win32,60,61025ae37ef11b136ea224fe,,,,,,,,,4094,55,37,1,0,0,response1disk,,6,10,3,1,0,0,rectangle,10,3,1,0,0,10,3,1,0,0,1,66,226,13,1,,,,,,,,
,,,,,,,,,,,,,FF,,,,,,,,2.3334,,,,,,,,,,,,,,,,,,,,,,60fdf3211250e26b5354eb2d,61036f2c8038912cbf35a9b8,2021-07-29_22h19.21.285,Simcolourproject_2stim_asymm_v5,2020.2.10,Win32,60,61025ae37ef11b136ea224fe,,,,,,,,,1872,30,52,1,0,0,response1disk,,7,4,9,1,0,0,rectangle,4,9,1,0,0,4,9,1,0,0,1,67,227,147,1,,,,,,,,
,,,,,,,,,,,,,FF,,,,,,,,1.5999,,,,,,,,,,,,,,,,,,,,,,60fdf3211250e26b5354eb2d,61036f2c8038912cbf35a9b8,2021-07-29_22h19.21.285,Simcolourproject_2stim_asymm_v5,2020.2.10,Win32,60,61025ae37ef11b136ea224fe,,,,,,,,,3847,49,-67,1,0,0,response3disk,,4,5,15,1,0,0,rectangle,5,15,1,0,0,5,15,1,0,0,1,68,228,56,1,,,,,,,,
,,,,,,,,,,,,,FF,,,,,,,,1.0006,,,,,,,,,,,,,,,,,,,,,,60fdf3211250e26b5354eb2d,61036f2c8038912cbf35a9b8,2021-07-29_22h19.21.285,Simcolourproject_2stim_asymm_v5,2020.2.10,Win32,60,61025ae37ef11b136ea224fe,,,,,,,,,1527,41,-65,1,0,0,response3disk,,4,16,2,1,0,0,rectangle,16,2,1,0,0,16,2,1,0,0,1,69,229,88,1,,,,,,,,
,,,,,,,,,,,,,FF,,,,,,,,1.9501,,,,,,,,,,,,,,,,,,,,,,60fdf3211250e26b5354eb2d,61036f2c8038912cbf35a9b8,2021-07-29_22h19.21.285,Simcolourproject_2stim_asymm_v5,2020.2.10,Win32,60,61025ae37ef11b136ea224fe,,,,,,,,,494,34,57,1,0,0,response1disk,,7,7,-8,1,0,0,rectangle,7,-8,1,0,0,7,-8,1,0,0,1,70,230,156,1,,,,,,,,
,,,,,,,,,,,,,FF,,,,,,,,1.2501,,,,,,,,,,,,,,,,,,,,,,60fdf3211250e26b5354eb2d,61036f2c8038912cbf35a9b8,2021-07-29_22h19.21.285,Simcolourproject_2stim_asymm_v5,2020.2.10,Win32,60,61025ae37ef11b136ea224fe,,,,,,,,,3481,65,-24,1,0,0,response3disk,,5,6,-4,1,0,0,rectangle,6,-4,1,0,0,6,-4,1,0,0,1,71,231,114,1,,,,,,,,
,,,,,,,,,,,,,FF,,,,,,,,1.5999,,,,,,,,,,,,,,,,,,,,,,60fdf3211250e26b5354eb2d,61036f2c8038912cbf35a9b8,2021-07-29_22h19.21.285,Simcolourproject_2stim_asymm_v5,2020.2.10,Win32,60,61025ae37ef11b136ea224fe,,,,,,,,,1023,46,30,1,0,0,response1disk,,6,15,-4,1,0,0,rectangle,15,-4,1,0,0,15,-4,1,0,0,1,72,232,136,1,,,,,,,,
,,,,,,,,,,,,,FF,,,,,,,,1.6673,,,,,,,,,,,,,,,,,,,,,,60fdf3211250e26b5354eb2d,61036f2c8038912cbf35a9b8,2021-07-29_22h19.21.285,Simcolourproject_2stim_asymm_v5,2020.2.10,Win32,60,61025ae37ef11b136ea224fe,,,,,,,,,591,28,38,1,0,0,response1disk,,7,22,4,1,0,0,rectangle,22,4,1,0,0,22,4,1,0,0,1,73,233,47,1,,,,,,,,
,,,,,,,,,,,,,FF,,,,,,,,1.0331,,,,,,,,,,,,,,,,,,,,,,60fdf3211250e26b5354eb2d,61036f2c8038912cbf35a9b8,2021-07-29_22h19.21.285,Simcolourproject_2stim_asymm_v5,2020.2.10,Win32,60,61025ae37ef11b136ea224fe,,,,,,,,,1975,35,-45,1,0,0,response3disk,,4,15,-3,1,0,0,rectangle,15,-3,1,0,0,15,-3,1,0,0,1,74,234,4,1,,,,,,,,
,,,,,,,,,,,,,FF,,,,,,,,1.6499,,,,,,,,,,,,,,,,,,,,,,60fdf3211250e26b5354eb2d,61036f2c8038912cbf35a9b8,2021-07-29_22h19.21.285,Simcolourproject_2stim_asymm_v5,2020.2.10,Win32,60,61025ae37ef11b136ea224fe,,,,,,,,,661,63,29,1,0,0,response1disk,,6,22,8,1,0,0,rectangle,22,8,1,0,0,22,8,1,0,0,1,75,235,104,1,,,,,,,,
,,,,,,,,,,,,,FF,,,,,,,,1.0502,,,,,,,,,,,,,,,,,,,,,,60fdf3211250e26b5354eb2d,61036f2c8038912cbf35a9b8,2021-07-29_22h19.21.285,Simcolourproject_2stim_asymm_v5,2020.2.10,Win32,60,61025ae37ef11b136ea224fe,,,,,,,,,1816,22,-53,1,0,0,response3disk,,4,-4,12,1,0,0,rectangle,-4,12,1,0,0,-4,12,1,0,0,1,76,236,43,1,,,,,,,,
,,,,,,,,,,,,,FF,,,,,,,,2.1004,,,,,,,,,,,,,,,,,,,,,,60fdf3211250e26b5354eb2d,61036f2c8038912cbf35a9b8,2021-07-29_22h19.21.285,Simcolourproject_2stim_asymm_v5,2020.2.10,Win32,60,61025ae37ef11b136ea224fe,,,,,,,,,1844,68,57,1,0,0,response1disk,,6,12,12,1,0,0,rectangle,12,12,1,0,0,12,12,1,0,0,1,77,237,14,1,,,,,,,,
,,,,,,,,,,,,,FF,,,,,,,,1.6169,,,,,,,,,,,,,,,,,,,,,,60fdf3211250e26b5354eb2d,61036f2c8038912cbf35a9b8,2021-07-29_22h19.21.285,Simcolourproject_2stim_asymm_v5,2020.2.10,Win32,60,61025ae37ef11b136ea224fe,,,,,,,,,2499,29,56,1,0,0,response1disk,,7,15,7,1,0,0,rectangle,15,7,1,0,0,15,7,1,0,0,1,78,238,20,1,,,,,,,,
,,,,,,,,,,,,,FF,,,,,,,,1,,,,,,,,,,,,,,,,,,,,,,60fdf3211250e26b5354eb2d,61036f2c8038912cbf35a9b8,2021-07-29_22h19.21.285,Simcolourproject_2stim_asymm_v5,2020.2.10,Win32,60,61025ae37ef11b136ea224fe,,,,,,,,,3721,27,44,1,0,0,response1disk,,7,17,7,1,0,0,rectangle,17,7,1,0,0,17,7,1,0,0,1,79,239,38,1,,,,,,,,
,,,,,,,,,,,,,FF,,,,,,,,1.1667,,,,,,,,,,,,,,,,,,,,,,60fdf3211250e26b5354eb2d,61036f2c8038912cbf35a9b8,2021-07-29_22h19.21.285,Simcolourproject_2stim_asymm_v5,2020.2.10,Win32,60,61025ae37ef11b136ea224fe,,,,,,,,,4148,40,-51,1,0,0,response3disk,,4,14,2,1,0,0,rectangle,14,2,1,0,0,14,2,1,0,0,1,80,240,52,1,,,,,,,,
,,,,,,,,,,,,,FF,,,,,,,,1.0334,,,,,,,,,,,,,,,,,,,,,,60fdf3211250e26b5354eb2d,61036f2c8038912cbf35a9b8,2021-07-29_22h19.21.285,Simcolourproject_2stim_asymm_v5,2020.2.10,Win32,60,61025ae37ef11b136ea224fe,,,,,,,,,1912,70,-31,1,0,0,response3disk,,5,6,-9,1,0,0,rectangle,6,-9,1,0,0,6,-9,1,0,0,1,81,241,141,1,,,,,,,,
,,,,,,,,,,,,,FF,,,,,,,,1.7661,,,,,,,,,,,,,,,,,,,,,,60fdf3211250e26b5354eb2d,61036f2c8038912cbf35a9b8,2021-07-29_22h19.21.285,Simcolourproject_2stim_asymm_v5,2020.2.10,Win32,60,61025ae37ef11b136ea224fe,,,,,,,,,2435,48,34,1,0,0,response1disk,,6,2,-4,1,0,0,rectangle,-64,-28,1,0,0,12,3,1,0,0,1,82,242,11,1,,response5disk_3,TRUE,2,2,"[297,243,279,208,221,103,257,85,45,102,118,48,191,178,136,180,189,171,48,197]",2.5994,rectangle
,,,,,,,,,,,,,FF,,,,,,,,2.2666,,,,,,,,,,,,,,,,,,,,,,60fdf3211250e26b5354eb2d,61036f2c8038912cbf35a9b8,2021-07-29_22h19.21.285,Simcolourproject_2stim_asymm_v5,2020.2.10,Win32,60,61025ae37ef11b136ea224fe,,,,,,,,,1590,58,-52,1,0,0,response3disk,,5,6,1,1,0,0,rectangle,6,1,1,0,0,6,1,1,0,0,1,83,243,26,1,,,,,,,,
,,,,,,,,,,,,,FF,,,,,,,,0.9667,,,,,,,,,,,,,,,,,,,,,,60fdf3211250e26b5354eb2d,61036f2c8038912cbf35a9b8,2021-07-29_22h19.21.285,Simcolourproject_2stim_asymm_v5,2020.2.10,Win32,60,61025ae37ef11b136ea224fe,,,,,,,,,3504,-26,-48,1,0,0,response5disk,,3,2,2,1,0,0,rectangle,2,2,1,0,0,2,2,1,0,0,1,84,244,65,1,,,,,,,,
,,,,,,,,,,,,,FF,,,,,,,,1.5002,,,,,,,,,,,,,,,,,,,,,,60fdf3211250e26b5354eb2d,61036f2c8038912cbf35a9b8,2021-07-29_22h19.21.285,Simcolourproject_2stim_asymm_v5,2020.2.10,Win32,60,61025ae37ef11b136ea224fe,,,,,,,,,3307,27,56,1,0,0,response1disk,,7,1,3,1,0,0,rectangle,1,3,1,0,0,1,3,1,0,0,1,85,245,124,1,,,,,,,,
,,,,,,,,,,,,,FF,,,,,,,,1.0998,,,,,,,,,,,,,,,,,,,,,,60fdf3211250e26b5354eb2d,61036f2c8038912cbf35a9b8,2021-07-29_22h19.21.285,Simcolourproject_2stim_asymm_v5,2020.2.10,Win32,60,61025ae37ef11b136ea224fe,,,,,,,,,2043,25,-51,1,0,0,response3disk,,4,2,-8,1,0,0,rectangle,2,-8,1,0,0,2,-8,1,0,0,1,86,246,130,1,,,,,,,,
,,,,,,,,,,,,,FF,,,,,,,,1.5666,,,,,,,,,,,,,,,,,,,,,,60fdf3211250e26b5354eb2d,61036f2c8038912cbf35a9b8,2021-07-29_22h19.21.285,Simcolourproject_2stim_asymm_v5,2020.2.10,Win32,60,61025ae37ef11b136ea224fe,,,,,,,,,1946,60,50,1,0,0,response1disk,,6,0,-1,1,0,0,rectangle,0,-1,1,0,0,0,-1,1,0,0,1,87,247,87,1,,,,,,,,
,,,,,,,,,,,,,FF,,,,,,,,1.1503,,,,,,,,,,,,,,,,,,,,,,60fdf3211250e26b5354eb2d,61036f2c8038912cbf35a9b8,2021-07-29_22h19.21.285,Simcolourproject_2stim_asymm_v5,2020.2.10,Win32,60,61025ae37ef11b136ea224fe,,,,,,,,,4285,41,59,1,0,0,response1disk,,7,17,9,1,0,0,rectangle,17,9,1,0,0,17,9,1,0,0,1,88,248,5,1,,,,,,,,
,,,,,,,,,,,,,FF,,,,,,,,1.1671,,,,,,,,,,,,,,,,,,,,,,60fdf3211250e26b5354eb2d,61036f2c8038912cbf35a9b8,2021-07-29_22h19.21.285,Simcolourproject_2stim_asymm_v5,2020.2.10,Win32,60,61025ae37ef11b136ea224fe,,,,,,,,,3765,61,29,1,0,0,response1disk,,6,22,-2,1,0,0,rectangle,22,-2,1,0,0,22,-2,1,0,0,1,89,249,45,1,,,,,,,,
,,,,,,,,,,,,,FF,,,,,,,,1.0333,,,,,,,,,,,,,,,,,,,,,,60fdf3211250e26b5354eb2d,61036f2c8038912cbf35a9b8,2021-07-29_22h19.21.285,Simcolourproject_2stim_asymm_v5,2020.2.10,Win32,60,61025ae37ef11b136ea224fe,,,,,,,,,2848,51,-28,1,0,0,response3disk,,5,19,-2,1,0,0,rectangle,19,-2,1,0,0,19,-2,1,0,0,1,90,250,82,1,,,,,,,,
,,,,,,,,,,,,,FF,,,,,,,,1.4165,,,,,,,,,,,,,,,,,,,,,,60fdf3211250e26b5354eb2d,61036f2c8038912cbf35a9b8,2021-07-29_22h19.21.285,Simcolourproject_2stim_asymm_v5,2020.2.10,Win32,60,61025ae37ef11b136ea224fe,,,,,,,,,1030,32,48,1,0,0,response1disk,,7,17,5,1,0,0,rectangle,17,5,1,0,0,17,5,1,0,0,1,91,251,32,1,,,,,,,,
,,,,,,,,,,,,,FF,,,,,,,,1.8496,,,,,,,,,,,,,,,,,,,,,,60fdf3211250e26b5354eb2d,61036f2c8038912cbf35a9b8,2021-07-29_22h19.21.285,Simcolourproject_2stim_asymm_v5,2020.2.10,Win32,60,61025ae37ef11b136ea224fe,,,,,,,,,1150,45,-56,1,0,0,response3disk,,4,24,0,1,0,0,rectangle,24,0,1,0,0,24,0,1,0,0,1,92,252,140,1,,,,,,,,
,,,,,,,,,,,,,FF,,,,,,,,1.5334,,,,,,,,,,,,,,,,,,,,,,60fdf3211250e26b5354eb2d,61036f2c8038912cbf35a9b8,2021-07-29_22h19.21.285,Simcolourproject_2stim_asymm_v5,2020.2.10,Win32,60,61025ae37ef11b136ea224fe,,,,,,,,,2842,66,44,1,0,0,response1disk,,6,27,14,1,0,0,rectangle,27,14,1,0,0,27,14,1,0,0,1,93,253,106,1,,,,,,,,
,,,,,,,,,,,,,FF,,,,,,,,1.1003,,,,,,,,,,,,,,,,,,,,,,60fdf3211250e26b5354eb2d,61036f2c8038912cbf35a9b8,2021-07-29_22h19.21.285,Simcolourproject_2stim_asymm_v5,2020.2.10,Win32,60,61025ae37ef11b136ea224fe,,,,,,,,,837,65,36,1,0,0,response1disk,,6,29,12,1,0,0,rectangle,29,12,1,0,0,29,12,1,0,0,1,94,254,93,1,,,,,,,,
,,,,,,,,,,,,,FF,,,,,,,,1.5838,,,,,,,,,,,,,,,,,,,,,,60fdf3211250e26b5354eb2d,61036f2c8038912cbf35a9b8,2021-07-29_22h19.21.285,Simcolourproject_2stim_asymm_v5,2020.2.10,Win32,60,61025ae37ef11b136ea224fe,,,,,,,,,3722,61,-32,1,0,0,response3disk,,5,10,3,1,0,0,rectangle,10,3,1,0,0,10,3,1,0,0,1,95,255,151,1,,,,,,,,
,,,,,,,,,,,,,FF,,,,,,,,1.3501,,,,,,,,,,,,,,,,,,,,,,60fdf3211250e26b5354eb2d,61036f2c8038912cbf35a9b8,2021-07-29_22h19.21.285,Simcolourproject_2stim_asymm_v5,2020.2.10,Win32,60,61025ae37ef11b136ea224fe,,,,,,,,,2114,34,53,1,0,0,response1disk,,7,1,-2,1,0,0,rectangle,-34,73,1,0,0,4,-2,1,0,0,1,96,256,129,1,,response7disk_3,TRUE,0,0,"[297,243,279,208,221,103,257,85,45,102,118,48,191,178,136,180,189,171,48,197]",1.9165,rectangle
,,,,,,,,,,,,,FF,,,,,,,,1.3334,,,,,,,,,,,,,,,,,,,,,,60fdf3211250e26b5354eb2d,61036f2c8038912cbf35a9b8,2021-07-29_22h19.21.285,Simcolourproject_2stim_asymm_v5,2020.2.10,Win32,60,61025ae37ef11b136ea224fe,,,,,,,,,1649,54,-32,1,0,0,response3disk,,5,-9,0,1,0,0,rectangle,-9,0,1,0,0,-9,0,1,0,0,1,97,257,48,1,,,,,,,,
,,,,,,,,,,,,,FF,,,,,,,,1.7669,,,,,,,,,,,,,,,,,,,,,,60fdf3211250e26b5354eb2d,61036f2c8038912cbf35a9b8,2021-07-29_22h19.21.285,Simcolourproject_2stim_asymm_v5,2020.2.10,Win32,60,61025ae37ef11b136ea224fe,,,,,,,,,2813,58,32,1,0,0,response1disk,,6,5,7,1,0,0,rectangle,5,7,1,0,0,5,7,1,0,0,1,98,258,131,1,,,,,,,,
,,,,,,,,,,,,,FF,,,,,,,,2.9834,,,,,,,,,,,,,,,,,,,,,,60fdf3211250e26b5354eb2d,61036f2c8038912cbf35a9b8,2021-07-29_22h19.21.285,Simcolourproject_2stim_asymm_v5,2020.2.10,Win32,60,61025ae37ef11b136ea224fe,,,,,,,,,2602,33,-87,1,0,0,response3disk,,4,-5,-1,1,0,0,rectangle,-5,-1,1,0,0,-5,-1,1,0,0,1,99,259,55,1,,,,,,,,
,,,,,,,,,,,,,FF,,,,,,,,1.2494,,,,,,,,,,,,,,,,,,,,,,60fdf3211250e26b5354eb2d,61036f2c8038912cbf35a9b8,2021-07-29_22h19.21.285,Simcolourproject_2stim_asymm_v5,2020.2.10,Win32,60,61025ae37ef11b136ea224fe,,,,,,,,,1799,69,-38,1,0,0,response3disk,,5,12,-10,1,0,0,rectangle,12,-10,1,0,0,12,-10,1,0,0,1,100,260,103,1,,,,,,,,
,,,,,,,,,,,,,FF,,,,,,,,1.1164,,,,,,,,,,,,,,,,,,,,,,60fdf3211250e26b5354eb2d,61036f2c8038912cbf35a9b8,2021-07-29_22h19.21.285,Simcolourproject_2stim_asymm_v5,2020.2.10,Win32,60,61025ae37ef11b136ea224fe,,,,,,,,,3945,28,-68,1,0,0,response3disk,,4,-2,-1,1,0,0,rectangle,-2,-1,1,0,0,-2,-1,1,0,0,1,101,261,68,1,,,,,,,,
,,,,,,,,,,,,,FF,,,,,,,,1.4004,,,,,,,,,,,,,,,,,,,,,,60fdf3211250e26b5354eb2d,61036f2c8038912cbf35a9b8,2021-07-29_22h19.21.285,Simcolourproject_2stim_asymm_v5,2020.2.10,Win32,60,61025ae37ef11b136ea224fe,,,,,,,,,3388,-47,31,1,0,0,response7disk,,1,-15,8,1,0,0,rectangle,-15,8,1,0,0,-15,8,1,0,0,1,102,262,139,1,,,,,,,,
,,,,,,,,,,,,,FF,,,,,,,,1.1334,,,,,,,,,,,,,,,,,,,,,,60fdf3211250e26b5354eb2d,61036f2c8038912cbf35a9b8,2021-07-29_22h19.21.285,Simcolourproject_2stim_asymm_v5,2020.2.10,Win32,60,61025ae37ef11b136ea224fe,,,,,,,,,1500,57,35,1,0,0,response1disk,,6,6,1,1,0,0,rectangle,6,1,1,0,0,6,1,1,0,0,1,103,263,54,1,,,,,,,,
,,,,,,,,,,,,,FF,,,,,,,,1.6335,,,,,,,,,,,,,,,,,,,,,,60fdf3211250e26b5354eb2d,61036f2c8038912cbf35a9b8,2021-07-29_22h19.21.285,Simcolourproject_2stim_asymm_v5,2020.2.10,Win32,60,61025ae37ef11b136ea224fe,,,,,,,,,3197,-56,-30,1,0,0,response5disk,,2,0,-3,1,0,0,rectangle,0,-3,1,0,0,0,-3,1,0,0,1,104,264,83,1,,,,,,,,
,,,,,,,,,,,,,FF,,,,,,,,1.2669,,,,,,,,,,,,,,,,,,,,,,60fdf3211250e26b5354eb2d,61036f2c8038912cbf35a9b8,2021-07-29_22h19.21.285,Simcolourproject_2stim_asymm_v5,2020.2.10,Win32,60,61025ae37ef11b136ea224fe,,,,,,,,,3283,-31,-59,1,0,0,response5disk,,3,9,1,1,0,0,rectangle,9,1,1,0,0,9,1,1,0,0,1,105,265,95,1,,,,,,,,
,,,,,,,,,,,,,FF,,,,,,,,1.1331,,,,,,,,,,,,,,,,,,,,,,60fdf3211250e26b5354eb2d,61036f2c8038912cbf35a9b8,2021-07-29_22h19.21.285,Simcolourproject_2stim_asymm_v5,2020.2.10,Win32,60,61025ae37ef11b136ea224fe,,,,,,,,,1910,61,38,1,0,0,response1disk,,6,6,-8,1,0,0,rectangle,6,-8,1,0,0,6,-8,1,0,0,1,106,266,74,1,,,,,,,,
,,,,,,,,,,,,,FF,,,,,,,,1.2005,,,,,,,,,,,,,,,,,,,,,,60fdf3211250e26b5354eb2d,61036f2c8038912cbf35a9b8,2021-07-29_22h19.21.285,Simcolourproject_2stim_asymm_v5,2020.2.10,Win32,60,61025ae37ef11b136ea224fe,,,,,,,,,3643,66,-27,1,0,0,response3disk,,5,14,2,1,0,0,rectangle,14,2,1,0,0,14,2,1,0,0,1,107,267,70,1,,,,,,,,
,,,,,,,,,,,,,FF,,,,,,,,0.9836,,,,,,,,,,,,,,,,,,,,,,60fdf3211250e26b5354eb2d,61036f2c8038912cbf35a9b8,2021-07-29_22h19.21.285,Simcolourproject_2stim_asymm_v5,2020.2.10,Win32,60,61025ae37ef11b136ea224fe,,,,,,,,,2439,34,55,1,0,0,response1disk,,7,15,5,1,0,0,rectangle,15,5,1,0,0,15,5,1,0,0,1,108,268,67,1,,,,,,,,
,,,,,,,,,,,,,FF,,,,,,,,1.1669,,,,,,,,,,,,,,,,,,,,,,60fdf3211250e26b5354eb2d,61036f2c8038912cbf35a9b8,2021-07-29_22h19.21.285,Simcolourproject_2stim_asymm_v5,2020.2.10,Win32,60,61025ae37ef11b136ea224fe,,,,,,,,,3784,73,-29,1,0,0,response3disk,,5,8,-1,1,0,0,rectangle,8,-1,1,0,0,8,-1,1,0,0,1,109,269,89,1,,,,,,,,
,,,,,,,,,,,,,FF,,,,,,,,2.1333,,,,,,,,,,,,,,,,,,,,,,60fdf3211250e26b5354eb2d,61036f2c8038912cbf35a9b8,2021-07-29_22h19.21.285,Simcolourproject_2stim_asymm_v5,2020.2.10,Win32,60,61025ae37ef11b136ea224fe,,,,,,,,,2750,72,42,1,0,0,response1disk,,6,20,3,1,0,0,rectangle,20,3,1,0,0,20,3,1,0,0,1,110,270,59,1,,,,,,,,
,,,,,,,,,,,,,FF,,,,,,,,1.2165,,,,,,,,,,,,,,,,,,,,,,60fdf3211250e26b5354eb2d,61036f2c8038912cbf35a9b8,2021-07-29_22h19.21.285,Simcolourproject_2stim_asymm_v5,2020.2.10,Win32,60,61025ae37ef11b136ea224fe,,,,,,,,,2769,46,-57,1,0,0,response3disk,,4,9,7,1,0,0,rectangle,9,7,1,0,0,9,7,1,0,0,1,111,271,127,1,,,,,,,,
,,,,,,,,,,,,,FF,,,,,,,,0.9503,,,,,,,,,,,,,,,,,,,,,,60fdf3211250e26b5354eb2d,61036f2c8038912cbf35a9b8,2021-07-29_22h19.21.285,Simcolourproject_2stim_asymm_v5,2020.2.10,Win32,60,61025ae37ef11b136ea224fe,,,,,,,,,198,64,44,1,0,0,response1disk,,6,9,-5,1,0,0,rectangle,9,-5,1,0,0,9,-5,1,0,0,1,112,272,76,1,,,,,,,,
,,,,,,,,,,,,,FF,,,,,,,,1.05,,,,,,,,,,,,,,,,,,,,,,60fdf3211250e26b5354eb2d,61036f2c8038912cbf35a9b8,2021-07-29_22h19.21.285,Simcolourproject_2stim_asymm_v5,2020.2.10,Win32,60,61025ae37ef11b136ea224fe,,,,,,,,,3493,34,66,1,0,0,response1disk,,7,17,0,1,0,0,rectangle,17,0,1,0,0,17,0,1,0,0,1,113,273,29,1,,,,,,,,
,,,,,,,,,,,,,FF,,,,,,,,1.8169,,,,,,,,,,,,,,,,,,,,,,60fdf3211250e26b5354eb2d,61036f2c8038912cbf35a9b8,2021-07-29_22h19.21.285,Simcolourproject_2stim_asymm_v5,2020.2.10,Win32,60,61025ae37ef11b136ea224fe,,,,,,,,,3211,46,-58,1,0,0,response3disk,,4,14,-5,1,0,0,rectangle,14,-5,1,0,0,14,-5,1,0,0,1,114,274,118,1,,,,,,,,
,,,,,,,,,,,,,FF,,,,,,,,0.9164,,,,,,,,,,,,,,,,,,,,,,60fdf3211250e26b5354eb2d,61036f2c8038912cbf35a9b8,2021-07-29_22h19.21.285,Simcolourproject_2stim_asymm_v5,2020.2.10,Win32,60,61025ae37ef11b136ea224fe,,,,,,,,,422,60,50,1,0,0,response1disk,,6,6,6,1,0,0,rectangle,6,6,1,0,0,6,6,1,0,0,1,115,275,125,1,,,,,,,,
,,,,,,,,,,,,,FF,,,,,,,,1.0504,,,,,,,,,,,,,,,,,,,,,,60fdf3211250e26b5354eb2d,61036f2c8038912cbf35a9b8,2021-07-29_22h19.21.285,Simcolourproject_2stim_asymm_v5,2020.2.10,Win32,60,61025ae37ef11b136ea224fe,,,,,,,,,1751,-26,-50,1,0,0,response5disk,,3,-7,-5,1,0,0,rectangle,-7,-5,1,0,0,-7,-5,1,0,0,1,116,276,15,1,,,,,,,,
,,,,,,,,,,,,,FF,,,,,,,,1.95,,,,,,,,,,,,,,,,,,,,,,60fdf3211250e26b5354eb2d,61036f2c8038912cbf35a9b8,2021-07-29_22h19.21.285,Simcolourproject_2stim_asymm_v5,2020.2.10,Win32,60,61025ae37ef11b136ea224fe,,,,,,,,,2296,34,-53,1,0,0,response3disk,,4,13,7,1,0,0,rectangle,13,7,1,0,0,13,7,1,0,0,1,117,277,80,1,,,,,,,,
,,,,,,,,,,,,,FF,,,,,,,,1.8326,,,,,,,,,,,,,,,,,,,,,,60fdf3211250e26b5354eb2d,61036f2c8038912cbf35a9b8,2021-07-29_22h19.21.285,Simcolourproject_2stim_asymm_v5,2020.2.10,Win32,60,61025ae37ef11b136ea224fe,,,,,,,,,2431,93,-23,1,0,0,response3disk,,5,-15,12,1,0,0,rectangle,46,-58,1,0,0,20,6,1,0,0,1,118,278,94,1,,response3disk_3,TRUE,4,4,"[297,243,279,208,221,103,257,85,45,102,118,48,191,178,136,180,189,171,48,197]",1.933,rectangle
,,,,,,,,,,,,,FF,,,,,,,,1.15,,,,,,,,,,,,,,,,,,,,,,60fdf3211250e26b5354eb2d,61036f2c8038912cbf35a9b8,2021-07-29_22h19.21.285,Simcolourproject_2stim_asymm_v5,2020.2.10,Win32,60,61025ae37ef11b136ea224fe,,,,,,,,,1651,57,35,1,0,0,response1disk,,6,5,5,1,0,0,rectangle,5,5,1,0,0,5,5,1,0,0,1,119,279,10,1,,,,,,,,
,,,,,,,,,,,,,FF,,,,,,,,1.4003,,,,,,,,,,,,,,,,,,,,,,60fdf3211250e26b5354eb2d,61036f2c8038912cbf35a9b8,2021-07-29_22h19.21.285,Simcolourproject_2stim_asymm_v5,2020.2.10,Win32,60,61025ae37ef11b136ea224fe,,,,,,,,,382,73,39,1,0,0,response1disk,,6,18,7,1,0,0,rectangle,18,7,1,0,0,18,7,1,0,0,1,120,280,111,1,,,,,,,,
,,,,,,,,,,,,,FF,,,,,,,,2.5,,,,,,,,,,,,,,,,,,,,,,60fdf3211250e26b5354eb2d,61036f2c8038912cbf35a9b8,2021-07-29_22h19.21.285,Simcolourproject_2stim_asymm_v5,2020.2.10,Win32,60,61025ae37ef11b136ea224fe,,,,,,,,,3908,-28,-76,1,0,0,response5disk,,3,7,-4,1,0,0,rectangle,7,-4,1,0,0,7,-4,1,0,0,1,121,281,41,1,,,,,,,,
,,,,,,,,,,,,,FF,,,,,,,,1.2,,,,,,,,,,,,,,,,,,,,,,60fdf3211250e26b5354eb2d,61036f2c8038912cbf35a9b8,2021-07-29_22h19.21.285,Simcolourproject_2stim_asymm_v5,2020.2.10,Win32,60,61025ae37ef11b136ea224fe,,,,,,,,,540,39,61,1,0,0,response1disk,,7,19,4,1,0,0,rectangle,19,4,1,0,0,19,4,1,0,0,1,122,282,73,1,,,,,,,,
,,,,,,,,,,,,,FF,,,,,,,,1.6667,,,,,,,,,,,,,,,,,,,,,,60fdf3211250e26b5354eb2d,61036f2c8038912cbf35a9b8,2021-07-29_22h19.21.285,Simcolourproject_2stim_asymm_v5,2020.2.10,Win32,60,61025ae37ef11b136ea224fe,,,,,,,,,97,22,-56,1,0,0,response3disk,,4,3,11,1,0,0,rectangle,3,11,1,0,0,3,11,1,0,0,1,123,283,84,1,,,,,,,,
,,,,,,,,,,,,,FF,,,,,,,,1.55,,,,,,,,,,,,,,,,,,,,,,60fdf3211250e26b5354eb2d,61036f2c8038912cbf35a9b8,2021-07-29_22h19.21.285,Simcolourproject_2stim_asymm_v5,2020.2.10,Win32,60,61025ae37ef11b136ea224fe,,,,,,,,,1502,72,40,1,0,0,response1disk,,6,19,2,1,0,0,rectangle,19,2,1,0,0,19,2,1,0,0,1,124,284,60,1,,,,,,,,
,,,,,,,,,,,,,FF,,,,,,,,1.6833,,,,,,,,,,,,,,,,,,,,,,60fdf3211250e26b5354eb2d,61036f2c8038912cbf35a9b8,2021-07-29_22h19.21.285,Simcolourproject_2stim_asymm_v5,2020.2.10,Win32,60,61025ae37ef11b136ea224fe,,,,,,,,,2306,-26,-60,1,0,0,response5disk,,3,1,-1,1,0,0,rectangle,1,-1,1,0,0,1,-1,1,0,0,1,125,285,133,1,,,,,,,,
,,,,,,,,,,,,,FF,,,,,,,,1.3501,,,,,,,,,,,,,,,,,,,,,,60fdf3211250e26b5354eb2d,61036f2c8038912cbf35a9b8,2021-07-29_22h19.21.285,Simcolourproject_2stim_asymm_v5,2020.2.10,Win32,60,61025ae37ef11b136ea224fe,,,,,,,,,2603,37,-62,1,0,0,response3disk,,4,9,-4,1,0,0,rectangle,9,-4,1,0,0,9,-4,1,0,0,1,126,286,42,1,,,,,,,,
,,,,,,,,,,,,,FF,,,,,,,,2.3002,,,,,,,,,,,,,,,,,,,,,,60fdf3211250e26b5354eb2d,61036f2c8038912cbf35a9b8,2021-07-29_22h19.21.285,Simcolourproject_2stim_asymm_v5,2020.2.10,Win32,60,61025ae37ef11b136ea224fe,,,,,,,,,320,45,72,1,0,0,response1disk,,7,25,8,1,0,0,rectangle,25,8,1,0,0,25,8,1,0,0,1,127,287,85,1,,,,,,,,
,,,,,,,,,,,,,FF,,,,,,,,2.6669,,,,,,,,,,,,,,,,,,,,,,60fdf3211250e26b5354eb2d,61036f2c8038912cbf35a9b8,2021-07-29_22h19.21.285,Simcolourproject_2stim_asymm_v5,2020.2.10,Win32,60,61025ae37ef11b136ea224fe,,,,,,,,,2827,65,-39,1,0,0,response3disk,,5,16,7,1,0,0,rectangle,16,7,1,0,0,16,7,1,0,0,1,128,288,98,1,,,,,,,,
,,,,,,,,,,,,,FF,,,,,,,,1.9004,,,,,,,,,,,,,,,,,,,,,,60fdf3211250e26b5354eb2d,61036f2c8038912cbf35a9b8,2021-07-29_22h19.21.285,Simcolourproject_2stim_asymm_v5,2020.2.10,Win32,60,61025ae37ef11b136ea224fe,,,,,,,,,1486,45,57,1,0,0,response1disk,,7,22,-6,1,0,0,rectangle,22,-6,1,0,0,22,-6,1,0,0,1,129,289,112,1,,,,,,,,
,,,,,,,,,,,,,FF,,,,,,,,1.3002,,,,,,,,,,,,,,,,,,,,,,60fdf3211250e26b5354eb2d,61036f2c8038912cbf35a9b8,2021-07-29_22h19.21.285,Simcolourproject_2stim_asymm_v5,2020.2.10,Win32,60,61025ae37ef11b136ea224fe,,,,,,,,,4062,28,48,1,0,0,response1disk,,7,12,7,1,0,0,rectangle,12,7,1,0,0,12,7,1,0,0,1,130,290,58,1,,,,,,,,
,,,,,,,,,,,,,FF,,,,,,,,2.9504,,,,,,,,,,,,,,,,,,,,,,60fdf3211250e26b5354eb2d,61036f2c8038912cbf35a9b8,2021-07-29_22h19.21.285,Simcolourproject_2stim_asymm_v5,2020.2.10,Win32,60,61025ae37ef11b136ea224fe,,,,,,,,,1685,36,-61,1,0,0,response3disk,,4,8,6,1,0,0,rectangle,8,6,1,0,0,8,6,1,0,0,1,131,291,75,1,,,,,,,,
,,,,,,,,,,,,,FF,,,,,,,,1.7499,,,,,,,,,,,,,,,,,,,,,,60fdf3211250e26b5354eb2d,61036f2c8038912cbf35a9b8,2021-07-29_22h19.21.285,Simcolourproject_2stim_asymm_v5,2020.2.10,Win32,60,61025ae37ef11b136ea224fe,,,,,,,,,4068,58,45,1,0,0,response1disk,,6,19,12,1,0,0,rectangle,19,12,1,0,0,19,12,1,0,0,1,132,292,119,1,,,,,,,,
,,,,,,,,,,,,,FF,,,,,,,,1.1498,,,,,,,,,,,,,,,,,,,,,,60fdf3211250e26b5354eb2d,61036f2c8038912cbf35a9b8,2021-07-29_22h19.21.285,Simcolourproject_2stim_asymm_v5,2020.2.10,Win32,60,61025ae37ef11b136ea224fe,,,,,,,,,541,27,46,1,0,0,response1disk,,7,16,5,1,0,0,rectangle,16,5,1,0,0,16,5,1,0,0,1,133,293,49,1,,,,,,,,
,,,,,,,,,,,,,FF,,,,,,,,1.7828,,,,,,,,,,,,,,,,,,,,,,60fdf3211250e26b5354eb2d,61036f2c8038912cbf35a9b8,2021-07-29_22h19.21.285,Simcolourproject_2stim_asymm_v5,2020.2.10,Win32,60,61025ae37ef11b136ea224fe,,,,,,,,,2090,62,-35,1,0,0,response3disk,,5,19,-6,1,0,0,rectangle,19,-6,1,0,0,19,-6,1,0,0,1,134,294,0,1,,,,,,,,
,,,,,,,,,,,,,FF,,,,,,,,1.0498,,,,,,,,,,,,,,,,,,,,,,60fdf3211250e26b5354eb2d,61036f2c8038912cbf35a9b8,2021-07-29_22h19.21.285,Simcolourproject_2stim_asymm_v5,2020.2.10,Win32,60,61025ae37ef11b136ea224fe,,,,,,,,,2384,60,33,1,0,0,response1disk,,6,4,1,1,0,0,rectangle,4,1,1,0,0,4,1,1,0,0,1,135,295,40,1,,,,,,,,
,,,,,,,,,,,,,FF,,,,,,,,1.5335,,,,,,,,,,,,,,,,,,,,,,60fdf3211250e26b5354eb2d,61036f2c8038912cbf35a9b8,2021-07-29_22h19.21.285,Simcolourproject_2stim_asymm_v5,2020.2.10,Win32,60,61025ae37ef11b136ea224fe,,,,,,,,,2323,54,45,1,0,0,response1disk,,6,4,-3,1,0,0,rectangle,-35,66,1,0,0,8,2,1,0,0,1,136,296,24,1,,response7disk_3,TRUE,0,0,"[297,243,279,208,221,103,257,85,45,102,118,48,191,178,136,180,189,171,48,197]",1.7169,rectangle
,,,,,,,,,,,,,FF,,,,,,,,1.1228,,,,,,,,,,,,,,,,,,,,,,60fdf3211250e26b5354eb2d,61036f2c8038912cbf35a9b8,2021-07-29_22h19.21.285,Simcolourproject_2stim_asymm_v5,2020.2.10,Win32,60,61025ae37ef11b136ea224fe,,,,,,,,,2199,33,62,1,0,0,response1disk,,7,14,1,1,0,0,rectangle,14,1,1,0,0,14,1,1,0,0,1,137,297,121,1,,,,,,,,
,,,,,,,,,,,,,FF,,,,,,,,1.2506,,,,,,,,,,,,,,,,,,,,,,60fdf3211250e26b5354eb2d,61036f2c8038912cbf35a9b8,2021-07-29_22h19.21.285,Simcolourproject_2stim_asymm_v5,2020.2.10,Win32,60,61025ae37ef11b136ea224fe,,,,,,,,,870,34,-41,1,0,0,response3disk,,4,15,-3,1,0,0,rectangle,15,-3,1,0,0,15,-3,1,0,0,1,138,298,6,1,,,,,,,,
,,,,,,,,,,,,,FF,,,,,,,,1.7332,,,,,,,,,,,,,,,,,,,,,,60fdf3211250e26b5354eb2d,61036f2c8038912cbf35a9b8,2021-07-29_22h19.21.285,Simcolourproject_2stim_asymm_v5,2020.2.10,Win32,60,61025ae37ef11b136ea224fe,,,,,,,,,2762,42,61,1,0,0,response1disk,,7,19,2,1,0,0,rectangle,19,2,1,0,0,19,2,1,0,0,1,139,299,25,1,,,,,,,,
,,,,,,,,,,,,,FF,,,,,,,,0.9672,,,,,,,,,,,,,,,,,,,,,,60fdf3211250e26b5354eb2d,61036f2c8038912cbf35a9b8,2021-07-29_22h19.21.285,Simcolourproject_2stim_asymm_v5,2020.2.10,Win32,60,61025ae37ef11b136ea224fe,,,,,,,,,2574,39,61,1,0,0,response1disk,,7,16,-2,1,0,0,rectangle,16,-2,1,0,0,16,-2,1,0,0,1,140,300,134,1,,,,,,,,
,,,,,,,,,,,,,FF,,,,,,,,1.517,,,,,,,,,,,,,,,,,,,,,,60fdf3211250e26b5354eb2d,61036f2c8038912cbf35a9b8,2021-07-29_22h19.21.285,Simcolourproject_2stim_asymm_v5,2020.2.10,Win32,60,61025ae37ef11b136ea224fe,,,,,,,,,1895,24,-52,1,0,0,response3disk,,4,8,10,1,0,0,rectangle,8,10,1,0,0,8,10,1,0,0,1,141,301,145,1,,,,,,,,
,,,,,,,,,,,,,FF,,,,,,,,1.4839,,,,,,,,,,,,,,,,,,,,,,60fdf3211250e26b5354eb2d,61036f2c8038912cbf35a9b8,2021-07-29_22h19.21.285,Simcolourproject_2stim_asymm_v5,2020.2.10,Win32,60,61025ae37ef11b136ea224fe,,,,,,,,,2999,-53,-29,1,0,0,response5disk,,2,-6,4,1,0,0,rectangle,-6,4,1,0,0,-6,4,1,0,0,1,142,302,62,1,,,,,,,,
,,,,,,,,,,,,,FF,,,,,,,,1.0168,,,,,,,,,,,,,,,,,,,,,,60fdf3211250e26b5354eb2d,61036f2c8038912cbf35a9b8,2021-07-29_22h19.21.285,Simcolourproject_2stim_asymm_v5,2020.2.10,Win32,60,61025ae37ef11b136ea224fe,,,,,,,,,806,-25,-85,1,0,0,response5disk,,3,2,-1,1,0,0,rectangle,2,-1,1,0,0,2,-1,1,0,0,1,143,303,135,1,,,,,,,,
