key_resp.keys,key_resp.rt,key_resp_14.keys,key_resp_14.rt,key_resp_15.keys,key_resp_15.rt,key_resp_17.keys,key_resp_17.rt,key_resp_9.keys,key_resp_9.rt,key_resp_10.keys,key_resp_10.rt,practice_comparison,Ecc,mouse_5.x,mouse_5.y,mouse_5.leftButton,mouse_5.midButton,mouse_5.rightButton,mouse_5.clicked_name,pracsimilarity,response_time,mouse_10.x,mouse_10.y,mouse_10.leftButton,mouse_10.midButton,mouse_10.rightButton,mouse_10.clicked_name,mouse_7.x,mouse_7.y,mouse_7.leftButton,mouse_7.midButton,mouse_7.rightButton,mouse_6.x,mouse_6.y,mouse_6.leftButton,mouse_6.midButton,mouse_6.rightButton,duringprac.thisRepN,duringprac.thisTrialN,duringprac.thisN,duringprac.thisIndex,duringprac.ran,participant,session,date,expName,psychopyVersion,OS,frameRate,study_id,mouse_7.clicked_name,catchpracsimilarity,catch_response_time,catchnumberprac,catchtrialorderprac,mouse_6.clicked_name,key_resp_22.keys,key_resp_22.rt,realcomparison,mouse.x,mouse.y,mouse.leftButton,mouse.midButton,mouse.rightButton,mouse.clicked_name,Colour2,similarity,mouse_2.x,mouse_2.y,mouse_2.leftButton,mouse_2.midButton,mouse_2.rightButton,mouse_2.clicked_name,mouse_3.x,mouse_3.y,mouse_3.leftButton,mouse_3.midButton,mouse_3.rightButton,mouse_3.clicked_name,catchornah,catchsimilarity,catchnumber,catchtrialorder,catchRT,mouse_11.x,mouse_11.y,mouse_11.leftButton,mouse_11.midButton,mouse_11.rightButton,mouse_11.clicked_name,trials_2.thisRepN,trials_2.thisTrialN,trials_2.thisN,trials_2.thisIndex,trials_2.ran,Colour1
space,1.256,space,7.855,space,26.731,space,17.683,space,1.116,space,6.349,15,PF,53,111,1,0,0,response1disk_5,7,10.933,3,-3,1,0,0,rectangle_8,3,-3,1,0,0,3,-3,1,0,0,0,0,0,2,1,60fd06ca667e8e5dcbe590f4,61036b0042df8404d1ef0529,2021-07-30_13h00.14.315,Simcolourproject_2stim_asymm_v5,2020.2.10,MacIntel,60,61025ae37ef11b136ea224fe,,,,,,,,,,,,,,,,,,,,,,,,,,,,,,,,,,,,,,,,,,,,,,
,,,,,,,,,,,,104,FF,-80,41,1,0,0,response7disk_5,1,3.55,-4,2,1,0,0,rectangle_8,116,38,1,0,0,18,5,1,0,0,0,1,1,3,1,60fd06ca667e8e5dcbe590f4,61036b0042df8404d1ef0529,2021-07-30_13h00.14.315,Simcolourproject_2stim_asymm_v5,2020.2.10,MacIntel,60,61025ae37ef11b136ea224fe,response1disk_7,6,4.2,6,"[2,5]",rectangle_4,,,,,,,,,,,,,,,,,,,,,,,,,,,,,,,,,,,,,,,,
,,,,,,,,,,,,107,PF,52,96,1,0,0,response1disk_5,7,3.051,5,1,1,0,0,rectangle_8,5,1,1,0,0,5,1,1,0,0,0,2,2,4,1,60fd06ca667e8e5dcbe590f4,61036b0042df8404d1ef0529,2021-07-30_13h00.14.315,Simcolourproject_2stim_asymm_v5,2020.2.10,MacIntel,60,61025ae37ef11b136ea224fe,,,,,,,,,,,,,,,,,,,,,,,,,,,,,,,,,,,,,,,,,,,,,,
,,,,,,,,,,,,104,FF,-44,86,1,0,0,response7disk_5,0,2.5,-10,-7,1,0,0,rectangle_8,-10,-7,1,0,0,-10,-7,1,0,0,0,3,3,5,1,60fd06ca667e8e5dcbe590f4,61036b0042df8404d1ef0529,2021-07-30_13h00.14.315,Simcolourproject_2stim_asymm_v5,2020.2.10,MacIntel,60,61025ae37ef11b136ea224fe,,,,,,,,,,,,,,,,,,,,,,,,,,,,,,,,,,,,,,,,,,,,,,
,,,,,,,,,,,,45,PF,108,61,1,0,0,response1disk_5,6,2.429,0,-21,1,0,0,rectangle_8,111,26,1,0,0,2,-7,1,0,0,0,4,4,6,1,60fd06ca667e8e5dcbe590f4,61036b0042df8404d1ef0529,2021-07-30_13h00.14.315,Simcolourproject_2stim_asymm_v5,2020.2.10,MacIntel,60,61025ae37ef11b136ea224fe,response1disk_7,6,2.349,6,"[2,5]",rectangle_4,,,,,,,,,,,,,,,,,,,,,,,,,,,,,,,,,,,,,,,,
,,,,,,,,,,,,146,FF,40,72,1,0,0,response1disk_5,7,2.366,-2,-1,1,0,0,rectangle_8,-2,-1,1,0,0,-2,-1,1,0,0,0,5,5,0,1,60fd06ca667e8e5dcbe590f4,61036b0042df8404d1ef0529,2021-07-30_13h00.14.315,Simcolourproject_2stim_asymm_v5,2020.2.10,MacIntel,60,61025ae37ef11b136ea224fe,,,,,,,,,,,,,,,,,,,,,,,,,,,,,,,,,,,,,,,,,,,,,,
,,,,,,,,,,,,17,PF,104,-21,1,0,0,response3disk_5,5,3.934,-5,14,1,0,0,rectangle_8,-5,14,1,0,0,-5,14,1,0,0,0,6,6,1,1,60fd06ca667e8e5dcbe590f4,61036b0042df8404d1ef0529,2021-07-30_13h00.14.315,Simcolourproject_2stim_asymm_v5,2020.2.10,MacIntel,60,61025ae37ef11b136ea224fe,,,,,,,,,,,,,,,,,,,,,,,,,,,,,,,,,,,,,,,,,,,,,,
,,,,,,,,,,,,,FF,,,,,,,,1.566,,,,,,,,,,,,,,,,,,,,,,60fd06ca667e8e5dcbe590f4,61036b0042df8404d1ef0529,2021-07-30_13h00.14.315,Simcolourproject_2stim_asymm_v5,2020.2.10,MacIntel,60,61025ae37ef11b136ea224fe,,,,,,,space,2.924,2296,-35,-78,1,0,0,response5disk,,3,13,4,1,0,0,rectangle,47,80,1,0,0,response1disk_3,TRUE,7,7,"[190,251,92,62,212,279,194,289,192,41,35,53,253,54,198,141,71,56,4,1]",2.884,14,-4,1,0,0,rectangle,0,0,0,132,1,
,,,,,,,,,,,,,FF,,,,,,,,2.2,,,,,,,,,,,,,,,,,,,,,,60fd06ca667e8e5dcbe590f4,61036b0042df8404d1ef0529,2021-07-30_13h00.14.315,Simcolourproject_2stim_asymm_v5,2020.2.10,MacIntel,60,61025ae37ef11b136ea224fe,,,,,,,,,2959,47,75,1,0,0,response1disk,,7,16,-3,1,0,0,rectangle,16,-3,1,0,0,,,,,,,16,-3,1,0,0,,0,1,1,10,1,
,,,,,,,,,,,,,FF,,,,,,,,1.099,,,,,,,,,,,,,,,,,,,,,,60fd06ca667e8e5dcbe590f4,61036b0042df8404d1ef0529,2021-07-30_13h00.14.315,Simcolourproject_2stim_asymm_v5,2020.2.10,MacIntel,60,61025ae37ef11b136ea224fe,,,,,,,,,3705,-83,46,1,0,0,response7disk,,1,-14,7,1,0,0,rectangle,-14,7,1,0,0,,,,,,,-14,7,1,0,0,,0,2,2,77,1,
,,,,,,,,,,,,,FF,,,,,,,,2.317,,,,,,,,,,,,,,,,,,,,,,60fd06ca667e8e5dcbe590f4,61036b0042df8404d1ef0529,2021-07-30_13h00.14.315,Simcolourproject_2stim_asymm_v5,2020.2.10,MacIntel,60,61025ae37ef11b136ea224fe,,,,,,,,,3648,107,43,1,0,0,response1disk,,6,26,7,1,0,0,rectangle,56,-110,1,0,0,response3disk_3,TRUE,4,4,"[190,251,92,62,212,279,194,289,192,41,35,53,253,54,198,141,71,56,4,1]",3.034,0,1,1,0,0,rectangle,0,3,3,98,1,
,,,,,,,,,,,,,FF,,,,,,,,2.084,,,,,,,,,,,,,,,,,,,,,,60fd06ca667e8e5dcbe590f4,61036b0042df8404d1ef0529,2021-07-30_13h00.14.315,Simcolourproject_2stim_asymm_v5,2020.2.10,MacIntel,60,61025ae37ef11b136ea224fe,,,,,,,,,2088,43,129,1,0,0,response1disk,,7,21,-7,1,0,0,rectangle,21,-7,1,0,0,,,,,,,21,-7,1,0,0,,0,4,4,122,1,
,,,,,,,,,,,,,FF,,,,,,,,1.601,,,,,,,,,,,,,,,,,,,,,,60fd06ca667e8e5dcbe590f4,61036b0042df8404d1ef0529,2021-07-30_13h00.14.315,Simcolourproject_2stim_asymm_v5,2020.2.10,MacIntel,60,61025ae37ef11b136ea224fe,,,,,,,,,1144,36,-105,1,0,0,response3disk,,4,8,7,1,0,0,rectangle,8,7,1,0,0,,,,,,,8,7,1,0,0,,0,5,5,99,1,
,,,,,,,,,,,,,FF,,,,,,,,2.114,,,,,,,,,,,,,,,,,,,,,,60fd06ca667e8e5dcbe590f4,61036b0042df8404d1ef0529,2021-07-30_13h00.14.315,Simcolourproject_2stim_asymm_v5,2020.2.10,MacIntel,60,61025ae37ef11b136ea224fe,,,,,,,,,847,60,32,1,0,0,response1disk,,6,-14,-8,1,0,0,rectangle,-14,-8,1,0,0,,,,,,,-14,-8,1,0,0,,0,6,6,50,1,
,,,,,,,,,,,,,FF,,,,,,,,0.983,,,,,,,,,,,,,,,,,,,,,,60fd06ca667e8e5dcbe590f4,61036b0042df8404d1ef0529,2021-07-30_13h00.14.315,Simcolourproject_2stim_asymm_v5,2020.2.10,MacIntel,60,61025ae37ef11b136ea224fe,,,,,,,,,3469,-83,-65,1,0,0,response5disk,,2,-15,1,1,0,0,rectangle,-15,1,1,0,0,,,,,,,-15,1,1,0,0,,0,7,7,118,1,
,,,,,,,,,,,,,FF,,,,,,,,1.249,,,,,,,,,,,,,,,,,,,,,,60fd06ca667e8e5dcbe590f4,61036b0042df8404d1ef0529,2021-07-30_13h00.14.315,Simcolourproject_2stim_asymm_v5,2020.2.10,MacIntel,60,61025ae37ef11b136ea224fe,,,,,,,,,3236,-73,-96,1,0,0,response5disk,,3,-6,1,1,0,0,rectangle,-6,1,1,0,0,,,,,,,-6,1,1,0,0,,0,8,8,4,1,
,,,,,,,,,,,,,FF,,,,,,,,2.051,,,,,,,,,,,,,,,,,,,,,,60fd06ca667e8e5dcbe590f4,61036b0042df8404d1ef0529,2021-07-30_13h00.14.315,Simcolourproject_2stim_asymm_v5,2020.2.10,MacIntel,60,61025ae37ef11b136ea224fe,,,,,,,,,1249,103,53,1,0,0,response1disk,,6,30,5,1,0,0,rectangle,30,5,1,0,0,,,,,,,30,5,1,0,0,,0,9,9,148,1,
,,,,,,,,,,,,,FF,,,,,,,,1.284,,,,,,,,,,,,,,,,,,,,,,60fd06ca667e8e5dcbe590f4,61036b0042df8404d1ef0529,2021-07-30_13h00.14.315,Simcolourproject_2stim_asymm_v5,2020.2.10,MacIntel,60,61025ae37ef11b136ea224fe,,,,,,,,,813,37,-78,1,0,0,response3disk,,4,14,-2,1,0,0,rectangle,14,-2,1,0,0,,,,,,,14,-2,1,0,0,,0,10,10,111,1,
,,,,,,,,,,,,,FF,,,,,,,,1.766,,,,,,,,,,,,,,,,,,,,,,60fd06ca667e8e5dcbe590f4,61036b0042df8404d1ef0529,2021-07-30_13h00.14.315,Simcolourproject_2stim_asymm_v5,2020.2.10,MacIntel,60,61025ae37ef11b136ea224fe,,,,,,,,,115,28,-70,1,0,0,response3disk,,4,-3,10,1,0,0,rectangle,-3,10,1,0,0,,,,,,,-3,10,1,0,0,,0,11,11,75,1,
,,,,,,,,,,,,,FF,,,,,,,,0.916,,,,,,,,,,,,,,,,,,,,,,60fd06ca667e8e5dcbe590f4,61036b0042df8404d1ef0529,2021-07-30_13h00.14.315,Simcolourproject_2stim_asymm_v5,2020.2.10,MacIntel,60,61025ae37ef11b136ea224fe,,,,,,,,,3432,-104,-50,1,0,0,response5disk,,2,-21,-5,1,0,0,rectangle,-21,-5,1,0,0,,,,,,,-21,-5,1,0,0,,0,12,12,138,1,
,,,,,,,,,,,,,FF,,,,,,,,0.983,,,,,,,,,,,,,,,,,,,,,,60fd06ca667e8e5dcbe590f4,61036b0042df8404d1ef0529,2021-07-30_13h00.14.315,Simcolourproject_2stim_asymm_v5,2020.2.10,MacIntel,60,61025ae37ef11b136ea224fe,,,,,,,,,756,94,35,1,0,0,response1disk,,6,19,4,1,0,0,rectangle,19,4,1,0,0,,,,,,,19,4,1,0,0,,0,13,13,56,1,
,,,,,,,,,,,,,FF,,,,,,,,1.15,,,,,,,,,,,,,,,,,,,,,,60fd06ca667e8e5dcbe590f4,61036b0042df8404d1ef0529,2021-07-30_13h00.14.315,Simcolourproject_2stim_asymm_v5,2020.2.10,MacIntel,60,61025ae37ef11b136ea224fe,,,,,,,,,4266,-77,37,1,0,0,response7disk,,1,12,7,1,0,0,rectangle,12,7,1,0,0,,,,,,,12,7,1,0,0,,0,14,14,137,1,
,,,,,,,,,,,,,FF,,,,,,,,0.867,,,,,,,,,,,,,,,,,,,,,,60fd06ca667e8e5dcbe590f4,61036b0042df8404d1ef0529,2021-07-30_13h00.14.315,Simcolourproject_2stim_asymm_v5,2020.2.10,MacIntel,60,61025ae37ef11b136ea224fe,,,,,,,,,28,36,-108,1,0,0,response3disk,,4,30,-6,1,0,0,rectangle,30,-6,1,0,0,,,,,,,30,-6,1,0,0,,0,15,15,62,1,
,,,,,,,,,,,,,FF,,,,,,,,1.067,,,,,,,,,,,,,,,,,,,,,,60fd06ca667e8e5dcbe590f4,61036b0042df8404d1ef0529,2021-07-30_13h00.14.315,Simcolourproject_2stim_asymm_v5,2020.2.10,MacIntel,60,61025ae37ef11b136ea224fe,,,,,,,,,4203,-96,-62,1,0,0,response5disk,,2,15,1,1,0,0,rectangle,15,1,1,0,0,,,,,,,15,1,1,0,0,,0,16,16,5,1,
,,,,,,,,,,,,,FF,,,,,,,,1.283,,,,,,,,,,,,,,,,,,,,,,60fd06ca667e8e5dcbe590f4,61036b0042df8404d1ef0529,2021-07-30_13h00.14.315,Simcolourproject_2stim_asymm_v5,2020.2.10,MacIntel,60,61025ae37ef11b136ea224fe,,,,,,,,,3412,90,-42,1,0,0,response3disk,,5,20,1,1,0,0,rectangle,20,1,1,0,0,,,,,,,20,1,1,0,0,,0,17,17,151,1,
,,,,,,,,,,,,,FF,,,,,,,,2.133,,,,,,,,,,,,,,,,,,,,,,60fd06ca667e8e5dcbe590f4,61036b0042df8404d1ef0529,2021-07-30_13h00.14.315,Simcolourproject_2stim_asymm_v5,2020.2.10,MacIntel,60,61025ae37ef11b136ea224fe,,,,,,,,,3827,71,-99,1,0,0,response3disk,,4,4,-3,1,0,0,rectangle,4,-3,1,0,0,,,,,,,4,-3,1,0,0,,0,18,18,12,1,
,,,,,,,,,,,,,FF,,,,,,,,0.866,,,,,,,,,,,,,,,,,,,,,,60fd06ca667e8e5dcbe590f4,61036b0042df8404d1ef0529,2021-07-30_13h00.14.315,Simcolourproject_2stim_asymm_v5,2020.2.10,MacIntel,60,61025ae37ef11b136ea224fe,,,,,,,,,225,72,-35,1,0,0,response3disk,,5,22,8,1,0,0,rectangle,22,8,1,0,0,,,,,,,22,8,1,0,0,,0,19,19,1,1,
,,,,,,,,,,,,,FF,,,,,,,,1.017,,,,,,,,,,,,,,,,,,,,,,60fd06ca667e8e5dcbe590f4,61036b0042df8404d1ef0529,2021-07-30_13h00.14.315,Simcolourproject_2stim_asymm_v5,2020.2.10,MacIntel,60,61025ae37ef11b136ea224fe,,,,,,,,,52,78,42,1,0,0,response1disk,,6,0,-9,1,0,0,rectangle,0,-9,1,0,0,,,,,,,0,-9,1,0,0,,0,20,20,14,1,
,,,,,,,,,,,,,FF,,,,,,,,0.75,,,,,,,,,,,,,,,,,,,,,,60fd06ca667e8e5dcbe590f4,61036b0042df8404d1ef0529,2021-07-30_13h00.14.315,Simcolourproject_2stim_asymm_v5,2020.2.10,MacIntel,60,61025ae37ef11b136ea224fe,,,,,,,,,3426,-43,-106,1,0,0,response5disk,,3,-8,-7,1,0,0,rectangle,-8,-7,1,0,0,,,,,,,-8,-7,1,0,0,,0,21,21,150,1,
,,,,,,,,,,,,,FF,,,,,,,,1.151,,,,,,,,,,,,,,,,,,,,,,60fd06ca667e8e5dcbe590f4,61036b0042df8404d1ef0529,2021-07-30_13h00.14.315,Simcolourproject_2stim_asymm_v5,2020.2.10,MacIntel,60,61025ae37ef11b136ea224fe,,,,,,,,,429,42,-76,1,0,0,response3disk,,4,1,7,1,0,0,rectangle,1,7,1,0,0,,,,,,,1,7,1,0,0,,0,22,22,61,1,
,,,,,,,,,,,,,FF,,,,,,,,1.317,,,,,,,,,,,,,,,,,,,,,,60fd06ca667e8e5dcbe590f4,61036b0042df8404d1ef0529,2021-07-30_13h00.14.315,Simcolourproject_2stim_asymm_v5,2020.2.10,MacIntel,60,61025ae37ef11b136ea224fe,,,,,,,,,3581,50,106,1,0,0,response1disk,,7,12,4,1,0,0,rectangle,12,4,1,0,0,,,,,,,12,4,1,0,0,,0,23,23,119,1,
,,,,,,,,,,,,,FF,,,,,,,,0.884,,,,,,,,,,,,,,,,,,,,,,60fd06ca667e8e5dcbe590f4,61036b0042df8404d1ef0529,2021-07-30_13h00.14.315,Simcolourproject_2stim_asymm_v5,2020.2.10,MacIntel,60,61025ae37ef11b136ea224fe,,,,,,,,,1841,31,74,1,0,0,response1disk,,7,21,-15,1,0,0,rectangle,21,-15,1,0,0,,,,,,,21,-15,1,0,0,,0,24,24,85,1,
,,,,,,,,,,,,,FF,,,,,,,,1.282,,,,,,,,,,,,,,,,,,,,,,60fd06ca667e8e5dcbe590f4,61036b0042df8404d1ef0529,2021-07-30_13h00.14.315,Simcolourproject_2stim_asymm_v5,2020.2.10,MacIntel,60,61025ae37ef11b136ea224fe,,,,,,,,,2382,97,48,1,0,0,response1disk,,6,25,2,1,0,0,rectangle,25,2,1,0,0,,,,,,,25,2,1,0,0,,0,25,25,78,1,
,,,,,,,,,,,,,FF,,,,,,,,1.017,,,,,,,,,,,,,,,,,,,,,,60fd06ca667e8e5dcbe590f4,61036b0042df8404d1ef0529,2021-07-30_13h00.14.315,Simcolourproject_2stim_asymm_v5,2020.2.10,MacIntel,60,61025ae37ef11b136ea224fe,,,,,,,,,1518,39,77,1,0,0,response1disk,,7,21,-3,1,0,0,rectangle,21,-3,1,0,0,,,,,,,21,-3,1,0,0,,0,26,26,2,1,
,,,,,,,,,,,,,FF,,,,,,,,1.017,,,,,,,,,,,,,,,,,,,,,,60fd06ca667e8e5dcbe590f4,61036b0042df8404d1ef0529,2021-07-30_13h00.14.315,Simcolourproject_2stim_asymm_v5,2020.2.10,MacIntel,60,61025ae37ef11b136ea224fe,,,,,,,,,572,45,73,1,0,0,response1disk,,7,25,-2,1,0,0,rectangle,25,-2,1,0,0,,,,,,,25,-2,1,0,0,,0,27,27,71,1,
,,,,,,,,,,,,,FF,,,,,,,,1.166,,,,,,,,,,,,,,,,,,,,,,60fd06ca667e8e5dcbe590f4,61036b0042df8404d1ef0529,2021-07-30_13h00.14.315,Simcolourproject_2stim_asymm_v5,2020.2.10,MacIntel,60,61025ae37ef11b136ea224fe,,,,,,,,,1389,100,-60,1,0,0,response3disk,,5,17,5,1,0,0,rectangle,17,5,1,0,0,,,,,,,17,5,1,0,0,,0,28,28,35,1,
,,,,,,,,,,,,,FF,,,,,,,,0.884,,,,,,,,,,,,,,,,,,,,,,60fd06ca667e8e5dcbe590f4,61036b0042df8404d1ef0529,2021-07-30_13h00.14.315,Simcolourproject_2stim_asymm_v5,2020.2.10,MacIntel,60,61025ae37ef11b136ea224fe,,,,,,,,,3054,-43,-132,1,0,0,response5disk,,3,18,7,1,0,0,rectangle,18,7,1,0,0,,,,,,,18,7,1,0,0,,0,29,29,106,1,
,,,,,,,,,,,,,FF,,,,,,,,0.967,,,,,,,,,,,,,,,,,,,,,,60fd06ca667e8e5dcbe590f4,61036b0042df8404d1ef0529,2021-07-30_13h00.14.315,Simcolourproject_2stim_asymm_v5,2020.2.10,MacIntel,60,61025ae37ef11b136ea224fe,,,,,,,,,4172,43,81,1,0,0,response1disk,,7,19,5,1,0,0,rectangle,19,5,1,0,0,,,,,,,19,5,1,0,0,,0,30,30,32,1,
,,,,,,,,,,,,,FF,,,,,,,,1.516,,,,,,,,,,,,,,,,,,,,,,60fd06ca667e8e5dcbe590f4,61036b0042df8404d1ef0529,2021-07-30_13h00.14.315,Simcolourproject_2stim_asymm_v5,2020.2.10,MacIntel,60,61025ae37ef11b136ea224fe,,,,,,,,,304,102,-68,1,0,0,response3disk,,5,-5,1,1,0,0,rectangle,-5,1,1,0,0,,,,,,,-5,1,1,0,0,,0,31,31,141,1,
,,,,,,,,,,,,,FF,,,,,,,,0.916,,,,,,,,,,,,,,,,,,,,,,60fd06ca667e8e5dcbe590f4,61036b0042df8404d1ef0529,2021-07-30_13h00.14.315,Simcolourproject_2stim_asymm_v5,2020.2.10,MacIntel,60,61025ae37ef11b136ea224fe,,,,,,,,,1619,102,55,1,0,0,response1disk,,6,17,-2,1,0,0,rectangle,17,-2,1,0,0,,,,,,,17,-2,1,0,0,,0,32,32,16,1,
,,,,,,,,,,,,,FF,,,,,,,,0.951,,,,,,,,,,,,,,,,,,,,,,60fd06ca667e8e5dcbe590f4,61036b0042df8404d1ef0529,2021-07-30_13h00.14.315,Simcolourproject_2stim_asymm_v5,2020.2.10,MacIntel,60,61025ae37ef11b136ea224fe,,,,,,,,,4272,57,99,1,0,0,response1disk,,7,19,-10,1,0,0,rectangle,19,-10,1,0,0,,,,,,,19,-10,1,0,0,,0,33,33,73,1,
,,,,,,,,,,,,,FF,,,,,,,,1.183,,,,,,,,,,,,,,,,,,,,,,60fd06ca667e8e5dcbe590f4,61036b0042df8404d1ef0529,2021-07-30_13h00.14.315,Simcolourproject_2stim_asymm_v5,2020.2.10,MacIntel,60,61025ae37ef11b136ea224fe,,,,,,,,,1328,52,81,1,0,0,response1disk,,7,3,-12,1,0,0,rectangle,104,-64,1,0,0,response3disk_3,TRUE,5,5,"[190,251,92,62,212,279,194,289,192,41,35,53,253,54,198,141,71,56,4,1]",2.385,-3,-8,1,0,0,rectangle,0,34,34,105,1,
,,,,,,,,,,,,,FF,,,,,,,,1.583,,,,,,,,,,,,,,,,,,,,,,60fd06ca667e8e5dcbe590f4,61036b0042df8404d1ef0529,2021-07-30_13h00.14.315,Simcolourproject_2stim_asymm_v5,2020.2.10,MacIntel,60,61025ae37ef11b136ea224fe,,,,,,,,,768,105,-64,1,0,0,response3disk,,5,2,-3,1,0,0,rectangle,2,-3,1,0,0,,,,,,,2,-3,1,0,0,,0,35,35,125,1,
,,,,,,,,,,,,,FF,,,,,,,,1,,,,,,,,,,,,,,,,,,,,,,60fd06ca667e8e5dcbe590f4,61036b0042df8404d1ef0529,2021-07-30_13h00.14.315,Simcolourproject_2stim_asymm_v5,2020.2.10,MacIntel,60,61025ae37ef11b136ea224fe,,,,,,,,,3393,-53,-100,1,0,0,response5disk,,3,-18,18,1,0,0,rectangle,-18,18,1,0,0,,,,,,,-18,18,1,0,0,,0,36,36,8,1,
,,,,,,,,,,,,,FF,,,,,,,,1.167,,,,,,,,,,,,,,,,,,,,,,60fd06ca667e8e5dcbe590f4,61036b0042df8404d1ef0529,2021-07-30_13h00.14.315,Simcolourproject_2stim_asymm_v5,2020.2.10,MacIntel,60,61025ae37ef11b136ea224fe,,,,,,,,,1312,63,-103,1,0,0,response3disk,,4,15,13,1,0,0,rectangle,15,13,1,0,0,,,,,,,15,13,1,0,0,,0,37,37,55,1,
,,,,,,,,,,,,,FF,,,,,,,,0.833,,,,,,,,,,,,,,,,,,,,,,60fd06ca667e8e5dcbe590f4,61036b0042df8404d1ef0529,2021-07-30_13h00.14.315,Simcolourproject_2stim_asymm_v5,2020.2.10,MacIntel,60,61025ae37ef11b136ea224fe,,,,,,,,,431,105,-41,1,0,0,response3disk,,5,20,7,1,0,0,rectangle,20,7,1,0,0,,,,,,,20,7,1,0,0,,0,38,38,68,1,
,,,,,,,,,,,,,FF,,,,,,,,1.418,,,,,,,,,,,,,,,,,,,,,,60fd06ca667e8e5dcbe590f4,61036b0042df8404d1ef0529,2021-07-30_13h00.14.315,Simcolourproject_2stim_asymm_v5,2020.2.10,MacIntel,60,61025ae37ef11b136ea224fe,,,,,,,,,393,88,75,1,0,0,response1disk,,6,19,-9,1,0,0,rectangle,19,-9,1,0,0,,,,,,,19,-9,1,0,0,,0,39,39,13,1,
,,,,,,,,,,,,,FF,,,,,,,,0.851,,,,,,,,,,,,,,,,,,,,,,60fd06ca667e8e5dcbe590f4,61036b0042df8404d1ef0529,2021-07-30_13h00.14.315,Simcolourproject_2stim_asymm_v5,2020.2.10,MacIntel,60,61025ae37ef11b136ea224fe,,,,,,,,,132,76,114,1,0,0,response1disk,,7,9,-11,1,0,0,rectangle,-119,-51,1,0,0,response5disk_3,TRUE,2,2,"[190,251,92,62,212,279,194,289,192,41,35,53,253,54,198,141,71,56,4,1]",1.85,-14,3,1,0,0,rectangle,0,40,40,24,1,
,,,,,,,,,,,,,FF,,,,,,,,1.016,,,,,,,,,,,,,,,,,,,,,,60fd06ca667e8e5dcbe590f4,61036b0042df8404d1ef0529,2021-07-30_13h00.14.315,Simcolourproject_2stim_asymm_v5,2020.2.10,MacIntel,60,61025ae37ef11b136ea224fe,,,,,,,,,1033,37,-109,1,0,0,response3disk,,4,14,6,1,0,0,rectangle,14,6,1,0,0,,,,,,,14,6,1,0,0,,0,41,41,113,1,
,,,,,,,,,,,,,FF,,,,,,,,0.983,,,,,,,,,,,,,,,,,,,,,,60fd06ca667e8e5dcbe590f4,61036b0042df8404d1ef0529,2021-07-30_13h00.14.315,Simcolourproject_2stim_asymm_v5,2020.2.10,MacIntel,60,61025ae37ef11b136ea224fe,,,,,,,,,2668,-118,-49,1,0,0,response5disk,,2,-8,13,1,0,0,rectangle,-8,13,1,0,0,,,,,,,-8,13,1,0,0,,0,42,42,82,1,
,,,,,,,,,,,,,FF,,,,,,,,0.684,,,,,,,,,,,,,,,,,,,,,,60fd06ca667e8e5dcbe590f4,61036b0042df8404d1ef0529,2021-07-30_13h00.14.315,Simcolourproject_2stim_asymm_v5,2020.2.10,MacIntel,60,61025ae37ef11b136ea224fe,,,,,,,,,1968,-38,-113,1,0,0,response5disk,,3,12,-2,1,0,0,rectangle,12,-2,1,0,0,,,,,,,12,-2,1,0,0,,0,43,43,48,1,
,,,,,,,,,,,,,FF,,,,,,,,1.068,,,,,,,,,,,,,,,,,,,,,,60fd06ca667e8e5dcbe590f4,61036b0042df8404d1ef0529,2021-07-30_13h00.14.315,Simcolourproject_2stim_asymm_v5,2020.2.10,MacIntel,60,61025ae37ef11b136ea224fe,,,,,,,,,286,-61,-106,1,0,0,response5disk,,3,2,3,1,0,0,rectangle,2,3,1,0,0,,,,,,,2,3,1,0,0,,0,44,44,104,1,
,,,,,,,,,,,,,FF,,,,,,,,0.884,,,,,,,,,,,,,,,,,,,,,,60fd06ca667e8e5dcbe590f4,61036b0042df8404d1ef0529,2021-07-30_13h00.14.315,Simcolourproject_2stim_asymm_v5,2020.2.10,MacIntel,60,61025ae37ef11b136ea224fe,,,,,,,,,295,49,-99,1,0,0,response3disk,,4,21,1,1,0,0,rectangle,21,1,1,0,0,,,,,,,21,1,1,0,0,,0,45,45,79,1,
,,,,,,,,,,,,,FF,,,,,,,,0.95,,,,,,,,,,,,,,,,,,,,,,60fd06ca667e8e5dcbe590f4,61036b0042df8404d1ef0529,2021-07-30_13h00.14.315,Simcolourproject_2stim_asymm_v5,2020.2.10,MacIntel,60,61025ae37ef11b136ea224fe,,,,,,,,,1593,40,82,1,0,0,response1disk,,7,-6,-2,1,0,0,rectangle,-6,-2,1,0,0,,,,,,,-6,-2,1,0,0,,0,46,46,86,1,
,,,,,,,,,,,,,FF,,,,,,,,0.634,,,,,,,,,,,,,,,,,,,,,,60fd06ca667e8e5dcbe590f4,61036b0042df8404d1ef0529,2021-07-30_13h00.14.315,Simcolourproject_2stim_asymm_v5,2020.2.10,MacIntel,60,61025ae37ef11b136ea224fe,,,,,,,,,4296,60,96,1,0,0,response1disk,,7,12,0,1,0,0,rectangle,12,0,1,0,0,,,,,,,12,0,1,0,0,,0,47,47,108,1,
,,,,,,,,,,,,,FF,,,,,,,,0.817,,,,,,,,,,,,,,,,,,,,,,60fd06ca667e8e5dcbe590f4,61036b0042df8404d1ef0529,2021-07-30_13h00.14.315,Simcolourproject_2stim_asymm_v5,2020.2.10,MacIntel,60,61025ae37ef11b136ea224fe,,,,,,,,,1953,92,31,1,0,0,response1disk,,6,13,-9,1,0,0,rectangle,13,-9,1,0,0,,,,,,,13,-9,1,0,0,,0,48,48,92,1,
,,,,,,,,,,,,,FF,,,,,,,,1.199,,,,,,,,,,,,,,,,,,,,,,60fd06ca667e8e5dcbe590f4,61036b0042df8404d1ef0529,2021-07-30_13h00.14.315,Simcolourproject_2stim_asymm_v5,2020.2.10,MacIntel,60,61025ae37ef11b136ea224fe,,,,,,,,,4064,102,40,1,0,0,response1disk,,6,-5,2,1,0,0,rectangle,-5,2,1,0,0,,,,,,,-5,2,1,0,0,,0,49,49,127,1,
,,,,,,,,,,,,,FF,,,,,,,,1.616,,,,,,,,,,,,,,,,,,,,,,60fd06ca667e8e5dcbe590f4,61036b0042df8404d1ef0529,2021-07-30_13h00.14.315,Simcolourproject_2stim_asymm_v5,2020.2.10,MacIntel,60,61025ae37ef11b136ea224fe,,,,,,,,,1550,107,44,1,0,0,response1disk,,6,18,6,1,0,0,rectangle,18,6,1,0,0,,,,,,,18,6,1,0,0,,0,50,50,135,1,
,,,,,,,,,,,,,FF,,,,,,,,1.018,,,,,,,,,,,,,,,,,,,,,,60fd06ca667e8e5dcbe590f4,61036b0042df8404d1ef0529,2021-07-30_13h00.14.315,Simcolourproject_2stim_asymm_v5,2020.2.10,MacIntel,60,61025ae37ef11b136ea224fe,,,,,,,,,3964,54,111,1,0,0,response1disk,,7,9,-4,1,0,0,rectangle,9,-4,1,0,0,,,,,,,9,-4,1,0,0,,0,51,51,143,1,
,,,,,,,,,,,,,FF,,,,,,,,0.967,,,,,,,,,,,,,,,,,,,,,,60fd06ca667e8e5dcbe590f4,61036b0042df8404d1ef0529,2021-07-30_13h00.14.315,Simcolourproject_2stim_asymm_v5,2020.2.10,MacIntel,60,61025ae37ef11b136ea224fe,,,,,,,,,2118,57,102,1,0,0,response1disk,,7,5,-10,1,0,0,rectangle,-74,-104,1,0,0,response5disk_3,TRUE,3,3,"[190,251,92,62,212,279,194,289,192,41,35,53,253,54,198,141,71,56,4,1]",1.767,-6,14,1,0,0,rectangle,0,52,52,140,1,
,,,,,,,,,,,,,FF,,,,,,,,0.85,,,,,,,,,,,,,,,,,,,,,,60fd06ca667e8e5dcbe590f4,61036b0042df8404d1ef0529,2021-07-30_13h00.14.315,Simcolourproject_2stim_asymm_v5,2020.2.10,MacIntel,60,61025ae37ef11b136ea224fe,,,,,,,,,616,-91,-130,1,0,0,response5disk,,3,-24,3,1,0,0,rectangle,-48,85,1,0,0,response7disk_3,TRUE,0,0,"[190,251,92,62,212,279,194,289,192,41,35,53,253,54,198,141,71,56,4,1]",1.917,-10,2,1,0,0,rectangle,0,53,53,15,1,
,,,,,,,,,,,,,FF,,,,,,,,0.967,,,,,,,,,,,,,,,,,,,,,,60fd06ca667e8e5dcbe590f4,61036b0042df8404d1ef0529,2021-07-30_13h00.14.315,Simcolourproject_2stim_asymm_v5,2020.2.10,MacIntel,60,61025ae37ef11b136ea224fe,,,,,,,,,4264,62,115,1,0,0,response1disk,,7,5,5,1,0,0,rectangle,5,5,1,0,0,,,,,,,5,5,1,0,0,,0,54,54,154,1,
,,,,,,,,,,,,,FF,,,,,,,,1.134,,,,,,,,,,,,,,,,,,,,,,60fd06ca667e8e5dcbe590f4,61036b0042df8404d1ef0529,2021-07-30_13h00.14.315,Simcolourproject_2stim_asymm_v5,2020.2.10,MacIntel,60,61025ae37ef11b136ea224fe,,,,,,,,,1044,92,43,1,0,0,response1disk,,6,16,-5,1,0,0,rectangle,99,66,1,0,0,response1disk_3,TRUE,6,6,"[190,251,92,62,212,279,194,289,192,41,35,53,253,54,198,141,71,56,4,1]",1.333,27,13,1,0,0,rectangle,0,55,55,74,1,
,,,,,,,,,,,,,FF,,,,,,,,3.083,,,,,,,,,,,,,,,,,,,,,,60fd06ca667e8e5dcbe590f4,61036b0042df8404d1ef0529,2021-07-30_13h00.14.315,Simcolourproject_2stim_asymm_v5,2020.2.10,MacIntel,60,61025ae37ef11b136ea224fe,,,,,,,,,3796,117,61,1,0,0,response1disk,,6,0,-6,1,0,0,rectangle,0,-6,1,0,0,,,,,,,0,-6,1,0,0,,0,56,56,60,1,
,,,,,,,,,,,,,FF,,,,,,,,1.033,,,,,,,,,,,,,,,,,,,,,,60fd06ca667e8e5dcbe590f4,61036b0042df8404d1ef0529,2021-07-30_13h00.14.315,Simcolourproject_2stim_asymm_v5,2020.2.10,MacIntel,60,61025ae37ef11b136ea224fe,,,,,,,,,2936,40,-107,1,0,0,response3disk,,4,20,-18,1,0,0,rectangle,20,-18,1,0,0,,,,,,,20,-18,1,0,0,,0,57,57,27,1,
,,,,,,,,,,,,,FF,,,,,,,,1.134,,,,,,,,,,,,,,,,,,,,,,60fd06ca667e8e5dcbe590f4,61036b0042df8404d1ef0529,2021-07-30_13h00.14.315,Simcolourproject_2stim_asymm_v5,2020.2.10,MacIntel,60,61025ae37ef11b136ea224fe,,,,,,,,,2020,61,107,1,0,0,response1disk,,7,26,-9,1,0,0,rectangle,26,-9,1,0,0,,,,,,,26,-9,1,0,0,,0,58,58,136,1,
,,,,,,,,,,,,,FF,,,,,,,,0.95,,,,,,,,,,,,,,,,,,,,,,60fd06ca667e8e5dcbe590f4,61036b0042df8404d1ef0529,2021-07-30_13h00.14.315,Simcolourproject_2stim_asymm_v5,2020.2.10,MacIntel,60,61025ae37ef11b136ea224fe,,,,,,,,,3487,55,140,1,0,0,response1disk,,7,14,-4,1,0,0,rectangle,14,-4,1,0,0,,,,,,,14,-4,1,0,0,,0,59,59,116,1,
,,,,,,,,,,,,,FF,,,,,,,,0.733,,,,,,,,,,,,,,,,,,,,,,60fd06ca667e8e5dcbe590f4,61036b0042df8404d1ef0529,2021-07-30_13h00.14.315,Simcolourproject_2stim_asymm_v5,2020.2.10,MacIntel,60,61025ae37ef11b136ea224fe,,,,,,,,,4063,35,95,1,0,0,response1disk,,7,9,-3,1,0,0,rectangle,9,-3,1,0,0,,,,,,,9,-3,1,0,0,,0,60,60,89,1,
,,,,,,,,,,,,,FF,,,,,,,,1.45,,,,,,,,,,,,,,,,,,,,,,60fd06ca667e8e5dcbe590f4,61036b0042df8404d1ef0529,2021-07-30_13h00.14.315,Simcolourproject_2stim_asymm_v5,2020.2.10,MacIntel,60,61025ae37ef11b136ea224fe,,,,,,,,,935,41,89,1,0,0,response1disk,,7,24,5,1,0,0,rectangle,-82,44,1,0,0,response7disk_3,TRUE,1,1,"[190,251,92,62,212,279,194,289,192,41,35,53,253,54,198,141,71,56,4,1]",1.899,-17,3,1,0,0,rectangle,0,61,61,103,1,
,,,,,,,,,,,,,FF,,,,,,,,1.134,,,,,,,,,,,,,,,,,,,,,,60fd06ca667e8e5dcbe590f4,61036b0042df8404d1ef0529,2021-07-30_13h00.14.315,Simcolourproject_2stim_asymm_v5,2020.2.10,MacIntel,60,61025ae37ef11b136ea224fe,,,,,,,,,957,122,-57,1,0,0,response3disk,,5,-21,-6,1,0,0,rectangle,-21,-6,1,0,0,,,,,,,-21,-6,1,0,0,,0,62,62,121,1,
,,,,,,,,,,,,,FF,,,,,,,,1.049,,,,,,,,,,,,,,,,,,,,,,60fd06ca667e8e5dcbe590f4,61036b0042df8404d1ef0529,2021-07-30_13h00.14.315,Simcolourproject_2stim_asymm_v5,2020.2.10,MacIntel,60,61025ae37ef11b136ea224fe,,,,,,,,,1440,92,76,1,0,0,response1disk,,6,-8,5,1,0,0,rectangle,-8,5,1,0,0,,,,,,,-8,5,1,0,0,,0,63,63,112,1,
,,,,,,,,,,,,,FF,,,,,,,,0.933,,,,,,,,,,,,,,,,,,,,,,60fd06ca667e8e5dcbe590f4,61036b0042df8404d1ef0529,2021-07-30_13h00.14.315,Simcolourproject_2stim_asymm_v5,2020.2.10,MacIntel,60,61025ae37ef11b136ea224fe,,,,,,,,,1208,48,103,1,0,0,response1disk,,7,15,5,1,0,0,rectangle,15,5,1,0,0,,,,,,,15,5,1,0,0,,0,64,64,159,1,
,,,,,,,,,,,,,FF,,,,,,,,0.8,,,,,,,,,,,,,,,,,,,,,,60fd06ca667e8e5dcbe590f4,61036b0042df8404d1ef0529,2021-07-30_13h00.14.315,Simcolourproject_2stim_asymm_v5,2020.2.10,MacIntel,60,61025ae37ef11b136ea224fe,,,,,,,,,3694,29,90,1,0,0,response1disk,,7,12,6,1,0,0,rectangle,12,6,1,0,0,,,,,,,12,6,1,0,0,,0,65,65,66,1,
,,,,,,,,,,,,,FF,,,,,,,,0.85,,,,,,,,,,,,,,,,,,,,,,60fd06ca667e8e5dcbe590f4,61036b0042df8404d1ef0529,2021-07-30_13h00.14.315,Simcolourproject_2stim_asymm_v5,2020.2.10,MacIntel,60,61025ae37ef11b136ea224fe,,,,,,,,,1299,-63,-112,1,0,0,response5disk,,3,-7,2,1,0,0,rectangle,-7,2,1,0,0,,,,,,,-7,2,1,0,0,,0,66,66,115,1,
,,,,,,,,,,,,,FF,,,,,,,,1.567,,,,,,,,,,,,,,,,,,,,,,60fd06ca667e8e5dcbe590f4,61036b0042df8404d1ef0529,2021-07-30_13h00.14.315,Simcolourproject_2stim_asymm_v5,2020.2.10,MacIntel,60,61025ae37ef11b136ea224fe,,,,,,,,,955,41,112,1,0,0,response1disk,,7,24,11,1,0,0,rectangle,24,11,1,0,0,,,,,,,24,11,1,0,0,,0,67,67,131,1,
,,,,,,,,,,,,,FF,,,,,,,,1.65,,,,,,,,,,,,,,,,,,,,,,60fd06ca667e8e5dcbe590f4,61036b0042df8404d1ef0529,2021-07-30_13h00.14.315,Simcolourproject_2stim_asymm_v5,2020.2.10,MacIntel,60,61025ae37ef11b136ea224fe,,,,,,,,,345,46,-111,1,0,0,response3disk,,4,16,1,1,0,0,rectangle,16,1,1,0,0,,,,,,,16,1,1,0,0,,0,68,68,58,1,
,,,,,,,,,,,,,FF,,,,,,,,1.049,,,,,,,,,,,,,,,,,,,,,,60fd06ca667e8e5dcbe590f4,61036b0042df8404d1ef0529,2021-07-30_13h00.14.315,Simcolourproject_2stim_asymm_v5,2020.2.10,MacIntel,60,61025ae37ef11b136ea224fe,,,,,,,,,3029,46,138,1,0,0,response1disk,,7,22,15,1,0,0,rectangle,22,15,1,0,0,,,,,,,22,15,1,0,0,,0,69,69,29,1,
,,,,,,,,,,,,,FF,,,,,,,,0.934,,,,,,,,,,,,,,,,,,,,,,60fd06ca667e8e5dcbe590f4,61036b0042df8404d1ef0529,2021-07-30_13h00.14.315,Simcolourproject_2stim_asymm_v5,2020.2.10,MacIntel,60,61025ae37ef11b136ea224fe,,,,,,,,,2250,101,-34,1,0,0,response3disk,,5,-7,19,1,0,0,rectangle,-112,-66,1,0,0,response5disk_3,TRUE,2,2,"[190,251,92,62,212,279,194,289,192,41,35,53,253,54,198,141,71,56,4,1]",1.916,21,2,1,0,0,rectangle,0,70,70,94,1,
,,,,,,,,,,,,,FF,,,,,,,,5.35,,,,,,,,,,,,,,,,,,,,,,60fd06ca667e8e5dcbe590f4,61036b0042df8404d1ef0529,2021-07-30_13h00.14.315,Simcolourproject_2stim_asymm_v5,2020.2.10,MacIntel,60,61025ae37ef11b136ea224fe,,,,,,,,,857,39,-94,1,0,0,response3disk,,4,-5,15,1,0,0,rectangle,-5,15,1,0,0,,,,,,,-5,15,1,0,0,,0,71,71,157,1,
,,,,,,,,,,,,,FF,,,,,,,,0.784,,,,,,,,,,,,,,,,,,,,,,60fd06ca667e8e5dcbe590f4,61036b0042df8404d1ef0529,2021-07-30_13h00.14.315,Simcolourproject_2stim_asymm_v5,2020.2.10,MacIntel,60,61025ae37ef11b136ea224fe,,,,,,,,,2083,52,106,1,0,0,response1disk,,7,21,-3,1,0,0,rectangle,21,-3,1,0,0,,,,,,,21,-3,1,0,0,,0,72,72,31,1,
,,,,,,,,,,,,,FF,,,,,,,,1.133,,,,,,,,,,,,,,,,,,,,,,60fd06ca667e8e5dcbe590f4,61036b0042df8404d1ef0529,2021-07-30_13h00.14.315,Simcolourproject_2stim_asymm_v5,2020.2.10,MacIntel,60,61025ae37ef11b136ea224fe,,,,,,,,,4042,83,45,1,0,0,response1disk,,6,11,12,1,0,0,rectangle,11,12,1,0,0,,,,,,,11,12,1,0,0,,0,73,73,28,1,
,,,,,,,,,,,,,FF,,,,,,,,3.049,,,,,,,,,,,,,,,,,,,,,,60fd06ca667e8e5dcbe590f4,61036b0042df8404d1ef0529,2021-07-30_13h00.14.315,Simcolourproject_2stim_asymm_v5,2020.2.10,MacIntel,60,61025ae37ef11b136ea224fe,,,,,,,,,828,108,73,1,0,0,response1disk,,6,-17,-11,1,0,0,rectangle,-17,-11,1,0,0,,,,,,,-17,-11,1,0,0,,0,74,74,101,1,
,,,,,,,,,,,,,FF,,,,,,,,1.283,,,,,,,,,,,,,,,,,,,,,,60fd06ca667e8e5dcbe590f4,61036b0042df8404d1ef0529,2021-07-30_13h00.14.315,Simcolourproject_2stim_asymm_v5,2020.2.10,MacIntel,60,61025ae37ef11b136ea224fe,,,,,,,,,3341,-74,-102,1,0,0,response5disk,,3,-3,8,1,0,0,rectangle,-3,8,1,0,0,,,,,,,-3,8,1,0,0,,0,75,75,3,1,
,,,,,,,,,,,,,FF,,,,,,,,1.049,,,,,,,,,,,,,,,,,,,,,,60fd06ca667e8e5dcbe590f4,61036b0042df8404d1ef0529,2021-07-30_13h00.14.315,Simcolourproject_2stim_asymm_v5,2020.2.10,MacIntel,60,61025ae37ef11b136ea224fe,,,,,,,,,633,-102,-76,1,0,0,response5disk,,2,7,-2,1,0,0,rectangle,7,-2,1,0,0,,,,,,,7,-2,1,0,0,,0,76,76,65,1,
,,,,,,,,,,,,,FF,,,,,,,,1.733,,,,,,,,,,,,,,,,,,,,,,60fd06ca667e8e5dcbe590f4,61036b0042df8404d1ef0529,2021-07-30_13h00.14.315,Simcolourproject_2stim_asymm_v5,2020.2.10,MacIntel,60,61025ae37ef11b136ea224fe,,,,,,,,,4219,-48,-109,1,0,0,response5disk,,3,10,0,1,0,0,rectangle,10,0,1,0,0,,,,,,,10,0,1,0,0,,0,77,77,67,1,
,,,,,,,,,,,,,FF,,,,,,,,0.916,,,,,,,,,,,,,,,,,,,,,,60fd06ca667e8e5dcbe590f4,61036b0042df8404d1ef0529,2021-07-30_13h00.14.315,Simcolourproject_2stim_asymm_v5,2020.2.10,MacIntel,60,61025ae37ef11b136ea224fe,,,,,,,,,1511,90,41,1,0,0,response1disk,,6,24,-5,1,0,0,rectangle,24,-5,1,0,0,,,,,,,24,-5,1,0,0,,0,78,78,130,1,
,,,,,,,,,,,,,FF,,,,,,,,0.766,,,,,,,,,,,,,,,,,,,,,,60fd06ca667e8e5dcbe590f4,61036b0042df8404d1ef0529,2021-07-30_13h00.14.315,Simcolourproject_2stim_asymm_v5,2020.2.10,MacIntel,60,61025ae37ef11b136ea224fe,,,,,,,,,1252,66,132,1,0,0,response1disk,,7,4,2,1,0,0,rectangle,4,2,1,0,0,,,,,,,4,2,1,0,0,,0,79,79,72,1,
,,,,,,,,,,,,,FF,,,,,,,,0.751,,,,,,,,,,,,,,,,,,,,,,60fd06ca667e8e5dcbe590f4,61036b0042df8404d1ef0529,2021-07-30_13h00.14.315,Simcolourproject_2stim_asymm_v5,2020.2.10,MacIntel,60,61025ae37ef11b136ea224fe,,,,,,,,,3527,58,105,1,0,0,response1disk,,7,23,5,1,0,0,rectangle,23,5,1,0,0,,,,,,,23,5,1,0,0,,0,80,80,46,1,
,,,,,,,,,,,,,FF,,,,,,,,1.15,,,,,,,,,,,,,,,,,,,,,,60fd06ca667e8e5dcbe590f4,61036b0042df8404d1ef0529,2021-07-30_13h00.14.315,Simcolourproject_2stim_asymm_v5,2020.2.10,MacIntel,60,61025ae37ef11b136ea224fe,,,,,,,,,2397,93,63,1,0,0,response1disk,,6,28,4,1,0,0,rectangle,28,4,1,0,0,,,,,,,28,4,1,0,0,,0,81,81,149,1,
,,,,,,,,,,,,,FF,,,,,,,,0.767,,,,,,,,,,,,,,,,,,,,,,60fd06ca667e8e5dcbe590f4,61036b0042df8404d1ef0529,2021-07-30_13h00.14.315,Simcolourproject_2stim_asymm_v5,2020.2.10,MacIntel,60,61025ae37ef11b136ea224fe,,,,,,,,,793,48,86,1,0,0,response1disk,,7,23,1,1,0,0,rectangle,23,1,1,0,0,,,,,,,23,1,1,0,0,,0,82,82,145,1,
,,,,,,,,,,,,,FF,,,,,,,,0.633,,,,,,,,,,,,,,,,,,,,,,60fd06ca667e8e5dcbe590f4,61036b0042df8404d1ef0529,2021-07-30_13h00.14.315,Simcolourproject_2stim_asymm_v5,2020.2.10,MacIntel,60,61025ae37ef11b136ea224fe,,,,,,,,,1336,44,91,1,0,0,response1disk,,7,29,-6,1,0,0,rectangle,29,-6,1,0,0,,,,,,,29,-6,1,0,0,,0,83,83,134,1,
,,,,,,,,,,,,,FF,,,,,,,,1.199,,,,,,,,,,,,,,,,,,,,,,60fd06ca667e8e5dcbe590f4,61036b0042df8404d1ef0529,2021-07-30_13h00.14.315,Simcolourproject_2stim_asymm_v5,2020.2.10,MacIntel,60,61025ae37ef11b136ea224fe,,,,,,,,,1246,44,75,1,0,0,response1disk,,7,28,3,1,0,0,rectangle,28,3,1,0,0,,,,,,,28,3,1,0,0,,0,84,84,43,1,
,,,,,,,,,,,,,FF,,,,,,,,0.614,,,,,,,,,,,,,,,,,,,,,,60fd06ca667e8e5dcbe590f4,61036b0042df8404d1ef0529,2021-07-30_13h00.14.315,Simcolourproject_2stim_asymm_v5,2020.2.10,MacIntel,60,61025ae37ef11b136ea224fe,,,,,,,,,4292,35,96,1,0,0,response1disk,,7,12,0,1,0,0,rectangle,12,0,1,0,0,,,,,,,12,0,1,0,0,,0,85,85,53,1,
,,,,,,,,,,,,,FF,,,,,,,,0.817,,,,,,,,,,,,,,,,,,,,,,60fd06ca667e8e5dcbe590f4,61036b0042df8404d1ef0529,2021-07-30_13h00.14.315,Simcolourproject_2stim_asymm_v5,2020.2.10,MacIntel,60,61025ae37ef11b136ea224fe,,,,,,,,,1507,43,89,1,0,0,response1disk,,7,22,6,1,0,0,rectangle,22,6,1,0,0,,,,,,,22,6,1,0,0,,0,86,86,69,1,
,,,,,,,,,,,,,FF,,,,,,,,1.201,,,,,,,,,,,,,,,,,,,,,,60fd06ca667e8e5dcbe590f4,61036b0042df8404d1ef0529,2021-07-30_13h00.14.315,Simcolourproject_2stim_asymm_v5,2020.2.10,MacIntel,60,61025ae37ef11b136ea224fe,,,,,,,,,968,-105,45,1,0,0,response7disk,,1,-11,-11,1,0,0,rectangle,-11,-11,1,0,0,,,,,,,-11,-11,1,0,0,,0,87,87,34,1,
,,,,,,,,,,,,,FF,,,,,,,,0.767,,,,,,,,,,,,,,,,,,,,,,60fd06ca667e8e5dcbe590f4,61036b0042df8404d1ef0529,2021-07-30_13h00.14.315,Simcolourproject_2stim_asymm_v5,2020.2.10,MacIntel,60,61025ae37ef11b136ea224fe,,,,,,,,,3284,-118,-65,1,0,0,response5disk,,2,6,-2,1,0,0,rectangle,6,-2,1,0,0,,,,,,,6,-2,1,0,0,,0,88,88,47,1,
,,,,,,,,,,,,,FF,,,,,,,,1.033,,,,,,,,,,,,,,,,,,,,,,60fd06ca667e8e5dcbe590f4,61036b0042df8404d1ef0529,2021-07-30_13h00.14.315,Simcolourproject_2stim_asymm_v5,2020.2.10,MacIntel,60,61025ae37ef11b136ea224fe,,,,,,,,,3535,86,56,1,0,0,response1disk,,6,13,-1,1,0,0,rectangle,13,-1,1,0,0,,,,,,,13,-1,1,0,0,,0,89,89,100,1,
,,,,,,,,,,,,,FF,,,,,,,,0.833,,,,,,,,,,,,,,,,,,,,,,60fd06ca667e8e5dcbe590f4,61036b0042df8404d1ef0529,2021-07-30_13h00.14.315,Simcolourproject_2stim_asymm_v5,2020.2.10,MacIntel,60,61025ae37ef11b136ea224fe,,,,,,,,,1893,-120,-73,1,0,0,response5disk,,2,14,3,1,0,0,rectangle,14,3,1,0,0,,,,,,,14,3,1,0,0,,0,90,90,91,1,
,,,,,,,,,,,,,FF,,,,,,,,0.733,,,,,,,,,,,,,,,,,,,,,,60fd06ca667e8e5dcbe590f4,61036b0042df8404d1ef0529,2021-07-30_13h00.14.315,Simcolourproject_2stim_asymm_v5,2020.2.10,MacIntel,60,61025ae37ef11b136ea224fe,,,,,,,,,1346,53,98,1,0,0,response1disk,,7,8,-7,1,0,0,rectangle,49,-105,1,0,0,response3disk_3,TRUE,4,4,"[190,251,92,62,212,279,194,289,192,41,35,53,253,54,198,141,71,56,4,1]",1.384,15,-7,1,0,0,rectangle,0,91,91,83,1,
,,,,,,,,,,,,,FF,,,,,,,,1.484,,,,,,,,,,,,,,,,,,,,,,60fd06ca667e8e5dcbe590f4,61036b0042df8404d1ef0529,2021-07-30_13h00.14.315,Simcolourproject_2stim_asymm_v5,2020.2.10,MacIntel,60,61025ae37ef11b136ea224fe,,,,,,,,,3685,106,25,1,0,0,response1disk,,6,15,-9,1,0,0,rectangle,15,-9,1,0,0,,,,,,,15,-9,1,0,0,,0,92,92,80,1,
,,,,,,,,,,,,,FF,,,,,,,,1.332,,,,,,,,,,,,,,,,,,,,,,60fd06ca667e8e5dcbe590f4,61036b0042df8404d1ef0529,2021-07-30_13h00.14.315,Simcolourproject_2stim_asymm_v5,2020.2.10,MacIntel,60,61025ae37ef11b136ea224fe,,,,,,,,,3481,90,-63,1,0,0,response3disk,,5,14,2,1,0,0,rectangle,14,2,1,0,0,,,,,,,14,2,1,0,0,,0,93,93,109,1,
,,,,,,,,,,,,,FF,,,,,,,,0.867,,,,,,,,,,,,,,,,,,,,,,60fd06ca667e8e5dcbe590f4,61036b0042df8404d1ef0529,2021-07-30_13h00.14.315,Simcolourproject_2stim_asymm_v5,2020.2.10,MacIntel,60,61025ae37ef11b136ea224fe,,,,,,,,,2329,51,104,1,0,0,response1disk,,7,8,2,1,0,0,rectangle,8,2,1,0,0,,,,,,,8,2,1,0,0,,0,94,94,51,1,
,,,,,,,,,,,,,FF,,,,,,,,0.716,,,,,,,,,,,,,,,,,,,,,,60fd06ca667e8e5dcbe590f4,61036b0042df8404d1ef0529,2021-07-30_13h00.14.315,Simcolourproject_2stim_asymm_v5,2020.2.10,MacIntel,60,61025ae37ef11b136ea224fe,,,,,,,,,3433,-64,-102,1,0,0,response5disk,,3,3,10,1,0,0,rectangle,3,10,1,0,0,,,,,,,3,10,1,0,0,,0,95,95,139,1,
,,,,,,,,,,,,,FF,,,,,,,,0.717,,,,,,,,,,,,,,,,,,,,,,60fd06ca667e8e5dcbe590f4,61036b0042df8404d1ef0529,2021-07-30_13h00.14.315,Simcolourproject_2stim_asymm_v5,2020.2.10,MacIntel,60,61025ae37ef11b136ea224fe,,,,,,,,,2477,54,123,1,0,0,response1disk,,7,17,3,1,0,0,rectangle,17,3,1,0,0,,,,,,,17,3,1,0,0,,0,96,96,129,1,
,,,,,,,,,,,,,FF,,,,,,,,0.684,,,,,,,,,,,,,,,,,,,,,,60fd06ca667e8e5dcbe590f4,61036b0042df8404d1ef0529,2021-07-30_13h00.14.315,Simcolourproject_2stim_asymm_v5,2020.2.10,MacIntel,60,61025ae37ef11b136ea224fe,,,,,,,,,324,33,80,1,0,0,response1disk,,7,19,3,1,0,0,rectangle,19,3,1,0,0,,,,,,,19,3,1,0,0,,0,97,97,107,1,
,,,,,,,,,,,,,FF,,,,,,,,0.734,,,,,,,,,,,,,,,,,,,,,,60fd06ca667e8e5dcbe590f4,61036b0042df8404d1ef0529,2021-07-30_13h00.14.315,Simcolourproject_2stim_asymm_v5,2020.2.10,MacIntel,60,61025ae37ef11b136ea224fe,,,,,,,,,1938,61,107,1,0,0,response1disk,,7,20,5,1,0,0,rectangle,20,5,1,0,0,,,,,,,20,5,1,0,0,,0,98,98,19,1,
,,,,,,,,,,,,,FF,,,,,,,,0.851,,,,,,,,,,,,,,,,,,,,,,60fd06ca667e8e5dcbe590f4,61036b0042df8404d1ef0529,2021-07-30_13h00.14.315,Simcolourproject_2stim_asymm_v5,2020.2.10,MacIntel,60,61025ae37ef11b136ea224fe,,,,,,,,,4160,47,111,1,0,0,response1disk,,7,26,-5,1,0,0,rectangle,26,-5,1,0,0,,,,,,,26,-5,1,0,0,,0,99,99,97,1,
,,,,,,,,,,,,,FF,,,,,,,,1.45,,,,,,,,,,,,,,,,,,,,,,60fd06ca667e8e5dcbe590f4,61036b0042df8404d1ef0529,2021-07-30_13h00.14.315,Simcolourproject_2stim_asymm_v5,2020.2.10,MacIntel,60,61025ae37ef11b136ea224fe,,,,,,,,,415,52,112,1,0,0,response1disk,,7,25,-3,1,0,0,rectangle,25,-3,1,0,0,,,,,,,25,-3,1,0,0,,0,100,100,6,1,
,,,,,,,,,,,,,FF,,,,,,,,0.668,,,,,,,,,,,,,,,,,,,,,,60fd06ca667e8e5dcbe590f4,61036b0042df8404d1ef0529,2021-07-30_13h00.14.315,Simcolourproject_2stim_asymm_v5,2020.2.10,MacIntel,60,61025ae37ef11b136ea224fe,,,,,,,,,4169,-91,-61,1,0,0,response5disk,,2,-13,0,1,0,0,rectangle,-13,0,1,0,0,,,,,,,-13,0,1,0,0,,0,101,101,76,1,
,,,,,,,,,,,,,FF,,,,,,,,1.584,,,,,,,,,,,,,,,,,,,,,,60fd06ca667e8e5dcbe590f4,61036b0042df8404d1ef0529,2021-07-30_13h00.14.315,Simcolourproject_2stim_asymm_v5,2020.2.10,MacIntel,60,61025ae37ef11b136ea224fe,,,,,,,,,1854,77,-29,1,0,0,response3disk,,5,-13,-15,1,0,0,rectangle,-13,-15,1,0,0,,,,,,,-13,-15,1,0,0,,0,102,102,17,1,
,,,,,,,,,,,,,FF,,,,,,,,0.818,,,,,,,,,,,,,,,,,,,,,,60fd06ca667e8e5dcbe590f4,61036b0042df8404d1ef0529,2021-07-30_13h00.14.315,Simcolourproject_2stim_asymm_v5,2020.2.10,MacIntel,60,61025ae37ef11b136ea224fe,,,,,,,,,549,-128,-64,1,0,0,response5disk,,2,-9,-9,1,0,0,rectangle,-9,-9,1,0,0,,,,,,,-9,-9,1,0,0,,0,103,103,95,1,
,,,,,,,,,,,,,FF,,,,,,,,0.751,,,,,,,,,,,,,,,,,,,,,,60fd06ca667e8e5dcbe590f4,61036b0042df8404d1ef0529,2021-07-30_13h00.14.315,Simcolourproject_2stim_asymm_v5,2020.2.10,MacIntel,60,61025ae37ef11b136ea224fe,,,,,,,,,630,-57,22,1,0,0,response7disk,,1,4,-7,1,0,0,rectangle,4,-7,1,0,0,,,,,,,4,-7,1,0,0,,0,104,104,39,1,
,,,,,,,,,,,,,FF,,,,,,,,0.9,,,,,,,,,,,,,,,,,,,,,,60fd06ca667e8e5dcbe590f4,61036b0042df8404d1ef0529,2021-07-30_13h00.14.315,Simcolourproject_2stim_asymm_v5,2020.2.10,MacIntel,60,61025ae37ef11b136ea224fe,,,,,,,,,56,61,37,1,0,0,response1disk,,6,17,-9,1,0,0,rectangle,17,-9,1,0,0,,,,,,,17,-9,1,0,0,,0,105,105,155,1,
,,,,,,,,,,,,,FF,,,,,,,,1.917,,,,,,,,,,,,,,,,,,,,,,60fd06ca667e8e5dcbe590f4,61036b0042df8404d1ef0529,2021-07-30_13h00.14.315,Simcolourproject_2stim_asymm_v5,2020.2.10,MacIntel,60,61025ae37ef11b136ea224fe,,,,,,,,,1381,95,-61,1,0,0,response3disk,,5,21,-5,1,0,0,rectangle,21,-5,1,0,0,,,,,,,21,-5,1,0,0,,0,106,106,63,1,
,,,,,,,,,,,,,FF,,,,,,,,1.034,,,,,,,,,,,,,,,,,,,,,,60fd06ca667e8e5dcbe590f4,61036b0042df8404d1ef0529,2021-07-30_13h00.14.315,Simcolourproject_2stim_asymm_v5,2020.2.10,MacIntel,60,61025ae37ef11b136ea224fe,,,,,,,,,1355,53,99,1,0,0,response1disk,,7,15,4,1,0,0,rectangle,15,4,1,0,0,,,,,,,15,4,1,0,0,,0,107,107,52,1,
,,,,,,,,,,,,,FF,,,,,,,,0.617,,,,,,,,,,,,,,,,,,,,,,60fd06ca667e8e5dcbe590f4,61036b0042df8404d1ef0529,2021-07-30_13h00.14.315,Simcolourproject_2stim_asymm_v5,2020.2.10,MacIntel,60,61025ae37ef11b136ea224fe,,,,,,,,,453,60,105,1,0,0,response1disk,,7,17,0,1,0,0,rectangle,17,0,1,0,0,,,,,,,17,0,1,0,0,,0,108,108,126,1,
,,,,,,,,,,,,,FF,,,,,,,,0.65,,,,,,,,,,,,,,,,,,,,,,60fd06ca667e8e5dcbe590f4,61036b0042df8404d1ef0529,2021-07-30_13h00.14.315,Simcolourproject_2stim_asymm_v5,2020.2.10,MacIntel,60,61025ae37ef11b136ea224fe,,,,,,,,,3882,-40,-110,1,0,0,response5disk,,3,16,-12,1,0,0,rectangle,16,-12,1,0,0,,,,,,,16,-12,1,0,0,,0,109,109,128,1,
,,,,,,,,,,,,,FF,,,,,,,,0.95,,,,,,,,,,,,,,,,,,,,,,60fd06ca667e8e5dcbe590f4,61036b0042df8404d1ef0529,2021-07-30_13h00.14.315,Simcolourproject_2stim_asymm_v5,2020.2.10,MacIntel,60,61025ae37ef11b136ea224fe,,,,,,,,,1863,53,95,1,0,0,response1disk,,7,23,3,1,0,0,rectangle,23,3,1,0,0,,,,,,,23,3,1,0,0,,0,110,110,26,1,
,,,,,,,,,,,,,FF,,,,,,,,0.716,,,,,,,,,,,,,,,,,,,,,,60fd06ca667e8e5dcbe590f4,61036b0042df8404d1ef0529,2021-07-30_13h00.14.315,Simcolourproject_2stim_asymm_v5,2020.2.10,MacIntel,60,61025ae37ef11b136ea224fe,,,,,,,,,342,52,124,1,0,0,response1disk,,7,19,6,1,0,0,rectangle,19,6,1,0,0,,,,,,,19,6,1,0,0,,0,111,111,33,1,
,,,,,,,,,,,,,FF,,,,,,,,0.633,,,,,,,,,,,,,,,,,,,,,,60fd06ca667e8e5dcbe590f4,61036b0042df8404d1ef0529,2021-07-30_13h00.14.315,Simcolourproject_2stim_asymm_v5,2020.2.10,MacIntel,60,61025ae37ef11b136ea224fe,,,,,,,,,1492,59,110,1,0,0,response1disk,,7,22,-12,1,0,0,rectangle,22,-12,1,0,0,,,,,,,22,-12,1,0,0,,0,112,112,123,1,
,,,,,,,,,,,,,FF,,,,,,,,1.1,,,,,,,,,,,,,,,,,,,,,,60fd06ca667e8e5dcbe590f4,61036b0042df8404d1ef0529,2021-07-30_13h00.14.315,Simcolourproject_2stim_asymm_v5,2020.2.10,MacIntel,60,61025ae37ef11b136ea224fe,,,,,,,,,2826,-81,-53,1,0,0,response5disk,,2,6,-2,1,0,0,rectangle,6,-2,1,0,0,,,,,,,6,-2,1,0,0,,0,113,113,156,1,
,,,,,,,,,,,,,FF,,,,,,,,0.934,,,,,,,,,,,,,,,,,,,,,,60fd06ca667e8e5dcbe590f4,61036b0042df8404d1ef0529,2021-07-30_13h00.14.315,Simcolourproject_2stim_asymm_v5,2020.2.10,MacIntel,60,61025ae37ef11b136ea224fe,,,,,,,,,2149,43,88,1,0,0,response1disk,,7,3,5,1,0,0,rectangle,3,5,1,0,0,,,,,,,3,5,1,0,0,,0,114,114,38,1,
,,,,,,,,,,,,,FF,,,,,,,,1.601,,,,,,,,,,,,,,,,,,,,,,60fd06ca667e8e5dcbe590f4,61036b0042df8404d1ef0529,2021-07-30_13h00.14.315,Simcolourproject_2stim_asymm_v5,2020.2.10,MacIntel,60,61025ae37ef11b136ea224fe,,,,,,,,,1563,62,98,1,0,0,response1disk,,7,23,-14,1,0,0,rectangle,23,-14,1,0,0,,,,,,,23,-14,1,0,0,,0,115,115,57,1,
,,,,,,,,,,,,,FF,,,,,,,,0.733,,,,,,,,,,,,,,,,,,,,,,60fd06ca667e8e5dcbe590f4,61036b0042df8404d1ef0529,2021-07-30_13h00.14.315,Simcolourproject_2stim_asymm_v5,2020.2.10,MacIntel,60,61025ae37ef11b136ea224fe,,,,,,,,,3910,74,-97,1,0,0,response3disk,,4,8,7,1,0,0,rectangle,8,7,1,0,0,,,,,,,8,7,1,0,0,,0,116,116,0,1,
,,,,,,,,,,,,,FF,,,,,,,,0.601,,,,,,,,,,,,,,,,,,,,,,60fd06ca667e8e5dcbe590f4,61036b0042df8404d1ef0529,2021-07-30_13h00.14.315,Simcolourproject_2stim_asymm_v5,2020.2.10,MacIntel,60,61025ae37ef11b136ea224fe,,,,,,,,,1964,-37,-82,1,0,0,response5disk,,3,5,5,1,0,0,rectangle,5,5,1,0,0,,,,,,,5,5,1,0,0,,0,117,117,45,1,
,,,,,,,,,,,,,FF,,,,,,,,0.833,,,,,,,,,,,,,,,,,,,,,,60fd06ca667e8e5dcbe590f4,61036b0042df8404d1ef0529,2021-07-30_13h00.14.315,Simcolourproject_2stim_asymm_v5,2020.2.10,MacIntel,60,61025ae37ef11b136ea224fe,,,,,,,,,3085,47,102,1,0,0,response1disk,,7,19,1,1,0,0,rectangle,19,1,1,0,0,,,,,,,19,1,1,0,0,,0,118,118,120,1,
,,,,,,,,,,,,,FF,,,,,,,,0.601,,,,,,,,,,,,,,,,,,,,,,60fd06ca667e8e5dcbe590f4,61036b0042df8404d1ef0529,2021-07-30_13h00.14.315,Simcolourproject_2stim_asymm_v5,2020.2.10,MacIntel,60,61025ae37ef11b136ea224fe,,,,,,,,,3657,50,82,1,0,0,response1disk,,7,21,11,1,0,0,rectangle,21,11,1,0,0,,,,,,,21,11,1,0,0,,0,119,119,21,1,
,,,,,,,,,,,,,FF,,,,,,,,0.551,,,,,,,,,,,,,,,,,,,,,,60fd06ca667e8e5dcbe590f4,61036b0042df8404d1ef0529,2021-07-30_13h00.14.315,Simcolourproject_2stim_asymm_v5,2020.2.10,MacIntel,60,61025ae37ef11b136ea224fe,,,,,,,,,86,47,89,1,0,0,response1disk,,7,24,-3,1,0,0,rectangle,24,-3,1,0,0,,,,,,,24,-3,1,0,0,,0,120,120,90,1,
,,,,,,,,,,,,,FF,,,,,,,,0.651,,,,,,,,,,,,,,,,,,,,,,60fd06ca667e8e5dcbe590f4,61036b0042df8404d1ef0529,2021-07-30_13h00.14.315,Simcolourproject_2stim_asymm_v5,2020.2.10,MacIntel,60,61025ae37ef11b136ea224fe,,,,,,,,,214,43,86,1,0,0,response1disk,,7,20,6,1,0,0,rectangle,20,6,1,0,0,,,,,,,20,6,1,0,0,,0,121,121,146,1,
,,,,,,,,,,,,,FF,,,,,,,,0.5,,,,,,,,,,,,,,,,,,,,,,60fd06ca667e8e5dcbe590f4,61036b0042df8404d1ef0529,2021-07-30_13h00.14.315,Simcolourproject_2stim_asymm_v5,2020.2.10,MacIntel,60,61025ae37ef11b136ea224fe,,,,,,,,,2702,47,91,1,0,0,response1disk,,7,24,4,1,0,0,rectangle,24,4,1,0,0,,,,,,,24,4,1,0,0,,0,122,122,22,1,
,,,,,,,,,,,,,FF,,,,,,,,0.534,,,,,,,,,,,,,,,,,,,,,,60fd06ca667e8e5dcbe590f4,61036b0042df8404d1ef0529,2021-07-30_13h00.14.315,Simcolourproject_2stim_asymm_v5,2020.2.10,MacIntel,60,61025ae37ef11b136ea224fe,,,,,,,,,2797,41,83,1,0,0,response1disk,,7,21,-12,1,0,0,rectangle,21,-12,1,0,0,,,,,,,21,-12,1,0,0,,0,123,123,133,1,
,,,,,,,,,,,,,FF,,,,,,,,0.783,,,,,,,,,,,,,,,,,,,,,,60fd06ca667e8e5dcbe590f4,61036b0042df8404d1ef0529,2021-07-30_13h00.14.315,Simcolourproject_2stim_asymm_v5,2020.2.10,MacIntel,60,61025ae37ef11b136ea224fe,,,,,,,,,3905,47,92,1,0,0,response1disk,,7,21,-13,1,0,0,rectangle,21,-13,1,0,0,,,,,,,21,-13,1,0,0,,0,124,124,18,1,
,,,,,,,,,,,,,FF,,,,,,,,0.632,,,,,,,,,,,,,,,,,,,,,,60fd06ca667e8e5dcbe590f4,61036b0042df8404d1ef0529,2021-07-30_13h00.14.315,Simcolourproject_2stim_asymm_v5,2020.2.10,MacIntel,60,61025ae37ef11b136ea224fe,,,,,,,,,2904,41,91,1,0,0,response1disk,,7,19,3,1,0,0,rectangle,19,3,1,0,0,,,,,,,19,3,1,0,0,,0,125,125,142,1,
,,,,,,,,,,,,,FF,,,,,,,,1.1,,,,,,,,,,,,,,,,,,,,,,60fd06ca667e8e5dcbe590f4,61036b0042df8404d1ef0529,2021-07-30_13h00.14.315,Simcolourproject_2stim_asymm_v5,2020.2.10,MacIntel,60,61025ae37ef11b136ea224fe,,,,,,,,,3439,61,-105,1,0,0,response3disk,,4,27,-5,1,0,0,rectangle,27,-5,1,0,0,,,,,,,27,-5,1,0,0,,0,126,126,49,1,
,,,,,,,,,,,,,FF,,,,,,,,0.716,,,,,,,,,,,,,,,,,,,,,,60fd06ca667e8e5dcbe590f4,61036b0042df8404d1ef0529,2021-07-30_13h00.14.315,Simcolourproject_2stim_asymm_v5,2020.2.10,MacIntel,60,61025ae37ef11b136ea224fe,,,,,,,,,4225,-61,-122,1,0,0,response5disk,,3,9,0,1,0,0,rectangle,9,0,1,0,0,,,,,,,9,0,1,0,0,,0,127,127,20,1,
,,,,,,,,,,,,,FF,,,,,,,,1.15,,,,,,,,,,,,,,,,,,,,,,60fd06ca667e8e5dcbe590f4,61036b0042df8404d1ef0529,2021-07-30_13h00.14.315,Simcolourproject_2stim_asymm_v5,2020.2.10,MacIntel,60,61025ae37ef11b136ea224fe,,,,,,,,,928,30,98,1,0,0,response1disk,,7,15,-3,1,0,0,rectangle,15,-3,1,0,0,,,,,,,15,-3,1,0,0,,0,128,128,30,1,
,,,,,,,,,,,,,FF,,,,,,,,0.549,,,,,,,,,,,,,,,,,,,,,,60fd06ca667e8e5dcbe590f4,61036b0042df8404d1ef0529,2021-07-30_13h00.14.315,Simcolourproject_2stim_asymm_v5,2020.2.10,MacIntel,60,61025ae37ef11b136ea224fe,,,,,,,,,2813,41,112,1,0,0,response1disk,,7,-4,-21,1,0,0,rectangle,-4,-21,1,0,0,,,,,,,-4,-21,1,0,0,,0,129,129,11,1,
,,,,,,,,,,,,,FF,,,,,,,,0.651,,,,,,,,,,,,,,,,,,,,,,60fd06ca667e8e5dcbe590f4,61036b0042df8404d1ef0529,2021-07-30_13h00.14.315,Simcolourproject_2stim_asymm_v5,2020.2.10,MacIntel,60,61025ae37ef11b136ea224fe,,,,,,,,,3532,56,96,1,0,0,response1disk,,7,-8,-10,1,0,0,rectangle,-8,-10,1,0,0,,,,,,,-8,-10,1,0,0,,0,130,130,54,1,
,,,,,,,,,,,,,FF,,,,,,,,0.834,,,,,,,,,,,,,,,,,,,,,,60fd06ca667e8e5dcbe590f4,61036b0042df8404d1ef0529,2021-07-30_13h00.14.315,Simcolourproject_2stim_asymm_v5,2020.2.10,MacIntel,60,61025ae37ef11b136ea224fe,,,,,,,,,3475,-67,-94,1,0,0,response5disk,,3,-13,0,1,0,0,rectangle,-13,0,1,0,0,,,,,,,-13,0,1,0,0,,0,131,131,9,1,
,,,,,,,,,,,,,FF,,,,,,,,0.949,,,,,,,,,,,,,,,,,,,,,,60fd06ca667e8e5dcbe590f4,61036b0042df8404d1ef0529,2021-07-30_13h00.14.315,Simcolourproject_2stim_asymm_v5,2020.2.10,MacIntel,60,61025ae37ef11b136ea224fe,,,,,,,,,4111,103,-47,1,0,0,response3disk,,5,8,-5,1,0,0,rectangle,8,-5,1,0,0,,,,,,,8,-5,1,0,0,,0,132,132,110,1,
,,,,,,,,,,,,,FF,,,,,,,,0.734,,,,,,,,,,,,,,,,,,,,,,60fd06ca667e8e5dcbe590f4,61036b0042df8404d1ef0529,2021-07-30_13h00.14.315,Simcolourproject_2stim_asymm_v5,2020.2.10,MacIntel,60,61025ae37ef11b136ea224fe,,,,,,,,,424,56,98,1,0,0,response1disk,,7,18,3,1,0,0,rectangle,18,3,1,0,0,,,,,,,18,3,1,0,0,,0,133,133,88,1,
,,,,,,,,,,,,,FF,,,,,,,,0.666,,,,,,,,,,,,,,,,,,,,,,60fd06ca667e8e5dcbe590f4,61036b0042df8404d1ef0529,2021-07-30_13h00.14.315,Simcolourproject_2stim_asymm_v5,2020.2.10,MacIntel,60,61025ae37ef11b136ea224fe,,,,,,,,,1954,34,81,1,0,0,response1disk,,7,10,-6,1,0,0,rectangle,10,-6,1,0,0,,,,,,,10,-6,1,0,0,,0,134,134,87,1,
,,,,,,,,,,,,,FF,,,,,,,,0.55,,,,,,,,,,,,,,,,,,,,,,60fd06ca667e8e5dcbe590f4,61036b0042df8404d1ef0529,2021-07-30_13h00.14.315,Simcolourproject_2stim_asymm_v5,2020.2.10,MacIntel,60,61025ae37ef11b136ea224fe,,,,,,,,,914,41,83,1,0,0,response1disk,,7,12,15,1,0,0,rectangle,12,15,1,0,0,,,,,,,12,15,1,0,0,,0,135,135,153,1,
,,,,,,,,,,,,,FF,,,,,,,,0.484,,,,,,,,,,,,,,,,,,,,,,60fd06ca667e8e5dcbe590f4,61036b0042df8404d1ef0529,2021-07-30_13h00.14.315,Simcolourproject_2stim_asymm_v5,2020.2.10,MacIntel,60,61025ae37ef11b136ea224fe,,,,,,,,,3272,35,116,1,0,0,response1disk,,7,18,16,1,0,0,rectangle,18,16,1,0,0,,,,,,,18,16,1,0,0,,0,136,136,44,1,
,,,,,,,,,,,,,FF,,,,,,,,0.532,,,,,,,,,,,,,,,,,,,,,,60fd06ca667e8e5dcbe590f4,61036b0042df8404d1ef0529,2021-07-30_13h00.14.315,Simcolourproject_2stim_asymm_v5,2020.2.10,MacIntel,60,61025ae37ef11b136ea224fe,,,,,,,,,2084,43,85,1,0,0,response1disk,,7,18,-17,1,0,0,rectangle,18,-17,1,0,0,,,,,,,18,-17,1,0,0,,0,137,137,25,1,
,,,,,,,,,,,,,FF,,,,,,,,0.6,,,,,,,,,,,,,,,,,,,,,,60fd06ca667e8e5dcbe590f4,61036b0042df8404d1ef0529,2021-07-30_13h00.14.315,Simcolourproject_2stim_asymm_v5,2020.2.10,MacIntel,60,61025ae37ef11b136ea224fe,,,,,,,,,3759,35,81,1,0,0,response1disk,,7,10,-15,1,0,0,rectangle,10,-15,1,0,0,,,,,,,10,-15,1,0,0,,0,138,138,59,1,
,,,,,,,,,,,,,FF,,,,,,,,0.967,,,,,,,,,,,,,,,,,,,,,,60fd06ca667e8e5dcbe590f4,61036b0042df8404d1ef0529,2021-07-30_13h00.14.315,Simcolourproject_2stim_asymm_v5,2020.2.10,MacIntel,60,61025ae37ef11b136ea224fe,,,,,,,,,2241,113,43,1,0,0,response1disk,,6,19,5,1,0,0,rectangle,19,5,1,0,0,,,,,,,19,5,1,0,0,,0,139,139,124,1,
,,,,,,,,,,,,,FF,,,,,,,,0.784,,,,,,,,,,,,,,,,,,,,,,60fd06ca667e8e5dcbe590f4,61036b0042df8404d1ef0529,2021-07-30_13h00.14.315,Simcolourproject_2stim_asymm_v5,2020.2.10,MacIntel,60,61025ae37ef11b136ea224fe,,,,,,,,,1248,102,-55,1,0,0,response3disk,,5,27,6,1,0,0,rectangle,44,122,1,0,0,response1disk_3,TRUE,7,7,"[190,251,92,62,212,279,194,289,192,41,35,53,253,54,198,141,71,56,4,1]",2.066,-4,0,1,0,0,rectangle,0,140,140,23,1,
,,,,,,,,,,,,,FF,,,,,,,,0.735,,,,,,,,,,,,,,,,,,,,,,60fd06ca667e8e5dcbe590f4,61036b0042df8404d1ef0529,2021-07-30_13h00.14.315,Simcolourproject_2stim_asymm_v5,2020.2.10,MacIntel,60,61025ae37ef11b136ea224fe,,,,,,,,,309,69,100,1,0,0,response1disk,,7,-5,5,1,0,0,rectangle,-5,5,1,0,0,,,,,,,-5,5,1,0,0,,0,141,141,102,1,
,,,,,,,,,,,,,FF,,,,,,,,0.833,,,,,,,,,,,,,,,,,,,,,,60fd06ca667e8e5dcbe590f4,61036b0042df8404d1ef0529,2021-07-30_13h00.14.315,Simcolourproject_2stim_asymm_v5,2020.2.10,MacIntel,60,61025ae37ef11b136ea224fe,,,,,,,,,222,36,83,1,0,0,response1disk,,7,-5,-4,1,0,0,rectangle,-5,-4,1,0,0,,,,,,,-5,-4,1,0,0,,0,142,142,84,1,
,,,,,,,,,,,,,FF,,,,,,,,1.633,,,,,,,,,,,,,,,,,,,,,,60fd06ca667e8e5dcbe590f4,61036b0042df8404d1ef0529,2021-07-30_13h00.14.315,Simcolourproject_2stim_asymm_v5,2020.2.10,MacIntel,60,61025ae37ef11b136ea224fe,,,,,,,,,3830,109,-80,1,0,0,response3disk,,5,22,5,1,0,0,rectangle,22,5,1,0,0,,,,,,,22,5,1,0,0,,0,143,143,40,1,
,,,,,,,,,,,,,FF,,,,,,,,0.716,,,,,,,,,,,,,,,,,,,,,,60fd06ca667e8e5dcbe590f4,61036b0042df8404d1ef0529,2021-07-30_13h00.14.315,Simcolourproject_2stim_asymm_v5,2020.2.10,MacIntel,60,61025ae37ef11b136ea224fe,,,,,,,,,1367,41,65,1,0,0,response1disk,,7,18,1,1,0,0,rectangle,18,1,1,0,0,,,,,,,18,1,1,0,0,,0,144,144,64,1,
,,,,,,,,,,,,,FF,,,,,,,,1.083,,,,,,,,,,,,,,,,,,,,,,60fd06ca667e8e5dcbe590f4,61036b0042df8404d1ef0529,2021-07-30_13h00.14.315,Simcolourproject_2stim_asymm_v5,2020.2.10,MacIntel,60,61025ae37ef11b136ea224fe,,,,,,,,,1298,-118,-56,1,0,0,response5disk,,2,2,1,1,0,0,rectangle,2,1,1,0,0,,,,,,,2,1,1,0,0,,0,145,145,117,1,
,,,,,,,,,,,,,FF,,,,,,,,0.983,,,,,,,,,,,,,,,,,,,,,,60fd06ca667e8e5dcbe590f4,61036b0042df8404d1ef0529,2021-07-30_13h00.14.315,Simcolourproject_2stim_asymm_v5,2020.2.10,MacIntel,60,61025ae37ef11b136ea224fe,,,,,,,,,1922,57,97,1,0,0,response1disk,,7,34,0,1,0,0,rectangle,34,0,1,0,0,,,,,,,34,0,1,0,0,,0,146,146,36,1,
,,,,,,,,,,,,,FF,,,,,,,,1.083,,,,,,,,,,,,,,,,,,,,,,60fd06ca667e8e5dcbe590f4,61036b0042df8404d1ef0529,2021-07-30_13h00.14.315,Simcolourproject_2stim_asymm_v5,2020.2.10,MacIntel,60,61025ae37ef11b136ea224fe,,,,,,,,,4149,-53,-94,1,0,0,response5disk,,3,-7,-5,1,0,0,rectangle,-7,-5,1,0,0,,,,,,,-7,-5,1,0,0,,0,147,147,144,1,
,,,,,,,,,,,,,FF,,,,,,,,0.951,,,,,,,,,,,,,,,,,,,,,,60fd06ca667e8e5dcbe590f4,61036b0042df8404d1ef0529,2021-07-30_13h00.14.315,Simcolourproject_2stim_asymm_v5,2020.2.10,MacIntel,60,61025ae37ef11b136ea224fe,,,,,,,,,1811,47,-119,1,0,0,response3disk,,4,16,-15,1,0,0,rectangle,16,-15,1,0,0,,,,,,,16,-15,1,0,0,,0,148,148,147,1,
,,,,,,,,,,,,,FF,,,,,,,,0.734,,,,,,,,,,,,,,,,,,,,,,60fd06ca667e8e5dcbe590f4,61036b0042df8404d1ef0529,2021-07-30_13h00.14.315,Simcolourproject_2stim_asymm_v5,2020.2.10,MacIntel,60,61025ae37ef11b136ea224fe,,,,,,,,,4196,48,121,1,0,0,response1disk,,7,7,6,1,0,0,rectangle,7,6,1,0,0,,,,,,,7,6,1,0,0,,0,149,149,42,1,
,,,,,,,,,,,,,FF,,,,,,,,1.201,,,,,,,,,,,,,,,,,,,,,,60fd06ca667e8e5dcbe590f4,61036b0042df8404d1ef0529,2021-07-30_13h00.14.315,Simcolourproject_2stim_asymm_v5,2020.2.10,MacIntel,60,61025ae37ef11b136ea224fe,,,,,,,,,3600,30,80,1,0,0,response1disk,,7,-8,4,1,0,0,rectangle,-8,4,1,0,0,,,,,,,-8,4,1,0,0,,0,150,150,93,1,
,,,,,,,,,,,,,FF,,,,,,,,0.7,,,,,,,,,,,,,,,,,,,,,,60fd06ca667e8e5dcbe590f4,61036b0042df8404d1ef0529,2021-07-30_13h00.14.315,Simcolourproject_2stim_asymm_v5,2020.2.10,MacIntel,60,61025ae37ef11b136ea224fe,,,,,,,,,3077,46,87,1,0,0,response1disk,,7,-7,2,1,0,0,rectangle,-7,2,1,0,0,,,,,,,-7,2,1,0,0,,0,151,151,114,1,
,,,,,,,,,,,,,FF,,,,,,,,0.701,,,,,,,,,,,,,,,,,,,,,,60fd06ca667e8e5dcbe590f4,61036b0042df8404d1ef0529,2021-07-30_13h00.14.315,Simcolourproject_2stim_asymm_v5,2020.2.10,MacIntel,60,61025ae37ef11b136ea224fe,,,,,,,,,101,-43,-108,1,0,0,response5disk,,3,-6,2,1,0,0,rectangle,-6,2,1,0,0,,,,,,,-6,2,1,0,0,,0,152,152,37,1,
,,,,,,,,,,,,,FF,,,,,,,,1.216,,,,,,,,,,,,,,,,,,,,,,60fd06ca667e8e5dcbe590f4,61036b0042df8404d1ef0529,2021-07-30_13h00.14.315,Simcolourproject_2stim_asymm_v5,2020.2.10,MacIntel,60,61025ae37ef11b136ea224fe,,,,,,,,,63,123,-43,1,0,0,response3disk,,5,7,-5,1,0,0,rectangle,7,-5,1,0,0,,,,,,,7,-5,1,0,0,,0,153,153,7,1,
,,,,,,,,,,,,,FF,,,,,,,,1.067,,,,,,,,,,,,,,,,,,,,,,60fd06ca667e8e5dcbe590f4,61036b0042df8404d1ef0529,2021-07-30_13h00.14.315,Simcolourproject_2stim_asymm_v5,2020.2.10,MacIntel,60,61025ae37ef11b136ea224fe,,,,,,,,,3925,45,79,1,0,0,response1disk,,7,2,5,1,0,0,rectangle,2,5,1,0,0,,,,,,,2,5,1,0,0,,0,154,154,70,1,
,,,,,,,,,,,,,FF,,,,,,,,0.599,,,,,,,,,,,,,,,,,,,,,,60fd06ca667e8e5dcbe590f4,61036b0042df8404d1ef0529,2021-07-30_13h00.14.315,Simcolourproject_2stim_asymm_v5,2020.2.10,MacIntel,60,61025ae37ef11b136ea224fe,,,,,,,,,1193,33,77,1,0,0,response1disk,,7,10,-10,1,0,0,rectangle,10,-10,1,0,0,,,,,,,10,-10,1,0,0,,0,155,155,41,1,
,,,,,,,,,,,,,FF,,,,,,,,0.584,,,,,,,,,,,,,,,,,,,,,,60fd06ca667e8e5dcbe590f4,61036b0042df8404d1ef0529,2021-07-30_13h00.14.315,Simcolourproject_2stim_asymm_v5,2020.2.10,MacIntel,60,61025ae37ef11b136ea224fe,,,,,,,,,3878,42,96,1,0,0,response1disk,,7,23,15,1,0,0,rectangle,23,15,1,0,0,,,,,,,23,15,1,0,0,,0,156,156,158,1,
,,,,,,,,,,,,,FF,,,,,,,,0.467,,,,,,,,,,,,,,,,,,,,,,60fd06ca667e8e5dcbe590f4,61036b0042df8404d1ef0529,2021-07-30_13h00.14.315,Simcolourproject_2stim_asymm_v5,2020.2.10,MacIntel,60,61025ae37ef11b136ea224fe,,,,,,,,,3890,48,95,1,0,0,response1disk,,7,27,-3,1,0,0,rectangle,27,-3,1,0,0,,,,,,,27,-3,1,0,0,,0,157,157,81,1,
,,,,,,,,,,,,,FF,,,,,,,,0.8,,,,,,,,,,,,,,,,,,,,,,60fd06ca667e8e5dcbe590f4,61036b0042df8404d1ef0529,2021-07-30_13h00.14.315,Simcolourproject_2stim_asymm_v5,2020.2.10,MacIntel,60,61025ae37ef11b136ea224fe,,,,,,,,,3737,46,75,1,0,0,response1disk,,7,19,14,1,0,0,rectangle,19,14,1,0,0,,,,,,,19,14,1,0,0,,0,158,158,96,1,
,,,,,,,,,,,,,FF,,,,,,,,0.533,,,,,,,,,,,,,,,,,,,,,,60fd06ca667e8e5dcbe590f4,61036b0042df8404d1ef0529,2021-07-30_13h00.14.315,Simcolourproject_2stim_asymm_v5,2020.2.10,MacIntel,60,61025ae37ef11b136ea224fe,,,,,,,,,2992,42,86,1,0,0,response1disk,,7,22,1,1,0,0,rectangle,22,1,1,0,0,,,,,,,22,1,1,0,0,,0,159,159,152,1,
,,,,,,,,,,,,,FF,,,,,,,,0.884,,,,,,,,,,,,,,,,,,,,,,60fd06ca667e8e5dcbe590f4,61036b0042df8404d1ef0529,2021-07-30_13h00.14.315,Simcolourproject_2stim_asymm_v5,2020.2.10,MacIntel,60,61025ae37ef11b136ea224fe,,,,,,,,,2296,-34,-123,1,0,0,response5disk,,3,6,-15,1,0,0,rectangle,6,-15,1,0,0,,,,,,,6,-15,1,0,0,,1,0,160,30,1,
,,,,,,,,,,,,,FF,,,,,,,,0.584,,,,,,,,,,,,,,,,,,,,,,60fd06ca667e8e5dcbe590f4,61036b0042df8404d1ef0529,2021-07-30_13h00.14.315,Simcolourproject_2stim_asymm_v5,2020.2.10,MacIntel,60,61025ae37ef11b136ea224fe,,,,,,,,,2959,43,107,1,0,0,response1disk,,7,11,15,1,0,0,rectangle,11,15,1,0,0,,,,,,,11,15,1,0,0,,1,1,161,1,1,
,,,,,,,,,,,,,FF,,,,,,,,1.1,,,,,,,,,,,,,,,,,,,,,,60fd06ca667e8e5dcbe590f4,61036b0042df8404d1ef0529,2021-07-30_13h00.14.315,Simcolourproject_2stim_asymm_v5,2020.2.10,MacIntel,60,61025ae37ef11b136ea224fe,,,,,,,,,3705,-60,31,1,0,0,response7disk,,1,-5,-6,1,0,0,rectangle,-5,-6,1,0,0,,,,,,,-5,-6,1,0,0,,1,2,162,92,1,
,,,,,,,,,,,,,FF,,,,,,,,0.583,,,,,,,,,,,,,,,,,,,,,,60fd06ca667e8e5dcbe590f4,61036b0042df8404d1ef0529,2021-07-30_13h00.14.315,Simcolourproject_2stim_asymm_v5,2020.2.10,MacIntel,60,61025ae37ef11b136ea224fe,,,,,,,,,3648,22,83,1,0,0,response1disk,,7,-8,-10,1,0,0,rectangle,-8,-10,1,0,0,,,,,,,-8,-10,1,0,0,,1,3,163,158,1,
,,,,,,,,,,,,,FF,,,,,,,,0.683,,,,,,,,,,,,,,,,,,,,,,60fd06ca667e8e5dcbe590f4,61036b0042df8404d1ef0529,2021-07-30_13h00.14.315,Simcolourproject_2stim_asymm_v5,2020.2.10,MacIntel,60,61025ae37ef11b136ea224fe,,,,,,,,,2088,49,83,1,0,0,response1disk,,7,18,13,1,0,0,rectangle,18,13,1,0,0,,,,,,,18,13,1,0,0,,1,4,164,141,1,
,,,,,,,,,,,,,FF,,,,,,,,0.967,,,,,,,,,,,,,,,,,,,,,,60fd06ca667e8e5dcbe590f4,61036b0042df8404d1ef0529,2021-07-30_13h00.14.315,Simcolourproject_2stim_asymm_v5,2020.2.10,MacIntel,60,61025ae37ef11b136ea224fe,,,,,,,,,1144,-66,-109,1,0,0,response5disk,,3,-2,-6,1,0,0,rectangle,-2,-6,1,0,0,,,,,,,-2,-6,1,0,0,,1,5,165,77,1,
,,,,,,,,,,,,,FF,,,,,,,,0.733,,,,,,,,,,,,,,,,,,,,,,60fd06ca667e8e5dcbe590f4,61036b0042df8404d1ef0529,2021-07-30_13h00.14.315,Simcolourproject_2stim_asymm_v5,2020.2.10,MacIntel,60,61025ae37ef11b136ea224fe,,,,,,,,,847,38,91,1,0,0,response1disk,,7,13,4,1,0,0,rectangle,13,4,1,0,0,,,,,,,13,4,1,0,0,,1,6,166,69,1,
,,,,,,,,,,,,,FF,,,,,,,,1.267,,,,,,,,,,,,,,,,,,,,,,60fd06ca667e8e5dcbe590f4,61036b0042df8404d1ef0529,2021-07-30_13h00.14.315,Simcolourproject_2stim_asymm_v5,2020.2.10,MacIntel,60,61025ae37ef11b136ea224fe,,,,,,,,,3469,-96,-39,1,0,0,response5disk,,2,3,-4,1,0,0,rectangle,3,-4,1,0,0,,,,,,,3,-4,1,0,0,,1,7,167,116,1,
,,,,,,,,,,,,,FF,,,,,,,,0.717,,,,,,,,,,,,,,,,,,,,,,60fd06ca667e8e5dcbe590f4,61036b0042df8404d1ef0529,2021-07-30_13h00.14.315,Simcolourproject_2stim_asymm_v5,2020.2.10,MacIntel,60,61025ae37ef11b136ea224fe,,,,,,,,,3236,-46,-114,1,0,0,response5disk,,3,17,-2,1,0,0,rectangle,17,-2,1,0,0,,,,,,,17,-2,1,0,0,,1,8,168,9,1,
,,,,,,,,,,,,,FF,,,,,,,,1.417,,,,,,,,,,,,,,,,,,,,,,60fd06ca667e8e5dcbe590f4,61036b0042df8404d1ef0529,2021-07-30_13h00.14.315,Simcolourproject_2stim_asymm_v5,2020.2.10,MacIntel,60,61025ae37ef11b136ea224fe,,,,,,,,,1249,35,82,1,0,0,response1disk,,7,-14,-3,1,0,0,rectangle,-14,-3,1,0,0,,,,,,,-14,-3,1,0,0,,1,9,169,73,1,
,,,,,,,,,,,,,FF,,,,,,,,2.067,,,,,,,,,,,,,,,,,,,,,,60fd06ca667e8e5dcbe590f4,61036b0042df8404d1ef0529,2021-07-30_13h00.14.315,Simcolourproject_2stim_asymm_v5,2020.2.10,MacIntel,60,61025ae37ef11b136ea224fe,,,,,,,,,813,-34,-117,1,0,0,response5disk,,3,16,6,1,0,0,rectangle,16,6,1,0,0,,,,,,,16,6,1,0,0,,1,10,170,85,1,
,,,,,,,,,,,,,FF,,,,,,,,0.799,,,,,,,,,,,,,,,,,,,,,,60fd06ca667e8e5dcbe590f4,61036b0042df8404d1ef0529,2021-07-30_13h00.14.315,Simcolourproject_2stim_asymm_v5,2020.2.10,MacIntel,60,61025ae37ef11b136ea224fe,,,,,,,,,115,44,-82,1,0,0,response3disk,,4,20,-8,1,0,0,rectangle,20,-8,1,0,0,,,,,,,20,-8,1,0,0,,1,11,171,91,1,
,,,,,,,,,,,,,FF,,,,,,,,0.9,,,,,,,,,,,,,,,,,,,,,,60fd06ca667e8e5dcbe590f4,61036b0042df8404d1ef0529,2021-07-30_13h00.14.315,Simcolourproject_2stim_asymm_v5,2020.2.10,MacIntel,60,61025ae37ef11b136ea224fe,,,,,,,,,3432,-113,-67,1,0,0,response5disk,,2,-32,8,1,0,0,rectangle,-32,8,1,0,0,,,,,,,-32,8,1,0,0,,1,12,172,41,1,
,,,,,,,,,,,,,FF,,,,,,,,0.816,,,,,,,,,,,,,,,,,,,,,,60fd06ca667e8e5dcbe590f4,61036b0042df8404d1ef0529,2021-07-30_13h00.14.315,Simcolourproject_2stim_asymm_v5,2020.2.10,MacIntel,60,61025ae37ef11b136ea224fe,,,,,,,,,756,60,96,1,0,0,response1disk,,7,24,-2,1,0,0,rectangle,24,-2,1,0,0,,,,,,,24,-2,1,0,0,,1,13,173,48,1,
,,,,,,,,,,,,,FF,,,,,,,,0.868,,,,,,,,,,,,,,,,,,,,,,60fd06ca667e8e5dcbe590f4,61036b0042df8404d1ef0529,2021-07-30_13h00.14.315,Simcolourproject_2stim_asymm_v5,2020.2.10,MacIntel,60,61025ae37ef11b136ea224fe,,,,,,,,,4266,-119,44,1,0,0,response7disk,,1,-22,13,1,0,0,rectangle,-22,13,1,0,0,,,,,,,-22,13,1,0,0,,1,14,174,154,1,
,,,,,,,,,,,,,FF,,,,,,,,0.666,,,,,,,,,,,,,,,,,,,,,,60fd06ca667e8e5dcbe590f4,61036b0042df8404d1ef0529,2021-07-30_13h00.14.315,Simcolourproject_2stim_asymm_v5,2020.2.10,MacIntel,60,61025ae37ef11b136ea224fe,,,,,,,,,28,44,65,1,0,0,response1disk,,7,5,-17,1,0,0,rectangle,5,-17,1,0,0,,,,,,,5,-17,1,0,0,,1,15,175,12,1,
,,,,,,,,,,,,,FF,,,,,,,,0.799,,,,,,,,,,,,,,,,,,,,,,60fd06ca667e8e5dcbe590f4,61036b0042df8404d1ef0529,2021-07-30_13h00.14.315,Simcolourproject_2stim_asymm_v5,2020.2.10,MacIntel,60,61025ae37ef11b136ea224fe,,,,,,,,,4203,-71,-132,1,0,0,response5disk,,3,-6,-15,1,0,0,rectangle,-6,-15,1,0,0,,,,,,,-6,-15,1,0,0,,1,16,176,101,1,
,,,,,,,,,,,,,FF,,,,,,,,1.266,,,,,,,,,,,,,,,,,,,,,,60fd06ca667e8e5dcbe590f4,61036b0042df8404d1ef0529,2021-07-30_13h00.14.315,Simcolourproject_2stim_asymm_v5,2020.2.10,MacIntel,60,61025ae37ef11b136ea224fe,,,,,,,,,3412,42,87,1,0,0,response1disk,,7,-15,5,1,0,0,rectangle,-15,5,1,0,0,,,,,,,-15,5,1,0,0,,1,17,177,135,1,
,,,,,,,,,,,,,FF,,,,,,,,0.534,,,,,,,,,,,,,,,,,,,,,,60fd06ca667e8e5dcbe590f4,61036b0042df8404d1ef0529,2021-07-30_13h00.14.315,Simcolourproject_2stim_asymm_v5,2020.2.10,MacIntel,60,61025ae37ef11b136ea224fe,,,,,,,,,3827,40,120,1,0,0,response1disk,,7,11,-9,1,0,0,rectangle,11,-9,1,0,0,,,,,,,11,-9,1,0,0,,1,18,178,15,1,
,,,,,,,,,,,,,FF,,,,,,,,0.8,,,,,,,,,,,,,,,,,,,,,,60fd06ca667e8e5dcbe590f4,61036b0042df8404d1ef0529,2021-07-30_13h00.14.315,Simcolourproject_2stim_asymm_v5,2020.2.10,MacIntel,60,61025ae37ef11b136ea224fe,,,,,,,,,225,28,68,1,0,0,response1disk,,7,10,6,1,0,0,rectangle,10,6,1,0,0,,,,,,,10,6,1,0,0,,1,19,179,155,1,
,,,,,,,,,,,,,FF,,,,,,,,0.451,,,,,,,,,,,,,,,,,,,,,,60fd06ca667e8e5dcbe590f4,61036b0042df8404d1ef0529,2021-07-30_13h00.14.315,Simcolourproject_2stim_asymm_v5,2020.2.10,MacIntel,60,61025ae37ef11b136ea224fe,,,,,,,,,52,48,74,1,0,0,response1disk,,7,17,10,1,0,0,rectangle,17,10,1,0,0,,,,,,,17,10,1,0,0,,1,20,180,125,1,
,,,,,,,,,,,,,FF,,,,,,,,0.767,,,,,,,,,,,,,,,,,,,,,,60fd06ca667e8e5dcbe590f4,61036b0042df8404d1ef0529,2021-07-30_13h00.14.315,Simcolourproject_2stim_asymm_v5,2020.2.10,MacIntel,60,61025ae37ef11b136ea224fe,,,,,,,,,3426,-117,-54,1,0,0,response5disk,,2,-26,-15,1,0,0,rectangle,-26,-15,1,0,0,,,,,,,-26,-15,1,0,0,,1,21,181,49,1,
,,,,,,,,,,,,,FF,,,,,,,,1.234,,,,,,,,,,,,,,,,,,,,,,60fd06ca667e8e5dcbe590f4,61036b0042df8404d1ef0529,2021-07-30_13h00.14.315,Simcolourproject_2stim_asymm_v5,2020.2.10,MacIntel,60,61025ae37ef11b136ea224fe,,,,,,,,,429,34,-121,1,0,0,response3disk,,4,8,12,1,0,0,rectangle,8,12,1,0,0,,,,,,,8,12,1,0,0,,1,22,182,33,1,
,,,,,,,,,,,,,FF,,,,,,,,0.534,,,,,,,,,,,,,,,,,,,,,,60fd06ca667e8e5dcbe590f4,61036b0042df8404d1ef0529,2021-07-30_13h00.14.315,Simcolourproject_2stim_asymm_v5,2020.2.10,MacIntel,60,61025ae37ef11b136ea224fe,,,,,,,,,3581,56,125,1,0,0,response1disk,,7,15,8,1,0,0,rectangle,15,8,1,0,0,,,,,,,15,8,1,0,0,,1,23,183,42,1,
,,,,,,,,,,,,,FF,,,,,,,,0.599,,,,,,,,,,,,,,,,,,,,,,60fd06ca667e8e5dcbe590f4,61036b0042df8404d1ef0529,2021-07-30_13h00.14.315,Simcolourproject_2stim_asymm_v5,2020.2.10,MacIntel,60,61025ae37ef11b136ea224fe,,,,,,,,,1841,45,81,1,0,0,response1disk,,7,24,9,1,0,0,rectangle,24,9,1,0,0,,,,,,,24,9,1,0,0,,1,24,184,39,1,
,,,,,,,,,,,,,FF,,,,,,,,0.866,,,,,,,,,,,,,,,,,,,,,,60fd06ca667e8e5dcbe590f4,61036b0042df8404d1ef0529,2021-07-30_13h00.14.315,Simcolourproject_2stim_asymm_v5,2020.2.10,MacIntel,60,61025ae37ef11b136ea224fe,,,,,,,,,2382,42,73,1,0,0,response1disk,,7,2,-5,1,0,0,rectangle,2,-5,1,0,0,,,,,,,2,-5,1,0,0,,1,25,185,20,1,
,,,,,,,,,,,,,FF,,,,,,,,0.5,,,,,,,,,,,,,,,,,,,,,,60fd06ca667e8e5dcbe590f4,61036b0042df8404d1ef0529,2021-07-30_13h00.14.315,Simcolourproject_2stim_asymm_v5,2020.2.10,MacIntel,60,61025ae37ef11b136ea224fe,,,,,,,,,1518,44,83,1,0,0,response1disk,,7,17,-13,1,0,0,rectangle,17,-13,1,0,0,,,,,,,17,-13,1,0,0,,1,26,186,140,1,
,,,,,,,,,,,,,FF,,,,,,,,0.616,,,,,,,,,,,,,,,,,,,,,,60fd06ca667e8e5dcbe590f4,61036b0042df8404d1ef0529,2021-07-30_13h00.14.315,Simcolourproject_2stim_asymm_v5,2020.2.10,MacIntel,60,61025ae37ef11b136ea224fe,,,,,,,,,572,44,86,1,0,0,response1disk,,7,13,1,1,0,0,rectangle,13,1,1,0,0,,,,,,,13,1,1,0,0,,1,27,187,52,1,
,,,,,,,,,,,,,FF,,,,,,,,0.499,,,,,,,,,,,,,,,,,,,,,,60fd06ca667e8e5dcbe590f4,61036b0042df8404d1ef0529,2021-07-30_13h00.14.315,Simcolourproject_2stim_asymm_v5,2020.2.10,MacIntel,60,61025ae37ef11b136ea224fe,,,,,,,,,1389,50,94,1,0,0,response1disk,,7,24,11,1,0,0,rectangle,24,11,1,0,0,,,,,,,24,11,1,0,0,,1,28,188,51,1,
,,,,,,,,,,,,,FF,,,,,,,,0.949,,,,,,,,,,,,,,,,,,,,,,60fd06ca667e8e5dcbe590f4,61036b0042df8404d1ef0529,2021-07-30_13h00.14.315,Simcolourproject_2stim_asymm_v5,2020.2.10,MacIntel,60,61025ae37ef11b136ea224fe,,,,,,,,,3054,34,-119,1,0,0,response3disk,,4,16,-4,1,0,0,rectangle,32,-98,1,0,0,response3disk_3,TRUE,4,4,"[190,251,92,62,212,279,194,289,192,41,35,53,253,54,198,141,71,56,4,1]",1.35,6,0,1,0,0,rectangle,1,29,189,79,1,
,,,,,,,,,,,,,FF,,,,,,,,0.667,,,,,,,,,,,,,,,,,,,,,,60fd06ca667e8e5dcbe590f4,61036b0042df8404d1ef0529,2021-07-30_13h00.14.315,Simcolourproject_2stim_asymm_v5,2020.2.10,MacIntel,60,61025ae37ef11b136ea224fe,,,,,,,,,4172,61,98,1,0,0,response1disk,,7,9,-4,1,0,0,rectangle,9,-4,1,0,0,,,,,,,9,-4,1,0,0,,1,30,190,134,1,
,,,,,,,,,,,,,FF,,,,,,,,1.017,,,,,,,,,,,,,,,,,,,,,,60fd06ca667e8e5dcbe590f4,61036b0042df8404d1ef0529,2021-07-30_13h00.14.315,Simcolourproject_2stim_asymm_v5,2020.2.10,MacIntel,60,61025ae37ef11b136ea224fe,,,,,,,,,304,62,-81,1,0,0,response3disk,,4,35,9,1,0,0,rectangle,53,-75,1,0,0,response3disk_3,TRUE,4,4,"[190,251,92,62,212,279,194,289,192,41,35,53,253,54,198,141,71,56,4,1]",1.234,11,3,1,0,0,rectangle,1,31,191,89,1,
,,,,,,,,,,,,,FF,,,,,,,,1.634,,,,,,,,,,,,,,,,,,,,,,60fd06ca667e8e5dcbe590f4,61036b0042df8404d1ef0529,2021-07-30_13h00.14.315,Simcolourproject_2stim_asymm_v5,2020.2.10,MacIntel,60,61025ae37ef11b136ea224fe,,,,,,,,,1619,36,63,1,0,0,response1disk,,7,-8,2,1,0,0,rectangle,-8,2,1,0,0,,,,,,,-8,2,1,0,0,,1,32,192,129,1,
,,,,,,,,,,,,,FF,,,,,,,,0.5,,,,,,,,,,,,,,,,,,,,,,60fd06ca667e8e5dcbe590f4,61036b0042df8404d1ef0529,2021-07-30_13h00.14.315,Simcolourproject_2stim_asymm_v5,2020.2.10,MacIntel,60,61025ae37ef11b136ea224fe,,,,,,,,,4272,30,75,1,0,0,response1disk,,7,1,-15,1,0,0,rectangle,-50,86,1,0,0,response7disk_3,TRUE,0,0,"[190,251,92,62,212,279,194,289,192,41,35,53,253,54,198,141,71,56,4,1]",1.433,-16,-18,1,0,0,rectangle,1,33,193,127,1,
,,,,,,,,,,,,,FF,,,,,,,,0.7,,,,,,,,,,,,,,,,,,,,,,60fd06ca667e8e5dcbe590f4,61036b0042df8404d1ef0529,2021-07-30_13h00.14.315,Simcolourproject_2stim_asymm_v5,2020.2.10,MacIntel,60,61025ae37ef11b136ea224fe,,,,,,,,,1328,48,100,1,0,0,response1disk,,7,8,10,1,0,0,rectangle,8,10,1,0,0,,,,,,,8,10,1,0,0,,1,34,194,7,1,
,,,,,,,,,,,,,FF,,,,,,,,0.767,,,,,,,,,,,,,,,,,,,,,,60fd06ca667e8e5dcbe590f4,61036b0042df8404d1ef0529,2021-07-30_13h00.14.315,Simcolourproject_2stim_asymm_v5,2020.2.10,MacIntel,60,61025ae37ef11b136ea224fe,,,,,,,,,768,42,92,1,0,0,response1disk,,7,17,1,1,0,0,rectangle,17,1,1,0,0,,,,,,,17,1,1,0,0,,1,35,195,82,1,
,,,,,,,,,,,,,FF,,,,,,,,0.734,,,,,,,,,,,,,,,,,,,,,,60fd06ca667e8e5dcbe590f4,61036b0042df8404d1ef0529,2021-07-30_13h00.14.315,Simcolourproject_2stim_asymm_v5,2020.2.10,MacIntel,60,61025ae37ef11b136ea224fe,,,,,,,,,3393,-36,-105,1,0,0,response5disk,,3,26,9,1,0,0,rectangle,26,9,1,0,0,,,,,,,26,9,1,0,0,,1,36,196,78,1,
,,,,,,,,,,,,,FF,,,,,,,,5.967,,,,,,,,,,,,,,,,,,,,,,60fd06ca667e8e5dcbe590f4,61036b0042df8404d1ef0529,2021-07-30_13h00.14.315,Simcolourproject_2stim_asymm_v5,2020.2.10,MacIntel,60,61025ae37ef11b136ea224fe,,,,,,,,,1312,78,28,1,0,0,response1disk,,6,8,-13,1,0,0,rectangle,106,-61,1,0,0,response3disk_3,TRUE,5,5,"[190,251,92,62,212,279,194,289,192,41,35,53,253,54,198,141,71,56,4,1]",1.749,18,5,1,0,0,rectangle,1,37,197,139,1,
,,,,,,,,,,,,,FF,,,,,,,,1,,,,,,,,,,,,,,,,,,,,,,60fd06ca667e8e5dcbe590f4,61036b0042df8404d1ef0529,2021-07-30_13h00.14.315,Simcolourproject_2stim_asymm_v5,2020.2.10,MacIntel,60,61025ae37ef11b136ea224fe,,,,,,,,,431,40,-104,1,0,0,response3disk,,4,22,-6,1,0,0,rectangle,22,-6,1,0,0,,,,,,,22,-6,1,0,0,,1,38,198,55,1,
,,,,,,,,,,,,,FF,,,,,,,,0.834,,,,,,,,,,,,,,,,,,,,,,60fd06ca667e8e5dcbe590f4,61036b0042df8404d1ef0529,2021-07-30_13h00.14.315,Simcolourproject_2stim_asymm_v5,2020.2.10,MacIntel,60,61025ae37ef11b136ea224fe,,,,,,,,,393,114,53,1,0,0,response1disk,,6,16,8,1,0,0,rectangle,16,8,1,0,0,,,,,,,16,8,1,0,0,,1,39,199,14,1,
,,,,,,,,,,,,,FF,,,,,,,,0.568,,,,,,,,,,,,,,,,,,,,,,60fd06ca667e8e5dcbe590f4,61036b0042df8404d1ef0529,2021-07-30_13h00.14.315,Simcolourproject_2stim_asymm_v5,2020.2.10,MacIntel,60,61025ae37ef11b136ea224fe,,,,,,,,,132,46,97,1,0,0,response1disk,,7,11,5,1,0,0,rectangle,11,5,1,0,0,,,,,,,11,5,1,0,0,,1,40,200,4,1,
,,,,,,,,,,,,,FF,,,,,,,,0.901,,,,,,,,,,,,,,,,,,,,,,60fd06ca667e8e5dcbe590f4,61036b0042df8404d1ef0529,2021-07-30_13h00.14.315,Simcolourproject_2stim_asymm_v5,2020.2.10,MacIntel,60,61025ae37ef11b136ea224fe,,,,,,,,,1033,105,49,1,0,0,response1disk,,6,21,-10,1,0,0,rectangle,21,-10,1,0,0,,,,,,,21,-10,1,0,0,,1,41,201,120,1,
,,,,,,,,,,,,,FF,,,,,,,,0.867,,,,,,,,,,,,,,,,,,,,,,60fd06ca667e8e5dcbe590f4,61036b0042df8404d1ef0529,2021-07-30_13h00.14.315,Simcolourproject_2stim_asymm_v5,2020.2.10,MacIntel,60,61025ae37ef11b136ea224fe,,,,,,,,,2668,-45,-112,1,0,0,response5disk,,3,-3,-21,1,0,0,rectangle,-3,-21,1,0,0,,,,,,,-3,-21,1,0,0,,1,42,202,76,1,
,,,,,,,,,,,,,FF,,,,,,,,0.701,,,,,,,,,,,,,,,,,,,,,,60fd06ca667e8e5dcbe590f4,61036b0042df8404d1ef0529,2021-07-30_13h00.14.315,Simcolourproject_2stim_asymm_v5,2020.2.10,MacIntel,60,61025ae37ef11b136ea224fe,,,,,,,,,1968,45,-77,1,0,0,response3disk,,4,29,12,1,0,0,rectangle,29,12,1,0,0,,,,,,,29,12,1,0,0,,1,43,203,113,1,
,,,,,,,,,,,,,FF,,,,,,,,0.683,,,,,,,,,,,,,,,,,,,,,,60fd06ca667e8e5dcbe590f4,61036b0042df8404d1ef0529,2021-07-30_13h00.14.315,Simcolourproject_2stim_asymm_v5,2020.2.10,MacIntel,60,61025ae37ef11b136ea224fe,,,,,,,,,286,61,-46,1,0,0,response3disk,,5,14,-4,1,0,0,rectangle,14,-4,1,0,0,,,,,,,14,-4,1,0,0,,1,44,204,67,1,
,,,,,,,,,,,,,FF,,,,,,,,0.684,,,,,,,,,,,,,,,,,,,,,,60fd06ca667e8e5dcbe590f4,61036b0042df8404d1ef0529,2021-07-30_13h00.14.315,Simcolourproject_2stim_asymm_v5,2020.2.10,MacIntel,60,61025ae37ef11b136ea224fe,,,,,,,,,295,131,-64,1,0,0,response3disk,,5,13,6,1,0,0,rectangle,13,6,1,0,0,,,,,,,13,6,1,0,0,,1,45,205,59,1,
,,,,,,,,,,,,,FF,,,,,,,,1.767,,,,,,,,,,,,,,,,,,,,,,60fd06ca667e8e5dcbe590f4,61036b0042df8404d1ef0529,2021-07-30_13h00.14.315,Simcolourproject_2stim_asymm_v5,2020.2.10,MacIntel,60,61025ae37ef11b136ea224fe,,,,,,,,,1593,92,42,1,0,0,response1disk,,6,9,11,1,0,0,rectangle,9,11,1,0,0,,,,,,,9,11,1,0,0,,1,46,206,22,1,
,,,,,,,,,,,,,FF,,,,,,,,0.583,,,,,,,,,,,,,,,,,,,,,,60fd06ca667e8e5dcbe590f4,61036b0042df8404d1ef0529,2021-07-30_13h00.14.315,Simcolourproject_2stim_asymm_v5,2020.2.10,MacIntel,60,61025ae37ef11b136ea224fe,,,,,,,,,4296,49,64,1,0,0,response1disk,,7,-9,-7,1,0,0,rectangle,-9,-7,1,0,0,,,,,,,-9,-7,1,0,0,,1,47,207,90,1,
,,,,,,,,,,,,,FF,,,,,,,,0.766,,,,,,,,,,,,,,,,,,,,,,60fd06ca667e8e5dcbe590f4,61036b0042df8404d1ef0529,2021-07-30_13h00.14.315,Simcolourproject_2stim_asymm_v5,2020.2.10,MacIntel,60,61025ae37ef11b136ea224fe,,,,,,,,,1953,53,76,1,0,0,response1disk,,7,13,11,1,0,0,rectangle,13,11,1,0,0,,,,,,,13,11,1,0,0,,1,48,208,83,1,
,,,,,,,,,,,,,FF,,,,,,,,0.616,,,,,,,,,,,,,,,,,,,,,,60fd06ca667e8e5dcbe590f4,61036b0042df8404d1ef0529,2021-07-30_13h00.14.315,Simcolourproject_2stim_asymm_v5,2020.2.10,MacIntel,60,61025ae37ef11b136ea224fe,,,,,,,,,4064,34,89,1,0,0,response1disk,,7,2,11,1,0,0,rectangle,2,11,1,0,0,,,,,,,2,11,1,0,0,,1,49,209,107,1,
,,,,,,,,,,,,,FF,,,,,,,,0.649,,,,,,,,,,,,,,,,,,,,,,60fd06ca667e8e5dcbe590f4,61036b0042df8404d1ef0529,2021-07-30_13h00.14.315,Simcolourproject_2stim_asymm_v5,2020.2.10,MacIntel,60,61025ae37ef11b136ea224fe,,,,,,,,,1550,45,89,1,0,0,response1disk,,7,16,2,1,0,0,rectangle,16,2,1,0,0,,,,,,,16,2,1,0,0,,1,50,210,152,1,
,,,,,,,,,,,,,FF,,,,,,,,0.901,,,,,,,,,,,,,,,,,,,,,,60fd06ca667e8e5dcbe590f4,61036b0042df8404d1ef0529,2021-07-30_13h00.14.315,Simcolourproject_2stim_asymm_v5,2020.2.10,MacIntel,60,61025ae37ef11b136ea224fe,,,,,,,,,3964,35,83,1,0,0,response1disk,,7,-7,-6,1,0,0,rectangle,40,65,1,0,0,response1disk_3,TRUE,7,0,"[190,251,92,62,212,279,194,289,192,41,35,53,253,54,198,141,71,56,4,1]",1.516,12,1,1,0,0,rectangle,1,51,211,21,1,
,,,,,,,,,,,,,FF,,,,,,,,0.617,,,,,,,,,,,,,,,,,,,,,,60fd06ca667e8e5dcbe590f4,61036b0042df8404d1ef0529,2021-07-30_13h00.14.315,Simcolourproject_2stim_asymm_v5,2020.2.10,MacIntel,60,61025ae37ef11b136ea224fe,,,,,,,,,2118,38,72,1,0,0,response1disk,,7,15,6,1,0,0,rectangle,15,6,1,0,0,,,,,,,15,6,1,0,0,,1,52,212,36,1,
,,,,,,,,,,,,,FF,,,,,,,,0.816,,,,,,,,,,,,,,,,,,,,,,60fd06ca667e8e5dcbe590f4,61036b0042df8404d1ef0529,2021-07-30_13h00.14.315,Simcolourproject_2stim_asymm_v5,2020.2.10,MacIntel,60,61025ae37ef11b136ea224fe,,,,,,,,,616,98,-74,1,0,0,response3disk,,5,15,2,1,0,0,rectangle,15,2,1,0,0,,,,,,,15,2,1,0,0,,1,53,213,10,1,
,,,,,,,,,,,,,FF,,,,,,,,0.799,,,,,,,,,,,,,,,,,,,,,,60fd06ca667e8e5dcbe590f4,61036b0042df8404d1ef0529,2021-07-30_13h00.14.315,Simcolourproject_2stim_asymm_v5,2020.2.10,MacIntel,60,61025ae37ef11b136ea224fe,,,,,,,,,4264,46,78,1,0,0,response1disk,,7,20,2,1,0,0,rectangle,20,2,1,0,0,,,,,,,20,2,1,0,0,,1,54,214,159,1,
,,,,,,,,,,,,,FF,,,,,,,,1.034,,,,,,,,,,,,,,,,,,,,,,60fd06ca667e8e5dcbe590f4,61036b0042df8404d1ef0529,2021-07-30_13h00.14.315,Simcolourproject_2stim_asymm_v5,2020.2.10,MacIntel,60,61025ae37ef11b136ea224fe,,,,,,,,,1044,87,-64,1,0,0,response3disk,,5,16,-7,1,0,0,rectangle,16,-7,1,0,0,,,,,,,16,-7,1,0,0,,1,55,215,119,1,
,,,,,,,,,,,,,FF,,,,,,,,0.95,,,,,,,,,,,,,,,,,,,,,,60fd06ca667e8e5dcbe590f4,61036b0042df8404d1ef0529,2021-07-30_13h00.14.315,Simcolourproject_2stim_asymm_v5,2020.2.10,MacIntel,60,61025ae37ef11b136ea224fe,,,,,,,,,3796,44,87,1,0,0,response1disk,,7,15,7,1,0,0,rectangle,15,7,1,0,0,,,,,,,15,7,1,0,0,,1,56,216,143,1,
,,,,,,,,,,,,,FF,,,,,,,,1.618,,,,,,,,,,,,,,,,,,,,,,60fd06ca667e8e5dcbe590f4,61036b0042df8404d1ef0529,2021-07-30_13h00.14.315,Simcolourproject_2stim_asymm_v5,2020.2.10,MacIntel,60,61025ae37ef11b136ea224fe,,,,,,,,,2936,45,70,1,0,0,response1disk,,7,17,-3,1,0,0,rectangle,17,-3,1,0,0,,,,,,,17,-3,1,0,0,,1,57,217,94,1,
,,,,,,,,,,,,,FF,,,,,,,,0.684,,,,,,,,,,,,,,,,,,,,,,60fd06ca667e8e5dcbe590f4,61036b0042df8404d1ef0529,2021-07-30_13h00.14.315,Simcolourproject_2stim_asymm_v5,2020.2.10,MacIntel,60,61025ae37ef11b136ea224fe,,,,,,,,,2020,18,86,1,0,0,response1disk,,7,-8,0,1,0,0,rectangle,-8,0,1,0,0,,,,,,,-8,0,1,0,0,,1,58,218,124,1,
,,,,,,,,,,,,,FF,,,,,,,,0.7,,,,,,,,,,,,,,,,,,,,,,60fd06ca667e8e5dcbe590f4,61036b0042df8404d1ef0529,2021-07-30_13h00.14.315,Simcolourproject_2stim_asymm_v5,2020.2.10,MacIntel,60,61025ae37ef11b136ea224fe,,,,,,,,,3487,33,81,1,0,0,response1disk,,7,9,19,1,0,0,rectangle,9,19,1,0,0,,,,,,,9,19,1,0,0,,1,59,219,13,1,
,,,,,,,,,,,,,FF,,,,,,,,0.516,,,,,,,,,,,,,,,,,,,,,,60fd06ca667e8e5dcbe590f4,61036b0042df8404d1ef0529,2021-07-30_13h00.14.315,Simcolourproject_2stim_asymm_v5,2020.2.10,MacIntel,60,61025ae37ef11b136ea224fe,,,,,,,,,4063,42,85,1,0,0,response1disk,,7,5,11,1,0,0,rectangle,5,11,1,0,0,,,,,,,5,11,1,0,0,,1,60,220,54,1,
,,,,,,,,,,,,,FF,,,,,,,,0.584,,,,,,,,,,,,,,,,,,,,,,60fd06ca667e8e5dcbe590f4,61036b0042df8404d1ef0529,2021-07-30_13h00.14.315,Simcolourproject_2stim_asymm_v5,2020.2.10,MacIntel,60,61025ae37ef11b136ea224fe,,,,,,,,,935,60,85,1,0,0,response1disk,,7,20,10,1,0,0,rectangle,20,10,1,0,0,,,,,,,20,10,1,0,0,,1,61,221,128,1,
,,,,,,,,,,,,,FF,,,,,,,,0.785,,,,,,,,,,,,,,,,,,,,,,60fd06ca667e8e5dcbe590f4,61036b0042df8404d1ef0529,2021-07-30_13h00.14.315,Simcolourproject_2stim_asymm_v5,2020.2.10,MacIntel,60,61025ae37ef11b136ea224fe,,,,,,,,,957,88,49,1,0,0,response1disk,,6,-18,7,1,0,0,rectangle,-18,7,1,0,0,,,,,,,-18,7,1,0,0,,1,62,222,109,1,
,,,,,,,,,,,,,FF,,,,,,,,0.982,,,,,,,,,,,,,,,,,,,,,,60fd06ca667e8e5dcbe590f4,61036b0042df8404d1ef0529,2021-07-30_13h00.14.315,Simcolourproject_2stim_asymm_v5,2020.2.10,MacIntel,60,61025ae37ef11b136ea224fe,,,,,,,,,1440,87,42,1,0,0,response1disk,,6,-15,-7,1,0,0,rectangle,-15,-7,1,0,0,,,,,,,-15,-7,1,0,0,,1,63,223,99,1,
,,,,,,,,,,,,,FF,,,,,,,,0.817,,,,,,,,,,,,,,,,,,,,,,60fd06ca667e8e5dcbe590f4,61036b0042df8404d1ef0529,2021-07-30_13h00.14.315,Simcolourproject_2stim_asymm_v5,2020.2.10,MacIntel,60,61025ae37ef11b136ea224fe,,,,,,,,,1208,68,-43,1,0,0,response3disk,,5,26,-9,1,0,0,rectangle,26,-9,1,0,0,,,,,,,26,-9,1,0,0,,1,64,224,117,1,
,,,,,,,,,,,,,FF,,,,,,,,0.751,,,,,,,,,,,,,,,,,,,,,,60fd06ca667e8e5dcbe590f4,61036b0042df8404d1ef0529,2021-07-30_13h00.14.315,Simcolourproject_2stim_asymm_v5,2020.2.10,MacIntel,60,61025ae37ef11b136ea224fe,,,,,,,,,3694,51,64,1,0,0,response1disk,,7,27,16,1,0,0,rectangle,27,16,1,0,0,,,,,,,27,16,1,0,0,,1,65,225,118,1,
,,,,,,,,,,,,,FF,,,,,,,,0.9,,,,,,,,,,,,,,,,,,,,,,60fd06ca667e8e5dcbe590f4,61036b0042df8404d1ef0529,2021-07-30_13h00.14.315,Simcolourproject_2stim_asymm_v5,2020.2.10,MacIntel,60,61025ae37ef11b136ea224fe,,,,,,,,,1299,-67,-125,1,0,0,response5disk,,3,-30,-11,1,0,0,rectangle,-30,-11,1,0,0,,,,,,,-30,-11,1,0,0,,1,66,226,38,1,
,,,,,,,,,,,,,FF,,,,,,,,0.933,,,,,,,,,,,,,,,,,,,,,,60fd06ca667e8e5dcbe590f4,61036b0042df8404d1ef0529,2021-07-30_13h00.14.315,Simcolourproject_2stim_asymm_v5,2020.2.10,MacIntel,60,61025ae37ef11b136ea224fe,,,,,,,,,955,38,95,1,0,0,response1disk,,7,10,3,1,0,0,rectangle,10,3,1,0,0,,,,,,,10,3,1,0,0,,1,67,227,66,1,
,,,,,,,,,,,,,FF,,,,,,,,1.016,,,,,,,,,,,,,,,,,,,,,,60fd06ca667e8e5dcbe590f4,61036b0042df8404d1ef0529,2021-07-30_13h00.14.315,Simcolourproject_2stim_asymm_v5,2020.2.10,MacIntel,60,61025ae37ef11b136ea224fe,,,,,,,,,345,-63,-118,1,0,0,response5disk,,3,-5,-3,1,0,0,rectangle,-5,-3,1,0,0,,,,,,,-5,-3,1,0,0,,1,68,228,153,1,
,,,,,,,,,,,,,FF,,,,,,,,0.584,,,,,,,,,,,,,,,,,,,,,,60fd06ca667e8e5dcbe590f4,61036b0042df8404d1ef0529,2021-07-30_13h00.14.315,Simcolourproject_2stim_asymm_v5,2020.2.10,MacIntel,60,61025ae37ef11b136ea224fe,,,,,,,,,3029,49,93,1,0,0,response1disk,,7,15,10,1,0,0,rectangle,15,10,1,0,0,,,,,,,15,10,1,0,0,,1,69,229,115,1,
,,,,,,,,,,,,,FF,,,,,,,,0.75,,,,,,,,,,,,,,,,,,,,,,60fd06ca667e8e5dcbe590f4,61036b0042df8404d1ef0529,2021-07-30_13h00.14.315,Simcolourproject_2stim_asymm_v5,2020.2.10,MacIntel,60,61025ae37ef11b136ea224fe,,,,,,,,,2250,27,-95,1,0,0,response3disk,,4,-9,8,1,0,0,rectangle,-9,8,1,0,0,,,,,,,-9,8,1,0,0,,1,70,230,103,1,
,,,,,,,,,,,,,FF,,,,,,,,0.684,,,,,,,,,,,,,,,,,,,,,,60fd06ca667e8e5dcbe590f4,61036b0042df8404d1ef0529,2021-07-30_13h00.14.315,Simcolourproject_2stim_asymm_v5,2020.2.10,MacIntel,60,61025ae37ef11b136ea224fe,,,,,,,,,857,32,69,1,0,0,response1disk,,7,5,4,1,0,0,rectangle,5,4,1,0,0,,,,,,,5,4,1,0,0,,1,71,231,145,1,
,,,,,,,,,,,,,FF,,,,,,,,0.718,,,,,,,,,,,,,,,,,,,,,,60fd06ca667e8e5dcbe590f4,61036b0042df8404d1ef0529,2021-07-30_13h00.14.315,Simcolourproject_2stim_asymm_v5,2020.2.10,MacIntel,60,61025ae37ef11b136ea224fe,,,,,,,,,2083,45,80,1,0,0,response1disk,,7,22,14,1,0,0,rectangle,22,14,1,0,0,,,,,,,22,14,1,0,0,,1,72,232,147,1,
,,,,,,,,,,,,,FF,,,,,,,,1.08,,,,,,,,,,,,,,,,,,,,,,60fd06ca667e8e5dcbe590f4,61036b0042df8404d1ef0529,2021-07-30_13h00.14.315,Simcolourproject_2stim_asymm_v5,2020.2.10,MacIntel,60,61025ae37ef11b136ea224fe,,,,,,,,,4042,95,-38,1,0,0,response3disk,,5,14,4,1,0,0,rectangle,14,4,1,0,0,,,,,,,14,4,1,0,0,,1,73,233,148,1,
,,,,,,,,,,,,,FF,,,,,,,,0.85,,,,,,,,,,,,,,,,,,,,,,60fd06ca667e8e5dcbe590f4,61036b0042df8404d1ef0529,2021-07-30_13h00.14.315,Simcolourproject_2stim_asymm_v5,2020.2.10,MacIntel,60,61025ae37ef11b136ea224fe,,,,,,,,,828,99,-61,1,0,0,response3disk,,5,18,-13,1,0,0,rectangle,18,-13,1,0,0,,,,,,,18,-13,1,0,0,,1,74,234,58,1,
,,,,,,,,,,,,,FF,,,,,,,,1.2,,,,,,,,,,,,,,,,,,,,,,60fd06ca667e8e5dcbe590f4,61036b0042df8404d1ef0529,2021-07-30_13h00.14.315,Simcolourproject_2stim_asymm_v5,2020.2.10,MacIntel,60,61025ae37ef11b136ea224fe,,,,,,,,,3341,-103,-57,1,0,0,response5disk,,2,-25,-12,1,0,0,rectangle,-25,-12,1,0,0,,,,,,,-25,-12,1,0,0,,1,75,235,68,1,
,,,,,,,,,,,,,FF,,,,,,,,0.751,,,,,,,,,,,,,,,,,,,,,,60fd06ca667e8e5dcbe590f4,61036b0042df8404d1ef0529,2021-07-30_13h00.14.315,Simcolourproject_2stim_asymm_v5,2020.2.10,MacIntel,60,61025ae37ef11b136ea224fe,,,,,,,,,633,-81,-32,1,0,0,response5disk,,2,-5,13,1,0,0,rectangle,-5,13,1,0,0,,,,,,,-5,13,1,0,0,,1,76,236,70,1,
,,,,,,,,,,,,,FF,,,,,,,,0.733,,,,,,,,,,,,,,,,,,,,,,60fd06ca667e8e5dcbe590f4,61036b0042df8404d1ef0529,2021-07-30_13h00.14.315,Simcolourproject_2stim_asymm_v5,2020.2.10,MacIntel,60,61025ae37ef11b136ea224fe,,,,,,,,,4219,-35,-82,1,0,0,response5disk,,3,2,-14,1,0,0,rectangle,2,-14,1,0,0,,,,,,,2,-14,1,0,0,,1,77,237,29,1,
,,,,,,,,,,,,,FF,,,,,,,,0.817,,,,,,,,,,,,,,,,,,,,,,60fd06ca667e8e5dcbe590f4,61036b0042df8404d1ef0529,2021-07-30_13h00.14.315,Simcolourproject_2stim_asymm_v5,2020.2.10,MacIntel,60,61025ae37ef11b136ea224fe,,,,,,,,,1511,109,-48,1,0,0,response3disk,,5,31,-6,1,0,0,rectangle,31,-6,1,0,0,,,,,,,31,-6,1,0,0,,1,78,238,149,1,
,,,,,,,,,,,,,FF,,,,,,,,0.75,,,,,,,,,,,,,,,,,,,,,,60fd06ca667e8e5dcbe590f4,61036b0042df8404d1ef0529,2021-07-30_13h00.14.315,Simcolourproject_2stim_asymm_v5,2020.2.10,MacIntel,60,61025ae37ef11b136ea224fe,,,,,,,,,1252,36,111,1,0,0,response1disk,,7,22,15,1,0,0,rectangle,22,15,1,0,0,,,,,,,22,15,1,0,0,,1,79,239,156,1,
,,,,,,,,,,,,,FF,,,,,,,,1.401,,,,,,,,,,,,,,,,,,,,,,60fd06ca667e8e5dcbe590f4,61036b0042df8404d1ef0529,2021-07-30_13h00.14.315,Simcolourproject_2stim_asymm_v5,2020.2.10,MacIntel,60,61025ae37ef11b136ea224fe,,,,,,,,,3527,112,41,1,0,0,response1disk,,6,26,-4,1,0,0,rectangle,26,-4,1,0,0,,,,,,,26,-4,1,0,0,,1,80,240,150,1,
,,,,,,,,,,,,,FF,,,,,,,,0.483,,,,,,,,,,,,,,,,,,,,,,60fd06ca667e8e5dcbe590f4,61036b0042df8404d1ef0529,2021-07-30_13h00.14.315,Simcolourproject_2stim_asymm_v5,2020.2.10,MacIntel,60,61025ae37ef11b136ea224fe,,,,,,,,,2397,33,83,1,0,0,response1disk,,7,13,9,1,0,0,rectangle,13,9,1,0,0,,,,,,,13,9,1,0,0,,1,81,241,133,1,
,,,,,,,,,,,,,FF,,,,,,,,0.599,,,,,,,,,,,,,,,,,,,,,,60fd06ca667e8e5dcbe590f4,61036b0042df8404d1ef0529,2021-07-30_13h00.14.315,Simcolourproject_2stim_asymm_v5,2020.2.10,MacIntel,60,61025ae37ef11b136ea224fe,,,,,,,,,793,26,87,1,0,0,response1disk,,7,2,10,1,0,0,rectangle,2,10,1,0,0,,,,,,,2,10,1,0,0,,1,82,242,146,1,
,,,,,,,,,,,,,FF,,,,,,,,0.6,,,,,,,,,,,,,,,,,,,,,,60fd06ca667e8e5dcbe590f4,61036b0042df8404d1ef0529,2021-07-30_13h00.14.315,Simcolourproject_2stim_asymm_v5,2020.2.10,MacIntel,60,61025ae37ef11b136ea224fe,,,,,,,,,1336,57,86,1,0,0,response1disk,,7,25,7,1,0,0,rectangle,25,7,1,0,0,,,,,,,25,7,1,0,0,,1,83,243,37,1,
,,,,,,,,,,,,,FF,,,,,,,,0.65,,,,,,,,,,,,,,,,,,,,,,60fd06ca667e8e5dcbe590f4,61036b0042df8404d1ef0529,2021-07-30_13h00.14.315,Simcolourproject_2stim_asymm_v5,2020.2.10,MacIntel,60,61025ae37ef11b136ea224fe,,,,,,,,,1246,36,85,1,0,0,response1disk,,7,18,-6,1,0,0,rectangle,18,-6,1,0,0,,,,,,,18,-6,1,0,0,,1,84,244,131,1,
,,,,,,,,,,,,,FF,,,,,,,,0.8,,,,,,,,,,,,,,,,,,,,,,60fd06ca667e8e5dcbe590f4,61036b0042df8404d1ef0529,2021-07-30_13h00.14.315,Simcolourproject_2stim_asymm_v5,2020.2.10,MacIntel,60,61025ae37ef11b136ea224fe,,,,,,,,,4292,54,75,1,0,0,response1disk,,7,14,4,1,0,0,rectangle,14,4,1,0,0,,,,,,,14,4,1,0,0,,1,85,245,65,1,
,,,,,,,,,,,,,FF,,,,,,,,0.551,,,,,,,,,,,,,,,,,,,,,,60fd06ca667e8e5dcbe590f4,61036b0042df8404d1ef0529,2021-07-30_13h00.14.315,Simcolourproject_2stim_asymm_v5,2020.2.10,MacIntel,60,61025ae37ef11b136ea224fe,,,,,,,,,1507,40,89,1,0,0,response1disk,,7,12,4,1,0,0,rectangle,12,4,1,0,0,,,,,,,12,4,1,0,0,,1,86,246,11,1,
,,,,,,,,,,,,,FF,,,,,,,,0.867,,,,,,,,,,,,,,,,,,,,,,60fd06ca667e8e5dcbe590f4,61036b0042df8404d1ef0529,2021-07-30_13h00.14.315,Simcolourproject_2stim_asymm_v5,2020.2.10,MacIntel,60,61025ae37ef11b136ea224fe,,,,,,,,,968,-110,31,1,0,0,response7disk,,1,-18,10,1,0,0,rectangle,-18,10,1,0,0,,,,,,,-18,10,1,0,0,,1,87,247,72,1,
,,,,,,,,,,,,,FF,,,,,,,,0.783,,,,,,,,,,,,,,,,,,,,,,60fd06ca667e8e5dcbe590f4,61036b0042df8404d1ef0529,2021-07-30_13h00.14.315,Simcolourproject_2stim_asymm_v5,2020.2.10,MacIntel,60,61025ae37ef11b136ea224fe,,,,,,,,,3284,50,83,1,0,0,response1disk,,7,-13,10,1,0,0,rectangle,-13,10,1,0,0,,,,,,,-13,10,1,0,0,,1,88,248,47,1,
,,,,,,,,,,,,,FF,,,,,,,,1.134,,,,,,,,,,,,,,,,,,,,,,60fd06ca667e8e5dcbe590f4,61036b0042df8404d1ef0529,2021-07-30_13h00.14.315,Simcolourproject_2stim_asymm_v5,2020.2.10,MacIntel,60,61025ae37ef11b136ea224fe,,,,,,,,,3535,50,74,1,0,0,response1disk,,7,0,8,1,0,0,rectangle,0,8,1,0,0,,,,,,,0,8,1,0,0,,1,89,249,35,1,
,,,,,,,,,,,,,FF,,,,,,,,0.667,,,,,,,,,,,,,,,,,,,,,,60fd06ca667e8e5dcbe590f4,61036b0042df8404d1ef0529,2021-07-30_13h00.14.315,Simcolourproject_2stim_asymm_v5,2020.2.10,MacIntel,60,61025ae37ef11b136ea224fe,,,,,,,,,1893,-82,-48,1,0,0,response5disk,,2,5,-1,1,0,0,rectangle,42,71,1,0,0,response1disk_3,TRUE,7,7,"[190,251,92,62,212,279,194,289,192,41,35,53,253,54,198,141,71,56,4,1]",1.284,15,0,1,0,0,rectangle,1,90,250,104,1,
,,,,,,,,,,,,,FF,,,,,,,,0.651,,,,,,,,,,,,,,,,,,,,,,60fd06ca667e8e5dcbe590f4,61036b0042df8404d1ef0529,2021-07-30_13h00.14.315,Simcolourproject_2stim_asymm_v5,2020.2.10,MacIntel,60,61025ae37ef11b136ea224fe,,,,,,,,,1346,60,67,1,0,0,response1disk,,7,11,-3,1,0,0,rectangle,11,-3,1,0,0,,,,,,,11,-3,1,0,0,,1,91,251,123,1,
,,,,,,,,,,,,,FF,,,,,,,,0.6,,,,,,,,,,,,,,,,,,,,,,60fd06ca667e8e5dcbe590f4,61036b0042df8404d1ef0529,2021-07-30_13h00.14.315,Simcolourproject_2stim_asymm_v5,2020.2.10,MacIntel,60,61025ae37ef11b136ea224fe,,,,,,,,,3685,34,93,1,0,0,response1disk,,7,8,5,1,0,0,rectangle,41,67,1,0,0,response1disk_3,TRUE,7,2,"[190,251,92,62,212,279,194,289,192,41,35,53,253,54,198,141,71,56,4,1]",1.033,10,6,1,0,0,rectangle,1,92,252,44,1,
,,,,,,,,,,,,,FF,,,,,,,,1.181,,,,,,,,,,,,,,,,,,,,,,60fd06ca667e8e5dcbe590f4,61036b0042df8404d1ef0529,2021-07-30_13h00.14.315,Simcolourproject_2stim_asymm_v5,2020.2.10,MacIntel,60,61025ae37ef11b136ea224fe,,,,,,,,,3481,101,31,1,0,0,response1disk,,6,37,0,1,0,0,rectangle,37,0,1,0,0,,,,,,,37,0,1,0,0,,1,93,253,112,1,
,,,,,,,,,,,,,FF,,,,,,,,0.867,,,,,,,,,,,,,,,,,,,,,,60fd06ca667e8e5dcbe590f4,61036b0042df8404d1ef0529,2021-07-30_13h00.14.315,Simcolourproject_2stim_asymm_v5,2020.2.10,MacIntel,60,61025ae37ef11b136ea224fe,,,,,,,,,2329,38,82,1,0,0,response1disk,,7,10,-5,1,0,0,rectangle,10,-5,1,0,0,,,,,,,10,-5,1,0,0,,1,94,254,121,1,
,,,,,,,,,,,,,FF,,,,,,,,0.666,,,,,,,,,,,,,,,,,,,,,,60fd06ca667e8e5dcbe590f4,61036b0042df8404d1ef0529,2021-07-30_13h00.14.315,Simcolourproject_2stim_asymm_v5,2020.2.10,MacIntel,60,61025ae37ef11b136ea224fe,,,,,,,,,3433,-35,-89,1,0,0,response5disk,,3,-8,-17,1,0,0,rectangle,-8,-17,1,0,0,,,,,,,-8,-17,1,0,0,,1,95,255,26,1,
,,,,,,,,,,,,,FF,,,,,,,,0.533,,,,,,,,,,,,,,,,,,,,,,60fd06ca667e8e5dcbe590f4,61036b0042df8404d1ef0529,2021-07-30_13h00.14.315,Simcolourproject_2stim_asymm_v5,2020.2.10,MacIntel,60,61025ae37ef11b136ea224fe,,,,,,,,,2477,42,113,1,0,0,response1disk,,7,20,7,1,0,0,rectangle,20,7,1,0,0,,,,,,,20,7,1,0,0,,1,96,256,5,1,
,,,,,,,,,,,,,FF,,,,,,,,0.748,,,,,,,,,,,,,,,,,,,,,,60fd06ca667e8e5dcbe590f4,61036b0042df8404d1ef0529,2021-07-30_13h00.14.315,Simcolourproject_2stim_asymm_v5,2020.2.10,MacIntel,60,61025ae37ef11b136ea224fe,,,,,,,,,324,37,83,1,0,0,response1disk,,7,8,8,1,0,0,rectangle,8,8,1,0,0,,,,,,,8,8,1,0,0,,1,97,257,46,1,
,,,,,,,,,,,,,FF,,,,,,,,0.55,,,,,,,,,,,,,,,,,,,,,,60fd06ca667e8e5dcbe590f4,61036b0042df8404d1ef0529,2021-07-30_13h00.14.315,Simcolourproject_2stim_asymm_v5,2020.2.10,MacIntel,60,61025ae37ef11b136ea224fe,,,,,,,,,1938,34,71,1,0,0,response1disk,,7,9,-20,1,0,0,rectangle,9,-20,1,0,0,,,,,,,9,-20,1,0,0,,1,98,258,142,1,
,,,,,,,,,,,,,FF,,,,,,,,0.484,,,,,,,,,,,,,,,,,,,,,,60fd06ca667e8e5dcbe590f4,61036b0042df8404d1ef0529,2021-07-30_13h00.14.315,Simcolourproject_2stim_asymm_v5,2020.2.10,MacIntel,60,61025ae37ef11b136ea224fe,,,,,,,,,4160,28,68,1,0,0,response1disk,,7,24,-1,1,0,0,rectangle,24,-1,1,0,0,,,,,,,24,-1,1,0,0,,1,99,259,18,1,
,,,,,,,,,,,,,FF,,,,,,,,0.466,,,,,,,,,,,,,,,,,,,,,,60fd06ca667e8e5dcbe590f4,61036b0042df8404d1ef0529,2021-07-30_13h00.14.315,Simcolourproject_2stim_asymm_v5,2020.2.10,MacIntel,60,61025ae37ef11b136ea224fe,,,,,,,,,415,27,63,1,0,0,response1disk,,7,22,2,1,0,0,rectangle,22,2,1,0,0,,,,,,,22,2,1,0,0,,1,100,260,106,1,
,,,,,,,,,,,,,FF,,,,,,,,0.735,,,,,,,,,,,,,,,,,,,,,,60fd06ca667e8e5dcbe590f4,61036b0042df8404d1ef0529,2021-07-30_13h00.14.315,Simcolourproject_2stim_asymm_v5,2020.2.10,MacIntel,60,61025ae37ef11b136ea224fe,,,,,,,,,4169,66,-108,1,0,0,response3disk,,4,-2,-12,1,0,0,rectangle,-2,-12,1,0,0,,,,,,,-2,-12,1,0,0,,1,101,261,102,1,
,,,,,,,,,,,,,FF,,,,,,,,0.632,,,,,,,,,,,,,,,,,,,,,,60fd06ca667e8e5dcbe590f4,61036b0042df8404d1ef0529,2021-07-30_13h00.14.315,Simcolourproject_2stim_asymm_v5,2020.2.10,MacIntel,60,61025ae37ef11b136ea224fe,,,,,,,,,1854,42,69,1,0,0,response1disk,,7,8,6,1,0,0,rectangle,8,6,1,0,0,,,,,,,8,6,1,0,0,,1,102,262,74,1,
,,,,,,,,,,,,,FF,,,,,,,,1.25,,,,,,,,,,,,,,,,,,,,,,60fd06ca667e8e5dcbe590f4,61036b0042df8404d1ef0529,2021-07-30_13h00.14.315,Simcolourproject_2stim_asymm_v5,2020.2.10,MacIntel,60,61025ae37ef11b136ea224fe,,,,,,,,,549,-36,-77,1,0,0,response5disk,,3,-14,4,1,0,0,rectangle,-14,4,1,0,0,,,,,,,-14,4,1,0,0,,1,103,263,40,1,
,,,,,,,,,,,,,FF,,,,,,,,0.983,,,,,,,,,,,,,,,,,,,,,,60fd06ca667e8e5dcbe590f4,61036b0042df8404d1ef0529,2021-07-30_13h00.14.315,Simcolourproject_2stim_asymm_v5,2020.2.10,MacIntel,60,61025ae37ef11b136ea224fe,,,,,,,,,630,-98,-41,1,0,0,response5disk,,2,-33,4,1,0,0,rectangle,-33,4,1,0,0,,,,,,,-33,4,1,0,0,,1,104,264,28,1,
,,,,,,,,,,,,,FF,,,,,,,,0.534,,,,,,,,,,,,,,,,,,,,,,60fd06ca667e8e5dcbe590f4,61036b0042df8404d1ef0529,2021-07-30_13h00.14.315,Simcolourproject_2stim_asymm_v5,2020.2.10,MacIntel,60,61025ae37ef11b136ea224fe,,,,,,,,,56,31,81,1,0,0,response1disk,,7,10,-1,1,0,0,rectangle,10,-1,1,0,0,,,,,,,10,-1,1,0,0,,1,105,265,97,1,
,,,,,,,,,,,,,FF,,,,,,,,1.034,,,,,,,,,,,,,,,,,,,,,,60fd06ca667e8e5dcbe590f4,61036b0042df8404d1ef0529,2021-07-30_13h00.14.315,Simcolourproject_2stim_asymm_v5,2020.2.10,MacIntel,60,61025ae37ef11b136ea224fe,,,,,,,,,1381,36,79,1,0,0,response1disk,,7,15,4,1,0,0,rectangle,15,4,1,0,0,,,,,,,15,4,1,0,0,,1,106,266,25,1,
,,,,,,,,,,,,,FF,,,,,,,,0.6,,,,,,,,,,,,,,,,,,,,,,60fd06ca667e8e5dcbe590f4,61036b0042df8404d1ef0529,2021-07-30_13h00.14.315,Simcolourproject_2stim_asymm_v5,2020.2.10,MacIntel,60,61025ae37ef11b136ea224fe,,,,,,,,,1355,38,82,1,0,0,response1disk,,7,21,0,1,0,0,rectangle,21,0,1,0,0,,,,,,,21,0,1,0,0,,1,107,267,157,1,
,,,,,,,,,,,,,FF,,,,,,,,0.467,,,,,,,,,,,,,,,,,,,,,,60fd06ca667e8e5dcbe590f4,61036b0042df8404d1ef0529,2021-07-30_13h00.14.315,Simcolourproject_2stim_asymm_v5,2020.2.10,MacIntel,60,61025ae37ef11b136ea224fe,,,,,,,,,453,38,59,1,0,0,response1disk,,7,23,4,1,0,0,rectangle,23,4,1,0,0,,,,,,,23,4,1,0,0,,1,108,268,6,1,
,,,,,,,,,,,,,FF,,,,,,,,0.85,,,,,,,,,,,,,,,,,,,,,,60fd06ca667e8e5dcbe590f4,61036b0042df8404d1ef0529,2021-07-30_13h00.14.315,Simcolourproject_2stim_asymm_v5,2020.2.10,MacIntel,60,61025ae37ef11b136ea224fe,,,,,,,,,3882,43,-86,1,0,0,response3disk,,4,10,1,1,0,0,rectangle,10,1,1,0,0,,,,,,,10,1,1,0,0,,1,109,269,62,1,
,,,,,,,,,,,,,FF,,,,,,,,0.5,,,,,,,,,,,,,,,,,,,,,,60fd06ca667e8e5dcbe590f4,61036b0042df8404d1ef0529,2021-07-30_13h00.14.315,Simcolourproject_2stim_asymm_v5,2020.2.10,MacIntel,60,61025ae37ef11b136ea224fe,,,,,,,,,1863,29,80,1,0,0,response1disk,,7,3,-2,1,0,0,rectangle,3,-2,1,0,0,,,,,,,3,-2,1,0,0,,1,110,270,151,1,
,,,,,,,,,,,,,FF,,,,,,,,0.816,,,,,,,,,,,,,,,,,,,,,,60fd06ca667e8e5dcbe590f4,61036b0042df8404d1ef0529,2021-07-30_13h00.14.315,Simcolourproject_2stim_asymm_v5,2020.2.10,MacIntel,60,61025ae37ef11b136ea224fe,,,,,,,,,342,61,-84,1,0,0,response3disk,,4,28,-14,1,0,0,rectangle,28,-14,1,0,0,,,,,,,28,-14,1,0,0,,1,111,271,95,1,
,,,,,,,,,,,,,FF,,,,,,,,1.15,,,,,,,,,,,,,,,,,,,,,,60fd06ca667e8e5dcbe590f4,61036b0042df8404d1ef0529,2021-07-30_13h00.14.315,Simcolourproject_2stim_asymm_v5,2020.2.10,MacIntel,60,61025ae37ef11b136ea224fe,,,,,,,,,1492,40,92,1,0,0,response1disk,,7,5,10,1,0,0,rectangle,5,10,1,0,0,,,,,,,5,10,1,0,0,,1,112,272,114,1,
,,,,,,,,,,,,,FF,,,,,,,,0.701,,,,,,,,,,,,,,,,,,,,,,60fd06ca667e8e5dcbe590f4,61036b0042df8404d1ef0529,2021-07-30_13h00.14.315,Simcolourproject_2stim_asymm_v5,2020.2.10,MacIntel,60,61025ae37ef11b136ea224fe,,,,,,,,,2826,-42,-95,1,0,0,response5disk,,3,-32,-15,1,0,0,rectangle,-32,-15,1,0,0,,,,,,,-32,-15,1,0,0,,1,113,273,138,1,
,,,,,,,,,,,,,FF,,,,,,,,0.551,,,,,,,,,,,,,,,,,,,,,,60fd06ca667e8e5dcbe590f4,61036b0042df8404d1ef0529,2021-07-30_13h00.14.315,Simcolourproject_2stim_asymm_v5,2020.2.10,MacIntel,60,61025ae37ef11b136ea224fe,,,,,,,,,2149,57,95,1,0,0,response1disk,,7,0,5,1,0,0,rectangle,0,5,1,0,0,,,,,,,0,5,1,0,0,,1,114,274,61,1,
,,,,,,,,,,,,,FF,,,,,,,,0.5,,,,,,,,,,,,,,,,,,,,,,60fd06ca667e8e5dcbe590f4,61036b0042df8404d1ef0529,2021-07-30_13h00.14.315,Simcolourproject_2stim_asymm_v5,2020.2.10,MacIntel,60,61025ae37ef11b136ea224fe,,,,,,,,,1563,32,79,1,0,0,response1disk,,7,5,2,1,0,0,rectangle,5,2,1,0,0,,,,,,,5,2,1,0,0,,1,115,275,87,1,
,,,,,,,,,,,,,FF,,,,,,,,0.8,,,,,,,,,,,,,,,,,,,,,,60fd06ca667e8e5dcbe590f4,61036b0042df8404d1ef0529,2021-07-30_13h00.14.315,Simcolourproject_2stim_asymm_v5,2020.2.10,MacIntel,60,61025ae37ef11b136ea224fe,,,,,,,,,3910,-53,-103,1,0,0,response5disk,,3,-15,-8,1,0,0,rectangle,-15,-8,1,0,0,,,,,,,-15,-8,1,0,0,,1,116,276,93,1,
,,,,,,,,,,,,,FF,,,,,,,,0.767,,,,,,,,,,,,,,,,,,,,,,60fd06ca667e8e5dcbe590f4,61036b0042df8404d1ef0529,2021-07-30_13h00.14.315,Simcolourproject_2stim_asymm_v5,2020.2.10,MacIntel,60,61025ae37ef11b136ea224fe,,,,,,,,,1964,-93,-58,1,0,0,response5disk,,2,-22,-8,1,0,0,rectangle,-22,-8,1,0,0,,,,,,,-22,-8,1,0,0,,1,117,277,71,1,
,,,,,,,,,,,,,FF,,,,,,,,0.4,,,,,,,,,,,,,,,,,,,,,,60fd06ca667e8e5dcbe590f4,61036b0042df8404d1ef0529,2021-07-30_13h00.14.315,Simcolourproject_2stim_asymm_v5,2020.2.10,MacIntel,60,61025ae37ef11b136ea224fe,,,,,,,,,3085,37,96,1,0,0,response1disk,,7,27,17,1,0,0,rectangle,-107,-44,1,0,0,response5disk_3,TRUE,2,2,"[190,251,92,62,212,279,194,289,192,41,35,53,253,54,198,141,71,56,4,1]",1.833,0,2,1,0,0,rectangle,1,118,278,0,1,
,,,,,,,,,,,,,FF,,,,,,,,1.216,,,,,,,,,,,,,,,,,,,,,,60fd06ca667e8e5dcbe590f4,61036b0042df8404d1ef0529,2021-07-30_13h00.14.315,Simcolourproject_2stim_asymm_v5,2020.2.10,MacIntel,60,61025ae37ef11b136ea224fe,,,,,,,,,3657,70,93,1,0,0,response1disk,,7,11,-16,1,0,0,rectangle,11,-16,1,0,0,,,,,,,11,-16,1,0,0,,1,119,279,45,1,
,,,,,,,,,,,,,FF,,,,,,,,0.551,,,,,,,,,,,,,,,,,,,,,,60fd06ca667e8e5dcbe590f4,61036b0042df8404d1ef0529,2021-07-30_13h00.14.315,Simcolourproject_2stim_asymm_v5,2020.2.10,MacIntel,60,61025ae37ef11b136ea224fe,,,,,,,,,86,35,82,1,0,0,response1disk,,7,7,3,1,0,0,rectangle,7,3,1,0,0,,,,,,,7,3,1,0,0,,1,120,280,84,1,
,,,,,,,,,,,,,FF,,,,,,,,0.55,,,,,,,,,,,,,,,,,,,,,,60fd06ca667e8e5dcbe590f4,61036b0042df8404d1ef0529,2021-07-30_13h00.14.315,Simcolourproject_2stim_asymm_v5,2020.2.10,MacIntel,60,61025ae37ef11b136ea224fe,,,,,,,,,214,36,71,1,0,0,response1disk,,7,13,5,1,0,0,rectangle,13,5,1,0,0,,,,,,,13,5,1,0,0,,1,121,281,31,1,
,,,,,,,,,,,,,FF,,,,,,,,0.466,,,,,,,,,,,,,,,,,,,,,,60fd06ca667e8e5dcbe590f4,61036b0042df8404d1ef0529,2021-07-30_13h00.14.315,Simcolourproject_2stim_asymm_v5,2020.2.10,MacIntel,60,61025ae37ef11b136ea224fe,,,,,,,,,2702,29,74,1,0,0,response1disk,,7,6,6,1,0,0,rectangle,6,6,1,0,0,,,,,,,6,6,1,0,0,,1,122,282,53,1,
,,,,,,,,,,,,,FF,,,,,,,,0.483,,,,,,,,,,,,,,,,,,,,,,60fd06ca667e8e5dcbe590f4,61036b0042df8404d1ef0529,2021-07-30_13h00.14.315,Simcolourproject_2stim_asymm_v5,2020.2.10,MacIntel,60,61025ae37ef11b136ea224fe,,,,,,,,,2797,35,85,1,0,0,response1disk,,7,1,5,1,0,0,rectangle,1,5,1,0,0,,,,,,,1,5,1,0,0,,1,123,283,137,1,
,,,,,,,,,,,,,FF,,,,,,,,0.534,,,,,,,,,,,,,,,,,,,,,,60fd06ca667e8e5dcbe590f4,61036b0042df8404d1ef0529,2021-07-30_13h00.14.315,Simcolourproject_2stim_asymm_v5,2020.2.10,MacIntel,60,61025ae37ef11b136ea224fe,,,,,,,,,3905,30,82,1,0,0,response1disk,,7,-6,1,1,0,0,rectangle,-6,1,1,0,0,,,,,,,-6,1,1,0,0,,1,124,284,57,1,
,,,,,,,,,,,,,FF,,,,,,,,0.633,,,,,,,,,,,,,,,,,,,,,,60fd06ca667e8e5dcbe590f4,61036b0042df8404d1ef0529,2021-07-30_13h00.14.315,Simcolourproject_2stim_asymm_v5,2020.2.10,MacIntel,60,61025ae37ef11b136ea224fe,,,,,,,,,2904,36,79,1,0,0,response1disk,,7,-7,9,1,0,0,rectangle,-7,9,1,0,0,,,,,,,-7,9,1,0,0,,1,125,285,50,1,
,,,,,,,,,,,,,FF,,,,,,,,0.65,,,,,,,,,,,,,,,,,,,,,,60fd06ca667e8e5dcbe590f4,61036b0042df8404d1ef0529,2021-07-30_13h00.14.315,Simcolourproject_2stim_asymm_v5,2020.2.10,MacIntel,60,61025ae37ef11b136ea224fe,,,,,,,,,3439,-46,-108,1,0,0,response5disk,,3,-19,-20,1,0,0,rectangle,-19,-20,1,0,0,,,,,,,-19,-20,1,0,0,,1,126,286,81,1,
,,,,,,,,,,,,,FF,,,,,,,,0.567,,,,,,,,,,,,,,,,,,,,,,60fd06ca667e8e5dcbe590f4,61036b0042df8404d1ef0529,2021-07-30_13h00.14.315,Simcolourproject_2stim_asymm_v5,2020.2.10,MacIntel,60,61025ae37ef11b136ea224fe,,,,,,,,,4225,-72,-57,1,0,0,response5disk,,2,-6,4,1,0,0,rectangle,-6,4,1,0,0,,,,,,,-6,4,1,0,0,,1,127,287,2,1,
,,,,,,,,,,,,,FF,,,,,,,,0.7,,,,,,,,,,,,,,,,,,,,,,60fd06ca667e8e5dcbe590f4,61036b0042df8404d1ef0529,2021-07-30_13h00.14.315,Simcolourproject_2stim_asymm_v5,2020.2.10,MacIntel,60,61025ae37ef11b136ea224fe,,,,,,,,,928,36,91,1,0,0,response1disk,,7,4,6,1,0,0,rectangle,37,66,1,0,0,response1disk_3,TRUE,7,4,"[190,251,92,62,212,279,194,289,192,41,35,53,253,54,198,141,71,56,4,1]",1.233,3,7,1,0,0,rectangle,1,128,288,64,1,
,,,,,,,,,,,,,FF,,,,,,,,0.949,,,,,,,,,,,,,,,,,,,,,,60fd06ca667e8e5dcbe590f4,61036b0042df8404d1ef0529,2021-07-30_13h00.14.315,Simcolourproject_2stim_asymm_v5,2020.2.10,MacIntel,60,61025ae37ef11b136ea224fe,,,,,,,,,2813,46,80,1,0,0,response1disk,,7,2,-10,1,0,0,rectangle,2,-10,1,0,0,,,,,,,2,-10,1,0,0,,1,129,289,80,1,
,,,,,,,,,,,,,FF,,,,,,,,0.466,,,,,,,,,,,,,,,,,,,,,,60fd06ca667e8e5dcbe590f4,61036b0042df8404d1ef0529,2021-07-30_13h00.14.315,Simcolourproject_2stim_asymm_v5,2020.2.10,MacIntel,60,61025ae37ef11b136ea224fe,,,,,,,,,3532,27,72,1,0,0,response1disk,,7,9,-14,1,0,0,rectangle,9,-14,1,0,0,,,,,,,9,-14,1,0,0,,1,130,290,130,1,
,,,,,,,,,,,,,FF,,,,,,,,0.649,,,,,,,,,,,,,,,,,,,,,,60fd06ca667e8e5dcbe590f4,61036b0042df8404d1ef0529,2021-07-30_13h00.14.315,Simcolourproject_2stim_asymm_v5,2020.2.10,MacIntel,60,61025ae37ef11b136ea224fe,,,,,,,,,3475,-41,-111,1,0,0,response5disk,,3,-4,-8,1,0,0,rectangle,-4,-8,1,0,0,,,,,,,-4,-8,1,0,0,,1,131,291,16,1,
,,,,,,,,,,,,,FF,,,,,,,,0.767,,,,,,,,,,,,,,,,,,,,,,60fd06ca667e8e5dcbe590f4,61036b0042df8404d1ef0529,2021-07-30_13h00.14.315,Simcolourproject_2stim_asymm_v5,2020.2.10,MacIntel,60,61025ae37ef11b136ea224fe,,,,,,,,,4111,38,78,1,0,0,response1disk,,7,15,16,1,0,0,rectangle,15,16,1,0,0,,,,,,,15,16,1,0,0,,1,132,292,96,1,
,,,,,,,,,,,,,FF,,,,,,,,1.117,,,,,,,,,,,,,,,,,,,,,,60fd06ca667e8e5dcbe590f4,61036b0042df8404d1ef0529,2021-07-30_13h00.14.315,Simcolourproject_2stim_asymm_v5,2020.2.10,MacIntel,60,61025ae37ef11b136ea224fe,,,,,,,,,424,90,-36,1,0,0,response3disk,,5,-17,4,1,0,0,rectangle,-17,4,1,0,0,,,,,,,-17,4,1,0,0,,1,133,293,34,1,
,,,,,,,,,,,,,FF,,,,,,,,1.05,,,,,,,,,,,,,,,,,,,,,,60fd06ca667e8e5dcbe590f4,61036b0042df8404d1ef0529,2021-07-30_13h00.14.315,Simcolourproject_2stim_asymm_v5,2020.2.10,MacIntel,60,61025ae37ef11b136ea224fe,,,,,,,,,1954,26,77,1,0,0,response1disk,,7,-7,-5,1,0,0,rectangle,-7,-5,1,0,0,,,,,,,-7,-5,1,0,0,,1,134,294,60,1,
,,,,,,,,,,,,,FF,,,,,,,,0.5,,,,,,,,,,,,,,,,,,,,,,60fd06ca667e8e5dcbe590f4,61036b0042df8404d1ef0529,2021-07-30_13h00.14.315,Simcolourproject_2stim_asymm_v5,2020.2.10,MacIntel,60,61025ae37ef11b136ea224fe,,,,,,,,,914,31,77,1,0,0,response1disk,,7,8,12,1,0,0,rectangle,8,12,1,0,0,,,,,,,8,12,1,0,0,,1,135,295,32,1,
,,,,,,,,,,,,,FF,,,,,,,,0.516,,,,,,,,,,,,,,,,,,,,,,60fd06ca667e8e5dcbe590f4,61036b0042df8404d1ef0529,2021-07-30_13h00.14.315,Simcolourproject_2stim_asymm_v5,2020.2.10,MacIntel,60,61025ae37ef11b136ea224fe,,,,,,,,,3272,56,79,1,0,0,response1disk,,7,4,-5,1,0,0,rectangle,4,-5,1,0,0,,,,,,,4,-5,1,0,0,,1,136,296,43,1,
,,,,,,,,,,,,,FF,,,,,,,,0.9,,,,,,,,,,,,,,,,,,,,,,60fd06ca667e8e5dcbe590f4,61036b0042df8404d1ef0529,2021-07-30_13h00.14.315,Simcolourproject_2stim_asymm_v5,2020.2.10,MacIntel,60,61025ae37ef11b136ea224fe,,,,,,,,,2084,-33,-104,1,0,0,response5disk,,3,0,-9,1,0,0,rectangle,0,-9,1,0,0,,,,,,,0,-9,1,0,0,,1,137,297,126,1,
,,,,,,,,,,,,,FF,,,,,,,,1.333,,,,,,,,,,,,,,,,,,,,,,60fd06ca667e8e5dcbe590f4,61036b0042df8404d1ef0529,2021-07-30_13h00.14.315,Simcolourproject_2stim_asymm_v5,2020.2.10,MacIntel,60,61025ae37ef11b136ea224fe,,,,,,,,,3759,112,-62,1,0,0,response3disk,,5,10,-4,1,0,0,rectangle,10,-4,1,0,0,,,,,,,10,-4,1,0,0,,1,138,298,8,1,
,,,,,,,,,,,,,FF,,,,,,,,1.301,,,,,,,,,,,,,,,,,,,,,,60fd06ca667e8e5dcbe590f4,61036b0042df8404d1ef0529,2021-07-30_13h00.14.315,Simcolourproject_2stim_asymm_v5,2020.2.10,MacIntel,60,61025ae37ef11b136ea224fe,,,,,,,,,2241,99,42,1,0,0,response1disk,,6,3,3,1,0,0,rectangle,3,3,1,0,0,,,,,,,3,3,1,0,0,,1,139,299,27,1,
,,,,,,,,,,,,,FF,,,,,,,,0.534,,,,,,,,,,,,,,,,,,,,,,60fd06ca667e8e5dcbe590f4,61036b0042df8404d1ef0529,2021-07-30_13h00.14.315,Simcolourproject_2stim_asymm_v5,2020.2.10,MacIntel,60,61025ae37ef11b136ea224fe,,,,,,,,,1248,44,101,1,0,0,response1disk,,7,5,7,1,0,0,rectangle,5,7,1,0,0,,,,,,,5,7,1,0,0,,1,140,300,144,1,
