key_resp.keys,key_resp.rt,key_resp_14.keys,key_resp_14.rt,key_resp_15.keys,key_resp_15.rt,key_resp_17.keys,key_resp_17.rt,key_resp_9.keys,key_resp_9.rt,key_resp_10.keys,key_resp_10.rt,practice_comparison,Ecc,mouse_5.x,mouse_5.y,mouse_5.leftButton,mouse_5.midButton,mouse_5.rightButton,mouse_5.clicked_name,pracsimilarity,response_time,mouse_10.x,mouse_10.y,mouse_10.leftButton,mouse_10.midButton,mouse_10.rightButton,mouse_10.clicked_name,mouse_7.x,mouse_7.y,mouse_7.leftButton,mouse_7.midButton,mouse_7.rightButton,mouse_6.x,mouse_6.y,mouse_6.leftButton,mouse_6.midButton,mouse_6.rightButton,duringprac.thisRepN,duringprac.thisTrialN,duringprac.thisN,duringprac.thisIndex,duringprac.ran,participant,session,date,expName,psychopyVersion,OS,frameRate,study_id,mouse_7.clicked_name,catchpracsimilarity,catch_response_time,catchnumberprac,catchtrialorderprac,mouse_6.clicked_name,key_resp_22.keys,key_resp_22.rt,realcomparison,mouse.x,mouse.y,mouse.leftButton,mouse.midButton,mouse.rightButton,mouse.clicked_name,Colour2,similarity,mouse_2.x,mouse_2.y,mouse_2.leftButton,mouse_2.midButton,mouse_2.rightButton,mouse_2.clicked_name,mouse_3.x,mouse_3.y,mouse_3.leftButton,mouse_3.midButton,mouse_3.rightButton,mouse_11.x,mouse_11.y,mouse_11.leftButton,mouse_11.midButton,mouse_11.rightButton,trials_2.thisRepN,trials_2.thisTrialN,trials_2.thisN,trials_2.thisIndex,trials_2.ran,Colour1,mouse_3.clicked_name,catchornah,catchsimilarity,catchnumber,catchtrialorder,catchRT,mouse_11.clicked_name
space,1.119,space,3.231,space,24.479,space,5.685,space,0.647,space,4.772,54,FF,40,70,1,0,0,response1disk_5,7,6.382,2,4,1,0,0,rectangle_8,2,4,1,0,0,2,4,1,0,0,0,0,0,3,1,60fd700ffac5eba3832e3304,6103798053b06843ea59217a,2021-07-30_00h01.37.363,Simcolourproject_2stim_asymm_v5,2020.2.10,MacIntel,60,61025ae37ef11b136ea224fe,,,,,,,,,,,,,,,,,,,,,,,,,,,,,,,,,,,,,,,,,,,,,,
,,,,,,,,,,,,13,PF,99,-21,1,0,0,response3disk_5,5,2.999,1,0,1,0,0,rectangle_8,48,78,1,0,0,-5,-6,1,0,0,0,1,1,4,1,60fd700ffac5eba3832e3304,6103798053b06843ea59217a,2021-07-30_00h01.37.363,Simcolourproject_2stim_asymm_v5,2020.2.10,MacIntel,60,61025ae37ef11b136ea224fe,response1disk_7,7,2.633,7,"[2,5]",rectangle_4,,,,,,,,,,,,,,,,,,,,,,,,,,,,,,,,,,,,,,,,
,,,,,,,,,,,,106,PF,75,-35,1,0,0,response3disk_5,5,2.866,-3,-3,1,0,0,rectangle_8,-3,-3,1,0,0,-3,-3,1,0,0,0,2,2,1,1,60fd700ffac5eba3832e3304,6103798053b06843ea59217a,2021-07-30_00h01.37.363,Simcolourproject_2stim_asymm_v5,2020.2.10,MacIntel,60,61025ae37ef11b136ea224fe,,,,,,,,,,,,,,,,,,,,,,,,,,,,,,,,,,,,,,,,,,,,,,
,,,,,,,,,,,,135,PF,83,-35,1,0,0,response3disk_5,5,1.582,-6,7,1,0,0,rectangle_8,-6,7,1,0,0,-6,7,1,0,0,0,3,3,2,1,60fd700ffac5eba3832e3304,6103798053b06843ea59217a,2021-07-30_00h01.37.363,Simcolourproject_2stim_asymm_v5,2020.2.10,MacIntel,60,61025ae37ef11b136ea224fe,,,,,,,,,,,,,,,,,,,,,,,,,,,,,,,,,,,,,,,,,,,,,,
,,,,,,,,,,,,114,PF,-39,97,1,0,0,response7disk_5,0,1.783,4,2,1,0,0,rectangle_8,40,107,1,0,0,-9,1,1,0,0,0,4,4,6,1,60fd700ffac5eba3832e3304,6103798053b06843ea59217a,2021-07-30_00h01.37.363,Simcolourproject_2stim_asymm_v5,2020.2.10,MacIntel,60,61025ae37ef11b136ea224fe,response1disk_7,7,1.35,7,"[2,5]",rectangle_4,,,,,,,,,,,,,,,,,,,,,,,,,,,,,,,,,,,,,,,,
,,,,,,,,,,,,125,FF,-93,-52,1,0,0,response5disk_5,2,1.783,4,5,1,0,0,rectangle_8,4,5,1,0,0,4,5,1,0,0,0,5,5,5,1,60fd700ffac5eba3832e3304,6103798053b06843ea59217a,2021-07-30_00h01.37.363,Simcolourproject_2stim_asymm_v5,2020.2.10,MacIntel,60,61025ae37ef11b136ea224fe,,,,,,,,,,,,,,,,,,,,,,,,,,,,,,,,,,,,,,,,,,,,,,
,,,,,,,,,,,,49,FF,-98,47,1,0,0,response7disk_5,1,1.116,-4,3,1,0,0,rectangle_8,-4,3,1,0,0,-4,3,1,0,0,0,6,6,0,1,60fd700ffac5eba3832e3304,6103798053b06843ea59217a,2021-07-30_00h01.37.363,Simcolourproject_2stim_asymm_v5,2020.2.10,MacIntel,60,61025ae37ef11b136ea224fe,,,,,,,,,,,,,,,,,,,,,,,,,,,,,,,,,,,,,,,,,,,,,,
,,,,,,,,,,,,,FF,,,,,,,,3.766,,,,,,,,,,,,,,,,,,,,,,60fd700ffac5eba3832e3304,6103798053b06843ea59217a,2021-07-30_00h01.37.363,Simcolourproject_2stim_asymm_v5,2020.2.10,MacIntel,60,61025ae37ef11b136ea224fe,,,,,,,space,2.962,1399,92,70,1,0,0,response1disk,,6,-8,-2,1,0,0,rectangle,-8,-2,1,0,0,-8,-2,1,0,0,0,0,0,44,1,,,,,,,,
,,,,,,,,,,,,,FF,,,,,,,,1.933,,,,,,,,,,,,,,,,,,,,,,60fd700ffac5eba3832e3304,6103798053b06843ea59217a,2021-07-30_00h01.37.363,Simcolourproject_2stim_asymm_v5,2020.2.10,MacIntel,60,61025ae37ef11b136ea224fe,,,,,,,,,3487,48,-71,1,0,0,response3disk,,4,4,6,1,0,0,rectangle,4,6,1,0,0,4,6,1,0,0,0,1,1,130,1,,,,,,,,
,,,,,,,,,,,,,FF,,,,,,,,1.532,,,,,,,,,,,,,,,,,,,,,,60fd700ffac5eba3832e3304,6103798053b06843ea59217a,2021-07-30_00h01.37.363,Simcolourproject_2stim_asymm_v5,2020.2.10,MacIntel,60,61025ae37ef11b136ea224fe,,,,,,,,,434,-49,-72,1,0,0,response5disk,,3,-15,-8,1,0,0,rectangle,-15,-8,1,0,0,-15,-8,1,0,0,0,2,2,157,1,,,,,,,,
,,,,,,,,,,,,,FF,,,,,,,,1.682,,,,,,,,,,,,,,,,,,,,,,60fd700ffac5eba3832e3304,6103798053b06843ea59217a,2021-07-30_00h01.37.363,Simcolourproject_2stim_asymm_v5,2020.2.10,MacIntel,60,61025ae37ef11b136ea224fe,,,,,,,,,3490,84,-43,1,0,0,response3disk,,5,-2,-1,1,0,0,rectangle,-2,-1,1,0,0,-2,-1,1,0,0,0,3,3,132,1,,,,,,,,
,,,,,,,,,,,,,FF,,,,,,,,1.016,,,,,,,,,,,,,,,,,,,,,,60fd700ffac5eba3832e3304,6103798053b06843ea59217a,2021-07-30_00h01.37.363,Simcolourproject_2stim_asymm_v5,2020.2.10,MacIntel,60,61025ae37ef11b136ea224fe,,,,,,,,,3082,87,-26,1,0,0,response3disk,,5,-6,12,1,0,0,rectangle,-6,12,1,0,0,-6,12,1,0,0,0,4,4,61,1,,,,,,,,
,,,,,,,,,,,,,FF,,,,,,,,1.984,,,,,,,,,,,,,,,,,,,,,,60fd700ffac5eba3832e3304,6103798053b06843ea59217a,2021-07-30_00h01.37.363,Simcolourproject_2stim_asymm_v5,2020.2.10,MacIntel,60,61025ae37ef11b136ea224fe,,,,,,,,,3819,-68,-52,1,0,0,response5disk,,2,-6,-4,1,0,0,rectangle,-6,-4,1,0,0,-6,-4,1,0,0,0,5,5,149,1,,,,,,,,
,,,,,,,,,,,,,FF,,,,,,,,4.083,,,,,,,,,,,,,,,,,,,,,,60fd700ffac5eba3832e3304,6103798053b06843ea59217a,2021-07-30_00h01.37.363,Simcolourproject_2stim_asymm_v5,2020.2.10,MacIntel,60,61025ae37ef11b136ea224fe,,,,,,,,,1945,72,-46,1,0,0,response3disk,,5,-6,3,1,0,0,rectangle,-6,3,1,0,0,-6,3,1,0,0,0,6,6,112,1,,,,,,,,
,,,,,,,,,,,,,FF,,,,,,,,1.233,,,,,,,,,,,,,,,,,,,,,,60fd700ffac5eba3832e3304,6103798053b06843ea59217a,2021-07-30_00h01.37.363,Simcolourproject_2stim_asymm_v5,2020.2.10,MacIntel,60,61025ae37ef11b136ea224fe,,,,,,,,,244,85,-38,1,0,0,response3disk,,5,6,4,1,0,0,rectangle,6,4,1,0,0,6,4,1,0,0,0,7,7,73,1,,,,,,,,
,,,,,,,,,,,,,FF,,,,,,,,1.5,,,,,,,,,,,,,,,,,,,,,,60fd700ffac5eba3832e3304,6103798053b06843ea59217a,2021-07-30_00h01.37.363,Simcolourproject_2stim_asymm_v5,2020.2.10,MacIntel,60,61025ae37ef11b136ea224fe,,,,,,,,,4297,103,-46,1,0,0,response3disk,,5,9,-3,1,0,0,rectangle,9,-3,1,0,0,9,-3,1,0,0,0,8,8,14,1,,,,,,,,
,,,,,,,,,,,,,FF,,,,,,,,1.133,,,,,,,,,,,,,,,,,,,,,,60fd700ffac5eba3832e3304,6103798053b06843ea59217a,2021-07-30_00h01.37.363,Simcolourproject_2stim_asymm_v5,2020.2.10,MacIntel,60,61025ae37ef11b136ea224fe,,,,,,,,,3980,-35,-74,1,0,0,response5disk,,3,14,-5,1,0,0,rectangle,14,-5,1,0,0,14,-5,1,0,0,0,9,9,7,1,,,,,,,,
,,,,,,,,,,,,,FF,,,,,,,,1.216,,,,,,,,,,,,,,,,,,,,,,60fd700ffac5eba3832e3304,6103798053b06843ea59217a,2021-07-30_00h01.37.363,Simcolourproject_2stim_asymm_v5,2020.2.10,MacIntel,60,61025ae37ef11b136ea224fe,,,,,,,,,3939,-71,-23,1,0,0,response5disk,,2,-5,4,1,0,0,rectangle,-5,4,1,0,0,-5,4,1,0,0,0,10,10,128,1,,,,,,,,
,,,,,,,,,,,,,FF,,,,,,,,1.033,,,,,,,,,,,,,,,,,,,,,,60fd700ffac5eba3832e3304,6103798053b06843ea59217a,2021-07-30_00h01.37.363,Simcolourproject_2stim_asymm_v5,2020.2.10,MacIntel,60,61025ae37ef11b136ea224fe,,,,,,,,,4118,-45,88,1,0,0,response7disk,,0,-5,0,1,0,0,rectangle,-5,0,1,0,0,-5,0,1,0,0,0,11,11,15,1,,,,,,,,
,,,,,,,,,,,,,FF,,,,,,,,0.999,,,,,,,,,,,,,,,,,,,,,,60fd700ffac5eba3832e3304,6103798053b06843ea59217a,2021-07-30_00h01.37.363,Simcolourproject_2stim_asymm_v5,2020.2.10,MacIntel,60,61025ae37ef11b136ea224fe,,,,,,,,,3599,-67,29,1,0,0,response7disk,,1,11,-4,1,0,0,rectangle,11,-4,1,0,0,11,-4,1,0,0,0,12,12,51,1,,,,,,,,
,,,,,,,,,,,,,FF,,,,,,,,1.635,,,,,,,,,,,,,,,,,,,,,,60fd700ffac5eba3832e3304,6103798053b06843ea59217a,2021-07-30_00h01.37.363,Simcolourproject_2stim_asymm_v5,2020.2.10,MacIntel,60,61025ae37ef11b136ea224fe,,,,,,,,,3271,72,43,1,0,0,response1disk,,6,-6,-8,1,0,0,rectangle,-6,-8,1,0,0,-6,-8,1,0,0,0,13,13,140,1,,,,,,,,
,,,,,,,,,,,,,FF,,,,,,,,0.934,,,,,,,,,,,,,,,,,,,,,,60fd700ffac5eba3832e3304,6103798053b06843ea59217a,2021-07-30_00h01.37.363,Simcolourproject_2stim_asymm_v5,2020.2.10,MacIntel,60,61025ae37ef11b136ea224fe,,,,,,,,,2504,66,75,1,0,0,response1disk,,7,5,5,1,0,0,rectangle,5,5,1,0,0,5,5,1,0,0,0,14,14,42,1,,,,,,,,
,,,,,,,,,,,,,FF,,,,,,,,0.75,,,,,,,,,,,,,,,,,,,,,,60fd700ffac5eba3832e3304,6103798053b06843ea59217a,2021-07-30_00h01.37.363,Simcolourproject_2stim_asymm_v5,2020.2.10,MacIntel,60,61025ae37ef11b136ea224fe,,,,,,,,,1642,70,48,1,0,0,response1disk,,6,-7,-5,1,0,0,rectangle,-7,-5,1,0,0,-7,-5,1,0,0,0,15,15,114,1,,,,,,,,
,,,,,,,,,,,,,FF,,,,,,,,1.116,,,,,,,,,,,,,,,,,,,,,,60fd700ffac5eba3832e3304,6103798053b06843ea59217a,2021-07-30_00h01.37.363,Simcolourproject_2stim_asymm_v5,2020.2.10,MacIntel,60,61025ae37ef11b136ea224fe,,,,,,,,,1760,-63,-66,1,0,0,response5disk,,3,1,-7,1,0,0,rectangle,1,-7,1,0,0,1,-7,1,0,0,0,16,16,59,1,,,,,,,,
,,,,,,,,,,,,,FF,,,,,,,,0.767,,,,,,,,,,,,,,,,,,,,,,60fd700ffac5eba3832e3304,6103798053b06843ea59217a,2021-07-30_00h01.37.363,Simcolourproject_2stim_asymm_v5,2020.2.10,MacIntel,60,61025ae37ef11b136ea224fe,,,,,,,,,2943,-83,-51,1,0,0,response5disk,,2,-3,1,1,0,0,rectangle,-3,1,1,0,0,-3,1,1,0,0,0,17,17,74,1,,,,,,,,
,,,,,,,,,,,,,FF,,,,,,,,0.833,,,,,,,,,,,,,,,,,,,,,,60fd700ffac5eba3832e3304,6103798053b06843ea59217a,2021-07-30_00h01.37.363,Simcolourproject_2stim_asymm_v5,2020.2.10,MacIntel,60,61025ae37ef11b136ea224fe,,,,,,,,,1776,39,-73,1,0,0,response3disk,,4,-6,-1,1,0,0,rectangle,-6,-1,1,0,0,-6,-1,1,0,0,0,18,18,119,1,,,,,,,,
,,,,,,,,,,,,,FF,,,,,,,,1.067,,,,,,,,,,,,,,,,,,,,,,60fd700ffac5eba3832e3304,6103798053b06843ea59217a,2021-07-30_00h01.37.363,Simcolourproject_2stim_asymm_v5,2020.2.10,MacIntel,60,61025ae37ef11b136ea224fe,,,,,,,,,1160,92,-45,1,0,0,response3disk,,5,0,3,1,0,0,rectangle,0,3,1,0,0,0,3,1,0,0,0,19,19,96,1,,,,,,,,
,,,,,,,,,,,,,FF,,,,,,,,1.498,,,,,,,,,,,,,,,,,,,,,,60fd700ffac5eba3832e3304,6103798053b06843ea59217a,2021-07-30_00h01.37.363,Simcolourproject_2stim_asymm_v5,2020.2.10,MacIntel,60,61025ae37ef11b136ea224fe,,,,,,,,,1051,-70,36,1,0,0,response7disk,,1,6,0,1,0,0,rectangle,6,0,1,0,0,6,0,1,0,0,0,20,20,5,1,,,,,,,,
,,,,,,,,,,,,,FF,,,,,,,,0.9,,,,,,,,,,,,,,,,,,,,,,60fd700ffac5eba3832e3304,6103798053b06843ea59217a,2021-07-30_00h01.37.363,Simcolourproject_2stim_asymm_v5,2020.2.10,MacIntel,60,61025ae37ef11b136ea224fe,,,,,,,,,235,92,-54,1,0,0,response3disk,,5,6,0,1,0,0,rectangle,6,0,1,0,0,6,0,1,0,0,0,21,21,124,1,,,,,,,,
,,,,,,,,,,,,,FF,,,,,,,,0.832,,,,,,,,,,,,,,,,,,,,,,60fd700ffac5eba3832e3304,6103798053b06843ea59217a,2021-07-30_00h01.37.363,Simcolourproject_2stim_asymm_v5,2020.2.10,MacIntel,60,61025ae37ef11b136ea224fe,,,,,,,,,4164,-83,-48,1,0,0,response5disk,,2,3,1,1,0,0,rectangle,3,1,1,0,0,3,1,1,0,0,0,22,22,11,1,,,,,,,,
,,,,,,,,,,,,,FF,,,,,,,,0.55,,,,,,,,,,,,,,,,,,,,,,60fd700ffac5eba3832e3304,6103798053b06843ea59217a,2021-07-30_00h01.37.363,Simcolourproject_2stim_asymm_v5,2020.2.10,MacIntel,60,61025ae37ef11b136ea224fe,,,,,,,,,4208,-70,-47,1,0,0,response5disk,,2,5,15,1,0,0,rectangle,5,15,1,0,0,5,15,1,0,0,0,23,23,122,1,,,,,,,,
,,,,,,,,,,,,,FF,,,,,,,,0.766,,,,,,,,,,,,,,,,,,,,,,60fd700ffac5eba3832e3304,6103798053b06843ea59217a,2021-07-30_00h01.37.363,Simcolourproject_2stim_asymm_v5,2020.2.10,MacIntel,60,61025ae37ef11b136ea224fe,,,,,,,,,692,43,-62,1,0,0,response3disk,,4,0,-8,1,0,0,rectangle,0,-8,1,0,0,0,-8,1,0,0,0,24,24,49,1,,,,,,,,
,,,,,,,,,,,,,FF,,,,,,,,0.634,,,,,,,,,,,,,,,,,,,,,,60fd700ffac5eba3832e3304,6103798053b06843ea59217a,2021-07-30_00h01.37.363,Simcolourproject_2stim_asymm_v5,2020.2.10,MacIntel,60,61025ae37ef11b136ea224fe,,,,,,,,,2457,74,-33,1,0,0,response3disk,,5,4,1,1,0,0,rectangle,96,-51,1,0,0,-2,1,1,0,0,0,25,25,71,1,,response3disk_3,TRUE,5,5,"[276,26,142,80,191,291,212,131,190,91,173,264,150,198,211,173,252,116,101,278]",2.748,rectangle
,,,,,,,,,,,,,FF,,,,,,,,8.1,,,,,,,,,,,,,,,,,,,,,,60fd700ffac5eba3832e3304,6103798053b06843ea59217a,2021-07-30_00h01.37.363,Simcolourproject_2stim_asymm_v5,2020.2.10,MacIntel,60,61025ae37ef11b136ea224fe,,,,,,,,,261,76,25,1,0,0,response1disk,,6,11,4,1,0,0,rectangle,11,4,1,0,0,11,4,1,0,0,0,26,26,129,1,,,,,,,,
,,,,,,,,,,,,,FF,,,,,,,,3.7,,,,,,,,,,,,,,,,,,,,,,60fd700ffac5eba3832e3304,6103798053b06843ea59217a,2021-07-30_00h01.37.363,Simcolourproject_2stim_asymm_v5,2020.2.10,MacIntel,60,61025ae37ef11b136ea224fe,,,,,,,,,2207,90,-44,1,0,0,response3disk,,5,-8,4,1,0,0,rectangle,-8,4,1,0,0,-8,4,1,0,0,0,27,27,18,1,,,,,,,,
,,,,,,,,,,,,,FF,,,,,,,,0.865,,,,,,,,,,,,,,,,,,,,,,60fd700ffac5eba3832e3304,6103798053b06843ea59217a,2021-07-30_00h01.37.363,Simcolourproject_2stim_asymm_v5,2020.2.10,MacIntel,60,61025ae37ef11b136ea224fe,,,,,,,,,1433,-80,-55,1,0,0,response5disk,,2,-4,-8,1,0,0,rectangle,-4,-8,1,0,0,-4,-8,1,0,0,0,28,28,38,1,,,,,,,,
,,,,,,,,,,,,,FF,,,,,,,,0.8,,,,,,,,,,,,,,,,,,,,,,60fd700ffac5eba3832e3304,6103798053b06843ea59217a,2021-07-30_00h01.37.363,Simcolourproject_2stim_asymm_v5,2020.2.10,MacIntel,60,61025ae37ef11b136ea224fe,,,,,,,,,1432,-46,-72,1,0,0,response5disk,,3,-3,3,1,0,0,rectangle,-3,3,1,0,0,-3,3,1,0,0,0,29,29,10,1,,,,,,,,
,,,,,,,,,,,,,FF,,,,,,,,0.583,,,,,,,,,,,,,,,,,,,,,,60fd700ffac5eba3832e3304,6103798053b06843ea59217a,2021-07-30_00h01.37.363,Simcolourproject_2stim_asymm_v5,2020.2.10,MacIntel,60,61025ae37ef11b136ea224fe,,,,,,,,,2763,63,-53,1,0,0,response3disk,,5,4,-4,1,0,0,rectangle,4,-4,1,0,0,4,-4,1,0,0,0,30,30,154,1,,,,,,,,
,,,,,,,,,,,,,FF,,,,,,,,0.783,,,,,,,,,,,,,,,,,,,,,,60fd700ffac5eba3832e3304,6103798053b06843ea59217a,2021-07-30_00h01.37.363,Simcolourproject_2stim_asymm_v5,2020.2.10,MacIntel,60,61025ae37ef11b136ea224fe,,,,,,,,,1597,-80,48,1,0,0,response7disk,,1,15,-4,1,0,0,rectangle,15,-4,1,0,0,15,-4,1,0,0,0,31,31,116,1,,,,,,,,
,,,,,,,,,,,,,FF,,,,,,,,0.8,,,,,,,,,,,,,,,,,,,,,,60fd700ffac5eba3832e3304,6103798053b06843ea59217a,2021-07-30_00h01.37.363,Simcolourproject_2stim_asymm_v5,2020.2.10,MacIntel,60,61025ae37ef11b136ea224fe,,,,,,,,,1584,-80,-29,1,0,0,response5disk,,2,2,9,1,0,0,rectangle,2,9,1,0,0,2,9,1,0,0,0,32,32,0,1,,,,,,,,
,,,,,,,,,,,,,FF,,,,,,,,0.7,,,,,,,,,,,,,,,,,,,,,,60fd700ffac5eba3832e3304,6103798053b06843ea59217a,2021-07-30_00h01.37.363,Simcolourproject_2stim_asymm_v5,2020.2.10,MacIntel,60,61025ae37ef11b136ea224fe,,,,,,,,,2498,100,-47,1,0,0,response3disk,,5,-2,-2,1,0,0,rectangle,-2,-2,1,0,0,-2,-2,1,0,0,0,33,33,107,1,,,,,,,,
,,,,,,,,,,,,,FF,,,,,,,,0.866,,,,,,,,,,,,,,,,,,,,,,60fd700ffac5eba3832e3304,6103798053b06843ea59217a,2021-07-30_00h01.37.363,Simcolourproject_2stim_asymm_v5,2020.2.10,MacIntel,60,61025ae37ef11b136ea224fe,,,,,,,,,1830,-67,-65,1,0,0,response5disk,,2,12,-13,1,0,0,rectangle,12,-13,1,0,0,12,-13,1,0,0,0,34,34,16,1,,,,,,,,
,,,,,,,,,,,,,FF,,,,,,,,0.699,,,,,,,,,,,,,,,,,,,,,,60fd700ffac5eba3832e3304,6103798053b06843ea59217a,2021-07-30_00h01.37.363,Simcolourproject_2stim_asymm_v5,2020.2.10,MacIntel,60,61025ae37ef11b136ea224fe,,,,,,,,,2027,-70,35,1,0,0,response7disk,,1,-5,-10,1,0,0,rectangle,-5,-10,1,0,0,-5,-10,1,0,0,0,35,35,37,1,,,,,,,,
,,,,,,,,,,,,,FF,,,,,,,,0.716,,,,,,,,,,,,,,,,,,,,,,60fd700ffac5eba3832e3304,6103798053b06843ea59217a,2021-07-30_00h01.37.363,Simcolourproject_2stim_asymm_v5,2020.2.10,MacIntel,60,61025ae37ef11b136ea224fe,,,,,,,,,196,34,-74,1,0,0,response3disk,,4,-2,-4,1,0,0,rectangle,-2,-4,1,0,0,-2,-4,1,0,0,0,36,36,97,1,,,,,,,,
,,,,,,,,,,,,,FF,,,,,,,,0.6,,,,,,,,,,,,,,,,,,,,,,60fd700ffac5eba3832e3304,6103798053b06843ea59217a,2021-07-30_00h01.37.363,Simcolourproject_2stim_asymm_v5,2020.2.10,MacIntel,60,61025ae37ef11b136ea224fe,,,,,,,,,2633,95,-51,1,0,0,response3disk,,5,2,2,1,0,0,rectangle,2,2,1,0,0,2,2,1,0,0,0,37,37,109,1,,,,,,,,
,,,,,,,,,,,,,FF,,,,,,,,0.683,,,,,,,,,,,,,,,,,,,,,,60fd700ffac5eba3832e3304,6103798053b06843ea59217a,2021-07-30_00h01.37.363,Simcolourproject_2stim_asymm_v5,2020.2.10,MacIntel,60,61025ae37ef11b136ea224fe,,,,,,,,,3291,-89,29,1,0,0,response7disk,,1,4,7,1,0,0,rectangle,4,7,1,0,0,4,7,1,0,0,0,38,38,29,1,,,,,,,,
,,,,,,,,,,,,,FF,,,,,,,,0.967,,,,,,,,,,,,,,,,,,,,,,60fd700ffac5eba3832e3304,6103798053b06843ea59217a,2021-07-30_00h01.37.363,Simcolourproject_2stim_asymm_v5,2020.2.10,MacIntel,60,61025ae37ef11b136ea224fe,,,,,,,,,2246,-86,-41,1,0,0,response5disk,,2,0,-2,1,0,0,rectangle,0,-2,1,0,0,0,-2,1,0,0,0,39,39,34,1,,,,,,,,
,,,,,,,,,,,,,FF,,,,,,,,1.416,,,,,,,,,,,,,,,,,,,,,,60fd700ffac5eba3832e3304,6103798053b06843ea59217a,2021-07-30_00h01.37.363,Simcolourproject_2stim_asymm_v5,2020.2.10,MacIntel,60,61025ae37ef11b136ea224fe,,,,,,,,,3010,45,-76,1,0,0,response3disk,,4,3,-1,1,0,0,rectangle,3,-1,1,0,0,3,-1,1,0,0,0,40,40,36,1,,,,,,,,
,,,,,,,,,,,,,FF,,,,,,,,0.5,,,,,,,,,,,,,,,,,,,,,,60fd700ffac5eba3832e3304,6103798053b06843ea59217a,2021-07-30_00h01.37.363,Simcolourproject_2stim_asymm_v5,2020.2.10,MacIntel,60,61025ae37ef11b136ea224fe,,,,,,,,,200,80,-57,1,0,0,response3disk,,5,10,1,1,0,0,rectangle,10,1,1,0,0,10,1,1,0,0,0,41,41,152,1,,,,,,,,
,,,,,,,,,,,,,FF,,,,,,,,0.516,,,,,,,,,,,,,,,,,,,,,,60fd700ffac5eba3832e3304,6103798053b06843ea59217a,2021-07-30_00h01.37.363,Simcolourproject_2stim_asymm_v5,2020.2.10,MacIntel,60,61025ae37ef11b136ea224fe,,,,,,,,,2682,71,-47,1,0,0,response3disk,,5,0,-1,1,0,0,rectangle,0,-1,1,0,0,0,-1,1,0,0,0,42,42,151,1,,,,,,,,
,,,,,,,,,,,,,FF,,,,,,,,0.683,,,,,,,,,,,,,,,,,,,,,,60fd700ffac5eba3832e3304,6103798053b06843ea59217a,2021-07-30_00h01.37.363,Simcolourproject_2stim_asymm_v5,2020.2.10,MacIntel,60,61025ae37ef11b136ea224fe,,,,,,,,,2820,79,-38,1,0,0,response3disk,,5,9,4,1,0,0,rectangle,9,4,1,0,0,9,4,1,0,0,0,43,43,63,1,,,,,,,,
,,,,,,,,,,,,,FF,,,,,,,,0.683,,,,,,,,,,,,,,,,,,,,,,60fd700ffac5eba3832e3304,6103798053b06843ea59217a,2021-07-30_00h01.37.363,Simcolourproject_2stim_asymm_v5,2020.2.10,MacIntel,60,61025ae37ef11b136ea224fe,,,,,,,,,3778,-79,44,1,0,0,response7disk,,1,4,-3,1,0,0,rectangle,4,-3,1,0,0,4,-3,1,0,0,0,44,44,98,1,,,,,,,,
,,,,,,,,,,,,,FF,,,,,,,,2.148,,,,,,,,,,,,,,,,,,,,,,60fd700ffac5eba3832e3304,6103798053b06843ea59217a,2021-07-30_00h01.37.363,Simcolourproject_2stim_asymm_v5,2020.2.10,MacIntel,60,61025ae37ef11b136ea224fe,,,,,,,,,2151,104,30,1,0,0,response1disk,,6,-24,-11,1,0,0,rectangle,-24,-11,1,0,0,-24,-11,1,0,0,0,45,45,159,1,,,,,,,,
,,,,,,,,,,,,,FF,,,,,,,,1.265,,,,,,,,,,,,,,,,,,,,,,60fd700ffac5eba3832e3304,6103798053b06843ea59217a,2021-07-30_00h01.37.363,Simcolourproject_2stim_asymm_v5,2020.2.10,MacIntel,60,61025ae37ef11b136ea224fe,,,,,,,,,233,91,42,1,0,0,response1disk,,6,7,-1,1,0,0,rectangle,7,-1,1,0,0,7,-1,1,0,0,0,46,46,99,1,,,,,,,,
,,,,,,,,,,,,,FF,,,,,,,,0.649,,,,,,,,,,,,,,,,,,,,,,60fd700ffac5eba3832e3304,6103798053b06843ea59217a,2021-07-30_00h01.37.363,Simcolourproject_2stim_asymm_v5,2020.2.10,MacIntel,60,61025ae37ef11b136ea224fe,,,,,,,,,2625,82,29,1,0,0,response1disk,,6,15,9,1,0,0,rectangle,15,9,1,0,0,15,9,1,0,0,0,47,47,101,1,,,,,,,,
,,,,,,,,,,,,,FF,,,,,,,,0.666,,,,,,,,,,,,,,,,,,,,,,60fd700ffac5eba3832e3304,6103798053b06843ea59217a,2021-07-30_00h01.37.363,Simcolourproject_2stim_asymm_v5,2020.2.10,MacIntel,60,61025ae37ef11b136ea224fe,,,,,,,,,4017,99,26,1,0,0,response1disk,,6,18,4,1,0,0,rectangle,18,4,1,0,0,18,4,1,0,0,0,48,48,2,1,,,,,,,,
,,,,,,,,,,,,,FF,,,,,,,,0.666,,,,,,,,,,,,,,,,,,,,,,60fd700ffac5eba3832e3304,6103798053b06843ea59217a,2021-07-30_00h01.37.363,Simcolourproject_2stim_asymm_v5,2020.2.10,MacIntel,60,61025ae37ef11b136ea224fe,,,,,,,,,3148,-95,44,1,0,0,response7disk,,1,-11,-1,1,0,0,rectangle,-11,-1,1,0,0,-11,-1,1,0,0,0,49,49,95,1,,,,,,,,
,,,,,,,,,,,,,FF,,,,,,,,0.749,,,,,,,,,,,,,,,,,,,,,,60fd700ffac5eba3832e3304,6103798053b06843ea59217a,2021-07-30_00h01.37.363,Simcolourproject_2stim_asymm_v5,2020.2.10,MacIntel,60,61025ae37ef11b136ea224fe,,,,,,,,,3178,84,-58,1,0,0,response3disk,,5,3,-11,1,0,0,rectangle,3,-11,1,0,0,3,-11,1,0,0,0,50,50,85,1,,,,,,,,
,,,,,,,,,,,,,FF,,,,,,,,0.833,,,,,,,,,,,,,,,,,,,,,,60fd700ffac5eba3832e3304,6103798053b06843ea59217a,2021-07-30_00h01.37.363,Simcolourproject_2stim_asymm_v5,2020.2.10,MacIntel,60,61025ae37ef11b136ea224fe,,,,,,,,,2337,42,68,1,0,0,response1disk,,7,-5,3,1,0,0,rectangle,-5,3,1,0,0,-5,3,1,0,0,0,51,51,28,1,,,,,,,,
,,,,,,,,,,,,,FF,,,,,,,,1.233,,,,,,,,,,,,,,,,,,,,,,60fd700ffac5eba3832e3304,6103798053b06843ea59217a,2021-07-30_00h01.37.363,Simcolourproject_2stim_asymm_v5,2020.2.10,MacIntel,60,61025ae37ef11b136ea224fe,,,,,,,,,441,-71,51,1,0,0,response7disk,,1,-4,-2,1,0,0,rectangle,-4,-2,1,0,0,-4,-2,1,0,0,0,52,52,33,1,,,,,,,,
,,,,,,,,,,,,,FF,,,,,,,,0.8,,,,,,,,,,,,,,,,,,,,,,60fd700ffac5eba3832e3304,6103798053b06843ea59217a,2021-07-30_00h01.37.363,Simcolourproject_2stim_asymm_v5,2020.2.10,MacIntel,60,61025ae37ef11b136ea224fe,,,,,,,,,1415,79,28,1,0,0,response1disk,,6,2,-4,1,0,0,rectangle,2,-4,1,0,0,2,-4,1,0,0,0,53,53,65,1,,,,,,,,
,,,,,,,,,,,,,FF,,,,,,,,0.8,,,,,,,,,,,,,,,,,,,,,,60fd700ffac5eba3832e3304,6103798053b06843ea59217a,2021-07-30_00h01.37.363,Simcolourproject_2stim_asymm_v5,2020.2.10,MacIntel,60,61025ae37ef11b136ea224fe,,,,,,,,,924,107,16,1,0,0,response1disk,,6,5,-1,1,0,0,rectangle,5,-1,1,0,0,5,-1,1,0,0,0,54,54,67,1,,,,,,,,
,,,,,,,,,,,,,FF,,,,,,,,1.75,,,,,,,,,,,,,,,,,,,,,,60fd700ffac5eba3832e3304,6103798053b06843ea59217a,2021-07-30_00h01.37.363,Simcolourproject_2stim_asymm_v5,2020.2.10,MacIntel,60,61025ae37ef11b136ea224fe,,,,,,,,,3586,-82,38,1,0,0,response7disk,,1,-14,6,1,0,0,rectangle,-14,6,1,0,0,-14,6,1,0,0,0,55,55,17,1,,,,,,,,
,,,,,,,,,,,,,FF,,,,,,,,0.967,,,,,,,,,,,,,,,,,,,,,,60fd700ffac5eba3832e3304,6103798053b06843ea59217a,2021-07-30_00h01.37.363,Simcolourproject_2stim_asymm_v5,2020.2.10,MacIntel,60,61025ae37ef11b136ea224fe,,,,,,,,,125,67,-47,1,0,0,response3disk,,5,3,4,1,0,0,rectangle,3,4,1,0,0,3,4,1,0,0,0,56,56,142,1,,,,,,,,
,,,,,,,,,,,,,FF,,,,,,,,0.633,,,,,,,,,,,,,,,,,,,,,,60fd700ffac5eba3832e3304,6103798053b06843ea59217a,2021-07-30_00h01.37.363,Simcolourproject_2stim_asymm_v5,2020.2.10,MacIntel,60,61025ae37ef11b136ea224fe,,,,,,,,,94,-77,44,1,0,0,response7disk,,1,-5,6,1,0,0,rectangle,-5,6,1,0,0,-5,6,1,0,0,0,57,57,147,1,,,,,,,,
,,,,,,,,,,,,,FF,,,,,,,,1.468,,,,,,,,,,,,,,,,,,,,,,60fd700ffac5eba3832e3304,6103798053b06843ea59217a,2021-07-30_00h01.37.363,Simcolourproject_2stim_asymm_v5,2020.2.10,MacIntel,60,61025ae37ef11b136ea224fe,,,,,,,,,290,-40,-64,1,0,0,response5disk,,3,-3,7,1,0,0,rectangle,-3,7,1,0,0,-3,7,1,0,0,0,58,58,27,1,,,,,,,,
,,,,,,,,,,,,,FF,,,,,,,,0.8,,,,,,,,,,,,,,,,,,,,,,60fd700ffac5eba3832e3304,6103798053b06843ea59217a,2021-07-30_00h01.37.363,Simcolourproject_2stim_asymm_v5,2020.2.10,MacIntel,60,61025ae37ef11b136ea224fe,,,,,,,,,1932,83,-51,1,0,0,response3disk,,5,6,-3,1,0,0,rectangle,6,-3,1,0,0,6,-3,1,0,0,0,59,59,118,1,,,,,,,,
,,,,,,,,,,,,,FF,,,,,,,,12.734,,,,,,,,,,,,,,,,,,,,,,60fd700ffac5eba3832e3304,6103798053b06843ea59217a,2021-07-30_00h01.37.363,Simcolourproject_2stim_asymm_v5,2020.2.10,MacIntel,60,61025ae37ef11b136ea224fe,,,,,,,,,1940,69,-44,1,0,0,response3disk,,5,6,-4,1,0,0,rectangle,6,-4,1,0,0,6,-4,1,0,0,0,60,60,62,1,,,,,,,,
,,,,,,,,,,,,,FF,,,,,,,,0.566,,,,,,,,,,,,,,,,,,,,,,60fd700ffac5eba3832e3304,6103798053b06843ea59217a,2021-07-30_00h01.37.363,Simcolourproject_2stim_asymm_v5,2020.2.10,MacIntel,60,61025ae37ef11b136ea224fe,,,,,,,,,2440,66,-33,1,0,0,response3disk,,5,3,1,1,0,0,rectangle,3,1,1,0,0,3,1,1,0,0,0,61,61,41,1,,,,,,,,
,,,,,,,,,,,,,FF,,,,,,,,0.517,,,,,,,,,,,,,,,,,,,,,,60fd700ffac5eba3832e3304,6103798053b06843ea59217a,2021-07-30_00h01.37.363,Simcolourproject_2stim_asymm_v5,2020.2.10,MacIntel,60,61025ae37ef11b136ea224fe,,,,,,,,,2125,90,-49,1,0,0,response3disk,,5,21,1,1,0,0,rectangle,21,1,1,0,0,21,1,1,0,0,0,62,62,78,1,,,,,,,,
,,,,,,,,,,,,,FF,,,,,,,,0.533,,,,,,,,,,,,,,,,,,,,,,60fd700ffac5eba3832e3304,6103798053b06843ea59217a,2021-07-30_00h01.37.363,Simcolourproject_2stim_asymm_v5,2020.2.10,MacIntel,60,61025ae37ef11b136ea224fe,,,,,,,,,4260,61,45,1,0,0,response1disk,,6,-4,14,1,0,0,rectangle,-4,14,1,0,0,-4,14,1,0,0,0,63,63,139,1,,,,,,,,
,,,,,,,,,,,,,FF,,,,,,,,0.483,,,,,,,,,,,,,,,,,,,,,,60fd700ffac5eba3832e3304,6103798053b06843ea59217a,2021-07-30_00h01.37.363,Simcolourproject_2stim_asymm_v5,2020.2.10,MacIntel,60,61025ae37ef11b136ea224fe,,,,,,,,,3646,49,79,1,0,0,response1disk,,7,5,6,1,0,0,rectangle,5,6,1,0,0,5,6,1,0,0,0,64,64,60,1,,,,,,,,
,,,,,,,,,,,,,FF,,,,,,,,1.098,,,,,,,,,,,,,,,,,,,,,,60fd700ffac5eba3832e3304,6103798053b06843ea59217a,2021-07-30_00h01.37.363,Simcolourproject_2stim_asymm_v5,2020.2.10,MacIntel,60,61025ae37ef11b136ea224fe,,,,,,,,,2785,-89,-38,1,0,0,response5disk,,2,-3,7,1,0,0,rectangle,-3,7,1,0,0,-3,7,1,0,0,0,65,65,91,1,,,,,,,,
,,,,,,,,,,,,,FF,,,,,,,,0.666,,,,,,,,,,,,,,,,,,,,,,60fd700ffac5eba3832e3304,6103798053b06843ea59217a,2021-07-30_00h01.37.363,Simcolourproject_2stim_asymm_v5,2020.2.10,MacIntel,60,61025ae37ef11b136ea224fe,,,,,,,,,4000,-82,23,1,0,0,response7disk,,1,-18,4,1,0,0,rectangle,-18,4,1,0,0,-18,4,1,0,0,0,66,66,26,1,,,,,,,,
,,,,,,,,,,,,,FF,,,,,,,,0.716,,,,,,,,,,,,,,,,,,,,,,60fd700ffac5eba3832e3304,6103798053b06843ea59217a,2021-07-30_00h01.37.363,Simcolourproject_2stim_asymm_v5,2020.2.10,MacIntel,60,61025ae37ef11b136ea224fe,,,,,,,,,3906,-55,94,1,0,0,response7disk,,0,0,15,1,0,0,rectangle,0,15,1,0,0,0,15,1,0,0,0,67,67,24,1,,,,,,,,
,,,,,,,,,,,,,FF,,,,,,,,0.75,,,,,,,,,,,,,,,,,,,,,,60fd700ffac5eba3832e3304,6103798053b06843ea59217a,2021-07-30_00h01.37.363,Simcolourproject_2stim_asymm_v5,2020.2.10,MacIntel,60,61025ae37ef11b136ea224fe,,,,,,,,,272,-40,-69,1,0,0,response5disk,,3,0,2,1,0,0,rectangle,0,2,1,0,0,0,2,1,0,0,0,68,68,23,1,,,,,,,,
,,,,,,,,,,,,,FF,,,,,,,,0.649,,,,,,,,,,,,,,,,,,,,,,60fd700ffac5eba3832e3304,6103798053b06843ea59217a,2021-07-30_00h01.37.363,Simcolourproject_2stim_asymm_v5,2020.2.10,MacIntel,60,61025ae37ef11b136ea224fe,,,,,,,,,1821,-91,43,1,0,0,response7disk,,1,4,-12,1,0,0,rectangle,4,-12,1,0,0,4,-12,1,0,0,0,69,69,58,1,,,,,,,,
,,,,,,,,,,,,,FF,,,,,,,,0.616,,,,,,,,,,,,,,,,,,,,,,60fd700ffac5eba3832e3304,6103798053b06843ea59217a,2021-07-30_00h01.37.363,Simcolourproject_2stim_asymm_v5,2020.2.10,MacIntel,60,61025ae37ef11b136ea224fe,,,,,,,,,3226,76,-20,1,0,0,response3disk,,5,5,-3,1,0,0,rectangle,5,-3,1,0,0,5,-3,1,0,0,0,70,70,50,1,,,,,,,,
,,,,,,,,,,,,,FF,,,,,,,,0.732,,,,,,,,,,,,,,,,,,,,,,60fd700ffac5eba3832e3304,6103798053b06843ea59217a,2021-07-30_00h01.37.363,Simcolourproject_2stim_asymm_v5,2020.2.10,MacIntel,60,61025ae37ef11b136ea224fe,,,,,,,,,84,59,76,1,0,0,response1disk,,7,-14,-4,1,0,0,rectangle,-14,-4,1,0,0,-14,-4,1,0,0,0,71,71,75,1,,,,,,,,
,,,,,,,,,,,,,FF,,,,,,,,0.733,,,,,,,,,,,,,,,,,,,,,,60fd700ffac5eba3832e3304,6103798053b06843ea59217a,2021-07-30_00h01.37.363,Simcolourproject_2stim_asymm_v5,2020.2.10,MacIntel,60,61025ae37ef11b136ea224fe,,,,,,,,,764,78,33,1,0,0,response1disk,,6,6,-8,1,0,0,rectangle,6,-8,1,0,0,6,-8,1,0,0,0,72,72,145,1,,,,,,,,
,,,,,,,,,,,,,FF,,,,,,,,0.95,,,,,,,,,,,,,,,,,,,,,,60fd700ffac5eba3832e3304,6103798053b06843ea59217a,2021-07-30_00h01.37.363,Simcolourproject_2stim_asymm_v5,2020.2.10,MacIntel,60,61025ae37ef11b136ea224fe,,,,,,,,,1527,-92,-43,1,0,0,response5disk,,2,-4,7,1,0,0,rectangle,-4,7,1,0,0,-4,7,1,0,0,0,73,73,120,1,,,,,,,,
,,,,,,,,,,,,,FF,,,,,,,,0.799,,,,,,,,,,,,,,,,,,,,,,60fd700ffac5eba3832e3304,6103798053b06843ea59217a,2021-07-30_00h01.37.363,Simcolourproject_2stim_asymm_v5,2020.2.10,MacIntel,60,61025ae37ef11b136ea224fe,,,,,,,,,2863,73,-64,1,0,0,response3disk,,5,-1,-4,1,0,0,rectangle,-1,-4,1,0,0,-1,-4,1,0,0,0,74,74,138,1,,,,,,,,
,,,,,,,,,,,,,FF,,,,,,,,0.766,,,,,,,,,,,,,,,,,,,,,,60fd700ffac5eba3832e3304,6103798053b06843ea59217a,2021-07-30_00h01.37.363,Simcolourproject_2stim_asymm_v5,2020.2.10,MacIntel,60,61025ae37ef11b136ea224fe,,,,,,,,,1478,108,-45,1,0,0,response3disk,,5,-6,0,1,0,0,rectangle,-6,0,1,0,0,-6,0,1,0,0,0,75,75,134,1,,,,,,,,
,,,,,,,,,,,,,FF,,,,,,,,1.466,,,,,,,,,,,,,,,,,,,,,,60fd700ffac5eba3832e3304,6103798053b06843ea59217a,2021-07-30_00h01.37.363,Simcolourproject_2stim_asymm_v5,2020.2.10,MacIntel,60,61025ae37ef11b136ea224fe,,,,,,,,,4320,96,39,1,0,0,response1disk,,6,1,-1,1,0,0,rectangle,1,-1,1,0,0,1,-1,1,0,0,0,76,76,30,1,,,,,,,,
,,,,,,,,,,,,,FF,,,,,,,,0.684,,,,,,,,,,,,,,,,,,,,,,60fd700ffac5eba3832e3304,6103798053b06843ea59217a,2021-07-30_00h01.37.363,Simcolourproject_2stim_asymm_v5,2020.2.10,MacIntel,60,61025ae37ef11b136ea224fe,,,,,,,,,2668,-80,30,1,0,0,response7disk,,1,4,-1,1,0,0,rectangle,4,-1,1,0,0,4,-1,1,0,0,0,77,77,82,1,,,,,,,,
,,,,,,,,,,,,,FF,,,,,,,,0.767,,,,,,,,,,,,,,,,,,,,,,60fd700ffac5eba3832e3304,6103798053b06843ea59217a,2021-07-30_00h01.37.363,Simcolourproject_2stim_asymm_v5,2020.2.10,MacIntel,60,61025ae37ef11b136ea224fe,,,,,,,,,4003,-98,-46,1,0,0,response5disk,,2,0,6,1,0,0,rectangle,0,6,1,0,0,0,6,1,0,0,0,78,78,153,1,,,,,,,,
,,,,,,,,,,,,,FF,,,,,,,,0.599,,,,,,,,,,,,,,,,,,,,,,60fd700ffac5eba3832e3304,6103798053b06843ea59217a,2021-07-30_00h01.37.363,Simcolourproject_2stim_asymm_v5,2020.2.10,MacIntel,60,61025ae37ef11b136ea224fe,,,,,,,,,2701,85,-29,1,0,0,response3disk,,5,-4,-10,1,0,0,rectangle,44,80,1,0,0,1,6,1,0,0,0,79,79,143,1,,response1disk_3,TRUE,7,7,"[276,26,142,80,191,291,212,131,190,91,173,264,150,198,211,173,252,116,101,278]",1.848,rectangle
,,,,,,,,,,,,,FF,,,,,,,,0.75,,,,,,,,,,,,,,,,,,,,,,60fd700ffac5eba3832e3304,6103798053b06843ea59217a,2021-07-30_00h01.37.363,Simcolourproject_2stim_asymm_v5,2020.2.10,MacIntel,60,61025ae37ef11b136ea224fe,,,,,,,,,1755,-86,50,1,0,0,response7disk,,1,0,7,1,0,0,rectangle,0,7,1,0,0,0,7,1,0,0,0,80,80,76,1,,,,,,,,
,,,,,,,,,,,,,FF,,,,,,,,0.65,,,,,,,,,,,,,,,,,,,,,,60fd700ffac5eba3832e3304,6103798053b06843ea59217a,2021-07-30_00h01.37.363,Simcolourproject_2stim_asymm_v5,2020.2.10,MacIntel,60,61025ae37ef11b136ea224fe,,,,,,,,,1471,97,32,1,0,0,response1disk,,6,4,-4,1,0,0,rectangle,4,-4,1,0,0,4,-4,1,0,0,0,81,81,106,1,,,,,,,,
,,,,,,,,,,,,,FF,,,,,,,,0.733,,,,,,,,,,,,,,,,,,,,,,60fd700ffac5eba3832e3304,6103798053b06843ea59217a,2021-07-30_00h01.37.363,Simcolourproject_2stim_asymm_v5,2020.2.10,MacIntel,60,61025ae37ef11b136ea224fe,,,,,,,,,674,93,38,1,0,0,response1disk,,6,-12,-11,1,0,0,rectangle,-12,-11,1,0,0,-12,-11,1,0,0,0,82,82,126,1,,,,,,,,
,,,,,,,,,,,,,FF,,,,,,,,0.7,,,,,,,,,,,,,,,,,,,,,,60fd700ffac5eba3832e3304,6103798053b06843ea59217a,2021-07-30_00h01.37.363,Simcolourproject_2stim_asymm_v5,2020.2.10,MacIntel,60,61025ae37ef11b136ea224fe,,,,,,,,,3478,-86,-52,1,0,0,response5disk,,2,-9,0,1,0,0,rectangle,-9,0,1,0,0,-9,0,1,0,0,0,83,83,54,1,,,,,,,,
,,,,,,,,,,,,,FF,,,,,,,,0.65,,,,,,,,,,,,,,,,,,,,,,60fd700ffac5eba3832e3304,6103798053b06843ea59217a,2021-07-30_00h01.37.363,Simcolourproject_2stim_asymm_v5,2020.2.10,MacIntel,60,61025ae37ef11b136ea224fe,,,,,,,,,2731,-50,-76,1,0,0,response5disk,,3,-3,-6,1,0,0,rectangle,-3,-6,1,0,0,-3,-6,1,0,0,0,84,84,103,1,,,,,,,,
,,,,,,,,,,,,,FF,,,,,,,,0.582,,,,,,,,,,,,,,,,,,,,,,60fd700ffac5eba3832e3304,6103798053b06843ea59217a,2021-07-30_00h01.37.363,Simcolourproject_2stim_asymm_v5,2020.2.10,MacIntel,60,61025ae37ef11b136ea224fe,,,,,,,,,1664,93,-43,1,0,0,response3disk,,5,11,-9,1,0,0,rectangle,11,-9,1,0,0,11,-9,1,0,0,0,85,85,121,1,,,,,,,,
,,,,,,,,,,,,,FF,,,,,,,,0.834,,,,,,,,,,,,,,,,,,,,,,60fd700ffac5eba3832e3304,6103798053b06843ea59217a,2021-07-30_00h01.37.363,Simcolourproject_2stim_asymm_v5,2020.2.10,MacIntel,60,61025ae37ef11b136ea224fe,,,,,,,,,1141,41,-71,1,0,0,response3disk,,4,6,-12,1,0,0,rectangle,6,-12,1,0,0,6,-12,1,0,0,0,86,86,40,1,,,,,,,,
,,,,,,,,,,,,,FF,,,,,,,,1.466,,,,,,,,,,,,,,,,,,,,,,60fd700ffac5eba3832e3304,6103798053b06843ea59217a,2021-07-30_00h01.37.363,Simcolourproject_2stim_asymm_v5,2020.2.10,MacIntel,60,61025ae37ef11b136ea224fe,,,,,,,,,963,93,-34,1,0,0,response3disk,,5,5,2,1,0,0,rectangle,5,2,1,0,0,5,2,1,0,0,0,87,87,150,1,,,,,,,,
,,,,,,,,,,,,,FF,,,,,,,,0.649,,,,,,,,,,,,,,,,,,,,,,60fd700ffac5eba3832e3304,6103798053b06843ea59217a,2021-07-30_00h01.37.363,Simcolourproject_2stim_asymm_v5,2020.2.10,MacIntel,60,61025ae37ef11b136ea224fe,,,,,,,,,339,93,31,1,0,0,response1disk,,6,-5,-9,1,0,0,rectangle,-5,-9,1,0,0,-5,-9,1,0,0,0,88,88,146,1,,,,,,,,
,,,,,,,,,,,,,FF,,,,,,,,0.816,,,,,,,,,,,,,,,,,,,,,,60fd700ffac5eba3832e3304,6103798053b06843ea59217a,2021-07-30_00h01.37.363,Simcolourproject_2stim_asymm_v5,2020.2.10,MacIntel,60,61025ae37ef11b136ea224fe,,,,,,,,,336,87,-33,1,0,0,response3disk,,5,-1,-1,1,0,0,rectangle,-1,-1,1,0,0,-1,-1,1,0,0,0,89,89,31,1,,,,,,,,
,,,,,,,,,,,,,FF,,,,,,,,0.632,,,,,,,,,,,,,,,,,,,,,,60fd700ffac5eba3832e3304,6103798053b06843ea59217a,2021-07-30_00h01.37.363,Simcolourproject_2stim_asymm_v5,2020.2.10,MacIntel,60,61025ae37ef11b136ea224fe,,,,,,,,,72,-86,-48,1,0,0,response5disk,,2,-2,3,1,0,0,rectangle,90,-56,1,0,0,-9,0,1,0,0,0,90,90,84,1,,response3disk_3,TRUE,5,5,"[276,26,142,80,191,291,212,131,190,91,173,264,150,198,211,173,252,116,101,278]",2.349,rectangle
,,,,,,,,,,,,,FF,,,,,,,,0.632,,,,,,,,,,,,,,,,,,,,,,60fd700ffac5eba3832e3304,6103798053b06843ea59217a,2021-07-30_00h01.37.363,Simcolourproject_2stim_asymm_v5,2020.2.10,MacIntel,60,61025ae37ef11b136ea224fe,,,,,,,,,3046,-71,33,1,0,0,response7disk,,1,14,-13,1,0,0,rectangle,14,-13,1,0,0,14,-13,1,0,0,0,91,91,108,1,,,,,,,,
,,,,,,,,,,,,,FF,,,,,,,,0.716,,,,,,,,,,,,,,,,,,,,,,60fd700ffac5eba3832e3304,6103798053b06843ea59217a,2021-07-30_00h01.37.363,Simcolourproject_2stim_asymm_v5,2020.2.10,MacIntel,60,61025ae37ef11b136ea224fe,,,,,,,,,2779,-88,-32,1,0,0,response5disk,,2,3,1,1,0,0,rectangle,3,1,1,0,0,3,1,1,0,0,0,92,92,123,1,,,,,,,,
,,,,,,,,,,,,,FF,,,,,,,,0.667,,,,,,,,,,,,,,,,,,,,,,60fd700ffac5eba3832e3304,6103798053b06843ea59217a,2021-07-30_00h01.37.363,Simcolourproject_2stim_asymm_v5,2020.2.10,MacIntel,60,61025ae37ef11b136ea224fe,,,,,,,,,1524,-73,-55,1,0,0,response5disk,,2,3,-3,1,0,0,rectangle,3,-3,1,0,0,3,-3,1,0,0,0,93,93,20,1,,,,,,,,
,,,,,,,,,,,,,FF,,,,,,,,0.966,,,,,,,,,,,,,,,,,,,,,,60fd700ffac5eba3832e3304,6103798053b06843ea59217a,2021-07-30_00h01.37.363,Simcolourproject_2stim_asymm_v5,2020.2.10,MacIntel,60,61025ae37ef11b136ea224fe,,,,,,,,,562,-52,-74,1,0,0,response5disk,,3,0,-2,1,0,0,rectangle,0,-2,1,0,0,0,-2,1,0,0,0,94,94,12,1,,,,,,,,
,,,,,,,,,,,,,FF,,,,,,,,0.616,,,,,,,,,,,,,,,,,,,,,,60fd700ffac5eba3832e3304,6103798053b06843ea59217a,2021-07-30_00h01.37.363,Simcolourproject_2stim_asymm_v5,2020.2.10,MacIntel,60,61025ae37ef11b136ea224fe,,,,,,,,,828,47,-69,1,0,0,response3disk,,4,11,4,1,0,0,rectangle,11,4,1,0,0,11,4,1,0,0,0,95,95,144,1,,,,,,,,
,,,,,,,,,,,,,FF,,,,,,,,0.767,,,,,,,,,,,,,,,,,,,,,,60fd700ffac5eba3832e3304,6103798053b06843ea59217a,2021-07-30_00h01.37.363,Simcolourproject_2stim_asymm_v5,2020.2.10,MacIntel,60,61025ae37ef11b136ea224fe,,,,,,,,,3978,-109,-74,1,0,0,response5disk,,2,7,4,1,0,0,rectangle,7,4,1,0,0,7,4,1,0,0,0,96,96,86,1,,,,,,,,
,,,,,,,,,,,,,FF,,,,,,,,0.6,,,,,,,,,,,,,,,,,,,,,,60fd700ffac5eba3832e3304,6103798053b06843ea59217a,2021-07-30_00h01.37.363,Simcolourproject_2stim_asymm_v5,2020.2.10,MacIntel,60,61025ae37ef11b136ea224fe,,,,,,,,,1787,55,-64,1,0,0,response3disk,,4,17,-9,1,0,0,rectangle,17,-9,1,0,0,17,-9,1,0,0,0,97,97,113,1,,,,,,,,
,,,,,,,,,,,,,FF,,,,,,,,0.549,,,,,,,,,,,,,,,,,,,,,,60fd700ffac5eba3832e3304,6103798053b06843ea59217a,2021-07-30_00h01.37.363,Simcolourproject_2stim_asymm_v5,2020.2.10,MacIntel,60,61025ae37ef11b136ea224fe,,,,,,,,,2630,78,-45,1,0,0,response3disk,,5,10,2,1,0,0,rectangle,10,2,1,0,0,10,2,1,0,0,0,98,98,8,1,,,,,,,,
,,,,,,,,,,,,,FF,,,,,,,,1.333,,,,,,,,,,,,,,,,,,,,,,60fd700ffac5eba3832e3304,6103798053b06843ea59217a,2021-07-30_00h01.37.363,Simcolourproject_2stim_asymm_v5,2020.2.10,MacIntel,60,61025ae37ef11b136ea224fe,,,,,,,,,1530,-83,-48,1,0,0,response5disk,,2,-10,1,1,0,0,rectangle,-10,1,1,0,0,-10,1,1,0,0,0,99,99,131,1,,,,,,,,
,,,,,,,,,,,,,FF,,,,,,,,0.933,,,,,,,,,,,,,,,,,,,,,,60fd700ffac5eba3832e3304,6103798053b06843ea59217a,2021-07-30_00h01.37.363,Simcolourproject_2stim_asymm_v5,2020.2.10,MacIntel,60,61025ae37ef11b136ea224fe,,,,,,,,,3301,-88,-44,1,0,0,response5disk,,2,12,-4,1,0,0,rectangle,-91,44,1,0,0,1,1,1,0,0,0,100,100,148,1,,response7disk_3,TRUE,1,1,"[276,26,142,80,191,291,212,131,190,91,173,264,150,198,211,173,252,116,101,278]",4.566,rectangle
,,,,,,,,,,,,,FF,,,,,,,,0.716,,,,,,,,,,,,,,,,,,,,,,60fd700ffac5eba3832e3304,6103798053b06843ea59217a,2021-07-30_00h01.37.363,Simcolourproject_2stim_asymm_v5,2020.2.10,MacIntel,60,61025ae37ef11b136ea224fe,,,,,,,,,3983,-94,-41,1,0,0,response5disk,,2,-7,-1,1,0,0,rectangle,-7,-1,1,0,0,-7,-1,1,0,0,0,101,101,68,1,,,,,,,,
,,,,,,,,,,,,,FF,,,,,,,,1.567,,,,,,,,,,,,,,,,,,,,,,60fd700ffac5eba3832e3304,6103798053b06843ea59217a,2021-07-30_00h01.37.363,Simcolourproject_2stim_asymm_v5,2020.2.10,MacIntel,60,61025ae37ef11b136ea224fe,,,,,,,,,796,34,-68,1,0,0,response3disk,,4,1,-3,1,0,0,rectangle,1,-3,1,0,0,1,-3,1,0,0,0,102,102,100,1,,,,,,,,
,,,,,,,,,,,,,FF,,,,,,,,0.817,,,,,,,,,,,,,,,,,,,,,,60fd700ffac5eba3832e3304,6103798053b06843ea59217a,2021-07-30_00h01.37.363,Simcolourproject_2stim_asymm_v5,2020.2.10,MacIntel,60,61025ae37ef11b136ea224fe,,,,,,,,,1363,32,-65,1,0,0,response3disk,,4,14,-4,1,0,0,rectangle,14,-4,1,0,0,14,-4,1,0,0,0,103,103,46,1,,,,,,,,
,,,,,,,,,,,,,FF,,,,,,,,0.616,,,,,,,,,,,,,,,,,,,,,,60fd700ffac5eba3832e3304,6103798053b06843ea59217a,2021-07-30_00h01.37.363,Simcolourproject_2stim_asymm_v5,2020.2.10,MacIntel,60,61025ae37ef11b136ea224fe,,,,,,,,,2762,81,-53,1,0,0,response3disk,,5,15,6,1,0,0,rectangle,15,6,1,0,0,15,6,1,0,0,0,104,104,102,1,,,,,,,,
,,,,,,,,,,,,,FF,,,,,,,,0.566,,,,,,,,,,,,,,,,,,,,,,60fd700ffac5eba3832e3304,6103798053b06843ea59217a,2021-07-30_00h01.37.363,Simcolourproject_2stim_asymm_v5,2020.2.10,MacIntel,60,61025ae37ef11b136ea224fe,,,,,,,,,2050,40,65,1,0,0,response1disk,,7,-2,-6,1,0,0,rectangle,-2,-6,1,0,0,-2,-6,1,0,0,0,105,105,35,1,,,,,,,,
,,,,,,,,,,,,,FF,,,,,,,,0.701,,,,,,,,,,,,,,,,,,,,,,60fd700ffac5eba3832e3304,6103798053b06843ea59217a,2021-07-30_00h01.37.363,Simcolourproject_2stim_asymm_v5,2020.2.10,MacIntel,60,61025ae37ef11b136ea224fe,,,,,,,,,252,-33,-60,1,0,0,response5disk,,3,-19,-6,1,0,0,rectangle,-19,-6,1,0,0,-19,-6,1,0,0,0,106,106,117,1,,,,,,,,
,,,,,,,,,,,,,FF,,,,,,,,0.75,,,,,,,,,,,,,,,,,,,,,,60fd700ffac5eba3832e3304,6103798053b06843ea59217a,2021-07-30_00h01.37.363,Simcolourproject_2stim_asymm_v5,2020.2.10,MacIntel,60,61025ae37ef11b136ea224fe,,,,,,,,,649,52,75,1,0,0,response1disk,,7,-3,5,1,0,0,rectangle,-3,5,1,0,0,-3,5,1,0,0,0,107,107,125,1,,,,,,,,
,,,,,,,,,,,,,FF,,,,,,,,0.899,,,,,,,,,,,,,,,,,,,,,,60fd700ffac5eba3832e3304,6103798053b06843ea59217a,2021-07-30_00h01.37.363,Simcolourproject_2stim_asymm_v5,2020.2.10,MacIntel,60,61025ae37ef11b136ea224fe,,,,,,,,,1226,-44,-89,1,0,0,response5disk,,3,-5,-8,1,0,0,rectangle,-5,-8,1,0,0,-5,-8,1,0,0,0,108,108,89,1,,,,,,,,
,,,,,,,,,,,,,FF,,,,,,,,0.666,,,,,,,,,,,,,,,,,,,,,,60fd700ffac5eba3832e3304,6103798053b06843ea59217a,2021-07-30_00h01.37.363,Simcolourproject_2stim_asymm_v5,2020.2.10,MacIntel,60,61025ae37ef11b136ea224fe,,,,,,,,,2663,-44,-59,1,0,0,response5disk,,3,9,16,1,0,0,rectangle,9,16,1,0,0,9,16,1,0,0,0,109,109,32,1,,,,,,,,
,,,,,,,,,,,,,FF,,,,,,,,0.75,,,,,,,,,,,,,,,,,,,,,,60fd700ffac5eba3832e3304,6103798053b06843ea59217a,2021-07-30_00h01.37.363,Simcolourproject_2stim_asymm_v5,2020.2.10,MacIntel,60,61025ae37ef11b136ea224fe,,,,,,,,,3985,95,-40,1,0,0,response3disk,,5,-4,-4,1,0,0,rectangle,-4,-4,1,0,0,-4,-4,1,0,0,0,110,110,136,1,,,,,,,,
,,,,,,,,,,,,,FF,,,,,,,,6.684,,,,,,,,,,,,,,,,,,,,,,60fd700ffac5eba3832e3304,6103798053b06843ea59217a,2021-07-30_00h01.37.363,Simcolourproject_2stim_asymm_v5,2020.2.10,MacIntel,60,61025ae37ef11b136ea224fe,,,,,,,,,2520,68,-34,1,0,0,response3disk,,5,4,-5,1,0,0,rectangle,4,-5,1,0,0,4,-5,1,0,0,0,111,111,94,1,,,,,,,,
,,,,,,,,,,,,,FF,,,,,,,,0.799,,,,,,,,,,,,,,,,,,,,,,60fd700ffac5eba3832e3304,6103798053b06843ea59217a,2021-07-30_00h01.37.363,Simcolourproject_2stim_asymm_v5,2020.2.10,MacIntel,60,61025ae37ef11b136ea224fe,,,,,,,,,1007,93,31,1,0,0,response1disk,,6,5,-12,1,0,0,rectangle,5,-12,1,0,0,5,-12,1,0,0,0,112,112,64,1,,,,,,,,
,,,,,,,,,,,,,FF,,,,,,,,0.833,,,,,,,,,,,,,,,,,,,,,,60fd700ffac5eba3832e3304,6103798053b06843ea59217a,2021-07-30_00h01.37.363,Simcolourproject_2stim_asymm_v5,2020.2.10,MacIntel,60,61025ae37ef11b136ea224fe,,,,,,,,,2677,-38,-63,1,0,0,response5disk,,3,5,-5,1,0,0,rectangle,5,-5,1,0,0,5,-5,1,0,0,0,113,113,53,1,,,,,,,,
,,,,,,,,,,,,,FF,,,,,,,,0.716,,,,,,,,,,,,,,,,,,,,,,60fd700ffac5eba3832e3304,6103798053b06843ea59217a,2021-07-30_00h01.37.363,Simcolourproject_2stim_asymm_v5,2020.2.10,MacIntel,60,61025ae37ef11b136ea224fe,,,,,,,,,3993,-38,70,1,0,0,response7disk,,0,-2,6,1,0,0,rectangle,-2,6,1,0,0,-2,6,1,0,0,0,114,114,22,1,,,,,,,,
,,,,,,,,,,,,,FF,,,,,,,,0.782,,,,,,,,,,,,,,,,,,,,,,60fd700ffac5eba3832e3304,6103798053b06843ea59217a,2021-07-30_00h01.37.363,Simcolourproject_2stim_asymm_v5,2020.2.10,MacIntel,60,61025ae37ef11b136ea224fe,,,,,,,,,1446,-105,-36,1,0,0,response5disk,,2,6,5,1,0,0,rectangle,91,-46,1,0,0,-12,2,1,0,0,0,115,115,6,1,,response3disk_3,TRUE,5,5,"[276,26,142,80,191,291,212,131,190,91,173,264,150,198,211,173,252,116,101,278]",1.949,rectangle
,,,,,,,,,,,,,FF,,,,,,,,1.131,,,,,,,,,,,,,,,,,,,,,,60fd700ffac5eba3832e3304,6103798053b06843ea59217a,2021-07-30_00h01.37.363,Simcolourproject_2stim_asymm_v5,2020.2.10,MacIntel,60,61025ae37ef11b136ea224fe,,,,,,,,,2218,-75,43,1,0,0,response7disk,,1,19,-4,1,0,0,rectangle,19,-4,1,0,0,19,-4,1,0,0,0,116,116,87,1,,,,,,,,
,,,,,,,,,,,,,FF,,,,,,,,0.666,,,,,,,,,,,,,,,,,,,,,,60fd700ffac5eba3832e3304,6103798053b06843ea59217a,2021-07-30_00h01.37.363,Simcolourproject_2stim_asymm_v5,2020.2.10,MacIntel,60,61025ae37ef11b136ea224fe,,,,,,,,,3616,-38,-80,1,0,0,response5disk,,3,11,-3,1,0,0,rectangle,11,-3,1,0,0,11,-3,1,0,0,0,117,117,52,1,,,,,,,,
,,,,,,,,,,,,,FF,,,,,,,,0.633,,,,,,,,,,,,,,,,,,,,,,60fd700ffac5eba3832e3304,6103798053b06843ea59217a,2021-07-30_00h01.37.363,Simcolourproject_2stim_asymm_v5,2020.2.10,MacIntel,60,61025ae37ef11b136ea224fe,,,,,,,,,2578,61,92,1,0,0,response1disk,,7,6,11,1,0,0,rectangle,6,11,1,0,0,6,11,1,0,0,0,118,118,4,1,,,,,,,,
,,,,,,,,,,,,,FF,,,,,,,,0.896,,,,,,,,,,,,,,,,,,,,,,60fd700ffac5eba3832e3304,6103798053b06843ea59217a,2021-07-30_00h01.37.363,Simcolourproject_2stim_asymm_v5,2020.2.10,MacIntel,60,61025ae37ef11b136ea224fe,,,,,,,,,626,77,35,1,0,0,response1disk,,6,18,2,1,0,0,rectangle,18,2,1,0,0,18,2,1,0,0,0,119,119,88,1,,,,,,,,
,,,,,,,,,,,,,FF,,,,,,,,1.1,,,,,,,,,,,,,,,,,,,,,,60fd700ffac5eba3832e3304,6103798053b06843ea59217a,2021-07-30_00h01.37.363,Simcolourproject_2stim_asymm_v5,2020.2.10,MacIntel,60,61025ae37ef11b136ea224fe,,,,,,,,,1203,-69,41,1,0,0,response7disk,,1,1,10,1,0,0,rectangle,1,10,1,0,0,1,10,1,0,0,0,120,120,80,1,,,,,,,,
,,,,,,,,,,,,,FF,,,,,,,,0.917,,,,,,,,,,,,,,,,,,,,,,60fd700ffac5eba3832e3304,6103798053b06843ea59217a,2021-07-30_00h01.37.363,Simcolourproject_2stim_asymm_v5,2020.2.10,MacIntel,60,61025ae37ef11b136ea224fe,,,,,,,,,782,92,-27,1,0,0,response3disk,,5,6,8,1,0,0,rectangle,6,8,1,0,0,6,8,1,0,0,0,121,121,158,1,,,,,,,,
,,,,,,,,,,,,,FF,,,,,,,,0.965,,,,,,,,,,,,,,,,,,,,,,60fd700ffac5eba3832e3304,6103798053b06843ea59217a,2021-07-30_00h01.37.363,Simcolourproject_2stim_asymm_v5,2020.2.10,MacIntel,60,61025ae37ef11b136ea224fe,,,,,,,,,2205,87,-34,1,0,0,response3disk,,5,-5,7,1,0,0,rectangle,-5,7,1,0,0,-5,7,1,0,0,0,122,122,92,1,,,,,,,,
,,,,,,,,,,,,,FF,,,,,,,,0.7,,,,,,,,,,,,,,,,,,,,,,60fd700ffac5eba3832e3304,6103798053b06843ea59217a,2021-07-30_00h01.37.363,Simcolourproject_2stim_asymm_v5,2020.2.10,MacIntel,60,61025ae37ef11b136ea224fe,,,,,,,,,2726,-74,-46,1,0,0,response5disk,,2,-2,2,1,0,0,rectangle,-2,2,1,0,0,-2,2,1,0,0,0,123,123,156,1,,,,,,,,
,,,,,,,,,,,,,FF,,,,,,,,0.767,,,,,,,,,,,,,,,,,,,,,,60fd700ffac5eba3832e3304,6103798053b06843ea59217a,2021-07-30_00h01.37.363,Simcolourproject_2stim_asymm_v5,2020.2.10,MacIntel,60,61025ae37ef11b136ea224fe,,,,,,,,,3446,-81,-47,1,0,0,response5disk,,2,-2,-10,1,0,0,rectangle,-2,-10,1,0,0,-2,-10,1,0,0,0,124,124,110,1,,,,,,,,
,,,,,,,,,,,,,FF,,,,,,,,0.999,,,,,,,,,,,,,,,,,,,,,,60fd700ffac5eba3832e3304,6103798053b06843ea59217a,2021-07-30_00h01.37.363,Simcolourproject_2stim_asymm_v5,2020.2.10,MacIntel,60,61025ae37ef11b136ea224fe,,,,,,,,,980,-44,-71,1,0,0,response5disk,,3,4,9,1,0,0,rectangle,4,9,1,0,0,4,9,1,0,0,0,125,125,1,1,,,,,,,,
,,,,,,,,,,,,,FF,,,,,,,,0.616,,,,,,,,,,,,,,,,,,,,,,60fd700ffac5eba3832e3304,6103798053b06843ea59217a,2021-07-30_00h01.37.363,Simcolourproject_2stim_asymm_v5,2020.2.10,MacIntel,60,61025ae37ef11b136ea224fe,,,,,,,,,4170,-84,-37,1,0,0,response5disk,,2,-14,5,1,0,0,rectangle,-14,5,1,0,0,-14,5,1,0,0,0,126,126,43,1,,,,,,,,
,,,,,,,,,,,,,FF,,,,,,,,0.517,,,,,,,,,,,,,,,,,,,,,,60fd700ffac5eba3832e3304,6103798053b06843ea59217a,2021-07-30_00h01.37.363,Simcolourproject_2stim_asymm_v5,2020.2.10,MacIntel,60,61025ae37ef11b136ea224fe,,,,,,,,,2893,-66,25,1,0,0,response7disk,,1,-3,-1,1,0,0,rectangle,-3,-1,1,0,0,-3,-1,1,0,0,0,127,127,56,1,,,,,,,,
,,,,,,,,,,,,,FF,,,,,,,,0.617,,,,,,,,,,,,,,,,,,,,,,60fd700ffac5eba3832e3304,6103798053b06843ea59217a,2021-07-30_00h01.37.363,Simcolourproject_2stim_asymm_v5,2020.2.10,MacIntel,60,61025ae37ef11b136ea224fe,,,,,,,,,1459,-61,-37,1,0,0,response5disk,,2,3,2,1,0,0,rectangle,3,2,1,0,0,3,2,1,0,0,0,128,128,25,1,,,,,,,,
,,,,,,,,,,,,,FF,,,,,,,,0.617,,,,,,,,,,,,,,,,,,,,,,60fd700ffac5eba3832e3304,6103798053b06843ea59217a,2021-07-30_00h01.37.363,Simcolourproject_2stim_asymm_v5,2020.2.10,MacIntel,60,61025ae37ef11b136ea224fe,,,,,,,,,3885,53,-46,1,0,0,response3disk,,5,-2,0,1,0,0,rectangle,-2,0,1,0,0,-2,0,1,0,0,0,129,129,19,1,,,,,,,,
,,,,,,,,,,,,,FF,,,,,,,,0.632,,,,,,,,,,,,,,,,,,,,,,60fd700ffac5eba3832e3304,6103798053b06843ea59217a,2021-07-30_00h01.37.363,Simcolourproject_2stim_asymm_v5,2020.2.10,MacIntel,60,61025ae37ef11b136ea224fe,,,,,,,,,1313,89,-39,1,0,0,response3disk,,5,10,-3,1,0,0,rectangle,77,33,1,0,0,10,-7,1,0,0,0,130,130,133,1,,response1disk_3,TRUE,6,6,"[276,26,142,80,191,291,212,131,190,91,173,264,150,198,211,173,252,116,101,278]",1.681,rectangle
,,,,,,,,,,,,,FF,,,,,,,,0.699,,,,,,,,,,,,,,,,,,,,,,60fd700ffac5eba3832e3304,6103798053b06843ea59217a,2021-07-30_00h01.37.363,Simcolourproject_2stim_asymm_v5,2020.2.10,MacIntel,60,61025ae37ef11b136ea224fe,,,,,,,,,2302,-87,44,1,0,0,response7disk,,1,5,-13,1,0,0,rectangle,5,-13,1,0,0,5,-13,1,0,0,0,131,131,79,1,,,,,,,,
,,,,,,,,,,,,,FF,,,,,,,,0.8,,,,,,,,,,,,,,,,,,,,,,60fd700ffac5eba3832e3304,6103798053b06843ea59217a,2021-07-30_00h01.37.363,Simcolourproject_2stim_asymm_v5,2020.2.10,MacIntel,60,61025ae37ef11b136ea224fe,,,,,,,,,4036,-26,-85,1,0,0,response5disk,,3,11,17,1,0,0,rectangle,11,17,1,0,0,11,17,1,0,0,0,132,132,135,1,,,,,,,,
,,,,,,,,,,,,,FF,,,,,,,,0.549,,,,,,,,,,,,,,,,,,,,,,60fd700ffac5eba3832e3304,6103798053b06843ea59217a,2021-07-30_00h01.37.363,Simcolourproject_2stim_asymm_v5,2020.2.10,MacIntel,60,61025ae37ef11b136ea224fe,,,,,,,,,872,71,-25,1,0,0,response3disk,,5,-9,4,1,0,0,rectangle,-9,4,1,0,0,-9,4,1,0,0,0,133,133,69,1,,,,,,,,
,,,,,,,,,,,,,FF,,,,,,,,0.548,,,,,,,,,,,,,,,,,,,,,,60fd700ffac5eba3832e3304,6103798053b06843ea59217a,2021-07-30_00h01.37.363,Simcolourproject_2stim_asymm_v5,2020.2.10,MacIntel,60,61025ae37ef11b136ea224fe,,,,,,,,,1585,99,-44,1,0,0,response3disk,,5,4,-1,1,0,0,rectangle,4,-1,1,0,0,4,-1,1,0,0,0,134,134,13,1,,,,,,,,
,,,,,,,,,,,,,FF,,,,,,,,0.483,,,,,,,,,,,,,,,,,,,,,,60fd700ffac5eba3832e3304,6103798053b06843ea59217a,2021-07-30_00h01.37.363,Simcolourproject_2stim_asymm_v5,2020.2.10,MacIntel,60,61025ae37ef11b136ea224fe,,,,,,,,,2527,45,-52,1,0,0,response3disk,,4,16,-8,1,0,0,rectangle,16,-8,1,0,0,16,-8,1,0,0,0,135,135,90,1,,,,,,,,
,,,,,,,,,,,,,FF,,,,,,,,0.582,,,,,,,,,,,,,,,,,,,,,,60fd700ffac5eba3832e3304,6103798053b06843ea59217a,2021-07-30_00h01.37.363,Simcolourproject_2stim_asymm_v5,2020.2.10,MacIntel,60,61025ae37ef11b136ea224fe,,,,,,,,,530,-117,-49,1,0,0,response5disk,,2,1,-5,1,0,0,rectangle,1,-5,1,0,0,1,-5,1,0,0,0,136,136,81,1,,,,,,,,
,,,,,,,,,,,,,FF,,,,,,,,0.633,,,,,,,,,,,,,,,,,,,,,,60fd700ffac5eba3832e3304,6103798053b06843ea59217a,2021-07-30_00h01.37.363,Simcolourproject_2stim_asymm_v5,2020.2.10,MacIntel,60,61025ae37ef11b136ea224fe,,,,,,,,,615,-80,-38,1,0,0,response5disk,,2,11,1,1,0,0,rectangle,11,1,1,0,0,11,1,1,0,0,0,137,137,3,1,,,,,,,,
,,,,,,,,,,,,,FF,,,,,,,,0.682,,,,,,,,,,,,,,,,,,,,,,60fd700ffac5eba3832e3304,6103798053b06843ea59217a,2021-07-30_00h01.37.363,Simcolourproject_2stim_asymm_v5,2020.2.10,MacIntel,60,61025ae37ef11b136ea224fe,,,,,,,,,1703,104,-44,1,0,0,response3disk,,5,-1,5,1,0,0,rectangle,-1,5,1,0,0,-1,5,1,0,0,0,138,138,93,1,,,,,,,,
,,,,,,,,,,,,,FF,,,,,,,,0.7,,,,,,,,,,,,,,,,,,,,,,60fd700ffac5eba3832e3304,6103798053b06843ea59217a,2021-07-30_00h01.37.363,Simcolourproject_2stim_asymm_v5,2020.2.10,MacIntel,60,61025ae37ef11b136ea224fe,,,,,,,,,4348,64,-46,1,0,0,response3disk,,5,1,8,1,0,0,rectangle,1,8,1,0,0,1,8,1,0,0,0,139,139,72,1,,,,,,,,
,,,,,,,,,,,,,FF,,,,,,,,0.633,,,,,,,,,,,,,,,,,,,,,,60fd700ffac5eba3832e3304,6103798053b06843ea59217a,2021-07-30_00h01.37.363,Simcolourproject_2stim_asymm_v5,2020.2.10,MacIntel,60,61025ae37ef11b136ea224fe,,,,,,,,,1702,-37,-60,1,0,0,response5disk,,3,1,-3,1,0,0,rectangle,1,-3,1,0,0,1,-3,1,0,0,0,140,140,48,1,,,,,,,,
,,,,,,,,,,,,,FF,,,,,,,,0.616,,,,,,,,,,,,,,,,,,,,,,60fd700ffac5eba3832e3304,6103798053b06843ea59217a,2021-07-30_00h01.37.363,Simcolourproject_2stim_asymm_v5,2020.2.10,MacIntel,60,61025ae37ef11b136ea224fe,,,,,,,,,4262,69,-56,1,0,0,response3disk,,5,11,5,1,0,0,rectangle,103,41,1,0,0,-8,-10,1,0,0,0,141,141,77,1,,response1disk_3,TRUE,6,6,"[276,26,142,80,191,291,212,131,190,91,173,264,150,198,211,173,252,116,101,278]",1.599,rectangle
,,,,,,,,,,,,,FF,,,,,,,,33.083,,,,,,,,,,,,,,,,,,,,,,60fd700ffac5eba3832e3304,6103798053b06843ea59217a,2021-07-30_00h01.37.363,Simcolourproject_2stim_asymm_v5,2020.2.10,MacIntel,60,61025ae37ef11b136ea224fe,,,,,,,,,469,-48,-39,1,0,0,response5disk,,2,-5,2,1,0,0,rectangle,-5,2,1,0,0,-5,2,1,0,0,0,142,142,9,1,,,,,,,,
,,,,,,,,,,,,,FF,,,,,,,,0.683,,,,,,,,,,,,,,,,,,,,,,60fd700ffac5eba3832e3304,6103798053b06843ea59217a,2021-07-30_00h01.37.363,Simcolourproject_2stim_asymm_v5,2020.2.10,MacIntel,60,61025ae37ef11b136ea224fe,,,,,,,,,1887,-64,36,1,0,0,response7disk,,1,1,-7,1,0,0,rectangle,1,-7,1,0,0,1,-7,1,0,0,0,143,143,45,1,,,,,,,,
,,,,,,,,,,,,,FF,,,,,,,,0.683,,,,,,,,,,,,,,,,,,,,,,60fd700ffac5eba3832e3304,6103798053b06843ea59217a,2021-07-30_00h01.37.363,Simcolourproject_2stim_asymm_v5,2020.2.10,MacIntel,60,61025ae37ef11b136ea224fe,,,,,,,,,4283,-100,-61,1,0,0,response5disk,,2,-11,-4,1,0,0,rectangle,-11,-4,1,0,0,-11,-4,1,0,0,0,144,144,47,1,,,,,,,,
,,,,,,,,,,,,,FF,,,,,,,,1.249,,,,,,,,,,,,,,,,,,,,,,60fd700ffac5eba3832e3304,6103798053b06843ea59217a,2021-07-30_00h01.37.363,Simcolourproject_2stim_asymm_v5,2020.2.10,MacIntel,60,61025ae37ef11b136ea224fe,,,,,,,,,2258,50,-78,1,0,0,response3disk,,4,4,0,1,0,0,rectangle,4,0,1,0,0,4,0,1,0,0,0,145,145,39,1,,,,,,,,
,,,,,,,,,,,,,FF,,,,,,,,0.566,,,,,,,,,,,,,,,,,,,,,,60fd700ffac5eba3832e3304,6103798053b06843ea59217a,2021-07-30_00h01.37.363,Simcolourproject_2stim_asymm_v5,2020.2.10,MacIntel,60,61025ae37ef11b136ea224fe,,,,,,,,,3710,-104,-62,1,0,0,response5disk,,2,4,3,1,0,0,rectangle,4,3,1,0,0,4,3,1,0,0,0,146,146,70,1,,,,,,,,
,,,,,,,,,,,,,FF,,,,,,,,0.483,,,,,,,,,,,,,,,,,,,,,,60fd700ffac5eba3832e3304,6103798053b06843ea59217a,2021-07-30_00h01.37.363,Simcolourproject_2stim_asymm_v5,2020.2.10,MacIntel,60,61025ae37ef11b136ea224fe,,,,,,,,,2628,59,-50,1,0,0,response3disk,,5,-5,5,1,0,0,rectangle,-5,5,1,0,0,-5,5,1,0,0,0,147,147,55,1,,,,,,,,
,,,,,,,,,,,,,FF,,,,,,,,0.617,,,,,,,,,,,,,,,,,,,,,,60fd700ffac5eba3832e3304,6103798053b06843ea59217a,2021-07-30_00h01.37.363,Simcolourproject_2stim_asymm_v5,2020.2.10,MacIntel,60,61025ae37ef11b136ea224fe,,,,,,,,,3776,-54,74,1,0,0,response7disk,,0,1,-8,1,0,0,rectangle,1,-8,1,0,0,1,-8,1,0,0,0,148,148,105,1,,,,,,,,
,,,,,,,,,,,,,FF,,,,,,,,3.217,,,,,,,,,,,,,,,,,,,,,,60fd700ffac5eba3832e3304,6103798053b06843ea59217a,2021-07-30_00h01.37.363,Simcolourproject_2stim_asymm_v5,2020.2.10,MacIntel,60,61025ae37ef11b136ea224fe,,,,,,,,,4251,62,55,1,0,0,response1disk,,6,1,8,1,0,0,rectangle,108,45,1,0,0,-8,-7,1,0,0,0,149,149,127,1,,response1disk_3,TRUE,6,6,"[276,26,142,80,191,291,212,131,190,91,173,264,150,198,211,173,252,116,101,278]",1.914,rectangle
,,,,,,,,,,,,,FF,,,,,,,,0.883,,,,,,,,,,,,,,,,,,,,,,60fd700ffac5eba3832e3304,6103798053b06843ea59217a,2021-07-30_00h01.37.363,Simcolourproject_2stim_asymm_v5,2020.2.10,MacIntel,60,61025ae37ef11b136ea224fe,,,,,,,,,4222,-97,43,1,0,0,response7disk,,1,-3,-4,1,0,0,rectangle,-3,-4,1,0,0,-3,-4,1,0,0,0,150,150,83,1,,,,,,,,
,,,,,,,,,,,,,FF,,,,,,,,0.767,,,,,,,,,,,,,,,,,,,,,,60fd700ffac5eba3832e3304,6103798053b06843ea59217a,2021-07-30_00h01.37.363,Simcolourproject_2stim_asymm_v5,2020.2.10,MacIntel,60,61025ae37ef11b136ea224fe,,,,,,,,,13,-80,34,1,0,0,response7disk,,1,-19,-10,1,0,0,rectangle,-19,-10,1,0,0,-19,-10,1,0,0,0,151,151,141,1,,,,,,,,
,,,,,,,,,,,,,FF,,,,,,,,0.5,,,,,,,,,,,,,,,,,,,,,,60fd700ffac5eba3832e3304,6103798053b06843ea59217a,2021-07-30_00h01.37.363,Simcolourproject_2stim_asymm_v5,2020.2.10,MacIntel,60,61025ae37ef11b136ea224fe,,,,,,,,,259,-72,-41,1,0,0,response5disk,,2,11,-3,1,0,0,rectangle,11,-3,1,0,0,11,-3,1,0,0,0,152,152,66,1,,,,,,,,
,,,,,,,,,,,,,FF,,,,,,,,0.533,,,,,,,,,,,,,,,,,,,,,,60fd700ffac5eba3832e3304,6103798053b06843ea59217a,2021-07-30_00h01.37.363,Simcolourproject_2stim_asymm_v5,2020.2.10,MacIntel,60,61025ae37ef11b136ea224fe,,,,,,,,,3934,-87,-39,1,0,0,response5disk,,2,-10,2,1,0,0,rectangle,-10,2,1,0,0,-10,2,1,0,0,0,153,153,21,1,,,,,,,,
,,,,,,,,,,,,,FF,,,,,,,,0.5,,,,,,,,,,,,,,,,,,,,,,60fd700ffac5eba3832e3304,6103798053b06843ea59217a,2021-07-30_00h01.37.363,Simcolourproject_2stim_asymm_v5,2020.2.10,MacIntel,60,61025ae37ef11b136ea224fe,,,,,,,,,204,-36,-66,1,0,0,response5disk,,3,4,-14,1,0,0,rectangle,4,-14,1,0,0,4,-14,1,0,0,0,154,154,104,1,,,,,,,,
,,,,,,,,,,,,,FF,,,,,,,,0.566,,,,,,,,,,,,,,,,,,,,,,60fd700ffac5eba3832e3304,6103798053b06843ea59217a,2021-07-30_00h01.37.363,Simcolourproject_2stim_asymm_v5,2020.2.10,MacIntel,60,61025ae37ef11b136ea224fe,,,,,,,,,3292,-69,-34,1,0,0,response5disk,,2,19,14,1,0,0,rectangle,19,14,1,0,0,19,14,1,0,0,0,155,155,137,1,,,,,,,,
,,,,,,,,,,,,,FF,,,,,,,,0.433,,,,,,,,,,,,,,,,,,,,,,60fd700ffac5eba3832e3304,6103798053b06843ea59217a,2021-07-30_00h01.37.363,Simcolourproject_2stim_asymm_v5,2020.2.10,MacIntel,60,61025ae37ef11b136ea224fe,,,,,,,,,2468,32,-63,1,0,0,response3disk,,4,4,6,1,0,0,rectangle,4,6,1,0,0,4,6,1,0,0,0,156,156,155,1,,,,,,,,
,,,,,,,,,,,,,FF,,,,,,,,0.516,,,,,,,,,,,,,,,,,,,,,,60fd700ffac5eba3832e3304,6103798053b06843ea59217a,2021-07-30_00h01.37.363,Simcolourproject_2stim_asymm_v5,2020.2.10,MacIntel,60,61025ae37ef11b136ea224fe,,,,,,,,,3954,-63,-45,1,0,0,response5disk,,2,11,-3,1,0,0,rectangle,11,-3,1,0,0,11,-3,1,0,0,0,157,157,115,1,,,,,,,,
,,,,,,,,,,,,,FF,,,,,,,,0.516,,,,,,,,,,,,,,,,,,,,,,60fd700ffac5eba3832e3304,6103798053b06843ea59217a,2021-07-30_00h01.37.363,Simcolourproject_2stim_asymm_v5,2020.2.10,MacIntel,60,61025ae37ef11b136ea224fe,,,,,,,,,1427,79,-46,1,0,0,response3disk,,5,21,1,1,0,0,rectangle,21,1,1,0,0,21,1,1,0,0,0,158,158,57,1,,,,,,,,
,,,,,,,,,,,,,FF,,,,,,,,0.599,,,,,,,,,,,,,,,,,,,,,,60fd700ffac5eba3832e3304,6103798053b06843ea59217a,2021-07-30_00h01.37.363,Simcolourproject_2stim_asymm_v5,2020.2.10,MacIntel,60,61025ae37ef11b136ea224fe,,,,,,,,,1554,-42,-62,1,0,0,response5disk,,3,0,13,1,0,0,rectangle,0,13,1,0,0,0,13,1,0,0,0,159,159,111,1,,,,,,,,
,,,,,,,,,,,,,FF,,,,,,,,0.45,,,,,,,,,,,,,,,,,,,,,,60fd700ffac5eba3832e3304,6103798053b06843ea59217a,2021-07-30_00h01.37.363,Simcolourproject_2stim_asymm_v5,2020.2.10,MacIntel,60,61025ae37ef11b136ea224fe,,,,,,,,,1399,65,30,1,0,0,response1disk,,6,-12,8,1,0,0,rectangle,-12,8,1,0,0,-12,8,1,0,0,1,0,160,103,1,,,,,,,,
,,,,,,,,,,,,,FF,,,,,,,,0.533,,,,,,,,,,,,,,,,,,,,,,60fd700ffac5eba3832e3304,6103798053b06843ea59217a,2021-07-30_00h01.37.363,Simcolourproject_2stim_asymm_v5,2020.2.10,MacIntel,60,61025ae37ef11b136ea224fe,,,,,,,,,3487,88,18,1,0,0,response1disk,,6,-8,-6,1,0,0,rectangle,-8,-6,1,0,0,-8,-6,1,0,0,1,1,161,19,1,,,,,,,,
,,,,,,,,,,,,,FF,,,,,,,,0.533,,,,,,,,,,,,,,,,,,,,,,60fd700ffac5eba3832e3304,6103798053b06843ea59217a,2021-07-30_00h01.37.363,Simcolourproject_2stim_asymm_v5,2020.2.10,MacIntel,60,61025ae37ef11b136ea224fe,,,,,,,,,434,-57,-34,1,0,0,response5disk,,2,-10,3,1,0,0,rectangle,-10,3,1,0,0,-10,3,1,0,0,1,2,162,5,1,,,,,,,,
,,,,,,,,,,,,,FF,,,,,,,,0.433,,,,,,,,,,,,,,,,,,,,,,60fd700ffac5eba3832e3304,6103798053b06843ea59217a,2021-07-30_00h01.37.363,Simcolourproject_2stim_asymm_v5,2020.2.10,MacIntel,60,61025ae37ef11b136ea224fe,,,,,,,,,3490,82,-28,1,0,0,response3disk,,5,0,-18,1,0,0,rectangle,0,-18,1,0,0,0,-18,1,0,0,1,3,163,142,1,,,,,,,,
,,,,,,,,,,,,,FF,,,,,,,,0.667,,,,,,,,,,,,,,,,,,,,,,60fd700ffac5eba3832e3304,6103798053b06843ea59217a,2021-07-30_00h01.37.363,Simcolourproject_2stim_asymm_v5,2020.2.10,MacIntel,60,61025ae37ef11b136ea224fe,,,,,,,,,3082,85,40,1,0,0,response1disk,,6,6,1,1,0,0,rectangle,6,1,1,0,0,6,1,1,0,0,1,4,164,115,1,,,,,,,,
,,,,,,,,,,,,,FF,,,,,,,,0.683,,,,,,,,,,,,,,,,,,,,,,60fd700ffac5eba3832e3304,6103798053b06843ea59217a,2021-07-30_00h01.37.363,Simcolourproject_2stim_asymm_v5,2020.2.10,MacIntel,60,61025ae37ef11b136ea224fe,,,,,,,,,3819,-67,-24,1,0,0,response5disk,,2,0,1,1,0,0,rectangle,0,1,1,0,0,0,1,1,0,0,1,5,165,22,1,,,,,,,,
,,,,,,,,,,,,,FF,,,,,,,,0.584,,,,,,,,,,,,,,,,,,,,,,60fd700ffac5eba3832e3304,6103798053b06843ea59217a,2021-07-30_00h01.37.363,Simcolourproject_2stim_asymm_v5,2020.2.10,MacIntel,60,61025ae37ef11b136ea224fe,,,,,,,,,1945,77,-35,1,0,0,response3disk,,5,9,-9,1,0,0,rectangle,9,-9,1,0,0,9,-9,1,0,0,1,6,166,143,1,,,,,,,,
,,,,,,,,,,,,,FF,,,,,,,,0.566,,,,,,,,,,,,,,,,,,,,,,60fd700ffac5eba3832e3304,6103798053b06843ea59217a,2021-07-30_00h01.37.363,Simcolourproject_2stim_asymm_v5,2020.2.10,MacIntel,60,61025ae37ef11b136ea224fe,,,,,,,,,244,86,-49,1,0,0,response3disk,,5,10,1,1,0,0,rectangle,10,1,1,0,0,10,1,1,0,0,1,7,167,62,1,,,,,,,,
,,,,,,,,,,,,,FF,,,,,,,,2,,,,,,,,,,,,,,,,,,,,,,60fd700ffac5eba3832e3304,6103798053b06843ea59217a,2021-07-30_00h01.37.363,Simcolourproject_2stim_asymm_v5,2020.2.10,MacIntel,60,61025ae37ef11b136ea224fe,,,,,,,,,4297,62,-74,1,0,0,response3disk,,4,24,-1,1,0,0,rectangle,24,-1,1,0,0,24,-1,1,0,0,1,8,168,39,1,,,,,,,,
,,,,,,,,,,,,,FF,,,,,,,,0.6,,,,,,,,,,,,,,,,,,,,,,60fd700ffac5eba3832e3304,6103798053b06843ea59217a,2021-07-30_00h01.37.363,Simcolourproject_2stim_asymm_v5,2020.2.10,MacIntel,60,61025ae37ef11b136ea224fe,,,,,,,,,3980,-77,-35,1,0,0,response5disk,,2,-16,-11,1,0,0,rectangle,-16,-11,1,0,0,-16,-11,1,0,0,1,9,169,159,1,,,,,,,,
,,,,,,,,,,,,,FF,,,,,,,,0.499,,,,,,,,,,,,,,,,,,,,,,60fd700ffac5eba3832e3304,6103798053b06843ea59217a,2021-07-30_00h01.37.363,Simcolourproject_2stim_asymm_v5,2020.2.10,MacIntel,60,61025ae37ef11b136ea224fe,,,,,,,,,3939,-65,-32,1,0,0,response5disk,,2,5,-2,1,0,0,rectangle,5,-2,1,0,0,5,-2,1,0,0,1,10,170,46,1,,,,,,,,
,,,,,,,,,,,,,FF,,,,,,,,0.667,,,,,,,,,,,,,,,,,,,,,,60fd700ffac5eba3832e3304,6103798053b06843ea59217a,2021-07-30_00h01.37.363,Simcolourproject_2stim_asymm_v5,2020.2.10,MacIntel,60,61025ae37ef11b136ea224fe,,,,,,,,,4118,-27,81,1,0,0,response7disk,,0,-14,-3,1,0,0,rectangle,-14,-3,1,0,0,-14,-3,1,0,0,1,11,171,74,1,,,,,,,,
,,,,,,,,,,,,,FF,,,,,,,,0.499,,,,,,,,,,,,,,,,,,,,,,60fd700ffac5eba3832e3304,6103798053b06843ea59217a,2021-07-30_00h01.37.363,Simcolourproject_2stim_asymm_v5,2020.2.10,MacIntel,60,61025ae37ef11b136ea224fe,,,,,,,,,3599,-86,39,1,0,0,response7disk,,1,-7,2,1,0,0,rectangle,-53,-34,1,0,0,21,2,1,0,0,1,12,172,37,1,,response5disk_3,TRUE,2,2,"[276,26,142,80,191,291,212,131,190,91,173,264,150,198,211,173,252,116,101,278]",2.032,rectangle
,,,,,,,,,,,,,FF,,,,,,,,0.75,,,,,,,,,,,,,,,,,,,,,,60fd700ffac5eba3832e3304,6103798053b06843ea59217a,2021-07-30_00h01.37.363,Simcolourproject_2stim_asymm_v5,2020.2.10,MacIntel,60,61025ae37ef11b136ea224fe,,,,,,,,,3271,-39,-80,1,0,0,response5disk,,3,15,16,1,0,0,rectangle,15,16,1,0,0,15,16,1,0,0,1,13,173,81,1,,,,,,,,
,,,,,,,,,,,,,FF,,,,,,,,0.417,,,,,,,,,,,,,,,,,,,,,,60fd700ffac5eba3832e3304,6103798053b06843ea59217a,2021-07-30_00h01.37.363,Simcolourproject_2stim_asymm_v5,2020.2.10,MacIntel,60,61025ae37ef11b136ea224fe,,,,,,,,,2504,36,-67,1,0,0,response3disk,,4,2,-3,1,0,0,rectangle,2,-3,1,0,0,2,-3,1,0,0,1,14,174,56,1,,,,,,,,
,,,,,,,,,,,,,FF,,,,,,,,0.466,,,,,,,,,,,,,,,,,,,,,,60fd700ffac5eba3832e3304,6103798053b06843ea59217a,2021-07-30_00h01.37.363,Simcolourproject_2stim_asymm_v5,2020.2.10,MacIntel,60,61025ae37ef11b136ea224fe,,,,,,,,,1642,84,-45,1,0,0,response3disk,,5,15,0,1,0,0,rectangle,15,0,1,0,0,15,0,1,0,0,1,15,175,0,1,,,,,,,,
,,,,,,,,,,,,,FF,,,,,,,,0.633,,,,,,,,,,,,,,,,,,,,,,60fd700ffac5eba3832e3304,6103798053b06843ea59217a,2021-07-30_00h01.37.363,Simcolourproject_2stim_asymm_v5,2020.2.10,MacIntel,60,61025ae37ef11b136ea224fe,,,,,,,,,1760,-57,37,1,0,0,response7disk,,1,7,3,1,0,0,rectangle,7,3,1,0,0,7,3,1,0,0,1,16,176,32,1,,,,,,,,
,,,,,,,,,,,,,FF,,,,,,,,0.633,,,,,,,,,,,,,,,,,,,,,,60fd700ffac5eba3832e3304,6103798053b06843ea59217a,2021-07-30_00h01.37.363,Simcolourproject_2stim_asymm_v5,2020.2.10,MacIntel,60,61025ae37ef11b136ea224fe,,,,,,,,,2943,-70,30,1,0,0,response7disk,,1,-7,-17,1,0,0,rectangle,-7,-17,1,0,0,-7,-17,1,0,0,1,17,177,111,1,,,,,,,,
,,,,,,,,,,,,,FF,,,,,,,,0.583,,,,,,,,,,,,,,,,,,,,,,60fd700ffac5eba3832e3304,6103798053b06843ea59217a,2021-07-30_00h01.37.363,Simcolourproject_2stim_asymm_v5,2020.2.10,MacIntel,60,61025ae37ef11b136ea224fe,,,,,,,,,1776,-21,-65,1,0,0,response5disk,,3,2,-5,1,0,0,rectangle,2,-5,1,0,0,2,-5,1,0,0,1,18,178,128,1,,,,,,,,
,,,,,,,,,,,,,FF,,,,,,,,0.4,,,,,,,,,,,,,,,,,,,,,,60fd700ffac5eba3832e3304,6103798053b06843ea59217a,2021-07-30_00h01.37.363,Simcolourproject_2stim_asymm_v5,2020.2.10,MacIntel,60,61025ae37ef11b136ea224fe,,,,,,,,,1160,79,-29,1,0,0,response3disk,,5,7,7,1,0,0,rectangle,7,7,1,0,0,7,7,1,0,0,1,19,179,129,1,,,,,,,,
,,,,,,,,,,,,,FF,,,,,,,,0.633,,,,,,,,,,,,,,,,,,,,,,60fd700ffac5eba3832e3304,6103798053b06843ea59217a,2021-07-30_00h01.37.363,Simcolourproject_2stim_asymm_v5,2020.2.10,MacIntel,60,61025ae37ef11b136ea224fe,,,,,,,,,1051,-65,36,1,0,0,response7disk,,1,6,-2,1,0,0,rectangle,6,-2,1,0,0,6,-2,1,0,0,1,20,180,89,1,,,,,,,,
,,,,,,,,,,,,,FF,,,,,,,,0.583,,,,,,,,,,,,,,,,,,,,,,60fd700ffac5eba3832e3304,6103798053b06843ea59217a,2021-07-30_00h01.37.363,Simcolourproject_2stim_asymm_v5,2020.2.10,MacIntel,60,61025ae37ef11b136ea224fe,,,,,,,,,235,89,32,1,0,0,response1disk,,6,16,4,1,0,0,rectangle,16,4,1,0,0,16,4,1,0,0,1,21,181,38,1,,,,,,,,
,,,,,,,,,,,,,FF,,,,,,,,0.516,,,,,,,,,,,,,,,,,,,,,,60fd700ffac5eba3832e3304,6103798053b06843ea59217a,2021-07-30_00h01.37.363,Simcolourproject_2stim_asymm_v5,2020.2.10,MacIntel,60,61025ae37ef11b136ea224fe,,,,,,,,,4164,-97,49,1,0,0,response7disk,,1,8,-13,1,0,0,rectangle,8,-13,1,0,0,8,-13,1,0,0,1,22,182,1,1,,,,,,,,
,,,,,,,,,,,,,FF,,,,,,,,0.6,,,,,,,,,,,,,,,,,,,,,,60fd700ffac5eba3832e3304,6103798053b06843ea59217a,2021-07-30_00h01.37.363,Simcolourproject_2stim_asymm_v5,2020.2.10,MacIntel,60,61025ae37ef11b136ea224fe,,,,,,,,,4208,-57,46,1,0,0,response7disk,,1,9,-9,1,0,0,rectangle,9,-9,1,0,0,9,-9,1,0,0,1,23,183,151,1,,,,,,,,
,,,,,,,,,,,,,FF,,,,,,,,0.483,,,,,,,,,,,,,,,,,,,,,,60fd700ffac5eba3832e3304,6103798053b06843ea59217a,2021-07-30_00h01.37.363,Simcolourproject_2stim_asymm_v5,2020.2.10,MacIntel,60,61025ae37ef11b136ea224fe,,,,,,,,,692,73,-25,1,0,0,response3disk,,5,15,5,1,0,0,rectangle,15,5,1,0,0,15,5,1,0,0,1,24,184,70,1,,,,,,,,
,,,,,,,,,,,,,FF,,,,,,,,0.55,,,,,,,,,,,,,,,,,,,,,,60fd700ffac5eba3832e3304,6103798053b06843ea59217a,2021-07-30_00h01.37.363,Simcolourproject_2stim_asymm_v5,2020.2.10,MacIntel,60,61025ae37ef11b136ea224fe,,,,,,,,,2457,86,29,1,0,0,response1disk,,6,3,0,1,0,0,rectangle,3,0,1,0,0,3,0,1,0,0,1,25,185,155,1,,,,,,,,
,,,,,,,,,,,,,FF,,,,,,,,1.033,,,,,,,,,,,,,,,,,,,,,,60fd700ffac5eba3832e3304,6103798053b06843ea59217a,2021-07-30_00h01.37.363,Simcolourproject_2stim_asymm_v5,2020.2.10,MacIntel,60,61025ae37ef11b136ea224fe,,,,,,,,,261,-77,48,1,0,0,response7disk,,1,-14,-3,1,0,0,rectangle,-14,-3,1,0,0,-14,-3,1,0,0,1,26,186,83,1,,,,,,,,
,,,,,,,,,,,,,FF,,,,,,,,0.5,,,,,,,,,,,,,,,,,,,,,,60fd700ffac5eba3832e3304,6103798053b06843ea59217a,2021-07-30_00h01.37.363,Simcolourproject_2stim_asymm_v5,2020.2.10,MacIntel,60,61025ae37ef11b136ea224fe,,,,,,,,,2207,109,-36,1,0,0,response3disk,,5,7,9,1,0,0,rectangle,7,9,1,0,0,7,9,1,0,0,1,27,187,35,1,,,,,,,,
,,,,,,,,,,,,,FF,,,,,,,,0.684,,,,,,,,,,,,,,,,,,,,,,60fd700ffac5eba3832e3304,6103798053b06843ea59217a,2021-07-30_00h01.37.363,Simcolourproject_2stim_asymm_v5,2020.2.10,MacIntel,60,61025ae37ef11b136ea224fe,,,,,,,,,1433,36,-75,1,0,0,response3disk,,4,14,-4,1,0,0,rectangle,14,-4,1,0,0,14,-4,1,0,0,1,28,188,53,1,,,,,,,,
,,,,,,,,,,,,,FF,,,,,,,,0.516,,,,,,,,,,,,,,,,,,,,,,60fd700ffac5eba3832e3304,6103798053b06843ea59217a,2021-07-30_00h01.37.363,Simcolourproject_2stim_asymm_v5,2020.2.10,MacIntel,60,61025ae37ef11b136ea224fe,,,,,,,,,1432,-47,-52,1,0,0,response5disk,,3,-16,-8,1,0,0,rectangle,92,45,1,0,0,8,5,1,0,0,1,29,189,108,1,,response1disk_3,TRUE,6,6,"[276,26,142,80,191,291,212,131,190,91,173,264,150,198,211,173,252,116,101,278]",1.383,rectangle
,,,,,,,,,,,,,FF,,,,,,,,0.632,,,,,,,,,,,,,,,,,,,,,,60fd700ffac5eba3832e3304,6103798053b06843ea59217a,2021-07-30_00h01.37.363,Simcolourproject_2stim_asymm_v5,2020.2.10,MacIntel,60,61025ae37ef11b136ea224fe,,,,,,,,,2763,-67,-46,1,0,0,response5disk,,2,3,-13,1,0,0,rectangle,95,-48,1,0,0,17,-6,1,0,0,1,30,190,27,1,,response3disk_3,TRUE,5,5,"[276,26,142,80,191,291,212,131,190,91,173,264,150,198,211,173,252,116,101,278]",0.749,rectangle
,,,,,,,,,,,,,FF,,,,,,,,0.982,,,,,,,,,,,,,,,,,,,,,,60fd700ffac5eba3832e3304,6103798053b06843ea59217a,2021-07-30_00h01.37.363,Simcolourproject_2stim_asymm_v5,2020.2.10,MacIntel,60,61025ae37ef11b136ea224fe,,,,,,,,,1597,-60,42,1,0,0,response7disk,,1,0,1,1,0,0,rectangle,0,1,1,0,0,0,1,1,0,0,1,31,191,125,1,,,,,,,,
,,,,,,,,,,,,,FF,,,,,,,,0.65,,,,,,,,,,,,,,,,,,,,,,60fd700ffac5eba3832e3304,6103798053b06843ea59217a,2021-07-30_00h01.37.363,Simcolourproject_2stim_asymm_v5,2020.2.10,MacIntel,60,61025ae37ef11b136ea224fe,,,,,,,,,1584,84,29,1,0,0,response1disk,,6,6,4,1,0,0,rectangle,6,4,1,0,0,6,4,1,0,0,1,32,192,136,1,,,,,,,,
,,,,,,,,,,,,,FF,,,,,,,,2.216,,,,,,,,,,,,,,,,,,,,,,60fd700ffac5eba3832e3304,6103798053b06843ea59217a,2021-07-30_00h01.37.363,Simcolourproject_2stim_asymm_v5,2020.2.10,MacIntel,60,61025ae37ef11b136ea224fe,,,,,,,,,2498,70,25,1,0,0,response1disk,,6,-10,8,1,0,0,rectangle,-10,8,1,0,0,-10,8,1,0,0,1,33,193,36,1,,,,,,,,
,,,,,,,,,,,,,FF,,,,,,,,0.816,,,,,,,,,,,,,,,,,,,,,,60fd700ffac5eba3832e3304,6103798053b06843ea59217a,2021-07-30_00h01.37.363,Simcolourproject_2stim_asymm_v5,2020.2.10,MacIntel,60,61025ae37ef11b136ea224fe,,,,,,,,,1830,-82,-40,1,0,0,response5disk,,2,9,13,1,0,0,rectangle,9,13,1,0,0,9,13,1,0,0,1,34,194,28,1,,,,,,,,
,,,,,,,,,,,,,FF,,,,,,,,0.584,,,,,,,,,,,,,,,,,,,,,,60fd700ffac5eba3832e3304,6103798053b06843ea59217a,2021-07-30_00h01.37.363,Simcolourproject_2stim_asymm_v5,2020.2.10,MacIntel,60,61025ae37ef11b136ea224fe,,,,,,,,,2027,-62,-39,1,0,0,response5disk,,2,-12,-1,1,0,0,rectangle,-12,-1,1,0,0,-12,-1,1,0,0,1,35,195,139,1,,,,,,,,
,,,,,,,,,,,,,FF,,,,,,,,0.7,,,,,,,,,,,,,,,,,,,,,,60fd700ffac5eba3832e3304,6103798053b06843ea59217a,2021-07-30_00h01.37.363,Simcolourproject_2stim_asymm_v5,2020.2.10,MacIntel,60,61025ae37ef11b136ea224fe,,,,,,,,,196,74,-40,1,0,0,response3disk,,5,18,-11,1,0,0,rectangle,18,-11,1,0,0,18,-11,1,0,0,1,36,196,92,1,,,,,,,,
,,,,,,,,,,,,,FF,,,,,,,,0.65,,,,,,,,,,,,,,,,,,,,,,60fd700ffac5eba3832e3304,6103798053b06843ea59217a,2021-07-30_00h01.37.363,Simcolourproject_2stim_asymm_v5,2020.2.10,MacIntel,60,61025ae37ef11b136ea224fe,,,,,,,,,2633,85,-46,1,0,0,response3disk,,5,21,-3,1,0,0,rectangle,-65,-51,1,0,0,13,-8,1,0,0,1,37,197,84,1,,response5disk_3,TRUE,2,2,"[276,26,142,80,191,291,212,131,190,91,173,264,150,198,211,173,252,116,101,278]",1.85,rectangle
,,,,,,,,,,,,,FF,,,,,,,,0.6,,,,,,,,,,,,,,,,,,,,,,60fd700ffac5eba3832e3304,6103798053b06843ea59217a,2021-07-30_00h01.37.363,Simcolourproject_2stim_asymm_v5,2020.2.10,MacIntel,60,61025ae37ef11b136ea224fe,,,,,,,,,3291,-66,38,1,0,0,response7disk,,1,3,-8,1,0,0,rectangle,3,-8,1,0,0,3,-8,1,0,0,1,38,198,41,1,,,,,,,,
,,,,,,,,,,,,,FF,,,,,,,,0.699,,,,,,,,,,,,,,,,,,,,,,60fd700ffac5eba3832e3304,6103798053b06843ea59217a,2021-07-30_00h01.37.363,Simcolourproject_2stim_asymm_v5,2020.2.10,MacIntel,60,61025ae37ef11b136ea224fe,,,,,,,,,2246,91,48,1,0,0,response1disk,,6,20,3,1,0,0,rectangle,20,3,1,0,0,20,3,1,0,0,1,39,199,45,1,,,,,,,,
,,,,,,,,,,,,,FF,,,,,,,,0.583,,,,,,,,,,,,,,,,,,,,,,60fd700ffac5eba3832e3304,6103798053b06843ea59217a,2021-07-30_00h01.37.363,Simcolourproject_2stim_asymm_v5,2020.2.10,MacIntel,60,61025ae37ef11b136ea224fe,,,,,,,,,3010,78,33,1,0,0,response1disk,,6,4,0,1,0,0,rectangle,4,0,1,0,0,4,0,1,0,0,1,40,200,50,1,,,,,,,,
,,,,,,,,,,,,,FF,,,,,,,,0.516,,,,,,,,,,,,,,,,,,,,,,60fd700ffac5eba3832e3304,6103798053b06843ea59217a,2021-07-30_00h01.37.363,Simcolourproject_2stim_asymm_v5,2020.2.10,MacIntel,60,61025ae37ef11b136ea224fe,,,,,,,,,200,39,95,1,0,0,response1disk,,7,9,8,1,0,0,rectangle,9,8,1,0,0,9,8,1,0,0,1,41,201,152,1,,,,,,,,
,,,,,,,,,,,,,FF,,,,,,,,0.683,,,,,,,,,,,,,,,,,,,,,,60fd700ffac5eba3832e3304,6103798053b06843ea59217a,2021-07-30_00h01.37.363,Simcolourproject_2stim_asymm_v5,2020.2.10,MacIntel,60,61025ae37ef11b136ea224fe,,,,,,,,,2682,29,56,1,0,0,response1disk,,7,-2,-1,1,0,0,rectangle,-2,-1,1,0,0,-2,-1,1,0,0,1,42,202,126,1,,,,,,,,
,,,,,,,,,,,,,FF,,,,,,,,0.666,,,,,,,,,,,,,,,,,,,,,,60fd700ffac5eba3832e3304,6103798053b06843ea59217a,2021-07-30_00h01.37.363,Simcolourproject_2stim_asymm_v5,2020.2.10,MacIntel,60,61025ae37ef11b136ea224fe,,,,,,,,,2820,65,-39,1,0,0,response3disk,,5,3,-8,1,0,0,rectangle,3,-8,1,0,0,3,-8,1,0,0,1,43,203,94,1,,,,,,,,
,,,,,,,,,,,,,FF,,,,,,,,1,,,,,,,,,,,,,,,,,,,,,,60fd700ffac5eba3832e3304,6103798053b06843ea59217a,2021-07-30_00h01.37.363,Simcolourproject_2stim_asymm_v5,2020.2.10,MacIntel,60,61025ae37ef11b136ea224fe,,,,,,,,,3778,-72,25,1,0,0,response7disk,,1,5,16,1,0,0,rectangle,5,16,1,0,0,5,16,1,0,0,1,44,204,15,1,,,,,,,,
,,,,,,,,,,,,,FF,,,,,,,,1.082,,,,,,,,,,,,,,,,,,,,,,60fd700ffac5eba3832e3304,6103798053b06843ea59217a,2021-07-30_00h01.37.363,Simcolourproject_2stim_asymm_v5,2020.2.10,MacIntel,60,61025ae37ef11b136ea224fe,,,,,,,,,2151,-69,36,1,0,0,response7disk,,1,-8,-7,1,0,0,rectangle,-8,-7,1,0,0,-8,-7,1,0,0,1,45,205,26,1,,,,,,,,
,,,,,,,,,,,,,FF,,,,,,,,0.6,,,,,,,,,,,,,,,,,,,,,,60fd700ffac5eba3832e3304,6103798053b06843ea59217a,2021-07-30_00h01.37.363,Simcolourproject_2stim_asymm_v5,2020.2.10,MacIntel,60,61025ae37ef11b136ea224fe,,,,,,,,,233,63,-40,1,0,0,response3disk,,5,2,3,1,0,0,rectangle,2,3,1,0,0,2,3,1,0,0,1,46,206,109,1,,,,,,,,
,,,,,,,,,,,,,FF,,,,,,,,0.55,,,,,,,,,,,,,,,,,,,,,,60fd700ffac5eba3832e3304,6103798053b06843ea59217a,2021-07-30_00h01.37.363,Simcolourproject_2stim_asymm_v5,2020.2.10,MacIntel,60,61025ae37ef11b136ea224fe,,,,,,,,,2625,40,-66,1,0,0,response3disk,,4,4,-9,1,0,0,rectangle,4,-9,1,0,0,4,-9,1,0,0,1,47,207,82,1,,,,,,,,
,,,,,,,,,,,,,FF,,,,,,,,0.483,,,,,,,,,,,,,,,,,,,,,,60fd700ffac5eba3832e3304,6103798053b06843ea59217a,2021-07-30_00h01.37.363,Simcolourproject_2stim_asymm_v5,2020.2.10,MacIntel,60,61025ae37ef11b136ea224fe,,,,,,,,,4017,85,28,1,0,0,response1disk,,6,-6,10,1,0,0,rectangle,-6,10,1,0,0,-6,10,1,0,0,1,48,208,55,1,,,,,,,,
,,,,,,,,,,,,,FF,,,,,,,,0.784,,,,,,,,,,,,,,,,,,,,,,60fd700ffac5eba3832e3304,6103798053b06843ea59217a,2021-07-30_00h01.37.363,Simcolourproject_2stim_asymm_v5,2020.2.10,MacIntel,60,61025ae37ef11b136ea224fe,,,,,,,,,3148,-101,35,1,0,0,response7disk,,1,16,-8,1,0,0,rectangle,16,-8,1,0,0,16,-8,1,0,0,1,49,209,144,1,,,,,,,,
,,,,,,,,,,,,,FF,,,,,,,,0.733,,,,,,,,,,,,,,,,,,,,,,60fd700ffac5eba3832e3304,6103798053b06843ea59217a,2021-07-30_00h01.37.363,Simcolourproject_2stim_asymm_v5,2020.2.10,MacIntel,60,61025ae37ef11b136ea224fe,,,,,,,,,3178,-50,-53,1,0,0,response5disk,,3,-2,8,1,0,0,rectangle,57,87,1,0,0,4,0,1,0,0,1,50,210,112,1,,response1disk_3,TRUE,7,2,"[276,26,142,80,191,291,212,131,190,91,173,264,150,198,211,173,252,116,101,278]",0.982,rectangle
,,,,,,,,,,,,,FF,,,,,,,,0.9,,,,,,,,,,,,,,,,,,,,,,60fd700ffac5eba3832e3304,6103798053b06843ea59217a,2021-07-30_00h01.37.363,Simcolourproject_2stim_asymm_v5,2020.2.10,MacIntel,60,61025ae37ef11b136ea224fe,,,,,,,,,2337,69,27,1,0,0,response1disk,,6,9,-5,1,0,0,rectangle,41,103,1,0,0,2,-2,1,0,0,1,51,211,141,1,,response1disk_3,TRUE,7,7,"[276,26,142,80,191,291,212,131,190,91,173,264,150,198,211,173,252,116,101,278]",2.265,rectangle
,,,,,,,,,,,,,FF,,,,,,,,0.999,,,,,,,,,,,,,,,,,,,,,,60fd700ffac5eba3832e3304,6103798053b06843ea59217a,2021-07-30_00h01.37.363,Simcolourproject_2stim_asymm_v5,2020.2.10,MacIntel,60,61025ae37ef11b136ea224fe,,,,,,,,,441,-39,38,1,0,0,response7disk,,1,-1,-3,1,0,0,rectangle,-1,-3,1,0,0,-1,-3,1,0,0,1,52,212,54,1,,,,,,,,
,,,,,,,,,,,,,FF,,,,,,,,0.599,,,,,,,,,,,,,,,,,,,,,,60fd700ffac5eba3832e3304,6103798053b06843ea59217a,2021-07-30_00h01.37.363,Simcolourproject_2stim_asymm_v5,2020.2.10,MacIntel,60,61025ae37ef11b136ea224fe,,,,,,,,,1415,46,-44,1,0,0,response3disk,,5,-3,0,1,0,0,rectangle,-3,0,1,0,0,-3,0,1,0,0,1,53,213,75,1,,,,,,,,
,,,,,,,,,,,,,FF,,,,,,,,0.833,,,,,,,,,,,,,,,,,,,,,,60fd700ffac5eba3832e3304,6103798053b06843ea59217a,2021-07-30_00h01.37.363,Simcolourproject_2stim_asymm_v5,2020.2.10,MacIntel,60,61025ae37ef11b136ea224fe,,,,,,,,,924,79,-51,1,0,0,response3disk,,5,3,-9,1,0,0,rectangle,3,-9,1,0,0,3,-9,1,0,0,1,54,214,47,1,,,,,,,,
,,,,,,,,,,,,,FF,,,,,,,,0.916,,,,,,,,,,,,,,,,,,,,,,60fd700ffac5eba3832e3304,6103798053b06843ea59217a,2021-07-30_00h01.37.363,Simcolourproject_2stim_asymm_v5,2020.2.10,MacIntel,60,61025ae37ef11b136ea224fe,,,,,,,,,3586,-63,38,1,0,0,response7disk,,1,-3,-10,1,0,0,rectangle,-3,-10,1,0,0,-3,-10,1,0,0,1,55,215,2,1,,,,,,,,
,,,,,,,,,,,,,FF,,,,,,,,0.583,,,,,,,,,,,,,,,,,,,,,,60fd700ffac5eba3832e3304,6103798053b06843ea59217a,2021-07-30_00h01.37.363,Simcolourproject_2stim_asymm_v5,2020.2.10,MacIntel,60,61025ae37ef11b136ea224fe,,,,,,,,,125,89,-36,1,0,0,response3disk,,5,4,1,1,0,0,rectangle,4,1,1,0,0,4,1,1,0,0,1,56,216,58,1,,,,,,,,
,,,,,,,,,,,,,FF,,,,,,,,0.583,,,,,,,,,,,,,,,,,,,,,,60fd700ffac5eba3832e3304,6103798053b06843ea59217a,2021-07-30_00h01.37.363,Simcolourproject_2stim_asymm_v5,2020.2.10,MacIntel,60,61025ae37ef11b136ea224fe,,,,,,,,,94,-66,-32,1,0,0,response5disk,,2,14,11,1,0,0,rectangle,14,11,1,0,0,14,11,1,0,0,1,57,217,76,1,,,,,,,,
,,,,,,,,,,,,,FF,,,,,,,,0.666,,,,,,,,,,,,,,,,,,,,,,60fd700ffac5eba3832e3304,6103798053b06843ea59217a,2021-07-30_00h01.37.363,Simcolourproject_2stim_asymm_v5,2020.2.10,MacIntel,60,61025ae37ef11b136ea224fe,,,,,,,,,290,-42,-81,1,0,0,response5disk,,3,4,6,1,0,0,rectangle,4,6,1,0,0,4,6,1,0,0,1,58,218,31,1,,,,,,,,
,,,,,,,,,,,,,FF,,,,,,,,0.733,,,,,,,,,,,,,,,,,,,,,,60fd700ffac5eba3832e3304,6103798053b06843ea59217a,2021-07-30_00h01.37.363,Simcolourproject_2stim_asymm_v5,2020.2.10,MacIntel,60,61025ae37ef11b136ea224fe,,,,,,,,,1932,70,-51,1,0,0,response3disk,,5,-4,12,1,0,0,rectangle,-4,12,1,0,0,-4,12,1,0,0,1,59,219,14,1,,,,,,,,
,,,,,,,,,,,,,FF,,,,,,,,0.983,,,,,,,,,,,,,,,,,,,,,,60fd700ffac5eba3832e3304,6103798053b06843ea59217a,2021-07-30_00h01.37.363,Simcolourproject_2stim_asymm_v5,2020.2.10,MacIntel,60,61025ae37ef11b136ea224fe,,,,,,,,,1940,35,-68,1,0,0,response3disk,,4,0,0,1,0,0,rectangle,0,0,1,0,0,0,0,1,0,0,1,60,220,149,1,,,,,,,,
,,,,,,,,,,,,,FF,,,,,,,,0.616,,,,,,,,,,,,,,,,,,,,,,60fd700ffac5eba3832e3304,6103798053b06843ea59217a,2021-07-30_00h01.37.363,Simcolourproject_2stim_asymm_v5,2020.2.10,MacIntel,60,61025ae37ef11b136ea224fe,,,,,,,,,2440,95,34,1,0,0,response1disk,,6,18,7,1,0,0,rectangle,18,7,1,0,0,18,7,1,0,0,1,61,221,116,1,,,,,,,,
,,,,,,,,,,,,,FF,,,,,,,,0.484,,,,,,,,,,,,,,,,,,,,,,60fd700ffac5eba3832e3304,6103798053b06843ea59217a,2021-07-30_00h01.37.363,Simcolourproject_2stim_asymm_v5,2020.2.10,MacIntel,60,61025ae37ef11b136ea224fe,,,,,,,,,2125,23,66,1,0,0,response1disk,,7,-3,0,1,0,0,rectangle,-3,0,1,0,0,-3,0,1,0,0,1,62,222,101,1,,,,,,,,
,,,,,,,,,,,,,FF,,,,,,,,0.533,,,,,,,,,,,,,,,,,,,,,,60fd700ffac5eba3832e3304,6103798053b06843ea59217a,2021-07-30_00h01.37.363,Simcolourproject_2stim_asymm_v5,2020.2.10,MacIntel,60,61025ae37ef11b136ea224fe,,,,,,,,,4260,92,30,1,0,0,response1disk,,6,-6,-13,1,0,0,rectangle,-6,-13,1,0,0,-6,-13,1,0,0,1,63,223,65,1,,,,,,,,
,,,,,,,,,,,,,FF,,,,,,,,0.95,,,,,,,,,,,,,,,,,,,,,,60fd700ffac5eba3832e3304,6103798053b06843ea59217a,2021-07-30_00h01.37.363,Simcolourproject_2stim_asymm_v5,2020.2.10,MacIntel,60,61025ae37ef11b136ea224fe,,,,,,,,,3646,46,63,1,0,0,response1disk,,7,2,-9,1,0,0,rectangle,2,-9,1,0,0,2,-9,1,0,0,1,64,224,98,1,,,,,,,,
,,,,,,,,,,,,,FF,,,,,,,,0.666,,,,,,,,,,,,,,,,,,,,,,60fd700ffac5eba3832e3304,6103798053b06843ea59217a,2021-07-30_00h01.37.363,Simcolourproject_2stim_asymm_v5,2020.2.10,MacIntel,60,61025ae37ef11b136ea224fe,,,,,,,,,2785,-75,-33,1,0,0,response5disk,,2,12,7,1,0,0,rectangle,12,7,1,0,0,12,7,1,0,0,1,65,225,105,1,,,,,,,,
,,,,,,,,,,,,,FF,,,,,,,,0.583,,,,,,,,,,,,,,,,,,,,,,60fd700ffac5eba3832e3304,6103798053b06843ea59217a,2021-07-30_00h01.37.363,Simcolourproject_2stim_asymm_v5,2020.2.10,MacIntel,60,61025ae37ef11b136ea224fe,,,,,,,,,4000,-72,-29,1,0,0,response5disk,,2,2,-5,1,0,0,rectangle,2,-5,1,0,0,2,-5,1,0,0,1,66,226,63,1,,,,,,,,
,,,,,,,,,,,,,FF,,,,,,,,0.733,,,,,,,,,,,,,,,,,,,,,,60fd700ffac5eba3832e3304,6103798053b06843ea59217a,2021-07-30_00h01.37.363,Simcolourproject_2stim_asymm_v5,2020.2.10,MacIntel,60,61025ae37ef11b136ea224fe,,,,,,,,,3906,-33,81,1,0,0,response7disk,,0,4,2,1,0,0,rectangle,4,2,1,0,0,4,2,1,0,0,1,67,227,57,1,,,,,,,,
,,,,,,,,,,,,,FF,,,,,,,,0.833,,,,,,,,,,,,,,,,,,,,,,60fd700ffac5eba3832e3304,6103798053b06843ea59217a,2021-07-30_00h01.37.363,Simcolourproject_2stim_asymm_v5,2020.2.10,MacIntel,60,61025ae37ef11b136ea224fe,,,,,,,,,272,-79,-40,1,0,0,response5disk,,2,11,-1,1,0,0,rectangle,11,-1,1,0,0,11,-1,1,0,0,1,68,228,44,1,,,,,,,,
,,,,,,,,,,,,,FF,,,,,,,,0.499,,,,,,,,,,,,,,,,,,,,,,60fd700ffac5eba3832e3304,6103798053b06843ea59217a,2021-07-30_00h01.37.363,Simcolourproject_2stim_asymm_v5,2020.2.10,MacIntel,60,61025ae37ef11b136ea224fe,,,,,,,,,1821,-76,-39,1,0,0,response5disk,,2,8,-1,1,0,0,rectangle,8,-1,1,0,0,8,-1,1,0,0,1,69,229,11,1,,,,,,,,
,,,,,,,,,,,,,FF,,,,,,,,1.216,,,,,,,,,,,,,,,,,,,,,,60fd700ffac5eba3832e3304,6103798053b06843ea59217a,2021-07-30_00h01.37.363,Simcolourproject_2stim_asymm_v5,2020.2.10,MacIntel,60,61025ae37ef11b136ea224fe,,,,,,,,,3226,61,-41,1,0,0,response3disk,,5,6,-2,1,0,0,rectangle,6,-2,1,0,0,6,-2,1,0,0,1,70,230,10,1,,,,,,,,
,,,,,,,,,,,,,FF,,,,,,,,2.7,,,,,,,,,,,,,,,,,,,,,,60fd700ffac5eba3832e3304,6103798053b06843ea59217a,2021-07-30_00h01.37.363,Simcolourproject_2stim_asymm_v5,2020.2.10,MacIntel,60,61025ae37ef11b136ea224fe,,,,,,,,,84,67,57,1,0,0,response1disk,,6,11,-6,1,0,0,rectangle,11,-6,1,0,0,11,-6,1,0,0,1,71,231,153,1,,,,,,,,
,,,,,,,,,,,,,FF,,,,,,,,0.616,,,,,,,,,,,,,,,,,,,,,,60fd700ffac5eba3832e3304,6103798053b06843ea59217a,2021-07-30_00h01.37.363,Simcolourproject_2stim_asymm_v5,2020.2.10,MacIntel,60,61025ae37ef11b136ea224fe,,,,,,,,,764,78,32,1,0,0,response1disk,,6,5,-10,1,0,0,rectangle,5,-10,1,0,0,5,-10,1,0,0,1,72,232,114,1,,,,,,,,
,,,,,,,,,,,,,FF,,,,,,,,0.766,,,,,,,,,,,,,,,,,,,,,,60fd700ffac5eba3832e3304,6103798053b06843ea59217a,2021-07-30_00h01.37.363,Simcolourproject_2stim_asymm_v5,2020.2.10,MacIntel,60,61025ae37ef11b136ea224fe,,,,,,,,,1527,-103,-51,1,0,0,response5disk,,2,-30,-5,1,0,0,rectangle,-30,-5,1,0,0,-30,-5,1,0,0,1,73,233,64,1,,,,,,,,
,,,,,,,,,,,,,FF,,,,,,,,0.75,,,,,,,,,,,,,,,,,,,,,,60fd700ffac5eba3832e3304,6103798053b06843ea59217a,2021-07-30_00h01.37.363,Simcolourproject_2stim_asymm_v5,2020.2.10,MacIntel,60,61025ae37ef11b136ea224fe,,,,,,,,,2863,-23,-71,1,0,0,response5disk,,3,1,-2,1,0,0,rectangle,1,-2,1,0,0,1,-2,1,0,0,1,74,234,137,1,,,,,,,,
,,,,,,,,,,,,,FF,,,,,,,,0.517,,,,,,,,,,,,,,,,,,,,,,60fd700ffac5eba3832e3304,6103798053b06843ea59217a,2021-07-30_00h01.37.363,Simcolourproject_2stim_asymm_v5,2020.2.10,MacIntel,60,61025ae37ef11b136ea224fe,,,,,,,,,1478,59,-42,1,0,0,response3disk,,5,15,-10,1,0,0,rectangle,15,-10,1,0,0,15,-10,1,0,0,1,75,235,9,1,,,,,,,,
,,,,,,,,,,,,,FF,,,,,,,,0.666,,,,,,,,,,,,,,,,,,,,,,60fd700ffac5eba3832e3304,6103798053b06843ea59217a,2021-07-30_00h01.37.363,Simcolourproject_2stim_asymm_v5,2020.2.10,MacIntel,60,61025ae37ef11b136ea224fe,,,,,,,,,4320,-80,28,1,0,0,response7disk,,1,-12,-9,1,0,0,rectangle,-12,-9,1,0,0,-12,-9,1,0,0,1,76,236,66,1,,,,,,,,
,,,,,,,,,,,,,FF,,,,,,,,0.533,,,,,,,,,,,,,,,,,,,,,,60fd700ffac5eba3832e3304,6103798053b06843ea59217a,2021-07-30_00h01.37.363,Simcolourproject_2stim_asymm_v5,2020.2.10,MacIntel,60,61025ae37ef11b136ea224fe,,,,,,,,,2668,-72,47,1,0,0,response7disk,,1,-5,10,1,0,0,rectangle,-5,10,1,0,0,-5,10,1,0,0,1,77,237,110,1,,,,,,,,
,,,,,,,,,,,,,FF,,,,,,,,0.667,,,,,,,,,,,,,,,,,,,,,,60fd700ffac5eba3832e3304,6103798053b06843ea59217a,2021-07-30_00h01.37.363,Simcolourproject_2stim_asymm_v5,2020.2.10,MacIntel,60,61025ae37ef11b136ea224fe,,,,,,,,,4003,-59,48,1,0,0,response7disk,,1,14,10,1,0,0,rectangle,14,10,1,0,0,14,10,1,0,0,1,78,238,3,1,,,,,,,,
,,,,,,,,,,,,,FF,,,,,,,,0.483,,,,,,,,,,,,,,,,,,,,,,60fd700ffac5eba3832e3304,6103798053b06843ea59217a,2021-07-30_00h01.37.363,Simcolourproject_2stim_asymm_v5,2020.2.10,MacIntel,60,61025ae37ef11b136ea224fe,,,,,,,,,2701,64,-23,1,0,0,response3disk,,5,-2,4,1,0,0,rectangle,-2,4,1,0,0,-2,4,1,0,0,1,79,239,156,1,,,,,,,,
,,,,,,,,,,,,,FF,,,,,,,,0.649,,,,,,,,,,,,,,,,,,,,,,60fd700ffac5eba3832e3304,6103798053b06843ea59217a,2021-07-30_00h01.37.363,Simcolourproject_2stim_asymm_v5,2020.2.10,MacIntel,60,61025ae37ef11b136ea224fe,,,,,,,,,1755,-74,-24,1,0,0,response5disk,,2,7,-8,1,0,0,rectangle,7,-8,1,0,0,7,-8,1,0,0,1,80,240,12,1,,,,,,,,
,,,,,,,,,,,,,FF,,,,,,,,0.651,,,,,,,,,,,,,,,,,,,,,,60fd700ffac5eba3832e3304,6103798053b06843ea59217a,2021-07-30_00h01.37.363,Simcolourproject_2stim_asymm_v5,2020.2.10,MacIntel,60,61025ae37ef11b136ea224fe,,,,,,,,,1471,33,-85,1,0,0,response3disk,,4,4,-8,1,0,0,rectangle,4,-8,1,0,0,4,-8,1,0,0,1,81,241,29,1,,,,,,,,
,,,,,,,,,,,,,FF,,,,,,,,0.499,,,,,,,,,,,,,,,,,,,,,,60fd700ffac5eba3832e3304,6103798053b06843ea59217a,2021-07-30_00h01.37.363,Simcolourproject_2stim_asymm_v5,2020.2.10,MacIntel,60,61025ae37ef11b136ea224fe,,,,,,,,,674,86,-41,1,0,0,response3disk,,5,-3,4,1,0,0,rectangle,-3,4,1,0,0,-3,4,1,0,0,1,82,242,42,1,,,,,,,,
,,,,,,,,,,,,,FF,,,,,,,,0.567,,,,,,,,,,,,,,,,,,,,,,60fd700ffac5eba3832e3304,6103798053b06843ea59217a,2021-07-30_00h01.37.363,Simcolourproject_2stim_asymm_v5,2020.2.10,MacIntel,60,61025ae37ef11b136ea224fe,,,,,,,,,3478,-68,-37,1,0,0,response5disk,,2,-4,3,1,0,0,rectangle,-4,3,1,0,0,-4,3,1,0,0,1,83,243,13,1,,,,,,,,
,,,,,,,,,,,,,FF,,,,,,,,0.95,,,,,,,,,,,,,,,,,,,,,,60fd700ffac5eba3832e3304,6103798053b06843ea59217a,2021-07-30_00h01.37.363,Simcolourproject_2stim_asymm_v5,2020.2.10,MacIntel,60,61025ae37ef11b136ea224fe,,,,,,,,,2731,-83,36,1,0,0,response7disk,,1,-8,-1,1,0,0,rectangle,-8,-1,1,0,0,-8,-1,1,0,0,1,84,244,132,1,,,,,,,,
,,,,,,,,,,,,,FF,,,,,,,,0.616,,,,,,,,,,,,,,,,,,,,,,60fd700ffac5eba3832e3304,6103798053b06843ea59217a,2021-07-30_00h01.37.363,Simcolourproject_2stim_asymm_v5,2020.2.10,MacIntel,60,61025ae37ef11b136ea224fe,,,,,,,,,1664,40,-68,1,0,0,response3disk,,4,16,-3,1,0,0,rectangle,16,-3,1,0,0,16,-3,1,0,0,1,85,245,7,1,,,,,,,,
,,,,,,,,,,,,,FF,,,,,,,,0.616,,,,,,,,,,,,,,,,,,,,,,60fd700ffac5eba3832e3304,6103798053b06843ea59217a,2021-07-30_00h01.37.363,Simcolourproject_2stim_asymm_v5,2020.2.10,MacIntel,60,61025ae37ef11b136ea224fe,,,,,,,,,1141,-82,-35,1,0,0,response5disk,,2,-7,-11,1,0,0,rectangle,-7,-11,1,0,0,-7,-11,1,0,0,1,86,246,25,1,,,,,,,,
,,,,,,,,,,,,,FF,,,,,,,,0.5,,,,,,,,,,,,,,,,,,,,,,60fd700ffac5eba3832e3304,6103798053b06843ea59217a,2021-07-30_00h01.37.363,Simcolourproject_2stim_asymm_v5,2020.2.10,MacIntel,60,61025ae37ef11b136ea224fe,,,,,,,,,963,65,-48,1,0,0,response3disk,,5,-2,5,1,0,0,rectangle,-2,5,1,0,0,-2,5,1,0,0,1,87,247,123,1,,,,,,,,
,,,,,,,,,,,,,FF,,,,,,,,1.116,,,,,,,,,,,,,,,,,,,,,,60fd700ffac5eba3832e3304,6103798053b06843ea59217a,2021-07-30_00h01.37.363,Simcolourproject_2stim_asymm_v5,2020.2.10,MacIntel,60,61025ae37ef11b136ea224fe,,,,,,,,,339,37,63,1,0,0,response1disk,,7,6,12,1,0,0,rectangle,6,12,1,0,0,6,12,1,0,0,1,88,248,17,1,,,,,,,,
,,,,,,,,,,,,,FF,,,,,,,,0.633,,,,,,,,,,,,,,,,,,,,,,60fd700ffac5eba3832e3304,6103798053b06843ea59217a,2021-07-30_00h01.37.363,Simcolourproject_2stim_asymm_v5,2020.2.10,MacIntel,60,61025ae37ef11b136ea224fe,,,,,,,,,336,84,27,1,0,0,response1disk,,6,12,3,1,0,0,rectangle,12,3,1,0,0,12,3,1,0,0,1,89,249,68,1,,,,,,,,
,,,,,,,,,,,,,FF,,,,,,,,0.616,,,,,,,,,,,,,,,,,,,,,,60fd700ffac5eba3832e3304,6103798053b06843ea59217a,2021-07-30_00h01.37.363,Simcolourproject_2stim_asymm_v5,2020.2.10,MacIntel,60,61025ae37ef11b136ea224fe,,,,,,,,,72,-78,-44,1,0,0,response5disk,,2,-8,-8,1,0,0,rectangle,-8,-8,1,0,0,-8,-8,1,0,0,1,90,250,78,1,,,,,,,,
,,,,,,,,,,,,,FF,,,,,,,,0.55,,,,,,,,,,,,,,,,,,,,,,60fd700ffac5eba3832e3304,6103798053b06843ea59217a,2021-07-30_00h01.37.363,Simcolourproject_2stim_asymm_v5,2020.2.10,MacIntel,60,61025ae37ef11b136ea224fe,,,,,,,,,3046,-99,52,1,0,0,response7disk,,1,-1,-3,1,0,0,rectangle,-72,-51,1,0,0,-5,0,1,0,0,1,91,251,150,1,,response5disk_3,TRUE,2,0,"[276,26,142,80,191,291,212,131,190,91,173,264,150,198,211,173,252,116,101,278]",1.182,rectangle
,,,,,,,,,,,,,FF,,,,,,,,1.182,,,,,,,,,,,,,,,,,,,,,,60fd700ffac5eba3832e3304,6103798053b06843ea59217a,2021-07-30_00h01.37.363,Simcolourproject_2stim_asymm_v5,2020.2.10,MacIntel,60,61025ae37ef11b136ea224fe,,,,,,,,,2779,-72,-39,1,0,0,response5disk,,2,-8,-16,1,0,0,rectangle,-8,-16,1,0,0,-8,-16,1,0,0,1,92,252,158,1,,,,,,,,
,,,,,,,,,,,,,FF,,,,,,,,0.649,,,,,,,,,,,,,,,,,,,,,,60fd700ffac5eba3832e3304,6103798053b06843ea59217a,2021-07-30_00h01.37.363,Simcolourproject_2stim_asymm_v5,2020.2.10,MacIntel,60,61025ae37ef11b136ea224fe,,,,,,,,,1524,-90,39,1,0,0,response7disk,,1,-12,-9,1,0,0,rectangle,-12,-9,1,0,0,-12,-9,1,0,0,1,93,253,113,1,,,,,,,,
,,,,,,,,,,,,,FF,,,,,,,,0.533,,,,,,,,,,,,,,,,,,,,,,60fd700ffac5eba3832e3304,6103798053b06843ea59217a,2021-07-30_00h01.37.363,Simcolourproject_2stim_asymm_v5,2020.2.10,MacIntel,60,61025ae37ef11b136ea224fe,,,,,,,,,562,32,-59,1,0,0,response3disk,,4,-1,-5,1,0,0,rectangle,-1,-5,1,0,0,-1,-5,1,0,0,1,94,254,61,1,,,,,,,,
,,,,,,,,,,,,,FF,,,,,,,,0.466,,,,,,,,,,,,,,,,,,,,,,60fd700ffac5eba3832e3304,6103798053b06843ea59217a,2021-07-30_00h01.37.363,Simcolourproject_2stim_asymm_v5,2020.2.10,MacIntel,60,61025ae37ef11b136ea224fe,,,,,,,,,828,69,-28,1,0,0,response3disk,,5,10,1,1,0,0,rectangle,10,1,1,0,0,10,1,1,0,0,1,95,255,138,1,,,,,,,,
,,,,,,,,,,,,,FF,,,,,,,,0.633,,,,,,,,,,,,,,,,,,,,,,60fd700ffac5eba3832e3304,6103798053b06843ea59217a,2021-07-30_00h01.37.363,Simcolourproject_2stim_asymm_v5,2020.2.10,MacIntel,60,61025ae37ef11b136ea224fe,,,,,,,,,3978,-92,-43,1,0,0,response5disk,,2,11,-1,1,0,0,rectangle,11,-1,1,0,0,11,-1,1,0,0,1,96,256,16,1,,,,,,,,
,,,,,,,,,,,,,FF,,,,,,,,0.933,,,,,,,,,,,,,,,,,,,,,,60fd700ffac5eba3832e3304,6103798053b06843ea59217a,2021-07-30_00h01.37.363,Simcolourproject_2stim_asymm_v5,2020.2.10,MacIntel,60,61025ae37ef11b136ea224fe,,,,,,,,,1787,49,-90,1,0,0,response3disk,,4,-8,-1,1,0,0,rectangle,-8,-1,1,0,0,-8,-1,1,0,0,1,97,257,30,1,,,,,,,,
,,,,,,,,,,,,,FF,,,,,,,,0.75,,,,,,,,,,,,,,,,,,,,,,60fd700ffac5eba3832e3304,6103798053b06843ea59217a,2021-07-30_00h01.37.363,Simcolourproject_2stim_asymm_v5,2020.2.10,MacIntel,60,61025ae37ef11b136ea224fe,,,,,,,,,2630,51,-95,1,0,0,response3disk,,4,16,-6,1,0,0,rectangle,16,-6,1,0,0,16,-6,1,0,0,1,98,258,130,1,,,,,,,,
,,,,,,,,,,,,,FF,,,,,,,,0.567,,,,,,,,,,,,,,,,,,,,,,60fd700ffac5eba3832e3304,6103798053b06843ea59217a,2021-07-30_00h01.37.363,Simcolourproject_2stim_asymm_v5,2020.2.10,MacIntel,60,61025ae37ef11b136ea224fe,,,,,,,,,1530,-77,-27,1,0,0,response5disk,,2,8,1,1,0,0,rectangle,8,1,1,0,0,8,1,1,0,0,1,99,259,52,1,,,,,,,,
,,,,,,,,,,,,,FF,,,,,,,,0.816,,,,,,,,,,,,,,,,,,,,,,60fd700ffac5eba3832e3304,6103798053b06843ea59217a,2021-07-30_00h01.37.363,Simcolourproject_2stim_asymm_v5,2020.2.10,MacIntel,60,61025ae37ef11b136ea224fe,,,,,,,,,3301,-65,29,1,0,0,response7disk,,1,-15,6,1,0,0,rectangle,-15,6,1,0,0,-15,6,1,0,0,1,100,260,49,1,,,,,,,,
,,,,,,,,,,,,,FF,,,,,,,,0.616,,,,,,,,,,,,,,,,,,,,,,60fd700ffac5eba3832e3304,6103798053b06843ea59217a,2021-07-30_00h01.37.363,Simcolourproject_2stim_asymm_v5,2020.2.10,MacIntel,60,61025ae37ef11b136ea224fe,,,,,,,,,3983,70,-46,1,0,0,response3disk,,5,9,4,1,0,0,rectangle,9,4,1,0,0,9,4,1,0,0,1,101,261,100,1,,,,,,,,
,,,,,,,,,,,,,FF,,,,,,,,1.049,,,,,,,,,,,,,,,,,,,,,,60fd700ffac5eba3832e3304,6103798053b06843ea59217a,2021-07-30_00h01.37.363,Simcolourproject_2stim_asymm_v5,2020.2.10,MacIntel,60,61025ae37ef11b136ea224fe,,,,,,,,,796,58,45,1,0,0,response1disk,,6,1,-3,1,0,0,rectangle,1,-3,1,0,0,1,-3,1,0,0,1,102,262,4,1,,,,,,,,
,,,,,,,,,,,,,FF,,,,,,,,0.7,,,,,,,,,,,,,,,,,,,,,,60fd700ffac5eba3832e3304,6103798053b06843ea59217a,2021-07-30_00h01.37.363,Simcolourproject_2stim_asymm_v5,2020.2.10,MacIntel,60,61025ae37ef11b136ea224fe,,,,,,,,,1363,78,-49,1,0,0,response3disk,,5,12,-7,1,0,0,rectangle,-86,-43,1,0,0,-24,-1,1,0,0,1,103,263,119,1,,response5disk_3,TRUE,2,2,"[276,26,142,80,191,291,212,131,190,91,173,264,150,198,211,173,252,116,101,278]",2.049,rectangle
,,,,,,,,,,,,,FF,,,,,,,,0.55,,,,,,,,,,,,,,,,,,,,,,60fd700ffac5eba3832e3304,6103798053b06843ea59217a,2021-07-30_00h01.37.363,Simcolourproject_2stim_asymm_v5,2020.2.10,MacIntel,60,61025ae37ef11b136ea224fe,,,,,,,,,2762,68,-47,1,0,0,response3disk,,5,3,2,1,0,0,rectangle,3,2,1,0,0,3,2,1,0,0,1,104,264,72,1,,,,,,,,
,,,,,,,,,,,,,FF,,,,,,,,0.532,,,,,,,,,,,,,,,,,,,,,,60fd700ffac5eba3832e3304,6103798053b06843ea59217a,2021-07-30_00h01.37.363,Simcolourproject_2stim_asymm_v5,2020.2.10,MacIntel,60,61025ae37ef11b136ea224fe,,,,,,,,,2050,95,-48,1,0,0,response3disk,,5,7,4,1,0,0,rectangle,7,4,1,0,0,7,4,1,0,0,1,105,265,146,1,,,,,,,,
,,,,,,,,,,,,,FF,,,,,,,,0.45,,,,,,,,,,,,,,,,,,,,,,60fd700ffac5eba3832e3304,6103798053b06843ea59217a,2021-07-30_00h01.37.363,Simcolourproject_2stim_asymm_v5,2020.2.10,MacIntel,60,61025ae37ef11b136ea224fe,,,,,,,,,252,71,20,1,0,0,response1disk,,6,-6,-2,1,0,0,rectangle,-6,-2,1,0,0,-6,-2,1,0,0,1,106,266,6,1,,,,,,,,
,,,,,,,,,,,,,FF,,,,,,,,0.766,,,,,,,,,,,,,,,,,,,,,,60fd700ffac5eba3832e3304,6103798053b06843ea59217a,2021-07-30_00h01.37.363,Simcolourproject_2stim_asymm_v5,2020.2.10,MacIntel,60,61025ae37ef11b136ea224fe,,,,,,,,,649,42,-75,1,0,0,response3disk,,4,7,7,1,0,0,rectangle,7,7,1,0,0,7,7,1,0,0,1,107,267,67,1,,,,,,,,
,,,,,,,,,,,,,FF,,,,,,,,0.567,,,,,,,,,,,,,,,,,,,,,,60fd700ffac5eba3832e3304,6103798053b06843ea59217a,2021-07-30_00h01.37.363,Simcolourproject_2stim_asymm_v5,2020.2.10,MacIntel,60,61025ae37ef11b136ea224fe,,,,,,,,,1226,-36,-65,1,0,0,response5disk,,3,-4,-1,1,0,0,rectangle,-4,-1,1,0,0,-4,-1,1,0,0,1,108,268,80,1,,,,,,,,
,,,,,,,,,,,,,FF,,,,,,,,0.601,,,,,,,,,,,,,,,,,,,,,,60fd700ffac5eba3832e3304,6103798053b06843ea59217a,2021-07-30_00h01.37.363,Simcolourproject_2stim_asymm_v5,2020.2.10,MacIntel,60,61025ae37ef11b136ea224fe,,,,,,,,,2663,-73,-41,1,0,0,response5disk,,2,6,6,1,0,0,rectangle,6,6,1,0,0,6,6,1,0,0,1,109,269,96,1,,,,,,,,
,,,,,,,,,,,,,FF,,,,,,,,0.966,,,,,,,,,,,,,,,,,,,,,,60fd700ffac5eba3832e3304,6103798053b06843ea59217a,2021-07-30_00h01.37.363,Simcolourproject_2stim_asymm_v5,2020.2.10,MacIntel,60,61025ae37ef11b136ea224fe,,,,,,,,,3985,91,-39,1,0,0,response3disk,,5,4,-4,1,0,0,rectangle,4,-4,1,0,0,4,-4,1,0,0,1,110,270,154,1,,,,,,,,
,,,,,,,,,,,,,FF,,,,,,,,0.601,,,,,,,,,,,,,,,,,,,,,,60fd700ffac5eba3832e3304,6103798053b06843ea59217a,2021-07-30_00h01.37.363,Simcolourproject_2stim_asymm_v5,2020.2.10,MacIntel,60,61025ae37ef11b136ea224fe,,,,,,,,,2520,87,38,1,0,0,response1disk,,6,-2,3,1,0,0,rectangle,-2,3,1,0,0,-2,3,1,0,0,1,111,271,69,1,,,,,,,,
,,,,,,,,,,,,,FF,,,,,,,,0.733,,,,,,,,,,,,,,,,,,,,,,60fd700ffac5eba3832e3304,6103798053b06843ea59217a,2021-07-30_00h01.37.363,Simcolourproject_2stim_asymm_v5,2020.2.10,MacIntel,60,61025ae37ef11b136ea224fe,,,,,,,,,1007,76,-48,1,0,0,response3disk,,5,5,-6,1,0,0,rectangle,5,-6,1,0,0,5,-6,1,0,0,1,112,272,117,1,,,,,,,,
,,,,,,,,,,,,,FF,,,,,,,,0.949,,,,,,,,,,,,,,,,,,,,,,60fd700ffac5eba3832e3304,6103798053b06843ea59217a,2021-07-30_00h01.37.363,Simcolourproject_2stim_asymm_v5,2020.2.10,MacIntel,60,61025ae37ef11b136ea224fe,,,,,,,,,2677,-32,-72,1,0,0,response5disk,,3,0,0,1,0,0,rectangle,0,0,1,0,0,0,0,1,0,0,1,113,273,118,1,,,,,,,,
,,,,,,,,,,,,,FF,,,,,,,,0.649,,,,,,,,,,,,,,,,,,,,,,60fd700ffac5eba3832e3304,6103798053b06843ea59217a,2021-07-30_00h01.37.363,Simcolourproject_2stim_asymm_v5,2020.2.10,MacIntel,60,61025ae37ef11b136ea224fe,,,,,,,,,3993,-27,63,1,0,0,response7disk,,0,-1,1,1,0,0,rectangle,-1,1,1,0,0,-1,1,1,0,0,1,114,274,124,1,,,,,,,,
,,,,,,,,,,,,,FF,,,,,,,,1.7,,,,,,,,,,,,,,,,,,,,,,60fd700ffac5eba3832e3304,6103798053b06843ea59217a,2021-07-30_00h01.37.363,Simcolourproject_2stim_asymm_v5,2020.2.10,MacIntel,60,61025ae37ef11b136ea224fe,,,,,,,,,1446,72,-49,1,0,0,response3disk,,5,4,11,1,0,0,rectangle,75,-38,1,0,0,15,0,1,0,0,1,115,275,97,1,,response3disk_3,TRUE,5,3,"[276,26,142,80,191,291,212,131,190,91,173,264,150,198,211,173,252,116,101,278]",0.982,rectangle
,,,,,,,,,,,,,FF,,,,,,,,1.016,,,,,,,,,,,,,,,,,,,,,,60fd700ffac5eba3832e3304,6103798053b06843ea59217a,2021-07-30_00h01.37.363,Simcolourproject_2stim_asymm_v5,2020.2.10,MacIntel,60,61025ae37ef11b136ea224fe,,,,,,,,,2218,-58,26,1,0,0,response7disk,,1,1,-8,1,0,0,rectangle,1,-8,1,0,0,1,-8,1,0,0,1,116,276,133,1,,,,,,,,
,,,,,,,,,,,,,FF,,,,,,,,0.599,,,,,,,,,,,,,,,,,,,,,,60fd700ffac5eba3832e3304,6103798053b06843ea59217a,2021-07-30_00h01.37.363,Simcolourproject_2stim_asymm_v5,2020.2.10,MacIntel,60,61025ae37ef11b136ea224fe,,,,,,,,,3616,-29,-80,1,0,0,response5disk,,3,0,0,1,0,0,rectangle,105,-35,1,0,0,-4,3,1,0,0,1,117,277,33,1,,response3disk_3,TRUE,5,5,"[276,26,142,80,191,291,212,131,190,91,173,264,150,198,211,173,252,116,101,278]",2.166,rectangle
,,,,,,,,,,,,,FF,,,,,,,,2.449,,,,,,,,,,,,,,,,,,,,,,60fd700ffac5eba3832e3304,6103798053b06843ea59217a,2021-07-30_00h01.37.363,Simcolourproject_2stim_asymm_v5,2020.2.10,MacIntel,60,61025ae37ef11b136ea224fe,,,,,,,,,2578,78,-50,1,0,0,response3disk,,5,9,2,1,0,0,rectangle,9,2,1,0,0,9,2,1,0,0,1,118,278,140,1,,,,,,,,
,,,,,,,,,,,,,FF,,,,,,,,0.683,,,,,,,,,,,,,,,,,,,,,,60fd700ffac5eba3832e3304,6103798053b06843ea59217a,2021-07-30_00h01.37.363,Simcolourproject_2stim_asymm_v5,2020.2.10,MacIntel,60,61025ae37ef11b136ea224fe,,,,,,,,,626,-19,-60,1,0,0,response5disk,,3,1,5,1,0,0,rectangle,1,5,1,0,0,1,5,1,0,0,1,119,279,59,1,,,,,,,,
,,,,,,,,,,,,,FF,,,,,,,,0.716,,,,,,,,,,,,,,,,,,,,,,60fd700ffac5eba3832e3304,6103798053b06843ea59217a,2021-07-30_00h01.37.363,Simcolourproject_2stim_asymm_v5,2020.2.10,MacIntel,60,61025ae37ef11b136ea224fe,,,,,,,,,1203,-76,53,1,0,0,response7disk,,1,-5,-1,1,0,0,rectangle,-5,-1,1,0,0,-5,-1,1,0,0,1,120,280,91,1,,,,,,,,
,,,,,,,,,,,,,FF,,,,,,,,0.583,,,,,,,,,,,,,,,,,,,,,,60fd700ffac5eba3832e3304,6103798053b06843ea59217a,2021-07-30_00h01.37.363,Simcolourproject_2stim_asymm_v5,2020.2.10,MacIntel,60,61025ae37ef11b136ea224fe,,,,,,,,,782,35,-57,1,0,0,response3disk,,4,8,5,1,0,0,rectangle,8,5,1,0,0,8,5,1,0,0,1,121,281,102,1,,,,,,,,
,,,,,,,,,,,,,FF,,,,,,,,0.599,,,,,,,,,,,,,,,,,,,,,,60fd700ffac5eba3832e3304,6103798053b06843ea59217a,2021-07-30_00h01.37.363,Simcolourproject_2stim_asymm_v5,2020.2.10,MacIntel,60,61025ae37ef11b136ea224fe,,,,,,,,,2205,88,-56,1,0,0,response3disk,,5,10,-6,1,0,0,rectangle,10,-6,1,0,0,10,-6,1,0,0,1,122,282,93,1,,,,,,,,
,,,,,,,,,,,,,FF,,,,,,,,0.616,,,,,,,,,,,,,,,,,,,,,,60fd700ffac5eba3832e3304,6103798053b06843ea59217a,2021-07-30_00h01.37.363,Simcolourproject_2stim_asymm_v5,2020.2.10,MacIntel,60,61025ae37ef11b136ea224fe,,,,,,,,,2726,-79,-45,1,0,0,response5disk,,2,-3,-10,1,0,0,rectangle,-3,-10,1,0,0,-3,-10,1,0,0,1,123,283,43,1,,,,,,,,
,,,,,,,,,,,,,FF,,,,,,,,1.367,,,,,,,,,,,,,,,,,,,,,,60fd700ffac5eba3832e3304,6103798053b06843ea59217a,2021-07-30_00h01.37.363,Simcolourproject_2stim_asymm_v5,2020.2.10,MacIntel,60,61025ae37ef11b136ea224fe,,,,,,,,,3446,67,38,1,0,0,response1disk,,6,11,3,1,0,0,rectangle,11,3,1,0,0,11,3,1,0,0,1,124,284,79,1,,,,,,,,
,,,,,,,,,,,,,FF,,,,,,,,0.799,,,,,,,,,,,,,,,,,,,,,,60fd700ffac5eba3832e3304,6103798053b06843ea59217a,2021-07-30_00h01.37.363,Simcolourproject_2stim_asymm_v5,2020.2.10,MacIntel,60,61025ae37ef11b136ea224fe,,,,,,,,,980,-32,-75,1,0,0,response5disk,,3,-6,0,1,0,0,rectangle,-6,0,1,0,0,-6,0,1,0,0,1,125,285,51,1,,,,,,,,
,,,,,,,,,,,,,FF,,,,,,,,1.75,,,,,,,,,,,,,,,,,,,,,,60fd700ffac5eba3832e3304,6103798053b06843ea59217a,2021-07-30_00h01.37.363,Simcolourproject_2stim_asymm_v5,2020.2.10,MacIntel,60,61025ae37ef11b136ea224fe,,,,,,,,,4170,84,-30,1,0,0,response3disk,,5,7,-11,1,0,0,rectangle,7,-11,1,0,0,7,-11,1,0,0,1,126,286,87,1,,,,,,,,
,,,,,,,,,,,,,FF,,,,,,,,0.834,,,,,,,,,,,,,,,,,,,,,,60fd700ffac5eba3832e3304,6103798053b06843ea59217a,2021-07-30_00h01.37.363,Simcolourproject_2stim_asymm_v5,2020.2.10,MacIntel,60,61025ae37ef11b136ea224fe,,,,,,,,,2893,-70,49,1,0,0,response7disk,,1,-3,-14,1,0,0,rectangle,-3,-14,1,0,0,-3,-14,1,0,0,1,127,287,131,1,,,,,,,,
,,,,,,,,,,,,,FF,,,,,,,,0.783,,,,,,,,,,,,,,,,,,,,,,60fd700ffac5eba3832e3304,6103798053b06843ea59217a,2021-07-30_00h01.37.363,Simcolourproject_2stim_asymm_v5,2020.2.10,MacIntel,60,61025ae37ef11b136ea224fe,,,,,,,,,1459,-75,44,1,0,0,response7disk,,1,0,8,1,0,0,rectangle,0,8,1,0,0,0,8,1,0,0,1,128,288,34,1,,,,,,,,
,,,,,,,,,,,,,FF,,,,,,,,0.6,,,,,,,,,,,,,,,,,,,,,,60fd700ffac5eba3832e3304,6103798053b06843ea59217a,2021-07-30_00h01.37.363,Simcolourproject_2stim_asymm_v5,2020.2.10,MacIntel,60,61025ae37ef11b136ea224fe,,,,,,,,,3885,88,35,1,0,0,response1disk,,6,10,3,1,0,0,rectangle,10,3,1,0,0,10,3,1,0,0,1,129,289,145,1,,,,,,,,
,,,,,,,,,,,,,FF,,,,,,,,0.617,,,,,,,,,,,,,,,,,,,,,,60fd700ffac5eba3832e3304,6103798053b06843ea59217a,2021-07-30_00h01.37.363,Simcolourproject_2stim_asymm_v5,2020.2.10,MacIntel,60,61025ae37ef11b136ea224fe,,,,,,,,,1313,-77,-36,1,0,0,response5disk,,2,-21,-3,1,0,0,rectangle,-55,88,1,0,0,2,1,1,0,0,1,130,290,104,1,,response7disk_3,TRUE,0,0,"[276,26,142,80,191,291,212,131,190,91,173,264,150,198,211,173,252,116,101,278]",2.983,rectangle
,,,,,,,,,,,,,FF,,,,,,,,1.149,,,,,,,,,,,,,,,,,,,,,,60fd700ffac5eba3832e3304,6103798053b06843ea59217a,2021-07-30_00h01.37.363,Simcolourproject_2stim_asymm_v5,2020.2.10,MacIntel,60,61025ae37ef11b136ea224fe,,,,,,,,,2302,-91,-47,1,0,0,response5disk,,2,6,6,1,0,0,rectangle,6,6,1,0,0,6,6,1,0,0,1,131,291,106,1,,,,,,,,
,,,,,,,,,,,,,FF,,,,,,,,0.599,,,,,,,,,,,,,,,,,,,,,,60fd700ffac5eba3832e3304,6103798053b06843ea59217a,2021-07-30_00h01.37.363,Simcolourproject_2stim_asymm_v5,2020.2.10,MacIntel,60,61025ae37ef11b136ea224fe,,,,,,,,,4036,-42,-95,1,0,0,response5disk,,3,4,-4,1,0,0,rectangle,4,-4,1,0,0,4,-4,1,0,0,1,132,292,21,1,,,,,,,,
,,,,,,,,,,,,,FF,,,,,,,,0.45,,,,,,,,,,,,,,,,,,,,,,60fd700ffac5eba3832e3304,6103798053b06843ea59217a,2021-07-30_00h01.37.363,Simcolourproject_2stim_asymm_v5,2020.2.10,MacIntel,60,61025ae37ef11b136ea224fe,,,,,,,,,872,84,-44,1,0,0,response3disk,,5,3,10,1,0,0,rectangle,3,10,1,0,0,3,10,1,0,0,1,133,293,73,1,,,,,,,,
,,,,,,,,,,,,,FF,,,,,,,,0.601,,,,,,,,,,,,,,,,,,,,,,60fd700ffac5eba3832e3304,6103798053b06843ea59217a,2021-07-30_00h01.37.363,Simcolourproject_2stim_asymm_v5,2020.2.10,MacIntel,60,61025ae37ef11b136ea224fe,,,,,,,,,1585,-45,-75,1,0,0,response5disk,,3,4,2,1,0,0,rectangle,4,2,1,0,0,4,2,1,0,0,1,134,294,48,1,,,,,,,,
,,,,,,,,,,,,,FF,,,,,,,,0.432,,,,,,,,,,,,,,,,,,,,,,60fd700ffac5eba3832e3304,6103798053b06843ea59217a,2021-07-30_00h01.37.363,Simcolourproject_2stim_asymm_v5,2020.2.10,MacIntel,60,61025ae37ef11b136ea224fe,,,,,,,,,2527,76,-38,1,0,0,response3disk,,5,14,-9,1,0,0,rectangle,14,-9,1,0,0,14,-9,1,0,0,1,135,295,85,1,,,,,,,,
,,,,,,,,,,,,,FF,,,,,,,,0.585,,,,,,,,,,,,,,,,,,,,,,60fd700ffac5eba3832e3304,6103798053b06843ea59217a,2021-07-30_00h01.37.363,Simcolourproject_2stim_asymm_v5,2020.2.10,MacIntel,60,61025ae37ef11b136ea224fe,,,,,,,,,530,-64,-35,1,0,0,response5disk,,2,0,-5,1,0,0,rectangle,0,-5,1,0,0,0,-5,1,0,0,1,136,296,86,1,,,,,,,,
,,,,,,,,,,,,,FF,,,,,,,,0.749,,,,,,,,,,,,,,,,,,,,,,60fd700ffac5eba3832e3304,6103798053b06843ea59217a,2021-07-30_00h01.37.363,Simcolourproject_2stim_asymm_v5,2020.2.10,MacIntel,60,61025ae37ef11b136ea224fe,,,,,,,,,615,-50,-27,1,0,0,response5disk,,2,-7,-4,1,0,0,rectangle,-7,-4,1,0,0,-7,-4,1,0,0,1,137,297,157,1,,,,,,,,
,,,,,,,,,,,,,FF,,,,,,,,0.916,,,,,,,,,,,,,,,,,,,,,,60fd700ffac5eba3832e3304,6103798053b06843ea59217a,2021-07-30_00h01.37.363,Simcolourproject_2stim_asymm_v5,2020.2.10,MacIntel,60,61025ae37ef11b136ea224fe,,,,,,,,,1703,65,-38,1,0,0,response3disk,,5,3,-5,1,0,0,rectangle,3,-5,1,0,0,3,-5,1,0,0,1,138,298,147,1,,,,,,,,
,,,,,,,,,,,,,FF,,,,,,,,0.699,,,,,,,,,,,,,,,,,,,,,,60fd700ffac5eba3832e3304,6103798053b06843ea59217a,2021-07-30_00h01.37.363,Simcolourproject_2stim_asymm_v5,2020.2.10,MacIntel,60,61025ae37ef11b136ea224fe,,,,,,,,,4348,-45,-72,1,0,0,response5disk,,3,-3,3,1,0,0,rectangle,-3,3,1,0,0,-3,3,1,0,0,1,139,299,95,1,,,,,,,,
,,,,,,,,,,,,,FF,,,,,,,,0.633,,,,,,,,,,,,,,,,,,,,,,60fd700ffac5eba3832e3304,6103798053b06843ea59217a,2021-07-30_00h01.37.363,Simcolourproject_2stim_asymm_v5,2020.2.10,MacIntel,60,61025ae37ef11b136ea224fe,,,,,,,,,1702,84,-29,1,0,0,response3disk,,5,-11,-7,1,0,0,rectangle,-11,-7,1,0,0,-11,-7,1,0,0,1,140,300,121,1,,,,,,,,
