key_resp.keys,key_resp.rt,key_resp_14.keys,key_resp_14.rt,key_resp_15.keys,key_resp_15.rt,key_resp_17.keys,key_resp_17.rt,key_resp_9.keys,key_resp_9.rt,key_resp_10.keys,key_resp_10.rt,practice_comparison,Ecc,mouse_5.x,mouse_5.y,mouse_5.leftButton,mouse_5.midButton,mouse_5.rightButton,mouse_5.clicked_name,pracsimilarity,response_time,mouse_10.x,mouse_10.y,mouse_10.leftButton,mouse_10.midButton,mouse_10.rightButton,mouse_10.clicked_name,mouse_7.x,mouse_7.y,mouse_7.leftButton,mouse_7.midButton,mouse_7.rightButton,mouse_6.x,mouse_6.y,mouse_6.leftButton,mouse_6.midButton,mouse_6.rightButton,duringprac.thisRepN,duringprac.thisTrialN,duringprac.thisN,duringprac.thisIndex,duringprac.ran,participant,session,date,expName,psychopyVersion,OS,frameRate,study_id,mouse_7.clicked_name,catchpracsimilarity,catch_response_time,catchnumberprac,catchtrialorderprac,mouse_6.clicked_name,key_resp_22.keys,key_resp_22.rt,realcomparison,mouse.x,mouse.y,mouse.leftButton,mouse.midButton,mouse.rightButton,mouse.clicked_name,Colour2,similarity,mouse_2.x,mouse_2.y,mouse_2.leftButton,mouse_2.midButton,mouse_2.rightButton,mouse_2.clicked_name,mouse_3.x,mouse_3.y,mouse_3.leftButton,mouse_3.midButton,mouse_3.rightButton,mouse_3.clicked_name,catchornah,catchsimilarity,catchnumber,catchtrialorder,catchRT,mouse_11.x,mouse_11.y,mouse_11.leftButton,mouse_11.midButton,mouse_11.rightButton,mouse_11.clicked_name,trials_2.thisRepN,trials_2.thisTrialN,trials_2.thisN,trials_2.thisIndex,trials_2.ran,Colour1
space,8.4962,space,4.2825,space,5.7297,space,4.0003,space,2.0806,space,9.4343,31,FF,49.203125,-27.40234375,1,0,0,response3disk_5,5,12.9332,-2.35546875,3.6484375,1,0,0,rectangle_8,-2.35546875,3.6484375,1,0,0,-2.35546875,3.6484375,1,0,0,0,0,0,0,1,60fda6eee038c8ca51572ade,61036f07c47011d51cdbae9c,2021-07-29_23h16.56.084,Simcolourproject_2stim_asymm_v5,2020.2.10,MacIntel,60,61025ae37ef11b136ea224fe,,,,,,,,,,,,,,,,,,,,,,,,,,,,,,,,,,,,,,,,,,,,,,
,,,,,,,,,,,,104,PF,-27.1015625,-38.53515625,1,0,0,response5disk_5,3,4.4004,-9.1796875,-0.8203125,1,0,0,rectangle_8,56.37890625,21.37890625,1,0,0,1.95703125,-2.62890625,1,0,0,0,1,1,1,1,60fda6eee038c8ca51572ade,61036f07c47011d51cdbae9c,2021-07-29_23h16.56.084,Simcolourproject_2stim_asymm_v5,2020.2.10,MacIntel,60,61025ae37ef11b136ea224fe,response1disk_7,6,3.2002,6,"[2,5]",rectangle_4,,,,,,,,,,,,,,,,,,,,,,,,,,,,,,,,,,,,,,,,
,,,,,,,,,,,,135,PF,38.28515625,-15.15234375,1,0,0,response3disk_5,5,3.5175,0.9921875,1.9140625,1,0,0,rectangle_8,0.9921875,1.9140625,1,0,0,0.9921875,1.9140625,1,0,0,0,2,2,6,1,60fda6eee038c8ca51572ade,61036f07c47011d51cdbae9c,2021-07-29_23h16.56.084,Simcolourproject_2stim_asymm_v5,2020.2.10,MacIntel,60,61025ae37ef11b136ea224fe,,,,,,,,,,,,,,,,,,,,,,,,,,,,,,,,,,,,,,,,,,,,,,
,,,,,,,,,,,,69,FF,-30.8359375,-45.640625,1,0,0,response5disk_5,3,1.8183,-11.74609375,-13.65234375,1,0,0,rectangle_8,-11.74609375,-13.65234375,1,0,0,-11.74609375,-13.65234375,1,0,0,0,3,3,3,1,60fda6eee038c8ca51572ade,61036f07c47011d51cdbae9c,2021-07-29_23h16.56.084,Simcolourproject_2stim_asymm_v5,2020.2.10,MacIntel,60,61025ae37ef11b136ea224fe,,,,,,,,,,,,,,,,,,,,,,,,,,,,,,,,,,,,,,,,,,,,,,
,,,,,,,,,,,,74,PF,-27.9375,-40.32421875,1,0,0,response5disk_5,3,1.1676,0.45703125,-0.90234375,1,0,0,rectangle_8,42.72265625,14.1796875,1,0,0,-2.8984375,-2.25,1,0,0,0,4,4,2,1,60fda6eee038c8ca51572ade,61036f07c47011d51cdbae9c,2021-07-29_23h16.56.084,Simcolourproject_2stim_asymm_v5,2020.2.10,MacIntel,60,61025ae37ef11b136ea224fe,response1disk_7,6,3.6001,6,"[2,5]",rectangle_4,,,,,,,,,,,,,,,,,,,,,,,,,,,,,,,,,,,,,,,,
,,,,,,,,,,,,94,PF,16.64453125,-61.3125,1,0,0,response3disk_5,4,1.9807,0.2421875,3.671875,1,0,0,rectangle_8,0.2421875,3.671875,1,0,0,0.2421875,3.671875,1,0,0,0,5,5,4,1,60fda6eee038c8ca51572ade,61036f07c47011d51cdbae9c,2021-07-29_23h16.56.084,Simcolourproject_2stim_asymm_v5,2020.2.10,MacIntel,60,61025ae37ef11b136ea224fe,,,,,,,,,,,,,,,,,,,,,,,,,,,,,,,,,,,,,,,,,,,,,,
,,,,,,,,,,,,124,FF,-33.4921875,-21.4609375,1,0,0,response5disk_5,2,6.1328,-1.48828125,-4.87890625,1,0,0,rectangle_8,-1.48828125,-4.87890625,1,0,0,-1.48828125,-4.87890625,1,0,0,0,6,6,5,1,60fda6eee038c8ca51572ade,61036f07c47011d51cdbae9c,2021-07-29_23h16.56.084,Simcolourproject_2stim_asymm_v5,2020.2.10,MacIntel,60,61025ae37ef11b136ea224fe,,,,,,,,,,,,,,,,,,,,,,,,,,,,,,,,,,,,,,,,,,,,,,
,,,,,,,,,,,,,FF,,,,,,,,0.9344,,,,,,,,,,,,,,,,,,,,,,60fda6eee038c8ca51572ade,61036f07c47011d51cdbae9c,2021-07-29_23h16.56.084,Simcolourproject_2stim_asymm_v5,2020.2.10,MacIntel,60,61025ae37ef11b136ea224fe,,,,,,,space,2.9785,786,-16.42578125,-37.55859375,1,0,0,response5disk,,3,-3.05859375,-1.38671875,1,0,0,rectangle,-18.703125,48.58203125,1,0,0,response7disk_3,TRUE,0,0,"[128,93,313,110,229,321,276,220,235,89,218,223,316,2,266,1,52,223,284,158]",2.6329,-5.671875,-6.078125,1,0,0,rectangle,0,0,0,86,1,
,,,,,,,,,,,,,FF,,,,,,,,1.1663,,,,,,,,,,,,,,,,,,,,,,60fda6eee038c8ca51572ade,61036f07c47011d51cdbae9c,2021-07-29_23h16.56.084,Simcolourproject_2stim_asymm_v5,2020.2.10,MacIntel,60,61025ae37ef11b136ea224fe,,,,,,,,,200,27.53125,-57.5546875,1,0,0,response3disk,,4,5.73828125,-9.27734375,1,0,0,rectangle,-42.08984375,18.03125,1,0,0,response7disk_3,TRUE,1,1,"[128,93,313,110,229,321,276,220,235,89,218,223,316,2,266,1,52,223,284,158]",2.2,-12.0546875,2.27734375,1,0,0,rectangle,0,1,1,101,1,
,,,,,,,,,,,,,FF,,,,,,,,1.5165,,,,,,,,,,,,,,,,,,,,,,60fda6eee038c8ca51572ade,61036f07c47011d51cdbae9c,2021-07-29_23h16.56.084,Simcolourproject_2stim_asymm_v5,2020.2.10,MacIntel,60,61025ae37ef11b136ea224fe,,,,,,,,,1487,28.1875,43.80859375,1,0,0,response1disk,,7,-0.59765625,-0.234375,1,0,0,rectangle,-0.59765625,-0.234375,1,0,0,,,,,,,-0.59765625,-0.234375,1,0,0,,0,2,2,152,1,
,,,,,,,,,,,,,FF,,,,,,,,1.083,,,,,,,,,,,,,,,,,,,,,,60fda6eee038c8ca51572ade,61036f07c47011d51cdbae9c,2021-07-29_23h16.56.084,Simcolourproject_2stim_asymm_v5,2020.2.10,MacIntel,60,61025ae37ef11b136ea224fe,,,,,,,,,2968,46.9453125,14.73828125,1,0,0,response1disk,,6,-12.10546875,5.84765625,1,0,0,rectangle,-12.10546875,5.84765625,1,0,0,,,,,,,-12.10546875,5.84765625,1,0,0,,0,3,3,54,1,
,,,,,,,,,,,,,FF,,,,,,,,2.517,,,,,,,,,,,,,,,,,,,,,,60fda6eee038c8ca51572ade,61036f07c47011d51cdbae9c,2021-07-29_23h16.56.084,Simcolourproject_2stim_asymm_v5,2020.2.10,MacIntel,60,61025ae37ef11b136ea224fe,,,,,,,,,1265,26.54296875,-40.25390625,1,0,0,response3disk,,4,1.41015625,3.328125,1,0,0,rectangle,1.41015625,3.328125,1,0,0,,,,,,,1.41015625,3.328125,1,0,0,,0,4,4,124,1,
,,,,,,,,,,,,,FF,,,,,,,,1.0836,,,,,,,,,,,,,,,,,,,,,,60fda6eee038c8ca51572ade,61036f07c47011d51cdbae9c,2021-07-29_23h16.56.084,Simcolourproject_2stim_asymm_v5,2020.2.10,MacIntel,60,61025ae37ef11b136ea224fe,,,,,,,,,577,41.9921875,-24.015625,1,0,0,response3disk,,5,8.8515625,8.01171875,1,0,0,rectangle,8.8515625,8.01171875,1,0,0,,,,,,,8.8515625,8.01171875,1,0,0,,0,5,5,25,1,
,,,,,,,,,,,,,FF,,,,,,,,1.3834,,,,,,,,,,,,,,,,,,,,,,60fda6eee038c8ca51572ade,61036f07c47011d51cdbae9c,2021-07-29_23h16.56.084,Simcolourproject_2stim_asymm_v5,2020.2.10,MacIntel,60,61025ae37ef11b136ea224fe,,,,,,,,,1896,-27.5703125,-40.4140625,1,0,0,response5disk,,3,-10.42578125,0.68359375,1,0,0,rectangle,-10.42578125,0.68359375,1,0,0,,,,,,,-10.42578125,0.68359375,1,0,0,,0,6,6,91,1,
,,,,,,,,,,,,,FF,,,,,,,,0.784,,,,,,,,,,,,,,,,,,,,,,60fda6eee038c8ca51572ade,61036f07c47011d51cdbae9c,2021-07-29_23h16.56.084,Simcolourproject_2stim_asymm_v5,2020.2.10,MacIntel,60,61025ae37ef11b136ea224fe,,,,,,,,,2303,-37.12109375,-23.09375,1,0,0,response5disk,,2,-3.01953125,-2.99609375,1,0,0,rectangle,-3.01953125,-2.99609375,1,0,0,,,,,,,-3.01953125,-2.99609375,1,0,0,,0,7,7,151,1,
,,,,,,,,,,,,,FF,,,,,,,,1.4833,,,,,,,,,,,,,,,,,,,,,,60fda6eee038c8ca51572ade,61036f07c47011d51cdbae9c,2021-07-29_23h16.56.084,Simcolourproject_2stim_asymm_v5,2020.2.10,MacIntel,60,61025ae37ef11b136ea224fe,,,,,,,,,2056,27.265625,51.34765625,1,0,0,response1disk,,7,6.515625,2.92578125,1,0,0,rectangle,6.515625,2.92578125,1,0,0,,,,,,,6.515625,2.92578125,1,0,0,,0,8,8,118,1,
,,,,,,,,,,,,,FF,,,,,,,,1.6332,,,,,,,,,,,,,,,,,,,,,,60fda6eee038c8ca51572ade,61036f07c47011d51cdbae9c,2021-07-29_23h16.56.084,Simcolourproject_2stim_asymm_v5,2020.2.10,MacIntel,60,61025ae37ef11b136ea224fe,,,,,,,,,1466,31.2265625,-48.56640625,1,0,0,response3disk,,4,-2.03515625,-2.10546875,1,0,0,rectangle,-2.03515625,-2.10546875,1,0,0,,,,,,,-2.03515625,-2.10546875,1,0,0,,0,9,9,137,1,
,,,,,,,,,,,,,FF,,,,,,,,6.367,,,,,,,,,,,,,,,,,,,,,,60fda6eee038c8ca51572ade,61036f07c47011d51cdbae9c,2021-07-29_23h16.56.084,Simcolourproject_2stim_asymm_v5,2020.2.10,MacIntel,60,61025ae37ef11b136ea224fe,,,,,,,,,3051,-29.0390625,-46.91796875,1,0,0,response5disk,,3,-7.9453125,0.76171875,1,0,0,rectangle,-7.9453125,0.76171875,1,0,0,,,,,,,-7.9453125,0.76171875,1,0,0,,0,10,10,82,1,
,,,,,,,,,,,,,FF,,,,,,,,1.1831,,,,,,,,,,,,,,,,,,,,,,60fda6eee038c8ca51572ade,61036f07c47011d51cdbae9c,2021-07-29_23h16.56.084,Simcolourproject_2stim_asymm_v5,2020.2.10,MacIntel,60,61025ae37ef11b136ea224fe,,,,,,,,,2396,52.17578125,-27.6171875,1,0,0,response3disk,,5,-11.94921875,3.9375,1,0,0,rectangle,-11.94921875,3.9375,1,0,0,,,,,,,-11.94921875,3.9375,1,0,0,,0,11,11,66,1,
,,,,,,,,,,,,,FF,,,,,,,,1.2833,,,,,,,,,,,,,,,,,,,,,,60fda6eee038c8ca51572ade,61036f07c47011d51cdbae9c,2021-07-29_23h16.56.084,Simcolourproject_2stim_asymm_v5,2020.2.10,MacIntel,60,61025ae37ef11b136ea224fe,,,,,,,,,2339,27.0390625,-49.7421875,1,0,0,response3disk,,4,0.109375,4.6015625,1,0,0,rectangle,0.109375,4.6015625,1,0,0,,,,,,,0.109375,4.6015625,1,0,0,,0,12,12,73,1,
,,,,,,,,,,,,,FF,,,,,,,,1.3835,,,,,,,,,,,,,,,,,,,,,,60fda6eee038c8ca51572ade,61036f07c47011d51cdbae9c,2021-07-29_23h16.56.084,Simcolourproject_2stim_asymm_v5,2020.2.10,MacIntel,60,61025ae37ef11b136ea224fe,,,,,,,,,3075,33.375,-38.25390625,1,0,0,response3disk,,4,18.23828125,-0.1953125,1,0,0,rectangle,18.23828125,-0.1953125,1,0,0,,,,,,,18.23828125,-0.1953125,1,0,0,,0,13,13,49,1,
,,,,,,,,,,,,,FF,,,,,,,,0.734,,,,,,,,,,,,,,,,,,,,,,60fda6eee038c8ca51572ade,61036f07c47011d51cdbae9c,2021-07-29_23h16.56.084,Simcolourproject_2stim_asymm_v5,2020.2.10,MacIntel,60,61025ae37ef11b136ea224fe,,,,,,,,,1929,41.34375,-17.15625,1,0,0,response3disk,,5,2.86328125,-0.2578125,1,0,0,rectangle,2.86328125,-0.2578125,1,0,0,,,,,,,2.86328125,-0.2578125,1,0,0,,0,14,14,87,1,
,,,,,,,,,,,,,FF,,,,,,,,0.8493,,,,,,,,,,,,,,,,,,,,,,60fda6eee038c8ca51572ade,61036f07c47011d51cdbae9c,2021-07-29_23h16.56.084,Simcolourproject_2stim_asymm_v5,2020.2.10,MacIntel,60,61025ae37ef11b136ea224fe,,,,,,,,,1867,38.26171875,12.93359375,1,0,0,response1disk,,6,8.359375,-3.97265625,1,0,0,rectangle,8.359375,-3.97265625,1,0,0,,,,,,,8.359375,-3.97265625,1,0,0,,0,15,15,47,1,
,,,,,,,,,,,,,FF,,,,,,,,0.7811,,,,,,,,,,,,,,,,,,,,,,60fda6eee038c8ca51572ade,61036f07c47011d51cdbae9c,2021-07-29_23h16.56.084,Simcolourproject_2stim_asymm_v5,2020.2.10,MacIntel,60,61025ae37ef11b136ea224fe,,,,,,,,,1613,14.23046875,40.7421875,1,0,0,response1disk,,7,6.1953125,-2.109375,1,0,0,rectangle,6.1953125,-2.109375,1,0,0,,,,,,,6.1953125,-2.109375,1,0,0,,0,16,16,97,1,
,,,,,,,,,,,,,FF,,,,,,,,2.3171,,,,,,,,,,,,,,,,,,,,,,60fda6eee038c8ca51572ade,61036f07c47011d51cdbae9c,2021-07-29_23h16.56.084,Simcolourproject_2stim_asymm_v5,2020.2.10,MacIntel,60,61025ae37ef11b136ea224fe,,,,,,,,,81,-23.8671875,-40.90625,1,0,0,response5disk,,3,-11.5390625,2.23828125,1,0,0,rectangle,-11.5390625,2.23828125,1,0,0,,,,,,,-11.5390625,2.23828125,1,0,0,,0,17,17,37,1,
,,,,,,,,,,,,,FF,,,,,,,,1.1494,,,,,,,,,,,,,,,,,,,,,,60fda6eee038c8ca51572ade,61036f07c47011d51cdbae9c,2021-07-29_23h16.56.084,Simcolourproject_2stim_asymm_v5,2020.2.10,MacIntel,60,61025ae37ef11b136ea224fe,,,,,,,,,2235,-38.24609375,26.234375,1,0,0,response7disk,,1,5.7890625,5.6015625,1,0,0,rectangle,5.7890625,5.6015625,1,0,0,,,,,,,5.7890625,5.6015625,1,0,0,,0,18,18,45,1,
,,,,,,,,,,,,,FF,,,,,,,,3.2506,,,,,,,,,,,,,,,,,,,,,,60fda6eee038c8ca51572ade,61036f07c47011d51cdbae9c,2021-07-29_23h16.56.084,Simcolourproject_2stim_asymm_v5,2020.2.10,MacIntel,60,61025ae37ef11b136ea224fe,,,,,,,,,2952,-23.9140625,-32.73828125,1,0,0,response5disk,,3,-10.1953125,1.90234375,1,0,0,rectangle,-10.1953125,1.90234375,1,0,0,,,,,,,-10.1953125,1.90234375,1,0,0,,0,19,19,143,1,
,,,,,,,,,,,,,FF,,,,,,,,0.692,,,,,,,,,,,,,,,,,,,,,,60fda6eee038c8ca51572ade,61036f07c47011d51cdbae9c,2021-07-29_23h16.56.084,Simcolourproject_2stim_asymm_v5,2020.2.10,MacIntel,60,61025ae37ef11b136ea224fe,,,,,,,,,2102,-24.48828125,-42.52734375,1,0,0,response5disk,,3,-5.0625,-5.671875,1,0,0,rectangle,-5.0625,-5.671875,1,0,0,,,,,,,-5.0625,-5.671875,1,0,0,,0,20,20,20,1,
,,,,,,,,,,,,,FF,,,,,,,,1.3197,,,,,,,,,,,,,,,,,,,,,,60fda6eee038c8ca51572ade,61036f07c47011d51cdbae9c,2021-07-29_23h16.56.084,Simcolourproject_2stim_asymm_v5,2020.2.10,MacIntel,60,61025ae37ef11b136ea224fe,,,,,,,,,3146,-31.46875,49.0234375,1,0,0,response7disk,,0,-0.3671875,-9.4609375,1,0,0,rectangle,-0.3671875,-9.4609375,1,0,0,,,,,,,-0.3671875,-9.4609375,1,0,0,,0,21,21,58,1,
,,,,,,,,,,,,,FF,,,,,,,,1.7155,,,,,,,,,,,,,,,,,,,,,,60fda6eee038c8ca51572ade,61036f07c47011d51cdbae9c,2021-07-29_23h16.56.084,Simcolourproject_2stim_asymm_v5,2020.2.10,MacIntel,60,61025ae37ef11b136ea224fe,,,,,,,,,513,-14.73828125,-43.40625,1,0,0,response5disk,,3,-6.515625,-3.1015625,1,0,0,rectangle,-6.515625,-3.1015625,1,0,0,,,,,,,-6.515625,-3.1015625,1,0,0,,0,22,22,111,1,
,,,,,,,,,,,,,FF,,,,,,,,0.6671,,,,,,,,,,,,,,,,,,,,,,60fda6eee038c8ca51572ade,61036f07c47011d51cdbae9c,2021-07-29_23h16.56.084,Simcolourproject_2stim_asymm_v5,2020.2.10,MacIntel,60,61025ae37ef11b136ea224fe,,,,,,,,,118,23.2578125,34.91015625,1,0,0,response1disk,,7,12.328125,5.5234375,1,0,0,rectangle,12.328125,5.5234375,1,0,0,,,,,,,12.328125,5.5234375,1,0,0,,0,23,23,89,1,
,,,,,,,,,,,,,FF,,,,,,,,0.9662,,,,,,,,,,,,,,,,,,,,,,60fda6eee038c8ca51572ade,61036f07c47011d51cdbae9c,2021-07-29_23h16.56.084,Simcolourproject_2stim_asymm_v5,2020.2.10,MacIntel,60,61025ae37ef11b136ea224fe,,,,,,,,,3866,18.5859375,27.28515625,1,0,0,response1disk,,7,5.02734375,1.8359375,1,0,0,rectangle,5.02734375,1.8359375,1,0,0,,,,,,,5.02734375,1.8359375,1,0,0,,0,24,24,157,1,
,,,,,,,,,,,,,FF,,,,,,,,0.8837,,,,,,,,,,,,,,,,,,,,,,60fda6eee038c8ca51572ade,61036f07c47011d51cdbae9c,2021-07-29_23h16.56.084,Simcolourproject_2stim_asymm_v5,2020.2.10,MacIntel,60,61025ae37ef11b136ea224fe,,,,,,,,,543,-16.05859375,52.921875,1,0,0,response7disk,,0,-11.80078125,7.484375,1,0,0,rectangle,-11.80078125,7.484375,1,0,0,,,,,,,-11.80078125,7.484375,1,0,0,,0,25,25,40,1,
,,,,,,,,,,,,,FF,,,,,,,,1.5,,,,,,,,,,,,,,,,,,,,,,60fda6eee038c8ca51572ade,61036f07c47011d51cdbae9c,2021-07-29_23h16.56.084,Simcolourproject_2stim_asymm_v5,2020.2.10,MacIntel,60,61025ae37ef11b136ea224fe,,,,,,,,,3861,-42.453125,-19.89453125,1,0,0,response5disk,,2,-8.796875,-1.9296875,1,0,0,rectangle,-8.796875,-1.9296875,1,0,0,,,,,,,-8.796875,-1.9296875,1,0,0,,0,26,26,93,1,
,,,,,,,,,,,,,FF,,,,,,,,1.0501,,,,,,,,,,,,,,,,,,,,,,60fda6eee038c8ca51572ade,61036f07c47011d51cdbae9c,2021-07-29_23h16.56.084,Simcolourproject_2stim_asymm_v5,2020.2.10,MacIntel,60,61025ae37ef11b136ea224fe,,,,,,,,,252,51.9453125,33.4296875,1,0,0,response1disk,,6,-8.015625,-2.71875,1,0,0,rectangle,-8.015625,-2.71875,1,0,0,,,,,,,-8.015625,-2.71875,1,0,0,,0,27,27,74,1,
,,,,,,,,,,,,,FF,,,,,,,,1.4005,,,,,,,,,,,,,,,,,,,,,,60fda6eee038c8ca51572ade,61036f07c47011d51cdbae9c,2021-07-29_23h16.56.084,Simcolourproject_2stim_asymm_v5,2020.2.10,MacIntel,60,61025ae37ef11b136ea224fe,,,,,,,,,1837,18.484375,-43.421875,1,0,0,response3disk,,4,5.44140625,2.27734375,1,0,0,rectangle,5.44140625,2.27734375,1,0,0,,,,,,,5.44140625,2.27734375,1,0,0,,0,28,28,150,1,
,,,,,,,,,,,,,FF,,,,,,,,1.5834,,,,,,,,,,,,,,,,,,,,,,60fda6eee038c8ca51572ade,61036f07c47011d51cdbae9c,2021-07-29_23h16.56.084,Simcolourproject_2stim_asymm_v5,2020.2.10,MacIntel,60,61025ae37ef11b136ea224fe,,,,,,,,,88,42.109375,-24.2890625,1,0,0,response3disk,,5,-1.92578125,2.34375,1,0,0,rectangle,-1.92578125,2.34375,1,0,0,,,,,,,-1.92578125,2.34375,1,0,0,,0,29,29,84,1,
,,,,,,,,,,,,,FF,,,,,,,,0.8993,,,,,,,,,,,,,,,,,,,,,,60fda6eee038c8ca51572ade,61036f07c47011d51cdbae9c,2021-07-29_23h16.56.084,Simcolourproject_2stim_asymm_v5,2020.2.10,MacIntel,60,61025ae37ef11b136ea224fe,,,,,,,,,2755,14.01171875,64.51171875,1,0,0,response1disk,,7,1.609375,-2,1,0,0,rectangle,1.609375,-2,1,0,0,,,,,,,1.609375,-2,1,0,0,,0,30,30,67,1,
,,,,,,,,,,,,,FF,,,,,,,,2.0983,,,,,,,,,,,,,,,,,,,,,,60fda6eee038c8ca51572ade,61036f07c47011d51cdbae9c,2021-07-29_23h16.56.084,Simcolourproject_2stim_asymm_v5,2020.2.10,MacIntel,60,61025ae37ef11b136ea224fe,,,,,,,,,3133,-41.26953125,17.6640625,1,0,0,response7disk,,1,-7.49609375,-1.9921875,1,0,0,rectangle,-7.49609375,-1.9921875,1,0,0,,,,,,,-7.49609375,-1.9921875,1,0,0,,0,31,31,7,1,
,,,,,,,,,,,,,FF,,,,,,,,1.0165,,,,,,,,,,,,,,,,,,,,,,60fda6eee038c8ca51572ade,61036f07c47011d51cdbae9c,2021-07-29_23h16.56.084,Simcolourproject_2stim_asymm_v5,2020.2.10,MacIntel,60,61025ae37ef11b136ea224fe,,,,,,,,,619,-44.80859375,23.8828125,1,0,0,response7disk,,1,3.54296875,-0.54296875,1,0,0,rectangle,3.54296875,-0.54296875,1,0,0,,,,,,,3.54296875,-0.54296875,1,0,0,,0,32,32,80,1,
,,,,,,,,,,,,,FF,,,,,,,,1.016,,,,,,,,,,,,,,,,,,,,,,60fda6eee038c8ca51572ade,61036f07c47011d51cdbae9c,2021-07-29_23h16.56.084,Simcolourproject_2stim_asymm_v5,2020.2.10,MacIntel,60,61025ae37ef11b136ea224fe,,,,,,,,,3831,-12.3359375,-49.08984375,1,0,0,response5disk,,3,3.125,-9.51953125,1,0,0,rectangle,3.125,-9.51953125,1,0,0,,,,,,,3.125,-9.51953125,1,0,0,,0,33,33,64,1,
,,,,,,,,,,,,,FF,,,,,,,,1.4022,,,,,,,,,,,,,,,,,,,,,,60fda6eee038c8ca51572ade,61036f07c47011d51cdbae9c,2021-07-29_23h16.56.084,Simcolourproject_2stim_asymm_v5,2020.2.10,MacIntel,60,61025ae37ef11b136ea224fe,,,,,,,,,3182,29.51953125,-13.76953125,1,0,0,response3disk,,5,5.203125,-1.81640625,1,0,0,rectangle,5.203125,-1.81640625,1,0,0,,,,,,,5.203125,-1.81640625,1,0,0,,0,34,34,136,1,
,,,,,,,,,,,,,FF,,,,,,,,1.1174,,,,,,,,,,,,,,,,,,,,,,60fda6eee038c8ca51572ade,61036f07c47011d51cdbae9c,2021-07-29_23h16.56.084,Simcolourproject_2stim_asymm_v5,2020.2.10,MacIntel,60,61025ae37ef11b136ea224fe,,,,,,,,,1712,16.6796875,46.5390625,1,0,0,response1disk,,7,3.73046875,7.02734375,1,0,0,rectangle,3.73046875,7.02734375,1,0,0,,,,,,,3.73046875,7.02734375,1,0,0,,0,35,35,1,1,
,,,,,,,,,,,,,FF,,,,,,,,0.5319,,,,,,,,,,,,,,,,,,,,,,60fda6eee038c8ca51572ade,61036f07c47011d51cdbae9c,2021-07-29_23h16.56.084,Simcolourproject_2stim_asymm_v5,2020.2.10,MacIntel,60,61025ae37ef11b136ea224fe,,,,,,,,,460,-13.34765625,-28.40234375,1,0,0,response5disk,,3,-1.74609375,13.2109375,1,0,0,rectangle,-1.74609375,13.2109375,1,0,0,,,,,,,-1.74609375,13.2109375,1,0,0,,0,36,36,29,1,
,,,,,,,,,,,,,FF,,,,,,,,0.7474,,,,,,,,,,,,,,,,,,,,,,60fda6eee038c8ca51572ade,61036f07c47011d51cdbae9c,2021-07-29_23h16.56.084,Simcolourproject_2stim_asymm_v5,2020.2.10,MacIntel,60,61025ae37ef11b136ea224fe,,,,,,,,,3338,48.15625,10.19140625,1,0,0,response1disk,,6,8.84375,-5.19140625,1,0,0,rectangle,8.84375,-5.19140625,1,0,0,,,,,,,8.84375,-5.19140625,1,0,0,,0,37,37,139,1,
,,,,,,,,,,,,,FF,,,,,,,,2.0339,,,,,,,,,,,,,,,,,,,,,,60fda6eee038c8ca51572ade,61036f07c47011d51cdbae9c,2021-07-29_23h16.56.084,Simcolourproject_2stim_asymm_v5,2020.2.10,MacIntel,60,61025ae37ef11b136ea224fe,,,,,,,,,1128,15.9375,51.59375,1,0,0,response1disk,,7,7.671875,4.6015625,1,0,0,rectangle,7.671875,4.6015625,1,0,0,,,,,,,7.671875,4.6015625,1,0,0,,0,38,38,9,1,
,,,,,,,,,,,,,FF,,,,,,,,0.9833,,,,,,,,,,,,,,,,,,,,,,60fda6eee038c8ca51572ade,61036f07c47011d51cdbae9c,2021-07-29_23h16.56.084,Simcolourproject_2stim_asymm_v5,2020.2.10,MacIntel,60,61025ae37ef11b136ea224fe,,,,,,,,,652,30.59375,17.515625,1,0,0,response1disk,,6,1.36328125,2.83203125,1,0,0,rectangle,1.36328125,2.83203125,1,0,0,,,,,,,1.36328125,2.83203125,1,0,0,,0,39,39,130,1,
,,,,,,,,,,,,,FF,,,,,,,,0.7328,,,,,,,,,,,,,,,,,,,,,,60fda6eee038c8ca51572ade,61036f07c47011d51cdbae9c,2021-07-29_23h16.56.084,Simcolourproject_2stim_asymm_v5,2020.2.10,MacIntel,60,61025ae37ef11b136ea224fe,,,,,,,,,3924,16.8046875,26.78125,1,0,0,response1disk,,7,1.37109375,0.171875,1,0,0,rectangle,1.37109375,0.171875,1,0,0,,,,,,,1.37109375,0.171875,1,0,0,,0,40,40,92,1,
,,,,,,,,,,,,,FF,,,,,,,,0.6663,,,,,,,,,,,,,,,,,,,,,,60fda6eee038c8ca51572ade,61036f07c47011d51cdbae9c,2021-07-29_23h16.56.084,Simcolourproject_2stim_asymm_v5,2020.2.10,MacIntel,60,61025ae37ef11b136ea224fe,,,,,,,,,612,22.9375,30.82421875,1,0,0,response1disk,,7,-0.0390625,-0.02734375,1,0,0,rectangle,-0.0390625,-0.02734375,1,0,0,,,,,,,-0.0390625,-0.02734375,1,0,0,,0,41,41,129,1,
,,,,,,,,,,,,,FF,,,,,,,,0.8328,,,,,,,,,,,,,,,,,,,,,,60fda6eee038c8ca51572ade,61036f07c47011d51cdbae9c,2021-07-29_23h16.56.084,Simcolourproject_2stim_asymm_v5,2020.2.10,MacIntel,60,61025ae37ef11b136ea224fe,,,,,,,,,3664,31.01171875,18.22265625,1,0,0,response1disk,,6,-3.26953125,-11.125,1,0,0,rectangle,-3.26953125,-11.125,1,0,0,,,,,,,-3.26953125,-11.125,1,0,0,,0,42,42,100,1,
,,,,,,,,,,,,,FF,,,,,,,,0.7333,,,,,,,,,,,,,,,,,,,,,,60fda6eee038c8ca51572ade,61036f07c47011d51cdbae9c,2021-07-29_23h16.56.084,Simcolourproject_2stim_asymm_v5,2020.2.10,MacIntel,60,61025ae37ef11b136ea224fe,,,,,,,,,3062,44.12890625,-24.41015625,1,0,0,response3disk,,5,7.3828125,-6.17578125,1,0,0,rectangle,7.3828125,-6.17578125,1,0,0,,,,,,,7.3828125,-6.17578125,1,0,0,,0,43,43,81,1,
,,,,,,,,,,,,,FF,,,,,,,,0.9155,,,,,,,,,,,,,,,,,,,,,,60fda6eee038c8ca51572ade,61036f07c47011d51cdbae9c,2021-07-29_23h16.56.084,Simcolourproject_2stim_asymm_v5,2020.2.10,MacIntel,60,61025ae37ef11b136ea224fe,,,,,,,,,4361,-29.04296875,58.81640625,1,0,0,response7disk,,0,-19.2109375,-4.203125,1,0,0,rectangle,-19.2109375,-4.203125,1,0,0,,,,,,,-19.2109375,-4.203125,1,0,0,,0,44,44,114,1,
,,,,,,,,,,,,,FF,,,,,,,,0.871,,,,,,,,,,,,,,,,,,,,,,60fda6eee038c8ca51572ade,61036f07c47011d51cdbae9c,2021-07-29_23h16.56.084,Simcolourproject_2stim_asymm_v5,2020.2.10,MacIntel,60,61025ae37ef11b136ea224fe,,,,,,,,,1250,26.15234375,18.43359375,1,0,0,response1disk,,6,3.25,-6.0390625,1,0,0,rectangle,3.25,-6.0390625,1,0,0,,,,,,,3.25,-6.0390625,1,0,0,,0,45,45,63,1,
,,,,,,,,,,,,,FF,,,,,,,,1.4508,,,,,,,,,,,,,,,,,,,,,,60fda6eee038c8ca51572ade,61036f07c47011d51cdbae9c,2021-07-29_23h16.56.084,Simcolourproject_2stim_asymm_v5,2020.2.10,MacIntel,60,61025ae37ef11b136ea224fe,,,,,,,,,2797,41.98828125,19.3203125,1,0,0,response1disk,,6,6.078125,3.484375,1,0,0,rectangle,6.078125,3.484375,1,0,0,,,,,,,6.078125,3.484375,1,0,0,,0,46,46,46,1,
,,,,,,,,,,,,,FF,,,,,,,,2.101,,,,,,,,,,,,,,,,,,,,,,60fda6eee038c8ca51572ade,61036f07c47011d51cdbae9c,2021-07-29_23h16.56.084,Simcolourproject_2stim_asymm_v5,2020.2.10,MacIntel,60,61025ae37ef11b136ea224fe,,,,,,,,,2793,17.265625,-33.5625,1,0,0,response3disk,,4,5.3984375,-3.2734375,1,0,0,rectangle,5.3984375,-3.2734375,1,0,0,,,,,,,5.3984375,-3.2734375,1,0,0,,0,47,47,27,1,
,,,,,,,,,,,,,FF,,,,,,,,1.0501,,,,,,,,,,,,,,,,,,,,,,60fda6eee038c8ca51572ade,61036f07c47011d51cdbae9c,2021-07-29_23h16.56.084,Simcolourproject_2stim_asymm_v5,2020.2.10,MacIntel,60,61025ae37ef11b136ea224fe,,,,,,,,,2227,-23.890625,-39.66015625,1,0,0,response5disk,,3,-11.1796875,-9.8515625,1,0,0,rectangle,-11.1796875,-9.8515625,1,0,0,,,,,,,-11.1796875,-9.8515625,1,0,0,,0,48,48,14,1,
,,,,,,,,,,,,,FF,,,,,,,,1.2341,,,,,,,,,,,,,,,,,,,,,,60fda6eee038c8ca51572ade,61036f07c47011d51cdbae9c,2021-07-29_23h16.56.084,Simcolourproject_2stim_asymm_v5,2020.2.10,MacIntel,60,61025ae37ef11b136ea224fe,,,,,,,,,2003,21.73828125,48.33203125,1,0,0,response1disk,,7,8.23828125,-6.4609375,1,0,0,rectangle,8.23828125,-6.4609375,1,0,0,,,,,,,8.23828125,-6.4609375,1,0,0,,0,49,49,50,1,
,,,,,,,,,,,,,FF,,,,,,,,1.1531,,,,,,,,,,,,,,,,,,,,,,60fda6eee038c8ca51572ade,61036f07c47011d51cdbae9c,2021-07-29_23h16.56.084,Simcolourproject_2stim_asymm_v5,2020.2.10,MacIntel,60,61025ae37ef11b136ea224fe,,,,,,,,,4271,17.51171875,35.70703125,1,0,0,response1disk,,7,9.68359375,4.5859375,1,0,0,rectangle,9.68359375,4.5859375,1,0,0,,,,,,,9.68359375,4.5859375,1,0,0,,0,50,50,156,1,
,,,,,,,,,,,,,FF,,,,,,,,0.9996,,,,,,,,,,,,,,,,,,,,,,60fda6eee038c8ca51572ade,61036f07c47011d51cdbae9c,2021-07-29_23h16.56.084,Simcolourproject_2stim_asymm_v5,2020.2.10,MacIntel,60,61025ae37ef11b136ea224fe,,,,,,,,,3233,24.80078125,48.0078125,1,0,0,response1disk,,7,15.33984375,5.20703125,1,0,0,rectangle,-18.0390625,-34.41015625,1,0,0,response5disk_3,TRUE,3,3,"[128,93,313,110,229,321,276,220,235,89,218,223,316,2,266,1,52,223,284,158]",2.3838,-4.6015625,2.796875,1,0,0,rectangle,0,51,51,99,1,
,,,,,,,,,,,,,FF,,,,,,,,1.4337,,,,,,,,,,,,,,,,,,,,,,60fda6eee038c8ca51572ade,61036f07c47011d51cdbae9c,2021-07-29_23h16.56.084,Simcolourproject_2stim_asymm_v5,2020.2.10,MacIntel,60,61025ae37ef11b136ea224fe,,,,,,,,,3968,-37.30859375,-24.57421875,1,0,0,response5disk,,2,-5.74609375,-0.9375,1,0,0,rectangle,-5.74609375,-0.9375,1,0,0,,,,,,,-5.74609375,-0.9375,1,0,0,,0,52,52,30,1,
,,,,,,,,,,,,,FF,,,,,,,,2.7982,,,,,,,,,,,,,,,,,,,,,,60fda6eee038c8ca51572ade,61036f07c47011d51cdbae9c,2021-07-29_23h16.56.084,Simcolourproject_2stim_asymm_v5,2020.2.10,MacIntel,60,61025ae37ef11b136ea224fe,,,,,,,,,2594,-42.8515625,-33.14453125,1,0,0,response5disk,,2,-2.17578125,6.0234375,1,0,0,rectangle,-2.17578125,6.0234375,1,0,0,,,,,,,-2.17578125,6.0234375,1,0,0,,0,53,53,26,1,
,,,,,,,,,,,,,FF,,,,,,,,1.1002,,,,,,,,,,,,,,,,,,,,,,60fda6eee038c8ca51572ade,61036f07c47011d51cdbae9c,2021-07-29_23h16.56.084,Simcolourproject_2stim_asymm_v5,2020.2.10,MacIntel,60,61025ae37ef11b136ea224fe,,,,,,,,,1013,43.17578125,18.50390625,1,0,0,response1disk,,6,8.29296875,2.94921875,1,0,0,rectangle,8.29296875,2.94921875,1,0,0,,,,,,,8.29296875,2.94921875,1,0,0,,0,54,54,48,1,
,,,,,,,,,,,,,FF,,,,,,,,0.9975,,,,,,,,,,,,,,,,,,,,,,60fda6eee038c8ca51572ade,61036f07c47011d51cdbae9c,2021-07-29_23h16.56.084,Simcolourproject_2stim_asymm_v5,2020.2.10,MacIntel,60,61025ae37ef11b136ea224fe,,,,,,,,,1550,22.00390625,46.515625,1,0,0,response1disk,,7,11.31640625,0.91796875,1,0,0,rectangle,11.31640625,0.91796875,1,0,0,,,,,,,11.31640625,0.91796875,1,0,0,,0,55,55,56,1,
,,,,,,,,,,,,,FF,,,,,,,,0.5327,,,,,,,,,,,,,,,,,,,,,,60fda6eee038c8ca51572ade,61036f07c47011d51cdbae9c,2021-07-29_23h16.56.084,Simcolourproject_2stim_asymm_v5,2020.2.10,MacIntel,60,61025ae37ef11b136ea224fe,,,,,,,,,1322,21.0078125,30.36328125,1,0,0,response1disk,,7,11.95703125,-0.5703125,1,0,0,rectangle,11.95703125,-0.5703125,1,0,0,,,,,,,11.95703125,-0.5703125,1,0,0,,0,56,56,98,1,
,,,,,,,,,,,,,FF,,,,,,,,0.7343,,,,,,,,,,,,,,,,,,,,,,60fda6eee038c8ca51572ade,61036f07c47011d51cdbae9c,2021-07-29_23h16.56.084,Simcolourproject_2stim_asymm_v5,2020.2.10,MacIntel,60,61025ae37ef11b136ea224fe,,,,,,,,,3074,20.8125,54.04296875,1,0,0,response1disk,,7,4.66796875,-6.2890625,1,0,0,rectangle,4.66796875,-6.2890625,1,0,0,,,,,,,4.66796875,-6.2890625,1,0,0,,0,57,57,113,1,
,,,,,,,,,,,,,FF,,,,,,,,1.2495,,,,,,,,,,,,,,,,,,,,,,60fda6eee038c8ca51572ade,61036f07c47011d51cdbae9c,2021-07-29_23h16.56.084,Simcolourproject_2stim_asymm_v5,2020.2.10,MacIntel,60,61025ae37ef11b136ea224fe,,,,,,,,,3651,20.45703125,33.45703125,1,0,0,response1disk,,7,9.9296875,9.33203125,1,0,0,rectangle,9.9296875,9.33203125,1,0,0,,,,,,,9.9296875,9.33203125,1,0,0,,0,58,58,76,1,
,,,,,,,,,,,,,FF,,,,,,,,3.75,,,,,,,,,,,,,,,,,,,,,,60fda6eee038c8ca51572ade,61036f07c47011d51cdbae9c,2021-07-29_23h16.56.084,Simcolourproject_2stim_asymm_v5,2020.2.10,MacIntel,60,61025ae37ef11b136ea224fe,,,,,,,,,1163,-18.75,-37.31640625,1,0,0,response5disk,,3,-8.19921875,-1.1015625,1,0,0,rectangle,-8.19921875,-1.1015625,1,0,0,,,,,,,-8.19921875,-1.1015625,1,0,0,,0,59,59,95,1,
,,,,,,,,,,,,,FF,,,,,,,,0.649,,,,,,,,,,,,,,,,,,,,,,60fda6eee038c8ca51572ade,61036f07c47011d51cdbae9c,2021-07-29_23h16.56.084,Simcolourproject_2stim_asymm_v5,2020.2.10,MacIntel,60,61025ae37ef11b136ea224fe,,,,,,,,,949,22.21875,38.73828125,1,0,0,response1disk,,7,5.4921875,7.53125,1,0,0,rectangle,5.4921875,7.53125,1,0,0,,,,,,,5.4921875,7.53125,1,0,0,,0,60,60,52,1,
,,,,,,,,,,,,,FF,,,,,,,,0.9167,,,,,,,,,,,,,,,,,,,,,,60fda6eee038c8ca51572ade,61036f07c47011d51cdbae9c,2021-07-29_23h16.56.084,Simcolourproject_2stim_asymm_v5,2020.2.10,MacIntel,60,61025ae37ef11b136ea224fe,,,,,,,,,3929,46.38671875,20.6953125,1,0,0,response1disk,,6,13.2578125,1.92578125,1,0,0,rectangle,13.2578125,1.92578125,1,0,0,,,,,,,13.2578125,1.92578125,1,0,0,,0,61,61,36,1,
,,,,,,,,,,,,,FF,,,,,,,,1.1985,,,,,,,,,,,,,,,,,,,,,,60fda6eee038c8ca51572ade,61036f07c47011d51cdbae9c,2021-07-29_23h16.56.084,Simcolourproject_2stim_asymm_v5,2020.2.10,MacIntel,60,61025ae37ef11b136ea224fe,,,,,,,,,3364,15.45703125,37.89453125,1,0,0,response1disk,,7,5.91796875,0.671875,1,0,0,rectangle,5.91796875,0.671875,1,0,0,,,,,,,5.91796875,0.671875,1,0,0,,0,62,62,19,1,
,,,,,,,,,,,,,FF,,,,,,,,1.7301,,,,,,,,,,,,,,,,,,,,,,60fda6eee038c8ca51572ade,61036f07c47011d51cdbae9c,2021-07-29_23h16.56.084,Simcolourproject_2stim_asymm_v5,2020.2.10,MacIntel,60,61025ae37ef11b136ea224fe,,,,,,,,,875,56.19921875,20.4140625,1,0,0,response1disk,,6,10.484375,5.29296875,1,0,0,rectangle,10.484375,5.29296875,1,0,0,,,,,,,10.484375,5.29296875,1,0,0,,0,63,63,10,1,
,,,,,,,,,,,,,FF,,,,,,,,0.6494,,,,,,,,,,,,,,,,,,,,,,60fda6eee038c8ca51572ade,61036f07c47011d51cdbae9c,2021-07-29_23h16.56.084,Simcolourproject_2stim_asymm_v5,2020.2.10,MacIntel,60,61025ae37ef11b136ea224fe,,,,,,,,,1902,29.51953125,-29.05859375,1,0,0,response3disk,,5,11.328125,1.1015625,1,0,0,rectangle,11.328125,1.1015625,1,0,0,,,,,,,11.328125,1.1015625,1,0,0,,0,64,64,109,1,
,,,,,,,,,,,,,FF,,,,,,,,0.6837,,,,,,,,,,,,,,,,,,,,,,60fda6eee038c8ca51572ade,61036f07c47011d51cdbae9c,2021-07-29_23h16.56.084,Simcolourproject_2stim_asymm_v5,2020.2.10,MacIntel,60,61025ae37ef11b136ea224fe,,,,,,,,,2073,29.33203125,39.32421875,1,0,0,response1disk,,7,9.14453125,7.71875,1,0,0,rectangle,9.14453125,7.71875,1,0,0,,,,,,,9.14453125,7.71875,1,0,0,,0,65,65,3,1,
,,,,,,,,,,,,,FF,,,,,,,,0.6661,,,,,,,,,,,,,,,,,,,,,,60fda6eee038c8ca51572ade,61036f07c47011d51cdbae9c,2021-07-29_23h16.56.084,Simcolourproject_2stim_asymm_v5,2020.2.10,MacIntel,60,61025ae37ef11b136ea224fe,,,,,,,,,3969,49.359375,26.109375,1,0,0,response1disk,,6,5.953125,-5.359375,1,0,0,rectangle,5.953125,-5.359375,1,0,0,,,,,,,5.953125,-5.359375,1,0,0,,0,66,66,134,1,
,,,,,,,,,,,,,FF,,,,,,,,0.6658,,,,,,,,,,,,,,,,,,,,,,60fda6eee038c8ca51572ade,61036f07c47011d51cdbae9c,2021-07-29_23h16.56.084,Simcolourproject_2stim_asymm_v5,2020.2.10,MacIntel,60,61025ae37ef11b136ea224fe,,,,,,,,,2732,17.12890625,26.40625,1,0,0,response1disk,,7,3.32421875,-8.703125,1,0,0,rectangle,3.32421875,-8.703125,1,0,0,,,,,,,3.32421875,-8.703125,1,0,0,,0,67,67,159,1,
,,,,,,,,,,,,,FF,,,,,,,,0.9173,,,,,,,,,,,,,,,,,,,,,,60fda6eee038c8ca51572ade,61036f07c47011d51cdbae9c,2021-07-29_23h16.56.084,Simcolourproject_2stim_asymm_v5,2020.2.10,MacIntel,60,61025ae37ef11b136ea224fe,,,,,,,,,2763,26.16015625,38.83984375,1,0,0,response1disk,,7,17.14453125,8.1875,1,0,0,rectangle,17.14453125,8.1875,1,0,0,,,,,,,17.14453125,8.1875,1,0,0,,0,68,68,94,1,
,,,,,,,,,,,,,FF,,,,,,,,1.3337,,,,,,,,,,,,,,,,,,,,,,60fda6eee038c8ca51572ade,61036f07c47011d51cdbae9c,2021-07-29_23h16.56.084,Simcolourproject_2stim_asymm_v5,2020.2.10,MacIntel,60,61025ae37ef11b136ea224fe,,,,,,,,,2427,41.1796875,-27.99609375,1,0,0,response3disk,,5,3.8984375,13.0078125,1,0,0,rectangle,3.8984375,13.0078125,1,0,0,,,,,,,3.8984375,13.0078125,1,0,0,,0,69,69,17,1,
,,,,,,,,,,,,,FF,,,,,,,,0.6461,,,,,,,,,,,,,,,,,,,,,,60fda6eee038c8ca51572ade,61036f07c47011d51cdbae9c,2021-07-29_23h16.56.084,Simcolourproject_2stim_asymm_v5,2020.2.10,MacIntel,60,61025ae37ef11b136ea224fe,,,,,,,,,3640,44.53125,-10.12890625,1,0,0,response3disk,,5,6.3203125,4.9375,1,0,0,rectangle,6.3203125,4.9375,1,0,0,,,,,,,6.3203125,4.9375,1,0,0,,0,70,70,115,1,
,,,,,,,,,,,,,FF,,,,,,,,0.9168,,,,,,,,,,,,,,,,,,,,,,60fda6eee038c8ca51572ade,61036f07c47011d51cdbae9c,2021-07-29_23h16.56.084,Simcolourproject_2stim_asymm_v5,2020.2.10,MacIntel,60,61025ae37ef11b136ea224fe,,,,,,,,,738,-25.140625,-54.07421875,1,0,0,response5disk,,3,-12.078125,-11.20703125,1,0,0,rectangle,-12.078125,-11.20703125,1,0,0,,,,,,,-12.078125,-11.20703125,1,0,0,,0,71,71,122,1,
,,,,,,,,,,,,,FF,,,,,,,,0.7,,,,,,,,,,,,,,,,,,,,,,60fda6eee038c8ca51572ade,61036f07c47011d51cdbae9c,2021-07-29_23h16.56.084,Simcolourproject_2stim_asymm_v5,2020.2.10,MacIntel,60,61025ae37ef11b136ea224fe,,,,,,,,,4234,24.52734375,62.30078125,1,0,0,response1disk,,7,8.01171875,6.16796875,1,0,0,rectangle,8.01171875,6.16796875,1,0,0,,,,,,,8.01171875,6.16796875,1,0,0,,0,72,72,90,1,
,,,,,,,,,,,,,FF,,,,,,,,0.8825,,,,,,,,,,,,,,,,,,,,,,60fda6eee038c8ca51572ade,61036f07c47011d51cdbae9c,2021-07-29_23h16.56.084,Simcolourproject_2stim_asymm_v5,2020.2.10,MacIntel,60,61025ae37ef11b136ea224fe,,,,,,,,,2352,44.57421875,24.18359375,1,0,0,response1disk,,6,10.10546875,2.5625,1,0,0,rectangle,10.10546875,2.5625,1,0,0,,,,,,,10.10546875,2.5625,1,0,0,,0,73,73,144,1,
,,,,,,,,,,,,,FF,,,,,,,,0.7155,,,,,,,,,,,,,,,,,,,,,,60fda6eee038c8ca51572ade,61036f07c47011d51cdbae9c,2021-07-29_23h16.56.084,Simcolourproject_2stim_asymm_v5,2020.2.10,MacIntel,60,61025ae37ef11b136ea224fe,,,,,,,,,198,30.3828125,11.69921875,1,0,0,response1disk,,6,-0.68359375,-6.65234375,1,0,0,rectangle,-0.68359375,-6.65234375,1,0,0,,,,,,,-0.68359375,-6.65234375,1,0,0,,0,74,74,155,1,
,,,,,,,,,,,,,FF,,,,,,,,1.0495,,,,,,,,,,,,,,,,,,,,,,60fda6eee038c8ca51572ade,61036f07c47011d51cdbae9c,2021-07-29_23h16.56.084,Simcolourproject_2stim_asymm_v5,2020.2.10,MacIntel,60,61025ae37ef11b136ea224fe,,,,,,,,,1267,-19.8984375,-50.2578125,1,0,0,response5disk,,3,-1.56640625,-13.7421875,1,0,0,rectangle,-1.56640625,-13.7421875,1,0,0,,,,,,,-1.56640625,-13.7421875,1,0,0,,0,75,75,121,1,
,,,,,,,,,,,,,FF,,,,,,,,0.6019,,,,,,,,,,,,,,,,,,,,,,60fda6eee038c8ca51572ade,61036f07c47011d51cdbae9c,2021-07-29_23h16.56.084,Simcolourproject_2stim_asymm_v5,2020.2.10,MacIntel,60,61025ae37ef11b136ea224fe,,,,,,,,,1891,-13.8828125,-30.046875,1,0,0,response5disk,,3,-1.73046875,5.6015625,1,0,0,rectangle,-1.73046875,5.6015625,1,0,0,,,,,,,-1.73046875,5.6015625,1,0,0,,0,76,76,105,1,
,,,,,,,,,,,,,FF,,,,,,,,0.7359,,,,,,,,,,,,,,,,,,,,,,60fda6eee038c8ca51572ade,61036f07c47011d51cdbae9c,2021-07-29_23h16.56.084,Simcolourproject_2stim_asymm_v5,2020.2.10,MacIntel,60,61025ae37ef11b136ea224fe,,,,,,,,,2457,34.6953125,-16.703125,1,0,0,response3disk,,5,5.99609375,-3.74609375,1,0,0,rectangle,5.99609375,-3.74609375,1,0,0,,,,,,,5.99609375,-3.74609375,1,0,0,,0,77,77,61,1,
,,,,,,,,,,,,,FF,,,,,,,,0.634,,,,,,,,,,,,,,,,,,,,,,60fda6eee038c8ca51572ade,61036f07c47011d51cdbae9c,2021-07-29_23h16.56.084,Simcolourproject_2stim_asymm_v5,2020.2.10,MacIntel,60,61025ae37ef11b136ea224fe,,,,,,,,,3955,38.23046875,17.99609375,1,0,0,response1disk,,6,0.296875,-1.40625,1,0,0,rectangle,0.296875,-1.40625,1,0,0,,,,,,,0.296875,-1.40625,1,0,0,,0,78,78,102,1,
,,,,,,,,,,,,,FF,,,,,,,,1.0559,,,,,,,,,,,,,,,,,,,,,,60fda6eee038c8ca51572ade,61036f07c47011d51cdbae9c,2021-07-29_23h16.56.084,Simcolourproject_2stim_asymm_v5,2020.2.10,MacIntel,60,61025ae37ef11b136ea224fe,,,,,,,,,2307,13.7421875,31.78125,1,0,0,response1disk,,7,2.97265625,-1.37109375,1,0,0,rectangle,2.97265625,-1.37109375,1,0,0,,,,,,,2.97265625,-1.37109375,1,0,0,,0,79,79,72,1,
,,,,,,,,,,,,,FF,,,,,,,,0.9171,,,,,,,,,,,,,,,,,,,,,,60fda6eee038c8ca51572ade,61036f07c47011d51cdbae9c,2021-07-29_23h16.56.084,Simcolourproject_2stim_asymm_v5,2020.2.10,MacIntel,60,61025ae37ef11b136ea224fe,,,,,,,,,62,41.1171875,11.4453125,1,0,0,response1disk,,6,5.21875,-10.5,1,0,0,rectangle,5.21875,-10.5,1,0,0,,,,,,,5.21875,-10.5,1,0,0,,0,80,80,142,1,
,,,,,,,,,,,,,FF,,,,,,,,1.5501,,,,,,,,,,,,,,,,,,,,,,60fda6eee038c8ca51572ade,61036f07c47011d51cdbae9c,2021-07-29_23h16.56.084,Simcolourproject_2stim_asymm_v5,2020.2.10,MacIntel,60,61025ae37ef11b136ea224fe,,,,,,,,,385,35.734375,16.38671875,1,0,0,response1disk,,6,14.3671875,-0.71484375,1,0,0,rectangle,14.3671875,-0.71484375,1,0,0,,,,,,,14.3671875,-0.71484375,1,0,0,,0,81,81,6,1,
,,,,,,,,,,,,,FF,,,,,,,,0.8505,,,,,,,,,,,,,,,,,,,,,,60fda6eee038c8ca51572ade,61036f07c47011d51cdbae9c,2021-07-29_23h16.56.084,Simcolourproject_2stim_asymm_v5,2020.2.10,MacIntel,60,61025ae37ef11b136ea224fe,,,,,,,,,2905,16.7578125,-29.90625,1,0,0,response3disk,,4,6.25,0.125,1,0,0,rectangle,6.25,0.125,1,0,0,,,,,,,6.25,0.125,1,0,0,,0,82,82,108,1,
,,,,,,,,,,,,,FF,,,,,,,,0.5677,,,,,,,,,,,,,,,,,,,,,,60fda6eee038c8ca51572ade,61036f07c47011d51cdbae9c,2021-07-29_23h16.56.084,Simcolourproject_2stim_asymm_v5,2020.2.10,MacIntel,60,61025ae37ef11b136ea224fe,,,,,,,,,2713,30.13671875,-17.87890625,1,0,0,response3disk,,5,-2.09375,-0.73828125,1,0,0,rectangle,-2.09375,-0.73828125,1,0,0,,,,,,,-2.09375,-0.73828125,1,0,0,,0,83,83,65,1,
,,,,,,,,,,,,,FF,,,,,,,,0.6829,,,,,,,,,,,,,,,,,,,,,,60fda6eee038c8ca51572ade,61036f07c47011d51cdbae9c,2021-07-29_23h16.56.084,Simcolourproject_2stim_asymm_v5,2020.2.10,MacIntel,60,61025ae37ef11b136ea224fe,,,,,,,,,459,55.0078125,-16.62890625,1,0,0,response3disk,,5,-8.24609375,-1.90234375,1,0,0,rectangle,-8.24609375,-1.90234375,1,0,0,,,,,,,-8.24609375,-1.90234375,1,0,0,,0,84,84,140,1,
,,,,,,,,,,,,,FF,,,,,,,,0.6521,,,,,,,,,,,,,,,,,,,,,,60fda6eee038c8ca51572ade,61036f07c47011d51cdbae9c,2021-07-29_23h16.56.084,Simcolourproject_2stim_asymm_v5,2020.2.10,MacIntel,60,61025ae37ef11b136ea224fe,,,,,,,,,203,40.3984375,11.75390625,1,0,0,response1disk,,6,7.38671875,-5.203125,1,0,0,rectangle,7.38671875,-5.203125,1,0,0,,,,,,,7.38671875,-5.203125,1,0,0,,0,85,85,62,1,
,,,,,,,,,,,,,FF,,,,,,,,0.4498,,,,,,,,,,,,,,,,,,,,,,60fda6eee038c8ca51572ade,61036f07c47011d51cdbae9c,2021-07-29_23h16.56.084,Simcolourproject_2stim_asymm_v5,2020.2.10,MacIntel,60,61025ae37ef11b136ea224fe,,,,,,,,,3367,36.83984375,13.78125,1,0,0,response1disk,,6,12.96484375,0.8359375,1,0,0,rectangle,12.96484375,0.8359375,1,0,0,,,,,,,12.96484375,0.8359375,1,0,0,,0,86,86,0,1,
,,,,,,,,,,,,,FF,,,,,,,,0.732,,,,,,,,,,,,,,,,,,,,,,60fda6eee038c8ca51572ade,61036f07c47011d51cdbae9c,2021-07-29_23h16.56.084,Simcolourproject_2stim_asymm_v5,2020.2.10,MacIntel,60,61025ae37ef11b136ea224fe,,,,,,,,,2027,-20.875,-40.38671875,1,0,0,response5disk,,3,-8.36328125,-6.703125,1,0,0,rectangle,-8.36328125,-6.703125,1,0,0,,,,,,,-8.36328125,-6.703125,1,0,0,,0,87,87,38,1,
,,,,,,,,,,,,,FF,,,,,,,,0.6821,,,,,,,,,,,,,,,,,,,,,,60fda6eee038c8ca51572ade,61036f07c47011d51cdbae9c,2021-07-29_23h16.56.084,Simcolourproject_2stim_asymm_v5,2020.2.10,MacIntel,60,61025ae37ef11b136ea224fe,,,,,,,,,1306,-18.453125,-33.96484375,1,0,0,response5disk,,3,-8.72265625,-1.05078125,1,0,0,rectangle,44.80859375,23.16015625,1,0,0,response1disk_3,TRUE,6,6,"[128,93,313,110,229,321,276,220,235,89,218,223,316,2,266,1,52,223,284,158]",2.2512,11.5390625,0.625,1,0,0,rectangle,0,88,88,21,1,
,,,,,,,,,,,,,FF,,,,,,,,0.5837,,,,,,,,,,,,,,,,,,,,,,60fda6eee038c8ca51572ade,61036f07c47011d51cdbae9c,2021-07-29_23h16.56.084,Simcolourproject_2stim_asymm_v5,2020.2.10,MacIntel,60,61025ae37ef11b136ea224fe,,,,,,,,,1391,36.69140625,-17.01953125,1,0,0,response3disk,,5,-1.99609375,-11.0625,1,0,0,rectangle,-1.99609375,-11.0625,1,0,0,,,,,,,-1.99609375,-11.0625,1,0,0,,0,89,89,16,1,
,,,,,,,,,,,,,FF,,,,,,,,0.9509,,,,,,,,,,,,,,,,,,,,,,60fda6eee038c8ca51572ade,61036f07c47011d51cdbae9c,2021-07-29_23h16.56.084,Simcolourproject_2stim_asymm_v5,2020.2.10,MacIntel,60,61025ae37ef11b136ea224fe,,,,,,,,,803,-46.171875,-29.0625,1,0,0,response5disk,,2,-11.76171875,-6.82421875,1,0,0,rectangle,-11.76171875,-6.82421875,1,0,0,,,,,,,-11.76171875,-6.82421875,1,0,0,,0,90,90,22,1,
,,,,,,,,,,,,,FF,,,,,,,,0.6002,,,,,,,,,,,,,,,,,,,,,,60fda6eee038c8ca51572ade,61036f07c47011d51cdbae9c,2021-07-29_23h16.56.084,Simcolourproject_2stim_asymm_v5,2020.2.10,MacIntel,60,61025ae37ef11b136ea224fe,,,,,,,,,3941,-14.171875,-42.265625,1,0,0,response5disk,,3,3.18359375,4.625,1,0,0,rectangle,3.18359375,4.625,1,0,0,,,,,,,3.18359375,4.625,1,0,0,,0,91,91,147,1,
,,,,,,,,,,,,,FF,,,,,,,,0.7,,,,,,,,,,,,,,,,,,,,,,60fda6eee038c8ca51572ade,61036f07c47011d51cdbae9c,2021-07-29_23h16.56.084,Simcolourproject_2stim_asymm_v5,2020.2.10,MacIntel,60,61025ae37ef11b136ea224fe,,,,,,,,,2852,32.3046875,23.33203125,1,0,0,response1disk,,6,0.3984375,-4.484375,1,0,0,rectangle,38.4453125,13.91015625,1,0,0,response1disk_3,TRUE,6,1,"[128,93,313,110,229,321,276,220,235,89,218,223,316,2,266,1,52,223,284,158]",0.9619,4.921875,-1.76171875,1,0,0,rectangle,0,92,92,158,1,
,,,,,,,,,,,,,FF,,,,,,,,0.8017,,,,,,,,,,,,,,,,,,,,,,60fda6eee038c8ca51572ade,61036f07c47011d51cdbae9c,2021-07-29_23h16.56.084,Simcolourproject_2stim_asymm_v5,2020.2.10,MacIntel,60,61025ae37ef11b136ea224fe,,,,,,,,,3999,19.34375,-53.32421875,1,0,0,response3disk,,4,15.0625,-12.52734375,1,0,0,rectangle,15.0625,-12.52734375,1,0,0,,,,,,,15.0625,-12.52734375,1,0,0,,0,93,93,88,1,
,,,,,,,,,,,,,FF,,,,,,,,0.7181,,,,,,,,,,,,,,,,,,,,,,60fda6eee038c8ca51572ade,61036f07c47011d51cdbae9c,2021-07-29_23h16.56.084,Simcolourproject_2stim_asymm_v5,2020.2.10,MacIntel,60,61025ae37ef11b136ea224fe,,,,,,,,,1217,38.10546875,-36.2734375,1,0,0,response3disk,,5,6.578125,-9.46484375,1,0,0,rectangle,6.578125,-9.46484375,1,0,0,,,,,,,6.578125,-9.46484375,1,0,0,,0,94,94,75,1,
,,,,,,,,,,,,,FF,,,,,,,,0.5828,,,,,,,,,,,,,,,,,,,,,,60fda6eee038c8ca51572ade,61036f07c47011d51cdbae9c,2021-07-29_23h16.56.084,Simcolourproject_2stim_asymm_v5,2020.2.10,MacIntel,60,61025ae37ef11b136ea224fe,,,,,,,,,244,20.14453125,-43.390625,1,0,0,response3disk,,4,5.33984375,-7.80859375,1,0,0,rectangle,5.33984375,-7.80859375,1,0,0,,,,,,,5.33984375,-7.80859375,1,0,0,,0,95,95,126,1,
,,,,,,,,,,,,,FF,,,,,,,,0.7823,,,,,,,,,,,,,,,,,,,,,,60fda6eee038c8ca51572ade,61036f07c47011d51cdbae9c,2021-07-29_23h16.56.084,Simcolourproject_2stim_asymm_v5,2020.2.10,MacIntel,60,61025ae37ef11b136ea224fe,,,,,,,,,2993,-29.1875,55.61328125,1,0,0,response7disk,,0,-10.84765625,-6.328125,1,0,0,rectangle,-10.84765625,-6.328125,1,0,0,,,,,,,-10.84765625,-6.328125,1,0,0,,0,96,96,71,1,
,,,,,,,,,,,,,FF,,,,,,,,1.4341,,,,,,,,,,,,,,,,,,,,,,60fda6eee038c8ca51572ade,61036f07c47011d51cdbae9c,2021-07-29_23h16.56.084,Simcolourproject_2stim_asymm_v5,2020.2.10,MacIntel,60,61025ae37ef11b136ea224fe,,,,,,,,,1622,50.40625,-38.51953125,1,0,0,response3disk,,5,-8.7578125,5.9296875,1,0,0,rectangle,-8.7578125,5.9296875,1,0,0,,,,,,,-8.7578125,5.9296875,1,0,0,,0,97,97,138,1,
,,,,,,,,,,,,,FF,,,,,,,,0.7502,,,,,,,,,,,,,,,,,,,,,,60fda6eee038c8ca51572ade,61036f07c47011d51cdbae9c,2021-07-29_23h16.56.084,Simcolourproject_2stim_asymm_v5,2020.2.10,MacIntel,60,61025ae37ef11b136ea224fe,,,,,,,,,256,16.57421875,-51.125,1,0,0,response3disk,,4,-2.76171875,-5.46484375,1,0,0,rectangle,-2.76171875,-5.46484375,1,0,0,,,,,,,-2.76171875,-5.46484375,1,0,0,,0,98,98,53,1,
,,,,,,,,,,,,,FF,,,,,,,,0.6451,,,,,,,,,,,,,,,,,,,,,,60fda6eee038c8ca51572ade,61036f07c47011d51cdbae9c,2021-07-29_23h16.56.084,Simcolourproject_2stim_asymm_v5,2020.2.10,MacIntel,60,61025ae37ef11b136ea224fe,,,,,,,,,1832,17.31640625,-49.60546875,1,0,0,response3disk,,4,-2.41796875,-2.9296875,1,0,0,rectangle,-2.41796875,-2.9296875,1,0,0,,,,,,,-2.41796875,-2.9296875,1,0,0,,0,99,99,31,1,
,,,,,,,,,,,,,FF,,,,,,,,0.5495,,,,,,,,,,,,,,,,,,,,,,60fda6eee038c8ca51572ade,61036f07c47011d51cdbae9c,2021-07-29_23h16.56.084,Simcolourproject_2stim_asymm_v5,2020.2.10,MacIntel,60,61025ae37ef11b136ea224fe,,,,,,,,,3388,-16.3203125,-35.12890625,1,0,0,response5disk,,3,-1.71875,3.65625,1,0,0,rectangle,-1.71875,3.65625,1,0,0,,,,,,,-1.71875,3.65625,1,0,0,,0,100,100,135,1,
,,,,,,,,,,,,,FF,,,,,,,,0.7502,,,,,,,,,,,,,,,,,,,,,,60fda6eee038c8ca51572ade,61036f07c47011d51cdbae9c,2021-07-29_23h16.56.084,Simcolourproject_2stim_asymm_v5,2020.2.10,MacIntel,60,61025ae37ef11b136ea224fe,,,,,,,,,3637,-36.16796875,-22.3984375,1,0,0,response5disk,,2,-2.63671875,3.27734375,1,0,0,rectangle,-2.63671875,3.27734375,1,0,0,,,,,,,-2.63671875,3.27734375,1,0,0,,0,101,101,119,1,
,,,,,,,,,,,,,FF,,,,,,,,0.9657,,,,,,,,,,,,,,,,,,,,,,60fda6eee038c8ca51572ade,61036f07c47011d51cdbae9c,2021-07-29_23h16.56.084,Simcolourproject_2stim_asymm_v5,2020.2.10,MacIntel,60,61025ae37ef11b136ea224fe,,,,,,,,,370,23.53515625,31.87109375,1,0,0,response1disk,,7,7.10546875,-0.48828125,1,0,0,rectangle,7.10546875,-0.48828125,1,0,0,,,,,,,7.10546875,-0.48828125,1,0,0,,0,102,102,146,1,
,,,,,,,,,,,,,FF,,,,,,,,0.4669,,,,,,,,,,,,,,,,,,,,,,60fda6eee038c8ca51572ade,61036f07c47011d51cdbae9c,2021-07-29_23h16.56.084,Simcolourproject_2stim_asymm_v5,2020.2.10,MacIntel,60,61025ae37ef11b136ea224fe,,,,,,,,,1821,54.9296875,9.5234375,1,0,0,response1disk,,6,15.12890625,-11.72265625,1,0,0,rectangle,15.12890625,-11.72265625,1,0,0,,,,,,,15.12890625,-11.72265625,1,0,0,,0,103,103,77,1,
,,,,,,,,,,,,,FF,,,,,,,,0.4555,,,,,,,,,,,,,,,,,,,,,,60fda6eee038c8ca51572ade,61036f07c47011d51cdbae9c,2021-07-29_23h16.56.084,Simcolourproject_2stim_asymm_v5,2020.2.10,MacIntel,60,61025ae37ef11b136ea224fe,,,,,,,,,3056,42.87109375,-29.90625,1,0,0,response3disk,,5,6.6484375,-1.96875,1,0,0,rectangle,6.6484375,-1.96875,1,0,0,,,,,,,6.6484375,-1.96875,1,0,0,,0,104,104,117,1,
,,,,,,,,,,,,,FF,,,,,,,,0.5326,,,,,,,,,,,,,,,,,,,,,,60fda6eee038c8ca51572ade,61036f07c47011d51cdbae9c,2021-07-29_23h16.56.084,Simcolourproject_2stim_asymm_v5,2020.2.10,MacIntel,60,61025ae37ef11b136ea224fe,,,,,,,,,2748,25.20703125,31.48046875,1,0,0,response1disk,,7,14.015625,-0.18359375,1,0,0,rectangle,14.015625,-0.18359375,1,0,0,,,,,,,14.015625,-0.18359375,1,0,0,,0,105,105,128,1,
,,,,,,,,,,,,,FF,,,,,,,,0.835,,,,,,,,,,,,,,,,,,,,,,60fda6eee038c8ca51572ade,61036f07c47011d51cdbae9c,2021-07-29_23h16.56.084,Simcolourproject_2stim_asymm_v5,2020.2.10,MacIntel,60,61025ae37ef11b136ea224fe,,,,,,,,,2604,40.125,17.87109375,1,0,0,response1disk,,6,5.0390625,-2.81640625,1,0,0,rectangle,5.0390625,-2.81640625,1,0,0,,,,,,,5.0390625,-2.81640625,1,0,0,,0,106,106,107,1,
,,,,,,,,,,,,,FF,,,,,,,,0.8174,,,,,,,,,,,,,,,,,,,,,,60fda6eee038c8ca51572ade,61036f07c47011d51cdbae9c,2021-07-29_23h16.56.084,Simcolourproject_2stim_asymm_v5,2020.2.10,MacIntel,60,61025ae37ef11b136ea224fe,,,,,,,,,3513,27.58203125,-35.32421875,1,0,0,response3disk,,4,6.265625,-9.09375,1,0,0,rectangle,6.265625,-9.09375,1,0,0,,,,,,,6.265625,-9.09375,1,0,0,,0,107,107,79,1,
,,,,,,,,,,,,,FF,,,,,,,,0.4499,,,,,,,,,,,,,,,,,,,,,,60fda6eee038c8ca51572ade,61036f07c47011d51cdbae9c,2021-07-29_23h16.56.084,Simcolourproject_2stim_asymm_v5,2020.2.10,MacIntel,60,61025ae37ef11b136ea224fe,,,,,,,,,3585,18.32421875,-32.46484375,1,0,0,response3disk,,4,13.0859375,5.0625,1,0,0,rectangle,13.0859375,5.0625,1,0,0,,,,,,,13.0859375,5.0625,1,0,0,,0,108,108,127,1,
,,,,,,,,,,,,,FF,,,,,,,,0.7184,,,,,,,,,,,,,,,,,,,,,,60fda6eee038c8ca51572ade,61036f07c47011d51cdbae9c,2021-07-29_23h16.56.084,Simcolourproject_2stim_asymm_v5,2020.2.10,MacIntel,60,61025ae37ef11b136ea224fe,,,,,,,,,3260,50.20703125,-21.3515625,1,0,0,response3disk,,5,4.6484375,-8.88671875,1,0,0,rectangle,43.1953125,20.6328125,1,0,0,response1disk_3,TRUE,6,6,"[128,93,313,110,229,321,276,220,235,89,218,223,316,2,266,1,52,223,284,158]",1.7842,15.625,-1.328125,1,0,0,rectangle,0,109,109,110,1,
,,,,,,,,,,,,,FF,,,,,,,,0.7661,,,,,,,,,,,,,,,,,,,,,,60fda6eee038c8ca51572ade,61036f07c47011d51cdbae9c,2021-07-29_23h16.56.084,Simcolourproject_2stim_asymm_v5,2020.2.10,MacIntel,60,61025ae37ef11b136ea224fe,,,,,,,,,2783,41.578125,-39.67578125,1,0,0,response3disk,,5,13.1015625,-9.609375,1,0,0,rectangle,13.1015625,-9.609375,1,0,0,,,,,,,13.1015625,-9.609375,1,0,0,,0,110,110,68,1,
,,,,,,,,,,,,,FF,,,,,,,,0.5555,,,,,,,,,,,,,,,,,,,,,,60fda6eee038c8ca51572ade,61036f07c47011d51cdbae9c,2021-07-29_23h16.56.084,Simcolourproject_2stim_asymm_v5,2020.2.10,MacIntel,60,61025ae37ef11b136ea224fe,,,,,,,,,1790,16.02734375,33.20703125,1,0,0,response1disk,,7,8.26953125,-7.76171875,1,0,0,rectangle,8.26953125,-7.76171875,1,0,0,,,,,,,8.26953125,-7.76171875,1,0,0,,0,111,111,35,1,
,,,,,,,,,,,,,FF,,,,,,,,0.7495,,,,,,,,,,,,,,,,,,,,,,60fda6eee038c8ca51572ade,61036f07c47011d51cdbae9c,2021-07-29_23h16.56.084,Simcolourproject_2stim_asymm_v5,2020.2.10,MacIntel,60,61025ae37ef11b136ea224fe,,,,,,,,,544,25.875,-42.171875,1,0,0,response3disk,,4,0.73828125,-0.73046875,1,0,0,rectangle,0.73828125,-0.73046875,1,0,0,,,,,,,0.73828125,-0.73046875,1,0,0,,0,112,112,41,1,
,,,,,,,,,,,,,FF,,,,,,,,0.7327,,,,,,,,,,,,,,,,,,,,,,60fda6eee038c8ca51572ade,61036f07c47011d51cdbae9c,2021-07-29_23h16.56.084,Simcolourproject_2stim_asymm_v5,2020.2.10,MacIntel,60,61025ae37ef11b136ea224fe,,,,,,,,,1701,26.45703125,43.24609375,1,0,0,response1disk,,7,11.6015625,2.84375,1,0,0,rectangle,11.6015625,2.84375,1,0,0,,,,,,,11.6015625,2.84375,1,0,0,,0,113,113,28,1,
,,,,,,,,,,,,,FF,,,,,,,,0.9359,,,,,,,,,,,,,,,,,,,,,,60fda6eee038c8ca51572ade,61036f07c47011d51cdbae9c,2021-07-29_23h16.56.084,Simcolourproject_2stim_asymm_v5,2020.2.10,MacIntel,60,61025ae37ef11b136ea224fe,,,,,,,,,2356,-19.6953125,-43.62890625,1,0,0,response5disk,,3,-6.671875,-8.515625,1,0,0,rectangle,-6.671875,-8.515625,1,0,0,,,,,,,-6.671875,-8.515625,1,0,0,,0,114,114,13,1,
,,,,,,,,,,,,,FF,,,,,,,,1.3338,,,,,,,,,,,,,,,,,,,,,,60fda6eee038c8ca51572ade,61036f07c47011d51cdbae9c,2021-07-29_23h16.56.084,Simcolourproject_2stim_asymm_v5,2020.2.10,MacIntel,60,61025ae37ef11b136ea224fe,,,,,,,,,671,24.8671875,-32.33203125,1,0,0,response3disk,,4,9.4140625,-7.6015625,1,0,0,rectangle,9.4140625,-7.6015625,1,0,0,,,,,,,9.4140625,-7.6015625,1,0,0,,0,115,115,43,1,
,,,,,,,,,,,,,FF,,,,,,,,1.2378,,,,,,,,,,,,,,,,,,,,,,60fda6eee038c8ca51572ade,61036f07c47011d51cdbae9c,2021-07-29_23h16.56.084,Simcolourproject_2stim_asymm_v5,2020.2.10,MacIntel,60,61025ae37ef11b136ea224fe,,,,,,,,,2671,-30.234375,-45.515625,1,0,0,response5disk,,3,-8.0078125,-1.96484375,1,0,0,rectangle,-8.0078125,-1.96484375,1,0,0,,,,,,,-8.0078125,-1.96484375,1,0,0,,0,116,116,5,1,
,,,,,,,,,,,,,FF,,,,,,,,0.7376,,,,,,,,,,,,,,,,,,,,,,60fda6eee038c8ca51572ade,61036f07c47011d51cdbae9c,2021-07-29_23h16.56.084,Simcolourproject_2stim_asymm_v5,2020.2.10,MacIntel,60,61025ae37ef11b136ea224fe,,,,,,,,,10,50.703125,-39.84765625,1,0,0,response3disk,,5,1.984375,-3.6328125,1,0,0,rectangle,1.984375,-3.6328125,1,0,0,,,,,,,1.984375,-3.6328125,1,0,0,,0,117,117,11,1,
,,,,,,,,,,,,,FF,,,,,,,,0.5999,,,,,,,,,,,,,,,,,,,,,,60fda6eee038c8ca51572ade,61036f07c47011d51cdbae9c,2021-07-29_23h16.56.084,Simcolourproject_2stim_asymm_v5,2020.2.10,MacIntel,60,61025ae37ef11b136ea224fe,,,,,,,,,3113,20.33203125,-42.71875,1,0,0,response3disk,,4,8.87890625,-3.36328125,1,0,0,rectangle,8.87890625,-3.36328125,1,0,0,,,,,,,8.87890625,-3.36328125,1,0,0,,0,118,118,106,1,
,,,,,,,,,,,,,FF,,,,,,,,1.2996,,,,,,,,,,,,,,,,,,,,,,60fda6eee038c8ca51572ade,61036f07c47011d51cdbae9c,2021-07-29_23h16.56.084,Simcolourproject_2stim_asymm_v5,2020.2.10,MacIntel,60,61025ae37ef11b136ea224fe,,,,,,,,,1131,-23.796875,39.8203125,1,0,0,response7disk,,0,-16.33984375,2.67578125,1,0,0,rectangle,-16.33984375,2.67578125,1,0,0,,,,,,,-16.33984375,2.67578125,1,0,0,,0,119,119,69,1,
,,,,,,,,,,,,,FF,,,,,,,,0.6843,,,,,,,,,,,,,,,,,,,,,,60fda6eee038c8ca51572ade,61036f07c47011d51cdbae9c,2021-07-29_23h16.56.084,Simcolourproject_2stim_asymm_v5,2020.2.10,MacIntel,60,61025ae37ef11b136ea224fe,,,,,,,,,4011,24.515625,35.15625,1,0,0,response1disk,,7,7.4609375,3.48046875,1,0,0,rectangle,7.4609375,3.48046875,1,0,0,,,,,,,7.4609375,3.48046875,1,0,0,,0,120,120,23,1,
,,,,,,,,,,,,,FF,,,,,,,,0.5493,,,,,,,,,,,,,,,,,,,,,,60fda6eee038c8ca51572ade,61036f07c47011d51cdbae9c,2021-07-29_23h16.56.084,Simcolourproject_2stim_asymm_v5,2020.2.10,MacIntel,60,61025ae37ef11b136ea224fe,,,,,,,,,1001,36.5625,10.34765625,1,0,0,response1disk,,6,8.375,-6.6015625,1,0,0,rectangle,8.375,-6.6015625,1,0,0,,,,,,,8.375,-6.6015625,1,0,0,,0,121,121,123,1,
,,,,,,,,,,,,,FF,,,,,,,,0.4664,,,,,,,,,,,,,,,,,,,,,,60fda6eee038c8ca51572ade,61036f07c47011d51cdbae9c,2021-07-29_23h16.56.084,Simcolourproject_2stim_asymm_v5,2020.2.10,MacIntel,60,61025ae37ef11b136ea224fe,,,,,,,,,1012,38.72265625,15.984375,1,0,0,response1disk,,6,8.1953125,-12.1171875,1,0,0,rectangle,8.1953125,-12.1171875,1,0,0,,,,,,,8.1953125,-12.1171875,1,0,0,,0,122,122,141,1,
,,,,,,,,,,,,,FF,,,,,,,,0.6675,,,,,,,,,,,,,,,,,,,,,,60fda6eee038c8ca51572ade,61036f07c47011d51cdbae9c,2021-07-29_23h16.56.084,Simcolourproject_2stim_asymm_v5,2020.2.10,MacIntel,60,61025ae37ef11b136ea224fe,,,,,,,,,419,42.2578125,-24.859375,1,0,0,response3disk,,5,14.46875,-6.9296875,1,0,0,rectangle,14.46875,-6.9296875,1,0,0,,,,,,,14.46875,-6.9296875,1,0,0,,0,123,123,154,1,
,,,,,,,,,,,,,FF,,,,,,,,0.7997,,,,,,,,,,,,,,,,,,,,,,60fda6eee038c8ca51572ade,61036f07c47011d51cdbae9c,2021-07-29_23h16.56.084,Simcolourproject_2stim_asymm_v5,2020.2.10,MacIntel,60,61025ae37ef11b136ea224fe,,,,,,,,,3147,-26.07421875,-41.0859375,1,0,0,response5disk,,3,-11.41015625,-0.1796875,1,0,0,rectangle,-11.41015625,-0.1796875,1,0,0,,,,,,,-11.41015625,-0.1796875,1,0,0,,0,124,124,51,1,
,,,,,,,,,,,,,FF,,,,,,,,0.5356,,,,,,,,,,,,,,,,,,,,,,60fda6eee038c8ca51572ade,61036f07c47011d51cdbae9c,2021-07-29_23h16.56.084,Simcolourproject_2stim_asymm_v5,2020.2.10,MacIntel,60,61025ae37ef11b136ea224fe,,,,,,,,,4220,-32.92578125,-17.21484375,1,0,0,response5disk,,2,-10.2890625,2.515625,1,0,0,rectangle,-10.2890625,2.515625,1,0,0,,,,,,,-10.2890625,2.515625,1,0,0,,0,125,125,60,1,
,,,,,,,,,,,,,FF,,,,,,,,0.4988,,,,,,,,,,,,,,,,,,,,,,60fda6eee038c8ca51572ade,61036f07c47011d51cdbae9c,2021-07-29_23h16.56.084,Simcolourproject_2stim_asymm_v5,2020.2.10,MacIntel,60,61025ae37ef11b136ea224fe,,,,,,,,,3251,-30.08203125,-24.1328125,1,0,0,response5disk,,2,-9.71875,-7.05078125,1,0,0,rectangle,-9.71875,-7.05078125,1,0,0,,,,,,,-9.71875,-7.05078125,1,0,0,,0,126,126,120,1,
,,,,,,,,,,,,,FF,,,,,,,,1.0172,,,,,,,,,,,,,,,,,,,,,,60fda6eee038c8ca51572ade,61036f07c47011d51cdbae9c,2021-07-29_23h16.56.084,Simcolourproject_2stim_asymm_v5,2020.2.10,MacIntel,60,61025ae37ef11b136ea224fe,,,,,,,,,2598,22.96484375,30.19140625,1,0,0,response1disk,,7,22.25,5.37890625,1,0,0,rectangle,43.02734375,12.58203125,1,0,0,response1disk_3,TRUE,6,1,"[128,93,313,110,229,321,276,220,235,89,218,223,316,2,266,1,52,223,284,158]",1.036,6.609375,6.3671875,1,0,0,rectangle,0,127,127,85,1,
,,,,,,,,,,,,,FF,,,,,,,,0.6264,,,,,,,,,,,,,,,,,,,,,,60fda6eee038c8ca51572ade,61036f07c47011d51cdbae9c,2021-07-29_23h16.56.084,Simcolourproject_2stim_asymm_v5,2020.2.10,MacIntel,60,61025ae37ef11b136ea224fe,,,,,,,,,3017,15.3984375,29.6875,1,0,0,response1disk,,7,5.12109375,6.10546875,1,0,0,rectangle,5.12109375,6.10546875,1,0,0,,,,,,,5.12109375,6.10546875,1,0,0,,0,128,128,39,1,
,,,,,,,,,,,,,FF,,,,,,,,0.6001,,,,,,,,,,,,,,,,,,,,,,60fda6eee038c8ca51572ade,61036f07c47011d51cdbae9c,2021-07-29_23h16.56.084,Simcolourproject_2stim_asymm_v5,2020.2.10,MacIntel,60,61025ae37ef11b136ea224fe,,,,,,,,,3641,42.99609375,-25.65234375,1,0,0,response3disk,,5,2.9609375,-4.98046875,1,0,0,rectangle,2.9609375,-4.98046875,1,0,0,,,,,,,2.9609375,-4.98046875,1,0,0,,0,129,129,8,1,
,,,,,,,,,,,,,FF,,,,,,,,0.5664,,,,,,,,,,,,,,,,,,,,,,60fda6eee038c8ca51572ade,61036f07c47011d51cdbae9c,2021-07-29_23h16.56.084,Simcolourproject_2stim_asymm_v5,2020.2.10,MacIntel,60,61025ae37ef11b136ea224fe,,,,,,,,,608,27.91796875,-41.10546875,1,0,0,response3disk,,4,-3.93359375,-3.8515625,1,0,0,rectangle,-3.93359375,-3.8515625,1,0,0,,,,,,,-3.93359375,-3.8515625,1,0,0,,0,130,130,132,1,
,,,,,,,,,,,,,FF,,,,,,,,0.5332,,,,,,,,,,,,,,,,,,,,,,60fda6eee038c8ca51572ade,61036f07c47011d51cdbae9c,2021-07-29_23h16.56.084,Simcolourproject_2stim_asymm_v5,2020.2.10,MacIntel,60,61025ae37ef11b136ea224fe,,,,,,,,,1393,21.28515625,-34.31640625,1,0,0,response3disk,,4,2.88671875,2.30859375,1,0,0,rectangle,2.88671875,2.30859375,1,0,0,,,,,,,2.88671875,2.30859375,1,0,0,,0,131,131,78,1,
,,,,,,,,,,,,,FF,,,,,,,,0.7658,,,,,,,,,,,,,,,,,,,,,,60fda6eee038c8ca51572ade,61036f07c47011d51cdbae9c,2021-07-29_23h16.56.084,Simcolourproject_2stim_asymm_v5,2020.2.10,MacIntel,60,61025ae37ef11b136ea224fe,,,,,,,,,3579,16.9375,-27.58984375,1,0,0,response3disk,,4,-0.171875,-6.6015625,1,0,0,rectangle,-0.171875,-6.6015625,1,0,0,,,,,,,-0.171875,-6.6015625,1,0,0,,0,132,132,57,1,
,,,,,,,,,,,,,FF,,,,,,,,0.5839,,,,,,,,,,,,,,,,,,,,,,60fda6eee038c8ca51572ade,61036f07c47011d51cdbae9c,2021-07-29_23h16.56.084,Simcolourproject_2stim_asymm_v5,2020.2.10,MacIntel,60,61025ae37ef11b136ea224fe,,,,,,,,,3704,-10.734375,-28.01171875,1,0,0,response5disk,,3,-4.00390625,-8.1328125,1,0,0,rectangle,-4.00390625,-8.1328125,1,0,0,,,,,,,-4.00390625,-8.1328125,1,0,0,,0,133,133,116,1,
,,,,,,,,,,,,,FF,,,,,,,,0.5423,,,,,,,,,,,,,,,,,,,,,,60fda6eee038c8ca51572ade,61036f07c47011d51cdbae9c,2021-07-29_23h16.56.084,Simcolourproject_2stim_asymm_v5,2020.2.10,MacIntel,60,61025ae37ef11b136ea224fe,,,,,,,,,2297,-18.0546875,-26.32421875,1,0,0,response5disk,,3,-9.27734375,-4.28125,1,0,0,rectangle,-9.27734375,-4.28125,1,0,0,,,,,,,-9.27734375,-4.28125,1,0,0,,0,134,134,33,1,
,,,,,,,,,,,,,FF,,,,,,,,0.5308,,,,,,,,,,,,,,,,,,,,,,60fda6eee038c8ca51572ade,61036f07c47011d51cdbae9c,2021-07-29_23h16.56.084,Simcolourproject_2stim_asymm_v5,2020.2.10,MacIntel,60,61025ae37ef11b136ea224fe,,,,,,,,,1348,-18.51953125,-28.6640625,1,0,0,response5disk,,3,3.6640625,-6.99609375,1,0,0,rectangle,3.6640625,-6.99609375,1,0,0,,,,,,,3.6640625,-6.99609375,1,0,0,,0,135,135,153,1,
,,,,,,,,,,,,,FF,,,,,,,,0.8354,,,,,,,,,,,,,,,,,,,,,,60fda6eee038c8ca51572ade,61036f07c47011d51cdbae9c,2021-07-29_23h16.56.084,Simcolourproject_2stim_asymm_v5,2020.2.10,MacIntel,60,61025ae37ef11b136ea224fe,,,,,,,,,231,15.3125,24.19921875,1,0,0,response1disk,,7,5.54296875,-5.03515625,1,0,0,rectangle,5.54296875,-5.03515625,1,0,0,,,,,,,5.54296875,-5.03515625,1,0,0,,0,136,136,103,1,
,,,,,,,,,,,,,FF,,,,,,,,1.1169,,,,,,,,,,,,,,,,,,,,,,60fda6eee038c8ca51572ade,61036f07c47011d51cdbae9c,2021-07-29_23h16.56.084,Simcolourproject_2stim_asymm_v5,2020.2.10,MacIntel,60,61025ae37ef11b136ea224fe,,,,,,,,,3224,29.6953125,17.05859375,1,0,0,response1disk,,6,7.90625,-2.13671875,1,0,0,rectangle,7.90625,-2.13671875,1,0,0,,,,,,,7.90625,-2.13671875,1,0,0,,0,137,137,131,1,
,,,,,,,,,,,,,FF,,,,,,,,0.5338,,,,,,,,,,,,,,,,,,,,,,60fda6eee038c8ca51572ade,61036f07c47011d51cdbae9c,2021-07-29_23h16.56.084,Simcolourproject_2stim_asymm_v5,2020.2.10,MacIntel,60,61025ae37ef11b136ea224fe,,,,,,,,,3756,37.74609375,-28.1015625,1,0,0,response3disk,,5,9.9296875,-6.875,1,0,0,rectangle,9.9296875,-6.875,1,0,0,,,,,,,9.9296875,-6.875,1,0,0,,0,138,138,4,1,
,,,,,,,,,,,,,FF,,,,,,,,0.7501,,,,,,,,,,,,,,,,,,,,,,60fda6eee038c8ca51572ade,61036f07c47011d51cdbae9c,2021-07-29_23h16.56.084,Simcolourproject_2stim_asymm_v5,2020.2.10,MacIntel,60,61025ae37ef11b136ea224fe,,,,,,,,,2532,22.1640625,-32.54296875,1,0,0,response3disk,,4,4.03125,-9.41796875,1,0,0,rectangle,4.03125,-9.41796875,1,0,0,,,,,,,4.03125,-9.41796875,1,0,0,,0,139,139,96,1,
,,,,,,,,,,,,,FF,,,,,,,,1.3166,,,,,,,,,,,,,,,,,,,,,,60fda6eee038c8ca51572ade,61036f07c47011d51cdbae9c,2021-07-29_23h16.56.084,Simcolourproject_2stim_asymm_v5,2020.2.10,MacIntel,60,61025ae37ef11b136ea224fe,,,,,,,,,485,-16.9609375,-40.75,1,0,0,response5disk,,3,-6.8671875,-7.11328125,1,0,0,rectangle,-6.8671875,-7.11328125,1,0,0,,,,,,,-6.8671875,-7.11328125,1,0,0,,0,140,140,133,1,
,,,,,,,,,,,,,FF,,,,,,,,0.6659,,,,,,,,,,,,,,,,,,,,,,60fda6eee038c8ca51572ade,61036f07c47011d51cdbae9c,2021-07-29_23h16.56.084,Simcolourproject_2stim_asymm_v5,2020.2.10,MacIntel,60,61025ae37ef11b136ea224fe,,,,,,,,,1908,45.3671875,-37.16015625,1,0,0,response3disk,,5,2.8984375,-4.046875,1,0,0,rectangle,2.8984375,-4.046875,1,0,0,,,,,,,2.8984375,-4.046875,1,0,0,,0,141,141,32,1,
,,,,,,,,,,,,,FF,,,,,,,,0.8996,,,,,,,,,,,,,,,,,,,,,,60fda6eee038c8ca51572ade,61036f07c47011d51cdbae9c,2021-07-29_23h16.56.084,Simcolourproject_2stim_asymm_v5,2020.2.10,MacIntel,60,61025ae37ef11b136ea224fe,,,,,,,,,2637,29.953125,-50.08984375,1,0,0,response3disk,,4,7.76171875,-7.50390625,1,0,0,rectangle,7.76171875,-7.50390625,1,0,0,,,,,,,7.76171875,-7.50390625,1,0,0,,0,142,142,59,1,
,,,,,,,,,,,,,FF,,,,,,,,0.8673,,,,,,,,,,,,,,,,,,,,,,60fda6eee038c8ca51572ade,61036f07c47011d51cdbae9c,2021-07-29_23h16.56.084,Simcolourproject_2stim_asymm_v5,2020.2.10,MacIntel,60,61025ae37ef11b136ea224fe,,,,,,,,,395,15.4921875,-32.1484375,1,0,0,response3disk,,4,12.8125,-8.60546875,1,0,0,rectangle,12.8125,-8.60546875,1,0,0,,,,,,,12.8125,-8.60546875,1,0,0,,0,143,143,70,1,
,,,,,,,,,,,,,FF,,,,,,,,1.3822,,,,,,,,,,,,,,,,,,,,,,60fda6eee038c8ca51572ade,61036f07c47011d51cdbae9c,2021-07-29_23h16.56.084,Simcolourproject_2stim_asymm_v5,2020.2.10,MacIntel,60,61025ae37ef11b136ea224fe,,,,,,,,,4181,-52.38671875,-24.34375,1,0,0,response5disk,,2,-7.71484375,-4.8671875,1,0,0,rectangle,-7.71484375,-4.8671875,1,0,0,,,,,,,-7.71484375,-4.8671875,1,0,0,,0,144,144,145,1,
,,,,,,,,,,,,,FF,,,,,,,,1.567,,,,,,,,,,,,,,,,,,,,,,60fda6eee038c8ca51572ade,61036f07c47011d51cdbae9c,2021-07-29_23h16.56.084,Simcolourproject_2stim_asymm_v5,2020.2.10,MacIntel,60,61025ae37ef11b136ea224fe,,,,,,,,,3048,-31.8125,-21.61328125,1,0,0,response5disk,,2,-5.671875,-1.8984375,1,0,0,rectangle,-5.671875,-1.8984375,1,0,0,,,,,,,-5.671875,-1.8984375,1,0,0,,0,145,145,104,1,
,,,,,,,,,,,,,FF,,,,,,,,0.6184,,,,,,,,,,,,,,,,,,,,,,60fda6eee038c8ca51572ade,61036f07c47011d51cdbae9c,2021-07-29_23h16.56.084,Simcolourproject_2stim_asymm_v5,2020.2.10,MacIntel,60,61025ae37ef11b136ea224fe,,,,,,,,,1365,-20.63671875,-41.62890625,1,0,0,response5disk,,3,0.41796875,-7.76171875,1,0,0,rectangle,0.41796875,-7.76171875,1,0,0,,,,,,,0.41796875,-7.76171875,1,0,0,,0,146,146,148,1,
,,,,,,,,,,,,,FF,,,,,,,,0.7495,,,,,,,,,,,,,,,,,,,,,,60fda6eee038c8ca51572ade,61036f07c47011d51cdbae9c,2021-07-29_23h16.56.084,Simcolourproject_2stim_asymm_v5,2020.2.10,MacIntel,60,61025ae37ef11b136ea224fe,,,,,,,,,1050,-23.1796875,55.23046875,1,0,0,response7disk,,0,-13.2109375,-9.40234375,1,0,0,rectangle,-13.2109375,-9.40234375,1,0,0,,,,,,,-13.2109375,-9.40234375,1,0,0,,0,147,147,125,1,
,,,,,,,,,,,,,FF,,,,,,,,1.0828,,,,,,,,,,,,,,,,,,,,,,60fda6eee038c8ca51572ade,61036f07c47011d51cdbae9c,2021-07-29_23h16.56.084,Simcolourproject_2stim_asymm_v5,2020.2.10,MacIntel,60,61025ae37ef11b136ea224fe,,,,,,,,,2188,46.0546875,-19.0703125,1,0,0,response3disk,,5,6.0859375,-6.484375,1,0,0,rectangle,6.0859375,-6.484375,1,0,0,,,,,,,6.0859375,-6.484375,1,0,0,,0,148,148,42,1,
,,,,,,,,,,,,,FF,,,,,,,,0.5143,,,,,,,,,,,,,,,,,,,,,,60fda6eee038c8ca51572ade,61036f07c47011d51cdbae9c,2021-07-29_23h16.56.084,Simcolourproject_2stim_asymm_v5,2020.2.10,MacIntel,60,61025ae37ef11b136ea224fe,,,,,,,,,889,-11.78125,-54.5078125,1,0,0,response5disk,,3,6.125,-14.06640625,1,0,0,rectangle,6.125,-14.06640625,1,0,0,,,,,,,6.125,-14.06640625,1,0,0,,0,149,149,2,1,
,,,,,,,,,,,,,FF,,,,,,,,0.4834,,,,,,,,,,,,,,,,,,,,,,60fda6eee038c8ca51572ade,61036f07c47011d51cdbae9c,2021-07-29_23h16.56.084,Simcolourproject_2stim_asymm_v5,2020.2.10,MacIntel,60,61025ae37ef11b136ea224fe,,,,,,,,,489,35.1328125,-25.43359375,1,0,0,response3disk,,5,8.12109375,11.05859375,1,0,0,rectangle,8.12109375,11.05859375,1,0,0,,,,,,,8.12109375,11.05859375,1,0,0,,0,150,150,44,1,
,,,,,,,,,,,,,FF,,,,,,,,0.4681,,,,,,,,,,,,,,,,,,,,,,60fda6eee038c8ca51572ade,61036f07c47011d51cdbae9c,2021-07-29_23h16.56.084,Simcolourproject_2stim_asymm_v5,2020.2.10,MacIntel,60,61025ae37ef11b136ea224fe,,,,,,,,,940,12.06640625,30.5390625,1,0,0,response1disk,,7,6.49609375,3.0703125,1,0,0,rectangle,6.49609375,3.0703125,1,0,0,,,,,,,6.49609375,3.0703125,1,0,0,,0,151,151,15,1,
,,,,,,,,,,,,,FF,,,,,,,,0.5007,,,,,,,,,,,,,,,,,,,,,,60fda6eee038c8ca51572ade,61036f07c47011d51cdbae9c,2021-07-29_23h16.56.084,Simcolourproject_2stim_asymm_v5,2020.2.10,MacIntel,60,61025ae37ef11b136ea224fe,,,,,,,,,2458,60.3203125,-25.95703125,1,0,0,response3disk,,5,3.1171875,-1.9140625,1,0,0,rectangle,3.1171875,-1.9140625,1,0,0,,,,,,,3.1171875,-1.9140625,1,0,0,,0,152,152,55,1,
,,,,,,,,,,,,,FF,,,,,,,,0.566,,,,,,,,,,,,,,,,,,,,,,60fda6eee038c8ca51572ade,61036f07c47011d51cdbae9c,2021-07-29_23h16.56.084,Simcolourproject_2stim_asymm_v5,2020.2.10,MacIntel,60,61025ae37ef11b136ea224fe,,,,,,,,,3264,-14.765625,-27.35546875,1,0,0,response5disk,,3,-2,-3.61328125,1,0,0,rectangle,-2,-3.61328125,1,0,0,,,,,,,-2,-3.61328125,1,0,0,,0,153,153,83,1,
,,,,,,,,,,,,,FF,,,,,,,,0.5505,,,,,,,,,,,,,,,,,,,,,,60fda6eee038c8ca51572ade,61036f07c47011d51cdbae9c,2021-07-29_23h16.56.084,Simcolourproject_2stim_asymm_v5,2020.2.10,MacIntel,60,61025ae37ef11b136ea224fe,,,,,,,,,2022,45.12890625,-14.75,1,0,0,response3disk,,5,12.98046875,-4.62890625,1,0,0,rectangle,12.98046875,-4.62890625,1,0,0,,,,,,,12.98046875,-4.62890625,1,0,0,,0,154,154,34,1,
,,,,,,,,,,,,,FF,,,,,,,,0.416,,,,,,,,,,,,,,,,,,,,,,60fda6eee038c8ca51572ade,61036f07c47011d51cdbae9c,2021-07-29_23h16.56.084,Simcolourproject_2stim_asymm_v5,2020.2.10,MacIntel,60,61025ae37ef11b136ea224fe,,,,,,,,,627,29.93359375,15.734375,1,0,0,response1disk,,6,7.14453125,-9.86328125,1,0,0,rectangle,7.14453125,-9.86328125,1,0,0,,,,,,,7.14453125,-9.86328125,1,0,0,,0,155,155,149,1,
,,,,,,,,,,,,,FF,,,,,,,,0.5829,,,,,,,,,,,,,,,,,,,,,,60fda6eee038c8ca51572ade,61036f07c47011d51cdbae9c,2021-07-29_23h16.56.084,Simcolourproject_2stim_asymm_v5,2020.2.10,MacIntel,60,61025ae37ef11b136ea224fe,,,,,,,,,4341,17.53125,49.8671875,1,0,0,response1disk,,7,10.02734375,7.53515625,1,0,0,rectangle,10.02734375,7.53515625,1,0,0,,,,,,,10.02734375,7.53515625,1,0,0,,0,156,156,112,1,
,,,,,,,,,,,,,FF,,,,,,,,0.585,,,,,,,,,,,,,,,,,,,,,,60fda6eee038c8ca51572ade,61036f07c47011d51cdbae9c,2021-07-29_23h16.56.084,Simcolourproject_2stim_asymm_v5,2020.2.10,MacIntel,60,61025ae37ef11b136ea224fe,,,,,,,,,3050,-18.05859375,-37.28515625,1,0,0,response5disk,,3,-0.140625,0.38671875,1,0,0,rectangle,25.7578125,-33.5390625,1,0,0,response3disk_3,TRUE,4,2,"[128,93,313,110,229,321,276,220,235,89,218,223,316,2,266,1,52,223,284,158]",0.5661,5.1484375,-8.37890625,1,0,0,rectangle,0,157,157,18,1,
,,,,,,,,,,,,,FF,,,,,,,,0.5503,,,,,,,,,,,,,,,,,,,,,,60fda6eee038c8ca51572ade,61036f07c47011d51cdbae9c,2021-07-29_23h16.56.084,Simcolourproject_2stim_asymm_v5,2020.2.10,MacIntel,60,61025ae37ef11b136ea224fe,,,,,,,,,2632,32.58203125,-22.54296875,1,0,0,response3disk,,5,8.765625,-10.23828125,1,0,0,rectangle,8.765625,-10.23828125,1,0,0,,,,,,,8.765625,-10.23828125,1,0,0,,0,158,158,24,1,
,,,,,,,,,,,,,FF,,,,,,,,0.4841,,,,,,,,,,,,,,,,,,,,,,60fda6eee038c8ca51572ade,61036f07c47011d51cdbae9c,2021-07-29_23h16.56.084,Simcolourproject_2stim_asymm_v5,2020.2.10,MacIntel,60,61025ae37ef11b136ea224fe,,,,,,,,,4299,-14.98828125,-36.49609375,1,0,0,response5disk,,3,-3.734375,-10.56640625,1,0,0,rectangle,-3.734375,-10.56640625,1,0,0,,,,,,,-3.734375,-10.56640625,1,0,0,,0,159,159,12,1,
,,,,,,,,,,,,,FF,,,,,,,,0.734,,,,,,,,,,,,,,,,,,,,,,60fda6eee038c8ca51572ade,61036f07c47011d51cdbae9c,2021-07-29_23h16.56.084,Simcolourproject_2stim_asymm_v5,2020.2.10,MacIntel,60,61025ae37ef11b136ea224fe,,,,,,,,,786,-11.5625,23.35546875,1,0,0,response7disk,,0,-2.72265625,7.890625,1,0,0,rectangle,-2.72265625,7.890625,1,0,0,,,,,,,-2.72265625,7.890625,1,0,0,,1,0,160,19,1,
,,,,,,,,,,,,,FF,,,,,,,,0.6163,,,,,,,,,,,,,,,,,,,,,,60fda6eee038c8ca51572ade,61036f07c47011d51cdbae9c,2021-07-29_23h16.56.084,Simcolourproject_2stim_asymm_v5,2020.2.10,MacIntel,60,61025ae37ef11b136ea224fe,,,,,,,,,200,33.5859375,-10.3515625,1,0,0,response3disk,,5,-4.9296875,7.3359375,1,0,0,rectangle,-4.9296875,7.3359375,1,0,0,,,,,,,-4.9296875,7.3359375,1,0,0,,1,1,161,138,1,
,,,,,,,,,,,,,FF,,,,,,,,0.584,,,,,,,,,,,,,,,,,,,,,,60fda6eee038c8ca51572ade,61036f07c47011d51cdbae9c,2021-07-29_23h16.56.084,Simcolourproject_2stim_asymm_v5,2020.2.10,MacIntel,60,61025ae37ef11b136ea224fe,,,,,,,,,1487,20.265625,-38.3359375,1,0,0,response3disk,,4,0.94140625,-10.77734375,1,0,0,rectangle,0.94140625,-10.77734375,1,0,0,,,,,,,0.94140625,-10.77734375,1,0,0,,1,2,162,125,1,
,,,,,,,,,,,,,FF,,,,,,,,0.8004,,,,,,,,,,,,,,,,,,,,,,60fda6eee038c8ca51572ade,61036f07c47011d51cdbae9c,2021-07-29_23h16.56.084,Simcolourproject_2stim_asymm_v5,2020.2.10,MacIntel,60,61025ae37ef11b136ea224fe,,,,,,,,,2968,20.8359375,34.0546875,1,0,0,response1disk,,7,12.91015625,-8.17578125,1,0,0,rectangle,12.91015625,-8.17578125,1,0,0,,,,,,,12.91015625,-8.17578125,1,0,0,,1,3,163,131,1,
,,,,,,,,,,,,,FF,,,,,,,,0.532,,,,,,,,,,,,,,,,,,,,,,60fda6eee038c8ca51572ade,61036f07c47011d51cdbae9c,2021-07-29_23h16.56.084,Simcolourproject_2stim_asymm_v5,2020.2.10,MacIntel,60,61025ae37ef11b136ea224fe,,,,,,,,,1265,34.67578125,14.05078125,1,0,0,response1disk,,6,12.14453125,-9.2890625,1,0,0,rectangle,12.14453125,-9.2890625,1,0,0,,,,,,,12.14453125,-9.2890625,1,0,0,,1,4,164,141,1,
,,,,,,,,,,,,,FF,,,,,,,,0.4,,,,,,,,,,,,,,,,,,,,,,60fda6eee038c8ca51572ade,61036f07c47011d51cdbae9c,2021-07-29_23h16.56.084,Simcolourproject_2stim_asymm_v5,2020.2.10,MacIntel,60,61025ae37ef11b136ea224fe,,,,,,,,,577,48.25390625,-32.109375,1,0,0,response3disk,,5,5.0546875,-5.7578125,1,0,0,rectangle,5.0546875,-5.7578125,1,0,0,,,,,,,5.0546875,-5.7578125,1,0,0,,1,5,165,32,1,
,,,,,,,,,,,,,FF,,,,,,,,0.616,,,,,,,,,,,,,,,,,,,,,,60fda6eee038c8ca51572ade,61036f07c47011d51cdbae9c,2021-07-29_23h16.56.084,Simcolourproject_2stim_asymm_v5,2020.2.10,MacIntel,60,61025ae37ef11b136ea224fe,,,,,,,,,1896,33.53125,-37.12109375,1,0,0,response3disk,,4,15.3359375,-11.6640625,1,0,0,rectangle,15.3359375,-11.6640625,1,0,0,,,,,,,15.3359375,-11.6640625,1,0,0,,1,6,166,140,1,
,,,,,,,,,,,,,FF,,,,,,,,21.5342,,,,,,,,,,,,,,,,,,,,,,60fda6eee038c8ca51572ade,61036f07c47011d51cdbae9c,2021-07-29_23h16.56.084,Simcolourproject_2stim_asymm_v5,2020.2.10,MacIntel,60,61025ae37ef11b136ea224fe,,,,,,,,,2303,27.6953125,-50.00390625,1,0,0,response3disk,,4,4.02734375,0.1796875,1,0,0,rectangle,4.02734375,0.1796875,1,0,0,,,,,,,4.02734375,0.1796875,1,0,0,,1,7,167,144,1,
,,,,,,,,,,,,,FF,,,,,,,,0.6345,,,,,,,,,,,,,,,,,,,,,,60fda6eee038c8ca51572ade,61036f07c47011d51cdbae9c,2021-07-29_23h16.56.084,Simcolourproject_2stim_asymm_v5,2020.2.10,MacIntel,60,61025ae37ef11b136ea224fe,,,,,,,,,2056,51.82421875,-21.9375,1,0,0,response3disk,,5,12.41796875,-2.05859375,1,0,0,rectangle,12.41796875,-2.05859375,1,0,0,,,,,,,12.41796875,-2.05859375,1,0,0,,1,8,168,73,1,
,,,,,,,,,,,,,FF,,,,,,,,0.8338,,,,,,,,,,,,,,,,,,,,,,60fda6eee038c8ca51572ade,61036f07c47011d51cdbae9c,2021-07-29_23h16.56.084,Simcolourproject_2stim_asymm_v5,2020.2.10,MacIntel,60,61025ae37ef11b136ea224fe,,,,,,,,,1466,-26.65625,-41.24609375,1,0,0,response5disk,,3,-6.84375,0.42578125,1,0,0,rectangle,-6.84375,0.42578125,1,0,0,,,,,,,-6.84375,0.42578125,1,0,0,,1,9,169,11,1,
,,,,,,,,,,,,,FF,,,,,,,,0.5179,,,,,,,,,,,,,,,,,,,,,,60fda6eee038c8ca51572ade,61036f07c47011d51cdbae9c,2021-07-29_23h16.56.084,Simcolourproject_2stim_asymm_v5,2020.2.10,MacIntel,60,61025ae37ef11b136ea224fe,,,,,,,,,3051,-16.8984375,-44.62109375,1,0,0,response5disk,,3,-1.8046875,10.671875,1,0,0,rectangle,-1.8046875,10.671875,1,0,0,,,,,,,-1.8046875,10.671875,1,0,0,,1,10,170,96,1,
,,,,,,,,,,,,,FF,,,,,,,,0.8647,,,,,,,,,,,,,,,,,,,,,,60fda6eee038c8ca51572ade,61036f07c47011d51cdbae9c,2021-07-29_23h16.56.084,Simcolourproject_2stim_asymm_v5,2020.2.10,MacIntel,60,61025ae37ef11b136ea224fe,,,,,,,,,2396,43.87109375,-41.76171875,1,0,0,response3disk,,5,13.2578125,-8.23828125,1,0,0,rectangle,13.2578125,-8.23828125,1,0,0,,,,,,,13.2578125,-8.23828125,1,0,0,,1,11,171,39,1,
,,,,,,,,,,,,,FF,,,,,,,,0.6175,,,,,,,,,,,,,,,,,,,,,,60fda6eee038c8ca51572ade,61036f07c47011d51cdbae9c,2021-07-29_23h16.56.084,Simcolourproject_2stim_asymm_v5,2020.2.10,MacIntel,60,61025ae37ef11b136ea224fe,,,,,,,,,2339,38.7734375,-14.91015625,1,0,0,response3disk,,5,1.86328125,6.48828125,1,0,0,rectangle,1.86328125,6.48828125,1,0,0,,,,,,,1.86328125,6.48828125,1,0,0,,1,12,172,30,1,
,,,,,,,,,,,,,FF,,,,,,,,0.502,,,,,,,,,,,,,,,,,,,,,,60fda6eee038c8ca51572ade,61036f07c47011d51cdbae9c,2021-07-29_23h16.56.084,Simcolourproject_2stim_asymm_v5,2020.2.10,MacIntel,60,61025ae37ef11b136ea224fe,,,,,,,,,3075,52.4453125,-7.89453125,1,0,0,response3disk,,5,-1.99609375,7.3203125,1,0,0,rectangle,-1.99609375,7.3203125,1,0,0,,,,,,,-1.99609375,7.3203125,1,0,0,,1,13,173,118,1,
,,,,,,,,,,,,,FF,,,,,,,,0.5337,,,,,,,,,,,,,,,,,,,,,,60fda6eee038c8ca51572ade,61036f07c47011d51cdbae9c,2021-07-29_23h16.56.084,Simcolourproject_2stim_asymm_v5,2020.2.10,MacIntel,60,61025ae37ef11b136ea224fe,,,,,,,,,1929,44.07421875,13.765625,1,0,0,response1disk,,6,15.328125,2.953125,1,0,0,rectangle,15.328125,2.953125,1,0,0,,,,,,,15.328125,2.953125,1,0,0,,1,14,174,100,1,
,,,,,,,,,,,,,FF,,,,,,,,0.4501,,,,,,,,,,,,,,,,,,,,,,60fda6eee038c8ca51572ade,61036f07c47011d51cdbae9c,2021-07-29_23h16.56.084,Simcolourproject_2stim_asymm_v5,2020.2.10,MacIntel,60,61025ae37ef11b136ea224fe,,,,,,,,,1867,30.2109375,17.671875,1,0,0,response1disk,,6,-0.90234375,-9.59765625,1,0,0,rectangle,-0.90234375,-9.59765625,1,0,0,,,,,,,-0.90234375,-9.59765625,1,0,0,,1,15,175,59,1,
,,,,,,,,,,,,,FF,,,,,,,,0.6832,,,,,,,,,,,,,,,,,,,,,,60fda6eee038c8ca51572ade,61036f07c47011d51cdbae9c,2021-07-29_23h16.56.084,Simcolourproject_2stim_asymm_v5,2020.2.10,MacIntel,60,61025ae37ef11b136ea224fe,,,,,,,,,1613,17.35546875,-44.23828125,1,0,0,response3disk,,4,13.40234375,8.5390625,1,0,0,rectangle,13.40234375,8.5390625,1,0,0,,,,,,,13.40234375,8.5390625,1,0,0,,1,16,176,21,1,
,,,,,,,,,,,,,FF,,,,,,,,0.5461,,,,,,,,,,,,,,,,,,,,,,60fda6eee038c8ca51572ade,61036f07c47011d51cdbae9c,2021-07-29_23h16.56.084,Simcolourproject_2stim_asymm_v5,2020.2.10,MacIntel,60,61025ae37ef11b136ea224fe,,,,,,,,,81,15.83203125,-34.8828125,1,0,0,response3disk,,4,15.83203125,-2.53515625,1,0,0,rectangle,15.83203125,-2.53515625,1,0,0,,,,,,,15.83203125,-2.53515625,1,0,0,,1,17,177,156,1,
,,,,,,,,,,,,,FF,,,,,,,,0.7823,,,,,,,,,,,,,,,,,,,,,,60fda6eee038c8ca51572ade,61036f07c47011d51cdbae9c,2021-07-29_23h16.56.084,Simcolourproject_2stim_asymm_v5,2020.2.10,MacIntel,60,61025ae37ef11b136ea224fe,,,,,,,,,2235,-51.8828125,-17.83203125,1,0,0,response5disk,,2,2.3671875,11.84375,1,0,0,rectangle,2.3671875,11.84375,1,0,0,,,,,,,2.3671875,11.84375,1,0,0,,1,18,178,62,1,
,,,,,,,,,,,,,FF,,,,,,,,0.6659,,,,,,,,,,,,,,,,,,,,,,60fda6eee038c8ca51572ade,61036f07c47011d51cdbae9c,2021-07-29_23h16.56.084,Simcolourproject_2stim_asymm_v5,2020.2.10,MacIntel,60,61025ae37ef11b136ea224fe,,,,,,,,,2952,-13.9765625,-33.78125,1,0,0,response5disk,,3,-6.33984375,-11.6015625,1,0,0,rectangle,-6.33984375,-11.6015625,1,0,0,,,,,,,-6.33984375,-11.6015625,1,0,0,,1,19,179,149,1,
,,,,,,,,,,,,,FF,,,,,,,,0.5006,,,,,,,,,,,,,,,,,,,,,,60fda6eee038c8ca51572ade,61036f07c47011d51cdbae9c,2021-07-29_23h16.56.084,Simcolourproject_2stim_asymm_v5,2020.2.10,MacIntel,60,61025ae37ef11b136ea224fe,,,,,,,,,2102,-17.68359375,-38.828125,1,0,0,response5disk,,3,-8.96484375,-9.859375,1,0,0,rectangle,-8.96484375,-9.859375,1,0,0,,,,,,,-8.96484375,-9.859375,1,0,0,,1,20,180,132,1,
,,,,,,,,,,,,,FF,,,,,,,,1.0337,,,,,,,,,,,,,,,,,,,,,,60fda6eee038c8ca51572ade,61036f07c47011d51cdbae9c,2021-07-29_23h16.56.084,Simcolourproject_2stim_asymm_v5,2020.2.10,MacIntel,60,61025ae37ef11b136ea224fe,,,,,,,,,3146,-20.46484375,45.1640625,1,0,0,response7disk,,0,-19.6640625,-0.38671875,1,0,0,rectangle,-19.6640625,-0.38671875,1,0,0,,,,,,,-19.6640625,-0.38671875,1,0,0,,1,21,181,18,1,
,,,,,,,,,,,,,FF,,,,,,,,0.8182,,,,,,,,,,,,,,,,,,,,,,60fda6eee038c8ca51572ade,61036f07c47011d51cdbae9c,2021-07-29_23h16.56.084,Simcolourproject_2stim_asymm_v5,2020.2.10,MacIntel,60,61025ae37ef11b136ea224fe,,,,,,,,,513,42.40625,-30.84765625,1,0,0,response3disk,,5,3.0078125,3.1796875,1,0,0,rectangle,3.0078125,3.1796875,1,0,0,,,,,,,3.0078125,3.1796875,1,0,0,,1,22,182,0,1,
,,,,,,,,,,,,,FF,,,,,,,,0.4672,,,,,,,,,,,,,,,,,,,,,,60fda6eee038c8ca51572ade,61036f07c47011d51cdbae9c,2021-07-29_23h16.56.084,Simcolourproject_2stim_asymm_v5,2020.2.10,MacIntel,60,61025ae37ef11b136ea224fe,,,,,,,,,118,18.97265625,30.734375,1,0,0,response1disk,,7,10.31640625,7.97265625,1,0,0,rectangle,10.31640625,7.97265625,1,0,0,,,,,,,10.31640625,7.97265625,1,0,0,,1,23,183,67,1,
,,,,,,,,,,,,,FF,,,,,,,,0.5839,,,,,,,,,,,,,,,,,,,,,,60fda6eee038c8ca51572ade,61036f07c47011d51cdbae9c,2021-07-29_23h16.56.084,Simcolourproject_2stim_asymm_v5,2020.2.10,MacIntel,60,61025ae37ef11b136ea224fe,,,,,,,,,3866,22.98046875,34.43359375,1,0,0,response1disk,,7,10.1796875,-2.609375,1,0,0,rectangle,10.1796875,-2.609375,1,0,0,,,,,,,10.1796875,-2.609375,1,0,0,,1,24,184,80,1,
,,,,,,,,,,,,,FF,,,,,,,,3.4322,,,,,,,,,,,,,,,,,,,,,,60fda6eee038c8ca51572ade,61036f07c47011d51cdbae9c,2021-07-29_23h16.56.084,Simcolourproject_2stim_asymm_v5,2020.2.10,MacIntel,60,61025ae37ef11b136ea224fe,,,,,,,,,543,17.203125,-38.2421875,1,0,0,response3disk,,4,1.00390625,-5.796875,1,0,0,rectangle,1.00390625,-5.796875,1,0,0,,,,,,,1.00390625,-5.796875,1,0,0,,1,25,185,137,1,
,,,,,,,,,,,,,FF,,,,,,,,0.5167,,,,,,,,,,,,,,,,,,,,,,60fda6eee038c8ca51572ade,61036f07c47011d51cdbae9c,2021-07-29_23h16.56.084,Simcolourproject_2stim_asymm_v5,2020.2.10,MacIntel,60,61025ae37ef11b136ea224fe,,,,,,,,,3861,46.296875,-16.6328125,1,0,0,response3disk,,5,-9.1171875,8.0859375,1,0,0,rectangle,-9.1171875,8.0859375,1,0,0,,,,,,,-9.1171875,8.0859375,1,0,0,,1,26,186,14,1,
,,,,,,,,,,,,,FF,,,,,,,,0.4166,,,,,,,,,,,,,,,,,,,,,,60fda6eee038c8ca51572ade,61036f07c47011d51cdbae9c,2021-07-29_23h16.56.084,Simcolourproject_2stim_asymm_v5,2020.2.10,MacIntel,60,61025ae37ef11b136ea224fe,,,,,,,,,252,37.09375,-14.65234375,1,0,0,response3disk,,5,-7.55859375,5.36328125,1,0,0,rectangle,-7.55859375,5.36328125,1,0,0,,,,,,,-7.55859375,5.36328125,1,0,0,,1,27,187,3,1,
,,,,,,,,,,,,,FF,,,,,,,,0.833,,,,,,,,,,,,,,,,,,,,,,60fda6eee038c8ca51572ade,61036f07c47011d51cdbae9c,2021-07-29_23h16.56.084,Simcolourproject_2stim_asymm_v5,2020.2.10,MacIntel,60,61025ae37ef11b136ea224fe,,,,,,,,,1837,34.81640625,23.44140625,1,0,0,response1disk,,6,4.40234375,3.046875,1,0,0,rectangle,4.40234375,3.046875,1,0,0,,,,,,,4.40234375,3.046875,1,0,0,,1,28,188,2,1,
,,,,,,,,,,,,,FF,,,,,,,,0.4491,,,,,,,,,,,,,,,,,,,,,,60fda6eee038c8ca51572ade,61036f07c47011d51cdbae9c,2021-07-29_23h16.56.084,Simcolourproject_2stim_asymm_v5,2020.2.10,MacIntel,60,61025ae37ef11b136ea224fe,,,,,,,,,88,34.97265625,12.6484375,1,0,0,response1disk,,6,6.47265625,-6.41015625,1,0,0,rectangle,6.47265625,-6.41015625,1,0,0,,,,,,,6.47265625,-6.41015625,1,0,0,,1,29,189,150,1,
,,,,,,,,,,,,,FF,,,,,,,,0.7834,,,,,,,,,,,,,,,,,,,,,,60fda6eee038c8ca51572ade,61036f07c47011d51cdbae9c,2021-07-29_23h16.56.084,Simcolourproject_2stim_asymm_v5,2020.2.10,MacIntel,60,61025ae37ef11b136ea224fe,,,,,,,,,2755,-13,-51.09375,1,0,0,response5disk,,3,2.5234375,-6.671875,1,0,0,rectangle,2.5234375,-6.671875,1,0,0,,,,,,,2.5234375,-6.671875,1,0,0,,1,30,190,123,1,
,,,,,,,,,,,,,FF,,,,,,,,0.9669,,,,,,,,,,,,,,,,,,,,,,60fda6eee038c8ca51572ade,61036f07c47011d51cdbae9c,2021-07-29_23h16.56.084,Simcolourproject_2stim_asymm_v5,2020.2.10,MacIntel,60,61025ae37ef11b136ea224fe,,,,,,,,,3133,26.1015625,30.25390625,1,0,0,response1disk,,7,-0.7890625,-7.83203125,1,0,0,rectangle,-0.7890625,-7.83203125,1,0,0,,,,,,,-0.7890625,-7.83203125,1,0,0,,1,31,191,8,1,
,,,,,,,,,,,,,FF,,,,,,,,0.8172,,,,,,,,,,,,,,,,,,,,,,60fda6eee038c8ca51572ade,61036f07c47011d51cdbae9c,2021-07-29_23h16.56.084,Simcolourproject_2stim_asymm_v5,2020.2.10,MacIntel,60,61025ae37ef11b136ea224fe,,,,,,,,,619,-45.0625,-28.1171875,1,0,0,response5disk,,2,8.6796875,-6.15625,1,0,0,rectangle,8.6796875,-6.15625,1,0,0,,,,,,,8.6796875,-6.15625,1,0,0,,1,32,192,86,1,
,,,,,,,,,,,,,FF,,,,,,,,0.7338,,,,,,,,,,,,,,,,,,,,,,60fda6eee038c8ca51572ade,61036f07c47011d51cdbae9c,2021-07-29_23h16.56.084,Simcolourproject_2stim_asymm_v5,2020.2.10,MacIntel,60,61025ae37ef11b136ea224fe,,,,,,,,,3831,-56.34375,-19.2109375,1,0,0,response5disk,,2,-4.93359375,-0.359375,1,0,0,rectangle,-4.93359375,-0.359375,1,0,0,,,,,,,-4.93359375,-0.359375,1,0,0,,1,33,193,82,1,
,,,,,,,,,,,,,FF,,,,,,,,0.4672,,,,,,,,,,,,,,,,,,,,,,60fda6eee038c8ca51572ade,61036f07c47011d51cdbae9c,2021-07-29_23h16.56.084,Simcolourproject_2stim_asymm_v5,2020.2.10,MacIntel,60,61025ae37ef11b136ea224fe,,,,,,,,,3182,33.1953125,-24.6875,1,0,0,response3disk,,5,-1.17578125,-0.76171875,1,0,0,rectangle,-1.17578125,-0.76171875,1,0,0,,,,,,,-1.17578125,-0.76171875,1,0,0,,1,34,194,54,1,
,,,,,,,,,,,,,FF,,,,,,,,0.433,,,,,,,,,,,,,,,,,,,,,,60fda6eee038c8ca51572ade,61036f07c47011d51cdbae9c,2021-07-29_23h16.56.084,Simcolourproject_2stim_asymm_v5,2020.2.10,MacIntel,60,61025ae37ef11b136ea224fe,,,,,,,,,1712,24.84375,-39.16015625,1,0,0,response3disk,,4,0.40625,-2.42578125,1,0,0,rectangle,0.40625,-2.42578125,1,0,0,,,,,,,0.40625,-2.42578125,1,0,0,,1,35,195,129,1,
,,,,,,,,,,,,,FF,,,,,,,,0.4481,,,,,,,,,,,,,,,,,,,,,,60fda6eee038c8ca51572ade,61036f07c47011d51cdbae9c,2021-07-29_23h16.56.084,Simcolourproject_2stim_asymm_v5,2020.2.10,MacIntel,60,61025ae37ef11b136ea224fe,,,,,,,,,460,47.859375,17.0546875,1,0,0,response1disk,,6,7.43359375,-5.94140625,1,0,0,rectangle,7.43359375,-5.94140625,1,0,0,,,,,,,7.43359375,-5.94140625,1,0,0,,1,36,196,79,1,
,,,,,,,,,,,,,FF,,,,,,,,0.567,,,,,,,,,,,,,,,,,,,,,,60fda6eee038c8ca51572ade,61036f07c47011d51cdbae9c,2021-07-29_23h16.56.084,Simcolourproject_2stim_asymm_v5,2020.2.10,MacIntel,60,61025ae37ef11b136ea224fe,,,,,,,,,3338,16.7578125,-34.44921875,1,0,0,response3disk,,4,4.34765625,-5.3671875,1,0,0,rectangle,4.34765625,-5.3671875,1,0,0,,,,,,,4.34765625,-5.3671875,1,0,0,,1,37,197,103,1,
,,,,,,,,,,,,,FF,,,,,,,,0.4687,,,,,,,,,,,,,,,,,,,,,,60fda6eee038c8ca51572ade,61036f07c47011d51cdbae9c,2021-07-29_23h16.56.084,Simcolourproject_2stim_asymm_v5,2020.2.10,MacIntel,60,61025ae37ef11b136ea224fe,,,,,,,,,1128,-8.828125,-35.015625,1,0,0,response5disk,,3,-0.5078125,-6.0703125,1,0,0,rectangle,-0.5078125,-6.0703125,1,0,0,,,,,,,-0.5078125,-6.0703125,1,0,0,,1,38,198,23,1,
,,,,,,,,,,,,,FF,,,,,,,,0.3833,,,,,,,,,,,,,,,,,,,,,,60fda6eee038c8ca51572ade,61036f07c47011d51cdbae9c,2021-07-29_23h16.56.084,Simcolourproject_2stim_asymm_v5,2020.2.10,MacIntel,60,61025ae37ef11b136ea224fe,,,,,,,,,652,38.41796875,-42.0625,1,0,0,response3disk,,4,-0.48828125,-12.46484375,1,0,0,rectangle,-0.48828125,-12.46484375,1,0,0,,,,,,,-0.48828125,-12.46484375,1,0,0,,1,39,199,90,1,
,,,,,,,,,,,,,FF,,,,,,,,0.3836,,,,,,,,,,,,,,,,,,,,,,60fda6eee038c8ca51572ade,61036f07c47011d51cdbae9c,2021-07-29_23h16.56.084,Simcolourproject_2stim_asymm_v5,2020.2.10,MacIntel,60,61025ae37ef11b136ea224fe,,,,,,,,,3924,40.1875,-22.8671875,1,0,0,response3disk,,5,7.89453125,1.28515625,1,0,0,rectangle,7.89453125,1.28515625,1,0,0,,,,,,,7.89453125,1.28515625,1,0,0,,1,40,200,48,1,
,,,,,,,,,,,,,FF,,,,,,,,0.4986,,,,,,,,,,,,,,,,,,,,,,60fda6eee038c8ca51572ade,61036f07c47011d51cdbae9c,2021-07-29_23h16.56.084,Simcolourproject_2stim_asymm_v5,2020.2.10,MacIntel,60,61025ae37ef11b136ea224fe,,,,,,,,,612,42.30078125,11.39453125,1,0,0,response1disk,,6,10.36328125,-3.71484375,1,0,0,rectangle,10.36328125,-3.71484375,1,0,0,,,,,,,10.36328125,-3.71484375,1,0,0,,1,41,201,51,1,
,,,,,,,,,,,,,FF,,,,,,,,0.4825,,,,,,,,,,,,,,,,,,,,,,60fda6eee038c8ca51572ade,61036f07c47011d51cdbae9c,2021-07-29_23h16.56.084,Simcolourproject_2stim_asymm_v5,2020.2.10,MacIntel,60,61025ae37ef11b136ea224fe,,,,,,,,,3664,34.2734375,10.75,1,0,0,response1disk,,6,11.8203125,-7.45703125,1,0,0,rectangle,11.8203125,-7.45703125,1,0,0,,,,,,,11.8203125,-7.45703125,1,0,0,,1,42,202,5,1,
,,,,,,,,,,,,,FF,,,,,,,,0.5329,,,,,,,,,,,,,,,,,,,,,,60fda6eee038c8ca51572ade,61036f07c47011d51cdbae9c,2021-07-29_23h16.56.084,Simcolourproject_2stim_asymm_v5,2020.2.10,MacIntel,60,61025ae37ef11b136ea224fe,,,,,,,,,3062,-28.6015625,-35.6328125,1,0,0,response5disk,,3,-9.92578125,1.2265625,1,0,0,rectangle,-9.92578125,1.2265625,1,0,0,,,,,,,-9.92578125,1.2265625,1,0,0,,1,43,203,58,1,
,,,,,,,,,,,,,FF,,,,,,,,0.7836,,,,,,,,,,,,,,,,,,,,,,60fda6eee038c8ca51572ade,61036f07c47011d51cdbae9c,2021-07-29_23h16.56.084,Simcolourproject_2stim_asymm_v5,2020.2.10,MacIntel,60,61025ae37ef11b136ea224fe,,,,,,,,,4361,-21.09375,35.68359375,1,0,0,response7disk,,0,-6.99609375,-0.69921875,1,0,0,rectangle,-6.99609375,-0.69921875,1,0,0,,,,,,,-6.99609375,-0.69921875,1,0,0,,1,44,204,152,1,
,,,,,,,,,,,,,FF,,,,,,,,0.4902,,,,,,,,,,,,,,,,,,,,,,60fda6eee038c8ca51572ade,61036f07c47011d51cdbae9c,2021-07-29_23h16.56.084,Simcolourproject_2stim_asymm_v5,2020.2.10,MacIntel,60,61025ae37ef11b136ea224fe,,,,,,,,,1250,-38.19921875,-28.546875,1,0,0,response5disk,,2,-9.328125,-3.13671875,1,0,0,rectangle,-9.328125,-3.13671875,1,0,0,,,,,,,-9.328125,-3.13671875,1,0,0,,1,45,205,110,1,
,,,,,,,,,,,,,FF,,,,,,,,0.4006,,,,,,,,,,,,,,,,,,,,,,60fda6eee038c8ca51572ade,61036f07c47011d51cdbae9c,2021-07-29_23h16.56.084,Simcolourproject_2stim_asymm_v5,2020.2.10,MacIntel,60,61025ae37ef11b136ea224fe,,,,,,,,,2797,-21.50390625,-30.36328125,1,0,0,response5disk,,3,-10.140625,-9.09765625,1,0,0,rectangle,-10.140625,-9.09765625,1,0,0,,,,,,,-10.140625,-9.09765625,1,0,0,,1,46,206,40,1,
,,,,,,,,,,,,,FF,,,,,,,,0.387,,,,,,,,,,,,,,,,,,,,,,60fda6eee038c8ca51572ade,61036f07c47011d51cdbae9c,2021-07-29_23h16.56.084,Simcolourproject_2stim_asymm_v5,2020.2.10,MacIntel,60,61025ae37ef11b136ea224fe,,,,,,,,,2793,28.1171875,-39.49609375,1,0,0,response3disk,,4,8.609375,-5.42578125,1,0,0,rectangle,8.609375,-5.42578125,1,0,0,,,,,,,8.609375,-5.42578125,1,0,0,,1,47,207,151,1,
,,,,,,,,,,,,,FF,,,,,,,,0.4327,,,,,,,,,,,,,,,,,,,,,,60fda6eee038c8ca51572ade,61036f07c47011d51cdbae9c,2021-07-29_23h16.56.084,Simcolourproject_2stim_asymm_v5,2020.2.10,MacIntel,60,61025ae37ef11b136ea224fe,,,,,,,,,2227,-22.18359375,-35.703125,1,0,0,response5disk,,3,-1.828125,4.140625,1,0,0,rectangle,-1.828125,4.140625,1,0,0,,,,,,,-1.828125,4.140625,1,0,0,,1,48,208,57,1,
,,,,,,,,,,,,,FF,,,,,,,,0.5659,,,,,,,,,,,,,,,,,,,,,,60fda6eee038c8ca51572ade,61036f07c47011d51cdbae9c,2021-07-29_23h16.56.084,Simcolourproject_2stim_asymm_v5,2020.2.10,MacIntel,60,61025ae37ef11b136ea224fe,,,,,,,,,2003,21.53125,13.25,1,0,0,response1disk,,6,11.109375,13.25,1,0,0,rectangle,11.109375,13.25,1,0,0,,,,,,,11.109375,13.25,1,0,0,,1,49,209,34,1,
,,,,,,,,,,,,,FF,,,,,,,,0.6964,,,,,,,,,,,,,,,,,,,,,,60fda6eee038c8ca51572ade,61036f07c47011d51cdbae9c,2021-07-29_23h16.56.084,Simcolourproject_2stim_asymm_v5,2020.2.10,MacIntel,60,61025ae37ef11b136ea224fe,,,,,,,,,4271,15.76171875,23.02734375,1,0,0,response1disk,,7,8.60546875,-4.47265625,1,0,0,rectangle,8.60546875,-4.47265625,1,0,0,,,,,,,8.60546875,-4.47265625,1,0,0,,1,50,210,134,1,
,,,,,,,,,,,,,FF,,,,,,,,0.3496,,,,,,,,,,,,,,,,,,,,,,60fda6eee038c8ca51572ade,61036f07c47011d51cdbae9c,2021-07-29_23h16.56.084,Simcolourproject_2stim_asymm_v5,2020.2.10,MacIntel,60,61025ae37ef11b136ea224fe,,,,,,,,,3233,40.3828125,-29.91015625,1,0,0,response3disk,,5,16.8125,-12.02734375,1,0,0,rectangle,16.8125,-12.02734375,1,0,0,,,,,,,16.8125,-12.02734375,1,0,0,,1,51,211,66,1,
,,,,,,,,,,,,,FF,,,,,,,,0.4532,,,,,,,,,,,,,,,,,,,,,,60fda6eee038c8ca51572ade,61036f07c47011d51cdbae9c,2021-07-29_23h16.56.084,Simcolourproject_2stim_asymm_v5,2020.2.10,MacIntel,60,61025ae37ef11b136ea224fe,,,,,,,,,3968,25.55859375,-39.23828125,1,0,0,response3disk,,4,15.18359375,-5.17578125,1,0,0,rectangle,15.18359375,-5.17578125,1,0,0,,,,,,,15.18359375,-5.17578125,1,0,0,,1,52,212,63,1,
,,,,,,,,,,,,,FF,,,,,,,,0.4674,,,,,,,,,,,,,,,,,,,,,,60fda6eee038c8ca51572ade,61036f07c47011d51cdbae9c,2021-07-29_23h16.56.084,Simcolourproject_2stim_asymm_v5,2020.2.10,MacIntel,60,61025ae37ef11b136ea224fe,,,,,,,,,2594,-14.78515625,-35.5859375,1,0,0,response5disk,,3,-4.62890625,-6.21875,1,0,0,rectangle,-4.62890625,-6.21875,1,0,0,,,,,,,-4.62890625,-6.21875,1,0,0,,1,53,213,143,1,
,,,,,,,,,,,,,FF,,,,,,,,0.4324,,,,,,,,,,,,,,,,,,,,,,60fda6eee038c8ca51572ade,61036f07c47011d51cdbae9c,2021-07-29_23h16.56.084,Simcolourproject_2stim_asymm_v5,2020.2.10,MacIntel,60,61025ae37ef11b136ea224fe,,,,,,,,,1013,-39.65625,-23.9453125,1,0,0,response5disk,,2,-14.37890625,-2.765625,1,0,0,rectangle,-14.37890625,-2.765625,1,0,0,,,,,,,-14.37890625,-2.765625,1,0,0,,1,54,214,65,1,
,,,,,,,,,,,,,FF,,,,,,,,0.4652,,,,,,,,,,,,,,,,,,,,,,60fda6eee038c8ca51572ade,61036f07c47011d51cdbae9c,2021-07-29_23h16.56.084,Simcolourproject_2stim_asymm_v5,2020.2.10,MacIntel,60,61025ae37ef11b136ea224fe,,,,,,,,,1550,-31.36328125,-8.51171875,1,0,0,response5disk,,2,-9.671875,5.70703125,1,0,0,rectangle,-9.671875,5.70703125,1,0,0,,,,,,,-9.671875,5.70703125,1,0,0,,1,55,215,148,1,
,,,,,,,,,,,,,FF,,,,,,,,0.7331,,,,,,,,,,,,,,,,,,,,,,60fda6eee038c8ca51572ade,61036f07c47011d51cdbae9c,2021-07-29_23h16.56.084,Simcolourproject_2stim_asymm_v5,2020.2.10,MacIntel,60,61025ae37ef11b136ea224fe,,,,,,,,,1322,29.6015625,-33.18359375,1,0,0,response3disk,,4,5.41796875,-1.265625,1,0,0,rectangle,5.41796875,-1.265625,1,0,0,,,,,,,5.41796875,-1.265625,1,0,0,,1,56,216,69,1,
,,,,,,,,,,,,,FF,,,,,,,,0.4332,,,,,,,,,,,,,,,,,,,,,,60fda6eee038c8ca51572ade,61036f07c47011d51cdbae9c,2021-07-29_23h16.56.084,Simcolourproject_2stim_asymm_v5,2020.2.10,MacIntel,60,61025ae37ef11b136ea224fe,,,,,,,,,3074,47.9765625,10.83203125,1,0,0,response1disk,,6,7.625,-4.7890625,1,0,0,rectangle,42.14453125,-29.16796875,1,0,0,response3disk_3,TRUE,5,5,"[128,93,313,110,229,321,276,220,235,89,218,223,316,2,266,1,52,223,284,158]",1.6644,-2.83203125,-3.56640625,1,0,0,rectangle,1,57,217,111,1,
,,,,,,,,,,,,,FF,,,,,,,,0.5829,,,,,,,,,,,,,,,,,,,,,,60fda6eee038c8ca51572ade,61036f07c47011d51cdbae9c,2021-07-29_23h16.56.084,Simcolourproject_2stim_asymm_v5,2020.2.10,MacIntel,60,61025ae37ef11b136ea224fe,,,,,,,,,3651,29.73828125,-45.390625,1,0,0,response3disk,,4,3.80078125,-8.453125,1,0,0,rectangle,3.80078125,-8.453125,1,0,0,,,,,,,3.80078125,-8.453125,1,0,0,,1,58,218,113,1,
,,,,,,,,,,,,,FF,,,,,,,,0.417,,,,,,,,,,,,,,,,,,,,,,60fda6eee038c8ca51572ade,61036f07c47011d51cdbae9c,2021-07-29_23h16.56.084,Simcolourproject_2stim_asymm_v5,2020.2.10,MacIntel,60,61025ae37ef11b136ea224fe,,,,,,,,,1163,43.27734375,-25.91015625,1,0,0,response3disk,,5,-3.44140625,5.55078125,1,0,0,rectangle,-16.35546875,-51.34375,1,0,0,response5disk_3,TRUE,3,3,"[128,93,313,110,229,321,276,220,235,89,218,223,316,2,266,1,52,223,284,158]",2.3006,2.84375,-1.51171875,1,0,0,rectangle,1,59,219,74,1,
,,,,,,,,,,,,,FF,,,,,,,,1.7331,,,,,,,,,,,,,,,,,,,,,,60fda6eee038c8ca51572ade,61036f07c47011d51cdbae9c,2021-07-29_23h16.56.084,Simcolourproject_2stim_asymm_v5,2020.2.10,MacIntel,60,61025ae37ef11b136ea224fe,,,,,,,,,949,11.3125,-42.25390625,1,0,0,response3disk,,4,7.94921875,-9.140625,1,0,0,rectangle,7.94921875,-9.140625,1,0,0,,,,,,,7.94921875,-9.140625,1,0,0,,1,60,220,122,1,
,,,,,,,,,,,,,FF,,,,,,,,1.1498,,,,,,,,,,,,,,,,,,,,,,60fda6eee038c8ca51572ade,61036f07c47011d51cdbae9c,2021-07-29_23h16.56.084,Simcolourproject_2stim_asymm_v5,2020.2.10,MacIntel,60,61025ae37ef11b136ea224fe,,,,,,,,,3929,-18.02734375,-34.90625,1,0,0,response5disk,,3,-3.26953125,-0.61328125,1,0,0,rectangle,-3.26953125,-0.61328125,1,0,0,,,,,,,-3.26953125,-0.61328125,1,0,0,,1,61,221,145,1,
,,,,,,,,,,,,,FF,,,,,,,,0.7012,,,,,,,,,,,,,,,,,,,,,,60fda6eee038c8ca51572ade,61036f07c47011d51cdbae9c,2021-07-29_23h16.56.084,Simcolourproject_2stim_asymm_v5,2020.2.10,MacIntel,60,61025ae37ef11b136ea224fe,,,,,,,,,3364,28.1328125,48.08984375,1,0,0,response1disk,,7,12.37890625,-8.65234375,1,0,0,rectangle,-43.453125,-21.3515625,1,0,0,response5disk_3,TRUE,2,2,"[128,93,313,110,229,321,276,220,235,89,218,223,316,2,266,1,52,223,284,158]",2.8645,9.56640625,12.546875,1,0,0,rectangle,1,62,222,49,1,
,,,,,,,,,,,,,FF,,,,,,,,0.8,,,,,,,,,,,,,,,,,,,,,,60fda6eee038c8ca51572ade,61036f07c47011d51cdbae9c,2021-07-29_23h16.56.084,Simcolourproject_2stim_asymm_v5,2020.2.10,MacIntel,60,61025ae37ef11b136ea224fe,,,,,,,,,875,44.33984375,-31.70703125,1,0,0,response3disk,,5,-1.00390625,10.6953125,1,0,0,rectangle,-1.00390625,10.6953125,1,0,0,,,,,,,-1.00390625,10.6953125,1,0,0,,1,63,223,116,1,
,,,,,,,,,,,,,FF,,,,,,,,0.7325,,,,,,,,,,,,,,,,,,,,,,60fda6eee038c8ca51572ade,61036f07c47011d51cdbae9c,2021-07-29_23h16.56.084,Simcolourproject_2stim_asymm_v5,2020.2.10,MacIntel,60,61025ae37ef11b136ea224fe,,,,,,,,,1902,-21.171875,-54.46875,1,0,0,response5disk,,3,-0.41015625,4.953125,1,0,0,rectangle,-0.41015625,4.953125,1,0,0,,,,,,,-0.41015625,4.953125,1,0,0,,1,64,224,27,1,
,,,,,,,,,,,,,FF,,,,,,,,1.1331,,,,,,,,,,,,,,,,,,,,,,60fda6eee038c8ca51572ade,61036f07c47011d51cdbae9c,2021-07-29_23h16.56.084,Simcolourproject_2stim_asymm_v5,2020.2.10,MacIntel,60,61025ae37ef11b136ea224fe,,,,,,,,,2073,44.73828125,34.30859375,1,0,0,response1disk,,6,-6.671875,-1.90234375,1,0,0,rectangle,-6.671875,-1.90234375,1,0,0,,,,,,,-6.671875,-1.90234375,1,0,0,,1,65,225,77,1,
,,,,,,,,,,,,,FF,,,,,,,,0.6506,,,,,,,,,,,,,,,,,,,,,,60fda6eee038c8ca51572ade,61036f07c47011d51cdbae9c,2021-07-29_23h16.56.084,Simcolourproject_2stim_asymm_v5,2020.2.10,MacIntel,60,61025ae37ef11b136ea224fe,,,,,,,,,3969,-17.2890625,-43.90234375,1,0,0,response5disk,,3,-3.55859375,0.6328125,1,0,0,rectangle,-3.55859375,0.6328125,1,0,0,,,,,,,-3.55859375,0.6328125,1,0,0,,1,66,226,45,1,
,,,,,,,,,,,,,FF,,,,,,,,1.0843,,,,,,,,,,,,,,,,,,,,,,60fda6eee038c8ca51572ade,61036f07c47011d51cdbae9c,2021-07-29_23h16.56.084,Simcolourproject_2stim_asymm_v5,2020.2.10,MacIntel,60,61025ae37ef11b136ea224fe,,,,,,,,,2732,26.04296875,-46.95703125,1,0,0,response3disk,,4,4.3359375,-6.953125,1,0,0,rectangle,4.3359375,-6.953125,1,0,0,,,,,,,4.3359375,-6.953125,1,0,0,,1,67,227,7,1,
,,,,,,,,,,,,,FF,,,,,,,,0.5335,,,,,,,,,,,,,,,,,,,,,,60fda6eee038c8ca51572ade,61036f07c47011d51cdbae9c,2021-07-29_23h16.56.084,Simcolourproject_2stim_asymm_v5,2020.2.10,MacIntel,60,61025ae37ef11b136ea224fe,,,,,,,,,2763,33.4765625,-11.76171875,1,0,0,response3disk,,5,3.8828125,5.46875,1,0,0,rectangle,18.98828125,56.6328125,1,0,0,response1disk_3,TRUE,7,7,"[128,93,313,110,229,321,276,220,235,89,218,223,316,2,266,1,52,223,284,158]",19.2346,13.96875,8.09375,1,0,0,rectangle,1,68,228,83,1,
,,,,,,,,,,,,,FF,,,,,,,,0.6283,,,,,,,,,,,,,,,,,,,,,,60fda6eee038c8ca51572ade,61036f07c47011d51cdbae9c,2021-07-29_23h16.56.084,Simcolourproject_2stim_asymm_v5,2020.2.10,MacIntel,60,61025ae37ef11b136ea224fe,,,,,,,,,2427,-21.546875,-46.9375,1,0,0,response5disk,,3,-4.8046875,-1.4296875,1,0,0,rectangle,-4.8046875,-1.4296875,1,0,0,,,,,,,-4.8046875,-1.4296875,1,0,0,,1,69,229,88,1,
,,,,,,,,,,,,,FF,,,,,,,,2.8341,,,,,,,,,,,,,,,,,,,,,,60fda6eee038c8ca51572ade,61036f07c47011d51cdbae9c,2021-07-29_23h16.56.084,Simcolourproject_2stim_asymm_v5,2020.2.10,MacIntel,60,61025ae37ef11b136ea224fe,,,,,,,,,3640,-36.1640625,-23.83203125,1,0,0,response5disk,,2,-18.12109375,8.3125,1,0,0,rectangle,-18.12109375,8.3125,1,0,0,,,,,,,-18.12109375,8.3125,1,0,0,,1,70,230,12,1,
,,,,,,,,,,,,,FF,,,,,,,,0.4691,,,,,,,,,,,,,,,,,,,,,,60fda6eee038c8ca51572ade,61036f07c47011d51cdbae9c,2021-07-29_23h16.56.084,Simcolourproject_2stim_asymm_v5,2020.2.10,MacIntel,60,61025ae37ef11b136ea224fe,,,,,,,,,738,39.51171875,-26.81640625,1,0,0,response3disk,,5,14.35546875,4.625,1,0,0,rectangle,14.35546875,4.625,1,0,0,,,,,,,14.35546875,4.625,1,0,0,,1,71,231,109,1,
,,,,,,,,,,,,,FF,,,,,,,,0.7334,,,,,,,,,,,,,,,,,,,,,,60fda6eee038c8ca51572ade,61036f07c47011d51cdbae9c,2021-07-29_23h16.56.084,Simcolourproject_2stim_asymm_v5,2020.2.10,MacIntel,60,61025ae37ef11b136ea224fe,,,,,,,,,4234,17.78515625,52.46875,1,0,0,response1disk,,7,6.3203125,-2.73828125,1,0,0,rectangle,6.3203125,-2.73828125,1,0,0,,,,,,,6.3203125,-2.73828125,1,0,0,,1,72,232,26,1,
,,,,,,,,,,,,,FF,,,,,,,,1.6228,,,,,,,,,,,,,,,,,,,,,,60fda6eee038c8ca51572ade,61036f07c47011d51cdbae9c,2021-07-29_23h16.56.084,Simcolourproject_2stim_asymm_v5,2020.2.10,MacIntel,60,61025ae37ef11b136ea224fe,,,,,,,,,2352,35.41796875,32.9375,1,0,0,response1disk,,6,15.953125,-8.0390625,1,0,0,rectangle,15.953125,-8.0390625,1,0,0,,,,,,,15.953125,-8.0390625,1,0,0,,1,73,233,25,1,
,,,,,,,,,,,,,FF,,,,,,,,0.9169,,,,,,,,,,,,,,,,,,,,,,60fda6eee038c8ca51572ade,61036f07c47011d51cdbae9c,2021-07-29_23h16.56.084,Simcolourproject_2stim_asymm_v5,2020.2.10,MacIntel,60,61025ae37ef11b136ea224fe,,,,,,,,,198,28.62109375,-46.640625,1,0,0,response3disk,,4,1.00390625,-0.06640625,1,0,0,rectangle,23.4609375,51.48828125,1,0,0,response1disk_3,TRUE,7,7,"[128,93,313,110,229,321,276,220,235,89,218,223,316,2,266,1,52,223,284,158]",1.5842,6.55859375,-5.6953125,1,0,0,rectangle,1,74,234,9,1,
,,,,,,,,,,,,,FF,,,,,,,,0.667,,,,,,,,,,,,,,,,,,,,,,60fda6eee038c8ca51572ade,61036f07c47011d51cdbae9c,2021-07-29_23h16.56.084,Simcolourproject_2stim_asymm_v5,2020.2.10,MacIntel,60,61025ae37ef11b136ea224fe,,,,,,,,,1267,-15.140625,-39.1484375,1,0,0,response5disk,,3,-3.8984375,-3.80859375,1,0,0,rectangle,-3.8984375,-3.80859375,1,0,0,,,,,,,-3.8984375,-3.80859375,1,0,0,,1,75,235,35,1,
,,,,,,,,,,,,,FF,,,,,,,,0.6335,,,,,,,,,,,,,,,,,,,,,,60fda6eee038c8ca51572ade,61036f07c47011d51cdbae9c,2021-07-29_23h16.56.084,Simcolourproject_2stim_asymm_v5,2020.2.10,MacIntel,60,61025ae37ef11b136ea224fe,,,,,,,,,1891,-10.4453125,-30.0703125,1,0,0,response5disk,,3,-2.921875,6.31640625,1,0,0,rectangle,-2.921875,6.31640625,1,0,0,,,,,,,-2.921875,6.31640625,1,0,0,,1,76,236,107,1,
,,,,,,,,,,,,,FF,,,,,,,,1.0668,,,,,,,,,,,,,,,,,,,,,,60fda6eee038c8ca51572ade,61036f07c47011d51cdbae9c,2021-07-29_23h16.56.084,Simcolourproject_2stim_asymm_v5,2020.2.10,MacIntel,60,61025ae37ef11b136ea224fe,,,,,,,,,2457,-24.4453125,-50.609375,1,0,0,response5disk,,3,-7.86328125,-2.1640625,1,0,0,rectangle,-7.86328125,-2.1640625,1,0,0,,,,,,,-7.86328125,-2.1640625,1,0,0,,1,77,237,47,1,
,,,,,,,,,,,,,FF,,,,,,,,0.5286,,,,,,,,,,,,,,,,,,,,,,60fda6eee038c8ca51572ade,61036f07c47011d51cdbae9c,2021-07-29_23h16.56.084,Simcolourproject_2stim_asymm_v5,2020.2.10,MacIntel,60,61025ae37ef11b136ea224fe,,,,,,,,,3955,33.0625,-17.45703125,1,0,0,response3disk,,5,-10.8125,1.65234375,1,0,0,rectangle,-10.8125,1.65234375,1,0,0,,,,,,,-10.8125,1.65234375,1,0,0,,1,78,238,98,1,
,,,,,,,,,,,,,FF,,,,,,,,0.7169,,,,,,,,,,,,,,,,,,,,,,60fda6eee038c8ca51572ade,61036f07c47011d51cdbae9c,2021-07-29_23h16.56.084,Simcolourproject_2stim_asymm_v5,2020.2.10,MacIntel,60,61025ae37ef11b136ea224fe,,,,,,,,,2307,31.328125,10.984375,1,0,0,response1disk,,6,-0.88671875,4.9375,1,0,0,rectangle,-0.88671875,4.9375,1,0,0,,,,,,,-0.88671875,4.9375,1,0,0,,1,79,239,157,1,
,,,,,,,,,,,,,FF,,,,,,,,0.5668,,,,,,,,,,,,,,,,,,,,,,60fda6eee038c8ca51572ade,61036f07c47011d51cdbae9c,2021-07-29_23h16.56.084,Simcolourproject_2stim_asymm_v5,2020.2.10,MacIntel,60,61025ae37ef11b136ea224fe,,,,,,,,,62,15.13671875,-34.71875,1,0,0,response3disk,,4,2.83203125,-8.01171875,1,0,0,rectangle,2.83203125,-8.01171875,1,0,0,,,,,,,2.83203125,-8.01171875,1,0,0,,1,80,240,43,1,
,,,,,,,,,,,,,FF,,,,,,,,0.4652,,,,,,,,,,,,,,,,,,,,,,60fda6eee038c8ca51572ade,61036f07c47011d51cdbae9c,2021-07-29_23h16.56.084,Simcolourproject_2stim_asymm_v5,2020.2.10,MacIntel,60,61025ae37ef11b136ea224fe,,,,,,,,,385,45.81640625,-24.234375,1,0,0,response3disk,,5,10.1640625,-8.2734375,1,0,0,rectangle,10.1640625,-8.2734375,1,0,0,,,,,,,10.1640625,-8.2734375,1,0,0,,1,81,241,6,1,
,,,,,,,,,,,,,FF,,,,,,,,0.483,,,,,,,,,,,,,,,,,,,,,,60fda6eee038c8ca51572ade,61036f07c47011d51cdbae9c,2021-07-29_23h16.56.084,Simcolourproject_2stim_asymm_v5,2020.2.10,MacIntel,60,61025ae37ef11b136ea224fe,,,,,,,,,2905,13.03125,-27.15625,1,0,0,response3disk,,4,8.16796875,5.18359375,1,0,0,rectangle,8.16796875,5.18359375,1,0,0,,,,,,,8.16796875,5.18359375,1,0,0,,1,82,242,85,1,
,,,,,,,,,,,,,FF,,,,,,,,0.4997,,,,,,,,,,,,,,,,,,,,,,60fda6eee038c8ca51572ade,61036f07c47011d51cdbae9c,2021-07-29_23h16.56.084,Simcolourproject_2stim_asymm_v5,2020.2.10,MacIntel,60,61025ae37ef11b136ea224fe,,,,,,,,,2713,39.33203125,-16.37109375,1,0,0,response3disk,,5,4.5703125,-2.57421875,1,0,0,rectangle,4.5703125,-2.57421875,1,0,0,,,,,,,4.5703125,-2.57421875,1,0,0,,1,83,243,60,1,
,,,,,,,,,,,,,FF,,,,,,,,0.567,,,,,,,,,,,,,,,,,,,,,,60fda6eee038c8ca51572ade,61036f07c47011d51cdbae9c,2021-07-29_23h16.56.084,Simcolourproject_2stim_asymm_v5,2020.2.10,MacIntel,60,61025ae37ef11b136ea224fe,,,,,,,,,459,23.66015625,-41.43359375,1,0,0,response3disk,,4,3.375,-0.1171875,1,0,0,rectangle,3.375,-0.1171875,1,0,0,,,,,,,3.375,-0.1171875,1,0,0,,1,84,244,71,1,
,,,,,,,,,,,,,FF,,,,,,,,0.666,,,,,,,,,,,,,,,,,,,,,,60fda6eee038c8ca51572ade,61036f07c47011d51cdbae9c,2021-07-29_23h16.56.084,Simcolourproject_2stim_asymm_v5,2020.2.10,MacIntel,60,61025ae37ef11b136ea224fe,,,,,,,,,203,34.26171875,11.49609375,1,0,0,response1disk,,6,10.20703125,-4.77734375,1,0,0,rectangle,10.20703125,-4.77734375,1,0,0,,,,,,,10.20703125,-4.77734375,1,0,0,,1,85,245,102,1,
,,,,,,,,,,,,,FF,,,,,,,,0.4164,,,,,,,,,,,,,,,,,,,,,,60fda6eee038c8ca51572ade,61036f07c47011d51cdbae9c,2021-07-29_23h16.56.084,Simcolourproject_2stim_asymm_v5,2020.2.10,MacIntel,60,61025ae37ef11b136ea224fe,,,,,,,,,3367,21.47265625,41.15625,1,0,0,response1disk,,7,11.75,-1.515625,1,0,0,rectangle,11.75,-1.515625,1,0,0,,,,,,,11.75,-1.515625,1,0,0,,1,86,246,20,1,
,,,,,,,,,,,,,FF,,,,,,,,0.6331,,,,,,,,,,,,,,,,,,,,,,60fda6eee038c8ca51572ade,61036f07c47011d51cdbae9c,2021-07-29_23h16.56.084,Simcolourproject_2stim_asymm_v5,2020.2.10,MacIntel,60,61025ae37ef11b136ea224fe,,,,,,,,,2027,26.8203125,-37.7109375,1,0,0,response3disk,,4,16.2421875,-9.21875,1,0,0,rectangle,16.2421875,-9.21875,1,0,0,,,,,,,16.2421875,-9.21875,1,0,0,,1,87,247,87,1,
,,,,,,,,,,,,,FF,,,,,,,,0.7023,,,,,,,,,,,,,,,,,,,,,,60fda6eee038c8ca51572ade,61036f07c47011d51cdbae9c,2021-07-29_23h16.56.084,Simcolourproject_2stim_asymm_v5,2020.2.10,MacIntel,60,61025ae37ef11b136ea224fe,,,,,,,,,1306,-12.91796875,-32.5390625,1,0,0,response5disk,,3,1.4375,-7.1953125,1,0,0,rectangle,1.4375,-7.1953125,1,0,0,,,,,,,1.4375,-7.1953125,1,0,0,,1,88,248,94,1,
,,,,,,,,,,,,,FF,,,,,,,,0.4666,,,,,,,,,,,,,,,,,,,,,,60fda6eee038c8ca51572ade,61036f07c47011d51cdbae9c,2021-07-29_23h16.56.084,Simcolourproject_2stim_asymm_v5,2020.2.10,MacIntel,60,61025ae37ef11b136ea224fe,,,,,,,,,1391,-18.40234375,-37.828125,1,0,0,response5disk,,3,-7.34765625,5.546875,1,0,0,rectangle,-7.34765625,5.546875,1,0,0,,,,,,,-7.34765625,5.546875,1,0,0,,1,89,249,44,1,
