key_resp.keys,key_resp.rt,key_resp_14.keys,key_resp_14.rt,key_resp_15.keys,key_resp_15.rt,key_resp_17.keys,key_resp_17.rt,key_resp_9.keys,key_resp_9.rt,key_resp_10.keys,key_resp_10.rt,practice_comparison,Ecc,mouse_5.x,mouse_5.y,mouse_5.leftButton,mouse_5.midButton,mouse_5.rightButton,mouse_5.clicked_name,pracsimilarity,response_time,mouse_10.x,mouse_10.y,mouse_10.leftButton,mouse_10.midButton,mouse_10.rightButton,mouse_10.clicked_name,mouse_7.x,mouse_7.y,mouse_7.leftButton,mouse_7.midButton,mouse_7.rightButton,mouse_6.x,mouse_6.y,mouse_6.leftButton,mouse_6.midButton,mouse_6.rightButton,duringprac.thisRepN,duringprac.thisTrialN,duringprac.thisN,duringprac.thisIndex,duringprac.ran,participant,session,date,expName,psychopyVersion,OS,frameRate,study_id,mouse_7.clicked_name,catchpracsimilarity,catch_response_time,catchnumberprac,catchtrialorderprac,mouse_6.clicked_name,key_resp_22.keys,key_resp_22.rt,realcomparison,mouse.x,mouse.y,mouse.leftButton,mouse.midButton,mouse.rightButton,mouse.clicked_name,Colour2,similarity,mouse_2.x,mouse_2.y,mouse_2.leftButton,mouse_2.midButton,mouse_2.rightButton,mouse_2.clicked_name,mouse_3.x,mouse_3.y,mouse_3.leftButton,mouse_3.midButton,mouse_3.rightButton,mouse_11.x,mouse_11.y,mouse_11.leftButton,mouse_11.midButton,mouse_11.rightButton,trials_2.thisRepN,trials_2.thisTrialN,trials_2.thisN,trials_2.thisIndex,trials_2.ran,Colour1,mouse_3.clicked_name,catchornah,catchsimilarity,catchnumber,catchtrialorder,catchRT,mouse_11.clicked_name
space,1.1598,space,12.008,space,29.2688,space,3.5607,space,3.3875,space,10.6727,67,PF,58.6328125,-89.8671875,1,0,0,response3disk_5,4,10.7644,4.19921875,-5.2890625,1,0,0,rectangle_8,4.19921875,-5.2890625,1,0,0,4.19921875,-5.2890625,1,0,0,0,0,0,4,1,60fd8ca49ee4de5cd43d2878,610369f9e1eb1d931b7a34eb,2021-07-29_22h56.00.524,Simcolourproject_2stim_asymm_v5,2020.2.10,MacIntel,60,61025ae37ef11b136ea224fe,,,,,,,,,,,,,,,,,,,,,,,,,,,,,,,,,,,,,,,,,,,,,,
,,,,,,,,,,,,56,PF,-123.3554688,-29.73046875,1,0,0,response5disk_5,2,12.1304,4.1015625,-1.11328125,1,0,0,rectangle_8,84.984375,134.2304688,1,0,0,-21.3828125,-1.703125,1,0,0,0,1,1,2,1,60fd8ca49ee4de5cd43d2878,610369f9e1eb1d931b7a34eb,2021-07-29_22h56.00.524,Simcolourproject_2stim_asymm_v5,2020.2.10,MacIntel,60,61025ae37ef11b136ea224fe,response1disk_7,7,2.4701,7,"[2,5]",rectangle_4,,,,,,,,,,,,,,,,,,,,,,,,,,,,,,,,,,,,,,,,
,,,,,,,,,,,,59,PF,43.53125,-109.515625,1,0,0,response3disk_5,4,5.6735,15.015625,1.9453125,1,0,0,rectangle_8,15.015625,1.9453125,1,0,0,15.015625,1.9453125,1,0,0,0,2,2,6,1,60fd8ca49ee4de5cd43d2878,610369f9e1eb1d931b7a34eb,2021-07-29_22h56.00.524,Simcolourproject_2stim_asymm_v5,2020.2.10,MacIntel,60,61025ae37ef11b136ea224fe,,,,,,,,,,,,,,,,,,,,,,,,,,,,,,,,,,,,,,,,,,,,,,
,,,,,,,,,,,,140,PF,121.8671875,34.76171875,1,0,0,response1disk_5,6,7.2592,13.65234375,9.72265625,1,0,0,rectangle_8,13.65234375,9.72265625,1,0,0,13.65234375,9.72265625,1,0,0,0,3,3,1,1,60fd8ca49ee4de5cd43d2878,610369f9e1eb1d931b7a34eb,2021-07-29_22h56.00.524,Simcolourproject_2stim_asymm_v5,2020.2.10,MacIntel,60,61025ae37ef11b136ea224fe,,,,,,,,,,,,,,,,,,,,,,,,,,,,,,,,,,,,,,,,,,,,,,
,,,,,,,,,,,,21,FF,23.51953125,-108.9960938,1,0,0,response3disk_5,4,2.6183,-10.8203125,7.078125,1,0,0,rectangle_8,42.41796875,145.3671875,1,0,0,-5.48828125,-12.421875,1,0,0,0,4,4,3,1,60fd8ca49ee4de5cd43d2878,610369f9e1eb1d931b7a34eb,2021-07-29_22h56.00.524,Simcolourproject_2stim_asymm_v5,2020.2.10,MacIntel,60,61025ae37ef11b136ea224fe,response1disk_7,7,2.5361,7,"[2,5]",rectangle_4,,,,,,,,,,,,,,,,,,,,,,,,,,,,,,,,,,,,,,,,
,,,,,,,,,,,,153,FF,-60.57421875,122.9296875,1,0,0,response7disk_5,0,2.6351,4.07421875,-10.02734375,1,0,0,rectangle_8,4.07421875,-10.02734375,1,0,0,4.07421875,-10.02734375,1,0,0,0,5,5,0,1,60fd8ca49ee4de5cd43d2878,610369f9e1eb1d931b7a34eb,2021-07-29_22h56.00.524,Simcolourproject_2stim_asymm_v5,2020.2.10,MacIntel,60,61025ae37ef11b136ea224fe,,,,,,,,,,,,,,,,,,,,,,,,,,,,,,,,,,,,,,,,,,,,,,
,,,,,,,,,,,,69,FF,99.8671875,-55.1875,1,0,0,response3disk_5,5,4.3721,23.04296875,-12.27734375,1,0,0,rectangle_8,23.04296875,-12.27734375,1,0,0,23.04296875,-12.27734375,1,0,0,0,6,6,5,1,60fd8ca49ee4de5cd43d2878,610369f9e1eb1d931b7a34eb,2021-07-29_22h56.00.524,Simcolourproject_2stim_asymm_v5,2020.2.10,MacIntel,60,61025ae37ef11b136ea224fe,,,,,,,,,,,,,,,,,,,,,,,,,,,,,,,,,,,,,,,,,,,,,,
,,,,,,,,,,,,,FF,,,,,,,,5.6407,,,,,,,,,,,,,,,,,,,,,,60fd8ca49ee4de5cd43d2878,610369f9e1eb1d931b7a34eb,2021-07-29_22h56.00.524,Simcolourproject_2stim_asymm_v5,2020.2.10,MacIntel,60,61025ae37ef11b136ea224fe,,,,,,,space,3.1078,4248,53.2109375,107.8632813,1,0,0,response1disk,,7,-9.3125,2.30078125,1,0,0,rectangle,-9.3125,2.30078125,1,0,0,-9.3125,2.30078125,1,0,0,0,0,0,144,1,,,,,,,,
,,,,,,,,,,,,,FF,,,,,,,,2.2692,,,,,,,,,,,,,,,,,,,,,,60fd8ca49ee4de5cd43d2878,610369f9e1eb1d931b7a34eb,2021-07-29_22h56.00.524,Simcolourproject_2stim_asymm_v5,2020.2.10,MacIntel,60,61025ae37ef11b136ea224fe,,,,,,,,,2224,39.203125,-97.8828125,1,0,0,response3disk,,4,8.75390625,-14.87890625,1,0,0,rectangle,8.75390625,-14.87890625,1,0,0,8.75390625,-14.87890625,1,0,0,0,1,1,108,1,,,,,,,,
,,,,,,,,,,,,,FF,,,,,,,,1.0345,,,,,,,,,,,,,,,,,,,,,,60fd8ca49ee4de5cd43d2878,610369f9e1eb1d931b7a34eb,2021-07-29_22h56.00.524,Simcolourproject_2stim_asymm_v5,2020.2.10,MacIntel,60,61025ae37ef11b136ea224fe,,,,,,,,,2992,42.1796875,-107.1875,1,0,0,response3disk,,4,10.69140625,19.83203125,1,0,0,rectangle,10.69140625,19.83203125,1,0,0,10.69140625,19.83203125,1,0,0,0,2,2,36,1,,,,,,,,
,,,,,,,,,,,,,FF,,,,,,,,3.9374,,,,,,,,,,,,,,,,,,,,,,60fd8ca49ee4de5cd43d2878,610369f9e1eb1d931b7a34eb,2021-07-29_22h56.00.524,Simcolourproject_2stim_asymm_v5,2020.2.10,MacIntel,60,61025ae37ef11b136ea224fe,,,,,,,,,2771,-24.5390625,-119.96875,1,0,0,response5disk,,3,3.015625,-7.18359375,1,0,0,rectangle,3.015625,-7.18359375,1,0,0,3.015625,-7.18359375,1,0,0,0,3,3,81,1,,,,,,,,
,,,,,,,,,,,,,FF,,,,,,,,1.2349,,,,,,,,,,,,,,,,,,,,,,60fd8ca49ee4de5cd43d2878,610369f9e1eb1d931b7a34eb,2021-07-29_22h56.00.524,Simcolourproject_2stim_asymm_v5,2020.2.10,MacIntel,60,61025ae37ef11b136ea224fe,,,,,,,,,1141,-43.99609375,-103.6679688,1,0,0,response5disk,,3,2.9765625,4.1171875,1,0,0,rectangle,2.9765625,4.1171875,1,0,0,2.9765625,4.1171875,1,0,0,0,4,4,154,1,,,,,,,,
,,,,,,,,,,,,,FF,,,,,,,,2.5871,,,,,,,,,,,,,,,,,,,,,,60fd8ca49ee4de5cd43d2878,610369f9e1eb1d931b7a34eb,2021-07-29_22h56.00.524,Simcolourproject_2stim_asymm_v5,2020.2.10,MacIntel,60,61025ae37ef11b136ea224fe,,,,,,,,,3785,30.0390625,-125.6054688,1,0,0,response3disk,,4,-7.59765625,3.3671875,1,0,0,rectangle,-7.59765625,3.3671875,1,0,0,-7.59765625,3.3671875,1,0,0,0,5,5,60,1,,,,,,,,
,,,,,,,,,,,,,FF,,,,,,,,1.1504,,,,,,,,,,,,,,,,,,,,,,60fd8ca49ee4de5cd43d2878,610369f9e1eb1d931b7a34eb,2021-07-29_22h56.00.524,Simcolourproject_2stim_asymm_v5,2020.2.10,MacIntel,60,61025ae37ef11b136ea224fe,,,,,,,,,739,-50.078125,-111.1015625,1,0,0,response5disk,,3,14.17578125,7.15625,1,0,0,rectangle,14.17578125,7.15625,1,0,0,14.17578125,7.15625,1,0,0,0,6,6,2,1,,,,,,,,
,,,,,,,,,,,,,FF,,,,,,,,2.8353,,,,,,,,,,,,,,,,,,,,,,60fd8ca49ee4de5cd43d2878,610369f9e1eb1d931b7a34eb,2021-07-29_22h56.00.524,Simcolourproject_2stim_asymm_v5,2020.2.10,MacIntel,60,61025ae37ef11b136ea224fe,,,,,,,,,948,118.1015625,-26.41015625,1,0,0,response3disk,,5,0.20703125,-3.26171875,1,0,0,rectangle,0.20703125,-3.26171875,1,0,0,0.20703125,-3.26171875,1,0,0,0,7,7,121,1,,,,,,,,
,,,,,,,,,,,,,FF,,,,,,,,3.0031,,,,,,,,,,,,,,,,,,,,,,60fd8ca49ee4de5cd43d2878,610369f9e1eb1d931b7a34eb,2021-07-29_22h56.00.524,Simcolourproject_2stim_asymm_v5,2020.2.10,MacIntel,60,61025ae37ef11b136ea224fe,,,,,,,,,3185,112.875,-52.78515625,1,0,0,response3disk,,5,-5.25390625,-1.40234375,1,0,0,rectangle,-5.25390625,-1.40234375,1,0,0,-5.25390625,-1.40234375,1,0,0,0,8,8,57,1,,,,,,,,
,,,,,,,,,,,,,FF,,,,,,,,1.4514,,,,,,,,,,,,,,,,,,,,,,60fd8ca49ee4de5cd43d2878,610369f9e1eb1d931b7a34eb,2021-07-29_22h56.00.524,Simcolourproject_2stim_asymm_v5,2020.2.10,MacIntel,60,61025ae37ef11b136ea224fe,,,,,,,,,1828,-68.59375,-120.8320313,1,0,0,response5disk,,3,0.28515625,-3.0859375,1,0,0,rectangle,120.6679688,77.75,1,0,0,6.1875,-5.5234375,1,0,0,0,9,9,156,1,,response1disk_3,TRUE,6,6,"[65,209,10,215,179,135,260,170,214,81,238,37,46,146,224,166,221,181,30,171]",1.851,rectangle
,,,,,,,,,,,,,FF,,,,,,,,2.8713,,,,,,,,,,,,,,,,,,,,,,60fd8ca49ee4de5cd43d2878,610369f9e1eb1d931b7a34eb,2021-07-29_22h56.00.524,Simcolourproject_2stim_asymm_v5,2020.2.10,MacIntel,60,61025ae37ef11b136ea224fe,,,,,,,,,3377,-111.265625,-63.52734375,1,0,0,response5disk,,2,24.8046875,-2.51953125,1,0,0,rectangle,24.8046875,-2.51953125,1,0,0,24.8046875,-2.51953125,1,0,0,0,10,10,74,1,,,,,,,,
,,,,,,,,,,,,,FF,,,,,,,,1.5509,,,,,,,,,,,,,,,,,,,,,,60fd8ca49ee4de5cd43d2878,610369f9e1eb1d931b7a34eb,2021-07-29_22h56.00.524,Simcolourproject_2stim_asymm_v5,2020.2.10,MacIntel,60,61025ae37ef11b136ea224fe,,,,,,,,,2130,103.9492188,-66.00390625,1,0,0,response3disk,,5,5.890625,-3.6015625,1,0,0,rectangle,5.890625,-3.6015625,1,0,0,5.890625,-3.6015625,1,0,0,0,11,11,106,1,,,,,,,,
,,,,,,,,,,,,,FF,,,,,,,,2.9873,,,,,,,,,,,,,,,,,,,,,,60fd8ca49ee4de5cd43d2878,610369f9e1eb1d931b7a34eb,2021-07-29_22h56.00.524,Simcolourproject_2stim_asymm_v5,2020.2.10,MacIntel,60,61025ae37ef11b136ea224fe,,,,,,,,,3074,119.875,59.04296875,1,0,0,response1disk,,6,-8.0390625,8.46875,1,0,0,rectangle,-8.0390625,8.46875,1,0,0,-8.0390625,8.46875,1,0,0,0,12,12,130,1,,,,,,,,
,,,,,,,,,,,,,FF,,,,,,,,1.3345,,,,,,,,,,,,,,,,,,,,,,60fd8ca49ee4de5cd43d2878,610369f9e1eb1d931b7a34eb,2021-07-29_22h56.00.524,Simcolourproject_2stim_asymm_v5,2020.2.10,MacIntel,60,61025ae37ef11b136ea224fe,,,,,,,,,858,55.29296875,103.1679688,1,0,0,response1disk,,7,8.28515625,4.140625,1,0,0,rectangle,8.28515625,4.140625,1,0,0,8.28515625,4.140625,1,0,0,0,13,13,4,1,,,,,,,,
,,,,,,,,,,,,,FF,,,,,,,,4.205,,,,,,,,,,,,,,,,,,,,,,60fd8ca49ee4de5cd43d2878,610369f9e1eb1d931b7a34eb,2021-07-29_22h56.00.524,Simcolourproject_2stim_asymm_v5,2020.2.10,MacIntel,60,61025ae37ef11b136ea224fe,,,,,,,,,475,38.5390625,-118.9960938,1,0,0,response3disk,,4,-18.72265625,-9.6875,1,0,0,rectangle,-18.72265625,-9.6875,1,0,0,-18.72265625,-9.6875,1,0,0,0,14,14,9,1,,,,,,,,
,,,,,,,,,,,,,FF,,,,,,,,3.3054,,,,,,,,,,,,,,,,,,,,,,60fd8ca49ee4de5cd43d2878,610369f9e1eb1d931b7a34eb,2021-07-29_22h56.00.524,Simcolourproject_2stim_asymm_v5,2020.2.10,MacIntel,60,61025ae37ef11b136ea224fe,,,,,,,,,3801,57.4765625,101.2265625,1,0,0,response1disk,,7,19.13671875,14.4921875,1,0,0,rectangle,19.13671875,14.4921875,1,0,0,19.13671875,14.4921875,1,0,0,0,15,15,76,1,,,,,,,,
,,,,,,,,,,,,,FF,,,,,,,,2.1351,,,,,,,,,,,,,,,,,,,,,,60fd8ca49ee4de5cd43d2878,610369f9e1eb1d931b7a34eb,2021-07-29_22h56.00.524,Simcolourproject_2stim_asymm_v5,2020.2.10,MacIntel,60,61025ae37ef11b136ea224fe,,,,,,,,,1148,-26.1328125,-109.9453125,1,0,0,response5disk,,3,9.15625,5.52734375,1,0,0,rectangle,9.15625,5.52734375,1,0,0,9.15625,5.52734375,1,0,0,0,16,16,70,1,,,,,,,,
,,,,,,,,,,,,,FF,,,,,,,,2.8191,,,,,,,,,,,,,,,,,,,,,,60fd8ca49ee4de5cd43d2878,610369f9e1eb1d931b7a34eb,2021-07-29_22h56.00.524,Simcolourproject_2stim_asymm_v5,2020.2.10,MacIntel,60,61025ae37ef11b136ea224fe,,,,,,,,,1943,116.7578125,-60.328125,1,0,0,response3disk,,5,-13.875,-8.9453125,1,0,0,rectangle,-13.875,-8.9453125,1,0,0,-13.875,-8.9453125,1,0,0,0,17,17,11,1,,,,,,,,
,,,,,,,,,,,,,FF,,,,,,,,1.0511,,,,,,,,,,,,,,,,,,,,,,60fd8ca49ee4de5cd43d2878,610369f9e1eb1d931b7a34eb,2021-07-29_22h56.00.524,Simcolourproject_2stim_asymm_v5,2020.2.10,MacIntel,60,61025ae37ef11b136ea224fe,,,,,,,,,2789,51.859375,-93.84375,1,0,0,response3disk,,4,-5.17578125,-19.65234375,1,0,0,rectangle,-5.17578125,-19.65234375,1,0,0,-5.17578125,-19.65234375,1,0,0,0,18,18,136,1,,,,,,,,
,,,,,,,,,,,,,FF,,,,,,,,1.1349,,,,,,,,,,,,,,,,,,,,,,60fd8ca49ee4de5cd43d2878,610369f9e1eb1d931b7a34eb,2021-07-29_22h56.00.524,Simcolourproject_2stim_asymm_v5,2020.2.10,MacIntel,60,61025ae37ef11b136ea224fe,,,,,,,,,394,104.7382813,59.17578125,1,0,0,response1disk,,6,-8.3359375,-8.05078125,1,0,0,rectangle,-8.3359375,-8.05078125,1,0,0,-8.3359375,-8.05078125,1,0,0,0,19,19,38,1,,,,,,,,
,,,,,,,,,,,,,FF,,,,,,,,1.786,,,,,,,,,,,,,,,,,,,,,,60fd8ca49ee4de5cd43d2878,610369f9e1eb1d931b7a34eb,2021-07-29_22h56.00.524,Simcolourproject_2stim_asymm_v5,2020.2.10,MacIntel,60,61025ae37ef11b136ea224fe,,,,,,,,,2714,114.0078125,-71.0546875,1,0,0,response3disk,,5,-0.1015625,-4.8046875,1,0,0,rectangle,-0.1015625,-4.8046875,1,0,0,-0.1015625,-4.8046875,1,0,0,0,20,20,28,1,,,,,,,,
,,,,,,,,,,,,,FF,,,,,,,,2.1031,,,,,,,,,,,,,,,,,,,,,,60fd8ca49ee4de5cd43d2878,610369f9e1eb1d931b7a34eb,2021-07-29_22h56.00.524,Simcolourproject_2stim_asymm_v5,2020.2.10,MacIntel,60,61025ae37ef11b136ea224fe,,,,,,,,,3982,34.43359375,-108.90625,1,0,0,response3disk,,4,13.26171875,0.78515625,1,0,0,rectangle,13.26171875,0.78515625,1,0,0,13.26171875,0.78515625,1,0,0,0,21,21,64,1,,,,,,,,
,,,,,,,,,,,,,FF,,,,,,,,3.9902,,,,,,,,,,,,,,,,,,,,,,60fd8ca49ee4de5cd43d2878,610369f9e1eb1d931b7a34eb,2021-07-29_22h56.00.524,Simcolourproject_2stim_asymm_v5,2020.2.10,MacIntel,60,61025ae37ef11b136ea224fe,,,,,,,,,953,55.5859375,-102.4921875,1,0,0,response3disk,,4,7.86328125,-4.625,1,0,0,rectangle,7.86328125,-4.625,1,0,0,7.86328125,-4.625,1,0,0,0,22,22,29,1,,,,,,,,
,,,,,,,,,,,,,FF,,,,,,,,3.4545,,,,,,,,,,,,,,,,,,,,,,60fd8ca49ee4de5cd43d2878,610369f9e1eb1d931b7a34eb,2021-07-29_22h56.00.524,Simcolourproject_2stim_asymm_v5,2020.2.10,MacIntel,60,61025ae37ef11b136ea224fe,,,,,,,,,958,113.8085938,75.265625,1,0,0,response1disk,,6,19.6328125,-2.6875,1,0,0,rectangle,19.6328125,-2.6875,1,0,0,19.6328125,-2.6875,1,0,0,0,23,23,84,1,,,,,,,,
,,,,,,,,,,,,,FF,,,,,,,,1.3182,,,,,,,,,,,,,,,,,,,,,,60fd8ca49ee4de5cd43d2878,610369f9e1eb1d931b7a34eb,2021-07-29_22h56.00.524,Simcolourproject_2stim_asymm_v5,2020.2.10,MacIntel,60,61025ae37ef11b136ea224fe,,,,,,,,,3713,51.4375,-94.5,1,0,0,response3disk,,4,-41.3125,-6.9609375,1,0,0,rectangle,-41.3125,-6.9609375,1,0,0,-41.3125,-6.9609375,1,0,0,0,24,24,102,1,,,,,,,,
,,,,,,,,,,,,,FF,,,,,,,,0.801,,,,,,,,,,,,,,,,,,,,,,60fd8ca49ee4de5cd43d2878,610369f9e1eb1d931b7a34eb,2021-07-29_22h56.00.524,Simcolourproject_2stim_asymm_v5,2020.2.10,MacIntel,60,61025ae37ef11b136ea224fe,,,,,,,,,3810,41.00390625,-99.1640625,1,0,0,response3disk,,4,7.77734375,-16.05859375,1,0,0,rectangle,7.77734375,-16.05859375,1,0,0,7.77734375,-16.05859375,1,0,0,0,25,25,97,1,,,,,,,,
,,,,,,,,,,,,,FF,,,,,,,,2.1703,,,,,,,,,,,,,,,,,,,,,,60fd8ca49ee4de5cd43d2878,610369f9e1eb1d931b7a34eb,2021-07-29_22h56.00.524,Simcolourproject_2stim_asymm_v5,2020.2.10,MacIntel,60,61025ae37ef11b136ea224fe,,,,,,,,,3405,49.91796875,-88.3125,1,0,0,response3disk,,4,25.515625,-9.765625,1,0,0,rectangle,25.515625,-9.765625,1,0,0,25.515625,-9.765625,1,0,0,0,26,26,58,1,,,,,,,,
,,,,,,,,,,,,,FF,,,,,,,,3.2364,,,,,,,,,,,,,,,,,,,,,,60fd8ca49ee4de5cd43d2878,610369f9e1eb1d931b7a34eb,2021-07-29_22h56.00.524,Simcolourproject_2stim_asymm_v5,2020.2.10,MacIntel,60,61025ae37ef11b136ea224fe,,,,,,,,,3672,60.953125,-113.9960938,1,0,0,response3disk,,4,-15.26171875,-12.81640625,1,0,0,rectangle,-15.26171875,-12.81640625,1,0,0,-15.26171875,-12.81640625,1,0,0,0,27,27,75,1,,,,,,,,
,,,,,,,,,,,,,FF,,,,,,,,3.57,,,,,,,,,,,,,,,,,,,,,,60fd8ca49ee4de5cd43d2878,610369f9e1eb1d931b7a34eb,2021-07-29_22h56.00.524,Simcolourproject_2stim_asymm_v5,2020.2.10,MacIntel,60,61025ae37ef11b136ea224fe,,,,,,,,,3211,-75.81640625,-114.5117188,1,0,0,response5disk,,3,10.3984375,-7.328125,1,0,0,rectangle,10.3984375,-7.328125,1,0,0,10.3984375,-7.328125,1,0,0,0,28,28,72,1,,,,,,,,
,,,,,,,,,,,,,FF,,,,,,,,1.2187,,,,,,,,,,,,,,,,,,,,,,60fd8ca49ee4de5cd43d2878,610369f9e1eb1d931b7a34eb,2021-07-29_22h56.00.524,Simcolourproject_2stim_asymm_v5,2020.2.10,MacIntel,60,61025ae37ef11b136ea224fe,,,,,,,,,3919,-95.59375,-64.5,1,0,0,response5disk,,2,24.17578125,-5.6015625,1,0,0,rectangle,132.0898438,57.97265625,1,0,0,7.265625,5.0625,1,0,0,0,29,29,78,1,,response1disk_3,TRUE,6,6,"[65,209,10,215,179,135,260,170,214,81,238,37,46,146,224,166,221,181,30,171]",1.8359,rectangle
,,,,,,,,,,,,,FF,,,,,,,,1.5353,,,,,,,,,,,,,,,,,,,,,,60fd8ca49ee4de5cd43d2878,610369f9e1eb1d931b7a34eb,2021-07-29_22h56.00.524,Simcolourproject_2stim_asymm_v5,2020.2.10,MacIntel,60,61025ae37ef11b136ea224fe,,,,,,,,,193,-97.93359375,-77.57421875,1,0,0,response5disk,,2,14.62890625,-11.87109375,1,0,0,rectangle,14.62890625,-11.87109375,1,0,0,14.62890625,-11.87109375,1,0,0,0,30,30,127,1,,,,,,,,
,,,,,,,,,,,,,FF,,,,,,,,2.6035,,,,,,,,,,,,,,,,,,,,,,60fd8ca49ee4de5cd43d2878,610369f9e1eb1d931b7a34eb,2021-07-29_22h56.00.524,Simcolourproject_2stim_asymm_v5,2020.2.10,MacIntel,60,61025ae37ef11b136ea224fe,,,,,,,,,2989,96.671875,-59.40234375,1,0,0,response3disk,,5,-0.171875,2.32421875,1,0,0,rectangle,-0.171875,2.32421875,1,0,0,-0.171875,2.32421875,1,0,0,0,31,31,151,1,,,,,,,,
,,,,,,,,,,,,,FF,,,,,,,,4.1867,,,,,,,,,,,,,,,,,,,,,,60fd8ca49ee4de5cd43d2878,610369f9e1eb1d931b7a34eb,2021-07-29_22h56.00.524,Simcolourproject_2stim_asymm_v5,2020.2.10,MacIntel,60,61025ae37ef11b136ea224fe,,,,,,,,,1173,58.17578125,-89.2265625,1,0,0,response3disk,,4,13.375,-13.84375,1,0,0,rectangle,13.375,-13.84375,1,0,0,13.375,-13.84375,1,0,0,0,32,32,59,1,,,,,,,,
,,,,,,,,,,,,,FF,,,,,,,,3.054,,,,,,,,,,,,,,,,,,,,,,60fd8ca49ee4de5cd43d2878,610369f9e1eb1d931b7a34eb,2021-07-29_22h56.00.524,Simcolourproject_2stim_asymm_v5,2020.2.10,MacIntel,60,61025ae37ef11b136ea224fe,,,,,,,,,1008,93.4375,-53.265625,1,0,0,response3disk,,5,-27.296875,6.78515625,1,0,0,rectangle,-27.296875,6.78515625,1,0,0,-27.296875,6.78515625,1,0,0,0,33,33,37,1,,,,,,,,
,,,,,,,,,,,,,FF,,,,,,,,1.5346,,,,,,,,,,,,,,,,,,,,,,60fd8ca49ee4de5cd43d2878,610369f9e1eb1d931b7a34eb,2021-07-29_22h56.00.524,Simcolourproject_2stim_asymm_v5,2020.2.10,MacIntel,60,61025ae37ef11b136ea224fe,,,,,,,,,4308,104.8554688,48.10546875,1,0,0,response1disk,,6,10.1015625,-3.875,1,0,0,rectangle,10.1015625,-3.875,1,0,0,10.1015625,-3.875,1,0,0,0,34,34,123,1,,,,,,,,
,,,,,,,,,,,,,FF,,,,,,,,2.5848,,,,,,,,,,,,,,,,,,,,,,60fd8ca49ee4de5cd43d2878,610369f9e1eb1d931b7a34eb,2021-07-29_22h56.00.524,Simcolourproject_2stim_asymm_v5,2020.2.10,MacIntel,60,61025ae37ef11b136ea224fe,,,,,,,,,2921,115.5703125,53.8359375,1,0,0,response1disk,,6,-11.05078125,-13.89453125,1,0,0,rectangle,-11.05078125,-13.89453125,1,0,0,-11.05078125,-13.89453125,1,0,0,0,35,35,24,1,,,,,,,,
,,,,,,,,,,,,,FF,,,,,,,,3.3709,,,,,,,,,,,,,,,,,,,,,,60fd8ca49ee4de5cd43d2878,610369f9e1eb1d931b7a34eb,2021-07-29_22h56.00.524,Simcolourproject_2stim_asymm_v5,2020.2.10,MacIntel,60,61025ae37ef11b136ea224fe,,,,,,,,,1266,98.9765625,-46.28515625,1,0,0,response3disk,,5,13.19140625,0.96484375,1,0,0,rectangle,36.94140625,107.1289063,1,0,0,10.7109375,-2.203125,1,0,0,0,36,36,158,1,,response1disk_3,TRUE,7,7,"[65,209,10,215,179,135,260,170,214,81,238,37,46,146,224,166,221,181,30,171]",2.2028,rectangle
,,,,,,,,,,,,,FF,,,,,,,,1.6698,,,,,,,,,,,,,,,,,,,,,,60fd8ca49ee4de5cd43d2878,610369f9e1eb1d931b7a34eb,2021-07-29_22h56.00.524,Simcolourproject_2stim_asymm_v5,2020.2.10,MacIntel,60,61025ae37ef11b136ea224fe,,,,,,,,,2040,-87.19921875,-69.15625,1,0,0,response5disk,,2,-2.328125,-15.44140625,1,0,0,rectangle,-2.328125,-15.44140625,1,0,0,-2.328125,-15.44140625,1,0,0,0,37,37,95,1,,,,,,,,
,,,,,,,,,,,,,FF,,,,,,,,2.6525,,,,,,,,,,,,,,,,,,,,,,60fd8ca49ee4de5cd43d2878,610369f9e1eb1d931b7a34eb,2021-07-29_22h56.00.524,Simcolourproject_2stim_asymm_v5,2020.2.10,MacIntel,60,61025ae37ef11b136ea224fe,,,,,,,,,3078,110.6367188,26.53125,1,0,0,response1disk,,6,6.8359375,10.2421875,1,0,0,rectangle,6.8359375,10.2421875,1,0,0,6.8359375,10.2421875,1,0,0,0,38,38,114,1,,,,,,,,
,,,,,,,,,,,,,FF,,,,,,,,2.1856,,,,,,,,,,,,,,,,,,,,,,60fd8ca49ee4de5cd43d2878,610369f9e1eb1d931b7a34eb,2021-07-29_22h56.00.524,Simcolourproject_2stim_asymm_v5,2020.2.10,MacIntel,60,61025ae37ef11b136ea224fe,,,,,,,,,1638,42.59765625,86.14453125,1,0,0,response1disk,,7,2.34765625,-8.03125,1,0,0,rectangle,2.34765625,-8.03125,1,0,0,2.34765625,-8.03125,1,0,0,0,39,39,15,1,,,,,,,,
,,,,,,,,,,,,,FF,,,,,,,,1.2528,,,,,,,,,,,,,,,,,,,,,,60fd8ca49ee4de5cd43d2878,610369f9e1eb1d931b7a34eb,2021-07-29_22h56.00.524,Simcolourproject_2stim_asymm_v5,2020.2.10,MacIntel,60,61025ae37ef11b136ea224fe,,,,,,,,,1687,-59.42578125,-95.59375,1,0,0,response5disk,,3,-19.2421875,-7.79296875,1,0,0,rectangle,-19.2421875,-7.79296875,1,0,0,-19.2421875,-7.79296875,1,0,0,0,40,40,46,1,,,,,,,,
,,,,,,,,,,,,,FF,,,,,,,,2.0521,,,,,,,,,,,,,,,,,,,,,,60fd8ca49ee4de5cd43d2878,610369f9e1eb1d931b7a34eb,2021-07-29_22h56.00.524,Simcolourproject_2stim_asymm_v5,2020.2.10,MacIntel,60,61025ae37ef11b136ea224fe,,,,,,,,,1838,37.1875,-110.7226563,1,0,0,response3disk,,4,-0.84765625,1.87890625,1,0,0,rectangle,-0.84765625,1.87890625,1,0,0,-0.84765625,1.87890625,1,0,0,0,41,41,148,1,,,,,,,,
,,,,,,,,,,,,,FF,,,,,,,,2.7361,,,,,,,,,,,,,,,,,,,,,,60fd8ca49ee4de5cd43d2878,610369f9e1eb1d931b7a34eb,2021-07-29_22h56.00.524,Simcolourproject_2stim_asymm_v5,2020.2.10,MacIntel,60,61025ae37ef11b136ea224fe,,,,,,,,,356,54.83203125,-89.703125,1,0,0,response3disk,,4,-27.26171875,-8.8203125,1,0,0,rectangle,-27.26171875,-8.8203125,1,0,0,-27.26171875,-8.8203125,1,0,0,0,42,42,66,1,,,,,,,,
,,,,,,,,,,,,,FF,,,,,,,,1.051,,,,,,,,,,,,,,,,,,,,,,60fd8ca49ee4de5cd43d2878,610369f9e1eb1d931b7a34eb,2021-07-29_22h56.00.524,Simcolourproject_2stim_asymm_v5,2020.2.10,MacIntel,60,61025ae37ef11b136ea224fe,,,,,,,,,1034,-30.0078125,-108.578125,1,0,0,response5disk,,3,17.12109375,1.02734375,1,0,0,rectangle,17.12109375,1.02734375,1,0,0,17.12109375,1.02734375,1,0,0,0,43,43,33,1,,,,,,,,
,,,,,,,,,,,,,FF,,,,,,,,0.8011,,,,,,,,,,,,,,,,,,,,,,60fd8ca49ee4de5cd43d2878,610369f9e1eb1d931b7a34eb,2021-07-29_22h56.00.524,Simcolourproject_2stim_asymm_v5,2020.2.10,MacIntel,60,61025ae37ef11b136ea224fe,,,,,,,,,975,-131.1953125,-60.8125,1,0,0,response5disk,,2,15.8515625,21.44921875,1,0,0,rectangle,15.8515625,21.44921875,1,0,0,15.8515625,21.44921875,1,0,0,0,44,44,124,1,,,,,,,,
,,,,,,,,,,,,,FF,,,,,,,,2.3027,,,,,,,,,,,,,,,,,,,,,,60fd8ca49ee4de5cd43d2878,610369f9e1eb1d931b7a34eb,2021-07-29_22h56.00.524,Simcolourproject_2stim_asymm_v5,2020.2.10,MacIntel,60,61025ae37ef11b136ea224fe,,,,,,,,,1101,117.421875,-75.1796875,1,0,0,response3disk,,5,13.58203125,-4.21484375,1,0,0,rectangle,116.7734375,56.64453125,1,0,0,11.7265625,3.75390625,1,0,0,0,45,45,149,1,,response1disk_3,TRUE,6,6,"[65,209,10,215,179,135,260,170,214,81,238,37,46,146,224,166,221,181,30,171]",1.6188,rectangle
,,,,,,,,,,,,,FF,,,,,,,,1.7353,,,,,,,,,,,,,,,,,,,,,,60fd8ca49ee4de5cd43d2878,610369f9e1eb1d931b7a34eb,2021-07-29_22h56.00.524,Simcolourproject_2stim_asymm_v5,2020.2.10,MacIntel,60,61025ae37ef11b136ea224fe,,,,,,,,,3092,-47.57421875,-105.8125,1,0,0,response5disk,,3,19.6015625,1.890625,1,0,0,rectangle,19.6015625,1.890625,1,0,0,19.6015625,1.890625,1,0,0,0,46,46,48,1,,,,,,,,
,,,,,,,,,,,,,FF,,,,,,,,1.2016,,,,,,,,,,,,,,,,,,,,,,60fd8ca49ee4de5cd43d2878,610369f9e1eb1d931b7a34eb,2021-07-29_22h56.00.524,Simcolourproject_2stim_asymm_v5,2020.2.10,MacIntel,60,61025ae37ef11b136ea224fe,,,,,,,,,4052,-89.4375,-51.6953125,1,0,0,response5disk,,2,4.640625,-1.51953125,1,0,0,rectangle,4.640625,-1.51953125,1,0,0,4.640625,-1.51953125,1,0,0,0,47,47,115,1,,,,,,,,
,,,,,,,,,,,,,FF,,,,,,,,1.7844,,,,,,,,,,,,,,,,,,,,,,60fd8ca49ee4de5cd43d2878,610369f9e1eb1d931b7a34eb,2021-07-29_22h56.00.524,Simcolourproject_2stim_asymm_v5,2020.2.10,MacIntel,60,61025ae37ef11b136ea224fe,,,,,,,,,4018,98.3125,37.24609375,1,0,0,response1disk,,6,-24.45703125,11.85546875,1,0,0,rectangle,-24.45703125,11.85546875,1,0,0,-24.45703125,11.85546875,1,0,0,0,48,48,17,1,,,,,,,,
,,,,,,,,,,,,,FF,,,,,,,,3.7055,,,,,,,,,,,,,,,,,,,,,,60fd8ca49ee4de5cd43d2878,610369f9e1eb1d931b7a34eb,2021-07-29_22h56.00.524,Simcolourproject_2stim_asymm_v5,2020.2.10,MacIntel,60,61025ae37ef11b136ea224fe,,,,,,,,,2173,-56.359375,-121.4257813,1,0,0,response5disk,,3,-15.2421875,-0.51953125,1,0,0,rectangle,-15.2421875,-0.51953125,1,0,0,-15.2421875,-0.51953125,1,0,0,0,49,49,104,1,,,,,,,,
,,,,,,,,,,,,,FF,,,,,,,,6.9733,,,,,,,,,,,,,,,,,,,,,,60fd8ca49ee4de5cd43d2878,610369f9e1eb1d931b7a34eb,2021-07-29_22h56.00.524,Simcolourproject_2stim_asymm_v5,2020.2.10,MacIntel,60,61025ae37ef11b136ea224fe,,,,,,,,,1850,99.796875,-60.56640625,1,0,0,response3disk,,5,11.46484375,-13.12109375,1,0,0,rectangle,11.46484375,-13.12109375,1,0,0,11.46484375,-13.12109375,1,0,0,0,50,50,43,1,,,,,,,,
,,,,,,,,,,,,,FF,,,,,,,,1.1851,,,,,,,,,,,,,,,,,,,,,,60fd8ca49ee4de5cd43d2878,610369f9e1eb1d931b7a34eb,2021-07-29_22h56.00.524,Simcolourproject_2stim_asymm_v5,2020.2.10,MacIntel,60,61025ae37ef11b136ea224fe,,,,,,,,,2546,-107.7070313,-46.796875,1,0,0,response5disk,,2,-2.61328125,12.49609375,1,0,0,rectangle,-2.61328125,12.49609375,1,0,0,-2.61328125,12.49609375,1,0,0,0,51,51,20,1,,,,,,,,
,,,,,,,,,,,,,FF,,,,,,,,1.5025,,,,,,,,,,,,,,,,,,,,,,60fd8ca49ee4de5cd43d2878,610369f9e1eb1d931b7a34eb,2021-07-29_22h56.00.524,Simcolourproject_2stim_asymm_v5,2020.2.10,MacIntel,60,61025ae37ef11b136ea224fe,,,,,,,,,100,38.6640625,-111.0429688,1,0,0,response3disk,,4,-10.23828125,-8.76171875,1,0,0,rectangle,-10.23828125,-8.76171875,1,0,0,-10.23828125,-8.76171875,1,0,0,0,52,52,53,1,,,,,,,,
,,,,,,,,,,,,,FF,,,,,,,,2.0695,,,,,,,,,,,,,,,,,,,,,,60fd8ca49ee4de5cd43d2878,610369f9e1eb1d931b7a34eb,2021-07-29_22h56.00.524,Simcolourproject_2stim_asymm_v5,2020.2.10,MacIntel,60,61025ae37ef11b136ea224fe,,,,,,,,,4305,-81.90625,-58.91015625,1,0,0,response5disk,,2,-24.0234375,1.1328125,1,0,0,rectangle,-24.0234375,1.1328125,1,0,0,-24.0234375,1.1328125,1,0,0,0,53,53,51,1,,,,,,,,
,,,,,,,,,,,,,FF,,,,,,,,1.6189,,,,,,,,,,,,,,,,,,,,,,60fd8ca49ee4de5cd43d2878,610369f9e1eb1d931b7a34eb,2021-07-29_22h56.00.524,Simcolourproject_2stim_asymm_v5,2020.2.10,MacIntel,60,61025ae37ef11b136ea224fe,,,,,,,,,2110,112.2851563,-54.3984375,1,0,0,response3disk,,5,-5.203125,-6.796875,1,0,0,rectangle,-5.203125,-6.796875,1,0,0,-5.203125,-6.796875,1,0,0,0,54,54,88,1,,,,,,,,
,,,,,,,,,,,,,FF,,,,,,,,1.7028,,,,,,,,,,,,,,,,,,,,,,60fd8ca49ee4de5cd43d2878,610369f9e1eb1d931b7a34eb,2021-07-29_22h56.00.524,Simcolourproject_2stim_asymm_v5,2020.2.10,MacIntel,60,61025ae37ef11b136ea224fe,,,,,,,,,3111,92.1640625,-27.40625,1,0,0,response3disk,,5,9.83203125,-13.703125,1,0,0,rectangle,9.83203125,-13.703125,1,0,0,9.83203125,-13.703125,1,0,0,0,55,55,6,1,,,,,,,,
,,,,,,,,,,,,,FF,,,,,,,,1.0672,,,,,,,,,,,,,,,,,,,,,,60fd8ca49ee4de5cd43d2878,610369f9e1eb1d931b7a34eb,2021-07-29_22h56.00.524,Simcolourproject_2stim_asymm_v5,2020.2.10,MacIntel,60,61025ae37ef11b136ea224fe,,,,,,,,,2295,-85.25,-60.6015625,1,0,0,response5disk,,2,-6.39453125,-10.859375,1,0,0,rectangle,-6.39453125,-10.859375,1,0,0,-6.39453125,-10.859375,1,0,0,0,56,56,87,1,,,,,,,,
,,,,,,,,,,,,,FF,,,,,,,,1.3013,,,,,,,,,,,,,,,,,,,,,,60fd8ca49ee4de5cd43d2878,610369f9e1eb1d931b7a34eb,2021-07-29_22h56.00.524,Simcolourproject_2stim_asymm_v5,2020.2.10,MacIntel,60,61025ae37ef11b136ea224fe,,,,,,,,,77,-102,43.9921875,1,0,0,response7disk,,1,-21.75,5.06640625,1,0,0,rectangle,-21.75,5.06640625,1,0,0,-21.75,5.06640625,1,0,0,0,57,57,113,1,,,,,,,,
,,,,,,,,,,,,,FF,,,,,,,,1.3687,,,,,,,,,,,,,,,,,,,,,,60fd8ca49ee4de5cd43d2878,610369f9e1eb1d931b7a34eb,2021-07-29_22h56.00.524,Simcolourproject_2stim_asymm_v5,2020.2.10,MacIntel,60,61025ae37ef11b136ea224fe,,,,,,,,,2166,-95.5859375,38.921875,1,0,0,response7disk,,1,-8.97265625,-4.39453125,1,0,0,rectangle,-8.97265625,-4.39453125,1,0,0,-8.97265625,-4.39453125,1,0,0,0,58,58,152,1,,,,,,,,
,,,,,,,,,,,,,FF,,,,,,,,1.0997,,,,,,,,,,,,,,,,,,,,,,60fd8ca49ee4de5cd43d2878,610369f9e1eb1d931b7a34eb,2021-07-29_22h56.00.524,Simcolourproject_2stim_asymm_v5,2020.2.10,MacIntel,60,61025ae37ef11b136ea224fe,,,,,,,,,3898,-114.5507813,-56.88671875,1,0,0,response5disk,,2,-8.75,-8.62109375,1,0,0,rectangle,-8.75,-8.62109375,1,0,0,-8.75,-8.62109375,1,0,0,0,59,59,39,1,,,,,,,,
,,,,,,,,,,,,,FF,,,,,,,,1.1499,,,,,,,,,,,,,,,,,,,,,,60fd8ca49ee4de5cd43d2878,610369f9e1eb1d931b7a34eb,2021-07-29_22h56.00.524,Simcolourproject_2stim_asymm_v5,2020.2.10,MacIntel,60,61025ae37ef11b136ea224fe,,,,,,,,,3538,46.55078125,108.859375,1,0,0,response1disk,,7,-17.76171875,-15.984375,1,0,0,rectangle,-17.76171875,-15.984375,1,0,0,-17.76171875,-15.984375,1,0,0,0,60,60,117,1,,,,,,,,
,,,,,,,,,,,,,FF,,,,,,,,2.4691,,,,,,,,,,,,,,,,,,,,,,60fd8ca49ee4de5cd43d2878,610369f9e1eb1d931b7a34eb,2021-07-29_22h56.00.524,Simcolourproject_2stim_asymm_v5,2020.2.10,MacIntel,60,61025ae37ef11b136ea224fe,,,,,,,,,3674,-42.625,-97.171875,1,0,0,response5disk,,3,3.859375,2.27734375,1,0,0,rectangle,3.859375,2.27734375,1,0,0,3.859375,2.27734375,1,0,0,0,61,61,137,1,,,,,,,,
,,,,,,,,,,,,,FF,,,,,,,,1.9363,,,,,,,,,,,,,,,,,,,,,,60fd8ca49ee4de5cd43d2878,610369f9e1eb1d931b7a34eb,2021-07-29_22h56.00.524,Simcolourproject_2stim_asymm_v5,2020.2.10,MacIntel,60,61025ae37ef11b136ea224fe,,,,,,,,,1426,83.07421875,-64.53125,1,0,0,response3disk,,5,10.2421875,-3.9609375,1,0,0,rectangle,10.2421875,-3.9609375,1,0,0,10.2421875,-3.9609375,1,0,0,0,62,62,153,1,,,,,,,,
,,,,,,,,,,,,,FF,,,,,,,,1.3686,,,,,,,,,,,,,,,,,,,,,,60fd8ca49ee4de5cd43d2878,610369f9e1eb1d931b7a34eb,2021-07-29_22h56.00.524,Simcolourproject_2stim_asymm_v5,2020.2.10,MacIntel,60,61025ae37ef11b136ea224fe,,,,,,,,,3847,43.23828125,-98.76171875,1,0,0,response3disk,,4,3.234375,-6.21875,1,0,0,rectangle,3.234375,-6.21875,1,0,0,3.234375,-6.21875,1,0,0,0,63,63,157,1,,,,,,,,
,,,,,,,,,,,,,FF,,,,,,,,0.8343,,,,,,,,,,,,,,,,,,,,,,60fd8ca49ee4de5cd43d2878,610369f9e1eb1d931b7a34eb,2021-07-29_22h56.00.524,Simcolourproject_2stim_asymm_v5,2020.2.10,MacIntel,60,61025ae37ef11b136ea224fe,,,,,,,,,3661,-53.59375,-99.5,1,0,0,response5disk,,3,-0.21484375,-2.19921875,1,0,0,rectangle,49.78515625,-123.4375,1,0,0,-10.07421875,-10.95703125,1,0,0,0,64,64,155,1,,response3disk_3,TRUE,4,4,"[65,209,10,215,179,135,260,170,214,81,238,37,46,146,224,166,221,181,30,171]",2.4699,rectangle
,,,,,,,,,,,,,FF,,,,,,,,0.9176,,,,,,,,,,,,,,,,,,,,,,60fd8ca49ee4de5cd43d2878,610369f9e1eb1d931b7a34eb,2021-07-29_22h56.00.524,Simcolourproject_2stim_asymm_v5,2020.2.10,MacIntel,60,61025ae37ef11b136ea224fe,,,,,,,,,4101,-59.765625,-116.7890625,1,0,0,response5disk,,3,5.6796875,9.5390625,1,0,0,rectangle,5.6796875,9.5390625,1,0,0,5.6796875,9.5390625,1,0,0,0,65,65,52,1,,,,,,,,
,,,,,,,,,,,,,FF,,,,,,,,1.7523,,,,,,,,,,,,,,,,,,,,,,60fd8ca49ee4de5cd43d2878,610369f9e1eb1d931b7a34eb,2021-07-29_22h56.00.524,Simcolourproject_2stim_asymm_v5,2020.2.10,MacIntel,60,61025ae37ef11b136ea224fe,,,,,,,,,842,99.73046875,-61.81640625,1,0,0,response3disk,,5,23.91796875,-13.12890625,1,0,0,rectangle,23.91796875,-13.12890625,1,0,0,23.91796875,-13.12890625,1,0,0,0,66,66,79,1,,,,,,,,
,,,,,,,,,,,,,FF,,,,,,,,2.4033,,,,,,,,,,,,,,,,,,,,,,60fd8ca49ee4de5cd43d2878,610369f9e1eb1d931b7a34eb,2021-07-29_22h56.00.524,Simcolourproject_2stim_asymm_v5,2020.2.10,MacIntel,60,61025ae37ef11b136ea224fe,,,,,,,,,3445,47.203125,-110.6523438,1,0,0,response3disk,,4,-12.76953125,-4.78125,1,0,0,rectangle,-12.76953125,-4.78125,1,0,0,-12.76953125,-4.78125,1,0,0,0,67,67,73,1,,,,,,,,
,,,,,,,,,,,,,FF,,,,,,,,4.6869,,,,,,,,,,,,,,,,,,,,,,60fd8ca49ee4de5cd43d2878,610369f9e1eb1d931b7a34eb,2021-07-29_22h56.00.524,Simcolourproject_2stim_asymm_v5,2020.2.10,MacIntel,60,61025ae37ef11b136ea224fe,,,,,,,,,370,111.5,-73.875,1,0,0,response3disk,,5,-29.01953125,-0.9609375,1,0,0,rectangle,-29.01953125,-0.9609375,1,0,0,-29.01953125,-0.9609375,1,0,0,0,68,68,77,1,,,,,,,,
,,,,,,,,,,,,,FF,,,,,,,,7.1409,,,,,,,,,,,,,,,,,,,,,,60fd8ca49ee4de5cd43d2878,610369f9e1eb1d931b7a34eb,2021-07-29_22h56.00.524,Simcolourproject_2stim_asymm_v5,2020.2.10,MacIntel,60,61025ae37ef11b136ea224fe,,,,,,,,,2381,123.0507813,59.66796875,1,0,0,response1disk,,6,-2.80078125,0.640625,1,0,0,rectangle,-2.80078125,0.640625,1,0,0,-2.80078125,0.640625,1,0,0,0,69,69,10,1,,,,,,,,
,,,,,,,,,,,,,FF,,,,,,,,2.1855,,,,,,,,,,,,,,,,,,,,,,60fd8ca49ee4de5cd43d2878,610369f9e1eb1d931b7a34eb,2021-07-29_22h56.00.524,Simcolourproject_2stim_asymm_v5,2020.2.10,MacIntel,60,61025ae37ef11b136ea224fe,,,,,,,,,878,98.8515625,40.46875,1,0,0,response1disk,,6,2.51171875,3.87890625,1,0,0,rectangle,2.51171875,3.87890625,1,0,0,2.51171875,3.87890625,1,0,0,0,70,70,31,1,,,,,,,,
,,,,,,,,,,,,,FF,,,,,,,,1.3342,,,,,,,,,,,,,,,,,,,,,,60fd8ca49ee4de5cd43d2878,610369f9e1eb1d931b7a34eb,2021-07-29_22h56.00.524,Simcolourproject_2stim_asymm_v5,2020.2.10,MacIntel,60,61025ae37ef11b136ea224fe,,,,,,,,,1985,116.0390625,-44.40234375,1,0,0,response3disk,,5,-11.40234375,-2.2578125,1,0,0,rectangle,-11.40234375,-2.2578125,1,0,0,-11.40234375,-2.2578125,1,0,0,0,71,71,16,1,,,,,,,,
,,,,,,,,,,,,,FF,,,,,,,,1.7027,,,,,,,,,,,,,,,,,,,,,,60fd8ca49ee4de5cd43d2878,610369f9e1eb1d931b7a34eb,2021-07-29_22h56.00.524,Simcolourproject_2stim_asymm_v5,2020.2.10,MacIntel,60,61025ae37ef11b136ea224fe,,,,,,,,,1790,125.3984375,70.6484375,1,0,0,response1disk,,6,-24.26171875,-4.31640625,1,0,0,rectangle,-24.26171875,-4.31640625,1,0,0,-24.26171875,-4.31640625,1,0,0,0,72,72,92,1,,,,,,,,
,,,,,,,,,,,,,FF,,,,,,,,1.8874,,,,,,,,,,,,,,,,,,,,,,60fd8ca49ee4de5cd43d2878,610369f9e1eb1d931b7a34eb,2021-07-29_22h56.00.524,Simcolourproject_2stim_asymm_v5,2020.2.10,MacIntel,60,61025ae37ef11b136ea224fe,,,,,,,,,4032,110.3320313,60.57421875,0,0,1,response1disk,,6,-2.94921875,1.0703125,1,0,1,rectangle,-2.94921875,1.0703125,1,0,1,-2.94921875,1.0703125,1,0,1,0,73,73,14,1,,,,,,,,
,,,,,,,,,,,,,FF,,,,,,,,2.452,,,,,,,,,,,,,,,,,,,,,,60fd8ca49ee4de5cd43d2878,610369f9e1eb1d931b7a34eb,2021-07-29_22h56.00.524,Simcolourproject_2stim_asymm_v5,2020.2.10,MacIntel,60,61025ae37ef11b136ea224fe,,,,,,,,,786,-50.55078125,-96.765625,1,0,1,response5disk,,3,15.4453125,-4.69921875,1,0,1,rectangle,15.4453125,-4.69921875,1,0,1,15.4453125,-4.69921875,1,0,1,0,74,74,83,1,,,,,,,,
,,,,,,,,,,,,,FF,,,,,,,,3.9878,,,,,,,,,,,,,,,,,,,,,,60fd8ca49ee4de5cd43d2878,610369f9e1eb1d931b7a34eb,2021-07-29_22h56.00.524,Simcolourproject_2stim_asymm_v5,2020.2.10,MacIntel,60,61025ae37ef11b136ea224fe,,,,,,,,,1798,63.390625,96.23828125,1,0,1,response1disk,,7,-0.2109375,12.37109375,1,0,1,rectangle,-0.2109375,12.37109375,1,0,1,-0.2109375,12.37109375,1,0,1,0,75,75,107,1,,,,,,,,
,,,,,,,,,,,,,FF,,,,,,,,3.6038,,,,,,,,,,,,,,,,,,,,,,60fd8ca49ee4de5cd43d2878,610369f9e1eb1d931b7a34eb,2021-07-29_22h56.00.524,Simcolourproject_2stim_asymm_v5,2020.2.10,MacIntel,60,61025ae37ef11b136ea224fe,,,,,,,,,2478,71.76953125,-118.5429688,1,0,1,response3disk,,4,-8.51953125,5.453125,1,0,1,rectangle,-8.51953125,5.453125,1,0,1,-8.51953125,5.453125,1,0,1,0,76,76,111,1,,,,,,,,
,,,,,,,,,,,,,FF,,,,,,,,1.5182,,,,,,,,,,,,,,,,,,,,,,60fd8ca49ee4de5cd43d2878,610369f9e1eb1d931b7a34eb,2021-07-29_22h56.00.524,Simcolourproject_2stim_asymm_v5,2020.2.10,MacIntel,60,61025ae37ef11b136ea224fe,,,,,,,,,897,-53.09765625,-120.21875,1,0,1,response5disk,,3,-2.05078125,-13.66796875,1,0,1,rectangle,-2.05078125,-13.66796875,1,0,1,-2.05078125,-13.66796875,1,0,1,0,77,77,129,1,,,,,,,,
,,,,,,,,,,,,,FF,,,,,,,,4.0227,,,,,,,,,,,,,,,,,,,,,,60fd8ca49ee4de5cd43d2878,610369f9e1eb1d931b7a34eb,2021-07-29_22h56.00.524,Simcolourproject_2stim_asymm_v5,2020.2.10,MacIntel,60,61025ae37ef11b136ea224fe,,,,,,,,,3410,105.4765625,-75.08203125,1,0,1,response3disk,,5,-12.03515625,3.70703125,1,0,1,rectangle,-12.03515625,3.70703125,1,0,1,-12.03515625,3.70703125,1,0,1,0,78,78,8,1,,,,,,,,
,,,,,,,,,,,,,FF,,,,,,,,2.285,,,,,,,,,,,,,,,,,,,,,,60fd8ca49ee4de5cd43d2878,610369f9e1eb1d931b7a34eb,2021-07-29_22h56.00.524,Simcolourproject_2stim_asymm_v5,2020.2.10,MacIntel,60,61025ae37ef11b136ea224fe,,,,,,,,,3988,39.796875,-118.0351563,1,0,1,response3disk,,4,2.2421875,-0.3125,1,0,1,rectangle,2.2421875,-0.3125,1,0,1,2.2421875,-0.3125,1,0,1,0,79,79,132,1,,,,,,,,
,,,,,,,,,,,,,FF,,,,,,,,1.0356,,,,,,,,,,,,,,,,,,,,,,60fd8ca49ee4de5cd43d2878,610369f9e1eb1d931b7a34eb,2021-07-29_22h56.00.524,Simcolourproject_2stim_asymm_v5,2020.2.10,MacIntel,60,61025ae37ef11b136ea224fe,,,,,,,,,2987,-37.4140625,-130.609375,1,0,1,response5disk,,3,-12.08984375,2.27734375,1,0,1,rectangle,45.42578125,-126.1914063,1,0,1,7.97265625,-7.58203125,1,0,1,0,80,80,126,1,,response3disk_3,TRUE,4,4,"[65,209,10,215,179,135,260,170,214,81,238,37,46,146,224,166,221,181,30,171]",1.1994,rectangle
,,,,,,,,,,,,,FF,,,,,,,,1.9362,,,,,,,,,,,,,,,,,,,,,,60fd8ca49ee4de5cd43d2878,610369f9e1eb1d931b7a34eb,2021-07-29_22h56.00.524,Simcolourproject_2stim_asymm_v5,2020.2.10,MacIntel,60,61025ae37ef11b136ea224fe,,,,,,,,,3907,-56.6640625,-114.2226563,1,0,1,response5disk,,3,-8.484375,-6.22265625,1,0,1,rectangle,-8.484375,-6.22265625,1,0,1,-8.484375,-6.22265625,1,0,1,0,81,81,120,1,,,,,,,,
,,,,,,,,,,,,,FF,,,,,,,,1.9014,,,,,,,,,,,,,,,,,,,,,,60fd8ca49ee4de5cd43d2878,610369f9e1eb1d931b7a34eb,2021-07-29_22h56.00.524,Simcolourproject_2stim_asymm_v5,2020.2.10,MacIntel,60,61025ae37ef11b136ea224fe,,,,,,,,,2471,-32.92578125,-107.3046875,1,0,1,response5disk,,3,-2.9140625,-4.51953125,1,0,1,rectangle,-2.9140625,-4.51953125,1,0,1,-2.9140625,-4.51953125,1,0,1,0,82,82,89,1,,,,,,,,
,,,,,,,,,,,,,FF,,,,,,,,2.4203,,,,,,,,,,,,,,,,,,,,,,60fd8ca49ee4de5cd43d2878,610369f9e1eb1d931b7a34eb,2021-07-29_22h56.00.524,Simcolourproject_2stim_asymm_v5,2020.2.10,MacIntel,60,61025ae37ef11b136ea224fe,,,,,,,,,938,59.6328125,95.6328125,1,0,1,response1disk,,7,-21.02734375,-14.0546875,1,0,1,rectangle,-21.02734375,-14.0546875,1,0,1,-21.02734375,-14.0546875,1,0,1,0,83,83,159,1,,,,,,,,
,,,,,,,,,,,,,FF,,,,,,,,3.3717,,,,,,,,,,,,,,,,,,,,,,60fd8ca49ee4de5cd43d2878,610369f9e1eb1d931b7a34eb,2021-07-29_22h56.00.524,Simcolourproject_2stim_asymm_v5,2020.2.10,MacIntel,60,61025ae37ef11b136ea224fe,,,,,,,,,1987,104.6796875,-45.90234375,1,0,1,response3disk,,5,10.3125,-12.5078125,1,0,1,rectangle,10.3125,-12.5078125,1,0,1,10.3125,-12.5078125,1,0,1,0,84,84,101,1,,,,,,,,
,,,,,,,,,,,,,FF,,,,,,,,0.8686,,,,,,,,,,,,,,,,,,,,,,60fd8ca49ee4de5cd43d2878,610369f9e1eb1d931b7a34eb,2021-07-29_22h56.00.524,Simcolourproject_2stim_asymm_v5,2020.2.10,MacIntel,60,61025ae37ef11b136ea224fe,,,,,,,,,2535,94.92578125,-47.67578125,1,0,1,response3disk,,5,7.08203125,-1.609375,1,0,1,rectangle,7.08203125,-1.609375,1,0,1,7.08203125,-1.609375,1,0,1,0,85,85,131,1,,,,,,,,
,,,,,,,,,,,,,FF,,,,,,,,1.5023,,,,,,,,,,,,,,,,,,,,,,60fd8ca49ee4de5cd43d2878,610369f9e1eb1d931b7a34eb,2021-07-29_22h56.00.524,Simcolourproject_2stim_asymm_v5,2020.2.10,MacIntel,60,61025ae37ef11b136ea224fe,,,,,,,,,173,-92.5546875,-54.84375,1,0,1,response5disk,,2,-5.23828125,2.86328125,1,0,1,rectangle,-5.23828125,2.86328125,1,0,1,-5.23828125,2.86328125,1,0,1,0,86,86,142,1,,,,,,,,
,,,,,,,,,,,,,FF,,,,,,,,1.4534,,,,,,,,,,,,,,,,,,,,,,60fd8ca49ee4de5cd43d2878,610369f9e1eb1d931b7a34eb,2021-07-29_22h56.00.524,Simcolourproject_2stim_asymm_v5,2020.2.10,MacIntel,60,61025ae37ef11b136ea224fe,,,,,,,,,957,-47.7421875,-122.1523438,1,0,1,response5disk,,3,-17.875,-10.3125,1,0,1,rectangle,-17.875,-10.3125,1,0,1,-17.875,-10.3125,1,0,1,0,87,87,47,1,,,,,,,,
,,,,,,,,,,,,,FF,,,,,,,,1.418,,,,,,,,,,,,,,,,,,,,,,60fd8ca49ee4de5cd43d2878,610369f9e1eb1d931b7a34eb,2021-07-29_22h56.00.524,Simcolourproject_2stim_asymm_v5,2020.2.10,MacIntel,60,61025ae37ef11b136ea224fe,,,,,,,,,1849,113.890625,35.453125,1,0,1,response1disk,,6,-12.54296875,-11.04296875,1,0,1,rectangle,-12.54296875,-11.04296875,1,0,1,-12.54296875,-11.04296875,1,0,1,0,88,88,32,1,,,,,,,,
,,,,,,,,,,,,,FF,,,,,,,,4.0869,,,,,,,,,,,,,,,,,,,,,,60fd8ca49ee4de5cd43d2878,610369f9e1eb1d931b7a34eb,2021-07-29_22h56.00.524,Simcolourproject_2stim_asymm_v5,2020.2.10,MacIntel,60,61025ae37ef11b136ea224fe,,,,,,,,,2876,67.62109375,-97.3828125,1,0,1,response3disk,,4,13.50390625,2.79296875,1,0,1,rectangle,13.50390625,2.79296875,1,0,1,13.50390625,2.79296875,1,0,1,0,89,89,128,1,,,,,,,,
,,,,,,,,,,,,,FF,,,,,,,,1.6347,,,,,,,,,,,,,,,,,,,,,,60fd8ca49ee4de5cd43d2878,610369f9e1eb1d931b7a34eb,2021-07-29_22h56.00.524,Simcolourproject_2stim_asymm_v5,2020.2.10,MacIntel,60,61025ae37ef11b136ea224fe,,,,,,,,,1472,45.56640625,-107.3828125,1,0,1,response3disk,,4,-2.234375,-6.3046875,1,0,1,rectangle,-2.234375,-6.3046875,1,0,1,-2.234375,-6.3046875,1,0,1,0,90,90,5,1,,,,,,,,
,,,,,,,,,,,,,FF,,,,,,,,0.9167,,,,,,,,,,,,,,,,,,,,,,60fd8ca49ee4de5cd43d2878,610369f9e1eb1d931b7a34eb,2021-07-29_22h56.00.524,Simcolourproject_2stim_asymm_v5,2020.2.10,MacIntel,60,61025ae37ef11b136ea224fe,,,,,,,,,2825,58.63671875,-106.4335938,1,0,1,response3disk,,4,5.65234375,6.55859375,1,0,1,rectangle,5.65234375,6.55859375,1,0,1,5.65234375,6.55859375,1,0,1,0,91,91,44,1,,,,,,,,
,,,,,,,,,,,,,FF,,,,,,,,2.2355,,,,,,,,,,,,,,,,,,,,,,60fd8ca49ee4de5cd43d2878,610369f9e1eb1d931b7a34eb,2021-07-29_22h56.00.524,Simcolourproject_2stim_asymm_v5,2020.2.10,MacIntel,60,61025ae37ef11b136ea224fe,,,,,,,,,3173,113.2734375,38.9375,1,0,1,response1disk,,6,-43.5234375,-16.0546875,1,0,1,rectangle,-43.5234375,-16.0546875,1,0,1,-43.5234375,-16.0546875,1,0,1,0,92,92,140,1,,,,,,,,
,,,,,,,,,,,,,FF,,,,,,,,4.3868,,,,,,,,,,,,,,,,,,,,,,60fd8ca49ee4de5cd43d2878,610369f9e1eb1d931b7a34eb,2021-07-29_22h56.00.524,Simcolourproject_2stim_asymm_v5,2020.2.10,MacIntel,60,61025ae37ef11b136ea224fe,,,,,,,,,1161,33.8984375,77.7578125,1,0,1,response1disk,,7,-2.57421875,-9.78125,1,0,1,rectangle,-2.57421875,-9.78125,1,0,1,-2.57421875,-9.78125,1,0,1,0,93,93,110,1,,,,,,,,
,,,,,,,,,,,,,FF,,,,,,,,3.1024,,,,,,,,,,,,,,,,,,,,,,60fd8ca49ee4de5cd43d2878,610369f9e1eb1d931b7a34eb,2021-07-29_22h56.00.524,Simcolourproject_2stim_asymm_v5,2020.2.10,MacIntel,60,61025ae37ef11b136ea224fe,,,,,,,,,946,43.94921875,93.49609375,1,0,1,response1disk,,7,18.53515625,-7.70703125,1,0,1,rectangle,18.53515625,-7.70703125,1,0,1,18.53515625,-7.70703125,1,0,1,0,94,94,35,1,,,,,,,,
,,,,,,,,,,,,,FF,,,,,,,,2.6195,,,,,,,,,,,,,,,,,,,,,,60fd8ca49ee4de5cd43d2878,610369f9e1eb1d931b7a34eb,2021-07-29_22h56.00.524,Simcolourproject_2stim_asymm_v5,2020.2.10,MacIntel,60,61025ae37ef11b136ea224fe,,,,,,,,,3995,31.51953125,-110.828125,1,0,1,response3disk,,4,-9.07421875,-5.87109375,1,0,1,rectangle,-9.07421875,-5.87109375,1,0,1,-9.07421875,-5.87109375,1,0,1,0,95,95,63,1,,,,,,,,
,,,,,,,,,,,,,FF,,,,,,,,0.6014,,,,,,,,,,,,,,,,,,,,,,60fd8ca49ee4de5cd43d2878,610369f9e1eb1d931b7a34eb,2021-07-29_22h56.00.524,Simcolourproject_2stim_asymm_v5,2020.2.10,MacIntel,60,61025ae37ef11b136ea224fe,,,,,,,,,436,-44.828125,-101.8046875,1,0,1,response5disk,,3,18.11328125,18.96875,1,0,1,rectangle,18.11328125,18.96875,1,0,1,18.11328125,18.96875,1,0,1,0,96,96,40,1,,,,,,,,
,,,,,,,,,,,,,FF,,,,,,,,1.7345,,,,,,,,,,,,,,,,,,,,,,60fd8ca49ee4de5cd43d2878,610369f9e1eb1d931b7a34eb,2021-07-29_22h56.00.524,Simcolourproject_2stim_asymm_v5,2020.2.10,MacIntel,60,61025ae37ef11b136ea224fe,,,,,,,,,1162,94.24609375,36.82421875,1,0,1,response1disk,,6,-6.30078125,-2.8203125,1,0,1,rectangle,-6.30078125,-2.8203125,1,0,1,-6.30078125,-2.8203125,1,0,1,0,97,97,103,1,,,,,,,,
,,,,,,,,,,,,,FF,,,,,,,,1.2003,,,,,,,,,,,,,,,,,,,,,,60fd8ca49ee4de5cd43d2878,610369f9e1eb1d931b7a34eb,2021-07-29_22h56.00.524,Simcolourproject_2stim_asymm_v5,2020.2.10,MacIntel,60,61025ae37ef11b136ea224fe,,,,,,,,,2353,57.7109375,-79.015625,1,0,1,response3disk,,4,4.6953125,-5.3125,1,0,1,rectangle,4.6953125,-5.3125,1,0,1,4.6953125,-5.3125,1,0,1,0,98,98,105,1,,,,,,,,
,,,,,,,,,,,,,FF,,,,,,,,1.1179,,,,,,,,,,,,,,,,,,,,,,60fd8ca49ee4de5cd43d2878,610369f9e1eb1d931b7a34eb,2021-07-29_22h56.00.524,Simcolourproject_2stim_asymm_v5,2020.2.10,MacIntel,60,61025ae37ef11b136ea224fe,,,,,,,,,802,-98.26953125,-69.04296875,1,0,1,response5disk,,2,14.4140625,-6.3671875,1,0,1,rectangle,14.4140625,-6.3671875,1,0,1,14.4140625,-6.3671875,1,0,1,0,99,99,49,1,,,,,,,,
,,,,,,,,,,,,,FF,,,,,,,,0.9517,,,,,,,,,,,,,,,,,,,,,,60fd8ca49ee4de5cd43d2878,610369f9e1eb1d931b7a34eb,2021-07-29_22h56.00.524,Simcolourproject_2stim_asymm_v5,2020.2.10,MacIntel,60,61025ae37ef11b136ea224fe,,,,,,,,,1306,-88.2421875,-50.3125,1,0,1,response5disk,,2,8.6171875,-4.13671875,1,0,1,rectangle,8.6171875,-4.13671875,1,0,1,8.6171875,-4.13671875,1,0,1,0,100,100,26,1,,,,,,,,
,,,,,,,,,,,,,FF,,,,,,,,1.2669,,,,,,,,,,,,,,,,,,,,,,60fd8ca49ee4de5cd43d2878,610369f9e1eb1d931b7a34eb,2021-07-29_22h56.00.524,Simcolourproject_2stim_asymm_v5,2020.2.10,MacIntel,60,61025ae37ef11b136ea224fe,,,,,,,,,295,112.7421875,-52.76171875,1,0,1,response3disk,,5,4.53125,-8.13671875,1,0,1,rectangle,4.53125,-8.13671875,1,0,1,4.53125,-8.13671875,1,0,1,0,101,101,99,1,,,,,,,,
,,,,,,,,,,,,,FF,,,,,,,,1.701,,,,,,,,,,,,,,,,,,,,,,60fd8ca49ee4de5cd43d2878,610369f9e1eb1d931b7a34eb,2021-07-29_22h56.00.524,Simcolourproject_2stim_asymm_v5,2020.2.10,MacIntel,60,61025ae37ef11b136ea224fe,,,,,,,,,125,103.0273438,38.75,1,0,1,response1disk,,6,7.64453125,3.80859375,1,0,1,rectangle,7.64453125,3.80859375,1,0,1,7.64453125,3.80859375,1,0,1,0,102,102,90,1,,,,,,,,
,,,,,,,,,,,,,FF,,,,,,,,3.2359,,,,,,,,,,,,,,,,,,,,,,60fd8ca49ee4de5cd43d2878,610369f9e1eb1d931b7a34eb,2021-07-29_22h56.00.524,Simcolourproject_2stim_asymm_v5,2020.2.10,MacIntel,60,61025ae37ef11b136ea224fe,,,,,,,,,338,96.06640625,-57.765625,1,0,1,response3disk,,5,-0.84375,-10.421875,1,0,1,rectangle,-0.84375,-10.421875,1,0,1,-0.84375,-10.421875,1,0,1,0,103,103,141,1,,,,,,,,
,,,,,,,,,,,,,FF,,,,,,,,1.317,,,,,,,,,,,,,,,,,,,,,,60fd8ca49ee4de5cd43d2878,610369f9e1eb1d931b7a34eb,2021-07-29_22h56.00.524,Simcolourproject_2stim_asymm_v5,2020.2.10,MacIntel,60,61025ae37ef11b136ea224fe,,,,,,,,,2797,68.29296875,-122.5625,1,0,1,response3disk,,4,10.07421875,3.2734375,1,0,1,rectangle,10.07421875,3.2734375,1,0,1,10.07421875,3.2734375,1,0,1,0,104,104,116,1,,,,,,,,
,,,,,,,,,,,,,FF,,,,,,,,1.2517,,,,,,,,,,,,,,,,,,,,,,60fd8ca49ee4de5cd43d2878,610369f9e1eb1d931b7a34eb,2021-07-29_22h56.00.524,Simcolourproject_2stim_asymm_v5,2020.2.10,MacIntel,60,61025ae37ef11b136ea224fe,,,,,,,,,1115,-94.234375,-68.71875,1,0,1,response5disk,,2,-16.21484375,-0.671875,1,0,1,rectangle,-16.21484375,-0.671875,1,0,1,-16.21484375,-0.671875,1,0,1,0,105,105,146,1,,,,,,,,
,,,,,,,,,,,,,FF,,,,,,,,0.9012,,,,,,,,,,,,,,,,,,,,,,60fd8ca49ee4de5cd43d2878,610369f9e1eb1d931b7a34eb,2021-07-29_22h56.00.524,Simcolourproject_2stim_asymm_v5,2020.2.10,MacIntel,60,61025ae37ef11b136ea224fe,,,,,,,,,1663,125.4921875,-63.77734375,1,0,1,response3disk,,5,38.6875,-13.38671875,1,0,1,rectangle,38.6875,-13.38671875,1,0,1,38.6875,-13.38671875,1,0,1,0,106,106,56,1,,,,,,,,
,,,,,,,,,,,,,FF,,,,,,,,0.8003,,,,,,,,,,,,,,,,,,,,,,60fd8ca49ee4de5cd43d2878,610369f9e1eb1d931b7a34eb,2021-07-29_22h56.00.524,Simcolourproject_2stim_asymm_v5,2020.2.10,MacIntel,60,61025ae37ef11b136ea224fe,,,,,,,,,2762,88.92578125,-52.28125,1,0,1,response3disk,,5,-15.59375,-2.640625,1,0,1,rectangle,-15.59375,-2.640625,1,0,1,-15.59375,-2.640625,1,0,1,0,107,107,135,1,,,,,,,,
,,,,,,,,,,,,,FF,,,,,,,,1.3346,,,,,,,,,,,,,,,,,,,,,,60fd8ca49ee4de5cd43d2878,610369f9e1eb1d931b7a34eb,2021-07-29_22h56.00.524,Simcolourproject_2stim_asymm_v5,2020.2.10,MacIntel,60,61025ae37ef11b136ea224fe,,,,,,,,,968,-91.66796875,43.8046875,1,0,1,response7disk,,1,1.8515625,-9.58203125,1,0,1,rectangle,1.8515625,-9.58203125,1,0,1,1.8515625,-9.58203125,1,0,1,0,108,108,3,1,,,,,,,,
,,,,,,,,,,,,,FF,,,,,,,,1.5503,,,,,,,,,,,,,,,,,,,,,,60fd8ca49ee4de5cd43d2878,610369f9e1eb1d931b7a34eb,2021-07-29_22h56.00.524,Simcolourproject_2stim_asymm_v5,2020.2.10,MacIntel,60,61025ae37ef11b136ea224fe,,,,,,,,,2792,106.1679688,-50.2890625,1,0,1,response3disk,,5,-6.87890625,-4.96875,1,0,1,rectangle,-6.87890625,-4.96875,1,0,1,-6.87890625,-4.96875,1,0,1,0,109,109,109,1,,,,,,,,
,,,,,,,,,,,,,FF,,,,,,,,1.2845,,,,,,,,,,,,,,,,,,,,,,60fd8ca49ee4de5cd43d2878,610369f9e1eb1d931b7a34eb,2021-07-29_22h56.00.524,Simcolourproject_2stim_asymm_v5,2020.2.10,MacIntel,60,61025ae37ef11b136ea224fe,,,,,,,,,980,-31.6640625,-111.6875,1,0,1,response5disk,,3,17.60546875,-7.83203125,1,0,1,rectangle,17.60546875,-7.83203125,1,0,1,17.60546875,-7.83203125,1,0,1,0,110,110,13,1,,,,,,,,
,,,,,,,,,,,,,FF,,,,,,,,1.4008,,,,,,,,,,,,,,,,,,,,,,60fd8ca49ee4de5cd43d2878,610369f9e1eb1d931b7a34eb,2021-07-29_22h56.00.524,Simcolourproject_2stim_asymm_v5,2020.2.10,MacIntel,60,61025ae37ef11b136ea224fe,,,,,,,,,2429,24.21484375,-110.7382813,1,0,1,response3disk,,4,-16.4609375,3.796875,1,0,1,rectangle,-16.4609375,3.796875,1,0,1,-16.4609375,3.796875,1,0,1,0,111,111,1,1,,,,,,,,
,,,,,,,,,,,,,FF,,,,,,,,1.151,,,,,,,,,,,,,,,,,,,,,,60fd8ca49ee4de5cd43d2878,610369f9e1eb1d931b7a34eb,2021-07-29_22h56.00.524,Simcolourproject_2stim_asymm_v5,2020.2.10,MacIntel,60,61025ae37ef11b136ea224fe,,,,,,,,,528,-45.44140625,-87.92578125,1,0,1,response5disk,,3,-5.48046875,-5.1796875,1,0,1,rectangle,-5.48046875,-5.1796875,1,0,1,-5.48046875,-5.1796875,1,0,1,0,112,112,82,1,,,,,,,,
,,,,,,,,,,,,,FF,,,,,,,,0.5682,,,,,,,,,,,,,,,,,,,,,,60fd8ca49ee4de5cd43d2878,610369f9e1eb1d931b7a34eb,2021-07-29_22h56.00.524,Simcolourproject_2stim_asymm_v5,2020.2.10,MacIntel,60,61025ae37ef11b136ea224fe,,,,,,,,,438,-26.51171875,-79.2265625,1,0,1,response5disk,,3,34.625,6.2109375,1,0,1,rectangle,34.625,6.2109375,1,0,1,34.625,6.2109375,1,0,1,0,113,113,23,1,,,,,,,,
,,,,,,,,,,,,,FF,,,,,,,,1.8849,,,,,,,,,,,,,,,,,,,,,,60fd8ca49ee4de5cd43d2878,610369f9e1eb1d931b7a34eb,2021-07-29_22h56.00.524,Simcolourproject_2stim_asymm_v5,2020.2.10,MacIntel,60,61025ae37ef11b136ea224fe,,,,,,,,,3996,51.27734375,-79.1015625,1,0,1,response3disk,,4,-4.01953125,-6.74609375,1,0,1,rectangle,-4.01953125,-6.74609375,1,0,1,-4.01953125,-6.74609375,1,0,1,0,114,114,93,1,,,,,,,,
,,,,,,,,,,,,,FF,,,,,,,,1.4173,,,,,,,,,,,,,,,,,,,,,,60fd8ca49ee4de5cd43d2878,610369f9e1eb1d931b7a34eb,2021-07-29_22h56.00.524,Simcolourproject_2stim_asymm_v5,2020.2.10,MacIntel,60,61025ae37ef11b136ea224fe,,,,,,,,,156,75.50390625,29.40234375,1,0,1,response1disk,,6,4.91015625,-8.16796875,1,0,1,rectangle,4.91015625,-8.16796875,1,0,1,4.91015625,-8.16796875,1,0,1,0,115,115,145,1,,,,,,,,
,,,,,,,,,,,,,FF,,,,,,,,1.101,,,,,,,,,,,,,,,,,,,,,,60fd8ca49ee4de5cd43d2878,610369f9e1eb1d931b7a34eb,2021-07-29_22h56.00.524,Simcolourproject_2stim_asymm_v5,2020.2.10,MacIntel,60,61025ae37ef11b136ea224fe,,,,,,,,,214,36.99609375,69.00390625,1,0,1,response1disk,,7,7.75390625,-1.48046875,1,0,1,rectangle,7.75390625,-1.48046875,1,0,1,7.75390625,-1.48046875,1,0,1,0,116,116,122,1,,,,,,,,
,,,,,,,,,,,,,FF,,,,,,,,1.3181,,,,,,,,,,,,,,,,,,,,,,60fd8ca49ee4de5cd43d2878,610369f9e1eb1d931b7a34eb,2021-07-29_22h56.00.524,Simcolourproject_2stim_asymm_v5,2020.2.10,MacIntel,60,61025ae37ef11b136ea224fe,,,,,,,,,1302,-58.58984375,-102.40625,1,0,1,response5disk,,3,3.9921875,4.00390625,1,0,1,rectangle,3.9921875,4.00390625,1,0,1,3.9921875,4.00390625,1,0,1,0,117,117,134,1,,,,,,,,
,,,,,,,,,,,,,FF,,,,,,,,1.2322,,,,,,,,,,,,,,,,,,,,,,60fd8ca49ee4de5cd43d2878,610369f9e1eb1d931b7a34eb,2021-07-29_22h56.00.524,Simcolourproject_2stim_asymm_v5,2020.2.10,MacIntel,60,61025ae37ef11b136ea224fe,,,,,,,,,3793,117.0351563,-44.46875,1,0,1,response3disk,,5,9.4609375,-1.41015625,1,0,1,rectangle,9.4609375,-1.41015625,1,0,1,9.4609375,-1.41015625,1,0,1,0,118,118,42,1,,,,,,,,
,,,,,,,,,,,,,FF,,,,,,,,1.0682,,,,,,,,,,,,,,,,,,,,,,60fd8ca49ee4de5cd43d2878,610369f9e1eb1d931b7a34eb,2021-07-29_22h56.00.524,Simcolourproject_2stim_asymm_v5,2020.2.10,MacIntel,60,61025ae37ef11b136ea224fe,,,,,,,,,1746,-47.82421875,-104.3710938,1,0,1,response5disk,,3,1.703125,-6.4453125,1,0,1,rectangle,1.703125,-6.4453125,1,0,1,1.703125,-6.4453125,1,0,1,0,119,119,139,1,,,,,,,,
,,,,,,,,,,,,,FF,,,,,,,,0.933,,,,,,,,,,,,,,,,,,,,,,60fd8ca49ee4de5cd43d2878,610369f9e1eb1d931b7a34eb,2021-07-29_22h56.00.524,Simcolourproject_2stim_asymm_v5,2020.2.10,MacIntel,60,61025ae37ef11b136ea224fe,,,,,,,,,1228,-48.72265625,-104.2617188,1,0,1,response5disk,,3,-6.484375,8.80078125,1,0,1,rectangle,-6.484375,8.80078125,1,0,1,-6.484375,8.80078125,1,0,1,0,120,120,143,1,,,,,,,,
,,,,,,,,,,,,,FF,,,,,,,,1.3668,,,,,,,,,,,,,,,,,,,,,,60fd8ca49ee4de5cd43d2878,610369f9e1eb1d931b7a34eb,2021-07-29_22h56.00.524,Simcolourproject_2stim_asymm_v5,2020.2.10,MacIntel,60,61025ae37ef11b136ea224fe,,,,,,,,,23,-29.76953125,-77.125,1,0,1,response5disk,,3,19.3515625,-14.6171875,1,0,1,rectangle,19.3515625,-14.6171875,1,0,1,19.3515625,-14.6171875,1,0,1,0,121,121,100,1,,,,,,,,
,,,,,,,,,,,,,FF,,,,,,,,1.8524,,,,,,,,,,,,,,,,,,,,,,60fd8ca49ee4de5cd43d2878,610369f9e1eb1d931b7a34eb,2021-07-29_22h56.00.524,Simcolourproject_2stim_asymm_v5,2020.2.10,MacIntel,60,61025ae37ef11b136ea224fe,,,,,,,,,3990,122.0546875,35.83984375,1,0,1,response1disk,,6,-1.40625,-14.0703125,1,0,1,rectangle,-1.40625,-14.0703125,1,0,1,-1.40625,-14.0703125,1,0,1,0,122,122,98,1,,,,,,,,
,,,,,,,,,,,,,FF,,,,,,,,1.4179,,,,,,,,,,,,,,,,,,,,,,60fd8ca49ee4de5cd43d2878,610369f9e1eb1d931b7a34eb,2021-07-29_22h56.00.524,Simcolourproject_2stim_asymm_v5,2020.2.10,MacIntel,60,61025ae37ef11b136ea224fe,,,,,,,,,2035,-44.625,-86.88671875,1,0,1,response5disk,,3,18.65625,-9.23046875,1,0,1,rectangle,18.65625,-9.23046875,1,0,1,18.65625,-9.23046875,1,0,1,0,123,123,112,1,,,,,,,,
,,,,,,,,,,,,,FF,,,,,,,,2.237,,,,,,,,,,,,,,,,,,,,,,60fd8ca49ee4de5cd43d2878,610369f9e1eb1d931b7a34eb,2021-07-29_22h56.00.524,Simcolourproject_2stim_asymm_v5,2020.2.10,MacIntel,60,61025ae37ef11b136ea224fe,,,,,,,,,483,110.2460938,37.15625,1,0,1,response1disk,,6,-14.89453125,-16.41015625,1,0,1,rectangle,-14.89453125,-16.41015625,1,0,1,-14.89453125,-16.41015625,1,0,1,0,124,124,65,1,,,,,,,,
,,,,,,,,,,,,,FF,,,,,,,,1.3347,,,,,,,,,,,,,,,,,,,,,,60fd8ca49ee4de5cd43d2878,610369f9e1eb1d931b7a34eb,2021-07-29_22h56.00.524,Simcolourproject_2stim_asymm_v5,2020.2.10,MacIntel,60,61025ae37ef11b136ea224fe,,,,,,,,,3870,45.421875,-78.828125,1,0,1,response3disk,,4,-4.19921875,5.71875,1,0,1,rectangle,-4.19921875,5.71875,1,0,1,-4.19921875,5.71875,1,0,1,0,125,125,71,1,,,,,,,,
,,,,,,,,,,,,,FF,,,,,,,,2.1351,,,,,,,,,,,,,,,,,,,,,,60fd8ca49ee4de5cd43d2878,610369f9e1eb1d931b7a34eb,2021-07-29_22h56.00.524,Simcolourproject_2stim_asymm_v5,2020.2.10,MacIntel,60,61025ae37ef11b136ea224fe,,,,,,,,,758,120.75,44.078125,1,0,1,response1disk,,6,6.7265625,-5.99609375,1,0,1,rectangle,6.7265625,-5.99609375,1,0,1,6.7265625,-5.99609375,1,0,1,0,126,126,34,1,,,,,,,,
,,,,,,,,,,,,,FF,,,,,,,,0.9333,,,,,,,,,,,,,,,,,,,,,,60fd8ca49ee4de5cd43d2878,610369f9e1eb1d931b7a34eb,2021-07-29_22h56.00.524,Simcolourproject_2stim_asymm_v5,2020.2.10,MacIntel,60,61025ae37ef11b136ea224fe,,,,,,,,,2422,-67.5078125,-120.7890625,1,0,1,response5disk,,3,-4.2421875,12.6875,1,0,1,rectangle,-4.2421875,12.6875,1,0,1,-4.2421875,12.6875,1,0,1,0,127,127,19,1,,,,,,,,
,,,,,,,,,,,,,FF,,,,,,,,0.6839,,,,,,,,,,,,,,,,,,,,,,60fd8ca49ee4de5cd43d2878,610369f9e1eb1d931b7a34eb,2021-07-29_22h56.00.524,Simcolourproject_2stim_asymm_v5,2020.2.10,MacIntel,60,61025ae37ef11b136ea224fe,,,,,,,,,535,112.6523438,-53.203125,1,0,1,response3disk,,5,15.18359375,1.67578125,1,0,1,rectangle,15.18359375,1.67578125,1,0,1,15.18359375,1.67578125,1,0,1,0,128,128,147,1,,,,,,,,
,,,,,,,,,,,,,FF,,,,,,,,0.9006,,,,,,,,,,,,,,,,,,,,,,60fd8ca49ee4de5cd43d2878,610369f9e1eb1d931b7a34eb,2021-07-29_22h56.00.524,Simcolourproject_2stim_asymm_v5,2020.2.10,MacIntel,60,61025ae37ef11b136ea224fe,,,,,,,,,3472,59.20703125,-108.3710938,1,0,1,response3disk,,4,-1.11328125,-3.06640625,1,0,1,rectangle,-1.11328125,-3.06640625,1,0,1,-1.11328125,-3.06640625,1,0,1,0,129,129,118,1,,,,,,,,
,,,,,,,,,,,,,FF,,,,,,,,1.2184,,,,,,,,,,,,,,,,,,,,,,60fd8ca49ee4de5cd43d2878,610369f9e1eb1d931b7a34eb,2021-07-29_22h56.00.524,Simcolourproject_2stim_asymm_v5,2020.2.10,MacIntel,60,61025ae37ef11b136ea224fe,,,,,,,,,2235,-100.0039063,-50.4921875,1,0,1,response5disk,,2,-26.1953125,-16.9375,1,0,1,rectangle,-26.1953125,-16.9375,1,0,1,-26.1953125,-16.9375,1,0,1,0,130,130,27,1,,,,,,,,
,,,,,,,,,,,,,FF,,,,,,,,0.9678,,,,,,,,,,,,,,,,,,,,,,60fd8ca49ee4de5cd43d2878,610369f9e1eb1d931b7a34eb,2021-07-29_22h56.00.524,Simcolourproject_2stim_asymm_v5,2020.2.10,MacIntel,60,61025ae37ef11b136ea224fe,,,,,,,,,525,-75.55078125,-48.1484375,1,0,1,response5disk,,2,10.75390625,-1.3125,1,0,1,rectangle,10.75390625,-1.3125,1,0,1,10.75390625,-1.3125,1,0,1,0,131,131,80,1,,,,,,,,
,,,,,,,,,,,,,FF,,,,,,,,0.8338,,,,,,,,,,,,,,,,,,,,,,60fd8ca49ee4de5cd43d2878,610369f9e1eb1d931b7a34eb,2021-07-29_22h56.00.524,Simcolourproject_2stim_asymm_v5,2020.2.10,MacIntel,60,61025ae37ef11b136ea224fe,,,,,,,,,3429,-46.97265625,-121.2070313,1,0,1,response5disk,,3,-1.96484375,-1.91015625,1,0,1,rectangle,-1.96484375,-1.91015625,1,0,1,-1.96484375,-1.91015625,1,0,1,0,132,132,7,1,,,,,,,,
,,,,,,,,,,,,,FF,,,,,,,,0.9502,,,,,,,,,,,,,,,,,,,,,,60fd8ca49ee4de5cd43d2878,610369f9e1eb1d931b7a34eb,2021-07-29_22h56.00.524,Simcolourproject_2stim_asymm_v5,2020.2.10,MacIntel,60,61025ae37ef11b136ea224fe,,,,,,,,,1280,39.60546875,-98.421875,1,0,1,response3disk,,4,-7.26171875,-4.8671875,1,0,1,rectangle,-7.26171875,-4.8671875,1,0,1,-7.26171875,-4.8671875,1,0,1,0,133,133,138,1,,,,,,,,
,,,,,,,,,,,,,FF,,,,,,,,1.4341,,,,,,,,,,,,,,,,,,,,,,60fd8ca49ee4de5cd43d2878,610369f9e1eb1d931b7a34eb,2021-07-29_22h56.00.524,Simcolourproject_2stim_asymm_v5,2020.2.10,MacIntel,60,61025ae37ef11b136ea224fe,,,,,,,,,238,54.15625,-91.44140625,1,0,1,response3disk,,4,16.296875,-18.19921875,1,0,1,rectangle,56.51171875,-138.6171875,1,0,1,-5.76953125,0.45703125,1,0,1,0,134,134,94,1,,response3disk_3,TRUE,4,4,"[65,209,10,215,179,135,260,170,214,81,238,37,46,146,224,166,221,181,30,171]",1.2349,rectangle
,,,,,,,,,,,,,FF,,,,,,,,1.5518,,,,,,,,,,,,,,,,,,,,,,60fd8ca49ee4de5cd43d2878,610369f9e1eb1d931b7a34eb,2021-07-29_22h56.00.524,Simcolourproject_2stim_asymm_v5,2020.2.10,MacIntel,60,61025ae37ef11b136ea224fe,,,,,,,,,3985,104.40625,-73.5390625,1,0,1,response3disk,,5,5.24609375,4.26171875,1,0,1,rectangle,5.24609375,4.26171875,1,0,1,5.24609375,4.26171875,1,0,1,0,135,135,25,1,,,,,,,,
,,,,,,,,,,,,,FF,,,,,,,,1.0176,,,,,,,,,,,,,,,,,,,,,,60fd8ca49ee4de5cd43d2878,610369f9e1eb1d931b7a34eb,2021-07-29_22h56.00.524,Simcolourproject_2stim_asymm_v5,2020.2.10,MacIntel,60,61025ae37ef11b136ea224fe,,,,,,,,,4170,-104.0898438,-60.6953125,1,0,1,response5disk,,2,-6.390625,-4.67578125,1,0,1,rectangle,-6.390625,-4.67578125,1,0,1,-6.390625,-4.67578125,1,0,1,0,136,136,69,1,,,,,,,,
,,,,,,,,,,,,,FF,,,,,,,,1.0677,,,,,,,,,,,,,,,,,,,,,,60fd8ca49ee4de5cd43d2878,610369f9e1eb1d931b7a34eb,2021-07-29_22h56.00.524,Simcolourproject_2stim_asymm_v5,2020.2.10,MacIntel,60,61025ae37ef11b136ea224fe,,,,,,,,,3928,89.62890625,-66.74609375,1,0,1,response3disk,,5,12.08203125,-20.64453125,1,0,1,rectangle,12.08203125,-20.64453125,1,0,1,12.08203125,-20.64453125,1,0,1,0,137,137,125,1,,,,,,,,
,,,,,,,,,,,,,FF,,,,,,,,1.0181,,,,,,,,,,,,,,,,,,,,,,60fd8ca49ee4de5cd43d2878,610369f9e1eb1d931b7a34eb,2021-07-29_22h56.00.524,Simcolourproject_2stim_asymm_v5,2020.2.10,MacIntel,60,61025ae37ef11b136ea224fe,,,,,,,,,254,103.5429688,-49.0703125,1,0,1,response3disk,,5,10.99609375,-6.18359375,1,0,1,rectangle,10.99609375,-6.18359375,1,0,1,10.99609375,-6.18359375,1,0,1,0,138,138,50,1,,,,,,,,
,,,,,,,,,,,,,FF,,,,,,,,1.334,,,,,,,,,,,,,,,,,,,,,,60fd8ca49ee4de5cd43d2878,610369f9e1eb1d931b7a34eb,2021-07-29_22h56.00.524,Simcolourproject_2stim_asymm_v5,2020.2.10,MacIntel,60,61025ae37ef11b136ea224fe,,,,,,,,,1871,119.3203125,66.0625,1,0,1,response1disk,,6,1.04296875,-1.23828125,1,0,1,rectangle,1.04296875,-1.23828125,1,0,1,1.04296875,-1.23828125,1,0,1,0,139,139,96,1,,,,,,,,
,,,,,,,,,,,,,FF,,,,,,,,1.2841,,,,,,,,,,,,,,,,,,,,,,60fd8ca49ee4de5cd43d2878,610369f9e1eb1d931b7a34eb,2021-07-29_22h56.00.524,Simcolourproject_2stim_asymm_v5,2020.2.10,MacIntel,60,61025ae37ef11b136ea224fe,,,,,,,,,3366,141.4453125,68.74609375,1,0,1,response1disk,,6,-37.41796875,-20.16796875,0,0,1,rectangle,-37.41796875,-20.16796875,0,0,1,-37.41796875,-20.16796875,0,0,1,0,140,140,45,1,,,,,,,,
,,,,,,,,,,,,,FF,,,,,,,,1.5687,,,,,,,,,,,,,,,,,,,,,,60fd8ca49ee4de5cd43d2878,610369f9e1eb1d931b7a34eb,2021-07-29_22h56.00.524,Simcolourproject_2stim_asymm_v5,2020.2.10,MacIntel,60,61025ae37ef11b136ea224fe,,,,,,,,,1535,-100.1679688,-56.75390625,1,0,1,response5disk,,2,25.1640625,3.74609375,1,0,1,rectangle,25.1640625,3.74609375,1,0,1,25.1640625,3.74609375,1,0,1,0,141,141,30,1,,,,,,,,
,,,,,,,,,,,,,FF,,,,,,,,1.6198,,,,,,,,,,,,,,,,,,,,,,60fd8ca49ee4de5cd43d2878,610369f9e1eb1d931b7a34eb,2021-07-29_22h56.00.524,Simcolourproject_2stim_asymm_v5,2020.2.10,MacIntel,60,61025ae37ef11b136ea224fe,,,,,,,,,3075,117.6796875,-49.18359375,1,0,1,response3disk,,5,-7.453125,-14.37890625,1,0,1,rectangle,-7.453125,-14.37890625,1,0,1,-7.453125,-14.37890625,1,0,1,0,142,142,133,1,,,,,,,,
,,,,,,,,,,,,,FF,,,,,,,,2.0189,,,,,,,,,,,,,,,,,,,,,,60fd8ca49ee4de5cd43d2878,610369f9e1eb1d931b7a34eb,2021-07-29_22h56.00.524,Simcolourproject_2stim_asymm_v5,2020.2.10,MacIntel,60,61025ae37ef11b136ea224fe,,,,,,,,,1196,-60.9921875,-113.6132813,1,0,1,response5disk,,3,4.703125,7.2265625,1,0,1,rectangle,4.703125,7.2265625,1,0,1,4.703125,7.2265625,1,0,1,0,143,143,21,1,,,,,,,,
,,,,,,,,,,,,,FF,,,,,,,,1.0836,,,,,,,,,,,,,,,,,,,,,,60fd8ca49ee4de5cd43d2878,610369f9e1eb1d931b7a34eb,2021-07-29_22h56.00.524,Simcolourproject_2stim_asymm_v5,2020.2.10,MacIntel,60,61025ae37ef11b136ea224fe,,,,,,,,,3645,98.26953125,-59.1953125,1,0,1,response3disk,,5,-0.1640625,-10.3125,1,0,1,rectangle,-0.1640625,-10.3125,1,0,1,-0.1640625,-10.3125,1,0,1,0,144,144,12,1,,,,,,,,
,,,,,,,,,,,,,FF,,,,,,,,2.3181,,,,,,,,,,,,,,,,,,,,,,60fd8ca49ee4de5cd43d2878,610369f9e1eb1d931b7a34eb,2021-07-29_22h56.00.524,Simcolourproject_2stim_asymm_v5,2020.2.10,MacIntel,60,61025ae37ef11b136ea224fe,,,,,,,,,1254,44.5390625,102.6054688,1,0,1,response1disk,,7,2.54296875,-2.94921875,1,0,1,rectangle,94.984375,-52.78125,1,0,1,-7.33203125,-1.65234375,1,0,1,0,145,145,67,1,,response3disk_3,TRUE,5,5,"[65,209,10,215,179,135,260,170,214,81,238,37,46,146,224,166,221,181,30,171]",1.3339,rectangle
,,,,,,,,,,,,,FF,,,,,,,,1.2175,,,,,,,,,,,,,,,,,,,,,,60fd8ca49ee4de5cd43d2878,610369f9e1eb1d931b7a34eb,2021-07-29_22h56.00.524,Simcolourproject_2stim_asymm_v5,2020.2.10,MacIntel,60,61025ae37ef11b136ea224fe,,,,,,,,,3288,48.14453125,93.38671875,1,0,1,response1disk,,7,7.4765625,2.97265625,1,0,1,rectangle,7.4765625,2.97265625,1,0,1,7.4765625,2.97265625,1,0,1,0,146,146,0,1,,,,,,,,
,,,,,,,,,,,,,FF,,,,,,,,5.3558,,,,,,,,,,,,,,,,,,,,,,60fd8ca49ee4de5cd43d2878,610369f9e1eb1d931b7a34eb,2021-07-29_22h56.00.524,Simcolourproject_2stim_asymm_v5,2020.2.10,MacIntel,60,61025ae37ef11b136ea224fe,,,,,,,,,3395,105.921875,-56.33203125,1,0,1,response3disk,,5,20.9140625,-10.578125,1,0,1,rectangle,20.9140625,-10.578125,1,0,1,20.9140625,-10.578125,1,0,1,0,147,147,18,1,,,,,,,,
,,,,,,,,,,,,,FF,,,,,,,,1.0511,,,,,,,,,,,,,,,,,,,,,,60fd8ca49ee4de5cd43d2878,610369f9e1eb1d931b7a34eb,2021-07-29_22h56.00.524,Simcolourproject_2stim_asymm_v5,2020.2.10,MacIntel,60,61025ae37ef11b136ea224fe,,,,,,,,,3556,91.02734375,-31.3203125,1,0,1,response3disk,,5,21.78515625,-0.90234375,1,0,1,rectangle,21.78515625,-0.90234375,1,0,1,21.78515625,-0.90234375,1,0,1,0,148,148,61,1,,,,,,,,
,,,,,,,,,,,,,FF,,,,,,,,3.1372,,,,,,,,,,,,,,,,,,,,,,60fd8ca49ee4de5cd43d2878,610369f9e1eb1d931b7a34eb,2021-07-29_22h56.00.524,Simcolourproject_2stim_asymm_v5,2020.2.10,MacIntel,60,61025ae37ef11b136ea224fe,,,,,,,,,1713,117.0078125,50.9140625,1,0,1,response1disk,,6,26.5234375,8.9140625,1,0,1,rectangle,26.5234375,8.9140625,1,0,1,26.5234375,8.9140625,1,0,1,0,149,149,91,1,,,,,,,,
,,,,,,,,,,,,,FF,,,,,,,,1.3861,,,,,,,,,,,,,,,,,,,,,,60fd8ca49ee4de5cd43d2878,610369f9e1eb1d931b7a34eb,2021-07-29_22h56.00.524,Simcolourproject_2stim_asymm_v5,2020.2.10,MacIntel,60,61025ae37ef11b136ea224fe,,,,,,,,,4270,-98.29296875,-59.76953125,1,0,1,response5disk,,2,21.95703125,0.0625,1,0,1,rectangle,21.95703125,0.0625,1,0,1,21.95703125,0.0625,1,0,1,0,150,150,150,1,,,,,,,,
,,,,,,,,,,,,,FF,,,,,,,,1.1006,,,,,,,,,,,,,,,,,,,,,,60fd8ca49ee4de5cd43d2878,610369f9e1eb1d931b7a34eb,2021-07-29_22h56.00.524,Simcolourproject_2stim_asymm_v5,2020.2.10,MacIntel,60,61025ae37ef11b136ea224fe,,,,,,,,,744,48.4375,-76.40234375,1,0,1,response3disk,,4,9.58203125,-6.9609375,1,0,1,rectangle,9.58203125,-6.9609375,1,0,1,9.58203125,-6.9609375,1,0,1,0,151,151,62,1,,,,,,,,
,,,,,,,,,,,,,FF,,,,,,,,5.5403,,,,,,,,,,,,,,,,,,,,,,60fd8ca49ee4de5cd43d2878,610369f9e1eb1d931b7a34eb,2021-07-29_22h56.00.524,Simcolourproject_2stim_asymm_v5,2020.2.10,MacIntel,60,61025ae37ef11b136ea224fe,,,,,,,,,3208,94.24609375,-53.3046875,1,0,1,response3disk,,5,-10.50390625,-12.6640625,1,0,1,rectangle,-10.50390625,-12.6640625,1,0,1,-10.50390625,-12.6640625,1,0,1,0,152,152,54,1,,,,,,,,
,,,,,,,,,,,,,FF,,,,,,,,1.6173,,,,,,,,,,,,,,,,,,,,,,60fd8ca49ee4de5cd43d2878,610369f9e1eb1d931b7a34eb,2021-07-29_22h56.00.524,Simcolourproject_2stim_asymm_v5,2020.2.10,MacIntel,60,61025ae37ef11b136ea224fe,,,,,,,,,3668,-43.3125,95.3515625,1,0,1,response7disk,,0,0.87890625,-6.3515625,1,0,1,rectangle,0.87890625,-6.3515625,1,0,1,0.87890625,-6.3515625,1,0,1,0,153,153,86,1,,,,,,,,
,,,,,,,,,,,,,FF,,,,,,,,1.8689,,,,,,,,,,,,,,,,,,,,,,60fd8ca49ee4de5cd43d2878,610369f9e1eb1d931b7a34eb,2021-07-29_22h56.00.524,Simcolourproject_2stim_asymm_v5,2020.2.10,MacIntel,60,61025ae37ef11b136ea224fe,,,,,,,,,2441,129.5664063,-55.6796875,1,0,1,response3disk,,5,2.4140625,-4.61328125,1,0,1,rectangle,2.4140625,-4.61328125,1,0,1,2.4140625,-4.61328125,1,0,1,0,154,154,119,1,,,,,,,,
,,,,,,,,,,,,,FF,,,,,,,,1.2675,,,,,,,,,,,,,,,,,,,,,,60fd8ca49ee4de5cd43d2878,610369f9e1eb1d931b7a34eb,2021-07-29_22h56.00.524,Simcolourproject_2stim_asymm_v5,2020.2.10,MacIntel,60,61025ae37ef11b136ea224fe,,,,,,,,,3524,93.328125,-71.0703125,1,0,1,response3disk,,5,-6.05859375,-6.38671875,1,0,1,rectangle,-6.05859375,-6.38671875,1,0,1,-6.05859375,-6.38671875,1,0,1,0,155,155,85,1,,,,,,,,
,,,,,,,,,,,,,FF,,,,,,,,0.9177,,,,,,,,,,,,,,,,,,,,,,60fd8ca49ee4de5cd43d2878,610369f9e1eb1d931b7a34eb,2021-07-29_22h56.00.524,Simcolourproject_2stim_asymm_v5,2020.2.10,MacIntel,60,61025ae37ef11b136ea224fe,,,,,,,,,407,111.2890625,-49.0859375,1,0,1,response3disk,,5,3.02734375,3.58203125,1,0,1,rectangle,3.02734375,3.58203125,1,0,1,3.02734375,3.58203125,1,0,1,0,156,156,41,1,,,,,,,,
,,,,,,,,,,,,,FF,,,,,,,,0.9176,,,,,,,,,,,,,,,,,,,,,,60fd8ca49ee4de5cd43d2878,610369f9e1eb1d931b7a34eb,2021-07-29_22h56.00.524,Simcolourproject_2stim_asymm_v5,2020.2.10,MacIntel,60,61025ae37ef11b136ea224fe,,,,,,,,,1028,109.4023438,52.63671875,1,0,1,response1disk,,6,6.921875,-9.109375,1,0,1,rectangle,6.921875,-9.109375,1,0,1,6.921875,-9.109375,1,0,1,0,157,157,68,1,,,,,,,,
,,,,,,,,,,,,,FF,,,,,,,,6.5906,,,,,,,,,,,,,,,,,,,,,,60fd8ca49ee4de5cd43d2878,610369f9e1eb1d931b7a34eb,2021-07-29_22h56.00.524,Simcolourproject_2stim_asymm_v5,2020.2.10,MacIntel,60,61025ae37ef11b136ea224fe,,,,,,,,,2509,72.02734375,-46.09375,1,0,1,response3disk,,5,12.07421875,-11.55078125,1,0,1,rectangle,12.07421875,-11.55078125,1,0,1,12.07421875,-11.55078125,1,0,1,0,158,158,22,1,,,,,,,,
,,,,,,,,,,,,,FF,,,,,,,,0.852,,,,,,,,,,,,,,,,,,,,,,60fd8ca49ee4de5cd43d2878,610369f9e1eb1d931b7a34eb,2021-07-29_22h56.00.524,Simcolourproject_2stim_asymm_v5,2020.2.10,MacIntel,60,61025ae37ef11b136ea224fe,,,,,,,,,118,106.796875,49.109375,1,0,1,response1disk,,6,-1.15625,1.00390625,1,0,1,rectangle,-1.15625,1.00390625,1,0,1,-1.15625,1.00390625,1,0,1,0,159,159,55,1,,,,,,,,
,,,,,,,,,,,,,FF,,,,,,,,2.4023,,,,,,,,,,,,,,,,,,,,,,60fd8ca49ee4de5cd43d2878,610369f9e1eb1d931b7a34eb,2021-07-29_22h56.00.524,Simcolourproject_2stim_asymm_v5,2020.2.10,MacIntel,60,61025ae37ef11b136ea224fe,,,,,,,,,4248,62.6328125,-116.125,1,0,1,response3disk,,4,25.5546875,8.5859375,1,0,1,rectangle,25.5546875,8.5859375,1,0,1,25.5546875,8.5859375,1,0,1,1,0,160,144,1,,,,,,,,
,,,,,,,,,,,,,FF,,,,,,,,1.7507,,,,,,,,,,,,,,,,,,,,,,60fd8ca49ee4de5cd43d2878,610369f9e1eb1d931b7a34eb,2021-07-29_22h56.00.524,Simcolourproject_2stim_asymm_v5,2020.2.10,MacIntel,60,61025ae37ef11b136ea224fe,,,,,,,,,2224,55.6875,-101.0859375,1,0,1,response3disk,,4,1.6953125,1.8125,1,0,1,rectangle,1.6953125,1.8125,1,0,1,1.6953125,1.8125,1,0,1,1,1,161,140,1,,,,,,,,
,,,,,,,,,,,,,FF,,,,,,,,1.4683,,,,,,,,,,,,,,,,,,,,,,60fd8ca49ee4de5cd43d2878,610369f9e1eb1d931b7a34eb,2021-07-29_22h56.00.524,Simcolourproject_2stim_asymm_v5,2020.2.10,MacIntel,60,61025ae37ef11b136ea224fe,,,,,,,,,2992,116.3789063,-63.79296875,1,0,1,response3disk,,5,7.9375,-10.390625,1,0,1,rectangle,7.9375,-10.390625,1,0,1,7.9375,-10.390625,1,0,1,1,2,162,74,1,,,,,,,,
,,,,,,,,,,,,,FF,,,,,,,,1.5173,,,,,,,,,,,,,,,,,,,,,,60fd8ca49ee4de5cd43d2878,610369f9e1eb1d931b7a34eb,2021-07-29_22h56.00.524,Simcolourproject_2stim_asymm_v5,2020.2.10,MacIntel,60,61025ae37ef11b136ea224fe,,,,,,,,,2771,51.46484375,101.015625,1,0,1,response1disk,,7,1.21875,1.92578125,1,0,1,rectangle,1.21875,1.92578125,1,0,1,1.21875,1.92578125,1,0,1,1,3,163,59,1,,,,,,,,
,,,,,,,,,,,,,FF,,,,,,,,1.0015,,,,,,,,,,,,,,,,,,,,,,60fd8ca49ee4de5cd43d2878,610369f9e1eb1d931b7a34eb,2021-07-29_22h56.00.524,Simcolourproject_2stim_asymm_v5,2020.2.10,MacIntel,60,61025ae37ef11b136ea224fe,,,,,,,,,1141,-48.31640625,-123.765625,1,0,1,response5disk,,3,1.30078125,4.03515625,1,0,1,rectangle,1.30078125,4.03515625,1,0,1,1.30078125,4.03515625,1,0,1,1,4,164,129,1,,,,,,,,
,,,,,,,,,,,,,FF,,,,,,,,1.1354,,,,,,,,,,,,,,,,,,,,,,60fd8ca49ee4de5cd43d2878,610369f9e1eb1d931b7a34eb,2021-07-29_22h56.00.524,Simcolourproject_2stim_asymm_v5,2020.2.10,MacIntel,60,61025ae37ef11b136ea224fe,,,,,,,,,3785,44.9296875,-121.2070313,1,0,1,response3disk,,4,-2.83203125,-0.2421875,1,0,1,rectangle,-44.0078125,-115.453125,1,0,1,19.5,18.51171875,1,0,1,1,5,165,68,1,,response5disk_3,TRUE,3,3,"[65,209,10,215,179,135,260,170,214,81,238,37,46,146,224,166,221,181,30,171]",1.6869,rectangle
,,,,,,,,,,,,,FF,,,,,,,,2.87,,,,,,,,,,,,,,,,,,,,,,60fd8ca49ee4de5cd43d2878,610369f9e1eb1d931b7a34eb,2021-07-29_22h56.00.524,Simcolourproject_2stim_asymm_v5,2020.2.10,MacIntel,60,61025ae37ef11b136ea224fe,,,,,,,,,739,54.4296875,-82.8515625,1,0,1,response3disk,,4,11.58984375,7.44140625,1,0,1,rectangle,11.58984375,7.44140625,1,0,1,11.58984375,7.44140625,1,0,1,1,6,166,152,1,,,,,,,,
,,,,,,,,,,,,,FF,,,,,,,,1.5387,,,,,,,,,,,,,,,,,,,,,,60fd8ca49ee4de5cd43d2878,610369f9e1eb1d931b7a34eb,2021-07-29_22h56.00.524,Simcolourproject_2stim_asymm_v5,2020.2.10,MacIntel,60,61025ae37ef11b136ea224fe,,,,,,,,,948,101.375,38.7421875,1,0,1,response1disk,,6,-3.19140625,-6.94140625,1,0,1,rectangle,-3.19140625,-6.94140625,1,0,1,-3.19140625,-6.94140625,1,0,1,1,7,167,76,1,,,,,,,,
,,,,,,,,,,,,,FF,,,,,,,,0.8005,,,,,,,,,,,,,,,,,,,,,,60fd8ca49ee4de5cd43d2878,610369f9e1eb1d931b7a34eb,2021-07-29_22h56.00.524,Simcolourproject_2stim_asymm_v5,2020.2.10,MacIntel,60,61025ae37ef11b136ea224fe,,,,,,,,,3185,98.76953125,42.6171875,1,0,1,response1disk,,6,13.515625,10.4453125,1,0,1,rectangle,13.515625,10.4453125,1,0,1,13.515625,10.4453125,1,0,1,1,8,168,82,1,,,,,,,,
,,,,,,,,,,,,,FF,,,,,,,,1.0341,,,,,,,,,,,,,,,,,,,,,,60fd8ca49ee4de5cd43d2878,610369f9e1eb1d931b7a34eb,2021-07-29_22h56.00.524,Simcolourproject_2stim_asymm_v5,2020.2.10,MacIntel,60,61025ae37ef11b136ea224fe,,,,,,,,,1828,-43.87890625,-116.0507813,1,0,1,response5disk,,3,-21.83984375,-6.87109375,1,0,1,rectangle,111.0625,41.6875,1,0,1,18.921875,0.1796875,1,0,1,1,9,169,54,1,,response1disk_3,TRUE,6,6,"[65,209,10,215,179,135,260,170,214,81,238,37,46,146,224,166,221,181,30,171]",2.5848,rectangle
,,,,,,,,,,,,,FF,,,,,,,,2.9527,,,,,,,,,,,,,,,,,,,,,,60fd8ca49ee4de5cd43d2878,610369f9e1eb1d931b7a34eb,2021-07-29_22h56.00.524,Simcolourproject_2stim_asymm_v5,2020.2.10,MacIntel,60,61025ae37ef11b136ea224fe,,,,,,,,,3377,44.62109375,-116.0039063,1,0,1,response3disk,,4,-2.453125,-5.53515625,1,0,1,rectangle,113.1835938,-53.0546875,1,0,1,-13.32421875,-6.34765625,1,0,1,1,10,170,100,1,,response3disk_3,TRUE,5,5,"[65,209,10,215,179,135,260,170,214,81,238,37,46,146,224,166,221,181,30,171]",1.4178,rectangle
,,,,,,,,,,,,,FF,,,,,,,,3.2034,,,,,,,,,,,,,,,,,,,,,,60fd8ca49ee4de5cd43d2878,610369f9e1eb1d931b7a34eb,2021-07-29_22h56.00.524,Simcolourproject_2stim_asymm_v5,2020.2.10,MacIntel,60,61025ae37ef11b136ea224fe,,,,,,,,,2130,117.453125,-59.70703125,1,0,1,response3disk,,5,30.4296875,4.5234375,1,0,1,rectangle,30.4296875,4.5234375,1,0,1,30.4296875,4.5234375,1,0,1,1,11,171,49,1,,,,,,,,
,,,,,,,,,,,,,FF,,,,,,,,3.8211,,,,,,,,,,,,,,,,,,,,,,60fd8ca49ee4de5cd43d2878,610369f9e1eb1d931b7a34eb,2021-07-29_22h56.00.524,Simcolourproject_2stim_asymm_v5,2020.2.10,MacIntel,60,61025ae37ef11b136ea224fe,,,,,,,,,3074,64.5078125,107.2929688,1,0,1,response1disk,,7,-4.84375,-2.875,1,0,1,rectangle,-4.84375,-2.875,1,0,1,-4.84375,-2.875,1,0,1,1,12,172,22,1,,,,,,,,
,,,,,,,,,,,,,FF,,,,,,,,1.2166,,,,,,,,,,,,,,,,,,,,,,60fd8ca49ee4de5cd43d2878,610369f9e1eb1d931b7a34eb,2021-07-29_22h56.00.524,Simcolourproject_2stim_asymm_v5,2020.2.10,MacIntel,60,61025ae37ef11b136ea224fe,,,,,,,,,858,88.8046875,115.234375,1,0,1,response1disk,,7,1.3828125,3.44140625,1,0,1,rectangle,1.3828125,3.44140625,1,0,1,1.3828125,3.44140625,1,0,1,1,13,173,17,1,,,,,,,,
,,,,,,,,,,,,,FF,,,,,,,,1.6844,,,,,,,,,,,,,,,,,,,,,,60fd8ca49ee4de5cd43d2878,610369f9e1eb1d931b7a34eb,2021-07-29_22h56.00.524,Simcolourproject_2stim_asymm_v5,2020.2.10,MacIntel,60,61025ae37ef11b136ea224fe,,,,,,,,,475,-56.0703125,-126.3632813,1,0,1,response5disk,,3,-1.78515625,-1.703125,1,0,1,rectangle,-1.78515625,-1.703125,1,0,1,-1.78515625,-1.703125,1,0,1,1,14,174,37,1,,,,,,,,
,,,,,,,,,,,,,FF,,,,,,,,1.334,,,,,,,,,,,,,,,,,,,,,,60fd8ca49ee4de5cd43d2878,610369f9e1eb1d931b7a34eb,2021-07-29_22h56.00.524,Simcolourproject_2stim_asymm_v5,2020.2.10,MacIntel,60,61025ae37ef11b136ea224fe,,,,,,,,,3801,50.01171875,77.484375,1,0,1,response1disk,,7,3.05859375,-2.94140625,1,0,1,rectangle,3.05859375,-2.94140625,1,0,1,3.05859375,-2.94140625,1,0,1,1,15,175,127,1,,,,,,,,
,,,,,,,,,,,,,FF,,,,,,,,1.1168,,,,,,,,,,,,,,,,,,,,,,60fd8ca49ee4de5cd43d2878,610369f9e1eb1d931b7a34eb,2021-07-29_22h56.00.524,Simcolourproject_2stim_asymm_v5,2020.2.10,MacIntel,60,61025ae37ef11b136ea224fe,,,,,,,,,1148,-49.6015625,-118.1289063,1,0,1,response5disk,,3,3.69140625,9.46484375,1,0,1,rectangle,3.69140625,9.46484375,1,0,1,3.69140625,9.46484375,1,0,1,1,16,176,149,1,,,,,,,,
,,,,,,,,,,,,,FF,,,,,,,,1.8684,,,,,,,,,,,,,,,,,,,,,,60fd8ca49ee4de5cd43d2878,610369f9e1eb1d931b7a34eb,2021-07-29_22h56.00.524,Simcolourproject_2stim_asymm_v5,2020.2.10,MacIntel,60,61025ae37ef11b136ea224fe,,,,,,,,,1943,110.7460938,-51.40625,1,0,1,response3disk,,5,-0.578125,-11.39453125,1,0,1,rectangle,-0.578125,-11.39453125,1,0,1,-0.578125,-11.39453125,1,0,1,1,17,177,133,1,,,,,,,,
,,,,,,,,,,,,,FF,,,,,,,,1.3184,,,,,,,,,,,,,,,,,,,,,,60fd8ca49ee4de5cd43d2878,610369f9e1eb1d931b7a34eb,2021-07-29_22h56.00.524,Simcolourproject_2stim_asymm_v5,2020.2.10,MacIntel,60,61025ae37ef11b136ea224fe,,,,,,,,,2789,43.29296875,-80.1953125,1,0,1,response3disk,,4,-4.5703125,-3.85546875,1,0,1,rectangle,119.9179688,35.5,1,0,1,1.05859375,-7.34375,1,0,1,1,18,178,95,1,,response1disk_3,TRUE,6,6,"[65,209,10,215,179,135,260,170,214,81,238,37,46,146,224,166,221,181,30,171]",1.7028,rectangle
,,,,,,,,,,,,,FF,,,,,,,,0.9191,,,,,,,,,,,,,,,,,,,,,,60fd8ca49ee4de5cd43d2878,610369f9e1eb1d931b7a34eb,2021-07-29_22h56.00.524,Simcolourproject_2stim_asymm_v5,2020.2.10,MacIntel,60,61025ae37ef11b136ea224fe,,,,,,,,,394,101.9921875,-45.63671875,1,0,1,response3disk,,5,18.89453125,-3.06640625,1,0,1,rectangle,18.89453125,-3.06640625,1,0,1,18.89453125,-3.06640625,1,0,1,1,19,179,32,1,,,,,,,,
,,,,,,,,,,,,,FF,,,,,,,,0.9009,,,,,,,,,,,,,,,,,,,,,,60fd8ca49ee4de5cd43d2878,610369f9e1eb1d931b7a34eb,2021-07-29_22h56.00.524,Simcolourproject_2stim_asymm_v5,2020.2.10,MacIntel,60,61025ae37ef11b136ea224fe,,,,,,,,,2714,104.0546875,36.3515625,1,0,1,response1disk,,6,5.9140625,-2.15234375,1,0,1,rectangle,-71.33984375,-126.7421875,1,0,1,-4.31640625,-0.96484375,1,0,1,1,20,180,13,1,,response5disk_3,TRUE,3,3,"[65,209,10,215,179,135,260,170,214,81,238,37,46,146,224,166,221,181,30,171]",1.7678,rectangle
,,,,,,,,,,,,,FF,,,,,,,,1.0834,,,,,,,,,,,,,,,,,,,,,,60fd8ca49ee4de5cd43d2878,610369f9e1eb1d931b7a34eb,2021-07-29_22h56.00.524,Simcolourproject_2stim_asymm_v5,2020.2.10,MacIntel,60,61025ae37ef11b136ea224fe,,,,,,,,,3982,-45.3359375,-120.3085938,1,0,1,response5disk,,3,9.2109375,-2.8359375,1,0,1,rectangle,9.2109375,-2.8359375,1,0,1,9.2109375,-2.8359375,1,0,1,1,21,181,117,1,,,,,,,,
,,,,,,,,,,,,,FF,,,,,,,,1.4843,,,,,,,,,,,,,,,,,,,,,,60fd8ca49ee4de5cd43d2878,610369f9e1eb1d931b7a34eb,2021-07-29_22h56.00.524,Simcolourproject_2stim_asymm_v5,2020.2.10,MacIntel,60,61025ae37ef11b136ea224fe,,,,,,,,,953,50.60546875,-113.765625,1,0,1,response3disk,,4,2.21484375,-7.8515625,1,0,1,rectangle,2.21484375,-7.8515625,1,0,1,2.21484375,-7.8515625,1,0,1,1,22,182,10,1,,,,,,,,
,,,,,,,,,,,,,FF,,,,,,,,1.1008,,,,,,,,,,,,,,,,,,,,,,60fd8ca49ee4de5cd43d2878,610369f9e1eb1d931b7a34eb,2021-07-29_22h56.00.524,Simcolourproject_2stim_asymm_v5,2020.2.10,MacIntel,60,61025ae37ef11b136ea224fe,,,,,,,,,958,55.40234375,-117.265625,1,0,1,response3disk,,4,6.33984375,-7.56640625,1,0,1,rectangle,6.33984375,-7.56640625,1,0,1,6.33984375,-7.56640625,1,0,1,1,23,183,73,1,,,,,,,,
,,,,,,,,,,,,,FF,,,,,,,,1.8673,,,,,,,,,,,,,,,,,,,,,,60fd8ca49ee4de5cd43d2878,610369f9e1eb1d931b7a34eb,2021-07-29_22h56.00.524,Simcolourproject_2stim_asymm_v5,2020.2.10,MacIntel,60,61025ae37ef11b136ea224fe,,,,,,,,,3713,52.3984375,-99.484375,1,0,1,response3disk,,4,11.80078125,-7.984375,1,0,1,rectangle,11.80078125,-7.984375,1,0,1,11.80078125,-7.984375,1,0,1,1,24,184,15,1,,,,,,,,
,,,,,,,,,,,,,FF,,,,,,,,1.0338,,,,,,,,,,,,,,,,,,,,,,60fd8ca49ee4de5cd43d2878,610369f9e1eb1d931b7a34eb,2021-07-29_22h56.00.524,Simcolourproject_2stim_asymm_v5,2020.2.10,MacIntel,60,61025ae37ef11b136ea224fe,,,,,,,,,3810,-95.75390625,-58.51171875,1,0,1,response5disk,,2,25.28125,6.921875,1,0,1,rectangle,25.28125,6.921875,1,0,1,25.28125,6.921875,1,0,1,1,25,185,132,1,,,,,,,,
,,,,,,,,,,,,,FF,,,,,,,,1.0345,,,,,,,,,,,,,,,,,,,,,,60fd8ca49ee4de5cd43d2878,610369f9e1eb1d931b7a34eb,2021-07-29_22h56.00.524,Simcolourproject_2stim_asymm_v5,2020.2.10,MacIntel,60,61025ae37ef11b136ea224fe,,,,,,,,,3405,95.1875,48.796875,1,0,1,response1disk,,6,21.5390625,6.76953125,1,0,1,rectangle,21.5390625,6.76953125,1,0,1,21.5390625,6.76953125,1,0,1,1,26,186,29,1,,,,,,,,
,,,,,,,,,,,,,FF,,,,,,,,0.8835,,,,,,,,,,,,,,,,,,,,,,60fd8ca49ee4de5cd43d2878,610369f9e1eb1d931b7a34eb,2021-07-29_22h56.00.524,Simcolourproject_2stim_asymm_v5,2020.2.10,MacIntel,60,61025ae37ef11b136ea224fe,,,,,,,,,3672,56.83984375,-93.234375,1,0,1,response3disk,,4,3.94140625,-1.171875,1,0,1,rectangle,3.94140625,-1.171875,1,0,1,3.94140625,-1.171875,1,0,1,1,27,187,123,1,,,,,,,,
,,,,,,,,,,,,,FF,,,,,,,,1.5353,,,,,,,,,,,,,,,,,,,,,,60fd8ca49ee4de5cd43d2878,610369f9e1eb1d931b7a34eb,2021-07-29_22h56.00.524,Simcolourproject_2stim_asymm_v5,2020.2.10,MacIntel,60,61025ae37ef11b136ea224fe,,,,,,,,,3211,43.2734375,-100.2265625,1,0,1,response3disk,,4,-1.86328125,4.97265625,1,0,1,rectangle,-1.86328125,4.97265625,1,0,1,-1.86328125,4.97265625,1,0,1,1,28,188,47,1,,,,,,,,
,,,,,,,,,,,,,FF,,,,,,,,2.2696,,,,,,,,,,,,,,,,,,,,,,60fd8ca49ee4de5cd43d2878,610369f9e1eb1d931b7a34eb,2021-07-29_22h56.00.524,Simcolourproject_2stim_asymm_v5,2020.2.10,MacIntel,60,61025ae37ef11b136ea224fe,,,,,,,,,3919,70.2890625,-51.3828125,1,0,1,response3disk,,5,2.62890625,-6.10546875,1,0,1,rectangle,2.62890625,-6.10546875,1,0,1,2.62890625,-6.10546875,1,0,1,1,29,189,3,1,,,,,,,,
,,,,,,,,,,,,,FF,,,,,,,,1.0844,,,,,,,,,,,,,,,,,,,,,,60fd8ca49ee4de5cd43d2878,610369f9e1eb1d931b7a34eb,2021-07-29_22h56.00.524,Simcolourproject_2stim_asymm_v5,2020.2.10,MacIntel,60,61025ae37ef11b136ea224fe,,,,,,,,,193,43.171875,-98.98828125,1,0,1,response3disk,,4,-4.4453125,-1.22265625,1,0,1,rectangle,-4.4453125,-1.22265625,1,0,1,-4.4453125,-1.22265625,1,0,1,1,30,190,61,1,,,,,,,,
,,,,,,,,,,,,,FF,,,,,,,,0.9849,,,,,,,,,,,,,,,,,,,,,,60fd8ca49ee4de5cd43d2878,610369f9e1eb1d931b7a34eb,2021-07-29_22h56.00.524,Simcolourproject_2stim_asymm_v5,2020.2.10,MacIntel,60,61025ae37ef11b136ea224fe,,,,,,,,,2989,39.77734375,-80.89453125,1,0,1,response3disk,,4,-18.37109375,12.00390625,1,0,1,rectangle,-18.37109375,12.00390625,1,0,1,-18.37109375,12.00390625,1,0,1,1,31,191,71,1,,,,,,,,
,,,,,,,,,,,,,FF,,,,,,,,1.118,,,,,,,,,,,,,,,,,,,,,,60fd8ca49ee4de5cd43d2878,610369f9e1eb1d931b7a34eb,2021-07-29_22h56.00.524,Simcolourproject_2stim_asymm_v5,2020.2.10,MacIntel,60,61025ae37ef11b136ea224fe,,,,,,,,,1173,105.9296875,52.671875,1,0,1,response1disk,,6,-0.70703125,-14.5703125,1,0,1,rectangle,-0.70703125,-14.5703125,1,0,1,-0.70703125,-14.5703125,1,0,1,1,32,192,55,1,,,,,,,,
,,,,,,,,,,,,,FF,,,,,,,,1.4531,,,,,,,,,,,,,,,,,,,,,,60fd8ca49ee4de5cd43d2878,610369f9e1eb1d931b7a34eb,2021-07-29_22h56.00.524,Simcolourproject_2stim_asymm_v5,2020.2.10,MacIntel,60,61025ae37ef11b136ea224fe,,,,,,,,,1008,93.67578125,45.0078125,1,0,1,response1disk,,6,0.46484375,-3.99609375,1,0,1,rectangle,0.46484375,-3.99609375,1,0,1,0.46484375,-3.99609375,1,0,1,1,33,193,109,1,,,,,,,,
,,,,,,,,,,,,,FF,,,,,,,,1.4016,,,,,,,,,,,,,,,,,,,,,,60fd8ca49ee4de5cd43d2878,610369f9e1eb1d931b7a34eb,2021-07-29_22h56.00.524,Simcolourproject_2stim_asymm_v5,2020.2.10,MacIntel,60,61025ae37ef11b136ea224fe,,,,,,,,,4308,51.6640625,91.6640625,1,0,1,response1disk,,7,7.40234375,-18.89453125,1,0,1,rectangle,7.40234375,-18.89453125,1,0,1,7.40234375,-18.89453125,1,0,1,1,34,194,78,1,,,,,,,,
,,,,,,,,,,,,,FF,,,,,,,,0.95,,,,,,,,,,,,,,,,,,,,,,60fd8ca49ee4de5cd43d2878,610369f9e1eb1d931b7a34eb,2021-07-29_22h56.00.524,Simcolourproject_2stim_asymm_v5,2020.2.10,MacIntel,60,61025ae37ef11b136ea224fe,,,,,,,,,2921,103.1601563,41.01953125,1,0,1,response1disk,,6,-7.7890625,-4.5625,1,0,1,rectangle,-7.7890625,-4.5625,1,0,1,-7.7890625,-4.5625,1,0,1,1,35,195,4,1,,,,,,,,
,,,,,,,,,,,,,FF,,,,,,,,1.218,,,,,,,,,,,,,,,,,,,,,,60fd8ca49ee4de5cd43d2878,610369f9e1eb1d931b7a34eb,2021-07-29_22h56.00.524,Simcolourproject_2stim_asymm_v5,2020.2.10,MacIntel,60,61025ae37ef11b136ea224fe,,,,,,,,,1266,99.48046875,-66.86328125,1,0,1,response3disk,,5,1.2578125,8.98828125,1,0,1,rectangle,1.2578125,8.98828125,1,0,1,1.2578125,8.98828125,1,0,1,1,36,196,155,1,,,,,,,,
,,,,,,,,,,,,,FF,,,,,,,,1.4834,,,,,,,,,,,,,,,,,,,,,,60fd8ca49ee4de5cd43d2878,610369f9e1eb1d931b7a34eb,2021-07-29_22h56.00.524,Simcolourproject_2stim_asymm_v5,2020.2.10,MacIntel,60,61025ae37ef11b136ea224fe,,,,,,,,,2040,45.0078125,-88.41796875,1,0,1,response3disk,,4,2.1875,-14.484375,1,0,1,rectangle,2.1875,-14.484375,1,0,1,2.1875,-14.484375,1,0,1,1,37,197,21,1,,,,,,,,
,,,,,,,,,,,,,FF,,,,,,,,1.117,,,,,,,,,,,,,,,,,,,,,,60fd8ca49ee4de5cd43d2878,610369f9e1eb1d931b7a34eb,2021-07-29_22h56.00.524,Simcolourproject_2stim_asymm_v5,2020.2.10,MacIntel,60,61025ae37ef11b136ea224fe,,,,,,,,,3078,104.2226563,64.65625,1,0,1,response1disk,,6,21.078125,-7.5390625,1,0,1,rectangle,21.078125,-7.5390625,1,0,1,21.078125,-7.5390625,1,0,1,1,38,198,67,1,,,,,,,,
,,,,,,,,,,,,,FF,,,,,,,,0.7688,,,,,,,,,,,,,,,,,,,,,,60fd8ca49ee4de5cd43d2878,610369f9e1eb1d931b7a34eb,2021-07-29_22h56.00.524,Simcolourproject_2stim_asymm_v5,2020.2.10,MacIntel,60,61025ae37ef11b136ea224fe,,,,,,,,,1638,69.58203125,102.515625,1,0,1,response1disk,,7,-7.8515625,5.41015625,1,0,1,rectangle,-7.8515625,5.41015625,1,0,1,-7.8515625,5.41015625,1,0,1,1,39,199,124,1,,,,,,,,
,,,,,,,,,,,,,FF,,,,,,,,1.7358,,,,,,,,,,,,,,,,,,,,,,60fd8ca49ee4de5cd43d2878,610369f9e1eb1d931b7a34eb,2021-07-29_22h56.00.524,Simcolourproject_2stim_asymm_v5,2020.2.10,MacIntel,60,61025ae37ef11b136ea224fe,,,,,,,,,1687,-29.8125,-79.19140625,1,0,1,response5disk,,3,4.58203125,5.93359375,1,0,1,rectangle,4.58203125,5.93359375,1,0,1,4.58203125,5.93359375,1,0,1,1,40,200,135,1,,,,,,,,
,,,,,,,,,,,,,FF,,,,,,,,2.7871,,,,,,,,,,,,,,,,,,,,,,60fd8ca49ee4de5cd43d2878,610369f9e1eb1d931b7a34eb,2021-07-29_22h56.00.524,Simcolourproject_2stim_asymm_v5,2020.2.10,MacIntel,60,61025ae37ef11b136ea224fe,,,,,,,,,1838,54.203125,108.9140625,1,0,1,response1disk,,7,-9.37890625,0.28125,1,0,1,rectangle,-9.37890625,0.28125,1,0,1,-9.37890625,0.28125,1,0,1,1,41,201,30,1,,,,,,,,
,,,,,,,,,,,,,FF,,,,,,,,1.3168,,,,,,,,,,,,,,,,,,,,,,60fd8ca49ee4de5cd43d2878,610369f9e1eb1d931b7a34eb,2021-07-29_22h56.00.524,Simcolourproject_2stim_asymm_v5,2020.2.10,MacIntel,60,61025ae37ef11b136ea224fe,,,,,,,,,356,120.0507813,-61.08203125,1,0,1,response3disk,,5,21.71484375,4.10546875,1,0,1,rectangle,21.71484375,4.10546875,1,0,1,21.71484375,4.10546875,1,0,1,1,42,202,62,1,,,,,,,,
,,,,,,,,,,,,,FF,,,,,,,,1.2008,,,,,,,,,,,,,,,,,,,,,,60fd8ca49ee4de5cd43d2878,610369f9e1eb1d931b7a34eb,2021-07-29_22h56.00.524,Simcolourproject_2stim_asymm_v5,2020.2.10,MacIntel,60,61025ae37ef11b136ea224fe,,,,,,,,,1034,-30.8125,-111.6523438,1,0,1,response5disk,,3,-15.0703125,6.65625,1,0,1,rectangle,-15.0703125,6.65625,1,0,1,-15.0703125,6.65625,1,0,1,1,43,203,116,1,,,,,,,,
,,,,,,,,,,,,,FF,,,,,,,,0.7839,,,,,,,,,,,,,,,,,,,,,,60fd8ca49ee4de5cd43d2878,610369f9e1eb1d931b7a34eb,2021-07-29_22h56.00.524,Simcolourproject_2stim_asymm_v5,2020.2.10,MacIntel,60,61025ae37ef11b136ea224fe,,,,,,,,,975,-98.33984375,-65.39453125,1,0,1,response5disk,,2,-0.40625,-2.15625,1,0,1,rectangle,-0.40625,-2.15625,1,0,1,-0.40625,-2.15625,1,0,1,1,44,204,101,1,,,,,,,,
,,,,,,,,,,,,,FF,,,,,,,,0.8832,,,,,,,,,,,,,,,,,,,,,,60fd8ca49ee4de5cd43d2878,610369f9e1eb1d931b7a34eb,2021-07-29_22h56.00.524,Simcolourproject_2stim_asymm_v5,2020.2.10,MacIntel,60,61025ae37ef11b136ea224fe,,,,,,,,,1101,50.51171875,-111.3085938,1,0,1,response3disk,,4,-0.39453125,-7.48828125,1,0,1,rectangle,-0.39453125,-7.48828125,1,0,1,-0.39453125,-7.48828125,1,0,1,1,45,205,96,1,,,,,,,,
,,,,,,,,,,,,,FF,,,,,,,,0.9004,,,,,,,,,,,,,,,,,,,,,,60fd8ca49ee4de5cd43d2878,610369f9e1eb1d931b7a34eb,2021-07-29_22h56.00.524,Simcolourproject_2stim_asymm_v5,2020.2.10,MacIntel,60,61025ae37ef11b136ea224fe,,,,,,,,,3092,-31.1484375,-123.2421875,1,0,1,response5disk,,3,6.8984375,9.12890625,1,0,1,rectangle,6.8984375,9.12890625,1,0,1,6.8984375,9.12890625,1,0,1,1,46,206,128,1,,,,,,,,
,,,,,,,,,,,,,FF,,,,,,,,1.2339,,,,,,,,,,,,,,,,,,,,,,60fd8ca49ee4de5cd43d2878,610369f9e1eb1d931b7a34eb,2021-07-29_22h56.00.524,Simcolourproject_2stim_asymm_v5,2020.2.10,MacIntel,60,61025ae37ef11b136ea224fe,,,,,,,,,4052,-85.484375,47.19921875,1,0,1,response7disk,,1,-2.640625,3.2421875,1,0,1,rectangle,-2.640625,3.2421875,1,0,1,-2.640625,3.2421875,1,0,1,1,47,207,12,1,,,,,,,,
,,,,,,,,,,,,,FF,,,,,,,,1.6013,,,,,,,,,,,,,,,,,,,,,,60fd8ca49ee4de5cd43d2878,610369f9e1eb1d931b7a34eb,2021-07-29_22h56.00.524,Simcolourproject_2stim_asymm_v5,2020.2.10,MacIntel,60,61025ae37ef11b136ea224fe,,,,,,,,,4018,68.88671875,80.98046875,1,0,1,response1disk,,7,-7.5859375,-20.39453125,1,0,1,rectangle,52.58984375,-104.0234375,1,0,1,-2.35546875,-5.3984375,1,0,1,1,48,208,14,1,,response3disk_3,TRUE,4,4,"[65,209,10,215,179,135,260,170,214,81,238,37,46,146,224,166,221,181,30,171]",1.1011,rectangle
,,,,,,,,,,,,,FF,,,,,,,,0.9348,,,,,,,,,,,,,,,,,,,,,,60fd8ca49ee4de5cd43d2878,610369f9e1eb1d931b7a34eb,2021-07-29_22h56.00.524,Simcolourproject_2stim_asymm_v5,2020.2.10,MacIntel,60,61025ae37ef11b136ea224fe,,,,,,,,,2173,-32.98046875,-105.5390625,1,0,1,response5disk,,3,-0.3203125,20.203125,0,0,1,rectangle,-0.3203125,20.203125,0,0,1,-0.3203125,20.203125,0,0,1,1,49,209,147,1,,,,,,,,
,,,,,,,,,,,,,FF,,,,,,,,2.302,,,,,,,,,,,,,,,,,,,,,,60fd8ca49ee4de5cd43d2878,610369f9e1eb1d931b7a34eb,2021-07-29_22h56.00.524,Simcolourproject_2stim_asymm_v5,2020.2.10,MacIntel,60,61025ae37ef11b136ea224fe,,,,,,,,,1850,86.5390625,34.69921875,1,0,1,response1disk,,6,3.3984375,0.70703125,1,0,1,rectangle,3.3984375,0.70703125,1,0,1,3.3984375,0.70703125,1,0,1,1,50,210,26,1,,,,,,,,
,,,,,,,,,,,,,FF,,,,,,,,0.9503,,,,,,,,,,,,,,,,,,,,,,60fd8ca49ee4de5cd43d2878,610369f9e1eb1d931b7a34eb,2021-07-29_22h56.00.524,Simcolourproject_2stim_asymm_v5,2020.2.10,MacIntel,60,61025ae37ef11b136ea224fe,,,,,,,,,2546,-42.20703125,-93.29296875,1,0,1,response5disk,,3,-10.140625,8.01171875,1,0,1,rectangle,-10.140625,8.01171875,1,0,1,-10.140625,8.01171875,1,0,1,1,51,211,24,1,,,,,,,,
,,,,,,,,,,,,,FF,,,,,,,,0.817,,,,,,,,,,,,,,,,,,,,,,60fd8ca49ee4de5cd43d2878,610369f9e1eb1d931b7a34eb,2021-07-29_22h56.00.524,Simcolourproject_2stim_asymm_v5,2020.2.10,MacIntel,60,61025ae37ef11b136ea224fe,,,,,,,,,100,49.67578125,-96.07421875,1,0,1,response3disk,,4,0.1796875,-1.515625,1,0,1,rectangle,0.1796875,-1.515625,1,0,1,0.1796875,-1.515625,1,0,1,1,52,212,87,1,,,,,,,,
,,,,,,,,,,,,,FF,,,,,,,,1.2508,,,,,,,,,,,,,,,,,,,,,,60fd8ca49ee4de5cd43d2878,610369f9e1eb1d931b7a34eb,2021-07-29_22h56.00.524,Simcolourproject_2stim_asymm_v5,2020.2.10,MacIntel,60,61025ae37ef11b136ea224fe,,,,,,,,,4305,-105.0039063,46.5703125,1,0,1,response7disk,,1,-6.828125,-2.89453125,1,0,1,rectangle,118.0039063,-49.7421875,1,0,1,5.7265625,0.13671875,1,0,1,1,53,213,25,1,,response3disk_3,TRUE,5,5,"[65,209,10,215,179,135,260,170,214,81,238,37,46,146,224,166,221,181,30,171]",6.9072,rectangle
,,,,,,,,,,,,,FF,,,,,,,,3.1031,,,,,,,,,,,,,,,,,,,,,,60fd8ca49ee4de5cd43d2878,610369f9e1eb1d931b7a34eb,2021-07-29_22h56.00.524,Simcolourproject_2stim_asymm_v5,2020.2.10,MacIntel,60,61025ae37ef11b136ea224fe,,,,,,,,,2110,95.02734375,-58.5859375,1,0,1,response3disk,,5,8.4765625,15.04296875,1,0,1,rectangle,-110.7460938,-67.98828125,1,0,1,6.2109375,0.82421875,1,0,1,1,54,214,2,1,,response5disk_3,TRUE,2,2,"[65,209,10,215,179,135,260,170,214,81,238,37,46,146,224,166,221,181,30,171]",1.5013,rectangle
,,,,,,,,,,,,,FF,,,,,,,,1.1347,,,,,,,,,,,,,,,,,,,,,,60fd8ca49ee4de5cd43d2878,610369f9e1eb1d931b7a34eb,2021-07-29_22h56.00.524,Simcolourproject_2stim_asymm_v5,2020.2.10,MacIntel,60,61025ae37ef11b136ea224fe,,,,,,,,,3111,29.4609375,-112.0039063,1,0,1,response3disk,,4,-4.890625,1.390625,1,0,1,rectangle,-4.890625,1.390625,1,0,1,-4.890625,1.390625,1,0,1,1,55,215,97,1,,,,,,,,
,,,,,,,,,,,,,FF,,,,,,,,1.2844,,,,,,,,,,,,,,,,,,,,,,60fd8ca49ee4de5cd43d2878,610369f9e1eb1d931b7a34eb,2021-07-29_22h56.00.524,Simcolourproject_2stim_asymm_v5,2020.2.10,MacIntel,60,61025ae37ef11b136ea224fe,,,,,,,,,2295,-99.1875,-49.890625,1,0,1,response5disk,,2,-1.62109375,5.19140625,1,0,1,rectangle,-1.62109375,5.19140625,1,0,1,-1.62109375,5.19140625,1,0,1,1,56,216,106,1,,,,,,,,
,,,,,,,,,,,,,FF,,,,,,,,0.9835,,,,,,,,,,,,,,,,,,,,,,60fd8ca49ee4de5cd43d2878,610369f9e1eb1d931b7a34eb,2021-07-29_22h56.00.524,Simcolourproject_2stim_asymm_v5,2020.2.10,MacIntel,60,61025ae37ef11b136ea224fe,,,,,,,,,77,-35.796875,92.578125,1,0,1,response7disk,,0,-3.99609375,1.8828125,1,0,1,rectangle,-3.99609375,1.8828125,1,0,1,-3.99609375,1.8828125,1,0,1,1,57,217,20,1,,,,,,,,
,,,,,,,,,,,,,FF,,,,,,,,1.6519,,,,,,,,,,,,,,,,,,,,,,60fd8ca49ee4de5cd43d2878,610369f9e1eb1d931b7a34eb,2021-07-29_22h56.00.524,Simcolourproject_2stim_asymm_v5,2020.2.10,MacIntel,60,61025ae37ef11b136ea224fe,,,,,,,,,2166,-118.9023438,51.296875,1,0,1,response7disk,,1,-17.53515625,4.39453125,1,0,1,rectangle,-17.53515625,4.39453125,1,0,1,-17.53515625,4.39453125,1,0,1,1,58,218,83,1,,,,,,,,
,,,,,,,,,,,,,FF,,,,,,,,0.8674,,,,,,,,,,,,,,,,,,,,,,60fd8ca49ee4de5cd43d2878,610369f9e1eb1d931b7a34eb,2021-07-29_22h56.00.524,Simcolourproject_2stim_asymm_v5,2020.2.10,MacIntel,60,61025ae37ef11b136ea224fe,,,,,,,,,3898,38.921875,-112.0390625,1,0,1,response3disk,,4,-25.62890625,12.85546875,1,0,1,rectangle,-25.62890625,12.85546875,1,0,1,-25.62890625,12.85546875,1,0,1,1,59,219,91,1,,,,,,,,
,,,,,,,,,,,,,FF,,,,,,,,1.1514,,,,,,,,,,,,,,,,,,,,,,60fd8ca49ee4de5cd43d2878,610369f9e1eb1d931b7a34eb,2021-07-29_22h56.00.524,Simcolourproject_2stim_asymm_v5,2020.2.10,MacIntel,60,61025ae37ef11b136ea224fe,,,,,,,,,3538,132.2890625,51.8984375,1,0,1,response1disk,,6,-25.625,-17.7109375,1,0,1,rectangle,131.1015625,-52,1,0,1,17.140625,-0.4453125,1,0,1,1,60,220,43,1,,response3disk_3,TRUE,5,5,"[65,209,10,215,179,135,260,170,214,81,238,37,46,146,224,166,221,181,30,171]",1.4184,rectangle
,,,,,,,,,,,,,FF,,,,,,,,0.9514,,,,,,,,,,,,,,,,,,,,,,60fd8ca49ee4de5cd43d2878,610369f9e1eb1d931b7a34eb,2021-07-29_22h56.00.524,Simcolourproject_2stim_asymm_v5,2020.2.10,MacIntel,60,61025ae37ef11b136ea224fe,,,,,,,,,3674,49.54296875,-92.59765625,1,0,1,response3disk,,4,15.5546875,-0.37890625,1,0,1,rectangle,15.5546875,-0.37890625,1,0,1,15.5546875,-0.37890625,1,0,1,1,61,221,56,1,,,,,,,,
,,,,,,,,,,,,,FF,,,,,,,,1.0506,,,,,,,,,,,,,,,,,,,,,,60fd8ca49ee4de5cd43d2878,610369f9e1eb1d931b7a34eb,2021-07-29_22h56.00.524,Simcolourproject_2stim_asymm_v5,2020.2.10,MacIntel,60,61025ae37ef11b136ea224fe,,,,,,,,,1426,103.6328125,-48.16015625,1,0,1,response3disk,,5,10.7734375,-0.09375,1,0,1,rectangle,10.7734375,-0.09375,1,0,1,10.7734375,-0.09375,1,0,1,1,62,222,94,1,,,,,,,,
,,,,,,,,,,,,,FF,,,,,,,,0.5507,,,,,,,,,,,,,,,,,,,,,,60fd8ca49ee4de5cd43d2878,610369f9e1eb1d931b7a34eb,2021-07-29_22h56.00.524,Simcolourproject_2stim_asymm_v5,2020.2.10,MacIntel,60,61025ae37ef11b136ea224fe,,,,,,,,,3847,44.890625,-100.1445313,1,0,1,response3disk,,4,3.23828125,-7.93359375,1,0,1,rectangle,-100.8789063,37.546875,1,0,1,5.328125,-5.65234375,1,0,1,1,63,223,39,1,,response7disk_3,TRUE,1,1,"[65,209,10,215,179,135,260,170,214,81,238,37,46,146,224,166,221,181,30,171]",1.9348,rectangle
,,,,,,,,,,,,,FF,,,,,,,,0.8328,,,,,,,,,,,,,,,,,,,,,,60fd8ca49ee4de5cd43d2878,610369f9e1eb1d931b7a34eb,2021-07-29_22h56.00.524,Simcolourproject_2stim_asymm_v5,2020.2.10,MacIntel,60,61025ae37ef11b136ea224fe,,,,,,,,,3661,-58.484375,-108.6015625,1,0,1,response5disk,,3,-14.76953125,-4.41796875,1,0,1,rectangle,-14.76953125,-4.41796875,1,0,1,-14.76953125,-4.41796875,1,0,1,1,64,224,137,1,,,,,,,,
,,,,,,,,,,,,,FF,,,,,,,,0.8342,,,,,,,,,,,,,,,,,,,,,,60fd8ca49ee4de5cd43d2878,610369f9e1eb1d931b7a34eb,2021-07-29_22h56.00.524,Simcolourproject_2stim_asymm_v5,2020.2.10,MacIntel,60,61025ae37ef11b136ea224fe,,,,,,,,,4101,-56.32421875,-108.6015625,1,0,1,response5disk,,3,17.01171875,4.06640625,1,0,1,rectangle,17.01171875,4.06640625,1,0,1,17.01171875,4.06640625,1,0,1,1,65,225,156,1,,,,,,,,
,,,,,,,,,,,,,FF,,,,,,,,0.7667,,,,,,,,,,,,,,,,,,,,,,60fd8ca49ee4de5cd43d2878,610369f9e1eb1d931b7a34eb,2021-07-29_22h56.00.524,Simcolourproject_2stim_asymm_v5,2020.2.10,MacIntel,60,61025ae37ef11b136ea224fe,,,,,,,,,842,116.921875,-55.703125,1,0,1,response3disk,,5,3.734375,-1.65625,1,0,1,rectangle,3.734375,-1.65625,1,0,1,3.734375,-1.65625,1,0,1,1,66,226,31,1,,,,,,,,
,,,,,,,,,,,,,FF,,,,,,,,0.7006,,,,,,,,,,,,,,,,,,,,,,60fd8ca49ee4de5cd43d2878,610369f9e1eb1d931b7a34eb,2021-07-29_22h56.00.524,Simcolourproject_2stim_asymm_v5,2020.2.10,MacIntel,60,61025ae37ef11b136ea224fe,,,,,,,,,3445,107.6757813,39.62890625,1,0,1,response1disk,,6,-9.60546875,-8.84375,1,0,1,rectangle,-9.60546875,-8.84375,1,0,1,-9.60546875,-8.84375,1,0,1,1,67,227,143,1,,,,,,,,
,,,,,,,,,,,,,FF,,,,,,,,1.1512,,,,,,,,,,,,,,,,,,,,,,60fd8ca49ee4de5cd43d2878,610369f9e1eb1d931b7a34eb,2021-07-29_22h56.00.524,Simcolourproject_2stim_asymm_v5,2020.2.10,MacIntel,60,61025ae37ef11b136ea224fe,,,,,,,,,370,-43.91015625,-119.3242188,1,0,1,response5disk,,3,3.109375,0.98046875,1,0,1,rectangle,3.109375,0.98046875,1,0,1,3.109375,0.98046875,1,0,1,1,68,228,33,1,,,,,,,,
,,,,,,,,,,,,,FF,,,,,,,,1.5168,,,,,,,,,,,,,,,,,,,,,,60fd8ca49ee4de5cd43d2878,610369f9e1eb1d931b7a34eb,2021-07-29_22h56.00.524,Simcolourproject_2stim_asymm_v5,2020.2.10,MacIntel,60,61025ae37ef11b136ea224fe,,,,,,,,,2381,107.578125,44.578125,1,0,1,response1disk,,6,-18.56640625,-9.0390625,1,0,1,rectangle,-18.56640625,-9.0390625,1,0,1,-18.56640625,-9.0390625,1,0,1,1,69,229,121,1,,,,,,,,
,,,,,,,,,,,,,FF,,,,,,,,1.2517,,,,,,,,,,,,,,,,,,,,,,60fd8ca49ee4de5cd43d2878,610369f9e1eb1d931b7a34eb,2021-07-29_22h56.00.524,Simcolourproject_2stim_asymm_v5,2020.2.10,MacIntel,60,61025ae37ef11b136ea224fe,,,,,,,,,878,94.2734375,-41.84375,1,0,1,response3disk,,5,-13.328125,-4.921875,1,0,1,rectangle,-13.328125,-4.921875,1,0,1,-13.328125,-4.921875,1,0,1,1,70,230,122,1,,,,,,,,
,,,,,,,,,,,,,FF,,,,,,,,0.9522,,,,,,,,,,,,,,,,,,,,,,60fd8ca49ee4de5cd43d2878,610369f9e1eb1d931b7a34eb,2021-07-29_22h56.00.524,Simcolourproject_2stim_asymm_v5,2020.2.10,MacIntel,60,61025ae37ef11b136ea224fe,,,,,,,,,1985,115.6445313,-51.5703125,1,0,1,response3disk,,5,-10.0625,-1.28515625,1,0,1,rectangle,-10.0625,-1.28515625,1,0,1,-10.0625,-1.28515625,1,0,1,1,71,231,57,1,,,,,,,,
,,,,,,,,,,,,,FF,,,,,,,,0.9518,,,,,,,,,,,,,,,,,,,,,,60fd8ca49ee4de5cd43d2878,610369f9e1eb1d931b7a34eb,2021-07-29_22h56.00.524,Simcolourproject_2stim_asymm_v5,2020.2.10,MacIntel,60,61025ae37ef11b136ea224fe,,,,,,,,,1790,67.796875,106.1796875,1,0,1,response1disk,,7,11.90625,5.31640625,1,0,1,rectangle,11.90625,5.31640625,1,0,1,11.90625,5.31640625,1,0,1,1,72,232,85,1,,,,,,,,
,,,,,,,,,,,,,FF,,,,,,,,0.5508,,,,,,,,,,,,,,,,,,,,,,60fd8ca49ee4de5cd43d2878,610369f9e1eb1d931b7a34eb,2021-07-29_22h56.00.524,Simcolourproject_2stim_asymm_v5,2020.2.10,MacIntel,60,61025ae37ef11b136ea224fe,,,,,,,,,4032,42.34375,87.64453125,1,0,1,response1disk,,7,6.390625,1.609375,1,0,1,rectangle,6.390625,1.609375,1,0,1,6.390625,1.609375,1,0,1,1,73,233,8,1,,,,,,,,
,,,,,,,,,,,,,FF,,,,,,,,1.7189,,,,,,,,,,,,,,,,,,,,,,60fd8ca49ee4de5cd43d2878,610369f9e1eb1d931b7a34eb,2021-07-29_22h56.00.524,Simcolourproject_2stim_asymm_v5,2020.2.10,MacIntel,60,61025ae37ef11b136ea224fe,,,,,,,,,786,30.63671875,-110.78125,1,0,1,response3disk,,4,-13.9921875,-14.8828125,1,0,1,rectangle,-13.9921875,-14.8828125,1,0,1,-13.9921875,-14.8828125,1,0,1,1,74,234,53,1,,,,,,,,
,,,,,,,,,,,,,FF,,,,,,,,1.1024,,,,,,,,,,,,,,,,,,,,,,60fd8ca49ee4de5cd43d2878,610369f9e1eb1d931b7a34eb,2021-07-29_22h56.00.524,Simcolourproject_2stim_asymm_v5,2020.2.10,MacIntel,60,61025ae37ef11b136ea224fe,,,,,,,,,1798,115.8359375,43.62109375,1,0,1,response1disk,,6,2.96484375,-3.4453125,1,0,1,rectangle,2.96484375,-3.4453125,1,0,1,2.96484375,-3.4453125,1,0,1,1,75,235,108,1,,,,,,,,
,,,,,,,,,,,,,FF,,,,,,,,1.7516,,,,,,,,,,,,,,,,,,,,,,60fd8ca49ee4de5cd43d2878,610369f9e1eb1d931b7a34eb,2021-07-29_22h56.00.524,Simcolourproject_2stim_asymm_v5,2020.2.10,MacIntel,60,61025ae37ef11b136ea224fe,,,,,,,,,2478,53.75390625,92.7734375,1,0,1,response1disk,,7,-0.8203125,-5.19140625,1,0,1,rectangle,-0.8203125,-5.19140625,1,0,1,-0.8203125,-5.19140625,1,0,1,1,76,236,77,1,,,,,,,,
,,,,,,,,,,,,,FF,,,,,,,,1.4527,,,,,,,,,,,,,,,,,,,,,,60fd8ca49ee4de5cd43d2878,610369f9e1eb1d931b7a34eb,2021-07-29_22h56.00.524,Simcolourproject_2stim_asymm_v5,2020.2.10,MacIntel,60,61025ae37ef11b136ea224fe,,,,,,,,,897,-35.953125,-120.1328125,1,0,1,response5disk,,3,13.22265625,6.2890625,1,0,1,rectangle,56.54296875,-110.4804688,1,0,1,13.2265625,-6.73046875,1,0,1,1,77,237,113,1,,response3disk_3,TRUE,4,4,"[65,209,10,215,179,135,260,170,214,81,238,37,46,146,224,166,221,181,30,171]",1.5689,rectangle
,,,,,,,,,,,,,FF,,,,,,,,1.1003,,,,,,,,,,,,,,,,,,,,,,60fd8ca49ee4de5cd43d2878,610369f9e1eb1d931b7a34eb,2021-07-29_22h56.00.524,Simcolourproject_2stim_asymm_v5,2020.2.10,MacIntel,60,61025ae37ef11b136ea224fe,,,,,,,,,3410,116.9804688,47.8671875,1,0,1,response1disk,,6,2.29296875,-3.9140625,1,0,1,rectangle,2.29296875,-3.9140625,1,0,1,2.29296875,-3.9140625,1,0,1,1,78,238,41,1,,,,,,,,
,,,,,,,,,,,,,FF,,,,,,,,1.1848,,,,,,,,,,,,,,,,,,,,,,60fd8ca49ee4de5cd43d2878,610369f9e1eb1d931b7a34eb,2021-07-29_22h56.00.524,Simcolourproject_2stim_asymm_v5,2020.2.10,MacIntel,60,61025ae37ef11b136ea224fe,,,,,,,,,3988,137.6523438,46.78125,1,0,1,response1disk,,6,0.53515625,-4.51171875,1,0,1,rectangle,0.53515625,-4.51171875,1,0,1,0.53515625,-4.51171875,1,0,1,1,79,239,28,1,,,,,,,,
,,,,,,,,,,,,,FF,,,,,,,,1.8521,,,,,,,,,,,,,,,,,,,,,,60fd8ca49ee4de5cd43d2878,610369f9e1eb1d931b7a34eb,2021-07-29_22h56.00.524,Simcolourproject_2stim_asymm_v5,2020.2.10,MacIntel,60,61025ae37ef11b136ea224fe,,,,,,,,,2987,-102.9140625,-50.99609375,1,0,1,response5disk,,2,25.953125,0.5703125,1,0,1,rectangle,25.953125,0.5703125,1,0,1,25.953125,0.5703125,1,0,1,1,80,240,60,1,,,,,,,,
,,,,,,,,,,,,,FF,,,,,,,,0.85,,,,,,,,,,,,,,,,,,,,,,60fd8ca49ee4de5cd43d2878,610369f9e1eb1d931b7a34eb,2021-07-29_22h56.00.524,Simcolourproject_2stim_asymm_v5,2020.2.10,MacIntel,60,61025ae37ef11b136ea224fe,,,,,,,,,3907,-38.9296875,-110.59375,0,0,1,response5disk,,3,9.3046875,8.36328125,1,0,1,rectangle,9.3046875,8.36328125,1,0,1,9.3046875,8.36328125,1,0,1,1,81,241,27,1,,,,,,,,
,,,,,,,,,,,,,FF,,,,,,,,1.2852,,,,,,,,,,,,,,,,,,,,,,60fd8ca49ee4de5cd43d2878,610369f9e1eb1d931b7a34eb,2021-07-29_22h56.00.524,Simcolourproject_2stim_asymm_v5,2020.2.10,MacIntel,60,61025ae37ef11b136ea224fe,,,,,,,,,2471,109.0820313,34.34765625,1,0,1,response1disk,,6,-16.55859375,-18.11328125,1,0,1,rectangle,-16.55859375,-18.11328125,1,0,1,-16.55859375,-18.11328125,1,0,1,1,82,242,112,1,,,,,,,,
,,,,,,,,,,,,,FF,,,,,,,,2.4366,,,,,,,,,,,,,,,,,,,,,,60fd8ca49ee4de5cd43d2878,610369f9e1eb1d931b7a34eb,2021-07-29_22h56.00.524,Simcolourproject_2stim_asymm_v5,2020.2.10,MacIntel,60,61025ae37ef11b136ea224fe,,,,,,,,,938,52.3046875,108.125,1,0,1,response1disk,,7,15.25390625,6.82421875,1,0,1,rectangle,15.25390625,6.82421875,1,0,1,15.25390625,6.82421875,1,0,1,1,83,243,158,1,,,,,,,,
,,,,,,,,,,,,,FF,,,,,,,,0.9848,,,,,,,,,,,,,,,,,,,,,,60fd8ca49ee4de5cd43d2878,610369f9e1eb1d931b7a34eb,2021-07-29_22h56.00.524,Simcolourproject_2stim_asymm_v5,2020.2.10,MacIntel,60,61025ae37ef11b136ea224fe,,,,,,,,,1987,61.6328125,90.25390625,1,0,1,response1disk,,7,16.7578125,-21.14453125,1,0,1,rectangle,16.7578125,-21.14453125,1,0,1,16.7578125,-21.14453125,1,0,1,1,84,244,154,1,,,,,,,,
,,,,,,,,,,,,,FF,,,,,,,,0.7014,,,,,,,,,,,,,,,,,,,,,,60fd8ca49ee4de5cd43d2878,610369f9e1eb1d931b7a34eb,2021-07-29_22h56.00.524,Simcolourproject_2stim_asymm_v5,2020.2.10,MacIntel,60,61025ae37ef11b136ea224fe,,,,,,,,,2535,107.1875,45.875,1,0,1,response1disk,,6,-13.3125,-6.15234375,1,0,1,rectangle,-13.3125,-6.15234375,1,0,1,-13.3125,-6.15234375,1,0,1,1,85,245,84,1,,,,,,,,
,,,,,,,,,,,,,FF,,,,,,,,1.2348,,,,,,,,,,,,,,,,,,,,,,60fd8ca49ee4de5cd43d2878,610369f9e1eb1d931b7a34eb,2021-07-29_22h56.00.524,Simcolourproject_2stim_asymm_v5,2020.2.10,MacIntel,60,61025ae37ef11b136ea224fe,,,,,,,,,173,-52.7421875,-96.12109375,1,0,1,response5disk,,3,-2.5859375,-18.09765625,1,0,1,rectangle,-2.5859375,-18.09765625,1,0,1,-2.5859375,-18.09765625,1,0,1,1,86,246,134,1,,,,,,,,
