key_resp.keys,key_resp.rt,key_resp_14.keys,key_resp_14.rt,key_resp_15.keys,key_resp_15.rt,key_resp_17.keys,key_resp_17.rt,key_resp_9.keys,key_resp_9.rt,key_resp_10.keys,key_resp_10.rt,practice_comparison,Ecc,mouse_5.x,mouse_5.y,mouse_5.leftButton,mouse_5.midButton,mouse_5.rightButton,mouse_5.clicked_name,pracsimilarity,response_time,mouse_10.x,mouse_10.y,mouse_10.leftButton,mouse_10.midButton,mouse_10.rightButton,mouse_10.clicked_name,mouse_7.x,mouse_7.y,mouse_7.leftButton,mouse_7.midButton,mouse_7.rightButton,mouse_6.x,mouse_6.y,mouse_6.leftButton,mouse_6.midButton,mouse_6.rightButton,duringprac.thisRepN,duringprac.thisTrialN,duringprac.thisN,duringprac.thisIndex,duringprac.ran,participant,session,date,expName,psychopyVersion,OS,frameRate,study_id,mouse_7.clicked_name,catchpracsimilarity,catch_response_time,catchnumberprac,catchtrialorderprac,mouse_6.clicked_name,key_resp_22.keys,key_resp_22.rt,realcomparison,mouse.x,mouse.y,mouse.leftButton,mouse.midButton,mouse.rightButton,mouse.clicked_name,Colour2,similarity,mouse_2.x,mouse_2.y,mouse_2.leftButton,mouse_2.midButton,mouse_2.rightButton,mouse_2.clicked_name,mouse_3.x,mouse_3.y,mouse_3.leftButton,mouse_3.midButton,mouse_3.rightButton,mouse_11.x,mouse_11.y,mouse_11.leftButton,mouse_11.midButton,mouse_11.rightButton,trials_2.thisRepN,trials_2.thisTrialN,trials_2.thisN,trials_2.thisIndex,trials_2.ran,Colour1,mouse_3.clicked_name,catchornah,catchsimilarity,catchnumber,catchtrialorder,catchRT,mouse_11.clicked_name
space,1.263,space,6.276,space,64.301,space,11.813,space,2.02,space,3.669,67,PF,39,69,1,0,0,response1disk_5,7,21.785,-3,-10,1,0,0,rectangle_8,-3,-10,1,0,0,-3,-10,1,0,0,0,0,0,6,1,60fd90dcfe0ff975d27c61c1,61036c7107acff5c33023766,2021-07-29_23h05.58.287,Simcolourproject_2stim_asymm_v5,2020.2.10,MacIntel,60,61025ae37ef11b136ea224fe,,,,,,,,,,,,,,,,,,,,,,,,,,,,,,,,,,,,,,,,,,,,,,
,,,,,,,,,,,,151,PF,-30,-94,1,0,0,response5disk_5,3,5.017,-8,-8,1,0,0,rectangle_8,-93,-38,1,0,0,-6,-10,1,0,0,0,1,1,1,1,60fd90dcfe0ff975d27c61c1,61036c7107acff5c33023766,2021-07-29_23h05.58.287,Simcolourproject_2stim_asymm_v5,2020.2.10,MacIntel,60,61025ae37ef11b136ea224fe,response5disk_7,2,5.05,2,"[2,5]",rectangle_4,,,,,,,,,,,,,,,,,,,,,,,,,,,,,,,,,,,,,,,,
,,,,,,,,,,,,11,PF,77,36,1,0,0,response1disk_5,6,3.466,14,2,1,0,0,rectangle_8,14,2,1,0,0,14,2,1,0,0,0,2,2,4,1,60fd90dcfe0ff975d27c61c1,61036c7107acff5c33023766,2021-07-29_23h05.58.287,Simcolourproject_2stim_asymm_v5,2020.2.10,MacIntel,60,61025ae37ef11b136ea224fe,,,,,,,,,,,,,,,,,,,,,,,,,,,,,,,,,,,,,,,,,,,,,,
,,,,,,,,,,,,93,FF,-87,15,1,0,0,response7disk_5,1,9.001,-30,-13,1,0,0,rectangle_8,-30,-13,1,0,0,-30,-13,1,0,0,0,3,3,5,1,60fd90dcfe0ff975d27c61c1,61036c7107acff5c33023766,2021-07-29_23h05.58.287,Simcolourproject_2stim_asymm_v5,2020.2.10,MacIntel,60,61025ae37ef11b136ea224fe,,,,,,,,,,,,,,,,,,,,,,,,,,,,,,,,,,,,,,,,,,,,,,
,,,,,,,,,,,,46,FF,-61,-34,1,0,0,response5disk_5,2,1.4,-13,-3,1,0,0,rectangle_8,-84,-44,1,0,0,-27,-7,1,0,0,0,4,4,3,1,60fd90dcfe0ff975d27c61c1,61036c7107acff5c33023766,2021-07-29_23h05.58.287,Simcolourproject_2stim_asymm_v5,2020.2.10,MacIntel,60,61025ae37ef11b136ea224fe,response5disk_7,2,2,2,"[2,5]",rectangle_4,,,,,,,,,,,,,,,,,,,,,,,,,,,,,,,,,,,,,,,,
,,,,,,,,,,,,99,PF,80,-42,1,0,0,response3disk_5,5,2.266,14,-16,1,0,0,rectangle_8,14,-16,1,0,0,14,-16,1,0,0,0,5,5,2,1,60fd90dcfe0ff975d27c61c1,61036c7107acff5c33023766,2021-07-29_23h05.58.287,Simcolourproject_2stim_asymm_v5,2020.2.10,MacIntel,60,61025ae37ef11b136ea224fe,,,,,,,,,,,,,,,,,,,,,,,,,,,,,,,,,,,,,,,,,,,,,,
,,,,,,,,,,,,132,FF,77,31,1,0,0,response1disk_5,6,2.183,17,14,1,0,0,rectangle_8,17,14,1,0,0,17,14,1,0,0,0,6,6,0,1,60fd90dcfe0ff975d27c61c1,61036c7107acff5c33023766,2021-07-29_23h05.58.287,Simcolourproject_2stim_asymm_v5,2020.2.10,MacIntel,60,61025ae37ef11b136ea224fe,,,,,,,,,,,,,,,,,,,,,,,,,,,,,,,,,,,,,,,,,,,,,,
,,,,,,,,,,,,,FF,,,,,,,,1.95,,,,,,,,,,,,,,,,,,,,,,60fd90dcfe0ff975d27c61c1,61036c7107acff5c33023766,2021-07-29_23h05.58.287,Simcolourproject_2stim_asymm_v5,2020.2.10,MacIntel,60,61025ae37ef11b136ea224fe,,,,,,,space,2.923,1219,-86,-48,1,0,0,response5disk,,2,-7,2,1,0,0,rectangle,-7,2,1,0,0,-7,2,1,0,0,0,0,0,28,1,,,,,,,,
,,,,,,,,,,,,,FF,,,,,,,,2.134,,,,,,,,,,,,,,,,,,,,,,60fd90dcfe0ff975d27c61c1,61036c7107acff5c33023766,2021-07-29_23h05.58.287,Simcolourproject_2stim_asymm_v5,2020.2.10,MacIntel,60,61025ae37ef11b136ea224fe,,,,,,,,,1010,68,-25,1,0,0,response3disk,,5,19,1,1,0,0,rectangle,19,1,1,0,0,19,1,1,0,0,0,1,1,32,1,,,,,,,,
,,,,,,,,,,,,,FF,,,,,,,,2,,,,,,,,,,,,,,,,,,,,,,60fd90dcfe0ff975d27c61c1,61036c7107acff5c33023766,2021-07-29_23h05.58.287,Simcolourproject_2stim_asymm_v5,2020.2.10,MacIntel,60,61025ae37ef11b136ea224fe,,,,,,,,,684,84,64,1,0,0,response1disk,,6,0,-6,1,0,0,rectangle,0,-6,1,0,0,0,-6,1,0,0,0,2,2,93,1,,,,,,,,
,,,,,,,,,,,,,FF,,,,,,,,2.834,,,,,,,,,,,,,,,,,,,,,,60fd90dcfe0ff975d27c61c1,61036c7107acff5c33023766,2021-07-29_23h05.58.287,Simcolourproject_2stim_asymm_v5,2020.2.10,MacIntel,60,61025ae37ef11b136ea224fe,,,,,,,,,1654,44,-61,1,0,0,response3disk,,4,-12,-12,1,0,0,rectangle,-12,-12,1,0,0,-12,-12,1,0,0,0,3,3,4,1,,,,,,,,
,,,,,,,,,,,,,FF,,,,,,,,2.766,,,,,,,,,,,,,,,,,,,,,,60fd90dcfe0ff975d27c61c1,61036c7107acff5c33023766,2021-07-29_23h05.58.287,Simcolourproject_2stim_asymm_v5,2020.2.10,MacIntel,60,61025ae37ef11b136ea224fe,,,,,,,,,3736,47,51,1,0,0,response1disk,,7,6,9,1,0,0,rectangle,28,-83,1,0,0,3,-11,1,0,0,0,4,4,89,1,,response3disk_3,TRUE,4,4,"[48,23,136,104,244,71,187,221,5,197,153,205,25,201,223,179,261,225,110,157]",2.434,rectangle
,,,,,,,,,,,,,FF,,,,,,,,3.75,,,,,,,,,,,,,,,,,,,,,,60fd90dcfe0ff975d27c61c1,61036c7107acff5c33023766,2021-07-29_23h05.58.287,Simcolourproject_2stim_asymm_v5,2020.2.10,MacIntel,60,61025ae37ef11b136ea224fe,,,,,,,,,2257,75,24,1,0,0,response1disk,,6,18,-3,1,0,0,rectangle,18,-3,1,0,0,18,-3,1,0,0,0,5,5,117,1,,,,,,,,
,,,,,,,,,,,,,FF,,,,,,,,7.6,,,,,,,,,,,,,,,,,,,,,,60fd90dcfe0ff975d27c61c1,61036c7107acff5c33023766,2021-07-29_23h05.58.287,Simcolourproject_2stim_asymm_v5,2020.2.10,MacIntel,60,61025ae37ef11b136ea224fe,,,,,,,,,1052,-76,51,1,0,0,response7disk,,1,-15,-2,1,0,0,rectangle,-15,-2,1,0,0,-15,-2,1,0,0,0,6,6,18,1,,,,,,,,
,,,,,,,,,,,,,FF,,,,,,,,1.017,,,,,,,,,,,,,,,,,,,,,,60fd90dcfe0ff975d27c61c1,61036c7107acff5c33023766,2021-07-29_23h05.58.287,Simcolourproject_2stim_asymm_v5,2020.2.10,MacIntel,60,61025ae37ef11b136ea224fe,,,,,,,,,967,54,65,1,0,0,response1disk,,7,10,8,1,0,0,rectangle,10,8,1,0,0,10,8,1,0,0,0,7,7,12,1,,,,,,,,
,,,,,,,,,,,,,FF,,,,,,,,2.734,,,,,,,,,,,,,,,,,,,,,,60fd90dcfe0ff975d27c61c1,61036c7107acff5c33023766,2021-07-29_23h05.58.287,Simcolourproject_2stim_asymm_v5,2020.2.10,MacIntel,60,61025ae37ef11b136ea224fe,,,,,,,,,1163,-56,-70,1,0,0,response5disk,,3,-6,-4,1,0,0,rectangle,-6,-4,1,0,0,-6,-4,1,0,0,0,8,8,90,1,,,,,,,,
,,,,,,,,,,,,,FF,,,,,,,,2,,,,,,,,,,,,,,,,,,,,,,60fd90dcfe0ff975d27c61c1,61036c7107acff5c33023766,2021-07-29_23h05.58.287,Simcolourproject_2stim_asymm_v5,2020.2.10,MacIntel,60,61025ae37ef11b136ea224fe,,,,,,,,,4095,-30,75,1,0,0,response7disk,,0,2,-8,1,0,0,rectangle,2,-8,1,0,0,2,-8,1,0,0,0,9,9,87,1,,,,,,,,
,,,,,,,,,,,,,FF,,,,,,,,2.6,,,,,,,,,,,,,,,,,,,,,,60fd90dcfe0ff975d27c61c1,61036c7107acff5c33023766,2021-07-29_23h05.58.287,Simcolourproject_2stim_asymm_v5,2020.2.10,MacIntel,60,61025ae37ef11b136ea224fe,,,,,,,,,3372,76,31,1,0,0,response1disk,,6,13,5,1,0,0,rectangle,13,5,1,0,0,13,5,1,0,0,0,10,10,124,1,,,,,,,,
,,,,,,,,,,,,,FF,,,,,,,,2.034,,,,,,,,,,,,,,,,,,,,,,60fd90dcfe0ff975d27c61c1,61036c7107acff5c33023766,2021-07-29_23h05.58.287,Simcolourproject_2stim_asymm_v5,2020.2.10,MacIntel,60,61025ae37ef11b136ea224fe,,,,,,,,,1884,75,25,1,0,0,response1disk,,6,21,2,1,0,0,rectangle,21,2,1,0,0,21,2,1,0,0,0,11,11,24,1,,,,,,,,
,,,,,,,,,,,,,FF,,,,,,,,2,,,,,,,,,,,,,,,,,,,,,,60fd90dcfe0ff975d27c61c1,61036c7107acff5c33023766,2021-07-29_23h05.58.287,Simcolourproject_2stim_asymm_v5,2020.2.10,MacIntel,60,61025ae37ef11b136ea224fe,,,,,,,,,1351,85,-42,1,0,0,response3disk,,5,28,-4,1,0,0,rectangle,28,-4,1,0,0,28,-4,1,0,0,0,12,12,122,1,,,,,,,,
,,,,,,,,,,,,,FF,,,,,,,,2.235,,,,,,,,,,,,,,,,,,,,,,60fd90dcfe0ff975d27c61c1,61036c7107acff5c33023766,2021-07-29_23h05.58.287,Simcolourproject_2stim_asymm_v5,2020.2.10,MacIntel,60,61025ae37ef11b136ea224fe,,,,,,,,,1340,68,-48,1,0,0,response3disk,,5,18,-2,1,0,0,rectangle,18,-2,1,0,0,18,-2,1,0,0,0,13,13,2,1,,,,,,,,
,,,,,,,,,,,,,FF,,,,,,,,1.15,,,,,,,,,,,,,,,,,,,,,,60fd90dcfe0ff975d27c61c1,61036c7107acff5c33023766,2021-07-29_23h05.58.287,Simcolourproject_2stim_asymm_v5,2020.2.10,MacIntel,60,61025ae37ef11b136ea224fe,,,,,,,,,2078,70,-41,1,0,0,response3disk,,5,24,-3,1,0,0,rectangle,24,-3,1,0,0,24,-3,1,0,0,0,14,14,157,1,,,,,,,,
,,,,,,,,,,,,,FF,,,,,,,,2.082,,,,,,,,,,,,,,,,,,,,,,60fd90dcfe0ff975d27c61c1,61036c7107acff5c33023766,2021-07-29_23h05.58.287,Simcolourproject_2stim_asymm_v5,2020.2.10,MacIntel,60,61025ae37ef11b136ea224fe,,,,,,,,,2371,49,-95,1,0,0,response3disk,,4,7,-4,1,0,0,rectangle,7,-4,1,0,0,7,-4,1,0,0,0,15,15,149,1,,,,,,,,
,,,,,,,,,,,,,FF,,,,,,,,1.699,,,,,,,,,,,,,,,,,,,,,,60fd90dcfe0ff975d27c61c1,61036c7107acff5c33023766,2021-07-29_23h05.58.287,Simcolourproject_2stim_asymm_v5,2020.2.10,MacIntel,60,61025ae37ef11b136ea224fe,,,,,,,,,2001,87,-43,1,0,0,response3disk,,5,16,-2,1,0,0,rectangle,16,-2,1,0,0,16,-2,1,0,0,0,16,16,25,1,,,,,,,,
,,,,,,,,,,,,,FF,,,,,,,,3.084,,,,,,,,,,,,,,,,,,,,,,60fd90dcfe0ff975d27c61c1,61036c7107acff5c33023766,2021-07-29_23h05.58.287,Simcolourproject_2stim_asymm_v5,2020.2.10,MacIntel,60,61025ae37ef11b136ea224fe,,,,,,,,,1077,26,-48,1,0,0,response3disk,,4,21,-5,1,0,0,rectangle,21,-5,1,0,0,21,-5,1,0,0,0,17,17,56,1,,,,,,,,
,,,,,,,,,,,,,FF,,,,,,,,1.817,,,,,,,,,,,,,,,,,,,,,,60fd90dcfe0ff975d27c61c1,61036c7107acff5c33023766,2021-07-29_23h05.58.287,Simcolourproject_2stim_asymm_v5,2020.2.10,MacIntel,60,61025ae37ef11b136ea224fe,,,,,,,,,4114,74,43,1,0,0,response1disk,,6,21,9,1,0,0,rectangle,21,9,1,0,0,21,9,1,0,0,0,18,18,14,1,,,,,,,,
,,,,,,,,,,,,,FF,,,,,,,,1.984,,,,,,,,,,,,,,,,,,,,,,60fd90dcfe0ff975d27c61c1,61036c7107acff5c33023766,2021-07-29_23h05.58.287,Simcolourproject_2stim_asymm_v5,2020.2.10,MacIntel,60,61025ae37ef11b136ea224fe,,,,,,,,,1464,-44,-63,1,0,0,response5disk,,3,-5,-2,1,0,0,rectangle,-5,-2,1,0,0,-5,-2,1,0,0,0,19,19,130,1,,,,,,,,
,,,,,,,,,,,,,FF,,,,,,,,1.551,,,,,,,,,,,,,,,,,,,,,,60fd90dcfe0ff975d27c61c1,61036c7107acff5c33023766,2021-07-29_23h05.58.287,Simcolourproject_2stim_asymm_v5,2020.2.10,MacIntel,60,61025ae37ef11b136ea224fe,,,,,,,,,2429,-56,-57,1,0,0,response5disk,,3,-13,3,1,0,0,rectangle,-13,3,1,0,0,-13,3,1,0,0,0,20,20,17,1,,,,,,,,
,,,,,,,,,,,,,FF,,,,,,,,2.118,,,,,,,,,,,,,,,,,,,,,,60fd90dcfe0ff975d27c61c1,61036c7107acff5c33023766,2021-07-29_23h05.58.287,Simcolourproject_2stim_asymm_v5,2020.2.10,MacIntel,60,61025ae37ef11b136ea224fe,,,,,,,,,1235,33,-69,1,0,0,response3disk,,4,17,-8,1,0,0,rectangle,17,-8,1,0,0,17,-8,1,0,0,0,21,21,55,1,,,,,,,,
,,,,,,,,,,,,,FF,,,,,,,,0.967,,,,,,,,,,,,,,,,,,,,,,60fd90dcfe0ff975d27c61c1,61036c7107acff5c33023766,2021-07-29_23h05.58.287,Simcolourproject_2stim_asymm_v5,2020.2.10,MacIntel,60,61025ae37ef11b136ea224fe,,,,,,,,,2871,79,30,1,0,0,response1disk,,6,13,13,1,0,0,rectangle,-33,-73,1,0,0,-15,-4,1,0,0,0,22,22,79,1,,response5disk_3,TRUE,3,3,"[48,23,136,104,244,71,187,221,5,197,153,205,25,201,223,179,261,225,110,157]",1.969,rectangle
,,,,,,,,,,,,,FF,,,,,,,,1.783,,,,,,,,,,,,,,,,,,,,,,60fd90dcfe0ff975d27c61c1,61036c7107acff5c33023766,2021-07-29_23h05.58.287,Simcolourproject_2stim_asymm_v5,2020.2.10,MacIntel,60,61025ae37ef11b136ea224fe,,,,,,,,,288,-42,-61,1,0,0,response5disk,,3,-6,12,1,0,0,rectangle,-6,12,1,0,0,-6,12,1,0,0,0,23,23,45,1,,,,,,,,
,,,,,,,,,,,,,FF,,,,,,,,1.25,,,,,,,,,,,,,,,,,,,,,,60fd90dcfe0ff975d27c61c1,61036c7107acff5c33023766,2021-07-29_23h05.58.287,Simcolourproject_2stim_asymm_v5,2020.2.10,MacIntel,60,61025ae37ef11b136ea224fe,,,,,,,,,2180,26,-58,1,0,0,response3disk,,4,21,-9,1,0,0,rectangle,54,16,1,0,0,28,6,1,0,0,0,24,24,72,1,,response1disk_3,TRUE,6,6,"[48,23,136,104,244,71,187,221,5,197,153,205,25,201,223,179,261,225,110,157]",1.685,rectangle
,,,,,,,,,,,,,FF,,,,,,,,2.216,,,,,,,,,,,,,,,,,,,,,,60fd90dcfe0ff975d27c61c1,61036c7107acff5c33023766,2021-07-29_23h05.58.287,Simcolourproject_2stim_asymm_v5,2020.2.10,MacIntel,60,61025ae37ef11b136ea224fe,,,,,,,,,3205,-69,20,1,0,0,response7disk,,1,-5,0,1,0,0,rectangle,-5,0,1,0,0,-5,0,1,0,0,0,25,25,33,1,,,,,,,,
,,,,,,,,,,,,,FF,,,,,,,,1.567,,,,,,,,,,,,,,,,,,,,,,60fd90dcfe0ff975d27c61c1,61036c7107acff5c33023766,2021-07-29_23h05.58.287,Simcolourproject_2stim_asymm_v5,2020.2.10,MacIntel,60,61025ae37ef11b136ea224fe,,,,,,,,,292,75,-43,1,0,0,response3disk,,5,32,-8,1,0,0,rectangle,32,-8,1,0,0,32,-8,1,0,0,0,26,26,84,1,,,,,,,,
,,,,,,,,,,,,,FF,,,,,,,,1.967,,,,,,,,,,,,,,,,,,,,,,60fd90dcfe0ff975d27c61c1,61036c7107acff5c33023766,2021-07-29_23h05.58.287,Simcolourproject_2stim_asymm_v5,2020.2.10,MacIntel,60,61025ae37ef11b136ea224fe,,,,,,,,,494,-42,-54,1,0,0,response5disk,,3,-9,-4,1,0,0,rectangle,-9,-4,1,0,0,-9,-4,1,0,0,0,27,27,127,1,,,,,,,,
,,,,,,,,,,,,,FF,,,,,,,,2.067,,,,,,,,,,,,,,,,,,,,,,60fd90dcfe0ff975d27c61c1,61036c7107acff5c33023766,2021-07-29_23h05.58.287,Simcolourproject_2stim_asymm_v5,2020.2.10,MacIntel,60,61025ae37ef11b136ea224fe,,,,,,,,,2026,-35,-72,1,0,0,response5disk,,3,-11,-4,1,0,0,rectangle,-11,-4,1,0,0,-11,-4,1,0,0,0,28,28,19,1,,,,,,,,
,,,,,,,,,,,,,FF,,,,,,,,0.966,,,,,,,,,,,,,,,,,,,,,,60fd90dcfe0ff975d27c61c1,61036c7107acff5c33023766,2021-07-29_23h05.58.287,Simcolourproject_2stim_asymm_v5,2020.2.10,MacIntel,60,61025ae37ef11b136ea224fe,,,,,,,,,3155,-90,-46,1,0,0,response5disk,,2,-4,-2,1,0,0,rectangle,-4,-2,1,0,0,-4,-2,1,0,0,0,29,29,126,1,,,,,,,,
,,,,,,,,,,,,,FF,,,,,,,,1.317,,,,,,,,,,,,,,,,,,,,,,60fd90dcfe0ff975d27c61c1,61036c7107acff5c33023766,2021-07-29_23h05.58.287,Simcolourproject_2stim_asymm_v5,2020.2.10,MacIntel,60,61025ae37ef11b136ea224fe,,,,,,,,,3926,76,31,1,0,0,response1disk,,6,17,5,1,0,0,rectangle,17,5,1,0,0,17,5,1,0,0,0,30,30,141,1,,,,,,,,
,,,,,,,,,,,,,FF,,,,,,,,1.966,,,,,,,,,,,,,,,,,,,,,,60fd90dcfe0ff975d27c61c1,61036c7107acff5c33023766,2021-07-29_23h05.58.287,Simcolourproject_2stim_asymm_v5,2020.2.10,MacIntel,60,61025ae37ef11b136ea224fe,,,,,,,,,3471,40,-71,1,0,0,response3disk,,4,10,-4,1,0,0,rectangle,10,-4,1,0,0,10,-4,1,0,0,0,31,31,99,1,,,,,,,,
,,,,,,,,,,,,,FF,,,,,,,,1.965,,,,,,,,,,,,,,,,,,,,,,60fd90dcfe0ff975d27c61c1,61036c7107acff5c33023766,2021-07-29_23h05.58.287,Simcolourproject_2stim_asymm_v5,2020.2.10,MacIntel,60,61025ae37ef11b136ea224fe,,,,,,,,,2148,87,50,1,0,0,response1disk,,6,33,3,1,0,0,rectangle,33,3,1,0,0,33,3,1,0,0,0,32,32,3,1,,,,,,,,
,,,,,,,,,,,,,FF,,,,,,,,2.183,,,,,,,,,,,,,,,,,,,,,,60fd90dcfe0ff975d27c61c1,61036c7107acff5c33023766,2021-07-29_23h05.58.287,Simcolourproject_2stim_asymm_v5,2020.2.10,MacIntel,60,61025ae37ef11b136ea224fe,,,,,,,,,3990,73,36,1,0,0,response1disk,,6,10,16,1,0,0,rectangle,10,16,1,0,0,10,16,1,0,0,0,33,33,103,1,,,,,,,,
,,,,,,,,,,,,,FF,,,,,,,,5.117,,,,,,,,,,,,,,,,,,,,,,60fd90dcfe0ff975d27c61c1,61036c7107acff5c33023766,2021-07-29_23h05.58.287,Simcolourproject_2stim_asymm_v5,2020.2.10,MacIntel,60,61025ae37ef11b136ea224fe,,,,,,,,,4098,34,-45,1,0,0,response3disk,,4,22,-2,1,0,0,rectangle,22,-2,1,0,0,22,-2,1,0,0,0,34,34,42,1,,,,,,,,
,,,,,,,,,,,,,FF,,,,,,,,1.367,,,,,,,,,,,,,,,,,,,,,,60fd90dcfe0ff975d27c61c1,61036c7107acff5c33023766,2021-07-29_23h05.58.287,Simcolourproject_2stim_asymm_v5,2020.2.10,MacIntel,60,61025ae37ef11b136ea224fe,,,,,,,,,1826,-32,-45,1,0,0,response5disk,,3,-24,-9,1,0,0,rectangle,-24,-9,1,0,0,-24,-9,1,0,0,0,35,35,102,1,,,,,,,,
,,,,,,,,,,,,,FF,,,,,,,,1.249,,,,,,,,,,,,,,,,,,,,,,60fd90dcfe0ff975d27c61c1,61036c7107acff5c33023766,2021-07-29_23h05.58.287,Simcolourproject_2stim_asymm_v5,2020.2.10,MacIntel,60,61025ae37ef11b136ea224fe,,,,,,,,,3157,-29,-40,1,0,0,response5disk,,3,-10,-1,1,0,0,rectangle,-10,-1,1,0,0,-10,-1,1,0,0,0,36,36,53,1,,,,,,,,
,,,,,,,,,,,,,FF,,,,,,,,1.983,,,,,,,,,,,,,,,,,,,,,,60fd90dcfe0ff975d27c61c1,61036c7107acff5c33023766,2021-07-29_23h05.58.287,Simcolourproject_2stim_asymm_v5,2020.2.10,MacIntel,60,61025ae37ef11b136ea224fe,,,,,,,,,2567,58,-28,1,0,0,response3disk,,5,25,1,1,0,0,rectangle,25,1,1,0,0,25,1,1,0,0,0,37,37,133,1,,,,,,,,
,,,,,,,,,,,,,FF,,,,,,,,2.266,,,,,,,,,,,,,,,,,,,,,,60fd90dcfe0ff975d27c61c1,61036c7107acff5c33023766,2021-07-29_23h05.58.287,Simcolourproject_2stim_asymm_v5,2020.2.10,MacIntel,60,61025ae37ef11b136ea224fe,,,,,,,,,868,77,-25,1,0,0,response3disk,,5,35,-9,1,0,0,rectangle,35,-9,1,0,0,35,-9,1,0,0,0,38,38,64,1,,,,,,,,
,,,,,,,,,,,,,FF,,,,,,,,1.618,,,,,,,,,,,,,,,,,,,,,,60fd90dcfe0ff975d27c61c1,61036c7107acff5c33023766,2021-07-29_23h05.58.287,Simcolourproject_2stim_asymm_v5,2020.2.10,MacIntel,60,61025ae37ef11b136ea224fe,,,,,,,,,3917,-60,-24,1,0,0,response5disk,,2,-18,-3,1,0,0,rectangle,-18,-3,1,0,0,-18,-3,1,0,0,0,39,39,77,1,,,,,,,,
,,,,,,,,,,,,,FF,,,,,,,,1.633,,,,,,,,,,,,,,,,,,,,,,60fd90dcfe0ff975d27c61c1,61036c7107acff5c33023766,2021-07-29_23h05.58.287,Simcolourproject_2stim_asymm_v5,2020.2.10,MacIntel,60,61025ae37ef11b136ea224fe,,,,,,,,,1751,-39,-28,1,0,0,response5disk,,2,-10,-2,1,0,0,rectangle,-10,-2,1,0,0,-10,-2,1,0,0,0,40,40,29,1,,,,,,,,
,,,,,,,,,,,,,FF,,,,,,,,0.833,,,,,,,,,,,,,,,,,,,,,,60fd90dcfe0ff975d27c61c1,61036c7107acff5c33023766,2021-07-29_23h05.58.287,Simcolourproject_2stim_asymm_v5,2020.2.10,MacIntel,60,61025ae37ef11b136ea224fe,,,,,,,,,3391,-42,-26,1,0,0,response5disk,,2,-4,7,1,0,0,rectangle,-4,7,1,0,0,-4,7,1,0,0,0,41,41,104,1,,,,,,,,
,,,,,,,,,,,,,FF,,,,,,,,16.884,,,,,,,,,,,,,,,,,,,,,,60fd90dcfe0ff975d27c61c1,61036c7107acff5c33023766,2021-07-29_23h05.58.287,Simcolourproject_2stim_asymm_v5,2020.2.10,MacIntel,60,61025ae37ef11b136ea224fe,,,,,,,,,780,23,-74,1,0,0,response3disk,,4,-12,-12,1,0,0,rectangle,-12,-12,1,0,0,-12,-12,1,0,0,0,42,42,20,1,,,,,,,,
,,,,,,,,,,,,,FF,,,,,,,,1.167,,,,,,,,,,,,,,,,,,,,,,60fd90dcfe0ff975d27c61c1,61036c7107acff5c33023766,2021-07-29_23h05.58.287,Simcolourproject_2stim_asymm_v5,2020.2.10,MacIntel,60,61025ae37ef11b136ea224fe,,,,,,,,,798,68,-29,1,0,0,response3disk,,5,21,-10,1,0,0,rectangle,21,-10,1,0,0,21,-10,1,0,0,0,43,43,21,1,,,,,,,,
,,,,,,,,,,,,,FF,,,,,,,,1.718,,,,,,,,,,,,,,,,,,,,,,60fd90dcfe0ff975d27c61c1,61036c7107acff5c33023766,2021-07-29_23h05.58.287,Simcolourproject_2stim_asymm_v5,2020.2.10,MacIntel,60,61025ae37ef11b136ea224fe,,,,,,,,,2596,-27,-50,1,0,0,response5disk,,3,2,-10,1,0,0,rectangle,2,-10,1,0,0,2,-10,1,0,0,0,44,44,78,1,,,,,,,,
,,,,,,,,,,,,,FF,,,,,,,,1.182,,,,,,,,,,,,,,,,,,,,,,60fd90dcfe0ff975d27c61c1,61036c7107acff5c33023766,2021-07-29_23h05.58.287,Simcolourproject_2stim_asymm_v5,2020.2.10,MacIntel,60,61025ae37ef11b136ea224fe,,,,,,,,,140,76,-32,1,0,0,response3disk,,5,12,-13,1,0,0,rectangle,12,-13,1,0,0,12,-13,1,0,0,0,45,45,137,1,,,,,,,,
,,,,,,,,,,,,,FF,,,,,,,,1.851,,,,,,,,,,,,,,,,,,,,,,60fd90dcfe0ff975d27c61c1,61036c7107acff5c33023766,2021-07-29_23h05.58.287,Simcolourproject_2stim_asymm_v5,2020.2.10,MacIntel,60,61025ae37ef11b136ea224fe,,,,,,,,,1690,-32,-42,1,0,0,response5disk,,3,-24,-14,1,0,0,rectangle,-24,-14,1,0,0,-24,-14,1,0,0,0,46,46,92,1,,,,,,,,
,,,,,,,,,,,,,FF,,,,,,,,1.068,,,,,,,,,,,,,,,,,,,,,,60fd90dcfe0ff975d27c61c1,61036c7107acff5c33023766,2021-07-29_23h05.58.287,Simcolourproject_2stim_asymm_v5,2020.2.10,MacIntel,60,61025ae37ef11b136ea224fe,,,,,,,,,3809,55,42,1,0,0,response1disk,,6,16,10,1,0,0,rectangle,84,51,1,0,0,21,0,1,0,0,0,47,47,131,1,,response1disk_3,TRUE,6,6,"[48,23,136,104,244,71,187,221,5,197,153,205,25,201,223,179,261,225,110,157]",1.501,rectangle
,,,,,,,,,,,,,FF,,,,,,,,2.835,,,,,,,,,,,,,,,,,,,,,,60fd90dcfe0ff975d27c61c1,61036c7107acff5c33023766,2021-07-29_23h05.58.287,Simcolourproject_2stim_asymm_v5,2020.2.10,MacIntel,60,61025ae37ef11b136ea224fe,,,,,,,,,3273,29,-55,1,0,0,response3disk,,4,23,-7,1,0,0,rectangle,23,-7,1,0,0,23,-7,1,0,0,0,48,48,112,1,,,,,,,,
,,,,,,,,,,,,,FF,,,,,,,,1.216,,,,,,,,,,,,,,,,,,,,,,60fd90dcfe0ff975d27c61c1,61036c7107acff5c33023766,2021-07-29_23h05.58.287,Simcolourproject_2stim_asymm_v5,2020.2.10,MacIntel,60,61025ae37ef11b136ea224fe,,,,,,,,,1435,54,-23,1,0,0,response3disk,,5,17,0,1,0,0,rectangle,17,0,1,0,0,17,0,1,0,0,0,49,49,74,1,,,,,,,,
,,,,,,,,,,,,,FF,,,,,,,,2.366,,,,,,,,,,,,,,,,,,,,,,60fd90dcfe0ff975d27c61c1,61036c7107acff5c33023766,2021-07-29_23h05.58.287,Simcolourproject_2stim_asymm_v5,2020.2.10,MacIntel,60,61025ae37ef11b136ea224fe,,,,,,,,,2909,30,-54,1,0,0,response3disk,,4,4,-11,1,0,0,rectangle,4,-11,1,0,0,4,-11,1,0,0,0,50,50,135,1,,,,,,,,
,,,,,,,,,,,,,FF,,,,,,,,1.084,,,,,,,,,,,,,,,,,,,,,,60fd90dcfe0ff975d27c61c1,61036c7107acff5c33023766,2021-07-29_23h05.58.287,Simcolourproject_2stim_asymm_v5,2020.2.10,MacIntel,60,61025ae37ef11b136ea224fe,,,,,,,,,1989,67,-24,1,0,0,response3disk,,5,20,3,1,0,0,rectangle,20,3,1,0,0,20,3,1,0,0,0,51,51,146,1,,,,,,,,
,,,,,,,,,,,,,FF,,,,,,,,2.167,,,,,,,,,,,,,,,,,,,,,,60fd90dcfe0ff975d27c61c1,61036c7107acff5c33023766,2021-07-29_23h05.58.287,Simcolourproject_2stim_asymm_v5,2020.2.10,MacIntel,60,61025ae37ef11b136ea224fe,,,,,,,,,907,33,-61,1,0,0,response3disk,,4,-5,-5,1,0,0,rectangle,-5,-5,1,0,0,-5,-5,1,0,0,0,52,52,108,1,,,,,,,,
,,,,,,,,,,,,,FF,,,,,,,,2.049,,,,,,,,,,,,,,,,,,,,,,60fd90dcfe0ff975d27c61c1,61036c7107acff5c33023766,2021-07-29_23h05.58.287,Simcolourproject_2stim_asymm_v5,2020.2.10,MacIntel,60,61025ae37ef11b136ea224fe,,,,,,,,,2574,47,29,1,0,0,response1disk,,6,15,13,1,0,0,rectangle,15,13,1,0,0,15,13,1,0,0,0,53,53,138,1,,,,,,,,
,,,,,,,,,,,,,FF,,,,,,,,2.099,,,,,,,,,,,,,,,,,,,,,,60fd90dcfe0ff975d27c61c1,61036c7107acff5c33023766,2021-07-29_23h05.58.287,Simcolourproject_2stim_asymm_v5,2020.2.10,MacIntel,60,61025ae37ef11b136ea224fe,,,,,,,,,991,50,-25,1,0,0,response3disk,,5,25,1,1,0,0,rectangle,25,1,1,0,0,25,1,1,0,0,0,54,54,88,1,,,,,,,,
,,,,,,,,,,,,,FF,,,,,,,,1.218,,,,,,,,,,,,,,,,,,,,,,60fd90dcfe0ff975d27c61c1,61036c7107acff5c33023766,2021-07-29_23h05.58.287,Simcolourproject_2stim_asymm_v5,2020.2.10,MacIntel,60,61025ae37ef11b136ea224fe,,,,,,,,,192,-31,-54,1,0,0,response5disk,,3,-9,-3,1,0,0,rectangle,-9,-3,1,0,0,-9,-3,1,0,0,0,55,55,115,1,,,,,,,,
,,,,,,,,,,,,,FF,,,,,,,,1.633,,,,,,,,,,,,,,,,,,,,,,60fd90dcfe0ff975d27c61c1,61036c7107acff5c33023766,2021-07-29_23h05.58.287,Simcolourproject_2stim_asymm_v5,2020.2.10,MacIntel,60,61025ae37ef11b136ea224fe,,,,,,,,,1586,63,-27,1,0,0,response3disk,,5,29,-7,1,0,0,rectangle,29,-7,1,0,0,29,-7,1,0,0,0,56,56,6,1,,,,,,,,
,,,,,,,,,,,,,FF,,,,,,,,2.899,,,,,,,,,,,,,,,,,,,,,,60fd90dcfe0ff975d27c61c1,61036c7107acff5c33023766,2021-07-29_23h05.58.287,Simcolourproject_2stim_asymm_v5,2020.2.10,MacIntel,60,61025ae37ef11b136ea224fe,,,,,,,,,2590,62,28,1,0,0,response1disk,,6,21,0,1,0,0,rectangle,21,0,1,0,0,21,0,1,0,0,0,57,57,106,1,,,,,,,,
,,,,,,,,,,,,,FF,,,,,,,,2.984,,,,,,,,,,,,,,,,,,,,,,60fd90dcfe0ff975d27c61c1,61036c7107acff5c33023766,2021-07-29_23h05.58.287,Simcolourproject_2stim_asymm_v5,2020.2.10,MacIntel,60,61025ae37ef11b136ea224fe,,,,,,,,,425,-40,-77,1,0,0,response5disk,,3,0,4,1,0,0,rectangle,0,4,1,0,0,0,4,1,0,0,0,58,58,118,1,,,,,,,,
,,,,,,,,,,,,,FF,,,,,,,,1.183,,,,,,,,,,,,,,,,,,,,,,60fd90dcfe0ff975d27c61c1,61036c7107acff5c33023766,2021-07-29_23h05.58.287,Simcolourproject_2stim_asymm_v5,2020.2.10,MacIntel,60,61025ae37ef11b136ea224fe,,,,,,,,,1327,69,34,1,0,0,response1disk,,6,23,10,1,0,0,rectangle,23,10,1,0,0,23,10,1,0,0,0,59,59,94,1,,,,,,,,
,,,,,,,,,,,,,FF,,,,,,,,1.25,,,,,,,,,,,,,,,,,,,,,,60fd90dcfe0ff975d27c61c1,61036c7107acff5c33023766,2021-07-29_23h05.58.287,Simcolourproject_2stim_asymm_v5,2020.2.10,MacIntel,60,61025ae37ef11b136ea224fe,,,,,,,,,3137,68,46,1,0,0,response1disk,,6,15,14,1,0,0,rectangle,15,14,1,0,0,15,14,1,0,0,0,60,60,44,1,,,,,,,,
,,,,,,,,,,,,,FF,,,,,,,,1.35,,,,,,,,,,,,,,,,,,,,,,60fd90dcfe0ff975d27c61c1,61036c7107acff5c33023766,2021-07-29_23h05.58.287,Simcolourproject_2stim_asymm_v5,2020.2.10,MacIntel,60,61025ae37ef11b136ea224fe,,,,,,,,,1280,47,-33,1,0,0,response3disk,,5,19,-15,1,0,0,rectangle,19,-15,1,0,0,19,-15,1,0,0,0,61,61,98,1,,,,,,,,
,,,,,,,,,,,,,FF,,,,,,,,0.951,,,,,,,,,,,,,,,,,,,,,,60fd90dcfe0ff975d27c61c1,61036c7107acff5c33023766,2021-07-29_23h05.58.287,Simcolourproject_2stim_asymm_v5,2020.2.10,MacIntel,60,61025ae37ef11b136ea224fe,,,,,,,,,592,53,-26,1,0,0,response3disk,,5,26,-14,1,0,0,rectangle,26,-14,1,0,0,26,-14,1,0,0,0,62,62,85,1,,,,,,,,
,,,,,,,,,,,,,FF,,,,,,,,0.8,,,,,,,,,,,,,,,,,,,,,,60fd90dcfe0ff975d27c61c1,61036c7107acff5c33023766,2021-07-29_23h05.58.287,Simcolourproject_2stim_asymm_v5,2020.2.10,MacIntel,60,61025ae37ef11b136ea224fe,,,,,,,,,934,58,32,1,0,0,response1disk,,6,26,12,1,0,0,rectangle,26,12,1,0,0,26,12,1,0,0,0,63,63,156,1,,,,,,,,
,,,,,,,,,,,,,FF,,,,,,,,1.483,,,,,,,,,,,,,,,,,,,,,,60fd90dcfe0ff975d27c61c1,61036c7107acff5c33023766,2021-07-29_23h05.58.287,Simcolourproject_2stim_asymm_v5,2020.2.10,MacIntel,60,61025ae37ef11b136ea224fe,,,,,,,,,3632,58,40,1,0,0,response1disk,,6,27,-7,1,0,0,rectangle,27,-7,1,0,0,27,-7,1,0,0,0,64,64,107,1,,,,,,,,
,,,,,,,,,,,,,FF,,,,,,,,3.948,,,,,,,,,,,,,,,,,,,,,,60fd90dcfe0ff975d27c61c1,61036c7107acff5c33023766,2021-07-29_23h05.58.287,Simcolourproject_2stim_asymm_v5,2020.2.10,MacIntel,60,61025ae37ef11b136ea224fe,,,,,,,,,1834,30,-49,1,0,0,response3disk,,4,17,-8,1,0,0,rectangle,17,-8,1,0,0,17,-8,1,0,0,0,65,65,38,1,,,,,,,,
,,,,,,,,,,,,,FF,,,,,,,,1.783,,,,,,,,,,,,,,,,,,,,,,60fd90dcfe0ff975d27c61c1,61036c7107acff5c33023766,2021-07-29_23h05.58.287,Simcolourproject_2stim_asymm_v5,2020.2.10,MacIntel,60,61025ae37ef11b136ea224fe,,,,,,,,,682,31,-42,1,0,0,response3disk,,4,15,-6,1,0,0,rectangle,15,-6,1,0,0,15,-6,1,0,0,0,66,66,101,1,,,,,,,,
,,,,,,,,,,,,,FF,,,,,,,,1.1,,,,,,,,,,,,,,,,,,,,,,60fd90dcfe0ff975d27c61c1,61036c7107acff5c33023766,2021-07-29_23h05.58.287,Simcolourproject_2stim_asymm_v5,2020.2.10,MacIntel,60,61025ae37ef11b136ea224fe,,,,,,,,,4109,21,58,1,0,0,response1disk,,7,17,6,1,0,0,rectangle,17,6,1,0,0,17,6,1,0,0,0,67,67,75,1,,,,,,,,
,,,,,,,,,,,,,FF,,,,,,,,1.283,,,,,,,,,,,,,,,,,,,,,,60fd90dcfe0ff975d27c61c1,61036c7107acff5c33023766,2021-07-29_23h05.58.287,Simcolourproject_2stim_asymm_v5,2020.2.10,MacIntel,60,61025ae37ef11b136ea224fe,,,,,,,,,2797,23,-51,1,0,0,response3disk,,4,3,1,1,0,0,rectangle,3,1,1,0,0,3,1,1,0,0,0,68,68,43,1,,,,,,,,
,,,,,,,,,,,,,FF,,,,,,,,2,,,,,,,,,,,,,,,,,,,,,,60fd90dcfe0ff975d27c61c1,61036c7107acff5c33023766,2021-07-29_23h05.58.287,Simcolourproject_2stim_asymm_v5,2020.2.10,MacIntel,60,61025ae37ef11b136ea224fe,,,,,,,,,1114,56,-24,1,0,0,response3disk,,5,24,-5,1,0,0,rectangle,24,-5,1,0,0,24,-5,1,0,0,0,69,69,22,1,,,,,,,,
,,,,,,,,,,,,,FF,,,,,,,,2.282,,,,,,,,,,,,,,,,,,,,,,60fd90dcfe0ff975d27c61c1,61036c7107acff5c33023766,2021-07-29_23h05.58.287,Simcolourproject_2stim_asymm_v5,2020.2.10,MacIntel,60,61025ae37ef11b136ea224fe,,,,,,,,,1591,33,-48,1,0,0,response3disk,,4,12,-3,1,0,0,rectangle,28,86,1,0,0,12,-8,1,0,0,0,70,70,48,1,,response1disk_3,TRUE,7,7,"[48,23,136,104,244,71,187,221,5,197,153,205,25,201,223,179,261,225,110,157]",1.751,rectangle
,,,,,,,,,,,,,FF,,,,,,,,1.95,,,,,,,,,,,,,,,,,,,,,,60fd90dcfe0ff975d27c61c1,61036c7107acff5c33023766,2021-07-29_23h05.58.287,Simcolourproject_2stim_asymm_v5,2020.2.10,MacIntel,60,61025ae37ef11b136ea224fe,,,,,,,,,35,32,-52,1,0,0,response3disk,,4,18,-10,1,0,0,rectangle,18,-10,1,0,0,18,-10,1,0,0,0,71,71,39,1,,,,,,,,
,,,,,,,,,,,,,FF,,,,,,,,1.083,,,,,,,,,,,,,,,,,,,,,,60fd90dcfe0ff975d27c61c1,61036c7107acff5c33023766,2021-07-29_23h05.58.287,Simcolourproject_2stim_asymm_v5,2020.2.10,MacIntel,60,61025ae37ef11b136ea224fe,,,,,,,,,1329,25,-37,1,0,0,response3disk,,4,28,9,1,0,0,rectangle,28,9,1,0,0,28,9,1,0,0,0,72,72,57,1,,,,,,,,
,,,,,,,,,,,,,FF,,,,,,,,1.316,,,,,,,,,,,,,,,,,,,,,,60fd90dcfe0ff975d27c61c1,61036c7107acff5c33023766,2021-07-29_23h05.58.287,Simcolourproject_2stim_asymm_v5,2020.2.10,MacIntel,60,61025ae37ef11b136ea224fe,,,,,,,,,3550,52,30,1,0,0,response1disk,,6,16,6,1,0,0,rectangle,16,6,1,0,0,16,6,1,0,0,0,73,73,8,1,,,,,,,,
,,,,,,,,,,,,,FF,,,,,,,,0.867,,,,,,,,,,,,,,,,,,,,,,60fd90dcfe0ff975d27c61c1,61036c7107acff5c33023766,2021-07-29_23h05.58.287,Simcolourproject_2stim_asymm_v5,2020.2.10,MacIntel,60,61025ae37ef11b136ea224fe,,,,,,,,,687,27,-58,1,0,0,response3disk,,4,21,-5,1,0,0,rectangle,21,-5,1,0,0,21,-5,1,0,0,0,74,74,69,1,,,,,,,,
,,,,,,,,,,,,,FF,,,,,,,,5.1,,,,,,,,,,,,,,,,,,,,,,60fd90dcfe0ff975d27c61c1,61036c7107acff5c33023766,2021-07-29_23h05.58.287,Simcolourproject_2stim_asymm_v5,2020.2.10,MacIntel,60,61025ae37ef11b136ea224fe,,,,,,,,,3888,56,-40,1,0,0,response3disk,,5,27,-1,1,0,0,rectangle,27,-1,1,0,0,27,-1,1,0,0,0,75,75,145,1,,,,,,,,
,,,,,,,,,,,,,FF,,,,,,,,1.15,,,,,,,,,,,,,,,,,,,,,,60fd90dcfe0ff975d27c61c1,61036c7107acff5c33023766,2021-07-29_23h05.58.287,Simcolourproject_2stim_asymm_v5,2020.2.10,MacIntel,60,61025ae37ef11b136ea224fe,,,,,,,,,3844,-33,-63,1,0,0,response5disk,,3,-9,5,1,0,0,rectangle,-9,5,1,0,0,-9,5,1,0,0,0,76,76,9,1,,,,,,,,
,,,,,,,,,,,,,FF,,,,,,,,0.949,,,,,,,,,,,,,,,,,,,,,,60fd90dcfe0ff975d27c61c1,61036c7107acff5c33023766,2021-07-29_23h05.58.287,Simcolourproject_2stim_asymm_v5,2020.2.10,MacIntel,60,61025ae37ef11b136ea224fe,,,,,,,,,4015,80,40,1,0,0,response1disk,,6,0,9,1,0,0,rectangle,0,9,1,0,0,0,9,1,0,0,0,77,77,0,1,,,,,,,,
,,,,,,,,,,,,,FF,,,,,,,,1.184,,,,,,,,,,,,,,,,,,,,,,60fd90dcfe0ff975d27c61c1,61036c7107acff5c33023766,2021-07-29_23h05.58.287,Simcolourproject_2stim_asymm_v5,2020.2.10,MacIntel,60,61025ae37ef11b136ea224fe,,,,,,,,,1823,-68,37,1,0,0,response7disk,,1,3,-1,1,0,0,rectangle,3,-1,1,0,0,3,-1,1,0,0,0,78,78,58,1,,,,,,,,
,,,,,,,,,,,,,FF,,,,,,,,0.766,,,,,,,,,,,,,,,,,,,,,,60fd90dcfe0ff975d27c61c1,61036c7107acff5c33023766,2021-07-29_23h05.58.287,Simcolourproject_2stim_asymm_v5,2020.2.10,MacIntel,60,61025ae37ef11b136ea224fe,,,,,,,,,2940,-29,51,1,0,0,response7disk,,0,-6,-2,1,0,0,rectangle,-6,-2,1,0,0,-6,-2,1,0,0,0,79,79,15,1,,,,,,,,
,,,,,,,,,,,,,FF,,,,,,,,2.55,,,,,,,,,,,,,,,,,,,,,,60fd90dcfe0ff975d27c61c1,61036c7107acff5c33023766,2021-07-29_23h05.58.287,Simcolourproject_2stim_asymm_v5,2020.2.10,MacIntel,60,61025ae37ef11b136ea224fe,,,,,,,,,3123,-30,-59,1,0,0,response5disk,,3,-5,4,1,0,0,rectangle,-5,4,1,0,0,-5,4,1,0,0,0,80,80,71,1,,,,,,,,
,,,,,,,,,,,,,FF,,,,,,,,1.6,,,,,,,,,,,,,,,,,,,,,,60fd90dcfe0ff975d27c61c1,61036c7107acff5c33023766,2021-07-29_23h05.58.287,Simcolourproject_2stim_asymm_v5,2020.2.10,MacIntel,60,61025ae37ef11b136ea224fe,,,,,,,,,2826,-24,-51,1,0,0,response5disk,,3,-2,11,1,0,0,rectangle,-2,11,1,0,0,-2,11,1,0,0,0,81,81,54,1,,,,,,,,
,,,,,,,,,,,,,FF,,,,,,,,1.599,,,,,,,,,,,,,,,,,,,,,,60fd90dcfe0ff975d27c61c1,61036c7107acff5c33023766,2021-07-29_23h05.58.287,Simcolourproject_2stim_asymm_v5,2020.2.10,MacIntel,60,61025ae37ef11b136ea224fe,,,,,,,,,2814,91,-28,1,0,0,response3disk,,5,7,-15,1,0,0,rectangle,7,-15,1,0,0,7,-15,1,0,0,0,82,82,60,1,,,,,,,,
,,,,,,,,,,,,,FF,,,,,,,,0.899,,,,,,,,,,,,,,,,,,,,,,60fd90dcfe0ff975d27c61c1,61036c7107acff5c33023766,2021-07-29_23h05.58.287,Simcolourproject_2stim_asymm_v5,2020.2.10,MacIntel,60,61025ae37ef11b136ea224fe,,,,,,,,,383,69,-34,1,0,0,response3disk,,5,29,-6,1,0,0,rectangle,29,-6,1,0,0,29,-6,1,0,0,0,83,83,31,1,,,,,,,,
,,,,,,,,,,,,,FF,,,,,,,,1.833,,,,,,,,,,,,,,,,,,,,,,60fd90dcfe0ff975d27c61c1,61036c7107acff5c33023766,2021-07-29_23h05.58.287,Simcolourproject_2stim_asymm_v5,2020.2.10,MacIntel,60,61025ae37ef11b136ea224fe,,,,,,,,,705,-29,-44,1,0,0,response5disk,,3,-25,-15,1,0,0,rectangle,-25,-15,1,0,0,-25,-15,1,0,0,0,84,84,61,1,,,,,,,,
,,,,,,,,,,,,,FF,,,,,,,,1,,,,,,,,,,,,,,,,,,,,,,60fd90dcfe0ff975d27c61c1,61036c7107acff5c33023766,2021-07-29_23h05.58.287,Simcolourproject_2stim_asymm_v5,2020.2.10,MacIntel,60,61025ae37ef11b136ea224fe,,,,,,,,,3789,-27,-48,1,0,0,response5disk,,3,-27,-8,1,0,0,rectangle,-27,-8,1,0,0,-27,-8,1,0,0,0,85,85,154,1,,,,,,,,
,,,,,,,,,,,,,FF,,,,,,,,0.767,,,,,,,,,,,,,,,,,,,,,,60fd90dcfe0ff975d27c61c1,61036c7107acff5c33023766,2021-07-29_23h05.58.287,Simcolourproject_2stim_asymm_v5,2020.2.10,MacIntel,60,61025ae37ef11b136ea224fe,,,,,,,,,4142,-29,-48,1,0,0,response5disk,,3,-17,-6,1,0,0,rectangle,-17,-6,1,0,0,-17,-6,1,0,0,0,86,86,67,1,,,,,,,,
,,,,,,,,,,,,,FF,,,,,,,,1.8,,,,,,,,,,,,,,,,,,,,,,60fd90dcfe0ff975d27c61c1,61036c7107acff5c33023766,2021-07-29_23h05.58.287,Simcolourproject_2stim_asymm_v5,2020.2.10,MacIntel,60,61025ae37ef11b136ea224fe,,,,,,,,,2436,61,26,1,0,0,response1disk,,6,25,4,1,0,0,rectangle,25,4,1,0,0,25,4,1,0,0,0,87,87,151,1,,,,,,,,
,,,,,,,,,,,,,FF,,,,,,,,1.049,,,,,,,,,,,,,,,,,,,,,,60fd90dcfe0ff975d27c61c1,61036c7107acff5c33023766,2021-07-29_23h05.58.287,Simcolourproject_2stim_asymm_v5,2020.2.10,MacIntel,60,61025ae37ef11b136ea224fe,,,,,,,,,3640,51,28,1,0,0,response1disk,,6,25,14,1,0,0,rectangle,25,14,1,0,0,25,14,1,0,0,0,88,88,66,1,,,,,,,,
,,,,,,,,,,,,,FF,,,,,,,,1.601,,,,,,,,,,,,,,,,,,,,,,60fd90dcfe0ff975d27c61c1,61036c7107acff5c33023766,2021-07-29_23h05.58.287,Simcolourproject_2stim_asymm_v5,2020.2.10,MacIntel,60,61025ae37ef11b136ea224fe,,,,,,,,,456,-72,-35,1,0,0,response5disk,,2,-10,-6,1,0,0,rectangle,-10,-6,1,0,0,-10,-6,1,0,0,0,89,89,97,1,,,,,,,,
,,,,,,,,,,,,,FF,,,,,,,,1.232,,,,,,,,,,,,,,,,,,,,,,60fd90dcfe0ff975d27c61c1,61036c7107acff5c33023766,2021-07-29_23h05.58.287,Simcolourproject_2stim_asymm_v5,2020.2.10,MacIntel,60,61025ae37ef11b136ea224fe,,,,,,,,,207,51,-43,1,0,0,response3disk,,5,24,-1,1,0,0,rectangle,24,-1,1,0,0,24,-1,1,0,0,0,90,90,59,1,,,,,,,,
,,,,,,,,,,,,,FF,,,,,,,,1.367,,,,,,,,,,,,,,,,,,,,,,60fd90dcfe0ff975d27c61c1,61036c7107acff5c33023766,2021-07-29_23h05.58.287,Simcolourproject_2stim_asymm_v5,2020.2.10,MacIntel,60,61025ae37ef11b136ea224fe,,,,,,,,,2003,53,-38,1,0,0,response3disk,,5,25,-8,1,0,0,rectangle,25,-8,1,0,0,25,-8,1,0,0,0,91,91,134,1,,,,,,,,
,,,,,,,,,,,,,FF,,,,,,,,1,,,,,,,,,,,,,,,,,,,,,,60fd90dcfe0ff975d27c61c1,61036c7107acff5c33023766,2021-07-29_23h05.58.287,Simcolourproject_2stim_asymm_v5,2020.2.10,MacIntel,60,61025ae37ef11b136ea224fe,,,,,,,,,2701,52,37,1,0,0,response1disk,,6,20,5,1,0,0,rectangle,20,5,1,0,0,20,5,1,0,0,0,92,92,121,1,,,,,,,,
,,,,,,,,,,,,,FF,,,,,,,,1.167,,,,,,,,,,,,,,,,,,,,,,60fd90dcfe0ff975d27c61c1,61036c7107acff5c33023766,2021-07-29_23h05.58.287,Simcolourproject_2stim_asymm_v5,2020.2.10,MacIntel,60,61025ae37ef11b136ea224fe,,,,,,,,,3433,-80,36,1,0,0,response7disk,,1,-12,11,1,0,0,rectangle,-12,11,1,0,0,-12,11,1,0,0,0,93,93,132,1,,,,,,,,
,,,,,,,,,,,,,FF,,,,,,,,0.766,,,,,,,,,,,,,,,,,,,,,,60fd90dcfe0ff975d27c61c1,61036c7107acff5c33023766,2021-07-29_23h05.58.287,Simcolourproject_2stim_asymm_v5,2020.2.10,MacIntel,60,61025ae37ef11b136ea224fe,,,,,,,,,2721,-85,38,1,0,0,response7disk,,1,-8,2,1,0,0,rectangle,-8,2,1,0,0,-8,2,1,0,0,0,94,94,37,1,,,,,,,,
,,,,,,,,,,,,,FF,,,,,,,,1.033,,,,,,,,,,,,,,,,,,,,,,60fd90dcfe0ff975d27c61c1,61036c7107acff5c33023766,2021-07-29_23h05.58.287,Simcolourproject_2stim_asymm_v5,2020.2.10,MacIntel,60,61025ae37ef11b136ea224fe,,,,,,,,,3318,57,70,1,0,0,response1disk,,7,13,-2,1,0,0,rectangle,13,-2,1,0,0,13,-2,1,0,0,0,95,95,128,1,,,,,,,,
,,,,,,,,,,,,,FF,,,,,,,,2.1,,,,,,,,,,,,,,,,,,,,,,60fd90dcfe0ff975d27c61c1,61036c7107acff5c33023766,2021-07-29_23h05.58.287,Simcolourproject_2stim_asymm_v5,2020.2.10,MacIntel,60,61025ae37ef11b136ea224fe,,,,,,,,,4010,37,81,1,0,0,response1disk,,7,20,8,1,0,0,rectangle,20,8,1,0,0,20,8,1,0,0,0,96,96,73,1,,,,,,,,
,,,,,,,,,,,,,FF,,,,,,,,2.234,,,,,,,,,,,,,,,,,,,,,,60fd90dcfe0ff975d27c61c1,61036c7107acff5c33023766,2021-07-29_23h05.58.287,Simcolourproject_2stim_asymm_v5,2020.2.10,MacIntel,60,61025ae37ef11b136ea224fe,,,,,,,,,2206,44,35,1,0,0,response1disk,,6,24,10,1,0,0,rectangle,24,10,1,0,0,24,10,1,0,0,0,97,97,144,1,,,,,,,,
,,,,,,,,,,,,,FF,,,,,,,,3.15,,,,,,,,,,,,,,,,,,,,,,60fd90dcfe0ff975d27c61c1,61036c7107acff5c33023766,2021-07-29_23h05.58.287,Simcolourproject_2stim_asymm_v5,2020.2.10,MacIntel,60,61025ae37ef11b136ea224fe,,,,,,,,,4310,62,27,1,0,0,response1disk,,6,27,15,1,0,0,rectangle,27,15,1,0,0,27,15,1,0,0,0,98,98,1,1,,,,,,,,
,,,,,,,,,,,,,FF,,,,,,,,1.767,,,,,,,,,,,,,,,,,,,,,,60fd90dcfe0ff975d27c61c1,61036c7107acff5c33023766,2021-07-29_23h05.58.287,Simcolourproject_2stim_asymm_v5,2020.2.10,MacIntel,60,61025ae37ef11b136ea224fe,,,,,,,,,3506,-22,-66,1,0,0,response5disk,,3,-13,-6,1,0,0,rectangle,-13,-6,1,0,0,-13,-6,1,0,0,0,99,99,111,1,,,,,,,,
,,,,,,,,,,,,,FF,,,,,,,,1.601,,,,,,,,,,,,,,,,,,,,,,60fd90dcfe0ff975d27c61c1,61036c7107acff5c33023766,2021-07-29_23h05.58.287,Simcolourproject_2stim_asymm_v5,2020.2.10,MacIntel,60,61025ae37ef11b136ea224fe,,,,,,,,,3196,-80,35,1,0,0,response7disk,,1,-17,0,1,0,0,rectangle,-17,0,1,0,0,-17,0,1,0,0,0,100,100,129,1,,,,,,,,
,,,,,,,,,,,,,FF,,,,,,,,4.999,,,,,,,,,,,,,,,,,,,,,,60fd90dcfe0ff975d27c61c1,61036c7107acff5c33023766,2021-07-29_23h05.58.287,Simcolourproject_2stim_asymm_v5,2020.2.10,MacIntel,60,61025ae37ef11b136ea224fe,,,,,,,,,2514,54,-29,1,0,0,response3disk,,5,4,2,1,0,0,rectangle,4,2,1,0,0,4,2,1,0,0,0,101,101,26,1,,,,,,,,
,,,,,,,,,,,,,FF,,,,,,,,3.9,,,,,,,,,,,,,,,,,,,,,,60fd90dcfe0ff975d27c61c1,61036c7107acff5c33023766,2021-07-29_23h05.58.287,Simcolourproject_2stim_asymm_v5,2020.2.10,MacIntel,60,61025ae37ef11b136ea224fe,,,,,,,,,2697,-30,-47,1,0,0,response5disk,,3,-28,-7,1,0,0,rectangle,-28,-7,1,0,0,-28,-7,1,0,0,0,102,102,120,1,,,,,,,,
,,,,,,,,,,,,,FF,,,,,,,,1.516,,,,,,,,,,,,,,,,,,,,,,60fd90dcfe0ff975d27c61c1,61036c7107acff5c33023766,2021-07-29_23h05.58.287,Simcolourproject_2stim_asymm_v5,2020.2.10,MacIntel,60,61025ae37ef11b136ea224fe,,,,,,,,,742,25,-49,1,0,0,response3disk,,4,5,12,1,0,0,rectangle,78,37,1,0,0,2,6,1,0,0,0,103,103,65,1,,response1disk_3,TRUE,6,6,"[48,23,136,104,244,71,187,221,5,197,153,205,25,201,223,179,261,225,110,157]",1.383,rectangle
,,,,,,,,,,,,,FF,,,,,,,,1.216,,,,,,,,,,,,,,,,,,,,,,60fd90dcfe0ff975d27c61c1,61036c7107acff5c33023766,2021-07-29_23h05.58.287,Simcolourproject_2stim_asymm_v5,2020.2.10,MacIntel,60,61025ae37ef11b136ea224fe,,,,,,,,,3468,-88,48,1,0,0,response7disk,,1,-20,-3,1,0,0,rectangle,-20,-3,1,0,0,-20,-3,1,0,0,0,104,104,158,1,,,,,,,,
,,,,,,,,,,,,,FF,,,,,,,,1.833,,,,,,,,,,,,,,,,,,,,,,60fd90dcfe0ff975d27c61c1,61036c7107acff5c33023766,2021-07-29_23h05.58.287,Simcolourproject_2stim_asymm_v5,2020.2.10,MacIntel,60,61025ae37ef11b136ea224fe,,,,,,,,,1673,-73,-54,1,0,0,response5disk,,2,-26,-15,1,0,0,rectangle,-26,-15,1,0,0,-26,-15,1,0,0,0,105,105,62,1,,,,,,,,
,,,,,,,,,,,,,FF,,,,,,,,0.801,,,,,,,,,,,,,,,,,,,,,,60fd90dcfe0ff975d27c61c1,61036c7107acff5c33023766,2021-07-29_23h05.58.287,Simcolourproject_2stim_asymm_v5,2020.2.10,MacIntel,60,61025ae37ef11b136ea224fe,,,,,,,,,2448,83,34,1,0,0,response1disk,,6,13,8,1,0,0,rectangle,13,8,1,0,0,13,8,1,0,0,0,106,106,49,1,,,,,,,,
,,,,,,,,,,,,,FF,,,,,,,,1.049,,,,,,,,,,,,,,,,,,,,,,60fd90dcfe0ff975d27c61c1,61036c7107acff5c33023766,2021-07-29_23h05.58.287,Simcolourproject_2stim_asymm_v5,2020.2.10,MacIntel,60,61025ae37ef11b136ea224fe,,,,,,,,,2827,-50,-28,1,0,0,response5disk,,2,-20,1,1,0,0,rectangle,-20,1,1,0,0,-20,1,1,0,0,0,107,107,96,1,,,,,,,,
,,,,,,,,,,,,,FF,,,,,,,,0.967,,,,,,,,,,,,,,,,,,,,,,60fd90dcfe0ff975d27c61c1,61036c7107acff5c33023766,2021-07-29_23h05.58.287,Simcolourproject_2stim_asymm_v5,2020.2.10,MacIntel,60,61025ae37ef11b136ea224fe,,,,,,,,,3089,-59,-19,1,0,0,response5disk,,2,-19,-17,1,0,0,rectangle,-19,-17,1,0,0,-19,-17,1,0,0,0,108,108,16,1,,,,,,,,
,,,,,,,,,,,,,FF,,,,,,,,1.101,,,,,,,,,,,,,,,,,,,,,,60fd90dcfe0ff975d27c61c1,61036c7107acff5c33023766,2021-07-29_23h05.58.287,Simcolourproject_2stim_asymm_v5,2020.2.10,MacIntel,60,61025ae37ef11b136ea224fe,,,,,,,,,2552,22,-51,1,0,0,response3disk,,4,15,-5,1,0,0,rectangle,78,41,1,0,0,18,2,1,0,0,0,109,109,142,1,,response1disk_3,TRUE,6,6,"[48,23,136,104,244,71,187,221,5,197,153,205,25,201,223,179,261,225,110,157]",1.333,rectangle
,,,,,,,,,,,,,FF,,,,,,,,2.433,,,,,,,,,,,,,,,,,,,,,,60fd90dcfe0ff975d27c61c1,61036c7107acff5c33023766,2021-07-29_23h05.58.287,Simcolourproject_2stim_asymm_v5,2020.2.10,MacIntel,60,61025ae37ef11b136ea224fe,,,,,,,,,3464,35,-27,1,0,0,response3disk,,5,17,0,1,0,0,rectangle,17,0,1,0,0,17,0,1,0,0,0,110,110,91,1,,,,,,,,
,,,,,,,,,,,,,FF,,,,,,,,1.165,,,,,,,,,,,,,,,,,,,,,,60fd90dcfe0ff975d27c61c1,61036c7107acff5c33023766,2021-07-29_23h05.58.287,Simcolourproject_2stim_asymm_v5,2020.2.10,MacIntel,60,61025ae37ef11b136ea224fe,,,,,,,,,4017,57,-40,1,0,0,response3disk,,5,27,-10,1,0,0,rectangle,27,-10,1,0,0,27,-10,1,0,0,0,111,111,51,1,,,,,,,,
,,,,,,,,,,,,,FF,,,,,,,,2.051,,,,,,,,,,,,,,,,,,,,,,60fd90dcfe0ff975d27c61c1,61036c7107acff5c33023766,2021-07-29_23h05.58.287,Simcolourproject_2stim_asymm_v5,2020.2.10,MacIntel,60,61025ae37ef11b136ea224fe,,,,,,,,,4198,54,55,1,0,0,response1disk,,7,14,9,1,0,0,rectangle,14,9,1,0,0,14,9,1,0,0,0,112,112,68,1,,,,,,,,
,,,,,,,,,,,,,FF,,,,,,,,1.234,,,,,,,,,,,,,,,,,,,,,,60fd90dcfe0ff975d27c61c1,61036c7107acff5c33023766,2021-07-29_23h05.58.287,Simcolourproject_2stim_asymm_v5,2020.2.10,MacIntel,60,61025ae37ef11b136ea224fe,,,,,,,,,4324,33,74,1,0,0,response1disk,,7,21,8,1,0,0,rectangle,21,8,1,0,0,21,8,1,0,0,0,113,113,125,1,,,,,,,,
,,,,,,,,,,,,,FF,,,,,,,,1.716,,,,,,,,,,,,,,,,,,,,,,60fd90dcfe0ff975d27c61c1,61036c7107acff5c33023766,2021-07-29_23h05.58.287,Simcolourproject_2stim_asymm_v5,2020.2.10,MacIntel,60,61025ae37ef11b136ea224fe,,,,,,,,,2893,-97,-43,1,0,0,response5disk,,2,-17,4,1,0,0,rectangle,-17,4,1,0,0,-17,4,1,0,0,0,114,114,155,1,,,,,,,,
,,,,,,,,,,,,,FF,,,,,,,,0.834,,,,,,,,,,,,,,,,,,,,,,60fd90dcfe0ff975d27c61c1,61036c7107acff5c33023766,2021-07-29_23h05.58.287,Simcolourproject_2stim_asymm_v5,2020.2.10,MacIntel,60,61025ae37ef11b136ea224fe,,,,,,,,,2043,62,26,1,0,0,response1disk,,6,5,16,1,0,0,rectangle,5,16,1,0,0,5,16,1,0,0,0,115,115,114,1,,,,,,,,
,,,,,,,,,,,,,FF,,,,,,,,1.067,,,,,,,,,,,,,,,,,,,,,,60fd90dcfe0ff975d27c61c1,61036c7107acff5c33023766,2021-07-29_23h05.58.287,Simcolourproject_2stim_asymm_v5,2020.2.10,MacIntel,60,61025ae37ef11b136ea224fe,,,,,,,,,452,64,17,1,0,0,response1disk,,6,23,5,1,0,0,rectangle,23,5,1,0,0,23,5,1,0,0,0,116,116,10,1,,,,,,,,
,,,,,,,,,,,,,FF,,,,,,,,0.883,,,,,,,,,,,,,,,,,,,,,,60fd90dcfe0ff975d27c61c1,61036c7107acff5c33023766,2021-07-29_23h05.58.287,Simcolourproject_2stim_asymm_v5,2020.2.10,MacIntel,60,61025ae37ef11b136ea224fe,,,,,,,,,2167,-43,112,1,0,0,response7disk,,0,-24,11,1,0,0,rectangle,-24,11,1,0,0,-24,11,1,0,0,0,117,117,140,1,,,,,,,,
,,,,,,,,,,,,,FF,,,,,,,,1.118,,,,,,,,,,,,,,,,,,,,,,60fd90dcfe0ff975d27c61c1,61036c7107acff5c33023766,2021-07-29_23h05.58.287,Simcolourproject_2stim_asymm_v5,2020.2.10,MacIntel,60,61025ae37ef11b136ea224fe,,,,,,,,,1060,-33,-39,1,0,0,response5disk,,3,-25,-10,1,0,0,rectangle,-25,-10,1,0,0,-25,-10,1,0,0,0,118,118,83,1,,,,,,,,
,,,,,,,,,,,,,FF,,,,,,,,0.932,,,,,,,,,,,,,,,,,,,,,,60fd90dcfe0ff975d27c61c1,61036c7107acff5c33023766,2021-07-29_23h05.58.287,Simcolourproject_2stim_asymm_v5,2020.2.10,MacIntel,60,61025ae37ef11b136ea224fe,,,,,,,,,1015,68,35,1,0,0,response1disk,,6,20,-6,1,0,0,rectangle,20,-6,1,0,0,20,-6,1,0,0,0,119,119,41,1,,,,,,,,
,,,,,,,,,,,,,FF,,,,,,,,1.151,,,,,,,,,,,,,,,,,,,,,,60fd90dcfe0ff975d27c61c1,61036c7107acff5c33023766,2021-07-29_23h05.58.287,Simcolourproject_2stim_asymm_v5,2020.2.10,MacIntel,60,61025ae37ef11b136ea224fe,,,,,,,,,957,57,-27,1,0,0,response3disk,,5,32,-17,1,0,0,rectangle,32,-17,1,0,0,32,-17,1,0,0,0,120,120,30,1,,,,,,,,
,,,,,,,,,,,,,FF,,,,,,,,2.018,,,,,,,,,,,,,,,,,,,,,,60fd90dcfe0ff975d27c61c1,61036c7107acff5c33023766,2021-07-29_23h05.58.287,Simcolourproject_2stim_asymm_v5,2020.2.10,MacIntel,60,61025ae37ef11b136ea224fe,,,,,,,,,1579,64,25,1,0,0,response1disk,,6,26,5,1,0,0,rectangle,26,5,1,0,0,26,5,1,0,0,0,121,121,5,1,,,,,,,,
,,,,,,,,,,,,,FF,,,,,,,,1.517,,,,,,,,,,,,,,,,,,,,,,60fd90dcfe0ff975d27c61c1,61036c7107acff5c33023766,2021-07-29_23h05.58.287,Simcolourproject_2stim_asymm_v5,2020.2.10,MacIntel,60,61025ae37ef11b136ea224fe,,,,,,,,,4230,64,30,1,0,0,response1disk,,6,14,-1,1,0,0,rectangle,14,-1,1,0,0,14,-1,1,0,0,0,122,122,153,1,,,,,,,,
,,,,,,,,,,,,,FF,,,,,,,,1.916,,,,,,,,,,,,,,,,,,,,,,60fd90dcfe0ff975d27c61c1,61036c7107acff5c33023766,2021-07-29_23h05.58.287,Simcolourproject_2stim_asymm_v5,2020.2.10,MacIntel,60,61025ae37ef11b136ea224fe,,,,,,,,,364,59,-23,1,0,0,response3disk,,5,26,0,1,0,0,rectangle,26,0,1,0,0,26,0,1,0,0,0,123,123,110,1,,,,,,,,
,,,,,,,,,,,,,FF,,,,,,,,5.183,,,,,,,,,,,,,,,,,,,,,,60fd90dcfe0ff975d27c61c1,61036c7107acff5c33023766,2021-07-29_23h05.58.287,Simcolourproject_2stim_asymm_v5,2020.2.10,MacIntel,60,61025ae37ef11b136ea224fe,,,,,,,,,1577,84,-39,1,0,0,response3disk,,5,6,7,1,0,0,rectangle,6,7,1,0,0,6,7,1,0,0,0,124,124,123,1,,,,,,,,
,,,,,,,,,,,,,FF,,,,,,,,1.616,,,,,,,,,,,,,,,,,,,,,,60fd90dcfe0ff975d27c61c1,61036c7107acff5c33023766,2021-07-29_23h05.58.287,Simcolourproject_2stim_asymm_v5,2020.2.10,MacIntel,60,61025ae37ef11b136ea224fe,,,,,,,,,3969,-65,-27,1,0,0,response5disk,,2,-24,-13,1,0,0,rectangle,-24,-13,1,0,0,-24,-13,1,0,0,0,125,125,147,1,,,,,,,,
,,,,,,,,,,,,,FF,,,,,,,,0.765,,,,,,,,,,,,,,,,,,,,,,60fd90dcfe0ff975d27c61c1,61036c7107acff5c33023766,2021-07-29_23h05.58.287,Simcolourproject_2stim_asymm_v5,2020.2.10,MacIntel,60,61025ae37ef11b136ea224fe,,,,,,,,,1211,-34,63,1,0,0,response7disk,,0,-18,1,1,0,0,rectangle,-18,1,1,0,0,-18,1,1,0,0,0,126,126,139,1,,,,,,,,
,,,,,,,,,,,,,FF,,,,,,,,5.649,,,,,,,,,,,,,,,,,,,,,,60fd90dcfe0ff975d27c61c1,61036c7107acff5c33023766,2021-07-29_23h05.58.287,Simcolourproject_2stim_asymm_v5,2020.2.10,MacIntel,60,61025ae37ef11b136ea224fe,,,,,,,,,895,-23,-62,1,0,0,response5disk,,3,-12,-5,1,0,0,rectangle,-12,-5,1,0,0,-12,-5,1,0,0,0,127,127,46,1,,,,,,,,
,,,,,,,,,,,,,FF,,,,,,,,1.267,,,,,,,,,,,,,,,,,,,,,,60fd90dcfe0ff975d27c61c1,61036c7107acff5c33023766,2021-07-29_23h05.58.287,Simcolourproject_2stim_asymm_v5,2020.2.10,MacIntel,60,61025ae37ef11b136ea224fe,,,,,,,,,1971,-33,-71,1,0,0,response5disk,,3,-28,-9,1,0,0,rectangle,-28,-9,1,0,0,-28,-9,1,0,0,0,128,128,159,1,,,,,,,,
,,,,,,,,,,,,,FF,,,,,,,,1.416,,,,,,,,,,,,,,,,,,,,,,60fd90dcfe0ff975d27c61c1,61036c7107acff5c33023766,2021-07-29_23h05.58.287,Simcolourproject_2stim_asymm_v5,2020.2.10,MacIntel,60,61025ae37ef11b136ea224fe,,,,,,,,,2670,66,-33,1,0,0,response3disk,,5,25,-8,1,0,0,rectangle,25,-8,1,0,0,25,-8,1,0,0,0,129,129,63,1,,,,,,,,
,,,,,,,,,,,,,FF,,,,,,,,0.799,,,,,,,,,,,,,,,,,,,,,,60fd90dcfe0ff975d27c61c1,61036c7107acff5c33023766,2021-07-29_23h05.58.287,Simcolourproject_2stim_asymm_v5,2020.2.10,MacIntel,60,61025ae37ef11b136ea224fe,,,,,,,,,2533,73,30,1,0,0,response1disk,,6,-11,-10,1,0,0,rectangle,-11,-10,1,0,0,-11,-10,1,0,0,0,130,130,109,1,,,,,,,,
,,,,,,,,,,,,,FF,,,,,,,,1.166,,,,,,,,,,,,,,,,,,,,,,60fd90dcfe0ff975d27c61c1,61036c7107acff5c33023766,2021-07-29_23h05.58.287,Simcolourproject_2stim_asymm_v5,2020.2.10,MacIntel,60,61025ae37ef11b136ea224fe,,,,,,,,,3760,35,-34,1,0,0,response3disk,,5,19,-13,1,0,0,rectangle,19,-13,1,0,0,19,-13,1,0,0,0,131,131,35,1,,,,,,,,
,,,,,,,,,,,,,FF,,,,,,,,1.117,,,,,,,,,,,,,,,,,,,,,,60fd90dcfe0ff975d27c61c1,61036c7107acff5c33023766,2021-07-29_23h05.58.287,Simcolourproject_2stim_asymm_v5,2020.2.10,MacIntel,60,61025ae37ef11b136ea224fe,,,,,,,,,3620,78,52,1,0,0,response1disk,,6,18,2,1,0,0,rectangle,18,2,1,0,0,18,2,1,0,0,0,132,132,150,1,,,,,,,,
,,,,,,,,,,,,,FF,,,,,,,,1.85,,,,,,,,,,,,,,,,,,,,,,60fd90dcfe0ff975d27c61c1,61036c7107acff5c33023766,2021-07-29_23h05.58.287,Simcolourproject_2stim_asymm_v5,2020.2.10,MacIntel,60,61025ae37ef11b136ea224fe,,,,,,,,,3026,29,52,1,0,0,response1disk,,7,18,4,1,0,0,rectangle,18,4,1,0,0,18,4,1,0,0,0,133,133,81,1,,,,,,,,
,,,,,,,,,,,,,FF,,,,,,,,1.134,,,,,,,,,,,,,,,,,,,,,,60fd90dcfe0ff975d27c61c1,61036c7107acff5c33023766,2021-07-29_23h05.58.287,Simcolourproject_2stim_asymm_v5,2020.2.10,MacIntel,60,61025ae37ef11b136ea224fe,,,,,,,,,3292,22,-50,1,0,0,response3disk,,4,15,-13,1,0,0,rectangle,15,-13,1,0,0,15,-13,1,0,0,0,134,134,136,1,,,,,,,,
,,,,,,,,,,,,,FF,,,,,,,,0.9,,,,,,,,,,,,,,,,,,,,,,60fd90dcfe0ff975d27c61c1,61036c7107acff5c33023766,2021-07-29_23h05.58.287,Simcolourproject_2stim_asymm_v5,2020.2.10,MacIntel,60,61025ae37ef11b136ea224fe,,,,,,,,,3059,-31,-74,1,0,0,response5disk,,3,-19,-8,1,0,0,rectangle,78,49,1,0,0,19,9,1,0,0,0,135,135,36,1,,response1disk_3,TRUE,6,6,"[48,23,136,104,244,71,187,221,5,197,153,205,25,201,223,179,261,225,110,157]",1.281,rectangle
,,,,,,,,,,,,,FF,,,,,,,,1.817,,,,,,,,,,,,,,,,,,,,,,60fd90dcfe0ff975d27c61c1,61036c7107acff5c33023766,2021-07-29_23h05.58.287,Simcolourproject_2stim_asymm_v5,2020.2.10,MacIntel,60,61025ae37ef11b136ea224fe,,,,,,,,,3236,31,-77,1,0,0,response3disk,,4,25,-9,1,0,0,rectangle,25,-9,1,0,0,25,-9,1,0,0,0,136,136,70,1,,,,,,,,
,,,,,,,,,,,,,FF,,,,,,,,8.2,,,,,,,,,,,,,,,,,,,,,,60fd90dcfe0ff975d27c61c1,61036c7107acff5c33023766,2021-07-29_23h05.58.287,Simcolourproject_2stim_asymm_v5,2020.2.10,MacIntel,60,61025ae37ef11b136ea224fe,,,,,,,,,1545,48,-29,1,0,0,response3disk,,5,26,-5,1,0,0,rectangle,26,-5,1,0,0,26,-5,1,0,0,0,137,137,13,1,,,,,,,,
,,,,,,,,,,,,,FF,,,,,,,,1.25,,,,,,,,,,,,,,,,,,,,,,60fd90dcfe0ff975d27c61c1,61036c7107acff5c33023766,2021-07-29_23h05.58.287,Simcolourproject_2stim_asymm_v5,2020.2.10,MacIntel,60,61025ae37ef11b136ea224fe,,,,,,,,,1480,32,-60,1,0,0,response3disk,,4,22,4,1,0,0,rectangle,22,4,1,0,0,22,4,1,0,0,0,138,138,105,1,,,,,,,,
,,,,,,,,,,,,,FF,,,,,,,,1.583,,,,,,,,,,,,,,,,,,,,,,60fd90dcfe0ff975d27c61c1,61036c7107acff5c33023766,2021-07-29_23h05.58.287,Simcolourproject_2stim_asymm_v5,2020.2.10,MacIntel,60,61025ae37ef11b136ea224fe,,,,,,,,,1257,45,-38,1,0,0,response3disk,,5,27,2,1,0,0,rectangle,27,2,1,0,0,27,2,1,0,0,0,139,139,76,1,,,,,,,,
,,,,,,,,,,,,,FF,,,,,,,,1.785,,,,,,,,,,,,,,,,,,,,,,60fd90dcfe0ff975d27c61c1,61036c7107acff5c33023766,2021-07-29_23h05.58.287,Simcolourproject_2stim_asymm_v5,2020.2.10,MacIntel,60,61025ae37ef11b136ea224fe,,,,,,,,,3892,64,49,1,0,0,response1disk,,6,23,0,1,0,0,rectangle,23,0,1,0,0,23,0,1,0,0,0,140,140,119,1,,,,,,,,
,,,,,,,,,,,,,FF,,,,,,,,1.384,,,,,,,,,,,,,,,,,,,,,,60fd90dcfe0ff975d27c61c1,61036c7107acff5c33023766,2021-07-29_23h05.58.287,Simcolourproject_2stim_asymm_v5,2020.2.10,MacIntel,60,61025ae37ef11b136ea224fe,,,,,,,,,3886,26,62,1,0,0,response1disk,,7,6,0,1,0,0,rectangle,6,0,1,0,0,6,0,1,0,0,0,141,141,34,1,,,,,,,,
,,,,,,,,,,,,,FF,,,,,,,,2.883,,,,,,,,,,,,,,,,,,,,,,60fd90dcfe0ff975d27c61c1,61036c7107acff5c33023766,2021-07-29_23h05.58.287,Simcolourproject_2stim_asymm_v5,2020.2.10,MacIntel,60,61025ae37ef11b136ea224fe,,,,,,,,,2625,28,63,1,0,0,response1disk,,7,15,1,1,0,0,rectangle,15,1,1,0,0,15,1,1,0,0,0,142,142,148,1,,,,,,,,
,,,,,,,,,,,,,FF,,,,,,,,1.4,,,,,,,,,,,,,,,,,,,,,,60fd90dcfe0ff975d27c61c1,61036c7107acff5c33023766,2021-07-29_23h05.58.287,Simcolourproject_2stim_asymm_v5,2020.2.10,MacIntel,60,61025ae37ef11b136ea224fe,,,,,,,,,1088,24,40,1,0,0,response1disk,,7,20,10,1,0,0,rectangle,20,10,1,0,0,20,10,1,0,0,0,143,143,47,1,,,,,,,,
,,,,,,,,,,,,,FF,,,,,,,,1.45,,,,,,,,,,,,,,,,,,,,,,60fd90dcfe0ff975d27c61c1,61036c7107acff5c33023766,2021-07-29_23h05.58.287,Simcolourproject_2stim_asymm_v5,2020.2.10,MacIntel,60,61025ae37ef11b136ea224fe,,,,,,,,,1289,-70,-41,1,0,0,response5disk,,2,-17,-6,1,0,0,rectangle,-17,-6,1,0,0,-17,-6,1,0,0,0,144,144,50,1,,,,,,,,
,,,,,,,,,,,,,FF,,,,,,,,1.317,,,,,,,,,,,,,,,,,,,,,,60fd90dcfe0ff975d27c61c1,61036c7107acff5c33023766,2021-07-29_23h05.58.287,Simcolourproject_2stim_asymm_v5,2020.2.10,MacIntel,60,61025ae37ef11b136ea224fe,,,,,,,,,249,53,26,1,0,0,response1disk,,6,22,8,1,0,0,rectangle,22,8,1,0,0,22,8,1,0,0,0,145,145,113,1,,,,,,,,
,,,,,,,,,,,,,FF,,,,,,,,1.318,,,,,,,,,,,,,,,,,,,,,,60fd90dcfe0ff975d27c61c1,61036c7107acff5c33023766,2021-07-29_23h05.58.287,Simcolourproject_2stim_asymm_v5,2020.2.10,MacIntel,60,61025ae37ef11b136ea224fe,,,,,,,,,3381,-48,72,1,0,0,response7disk,,0,-9,11,1,0,0,rectangle,-9,11,1,0,0,-9,11,1,0,0,0,146,146,27,1,,,,,,,,
,,,,,,,,,,,,,FF,,,,,,,,10.866,,,,,,,,,,,,,,,,,,,,,,60fd90dcfe0ff975d27c61c1,61036c7107acff5c33023766,2021-07-29_23h05.58.287,Simcolourproject_2stim_asymm_v5,2020.2.10,MacIntel,60,61025ae37ef11b136ea224fe,,,,,,,,,2131,82,51,1,0,0,response1disk,,6,13,14,1,0,0,rectangle,13,14,1,0,0,13,14,1,0,0,0,147,147,40,1,,,,,,,,
,,,,,,,,,,,,,FF,,,,,,,,1.033,,,,,,,,,,,,,,,,,,,,,,60fd90dcfe0ff975d27c61c1,61036c7107acff5c33023766,2021-07-29_23h05.58.287,Simcolourproject_2stim_asymm_v5,2020.2.10,MacIntel,60,61025ae37ef11b136ea224fe,,,,,,,,,1830,-64,-41,1,0,0,response5disk,,2,-27,-11,1,0,0,rectangle,-27,-11,1,0,0,-27,-11,1,0,0,0,148,148,116,1,,,,,,,,
,,,,,,,,,,,,,FF,,,,,,,,1.251,,,,,,,,,,,,,,,,,,,,,,60fd90dcfe0ff975d27c61c1,61036c7107acff5c33023766,2021-07-29_23h05.58.287,Simcolourproject_2stim_asymm_v5,2020.2.10,MacIntel,60,61025ae37ef11b136ea224fe,,,,,,,,,760,46,71,1,0,0,response1disk,,7,18,14,1,0,0,rectangle,18,14,1,0,0,18,14,1,0,0,0,149,149,82,1,,,,,,,,
,,,,,,,,,,,,,FF,,,,,,,,1.15,,,,,,,,,,,,,,,,,,,,,,60fd90dcfe0ff975d27c61c1,61036c7107acff5c33023766,2021-07-29_23h05.58.287,Simcolourproject_2stim_asymm_v5,2020.2.10,MacIntel,60,61025ae37ef11b136ea224fe,,,,,,,,,4126,-59,24,1,0,0,response7disk,,1,-23,17,1,0,0,rectangle,-23,17,1,0,0,-23,17,1,0,0,0,150,150,7,1,,,,,,,,
,,,,,,,,,,,,,FF,,,,,,,,1.582,,,,,,,,,,,,,,,,,,,,,,60fd90dcfe0ff975d27c61c1,61036c7107acff5c33023766,2021-07-29_23h05.58.287,Simcolourproject_2stim_asymm_v5,2020.2.10,MacIntel,60,61025ae37ef11b136ea224fe,,,,,,,,,814,58,-26,1,0,0,response3disk,,5,27,-3,1,0,0,rectangle,27,-3,1,0,0,27,-3,1,0,0,0,151,151,52,1,,,,,,,,
,,,,,,,,,,,,,FF,,,,,,,,1.449,,,,,,,,,,,,,,,,,,,,,,60fd90dcfe0ff975d27c61c1,61036c7107acff5c33023766,2021-07-29_23h05.58.287,Simcolourproject_2stim_asymm_v5,2020.2.10,MacIntel,60,61025ae37ef11b136ea224fe,,,,,,,,,2143,63,45,1,0,0,response1disk,,6,20,10,1,0,0,rectangle,76,49,1,0,0,20,0,1,0,0,0,152,152,152,1,,response1disk_3,TRUE,6,5,"[48,23,136,104,244,71,187,221,5,197,153,205,25,201,223,179,261,225,110,157]",1.133,rectangle
,,,,,,,,,,,,,FF,,,,,,,,2.568,,,,,,,,,,,,,,,,,,,,,,60fd90dcfe0ff975d27c61c1,61036c7107acff5c33023766,2021-07-29_23h05.58.287,Simcolourproject_2stim_asymm_v5,2020.2.10,MacIntel,60,61025ae37ef11b136ea224fe,,,,,,,,,3312,68,23,1,0,0,response1disk,,6,18,2,1,0,0,rectangle,18,2,1,0,0,18,2,1,0,0,0,153,153,11,1,,,,,,,,
,,,,,,,,,,,,,FF,,,,,,,,1.983,,,,,,,,,,,,,,,,,,,,,,60fd90dcfe0ff975d27c61c1,61036c7107acff5c33023766,2021-07-29_23h05.58.287,Simcolourproject_2stim_asymm_v5,2020.2.10,MacIntel,60,61025ae37ef11b136ea224fe,,,,,,,,,3896,55,31,1,0,0,response1disk,,6,-15,-14,1,0,0,rectangle,-15,-14,1,0,0,-15,-14,1,0,0,0,154,154,95,1,,,,,,,,
,,,,,,,,,,,,,FF,,,,,,,,1.201,,,,,,,,,,,,,,,,,,,,,,60fd90dcfe0ff975d27c61c1,61036c7107acff5c33023766,2021-07-29_23h05.58.287,Simcolourproject_2stim_asymm_v5,2020.2.10,MacIntel,60,61025ae37ef11b136ea224fe,,,,,,,,,23,38,-42,1,0,0,response3disk,,4,22,-3,1,0,0,rectangle,22,-3,1,0,0,22,-3,1,0,0,0,155,155,143,1,,,,,,,,
,,,,,,,,,,,,,FF,,,,,,,,0.767,,,,,,,,,,,,,,,,,,,,,,60fd90dcfe0ff975d27c61c1,61036c7107acff5c33023766,2021-07-29_23h05.58.287,Simcolourproject_2stim_asymm_v5,2020.2.10,MacIntel,60,61025ae37ef11b136ea224fe,,,,,,,,,1122,33,66,1,0,0,response1disk,,7,18,17,1,0,0,rectangle,-40,76,1,0,0,-26,7,1,0,0,0,156,156,100,1,,response7disk_3,TRUE,0,0,"[48,23,136,104,244,71,187,221,5,197,153,205,25,201,223,179,261,225,110,157]",1.434,rectangle
,,,,,,,,,,,,,FF,,,,,,,,1.317,,,,,,,,,,,,,,,,,,,,,,60fd90dcfe0ff975d27c61c1,61036c7107acff5c33023766,2021-07-29_23h05.58.287,Simcolourproject_2stim_asymm_v5,2020.2.10,MacIntel,60,61025ae37ef11b136ea224fe,,,,,,,,,3284,-79,-48,1,0,0,response5disk,,2,-22,-17,1,0,0,rectangle,-22,-17,1,0,0,-22,-17,1,0,0,0,157,157,86,1,,,,,,,,
,,,,,,,,,,,,,FF,,,,,,,,1.284,,,,,,,,,,,,,,,,,,,,,,60fd90dcfe0ff975d27c61c1,61036c7107acff5c33023766,2021-07-29_23h05.58.287,Simcolourproject_2stim_asymm_v5,2020.2.10,MacIntel,60,61025ae37ef11b136ea224fe,,,,,,,,,1239,-33,-42,1,0,0,response5disk,,3,-15,-3,1,0,0,rectangle,-15,-3,1,0,0,-15,-3,1,0,0,0,158,158,80,1,,,,,,,,
,,,,,,,,,,,,,FF,,,,,,,,1.55,,,,,,,,,,,,,,,,,,,,,,60fd90dcfe0ff975d27c61c1,61036c7107acff5c33023766,2021-07-29_23h05.58.287,Simcolourproject_2stim_asymm_v5,2020.2.10,MacIntel,60,61025ae37ef11b136ea224fe,,,,,,,,,194,33,-57,1,0,0,response3disk,,4,15,-16,1,0,0,rectangle,15,-16,1,0,0,15,-16,1,0,0,0,159,159,23,1,,,,,,,,
,,,,,,,,,,,,,FF,,,,,,,,1.151,,,,,,,,,,,,,,,,,,,,,,60fd90dcfe0ff975d27c61c1,61036c7107acff5c33023766,2021-07-29_23h05.58.287,Simcolourproject_2stim_asymm_v5,2020.2.10,MacIntel,60,61025ae37ef11b136ea224fe,,,,,,,,,1219,-37,-57,1,0,0,response5disk,,3,-21,-6,1,0,0,rectangle,-21,-6,1,0,0,-21,-6,1,0,0,1,0,160,45,1,,,,,,,,
,,,,,,,,,,,,,FF,,,,,,,,1.017,,,,,,,,,,,,,,,,,,,,,,60fd90dcfe0ff975d27c61c1,61036c7107acff5c33023766,2021-07-29_23h05.58.287,Simcolourproject_2stim_asymm_v5,2020.2.10,MacIntel,60,61025ae37ef11b136ea224fe,,,,,,,,,1010,64,-48,1,0,0,response3disk,,5,21,-15,1,0,0,rectangle,21,-15,1,0,0,21,-15,1,0,0,1,1,161,91,1,,,,,,,,
,,,,,,,,,,,,,FF,,,,,,,,0.866,,,,,,,,,,,,,,,,,,,,,,60fd90dcfe0ff975d27c61c1,61036c7107acff5c33023766,2021-07-29_23h05.58.287,Simcolourproject_2stim_asymm_v5,2020.2.10,MacIntel,60,61025ae37ef11b136ea224fe,,,,,,,,,684,46,-28,1,0,0,response3disk,,5,21,-15,1,0,0,rectangle,21,-15,1,0,0,21,-15,1,0,0,1,2,162,86,1,,,,,,,,
,,,,,,,,,,,,,FF,,,,,,,,3.366,,,,,,,,,,,,,,,,,,,,,,60fd90dcfe0ff975d27c61c1,61036c7107acff5c33023766,2021-07-29_23h05.58.287,Simcolourproject_2stim_asymm_v5,2020.2.10,MacIntel,60,61025ae37ef11b136ea224fe,,,,,,,,,1654,28,-53,1,0,0,response3disk,,4,24,-2,1,0,0,rectangle,24,-2,1,0,0,24,-2,1,0,0,1,3,163,140,1,,,,,,,,
,,,,,,,,,,,,,FF,,,,,,,,2.167,,,,,,,,,,,,,,,,,,,,,,60fd90dcfe0ff975d27c61c1,61036c7107acff5c33023766,2021-07-29_23h05.58.287,Simcolourproject_2stim_asymm_v5,2020.2.10,MacIntel,60,61025ae37ef11b136ea224fe,,,,,,,,,3736,61,19,1,0,0,response1disk,,6,22,4,1,0,0,rectangle,22,4,1,0,0,22,4,1,0,0,1,4,164,30,1,,,,,,,,
,,,,,,,,,,,,,FF,,,,,,,,1.949,,,,,,,,,,,,,,,,,,,,,,60fd90dcfe0ff975d27c61c1,61036c7107acff5c33023766,2021-07-29_23h05.58.287,Simcolourproject_2stim_asymm_v5,2020.2.10,MacIntel,60,61025ae37ef11b136ea224fe,,,,,,,,,2257,26,-55,1,0,0,response3disk,,4,26,-3,1,0,0,rectangle,26,-3,1,0,0,26,-3,1,0,0,1,5,165,10,1,,,,,,,,
,,,,,,,,,,,,,FF,,,,,,,,1.4,,,,,,,,,,,,,,,,,,,,,,60fd90dcfe0ff975d27c61c1,61036c7107acff5c33023766,2021-07-29_23h05.58.287,Simcolourproject_2stim_asymm_v5,2020.2.10,MacIntel,60,61025ae37ef11b136ea224fe,,,,,,,,,1052,-83,29,1,0,0,response7disk,,1,-9,-12,1,0,0,rectangle,-9,-12,1,0,0,-9,-12,1,0,0,1,6,166,7,1,,,,,,,,
,,,,,,,,,,,,,FF,,,,,,,,2.016,,,,,,,,,,,,,,,,,,,,,,60fd90dcfe0ff975d27c61c1,61036c7107acff5c33023766,2021-07-29_23h05.58.287,Simcolourproject_2stim_asymm_v5,2020.2.10,MacIntel,60,61025ae37ef11b136ea224fe,,,,,,,,,967,-40,83,1,0,0,response7disk,,0,-12,3,1,0,0,rectangle,-12,3,1,0,0,-12,3,1,0,0,1,7,167,65,1,,,,,,,,
,,,,,,,,,,,,,FF,,,,,,,,1.534,,,,,,,,,,,,,,,,,,,,,,60fd90dcfe0ff975d27c61c1,61036c7107acff5c33023766,2021-07-29_23h05.58.287,Simcolourproject_2stim_asymm_v5,2020.2.10,MacIntel,60,61025ae37ef11b136ea224fe,,,,,,,,,1163,46,72,1,0,0,response1disk,,7,11,12,1,0,0,rectangle,11,12,1,0,0,11,12,1,0,0,1,8,168,44,1,,,,,,,,
,,,,,,,,,,,,,FF,,,,,,,,0.766,,,,,,,,,,,,,,,,,,,,,,60fd90dcfe0ff975d27c61c1,61036c7107acff5c33023766,2021-07-29_23h05.58.287,Simcolourproject_2stim_asymm_v5,2020.2.10,MacIntel,60,61025ae37ef11b136ea224fe,,,,,,,,,4095,-46,88,1,0,0,response7disk,,0,-13,4,1,0,0,rectangle,-13,4,1,0,0,-13,4,1,0,0,1,9,169,77,1,,,,,,,,
,,,,,,,,,,,,,FF,,,,,,,,0.95,,,,,,,,,,,,,,,,,,,,,,60fd90dcfe0ff975d27c61c1,61036c7107acff5c33023766,2021-07-29_23h05.58.287,Simcolourproject_2stim_asymm_v5,2020.2.10,MacIntel,60,61025ae37ef11b136ea224fe,,,,,,,,,3372,35,92,1,0,0,response1disk,,7,10,5,1,0,0,rectangle,10,5,1,0,0,10,5,1,0,0,1,10,170,130,1,,,,,,,,
,,,,,,,,,,,,,FF,,,,,,,,4.833,,,,,,,,,,,,,,,,,,,,,,60fd90dcfe0ff975d27c61c1,61036c7107acff5c33023766,2021-07-29_23h05.58.287,Simcolourproject_2stim_asymm_v5,2020.2.10,MacIntel,60,61025ae37ef11b136ea224fe,,,,,,,,,1884,83,-64,1,0,0,response3disk,,5,11,-3,1,0,0,rectangle,11,-3,1,0,0,11,-3,1,0,0,1,11,171,133,1,,,,,,,,
,,,,,,,,,,,,,FF,,,,,,,,1.434,,,,,,,,,,,,,,,,,,,,,,60fd90dcfe0ff975d27c61c1,61036c7107acff5c33023766,2021-07-29_23h05.58.287,Simcolourproject_2stim_asymm_v5,2020.2.10,MacIntel,60,61025ae37ef11b136ea224fe,,,,,,,,,1351,101,-63,1,0,0,response3disk,,5,4,2,1,0,0,rectangle,4,2,1,0,0,4,2,1,0,0,1,12,172,26,1,,,,,,,,
,,,,,,,,,,,,,FF,,,,,,,,5.083,,,,,,,,,,,,,,,,,,,,,,60fd90dcfe0ff975d27c61c1,61036c7107acff5c33023766,2021-07-29_23h05.58.287,Simcolourproject_2stim_asymm_v5,2020.2.10,MacIntel,60,61025ae37ef11b136ea224fe,,,,,,,,,1340,43,70,1,0,0,response1disk,,7,19,1,1,0,0,rectangle,19,1,1,0,0,19,1,1,0,0,1,13,173,109,1,,,,,,,,
,,,,,,,,,,,,,FF,,,,,,,,1.051,,,,,,,,,,,,,,,,,,,,,,60fd90dcfe0ff975d27c61c1,61036c7107acff5c33023766,2021-07-29_23h05.58.287,Simcolourproject_2stim_asymm_v5,2020.2.10,MacIntel,60,61025ae37ef11b136ea224fe,,,,,,,,,2078,25,-59,1,0,0,response3disk,,4,23,-10,1,0,0,rectangle,23,-10,1,0,0,23,-10,1,0,0,1,14,174,46,1,,,,,,,,
,,,,,,,,,,,,,FF,,,,,,,,1.168,,,,,,,,,,,,,,,,,,,,,,60fd90dcfe0ff975d27c61c1,61036c7107acff5c33023766,2021-07-29_23h05.58.287,Simcolourproject_2stim_asymm_v5,2020.2.10,MacIntel,60,61025ae37ef11b136ea224fe,,,,,,,,,2371,-35,-51,1,0,0,response5disk,,3,-13,-2,1,0,0,rectangle,-13,-2,1,0,0,-13,-2,1,0,0,1,15,175,105,1,,,,,,,,
,,,,,,,,,,,,,FF,,,,,,,,1.918,,,,,,,,,,,,,,,,,,,,,,60fd90dcfe0ff975d27c61c1,61036c7107acff5c33023766,2021-07-29_23h05.58.287,Simcolourproject_2stim_asymm_v5,2020.2.10,MacIntel,60,61025ae37ef11b136ea224fe,,,,,,,,,2001,79,-46,1,0,0,response3disk,,5,24,-7,1,0,0,rectangle,24,-7,1,0,0,24,-7,1,0,0,1,16,176,25,1,,,,,,,,
,,,,,,,,,,,,,FF,,,,,,,,3.617,,,,,,,,,,,,,,,,,,,,,,60fd90dcfe0ff975d27c61c1,61036c7107acff5c33023766,2021-07-29_23h05.58.287,Simcolourproject_2stim_asymm_v5,2020.2.10,MacIntel,60,61025ae37ef11b136ea224fe,,,,,,,,,1077,51,31,1,0,0,response1disk,,6,11,-12,1,0,0,rectangle,11,-12,1,0,0,11,-12,1,0,0,1,17,177,136,1,,,,,,,,
,,,,,,,,,,,,,FF,,,,,,,,2.816,,,,,,,,,,,,,,,,,,,,,,60fd90dcfe0ff975d27c61c1,61036c7107acff5c33023766,2021-07-29_23h05.58.287,Simcolourproject_2stim_asymm_v5,2020.2.10,MacIntel,60,61025ae37ef11b136ea224fe,,,,,,,,,4114,72,-43,1,0,0,response3disk,,5,17,4,1,0,0,rectangle,106,56,1,0,0,21,13,1,0,0,1,18,178,48,1,,response1disk_3,TRUE,6,6,"[48,23,136,104,244,71,187,221,5,197,153,205,25,201,223,179,261,225,110,157]",1.184,rectangle
,,,,,,,,,,,,,FF,,,,,,,,2.467,,,,,,,,,,,,,,,,,,,,,,60fd90dcfe0ff975d27c61c1,61036c7107acff5c33023766,2021-07-29_23h05.58.287,Simcolourproject_2stim_asymm_v5,2020.2.10,MacIntel,60,61025ae37ef11b136ea224fe,,,,,,,,,1464,22,-54,1,0,0,response3disk,,4,4,-18,1,0,0,rectangle,4,-18,1,0,0,4,-18,1,0,0,1,19,179,59,1,,,,,,,,
,,,,,,,,,,,,,FF,,,,,,,,1.233,,,,,,,,,,,,,,,,,,,,,,60fd90dcfe0ff975d27c61c1,61036c7107acff5c33023766,2021-07-29_23h05.58.287,Simcolourproject_2stim_asymm_v5,2020.2.10,MacIntel,60,61025ae37ef11b136ea224fe,,,,,,,,,2429,19,-42,1,0,0,response3disk,,4,10,-17,1,0,0,rectangle,10,-17,1,0,0,10,-17,1,0,0,1,20,180,79,1,,,,,,,,
,,,,,,,,,,,,,FF,,,,,,,,4.116,,,,,,,,,,,,,,,,,,,,,,60fd90dcfe0ff975d27c61c1,61036c7107acff5c33023766,2021-07-29_23h05.58.287,Simcolourproject_2stim_asymm_v5,2020.2.10,MacIntel,60,61025ae37ef11b136ea224fe,,,,,,,,,1235,78,-23,1,0,0,response3disk,,5,26,-4,1,0,0,rectangle,26,-4,1,0,0,26,-4,1,0,0,1,21,181,121,1,,,,,,,,
,,,,,,,,,,,,,FF,,,,,,,,2.066,,,,,,,,,,,,,,,,,,,,,,60fd90dcfe0ff975d27c61c1,61036c7107acff5c33023766,2021-07-29_23h05.58.287,Simcolourproject_2stim_asymm_v5,2020.2.10,MacIntel,60,61025ae37ef11b136ea224fe,,,,,,,,,2871,65,-62,1,0,0,response3disk,,5,3,3,1,0,0,rectangle,3,3,1,0,0,3,3,1,0,0,1,22,182,117,1,,,,,,,,
,,,,,,,,,,,,,FF,,,,,,,,1.549,,,,,,,,,,,,,,,,,,,,,,60fd90dcfe0ff975d27c61c1,61036c7107acff5c33023766,2021-07-29_23h05.58.287,Simcolourproject_2stim_asymm_v5,2020.2.10,MacIntel,60,61025ae37ef11b136ea224fe,,,,,,,,,288,27,-64,1,0,0,response3disk,,4,7,-3,1,0,0,rectangle,7,-3,1,0,0,7,-3,1,0,0,1,23,183,89,1,,,,,,,,
,,,,,,,,,,,,,FF,,,,,,,,3.782,,,,,,,,,,,,,,,,,,,,,,60fd90dcfe0ff975d27c61c1,61036c7107acff5c33023766,2021-07-29_23h05.58.287,Simcolourproject_2stim_asymm_v5,2020.2.10,MacIntel,60,61025ae37ef11b136ea224fe,,,,,,,,,2180,45,-29,1,0,0,response3disk,,5,12,-5,1,0,0,rectangle,12,-5,1,0,0,12,-5,1,0,0,1,24,184,101,1,,,,,,,,
,,,,,,,,,,,,,FF,,,,,,,,1.167,,,,,,,,,,,,,,,,,,,,,,60fd90dcfe0ff975d27c61c1,61036c7107acff5c33023766,2021-07-29_23h05.58.287,Simcolourproject_2stim_asymm_v5,2020.2.10,MacIntel,60,61025ae37ef11b136ea224fe,,,,,,,,,3205,-33,-63,1,0,0,response5disk,,3,-2,5,1,0,0,rectangle,-2,5,1,0,0,-2,5,1,0,0,1,25,185,149,1,,,,,,,,
,,,,,,,,,,,,,FF,,,,,,,,2.416,,,,,,,,,,,,,,,,,,,,,,60fd90dcfe0ff975d27c61c1,61036c7107acff5c33023766,2021-07-29_23h05.58.287,Simcolourproject_2stim_asymm_v5,2020.2.10,MacIntel,60,61025ae37ef11b136ea224fe,,,,,,,,,292,77,-38,1,0,0,response3disk,,5,23,-12,1,0,0,rectangle,71,16,1,0,0,14,1,1,0,0,1,26,186,12,1,,response1disk_3,TRUE,6,6,"[48,23,136,104,244,71,187,221,5,197,153,205,25,201,223,179,261,225,110,157]",1.1,rectangle
,,,,,,,,,,,,,FF,,,,,,,,3.167,,,,,,,,,,,,,,,,,,,,,,60fd90dcfe0ff975d27c61c1,61036c7107acff5c33023766,2021-07-29_23h05.58.287,Simcolourproject_2stim_asymm_v5,2020.2.10,MacIntel,60,61025ae37ef11b136ea224fe,,,,,,,,,494,43,-65,1,0,0,response3disk,,4,21,-11,1,0,0,rectangle,21,-11,1,0,0,21,-11,1,0,0,1,27,187,64,1,,,,,,,,
,,,,,,,,,,,,,FF,,,,,,,,1.3,,,,,,,,,,,,,,,,,,,,,,60fd90dcfe0ff975d27c61c1,61036c7107acff5c33023766,2021-07-29_23h05.58.287,Simcolourproject_2stim_asymm_v5,2020.2.10,MacIntel,60,61025ae37ef11b136ea224fe,,,,,,,,,2026,34,-73,1,0,0,response3disk,,4,8,-3,1,0,0,rectangle,8,-3,1,0,0,8,-3,1,0,0,1,28,188,137,1,,,,,,,,
,,,,,,,,,,,,,FF,,,,,,,,0.916,,,,,,,,,,,,,,,,,,,,,,60fd90dcfe0ff975d27c61c1,61036c7107acff5c33023766,2021-07-29_23h05.58.287,Simcolourproject_2stim_asymm_v5,2020.2.10,MacIntel,60,61025ae37ef11b136ea224fe,,,,,,,,,3155,-60,-37,1,0,0,response5disk,,2,-5,2,1,0,0,rectangle,-5,2,1,0,0,-5,2,1,0,0,1,29,189,147,1,,,,,,,,
,,,,,,,,,,,,,FF,,,,,,,,1.483,,,,,,,,,,,,,,,,,,,,,,60fd90dcfe0ff975d27c61c1,61036c7107acff5c33023766,2021-07-29_23h05.58.287,Simcolourproject_2stim_asymm_v5,2020.2.10,MacIntel,60,61025ae37ef11b136ea224fe,,,,,,,,,3926,-36,-62,1,0,0,response5disk,,3,-30,-11,1,0,0,rectangle,-30,-11,1,0,0,-30,-11,1,0,0,1,30,190,92,1,,,,,,,,
,,,,,,,,,,,,,FF,,,,,,,,1.449,,,,,,,,,,,,,,,,,,,,,,60fd90dcfe0ff975d27c61c1,61036c7107acff5c33023766,2021-07-29_23h05.58.287,Simcolourproject_2stim_asymm_v5,2020.2.10,MacIntel,60,61025ae37ef11b136ea224fe,,,,,,,,,3471,-53,20,1,0,0,response7disk,,1,-20,10,1,0,0,rectangle,-20,10,1,0,0,-20,10,1,0,0,1,31,191,120,1,,,,,,,,
,,,,,,,,,,,,,FF,,,,,,,,1.083,,,,,,,,,,,,,,,,,,,,,,60fd90dcfe0ff975d27c61c1,61036c7107acff5c33023766,2021-07-29_23h05.58.287,Simcolourproject_2stim_asymm_v5,2020.2.10,MacIntel,60,61025ae37ef11b136ea224fe,,,,,,,,,2148,56,48,1,0,0,response1disk,,6,-4,8,1,0,0,rectangle,-4,8,1,0,0,-4,8,1,0,0,1,32,192,108,1,,,,,,,,
,,,,,,,,,,,,,FF,,,,,,,,0.933,,,,,,,,,,,,,,,,,,,,,,60fd90dcfe0ff975d27c61c1,61036c7107acff5c33023766,2021-07-29_23h05.58.287,Simcolourproject_2stim_asymm_v5,2020.2.10,MacIntel,60,61025ae37ef11b136ea224fe,,,,,,,,,3990,73,34,1,0,0,response1disk,,6,28,15,1,0,0,rectangle,28,15,1,0,0,28,15,1,0,0,1,33,193,78,1,,,,,,,,
,,,,,,,,,,,,,FF,,,,,,,,1.267,,,,,,,,,,,,,,,,,,,,,,60fd90dcfe0ff975d27c61c1,61036c7107acff5c33023766,2021-07-29_23h05.58.287,Simcolourproject_2stim_asymm_v5,2020.2.10,MacIntel,60,61025ae37ef11b136ea224fe,,,,,,,,,4098,-41,-66,1,0,0,response5disk,,3,-19,-3,1,0,0,rectangle,-19,-3,1,0,0,-19,-3,1,0,0,1,34,194,11,1,,,,,,,,
,,,,,,,,,,,,,FF,,,,,,,,1.149,,,,,,,,,,,,,,,,,,,,,,60fd90dcfe0ff975d27c61c1,61036c7107acff5c33023766,2021-07-29_23h05.58.287,Simcolourproject_2stim_asymm_v5,2020.2.10,MacIntel,60,61025ae37ef11b136ea224fe,,,,,,,,,1826,-54,-43,1,0,0,response5disk,,2,-2,-3,1,0,0,rectangle,-2,-3,1,0,0,-2,-3,1,0,0,1,35,195,127,1,,,,,,,,
,,,,,,,,,,,,,FF,,,,,,,,0.8,,,,,,,,,,,,,,,,,,,,,,60fd90dcfe0ff975d27c61c1,61036c7107acff5c33023766,2021-07-29_23h05.58.287,Simcolourproject_2stim_asymm_v5,2020.2.10,MacIntel,60,61025ae37ef11b136ea224fe,,,,,,,,,3157,-70,-49,1,0,0,response5disk,,2,-10,4,1,0,0,rectangle,45,74,1,0,0,14,5,1,0,0,1,36,196,57,1,,response1disk_3,TRUE,7,7,"[48,23,136,104,244,71,187,221,5,197,153,205,25,201,223,179,261,225,110,157]",1.333,rectangle
,,,,,,,,,,,,,FF,,,,,,,,1.267,,,,,,,,,,,,,,,,,,,,,,60fd90dcfe0ff975d27c61c1,61036c7107acff5c33023766,2021-07-29_23h05.58.287,Simcolourproject_2stim_asymm_v5,2020.2.10,MacIntel,60,61025ae37ef11b136ea224fe,,,,,,,,,2567,31,61,1,0,0,response1disk,,7,12,14,1,0,0,rectangle,12,14,1,0,0,12,14,1,0,0,1,37,197,93,1,,,,,,,,
,,,,,,,,,,,,,FF,,,,,,,,0.933,,,,,,,,,,,,,,,,,,,,,,60fd90dcfe0ff975d27c61c1,61036c7107acff5c33023766,2021-07-29_23h05.58.287,Simcolourproject_2stim_asymm_v5,2020.2.10,MacIntel,60,61025ae37ef11b136ea224fe,,,,,,,,,868,79,38,1,0,0,response1disk,,6,34,12,1,0,0,rectangle,34,12,1,0,0,34,12,1,0,0,1,38,198,66,1,,,,,,,,
,,,,,,,,,,,,,FF,,,,,,,,0.916,,,,,,,,,,,,,,,,,,,,,,60fd90dcfe0ff975d27c61c1,61036c7107acff5c33023766,2021-07-29_23h05.58.287,Simcolourproject_2stim_asymm_v5,2020.2.10,MacIntel,60,61025ae37ef11b136ea224fe,,,,,,,,,3917,-71,-48,1,0,0,response5disk,,2,-12,2,1,0,0,rectangle,-12,2,1,0,0,-12,2,1,0,0,1,39,199,68,1,,,,,,,,
,,,,,,,,,,,,,FF,,,,,,,,0.75,,,,,,,,,,,,,,,,,,,,,,60fd90dcfe0ff975d27c61c1,61036c7107acff5c33023766,2021-07-29_23h05.58.287,Simcolourproject_2stim_asymm_v5,2020.2.10,MacIntel,60,61025ae37ef11b136ea224fe,,,,,,,,,1751,-87,-41,1,0,0,response5disk,,2,-17,-1,1,0,0,rectangle,36,-82,1,0,0,17,1,1,0,0,1,40,200,122,1,,response3disk_3,TRUE,4,4,"[48,23,136,104,244,71,187,221,5,197,153,205,25,201,223,179,261,225,110,157]",2.617,rectangle
,,,,,,,,,,,,,FF,,,,,,,,1.567,,,,,,,,,,,,,,,,,,,,,,60fd90dcfe0ff975d27c61c1,61036c7107acff5c33023766,2021-07-29_23h05.58.287,Simcolourproject_2stim_asymm_v5,2020.2.10,MacIntel,60,61025ae37ef11b136ea224fe,,,,,,,,,3391,-89,-43,1,0,0,response5disk,,2,-30,-8,1,0,0,rectangle,-30,-8,1,0,0,-30,-8,1,0,0,1,41,201,40,1,,,,,,,,
,,,,,,,,,,,,,FF,,,,,,,,0.883,,,,,,,,,,,,,,,,,,,,,,60fd90dcfe0ff975d27c61c1,61036c7107acff5c33023766,2021-07-29_23h05.58.287,Simcolourproject_2stim_asymm_v5,2020.2.10,MacIntel,60,61025ae37ef11b136ea224fe,,,,,,,,,780,-28,-73,1,0,0,response5disk,,3,1,-1,1,0,0,rectangle,1,-1,1,0,0,1,-1,1,0,0,1,42,202,54,1,,,,,,,,
,,,,,,,,,,,,,FF,,,,,,,,3.7,,,,,,,,,,,,,,,,,,,,,,60fd90dcfe0ff975d27c61c1,61036c7107acff5c33023766,2021-07-29_23h05.58.287,Simcolourproject_2stim_asymm_v5,2020.2.10,MacIntel,60,61025ae37ef11b136ea224fe,,,,,,,,,798,47,41,1,0,0,response1disk,,6,15,4,1,0,0,rectangle,15,4,1,0,0,15,4,1,0,0,1,43,203,119,1,,,,,,,,
,,,,,,,,,,,,,FF,,,,,,,,2.168,,,,,,,,,,,,,,,,,,,,,,60fd90dcfe0ff975d27c61c1,61036c7107acff5c33023766,2021-07-29_23h05.58.287,Simcolourproject_2stim_asymm_v5,2020.2.10,MacIntel,60,61025ae37ef11b136ea224fe,,,,,,,,,2596,60,29,1,0,0,response1disk,,6,19,12,1,0,0,rectangle,-46,59,1,0,0,-26,11,1,0,0,1,44,204,148,1,,response7disk_3,TRUE,0,0,"[48,23,136,104,244,71,187,221,5,197,153,205,25,201,223,179,261,225,110,157]",1.282,rectangle
,,,,,,,,,,,,,FF,,,,,,,,1.083,,,,,,,,,,,,,,,,,,,,,,60fd90dcfe0ff975d27c61c1,61036c7107acff5c33023766,2021-07-29_23h05.58.287,Simcolourproject_2stim_asymm_v5,2020.2.10,MacIntel,60,61025ae37ef11b136ea224fe,,,,,,,,,140,43,66,1,0,0,response1disk,,7,15,5,1,0,0,rectangle,15,5,1,0,0,15,5,1,0,0,1,45,205,72,1,,,,,,,,
,,,,,,,,,,,,,FF,,,,,,,,1.2,,,,,,,,,,,,,,,,,,,,,,60fd90dcfe0ff975d27c61c1,61036c7107acff5c33023766,2021-07-29_23h05.58.287,Simcolourproject_2stim_asymm_v5,2020.2.10,MacIntel,60,61025ae37ef11b136ea224fe,,,,,,,,,1690,35,70,1,0,0,response1disk,,7,18,11,1,0,0,rectangle,18,11,1,0,0,18,11,1,0,0,1,46,206,152,1,,,,,,,,
,,,,,,,,,,,,,FF,,,,,,,,1.516,,,,,,,,,,,,,,,,,,,,,,60fd90dcfe0ff975d27c61c1,61036c7107acff5c33023766,2021-07-29_23h05.58.287,Simcolourproject_2stim_asymm_v5,2020.2.10,MacIntel,60,61025ae37ef11b136ea224fe,,,,,,,,,3809,55,83,1,0,0,response1disk,,7,13,-1,1,0,0,rectangle,13,-1,1,0,0,13,-1,1,0,0,1,47,207,155,1,,,,,,,,
,,,,,,,,,,,,,FF,,,,,,,,2.017,,,,,,,,,,,,,,,,,,,,,,60fd90dcfe0ff975d27c61c1,61036c7107acff5c33023766,2021-07-29_23h05.58.287,Simcolourproject_2stim_asymm_v5,2020.2.10,MacIntel,60,61025ae37ef11b136ea224fe,,,,,,,,,3273,68,-37,1,0,0,response3disk,,5,22,-3,1,0,0,rectangle,22,-3,1,0,0,22,-3,1,0,0,1,48,208,13,1,,,,,,,,
,,,,,,,,,,,,,FF,,,,,,,,1.433,,,,,,,,,,,,,,,,,,,,,,60fd90dcfe0ff975d27c61c1,61036c7107acff5c33023766,2021-07-29_23h05.58.287,Simcolourproject_2stim_asymm_v5,2020.2.10,MacIntel,60,61025ae37ef11b136ea224fe,,,,,,,,,1435,58,-32,1,0,0,response3disk,,5,31,-16,1,0,0,rectangle,31,-16,1,0,0,31,-16,1,0,0,1,49,209,128,1,,,,,,,,
,,,,,,,,,,,,,FF,,,,,,,,1.883,,,,,,,,,,,,,,,,,,,,,,60fd90dcfe0ff975d27c61c1,61036c7107acff5c33023766,2021-07-29_23h05.58.287,Simcolourproject_2stim_asymm_v5,2020.2.10,MacIntel,60,61025ae37ef11b136ea224fe,,,,,,,,,2909,64,-42,1,0,0,response3disk,,5,17,-11,1,0,0,rectangle,17,-11,1,0,0,17,-11,1,0,0,1,50,210,139,1,,,,,,,,
,,,,,,,,,,,,,FF,,,,,,,,0.85,,,,,,,,,,,,,,,,,,,,,,60fd90dcfe0ff975d27c61c1,61036c7107acff5c33023766,2021-07-29_23h05.58.287,Simcolourproject_2stim_asymm_v5,2020.2.10,MacIntel,60,61025ae37ef11b136ea224fe,,,,,,,,,1989,45,91,1,0,0,response1disk,,7,18,10,1,0,0,rectangle,18,10,1,0,0,18,10,1,0,0,1,51,211,85,1,,,,,,,,
,,,,,,,,,,,,,FF,,,,,,,,1.117,,,,,,,,,,,,,,,,,,,,,,60fd90dcfe0ff975d27c61c1,61036c7107acff5c33023766,2021-07-29_23h05.58.287,Simcolourproject_2stim_asymm_v5,2020.2.10,MacIntel,60,61025ae37ef11b136ea224fe,,,,,,,,,907,-60,-73,1,0,0,response5disk,,3,-33,-13,1,0,0,rectangle,-33,-13,1,0,0,-33,-13,1,0,0,1,52,212,37,1,,,,,,,,
,,,,,,,,,,,,,FF,,,,,,,,1,,,,,,,,,,,,,,,,,,,,,,60fd90dcfe0ff975d27c61c1,61036c7107acff5c33023766,2021-07-29_23h05.58.287,Simcolourproject_2stim_asymm_v5,2020.2.10,MacIntel,60,61025ae37ef11b136ea224fe,,,,,,,,,2574,86,49,1,0,0,response1disk,,6,15,13,1,0,0,rectangle,15,13,1,0,0,15,13,1,0,0,1,53,213,63,1,,,,,,,,
,,,,,,,,,,,,,FF,,,,,,,,1.281,,,,,,,,,,,,,,,,,,,,,,60fd90dcfe0ff975d27c61c1,61036c7107acff5c33023766,2021-07-29_23h05.58.287,Simcolourproject_2stim_asymm_v5,2020.2.10,MacIntel,60,61025ae37ef11b136ea224fe,,,,,,,,,991,30,-51,1,0,0,response3disk,,4,23,-12,1,0,0,rectangle,23,-12,1,0,0,23,-12,1,0,0,1,54,214,143,1,,,,,,,,
,,,,,,,,,,,,,FF,,,,,,,,1.016,,,,,,,,,,,,,,,,,,,,,,60fd90dcfe0ff975d27c61c1,61036c7107acff5c33023766,2021-07-29_23h05.58.287,Simcolourproject_2stim_asymm_v5,2020.2.10,MacIntel,60,61025ae37ef11b136ea224fe,,,,,,,,,192,-42,-67,1,0,0,response5disk,,3,-27,-7,1,0,0,rectangle,-27,-7,1,0,0,-27,-7,1,0,0,1,55,215,15,1,,,,,,,,
,,,,,,,,,,,,,FF,,,,,,,,2.299,,,,,,,,,,,,,,,,,,,,,,60fd90dcfe0ff975d27c61c1,61036c7107acff5c33023766,2021-07-29_23h05.58.287,Simcolourproject_2stim_asymm_v5,2020.2.10,MacIntel,60,61025ae37ef11b136ea224fe,,,,,,,,,1586,47,-36,1,0,0,response3disk,,5,25,8,1,0,0,rectangle,25,8,1,0,0,25,8,1,0,0,1,56,216,81,1,,,,,,,,
,,,,,,,,,,,,,FF,,,,,,,,1.868,,,,,,,,,,,,,,,,,,,,,,60fd90dcfe0ff975d27c61c1,61036c7107acff5c33023766,2021-07-29_23h05.58.287,Simcolourproject_2stim_asymm_v5,2020.2.10,MacIntel,60,61025ae37ef11b136ea224fe,,,,,,,,,2590,75,-39,1,0,0,response3disk,,5,32,-1,1,0,0,rectangle,32,-1,1,0,0,32,-1,1,0,0,1,57,217,51,1,,,,,,,,
,,,,,,,,,,,,,FF,,,,,,,,1.2,,,,,,,,,,,,,,,,,,,,,,60fd90dcfe0ff975d27c61c1,61036c7107acff5c33023766,2021-07-29_23h05.58.287,Simcolourproject_2stim_asymm_v5,2020.2.10,MacIntel,60,61025ae37ef11b136ea224fe,,,,,,,,,425,-52,-56,1,0,0,response5disk,,3,-17,-7,1,0,0,rectangle,-17,-7,1,0,0,-17,-7,1,0,0,1,58,218,84,1,,,,,,,,
,,,,,,,,,,,,,FF,,,,,,,,4.699,,,,,,,,,,,,,,,,,,,,,,60fd90dcfe0ff975d27c61c1,61036c7107acff5c33023766,2021-07-29_23h05.58.287,Simcolourproject_2stim_asymm_v5,2020.2.10,MacIntel,60,61025ae37ef11b136ea224fe,,,,,,,,,1327,42,-92,1,0,0,response3disk,,4,20,6,1,0,0,rectangle,20,6,1,0,0,20,6,1,0,0,1,59,219,19,1,,,,,,,,
,,,,,,,,,,,,,FF,,,,,,,,0.749,,,,,,,,,,,,,,,,,,,,,,60fd90dcfe0ff975d27c61c1,61036c7107acff5c33023766,2021-07-29_23h05.58.287,Simcolourproject_2stim_asymm_v5,2020.2.10,MacIntel,60,61025ae37ef11b136ea224fe,,,,,,,,,3137,51,84,1,0,0,response1disk,,7,13,12,1,0,0,rectangle,-46,63,1,0,0,-17,3,1,0,0,1,60,220,158,1,,response7disk_3,TRUE,0,0,"[48,23,136,104,244,71,187,221,5,197,153,205,25,201,223,179,261,225,110,157]",1.317,rectangle
,,,,,,,,,,,,,FF,,,,,,,,2.283,,,,,,,,,,,,,,,,,,,,,,60fd90dcfe0ff975d27c61c1,61036c7107acff5c33023766,2021-07-29_23h05.58.287,Simcolourproject_2stim_asymm_v5,2020.2.10,MacIntel,60,61025ae37ef11b136ea224fe,,,,,,,,,1280,72,38,1,0,0,response1disk,,6,16,-4,1,0,0,rectangle,16,-4,1,0,0,16,-4,1,0,0,1,61,221,113,1,,,,,,,,
,,,,,,,,,,,,,FF,,,,,,,,1.084,,,,,,,,,,,,,,,,,,,,,,60fd90dcfe0ff975d27c61c1,61036c7107acff5c33023766,2021-07-29_23h05.58.287,Simcolourproject_2stim_asymm_v5,2020.2.10,MacIntel,60,61025ae37ef11b136ea224fe,,,,,,,,,592,61,-41,1,0,0,response3disk,,5,17,2,1,0,0,rectangle,-20,-80,1,0,0,-12,1,1,0,0,1,62,222,110,1,,response5disk_3,TRUE,3,3,"[48,23,136,104,244,71,187,221,5,197,153,205,25,201,223,179,261,225,110,157]",1.534,rectangle
,,,,,,,,,,,,,FF,,,,,,,,0.883,,,,,,,,,,,,,,,,,,,,,,60fd90dcfe0ff975d27c61c1,61036c7107acff5c33023766,2021-07-29_23h05.58.287,Simcolourproject_2stim_asymm_v5,2020.2.10,MacIntel,60,61025ae37ef11b136ea224fe,,,,,,,,,934,35,69,1,0,0,response1disk,,7,6,6,1,0,0,rectangle,6,6,1,0,0,6,6,1,0,0,1,63,223,20,1,,,,,,,,
,,,,,,,,,,,,,FF,,,,,,,,1.951,,,,,,,,,,,,,,,,,,,,,,60fd90dcfe0ff975d27c61c1,61036c7107acff5c33023766,2021-07-29_23h05.58.287,Simcolourproject_2stim_asymm_v5,2020.2.10,MacIntel,60,61025ae37ef11b136ea224fe,,,,,,,,,3632,76,50,1,0,0,response1disk,,6,10,12,1,0,0,rectangle,-30,-58,1,0,0,-15,-8,1,0,0,1,64,224,9,1,,response5disk_3,TRUE,3,3,"[48,23,136,104,244,71,187,221,5,197,153,205,25,201,223,179,261,225,110,157]",1.532,rectangle
,,,,,,,,,,,,,FF,,,,,,,,8.984,,,,,,,,,,,,,,,,,,,,,,60fd90dcfe0ff975d27c61c1,61036c7107acff5c33023766,2021-07-29_23h05.58.287,Simcolourproject_2stim_asymm_v5,2020.2.10,MacIntel,60,61025ae37ef11b136ea224fe,,,,,,,,,1834,66,-40,1,0,0,response3disk,,5,-9,6,1,0,0,rectangle,-9,6,1,0,0,-9,6,1,0,0,1,65,225,67,1,,,,,,,,
,,,,,,,,,,,,,FF,,,,,,,,1.117,,,,,,,,,,,,,,,,,,,,,,60fd90dcfe0ff975d27c61c1,61036c7107acff5c33023766,2021-07-29_23h05.58.287,Simcolourproject_2stim_asymm_v5,2020.2.10,MacIntel,60,61025ae37ef11b136ea224fe,,,,,,,,,682,90,43,1,0,0,response1disk,,6,21,9,1,0,0,rectangle,21,9,1,0,0,21,9,1,0,0,1,66,226,157,1,,,,,,,,
,,,,,,,,,,,,,FF,,,,,,,,0.749,,,,,,,,,,,,,,,,,,,,,,60fd90dcfe0ff975d27c61c1,61036c7107acff5c33023766,2021-07-29_23h05.58.287,Simcolourproject_2stim_asymm_v5,2020.2.10,MacIntel,60,61025ae37ef11b136ea224fe,,,,,,,,,4109,32,80,1,0,0,response1disk,,7,14,-3,1,0,0,rectangle,14,-3,1,0,0,14,-3,1,0,0,1,67,227,100,1,,,,,,,,
,,,,,,,,,,,,,FF,,,,,,,,1.517,,,,,,,,,,,,,,,,,,,,,,60fd90dcfe0ff975d27c61c1,61036c7107acff5c33023766,2021-07-29_23h05.58.287,Simcolourproject_2stim_asymm_v5,2020.2.10,MacIntel,60,61025ae37ef11b136ea224fe,,,,,,,,,2797,37,-51,1,0,0,response3disk,,4,-3,-6,1,0,0,rectangle,-3,-6,1,0,0,-3,-6,1,0,0,1,68,228,80,1,,,,,,,,
,,,,,,,,,,,,,FF,,,,,,,,1.082,,,,,,,,,,,,,,,,,,,,,,60fd90dcfe0ff975d27c61c1,61036c7107acff5c33023766,2021-07-29_23h05.58.287,Simcolourproject_2stim_asymm_v5,2020.2.10,MacIntel,60,61025ae37ef11b136ea224fe,,,,,,,,,1114,58,40,1,0,0,response1disk,,6,23,8,1,0,0,rectangle,23,8,1,0,0,23,8,1,0,0,1,69,229,71,1,,,,,,,,
,,,,,,,,,,,,,FF,,,,,,,,2.301,,,,,,,,,,,,,,,,,,,,,,60fd90dcfe0ff975d27c61c1,61036c7107acff5c33023766,2021-07-29_23h05.58.287,Simcolourproject_2stim_asymm_v5,2020.2.10,MacIntel,60,61025ae37ef11b136ea224fe,,,,,,,,,1591,59,44,1,0,0,response1disk,,6,21,13,1,0,0,rectangle,21,13,1,0,0,21,13,1,0,0,1,70,230,123,1,,,,,,,,
,,,,,,,,,,,,,FF,,,,,,,,2.299,,,,,,,,,,,,,,,,,,,,,,60fd90dcfe0ff975d27c61c1,61036c7107acff5c33023766,2021-07-29_23h05.58.287,Simcolourproject_2stim_asymm_v5,2020.2.10,MacIntel,60,61025ae37ef11b136ea224fe,,,,,,,,,35,50,-22,1,0,0,response3disk,,5,16,-5,1,0,0,rectangle,16,-5,1,0,0,16,-5,1,0,0,1,71,231,126,1,,,,,,,,
,,,,,,,,,,,,,FF,,,,,,,,1.55,,,,,,,,,,,,,,,,,,,,,,60fd90dcfe0ff975d27c61c1,61036c7107acff5c33023766,2021-07-29_23h05.58.287,Simcolourproject_2stim_asymm_v5,2020.2.10,MacIntel,60,61025ae37ef11b136ea224fe,,,,,,,,,1329,30,-53,1,0,0,response3disk,,4,21,-6,1,0,0,rectangle,21,-6,1,0,0,21,-6,1,0,0,1,72,232,18,1,,,,,,,,
,,,,,,,,,,,,,FF,,,,,,,,1.083,,,,,,,,,,,,,,,,,,,,,,60fd90dcfe0ff975d27c61c1,61036c7107acff5c33023766,2021-07-29_23h05.58.287,Simcolourproject_2stim_asymm_v5,2020.2.10,MacIntel,60,61025ae37ef11b136ea224fe,,,,,,,,,3550,26,62,1,0,0,response1disk,,7,17,4,1,0,0,rectangle,17,4,1,0,0,17,4,1,0,0,1,73,233,23,1,,,,,,,,
,,,,,,,,,,,,,FF,,,,,,,,1.183,,,,,,,,,,,,,,,,,,,,,,60fd90dcfe0ff975d27c61c1,61036c7107acff5c33023766,2021-07-29_23h05.58.287,Simcolourproject_2stim_asymm_v5,2020.2.10,MacIntel,60,61025ae37ef11b136ea224fe,,,,,,,,,687,35,-50,1,0,0,response3disk,,4,26,-9,1,0,0,rectangle,26,-9,1,0,0,26,-9,1,0,0,1,74,234,141,1,,,,,,,,
,,,,,,,,,,,,,FF,,,,,,,,3.133,,,,,,,,,,,,,,,,,,,,,,60fd90dcfe0ff975d27c61c1,61036c7107acff5c33023766,2021-07-29_23h05.58.287,Simcolourproject_2stim_asymm_v5,2020.2.10,MacIntel,60,61025ae37ef11b136ea224fe,,,,,,,,,3888,69,37,1,0,0,response1disk,,6,19,2,1,0,0,rectangle,19,2,1,0,0,19,2,1,0,0,1,75,235,159,1,,,,,,,,
,,,,,,,,,,,,,FF,,,,,,,,1.134,,,,,,,,,,,,,,,,,,,,,,60fd90dcfe0ff975d27c61c1,61036c7107acff5c33023766,2021-07-29_23h05.58.287,Simcolourproject_2stim_asymm_v5,2020.2.10,MacIntel,60,61025ae37ef11b136ea224fe,,,,,,,,,3844,31,-61,1,0,0,response3disk,,4,26,-4,1,0,0,rectangle,26,-4,1,0,0,26,-4,1,0,0,1,76,236,5,1,,,,,,,,
,,,,,,,,,,,,,FF,,,,,,,,1.334,,,,,,,,,,,,,,,,,,,,,,60fd90dcfe0ff975d27c61c1,61036c7107acff5c33023766,2021-07-29_23h05.58.287,Simcolourproject_2stim_asymm_v5,2020.2.10,MacIntel,60,61025ae37ef11b136ea224fe,,,,,,,,,4015,66,28,1,0,0,response1disk,,6,28,9,1,0,0,rectangle,28,9,1,0,0,28,9,1,0,0,1,77,237,144,1,,,,,,,,
,,,,,,,,,,,,,FF,,,,,,,,1.049,,,,,,,,,,,,,,,,,,,,,,60fd90dcfe0ff975d27c61c1,61036c7107acff5c33023766,2021-07-29_23h05.58.287,Simcolourproject_2stim_asymm_v5,2020.2.10,MacIntel,60,61025ae37ef11b136ea224fe,,,,,,,,,1823,-62,-29,1,0,0,response5disk,,2,-24,3,1,0,0,rectangle,-24,3,1,0,0,-24,3,1,0,0,1,78,238,145,1,,,,,,,,
,,,,,,,,,,,,,FF,,,,,,,,0.716,,,,,,,,,,,,,,,,,,,,,,60fd90dcfe0ff975d27c61c1,61036c7107acff5c33023766,2021-07-29_23h05.58.287,Simcolourproject_2stim_asymm_v5,2020.2.10,MacIntel,60,61025ae37ef11b136ea224fe,,,,,,,,,2940,-40,97,1,0,0,response7disk,,0,-23,7,1,0,0,rectangle,-23,7,1,0,0,-23,7,1,0,0,1,79,239,88,1,,,,,,,,
,,,,,,,,,,,,,FF,,,,,,,,1.233,,,,,,,,,,,,,,,,,,,,,,60fd90dcfe0ff975d27c61c1,61036c7107acff5c33023766,2021-07-29_23h05.58.287,Simcolourproject_2stim_asymm_v5,2020.2.10,MacIntel,60,61025ae37ef11b136ea224fe,,,,,,,,,3123,34,-57,1,0,0,response3disk,,4,-2,-17,1,0,0,rectangle,-2,-17,1,0,0,-2,-17,1,0,0,1,80,240,43,1,,,,,,,,
,,,,,,,,,,,,,FF,,,,,,,,1.017,,,,,,,,,,,,,,,,,,,,,,60fd90dcfe0ff975d27c61c1,61036c7107acff5c33023766,2021-07-29_23h05.58.287,Simcolourproject_2stim_asymm_v5,2020.2.10,MacIntel,60,61025ae37ef11b136ea224fe,,,,,,,,,2826,-31,-43,1,0,0,response5disk,,3,-15,-7,1,0,0,rectangle,-15,-7,1,0,0,-15,-7,1,0,0,1,81,241,135,1,,,,,,,,
,,,,,,,,,,,,,FF,,,,,,,,1.15,,,,,,,,,,,,,,,,,,,,,,60fd90dcfe0ff975d27c61c1,61036c7107acff5c33023766,2021-07-29_23h05.58.287,Simcolourproject_2stim_asymm_v5,2020.2.10,MacIntel,60,61025ae37ef11b136ea224fe,,,,,,,,,2814,46,71,1,0,0,response1disk,,7,20,12,1,0,0,rectangle,20,12,1,0,0,20,12,1,0,0,1,82,242,107,1,,,,,,,,
,,,,,,,,,,,,,FF,,,,,,,,1.218,,,,,,,,,,,,,,,,,,,,,,60fd90dcfe0ff975d27c61c1,61036c7107acff5c33023766,2021-07-29_23h05.58.287,Simcolourproject_2stim_asymm_v5,2020.2.10,MacIntel,60,61025ae37ef11b136ea224fe,,,,,,,,,383,56,-29,1,0,0,response3disk,,5,24,-9,1,0,0,rectangle,37,79,1,0,0,23,10,1,0,0,1,83,243,1,1,,response1disk_3,TRUE,7,7,"[48,23,136,104,244,71,187,221,5,197,153,205,25,201,223,179,261,225,110,157]",1.217,rectangle
,,,,,,,,,,,,,FF,,,,,,,,1.683,,,,,,,,,,,,,,,,,,,,,,60fd90dcfe0ff975d27c61c1,61036c7107acff5c33023766,2021-07-29_23h05.58.287,Simcolourproject_2stim_asymm_v5,2020.2.10,MacIntel,60,61025ae37ef11b136ea224fe,,,,,,,,,705,-24,-51,1,0,0,response5disk,,3,-13,-8,1,0,0,rectangle,-13,-8,1,0,0,-13,-8,1,0,0,1,84,244,58,1,,,,,,,,
,,,,,,,,,,,,,FF,,,,,,,,0.966,,,,,,,,,,,,,,,,,,,,,,60fd90dcfe0ff975d27c61c1,61036c7107acff5c33023766,2021-07-29_23h05.58.287,Simcolourproject_2stim_asymm_v5,2020.2.10,MacIntel,60,61025ae37ef11b136ea224fe,,,,,,,,,3789,35,-58,1,0,0,response3disk,,4,26,-13,1,0,0,rectangle,26,-13,1,0,0,26,-13,1,0,0,1,85,245,154,1,,,,,,,,
,,,,,,,,,,,,,FF,,,,,,,,0.999,,,,,,,,,,,,,,,,,,,,,,60fd90dcfe0ff975d27c61c1,61036c7107acff5c33023766,2021-07-29_23h05.58.287,Simcolourproject_2stim_asymm_v5,2020.2.10,MacIntel,60,61025ae37ef11b136ea224fe,,,,,,,,,4142,-68,-42,1,0,0,response5disk,,2,-28,-3,1,0,0,rectangle,-28,-3,1,0,0,-28,-3,1,0,0,1,86,246,24,1,,,,,,,,
,,,,,,,,,,,,,FF,,,,,,,,0.866,,,,,,,,,,,,,,,,,,,,,,60fd90dcfe0ff975d27c61c1,61036c7107acff5c33023766,2021-07-29_23h05.58.287,Simcolourproject_2stim_asymm_v5,2020.2.10,MacIntel,60,61025ae37ef11b136ea224fe,,,,,,,,,2436,48,37,1,0,0,response1disk,,6,5,10,1,0,0,rectangle,5,10,1,0,0,5,10,1,0,0,1,87,247,142,1,,,,,,,,
,,,,,,,,,,,,,FF,,,,,,,,4.017,,,,,,,,,,,,,,,,,,,,,,60fd90dcfe0ff975d27c61c1,61036c7107acff5c33023766,2021-07-29_23h05.58.287,Simcolourproject_2stim_asymm_v5,2020.2.10,MacIntel,60,61025ae37ef11b136ea224fe,,,,,,,,,3640,47,27,1,0,0,response1disk,,6,19,12,1,0,0,rectangle,19,12,1,0,0,19,12,1,0,0,1,88,248,21,1,,,,,,,,
,,,,,,,,,,,,,FF,,,,,,,,1.033,,,,,,,,,,,,,,,,,,,,,,60fd90dcfe0ff975d27c61c1,61036c7107acff5c33023766,2021-07-29_23h05.58.287,Simcolourproject_2stim_asymm_v5,2020.2.10,MacIntel,60,61025ae37ef11b136ea224fe,,,,,,,,,456,-74,-42,1,0,0,response5disk,,2,-17,6,1,0,0,rectangle,-17,6,1,0,0,-17,6,1,0,0,1,89,249,151,1,,,,,,,,
,,,,,,,,,,,,,FF,,,,,,,,1.584,,,,,,,,,,,,,,,,,,,,,,60fd90dcfe0ff975d27c61c1,61036c7107acff5c33023766,2021-07-29_23h05.58.287,Simcolourproject_2stim_asymm_v5,2020.2.10,MacIntel,60,61025ae37ef11b136ea224fe,,,,,,,,,207,67,-41,1,0,0,response3disk,,5,22,1,1,0,0,rectangle,22,1,1,0,0,22,1,1,0,0,1,90,250,17,1,,,,,,,,
,,,,,,,,,,,,,FF,,,,,,,,1.783,,,,,,,,,,,,,,,,,,,,,,60fd90dcfe0ff975d27c61c1,61036c7107acff5c33023766,2021-07-29_23h05.58.287,Simcolourproject_2stim_asymm_v5,2020.2.10,MacIntel,60,61025ae37ef11b136ea224fe,,,,,,,,,2003,57,43,1,0,0,response1disk,,6,17,14,1,0,0,rectangle,17,14,1,0,0,17,14,1,0,0,1,91,251,153,1,,,,,,,,
,,,,,,,,,,,,,FF,,,,,,,,0.833,,,,,,,,,,,,,,,,,,,,,,60fd90dcfe0ff975d27c61c1,61036c7107acff5c33023766,2021-07-29_23h05.58.287,Simcolourproject_2stim_asymm_v5,2020.2.10,MacIntel,60,61025ae37ef11b136ea224fe,,,,,,,,,2701,42,74,1,0,0,response1disk,,7,7,6,1,0,0,rectangle,7,6,1,0,0,7,6,1,0,0,1,92,252,98,1,,,,,,,,
,,,,,,,,,,,,,FF,,,,,,,,1.165,,,,,,,,,,,,,,,,,,,,,,60fd90dcfe0ff975d27c61c1,61036c7107acff5c33023766,2021-07-29_23h05.58.287,Simcolourproject_2stim_asymm_v5,2020.2.10,MacIntel,60,61025ae37ef11b136ea224fe,,,,,,,,,3433,-79,-40,1,0,0,response5disk,,2,-8,14,1,0,0,rectangle,-8,14,1,0,0,-8,14,1,0,0,1,93,253,90,1,,,,,,,,
,,,,,,,,,,,,,FF,,,,,,,,1.067,,,,,,,,,,,,,,,,,,,,,,60fd90dcfe0ff975d27c61c1,61036c7107acff5c33023766,2021-07-29_23h05.58.287,Simcolourproject_2stim_asymm_v5,2020.2.10,MacIntel,60,61025ae37ef11b136ea224fe,,,,,,,,,2721,-57,-40,1,0,0,response5disk,,2,-17,-12,1,0,0,rectangle,-17,-12,1,0,0,-17,-12,1,0,0,1,94,254,49,1,,,,,,,,
,,,,,,,,,,,,,FF,,,,,,,,0.784,,,,,,,,,,,,,,,,,,,,,,60fd90dcfe0ff975d27c61c1,61036c7107acff5c33023766,2021-07-29_23h05.58.287,Simcolourproject_2stim_asymm_v5,2020.2.10,MacIntel,60,61025ae37ef11b136ea224fe,,,,,,,,,3318,30,53,1,0,0,response1disk,,7,17,4,1,0,0,rectangle,17,4,1,0,0,17,4,1,0,0,1,95,255,125,1,,,,,,,,
,,,,,,,,,,,,,FF,,,,,,,,0.999,,,,,,,,,,,,,,,,,,,,,,60fd90dcfe0ff975d27c61c1,61036c7107acff5c33023766,2021-07-29_23h05.58.287,Simcolourproject_2stim_asymm_v5,2020.2.10,MacIntel,60,61025ae37ef11b136ea224fe,,,,,,,,,4010,55,31,1,0,0,response1disk,,6,14,14,1,0,0,rectangle,14,14,1,0,0,14,14,1,0,0,1,96,256,111,1,,,,,,,,
,,,,,,,,,,,,,FF,,,,,,,,1.633,,,,,,,,,,,,,,,,,,,,,,60fd90dcfe0ff975d27c61c1,61036c7107acff5c33023766,2021-07-29_23h05.58.287,Simcolourproject_2stim_asymm_v5,2020.2.10,MacIntel,60,61025ae37ef11b136ea224fe,,,,,,,,,2206,49,85,1,0,0,response1disk,,7,19,8,1,0,0,rectangle,19,8,1,0,0,19,8,1,0,0,1,97,257,115,1,,,,,,,,
,,,,,,,,,,,,,FF,,,,,,,,1.232,,,,,,,,,,,,,,,,,,,,,,60fd90dcfe0ff975d27c61c1,61036c7107acff5c33023766,2021-07-29_23h05.58.287,Simcolourproject_2stim_asymm_v5,2020.2.10,MacIntel,60,61025ae37ef11b136ea224fe,,,,,,,,,4310,46,-16,1,0,0,response3disk,,5,30,-6,1,0,0,rectangle,30,-6,1,0,0,30,-6,1,0,0,1,98,258,118,1,,,,,,,,
,,,,,,,,,,,,,FF,,,,,,,,2.251,,,,,,,,,,,,,,,,,,,,,,60fd90dcfe0ff975d27c61c1,61036c7107acff5c33023766,2021-07-29_23h05.58.287,Simcolourproject_2stim_asymm_v5,2020.2.10,MacIntel,60,61025ae37ef11b136ea224fe,,,,,,,,,3506,-24,-61,1,0,0,response5disk,,3,-21,-13,1,0,0,rectangle,-21,-13,1,0,0,-21,-13,1,0,0,1,99,259,95,1,,,,,,,,
,,,,,,,,,,,,,FF,,,,,,,,0.75,,,,,,,,,,,,,,,,,,,,,,60fd90dcfe0ff975d27c61c1,61036c7107acff5c33023766,2021-07-29_23h05.58.287,Simcolourproject_2stim_asymm_v5,2020.2.10,MacIntel,60,61025ae37ef11b136ea224fe,,,,,,,,,3196,-83,-48,1,0,0,response5disk,,2,-19,-4,1,0,0,rectangle,-37,-62,1,0,0,-21,0,1,0,0,1,100,260,22,1,,response5disk_3,TRUE,3,3,"[48,23,136,104,244,71,187,221,5,197,153,205,25,201,223,179,261,225,110,157]",1.251,rectangle
,,,,,,,,,,,,,FF,,,,,,,,0.965,,,,,,,,,,,,,,,,,,,,,,60fd90dcfe0ff975d27c61c1,61036c7107acff5c33023766,2021-07-29_23h05.58.287,Simcolourproject_2stim_asymm_v5,2020.2.10,MacIntel,60,61025ae37ef11b136ea224fe,,,,,,,,,2514,57,80,1,0,0,response1disk,,7,13,17,1,0,0,rectangle,13,17,1,0,0,13,17,1,0,0,1,101,261,103,1,,,,,,,,
,,,,,,,,,,,,,FF,,,,,,,,0.916,,,,,,,,,,,,,,,,,,,,,,60fd90dcfe0ff975d27c61c1,61036c7107acff5c33023766,2021-07-29_23h05.58.287,Simcolourproject_2stim_asymm_v5,2020.2.10,MacIntel,60,61025ae37ef11b136ea224fe,,,,,,,,,2697,29,-46,1,0,0,response3disk,,4,27,-11,1,0,0,rectangle,27,-11,1,0,0,27,-11,1,0,0,1,102,262,134,1,,,,,,,,
,,,,,,,,,,,,,FF,,,,,,,,0.95,,,,,,,,,,,,,,,,,,,,,,60fd90dcfe0ff975d27c61c1,61036c7107acff5c33023766,2021-07-29_23h05.58.287,Simcolourproject_2stim_asymm_v5,2020.2.10,MacIntel,60,61025ae37ef11b136ea224fe,,,,,,,,,742,43,-26,1,0,0,response3disk,,5,15,-17,1,0,0,rectangle,15,-17,1,0,0,15,-17,1,0,0,1,103,263,38,1,,,,,,,,
,,,,,,,,,,,,,FF,,,,,,,,1.049,,,,,,,,,,,,,,,,,,,,,,60fd90dcfe0ff975d27c61c1,61036c7107acff5c33023766,2021-07-29_23h05.58.287,Simcolourproject_2stim_asymm_v5,2020.2.10,MacIntel,60,61025ae37ef11b136ea224fe,,,,,,,,,3468,-30,76,1,0,0,response7disk,,0,-14,-6,1,0,0,rectangle,-14,-6,1,0,0,-14,-6,1,0,0,1,104,264,73,1,,,,,,,,
,,,,,,,,,,,,,FF,,,,,,,,1.118,,,,,,,,,,,,,,,,,,,,,,60fd90dcfe0ff975d27c61c1,61036c7107acff5c33023766,2021-07-29_23h05.58.287,Simcolourproject_2stim_asymm_v5,2020.2.10,MacIntel,60,61025ae37ef11b136ea224fe,,,,,,,,,1673,34,70,1,0,0,response1disk,,7,-9,1,1,0,0,rectangle,-9,1,1,0,0,-9,1,1,0,0,1,105,265,36,1,,,,,,,,
,,,,,,,,,,,,,FF,,,,,,,,1.716,,,,,,,,,,,,,,,,,,,,,,60fd90dcfe0ff975d27c61c1,61036c7107acff5c33023766,2021-07-29_23h05.58.287,Simcolourproject_2stim_asymm_v5,2020.2.10,MacIntel,60,61025ae37ef11b136ea224fe,,,,,,,,,2448,56,64,1,0,0,response1disk,,7,-1,-7,1,0,0,rectangle,-1,-7,1,0,0,-1,-7,1,0,0,1,106,266,96,1,,,,,,,,
,,,,,,,,,,,,,FF,,,,,,,,3.282,,,,,,,,,,,,,,,,,,,,,,60fd90dcfe0ff975d27c61c1,61036c7107acff5c33023766,2021-07-29_23h05.58.287,Simcolourproject_2stim_asymm_v5,2020.2.10,MacIntel,60,61025ae37ef11b136ea224fe,,,,,,,,,2827,69,-33,1,0,0,response3disk,,5,22,10,1,0,0,rectangle,22,10,1,0,0,22,10,1,0,0,1,107,267,74,1,,,,,,,,
,,,,,,,,,,,,,FF,,,,,,,,1.567,,,,,,,,,,,,,,,,,,,,,,60fd90dcfe0ff975d27c61c1,61036c7107acff5c33023766,2021-07-29_23h05.58.287,Simcolourproject_2stim_asymm_v5,2020.2.10,MacIntel,60,61025ae37ef11b136ea224fe,,,,,,,,,3089,-21,-71,1,0,0,response5disk,,3,-11,-3,1,0,0,rectangle,-11,-3,1,0,0,-11,-3,1,0,0,1,108,268,31,1,,,,,,,,
,,,,,,,,,,,,,FF,,,,,,,,1.934,,,,,,,,,,,,,,,,,,,,,,60fd90dcfe0ff975d27c61c1,61036c7107acff5c33023766,2021-07-29_23h05.58.287,Simcolourproject_2stim_asymm_v5,2020.2.10,MacIntel,60,61025ae37ef11b136ea224fe,,,,,,,,,2552,53,-39,1,0,0,response3disk,,5,25,-10,1,0,0,rectangle,25,-10,1,0,0,25,-10,1,0,0,1,109,269,16,1,,,,,,,,
,,,,,,,,,,,,,FF,,,,,,,,1.701,,,,,,,,,,,,,,,,,,,,,,60fd90dcfe0ff975d27c61c1,61036c7107acff5c33023766,2021-07-29_23h05.58.287,Simcolourproject_2stim_asymm_v5,2020.2.10,MacIntel,60,61025ae37ef11b136ea224fe,,,,,,,,,3464,31,88,1,0,0,response1disk,,7,12,0,1,0,0,rectangle,12,0,1,0,0,12,0,1,0,0,1,110,270,150,1,,,,,,,,
,,,,,,,,,,,,,FF,,,,,,,,0.785,,,,,,,,,,,,,,,,,,,,,,60fd90dcfe0ff975d27c61c1,61036c7107acff5c33023766,2021-07-29_23h05.58.287,Simcolourproject_2stim_asymm_v5,2020.2.10,MacIntel,60,61025ae37ef11b136ea224fe,,,,,,,,,4017,85,38,1,0,0,response1disk,,6,17,2,1,0,0,rectangle,17,2,1,0,0,17,2,1,0,0,1,111,271,35,1,,,,,,,,
,,,,,,,,,,,,,FF,,,,,,,,0.967,,,,,,,,,,,,,,,,,,,,,,60fd90dcfe0ff975d27c61c1,61036c7107acff5c33023766,2021-07-29_23h05.58.287,Simcolourproject_2stim_asymm_v5,2020.2.10,MacIntel,60,61025ae37ef11b136ea224fe,,,,,,,,,4198,70,37,1,0,0,response1disk,,6,15,7,1,0,0,rectangle,15,7,1,0,0,15,7,1,0,0,1,112,272,55,1,,,,,,,,
,,,,,,,,,,,,,FF,,,,,,,,0.7,,,,,,,,,,,,,,,,,,,,,,60fd90dcfe0ff975d27c61c1,61036c7107acff5c33023766,2021-07-29_23h05.58.287,Simcolourproject_2stim_asymm_v5,2020.2.10,MacIntel,60,61025ae37ef11b136ea224fe,,,,,,,,,4324,25,71,1,0,0,response1disk,,7,15,11,1,0,0,rectangle,15,11,1,0,0,15,11,1,0,0,1,113,273,52,1,,,,,,,,
,,,,,,,,,,,,,FF,,,,,,,,0.883,,,,,,,,,,,,,,,,,,,,,,60fd90dcfe0ff975d27c61c1,61036c7107acff5c33023766,2021-07-29_23h05.58.287,Simcolourproject_2stim_asymm_v5,2020.2.10,MacIntel,60,61025ae37ef11b136ea224fe,,,,,,,,,2893,-31,-59,1,0,0,response5disk,,3,-27,-7,1,0,0,rectangle,-27,-7,1,0,0,-27,-7,1,0,0,1,114,274,69,1,,,,,,,,
,,,,,,,,,,,,,FF,,,,,,,,0.9,,,,,,,,,,,,,,,,,,,,,,60fd90dcfe0ff975d27c61c1,61036c7107acff5c33023766,2021-07-29_23h05.58.287,Simcolourproject_2stim_asymm_v5,2020.2.10,MacIntel,60,61025ae37ef11b136ea224fe,,,,,,,,,2043,56,-39,1,0,0,response3disk,,5,2,-4,1,0,0,rectangle,2,-4,1,0,0,2,-4,1,0,0,1,115,275,70,1,,,,,,,,
,,,,,,,,,,,,,FF,,,,,,,,2.967,,,,,,,,,,,,,,,,,,,,,,60fd90dcfe0ff975d27c61c1,61036c7107acff5c33023766,2021-07-29_23h05.58.287,Simcolourproject_2stim_asymm_v5,2020.2.10,MacIntel,60,61025ae37ef11b136ea224fe,,,,,,,,,452,40,80,1,0,0,response1disk,,7,21,7,1,0,0,rectangle,21,7,1,0,0,21,7,1,0,0,1,116,276,2,1,,,,,,,,
,,,,,,,,,,,,,FF,,,,,,,,0.716,,,,,,,,,,,,,,,,,,,,,,60fd90dcfe0ff975d27c61c1,61036c7107acff5c33023766,2021-07-29_23h05.58.287,Simcolourproject_2stim_asymm_v5,2020.2.10,MacIntel,60,61025ae37ef11b136ea224fe,,,,,,,,,2167,-47,57,1,0,0,response7disk,,0,-29,14,1,0,0,rectangle,-29,14,1,0,0,-29,14,1,0,0,1,117,277,106,1,,,,,,,,
,,,,,,,,,,,,,FF,,,,,,,,1.233,,,,,,,,,,,,,,,,,,,,,,60fd90dcfe0ff975d27c61c1,61036c7107acff5c33023766,2021-07-29_23h05.58.287,Simcolourproject_2stim_asymm_v5,2020.2.10,MacIntel,60,61025ae37ef11b136ea224fe,,,,,,,,,1060,-36,-84,1,0,0,response5disk,,3,-16,-6,1,0,0,rectangle,-16,-6,1,0,0,-16,-6,1,0,0,1,118,278,102,1,,,,,,,,
,,,,,,,,,,,,,FF,,,,,,,,1.401,,,,,,,,,,,,,,,,,,,,,,60fd90dcfe0ff975d27c61c1,61036c7107acff5c33023766,2021-07-29_23h05.58.287,Simcolourproject_2stim_asymm_v5,2020.2.10,MacIntel,60,61025ae37ef11b136ea224fe,,,,,,,,,1015,27,72,1,0,0,response1disk,,7,7,12,1,0,0,rectangle,7,12,1,0,0,7,12,1,0,0,1,119,279,27,1,,,,,,,,
,,,,,,,,,,,,,FF,,,,,,,,1.568,,,,,,,,,,,,,,,,,,,,,,60fd90dcfe0ff975d27c61c1,61036c7107acff5c33023766,2021-07-29_23h05.58.287,Simcolourproject_2stim_asymm_v5,2020.2.10,MacIntel,60,61025ae37ef11b136ea224fe,,,,,,,,,957,46,76,1,0,0,response1disk,,7,21,17,1,0,0,rectangle,21,17,1,0,0,21,17,1,0,0,1,120,280,29,1,,,,,,,,
,,,,,,,,,,,,,FF,,,,,,,,1.182,,,,,,,,,,,,,,,,,,,,,,60fd90dcfe0ff975d27c61c1,61036c7107acff5c33023766,2021-07-29_23h05.58.287,Simcolourproject_2stim_asymm_v5,2020.2.10,MacIntel,60,61025ae37ef11b136ea224fe,,,,,,,,,1579,61,42,1,0,0,response1disk,,6,0,-2,1,0,0,rectangle,0,-2,1,0,0,0,-2,1,0,0,1,121,281,0,1,,,,,,,,
,,,,,,,,,,,,,FF,,,,,,,,0.9,,,,,,,,,,,,,,,,,,,,,,60fd90dcfe0ff975d27c61c1,61036c7107acff5c33023766,2021-07-29_23h05.58.287,Simcolourproject_2stim_asymm_v5,2020.2.10,MacIntel,60,61025ae37ef11b136ea224fe,,,,,,,,,4230,25,71,1,0,0,response1disk,,7,7,-3,1,0,0,rectangle,7,-3,1,0,0,7,-3,1,0,0,1,122,282,116,1,,,,,,,,
,,,,,,,,,,,,,FF,,,,,,,,1.316,,,,,,,,,,,,,,,,,,,,,,60fd90dcfe0ff975d27c61c1,61036c7107acff5c33023766,2021-07-29_23h05.58.287,Simcolourproject_2stim_asymm_v5,2020.2.10,MacIntel,60,61025ae37ef11b136ea224fe,,,,,,,,,364,37,79,1,0,0,response1disk,,7,8,12,1,0,0,rectangle,8,12,1,0,0,8,12,1,0,0,1,123,283,3,1,,,,,,,,
,,,,,,,,,,,,,FF,,,,,,,,2.782,,,,,,,,,,,,,,,,,,,,,,60fd90dcfe0ff975d27c61c1,61036c7107acff5c33023766,2021-07-29_23h05.58.287,Simcolourproject_2stim_asymm_v5,2020.2.10,MacIntel,60,61025ae37ef11b136ea224fe,,,,,,,,,1577,62,48,1,0,0,response1disk,,6,6,9,1,0,0,rectangle,6,9,1,0,0,6,9,1,0,0,1,124,284,4,1,,,,,,,,
,,,,,,,,,,,,,FF,,,,,,,,1.383,,,,,,,,,,,,,,,,,,,,,,60fd90dcfe0ff975d27c61c1,61036c7107acff5c33023766,2021-07-29_23h05.58.287,Simcolourproject_2stim_asymm_v5,2020.2.10,MacIntel,60,61025ae37ef11b136ea224fe,,,,,,,,,3969,38,-63,1,0,0,response3disk,,4,21,10,1,0,0,rectangle,21,10,1,0,0,21,10,1,0,0,1,125,285,138,1,,,,,,,,
,,,,,,,,,,,,,FF,,,,,,,,0.8,,,,,,,,,,,,,,,,,,,,,,60fd90dcfe0ff975d27c61c1,61036c7107acff5c33023766,2021-07-29_23h05.58.287,Simcolourproject_2stim_asymm_v5,2020.2.10,MacIntel,60,61025ae37ef11b136ea224fe,,,,,,,,,1211,-22,64,1,0,0,response7disk,,0,-8,14,1,0,0,rectangle,-8,14,1,0,0,-8,14,1,0,0,1,126,286,114,1,,,,,,,,
,,,,,,,,,,,,,FF,,,,,,,,2.967,,,,,,,,,,,,,,,,,,,,,,60fd90dcfe0ff975d27c61c1,61036c7107acff5c33023766,2021-07-29_23h05.58.287,Simcolourproject_2stim_asymm_v5,2020.2.10,MacIntel,60,61025ae37ef11b136ea224fe,,,,,,,,,895,32,-68,1,0,0,response3disk,,4,17,-17,1,0,0,rectangle,17,-17,1,0,0,17,-17,1,0,0,1,127,287,14,1,,,,,,,,
,,,,,,,,,,,,,FF,,,,,,,,1.051,,,,,,,,,,,,,,,,,,,,,,60fd90dcfe0ff975d27c61c1,61036c7107acff5c33023766,2021-07-29_23h05.58.287,Simcolourproject_2stim_asymm_v5,2020.2.10,MacIntel,60,61025ae37ef11b136ea224fe,,,,,,,,,1971,61,-26,1,0,0,response3disk,,5,16,-17,1,0,0,rectangle,16,-17,1,0,0,16,-17,1,0,0,1,128,288,33,1,,,,,,,,
,,,,,,,,,,,,,FF,,,,,,,,1.95,,,,,,,,,,,,,,,,,,,,,,60fd90dcfe0ff975d27c61c1,61036c7107acff5c33023766,2021-07-29_23h05.58.287,Simcolourproject_2stim_asymm_v5,2020.2.10,MacIntel,60,61025ae37ef11b136ea224fe,,,,,,,,,2670,24,-67,1,0,0,response3disk,,4,13,-9,1,0,0,rectangle,13,-9,1,0,0,13,-9,1,0,0,1,129,289,39,1,,,,,,,,
,,,,,,,,,,,,,FF,,,,,,,,0.834,,,,,,,,,,,,,,,,,,,,,,60fd90dcfe0ff975d27c61c1,61036c7107acff5c33023766,2021-07-29_23h05.58.287,Simcolourproject_2stim_asymm_v5,2020.2.10,MacIntel,60,61025ae37ef11b136ea224fe,,,,,,,,,2533,72,44,1,0,0,response1disk,,6,4,15,1,0,0,rectangle,4,15,1,0,0,4,15,1,0,0,1,130,290,97,1,,,,,,,,
,,,,,,,,,,,,,FF,,,,,,,,1.682,,,,,,,,,,,,,,,,,,,,,,60fd90dcfe0ff975d27c61c1,61036c7107acff5c33023766,2021-07-29_23h05.58.287,Simcolourproject_2stim_asymm_v5,2020.2.10,MacIntel,60,61025ae37ef11b136ea224fe,,,,,,,,,3760,29,-67,1,0,0,response3disk,,4,19,2,1,0,0,rectangle,19,2,1,0,0,19,2,1,0,0,1,131,291,129,1,,,,,,,,
,,,,,,,,,,,,,FF,,,,,,,,2.65,,,,,,,,,,,,,,,,,,,,,,60fd90dcfe0ff975d27c61c1,61036c7107acff5c33023766,2021-07-29_23h05.58.287,Simcolourproject_2stim_asymm_v5,2020.2.10,MacIntel,60,61025ae37ef11b136ea224fe,,,,,,,,,3620,69,28,1,0,0,response1disk,,6,27,13,1,0,0,rectangle,27,13,1,0,0,27,13,1,0,0,1,132,292,6,1,,,,,,,,
,,,,,,,,,,,,,FF,,,,,,,,1.867,,,,,,,,,,,,,,,,,,,,,,60fd90dcfe0ff975d27c61c1,61036c7107acff5c33023766,2021-07-29_23h05.58.287,Simcolourproject_2stim_asymm_v5,2020.2.10,MacIntel,60,61025ae37ef11b136ea224fe,,,,,,,,,3026,63,35,1,0,0,response1disk,,6,24,8,1,0,0,rectangle,24,8,1,0,0,24,8,1,0,0,1,133,293,32,1,,,,,,,,
,,,,,,,,,,,,,FF,,,,,,,,1.467,,,,,,,,,,,,,,,,,,,,,,60fd90dcfe0ff975d27c61c1,61036c7107acff5c33023766,2021-07-29_23h05.58.287,Simcolourproject_2stim_asymm_v5,2020.2.10,MacIntel,60,61025ae37ef11b136ea224fe,,,,,,,,,3292,52,-26,1,0,0,response3disk,,5,21,-15,1,0,0,rectangle,21,-15,1,0,0,21,-15,1,0,0,1,134,294,156,1,,,,,,,,
,,,,,,,,,,,,,FF,,,,,,,,1.45,,,,,,,,,,,,,,,,,,,,,,60fd90dcfe0ff975d27c61c1,61036c7107acff5c33023766,2021-07-29_23h05.58.287,Simcolourproject_2stim_asymm_v5,2020.2.10,MacIntel,60,61025ae37ef11b136ea224fe,,,,,,,,,3059,-36,-70,1,0,0,response5disk,,3,-18,-7,1,0,0,rectangle,-18,-7,1,0,0,-18,-7,1,0,0,1,135,295,47,1,,,,,,,,
,,,,,,,,,,,,,FF,,,,,,,,3.085,,,,,,,,,,,,,,,,,,,,,,60fd90dcfe0ff975d27c61c1,61036c7107acff5c33023766,2021-07-29_23h05.58.287,Simcolourproject_2stim_asymm_v5,2020.2.10,MacIntel,60,61025ae37ef11b136ea224fe,,,,,,,,,3236,41,-50,1,0,0,response3disk,,4,20,-10,1,0,0,rectangle,20,-10,1,0,0,20,-10,1,0,0,1,136,296,94,1,,,,,,,,
,,,,,,,,,,,,,FF,,,,,,,,2.732,,,,,,,,,,,,,,,,,,,,,,60fd90dcfe0ff975d27c61c1,61036c7107acff5c33023766,2021-07-29_23h05.58.287,Simcolourproject_2stim_asymm_v5,2020.2.10,MacIntel,60,61025ae37ef11b136ea224fe,,,,,,,,,1545,84,-31,1,0,0,response3disk,,5,24,-12,1,0,0,rectangle,24,-12,1,0,0,24,-12,1,0,0,1,137,297,41,1,,,,,,,,
,,,,,,,,,,,,,FF,,,,,,,,1.434,,,,,,,,,,,,,,,,,,,,,,60fd90dcfe0ff975d27c61c1,61036c7107acff5c33023766,2021-07-29_23h05.58.287,Simcolourproject_2stim_asymm_v5,2020.2.10,MacIntel,60,61025ae37ef11b136ea224fe,,,,,,,,,1480,45,25,1,0,0,response1disk,,6,-6,0,1,0,0,rectangle,-6,0,1,0,0,-6,0,1,0,0,1,138,298,53,1,,,,,,,,
