key_resp.keys,key_resp.rt,key_resp_14.keys,key_resp_14.rt,key_resp_15.keys,key_resp_15.rt,key_resp_17.keys,key_resp_17.rt,key_resp_9.keys,key_resp_9.rt,key_resp_10.keys,key_resp_10.rt,practice_comparison,Ecc,mouse_5.x,mouse_5.y,mouse_5.leftButton,mouse_5.midButton,mouse_5.rightButton,mouse_5.clicked_name,pracsimilarity,response_time,mouse_10.x,mouse_10.y,mouse_10.leftButton,mouse_10.midButton,mouse_10.rightButton,mouse_10.clicked_name,mouse_7.x,mouse_7.y,mouse_7.leftButton,mouse_7.midButton,mouse_7.rightButton,mouse_6.x,mouse_6.y,mouse_6.leftButton,mouse_6.midButton,mouse_6.rightButton,duringprac.thisRepN,duringprac.thisTrialN,duringprac.thisN,duringprac.thisIndex,duringprac.ran,participant,session,date,expName,psychopyVersion,OS,frameRate,study_id,mouse_7.clicked_name,catchpracsimilarity,catch_response_time,catchnumberprac,catchtrialorderprac,mouse_6.clicked_name,key_resp_22.keys,key_resp_22.rt,realcomparison,mouse.x,mouse.y,mouse.leftButton,mouse.midButton,mouse.rightButton,mouse.clicked_name,Colour2,similarity,mouse_2.x,mouse_2.y,mouse_2.leftButton,mouse_2.midButton,mouse_2.rightButton,mouse_2.clicked_name,mouse_3.x,mouse_3.y,mouse_3.leftButton,mouse_3.midButton,mouse_3.rightButton,mouse_11.x,mouse_11.y,mouse_11.leftButton,mouse_11.midButton,mouse_11.rightButton,trials_2.thisRepN,trials_2.thisTrialN,trials_2.thisN,trials_2.thisIndex,trials_2.ran,Colour1,mouse_3.clicked_name,catchornah,catchsimilarity,catchnumber,catchtrialorder,catchRT,mouse_11.clicked_name
space,21.6058,space,14.5352,space,16.3472,space,3.2787,space,1.0497,space,3.5489,92,PF,33,-94,1,0,0,response3disk_5,4,3.3281,7,-4,1,0,0,rectangle_8,7,-4,1,0,0,7,-4,1,0,0,0,0,0,1,1,60fda0b5ea8a7ac21b66863d,61036f21debbc760859cd3d1,2021-07-29_23h19.28.177,Simcolourproject_2stim_asymm_v5,2020.2.10,Win32,60,61025ae37ef11b136ea224fe,,,,,,,,,,,,,,,,,,,,,,,,,,,,,,,,,,,,,,,,,,,,,,
,,,,,,,,,,,,55,FF,99,22,1,0,0,response1disk_5,6,2.5714,4,-1,1,0,0,rectangle_8,49,-102,1,0,0,2,-1,1,0,0,0,1,1,3,1,60fda0b5ea8a7ac21b66863d,61036f21debbc760859cd3d1,2021-07-29_23h19.28.177,Simcolourproject_2stim_asymm_v5,2020.2.10,Win32,60,61025ae37ef11b136ea224fe,response3disk_7,4,2.0018,4,"[2,5]",rectangle_4,,,,,,,,,,,,,,,,,,,,,,,,,,,,,,,,,,,,,,,,
,,,,,,,,,,,,49,FF,-84,27,1,0,0,response7disk_5,1,2.6419,-5,8,1,0,0,rectangle_8,-5,8,1,0,0,-5,8,1,0,0,0,2,2,0,1,60fda0b5ea8a7ac21b66863d,61036f21debbc760859cd3d1,2021-07-29_23h19.28.177,Simcolourproject_2stim_asymm_v5,2020.2.10,Win32,60,61025ae37ef11b136ea224fe,,,,,,,,,,,,,,,,,,,,,,,,,,,,,,,,,,,,,,,,,,,,,,
,,,,,,,,,,,,138,PF,-47,-85,1,0,0,response5disk_5,3,1.9961,-4,1,1,0,0,rectangle_8,-4,1,1,0,0,-4,1,1,0,0,0,3,3,2,1,60fda0b5ea8a7ac21b66863d,61036f21debbc760859cd3d1,2021-07-29_23h19.28.177,Simcolourproject_2stim_asymm_v5,2020.2.10,Win32,60,61025ae37ef11b136ea224fe,,,,,,,,,,,,,,,,,,,,,,,,,,,,,,,,,,,,,,,,,,,,,,
,,,,,,,,,,,,159,PF,-31,-87,1,0,0,response5disk_5,3,2.5213,-11,2,1,0,0,rectangle_8,47,-95,1,0,0,-16,6,1,0,0,0,4,4,4,1,60fda0b5ea8a7ac21b66863d,61036f21debbc760859cd3d1,2021-07-29_23h19.28.177,Simcolourproject_2stim_asymm_v5,2020.2.10,Win32,60,61025ae37ef11b136ea224fe,response3disk_7,4,1.8966,4,"[2,5]",rectangle_4,,,,,,,,,,,,,,,,,,,,,,,,,,,,,,,,,,,,,,,,
,,,,,,,,,,,,113,PF,53,-87,1,0,0,response3disk_5,4,2.1191,-6,-3,1,0,0,rectangle_8,-6,-3,1,0,0,-6,-3,1,0,0,0,5,5,6,1,60fda0b5ea8a7ac21b66863d,61036f21debbc760859cd3d1,2021-07-29_23h19.28.177,Simcolourproject_2stim_asymm_v5,2020.2.10,Win32,60,61025ae37ef11b136ea224fe,,,,,,,,,,,,,,,,,,,,,,,,,,,,,,,,,,,,,,,,,,,,,,
,,,,,,,,,,,,18,FF,-80,-45,1,0,0,response5disk_5,2,1.5195,11,-5,1,0,0,rectangle_8,11,-5,1,0,0,11,-5,1,0,0,0,6,6,5,1,60fda0b5ea8a7ac21b66863d,61036f21debbc760859cd3d1,2021-07-29_23h19.28.177,Simcolourproject_2stim_asymm_v5,2020.2.10,Win32,60,61025ae37ef11b136ea224fe,,,,,,,,,,,,,,,,,,,,,,,,,,,,,,,,,,,,,,,,,,,,,,
,,,,,,,,,,,,,FF,,,,,,,,1.9054,,,,,,,,,,,,,,,,,,,,,,60fda0b5ea8a7ac21b66863d,61036f21debbc760859cd3d1,2021-07-29_23h19.28.177,Simcolourproject_2stim_asymm_v5,2020.2.10,Win32,60,61025ae37ef11b136ea224fe,,,,,,,space,1.6359,3810,45,85,1,0,0,response1disk,,7,8,-1,1,0,0,rectangle,8,-1,1,0,0,8,-1,1,0,0,0,0,0,45,1,,,,,,,,
,,,,,,,,,,,,,FF,,,,,,,,1.6837,,,,,,,,,,,,,,,,,,,,,,60fda0b5ea8a7ac21b66863d,61036f21debbc760859cd3d1,2021-07-29_23h19.28.177,Simcolourproject_2stim_asymm_v5,2020.2.10,Win32,60,61025ae37ef11b136ea224fe,,,,,,,,,315,37,-84,1,0,0,response3disk,,4,1,2,1,0,0,rectangle,1,2,1,0,0,1,2,1,0,0,0,1,1,41,1,,,,,,,,
,,,,,,,,,,,,,FF,,,,,,,,1.7343,,,,,,,,,,,,,,,,,,,,,,60fda0b5ea8a7ac21b66863d,61036f21debbc760859cd3d1,2021-07-29_23h19.28.177,Simcolourproject_2stim_asymm_v5,2020.2.10,Win32,60,61025ae37ef11b136ea224fe,,,,,,,,,2074,-83,-37,1,0,0,response5disk,,2,14,4,1,0,0,rectangle,14,4,1,0,0,14,4,1,0,0,0,2,2,20,1,,,,,,,,
,,,,,,,,,,,,,FF,,,,,,,,1.8177,,,,,,,,,,,,,,,,,,,,,,60fda0b5ea8a7ac21b66863d,61036f21debbc760859cd3d1,2021-07-29_23h19.28.177,Simcolourproject_2stim_asymm_v5,2020.2.10,Win32,60,61025ae37ef11b136ea224fe,,,,,,,,,799,-38,61,1,0,0,response7disk,,0,-9,9,1,0,0,rectangle,-9,9,1,0,0,-9,9,1,0,0,0,3,3,107,1,,,,,,,,
,,,,,,,,,,,,,FF,,,,,,,,1.9656,,,,,,,,,,,,,,,,,,,,,,60fda0b5ea8a7ac21b66863d,61036f21debbc760859cd3d1,2021-07-29_23h19.28.177,Simcolourproject_2stim_asymm_v5,2020.2.10,Win32,60,61025ae37ef11b136ea224fe,,,,,,,,,2780,98,-42,1,0,0,response3disk,,5,-9,12,1,0,0,rectangle,-9,12,1,0,0,-9,12,1,0,0,0,4,4,25,1,,,,,,,,
,,,,,,,,,,,,,FF,,,,,,,,0.8154,,,,,,,,,,,,,,,,,,,,,,60fda0b5ea8a7ac21b66863d,61036f21debbc760859cd3d1,2021-07-29_23h19.28.177,Simcolourproject_2stim_asymm_v5,2020.2.10,Win32,60,61025ae37ef11b136ea224fe,,,,,,,,,1607,84,-26,1,0,0,response3disk,,5,21,1,1,0,0,rectangle,21,1,1,0,0,21,1,1,0,0,0,5,5,92,1,,,,,,,,
,,,,,,,,,,,,,FF,,,,,,,,1.6464,,,,,,,,,,,,,,,,,,,,,,60fda0b5ea8a7ac21b66863d,61036f21debbc760859cd3d1,2021-07-29_23h19.28.177,Simcolourproject_2stim_asymm_v5,2020.2.10,Win32,60,61025ae37ef11b136ea224fe,,,,,,,,,2227,77,-35,1,0,0,response3disk,,5,15,3,1,0,0,rectangle,15,3,1,0,0,15,3,1,0,0,0,6,6,35,1,,,,,,,,
,,,,,,,,,,,,,FF,,,,,,,,1.5784,,,,,,,,,,,,,,,,,,,,,,60fda0b5ea8a7ac21b66863d,61036f21debbc760859cd3d1,2021-07-29_23h19.28.177,Simcolourproject_2stim_asymm_v5,2020.2.10,Win32,60,61025ae37ef11b136ea224fe,,,,,,,,,839,-61,46,1,0,0,response7disk,,1,-4,-12,1,0,0,rectangle,-4,-12,1,0,0,-4,-12,1,0,0,0,7,7,40,1,,,,,,,,
,,,,,,,,,,,,,FF,,,,,,,,0.8512,,,,,,,,,,,,,,,,,,,,,,60fda0b5ea8a7ac21b66863d,61036f21debbc760859cd3d1,2021-07-29_23h19.28.177,Simcolourproject_2stim_asymm_v5,2020.2.10,Win32,60,61025ae37ef11b136ea224fe,,,,,,,,,1390,80,-34,1,0,0,response3disk,,5,16,-1,1,0,0,rectangle,16,-1,1,0,0,16,-1,1,0,0,0,8,8,52,1,,,,,,,,
,,,,,,,,,,,,,FF,,,,,,,,0.8715,,,,,,,,,,,,,,,,,,,,,,60fda0b5ea8a7ac21b66863d,61036f21debbc760859cd3d1,2021-07-29_23h19.28.177,Simcolourproject_2stim_asymm_v5,2020.2.10,Win32,60,61025ae37ef11b136ea224fe,,,,,,,,,894,79,-30,1,0,0,response3disk,,5,7,-4,1,0,0,rectangle,7,-4,1,0,0,7,-4,1,0,0,0,9,9,65,1,,,,,,,,
,,,,,,,,,,,,,FF,,,,,,,,1.5316,,,,,,,,,,,,,,,,,,,,,,60fda0b5ea8a7ac21b66863d,61036f21debbc760859cd3d1,2021-07-29_23h19.28.177,Simcolourproject_2stim_asymm_v5,2020.2.10,Win32,60,61025ae37ef11b136ea224fe,,,,,,,,,2867,-76,-29,1,0,0,response5disk,,2,-3,-7,1,0,0,rectangle,-3,-7,1,0,0,-3,-7,1,0,0,0,10,10,23,1,,,,,,,,
,,,,,,,,,,,,,FF,,,,,,,,1.817,,,,,,,,,,,,,,,,,,,,,,60fda0b5ea8a7ac21b66863d,61036f21debbc760859cd3d1,2021-07-29_23h19.28.177,Simcolourproject_2stim_asymm_v5,2020.2.10,Win32,60,61025ae37ef11b136ea224fe,,,,,,,,,1174,-37,67,1,0,0,response7disk,,0,-4,5,1,0,0,rectangle,-4,5,1,0,0,-4,5,1,0,0,0,11,11,56,1,,,,,,,,
,,,,,,,,,,,,,FF,,,,,,,,1.0544,,,,,,,,,,,,,,,,,,,,,,60fda0b5ea8a7ac21b66863d,61036f21debbc760859cd3d1,2021-07-29_23h19.28.177,Simcolourproject_2stim_asymm_v5,2020.2.10,Win32,60,61025ae37ef11b136ea224fe,,,,,,,,,1064,81,-23,1,0,0,response3disk,,5,19,3,1,0,0,rectangle,19,3,1,0,0,19,3,1,0,0,0,12,12,8,1,,,,,,,,
,,,,,,,,,,,,,FF,,,,,,,,2.5528,,,,,,,,,,,,,,,,,,,,,,60fda0b5ea8a7ac21b66863d,61036f21debbc760859cd3d1,2021-07-29_23h19.28.177,Simcolourproject_2stim_asymm_v5,2020.2.10,Win32,60,61025ae37ef11b136ea224fe,,,,,,,,,1109,-42,81,1,0,0,response7disk,,0,5,0,1,0,0,rectangle,5,0,1,0,0,5,0,1,0,0,0,13,13,157,1,,,,,,,,
,,,,,,,,,,,,,FF,,,,,,,,1.3516,,,,,,,,,,,,,,,,,,,,,,60fda0b5ea8a7ac21b66863d,61036f21debbc760859cd3d1,2021-07-29_23h19.28.177,Simcolourproject_2stim_asymm_v5,2020.2.10,Win32,60,61025ae37ef11b136ea224fe,,,,,,,,,1592,36,-63,1,0,0,response3disk,,4,12,-11,1,0,0,rectangle,12,-11,1,0,0,12,-11,1,0,0,0,14,14,16,1,,,,,,,,
,,,,,,,,,,,,,FF,,,,,,,,0.9658,,,,,,,,,,,,,,,,,,,,,,60fda0b5ea8a7ac21b66863d,61036f21debbc760859cd3d1,2021-07-29_23h19.28.177,Simcolourproject_2stim_asymm_v5,2020.2.10,Win32,60,61025ae37ef11b136ea224fe,,,,,,,,,1571,-33,79,1,0,0,response7disk,,0,1,-4,1,0,0,rectangle,1,-4,1,0,0,1,-4,1,0,0,0,15,15,82,1,,,,,,,,
,,,,,,,,,,,,,FF,,,,,,,,0.9436,,,,,,,,,,,,,,,,,,,,,,60fda0b5ea8a7ac21b66863d,61036f21debbc760859cd3d1,2021-07-29_23h19.28.177,Simcolourproject_2stim_asymm_v5,2020.2.10,Win32,60,61025ae37ef11b136ea224fe,,,,,,,,,2141,-39,71,1,0,0,response7disk,,0,-17,9,1,0,0,rectangle,-17,9,1,0,0,-17,9,1,0,0,0,16,16,37,1,,,,,,,,
,,,,,,,,,,,,,FF,,,,,,,,1.0858,,,,,,,,,,,,,,,,,,,,,,60fda0b5ea8a7ac21b66863d,61036f21debbc760859cd3d1,2021-07-29_23h19.28.177,Simcolourproject_2stim_asymm_v5,2020.2.10,Win32,60,61025ae37ef11b136ea224fe,,,,,,,,,3954,-37,61,1,0,0,response7disk,,0,-1,-4,1,0,0,rectangle,-1,-4,1,0,0,-1,-4,1,0,0,0,17,17,105,1,,,,,,,,
,,,,,,,,,,,,,FF,,,,,,,,0.8529,,,,,,,,,,,,,,,,,,,,,,60fda0b5ea8a7ac21b66863d,61036f21debbc760859cd3d1,2021-07-29_23h19.28.177,Simcolourproject_2stim_asymm_v5,2020.2.10,Win32,60,61025ae37ef11b136ea224fe,,,,,,,,,3984,-31,92,1,0,0,response7disk,,0,1,0,1,0,0,rectangle,1,0,1,0,0,1,0,1,0,0,0,18,18,153,1,,,,,,,,
,,,,,,,,,,,,,FF,,,,,,,,10.2351,,,,,,,,,,,,,,,,,,,,,,60fda0b5ea8a7ac21b66863d,61036f21debbc760859cd3d1,2021-07-29_23h19.28.177,Simcolourproject_2stim_asymm_v5,2020.2.10,Win32,60,61025ae37ef11b136ea224fe,,,,,,,,,408,-64,28,1,0,0,response7disk,,1,-9,-8,1,0,0,rectangle,-58,35,1,0,0,9,1,1,0,0,0,19,19,21,1,,response7disk_3,TRUE,1,1,"[123,188,212,49,51,304,311,42,274,101,223,20,168,38,170,60,68,259,194,53]",1.6848,rectangle
,,,,,,,,,,,,,FF,,,,,,,,1.7025,,,,,,,,,,,,,,,,,,,,,,60fda0b5ea8a7ac21b66863d,61036f21debbc760859cd3d1,2021-07-29_23h19.28.177,Simcolourproject_2stim_asymm_v5,2020.2.10,Win32,60,61025ae37ef11b136ea224fe,,,,,,,,,2491,-20,-86,1,0,0,response5disk,,3,-7,5,1,0,0,rectangle,-7,5,1,0,0,-7,5,1,0,0,0,20,20,116,1,,,,,,,,
,,,,,,,,,,,,,FF,,,,,,,,1.9032,,,,,,,,,,,,,,,,,,,,,,60fda0b5ea8a7ac21b66863d,61036f21debbc760859cd3d1,2021-07-29_23h19.28.177,Simcolourproject_2stim_asymm_v5,2020.2.10,Win32,60,61025ae37ef11b136ea224fe,,,,,,,,,3869,-32,-87,1,0,0,response5disk,,3,8,-1,1,0,0,rectangle,8,-1,1,0,0,8,-1,1,0,0,0,21,21,61,1,,,,,,,,
,,,,,,,,,,,,,FF,,,,,,,,1.0385,,,,,,,,,,,,,,,,,,,,,,60fda0b5ea8a7ac21b66863d,61036f21debbc760859cd3d1,2021-07-29_23h19.28.177,Simcolourproject_2stim_asymm_v5,2020.2.10,Win32,60,61025ae37ef11b136ea224fe,,,,,,,,,4280,30,78,1,0,0,response1disk,,7,3,4,1,0,0,rectangle,3,4,1,0,0,3,4,1,0,0,0,22,22,48,1,,,,,,,,
,,,,,,,,,,,,,FF,,,,,,,,1.7336,,,,,,,,,,,,,,,,,,,,,,60fda0b5ea8a7ac21b66863d,61036f21debbc760859cd3d1,2021-07-29_23h19.28.177,Simcolourproject_2stim_asymm_v5,2020.2.10,Win32,60,61025ae37ef11b136ea224fe,,,,,,,,,523,19,-107,1,0,0,response3disk,,4,4,11,1,0,0,rectangle,4,11,1,0,0,4,11,1,0,0,0,23,23,24,1,,,,,,,,
,,,,,,,,,,,,,FF,,,,,,,,1.0475,,,,,,,,,,,,,,,,,,,,,,60fda0b5ea8a7ac21b66863d,61036f21debbc760859cd3d1,2021-07-29_23h19.28.177,Simcolourproject_2stim_asymm_v5,2020.2.10,Win32,60,61025ae37ef11b136ea224fe,,,,,,,,,1849,-46,77,1,0,0,response7disk,,0,-17,2,1,0,0,rectangle,-17,2,1,0,0,-17,2,1,0,0,0,24,24,137,1,,,,,,,,
,,,,,,,,,,,,,FF,,,,,,,,1.0666,,,,,,,,,,,,,,,,,,,,,,60fda0b5ea8a7ac21b66863d,61036f21debbc760859cd3d1,2021-07-29_23h19.28.177,Simcolourproject_2stim_asymm_v5,2020.2.10,Win32,60,61025ae37ef11b136ea224fe,,,,,,,,,12,-83,38,1,0,0,response7disk,,1,-15,-2,1,0,0,rectangle,-15,-2,1,0,0,-15,-2,1,0,0,0,25,25,26,1,,,,,,,,
,,,,,,,,,,,,,FF,,,,,,,,1.2715,,,,,,,,,,,,,,,,,,,,,,60fda0b5ea8a7ac21b66863d,61036f21debbc760859cd3d1,2021-07-29_23h19.28.177,Simcolourproject_2stim_asymm_v5,2020.2.10,Win32,60,61025ae37ef11b136ea224fe,,,,,,,,,2582,-79,-59,1,0,0,response5disk,,2,-6,6,1,0,0,rectangle,-6,6,1,0,0,-6,6,1,0,0,0,26,26,19,1,,,,,,,,
,,,,,,,,,,,,,FF,,,,,,,,0.8338,,,,,,,,,,,,,,,,,,,,,,60fda0b5ea8a7ac21b66863d,61036f21debbc760859cd3d1,2021-07-29_23h19.28.177,Simcolourproject_2stim_asymm_v5,2020.2.10,Win32,60,61025ae37ef11b136ea224fe,,,,,,,,,2436,-82,-45,1,0,0,response5disk,,2,-9,5,1,0,0,rectangle,-9,5,1,0,0,-9,5,1,0,0,0,27,27,89,1,,,,,,,,
,,,,,,,,,,,,,FF,,,,,,,,0.7152,,,,,,,,,,,,,,,,,,,,,,60fda0b5ea8a7ac21b66863d,61036f21debbc760859cd3d1,2021-07-29_23h19.28.177,Simcolourproject_2stim_asymm_v5,2020.2.10,Win32,60,61025ae37ef11b136ea224fe,,,,,,,,,3129,-44,88,1,0,0,response7disk,,0,-4,6,1,0,0,rectangle,-4,6,1,0,0,-4,6,1,0,0,0,28,28,79,1,,,,,,,,
,,,,,,,,,,,,,FF,,,,,,,,1.2848,,,,,,,,,,,,,,,,,,,,,,60fda0b5ea8a7ac21b66863d,61036f21debbc760859cd3d1,2021-07-29_23h19.28.177,Simcolourproject_2stim_asymm_v5,2020.2.10,Win32,60,61025ae37ef11b136ea224fe,,,,,,,,,2764,-32,89,1,0,0,response7disk,,0,-12,9,1,0,0,rectangle,-12,9,1,0,0,-12,9,1,0,0,0,29,29,68,1,,,,,,,,
,,,,,,,,,,,,,FF,,,,,,,,1.1015,,,,,,,,,,,,,,,,,,,,,,60fda0b5ea8a7ac21b66863d,61036f21debbc760859cd3d1,2021-07-29_23h19.28.177,Simcolourproject_2stim_asymm_v5,2020.2.10,Win32,60,61025ae37ef11b136ea224fe,,,,,,,,,2727,-40,-71,1,0,0,response5disk,,3,-7,-11,1,0,0,rectangle,-7,-11,1,0,0,-7,-11,1,0,0,0,30,30,100,1,,,,,,,,
,,,,,,,,,,,,,FF,,,,,,,,0.903,,,,,,,,,,,,,,,,,,,,,,60fda0b5ea8a7ac21b66863d,61036f21debbc760859cd3d1,2021-07-29_23h19.28.177,Simcolourproject_2stim_asymm_v5,2020.2.10,Win32,60,61025ae37ef11b136ea224fe,,,,,,,,,590,-37,87,1,0,0,response7disk,,0,3,6,1,0,0,rectangle,3,6,1,0,0,3,6,1,0,0,0,31,31,2,1,,,,,,,,
,,,,,,,,,,,,,FF,,,,,,,,0.6177,,,,,,,,,,,,,,,,,,,,,,60fda0b5ea8a7ac21b66863d,61036f21debbc760859cd3d1,2021-07-29_23h19.28.177,Simcolourproject_2stim_asymm_v5,2020.2.10,Win32,60,61025ae37ef11b136ea224fe,,,,,,,,,1637,-27,71,1,0,0,response7disk,,0,2,2,1,0,0,rectangle,2,2,1,0,0,2,2,1,0,0,0,32,32,43,1,,,,,,,,
,,,,,,,,,,,,,FF,,,,,,,,0.8878,,,,,,,,,,,,,,,,,,,,,,60fda0b5ea8a7ac21b66863d,61036f21debbc760859cd3d1,2021-07-29_23h19.28.177,Simcolourproject_2stim_asymm_v5,2020.2.10,Win32,60,61025ae37ef11b136ea224fe,,,,,,,,,102,-70,31,1,0,0,response7disk,,1,8,-4,1,0,0,rectangle,8,-4,1,0,0,8,-4,1,0,0,0,33,33,120,1,,,,,,,,
,,,,,,,,,,,,,FF,,,,,,,,1.2685,,,,,,,,,,,,,,,,,,,,,,60fda0b5ea8a7ac21b66863d,61036f21debbc760859cd3d1,2021-07-29_23h19.28.177,Simcolourproject_2stim_asymm_v5,2020.2.10,Win32,60,61025ae37ef11b136ea224fe,,,,,,,,,3920,-28,-100,1,0,0,response5disk,,3,5,-1,1,0,0,rectangle,5,-1,1,0,0,5,-1,1,0,0,0,34,34,109,1,,,,,,,,
,,,,,,,,,,,,,FF,,,,,,,,0.8856,,,,,,,,,,,,,,,,,,,,,,60fda0b5ea8a7ac21b66863d,61036f21debbc760859cd3d1,2021-07-29_23h19.28.177,Simcolourproject_2stim_asymm_v5,2020.2.10,Win32,60,61025ae37ef11b136ea224fe,,,,,,,,,1133,53,-18,1,0,0,response3disk,,5,6,-2,1,0,0,rectangle,6,-2,1,0,0,6,-2,1,0,0,0,35,35,33,1,,,,,,,,
,,,,,,,,,,,,,FF,,,,,,,,1.1836,,,,,,,,,,,,,,,,,,,,,,60fda0b5ea8a7ac21b66863d,61036f21debbc760859cd3d1,2021-07-29_23h19.28.177,Simcolourproject_2stim_asymm_v5,2020.2.10,Win32,60,61025ae37ef11b136ea224fe,,,,,,,,,4205,73,63,1,0,0,response1disk,,6,-18,-4,1,0,0,rectangle,-18,-4,1,0,0,-18,-4,1,0,0,0,36,36,114,1,,,,,,,,
,,,,,,,,,,,,,FF,,,,,,,,0.6854,,,,,,,,,,,,,,,,,,,,,,60fda0b5ea8a7ac21b66863d,61036f21debbc760859cd3d1,2021-07-29_23h19.28.177,Simcolourproject_2stim_asymm_v5,2020.2.10,Win32,60,61025ae37ef11b136ea224fe,,,,,,,,,4079,-34,58,1,0,0,response7disk,,0,7,6,1,0,0,rectangle,-65,22,1,0,0,1,3,1,0,0,0,37,37,54,1,,response7disk_3,TRUE,1,1,"[123,188,212,49,51,304,311,42,274,101,223,20,168,38,170,60,68,259,194,53]",1.7202,rectangle
,,,,,,,,,,,,,FF,,,,,,,,1.4945,,,,,,,,,,,,,,,,,,,,,,60fda0b5ea8a7ac21b66863d,61036f21debbc760859cd3d1,2021-07-29_23h19.28.177,Simcolourproject_2stim_asymm_v5,2020.2.10,Win32,60,61025ae37ef11b136ea224fe,,,,,,,,,2800,-85,-45,1,0,0,response5disk,,2,-4,-9,1,0,0,rectangle,-4,-9,1,0,0,-4,-9,1,0,0,0,38,38,154,1,,,,,,,,
,,,,,,,,,,,,,FF,,,,,,,,1.0839,,,,,,,,,,,,,,,,,,,,,,60fda0b5ea8a7ac21b66863d,61036f21debbc760859cd3d1,2021-07-29_23h19.28.177,Simcolourproject_2stim_asymm_v5,2020.2.10,Win32,60,61025ae37ef11b136ea224fe,,,,,,,,,961,-30,-60,1,0,0,response5disk,,3,-18,5,1,0,0,rectangle,-18,5,1,0,0,-18,5,1,0,0,0,39,39,38,1,,,,,,,,
,,,,,,,,,,,,,FF,,,,,,,,1.1694,,,,,,,,,,,,,,,,,,,,,,60fda0b5ea8a7ac21b66863d,61036f21debbc760859cd3d1,2021-07-29_23h19.28.177,Simcolourproject_2stim_asymm_v5,2020.2.10,Win32,60,61025ae37ef11b136ea224fe,,,,,,,,,1057,92,-37,1,0,0,response3disk,,5,2,-2,1,0,0,rectangle,2,-2,1,0,0,2,-2,1,0,0,0,40,40,12,1,,,,,,,,
,,,,,,,,,,,,,FF,,,,,,,,1.7015,,,,,,,,,,,,,,,,,,,,,,60fda0b5ea8a7ac21b66863d,61036f21debbc760859cd3d1,2021-07-29_23h19.28.177,Simcolourproject_2stim_asymm_v5,2020.2.10,Win32,60,61025ae37ef11b136ea224fe,,,,,,,,,996,30,-58,1,0,0,response3disk,,4,5,-14,1,0,0,rectangle,60,99,1,0,0,12,-3,1,0,0,0,41,41,126,1,,response1disk_3,TRUE,7,7,"[123,188,212,49,51,304,311,42,274,101,223,20,168,38,170,60,68,259,194,53]",1.8254,rectangle
,,,,,,,,,,,,,FF,,,,,,,,1.0533,,,,,,,,,,,,,,,,,,,,,,60fda0b5ea8a7ac21b66863d,61036f21debbc760859cd3d1,2021-07-29_23h19.28.177,Simcolourproject_2stim_asymm_v5,2020.2.10,Win32,60,61025ae37ef11b136ea224fe,,,,,,,,,2187,47,-64,1,0,0,response3disk,,4,-3,3,1,0,0,rectangle,-3,3,1,0,0,-3,3,1,0,0,0,42,42,96,1,,,,,,,,
,,,,,,,,,,,,,FF,,,,,,,,0.6845,,,,,,,,,,,,,,,,,,,,,,60fda0b5ea8a7ac21b66863d,61036f21debbc760859cd3d1,2021-07-29_23h19.28.177,Simcolourproject_2stim_asymm_v5,2020.2.10,Win32,60,61025ae37ef11b136ea224fe,,,,,,,,,3019,-35,68,1,0,0,response7disk,,0,0,12,1,0,0,rectangle,0,12,1,0,0,0,12,1,0,0,0,43,43,80,1,,,,,,,,
,,,,,,,,,,,,,FF,,,,,,,,1.1147,,,,,,,,,,,,,,,,,,,,,,60fda0b5ea8a7ac21b66863d,61036f21debbc760859cd3d1,2021-07-29_23h19.28.177,Simcolourproject_2stim_asymm_v5,2020.2.10,Win32,60,61025ae37ef11b136ea224fe,,,,,,,,,4319,-68,-40,1,0,0,response5disk,,2,3,-1,1,0,0,rectangle,3,-1,1,0,0,3,-1,1,0,0,0,44,44,44,1,,,,,,,,
,,,,,,,,,,,,,FF,,,,,,,,1.2178,,,,,,,,,,,,,,,,,,,,,,60fda0b5ea8a7ac21b66863d,61036f21debbc760859cd3d1,2021-07-29_23h19.28.177,Simcolourproject_2stim_asymm_v5,2020.2.10,Win32,60,61025ae37ef11b136ea224fe,,,,,,,,,3867,-30,57,1,0,0,response7disk,,0,-3,-13,1,0,0,rectangle,-3,-13,1,0,0,-3,-13,1,0,0,0,45,45,62,1,,,,,,,,
,,,,,,,,,,,,,FF,,,,,,,,0.7065,,,,,,,,,,,,,,,,,,,,,,60fda0b5ea8a7ac21b66863d,61036f21debbc760859cd3d1,2021-07-29_23h19.28.177,Simcolourproject_2stim_asymm_v5,2020.2.10,Win32,60,61025ae37ef11b136ea224fe,,,,,,,,,862,-87,-36,1,0,0,response5disk,,2,-20,-7,1,0,0,rectangle,-20,-7,1,0,0,-20,-7,1,0,0,0,46,46,127,1,,,,,,,,
,,,,,,,,,,,,,FF,,,,,,,,0.7679,,,,,,,,,,,,,,,,,,,,,,60fda0b5ea8a7ac21b66863d,61036f21debbc760859cd3d1,2021-07-29_23h19.28.177,Simcolourproject_2stim_asymm_v5,2020.2.10,Win32,60,61025ae37ef11b136ea224fe,,,,,,,,,3618,-30,63,1,0,0,response7disk,,0,-11,12,1,0,0,rectangle,-11,12,1,0,0,-11,12,1,0,0,0,47,47,97,1,,,,,,,,
,,,,,,,,,,,,,FF,,,,,,,,0.7027,,,,,,,,,,,,,,,,,,,,,,60fda0b5ea8a7ac21b66863d,61036f21debbc760859cd3d1,2021-07-29_23h19.28.177,Simcolourproject_2stim_asymm_v5,2020.2.10,Win32,60,61025ae37ef11b136ea224fe,,,,,,,,,2803,-31,71,1,0,0,response7disk,,0,-5,7,1,0,0,rectangle,99,-36,1,0,0,17,15,1,0,0,0,48,48,73,1,,response3disk_3,TRUE,5,5,"[123,188,212,49,51,304,311,42,274,101,223,20,168,38,170,60,68,259,194,53]",1.6682,rectangle
,,,,,,,,,,,,,FF,,,,,,,,0.7035,,,,,,,,,,,,,,,,,,,,,,60fda0b5ea8a7ac21b66863d,61036f21debbc760859cd3d1,2021-07-29_23h19.28.177,Simcolourproject_2stim_asymm_v5,2020.2.10,Win32,60,61025ae37ef11b136ea224fe,,,,,,,,,3379,-31,71,1,0,0,response7disk,,0,-14,9,1,0,0,rectangle,-14,9,1,0,0,-14,9,1,0,0,0,49,49,111,1,,,,,,,,
,,,,,,,,,,,,,FF,,,,,,,,0.7865,,,,,,,,,,,,,,,,,,,,,,60fda0b5ea8a7ac21b66863d,61036f21debbc760859cd3d1,2021-07-29_23h19.28.177,Simcolourproject_2stim_asymm_v5,2020.2.10,Win32,60,61025ae37ef11b136ea224fe,,,,,,,,,1384,63,-29,1,0,0,response3disk,,5,15,3,1,0,0,rectangle,-97,-49,1,0,0,-10,-2,1,0,0,0,50,50,98,1,,response5disk_3,TRUE,2,2,"[123,188,212,49,51,304,311,42,274,101,223,20,168,38,170,60,68,259,194,53]",1.6147,rectangle
,,,,,,,,,,,,,FF,,,,,,,,0.7172,,,,,,,,,,,,,,,,,,,,,,60fda0b5ea8a7ac21b66863d,61036f21debbc760859cd3d1,2021-07-29_23h19.28.177,Simcolourproject_2stim_asymm_v5,2020.2.10,Win32,60,61025ae37ef11b136ea224fe,,,,,,,,,2061,-36,66,1,0,0,response7disk,,0,1,-13,1,0,0,rectangle,1,-13,1,0,0,1,-13,1,0,0,0,51,51,136,1,,,,,,,,
,,,,,,,,,,,,,FF,,,,,,,,1.2509,,,,,,,,,,,,,,,,,,,,,,60fda0b5ea8a7ac21b66863d,61036f21debbc760859cd3d1,2021-07-29_23h19.28.177,Simcolourproject_2stim_asymm_v5,2020.2.10,Win32,60,61025ae37ef11b136ea224fe,,,,,,,,,695,-92,-30,1,0,0,response5disk,,2,-16,-9,1,0,0,rectangle,-67,-37,1,0,0,-5,1,1,0,0,0,52,52,152,1,,response5disk_3,TRUE,2,2,"[123,188,212,49,51,304,311,42,274,101,223,20,168,38,170,60,68,259,194,53]",1.5429,rectangle
,,,,,,,,,,,,,FF,,,,,,,,1.6726,,,,,,,,,,,,,,,,,,,,,,60fda0b5ea8a7ac21b66863d,61036f21debbc760859cd3d1,2021-07-29_23h19.28.177,Simcolourproject_2stim_asymm_v5,2020.2.10,Win32,60,61025ae37ef11b136ea224fe,,,,,,,,,3979,28,-92,1,0,0,response3disk,,4,14,-1,1,0,0,rectangle,14,-1,1,0,0,14,-1,1,0,0,0,53,53,135,1,,,,,,,,
,,,,,,,,,,,,,FF,,,,,,,,0.8483,,,,,,,,,,,,,,,,,,,,,,60fda0b5ea8a7ac21b66863d,61036f21debbc760859cd3d1,2021-07-29_23h19.28.177,Simcolourproject_2stim_asymm_v5,2020.2.10,Win32,60,61025ae37ef11b136ea224fe,,,,,,,,,1504,-31,73,1,0,0,response7disk,,0,3,-8,1,0,0,rectangle,3,-8,1,0,0,3,-8,1,0,0,0,54,54,139,1,,,,,,,,
,,,,,,,,,,,,,FF,,,,,,,,1.3825,,,,,,,,,,,,,,,,,,,,,,60fda0b5ea8a7ac21b66863d,61036f21debbc760859cd3d1,2021-07-29_23h19.28.177,Simcolourproject_2stim_asymm_v5,2020.2.10,Win32,60,61025ae37ef11b136ea224fe,,,,,,,,,1890,72,-38,1,0,0,response3disk,,5,25,-2,1,0,0,rectangle,25,-2,1,0,0,25,-2,1,0,0,0,55,55,148,1,,,,,,,,
,,,,,,,,,,,,,FF,,,,,,,,1.0036,,,,,,,,,,,,,,,,,,,,,,60fda0b5ea8a7ac21b66863d,61036f21debbc760859cd3d1,2021-07-29_23h19.28.177,Simcolourproject_2stim_asymm_v5,2020.2.10,Win32,60,61025ae37ef11b136ea224fe,,,,,,,,,1993,-31,64,1,0,0,response7disk,,0,-8,8,1,0,0,rectangle,-8,8,1,0,0,-8,8,1,0,0,0,56,56,69,1,,,,,,,,
,,,,,,,,,,,,,FF,,,,,,,,1.2648,,,,,,,,,,,,,,,,,,,,,,60fda0b5ea8a7ac21b66863d,61036f21debbc760859cd3d1,2021-07-29_23h19.28.177,Simcolourproject_2stim_asymm_v5,2020.2.10,Win32,60,61025ae37ef11b136ea224fe,,,,,,,,,387,44,-74,1,0,0,response3disk,,4,9,-5,1,0,0,rectangle,9,-5,1,0,0,9,-5,1,0,0,0,57,57,122,1,,,,,,,,
,,,,,,,,,,,,,FF,,,,,,,,0.7366,,,,,,,,,,,,,,,,,,,,,,60fda0b5ea8a7ac21b66863d,61036f21debbc760859cd3d1,2021-07-29_23h19.28.177,Simcolourproject_2stim_asymm_v5,2020.2.10,Win32,60,61025ae37ef11b136ea224fe,,,,,,,,,1760,76,-32,1,0,0,response3disk,,5,9,-7,1,0,0,rectangle,9,-7,1,0,0,9,-7,1,0,0,0,58,58,11,1,,,,,,,,
,,,,,,,,,,,,,FF,,,,,,,,1.2506,,,,,,,,,,,,,,,,,,,,,,60fda0b5ea8a7ac21b66863d,61036f21debbc760859cd3d1,2021-07-29_23h19.28.177,Simcolourproject_2stim_asymm_v5,2020.2.10,Win32,60,61025ae37ef11b136ea224fe,,,,,,,,,2656,43,-71,1,0,0,response3disk,,4,8,15,1,0,0,rectangle,42,-75,1,0,0,10,-5,1,0,0,0,59,59,28,1,,response3disk_3,TRUE,4,4,"[123,188,212,49,51,304,311,42,274,101,223,20,168,38,170,60,68,259,194,53]",1.1182,rectangle
,,,,,,,,,,,,,FF,,,,,,,,0.7364,,,,,,,,,,,,,,,,,,,,,,60fda0b5ea8a7ac21b66863d,61036f21debbc760859cd3d1,2021-07-29_23h19.28.177,Simcolourproject_2stim_asymm_v5,2020.2.10,Win32,60,61025ae37ef11b136ea224fe,,,,,,,,,434,-23,83,1,0,0,response7disk,,0,0,-4,1,0,0,rectangle,0,-4,1,0,0,0,-4,1,0,0,0,60,60,71,1,,,,,,,,
,,,,,,,,,,,,,FF,,,,,,,,1.519,,,,,,,,,,,,,,,,,,,,,,60fda0b5ea8a7ac21b66863d,61036f21debbc760859cd3d1,2021-07-29_23h19.28.177,Simcolourproject_2stim_asymm_v5,2020.2.10,Win32,60,61025ae37ef11b136ea224fe,,,,,,,,,2218,68,-30,1,0,0,response3disk,,5,13,0,1,0,0,rectangle,13,0,1,0,0,13,0,1,0,0,0,61,61,147,1,,,,,,,,
,,,,,,,,,,,,,FF,,,,,,,,1.2338,,,,,,,,,,,,,,,,,,,,,,60fda0b5ea8a7ac21b66863d,61036f21debbc760859cd3d1,2021-07-29_23h19.28.177,Simcolourproject_2stim_asymm_v5,2020.2.10,Win32,60,61025ae37ef11b136ea224fe,,,,,,,,,397,-25,-61,1,0,0,response5disk,,3,-7,11,1,0,0,rectangle,-7,11,1,0,0,-7,11,1,0,0,0,62,62,22,1,,,,,,,,
,,,,,,,,,,,,,FF,,,,,,,,0.6358,,,,,,,,,,,,,,,,,,,,,,60fda0b5ea8a7ac21b66863d,61036f21debbc760859cd3d1,2021-07-29_23h19.28.177,Simcolourproject_2stim_asymm_v5,2020.2.10,Win32,60,61025ae37ef11b136ea224fe,,,,,,,,,3495,-48,84,1,0,0,response7disk,,0,1,-2,1,0,0,rectangle,1,-2,1,0,0,1,-2,1,0,0,0,63,63,7,1,,,,,,,,
,,,,,,,,,,,,,FF,,,,,,,,0.9673,,,,,,,,,,,,,,,,,,,,,,60fda0b5ea8a7ac21b66863d,61036f21debbc760859cd3d1,2021-07-29_23h19.28.177,Simcolourproject_2stim_asymm_v5,2020.2.10,Win32,60,61025ae37ef11b136ea224fe,,,,,,,,,2357,58,-34,1,0,0,response3disk,,5,5,6,1,0,0,rectangle,5,6,1,0,0,5,6,1,0,0,0,64,64,110,1,,,,,,,,
,,,,,,,,,,,,,FF,,,,,,,,0.6854,,,,,,,,,,,,,,,,,,,,,,60fda0b5ea8a7ac21b66863d,61036f21debbc760859cd3d1,2021-07-29_23h19.28.177,Simcolourproject_2stim_asymm_v5,2020.2.10,Win32,60,61025ae37ef11b136ea224fe,,,,,,,,,332,-32,102,1,0,0,response7disk,,0,5,-6,1,0,0,rectangle,5,-6,1,0,0,5,-6,1,0,0,0,65,65,99,1,,,,,,,,
,,,,,,,,,,,,,FF,,,,,,,,0.7334,,,,,,,,,,,,,,,,,,,,,,60fda0b5ea8a7ac21b66863d,61036f21debbc760859cd3d1,2021-07-29_23h19.28.177,Simcolourproject_2stim_asymm_v5,2020.2.10,Win32,60,61025ae37ef11b136ea224fe,,,,,,,,,1938,-25,52,1,0,0,response7disk,,0,0,-9,1,0,0,rectangle,0,-9,1,0,0,0,-9,1,0,0,0,66,66,55,1,,,,,,,,
,,,,,,,,,,,,,FF,,,,,,,,0.4497,,,,,,,,,,,,,,,,,,,,,,60fda0b5ea8a7ac21b66863d,61036f21debbc760859cd3d1,2021-07-29_23h19.28.177,Simcolourproject_2stim_asymm_v5,2020.2.10,Win32,60,61025ae37ef11b136ea224fe,,,,,,,,,1428,-22,41,1,0,0,response7disk,,0,3,-5,1,0,0,rectangle,-41,-66,1,0,0,19,8,1,0,0,0,67,67,34,1,,response5disk_3,TRUE,3,3,"[123,188,212,49,51,304,311,42,274,101,223,20,168,38,170,60,68,259,194,53]",1.4321,rectangle
,,,,,,,,,,,,,FF,,,,,,,,1.0524,,,,,,,,,,,,,,,,,,,,,,60fda0b5ea8a7ac21b66863d,61036f21debbc760859cd3d1,2021-07-29_23h19.28.177,Simcolourproject_2stim_asymm_v5,2020.2.10,Win32,60,61025ae37ef11b136ea224fe,,,,,,,,,534,-26,69,1,0,0,response7disk,,0,-13,11,1,0,0,rectangle,-13,11,1,0,0,-13,11,1,0,0,0,68,68,30,1,,,,,,,,
,,,,,,,,,,,,,FF,,,,,,,,0.8514,,,,,,,,,,,,,,,,,,,,,,60fda0b5ea8a7ac21b66863d,61036f21debbc760859cd3d1,2021-07-29_23h19.28.177,Simcolourproject_2stim_asymm_v5,2020.2.10,Win32,60,61025ae37ef11b136ea224fe,,,,,,,,,1597,60,37,1,0,0,response1disk,,6,19,6,1,0,0,rectangle,19,6,1,0,0,19,6,1,0,0,0,69,69,50,1,,,,,,,,
,,,,,,,,,,,,,FF,,,,,,,,0.9543,,,,,,,,,,,,,,,,,,,,,,60fda0b5ea8a7ac21b66863d,61036f21debbc760859cd3d1,2021-07-29_23h19.28.177,Simcolourproject_2stim_asymm_v5,2020.2.10,Win32,60,61025ae37ef11b136ea224fe,,,,,,,,,2,103,33,1,0,0,response1disk,,6,29,14,1,0,0,rectangle,29,14,1,0,0,29,14,1,0,0,0,70,70,6,1,,,,,,,,
,,,,,,,,,,,,,FF,,,,,,,,1.319,,,,,,,,,,,,,,,,,,,,,,60fda0b5ea8a7ac21b66863d,61036f21debbc760859cd3d1,2021-07-29_23h19.28.177,Simcolourproject_2stim_asymm_v5,2020.2.10,Win32,60,61025ae37ef11b136ea224fe,,,,,,,,,2553,45,-52,1,0,0,response3disk,,4,13,-13,1,0,0,rectangle,13,-13,1,0,0,13,-13,1,0,0,0,71,71,104,1,,,,,,,,
,,,,,,,,,,,,,FF,,,,,,,,0.6876,,,,,,,,,,,,,,,,,,,,,,60fda0b5ea8a7ac21b66863d,61036f21debbc760859cd3d1,2021-07-29_23h19.28.177,Simcolourproject_2stim_asymm_v5,2020.2.10,Win32,60,61025ae37ef11b136ea224fe,,,,,,,,,1788,-27,58,1,0,0,response7disk,,0,-2,6,1,0,0,rectangle,-2,6,1,0,0,-2,6,1,0,0,0,72,72,117,1,,,,,,,,
,,,,,,,,,,,,,FF,,,,,,,,0.8382,,,,,,,,,,,,,,,,,,,,,,60fda0b5ea8a7ac21b66863d,61036f21debbc760859cd3d1,2021-07-29_23h19.28.177,Simcolourproject_2stim_asymm_v5,2020.2.10,Win32,60,61025ae37ef11b136ea224fe,,,,,,,,,2209,-33,87,1,0,0,response7disk,,0,11,-9,1,0,0,rectangle,11,-9,1,0,0,11,-9,1,0,0,0,73,73,123,1,,,,,,,,
,,,,,,,,,,,,,FF,,,,,,,,0.6577,,,,,,,,,,,,,,,,,,,,,,60fda0b5ea8a7ac21b66863d,61036f21debbc760859cd3d1,2021-07-29_23h19.28.177,Simcolourproject_2stim_asymm_v5,2020.2.10,Win32,60,61025ae37ef11b136ea224fe,,,,,,,,,1717,-28,68,1,0,0,response7disk,,0,3,-8,1,0,0,rectangle,3,-8,1,0,0,3,-8,1,0,0,0,74,74,31,1,,,,,,,,
,,,,,,,,,,,,,FF,,,,,,,,1.4359,,,,,,,,,,,,,,,,,,,,,,60fda0b5ea8a7ac21b66863d,61036f21debbc760859cd3d1,2021-07-29_23h19.28.177,Simcolourproject_2stim_asymm_v5,2020.2.10,Win32,60,61025ae37ef11b136ea224fe,,,,,,,,,141,-80,41,1,0,0,response7disk,,1,-6,1,1,0,0,rectangle,-6,1,1,0,0,-6,1,1,0,0,0,75,75,1,1,,,,,,,,
,,,,,,,,,,,,,FF,,,,,,,,0.6879,,,,,,,,,,,,,,,,,,,,,,60fda0b5ea8a7ac21b66863d,61036f21debbc760859cd3d1,2021-07-29_23h19.28.177,Simcolourproject_2stim_asymm_v5,2020.2.10,Win32,60,61025ae37ef11b136ea224fe,,,,,,,,,318,-22,46,1,0,0,response7disk,,0,-5,2,1,0,0,rectangle,-5,2,1,0,0,-5,2,1,0,0,0,76,76,27,1,,,,,,,,
,,,,,,,,,,,,,FF,,,,,,,,0.4709,,,,,,,,,,,,,,,,,,,,,,60fda0b5ea8a7ac21b66863d,61036f21debbc760859cd3d1,2021-07-29_23h19.28.177,Simcolourproject_2stim_asymm_v5,2020.2.10,Win32,60,61025ae37ef11b136ea224fe,,,,,,,,,4037,-28,38,1,0,0,response7disk,,0,4,-8,1,0,0,rectangle,4,-8,1,0,0,4,-8,1,0,0,0,77,77,141,1,,,,,,,,
,,,,,,,,,,,,,FF,,,,,,,,0.5196,,,,,,,,,,,,,,,,,,,,,,60fda0b5ea8a7ac21b66863d,61036f21debbc760859cd3d1,2021-07-29_23h19.28.177,Simcolourproject_2stim_asymm_v5,2020.2.10,Win32,60,61025ae37ef11b136ea224fe,,,,,,,,,790,-41,88,1,0,0,response7disk,,0,2,-8,1,0,0,rectangle,2,-8,1,0,0,2,-8,1,0,0,0,78,78,158,1,,,,,,,,
,,,,,,,,,,,,,FF,,,,,,,,0.5215,,,,,,,,,,,,,,,,,,,,,,60fda0b5ea8a7ac21b66863d,61036f21debbc760859cd3d1,2021-07-29_23h19.28.177,Simcolourproject_2stim_asymm_v5,2020.2.10,Win32,60,61025ae37ef11b136ea224fe,,,,,,,,,2624,-30,61,1,0,0,response7disk,,0,-8,-4,1,0,0,rectangle,-8,-4,1,0,0,-8,-4,1,0,0,0,79,79,87,1,,,,,,,,
,,,,,,,,,,,,,FF,,,,,,,,1.4172,,,,,,,,,,,,,,,,,,,,,,60fda0b5ea8a7ac21b66863d,61036f21debbc760859cd3d1,2021-07-29_23h19.28.177,Simcolourproject_2stim_asymm_v5,2020.2.10,Win32,60,61025ae37ef11b136ea224fe,,,,,,,,,1470,36,-84,1,0,0,response3disk,,4,-12,-2,1,0,0,rectangle,-12,-2,1,0,0,-12,-2,1,0,0,0,80,80,101,1,,,,,,,,
,,,,,,,,,,,,,FF,,,,,,,,0.4737,,,,,,,,,,,,,,,,,,,,,,60fda0b5ea8a7ac21b66863d,61036f21debbc760859cd3d1,2021-07-29_23h19.28.177,Simcolourproject_2stim_asymm_v5,2020.2.10,Win32,60,61025ae37ef11b136ea224fe,,,,,,,,,2190,-59,71,1,0,0,response7disk,,0,-1,-13,1,0,0,rectangle,-1,-13,1,0,0,-1,-13,1,0,0,0,81,81,64,1,,,,,,,,
,,,,,,,,,,,,,FF,,,,,,,,0.4396,,,,,,,,,,,,,,,,,,,,,,60fda0b5ea8a7ac21b66863d,61036f21debbc760859cd3d1,2021-07-29_23h19.28.177,Simcolourproject_2stim_asymm_v5,2020.2.10,Win32,60,61025ae37ef11b136ea224fe,,,,,,,,,33,-35,39,1,0,0,response7disk,,0,-11,13,1,0,0,rectangle,-11,13,1,0,0,-11,13,1,0,0,0,82,82,75,1,,,,,,,,
,,,,,,,,,,,,,FF,,,,,,,,1.7512,,,,,,,,,,,,,,,,,,,,,,60fda0b5ea8a7ac21b66863d,61036f21debbc760859cd3d1,2021-07-29_23h19.28.177,Simcolourproject_2stim_asymm_v5,2020.2.10,Win32,60,61025ae37ef11b136ea224fe,,,,,,,,,2329,-29,57,1,0,0,response7disk,,0,-5,9,1,0,0,rectangle,-5,9,1,0,0,-5,9,1,0,0,0,83,83,115,1,,,,,,,,
,,,,,,,,,,,,,FF,,,,,,,,2.0685,,,,,,,,,,,,,,,,,,,,,,60fda0b5ea8a7ac21b66863d,61036f21debbc760859cd3d1,2021-07-29_23h19.28.177,Simcolourproject_2stim_asymm_v5,2020.2.10,Win32,60,61025ae37ef11b136ea224fe,,,,,,,,,1436,-49,-42,1,0,0,response5disk,,2,-8,-7,1,0,0,rectangle,-8,-7,1,0,0,-8,-7,1,0,0,0,84,84,159,1,,,,,,,,
,,,,,,,,,,,,,FF,,,,,,,,0.6185,,,,,,,,,,,,,,,,,,,,,,60fda0b5ea8a7ac21b66863d,61036f21debbc760859cd3d1,2021-07-29_23h19.28.177,Simcolourproject_2stim_asymm_v5,2020.2.10,Win32,60,61025ae37ef11b136ea224fe,,,,,,,,,4014,-41,69,1,0,0,response7disk,,0,-12,13,1,0,0,rectangle,-12,13,1,0,0,-12,13,1,0,0,0,85,85,156,1,,,,,,,,
,,,,,,,,,,,,,FF,,,,,,,,0.5863,,,,,,,,,,,,,,,,,,,,,,60fda0b5ea8a7ac21b66863d,61036f21debbc760859cd3d1,2021-07-29_23h19.28.177,Simcolourproject_2stim_asymm_v5,2020.2.10,Win32,60,61025ae37ef11b136ea224fe,,,,,,,,,3461,-22,59,1,0,0,response7disk,,0,-6,5,1,0,0,rectangle,-6,5,1,0,0,-6,5,1,0,0,0,86,86,134,1,,,,,,,,
,,,,,,,,,,,,,FF,,,,,,,,2.0864,,,,,,,,,,,,,,,,,,,,,,60fda0b5ea8a7ac21b66863d,61036f21debbc760859cd3d1,2021-07-29_23h19.28.177,Simcolourproject_2stim_asymm_v5,2020.2.10,Win32,60,61025ae37ef11b136ea224fe,,,,,,,,,432,38,-75,1,0,0,response3disk,,4,19,-5,1,0,0,rectangle,19,-5,1,0,0,19,-5,1,0,0,0,87,87,149,1,,,,,,,,
,,,,,,,,,,,,,FF,,,,,,,,0.9533,,,,,,,,,,,,,,,,,,,,,,60fda0b5ea8a7ac21b66863d,61036f21debbc760859cd3d1,2021-07-29_23h19.28.177,Simcolourproject_2stim_asymm_v5,2020.2.10,Win32,60,61025ae37ef11b136ea224fe,,,,,,,,,2633,-24,54,1,0,0,response7disk,,0,3,10,1,0,0,rectangle,3,10,1,0,0,3,10,1,0,0,0,88,88,78,1,,,,,,,,
,,,,,,,,,,,,,FF,,,,,,,,0.9336,,,,,,,,,,,,,,,,,,,,,,60fda0b5ea8a7ac21b66863d,61036f21debbc760859cd3d1,2021-07-29_23h19.28.177,Simcolourproject_2stim_asymm_v5,2020.2.10,Win32,60,61025ae37ef11b136ea224fe,,,,,,,,,3370,-33,90,1,0,0,response7disk,,0,-24,-4,1,0,0,rectangle,-24,-4,1,0,0,-24,-4,1,0,0,0,89,89,121,1,,,,,,,,
,,,,,,,,,,,,,FF,,,,,,,,1.2854,,,,,,,,,,,,,,,,,,,,,,60fda0b5ea8a7ac21b66863d,61036f21debbc760859cd3d1,2021-07-29_23h19.28.177,Simcolourproject_2stim_asymm_v5,2020.2.10,Win32,60,61025ae37ef11b136ea224fe,,,,,,,,,1477,-79,20,1,0,0,response7disk,,1,-28,10,1,0,0,rectangle,-28,10,1,0,0,-28,10,1,0,0,0,90,90,51,1,,,,,,,,
,,,,,,,,,,,,,FF,,,,,,,,0.555,,,,,,,,,,,,,,,,,,,,,,60fda0b5ea8a7ac21b66863d,61036f21debbc760859cd3d1,2021-07-29_23h19.28.177,Simcolourproject_2stim_asymm_v5,2020.2.10,Win32,60,61025ae37ef11b136ea224fe,,,,,,,,,2705,-34,55,1,0,0,response7disk,,0,-6,1,1,0,0,rectangle,-6,1,1,0,0,-6,1,1,0,0,0,91,91,138,1,,,,,,,,
,,,,,,,,,,,,,FF,,,,,,,,1.0152,,,,,,,,,,,,,,,,,,,,,,60fda0b5ea8a7ac21b66863d,61036f21debbc760859cd3d1,2021-07-29_23h19.28.177,Simcolourproject_2stim_asymm_v5,2020.2.10,Win32,60,61025ae37ef11b136ea224fe,,,,,,,,,3465,-68,24,1,0,0,response7disk,,1,-13,-3,1,0,0,rectangle,-13,-3,1,0,0,-13,-3,1,0,0,0,92,92,140,1,,,,,,,,
,,,,,,,,,,,,,FF,,,,,,,,0.9835,,,,,,,,,,,,,,,,,,,,,,60fda0b5ea8a7ac21b66863d,61036f21debbc760859cd3d1,2021-07-29_23h19.28.177,Simcolourproject_2stim_asymm_v5,2020.2.10,Win32,60,61025ae37ef11b136ea224fe,,,,,,,,,1529,88,-36,1,0,0,response3disk,,5,11,-3,1,0,0,rectangle,11,-3,1,0,0,11,-3,1,0,0,0,93,93,132,1,,,,,,,,
,,,,,,,,,,,,,FF,,,,,,,,0.5186,,,,,,,,,,,,,,,,,,,,,,60fda0b5ea8a7ac21b66863d,61036f21debbc760859cd3d1,2021-07-29_23h19.28.177,Simcolourproject_2stim_asymm_v5,2020.2.10,Win32,60,61025ae37ef11b136ea224fe,,,,,,,,,2692,-33,55,1,0,0,response7disk,,0,-9,-10,1,0,0,rectangle,-9,-10,1,0,0,-9,-10,1,0,0,0,94,94,66,1,,,,,,,,
,,,,,,,,,,,,,FF,,,,,,,,0.5172,,,,,,,,,,,,,,,,,,,,,,60fda0b5ea8a7ac21b66863d,61036f21debbc760859cd3d1,2021-07-29_23h19.28.177,Simcolourproject_2stim_asymm_v5,2020.2.10,Win32,60,61025ae37ef11b136ea224fe,,,,,,,,,344,-35,54,1,0,0,response7disk,,0,-4,-9,1,0,0,rectangle,-4,-9,1,0,0,-4,-9,1,0,0,0,95,95,95,1,,,,,,,,
,,,,,,,,,,,,,FF,,,,,,,,0.5809,,,,,,,,,,,,,,,,,,,,,,60fda0b5ea8a7ac21b66863d,61036f21debbc760859cd3d1,2021-07-29_23h19.28.177,Simcolourproject_2stim_asymm_v5,2020.2.10,Win32,60,61025ae37ef11b136ea224fe,,,,,,,,,2766,-20,48,1,0,0,response7disk,,0,0,-2,1,0,0,rectangle,0,-2,1,0,0,0,-2,1,0,0,0,96,96,88,1,,,,,,,,
,,,,,,,,,,,,,FF,,,,,,,,1.0367,,,,,,,,,,,,,,,,,,,,,,60fda0b5ea8a7ac21b66863d,61036f21debbc760859cd3d1,2021-07-29_23h19.28.177,Simcolourproject_2stim_asymm_v5,2020.2.10,Win32,60,61025ae37ef11b136ea224fe,,,,,,,,,3745,-47,-19,1,0,0,response5disk,,2,-1,-3,1,0,0,rectangle,-1,-3,1,0,0,-1,-3,1,0,0,0,97,97,47,1,,,,,,,,
,,,,,,,,,,,,,FF,,,,,,,,1.3013,,,,,,,,,,,,,,,,,,,,,,60fda0b5ea8a7ac21b66863d,61036f21debbc760859cd3d1,2021-07-29_23h19.28.177,Simcolourproject_2stim_asymm_v5,2020.2.10,Win32,60,61025ae37ef11b136ea224fe,,,,,,,,,5,-37,-20,1,0,0,response5disk,,2,6,13,1,0,0,rectangle,6,13,1,0,0,6,13,1,0,0,0,98,98,118,1,,,,,,,,
,,,,,,,,,,,,,FF,,,,,,,,1.0204,,,,,,,,,,,,,,,,,,,,,,60fda0b5ea8a7ac21b66863d,61036f21debbc760859cd3d1,2021-07-29_23h19.28.177,Simcolourproject_2stim_asymm_v5,2020.2.10,Win32,60,61025ae37ef11b136ea224fe,,,,,,,,,1518,54,-61,1,0,0,response3disk,,4,16,2,1,0,0,rectangle,16,2,1,0,0,16,2,1,0,0,0,99,99,150,1,,,,,,,,
,,,,,,,,,,,,,FF,,,,,,,,1.2988,,,,,,,,,,,,,,,,,,,,,,60fda0b5ea8a7ac21b66863d,61036f21debbc760859cd3d1,2021-07-29_23h19.28.177,Simcolourproject_2stim_asymm_v5,2020.2.10,Win32,60,61025ae37ef11b136ea224fe,,,,,,,,,501,-61,50,1,0,0,response7disk,,1,-12,-4,1,0,0,rectangle,-71,-32,1,0,0,4,-13,1,0,0,0,100,100,14,1,,response5disk_3,TRUE,2,2,"[123,188,212,49,51,304,311,42,274,101,223,20,168,38,170,60,68,259,194,53]",1.7044,rectangle
,,,,,,,,,,,,,FF,,,,,,,,2.7996,,,,,,,,,,,,,,,,,,,,,,60fda0b5ea8a7ac21b66863d,61036f21debbc760859cd3d1,2021-07-29_23h19.28.177,Simcolourproject_2stim_asymm_v5,2020.2.10,Win32,60,61025ae37ef11b136ea224fe,,,,,,,,,1594,107,-68,1,0,0,response3disk,,5,-10,11,1,0,0,rectangle,-10,11,1,0,0,-10,11,1,0,0,0,101,101,103,1,,,,,,,,
,,,,,,,,,,,,,FF,,,,,,,,0.6673,,,,,,,,,,,,,,,,,,,,,,60fda0b5ea8a7ac21b66863d,61036f21debbc760859cd3d1,2021-07-29_23h19.28.177,Simcolourproject_2stim_asymm_v5,2020.2.10,Win32,60,61025ae37ef11b136ea224fe,,,,,,,,,3540,-33,84,1,0,0,response7disk,,0,-16,-2,1,0,0,rectangle,-16,-2,1,0,0,-16,-2,1,0,0,0,102,102,58,1,,,,,,,,
,,,,,,,,,,,,,FF,,,,,,,,1.437,,,,,,,,,,,,,,,,,,,,,,60fda0b5ea8a7ac21b66863d,61036f21debbc760859cd3d1,2021-07-29_23h19.28.177,Simcolourproject_2stim_asymm_v5,2020.2.10,Win32,60,61025ae37ef11b136ea224fe,,,,,,,,,64,-28,51,1,0,0,response7disk,,0,-5,-4,1,0,0,rectangle,-5,-4,1,0,0,-5,-4,1,0,0,0,103,103,10,1,,,,,,,,
,,,,,,,,,,,,,FF,,,,,,,,1.8347,,,,,,,,,,,,,,,,,,,,,,60fda0b5ea8a7ac21b66863d,61036f21debbc760859cd3d1,2021-07-29_23h19.28.177,Simcolourproject_2stim_asymm_v5,2020.2.10,Win32,60,61025ae37ef11b136ea224fe,,,,,,,,,686,42,-67,1,0,0,response3disk,,4,4,12,1,0,0,rectangle,4,12,1,0,0,4,12,1,0,0,0,104,104,125,1,,,,,,,,
,,,,,,,,,,,,,FF,,,,,,,,3.2196,,,,,,,,,,,,,,,,,,,,,,60fda0b5ea8a7ac21b66863d,61036f21debbc760859cd3d1,2021-07-29_23h19.28.177,Simcolourproject_2stim_asymm_v5,2020.2.10,Win32,60,61025ae37ef11b136ea224fe,,,,,,,,,4359,-86,-44,1,0,0,response5disk,,2,-3,12,1,0,0,rectangle,-3,12,1,0,0,-3,12,1,0,0,0,105,105,119,1,,,,,,,,
,,,,,,,,,,,,,FF,,,,,,,,1.0075,,,,,,,,,,,,,,,,,,,,,,60fda0b5ea8a7ac21b66863d,61036f21debbc760859cd3d1,2021-07-29_23h19.28.177,Simcolourproject_2stim_asymm_v5,2020.2.10,Win32,60,61025ae37ef11b136ea224fe,,,,,,,,,367,75,-27,1,0,0,response3disk,,5,25,0,1,0,0,rectangle,25,0,1,0,0,25,0,1,0,0,0,106,106,146,1,,,,,,,,
,,,,,,,,,,,,,FF,,,,,,,,2.5343,,,,,,,,,,,,,,,,,,,,,,60fda0b5ea8a7ac21b66863d,61036f21debbc760859cd3d1,2021-07-29_23h19.28.177,Simcolourproject_2stim_asymm_v5,2020.2.10,Win32,60,61025ae37ef11b136ea224fe,,,,,,,,,742,-42,-91,1,0,0,response5disk,,3,-15,-7,1,0,0,rectangle,-15,-7,1,0,0,-15,-7,1,0,0,0,107,107,151,1,,,,,,,,
,,,,,,,,,,,,,FF,,,,,,,,1.5575,,,,,,,,,,,,,,,,,,,,,,60fda0b5ea8a7ac21b66863d,61036f21debbc760859cd3d1,2021-07-29_23h19.28.177,Simcolourproject_2stim_asymm_v5,2020.2.10,Win32,60,61025ae37ef11b136ea224fe,,,,,,,,,1986,-26,-80,1,0,0,response5disk,,3,7,15,1,0,0,rectangle,7,15,1,0,0,7,15,1,0,0,0,108,108,131,1,,,,,,,,
,,,,,,,,,,,,,FF,,,,,,,,1.0762,,,,,,,,,,,,,,,,,,,,,,60fda0b5ea8a7ac21b66863d,61036f21debbc760859cd3d1,2021-07-29_23h19.28.177,Simcolourproject_2stim_asymm_v5,2020.2.10,Win32,60,61025ae37ef11b136ea224fe,,,,,,,,,2932,82,-49,1,0,0,response3disk,,5,6,3,1,0,0,rectangle,6,3,1,0,0,6,3,1,0,0,0,109,109,86,1,,,,,,,,
,,,,,,,,,,,,,FF,,,,,,,,1.233,,,,,,,,,,,,,,,,,,,,,,60fda0b5ea8a7ac21b66863d,61036f21debbc760859cd3d1,2021-07-29_23h19.28.177,Simcolourproject_2stim_asymm_v5,2020.2.10,Win32,60,61025ae37ef11b136ea224fe,,,,,,,,,1290,28,67,1,0,0,response1disk,,7,20,6,1,0,0,rectangle,20,6,1,0,0,20,6,1,0,0,0,110,110,57,1,,,,,,,,
,,,,,,,,,,,,,FF,,,,,,,,0.7365,,,,,,,,,,,,,,,,,,,,,,60fda0b5ea8a7ac21b66863d,61036f21debbc760859cd3d1,2021-07-29_23h19.28.177,Simcolourproject_2stim_asymm_v5,2020.2.10,Win32,60,61025ae37ef11b136ea224fe,,,,,,,,,3963,-25,73,1,0,0,response7disk,,0,-2,11,1,0,0,rectangle,-2,11,1,0,0,-2,11,1,0,0,0,111,111,133,1,,,,,,,,
,,,,,,,,,,,,,FF,,,,,,,,1.2002,,,,,,,,,,,,,,,,,,,,,,60fda0b5ea8a7ac21b66863d,61036f21debbc760859cd3d1,2021-07-29_23h19.28.177,Simcolourproject_2stim_asymm_v5,2020.2.10,Win32,60,61025ae37ef11b136ea224fe,,,,,,,,,1299,94,-49,1,0,0,response3disk,,5,13,-5,1,0,0,rectangle,13,-5,1,0,0,13,-5,1,0,0,0,112,112,128,1,,,,,,,,
,,,,,,,,,,,,,FF,,,,,,,,0.5868,,,,,,,,,,,,,,,,,,,,,,60fda0b5ea8a7ac21b66863d,61036f21debbc760859cd3d1,2021-07-29_23h19.28.177,Simcolourproject_2stim_asymm_v5,2020.2.10,Win32,60,61025ae37ef11b136ea224fe,,,,,,,,,3953,-35,75,1,0,0,response7disk,,0,3,-7,1,0,0,rectangle,3,-7,1,0,0,3,-7,1,0,0,0,113,113,72,1,,,,,,,,
,,,,,,,,,,,,,FF,,,,,,,,0.8362,,,,,,,,,,,,,,,,,,,,,,60fda0b5ea8a7ac21b66863d,61036f21debbc760859cd3d1,2021-07-29_23h19.28.177,Simcolourproject_2stim_asymm_v5,2020.2.10,Win32,60,61025ae37ef11b136ea224fe,,,,,,,,,1157,-42,-71,1,0,0,response5disk,,3,7,3,1,0,0,rectangle,7,3,1,0,0,7,3,1,0,0,0,114,114,70,1,,,,,,,,
,,,,,,,,,,,,,FF,,,,,,,,0.6336,,,,,,,,,,,,,,,,,,,,,,60fda0b5ea8a7ac21b66863d,61036f21debbc760859cd3d1,2021-07-29_23h19.28.177,Simcolourproject_2stim_asymm_v5,2020.2.10,Win32,60,61025ae37ef11b136ea224fe,,,,,,,,,3456,-29,70,1,0,0,response7disk,,0,2,6,1,0,0,rectangle,2,6,1,0,0,2,6,1,0,0,0,115,115,102,1,,,,,,,,
,,,,,,,,,,,,,FF,,,,,,,,0.719,,,,,,,,,,,,,,,,,,,,,,60fda0b5ea8a7ac21b66863d,61036f21debbc760859cd3d1,2021-07-29_23h19.28.177,Simcolourproject_2stim_asymm_v5,2020.2.10,Win32,60,61025ae37ef11b136ea224fe,,,,,,,,,1410,-23,65,1,0,0,response7disk,,0,6,2,1,0,0,rectangle,6,2,1,0,0,6,2,1,0,0,0,116,116,142,1,,,,,,,,
,,,,,,,,,,,,,FF,,,,,,,,0.4674,,,,,,,,,,,,,,,,,,,,,,60fda0b5ea8a7ac21b66863d,61036f21debbc760859cd3d1,2021-07-29_23h19.28.177,Simcolourproject_2stim_asymm_v5,2020.2.10,Win32,60,61025ae37ef11b136ea224fe,,,,,,,,,2640,-29,73,1,0,0,response7disk,,0,0,1,1,0,0,rectangle,0,1,1,0,0,0,1,1,0,0,0,117,117,63,1,,,,,,,,
,,,,,,,,,,,,,FF,,,,,,,,0.8875,,,,,,,,,,,,,,,,,,,,,,60fda0b5ea8a7ac21b66863d,61036f21debbc760859cd3d1,2021-07-29_23h19.28.177,Simcolourproject_2stim_asymm_v5,2020.2.10,Win32,60,61025ae37ef11b136ea224fe,,,,,,,,,1307,26,-62,1,0,0,response3disk,,4,4,-15,1,0,0,rectangle,4,-15,1,0,0,4,-15,1,0,0,0,118,118,129,1,,,,,,,,
,,,,,,,,,,,,,FF,,,,,,,,1.2672,,,,,,,,,,,,,,,,,,,,,,60fda0b5ea8a7ac21b66863d,61036f21debbc760859cd3d1,2021-07-29_23h19.28.177,Simcolourproject_2stim_asymm_v5,2020.2.10,Win32,60,61025ae37ef11b136ea224fe,,,,,,,,,1803,-63,40,1,0,0,response7disk,,1,-2,-4,1,0,0,rectangle,-2,-4,1,0,0,-2,-4,1,0,0,0,119,119,81,1,,,,,,,,
,,,,,,,,,,,,,FF,,,,,,,,1.0051,,,,,,,,,,,,,,,,,,,,,,60fda0b5ea8a7ac21b66863d,61036f21debbc760859cd3d1,2021-07-29_23h19.28.177,Simcolourproject_2stim_asymm_v5,2020.2.10,Win32,60,61025ae37ef11b136ea224fe,,,,,,,,,1346,-46,68,1,0,0,response7disk,,0,-10,1,1,0,0,rectangle,-10,1,1,0,0,-10,1,1,0,0,0,120,120,5,1,,,,,,,,
,,,,,,,,,,,,,FF,,,,,,,,1.6498,,,,,,,,,,,,,,,,,,,,,,60fda0b5ea8a7ac21b66863d,61036f21debbc760859cd3d1,2021-07-29_23h19.28.177,Simcolourproject_2stim_asymm_v5,2020.2.10,Win32,60,61025ae37ef11b136ea224fe,,,,,,,,,1700,-54,71,1,0,0,response7disk,,0,-11,-2,1,0,0,rectangle,-11,-2,1,0,0,-11,-2,1,0,0,0,121,121,106,1,,,,,,,,
,,,,,,,,,,,,,FF,,,,,,,,1.3175,,,,,,,,,,,,,,,,,,,,,,60fda0b5ea8a7ac21b66863d,61036f21debbc760859cd3d1,2021-07-29_23h19.28.177,Simcolourproject_2stim_asymm_v5,2020.2.10,Win32,60,61025ae37ef11b136ea224fe,,,,,,,,,882,-79,-34,1,0,0,response5disk,,2,-7,-3,1,0,0,rectangle,95,-49,1,0,0,9,-2,1,0,0,0,122,122,9,1,,response3disk_3,TRUE,5,5,"[123,188,212,49,51,304,311,42,274,101,223,20,168,38,170,60,68,259,194,53]",1.4837,rectangle
,,,,,,,,,,,,,FF,,,,,,,,0.7872,,,,,,,,,,,,,,,,,,,,,,60fda0b5ea8a7ac21b66863d,61036f21debbc760859cd3d1,2021-07-29_23h19.28.177,Simcolourproject_2stim_asymm_v5,2020.2.10,Win32,60,61025ae37ef11b136ea224fe,,,,,,,,,931,-27,50,1,0,0,response7disk,,0,-2,-7,1,0,0,rectangle,-2,-7,1,0,0,-2,-7,1,0,0,0,123,123,42,1,,,,,,,,
,,,,,,,,,,,,,FF,,,,,,,,1.3016,,,,,,,,,,,,,,,,,,,,,,60fda0b5ea8a7ac21b66863d,61036f21debbc760859cd3d1,2021-07-29_23h19.28.177,Simcolourproject_2stim_asymm_v5,2020.2.10,Win32,60,61025ae37ef11b136ea224fe,,,,,,,,,4357,71,-42,1,0,0,response3disk,,5,15,-14,1,0,0,rectangle,15,-14,1,0,0,15,-14,1,0,0,0,124,124,130,1,,,,,,,,
,,,,,,,,,,,,,FF,,,,,,,,1.0304,,,,,,,,,,,,,,,,,,,,,,60fda0b5ea8a7ac21b66863d,61036f21debbc760859cd3d1,2021-07-29_23h19.28.177,Simcolourproject_2stim_asymm_v5,2020.2.10,Win32,60,61025ae37ef11b136ea224fe,,,,,,,,,1386,72,31,1,0,0,response1disk,,6,7,-2,1,0,0,rectangle,7,-2,1,0,0,7,-2,1,0,0,0,125,125,29,1,,,,,,,,
,,,,,,,,,,,,,FF,,,,,,,,1.2875,,,,,,,,,,,,,,,,,,,,,,60fda0b5ea8a7ac21b66863d,61036f21debbc760859cd3d1,2021-07-29_23h19.28.177,Simcolourproject_2stim_asymm_v5,2020.2.10,Win32,60,61025ae37ef11b136ea224fe,,,,,,,,,2051,-35,-91,1,0,0,response5disk,,3,6,-2,1,0,0,rectangle,6,-2,1,0,0,6,-2,1,0,0,0,126,126,94,1,,,,,,,,
,,,,,,,,,,,,,FF,,,,,,,,1.0817,,,,,,,,,,,,,,,,,,,,,,60fda0b5ea8a7ac21b66863d,61036f21debbc760859cd3d1,2021-07-29_23h19.28.177,Simcolourproject_2stim_asymm_v5,2020.2.10,Win32,60,61025ae37ef11b136ea224fe,,,,,,,,,3908,52,-72,1,0,0,response3disk,,4,25,5,1,0,0,rectangle,25,5,1,0,0,25,5,1,0,0,0,127,127,15,1,,,,,,,,
,,,,,,,,,,,,,FF,,,,,,,,0.773,,,,,,,,,,,,,,,,,,,,,,60fda0b5ea8a7ac21b66863d,61036f21debbc760859cd3d1,2021-07-29_23h19.28.177,Simcolourproject_2stim_asymm_v5,2020.2.10,Win32,60,61025ae37ef11b136ea224fe,,,,,,,,,2842,-30,52,1,0,0,response7disk,,0,-1,13,1,0,0,rectangle,-1,13,1,0,0,-1,13,1,0,0,0,128,128,113,1,,,,,,,,
,,,,,,,,,,,,,FF,,,,,,,,1.669,,,,,,,,,,,,,,,,,,,,,,60fda0b5ea8a7ac21b66863d,61036f21debbc760859cd3d1,2021-07-29_23h19.28.177,Simcolourproject_2stim_asymm_v5,2020.2.10,Win32,60,61025ae37ef11b136ea224fe,,,,,,,,,4116,-86,-48,1,0,0,response5disk,,2,5,5,1,0,0,rectangle,5,5,1,0,0,5,5,1,0,0,0,129,129,0,1,,,,,,,,
,,,,,,,,,,,,,FF,,,,,,,,1.5505,,,,,,,,,,,,,,,,,,,,,,60fda0b5ea8a7ac21b66863d,61036f21debbc760859cd3d1,2021-07-29_23h19.28.177,Simcolourproject_2stim_asymm_v5,2020.2.10,Win32,60,61025ae37ef11b136ea224fe,,,,,,,,,2945,87,-35,1,0,0,response3disk,,5,26,2,1,0,0,rectangle,26,2,1,0,0,26,2,1,0,0,0,130,130,46,1,,,,,,,,
,,,,,,,,,,,,,FF,,,,,,,,0.867,,,,,,,,,,,,,,,,,,,,,,60fda0b5ea8a7ac21b66863d,61036f21debbc760859cd3d1,2021-07-29_23h19.28.177,Simcolourproject_2stim_asymm_v5,2020.2.10,Win32,60,61025ae37ef11b136ea224fe,,,,,,,,,1667,96,35,1,0,0,response1disk,,6,-1,-8,1,0,0,rectangle,-1,-8,1,0,0,-1,-8,1,0,0,0,131,131,124,1,,,,,,,,
,,,,,,,,,,,,,FF,,,,,,,,1.1327,,,,,,,,,,,,,,,,,,,,,,60fda0b5ea8a7ac21b66863d,61036f21debbc760859cd3d1,2021-07-29_23h19.28.177,Simcolourproject_2stim_asymm_v5,2020.2.10,Win32,60,61025ae37ef11b136ea224fe,,,,,,,,,3938,85,59,1,0,0,response1disk,,6,20,-4,1,0,0,rectangle,20,-4,1,0,0,20,-4,1,0,0,0,132,132,83,1,,,,,,,,
,,,,,,,,,,,,,FF,,,,,,,,0.7188,,,,,,,,,,,,,,,,,,,,,,60fda0b5ea8a7ac21b66863d,61036f21debbc760859cd3d1,2021-07-29_23h19.28.177,Simcolourproject_2stim_asymm_v5,2020.2.10,Win32,60,61025ae37ef11b136ea224fe,,,,,,,,,3616,-24,72,1,0,0,response7disk,,0,10,3,1,0,0,rectangle,10,3,1,0,0,10,3,1,0,0,0,133,133,18,1,,,,,,,,
,,,,,,,,,,,,,FF,,,,,,,,0.7526,,,,,,,,,,,,,,,,,,,,,,60fda0b5ea8a7ac21b66863d,61036f21debbc760859cd3d1,2021-07-29_23h19.28.177,Simcolourproject_2stim_asymm_v5,2020.2.10,Win32,60,61025ae37ef11b136ea224fe,,,,,,,,,130,-31,79,1,0,0,response7disk,,0,16,-15,1,0,0,rectangle,16,-15,1,0,0,16,-15,1,0,0,0,134,134,144,1,,,,,,,,
,,,,,,,,,,,,,FF,,,,,,,,1.0662,,,,,,,,,,,,,,,,,,,,,,60fda0b5ea8a7ac21b66863d,61036f21debbc760859cd3d1,2021-07-29_23h19.28.177,Simcolourproject_2stim_asymm_v5,2020.2.10,Win32,60,61025ae37ef11b136ea224fe,,,,,,,,,1478,-48,63,1,0,0,response7disk,,0,-5,-1,1,0,0,rectangle,-5,-1,1,0,0,-5,-1,1,0,0,0,135,135,84,1,,,,,,,,
,,,,,,,,,,,,,FF,,,,,,,,0.6519,,,,,,,,,,,,,,,,,,,,,,60fda0b5ea8a7ac21b66863d,61036f21debbc760859cd3d1,2021-07-29_23h19.28.177,Simcolourproject_2stim_asymm_v5,2020.2.10,Win32,60,61025ae37ef11b136ea224fe,,,,,,,,,4139,-30,65,1,0,0,response7disk,,0,2,6,1,0,0,rectangle,2,6,1,0,0,2,6,1,0,0,0,136,136,13,1,,,,,,,,
,,,,,,,,,,,,,FF,,,,,,,,0.617,,,,,,,,,,,,,,,,,,,,,,60fda0b5ea8a7ac21b66863d,61036f21debbc760859cd3d1,2021-07-29_23h19.28.177,Simcolourproject_2stim_asymm_v5,2020.2.10,Win32,60,61025ae37ef11b136ea224fe,,,,,,,,,3803,-23,68,1,0,0,response7disk,,0,11,10,1,0,0,rectangle,11,10,1,0,0,11,10,1,0,0,0,137,137,90,1,,,,,,,,
,,,,,,,,,,,,,FF,,,,,,,,0.9398,,,,,,,,,,,,,,,,,,,,,,60fda0b5ea8a7ac21b66863d,61036f21debbc760859cd3d1,2021-07-29_23h19.28.177,Simcolourproject_2stim_asymm_v5,2020.2.10,Win32,60,61025ae37ef11b136ea224fe,,,,,,,,,63,-43,-67,1,0,0,response5disk,,3,4,10,1,0,0,rectangle,4,10,1,0,0,4,10,1,0,0,0,138,138,143,1,,,,,,,,
,,,,,,,,,,,,,FF,,,,,,,,1.7366,,,,,,,,,,,,,,,,,,,,,,60fda0b5ea8a7ac21b66863d,61036f21debbc760859cd3d1,2021-07-29_23h19.28.177,Simcolourproject_2stim_asymm_v5,2020.2.10,Win32,60,61025ae37ef11b136ea224fe,,,,,,,,,2037,92,-20,1,0,0,response3disk,,5,22,0,1,0,0,rectangle,22,0,1,0,0,22,0,1,0,0,0,139,139,108,1,,,,,,,,
,,,,,,,,,,,,,FF,,,,,,,,0.9533,,,,,,,,,,,,,,,,,,,,,,60fda0b5ea8a7ac21b66863d,61036f21debbc760859cd3d1,2021-07-29_23h19.28.177,Simcolourproject_2stim_asymm_v5,2020.2.10,Win32,60,61025ae37ef11b136ea224fe,,,,,,,,,188,76,21,1,0,0,response1disk,,6,12,-2,1,0,0,rectangle,12,-2,1,0,0,12,-2,1,0,0,0,140,140,76,1,,,,,,,,
,,,,,,,,,,,,,FF,,,,,,,,0.783,,,,,,,,,,,,,,,,,,,,,,60fda0b5ea8a7ac21b66863d,61036f21debbc760859cd3d1,2021-07-29_23h19.28.177,Simcolourproject_2stim_asymm_v5,2020.2.10,Win32,60,61025ae37ef11b136ea224fe,,,,,,,,,2345,-36,69,1,0,0,response7disk,,0,-2,-5,1,0,0,rectangle,-2,-5,1,0,0,-2,-5,1,0,0,0,141,141,67,1,,,,,,,,
,,,,,,,,,,,,,FF,,,,,,,,1.5006,,,,,,,,,,,,,,,,,,,,,,60fda0b5ea8a7ac21b66863d,61036f21debbc760859cd3d1,2021-07-29_23h19.28.177,Simcolourproject_2stim_asymm_v5,2020.2.10,Win32,60,61025ae37ef11b136ea224fe,,,,,,,,,320,-17,58,1,0,0,response7disk,,0,-9,4,1,0,0,rectangle,-9,4,1,0,0,-9,4,1,0,0,0,142,142,32,1,,,,,,,,
,,,,,,,,,,,,,FF,,,,,,,,2.2874,,,,,,,,,,,,,,,,,,,,,,60fda0b5ea8a7ac21b66863d,61036f21debbc760859cd3d1,2021-07-29_23h19.28.177,Simcolourproject_2stim_asymm_v5,2020.2.10,Win32,60,61025ae37ef11b136ea224fe,,,,,,,,,1365,93,-40,1,0,0,response3disk,,5,18,12,1,0,0,rectangle,18,12,1,0,0,18,12,1,0,0,0,143,143,39,1,,,,,,,,
,,,,,,,,,,,,,FF,,,,,,,,0.5849,,,,,,,,,,,,,,,,,,,,,,60fda0b5ea8a7ac21b66863d,61036f21debbc760859cd3d1,2021-07-29_23h19.28.177,Simcolourproject_2stim_asymm_v5,2020.2.10,Win32,60,61025ae37ef11b136ea224fe,,,,,,,,,3528,-41,85,1,0,0,response7disk,,0,5,-10,1,0,0,rectangle,5,-10,1,0,0,5,-10,1,0,0,0,144,144,155,1,,,,,,,,
,,,,,,,,,,,,,FF,,,,,,,,0.4557,,,,,,,,,,,,,,,,,,,,,,60fda0b5ea8a7ac21b66863d,61036f21debbc760859cd3d1,2021-07-29_23h19.28.177,Simcolourproject_2stim_asymm_v5,2020.2.10,Win32,60,61025ae37ef11b136ea224fe,,,,,,,,,412,-27,73,1,0,0,response7disk,,0,-2,-10,1,0,0,rectangle,-2,-10,1,0,0,-2,-10,1,0,0,0,145,145,4,1,,,,,,,,
,,,,,,,,,,,,,FF,,,,,,,,0.7681,,,,,,,,,,,,,,,,,,,,,,60fda0b5ea8a7ac21b66863d,61036f21debbc760859cd3d1,2021-07-29_23h19.28.177,Simcolourproject_2stim_asymm_v5,2020.2.10,Win32,60,61025ae37ef11b136ea224fe,,,,,,,,,1534,83,-51,1,0,0,response3disk,,5,20,-3,1,0,0,rectangle,20,-3,1,0,0,20,-3,1,0,0,0,146,146,36,1,,,,,,,,
,,,,,,,,,,,,,FF,,,,,,,,0.5167,,,,,,,,,,,,,,,,,,,,,,60fda0b5ea8a7ac21b66863d,61036f21debbc760859cd3d1,2021-07-29_23h19.28.177,Simcolourproject_2stim_asymm_v5,2020.2.10,Win32,60,61025ae37ef11b136ea224fe,,,,,,,,,123,-29,67,1,0,0,response7disk,,0,1,11,1,0,0,rectangle,1,11,1,0,0,1,11,1,0,0,0,147,147,59,1,,,,,,,,
,,,,,,,,,,,,,FF,,,,,,,,0.9032,,,,,,,,,,,,,,,,,,,,,,60fda0b5ea8a7ac21b66863d,61036f21debbc760859cd3d1,2021-07-29_23h19.28.177,Simcolourproject_2stim_asymm_v5,2020.2.10,Win32,60,61025ae37ef11b136ea224fe,,,,,,,,,2853,-32,58,1,0,0,response7disk,,0,13,7,1,0,0,rectangle,13,7,1,0,0,13,7,1,0,0,0,148,148,17,1,,,,,,,,
,,,,,,,,,,,,,FF,,,,,,,,0.4693,,,,,,,,,,,,,,,,,,,,,,60fda0b5ea8a7ac21b66863d,61036f21debbc760859cd3d1,2021-07-29_23h19.28.177,Simcolourproject_2stim_asymm_v5,2020.2.10,Win32,60,61025ae37ef11b136ea224fe,,,,,,,,,41,-17,66,1,0,0,response7disk,,0,1,9,1,0,0,rectangle,1,9,1,0,0,1,9,1,0,0,0,149,149,93,1,,,,,,,,
,,,,,,,,,,,,,FF,,,,,,,,1.1011,,,,,,,,,,,,,,,,,,,,,,60fda0b5ea8a7ac21b66863d,61036f21debbc760859cd3d1,2021-07-29_23h19.28.177,Simcolourproject_2stim_asymm_v5,2020.2.10,Win32,60,61025ae37ef11b136ea224fe,,,,,,,,,2769,-50,-92,1,0,0,response5disk,,3,-8,10,1,0,0,rectangle,-8,10,1,0,0,-8,10,1,0,0,0,150,150,53,1,,,,,,,,
,,,,,,,,,,,,,FF,,,,,,,,0.5338,,,,,,,,,,,,,,,,,,,,,,60fda0b5ea8a7ac21b66863d,61036f21debbc760859cd3d1,2021-07-29_23h19.28.177,Simcolourproject_2stim_asymm_v5,2020.2.10,Win32,60,61025ae37ef11b136ea224fe,,,,,,,,,4093,-39,50,1,0,0,response7disk,,0,-1,-1,1,0,0,rectangle,-1,-1,1,0,0,-1,-1,1,0,0,0,151,151,91,1,,,,,,,,
,,,,,,,,,,,,,FF,,,,,,,,0.8874,,,,,,,,,,,,,,,,,,,,,,60fda0b5ea8a7ac21b66863d,61036f21debbc760859cd3d1,2021-07-29_23h19.28.177,Simcolourproject_2stim_asymm_v5,2020.2.10,Win32,60,61025ae37ef11b136ea224fe,,,,,,,,,2099,101,26,1,0,0,response1disk,,6,14,-1,1,0,0,rectangle,14,-1,1,0,0,14,-1,1,0,0,0,152,152,74,1,,,,,,,,
,,,,,,,,,,,,,FF,,,,,,,,1.2005,,,,,,,,,,,,,,,,,,,,,,60fda0b5ea8a7ac21b66863d,61036f21debbc760859cd3d1,2021-07-29_23h19.28.177,Simcolourproject_2stim_asymm_v5,2020.2.10,Win32,60,61025ae37ef11b136ea224fe,,,,,,,,,2551,37,-78,1,0,0,response3disk,,4,1,0,1,0,0,rectangle,1,0,1,0,0,1,0,1,0,0,0,153,153,145,1,,,,,,,,
,,,,,,,,,,,,,FF,,,,,,,,0.7174,,,,,,,,,,,,,,,,,,,,,,60fda0b5ea8a7ac21b66863d,61036f21debbc760859cd3d1,2021-07-29_23h19.28.177,Simcolourproject_2stim_asymm_v5,2020.2.10,Win32,60,61025ae37ef11b136ea224fe,,,,,,,,,968,43,101,1,0,0,response1disk,,7,5,3,1,0,0,rectangle,5,3,1,0,0,5,3,1,0,0,0,154,154,85,1,,,,,,,,
,,,,,,,,,,,,,FF,,,,,,,,1.3688,,,,,,,,,,,,,,,,,,,,,,60fda0b5ea8a7ac21b66863d,61036f21debbc760859cd3d1,2021-07-29_23h19.28.177,Simcolourproject_2stim_asymm_v5,2020.2.10,Win32,60,61025ae37ef11b136ea224fe,,,,,,,,,3507,-61,-47,1,0,0,response5disk,,2,-7,3,1,0,0,rectangle,-7,3,1,0,0,-7,3,1,0,0,0,155,155,112,1,,,,,,,,
,,,,,,,,,,,,,FF,,,,,,,,1.4724,,,,,,,,,,,,,,,,,,,,,,60fda0b5ea8a7ac21b66863d,61036f21debbc760859cd3d1,2021-07-29_23h19.28.177,Simcolourproject_2stim_asymm_v5,2020.2.10,Win32,60,61025ae37ef11b136ea224fe,,,,,,,,,895,-34,-67,1,0,0,response5disk,,3,-1,1,1,0,0,rectangle,-1,1,1,0,0,-1,1,1,0,0,0,156,156,3,1,,,,,,,,
,,,,,,,,,,,,,FF,,,,,,,,0.5866,,,,,,,,,,,,,,,,,,,,,,60fda0b5ea8a7ac21b66863d,61036f21debbc760859cd3d1,2021-07-29_23h19.28.177,Simcolourproject_2stim_asymm_v5,2020.2.10,Win32,60,61025ae37ef11b136ea224fe,,,,,,,,,2282,-30,57,1,0,0,response7disk,,0,12,-15,1,0,0,rectangle,12,-15,1,0,0,12,-15,1,0,0,0,157,157,60,1,,,,,,,,
,,,,,,,,,,,,,FF,,,,,,,,0.5155,,,,,,,,,,,,,,,,,,,,,,60fda0b5ea8a7ac21b66863d,61036f21debbc760859cd3d1,2021-07-29_23h19.28.177,Simcolourproject_2stim_asymm_v5,2020.2.10,Win32,60,61025ae37ef11b136ea224fe,,,,,,,,,3120,-25,38,1,0,0,response7disk,,0,-5,-1,1,0,0,rectangle,-5,-1,1,0,0,-5,-1,1,0,0,0,158,158,49,1,,,,,,,,
,,,,,,,,,,,,,FF,,,,,,,,1.2685,,,,,,,,,,,,,,,,,,,,,,60fda0b5ea8a7ac21b66863d,61036f21debbc760859cd3d1,2021-07-29_23h19.28.177,Simcolourproject_2stim_asymm_v5,2020.2.10,Win32,60,61025ae37ef11b136ea224fe,,,,,,,,,8,-25,-90,1,0,0,response5disk,,3,-8,10,1,0,0,rectangle,-8,10,1,0,0,-8,10,1,0,0,0,159,159,77,1,,,,,,,,
,,,,,,,,,,,,,FF,,,,,,,,1.3168,,,,,,,,,,,,,,,,,,,,,,60fda0b5ea8a7ac21b66863d,61036f21debbc760859cd3d1,2021-07-29_23h19.28.177,Simcolourproject_2stim_asymm_v5,2020.2.10,Win32,60,61025ae37ef11b136ea224fe,,,,,,,,,3810,54,96,1,0,0,response1disk,,7,0,-5,1,0,0,rectangle,0,-5,1,0,0,0,-5,1,0,0,1,0,160,80,1,,,,,,,,
,,,,,,,,,,,,,FF,,,,,,,,1.2172,,,,,,,,,,,,,,,,,,,,,,60fda0b5ea8a7ac21b66863d,61036f21debbc760859cd3d1,2021-07-29_23h19.28.177,Simcolourproject_2stim_asymm_v5,2020.2.10,Win32,60,61025ae37ef11b136ea224fe,,,,,,,,,315,-76,-38,1,0,0,response5disk,,2,6,-3,1,0,0,rectangle,6,-3,1,0,0,6,-3,1,0,0,1,1,161,21,1,,,,,,,,
,,,,,,,,,,,,,FF,,,,,,,,1.035,,,,,,,,,,,,,,,,,,,,,,60fda0b5ea8a7ac21b66863d,61036f21debbc760859cd3d1,2021-07-29_23h19.28.177,Simcolourproject_2stim_asymm_v5,2020.2.10,Win32,60,61025ae37ef11b136ea224fe,,,,,,,,,2074,-25,58,1,0,0,response7disk,,0,4,2,1,0,0,rectangle,4,2,1,0,0,4,2,1,0,0,1,2,162,144,1,,,,,,,,
,,,,,,,,,,,,,FF,,,,,,,,1.5337,,,,,,,,,,,,,,,,,,,,,,60fda0b5ea8a7ac21b66863d,61036f21debbc760859cd3d1,2021-07-29_23h19.28.177,Simcolourproject_2stim_asymm_v5,2020.2.10,Win32,60,61025ae37ef11b136ea224fe,,,,,,,,,799,-36,-66,1,0,0,response5disk,,3,-24,-4,1,0,0,rectangle,-24,-4,1,0,0,-24,-4,1,0,0,1,3,163,16,1,,,,,,,,
,,,,,,,,,,,,,FF,,,,,,,,1.6513,,,,,,,,,,,,,,,,,,,,,,60fda0b5ea8a7ac21b66863d,61036f21debbc760859cd3d1,2021-07-29_23h19.28.177,Simcolourproject_2stim_asymm_v5,2020.2.10,Win32,60,61025ae37ef11b136ea224fe,,,,,,,,,2780,73,17,1,0,0,response1disk,,6,-1,-4,1,0,0,rectangle,-1,-4,1,0,0,-1,-4,1,0,0,1,4,164,25,1,,,,,,,,
,,,,,,,,,,,,,FF,,,,,,,,0.6672,,,,,,,,,,,,,,,,,,,,,,60fda0b5ea8a7ac21b66863d,61036f21debbc760859cd3d1,2021-07-29_23h19.28.177,Simcolourproject_2stim_asymm_v5,2020.2.10,Win32,60,61025ae37ef11b136ea224fe,,,,,,,,,1607,85,32,1,0,0,response1disk,,6,20,11,1,0,0,rectangle,20,11,1,0,0,20,11,1,0,0,1,5,165,7,1,,,,,,,,
,,,,,,,,,,,,,FF,,,,,,,,0.7015,,,,,,,,,,,,,,,,,,,,,,60fda0b5ea8a7ac21b66863d,61036f21debbc760859cd3d1,2021-07-29_23h19.28.177,Simcolourproject_2stim_asymm_v5,2020.2.10,Win32,60,61025ae37ef11b136ea224fe,,,,,,,,,2227,101,53,1,0,0,response1disk,,6,11,7,1,0,0,rectangle,11,7,1,0,0,11,7,1,0,0,1,6,166,112,1,,,,,,,,
,,,,,,,,,,,,,FF,,,,,,,,0.5531,,,,,,,,,,,,,,,,,,,,,,60fda0b5ea8a7ac21b66863d,61036f21debbc760859cd3d1,2021-07-29_23h19.28.177,Simcolourproject_2stim_asymm_v5,2020.2.10,Win32,60,61025ae37ef11b136ea224fe,,,,,,,,,839,-34,74,1,0,0,response7disk,,0,8,-12,1,0,0,rectangle,33,96,1,0,0,6,-5,1,0,0,1,7,167,30,1,,response1disk_3,TRUE,7,7,"[123,188,212,49,51,304,311,42,274,101,223,20,168,38,170,60,68,259,194,53]",1.8831,rectangle
,,,,,,,,,,,,,FF,,,,,,,,4.5514,,,,,,,,,,,,,,,,,,,,,,60fda0b5ea8a7ac21b66863d,61036f21debbc760859cd3d1,2021-07-29_23h19.28.177,Simcolourproject_2stim_asymm_v5,2020.2.10,Win32,60,61025ae37ef11b136ea224fe,,,,,,,,,1390,48,-77,1,0,0,response3disk,,4,9,-2,1,0,0,rectangle,9,-2,1,0,0,9,-2,1,0,0,1,8,168,94,1,,,,,,,,
,,,,,,,,,,,,,FF,,,,,,,,5.1494,,,,,,,,,,,,,,,,,,,,,,60fda0b5ea8a7ac21b66863d,61036f21debbc760859cd3d1,2021-07-29_23h19.28.177,Simcolourproject_2stim_asymm_v5,2020.2.10,Win32,60,61025ae37ef11b136ea224fe,,,,,,,,,894,-84,-42,1,0,0,response5disk,,2,-15,-11,1,0,0,rectangle,55,102,1,0,0,-13,-7,1,0,0,1,9,169,110,1,,response1disk_3,TRUE,7,7,"[123,188,212,49,51,304,311,42,274,101,223,20,168,38,170,60,68,259,194,53]",1.6015,rectangle
,,,,,,,,,,,,,FF,,,,,,,,0.8022,,,,,,,,,,,,,,,,,,,,,,60fda0b5ea8a7ac21b66863d,61036f21debbc760859cd3d1,2021-07-29_23h19.28.177,Simcolourproject_2stim_asymm_v5,2020.2.10,Win32,60,61025ae37ef11b136ea224fe,,,,,,,,,2867,-49,90,1,0,0,response7disk,,0,-15,8,1,0,0,rectangle,-15,8,1,0,0,-15,8,1,0,0,1,10,170,58,1,,,,,,,,
,,,,,,,,,,,,,FF,,,,,,,,0.7207,,,,,,,,,,,,,,,,,,,,,,60fda0b5ea8a7ac21b66863d,61036f21debbc760859cd3d1,2021-07-29_23h19.28.177,Simcolourproject_2stim_asymm_v5,2020.2.10,Win32,60,61025ae37ef11b136ea224fe,,,,,,,,,1174,-38,82,1,0,0,response7disk,,0,-17,15,1,0,0,rectangle,-17,15,1,0,0,-17,15,1,0,0,1,11,171,43,1,,,,,,,,
,,,,,,,,,,,,,FF,,,,,,,,1.304,,,,,,,,,,,,,,,,,,,,,,60fda0b5ea8a7ac21b66863d,61036f21debbc760859cd3d1,2021-07-29_23h19.28.177,Simcolourproject_2stim_asymm_v5,2020.2.10,Win32,60,61025ae37ef11b136ea224fe,,,,,,,,,1064,-33,-91,1,0,0,response5disk,,3,6,8,1,0,0,rectangle,6,8,1,0,0,6,8,1,0,0,1,12,172,69,1,,,,,,,,
,,,,,,,,,,,,,FF,,,,,,,,0.6191,,,,,,,,,,,,,,,,,,,,,,60fda0b5ea8a7ac21b66863d,61036f21debbc760859cd3d1,2021-07-29_23h19.28.177,Simcolourproject_2stim_asymm_v5,2020.2.10,Win32,60,61025ae37ef11b136ea224fe,,,,,,,,,1109,-28,68,1,0,0,response7disk,,0,-10,9,1,0,0,rectangle,-10,9,1,0,0,-10,9,1,0,0,1,13,173,159,1,,,,,,,,
,,,,,,,,,,,,,FF,,,,,,,,1.152,,,,,,,,,,,,,,,,,,,,,,60fda0b5ea8a7ac21b66863d,61036f21debbc760859cd3d1,2021-07-29_23h19.28.177,Simcolourproject_2stim_asymm_v5,2020.2.10,Win32,60,61025ae37ef11b136ea224fe,,,,,,,,,1592,-29,-79,1,0,0,response5disk,,3,4,7,1,0,0,rectangle,4,7,1,0,0,4,7,1,0,0,1,14,174,73,1,,,,,,,,
,,,,,,,,,,,,,FF,,,,,,,,0.6187,,,,,,,,,,,,,,,,,,,,,,60fda0b5ea8a7ac21b66863d,61036f21debbc760859cd3d1,2021-07-29_23h19.28.177,Simcolourproject_2stim_asymm_v5,2020.2.10,Win32,60,61025ae37ef11b136ea224fe,,,,,,,,,1571,-38,60,1,0,0,response7disk,,0,2,-9,1,0,0,rectangle,2,-9,1,0,0,2,-9,1,0,0,1,15,175,120,1,,,,,,,,
,,,,,,,,,,,,,FF,,,,,,,,0.5359,,,,,,,,,,,,,,,,,,,,,,60fda0b5ea8a7ac21b66863d,61036f21debbc760859cd3d1,2021-07-29_23h19.28.177,Simcolourproject_2stim_asymm_v5,2020.2.10,Win32,60,61025ae37ef11b136ea224fe,,,,,,,,,2141,-30,76,1,0,0,response7disk,,0,2,-9,1,0,0,rectangle,2,-9,1,0,0,2,-9,1,0,0,1,16,176,124,1,,,,,,,,
,,,,,,,,,,,,,FF,,,,,,,,0.5537,,,,,,,,,,,,,,,,,,,,,,60fda0b5ea8a7ac21b66863d,61036f21debbc760859cd3d1,2021-07-29_23h19.28.177,Simcolourproject_2stim_asymm_v5,2020.2.10,Win32,60,61025ae37ef11b136ea224fe,,,,,,,,,3954,-27,64,1,0,0,response7disk,,0,6,-3,1,0,0,rectangle,6,-3,1,0,0,6,-3,1,0,0,1,17,177,44,1,,,,,,,,
,,,,,,,,,,,,,FF,,,,,,,,0.4187,,,,,,,,,,,,,,,,,,,,,,60fda0b5ea8a7ac21b66863d,61036f21debbc760859cd3d1,2021-07-29_23h19.28.177,Simcolourproject_2stim_asymm_v5,2020.2.10,Win32,60,61025ae37ef11b136ea224fe,,,,,,,,,3984,-46,55,1,0,0,response7disk,,0,-7,-1,1,0,0,rectangle,-7,-1,1,0,0,-7,-1,1,0,0,1,18,178,31,1,,,,,,,,
,,,,,,,,,,,,,FF,,,,,,,,0.7005,,,,,,,,,,,,,,,,,,,,,,60fda0b5ea8a7ac21b66863d,61036f21debbc760859cd3d1,2021-07-29_23h19.28.177,Simcolourproject_2stim_asymm_v5,2020.2.10,Win32,60,61025ae37ef11b136ea224fe,,,,,,,,,408,-42,52,1,0,0,response7disk,,0,26,-2,1,0,0,rectangle,26,-2,1,0,0,26,-2,1,0,0,1,19,179,74,1,,,,,,,,
,,,,,,,,,,,,,FF,,,,,,,,2.2521,,,,,,,,,,,,,,,,,,,,,,60fda0b5ea8a7ac21b66863d,61036f21debbc760859cd3d1,2021-07-29_23h19.28.177,Simcolourproject_2stim_asymm_v5,2020.2.10,Win32,60,61025ae37ef11b136ea224fe,,,,,,,,,2491,-29,-73,1,0,0,response5disk,,3,1,2,1,0,0,rectangle,1,2,1,0,0,1,2,1,0,0,1,20,180,146,1,,,,,,,,
,,,,,,,,,,,,,FF,,,,,,,,1.1834,,,,,,,,,,,,,,,,,,,,,,60fda0b5ea8a7ac21b66863d,61036f21debbc760859cd3d1,2021-07-29_23h19.28.177,Simcolourproject_2stim_asymm_v5,2020.2.10,Win32,60,61025ae37ef11b136ea224fe,,,,,,,,,3869,-66,-49,1,0,0,response5disk,,2,-9,2,1,0,0,rectangle,-9,2,1,0,0,-9,2,1,0,0,1,21,181,114,1,,,,,,,,
,,,,,,,,,,,,,FF,,,,,,,,0.6859,,,,,,,,,,,,,,,,,,,,,,60fda0b5ea8a7ac21b66863d,61036f21debbc760859cd3d1,2021-07-29_23h19.28.177,Simcolourproject_2stim_asymm_v5,2020.2.10,Win32,60,61025ae37ef11b136ea224fe,,,,,,,,,4280,42,101,1,0,0,response1disk,,7,4,-3,1,0,0,rectangle,4,-3,1,0,0,4,-3,1,0,0,1,22,182,33,1,,,,,,,,
,,,,,,,,,,,,,FF,,,,,,,,0.6335,,,,,,,,,,,,,,,,,,,,,,60fda0b5ea8a7ac21b66863d,61036f21debbc760859cd3d1,2021-07-29_23h19.28.177,Simcolourproject_2stim_asymm_v5,2020.2.10,Win32,60,61025ae37ef11b136ea224fe,,,,,,,,,523,-33,84,1,0,0,response7disk,,0,-6,-10,1,0,0,rectangle,-6,-10,1,0,0,-6,-10,1,0,0,1,23,183,141,1,,,,,,,,
,,,,,,,,,,,,,FF,,,,,,,,0.6723,,,,,,,,,,,,,,,,,,,,,,60fda0b5ea8a7ac21b66863d,61036f21debbc760859cd3d1,2021-07-29_23h19.28.177,Simcolourproject_2stim_asymm_v5,2020.2.10,Win32,60,61025ae37ef11b136ea224fe,,,,,,,,,1849,-33,57,1,0,0,response7disk,,0,-7,7,1,0,0,rectangle,-7,7,1,0,0,-7,7,1,0,0,1,24,184,106,1,,,,,,,,
,,,,,,,,,,,,,FF,,,,,,,,1.1881,,,,,,,,,,,,,,,,,,,,,,60fda0b5ea8a7ac21b66863d,61036f21debbc760859cd3d1,2021-07-29_23h19.28.177,Simcolourproject_2stim_asymm_v5,2020.2.10,Win32,60,61025ae37ef11b136ea224fe,,,,,,,,,12,-74,-43,1,0,0,response5disk,,2,7,-3,1,0,0,rectangle,7,-3,1,0,0,7,-3,1,0,0,1,25,185,23,1,,,,,,,,
,,,,,,,,,,,,,FF,,,,,,,,0.7722,,,,,,,,,,,,,,,,,,,,,,60fda0b5ea8a7ac21b66863d,61036f21debbc760859cd3d1,2021-07-29_23h19.28.177,Simcolourproject_2stim_asymm_v5,2020.2.10,Win32,60,61025ae37ef11b136ea224fe,,,,,,,,,2582,-27,47,1,0,0,response7disk,,0,6,-2,1,0,0,rectangle,6,-2,1,0,0,6,-2,1,0,0,1,26,186,29,1,,,,,,,,
,,,,,,,,,,,,,FF,,,,,,,,0.5506,,,,,,,,,,,,,,,,,,,,,,60fda0b5ea8a7ac21b66863d,61036f21debbc760859cd3d1,2021-07-29_23h19.28.177,Simcolourproject_2stim_asymm_v5,2020.2.10,Win32,60,61025ae37ef11b136ea224fe,,,,,,,,,2436,-19,50,1,0,0,response7disk,,0,-12,5,1,0,0,rectangle,-61,-84,1,0,0,-14,12,1,0,0,1,27,187,27,1,,response5disk_3,TRUE,3,3,"[123,188,212,49,51,304,311,42,274,101,223,20,168,38,170,60,68,259,194,53]",1.7992,rectangle
,,,,,,,,,,,,,FF,,,,,,,,0.7506,,,,,,,,,,,,,,,,,,,,,,60fda0b5ea8a7ac21b66863d,61036f21debbc760859cd3d1,2021-07-29_23h19.28.177,Simcolourproject_2stim_asymm_v5,2020.2.10,Win32,60,61025ae37ef11b136ea224fe,,,,,,,,,3129,-25,56,1,0,0,response7disk,,0,-13,3,1,0,0,rectangle,-13,3,1,0,0,-13,3,1,0,0,1,28,188,70,1,,,,,,,,
,,,,,,,,,,,,,FF,,,,,,,,1.3671,,,,,,,,,,,,,,,,,,,,,,60fda0b5ea8a7ac21b66863d,61036f21debbc760859cd3d1,2021-07-29_23h19.28.177,Simcolourproject_2stim_asymm_v5,2020.2.10,Win32,60,61025ae37ef11b136ea224fe,,,,,,,,,2764,-34,52,1,0,0,response7disk,,0,-15,7,1,0,0,rectangle,-15,7,1,0,0,-15,7,1,0,0,1,29,189,115,1,,,,,,,,
,,,,,,,,,,,,,FF,,,,,,,,0.989,,,,,,,,,,,,,,,,,,,,,,60fda0b5ea8a7ac21b66863d,61036f21debbc760859cd3d1,2021-07-29_23h19.28.177,Simcolourproject_2stim_asymm_v5,2020.2.10,Win32,60,61025ae37ef11b136ea224fe,,,,,,,,,2727,42,-68,1,0,0,response3disk,,4,10,-1,1,0,0,rectangle,10,-1,1,0,0,10,-1,1,0,0,1,30,190,86,1,,,,,,,,
,,,,,,,,,,,,,FF,,,,,,,,0.7336,,,,,,,,,,,,,,,,,,,,,,60fda0b5ea8a7ac21b66863d,61036f21debbc760859cd3d1,2021-07-29_23h19.28.177,Simcolourproject_2stim_asymm_v5,2020.2.10,Win32,60,61025ae37ef11b136ea224fe,,,,,,,,,590,-37,83,1,0,0,response7disk,,0,-4,1,1,0,0,rectangle,-4,1,1,0,0,-4,1,1,0,0,1,31,191,48,1,,,,,,,,
,,,,,,,,,,,,,FF,,,,,,,,0.6176,,,,,,,,,,,,,,,,,,,,,,60fda0b5ea8a7ac21b66863d,61036f21debbc760859cd3d1,2021-07-29_23h19.28.177,Simcolourproject_2stim_asymm_v5,2020.2.10,Win32,60,61025ae37ef11b136ea224fe,,,,,,,,,1637,-31,66,1,0,0,response7disk,,0,-2,-1,1,0,0,rectangle,-2,-1,1,0,0,-2,-1,1,0,0,1,32,192,143,1,,,,,,,,
,,,,,,,,,,,,,FF,,,,,,,,1.7845,,,,,,,,,,,,,,,,,,,,,,60fda0b5ea8a7ac21b66863d,61036f21debbc760859cd3d1,2021-07-29_23h19.28.177,Simcolourproject_2stim_asymm_v5,2020.2.10,Win32,60,61025ae37ef11b136ea224fe,,,,,,,,,102,-36,82,1,0,0,response7disk,,0,1,-3,1,0,0,rectangle,87,-48,1,0,0,21,-3,1,0,0,1,33,193,54,1,,response3disk_3,TRUE,5,5,"[123,188,212,49,51,304,311,42,274,101,223,20,168,38,170,60,68,259,194,53]",1.8508,rectangle
,,,,,,,,,,,,,FF,,,,,,,,2.2518,,,,,,,,,,,,,,,,,,,,,,60fda0b5ea8a7ac21b66863d,61036f21debbc760859cd3d1,2021-07-29_23h19.28.177,Simcolourproject_2stim_asymm_v5,2020.2.10,Win32,60,61025ae37ef11b136ea224fe,,,,,,,,,3920,60,-72,1,0,0,response3disk,,4,17,-1,1,0,0,rectangle,17,-1,1,0,0,17,-1,1,0,0,1,34,194,19,1,,,,,,,,
,,,,,,,,,,,,,FF,,,,,,,,0.9523,,,,,,,,,,,,,,,,,,,,,,60fda0b5ea8a7ac21b66863d,61036f21debbc760859cd3d1,2021-07-29_23h19.28.177,Simcolourproject_2stim_asymm_v5,2020.2.10,Win32,60,61025ae37ef11b136ea224fe,,,,,,,,,1133,42,-53,1,0,0,response3disk,,4,2,-10,1,0,0,rectangle,2,-10,1,0,0,2,-10,1,0,0,1,35,195,41,1,,,,,,,,
,,,,,,,,,,,,,FF,,,,,,,,1.3043,,,,,,,,,,,,,,,,,,,,,,60fda0b5ea8a7ac21b66863d,61036f21debbc760859cd3d1,2021-07-29_23h19.28.177,Simcolourproject_2stim_asymm_v5,2020.2.10,Win32,60,61025ae37ef11b136ea224fe,,,,,,,,,4205,96,54,1,0,0,response1disk,,6,3,-4,1,0,0,rectangle,3,-4,1,0,0,3,-4,1,0,0,1,36,196,79,1,,,,,,,,
,,,,,,,,,,,,,FF,,,,,,,,0.5026,,,,,,,,,,,,,,,,,,,,,,60fda0b5ea8a7ac21b66863d,61036f21debbc760859cd3d1,2021-07-29_23h19.28.177,Simcolourproject_2stim_asymm_v5,2020.2.10,Win32,60,61025ae37ef11b136ea224fe,,,,,,,,,4079,-35,66,1,0,0,response7disk,,0,-16,11,1,0,0,rectangle,-16,11,1,0,0,-16,11,1,0,0,1,37,197,35,1,,,,,,,,
,,,,,,,,,,,,,FF,,,,,,,,0.6012,,,,,,,,,,,,,,,,,,,,,,60fda0b5ea8a7ac21b66863d,61036f21debbc760859cd3d1,2021-07-29_23h19.28.177,Simcolourproject_2stim_asymm_v5,2020.2.10,Win32,60,61025ae37ef11b136ea224fe,,,,,,,,,2800,-29,59,1,0,0,response7disk,,0,-10,15,1,0,0,rectangle,-10,15,1,0,0,-10,15,1,0,0,1,38,198,9,1,,,,,,,,
,,,,,,,,,,,,,FF,,,,,,,,0.6851,,,,,,,,,,,,,,,,,,,,,,60fda0b5ea8a7ac21b66863d,61036f21debbc760859cd3d1,2021-07-29_23h19.28.177,Simcolourproject_2stim_asymm_v5,2020.2.10,Win32,60,61025ae37ef11b136ea224fe,,,,,,,,,961,-23,59,1,0,0,response7disk,,0,-7,-1,1,0,0,rectangle,-7,-1,1,0,0,-7,-1,1,0,0,1,39,199,51,1,,,,,,,,
,,,,,,,,,,,,,FF,,,,,,,,1.1189,,,,,,,,,,,,,,,,,,,,,,60fda0b5ea8a7ac21b66863d,61036f21debbc760859cd3d1,2021-07-29_23h19.28.177,Simcolourproject_2stim_asymm_v5,2020.2.10,Win32,60,61025ae37ef11b136ea224fe,,,,,,,,,1057,99,28,1,0,0,response1disk,,6,-10,-3,1,0,0,rectangle,-10,-3,1,0,0,-10,-3,1,0,0,1,40,200,139,1,,,,,,,,
,,,,,,,,,,,,,FF,,,,,,,,1.9305,,,,,,,,,,,,,,,,,,,,,,60fda0b5ea8a7ac21b66863d,61036f21debbc760859cd3d1,2021-07-29_23h19.28.177,Simcolourproject_2stim_asymm_v5,2020.2.10,Win32,60,61025ae37ef11b136ea224fe,,,,,,,,,996,106,-65,1,0,0,response3disk,,5,3,11,1,0,0,rectangle,3,11,1,0,0,3,11,1,0,0,1,41,201,93,1,,,,,,,,
,,,,,,,,,,,,,FF,,,,,,,,0.6335,,,,,,,,,,,,,,,,,,,,,,60fda0b5ea8a7ac21b66863d,61036f21debbc760859cd3d1,2021-07-29_23h19.28.177,Simcolourproject_2stim_asymm_v5,2020.2.10,Win32,60,61025ae37ef11b136ea224fe,,,,,,,,,2187,-29,69,1,0,0,response7disk,,0,-2,0,1,0,0,rectangle,-2,0,1,0,0,-2,0,1,0,0,1,42,202,11,1,,,,,,,,
,,,,,,,,,,,,,FF,,,,,,,,0.57,,,,,,,,,,,,,,,,,,,,,,60fda0b5ea8a7ac21b66863d,61036f21debbc760859cd3d1,2021-07-29_23h19.28.177,Simcolourproject_2stim_asymm_v5,2020.2.10,Win32,60,61025ae37ef11b136ea224fe,,,,,,,,,3019,-24,48,1,0,0,response7disk,,0,-1,-10,1,0,0,rectangle,-1,-10,1,0,0,-1,-10,1,0,0,1,43,203,83,1,,,,,,,,
,,,,,,,,,,,,,FF,,,,,,,,1.3022,,,,,,,,,,,,,,,,,,,,,,60fda0b5ea8a7ac21b66863d,61036f21debbc760859cd3d1,2021-07-29_23h19.28.177,Simcolourproject_2stim_asymm_v5,2020.2.10,Win32,60,61025ae37ef11b136ea224fe,,,,,,,,,4319,-35,-74,1,0,0,response5disk,,3,-19,2,1,0,0,rectangle,-19,2,1,0,0,-19,2,1,0,0,1,44,204,56,1,,,,,,,,
,,,,,,,,,,,,,FF,,,,,,,,1.3172,,,,,,,,,,,,,,,,,,,,,,60fda0b5ea8a7ac21b66863d,61036f21debbc760859cd3d1,2021-07-29_23h19.28.177,Simcolourproject_2stim_asymm_v5,2020.2.10,Win32,60,61025ae37ef11b136ea224fe,,,,,,,,,3867,-54,-101,1,0,0,response5disk,,3,-14,-3,1,0,0,rectangle,-14,-3,1,0,0,-14,-3,1,0,0,1,45,205,109,1,,,,,,,,
,,,,,,,,,,,,,FF,,,,,,,,0.7844,,,,,,,,,,,,,,,,,,,,,,60fda0b5ea8a7ac21b66863d,61036f21debbc760859cd3d1,2021-07-29_23h19.28.177,Simcolourproject_2stim_asymm_v5,2020.2.10,Win32,60,61025ae37ef11b136ea224fe,,,,,,,,,862,-23,-56,1,0,0,response5disk,,3,-7,12,1,0,0,rectangle,-7,12,1,0,0,-7,12,1,0,0,1,46,206,149,1,,,,,,,,
,,,,,,,,,,,,,FF,,,,,,,,0.9502,,,,,,,,,,,,,,,,,,,,,,60fda0b5ea8a7ac21b66863d,61036f21debbc760859cd3d1,2021-07-29_23h19.28.177,Simcolourproject_2stim_asymm_v5,2020.2.10,Win32,60,61025ae37ef11b136ea224fe,,,,,,,,,3618,-24,43,1,0,0,response7disk,,0,-5,13,1,0,0,rectangle,-5,13,1,0,0,-5,13,1,0,0,1,47,207,5,1,,,,,,,,
,,,,,,,,,,,,,FF,,,,,,,,0.604,,,,,,,,,,,,,,,,,,,,,,60fda0b5ea8a7ac21b66863d,61036f21debbc760859cd3d1,2021-07-29_23h19.28.177,Simcolourproject_2stim_asymm_v5,2020.2.10,Win32,60,61025ae37ef11b136ea224fe,,,,,,,,,2803,-28,48,1,0,0,response7disk,,0,7,-7,1,0,0,rectangle,7,-7,1,0,0,7,-7,1,0,0,1,48,208,140,1,,,,,,,,
,,,,,,,,,,,,,FF,,,,,,,,1.1006,,,,,,,,,,,,,,,,,,,,,,60fda0b5ea8a7ac21b66863d,61036f21debbc760859cd3d1,2021-07-29_23h19.28.177,Simcolourproject_2stim_asymm_v5,2020.2.10,Win32,60,61025ae37ef11b136ea224fe,,,,,,,,,3379,-23,43,1,0,0,response7disk,,0,-11,0,1,0,0,rectangle,-11,0,1,0,0,-11,0,1,0,0,1,49,209,96,1,,,,,,,,
,,,,,,,,,,,,,FF,,,,,,,,0.9667,,,,,,,,,,,,,,,,,,,,,,60fda0b5ea8a7ac21b66863d,61036f21debbc760859cd3d1,2021-07-29_23h19.28.177,Simcolourproject_2stim_asymm_v5,2020.2.10,Win32,60,61025ae37ef11b136ea224fe,,,,,,,,,1384,68,-33,1,0,0,response3disk,,5,2,5,1,0,0,rectangle,2,5,1,0,0,2,5,1,0,0,1,50,210,89,1,,,,,,,,
,,,,,,,,,,,,,FF,,,,,,,,0.5333,,,,,,,,,,,,,,,,,,,,,,60fda0b5ea8a7ac21b66863d,61036f21debbc760859cd3d1,2021-07-29_23h19.28.177,Simcolourproject_2stim_asymm_v5,2020.2.10,Win32,60,61025ae37ef11b136ea224fe,,,,,,,,,2061,-32,40,1,0,0,response7disk,,0,2,1,1,0,0,rectangle,45,-72,1,0,0,10,5,1,0,0,1,51,211,135,1,,response3disk_3,TRUE,4,4,"[123,188,212,49,51,304,311,42,274,101,223,20,168,38,170,60,68,259,194,53]",28.6282,rectangle
,,,,,,,,,,,,,FF,,,,,,,,1.1708,,,,,,,,,,,,,,,,,,,,,,60fda0b5ea8a7ac21b66863d,61036f21debbc760859cd3d1,2021-07-29_23h19.28.177,Simcolourproject_2stim_asymm_v5,2020.2.10,Win32,60,61025ae37ef11b136ea224fe,,,,,,,,,695,-36,-101,1,0,0,response5disk,,3,0,1,1,0,0,rectangle,0,1,1,0,0,0,1,1,0,0,1,52,212,157,1,,,,,,,,
,,,,,,,,,,,,,FF,,,,,,,,0.8855,,,,,,,,,,,,,,,,,,,,,,60fda0b5ea8a7ac21b66863d,61036f21debbc760859cd3d1,2021-07-29_23h19.28.177,Simcolourproject_2stim_asymm_v5,2020.2.10,Win32,60,61025ae37ef11b136ea224fe,,,,,,,,,3979,-30,-102,1,0,0,response5disk,,3,7,-4,1,0,0,rectangle,7,-4,1,0,0,7,-4,1,0,0,1,53,213,97,1,,,,,,,,
,,,,,,,,,,,,,FF,,,,,,,,0.6685,,,,,,,,,,,,,,,,,,,,,,60fda0b5ea8a7ac21b66863d,61036f21debbc760859cd3d1,2021-07-29_23h19.28.177,Simcolourproject_2stim_asymm_v5,2020.2.10,Win32,60,61025ae37ef11b136ea224fe,,,,,,,,,1504,-29,51,1,0,0,response7disk,,0,-17,1,1,0,0,rectangle,-17,1,1,0,0,-17,1,1,0,0,1,54,214,47,1,,,,,,,,
,,,,,,,,,,,,,FF,,,,,,,,1.0562,,,,,,,,,,,,,,,,,,,,,,60fda0b5ea8a7ac21b66863d,61036f21debbc760859cd3d1,2021-07-29_23h19.28.177,Simcolourproject_2stim_asymm_v5,2020.2.10,Win32,60,61025ae37ef11b136ea224fe,,,,,,,,,1890,86,-47,1,0,0,response3disk,,5,-14,8,1,0,0,rectangle,-14,8,1,0,0,-14,8,1,0,0,1,55,215,123,1,,,,,,,,
,,,,,,,,,,,,,FF,,,,,,,,0.6183,,,,,,,,,,,,,,,,,,,,,,60fda0b5ea8a7ac21b66863d,61036f21debbc760859cd3d1,2021-07-29_23h19.28.177,Simcolourproject_2stim_asymm_v5,2020.2.10,Win32,60,61025ae37ef11b136ea224fe,,,,,,,,,1993,-29,57,1,0,0,response7disk,,0,1,1,1,0,0,rectangle,1,1,1,0,0,1,1,1,0,0,1,56,216,92,1,,,,,,,,
,,,,,,,,,,,,,FF,,,,,,,,1.3704,,,,,,,,,,,,,,,,,,,,,,60fda0b5ea8a7ac21b66863d,61036f21debbc760859cd3d1,2021-07-29_23h19.28.177,Simcolourproject_2stim_asymm_v5,2020.2.10,Win32,60,61025ae37ef11b136ea224fe,,,,,,,,,387,45,-70,1,0,0,response3disk,,4,11,-4,1,0,0,rectangle,11,-4,1,0,0,11,-4,1,0,0,1,57,217,132,1,,,,,,,,
,,,,,,,,,,,,,FF,,,,,,,,1.4703,,,,,,,,,,,,,,,,,,,,,,60fda0b5ea8a7ac21b66863d,61036f21debbc760859cd3d1,2021-07-29_23h19.28.177,Simcolourproject_2stim_asymm_v5,2020.2.10,Win32,60,61025ae37ef11b136ea224fe,,,,,,,,,1760,91,-44,1,0,0,response3disk,,5,23,1,1,0,0,rectangle,23,1,1,0,0,23,1,1,0,0,1,58,218,2,1,,,,,,,,
,,,,,,,,,,,,,FF,,,,,,,,0.6361,,,,,,,,,,,,,,,,,,,,,,60fda0b5ea8a7ac21b66863d,61036f21debbc760859cd3d1,2021-07-29_23h19.28.177,Simcolourproject_2stim_asymm_v5,2020.2.10,Win32,60,61025ae37ef11b136ea224fe,,,,,,,,,2656,93,-28,1,0,0,response3disk,,5,9,-2,1,0,0,rectangle,9,-2,1,0,0,9,-2,1,0,0,1,59,219,75,1,,,,,,,,
,,,,,,,,,,,,,FF,,,,,,,,1.3445,,,,,,,,,,,,,,,,,,,,,,60fda0b5ea8a7ac21b66863d,61036f21debbc760859cd3d1,2021-07-29_23h19.28.177,Simcolourproject_2stim_asymm_v5,2020.2.10,Win32,60,61025ae37ef11b136ea224fe,,,,,,,,,434,-68,-42,1,0,0,response5disk,,2,4,1,1,0,0,rectangle,4,1,1,0,0,4,1,1,0,0,1,60,220,148,1,,,,,,,,
,,,,,,,,,,,,,FF,,,,,,,,1.2902,,,,,,,,,,,,,,,,,,,,,,60fda0b5ea8a7ac21b66863d,61036f21debbc760859cd3d1,2021-07-29_23h19.28.177,Simcolourproject_2stim_asymm_v5,2020.2.10,Win32,60,61025ae37ef11b136ea224fe,,,,,,,,,2218,-37,-63,1,0,0,response5disk,,3,6,-4,1,0,0,rectangle,6,-4,1,0,0,6,-4,1,0,0,1,61,221,39,1,,,,,,,,
,,,,,,,,,,,,,FF,,,,,,,,1.0172,,,,,,,,,,,,,,,,,,,,,,60fda0b5ea8a7ac21b66863d,61036f21debbc760859cd3d1,2021-07-29_23h19.28.177,Simcolourproject_2stim_asymm_v5,2020.2.10,Win32,60,61025ae37ef11b136ea224fe,,,,,,,,,397,-33,-74,1,0,0,response5disk,,3,-9,-3,1,0,0,rectangle,86,39,1,0,0,5,-3,1,0,0,1,62,222,8,1,,response1disk_3,TRUE,6,6,"[123,188,212,49,51,304,311,42,274,101,223,20,168,38,170,60,68,259,194,53]",1.5995,rectangle
,,,,,,,,,,,,,FF,,,,,,,,1.2707,,,,,,,,,,,,,,,,,,,,,,60fda0b5ea8a7ac21b66863d,61036f21debbc760859cd3d1,2021-07-29_23h19.28.177,Simcolourproject_2stim_asymm_v5,2020.2.10,Win32,60,61025ae37ef11b136ea224fe,,,,,,,,,3495,-96,-29,1,0,0,response5disk,,2,-5,15,1,0,0,rectangle,-5,15,1,0,0,-5,15,1,0,0,1,63,223,10,1,,,,,,,,
,,,,,,,,,,,,,FF,,,,,,,,0.884,,,,,,,,,,,,,,,,,,,,,,60fda0b5ea8a7ac21b66863d,61036f21debbc760859cd3d1,2021-07-29_23h19.28.177,Simcolourproject_2stim_asymm_v5,2020.2.10,Win32,60,61025ae37ef11b136ea224fe,,,,,,,,,2357,48,-99,1,0,0,response3disk,,4,-10,11,1,0,0,rectangle,-10,11,1,0,0,-10,11,1,0,0,1,64,224,57,1,,,,,,,,
,,,,,,,,,,,,,FF,,,,,,,,0.5717,,,,,,,,,,,,,,,,,,,,,,60fda0b5ea8a7ac21b66863d,61036f21debbc760859cd3d1,2021-07-29_23h19.28.177,Simcolourproject_2stim_asymm_v5,2020.2.10,Win32,60,61025ae37ef11b136ea224fe,,,,,,,,,332,-39,71,1,0,0,response7disk,,0,-4,6,1,0,0,rectangle,-4,6,1,0,0,-4,6,1,0,0,1,65,225,155,1,,,,,,,,
,,,,,,,,,,,,,FF,,,,,,,,0.6443,,,,,,,,,,,,,,,,,,,,,,60fda0b5ea8a7ac21b66863d,61036f21debbc760859cd3d1,2021-07-29_23h19.28.177,Simcolourproject_2stim_asymm_v5,2020.2.10,Win32,60,61025ae37ef11b136ea224fe,,,,,,,,,1938,-19,55,1,0,0,response7disk,,0,-13,6,1,0,0,rectangle,-13,6,1,0,0,-13,6,1,0,0,1,66,226,3,1,,,,,,,,
,,,,,,,,,,,,,FF,,,,,,,,0.6538,,,,,,,,,,,,,,,,,,,,,,60fda0b5ea8a7ac21b66863d,61036f21debbc760859cd3d1,2021-07-29_23h19.28.177,Simcolourproject_2stim_asymm_v5,2020.2.10,Win32,60,61025ae37ef11b136ea224fe,,,,,,,,,1428,-30,64,1,0,0,response7disk,,0,-3,-7,1,0,0,rectangle,-3,-7,1,0,0,-3,-7,1,0,0,1,67,227,107,1,,,,,,,,
,,,,,,,,,,,,,FF,,,,,,,,0.6201,,,,,,,,,,,,,,,,,,,,,,60fda0b5ea8a7ac21b66863d,61036f21debbc760859cd3d1,2021-07-29_23h19.28.177,Simcolourproject_2stim_asymm_v5,2020.2.10,Win32,60,61025ae37ef11b136ea224fe,,,,,,,,,534,-37,81,1,0,0,response7disk,,0,-5,6,1,0,0,rectangle,-5,6,1,0,0,-5,6,1,0,0,1,68,228,45,1,,,,,,,,
,,,,,,,,,,,,,FF,,,,,,,,0.8887,,,,,,,,,,,,,,,,,,,,,,60fda0b5ea8a7ac21b66863d,61036f21debbc760859cd3d1,2021-07-29_23h19.28.177,Simcolourproject_2stim_asymm_v5,2020.2.10,Win32,60,61025ae37ef11b136ea224fe,,,,,,,,,1597,82,68,1,0,0,response1disk,,6,-4,-2,1,0,0,rectangle,-4,-2,1,0,0,-4,-2,1,0,0,1,69,229,18,1,,,,,,,,
,,,,,,,,,,,,,FF,,,,,,,,0.9843,,,,,,,,,,,,,,,,,,,,,,60fda0b5ea8a7ac21b66863d,61036f21debbc760859cd3d1,2021-07-29_23h19.28.177,Simcolourproject_2stim_asymm_v5,2020.2.10,Win32,60,61025ae37ef11b136ea224fe,,,,,,,,,2,87,-55,1,0,0,response3disk,,5,13,11,1,0,0,rectangle,13,11,1,0,0,13,11,1,0,0,1,70,230,156,1,,,,,,,,
,,,,,,,,,,,,,FF,,,,,,,,1.0828,,,,,,,,,,,,,,,,,,,,,,60fda0b5ea8a7ac21b66863d,61036f21debbc760859cd3d1,2021-07-29_23h19.28.177,Simcolourproject_2stim_asymm_v5,2020.2.10,Win32,60,61025ae37ef11b136ea224fe,,,,,,,,,2553,-60,-58,1,0,0,response5disk,,2,-1,-4,1,0,0,rectangle,-1,-4,1,0,0,-1,-4,1,0,0,1,71,231,116,1,,,,,,,,
,,,,,,,,,,,,,FF,,,,,,,,1.0375,,,,,,,,,,,,,,,,,,,,,,60fda0b5ea8a7ac21b66863d,61036f21debbc760859cd3d1,2021-07-29_23h19.28.177,Simcolourproject_2stim_asymm_v5,2020.2.10,Win32,60,61025ae37ef11b136ea224fe,,,,,,,,,1788,-52,39,1,0,0,response7disk,,1,7,-5,1,0,0,rectangle,7,-5,1,0,0,7,-5,1,0,0,1,72,232,65,1,,,,,,,,
,,,,,,,,,,,,,FF,,,,,,,,1.3857,,,,,,,,,,,,,,,,,,,,,,60fda0b5ea8a7ac21b66863d,61036f21debbc760859cd3d1,2021-07-29_23h19.28.177,Simcolourproject_2stim_asymm_v5,2020.2.10,Win32,60,61025ae37ef11b136ea224fe,,,,,,,,,2209,-85,39,1,0,0,response7disk,,1,-14,-1,1,0,0,rectangle,-14,-1,1,0,0,-14,-1,1,0,0,1,73,233,15,1,,,,,,,,
,,,,,,,,,,,,,FF,,,,,,,,1.2006,,,,,,,,,,,,,,,,,,,,,,60fda0b5ea8a7ac21b66863d,61036f21debbc760859cd3d1,2021-07-29_23h19.28.177,Simcolourproject_2stim_asymm_v5,2020.2.10,Win32,60,61025ae37ef11b136ea224fe,,,,,,,,,1717,-49,40,1,0,0,response7disk,,1,2,1,1,0,0,rectangle,2,1,1,0,0,2,1,1,0,0,1,74,234,59,1,,,,,,,,
,,,,,,,,,,,,,FF,,,,,,,,1.2003,,,,,,,,,,,,,,,,,,,,,,60fda0b5ea8a7ac21b66863d,61036f21debbc760859cd3d1,2021-07-29_23h19.28.177,Simcolourproject_2stim_asymm_v5,2020.2.10,Win32,60,61025ae37ef11b136ea224fe,,,,,,,,,141,-51,69,1,0,0,response7disk,,0,-21,-2,1,0,0,rectangle,-21,-2,1,0,0,-21,-2,1,0,0,1,75,235,1,1,,,,,,,,
,,,,,,,,,,,,,FF,,,,,,,,0.5012,,,,,,,,,,,,,,,,,,,,,,60fda0b5ea8a7ac21b66863d,61036f21debbc760859cd3d1,2021-07-29_23h19.28.177,Simcolourproject_2stim_asymm_v5,2020.2.10,Win32,60,61025ae37ef11b136ea224fe,,,,,,,,,318,-29,73,1,0,0,response7disk,,0,2,5,1,0,0,rectangle,2,5,1,0,0,2,5,1,0,0,1,76,236,84,1,,,,,,,,
,,,,,,,,,,,,,FF,,,,,,,,0.9221,,,,,,,,,,,,,,,,,,,,,,60fda0b5ea8a7ac21b66863d,61036f21debbc760859cd3d1,2021-07-29_23h19.28.177,Simcolourproject_2stim_asymm_v5,2020.2.10,Win32,60,61025ae37ef11b136ea224fe,,,,,,,,,4037,-69,32,1,0,0,response7disk,,1,19,-12,1,0,0,rectangle,19,-12,1,0,0,19,-12,1,0,0,1,77,237,20,1,,,,,,,,
,,,,,,,,,,,,,FF,,,,,,,,0.8669,,,,,,,,,,,,,,,,,,,,,,60fda0b5ea8a7ac21b66863d,61036f21debbc760859cd3d1,2021-07-29_23h19.28.177,Simcolourproject_2stim_asymm_v5,2020.2.10,Win32,60,61025ae37ef11b136ea224fe,,,,,,,,,790,-65,42,1,0,0,response7disk,,1,3,3,1,0,0,rectangle,3,3,1,0,0,3,3,1,0,0,1,78,238,49,1,,,,,,,,
,,,,,,,,,,,,,FF,,,,,,,,0.702,,,,,,,,,,,,,,,,,,,,,,60fda0b5ea8a7ac21b66863d,61036f21debbc760859cd3d1,2021-07-29_23h19.28.177,Simcolourproject_2stim_asymm_v5,2020.2.10,Win32,60,61025ae37ef11b136ea224fe,,,,,,,,,2624,-24,51,1,0,0,response7disk,,0,-3,2,1,0,0,rectangle,-3,2,1,0,0,-3,2,1,0,0,1,79,239,46,1,,,,,,,,
,,,,,,,,,,,,,FF,,,,,,,,1.0523,,,,,,,,,,,,,,,,,,,,,,60fda0b5ea8a7ac21b66863d,61036f21debbc760859cd3d1,2021-07-29_23h19.28.177,Simcolourproject_2stim_asymm_v5,2020.2.10,Win32,60,61025ae37ef11b136ea224fe,,,,,,,,,1470,-46,-86,1,0,0,response5disk,,3,-2,14,1,0,0,rectangle,-2,14,1,0,0,-2,14,1,0,0,1,80,240,129,1,,,,,,,,
,,,,,,,,,,,,,FF,,,,,,,,1.7521,,,,,,,,,,,,,,,,,,,,,,60fda0b5ea8a7ac21b66863d,61036f21debbc760859cd3d1,2021-07-29_23h19.28.177,Simcolourproject_2stim_asymm_v5,2020.2.10,Win32,60,61025ae37ef11b136ea224fe,,,,,,,,,2190,-55,51,1,0,0,response7disk,,1,0,6,1,0,0,rectangle,0,6,1,0,0,0,6,1,0,0,1,81,241,142,1,,,,,,,,
,,,,,,,,,,,,,FF,,,,,,,,1.2173,,,,,,,,,,,,,,,,,,,,,,60fda0b5ea8a7ac21b66863d,61036f21debbc760859cd3d1,2021-07-29_23h19.28.177,Simcolourproject_2stim_asymm_v5,2020.2.10,Win32,60,61025ae37ef11b136ea224fe,,,,,,,,,33,-34,58,1,0,0,response7disk,,0,-16,-11,1,0,0,rectangle,-16,-11,1,0,0,-16,-11,1,0,0,1,82,242,32,1,,,,,,,,
,,,,,,,,,,,,,FF,,,,,,,,0.652,,,,,,,,,,,,,,,,,,,,,,60fda0b5ea8a7ac21b66863d,61036f21debbc760859cd3d1,2021-07-29_23h19.28.177,Simcolourproject_2stim_asymm_v5,2020.2.10,Win32,60,61025ae37ef11b136ea224fe,,,,,,,,,2329,-26,43,1,0,0,response7disk,,0,-13,8,1,0,0,rectangle,-13,8,1,0,0,-13,8,1,0,0,1,83,243,12,1,,,,,,,,
,,,,,,,,,,,,,FF,,,,,,,,0.7502,,,,,,,,,,,,,,,,,,,,,,60fda0b5ea8a7ac21b66863d,61036f21debbc760859cd3d1,2021-07-29_23h19.28.177,Simcolourproject_2stim_asymm_v5,2020.2.10,Win32,60,61025ae37ef11b136ea224fe,,,,,,,,,1436,-48,29,1,0,0,response7disk,,1,7,-9,1,0,0,rectangle,7,-9,1,0,0,7,-9,1,0,0,1,84,244,130,1,,,,,,,,
,,,,,,,,,,,,,FF,,,,,,,,0.8986,,,,,,,,,,,,,,,,,,,,,,60fda0b5ea8a7ac21b66863d,61036f21debbc760859cd3d1,2021-07-29_23h19.28.177,Simcolourproject_2stim_asymm_v5,2020.2.10,Win32,60,61025ae37ef11b136ea224fe,,,,,,,,,4014,-17,73,1,0,0,response7disk,,0,-25,-13,1,0,0,rectangle,-25,-13,1,0,0,-25,-13,1,0,0,1,85,245,101,1,,,,,,,,
,,,,,,,,,,,,,FF,,,,,,,,1.2201,,,,,,,,,,,,,,,,,,,,,,60fda0b5ea8a7ac21b66863d,61036f21debbc760859cd3d1,2021-07-29_23h19.28.177,Simcolourproject_2stim_asymm_v5,2020.2.10,Win32,60,61025ae37ef11b136ea224fe,,,,,,,,,3461,-55,23,1,0,0,response7disk,,1,-3,10,1,0,0,rectangle,-3,10,1,0,0,-3,10,1,0,0,1,86,246,61,1,,,,,,,,
,,,,,,,,,,,,,FF,,,,,,,,1.1319,,,,,,,,,,,,,,,,,,,,,,60fda0b5ea8a7ac21b66863d,61036f21debbc760859cd3d1,2021-07-29_23h19.28.177,Simcolourproject_2stim_asymm_v5,2020.2.10,Win32,60,61025ae37ef11b136ea224fe,,,,,,,,,432,-31,-95,1,0,0,response5disk,,3,18,-6,1,0,0,rectangle,18,-6,1,0,0,18,-6,1,0,0,1,87,247,151,1,,,,,,,,
,,,,,,,,,,,,,FF,,,,,,,,1.0021,,,,,,,,,,,,,,,,,,,,,,60fda0b5ea8a7ac21b66863d,61036f21debbc760859cd3d1,2021-07-29_23h19.28.177,Simcolourproject_2stim_asymm_v5,2020.2.10,Win32,60,61025ae37ef11b136ea224fe,,,,,,,,,2633,-37,73,1,0,0,response7disk,,0,2,-2,1,0,0,rectangle,2,-2,1,0,0,2,-2,1,0,0,1,88,248,72,1,,,,,,,,
,,,,,,,,,,,,,FF,,,,,,,,0.5673,,,,,,,,,,,,,,,,,,,,,,60fda0b5ea8a7ac21b66863d,61036f21debbc760859cd3d1,2021-07-29_23h19.28.177,Simcolourproject_2stim_asymm_v5,2020.2.10,Win32,60,61025ae37ef11b136ea224fe,,,,,,,,,3370,-24,73,1,0,0,response7disk,,0,1,-3,1,0,0,rectangle,1,-3,1,0,0,1,-3,1,0,0,1,89,249,103,1,,,,,,,,
,,,,,,,,,,,,,FF,,,,,,,,0.617,,,,,,,,,,,,,,,,,,,,,,60fda0b5ea8a7ac21b66863d,61036f21debbc760859cd3d1,2021-07-29_23h19.28.177,Simcolourproject_2stim_asymm_v5,2020.2.10,Win32,60,61025ae37ef11b136ea224fe,,,,,,,,,1477,-20,52,1,0,0,response7disk,,0,-6,9,1,0,0,rectangle,-6,9,1,0,0,-6,9,1,0,0,1,90,250,138,1,,,,,,,,
,,,,,,,,,,,,,FF,,,,,,,,0.4001,,,,,,,,,,,,,,,,,,,,,,60fda0b5ea8a7ac21b66863d,61036f21debbc760859cd3d1,2021-07-29_23h19.28.177,Simcolourproject_2stim_asymm_v5,2020.2.10,Win32,60,61025ae37ef11b136ea224fe,,,,,,,,,2705,-34,43,1,0,0,response7disk,,0,0,-3,1,0,0,rectangle,0,-3,1,0,0,0,-3,1,0,0,1,91,251,147,1,,,,,,,,
,,,,,,,,,,,,,FF,,,,,,,,1.034,,,,,,,,,,,,,,,,,,,,,,60fda0b5ea8a7ac21b66863d,61036f21debbc760859cd3d1,2021-07-29_23h19.28.177,Simcolourproject_2stim_asymm_v5,2020.2.10,Win32,60,61025ae37ef11b136ea224fe,,,,,,,,,3465,-48,34,1,0,0,response7disk,,1,10,5,1,0,0,rectangle,10,5,1,0,0,10,5,1,0,0,1,92,252,113,1,,,,,,,,
,,,,,,,,,,,,,FF,,,,,,,,0.8355,,,,,,,,,,,,,,,,,,,,,,60fda0b5ea8a7ac21b66863d,61036f21debbc760859cd3d1,2021-07-29_23h19.28.177,Simcolourproject_2stim_asymm_v5,2020.2.10,Win32,60,61025ae37ef11b136ea224fe,,,,,,,,,1529,92,-71,1,0,0,response3disk,,5,0,6,1,0,0,rectangle,0,6,1,0,0,0,6,1,0,0,1,93,253,78,1,,,,,,,,
,,,,,,,,,,,,,FF,,,,,,,,0.6673,,,,,,,,,,,,,,,,,,,,,,60fda0b5ea8a7ac21b66863d,61036f21debbc760859cd3d1,2021-07-29_23h19.28.177,Simcolourproject_2stim_asymm_v5,2020.2.10,Win32,60,61025ae37ef11b136ea224fe,,,,,,,,,2692,-33,56,1,0,0,response7disk,,0,11,-11,1,0,0,rectangle,11,-11,1,0,0,11,-11,1,0,0,1,94,254,90,1,,,,,,,,
,,,,,,,,,,,,,FF,,,,,,,,1.4228,,,,,,,,,,,,,,,,,,,,,,60fda0b5ea8a7ac21b66863d,61036f21debbc760859cd3d1,2021-07-29_23h19.28.177,Simcolourproject_2stim_asymm_v5,2020.2.10,Win32,60,61025ae37ef11b136ea224fe,,,,,,,,,344,-54,-28,1,0,0,response5disk,,2,-7,-1,1,0,0,rectangle,-7,-1,1,0,0,-7,-1,1,0,0,1,95,255,88,1,,,,,,,,
,,,,,,,,,,,,,FF,,,,,,,,0.5821,,,,,,,,,,,,,,,,,,,,,,60fda0b5ea8a7ac21b66863d,61036f21debbc760859cd3d1,2021-07-29_23h19.28.177,Simcolourproject_2stim_asymm_v5,2020.2.10,Win32,60,61025ae37ef11b136ea224fe,,,,,,,,,2766,-26,43,1,0,0,response7disk,,0,2,-7,1,0,0,rectangle,2,-7,1,0,0,2,-7,1,0,0,1,96,256,81,1,,,,,,,,
,,,,,,,,,,,,,FF,,,,,,,,1.0168,,,,,,,,,,,,,,,,,,,,,,60fda0b5ea8a7ac21b66863d,61036f21debbc760859cd3d1,2021-07-29_23h19.28.177,Simcolourproject_2stim_asymm_v5,2020.2.10,Win32,60,61025ae37ef11b136ea224fe,,,,,,,,,3745,-46,-37,1,0,0,response5disk,,2,5,-1,1,0,0,rectangle,5,-1,1,0,0,5,-1,1,0,0,1,97,257,71,1,,,,,,,,
,,,,,,,,,,,,,FF,,,,,,,,0.8313,,,,,,,,,,,,,,,,,,,,,,60fda0b5ea8a7ac21b66863d,61036f21debbc760859cd3d1,2021-07-29_23h19.28.177,Simcolourproject_2stim_asymm_v5,2020.2.10,Win32,60,61025ae37ef11b136ea224fe,,,,,,,,,5,55,-70,1,0,0,response3disk,,4,18,-5,1,0,0,rectangle,54,81,1,0,0,9,6,1,0,0,1,98,258,85,1,,response1disk_3,TRUE,7,7,"[123,188,212,49,51,304,311,42,274,101,223,20,168,38,170,60,68,259,194,53]",1.6234,rectangle
,,,,,,,,,,,,,FF,,,,,,,,0.8836,,,,,,,,,,,,,,,,,,,,,,60fda0b5ea8a7ac21b66863d,61036f21debbc760859cd3d1,2021-07-29_23h19.28.177,Simcolourproject_2stim_asymm_v5,2020.2.10,Win32,60,61025ae37ef11b136ea224fe,,,,,,,,,1518,80,-36,1,0,0,response3disk,,5,11,-7,1,0,0,rectangle,11,-7,1,0,0,11,-7,1,0,0,1,99,259,52,1,,,,,,,,
,,,,,,,,,,,,,FF,,,,,,,,0.6978,,,,,,,,,,,,,,,,,,,,,,60fda0b5ea8a7ac21b66863d,61036f21debbc760859cd3d1,2021-07-29_23h19.28.177,Simcolourproject_2stim_asymm_v5,2020.2.10,Win32,60,61025ae37ef11b136ea224fe,,,,,,,,,501,-38,69,1,0,0,response7disk,,0,-3,-1,1,0,0,rectangle,-3,-1,1,0,0,-3,-1,1,0,0,1,100,260,82,1,,,,,,,,
,,,,,,,,,,,,,FF,,,,,,,,0.7176,,,,,,,,,,,,,,,,,,,,,,60fda0b5ea8a7ac21b66863d,61036f21debbc760859cd3d1,2021-07-29_23h19.28.177,Simcolourproject_2stim_asymm_v5,2020.2.10,Win32,60,61025ae37ef11b136ea224fe,,,,,,,,,1594,82,-51,1,0,0,response3disk,,5,5,-3,1,0,0,rectangle,5,-3,1,0,0,5,-3,1,0,0,1,101,261,50,1,,,,,,,,
,,,,,,,,,,,,,FF,,,,,,,,0.5503,,,,,,,,,,,,,,,,,,,,,,60fda0b5ea8a7ac21b66863d,61036f21debbc760859cd3d1,2021-07-29_23h19.28.177,Simcolourproject_2stim_asymm_v5,2020.2.10,Win32,60,61025ae37ef11b136ea224fe,,,,,,,,,3540,-24,56,1,0,0,response7disk,,0,-4,5,1,0,0,rectangle,-4,5,1,0,0,-4,5,1,0,0,1,102,262,67,1,,,,,,,,
,,,,,,,,,,,,,FF,,,,,,,,1.3001,,,,,,,,,,,,,,,,,,,,,,60fda0b5ea8a7ac21b66863d,61036f21debbc760859cd3d1,2021-07-29_23h19.28.177,Simcolourproject_2stim_asymm_v5,2020.2.10,Win32,60,61025ae37ef11b136ea224fe,,,,,,,,,64,-52,-24,1,0,0,response5disk,,2,-12,-7,1,0,0,rectangle,-12,-7,1,0,0,-12,-7,1,0,0,1,103,263,98,1,,,,,,,,
,,,,,,,,,,,,,FF,,,,,,,,0.638,,,,,,,,,,,,,,,,,,,,,,60fda0b5ea8a7ac21b66863d,61036f21debbc760859cd3d1,2021-07-29_23h19.28.177,Simcolourproject_2stim_asymm_v5,2020.2.10,Win32,60,61025ae37ef11b136ea224fe,,,,,,,,,686,-83,-51,1,0,0,response5disk,,2,-3,-11,1,0,0,rectangle,-3,-11,1,0,0,-3,-11,1,0,0,1,104,264,137,1,,,,,,,,
,,,,,,,,,,,,,FF,,,,,,,,1.6834,,,,,,,,,,,,,,,,,,,,,,60fda0b5ea8a7ac21b66863d,61036f21debbc760859cd3d1,2021-07-29_23h19.28.177,Simcolourproject_2stim_asymm_v5,2020.2.10,Win32,60,61025ae37ef11b136ea224fe,,,,,,,,,4359,-45,-26,1,0,0,response5disk,,2,-22,-7,1,0,0,rectangle,-22,-7,1,0,0,-22,-7,1,0,0,1,105,265,22,1,,,,,,,,
,,,,,,,,,,,,,FF,,,,,,,,1.5496,,,,,,,,,,,,,,,,,,,,,,60fda0b5ea8a7ac21b66863d,61036f21debbc760859cd3d1,2021-07-29_23h19.28.177,Simcolourproject_2stim_asymm_v5,2020.2.10,Win32,60,61025ae37ef11b136ea224fe,,,,,,,,,367,86,52,1,0,0,response1disk,,6,-7,-1,1,0,0,rectangle,-7,-1,1,0,0,-7,-1,1,0,0,1,106,266,14,1,,,,,,,,
,,,,,,,,,,,,,FF,,,,,,,,1.0867,,,,,,,,,,,,,,,,,,,,,,60fda0b5ea8a7ac21b66863d,61036f21debbc760859cd3d1,2021-07-29_23h19.28.177,Simcolourproject_2stim_asymm_v5,2020.2.10,Win32,60,61025ae37ef11b136ea224fe,,,,,,,,,742,45,-83,1,0,0,response3disk,,4,0,11,1,0,0,rectangle,0,11,1,0,0,0,11,1,0,0,1,107,267,102,1,,,,,,,,
,,,,,,,,,,,,,FF,,,,,,,,0.4993,,,,,,,,,,,,,,,,,,,,,,60fda0b5ea8a7ac21b66863d,61036f21debbc760859cd3d1,2021-07-29_23h19.28.177,Simcolourproject_2stim_asymm_v5,2020.2.10,Win32,60,61025ae37ef11b136ea224fe,,,,,,,,,1986,-36,43,1,0,0,response7disk,,0,-7,-3,1,0,0,rectangle,-7,-3,1,0,0,-7,-3,1,0,0,1,108,268,134,1,,,,,,,,
,,,,,,,,,,,,,FF,,,,,,,,2.1002,,,,,,,,,,,,,,,,,,,,,,60fda0b5ea8a7ac21b66863d,61036f21debbc760859cd3d1,2021-07-29_23h19.28.177,Simcolourproject_2stim_asymm_v5,2020.2.10,Win32,60,61025ae37ef11b136ea224fe,,,,,,,,,2932,36,-71,1,0,0,response3disk,,4,0,5,1,0,0,rectangle,0,5,1,0,0,0,5,1,0,0,1,109,269,104,1,,,,,,,,
,,,,,,,,,,,,,FF,,,,,,,,1.1869,,,,,,,,,,,,,,,,,,,,,,60fda0b5ea8a7ac21b66863d,61036f21debbc760859cd3d1,2021-07-29_23h19.28.177,Simcolourproject_2stim_asymm_v5,2020.2.10,Win32,60,61025ae37ef11b136ea224fe,,,,,,,,,1290,45,73,1,0,0,response1disk,,7,7,14,1,0,0,rectangle,7,14,1,0,0,7,14,1,0,0,1,110,270,127,1,,,,,,,,
,,,,,,,,,,,,,FF,,,,,,,,0.6172,,,,,,,,,,,,,,,,,,,,,,60fda0b5ea8a7ac21b66863d,61036f21debbc760859cd3d1,2021-07-29_23h19.28.177,Simcolourproject_2stim_asymm_v5,2020.2.10,Win32,60,61025ae37ef11b136ea224fe,,,,,,,,,3963,-25,55,1,0,0,response7disk,,0,4,-10,1,0,0,rectangle,4,-10,1,0,0,4,-10,1,0,0,1,111,271,154,1,,,,,,,,
,,,,,,,,,,,,,FF,,,,,,,,0.8199,,,,,,,,,,,,,,,,,,,,,,60fda0b5ea8a7ac21b66863d,61036f21debbc760859cd3d1,2021-07-29_23h19.28.177,Simcolourproject_2stim_asymm_v5,2020.2.10,Win32,60,61025ae37ef11b136ea224fe,,,,,,,,,1299,83,-46,1,0,0,response3disk,,5,-3,-5,1,0,0,rectangle,-3,-5,1,0,0,-3,-5,1,0,0,1,112,272,24,1,,,,,,,,
,,,,,,,,,,,,,FF,,,,,,,,0.6174,,,,,,,,,,,,,,,,,,,,,,60fda0b5ea8a7ac21b66863d,61036f21debbc760859cd3d1,2021-07-29_23h19.28.177,Simcolourproject_2stim_asymm_v5,2020.2.10,Win32,60,61025ae37ef11b136ea224fe,,,,,,,,,3953,-25,73,1,0,0,response7disk,,0,10,-1,1,0,0,rectangle,84,-54,1,0,0,19,-3,1,0,0,1,113,273,87,1,,response3disk_3,TRUE,5,5,"[123,188,212,49,51,304,311,42,274,101,223,20,168,38,170,60,68,259,194,53]",1.3998,rectangle
,,,,,,,,,,,,,FF,,,,,,,,0.9838,,,,,,,,,,,,,,,,,,,,,,60fda0b5ea8a7ac21b66863d,61036f21debbc760859cd3d1,2021-07-29_23h19.28.177,Simcolourproject_2stim_asymm_v5,2020.2.10,Win32,60,61025ae37ef11b136ea224fe,,,,,,,,,1157,99,-62,1,0,0,response3disk,,5,14,-3,1,0,0,rectangle,14,-3,1,0,0,14,-3,1,0,0,1,114,274,100,1,,,,,,,,
,,,,,,,,,,,,,FF,,,,,,,,0.9359,,,,,,,,,,,,,,,,,,,,,,60fda0b5ea8a7ac21b66863d,61036f21debbc760859cd3d1,2021-07-29_23h19.28.177,Simcolourproject_2stim_asymm_v5,2020.2.10,Win32,60,61025ae37ef11b136ea224fe,,,,,,,,,3456,-46,108,1,0,0,response7disk,,0,15,6,1,0,0,rectangle,15,6,1,0,0,15,6,1,0,0,1,115,275,60,1,,,,,,,,
,,,,,,,,,,,,,FF,,,,,,,,0.821,,,,,,,,,,,,,,,,,,,,,,60fda0b5ea8a7ac21b66863d,61036f21debbc760859cd3d1,2021-07-29_23h19.28.177,Simcolourproject_2stim_asymm_v5,2020.2.10,Win32,60,61025ae37ef11b136ea224fe,,,,,,,,,1410,-79,28,1,0,0,response7disk,,1,26,4,1,0,0,rectangle,26,4,1,0,0,26,4,1,0,0,1,116,276,42,1,,,,,,,,
,,,,,,,,,,,,,FF,,,,,,,,0.4681,,,,,,,,,,,,,,,,,,,,,,60fda0b5ea8a7ac21b66863d,61036f21debbc760859cd3d1,2021-07-29_23h19.28.177,Simcolourproject_2stim_asymm_v5,2020.2.10,Win32,60,61025ae37ef11b136ea224fe,,,,,,,,,2640,-36,23,1,0,0,response7disk,,1,3,-4,1,0,0,rectangle,3,-4,1,0,0,3,-4,1,0,0,1,117,277,111,1,,,,,,,,
,,,,,,,,,,,,,FF,,,,,,,,0.7845,,,,,,,,,,,,,,,,,,,,,,60fda0b5ea8a7ac21b66863d,61036f21debbc760859cd3d1,2021-07-29_23h19.28.177,Simcolourproject_2stim_asymm_v5,2020.2.10,Win32,60,61025ae37ef11b136ea224fe,,,,,,,,,1307,70,-44,1,0,0,response3disk,,5,4,9,1,0,0,rectangle,4,9,1,0,0,4,9,1,0,0,1,118,278,34,1,,,,,,,,
,,,,,,,,,,,,,FF,,,,,,,,1.2373,,,,,,,,,,,,,,,,,,,,,,60fda0b5ea8a7ac21b66863d,61036f21debbc760859cd3d1,2021-07-29_23h19.28.177,Simcolourproject_2stim_asymm_v5,2020.2.10,Win32,60,61025ae37ef11b136ea224fe,,,,,,,,,1803,-21,-41,1,0,0,response5disk,,3,5,1,1,0,0,rectangle,5,1,1,0,0,5,1,1,0,0,1,119,279,99,1,,,,,,,,
,,,,,,,,,,,,,FF,,,,,,,,0.7706,,,,,,,,,,,,,,,,,,,,,,60fda0b5ea8a7ac21b66863d,61036f21debbc760859cd3d1,2021-07-29_23h19.28.177,Simcolourproject_2stim_asymm_v5,2020.2.10,Win32,60,61025ae37ef11b136ea224fe,,,,,,,,,1346,-28,69,1,0,0,response7disk,,0,6,-3,1,0,0,rectangle,6,-3,1,0,0,6,-3,1,0,0,1,120,280,62,1,,,,,,,,
,,,,,,,,,,,,,FF,,,,,,,,1.2034,,,,,,,,,,,,,,,,,,,,,,60fda0b5ea8a7ac21b66863d,61036f21debbc760859cd3d1,2021-07-29_23h19.28.177,Simcolourproject_2stim_asymm_v5,2020.2.10,Win32,60,61025ae37ef11b136ea224fe,,,,,,,,,1700,-67,38,1,0,0,response7disk,,1,23,6,1,0,0,rectangle,23,6,1,0,0,23,6,1,0,0,1,121,281,17,1,,,,,,,,
,,,,,,,,,,,,,FF,,,,,,,,1.0713,,,,,,,,,,,,,,,,,,,,,,60fda0b5ea8a7ac21b66863d,61036f21debbc760859cd3d1,2021-07-29_23h19.28.177,Simcolourproject_2stim_asymm_v5,2020.2.10,Win32,60,61025ae37ef11b136ea224fe,,,,,,,,,882,-45,-99,1,0,0,response5disk,,3,-4,2,1,0,0,rectangle,-4,2,1,0,0,-4,2,1,0,0,1,122,282,63,1,,,,,,,,
,,,,,,,,,,,,,FF,,,,,,,,1.037,,,,,,,,,,,,,,,,,,,,,,60fda0b5ea8a7ac21b66863d,61036f21debbc760859cd3d1,2021-07-29_23h19.28.177,Simcolourproject_2stim_asymm_v5,2020.2.10,Win32,60,61025ae37ef11b136ea224fe,,,,,,,,,931,-74,-46,1,0,0,response5disk,,2,-11,-13,1,0,0,rectangle,-11,-13,1,0,0,-11,-13,1,0,0,1,123,283,37,1,,,,,,,,
,,,,,,,,,,,,,FF,,,,,,,,1.3684,,,,,,,,,,,,,,,,,,,,,,60fda0b5ea8a7ac21b66863d,61036f21debbc760859cd3d1,2021-07-29_23h19.28.177,Simcolourproject_2stim_asymm_v5,2020.2.10,Win32,60,61025ae37ef11b136ea224fe,,,,,,,,,4357,91,-60,1,0,0,response3disk,,5,18,-11,1,0,0,rectangle,18,-11,1,0,0,18,-11,1,0,0,1,124,284,118,1,,,,,,,,
,,,,,,,,,,,,,FF,,,,,,,,0.6339,,,,,,,,,,,,,,,,,,,,,,60fda0b5ea8a7ac21b66863d,61036f21debbc760859cd3d1,2021-07-29_23h19.28.177,Simcolourproject_2stim_asymm_v5,2020.2.10,Win32,60,61025ae37ef11b136ea224fe,,,,,,,,,1386,80,35,1,0,0,response1disk,,6,-11,9,1,0,0,rectangle,-11,9,1,0,0,-11,9,1,0,0,1,125,285,128,1,,,,,,,,
,,,,,,,,,,,,,FF,,,,,,,,1.036,,,,,,,,,,,,,,,,,,,,,,60fda0b5ea8a7ac21b66863d,61036f21debbc760859cd3d1,2021-07-29_23h19.28.177,Simcolourproject_2stim_asymm_v5,2020.2.10,Win32,60,61025ae37ef11b136ea224fe,,,,,,,,,2051,-89,-37,1,0,0,response5disk,,2,-22,-14,1,0,0,rectangle,-22,-14,1,0,0,-22,-14,1,0,0,1,126,286,122,1,,,,,,,,
,,,,,,,,,,,,,FF,,,,,,,,1.3203,,,,,,,,,,,,,,,,,,,,,,60fda0b5ea8a7ac21b66863d,61036f21debbc760859cd3d1,2021-07-29_23h19.28.177,Simcolourproject_2stim_asymm_v5,2020.2.10,Win32,60,61025ae37ef11b136ea224fe,,,,,,,,,3908,100,34,1,0,0,response1disk,,6,-24,-10,1,0,0,rectangle,-24,-10,1,0,0,-24,-10,1,0,0,1,127,287,136,1,,,,,,,,
,,,,,,,,,,,,,FF,,,,,,,,0.7337,,,,,,,,,,,,,,,,,,,,,,60fda0b5ea8a7ac21b66863d,61036f21debbc760859cd3d1,2021-07-29_23h19.28.177,Simcolourproject_2stim_asymm_v5,2020.2.10,Win32,60,61025ae37ef11b136ea224fe,,,,,,,,,2842,-58,26,1,0,0,response7disk,,1,30,-1,1,0,0,rectangle,30,-1,1,0,0,30,-1,1,0,0,1,128,288,36,1,,,,,,,,
,,,,,,,,,,,,,FF,,,,,,,,1.619,,,,,,,,,,,,,,,,,,,,,,60fda0b5ea8a7ac21b66863d,61036f21debbc760859cd3d1,2021-07-29_23h19.28.177,Simcolourproject_2stim_asymm_v5,2020.2.10,Win32,60,61025ae37ef11b136ea224fe,,,,,,,,,4116,21,-82,1,0,0,response3disk,,4,6,-3,1,0,0,rectangle,6,-3,1,0,0,6,-3,1,0,0,1,129,289,108,1,,,,,,,,
,,,,,,,,,,,,,FF,,,,,,,,0.9832,,,,,,,,,,,,,,,,,,,,,,60fda0b5ea8a7ac21b66863d,61036f21debbc760859cd3d1,2021-07-29_23h19.28.177,Simcolourproject_2stim_asymm_v5,2020.2.10,Win32,60,61025ae37ef11b136ea224fe,,,,,,,,,2945,78,-21,1,0,0,response3disk,,5,19,8,1,0,0,rectangle,19,8,1,0,0,19,8,1,0,0,1,130,290,64,1,,,,,,,,
,,,,,,,,,,,,,FF,,,,,,,,1.5175,,,,,,,,,,,,,,,,,,,,,,60fda0b5ea8a7ac21b66863d,61036f21debbc760859cd3d1,2021-07-29_23h19.28.177,Simcolourproject_2stim_asymm_v5,2020.2.10,Win32,60,61025ae37ef11b136ea224fe,,,,,,,,,1667,-68,-56,1,0,0,response5disk,,2,27,8,1,0,0,rectangle,27,8,1,0,0,27,8,1,0,0,1,131,291,76,1,,,,,,,,
,,,,,,,,,,,,,FF,,,,,,,,0.9002,,,,,,,,,,,,,,,,,,,,,,60fda0b5ea8a7ac21b66863d,61036f21debbc760859cd3d1,2021-07-29_23h19.28.177,Simcolourproject_2stim_asymm_v5,2020.2.10,Win32,60,61025ae37ef11b136ea224fe,,,,,,,,,3938,88,38,1,0,0,response1disk,,6,-9,11,1,0,0,rectangle,-9,11,1,0,0,-9,11,1,0,0,1,132,292,121,1,,,,,,,,
,,,,,,,,,,,,,FF,,,,,,,,0.6013,,,,,,,,,,,,,,,,,,,,,,60fda0b5ea8a7ac21b66863d,61036f21debbc760859cd3d1,2021-07-29_23h19.28.177,Simcolourproject_2stim_asymm_v5,2020.2.10,Win32,60,61025ae37ef11b136ea224fe,,,,,,,,,3616,-31,60,1,0,0,response7disk,,0,-2,7,1,0,0,rectangle,-2,7,1,0,0,-2,7,1,0,0,1,133,293,40,1,,,,,,,,
,,,,,,,,,,,,,FF,,,,,,,,1.1354,,,,,,,,,,,,,,,,,,,,,,60fda0b5ea8a7ac21b66863d,61036f21debbc760859cd3d1,2021-07-29_23h19.28.177,Simcolourproject_2stim_asymm_v5,2020.2.10,Win32,60,61025ae37ef11b136ea224fe,,,,,,,,,130,-39,55,1,0,0,response7disk,,0,-10,0,1,0,0,rectangle,-10,0,1,0,0,-10,0,1,0,0,1,134,294,77,1,,,,,,,,
,,,,,,,,,,,,,FF,,,,,,,,0.6543,,,,,,,,,,,,,,,,,,,,,,60fda0b5ea8a7ac21b66863d,61036f21debbc760859cd3d1,2021-07-29_23h19.28.177,Simcolourproject_2stim_asymm_v5,2020.2.10,Win32,60,61025ae37ef11b136ea224fe,,,,,,,,,1478,-17,71,1,0,0,response7disk,,0,-11,-2,1,0,0,rectangle,-11,-2,1,0,0,-11,-2,1,0,0,1,135,295,95,1,,,,,,,,
,,,,,,,,,,,,,FF,,,,,,,,1.534,,,,,,,,,,,,,,,,,,,,,,60fda0b5ea8a7ac21b66863d,61036f21debbc760859cd3d1,2021-07-29_23h19.28.177,Simcolourproject_2stim_asymm_v5,2020.2.10,Win32,60,61025ae37ef11b136ea224fe,,,,,,,,,4139,-77,-45,1,0,0,response5disk,,2,7,12,1,0,0,rectangle,7,12,1,0,0,7,12,1,0,0,1,136,296,55,1,,,,,,,,
,,,,,,,,,,,,,FF,,,,,,,,0.7853,,,,,,,,,,,,,,,,,,,,,,60fda0b5ea8a7ac21b66863d,61036f21debbc760859cd3d1,2021-07-29_23h19.28.177,Simcolourproject_2stim_asymm_v5,2020.2.10,Win32,60,61025ae37ef11b136ea224fe,,,,,,,,,3803,-22,42,1,0,0,response7disk,,0,-2,1,1,0,0,rectangle,-2,1,1,0,0,-2,1,1,0,0,1,137,297,145,1,,,,,,,,
,,,,,,,,,,,,,FF,,,,,,,,1.4423,,,,,,,,,,,,,,,,,,,,,,60fda0b5ea8a7ac21b66863d,61036f21debbc760859cd3d1,2021-07-29_23h19.28.177,Simcolourproject_2stim_asymm_v5,2020.2.10,Win32,60,61025ae37ef11b136ea224fe,,,,,,,,,63,45,-71,1,0,0,response3disk,,4,16,-11,1,0,0,rectangle,16,-11,1,0,0,16,-11,1,0,0,1,138,298,131,1,,,,,,,,
,,,,,,,,,,,,,FF,,,,,,,,1.0341,,,,,,,,,,,,,,,,,,,,,,60fda0b5ea8a7ac21b66863d,61036f21debbc760859cd3d1,2021-07-29_23h19.28.177,Simcolourproject_2stim_asymm_v5,2020.2.10,Win32,60,61025ae37ef11b136ea224fe,,,,,,,,,2037,84,-33,1,0,0,response3disk,,5,29,2,1,0,0,rectangle,29,2,1,0,0,29,2,1,0,0,1,139,299,68,1,,,,,,,,
,,,,,,,,,,,,,FF,,,,,,,,0.6525,,,,,,,,,,,,,,,,,,,,,,60fda0b5ea8a7ac21b66863d,61036f21debbc760859cd3d1,2021-07-29_23h19.28.177,Simcolourproject_2stim_asymm_v5,2020.2.10,Win32,60,61025ae37ef11b136ea224fe,,,,,,,,,188,67,15,1,0,0,response1disk,,6,19,-1,1,0,0,rectangle,19,-1,1,0,0,19,-1,1,0,0,1,140,300,133,1,,,,,,,,
,,,,,,,,,,,,,FF,,,,,,,,0.7706,,,,,,,,,,,,,,,,,,,,,,60fda0b5ea8a7ac21b66863d,61036f21debbc760859cd3d1,2021-07-29_23h19.28.177,Simcolourproject_2stim_asymm_v5,2020.2.10,Win32,60,61025ae37ef11b136ea224fe,,,,,,,,,2345,-24,52,1,0,0,response7disk,,0,15,-2,1,0,0,rectangle,15,-2,1,0,0,15,-2,1,0,0,1,141,301,153,1,,,,,,,,
,,,,,,,,,,,,,FF,,,,,,,,0.805,,,,,,,,,,,,,,,,,,,,,,60fda0b5ea8a7ac21b66863d,61036f21debbc760859cd3d1,2021-07-29_23h19.28.177,Simcolourproject_2stim_asymm_v5,2020.2.10,Win32,60,61025ae37ef11b136ea224fe,,,,,,,,,320,-24,50,1,0,0,response7disk,,0,-1,-13,1,0,0,rectangle,-1,-13,1,0,0,-1,-13,1,0,0,1,142,302,126,1,,,,,,,,
