key_resp.keys,key_resp.rt,key_resp_14.keys,key_resp_14.rt,key_resp_15.keys,key_resp_15.rt,key_resp_17.keys,key_resp_17.rt,key_resp_9.keys,key_resp_9.rt,key_resp_10.keys,key_resp_10.rt,practice_comparison,Ecc,mouse_5.x,mouse_5.y,mouse_5.leftButton,mouse_5.midButton,mouse_5.rightButton,mouse_5.clicked_name,pracsimilarity,response_time,mouse_10.x,mouse_10.y,mouse_10.leftButton,mouse_10.midButton,mouse_10.rightButton,mouse_10.clicked_name,mouse_7.x,mouse_7.y,mouse_7.leftButton,mouse_7.midButton,mouse_7.rightButton,mouse_6.x,mouse_6.y,mouse_6.leftButton,mouse_6.midButton,mouse_6.rightButton,duringprac.thisRepN,duringprac.thisTrialN,duringprac.thisN,duringprac.thisIndex,duringprac.ran,participant,session,date,expName,psychopyVersion,OS,frameRate,study_id,mouse_7.clicked_name,catchpracsimilarity,catch_response_time,catchnumberprac,catchtrialorderprac,mouse_6.clicked_name,key_resp_22.keys,key_resp_22.rt,realcomparison,mouse.x,mouse.y,mouse.leftButton,mouse.midButton,mouse.rightButton,mouse.clicked_name,Colour2,similarity,mouse_2.x,mouse_2.y,mouse_2.leftButton,mouse_2.midButton,mouse_2.rightButton,mouse_2.clicked_name,mouse_3.x,mouse_3.y,mouse_3.leftButton,mouse_3.midButton,mouse_3.rightButton,mouse_11.x,mouse_11.y,mouse_11.leftButton,mouse_11.midButton,mouse_11.rightButton,trials_2.thisRepN,trials_2.thisTrialN,trials_2.thisN,trials_2.thisIndex,trials_2.ran,Colour1,mouse_3.clicked_name,catchornah,catchsimilarity,catchnumber,catchtrialorder,catchRT,mouse_11.clicked_name
space,1.2772,space,1.5016,space,8.0352,space,0.6526,space,0.5198,space,3.2802,150,FF,99.19946289,59.38690186,1,0,0,response1disk_5,6,6.2247,15.26568604,-6.129455566,1,0,0,rectangle_8,15.26568604,-6.129455566,1,0,0,15.26568604,-6.129455566,1,0,0,0,0,0,5,1,60fd8ca930ae2235452962a2,6103795fa44862f47913e48f,2021-07-29_21h03.59.324,Simcolourproject_2stim_asymm_v5,2020.2.10,MacIntel,60,61025ae37ef11b136ea224fe,,,,,,,,,,,,,,,,,,,,,,,,,,,,,,,,,,,,,,,,,,,,,,
,,,,,,,,,,,,101,PF,-94.54370117,36.61611938,1,0,0,response7disk_5,1,2.2686,-7.424560547,-0.673248291,1,0,0,rectangle_8,34.09881592,-86.75372314,1,0,0,13.65808105,-5.078796387,1,0,0,0,1,1,6,1,60fd8ca930ae2235452962a2,6103795fa44862f47913e48f,2021-07-29_21h03.59.324,Simcolourproject_2stim_asymm_v5,2020.2.10,MacIntel,60,61025ae37ef11b136ea224fe,response3disk_7,4,2.2848,4,"[2,5]",rectangle_4,,,,,,,,,,,,,,,,,,,,,,,,,,,,,,,,,,,,,,,,
,,,,,,,,,,,,57,PF,43.46606445,-82.06982422,1,0,0,response3disk_5,4,2.1649,19.20599365,-9.356414795,1,0,0,rectangle_8,19.20599365,-9.356414795,1,0,0,19.20599365,-9.356414795,1,0,0,0,2,2,2,1,60fd8ca930ae2235452962a2,6103795fa44862f47913e48f,2021-07-29_21h03.59.324,Simcolourproject_2stim_asymm_v5,2020.2.10,MacIntel,60,61025ae37ef11b136ea224fe,,,,,,,,,,,,,,,,,,,,,,,,,,,,,,,,,,,,,,,,,,,,,,
,,,,,,,,,,,,140,FF,60.21289063,-88.91668701,1,0,0,response3disk_5,4,2.468,26.70904541,-0.180969238,1,0,0,rectangle_8,26.70904541,-0.180969238,1,0,0,26.70904541,-0.180969238,1,0,0,0,3,3,0,1,60fd8ca930ae2235452962a2,6103795fa44862f47913e48f,2021-07-29_21h03.59.324,Simcolourproject_2stim_asymm_v5,2020.2.10,MacIntel,60,61025ae37ef11b136ea224fe,,,,,,,,,,,,,,,,,,,,,,,,,,,,,,,,,,,,,,,,,,,,,,
,,,,,,,,,,,,91,PF,91.92657471,-28.61230469,1,0,0,response3disk_5,5,2.4965,35.68444824,-1.839447021,1,0,0,rectangle_8,43.51495361,-72.94073486,1,0,0,22.35644531,-3.745483398,1,0,0,0,4,4,4,1,60fd8ca930ae2235452962a2,6103795fa44862f47913e48f,2021-07-29_21h03.59.324,Simcolourproject_2stim_asymm_v5,2020.2.10,MacIntel,60,61025ae37ef11b136ea224fe,response3disk_7,4,1.9987,4,"[2,5]",rectangle_4,,,,,,,,,,,,,,,,,,,,,,,,,,,,,,,,,,,,,,,,
,,,,,,,,,,,,146,PF,64.30096436,78.49404907,1,0,0,response1disk_5,7,1.3835,22.59106445,8.981231689,1,0,0,rectangle_8,22.59106445,8.981231689,1,0,0,22.59106445,8.981231689,1,0,0,0,5,5,1,1,60fd8ca930ae2235452962a2,6103795fa44862f47913e48f,2021-07-29_21h03.59.324,Simcolourproject_2stim_asymm_v5,2020.2.10,MacIntel,60,61025ae37ef11b136ea224fe,,,,,,,,,,,,,,,,,,,,,,,,,,,,,,,,,,,,,,,,,,,,,,
,,,,,,,,,,,,153,FF,-71.20495605,-41.18518066,1,0,0,response5disk_5,2,1.3343,-1.937438965,-17.75210571,1,0,0,rectangle_8,-1.937438965,-17.75210571,1,0,0,-1.937438965,-17.75210571,1,0,0,0,6,6,3,1,60fd8ca930ae2235452962a2,6103795fa44862f47913e48f,2021-07-29_21h03.59.324,Simcolourproject_2stim_asymm_v5,2020.2.10,MacIntel,60,61025ae37ef11b136ea224fe,,,,,,,,,,,,,,,,,,,,,,,,,,,,,,,,,,,,,,,,,,,,,,
,,,,,,,,,,,,,FF,,,,,,,,1.5343,,,,,,,,,,,,,,,,,,,,,,60fd8ca930ae2235452962a2,6103795fa44862f47913e48f,2021-07-29_21h03.59.324,Simcolourproject_2stim_asymm_v5,2020.2.10,MacIntel,60,61025ae37ef11b136ea224fe,,,,,,,space,2.8853,3981,35.91241455,-120.8029175,1,0,0,response3disk,,4,0.904174805,-2.61340332,1,0,0,rectangle,0.904174805,-2.61340332,1,0,0,0.904174805,-2.61340332,1,0,0,0,0,0,27,1,,,,,,,,
,,,,,,,,,,,,,FF,,,,,,,,1.2621,,,,,,,,,,,,,,,,,,,,,,60fd8ca930ae2235452962a2,6103795fa44862f47913e48f,2021-07-29_21h03.59.324,Simcolourproject_2stim_asymm_v5,2020.2.10,MacIntel,60,61025ae37ef11b136ea224fe,,,,,,,,,2736,-41.16381836,-71.62115479,1,0,0,response5disk,,3,7.989501953,9.164245605,1,0,0,rectangle,7.989501953,9.164245605,1,0,0,7.989501953,9.164245605,1,0,0,0,1,1,147,1,,,,,,,,
,,,,,,,,,,,,,FF,,,,,,,,1.2689,,,,,,,,,,,,,,,,,,,,,,60fd8ca930ae2235452962a2,6103795fa44862f47913e48f,2021-07-29_21h03.59.324,Simcolourproject_2stim_asymm_v5,2020.2.10,MacIntel,60,61025ae37ef11b136ea224fe,,,,,,,,,1525,-26.20855713,-60.01037598,1,0,0,response5disk,,3,3.737976074,-3.471343994,1,0,0,rectangle,3.737976074,-3.471343994,1,0,0,3.737976074,-3.471343994,1,0,0,0,2,2,154,1,,,,,,,,
,,,,,,,,,,,,,FF,,,,,,,,2.1655,,,,,,,,,,,,,,,,,,,,,,60fd8ca930ae2235452962a2,6103795fa44862f47913e48f,2021-07-29_21h03.59.324,Simcolourproject_2stim_asymm_v5,2020.2.10,MacIntel,60,61025ae37ef11b136ea224fe,,,,,,,,,981,29.07263184,-70.72955322,1,0,0,response3disk,,4,12.68603516,-6.706451416,1,0,0,rectangle,12.68603516,-6.706451416,1,0,0,12.68603516,-6.706451416,1,0,0,0,3,3,37,1,,,,,,,,
,,,,,,,,,,,,,FF,,,,,,,,1.4636,,,,,,,,,,,,,,,,,,,,,,60fd8ca930ae2235452962a2,6103795fa44862f47913e48f,2021-07-29_21h03.59.324,Simcolourproject_2stim_asymm_v5,2020.2.10,MacIntel,60,61025ae37ef11b136ea224fe,,,,,,,,,2799,40.34747314,-72.25335693,1,0,0,response3disk,,4,19.47314453,-6.606964111,1,0,0,rectangle,19.47314453,-6.606964111,1,0,0,19.47314453,-6.606964111,1,0,0,0,4,4,5,1,,,,,,,,
,,,,,,,,,,,,,FF,,,,,,,,1.1323,,,,,,,,,,,,,,,,,,,,,,60fd8ca930ae2235452962a2,6103795fa44862f47913e48f,2021-07-29_21h03.59.324,Simcolourproject_2stim_asymm_v5,2020.2.10,MacIntel,60,61025ae37ef11b136ea224fe,,,,,,,,,3974,-72.02770996,-25.35305786,1,0,0,response5disk,,2,-3.490844727,-7.519897461,1,0,0,rectangle,-3.490844727,-7.519897461,1,0,0,-3.490844727,-7.519897461,1,0,0,0,5,5,22,1,,,,,,,,
,,,,,,,,,,,,,FF,,,,,,,,5.3472,,,,,,,,,,,,,,,,,,,,,,60fd8ca930ae2235452962a2,6103795fa44862f47913e48f,2021-07-29_21h03.59.324,Simcolourproject_2stim_asymm_v5,2020.2.10,MacIntel,60,61025ae37ef11b136ea224fe,,,,,,,,,2549,-45.51977539,-26.76867676,1,0,0,response5disk,,2,7.399658203,-6.184173584,1,0,0,rectangle,7.399658203,-6.184173584,1,0,0,7.399658203,-6.184173584,1,0,0,0,6,6,101,1,,,,,,,,
,,,,,,,,,,,,,FF,,,,,,,,1.2009,,,,,,,,,,,,,,,,,,,,,,60fd8ca930ae2235452962a2,6103795fa44862f47913e48f,2021-07-29_21h03.59.324,Simcolourproject_2stim_asymm_v5,2020.2.10,MacIntel,60,61025ae37ef11b136ea224fe,,,,,,,,,1726,94.70593262,23.17279053,1,0,0,response1disk,,6,15.43609619,-2.054656982,1,0,0,rectangle,15.43609619,-2.054656982,1,0,0,15.43609619,-2.054656982,1,0,0,0,7,7,149,1,,,,,,,,
,,,,,,,,,,,,,FF,,,,,,,,1.4875,,,,,,,,,,,,,,,,,,,,,,60fd8ca930ae2235452962a2,6103795fa44862f47913e48f,2021-07-29_21h03.59.324,Simcolourproject_2stim_asymm_v5,2020.2.10,MacIntel,60,61025ae37ef11b136ea224fe,,,,,,,,,1302,77.91003418,-52.29803467,1,0,0,response3disk,,5,22.2923584,0.275421143,1,0,0,rectangle,22.2923584,0.275421143,1,0,0,22.2923584,0.275421143,1,0,0,0,8,8,7,1,,,,,,,,
,,,,,,,,,,,,,FF,,,,,,,,1.7868,,,,,,,,,,,,,,,,,,,,,,60fd8ca930ae2235452962a2,6103795fa44862f47913e48f,2021-07-29_21h03.59.324,Simcolourproject_2stim_asymm_v5,2020.2.10,MacIntel,60,61025ae37ef11b136ea224fe,,,,,,,,,4205,-80.83129883,61.2645874,1,0,0,response7disk,,1,22.79333496,-3.439941406,1,0,0,rectangle,22.79333496,-3.439941406,1,0,0,22.79333496,-3.439941406,1,0,0,0,9,9,58,1,,,,,,,,
,,,,,,,,,,,,,FF,,,,,,,,1.1642,,,,,,,,,,,,,,,,,,,,,,60fd8ca930ae2235452962a2,6103795fa44862f47913e48f,2021-07-29_21h03.59.324,Simcolourproject_2stim_asymm_v5,2020.2.10,MacIntel,60,61025ae37ef11b136ea224fe,,,,,,,,,507,88.44403076,37.1713562,1,0,0,response1disk,,6,17.02416992,1.638946533,1,0,0,rectangle,-83.79669189,33.0223999,1,0,0,9.872802734,-4.871948242,1,0,0,0,10,10,127,1,,response7disk_3,TRUE,1,1,"[64,152,51,205,308,130,105,11,233,59,128,152,256,315,188,232,151,207,15,192]",1.5509,rectangle
,,,,,,,,,,,,,FF,,,,,,,,7.0675,,,,,,,,,,,,,,,,,,,,,,60fd8ca930ae2235452962a2,6103795fa44862f47913e48f,2021-07-29_21h03.59.324,Simcolourproject_2stim_asymm_v5,2020.2.10,MacIntel,60,61025ae37ef11b136ea224fe,,,,,,,,,1762,-53.84814453,-38.0791626,1,0,0,response5disk,,2,-7.443664551,-10.17962646,1,0,0,rectangle,-7.443664551,-10.17962646,1,0,0,-7.443664551,-10.17962646,1,0,0,0,11,11,81,1,,,,,,,,
,,,,,,,,,,,,,FF,,,,,,,,1.0171,,,,,,,,,,,,,,,,,,,,,,60fd8ca930ae2235452962a2,6103795fa44862f47913e48f,2021-07-29_21h03.59.324,Simcolourproject_2stim_asymm_v5,2020.2.10,MacIntel,60,61025ae37ef11b136ea224fe,,,,,,,,,4257,35.31884766,54.90429688,1,0,0,response1disk,,7,19.39855957,-7.366088867,1,0,0,rectangle,19.39855957,-7.366088867,1,0,0,19.39855957,-7.366088867,1,0,0,0,12,12,150,1,,,,,,,,
,,,,,,,,,,,,,FF,,,,,,,,1.8317,,,,,,,,,,,,,,,,,,,,,,60fd8ca930ae2235452962a2,6103795fa44862f47913e48f,2021-07-29_21h03.59.324,Simcolourproject_2stim_asymm_v5,2020.2.10,MacIntel,60,61025ae37ef11b136ea224fe,,,,,,,,,1813,-57.43457031,-88.21942139,1,0,0,response5disk,,3,8.987182617,5.84854126,1,0,0,rectangle,8.987182617,5.84854126,1,0,0,8.987182617,5.84854126,1,0,0,0,13,13,50,1,,,,,,,,
,,,,,,,,,,,,,FF,,,,,,,,1.0967,,,,,,,,,,,,,,,,,,,,,,60fd8ca930ae2235452962a2,6103795fa44862f47913e48f,2021-07-29_21h03.59.324,Simcolourproject_2stim_asymm_v5,2020.2.10,MacIntel,60,61025ae37ef11b136ea224fe,,,,,,,,,1815,-30.925354,62.09667969,1,0,0,response7disk,,0,2.899719238,9.778717041,1,0,0,rectangle,-70.0055542,33.27093506,1,0,0,-11.75073242,3.930358887,1,0,0,0,14,14,117,1,,response7disk_3,TRUE,1,1,"[64,152,51,205,308,130,105,11,233,59,128,152,256,315,188,232,151,207,15,192]",1.6303,rectangle
,,,,,,,,,,,,,FF,,,,,,,,1.9325,,,,,,,,,,,,,,,,,,,,,,60fd8ca930ae2235452962a2,6103795fa44862f47913e48f,2021-07-29_21h03.59.324,Simcolourproject_2stim_asymm_v5,2020.2.10,MacIntel,60,61025ae37ef11b136ea224fe,,,,,,,,,234,-36.45281982,-95.31707764,1,0,0,response5disk,,3,-15.82885742,-4.527862549,1,0,0,rectangle,-15.82885742,-4.527862549,1,0,0,-15.82885742,-4.527862549,1,0,0,0,15,15,52,1,,,,,,,,
,,,,,,,,,,,,,FF,,,,,,,,1.0826,,,,,,,,,,,,,,,,,,,,,,60fd8ca930ae2235452962a2,6103795fa44862f47913e48f,2021-07-29_21h03.59.324,Simcolourproject_2stim_asymm_v5,2020.2.10,MacIntel,60,61025ae37ef11b136ea224fe,,,,,,,,,600,60.75415039,49.91299438,1,0,0,response1disk,,6,6.249206543,6.105316162,1,0,0,rectangle,6.249206543,6.105316162,1,0,0,6.249206543,6.105316162,1,0,0,0,16,16,113,1,,,,,,,,
,,,,,,,,,,,,,FF,,,,,,,,10.2795,,,,,,,,,,,,,,,,,,,,,,60fd8ca930ae2235452962a2,6103795fa44862f47913e48f,2021-07-29_21h03.59.324,Simcolourproject_2stim_asymm_v5,2020.2.10,MacIntel,60,61025ae37ef11b136ea224fe,,,,,,,,,3631,38.15319824,-53.09387207,1,0,0,response3disk,,4,-2.489135742,12.16851807,1,0,0,rectangle,-2.489135742,12.16851807,1,0,0,-2.489135742,12.16851807,1,0,0,0,17,17,135,1,,,,,,,,
,,,,,,,,,,,,,FF,,,,,,,,1.2662,,,,,,,,,,,,,,,,,,,,,,60fd8ca930ae2235452962a2,6103795fa44862f47913e48f,2021-07-29_21h03.59.324,Simcolourproject_2stim_asymm_v5,2020.2.10,MacIntel,60,61025ae37ef11b136ea224fe,,,,,,,,,909,-39.61865234,-80.1026001,1,0,0,response5disk,,3,-4.300476074,-5.667510986,1,0,0,rectangle,-4.300476074,-5.667510986,1,0,0,-4.300476074,-5.667510986,1,0,0,0,18,18,39,1,,,,,,,,
,,,,,,,,,,,,,FF,,,,,,,,1.0534,,,,,,,,,,,,,,,,,,,,,,60fd8ca930ae2235452962a2,6103795fa44862f47913e48f,2021-07-29_21h03.59.324,Simcolourproject_2stim_asymm_v5,2020.2.10,MacIntel,60,61025ae37ef11b136ea224fe,,,,,,,,,3807,-52.38336182,-29.56115723,1,0,0,response5disk,,2,0.637634277,-12.11172485,1,0,0,rectangle,0.637634277,-12.11172485,1,0,0,0.637634277,-12.11172485,1,0,0,0,19,19,95,1,,,,,,,,
,,,,,,,,,,,,,FF,,,,,,,,0.9041,,,,,,,,,,,,,,,,,,,,,,60fd8ca930ae2235452962a2,6103795fa44862f47913e48f,2021-07-29_21h03.59.324,Simcolourproject_2stim_asymm_v5,2020.2.10,MacIntel,60,61025ae37ef11b136ea224fe,,,,,,,,,621,47.67541504,79.30969238,1,0,0,response1disk,,7,26.72406006,4.191467285,1,0,0,rectangle,26.72406006,4.191467285,1,0,0,26.72406006,4.191467285,1,0,0,0,20,20,53,1,,,,,,,,
,,,,,,,,,,,,,FF,,,,,,,,1.302,,,,,,,,,,,,,,,,,,,,,,60fd8ca930ae2235452962a2,6103795fa44862f47913e48f,2021-07-29_21h03.59.324,Simcolourproject_2stim_asymm_v5,2020.2.10,MacIntel,60,61025ae37ef11b136ea224fe,,,,,,,,,2304,-31.88983154,-65.54705811,1,0,0,response5disk,,3,13.26812744,-2.898895264,1,0,0,rectangle,13.26812744,-2.898895264,1,0,0,13.26812744,-2.898895264,1,0,0,0,21,21,24,1,,,,,,,,
,,,,,,,,,,,,,FF,,,,,,,,0.946,,,,,,,,,,,,,,,,,,,,,,60fd8ca930ae2235452962a2,6103795fa44862f47913e48f,2021-07-29_21h03.59.324,Simcolourproject_2stim_asymm_v5,2020.2.10,MacIntel,60,61025ae37ef11b136ea224fe,,,,,,,,,1914,53.07574463,-72.13110352,1,0,0,response3disk,,4,17.54742432,-5.937408447,1,0,0,rectangle,17.54742432,-5.937408447,1,0,0,17.54742432,-5.937408447,1,0,0,0,22,22,134,1,,,,,,,,
,,,,,,,,,,,,,FF,,,,,,,,1.7533,,,,,,,,,,,,,,,,,,,,,,60fd8ca930ae2235452962a2,6103795fa44862f47913e48f,2021-07-29_21h03.59.324,Simcolourproject_2stim_asymm_v5,2020.2.10,MacIntel,60,61025ae37ef11b136ea224fe,,,,,,,,,3069,82.20410156,-17.94378662,1,0,0,response3disk,,5,19.50921631,-10.04049683,1,0,0,rectangle,19.50921631,-10.04049683,1,0,0,19.50921631,-10.04049683,1,0,0,0,23,23,68,1,,,,,,,,
,,,,,,,,,,,,,FF,,,,,,,,0.7957,,,,,,,,,,,,,,,,,,,,,,60fd8ca930ae2235452962a2,6103795fa44862f47913e48f,2021-07-29_21h03.59.324,Simcolourproject_2stim_asymm_v5,2020.2.10,MacIntel,60,61025ae37ef11b136ea224fe,,,,,,,,,1068,60.18530273,-31.00231934,1,0,0,response3disk,,5,18.04272461,-13.14343262,1,0,0,rectangle,18.04272461,-13.14343262,1,0,0,18.04272461,-13.14343262,1,0,0,0,24,24,78,1,,,,,,,,
,,,,,,,,,,,,,FF,,,,,,,,0.7648,,,,,,,,,,,,,,,,,,,,,,60fd8ca930ae2235452962a2,6103795fa44862f47913e48f,2021-07-29_21h03.59.324,Simcolourproject_2stim_asymm_v5,2020.2.10,MacIntel,60,61025ae37ef11b136ea224fe,,,,,,,,,3168,33.36755371,-55.09393311,1,0,0,response3disk,,4,20.88983154,-4.066040039,1,0,0,rectangle,20.88983154,-4.066040039,1,0,0,20.88983154,-4.066040039,1,0,0,0,25,25,109,1,,,,,,,,
,,,,,,,,,,,,,FF,,,,,,,,1.3322,,,,,,,,,,,,,,,,,,,,,,60fd8ca930ae2235452962a2,6103795fa44862f47913e48f,2021-07-29_21h03.59.324,Simcolourproject_2stim_asymm_v5,2020.2.10,MacIntel,60,61025ae37ef11b136ea224fe,,,,,,,,,401,63.06164551,-19.55230713,1,0,0,response3disk,,5,23.9309082,-0.30847168,1,0,0,rectangle,23.9309082,-0.30847168,1,0,0,23.9309082,-0.30847168,1,0,0,0,26,26,42,1,,,,,,,,
,,,,,,,,,,,,,FF,,,,,,,,2.4495,,,,,,,,,,,,,,,,,,,,,,60fd8ca930ae2235452962a2,6103795fa44862f47913e48f,2021-07-29_21h03.59.324,Simcolourproject_2stim_asymm_v5,2020.2.10,MacIntel,60,61025ae37ef11b136ea224fe,,,,,,,,,2171,-46.20288086,-94.00738525,1,0,0,response5disk,,3,-7.43963623,0.778900146,1,0,0,rectangle,-7.43963623,0.778900146,1,0,0,-7.43963623,0.778900146,1,0,0,0,27,27,1,1,,,,,,,,
,,,,,,,,,,,,,FF,,,,,,,,1.0148,,,,,,,,,,,,,,,,,,,,,,60fd8ca930ae2235452962a2,6103795fa44862f47913e48f,2021-07-29_21h03.59.324,Simcolourproject_2stim_asymm_v5,2020.2.10,MacIntel,60,61025ae37ef11b136ea224fe,,,,,,,,,3013,98.99133301,-30.94003296,1,0,0,response3disk,,5,26.82617188,-13.27325439,1,0,0,rectangle,26.82617188,-13.27325439,1,0,0,26.82617188,-13.27325439,1,0,0,0,28,28,20,1,,,,,,,,
,,,,,,,,,,,,,FF,,,,,,,,0.7637,,,,,,,,,,,,,,,,,,,,,,60fd8ca930ae2235452962a2,6103795fa44862f47913e48f,2021-07-29_21h03.59.324,Simcolourproject_2stim_asymm_v5,2020.2.10,MacIntel,60,61025ae37ef11b136ea224fe,,,,,,,,,3769,37.23095703,-70.40350342,1,0,0,response3disk,,4,6.844970703,-3.606567383,1,0,0,rectangle,6.844970703,-3.606567383,1,0,0,6.844970703,-3.606567383,1,0,0,0,29,29,77,1,,,,,,,,
,,,,,,,,,,,,,FF,,,,,,,,0.7638,,,,,,,,,,,,,,,,,,,,,,60fd8ca930ae2235452962a2,6103795fa44862f47913e48f,2021-07-29_21h03.59.324,Simcolourproject_2stim_asymm_v5,2020.2.10,MacIntel,60,61025ae37ef11b136ea224fe,,,,,,,,,1829,-25.09881592,-57.13735962,1,0,0,response5disk,,3,-13.45068359,-4.167297363,1,0,0,rectangle,-13.45068359,-4.167297363,1,0,0,-13.45068359,-4.167297363,1,0,0,0,30,30,19,1,,,,,,,,
,,,,,,,,,,,,,FF,,,,,,,,1.0677,,,,,,,,,,,,,,,,,,,,,,60fd8ca930ae2235452962a2,6103795fa44862f47913e48f,2021-07-29_21h03.59.324,Simcolourproject_2stim_asymm_v5,2020.2.10,MacIntel,60,61025ae37ef11b136ea224fe,,,,,,,,,764,96.7401123,-19.68603516,1,0,0,response3disk,,5,19.06866455,-2.416503906,1,0,0,rectangle,19.06866455,-2.416503906,1,0,0,19.06866455,-2.416503906,1,0,0,0,31,31,60,1,,,,,,,,
,,,,,,,,,,,,,FF,,,,,,,,0.9537,,,,,,,,,,,,,,,,,,,,,,60fd8ca930ae2235452962a2,6103795fa44862f47913e48f,2021-07-29_21h03.59.324,Simcolourproject_2stim_asymm_v5,2020.2.10,MacIntel,60,61025ae37ef11b136ea224fe,,,,,,,,,4274,64.03039551,-28.8366394,1,0,0,response3disk,,5,21.74346924,-8.834259033,1,0,0,rectangle,21.74346924,-8.834259033,1,0,0,21.74346924,-8.834259033,1,0,0,0,32,32,136,1,,,,,,,,
,,,,,,,,,,,,,FF,,,,,,,,1.4006,,,,,,,,,,,,,,,,,,,,,,60fd8ca930ae2235452962a2,6103795fa44862f47913e48f,2021-07-29_21h03.59.324,Simcolourproject_2stim_asymm_v5,2020.2.10,MacIntel,60,61025ae37ef11b136ea224fe,,,,,,,,,3285,-75.86047363,-30.67327881,1,0,0,response5disk,,2,-2.068481445,-5.666107178,1,0,0,rectangle,-2.068481445,-5.666107178,1,0,0,-2.068481445,-5.666107178,1,0,0,0,33,33,56,1,,,,,,,,
,,,,,,,,,,,,,FF,,,,,,,,1.5148,,,,,,,,,,,,,,,,,,,,,,60fd8ca930ae2235452962a2,6103795fa44862f47913e48f,2021-07-29_21h03.59.324,Simcolourproject_2stim_asymm_v5,2020.2.10,MacIntel,60,61025ae37ef11b136ea224fe,,,,,,,,,2092,31.34344482,-78.8168335,1,0,0,response3disk,,4,8.308105469,-1.787445068,1,0,0,rectangle,8.308105469,-1.787445068,1,0,0,8.308105469,-1.787445068,1,0,0,0,34,34,15,1,,,,,,,,
,,,,,,,,,,,,,FF,,,,,,,,1.4502,,,,,,,,,,,,,,,,,,,,,,60fd8ca930ae2235452962a2,6103795fa44862f47913e48f,2021-07-29_21h03.59.324,Simcolourproject_2stim_asymm_v5,2020.2.10,MacIntel,60,61025ae37ef11b136ea224fe,,,,,,,,,3237,-84.59899902,-40.0319519,1,0,0,response5disk,,2,-15.05981445,-6.848754883,1,0,0,rectangle,-15.05981445,-6.848754883,1,0,0,-15.05981445,-6.848754883,1,0,0,0,35,35,3,1,,,,,,,,
,,,,,,,,,,,,,FF,,,,,,,,0.8614,,,,,,,,,,,,,,,,,,,,,,60fd8ca930ae2235452962a2,6103795fa44862f47913e48f,2021-07-29_21h03.59.324,Simcolourproject_2stim_asymm_v5,2020.2.10,MacIntel,60,61025ae37ef11b136ea224fe,,,,,,,,,3424,-61.16998291,-29.05685425,1,0,0,response5disk,,2,6.956115723,-7.635253906,1,0,0,rectangle,6.956115723,-7.635253906,1,0,0,6.956115723,-7.635253906,1,0,0,0,36,36,139,1,,,,,,,,
,,,,,,,,,,,,,FF,,,,,,,,1.1057,,,,,,,,,,,,,,,,,,,,,,60fd8ca930ae2235452962a2,6103795fa44862f47913e48f,2021-07-29_21h03.59.324,Simcolourproject_2stim_asymm_v5,2020.2.10,MacIntel,60,61025ae37ef11b136ea224fe,,,,,,,,,1834,-28.90283203,-87.9510498,1,0,0,response5disk,,3,-20.46966553,-0.000213623,1,0,0,rectangle,-20.46966553,-0.000213623,1,0,0,-20.46966553,-0.000213623,1,0,0,0,37,37,6,1,,,,,,,,
,,,,,,,,,,,,,FF,,,,,,,,0.8957,,,,,,,,,,,,,,,,,,,,,,60fd8ca930ae2235452962a2,6103795fa44862f47913e48f,2021-07-29_21h03.59.324,Simcolourproject_2stim_asymm_v5,2020.2.10,MacIntel,60,61025ae37ef11b136ea224fe,,,,,,,,,3693,89.68164063,-27.23205566,1,0,0,response3disk,,5,29.3682251,-6.879364014,1,0,0,rectangle,29.3682251,-6.879364014,1,0,0,29.3682251,-6.879364014,1,0,0,0,38,38,2,1,,,,,,,,
,,,,,,,,,,,,,FF,,,,,,,,1.3687,,,,,,,,,,,,,,,,,,,,,,60fd8ca930ae2235452962a2,6103795fa44862f47913e48f,2021-07-29_21h03.59.324,Simcolourproject_2stim_asymm_v5,2020.2.10,MacIntel,60,61025ae37ef11b136ea224fe,,,,,,,,,2390,72.64178467,-28.53991699,1,0,0,response3disk,,5,13.22253418,1.506561279,1,0,0,rectangle,13.22253418,1.506561279,1,0,0,13.22253418,1.506561279,1,0,0,0,39,39,87,1,,,,,,,,
,,,,,,,,,,,,,FF,,,,,,,,0.8671,,,,,,,,,,,,,,,,,,,,,,60fd8ca930ae2235452962a2,6103795fa44862f47913e48f,2021-07-29_21h03.59.324,Simcolourproject_2stim_asymm_v5,2020.2.10,MacIntel,60,61025ae37ef11b136ea224fe,,,,,,,,,2815,30.59558105,-55.40991211,1,0,0,response3disk,,4,11.29315186,0.116119385,1,0,0,rectangle,11.29315186,0.116119385,1,0,0,11.29315186,0.116119385,1,0,0,0,40,40,110,1,,,,,,,,
,,,,,,,,,,,,,FF,,,,,,,,1.685,,,,,,,,,,,,,,,,,,,,,,60fd8ca930ae2235452962a2,6103795fa44862f47913e48f,2021-07-29_21h03.59.324,Simcolourproject_2stim_asymm_v5,2020.2.10,MacIntel,60,61025ae37ef11b136ea224fe,,,,,,,,,342,-79.35949707,-26.96688843,1,0,0,response5disk,,2,0.157897949,-2.186126709,1,0,0,rectangle,0.157897949,-2.186126709,1,0,0,0.157897949,-2.186126709,1,0,0,0,41,41,26,1,,,,,,,,
,,,,,,,,,,,,,FF,,,,,,,,1.0516,,,,,,,,,,,,,,,,,,,,,,60fd8ca930ae2235452962a2,6103795fa44862f47913e48f,2021-07-29_21h03.59.324,Simcolourproject_2stim_asymm_v5,2020.2.10,MacIntel,60,61025ae37ef11b136ea224fe,,,,,,,,,966,59.7789917,31.45059204,1,0,0,response1disk,,6,-8.874084473,0.506011963,1,0,0,rectangle,-8.874084473,0.506011963,1,0,0,-8.874084473,0.506011963,1,0,0,0,42,42,32,1,,,,,,,,
,,,,,,,,,,,,,FF,,,,,,,,1.5971,,,,,,,,,,,,,,,,,,,,,,60fd8ca930ae2235452962a2,6103795fa44862f47913e48f,2021-07-29_21h03.59.324,Simcolourproject_2stim_asymm_v5,2020.2.10,MacIntel,60,61025ae37ef11b136ea224fe,,,,,,,,,3298,-82.78918457,55.77819824,1,0,0,response7disk,,1,7.038696289,2.549041748,1,0,0,rectangle,7.038696289,2.549041748,1,0,0,7.038696289,2.549041748,1,0,0,0,43,43,61,1,,,,,,,,
,,,,,,,,,,,,,FF,,,,,,,,1.0988,,,,,,,,,,,,,,,,,,,,,,60fd8ca930ae2235452962a2,6103795fa44862f47913e48f,2021-07-29_21h03.59.324,Simcolourproject_2stim_asymm_v5,2020.2.10,MacIntel,60,61025ae37ef11b136ea224fe,,,,,,,,,1197,83.51092529,-29.40338135,1,0,0,response3disk,,5,15.51861572,-7.497467041,1,0,0,rectangle,15.51861572,-7.497467041,1,0,0,15.51861572,-7.497467041,1,0,0,0,44,44,86,1,,,,,,,,
,,,,,,,,,,,,,FF,,,,,,,,1.3833,,,,,,,,,,,,,,,,,,,,,,60fd8ca930ae2235452962a2,6103795fa44862f47913e48f,2021-07-29_21h03.59.324,Simcolourproject_2stim_asymm_v5,2020.2.10,MacIntel,60,61025ae37ef11b136ea224fe,,,,,,,,,768,47.61627197,-32.06256104,1,0,0,response3disk,,5,24.19458008,-7.37789917,1,0,0,rectangle,24.19458008,-7.37789917,1,0,0,24.19458008,-7.37789917,1,0,0,0,45,45,88,1,,,,,,,,
,,,,,,,,,,,,,FF,,,,,,,,1.1338,,,,,,,,,,,,,,,,,,,,,,60fd8ca930ae2235452962a2,6103795fa44862f47913e48f,2021-07-29_21h03.59.324,Simcolourproject_2stim_asymm_v5,2020.2.10,MacIntel,60,61025ae37ef11b136ea224fe,,,,,,,,,3489,48.47137451,-70.04693604,1,0,0,response3disk,,4,15.1416626,-8.445495605,1,0,0,rectangle,15.1416626,-8.445495605,1,0,0,15.1416626,-8.445495605,1,0,0,0,46,46,140,1,,,,,,,,
,,,,,,,,,,,,,FF,,,,,,,,1.286,,,,,,,,,,,,,,,,,,,,,,60fd8ca930ae2235452962a2,6103795fa44862f47913e48f,2021-07-29_21h03.59.324,Simcolourproject_2stim_asymm_v5,2020.2.10,MacIntel,60,61025ae37ef11b136ea224fe,,,,,,,,,2758,88.52355957,42.37359619,1,0,0,response1disk,,6,10.7322998,8.823791504,1,0,0,rectangle,10.7322998,8.823791504,1,0,0,10.7322998,8.823791504,1,0,0,0,47,47,43,1,,,,,,,,
,,,,,,,,,,,,,FF,,,,,,,,0.8866,,,,,,,,,,,,,,,,,,,,,,60fd8ca930ae2235452962a2,6103795fa44862f47913e48f,2021-07-29_21h03.59.324,Simcolourproject_2stim_asymm_v5,2020.2.10,MacIntel,60,61025ae37ef11b136ea224fe,,,,,,,,,2597,82.94732666,36.59918213,1,0,0,response1disk,,6,14.70111084,9.26965332,1,0,0,rectangle,14.70111084,9.26965332,1,0,0,14.70111084,9.26965332,1,0,0,0,48,48,36,1,,,,,,,,
,,,,,,,,,,,,,FF,,,,,,,,1.0512,,,,,,,,,,,,,,,,,,,,,,60fd8ca930ae2235452962a2,6103795fa44862f47913e48f,2021-07-29_21h03.59.324,Simcolourproject_2stim_asymm_v5,2020.2.10,MacIntel,60,61025ae37ef11b136ea224fe,,,,,,,,,1744,-76.6416626,32.37011719,1,0,0,response7disk,,1,-12.91546631,7.472595215,1,0,0,rectangle,-12.91546631,7.472595215,1,0,0,-12.91546631,7.472595215,1,0,0,0,49,49,13,1,,,,,,,,
,,,,,,,,,,,,,FF,,,,,,,,1.4148,,,,,,,,,,,,,,,,,,,,,,60fd8ca930ae2235452962a2,6103795fa44862f47913e48f,2021-07-29_21h03.59.324,Simcolourproject_2stim_asymm_v5,2020.2.10,MacIntel,60,61025ae37ef11b136ea224fe,,,,,,,,,3578,43.32751465,76.02700806,1,0,0,response1disk,,7,-2.460998535,4.727722168,1,0,0,rectangle,84.72851563,40.8939209,1,0,0,18.20043945,-0.242431641,1,0,0,0,50,50,63,1,,response1disk_3,TRUE,6,6,"[64,152,51,205,308,130,105,11,233,59,128,152,256,315,188,232,151,207,15,192]",1.4039,rectangle
,,,,,,,,,,,,,FF,,,,,,,,1.3506,,,,,,,,,,,,,,,,,,,,,,60fd8ca930ae2235452962a2,6103795fa44862f47913e48f,2021-07-29_21h03.59.324,Simcolourproject_2stim_asymm_v5,2020.2.10,MacIntel,60,61025ae37ef11b136ea224fe,,,,,,,,,4309,50.15240479,-66.92675781,1,0,0,response3disk,,4,24.95849609,-0.769561768,1,0,0,rectangle,24.95849609,-0.769561768,1,0,0,24.95849609,-0.769561768,1,0,0,0,51,51,48,1,,,,,,,,
,,,,,,,,,,,,,FF,,,,,,,,1.0967,,,,,,,,,,,,,,,,,,,,,,60fd8ca930ae2235452962a2,6103795fa44862f47913e48f,2021-07-29_21h03.59.324,Simcolourproject_2stim_asymm_v5,2020.2.10,MacIntel,60,61025ae37ef11b136ea224fe,,,,,,,,,1169,88.24853516,42.21188354,1,0,0,response1disk,,6,21.51654053,4.062683105,1,0,0,rectangle,21.51654053,4.062683105,1,0,0,21.51654053,4.062683105,1,0,0,0,52,52,65,1,,,,,,,,
,,,,,,,,,,,,,FF,,,,,,,,1.2512,,,,,,,,,,,,,,,,,,,,,,60fd8ca930ae2235452962a2,6103795fa44862f47913e48f,2021-07-29_21h03.59.324,Simcolourproject_2stim_asymm_v5,2020.2.10,MacIntel,60,61025ae37ef11b136ea224fe,,,,,,,,,2275,-54.7746582,-105.3847046,1,0,0,response5disk,,3,-4.087036133,6.371612549,1,0,0,rectangle,-4.087036133,6.371612549,1,0,0,-4.087036133,6.371612549,1,0,0,0,53,53,47,1,,,,,,,,
,,,,,,,,,,,,,FF,,,,,,,,2.2824,,,,,,,,,,,,,,,,,,,,,,60fd8ca930ae2235452962a2,6103795fa44862f47913e48f,2021-07-29_21h03.59.324,Simcolourproject_2stim_asymm_v5,2020.2.10,MacIntel,60,61025ae37ef11b136ea224fe,,,,,,,,,4017,-33.45684814,-80.06378174,1,0,0,response5disk,,3,-2.657714844,-8.07598877,1,0,0,rectangle,-2.657714844,-8.07598877,1,0,0,-2.657714844,-8.07598877,1,0,0,0,54,54,82,1,,,,,,,,
,,,,,,,,,,,,,FF,,,,,,,,0.7979,,,,,,,,,,,,,,,,,,,,,,60fd8ca930ae2235452962a2,6103795fa44862f47913e48f,2021-07-29_21h03.59.324,Simcolourproject_2stim_asymm_v5,2020.2.10,MacIntel,60,61025ae37ef11b136ea224fe,,,,,,,,,1943,64.61102295,-35.20553589,1,0,0,response3disk,,5,18.41296387,-8.79019165,1,0,0,rectangle,18.41296387,-8.79019165,1,0,0,18.41296387,-8.79019165,1,0,0,0,55,55,80,1,,,,,,,,
,,,,,,,,,,,,,FF,,,,,,,,1.0025,,,,,,,,,,,,,,,,,,,,,,60fd8ca930ae2235452962a2,6103795fa44862f47913e48f,2021-07-29_21h03.59.324,Simcolourproject_2stim_asymm_v5,2020.2.10,MacIntel,60,61025ae37ef11b136ea224fe,,,,,,,,,2233,-55.66125488,82.1824646,1,0,0,response7disk,,0,4.878112793,-1.62298584,1,0,0,rectangle,4.878112793,-1.62298584,1,0,0,4.878112793,-1.62298584,1,0,0,0,56,56,116,1,,,,,,,,
,,,,,,,,,,,,,FF,,,,,,,,1.7339,,,,,,,,,,,,,,,,,,,,,,60fd8ca930ae2235452962a2,6103795fa44862f47913e48f,2021-07-29_21h03.59.324,Simcolourproject_2stim_asymm_v5,2020.2.10,MacIntel,60,61025ae37ef11b136ea224fe,,,,,,,,,826,58.77374268,-83.28173828,1,0,0,response3disk,,4,-3.523132324,6.771820068,1,0,0,rectangle,-3.523132324,6.771820068,1,0,0,-3.523132324,6.771820068,1,0,0,0,57,57,72,1,,,,,,,,
,,,,,,,,,,,,,FF,,,,,,,,1.3488,,,,,,,,,,,,,,,,,,,,,,60fd8ca930ae2235452962a2,6103795fa44862f47913e48f,2021-07-29_21h03.59.324,Simcolourproject_2stim_asymm_v5,2020.2.10,MacIntel,60,61025ae37ef11b136ea224fe,,,,,,,,,3184,70.23358154,36.71261597,1,0,0,response1disk,,6,21.57836914,6.880065918,1,0,0,rectangle,-34.53125,-71.74029541,1,0,0,10.0848999,2.072052002,1,0,0,0,58,58,14,1,,response5disk_3,TRUE,3,3,"[64,152,51,205,308,130,105,11,233,59,128,152,256,315,188,232,151,207,15,192]",2.0643,rectangle
,,,,,,,,,,,,,FF,,,,,,,,0.8829,,,,,,,,,,,,,,,,,,,,,,60fd8ca930ae2235452962a2,6103795fa44862f47913e48f,2021-07-29_21h03.59.324,Simcolourproject_2stim_asymm_v5,2020.2.10,MacIntel,60,61025ae37ef11b136ea224fe,,,,,,,,,1807,118.223877,43.92443848,1,0,0,response1disk,,6,-19.64245605,0.490936279,1,0,0,rectangle,-19.64245605,0.490936279,1,0,0,-19.64245605,0.490936279,1,0,0,0,59,59,51,1,,,,,,,,
,,,,,,,,,,,,,FF,,,,,,,,2.084,,,,,,,,,,,,,,,,,,,,,,60fd8ca930ae2235452962a2,6103795fa44862f47913e48f,2021-07-29_21h03.59.324,Simcolourproject_2stim_asymm_v5,2020.2.10,MacIntel,60,61025ae37ef11b136ea224fe,,,,,,,,,679,-35.57446289,-89.69348145,1,0,0,response5disk,,3,2.268432617,-5.545806885,1,0,0,rectangle,2.268432617,-5.545806885,1,0,0,2.268432617,-5.545806885,1,0,0,0,60,60,79,1,,,,,,,,
,,,,,,,,,,,,,FF,,,,,,,,0.7654,,,,,,,,,,,,,,,,,,,,,,60fd8ca930ae2235452962a2,6103795fa44862f47913e48f,2021-07-29_21h03.59.324,Simcolourproject_2stim_asymm_v5,2020.2.10,MacIntel,60,61025ae37ef11b136ea224fe,,,,,,,,,2337,60.94970703,40.50857544,1,0,0,response1disk,,6,-15.26171875,3.817382813,1,0,0,rectangle,-15.26171875,3.817382813,1,0,0,-15.26171875,3.817382813,1,0,0,0,61,61,31,1,,,,,,,,
,,,,,,,,,,,,,FF,,,,,,,,1.8139,,,,,,,,,,,,,,,,,,,,,,60fd8ca930ae2235452962a2,6103795fa44862f47913e48f,2021-07-29_21h03.59.324,Simcolourproject_2stim_asymm_v5,2020.2.10,MacIntel,60,61025ae37ef11b136ea224fe,,,,,,,,,1587,-95.36553955,-45.30795288,1,0,0,response5disk,,2,-5.78918457,-6.207519531,1,0,0,rectangle,-5.78918457,-6.207519531,1,0,0,-5.78918457,-6.207519531,1,0,0,0,62,62,85,1,,,,,,,,
,,,,,,,,,,,,,FF,,,,,,,,1.4834,,,,,,,,,,,,,,,,,,,,,,60fd8ca930ae2235452962a2,6103795fa44862f47913e48f,2021-07-29_21h03.59.324,Simcolourproject_2stim_asymm_v5,2020.2.10,MacIntel,60,61025ae37ef11b136ea224fe,,,,,,,,,2008,66.60388184,-41.83917236,1,0,0,response3disk,,5,7.847351074,9.970733643,1,0,0,rectangle,27.48297119,62.00915527,1,0,0,15.80096436,1.588012695,1,0,0,0,63,63,16,1,,response1disk_3,TRUE,7,7,"[64,152,51,205,308,130,105,11,233,59,128,152,256,315,188,232,151,207,15,192]",1.6172,rectangle
,,,,,,,,,,,,,FF,,,,,,,,1.3325,,,,,,,,,,,,,,,,,,,,,,60fd8ca930ae2235452962a2,6103795fa44862f47913e48f,2021-07-29_21h03.59.324,Simcolourproject_2stim_asymm_v5,2020.2.10,MacIntel,60,61025ae37ef11b136ea224fe,,,,,,,,,4119,-74.92773438,-27.27954102,1,0,0,response5disk,,2,-13.83203125,8.237121582,1,0,0,rectangle,-13.83203125,8.237121582,1,0,0,-13.83203125,8.237121582,1,0,0,0,64,64,66,1,,,,,,,,
,,,,,,,,,,,,,FF,,,,,,,,1.1983,,,,,,,,,,,,,,,,,,,,,,60fd8ca930ae2235452962a2,6103795fa44862f47913e48f,2021-07-29_21h03.59.324,Simcolourproject_2stim_asymm_v5,2020.2.10,MacIntel,60,61025ae37ef11b136ea224fe,,,,,,,,,1689,64.85058594,-31.60598755,1,0,0,response3disk,,5,-5.663635254,6.341766357,1,0,0,rectangle,-5.663635254,6.341766357,1,0,0,-5.663635254,6.341766357,1,0,0,0,65,65,62,1,,,,,,,,
,,,,,,,,,,,,,FF,,,,,,,,1.3698,,,,,,,,,,,,,,,,,,,,,,60fd8ca930ae2235452962a2,6103795fa44862f47913e48f,2021-07-29_21h03.59.324,Simcolourproject_2stim_asymm_v5,2020.2.10,MacIntel,60,61025ae37ef11b136ea224fe,,,,,,,,,3737,-24.82263184,-53.20196533,1,0,0,response5disk,,3,-7.285217285,4.666992188,1,0,0,rectangle,-7.285217285,4.666992188,1,0,0,-7.285217285,4.666992188,1,0,0,0,66,66,64,1,,,,,,,,
,,,,,,,,,,,,,FF,,,,,,,,1.0541,,,,,,,,,,,,,,,,,,,,,,60fd8ca930ae2235452962a2,6103795fa44862f47913e48f,2021-07-29_21h03.59.324,Simcolourproject_2stim_asymm_v5,2020.2.10,MacIntel,60,61025ae37ef11b136ea224fe,,,,,,,,,813,-83.03839111,-30.27151489,1,0,0,response5disk,,2,-23.15222168,-13.64761353,1,0,0,rectangle,-23.15222168,-13.64761353,1,0,0,-23.15222168,-13.64761353,1,0,0,0,67,67,8,1,,,,,,,,
,,,,,,,,,,,,,FF,,,,,,,,0.7319,,,,,,,,,,,,,,,,,,,,,,60fd8ca930ae2235452962a2,6103795fa44862f47913e48f,2021-07-29_21h03.59.324,Simcolourproject_2stim_asymm_v5,2020.2.10,MacIntel,60,61025ae37ef11b136ea224fe,,,,,,,,,1747,-51.88885498,-28.33331299,1,0,0,response5disk,,2,-3.012695313,-3.518676758,1,0,0,rectangle,-3.012695313,-3.518676758,1,0,0,-3.012695313,-3.518676758,1,0,0,0,68,68,92,1,,,,,,,,
,,,,,,,,,,,,,FF,,,,,,,,0.9001,,,,,,,,,,,,,,,,,,,,,,60fd8ca930ae2235452962a2,6103795fa44862f47913e48f,2021-07-29_21h03.59.324,Simcolourproject_2stim_asymm_v5,2020.2.10,MacIntel,60,61025ae37ef11b136ea224fe,,,,,,,,,1984,42.05444336,-60.83618164,1,0,0,response3disk,,4,13.34851074,1.95526123,1,0,0,rectangle,13.34851074,1.95526123,1,0,0,13.34851074,1.95526123,1,0,0,0,69,69,104,1,,,,,,,,
,,,,,,,,,,,,,FF,,,,,,,,0.8178,,,,,,,,,,,,,,,,,,,,,,60fd8ca930ae2235452962a2,6103795fa44862f47913e48f,2021-07-29_21h03.59.324,Simcolourproject_2stim_asymm_v5,2020.2.10,MacIntel,60,61025ae37ef11b136ea224fe,,,,,,,,,787,-27.00170898,-58.18536377,1,0,0,response5disk,,3,-15.20758057,6.374053955,1,0,0,rectangle,-15.20758057,6.374053955,1,0,0,-15.20758057,6.374053955,1,0,0,0,70,70,133,1,,,,,,,,
,,,,,,,,,,,,,FF,,,,,,,,1.7506,,,,,,,,,,,,,,,,,,,,,,60fd8ca930ae2235452962a2,6103795fa44862f47913e48f,2021-07-29_21h03.59.324,Simcolourproject_2stim_asymm_v5,2020.2.10,MacIntel,60,61025ae37ef11b136ea224fe,,,,,,,,,4229,52.9208374,-72.15057373,1,0,0,response3disk,,4,20.9375,-3.503143311,1,0,0,rectangle,20.9375,-3.503143311,1,0,0,20.9375,-3.503143311,1,0,0,0,71,71,124,1,,,,,,,,
,,,,,,,,,,,,,FF,,,,,,,,0.8989,,,,,,,,,,,,,,,,,,,,,,60fd8ca930ae2235452962a2,6103795fa44862f47913e48f,2021-07-29_21h03.59.324,Simcolourproject_2stim_asymm_v5,2020.2.10,MacIntel,60,61025ae37ef11b136ea224fe,,,,,,,,,3284,-82.27832031,42.37689209,1,0,0,response7disk,,1,-14.67004395,4.025085449,1,0,0,rectangle,-14.67004395,4.025085449,1,0,0,-14.67004395,4.025085449,1,0,0,0,72,72,129,1,,,,,,,,
,,,,,,,,,,,,,FF,,,,,,,,0.8854,,,,,,,,,,,,,,,,,,,,,,60fd8ca930ae2235452962a2,6103795fa44862f47913e48f,2021-07-29_21h03.59.324,Simcolourproject_2stim_asymm_v5,2020.2.10,MacIntel,60,61025ae37ef11b136ea224fe,,,,,,,,,3482,-69.37585449,-31.83242798,1,0,0,response5disk,,2,-11.70965576,-2.07623291,1,0,0,rectangle,-11.70965576,-2.07623291,1,0,0,-11.70965576,-2.07623291,1,0,0,0,73,73,153,1,,,,,,,,
,,,,,,,,,,,,,FF,,,,,,,,0.982,,,,,,,,,,,,,,,,,,,,,,60fd8ca930ae2235452962a2,6103795fa44862f47913e48f,2021-07-29_21h03.59.324,Simcolourproject_2stim_asymm_v5,2020.2.10,MacIntel,60,61025ae37ef11b136ea224fe,,,,,,,,,240,86.01861572,-42.5760498,1,0,0,response3disk,,5,12.19396973,-2.024169922,1,0,0,rectangle,12.19396973,-2.024169922,1,0,0,12.19396973,-2.024169922,1,0,0,0,74,74,112,1,,,,,,,,
,,,,,,,,,,,,,FF,,,,,,,,0.8197,,,,,,,,,,,,,,,,,,,,,,60fd8ca930ae2235452962a2,6103795fa44862f47913e48f,2021-07-29_21h03.59.324,Simcolourproject_2stim_asymm_v5,2020.2.10,MacIntel,60,61025ae37ef11b136ea224fe,,,,,,,,,1351,74.5579834,-42.30160522,1,0,0,response3disk,,5,23.07824707,-11.1937561,1,0,0,rectangle,23.07824707,-11.1937561,1,0,0,23.07824707,-11.1937561,1,0,0,0,75,75,102,1,,,,,,,,
,,,,,,,,,,,,,FF,,,,,,,,0.5859,,,,,,,,,,,,,,,,,,,,,,60fd8ca930ae2235452962a2,6103795fa44862f47913e48f,2021-07-29_21h03.59.324,Simcolourproject_2stim_asymm_v5,2020.2.10,MacIntel,60,61025ae37ef11b136ea224fe,,,,,,,,,784,65.01171875,-26.81393433,1,0,0,response3disk,,5,10.51867676,3.414459229,1,0,0,rectangle,10.51867676,3.414459229,1,0,0,10.51867676,3.414459229,1,0,0,0,76,76,98,1,,,,,,,,
,,,,,,,,,,,,,FF,,,,,,,,0.8163,,,,,,,,,,,,,,,,,,,,,,60fd8ca930ae2235452962a2,6103795fa44862f47913e48f,2021-07-29_21h03.59.324,Simcolourproject_2stim_asymm_v5,2020.2.10,MacIntel,60,61025ae37ef11b136ea224fe,,,,,,,,,2572,96.5737915,51.59725952,1,0,0,response1disk,,6,14.89154053,10.18548584,1,0,0,rectangle,14.89154053,10.18548584,1,0,0,14.89154053,10.18548584,1,0,0,0,77,77,118,1,,,,,,,,
,,,,,,,,,,,,,FF,,,,,,,,1.2949,,,,,,,,,,,,,,,,,,,,,,60fd8ca930ae2235452962a2,6103795fa44862f47913e48f,2021-07-29_21h03.59.324,Simcolourproject_2stim_asymm_v5,2020.2.10,MacIntel,60,61025ae37ef11b136ea224fe,,,,,,,,,1788,76.16009521,-37.43997192,1,0,0,response3disk,,5,20.90240479,-4.106628418,1,0,0,rectangle,20.90240479,-4.106628418,1,0,0,20.90240479,-4.106628418,1,0,0,0,78,78,155,1,,,,,,,,
,,,,,,,,,,,,,FF,,,,,,,,1.1138,,,,,,,,,,,,,,,,,,,,,,60fd8ca930ae2235452962a2,6103795fa44862f47913e48f,2021-07-29_21h03.59.324,Simcolourproject_2stim_asymm_v5,2020.2.10,MacIntel,60,61025ae37ef11b136ea224fe,,,,,,,,,133,81.46044922,33.215271,1,0,0,response1disk,,6,2.106689453,-4.771728516,1,0,0,rectangle,2.106689453,-4.771728516,1,0,0,2.106689453,-4.771728516,1,0,0,0,79,79,54,1,,,,,,,,
,,,,,,,,,,,,,FF,,,,,,,,0.9147,,,,,,,,,,,,,,,,,,,,,,60fd8ca930ae2235452962a2,6103795fa44862f47913e48f,2021-07-29_21h03.59.324,Simcolourproject_2stim_asymm_v5,2020.2.10,MacIntel,60,61025ae37ef11b136ea224fe,,,,,,,,,925,35.67559814,69.02761841,1,0,0,response1disk,,7,14.93756104,6.917327881,1,0,0,rectangle,14.93756104,6.917327881,1,0,0,14.93756104,6.917327881,1,0,0,0,80,80,23,1,,,,,,,,
,,,,,,,,,,,,,FF,,,,,,,,0.8998,,,,,,,,,,,,,,,,,,,,,,60fd8ca930ae2235452962a2,6103795fa44862f47913e48f,2021-07-29_21h03.59.324,Simcolourproject_2stim_asymm_v5,2020.2.10,MacIntel,60,61025ae37ef11b136ea224fe,,,,,,,,,934,49.47314453,62.48968506,1,0,0,response1disk,,7,21.60681152,4.595581055,1,0,0,rectangle,21.60681152,4.595581055,1,0,0,21.60681152,4.595581055,1,0,0,0,81,81,99,1,,,,,,,,
,,,,,,,,,,,,,FF,,,,,,,,1.167,,,,,,,,,,,,,,,,,,,,,,60fd8ca930ae2235452962a2,6103795fa44862f47913e48f,2021-07-29_21h03.59.324,Simcolourproject_2stim_asymm_v5,2020.2.10,MacIntel,60,61025ae37ef11b136ea224fe,,,,,,,,,1969,29.71636963,-52.04318237,1,0,0,response3disk,,4,20.63500977,-11.00500488,1,0,0,rectangle,20.63500977,-11.00500488,1,0,0,20.63500977,-11.00500488,1,0,0,0,82,82,108,1,,,,,,,,
,,,,,,,,,,,,,FF,,,,,,,,1.2964,,,,,,,,,,,,,,,,,,,,,,60fd8ca930ae2235452962a2,6103795fa44862f47913e48f,2021-07-29_21h03.59.324,Simcolourproject_2stim_asymm_v5,2020.2.10,MacIntel,60,61025ae37ef11b136ea224fe,,,,,,,,,2519,43.78094482,76.49731445,1,0,0,response1disk,,7,20.74713135,5.972167969,1,0,0,rectangle,20.74713135,5.972167969,1,0,0,20.74713135,5.972167969,1,0,0,0,83,83,120,1,,,,,,,,
,,,,,,,,,,,,,FF,,,,,,,,0.8674,,,,,,,,,,,,,,,,,,,,,,60fd8ca930ae2235452962a2,6103795fa44862f47913e48f,2021-07-29_21h03.59.324,Simcolourproject_2stim_asymm_v5,2020.2.10,MacIntel,60,61025ae37ef11b136ea224fe,,,,,,,,,3512,-100.2165527,37.52008057,1,0,0,response7disk,,1,-21.54370117,8.572906494,1,0,0,rectangle,-21.54370117,8.572906494,1,0,0,-21.54370117,8.572906494,1,0,0,0,84,84,55,1,,,,,,,,
,,,,,,,,,,,,,FF,,,,,,,,0.6816,,,,,,,,,,,,,,,,,,,,,,60fd8ca930ae2235452962a2,6103795fa44862f47913e48f,2021-07-29_21h03.59.324,Simcolourproject_2stim_asymm_v5,2020.2.10,MacIntel,60,61025ae37ef11b136ea224fe,,,,,,,,,2718,-38.68566895,78.19464111,1,0,0,response7disk,,0,-16.75970459,10.35864258,1,0,0,rectangle,-16.75970459,10.35864258,1,0,0,-16.75970459,10.35864258,1,0,0,0,85,85,93,1,,,,,,,,
,,,,,,,,,,,,,FF,,,,,,,,1.6637,,,,,,,,,,,,,,,,,,,,,,60fd8ca930ae2235452962a2,6103795fa44862f47913e48f,2021-07-29_21h03.59.324,Simcolourproject_2stim_asymm_v5,2020.2.10,MacIntel,60,61025ae37ef11b136ea224fe,,,,,,,,,661,32.38690186,-75.00592041,1,0,0,response3disk,,4,8.625976563,-3.765838623,1,0,0,rectangle,8.625976563,-3.765838623,1,0,0,8.625976563,-3.765838623,1,0,0,0,86,86,69,1,,,,,,,,
,,,,,,,,,,,,,FF,,,,,,,,0.8331,,,,,,,,,,,,,,,,,,,,,,60fd8ca930ae2235452962a2,6103795fa44862f47913e48f,2021-07-29_21h03.59.324,Simcolourproject_2stim_asymm_v5,2020.2.10,MacIntel,60,61025ae37ef11b136ea224fe,,,,,,,,,2025,-72.57366943,23.95288086,1,0,0,response7disk,,1,-14.61376953,9.533630371,1,0,0,rectangle,-14.61376953,9.533630371,1,0,0,-14.61376953,9.533630371,1,0,0,0,87,87,144,1,,,,,,,,
,,,,,,,,,,,,,FF,,,,,,,,1.3152,,,,,,,,,,,,,,,,,,,,,,60fd8ca930ae2235452962a2,6103795fa44862f47913e48f,2021-07-29_21h03.59.324,Simcolourproject_2stim_asymm_v5,2020.2.10,MacIntel,60,61025ae37ef11b136ea224fe,,,,,,,,,1028,81.38104248,-35.21295166,1,0,0,response3disk,,5,-11.91699219,2.868835449,1,0,0,rectangle,-11.91699219,2.868835449,1,0,0,-11.91699219,2.868835449,1,0,0,0,88,88,90,1,,,,,,,,
,,,,,,,,,,,,,FF,,,,,,,,0.8158,,,,,,,,,,,,,,,,,,,,,,60fd8ca930ae2235452962a2,6103795fa44862f47913e48f,2021-07-29_21h03.59.324,Simcolourproject_2stim_asymm_v5,2020.2.10,MacIntel,60,61025ae37ef11b136ea224fe,,,,,,,,,1015,91.996521,-49.43478394,1,0,0,response3disk,,5,-18.62030029,-2.475097656,1,0,0,rectangle,-18.62030029,-2.475097656,1,0,0,-18.62030029,-2.475097656,1,0,0,0,89,89,106,1,,,,,,,,
,,,,,,,,,,,,,FF,,,,,,,,0.7847,,,,,,,,,,,,,,,,,,,,,,60fd8ca930ae2235452962a2,6103795fa44862f47913e48f,2021-07-29_21h03.59.324,Simcolourproject_2stim_asymm_v5,2020.2.10,MacIntel,60,61025ae37ef11b136ea224fe,,,,,,,,,1178,40.27056885,100.8294067,1,0,0,response1disk,,7,-1.855712891,4.202941895,1,0,0,rectangle,-1.855712891,4.202941895,1,0,0,-1.855712891,4.202941895,1,0,0,0,90,90,35,1,,,,,,,,
,,,,,,,,,,,,,FF,,,,,,,,7.7136,,,,,,,,,,,,,,,,,,,,,,60fd8ca930ae2235452962a2,6103795fa44862f47913e48f,2021-07-29_21h03.59.324,Simcolourproject_2stim_asymm_v5,2020.2.10,MacIntel,60,61025ae37ef11b136ea224fe,,,,,,,,,2263,58.47875977,-51.15975952,1,0,0,response3disk,,5,11.41424561,-7.169433594,1,0,0,rectangle,11.41424561,-7.169433594,1,0,0,11.41424561,-7.169433594,1,0,0,0,91,91,146,1,,,,,,,,
,,,,,,,,,,,,,FF,,,,,,,,1.985,,,,,,,,,,,,,,,,,,,,,,60fd8ca930ae2235452962a2,6103795fa44862f47913e48f,2021-07-29_21h03.59.324,Simcolourproject_2stim_asymm_v5,2020.2.10,MacIntel,60,61025ae37ef11b136ea224fe,,,,,,,,,908,-44.52728271,-88.79486084,1,0,0,response5disk,,3,-3.881958008,-9.901519775,1,0,0,rectangle,-3.881958008,-9.901519775,1,0,0,-3.881958008,-9.901519775,1,0,0,0,92,92,137,1,,,,,,,,
,,,,,,,,,,,,,FF,,,,,,,,1.0967,,,,,,,,,,,,,,,,,,,,,,60fd8ca930ae2235452962a2,6103795fa44862f47913e48f,2021-07-29_21h03.59.324,Simcolourproject_2stim_asymm_v5,2020.2.10,MacIntel,60,61025ae37ef11b136ea224fe,,,,,,,,,3301,-58.02001953,-66.65441895,1,0,0,response5disk,,3,-16.53216553,-4.875579834,1,0,0,rectangle,-16.53216553,-4.875579834,1,0,0,-16.53216553,-4.875579834,1,0,0,0,93,93,46,1,,,,,,,,
,,,,,,,,,,,,,FF,,,,,,,,0.6126,,,,,,,,,,,,,,,,,,,,,,60fd8ca930ae2235452962a2,6103795fa44862f47913e48f,2021-07-29_21h03.59.324,Simcolourproject_2stim_asymm_v5,2020.2.10,MacIntel,60,61025ae37ef11b136ea224fe,,,,,,,,,641,-25.67492676,-45.06439209,1,0,0,response5disk,,3,-25.67492676,-5.441162109,1,0,0,rectangle,-25.67492676,-5.441162109,1,0,0,-25.67492676,-5.441162109,1,0,0,0,94,94,91,1,,,,,,,,
,,,,,,,,,,,,,FF,,,,,,,,0.7973,,,,,,,,,,,,,,,,,,,,,,60fd8ca930ae2235452962a2,6103795fa44862f47913e48f,2021-07-29_21h03.59.324,Simcolourproject_2stim_asymm_v5,2020.2.10,MacIntel,60,61025ae37ef11b136ea224fe,,,,,,,,,3957,34.78881836,62.91644287,1,0,0,response1disk,,7,26.1550293,17.21575928,1,0,0,rectangle,26.1550293,17.21575928,1,0,0,26.1550293,17.21575928,1,0,0,0,95,95,29,1,,,,,,,,
,,,,,,,,,,,,,FF,,,,,,,,0.9187,,,,,,,,,,,,,,,,,,,,,,60fd8ca930ae2235452962a2,6103795fa44862f47913e48f,2021-07-29_21h03.59.324,Simcolourproject_2stim_asymm_v5,2020.2.10,MacIntel,60,61025ae37ef11b136ea224fe,,,,,,,,,2618,76.19055176,30.7088623,1,0,0,response1disk,,6,28.08410645,-11.0748291,1,0,0,rectangle,28.08410645,-11.0748291,1,0,0,28.08410645,-11.0748291,1,0,0,0,96,96,67,1,,,,,,,,
,,,,,,,,,,,,,FF,,,,,,,,0.9676,,,,,,,,,,,,,,,,,,,,,,60fd8ca930ae2235452962a2,6103795fa44862f47913e48f,2021-07-29_21h03.59.324,Simcolourproject_2stim_asymm_v5,2020.2.10,MacIntel,60,61025ae37ef11b136ea224fe,,,,,,,,,4185,23.92468262,-67.43377686,1,0,0,response3disk,,4,16.85571289,-5.344268799,1,0,0,rectangle,16.85571289,-5.344268799,1,0,0,16.85571289,-5.344268799,1,0,0,0,97,97,17,1,,,,,,,,
,,,,,,,,,,,,,FF,,,,,,,,0.6863,,,,,,,,,,,,,,,,,,,,,,60fd8ca930ae2235452962a2,6103795fa44862f47913e48f,2021-07-29_21h03.59.324,Simcolourproject_2stim_asymm_v5,2020.2.10,MacIntel,60,61025ae37ef11b136ea224fe,,,,,,,,,3609,36.0222168,-57.5703125,1,0,0,response3disk,,4,25.95513916,-11.83895874,1,0,0,rectangle,25.95513916,-11.83895874,1,0,0,25.95513916,-11.83895874,1,0,0,0,98,98,103,1,,,,,,,,
,,,,,,,,,,,,,FF,,,,,,,,1.9345,,,,,,,,,,,,,,,,,,,,,,60fd8ca930ae2235452962a2,6103795fa44862f47913e48f,2021-07-29_21h03.59.324,Simcolourproject_2stim_asymm_v5,2020.2.10,MacIntel,60,61025ae37ef11b136ea224fe,,,,,,,,,1086,36.99633789,-90.24499512,1,0,0,response3disk,,4,-1.121765137,5.372467041,1,0,0,rectangle,-1.121765137,5.372467041,1,0,0,-1.121765137,5.372467041,1,0,0,0,99,99,30,1,,,,,,,,
,,,,,,,,,,,,,FF,,,,,,,,1.0485,,,,,,,,,,,,,,,,,,,,,,60fd8ca930ae2235452962a2,6103795fa44862f47913e48f,2021-07-29_21h03.59.324,Simcolourproject_2stim_asymm_v5,2020.2.10,MacIntel,60,61025ae37ef11b136ea224fe,,,,,,,,,4115,-44.76293945,-87.6998291,1,0,0,response5disk,,3,2.534667969,-0.25,1,0,0,rectangle,2.534667969,-0.25,1,0,0,2.534667969,-0.25,1,0,0,0,100,100,105,1,,,,,,,,
,,,,,,,,,,,,,FF,,,,,,,,0.9849,,,,,,,,,,,,,,,,,,,,,,60fd8ca930ae2235452962a2,6103795fa44862f47913e48f,2021-07-29_21h03.59.324,Simcolourproject_2stim_asymm_v5,2020.2.10,MacIntel,60,61025ae37ef11b136ea224fe,,,,,,,,,1603,-77.25341797,47.78823853,1,0,0,response7disk,,1,11.20349121,-11.87088013,1,0,0,rectangle,11.20349121,-11.87088013,1,0,0,11.20349121,-11.87088013,1,0,0,0,101,101,158,1,,,,,,,,
,,,,,,,,,,,,,FF,,,,,,,,1.0669,,,,,,,,,,,,,,,,,,,,,,60fd8ca930ae2235452962a2,6103795fa44862f47913e48f,2021-07-29_21h03.59.324,Simcolourproject_2stim_asymm_v5,2020.2.10,MacIntel,60,61025ae37ef11b136ea224fe,,,,,,,,,2446,89.43835449,-38.00930786,1,0,0,response3disk,,5,5.489746094,8.243927002,1,0,0,rectangle,5.489746094,8.243927002,1,0,0,5.489746094,8.243927002,1,0,0,0,102,102,57,1,,,,,,,,
,,,,,,,,,,,,,FF,,,,,,,,1.2147,,,,,,,,,,,,,,,,,,,,,,60fd8ca930ae2235452962a2,6103795fa44862f47913e48f,2021-07-29_21h03.59.324,Simcolourproject_2stim_asymm_v5,2020.2.10,MacIntel,60,61025ae37ef11b136ea224fe,,,,,,,,,2454,93.2701416,-40.97555542,1,0,0,response3disk,,5,21.81542969,-11.79382324,1,0,0,rectangle,21.81542969,-11.79382324,1,0,0,21.81542969,-11.79382324,1,0,0,0,103,103,75,1,,,,,,,,
,,,,,,,,,,,,,FF,,,,,,,,1.3474,,,,,,,,,,,,,,,,,,,,,,60fd8ca930ae2235452962a2,6103795fa44862f47913e48f,2021-07-29_21h03.59.324,Simcolourproject_2stim_asymm_v5,2020.2.10,MacIntel,60,61025ae37ef11b136ea224fe,,,,,,,,,3529,31.77124023,-69.87817383,1,0,0,response3disk,,4,-0.323608398,13.24575806,1,0,0,rectangle,-103.0638428,45.77957153,1,0,0,1.240234375,-8.447784424,1,0,0,0,104,104,141,1,,response7disk_3,TRUE,1,1,"[64,152,51,205,308,130,105,11,233,59,128,152,256,315,188,232,151,207,15,192]",1.4523,rectangle
,,,,,,,,,,,,,FF,,,,,,,,1.7536,,,,,,,,,,,,,,,,,,,,,,60fd8ca930ae2235452962a2,6103795fa44862f47913e48f,2021-07-29_21h03.59.324,Simcolourproject_2stim_asymm_v5,2020.2.10,MacIntel,60,61025ae37ef11b136ea224fe,,,,,,,,,0,-76.3414917,58.25363159,1,0,0,response7disk,,1,-30.07348633,-5.228973389,1,0,0,rectangle,-30.07348633,-5.228973389,1,0,0,-30.07348633,-5.228973389,1,0,0,0,105,105,145,1,,,,,,,,
,,,,,,,,,,,,,FF,,,,,,,,4.8357,,,,,,,,,,,,,,,,,,,,,,60fd8ca930ae2235452962a2,6103795fa44862f47913e48f,2021-07-29_21h03.59.324,Simcolourproject_2stim_asymm_v5,2020.2.10,MacIntel,60,61025ae37ef11b136ea224fe,,,,,,,,,1792,-65.98626709,-37.82366943,1,0,0,response5disk,,2,4.257202148,8.501159668,1,0,0,rectangle,4.257202148,8.501159668,1,0,0,4.257202148,8.501159668,1,0,0,0,106,106,25,1,,,,,,,,
,,,,,,,,,,,,,FF,,,,,,,,0.6501,,,,,,,,,,,,,,,,,,,,,,60fd8ca930ae2235452962a2,6103795fa44862f47913e48f,2021-07-29_21h03.59.324,Simcolourproject_2stim_asymm_v5,2020.2.10,MacIntel,60,61025ae37ef11b136ea224fe,,,,,,,,,443,-53.62652588,-23.37649536,1,0,0,response5disk,,2,14.6307373,2.298919678,1,0,0,rectangle,14.6307373,2.298919678,1,0,0,14.6307373,2.298919678,1,0,0,0,107,107,40,1,,,,,,,,
,,,,,,,,,,,,,FF,,,,,,,,0.9885,,,,,,,,,,,,,,,,,,,,,,60fd8ca930ae2235452962a2,6103795fa44862f47913e48f,2021-07-29_21h03.59.324,Simcolourproject_2stim_asymm_v5,2020.2.10,MacIntel,60,61025ae37ef11b136ea224fe,,,,,,,,,2594,-27.02770996,-78.72174072,1,0,0,response5disk,,3,-13.63806152,-4.110443115,1,0,0,rectangle,-13.63806152,-4.110443115,1,0,0,-13.63806152,-4.110443115,1,0,0,0,108,108,59,1,,,,,,,,
,,,,,,,,,,,,,FF,,,,,,,,0.8331,,,,,,,,,,,,,,,,,,,,,,60fd8ca930ae2235452962a2,6103795fa44862f47913e48f,2021-07-29_21h03.59.324,Simcolourproject_2stim_asymm_v5,2020.2.10,MacIntel,60,61025ae37ef11b136ea224fe,,,,,,,,,2235,-24.98974609,-55.9473877,1,0,0,response5disk,,3,-4.952575684,-0.099365234,1,0,0,rectangle,-4.952575684,-0.099365234,1,0,0,-4.952575684,-0.099365234,1,0,0,0,109,109,123,1,,,,,,,,
,,,,,,,,,,,,,FF,,,,,,,,1.2444,,,,,,,,,,,,,,,,,,,,,,60fd8ca930ae2235452962a2,6103795fa44862f47913e48f,2021-07-29_21h03.59.324,Simcolourproject_2stim_asymm_v5,2020.2.10,MacIntel,60,61025ae37ef11b136ea224fe,,,,,,,,,102,26.12316895,-70.97381592,1,0,0,response3disk,,4,9.741516113,-9.960144043,1,0,0,rectangle,9.741516113,-9.960144043,1,0,0,9.741516113,-9.960144043,1,0,0,0,110,110,159,1,,,,,,,,
,,,,,,,,,,,,,FF,,,,,,,,0.884,,,,,,,,,,,,,,,,,,,,,,60fd8ca930ae2235452962a2,6103795fa44862f47913e48f,2021-07-29_21h03.59.324,Simcolourproject_2stim_asymm_v5,2020.2.10,MacIntel,60,61025ae37ef11b136ea224fe,,,,,,,,,1441,-43.6184082,-87.31280518,1,0,0,response5disk,,3,-8.304931641,-5.109832764,1,0,0,rectangle,-8.304931641,-5.109832764,1,0,0,-8.304931641,-5.109832764,1,0,0,0,111,111,0,1,,,,,,,,
,,,,,,,,,,,,,FF,,,,,,,,0.8498,,,,,,,,,,,,,,,,,,,,,,60fd8ca930ae2235452962a2,6103795fa44862f47913e48f,2021-07-29_21h03.59.324,Simcolourproject_2stim_asymm_v5,2020.2.10,MacIntel,60,61025ae37ef11b136ea224fe,,,,,,,,,3213,111.4656982,-41.45352173,1,0,0,response3disk,,5,2.49987793,1.034484863,1,0,0,rectangle,2.49987793,1.034484863,1,0,0,2.49987793,1.034484863,1,0,0,0,112,112,73,1,,,,,,,,
,,,,,,,,,,,,,FF,,,,,,,,1.052,,,,,,,,,,,,,,,,,,,,,,60fd8ca930ae2235452962a2,6103795fa44862f47913e48f,2021-07-29_21h03.59.324,Simcolourproject_2stim_asymm_v5,2020.2.10,MacIntel,60,61025ae37ef11b136ea224fe,,,,,,,,,3516,-85.35284424,41.70404053,1,0,0,response7disk,,1,-21.08123779,-0.239257813,1,0,0,rectangle,-21.08123779,-0.239257813,1,0,0,-21.08123779,-0.239257813,1,0,0,0,113,113,71,1,,,,,,,,
,,,,,,,,,,,,,FF,,,,,,,,1.3833,,,,,,,,,,,,,,,,,,,,,,60fd8ca930ae2235452962a2,6103795fa44862f47913e48f,2021-07-29_21h03.59.324,Simcolourproject_2stim_asymm_v5,2020.2.10,MacIntel,60,61025ae37ef11b136ea224fe,,,,,,,,,1385,-49.78491211,-77.16137695,1,0,0,response5disk,,3,-14.65093994,-2.310943604,1,0,0,rectangle,-14.65093994,-2.310943604,1,0,0,-14.65093994,-2.310943604,1,0,0,0,114,114,9,1,,,,,,,,
,,,,,,,,,,,,,FF,,,,,,,,0.8191,,,,,,,,,,,,,,,,,,,,,,60fd8ca930ae2235452962a2,6103795fa44862f47913e48f,2021-07-29_21h03.59.324,Simcolourproject_2stim_asymm_v5,2020.2.10,MacIntel,60,61025ae37ef11b136ea224fe,,,,,,,,,2808,69.38562012,-82.83544922,1,0,0,response3disk,,4,8.758789063,0.295135498,1,0,0,rectangle,8.758789063,0.295135498,1,0,0,8.758789063,0.295135498,1,0,0,0,115,115,76,1,,,,,,,,
,,,,,,,,,,,,,FF,,,,,,,,2.1805,,,,,,,,,,,,,,,,,,,,,,60fd8ca930ae2235452962a2,6103795fa44862f47913e48f,2021-07-29_21h03.59.324,Simcolourproject_2stim_asymm_v5,2020.2.10,MacIntel,60,61025ae37ef11b136ea224fe,,,,,,,,,214,67.89868164,-37.08822632,1,0,0,response3disk,,5,11.67749023,4.63760376,1,0,0,rectangle,11.67749023,4.63760376,1,0,0,11.67749023,4.63760376,1,0,0,0,116,116,45,1,,,,,,,,
,,,,,,,,,,,,,FF,,,,,,,,0.8172,,,,,,,,,,,,,,,,,,,,,,60fd8ca930ae2235452962a2,6103795fa44862f47913e48f,2021-07-29_21h03.59.324,Simcolourproject_2stim_asymm_v5,2020.2.10,MacIntel,60,61025ae37ef11b136ea224fe,,,,,,,,,985,75.44372559,25.75875854,1,0,0,response1disk,,6,-1.634277344,0.41973877,1,0,0,rectangle,-1.634277344,0.41973877,1,0,0,-1.634277344,0.41973877,1,0,0,0,117,117,34,1,,,,,,,,
,,,,,,,,,,,,,FF,,,,,,,,1.5839,,,,,,,,,,,,,,,,,,,,,,60fd8ca930ae2235452962a2,6103795fa44862f47913e48f,2021-07-29_21h03.59.324,Simcolourproject_2stim_asymm_v5,2020.2.10,MacIntel,60,61025ae37ef11b136ea224fe,,,,,,,,,3050,44.14221191,-84.15386963,1,0,0,response3disk,,4,11.34436035,-0.486450195,1,0,0,rectangle,11.34436035,-0.486450195,1,0,0,11.34436035,-0.486450195,1,0,0,0,118,118,142,1,,,,,,,,
,,,,,,,,,,,,,FF,,,,,,,,1.0225,,,,,,,,,,,,,,,,,,,,,,60fd8ca930ae2235452962a2,6103795fa44862f47913e48f,2021-07-29_21h03.59.324,Simcolourproject_2stim_asymm_v5,2020.2.10,MacIntel,60,61025ae37ef11b136ea224fe,,,,,,,,,480,100.7434692,47.98196411,1,0,0,response1disk,,6,23.82537842,7.202667236,1,0,0,rectangle,23.82537842,7.202667236,1,0,0,23.82537842,7.202667236,1,0,0,0,119,119,131,1,,,,,,,,
,,,,,,,,,,,,,FF,,,,,,,,1.7752,,,,,,,,,,,,,,,,,,,,,,60fd8ca930ae2235452962a2,6103795fa44862f47913e48f,2021-07-29_21h03.59.324,Simcolourproject_2stim_asymm_v5,2020.2.10,MacIntel,60,61025ae37ef11b136ea224fe,,,,,,,,,4299,50.1595459,-70.41662598,1,0,0,response3disk,,4,15.7300415,-1.68548584,1,0,0,rectangle,15.7300415,-1.68548584,1,0,0,15.7300415,-1.68548584,1,0,0,0,120,120,38,1,,,,,,,,
,,,,,,,,,,,,,FF,,,,,,,,1.0133,,,,,,,,,,,,,,,,,,,,,,60fd8ca930ae2235452962a2,6103795fa44862f47913e48f,2021-07-29_21h03.59.324,Simcolourproject_2stim_asymm_v5,2020.2.10,MacIntel,60,61025ae37ef11b136ea224fe,,,,,,,,,3627,36.21118164,-88.34777832,1,0,0,response3disk,,4,17.87695313,0.923309326,1,0,0,rectangle,17.87695313,0.923309326,1,0,0,17.87695313,0.923309326,1,0,0,0,121,121,28,1,,,,,,,,
,,,,,,,,,,,,,FF,,,,,,,,3.8336,,,,,,,,,,,,,,,,,,,,,,60fd8ca930ae2235452962a2,6103795fa44862f47913e48f,2021-07-29_21h03.59.324,Simcolourproject_2stim_asymm_v5,2020.2.10,MacIntel,60,61025ae37ef11b136ea224fe,,,,,,,,,3718,-35.98077393,-92.10736084,1,0,0,response5disk,,3,-16.54827881,2.439666748,1,0,0,rectangle,-16.54827881,2.439666748,1,0,0,-16.54827881,2.439666748,1,0,0,0,122,122,121,1,,,,,,,,
,,,,,,,,,,,,,FF,,,,,,,,0.833,,,,,,,,,,,,,,,,,,,,,,60fd8ca930ae2235452962a2,6103795fa44862f47913e48f,2021-07-29_21h03.59.324,Simcolourproject_2stim_asymm_v5,2020.2.10,MacIntel,60,61025ae37ef11b136ea224fe,,,,,,,,,4242,45.96252441,75.35110474,1,0,0,response1disk,,7,13.37445068,-2.451202393,1,0,0,rectangle,13.37445068,-2.451202393,1,0,0,13.37445068,-2.451202393,1,0,0,0,123,123,33,1,,,,,,,,
,,,,,,,,,,,,,FF,,,,,,,,0.8817,,,,,,,,,,,,,,,,,,,,,,60fd8ca930ae2235452962a2,6103795fa44862f47913e48f,2021-07-29_21h03.59.324,Simcolourproject_2stim_asymm_v5,2020.2.10,MacIntel,60,61025ae37ef11b136ea224fe,,,,,,,,,2502,62.29833984,-29.29434204,1,0,0,response3disk,,5,12.91534424,-7.495758057,1,0,0,rectangle,12.91534424,-7.495758057,1,0,0,12.91534424,-7.495758057,1,0,0,0,124,124,89,1,,,,,,,,
,,,,,,,,,,,,,FF,,,,,,,,0.9178,,,,,,,,,,,,,,,,,,,,,,60fd8ca930ae2235452962a2,6103795fa44862f47913e48f,2021-07-29_21h03.59.324,Simcolourproject_2stim_asymm_v5,2020.2.10,MacIntel,60,61025ae37ef11b136ea224fe,,,,,,,,,3944,-87.74414063,-35.59945679,1,0,0,response5disk,,2,3.660583496,3.935943604,1,0,0,rectangle,3.660583496,3.935943604,1,0,0,3.660583496,3.935943604,1,0,0,0,125,125,114,1,,,,,,,,
,,,,,,,,,,,,,FF,,,,,,,,1.1183,,,,,,,,,,,,,,,,,,,,,,60fd8ca930ae2235452962a2,6103795fa44862f47913e48f,2021-07-29_21h03.59.324,Simcolourproject_2stim_asymm_v5,2020.2.10,MacIntel,60,61025ae37ef11b136ea224fe,,,,,,,,,1648,51.48828125,75.3581543,1,0,0,response1disk,,7,3.466796875,7.041625977,1,0,0,rectangle,3.466796875,7.041625977,1,0,0,3.466796875,7.041625977,1,0,0,0,126,126,115,1,,,,,,,,
,,,,,,,,,,,,,FF,,,,,,,,1.5212,,,,,,,,,,,,,,,,,,,,,,60fd8ca930ae2235452962a2,6103795fa44862f47913e48f,2021-07-29_21h03.59.324,Simcolourproject_2stim_asymm_v5,2020.2.10,MacIntel,60,61025ae37ef11b136ea224fe,,,,,,,,,423,66.3182373,-38.18798828,1,0,0,response3disk,,5,0.993652344,0.408050537,1,0,0,rectangle,-18.5178833,-77.44299316,1,0,0,-2.337219238,-3.456512451,1,0,0,0,127,127,11,1,,response5disk_3,TRUE,3,3,"[64,152,51,205,308,130,105,11,233,59,128,152,256,315,188,232,151,207,15,192]",1.7809,rectangle
,,,,,,,,,,,,,FF,,,,,,,,0.9009,,,,,,,,,,,,,,,,,,,,,,60fd8ca930ae2235452962a2,6103795fa44862f47913e48f,2021-07-29_21h03.59.324,Simcolourproject_2stim_asymm_v5,2020.2.10,MacIntel,60,61025ae37ef11b136ea224fe,,,,,,,,,3850,-75.92700195,-33.06378174,1,0,0,response5disk,,2,5.776855469,1.620849609,1,0,0,rectangle,5.776855469,1.620849609,1,0,0,5.776855469,1.620849609,1,0,0,0,128,128,100,1,,,,,,,,
,,,,,,,,,,,,,FF,,,,,,,,1.1383,,,,,,,,,,,,,,,,,,,,,,60fd8ca930ae2235452962a2,6103795fa44862f47913e48f,2021-07-29_21h03.59.324,Simcolourproject_2stim_asymm_v5,2020.2.10,MacIntel,60,61025ae37ef11b136ea224fe,,,,,,,,,3121,89.01647949,-55.16247559,1,0,0,response3disk,,5,3.474243164,-7.018066406,1,0,0,rectangle,-55.86669922,-90.84448242,1,0,0,14.86712646,10.22824097,1,0,0,0,129,129,148,1,,response5disk_3,TRUE,3,3,"[64,152,51,205,308,130,105,11,233,59,128,152,256,315,188,232,151,207,15,192]",1.6163,rectangle
,,,,,,,,,,,,,FF,,,,,,,,1.0709,,,,,,,,,,,,,,,,,,,,,,60fd8ca930ae2235452962a2,6103795fa44862f47913e48f,2021-07-29_21h03.59.324,Simcolourproject_2stim_asymm_v5,2020.2.10,MacIntel,60,61025ae37ef11b136ea224fe,,,,,,,,,101,-78.20629883,-43.85202026,1,0,0,response5disk,,2,-12.99926758,-3.078552246,1,0,0,rectangle,-12.99926758,-3.078552246,1,0,0,-12.99926758,-3.078552246,1,0,0,0,130,130,143,1,,,,,,,,
,,,,,,,,,,,,,FF,,,,,,,,1.4867,,,,,,,,,,,,,,,,,,,,,,60fd8ca930ae2235452962a2,6103795fa44862f47913e48f,2021-07-29_21h03.59.324,Simcolourproject_2stim_asymm_v5,2020.2.10,MacIntel,60,61025ae37ef11b136ea224fe,,,,,,,,,461,-44.77709961,-67.18310547,1,0,0,response5disk,,3,-19.00927734,-6.498260498,1,0,0,rectangle,-19.00927734,-6.498260498,1,0,0,-19.00927734,-6.498260498,1,0,0,0,131,131,152,1,,,,,,,,
,,,,,,,,,,,,,FF,,,,,,,,1.0975,,,,,,,,,,,,,,,,,,,,,,60fd8ca930ae2235452962a2,6103795fa44862f47913e48f,2021-07-29_21h03.59.324,Simcolourproject_2stim_asymm_v5,2020.2.10,MacIntel,60,61025ae37ef11b136ea224fe,,,,,,,,,40,84.4642334,-32.43423462,1,0,0,response3disk,,5,3.538085938,-9.226623535,1,0,0,rectangle,3.538085938,-9.226623535,1,0,0,3.538085938,-9.226623535,1,0,0,0,132,132,151,1,,,,,,,,
,,,,,,,,,,,,,FF,,,,,,,,1.2007,,,,,,,,,,,,,,,,,,,,,,60fd8ca930ae2235452962a2,6103795fa44862f47913e48f,2021-07-29_21h03.59.324,Simcolourproject_2stim_asymm_v5,2020.2.10,MacIntel,60,61025ae37ef11b136ea224fe,,,,,,,,,825,39.1739502,-70.27502441,1,0,0,response3disk,,4,20.08947754,-6.460723877,1,0,0,rectangle,20.08947754,-6.460723877,1,0,0,20.08947754,-6.460723877,1,0,0,0,133,133,12,1,,,,,,,,
,,,,,,,,,,,,,FF,,,,,,,,0.9338,,,,,,,,,,,,,,,,,,,,,,60fd8ca930ae2235452962a2,6103795fa44862f47913e48f,2021-07-29_21h03.59.324,Simcolourproject_2stim_asymm_v5,2020.2.10,MacIntel,60,61025ae37ef11b136ea224fe,,,,,,,,,2659,32.15539551,83.75479126,1,0,0,response1disk,,7,19.16333008,-0.220947266,1,0,0,rectangle,19.16333008,-0.220947266,1,0,0,19.16333008,-0.220947266,1,0,0,0,134,134,157,1,,,,,,,,
,,,,,,,,,,,,,FF,,,,,,,,1.3509,,,,,,,,,,,,,,,,,,,,,,60fd8ca930ae2235452962a2,6103795fa44862f47913e48f,2021-07-29_21h03.59.324,Simcolourproject_2stim_asymm_v5,2020.2.10,MacIntel,60,61025ae37ef11b136ea224fe,,,,,,,,,341,-56.8571167,-98.06384277,1,0,0,response5disk,,3,-1.577880859,1.715148926,1,0,0,rectangle,-1.577880859,1.715148926,1,0,0,-1.577880859,1.715148926,1,0,0,0,135,135,122,1,,,,,,,,
,,,,,,,,,,,,,FF,,,,,,,,3.0841,,,,,,,,,,,,,,,,,,,,,,60fd8ca930ae2235452962a2,6103795fa44862f47913e48f,2021-07-29_21h03.59.324,Simcolourproject_2stim_asymm_v5,2020.2.10,MacIntel,60,61025ae37ef11b136ea224fe,,,,,,,,,2366,37.29797363,-74.32867432,1,0,0,response3disk,,4,4.202392578,-7.594909668,1,0,0,rectangle,4.202392578,-7.594909668,1,0,0,4.202392578,-7.594909668,1,0,0,0,136,136,84,1,,,,,,,,
,,,,,,,,,,,,,FF,,,,,,,,1.0834,,,,,,,,,,,,,,,,,,,,,,60fd8ca930ae2235452962a2,6103795fa44862f47913e48f,2021-07-29_21h03.59.324,Simcolourproject_2stim_asymm_v5,2020.2.10,MacIntel,60,61025ae37ef11b136ea224fe,,,,,,,,,3195,-64.46606445,88.42886353,1,0,0,response7disk,,0,-9.802001953,0.040679932,1,0,0,rectangle,-9.802001953,0.040679932,1,0,0,-9.802001953,0.040679932,1,0,0,0,137,137,156,1,,,,,,,,
,,,,,,,,,,,,,FF,,,,,,,,2.0831,,,,,,,,,,,,,,,,,,,,,,60fd8ca930ae2235452962a2,6103795fa44862f47913e48f,2021-07-29_21h03.59.324,Simcolourproject_2stim_asymm_v5,2020.2.10,MacIntel,60,61025ae37ef11b136ea224fe,,,,,,,,,3276,80.58349609,-63.40710449,1,0,0,response3disk,,5,11.87408447,-1.306060791,1,0,0,rectangle,11.87408447,-1.306060791,1,0,0,11.87408447,-1.306060791,1,0,0,0,138,138,126,1,,,,,,,,
,,,,,,,,,,,,,FF,,,,,,,,1.3165,,,,,,,,,,,,,,,,,,,,,,60fd8ca930ae2235452962a2,6103795fa44862f47913e48f,2021-07-29_21h03.59.324,Simcolourproject_2stim_asymm_v5,2020.2.10,MacIntel,60,61025ae37ef11b136ea224fe,,,,,,,,,377,36.6774292,-115.1791992,1,0,0,response3disk,,4,10.79718018,-3.527038574,1,0,0,rectangle,10.79718018,-3.527038574,1,0,0,10.79718018,-3.527038574,1,0,0,0,139,139,41,1,,,,,,,,
,,,,,,,,,,,,,FF,,,,,,,,1.0193,,,,,,,,,,,,,,,,,,,,,,60fd8ca930ae2235452962a2,6103795fa44862f47913e48f,2021-07-29_21h03.59.324,Simcolourproject_2stim_asymm_v5,2020.2.10,MacIntel,60,61025ae37ef11b136ea224fe,,,,,,,,,2674,-103.37146,-38.54602051,1,0,0,response5disk,,2,-8.777282715,-13.6151123,1,0,0,rectangle,-8.777282715,-13.6151123,1,0,0,-8.777282715,-13.6151123,1,0,0,0,140,140,21,1,,,,,,,,
,,,,,,,,,,,,,FF,,,,,,,,1.1802,,,,,,,,,,,,,,,,,,,,,,60fd8ca930ae2235452962a2,6103795fa44862f47913e48f,2021-07-29_21h03.59.324,Simcolourproject_2stim_asymm_v5,2020.2.10,MacIntel,60,61025ae37ef11b136ea224fe,,,,,,,,,883,-51.64562988,-102.0631104,1,0,0,response5disk,,3,-4.479370117,-6.735351563,1,0,0,rectangle,-4.479370117,-6.735351563,1,0,0,-4.479370117,-6.735351563,1,0,0,0,141,141,138,1,,,,,,,,
,,,,,,,,,,,,,FF,,,,,,,,1.351,,,,,,,,,,,,,,,,,,,,,,60fd8ca930ae2235452962a2,6103795fa44862f47913e48f,2021-07-29_21h03.59.324,Simcolourproject_2stim_asymm_v5,2020.2.10,MacIntel,60,61025ae37ef11b136ea224fe,,,,,,,,,147,44.31036377,-73.65222168,1,0,0,response3disk,,4,15.59881592,-0.627929688,1,0,0,rectangle,15.59881592,-0.627929688,1,0,0,15.59881592,-0.627929688,1,0,0,0,142,142,125,1,,,,,,,,
,,,,,,,,,,,,,FF,,,,,,,,1.0049,,,,,,,,,,,,,,,,,,,,,,60fd8ca930ae2235452962a2,6103795fa44862f47913e48f,2021-07-29_21h03.59.324,Simcolourproject_2stim_asymm_v5,2020.2.10,MacIntel,60,61025ae37ef11b136ea224fe,,,,,,,,,2654,-64.74871826,-90.30859375,1,0,0,response5disk,,3,-6.535217285,-8.199188232,1,0,0,rectangle,-6.535217285,-8.199188232,1,0,0,-6.535217285,-8.199188232,1,0,0,0,143,143,96,1,,,,,,,,
,,,,,,,,,,,,,FF,,,,,,,,0.967,,,,,,,,,,,,,,,,,,,,,,60fd8ca930ae2235452962a2,6103795fa44862f47913e48f,2021-07-29_21h03.59.324,Simcolourproject_2stim_asymm_v5,2020.2.10,MacIntel,60,61025ae37ef11b136ea224fe,,,,,,,,,2359,-30.74060059,-68.52819824,1,0,0,response5disk,,3,-18.42059326,-0.819274902,1,0,0,rectangle,-18.42059326,-0.819274902,1,0,0,-18.42059326,-0.819274902,1,0,0,0,144,144,83,1,,,,,,,,
,,,,,,,,,,,,,FF,,,,,,,,0.8634,,,,,,,,,,,,,,,,,,,,,,60fd8ca930ae2235452962a2,6103795fa44862f47913e48f,2021-07-29_21h03.59.324,Simcolourproject_2stim_asymm_v5,2020.2.10,MacIntel,60,61025ae37ef11b136ea224fe,,,,,,,,,3995,-76.84887695,-29.25292969,1,0,0,response5disk,,2,-1.763366699,8.741912842,1,0,0,rectangle,-1.763366699,8.741912842,1,0,0,-1.763366699,8.741912842,1,0,0,0,145,145,94,1,,,,,,,,
,,,,,,,,,,,,,FF,,,,,,,,0.9484,,,,,,,,,,,,,,,,,,,,,,60fd8ca930ae2235452962a2,6103795fa44862f47913e48f,2021-07-29_21h03.59.324,Simcolourproject_2stim_asymm_v5,2020.2.10,MacIntel,60,61025ae37ef11b136ea224fe,,,,,,,,,4330,43.39404297,78.71453857,1,0,0,response1disk,,7,12.68005371,8.292175293,1,0,0,rectangle,12.68005371,8.292175293,1,0,0,12.68005371,8.292175293,1,0,0,0,146,146,107,1,,,,,,,,
,,,,,,,,,,,,,FF,,,,,,,,0.8179,,,,,,,,,,,,,,,,,,,,,,60fd8ca930ae2235452962a2,6103795fa44862f47913e48f,2021-07-29_21h03.59.324,Simcolourproject_2stim_asymm_v5,2020.2.10,MacIntel,60,61025ae37ef11b136ea224fe,,,,,,,,,4234,42.01245117,86.19528198,1,0,0,response1disk,,7,13.08789063,-0.35848999,1,0,0,rectangle,13.08789063,-0.35848999,1,0,0,13.08789063,-0.35848999,1,0,0,0,147,147,4,1,,,,,,,,
,,,,,,,,,,,,,FF,,,,,,,,1.2355,,,,,,,,,,,,,,,,,,,,,,60fd8ca930ae2235452962a2,6103795fa44862f47913e48f,2021-07-29_21h03.59.324,Simcolourproject_2stim_asymm_v5,2020.2.10,MacIntel,60,61025ae37ef11b136ea224fe,,,,,,,,,1681,-89.89892578,34.6121521,1,0,0,response7disk,,1,-11.73339844,-2.438659668,1,0,0,rectangle,-11.73339844,-2.438659668,1,0,0,-11.73339844,-2.438659668,1,0,0,0,148,148,97,1,,,,,,,,
,,,,,,,,,,,,,FF,,,,,,,,1.9295,,,,,,,,,,,,,,,,,,,,,,60fd8ca930ae2235452962a2,6103795fa44862f47913e48f,2021-07-29_21h03.59.324,Simcolourproject_2stim_asymm_v5,2020.2.10,MacIntel,60,61025ae37ef11b136ea224fe,,,,,,,,,1270,87.27331543,37.42657471,1,0,0,response1disk,,6,11.1484375,-0.795440674,1,0,0,rectangle,11.1484375,-0.795440674,1,0,0,11.1484375,-0.795440674,1,0,0,0,149,149,130,1,,,,,,,,
,,,,,,,,,,,,,FF,,,,,,,,1.418,,,,,,,,,,,,,,,,,,,,,,60fd8ca930ae2235452962a2,6103795fa44862f47913e48f,2021-07-29_21h03.59.324,Simcolourproject_2stim_asymm_v5,2020.2.10,MacIntel,60,61025ae37ef11b136ea224fe,,,,,,,,,1486,71.86126709,67.08581543,1,0,0,response1disk,,6,6.826843262,6.338989258,1,0,0,rectangle,87.23815918,36.80697632,1,0,0,19.62304688,4.675628662,1,0,0,0,150,150,10,1,,response1disk_3,TRUE,6,6,"[64,152,51,205,308,130,105,11,233,59,128,152,256,315,188,232,151,207,15,192]",1.7555,rectangle
,,,,,,,,,,,,,FF,,,,,,,,3.334,,,,,,,,,,,,,,,,,,,,,,60fd8ca930ae2235452962a2,6103795fa44862f47913e48f,2021-07-29_21h03.59.324,Simcolourproject_2stim_asymm_v5,2020.2.10,MacIntel,60,61025ae37ef11b136ea224fe,,,,,,,,,2806,104.8955688,61.10797119,1,0,0,response1disk,,6,32.11474609,5.759429932,1,0,0,rectangle,-66.15283203,-25.55200195,1,0,0,3.562133789,0.477355957,1,0,0,0,151,151,119,1,,response5disk_3,TRUE,2,2,"[64,152,51,205,308,130,105,11,233,59,128,152,256,315,188,232,151,207,15,192]",1.6366,rectangle
,,,,,,,,,,,,,FF,,,,,,,,0.9465,,,,,,,,,,,,,,,,,,,,,,60fd8ca930ae2235452962a2,6103795fa44862f47913e48f,2021-07-29_21h03.59.324,Simcolourproject_2stim_asymm_v5,2020.2.10,MacIntel,60,61025ae37ef11b136ea224fe,,,,,,,,,351,-51.69915771,-28.49676514,1,0,0,response5disk,,2,16.52703857,2.593658447,1,0,0,rectangle,16.52703857,2.593658447,1,0,0,16.52703857,2.593658447,1,0,0,0,152,152,49,1,,,,,,,,
,,,,,,,,,,,,,FF,,,,,,,,0.8673,,,,,,,,,,,,,,,,,,,,,,60fd8ca930ae2235452962a2,6103795fa44862f47913e48f,2021-07-29_21h03.59.324,Simcolourproject_2stim_asymm_v5,2020.2.10,MacIntel,60,61025ae37ef11b136ea224fe,,,,,,,,,4167,-33.98034668,-77.50610352,1,0,0,response5disk,,3,-7.529296875,-7.280975342,1,0,0,rectangle,-7.529296875,-7.280975342,1,0,0,-7.529296875,-7.280975342,1,0,0,0,153,153,111,1,,,,,,,,
,,,,,,,,,,,,,FF,,,,,,,,1.0013,,,,,,,,,,,,,,,,,,,,,,60fd8ca930ae2235452962a2,6103795fa44862f47913e48f,2021-07-29_21h03.59.324,Simcolourproject_2stim_asymm_v5,2020.2.10,MacIntel,60,61025ae37ef11b136ea224fe,,,,,,,,,858,49.90057373,-59.11828613,1,0,0,response3disk,,4,26.01940918,-4.577087402,1,0,0,rectangle,26.01940918,-4.577087402,1,0,0,26.01940918,-4.577087402,1,0,0,0,154,154,44,1,,,,,,,,
,,,,,,,,,,,,,FF,,,,,,,,1.032,,,,,,,,,,,,,,,,,,,,,,60fd8ca930ae2235452962a2,6103795fa44862f47913e48f,2021-07-29_21h03.59.324,Simcolourproject_2stim_asymm_v5,2020.2.10,MacIntel,60,61025ae37ef11b136ea224fe,,,,,,,,,749,61.09228516,-34.66345215,1,0,0,response3disk,,5,21.55969238,-2.754455566,1,0,0,rectangle,21.55969238,-2.754455566,1,0,0,21.55969238,-2.754455566,1,0,0,0,155,155,128,1,,,,,,,,
,,,,,,,,,,,,,FF,,,,,,,,0.9677,,,,,,,,,,,,,,,,,,,,,,60fd8ca930ae2235452962a2,6103795fa44862f47913e48f,2021-07-29_21h03.59.324,Simcolourproject_2stim_asymm_v5,2020.2.10,MacIntel,60,61025ae37ef11b136ea224fe,,,,,,,,,205,75.13311768,-28.35983276,1,0,0,response3disk,,5,17.50292969,5.858978271,1,0,0,rectangle,17.50292969,5.858978271,1,0,0,17.50292969,5.858978271,1,0,0,0,156,156,74,1,,,,,,,,
,,,,,,,,,,,,,FF,,,,,,,,0.9345,,,,,,,,,,,,,,,,,,,,,,60fd8ca930ae2235452962a2,6103795fa44862f47913e48f,2021-07-29_21h03.59.324,Simcolourproject_2stim_asymm_v5,2020.2.10,MacIntel,60,61025ae37ef11b136ea224fe,,,,,,,,,816,40.28894043,-84.58740234,1,0,0,response3disk,,4,1.5234375,9.799835205,1,0,0,rectangle,1.5234375,9.799835205,1,0,0,1.5234375,9.799835205,1,0,0,0,157,157,18,1,,,,,,,,
,,,,,,,,,,,,,FF,,,,,,,,1.0207,,,,,,,,,,,,,,,,,,,,,,60fd8ca930ae2235452962a2,6103795fa44862f47913e48f,2021-07-29_21h03.59.324,Simcolourproject_2stim_asymm_v5,2020.2.10,MacIntel,60,61025ae37ef11b136ea224fe,,,,,,,,,1847,38.21557617,-87.25799561,1,0,0,response3disk,,4,2.720031738,-3.757659912,1,0,0,rectangle,2.720031738,-3.757659912,1,0,0,2.720031738,-3.757659912,1,0,0,0,158,158,132,1,,,,,,,,
,,,,,,,,,,,,,FF,,,,,,,,1.0673,,,,,,,,,,,,,,,,,,,,,,60fd8ca930ae2235452962a2,6103795fa44862f47913e48f,2021-07-29_21h03.59.324,Simcolourproject_2stim_asymm_v5,2020.2.10,MacIntel,60,61025ae37ef11b136ea224fe,,,,,,,,,3896,33.71801758,-70.06591797,1,0,0,response3disk,,4,10.35461426,5.897277832,1,0,0,rectangle,10.35461426,5.897277832,1,0,0,10.35461426,5.897277832,1,0,0,0,159,159,70,1,,,,,,,,
,,,,,,,,,,,,,FF,,,,,,,,0.9185,,,,,,,,,,,,,,,,,,,,,,60fd8ca930ae2235452962a2,6103795fa44862f47913e48f,2021-07-29_21h03.59.324,Simcolourproject_2stim_asymm_v5,2020.2.10,MacIntel,60,61025ae37ef11b136ea224fe,,,,,,,,,3981,-31.5380249,-62.95483398,1,0,0,response5disk,,3,-19.42236328,-5.227661133,1,0,0,rectangle,-19.42236328,-5.227661133,1,0,0,-19.42236328,-5.227661133,1,0,0,1,0,160,64,1,,,,,,,,
,,,,,,,,,,,,,FF,,,,,,,,0.6711,,,,,,,,,,,,,,,,,,,,,,60fd8ca930ae2235452962a2,6103795fa44862f47913e48f,2021-07-29_21h03.59.324,Simcolourproject_2stim_asymm_v5,2020.2.10,MacIntel,60,61025ae37ef11b136ea224fe,,,,,,,,,2736,-33.83685303,-64.37780762,1,0,0,response5disk,,3,-22.12988281,-2.682312012,1,0,0,rectangle,-22.12988281,-2.682312012,1,0,0,-22.12988281,-2.682312012,1,0,0,1,1,161,5,1,,,,,,,,
,,,,,,,,,,,,,FF,,,,,,,,0.6468,,,,,,,,,,,,,,,,,,,,,,60fd8ca930ae2235452962a2,6103795fa44862f47913e48f,2021-07-29_21h03.59.324,Simcolourproject_2stim_asymm_v5,2020.2.10,MacIntel,60,61025ae37ef11b136ea224fe,,,,,,,,,1525,-29.54199219,-63.21014404,1,0,0,response5disk,,3,-8.030334473,-3.727355957,1,0,0,rectangle,-8.030334473,-3.727355957,1,0,0,-8.030334473,-3.727355957,1,0,0,1,2,162,103,1,,,,,,,,
,,,,,,,,,,,,,FF,,,,,,,,0.7666,,,,,,,,,,,,,,,,,,,,,,60fd8ca930ae2235452962a2,6103795fa44862f47913e48f,2021-07-29_21h03.59.324,Simcolourproject_2stim_asymm_v5,2020.2.10,MacIntel,60,61025ae37ef11b136ea224fe,,,,,,,,,981,-28.4074707,-58.53210449,1,0,0,response5disk,,3,11.57849121,7.762451172,1,0,0,rectangle,11.57849121,7.762451172,1,0,0,11.57849121,7.762451172,1,0,0,1,3,163,29,1,,,,,,,,
,,,,,,,,,,,,,FF,,,,,,,,0.7979,,,,,,,,,,,,,,,,,,,,,,60fd8ca930ae2235452962a2,6103795fa44862f47913e48f,2021-07-29_21h03.59.324,Simcolourproject_2stim_asymm_v5,2020.2.10,MacIntel,60,61025ae37ef11b136ea224fe,,,,,,,,,2799,-45.1026001,-71.27563477,1,0,0,response5disk,,3,-3.747375488,-0.066986084,1,0,0,rectangle,-3.747375488,-0.066986084,1,0,0,-3.747375488,-0.066986084,1,0,0,1,4,164,102,1,,,,,,,,
,,,,,,,,,,,,,FF,,,,,,,,0.8488,,,,,,,,,,,,,,,,,,,,,,60fd8ca930ae2235452962a2,6103795fa44862f47913e48f,2021-07-29_21h03.59.324,Simcolourproject_2stim_asymm_v5,2020.2.10,MacIntel,60,61025ae37ef11b136ea224fe,,,,,,,,,3974,-75.59625244,-20.4395752,1,0,0,response5disk,,2,-12.01416016,3.072875977,1,0,0,rectangle,-12.01416016,3.072875977,1,0,0,-12.01416016,3.072875977,1,0,0,1,5,165,109,1,,,,,,,,
,,,,,,,,,,,,,FF,,,,,,,,0.6692,,,,,,,,,,,,,,,,,,,,,,60fd8ca930ae2235452962a2,6103795fa44862f47913e48f,2021-07-29_21h03.59.324,Simcolourproject_2stim_asymm_v5,2020.2.10,MacIntel,60,61025ae37ef11b136ea224fe,,,,,,,,,2549,-60.15942383,-36.22363281,1,0,0,response5disk,,2,-12.06262207,-5.872070313,1,0,0,rectangle,-12.06262207,-5.872070313,1,0,0,-12.06262207,-5.872070313,1,0,0,1,6,166,17,1,,,,,,,,
,,,,,,,,,,,,,FF,,,,,,,,0.9673,,,,,,,,,,,,,,,,,,,,,,60fd8ca930ae2235452962a2,6103795fa44862f47913e48f,2021-07-29_21h03.59.324,Simcolourproject_2stim_asymm_v5,2020.2.10,MacIntel,60,61025ae37ef11b136ea224fe,,,,,,,,,1726,-44.11364746,-23.63601685,1,0,0,response5disk,,2,-5.783813477,-5.560394287,1,0,0,rectangle,-5.783813477,-5.560394287,1,0,0,-5.783813477,-5.560394287,1,0,0,1,7,167,136,1,,,,,,,,
,,,,,,,,,,,,,FF,,,,,,,,1.7986,,,,,,,,,,,,,,,,,,,,,,60fd8ca930ae2235452962a2,6103795fa44862f47913e48f,2021-07-29_21h03.59.324,Simcolourproject_2stim_asymm_v5,2020.2.10,MacIntel,60,61025ae37ef11b136ea224fe,,,,,,,,,1302,-26.27087402,-44.72171021,1,0,0,response5disk,,3,-0.310974121,3.803833008,1,0,0,rectangle,-0.310974121,3.803833008,1,0,0,-0.310974121,3.803833008,1,0,0,1,8,168,80,1,,,,,,,,
,,,,,,,,,,,,,FF,,,,,,,,0.7026,,,,,,,,,,,,,,,,,,,,,,60fd8ca930ae2235452962a2,6103795fa44862f47913e48f,2021-07-29_21h03.59.324,Simcolourproject_2stim_asymm_v5,2020.2.10,MacIntel,60,61025ae37ef11b136ea224fe,,,,,,,,,4205,-62.43792725,-40.4402771,1,0,0,response5disk,,2,9.173095703,3.740631104,1,0,0,rectangle,9.173095703,3.740631104,1,0,0,9.173095703,3.740631104,1,0,0,1,9,169,38,1,,,,,,,,
,,,,,,,,,,,,,FF,,,,,,,,1.3633,,,,,,,,,,,,,,,,,,,,,,60fd8ca930ae2235452962a2,6103795fa44862f47913e48f,2021-07-29_21h03.59.324,Simcolourproject_2stim_asymm_v5,2020.2.10,MacIntel,60,61025ae37ef11b136ea224fe,,,,,,,,,507,81.48547363,-26.80526733,1,0,0,response3disk,,5,-8.121948242,-2.743988037,1,0,0,rectangle,-8.121948242,-2.743988037,1,0,0,-8.121948242,-2.743988037,1,0,0,1,10,170,152,1,,,,,,,,
,,,,,,,,,,,,,FF,,,,,,,,1.1975,,,,,,,,,,,,,,,,,,,,,,60fd8ca930ae2235452962a2,6103795fa44862f47913e48f,2021-07-29_21h03.59.324,Simcolourproject_2stim_asymm_v5,2020.2.10,MacIntel,60,61025ae37ef11b136ea224fe,,,,,,,,,1762,46.80310059,-73.47741699,1,0,0,response3disk,,4,18.3505249,10.30178833,1,0,0,rectangle,18.3505249,10.30178833,1,0,0,18.3505249,10.30178833,1,0,0,1,11,171,94,1,,,,,,,,
,,,,,,,,,,,,,FF,,,,,,,,0.6471,,,,,,,,,,,,,,,,,,,,,,60fd8ca930ae2235452962a2,6103795fa44862f47913e48f,2021-07-29_21h03.59.324,Simcolourproject_2stim_asymm_v5,2020.2.10,MacIntel,60,61025ae37ef11b136ea224fe,,,,,,,,,4257,36.796875,63.80969238,1,0,0,response1disk,,7,4.008056641,2.791748047,1,0,0,rectangle,4.008056641,2.791748047,1,0,0,4.008056641,2.791748047,1,0,0,1,12,172,67,1,,,,,,,,
,,,,,,,,,,,,,FF,,,,,,,,0.8977,,,,,,,,,,,,,,,,,,,,,,60fd8ca930ae2235452962a2,6103795fa44862f47913e48f,2021-07-29_21h03.59.324,Simcolourproject_2stim_asymm_v5,2020.2.10,MacIntel,60,61025ae37ef11b136ea224fe,,,,,,,,,1813,-79.46881104,32.30899048,1,0,0,response7disk,,1,8.436157227,-14.05627441,1,0,0,rectangle,8.436157227,-14.05627441,1,0,0,8.436157227,-14.05627441,1,0,0,1,13,173,12,1,,,,,,,,
,,,,,,,,,,,,,FF,,,,,,,,0.7872,,,,,,,,,,,,,,,,,,,,,,60fd8ca930ae2235452962a2,6103795fa44862f47913e48f,2021-07-29_21h03.59.324,Simcolourproject_2stim_asymm_v5,2020.2.10,MacIntel,60,61025ae37ef11b136ea224fe,,,,,,,,,1815,-24.13952637,78.81509399,1,0,0,response7disk,,0,18.8145752,-4.813262939,1,0,0,rectangle,18.8145752,-4.813262939,1,0,0,18.8145752,-4.813262939,1,0,0,1,14,174,41,1,,,,,,,,
,,,,,,,,,,,,,FF,,,,,,,,1.0301,,,,,,,,,,,,,,,,,,,,,,60fd8ca930ae2235452962a2,6103795fa44862f47913e48f,2021-07-29_21h03.59.324,Simcolourproject_2stim_asymm_v5,2020.2.10,MacIntel,60,61025ae37ef11b136ea224fe,,,,,,,,,234,-43.2868042,-62.38006592,1,0,0,response5disk,,3,5.390686035,1.511993408,1,0,0,rectangle,5.390686035,1.511993408,1,0,0,5.390686035,1.511993408,1,0,0,1,15,175,69,1,,,,,,,,
,,,,,,,,,,,,,FF,,,,,,,,0.7367,,,,,,,,,,,,,,,,,,,,,,60fd8ca930ae2235452962a2,6103795fa44862f47913e48f,2021-07-29_21h03.59.324,Simcolourproject_2stim_asymm_v5,2020.2.10,MacIntel,60,61025ae37ef11b136ea224fe,,,,,,,,,600,56.12939453,44.22756958,1,0,0,response1disk,,6,4.942810059,1.283935547,1,0,0,rectangle,4.942810059,1.283935547,1,0,0,4.942810059,1.283935547,1,0,0,1,16,176,101,1,,,,,,,,
,,,,,,,,,,,,,FF,,,,,,,,0.9374,,,,,,,,,,,,,,,,,,,,,,60fd8ca930ae2235452962a2,6103795fa44862f47913e48f,2021-07-29_21h03.59.324,Simcolourproject_2stim_asymm_v5,2020.2.10,MacIntel,60,61025ae37ef11b136ea224fe,,,,,,,,,3631,53.6519165,35.13421631,1,0,0,response1disk,,6,-2.144348145,-0.693878174,1,0,0,rectangle,-2.144348145,-0.693878174,1,0,0,-2.144348145,-0.693878174,1,0,0,1,17,177,53,1,,,,,,,,
,,,,,,,,,,,,,FF,,,,,,,,1.0496,,,,,,,,,,,,,,,,,,,,,,60fd8ca930ae2235452962a2,6103795fa44862f47913e48f,2021-07-29_21h03.59.324,Simcolourproject_2stim_asymm_v5,2020.2.10,MacIntel,60,61025ae37ef11b136ea224fe,,,,,,,,,909,55.02752686,-75.96472168,1,0,0,response3disk,,4,-2.940490723,7.198272705,1,0,0,rectangle,-2.940490723,7.198272705,1,0,0,-2.940490723,7.198272705,1,0,0,1,18,178,52,1,,,,,,,,
,,,,,,,,,,,,,FF,,,,,,,,2.7694,,,,,,,,,,,,,,,,,,,,,,60fd8ca930ae2235452962a2,6103795fa44862f47913e48f,2021-07-29_21h03.59.324,Simcolourproject_2stim_asymm_v5,2020.2.10,MacIntel,60,61025ae37ef11b136ea224fe,,,,,,,,,3807,-41.64050293,-61.29537964,1,0,0,response5disk,,3,-0.143920898,-1.020965576,1,0,0,rectangle,-0.143920898,-1.020965576,1,0,0,-0.143920898,-1.020965576,1,0,0,1,19,179,55,1,,,,,,,,
,,,,,,,,,,,,,FF,,,,,,,,1.8366,,,,,,,,,,,,,,,,,,,,,,60fd8ca930ae2235452962a2,6103795fa44862f47913e48f,2021-07-29_21h03.59.324,Simcolourproject_2stim_asymm_v5,2020.2.10,MacIntel,60,61025ae37ef11b136ea224fe,,,,,,,,,621,-90.56982422,-33.45413208,1,0,0,response5disk,,2,-2.71875,-4.313201904,1,0,0,rectangle,-2.71875,-4.313201904,1,0,0,-2.71875,-4.313201904,1,0,0,1,20,180,59,1,,,,,,,,
,,,,,,,,,,,,,FF,,,,,,,,1.1007,,,,,,,,,,,,,,,,,,,,,,60fd8ca930ae2235452962a2,6103795fa44862f47913e48f,2021-07-29_21h03.59.324,Simcolourproject_2stim_asymm_v5,2020.2.10,MacIntel,60,61025ae37ef11b136ea224fe,,,,,,,,,2304,-34.33300781,-83.22235107,1,0,0,response5disk,,3,2.368103027,-3.199066162,1,0,0,rectangle,2.368103027,-3.199066162,1,0,0,2.368103027,-3.199066162,1,0,0,1,21,181,61,1,,,,,,,,
,,,,,,,,,,,,,FF,,,,,,,,0.6684,,,,,,,,,,,,,,,,,,,,,,60fd8ca930ae2235452962a2,6103795fa44862f47913e48f,2021-07-29_21h03.59.324,Simcolourproject_2stim_asymm_v5,2020.2.10,MacIntel,60,61025ae37ef11b136ea224fe,,,,,,,,,1914,33.82806396,-57.71902466,1,0,0,response3disk,,4,23.29144287,3.46572876,1,0,0,rectangle,23.29144287,3.46572876,1,0,0,23.29144287,3.46572876,1,0,0,1,22,182,106,1,,,,,,,,
,,,,,,,,,,,,,FF,,,,,,,,0.6162,,,,,,,,,,,,,,,,,,,,,,60fd8ca930ae2235452962a2,6103795fa44862f47913e48f,2021-07-29_21h03.59.324,Simcolourproject_2stim_asymm_v5,2020.2.10,MacIntel,60,61025ae37ef11b136ea224fe,,,,,,,,,3069,53.53936768,-30.31887817,1,0,0,response3disk,,5,9.576782227,-4.984802246,1,0,0,rectangle,9.576782227,-4.984802246,1,0,0,9.576782227,-4.984802246,1,0,0,1,23,183,71,1,,,,,,,,
,,,,,,,,,,,,,FF,,,,,,,,0.9034,,,,,,,,,,,,,,,,,,,,,,60fd8ca930ae2235452962a2,6103795fa44862f47913e48f,2021-07-29_21h03.59.324,Simcolourproject_2stim_asymm_v5,2020.2.10,MacIntel,60,61025ae37ef11b136ea224fe,,,,,,,,,1068,79.63098145,32.18707275,1,0,0,response1disk,,6,9.837158203,2.441375732,1,0,0,rectangle,9.837158203,2.441375732,1,0,0,9.837158203,2.441375732,1,0,0,1,24,184,18,1,,,,,,,,
,,,,,,,,,,,,,FF,,,,,,,,0.6818,,,,,,,,,,,,,,,,,,,,,,60fd8ca930ae2235452962a2,6103795fa44862f47913e48f,2021-07-29_21h03.59.324,Simcolourproject_2stim_asymm_v5,2020.2.10,MacIntel,60,61025ae37ef11b136ea224fe,,,,,,,,,3168,58.85681152,-33.08267212,1,0,0,response3disk,,5,5.248657227,-2.728210449,1,0,0,rectangle,5.248657227,-2.728210449,1,0,0,5.248657227,-2.728210449,1,0,0,1,25,185,87,1,,,,,,,,
,,,,,,,,,,,,,FF,,,,,,,,0.8803,,,,,,,,,,,,,,,,,,,,,,60fd8ca930ae2235452962a2,6103795fa44862f47913e48f,2021-07-29_21h03.59.324,Simcolourproject_2stim_asymm_v5,2020.2.10,MacIntel,60,61025ae37ef11b136ea224fe,,,,,,,,,401,80.77319336,-34.18453979,1,0,0,response3disk,,5,3.212402344,-9.77520752,1,0,0,rectangle,3.212402344,-9.77520752,1,0,0,3.212402344,-9.77520752,1,0,0,1,26,186,37,1,,,,,,,,
,,,,,,,,,,,,,FF,,,,,,,,0.8309,,,,,,,,,,,,,,,,,,,,,,60fd8ca930ae2235452962a2,6103795fa44862f47913e48f,2021-07-29_21h03.59.324,Simcolourproject_2stim_asymm_v5,2020.2.10,MacIntel,60,61025ae37ef11b136ea224fe,,,,,,,,,2171,-49.23803711,-29.13555908,1,0,0,response5disk,,2,9.282653809,-6.90057373,1,0,0,rectangle,34.87976074,-75.92767334,1,0,0,-5.475952148,-4.194458008,1,0,0,1,27,187,86,1,,response3disk_3,TRUE,4,4,"[64,152,51,205,308,130,105,11,233,59,128,152,256,315,188,232,151,207,15,192]",2.0336,rectangle
,,,,,,,,,,,,,FF,,,,,,,,1.164,,,,,,,,,,,,,,,,,,,,,,60fd8ca930ae2235452962a2,6103795fa44862f47913e48f,2021-07-29_21h03.59.324,Simcolourproject_2stim_asymm_v5,2020.2.10,MacIntel,60,61025ae37ef11b136ea224fe,,,,,,,,,3013,42.52185059,-60.87704468,1,0,0,response3disk,,4,19.84716797,-3.14932251,1,0,0,rectangle,19.84716797,-3.14932251,1,0,0,19.84716797,-3.14932251,1,0,0,1,28,188,1,1,,,,,,,,
,,,,,,,,,,,,,FF,,,,,,,,0.8839,,,,,,,,,,,,,,,,,,,,,,60fd8ca930ae2235452962a2,6103795fa44862f47913e48f,2021-07-29_21h03.59.324,Simcolourproject_2stim_asymm_v5,2020.2.10,MacIntel,60,61025ae37ef11b136ea224fe,,,,,,,,,3769,37.89892578,-62.2088623,1,0,0,response3disk,,4,18.80200195,1.293792725,1,0,0,rectangle,18.80200195,1.293792725,1,0,0,18.80200195,1.293792725,1,0,0,1,29,189,142,1,,,,,,,,
,,,,,,,,,,,,,FF,,,,,,,,1.0945,,,,,,,,,,,,,,,,,,,,,,60fd8ca930ae2235452962a2,6103795fa44862f47913e48f,2021-07-29_21h03.59.324,Simcolourproject_2stim_asymm_v5,2020.2.10,MacIntel,60,61025ae37ef11b136ea224fe,,,,,,,,,1829,-60.10180664,-81.65447998,1,0,0,response5disk,,3,3.062011719,-6.777801514,1,0,0,rectangle,3.062011719,-6.777801514,1,0,0,3.062011719,-6.777801514,1,0,0,1,30,190,26,1,,,,,,,,
,,,,,,,,,,,,,FF,,,,,,,,3.1515,,,,,,,,,,,,,,,,,,,,,,60fd8ca930ae2235452962a2,6103795fa44862f47913e48f,2021-07-29_21h03.59.324,Simcolourproject_2stim_asymm_v5,2020.2.10,MacIntel,60,61025ae37ef11b136ea224fe,,,,,,,,,764,-87.64257813,-33.38909912,1,0,0,response5disk,,2,-6.633422852,0.956756592,1,0,0,rectangle,-90.79083252,-45.40893555,1,0,0,-16.74346924,-3.142608643,1,0,0,1,31,191,36,1,,response5disk_3,TRUE,2,2,"[64,152,51,205,308,130,105,11,233,59,128,152,256,315,188,232,151,207,15,192]",1.263,rectangle
,,,,,,,,,,,,,FF,,,,,,,,1.0982,,,,,,,,,,,,,,,,,,,,,,60fd8ca930ae2235452962a2,6103795fa44862f47913e48f,2021-07-29_21h03.59.324,Simcolourproject_2stim_asymm_v5,2020.2.10,MacIntel,60,61025ae37ef11b136ea224fe,,,,,,,,,4274,44.72747803,-58.22171021,1,0,0,response3disk,,4,22.38067627,-5.876556396,1,0,0,rectangle,22.38067627,-5.876556396,1,0,0,22.38067627,-5.876556396,1,0,0,1,32,192,27,1,,,,,,,,
,,,,,,,,,,,,,FF,,,,,,,,0.9295,,,,,,,,,,,,,,,,,,,,,,60fd8ca930ae2235452962a2,6103795fa44862f47913e48f,2021-07-29_21h03.59.324,Simcolourproject_2stim_asymm_v5,2020.2.10,MacIntel,60,61025ae37ef11b136ea224fe,,,,,,,,,3285,-97.04382324,31.38299561,1,0,0,response7disk,,1,1.680358887,-10.47244263,1,0,0,rectangle,1.680358887,-10.47244263,1,0,0,1.680358887,-10.47244263,1,0,0,1,33,193,74,1,,,,,,,,
,,,,,,,,,,,,,FF,,,,,,,,1.7867,,,,,,,,,,,,,,,,,,,,,,60fd8ca930ae2235452962a2,6103795fa44862f47913e48f,2021-07-29_21h03.59.324,Simcolourproject_2stim_asymm_v5,2020.2.10,MacIntel,60,61025ae37ef11b136ea224fe,,,,,,,,,2092,-34.40808105,-90.67199707,1,0,0,response5disk,,3,-1.030456543,-12.74560547,1,0,0,rectangle,-1.030456543,-12.74560547,1,0,0,-1.030456543,-12.74560547,1,0,0,1,34,194,63,1,,,,,,,,
,,,,,,,,,,,,,FF,,,,,,,,0.6472,,,,,,,,,,,,,,,,,,,,,,60fd8ca930ae2235452962a2,6103795fa44862f47913e48f,2021-07-29_21h03.59.324,Simcolourproject_2stim_asymm_v5,2020.2.10,MacIntel,60,61025ae37ef11b136ea224fe,,,,,,,,,3237,-21.68359375,-46.88497925,1,0,0,response5disk,,3,-11.32232666,-10.4984436,1,0,0,rectangle,-11.32232666,-10.4984436,1,0,0,-11.32232666,-10.4984436,1,0,0,1,35,195,78,1,,,,,,,,
,,,,,,,,,,,,,FF,,,,,,,,0.7166,,,,,,,,,,,,,,,,,,,,,,60fd8ca930ae2235452962a2,6103795fa44862f47913e48f,2021-07-29_21h03.59.324,Simcolourproject_2stim_asymm_v5,2020.2.10,MacIntel,60,61025ae37ef11b136ea224fe,,,,,,,,,3424,-25.70050049,-38.21102905,1,0,0,response5disk,,3,-25.70050049,-9.02822876,1,0,0,rectangle,-25.70050049,-9.02822876,1,0,0,-25.70050049,-9.02822876,1,0,0,1,36,196,56,1,,,,,,,,
,,,,,,,,,,,,,FF,,,,,,,,0.9633,,,,,,,,,,,,,,,,,,,,,,60fd8ca930ae2235452962a2,6103795fa44862f47913e48f,2021-07-29_21h03.59.324,Simcolourproject_2stim_asymm_v5,2020.2.10,MacIntel,60,61025ae37ef11b136ea224fe,,,,,,,,,1834,30.47583008,-70.75811768,1,0,0,response3disk,,4,-0.316101074,1.131164551,1,0,0,rectangle,-0.316101074,1.131164551,1,0,0,-0.316101074,1.131164551,1,0,0,1,37,197,126,1,,,,,,,,
,,,,,,,,,,,,,FF,,,,,,,,0.6316,,,,,,,,,,,,,,,,,,,,,,60fd8ca930ae2235452962a2,6103795fa44862f47913e48f,2021-07-29_21h03.59.324,Simcolourproject_2stim_asymm_v5,2020.2.10,MacIntel,60,61025ae37ef11b136ea224fe,,,,,,,,,3693,62.128479,-33.52215576,1,0,0,response3disk,,5,8.087646484,-2.903808594,1,0,0,rectangle,8.087646484,-2.903808594,1,0,0,8.087646484,-2.903808594,1,0,0,1,38,198,128,1,,,,,,,,
,,,,,,,,,,,,,FF,,,,,,,,0.5702,,,,,,,,,,,,,,,,,,,,,,60fd8ca930ae2235452962a2,6103795fa44862f47913e48f,2021-07-29_21h03.59.324,Simcolourproject_2stim_asymm_v5,2020.2.10,MacIntel,60,61025ae37ef11b136ea224fe,,,,,,,,,2390,53.67840576,-30.7361145,1,0,0,response3disk,,5,18.65283203,-7.268615723,1,0,0,rectangle,18.65283203,-7.268615723,1,0,0,18.65283203,-7.268615723,1,0,0,1,39,199,6,1,,,,,,,,
,,,,,,,,,,,,,FF,,,,,,,,0.5478,,,,,,,,,,,,,,,,,,,,,,60fd8ca930ae2235452962a2,6103795fa44862f47913e48f,2021-07-29_21h03.59.324,Simcolourproject_2stim_asymm_v5,2020.2.10,MacIntel,60,61025ae37ef11b136ea224fe,,,,,,,,,2815,49.1194458,-30.13064575,1,0,0,response3disk,,5,-6.231079102,-6.935455322,1,0,0,rectangle,-6.231079102,-6.935455322,1,0,0,-6.231079102,-6.935455322,1,0,0,1,40,200,49,1,,,,,,,,
,,,,,,,,,,,,,FF,,,,,,,,1.322,,,,,,,,,,,,,,,,,,,,,,60fd8ca930ae2235452962a2,6103795fa44862f47913e48f,2021-07-29_21h03.59.324,Simcolourproject_2stim_asymm_v5,2020.2.10,MacIntel,60,61025ae37ef11b136ea224fe,,,,,,,,,342,-35.18670654,-81.93902588,1,0,0,response5disk,,3,-13.02697754,-0.324066162,1,0,0,rectangle,-13.02697754,-0.324066162,1,0,0,-13.02697754,-0.324066162,1,0,0,1,41,201,4,1,,,,,,,,
,,,,,,,,,,,,,FF,,,,,,,,0.8333,,,,,,,,,,,,,,,,,,,,,,60fd8ca930ae2235452962a2,6103795fa44862f47913e48f,2021-07-29_21h03.59.324,Simcolourproject_2stim_asymm_v5,2020.2.10,MacIntel,60,61025ae37ef11b136ea224fe,,,,,,,,,966,79.36730957,59.8656311,1,0,0,response1disk,,6,8.916687012,7.675811768,1,0,0,rectangle,8.916687012,7.675811768,1,0,0,8.916687012,7.675811768,1,0,0,1,42,202,140,1,,,,,,,,
,,,,,,,,,,,,,FF,,,,,,,,0.9805,,,,,,,,,,,,,,,,,,,,,,60fd8ca930ae2235452962a2,6103795fa44862f47913e48f,2021-07-29_21h03.59.324,Simcolourproject_2stim_asymm_v5,2020.2.10,MacIntel,60,61025ae37ef11b136ea224fe,,,,,,,,,3298,-66.78967285,31.39501953,1,0,0,response7disk,,1,13.37475586,-3.587921143,1,0,0,rectangle,13.37475586,-3.587921143,1,0,0,13.37475586,-3.587921143,1,0,0,1,43,203,33,1,,,,,,,,
,,,,,,,,,,,,,FF,,,,,,,,0.8179,,,,,,,,,,,,,,,,,,,,,,60fd8ca930ae2235452962a2,6103795fa44862f47913e48f,2021-07-29_21h03.59.324,Simcolourproject_2stim_asymm_v5,2020.2.10,MacIntel,60,61025ae37ef11b136ea224fe,,,,,,,,,1197,75.4453125,37.5586853,1,0,0,response1disk,,6,-0.567687988,-0.861114502,1,0,0,rectangle,98.41473389,52.37078857,1,0,0,13.92724609,9.361816406,1,0,0,1,44,204,2,1,,response1disk_3,TRUE,6,6,"[64,152,51,205,308,130,105,11,233,59,128,152,256,315,188,232,151,207,15,192]",1.4031,rectangle
,,,,,,,,,,,,,FF,,,,,,,,2.4469,,,,,,,,,,,,,,,,,,,,,,60fd8ca930ae2235452962a2,6103795fa44862f47913e48f,2021-07-29_21h03.59.324,Simcolourproject_2stim_asymm_v5,2020.2.10,MacIntel,60,61025ae37ef11b136ea224fe,,,,,,,,,768,41.06878662,-58.93548584,1,0,0,response3disk,,4,22.40161133,-9.327911377,1,0,0,rectangle,22.40161133,-9.327911377,1,0,0,22.40161133,-9.327911377,1,0,0,1,45,205,99,1,,,,,,,,
,,,,,,,,,,,,,FF,,,,,,,,0.7125,,,,,,,,,,,,,,,,,,,,,,60fd8ca930ae2235452962a2,6103795fa44862f47913e48f,2021-07-29_21h03.59.324,Simcolourproject_2stim_asymm_v5,2020.2.10,MacIntel,60,61025ae37ef11b136ea224fe,,,,,,,,,3489,33.90631104,-65.75524902,1,0,0,response3disk,,4,17.69580078,-7.744171143,1,0,0,rectangle,83.22753906,-25.88406372,1,0,0,16.48266602,3.063842773,1,0,0,1,46,206,35,1,,response3disk_3,TRUE,5,5,"[64,152,51,205,308,130,105,11,233,59,128,152,256,315,188,232,151,207,15,192]",1.3992,rectangle
,,,,,,,,,,,,,FF,,,,,,,,0.9807,,,,,,,,,,,,,,,,,,,,,,60fd8ca930ae2235452962a2,6103795fa44862f47913e48f,2021-07-29_21h03.59.324,Simcolourproject_2stim_asymm_v5,2020.2.10,MacIntel,60,61025ae37ef11b136ea224fe,,,,,,,,,2758,72.25695801,22.00909424,1,0,0,response1disk,,6,-13.42962646,-0.454742432,1,0,0,rectangle,-13.42962646,-0.454742432,1,0,0,-13.42962646,-0.454742432,1,0,0,1,47,207,11,1,,,,,,,,
,,,,,,,,,,,,,FF,,,,,,,,0.6989,,,,,,,,,,,,,,,,,,,,,,60fd8ca930ae2235452962a2,6103795fa44862f47913e48f,2021-07-29_21h03.59.324,Simcolourproject_2stim_asymm_v5,2020.2.10,MacIntel,60,61025ae37ef11b136ea224fe,,,,,,,,,2597,78.93933105,30.72250366,1,0,0,response1disk,,6,7.747680664,-1.261291504,1,0,0,rectangle,7.747680664,-1.261291504,1,0,0,7.747680664,-1.261291504,1,0,0,1,48,208,95,1,,,,,,,,
,,,,,,,,,,,,,FF,,,,,,,,0.7501,,,,,,,,,,,,,,,,,,,,,,60fd8ca930ae2235452962a2,6103795fa44862f47913e48f,2021-07-29_21h03.59.324,Simcolourproject_2stim_asymm_v5,2020.2.10,MacIntel,60,61025ae37ef11b136ea224fe,,,,,,,,,1744,-62.63293457,-29.48956299,1,0,0,response5disk,,2,4.320617676,-3.415740967,1,0,0,rectangle,4.320617676,-3.415740967,1,0,0,4.320617676,-3.415740967,1,0,0,1,49,209,127,1,,,,,,,,
,,,,,,,,,,,,,FF,,,,,,,,1.0813,,,,,,,,,,,,,,,,,,,,,,60fd8ca930ae2235452962a2,6103795fa44862f47913e48f,2021-07-29_21h03.59.324,Simcolourproject_2stim_asymm_v5,2020.2.10,MacIntel,60,61025ae37ef11b136ea224fe,,,,,,,,,3578,96.62109375,37.9793396,1,0,0,response1disk,,6,-27.76477051,3.057128906,1,0,0,rectangle,-27.76477051,3.057128906,1,0,0,-27.76477051,3.057128906,1,0,0,1,50,210,112,1,,,,,,,,
,,,,,,,,,,,,,FF,,,,,,,,0.9353,,,,,,,,,,,,,,,,,,,,,,60fd8ca930ae2235452962a2,6103795fa44862f47913e48f,2021-07-29_21h03.59.324,Simcolourproject_2stim_asymm_v5,2020.2.10,MacIntel,60,61025ae37ef11b136ea224fe,,,,,,,,,4309,89.94091797,-39.16165161,1,0,0,response3disk,,5,3.329467773,-8.518890381,1,0,0,rectangle,3.329467773,-8.518890381,1,0,0,3.329467773,-8.518890381,1,0,0,1,51,211,125,1,,,,,,,,
,,,,,,,,,,,,,FF,,,,,,,,0.9374,,,,,,,,,,,,,,,,,,,,,,60fd8ca930ae2235452962a2,6103795fa44862f47913e48f,2021-07-29_21h03.59.324,Simcolourproject_2stim_asymm_v5,2020.2.10,MacIntel,60,61025ae37ef11b136ea224fe,,,,,,,,,1169,46.28173828,110.9247131,1,0,0,response1disk,,7,7.58605957,-0.420837402,1,0,0,rectangle,7.58605957,-0.420837402,1,0,0,7.58605957,-0.420837402,1,0,0,1,52,212,90,1,,,,,,,,
,,,,,,,,,,,,,FF,,,,,,,,2.7499,,,,,,,,,,,,,,,,,,,,,,60fd8ca930ae2235452962a2,6103795fa44862f47913e48f,2021-07-29_21h03.59.324,Simcolourproject_2stim_asymm_v5,2020.2.10,MacIntel,60,61025ae37ef11b136ea224fe,,,,,,,,,2275,28.90332031,-59.92248535,1,0,0,response3disk,,4,23.26940918,-4.726837158,1,0,0,rectangle,23.26940918,-4.726837158,1,0,0,23.26940918,-4.726837158,1,0,0,1,53,213,24,1,,,,,,,,
,,,,,,,,,,,,,FF,,,,,,,,0.6673,,,,,,,,,,,,,,,,,,,,,,60fd8ca930ae2235452962a2,6103795fa44862f47913e48f,2021-07-29_21h03.59.324,Simcolourproject_2stim_asymm_v5,2020.2.10,MacIntel,60,61025ae37ef11b136ea224fe,,,,,,,,,4017,36.55963135,-74.65313721,1,0,0,response3disk,,4,17.89587402,-3.078399658,1,0,0,rectangle,17.89587402,-3.078399658,1,0,0,17.89587402,-3.078399658,1,0,0,1,54,214,79,1,,,,,,,,
,,,,,,,,,,,,,FF,,,,,,,,0.5848,,,,,,,,,,,,,,,,,,,,,,60fd8ca930ae2235452962a2,6103795fa44862f47913e48f,2021-07-29_21h03.59.324,Simcolourproject_2stim_asymm_v5,2020.2.10,MacIntel,60,61025ae37ef11b136ea224fe,,,,,,,,,1943,71.00061035,-29.90777588,1,0,0,response3disk,,5,9.593383789,-1.526184082,1,0,0,rectangle,9.593383789,-1.526184082,1,0,0,9.593383789,-1.526184082,1,0,0,1,55,215,8,1,,,,,,,,
,,,,,,,,,,,,,FF,,,,,,,,0.8691,,,,,,,,,,,,,,,,,,,,,,60fd8ca930ae2235452962a2,6103795fa44862f47913e48f,2021-07-29_21h03.59.324,Simcolourproject_2stim_asymm_v5,2020.2.10,MacIntel,60,61025ae37ef11b136ea224fe,,,,,,,,,2233,-99.81237793,26.61303711,1,0,0,response7disk,,1,-25.59350586,4.320007324,1,0,0,rectangle,-25.59350586,4.320007324,1,0,0,-25.59350586,4.320007324,1,0,0,1,56,216,40,1,,,,,,,,
,,,,,,,,,,,,,FF,,,,,,,,1.816,,,,,,,,,,,,,,,,,,,,,,60fd8ca930ae2235452962a2,6103795fa44862f47913e48f,2021-07-29_21h03.59.324,Simcolourproject_2stim_asymm_v5,2020.2.10,MacIntel,60,61025ae37ef11b136ea224fe,,,,,,,,,826,76.02490234,42.17236328,1,0,0,response1disk,,6,0.3828125,-5.526123047,1,0,0,rectangle,0.3828125,-5.526123047,1,0,0,0.3828125,-5.526123047,1,0,0,1,57,217,3,1,,,,,,,,
,,,,,,,,,,,,,FF,,,,,,,,1.433,,,,,,,,,,,,,,,,,,,,,,60fd8ca930ae2235452962a2,6103795fa44862f47913e48f,2021-07-29_21h03.59.324,Simcolourproject_2stim_asymm_v5,2020.2.10,MacIntel,60,61025ae37ef11b136ea224fe,,,,,,,,,3184,79.98303223,40.012146,1,0,0,response1disk,,6,12.24865723,2.76675415,1,0,0,rectangle,12.24865723,2.76675415,1,0,0,12.24865723,2.76675415,1,0,0,1,58,218,107,1,,,,,,,,
,,,,,,,,,,,,,FF,,,,,,,,0.6489,,,,,,,,,,,,,,,,,,,,,,60fd8ca930ae2235452962a2,6103795fa44862f47913e48f,2021-07-29_21h03.59.324,Simcolourproject_2stim_asymm_v5,2020.2.10,MacIntel,60,61025ae37ef11b136ea224fe,,,,,,,,,1807,62.18994141,31.88235474,1,0,0,response1disk,,6,15.94836426,10.03808594,1,0,0,rectangle,15.94836426,10.03808594,1,0,0,15.94836426,10.03808594,1,0,0,1,59,219,141,1,,,,,,,,
,,,,,,,,,,,,,FF,,,,,,,,1.1136,,,,,,,,,,,,,,,,,,,,,,60fd8ca930ae2235452962a2,6103795fa44862f47913e48f,2021-07-29_21h03.59.324,Simcolourproject_2stim_asymm_v5,2020.2.10,MacIntel,60,61025ae37ef11b136ea224fe,,,,,,,,,679,71.06323242,-37.40512085,1,0,0,response3disk,,5,17.50946045,-5.135131836,1,0,0,rectangle,17.50946045,-5.135131836,1,0,0,17.50946045,-5.135131836,1,0,0,1,60,220,157,1,,,,,,,,
,,,,,,,,,,,,,FF,,,,,,,,1.0296,,,,,,,,,,,,,,,,,,,,,,60fd8ca930ae2235452962a2,6103795fa44862f47913e48f,2021-07-29_21h03.59.324,Simcolourproject_2stim_asymm_v5,2020.2.10,MacIntel,60,61025ae37ef11b136ea224fe,,,,,,,,,2337,82.31176758,44.25662231,1,0,0,response1disk,,6,28.45471191,14.22979736,1,0,0,rectangle,28.45471191,14.22979736,1,0,0,28.45471191,14.22979736,1,0,0,1,61,221,146,1,,,,,,,,
,,,,,,,,,,,,,FF,,,,,,,,1.5825,,,,,,,,,,,,,,,,,,,,,,60fd8ca930ae2235452962a2,6103795fa44862f47913e48f,2021-07-29_21h03.59.324,Simcolourproject_2stim_asymm_v5,2020.2.10,MacIntel,60,61025ae37ef11b136ea224fe,,,,,,,,,1587,-91.1774292,-48.99002075,1,0,0,response5disk,,2,-6.878845215,-3.945526123,1,0,0,rectangle,-6.878845215,-3.945526123,1,0,0,-6.878845215,-3.945526123,1,0,0,1,62,222,82,1,,,,,,,,
,,,,,,,,,,,,,FF,,,,,,,,1.9826,,,,,,,,,,,,,,,,,,,,,,60fd8ca930ae2235452962a2,6103795fa44862f47913e48f,2021-07-29_21h03.59.324,Simcolourproject_2stim_asymm_v5,2020.2.10,MacIntel,60,61025ae37ef11b136ea224fe,,,,,,,,,2008,34.29919434,-64.44830322,1,0,0,response3disk,,4,18.42358398,2.680786133,1,0,0,rectangle,18.42358398,2.680786133,1,0,0,18.42358398,2.680786133,1,0,0,1,63,223,66,1,,,,,,,,
,,,,,,,,,,,,,FF,,,,,,,,1.0025,,,,,,,,,,,,,,,,,,,,,,60fd8ca930ae2235452962a2,6103795fa44862f47913e48f,2021-07-29_21h03.59.324,Simcolourproject_2stim_asymm_v5,2020.2.10,MacIntel,60,61025ae37ef11b136ea224fe,,,,,,,,,4119,-100.5444336,-21.00384521,1,0,0,response5disk,,2,-17.39538574,-8.435394287,1,0,0,rectangle,-17.39538574,-8.435394287,1,0,0,-17.39538574,-8.435394287,1,0,0,1,64,224,130,1,,,,,,,,
,,,,,,,,,,,,,FF,,,,,,,,1.0802,,,,,,,,,,,,,,,,,,,,,,60fd8ca930ae2235452962a2,6103795fa44862f47913e48f,2021-07-29_21h03.59.324,Simcolourproject_2stim_asymm_v5,2020.2.10,MacIntel,60,61025ae37ef11b136ea224fe,,,,,,,,,1689,-28.24511719,-62.23266602,1,0,0,response5disk,,3,-0.202270508,-1.478179932,1,0,0,rectangle,-0.202270508,-1.478179932,1,0,0,-0.202270508,-1.478179932,1,0,0,1,65,225,65,1,,,,,,,,
,,,,,,,,,,,,,FF,,,,,,,,0.6833,,,,,,,,,,,,,,,,,,,,,,60fd8ca930ae2235452962a2,6103795fa44862f47913e48f,2021-07-29_21h03.59.324,Simcolourproject_2stim_asymm_v5,2020.2.10,MacIntel,60,61025ae37ef11b136ea224fe,,,,,,,,,3737,-29.30444336,-55.75701904,1,0,0,response5disk,,3,-13.00616455,-10.24346924,1,0,0,rectangle,-13.00616455,-10.24346924,1,0,0,-13.00616455,-10.24346924,1,0,0,1,66,226,131,1,,,,,,,,
,,,,,,,,,,,,,FF,,,,,,,,0.5996,,,,,,,,,,,,,,,,,,,,,,60fd8ca930ae2235452962a2,6103795fa44862f47913e48f,2021-07-29_21h03.59.324,Simcolourproject_2stim_asymm_v5,2020.2.10,MacIntel,60,61025ae37ef11b136ea224fe,,,,,,,,,813,-28.50701904,-49.4072876,1,0,0,response5disk,,3,-14.61688232,-7.414215088,1,0,0,rectangle,-14.61688232,-7.414215088,1,0,0,-14.61688232,-7.414215088,1,0,0,1,67,227,0,1,,,,,,,,
,,,,,,,,,,,,,FF,,,,,,,,0.5188,,,,,,,,,,,,,,,,,,,,,,60fd8ca930ae2235452962a2,6103795fa44862f47913e48f,2021-07-29_21h03.59.324,Simcolourproject_2stim_asymm_v5,2020.2.10,MacIntel,60,61025ae37ef11b136ea224fe,,,,,,,,,1747,-32.94573975,-52.51419067,1,0,0,response5disk,,3,-22.19073486,-1.235992432,1,0,0,rectangle,-22.19073486,-1.235992432,1,0,0,-22.19073486,-1.235992432,1,0,0,1,68,228,155,1,,,,,,,,
,,,,,,,,,,,,,FF,,,,,,,,0.7361,,,,,,,,,,,,,,,,,,,,,,60fd8ca930ae2235452962a2,6103795fa44862f47913e48f,2021-07-29_21h03.59.324,Simcolourproject_2stim_asymm_v5,2020.2.10,MacIntel,60,61025ae37ef11b136ea224fe,,,,,,,,,1984,83.25445557,35.22518921,1,0,0,response1disk,,6,0.901367188,3.779998779,1,0,0,rectangle,0.901367188,3.779998779,1,0,0,0.901367188,3.779998779,1,0,0,1,69,229,120,1,,,,,,,,
,,,,,,,,,,,,,FF,,,,,,,,0.7842,,,,,,,,,,,,,,,,,,,,,,60fd8ca930ae2235452962a2,6103795fa44862f47913e48f,2021-07-29_21h03.59.324,Simcolourproject_2stim_asymm_v5,2020.2.10,MacIntel,60,61025ae37ef11b136ea224fe,,,,,,,,,787,-25.16516113,-64.30853271,1,0,0,response5disk,,3,-3.102355957,-2.888580322,1,0,0,rectangle,-3.102355957,-2.888580322,1,0,0,-3.102355957,-2.888580322,1,0,0,1,70,230,137,1,,,,,,,,
,,,,,,,,,,,,,FF,,,,,,,,1.2831,,,,,,,,,,,,,,,,,,,,,,60fd8ca930ae2235452962a2,6103795fa44862f47913e48f,2021-07-29_21h03.59.324,Simcolourproject_2stim_asymm_v5,2020.2.10,MacIntel,60,61025ae37ef11b136ea224fe,,,,,,,,,4229,-27.46179199,-65.31481934,1,0,0,response5disk,,3,-8.702514648,0.226287842,1,0,0,rectangle,-32.74938965,86.63354492,1,0,0,-5.151428223,-11.37713623,1,0,0,1,71,231,117,1,,response7disk_3,TRUE,0,0,"[64,152,51,205,308,130,105,11,233,59,128,152,256,315,188,232,151,207,15,192]",1.7808,rectangle
,,,,,,,,,,,,,FF,,,,,,,,0.7967,,,,,,,,,,,,,,,,,,,,,,60fd8ca930ae2235452962a2,6103795fa44862f47913e48f,2021-07-29_21h03.59.324,Simcolourproject_2stim_asymm_v5,2020.2.10,MacIntel,60,61025ae37ef11b136ea224fe,,,,,,,,,3284,-87.515625,54.02047729,1,0,0,response7disk,,1,-13.83508301,-10.83828735,1,0,0,rectangle,105.1253662,65.26635742,1,0,0,-11.30078125,-9.574737549,1,0,0,1,72,232,156,1,,response1disk_3,TRUE,6,6,"[64,152,51,205,308,130,105,11,233,59,128,152,256,315,188,232,151,207,15,192]",1.4156,rectangle
,,,,,,,,,,,,,FF,,,,,,,,0.9185,,,,,,,,,,,,,,,,,,,,,,60fd8ca930ae2235452962a2,6103795fa44862f47913e48f,2021-07-29_21h03.59.324,Simcolourproject_2stim_asymm_v5,2020.2.10,MacIntel,60,61025ae37ef11b136ea224fe,,,,,,,,,3482,-70.8114624,-36.39654541,1,0,0,response5disk,,2,-9.475891113,-4.098175049,1,0,0,rectangle,-9.475891113,-4.098175049,1,0,0,-9.475891113,-4.098175049,1,0,0,1,73,233,91,1,,,,,,,,
,,,,,,,,,,,,,FF,,,,,,,,0.9679,,,,,,,,,,,,,,,,,,,,,,60fd8ca930ae2235452962a2,6103795fa44862f47913e48f,2021-07-29_21h03.59.324,Simcolourproject_2stim_asymm_v5,2020.2.10,MacIntel,60,61025ae37ef11b136ea224fe,,,,,,,,,240,29.12811279,-75.81323242,1,0,0,response3disk,,4,16.21990967,2.223937988,1,0,0,rectangle,16.21990967,2.223937988,1,0,0,16.21990967,2.223937988,1,0,0,1,74,234,62,1,,,,,,,,
,,,,,,,,,,,,,FF,,,,,,,,0.5065,,,,,,,,,,,,,,,,,,,,,,60fd8ca930ae2235452962a2,6103795fa44862f47913e48f,2021-07-29_21h03.59.324,Simcolourproject_2stim_asymm_v5,2020.2.10,MacIntel,60,61025ae37ef11b136ea224fe,,,,,,,,,1351,60.35040283,-39.4888916,1,0,0,response3disk,,5,17.04187012,-10.45544434,1,0,0,rectangle,17.04187012,-10.45544434,1,0,0,17.04187012,-10.45544434,1,0,0,1,75,235,45,1,,,,,,,,
,,,,,,,,,,,,,FF,,,,,,,,0.4348,,,,,,,,,,,,,,,,,,,,,,60fd8ca930ae2235452962a2,6103795fa44862f47913e48f,2021-07-29_21h03.59.324,Simcolourproject_2stim_asymm_v5,2020.2.10,MacIntel,60,61025ae37ef11b136ea224fe,,,,,,,,,784,62.90826416,-32.86630249,1,0,0,response3disk,,5,10.26525879,-4.032318115,1,0,0,rectangle,10.26525879,-4.032318115,1,0,0,10.26525879,-4.032318115,1,0,0,1,76,236,132,1,,,,,,,,
,,,,,,,,,,,,,FF,,,,,,,,0.6534,,,,,,,,,,,,,,,,,,,,,,60fd8ca930ae2235452962a2,6103795fa44862f47913e48f,2021-07-29_21h03.59.324,Simcolourproject_2stim_asymm_v5,2020.2.10,MacIntel,60,61025ae37ef11b136ea224fe,,,,,,,,,2572,66.77539063,30.83920288,1,0,0,response1disk,,6,7.607299805,5.350402832,1,0,0,rectangle,7.607299805,5.350402832,1,0,0,7.607299805,5.350402832,1,0,0,1,77,237,73,1,,,,,,,,
,,,,,,,,,,,,,FF,,,,,,,,0.9226,,,,,,,,,,,,,,,,,,,,,,60fd8ca930ae2235452962a2,6103795fa44862f47913e48f,2021-07-29_21h03.59.324,Simcolourproject_2stim_asymm_v5,2020.2.10,MacIntel,60,61025ae37ef11b136ea224fe,,,,,,,,,1788,41.10852051,-82.11315918,1,0,0,response3disk,,4,10.36523438,11.39306641,1,0,0,rectangle,10.36523438,11.39306641,1,0,0,10.36523438,11.39306641,1,0,0,1,78,238,16,1,,,,,,,,
,,,,,,,,,,,,,FF,,,,,,,,0.8174,,,,,,,,,,,,,,,,,,,,,,60fd8ca930ae2235452962a2,6103795fa44862f47913e48f,2021-07-29_21h03.59.324,Simcolourproject_2stim_asymm_v5,2020.2.10,MacIntel,60,61025ae37ef11b136ea224fe,,,,,,,,,133,67.9864502,-36.18173218,1,0,0,response3disk,,5,3.330078125,-7.91619873,1,0,0,rectangle,3.330078125,-7.91619873,1,0,0,3.330078125,-7.91619873,1,0,0,1,79,239,129,1,,,,,,,,
,,,,,,,,,,,,,FF,,,,,,,,1.0365,,,,,,,,,,,,,,,,,,,,,,60fd8ca930ae2235452962a2,6103795fa44862f47913e48f,2021-07-29_21h03.59.324,Simcolourproject_2stim_asymm_v5,2020.2.10,MacIntel,60,61025ae37ef11b136ea224fe,,,,,,,,,925,31.21887207,100.2217407,1,0,0,response1disk,,7,20.63110352,6.417358398,1,0,0,rectangle,20.63110352,6.417358398,1,0,0,20.63110352,6.417358398,1,0,0,1,80,240,88,1,,,,,,,,
