key_resp.keys,key_resp.rt,key_resp_14.keys,key_resp_14.rt,key_resp_15.keys,key_resp_15.rt,key_resp_17.keys,key_resp_17.rt,key_resp_9.keys,key_resp_9.rt,key_resp_10.keys,key_resp_10.rt,practice_comparison,Ecc,mouse_5.x,mouse_5.y,mouse_5.leftButton,mouse_5.midButton,mouse_5.rightButton,mouse_5.clicked_name,pracsimilarity,response_time,mouse_10.x,mouse_10.y,mouse_10.leftButton,mouse_10.midButton,mouse_10.rightButton,mouse_10.clicked_name,mouse_7.x,mouse_7.y,mouse_7.leftButton,mouse_7.midButton,mouse_7.rightButton,mouse_6.x,mouse_6.y,mouse_6.leftButton,mouse_6.midButton,mouse_6.rightButton,duringprac.thisRepN,duringprac.thisTrialN,duringprac.thisN,duringprac.thisIndex,duringprac.ran,participant,session,date,expName,psychopyVersion,OS,frameRate,study_id,mouse_7.clicked_name,catchpracsimilarity,catch_response_time,catchnumberprac,catchtrialorderprac,mouse_6.clicked_name,key_resp_22.keys,key_resp_22.rt,realcomparison,mouse.x,mouse.y,mouse.leftButton,mouse.midButton,mouse.rightButton,mouse.clicked_name,Colour2,similarity,mouse_2.x,mouse_2.y,mouse_2.leftButton,mouse_2.midButton,mouse_2.rightButton,mouse_2.clicked_name,mouse_3.x,mouse_3.y,mouse_3.leftButton,mouse_3.midButton,mouse_3.rightButton,mouse_11.x,mouse_11.y,mouse_11.leftButton,mouse_11.midButton,mouse_11.rightButton,trials_2.thisRepN,trials_2.thisTrialN,trials_2.thisN,trials_2.thisIndex,trials_2.ran,Colour1,mouse_3.clicked_name,catchornah,catchsimilarity,catchnumber,catchtrialorder,catchRT,mouse_11.clicked_name
space,1.536,space,15.517,space,35.933,space,15.755,space,0.793,space,3.96,1,PF,20,41,1,0,0,response1disk_5,7,4.582,2,7,1,0,0,rectangle_8,2,7,1,0,0,2,7,1,0,0,0,0,0,6,1,60fd6537ec893eee4eb8c3eb,61036a4ba0280fce27023e4f,2021-07-29_22h56.49.400,Simcolourproject_2stim_asymm_v5,2020.2.10,MacIntel,60,61025ae37ef11b136ea224fe,,,,,,,,,,,,,,,,,,,,,,,,,,,,,,,,,,,,,,,,,,,,,,
,,,,,,,,,,,,32,PF,21,39,1,0,0,response1disk_5,7,2.167,-8,-1,1,0,0,rectangle_8,-47,31,1,0,0,-2,5,1,0,0,0,1,1,1,1,60fd6537ec893eee4eb8c3eb,61036a4ba0280fce27023e4f,2021-07-29_22h56.49.400,Simcolourproject_2stim_asymm_v5,2020.2.10,MacIntel,60,61025ae37ef11b136ea224fe,response7disk_7,1,3.101,1,"[2,5]",rectangle_4,,,,,,,,,,,,,,,,,,,,,,,,,,,,,,,,,,,,,,,,
,,,,,,,,,,,,90,PF,44,19,1,0,0,response1disk_5,6,1.533,6,4,1,0,0,rectangle_8,6,4,1,0,0,6,4,1,0,0,0,2,2,2,1,60fd6537ec893eee4eb8c3eb,61036a4ba0280fce27023e4f,2021-07-29_22h56.49.400,Simcolourproject_2stim_asymm_v5,2020.2.10,MacIntel,60,61025ae37ef11b136ea224fe,,,,,,,,,,,,,,,,,,,,,,,,,,,,,,,,,,,,,,,,,,,,,,
,,,,,,,,,,,,95,FF,25,39,1,0,0,response1disk_5,7,1.516,-3,8,1,0,0,rectangle_8,-3,8,1,0,0,-3,8,1,0,0,0,3,3,3,1,60fd6537ec893eee4eb8c3eb,61036a4ba0280fce27023e4f,2021-07-29_22h56.49.400,Simcolourproject_2stim_asymm_v5,2020.2.10,MacIntel,60,61025ae37ef11b136ea224fe,,,,,,,,,,,,,,,,,,,,,,,,,,,,,,,,,,,,,,,,,,,,,,
,,,,,,,,,,,,159,FF,41,19,1,0,0,response1disk_5,6,1.367,3,6,1,0,0,rectangle_8,-41,17,1,0,0,-12,2,1,0,0,0,4,4,0,1,60fd6537ec893eee4eb8c3eb,61036a4ba0280fce27023e4f,2021-07-29_22h56.49.400,Simcolourproject_2stim_asymm_v5,2020.2.10,MacIntel,60,61025ae37ef11b136ea224fe,response7disk_7,1,1.582,1,"[2,5]",rectangle_4,,,,,,,,,,,,,,,,,,,,,,,,,,,,,,,,,,,,,,,,
,,,,,,,,,,,,7,PF,43,23,1,0,0,response1disk_5,6,1.217,8,4,1,0,0,rectangle_8,8,4,1,0,0,8,4,1,0,0,0,5,5,4,1,60fd6537ec893eee4eb8c3eb,61036a4ba0280fce27023e4f,2021-07-29_22h56.49.400,Simcolourproject_2stim_asymm_v5,2020.2.10,MacIntel,60,61025ae37ef11b136ea224fe,,,,,,,,,,,,,,,,,,,,,,,,,,,,,,,,,,,,,,,,,,,,,,
,,,,,,,,,,,,16,FF,20,40,1,0,0,response1disk_5,7,1.066,-7,1,1,0,0,rectangle_8,-7,1,1,0,0,-7,1,1,0,0,0,6,6,5,1,60fd6537ec893eee4eb8c3eb,61036a4ba0280fce27023e4f,2021-07-29_22h56.49.400,Simcolourproject_2stim_asymm_v5,2020.2.10,MacIntel,60,61025ae37ef11b136ea224fe,,,,,,,,,,,,,,,,,,,,,,,,,,,,,,,,,,,,,,,,,,,,,,
,,,,,,,,,,,,,FF,,,,,,,,1.383,,,,,,,,,,,,,,,,,,,,,,60fd6537ec893eee4eb8c3eb,61036a4ba0280fce27023e4f,2021-07-29_22h56.49.400,Simcolourproject_2stim_asymm_v5,2020.2.10,MacIntel,60,61025ae37ef11b136ea224fe,,,,,,,space,1.857,1633,30,40,1,0,0,response1disk,,7,1,3,1,0,0,rectangle,1,3,1,0,0,1,3,1,0,0,0,0,0,27,1,,,,,,,,
,,,,,,,,,,,,,FF,,,,,,,,1.116,,,,,,,,,,,,,,,,,,,,,,60fd6537ec893eee4eb8c3eb,61036a4ba0280fce27023e4f,2021-07-29_22h56.49.400,Simcolourproject_2stim_asymm_v5,2020.2.10,MacIntel,60,61025ae37ef11b136ea224fe,,,,,,,,,2496,34,15,1,0,0,response1disk,,6,2,-2,1,0,0,rectangle,2,-2,1,0,0,2,-2,1,0,0,0,1,1,158,1,,,,,,,,
,,,,,,,,,,,,,FF,,,,,,,,1.114,,,,,,,,,,,,,,,,,,,,,,60fd6537ec893eee4eb8c3eb,61036a4ba0280fce27023e4f,2021-07-29_22h56.49.400,Simcolourproject_2stim_asymm_v5,2020.2.10,MacIntel,60,61025ae37ef11b136ea224fe,,,,,,,,,3952,39,24,1,0,0,response1disk,,6,-24,-2,1,0,0,rectangle,-24,-2,1,0,0,-24,-2,1,0,0,0,2,2,134,1,,,,,,,,
,,,,,,,,,,,,,FF,,,,,,,,1.418,,,,,,,,,,,,,,,,,,,,,,60fd6537ec893eee4eb8c3eb,61036a4ba0280fce27023e4f,2021-07-29_22h56.49.400,Simcolourproject_2stim_asymm_v5,2020.2.10,MacIntel,60,61025ae37ef11b136ea224fe,,,,,,,,,6,22,40,1,0,0,response1disk,,7,4,7,1,0,0,rectangle,4,7,1,0,0,4,7,1,0,0,0,3,3,71,1,,,,,,,,
,,,,,,,,,,,,,FF,,,,,,,,1.65,,,,,,,,,,,,,,,,,,,,,,60fd6537ec893eee4eb8c3eb,61036a4ba0280fce27023e4f,2021-07-29_22h56.49.400,Simcolourproject_2stim_asymm_v5,2020.2.10,MacIntel,60,61025ae37ef11b136ea224fe,,,,,,,,,1812,34,-17,1,0,0,response3disk,,5,-11,9,1,0,0,rectangle,-11,9,1,0,0,-11,9,1,0,0,0,4,4,148,1,,,,,,,,
,,,,,,,,,,,,,FF,,,,,,,,1.116,,,,,,,,,,,,,,,,,,,,,,60fd6537ec893eee4eb8c3eb,61036a4ba0280fce27023e4f,2021-07-29_22h56.49.400,Simcolourproject_2stim_asymm_v5,2020.2.10,MacIntel,60,61025ae37ef11b136ea224fe,,,,,,,,,2327,45,18,1,0,0,response1disk,,6,-1,1,1,0,0,rectangle,-1,1,1,0,0,-1,1,1,0,0,0,5,5,90,1,,,,,,,,
,,,,,,,,,,,,,FF,,,,,,,,1.233,,,,,,,,,,,,,,,,,,,,,,60fd6537ec893eee4eb8c3eb,61036a4ba0280fce27023e4f,2021-07-29_22h56.49.400,Simcolourproject_2stim_asymm_v5,2020.2.10,MacIntel,60,61025ae37ef11b136ea224fe,,,,,,,,,1955,15,33,1,0,0,response1disk,,7,-1,4,1,0,0,rectangle,-1,4,1,0,0,-1,4,1,0,0,0,6,6,63,1,,,,,,,,
,,,,,,,,,,,,,FF,,,,,,,,1,,,,,,,,,,,,,,,,,,,,,,60fd6537ec893eee4eb8c3eb,61036a4ba0280fce27023e4f,2021-07-29_22h56.49.400,Simcolourproject_2stim_asymm_v5,2020.2.10,MacIntel,60,61025ae37ef11b136ea224fe,,,,,,,,,2554,40,21,1,0,0,response1disk,,6,1,3,1,0,0,rectangle,1,3,1,0,0,1,3,1,0,0,0,7,7,28,1,,,,,,,,
,,,,,,,,,,,,,FF,,,,,,,,1.683,,,,,,,,,,,,,,,,,,,,,,60fd6537ec893eee4eb8c3eb,61036a4ba0280fce27023e4f,2021-07-29_22h56.49.400,Simcolourproject_2stim_asymm_v5,2020.2.10,MacIntel,60,61025ae37ef11b136ea224fe,,,,,,,,,2055,32,18,1,0,0,response1disk,,6,-1,-2,1,0,0,rectangle,-1,-2,1,0,0,-1,-2,1,0,0,0,8,8,100,1,,,,,,,,
,,,,,,,,,,,,,FF,,,,,,,,1.699,,,,,,,,,,,,,,,,,,,,,,60fd6537ec893eee4eb8c3eb,61036a4ba0280fce27023e4f,2021-07-29_22h56.49.400,Simcolourproject_2stim_asymm_v5,2020.2.10,MacIntel,60,61025ae37ef11b136ea224fe,,,,,,,,,782,16,39,1,0,0,response1disk,,7,-1,5,1,0,0,rectangle,40,-21,1,0,0,1,-7,1,0,0,0,9,9,119,1,,response3disk_3,TRUE,5,5,"[168,259,316,168,124,181,174,213,217,84,22,10,187,196,188,235,222,208,293,234]",2.265,rectangle
,,,,,,,,,,,,,FF,,,,,,,,2.033,,,,,,,,,,,,,,,,,,,,,,60fd6537ec893eee4eb8c3eb,61036a4ba0280fce27023e4f,2021-07-29_22h56.49.400,Simcolourproject_2stim_asymm_v5,2020.2.10,MacIntel,60,61025ae37ef11b136ea224fe,,,,,,,,,2543,43,-18,1,0,0,response3disk,,5,2,-8,1,0,0,rectangle,2,-8,1,0,0,2,-8,1,0,0,0,10,10,108,1,,,,,,,,
,,,,,,,,,,,,,FF,,,,,,,,0.983,,,,,,,,,,,,,,,,,,,,,,60fd6537ec893eee4eb8c3eb,61036a4ba0280fce27023e4f,2021-07-29_22h56.49.400,Simcolourproject_2stim_asymm_v5,2020.2.10,MacIntel,60,61025ae37ef11b136ea224fe,,,,,,,,,3131,22,30,1,0,0,response1disk,,7,12,13,1,0,0,rectangle,12,13,1,0,0,12,13,1,0,0,0,11,11,102,1,,,,,,,,
,,,,,,,,,,,,,FF,,,,,,,,1.067,,,,,,,,,,,,,,,,,,,,,,60fd6537ec893eee4eb8c3eb,61036a4ba0280fce27023e4f,2021-07-29_22h56.49.400,Simcolourproject_2stim_asymm_v5,2020.2.10,MacIntel,60,61025ae37ef11b136ea224fe,,,,,,,,,2068,32,12,1,0,0,response1disk,,6,14,7,1,0,0,rectangle,14,7,1,0,0,14,7,1,0,0,0,12,12,129,1,,,,,,,,
,,,,,,,,,,,,,FF,,,,,,,,0.933,,,,,,,,,,,,,,,,,,,,,,60fd6537ec893eee4eb8c3eb,61036a4ba0280fce27023e4f,2021-07-29_22h56.49.400,Simcolourproject_2stim_asymm_v5,2020.2.10,MacIntel,60,61025ae37ef11b136ea224fe,,,,,,,,,512,34,24,1,0,0,response1disk,,6,12,13,1,0,0,rectangle,12,13,1,0,0,12,13,1,0,0,0,13,13,61,1,,,,,,,,
,,,,,,,,,,,,,FF,,,,,,,,1.666,,,,,,,,,,,,,,,,,,,,,,60fd6537ec893eee4eb8c3eb,61036a4ba0280fce27023e4f,2021-07-29_22h56.49.400,Simcolourproject_2stim_asymm_v5,2020.2.10,MacIntel,60,61025ae37ef11b136ea224fe,,,,,,,,,4358,30,-38,1,0,0,response3disk,,4,-7,2,1,0,0,rectangle,-7,2,1,0,0,-7,2,1,0,0,0,14,14,123,1,,,,,,,,
,,,,,,,,,,,,,FF,,,,,,,,1.633,,,,,,,,,,,,,,,,,,,,,,60fd6537ec893eee4eb8c3eb,61036a4ba0280fce27023e4f,2021-07-29_22h56.49.400,Simcolourproject_2stim_asymm_v5,2020.2.10,MacIntel,60,61025ae37ef11b136ea224fe,,,,,,,,,2696,24,37,1,0,0,response1disk,,7,5,10,1,0,0,rectangle,5,10,1,0,0,5,10,1,0,0,0,15,15,138,1,,,,,,,,
,,,,,,,,,,,,,FF,,,,,,,,0.882,,,,,,,,,,,,,,,,,,,,,,60fd6537ec893eee4eb8c3eb,61036a4ba0280fce27023e4f,2021-07-29_22h56.49.400,Simcolourproject_2stim_asymm_v5,2020.2.10,MacIntel,60,61025ae37ef11b136ea224fe,,,,,,,,,1503,11,21,1,0,0,response1disk,,7,7,10,1,0,0,rectangle,7,10,1,0,0,7,10,1,0,0,0,16,16,58,1,,,,,,,,
,,,,,,,,,,,,,FF,,,,,,,,0.967,,,,,,,,,,,,,,,,,,,,,,60fd6537ec893eee4eb8c3eb,61036a4ba0280fce27023e4f,2021-07-29_22h56.49.400,Simcolourproject_2stim_asymm_v5,2020.2.10,MacIntel,60,61025ae37ef11b136ea224fe,,,,,,,,,365,14,34,1,0,0,response1disk,,7,5,10,1,0,0,rectangle,5,10,1,0,0,5,10,1,0,0,0,17,17,64,1,,,,,,,,
,,,,,,,,,,,,,FF,,,,,,,,2.2,,,,,,,,,,,,,,,,,,,,,,60fd6537ec893eee4eb8c3eb,61036a4ba0280fce27023e4f,2021-07-29_22h56.49.400,Simcolourproject_2stim_asymm_v5,2020.2.10,MacIntel,60,61025ae37ef11b136ea224fe,,,,,,,,,179,23,16,1,0,0,response1disk,,6,8,9,1,0,0,rectangle,8,9,1,0,0,8,9,1,0,0,0,18,18,142,1,,,,,,,,
,,,,,,,,,,,,,FF,,,,,,,,1.3,,,,,,,,,,,,,,,,,,,,,,60fd6537ec893eee4eb8c3eb,61036a4ba0280fce27023e4f,2021-07-29_22h56.49.400,Simcolourproject_2stim_asymm_v5,2020.2.10,MacIntel,60,61025ae37ef11b136ea224fe,,,,,,,,,2414,33,-24,1,0,0,response3disk,,5,-9,-8,1,0,0,rectangle,-9,-8,1,0,0,-9,-8,1,0,0,0,19,19,147,1,,,,,,,,
,,,,,,,,,,,,,FF,,,,,,,,2.115,,,,,,,,,,,,,,,,,,,,,,60fd6537ec893eee4eb8c3eb,61036a4ba0280fce27023e4f,2021-07-29_22h56.49.400,Simcolourproject_2stim_asymm_v5,2020.2.10,MacIntel,60,61025ae37ef11b136ea224fe,,,,,,,,,271,36,29,1,0,0,response1disk,,6,-5,0,1,0,0,rectangle,-5,0,1,0,0,-5,0,1,0,0,0,20,20,74,1,,,,,,,,
,,,,,,,,,,,,,FF,,,,,,,,1.549,,,,,,,,,,,,,,,,,,,,,,60fd6537ec893eee4eb8c3eb,61036a4ba0280fce27023e4f,2021-07-29_22h56.49.400,Simcolourproject_2stim_asymm_v5,2020.2.10,MacIntel,60,61025ae37ef11b136ea224fe,,,,,,,,,4339,34,14,1,0,0,response1disk,,6,-2,4,1,0,0,rectangle,-26,40,1,0,0,-10,8,1,0,0,0,21,21,13,1,,response7disk_3,TRUE,0,0,"[168,259,316,168,124,181,174,213,217,84,22,10,187,196,188,235,222,208,293,234]",2.583,rectangle
,,,,,,,,,,,,,FF,,,,,,,,3.4,,,,,,,,,,,,,,,,,,,,,,60fd6537ec893eee4eb8c3eb,61036a4ba0280fce27023e4f,2021-07-29_22h56.49.400,Simcolourproject_2stim_asymm_v5,2020.2.10,MacIntel,60,61025ae37ef11b136ea224fe,,,,,,,,,857,26,38,1,0,0,response1disk,,7,4,12,1,0,0,rectangle,4,12,1,0,0,4,12,1,0,0,0,22,22,78,1,,,,,,,,
,,,,,,,,,,,,,FF,,,,,,,,1.149,,,,,,,,,,,,,,,,,,,,,,60fd6537ec893eee4eb8c3eb,61036a4ba0280fce27023e4f,2021-07-29_22h56.49.400,Simcolourproject_2stim_asymm_v5,2020.2.10,MacIntel,60,61025ae37ef11b136ea224fe,,,,,,,,,235,22,32,1,0,0,response1disk,,7,3,7,1,0,0,rectangle,3,7,1,0,0,3,7,1,0,0,0,23,23,60,1,,,,,,,,
,,,,,,,,,,,,,FF,,,,,,,,0.765,,,,,,,,,,,,,,,,,,,,,,60fd6537ec893eee4eb8c3eb,61036a4ba0280fce27023e4f,2021-07-29_22h56.49.400,Simcolourproject_2stim_asymm_v5,2020.2.10,MacIntel,60,61025ae37ef11b136ea224fe,,,,,,,,,1709,16,39,1,0,0,response1disk,,7,1,12,1,0,0,rectangle,1,12,1,0,0,1,12,1,0,0,0,24,24,82,1,,,,,,,,
,,,,,,,,,,,,,FF,,,,,,,,0.7,,,,,,,,,,,,,,,,,,,,,,60fd6537ec893eee4eb8c3eb,61036a4ba0280fce27023e4f,2021-07-29_22h56.49.400,Simcolourproject_2stim_asymm_v5,2020.2.10,MacIntel,60,61025ae37ef11b136ea224fe,,,,,,,,,2197,18,48,1,0,0,response1disk,,7,1,8,1,0,0,rectangle,1,8,1,0,0,1,8,1,0,0,0,25,25,46,1,,,,,,,,
,,,,,,,,,,,,,FF,,,,,,,,0.733,,,,,,,,,,,,,,,,,,,,,,60fd6537ec893eee4eb8c3eb,61036a4ba0280fce27023e4f,2021-07-29_22h56.49.400,Simcolourproject_2stim_asymm_v5,2020.2.10,MacIntel,60,61025ae37ef11b136ea224fe,,,,,,,,,308,27,44,1,0,0,response1disk,,7,7,-1,1,0,0,rectangle,7,-1,1,0,0,7,-1,1,0,0,0,26,26,139,1,,,,,,,,
,,,,,,,,,,,,,FF,,,,,,,,1.267,,,,,,,,,,,,,,,,,,,,,,60fd6537ec893eee4eb8c3eb,61036a4ba0280fce27023e4f,2021-07-29_22h56.49.400,Simcolourproject_2stim_asymm_v5,2020.2.10,MacIntel,60,61025ae37ef11b136ea224fe,,,,,,,,,4253,42,-29,1,0,0,response3disk,,5,3,-4,1,0,0,rectangle,3,-4,1,0,0,3,-4,1,0,0,0,27,27,111,1,,,,,,,,
,,,,,,,,,,,,,FF,,,,,,,,1.3,,,,,,,,,,,,,,,,,,,,,,60fd6537ec893eee4eb8c3eb,61036a4ba0280fce27023e4f,2021-07-29_22h56.49.400,Simcolourproject_2stim_asymm_v5,2020.2.10,MacIntel,60,61025ae37ef11b136ea224fe,,,,,,,,,4360,34,21,1,0,0,response1disk,,6,5,11,1,0,0,rectangle,5,11,1,0,0,5,11,1,0,0,0,28,28,1,1,,,,,,,,
,,,,,,,,,,,,,FF,,,,,,,,0.768,,,,,,,,,,,,,,,,,,,,,,60fd6537ec893eee4eb8c3eb,61036a4ba0280fce27023e4f,2021-07-29_22h56.49.400,Simcolourproject_2stim_asymm_v5,2020.2.10,MacIntel,60,61025ae37ef11b136ea224fe,,,,,,,,,2882,32,16,1,0,0,response1disk,,6,6,8,1,0,0,rectangle,6,8,1,0,0,6,8,1,0,0,0,29,29,81,1,,,,,,,,
,,,,,,,,,,,,,FF,,,,,,,,1.749,,,,,,,,,,,,,,,,,,,,,,60fd6537ec893eee4eb8c3eb,61036a4ba0280fce27023e4f,2021-07-29_22h56.49.400,Simcolourproject_2stim_asymm_v5,2020.2.10,MacIntel,60,61025ae37ef11b136ea224fe,,,,,,,,,1319,15,44,1,0,0,response1disk,,7,-2,3,1,0,0,rectangle,-2,3,1,0,0,-2,3,1,0,0,0,30,30,92,1,,,,,,,,
,,,,,,,,,,,,,FF,,,,,,,,0.8,,,,,,,,,,,,,,,,,,,,,,60fd6537ec893eee4eb8c3eb,61036a4ba0280fce27023e4f,2021-07-29_22h56.49.400,Simcolourproject_2stim_asymm_v5,2020.2.10,MacIntel,60,61025ae37ef11b136ea224fe,,,,,,,,,2399,16,35,1,0,0,response1disk,,7,6,6,1,0,0,rectangle,6,6,1,0,0,6,6,1,0,0,0,31,31,114,1,,,,,,,,
,,,,,,,,,,,,,FF,,,,,,,,1.735,,,,,,,,,,,,,,,,,,,,,,60fd6537ec893eee4eb8c3eb,61036a4ba0280fce27023e4f,2021-07-29_22h56.49.400,Simcolourproject_2stim_asymm_v5,2020.2.10,MacIntel,60,61025ae37ef11b136ea224fe,,,,,,,,,3607,19,33,1,0,0,response1disk,,7,-3,-1,1,0,0,rectangle,-3,-1,1,0,0,-3,-1,1,0,0,0,32,32,128,1,,,,,,,,
,,,,,,,,,,,,,FF,,,,,,,,3.033,,,,,,,,,,,,,,,,,,,,,,60fd6537ec893eee4eb8c3eb,61036a4ba0280fce27023e4f,2021-07-29_22h56.49.400,Simcolourproject_2stim_asymm_v5,2020.2.10,MacIntel,60,61025ae37ef11b136ea224fe,,,,,,,,,4111,36,12,1,0,0,response1disk,,6,18,10,1,0,0,rectangle,18,10,1,0,0,18,10,1,0,0,0,33,33,49,1,,,,,,,,
,,,,,,,,,,,,,FF,,,,,,,,1.35,,,,,,,,,,,,,,,,,,,,,,60fd6537ec893eee4eb8c3eb,61036a4ba0280fce27023e4f,2021-07-29_22h56.49.400,Simcolourproject_2stim_asymm_v5,2020.2.10,MacIntel,60,61025ae37ef11b136ea224fe,,,,,,,,,432,49,-22,1,0,0,response3disk,,5,-3,2,1,0,0,rectangle,-3,2,1,0,0,-3,2,1,0,0,0,34,34,83,1,,,,,,,,
,,,,,,,,,,,,,FF,,,,,,,,1.366,,,,,,,,,,,,,,,,,,,,,,60fd6537ec893eee4eb8c3eb,61036a4ba0280fce27023e4f,2021-07-29_22h56.49.400,Simcolourproject_2stim_asymm_v5,2020.2.10,MacIntel,60,61025ae37ef11b136ea224fe,,,,,,,,,1214,29,-22,1,0,0,response3disk,,5,8,-1,1,0,0,rectangle,8,-1,1,0,0,8,-1,1,0,0,0,35,35,34,1,,,,,,,,
,,,,,,,,,,,,,FF,,,,,,,,1.283,,,,,,,,,,,,,,,,,,,,,,60fd6537ec893eee4eb8c3eb,61036a4ba0280fce27023e4f,2021-07-29_22h56.49.400,Simcolourproject_2stim_asymm_v5,2020.2.10,MacIntel,60,61025ae37ef11b136ea224fe,,,,,,,,,2125,24,42,1,0,0,response1disk,,7,-9,2,1,0,0,rectangle,-9,2,1,0,0,-9,2,1,0,0,0,36,36,39,1,,,,,,,,
,,,,,,,,,,,,,FF,,,,,,,,1.832,,,,,,,,,,,,,,,,,,,,,,60fd6537ec893eee4eb8c3eb,61036a4ba0280fce27023e4f,2021-07-29_22h56.49.400,Simcolourproject_2stim_asymm_v5,2020.2.10,MacIntel,60,61025ae37ef11b136ea224fe,,,,,,,,,2556,41,-29,1,0,0,response3disk,,5,13,-13,1,0,0,rectangle,13,-13,1,0,0,13,-13,1,0,0,0,37,37,155,1,,,,,,,,
,,,,,,,,,,,,,FF,,,,,,,,5.466,,,,,,,,,,,,,,,,,,,,,,60fd6537ec893eee4eb8c3eb,61036a4ba0280fce27023e4f,2021-07-29_22h56.49.400,Simcolourproject_2stim_asymm_v5,2020.2.10,MacIntel,60,61025ae37ef11b136ea224fe,,,,,,,,,2715,37,20,1,0,0,response1disk,,6,-4,7,1,0,0,rectangle,-4,7,1,0,0,-4,7,1,0,0,0,38,38,22,1,,,,,,,,
,,,,,,,,,,,,,FF,,,,,,,,1.549,,,,,,,,,,,,,,,,,,,,,,60fd6537ec893eee4eb8c3eb,61036a4ba0280fce27023e4f,2021-07-29_22h56.49.400,Simcolourproject_2stim_asymm_v5,2020.2.10,MacIntel,60,61025ae37ef11b136ea224fe,,,,,,,,,2713,48,16,1,0,0,response1disk,,6,-3,-6,1,0,0,rectangle,-3,-6,1,0,0,-3,-6,1,0,0,0,39,39,98,1,,,,,,,,
,,,,,,,,,,,,,FF,,,,,,,,2.449,,,,,,,,,,,,,,,,,,,,,,60fd6537ec893eee4eb8c3eb,61036a4ba0280fce27023e4f,2021-07-29_22h56.49.400,Simcolourproject_2stim_asymm_v5,2020.2.10,MacIntel,60,61025ae37ef11b136ea224fe,,,,,,,,,4013,17,35,1,0,0,response1disk,,7,9,13,1,0,0,rectangle,9,13,1,0,0,9,13,1,0,0,0,40,40,35,1,,,,,,,,
,,,,,,,,,,,,,FF,,,,,,,,0.884,,,,,,,,,,,,,,,,,,,,,,60fd6537ec893eee4eb8c3eb,61036a4ba0280fce27023e4f,2021-07-29_22h56.49.400,Simcolourproject_2stim_asymm_v5,2020.2.10,MacIntel,60,61025ae37ef11b136ea224fe,,,,,,,,,409,18,47,1,0,0,response1disk,,7,9,7,1,0,0,rectangle,9,7,1,0,0,9,7,1,0,0,0,41,41,127,1,,,,,,,,
,,,,,,,,,,,,,FF,,,,,,,,1.051,,,,,,,,,,,,,,,,,,,,,,60fd6537ec893eee4eb8c3eb,61036a4ba0280fce27023e4f,2021-07-29_22h56.49.400,Simcolourproject_2stim_asymm_v5,2020.2.10,MacIntel,60,61025ae37ef11b136ea224fe,,,,,,,,,3085,22,47,1,0,0,response1disk,,7,8,14,1,0,0,rectangle,8,14,1,0,0,8,14,1,0,0,0,42,42,17,1,,,,,,,,
,,,,,,,,,,,,,FF,,,,,,,,0.9,,,,,,,,,,,,,,,,,,,,,,60fd6537ec893eee4eb8c3eb,61036a4ba0280fce27023e4f,2021-07-29_22h56.49.400,Simcolourproject_2stim_asymm_v5,2020.2.10,MacIntel,60,61025ae37ef11b136ea224fe,,,,,,,,,1398,39,15,1,0,0,response1disk,,6,-6,-7,1,0,0,rectangle,-6,-7,1,0,0,-6,-7,1,0,0,0,43,43,143,1,,,,,,,,
,,,,,,,,,,,,,FF,,,,,,,,1.233,,,,,,,,,,,,,,,,,,,,,,60fd6537ec893eee4eb8c3eb,61036a4ba0280fce27023e4f,2021-07-29_22h56.49.400,Simcolourproject_2stim_asymm_v5,2020.2.10,MacIntel,60,61025ae37ef11b136ea224fe,,,,,,,,,3278,30,54,1,0,0,response1disk,,7,5,14,1,0,0,rectangle,5,14,1,0,0,5,14,1,0,0,0,44,44,152,1,,,,,,,,
,,,,,,,,,,,,,FF,,,,,,,,1.067,,,,,,,,,,,,,,,,,,,,,,60fd6537ec893eee4eb8c3eb,61036a4ba0280fce27023e4f,2021-07-29_22h56.49.400,Simcolourproject_2stim_asymm_v5,2020.2.10,MacIntel,60,61025ae37ef11b136ea224fe,,,,,,,,,8,45,22,1,0,0,response1disk,,6,1,6,1,0,0,rectangle,1,6,1,0,0,1,6,1,0,0,0,45,45,66,1,,,,,,,,
,,,,,,,,,,,,,FF,,,,,,,,0.916,,,,,,,,,,,,,,,,,,,,,,60fd6537ec893eee4eb8c3eb,61036a4ba0280fce27023e4f,2021-07-29_22h56.49.400,Simcolourproject_2stim_asymm_v5,2020.2.10,MacIntel,60,61025ae37ef11b136ea224fe,,,,,,,,,662,20,48,1,0,0,response1disk,,7,3,13,1,0,0,rectangle,3,13,1,0,0,3,13,1,0,0,0,46,46,157,1,,,,,,,,
,,,,,,,,,,,,,FF,,,,,,,,1.334,,,,,,,,,,,,,,,,,,,,,,60fd6537ec893eee4eb8c3eb,61036a4ba0280fce27023e4f,2021-07-29_22h56.49.400,Simcolourproject_2stim_asymm_v5,2020.2.10,MacIntel,60,61025ae37ef11b136ea224fe,,,,,,,,,2238,44,-19,1,0,0,response3disk,,5,-10,-8,1,0,0,rectangle,-10,-8,1,0,0,-10,-8,1,0,0,0,47,47,59,1,,,,,,,,
,,,,,,,,,,,,,FF,,,,,,,,1.049,,,,,,,,,,,,,,,,,,,,,,60fd6537ec893eee4eb8c3eb,61036a4ba0280fce27023e4f,2021-07-29_22h56.49.400,Simcolourproject_2stim_asymm_v5,2020.2.10,MacIntel,60,61025ae37ef11b136ea224fe,,,,,,,,,699,31,22,1,0,0,response1disk,,6,9,9,1,0,0,rectangle,9,9,1,0,0,9,9,1,0,0,0,48,48,53,1,,,,,,,,
,,,,,,,,,,,,,FF,,,,,,,,0.649,,,,,,,,,,,,,,,,,,,,,,60fd6537ec893eee4eb8c3eb,61036a4ba0280fce27023e4f,2021-07-29_22h56.49.400,Simcolourproject_2stim_asymm_v5,2020.2.10,MacIntel,60,61025ae37ef11b136ea224fe,,,,,,,,,3408,16,34,1,0,0,response1disk,,7,1,5,1,0,0,rectangle,1,5,1,0,0,1,5,1,0,0,0,49,49,57,1,,,,,,,,
,,,,,,,,,,,,,FF,,,,,,,,1.383,,,,,,,,,,,,,,,,,,,,,,60fd6537ec893eee4eb8c3eb,61036a4ba0280fce27023e4f,2021-07-29_22h56.49.400,Simcolourproject_2stim_asymm_v5,2020.2.10,MacIntel,60,61025ae37ef11b136ea224fe,,,,,,,,,3093,20,-46,1,0,0,response3disk,,4,-12,0,1,0,0,rectangle,-12,0,1,0,0,-12,0,1,0,0,0,50,50,38,1,,,,,,,,
,,,,,,,,,,,,,FF,,,,,,,,1.183,,,,,,,,,,,,,,,,,,,,,,60fd6537ec893eee4eb8c3eb,61036a4ba0280fce27023e4f,2021-07-29_22h56.49.400,Simcolourproject_2stim_asymm_v5,2020.2.10,MacIntel,60,61025ae37ef11b136ea224fe,,,,,,,,,3446,45,-20,1,0,0,response3disk,,5,1,-6,1,0,0,rectangle,1,-6,1,0,0,1,-6,1,0,0,0,51,51,146,1,,,,,,,,
,,,,,,,,,,,,,FF,,,,,,,,1.149,,,,,,,,,,,,,,,,,,,,,,60fd6537ec893eee4eb8c3eb,61036a4ba0280fce27023e4f,2021-07-29_22h56.49.400,Simcolourproject_2stim_asymm_v5,2020.2.10,MacIntel,60,61025ae37ef11b136ea224fe,,,,,,,,,1052,33,-52,1,0,0,response3disk,,4,5,-4,1,0,0,rectangle,5,-4,1,0,0,5,-4,1,0,0,0,52,52,26,1,,,,,,,,
,,,,,,,,,,,,,FF,,,,,,,,1.3,,,,,,,,,,,,,,,,,,,,,,60fd6537ec893eee4eb8c3eb,61036a4ba0280fce27023e4f,2021-07-29_22h56.49.400,Simcolourproject_2stim_asymm_v5,2020.2.10,MacIntel,60,61025ae37ef11b136ea224fe,,,,,,,,,269,21,41,1,0,0,response1disk,,7,4,5,1,0,0,rectangle,4,5,1,0,0,4,5,1,0,0,0,53,53,121,1,,,,,,,,
,,,,,,,,,,,,,FF,,,,,,,,0.849,,,,,,,,,,,,,,,,,,,,,,60fd6537ec893eee4eb8c3eb,61036a4ba0280fce27023e4f,2021-07-29_22h56.49.400,Simcolourproject_2stim_asymm_v5,2020.2.10,MacIntel,60,61025ae37ef11b136ea224fe,,,,,,,,,2821,18,40,1,0,0,response1disk,,7,12,10,1,0,0,rectangle,12,10,1,0,0,12,10,1,0,0,0,54,54,23,1,,,,,,,,
,,,,,,,,,,,,,FF,,,,,,,,0.833,,,,,,,,,,,,,,,,,,,,,,60fd6537ec893eee4eb8c3eb,61036a4ba0280fce27023e4f,2021-07-29_22h56.49.400,Simcolourproject_2stim_asymm_v5,2020.2.10,MacIntel,60,61025ae37ef11b136ea224fe,,,,,,,,,2393,35,20,1,0,0,response1disk,,6,-6,-5,1,0,0,rectangle,-6,-5,1,0,0,-6,-5,1,0,0,0,55,55,29,1,,,,,,,,
,,,,,,,,,,,,,FF,,,,,,,,1.349,,,,,,,,,,,,,,,,,,,,,,60fd6537ec893eee4eb8c3eb,61036a4ba0280fce27023e4f,2021-07-29_22h56.49.400,Simcolourproject_2stim_asymm_v5,2020.2.10,MacIntel,60,61025ae37ef11b136ea224fe,,,,,,,,,3532,27,-20,1,0,0,response3disk,,5,5,-9,1,0,0,rectangle,5,-9,1,0,0,5,-9,1,0,0,0,56,56,62,1,,,,,,,,
,,,,,,,,,,,,,FF,,,,,,,,0.933,,,,,,,,,,,,,,,,,,,,,,60fd6537ec893eee4eb8c3eb,61036a4ba0280fce27023e4f,2021-07-29_22h56.49.400,Simcolourproject_2stim_asymm_v5,2020.2.10,MacIntel,60,61025ae37ef11b136ea224fe,,,,,,,,,176,12,44,1,0,0,response1disk,,7,-5,-7,1,0,0,rectangle,-5,-7,1,0,0,-5,-7,1,0,0,0,57,57,44,1,,,,,,,,
,,,,,,,,,,,,,FF,,,,,,,,1.433,,,,,,,,,,,,,,,,,,,,,,60fd6537ec893eee4eb8c3eb,61036a4ba0280fce27023e4f,2021-07-29_22h56.49.400,Simcolourproject_2stim_asymm_v5,2020.2.10,MacIntel,60,61025ae37ef11b136ea224fe,,,,,,,,,2964,18,47,1,0,0,response1disk,,7,6,4,1,0,0,rectangle,6,4,1,0,0,6,4,1,0,0,0,58,58,97,1,,,,,,,,
,,,,,,,,,,,,,FF,,,,,,,,1.083,,,,,,,,,,,,,,,,,,,,,,60fd6537ec893eee4eb8c3eb,61036a4ba0280fce27023e4f,2021-07-29_22h56.49.400,Simcolourproject_2stim_asymm_v5,2020.2.10,MacIntel,60,61025ae37ef11b136ea224fe,,,,,,,,,1909,44,20,1,0,0,response1disk,,6,3,3,1,0,0,rectangle,3,3,1,0,0,3,3,1,0,0,0,59,59,126,1,,,,,,,,
,,,,,,,,,,,,,FF,,,,,,,,1.066,,,,,,,,,,,,,,,,,,,,,,60fd6537ec893eee4eb8c3eb,61036a4ba0280fce27023e4f,2021-07-29_22h56.49.400,Simcolourproject_2stim_asymm_v5,2020.2.10,MacIntel,60,61025ae37ef11b136ea224fe,,,,,,,,,3455,14,39,1,0,0,response1disk,,7,-1,9,1,0,0,rectangle,-1,9,1,0,0,-1,9,1,0,0,0,60,60,48,1,,,,,,,,
,,,,,,,,,,,,,FF,,,,,,,,0.816,,,,,,,,,,,,,,,,,,,,,,60fd6537ec893eee4eb8c3eb,61036a4ba0280fce27023e4f,2021-07-29_22h56.49.400,Simcolourproject_2stim_asymm_v5,2020.2.10,MacIntel,60,61025ae37ef11b136ea224fe,,,,,,,,,3795,20,52,1,0,0,response1disk,,7,4,16,1,0,0,rectangle,4,16,1,0,0,4,16,1,0,0,0,61,61,10,1,,,,,,,,
,,,,,,,,,,,,,FF,,,,,,,,0.916,,,,,,,,,,,,,,,,,,,,,,60fd6537ec893eee4eb8c3eb,61036a4ba0280fce27023e4f,2021-07-29_22h56.49.400,Simcolourproject_2stim_asymm_v5,2020.2.10,MacIntel,60,61025ae37ef11b136ea224fe,,,,,,,,,1054,35,-17,1,0,0,response3disk,,5,-10,8,1,0,0,rectangle,-10,8,1,0,0,-10,8,1,0,0,0,62,62,25,1,,,,,,,,
,,,,,,,,,,,,,FF,,,,,,,,0.767,,,,,,,,,,,,,,,,,,,,,,60fd6537ec893eee4eb8c3eb,61036a4ba0280fce27023e4f,2021-07-29_22h56.49.400,Simcolourproject_2stim_asymm_v5,2020.2.10,MacIntel,60,61025ae37ef11b136ea224fe,,,,,,,,,586,11,38,1,0,0,response1disk,,7,6,10,1,0,0,rectangle,6,10,1,0,0,6,10,1,0,0,0,63,63,122,1,,,,,,,,
,,,,,,,,,,,,,FF,,,,,,,,1.05,,,,,,,,,,,,,,,,,,,,,,60fd6537ec893eee4eb8c3eb,61036a4ba0280fce27023e4f,2021-07-29_22h56.49.400,Simcolourproject_2stim_asymm_v5,2020.2.10,MacIntel,60,61025ae37ef11b136ea224fe,,,,,,,,,2423,39,-32,1,0,0,response3disk,,5,10,-3,1,0,0,rectangle,10,-3,1,0,0,10,-3,1,0,0,0,64,64,54,1,,,,,,,,
,,,,,,,,,,,,,FF,,,,,,,,0.933,,,,,,,,,,,,,,,,,,,,,,60fd6537ec893eee4eb8c3eb,61036a4ba0280fce27023e4f,2021-07-29_22h56.49.400,Simcolourproject_2stim_asymm_v5,2020.2.10,MacIntel,60,61025ae37ef11b136ea224fe,,,,,,,,,781,12,30,1,0,0,response1disk,,7,1,1,1,0,0,rectangle,1,1,1,0,0,1,1,1,0,0,0,65,65,31,1,,,,,,,,
,,,,,,,,,,,,,FF,,,,,,,,1.267,,,,,,,,,,,,,,,,,,,,,,60fd6537ec893eee4eb8c3eb,61036a4ba0280fce27023e4f,2021-07-29_22h56.49.400,Simcolourproject_2stim_asymm_v5,2020.2.10,MacIntel,60,61025ae37ef11b136ea224fe,,,,,,,,,4021,-26,-41,1,0,0,response5disk,,3,-10,1,1,0,0,rectangle,-10,1,1,0,0,-10,1,1,0,0,0,66,66,84,1,,,,,,,,
,,,,,,,,,,,,,FF,,,,,,,,0.866,,,,,,,,,,,,,,,,,,,,,,60fd6537ec893eee4eb8c3eb,61036a4ba0280fce27023e4f,2021-07-29_22h56.49.400,Simcolourproject_2stim_asymm_v5,2020.2.10,MacIntel,60,61025ae37ef11b136ea224fe,,,,,,,,,2719,-43,-28,1,0,0,response5disk,,2,-10,-3,1,0,0,rectangle,-10,-3,1,0,0,-10,-3,1,0,0,0,67,67,117,1,,,,,,,,
,,,,,,,,,,,,,FF,,,,,,,,1.417,,,,,,,,,,,,,,,,,,,,,,60fd6537ec893eee4eb8c3eb,61036a4ba0280fce27023e4f,2021-07-29_22h56.49.400,Simcolourproject_2stim_asymm_v5,2020.2.10,MacIntel,60,61025ae37ef11b136ea224fe,,,,,,,,,2768,20,-48,1,0,0,response3disk,,4,0,3,1,0,0,rectangle,0,3,1,0,0,0,3,1,0,0,0,68,68,151,1,,,,,,,,
,,,,,,,,,,,,,FF,,,,,,,,1.75,,,,,,,,,,,,,,,,,,,,,,60fd6537ec893eee4eb8c3eb,61036a4ba0280fce27023e4f,2021-07-29_22h56.49.400,Simcolourproject_2stim_asymm_v5,2020.2.10,MacIntel,60,61025ae37ef11b136ea224fe,,,,,,,,,528,52,-11,1,0,0,response3disk,,5,3,4,1,0,0,rectangle,3,4,1,0,0,3,4,1,0,0,0,69,69,118,1,,,,,,,,
,,,,,,,,,,,,,FF,,,,,,,,0.915,,,,,,,,,,,,,,,,,,,,,,60fd6537ec893eee4eb8c3eb,61036a4ba0280fce27023e4f,2021-07-29_22h56.49.400,Simcolourproject_2stim_asymm_v5,2020.2.10,MacIntel,60,61025ae37ef11b136ea224fe,,,,,,,,,1279,34,21,1,0,0,response1disk,,6,-6,11,1,0,0,rectangle,-6,11,1,0,0,-6,11,1,0,0,0,70,70,75,1,,,,,,,,
,,,,,,,,,,,,,FF,,,,,,,,1.067,,,,,,,,,,,,,,,,,,,,,,60fd6537ec893eee4eb8c3eb,61036a4ba0280fce27023e4f,2021-07-29_22h56.49.400,Simcolourproject_2stim_asymm_v5,2020.2.10,MacIntel,60,61025ae37ef11b136ea224fe,,,,,,,,,2170,37,25,1,0,0,response1disk,,6,7,14,1,0,0,rectangle,7,14,1,0,0,7,14,1,0,0,0,71,71,36,1,,,,,,,,
,,,,,,,,,,,,,FF,,,,,,,,1.299,,,,,,,,,,,,,,,,,,,,,,60fd6537ec893eee4eb8c3eb,61036a4ba0280fce27023e4f,2021-07-29_22h56.49.400,Simcolourproject_2stim_asymm_v5,2020.2.10,MacIntel,60,61025ae37ef11b136ea224fe,,,,,,,,,1145,-28,-50,1,0,0,response5disk,,3,-10,0,1,0,0,rectangle,-10,0,1,0,0,-10,0,1,0,0,0,72,72,33,1,,,,,,,,
,,,,,,,,,,,,,FF,,,,,,,,1.967,,,,,,,,,,,,,,,,,,,,,,60fd6537ec893eee4eb8c3eb,61036a4ba0280fce27023e4f,2021-07-29_22h56.49.400,Simcolourproject_2stim_asymm_v5,2020.2.10,MacIntel,60,61025ae37ef11b136ea224fe,,,,,,,,,1519,37,17,1,0,0,response1disk,,6,2,8,1,0,0,rectangle,2,8,1,0,0,2,8,1,0,0,0,73,73,12,1,,,,,,,,
,,,,,,,,,,,,,FF,,,,,,,,1.117,,,,,,,,,,,,,,,,,,,,,,60fd6537ec893eee4eb8c3eb,61036a4ba0280fce27023e4f,2021-07-29_22h56.49.400,Simcolourproject_2stim_asymm_v5,2020.2.10,MacIntel,60,61025ae37ef11b136ea224fe,,,,,,,,,4345,36,-18,1,0,0,response3disk,,5,11,-9,1,0,0,rectangle,11,-9,1,0,0,11,-9,1,0,0,0,74,74,40,1,,,,,,,,
,,,,,,,,,,,,,FF,,,,,,,,0.982,,,,,,,,,,,,,,,,,,,,,,60fd6537ec893eee4eb8c3eb,61036a4ba0280fce27023e4f,2021-07-29_22h56.49.400,Simcolourproject_2stim_asymm_v5,2020.2.10,MacIntel,60,61025ae37ef11b136ea224fe,,,,,,,,,1352,30,-18,1,0,0,response3disk,,5,8,-5,1,0,0,rectangle,8,-5,1,0,0,8,-5,1,0,0,0,75,75,9,1,,,,,,,,
,,,,,,,,,,,,,FF,,,,,,,,1.266,,,,,,,,,,,,,,,,,,,,,,60fd6537ec893eee4eb8c3eb,61036a4ba0280fce27023e4f,2021-07-29_22h56.49.400,Simcolourproject_2stim_asymm_v5,2020.2.10,MacIntel,60,61025ae37ef11b136ea224fe,,,,,,,,,550,-31,-41,1,0,0,response5disk,,3,-17,-10,1,0,0,rectangle,-17,-10,1,0,0,-17,-10,1,0,0,0,76,76,135,1,,,,,,,,
,,,,,,,,,,,,,FF,,,,,,,,1.251,,,,,,,,,,,,,,,,,,,,,,60fd6537ec893eee4eb8c3eb,61036a4ba0280fce27023e4f,2021-07-29_22h56.49.400,Simcolourproject_2stim_asymm_v5,2020.2.10,MacIntel,60,61025ae37ef11b136ea224fe,,,,,,,,,2126,18,34,1,0,0,response1disk,,7,7,14,1,0,0,rectangle,7,14,1,0,0,7,14,1,0,0,0,77,77,43,1,,,,,,,,
,,,,,,,,,,,,,FF,,,,,,,,1.05,,,,,,,,,,,,,,,,,,,,,,60fd6537ec893eee4eb8c3eb,61036a4ba0280fce27023e4f,2021-07-29_22h56.49.400,Simcolourproject_2stim_asymm_v5,2020.2.10,MacIntel,60,61025ae37ef11b136ea224fe,,,,,,,,,2072,33,19,1,0,0,response1disk,,6,5,14,1,0,0,rectangle,5,14,1,0,0,5,14,1,0,0,0,78,78,149,1,,,,,,,,
,,,,,,,,,,,,,FF,,,,,,,,0.95,,,,,,,,,,,,,,,,,,,,,,60fd6537ec893eee4eb8c3eb,61036a4ba0280fce27023e4f,2021-07-29_22h56.49.400,Simcolourproject_2stim_asymm_v5,2020.2.10,MacIntel,60,61025ae37ef11b136ea224fe,,,,,,,,,934,19,43,1,0,0,response1disk,,7,-2,8,1,0,0,rectangle,-2,8,1,0,0,-2,8,1,0,0,0,79,79,79,1,,,,,,,,
,,,,,,,,,,,,,FF,,,,,,,,1.95,,,,,,,,,,,,,,,,,,,,,,60fd6537ec893eee4eb8c3eb,61036a4ba0280fce27023e4f,2021-07-29_22h56.49.400,Simcolourproject_2stim_asymm_v5,2020.2.10,MacIntel,60,61025ae37ef11b136ea224fe,,,,,,,,,3508,34,-25,1,0,0,response3disk,,5,7,-6,1,0,0,rectangle,7,-6,1,0,0,7,-6,1,0,0,0,80,80,18,1,,,,,,,,
,,,,,,,,,,,,,FF,,,,,,,,1.717,,,,,,,,,,,,,,,,,,,,,,60fd6537ec893eee4eb8c3eb,61036a4ba0280fce27023e4f,2021-07-29_22h56.49.400,Simcolourproject_2stim_asymm_v5,2020.2.10,MacIntel,60,61025ae37ef11b136ea224fe,,,,,,,,,2405,46,33,1,0,0,response1disk,,6,6,1,1,0,0,rectangle,6,1,1,0,0,6,1,1,0,0,0,81,81,4,1,,,,,,,,
,,,,,,,,,,,,,FF,,,,,,,,1.333,,,,,,,,,,,,,,,,,,,,,,60fd6537ec893eee4eb8c3eb,61036a4ba0280fce27023e4f,2021-07-29_22h56.49.400,Simcolourproject_2stim_asymm_v5,2020.2.10,MacIntel,60,61025ae37ef11b136ea224fe,,,,,,,,,121,19,42,1,0,0,response1disk,,7,9,-9,1,0,0,rectangle,9,-9,1,0,0,9,-9,1,0,0,0,82,82,72,1,,,,,,,,
,,,,,,,,,,,,,FF,,,,,,,,0.783,,,,,,,,,,,,,,,,,,,,,,60fd6537ec893eee4eb8c3eb,61036a4ba0280fce27023e4f,2021-07-29_22h56.49.400,Simcolourproject_2stim_asymm_v5,2020.2.10,MacIntel,60,61025ae37ef11b136ea224fe,,,,,,,,,116,16,41,1,0,0,response1disk,,7,0,4,1,0,0,rectangle,46,-16,1,0,0,-1,-6,1,0,0,0,83,83,103,1,,response3disk_3,TRUE,5,2,"[168,259,316,168,124,181,174,213,217,84,22,10,187,196,188,235,222,208,293,234]",1.634,rectangle
,,,,,,,,,,,,,FF,,,,,,,,1.733,,,,,,,,,,,,,,,,,,,,,,60fd6537ec893eee4eb8c3eb,61036a4ba0280fce27023e4f,2021-07-29_22h56.49.400,Simcolourproject_2stim_asymm_v5,2020.2.10,MacIntel,60,61025ae37ef11b136ea224fe,,,,,,,,,3609,36,16,1,0,0,response1disk,,6,10,14,1,0,0,rectangle,10,14,1,0,0,10,14,1,0,0,0,84,84,136,1,,,,,,,,
,,,,,,,,,,,,,FF,,,,,,,,1.551,,,,,,,,,,,,,,,,,,,,,,60fd6537ec893eee4eb8c3eb,61036a4ba0280fce27023e4f,2021-07-29_22h56.49.400,Simcolourproject_2stim_asymm_v5,2020.2.10,MacIntel,60,61025ae37ef11b136ea224fe,,,,,,,,,2358,17,-44,1,0,0,response3disk,,4,0,-1,1,0,0,rectangle,0,-1,1,0,0,0,-1,1,0,0,0,85,85,50,1,,,,,,,,
,,,,,,,,,,,,,FF,,,,,,,,0.934,,,,,,,,,,,,,,,,,,,,,,60fd6537ec893eee4eb8c3eb,61036a4ba0280fce27023e4f,2021-07-29_22h56.49.400,Simcolourproject_2stim_asymm_v5,2020.2.10,MacIntel,60,61025ae37ef11b136ea224fe,,,,,,,,,2823,35,-18,1,0,0,response3disk,,5,2,2,1,0,0,rectangle,2,2,1,0,0,2,2,1,0,0,0,86,86,0,1,,,,,,,,
,,,,,,,,,,,,,FF,,,,,,,,0.899,,,,,,,,,,,,,,,,,,,,,,60fd6537ec893eee4eb8c3eb,61036a4ba0280fce27023e4f,2021-07-29_22h56.49.400,Simcolourproject_2stim_asymm_v5,2020.2.10,MacIntel,60,61025ae37ef11b136ea224fe,,,,,,,,,2949,31,-17,1,0,0,response3disk,,5,-2,-6,1,0,0,rectangle,-2,-6,1,0,0,-2,-6,1,0,0,0,87,87,106,1,,,,,,,,
,,,,,,,,,,,,,FF,,,,,,,,1.433,,,,,,,,,,,,,,,,,,,,,,60fd6537ec893eee4eb8c3eb,61036a4ba0280fce27023e4f,2021-07-29_22h56.49.400,Simcolourproject_2stim_asymm_v5,2020.2.10,MacIntel,60,61025ae37ef11b136ea224fe,,,,,,,,,2410,36,-20,1,0,0,response3disk,,5,6,-9,1,0,0,rectangle,6,-9,1,0,0,6,-9,1,0,0,0,88,88,21,1,,,,,,,,
,,,,,,,,,,,,,FF,,,,,,,,1.016,,,,,,,,,,,,,,,,,,,,,,60fd6537ec893eee4eb8c3eb,61036a4ba0280fce27023e4f,2021-07-29_22h56.49.400,Simcolourproject_2stim_asymm_v5,2020.2.10,MacIntel,60,61025ae37ef11b136ea224fe,,,,,,,,,3275,28,41,1,0,0,response1disk,,7,6,4,1,0,0,rectangle,6,4,1,0,0,6,4,1,0,0,0,89,89,150,1,,,,,,,,
,,,,,,,,,,,,,FF,,,,,,,,1.266,,,,,,,,,,,,,,,,,,,,,,60fd6537ec893eee4eb8c3eb,61036a4ba0280fce27023e4f,2021-07-29_22h56.49.400,Simcolourproject_2stim_asymm_v5,2020.2.10,MacIntel,60,61025ae37ef11b136ea224fe,,,,,,,,,4024,-17,-44,1,0,0,response5disk,,3,-9,1,1,0,0,rectangle,-9,1,1,0,0,-9,1,1,0,0,0,90,90,107,1,,,,,,,,
,,,,,,,,,,,,,FF,,,,,,,,1.035,,,,,,,,,,,,,,,,,,,,,,60fd6537ec893eee4eb8c3eb,61036a4ba0280fce27023e4f,2021-07-29_22h56.49.400,Simcolourproject_2stim_asymm_v5,2020.2.10,MacIntel,60,61025ae37ef11b136ea224fe,,,,,,,,,3060,16,-38,1,0,0,response3disk,,4,8,-2,1,0,0,rectangle,8,-2,1,0,0,8,-2,1,0,0,0,91,91,24,1,,,,,,,,
,,,,,,,,,,,,,FF,,,,,,,,1.583,,,,,,,,,,,,,,,,,,,,,,60fd6537ec893eee4eb8c3eb,61036a4ba0280fce27023e4f,2021-07-29_22h56.49.400,Simcolourproject_2stim_asymm_v5,2020.2.10,MacIntel,60,61025ae37ef11b136ea224fe,,,,,,,,,1871,18,12,1,0,0,response1disk,,6,2,12,1,0,0,rectangle,2,12,1,0,0,2,12,1,0,0,0,92,92,113,1,,,,,,,,
,,,,,,,,,,,,,FF,,,,,,,,1.051,,,,,,,,,,,,,,,,,,,,,,60fd6537ec893eee4eb8c3eb,61036a4ba0280fce27023e4f,2021-07-29_22h56.49.400,Simcolourproject_2stim_asymm_v5,2020.2.10,MacIntel,60,61025ae37ef11b136ea224fe,,,,,,,,,3916,32,-22,1,0,0,response3disk,,5,9,3,1,0,0,rectangle,9,3,1,0,0,9,3,1,0,0,0,93,93,51,1,,,,,,,,
,,,,,,,,,,,,,FF,,,,,,,,1.183,,,,,,,,,,,,,,,,,,,,,,60fd6537ec893eee4eb8c3eb,61036a4ba0280fce27023e4f,2021-07-29_22h56.49.400,Simcolourproject_2stim_asymm_v5,2020.2.10,MacIntel,60,61025ae37ef11b136ea224fe,,,,,,,,,764,26,52,1,0,0,response1disk,,7,7,6,1,0,0,rectangle,7,6,1,0,0,7,6,1,0,0,0,94,94,68,1,,,,,,,,
,,,,,,,,,,,,,FF,,,,,,,,0.816,,,,,,,,,,,,,,,,,,,,,,60fd6537ec893eee4eb8c3eb,61036a4ba0280fce27023e4f,2021-07-29_22h56.49.400,Simcolourproject_2stim_asymm_v5,2020.2.10,MacIntel,60,61025ae37ef11b136ea224fe,,,,,,,,,675,18,39,1,0,0,response1disk,,7,4,0,1,0,0,rectangle,4,0,1,0,0,4,0,1,0,0,0,95,95,45,1,,,,,,,,
,,,,,,,,,,,,,FF,,,,,,,,1.216,,,,,,,,,,,,,,,,,,,,,,60fd6537ec893eee4eb8c3eb,61036a4ba0280fce27023e4f,2021-07-29_22h56.49.400,Simcolourproject_2stim_asymm_v5,2020.2.10,MacIntel,60,61025ae37ef11b136ea224fe,,,,,,,,,482,46,-35,1,0,0,response3disk,,5,2,-9,1,0,0,rectangle,2,-9,1,0,0,2,-9,1,0,0,0,96,96,112,1,,,,,,,,
,,,,,,,,,,,,,FF,,,,,,,,1.436,,,,,,,,,,,,,,,,,,,,,,60fd6537ec893eee4eb8c3eb,61036a4ba0280fce27023e4f,2021-07-29_22h56.49.400,Simcolourproject_2stim_asymm_v5,2020.2.10,MacIntel,60,61025ae37ef11b136ea224fe,,,,,,,,,3011,13,36,1,0,0,response1disk,,7,-11,-11,1,0,0,rectangle,-11,-11,1,0,0,-11,-11,1,0,0,0,97,97,93,1,,,,,,,,
,,,,,,,,,,,,,FF,,,,,,,,2.3,,,,,,,,,,,,,,,,,,,,,,60fd6537ec893eee4eb8c3eb,61036a4ba0280fce27023e4f,2021-07-29_22h56.49.400,Simcolourproject_2stim_asymm_v5,2020.2.10,MacIntel,60,61025ae37ef11b136ea224fe,,,,,,,,,1261,10,44,1,0,0,response1disk,,7,-2,-12,1,0,0,rectangle,-2,-12,1,0,0,-2,-12,1,0,0,0,98,98,109,1,,,,,,,,
,,,,,,,,,,,,,FF,,,,,,,,1.183,,,,,,,,,,,,,,,,,,,,,,60fd6537ec893eee4eb8c3eb,61036a4ba0280fce27023e4f,2021-07-29_22h56.49.400,Simcolourproject_2stim_asymm_v5,2020.2.10,MacIntel,60,61025ae37ef11b136ea224fe,,,,,,,,,3946,16,-38,1,0,0,response3disk,,4,3,-7,1,0,0,rectangle,3,-7,1,0,0,3,-7,1,0,0,0,99,99,130,1,,,,,,,,
,,,,,,,,,,,,,FF,,,,,,,,0.866,,,,,,,,,,,,,,,,,,,,,,60fd6537ec893eee4eb8c3eb,61036a4ba0280fce27023e4f,2021-07-29_22h56.49.400,Simcolourproject_2stim_asymm_v5,2020.2.10,MacIntel,60,61025ae37ef11b136ea224fe,,,,,,,,,2465,10,36,1,0,0,response1disk,,7,1,2,1,0,0,rectangle,1,2,1,0,0,1,2,1,0,0,0,100,100,14,1,,,,,,,,
,,,,,,,,,,,,,FF,,,,,,,,1.517,,,,,,,,,,,,,,,,,,,,,,60fd6537ec893eee4eb8c3eb,61036a4ba0280fce27023e4f,2021-07-29_22h56.49.400,Simcolourproject_2stim_asymm_v5,2020.2.10,MacIntel,60,61025ae37ef11b136ea224fe,,,,,,,,,2397,21,32,1,0,0,response1disk,,7,17,11,1,0,0,rectangle,17,11,1,0,0,17,11,1,0,0,0,101,101,7,1,,,,,,,,
,,,,,,,,,,,,,FF,,,,,,,,1.267,,,,,,,,,,,,,,,,,,,,,,60fd6537ec893eee4eb8c3eb,61036a4ba0280fce27023e4f,2021-07-29_22h56.49.400,Simcolourproject_2stim_asymm_v5,2020.2.10,MacIntel,60,61025ae37ef11b136ea224fe,,,,,,,,,355,-36,-22,1,0,0,response5disk,,2,-12,3,1,0,0,rectangle,-12,3,1,0,0,-12,3,1,0,0,0,102,102,65,1,,,,,,,,
,,,,,,,,,,,,,FF,,,,,,,,0.951,,,,,,,,,,,,,,,,,,,,,,60fd6537ec893eee4eb8c3eb,61036a4ba0280fce27023e4f,2021-07-29_22h56.49.400,Simcolourproject_2stim_asymm_v5,2020.2.10,MacIntel,60,61025ae37ef11b136ea224fe,,,,,,,,,724,-27,-39,1,0,0,response5disk,,3,-7,-1,1,0,0,rectangle,-7,-1,1,0,0,-7,-1,1,0,0,0,103,103,153,1,,,,,,,,
,,,,,,,,,,,,,FF,,,,,,,,0.967,,,,,,,,,,,,,,,,,,,,,,60fd6537ec893eee4eb8c3eb,61036a4ba0280fce27023e4f,2021-07-29_22h56.49.400,Simcolourproject_2stim_asymm_v5,2020.2.10,MacIntel,60,61025ae37ef11b136ea224fe,,,,,,,,,4226,20,-40,1,0,0,response3disk,,4,10,-4,1,0,0,rectangle,10,-4,1,0,0,10,-4,1,0,0,0,104,104,3,1,,,,,,,,
,,,,,,,,,,,,,FF,,,,,,,,0.967,,,,,,,,,,,,,,,,,,,,,,60fd6537ec893eee4eb8c3eb,61036a4ba0280fce27023e4f,2021-07-29_22h56.49.400,Simcolourproject_2stim_asymm_v5,2020.2.10,MacIntel,60,61025ae37ef11b136ea224fe,,,,,,,,,3624,-33,-59,1,0,0,response5disk,,3,-9,-1,1,0,0,rectangle,-9,-1,1,0,0,-9,-1,1,0,0,0,105,105,141,1,,,,,,,,
,,,,,,,,,,,,,FF,,,,,,,,1.15,,,,,,,,,,,,,,,,,,,,,,60fd6537ec893eee4eb8c3eb,61036a4ba0280fce27023e4f,2021-07-29_22h56.49.400,Simcolourproject_2stim_asymm_v5,2020.2.10,MacIntel,60,61025ae37ef11b136ea224fe,,,,,,,,,410,40,-26,1,0,0,response3disk,,5,-8,-1,1,0,0,rectangle,-8,-1,1,0,0,-8,-1,1,0,0,0,106,106,73,1,,,,,,,,
,,,,,,,,,,,,,FF,,,,,,,,1.2,,,,,,,,,,,,,,,,,,,,,,60fd6537ec893eee4eb8c3eb,61036a4ba0280fce27023e4f,2021-07-29_22h56.49.400,Simcolourproject_2stim_asymm_v5,2020.2.10,MacIntel,60,61025ae37ef11b136ea224fe,,,,,,,,,673,21,38,1,0,0,response1disk,,7,10,9,1,0,0,rectangle,10,9,1,0,0,10,9,1,0,0,0,107,107,41,1,,,,,,,,
,,,,,,,,,,,,,FF,,,,,,,,1.934,,,,,,,,,,,,,,,,,,,,,,60fd6537ec893eee4eb8c3eb,61036a4ba0280fce27023e4f,2021-07-29_22h56.49.400,Simcolourproject_2stim_asymm_v5,2020.2.10,MacIntel,60,61025ae37ef11b136ea224fe,,,,,,,,,2984,22,-45,1,0,0,response3disk,,4,12,6,1,0,0,rectangle,12,6,1,0,0,12,6,1,0,0,0,108,108,8,1,,,,,,,,
,,,,,,,,,,,,,FF,,,,,,,,1.134,,,,,,,,,,,,,,,,,,,,,,60fd6537ec893eee4eb8c3eb,61036a4ba0280fce27023e4f,2021-07-29_22h56.49.400,Simcolourproject_2stim_asymm_v5,2020.2.10,MacIntel,60,61025ae37ef11b136ea224fe,,,,,,,,,1666,23,45,1,0,0,response1disk,,7,9,13,1,0,0,rectangle,9,13,1,0,0,9,13,1,0,0,0,109,109,77,1,,,,,,,,
,,,,,,,,,,,,,FF,,,,,,,,0.999,,,,,,,,,,,,,,,,,,,,,,60fd6537ec893eee4eb8c3eb,61036a4ba0280fce27023e4f,2021-07-29_22h56.49.400,Simcolourproject_2stim_asymm_v5,2020.2.10,MacIntel,60,61025ae37ef11b136ea224fe,,,,,,,,,1849,20,43,1,0,0,response1disk,,7,7,13,1,0,0,rectangle,7,13,1,0,0,7,13,1,0,0,0,110,110,89,1,,,,,,,,
,,,,,,,,,,,,,FF,,,,,,,,1.083,,,,,,,,,,,,,,,,,,,,,,60fd6537ec893eee4eb8c3eb,61036a4ba0280fce27023e4f,2021-07-29_22h56.49.400,Simcolourproject_2stim_asymm_v5,2020.2.10,MacIntel,60,61025ae37ef11b136ea224fe,,,,,,,,,97,32,-25,1,0,0,response3disk,,5,8,-14,1,0,0,rectangle,8,-14,1,0,0,8,-14,1,0,0,0,111,111,116,1,,,,,,,,
,,,,,,,,,,,,,FF,,,,,,,,1.149,,,,,,,,,,,,,,,,,,,,,,60fd6537ec893eee4eb8c3eb,61036a4ba0280fce27023e4f,2021-07-29_22h56.49.400,Simcolourproject_2stim_asymm_v5,2020.2.10,MacIntel,60,61025ae37ef11b136ea224fe,,,,,,,,,3964,13,15,1,0,0,response1disk,,7,-5,14,1,0,0,rectangle,-5,14,1,0,0,-5,14,1,0,0,0,112,112,125,1,,,,,,,,
,,,,,,,,,,,,,FF,,,,,,,,1.133,,,,,,,,,,,,,,,,,,,,,,60fd6537ec893eee4eb8c3eb,61036a4ba0280fce27023e4f,2021-07-29_22h56.49.400,Simcolourproject_2stim_asymm_v5,2020.2.10,MacIntel,60,61025ae37ef11b136ea224fe,,,,,,,,,683,22,47,1,0,0,response1disk,,7,6,7,1,0,0,rectangle,6,7,1,0,0,6,7,1,0,0,0,113,113,19,1,,,,,,,,
,,,,,,,,,,,,,FF,,,,,,,,0.966,,,,,,,,,,,,,,,,,,,,,,60fd6537ec893eee4eb8c3eb,61036a4ba0280fce27023e4f,2021-07-29_22h56.49.400,Simcolourproject_2stim_asymm_v5,2020.2.10,MacIntel,60,61025ae37ef11b136ea224fe,,,,,,,,,296,46,10,1,0,0,response1disk,,6,13,-2,1,0,0,rectangle,13,-2,1,0,0,13,-2,1,0,0,0,114,114,11,1,,,,,,,,
,,,,,,,,,,,,,FF,,,,,,,,0.933,,,,,,,,,,,,,,,,,,,,,,60fd6537ec893eee4eb8c3eb,61036a4ba0280fce27023e4f,2021-07-29_22h56.49.400,Simcolourproject_2stim_asymm_v5,2020.2.10,MacIntel,60,61025ae37ef11b136ea224fe,,,,,,,,,1276,37,-20,1,0,0,response3disk,,5,11,-8,1,0,0,rectangle,11,-8,1,0,0,11,-8,1,0,0,0,115,115,6,1,,,,,,,,
,,,,,,,,,,,,,FF,,,,,,,,1.267,,,,,,,,,,,,,,,,,,,,,,60fd6537ec893eee4eb8c3eb,61036a4ba0280fce27023e4f,2021-07-29_22h56.49.400,Simcolourproject_2stim_asymm_v5,2020.2.10,MacIntel,60,61025ae37ef11b136ea224fe,,,,,,,,,3351,33,14,1,0,0,response1disk,,6,1,14,1,0,0,rectangle,1,14,1,0,0,1,14,1,0,0,0,116,116,101,1,,,,,,,,
,,,,,,,,,,,,,FF,,,,,,,,1.733,,,,,,,,,,,,,,,,,,,,,,60fd6537ec893eee4eb8c3eb,61036a4ba0280fce27023e4f,2021-07-29_22h56.49.400,Simcolourproject_2stim_asymm_v5,2020.2.10,MacIntel,60,61025ae37ef11b136ea224fe,,,,,,,,,3024,22,32,1,0,0,response1disk,,7,9,8,1,0,0,rectangle,9,8,1,0,0,9,8,1,0,0,0,117,117,137,1,,,,,,,,
,,,,,,,,,,,,,FF,,,,,,,,0.816,,,,,,,,,,,,,,,,,,,,,,60fd6537ec893eee4eb8c3eb,61036a4ba0280fce27023e4f,2021-07-29_22h56.49.400,Simcolourproject_2stim_asymm_v5,2020.2.10,MacIntel,60,61025ae37ef11b136ea224fe,,,,,,,,,3137,15,31,1,0,0,response1disk,,7,3,10,1,0,0,rectangle,3,10,1,0,0,3,10,1,0,0,0,118,118,120,1,,,,,,,,
,,,,,,,,,,,,,FF,,,,,,,,1.083,,,,,,,,,,,,,,,,,,,,,,60fd6537ec893eee4eb8c3eb,61036a4ba0280fce27023e4f,2021-07-29_22h56.49.400,Simcolourproject_2stim_asymm_v5,2020.2.10,MacIntel,60,61025ae37ef11b136ea224fe,,,,,,,,,2130,21,49,1,0,0,response1disk,,7,3,8,1,0,0,rectangle,3,8,1,0,0,3,8,1,0,0,0,119,119,42,1,,,,,,,,
,,,,,,,,,,,,,FF,,,,,,,,0.817,,,,,,,,,,,,,,,,,,,,,,60fd6537ec893eee4eb8c3eb,61036a4ba0280fce27023e4f,2021-07-29_22h56.49.400,Simcolourproject_2stim_asymm_v5,2020.2.10,MacIntel,60,61025ae37ef11b136ea224fe,,,,,,,,,2580,19,40,1,0,0,response1disk,,7,-6,3,1,0,0,rectangle,-6,3,1,0,0,-6,3,1,0,0,0,120,120,30,1,,,,,,,,
,,,,,,,,,,,,,FF,,,,,,,,1.116,,,,,,,,,,,,,,,,,,,,,,60fd6537ec893eee4eb8c3eb,61036a4ba0280fce27023e4f,2021-07-29_22h56.49.400,Simcolourproject_2stim_asymm_v5,2020.2.10,MacIntel,60,61025ae37ef11b136ea224fe,,,,,,,,,88,20,42,1,0,0,response1disk,,7,7,8,1,0,0,rectangle,7,8,1,0,0,7,8,1,0,0,0,121,121,88,1,,,,,,,,
,,,,,,,,,,,,,FF,,,,,,,,0.716,,,,,,,,,,,,,,,,,,,,,,60fd6537ec893eee4eb8c3eb,61036a4ba0280fce27023e4f,2021-07-29_22h56.49.400,Simcolourproject_2stim_asymm_v5,2020.2.10,MacIntel,60,61025ae37ef11b136ea224fe,,,,,,,,,848,24,47,1,0,0,response1disk,,7,6,9,1,0,0,rectangle,6,9,1,0,0,6,9,1,0,0,0,122,122,20,1,,,,,,,,
,,,,,,,,,,,,,FF,,,,,,,,1.083,,,,,,,,,,,,,,,,,,,,,,60fd6537ec893eee4eb8c3eb,61036a4ba0280fce27023e4f,2021-07-29_22h56.49.400,Simcolourproject_2stim_asymm_v5,2020.2.10,MacIntel,60,61025ae37ef11b136ea224fe,,,,,,,,,3429,-27,-50,1,0,0,response5disk,,3,-11,2,1,0,0,rectangle,13,-39,1,0,0,-3,1,1,0,0,0,123,123,133,1,,response3disk_3,TRUE,4,4,"[168,259,316,168,124,181,174,213,217,84,22,10,187,196,188,235,222,208,293,234]",2.45,rectangle
,,,,,,,,,,,,,FF,,,,,,,,1.682,,,,,,,,,,,,,,,,,,,,,,60fd6537ec893eee4eb8c3eb,61036a4ba0280fce27023e4f,2021-07-29_22h56.49.400,Simcolourproject_2stim_asymm_v5,2020.2.10,MacIntel,60,61025ae37ef11b136ea224fe,,,,,,,,,342,44,-17,1,0,0,response3disk,,5,4,3,1,0,0,rectangle,4,3,1,0,0,4,3,1,0,0,0,124,124,132,1,,,,,,,,
,,,,,,,,,,,,,FF,,,,,,,,0.9,,,,,,,,,,,,,,,,,,,,,,60fd6537ec893eee4eb8c3eb,61036a4ba0280fce27023e4f,2021-07-29_22h56.49.400,Simcolourproject_2stim_asymm_v5,2020.2.10,MacIntel,60,61025ae37ef11b136ea224fe,,,,,,,,,50,45,16,1,0,0,response1disk,,6,14,6,1,0,0,rectangle,14,6,1,0,0,14,6,1,0,0,0,125,125,80,1,,,,,,,,
,,,,,,,,,,,,,FF,,,,,,,,1.051,,,,,,,,,,,,,,,,,,,,,,60fd6537ec893eee4eb8c3eb,61036a4ba0280fce27023e4f,2021-07-29_22h56.49.400,Simcolourproject_2stim_asymm_v5,2020.2.10,MacIntel,60,61025ae37ef11b136ea224fe,,,,,,,,,2754,30,53,1,0,0,response1disk,,7,-1,-9,1,0,0,rectangle,-1,-9,1,0,0,-1,-9,1,0,0,0,126,126,52,1,,,,,,,,
,,,,,,,,,,,,,FF,,,,,,,,1.083,,,,,,,,,,,,,,,,,,,,,,60fd6537ec893eee4eb8c3eb,61036a4ba0280fce27023e4f,2021-07-29_22h56.49.400,Simcolourproject_2stim_asymm_v5,2020.2.10,MacIntel,60,61025ae37ef11b136ea224fe,,,,,,,,,2038,28,-44,1,0,0,response3disk,,4,-2,-2,1,0,0,rectangle,-2,-2,1,0,0,-2,-2,1,0,0,0,127,127,105,1,,,,,,,,
,,,,,,,,,,,,,FF,,,,,,,,1.466,,,,,,,,,,,,,,,,,,,,,,60fd6537ec893eee4eb8c3eb,61036a4ba0280fce27023e4f,2021-07-29_22h56.49.400,Simcolourproject_2stim_asymm_v5,2020.2.10,MacIntel,60,61025ae37ef11b136ea224fe,,,,,,,,,2064,40,16,1,0,0,response1disk,,6,-2,-2,1,0,0,rectangle,-2,-2,1,0,0,-2,-2,1,0,0,0,128,128,86,1,,,,,,,,
,,,,,,,,,,,,,FF,,,,,,,,0.95,,,,,,,,,,,,,,,,,,,,,,60fd6537ec893eee4eb8c3eb,61036a4ba0280fce27023e4f,2021-07-29_22h56.49.400,Simcolourproject_2stim_asymm_v5,2020.2.10,MacIntel,60,61025ae37ef11b136ea224fe,,,,,,,,,1933,23,36,1,0,0,response1disk,,7,7,8,1,0,0,rectangle,7,8,1,0,0,7,8,1,0,0,0,129,129,76,1,,,,,,,,
,,,,,,,,,,,,,FF,,,,,,,,0.734,,,,,,,,,,,,,,,,,,,,,,60fd6537ec893eee4eb8c3eb,61036a4ba0280fce27023e4f,2021-07-29_22h56.49.400,Simcolourproject_2stim_asymm_v5,2020.2.10,MacIntel,60,61025ae37ef11b136ea224fe,,,,,,,,,3363,21,43,1,0,0,response1disk,,7,13,11,1,0,0,rectangle,13,11,1,0,0,13,11,1,0,0,0,130,130,95,1,,,,,,,,
,,,,,,,,,,,,,FF,,,,,,,,1.733,,,,,,,,,,,,,,,,,,,,,,60fd6537ec893eee4eb8c3eb,61036a4ba0280fce27023e4f,2021-07-29_22h56.49.400,Simcolourproject_2stim_asymm_v5,2020.2.10,MacIntel,60,61025ae37ef11b136ea224fe,,,,,,,,,3118,27,16,1,0,0,response1disk,,6,12,12,1,0,0,rectangle,12,12,1,0,0,12,12,1,0,0,0,131,131,87,1,,,,,,,,
,,,,,,,,,,,,,FF,,,,,,,,1.367,,,,,,,,,,,,,,,,,,,,,,60fd6537ec893eee4eb8c3eb,61036a4ba0280fce27023e4f,2021-07-29_22h56.49.400,Simcolourproject_2stim_asymm_v5,2020.2.10,MacIntel,60,61025ae37ef11b136ea224fe,,,,,,,,,2525,35,24,1,0,0,response1disk,,6,13,14,1,0,0,rectangle,13,14,1,0,0,13,14,1,0,0,0,132,132,104,1,,,,,,,,
,,,,,,,,,,,,,FF,,,,,,,,0.933,,,,,,,,,,,,,,,,,,,,,,60fd6537ec893eee4eb8c3eb,61036a4ba0280fce27023e4f,2021-07-29_22h56.49.400,Simcolourproject_2stim_asymm_v5,2020.2.10,MacIntel,60,61025ae37ef11b136ea224fe,,,,,,,,,457,38,-25,1,0,0,response3disk,,5,4,-1,1,0,0,rectangle,4,-1,1,0,0,4,-1,1,0,0,0,133,133,32,1,,,,,,,,
,,,,,,,,,,,,,FF,,,,,,,,0.733,,,,,,,,,,,,,,,,,,,,,,60fd6537ec893eee4eb8c3eb,61036a4ba0280fce27023e4f,2021-07-29_22h56.49.400,Simcolourproject_2stim_asymm_v5,2020.2.10,MacIntel,60,61025ae37ef11b136ea224fe,,,,,,,,,3113,18,-30,1,0,0,response3disk,,4,5,-10,1,0,0,rectangle,5,-10,1,0,0,5,-10,1,0,0,0,134,134,156,1,,,,,,,,
,,,,,,,,,,,,,FF,,,,,,,,0.866,,,,,,,,,,,,,,,,,,,,,,60fd6537ec893eee4eb8c3eb,61036a4ba0280fce27023e4f,2021-07-29_22h56.49.400,Simcolourproject_2stim_asymm_v5,2020.2.10,MacIntel,60,61025ae37ef11b136ea224fe,,,,,,,,,544,42,-22,1,0,0,response3disk,,5,0,-13,1,0,0,rectangle,0,-13,1,0,0,0,-13,1,0,0,0,135,135,94,1,,,,,,,,
,,,,,,,,,,,,,FF,,,,,,,,1.083,,,,,,,,,,,,,,,,,,,,,,60fd6537ec893eee4eb8c3eb,61036a4ba0280fce27023e4f,2021-07-29_22h56.49.400,Simcolourproject_2stim_asymm_v5,2020.2.10,MacIntel,60,61025ae37ef11b136ea224fe,,,,,,,,,2954,-24,-54,1,0,0,response5disk,,3,-11,-3,1,0,0,rectangle,-11,-3,1,0,0,-11,-3,1,0,0,0,136,136,131,1,,,,,,,,
,,,,,,,,,,,,,FF,,,,,,,,0.85,,,,,,,,,,,,,,,,,,,,,,60fd6537ec893eee4eb8c3eb,61036a4ba0280fce27023e4f,2021-07-29_22h56.49.400,Simcolourproject_2stim_asymm_v5,2020.2.10,MacIntel,60,61025ae37ef11b136ea224fe,,,,,,,,,978,17,-40,1,0,0,response3disk,,4,6,-7,1,0,0,rectangle,6,-7,1,0,0,6,-7,1,0,0,0,137,137,56,1,,,,,,,,
,,,,,,,,,,,,,FF,,,,,,,,0.917,,,,,,,,,,,,,,,,,,,,,,60fd6537ec893eee4eb8c3eb,61036a4ba0280fce27023e4f,2021-07-29_22h56.49.400,Simcolourproject_2stim_asymm_v5,2020.2.10,MacIntel,60,61025ae37ef11b136ea224fe,,,,,,,,,1388,38,-12,1,0,0,response3disk,,5,9,-3,1,0,0,rectangle,9,-3,1,0,0,9,-3,1,0,0,0,138,138,5,1,,,,,,,,
,,,,,,,,,,,,,FF,,,,,,,,0.9,,,,,,,,,,,,,,,,,,,,,,60fd6537ec893eee4eb8c3eb,61036a4ba0280fce27023e4f,2021-07-29_22h56.49.400,Simcolourproject_2stim_asymm_v5,2020.2.10,MacIntel,60,61025ae37ef11b136ea224fe,,,,,,,,,1584,33,-17,1,0,0,response3disk,,5,2,0,1,0,0,rectangle,2,0,1,0,0,2,0,1,0,0,0,139,139,144,1,,,,,,,,
,,,,,,,,,,,,,FF,,,,,,,,1.2,,,,,,,,,,,,,,,,,,,,,,60fd6537ec893eee4eb8c3eb,61036a4ba0280fce27023e4f,2021-07-29_22h56.49.400,Simcolourproject_2stim_asymm_v5,2020.2.10,MacIntel,60,61025ae37ef11b136ea224fe,,,,,,,,,811,19,-44,1,0,0,response3disk,,4,2,-9,1,0,0,rectangle,2,-9,1,0,0,2,-9,1,0,0,0,140,140,16,1,,,,,,,,
,,,,,,,,,,,,,FF,,,,,,,,1.283,,,,,,,,,,,,,,,,,,,,,,60fd6537ec893eee4eb8c3eb,61036a4ba0280fce27023e4f,2021-07-29_22h56.49.400,Simcolourproject_2stim_asymm_v5,2020.2.10,MacIntel,60,61025ae37ef11b136ea224fe,,,,,,,,,2147,25,44,1,0,0,response1disk,,7,2,3,1,0,0,rectangle,2,3,1,0,0,2,3,1,0,0,0,141,141,70,1,,,,,,,,
,,,,,,,,,,,,,FF,,,,,,,,0.75,,,,,,,,,,,,,,,,,,,,,,60fd6537ec893eee4eb8c3eb,61036a4ba0280fce27023e4f,2021-07-29_22h56.49.400,Simcolourproject_2stim_asymm_v5,2020.2.10,MacIntel,60,61025ae37ef11b136ea224fe,,,,,,,,,991,36,19,1,0,0,response1disk,,6,11,-1,1,0,0,rectangle,11,-1,1,0,0,11,-1,1,0,0,0,142,142,37,1,,,,,,,,
,,,,,,,,,,,,,FF,,,,,,,,1.334,,,,,,,,,,,,,,,,,,,,,,60fd6537ec893eee4eb8c3eb,61036a4ba0280fce27023e4f,2021-07-29_22h56.49.400,Simcolourproject_2stim_asymm_v5,2020.2.10,MacIntel,60,61025ae37ef11b136ea224fe,,,,,,,,,1642,16,40,1,0,0,response1disk,,7,7,8,1,0,0,rectangle,7,8,1,0,0,7,8,1,0,0,0,143,143,47,1,,,,,,,,
,,,,,,,,,,,,,FF,,,,,,,,1.017,,,,,,,,,,,,,,,,,,,,,,60fd6537ec893eee4eb8c3eb,61036a4ba0280fce27023e4f,2021-07-29_22h56.49.400,Simcolourproject_2stim_asymm_v5,2020.2.10,MacIntel,60,61025ae37ef11b136ea224fe,,,,,,,,,284,44,-23,1,0,0,response3disk,,5,-3,-6,1,0,0,rectangle,-3,-6,1,0,0,-3,-6,1,0,0,0,144,144,2,1,,,,,,,,
,,,,,,,,,,,,,FF,,,,,,,,0.817,,,,,,,,,,,,,,,,,,,,,,60fd6537ec893eee4eb8c3eb,61036a4ba0280fce27023e4f,2021-07-29_22h56.49.400,Simcolourproject_2stim_asymm_v5,2020.2.10,MacIntel,60,61025ae37ef11b136ea224fe,,,,,,,,,3157,18,-41,1,0,0,response3disk,,4,3,-8,1,0,0,rectangle,3,-8,1,0,0,3,-8,1,0,0,0,145,145,154,1,,,,,,,,
,,,,,,,,,,,,,FF,,,,,,,,1.083,,,,,,,,,,,,,,,,,,,,,,60fd6537ec893eee4eb8c3eb,61036a4ba0280fce27023e4f,2021-07-29_22h56.49.400,Simcolourproject_2stim_asymm_v5,2020.2.10,MacIntel,60,61025ae37ef11b136ea224fe,,,,,,,,,2567,25,15,1,0,0,response1disk,,6,-3,5,1,0,0,rectangle,-3,5,1,0,0,-3,5,1,0,0,0,146,146,124,1,,,,,,,,
,,,,,,,,,,,,,FF,,,,,,,,1.55,,,,,,,,,,,,,,,,,,,,,,60fd6537ec893eee4eb8c3eb,61036a4ba0280fce27023e4f,2021-07-29_22h56.49.400,Simcolourproject_2stim_asymm_v5,2020.2.10,MacIntel,60,61025ae37ef11b136ea224fe,,,,,,,,,624,18,27,1,0,0,response1disk,,7,-6,6,1,0,0,rectangle,-6,6,1,0,0,-6,6,1,0,0,0,147,147,69,1,,,,,,,,
,,,,,,,,,,,,,FF,,,,,,,,0.951,,,,,,,,,,,,,,,,,,,,,,60fd6537ec893eee4eb8c3eb,61036a4ba0280fce27023e4f,2021-07-29_22h56.49.400,Simcolourproject_2stim_asymm_v5,2020.2.10,MacIntel,60,61025ae37ef11b136ea224fe,,,,,,,,,2665,34,-28,1,0,0,response3disk,,5,3,-6,1,0,0,rectangle,3,-6,1,0,0,3,-6,1,0,0,0,148,148,159,1,,,,,,,,
,,,,,,,,,,,,,FF,,,,,,,,1.133,,,,,,,,,,,,,,,,,,,,,,60fd6537ec893eee4eb8c3eb,61036a4ba0280fce27023e4f,2021-07-29_22h56.49.400,Simcolourproject_2stim_asymm_v5,2020.2.10,MacIntel,60,61025ae37ef11b136ea224fe,,,,,,,,,3648,17,34,1,0,0,response1disk,,7,-1,14,1,0,0,rectangle,-1,14,1,0,0,-1,14,1,0,0,0,149,149,110,1,,,,,,,,
,,,,,,,,,,,,,FF,,,,,,,,1.233,,,,,,,,,,,,,,,,,,,,,,60fd6537ec893eee4eb8c3eb,61036a4ba0280fce27023e4f,2021-07-29_22h56.49.400,Simcolourproject_2stim_asymm_v5,2020.2.10,MacIntel,60,61025ae37ef11b136ea224fe,,,,,,,,,3766,20,37,1,0,0,response1disk,,7,-1,2,1,0,0,rectangle,-1,2,1,0,0,-1,2,1,0,0,0,150,150,55,1,,,,,,,,
,,,,,,,,,,,,,FF,,,,,,,,1.684,,,,,,,,,,,,,,,,,,,,,,60fd6537ec893eee4eb8c3eb,61036a4ba0280fce27023e4f,2021-07-29_22h56.49.400,Simcolourproject_2stim_asymm_v5,2020.2.10,MacIntel,60,61025ae37ef11b136ea224fe,,,,,,,,,1068,44,21,1,0,0,response1disk,,6,3,2,1,0,0,rectangle,3,2,1,0,0,3,2,1,0,0,0,151,151,115,1,,,,,,,,
,,,,,,,,,,,,,FF,,,,,,,,1.312,,,,,,,,,,,,,,,,,,,,,,60fd6537ec893eee4eb8c3eb,61036a4ba0280fce27023e4f,2021-07-29_22h56.49.400,Simcolourproject_2stim_asymm_v5,2020.2.10,MacIntel,60,61025ae37ef11b136ea224fe,,,,,,,,,1736,39,16,1,0,0,response1disk,,6,7,7,1,0,0,rectangle,7,7,1,0,0,7,7,1,0,0,0,152,152,96,1,,,,,,,,
,,,,,,,,,,,,,FF,,,,,,,,1.054,,,,,,,,,,,,,,,,,,,,,,60fd6537ec893eee4eb8c3eb,61036a4ba0280fce27023e4f,2021-07-29_22h56.49.400,Simcolourproject_2stim_asymm_v5,2020.2.10,MacIntel,60,61025ae37ef11b136ea224fe,,,,,,,,,632,22,-42,1,0,0,response3disk,,4,11,-3,1,0,0,rectangle,11,-3,1,0,0,11,-3,1,0,0,0,153,153,91,1,,,,,,,,
,,,,,,,,,,,,,FF,,,,,,,,1.417,,,,,,,,,,,,,,,,,,,,,,60fd6537ec893eee4eb8c3eb,61036a4ba0280fce27023e4f,2021-07-29_22h56.49.400,Simcolourproject_2stim_asymm_v5,2020.2.10,MacIntel,60,61025ae37ef11b136ea224fe,,,,,,,,,2314,38,12,1,0,0,response1disk,,6,12,9,1,0,0,rectangle,12,9,1,0,0,12,9,1,0,0,0,154,154,99,1,,,,,,,,
,,,,,,,,,,,,,FF,,,,,,,,0.933,,,,,,,,,,,,,,,,,,,,,,60fd6537ec893eee4eb8c3eb,61036a4ba0280fce27023e4f,2021-07-29_22h56.49.400,Simcolourproject_2stim_asymm_v5,2020.2.10,MacIntel,60,61025ae37ef11b136ea224fe,,,,,,,,,1395,13,40,1,0,0,response1disk,,7,2,10,1,0,0,rectangle,2,10,1,0,0,2,10,1,0,0,0,155,155,85,1,,,,,,,,
,,,,,,,,,,,,,FF,,,,,,,,1.116,,,,,,,,,,,,,,,,,,,,,,60fd6537ec893eee4eb8c3eb,61036a4ba0280fce27023e4f,2021-07-29_22h56.49.400,Simcolourproject_2stim_asymm_v5,2020.2.10,MacIntel,60,61025ae37ef11b136ea224fe,,,,,,,,,915,46,25,1,0,0,response1disk,,6,7,4,1,0,0,rectangle,7,4,1,0,0,7,4,1,0,0,0,156,156,15,1,,,,,,,,
,,,,,,,,,,,,,FF,,,,,,,,2.717,,,,,,,,,,,,,,,,,,,,,,60fd6537ec893eee4eb8c3eb,61036a4ba0280fce27023e4f,2021-07-29_22h56.49.400,Simcolourproject_2stim_asymm_v5,2020.2.10,MacIntel,60,61025ae37ef11b136ea224fe,,,,,,,,,1617,22,-15,1,0,0,response3disk,,5,2,-5,1,0,0,rectangle,2,-5,1,0,0,2,-5,1,0,0,0,157,157,140,1,,,,,,,,
,,,,,,,,,,,,,FF,,,,,,,,1.283,,,,,,,,,,,,,,,,,,,,,,60fd6537ec893eee4eb8c3eb,61036a4ba0280fce27023e4f,2021-07-29_22h56.49.400,Simcolourproject_2stim_asymm_v5,2020.2.10,MacIntel,60,61025ae37ef11b136ea224fe,,,,,,,,,2638,23,46,1,0,0,response1disk,,7,-1,7,1,0,0,rectangle,-1,7,1,0,0,-1,7,1,0,0,0,158,158,145,1,,,,,,,,
,,,,,,,,,,,,,FF,,,,,,,,0.833,,,,,,,,,,,,,,,,,,,,,,60fd6537ec893eee4eb8c3eb,61036a4ba0280fce27023e4f,2021-07-29_22h56.49.400,Simcolourproject_2stim_asymm_v5,2020.2.10,MacIntel,60,61025ae37ef11b136ea224fe,,,,,,,,,1155,19,36,1,0,0,response1disk,,7,-4,1,1,0,0,rectangle,-4,1,1,0,0,-4,1,1,0,0,0,159,159,67,1,,,,,,,,
,,,,,,,,,,,,,FF,,,,,,,,0.8,,,,,,,,,,,,,,,,,,,,,,60fd6537ec893eee4eb8c3eb,61036a4ba0280fce27023e4f,2021-07-29_22h56.49.400,Simcolourproject_2stim_asymm_v5,2020.2.10,MacIntel,60,61025ae37ef11b136ea224fe,,,,,,,,,1633,19,34,1,0,0,response1disk,,7,7,8,1,0,0,rectangle,7,8,1,0,0,7,8,1,0,0,1,0,160,73,1,,,,,,,,
,,,,,,,,,,,,,FF,,,,,,,,1.033,,,,,,,,,,,,,,,,,,,,,,60fd6537ec893eee4eb8c3eb,61036a4ba0280fce27023e4f,2021-07-29_22h56.49.400,Simcolourproject_2stim_asymm_v5,2020.2.10,MacIntel,60,61025ae37ef11b136ea224fe,,,,,,,,,2496,40,18,1,0,0,response1disk,,6,4,12,1,0,0,rectangle,4,12,1,0,0,4,12,1,0,0,1,1,161,17,1,,,,,,,,
,,,,,,,,,,,,,FF,,,,,,,,1.449,,,,,,,,,,,,,,,,,,,,,,60fd6537ec893eee4eb8c3eb,61036a4ba0280fce27023e4f,2021-07-29_22h56.49.400,Simcolourproject_2stim_asymm_v5,2020.2.10,MacIntel,60,61025ae37ef11b136ea224fe,,,,,,,,,3952,47,-14,1,0,0,response3disk,,5,10,-6,1,0,0,rectangle,10,-6,1,0,0,10,-6,1,0,0,1,2,162,34,1,,,,,,,,
,,,,,,,,,,,,,FF,,,,,,,,0.866,,,,,,,,,,,,,,,,,,,,,,60fd6537ec893eee4eb8c3eb,61036a4ba0280fce27023e4f,2021-07-29_22h56.49.400,Simcolourproject_2stim_asymm_v5,2020.2.10,MacIntel,60,61025ae37ef11b136ea224fe,,,,,,,,,6,31,14,1,0,0,response1disk,,6,6,-6,1,0,0,rectangle,6,-6,1,0,0,6,-6,1,0,0,1,3,163,131,1,,,,,,,,
,,,,,,,,,,,,,FF,,,,,,,,1.133,,,,,,,,,,,,,,,,,,,,,,60fd6537ec893eee4eb8c3eb,61036a4ba0280fce27023e4f,2021-07-29_22h56.49.400,Simcolourproject_2stim_asymm_v5,2020.2.10,MacIntel,60,61025ae37ef11b136ea224fe,,,,,,,,,1812,27,-42,1,0,0,response3disk,,4,5,-7,1,0,0,rectangle,5,-7,1,0,0,5,-7,1,0,0,1,4,164,124,1,,,,,,,,
,,,,,,,,,,,,,FF,,,,,,,,1.134,,,,,,,,,,,,,,,,,,,,,,60fd6537ec893eee4eb8c3eb,61036a4ba0280fce27023e4f,2021-07-29_22h56.49.400,Simcolourproject_2stim_asymm_v5,2020.2.10,MacIntel,60,61025ae37ef11b136ea224fe,,,,,,,,,2327,36,21,1,0,0,response1disk,,6,5,5,1,0,0,rectangle,5,5,1,0,0,5,5,1,0,0,1,5,165,117,1,,,,,,,,
,,,,,,,,,,,,,FF,,,,,,,,3.433,,,,,,,,,,,,,,,,,,,,,,60fd6537ec893eee4eb8c3eb,61036a4ba0280fce27023e4f,2021-07-29_22h56.49.400,Simcolourproject_2stim_asymm_v5,2020.2.10,MacIntel,60,61025ae37ef11b136ea224fe,,,,,,,,,1955,39,16,1,0,0,response1disk,,6,11,5,1,0,0,rectangle,11,5,1,0,0,11,5,1,0,0,1,6,166,130,1,,,,,,,,
,,,,,,,,,,,,,FF,,,,,,,,1.032,,,,,,,,,,,,,,,,,,,,,,60fd6537ec893eee4eb8c3eb,61036a4ba0280fce27023e4f,2021-07-29_22h56.49.400,Simcolourproject_2stim_asymm_v5,2020.2.10,MacIntel,60,61025ae37ef11b136ea224fe,,,,,,,,,2554,36,19,1,0,0,response1disk,,6,6,9,1,0,0,rectangle,-45,21,1,0,0,-16,10,1,0,0,1,7,167,75,1,,response7disk_3,TRUE,1,1,"[168,259,316,168,124,181,174,213,217,84,22,10,187,196,188,235,222,208,293,234]",1.382,rectangle
,,,,,,,,,,,,,FF,,,,,,,,1.115,,,,,,,,,,,,,,,,,,,,,,60fd6537ec893eee4eb8c3eb,61036a4ba0280fce27023e4f,2021-07-29_22h56.49.400,Simcolourproject_2stim_asymm_v5,2020.2.10,MacIntel,60,61025ae37ef11b136ea224fe,,,,,,,,,2055,36,-18,1,0,0,response3disk,,5,12,-9,1,0,0,rectangle,12,-9,1,0,0,12,-9,1,0,0,1,8,168,97,1,,,,,,,,
,,,,,,,,,,,,,FF,,,,,,,,1.1,,,,,,,,,,,,,,,,,,,,,,60fd6537ec893eee4eb8c3eb,61036a4ba0280fce27023e4f,2021-07-29_22h56.49.400,Simcolourproject_2stim_asymm_v5,2020.2.10,MacIntel,60,61025ae37ef11b136ea224fe,,,,,,,,,782,31,-12,1,0,0,response3disk,,5,7,-1,1,0,0,rectangle,7,-1,1,0,0,7,-1,1,0,0,1,9,169,140,1,,,,,,,,
,,,,,,,,,,,,,FF,,,,,,,,1.434,,,,,,,,,,,,,,,,,,,,,,60fd6537ec893eee4eb8c3eb,61036a4ba0280fce27023e4f,2021-07-29_22h56.49.400,Simcolourproject_2stim_asymm_v5,2020.2.10,MacIntel,60,61025ae37ef11b136ea224fe,,,,,,,,,2543,45,-20,1,0,0,response3disk,,5,9,-4,1,0,0,rectangle,9,-4,1,0,0,9,-4,1,0,0,1,10,170,54,1,,,,,,,,
,,,,,,,,,,,,,FF,,,,,,,,1.399,,,,,,,,,,,,,,,,,,,,,,60fd6537ec893eee4eb8c3eb,61036a4ba0280fce27023e4f,2021-07-29_22h56.49.400,Simcolourproject_2stim_asymm_v5,2020.2.10,MacIntel,60,61025ae37ef11b136ea224fe,,,,,,,,,3131,26,38,1,0,0,response1disk,,7,8,4,1,0,0,rectangle,8,4,1,0,0,8,4,1,0,0,1,11,171,68,1,,,,,,,,
,,,,,,,,,,,,,FF,,,,,,,,0.951,,,,,,,,,,,,,,,,,,,,,,60fd6537ec893eee4eb8c3eb,61036a4ba0280fce27023e4f,2021-07-29_22h56.49.400,Simcolourproject_2stim_asymm_v5,2020.2.10,MacIntel,60,61025ae37ef11b136ea224fe,,,,,,,,,2068,41,17,1,0,0,response1disk,,6,10,7,1,0,0,rectangle,10,7,1,0,0,10,7,1,0,0,1,12,172,88,1,,,,,,,,
,,,,,,,,,,,,,FF,,,,,,,,1.482,,,,,,,,,,,,,,,,,,,,,,60fd6537ec893eee4eb8c3eb,61036a4ba0280fce27023e4f,2021-07-29_22h56.49.400,Simcolourproject_2stim_asymm_v5,2020.2.10,MacIntel,60,61025ae37ef11b136ea224fe,,,,,,,,,512,20,45,1,0,0,response1disk,,7,4,12,1,0,0,rectangle,44,-26,1,0,0,2,1,1,0,0,1,13,173,156,1,,response3disk_3,TRUE,5,5,"[168,259,316,168,124,181,174,213,217,84,22,10,187,196,188,235,222,208,293,234]",2.334,rectangle
,,,,,,,,,,,,,FF,,,,,,,,1.816,,,,,,,,,,,,,,,,,,,,,,60fd6537ec893eee4eb8c3eb,61036a4ba0280fce27023e4f,2021-07-29_22h56.49.400,Simcolourproject_2stim_asymm_v5,2020.2.10,MacIntel,60,61025ae37ef11b136ea224fe,,,,,,,,,4358,23,-27,1,0,0,response3disk,,4,0,5,1,0,0,rectangle,0,5,1,0,0,0,5,1,0,0,1,14,174,136,1,,,,,,,,
,,,,,,,,,,,,,FF,,,,,,,,1.184,,,,,,,,,,,,,,,,,,,,,,60fd6537ec893eee4eb8c3eb,61036a4ba0280fce27023e4f,2021-07-29_22h56.49.400,Simcolourproject_2stim_asymm_v5,2020.2.10,MacIntel,60,61025ae37ef11b136ea224fe,,,,,,,,,2696,11,31,1,0,0,response1disk,,7,8,10,1,0,0,rectangle,8,10,1,0,0,8,10,1,0,0,1,15,175,93,1,,,,,,,,
,,,,,,,,,,,,,FF,,,,,,,,1.183,,,,,,,,,,,,,,,,,,,,,,60fd6537ec893eee4eb8c3eb,61036a4ba0280fce27023e4f,2021-07-29_22h56.49.400,Simcolourproject_2stim_asymm_v5,2020.2.10,MacIntel,60,61025ae37ef11b136ea224fe,,,,,,,,,1503,27,20,1,0,0,response1disk,,6,7,12,1,0,0,rectangle,7,12,1,0,0,7,12,1,0,0,1,16,176,114,1,,,,,,,,
,,,,,,,,,,,,,FF,,,,,,,,1.149,,,,,,,,,,,,,,,,,,,,,,60fd6537ec893eee4eb8c3eb,61036a4ba0280fce27023e4f,2021-07-29_22h56.49.400,Simcolourproject_2stim_asymm_v5,2020.2.10,MacIntel,60,61025ae37ef11b136ea224fe,,,,,,,,,365,17,30,1,0,0,response1disk,,7,6,12,1,0,0,rectangle,6,12,1,0,0,6,12,1,0,0,1,17,177,105,1,,,,,,,,
,,,,,,,,,,,,,FF,,,,,,,,1.2,,,,,,,,,,,,,,,,,,,,,,60fd6537ec893eee4eb8c3eb,61036a4ba0280fce27023e4f,2021-07-29_22h56.49.400,Simcolourproject_2stim_asymm_v5,2020.2.10,MacIntel,60,61025ae37ef11b136ea224fe,,,,,,,,,179,22,38,1,0,0,response1disk,,7,-1,4,1,0,0,rectangle,-1,4,1,0,0,-1,4,1,0,0,1,18,178,28,1,,,,,,,,
,,,,,,,,,,,,,FF,,,,,,,,0.951,,,,,,,,,,,,,,,,,,,,,,60fd6537ec893eee4eb8c3eb,61036a4ba0280fce27023e4f,2021-07-29_22h56.49.400,Simcolourproject_2stim_asymm_v5,2020.2.10,MacIntel,60,61025ae37ef11b136ea224fe,,,,,,,,,2414,47,24,1,0,0,response1disk,,6,7,-5,1,0,0,rectangle,7,-5,1,0,0,7,-5,1,0,0,1,19,179,120,1,,,,,,,,
,,,,,,,,,,,,,FF,,,,,,,,1.584,,,,,,,,,,,,,,,,,,,,,,60fd6537ec893eee4eb8c3eb,61036a4ba0280fce27023e4f,2021-07-29_22h56.49.400,Simcolourproject_2stim_asymm_v5,2020.2.10,MacIntel,60,61025ae37ef11b136ea224fe,,,,,,,,,271,44,16,1,0,0,response1disk,,6,-1,-3,1,0,0,rectangle,-57,12,1,0,0,2,8,1,0,0,1,20,180,25,1,,response7disk_3,TRUE,1,1,"[168,259,316,168,124,181,174,213,217,84,22,10,187,196,188,235,222,208,293,234]",1.55,rectangle
,,,,,,,,,,,,,FF,,,,,,,,1.416,,,,,,,,,,,,,,,,,,,,,,60fd6537ec893eee4eb8c3eb,61036a4ba0280fce27023e4f,2021-07-29_22h56.49.400,Simcolourproject_2stim_asymm_v5,2020.2.10,MacIntel,60,61025ae37ef11b136ea224fe,,,,,,,,,4339,34,21,1,0,0,response1disk,,6,1,3,1,0,0,rectangle,1,3,1,0,0,1,3,1,0,0,1,21,181,50,1,,,,,,,,
,,,,,,,,,,,,,FF,,,,,,,,1.833,,,,,,,,,,,,,,,,,,,,,,60fd6537ec893eee4eb8c3eb,61036a4ba0280fce27023e4f,2021-07-29_22h56.49.400,Simcolourproject_2stim_asymm_v5,2020.2.10,MacIntel,60,61025ae37ef11b136ea224fe,,,,,,,,,857,19,40,1,0,0,response1disk,,7,1,3,1,0,0,rectangle,1,3,1,0,0,1,3,1,0,0,1,22,182,106,1,,,,,,,,
,,,,,,,,,,,,,FF,,,,,,,,1.833,,,,,,,,,,,,,,,,,,,,,,60fd6537ec893eee4eb8c3eb,61036a4ba0280fce27023e4f,2021-07-29_22h56.49.400,Simcolourproject_2stim_asymm_v5,2020.2.10,MacIntel,60,61025ae37ef11b136ea224fe,,,,,,,,,235,42,22,1,0,0,response1disk,,6,6,3,1,0,0,rectangle,6,3,1,0,0,6,3,1,0,0,1,23,183,146,1,,,,,,,,
,,,,,,,,,,,,,FF,,,,,,,,1.133,,,,,,,,,,,,,,,,,,,,,,60fd6537ec893eee4eb8c3eb,61036a4ba0280fce27023e4f,2021-07-29_22h56.49.400,Simcolourproject_2stim_asymm_v5,2020.2.10,MacIntel,60,61025ae37ef11b136ea224fe,,,,,,,,,1709,17,42,1,0,0,response1disk,,7,1,13,1,0,0,rectangle,1,13,1,0,0,1,13,1,0,0,1,24,184,123,1,,,,,,,,
,,,,,,,,,,,,,FF,,,,,,,,1.448,,,,,,,,,,,,,,,,,,,,,,60fd6537ec893eee4eb8c3eb,61036a4ba0280fce27023e4f,2021-07-29_22h56.49.400,Simcolourproject_2stim_asymm_v5,2020.2.10,MacIntel,60,61025ae37ef11b136ea224fe,,,,,,,,,2197,35,29,1,0,0,response1disk,,6,3,7,1,0,0,rectangle,3,7,1,0,0,3,7,1,0,0,1,25,185,159,1,,,,,,,,
,,,,,,,,,,,,,FF,,,,,,,,1.815,,,,,,,,,,,,,,,,,,,,,,60fd6537ec893eee4eb8c3eb,61036a4ba0280fce27023e4f,2021-07-29_22h56.49.400,Simcolourproject_2stim_asymm_v5,2020.2.10,MacIntel,60,61025ae37ef11b136ea224fe,,,,,,,,,308,44,24,1,0,0,response1disk,,6,-3,3,1,0,0,rectangle,-24,39,1,0,0,-8,2,1,0,0,1,26,186,13,1,,response7disk_3,TRUE,0,0,"[168,259,316,168,124,181,174,213,217,84,22,10,187,196,188,235,222,208,293,234]",1.633,rectangle
,,,,,,,,,,,,,FF,,,,,,,,1.285,,,,,,,,,,,,,,,,,,,,,,60fd6537ec893eee4eb8c3eb,61036a4ba0280fce27023e4f,2021-07-29_22h56.49.400,Simcolourproject_2stim_asymm_v5,2020.2.10,MacIntel,60,61025ae37ef11b136ea224fe,,,,,,,,,4253,-18,-42,1,0,0,response5disk,,3,-9,-3,1,0,0,rectangle,-46,16,1,0,0,-3,3,1,0,0,1,27,187,91,1,,response7disk_3,TRUE,1,1,"[168,259,316,168,124,181,174,213,217,84,22,10,187,196,188,235,222,208,293,234]",1.599,rectangle
,,,,,,,,,,,,,FF,,,,,,,,2.783,,,,,,,,,,,,,,,,,,,,,,60fd6537ec893eee4eb8c3eb,61036a4ba0280fce27023e4f,2021-07-29_22h56.49.400,Simcolourproject_2stim_asymm_v5,2020.2.10,MacIntel,60,61025ae37ef11b136ea224fe,,,,,,,,,4360,17,-34,1,0,0,response3disk,,4,4,7,1,0,0,rectangle,4,7,1,0,0,4,7,1,0,0,1,28,188,90,1,,,,,,,,
,,,,,,,,,,,,,FF,,,,,,,,1.033,,,,,,,,,,,,,,,,,,,,,,60fd6537ec893eee4eb8c3eb,61036a4ba0280fce27023e4f,2021-07-29_22h56.49.400,Simcolourproject_2stim_asymm_v5,2020.2.10,MacIntel,60,61025ae37ef11b136ea224fe,,,,,,,,,2882,39,-17,1,0,0,response3disk,,5,-1,5,1,0,0,rectangle,-1,5,1,0,0,-1,5,1,0,0,1,29,189,52,1,,,,,,,,
,,,,,,,,,,,,,FF,,,,,,,,0.915,,,,,,,,,,,,,,,,,,,,,,60fd6537ec893eee4eb8c3eb,61036a4ba0280fce27023e4f,2021-07-29_22h56.49.400,Simcolourproject_2stim_asymm_v5,2020.2.10,MacIntel,60,61025ae37ef11b136ea224fe,,,,,,,,,1319,48,13,1,0,0,response1disk,,6,5,10,1,0,0,rectangle,5,10,1,0,0,5,10,1,0,0,1,30,190,118,1,,,,,,,,
,,,,,,,,,,,,,FF,,,,,,,,0.7,,,,,,,,,,,,,,,,,,,,,,60fd6537ec893eee4eb8c3eb,61036a4ba0280fce27023e4f,2021-07-29_22h56.49.400,Simcolourproject_2stim_asymm_v5,2020.2.10,MacIntel,60,61025ae37ef11b136ea224fe,,,,,,,,,2399,47,28,1,0,0,response1disk,,6,3,9,1,0,0,rectangle,3,9,1,0,0,3,9,1,0,0,1,31,191,139,1,,,,,,,,
,,,,,,,,,,,,,FF,,,,,,,,1.066,,,,,,,,,,,,,,,,,,,,,,60fd6537ec893eee4eb8c3eb,61036a4ba0280fce27023e4f,2021-07-29_22h56.49.400,Simcolourproject_2stim_asymm_v5,2020.2.10,MacIntel,60,61025ae37ef11b136ea224fe,,,,,,,,,3607,21,34,1,0,0,response1disk,,7,0,0,1,0,0,rectangle,0,0,1,0,0,0,0,1,0,0,1,32,192,62,1,,,,,,,,
,,,,,,,,,,,,,FF,,,,,,,,1.3,,,,,,,,,,,,,,,,,,,,,,60fd6537ec893eee4eb8c3eb,61036a4ba0280fce27023e4f,2021-07-29_22h56.49.400,Simcolourproject_2stim_asymm_v5,2020.2.10,MacIntel,60,61025ae37ef11b136ea224fe,,,,,,,,,4111,18,43,1,0,0,response1disk,,7,-2,9,1,0,0,rectangle,-2,9,1,0,0,-2,9,1,0,0,1,33,193,111,1,,,,,,,,
,,,,,,,,,,,,,FF,,,,,,,,1.333,,,,,,,,,,,,,,,,,,,,,,60fd6537ec893eee4eb8c3eb,61036a4ba0280fce27023e4f,2021-07-29_22h56.49.400,Simcolourproject_2stim_asymm_v5,2020.2.10,MacIntel,60,61025ae37ef11b136ea224fe,,,,,,,,,432,42,-33,1,0,0,response3disk,,5,4,7,1,0,0,rectangle,4,7,1,0,0,4,7,1,0,0,1,34,194,107,1,,,,,,,,
,,,,,,,,,,,,,FF,,,,,,,,1.384,,,,,,,,,,,,,,,,,,,,,,60fd6537ec893eee4eb8c3eb,61036a4ba0280fce27023e4f,2021-07-29_22h56.49.400,Simcolourproject_2stim_asymm_v5,2020.2.10,MacIntel,60,61025ae37ef11b136ea224fe,,,,,,,,,1214,10,-43,1,0,0,response3disk,,4,-2,2,1,0,0,rectangle,15,49,1,0,0,-6,4,1,0,0,1,35,195,119,1,,response1disk_3,TRUE,7,7,"[168,259,316,168,124,181,174,213,217,84,22,10,187,196,188,235,222,208,293,234]",2.117,rectangle
,,,,,,,,,,,,,FF,,,,,,,,1.249,,,,,,,,,,,,,,,,,,,,,,60fd6537ec893eee4eb8c3eb,61036a4ba0280fce27023e4f,2021-07-29_22h56.49.400,Simcolourproject_2stim_asymm_v5,2020.2.10,MacIntel,60,61025ae37ef11b136ea224fe,,,,,,,,,2125,15,46,1,0,0,response1disk,,7,1,3,1,0,0,rectangle,1,3,1,0,0,1,3,1,0,0,1,36,196,3,1,,,,,,,,
,,,,,,,,,,,,,FF,,,,,,,,0.849,,,,,,,,,,,,,,,,,,,,,,60fd6537ec893eee4eb8c3eb,61036a4ba0280fce27023e4f,2021-07-29_22h56.49.400,Simcolourproject_2stim_asymm_v5,2020.2.10,MacIntel,60,61025ae37ef11b136ea224fe,,,,,,,,,2556,46,23,1,0,0,response1disk,,6,5,8,1,0,0,rectangle,5,8,1,0,0,5,8,1,0,0,1,37,197,84,1,,,,,,,,
,,,,,,,,,,,,,FF,,,,,,,,0.999,,,,,,,,,,,,,,,,,,,,,,60fd6537ec893eee4eb8c3eb,61036a4ba0280fce27023e4f,2021-07-29_22h56.49.400,Simcolourproject_2stim_asymm_v5,2020.2.10,MacIntel,60,61025ae37ef11b136ea224fe,,,,,,,,,2715,42,-22,1,0,0,response3disk,,5,-3,-5,1,0,0,rectangle,-3,-5,1,0,0,-3,-5,1,0,0,1,38,198,14,1,,,,,,,,
,,,,,,,,,,,,,FF,,,,,,,,2.733,,,,,,,,,,,,,,,,,,,,,,60fd6537ec893eee4eb8c3eb,61036a4ba0280fce27023e4f,2021-07-29_22h56.49.400,Simcolourproject_2stim_asymm_v5,2020.2.10,MacIntel,60,61025ae37ef11b136ea224fe,,,,,,,,,2713,45,21,1,0,0,response1disk,,6,3,7,1,0,0,rectangle,3,7,1,0,0,3,7,1,0,0,1,39,199,116,1,,,,,,,,
,,,,,,,,,,,,,FF,,,,,,,,1.601,,,,,,,,,,,,,,,,,,,,,,60fd6537ec893eee4eb8c3eb,61036a4ba0280fce27023e4f,2021-07-29_22h56.49.400,Simcolourproject_2stim_asymm_v5,2020.2.10,MacIntel,60,61025ae37ef11b136ea224fe,,,,,,,,,4013,28,49,1,0,0,response1disk,,7,6,2,1,0,0,rectangle,6,2,1,0,0,6,2,1,0,0,1,40,200,127,1,,,,,,,,
,,,,,,,,,,,,,FF,,,,,,,,2.133,,,,,,,,,,,,,,,,,,,,,,60fd6537ec893eee4eb8c3eb,61036a4ba0280fce27023e4f,2021-07-29_22h56.49.400,Simcolourproject_2stim_asymm_v5,2020.2.10,MacIntel,60,61025ae37ef11b136ea224fe,,,,,,,,,409,36,18,1,0,0,response1disk,,6,5,11,1,0,0,rectangle,5,11,1,0,0,5,11,1,0,0,1,41,201,4,1,,,,,,,,
,,,,,,,,,,,,,FF,,,,,,,,1.416,,,,,,,,,,,,,,,,,,,,,,60fd6537ec893eee4eb8c3eb,61036a4ba0280fce27023e4f,2021-07-29_22h56.49.400,Simcolourproject_2stim_asymm_v5,2020.2.10,MacIntel,60,61025ae37ef11b136ea224fe,,,,,,,,,3085,18,41,1,0,0,response1disk,,7,-9,4,1,0,0,rectangle,-9,4,1,0,0,-9,4,1,0,0,1,42,202,9,1,,,,,,,,
,,,,,,,,,,,,,FF,,,,,,,,2.584,,,,,,,,,,,,,,,,,,,,,,60fd6537ec893eee4eb8c3eb,61036a4ba0280fce27023e4f,2021-07-29_22h56.49.400,Simcolourproject_2stim_asymm_v5,2020.2.10,MacIntel,60,61025ae37ef11b136ea224fe,,,,,,,,,1398,36,18,1,0,0,response1disk,,6,-1,-1,1,0,0,rectangle,-1,-1,1,0,0,-1,-1,1,0,0,1,43,203,85,1,,,,,,,,
,,,,,,,,,,,,,FF,,,,,,,,0.966,,,,,,,,,,,,,,,,,,,,,,60fd6537ec893eee4eb8c3eb,61036a4ba0280fce27023e4f,2021-07-29_22h56.49.400,Simcolourproject_2stim_asymm_v5,2020.2.10,MacIntel,60,61025ae37ef11b136ea224fe,,,,,,,,,3278,24,44,1,0,0,response1disk,,7,2,-1,1,0,0,rectangle,2,-1,1,0,0,2,-1,1,0,0,1,44,204,96,1,,,,,,,,
,,,,,,,,,,,,,FF,,,,,,,,0.966,,,,,,,,,,,,,,,,,,,,,,60fd6537ec893eee4eb8c3eb,61036a4ba0280fce27023e4f,2021-07-29_22h56.49.400,Simcolourproject_2stim_asymm_v5,2020.2.10,MacIntel,60,61025ae37ef11b136ea224fe,,,,,,,,,8,36,-13,1,0,0,response3disk,,5,-2,9,1,0,0,rectangle,-2,9,1,0,0,-2,9,1,0,0,1,45,205,47,1,,,,,,,,
,,,,,,,,,,,,,FF,,,,,,,,1.4,,,,,,,,,,,,,,,,,,,,,,60fd6537ec893eee4eb8c3eb,61036a4ba0280fce27023e4f,2021-07-29_22h56.49.400,Simcolourproject_2stim_asymm_v5,2020.2.10,MacIntel,60,61025ae37ef11b136ea224fe,,,,,,,,,662,34,18,1,0,0,response1disk,,6,6,5,1,0,0,rectangle,6,5,1,0,0,6,5,1,0,0,1,46,206,129,1,,,,,,,,
,,,,,,,,,,,,,FF,,,,,,,,2.233,,,,,,,,,,,,,,,,,,,,,,60fd6537ec893eee4eb8c3eb,61036a4ba0280fce27023e4f,2021-07-29_22h56.49.400,Simcolourproject_2stim_asymm_v5,2020.2.10,MacIntel,60,61025ae37ef11b136ea224fe,,,,,,,,,2238,37,-18,1,0,0,response3disk,,5,-6,-2,1,0,0,rectangle,-21,48,1,0,0,-10,5,1,0,0,1,47,207,98,1,,response7disk_3,TRUE,0,0,"[168,259,316,168,124,181,174,213,217,84,22,10,187,196,188,235,222,208,293,234]",1.382,rectangle
,,,,,,,,,,,,,FF,,,,,,,,1.383,,,,,,,,,,,,,,,,,,,,,,60fd6537ec893eee4eb8c3eb,61036a4ba0280fce27023e4f,2021-07-29_22h56.49.400,Simcolourproject_2stim_asymm_v5,2020.2.10,MacIntel,60,61025ae37ef11b136ea224fe,,,,,,,,,699,46,-30,1,0,0,response3disk,,5,-4,-5,1,0,0,rectangle,-4,-5,1,0,0,-4,-5,1,0,0,1,48,208,66,1,,,,,,,,
,,,,,,,,,,,,,FF,,,,,,,,1.167,,,,,,,,,,,,,,,,,,,,,,60fd6537ec893eee4eb8c3eb,61036a4ba0280fce27023e4f,2021-07-29_22h56.49.400,Simcolourproject_2stim_asymm_v5,2020.2.10,MacIntel,60,61025ae37ef11b136ea224fe,,,,,,,,,3408,24,32,1,0,0,response1disk,,7,-1,3,1,0,0,rectangle,-1,3,1,0,0,-1,3,1,0,0,1,49,209,37,1,,,,,,,,
,,,,,,,,,,,,,FF,,,,,,,,0.968,,,,,,,,,,,,,,,,,,,,,,60fd6537ec893eee4eb8c3eb,61036a4ba0280fce27023e4f,2021-07-29_22h56.49.400,Simcolourproject_2stim_asymm_v5,2020.2.10,MacIntel,60,61025ae37ef11b136ea224fe,,,,,,,,,3093,15,-42,1,0,0,response3disk,,4,2,-3,1,0,0,rectangle,2,-3,1,0,0,2,-3,1,0,0,1,50,210,122,1,,,,,,,,
,,,,,,,,,,,,,FF,,,,,,,,0.932,,,,,,,,,,,,,,,,,,,,,,60fd6537ec893eee4eb8c3eb,61036a4ba0280fce27023e4f,2021-07-29_22h56.49.400,Simcolourproject_2stim_asymm_v5,2020.2.10,MacIntel,60,61025ae37ef11b136ea224fe,,,,,,,,,3446,42,-21,1,0,0,response3disk,,5,5,-9,1,0,0,rectangle,5,-9,1,0,0,5,-9,1,0,0,1,51,211,108,1,,,,,,,,
,,,,,,,,,,,,,FF,,,,,,,,1.25,,,,,,,,,,,,,,,,,,,,,,60fd6537ec893eee4eb8c3eb,61036a4ba0280fce27023e4f,2021-07-29_22h56.49.400,Simcolourproject_2stim_asymm_v5,2020.2.10,MacIntel,60,61025ae37ef11b136ea224fe,,,,,,,,,1052,-25,-49,1,0,0,response5disk,,3,-8,2,1,0,0,rectangle,-25,39,1,0,0,-10,7,1,0,0,1,52,212,135,1,,response7disk_3,TRUE,0,0,"[168,259,316,168,124,181,174,213,217,84,22,10,187,196,188,235,222,208,293,234]",1.315,rectangle
,,,,,,,,,,,,,FF,,,,,,,,1.099,,,,,,,,,,,,,,,,,,,,,,60fd6537ec893eee4eb8c3eb,61036a4ba0280fce27023e4f,2021-07-29_22h56.49.400,Simcolourproject_2stim_asymm_v5,2020.2.10,MacIntel,60,61025ae37ef11b136ea224fe,,,,,,,,,269,37,-17,1,0,0,response3disk,,5,-1,0,1,0,0,rectangle,-1,0,1,0,0,-1,0,1,0,0,1,53,213,63,1,,,,,,,,
,,,,,,,,,,,,,FF,,,,,,,,0.966,,,,,,,,,,,,,,,,,,,,,,60fd6537ec893eee4eb8c3eb,61036a4ba0280fce27023e4f,2021-07-29_22h56.49.400,Simcolourproject_2stim_asymm_v5,2020.2.10,MacIntel,60,61025ae37ef11b136ea224fe,,,,,,,,,2821,51,29,1,0,0,response1disk,,6,0,10,1,0,0,rectangle,0,10,1,0,0,0,10,1,0,0,1,54,214,7,1,,,,,,,,
,,,,,,,,,,,,,FF,,,,,,,,1.05,,,,,,,,,,,,,,,,,,,,,,60fd6537ec893eee4eb8c3eb,61036a4ba0280fce27023e4f,2021-07-29_22h56.49.400,Simcolourproject_2stim_asymm_v5,2020.2.10,MacIntel,60,61025ae37ef11b136ea224fe,,,,,,,,,2393,40,-20,1,0,0,response3disk,,5,-12,5,1,0,0,rectangle,-12,5,1,0,0,-12,5,1,0,0,1,55,215,126,1,,,,,,,,
,,,,,,,,,,,,,FF,,,,,,,,1.082,,,,,,,,,,,,,,,,,,,,,,60fd6537ec893eee4eb8c3eb,61036a4ba0280fce27023e4f,2021-07-29_22h56.49.400,Simcolourproject_2stim_asymm_v5,2020.2.10,MacIntel,60,61025ae37ef11b136ea224fe,,,,,,,,,3532,49,30,1,0,0,response1disk,,6,7,10,1,0,0,rectangle,38,-21,1,0,0,-9,2,1,0,0,1,56,216,36,1,,response3disk_3,TRUE,5,5,"[168,259,316,168,124,181,174,213,217,84,22,10,187,196,188,235,222,208,293,234]",2.182,rectangle
,,,,,,,,,,,,,FF,,,,,,,,1.434,,,,,,,,,,,,,,,,,,,,,,60fd6537ec893eee4eb8c3eb,61036a4ba0280fce27023e4f,2021-07-29_22h56.49.400,Simcolourproject_2stim_asymm_v5,2020.2.10,MacIntel,60,61025ae37ef11b136ea224fe,,,,,,,,,176,23,37,1,0,0,response1disk,,7,-2,-2,1,0,0,rectangle,-2,-2,1,0,0,-2,-2,1,0,0,1,57,217,152,1,,,,,,,,
,,,,,,,,,,,,,FF,,,,,,,,0.867,,,,,,,,,,,,,,,,,,,,,,60fd6537ec893eee4eb8c3eb,61036a4ba0280fce27023e4f,2021-07-29_22h56.49.400,Simcolourproject_2stim_asymm_v5,2020.2.10,MacIntel,60,61025ae37ef11b136ea224fe,,,,,,,,,2964,24,39,1,0,0,response1disk,,7,1,1,1,0,0,rectangle,1,1,1,0,0,1,1,1,0,0,1,58,218,149,1,,,,,,,,
,,,,,,,,,,,,,FF,,,,,,,,0.966,,,,,,,,,,,,,,,,,,,,,,60fd6537ec893eee4eb8c3eb,61036a4ba0280fce27023e4f,2021-07-29_22h56.49.400,Simcolourproject_2stim_asymm_v5,2020.2.10,MacIntel,60,61025ae37ef11b136ea224fe,,,,,,,,,1909,56,-31,1,0,0,response3disk,,5,2,-8,1,0,0,rectangle,2,-8,1,0,0,2,-8,1,0,0,1,59,219,151,1,,,,,,,,
,,,,,,,,,,,,,FF,,,,,,,,0.834,,,,,,,,,,,,,,,,,,,,,,60fd6537ec893eee4eb8c3eb,61036a4ba0280fce27023e4f,2021-07-29_22h56.49.400,Simcolourproject_2stim_asymm_v5,2020.2.10,MacIntel,60,61025ae37ef11b136ea224fe,,,,,,,,,3455,37,20,1,0,0,response1disk,,6,4,11,1,0,0,rectangle,4,11,1,0,0,4,11,1,0,0,1,60,220,80,1,,,,,,,,
,,,,,,,,,,,,,FF,,,,,,,,0.999,,,,,,,,,,,,,,,,,,,,,,60fd6537ec893eee4eb8c3eb,61036a4ba0280fce27023e4f,2021-07-29_22h56.49.400,Simcolourproject_2stim_asymm_v5,2020.2.10,MacIntel,60,61025ae37ef11b136ea224fe,,,,,,,,,3795,20,57,1,0,0,response1disk,,7,1,6,1,0,0,rectangle,-30,50,1,0,0,-8,11,1,0,0,1,61,221,100,1,,response7disk_3,TRUE,0,0,"[168,259,316,168,124,181,174,213,217,84,22,10,187,196,188,235,222,208,293,234]",1.233,rectangle
,,,,,,,,,,,,,FF,,,,,,,,3.182,,,,,,,,,,,,,,,,,,,,,,60fd6537ec893eee4eb8c3eb,61036a4ba0280fce27023e4f,2021-07-29_22h56.49.400,Simcolourproject_2stim_asymm_v5,2020.2.10,MacIntel,60,61025ae37ef11b136ea224fe,,,,,,,,,1054,25,-42,1,0,0,response3disk,,4,2,-8,1,0,0,rectangle,2,-8,1,0,0,2,-8,1,0,0,1,62,222,39,1,,,,,,,,
,,,,,,,,,,,,,FF,,,,,,,,1.315,,,,,,,,,,,,,,,,,,,,,,60fd6537ec893eee4eb8c3eb,61036a4ba0280fce27023e4f,2021-07-29_22h56.49.400,Simcolourproject_2stim_asymm_v5,2020.2.10,MacIntel,60,61025ae37ef11b136ea224fe,,,,,,,,,586,46,32,1,0,0,response1disk,,6,1,7,1,0,0,rectangle,1,7,1,0,0,1,7,1,0,0,1,63,223,8,1,,,,,,,,
,,,,,,,,,,,,,FF,,,,,,,,0.867,,,,,,,,,,,,,,,,,,,,,,60fd6537ec893eee4eb8c3eb,61036a4ba0280fce27023e4f,2021-07-29_22h56.49.400,Simcolourproject_2stim_asymm_v5,2020.2.10,MacIntel,60,61025ae37ef11b136ea224fe,,,,,,,,,2423,46,-23,1,0,0,response3disk,,5,-1,-5,1,0,0,rectangle,-1,-5,1,0,0,-1,-5,1,0,0,1,64,224,133,1,,,,,,,,
,,,,,,,,,,,,,FF,,,,,,,,1.25,,,,,,,,,,,,,,,,,,,,,,60fd6537ec893eee4eb8c3eb,61036a4ba0280fce27023e4f,2021-07-29_22h56.49.400,Simcolourproject_2stim_asymm_v5,2020.2.10,MacIntel,60,61025ae37ef11b136ea224fe,,,,,,,,,781,20,40,1,0,0,response1disk,,7,9,3,1,0,0,rectangle,9,3,1,0,0,9,3,1,0,0,1,65,225,12,1,,,,,,,,
,,,,,,,,,,,,,FF,,,,,,,,1.15,,,,,,,,,,,,,,,,,,,,,,60fd6537ec893eee4eb8c3eb,61036a4ba0280fce27023e4f,2021-07-29_22h56.49.400,Simcolourproject_2stim_asymm_v5,2020.2.10,MacIntel,60,61025ae37ef11b136ea224fe,,,,,,,,,4021,-43,-19,1,0,0,response5disk,,2,1,4,1,0,0,rectangle,1,4,1,0,0,1,4,1,0,0,1,66,226,38,1,,,,,,,,
,,,,,,,,,,,,,FF,,,,,,,,1.9,,,,,,,,,,,,,,,,,,,,,,60fd6537ec893eee4eb8c3eb,61036a4ba0280fce27023e4f,2021-07-29_22h56.49.400,Simcolourproject_2stim_asymm_v5,2020.2.10,MacIntel,60,61025ae37ef11b136ea224fe,,,,,,,,,2719,-16,-30,1,0,0,response5disk,,3,-12,-4,1,0,0,rectangle,-12,-4,1,0,0,-12,-4,1,0,0,1,67,227,41,1,,,,,,,,
,,,,,,,,,,,,,FF,,,,,,,,0.9,,,,,,,,,,,,,,,,,,,,,,60fd6537ec893eee4eb8c3eb,61036a4ba0280fce27023e4f,2021-07-29_22h56.49.400,Simcolourproject_2stim_asymm_v5,2020.2.10,MacIntel,60,61025ae37ef11b136ea224fe,,,,,,,,,2768,18,-38,1,0,0,response3disk,,4,6,-7,1,0,0,rectangle,6,-7,1,0,0,6,-7,1,0,0,1,68,228,5,1,,,,,,,,
,,,,,,,,,,,,,FF,,,,,,,,0.785,,,,,,,,,,,,,,,,,,,,,,60fd6537ec893eee4eb8c3eb,61036a4ba0280fce27023e4f,2021-07-29_22h56.49.400,Simcolourproject_2stim_asymm_v5,2020.2.10,MacIntel,60,61025ae37ef11b136ea224fe,,,,,,,,,528,40,-26,1,0,0,response3disk,,5,0,-9,1,0,0,rectangle,0,-9,1,0,0,0,-9,1,0,0,1,69,229,2,1,,,,,,,,
,,,,,,,,,,,,,FF,,,,,,,,0.933,,,,,,,,,,,,,,,,,,,,,,60fd6537ec893eee4eb8c3eb,61036a4ba0280fce27023e4f,2021-07-29_22h56.49.400,Simcolourproject_2stim_asymm_v5,2020.2.10,MacIntel,60,61025ae37ef11b136ea224fe,,,,,,,,,1279,37,8,1,0,0,response1disk,,6,11,4,1,0,0,rectangle,11,4,1,0,0,11,4,1,0,0,1,70,230,43,1,,,,,,,,
,,,,,,,,,,,,,FF,,,,,,,,1.283,,,,,,,,,,,,,,,,,,,,,,60fd6537ec893eee4eb8c3eb,61036a4ba0280fce27023e4f,2021-07-29_22h56.49.400,Simcolourproject_2stim_asymm_v5,2020.2.10,MacIntel,60,61025ae37ef11b136ea224fe,,,,,,,,,2170,37,-24,1,0,0,response3disk,,5,0,-4,1,0,0,rectangle,0,-4,1,0,0,0,-4,1,0,0,1,71,231,71,1,,,,,,,,
,,,,,,,,,,,,,FF,,,,,,,,1.833,,,,,,,,,,,,,,,,,,,,,,60fd6537ec893eee4eb8c3eb,61036a4ba0280fce27023e4f,2021-07-29_22h56.49.400,Simcolourproject_2stim_asymm_v5,2020.2.10,MacIntel,60,61025ae37ef11b136ea224fe,,,,,,,,,1145,-39,8,1,0,0,response7disk,,1,1,1,1,0,0,rectangle,1,1,1,0,0,1,1,1,0,0,1,72,232,102,1,,,,,,,,
,,,,,,,,,,,,,FF,,,,,,,,2.584,,,,,,,,,,,,,,,,,,,,,,60fd6537ec893eee4eb8c3eb,61036a4ba0280fce27023e4f,2021-07-29_22h56.49.400,Simcolourproject_2stim_asymm_v5,2020.2.10,MacIntel,60,61025ae37ef11b136ea224fe,,,,,,,,,1519,38,20,1,0,0,response1disk,,6,8,10,1,0,0,rectangle,-56,28,1,0,0,-10,9,1,0,0,1,73,233,134,1,,response7disk_3,TRUE,1,1,"[168,259,316,168,124,181,174,213,217,84,22,10,187,196,188,235,222,208,293,234]",1.281,rectangle
,,,,,,,,,,,,,FF,,,,,,,,1.832,,,,,,,,,,,,,,,,,,,,,,60fd6537ec893eee4eb8c3eb,61036a4ba0280fce27023e4f,2021-07-29_22h56.49.400,Simcolourproject_2stim_asymm_v5,2020.2.10,MacIntel,60,61025ae37ef11b136ea224fe,,,,,,,,,4345,-44,-17,1,0,0,response5disk,,2,-5,1,1,0,0,rectangle,11,33,1,0,0,-2,2,1,0,0,1,74,234,147,1,,response1disk_3,TRUE,7,7,"[168,259,316,168,124,181,174,213,217,84,22,10,187,196,188,235,222,208,293,234]",1.848,rectangle
,,,,,,,,,,,,,FF,,,,,,,,0.933,,,,,,,,,,,,,,,,,,,,,,60fd6537ec893eee4eb8c3eb,61036a4ba0280fce27023e4f,2021-07-29_22h56.49.400,Simcolourproject_2stim_asymm_v5,2020.2.10,MacIntel,60,61025ae37ef11b136ea224fe,,,,,,,,,1352,16,-34,1,0,0,response3disk,,4,2,1,1,0,0,rectangle,2,1,1,0,0,2,1,1,0,0,1,75,235,76,1,,,,,,,,
,,,,,,,,,,,,,FF,,,,,,,,1.683,,,,,,,,,,,,,,,,,,,,,,60fd6537ec893eee4eb8c3eb,61036a4ba0280fce27023e4f,2021-07-29_22h56.49.400,Simcolourproject_2stim_asymm_v5,2020.2.10,MacIntel,60,61025ae37ef11b136ea224fe,,,,,,,,,550,-43,-17,1,0,0,response5disk,,2,-7,5,1,0,0,rectangle,-7,5,1,0,0,-7,5,1,0,0,1,76,236,44,1,,,,,,,,
,,,,,,,,,,,,,FF,,,,,,,,1.433,,,,,,,,,,,,,,,,,,,,,,60fd6537ec893eee4eb8c3eb,61036a4ba0280fce27023e4f,2021-07-29_22h56.49.400,Simcolourproject_2stim_asymm_v5,2020.2.10,MacIntel,60,61025ae37ef11b136ea224fe,,,,,,,,,2126,47,22,1,0,0,response1disk,,6,8,7,1,0,0,rectangle,8,7,1,0,0,8,7,1,0,0,1,77,237,83,1,,,,,,,,
,,,,,,,,,,,,,FF,,,,,,,,1.467,,,,,,,,,,,,,,,,,,,,,,60fd6537ec893eee4eb8c3eb,61036a4ba0280fce27023e4f,2021-07-29_22h56.49.400,Simcolourproject_2stim_asymm_v5,2020.2.10,MacIntel,60,61025ae37ef11b136ea224fe,,,,,,,,,2072,34,-17,1,0,0,response3disk,,5,1,-5,1,0,0,rectangle,1,-5,1,0,0,1,-5,1,0,0,1,78,238,69,1,,,,,,,,
,,,,,,,,,,,,,FF,,,,,,,,1.15,,,,,,,,,,,,,,,,,,,,,,60fd6537ec893eee4eb8c3eb,61036a4ba0280fce27023e4f,2021-07-29_22h56.49.400,Simcolourproject_2stim_asymm_v5,2020.2.10,MacIntel,60,61025ae37ef11b136ea224fe,,,,,,,,,934,30,56,1,0,0,response1disk,,7,0,1,1,0,0,rectangle,0,1,1,0,0,0,1,1,0,0,1,79,239,67,1,,,,,,,,
,,,,,,,,,,,,,FF,,,,,,,,1.734,,,,,,,,,,,,,,,,,,,,,,60fd6537ec893eee4eb8c3eb,61036a4ba0280fce27023e4f,2021-07-29_22h56.49.400,Simcolourproject_2stim_asymm_v5,2020.2.10,MacIntel,60,61025ae37ef11b136ea224fe,,,,,,,,,3508,28,-44,1,0,0,response3disk,,4,5,-1,1,0,0,rectangle,5,-1,1,0,0,5,-1,1,0,0,1,80,240,121,1,,,,,,,,
,,,,,,,,,,,,,FF,,,,,,,,1.499,,,,,,,,,,,,,,,,,,,,,,60fd6537ec893eee4eb8c3eb,61036a4ba0280fce27023e4f,2021-07-29_22h56.49.400,Simcolourproject_2stim_asymm_v5,2020.2.10,MacIntel,60,61025ae37ef11b136ea224fe,,,,,,,,,2405,47,43,1,0,0,response1disk,,6,5,11,1,0,0,rectangle,5,11,1,0,0,5,11,1,0,0,1,81,241,150,1,,,,,,,,
,,,,,,,,,,,,,FF,,,,,,,,0.9,,,,,,,,,,,,,,,,,,,,,,60fd6537ec893eee4eb8c3eb,61036a4ba0280fce27023e4f,2021-07-29_22h56.49.400,Simcolourproject_2stim_asymm_v5,2020.2.10,MacIntel,60,61025ae37ef11b136ea224fe,,,,,,,,,121,24,45,1,0,0,response1disk,,7,3,9,1,0,0,rectangle,3,9,1,0,0,3,9,1,0,0,1,82,242,82,1,,,,,,,,
,,,,,,,,,,,,,FF,,,,,,,,0.834,,,,,,,,,,,,,,,,,,,,,,60fd6537ec893eee4eb8c3eb,61036a4ba0280fce27023e4f,2021-07-29_22h56.49.400,Simcolourproject_2stim_asymm_v5,2020.2.10,MacIntel,60,61025ae37ef11b136ea224fe,,,,,,,,,116,23,45,1,0,0,response1disk,,7,4,-2,1,0,0,rectangle,4,-2,1,0,0,4,-2,1,0,0,1,83,243,112,1,,,,,,,,
,,,,,,,,,,,,,FF,,,,,,,,1.351,,,,,,,,,,,,,,,,,,,,,,60fd6537ec893eee4eb8c3eb,61036a4ba0280fce27023e4f,2021-07-29_22h56.49.400,Simcolourproject_2stim_asymm_v5,2020.2.10,MacIntel,60,61025ae37ef11b136ea224fe,,,,,,,,,3609,20,47,1,0,0,response1disk,,7,3,6,1,0,0,rectangle,3,6,1,0,0,3,6,1,0,0,1,84,244,132,1,,,,,,,,
,,,,,,,,,,,,,FF,,,,,,,,1.1,,,,,,,,,,,,,,,,,,,,,,60fd6537ec893eee4eb8c3eb,61036a4ba0280fce27023e4f,2021-07-29_22h56.49.400,Simcolourproject_2stim_asymm_v5,2020.2.10,MacIntel,60,61025ae37ef11b136ea224fe,,,,,,,,,2358,26,-38,1,0,0,response3disk,,4,3,-8,1,0,0,rectangle,3,-8,1,0,0,3,-8,1,0,0,1,85,245,49,1,,,,,,,,
,,,,,,,,,,,,,FF,,,,,,,,1.3,,,,,,,,,,,,,,,,,,,,,,60fd6537ec893eee4eb8c3eb,61036a4ba0280fce27023e4f,2021-07-29_22h56.49.400,Simcolourproject_2stim_asymm_v5,2020.2.10,MacIntel,60,61025ae37ef11b136ea224fe,,,,,,,,,2823,46,13,1,0,0,response1disk,,6,-10,8,1,0,0,rectangle,-10,8,1,0,0,-10,8,1,0,0,1,86,246,143,1,,,,,,,,
,,,,,,,,,,,,,FF,,,,,,,,0.816,,,,,,,,,,,,,,,,,,,,,,60fd6537ec893eee4eb8c3eb,61036a4ba0280fce27023e4f,2021-07-29_22h56.49.400,Simcolourproject_2stim_asymm_v5,2020.2.10,MacIntel,60,61025ae37ef11b136ea224fe,,,,,,,,,2949,36,-19,1,0,0,response3disk,,5,5,-7,1,0,0,rectangle,5,-7,1,0,0,5,-7,1,0,0,1,87,247,103,1,,,,,,,,
,,,,,,,,,,,,,FF,,,,,,,,0.884,,,,,,,,,,,,,,,,,,,,,,60fd6537ec893eee4eb8c3eb,61036a4ba0280fce27023e4f,2021-07-29_22h56.49.400,Simcolourproject_2stim_asymm_v5,2020.2.10,MacIntel,60,61025ae37ef11b136ea224fe,,,,,,,,,2410,43,15,1,0,0,response1disk,,6,8,3,1,0,0,rectangle,8,3,1,0,0,8,3,1,0,0,1,88,248,95,1,,,,,,,,
,,,,,,,,,,,,,FF,,,,,,,,0.802,,,,,,,,,,,,,,,,,,,,,,60fd6537ec893eee4eb8c3eb,61036a4ba0280fce27023e4f,2021-07-29_22h56.49.400,Simcolourproject_2stim_asymm_v5,2020.2.10,MacIntel,60,61025ae37ef11b136ea224fe,,,,,,,,,3275,24,41,1,0,0,response1disk,,7,2,5,1,0,0,rectangle,2,5,1,0,0,2,5,1,0,0,1,89,249,55,1,,,,,,,,
,,,,,,,,,,,,,FF,,,,,,,,0.983,,,,,,,,,,,,,,,,,,,,,,60fd6537ec893eee4eb8c3eb,61036a4ba0280fce27023e4f,2021-07-29_22h56.49.400,Simcolourproject_2stim_asymm_v5,2020.2.10,MacIntel,60,61025ae37ef11b136ea224fe,,,,,,,,,4024,14,-33,1,0,0,response3disk,,4,-7,-1,1,0,0,rectangle,-7,-1,1,0,0,-7,-1,1,0,0,1,90,250,57,1,,,,,,,,
,,,,,,,,,,,,,FF,,,,,,,,0.883,,,,,,,,,,,,,,,,,,,,,,60fd6537ec893eee4eb8c3eb,61036a4ba0280fce27023e4f,2021-07-29_22h56.49.400,Simcolourproject_2stim_asymm_v5,2020.2.10,MacIntel,60,61025ae37ef11b136ea224fe,,,,,,,,,3060,35,-21,1,0,0,response3disk,,5,8,-1,1,0,0,rectangle,8,-1,1,0,0,8,-1,1,0,0,1,91,251,153,1,,,,,,,,
,,,,,,,,,,,,,FF,,,,,,,,1,,,,,,,,,,,,,,,,,,,,,,60fd6537ec893eee4eb8c3eb,61036a4ba0280fce27023e4f,2021-07-29_22h56.49.400,Simcolourproject_2stim_asymm_v5,2020.2.10,MacIntel,60,61025ae37ef11b136ea224fe,,,,,,,,,1871,20,31,1,0,0,response1disk,,7,3,0,1,0,0,rectangle,3,0,1,0,0,3,0,1,0,0,1,92,252,86,1,,,,,,,,
,,,,,,,,,,,,,FF,,,,,,,,0.966,,,,,,,,,,,,,,,,,,,,,,60fd6537ec893eee4eb8c3eb,61036a4ba0280fce27023e4f,2021-07-29_22h56.49.400,Simcolourproject_2stim_asymm_v5,2020.2.10,MacIntel,60,61025ae37ef11b136ea224fe,,,,,,,,,3916,41,-12,1,0,0,response3disk,,5,2,-1,1,0,0,rectangle,2,-1,1,0,0,2,-1,1,0,0,1,93,253,101,1,,,,,,,,
,,,,,,,,,,,,,FF,,,,,,,,0.801,,,,,,,,,,,,,,,,,,,,,,60fd6537ec893eee4eb8c3eb,61036a4ba0280fce27023e4f,2021-07-29_22h56.49.400,Simcolourproject_2stim_asymm_v5,2020.2.10,MacIntel,60,61025ae37ef11b136ea224fe,,,,,,,,,764,13,32,1,0,0,response1disk,,7,6,7,1,0,0,rectangle,6,7,1,0,0,6,7,1,0,0,1,94,254,113,1,,,,,,,,
,,,,,,,,,,,,,FF,,,,,,,,0.85,,,,,,,,,,,,,,,,,,,,,,60fd6537ec893eee4eb8c3eb,61036a4ba0280fce27023e4f,2021-07-29_22h56.49.400,Simcolourproject_2stim_asymm_v5,2020.2.10,MacIntel,60,61025ae37ef11b136ea224fe,,,,,,,,,675,18,40,1,0,0,response1disk,,7,0,3,1,0,0,rectangle,0,3,1,0,0,0,3,1,0,0,1,95,255,22,1,,,,,,,,
,,,,,,,,,,,,,FF,,,,,,,,0.899,,,,,,,,,,,,,,,,,,,,,,60fd6537ec893eee4eb8c3eb,61036a4ba0280fce27023e4f,2021-07-29_22h56.49.400,Simcolourproject_2stim_asymm_v5,2020.2.10,MacIntel,60,61025ae37ef11b136ea224fe,,,,,,,,,482,46,-13,1,0,0,response3disk,,5,3,-8,1,0,0,rectangle,3,-8,1,0,0,3,-8,1,0,0,1,96,256,81,1,,,,,,,,
,,,,,,,,,,,,,FF,,,,,,,,0.967,,,,,,,,,,,,,,,,,,,,,,60fd6537ec893eee4eb8c3eb,61036a4ba0280fce27023e4f,2021-07-29_22h56.49.400,Simcolourproject_2stim_asymm_v5,2020.2.10,MacIntel,60,61025ae37ef11b136ea224fe,,,,,,,,,3011,20,27,1,0,0,response1disk,,7,10,-2,1,0,0,rectangle,10,-2,1,0,0,10,-2,1,0,0,1,97,257,35,1,,,,,,,,
,,,,,,,,,,,,,FF,,,,,,,,0.817,,,,,,,,,,,,,,,,,,,,,,60fd6537ec893eee4eb8c3eb,61036a4ba0280fce27023e4f,2021-07-29_22h56.49.400,Simcolourproject_2stim_asymm_v5,2020.2.10,MacIntel,60,61025ae37ef11b136ea224fe,,,,,,,,,1261,19,37,1,0,0,response1disk,,7,7,10,1,0,0,rectangle,-31,-41,1,0,0,-4,2,1,0,0,1,98,258,70,1,,response5disk_3,TRUE,3,3,"[168,259,316,168,124,181,174,213,217,84,22,10,187,196,188,235,222,208,293,234]",1.533,rectangle
,,,,,,,,,,,,,FF,,,,,,,,0.767,,,,,,,,,,,,,,,,,,,,,,60fd6537ec893eee4eb8c3eb,61036a4ba0280fce27023e4f,2021-07-29_22h56.49.400,Simcolourproject_2stim_asymm_v5,2020.2.10,MacIntel,60,61025ae37ef11b136ea224fe,,,,,,,,,3946,30,11,1,0,0,response1disk,,6,1,1,1,0,0,rectangle,1,1,1,0,0,1,1,1,0,0,1,99,259,94,1,,,,,,,,
,,,,,,,,,,,,,FF,,,,,,,,0.798,,,,,,,,,,,,,,,,,,,,,,60fd6537ec893eee4eb8c3eb,61036a4ba0280fce27023e4f,2021-07-29_22h56.49.400,Simcolourproject_2stim_asymm_v5,2020.2.10,MacIntel,60,61025ae37ef11b136ea224fe,,,,,,,,,2465,19,42,1,0,0,response1disk,,7,3,6,1,0,0,rectangle,3,6,1,0,0,3,6,1,0,0,1,100,260,30,1,,,,,,,,
,,,,,,,,,,,,,FF,,,,,,,,0.933,,,,,,,,,,,,,,,,,,,,,,60fd6537ec893eee4eb8c3eb,61036a4ba0280fce27023e4f,2021-07-29_22h56.49.400,Simcolourproject_2stim_asymm_v5,2020.2.10,MacIntel,60,61025ae37ef11b136ea224fe,,,,,,,,,2397,25,53,1,0,0,response1disk,,7,6,1,1,0,0,rectangle,6,1,1,0,0,6,1,1,0,0,1,101,261,19,1,,,,,,,,
,,,,,,,,,,,,,FF,,,,,,,,1.15,,,,,,,,,,,,,,,,,,,,,,60fd6537ec893eee4eb8c3eb,61036a4ba0280fce27023e4f,2021-07-29_22h56.49.400,Simcolourproject_2stim_asymm_v5,2020.2.10,MacIntel,60,61025ae37ef11b136ea224fe,,,,,,,,,355,-32,-43,1,0,0,response5disk,,3,-14,3,1,0,0,rectangle,-14,3,1,0,0,-14,3,1,0,0,1,102,262,1,1,,,,,,,,
,,,,,,,,,,,,,FF,,,,,,,,1.048,,,,,,,,,,,,,,,,,,,,,,60fd6537ec893eee4eb8c3eb,61036a4ba0280fce27023e4f,2021-07-29_22h56.49.400,Simcolourproject_2stim_asymm_v5,2020.2.10,MacIntel,60,61025ae37ef11b136ea224fe,,,,,,,,,724,-28,-44,1,0,0,response5disk,,3,-16,-2,1,0,0,rectangle,-16,-2,1,0,0,-16,-2,1,0,0,1,103,263,23,1,,,,,,,,
,,,,,,,,,,,,,FF,,,,,,,,1.299,,,,,,,,,,,,,,,,,,,,,,60fd6537ec893eee4eb8c3eb,61036a4ba0280fce27023e4f,2021-07-29_22h56.49.400,Simcolourproject_2stim_asymm_v5,2020.2.10,MacIntel,60,61025ae37ef11b136ea224fe,,,,,,,,,4226,24,-41,1,0,0,response3disk,,4,1,-9,1,0,0,rectangle,1,-9,1,0,0,1,-9,1,0,0,1,104,264,142,1,,,,,,,,
,,,,,,,,,,,,,FF,,,,,,,,1.6,,,,,,,,,,,,,,,,,,,,,,60fd6537ec893eee4eb8c3eb,61036a4ba0280fce27023e4f,2021-07-29_22h56.49.400,Simcolourproject_2stim_asymm_v5,2020.2.10,MacIntel,60,61025ae37ef11b136ea224fe,,,,,,,,,3624,-42,-25,1,0,0,response5disk,,2,-4,-3,1,0,0,rectangle,-4,-3,1,0,0,-4,-3,1,0,0,1,105,265,89,1,,,,,,,,
,,,,,,,,,,,,,FF,,,,,,,,0.968,,,,,,,,,,,,,,,,,,,,,,60fd6537ec893eee4eb8c3eb,61036a4ba0280fce27023e4f,2021-07-29_22h56.49.400,Simcolourproject_2stim_asymm_v5,2020.2.10,MacIntel,60,61025ae37ef11b136ea224fe,,,,,,,,,410,19,-39,1,0,0,response3disk,,4,12,-4,1,0,0,rectangle,12,-4,1,0,0,12,-4,1,0,0,1,106,266,48,1,,,,,,,,
,,,,,,,,,,,,,FF,,,,,,,,1.2,,,,,,,,,,,,,,,,,,,,,,60fd6537ec893eee4eb8c3eb,61036a4ba0280fce27023e4f,2021-07-29_22h56.49.400,Simcolourproject_2stim_asymm_v5,2020.2.10,MacIntel,60,61025ae37ef11b136ea224fe,,,,,,,,,673,19,36,1,0,0,response1disk,,7,4,6,1,0,0,rectangle,4,6,1,0,0,4,6,1,0,0,1,107,267,29,1,,,,,,,,
,,,,,,,,,,,,,FF,,,,,,,,1.067,,,,,,,,,,,,,,,,,,,,,,60fd6537ec893eee4eb8c3eb,61036a4ba0280fce27023e4f,2021-07-29_22h56.49.400,Simcolourproject_2stim_asymm_v5,2020.2.10,MacIntel,60,61025ae37ef11b136ea224fe,,,,,,,,,2984,35,26,1,0,0,response1disk,,6,11,6,1,0,0,rectangle,11,6,1,0,0,11,6,1,0,0,1,108,268,158,1,,,,,,,,
,,,,,,,,,,,,,FF,,,,,,,,1.316,,,,,,,,,,,,,,,,,,,,,,60fd6537ec893eee4eb8c3eb,61036a4ba0280fce27023e4f,2021-07-29_22h56.49.400,Simcolourproject_2stim_asymm_v5,2020.2.10,MacIntel,60,61025ae37ef11b136ea224fe,,,,,,,,,1666,15,44,1,0,0,response1disk,,7,1,8,1,0,0,rectangle,1,8,1,0,0,1,8,1,0,0,1,109,269,46,1,,,,,,,,
,,,,,,,,,,,,,FF,,,,,,,,1.783,,,,,,,,,,,,,,,,,,,,,,60fd6537ec893eee4eb8c3eb,61036a4ba0280fce27023e4f,2021-07-29_22h56.49.400,Simcolourproject_2stim_asymm_v5,2020.2.10,MacIntel,60,61025ae37ef11b136ea224fe,,,,,,,,,1849,16,36,1,0,0,response1disk,,7,2,6,1,0,0,rectangle,2,6,1,0,0,2,6,1,0,0,1,110,270,27,1,,,,,,,,
,,,,,,,,,,,,,FF,,,,,,,,0.9,,,,,,,,,,,,,,,,,,,,,,60fd6537ec893eee4eb8c3eb,61036a4ba0280fce27023e4f,2021-07-29_22h56.49.400,Simcolourproject_2stim_asymm_v5,2020.2.10,MacIntel,60,61025ae37ef11b136ea224fe,,,,,,,,,97,11,-37,1,0,0,response3disk,,4,3,-10,1,0,0,rectangle,3,-10,1,0,0,3,-10,1,0,0,1,111,271,61,1,,,,,,,,
,,,,,,,,,,,,,FF,,,,,,,,1.182,,,,,,,,,,,,,,,,,,,,,,60fd6537ec893eee4eb8c3eb,61036a4ba0280fce27023e4f,2021-07-29_22h56.49.400,Simcolourproject_2stim_asymm_v5,2020.2.10,MacIntel,60,61025ae37ef11b136ea224fe,,,,,,,,,3964,40,17,1,0,0,response1disk,,6,6,7,1,0,0,rectangle,6,7,1,0,0,6,7,1,0,0,1,112,272,109,1,,,,,,,,
,,,,,,,,,,,,,FF,,,,,,,,0.833,,,,,,,,,,,,,,,,,,,,,,60fd6537ec893eee4eb8c3eb,61036a4ba0280fce27023e4f,2021-07-29_22h56.49.400,Simcolourproject_2stim_asymm_v5,2020.2.10,MacIntel,60,61025ae37ef11b136ea224fe,,,,,,,,,683,46,25,1,0,0,response1disk,,6,8,9,1,0,0,rectangle,8,9,1,0,0,8,9,1,0,0,1,113,273,16,1,,,,,,,,
,,,,,,,,,,,,,FF,,,,,,,,1.132,,,,,,,,,,,,,,,,,,,,,,60fd6537ec893eee4eb8c3eb,61036a4ba0280fce27023e4f,2021-07-29_22h56.49.400,Simcolourproject_2stim_asymm_v5,2020.2.10,MacIntel,60,61025ae37ef11b136ea224fe,,,,,,,,,296,30,-22,1,0,0,response3disk,,5,-6,-3,1,0,0,rectangle,-6,-3,1,0,0,-6,-3,1,0,0,1,114,274,18,1,,,,,,,,
,,,,,,,,,,,,,FF,,,,,,,,0.934,,,,,,,,,,,,,,,,,,,,,,60fd6537ec893eee4eb8c3eb,61036a4ba0280fce27023e4f,2021-07-29_22h56.49.400,Simcolourproject_2stim_asymm_v5,2020.2.10,MacIntel,60,61025ae37ef11b136ea224fe,,,,,,,,,1276,34,-40,1,0,0,response3disk,,4,4,-16,1,0,0,rectangle,4,-16,1,0,0,4,-16,1,0,0,1,115,275,33,1,,,,,,,,
,,,,,,,,,,,,,FF,,,,,,,,1.432,,,,,,,,,,,,,,,,,,,,,,60fd6537ec893eee4eb8c3eb,61036a4ba0280fce27023e4f,2021-07-29_22h56.49.400,Simcolourproject_2stim_asymm_v5,2020.2.10,MacIntel,60,61025ae37ef11b136ea224fe,,,,,,,,,3351,14,30,1,0,0,response1disk,,7,0,-5,1,0,0,rectangle,0,-5,1,0,0,0,-5,1,0,0,1,116,276,138,1,,,,,,,,
,,,,,,,,,,,,,FF,,,,,,,,0.783,,,,,,,,,,,,,,,,,,,,,,60fd6537ec893eee4eb8c3eb,61036a4ba0280fce27023e4f,2021-07-29_22h56.49.400,Simcolourproject_2stim_asymm_v5,2020.2.10,MacIntel,60,61025ae37ef11b136ea224fe,,,,,,,,,3024,17,40,1,0,0,response1disk,,7,-2,2,1,0,0,rectangle,-2,2,1,0,0,-2,2,1,0,0,1,117,277,6,1,,,,,,,,
,,,,,,,,,,,,,FF,,,,,,,,0.715,,,,,,,,,,,,,,,,,,,,,,60fd6537ec893eee4eb8c3eb,61036a4ba0280fce27023e4f,2021-07-29_22h56.49.400,Simcolourproject_2stim_asymm_v5,2020.2.10,MacIntel,60,61025ae37ef11b136ea224fe,,,,,,,,,3137,16,37,1,0,0,response1disk,,7,5,8,1,0,0,rectangle,5,8,1,0,0,5,8,1,0,0,1,118,278,32,1,,,,,,,,
,,,,,,,,,,,,,FF,,,,,,,,0.717,,,,,,,,,,,,,,,,,,,,,,60fd6537ec893eee4eb8c3eb,61036a4ba0280fce27023e4f,2021-07-29_22h56.49.400,Simcolourproject_2stim_asymm_v5,2020.2.10,MacIntel,60,61025ae37ef11b136ea224fe,,,,,,,,,2130,20,40,1,0,0,response1disk,,7,12,15,1,0,0,rectangle,12,15,1,0,0,12,15,1,0,0,1,119,279,60,1,,,,,,,,
,,,,,,,,,,,,,FF,,,,,,,,0.832,,,,,,,,,,,,,,,,,,,,,,60fd6537ec893eee4eb8c3eb,61036a4ba0280fce27023e4f,2021-07-29_22h56.49.400,Simcolourproject_2stim_asymm_v5,2020.2.10,MacIntel,60,61025ae37ef11b136ea224fe,,,,,,,,,2580,16,41,1,0,0,response1disk,,7,3,9,1,0,0,rectangle,3,9,1,0,0,3,9,1,0,0,1,120,280,125,1,,,,,,,,
,,,,,,,,,,,,,FF,,,,,,,,0.866,,,,,,,,,,,,,,,,,,,,,,60fd6537ec893eee4eb8c3eb,61036a4ba0280fce27023e4f,2021-07-29_22h56.49.400,Simcolourproject_2stim_asymm_v5,2020.2.10,MacIntel,60,61025ae37ef11b136ea224fe,,,,,,,,,88,26,52,1,0,0,response1disk,,7,9,5,1,0,0,rectangle,9,5,1,0,0,9,5,1,0,0,1,121,281,154,1,,,,,,,,
,,,,,,,,,,,,,FF,,,,,,,,0.717,,,,,,,,,,,,,,,,,,,,,,60fd6537ec893eee4eb8c3eb,61036a4ba0280fce27023e4f,2021-07-29_22h56.49.400,Simcolourproject_2stim_asymm_v5,2020.2.10,MacIntel,60,61025ae37ef11b136ea224fe,,,,,,,,,848,12,29,1,0,0,response1disk,,7,5,0,1,0,0,rectangle,5,0,1,0,0,5,0,1,0,0,1,122,282,15,1,,,,,,,,
,,,,,,,,,,,,,FF,,,,,,,,1.066,,,,,,,,,,,,,,,,,,,,,,60fd6537ec893eee4eb8c3eb,61036a4ba0280fce27023e4f,2021-07-29_22h56.49.400,Simcolourproject_2stim_asymm_v5,2020.2.10,MacIntel,60,61025ae37ef11b136ea224fe,,,,,,,,,3429,-18,-35,1,0,0,response5disk,,3,-10,10,1,0,0,rectangle,-10,10,1,0,0,-10,10,1,0,0,1,123,283,51,1,,,,,,,,
,,,,,,,,,,,,,FF,,,,,,,,0.749,,,,,,,,,,,,,,,,,,,,,,60fd6537ec893eee4eb8c3eb,61036a4ba0280fce27023e4f,2021-07-29_22h56.49.400,Simcolourproject_2stim_asymm_v5,2020.2.10,MacIntel,60,61025ae37ef11b136ea224fe,,,,,,,,,342,22,42,1,0,0,response1disk,,7,8,5,1,0,0,rectangle,8,5,1,0,0,8,5,1,0,0,1,124,284,104,1,,,,,,,,
,,,,,,,,,,,,,FF,,,,,,,,0.8,,,,,,,,,,,,,,,,,,,,,,60fd6537ec893eee4eb8c3eb,61036a4ba0280fce27023e4f,2021-07-29_22h56.49.400,Simcolourproject_2stim_asymm_v5,2020.2.10,MacIntel,60,61025ae37ef11b136ea224fe,,,,,,,,,50,22,57,1,0,0,response1disk,,7,3,9,1,0,0,rectangle,3,9,1,0,0,3,9,1,0,0,1,125,285,31,1,,,,,,,,
,,,,,,,,,,,,,FF,,,,,,,,0.734,,,,,,,,,,,,,,,,,,,,,,60fd6537ec893eee4eb8c3eb,61036a4ba0280fce27023e4f,2021-07-29_22h56.49.400,Simcolourproject_2stim_asymm_v5,2020.2.10,MacIntel,60,61025ae37ef11b136ea224fe,,,,,,,,,2754,18,41,1,0,0,response1disk,,7,-4,3,1,0,0,rectangle,-4,3,1,0,0,-4,3,1,0,0,1,126,286,115,1,,,,,,,,
,,,,,,,,,,,,,FF,,,,,,,,0.899,,,,,,,,,,,,,,,,,,,,,,60fd6537ec893eee4eb8c3eb,61036a4ba0280fce27023e4f,2021-07-29_22h56.49.400,Simcolourproject_2stim_asymm_v5,2020.2.10,MacIntel,60,61025ae37ef11b136ea224fe,,,,,,,,,2038,20,-38,1,0,0,response3disk,,4,8,-6,1,0,0,rectangle,8,-6,1,0,0,8,-6,1,0,0,1,127,287,20,1,,,,,,,,
,,,,,,,,,,,,,FF,,,,,,,,1.1,,,,,,,,,,,,,,,,,,,,,,60fd6537ec893eee4eb8c3eb,61036a4ba0280fce27023e4f,2021-07-29_22h56.49.400,Simcolourproject_2stim_asymm_v5,2020.2.10,MacIntel,60,61025ae37ef11b136ea224fe,,,,,,,,,2064,28,21,1,0,0,response1disk,,6,1,4,1,0,0,rectangle,1,4,1,0,0,1,4,1,0,0,1,128,288,74,1,,,,,,,,
,,,,,,,,,,,,,FF,,,,,,,,0.983,,,,,,,,,,,,,,,,,,,,,,60fd6537ec893eee4eb8c3eb,61036a4ba0280fce27023e4f,2021-07-29_22h56.49.400,Simcolourproject_2stim_asymm_v5,2020.2.10,MacIntel,60,61025ae37ef11b136ea224fe,,,,,,,,,1933,28,21,1,0,0,response1disk,,6,6,9,1,0,0,rectangle,6,9,1,0,0,6,9,1,0,0,1,129,289,141,1,,,,,,,,
,,,,,,,,,,,,,FF,,,,,,,,0.833,,,,,,,,,,,,,,,,,,,,,,60fd6537ec893eee4eb8c3eb,61036a4ba0280fce27023e4f,2021-07-29_22h56.49.400,Simcolourproject_2stim_asymm_v5,2020.2.10,MacIntel,60,61025ae37ef11b136ea224fe,,,,,,,,,3363,22,40,1,0,0,response1disk,,7,-3,-1,1,0,0,rectangle,-3,-1,1,0,0,-3,-1,1,0,0,1,130,290,11,1,,,,,,,,
,,,,,,,,,,,,,FF,,,,,,,,0.783,,,,,,,,,,,,,,,,,,,,,,60fd6537ec893eee4eb8c3eb,61036a4ba0280fce27023e4f,2021-07-29_22h56.49.400,Simcolourproject_2stim_asymm_v5,2020.2.10,MacIntel,60,61025ae37ef11b136ea224fe,,,,,,,,,3118,21,45,1,0,0,response1disk,,7,7,3,1,0,0,rectangle,7,3,1,0,0,7,3,1,0,0,1,131,291,78,1,,,,,,,,
,,,,,,,,,,,,,FF,,,,,,,,0.833,,,,,,,,,,,,,,,,,,,,,,60fd6537ec893eee4eb8c3eb,61036a4ba0280fce27023e4f,2021-07-29_22h56.49.400,Simcolourproject_2stim_asymm_v5,2020.2.10,MacIntel,60,61025ae37ef11b136ea224fe,,,,,,,,,2525,33,17,1,0,0,response1disk,,6,6,8,1,0,0,rectangle,-31,-50,1,0,0,-9,-6,1,0,0,1,132,292,144,1,,response5disk_3,TRUE,3,3,"[168,259,316,168,124,181,174,213,217,84,22,10,187,196,188,235,222,208,293,234]",1.682,rectangle
,,,,,,,,,,,,,FF,,,,,,,,0.899,,,,,,,,,,,,,,,,,,,,,,60fd6537ec893eee4eb8c3eb,61036a4ba0280fce27023e4f,2021-07-29_22h56.49.400,Simcolourproject_2stim_asymm_v5,2020.2.10,MacIntel,60,61025ae37ef11b136ea224fe,,,,,,,,,457,20,-31,1,0,0,response3disk,,4,4,-7,1,0,0,rectangle,4,-7,1,0,0,4,-7,1,0,0,1,133,293,79,1,,,,,,,,
,,,,,,,,,,,,,FF,,,,,,,,1.116,,,,,,,,,,,,,,,,,,,,,,60fd6537ec893eee4eb8c3eb,61036a4ba0280fce27023e4f,2021-07-29_22h56.49.400,Simcolourproject_2stim_asymm_v5,2020.2.10,MacIntel,60,61025ae37ef11b136ea224fe,,,,,,,,,3113,12,-38,1,0,0,response3disk,,4,3,-6,1,0,0,rectangle,3,-6,1,0,0,3,-6,1,0,0,1,134,294,10,1,,,,,,,,
,,,,,,,,,,,,,FF,,,,,,,,0.767,,,,,,,,,,,,,,,,,,,,,,60fd6537ec893eee4eb8c3eb,61036a4ba0280fce27023e4f,2021-07-29_22h56.49.400,Simcolourproject_2stim_asymm_v5,2020.2.10,MacIntel,60,61025ae37ef11b136ea224fe,,,,,,,,,544,23,-35,1,0,0,response3disk,,4,6,-2,1,0,0,rectangle,6,-2,1,0,0,6,-2,1,0,0,1,135,295,0,1,,,,,,,,
,,,,,,,,,,,,,FF,,,,,,,,0.815,,,,,,,,,,,,,,,,,,,,,,60fd6537ec893eee4eb8c3eb,61036a4ba0280fce27023e4f,2021-07-29_22h56.49.400,Simcolourproject_2stim_asymm_v5,2020.2.10,MacIntel,60,61025ae37ef11b136ea224fe,,,,,,,,,2954,-20,-45,1,0,0,response5disk,,3,-14,-1,1,0,0,rectangle,-14,-1,1,0,0,-14,-1,1,0,0,1,136,296,110,1,,,,,,,,
,,,,,,,,,,,,,FF,,,,,,,,0.867,,,,,,,,,,,,,,,,,,,,,,60fd6537ec893eee4eb8c3eb,61036a4ba0280fce27023e4f,2021-07-29_22h56.49.400,Simcolourproject_2stim_asymm_v5,2020.2.10,MacIntel,60,61025ae37ef11b136ea224fe,,,,,,,,,978,13,-48,1,0,0,response3disk,,4,11,2,1,0,0,rectangle,11,2,1,0,0,11,2,1,0,0,1,137,297,24,1,,,,,,,,
,,,,,,,,,,,,,FF,,,,,,,,0.883,,,,,,,,,,,,,,,,,,,,,,60fd6537ec893eee4eb8c3eb,61036a4ba0280fce27023e4f,2021-07-29_22h56.49.400,Simcolourproject_2stim_asymm_v5,2020.2.10,MacIntel,60,61025ae37ef11b136ea224fe,,,,,,,,,1388,33,-20,1,0,0,response3disk,,5,8,-2,1,0,0,rectangle,8,-2,1,0,0,8,-2,1,0,0,1,138,298,155,1,,,,,,,,
,,,,,,,,,,,,,FF,,,,,,,,0.917,,,,,,,,,,,,,,,,,,,,,,60fd6537ec893eee4eb8c3eb,61036a4ba0280fce27023e4f,2021-07-29_22h56.49.400,Simcolourproject_2stim_asymm_v5,2020.2.10,MacIntel,60,61025ae37ef11b136ea224fe,,,,,,,,,1584,17,-38,1,0,0,response3disk,,4,10,7,1,0,0,rectangle,10,7,1,0,0,10,7,1,0,0,1,139,299,56,1,,,,,,,,
,,,,,,,,,,,,,FF,,,,,,,,1,,,,,,,,,,,,,,,,,,,,,,60fd6537ec893eee4eb8c3eb,61036a4ba0280fce27023e4f,2021-07-29_22h56.49.400,Simcolourproject_2stim_asymm_v5,2020.2.10,MacIntel,60,61025ae37ef11b136ea224fe,,,,,,,,,811,17,-42,1,0,0,response3disk,,4,11,-7,1,0,0,rectangle,11,-7,1,0,0,11,-7,1,0,0,1,140,300,45,1,,,,,,,,
,,,,,,,,,,,,,FF,,,,,,,,1.116,,,,,,,,,,,,,,,,,,,,,,60fd6537ec893eee4eb8c3eb,61036a4ba0280fce27023e4f,2021-07-29_22h56.49.400,Simcolourproject_2stim_asymm_v5,2020.2.10,MacIntel,60,61025ae37ef11b136ea224fe,,,,,,,,,2147,43,13,1,0,0,response1disk,,6,5,8,1,0,0,rectangle,5,8,1,0,0,5,8,1,0,0,1,141,301,87,1,,,,,,,,
,,,,,,,,,,,,,FF,,,,,,,,1.3,,,,,,,,,,,,,,,,,,,,,,60fd6537ec893eee4eb8c3eb,61036a4ba0280fce27023e4f,2021-07-29_22h56.49.400,Simcolourproject_2stim_asymm_v5,2020.2.10,MacIntel,60,61025ae37ef11b136ea224fe,,,,,,,,,991,31,-20,1,0,0,response3disk,,5,-2,-13,1,0,0,rectangle,-2,-13,1,0,0,-2,-13,1,0,0,1,142,302,77,1,,,,,,,,
