key_resp.keys,key_resp.rt,key_resp_14.keys,key_resp_14.rt,key_resp_15.keys,key_resp_15.rt,key_resp_17.keys,key_resp_17.rt,key_resp_9.keys,key_resp_9.rt,key_resp_10.keys,key_resp_10.rt,practice_comparison,Ecc,mouse_5.x,mouse_5.y,mouse_5.leftButton,mouse_5.midButton,mouse_5.rightButton,mouse_5.clicked_name,pracsimilarity,response_time,mouse_10.x,mouse_10.y,mouse_10.leftButton,mouse_10.midButton,mouse_10.rightButton,mouse_10.clicked_name,mouse_7.x,mouse_7.y,mouse_7.leftButton,mouse_7.midButton,mouse_7.rightButton,mouse_6.x,mouse_6.y,mouse_6.leftButton,mouse_6.midButton,mouse_6.rightButton,duringprac.thisRepN,duringprac.thisTrialN,duringprac.thisN,duringprac.thisIndex,duringprac.ran,participant,session,date,expName,psychopyVersion,OS,frameRate,study_id,mouse_7.clicked_name,catchpracsimilarity,catch_response_time,catchnumberprac,catchtrialorderprac,mouse_6.clicked_name,key_resp_22.keys,key_resp_22.rt,realcomparison,mouse.x,mouse.y,mouse.leftButton,mouse.midButton,mouse.rightButton,mouse.clicked_name,Colour2,similarity,mouse_2.x,mouse_2.y,mouse_2.leftButton,mouse_2.midButton,mouse_2.rightButton,mouse_2.clicked_name,mouse_3.x,mouse_3.y,mouse_3.leftButton,mouse_3.midButton,mouse_3.rightButton,mouse_11.x,mouse_11.y,mouse_11.leftButton,mouse_11.midButton,mouse_11.rightButton,trials_2.thisRepN,trials_2.thisTrialN,trials_2.thisN,trials_2.thisIndex,trials_2.ran,Colour1,mouse_3.clicked_name,catchornah,catchsimilarity,catchnumber,catchtrialorder,catchRT,mouse_11.clicked_name
space,1.2267,space,9.0567,space,21.4824,space,3.9169,space,3.953,space,7.0495,117,PF,39,95,1,0,0,response1disk_5,7,7.6525,0,-2,1,0,0,rectangle_8,0,-2,1,0,0,0,-2,1,0,0,0,0,0,2,1,60fd51ecc8c5b6dcbb506fac,61036e8fc5234f1187fb1c72,2021-07-29_23h15.09.069,Simcolourproject_2stim_asymm_v5,2020.2.10,Win32,60,61025ae37ef11b136ea224fe,,,,,,,,,,,,,,,,,,,,,,,,,,,,,,,,,,,,,,,,,,,,,,
,,,,,,,,,,,,109,FF,36,74,1,0,0,response1disk_5,7,3.4166,-1,-2,1,0,0,rectangle_8,-83,-32,1,0,0,-3,-6,1,0,0,0,1,1,3,1,60fd51ecc8c5b6dcbb506fac,61036e8fc5234f1187fb1c72,2021-07-29_23h15.09.069,Simcolourproject_2stim_asymm_v5,2020.2.10,Win32,60,61025ae37ef11b136ea224fe,response5disk_7,2,4.3172,2,"[2,5]",rectangle_4,,,,,,,,,,,,,,,,,,,,,,,,,,,,,,,,,,,,,,,,
,,,,,,,,,,,,86,PF,41,101,1,0,0,response1disk_5,7,2.9,0,0,1,0,0,rectangle_8,0,0,1,0,0,0,0,1,0,0,0,2,2,6,1,60fd51ecc8c5b6dcbb506fac,61036e8fc5234f1187fb1c72,2021-07-29_23h15.09.069,Simcolourproject_2stim_asymm_v5,2020.2.10,Win32,60,61025ae37ef11b136ea224fe,,,,,,,,,,,,,,,,,,,,,,,,,,,,,,,,,,,,,,,,,,,,,,
,,,,,,,,,,,,39,FF,68,30,1,0,0,response1disk_5,6,2.0502,3,-2,1,0,0,rectangle_8,3,-2,1,0,0,3,-2,1,0,0,0,3,3,0,1,60fd51ecc8c5b6dcbb506fac,61036e8fc5234f1187fb1c72,2021-07-29_23h15.09.069,Simcolourproject_2stim_asymm_v5,2020.2.10,Win32,60,61025ae37ef11b136ea224fe,,,,,,,,,,,,,,,,,,,,,,,,,,,,,,,,,,,,,,,,,,,,,,
,,,,,,,,,,,,54,FF,73,-34,1,0,0,response3disk_5,5,2.0194,19,-2,1,0,0,rectangle_8,-84,-30,1,0,0,6,-2,1,0,0,0,4,4,5,1,60fd51ecc8c5b6dcbb506fac,61036e8fc5234f1187fb1c72,2021-07-29_23h15.09.069,Simcolourproject_2stim_asymm_v5,2020.2.10,Win32,60,61025ae37ef11b136ea224fe,response5disk_7,2,3.2832,2,"[2,5]",rectangle_4,,,,,,,,,,,,,,,,,,,,,,,,,,,,,,,,,,,,,,,,
,,,,,,,,,,,,35,PF,46,56,1,0,0,response1disk_5,7,1.5001,15,-6,1,0,0,rectangle_8,15,-6,1,0,0,15,-6,1,0,0,0,5,5,1,1,60fd51ecc8c5b6dcbb506fac,61036e8fc5234f1187fb1c72,2021-07-29_23h15.09.069,Simcolourproject_2stim_asymm_v5,2020.2.10,Win32,60,61025ae37ef11b136ea224fe,,,,,,,,,,,,,,,,,,,,,,,,,,,,,,,,,,,,,,,,,,,,,,
,,,,,,,,,,,,3,PF,45,-69,1,0,0,response3disk_5,4,1.9833,14,7,1,0,0,rectangle_8,14,7,1,0,0,14,7,1,0,0,0,6,6,4,1,60fd51ecc8c5b6dcbb506fac,61036e8fc5234f1187fb1c72,2021-07-29_23h15.09.069,Simcolourproject_2stim_asymm_v5,2020.2.10,Win32,60,61025ae37ef11b136ea224fe,,,,,,,,,,,,,,,,,,,,,,,,,,,,,,,,,,,,,,,,,,,,,,
,,,,,,,,,,,,,FF,,,,,,,,1.8337,,,,,,,,,,,,,,,,,,,,,,60fd51ecc8c5b6dcbb506fac,61036e8fc5234f1187fb1c72,2021-07-29_23h15.09.069,Simcolourproject_2stim_asymm_v5,2020.2.10,Win32,60,61025ae37ef11b136ea224fe,,,,,,,space,3.2462,150,101,45,1,0,0,response1disk,,6,6,7,1,0,0,rectangle,6,7,1,0,0,6,7,1,0,0,0,0,0,100,1,,,,,,,,
,,,,,,,,,,,,,FF,,,,,,,,1.4165,,,,,,,,,,,,,,,,,,,,,,60fd51ecc8c5b6dcbb506fac,61036e8fc5234f1187fb1c72,2021-07-29_23h15.09.069,Simcolourproject_2stim_asymm_v5,2020.2.10,Win32,60,61025ae37ef11b136ea224fe,,,,,,,,,949,38,99,1,0,0,response1disk,,7,-13,-7,1,0,0,rectangle,-13,-7,1,0,0,-13,-7,1,0,0,0,1,1,77,1,,,,,,,,
,,,,,,,,,,,,,FF,,,,,,,,1.4504,,,,,,,,,,,,,,,,,,,,,,60fd51ecc8c5b6dcbb506fac,61036e8fc5234f1187fb1c72,2021-07-29_23h15.09.069,Simcolourproject_2stim_asymm_v5,2020.2.10,Win32,60,61025ae37ef11b136ea224fe,,,,,,,,,832,42,83,1,0,0,response1disk,,7,13,3,1,0,0,rectangle,13,3,1,0,0,13,3,1,0,0,0,2,2,149,1,,,,,,,,
,,,,,,,,,,,,,FF,,,,,,,,1.7001,,,,,,,,,,,,,,,,,,,,,,60fd51ecc8c5b6dcbb506fac,61036e8fc5234f1187fb1c72,2021-07-29_23h15.09.069,Simcolourproject_2stim_asymm_v5,2020.2.10,Win32,60,61025ae37ef11b136ea224fe,,,,,,,,,436,66,26,1,0,0,response1disk,,6,11,-7,1,0,0,rectangle,11,-7,1,0,0,11,-7,1,0,0,0,3,3,76,1,,,,,,,,
,,,,,,,,,,,,,FF,,,,,,,,2.0834,,,,,,,,,,,,,,,,,,,,,,60fd51ecc8c5b6dcbb506fac,61036e8fc5234f1187fb1c72,2021-07-29_23h15.09.069,Simcolourproject_2stim_asymm_v5,2020.2.10,Win32,60,61025ae37ef11b136ea224fe,,,,,,,,,3520,57,-24,1,0,0,response3disk,,5,14,8,1,0,0,rectangle,14,8,1,0,0,14,8,1,0,0,0,4,4,156,1,,,,,,,,
,,,,,,,,,,,,,FF,,,,,,,,1.2838,,,,,,,,,,,,,,,,,,,,,,60fd51ecc8c5b6dcbb506fac,61036e8fc5234f1187fb1c72,2021-07-29_23h15.09.069,Simcolourproject_2stim_asymm_v5,2020.2.10,Win32,60,61025ae37ef11b136ea224fe,,,,,,,,,787,34,66,1,0,0,response1disk,,7,13,0,1,0,0,rectangle,13,0,1,0,0,13,0,1,0,0,0,5,5,142,1,,,,,,,,
,,,,,,,,,,,,,FF,,,,,,,,1.3669,,,,,,,,,,,,,,,,,,,,,,60fd51ecc8c5b6dcbb506fac,61036e8fc5234f1187fb1c72,2021-07-29_23h15.09.069,Simcolourproject_2stim_asymm_v5,2020.2.10,Win32,60,61025ae37ef11b136ea224fe,,,,,,,,,852,35,60,1,0,0,response1disk,,7,4,-2,1,0,0,rectangle,4,-2,1,0,0,4,-2,1,0,0,0,6,6,75,1,,,,,,,,
,,,,,,,,,,,,,FF,,,,,,,,4.5335,,,,,,,,,,,,,,,,,,,,,,60fd51ecc8c5b6dcbb506fac,61036e8fc5234f1187fb1c72,2021-07-29_23h15.09.069,Simcolourproject_2stim_asymm_v5,2020.2.10,Win32,60,61025ae37ef11b136ea224fe,,,,,,,,,2543,-47,-87,1,0,0,response5disk,,3,-6,0,1,0,0,rectangle,-6,0,1,0,0,-6,0,1,0,0,0,7,7,27,1,,,,,,,,
,,,,,,,,,,,,,FF,,,,,,,,4.7999,,,,,,,,,,,,,,,,,,,,,,60fd51ecc8c5b6dcbb506fac,61036e8fc5234f1187fb1c72,2021-07-29_23h15.09.069,Simcolourproject_2stim_asymm_v5,2020.2.10,Win32,60,61025ae37ef11b136ea224fe,,,,,,,,,1536,42,-84,1,0,0,response3disk,,4,2,-7,1,0,0,rectangle,2,-7,1,0,0,2,-7,1,0,0,0,8,8,157,1,,,,,,,,
,,,,,,,,,,,,,FF,,,,,,,,2.7667,,,,,,,,,,,,,,,,,,,,,,60fd51ecc8c5b6dcbb506fac,61036e8fc5234f1187fb1c72,2021-07-29_23h15.09.069,Simcolourproject_2stim_asymm_v5,2020.2.10,Win32,60,61025ae37ef11b136ea224fe,,,,,,,,,1986,71,-40,1,0,0,response3disk,,5,17,5,1,0,0,rectangle,17,5,1,0,0,17,5,1,0,0,0,9,9,83,1,,,,,,,,
,,,,,,,,,,,,,FF,,,,,,,,4.4164,,,,,,,,,,,,,,,,,,,,,,60fd51ecc8c5b6dcbb506fac,61036e8fc5234f1187fb1c72,2021-07-29_23h15.09.069,Simcolourproject_2stim_asymm_v5,2020.2.10,Win32,60,61025ae37ef11b136ea224fe,,,,,,,,,2185,48,24,1,0,0,response1disk,,6,6,-6,1,0,0,rectangle,6,-6,1,0,0,6,-6,1,0,0,0,10,10,89,1,,,,,,,,
,,,,,,,,,,,,,FF,,,,,,,,5.4167,,,,,,,,,,,,,,,,,,,,,,60fd51ecc8c5b6dcbb506fac,61036e8fc5234f1187fb1c72,2021-07-29_23h15.09.069,Simcolourproject_2stim_asymm_v5,2020.2.10,Win32,60,61025ae37ef11b136ea224fe,,,,,,,,,4323,53,-25,1,0,0,response3disk,,5,1,-1,1,0,0,rectangle,1,-1,1,0,0,1,-1,1,0,0,0,11,11,151,1,,,,,,,,
,,,,,,,,,,,,,FF,,,,,,,,2.8833,,,,,,,,,,,,,,,,,,,,,,60fd51ecc8c5b6dcbb506fac,61036e8fc5234f1187fb1c72,2021-07-29_23h15.09.069,Simcolourproject_2stim_asymm_v5,2020.2.10,Win32,60,61025ae37ef11b136ea224fe,,,,,,,,,568,84,-39,1,0,0,response3disk,,5,11,-2,1,0,0,rectangle,11,-2,1,0,0,11,-2,1,0,0,0,12,12,79,1,,,,,,,,
,,,,,,,,,,,,,FF,,,,,,,,3.9001,,,,,,,,,,,,,,,,,,,,,,60fd51ecc8c5b6dcbb506fac,61036e8fc5234f1187fb1c72,2021-07-29_23h15.09.069,Simcolourproject_2stim_asymm_v5,2020.2.10,Win32,60,61025ae37ef11b136ea224fe,,,,,,,,,1238,80,-34,1,0,0,response3disk,,5,23,5,1,0,0,rectangle,23,5,1,0,0,23,5,1,0,0,0,13,13,42,1,,,,,,,,
,,,,,,,,,,,,,FF,,,,,,,,1.6667,,,,,,,,,,,,,,,,,,,,,,60fd51ecc8c5b6dcbb506fac,61036e8fc5234f1187fb1c72,2021-07-29_23h15.09.069,Simcolourproject_2stim_asymm_v5,2020.2.10,Win32,60,61025ae37ef11b136ea224fe,,,,,,,,,4237,-79,-31,1,0,0,response5disk,,2,12,-5,1,0,0,rectangle,12,-5,1,0,0,12,-5,1,0,0,0,14,14,117,1,,,,,,,,
,,,,,,,,,,,,,FF,,,,,,,,1.6334,,,,,,,,,,,,,,,,,,,,,,60fd51ecc8c5b6dcbb506fac,61036e8fc5234f1187fb1c72,2021-07-29_23h15.09.069,Simcolourproject_2stim_asymm_v5,2020.2.10,Win32,60,61025ae37ef11b136ea224fe,,,,,,,,,1208,37,74,1,0,0,response1disk,,7,7,2,1,0,0,rectangle,7,2,1,0,0,7,2,1,0,0,0,15,15,98,1,,,,,,,,
,,,,,,,,,,,,,FF,,,,,,,,2.6667,,,,,,,,,,,,,,,,,,,,,,60fd51ecc8c5b6dcbb506fac,61036e8fc5234f1187fb1c72,2021-07-29_23h15.09.069,Simcolourproject_2stim_asymm_v5,2020.2.10,Win32,60,61025ae37ef11b136ea224fe,,,,,,,,,4218,-55,81,1,0,0,response7disk,,0,4,5,1,0,0,rectangle,4,5,1,0,0,4,5,1,0,0,0,16,16,112,1,,,,,,,,
,,,,,,,,,,,,,FF,,,,,,,,3.7832,,,,,,,,,,,,,,,,,,,,,,60fd51ecc8c5b6dcbb506fac,61036e8fc5234f1187fb1c72,2021-07-29_23h15.09.069,Simcolourproject_2stim_asymm_v5,2020.2.10,Win32,60,61025ae37ef11b136ea224fe,,,,,,,,,204,81,45,1,0,0,response1disk,,6,-9,4,1,0,0,rectangle,-9,4,1,0,0,-9,4,1,0,0,0,17,17,126,1,,,,,,,,
,,,,,,,,,,,,,FF,,,,,,,,3.4001,,,,,,,,,,,,,,,,,,,,,,60fd51ecc8c5b6dcbb506fac,61036e8fc5234f1187fb1c72,2021-07-29_23h15.09.069,Simcolourproject_2stim_asymm_v5,2020.2.10,Win32,60,61025ae37ef11b136ea224fe,,,,,,,,,106,81,37,1,0,0,response1disk,,6,11,-1,1,0,0,rectangle,11,-1,1,0,0,11,-1,1,0,0,0,18,18,118,1,,,,,,,,
,,,,,,,,,,,,,FF,,,,,,,,2.05,,,,,,,,,,,,,,,,,,,,,,60fd51ecc8c5b6dcbb506fac,61036e8fc5234f1187fb1c72,2021-07-29_23h15.09.069,Simcolourproject_2stim_asymm_v5,2020.2.10,Win32,60,61025ae37ef11b136ea224fe,,,,,,,,,3345,42,86,1,0,0,response1disk,,7,-1,3,1,0,0,rectangle,-1,3,1,0,0,-1,3,1,0,0,0,19,19,131,1,,,,,,,,
,,,,,,,,,,,,,FF,,,,,,,,1.6669,,,,,,,,,,,,,,,,,,,,,,60fd51ecc8c5b6dcbb506fac,61036e8fc5234f1187fb1c72,2021-07-29_23h15.09.069,Simcolourproject_2stim_asymm_v5,2020.2.10,Win32,60,61025ae37ef11b136ea224fe,,,,,,,,,446,38,75,1,0,0,response1disk,,7,11,-3,1,0,0,rectangle,11,-3,1,0,0,11,-3,1,0,0,0,20,20,57,1,,,,,,,,
,,,,,,,,,,,,,FF,,,,,,,,1.5332,,,,,,,,,,,,,,,,,,,,,,60fd51ecc8c5b6dcbb506fac,61036e8fc5234f1187fb1c72,2021-07-29_23h15.09.069,Simcolourproject_2stim_asymm_v5,2020.2.10,Win32,60,61025ae37ef11b136ea224fe,,,,,,,,,2974,42,86,1,0,0,response1disk,,7,19,-3,1,0,0,rectangle,19,-3,1,0,0,19,-3,1,0,0,0,21,21,114,1,,,,,,,,
,,,,,,,,,,,,,FF,,,,,,,,2.0835,,,,,,,,,,,,,,,,,,,,,,60fd51ecc8c5b6dcbb506fac,61036e8fc5234f1187fb1c72,2021-07-29_23h15.09.069,Simcolourproject_2stim_asymm_v5,2020.2.10,Win32,60,61025ae37ef11b136ea224fe,,,,,,,,,3224,47,78,1,0,0,response1disk,,7,5,0,1,0,0,rectangle,5,0,1,0,0,5,0,1,0,0,0,22,22,61,1,,,,,,,,
,,,,,,,,,,,,,FF,,,,,,,,2.0002,,,,,,,,,,,,,,,,,,,,,,60fd51ecc8c5b6dcbb506fac,61036e8fc5234f1187fb1c72,2021-07-29_23h15.09.069,Simcolourproject_2stim_asymm_v5,2020.2.10,Win32,60,61025ae37ef11b136ea224fe,,,,,,,,,3597,-59,-85,1,0,0,response5disk,,3,2,6,1,0,0,rectangle,2,6,1,0,0,2,6,1,0,0,0,23,23,3,1,,,,,,,,
,,,,,,,,,,,,,FF,,,,,,,,1.7164,,,,,,,,,,,,,,,,,,,,,,60fd51ecc8c5b6dcbb506fac,61036e8fc5234f1187fb1c72,2021-07-29_23h15.09.069,Simcolourproject_2stim_asymm_v5,2020.2.10,Win32,60,61025ae37ef11b136ea224fe,,,,,,,,,2966,48,81,1,0,0,response1disk,,7,17,5,1,0,0,rectangle,17,5,1,0,0,17,5,1,0,0,0,24,24,36,1,,,,,,,,
,,,,,,,,,,,,,FF,,,,,,,,2.3167,,,,,,,,,,,,,,,,,,,,,,60fd51ecc8c5b6dcbb506fac,61036e8fc5234f1187fb1c72,2021-07-29_23h15.09.069,Simcolourproject_2stim_asymm_v5,2020.2.10,Win32,60,61025ae37ef11b136ea224fe,,,,,,,,,198,81,49,1,0,0,response1disk,,6,13,5,1,0,0,rectangle,37,-84,1,0,0,0,5,1,0,0,0,25,25,45,1,,response3disk_3,TRUE,4,4,"[181,309,268,185,289,185,277,26,230,172,186,309,121,214,77,84,316,28,113,132]",3.6002,rectangle
,,,,,,,,,,,,,FF,,,,,,,,1.2336,,,,,,,,,,,,,,,,,,,,,,60fd51ecc8c5b6dcbb506fac,61036e8fc5234f1187fb1c72,2021-07-29_23h15.09.069,Simcolourproject_2stim_asymm_v5,2020.2.10,Win32,60,61025ae37ef11b136ea224fe,,,,,,,,,276,-24,62,1,0,0,response7disk,,0,-7,-4,1,0,0,rectangle,-7,-4,1,0,0,-7,-4,1,0,0,0,26,26,13,1,,,,,,,,
,,,,,,,,,,,,,FF,,,,,,,,1.3,,,,,,,,,,,,,,,,,,,,,,60fd51ecc8c5b6dcbb506fac,61036e8fc5234f1187fb1c72,2021-07-29_23h15.09.069,Simcolourproject_2stim_asymm_v5,2020.2.10,Win32,60,61025ae37ef11b136ea224fe,,,,,,,,,1866,38,85,1,0,0,response1disk,,7,11,11,1,0,0,rectangle,-32,-82,1,0,0,-2,-4,1,0,0,0,27,27,159,1,,response5disk_3,TRUE,3,3,"[181,309,268,185,289,185,277,26,230,172,186,309,121,214,77,84,316,28,113,132]",2.3501,rectangle
,,,,,,,,,,,,,FF,,,,,,,,1.4334,,,,,,,,,,,,,,,,,,,,,,60fd51ecc8c5b6dcbb506fac,61036e8fc5234f1187fb1c72,2021-07-29_23h15.09.069,Simcolourproject_2stim_asymm_v5,2020.2.10,Win32,60,61025ae37ef11b136ea224fe,,,,,,,,,1573,29,74,1,0,0,response1disk,,7,-11,4,1,0,0,rectangle,-11,4,1,0,0,-11,4,1,0,0,0,28,28,16,1,,,,,,,,
,,,,,,,,,,,,,FF,,,,,,,,3.0001,,,,,,,,,,,,,,,,,,,,,,60fd51ecc8c5b6dcbb506fac,61036e8fc5234f1187fb1c72,2021-07-29_23h15.09.069,Simcolourproject_2stim_asymm_v5,2020.2.10,Win32,60,61025ae37ef11b136ea224fe,,,,,,,,,1847,72,36,1,0,0,response1disk,,6,9,4,1,0,0,rectangle,9,4,1,0,0,9,4,1,0,0,0,29,29,60,1,,,,,,,,
,,,,,,,,,,,,,FF,,,,,,,,1.2835,,,,,,,,,,,,,,,,,,,,,,60fd51ecc8c5b6dcbb506fac,61036e8fc5234f1187fb1c72,2021-07-29_23h15.09.069,Simcolourproject_2stim_asymm_v5,2020.2.10,Win32,60,61025ae37ef11b136ea224fe,,,,,,,,,4014,33,69,1,0,0,response1disk,,7,13,-2,1,0,0,rectangle,13,-2,1,0,0,13,-2,1,0,0,0,30,30,150,1,,,,,,,,
,,,,,,,,,,,,,FF,,,,,,,,1.7335,,,,,,,,,,,,,,,,,,,,,,60fd51ecc8c5b6dcbb506fac,61036e8fc5234f1187fb1c72,2021-07-29_23h15.09.069,Simcolourproject_2stim_asymm_v5,2020.2.10,Win32,60,61025ae37ef11b136ea224fe,,,,,,,,,4085,78,-49,1,0,0,response3disk,,5,1,0,1,0,0,rectangle,1,0,1,0,0,1,0,1,0,0,0,31,31,34,1,,,,,,,,
,,,,,,,,,,,,,FF,,,,,,,,1.3667,,,,,,,,,,,,,,,,,,,,,,60fd51ecc8c5b6dcbb506fac,61036e8fc5234f1187fb1c72,2021-07-29_23h15.09.069,Simcolourproject_2stim_asymm_v5,2020.2.10,Win32,60,61025ae37ef11b136ea224fe,,,,,,,,,3205,-39,-90,1,0,0,response5disk,,3,0,-12,1,0,0,rectangle,0,-12,1,0,0,0,-12,1,0,0,0,32,32,107,1,,,,,,,,
,,,,,,,,,,,,,FF,,,,,,,,1.35,,,,,,,,,,,,,,,,,,,,,,60fd51ecc8c5b6dcbb506fac,61036e8fc5234f1187fb1c72,2021-07-29_23h15.09.069,Simcolourproject_2stim_asymm_v5,2020.2.10,Win32,60,61025ae37ef11b136ea224fe,,,,,,,,,517,63,48,1,0,0,response1disk,,6,11,3,1,0,0,rectangle,11,3,1,0,0,11,3,1,0,0,0,33,33,23,1,,,,,,,,
,,,,,,,,,,,,,FF,,,,,,,,1.6808,,,,,,,,,,,,,,,,,,,,,,60fd51ecc8c5b6dcbb506fac,61036e8fc5234f1187fb1c72,2021-07-29_23h15.09.069,Simcolourproject_2stim_asymm_v5,2020.2.10,Win32,60,61025ae37ef11b136ea224fe,,,,,,,,,4352,-89,-29,1,0,0,response5disk,,2,0,5,1,0,0,rectangle,0,5,1,0,0,0,5,1,0,0,0,34,34,21,1,,,,,,,,
,,,,,,,,,,,,,FF,,,,,,,,1.1001,,,,,,,,,,,,,,,,,,,,,,60fd51ecc8c5b6dcbb506fac,61036e8fc5234f1187fb1c72,2021-07-29_23h15.09.069,Simcolourproject_2stim_asymm_v5,2020.2.10,Win32,60,61025ae37ef11b136ea224fe,,,,,,,,,2465,33,63,1,0,0,response1disk,,7,6,-1,1,0,0,rectangle,6,-1,1,0,0,6,-1,1,0,0,0,35,35,28,1,,,,,,,,
,,,,,,,,,,,,,FF,,,,,,,,1.4667,,,,,,,,,,,,,,,,,,,,,,60fd51ecc8c5b6dcbb506fac,61036e8fc5234f1187fb1c72,2021-07-29_23h15.09.069,Simcolourproject_2stim_asymm_v5,2020.2.10,Win32,60,61025ae37ef11b136ea224fe,,,,,,,,,3607,28,65,1,0,0,response1disk,,7,-14,-8,1,0,0,rectangle,-14,-8,1,0,0,-14,-8,1,0,0,0,36,36,154,1,,,,,,,,
,,,,,,,,,,,,,FF,,,,,,,,1.2166,,,,,,,,,,,,,,,,,,,,,,60fd51ecc8c5b6dcbb506fac,61036e8fc5234f1187fb1c72,2021-07-29_23h15.09.069,Simcolourproject_2stim_asymm_v5,2020.2.10,Win32,60,61025ae37ef11b136ea224fe,,,,,,,,,467,22,59,1,0,0,response1disk,,7,-2,1,1,0,0,rectangle,-2,1,1,0,0,-2,1,1,0,0,0,37,37,54,1,,,,,,,,
,,,,,,,,,,,,,FF,,,,,,,,1.2335,,,,,,,,,,,,,,,,,,,,,,60fd51ecc8c5b6dcbb506fac,61036e8fc5234f1187fb1c72,2021-07-29_23h15.09.069,Simcolourproject_2stim_asymm_v5,2020.2.10,Win32,60,61025ae37ef11b136ea224fe,,,,,,,,,1562,42,84,1,0,0,response1disk,,7,-3,-10,1,0,0,rectangle,-3,-10,1,0,0,-3,-10,1,0,0,0,38,38,73,1,,,,,,,,
,,,,,,,,,,,,,FF,,,,,,,,1.4009,,,,,,,,,,,,,,,,,,,,,,60fd51ecc8c5b6dcbb506fac,61036e8fc5234f1187fb1c72,2021-07-29_23h15.09.069,Simcolourproject_2stim_asymm_v5,2020.2.10,Win32,60,61025ae37ef11b136ea224fe,,,,,,,,,3080,60,35,1,0,0,response1disk,,6,13,3,1,0,0,rectangle,13,3,1,0,0,13,3,1,0,0,0,39,39,153,1,,,,,,,,
,,,,,,,,,,,,,FF,,,,,,,,1.4498,,,,,,,,,,,,,,,,,,,,,,60fd51ecc8c5b6dcbb506fac,61036e8fc5234f1187fb1c72,2021-07-29_23h15.09.069,Simcolourproject_2stim_asymm_v5,2020.2.10,Win32,60,61025ae37ef11b136ea224fe,,,,,,,,,3428,30,-79,1,0,0,response3disk,,4,8,-12,1,0,0,rectangle,8,-12,1,0,0,8,-12,1,0,0,0,40,40,110,1,,,,,,,,
,,,,,,,,,,,,,FF,,,,,,,,1.0669,,,,,,,,,,,,,,,,,,,,,,60fd51ecc8c5b6dcbb506fac,61036e8fc5234f1187fb1c72,2021-07-29_23h15.09.069,Simcolourproject_2stim_asymm_v5,2020.2.10,Win32,60,61025ae37ef11b136ea224fe,,,,,,,,,3595,40,-70,1,0,0,response3disk,,4,12,-3,1,0,0,rectangle,12,-3,1,0,0,12,-3,1,0,0,0,41,41,84,1,,,,,,,,
,,,,,,,,,,,,,FF,,,,,,,,1.6166,,,,,,,,,,,,,,,,,,,,,,60fd51ecc8c5b6dcbb506fac,61036e8fc5234f1187fb1c72,2021-07-29_23h15.09.069,Simcolourproject_2stim_asymm_v5,2020.2.10,Win32,60,61025ae37ef11b136ea224fe,,,,,,,,,2462,46,79,1,0,0,response1disk,,7,10,-1,1,0,0,rectangle,10,-1,1,0,0,10,-1,1,0,0,0,42,42,31,1,,,,,,,,
,,,,,,,,,,,,,FF,,,,,,,,1.2501,,,,,,,,,,,,,,,,,,,,,,60fd51ecc8c5b6dcbb506fac,61036e8fc5234f1187fb1c72,2021-07-29_23h15.09.069,Simcolourproject_2stim_asymm_v5,2020.2.10,Win32,60,61025ae37ef11b136ea224fe,,,,,,,,,506,43,93,1,0,0,response1disk,,7,9,0,1,0,0,rectangle,9,0,1,0,0,9,0,1,0,0,0,43,43,67,1,,,,,,,,
,,,,,,,,,,,,,FF,,,,,,,,1.2169,,,,,,,,,,,,,,,,,,,,,,60fd51ecc8c5b6dcbb506fac,61036e8fc5234f1187fb1c72,2021-07-29_23h15.09.069,Simcolourproject_2stim_asymm_v5,2020.2.10,Win32,60,61025ae37ef11b136ea224fe,,,,,,,,,4161,-47,74,1,0,0,response7disk,,0,-12,-1,1,0,0,rectangle,-12,-1,1,0,0,-12,-1,1,0,0,0,44,44,55,1,,,,,,,,
,,,,,,,,,,,,,FF,,,,,,,,1.2999,,,,,,,,,,,,,,,,,,,,,,60fd51ecc8c5b6dcbb506fac,61036e8fc5234f1187fb1c72,2021-07-29_23h15.09.069,Simcolourproject_2stim_asymm_v5,2020.2.10,Win32,60,61025ae37ef11b136ea224fe,,,,,,,,,2346,39,73,1,0,0,response1disk,,7,14,7,1,0,0,rectangle,14,7,1,0,0,14,7,1,0,0,0,45,45,68,1,,,,,,,,
,,,,,,,,,,,,,FF,,,,,,,,1.1167,,,,,,,,,,,,,,,,,,,,,,60fd51ecc8c5b6dcbb506fac,61036e8fc5234f1187fb1c72,2021-07-29_23h15.09.069,Simcolourproject_2stim_asymm_v5,2020.2.10,Win32,60,61025ae37ef11b136ea224fe,,,,,,,,,1857,32,68,1,0,0,response1disk,,7,7,-5,1,0,0,rectangle,7,-5,1,0,0,7,-5,1,0,0,0,46,46,115,1,,,,,,,,
,,,,,,,,,,,,,FF,,,,,,,,1.0833,,,,,,,,,,,,,,,,,,,,,,60fd51ecc8c5b6dcbb506fac,61036e8fc5234f1187fb1c72,2021-07-29_23h15.09.069,Simcolourproject_2stim_asymm_v5,2020.2.10,Win32,60,61025ae37ef11b136ea224fe,,,,,,,,,3600,35,66,1,0,0,response1disk,,7,17,4,1,0,0,rectangle,17,4,1,0,0,17,4,1,0,0,0,47,47,5,1,,,,,,,,
,,,,,,,,,,,,,FF,,,,,,,,1.1002,,,,,,,,,,,,,,,,,,,,,,60fd51ecc8c5b6dcbb506fac,61036e8fc5234f1187fb1c72,2021-07-29_23h15.09.069,Simcolourproject_2stim_asymm_v5,2020.2.10,Win32,60,61025ae37ef11b136ea224fe,,,,,,,,,3527,43,94,1,0,0,response1disk,,7,13,2,1,0,0,rectangle,13,2,1,0,0,13,2,1,0,0,0,48,48,56,1,,,,,,,,
,,,,,,,,,,,,,FF,,,,,,,,1.5002,,,,,,,,,,,,,,,,,,,,,,60fd51ecc8c5b6dcbb506fac,61036e8fc5234f1187fb1c72,2021-07-29_23h15.09.069,Simcolourproject_2stim_asymm_v5,2020.2.10,Win32,60,61025ae37ef11b136ea224fe,,,,,,,,,3750,74,-34,1,0,0,response3disk,,5,12,1,1,0,0,rectangle,12,1,1,0,0,12,1,1,0,0,0,49,49,121,1,,,,,,,,
,,,,,,,,,,,,,FF,,,,,,,,1.05,,,,,,,,,,,,,,,,,,,,,,60fd51ecc8c5b6dcbb506fac,61036e8fc5234f1187fb1c72,2021-07-29_23h15.09.069,Simcolourproject_2stim_asymm_v5,2020.2.10,Win32,60,61025ae37ef11b136ea224fe,,,,,,,,,742,39,68,1,0,0,response1disk,,7,8,-3,1,0,0,rectangle,8,-3,1,0,0,8,-3,1,0,0,0,50,50,145,1,,,,,,,,
,,,,,,,,,,,,,FF,,,,,,,,1.3834,,,,,,,,,,,,,,,,,,,,,,60fd51ecc8c5b6dcbb506fac,61036e8fc5234f1187fb1c72,2021-07-29_23h15.09.069,Simcolourproject_2stim_asymm_v5,2020.2.10,Win32,60,61025ae37ef11b136ea224fe,,,,,,,,,836,26,45,1,0,0,response1disk,,7,9,-4,1,0,0,rectangle,9,-4,1,0,0,9,-4,1,0,0,0,51,51,130,1,,,,,,,,
,,,,,,,,,,,,,FF,,,,,,,,1.0333,,,,,,,,,,,,,,,,,,,,,,60fd51ecc8c5b6dcbb506fac,61036e8fc5234f1187fb1c72,2021-07-29_23h15.09.069,Simcolourproject_2stim_asymm_v5,2020.2.10,Win32,60,61025ae37ef11b136ea224fe,,,,,,,,,2868,34,69,1,0,0,response1disk,,7,12,6,1,0,0,rectangle,12,6,1,0,0,12,6,1,0,0,0,52,52,51,1,,,,,,,,
,,,,,,,,,,,,,FF,,,,,,,,1.0495,,,,,,,,,,,,,,,,,,,,,,60fd51ecc8c5b6dcbb506fac,61036e8fc5234f1187fb1c72,2021-07-29_23h15.09.069,Simcolourproject_2stim_asymm_v5,2020.2.10,Win32,60,61025ae37ef11b136ea224fe,,,,,,,,,124,29,58,1,0,0,response1disk,,7,7,4,1,0,0,rectangle,7,4,1,0,0,7,4,1,0,0,0,53,53,50,1,,,,,,,,
,,,,,,,,,,,,,FF,,,,,,,,3.0168,,,,,,,,,,,,,,,,,,,,,,60fd51ecc8c5b6dcbb506fac,61036e8fc5234f1187fb1c72,2021-07-29_23h15.09.069,Simcolourproject_2stim_asymm_v5,2020.2.10,Win32,60,61025ae37ef11b136ea224fe,,,,,,,,,4099,46,-97,1,0,0,response3disk,,4,11,2,1,0,0,rectangle,11,2,1,0,0,11,2,1,0,0,0,54,54,105,1,,,,,,,,
,,,,,,,,,,,,,FF,,,,,,,,1.5169,,,,,,,,,,,,,,,,,,,,,,60fd51ecc8c5b6dcbb506fac,61036e8fc5234f1187fb1c72,2021-07-29_23h15.09.069,Simcolourproject_2stim_asymm_v5,2020.2.10,Win32,60,61025ae37ef11b136ea224fe,,,,,,,,,772,43,76,1,0,0,response1disk,,7,9,10,1,0,0,rectangle,9,10,1,0,0,9,10,1,0,0,0,55,55,30,1,,,,,,,,
,,,,,,,,,,,,,FF,,,,,,,,1.0831,,,,,,,,,,,,,,,,,,,,,,60fd51ecc8c5b6dcbb506fac,61036e8fc5234f1187fb1c72,2021-07-29_23h15.09.069,Simcolourproject_2stim_asymm_v5,2020.2.10,Win32,60,61025ae37ef11b136ea224fe,,,,,,,,,1717,29,45,1,0,0,response1disk,,7,6,-10,1,0,0,rectangle,6,-10,1,0,0,6,-10,1,0,0,0,56,56,88,1,,,,,,,,
,,,,,,,,,,,,,FF,,,,,,,,1.5833,,,,,,,,,,,,,,,,,,,,,,60fd51ecc8c5b6dcbb506fac,61036e8fc5234f1187fb1c72,2021-07-29_23h15.09.069,Simcolourproject_2stim_asymm_v5,2020.2.10,Win32,60,61025ae37ef11b136ea224fe,,,,,,,,,3684,46,-76,1,0,0,response3disk,,4,22,-9,1,0,0,rectangle,22,-9,1,0,0,22,-9,1,0,0,0,57,57,124,1,,,,,,,,
,,,,,,,,,,,,,FF,,,,,,,,2.6835,,,,,,,,,,,,,,,,,,,,,,60fd51ecc8c5b6dcbb506fac,61036e8fc5234f1187fb1c72,2021-07-29_23h15.09.069,Simcolourproject_2stim_asymm_v5,2020.2.10,Win32,60,61025ae37ef11b136ea224fe,,,,,,,,,983,69,42,1,0,0,response1disk,,6,12,4,1,0,0,rectangle,12,4,1,0,0,12,4,1,0,0,0,58,58,64,1,,,,,,,,
,,,,,,,,,,,,,FF,,,,,,,,1.5669,,,,,,,,,,,,,,,,,,,,,,60fd51ecc8c5b6dcbb506fac,61036e8fc5234f1187fb1c72,2021-07-29_23h15.09.069,Simcolourproject_2stim_asymm_v5,2020.2.10,Win32,60,61025ae37ef11b136ea224fe,,,,,,,,,3496,69,-31,1,0,0,response3disk,,5,24,-1,1,0,0,rectangle,24,-1,1,0,0,24,-1,1,0,0,0,59,59,96,1,,,,,,,,
,,,,,,,,,,,,,FF,,,,,,,,1.1332,,,,,,,,,,,,,,,,,,,,,,60fd51ecc8c5b6dcbb506fac,61036e8fc5234f1187fb1c72,2021-07-29_23h15.09.069,Simcolourproject_2stim_asymm_v5,2020.2.10,Win32,60,61025ae37ef11b136ea224fe,,,,,,,,,4133,45,97,1,0,0,response1disk,,7,12,2,1,0,0,rectangle,12,2,1,0,0,12,2,1,0,0,0,60,60,39,1,,,,,,,,
,,,,,,,,,,,,,FF,,,,,,,,3.0667,,,,,,,,,,,,,,,,,,,,,,60fd51ecc8c5b6dcbb506fac,61036e8fc5234f1187fb1c72,2021-07-29_23h15.09.069,Simcolourproject_2stim_asymm_v5,2020.2.10,Win32,60,61025ae37ef11b136ea224fe,,,,,,,,,1381,83,-41,1,0,0,response3disk,,5,6,8,1,0,0,rectangle,6,8,1,0,0,6,8,1,0,0,0,61,61,116,1,,,,,,,,
,,,,,,,,,,,,,FF,,,,,,,,1.9001,,,,,,,,,,,,,,,,,,,,,,60fd51ecc8c5b6dcbb506fac,61036e8fc5234f1187fb1c72,2021-07-29_23h15.09.069,Simcolourproject_2stim_asymm_v5,2020.2.10,Win32,60,61025ae37ef11b136ea224fe,,,,,,,,,881,71,41,1,0,0,response1disk,,6,9,-2,1,0,0,rectangle,9,-2,1,0,0,9,-2,1,0,0,0,62,62,20,1,,,,,,,,
,,,,,,,,,,,,,FF,,,,,,,,1.1642,,,,,,,,,,,,,,,,,,,,,,60fd51ecc8c5b6dcbb506fac,61036e8fc5234f1187fb1c72,2021-07-29_23h15.09.069,Simcolourproject_2stim_asymm_v5,2020.2.10,Win32,60,61025ae37ef11b136ea224fe,,,,,,,,,4307,38,90,1,0,0,response1disk,,7,12,5,1,0,0,rectangle,12,5,1,0,0,12,5,1,0,0,0,63,63,81,1,,,,,,,,
,,,,,,,,,,,,,FF,,,,,,,,2.3166,,,,,,,,,,,,,,,,,,,,,,60fd51ecc8c5b6dcbb506fac,61036e8fc5234f1187fb1c72,2021-07-29_23h15.09.069,Simcolourproject_2stim_asymm_v5,2020.2.10,Win32,60,61025ae37ef11b136ea224fe,,,,,,,,,3354,35,76,1,0,0,response1disk,,7,13,7,1,0,0,rectangle,13,7,1,0,0,13,7,1,0,0,0,64,64,47,1,,,,,,,,
,,,,,,,,,,,,,FF,,,,,,,,2.7833,,,,,,,,,,,,,,,,,,,,,,60fd51ecc8c5b6dcbb506fac,61036e8fc5234f1187fb1c72,2021-07-29_23h15.09.069,Simcolourproject_2stim_asymm_v5,2020.2.10,Win32,60,61025ae37ef11b136ea224fe,,,,,,,,,3409,109,-36,1,0,0,response3disk,,5,18,1,1,0,0,rectangle,18,1,1,0,0,18,1,1,0,0,0,65,65,108,1,,,,,,,,
,,,,,,,,,,,,,FF,,,,,,,,1.636,,,,,,,,,,,,,,,,,,,,,,60fd51ecc8c5b6dcbb506fac,61036e8fc5234f1187fb1c72,2021-07-29_23h15.09.069,Simcolourproject_2stim_asymm_v5,2020.2.10,Win32,60,61025ae37ef11b136ea224fe,,,,,,,,,2900,-35,-69,1,0,0,response5disk,,3,-4,-5,1,0,0,rectangle,-4,-5,1,0,0,-4,-5,1,0,0,0,66,66,148,1,,,,,,,,
,,,,,,,,,,,,,FF,,,,,,,,1.3003,,,,,,,,,,,,,,,,,,,,,,60fd51ecc8c5b6dcbb506fac,61036e8fc5234f1187fb1c72,2021-07-29_23h15.09.069,Simcolourproject_2stim_asymm_v5,2020.2.10,Win32,60,61025ae37ef11b136ea224fe,,,,,,,,,205,56,-31,1,0,0,response3disk,,5,11,9,1,0,0,rectangle,11,9,1,0,0,11,9,1,0,0,0,67,67,139,1,,,,,,,,
,,,,,,,,,,,,,FF,,,,,,,,1.1,,,,,,,,,,,,,,,,,,,,,,60fd51ecc8c5b6dcbb506fac,61036e8fc5234f1187fb1c72,2021-07-29_23h15.09.069,Simcolourproject_2stim_asymm_v5,2020.2.10,Win32,60,61025ae37ef11b136ea224fe,,,,,,,,,3197,-59,-21,1,0,0,response5disk,,2,-4,7,1,0,0,rectangle,-4,7,1,0,0,-4,7,1,0,0,0,68,68,132,1,,,,,,,,
,,,,,,,,,,,,,FF,,,,,,,,1.1667,,,,,,,,,,,,,,,,,,,,,,60fd51ecc8c5b6dcbb506fac,61036e8fc5234f1187fb1c72,2021-07-29_23h15.09.069,Simcolourproject_2stim_asymm_v5,2020.2.10,Win32,60,61025ae37ef11b136ea224fe,,,,,,,,,3796,69,26,1,0,0,response1disk,,6,29,5,1,0,0,rectangle,29,5,1,0,0,29,5,1,0,0,0,69,69,158,1,,,,,,,,
,,,,,,,,,,,,,FF,,,,,,,,1.35,,,,,,,,,,,,,,,,,,,,,,60fd51ecc8c5b6dcbb506fac,61036e8fc5234f1187fb1c72,2021-07-29_23h15.09.069,Simcolourproject_2stim_asymm_v5,2020.2.10,Win32,60,61025ae37ef11b136ea224fe,,,,,,,,,2246,72,36,1,0,0,response1disk,,6,18,3,1,0,0,rectangle,18,3,1,0,0,18,3,1,0,0,0,70,70,26,1,,,,,,,,
,,,,,,,,,,,,,FF,,,,,,,,1.5666,,,,,,,,,,,,,,,,,,,,,,60fd51ecc8c5b6dcbb506fac,61036e8fc5234f1187fb1c72,2021-07-29_23h15.09.069,Simcolourproject_2stim_asymm_v5,2020.2.10,Win32,60,61025ae37ef11b136ea224fe,,,,,,,,,2939,65,56,1,0,0,response1disk,,6,9,0,1,0,0,rectangle,9,0,1,0,0,9,0,1,0,0,0,71,71,65,1,,,,,,,,
,,,,,,,,,,,,,FF,,,,,,,,1.7666,,,,,,,,,,,,,,,,,,,,,,60fd51ecc8c5b6dcbb506fac,61036e8fc5234f1187fb1c72,2021-07-29_23h15.09.069,Simcolourproject_2stim_asymm_v5,2020.2.10,Win32,60,61025ae37ef11b136ea224fe,,,,,,,,,3951,37,72,1,0,0,response1disk,,7,11,6,1,0,0,rectangle,11,6,1,0,0,11,6,1,0,0,0,72,72,109,1,,,,,,,,
,,,,,,,,,,,,,FF,,,,,,,,1.2169,,,,,,,,,,,,,,,,,,,,,,60fd51ecc8c5b6dcbb506fac,61036e8fc5234f1187fb1c72,2021-07-29_23h15.09.069,Simcolourproject_2stim_asymm_v5,2020.2.10,Win32,60,61025ae37ef11b136ea224fe,,,,,,,,,4089,30,41,1,0,0,response1disk,,7,17,9,1,0,0,rectangle,17,9,1,0,0,17,9,1,0,0,0,73,73,97,1,,,,,,,,
,,,,,,,,,,,,,FF,,,,,,,,1.0168,,,,,,,,,,,,,,,,,,,,,,60fd51ecc8c5b6dcbb506fac,61036e8fc5234f1187fb1c72,2021-07-29_23h15.09.069,Simcolourproject_2stim_asymm_v5,2020.2.10,Win32,60,61025ae37ef11b136ea224fe,,,,,,,,,1033,41,55,1,0,0,response1disk,,7,22,8,1,0,0,rectangle,22,8,1,0,0,22,8,1,0,0,0,74,74,35,1,,,,,,,,
,,,,,,,,,,,,,FF,,,,,,,,1.8838,,,,,,,,,,,,,,,,,,,,,,60fd51ecc8c5b6dcbb506fac,61036e8fc5234f1187fb1c72,2021-07-29_23h15.09.069,Simcolourproject_2stim_asymm_v5,2020.2.10,Win32,60,61025ae37ef11b136ea224fe,,,,,,,,,4141,45,-73,1,0,0,response3disk,,4,4,2,1,0,0,rectangle,4,2,1,0,0,4,2,1,0,0,0,75,75,52,1,,,,,,,,
,,,,,,,,,,,,,FF,,,,,,,,1.0835,,,,,,,,,,,,,,,,,,,,,,60fd51ecc8c5b6dcbb506fac,61036e8fc5234f1187fb1c72,2021-07-29_23h15.09.069,Simcolourproject_2stim_asymm_v5,2020.2.10,Win32,60,61025ae37ef11b136ea224fe,,,,,,,,,4086,40,79,1,0,0,response1disk,,7,8,6,1,0,0,rectangle,78,-58,1,0,0,2,-9,1,0,0,0,76,76,7,1,,response3disk_3,TRUE,5,5,"[181,309,268,185,289,185,277,26,230,172,186,309,121,214,77,84,316,28,113,132]",2.2342,rectangle
,,,,,,,,,,,,,FF,,,,,,,,1.6666,,,,,,,,,,,,,,,,,,,,,,60fd51ecc8c5b6dcbb506fac,61036e8fc5234f1187fb1c72,2021-07-29_23h15.09.069,Simcolourproject_2stim_asymm_v5,2020.2.10,Win32,60,61025ae37ef11b136ea224fe,,,,,,,,,1813,71,-33,1,0,0,response3disk,,5,-2,2,1,0,0,rectangle,-2,2,1,0,0,-2,2,1,0,0,0,77,77,140,1,,,,,,,,
,,,,,,,,,,,,,FF,,,,,,,,2.9334,,,,,,,,,,,,,,,,,,,,,,60fd51ecc8c5b6dcbb506fac,61036e8fc5234f1187fb1c72,2021-07-29_23h15.09.069,Simcolourproject_2stim_asymm_v5,2020.2.10,Win32,60,61025ae37ef11b136ea224fe,,,,,,,,,37,74,51,1,0,0,response1disk,,6,-2,-1,1,0,0,rectangle,-2,-1,1,0,0,-2,-1,1,0,0,0,78,78,129,1,,,,,,,,
,,,,,,,,,,,,,FF,,,,,,,,1.5167,,,,,,,,,,,,,,,,,,,,,,60fd51ecc8c5b6dcbb506fac,61036e8fc5234f1187fb1c72,2021-07-29_23h15.09.069,Simcolourproject_2stim_asymm_v5,2020.2.10,Win32,60,61025ae37ef11b136ea224fe,,,,,,,,,402,61,75,1,0,0,response1disk,,7,28,10,1,0,0,rectangle,28,10,1,0,0,28,10,1,0,0,0,79,79,122,1,,,,,,,,
,,,,,,,,,,,,,FF,,,,,,,,1.5336,,,,,,,,,,,,,,,,,,,,,,60fd51ecc8c5b6dcbb506fac,61036e8fc5234f1187fb1c72,2021-07-29_23h15.09.069,Simcolourproject_2stim_asymm_v5,2020.2.10,Win32,60,61025ae37ef11b136ea224fe,,,,,,,,,3872,48,84,1,0,0,response1disk,,7,-4,-4,1,0,0,rectangle,-4,-4,1,0,0,-4,-4,1,0,0,0,80,80,82,1,,,,,,,,
,,,,,,,,,,,,,FF,,,,,,,,1.2333,,,,,,,,,,,,,,,,,,,,,,60fd51ecc8c5b6dcbb506fac,61036e8fc5234f1187fb1c72,2021-07-29_23h15.09.069,Simcolourproject_2stim_asymm_v5,2020.2.10,Win32,60,61025ae37ef11b136ea224fe,,,,,,,,,701,70,-46,1,0,0,response3disk,,5,19,1,1,0,0,rectangle,19,1,1,0,0,19,1,1,0,0,0,81,81,48,1,,,,,,,,
,,,,,,,,,,,,,FF,,,,,,,,1.5499,,,,,,,,,,,,,,,,,,,,,,60fd51ecc8c5b6dcbb506fac,61036e8fc5234f1187fb1c72,2021-07-29_23h15.09.069,Simcolourproject_2stim_asymm_v5,2020.2.10,Win32,60,61025ae37ef11b136ea224fe,,,,,,,,,1201,22,43,1,0,0,response1disk,,7,9,1,1,0,0,rectangle,9,1,1,0,0,9,1,1,0,0,0,82,82,1,1,,,,,,,,
,,,,,,,,,,,,,FF,,,,,,,,1.0003,,,,,,,,,,,,,,,,,,,,,,60fd51ecc8c5b6dcbb506fac,61036e8fc5234f1187fb1c72,2021-07-29_23h15.09.069,Simcolourproject_2stim_asymm_v5,2020.2.10,Win32,60,61025ae37ef11b136ea224fe,,,,,,,,,417,34,62,1,0,0,response1disk,,7,12,-6,1,0,0,rectangle,-78,-29,1,0,0,-11,-5,1,0,0,0,83,83,0,1,,response5disk_3,TRUE,2,2,"[181,309,268,185,289,185,277,26,230,172,186,309,121,214,77,84,316,28,113,132]",2.2997,rectangle
,,,,,,,,,,,,,FF,,,,,,,,2.3331,,,,,,,,,,,,,,,,,,,,,,60fd51ecc8c5b6dcbb506fac,61036e8fc5234f1187fb1c72,2021-07-29_23h15.09.069,Simcolourproject_2stim_asymm_v5,2020.2.10,Win32,60,61025ae37ef11b136ea224fe,,,,,,,,,999,77,28,1,0,0,response1disk,,6,21,0,1,0,0,rectangle,21,0,1,0,0,21,0,1,0,0,0,84,84,22,1,,,,,,,,
,,,,,,,,,,,,,FF,,,,,,,,1.4835,,,,,,,,,,,,,,,,,,,,,,60fd51ecc8c5b6dcbb506fac,61036e8fc5234f1187fb1c72,2021-07-29_23h15.09.069,Simcolourproject_2stim_asymm_v5,2020.2.10,Win32,60,61025ae37ef11b136ea224fe,,,,,,,,,1181,39,69,1,0,0,response1disk,,7,-6,-13,1,0,0,rectangle,-6,-13,1,0,0,-6,-13,1,0,0,0,85,85,71,1,,,,,,,,
,,,,,,,,,,,,,FF,,,,,,,,1.3501,,,,,,,,,,,,,,,,,,,,,,60fd51ecc8c5b6dcbb506fac,61036e8fc5234f1187fb1c72,2021-07-29_23h15.09.069,Simcolourproject_2stim_asymm_v5,2020.2.10,Win32,60,61025ae37ef11b136ea224fe,,,,,,,,,798,71,-38,1,0,0,response3disk,,5,23,-7,1,0,0,rectangle,23,-7,1,0,0,23,-7,1,0,0,0,86,86,127,1,,,,,,,,
,,,,,,,,,,,,,FF,,,,,,,,1.281,,,,,,,,,,,,,,,,,,,,,,60fd51ecc8c5b6dcbb506fac,61036e8fc5234f1187fb1c72,2021-07-29_23h15.09.069,Simcolourproject_2stim_asymm_v5,2020.2.10,Win32,60,61025ae37ef11b136ea224fe,,,,,,,,,790,31,66,1,0,0,response1disk,,7,3,4,1,0,0,rectangle,3,4,1,0,0,3,4,1,0,0,0,87,87,74,1,,,,,,,,
,,,,,,,,,,,,,FF,,,,,,,,1.2999,,,,,,,,,,,,,,,,,,,,,,60fd51ecc8c5b6dcbb506fac,61036e8fc5234f1187fb1c72,2021-07-29_23h15.09.069,Simcolourproject_2stim_asymm_v5,2020.2.10,Win32,60,61025ae37ef11b136ea224fe,,,,,,,,,870,68,28,1,0,0,response1disk,,6,26,-1,1,0,0,rectangle,26,-1,1,0,0,26,-1,1,0,0,0,88,88,46,1,,,,,,,,
,,,,,,,,,,,,,FF,,,,,,,,1.3334,,,,,,,,,,,,,,,,,,,,,,60fd51ecc8c5b6dcbb506fac,61036e8fc5234f1187fb1c72,2021-07-29_23h15.09.069,Simcolourproject_2stim_asymm_v5,2020.2.10,Win32,60,61025ae37ef11b136ea224fe,,,,,,,,,2671,25,-49,1,0,0,response3disk,,4,5,11,1,0,0,rectangle,5,11,1,0,0,5,11,1,0,0,0,89,89,19,1,,,,,,,,
,,,,,,,,,,,,,FF,,,,,,,,1.1834,,,,,,,,,,,,,,,,,,,,,,60fd51ecc8c5b6dcbb506fac,61036e8fc5234f1187fb1c72,2021-07-29_23h15.09.069,Simcolourproject_2stim_asymm_v5,2020.2.10,Win32,60,61025ae37ef11b136ea224fe,,,,,,,,,2504,46,95,1,0,0,response1disk,,7,14,5,1,0,0,rectangle,14,5,1,0,0,14,5,1,0,0,0,90,90,58,1,,,,,,,,
,,,,,,,,,,,,,FF,,,,,,,,1.1167,,,,,,,,,,,,,,,,,,,,,,60fd51ecc8c5b6dcbb506fac,61036e8fc5234f1187fb1c72,2021-07-29_23h15.09.069,Simcolourproject_2stim_asymm_v5,2020.2.10,Win32,60,61025ae37ef11b136ea224fe,,,,,,,,,1162,28,61,1,0,0,response1disk,,7,6,13,1,0,0,rectangle,6,13,1,0,0,6,13,1,0,0,0,91,91,32,1,,,,,,,,
,,,,,,,,,,,,,FF,,,,,,,,2.5501,,,,,,,,,,,,,,,,,,,,,,60fd51ecc8c5b6dcbb506fac,61036e8fc5234f1187fb1c72,2021-07-29_23h15.09.069,Simcolourproject_2stim_asymm_v5,2020.2.10,Win32,60,61025ae37ef11b136ea224fe,,,,,,,,,1326,91,-32,1,0,0,response3disk,,5,18,-1,1,0,0,rectangle,18,-1,1,0,0,18,-1,1,0,0,0,92,92,119,1,,,,,,,,
,,,,,,,,,,,,,FF,,,,,,,,1.3,,,,,,,,,,,,,,,,,,,,,,60fd51ecc8c5b6dcbb506fac,61036e8fc5234f1187fb1c72,2021-07-29_23h15.09.069,Simcolourproject_2stim_asymm_v5,2020.2.10,Win32,60,61025ae37ef11b136ea224fe,,,,,,,,,3001,45,66,1,0,0,response1disk,,7,13,-2,1,0,0,rectangle,13,-2,1,0,0,13,-2,1,0,0,0,93,93,90,1,,,,,,,,
,,,,,,,,,,,,,FF,,,,,,,,1.9502,,,,,,,,,,,,,,,,,,,,,,60fd51ecc8c5b6dcbb506fac,61036e8fc5234f1187fb1c72,2021-07-29_23h15.09.069,Simcolourproject_2stim_asymm_v5,2020.2.10,Win32,60,61025ae37ef11b136ea224fe,,,,,,,,,4154,63,41,1,0,0,response1disk,,6,18,1,1,0,0,rectangle,18,1,1,0,0,18,1,1,0,0,0,94,94,78,1,,,,,,,,
,,,,,,,,,,,,,FF,,,,,,,,1.3666,,,,,,,,,,,,,,,,,,,,,,60fd51ecc8c5b6dcbb506fac,61036e8fc5234f1187fb1c72,2021-07-29_23h15.09.069,Simcolourproject_2stim_asymm_v5,2020.2.10,Win32,60,61025ae37ef11b136ea224fe,,,,,,,,,1874,72,-39,1,0,0,response3disk,,5,7,4,1,0,0,rectangle,7,4,1,0,0,7,4,1,0,0,0,95,95,133,1,,,,,,,,
,,,,,,,,,,,,,FF,,,,,,,,2.0501,,,,,,,,,,,,,,,,,,,,,,60fd51ecc8c5b6dcbb506fac,61036e8fc5234f1187fb1c72,2021-07-29_23h15.09.069,Simcolourproject_2stim_asymm_v5,2020.2.10,Win32,60,61025ae37ef11b136ea224fe,,,,,,,,,1076,62,33,1,0,0,response1disk,,6,0,3,1,0,0,rectangle,0,3,1,0,0,0,3,1,0,0,0,96,96,134,1,,,,,,,,
,,,,,,,,,,,,,FF,,,,,,,,1.2365,,,,,,,,,,,,,,,,,,,,,,60fd51ecc8c5b6dcbb506fac,61036e8fc5234f1187fb1c72,2021-07-29_23h15.09.069,Simcolourproject_2stim_asymm_v5,2020.2.10,Win32,60,61025ae37ef11b136ea224fe,,,,,,,,,3794,49,20,1,0,0,response1disk,,6,23,-4,1,0,0,rectangle,23,-4,1,0,0,23,-4,1,0,0,0,97,97,144,1,,,,,,,,
,,,,,,,,,,,,,FF,,,,,,,,1.6474,,,,,,,,,,,,,,,,,,,,,,60fd51ecc8c5b6dcbb506fac,61036e8fc5234f1187fb1c72,2021-07-29_23h15.09.069,Simcolourproject_2stim_asymm_v5,2020.2.10,Win32,60,61025ae37ef11b136ea224fe,,,,,,,,,241,64,40,1,0,0,response1disk,,6,15,-5,1,0,0,rectangle,15,-5,1,0,0,15,-5,1,0,0,0,98,98,41,1,,,,,,,,
,,,,,,,,,,,,,FF,,,,,,,,1.2664,,,,,,,,,,,,,,,,,,,,,,60fd51ecc8c5b6dcbb506fac,61036e8fc5234f1187fb1c72,2021-07-29_23h15.09.069,Simcolourproject_2stim_asymm_v5,2020.2.10,Win32,60,61025ae37ef11b136ea224fe,,,,,,,,,4191,22,64,1,0,0,response1disk,,7,2,-2,1,0,0,rectangle,2,-2,1,0,0,2,-2,1,0,0,0,99,99,62,1,,,,,,,,
,,,,,,,,,,,,,FF,,,,,,,,2.0835,,,,,,,,,,,,,,,,,,,,,,60fd51ecc8c5b6dcbb506fac,61036e8fc5234f1187fb1c72,2021-07-29_23h15.09.069,Simcolourproject_2stim_asymm_v5,2020.2.10,Win32,60,61025ae37ef11b136ea224fe,,,,,,,,,3998,-80,-59,1,0,0,response5disk,,2,1,6,1,0,0,rectangle,1,6,1,0,0,1,6,1,0,0,0,100,100,137,1,,,,,,,,
,,,,,,,,,,,,,FF,,,,,,,,1.3334,,,,,,,,,,,,,,,,,,,,,,60fd51ecc8c5b6dcbb506fac,61036e8fc5234f1187fb1c72,2021-07-29_23h15.09.069,Simcolourproject_2stim_asymm_v5,2020.2.10,Win32,60,61025ae37ef11b136ea224fe,,,,,,,,,2733,-44,-61,1,0,0,response5disk,,3,-8,-10,1,0,0,rectangle,-8,-10,1,0,0,-8,-10,1,0,0,0,101,101,33,1,,,,,,,,
,,,,,,,,,,,,,FF,,,,,,,,1.3501,,,,,,,,,,,,,,,,,,,,,,60fd51ecc8c5b6dcbb506fac,61036e8fc5234f1187fb1c72,2021-07-29_23h15.09.069,Simcolourproject_2stim_asymm_v5,2020.2.10,Win32,60,61025ae37ef11b136ea224fe,,,,,,,,,519,31,62,1,0,0,response1disk,,7,14,4,1,0,0,rectangle,14,4,1,0,0,14,4,1,0,0,0,102,102,8,1,,,,,,,,
,,,,,,,,,,,,,FF,,,,,,,,1.4832,,,,,,,,,,,,,,,,,,,,,,60fd51ecc8c5b6dcbb506fac,61036e8fc5234f1187fb1c72,2021-07-29_23h15.09.069,Simcolourproject_2stim_asymm_v5,2020.2.10,Win32,60,61025ae37ef11b136ea224fe,,,,,,,,,3252,-36,-82,1,0,0,response5disk,,3,-1,1,1,0,0,rectangle,-1,1,1,0,0,-1,1,1,0,0,0,103,103,40,1,,,,,,,,
,,,,,,,,,,,,,FF,,,,,,,,1.6002,,,,,,,,,,,,,,,,,,,,,,60fd51ecc8c5b6dcbb506fac,61036e8fc5234f1187fb1c72,2021-07-29_23h15.09.069,Simcolourproject_2stim_asymm_v5,2020.2.10,Win32,60,61025ae37ef11b136ea224fe,,,,,,,,,1197,69,-42,1,0,0,response3disk,,5,16,-11,1,0,0,rectangle,16,-11,1,0,0,16,-11,1,0,0,0,104,104,17,1,,,,,,,,
,,,,,,,,,,,,,FF,,,,,,,,1.5501,,,,,,,,,,,,,,,,,,,,,,60fd51ecc8c5b6dcbb506fac,61036e8fc5234f1187fb1c72,2021-07-29_23h15.09.069,Simcolourproject_2stim_asymm_v5,2020.2.10,Win32,60,61025ae37ef11b136ea224fe,,,,,,,,,1639,44,80,1,0,0,response1disk,,7,5,1,1,0,0,rectangle,5,1,1,0,0,5,1,1,0,0,0,105,105,43,1,,,,,,,,
,,,,,,,,,,,,,FF,,,,,,,,1.5336,,,,,,,,,,,,,,,,,,,,,,60fd51ecc8c5b6dcbb506fac,61036e8fc5234f1187fb1c72,2021-07-29_23h15.09.069,Simcolourproject_2stim_asymm_v5,2020.2.10,Win32,60,61025ae37ef11b136ea224fe,,,,,,,,,4298,72,-45,1,0,0,response3disk,,5,23,-6,1,0,0,rectangle,23,-6,1,0,0,23,-6,1,0,0,0,106,106,152,1,,,,,,,,
,,,,,,,,,,,,,FF,,,,,,,,1.7668,,,,,,,,,,,,,,,,,,,,,,60fd51ecc8c5b6dcbb506fac,61036e8fc5234f1187fb1c72,2021-07-29_23h15.09.069,Simcolourproject_2stim_asymm_v5,2020.2.10,Win32,60,61025ae37ef11b136ea224fe,,,,,,,,,3638,33,63,1,0,0,response1disk,,7,8,-1,1,0,0,rectangle,8,-1,1,0,0,8,-1,1,0,0,0,107,107,49,1,,,,,,,,
,,,,,,,,,,,,,FF,,,,,,,,1.2501,,,,,,,,,,,,,,,,,,,,,,60fd51ecc8c5b6dcbb506fac,61036e8fc5234f1187fb1c72,2021-07-29_23h15.09.069,Simcolourproject_2stim_asymm_v5,2020.2.10,Win32,60,61025ae37ef11b136ea224fe,,,,,,,,,2029,31,-73,1,0,0,response3disk,,4,15,-15,1,0,0,rectangle,15,-15,1,0,0,15,-15,1,0,0,0,108,108,2,1,,,,,,,,
,,,,,,,,,,,,,FF,,,,,,,,1.8001,,,,,,,,,,,,,,,,,,,,,,60fd51ecc8c5b6dcbb506fac,61036e8fc5234f1187fb1c72,2021-07-29_23h15.09.069,Simcolourproject_2stim_asymm_v5,2020.2.10,Win32,60,61025ae37ef11b136ea224fe,,,,,,,,,1085,40,75,1,0,0,response1disk,,7,12,5,1,0,0,rectangle,12,5,1,0,0,12,5,1,0,0,0,109,109,113,1,,,,,,,,
,,,,,,,,,,,,,FF,,,,,,,,1.3833,,,,,,,,,,,,,,,,,,,,,,60fd51ecc8c5b6dcbb506fac,61036e8fc5234f1187fb1c72,2021-07-29_23h15.09.069,Simcolourproject_2stim_asymm_v5,2020.2.10,Win32,60,61025ae37ef11b136ea224fe,,,,,,,,,3943,-40,-80,1,0,0,response5disk,,3,-2,-2,1,0,0,rectangle,-2,-2,1,0,0,-2,-2,1,0,0,0,110,110,25,1,,,,,,,,
,,,,,,,,,,,,,FF,,,,,,,,1.4001,,,,,,,,,,,,,,,,,,,,,,60fd51ecc8c5b6dcbb506fac,61036e8fc5234f1187fb1c72,2021-07-29_23h15.09.069,Simcolourproject_2stim_asymm_v5,2020.2.10,Win32,60,61025ae37ef11b136ea224fe,,,,,,,,,611,71,-26,1,0,0,response3disk,,5,13,5,1,0,0,rectangle,13,5,1,0,0,13,5,1,0,0,0,111,111,143,1,,,,,,,,
,,,,,,,,,,,,,FF,,,,,,,,1.0501,,,,,,,,,,,,,,,,,,,,,,60fd51ecc8c5b6dcbb506fac,61036e8fc5234f1187fb1c72,2021-07-29_23h15.09.069,Simcolourproject_2stim_asymm_v5,2020.2.10,Win32,60,61025ae37ef11b136ea224fe,,,,,,,,,1711,33,57,1,0,0,response1disk,,7,13,1,1,0,0,rectangle,92,41,1,0,0,9,1,1,0,0,0,112,112,103,1,,response1disk_3,TRUE,6,6,"[181,309,268,185,289,185,277,26,230,172,186,309,121,214,77,84,316,28,113,132]",2.4508,rectangle
,,,,,,,,,,,,,FF,,,,,,,,1.4166,,,,,,,,,,,,,,,,,,,,,,60fd51ecc8c5b6dcbb506fac,61036e8fc5234f1187fb1c72,2021-07-29_23h15.09.069,Simcolourproject_2stim_asymm_v5,2020.2.10,Win32,60,61025ae37ef11b136ea224fe,,,,,,,,,2378,36,-72,1,0,0,response3disk,,4,-12,14,1,0,0,rectangle,-12,14,1,0,0,-12,14,1,0,0,0,113,113,120,1,,,,,,,,
,,,,,,,,,,,,,FF,,,,,,,,1.3666,,,,,,,,,,,,,,,,,,,,,,60fd51ecc8c5b6dcbb506fac,61036e8fc5234f1187fb1c72,2021-07-29_23h15.09.069,Simcolourproject_2stim_asymm_v5,2020.2.10,Win32,60,61025ae37ef11b136ea224fe,,,,,,,,,2082,47,62,1,0,0,response1disk,,7,8,2,1,0,0,rectangle,8,2,1,0,0,8,2,1,0,0,0,114,114,136,1,,,,,,,,
,,,,,,,,,,,,,FF,,,,,,,,1.7,,,,,,,,,,,,,,,,,,,,,,60fd51ecc8c5b6dcbb506fac,61036e8fc5234f1187fb1c72,2021-07-29_23h15.09.069,Simcolourproject_2stim_asymm_v5,2020.2.10,Win32,60,61025ae37ef11b136ea224fe,,,,,,,,,3063,96,44,1,0,0,response1disk,,6,21,0,1,0,0,rectangle,21,0,1,0,0,21,0,1,0,0,0,115,115,111,1,,,,,,,,
,,,,,,,,,,,,,FF,,,,,,,,1.0167,,,,,,,,,,,,,,,,,,,,,,60fd51ecc8c5b6dcbb506fac,61036e8fc5234f1187fb1c72,2021-07-29_23h15.09.069,Simcolourproject_2stim_asymm_v5,2020.2.10,Win32,60,61025ae37ef11b136ea224fe,,,,,,,,,4234,34,62,1,0,0,response1disk,,7,3,0,1,0,0,rectangle,3,0,1,0,0,3,0,1,0,0,0,116,116,123,1,,,,,,,,
,,,,,,,,,,,,,FF,,,,,,,,1.4666,,,,,,,,,,,,,,,,,,,,,,60fd51ecc8c5b6dcbb506fac,61036e8fc5234f1187fb1c72,2021-07-29_23h15.09.069,Simcolourproject_2stim_asymm_v5,2020.2.10,Win32,60,61025ae37ef11b136ea224fe,,,,,,,,,202,22,74,1,0,0,response1disk,,7,-3,11,1,0,0,rectangle,-3,11,1,0,0,-3,11,1,0,0,0,117,117,93,1,,,,,,,,
,,,,,,,,,,,,,FF,,,,,,,,1.2834,,,,,,,,,,,,,,,,,,,,,,60fd51ecc8c5b6dcbb506fac,61036e8fc5234f1187fb1c72,2021-07-29_23h15.09.069,Simcolourproject_2stim_asymm_v5,2020.2.10,Win32,60,61025ae37ef11b136ea224fe,,,,,,,,,1364,64,-37,1,0,0,response3disk,,5,14,6,1,0,0,rectangle,14,6,1,0,0,14,6,1,0,0,0,118,118,37,1,,,,,,,,
,,,,,,,,,,,,,FF,,,,,,,,1.0981,,,,,,,,,,,,,,,,,,,,,,60fd51ecc8c5b6dcbb506fac,61036e8fc5234f1187fb1c72,2021-07-29_23h15.09.069,Simcolourproject_2stim_asymm_v5,2020.2.10,Win32,60,61025ae37ef11b136ea224fe,,,,,,,,,792,43,72,1,0,0,response1disk,,7,11,5,1,0,0,rectangle,11,5,1,0,0,11,5,1,0,0,0,119,119,147,1,,,,,,,,
,,,,,,,,,,,,,FF,,,,,,,,1.3833,,,,,,,,,,,,,,,,,,,,,,60fd51ecc8c5b6dcbb506fac,61036e8fc5234f1187fb1c72,2021-07-29_23h15.09.069,Simcolourproject_2stim_asymm_v5,2020.2.10,Win32,60,61025ae37ef11b136ea224fe,,,,,,,,,4346,-39,-74,1,0,0,response5disk,,3,-7,-7,1,0,0,rectangle,-86,47,1,0,0,14,1,1,0,0,0,120,120,29,1,,response7disk_3,TRUE,1,1,"[181,309,268,185,289,185,277,26,230,172,186,309,121,214,77,84,316,28,113,132]",2.4498,rectangle
,,,,,,,,,,,,,FF,,,,,,,,1.4334,,,,,,,,,,,,,,,,,,,,,,60fd51ecc8c5b6dcbb506fac,61036e8fc5234f1187fb1c72,2021-07-29_23h15.09.069,Simcolourproject_2stim_asymm_v5,2020.2.10,Win32,60,61025ae37ef11b136ea224fe,,,,,,,,,3316,38,100,1,0,0,response1disk,,7,-1,6,1,0,0,rectangle,-1,6,1,0,0,-1,6,1,0,0,0,121,121,9,1,,,,,,,,
,,,,,,,,,,,,,FF,,,,,,,,1.2508,,,,,,,,,,,,,,,,,,,,,,60fd51ecc8c5b6dcbb506fac,61036e8fc5234f1187fb1c72,2021-07-29_23h15.09.069,Simcolourproject_2stim_asymm_v5,2020.2.10,Win32,60,61025ae37ef11b136ea224fe,,,,,,,,,1664,36,69,1,0,0,response1disk,,7,-2,3,1,0,0,rectangle,-2,3,1,0,0,-2,3,1,0,0,0,122,122,11,1,,,,,,,,
,,,,,,,,,,,,,FF,,,,,,,,1.05,,,,,,,,,,,,,,,,,,,,,,60fd51ecc8c5b6dcbb506fac,61036e8fc5234f1187fb1c72,2021-07-29_23h15.09.069,Simcolourproject_2stim_asymm_v5,2020.2.10,Win32,60,61025ae37ef11b136ea224fe,,,,,,,,,2981,41,86,1,0,0,response1disk,,7,-3,-6,1,0,0,rectangle,-3,-6,1,0,0,-3,-6,1,0,0,0,123,123,10,1,,,,,,,,
,,,,,,,,,,,,,FF,,,,,,,,1.1335,,,,,,,,,,,,,,,,,,,,,,60fd51ecc8c5b6dcbb506fac,61036e8fc5234f1187fb1c72,2021-07-29_23h15.09.069,Simcolourproject_2stim_asymm_v5,2020.2.10,Win32,60,61025ae37ef11b136ea224fe,,,,,,,,,2877,31,54,1,0,0,response1disk,,7,13,7,1,0,0,rectangle,13,7,1,0,0,13,7,1,0,0,0,124,124,138,1,,,,,,,,
,,,,,,,,,,,,,FF,,,,,,,,1.05,,,,,,,,,,,,,,,,,,,,,,60fd51ecc8c5b6dcbb506fac,61036e8fc5234f1187fb1c72,2021-07-29_23h15.09.069,Simcolourproject_2stim_asymm_v5,2020.2.10,Win32,60,61025ae37ef11b136ea224fe,,,,,,,,,2321,41,67,1,0,0,response1disk,,7,13,3,1,0,0,rectangle,13,3,1,0,0,13,3,1,0,0,0,125,125,106,1,,,,,,,,
,,,,,,,,,,,,,FF,,,,,,,,1.0319,,,,,,,,,,,,,,,,,,,,,,60fd51ecc8c5b6dcbb506fac,61036e8fc5234f1187fb1c72,2021-07-29_23h15.09.069,Simcolourproject_2stim_asymm_v5,2020.2.10,Win32,60,61025ae37ef11b136ea224fe,,,,,,,,,1005,31,57,1,0,0,response1disk,,7,9,7,1,0,0,rectangle,9,7,1,0,0,9,7,1,0,0,0,126,126,14,1,,,,,,,,
,,,,,,,,,,,,,FF,,,,,,,,0.9334,,,,,,,,,,,,,,,,,,,,,,60fd51ecc8c5b6dcbb506fac,61036e8fc5234f1187fb1c72,2021-07-29_23h15.09.069,Simcolourproject_2stim_asymm_v5,2020.2.10,Win32,60,61025ae37ef11b136ea224fe,,,,,,,,,1656,27,44,1,0,0,response1disk,,7,15,14,1,0,0,rectangle,15,14,1,0,0,15,14,1,0,0,0,127,127,4,1,,,,,,,,
,,,,,,,,,,,,,FF,,,,,,,,1.1336,,,,,,,,,,,,,,,,,,,,,,60fd51ecc8c5b6dcbb506fac,61036e8fc5234f1187fb1c72,2021-07-29_23h15.09.069,Simcolourproject_2stim_asymm_v5,2020.2.10,Win32,60,61025ae37ef11b136ea224fe,,,,,,,,,3961,32,65,1,0,0,response1disk,,7,8,3,1,0,0,rectangle,8,3,1,0,0,8,3,1,0,0,0,128,128,66,1,,,,,,,,
,,,,,,,,,,,,,FF,,,,,,,,1.0334,,,,,,,,,,,,,,,,,,,,,,60fd51ecc8c5b6dcbb506fac,61036e8fc5234f1187fb1c72,2021-07-29_23h15.09.069,Simcolourproject_2stim_asymm_v5,2020.2.10,Win32,60,61025ae37ef11b136ea224fe,,,,,,,,,2804,25,42,1,0,0,response1disk,,7,7,1,1,0,0,rectangle,7,1,1,0,0,7,1,1,0,0,0,129,129,101,1,,,,,,,,
,,,,,,,,,,,,,FF,,,,,,,,1.1669,,,,,,,,,,,,,,,,,,,,,,60fd51ecc8c5b6dcbb506fac,61036e8fc5234f1187fb1c72,2021-07-29_23h15.09.069,Simcolourproject_2stim_asymm_v5,2020.2.10,Win32,60,61025ae37ef11b136ea224fe,,,,,,,,,1240,47,23,1,0,0,response1disk,,6,14,-5,1,0,0,rectangle,14,-5,1,0,0,14,-5,1,0,0,0,130,130,146,1,,,,,,,,
,,,,,,,,,,,,,FF,,,,,,,,1.0836,,,,,,,,,,,,,,,,,,,,,,60fd51ecc8c5b6dcbb506fac,61036e8fc5234f1187fb1c72,2021-07-29_23h15.09.069,Simcolourproject_2stim_asymm_v5,2020.2.10,Win32,60,61025ae37ef11b136ea224fe,,,,,,,,,332,33,48,1,0,0,response1disk,,7,6,-3,1,0,0,rectangle,35,-85,1,0,0,-9,-3,1,0,0,0,131,131,86,1,,response3disk_3,TRUE,4,4,"[181,309,268,185,289,185,277,26,230,172,186,309,121,214,77,84,316,28,113,132]",2.3635,rectangle
,,,,,,,,,,,,,FF,,,,,,,,2.5665,,,,,,,,,,,,,,,,,,,,,,60fd51ecc8c5b6dcbb506fac,61036e8fc5234f1187fb1c72,2021-07-29_23h15.09.069,Simcolourproject_2stim_asymm_v5,2020.2.10,Win32,60,61025ae37ef11b136ea224fe,,,,,,,,,2114,88,34,1,0,0,response1disk,,6,6,-10,1,0,0,rectangle,6,-10,1,0,0,6,-10,1,0,0,0,132,132,15,1,,,,,,,,
,,,,,,,,,,,,,FF,,,,,,,,1.0667,,,,,,,,,,,,,,,,,,,,,,60fd51ecc8c5b6dcbb506fac,61036e8fc5234f1187fb1c72,2021-07-29_23h15.09.069,Simcolourproject_2stim_asymm_v5,2020.2.10,Win32,60,61025ae37ef11b136ea224fe,,,,,,,,,1244,31,52,1,0,0,response1disk,,7,16,6,1,0,0,rectangle,16,6,1,0,0,16,6,1,0,0,0,133,133,135,1,,,,,,,,
,,,,,,,,,,,,,FF,,,,,,,,1.0833,,,,,,,,,,,,,,,,,,,,,,60fd51ecc8c5b6dcbb506fac,61036e8fc5234f1187fb1c72,2021-07-29_23h15.09.069,Simcolourproject_2stim_asymm_v5,2020.2.10,Win32,60,61025ae37ef11b136ea224fe,,,,,,,,,2618,38,79,1,0,0,response1disk,,7,11,5,1,0,0,rectangle,11,5,1,0,0,11,5,1,0,0,0,134,134,95,1,,,,,,,,
,,,,,,,,,,,,,FF,,,,,,,,1.1166,,,,,,,,,,,,,,,,,,,,,,60fd51ecc8c5b6dcbb506fac,61036e8fc5234f1187fb1c72,2021-07-29_23h15.09.069,Simcolourproject_2stim_asymm_v5,2020.2.10,Win32,60,61025ae37ef11b136ea224fe,,,,,,,,,4297,31,58,1,0,0,response1disk,,7,14,6,1,0,0,rectangle,14,6,1,0,0,14,6,1,0,0,0,135,135,24,1,,,,,,,,
,,,,,,,,,,,,,FF,,,,,,,,1.4833,,,,,,,,,,,,,,,,,,,,,,60fd51ecc8c5b6dcbb506fac,61036e8fc5234f1187fb1c72,2021-07-29_23h15.09.069,Simcolourproject_2stim_asymm_v5,2020.2.10,Win32,60,61025ae37ef11b136ea224fe,,,,,,,,,3394,44,59,1,0,0,response1disk,,7,24,6,1,0,0,rectangle,24,6,1,0,0,24,6,1,0,0,0,136,136,91,1,,,,,,,,
,,,,,,,,,,,,,FF,,,,,,,,1.4832,,,,,,,,,,,,,,,,,,,,,,60fd51ecc8c5b6dcbb506fac,61036e8fc5234f1187fb1c72,2021-07-29_23h15.09.069,Simcolourproject_2stim_asymm_v5,2020.2.10,Win32,60,61025ae37ef11b136ea224fe,,,,,,,,,1612,48,-90,1,0,0,response3disk,,4,15,-8,1,0,0,rectangle,15,-8,1,0,0,15,-8,1,0,0,0,137,137,69,1,,,,,,,,
,,,,,,,,,,,,,FF,,,,,,,,1.3001,,,,,,,,,,,,,,,,,,,,,,60fd51ecc8c5b6dcbb506fac,61036e8fc5234f1187fb1c72,2021-07-29_23h15.09.069,Simcolourproject_2stim_asymm_v5,2020.2.10,Win32,60,61025ae37ef11b136ea224fe,,,,,,,,,443,-79,-26,1,0,0,response5disk,,2,-17,2,1,0,0,rectangle,-17,2,1,0,0,-17,2,1,0,0,0,138,138,128,1,,,,,,,,
,,,,,,,,,,,,,FF,,,,,,,,1.0668,,,,,,,,,,,,,,,,,,,,,,60fd51ecc8c5b6dcbb506fac,61036e8fc5234f1187fb1c72,2021-07-29_23h15.09.069,Simcolourproject_2stim_asymm_v5,2020.2.10,Win32,60,61025ae37ef11b136ea224fe,,,,,,,,,4110,25,41,1,0,0,response1disk,,7,9,-4,1,0,0,rectangle,9,-4,1,0,0,9,-4,1,0,0,0,139,139,94,1,,,,,,,,
,,,,,,,,,,,,,FF,,,,,,,,1.4168,,,,,,,,,,,,,,,,,,,,,,60fd51ecc8c5b6dcbb506fac,61036e8fc5234f1187fb1c72,2021-07-29_23h15.09.069,Simcolourproject_2stim_asymm_v5,2020.2.10,Win32,60,61025ae37ef11b136ea224fe,,,,,,,,,1066,21,33,1,0,0,response1disk,,7,19,4,1,0,0,rectangle,19,4,1,0,0,19,4,1,0,0,0,140,140,87,1,,,,,,,,
,,,,,,,,,,,,,FF,,,,,,,,1.2668,,,,,,,,,,,,,,,,,,,,,,60fd51ecc8c5b6dcbb506fac,61036e8fc5234f1187fb1c72,2021-07-29_23h15.09.069,Simcolourproject_2stim_asymm_v5,2020.2.10,Win32,60,61025ae37ef11b136ea224fe,,,,,,,,,98,28,-74,1,0,0,response3disk,,4,19,-9,1,0,0,rectangle,19,-9,1,0,0,19,-9,1,0,0,0,141,141,63,1,,,,,,,,
,,,,,,,,,,,,,FF,,,,,,,,1.0502,,,,,,,,,,,,,,,,,,,,,,60fd51ecc8c5b6dcbb506fac,61036e8fc5234f1187fb1c72,2021-07-29_23h15.09.069,Simcolourproject_2stim_asymm_v5,2020.2.10,Win32,60,61025ae37ef11b136ea224fe,,,,,,,,,4173,41,73,1,0,0,response1disk,,7,12,4,1,0,0,rectangle,12,4,1,0,0,12,4,1,0,0,0,142,142,104,1,,,,,,,,
,,,,,,,,,,,,,FF,,,,,,,,1.8334,,,,,,,,,,,,,,,,,,,,,,60fd51ecc8c5b6dcbb506fac,61036e8fc5234f1187fb1c72,2021-07-29_23h15.09.069,Simcolourproject_2stim_asymm_v5,2020.2.10,Win32,60,61025ae37ef11b136ea224fe,,,,,,,,,3145,78,-42,1,0,0,response3disk,,5,21,0,1,0,0,rectangle,21,0,1,0,0,21,0,1,0,0,0,143,143,6,1,,,,,,,,
,,,,,,,,,,,,,FF,,,,,,,,1.6335,,,,,,,,,,,,,,,,,,,,,,60fd51ecc8c5b6dcbb506fac,61036e8fc5234f1187fb1c72,2021-07-29_23h15.09.069,Simcolourproject_2stim_asymm_v5,2020.2.10,Win32,60,61025ae37ef11b136ea224fe,,,,,,,,,3266,58,69,1,0,0,response1disk,,7,13,4,1,0,0,rectangle,13,4,1,0,0,13,4,1,0,0,0,144,144,102,1,,,,,,,,
,,,,,,,,,,,,,FF,,,,,,,,1.1166,,,,,,,,,,,,,,,,,,,,,,60fd51ecc8c5b6dcbb506fac,61036e8fc5234f1187fb1c72,2021-07-29_23h15.09.069,Simcolourproject_2stim_asymm_v5,2020.2.10,Win32,60,61025ae37ef11b136ea224fe,,,,,,,,,936,50,110,1,0,0,response1disk,,7,3,-3,1,0,0,rectangle,3,-3,1,0,0,3,-3,1,0,0,0,145,145,38,1,,,,,,,,
,,,,,,,,,,,,,FF,,,,,,,,2.1666,,,,,,,,,,,,,,,,,,,,,,60fd51ecc8c5b6dcbb506fac,61036e8fc5234f1187fb1c72,2021-07-29_23h15.09.069,Simcolourproject_2stim_asymm_v5,2020.2.10,Win32,60,61025ae37ef11b136ea224fe,,,,,,,,,391,81,45,1,0,0,response1disk,,6,14,12,1,0,0,rectangle,14,12,1,0,0,14,12,1,0,0,0,146,146,141,1,,,,,,,,
,,,,,,,,,,,,,FF,,,,,,,,4.6996,,,,,,,,,,,,,,,,,,,,,,60fd51ecc8c5b6dcbb506fac,61036e8fc5234f1187fb1c72,2021-07-29_23h15.09.069,Simcolourproject_2stim_asymm_v5,2020.2.10,Win32,60,61025ae37ef11b136ea224fe,,,,,,,,,2080,60,48,1,0,0,response1disk,,6,2,-4,1,0,0,rectangle,2,-4,1,0,0,2,-4,1,0,0,0,147,147,155,1,,,,,,,,
,,,,,,,,,,,,,FF,,,,,,,,1.2668,,,,,,,,,,,,,,,,,,,,,,60fd51ecc8c5b6dcbb506fac,61036e8fc5234f1187fb1c72,2021-07-29_23h15.09.069,Simcolourproject_2stim_asymm_v5,2020.2.10,Win32,60,61025ae37ef11b136ea224fe,,,,,,,,,3043,37,57,1,0,0,response1disk,,7,19,13,1,0,0,rectangle,19,13,1,0,0,19,13,1,0,0,0,148,148,18,1,,,,,,,,
,,,,,,,,,,,,,FF,,,,,,,,1.231,,,,,,,,,,,,,,,,,,,,,,60fd51ecc8c5b6dcbb506fac,61036e8fc5234f1187fb1c72,2021-07-29_23h15.09.069,Simcolourproject_2stim_asymm_v5,2020.2.10,Win32,60,61025ae37ef11b136ea224fe,,,,,,,,,2463,43,65,1,0,0,response1disk,,7,15,0,1,0,0,rectangle,15,0,1,0,0,15,0,1,0,0,0,149,149,125,1,,,,,,,,
,,,,,,,,,,,,,FF,,,,,,,,3.2498,,,,,,,,,,,,,,,,,,,,,,60fd51ecc8c5b6dcbb506fac,61036e8fc5234f1187fb1c72,2021-07-29_23h15.09.069,Simcolourproject_2stim_asymm_v5,2020.2.10,Win32,60,61025ae37ef11b136ea224fe,,,,,,,,,1835,79,32,1,0,0,response1disk,,6,13,-5,1,0,0,rectangle,13,-5,1,0,0,13,-5,1,0,0,0,150,150,72,1,,,,,,,,
,,,,,,,,,,,,,FF,,,,,,,,1.6003,,,,,,,,,,,,,,,,,,,,,,60fd51ecc8c5b6dcbb506fac,61036e8fc5234f1187fb1c72,2021-07-29_23h15.09.069,Simcolourproject_2stim_asymm_v5,2020.2.10,Win32,60,61025ae37ef11b136ea224fe,,,,,,,,,3154,41,-81,1,0,0,response3disk,,4,6,-2,1,0,0,rectangle,6,-2,1,0,0,6,-2,1,0,0,0,151,151,92,1,,,,,,,,
,,,,,,,,,,,,,FF,,,,,,,,5.8835,,,,,,,,,,,,,,,,,,,,,,60fd51ecc8c5b6dcbb506fac,61036e8fc5234f1187fb1c72,2021-07-29_23h15.09.069,Simcolourproject_2stim_asymm_v5,2020.2.10,Win32,60,61025ae37ef11b136ea224fe,,,,,,,,,2881,24,-89,1,0,0,response3disk,,4,15,-4,1,0,0,rectangle,15,-4,1,0,0,15,-4,1,0,0,0,152,152,85,1,,,,,,,,
,,,,,,,,,,,,,FF,,,,,,,,1.1834,,,,,,,,,,,,,,,,,,,,,,60fd51ecc8c5b6dcbb506fac,61036e8fc5234f1187fb1c72,2021-07-29_23h15.09.069,Simcolourproject_2stim_asymm_v5,2020.2.10,Win32,60,61025ae37ef11b136ea224fe,,,,,,,,,1232,-36,-87,1,0,0,response5disk,,3,-4,-13,1,0,0,rectangle,-4,-13,1,0,0,-4,-13,1,0,0,0,153,153,59,1,,,,,,,,
,,,,,,,,,,,,,FF,,,,,,,,1.1166,,,,,,,,,,,,,,,,,,,,,,60fd51ecc8c5b6dcbb506fac,61036e8fc5234f1187fb1c72,2021-07-29_23h15.09.069,Simcolourproject_2stim_asymm_v5,2020.2.10,Win32,60,61025ae37ef11b136ea224fe,,,,,,,,,1127,20,42,1,0,0,response1disk,,7,2,2,1,0,0,rectangle,2,2,1,0,0,2,2,1,0,0,0,154,154,80,1,,,,,,,,
,,,,,,,,,,,,,FF,,,,,,,,1.1334,,,,,,,,,,,,,,,,,,,,,,60fd51ecc8c5b6dcbb506fac,61036e8fc5234f1187fb1c72,2021-07-29_23h15.09.069,Simcolourproject_2stim_asymm_v5,2020.2.10,Win32,60,61025ae37ef11b136ea224fe,,,,,,,,,3502,26,57,1,0,0,response1disk,,7,7,4,1,0,0,rectangle,7,4,1,0,0,7,4,1,0,0,0,155,155,12,1,,,,,,,,
,,,,,,,,,,,,,FF,,,,,,,,1.7664,,,,,,,,,,,,,,,,,,,,,,60fd51ecc8c5b6dcbb506fac,61036e8fc5234f1187fb1c72,2021-07-29_23h15.09.069,Simcolourproject_2stim_asymm_v5,2020.2.10,Win32,60,61025ae37ef11b136ea224fe,,,,,,,,,982,59,37,1,0,0,response1disk,,6,10,4,1,0,0,rectangle,10,4,1,0,0,10,4,1,0,0,0,156,156,44,1,,,,,,,,
,,,,,,,,,,,,,FF,,,,,,,,1.2666,,,,,,,,,,,,,,,,,,,,,,60fd51ecc8c5b6dcbb506fac,61036e8fc5234f1187fb1c72,2021-07-29_23h15.09.069,Simcolourproject_2stim_asymm_v5,2020.2.10,Win32,60,61025ae37ef11b136ea224fe,,,,,,,,,1451,-27,-63,1,0,0,response5disk,,3,-5,-9,1,0,0,rectangle,-5,-9,1,0,0,-5,-9,1,0,0,0,157,157,53,1,,,,,,,,
,,,,,,,,,,,,,FF,,,,,,,,1.8837,,,,,,,,,,,,,,,,,,,,,,60fd51ecc8c5b6dcbb506fac,61036e8fc5234f1187fb1c72,2021-07-29_23h15.09.069,Simcolourproject_2stim_asymm_v5,2020.2.10,Win32,60,61025ae37ef11b136ea224fe,,,,,,,,,1116,36,73,1,0,0,response1disk,,7,4,4,1,0,0,rectangle,4,4,1,0,0,4,4,1,0,0,0,158,158,70,1,,,,,,,,
,,,,,,,,,,,,,FF,,,,,,,,1.5502,,,,,,,,,,,,,,,,,,,,,,60fd51ecc8c5b6dcbb506fac,61036e8fc5234f1187fb1c72,2021-07-29_23h15.09.069,Simcolourproject_2stim_asymm_v5,2020.2.10,Win32,60,61025ae37ef11b136ea224fe,,,,,,,,,3711,-45,-92,1,0,0,response5disk,,3,-5,2,1,0,0,rectangle,-5,2,1,0,0,-5,2,1,0,0,0,159,159,99,1,,,,,,,,
,,,,,,,,,,,,,FF,,,,,,,,2.9167,,,,,,,,,,,,,,,,,,,,,,60fd51ecc8c5b6dcbb506fac,61036e8fc5234f1187fb1c72,2021-07-29_23h15.09.069,Simcolourproject_2stim_asymm_v5,2020.2.10,Win32,60,61025ae37ef11b136ea224fe,,,,,,,,,150,70,-31,1,0,0,response3disk,,5,4,3,1,0,0,rectangle,4,3,1,0,0,4,3,1,0,0,1,0,160,118,1,,,,,,,,
,,,,,,,,,,,,,FF,,,,,,,,1.3832,,,,,,,,,,,,,,,,,,,,,,60fd51ecc8c5b6dcbb506fac,61036e8fc5234f1187fb1c72,2021-07-29_23h15.09.069,Simcolourproject_2stim_asymm_v5,2020.2.10,Win32,60,61025ae37ef11b136ea224fe,,,,,,,,,949,27,54,1,0,0,response1disk,,7,6,-5,1,0,0,rectangle,6,-5,1,0,0,6,-5,1,0,0,1,1,161,100,1,,,,,,,,
,,,,,,,,,,,,,FF,,,,,,,,1.2167,,,,,,,,,,,,,,,,,,,,,,60fd51ecc8c5b6dcbb506fac,61036e8fc5234f1187fb1c72,2021-07-29_23h15.09.069,Simcolourproject_2stim_asymm_v5,2020.2.10,Win32,60,61025ae37ef11b136ea224fe,,,,,,,,,832,31,49,1,0,0,response1disk,,7,4,4,1,0,0,rectangle,4,4,1,0,0,4,4,1,0,0,1,2,162,97,1,,,,,,,,
,,,,,,,,,,,,,FF,,,,,,,,1.0499,,,,,,,,,,,,,,,,,,,,,,60fd51ecc8c5b6dcbb506fac,61036e8fc5234f1187fb1c72,2021-07-29_23h15.09.069,Simcolourproject_2stim_asymm_v5,2020.2.10,Win32,60,61025ae37ef11b136ea224fe,,,,,,,,,436,31,73,1,0,0,response1disk,,7,7,9,1,0,0,rectangle,7,9,1,0,0,7,9,1,0,0,1,3,163,50,1,,,,,,,,
,,,,,,,,,,,,,FF,,,,,,,,1.5999,,,,,,,,,,,,,,,,,,,,,,60fd51ecc8c5b6dcbb506fac,61036e8fc5234f1187fb1c72,2021-07-29_23h15.09.069,Simcolourproject_2stim_asymm_v5,2020.2.10,Win32,60,61025ae37ef11b136ea224fe,,,,,,,,,3520,63,-38,1,0,0,response3disk,,5,28,-8,1,0,0,rectangle,28,-8,1,0,0,28,-8,1,0,0,1,4,164,95,1,,,,,,,,
,,,,,,,,,,,,,FF,,,,,,,,1.0667,,,,,,,,,,,,,,,,,,,,,,60fd51ecc8c5b6dcbb506fac,61036e8fc5234f1187fb1c72,2021-07-29_23h15.09.069,Simcolourproject_2stim_asymm_v5,2020.2.10,Win32,60,61025ae37ef11b136ea224fe,,,,,,,,,787,26,-73,1,0,0,response3disk,,4,1,0,1,0,0,rectangle,1,0,1,0,0,1,0,1,0,0,1,5,165,8,1,,,,,,,,
,,,,,,,,,,,,,FF,,,,,,,,2.0333,,,,,,,,,,,,,,,,,,,,,,60fd51ecc8c5b6dcbb506fac,61036e8fc5234f1187fb1c72,2021-07-29_23h15.09.069,Simcolourproject_2stim_asymm_v5,2020.2.10,Win32,60,61025ae37ef11b136ea224fe,,,,,,,,,852,32,62,1,0,0,response1disk,,7,1,3,1,0,0,rectangle,1,3,1,0,0,1,3,1,0,0,1,6,166,98,1,,,,,,,,
,,,,,,,,,,,,,FF,,,,,,,,1.1668,,,,,,,,,,,,,,,,,,,,,,60fd51ecc8c5b6dcbb506fac,61036e8fc5234f1187fb1c72,2021-07-29_23h15.09.069,Simcolourproject_2stim_asymm_v5,2020.2.10,Win32,60,61025ae37ef11b136ea224fe,,,,,,,,,2543,28,-66,1,0,0,response3disk,,4,11,-11,1,0,0,rectangle,11,-11,1,0,0,11,-11,1,0,0,1,7,167,58,1,,,,,,,,
,,,,,,,,,,,,,FF,,,,,,,,1.1498,,,,,,,,,,,,,,,,,,,,,,60fd51ecc8c5b6dcbb506fac,61036e8fc5234f1187fb1c72,2021-07-29_23h15.09.069,Simcolourproject_2stim_asymm_v5,2020.2.10,Win32,60,61025ae37ef11b136ea224fe,,,,,,,,,1536,28,-54,1,0,0,response3disk,,4,10,-11,1,0,0,rectangle,10,-11,1,0,0,10,-11,1,0,0,1,8,168,2,1,,,,,,,,
,,,,,,,,,,,,,FF,,,,,,,,2.0665,,,,,,,,,,,,,,,,,,,,,,60fd51ecc8c5b6dcbb506fac,61036e8fc5234f1187fb1c72,2021-07-29_23h15.09.069,Simcolourproject_2stim_asymm_v5,2020.2.10,Win32,60,61025ae37ef11b136ea224fe,,,,,,,,,1986,72,-26,1,0,0,response3disk,,5,25,-4,1,0,0,rectangle,25,-4,1,0,0,25,-4,1,0,0,1,9,169,143,1,,,,,,,,
,,,,,,,,,,,,,FF,,,,,,,,1.0501,,,,,,,,,,,,,,,,,,,,,,60fd51ecc8c5b6dcbb506fac,61036e8fc5234f1187fb1c72,2021-07-29_23h15.09.069,Simcolourproject_2stim_asymm_v5,2020.2.10,Win32,60,61025ae37ef11b136ea224fe,,,,,,,,,2185,32,70,1,0,0,response1disk,,7,11,1,1,0,0,rectangle,11,1,1,0,0,11,1,1,0,0,1,10,170,10,1,,,,,,,,
,,,,,,,,,,,,,FF,,,,,,,,1.0836,,,,,,,,,,,,,,,,,,,,,,60fd51ecc8c5b6dcbb506fac,61036e8fc5234f1187fb1c72,2021-07-29_23h15.09.069,Simcolourproject_2stim_asymm_v5,2020.2.10,Win32,60,61025ae37ef11b136ea224fe,,,,,,,,,4323,28,46,1,0,0,response1disk,,7,5,-12,1,0,0,rectangle,-63,31,1,0,0,-3,-6,1,0,0,1,11,171,121,1,,response7disk_3,TRUE,1,1,"[181,309,268,185,289,185,277,26,230,172,186,309,121,214,77,84,316,28,113,132]",2.1841,rectangle
,,,,,,,,,,,,,FF,,,,,,,,1.3666,,,,,,,,,,,,,,,,,,,,,,60fd51ecc8c5b6dcbb506fac,61036e8fc5234f1187fb1c72,2021-07-29_23h15.09.069,Simcolourproject_2stim_asymm_v5,2020.2.10,Win32,60,61025ae37ef11b136ea224fe,,,,,,,,,568,19,75,1,0,0,response1disk,,7,-1,5,1,0,0,rectangle,-1,5,1,0,0,-1,5,1,0,0,1,12,172,136,1,,,,,,,,
,,,,,,,,,,,,,FF,,,,,,,,1.0333,,,,,,,,,,,,,,,,,,,,,,60fd51ecc8c5b6dcbb506fac,61036e8fc5234f1187fb1c72,2021-07-29_23h15.09.069,Simcolourproject_2stim_asymm_v5,2020.2.10,Win32,60,61025ae37ef11b136ea224fe,,,,,,,,,1238,23,52,1,0,0,response1disk,,7,10,9,1,0,0,rectangle,10,9,1,0,0,10,9,1,0,0,1,13,173,111,1,,,,,,,,
,,,,,,,,,,,,,FF,,,,,,,,2.2331,,,,,,,,,,,,,,,,,,,,,,60fd51ecc8c5b6dcbb506fac,61036e8fc5234f1187fb1c72,2021-07-29_23h15.09.069,Simcolourproject_2stim_asymm_v5,2020.2.10,Win32,60,61025ae37ef11b136ea224fe,,,,,,,,,4237,-85,26,1,0,0,response7disk,,1,-14,1,1,0,0,rectangle,-14,1,1,0,0,-14,1,1,0,0,1,14,174,131,1,,,,,,,,
,,,,,,,,,,,,,FF,,,,,,,,1.5999,,,,,,,,,,,,,,,,,,,,,,60fd51ecc8c5b6dcbb506fac,61036e8fc5234f1187fb1c72,2021-07-29_23h15.09.069,Simcolourproject_2stim_asymm_v5,2020.2.10,Win32,60,61025ae37ef11b136ea224fe,,,,,,,,,1208,64,21,1,0,0,response1disk,,6,20,7,1,0,0,rectangle,20,7,1,0,0,20,7,1,0,0,1,15,175,67,1,,,,,,,,
,,,,,,,,,,,,,FF,,,,,,,,1.0499,,,,,,,,,,,,,,,,,,,,,,60fd51ecc8c5b6dcbb506fac,61036e8fc5234f1187fb1c72,2021-07-29_23h15.09.069,Simcolourproject_2stim_asymm_v5,2020.2.10,Win32,60,61025ae37ef11b136ea224fe,,,,,,,,,4218,-29,62,1,0,0,response7disk,,0,-7,3,1,0,0,rectangle,-7,3,1,0,0,-7,3,1,0,0,1,16,176,43,1,,,,,,,,
,,,,,,,,,,,,,FF,,,,,,,,1.8665,,,,,,,,,,,,,,,,,,,,,,60fd51ecc8c5b6dcbb506fac,61036e8fc5234f1187fb1c72,2021-07-29_23h15.09.069,Simcolourproject_2stim_asymm_v5,2020.2.10,Win32,60,61025ae37ef11b136ea224fe,,,,,,,,,204,72,37,1,0,0,response1disk,,6,9,-1,1,0,0,rectangle,9,-1,1,0,0,9,-1,1,0,0,1,17,177,14,1,,,,,,,,
,,,,,,,,,,,,,FF,,,,,,,,1.0702,,,,,,,,,,,,,,,,,,,,,,60fd51ecc8c5b6dcbb506fac,61036e8fc5234f1187fb1c72,2021-07-29_23h15.09.069,Simcolourproject_2stim_asymm_v5,2020.2.10,Win32,60,61025ae37ef11b136ea224fe,,,,,,,,,106,62,37,1,0,0,response1disk,,6,18,2,1,0,0,rectangle,18,2,1,0,0,18,2,1,0,0,1,18,178,125,1,,,,,,,,
,,,,,,,,,,,,,FF,,,,,,,,1.0166,,,,,,,,,,,,,,,,,,,,,,60fd51ecc8c5b6dcbb506fac,61036e8fc5234f1187fb1c72,2021-07-29_23h15.09.069,Simcolourproject_2stim_asymm_v5,2020.2.10,Win32,60,61025ae37ef11b136ea224fe,,,,,,,,,3345,27,66,1,0,0,response1disk,,7,5,10,1,0,0,rectangle,5,10,1,0,0,5,10,1,0,0,1,19,179,116,1,,,,,,,,
,,,,,,,,,,,,,FF,,,,,,,,0.9834,,,,,,,,,,,,,,,,,,,,,,60fd51ecc8c5b6dcbb506fac,61036e8fc5234f1187fb1c72,2021-07-29_23h15.09.069,Simcolourproject_2stim_asymm_v5,2020.2.10,Win32,60,61025ae37ef11b136ea224fe,,,,,,,,,446,38,76,1,0,0,response1disk,,7,11,-10,1,0,0,rectangle,-67,34,1,0,0,-20,5,1,0,0,1,20,180,128,1,,response7disk_3,TRUE,1,1,"[181,309,268,185,289,185,277,26,230,172,186,309,121,214,77,84,316,28,113,132]",2.0831,rectangle
,,,,,,,,,,,,,FF,,,,,,,,1.2169,,,,,,,,,,,,,,,,,,,,,,60fd51ecc8c5b6dcbb506fac,61036e8fc5234f1187fb1c72,2021-07-29_23h15.09.069,Simcolourproject_2stim_asymm_v5,2020.2.10,Win32,60,61025ae37ef11b136ea224fe,,,,,,,,,2974,19,55,1,0,0,response1disk,,7,2,9,1,0,0,rectangle,2,9,1,0,0,2,9,1,0,0,1,21,181,31,1,,,,,,,,
,,,,,,,,,,,,,FF,,,,,,,,1.0669,,,,,,,,,,,,,,,,,,,,,,60fd51ecc8c5b6dcbb506fac,61036e8fc5234f1187fb1c72,2021-07-29_23h15.09.069,Simcolourproject_2stim_asymm_v5,2020.2.10,Win32,60,61025ae37ef11b136ea224fe,,,,,,,,,3224,28,70,1,0,0,response1disk,,7,11,9,1,0,0,rectangle,11,9,1,0,0,11,9,1,0,0,1,22,182,86,1,,,,,,,,
,,,,,,,,,,,,,FF,,,,,,,,1.6829,,,,,,,,,,,,,,,,,,,,,,60fd51ecc8c5b6dcbb506fac,61036e8fc5234f1187fb1c72,2021-07-29_23h15.09.069,Simcolourproject_2stim_asymm_v5,2020.2.10,Win32,60,61025ae37ef11b136ea224fe,,,,,,,,,3597,-29,-81,1,0,0,response5disk,,3,3,-7,1,0,0,rectangle,3,-7,1,0,0,3,-7,1,0,0,1,23,183,94,1,,,,,,,,
,,,,,,,,,,,,,FF,,,,,,,,1.1168,,,,,,,,,,,,,,,,,,,,,,60fd51ecc8c5b6dcbb506fac,61036e8fc5234f1187fb1c72,2021-07-29_23h15.09.069,Simcolourproject_2stim_asymm_v5,2020.2.10,Win32,60,61025ae37ef11b136ea224fe,,,,,,,,,2966,32,80,1,0,0,response1disk,,7,-1,3,1,0,0,rectangle,-45,-97,1,0,0,-6,9,1,0,0,1,24,184,3,1,,response5disk_3,TRUE,3,3,"[181,309,268,185,289,185,277,26,230,172,186,309,121,214,77,84,316,28,113,132]",2.983,rectangle
,,,,,,,,,,,,,FF,,,,,,,,2.1497,,,,,,,,,,,,,,,,,,,,,,60fd51ecc8c5b6dcbb506fac,61036e8fc5234f1187fb1c72,2021-07-29_23h15.09.069,Simcolourproject_2stim_asymm_v5,2020.2.10,Win32,60,61025ae37ef11b136ea224fe,,,,,,,,,198,29,-79,1,0,0,response3disk,,4,-6,1,1,0,0,rectangle,50,83,1,0,0,13,6,1,0,0,1,25,185,113,1,,response1disk_3,TRUE,7,7,"[181,309,268,185,289,185,277,26,230,172,186,309,121,214,77,84,316,28,113,132]",1.9997,rectangle
,,,,,,,,,,,,,FF,,,,,,,,1.3161,,,,,,,,,,,,,,,,,,,,,,60fd51ecc8c5b6dcbb506fac,61036e8fc5234f1187fb1c72,2021-07-29_23h15.09.069,Simcolourproject_2stim_asymm_v5,2020.2.10,Win32,60,61025ae37ef11b136ea224fe,,,,,,,,,276,-26,77,1,0,0,response7disk,,0,-13,0,1,0,0,rectangle,-13,0,1,0,0,-13,0,1,0,0,1,26,186,142,1,,,,,,,,
,,,,,,,,,,,,,FF,,,,,,,,1.2337,,,,,,,,,,,,,,,,,,,,,,60fd51ecc8c5b6dcbb506fac,61036e8fc5234f1187fb1c72,2021-07-29_23h15.09.069,Simcolourproject_2stim_asymm_v5,2020.2.10,Win32,60,61025ae37ef11b136ea224fe,,,,,,,,,1866,84,37,1,0,0,response1disk,,6,2,1,1,0,0,rectangle,2,1,1,0,0,2,1,1,0,0,1,27,187,62,1,,,,,,,,
,,,,,,,,,,,,,FF,,,,,,,,1.0166,,,,,,,,,,,,,,,,,,,,,,60fd51ecc8c5b6dcbb506fac,61036e8fc5234f1187fb1c72,2021-07-29_23h15.09.069,Simcolourproject_2stim_asymm_v5,2020.2.10,Win32,60,61025ae37ef11b136ea224fe,,,,,,,,,1573,25,89,1,0,0,response1disk,,7,-7,8,1,0,0,rectangle,-7,8,1,0,0,-7,8,1,0,0,1,28,188,110,1,,,,,,,,
,,,,,,,,,,,,,FF,,,,,,,,1.3169,,,,,,,,,,,,,,,,,,,,,,60fd51ecc8c5b6dcbb506fac,61036e8fc5234f1187fb1c72,2021-07-29_23h15.09.069,Simcolourproject_2stim_asymm_v5,2020.2.10,Win32,60,61025ae37ef11b136ea224fe,,,,,,,,,1847,72,-32,1,0,0,response3disk,,5,20,6,1,0,0,rectangle,20,6,1,0,0,20,6,1,0,0,1,29,189,99,1,,,,,,,,
,,,,,,,,,,,,,FF,,,,,,,,1.9671,,,,,,,,,,,,,,,,,,,,,,60fd51ecc8c5b6dcbb506fac,61036e8fc5234f1187fb1c72,2021-07-29_23h15.09.069,Simcolourproject_2stim_asymm_v5,2020.2.10,Win32,60,61025ae37ef11b136ea224fe,,,,,,,,,4014,48,55,1,0,0,response1disk,,7,12,2,1,0,0,rectangle,12,2,1,0,0,12,2,1,0,0,1,30,190,114,1,,,,,,,,
,,,,,,,,,,,,,FF,,,,,,,,1.7334,,,,,,,,,,,,,,,,,,,,,,60fd51ecc8c5b6dcbb506fac,61036e8fc5234f1187fb1c72,2021-07-29_23h15.09.069,Simcolourproject_2stim_asymm_v5,2020.2.10,Win32,60,61025ae37ef11b136ea224fe,,,,,,,,,4085,68,48,1,0,0,response1disk,,6,15,2,1,0,0,rectangle,15,2,1,0,0,15,2,1,0,0,1,31,191,26,1,,,,,,,,
,,,,,,,,,,,,,FF,,,,,,,,1.3337,,,,,,,,,,,,,,,,,,,,,,60fd51ecc8c5b6dcbb506fac,61036e8fc5234f1187fb1c72,2021-07-29_23h15.09.069,Simcolourproject_2stim_asymm_v5,2020.2.10,Win32,60,61025ae37ef11b136ea224fe,,,,,,,,,3205,42,-60,1,0,0,response3disk,,4,4,-4,1,0,0,rectangle,4,-4,1,0,0,4,-4,1,0,0,1,32,192,32,1,,,,,,,,
,,,,,,,,,,,,,FF,,,,,,,,1.4667,,,,,,,,,,,,,,,,,,,,,,60fd51ecc8c5b6dcbb506fac,61036e8fc5234f1187fb1c72,2021-07-29_23h15.09.069,Simcolourproject_2stim_asymm_v5,2020.2.10,Win32,60,61025ae37ef11b136ea224fe,,,,,,,,,517,61,90,1,0,0,response1disk,,7,11,5,1,0,0,rectangle,11,5,1,0,0,11,5,1,0,0,1,33,193,84,1,,,,,,,,
,,,,,,,,,,,,,FF,,,,,,,,1.1496,,,,,,,,,,,,,,,,,,,,,,60fd51ecc8c5b6dcbb506fac,61036e8fc5234f1187fb1c72,2021-07-29_23h15.09.069,Simcolourproject_2stim_asymm_v5,2020.2.10,Win32,60,61025ae37ef11b136ea224fe,,,,,,,,,4352,-72,-39,1,0,0,response5disk,,2,-23,-4,1,0,0,rectangle,-23,-4,1,0,0,-23,-4,1,0,0,1,34,194,124,1,,,,,,,,
,,,,,,,,,,,,,FF,,,,,,,,1.2333,,,,,,,,,,,,,,,,,,,,,,60fd51ecc8c5b6dcbb506fac,61036e8fc5234f1187fb1c72,2021-07-29_23h15.09.069,Simcolourproject_2stim_asymm_v5,2020.2.10,Win32,60,61025ae37ef11b136ea224fe,,,,,,,,,2465,44,57,1,0,0,response1disk,,7,17,3,1,0,0,rectangle,17,3,1,0,0,17,3,1,0,0,1,35,195,79,1,,,,,,,,
,,,,,,,,,,,,,FF,,,,,,,,1.1334,,,,,,,,,,,,,,,,,,,,,,60fd51ecc8c5b6dcbb506fac,61036e8fc5234f1187fb1c72,2021-07-29_23h15.09.069,Simcolourproject_2stim_asymm_v5,2020.2.10,Win32,60,61025ae37ef11b136ea224fe,,,,,,,,,3607,23,49,1,0,0,response1disk,,7,9,12,1,0,0,rectangle,9,12,1,0,0,9,12,1,0,0,1,36,196,37,1,,,,,,,,
,,,,,,,,,,,,,FF,,,,,,,,1.2169,,,,,,,,,,,,,,,,,,,,,,60fd51ecc8c5b6dcbb506fac,61036e8fc5234f1187fb1c72,2021-07-29_23h15.09.069,Simcolourproject_2stim_asymm_v5,2020.2.10,Win32,60,61025ae37ef11b136ea224fe,,,,,,,,,467,32,51,1,0,0,response1disk,,7,9,1,1,0,0,rectangle,9,1,1,0,0,9,1,1,0,0,1,37,197,158,1,,,,,,,,
,,,,,,,,,,,,,FF,,,,,,,,1.4831,,,,,,,,,,,,,,,,,,,,,,60fd51ecc8c5b6dcbb506fac,61036e8fc5234f1187fb1c72,2021-07-29_23h15.09.069,Simcolourproject_2stim_asymm_v5,2020.2.10,Win32,60,61025ae37ef11b136ea224fe,,,,,,,,,1562,40,60,1,0,0,response1disk,,7,9,1,1,0,0,rectangle,9,1,1,0,0,9,1,1,0,0,1,38,198,24,1,,,,,,,,
,,,,,,,,,,,,,FF,,,,,,,,3.9334,,,,,,,,,,,,,,,,,,,,,,60fd51ecc8c5b6dcbb506fac,61036e8fc5234f1187fb1c72,2021-07-29_23h15.09.069,Simcolourproject_2stim_asymm_v5,2020.2.10,Win32,60,61025ae37ef11b136ea224fe,,,,,,,,,3080,70,53,1,0,0,response1disk,,6,8,2,1,0,0,rectangle,8,2,1,0,0,8,2,1,0,0,1,39,199,82,1,,,,,,,,
,,,,,,,,,,,,,FF,,,,,,,,1.2665,,,,,,,,,,,,,,,,,,,,,,60fd51ecc8c5b6dcbb506fac,61036e8fc5234f1187fb1c72,2021-07-29_23h15.09.069,Simcolourproject_2stim_asymm_v5,2020.2.10,Win32,60,61025ae37ef11b136ea224fe,,,,,,,,,3428,38,-65,1,0,0,response3disk,,4,-11,6,1,0,0,rectangle,-11,6,1,0,0,-11,6,1,0,0,1,40,200,21,1,,,,,,,,
,,,,,,,,,,,,,FF,,,,,,,,2.4165,,,,,,,,,,,,,,,,,,,,,,60fd51ecc8c5b6dcbb506fac,61036e8fc5234f1187fb1c72,2021-07-29_23h15.09.069,Simcolourproject_2stim_asymm_v5,2020.2.10,Win32,60,61025ae37ef11b136ea224fe,,,,,,,,,3595,32,-85,1,0,0,response3disk,,4,12,6,1,0,0,rectangle,12,6,1,0,0,12,6,1,0,0,1,41,201,81,1,,,,,,,,
,,,,,,,,,,,,,FF,,,,,,,,1.1334,,,,,,,,,,,,,,,,,,,,,,60fd51ecc8c5b6dcbb506fac,61036e8fc5234f1187fb1c72,2021-07-29_23h15.09.069,Simcolourproject_2stim_asymm_v5,2020.2.10,Win32,60,61025ae37ef11b136ea224fe,,,,,,,,,2462,42,60,1,0,0,response1disk,,7,4,3,1,0,0,rectangle,4,3,1,0,0,4,3,1,0,0,1,42,202,40,1,,,,,,,,
,,,,,,,,,,,,,FF,,,,,,,,0.9666,,,,,,,,,,,,,,,,,,,,,,60fd51ecc8c5b6dcbb506fac,61036e8fc5234f1187fb1c72,2021-07-29_23h15.09.069,Simcolourproject_2stim_asymm_v5,2020.2.10,Win32,60,61025ae37ef11b136ea224fe,,,,,,,,,506,38,79,1,0,0,response1disk,,7,4,4,1,0,0,rectangle,4,4,1,0,0,4,4,1,0,0,1,43,203,91,1,,,,,,,,
,,,,,,,,,,,,,FF,,,,,,,,2.1667,,,,,,,,,,,,,,,,,,,,,,60fd51ecc8c5b6dcbb506fac,61036e8fc5234f1187fb1c72,2021-07-29_23h15.09.069,Simcolourproject_2stim_asymm_v5,2020.2.10,Win32,60,61025ae37ef11b136ea224fe,,,,,,,,,4161,-63,49,1,0,0,response7disk,,1,-4,8,1,0,0,rectangle,-4,8,1,0,0,-4,8,1,0,0,1,44,204,107,1,,,,,,,,
,,,,,,,,,,,,,FF,,,,,,,,0.95,,,,,,,,,,,,,,,,,,,,,,60fd51ecc8c5b6dcbb506fac,61036e8fc5234f1187fb1c72,2021-07-29_23h15.09.069,Simcolourproject_2stim_asymm_v5,2020.2.10,Win32,60,61025ae37ef11b136ea224fe,,,,,,,,,2346,29,72,1,0,0,response1disk,,7,-4,-4,1,0,0,rectangle,-4,-4,1,0,0,-4,-4,1,0,0,1,45,205,4,1,,,,,,,,
,,,,,,,,,,,,,FF,,,,,,,,1.1338,,,,,,,,,,,,,,,,,,,,,,60fd51ecc8c5b6dcbb506fac,61036e8fc5234f1187fb1c72,2021-07-29_23h15.09.069,Simcolourproject_2stim_asymm_v5,2020.2.10,Win32,60,61025ae37ef11b136ea224fe,,,,,,,,,1857,35,66,1,0,0,response1disk,,7,2,-4,1,0,0,rectangle,2,-4,1,0,0,2,-4,1,0,0,1,46,206,126,1,,,,,,,,
,,,,,,,,,,,,,FF,,,,,,,,2.2499,,,,,,,,,,,,,,,,,,,,,,60fd51ecc8c5b6dcbb506fac,61036e8fc5234f1187fb1c72,2021-07-29_23h15.09.069,Simcolourproject_2stim_asymm_v5,2020.2.10,Win32,60,61025ae37ef11b136ea224fe,,,,,,,,,3600,34,67,1,0,0,response1disk,,7,-8,-9,1,0,0,rectangle,-8,-9,1,0,0,-8,-9,1,0,0,1,47,207,49,1,,,,,,,,
,,,,,,,,,,,,,FF,,,,,,,,1.0336,,,,,,,,,,,,,,,,,,,,,,60fd51ecc8c5b6dcbb506fac,61036e8fc5234f1187fb1c72,2021-07-29_23h15.09.069,Simcolourproject_2stim_asymm_v5,2020.2.10,Win32,60,61025ae37ef11b136ea224fe,,,,,,,,,3527,18,60,1,0,0,response1disk,,7,-3,8,1,0,0,rectangle,-3,8,1,0,0,-3,8,1,0,0,1,48,208,45,1,,,,,,,,
,,,,,,,,,,,,,FF,,,,,,,,1.8167,,,,,,,,,,,,,,,,,,,,,,60fd51ecc8c5b6dcbb506fac,61036e8fc5234f1187fb1c72,2021-07-29_23h15.09.069,Simcolourproject_2stim_asymm_v5,2020.2.10,Win32,60,61025ae37ef11b136ea224fe,,,,,,,,,3750,73,-25,1,0,0,response3disk,,5,24,-5,1,0,0,rectangle,24,-5,1,0,0,24,-5,1,0,0,1,49,209,65,1,,,,,,,,
,,,,,,,,,,,,,FF,,,,,,,,1.1169,,,,,,,,,,,,,,,,,,,,,,60fd51ecc8c5b6dcbb506fac,61036e8fc5234f1187fb1c72,2021-07-29_23h15.09.069,Simcolourproject_2stim_asymm_v5,2020.2.10,Win32,60,61025ae37ef11b136ea224fe,,,,,,,,,742,39,63,1,0,0,response1disk,,7,10,6,1,0,0,rectangle,10,6,1,0,0,10,6,1,0,0,1,50,210,78,1,,,,,,,,
,,,,,,,,,,,,,FF,,,,,,,,1.3502,,,,,,,,,,,,,,,,,,,,,,60fd51ecc8c5b6dcbb506fac,61036e8fc5234f1187fb1c72,2021-07-29_23h15.09.069,Simcolourproject_2stim_asymm_v5,2020.2.10,Win32,60,61025ae37ef11b136ea224fe,,,,,,,,,836,33,75,1,0,0,response1disk,,7,4,7,1,0,0,rectangle,4,7,1,0,0,4,7,1,0,0,1,51,211,102,1,,,,,,,,
,,,,,,,,,,,,,FF,,,,,,,,1.1335,,,,,,,,,,,,,,,,,,,,,,60fd51ecc8c5b6dcbb506fac,61036e8fc5234f1187fb1c72,2021-07-29_23h15.09.069,Simcolourproject_2stim_asymm_v5,2020.2.10,Win32,60,61025ae37ef11b136ea224fe,,,,,,,,,2868,42,82,1,0,0,response1disk,,7,10,-2,1,0,0,rectangle,10,-2,1,0,0,10,-2,1,0,0,1,52,212,47,1,,,,,,,,
,,,,,,,,,,,,,FF,,,,,,,,0.9004,,,,,,,,,,,,,,,,,,,,,,60fd51ecc8c5b6dcbb506fac,61036e8fc5234f1187fb1c72,2021-07-29_23h15.09.069,Simcolourproject_2stim_asymm_v5,2020.2.10,Win32,60,61025ae37ef11b136ea224fe,,,,,,,,,124,38,68,1,0,0,response1disk,,7,14,2,1,0,0,rectangle,-39,66,1,0,0,-9,2,1,0,0,1,53,213,71,1,,response7disk_3,TRUE,0,0,"[181,309,268,185,289,185,277,26,230,172,186,309,121,214,77,84,316,28,113,132]",2.1336,rectangle
,,,,,,,,,,,,,FF,,,,,,,,1.8835,,,,,,,,,,,,,,,,,,,,,,60fd51ecc8c5b6dcbb506fac,61036e8fc5234f1187fb1c72,2021-07-29_23h15.09.069,Simcolourproject_2stim_asymm_v5,2020.2.10,Win32,60,61025ae37ef11b136ea224fe,,,,,,,,,4099,92,-45,1,0,0,response3disk,,5,19,0,1,0,0,rectangle,19,0,1,0,0,19,0,1,0,0,1,54,214,53,1,,,,,,,,
,,,,,,,,,,,,,FF,,,,,,,,1.15,,,,,,,,,,,,,,,,,,,,,,60fd51ecc8c5b6dcbb506fac,61036e8fc5234f1187fb1c72,2021-07-29_23h15.09.069,Simcolourproject_2stim_asymm_v5,2020.2.10,Win32,60,61025ae37ef11b136ea224fe,,,,,,,,,772,62,38,1,0,0,response1disk,,6,13,1,1,0,0,rectangle,13,1,1,0,0,13,1,1,0,0,1,55,215,55,1,,,,,,,,
,,,,,,,,,,,,,FF,,,,,,,,0.9667,,,,,,,,,,,,,,,,,,,,,,60fd51ecc8c5b6dcbb506fac,61036e8fc5234f1187fb1c72,2021-07-29_23h15.09.069,Simcolourproject_2stim_asymm_v5,2020.2.10,Win32,60,61025ae37ef11b136ea224fe,,,,,,,,,1717,28,65,1,0,0,response1disk,,7,10,4,1,0,0,rectangle,10,4,1,0,0,10,4,1,0,0,1,56,216,16,1,,,,,,,,
,,,,,,,,,,,,,FF,,,,,,,,1.0667,,,,,,,,,,,,,,,,,,,,,,60fd51ecc8c5b6dcbb506fac,61036e8fc5234f1187fb1c72,2021-07-29_23h15.09.069,Simcolourproject_2stim_asymm_v5,2020.2.10,Win32,60,61025ae37ef11b136ea224fe,,,,,,,,,3684,71,35,1,0,0,response1disk,,6,19,-4,1,0,0,rectangle,19,-4,1,0,0,19,-4,1,0,0,1,57,217,137,1,,,,,,,,
,,,,,,,,,,,,,FF,,,,,,,,1.0502,,,,,,,,,,,,,,,,,,,,,,60fd51ecc8c5b6dcbb506fac,61036e8fc5234f1187fb1c72,2021-07-29_23h15.09.069,Simcolourproject_2stim_asymm_v5,2020.2.10,Win32,60,61025ae37ef11b136ea224fe,,,,,,,,,983,23,60,1,0,0,response1disk,,7,4,2,1,0,0,rectangle,4,2,1,0,0,4,2,1,0,0,1,58,218,151,1,,,,,,,,
,,,,,,,,,,,,,FF,,,,,,,,1.0334,,,,,,,,,,,,,,,,,,,,,,60fd51ecc8c5b6dcbb506fac,61036e8fc5234f1187fb1c72,2021-07-29_23h15.09.069,Simcolourproject_2stim_asymm_v5,2020.2.10,Win32,60,61025ae37ef11b136ea224fe,,,,,,,,,3496,33,51,1,0,0,response1disk,,7,6,-4,1,0,0,rectangle,6,-4,1,0,0,6,-4,1,0,0,1,59,219,145,1,,,,,,,,
,,,,,,,,,,,,,FF,,,,,,,,1.0668,,,,,,,,,,,,,,,,,,,,,,60fd51ecc8c5b6dcbb506fac,61036e8fc5234f1187fb1c72,2021-07-29_23h15.09.069,Simcolourproject_2stim_asymm_v5,2020.2.10,Win32,60,61025ae37ef11b136ea224fe,,,,,,,,,4133,41,59,1,0,0,response1disk,,7,14,-1,1,0,0,rectangle,14,-1,1,0,0,14,-1,1,0,0,1,60,220,87,1,,,,,,,,
,,,,,,,,,,,,,FF,,,,,,,,1.6668,,,,,,,,,,,,,,,,,,,,,,60fd51ecc8c5b6dcbb506fac,61036e8fc5234f1187fb1c72,2021-07-29_23h15.09.069,Simcolourproject_2stim_asymm_v5,2020.2.10,Win32,60,61025ae37ef11b136ea224fe,,,,,,,,,1381,71,-28,1,0,0,response3disk,,5,19,-8,1,0,0,rectangle,19,-8,1,0,0,19,-8,1,0,0,1,61,221,144,1,,,,,,,,
,,,,,,,,,,,,,FF,,,,,,,,1.4501,,,,,,,,,,,,,,,,,,,,,,60fd51ecc8c5b6dcbb506fac,61036e8fc5234f1187fb1c72,2021-07-29_23h15.09.069,Simcolourproject_2stim_asymm_v5,2020.2.10,Win32,60,61025ae37ef11b136ea224fe,,,,,,,,,881,60,-27,1,0,0,response3disk,,5,19,-5,1,0,0,rectangle,19,-5,1,0,0,19,-5,1,0,0,1,62,222,22,1,,,,,,,,
,,,,,,,,,,,,,FF,,,,,,,,1.0504,,,,,,,,,,,,,,,,,,,,,,60fd51ecc8c5b6dcbb506fac,61036e8fc5234f1187fb1c72,2021-07-29_23h15.09.069,Simcolourproject_2stim_asymm_v5,2020.2.10,Win32,60,61025ae37ef11b136ea224fe,,,,,,,,,4307,29,57,1,0,0,response1disk,,7,7,2,1,0,0,rectangle,7,2,1,0,0,7,2,1,0,0,1,63,223,61,1,,,,,,,,
,,,,,,,,,,,,,FF,,,,,,,,1.0334,,,,,,,,,,,,,,,,,,,,,,60fd51ecc8c5b6dcbb506fac,61036e8fc5234f1187fb1c72,2021-07-29_23h15.09.069,Simcolourproject_2stim_asymm_v5,2020.2.10,Win32,60,61025ae37ef11b136ea224fe,,,,,,,,,3354,28,57,1,0,0,response1disk,,7,15,9,1,0,0,rectangle,15,9,1,0,0,15,9,1,0,0,1,64,224,33,1,,,,,,,,
,,,,,,,,,,,,,FF,,,,,,,,2.2166,,,,,,,,,,,,,,,,,,,,,,60fd51ecc8c5b6dcbb506fac,61036e8fc5234f1187fb1c72,2021-07-29_23h15.09.069,Simcolourproject_2stim_asymm_v5,2020.2.10,Win32,60,61025ae37ef11b136ea224fe,,,,,,,,,3409,79,65,1,0,0,response1disk,,6,10,-8,1,0,0,rectangle,10,-8,1,0,0,10,-8,1,0,0,1,65,225,57,1,,,,,,,,
,,,,,,,,,,,,,FF,,,,,,,,1.2997,,,,,,,,,,,,,,,,,,,,,,60fd51ecc8c5b6dcbb506fac,61036e8fc5234f1187fb1c72,2021-07-29_23h15.09.069,Simcolourproject_2stim_asymm_v5,2020.2.10,Win32,60,61025ae37ef11b136ea224fe,,,,,,,,,2900,41,-73,1,0,0,response3disk,,4,-1,2,1,0,0,rectangle,-1,2,1,0,0,-1,2,1,0,0,1,66,226,56,1,,,,,,,,
,,,,,,,,,,,,,FF,,,,,,,,1.1167,,,,,,,,,,,,,,,,,,,,,,60fd51ecc8c5b6dcbb506fac,61036e8fc5234f1187fb1c72,2021-07-29_23h15.09.069,Simcolourproject_2stim_asymm_v5,2020.2.10,Win32,60,61025ae37ef11b136ea224fe,,,,,,,,,205,64,-29,1,0,0,response3disk,,5,23,-11,1,0,0,rectangle,23,-11,1,0,0,23,-11,1,0,0,1,67,227,6,1,,,,,,,,
,,,,,,,,,,,,,FF,,,,,,,,1.1334,,,,,,,,,,,,,,,,,,,,,,60fd51ecc8c5b6dcbb506fac,61036e8fc5234f1187fb1c72,2021-07-29_23h15.09.069,Simcolourproject_2stim_asymm_v5,2020.2.10,Win32,60,61025ae37ef11b136ea224fe,,,,,,,,,3197,-25,-77,1,0,0,response5disk,,3,6,-4,1,0,0,rectangle,6,-4,1,0,0,6,-4,1,0,0,1,68,228,159,1,,,,,,,,
,,,,,,,,,,,,,FF,,,,,,,,1.033,,,,,,,,,,,,,,,,,,,,,,60fd51ecc8c5b6dcbb506fac,61036e8fc5234f1187fb1c72,2021-07-29_23h15.09.069,Simcolourproject_2stim_asymm_v5,2020.2.10,Win32,60,61025ae37ef11b136ea224fe,,,,,,,,,3796,76,39,1,0,0,response1disk,,6,19,1,1,0,0,rectangle,93,35,1,0,0,23,-2,1,0,0,1,69,229,89,1,,response1disk_3,TRUE,6,6,"[181,309,268,185,289,185,277,26,230,172,186,309,121,214,77,84,316,28,113,132]",1.9165,rectangle
,,,,,,,,,,,,,FF,,,,,,,,1.8499,,,,,,,,,,,,,,,,,,,,,,60fd51ecc8c5b6dcbb506fac,61036e8fc5234f1187fb1c72,2021-07-29_23h15.09.069,Simcolourproject_2stim_asymm_v5,2020.2.10,Win32,60,61025ae37ef11b136ea224fe,,,,,,,,,2246,74,-32,1,0,0,response3disk,,5,24,2,1,0,0,rectangle,24,2,1,0,0,24,2,1,0,0,1,70,230,149,1,,,,,,,,
,,,,,,,,,,,,,FF,,,,,,,,1.0834,,,,,,,,,,,,,,,,,,,,,,60fd51ecc8c5b6dcbb506fac,61036e8fc5234f1187fb1c72,2021-07-29_23h15.09.069,Simcolourproject_2stim_asymm_v5,2020.2.10,Win32,60,61025ae37ef11b136ea224fe,,,,,,,,,2939,42,72,1,0,0,response1disk,,7,13,-1,1,0,0,rectangle,13,-1,1,0,0,13,-1,1,0,0,1,71,231,130,1,,,,,,,,
,,,,,,,,,,,,,FF,,,,,,,,1.15,,,,,,,,,,,,,,,,,,,,,,60fd51ecc8c5b6dcbb506fac,61036e8fc5234f1187fb1c72,2021-07-29_23h15.09.069,Simcolourproject_2stim_asymm_v5,2020.2.10,Win32,60,61025ae37ef11b136ea224fe,,,,,,,,,3951,67,34,1,0,0,response1disk,,6,15,-4,1,0,0,rectangle,15,-4,1,0,0,15,-4,1,0,0,1,72,232,120,1,,,,,,,,
,,,,,,,,,,,,,FF,,,,,,,,1.0001,,,,,,,,,,,,,,,,,,,,,,60fd51ecc8c5b6dcbb506fac,61036e8fc5234f1187fb1c72,2021-07-29_23h15.09.069,Simcolourproject_2stim_asymm_v5,2020.2.10,Win32,60,61025ae37ef11b136ea224fe,,,,,,,,,4089,37,63,1,0,0,response1disk,,7,3,-9,1,0,0,rectangle,3,-9,1,0,0,3,-9,1,0,0,1,73,233,46,1,,,,,,,,
,,,,,,,,,,,,,FF,,,,,,,,1.0001,,,,,,,,,,,,,,,,,,,,,,60fd51ecc8c5b6dcbb506fac,61036e8fc5234f1187fb1c72,2021-07-29_23h15.09.069,Simcolourproject_2stim_asymm_v5,2020.2.10,Win32,60,61025ae37ef11b136ea224fe,,,,,,,,,1033,24,51,1,0,0,response1disk,,7,10,8,1,0,0,rectangle,10,8,1,0,0,10,8,1,0,0,1,74,234,18,1,,,,,,,,
,,,,,,,,,,,,,FF,,,,,,,,3.083,,,,,,,,,,,,,,,,,,,,,,60fd51ecc8c5b6dcbb506fac,61036e8fc5234f1187fb1c72,2021-07-29_23h15.09.069,Simcolourproject_2stim_asymm_v5,2020.2.10,Win32,60,61025ae37ef11b136ea224fe,,,,,,,,,4141,65,39,1,0,0,response1disk,,6,-1,-10,1,0,0,rectangle,-1,-10,1,0,0,-1,-10,1,0,0,1,75,235,109,1,,,,,,,,
,,,,,,,,,,,,,FF,,,,,,,,0.9836,,,,,,,,,,,,,,,,,,,,,,60fd51ecc8c5b6dcbb506fac,61036e8fc5234f1187fb1c72,2021-07-29_23h15.09.069,Simcolourproject_2stim_asymm_v5,2020.2.10,Win32,60,61025ae37ef11b136ea224fe,,,,,,,,,4086,23,48,1,0,0,response1disk,,7,7,7,1,0,0,rectangle,7,7,1,0,0,7,7,1,0,0,1,76,236,75,1,,,,,,,,
,,,,,,,,,,,,,FF,,,,,,,,1.217,,,,,,,,,,,,,,,,,,,,,,60fd51ecc8c5b6dcbb506fac,61036e8fc5234f1187fb1c72,2021-07-29_23h15.09.069,Simcolourproject_2stim_asymm_v5,2020.2.10,Win32,60,61025ae37ef11b136ea224fe,,,,,,,,,1813,48,-59,1,0,0,response3disk,,4,12,-5,1,0,0,rectangle,12,-5,1,0,0,12,-5,1,0,0,1,77,237,69,1,,,,,,,,
,,,,,,,,,,,,,FF,,,,,,,,2.1502,,,,,,,,,,,,,,,,,,,,,,60fd51ecc8c5b6dcbb506fac,61036e8fc5234f1187fb1c72,2021-07-29_23h15.09.069,Simcolourproject_2stim_asymm_v5,2020.2.10,Win32,60,61025ae37ef11b136ea224fe,,,,,,,,,37,60,36,1,0,0,response1disk,,6,17,6,1,0,0,rectangle,17,6,1,0,0,17,6,1,0,0,1,78,238,27,1,,,,,,,,
,,,,,,,,,,,,,FF,,,,,,,,1.2001,,,,,,,,,,,,,,,,,,,,,,60fd51ecc8c5b6dcbb506fac,61036e8fc5234f1187fb1c72,2021-07-29_23h15.09.069,Simcolourproject_2stim_asymm_v5,2020.2.10,Win32,60,61025ae37ef11b136ea224fe,,,,,,,,,402,41,59,1,0,0,response1disk,,7,19,7,1,0,0,rectangle,19,7,1,0,0,19,7,1,0,0,1,79,239,25,1,,,,,,,,
,,,,,,,,,,,,,FF,,,,,,,,1.6832,,,,,,,,,,,,,,,,,,,,,,60fd51ecc8c5b6dcbb506fac,61036e8fc5234f1187fb1c72,2021-07-29_23h15.09.069,Simcolourproject_2stim_asymm_v5,2020.2.10,Win32,60,61025ae37ef11b136ea224fe,,,,,,,,,3872,41,58,1,0,0,response1disk,,7,17,-3,1,0,0,rectangle,17,-3,1,0,0,17,-3,1,0,0,1,80,240,156,1,,,,,,,,
,,,,,,,,,,,,,FF,,,,,,,,2.8666,,,,,,,,,,,,,,,,,,,,,,60fd51ecc8c5b6dcbb506fac,61036e8fc5234f1187fb1c72,2021-07-29_23h15.09.069,Simcolourproject_2stim_asymm_v5,2020.2.10,Win32,60,61025ae37ef11b136ea224fe,,,,,,,,,701,60,50,1,0,0,response1disk,,6,4,0,1,0,0,rectangle,4,0,1,0,0,4,0,1,0,0,1,81,241,146,1,,,,,,,,
,,,,,,,,,,,,,FF,,,,,,,,1.15,,,,,,,,,,,,,,,,,,,,,,60fd51ecc8c5b6dcbb506fac,61036e8fc5234f1187fb1c72,2021-07-29_23h15.09.069,Simcolourproject_2stim_asymm_v5,2020.2.10,Win32,60,61025ae37ef11b136ea224fe,,,,,,,,,1201,29,60,1,0,0,response1disk,,7,3,7,1,0,0,rectangle,3,7,1,0,0,3,7,1,0,0,1,82,242,135,1,,,,,,,,
,,,,,,,,,,,,,FF,,,,,,,,1.0001,,,,,,,,,,,,,,,,,,,,,,60fd51ecc8c5b6dcbb506fac,61036e8fc5234f1187fb1c72,2021-07-29_23h15.09.069,Simcolourproject_2stim_asymm_v5,2020.2.10,Win32,60,61025ae37ef11b136ea224fe,,,,,,,,,417,31,47,1,0,0,response1disk,,7,8,3,1,0,0,rectangle,8,3,1,0,0,8,3,1,0,0,1,83,243,7,1,,,,,,,,
,,,,,,,,,,,,,FF,,,,,,,,0.9332,,,,,,,,,,,,,,,,,,,,,,60fd51ecc8c5b6dcbb506fac,61036e8fc5234f1187fb1c72,2021-07-29_23h15.09.069,Simcolourproject_2stim_asymm_v5,2020.2.10,Win32,60,61025ae37ef11b136ea224fe,,,,,,,,,999,36,63,1,0,0,response1disk,,7,10,1,1,0,0,rectangle,10,1,1,0,0,10,1,1,0,0,1,84,244,12,1,,,,,,,,
,,,,,,,,,,,,,FF,,,,,,,,0.9666,,,,,,,,,,,,,,,,,,,,,,60fd51ecc8c5b6dcbb506fac,61036e8fc5234f1187fb1c72,2021-07-29_23h15.09.069,Simcolourproject_2stim_asymm_v5,2020.2.10,Win32,60,61025ae37ef11b136ea224fe,,,,,,,,,1181,26,49,1,0,0,response1disk,,7,11,7,1,0,0,rectangle,11,7,1,0,0,11,7,1,0,0,1,85,245,150,1,,,,,,,,
,,,,,,,,,,,,,FF,,,,,,,,1.8833,,,,,,,,,,,,,,,,,,,,,,60fd51ecc8c5b6dcbb506fac,61036e8fc5234f1187fb1c72,2021-07-29_23h15.09.069,Simcolourproject_2stim_asymm_v5,2020.2.10,Win32,60,61025ae37ef11b136ea224fe,,,,,,,,,798,59,50,1,0,0,response1disk,,6,4,-3,1,0,0,rectangle,4,-3,1,0,0,4,-3,1,0,0,1,86,246,123,1,,,,,,,,
,,,,,,,,,,,,,FF,,,,,,,,1.217,,,,,,,,,,,,,,,,,,,,,,60fd51ecc8c5b6dcbb506fac,61036e8fc5234f1187fb1c72,2021-07-29_23h15.09.069,Simcolourproject_2stim_asymm_v5,2020.2.10,Win32,60,61025ae37ef11b136ea224fe,,,,,,,,,790,28,37,1,0,0,response1disk,,7,13,5,1,0,0,rectangle,13,5,1,0,0,13,5,1,0,0,1,87,247,9,1,,,,,,,,
,,,,,,,,,,,,,FF,,,,,,,,1.5333,,,,,,,,,,,,,,,,,,,,,,60fd51ecc8c5b6dcbb506fac,61036e8fc5234f1187fb1c72,2021-07-29_23h15.09.069,Simcolourproject_2stim_asymm_v5,2020.2.10,Win32,60,61025ae37ef11b136ea224fe,,,,,,,,,870,61,-22,1,0,0,response3disk,,5,14,-1,1,0,0,rectangle,14,-1,1,0,0,14,-1,1,0,0,1,88,248,72,1,,,,,,,,
,,,,,,,,,,,,,FF,,,,,,,,1.2667,,,,,,,,,,,,,,,,,,,,,,60fd51ecc8c5b6dcbb506fac,61036e8fc5234f1187fb1c72,2021-07-29_23h15.09.069,Simcolourproject_2stim_asymm_v5,2020.2.10,Win32,60,61025ae37ef11b136ea224fe,,,,,,,,,2671,27,-62,1,0,0,response3disk,,4,4,-2,1,0,0,rectangle,4,-2,1,0,0,4,-2,1,0,0,1,89,249,20,1,,,,,,,,
,,,,,,,,,,,,,FF,,,,,,,,2.2502,,,,,,,,,,,,,,,,,,,,,,60fd51ecc8c5b6dcbb506fac,61036e8fc5234f1187fb1c72,2021-07-29_23h15.09.069,Simcolourproject_2stim_asymm_v5,2020.2.10,Win32,60,61025ae37ef11b136ea224fe,,,,,,,,,2504,22,44,1,0,0,response1disk,,7,6,1,1,0,0,rectangle,6,1,1,0,0,6,1,1,0,0,1,90,250,1,1,,,,,,,,
,,,,,,,,,,,,,FF,,,,,,,,0.9499,,,,,,,,,,,,,,,,,,,,,,60fd51ecc8c5b6dcbb506fac,61036e8fc5234f1187fb1c72,2021-07-29_23h15.09.069,Simcolourproject_2stim_asymm_v5,2020.2.10,Win32,60,61025ae37ef11b136ea224fe,,,,,,,,,1162,35,47,1,0,0,response1disk,,7,18,9,1,0,0,rectangle,18,9,1,0,0,18,9,1,0,0,1,91,251,139,1,,,,,,,,
,,,,,,,,,,,,,FF,,,,,,,,1.5,,,,,,,,,,,,,,,,,,,,,,60fd51ecc8c5b6dcbb506fac,61036e8fc5234f1187fb1c72,2021-07-29_23h15.09.069,Simcolourproject_2stim_asymm_v5,2020.2.10,Win32,60,61025ae37ef11b136ea224fe,,,,,,,,,1326,66,49,1,0,0,response1disk,,6,24,6,1,0,0,rectangle,24,6,1,0,0,24,6,1,0,0,1,92,252,157,1,,,,,,,,
,,,,,,,,,,,,,FF,,,,,,,,1.1667,,,,,,,,,,,,,,,,,,,,,,60fd51ecc8c5b6dcbb506fac,61036e8fc5234f1187fb1c72,2021-07-29_23h15.09.069,Simcolourproject_2stim_asymm_v5,2020.2.10,Win32,60,61025ae37ef11b136ea224fe,,,,,,,,,3001,33,47,1,0,0,response1disk,,7,15,6,1,0,0,rectangle,15,6,1,0,0,15,6,1,0,0,1,93,253,105,1,,,,,,,,
,,,,,,,,,,,,,FF,,,,,,,,2.0337,,,,,,,,,,,,,,,,,,,,,,60fd51ecc8c5b6dcbb506fac,61036e8fc5234f1187fb1c72,2021-07-29_23h15.09.069,Simcolourproject_2stim_asymm_v5,2020.2.10,Win32,60,61025ae37ef11b136ea224fe,,,,,,,,,4154,77,-29,1,0,0,response3disk,,5,3,2,1,0,0,rectangle,3,2,1,0,0,3,2,1,0,0,1,94,254,17,1,,,,,,,,
,,,,,,,,,,,,,FF,,,,,,,,1.9669,,,,,,,,,,,,,,,,,,,,,,60fd51ecc8c5b6dcbb506fac,61036e8fc5234f1187fb1c72,2021-07-29_23h15.09.069,Simcolourproject_2stim_asymm_v5,2020.2.10,Win32,60,61025ae37ef11b136ea224fe,,,,,,,,,1874,71,55,1,0,0,response1disk,,6,9,0,1,0,0,rectangle,9,0,1,0,0,9,0,1,0,0,1,95,255,60,1,,,,,,,,
,,,,,,,,,,,,,FF,,,,,,,,2.5164,,,,,,,,,,,,,,,,,,,,,,60fd51ecc8c5b6dcbb506fac,61036e8fc5234f1187fb1c72,2021-07-29_23h15.09.069,Simcolourproject_2stim_asymm_v5,2020.2.10,Win32,60,61025ae37ef11b136ea224fe,,,,,,,,,1076,36,66,1,0,0,response1disk,,7,1,2,1,0,0,rectangle,1,2,1,0,0,1,2,1,0,0,1,96,256,51,1,,,,,,,,
,,,,,,,,,,,,,FF,,,,,,,,1.0666,,,,,,,,,,,,,,,,,,,,,,60fd51ecc8c5b6dcbb506fac,61036e8fc5234f1187fb1c72,2021-07-29_23h15.09.069,Simcolourproject_2stim_asymm_v5,2020.2.10,Win32,60,61025ae37ef11b136ea224fe,,,,,,,,,3794,56,42,1,0,0,response1disk,,6,13,-1,1,0,0,rectangle,13,-1,1,0,0,13,-1,1,0,0,1,97,257,115,1,,,,,,,,
,,,,,,,,,,,,,FF,,,,,,,,1.4496,,,,,,,,,,,,,,,,,,,,,,60fd51ecc8c5b6dcbb506fac,61036e8fc5234f1187fb1c72,2021-07-29_23h15.09.069,Simcolourproject_2stim_asymm_v5,2020.2.10,Win32,60,61025ae37ef11b136ea224fe,,,,,,,,,241,57,30,1,0,0,response1disk,,6,25,-2,1,0,0,rectangle,25,-2,1,0,0,25,-2,1,0,0,1,98,258,138,1,,,,,,,,
,,,,,,,,,,,,,FF,,,,,,,,1.0167,,,,,,,,,,,,,,,,,,,,,,60fd51ecc8c5b6dcbb506fac,61036e8fc5234f1187fb1c72,2021-07-29_23h15.09.069,Simcolourproject_2stim_asymm_v5,2020.2.10,Win32,60,61025ae37ef11b136ea224fe,,,,,,,,,4191,35,47,1,0,0,response1disk,,7,14,5,1,0,0,rectangle,14,5,1,0,0,14,5,1,0,0,1,99,259,129,1,,,,,,,,
,,,,,,,,,,,,,FF,,,,,,,,1.6667,,,,,,,,,,,,,,,,,,,,,,60fd51ecc8c5b6dcbb506fac,61036e8fc5234f1187fb1c72,2021-07-29_23h15.09.069,Simcolourproject_2stim_asymm_v5,2020.2.10,Win32,60,61025ae37ef11b136ea224fe,,,,,,,,,3998,-52,-64,1,0,0,response5disk,,3,-7,2,1,0,0,rectangle,-7,2,1,0,0,-7,2,1,0,0,1,100,260,127,1,,,,,,,,
,,,,,,,,,,,,,FF,,,,,,,,1.25,,,,,,,,,,,,,,,,,,,,,,60fd51ecc8c5b6dcbb506fac,61036e8fc5234f1187fb1c72,2021-07-29_23h15.09.069,Simcolourproject_2stim_asymm_v5,2020.2.10,Win32,60,61025ae37ef11b136ea224fe,,,,,,,,,2733,34,-60,1,0,0,response3disk,,4,18,-13,1,0,0,rectangle,18,-13,1,0,0,18,-13,1,0,0,1,101,261,134,1,,,,,,,,
,,,,,,,,,,,,,FF,,,,,,,,1.0666,,,,,,,,,,,,,,,,,,,,,,60fd51ecc8c5b6dcbb506fac,61036e8fc5234f1187fb1c72,2021-07-29_23h15.09.069,Simcolourproject_2stim_asymm_v5,2020.2.10,Win32,60,61025ae37ef11b136ea224fe,,,,,,,,,519,35,56,1,0,0,response1disk,,7,13,12,1,0,0,rectangle,13,12,1,0,0,13,12,1,0,0,1,102,262,80,1,,,,,,,,
,,,,,,,,,,,,,FF,,,,,,,,1.3167,,,,,,,,,,,,,,,,,,,,,,60fd51ecc8c5b6dcbb506fac,61036e8fc5234f1187fb1c72,2021-07-29_23h15.09.069,Simcolourproject_2stim_asymm_v5,2020.2.10,Win32,60,61025ae37ef11b136ea224fe,,,,,,,,,3252,-54,-63,1,0,0,response5disk,,3,-21,-6,1,0,0,rectangle,-21,-6,1,0,0,-21,-6,1,0,0,1,103,263,52,1,,,,,,,,
,,,,,,,,,,,,,FF,,,,,,,,0.9334,,,,,,,,,,,,,,,,,,,,,,60fd51ecc8c5b6dcbb506fac,61036e8fc5234f1187fb1c72,2021-07-29_23h15.09.069,Simcolourproject_2stim_asymm_v5,2020.2.10,Win32,60,61025ae37ef11b136ea224fe,,,,,,,,,1197,27,85,1,0,0,response1disk,,7,2,8,1,0,0,rectangle,2,8,1,0,0,2,8,1,0,0,1,104,264,15,1,,,,,,,,
,,,,,,,,,,,,,FF,,,,,,,,0.9166,,,,,,,,,,,,,,,,,,,,,,60fd51ecc8c5b6dcbb506fac,61036e8fc5234f1187fb1c72,2021-07-29_23h15.09.069,Simcolourproject_2stim_asymm_v5,2020.2.10,Win32,60,61025ae37ef11b136ea224fe,,,,,,,,,1639,47,89,1,0,0,response1disk,,7,14,4,1,0,0,rectangle,14,4,1,0,0,14,4,1,0,0,1,105,265,11,1,,,,,,,,
,,,,,,,,,,,,,FF,,,,,,,,1.7001,,,,,,,,,,,,,,,,,,,,,,60fd51ecc8c5b6dcbb506fac,61036e8fc5234f1187fb1c72,2021-07-29_23h15.09.069,Simcolourproject_2stim_asymm_v5,2020.2.10,Win32,60,61025ae37ef11b136ea224fe,,,,,,,,,4298,68,-46,1,0,0,response3disk,,5,19,-4,1,0,0,rectangle,19,-4,1,0,0,19,-4,1,0,0,1,106,266,13,1,,,,,,,,
,,,,,,,,,,,,,FF,,,,,,,,1.0499,,,,,,,,,,,,,,,,,,,,,,60fd51ecc8c5b6dcbb506fac,61036e8fc5234f1187fb1c72,2021-07-29_23h15.09.069,Simcolourproject_2stim_asymm_v5,2020.2.10,Win32,60,61025ae37ef11b136ea224fe,,,,,,,,,3638,44,73,1,0,0,response1disk,,7,3,-14,1,0,0,rectangle,-81,47,1,0,0,-10,-2,1,0,0,1,107,267,0,1,,response7disk_3,TRUE,1,1,"[181,309,268,185,289,185,277,26,230,172,186,309,121,214,77,84,316,28,113,132]",2.0674,rectangle
,,,,,,,,,,,,,FF,,,,,,,,1.3335,,,,,,,,,,,,,,,,,,,,,,60fd51ecc8c5b6dcbb506fac,61036e8fc5234f1187fb1c72,2021-07-29_23h15.09.069,Simcolourproject_2stim_asymm_v5,2020.2.10,Win32,60,61025ae37ef11b136ea224fe,,,,,,,,,2029,-54,-64,1,0,0,response5disk,,3,-4,-2,1,0,0,rectangle,-4,-2,1,0,0,-4,-2,1,0,0,1,108,268,92,1,,,,,,,,
,,,,,,,,,,,,,FF,,,,,,,,0.9999,,,,,,,,,,,,,,,,,,,,,,60fd51ecc8c5b6dcbb506fac,61036e8fc5234f1187fb1c72,2021-07-29_23h15.09.069,Simcolourproject_2stim_asymm_v5,2020.2.10,Win32,60,61025ae37ef11b136ea224fe,,,,,,,,,1085,24,62,1,0,0,response1disk,,7,-8,-4,1,0,0,rectangle,-8,-4,1,0,0,-8,-4,1,0,0,1,109,269,42,1,,,,,,,,
,,,,,,,,,,,,,FF,,,,,,,,1.5166,,,,,,,,,,,,,,,,,,,,,,60fd51ecc8c5b6dcbb506fac,61036e8fc5234f1187fb1c72,2021-07-29_23h15.09.069,Simcolourproject_2stim_asymm_v5,2020.2.10,Win32,60,61025ae37ef11b136ea224fe,,,,,,,,,3943,-81,-48,1,0,0,response5disk,,2,-6,-11,1,0,0,rectangle,-6,-11,1,0,0,-6,-11,1,0,0,1,110,270,74,1,,,,,,,,
,,,,,,,,,,,,,FF,,,,,,,,1.05,,,,,,,,,,,,,,,,,,,,,,60fd51ecc8c5b6dcbb506fac,61036e8fc5234f1187fb1c72,2021-07-29_23h15.09.069,Simcolourproject_2stim_asymm_v5,2020.2.10,Win32,60,61025ae37ef11b136ea224fe,,,,,,,,,611,16,60,1,0,0,response1disk,,7,2,11,1,0,0,rectangle,2,11,1,0,0,2,11,1,0,0,1,111,271,155,1,,,,,,,,
,,,,,,,,,,,,,FF,,,,,,,,0.9667,,,,,,,,,,,,,,,,,,,,,,60fd51ecc8c5b6dcbb506fac,61036e8fc5234f1187fb1c72,2021-07-29_23h15.09.069,Simcolourproject_2stim_asymm_v5,2020.2.10,Win32,60,61025ae37ef11b136ea224fe,,,,,,,,,1711,50,88,1,0,0,response1disk,,7,10,8,1,0,0,rectangle,10,8,1,0,0,10,8,1,0,0,1,112,272,77,1,,,,,,,,
,,,,,,,,,,,,,FF,,,,,,,,1.35,,,,,,,,,,,,,,,,,,,,,,60fd51ecc8c5b6dcbb506fac,61036e8fc5234f1187fb1c72,2021-07-29_23h15.09.069,Simcolourproject_2stim_asymm_v5,2020.2.10,Win32,60,61025ae37ef11b136ea224fe,,,,,,,,,2378,33,-78,1,0,0,response3disk,,4,13,-14,1,0,0,rectangle,13,-14,1,0,0,13,-14,1,0,0,1,113,273,23,1,,,,,,,,
,,,,,,,,,,,,,FF,,,,,,,,1.0667,,,,,,,,,,,,,,,,,,,,,,60fd51ecc8c5b6dcbb506fac,61036e8fc5234f1187fb1c72,2021-07-29_23h15.09.069,Simcolourproject_2stim_asymm_v5,2020.2.10,Win32,60,61025ae37ef11b136ea224fe,,,,,,,,,2082,28,69,1,0,0,response1disk,,7,4,15,1,0,0,rectangle,4,15,1,0,0,4,15,1,0,0,1,114,274,101,1,,,,,,,,
,,,,,,,,,,,,,FF,,,,,,,,1.3833,,,,,,,,,,,,,,,,,,,,,,60fd51ecc8c5b6dcbb506fac,61036e8fc5234f1187fb1c72,2021-07-29_23h15.09.069,Simcolourproject_2stim_asymm_v5,2020.2.10,Win32,60,61025ae37ef11b136ea224fe,,,,,,,,,3063,74,46,1,0,0,response1disk,,6,30,1,1,0,0,rectangle,30,1,1,0,0,30,1,1,0,0,1,115,275,104,1,,,,,,,,
,,,,,,,,,,,,,FF,,,,,,,,0.9834,,,,,,,,,,,,,,,,,,,,,,60fd51ecc8c5b6dcbb506fac,61036e8fc5234f1187fb1c72,2021-07-29_23h15.09.069,Simcolourproject_2stim_asymm_v5,2020.2.10,Win32,60,61025ae37ef11b136ea224fe,,,,,,,,,4234,40,73,1,0,0,response1disk,,7,2,1,1,0,0,rectangle,87,-38,1,0,0,15,-1,1,0,0,1,116,276,88,1,,response3disk_3,TRUE,5,5,"[181,309,268,185,289,185,277,26,230,172,186,309,121,214,77,84,316,28,113,132]",1.9001,rectangle
,,,,,,,,,,,,,FF,,,,,,,,1.4167,,,,,,,,,,,,,,,,,,,,,,60fd51ecc8c5b6dcbb506fac,61036e8fc5234f1187fb1c72,2021-07-29_23h15.09.069,Simcolourproject_2stim_asymm_v5,2020.2.10,Win32,60,61025ae37ef11b136ea224fe,,,,,,,,,202,75,60,1,0,0,response1disk,,6,-15,-7,1,0,0,rectangle,-15,-7,1,0,0,-15,-7,1,0,0,1,117,277,34,1,,,,,,,,
,,,,,,,,,,,,,FF,,,,,,,,1.2832,,,,,,,,,,,,,,,,,,,,,,60fd51ecc8c5b6dcbb506fac,61036e8fc5234f1187fb1c72,2021-07-29_23h15.09.069,Simcolourproject_2stim_asymm_v5,2020.2.10,Win32,60,61025ae37ef11b136ea224fe,,,,,,,,,1364,37,-76,1,0,0,response3disk,,4,5,-2,1,0,0,rectangle,5,-2,1,0,0,5,-2,1,0,0,1,118,278,141,1,,,,,,,,
,,,,,,,,,,,,,FF,,,,,,,,0.9668,,,,,,,,,,,,,,,,,,,,,,60fd51ecc8c5b6dcbb506fac,61036e8fc5234f1187fb1c72,2021-07-29_23h15.09.069,Simcolourproject_2stim_asymm_v5,2020.2.10,Win32,60,61025ae37ef11b136ea224fe,,,,,,,,,792,31,73,1,0,0,response1disk,,7,3,4,1,0,0,rectangle,3,4,1,0,0,3,4,1,0,0,1,119,279,152,1,,,,,,,,
,,,,,,,,,,,,,FF,,,,,,,,2.1,,,,,,,,,,,,,,,,,,,,,,60fd51ecc8c5b6dcbb506fac,61036e8fc5234f1187fb1c72,2021-07-29_23h15.09.069,Simcolourproject_2stim_asymm_v5,2020.2.10,Win32,60,61025ae37ef11b136ea224fe,,,,,,,,,4346,-78,-64,1,0,0,response5disk,,2,-5,-5,1,0,0,rectangle,-5,-5,1,0,0,-5,-5,1,0,0,1,120,280,154,1,,,,,,,,
,,,,,,,,,,,,,FF,,,,,,,,0.9169,,,,,,,,,,,,,,,,,,,,,,60fd51ecc8c5b6dcbb506fac,61036e8fc5234f1187fb1c72,2021-07-29_23h15.09.069,Simcolourproject_2stim_asymm_v5,2020.2.10,Win32,60,61025ae37ef11b136ea224fe,,,,,,,,,3316,43,79,1,0,0,response1disk,,7,7,8,1,0,0,rectangle,7,8,1,0,0,7,8,1,0,0,1,121,281,70,1,,,,,,,,
,,,,,,,,,,,,,FF,,,,,,,,2.0499,,,,,,,,,,,,,,,,,,,,,,60fd51ecc8c5b6dcbb506fac,61036e8fc5234f1187fb1c72,2021-07-29_23h15.09.069,Simcolourproject_2stim_asymm_v5,2020.2.10,Win32,60,61025ae37ef11b136ea224fe,,,,,,,,,1664,66,42,1,0,0,response1disk,,6,8,1,1,0,0,rectangle,8,1,1,0,0,8,1,1,0,0,1,122,282,83,1,,,,,,,,
,,,,,,,,,,,,,FF,,,,,,,,1.2501,,,,,,,,,,,,,,,,,,,,,,60fd51ecc8c5b6dcbb506fac,61036e8fc5234f1187fb1c72,2021-07-29_23h15.09.069,Simcolourproject_2stim_asymm_v5,2020.2.10,Win32,60,61025ae37ef11b136ea224fe,,,,,,,,,2981,35,59,1,0,0,response1disk,,7,13,-4,1,0,0,rectangle,13,-4,1,0,0,13,-4,1,0,0,1,123,283,41,1,,,,,,,,
,,,,,,,,,,,,,FF,,,,,,,,1.0166,,,,,,,,,,,,,,,,,,,,,,60fd51ecc8c5b6dcbb506fac,61036e8fc5234f1187fb1c72,2021-07-29_23h15.09.069,Simcolourproject_2stim_asymm_v5,2020.2.10,Win32,60,61025ae37ef11b136ea224fe,,,,,,,,,2877,31,55,1,0,0,response1disk,,7,9,5,1,0,0,rectangle,9,5,1,0,0,9,5,1,0,0,1,124,284,5,1,,,,,,,,
,,,,,,,,,,,,,FF,,,,,,,,2.4501,,,,,,,,,,,,,,,,,,,,,,60fd51ecc8c5b6dcbb506fac,61036e8fc5234f1187fb1c72,2021-07-29_23h15.09.069,Simcolourproject_2stim_asymm_v5,2020.2.10,Win32,60,61025ae37ef11b136ea224fe,,,,,,,,,2321,66,53,1,0,0,response1disk,,6,14,3,1,0,0,rectangle,14,3,1,0,0,14,3,1,0,0,1,125,285,76,1,,,,,,,,
,,,,,,,,,,,,,FF,,,,,,,,0.9173,,,,,,,,,,,,,,,,,,,,,,60fd51ecc8c5b6dcbb506fac,61036e8fc5234f1187fb1c72,2021-07-29_23h15.09.069,Simcolourproject_2stim_asymm_v5,2020.2.10,Win32,60,61025ae37ef11b136ea224fe,,,,,,,,,1005,52,69,1,0,0,response1disk,,7,-6,-5,1,0,0,rectangle,-6,-5,1,0,0,-6,-5,1,0,0,1,126,286,140,1,,,,,,,,
,,,,,,,,,,,,,FF,,,,,,,,1.1002,,,,,,,,,,,,,,,,,,,,,,60fd51ecc8c5b6dcbb506fac,61036e8fc5234f1187fb1c72,2021-07-29_23h15.09.069,Simcolourproject_2stim_asymm_v5,2020.2.10,Win32,60,61025ae37ef11b136ea224fe,,,,,,,,,1656,39,61,1,0,0,response1disk,,7,12,3,1,0,0,rectangle,12,3,1,0,0,12,3,1,0,0,1,127,287,112,1,,,,,,,,
,,,,,,,,,,,,,FF,,,,,,,,2.2168,,,,,,,,,,,,,,,,,,,,,,60fd51ecc8c5b6dcbb506fac,61036e8fc5234f1187fb1c72,2021-07-29_23h15.09.069,Simcolourproject_2stim_asymm_v5,2020.2.10,Win32,60,61025ae37ef11b136ea224fe,,,,,,,,,3961,73,61,1,0,0,response1disk,,6,20,7,1,0,0,rectangle,37,73,1,0,0,0,3,1,0,0,1,128,288,68,1,,response1disk_3,TRUE,7,7,"[181,309,268,185,289,185,277,26,230,172,186,309,121,214,77,84,316,28,113,132]",2.6496,rectangle
,,,,,,,,,,,,,FF,,,,,,,,1.7664,,,,,,,,,,,,,,,,,,,,,,60fd51ecc8c5b6dcbb506fac,61036e8fc5234f1187fb1c72,2021-07-29_23h15.09.069,Simcolourproject_2stim_asymm_v5,2020.2.10,Win32,60,61025ae37ef11b136ea224fe,,,,,,,,,2804,37,66,1,0,0,response1disk,,7,3,7,1,0,0,rectangle,3,7,1,0,0,3,7,1,0,0,1,129,289,29,1,,,,,,,,
,,,,,,,,,,,,,FF,,,,,,,,1.0334,,,,,,,,,,,,,,,,,,,,,,60fd51ecc8c5b6dcbb506fac,61036e8fc5234f1187fb1c72,2021-07-29_23h15.09.069,Simcolourproject_2stim_asymm_v5,2020.2.10,Win32,60,61025ae37ef11b136ea224fe,,,,,,,,,1240,59,40,1,0,0,response1disk,,6,17,3,1,0,0,rectangle,17,3,1,0,0,17,3,1,0,0,1,130,290,96,1,,,,,,,,
,,,,,,,,,,,,,FF,,,,,,,,1.1,,,,,,,,,,,,,,,,,,,,,,60fd51ecc8c5b6dcbb506fac,61036e8fc5234f1187fb1c72,2021-07-29_23h15.09.069,Simcolourproject_2stim_asymm_v5,2020.2.10,Win32,60,61025ae37ef11b136ea224fe,,,,,,,,,332,38,61,1,0,0,response1disk,,7,11,1,1,0,0,rectangle,11,1,1,0,0,11,1,1,0,0,1,131,291,38,1,,,,,,,,
,,,,,,,,,,,,,FF,,,,,,,,0.9666,,,,,,,,,,,,,,,,,,,,,,60fd51ecc8c5b6dcbb506fac,61036e8fc5234f1187fb1c72,2021-07-29_23h15.09.069,Simcolourproject_2stim_asymm_v5,2020.2.10,Win32,60,61025ae37ef11b136ea224fe,,,,,,,,,2114,40,78,1,0,0,response1disk,,7,6,9,1,0,0,rectangle,6,9,1,0,0,6,9,1,0,0,1,132,292,93,1,,,,,,,,
,,,,,,,,,,,,,FF,,,,,,,,0.8835,,,,,,,,,,,,,,,,,,,,,,60fd51ecc8c5b6dcbb506fac,61036e8fc5234f1187fb1c72,2021-07-29_23h15.09.069,Simcolourproject_2stim_asymm_v5,2020.2.10,Win32,60,61025ae37ef11b136ea224fe,,,,,,,,,1244,56,93,1,0,0,response1disk,,7,9,1,1,0,0,rectangle,9,1,1,0,0,9,1,1,0,0,1,133,293,122,1,,,,,,,,
,,,,,,,,,,,,,FF,,,,,,,,0.9999,,,,,,,,,,,,,,,,,,,,,,60fd51ecc8c5b6dcbb506fac,61036e8fc5234f1187fb1c72,2021-07-29_23h15.09.069,Simcolourproject_2stim_asymm_v5,2020.2.10,Win32,60,61025ae37ef11b136ea224fe,,,,,,,,,2618,48,70,1,0,0,response1disk,,7,14,6,1,0,0,rectangle,14,6,1,0,0,14,6,1,0,0,1,134,294,103,1,,,,,,,,
,,,,,,,,,,,,,FF,,,,,,,,0.8499,,,,,,,,,,,,,,,,,,,,,,60fd51ecc8c5b6dcbb506fac,61036e8fc5234f1187fb1c72,2021-07-29_23h15.09.069,Simcolourproject_2stim_asymm_v5,2020.2.10,Win32,60,61025ae37ef11b136ea224fe,,,,,,,,,4297,33,58,1,0,0,response1disk,,7,5,0,1,0,0,rectangle,5,0,1,0,0,5,0,1,0,0,1,135,295,30,1,,,,,,,,
,,,,,,,,,,,,,FF,,,,,,,,2.2998,,,,,,,,,,,,,,,,,,,,,,60fd51ecc8c5b6dcbb506fac,61036e8fc5234f1187fb1c72,2021-07-29_23h15.09.069,Simcolourproject_2stim_asymm_v5,2020.2.10,Win32,60,61025ae37ef11b136ea224fe,,,,,,,,,3394,84,34,1,0,0,response1disk,,6,12,-4,1,0,0,rectangle,12,-4,1,0,0,12,-4,1,0,0,1,136,296,132,1,,,,,,,,
,,,,,,,,,,,,,FF,,,,,,,,1.5,,,,,,,,,,,,,,,,,,,,,,60fd51ecc8c5b6dcbb506fac,61036e8fc5234f1187fb1c72,2021-07-29_23h15.09.069,Simcolourproject_2stim_asymm_v5,2020.2.10,Win32,60,61025ae37ef11b136ea224fe,,,,,,,,,1612,57,-59,1,0,0,response3disk,,4,26,-2,1,0,0,rectangle,26,-2,1,0,0,26,-2,1,0,0,1,137,297,108,1,,,,,,,,
,,,,,,,,,,,,,FF,,,,,,,,1.2002,,,,,,,,,,,,,,,,,,,,,,60fd51ecc8c5b6dcbb506fac,61036e8fc5234f1187fb1c72,2021-07-29_23h15.09.069,Simcolourproject_2stim_asymm_v5,2020.2.10,Win32,60,61025ae37ef11b136ea224fe,,,,,,,,,443,-67,-38,1,0,0,response5disk,,2,-8,3,1,0,0,rectangle,-8,3,1,0,0,-8,3,1,0,0,1,138,298,19,1,,,,,,,,
,,,,,,,,,,,,,FF,,,,,,,,0.9667,,,,,,,,,,,,,,,,,,,,,,60fd51ecc8c5b6dcbb506fac,61036e8fc5234f1187fb1c72,2021-07-29_23h15.09.069,Simcolourproject_2stim_asymm_v5,2020.2.10,Win32,60,61025ae37ef11b136ea224fe,,,,,,,,,4110,38,83,1,0,0,response1disk,,7,-4,7,1,0,0,rectangle,-4,7,1,0,0,-4,7,1,0,0,1,139,299,90,1,,,,,,,,
,,,,,,,,,,,,,FF,,,,,,,,1.2667,,,,,,,,,,,,,,,,,,,,,,60fd51ecc8c5b6dcbb506fac,61036e8fc5234f1187fb1c72,2021-07-29_23h15.09.069,Simcolourproject_2stim_asymm_v5,2020.2.10,Win32,60,61025ae37ef11b136ea224fe,,,,,,,,,1066,40,29,1,0,0,response1disk,,6,9,9,1,0,0,rectangle,9,9,1,0,0,9,9,1,0,0,1,140,300,59,1,,,,,,,,
,,,,,,,,,,,,,FF,,,,,,,,1.1334,,,,,,,,,,,,,,,,,,,,,,60fd51ecc8c5b6dcbb506fac,61036e8fc5234f1187fb1c72,2021-07-29_23h15.09.069,Simcolourproject_2stim_asymm_v5,2020.2.10,Win32,60,61025ae37ef11b136ea224fe,,,,,,,,,98,70,-43,1,0,0,response3disk,,5,20,-8,1,0,0,rectangle,20,-8,1,0,0,20,-8,1,0,0,1,141,301,106,1,,,,,,,,
,,,,,,,,,,,,,FF,,,,,,,,0.9333,,,,,,,,,,,,,,,,,,,,,,60fd51ecc8c5b6dcbb506fac,61036e8fc5234f1187fb1c72,2021-07-29_23h15.09.069,Simcolourproject_2stim_asymm_v5,2020.2.10,Win32,60,61025ae37ef11b136ea224fe,,,,,,,,,4173,39,61,1,0,0,response1disk,,7,9,6,1,0,0,rectangle,9,6,1,0,0,9,6,1,0,0,1,142,302,153,1,,,,,,,,
,,,,,,,,,,,,,FF,,,,,,,,1.4668,,,,,,,,,,,,,,,,,,,,,,60fd51ecc8c5b6dcbb506fac,61036e8fc5234f1187fb1c72,2021-07-29_23h15.09.069,Simcolourproject_2stim_asymm_v5,2020.2.10,Win32,60,61025ae37ef11b136ea224fe,,,,,,,,,3145,54,50,1,0,0,response1disk,,6,13,12,1,0,0,rectangle,13,12,1,0,0,13,12,1,0,0,1,143,303,147,1,,,,,,,,
,,,,,,,,,,,,,FF,,,,,,,,1.1667,,,,,,,,,,,,,,,,,,,,,,60fd51ecc8c5b6dcbb506fac,61036e8fc5234f1187fb1c72,2021-07-29_23h15.09.069,Simcolourproject_2stim_asymm_v5,2020.2.10,Win32,60,61025ae37ef11b136ea224fe,,,,,,,,,3266,29,44,1,0,0,response1disk,,7,5,-7,1,0,0,rectangle,5,-7,1,0,0,5,-7,1,0,0,1,144,304,36,1,,,,,,,,
