key_resp.keys,key_resp.rt,key_resp_14.keys,key_resp_14.rt,key_resp_15.keys,key_resp_15.rt,key_resp_17.keys,key_resp_17.rt,key_resp_9.keys,key_resp_9.rt,key_resp_10.keys,key_resp_10.rt,practice_comparison,Ecc,mouse_5.x,mouse_5.y,mouse_5.leftButton,mouse_5.midButton,mouse_5.rightButton,mouse_5.clicked_name,pracsimilarity,response_time,mouse_10.x,mouse_10.y,mouse_10.leftButton,mouse_10.midButton,mouse_10.rightButton,mouse_10.clicked_name,mouse_7.x,mouse_7.y,mouse_7.leftButton,mouse_7.midButton,mouse_7.rightButton,mouse_6.x,mouse_6.y,mouse_6.leftButton,mouse_6.midButton,mouse_6.rightButton,duringprac.thisRepN,duringprac.thisTrialN,duringprac.thisN,duringprac.thisIndex,duringprac.ran,participant,session,date,expName,psychopyVersion,OS,frameRate,study_id,mouse_7.clicked_name,catchpracsimilarity,catch_response_time,catchnumberprac,catchtrialorderprac,mouse_6.clicked_name,key_resp_22.keys,key_resp_22.rt,realcomparison,mouse.x,mouse.y,mouse.leftButton,mouse.midButton,mouse.rightButton,mouse.clicked_name,Colour2,similarity,mouse_2.x,mouse_2.y,mouse_2.leftButton,mouse_2.midButton,mouse_2.rightButton,mouse_2.clicked_name,mouse_3.x,mouse_3.y,mouse_3.leftButton,mouse_3.midButton,mouse_3.rightButton,mouse_11.x,mouse_11.y,mouse_11.leftButton,mouse_11.midButton,mouse_11.rightButton,trials_2.thisRepN,trials_2.thisTrialN,trials_2.thisN,trials_2.thisIndex,trials_2.ran,Colour1,mouse_3.clicked_name,catchornah,catchsimilarity,catchnumber,catchtrialorder,catchRT,mouse_11.clicked_name
space,0.854,space,5.523,space,15.45,space,3.715,space,0.747,space,3.886,63,PF,-41,-57,1,0,0,response5disk_5,3,18.92,-21,5,1,0,0,rectangle_8,-21,5,1,0,0,-21,5,1,0,0,0,0,0,6,1,60fd760a74bf79dc673e156e,61036debd1e815722ce9f194,2021-07-30_13h13.07.357,Simcolourproject_2stim_asymm_v5,2020.2.10,MacIntel,60,61025ae37ef11b136ea224fe,,,,,,,,,,,,,,,,,,,,,,,,,,,,,,,,,,,,,,,,,,,,,,
,,,,,,,,,,,,121,FF,-37,42,1,0,0,response7disk_5,0,2.867,-17,11,1,0,0,rectangle_8,33,81,1,0,0,-17,-2,1,0,0,0,1,1,0,1,60fd760a74bf79dc673e156e,61036debd1e815722ce9f194,2021-07-30_13h13.07.357,Simcolourproject_2stim_asymm_v5,2020.2.10,MacIntel,60,61025ae37ef11b136ea224fe,response1disk_7,7,2.535,7,"[2,5]",rectangle_4,,,,,,,,,,,,,,,,,,,,,,,,,,,,,,,,,,,,,,,,
,,,,,,,,,,,,139,PF,23,-82,1,0,0,response3disk_5,4,2.084,2,-1,1,0,0,rectangle_8,2,-1,1,0,0,2,-1,1,0,0,0,2,2,1,1,60fd760a74bf79dc673e156e,61036debd1e815722ce9f194,2021-07-30_13h13.07.357,Simcolourproject_2stim_asymm_v5,2020.2.10,MacIntel,60,61025ae37ef11b136ea224fe,,,,,,,,,,,,,,,,,,,,,,,,,,,,,,,,,,,,,,,,,,,,,,
,,,,,,,,,,,,74,PF,-45,54,1,0,0,response7disk_5,0,4.684,-5,2,1,0,0,rectangle_8,-5,2,1,0,0,-5,2,1,0,0,0,3,3,4,1,60fd760a74bf79dc673e156e,61036debd1e815722ce9f194,2021-07-30_13h13.07.357,Simcolourproject_2stim_asymm_v5,2020.2.10,MacIntel,60,61025ae37ef11b136ea224fe,,,,,,,,,,,,,,,,,,,,,,,,,,,,,,,,,,,,,,,,,,,,,,
,,,,,,,,,,,,154,FF,-45,-67,1,0,0,response5disk_5,3,4.117,-20,-4,1,0,0,rectangle_8,53,90,1,0,0,3,-7,1,0,0,0,4,4,3,1,60fd760a74bf79dc673e156e,61036debd1e815722ce9f194,2021-07-30_13h13.07.357,Simcolourproject_2stim_asymm_v5,2020.2.10,MacIntel,60,61025ae37ef11b136ea224fe,response1disk_7,7,1.65,7,"[2,5]",rectangle_4,,,,,,,,,,,,,,,,,,,,,,,,,,,,,,,,,,,,,,,,
,,,,,,,,,,,,137,PF,73,-38,1,0,0,response3disk_5,5,4.383,2,1,1,0,0,rectangle_8,2,1,1,0,0,2,1,1,0,0,0,5,5,2,1,60fd760a74bf79dc673e156e,61036debd1e815722ce9f194,2021-07-30_13h13.07.357,Simcolourproject_2stim_asymm_v5,2020.2.10,MacIntel,60,61025ae37ef11b136ea224fe,,,,,,,,,,,,,,,,,,,,,,,,,,,,,,,,,,,,,,,,,,,,,,
,,,,,,,,,,,,98,FF,-27,90,1,0,0,response7disk_5,0,3.951,-13,-12,1,0,0,rectangle_8,-13,-12,1,0,0,-13,-12,1,0,0,0,6,6,5,1,60fd760a74bf79dc673e156e,61036debd1e815722ce9f194,2021-07-30_13h13.07.357,Simcolourproject_2stim_asymm_v5,2020.2.10,MacIntel,60,61025ae37ef11b136ea224fe,,,,,,,,,,,,,,,,,,,,,,,,,,,,,,,,,,,,,,,,,,,,,,
,,,,,,,,,,,,,FF,,,,,,,,6.116,,,,,,,,,,,,,,,,,,,,,,60fd760a74bf79dc673e156e,61036debd1e815722ce9f194,2021-07-30_13h13.07.357,Simcolourproject_2stim_asymm_v5,2020.2.10,MacIntel,60,61025ae37ef11b136ea224fe,,,,,,,space,2.689,3566,49,-80,1,0,0,response3disk,,4,12,-3,1,0,0,rectangle,12,-3,1,0,0,12,-3,1,0,0,0,0,0,5,1,,,,,,,,
,,,,,,,,,,,,,FF,,,,,,,,4.583,,,,,,,,,,,,,,,,,,,,,,60fd760a74bf79dc673e156e,61036debd1e815722ce9f194,2021-07-30_13h13.07.357,Simcolourproject_2stim_asymm_v5,2020.2.10,MacIntel,60,61025ae37ef11b136ea224fe,,,,,,,,,3897,67,33,1,0,0,response1disk,,6,16,-6,1,0,0,rectangle,16,-6,1,0,0,16,-6,1,0,0,0,1,1,10,1,,,,,,,,
,,,,,,,,,,,,,FF,,,,,,,,3.118,,,,,,,,,,,,,,,,,,,,,,60fd760a74bf79dc673e156e,61036debd1e815722ce9f194,2021-07-30_13h13.07.357,Simcolourproject_2stim_asymm_v5,2020.2.10,MacIntel,60,61025ae37ef11b136ea224fe,,,,,,,,,2403,31,-57,1,0,0,response3disk,,4,6,-6,1,0,0,rectangle,6,-6,1,0,0,6,-6,1,0,0,0,2,2,88,1,,,,,,,,
,,,,,,,,,,,,,FF,,,,,,,,7.201,,,,,,,,,,,,,,,,,,,,,,60fd760a74bf79dc673e156e,61036debd1e815722ce9f194,2021-07-30_13h13.07.357,Simcolourproject_2stim_asymm_v5,2020.2.10,MacIntel,60,61025ae37ef11b136ea224fe,,,,,,,,,578,-39,-82,1,0,0,response5disk,,3,6,5,1,0,0,rectangle,6,5,1,0,0,6,5,1,0,0,0,3,3,42,1,,,,,,,,
,,,,,,,,,,,,,FF,,,,,,,,3.983,,,,,,,,,,,,,,,,,,,,,,60fd760a74bf79dc673e156e,61036debd1e815722ce9f194,2021-07-30_13h13.07.357,Simcolourproject_2stim_asymm_v5,2020.2.10,MacIntel,60,61025ae37ef11b136ea224fe,,,,,,,,,4303,34,56,1,0,0,response1disk,,7,25,8,1,0,0,rectangle,25,8,1,0,0,25,8,1,0,0,0,4,4,27,1,,,,,,,,
,,,,,,,,,,,,,FF,,,,,,,,6.4,,,,,,,,,,,,,,,,,,,,,,60fd760a74bf79dc673e156e,61036debd1e815722ce9f194,2021-07-30_13h13.07.357,Simcolourproject_2stim_asymm_v5,2020.2.10,MacIntel,60,61025ae37ef11b136ea224fe,,,,,,,,,1765,56,68,1,0,0,response1disk,,7,23,7,1,0,0,rectangle,23,7,1,0,0,23,7,1,0,0,0,5,5,57,1,,,,,,,,
,,,,,,,,,,,,,FF,,,,,,,,1.016,,,,,,,,,,,,,,,,,,,,,,60fd760a74bf79dc673e156e,61036debd1e815722ce9f194,2021-07-30_13h13.07.357,Simcolourproject_2stim_asymm_v5,2020.2.10,MacIntel,60,61025ae37ef11b136ea224fe,,,,,,,,,446,36,52,1,0,0,response1disk,,7,6,0,1,0,0,rectangle,6,0,1,0,0,6,0,1,0,0,0,6,6,146,1,,,,,,,,
,,,,,,,,,,,,,FF,,,,,,,,2.483,,,,,,,,,,,,,,,,,,,,,,60fd760a74bf79dc673e156e,61036debd1e815722ce9f194,2021-07-30_13h13.07.357,Simcolourproject_2stim_asymm_v5,2020.2.10,MacIntel,60,61025ae37ef11b136ea224fe,,,,,,,,,3114,66,24,1,0,0,response1disk,,6,13,-2,1,0,0,rectangle,13,-2,1,0,0,13,-2,1,0,0,0,7,7,99,1,,,,,,,,
,,,,,,,,,,,,,FF,,,,,,,,0.801,,,,,,,,,,,,,,,,,,,,,,60fd760a74bf79dc673e156e,61036debd1e815722ce9f194,2021-07-30_13h13.07.357,Simcolourproject_2stim_asymm_v5,2020.2.10,MacIntel,60,61025ae37ef11b136ea224fe,,,,,,,,,3841,54,31,1,0,0,response1disk,,6,7,-2,1,0,0,rectangle,-41,-100,1,0,0,-4,1,1,0,0,0,8,8,93,1,,response5disk_3,TRUE,3,3,"[227,242,66,9,264,137,104,212,93,191,253,58,212,280,36,200,323,106,283,29]",3.817,rectangle
,,,,,,,,,,,,,FF,,,,,,,,4.45,,,,,,,,,,,,,,,,,,,,,,60fd760a74bf79dc673e156e,61036debd1e815722ce9f194,2021-07-30_13h13.07.357,Simcolourproject_2stim_asymm_v5,2020.2.10,MacIntel,60,61025ae37ef11b136ea224fe,,,,,,,,,2926,-66,-106,1,0,0,response5disk,,3,7,6,1,0,0,rectangle,7,6,1,0,0,7,6,1,0,0,0,9,9,84,1,,,,,,,,
,,,,,,,,,,,,,FF,,,,,,,,1.767,,,,,,,,,,,,,,,,,,,,,,60fd760a74bf79dc673e156e,61036debd1e815722ce9f194,2021-07-30_13h13.07.357,Simcolourproject_2stim_asymm_v5,2020.2.10,MacIntel,60,61025ae37ef11b136ea224fe,,,,,,,,,736,57,64,1,0,0,response1disk,,7,-7,-4,1,0,0,rectangle,-7,-4,1,0,0,-7,-4,1,0,0,0,10,10,135,1,,,,,,,,
,,,,,,,,,,,,,FF,,,,,,,,1.166,,,,,,,,,,,,,,,,,,,,,,60fd760a74bf79dc673e156e,61036debd1e815722ce9f194,2021-07-30_13h13.07.357,Simcolourproject_2stim_asymm_v5,2020.2.10,MacIntel,60,61025ae37ef11b136ea224fe,,,,,,,,,1241,78,-57,1,0,0,response3disk,,5,19,-4,1,0,0,rectangle,19,-4,1,0,0,19,-4,1,0,0,0,11,11,22,1,,,,,,,,
,,,,,,,,,,,,,FF,,,,,,,,0.883,,,,,,,,,,,,,,,,,,,,,,60fd760a74bf79dc673e156e,61036debd1e815722ce9f194,2021-07-30_13h13.07.357,Simcolourproject_2stim_asymm_v5,2020.2.10,MacIntel,60,61025ae37ef11b136ea224fe,,,,,,,,,1559,50,67,1,0,0,response1disk,,7,-2,-7,1,0,0,rectangle,-2,-7,1,0,0,-2,-7,1,0,0,0,12,12,136,1,,,,,,,,
,,,,,,,,,,,,,FF,,,,,,,,2.75,,,,,,,,,,,,,,,,,,,,,,60fd760a74bf79dc673e156e,61036debd1e815722ce9f194,2021-07-30_13h13.07.357,Simcolourproject_2stim_asymm_v5,2020.2.10,MacIntel,60,61025ae37ef11b136ea224fe,,,,,,,,,477,-78,-52,1,0,0,response5disk,,2,-19,-15,1,0,0,rectangle,-19,-15,1,0,0,-19,-15,1,0,0,0,13,13,123,1,,,,,,,,
,,,,,,,,,,,,,FF,,,,,,,,1.6,,,,,,,,,,,,,,,,,,,,,,60fd760a74bf79dc673e156e,61036debd1e815722ce9f194,2021-07-30_13h13.07.357,Simcolourproject_2stim_asymm_v5,2020.2.10,MacIntel,60,61025ae37ef11b136ea224fe,,,,,,,,,3969,-30,-91,1,0,0,response5disk,,3,5,0,1,0,0,rectangle,5,0,1,0,0,5,0,1,0,0,0,14,14,16,1,,,,,,,,
,,,,,,,,,,,,,FF,,,,,,,,1.5,,,,,,,,,,,,,,,,,,,,,,60fd760a74bf79dc673e156e,61036debd1e815722ce9f194,2021-07-30_13h13.07.357,Simcolourproject_2stim_asymm_v5,2020.2.10,MacIntel,60,61025ae37ef11b136ea224fe,,,,,,,,,987,57,71,1,0,0,response1disk,,7,10,6,1,0,0,rectangle,10,6,1,0,0,10,6,1,0,0,0,15,15,131,1,,,,,,,,
,,,,,,,,,,,,,FF,,,,,,,,0.584,,,,,,,,,,,,,,,,,,,,,,60fd760a74bf79dc673e156e,61036debd1e815722ce9f194,2021-07-30_13h13.07.357,Simcolourproject_2stim_asymm_v5,2020.2.10,MacIntel,60,61025ae37ef11b136ea224fe,,,,,,,,,1196,28,50,1,0,0,response1disk,,7,7,7,1,0,0,rectangle,7,7,1,0,0,7,7,1,0,0,0,16,16,107,1,,,,,,,,
,,,,,,,,,,,,,FF,,,,,,,,0.883,,,,,,,,,,,,,,,,,,,,,,60fd760a74bf79dc673e156e,61036debd1e815722ce9f194,2021-07-30_13h13.07.357,Simcolourproject_2stim_asymm_v5,2020.2.10,MacIntel,60,61025ae37ef11b136ea224fe,,,,,,,,,3855,-60,-77,1,0,0,response5disk,,3,26,-1,1,0,0,rectangle,26,-1,1,0,0,26,-1,1,0,0,0,17,17,15,1,,,,,,,,
,,,,,,,,,,,,,FF,,,,,,,,0.832,,,,,,,,,,,,,,,,,,,,,,60fd760a74bf79dc673e156e,61036debd1e815722ce9f194,2021-07-30_13h13.07.357,Simcolourproject_2stim_asymm_v5,2020.2.10,MacIntel,60,61025ae37ef11b136ea224fe,,,,,,,,,1167,31,34,1,0,0,response1disk,,7,5,-7,1,0,0,rectangle,5,-7,1,0,0,5,-7,1,0,0,0,18,18,9,1,,,,,,,,
,,,,,,,,,,,,,FF,,,,,,,,8.75,,,,,,,,,,,,,,,,,,,,,,60fd760a74bf79dc673e156e,61036debd1e815722ce9f194,2021-07-30_13h13.07.357,Simcolourproject_2stim_asymm_v5,2020.2.10,MacIntel,60,61025ae37ef11b136ea224fe,,,,,,,,,1589,42,-93,1,0,0,response3disk,,4,6,-2,1,0,0,rectangle,6,-2,1,0,0,6,-2,1,0,0,0,19,19,21,1,,,,,,,,
,,,,,,,,,,,,,FF,,,,,,,,1.217,,,,,,,,,,,,,,,,,,,,,,60fd760a74bf79dc673e156e,61036debd1e815722ce9f194,2021-07-30_13h13.07.357,Simcolourproject_2stim_asymm_v5,2020.2.10,MacIntel,60,61025ae37ef11b136ea224fe,,,,,,,,,3332,49,-73,1,0,0,response3disk,,4,16,-1,1,0,0,rectangle,16,-1,1,0,0,16,-1,1,0,0,0,20,20,133,1,,,,,,,,
,,,,,,,,,,,,,FF,,,,,,,,2.283,,,,,,,,,,,,,,,,,,,,,,60fd760a74bf79dc673e156e,61036debd1e815722ce9f194,2021-07-30_13h13.07.357,Simcolourproject_2stim_asymm_v5,2020.2.10,MacIntel,60,61025ae37ef11b136ea224fe,,,,,,,,,2461,-49,-99,1,0,0,response5disk,,3,23,-11,1,0,0,rectangle,23,-11,1,0,0,23,-11,1,0,0,0,21,21,0,1,,,,,,,,
,,,,,,,,,,,,,FF,,,,,,,,1.217,,,,,,,,,,,,,,,,,,,,,,60fd760a74bf79dc673e156e,61036debd1e815722ce9f194,2021-07-30_13h13.07.357,Simcolourproject_2stim_asymm_v5,2020.2.10,MacIntel,60,61025ae37ef11b136ea224fe,,,,,,,,,3587,39,-97,1,0,0,response3disk,,4,12,-2,1,0,0,rectangle,12,-2,1,0,0,12,-2,1,0,0,0,22,22,141,1,,,,,,,,
,,,,,,,,,,,,,FF,,,,,,,,2.134,,,,,,,,,,,,,,,,,,,,,,60fd760a74bf79dc673e156e,61036debd1e815722ce9f194,2021-07-30_13h13.07.357,Simcolourproject_2stim_asymm_v5,2020.2.10,MacIntel,60,61025ae37ef11b136ea224fe,,,,,,,,,4122,73,66,1,0,0,response1disk,,6,-8,1,1,0,0,rectangle,-8,1,1,0,0,-8,1,1,0,0,0,23,23,114,1,,,,,,,,
,,,,,,,,,,,,,FF,,,,,,,,2.517,,,,,,,,,,,,,,,,,,,,,,60fd760a74bf79dc673e156e,61036debd1e815722ce9f194,2021-07-30_13h13.07.357,Simcolourproject_2stim_asymm_v5,2020.2.10,MacIntel,60,61025ae37ef11b136ea224fe,,,,,,,,,281,-69,-96,1,0,0,response5disk,,3,-7,15,1,0,0,rectangle,-7,15,1,0,0,-7,15,1,0,0,0,24,24,109,1,,,,,,,,
,,,,,,,,,,,,,FF,,,,,,,,0.516,,,,,,,,,,,,,,,,,,,,,,60fd760a74bf79dc673e156e,61036debd1e815722ce9f194,2021-07-30_13h13.07.357,Simcolourproject_2stim_asymm_v5,2020.2.10,MacIntel,60,61025ae37ef11b136ea224fe,,,,,,,,,194,-39,-58,1,0,0,response5disk,,3,-32,1,1,0,0,rectangle,-32,1,1,0,0,-32,1,1,0,0,0,25,25,67,1,,,,,,,,
,,,,,,,,,,,,,FF,,,,,,,,2.649,,,,,,,,,,,,,,,,,,,,,,60fd760a74bf79dc673e156e,61036debd1e815722ce9f194,2021-07-30_13h13.07.357,Simcolourproject_2stim_asymm_v5,2020.2.10,MacIntel,60,61025ae37ef11b136ea224fe,,,,,,,,,913,42,26,1,0,0,response1disk,,6,10,12,1,0,0,rectangle,10,12,1,0,0,10,12,1,0,0,0,26,26,92,1,,,,,,,,
,,,,,,,,,,,,,FF,,,,,,,,0.918,,,,,,,,,,,,,,,,,,,,,,60fd760a74bf79dc673e156e,61036debd1e815722ce9f194,2021-07-30_13h13.07.357,Simcolourproject_2stim_asymm_v5,2020.2.10,MacIntel,60,61025ae37ef11b136ea224fe,,,,,,,,,718,-32,-60,1,0,0,response5disk,,3,-18,-14,1,0,0,rectangle,-18,-14,1,0,0,-18,-14,1,0,0,0,27,27,94,1,,,,,,,,
,,,,,,,,,,,,,FF,,,,,,,,1.284,,,,,,,,,,,,,,,,,,,,,,60fd760a74bf79dc673e156e,61036debd1e815722ce9f194,2021-07-30_13h13.07.357,Simcolourproject_2stim_asymm_v5,2020.2.10,MacIntel,60,61025ae37ef11b136ea224fe,,,,,,,,,1812,85,61,1,0,0,response1disk,,6,-5,9,1,0,0,rectangle,54,103,1,0,0,14,-10,1,0,0,0,28,28,150,1,,response1disk_3,TRUE,7,7,"[227,242,66,9,264,137,104,212,93,191,253,58,212,280,36,200,323,106,283,29]",1.851,rectangle
,,,,,,,,,,,,,FF,,,,,,,,2.368,,,,,,,,,,,,,,,,,,,,,,60fd760a74bf79dc673e156e,61036debd1e815722ce9f194,2021-07-30_13h13.07.357,Simcolourproject_2stim_asymm_v5,2020.2.10,MacIntel,60,61025ae37ef11b136ea224fe,,,,,,,,,4060,-37,-76,1,0,0,response5disk,,3,-19,-16,1,0,0,rectangle,-19,-16,1,0,0,-19,-16,1,0,0,0,29,29,156,1,,,,,,,,
,,,,,,,,,,,,,FF,,,,,,,,0.816,,,,,,,,,,,,,,,,,,,,,,60fd760a74bf79dc673e156e,61036debd1e815722ce9f194,2021-07-30_13h13.07.357,Simcolourproject_2stim_asymm_v5,2020.2.10,MacIntel,60,61025ae37ef11b136ea224fe,,,,,,,,,183,64,121,1,0,0,response1disk,,7,3,14,1,0,0,rectangle,3,14,1,0,0,3,14,1,0,0,0,30,30,155,1,,,,,,,,
,,,,,,,,,,,,,FF,,,,,,,,1.4,,,,,,,,,,,,,,,,,,,,,,60fd760a74bf79dc673e156e,61036debd1e815722ce9f194,2021-07-30_13h13.07.357,Simcolourproject_2stim_asymm_v5,2020.2.10,MacIntel,60,61025ae37ef11b136ea224fe,,,,,,,,,3160,56,-71,1,0,0,response3disk,,4,29,-4,1,0,0,rectangle,29,-4,1,0,0,29,-4,1,0,0,0,31,31,78,1,,,,,,,,
,,,,,,,,,,,,,FF,,,,,,,,1.034,,,,,,,,,,,,,,,,,,,,,,60fd760a74bf79dc673e156e,61036debd1e815722ce9f194,2021-07-30_13h13.07.357,Simcolourproject_2stim_asymm_v5,2020.2.10,MacIntel,60,61025ae37ef11b136ea224fe,,,,,,,,,1563,39,-64,1,0,0,response3disk,,4,16,-9,1,0,0,rectangle,16,-9,1,0,0,16,-9,1,0,0,0,32,32,13,1,,,,,,,,
,,,,,,,,,,,,,FF,,,,,,,,1.95,,,,,,,,,,,,,,,,,,,,,,60fd760a74bf79dc673e156e,61036debd1e815722ce9f194,2021-07-30_13h13.07.357,Simcolourproject_2stim_asymm_v5,2020.2.10,MacIntel,60,61025ae37ef11b136ea224fe,,,,,,,,,1821,-89,-43,1,0,0,response5disk,,2,-26,-15,1,0,0,rectangle,-26,-15,1,0,0,-26,-15,1,0,0,0,33,33,66,1,,,,,,,,
,,,,,,,,,,,,,FF,,,,,,,,0.867,,,,,,,,,,,,,,,,,,,,,,60fd760a74bf79dc673e156e,61036debd1e815722ce9f194,2021-07-30_13h13.07.357,Simcolourproject_2stim_asymm_v5,2020.2.10,MacIntel,60,61025ae37ef11b136ea224fe,,,,,,,,,1875,67,99,1,0,0,response1disk,,7,24,1,1,0,0,rectangle,24,1,1,0,0,24,1,1,0,0,0,34,34,38,1,,,,,,,,
,,,,,,,,,,,,,FF,,,,,,,,2.566,,,,,,,,,,,,,,,,,,,,,,60fd760a74bf79dc673e156e,61036debd1e815722ce9f194,2021-07-30_13h13.07.357,Simcolourproject_2stim_asymm_v5,2020.2.10,MacIntel,60,61025ae37ef11b136ea224fe,,,,,,,,,716,-31,77,1,0,0,response7disk,,0,-3,-5,1,0,0,rectangle,-34,-97,1,0,0,4,-12,1,0,0,0,35,35,60,1,,response5disk_3,TRUE,3,3,"[227,242,66,9,264,137,104,212,93,191,253,58,212,280,36,200,323,106,283,29]",2.467,rectangle
,,,,,,,,,,,,,FF,,,,,,,,2.266,,,,,,,,,,,,,,,,,,,,,,60fd760a74bf79dc673e156e,61036debd1e815722ce9f194,2021-07-30_13h13.07.357,Simcolourproject_2stim_asymm_v5,2020.2.10,MacIntel,60,61025ae37ef11b136ea224fe,,,,,,,,,3511,-80,-35,1,0,0,response5disk,,2,3,7,1,0,0,rectangle,3,7,1,0,0,3,7,1,0,0,0,36,36,52,1,,,,,,,,
,,,,,,,,,,,,,FF,,,,,,,,0.915,,,,,,,,,,,,,,,,,,,,,,60fd760a74bf79dc673e156e,61036debd1e815722ce9f194,2021-07-30_13h13.07.357,Simcolourproject_2stim_asymm_v5,2020.2.10,MacIntel,60,61025ae37ef11b136ea224fe,,,,,,,,,2775,-51,85,1,0,0,response7disk,,0,-6,10,1,0,0,rectangle,-6,10,1,0,0,-6,10,1,0,0,0,37,37,125,1,,,,,,,,
,,,,,,,,,,,,,FF,,,,,,,,1.601,,,,,,,,,,,,,,,,,,,,,,60fd760a74bf79dc673e156e,61036debd1e815722ce9f194,2021-07-30_13h13.07.357,Simcolourproject_2stim_asymm_v5,2020.2.10,MacIntel,60,61025ae37ef11b136ea224fe,,,,,,,,,68,94,33,1,0,0,response1disk,,6,21,4,1,0,0,rectangle,21,4,1,0,0,21,4,1,0,0,0,38,38,157,1,,,,,,,,
,,,,,,,,,,,,,FF,,,,,,,,0.918,,,,,,,,,,,,,,,,,,,,,,60fd760a74bf79dc673e156e,61036debd1e815722ce9f194,2021-07-30_13h13.07.357,Simcolourproject_2stim_asymm_v5,2020.2.10,MacIntel,60,61025ae37ef11b136ea224fe,,,,,,,,,4312,66,79,1,0,0,response1disk,,7,17,13,1,0,0,rectangle,17,13,1,0,0,17,13,1,0,0,0,39,39,56,1,,,,,,,,
,,,,,,,,,,,,,FF,,,,,,,,1.199,,,,,,,,,,,,,,,,,,,,,,60fd760a74bf79dc673e156e,61036debd1e815722ce9f194,2021-07-30_13h13.07.357,Simcolourproject_2stim_asymm_v5,2020.2.10,MacIntel,60,61025ae37ef11b136ea224fe,,,,,,,,,811,-85,-31,1,0,0,response5disk,,2,-8,-6,1,0,0,rectangle,-8,-6,1,0,0,-8,-6,1,0,0,0,40,40,50,1,,,,,,,,
,,,,,,,,,,,,,FF,,,,,,,,1.6,,,,,,,,,,,,,,,,,,,,,,60fd760a74bf79dc673e156e,61036debd1e815722ce9f194,2021-07-30_13h13.07.357,Simcolourproject_2stim_asymm_v5,2020.2.10,MacIntel,60,61025ae37ef11b136ea224fe,,,,,,,,,1711,66,86,1,0,0,response1disk,,7,28,-16,1,0,0,rectangle,28,-16,1,0,0,28,-16,1,0,0,0,41,41,36,1,,,,,,,,
,,,,,,,,,,,,,FF,,,,,,,,0.701,,,,,,,,,,,,,,,,,,,,,,60fd760a74bf79dc673e156e,61036debd1e815722ce9f194,2021-07-30_13h13.07.357,Simcolourproject_2stim_asymm_v5,2020.2.10,MacIntel,60,61025ae37ef11b136ea224fe,,,,,,,,,2640,47,65,1,0,0,response1disk,,7,25,-6,1,0,0,rectangle,25,-6,1,0,0,25,-6,1,0,0,0,42,42,43,1,,,,,,,,
,,,,,,,,,,,,,FF,,,,,,,,1.534,,,,,,,,,,,,,,,,,,,,,,60fd760a74bf79dc673e156e,61036debd1e815722ce9f194,2021-07-30_13h13.07.357,Simcolourproject_2stim_asymm_v5,2020.2.10,MacIntel,60,61025ae37ef11b136ea224fe,,,,,,,,,3670,-35,53,1,0,0,response7disk,,0,-5,11,1,0,0,rectangle,-5,11,1,0,0,-5,11,1,0,0,0,43,43,40,1,,,,,,,,
,,,,,,,,,,,,,FF,,,,,,,,1.016,,,,,,,,,,,,,,,,,,,,,,60fd760a74bf79dc673e156e,61036debd1e815722ce9f194,2021-07-30_13h13.07.357,Simcolourproject_2stim_asymm_v5,2020.2.10,MacIntel,60,61025ae37ef11b136ea224fe,,,,,,,,,3630,-80,27,1,0,0,response7disk,,1,-10,14,1,0,0,rectangle,-10,14,1,0,0,-10,14,1,0,0,0,44,44,105,1,,,,,,,,
,,,,,,,,,,,,,FF,,,,,,,,1.732,,,,,,,,,,,,,,,,,,,,,,60fd760a74bf79dc673e156e,61036debd1e815722ce9f194,2021-07-30_13h13.07.357,Simcolourproject_2stim_asymm_v5,2020.2.10,MacIntel,60,61025ae37ef11b136ea224fe,,,,,,,,,1786,47,78,1,0,0,response1disk,,7,12,-10,1,0,0,rectangle,12,-10,1,0,0,12,-10,1,0,0,0,45,45,103,1,,,,,,,,
,,,,,,,,,,,,,FF,,,,,,,,0.834,,,,,,,,,,,,,,,,,,,,,,60fd760a74bf79dc673e156e,61036debd1e815722ce9f194,2021-07-30_13h13.07.357,Simcolourproject_2stim_asymm_v5,2020.2.10,MacIntel,60,61025ae37ef11b136ea224fe,,,,,,,,,339,62,92,1,0,0,response1disk,,7,21,7,1,0,0,rectangle,21,7,1,0,0,21,7,1,0,0,0,46,46,149,1,,,,,,,,
,,,,,,,,,,,,,FF,,,,,,,,1.034,,,,,,,,,,,,,,,,,,,,,,60fd760a74bf79dc673e156e,61036debd1e815722ce9f194,2021-07-30_13h13.07.357,Simcolourproject_2stim_asymm_v5,2020.2.10,MacIntel,60,61025ae37ef11b136ea224fe,,,,,,,,,3291,-90,-41,1,0,0,response5disk,,2,15,-8,1,0,0,rectangle,15,-8,1,0,0,15,-8,1,0,0,0,47,47,116,1,,,,,,,,
,,,,,,,,,,,,,FF,,,,,,,,0.733,,,,,,,,,,,,,,,,,,,,,,60fd760a74bf79dc673e156e,61036debd1e815722ce9f194,2021-07-30_13h13.07.357,Simcolourproject_2stim_asymm_v5,2020.2.10,MacIntel,60,61025ae37ef11b136ea224fe,,,,,,,,,2177,54,73,1,0,0,response1disk,,7,25,9,1,0,0,rectangle,25,9,1,0,0,25,9,1,0,0,0,48,48,19,1,,,,,,,,
,,,,,,,,,,,,,FF,,,,,,,,1.066,,,,,,,,,,,,,,,,,,,,,,60fd760a74bf79dc673e156e,61036debd1e815722ce9f194,2021-07-30_13h13.07.357,Simcolourproject_2stim_asymm_v5,2020.2.10,MacIntel,60,61025ae37ef11b136ea224fe,,,,,,,,,1015,32,-62,1,0,0,response3disk,,4,1,-13,1,0,0,rectangle,1,-13,1,0,0,1,-13,1,0,0,0,49,49,23,1,,,,,,,,
,,,,,,,,,,,,,FF,,,,,,,,0.866,,,,,,,,,,,,,,,,,,,,,,60fd760a74bf79dc673e156e,61036debd1e815722ce9f194,2021-07-30_13h13.07.357,Simcolourproject_2stim_asymm_v5,2020.2.10,MacIntel,60,61025ae37ef11b136ea224fe,,,,,,,,,936,62,-37,1,0,0,response3disk,,5,33,-6,1,0,0,rectangle,33,-6,1,0,0,33,-6,1,0,0,0,50,50,98,1,,,,,,,,
,,,,,,,,,,,,,FF,,,,,,,,2.849,,,,,,,,,,,,,,,,,,,,,,60fd760a74bf79dc673e156e,61036debd1e815722ce9f194,2021-07-30_13h13.07.357,Simcolourproject_2stim_asymm_v5,2020.2.10,MacIntel,60,61025ae37ef11b136ea224fe,,,,,,,,,2068,80,-39,1,0,0,response3disk,,5,16,-7,1,0,0,rectangle,16,-7,1,0,0,16,-7,1,0,0,0,51,51,153,1,,,,,,,,
,,,,,,,,,,,,,FF,,,,,,,,1.018,,,,,,,,,,,,,,,,,,,,,,60fd760a74bf79dc673e156e,61036debd1e815722ce9f194,2021-07-30_13h13.07.357,Simcolourproject_2stim_asymm_v5,2020.2.10,MacIntel,60,61025ae37ef11b136ea224fe,,,,,,,,,2186,41,60,1,0,0,response1disk,,7,-9,12,1,0,0,rectangle,-9,12,1,0,0,-9,12,1,0,0,0,52,52,113,1,,,,,,,,
,,,,,,,,,,,,,FF,,,,,,,,1.5,,,,,,,,,,,,,,,,,,,,,,60fd760a74bf79dc673e156e,61036debd1e815722ce9f194,2021-07-30_13h13.07.357,Simcolourproject_2stim_asymm_v5,2020.2.10,MacIntel,60,61025ae37ef11b136ea224fe,,,,,,,,,633,-23,-86,1,0,0,response5disk,,3,11,17,1,0,0,rectangle,11,17,1,0,0,11,17,1,0,0,0,53,53,12,1,,,,,,,,
,,,,,,,,,,,,,FF,,,,,,,,0.616,,,,,,,,,,,,,,,,,,,,,,60fd760a74bf79dc673e156e,61036debd1e815722ce9f194,2021-07-30_13h13.07.357,Simcolourproject_2stim_asymm_v5,2020.2.10,MacIntel,60,61025ae37ef11b136ea224fe,,,,,,,,,1371,-33,-79,1,0,0,response5disk,,3,-19,4,1,0,0,rectangle,-19,4,1,0,0,-19,4,1,0,0,0,54,54,79,1,,,,,,,,
,,,,,,,,,,,,,FF,,,,,,,,0.967,,,,,,,,,,,,,,,,,,,,,,60fd760a74bf79dc673e156e,61036debd1e815722ce9f194,2021-07-30_13h13.07.357,Simcolourproject_2stim_asymm_v5,2020.2.10,MacIntel,60,61025ae37ef11b136ea224fe,,,,,,,,,1693,35,89,1,0,0,response1disk,,7,-15,5,1,0,0,rectangle,-15,5,1,0,0,-15,5,1,0,0,0,55,55,8,1,,,,,,,,
,,,,,,,,,,,,,FF,,,,,,,,1.167,,,,,,,,,,,,,,,,,,,,,,60fd760a74bf79dc673e156e,61036debd1e815722ce9f194,2021-07-30_13h13.07.357,Simcolourproject_2stim_asymm_v5,2020.2.10,MacIntel,60,61025ae37ef11b136ea224fe,,,,,,,,,1738,49,73,1,0,0,response1disk,,7,22,12,1,0,0,rectangle,22,12,1,0,0,22,12,1,0,0,0,56,56,147,1,,,,,,,,
,,,,,,,,,,,,,FF,,,,,,,,1.217,,,,,,,,,,,,,,,,,,,,,,60fd760a74bf79dc673e156e,61036debd1e815722ce9f194,2021-07-30_13h13.07.357,Simcolourproject_2stim_asymm_v5,2020.2.10,MacIntel,60,61025ae37ef11b136ea224fe,,,,,,,,,2430,27,42,1,0,0,response1disk,,7,10,-14,1,0,0,rectangle,-94,-47,1,0,0,-11,-8,1,0,0,0,57,57,7,1,,response5disk_3,TRUE,2,2,"[227,242,66,9,264,137,104,212,93,191,253,58,212,280,36,200,323,106,283,29]",2.133,rectangle
,,,,,,,,,,,,,FF,,,,,,,,2.267,,,,,,,,,,,,,,,,,,,,,,60fd760a74bf79dc673e156e,61036debd1e815722ce9f194,2021-07-30_13h13.07.357,Simcolourproject_2stim_asymm_v5,2020.2.10,MacIntel,60,61025ae37ef11b136ea224fe,,,,,,,,,3778,-36,-67,1,0,0,response5disk,,3,-9,15,1,0,0,rectangle,-9,15,1,0,0,-9,15,1,0,0,0,58,58,18,1,,,,,,,,
,,,,,,,,,,,,,FF,,,,,,,,1.466,,,,,,,,,,,,,,,,,,,,,,60fd760a74bf79dc673e156e,61036debd1e815722ce9f194,2021-07-30_13h13.07.357,Simcolourproject_2stim_asymm_v5,2020.2.10,MacIntel,60,61025ae37ef11b136ea224fe,,,,,,,,,1233,63,-31,1,0,0,response3disk,,5,22,1,1,0,0,rectangle,22,1,1,0,0,22,1,1,0,0,0,59,59,37,1,,,,,,,,
,,,,,,,,,,,,,FF,,,,,,,,3.534,,,,,,,,,,,,,,,,,,,,,,60fd760a74bf79dc673e156e,61036debd1e815722ce9f194,2021-07-30_13h13.07.357,Simcolourproject_2stim_asymm_v5,2020.2.10,MacIntel,60,61025ae37ef11b136ea224fe,,,,,,,,,1735,-110,-36,1,0,0,response5disk,,2,-1,-6,1,0,0,rectangle,-1,-6,1,0,0,-1,-6,1,0,0,0,60,60,151,1,,,,,,,,
,,,,,,,,,,,,,FF,,,,,,,,0.767,,,,,,,,,,,,,,,,,,,,,,60fd760a74bf79dc673e156e,61036debd1e815722ce9f194,2021-07-30_13h13.07.357,Simcolourproject_2stim_asymm_v5,2020.2.10,MacIntel,60,61025ae37ef11b136ea224fe,,,,,,,,,283,-39,-82,1,0,0,response5disk,,3,9,12,1,0,0,rectangle,9,12,1,0,0,9,12,1,0,0,0,61,61,2,1,,,,,,,,
,,,,,,,,,,,,,FF,,,,,,,,0.999,,,,,,,,,,,,,,,,,,,,,,60fd760a74bf79dc673e156e,61036debd1e815722ce9f194,2021-07-30_13h13.07.357,Simcolourproject_2stim_asymm_v5,2020.2.10,MacIntel,60,61025ae37ef11b136ea224fe,,,,,,,,,1703,35,65,1,0,0,response1disk,,7,-2,7,1,0,0,rectangle,-2,7,1,0,0,-2,7,1,0,0,0,62,62,46,1,,,,,,,,
,,,,,,,,,,,,,FF,,,,,,,,0.435,,,,,,,,,,,,,,,,,,,,,,60fd760a74bf79dc673e156e,61036debd1e815722ce9f194,2021-07-30_13h13.07.357,Simcolourproject_2stim_asymm_v5,2020.2.10,MacIntel,60,61025ae37ef11b136ea224fe,,,,,,,,,1694,16,48,1,0,0,response1disk,,7,5,16,1,0,0,rectangle,5,16,1,0,0,5,16,1,0,0,0,63,63,138,1,,,,,,,,
,,,,,,,,,,,,,FF,,,,,,,,1.233,,,,,,,,,,,,,,,,,,,,,,60fd760a74bf79dc673e156e,61036debd1e815722ce9f194,2021-07-30_13h13.07.357,Simcolourproject_2stim_asymm_v5,2020.2.10,MacIntel,60,61025ae37ef11b136ea224fe,,,,,,,,,751,92,-43,1,0,0,response3disk,,5,24,-10,1,0,0,rectangle,24,-10,1,0,0,24,-10,1,0,0,0,64,64,139,1,,,,,,,,
,,,,,,,,,,,,,FF,,,,,,,,0.684,,,,,,,,,,,,,,,,,,,,,,60fd760a74bf79dc673e156e,61036debd1e815722ce9f194,2021-07-30_13h13.07.357,Simcolourproject_2stim_asymm_v5,2020.2.10,MacIntel,60,61025ae37ef11b136ea224fe,,,,,,,,,733,31,41,1,0,0,response1disk,,7,20,-1,1,0,0,rectangle,85,-59,1,0,0,23,-14,1,0,0,0,65,65,64,1,,response3disk_3,TRUE,5,3,"[227,242,66,9,264,137,104,212,93,191,253,58,212,280,36,200,323,106,283,29]",2.184,rectangle
,,,,,,,,,,,,,FF,,,,,,,,1,,,,,,,,,,,,,,,,,,,,,,60fd760a74bf79dc673e156e,61036debd1e815722ce9f194,2021-07-30_13h13.07.357,Simcolourproject_2stim_asymm_v5,2020.2.10,MacIntel,60,61025ae37ef11b136ea224fe,,,,,,,,,909,84,-27,1,0,0,response3disk,,5,25,5,1,0,0,rectangle,25,5,1,0,0,25,5,1,0,0,0,66,66,49,1,,,,,,,,
,,,,,,,,,,,,,FF,,,,,,,,2.983,,,,,,,,,,,,,,,,,,,,,,60fd760a74bf79dc673e156e,61036debd1e815722ce9f194,2021-07-30_13h13.07.357,Simcolourproject_2stim_asymm_v5,2020.2.10,MacIntel,60,61025ae37ef11b136ea224fe,,,,,,,,,2369,69,-50,1,0,0,response3disk,,5,-9,3,1,0,0,rectangle,-9,3,1,0,0,-9,3,1,0,0,0,67,67,117,1,,,,,,,,
,,,,,,,,,,,,,FF,,,,,,,,1.199,,,,,,,,,,,,,,,,,,,,,,60fd760a74bf79dc673e156e,61036debd1e815722ce9f194,2021-07-30_13h13.07.357,Simcolourproject_2stim_asymm_v5,2020.2.10,MacIntel,60,61025ae37ef11b136ea224fe,,,,,,,,,1717,57,60,1,0,0,response1disk,,7,7,13,1,0,0,rectangle,7,13,1,0,0,7,13,1,0,0,0,68,68,104,1,,,,,,,,
,,,,,,,,,,,,,FF,,,,,,,,0.501,,,,,,,,,,,,,,,,,,,,,,60fd760a74bf79dc673e156e,61036debd1e815722ce9f194,2021-07-30_13h13.07.357,Simcolourproject_2stim_asymm_v5,2020.2.10,MacIntel,60,61025ae37ef11b136ea224fe,,,,,,,,,2484,25,48,1,0,0,response1disk,,7,2,9,1,0,0,rectangle,2,9,1,0,0,2,9,1,0,0,0,69,69,127,1,,,,,,,,
,,,,,,,,,,,,,FF,,,,,,,,0.483,,,,,,,,,,,,,,,,,,,,,,60fd760a74bf79dc673e156e,61036debd1e815722ce9f194,2021-07-30_13h13.07.357,Simcolourproject_2stim_asymm_v5,2020.2.10,MacIntel,60,61025ae37ef11b136ea224fe,,,,,,,,,1784,28,58,1,0,0,response1disk,,7,3,-2,1,0,0,rectangle,3,-2,1,0,0,3,-2,1,0,0,0,70,70,72,1,,,,,,,,
,,,,,,,,,,,,,FF,,,,,,,,0.75,,,,,,,,,,,,,,,,,,,,,,60fd760a74bf79dc673e156e,61036debd1e815722ce9f194,2021-07-30_13h13.07.357,Simcolourproject_2stim_asymm_v5,2020.2.10,MacIntel,60,61025ae37ef11b136ea224fe,,,,,,,,,3795,22,41,1,0,0,response1disk,,7,9,5,1,0,0,rectangle,9,5,1,0,0,9,5,1,0,0,0,71,71,129,1,,,,,,,,
,,,,,,,,,,,,,FF,,,,,,,,0.483,,,,,,,,,,,,,,,,,,,,,,60fd760a74bf79dc673e156e,61036debd1e815722ce9f194,2021-07-30_13h13.07.357,Simcolourproject_2stim_asymm_v5,2020.2.10,MacIntel,60,61025ae37ef11b136ea224fe,,,,,,,,,1725,27,60,1,0,0,response1disk,,7,1,8,1,0,0,rectangle,1,8,1,0,0,1,8,1,0,0,0,72,72,75,1,,,,,,,,
,,,,,,,,,,,,,FF,,,,,,,,0.601,,,,,,,,,,,,,,,,,,,,,,60fd760a74bf79dc673e156e,61036debd1e815722ce9f194,2021-07-30_13h13.07.357,Simcolourproject_2stim_asymm_v5,2020.2.10,MacIntel,60,61025ae37ef11b136ea224fe,,,,,,,,,2278,18,43,1,0,0,response1disk,,7,7,2,1,0,0,rectangle,7,2,1,0,0,7,2,1,0,0,0,73,73,41,1,,,,,,,,
,,,,,,,,,,,,,FF,,,,,,,,2.316,,,,,,,,,,,,,,,,,,,,,,60fd760a74bf79dc673e156e,61036debd1e815722ce9f194,2021-07-30_13h13.07.357,Simcolourproject_2stim_asymm_v5,2020.2.10,MacIntel,60,61025ae37ef11b136ea224fe,,,,,,,,,1056,-60,-30,1,0,0,response5disk,,2,-15,-12,1,0,0,rectangle,-15,-12,1,0,0,-15,-12,1,0,0,0,74,74,32,1,,,,,,,,
,,,,,,,,,,,,,FF,,,,,,,,0.818,,,,,,,,,,,,,,,,,,,,,,60fd760a74bf79dc673e156e,61036debd1e815722ce9f194,2021-07-30_13h13.07.357,Simcolourproject_2stim_asymm_v5,2020.2.10,MacIntel,60,61025ae37ef11b136ea224fe,,,,,,,,,3573,19,45,1,0,0,response1disk,,7,8,7,1,0,0,rectangle,8,7,1,0,0,8,7,1,0,0,0,75,75,96,1,,,,,,,,
,,,,,,,,,,,,,FF,,,,,,,,0.467,,,,,,,,,,,,,,,,,,,,,,60fd760a74bf79dc673e156e,61036debd1e815722ce9f194,2021-07-30_13h13.07.357,Simcolourproject_2stim_asymm_v5,2020.2.10,MacIntel,60,61025ae37ef11b136ea224fe,,,,,,,,,1687,34,61,1,0,0,response1disk,,7,14,0,1,0,0,rectangle,14,0,1,0,0,14,0,1,0,0,0,76,76,45,1,,,,,,,,
,,,,,,,,,,,,,FF,,,,,,,,0.598,,,,,,,,,,,,,,,,,,,,,,60fd760a74bf79dc673e156e,61036debd1e815722ce9f194,2021-07-30_13h13.07.357,Simcolourproject_2stim_asymm_v5,2020.2.10,MacIntel,60,61025ae37ef11b136ea224fe,,,,,,,,,3700,35,54,1,0,0,response1disk,,7,10,-14,1,0,0,rectangle,10,-14,1,0,0,10,-14,1,0,0,0,77,77,142,1,,,,,,,,
,,,,,,,,,,,,,FF,,,,,,,,0.717,,,,,,,,,,,,,,,,,,,,,,60fd760a74bf79dc673e156e,61036debd1e815722ce9f194,2021-07-30_13h13.07.357,Simcolourproject_2stim_asymm_v5,2020.2.10,MacIntel,60,61025ae37ef11b136ea224fe,,,,,,,,,2090,43,57,1,0,0,response1disk,,7,20,-1,1,0,0,rectangle,20,-1,1,0,0,20,-1,1,0,0,0,78,78,30,1,,,,,,,,
,,,,,,,,,,,,,FF,,,,,,,,0.867,,,,,,,,,,,,,,,,,,,,,,60fd760a74bf79dc673e156e,61036debd1e815722ce9f194,2021-07-30_13h13.07.357,Simcolourproject_2stim_asymm_v5,2020.2.10,MacIntel,60,61025ae37ef11b136ea224fe,,,,,,,,,3178,39,59,1,0,0,response1disk,,7,22,-2,1,0,0,rectangle,22,-2,1,0,0,22,-2,1,0,0,0,79,79,86,1,,,,,,,,
,,,,,,,,,,,,,FF,,,,,,,,2.034,,,,,,,,,,,,,,,,,,,,,,60fd760a74bf79dc673e156e,61036debd1e815722ce9f194,2021-07-30_13h13.07.357,Simcolourproject_2stim_asymm_v5,2020.2.10,MacIntel,60,61025ae37ef11b136ea224fe,,,,,,,,,532,-87,-35,1,0,0,response5disk,,2,7,15,1,0,0,rectangle,7,15,1,0,0,7,15,1,0,0,0,80,80,62,1,,,,,,,,
,,,,,,,,,,,,,FF,,,,,,,,0.767,,,,,,,,,,,,,,,,,,,,,,60fd760a74bf79dc673e156e,61036debd1e815722ce9f194,2021-07-30_13h13.07.357,Simcolourproject_2stim_asymm_v5,2020.2.10,MacIntel,60,61025ae37ef11b136ea224fe,,,,,,,,,2209,30,46,1,0,0,response1disk,,7,14,-2,1,0,0,rectangle,14,-2,1,0,0,14,-2,1,0,0,0,81,81,33,1,,,,,,,,
,,,,,,,,,,,,,FF,,,,,,,,1.3,,,,,,,,,,,,,,,,,,,,,,60fd760a74bf79dc673e156e,61036debd1e815722ce9f194,2021-07-30_13h13.07.357,Simcolourproject_2stim_asymm_v5,2020.2.10,MacIntel,60,61025ae37ef11b136ea224fe,,,,,,,,,4121,-27,-92,1,0,0,response5disk,,3,19,10,1,0,0,rectangle,19,10,1,0,0,19,10,1,0,0,0,82,82,148,1,,,,,,,,
,,,,,,,,,,,,,FF,,,,,,,,0.984,,,,,,,,,,,,,,,,,,,,,,60fd760a74bf79dc673e156e,61036debd1e815722ce9f194,2021-07-30_13h13.07.357,Simcolourproject_2stim_asymm_v5,2020.2.10,MacIntel,60,61025ae37ef11b136ea224fe,,,,,,,,,1358,36,61,1,0,0,response1disk,,7,1,17,1,0,0,rectangle,1,17,1,0,0,1,17,1,0,0,0,83,83,26,1,,,,,,,,
,,,,,,,,,,,,,FF,,,,,,,,1.384,,,,,,,,,,,,,,,,,,,,,,60fd760a74bf79dc673e156e,61036debd1e815722ce9f194,2021-07-30_13h13.07.357,Simcolourproject_2stim_asymm_v5,2020.2.10,MacIntel,60,61025ae37ef11b136ea224fe,,,,,,,,,3922,37,-54,1,0,0,response3disk,,4,32,-1,1,0,0,rectangle,32,-1,1,0,0,32,-1,1,0,0,0,84,84,112,1,,,,,,,,
,,,,,,,,,,,,,FF,,,,,,,,1.616,,,,,,,,,,,,,,,,,,,,,,60fd760a74bf79dc673e156e,61036debd1e815722ce9f194,2021-07-30_13h13.07.357,Simcolourproject_2stim_asymm_v5,2020.2.10,MacIntel,60,61025ae37ef11b136ea224fe,,,,,,,,,348,-76,-49,1,0,0,response5disk,,2,-15,-8,1,0,0,rectangle,-15,-8,1,0,0,-15,-8,1,0,0,0,85,85,20,1,,,,,,,,
,,,,,,,,,,,,,FF,,,,,,,,0.801,,,,,,,,,,,,,,,,,,,,,,60fd760a74bf79dc673e156e,61036debd1e815722ce9f194,2021-07-30_13h13.07.357,Simcolourproject_2stim_asymm_v5,2020.2.10,MacIntel,60,61025ae37ef11b136ea224fe,,,,,,,,,361,27,65,1,0,0,response1disk,,7,20,14,1,0,0,rectangle,20,14,1,0,0,20,14,1,0,0,0,86,86,4,1,,,,,,,,
,,,,,,,,,,,,,FF,,,,,,,,1.116,,,,,,,,,,,,,,,,,,,,,,60fd760a74bf79dc673e156e,61036debd1e815722ce9f194,2021-07-30_13h13.07.357,Simcolourproject_2stim_asymm_v5,2020.2.10,MacIntel,60,61025ae37ef11b136ea224fe,,,,,,,,,1036,86,-57,1,0,0,response3disk,,5,28,-4,1,0,0,rectangle,28,-4,1,0,0,28,-4,1,0,0,0,87,87,97,1,,,,,,,,
,,,,,,,,,,,,,FF,,,,,,,,0.548,,,,,,,,,,,,,,,,,,,,,,60fd760a74bf79dc673e156e,61036debd1e815722ce9f194,2021-07-30_13h13.07.357,Simcolourproject_2stim_asymm_v5,2020.2.10,MacIntel,60,61025ae37ef11b136ea224fe,,,,,,,,,671,58,-23,1,0,0,response3disk,,5,16,-16,1,0,0,rectangle,16,-16,1,0,0,16,-16,1,0,0,0,88,88,73,1,,,,,,,,
,,,,,,,,,,,,,FF,,,,,,,,0.633,,,,,,,,,,,,,,,,,,,,,,60fd760a74bf79dc673e156e,61036debd1e815722ce9f194,2021-07-30_13h13.07.357,Simcolourproject_2stim_asymm_v5,2020.2.10,MacIntel,60,61025ae37ef11b136ea224fe,,,,,,,,,2623,30,51,1,0,0,response1disk,,7,10,15,1,0,0,rectangle,10,15,1,0,0,10,15,1,0,0,0,89,89,14,1,,,,,,,,
,,,,,,,,,,,,,FF,,,,,,,,1.217,,,,,,,,,,,,,,,,,,,,,,60fd760a74bf79dc673e156e,61036debd1e815722ce9f194,2021-07-30_13h13.07.357,Simcolourproject_2stim_asymm_v5,2020.2.10,MacIntel,60,61025ae37ef11b136ea224fe,,,,,,,,,3664,27,-72,1,0,0,response3disk,,4,24,7,1,0,0,rectangle,24,7,1,0,0,24,7,1,0,0,0,90,90,130,1,,,,,,,,
,,,,,,,,,,,,,FF,,,,,,,,0.616,,,,,,,,,,,,,,,,,,,,,,60fd760a74bf79dc673e156e,61036debd1e815722ce9f194,2021-07-30_13h13.07.357,Simcolourproject_2stim_asymm_v5,2020.2.10,MacIntel,60,61025ae37ef11b136ea224fe,,,,,,,,,1767,31,54,1,0,0,response1disk,,7,18,-8,1,0,0,rectangle,18,-8,1,0,0,18,-8,1,0,0,0,91,91,126,1,,,,,,,,
,,,,,,,,,,,,,FF,,,,,,,,1.901,,,,,,,,,,,,,,,,,,,,,,60fd760a74bf79dc673e156e,61036debd1e815722ce9f194,2021-07-30_13h13.07.357,Simcolourproject_2stim_asymm_v5,2020.2.10,MacIntel,60,61025ae37ef11b136ea224fe,,,,,,,,,2653,50,-72,1,0,0,response3disk,,4,32,15,1,0,0,rectangle,-80,-37,1,0,0,-21,-16,1,0,0,0,92,92,80,1,,response5disk_3,TRUE,2,2,"[227,242,66,9,264,137,104,212,93,191,253,58,212,280,36,200,323,106,283,29]",2.967,rectangle
,,,,,,,,,,,,,FF,,,,,,,,1.316,,,,,,,,,,,,,,,,,,,,,,60fd760a74bf79dc673e156e,61036debd1e815722ce9f194,2021-07-30_13h13.07.357,Simcolourproject_2stim_asymm_v5,2020.2.10,MacIntel,60,61025ae37ef11b136ea224fe,,,,,,,,,683,85,-35,1,0,0,response3disk,,5,26,-8,1,0,0,rectangle,26,-8,1,0,0,26,-8,1,0,0,0,93,93,122,1,,,,,,,,
,,,,,,,,,,,,,FF,,,,,,,,0.967,,,,,,,,,,,,,,,,,,,,,,60fd760a74bf79dc673e156e,61036debd1e815722ce9f194,2021-07-30_13h13.07.357,Simcolourproject_2stim_asymm_v5,2020.2.10,MacIntel,60,61025ae37ef11b136ea224fe,,,,,,,,,328,28,45,1,0,0,response1disk,,7,9,-14,1,0,0,rectangle,9,-14,1,0,0,9,-14,1,0,0,0,94,94,1,1,,,,,,,,
,,,,,,,,,,,,,FF,,,,,,,,0.601,,,,,,,,,,,,,,,,,,,,,,60fd760a74bf79dc673e156e,61036debd1e815722ce9f194,2021-07-30_13h13.07.357,Simcolourproject_2stim_asymm_v5,2020.2.10,MacIntel,60,61025ae37ef11b136ea224fe,,,,,,,,,2965,31,62,1,0,0,response1disk,,7,8,-14,1,0,0,rectangle,8,-14,1,0,0,8,-14,1,0,0,0,95,95,89,1,,,,,,,,
,,,,,,,,,,,,,FF,,,,,,,,1.184,,,,,,,,,,,,,,,,,,,,,,60fd760a74bf79dc673e156e,61036debd1e815722ce9f194,2021-07-30_13h13.07.357,Simcolourproject_2stim_asymm_v5,2020.2.10,MacIntel,60,61025ae37ef11b136ea224fe,,,,,,,,,3837,35,-81,1,0,0,response3disk,,4,-3,-6,1,0,0,rectangle,-3,-6,1,0,0,-3,-6,1,0,0,0,96,96,158,1,,,,,,,,
,,,,,,,,,,,,,FF,,,,,,,,1.417,,,,,,,,,,,,,,,,,,,,,,60fd760a74bf79dc673e156e,61036debd1e815722ce9f194,2021-07-30_13h13.07.357,Simcolourproject_2stim_asymm_v5,2020.2.10,MacIntel,60,61025ae37ef11b136ea224fe,,,,,,,,,2519,32,47,1,0,0,response1disk,,7,22,9,1,0,0,rectangle,22,9,1,0,0,22,9,1,0,0,0,97,97,6,1,,,,,,,,
,,,,,,,,,,,,,FF,,,,,,,,0.966,,,,,,,,,,,,,,,,,,,,,,60fd760a74bf79dc673e156e,61036debd1e815722ce9f194,2021-07-30_13h13.07.357,Simcolourproject_2stim_asymm_v5,2020.2.10,MacIntel,60,61025ae37ef11b136ea224fe,,,,,,,,,4305,-58,35,1,0,0,response7disk,,1,-12,-9,1,0,0,rectangle,-12,-9,1,0,0,-12,-9,1,0,0,0,98,98,106,1,,,,,,,,
,,,,,,,,,,,,,FF,,,,,,,,1.55,,,,,,,,,,,,,,,,,,,,,,60fd760a74bf79dc673e156e,61036debd1e815722ce9f194,2021-07-30_13h13.07.357,Simcolourproject_2stim_asymm_v5,2020.2.10,MacIntel,60,61025ae37ef11b136ea224fe,,,,,,,,,2903,-94,-40,1,0,0,response5disk,,2,-11,-8,1,0,0,rectangle,-11,-8,1,0,0,-11,-8,1,0,0,0,99,99,140,1,,,,,,,,
,,,,,,,,,,,,,FF,,,,,,,,0.701,,,,,,,,,,,,,,,,,,,,,,60fd760a74bf79dc673e156e,61036debd1e815722ce9f194,2021-07-30_13h13.07.357,Simcolourproject_2stim_asymm_v5,2020.2.10,MacIntel,60,61025ae37ef11b136ea224fe,,,,,,,,,3771,33,56,1,0,0,response1disk,,7,10,-4,1,0,0,rectangle,10,-4,1,0,0,10,-4,1,0,0,0,100,100,159,1,,,,,,,,
,,,,,,,,,,,,,FF,,,,,,,,0.817,,,,,,,,,,,,,,,,,,,,,,60fd760a74bf79dc673e156e,61036debd1e815722ce9f194,2021-07-30_13h13.07.357,Simcolourproject_2stim_asymm_v5,2020.2.10,MacIntel,60,61025ae37ef11b136ea224fe,,,,,,,,,3849,-80,-32,1,0,0,response5disk,,2,-5,-14,1,0,0,rectangle,-5,-14,1,0,0,-5,-14,1,0,0,0,101,101,101,1,,,,,,,,
,,,,,,,,,,,,,FF,,,,,,,,3.85,,,,,,,,,,,,,,,,,,,,,,60fd760a74bf79dc673e156e,61036debd1e815722ce9f194,2021-07-30_13h13.07.357,Simcolourproject_2stim_asymm_v5,2020.2.10,MacIntel,60,61025ae37ef11b136ea224fe,,,,,,,,,676,17,37,1,0,0,response1disk,,7,-26,-3,1,0,0,rectangle,-26,-3,1,0,0,-26,-3,1,0,0,0,102,102,35,1,,,,,,,,
,,,,,,,,,,,,,FF,,,,,,,,2.384,,,,,,,,,,,,,,,,,,,,,,60fd760a74bf79dc673e156e,61036debd1e815722ce9f194,2021-07-30_13h13.07.357,Simcolourproject_2stim_asymm_v5,2020.2.10,MacIntel,60,61025ae37ef11b136ea224fe,,,,,,,,,3134,43,57,1,0,0,response1disk,,7,3,-16,1,0,0,rectangle,30,-87,1,0,0,-11,-14,1,0,0,0,103,103,68,1,,response3disk_3,TRUE,4,4,"[227,242,66,9,264,137,104,212,93,191,253,58,212,280,36,200,323,106,283,29]",2.285,rectangle
,,,,,,,,,,,,,FF,,,,,,,,2.532,,,,,,,,,,,,,,,,,,,,,,60fd760a74bf79dc673e156e,61036debd1e815722ce9f194,2021-07-30_13h13.07.357,Simcolourproject_2stim_asymm_v5,2020.2.10,MacIntel,60,61025ae37ef11b136ea224fe,,,,,,,,,1937,28,55,1,0,0,response1disk,,7,14,13,1,0,0,rectangle,14,13,1,0,0,14,13,1,0,0,0,104,104,34,1,,,,,,,,
,,,,,,,,,,,,,FF,,,,,,,,1.216,,,,,,,,,,,,,,,,,,,,,,60fd760a74bf79dc673e156e,61036debd1e815722ce9f194,2021-07-30_13h13.07.357,Simcolourproject_2stim_asymm_v5,2020.2.10,MacIntel,60,61025ae37ef11b136ea224fe,,,,,,,,,2428,-59,-41,1,0,0,response5disk,,2,-7,-10,1,0,0,rectangle,-23,75,1,0,0,1,8,1,0,0,0,105,105,47,1,,response7disk_3,TRUE,0,0,"[227,242,66,9,264,137,104,212,93,191,253,58,212,280,36,200,323,106,283,29]",2.435,rectangle
,,,,,,,,,,,,,FF,,,,,,,,84.173,,,,,,,,,,,,,,,,,,,,,,60fd760a74bf79dc673e156e,61036debd1e815722ce9f194,2021-07-30_13h13.07.357,Simcolourproject_2stim_asymm_v5,2020.2.10,MacIntel,60,61025ae37ef11b136ea224fe,,,,,,,,,1928,50,-89,1,0,0,response3disk,,4,-5,-1,1,0,0,rectangle,-5,-1,1,0,0,-5,-1,1,0,0,0,106,106,124,1,,,,,,,,
,,,,,,,,,,,,,FF,,,,,,,,2.984,,,,,,,,,,,,,,,,,,,,,,60fd760a74bf79dc673e156e,61036debd1e815722ce9f194,2021-07-30_13h13.07.357,Simcolourproject_2stim_asymm_v5,2020.2.10,MacIntel,60,61025ae37ef11b136ea224fe,,,,,,,,,3975,51,-78,1,0,0,response3disk,,4,-6,6,1,0,0,rectangle,-6,6,1,0,0,-6,6,1,0,0,0,107,107,69,1,,,,,,,,
,,,,,,,,,,,,,FF,,,,,,,,0.883,,,,,,,,,,,,,,,,,,,,,,60fd760a74bf79dc673e156e,61036debd1e815722ce9f194,2021-07-30_13h13.07.357,Simcolourproject_2stim_asymm_v5,2020.2.10,MacIntel,60,61025ae37ef11b136ea224fe,,,,,,,,,3467,41,84,1,0,0,response1disk,,7,5,-6,1,0,0,rectangle,5,-6,1,0,0,5,-6,1,0,0,0,108,108,137,1,,,,,,,,
,,,,,,,,,,,,,FF,,,,,,,,0.484,,,,,,,,,,,,,,,,,,,,,,60fd760a74bf79dc673e156e,61036debd1e815722ce9f194,2021-07-30_13h13.07.357,Simcolourproject_2stim_asymm_v5,2020.2.10,MacIntel,60,61025ae37ef11b136ea224fe,,,,,,,,,3957,26,52,1,0,0,response1disk,,7,15,5,1,0,0,rectangle,15,5,1,0,0,15,5,1,0,0,0,109,109,63,1,,,,,,,,
,,,,,,,,,,,,,FF,,,,,,,,0.868,,,,,,,,,,,,,,,,,,,,,,60fd760a74bf79dc673e156e,61036debd1e815722ce9f194,2021-07-30_13h13.07.357,Simcolourproject_2stim_asymm_v5,2020.2.10,MacIntel,60,61025ae37ef11b136ea224fe,,,,,,,,,4108,42,-62,1,0,0,response3disk,,4,27,1,1,0,0,rectangle,27,1,1,0,0,27,1,1,0,0,0,110,110,55,1,,,,,,,,
,,,,,,,,,,,,,FF,,,,,,,,0.817,,,,,,,,,,,,,,,,,,,,,,60fd760a74bf79dc673e156e,61036debd1e815722ce9f194,2021-07-30_13h13.07.357,Simcolourproject_2stim_asymm_v5,2020.2.10,MacIntel,60,61025ae37ef11b136ea224fe,,,,,,,,,1410,73,-41,1,0,0,response3disk,,5,10,15,1,0,0,rectangle,10,15,1,0,0,10,15,1,0,0,0,111,111,70,1,,,,,,,,
,,,,,,,,,,,,,FF,,,,,,,,1.266,,,,,,,,,,,,,,,,,,,,,,60fd760a74bf79dc673e156e,61036debd1e815722ce9f194,2021-07-30_13h13.07.357,Simcolourproject_2stim_asymm_v5,2020.2.10,MacIntel,60,61025ae37ef11b136ea224fe,,,,,,,,,2554,85,-43,1,0,0,response3disk,,5,1,-3,1,0,0,rectangle,1,-3,1,0,0,1,-3,1,0,0,0,112,112,144,1,,,,,,,,
,,,,,,,,,,,,,FF,,,,,,,,1.449,,,,,,,,,,,,,,,,,,,,,,60fd760a74bf79dc673e156e,61036debd1e815722ce9f194,2021-07-30_13h13.07.357,Simcolourproject_2stim_asymm_v5,2020.2.10,MacIntel,60,61025ae37ef11b136ea224fe,,,,,,,,,655,41,68,1,0,0,response1disk,,7,0,14,1,0,0,rectangle,0,14,1,0,0,0,14,1,0,0,0,113,113,115,1,,,,,,,,
,,,,,,,,,,,,,FF,,,,,,,,0.617,,,,,,,,,,,,,,,,,,,,,,60fd760a74bf79dc673e156e,61036debd1e815722ce9f194,2021-07-30_13h13.07.357,Simcolourproject_2stim_asymm_v5,2020.2.10,MacIntel,60,61025ae37ef11b136ea224fe,,,,,,,,,1085,32,69,1,0,0,response1disk,,7,8,-2,1,0,0,rectangle,8,-2,1,0,0,8,-2,1,0,0,0,114,114,58,1,,,,,,,,
,,,,,,,,,,,,,FF,,,,,,,,0.466,,,,,,,,,,,,,,,,,,,,,,60fd760a74bf79dc673e156e,61036debd1e815722ce9f194,2021-07-30_13h13.07.357,Simcolourproject_2stim_asymm_v5,2020.2.10,MacIntel,60,61025ae37ef11b136ea224fe,,,,,,,,,2391,40,81,1,0,0,response1disk,,7,8,10,1,0,0,rectangle,8,10,1,0,0,8,10,1,0,0,0,115,115,102,1,,,,,,,,
,,,,,,,,,,,,,FF,,,,,,,,0.552,,,,,,,,,,,,,,,,,,,,,,60fd760a74bf79dc673e156e,61036debd1e815722ce9f194,2021-07-30_13h13.07.357,Simcolourproject_2stim_asymm_v5,2020.2.10,MacIntel,60,61025ae37ef11b136ea224fe,,,,,,,,,1833,27,60,1,0,0,response1disk,,7,20,9,1,0,0,rectangle,20,9,1,0,0,20,9,1,0,0,0,116,116,77,1,,,,,,,,
,,,,,,,,,,,,,FF,,,,,,,,1.401,,,,,,,,,,,,,,,,,,,,,,60fd760a74bf79dc673e156e,61036debd1e815722ce9f194,2021-07-30_13h13.07.357,Simcolourproject_2stim_asymm_v5,2020.2.10,MacIntel,60,61025ae37ef11b136ea224fe,,,,,,,,,868,33,-81,1,0,0,response3disk,,4,19,9,1,0,0,rectangle,19,9,1,0,0,19,9,1,0,0,0,117,117,31,1,,,,,,,,
,,,,,,,,,,,,,FF,,,,,,,,0.868,,,,,,,,,,,,,,,,,,,,,,60fd760a74bf79dc673e156e,61036debd1e815722ce9f194,2021-07-30_13h13.07.357,Simcolourproject_2stim_asymm_v5,2020.2.10,MacIntel,60,61025ae37ef11b136ea224fe,,,,,,,,,3032,25,69,1,0,0,response1disk,,7,15,14,1,0,0,rectangle,15,14,1,0,0,15,14,1,0,0,0,118,118,82,1,,,,,,,,
,,,,,,,,,,,,,FF,,,,,,,,1.15,,,,,,,,,,,,,,,,,,,,,,60fd760a74bf79dc673e156e,61036debd1e815722ce9f194,2021-07-30_13h13.07.357,Simcolourproject_2stim_asymm_v5,2020.2.10,MacIntel,60,61025ae37ef11b136ea224fe,,,,,,,,,2899,20,-88,1,0,0,response3disk,,4,0,3,1,0,0,rectangle,0,3,1,0,0,0,3,1,0,0,0,119,119,44,1,,,,,,,,
,,,,,,,,,,,,,FF,,,,,,,,1.684,,,,,,,,,,,,,,,,,,,,,,60fd760a74bf79dc673e156e,61036debd1e815722ce9f194,2021-07-30_13h13.07.357,Simcolourproject_2stim_asymm_v5,2020.2.10,MacIntel,60,61025ae37ef11b136ea224fe,,,,,,,,,1213,-43,-79,1,0,0,response5disk,,3,-13,12,1,0,0,rectangle,-13,12,1,0,0,-13,12,1,0,0,0,120,120,120,1,,,,,,,,
,,,,,,,,,,,,,FF,,,,,,,,2.035,,,,,,,,,,,,,,,,,,,,,,60fd760a74bf79dc673e156e,61036debd1e815722ce9f194,2021-07-30_13h13.07.357,Simcolourproject_2stim_asymm_v5,2020.2.10,MacIntel,60,61025ae37ef11b136ea224fe,,,,,,,,,2910,17,69,1,0,0,response1disk,,7,-3,0,1,0,0,rectangle,-3,0,1,0,0,-3,0,1,0,0,0,121,121,51,1,,,,,,,,
,,,,,,,,,,,,,FF,,,,,,,,1.499,,,,,,,,,,,,,,,,,,,,,,60fd760a74bf79dc673e156e,61036debd1e815722ce9f194,2021-07-30_13h13.07.357,Simcolourproject_2stim_asymm_v5,2020.2.10,MacIntel,60,61025ae37ef11b136ea224fe,,,,,,,,,445,-82,-20,1,0,0,response5disk,,2,10,14,1,0,0,rectangle,10,14,1,0,0,10,14,1,0,0,0,122,122,83,1,,,,,,,,
,,,,,,,,,,,,,FF,,,,,,,,1.166,,,,,,,,,,,,,,,,,,,,,,60fd760a74bf79dc673e156e,61036debd1e815722ce9f194,2021-07-30_13h13.07.357,Simcolourproject_2stim_asymm_v5,2020.2.10,MacIntel,60,61025ae37ef11b136ea224fe,,,,,,,,,215,33,64,1,0,0,response1disk,,7,11,12,1,0,0,rectangle,11,12,1,0,0,11,12,1,0,0,0,123,123,76,1,,,,,,,,
,,,,,,,,,,,,,FF,,,,,,,,10.751,,,,,,,,,,,,,,,,,,,,,,60fd760a74bf79dc673e156e,61036debd1e815722ce9f194,2021-07-30_13h13.07.357,Simcolourproject_2stim_asymm_v5,2020.2.10,MacIntel,60,61025ae37ef11b136ea224fe,,,,,,,,,2197,29,-73,1,0,0,response3disk,,4,-10,16,1,0,0,rectangle,-10,16,1,0,0,-10,16,1,0,0,0,124,124,100,1,,,,,,,,
,,,,,,,,,,,,,FF,,,,,,,,0.7,,,,,,,,,,,,,,,,,,,,,,60fd760a74bf79dc673e156e,61036debd1e815722ce9f194,2021-07-30_13h13.07.357,Simcolourproject_2stim_asymm_v5,2020.2.10,MacIntel,60,61025ae37ef11b136ea224fe,,,,,,,,,4018,21,-70,1,0,0,response3disk,,4,13,-6,1,0,0,rectangle,13,-6,1,0,0,13,-6,1,0,0,0,125,125,3,1,,,,,,,,
,,,,,,,,,,,,,FF,,,,,,,,3.75,,,,,,,,,,,,,,,,,,,,,,60fd760a74bf79dc673e156e,61036debd1e815722ce9f194,2021-07-30_13h13.07.357,Simcolourproject_2stim_asymm_v5,2020.2.10,MacIntel,60,61025ae37ef11b136ea224fe,,,,,,,,,991,-42,-83,1,0,0,response5disk,,3,-13,0,1,0,0,rectangle,-13,0,1,0,0,-13,0,1,0,0,0,126,126,87,1,,,,,,,,
,,,,,,,,,,,,,FF,,,,,,,,0.682,,,,,,,,,,,,,,,,,,,,,,60fd760a74bf79dc673e156e,61036debd1e815722ce9f194,2021-07-30_13h13.07.357,Simcolourproject_2stim_asymm_v5,2020.2.10,MacIntel,60,61025ae37ef11b136ea224fe,,,,,,,,,413,-50,-89,1,0,0,response5disk,,3,-12,3,1,0,0,rectangle,-12,3,1,0,0,-12,3,1,0,0,0,127,127,118,1,,,,,,,,
,,,,,,,,,,,,,FF,,,,,,,,0.935,,,,,,,,,,,,,,,,,,,,,,60fd760a74bf79dc673e156e,61036debd1e815722ce9f194,2021-07-30_13h13.07.357,Simcolourproject_2stim_asymm_v5,2020.2.10,MacIntel,60,61025ae37ef11b136ea224fe,,,,,,,,,1637,45,79,1,0,0,response1disk,,7,17,4,1,0,0,rectangle,17,4,1,0,0,17,4,1,0,0,0,128,128,95,1,,,,,,,,
,,,,,,,,,,,,,FF,,,,,,,,1.184,,,,,,,,,,,,,,,,,,,,,,60fd760a74bf79dc673e156e,61036debd1e815722ce9f194,2021-07-30_13h13.07.357,Simcolourproject_2stim_asymm_v5,2020.2.10,MacIntel,60,61025ae37ef11b136ea224fe,,,,,,,,,537,83,25,1,0,0,response1disk,,6,23,4,1,0,0,rectangle,23,4,1,0,0,23,4,1,0,0,0,129,129,24,1,,,,,,,,
,,,,,,,,,,,,,FF,,,,,,,,0.851,,,,,,,,,,,,,,,,,,,,,,60fd760a74bf79dc673e156e,61036debd1e815722ce9f194,2021-07-30_13h13.07.357,Simcolourproject_2stim_asymm_v5,2020.2.10,MacIntel,60,61025ae37ef11b136ea224fe,,,,,,,,,2191,30,81,1,0,0,response1disk,,7,12,-12,1,0,0,rectangle,12,-12,1,0,0,12,-12,1,0,0,0,130,130,53,1,,,,,,,,
,,,,,,,,,,,,,FF,,,,,,,,1.449,,,,,,,,,,,,,,,,,,,,,,60fd760a74bf79dc673e156e,61036debd1e815722ce9f194,2021-07-30_13h13.07.357,Simcolourproject_2stim_asymm_v5,2020.2.10,MacIntel,60,61025ae37ef11b136ea224fe,,,,,,,,,3953,25,-83,1,0,0,response3disk,,4,11,-10,1,0,0,rectangle,11,-10,1,0,0,11,-10,1,0,0,0,131,131,25,1,,,,,,,,
,,,,,,,,,,,,,FF,,,,,,,,0.635,,,,,,,,,,,,,,,,,,,,,,60fd760a74bf79dc673e156e,61036debd1e815722ce9f194,2021-07-30_13h13.07.357,Simcolourproject_2stim_asymm_v5,2020.2.10,MacIntel,60,61025ae37ef11b136ea224fe,,,,,,,,,1667,25,41,1,0,0,response1disk,,7,8,-5,1,0,0,rectangle,8,-5,1,0,0,8,-5,1,0,0,0,132,132,110,1,,,,,,,,
,,,,,,,,,,,,,FF,,,,,,,,0.45,,,,,,,,,,,,,,,,,,,,,,60fd760a74bf79dc673e156e,61036debd1e815722ce9f194,2021-07-30_13h13.07.357,Simcolourproject_2stim_asymm_v5,2020.2.10,MacIntel,60,61025ae37ef11b136ea224fe,,,,,,,,,1190,28,48,1,0,0,response1disk,,7,22,10,1,0,0,rectangle,22,10,1,0,0,22,10,1,0,0,0,133,133,29,1,,,,,,,,
,,,,,,,,,,,,,FF,,,,,,,,0.817,,,,,,,,,,,,,,,,,,,,,,60fd760a74bf79dc673e156e,61036debd1e815722ce9f194,2021-07-30_13h13.07.357,Simcolourproject_2stim_asymm_v5,2020.2.10,MacIntel,60,61025ae37ef11b136ea224fe,,,,,,,,,1658,39,74,1,0,0,response1disk,,7,35,4,1,0,0,rectangle,35,4,1,0,0,35,4,1,0,0,0,134,134,85,1,,,,,,,,
,,,,,,,,,,,,,FF,,,,,,,,1.717,,,,,,,,,,,,,,,,,,,,,,60fd760a74bf79dc673e156e,61036debd1e815722ce9f194,2021-07-30_13h13.07.357,Simcolourproject_2stim_asymm_v5,2020.2.10,MacIntel,60,61025ae37ef11b136ea224fe,,,,,,,,,600,33,106,1,0,0,response1disk,,7,-29,10,1,0,0,rectangle,-29,10,1,0,0,-29,10,1,0,0,0,135,135,39,1,,,,,,,,
,,,,,,,,,,,,,FF,,,,,,,,0.899,,,,,,,,,,,,,,,,,,,,,,60fd760a74bf79dc673e156e,61036debd1e815722ce9f194,2021-07-30_13h13.07.357,Simcolourproject_2stim_asymm_v5,2020.2.10,MacIntel,60,61025ae37ef11b136ea224fe,,,,,,,,,1245,76,43,1,0,0,response1disk,,6,13,11,1,0,0,rectangle,-98,32,1,0,0,1,14,1,0,0,0,136,136,11,1,,response7disk_3,TRUE,1,1,"[227,242,66,9,264,137,104,212,93,191,253,58,212,280,36,200,323,106,283,29]",2.268,rectangle
,,,,,,,,,,,,,FF,,,,,,,,3.317,,,,,,,,,,,,,,,,,,,,,,60fd760a74bf79dc673e156e,61036debd1e815722ce9f194,2021-07-30_13h13.07.357,Simcolourproject_2stim_asymm_v5,2020.2.10,MacIntel,60,61025ae37ef11b136ea224fe,,,,,,,,,3456,81,-43,1,0,0,response3disk,,5,7,-4,1,0,0,rectangle,7,-4,1,0,0,7,-4,1,0,0,0,137,137,17,1,,,,,,,,
,,,,,,,,,,,,,FF,,,,,,,,0.983,,,,,,,,,,,,,,,,,,,,,,60fd760a74bf79dc673e156e,61036debd1e815722ce9f194,2021-07-30_13h13.07.357,Simcolourproject_2stim_asymm_v5,2020.2.10,MacIntel,60,61025ae37ef11b136ea224fe,,,,,,,,,3390,-41,-85,1,0,0,response5disk,,3,-7,-7,1,0,0,rectangle,-7,-7,1,0,0,-7,-7,1,0,0,0,138,138,152,1,,,,,,,,
,,,,,,,,,,,,,FF,,,,,,,,1,,,,,,,,,,,,,,,,,,,,,,60fd760a74bf79dc673e156e,61036debd1e815722ce9f194,2021-07-30_13h13.07.357,Simcolourproject_2stim_asymm_v5,2020.2.10,MacIntel,60,61025ae37ef11b136ea224fe,,,,,,,,,225,-36,-93,1,0,0,response5disk,,3,13,0,1,0,0,rectangle,13,0,1,0,0,13,0,1,0,0,0,139,139,132,1,,,,,,,,
,,,,,,,,,,,,,FF,,,,,,,,0.416,,,,,,,,,,,,,,,,,,,,,,60fd760a74bf79dc673e156e,61036debd1e815722ce9f194,2021-07-30_13h13.07.357,Simcolourproject_2stim_asymm_v5,2020.2.10,MacIntel,60,61025ae37ef11b136ea224fe,,,,,,,,,4332,25,54,1,0,0,response1disk,,7,19,16,1,0,0,rectangle,19,16,1,0,0,19,16,1,0,0,0,140,140,59,1,,,,,,,,
,,,,,,,,,,,,,FF,,,,,,,,247.601,,,,,,,,,,,,,,,,,,,,,,60fd760a74bf79dc673e156e,61036debd1e815722ce9f194,2021-07-30_13h13.07.357,Simcolourproject_2stim_asymm_v5,2020.2.10,MacIntel,60,61025ae37ef11b136ea224fe,,,,,,,,,1568,82,-70,1,0,0,response3disk,,5,24,3,1,0,0,rectangle,24,3,1,0,0,24,3,1,0,0,0,141,141,90,1,,,,,,,,
,,,,,,,,,,,,,FF,,,,,,,,1.933,,,,,,,,,,,,,,,,,,,,,,60fd760a74bf79dc673e156e,61036debd1e815722ce9f194,2021-07-30_13h13.07.357,Simcolourproject_2stim_asymm_v5,2020.2.10,MacIntel,60,61025ae37ef11b136ea224fe,,,,,,,,,1829,-21,-51,1,0,0,response5disk,,3,-1,0,1,0,0,rectangle,-1,0,1,0,0,-1,0,1,0,0,0,142,142,74,1,,,,,,,,
,,,,,,,,,,,,,FF,,,,,,,,0.918,,,,,,,,,,,,,,,,,,,,,,60fd760a74bf79dc673e156e,61036debd1e815722ce9f194,2021-07-30_13h13.07.357,Simcolourproject_2stim_asymm_v5,2020.2.10,MacIntel,60,61025ae37ef11b136ea224fe,,,,,,,,,1039,-37,-59,1,0,0,response5disk,,3,-8,-7,1,0,0,rectangle,-8,-7,1,0,0,-8,-7,1,0,0,0,143,143,61,1,,,,,,,,
,,,,,,,,,,,,,FF,,,,,,,,0.8,,,,,,,,,,,,,,,,,,,,,,60fd760a74bf79dc673e156e,61036debd1e815722ce9f194,2021-07-30_13h13.07.357,Simcolourproject_2stim_asymm_v5,2020.2.10,MacIntel,60,61025ae37ef11b136ea224fe,,,,,,,,,1588,-31,-54,1,0,0,response5disk,,3,-4,-10,1,0,0,rectangle,-4,-10,1,0,0,-4,-10,1,0,0,0,144,144,119,1,,,,,,,,
,,,,,,,,,,,,,FF,,,,,,,,0.568,,,,,,,,,,,,,,,,,,,,,,60fd760a74bf79dc673e156e,61036debd1e815722ce9f194,2021-07-30_13h13.07.357,Simcolourproject_2stim_asymm_v5,2020.2.10,MacIntel,60,61025ae37ef11b136ea224fe,,,,,,,,,1683,-33,-59,1,0,0,response5disk,,3,-3,-5,1,0,0,rectangle,-3,-5,1,0,0,-3,-5,1,0,0,0,145,145,134,1,,,,,,,,
,,,,,,,,,,,,,FF,,,,,,,,1.051,,,,,,,,,,,,,,,,,,,,,,60fd760a74bf79dc673e156e,61036debd1e815722ce9f194,2021-07-30_13h13.07.357,Simcolourproject_2stim_asymm_v5,2020.2.10,MacIntel,60,61025ae37ef11b136ea224fe,,,,,,,,,1265,53,-72,1,0,0,response3disk,,4,18,1,1,0,0,rectangle,18,1,1,0,0,18,1,1,0,0,0,146,146,48,1,,,,,,,,
,,,,,,,,,,,,,FF,,,,,,,,1.167,,,,,,,,,,,,,,,,,,,,,,60fd760a74bf79dc673e156e,61036debd1e815722ce9f194,2021-07-30_13h13.07.357,Simcolourproject_2stim_asymm_v5,2020.2.10,MacIntel,60,61025ae37ef11b136ea224fe,,,,,,,,,3380,64,95,1,0,0,response1disk,,7,18,0,1,0,0,rectangle,18,0,1,0,0,18,0,1,0,0,0,147,147,28,1,,,,,,,,
,,,,,,,,,,,,,FF,,,,,,,,0.85,,,,,,,,,,,,,,,,,,,,,,60fd760a74bf79dc673e156e,61036debd1e815722ce9f194,2021-07-30_13h13.07.357,Simcolourproject_2stim_asymm_v5,2020.2.10,MacIntel,60,61025ae37ef11b136ea224fe,,,,,,,,,1301,-51,-98,1,0,0,response5disk,,3,15,-6,1,0,0,rectangle,15,-6,1,0,0,15,-6,1,0,0,0,148,148,91,1,,,,,,,,
,,,,,,,,,,,,,FF,,,,,,,,2.767,,,,,,,,,,,,,,,,,,,,,,60fd760a74bf79dc673e156e,61036debd1e815722ce9f194,2021-07-30_13h13.07.357,Simcolourproject_2stim_asymm_v5,2020.2.10,MacIntel,60,61025ae37ef11b136ea224fe,,,,,,,,,3661,42,-70,1,0,0,response3disk,,4,-18,11,1,0,0,rectangle,-18,11,1,0,0,-18,11,1,0,0,0,149,149,81,1,,,,,,,,
,,,,,,,,,,,,,FF,,,,,,,,0.833,,,,,,,,,,,,,,,,,,,,,,60fd760a74bf79dc673e156e,61036debd1e815722ce9f194,2021-07-30_13h13.07.357,Simcolourproject_2stim_asymm_v5,2020.2.10,MacIntel,60,61025ae37ef11b136ea224fe,,,,,,,,,3310,16,-89,1,0,0,response3disk,,4,-2,-2,1,0,0,rectangle,-2,-2,1,0,0,-2,-2,1,0,0,0,150,150,111,1,,,,,,,,
,,,,,,,,,,,,,FF,,,,,,,,1.551,,,,,,,,,,,,,,,,,,,,,,60fd760a74bf79dc673e156e,61036debd1e815722ce9f194,2021-07-30_13h13.07.357,Simcolourproject_2stim_asymm_v5,2020.2.10,MacIntel,60,61025ae37ef11b136ea224fe,,,,,,,,,2603,41,-68,1,0,0,response3disk,,4,12,3,1,0,0,rectangle,12,3,1,0,0,12,3,1,0,0,0,151,151,71,1,,,,,,,,
,,,,,,,,,,,,,FF,,,,,,,,0.666,,,,,,,,,,,,,,,,,,,,,,60fd760a74bf79dc673e156e,61036debd1e815722ce9f194,2021-07-30_13h13.07.357,Simcolourproject_2stim_asymm_v5,2020.2.10,MacIntel,60,61025ae37ef11b136ea224fe,,,,,,,,,2668,39,-48,1,0,0,response3disk,,4,15,-11,1,0,0,rectangle,15,-11,1,0,0,15,-11,1,0,0,0,152,152,143,1,,,,,,,,
,,,,,,,,,,,,,FF,,,,,,,,1.017,,,,,,,,,,,,,,,,,,,,,,60fd760a74bf79dc673e156e,61036debd1e815722ce9f194,2021-07-30_13h13.07.357,Simcolourproject_2stim_asymm_v5,2020.2.10,MacIntel,60,61025ae37ef11b136ea224fe,,,,,,,,,3588,-46,-95,1,0,0,response5disk,,3,-24,-5,1,0,0,rectangle,-24,-5,1,0,0,-24,-5,1,0,0,0,153,153,128,1,,,,,,,,
,,,,,,,,,,,,,FF,,,,,,,,0.984,,,,,,,,,,,,,,,,,,,,,,60fd760a74bf79dc673e156e,61036debd1e815722ce9f194,2021-07-30_13h13.07.357,Simcolourproject_2stim_asymm_v5,2020.2.10,MacIntel,60,61025ae37ef11b136ea224fe,,,,,,,,,825,-61,-32,1,0,0,response5disk,,2,-12,-2,1,0,0,rectangle,-12,-2,1,0,0,-12,-2,1,0,0,0,154,154,145,1,,,,,,,,
,,,,,,,,,,,,,FF,,,,,,,,0.766,,,,,,,,,,,,,,,,,,,,,,60fd760a74bf79dc673e156e,61036debd1e815722ce9f194,2021-07-30_13h13.07.357,Simcolourproject_2stim_asymm_v5,2020.2.10,MacIntel,60,61025ae37ef11b136ea224fe,,,,,,,,,2443,56,87,1,0,0,response1disk,,7,32,5,1,0,0,rectangle,32,5,1,0,0,32,5,1,0,0,0,155,155,65,1,,,,,,,,
,,,,,,,,,,,,,FF,,,,,,,,0.866,,,,,,,,,,,,,,,,,,,,,,60fd760a74bf79dc673e156e,61036debd1e815722ce9f194,2021-07-30_13h13.07.357,Simcolourproject_2stim_asymm_v5,2020.2.10,MacIntel,60,61025ae37ef11b136ea224fe,,,,,,,,,612,-33,-48,1,0,0,response5disk,,3,-15,-10,1,0,0,rectangle,-15,-10,1,0,0,-15,-10,1,0,0,0,156,156,154,1,,,,,,,,
,,,,,,,,,,,,,FF,,,,,,,,1.283,,,,,,,,,,,,,,,,,,,,,,60fd760a74bf79dc673e156e,61036debd1e815722ce9f194,2021-07-30_13h13.07.357,Simcolourproject_2stim_asymm_v5,2020.2.10,MacIntel,60,61025ae37ef11b136ea224fe,,,,,,,,,4283,65,38,1,0,0,response1disk,,6,5,-6,1,0,0,rectangle,5,-6,1,0,0,5,-6,1,0,0,0,157,157,121,1,,,,,,,,
,,,,,,,,,,,,,FF,,,,,,,,191.812,,,,,,,,,,,,,,,,,,,,,,60fd760a74bf79dc673e156e,61036debd1e815722ce9f194,2021-07-30_13h13.07.357,Simcolourproject_2stim_asymm_v5,2020.2.10,MacIntel,60,61025ae37ef11b136ea224fe,,,,,,,,,3270,37,-60,1,0,0,response3disk,,4,-13,-7,1,0,0,rectangle,-13,-7,1,0,0,-13,-7,1,0,0,0,158,158,108,1,,,,,,,,
,,,,,,,,,,,,,FF,,,,,,,,1.033,,,,,,,,,,,,,,,,,,,,,,60fd760a74bf79dc673e156e,61036debd1e815722ce9f194,2021-07-30_13h13.07.357,Simcolourproject_2stim_asymm_v5,2020.2.10,MacIntel,60,61025ae37ef11b136ea224fe,,,,,,,,,3265,-29,-114,1,0,0,response5disk,,3,-1,4,1,0,0,rectangle,-1,4,1,0,0,-1,4,1,0,0,0,159,159,54,1,,,,,,,,
,,,,,,,,,,,,,FF,,,,,,,,0.367,,,,,,,,,,,,,,,,,,,,,,60fd760a74bf79dc673e156e,61036debd1e815722ce9f194,2021-07-30_13h13.07.357,Simcolourproject_2stim_asymm_v5,2020.2.10,MacIntel,60,61025ae37ef11b136ea224fe,,,,,,,,,3566,-28,-52,1,0,0,response5disk,,3,-6,4,1,0,0,rectangle,-6,4,1,0,0,-6,4,1,0,0,1,0,160,45,1,,,,,,,,
,,,,,,,,,,,,,FF,,,,,,,,0.751,,,,,,,,,,,,,,,,,,,,,,60fd760a74bf79dc673e156e,61036debd1e815722ce9f194,2021-07-30_13h13.07.357,Simcolourproject_2stim_asymm_v5,2020.2.10,MacIntel,60,61025ae37ef11b136ea224fe,,,,,,,,,3897,29,-63,1,0,0,response3disk,,4,28,-10,1,0,0,rectangle,28,-10,1,0,0,28,-10,1,0,0,1,1,161,25,1,,,,,,,,
,,,,,,,,,,,,,FF,,,,,,,,0.75,,,,,,,,,,,,,,,,,,,,,,60fd760a74bf79dc673e156e,61036debd1e815722ce9f194,2021-07-30_13h13.07.357,Simcolourproject_2stim_asymm_v5,2020.2.10,MacIntel,60,61025ae37ef11b136ea224fe,,,,,,,,,2403,-32,-79,1,0,0,response5disk,,3,9,-6,1,0,0,rectangle,9,-6,1,0,0,9,-6,1,0,0,1,2,162,159,1,,,,,,,,
,,,,,,,,,,,,,FF,,,,,,,,0.55,,,,,,,,,,,,,,,,,,,,,,60fd760a74bf79dc673e156e,61036debd1e815722ce9f194,2021-07-30_13h13.07.357,Simcolourproject_2stim_asymm_v5,2020.2.10,MacIntel,60,61025ae37ef11b136ea224fe,,,,,,,,,578,-19,-56,1,0,0,response5disk,,3,-13,-10,1,0,0,rectangle,-13,-10,1,0,0,-13,-10,1,0,0,1,3,163,11,1,,,,,,,,
,,,,,,,,,,,,,FF,,,,,,,,0.967,,,,,,,,,,,,,,,,,,,,,,60fd760a74bf79dc673e156e,61036debd1e815722ce9f194,2021-07-30_13h13.07.357,Simcolourproject_2stim_asymm_v5,2020.2.10,MacIntel,60,61025ae37ef11b136ea224fe,,,,,,,,,4303,50,57,1,0,0,response1disk,,7,28,1,1,0,0,rectangle,28,1,1,0,0,28,1,1,0,0,1,4,164,86,1,,,,,,,,
,,,,,,,,,,,,,FF,,,,,,,,0.634,,,,,,,,,,,,,,,,,,,,,,60fd760a74bf79dc673e156e,61036debd1e815722ce9f194,2021-07-30_13h13.07.357,Simcolourproject_2stim_asymm_v5,2020.2.10,MacIntel,60,61025ae37ef11b136ea224fe,,,,,,,,,1765,-35,-74,1,0,0,response5disk,,3,-9,-8,1,0,0,rectangle,-9,-8,1,0,0,-9,-8,1,0,0,1,5,165,19,1,,,,,,,,
,,,,,,,,,,,,,FF,,,,,,,,1.585,,,,,,,,,,,,,,,,,,,,,,60fd760a74bf79dc673e156e,61036debd1e815722ce9f194,2021-07-30_13h13.07.357,Simcolourproject_2stim_asymm_v5,2020.2.10,MacIntel,60,61025ae37ef11b136ea224fe,,,,,,,,,446,32,-65,1,0,0,response3disk,,4,11,2,1,0,0,rectangle,11,2,1,0,0,11,2,1,0,0,1,6,166,61,1,,,,,,,,
,,,,,,,,,,,,,FF,,,,,,,,0.534,,,,,,,,,,,,,,,,,,,,,,60fd760a74bf79dc673e156e,61036debd1e815722ce9f194,2021-07-30_13h13.07.357,Simcolourproject_2stim_asymm_v5,2020.2.10,MacIntel,60,61025ae37ef11b136ea224fe,,,,,,,,,3114,-33,-51,1,0,0,response5disk,,3,3,4,1,0,0,rectangle,3,4,1,0,0,3,4,1,0,0,1,7,167,106,1,,,,,,,,
,,,,,,,,,,,,,FF,,,,,,,,0.517,,,,,,,,,,,,,,,,,,,,,,60fd760a74bf79dc673e156e,61036debd1e815722ce9f194,2021-07-30_13h13.07.357,Simcolourproject_2stim_asymm_v5,2020.2.10,MacIntel,60,61025ae37ef11b136ea224fe,,,,,,,,,3841,-23,-55,1,0,0,response5disk,,3,-11,-12,1,0,0,rectangle,-11,-12,1,0,0,-11,-12,1,0,0,1,8,168,73,1,,,,,,,,
,,,,,,,,,,,,,FF,,,,,,,,0.75,,,,,,,,,,,,,,,,,,,,,,60fd760a74bf79dc673e156e,61036debd1e815722ce9f194,2021-07-30_13h13.07.357,Simcolourproject_2stim_asymm_v5,2020.2.10,MacIntel,60,61025ae37ef11b136ea224fe,,,,,,,,,2926,41,-67,1,0,0,response3disk,,4,18,6,1,0,0,rectangle,18,6,1,0,0,18,6,1,0,0,1,9,169,62,1,,,,,,,,
,,,,,,,,,,,,,FF,,,,,,,,0.917,,,,,,,,,,,,,,,,,,,,,,60fd760a74bf79dc673e156e,61036debd1e815722ce9f194,2021-07-30_13h13.07.357,Simcolourproject_2stim_asymm_v5,2020.2.10,MacIntel,60,61025ae37ef11b136ea224fe,,,,,,,,,736,54,-24,1,0,0,response3disk,,5,25,-16,1,0,0,rectangle,25,-16,1,0,0,25,-16,1,0,0,1,10,170,35,1,,,,,,,,
,,,,,,,,,,,,,FF,,,,,,,,0.933,,,,,,,,,,,,,,,,,,,,,,60fd760a74bf79dc673e156e,61036debd1e815722ce9f194,2021-07-30_13h13.07.357,Simcolourproject_2stim_asymm_v5,2020.2.10,MacIntel,60,61025ae37ef11b136ea224fe,,,,,,,,,1241,24,-67,1,0,0,response3disk,,4,8,13,1,0,0,rectangle,8,13,1,0,0,8,13,1,0,0,1,11,171,18,1,,,,,,,,
,,,,,,,,,,,,,FF,,,,,,,,1.433,,,,,,,,,,,,,,,,,,,,,,60fd760a74bf79dc673e156e,61036debd1e815722ce9f194,2021-07-30_13h13.07.357,Simcolourproject_2stim_asymm_v5,2020.2.10,MacIntel,60,61025ae37ef11b136ea224fe,,,,,,,,,1559,34,51,1,0,0,response1disk,,7,19,-2,1,0,0,rectangle,19,-2,1,0,0,19,-2,1,0,0,1,12,172,13,1,,,,,,,,
,,,,,,,,,,,,,FF,,,,,,,,0.851,,,,,,,,,,,,,,,,,,,,,,60fd760a74bf79dc673e156e,61036debd1e815722ce9f194,2021-07-30_13h13.07.357,Simcolourproject_2stim_asymm_v5,2020.2.10,MacIntel,60,61025ae37ef11b136ea224fe,,,,,,,,,477,81,-44,1,0,0,response3disk,,5,12,4,1,0,0,rectangle,12,4,1,0,0,12,4,1,0,0,1,13,173,10,1,,,,,,,,
,,,,,,,,,,,,,FF,,,,,,,,0.9,,,,,,,,,,,,,,,,,,,,,,60fd760a74bf79dc673e156e,61036debd1e815722ce9f194,2021-07-30_13h13.07.357,Simcolourproject_2stim_asymm_v5,2020.2.10,MacIntel,60,61025ae37ef11b136ea224fe,,,,,,,,,3969,38,-56,1,0,0,response3disk,,4,4,-14,1,0,0,rectangle,4,-14,1,0,0,4,-14,1,0,0,1,14,174,119,1,,,,,,,,
,,,,,,,,,,,,,FF,,,,,,,,1.501,,,,,,,,,,,,,,,,,,,,,,60fd760a74bf79dc673e156e,61036debd1e815722ce9f194,2021-07-30_13h13.07.357,Simcolourproject_2stim_asymm_v5,2020.2.10,MacIntel,60,61025ae37ef11b136ea224fe,,,,,,,,,987,-32,-61,1,0,0,response5disk,,3,17,5,1,0,0,rectangle,17,5,1,0,0,17,5,1,0,0,1,15,175,0,1,,,,,,,,
,,,,,,,,,,,,,FF,,,,,,,,1.018,,,,,,,,,,,,,,,,,,,,,,60fd760a74bf79dc673e156e,61036debd1e815722ce9f194,2021-07-30_13h13.07.357,Simcolourproject_2stim_asymm_v5,2020.2.10,MacIntel,60,61025ae37ef11b136ea224fe,,,,,,,,,1196,68,90,1,0,0,response1disk,,7,8,-5,1,0,0,rectangle,8,-5,1,0,0,8,-5,1,0,0,1,16,176,121,1,,,,,,,,
,,,,,,,,,,,,,FF,,,,,,,,0.667,,,,,,,,,,,,,,,,,,,,,,60fd760a74bf79dc673e156e,61036debd1e815722ce9f194,2021-07-30_13h13.07.357,Simcolourproject_2stim_asymm_v5,2020.2.10,MacIntel,60,61025ae37ef11b136ea224fe,,,,,,,,,3855,32,82,1,0,0,response1disk,,7,0,-14,1,0,0,rectangle,0,-14,1,0,0,0,-14,1,0,0,1,17,177,151,1,,,,,,,,
,,,,,,,,,,,,,FF,,,,,,,,0.551,,,,,,,,,,,,,,,,,,,,,,60fd760a74bf79dc673e156e,61036debd1e815722ce9f194,2021-07-30_13h13.07.357,Simcolourproject_2stim_asymm_v5,2020.2.10,MacIntel,60,61025ae37ef11b136ea224fe,,,,,,,,,1167,35,62,1,0,0,response1disk,,7,3,-7,1,0,0,rectangle,3,-7,1,0,0,3,-7,1,0,0,1,18,178,109,1,,,,,,,,
,,,,,,,,,,,,,FF,,,,,,,,0.566,,,,,,,,,,,,,,,,,,,,,,60fd760a74bf79dc673e156e,61036debd1e815722ce9f194,2021-07-30_13h13.07.357,Simcolourproject_2stim_asymm_v5,2020.2.10,MacIntel,60,61025ae37ef11b136ea224fe,,,,,,,,,1589,-26,-54,1,0,0,response5disk,,3,-10,6,1,0,0,rectangle,-10,6,1,0,0,-10,6,1,0,0,1,19,179,43,1,,,,,,,,
,,,,,,,,,,,,,FF,,,,,,,,0.549,,,,,,,,,,,,,,,,,,,,,,60fd760a74bf79dc673e156e,61036debd1e815722ce9f194,2021-07-30_13h13.07.357,Simcolourproject_2stim_asymm_v5,2020.2.10,MacIntel,60,61025ae37ef11b136ea224fe,,,,,,,,,3332,-32,-36,1,0,0,response5disk,,3,-19,-4,1,0,0,rectangle,-19,-4,1,0,0,-19,-4,1,0,0,1,20,180,138,1,,,,,,,,
,,,,,,,,,,,,,FF,,,,,,,,0.45,,,,,,,,,,,,,,,,,,,,,,60fd760a74bf79dc673e156e,61036debd1e815722ce9f194,2021-07-30_13h13.07.357,Simcolourproject_2stim_asymm_v5,2020.2.10,MacIntel,60,61025ae37ef11b136ea224fe,,,,,,,,,2461,24,-62,1,0,0,response3disk,,4,12,-14,1,0,0,rectangle,12,-14,1,0,0,12,-14,1,0,0,1,21,181,130,1,,,,,,,,
,,,,,,,,,,,,,FF,,,,,,,,0.816,,,,,,,,,,,,,,,,,,,,,,60fd760a74bf79dc673e156e,61036debd1e815722ce9f194,2021-07-30_13h13.07.357,Simcolourproject_2stim_asymm_v5,2020.2.10,MacIntel,60,61025ae37ef11b136ea224fe,,,,,,,,,3587,-21,-79,1,0,0,response5disk,,3,2,-3,1,0,0,rectangle,2,-3,1,0,0,2,-3,1,0,0,1,22,182,31,1,,,,,,,,
,,,,,,,,,,,,,FF,,,,,,,,1.249,,,,,,,,,,,,,,,,,,,,,,60fd760a74bf79dc673e156e,61036debd1e815722ce9f194,2021-07-30_13h13.07.357,Simcolourproject_2stim_asymm_v5,2020.2.10,MacIntel,60,61025ae37ef11b136ea224fe,,,,,,,,,4122,87,-52,1,0,0,response3disk,,5,9,-5,1,0,0,rectangle,9,-5,1,0,0,9,-5,1,0,0,1,23,183,122,1,,,,,,,,
,,,,,,,,,,,,,FF,,,,,,,,0.583,,,,,,,,,,,,,,,,,,,,,,60fd760a74bf79dc673e156e,61036debd1e815722ce9f194,2021-07-30_13h13.07.357,Simcolourproject_2stim_asymm_v5,2020.2.10,MacIntel,60,61025ae37ef11b136ea224fe,,,,,,,,,281,39,-51,1,0,0,response3disk,,4,-3,-14,1,0,0,rectangle,-3,-14,1,0,0,-3,-14,1,0,0,1,24,184,134,1,,,,,,,,
,,,,,,,,,,,,,FF,,,,,,,,0.783,,,,,,,,,,,,,,,,,,,,,,60fd760a74bf79dc673e156e,61036debd1e815722ce9f194,2021-07-30_13h13.07.357,Simcolourproject_2stim_asymm_v5,2020.2.10,MacIntel,60,61025ae37ef11b136ea224fe,,,,,,,,,194,-39,-71,1,0,0,response5disk,,3,-23,-7,1,0,0,rectangle,-23,-7,1,0,0,-23,-7,1,0,0,1,25,185,36,1,,,,,,,,
,,,,,,,,,,,,,FF,,,,,,,,0.868,,,,,,,,,,,,,,,,,,,,,,60fd760a74bf79dc673e156e,61036debd1e815722ce9f194,2021-07-30_13h13.07.357,Simcolourproject_2stim_asymm_v5,2020.2.10,MacIntel,60,61025ae37ef11b136ea224fe,,,,,,,,,913,26,55,1,0,0,response1disk,,7,5,7,1,0,0,rectangle,5,7,1,0,0,5,7,1,0,0,1,26,186,155,1,,,,,,,,
,,,,,,,,,,,,,FF,,,,,,,,1.066,,,,,,,,,,,,,,,,,,,,,,60fd760a74bf79dc673e156e,61036debd1e815722ce9f194,2021-07-30_13h13.07.357,Simcolourproject_2stim_asymm_v5,2020.2.10,MacIntel,60,61025ae37ef11b136ea224fe,,,,,,,,,718,-72,37,1,0,0,response7disk,,1,-9,-1,1,0,0,rectangle,-9,-1,1,0,0,-9,-1,1,0,0,1,27,187,38,1,,,,,,,,
,,,,,,,,,,,,,FF,,,,,,,,0.666,,,,,,,,,,,,,,,,,,,,,,60fd760a74bf79dc673e156e,61036debd1e815722ce9f194,2021-07-30_13h13.07.357,Simcolourproject_2stim_asymm_v5,2020.2.10,MacIntel,60,61025ae37ef11b136ea224fe,,,,,,,,,1812,-30,-58,1,0,0,response5disk,,3,-1,-5,1,0,0,rectangle,-1,-5,1,0,0,-1,-5,1,0,0,1,28,188,39,1,,,,,,,,
,,,,,,,,,,,,,FF,,,,,,,,1.167,,,,,,,,,,,,,,,,,,,,,,60fd760a74bf79dc673e156e,61036debd1e815722ce9f194,2021-07-30_13h13.07.357,Simcolourproject_2stim_asymm_v5,2020.2.10,MacIntel,60,61025ae37ef11b136ea224fe,,,,,,,,,4060,28,-59,1,0,0,response3disk,,4,16,-3,1,0,0,rectangle,16,-3,1,0,0,16,-3,1,0,0,1,29,189,81,1,,,,,,,,
,,,,,,,,,,,,,FF,,,,,,,,1.599,,,,,,,,,,,,,,,,,,,,,,60fd760a74bf79dc673e156e,61036debd1e815722ce9f194,2021-07-30_13h13.07.357,Simcolourproject_2stim_asymm_v5,2020.2.10,MacIntel,60,61025ae37ef11b136ea224fe,,,,,,,,,183,-55,-34,1,0,0,response5disk,,2,1,5,1,0,0,rectangle,-66,-89,1,0,0,-31,-14,1,0,0,1,30,190,96,1,,response5disk_3,TRUE,3,3,"[227,242,66,9,264,137,104,212,93,191,253,58,212,280,36,200,323,106,283,29]",2.333,rectangle
,,,,,,,,,,,,,FF,,,,,,,,0.634,,,,,,,,,,,,,,,,,,,,,,60fd760a74bf79dc673e156e,61036debd1e815722ce9f194,2021-07-30_13h13.07.357,Simcolourproject_2stim_asymm_v5,2020.2.10,MacIntel,60,61025ae37ef11b136ea224fe,,,,,,,,,3160,-34,-80,1,0,0,response5disk,,3,-3,7,1,0,0,rectangle,-3,7,1,0,0,-3,7,1,0,0,1,31,191,94,1,,,,,,,,
,,,,,,,,,,,,,FF,,,,,,,,0.633,,,,,,,,,,,,,,,,,,,,,,60fd760a74bf79dc673e156e,61036debd1e815722ce9f194,2021-07-30_13h13.07.357,Simcolourproject_2stim_asymm_v5,2020.2.10,MacIntel,60,61025ae37ef11b136ea224fe,,,,,,,,,1563,24,-54,1,0,0,response3disk,,4,5,-5,1,0,0,rectangle,5,-5,1,0,0,5,-5,1,0,0,1,32,192,99,1,,,,,,,,
,,,,,,,,,,,,,FF,,,,,,,,0.767,,,,,,,,,,,,,,,,,,,,,,60fd760a74bf79dc673e156e,61036debd1e815722ce9f194,2021-07-30_13h13.07.357,Simcolourproject_2stim_asymm_v5,2020.2.10,MacIntel,60,61025ae37ef11b136ea224fe,,,,,,,,,1821,37,55,1,0,0,response1disk,,7,2,-7,1,0,0,rectangle,2,-7,1,0,0,2,-7,1,0,0,1,33,193,144,1,,,,,,,,
,,,,,,,,,,,,,FF,,,,,,,,0.432,,,,,,,,,,,,,,,,,,,,,,60fd760a74bf79dc673e156e,61036debd1e815722ce9f194,2021-07-30_13h13.07.357,Simcolourproject_2stim_asymm_v5,2020.2.10,MacIntel,60,61025ae37ef11b136ea224fe,,,,,,,,,1875,-34,-51,1,0,0,response5disk,,3,10,1,1,0,0,rectangle,10,1,1,0,0,10,1,1,0,0,1,34,194,128,1,,,,,,,,
,,,,,,,,,,,,,FF,,,,,,,,1.884,,,,,,,,,,,,,,,,,,,,,,60fd760a74bf79dc673e156e,61036debd1e815722ce9f194,2021-07-30_13h13.07.357,Simcolourproject_2stim_asymm_v5,2020.2.10,MacIntel,60,61025ae37ef11b136ea224fe,,,,,,,,,716,-72,49,1,0,0,response7disk,,1,-25,11,1,0,0,rectangle,-25,11,1,0,0,-25,11,1,0,0,1,35,195,21,1,,,,,,,,
,,,,,,,,,,,,,FF,,,,,,,,1.267,,,,,,,,,,,,,,,,,,,,,,60fd760a74bf79dc673e156e,61036debd1e815722ce9f194,2021-07-30_13h13.07.357,Simcolourproject_2stim_asymm_v5,2020.2.10,MacIntel,60,61025ae37ef11b136ea224fe,,,,,,,,,3511,-71,24,1,0,0,response7disk,,1,-18,12,1,0,0,rectangle,-18,12,1,0,0,-18,12,1,0,0,1,36,196,72,1,,,,,,,,
,,,,,,,,,,,,,FF,,,,,,,,0.717,,,,,,,,,,,,,,,,,,,,,,60fd760a74bf79dc673e156e,61036debd1e815722ce9f194,2021-07-30_13h13.07.357,Simcolourproject_2stim_asymm_v5,2020.2.10,MacIntel,60,61025ae37ef11b136ea224fe,,,,,,,,,2775,-47,65,1,0,0,response7disk,,0,-7,7,1,0,0,rectangle,-7,7,1,0,0,-7,7,1,0,0,1,37,197,135,1,,,,,,,,
,,,,,,,,,,,,,FF,,,,,,,,1.982,,,,,,,,,,,,,,,,,,,,,,60fd760a74bf79dc673e156e,61036debd1e815722ce9f194,2021-07-30_13h13.07.357,Simcolourproject_2stim_asymm_v5,2020.2.10,MacIntel,60,61025ae37ef11b136ea224fe,,,,,,,,,68,-38,-67,1,0,0,response5disk,,3,-23,-10,1,0,0,rectangle,-23,-10,1,0,0,-23,-10,1,0,0,1,38,198,82,1,,,,,,,,
,,,,,,,,,,,,,FF,,,,,,,,0.584,,,,,,,,,,,,,,,,,,,,,,60fd760a74bf79dc673e156e,61036debd1e815722ce9f194,2021-07-30_13h13.07.357,Simcolourproject_2stim_asymm_v5,2020.2.10,MacIntel,60,61025ae37ef11b136ea224fe,,,,,,,,,4312,26,60,1,0,0,response1disk,,7,-9,-9,1,0,0,rectangle,59,-75,1,0,0,23,-5,1,0,0,1,39,199,5,1,,response3disk_3,TRUE,4,4,"[227,242,66,9,264,137,104,212,93,191,253,58,212,280,36,200,323,106,283,29]",1.767,rectangle
,,,,,,,,,,,,,FF,,,,,,,,0.566,,,,,,,,,,,,,,,,,,,,,,60fd760a74bf79dc673e156e,61036debd1e815722ce9f194,2021-07-30_13h13.07.357,Simcolourproject_2stim_asymm_v5,2020.2.10,MacIntel,60,61025ae37ef11b136ea224fe,,,,,,,,,811,40,58,1,0,0,response1disk,,7,3,-13,1,0,0,rectangle,3,-13,1,0,0,3,-13,1,0,0,1,40,200,85,1,,,,,,,,
,,,,,,,,,,,,,FF,,,,,,,,0.616,,,,,,,,,,,,,,,,,,,,,,60fd760a74bf79dc673e156e,61036debd1e815722ce9f194,2021-07-30_13h13.07.357,Simcolourproject_2stim_asymm_v5,2020.2.10,MacIntel,60,61025ae37ef11b136ea224fe,,,,,,,,,1711,26,32,1,0,0,response1disk,,7,2,-6,1,0,0,rectangle,2,-6,1,0,0,2,-6,1,0,0,1,41,201,92,1,,,,,,,,
,,,,,,,,,,,,,FF,,,,,,,,0.65,,,,,,,,,,,,,,,,,,,,,,60fd760a74bf79dc673e156e,61036debd1e815722ce9f194,2021-07-30_13h13.07.357,Simcolourproject_2stim_asymm_v5,2020.2.10,MacIntel,60,61025ae37ef11b136ea224fe,,,,,,,,,2640,21,58,1,0,0,response1disk,,7,6,-13,1,0,0,rectangle,6,-13,1,0,0,6,-13,1,0,0,1,42,202,24,1,,,,,,,,
,,,,,,,,,,,,,FF,,,,,,,,1.401,,,,,,,,,,,,,,,,,,,,,,60fd760a74bf79dc673e156e,61036debd1e815722ce9f194,2021-07-30_13h13.07.357,Simcolourproject_2stim_asymm_v5,2020.2.10,MacIntel,60,61025ae37ef11b136ea224fe,,,,,,,,,3670,-54,-29,1,0,0,response5disk,,2,-19,-2,1,0,0,rectangle,-19,-2,1,0,0,-19,-2,1,0,0,1,43,203,114,1,,,,,,,,
,,,,,,,,,,,,,FF,,,,,,,,0.95,,,,,,,,,,,,,,,,,,,,,,60fd760a74bf79dc673e156e,61036debd1e815722ce9f194,2021-07-30_13h13.07.357,Simcolourproject_2stim_asymm_v5,2020.2.10,MacIntel,60,61025ae37ef11b136ea224fe,,,,,,,,,3630,-63,26,1,0,0,response7disk,,1,1,9,1,0,0,rectangle,1,9,1,0,0,1,9,1,0,0,1,44,204,83,1,,,,,,,,
,,,,,,,,,,,,,FF,,,,,,,,1.466,,,,,,,,,,,,,,,,,,,,,,60fd760a74bf79dc673e156e,61036debd1e815722ce9f194,2021-07-30_13h13.07.357,Simcolourproject_2stim_asymm_v5,2020.2.10,MacIntel,60,61025ae37ef11b136ea224fe,,,,,,,,,1786,25,62,1,0,0,response1disk,,7,6,-1,1,0,0,rectangle,6,-1,1,0,0,6,-1,1,0,0,1,45,205,46,1,,,,,,,,
,,,,,,,,,,,,,FF,,,,,,,,0.9,,,,,,,,,,,,,,,,,,,,,,60fd760a74bf79dc673e156e,61036debd1e815722ce9f194,2021-07-30_13h13.07.357,Simcolourproject_2stim_asymm_v5,2020.2.10,MacIntel,60,61025ae37ef11b136ea224fe,,,,,,,,,339,43,44,1,0,0,response1disk,,7,19,6,1,0,0,rectangle,19,6,1,0,0,19,6,1,0,0,1,46,206,40,1,,,,,,,,
,,,,,,,,,,,,,FF,,,,,,,,0.934,,,,,,,,,,,,,,,,,,,,,,60fd760a74bf79dc673e156e,61036debd1e815722ce9f194,2021-07-30_13h13.07.357,Simcolourproject_2stim_asymm_v5,2020.2.10,MacIntel,60,61025ae37ef11b136ea224fe,,,,,,,,,3291,-72,-32,1,0,0,response5disk,,2,-20,-11,1,0,0,rectangle,-20,-11,1,0,0,-20,-11,1,0,0,1,47,207,33,1,,,,,,,,
,,,,,,,,,,,,,FF,,,,,,,,0.7,,,,,,,,,,,,,,,,,,,,,,60fd760a74bf79dc673e156e,61036debd1e815722ce9f194,2021-07-30_13h13.07.357,Simcolourproject_2stim_asymm_v5,2020.2.10,MacIntel,60,61025ae37ef11b136ea224fe,,,,,,,,,2177,17,-49,1,0,0,response3disk,,4,13,-7,1,0,0,rectangle,13,-7,1,0,0,13,-7,1,0,0,1,48,208,97,1,,,,,,,,
,,,,,,,,,,,,,FF,,,,,,,,0.417,,,,,,,,,,,,,,,,,,,,,,60fd760a74bf79dc673e156e,61036debd1e815722ce9f194,2021-07-30_13h13.07.357,Simcolourproject_2stim_asymm_v5,2020.2.10,MacIntel,60,61025ae37ef11b136ea224fe,,,,,,,,,1015,28,-27,1,0,0,response3disk,,5,24,5,1,0,0,rectangle,24,5,1,0,0,24,5,1,0,0,1,49,209,55,1,,,,,,,,
,,,,,,,,,,,,,FF,,,,,,,,698.124,,,,,,,,,,,,,,,,,,,,,,60fd760a74bf79dc673e156e,61036debd1e815722ce9f194,2021-07-30_13h13.07.357,Simcolourproject_2stim_asymm_v5,2020.2.10,MacIntel,60,61025ae37ef11b136ea224fe,,,,,,,,,936,100,-76,1,0,0,response3disk,,5,-4,-4,1,0,0,rectangle,-4,-4,1,0,0,-4,-4,1,0,0,1,50,210,64,1,,,,,,,,
,,,,,,,,,,,,,FF,,,,,,,,6.268,,,,,,,,,,,,,,,,,,,,,,60fd760a74bf79dc673e156e,61036debd1e815722ce9f194,2021-07-30_13h13.07.357,Simcolourproject_2stim_asymm_v5,2020.2.10,MacIntel,60,61025ae37ef11b136ea224fe,,,,,,,,,2068,32,-93,1,0,0,response3disk,,4,-3,-6,1,0,0,rectangle,39,-70,1,0,0,-1,6,1,0,0,1,51,211,7,1,,response3disk_3,TRUE,4,2,"[227,242,66,9,264,137,104,212,93,191,253,58,212,280,36,200,323,106,283,29]",5.085,rectangle
,,,,,,,,,,,,,FF,,,,,,,,1.35,,,,,,,,,,,,,,,,,,,,,,60fd760a74bf79dc673e156e,61036debd1e815722ce9f194,2021-07-30_13h13.07.357,Simcolourproject_2stim_asymm_v5,2020.2.10,MacIntel,60,61025ae37ef11b136ea224fe,,,,,,,,,2186,69,-55,1,0,0,response3disk,,5,-16,-1,1,0,0,rectangle,-16,-1,1,0,0,-16,-1,1,0,0,1,52,212,148,1,,,,,,,,
,,,,,,,,,,,,,FF,,,,,,,,3.401,,,,,,,,,,,,,,,,,,,,,,60fd760a74bf79dc673e156e,61036debd1e815722ce9f194,2021-07-30_13h13.07.357,Simcolourproject_2stim_asymm_v5,2020.2.10,MacIntel,60,61025ae37ef11b136ea224fe,,,,,,,,,633,57,-39,1,0,0,response3disk,,5,-3,0,1,0,0,rectangle,-3,0,1,0,0,-3,0,1,0,0,1,53,213,132,1,,,,,,,,
,,,,,,,,,,,,,FF,,,,,,,,0.917,,,,,,,,,,,,,,,,,,,,,,60fd760a74bf79dc673e156e,61036debd1e815722ce9f194,2021-07-30_13h13.07.357,Simcolourproject_2stim_asymm_v5,2020.2.10,MacIntel,60,61025ae37ef11b136ea224fe,,,,,,,,,1371,-24,-69,1,0,0,response5disk,,3,-10,-2,1,0,0,rectangle,-10,-2,1,0,0,-10,-2,1,0,0,1,54,214,50,1,,,,,,,,
,,,,,,,,,,,,,FF,,,,,,,,0.799,,,,,,,,,,,,,,,,,,,,,,60fd760a74bf79dc673e156e,61036debd1e815722ce9f194,2021-07-30_13h13.07.357,Simcolourproject_2stim_asymm_v5,2020.2.10,MacIntel,60,61025ae37ef11b136ea224fe,,,,,,,,,1693,70,-35,1,0,0,response3disk,,5,7,-3,1,0,0,rectangle,7,-3,1,0,0,7,-3,1,0,0,1,55,215,4,1,,,,,,,,
,,,,,,,,,,,,,FF,,,,,,,,5.1,,,,,,,,,,,,,,,,,,,,,,60fd760a74bf79dc673e156e,61036debd1e815722ce9f194,2021-07-30_13h13.07.357,Simcolourproject_2stim_asymm_v5,2020.2.10,MacIntel,60,61025ae37ef11b136ea224fe,,,,,,,,,1738,39,-87,1,0,0,response3disk,,4,22,-16,1,0,0,rectangle,22,-16,1,0,0,22,-16,1,0,0,1,56,216,17,1,,,,,,,,
,,,,,,,,,,,,,FF,,,,,,,,1.066,,,,,,,,,,,,,,,,,,,,,,60fd760a74bf79dc673e156e,61036debd1e815722ce9f194,2021-07-30_13h13.07.357,Simcolourproject_2stim_asymm_v5,2020.2.10,MacIntel,60,61025ae37ef11b136ea224fe,,,,,,,,,2430,-37,-103,1,0,0,response5disk,,3,-21,-6,1,0,0,rectangle,-21,-6,1,0,0,-21,-6,1,0,0,1,57,217,80,1,,,,,,,,
,,,,,,,,,,,,,FF,,,,,,,,0.851,,,,,,,,,,,,,,,,,,,,,,60fd760a74bf79dc673e156e,61036debd1e815722ce9f194,2021-07-30_13h13.07.357,Simcolourproject_2stim_asymm_v5,2020.2.10,MacIntel,60,61025ae37ef11b136ea224fe,,,,,,,,,3778,-29,-79,1,0,0,response5disk,,3,-17,-7,1,0,0,rectangle,-17,-7,1,0,0,-17,-7,1,0,0,1,58,218,22,1,,,,,,,,
,,,,,,,,,,,,,FF,,,,,,,,1.134,,,,,,,,,,,,,,,,,,,,,,60fd760a74bf79dc673e156e,61036debd1e815722ce9f194,2021-07-30_13h13.07.357,Simcolourproject_2stim_asymm_v5,2020.2.10,MacIntel,60,61025ae37ef11b136ea224fe,,,,,,,,,1233,42,-63,1,0,0,response3disk,,4,16,-4,1,0,0,rectangle,16,-4,1,0,0,16,-4,1,0,0,1,59,219,44,1,,,,,,,,
,,,,,,,,,,,,,FF,,,,,,,,2.201,,,,,,,,,,,,,,,,,,,,,,60fd760a74bf79dc673e156e,61036debd1e815722ce9f194,2021-07-30_13h13.07.357,Simcolourproject_2stim_asymm_v5,2020.2.10,MacIntel,60,61025ae37ef11b136ea224fe,,,,,,,,,1735,-24,-68,1,0,0,response5disk,,3,-7,3,1,0,0,rectangle,-7,3,1,0,0,-7,3,1,0,0,1,60,220,150,1,,,,,,,,
,,,,,,,,,,,,,FF,,,,,,,,1.15,,,,,,,,,,,,,,,,,,,,,,60fd760a74bf79dc673e156e,61036debd1e815722ce9f194,2021-07-30_13h13.07.357,Simcolourproject_2stim_asymm_v5,2020.2.10,MacIntel,60,61025ae37ef11b136ea224fe,,,,,,,,,283,-39,-81,1,0,0,response5disk,,3,-7,12,1,0,0,rectangle,-7,12,1,0,0,-7,12,1,0,0,1,61,221,63,1,,,,,,,,
,,,,,,,,,,,,,FF,,,,,,,,1.683,,,,,,,,,,,,,,,,,,,,,,60fd760a74bf79dc673e156e,61036debd1e815722ce9f194,2021-07-30_13h13.07.357,Simcolourproject_2stim_asymm_v5,2020.2.10,MacIntel,60,61025ae37ef11b136ea224fe,,,,,,,,,1703,42,-75,1,0,0,response3disk,,4,16,-8,1,0,0,rectangle,16,-8,1,0,0,16,-8,1,0,0,1,62,222,116,1,,,,,,,,
,,,,,,,,,,,,,FF,,,,,,,,1.816,,,,,,,,,,,,,,,,,,,,,,60fd760a74bf79dc673e156e,61036debd1e815722ce9f194,2021-07-30_13h13.07.357,Simcolourproject_2stim_asymm_v5,2020.2.10,MacIntel,60,61025ae37ef11b136ea224fe,,,,,,,,,1694,-59,-68,1,0,0,response5disk,,3,-14,2,1,0,0,rectangle,-14,2,1,0,0,-14,2,1,0,0,1,63,223,117,1,,,,,,,,
,,,,,,,,,,,,,FF,,,,,,,,3.784,,,,,,,,,,,,,,,,,,,,,,60fd760a74bf79dc673e156e,61036debd1e815722ce9f194,2021-07-30_13h13.07.357,Simcolourproject_2stim_asymm_v5,2020.2.10,MacIntel,60,61025ae37ef11b136ea224fe,,,,,,,,,751,-51,-92,1,0,0,response5disk,,3,20,-3,1,0,0,rectangle,20,-3,1,0,0,20,-3,1,0,0,1,64,224,56,1,,,,,,,,
,,,,,,,,,,,,,FF,,,,,,,,2.981,,,,,,,,,,,,,,,,,,,,,,60fd760a74bf79dc673e156e,61036debd1e815722ce9f194,2021-07-30_13h13.07.357,Simcolourproject_2stim_asymm_v5,2020.2.10,MacIntel,60,61025ae37ef11b136ea224fe,,,,,,,,,733,26,-76,1,0,0,response3disk,,4,16,-1,1,0,0,rectangle,16,-1,1,0,0,16,-1,1,0,0,1,65,225,118,1,,,,,,,,
,,,,,,,,,,,,,FF,,,,,,,,1.216,,,,,,,,,,,,,,,,,,,,,,60fd760a74bf79dc673e156e,61036debd1e815722ce9f194,2021-07-30_13h13.07.357,Simcolourproject_2stim_asymm_v5,2020.2.10,MacIntel,60,61025ae37ef11b136ea224fe,,,,,,,,,909,38,59,1,0,0,response1disk,,7,4,-18,1,0,0,rectangle,-24,-80,1,0,0,-10,-9,1,0,0,1,66,226,65,1,,response5disk_3,TRUE,3,0,"[227,242,66,9,264,137,104,212,93,191,253,58,212,280,36,200,323,106,283,29]",4.534,rectangle
,,,,,,,,,,,,,FF,,,,,,,,0.9,,,,,,,,,,,,,,,,,,,,,,60fd760a74bf79dc673e156e,61036debd1e815722ce9f194,2021-07-30_13h13.07.357,Simcolourproject_2stim_asymm_v5,2020.2.10,MacIntel,60,61025ae37ef11b136ea224fe,,,,,,,,,2369,-32,-81,1,0,0,response5disk,,3,5,17,1,0,0,rectangle,5,17,1,0,0,5,17,1,0,0,1,67,227,143,1,,,,,,,,
,,,,,,,,,,,,,FF,,,,,,,,5.685,,,,,,,,,,,,,,,,,,,,,,60fd760a74bf79dc673e156e,61036debd1e815722ce9f194,2021-07-30_13h13.07.357,Simcolourproject_2stim_asymm_v5,2020.2.10,MacIntel,60,61025ae37ef11b136ea224fe,,,,,,,,,1717,39,-79,1,0,0,response3disk,,4,-25,8,1,0,0,rectangle,-25,8,1,0,0,-25,8,1,0,0,1,68,228,32,1,,,,,,,,
,,,,,,,,,,,,,FF,,,,,,,,10.317,,,,,,,,,,,,,,,,,,,,,,60fd760a74bf79dc673e156e,61036debd1e815722ce9f194,2021-07-30_13h13.07.357,Simcolourproject_2stim_asymm_v5,2020.2.10,MacIntel,60,61025ae37ef11b136ea224fe,,,,,,,,,2484,80,-107,1,0,0,response3disk,,4,-10,-5,1,0,0,rectangle,-10,-5,1,0,0,-10,-5,1,0,0,1,69,229,93,1,,,,,,,,
,,,,,,,,,,,,,FF,,,,,,,,0.667,,,,,,,,,,,,,,,,,,,,,,60fd760a74bf79dc673e156e,61036debd1e815722ce9f194,2021-07-30_13h13.07.357,Simcolourproject_2stim_asymm_v5,2020.2.10,MacIntel,60,61025ae37ef11b136ea224fe,,,,,,,,,1784,-50,-67,1,0,0,response5disk,,3,-10,10,1,0,0,rectangle,-10,10,1,0,0,-10,10,1,0,0,1,70,230,51,1,,,,,,,,
,,,,,,,,,,,,,FF,,,,,,,,3.184,,,,,,,,,,,,,,,,,,,,,,60fd760a74bf79dc673e156e,61036debd1e815722ce9f194,2021-07-30_13h13.07.357,Simcolourproject_2stim_asymm_v5,2020.2.10,MacIntel,60,61025ae37ef11b136ea224fe,,,,,,,,,3795,44,-103,1,0,0,response3disk,,4,-4,8,1,0,0,rectangle,-4,8,1,0,0,-4,8,1,0,0,1,71,231,120,1,,,,,,,,
,,,,,,,,,,,,,FF,,,,,,,,4.817,,,,,,,,,,,,,,,,,,,,,,60fd760a74bf79dc673e156e,61036debd1e815722ce9f194,2021-07-30_13h13.07.357,Simcolourproject_2stim_asymm_v5,2020.2.10,MacIntel,60,61025ae37ef11b136ea224fe,,,,,,,,,1725,79,-55,1,0,0,response3disk,,5,8,2,1,0,0,rectangle,8,2,1,0,0,8,2,1,0,0,1,72,232,127,1,,,,,,,,
,,,,,,,,,,,,,FF,,,,,,,,4,,,,,,,,,,,,,,,,,,,,,,60fd760a74bf79dc673e156e,61036debd1e815722ce9f194,2021-07-30_13h13.07.357,Simcolourproject_2stim_asymm_v5,2020.2.10,MacIntel,60,61025ae37ef11b136ea224fe,,,,,,,,,2278,-34,-96,1,0,0,response5disk,,3,-3,7,1,0,0,rectangle,-3,7,1,0,0,-3,7,1,0,0,1,73,233,141,1,,,,,,,,
,,,,,,,,,,,,,FF,,,,,,,,2.6,,,,,,,,,,,,,,,,,,,,,,60fd760a74bf79dc673e156e,61036debd1e815722ce9f194,2021-07-30_13h13.07.357,Simcolourproject_2stim_asymm_v5,2020.2.10,MacIntel,60,61025ae37ef11b136ea224fe,,,,,,,,,1056,22,52,1,0,0,response1disk,,7,-13,7,1,0,0,rectangle,-13,7,1,0,0,-13,7,1,0,0,1,74,234,142,1,,,,,,,,
,,,,,,,,,,,,,FF,,,,,,,,1.434,,,,,,,,,,,,,,,,,,,,,,60fd760a74bf79dc673e156e,61036debd1e815722ce9f194,2021-07-30_13h13.07.357,Simcolourproject_2stim_asymm_v5,2020.2.10,MacIntel,60,61025ae37ef11b136ea224fe,,,,,,,,,3573,-44,-103,1,0,0,response5disk,,3,-9,-1,1,0,0,rectangle,-9,-1,1,0,0,-9,-1,1,0,0,1,75,235,57,1,,,,,,,,
,,,,,,,,,,,,,FF,,,,,,,,3.968,,,,,,,,,,,,,,,,,,,,,,60fd760a74bf79dc673e156e,61036debd1e815722ce9f194,2021-07-30_13h13.07.357,Simcolourproject_2stim_asymm_v5,2020.2.10,MacIntel,60,61025ae37ef11b136ea224fe,,,,,,,,,1687,37,-74,1,0,0,response3disk,,4,22,0,1,0,0,rectangle,22,0,1,0,0,22,0,1,0,0,1,76,236,77,1,,,,,,,,
,,,,,,,,,,,,,FF,,,,,,,,1.883,,,,,,,,,,,,,,,,,,,,,,60fd760a74bf79dc673e156e,61036debd1e815722ce9f194,2021-07-30_13h13.07.357,Simcolourproject_2stim_asymm_v5,2020.2.10,MacIntel,60,61025ae37ef11b136ea224fe,,,,,,,,,3700,54,37,1,0,0,response1disk,,6,0,7,1,0,0,rectangle,0,7,1,0,0,0,7,1,0,0,1,77,237,154,1,,,,,,,,
,,,,,,,,,,,,,FF,,,,,,,,1.817,,,,,,,,,,,,,,,,,,,,,,60fd760a74bf79dc673e156e,61036debd1e815722ce9f194,2021-07-30_13h13.07.357,Simcolourproject_2stim_asymm_v5,2020.2.10,MacIntel,60,61025ae37ef11b136ea224fe,,,,,,,,,2090,50,-34,1,0,0,response3disk,,5,5,2,1,0,0,rectangle,5,2,1,0,0,5,2,1,0,0,1,78,238,16,1,,,,,,,,
,,,,,,,,,,,,,FF,,,,,,,,0.668,,,,,,,,,,,,,,,,,,,,,,60fd760a74bf79dc673e156e,61036debd1e815722ce9f194,2021-07-30_13h13.07.357,Simcolourproject_2stim_asymm_v5,2020.2.10,MacIntel,60,61025ae37ef11b136ea224fe,,,,,,,,,3178,48,-54,1,0,0,response3disk,,4,14,4,1,0,0,rectangle,14,4,1,0,0,14,4,1,0,0,1,79,239,74,1,,,,,,,,
,,,,,,,,,,,,,FF,,,,,,,,0.55,,,,,,,,,,,,,,,,,,,,,,60fd760a74bf79dc673e156e,61036debd1e815722ce9f194,2021-07-30_13h13.07.357,Simcolourproject_2stim_asymm_v5,2020.2.10,MacIntel,60,61025ae37ef11b136ea224fe,,,,,,,,,532,-28,-46,1,0,0,response5disk,,3,-20,9,1,0,0,rectangle,-20,9,1,0,0,-20,9,1,0,0,1,80,240,42,1,,,,,,,,
,,,,,,,,,,,,,FF,,,,,,,,0.867,,,,,,,,,,,,,,,,,,,,,,60fd760a74bf79dc673e156e,61036debd1e815722ce9f194,2021-07-30_13h13.07.357,Simcolourproject_2stim_asymm_v5,2020.2.10,MacIntel,60,61025ae37ef11b136ea224fe,,,,,,,,,2209,71,-17,1,0,0,response3disk,,5,24,12,1,0,0,rectangle,-26,-53,1,0,0,-8,-1,1,0,0,1,81,241,47,1,,response5disk_3,TRUE,3,6,"[227,242,66,9,264,137,104,212,93,191,253,58,212,280,36,200,323,106,283,29]",1.734,rectangle
,,,,,,,,,,,,,FF,,,,,,,,0.451,,,,,,,,,,,,,,,,,,,,,,60fd760a74bf79dc673e156e,61036debd1e815722ce9f194,2021-07-30_13h13.07.357,Simcolourproject_2stim_asymm_v5,2020.2.10,MacIntel,60,61025ae37ef11b136ea224fe,,,,,,,,,4121,-59,-81,1,0,0,response5disk,,3,-15,-9,1,0,0,rectangle,-15,-9,1,0,0,-15,-9,1,0,0,1,82,242,29,1,,,,,,,,
,,,,,,,,,,,,,FF,,,,,,,,0.883,,,,,,,,,,,,,,,,,,,,,,60fd760a74bf79dc673e156e,61036debd1e815722ce9f194,2021-07-30_13h13.07.357,Simcolourproject_2stim_asymm_v5,2020.2.10,MacIntel,60,61025ae37ef11b136ea224fe,,,,,,,,,1358,62,-43,1,0,0,response3disk,,5,-16,11,1,0,0,rectangle,-16,11,1,0,0,-16,11,1,0,0,1,83,243,110,1,,,,,,,,
,,,,,,,,,,,,,FF,,,,,,,,0.851,,,,,,,,,,,,,,,,,,,,,,60fd760a74bf79dc673e156e,61036debd1e815722ce9f194,2021-07-30_13h13.07.357,Simcolourproject_2stim_asymm_v5,2020.2.10,MacIntel,60,61025ae37ef11b136ea224fe,,,,,,,,,3922,-28,-36,1,0,0,response5disk,,3,-2,0,1,0,0,rectangle,-2,0,1,0,0,-2,0,1,0,0,1,84,244,105,1,,,,,,,,
,,,,,,,,,,,,,FF,,,,,,,,1.184,,,,,,,,,,,,,,,,,,,,,,60fd760a74bf79dc673e156e,61036debd1e815722ce9f194,2021-07-30_13h13.07.357,Simcolourproject_2stim_asymm_v5,2020.2.10,MacIntel,60,61025ae37ef11b136ea224fe,,,,,,,,,348,-72,23,1,0,0,response7disk,,1,-11,-7,1,0,0,rectangle,-11,-7,1,0,0,-11,-7,1,0,0,1,85,245,147,1,,,,,,,,
,,,,,,,,,,,,,FF,,,,,,,,0.882,,,,,,,,,,,,,,,,,,,,,,60fd760a74bf79dc673e156e,61036debd1e815722ce9f194,2021-07-30_13h13.07.357,Simcolourproject_2stim_asymm_v5,2020.2.10,MacIntel,60,61025ae37ef11b136ea224fe,,,,,,,,,361,35,-69,1,0,0,response3disk,,4,31,-16,1,0,0,rectangle,31,-16,1,0,0,31,-16,1,0,0,1,86,246,133,1,,,,,,,,
,,,,,,,,,,,,,FF,,,,,,,,1.268,,,,,,,,,,,,,,,,,,,,,,60fd760a74bf79dc673e156e,61036debd1e815722ce9f194,2021-07-30_13h13.07.357,Simcolourproject_2stim_asymm_v5,2020.2.10,MacIntel,60,61025ae37ef11b136ea224fe,,,,,,,,,1036,-33,-64,1,0,0,response5disk,,3,-14,1,1,0,0,rectangle,-14,1,1,0,0,-14,1,1,0,0,1,87,247,41,1,,,,,,,,
,,,,,,,,,,,,,FF,,,,,,,,0.834,,,,,,,,,,,,,,,,,,,,,,60fd760a74bf79dc673e156e,61036debd1e815722ce9f194,2021-07-30_13h13.07.357,Simcolourproject_2stim_asymm_v5,2020.2.10,MacIntel,60,61025ae37ef11b136ea224fe,,,,,,,,,671,34,92,1,0,0,response1disk,,7,10,2,1,0,0,rectangle,10,2,1,0,0,10,2,1,0,0,1,88,248,30,1,,,,,,,,
,,,,,,,,,,,,,FF,,,,,,,,0.4,,,,,,,,,,,,,,,,,,,,,,60fd760a74bf79dc673e156e,61036debd1e815722ce9f194,2021-07-30_13h13.07.357,Simcolourproject_2stim_asymm_v5,2020.2.10,MacIntel,60,61025ae37ef11b136ea224fe,,,,,,,,,2623,38,71,1,0,0,response1disk,,7,33,9,1,0,0,rectangle,33,9,1,0,0,33,9,1,0,0,1,89,249,103,1,,,,,,,,
,,,,,,,,,,,,,FF,,,,,,,,1.999,,,,,,,,,,,,,,,,,,,,,,60fd760a74bf79dc673e156e,61036debd1e815722ce9f194,2021-07-30_13h13.07.357,Simcolourproject_2stim_asymm_v5,2020.2.10,MacIntel,60,61025ae37ef11b136ea224fe,,,,,,,,,3664,63,41,1,0,0,response1disk,,6,23,8,1,0,0,rectangle,23,8,1,0,0,23,8,1,0,0,1,90,250,149,1,,,,,,,,
,,,,,,,,,,,,,FF,,,,,,,,0.917,,,,,,,,,,,,,,,,,,,,,,60fd760a74bf79dc673e156e,61036debd1e815722ce9f194,2021-07-30_13h13.07.357,Simcolourproject_2stim_asymm_v5,2020.2.10,MacIntel,60,61025ae37ef11b136ea224fe,,,,,,,,,1767,-20,-40,1,0,0,response5disk,,3,-11,8,1,0,0,rectangle,-11,8,1,0,0,-11,8,1,0,0,1,91,251,95,1,,,,,,,,
,,,,,,,,,,,,,FF,,,,,,,,0.9,,,,,,,,,,,,,,,,,,,,,,60fd760a74bf79dc673e156e,61036debd1e815722ce9f194,2021-07-30_13h13.07.357,Simcolourproject_2stim_asymm_v5,2020.2.10,MacIntel,60,61025ae37ef11b136ea224fe,,,,,,,,,2653,66,82,1,0,0,response1disk,,7,20,-2,1,0,0,rectangle,31,-44,1,0,0,22,3,1,0,0,1,92,252,88,1,,response3disk_3,TRUE,4,7,"[227,242,66,9,264,137,104,212,93,191,253,58,212,280,36,200,323,106,283,29]",0.7,rectangle
,,,,,,,,,,,,,FF,,,,,,,,1.783,,,,,,,,,,,,,,,,,,,,,,60fd760a74bf79dc673e156e,61036debd1e815722ce9f194,2021-07-30_13h13.07.357,Simcolourproject_2stim_asymm_v5,2020.2.10,MacIntel,60,61025ae37ef11b136ea224fe,,,,,,,,,683,-20,-45,1,0,0,response5disk,,3,15,2,1,0,0,rectangle,15,2,1,0,0,15,2,1,0,0,1,93,253,91,1,,,,,,,,
,,,,,,,,,,,,,FF,,,,,,,,0.984,,,,,,,,,,,,,,,,,,,,,,60fd760a74bf79dc673e156e,61036debd1e815722ce9f194,2021-07-30_13h13.07.357,Simcolourproject_2stim_asymm_v5,2020.2.10,MacIntel,60,61025ae37ef11b136ea224fe,,,,,,,,,328,94,24,1,0,0,response1disk,,6,1,3,1,0,0,rectangle,1,3,1,0,0,1,3,1,0,0,1,94,254,1,1,,,,,,,,
,,,,,,,,,,,,,FF,,,,,,,,0.751,,,,,,,,,,,,,,,,,,,,,,60fd760a74bf79dc673e156e,61036debd1e815722ce9f194,2021-07-30_13h13.07.357,Simcolourproject_2stim_asymm_v5,2020.2.10,MacIntel,60,61025ae37ef11b136ea224fe,,,,,,,,,2965,68,98,1,0,0,response1disk,,7,25,-1,1,0,0,rectangle,25,-1,1,0,0,25,-1,1,0,0,1,95,255,124,1,,,,,,,,
,,,,,,,,,,,,,FF,,,,,,,,1.501,,,,,,,,,,,,,,,,,,,,,,60fd760a74bf79dc673e156e,61036debd1e815722ce9f194,2021-07-30_13h13.07.357,Simcolourproject_2stim_asymm_v5,2020.2.10,MacIntel,60,61025ae37ef11b136ea224fe,,,,,,,,,3837,-22,-98,1,0,0,response5disk,,3,3,3,1,0,0,rectangle,3,3,1,0,0,3,3,1,0,0,1,96,256,53,1,,,,,,,,
,,,,,,,,,,,,,FF,,,,,,,,5.284,,,,,,,,,,,,,,,,,,,,,,60fd760a74bf79dc673e156e,61036debd1e815722ce9f194,2021-07-30_13h13.07.357,Simcolourproject_2stim_asymm_v5,2020.2.10,MacIntel,60,61025ae37ef11b136ea224fe,,,,,,,,,2519,-18,-62,1,0,0,response5disk,,3,9,-12,1,0,0,rectangle,9,-12,1,0,0,9,-12,1,0,0,1,97,257,145,1,,,,,,,,
,,,,,,,,,,,,,FF,,,,,,,,1.084,,,,,,,,,,,,,,,,,,,,,,60fd760a74bf79dc673e156e,61036debd1e815722ce9f194,2021-07-30_13h13.07.357,Simcolourproject_2stim_asymm_v5,2020.2.10,MacIntel,60,61025ae37ef11b136ea224fe,,,,,,,,,4305,-80,40,1,0,0,response7disk,,1,-31,5,1,0,0,rectangle,-31,5,1,0,0,-31,5,1,0,0,1,98,258,52,1,,,,,,,,
,,,,,,,,,,,,,FF,,,,,,,,0.817,,,,,,,,,,,,,,,,,,,,,,60fd760a74bf79dc673e156e,61036debd1e815722ce9f194,2021-07-30_13h13.07.357,Simcolourproject_2stim_asymm_v5,2020.2.10,MacIntel,60,61025ae37ef11b136ea224fe,,,,,,,,,2903,51,-58,1,0,0,response3disk,,4,3,-4,1,0,0,rectangle,3,-4,1,0,0,3,-4,1,0,0,1,99,259,112,1,,,,,,,,
,,,,,,,,,,,,,FF,,,,,,,,1.984,,,,,,,,,,,,,,,,,,,,,,60fd760a74bf79dc673e156e,61036debd1e815722ce9f194,2021-07-30_13h13.07.357,Simcolourproject_2stim_asymm_v5,2020.2.10,MacIntel,60,61025ae37ef11b136ea224fe,,,,,,,,,3771,30,-90,1,0,0,response3disk,,4,28,0,1,0,0,rectangle,28,0,1,0,0,28,0,1,0,0,1,100,260,59,1,,,,,,,,
,,,,,,,,,,,,,FF,,,,,,,,50.487,,,,,,,,,,,,,,,,,,,,,,60fd760a74bf79dc673e156e,61036debd1e815722ce9f194,2021-07-30_13h13.07.357,Simcolourproject_2stim_asymm_v5,2020.2.10,MacIntel,60,61025ae37ef11b136ea224fe,,,,,,,,,3849,77,-69,1,0,0,response3disk,,5,-7,9,1,0,0,rectangle,-7,9,1,0,0,-7,9,1,0,0,1,101,261,60,1,,,,,,,,
,,,,,,,,,,,,,FF,,,,,,,,0.799,,,,,,,,,,,,,,,,,,,,,,60fd760a74bf79dc673e156e,61036debd1e815722ce9f194,2021-07-30_13h13.07.357,Simcolourproject_2stim_asymm_v5,2020.2.10,MacIntel,60,61025ae37ef11b136ea224fe,,,,,,,,,676,39,-51,1,0,0,response3disk,,4,28,5,1,0,0,rectangle,28,5,1,0,0,28,5,1,0,0,1,102,262,129,1,,,,,,,,
,,,,,,,,,,,,,FF,,,,,,,,0.567,,,,,,,,,,,,,,,,,,,,,,60fd760a74bf79dc673e156e,61036debd1e815722ce9f194,2021-07-30_13h13.07.357,Simcolourproject_2stim_asymm_v5,2020.2.10,MacIntel,60,61025ae37ef11b136ea224fe,,,,,,,,,3134,-32,-70,1,0,0,response5disk,,3,-19,-18,1,0,0,rectangle,61,-31,1,0,0,-8,0,1,0,0,1,103,263,98,1,,response3disk_3,TRUE,5,7,"[227,242,66,9,264,137,104,212,93,191,253,58,212,280,36,200,323,106,283,29]",2.316,rectangle
,,,,,,,,,,,,,FF,,,,,,,,0.55,,,,,,,,,,,,,,,,,,,,,,60fd760a74bf79dc673e156e,61036debd1e815722ce9f194,2021-07-30_13h13.07.357,Simcolourproject_2stim_asymm_v5,2020.2.10,MacIntel,60,61025ae37ef11b136ea224fe,,,,,,,,,1937,-31,-60,1,0,0,response5disk,,3,-20,-18,1,0,0,rectangle,-20,-18,1,0,0,-20,-18,1,0,0,1,104,264,20,1,,,,,,,,
,,,,,,,,,,,,,FF,,,,,,,,2.516,,,,,,,,,,,,,,,,,,,,,,60fd760a74bf79dc673e156e,61036debd1e815722ce9f194,2021-07-30_13h13.07.357,Simcolourproject_2stim_asymm_v5,2020.2.10,MacIntel,60,61025ae37ef11b136ea224fe,,,,,,,,,2428,-28,-69,1,0,0,response5disk,,3,-7,-7,1,0,0,rectangle,-7,-7,1,0,0,-7,-7,1,0,0,1,105,265,49,1,,,,,,,,
,,,,,,,,,,,,,FF,,,,,,,,1.216,,,,,,,,,,,,,,,,,,,,,,60fd760a74bf79dc673e156e,61036debd1e815722ce9f194,2021-07-30_13h13.07.357,Simcolourproject_2stim_asymm_v5,2020.2.10,MacIntel,60,61025ae37ef11b136ea224fe,,,,,,,,,1928,-70,35,1,0,0,response7disk,,1,-5,3,1,0,0,rectangle,-5,3,1,0,0,-5,3,1,0,0,1,106,266,107,1,,,,,,,,
,,,,,,,,,,,,,FF,,,,,,,,0.799,,,,,,,,,,,,,,,,,,,,,,60fd760a74bf79dc673e156e,61036debd1e815722ce9f194,2021-07-30_13h13.07.357,Simcolourproject_2stim_asymm_v5,2020.2.10,MacIntel,60,61025ae37ef11b136ea224fe,,,,,,,,,3975,-24,-86,1,0,0,response5disk,,3,4,8,1,0,0,rectangle,4,8,1,0,0,4,8,1,0,0,1,107,267,58,1,,,,,,,,
,,,,,,,,,,,,,FF,,,,,,,,4.4,,,,,,,,,,,,,,,,,,,,,,60fd760a74bf79dc673e156e,61036debd1e815722ce9f194,2021-07-30_13h13.07.357,Simcolourproject_2stim_asymm_v5,2020.2.10,MacIntel,60,61025ae37ef11b136ea224fe,,,,,,,,,3467,-48,-70,1,0,0,response5disk,,3,7,-11,1,0,0,rectangle,7,-11,1,0,0,7,-11,1,0,0,1,108,268,90,1,,,,,,,,
,,,,,,,,,,,,,FF,,,,,,,,3.483,,,,,,,,,,,,,,,,,,,,,,60fd760a74bf79dc673e156e,61036debd1e815722ce9f194,2021-07-30_13h13.07.357,Simcolourproject_2stim_asymm_v5,2020.2.10,MacIntel,60,61025ae37ef11b136ea224fe,,,,,,,,,3957,55,-100,1,0,0,response3disk,,4,21,-6,1,0,0,rectangle,21,-6,1,0,0,21,-6,1,0,0,1,109,269,100,1,,,,,,,,
,,,,,,,,,,,,,FF,,,,,,,,2.067,,,,,,,,,,,,,,,,,,,,,,60fd760a74bf79dc673e156e,61036debd1e815722ce9f194,2021-07-30_13h13.07.357,Simcolourproject_2stim_asymm_v5,2020.2.10,MacIntel,60,61025ae37ef11b136ea224fe,,,,,,,,,4108,-60,-87,1,0,0,response5disk,,3,-19,7,1,0,0,rectangle,-19,7,1,0,0,-19,7,1,0,0,1,110,270,67,1,,,,,,,,
,,,,,,,,,,,,,FF,,,,,,,,5.033,,,,,,,,,,,,,,,,,,,,,,60fd760a74bf79dc673e156e,61036debd1e815722ce9f194,2021-07-30_13h13.07.357,Simcolourproject_2stim_asymm_v5,2020.2.10,MacIntel,60,61025ae37ef11b136ea224fe,,,,,,,,,1410,-38,-116,1,0,0,response5disk,,3,33,11,1,0,0,rectangle,33,11,1,0,0,33,11,1,0,0,1,111,271,87,1,,,,,,,,
,,,,,,,,,,,,,FF,,,,,,,,2.333,,,,,,,,,,,,,,,,,,,,,,60fd760a74bf79dc673e156e,61036debd1e815722ce9f194,2021-07-30_13h13.07.357,Simcolourproject_2stim_asymm_v5,2020.2.10,MacIntel,60,61025ae37ef11b136ea224fe,,,,,,,,,2554,25,-77,1,0,0,response3disk,,4,23,-6,1,0,0,rectangle,23,-6,1,0,0,23,-6,1,0,0,1,112,272,6,1,,,,,,,,
,,,,,,,,,,,,,FF,,,,,,,,1.166,,,,,,,,,,,,,,,,,,,,,,60fd760a74bf79dc673e156e,61036debd1e815722ce9f194,2021-07-30_13h13.07.357,Simcolourproject_2stim_asymm_v5,2020.2.10,MacIntel,60,61025ae37ef11b136ea224fe,,,,,,,,,655,58,37,1,0,0,response1disk,,6,15,5,1,0,0,rectangle,15,5,1,0,0,15,5,1,0,0,1,113,273,136,1,,,,,,,,
,,,,,,,,,,,,,FF,,,,,,,,2.451,,,,,,,,,,,,,,,,,,,,,,60fd760a74bf79dc673e156e,61036debd1e815722ce9f194,2021-07-30_13h13.07.357,Simcolourproject_2stim_asymm_v5,2020.2.10,MacIntel,60,61025ae37ef11b136ea224fe,,,,,,,,,1085,-25,-80,1,0,0,response5disk,,3,15,6,1,0,0,rectangle,15,6,1,0,0,15,6,1,0,0,1,114,274,158,1,,,,,,,,
,,,,,,,,,,,,,FF,,,,,,,,0.749,,,,,,,,,,,,,,,,,,,,,,60fd760a74bf79dc673e156e,61036debd1e815722ce9f194,2021-07-30_13h13.07.357,Simcolourproject_2stim_asymm_v5,2020.2.10,MacIntel,60,61025ae37ef11b136ea224fe,,,,,,,,,2391,41,-62,1,0,0,response3disk,,4,22,-11,1,0,0,rectangle,22,-11,1,0,0,22,-11,1,0,0,1,115,275,140,1,,,,,,,,
,,,,,,,,,,,,,FF,,,,,,,,0.8,,,,,,,,,,,,,,,,,,,,,,60fd760a74bf79dc673e156e,61036debd1e815722ce9f194,2021-07-30_13h13.07.357,Simcolourproject_2stim_asymm_v5,2020.2.10,MacIntel,60,61025ae37ef11b136ea224fe,,,,,,,,,1833,42,-18,1,0,0,response3disk,,5,27,-5,1,0,0,rectangle,27,-5,1,0,0,27,-5,1,0,0,1,116,276,27,1,,,,,,,,
,,,,,,,,,,,,,FF,,,,,,,,1.067,,,,,,,,,,,,,,,,,,,,,,60fd760a74bf79dc673e156e,61036debd1e815722ce9f194,2021-07-30_13h13.07.357,Simcolourproject_2stim_asymm_v5,2020.2.10,MacIntel,60,61025ae37ef11b136ea224fe,,,,,,,,,868,37,-64,1,0,0,response3disk,,4,22,3,1,0,0,rectangle,22,3,1,0,0,22,3,1,0,0,1,117,277,12,1,,,,,,,,
,,,,,,,,,,,,,FF,,,,,,,,1.083,,,,,,,,,,,,,,,,,,,,,,60fd760a74bf79dc673e156e,61036debd1e815722ce9f194,2021-07-30_13h13.07.357,Simcolourproject_2stim_asymm_v5,2020.2.10,MacIntel,60,61025ae37ef11b136ea224fe,,,,,,,,,3032,29,91,1,0,0,response1disk,,7,17,3,1,0,0,rectangle,17,3,1,0,0,17,3,1,0,0,1,118,278,34,1,,,,,,,,
,,,,,,,,,,,,,FF,,,,,,,,0.917,,,,,,,,,,,,,,,,,,,,,,60fd760a74bf79dc673e156e,61036debd1e815722ce9f194,2021-07-30_13h13.07.357,Simcolourproject_2stim_asymm_v5,2020.2.10,MacIntel,60,61025ae37ef11b136ea224fe,,,,,,,,,2899,-17,-85,1,0,0,response5disk,,3,0,3,1,0,0,rectangle,50,-36,1,0,0,30,-18,1,0,0,1,119,279,2,1,,response3disk_3,TRUE,5,2,"[227,242,66,9,264,137,104,212,93,191,253,58,212,280,36,200,323,106,283,29]",2.05,rectangle
,,,,,,,,,,,,,FF,,,,,,,,0.617,,,,,,,,,,,,,,,,,,,,,,60fd760a74bf79dc673e156e,61036debd1e815722ce9f194,2021-07-30_13h13.07.357,Simcolourproject_2stim_asymm_v5,2020.2.10,MacIntel,60,61025ae37ef11b136ea224fe,,,,,,,,,1213,-25,-87,1,0,0,response5disk,,3,-19,9,1,0,0,rectangle,-19,9,1,0,0,-19,9,1,0,0,1,120,280,75,1,,,,,,,,
,,,,,,,,,,,,,FF,,,,,,,,1.333,,,,,,,,,,,,,,,,,,,,,,60fd760a74bf79dc673e156e,61036debd1e815722ce9f194,2021-07-30_13h13.07.357,Simcolourproject_2stim_asymm_v5,2020.2.10,MacIntel,60,61025ae37ef11b136ea224fe,,,,,,,,,2910,27,-77,1,0,0,response3disk,,4,13,-2,1,0,0,rectangle,13,-2,1,0,0,13,-2,1,0,0,1,121,281,9,1,,,,,,,,
,,,,,,,,,,,,,FF,,,,,,,,4.55,,,,,,,,,,,,,,,,,,,,,,60fd760a74bf79dc673e156e,61036debd1e815722ce9f194,2021-07-30_13h13.07.357,Simcolourproject_2stim_asymm_v5,2020.2.10,MacIntel,60,61025ae37ef11b136ea224fe,,,,,,,,,445,56,-92,1,0,0,response3disk,,4,13,-2,1,0,0,rectangle,-91,-55,1,0,0,-19,6,1,0,0,1,122,282,113,1,,response5disk_3,TRUE,2,2,"[227,242,66,9,264,137,104,212,93,191,253,58,212,280,36,200,323,106,283,29]",2.149,rectangle
,,,,,,,,,,,,,FF,,,,,,,,1.734,,,,,,,,,,,,,,,,,,,,,,60fd760a74bf79dc673e156e,61036debd1e815722ce9f194,2021-07-30_13h13.07.357,Simcolourproject_2stim_asymm_v5,2020.2.10,MacIntel,60,61025ae37ef11b136ea224fe,,,,,,,,,215,35,-47,1,0,0,response3disk,,4,33,-8,1,0,0,rectangle,33,-8,1,0,0,33,-8,1,0,0,1,123,283,123,1,,,,,,,,
,,,,,,,,,,,,,FF,,,,,,,,0.717,,,,,,,,,,,,,,,,,,,,,,60fd760a74bf79dc673e156e,61036debd1e815722ce9f194,2021-07-30_13h13.07.357,Simcolourproject_2stim_asymm_v5,2020.2.10,MacIntel,60,61025ae37ef11b136ea224fe,,,,,,,,,2197,46,53,1,0,0,response1disk,,7,27,4,1,0,0,rectangle,27,4,1,0,0,27,4,1,0,0,1,124,284,157,1,,,,,,,,
,,,,,,,,,,,,,FF,,,,,,,,0.466,,,,,,,,,,,,,,,,,,,,,,60fd760a74bf79dc673e156e,61036debd1e815722ce9f194,2021-07-30_13h13.07.357,Simcolourproject_2stim_asymm_v5,2020.2.10,MacIntel,60,61025ae37ef11b136ea224fe,,,,,,,,,4018,16,90,1,0,0,response1disk,,7,-5,-6,1,0,0,rectangle,-5,-6,1,0,0,-5,-6,1,0,0,1,125,285,3,1,,,,,,,,
,,,,,,,,,,,,,FF,,,,,,,,3.185,,,,,,,,,,,,,,,,,,,,,,60fd760a74bf79dc673e156e,61036debd1e815722ce9f194,2021-07-30_13h13.07.357,Simcolourproject_2stim_asymm_v5,2020.2.10,MacIntel,60,61025ae37ef11b136ea224fe,,,,,,,,,991,46,28,1,0,0,response1disk,,6,-2,-6,1,0,0,rectangle,-2,-6,1,0,0,-2,-6,1,0,0,1,126,286,68,1,,,,,,,,
,,,,,,,,,,,,,FF,,,,,,,,1,,,,,,,,,,,,,,,,,,,,,,60fd760a74bf79dc673e156e,61036debd1e815722ce9f194,2021-07-30_13h13.07.357,Simcolourproject_2stim_asymm_v5,2020.2.10,MacIntel,60,61025ae37ef11b136ea224fe,,,,,,,,,413,43,-36,1,0,0,response3disk,,5,14,-3,1,0,0,rectangle,14,-3,1,0,0,14,-3,1,0,0,1,127,287,89,1,,,,,,,,
,,,,,,,,,,,,,FF,,,,,,,,0.683,,,,,,,,,,,,,,,,,,,,,,60fd760a74bf79dc673e156e,61036debd1e815722ce9f194,2021-07-30_13h13.07.357,Simcolourproject_2stim_asymm_v5,2020.2.10,MacIntel,60,61025ae37ef11b136ea224fe,,,,,,,,,1637,31,50,1,0,0,response1disk,,7,25,-4,1,0,0,rectangle,25,-4,1,0,0,25,-4,1,0,0,1,128,288,108,1,,,,,,,,
,,,,,,,,,,,,,FF,,,,,,,,0.782,,,,,,,,,,,,,,,,,,,,,,60fd760a74bf79dc673e156e,61036debd1e815722ce9f194,2021-07-30_13h13.07.357,Simcolourproject_2stim_asymm_v5,2020.2.10,MacIntel,60,61025ae37ef11b136ea224fe,,,,,,,,,537,36,43,1,0,0,response1disk,,7,25,-1,1,0,0,rectangle,25,-1,1,0,0,25,-1,1,0,0,1,129,289,79,1,,,,,,,,
,,,,,,,,,,,,,FF,,,,,,,,0.633,,,,,,,,,,,,,,,,,,,,,,60fd760a74bf79dc673e156e,61036debd1e815722ce9f194,2021-07-30_13h13.07.357,Simcolourproject_2stim_asymm_v5,2020.2.10,MacIntel,60,61025ae37ef11b136ea224fe,,,,,,,,,2191,46,-48,1,0,0,response3disk,,4,20,1,1,0,0,rectangle,20,1,1,0,0,20,1,1,0,0,1,130,290,69,1,,,,,,,,
,,,,,,,,,,,,,FF,,,,,,,,0.55,,,,,,,,,,,,,,,,,,,,,,60fd760a74bf79dc673e156e,61036debd1e815722ce9f194,2021-07-30_13h13.07.357,Simcolourproject_2stim_asymm_v5,2020.2.10,MacIntel,60,61025ae37ef11b136ea224fe,,,,,,,,,3953,22,84,1,0,0,response1disk,,7,3,13,1,0,0,rectangle,3,13,1,0,0,3,13,1,0,0,1,131,291,101,1,,,,,,,,
,,,,,,,,,,,,,FF,,,,,,,,0.533,,,,,,,,,,,,,,,,,,,,,,60fd760a74bf79dc673e156e,61036debd1e815722ce9f194,2021-07-30_13h13.07.357,Simcolourproject_2stim_asymm_v5,2020.2.10,MacIntel,60,61025ae37ef11b136ea224fe,,,,,,,,,1667,43,73,1,0,0,response1disk,,7,12,-1,1,0,0,rectangle,12,-1,1,0,0,12,-1,1,0,0,1,132,292,137,1,,,,,,,,
,,,,,,,,,,,,,FF,,,,,,,,0.583,,,,,,,,,,,,,,,,,,,,,,60fd760a74bf79dc673e156e,61036debd1e815722ce9f194,2021-07-30_13h13.07.357,Simcolourproject_2stim_asymm_v5,2020.2.10,MacIntel,60,61025ae37ef11b136ea224fe,,,,,,,,,1190,54,34,1,0,0,response1disk,,6,10,-6,1,0,0,rectangle,10,-6,1,0,0,10,-6,1,0,0,1,133,293,14,1,,,,,,,,
,,,,,,,,,,,,,FF,,,,,,,,2.116,,,,,,,,,,,,,,,,,,,,,,60fd760a74bf79dc673e156e,61036debd1e815722ce9f194,2021-07-30_13h13.07.357,Simcolourproject_2stim_asymm_v5,2020.2.10,MacIntel,60,61025ae37ef11b136ea224fe,,,,,,,,,1658,35,-77,1,0,0,response3disk,,4,14,-7,1,0,0,rectangle,14,-7,1,0,0,14,-7,1,0,0,1,134,294,70,1,,,,,,,,
,,,,,,,,,,,,,FF,,,,,,,,1.466,,,,,,,,,,,,,,,,,,,,,,60fd760a74bf79dc673e156e,61036debd1e815722ce9f194,2021-07-30_13h13.07.357,Simcolourproject_2stim_asymm_v5,2020.2.10,MacIntel,60,61025ae37ef11b136ea224fe,,,,,,,,,600,21,58,1,0,0,response1disk,,7,11,14,1,0,0,rectangle,11,14,1,0,0,11,14,1,0,0,1,135,295,71,1,,,,,,,,
,,,,,,,,,,,,,FF,,,,,,,,70.655,,,,,,,,,,,,,,,,,,,,,,60fd760a74bf79dc673e156e,61036debd1e815722ce9f194,2021-07-30_13h13.07.357,Simcolourproject_2stim_asymm_v5,2020.2.10,MacIntel,60,61025ae37ef11b136ea224fe,,,,,,,,,1245,53,-66,1,0,0,response3disk,,4,32,-10,1,0,0,rectangle,32,-10,1,0,0,32,-10,1,0,0,1,136,296,104,1,,,,,,,,
,,,,,,,,,,,,,FF,,,,,,,,1.166,,,,,,,,,,,,,,,,,,,,,,60fd760a74bf79dc673e156e,61036debd1e815722ce9f194,2021-07-30_13h13.07.357,Simcolourproject_2stim_asymm_v5,2020.2.10,MacIntel,60,61025ae37ef11b136ea224fe,,,,,,,,,3456,49,-50,1,0,0,response3disk,,4,23,-18,1,0,0,rectangle,23,-18,1,0,0,23,-18,1,0,0,1,137,297,156,1,,,,,,,,
,,,,,,,,,,,,,FF,,,,,,,,1.45,,,,,,,,,,,,,,,,,,,,,,60fd760a74bf79dc673e156e,61036debd1e815722ce9f194,2021-07-30_13h13.07.357,Simcolourproject_2stim_asymm_v5,2020.2.10,MacIntel,60,61025ae37ef11b136ea224fe,,,,,,,,,3390,-26,-61,1,0,0,response5disk,,3,-10,-1,1,0,0,rectangle,-10,-1,1,0,0,-10,-1,1,0,0,1,138,298,37,1,,,,,,,,
,,,,,,,,,,,,,FF,,,,,,,,3.666,,,,,,,,,,,,,,,,,,,,,,60fd760a74bf79dc673e156e,61036debd1e815722ce9f194,2021-07-30_13h13.07.357,Simcolourproject_2stim_asymm_v5,2020.2.10,MacIntel,60,61025ae37ef11b136ea224fe,,,,,,,,,225,25,-65,1,0,0,response3disk,,4,8,6,1,0,0,rectangle,8,6,1,0,0,8,6,1,0,0,1,139,299,8,1,,,,,,,,
