key_resp.keys,key_resp.rt,key_resp_14.keys,key_resp_14.rt,key_resp_15.keys,key_resp_15.rt,key_resp_17.keys,key_resp_17.rt,key_resp_9.keys,key_resp_9.rt,key_resp_10.keys,key_resp_10.rt,practice_comparison,Ecc,mouse_5.x,mouse_5.y,mouse_5.leftButton,mouse_5.midButton,mouse_5.rightButton,mouse_5.clicked_name,pracsimilarity,response_time,mouse_10.x,mouse_10.y,mouse_10.leftButton,mouse_10.midButton,mouse_10.rightButton,mouse_10.clicked_name,mouse_7.x,mouse_7.y,mouse_7.leftButton,mouse_7.midButton,mouse_7.rightButton,mouse_6.x,mouse_6.y,mouse_6.leftButton,mouse_6.midButton,mouse_6.rightButton,duringprac.thisRepN,duringprac.thisTrialN,duringprac.thisN,duringprac.thisIndex,duringprac.ran,participant,session,date,expName,psychopyVersion,OS,frameRate,study_id,mouse_7.clicked_name,catchpracsimilarity,catch_response_time,catchnumberprac,catchtrialorderprac,mouse_6.clicked_name,key_resp_22.keys,key_resp_22.rt,realcomparison,mouse.x,mouse.y,mouse.leftButton,mouse.midButton,mouse.rightButton,mouse.clicked_name,Colour2,similarity,mouse_2.x,mouse_2.y,mouse_2.leftButton,mouse_2.midButton,mouse_2.rightButton,mouse_2.clicked_name,mouse_3.x,mouse_3.y,mouse_3.leftButton,mouse_3.midButton,mouse_3.rightButton,mouse_11.x,mouse_11.y,mouse_11.leftButton,mouse_11.midButton,mouse_11.rightButton,trials_2.thisRepN,trials_2.thisTrialN,trials_2.thisN,trials_2.thisIndex,trials_2.ran,Colour1,mouse_3.clicked_name,catchornah,catchsimilarity,catchnumber,catchtrialorder,catchRT,mouse_11.clicked_name
space,0.4554,space,10.3078,space,22.0735,space,2.4175,space,1.919,space,5.5002,79,FF,107.200013,49.5999943,1,0,0,response1disk_5,6,6.7219,14.40001166,-5.600006521,1,0,0,rectangle_8,14.40001166,-5.600006521,1,0,0,14.40001166,-5.600006521,1,0,0,0,0,0,5,1,60fdda59e83450ae5a0f83e6,61036aafb4e8cd61018fe0eb,2021-07-29_22h02.00.322,Simcolourproject_2stim_asymm_v5,2020.2.10,Win32,60,61025ae37ef11b136ea224fe,,,,,,,,,,,,,,,,,,,,,,,,,,,,,,,,,,,,,,,,,,,,,,
,,,,,,,,,,,,73,PF,40.00001204,119.9999954,1,0,0,response1disk_5,7,1.7333,-3.199988604,0.799993575,1,0,0,rectangle_8,-49.5999893,-75.20000756,1,0,0,-0.799988568,-6.4373E-06,1,0,0,0,1,1,2,1,60fdda59e83450ae5a0f83e6,61036aafb4e8cd61018fe0eb,2021-07-29_22h02.00.322,Simcolourproject_2stim_asymm_v5,2020.2.10,Win32,60,61025ae37ef11b136ea224fe,response5disk_7,3,3.102,3,"[2,5]",rectangle_4,,,,,,,,,,,,,,,,,,,,,,,,,,,,,,,,,,,,,,,,
,,,,,,,,,,,,99,PF,38.40001202,-106.400008,1,0,0,response3disk_5,4,3.6531,9.600060415,2.399993598,1,0,0,rectangle_8,9.600060415,2.399993598,1,0,0,9.600060415,2.399993598,1,0,0,0,2,2,6,1,60fdda59e83450ae5a0f83e6,61036aafb4e8cd61018fe0eb,2021-07-29_22h02.00.322,Simcolourproject_2stim_asymm_v5,2020.2.10,Win32,60,61025ae37ef11b136ea224fe,,,,,,,,,,,,,,,,,,,,,,,,,,,,,,,,,,,,,,,,,,,,,,
,,,,,,,,,,,,74,FF,44.80001211,107.1999707,1,0,0,response1disk_5,7,1.4502,-0.799988568,3.999993622,1,0,0,rectangle_8,-0.799988568,3.999993622,1,0,0,-0.799988568,3.999993622,1,0,0,0,3,3,3,1,60fdda59e83450ae5a0f83e6,61036aafb4e8cd61018fe0eb,2021-07-29_22h02.00.322,Simcolourproject_2stim_asymm_v5,2020.2.10,Win32,60,61025ae37ef11b136ea224fe,,,,,,,,,,,,,,,,,,,,,,,,,,,,,,,,,,,,,,,,,,,,,,
,,,,,,,,,,,,151,FF,101.600013,-44.00000709,1,0,0,response3disk_5,5,2.85,-3.999988616,11.99999374,1,0,0,rectangle_8,-60.79998946,-108.000008,1,0,0,-7.999988675,6.399993658,1,0,0,0,4,4,0,1,60fdda59e83450ae5a0f83e6,61036aafb4e8cd61018fe0eb,2021-07-29_22h02.00.322,Simcolourproject_2stim_asymm_v5,2020.2.10,Win32,60,61025ae37ef11b136ea224fe,response5disk_7,3,1.9839,3,"[2,5]",rectangle_4,,,,,,,,,,,,,,,,,,,,,,,,,,,,,,,,,,,,,,,,
,,,,,,,,,,,,115,PF,104.000013,-41.60000706,1,0,0,response3disk_5,5,2.9342,-3.999988616,15.9999938,1,0,0,rectangle_8,-3.999988616,15.9999938,1,0,0,-3.999988616,15.9999938,1,0,0,0,5,5,4,1,60fdda59e83450ae5a0f83e6,61036aafb4e8cd61018fe0eb,2021-07-29_22h02.00.322,Simcolourproject_2stim_asymm_v5,2020.2.10,Win32,60,61025ae37ef11b136ea224fe,,,,,,,,,,,,,,,,,,,,,,,,,,,,,,,,,,,,,,,,,,,,,,
,,,,,,,,,,,,16,PF,-43.99998921,-78.40000761,1,0,0,response5disk_5,3,1.1848,5.600060356,7.999993682,1,0,0,rectangle_8,5.600060356,7.999993682,1,0,0,5.600060356,7.999993682,1,0,0,0,6,6,1,1,60fdda59e83450ae5a0f83e6,61036aafb4e8cd61018fe0eb,2021-07-29_22h02.00.322,Simcolourproject_2stim_asymm_v5,2020.2.10,Win32,60,61025ae37ef11b136ea224fe,,,,,,,,,,,,,,,,,,,,,,,,,,,,,,,,,,,,,,,,,,,,,,
,,,,,,,,,,,,,FF,,,,,,,,1.6551,,,,,,,,,,,,,,,,,,,,,,60fdda59e83450ae5a0f83e6,61036aafb4e8cd61018fe0eb,2021-07-29_22h02.00.322,Simcolourproject_2stim_asymm_v5,2020.2.10,Win32,60,61025ae37ef11b136ea224fe,,,,,,,space,1.8598,2992,45.60006095,-110.4000081,1,0,0,response3disk,,4,1.14441E-05,4.799993634,1,0,0,rectangle,1.14441E-05,4.799993634,1,0,0,1.14441E-05,4.799993634,1,0,0,0,0,0,92,1,,,,,,,,
,,,,,,,,,,,,,FF,,,,,,,,0.9507,,,,,,,,,,,,,,,,,,,,,,60fdda59e83450ae5a0f83e6,61036aafb4e8cd61018fe0eb,2021-07-29_22h02.00.322,Simcolourproject_2stim_asymm_v5,2020.2.10,Win32,60,61025ae37ef11b136ea224fe,,,,,,,,,1715,42.40001208,82.39999479,1,0,0,response1disk,,7,12.00001162,-2.400006473,1,0,0,rectangle,12.00001162,-2.400006473,1,0,0,12.00001162,-2.400006473,1,0,0,0,1,1,5,1,,,,,,,,
,,,,,,,,,,,,,FF,,,,,,,,2.2162,,,,,,,,,,,,,,,,,,,,,,60fdda59e83450ae5a0f83e6,61036aafb4e8cd61018fe0eb,2021-07-29_22h02.00.322,Simcolourproject_2stim_asymm_v5,2020.2.10,Win32,60,61025ae37ef11b136ea224fe,,,,,,,,,2296,-57.59998941,-109.6000569,1,0,0,response5disk,,3,2.40001148,-5.600006521,1,0,0,rectangle,2.40001148,-5.600006521,1,0,0,2.40001148,-5.600006521,1,0,0,0,2,2,74,1,,,,,,,,
,,,,,,,,,,,,,FF,,,,,,,,1.4967,,,,,,,,,,,,,,,,,,,,,,60fdda59e83450ae5a0f83e6,61036aafb4e8cd61018fe0eb,2021-07-29_22h02.00.322,Simcolourproject_2stim_asymm_v5,2020.2.10,Win32,60,61025ae37ef11b136ea224fe,,,,,,,,,3739,95.20001286,-56.00000727,1,0,0,response3disk,,5,4.800011516,3.999993622,1,0,0,rectangle,-58.3999406,111.1999708,1,0,0,-11.99998873,10.39999372,1,0,0,0,3,3,138,1,,response7disk_3,TRUE,0,0,"[195,240,10,127,186,147,235,27,4,78,122,209,290,321,228,60,229,128,280,13]",1.936,rectangle
,,,,,,,,,,,,,FF,,,,,,,,1.0669,,,,,,,,,,,,,,,,,,,,,,60fdda59e83450ae5a0f83e6,61036aafb4e8cd61018fe0eb,2021-07-29_22h02.00.322,Simcolourproject_2stim_asymm_v5,2020.2.10,Win32,60,61025ae37ef11b136ea224fe,,,,,,,,,3090,-56.7999894,-102.400008,1,0,0,response5disk,,3,4.000011504,-2.400006473,1,0,0,rectangle,4.000011504,-2.400006473,1,0,0,4.000011504,-2.400006473,1,0,0,0,4,4,157,1,,,,,,,,
,,,,,,,,,,,,,FF,,,,,,,,0.9987,,,,,,,,,,,,,,,,,,,,,,60fdda59e83450ae5a0f83e6,61036aafb4e8cd61018fe0eb,2021-07-29_22h02.00.322,Simcolourproject_2stim_asymm_v5,2020.2.10,Win32,60,61025ae37ef11b136ea224fe,,,,,,,,,2670,-33.59998906,-88.80000776,1,0,0,response5disk,,3,-4.799988627,11.99999374,1,0,0,rectangle,-4.799988627,11.99999374,1,0,0,-4.799988627,11.99999374,1,0,0,0,5,5,6,1,,,,,,,,
,,,,,,,,,,,,,FF,,,,,,,,1.2293,,,,,,,,,,,,,,,,,,,,,,60fdda59e83450ae5a0f83e6,61036aafb4e8cd61018fe0eb,2021-07-29_22h02.00.322,Simcolourproject_2stim_asymm_v5,2020.2.10,Win32,60,61025ae37ef11b136ea224fe,,,,,,,,,3007,-61.59998947,-82.40000767,1,0,0,response5disk,,3,0.800011456,-1.600006461,1,0,0,rectangle,0.800011456,-1.600006461,1,0,0,0.800011456,-1.600006461,1,0,0,0,6,6,107,1,,,,,,,,
,,,,,,,,,,,,,FF,,,,,,,,1.3889,,,,,,,,,,,,,,,,,,,,,,60fdda59e83450ae5a0f83e6,61036aafb4e8cd61018fe0eb,2021-07-29_22h02.00.322,Simcolourproject_2stim_asymm_v5,2020.2.10,Win32,60,61025ae37ef11b136ea224fe,,,,,,,,,2689,65.60001242,90.39999491,1,0,0,response1disk,,7,-1.59998858,-5.600006521,1,0,0,rectangle,-1.59998858,-5.600006521,1,0,0,-1.59998858,-5.600006521,1,0,0,0,7,7,85,1,,,,,,,,
,,,,,,,,,,,,,FF,,,,,,,,1.047,,,,,,,,,,,,,,,,,,,,,,60fdda59e83450ae5a0f83e6,61036aafb4e8cd61018fe0eb,2021-07-29_22h02.00.322,Simcolourproject_2stim_asymm_v5,2020.2.10,Win32,60,61025ae37ef11b136ea224fe,,,,,,,,,976,-50.39994048,-94.40000784,1,0,0,response5disk,,3,-3.999988616,10.39999372,1,0,0,rectangle,-3.999988616,10.39999372,1,0,0,-3.999988616,10.39999372,1,0,0,0,8,8,132,1,,,,,,,,
,,,,,,,,,,,,,FF,,,,,,,,0.9711,,,,,,,,,,,,,,,,,,,,,,60fdda59e83450ae5a0f83e6,61036aafb4e8cd61018fe0eb,2021-07-29_22h02.00.322,Simcolourproject_2stim_asymm_v5,2020.2.10,Win32,60,61025ae37ef11b136ea224fe,,,,,,,,,2918,47.20001215,80.79999477,1,0,0,response1disk,,7,8.800011575,0.799993575,1,0,0,rectangle,-31.99998903,85.59999484,1,0,0,-6.399939823,11.99999374,1,0,0,0,9,9,135,1,,response7disk_3,TRUE,0,0,"[195,240,10,127,186,147,235,27,4,78,122,209,290,321,228,60,229,128,280,13]",1.3837,rectangle
,,,,,,,,,,,,,FF,,,,,,,,1.0172,,,,,,,,,,,,,,,,,,,,,,60fdda59e83450ae5a0f83e6,61036aafb4e8cd61018fe0eb,2021-07-29_22h02.00.322,Simcolourproject_2stim_asymm_v5,2020.2.10,Win32,60,61025ae37ef11b136ea224fe,,,,,,,,,59,-55.19998938,-96.80000788,1,0,0,response5disk,,3,23.20001179,9.599993706,1,0,0,rectangle,23.20001179,9.599993706,1,0,0,23.20001179,9.599993706,1,0,0,0,10,10,54,1,,,,,,,,
,,,,,,,,,,,,,FF,,,,,,,,1.4183,,,,,,,,,,,,,,,,,,,,,,60fdda59e83450ae5a0f83e6,61036aafb4e8cd61018fe0eb,2021-07-29_22h02.00.322,Simcolourproject_2stim_asymm_v5,2020.2.10,Win32,60,61025ae37ef11b136ea224fe,,,,,,,,,2756,96.00001287,55.9999944,1,0,0,response1disk,,6,-8.799988687,-6.400006533,1,0,0,rectangle,-8.799988687,-6.400006533,1,0,0,-8.799988687,-6.400006533,1,0,0,0,11,11,30,1,,,,,,,,
,,,,,,,,,,,,,FF,,,,,,,,1.6671,,,,,,,,,,,,,,,,,,,,,,60fdda59e83450ae5a0f83e6,61036aafb4e8cd61018fe0eb,2021-07-29_22h02.00.322,Simcolourproject_2stim_asymm_v5,2020.2.10,Win32,60,61025ae37ef11b136ea224fe,,,,,,,,,3173,94.40001285,-20.80000675,1,0,0,response3disk,,5,6.400011539,4.799993634,1,0,0,rectangle,102.400013,-60.80000734,1,0,0,15.20001167,-9.60000658,1,0,0,0,12,12,105,1,,response3disk_3,TRUE,5,5,"[195,240,10,127,186,147,235,27,4,78,122,209,290,321,228,60,229,128,280,13]",2.0334,rectangle
,,,,,,,,,,,,,FF,,,,,,,,0.8674,,,,,,,,,,,,,,,,,,,,,,60fdda59e83450ae5a0f83e6,61036aafb4e8cd61018fe0eb,2021-07-29_22h02.00.322,Simcolourproject_2stim_asymm_v5,2020.2.10,Win32,60,61025ae37ef11b136ea224fe,,,,,,,,,1235,-47.99998927,-82.40000767,1,0,0,response5disk,,3,4.000011504,5.599993646,1,0,0,rectangle,4.000011504,5.599993646,1,0,0,4.000011504,5.599993646,1,0,0,0,13,13,2,1,,,,,,,,
,,,,,,,,,,,,,FF,,,,,,,,1.0667,,,,,,,,,,,,,,,,,,,,,,60fdda59e83450ae5a0f83e6,61036aafb4e8cd61018fe0eb,2021-07-29_22h02.00.322,Simcolourproject_2stim_asymm_v5,2020.2.10,Win32,60,61025ae37ef11b136ea224fe,,,,,,,,,1498,54.40001225,92.79999495,1,0,0,response1disk,,7,2.40001148,3.19999361,1,0,0,rectangle,2.40001148,3.19999361,1,0,0,2.40001148,3.19999361,1,0,0,0,14,14,61,1,,,,,,,,
,,,,,,,,,,,,,FF,,,,,,,,1.1176,,,,,,,,,,,,,,,,,,,,,,60fdda59e83450ae5a0f83e6,61036aafb4e8cd61018fe0eb,2021-07-29_22h02.00.322,Simcolourproject_2stim_asymm_v5,2020.2.10,Win32,60,61025ae37ef11b136ea224fe,,,,,,,,,2799,90.40001279,-44.8000071,1,0,0,response3disk,,5,-1.59998858,-6.4373E-06,1,0,0,rectangle,-1.59998858,-6.4373E-06,1,0,0,-1.59998858,-6.4373E-06,1,0,0,0,15,15,134,1,,,,,,,,
,,,,,,,,,,,,,FF,,,,,,,,1.0016,,,,,,,,,,,,,,,,,,,,,,60fdda59e83450ae5a0f83e6,61036aafb4e8cd61018fe0eb,2021-07-29_22h02.00.322,Simcolourproject_2stim_asymm_v5,2020.2.10,Win32,60,61025ae37ef11b136ea224fe,,,,,,,,,1898,-51.99998933,-87.20000774,1,0,0,response5disk,,3,-9.599988699,-7.200006545,1,0,0,rectangle,-9.599988699,-7.200006545,1,0,0,-9.599988699,-7.200006545,1,0,0,0,16,16,0,1,,,,,,,,
,,,,,,,,,,,,,FF,,,,,,,,0.8384,,,,,,,,,,,,,,,,,,,,,,60fdda59e83450ae5a0f83e6,61036aafb4e8cd61018fe0eb,2021-07-29_22h02.00.322,Simcolourproject_2stim_asymm_v5,2020.2.10,Win32,60,61025ae37ef11b136ea224fe,,,,,,,,,3844,-88.79998988,-44.8000071,1,0,0,response5disk,,2,-8.799988687,-10.40000659,1,0,0,rectangle,-8.799988687,-10.40000659,1,0,0,-8.799988687,-10.40000659,1,0,0,0,17,17,145,1,,,,,,,,
,,,,,,,,,,,,,FF,,,,,,,,1.7497,,,,,,,,,,,,,,,,,,,,,,60fdda59e83450ae5a0f83e6,61036aafb4e8cd61018fe0eb,2021-07-29_22h02.00.322,Simcolourproject_2stim_asymm_v5,2020.2.10,Win32,60,61025ae37ef11b136ea224fe,,,,,,,,,4069,95.20001286,-44.00000709,1,0,0,response3disk,,5,12.00001162,-5.600006521,1,0,0,rectangle,12.00001162,-5.600006521,1,0,0,12.00001162,-5.600006521,1,0,0,0,18,18,81,1,,,,,,,,
,,,,,,,,,,,,,FF,,,,,,,,1.1663,,,,,,,,,,,,,,,,,,,,,,60fdda59e83450ae5a0f83e6,61036aafb4e8cd61018fe0eb,2021-07-29_22h02.00.322,Simcolourproject_2stim_asymm_v5,2020.2.10,Win32,60,61025ae37ef11b136ea224fe,,,,,,,,,2662,-94.39994113,49.5999943,1,0,0,response7disk,,1,-0.799988568,-0.800006449,1,0,0,rectangle,-0.799988568,-0.800006449,1,0,0,-0.799988568,-0.800006449,1,0,0,0,19,19,143,1,,,,,,,,
,,,,,,,,,,,,,FF,,,,,,,,1.0501,,,,,,,,,,,,,,,,,,,,,,60fdda59e83450ae5a0f83e6,61036aafb4e8cd61018fe0eb,2021-07-29_22h02.00.322,Simcolourproject_2stim_asymm_v5,2020.2.10,Win32,60,61025ae37ef11b136ea224fe,,,,,,,,,1032,46.40001214,85.59999484,1,0,0,response1disk,,7,1.14441E-05,3.999993622,1,0,0,rectangle,1.14441E-05,3.999993622,1,0,0,1.14441E-05,3.999993622,1,0,0,0,20,20,126,1,,,,,,,,
,,,,,,,,,,,,,FF,,,,,,,,1.5347,,,,,,,,,,,,,,,,,,,,,,60fdda59e83450ae5a0f83e6,61036aafb4e8cd61018fe0eb,2021-07-29_22h02.00.322,Simcolourproject_2stim_asymm_v5,2020.2.10,Win32,60,61025ae37ef11b136ea224fe,,,,,,,,,1738,99.20001292,44.79999423,1,0,0,response1disk,,6,-11.19998872,9.599993706,1,0,0,rectangle,-11.19998872,9.599993706,1,0,0,-11.19998872,9.599993706,1,0,0,0,21,21,29,1,,,,,,,,
,,,,,,,,,,,,,FF,,,,,,,,1.6176,,,,,,,,,,,,,,,,,,,,,,60fdda59e83450ae5a0f83e6,61036aafb4e8cd61018fe0eb,2021-07-29_22h02.00.322,Simcolourproject_2stim_asymm_v5,2020.2.10,Win32,60,61025ae37ef11b136ea224fe,,,,,,,,,371,72.80001253,-119.2000082,1,0,0,response3disk,,4,6.400011539,3.999993622,1,0,0,rectangle,6.400011539,3.999993622,1,0,0,6.400011539,3.999993622,1,0,0,0,22,22,142,1,,,,,,,,
,,,,,,,,,,,,,FF,,,,,,,,1.0896,,,,,,,,,,,,,,,,,,,,,,60fdda59e83450ae5a0f83e6,61036aafb4e8cd61018fe0eb,2021-07-29_22h02.00.322,Simcolourproject_2stim_asymm_v5,2020.2.10,Win32,60,61025ae37ef11b136ea224fe,,,,,,,,,1086,116.0000132,-62.40000737,1,0,0,response3disk,,5,2.40001148,-10.40000659,1,0,0,rectangle,2.40001148,-10.40000659,1,0,0,2.40001148,-10.40000659,1,0,0,0,23,23,32,1,,,,,,,,
,,,,,,,,,,,,,FF,,,,,,,,1.7319,,,,,,,,,,,,,,,,,,,,,,60fdda59e83450ae5a0f83e6,61036aafb4e8cd61018fe0eb,2021-07-29_22h02.00.322,Simcolourproject_2stim_asymm_v5,2020.2.10,Win32,60,61025ae37ef11b136ea224fe,,,,,,,,,3349,119.2000132,40.79999417,1,0,0,response1disk,,6,13.60006047,9.599993706,1,0,0,rectangle,13.60006047,9.599993706,1,0,0,13.60006047,9.599993706,1,0,0,0,24,24,38,1,,,,,,,,
,,,,,,,,,,,,,FF,,,,,,,,1.1336,,,,,,,,,,,,,,,,,,,,,,60fdda59e83450ae5a0f83e6,61036aafb4e8cd61018fe0eb,2021-07-29_22h02.00.322,Simcolourproject_2stim_asymm_v5,2020.2.10,Win32,60,61025ae37ef11b136ea224fe,,,,,,,,,1653,44.80001211,93.59999496,1,0,0,response1disk,,7,-7.999988675,3.19999361,1,0,0,rectangle,-7.999988675,3.19999361,1,0,0,-7.999988675,3.19999361,1,0,0,0,25,25,1,1,,,,,,,,
,,,,,,,,,,,,,FF,,,,,,,,1.1338,,,,,,,,,,,,,,,,,,,,,,60fdda59e83450ae5a0f83e6,61036aafb4e8cd61018fe0eb,2021-07-29_22h02.00.322,Simcolourproject_2stim_asymm_v5,2020.2.10,Win32,60,61025ae37ef11b136ea224fe,,,,,,,,,740,87.20001274,-42.40000707,1,0,0,response3disk,,5,13.60006047,-4.800006509,1,0,0,rectangle,41.60006089,-106.400008,1,0,0,8.000011563,-2.400006473,1,0,0,0,26,26,45,1,,response3disk_3,TRUE,4,4,"[195,240,10,127,186,147,235,27,4,78,122,209,290,321,228,60,229,128,280,13]",1.7,rectangle
,,,,,,,,,,,,,FF,,,,,,,,1.0341,,,,,,,,,,,,,,,,,,,,,,60fdda59e83450ae5a0f83e6,61036aafb4e8cd61018fe0eb,2021-07-29_22h02.00.322,Simcolourproject_2stim_asymm_v5,2020.2.10,Win32,60,61025ae37ef11b136ea224fe,,,,,,,,,1700,44.80001211,90.39999491,1,0,0,response1disk,,7,-7.999988675,3.19999361,1,0,0,rectangle,-7.999988675,3.19999361,1,0,0,-7.999988675,3.19999361,1,0,0,0,27,27,110,1,,,,,,,,
,,,,,,,,,,,,,FF,,,,,,,,1.2661,,,,,,,,,,,,,,,,,,,,,,60fdda59e83450ae5a0f83e6,61036aafb4e8cd61018fe0eb,2021-07-29_22h02.00.322,Simcolourproject_2stim_asymm_v5,2020.2.10,Win32,60,61025ae37ef11b136ea224fe,,,,,,,,,1736,86.40001273,-37.600007,1,0,0,response3disk,,5,16.00001168,0.799993575,1,0,0,rectangle,16.00001168,0.799993575,1,0,0,16.00001168,0.799993575,1,0,0,0,28,28,12,1,,,,,,,,
,,,,,,,,,,,,,FF,,,,,,,,1.1003,,,,,,,,,,,,,,,,,,,,,,60fdda59e83450ae5a0f83e6,61036aafb4e8cd61018fe0eb,2021-07-29_22h02.00.322,Simcolourproject_2stim_asymm_v5,2020.2.10,Win32,60,61025ae37ef11b136ea224fe,,,,,,,,,3290,-41.59998918,99.99999505,1,0,0,response7disk,,0,-7.999988675,4.799993634,1,0,0,rectangle,-7.999988675,4.799993634,1,0,0,-7.999988675,4.799993634,1,0,0,0,29,29,71,1,,,,,,,,
,,,,,,,,,,,,,FF,,,,,,,,1.2999,,,,,,,,,,,,,,,,,,,,,,60fdda59e83450ae5a0f83e6,61036aafb4e8cd61018fe0eb,2021-07-29_22h02.00.322,Simcolourproject_2stim_asymm_v5,2020.2.10,Win32,60,61025ae37ef11b136ea224fe,,,,,,,,,2334,41.60006089,-96.80000788,1,0,0,response3disk,,4,-0.799988568,-1.600006461,1,0,0,rectangle,-0.799988568,-1.600006461,1,0,0,-0.799988568,-1.600006461,1,0,0,0,30,30,79,1,,,,,,,,
,,,,,,,,,,,,,FF,,,,,,,,1.267,,,,,,,,,,,,,,,,,,,,,,60fdda59e83450ae5a0f83e6,61036aafb4e8cd61018fe0eb,2021-07-29_22h02.00.322,Simcolourproject_2stim_asymm_v5,2020.2.10,Win32,60,61025ae37ef11b136ea224fe,,,,,,,,,2503,87.20001274,-48.80000716,1,0,0,response3disk,,5,8.800011575,6.399993658,1,0,0,rectangle,8.800011575,6.399993658,1,0,0,8.800011575,6.399993658,1,0,0,0,31,31,151,1,,,,,,,,
,,,,,,,,,,,,,FF,,,,,,,,1.0503,,,,,,,,,,,,,,,,,,,,,,60fdda59e83450ae5a0f83e6,61036aafb4e8cd61018fe0eb,2021-07-29_22h02.00.322,Simcolourproject_2stim_asymm_v5,2020.2.10,Win32,60,61025ae37ef11b136ea224fe,,,,,,,,,4010,-41.59998918,-124.0000083,1,0,0,response5disk,,3,12.00001162,-3.200006485,1,0,0,rectangle,12.00001162,-3.200006485,1,0,0,12.00001162,-3.200006485,1,0,0,0,32,32,103,1,,,,,,,,
,,,,,,,,,,,,,FF,,,,,,,,0.9345,,,,,,,,,,,,,,,,,,,,,,60fdda59e83450ae5a0f83e6,61036aafb4e8cd61018fe0eb,2021-07-29_22h02.00.322,Simcolourproject_2stim_asymm_v5,2020.2.10,Win32,60,61025ae37ef11b136ea224fe,,,,,,,,,3741,-35.19998908,85.59999484,1,0,0,response7disk,,0,-0.799988568,3.999993622,1,0,0,rectangle,-0.799988568,3.999993622,1,0,0,-0.799988568,3.999993622,1,0,0,0,33,33,14,1,,,,,,,,
,,,,,,,,,,,,,FF,,,,,,,,0.8294,,,,,,,,,,,,,,,,,,,,,,60fdda59e83450ae5a0f83e6,61036aafb4e8cd61018fe0eb,2021-07-29_22h02.00.322,Simcolourproject_2stim_asymm_v5,2020.2.10,Win32,60,61025ae37ef11b136ea224fe,,,,,,,,,106,-45.59998924,-76.80000758,1,0,0,response5disk,,3,2.40001148,1.599993587,1,0,0,rectangle,2.40001148,1.599993587,1,0,0,2.40001148,1.599993587,1,0,0,0,34,34,20,1,,,,,,,,
,,,,,,,,,,,,,FF,,,,,,,,0.9841,,,,,,,,,,,,,,,,,,,,,,60fdda59e83450ae5a0f83e6,61036aafb4e8cd61018fe0eb,2021-07-29_22h02.00.322,Simcolourproject_2stim_asymm_v5,2020.2.10,Win32,60,61025ae37ef11b136ea224fe,,,,,,,,,1284,93.60001284,30.39999402,1,0,0,response1disk,,6,-2.399939764,7.999993682,1,0,0,rectangle,-2.399939764,7.999993682,1,0,0,-2.399939764,7.999993682,1,0,0,0,35,35,115,1,,,,,,,,
,,,,,,,,,,,,,FF,,,,,,,,0.9294,,,,,,,,,,,,,,,,,,,,,,60fdda59e83450ae5a0f83e6,61036aafb4e8cd61018fe0eb,2021-07-29_22h02.00.322,Simcolourproject_2stim_asymm_v5,2020.2.10,Win32,60,61025ae37ef11b136ea224fe,,,,,,,,,871,41.60006089,-116.8000082,1,0,0,response3disk,,4,-5.599988639,-5.600006521,1,0,0,rectangle,-5.599988639,-5.600006521,1,0,0,-5.599988639,-5.600006521,1,0,0,0,36,36,42,1,,,,,,,,
,,,,,,,,,,,,,FF,,,,,,,,1.105,,,,,,,,,,,,,,,,,,,,,,60fdda59e83450ae5a0f83e6,61036aafb4e8cd61018fe0eb,2021-07-29_22h02.00.322,Simcolourproject_2stim_asymm_v5,2020.2.10,Win32,60,61025ae37ef11b136ea224fe,,,,,,,,,734,102.400013,-42.40000707,1,0,0,response3disk,,5,1.14441E-05,1.599993587,1,0,0,rectangle,1.14441E-05,1.599993587,1,0,0,1.14441E-05,1.599993587,1,0,0,0,37,37,57,1,,,,,,,,
,,,,,,,,,,,,,FF,,,,,,,,1.13,,,,,,,,,,,,,,,,,,,,,,60fdda59e83450ae5a0f83e6,61036aafb4e8cd61018fe0eb,2021-07-29_22h02.00.322,Simcolourproject_2stim_asymm_v5,2020.2.10,Win32,60,61025ae37ef11b136ea224fe,,,,,,,,,775,98.40001291,43.99999422,1,0,0,response1disk,,6,-6.399939823,-0.800006449,1,0,0,rectangle,-6.399939823,-0.800006449,1,0,0,-6.399939823,-0.800006449,1,0,0,0,38,38,15,1,,,,,,,,
,,,,,,,,,,,,,FF,,,,,,,,0.6501,,,,,,,,,,,,,,,,,,,,,,60fdda59e83450ae5a0f83e6,61036aafb4e8cd61018fe0eb,2021-07-29_22h02.00.322,Simcolourproject_2stim_asymm_v5,2020.2.10,Win32,60,61025ae37ef11b136ea224fe,,,,,,,,,3345,47.20001215,101.5999951,1,0,0,response1disk,,7,-7.199988663,2.399993598,1,0,0,rectangle,-7.199988663,2.399993598,1,0,0,-7.199988663,2.399993598,1,0,0,0,39,39,97,1,,,,,,,,
,,,,,,,,,,,,,FF,,,,,,,,1.168,,,,,,,,,,,,,,,,,,,,,,60fdda59e83450ae5a0f83e6,61036aafb4e8cd61018fe0eb,2021-07-29_22h02.00.322,Simcolourproject_2stim_asymm_v5,2020.2.10,Win32,60,61025ae37ef11b136ea224fe,,,,,,,,,840,116.8000132,43.99999422,1,0,0,response1disk,,6,5.600060356,4.799993634,1,0,0,rectangle,5.600060356,4.799993634,1,0,0,5.600060356,4.799993634,1,0,0,0,40,40,133,1,,,,,,,,
,,,,,,,,,,,,,FF,,,,,,,,0.9847,,,,,,,,,,,,,,,,,,,,,,60fdda59e83450ae5a0f83e6,61036aafb4e8cd61018fe0eb,2021-07-29_22h02.00.322,Simcolourproject_2stim_asymm_v5,2020.2.10,Win32,60,61025ae37ef11b136ea224fe,,,,,,,,,80,-47.19998926,-104.000008,1,0,0,response5disk,,3,6.400011539,4.799993634,1,0,0,rectangle,6.400011539,4.799993634,1,0,0,6.400011539,4.799993634,1,0,0,0,41,41,72,1,,,,,,,,
,,,,,,,,,,,,,FF,,,,,,,,0.9301,,,,,,,,,,,,,,,,,,,,,,60fdda59e83450ae5a0f83e6,61036aafb4e8cd61018fe0eb,2021-07-29_22h02.00.322,Simcolourproject_2stim_asymm_v5,2020.2.10,Win32,60,61025ae37ef11b136ea224fe,,,,,,,,,3999,-101.5999901,-42.40000707,1,0,0,response5disk,,2,8.800011575,6.399993658,1,0,0,rectangle,8.800011575,6.399993658,1,0,0,8.800011575,6.399993658,1,0,0,0,42,42,18,1,,,,,,,,
,,,,,,,,,,,,,FF,,,,,,,,0.9014,,,,,,,,,,,,,,,,,,,,,,60fdda59e83450ae5a0f83e6,61036aafb4e8cd61018fe0eb,2021-07-29_22h02.00.322,Simcolourproject_2stim_asymm_v5,2020.2.10,Win32,60,61025ae37ef11b136ea224fe,,,,,,,,,2421,-46.39994042,-104.000008,1,0,0,response5disk,,3,13.60006047,4.799993634,1,0,0,rectangle,13.60006047,4.799993634,1,0,0,13.60006047,4.799993634,1,0,0,0,43,43,7,1,,,,,,,,
,,,,,,,,,,,,,FF,,,,,,,,1.3518,,,,,,,,,,,,,,,,,,,,,,60fdda59e83450ae5a0f83e6,61036aafb4e8cd61018fe0eb,2021-07-29_22h02.00.322,Simcolourproject_2stim_asymm_v5,2020.2.10,Win32,60,61025ae37ef11b136ea224fe,,,,,,,,,3095,102.400013,55.19996997,1,0,0,response1disk,,6,1.14441E-05,-6.4373E-06,1,0,0,rectangle,1.14441E-05,-6.4373E-06,1,0,0,1.14441E-05,-6.4373E-06,1,0,0,0,44,44,98,1,,,,,,,,
,,,,,,,,,,,,,FF,,,,,,,,0.8712,,,,,,,,,,,,,,,,,,,,,,60fdda59e83450ae5a0f83e6,61036aafb4e8cd61018fe0eb,2021-07-29_22h02.00.322,Simcolourproject_2stim_asymm_v5,2020.2.10,Win32,60,61025ae37ef11b136ea224fe,,,,,,,,,1711,48.00001216,81.59999478,1,0,0,response1disk,,7,5.600060356,3.19999361,1,0,0,rectangle,5.600060356,3.19999361,1,0,0,5.600060356,3.19999361,1,0,0,0,45,45,89,1,,,,,,,,
,,,,,,,,,,,,,FF,,,,,,,,1.5161,,,,,,,,,,,,,,,,,,,,,,60fdda59e83450ae5a0f83e6,61036aafb4e8cd61018fe0eb,2021-07-29_22h02.00.322,Simcolourproject_2stim_asymm_v5,2020.2.10,Win32,60,61025ae37ef11b136ea224fe,,,,,,,,,79,-86.39994102,31.99999404,1,0,0,response7disk,,1,-7.199988663,7.999993682,1,0,0,rectangle,-7.199988663,7.999993682,1,0,0,-7.199988663,7.999993682,1,0,0,0,46,46,139,1,,,,,,,,
,,,,,,,,,,,,,FF,,,,,,,,1.2007,,,,,,,,,,,,,,,,,,,,,,60fdda59e83450ae5a0f83e6,61036aafb4e8cd61018fe0eb,2021-07-29_22h02.00.322,Simcolourproject_2stim_asymm_v5,2020.2.10,Win32,60,61025ae37ef11b136ea224fe,,,,,,,,,4215,45.60006095,103.9999951,1,0,0,response1disk,,7,-18.39994,-4.000006497,1,0,0,rectangle,-18.39994,-4.000006497,1,0,0,-18.39994,-4.000006497,1,0,0,0,47,47,37,1,,,,,,,,
,,,,,,,,,,,,,FF,,,,,,,,1.2169,,,,,,,,,,,,,,,,,,,,,,60fdda59e83450ae5a0f83e6,61036aafb4e8cd61018fe0eb,2021-07-29_22h02.00.322,Simcolourproject_2stim_asymm_v5,2020.2.10,Win32,60,61025ae37ef11b136ea224fe,,,,,,,,,2198,50.4000122,88.79999489,1,0,0,response1disk,,7,-6.399939823,-2.400006473,1,0,0,rectangle,-6.399939823,-2.400006473,1,0,0,-6.399939823,-2.400006473,1,0,0,0,48,48,136,1,,,,,,,,
,,,,,,,,,,,,,FF,,,,,,,,1.099,,,,,,,,,,,,,,,,,,,,,,60fdda59e83450ae5a0f83e6,61036aafb4e8cd61018fe0eb,2021-07-29_22h02.00.322,Simcolourproject_2stim_asymm_v5,2020.2.10,Win32,60,61025ae37ef11b136ea224fe,,,,,,,,,718,-77.59998971,-36.00000697,1,0,0,response5disk,,2,4.800011516,11.19999373,1,0,0,rectangle,4.800011516,11.19999373,1,0,0,4.800011516,11.19999373,1,0,0,0,49,49,77,1,,,,,,,,
,,,,,,,,,,,,,FF,,,,,,,,1.3632,,,,,,,,,,,,,,,,,,,,,,60fdda59e83450ae5a0f83e6,61036aafb4e8cd61018fe0eb,2021-07-29_22h02.00.322,Simcolourproject_2stim_asymm_v5,2020.2.10,Win32,60,61025ae37ef11b136ea224fe,,,,,,,,,2924,104.800013,-44.00000709,1,0,0,response3disk,,5,-3.199988604,10.39999372,1,0,0,rectangle,-3.199988604,10.39999372,1,0,0,-3.199988604,10.39999372,1,0,0,0,50,50,68,1,,,,,,,,
,,,,,,,,,,,,,FF,,,,,,,,1.5293,,,,,,,,,,,,,,,,,,,,,,60fdda59e83450ae5a0f83e6,61036aafb4e8cd61018fe0eb,2021-07-29_22h02.00.322,Simcolourproject_2stim_asymm_v5,2020.2.10,Win32,60,61025ae37ef11b136ea224fe,,,,,,,,,3781,-86.39994102,-27.20000684,1,0,0,response5disk,,2,5.600060356,-8.800006568,1,0,0,rectangle,5.600060356,-8.800006568,1,0,0,5.600060356,-8.800006568,1,0,0,0,51,51,13,1,,,,,,,,
,,,,,,,,,,,,,FF,,,,,,,,0.9336,,,,,,,,,,,,,,,,,,,,,,60fdda59e83450ae5a0f83e6,61036aafb4e8cd61018fe0eb,2021-07-29_22h02.00.322,Simcolourproject_2stim_asymm_v5,2020.2.10,Win32,60,61025ae37ef11b136ea224fe,,,,,,,,,1861,63.20001239,125.5999954,1,0,0,response1disk,,7,-12.79998875,10.39999372,1,0,0,rectangle,-12.79998875,10.39999372,1,0,0,-12.79998875,10.39999372,1,0,0,0,52,52,125,1,,,,,,,,
,,,,,,,,,,,,,FF,,,,,,,,1.6676,,,,,,,,,,,,,,,,,,,,,,60fdda59e83450ae5a0f83e6,61036aafb4e8cd61018fe0eb,2021-07-29_22h02.00.322,Simcolourproject_2stim_asymm_v5,2020.2.10,Win32,60,61025ae37ef11b136ea224fe,,,,,,,,,3342,-113.5999902,-53.60000724,1,0,0,response5disk,,2,-11.99998873,-3.200006485,1,0,0,rectangle,-11.99998873,-3.200006485,1,0,0,-11.99998873,-3.200006485,1,0,0,0,53,53,80,1,,,,,,,,
,,,,,,,,,,,,,FF,,,,,,,,1.1958,,,,,,,,,,,,,,,,,,,,,,60fdda59e83450ae5a0f83e6,61036aafb4e8cd61018fe0eb,2021-07-29_22h02.00.322,Simcolourproject_2stim_asymm_v5,2020.2.10,Win32,60,61025ae37ef11b136ea224fe,,,,,,,,,817,-45.59998924,-78.40000761,1,0,0,response5disk,,3,-1.59998858,-5.600006521,1,0,0,rectangle,-1.59998858,-5.600006521,1,0,0,-1.59998858,-5.600006521,1,0,0,0,54,54,9,1,,,,,,,,
,,,,,,,,,,,,,FF,,,,,,,,0.8678,,,,,,,,,,,,,,,,,,,,,,60fdda59e83450ae5a0f83e6,61036aafb4e8cd61018fe0eb,2021-07-29_22h02.00.322,Simcolourproject_2stim_asymm_v5,2020.2.10,Win32,60,61025ae37ef11b136ea224fe,,,,,,,,,231,72.80001253,-37.600007,1,0,0,response3disk,,5,8.000011563,-5.600006521,1,0,0,rectangle,8.000011563,-5.600006521,1,0,0,8.000011563,-5.600006521,1,0,0,0,55,55,94,1,,,,,,,,
,,,,,,,,,,,,,FF,,,,,,,,2.6129,,,,,,,,,,,,,,,,,,,,,,60fdda59e83450ae5a0f83e6,61036aafb4e8cd61018fe0eb,2021-07-29_22h02.00.322,Simcolourproject_2stim_asymm_v5,2020.2.10,Win32,60,61025ae37ef11b136ea224fe,,,,,,,,,1551,46.40001214,-128.0000083,1,0,0,response3disk,,4,-4.799988627,8.799993694,1,0,0,rectangle,-4.799988627,8.799993694,1,0,0,-4.799988627,8.799993694,1,0,0,0,56,56,31,1,,,,,,,,
,,,,,,,,,,,,,FF,,,,,,,,0.9679,,,,,,,,,,,,,,,,,,,,,,60fdda59e83450ae5a0f83e6,61036aafb4e8cd61018fe0eb,2021-07-29_22h02.00.322,Simcolourproject_2stim_asymm_v5,2020.2.10,Win32,60,61025ae37ef11b136ea224fe,,,,,,,,,4173,30.4000119,70.39999461,1,0,0,response1disk,,7,8.800011575,-0.800006449,1,0,0,rectangle,8.800011575,-0.800006449,1,0,0,8.800011575,-0.800006449,1,0,0,0,57,57,53,1,,,,,,,,
,,,,,,,,,,,,,FF,,,,,,,,1.2831,,,,,,,,,,,,,,,,,,,,,,60fdda59e83450ae5a0f83e6,61036aafb4e8cd61018fe0eb,2021-07-29_22h02.00.322,Simcolourproject_2stim_asymm_v5,2020.2.10,Win32,60,61025ae37ef11b136ea224fe,,,,,,,,,2937,37.60006083,-106.400008,1,0,0,response3disk,,4,-18.39994,13.59999377,1,0,0,rectangle,-18.39994,13.59999377,1,0,0,-18.39994,13.59999377,1,0,0,0,58,58,131,1,,,,,,,,
,,,,,,,,,,,,,FF,,,,,,,,1.1495,,,,,,,,,,,,,,,,,,,,,,60fdda59e83450ae5a0f83e6,61036aafb4e8cd61018fe0eb,2021-07-29_22h02.00.322,Simcolourproject_2stim_asymm_v5,2020.2.10,Win32,60,61025ae37ef11b136ea224fe,,,,,,,,,2178,110.4000131,-62.40000737,1,0,0,response3disk,,5,0.800011456,2.399993598,1,0,0,rectangle,-98.39994119,56.79999441,1,0,0,-12.79998875,0.799993575,1,0,0,0,59,59,88,1,,response7disk_3,TRUE,1,1,"[195,240,10,127,186,147,235,27,4,78,122,209,290,321,228,60,229,128,280,13]",1.716,rectangle
,,,,,,,,,,,,,FF,,,,,,,,0.8323,,,,,,,,,,,,,,,,,,,,,,60fdda59e83450ae5a0f83e6,61036aafb4e8cd61018fe0eb,2021-07-29_22h02.00.322,Simcolourproject_2stim_asymm_v5,2020.2.10,Win32,60,61025ae37ef11b136ea224fe,,,,,,,,,3909,-85.59998983,-36.00000697,1,0,0,response5disk,,2,8.800011575,3.999993622,1,0,0,rectangle,8.800011575,3.999993622,1,0,0,8.800011575,3.999993622,1,0,0,0,60,60,62,1,,,,,,,,
,,,,,,,,,,,,,FF,,,,,,,,0.7676,,,,,,,,,,,,,,,,,,,,,,60fdda59e83450ae5a0f83e6,61036aafb4e8cd61018fe0eb,2021-07-29_22h02.00.322,Simcolourproject_2stim_asymm_v5,2020.2.10,Win32,60,61025ae37ef11b136ea224fe,,,,,,,,,3933,-50.39994048,-80.00000763,1,0,0,response5disk,,3,16.00001168,7.999993682,1,0,0,rectangle,16.00001168,7.999993682,1,0,0,16.00001168,7.999993682,1,0,0,0,61,61,106,1,,,,,,,,
,,,,,,,,,,,,,FF,,,,,,,,0.9339,,,,,,,,,,,,,,,,,,,,,,60fdda59e83450ae5a0f83e6,61036aafb4e8cd61018fe0eb,2021-07-29_22h02.00.322,Simcolourproject_2stim_asymm_v5,2020.2.10,Win32,60,61025ae37ef11b136ea224fe,,,,,,,,,578,48.80001217,-56.80000728,1,0,0,response3disk,,4,5.600060356,0.799993575,1,0,0,rectangle,5.600060356,0.799993575,1,0,0,5.600060356,0.799993575,1,0,0,0,62,62,104,1,,,,,,,,
,,,,,,,,,,,,,FF,,,,,,,,0.9834,,,,,,,,,,,,,,,,,,,,,,60fdda59e83450ae5a0f83e6,61036aafb4e8cd61018fe0eb,2021-07-29_22h02.00.322,Simcolourproject_2stim_asymm_v5,2020.2.10,Win32,60,61025ae37ef11b136ea224fe,,,,,,,,,4270,-53.59998935,-99.20000792,1,0,0,response5disk,,3,2.40001148,-6.4373E-06,1,0,0,rectangle,2.40001148,-6.4373E-06,1,0,0,2.40001148,-6.4373E-06,1,0,0,0,63,63,153,1,,,,,,,,
,,,,,,,,,,,,,FF,,,,,,,,0.9199,,,,,,,,,,,,,,,,,,,,,,60fdda59e83450ae5a0f83e6,61036aafb4e8cd61018fe0eb,2021-07-29_22h02.00.322,Simcolourproject_2stim_asymm_v5,2020.2.10,Win32,60,61025ae37ef11b136ea224fe,,,,,,,,,2666,-86.39994102,-32.80000693,1,0,0,response5disk,,2,-15.99998879,4.799993634,1,0,0,rectangle,-15.99998879,4.799993634,1,0,0,-15.99998879,4.799993634,1,0,0,0,64,64,120,1,,,,,,,,
,,,,,,,,,,,,,FF,,,,,,,,1.7004,,,,,,,,,,,,,,,,,,,,,,60fdda59e83450ae5a0f83e6,61036aafb4e8cd61018fe0eb,2021-07-29_22h02.00.322,Simcolourproject_2stim_asymm_v5,2020.2.10,Win32,60,61025ae37ef11b136ea224fe,,,,,,,,,3355,45.60006095,-90.40000778,1,0,0,response3disk,,4,-2.399939764,1.599993587,1,0,0,rectangle,-2.399939764,1.599993587,1,0,0,-2.399939764,1.599993587,1,0,0,0,65,65,36,1,,,,,,,,
,,,,,,,,,,,,,FF,,,,,,,,0.8962,,,,,,,,,,,,,,,,,,,,,,60fdda59e83450ae5a0f83e6,61036aafb4e8cd61018fe0eb,2021-07-29_22h02.00.322,Simcolourproject_2stim_asymm_v5,2020.2.10,Win32,60,61025ae37ef11b136ea224fe,,,,,,,,,3098,-105.5999901,55.19996997,1,0,0,response7disk,,1,-22.39994006,8.799993694,1,0,0,rectangle,-22.39994006,8.799993694,1,0,0,-22.39994006,8.799993694,1,0,0,0,66,66,24,1,,,,,,,,
,,,,,,,,,,,,,FF,,,,,,,,0.7401,,,,,,,,,,,,,,,,,,,,,,60fdda59e83450ae5a0f83e6,61036aafb4e8cd61018fe0eb,2021-07-29_22h02.00.322,Simcolourproject_2stim_asymm_v5,2020.2.10,Win32,60,61025ae37ef11b136ea224fe,,,,,,,,,1425,38.40001202,109.5999952,1,0,0,response1disk,,7,-4.799988627,-3.200006485,1,0,0,rectangle,-4.799988627,-3.200006485,1,0,0,-4.799988627,-3.200006485,1,0,0,0,67,67,102,1,,,,,,,,
,,,,,,,,,,,,,FF,,,,,,,,1.7177,,,,,,,,,,,,,,,,,,,,,,60fdda59e83450ae5a0f83e6,61036aafb4e8cd61018fe0eb,2021-07-29_22h02.00.322,Simcolourproject_2stim_asymm_v5,2020.2.10,Win32,60,61025ae37ef11b136ea224fe,,,,,,,,,353,34.40001196,-118.4000082,1,0,0,response3disk,,4,5.600060356,-1.600006461,1,0,0,rectangle,5.600060356,-1.600006461,1,0,0,5.600060356,-1.600006461,1,0,0,0,68,68,78,1,,,,,,,,
,,,,,,,,,,,,,FF,,,,,,,,0.964,,,,,,,,,,,,,,,,,,,,,,60fdda59e83450ae5a0f83e6,61036aafb4e8cd61018fe0eb,2021-07-29_22h02.00.322,Simcolourproject_2stim_asymm_v5,2020.2.10,Win32,60,61025ae37ef11b136ea224fe,,,,,,,,,1584,100.0000129,-45.60000712,1,0,0,response3disk,,5,-23.99998891,3.19999361,1,0,0,rectangle,-23.99998891,3.19999361,1,0,0,-23.99998891,3.19999361,1,0,0,0,69,69,46,1,,,,,,,,
,,,,,,,,,,,,,FF,,,,,,,,1.2497,,,,,,,,,,,,,,,,,,,,,,60fdda59e83450ae5a0f83e6,61036aafb4e8cd61018fe0eb,2021-07-29_22h02.00.322,Simcolourproject_2stim_asymm_v5,2020.2.10,Win32,60,61025ae37ef11b136ea224fe,,,,,,,,,1187,90.40001279,-51.2000072,1,0,0,response3disk,,5,24.80001181,0.799993575,1,0,0,rectangle,24.80001181,0.799993575,1,0,0,24.80001181,0.799993575,1,0,0,0,70,70,155,1,,,,,,,,
,,,,,,,,,,,,,FF,,,,,,,,1.2495,,,,,,,,,,,,,,,,,,,,,,60fdda59e83450ae5a0f83e6,61036aafb4e8cd61018fe0eb,2021-07-29_22h02.00.322,Simcolourproject_2stim_asymm_v5,2020.2.10,Win32,60,61025ae37ef11b136ea224fe,,,,,,,,,3934,-57.59998941,-99.20000792,1,0,0,response5disk,,3,-7.199988663,-8.800006568,1,0,0,rectangle,-7.199988663,-8.800006568,1,0,0,-7.199988663,-8.800006568,1,0,0,0,71,71,150,1,,,,,,,,
,,,,,,,,,,,,,FF,,,,,,,,1.0842,,,,,,,,,,,,,,,,,,,,,,60fdda59e83450ae5a0f83e6,61036aafb4e8cd61018fe0eb,2021-07-29_22h02.00.322,Simcolourproject_2stim_asymm_v5,2020.2.10,Win32,60,61025ae37ef11b136ea224fe,,,,,,,,,4049,-94.39994113,-57.6000073,1,0,0,response5disk,,2,-6.399939823,4.799993634,1,0,0,rectangle,-6.399939823,4.799993634,1,0,0,-6.399939823,4.799993634,1,0,0,0,72,72,51,1,,,,,,,,
,,,,,,,,,,,,,FF,,,,,,,,1.0165,,,,,,,,,,,,,,,,,,,,,,60fdda59e83450ae5a0f83e6,61036aafb4e8cd61018fe0eb,2021-07-29_22h02.00.322,Simcolourproject_2stim_asymm_v5,2020.2.10,Win32,60,61025ae37ef11b136ea224fe,,,,,,,,,3648,88.80001277,-38.40000701,1,0,0,response3disk,,5,-13.59998876,1.599993587,1,0,0,rectangle,-13.59998876,1.599993587,1,0,0,-13.59998876,1.599993587,1,0,0,0,73,73,27,1,,,,,,,,
,,,,,,,,,,,,,FF,,,,,,,,1.5332,,,,,,,,,,,,,,,,,,,,,,60fdda59e83450ae5a0f83e6,61036aafb4e8cd61018fe0eb,2021-07-29_22h02.00.322,Simcolourproject_2stim_asymm_v5,2020.2.10,Win32,60,61025ae37ef11b136ea224fe,,,,,,,,,2760,49.60006101,109.5999952,1,0,0,response1disk,,7,-15.99998879,-1.600006461,1,0,0,rectangle,-15.99998879,-1.600006461,1,0,0,-15.99998879,-1.600006461,1,0,0,0,74,74,96,1,,,,,,,,
,,,,,,,,,,,,,FF,,,,,,,,1.035,,,,,,,,,,,,,,,,,,,,,,60fdda59e83450ae5a0f83e6,61036aafb4e8cd61018fe0eb,2021-07-29_22h02.00.322,Simcolourproject_2stim_asymm_v5,2020.2.10,Win32,60,61025ae37ef11b136ea224fe,,,,,,,,,3890,56.80001229,92.79999495,1,0,0,response1disk,,7,-1.59998858,-6.400006533,1,0,0,rectangle,-1.59998858,-6.400006533,1,0,0,-1.59998858,-6.400006533,1,0,0,0,75,75,124,1,,,,,,,,
,,,,,,,,,,,,,FF,,,,,,,,1.1001,,,,,,,,,,,,,,,,,,,,,,60fdda59e83450ae5a0f83e6,61036aafb4e8cd61018fe0eb,2021-07-29_22h02.00.322,Simcolourproject_2stim_asymm_v5,2020.2.10,Win32,60,61025ae37ef11b136ea224fe,,,,,,,,,2171,-89.59998989,65.59999454,1,0,0,response7disk,,1,-6.399939823,-0.800006449,1,0,0,rectangle,-6.399939823,-0.800006449,1,0,0,-6.399939823,-0.800006449,1,0,0,0,76,76,141,1,,,,,,,,
,,,,,,,,,,,,,FF,,,,,,,,0.8348,,,,,,,,,,,,,,,,,,,,,,60fdda59e83450ae5a0f83e6,61036aafb4e8cd61018fe0eb,2021-07-29_22h02.00.322,Simcolourproject_2stim_asymm_v5,2020.2.10,Win32,60,61025ae37ef11b136ea224fe,,,,,,,,,1452,-20.79998887,126.3999954,1,0,0,response7disk,,0,5.600060356,7.999993682,1,0,0,rectangle,-44.79998922,84.79999483,1,0,0,-13.59998876,1.599993587,1,0,0,0,77,77,3,1,,response7disk_3,TRUE,0,0,"[195,240,10,127,186,147,235,27,4,78,122,209,290,321,228,60,229,128,280,13]",1.3553,rectangle
,,,,,,,,,,,,,FF,,,,,,,,0.7454,,,,,,,,,,,,,,,,,,,,,,60fdda59e83450ae5a0f83e6,61036aafb4e8cd61018fe0eb,2021-07-29_22h02.00.322,Simcolourproject_2stim_asymm_v5,2020.2.10,Win32,60,61025ae37ef11b136ea224fe,,,,,,,,,4254,-88.79998988,-40.00000703,1,0,0,response5disk,,2,4.000011504,-5.600006521,1,0,0,rectangle,4.000011504,-5.600006521,1,0,0,4.000011504,-5.600006521,1,0,0,0,78,78,48,1,,,,,,,,
,,,,,,,,,,,,,FF,,,,,,,,0.7845,,,,,,,,,,,,,,,,,,,,,,60fdda59e83450ae5a0f83e6,61036aafb4e8cd61018fe0eb,2021-07-29_22h02.00.322,Simcolourproject_2stim_asymm_v5,2020.2.10,Win32,60,61025ae37ef11b136ea224fe,,,,,,,,,3705,-44.79998922,80.79999477,1,0,0,response7disk,,0,3.200011492,11.19999373,1,0,0,rectangle,3.200011492,11.19999373,1,0,0,3.200011492,11.19999373,1,0,0,0,79,79,158,1,,,,,,,,
,,,,,,,,,,,,,FF,,,,,,,,1.2342,,,,,,,,,,,,,,,,,,,,,,60fdda59e83450ae5a0f83e6,61036aafb4e8cd61018fe0eb,2021-07-29_22h02.00.322,Simcolourproject_2stim_asymm_v5,2020.2.10,Win32,60,61025ae37ef11b136ea224fe,,,,,,,,,337,84.80001271,-36.00000697,1,0,0,response3disk,,5,25.60006065,11.99999374,1,0,0,rectangle,25.60006065,11.99999374,1,0,0,25.60006065,11.99999374,1,0,0,0,80,80,4,1,,,,,,,,
,,,,,,,,,,,,,FF,,,,,,,,1.9497,,,,,,,,,,,,,,,,,,,,,,60fdda59e83450ae5a0f83e6,61036aafb4e8cd61018fe0eb,2021-07-29_22h02.00.322,Simcolourproject_2stim_asymm_v5,2020.2.10,Win32,60,61025ae37ef11b136ea224fe,,,,,,,,,2435,83.20001268,-60.80000734,1,0,0,response3disk,,5,6.400011539,0.799993575,1,0,0,rectangle,6.400011539,0.799993575,1,0,0,6.400011539,0.799993575,1,0,0,0,81,81,109,1,,,,,,,,
,,,,,,,,,,,,,FF,,,,,,,,1.1839,,,,,,,,,,,,,,,,,,,,,,60fdda59e83450ae5a0f83e6,61036aafb4e8cd61018fe0eb,2021-07-29_22h02.00.322,Simcolourproject_2stim_asymm_v5,2020.2.10,Win32,60,61025ae37ef11b136ea224fe,,,,,,,,,3061,55.20001227,-96.00000787,1,0,0,response3disk,,4,-0.799988568,-1.600006461,1,0,0,rectangle,-0.799988568,-1.600006461,1,0,0,-0.799988568,-1.600006461,1,0,0,0,82,82,39,1,,,,,,,,
,,,,,,,,,,,,,FF,,,,,,,,1.0676,,,,,,,,,,,,,,,,,,,,,,60fdda59e83450ae5a0f83e6,61036aafb4e8cd61018fe0eb,2021-07-29_22h02.00.322,Simcolourproject_2stim_asymm_v5,2020.2.10,Win32,60,61025ae37ef11b136ea224fe,,,,,,,,,425,100.0000129,48.79999429,1,0,0,response1disk,,6,18.40001172,-6.400006533,1,0,0,rectangle,18.40001172,-6.400006533,1,0,0,18.40001172,-6.400006533,1,0,0,0,83,83,112,1,,,,,,,,
,,,,,,,,,,,,,FF,,,,,,,,0.781,,,,,,,,,,,,,,,,,,,,,,60fdda59e83450ae5a0f83e6,61036aafb4e8cd61018fe0eb,2021-07-29_22h02.00.322,Simcolourproject_2stim_asymm_v5,2020.2.10,Win32,60,61025ae37ef11b136ea224fe,,,,,,,,,1287,76.00001258,-46.40000713,1,0,0,response3disk,,5,4.800011516,-12.00000662,1,0,0,rectangle,4.800011516,-12.00000662,1,0,0,4.800011516,-12.00000662,1,0,0,0,84,84,41,1,,,,,,,,
,,,,,,,,,,,,,FF,,,,,,,,1.0182,,,,,,,,,,,,,,,,,,,,,,60fdda59e83450ae5a0f83e6,61036aafb4e8cd61018fe0eb,2021-07-29_22h02.00.322,Simcolourproject_2stim_asymm_v5,2020.2.10,Win32,60,61025ae37ef11b136ea224fe,,,,,,,,,2250,88.00001276,-39.20000702,1,0,0,response3disk,,5,15.20001167,-10.40000659,1,0,0,rectangle,15.20001167,-10.40000659,1,0,0,15.20001167,-10.40000659,1,0,0,0,85,85,100,1,,,,,,,,
,,,,,,,,,,,,,FF,,,,,,,,0.7337,,,,,,,,,,,,,,,,,,,,,,60fdda59e83450ae5a0f83e6,61036aafb4e8cd61018fe0eb,2021-07-29_22h02.00.322,Simcolourproject_2stim_asymm_v5,2020.2.10,Win32,60,61025ae37ef11b136ea224fe,,,,,,,,,2858,110.4000131,-48.00000715,1,0,0,response3disk,,5,22.40001178,3.19999361,1,0,0,rectangle,22.40001178,3.19999361,1,0,0,22.40001178,3.19999361,1,0,0,0,86,86,113,1,,,,,,,,
,,,,,,,,,,,,,FF,,,,,,,,1.2009,,,,,,,,,,,,,,,,,,,,,,60fdda59e83450ae5a0f83e6,61036aafb4e8cd61018fe0eb,2021-07-29_22h02.00.322,Simcolourproject_2stim_asymm_v5,2020.2.10,Win32,60,61025ae37ef11b136ea224fe,,,,,,,,,3913,-44.79998922,-98.4000079,1,0,0,response5disk,,3,4.800011516,-6.4373E-06,1,0,0,rectangle,4.800011516,-6.4373E-06,1,0,0,4.800011516,-6.4373E-06,1,0,0,0,87,87,159,1,,,,,,,,
,,,,,,,,,,,,,FF,,,,,,,,1.2678,,,,,,,,,,,,,,,,,,,,,,60fdda59e83450ae5a0f83e6,61036aafb4e8cd61018fe0eb,2021-07-29_22h02.00.322,Simcolourproject_2stim_asymm_v5,2020.2.10,Win32,60,61025ae37ef11b136ea224fe,,,,,,,,,776,115.2000132,47.19996985,1,0,0,response1disk,,6,6.400011539,8.799993694,1,0,0,rectangle,6.400011539,8.799993694,1,0,0,6.400011539,8.799993694,1,0,0,0,88,88,148,1,,,,,,,,
,,,,,,,,,,,,,FF,,,,,,,,4.1832,,,,,,,,,,,,,,,,,,,,,,60fdda59e83450ae5a0f83e6,61036aafb4e8cd61018fe0eb,2021-07-29_22h02.00.322,Simcolourproject_2stim_asymm_v5,2020.2.10,Win32,60,61025ae37ef11b136ea224fe,,,,,,,,,1884,95.20001286,-52.00000721,1,0,0,response3disk,,5,-1.59998858,11.19999373,1,0,0,rectangle,-1.59998858,11.19999373,1,0,0,-1.59998858,11.19999373,1,0,0,0,89,89,99,1,,,,,,,,
,,,,,,,,,,,,,FF,,,,,,,,1.7342,,,,,,,,,,,,,,,,,,,,,,60fdda59e83450ae5a0f83e6,61036aafb4e8cd61018fe0eb,2021-07-29_22h02.00.322,Simcolourproject_2stim_asymm_v5,2020.2.10,Win32,60,61025ae37ef11b136ea224fe,,,,,,,,,129,103.200013,-32.80000693,1,0,0,response3disk,,5,20.80001175,3.999993622,1,0,0,rectangle,20.80001175,3.999993622,1,0,0,20.80001175,3.999993622,1,0,0,0,90,90,67,1,,,,,,,,
,,,,,,,,,,,,,FF,,,,,,,,1.5503,,,,,,,,,,,,,,,,,,,,,,60fdda59e83450ae5a0f83e6,61036aafb4e8cd61018fe0eb,2021-07-29_22h02.00.322,Simcolourproject_2stim_asymm_v5,2020.2.10,Win32,60,61025ae37ef11b136ea224fe,,,,,,,,,2629,48.80001217,-79.20000762,1,0,0,response3disk,,4,4.800011516,-9.60000658,1,0,0,rectangle,4.800011516,-9.60000658,1,0,0,4.800011516,-9.60000658,1,0,0,0,91,91,60,1,,,,,,,,
,,,,,,,,,,,,,FF,,,,,,,,0.9169,,,,,,,,,,,,,,,,,,,,,,60fdda59e83450ae5a0f83e6,61036aafb4e8cd61018fe0eb,2021-07-29_22h02.00.322,Simcolourproject_2stim_asymm_v5,2020.2.10,Win32,60,61025ae37ef11b136ea224fe,,,,,,,,,1036,-37.59998912,-110.4000081,1,0,0,response5disk,,3,7.200011551,-1.600006461,1,0,0,rectangle,7.200011551,-1.600006461,1,0,0,7.200011551,-1.600006461,1,0,0,0,92,92,130,1,,,,,,,,
,,,,,,,,,,,,,FF,,,,,,,,1.3499,,,,,,,,,,,,,,,,,,,,,,60fdda59e83450ae5a0f83e6,61036aafb4e8cd61018fe0eb,2021-07-29_22h02.00.322,Simcolourproject_2stim_asymm_v5,2020.2.10,Win32,60,61025ae37ef11b136ea224fe,,,,,,,,,3798,36.00001198,113.5999953,1,0,0,response1disk,,7,19.20001173,3.19999361,1,0,0,rectangle,19.20001173,3.19999361,1,0,0,19.20001173,3.19999361,1,0,0,0,93,93,117,1,,,,,,,,
,,,,,,,,,,,,,FF,,,,,,,,0.7846,,,,,,,,,,,,,,,,,,,,,,60fdda59e83450ae5a0f83e6,61036aafb4e8cd61018fe0eb,2021-07-29_22h02.00.322,Simcolourproject_2stim_asymm_v5,2020.2.10,Win32,60,61025ae37ef11b136ea224fe,,,,,,,,,3370,37.60006083,83.99999481,1,0,0,response1disk,,7,-9.599988699,-5.600006521,1,0,0,rectangle,-9.599988699,-5.600006521,1,0,0,-9.599988699,-5.600006521,1,0,0,0,94,94,69,1,,,,,,,,
,,,,,,,,,,,,,FF,,,,,,,,1.284,,,,,,,,,,,,,,,,,,,,,,60fdda59e83450ae5a0f83e6,61036aafb4e8cd61018fe0eb,2021-07-29_22h02.00.322,Simcolourproject_2stim_asymm_v5,2020.2.10,Win32,60,61025ae37ef11b136ea224fe,,,,,,,,,3186,92.00001281,-32.80000693,1,0,0,response3disk,,5,0.800011456,-12.00000662,1,0,0,rectangle,0.800011456,-12.00000662,1,0,0,0.800011456,-12.00000662,1,0,0,0,95,95,156,1,,,,,,,,
,,,,,,,,,,,,,FF,,,,,,,,1,,,,,,,,,,,,,,,,,,,,,,60fdda59e83450ae5a0f83e6,61036aafb4e8cd61018fe0eb,2021-07-29_22h02.00.322,Simcolourproject_2stim_asymm_v5,2020.2.10,Win32,60,61025ae37ef11b136ea224fe,,,,,,,,,2189,44.0000121,70.39999461,1,0,0,response1disk,,7,8.000011563,-4.800006509,1,0,0,rectangle,8.000011563,-4.800006509,1,0,0,8.000011563,-4.800006509,1,0,0,0,96,96,152,1,,,,,,,,
,,,,,,,,,,,,,FF,,,,,,,,1.1347,,,,,,,,,,,,,,,,,,,,,,60fdda59e83450ae5a0f83e6,61036aafb4e8cd61018fe0eb,2021-07-29_22h02.00.322,Simcolourproject_2stim_asymm_v5,2020.2.10,Win32,60,61025ae37ef11b136ea224fe,,,,,,,,,4366,-93.59998995,46.39999425,1,0,0,response7disk,,1,4.800011516,14.39999378,1,0,0,rectangle,4.800011516,14.39999378,1,0,0,4.800011516,14.39999378,1,0,0,0,97,97,146,1,,,,,,,,
,,,,,,,,,,,,,FF,,,,,,,,0.7662,,,,,,,,,,,,,,,,,,,,,,60fdda59e83450ae5a0f83e6,61036aafb4e8cd61018fe0eb,2021-07-29_22h02.00.322,Simcolourproject_2stim_asymm_v5,2020.2.10,Win32,60,61025ae37ef11b136ea224fe,,,,,,,,,3117,94.40001285,-33.60000694,1,0,0,response3disk,,5,12.80001163,-11.2000066,1,0,0,rectangle,12.80001163,-11.2000066,1,0,0,12.80001163,-11.2000066,1,0,0,0,98,98,47,1,,,,,,,,
,,,,,,,,,,,,,FF,,,,,,,,1.1389,,,,,,,,,,,,,,,,,,,,,,60fdda59e83450ae5a0f83e6,61036aafb4e8cd61018fe0eb,2021-07-29_22h02.00.322,Simcolourproject_2stim_asymm_v5,2020.2.10,Win32,60,61025ae37ef11b136ea224fe,,,,,,,,,3106,-93.59998995,-52.80000722,1,0,0,response5disk,,2,16.00001168,-8.000006557,1,0,0,rectangle,16.00001168,-8.000006557,1,0,0,16.00001168,-8.000006557,1,0,0,0,99,99,21,1,,,,,,,,
,,,,,,,,,,,,,FF,,,,,,,,0.8515,,,,,,,,,,,,,,,,,,,,,,60fdda59e83450ae5a0f83e6,61036aafb4e8cd61018fe0eb,2021-07-29_22h02.00.322,Simcolourproject_2stim_asymm_v5,2020.2.10,Win32,60,61025ae37ef11b136ea224fe,,,,,,,,,3296,-89.59998989,-56.80000728,1,0,0,response5disk,,2,-4.799988627,-7.200006545,1,0,0,rectangle,-4.799988627,-7.200006545,1,0,0,-4.799988627,-7.200006545,1,0,0,0,100,100,25,1,,,,,,,,
,,,,,,,,,,,,,FF,,,,,,,,0.6674,,,,,,,,,,,,,,,,,,,,,,60fdda59e83450ae5a0f83e6,61036aafb4e8cd61018fe0eb,2021-07-29_22h02.00.322,Simcolourproject_2stim_asymm_v5,2020.2.10,Win32,60,61025ae37ef11b136ea224fe,,,,,,,,,1896,-90.39994107,-45.60000712,1,0,0,response5disk,,2,-10.39993988,3.19999361,1,0,0,rectangle,-10.39993988,3.19999361,1,0,0,-10.39993988,3.19999361,1,0,0,0,101,101,19,1,,,,,,,,
,,,,,,,,,,,,,FF,,,,,,,,0.651,,,,,,,,,,,,,,,,,,,,,,60fdda59e83450ae5a0f83e6,61036aafb4e8cd61018fe0eb,2021-07-29_22h02.00.322,Simcolourproject_2stim_asymm_v5,2020.2.10,Win32,60,61025ae37ef11b136ea224fe,,,,,,,,,96,-76.7999897,-21.60000676,1,0,0,response5disk,,2,-3.199988604,8.799993694,1,0,0,rectangle,-3.199988604,8.799993694,1,0,0,-3.199988604,8.799993694,1,0,0,0,102,102,83,1,,,,,,,,
,,,,,,,,,,,,,FF,,,,,,,,0.8138,,,,,,,,,,,,,,,,,,,,,,60fdda59e83450ae5a0f83e6,61036aafb4e8cd61018fe0eb,2021-07-29_22h02.00.322,Simcolourproject_2stim_asymm_v5,2020.2.10,Win32,60,61025ae37ef11b136ea224fe,,,,,,,,,2083,108.8000131,-40.80000705,1,0,0,response3disk,,5,-3.999988616,15.9999938,1,0,0,rectangle,-3.999988616,15.9999938,1,0,0,-3.999988616,15.9999938,1,0,0,0,103,103,66,1,,,,,,,,
,,,,,,,,,,,,,FF,,,,,,,,1.1505,,,,,,,,,,,,,,,,,,,,,,60fdda59e83450ae5a0f83e6,61036aafb4e8cd61018fe0eb,2021-07-29_22h02.00.322,Simcolourproject_2stim_asymm_v5,2020.2.10,Win32,60,61025ae37ef11b136ea224fe,,,,,,,,,1253,28.00001186,67.19997015,1,0,0,response1disk,,7,-21.59998888,-8.000006557,1,0,0,rectangle,-21.59998888,-8.000006557,1,0,0,-21.59998888,-8.000006557,1,0,0,0,104,104,122,1,,,,,,,,
,,,,,,,,,,,,,FF,,,,,,,,0.8182,,,,,,,,,,,,,,,,,,,,,,60fdda59e83450ae5a0f83e6,61036aafb4e8cd61018fe0eb,2021-07-29_22h02.00.322,Simcolourproject_2stim_asymm_v5,2020.2.10,Win32,60,61025ae37ef11b136ea224fe,,,,,,,,,3709,-91.99998993,-37.600007,1,0,0,response5disk,,2,15.20001167,-7.200006545,1,0,0,rectangle,15.20001167,-7.200006545,1,0,0,15.20001167,-7.200006545,1,0,0,0,105,105,111,1,,,,,,,,
,,,,,,,,,,,,,FF,,,,,,,,0.9125,,,,,,,,,,,,,,,,,,,,,,60fdda59e83450ae5a0f83e6,61036aafb4e8cd61018fe0eb,2021-07-29_22h02.00.322,Simcolourproject_2stim_asymm_v5,2020.2.10,Win32,60,61025ae37ef11b136ea224fe,,,,,,,,,292,74.40001255,60.79999447,1,0,0,response1disk,,6,2.40001148,3.19999361,1,0,0,rectangle,2.40001148,3.19999361,1,0,0,2.40001148,3.19999361,1,0,0,0,106,106,118,1,,,,,,,,
,,,,,,,,,,,,,FF,,,,,,,,1.2668,,,,,,,,,,,,,,,,,,,,,,60fdda59e83450ae5a0f83e6,61036aafb4e8cd61018fe0eb,2021-07-29_22h02.00.322,Simcolourproject_2stim_asymm_v5,2020.2.10,Win32,60,61025ae37ef11b136ea224fe,,,,,,,,,326,58.40001231,109.5999952,1,0,0,response1disk,,7,-21.59998888,-9.60000658,1,0,0,rectangle,-21.59998888,-9.60000658,1,0,0,-21.59998888,-9.60000658,1,0,0,0,107,107,44,1,,,,,,,,
,,,,,,,,,,,,,FF,,,,,,,,1.0344,,,,,,,,,,,,,,,,,,,,,,60fdda59e83450ae5a0f83e6,61036aafb4e8cd61018fe0eb,2021-07-29_22h02.00.322,Simcolourproject_2stim_asymm_v5,2020.2.10,Win32,60,61025ae37ef11b136ea224fe,,,,,,,,,2547,42.40001208,-80.80000764,1,0,0,response3disk,,4,-3.999988616,-4.800006509,1,0,0,rectangle,-3.999988616,-4.800006509,1,0,0,-3.999988616,-4.800006509,1,0,0,0,108,108,23,1,,,,,,,,
,,,,,,,,,,,,,FF,,,,,,,,1.1882,,,,,,,,,,,,,,,,,,,,,,60fdda59e83450ae5a0f83e6,61036aafb4e8cd61018fe0eb,2021-07-29_22h02.00.322,Simcolourproject_2stim_asymm_v5,2020.2.10,Win32,60,61025ae37ef11b136ea224fe,,,,,,,,,2,-75.99998969,-32.80000693,1,0,0,response5disk,,2,-5.599988639,3.19999361,1,0,0,rectangle,-5.599988639,3.19999361,1,0,0,-5.599988639,3.19999361,1,0,0,0,109,109,73,1,,,,,,,,
,,,,,,,,,,,,,FF,,,,,,,,1.5385,,,,,,,,,,,,,,,,,,,,,,60fdda59e83450ae5a0f83e6,61036aafb4e8cd61018fe0eb,2021-07-29_22h02.00.322,Simcolourproject_2stim_asymm_v5,2020.2.10,Win32,60,61025ae37ef11b136ea224fe,,,,,,,,,3278,96.80001289,51.99999434,1,0,0,response1disk,,6,-11.99998873,-4.800006509,1,0,0,rectangle,-11.99998873,-4.800006509,1,0,0,-11.99998873,-4.800006509,1,0,0,0,110,110,140,1,,,,,,,,
,,,,,,,,,,,,,FF,,,,,,,,0.7299,,,,,,,,,,,,,,,,,,,,,,60fdda59e83450ae5a0f83e6,61036aafb4e8cd61018fe0eb,2021-07-29_22h02.00.322,Simcolourproject_2stim_asymm_v5,2020.2.10,Win32,60,61025ae37ef11b136ea224fe,,,,,,,,,2964,36.80001199,85.59999484,1,0,0,response1disk,,7,6.400011539,1.599993587,1,0,0,rectangle,6.400011539,1.599993587,1,0,0,6.400011539,1.599993587,1,0,0,0,111,111,43,1,,,,,,,,
,,,,,,,,,,,,,FF,,,,,,,,0.6838,,,,,,,,,,,,,,,,,,,,,,60fdda59e83450ae5a0f83e6,61036aafb4e8cd61018fe0eb,2021-07-29_22h02.00.322,Simcolourproject_2stim_asymm_v5,2020.2.10,Win32,60,61025ae37ef11b136ea224fe,,,,,,,,,2916,121.6000133,56.79999441,1,0,0,response1disk,,6,6.400011539,7.999993682,1,0,0,rectangle,6.400011539,7.999993682,1,0,0,6.400011539,7.999993682,1,0,0,0,112,112,34,1,,,,,,,,
,,,,,,,,,,,,,FF,,,,,,,,0.9553,,,,,,,,,,,,,,,,,,,,,,60fdda59e83450ae5a0f83e6,61036aafb4e8cd61018fe0eb,2021-07-29_22h02.00.322,Simcolourproject_2stim_asymm_v5,2020.2.10,Win32,60,61025ae37ef11b136ea224fe,,,,,,,,,3218,97.6000129,31.19996961,1,0,0,response1disk,,6,12.00001162,-9.60000658,1,0,0,rectangle,12.00001162,-9.60000658,1,0,0,12.00001162,-9.60000658,1,0,0,0,113,113,64,1,,,,,,,,
,,,,,,,,,,,,,FF,,,,,,,,1.4504,,,,,,,,,,,,,,,,,,,,,,60fdda59e83450ae5a0f83e6,61036aafb4e8cd61018fe0eb,2021-07-29_22h02.00.322,Simcolourproject_2stim_asymm_v5,2020.2.10,Win32,60,61025ae37ef11b136ea224fe,,,,,,,,,868,48.80001217,-89.6000566,1,0,0,response3disk,,4,27.20001185,3.999993622,1,0,0,rectangle,27.20001185,3.999993622,1,0,0,27.20001185,3.999993622,1,0,0,0,114,114,49,1,,,,,,,,
,,,,,,,,,,,,,FF,,,,,,,,1.3844,,,,,,,,,,,,,,,,,,,,,,60fdda59e83450ae5a0f83e6,61036aafb4e8cd61018fe0eb,2021-07-29_22h02.00.322,Simcolourproject_2stim_asymm_v5,2020.2.10,Win32,60,61025ae37ef11b136ea224fe,,,,,,,,,2158,60.80001235,122.3999954,1,0,0,response1disk,,7,-7.199988663,3.19999361,1,0,0,rectangle,-7.199988663,3.19999361,1,0,0,-7.199988663,3.19999361,1,0,0,0,115,115,76,1,,,,,,,,
,,,,,,,,,,,,,FF,,,,,,,,1.5835,,,,,,,,,,,,,,,,,,,,,,60fdda59e83450ae5a0f83e6,61036aafb4e8cd61018fe0eb,2021-07-29_22h02.00.322,Simcolourproject_2stim_asymm_v5,2020.2.10,Win32,60,61025ae37ef11b136ea224fe,,,,,,,,,3065,36.80001199,-80.80000764,1,0,0,response3disk,,4,5.600060356,6.399993658,1,0,0,rectangle,5.600060356,6.399993658,1,0,0,5.600060356,6.399993658,1,0,0,0,116,116,137,1,,,,,,,,
,,,,,,,,,,,,,FF,,,,,,,,1.234,,,,,,,,,,,,,,,,,,,,,,60fdda59e83450ae5a0f83e6,61036aafb4e8cd61018fe0eb,2021-07-29_22h02.00.322,Simcolourproject_2stim_asymm_v5,2020.2.10,Win32,60,61025ae37ef11b136ea224fe,,,,,,,,,857,28.00001186,-110.4000081,1,0,0,response3disk,,4,-9.599988699,3.19999361,1,0,0,rectangle,-9.599988699,3.19999361,1,0,0,-9.599988699,3.19999361,1,0,0,0,117,117,129,1,,,,,,,,
,,,,,,,,,,,,,FF,,,,,,,,1.1169,,,,,,,,,,,,,,,,,,,,,,60fdda59e83450ae5a0f83e6,61036aafb4e8cd61018fe0eb,2021-07-29_22h02.00.322,Simcolourproject_2stim_asymm_v5,2020.2.10,Win32,60,61025ae37ef11b136ea224fe,,,,,,,,,2599,55.20001227,99.99999505,1,0,0,response1disk,,7,1.600060296,12.79999375,1,0,0,rectangle,1.600060296,12.79999375,1,0,0,1.600060296,12.79999375,1,0,0,0,118,118,22,1,,,,,,,,
,,,,,,,,,,,,,FF,,,,,,,,1.3009,,,,,,,,,,,,,,,,,,,,,,60fdda59e83450ae5a0f83e6,61036aafb4e8cd61018fe0eb,2021-07-29_22h02.00.322,Simcolourproject_2stim_asymm_v5,2020.2.10,Win32,60,61025ae37ef11b136ea224fe,,,,,,,,,2465,101.600013,32.79999405,1,0,0,response1disk,,6,1.600060296,-8.000006557,1,0,0,rectangle,1.600060296,-8.000006557,1,0,0,1.600060296,-8.000006557,1,0,0,0,119,119,70,1,,,,,,,,
,,,,,,,,,,,,,FF,,,,,,,,1.3509,,,,,,,,,,,,,,,,,,,,,,60fdda59e83450ae5a0f83e6,61036aafb4e8cd61018fe0eb,2021-07-29_22h02.00.322,Simcolourproject_2stim_asymm_v5,2020.2.10,Win32,60,61025ae37ef11b136ea224fe,,,,,,,,,1478,90.40001279,-30.40000689,1,0,0,response3disk,,5,28.80001187,3.19999361,1,0,0,rectangle,28.80001187,3.19999361,1,0,0,28.80001187,3.19999361,1,0,0,0,120,120,55,1,,,,,,,,
,,,,,,,,,,,,,FF,,,,,,,,0.8842,,,,,,,,,,,,,,,,,,,,,,60fdda59e83450ae5a0f83e6,61036aafb4e8cd61018fe0eb,2021-07-29_22h02.00.322,Simcolourproject_2stim_asymm_v5,2020.2.10,Win32,60,61025ae37ef11b136ea224fe,,,,,,,,,1816,-95.19998997,52.79999435,1,0,0,response7disk,,1,-3.999988616,1.599993587,1,0,0,rectangle,-84.79998982,59.19997003,1,0,0,0.800011456,1.599993587,1,0,0,0,121,121,65,1,,response7disk_3,TRUE,1,1,"[195,240,10,127,186,147,235,27,4,78,122,209,290,321,228,60,229,128,280,13]",1.317,rectangle
,,,,,,,,,,,,,FF,,,,,,,,7.2562,,,,,,,,,,,,,,,,,,,,,,60fdda59e83450ae5a0f83e6,61036aafb4e8cd61018fe0eb,2021-07-29_22h02.00.322,Simcolourproject_2stim_asymm_v5,2020.2.10,Win32,60,61025ae37ef11b136ea224fe,,,,,,,,,3020,76.00001258,-35.20000696,1,0,0,response3disk,,5,13.60006047,-6.4373E-06,1,0,0,rectangle,13.60006047,-6.4373E-06,1,0,0,13.60006047,-6.4373E-06,1,0,0,0,122,122,119,1,,,,,,,,
,,,,,,,,,,,,,FF,,,,,,,,1.5167,,,,,,,,,,,,,,,,,,,,,,60fdda59e83450ae5a0f83e6,61036aafb4e8cd61018fe0eb,2021-07-29_22h02.00.322,Simcolourproject_2stim_asymm_v5,2020.2.10,Win32,60,61025ae37ef11b136ea224fe,,,,,,,,,3700,-58.3999406,-88.80000776,1,0,0,response5disk,,3,-3.199988604,6.399993658,1,0,0,rectangle,-3.199988604,6.399993658,1,0,0,-3.199988604,6.399993658,1,0,0,0,123,123,17,1,,,,,,,,
,,,,,,,,,,,,,FF,,,,,,,,1.4463,,,,,,,,,,,,,,,,,,,,,,60fdda59e83450ae5a0f83e6,61036aafb4e8cd61018fe0eb,2021-07-29_22h02.00.322,Simcolourproject_2stim_asymm_v5,2020.2.10,Win32,60,61025ae37ef11b136ea224fe,,,,,,,,,3478,42.40001208,-92.00000781,1,0,0,response3disk,,4,-8.799988687,-10.40000659,1,0,0,rectangle,-8.799988687,-10.40000659,1,0,0,-8.799988687,-10.40000659,1,0,0,0,124,124,93,1,,,,,,,,
,,,,,,,,,,,,,FF,,,,,,,,1.7009,,,,,,,,,,,,,,,,,,,,,,60fdda59e83450ae5a0f83e6,61036aafb4e8cd61018fe0eb,2021-07-29_22h02.00.322,Simcolourproject_2stim_asymm_v5,2020.2.10,Win32,60,61025ae37ef11b136ea224fe,,,,,,,,,289,92.00001281,-52.80000722,1,0,0,response3disk,,5,4.800011516,0.799993575,1,0,0,rectangle,4.800011516,0.799993575,1,0,0,4.800011516,0.799993575,1,0,0,0,125,125,28,1,,,,,,,,
,,,,,,,,,,,,,FF,,,,,,,,1.2836,,,,,,,,,,,,,,,,,,,,,,60fdda59e83450ae5a0f83e6,61036aafb4e8cd61018fe0eb,2021-07-29_22h02.00.322,Simcolourproject_2stim_asymm_v5,2020.2.10,Win32,60,61025ae37ef11b136ea224fe,,,,,,,,,44,96.80001289,-64.00000739,1,0,0,response3disk,,5,23.20001179,3.19999361,1,0,0,rectangle,-85.59998983,45.59999424,1,0,0,-12.79998875,2.399993598,1,0,0,0,126,126,63,1,,response7disk_3,TRUE,1,1,"[195,240,10,127,186,147,235,27,4,78,122,209,290,321,228,60,229,128,280,13]",1.2993,rectangle
,,,,,,,,,,,,,FF,,,,,,,,1.3338,,,,,,,,,,,,,,,,,,,,,,60fdda59e83450ae5a0f83e6,61036aafb4e8cd61018fe0eb,2021-07-29_22h02.00.322,Simcolourproject_2stim_asymm_v5,2020.2.10,Win32,60,61025ae37ef11b136ea224fe,,,,,,,,,43,82.40001267,23.99999392,1,0,0,response1disk,,6,11.20001161,-6.4373E-06,1,0,0,rectangle,26.40001184,-106.400008,1,0,0,5.600060356,7.19999367,1,0,0,0,127,127,123,1,,response3disk_3,TRUE,4,4,"[195,240,10,127,186,147,235,27,4,78,122,209,290,321,228,60,229,128,280,13]",1.9489,rectangle
,,,,,,,,,,,,,FF,,,,,,,,6.3625,,,,,,,,,,,,,,,,,,,,,,60fdda59e83450ae5a0f83e6,61036aafb4e8cd61018fe0eb,2021-07-29_22h02.00.322,Simcolourproject_2stim_asymm_v5,2020.2.10,Win32,60,61025ae37ef11b136ea224fe,,,,,,,,,1004,80.00001264,-40.80000705,1,0,0,response3disk,,5,4.800011516,10.39999372,1,0,0,rectangle,4.800011516,10.39999372,1,0,0,4.800011516,10.39999372,1,0,0,0,128,128,75,1,,,,,,,,
,,,,,,,,,,,,,FF,,,,,,,,1.1005,,,,,,,,,,,,,,,,,,,,,,60fdda59e83450ae5a0f83e6,61036aafb4e8cd61018fe0eb,2021-07-29_22h02.00.322,Simcolourproject_2stim_asymm_v5,2020.2.10,Win32,60,61025ae37ef11b136ea224fe,,,,,,,,,2345,52.00001222,104.7999951,1,0,0,response1disk,,7,1.14441E-05,-7.200006545,1,0,0,rectangle,1.14441E-05,-7.200006545,1,0,0,1.14441E-05,-7.200006545,1,0,0,0,129,129,33,1,,,,,,,,
,,,,,,,,,,,,,FF,,,,,,,,2.2012,,,,,,,,,,,,,,,,,,,,,,60fdda59e83450ae5a0f83e6,61036aafb4e8cd61018fe0eb,2021-07-29_22h02.00.322,Simcolourproject_2stim_asymm_v5,2020.2.10,Win32,60,61025ae37ef11b136ea224fe,,,,,,,,,3234,65.60001242,113.5999953,1,0,0,response1disk,,7,-3.199988604,1.599993587,1,0,0,rectangle,-3.199988604,1.599993587,1,0,0,-3.199988604,1.599993587,1,0,0,0,130,130,82,1,,,,,,,,
,,,,,,,,,,,,,FF,,,,,,,,1.0996,,,,,,,,,,,,,,,,,,,,,,60fdda59e83450ae5a0f83e6,61036aafb4e8cd61018fe0eb,2021-07-29_22h02.00.322,Simcolourproject_2stim_asymm_v5,2020.2.10,Win32,60,61025ae37ef11b136ea224fe,,,,,,,,,214,90.40001279,46.39999425,1,0,0,response1disk,,6,-0.799988568,-9.60000658,1,0,0,rectangle,-0.799988568,-9.60000658,1,0,0,-0.799988568,-9.60000658,1,0,0,0,131,131,108,1,,,,,,,,
,,,,,,,,,,,,,FF,,,,,,,,0.8,,,,,,,,,,,,,,,,,,,,,,60fdda59e83450ae5a0f83e6,61036aafb4e8cd61018fe0eb,2021-07-29_22h02.00.322,Simcolourproject_2stim_asymm_v5,2020.2.10,Win32,60,61025ae37ef11b136ea224fe,,,,,,,,,2183,43.20001209,98.39999503,1,0,0,response1disk,,7,0.800011456,-6.400006533,1,0,0,rectangle,0.800011456,-6.400006533,1,0,0,0.800011456,-6.400006533,1,0,0,0,132,132,87,1,,,,,,,,
,,,,,,,,,,,,,FF,,,,,,,,1.334,,,,,,,,,,,,,,,,,,,,,,60fdda59e83450ae5a0f83e6,61036aafb4e8cd61018fe0eb,2021-07-29_22h02.00.322,Simcolourproject_2stim_asymm_v5,2020.2.10,Win32,60,61025ae37ef11b136ea224fe,,,,,,,,,3195,-51.19998932,93.59999496,1,0,0,response7disk,,0,1.600060296,4.799993634,1,0,0,rectangle,1.600060296,4.799993634,1,0,0,1.600060296,4.799993634,1,0,0,0,133,133,128,1,,,,,,,,
,,,,,,,,,,,,,FF,,,,,,,,0.8184,,,,,,,,,,,,,,,,,,,,,,60fdda59e83450ae5a0f83e6,61036aafb4e8cd61018fe0eb,2021-07-29_22h02.00.322,Simcolourproject_2stim_asymm_v5,2020.2.10,Win32,60,61025ae37ef11b136ea224fe,,,,,,,,,2560,50.4000122,104.7999951,1,0,0,response1disk,,7,8.800011575,11.19999373,1,0,0,rectangle,8.800011575,11.19999373,1,0,0,8.800011575,11.19999373,1,0,0,0,134,134,11,1,,,,,,,,
,,,,,,,,,,,,,FF,,,,,,,,1.5009,,,,,,,,,,,,,,,,,,,,,,60fdda59e83450ae5a0f83e6,61036aafb4e8cd61018fe0eb,2021-07-29_22h02.00.322,Simcolourproject_2stim_asymm_v5,2020.2.10,Win32,60,61025ae37ef11b136ea224fe,,,,,,,,,796,37.60006083,-76.80000758,1,0,0,response3disk,,4,22.40001178,3.19999361,1,0,0,rectangle,22.40001178,3.19999361,1,0,0,22.40001178,3.19999361,1,0,0,0,135,135,35,1,,,,,,,,
,,,,,,,,,,,,,FF,,,,,,,,1.9206,,,,,,,,,,,,,,,,,,,,,,60fdda59e83450ae5a0f83e6,61036aafb4e8cd61018fe0eb,2021-07-29_22h02.00.322,Simcolourproject_2stim_asymm_v5,2020.2.10,Win32,60,61025ae37ef11b136ea224fe,,,,,,,,,2904,104.000013,32.79999405,1,0,0,response1disk,,6,8.000011563,2.399993598,1,0,0,rectangle,8.000011563,2.399993598,1,0,0,8.000011563,2.399993598,1,0,0,0,136,136,40,1,,,,,,,,
,,,,,,,,,,,,,FF,,,,,,,,0.9498,,,,,,,,,,,,,,,,,,,,,,60fdda59e83450ae5a0f83e6,61036aafb4e8cd61018fe0eb,2021-07-29_22h02.00.322,Simcolourproject_2stim_asymm_v5,2020.2.10,Win32,60,61025ae37ef11b136ea224fe,,,,,,,,,2325,90.40001279,-53.60000724,1,0,0,response3disk,,5,-0.799988568,0.799993575,1,0,0,rectangle,-0.799988568,0.799993575,1,0,0,-0.799988568,0.799993575,1,0,0,0,137,137,52,1,,,,,,,,
,,,,,,,,,,,,,FF,,,,,,,,4.134,,,,,,,,,,,,,,,,,,,,,,60fdda59e83450ae5a0f83e6,61036aafb4e8cd61018fe0eb,2021-07-29_22h02.00.322,Simcolourproject_2stim_asymm_v5,2020.2.10,Win32,60,61025ae37ef11b136ea224fe,,,,,,,,,3791,99.20001292,-52.00000721,1,0,0,response3disk,,5,8.800011575,2.399993598,1,0,0,rectangle,8.800011575,2.399993598,1,0,0,8.800011575,2.399993598,1,0,0,0,138,138,84,1,,,,,,,,
,,,,,,,,,,,,,FF,,,,,,,,1.0542,,,,,,,,,,,,,,,,,,,,,,60fdda59e83450ae5a0f83e6,61036aafb4e8cd61018fe0eb,2021-07-29_22h02.00.322,Simcolourproject_2stim_asymm_v5,2020.2.10,Win32,60,61025ae37ef11b136ea224fe,,,,,,,,,91,-40.79998916,-96.80000788,1,0,0,response5disk,,3,1.600060296,8.799993694,1,0,0,rectangle,1.600060296,8.799993694,1,0,0,1.600060296,8.799993694,1,0,0,0,139,139,147,1,,,,,,,,
,,,,,,,,,,,,,FF,,,,,,,,3.4002,,,,,,,,,,,,,,,,,,,,,,60fdda59e83450ae5a0f83e6,61036aafb4e8cd61018fe0eb,2021-07-29_22h02.00.322,Simcolourproject_2stim_asymm_v5,2020.2.10,Win32,60,61025ae37ef11b136ea224fe,,,,,,,,,2354,87.20001274,-55.20000726,1,0,0,response3disk,,5,6.400011539,-1.600006461,1,0,0,rectangle,6.400011539,-1.600006461,1,0,0,6.400011539,-1.600006461,1,0,0,0,140,140,154,1,,,,,,,,
,,,,,,,,,,,,,FF,,,,,,,,1.0495,,,,,,,,,,,,,,,,,,,,,,60fdda59e83450ae5a0f83e6,61036aafb4e8cd61018fe0eb,2021-07-29_22h02.00.322,Simcolourproject_2stim_asymm_v5,2020.2.10,Win32,60,61025ae37ef11b136ea224fe,,,,,,,,,2293,-99.19999003,-47.20000714,1,0,0,response5disk,,2,37.60006083,13.59999377,1,0,0,rectangle,37.60006083,13.59999377,1,0,0,37.60006083,13.59999377,1,0,0,0,141,141,58,1,,,,,,,,
,,,,,,,,,,,,,FF,,,,,,,,2.1796,,,,,,,,,,,,,,,,,,,,,,60fdda59e83450ae5a0f83e6,61036aafb4e8cd61018fe0eb,2021-07-29_22h02.00.322,Simcolourproject_2stim_asymm_v5,2020.2.10,Win32,60,61025ae37ef11b136ea224fe,,,,,,,,,1238,47.20001215,87.99999487,1,0,0,response1disk,,7,32.80001193,8.799993694,1,0,0,rectangle,32.80001193,8.799993694,1,0,0,32.80001193,8.799993694,1,0,0,0,142,142,95,1,,,,,,,,
,,,,,,,,,,,,,FF,,,,,,,,1.1501,,,,,,,,,,,,,,,,,,,,,,60fdda59e83450ae5a0f83e6,61036aafb4e8cd61018fe0eb,2021-07-29_22h02.00.322,Simcolourproject_2stim_asymm_v5,2020.2.10,Win32,60,61025ae37ef11b136ea224fe,,,,,,,,,957,104.800013,-57.6000073,1,0,0,response3disk,,5,19.20001173,7.999993682,1,0,0,rectangle,19.20001173,7.999993682,1,0,0,19.20001173,7.999993682,1,0,0,0,143,143,101,1,,,,,,,,
,,,,,,,,,,,,,FF,,,,,,,,0.8007,,,,,,,,,,,,,,,,,,,,,,60fdda59e83450ae5a0f83e6,61036aafb4e8cd61018fe0eb,2021-07-29_22h02.00.322,Simcolourproject_2stim_asymm_v5,2020.2.10,Win32,60,61025ae37ef11b136ea224fe,,,,,,,,,2521,36.80001199,76.79999471,1,0,0,response1disk,,7,-4.799988627,3.19999361,1,0,0,rectangle,-4.799988627,3.19999361,1,0,0,-4.799988627,3.19999361,1,0,0,0,144,144,26,1,,,,,,,,
,,,,,,,,,,,,,FF,,,,,,,,1.2011,,,,,,,,,,,,,,,,,,,,,,60fdda59e83450ae5a0f83e6,61036aafb4e8cd61018fe0eb,2021-07-29_22h02.00.322,Simcolourproject_2stim_asymm_v5,2020.2.10,Win32,60,61025ae37ef11b136ea224fe,,,,,,,,,3119,100.0000129,42.39999419,1,0,0,response1disk,,6,-1.59998858,-1.600006461,1,0,0,rectangle,-1.59998858,-1.600006461,1,0,0,-1.59998858,-1.600006461,1,0,0,0,145,145,149,1,,,,,,,,
,,,,,,,,,,,,,FF,,,,,,,,0.8852,,,,,,,,,,,,,,,,,,,,,,60fdda59e83450ae5a0f83e6,61036aafb4e8cd61018fe0eb,2021-07-29_22h02.00.322,Simcolourproject_2stim_asymm_v5,2020.2.10,Win32,60,61025ae37ef11b136ea224fe,,,,,,,,,539,87.20001274,48.79999429,1,0,0,response1disk,,6,15.20001167,2.399993598,1,0,0,rectangle,58.40001231,107.9999952,1,0,0,8.000011563,-7.200006545,1,0,0,0,146,146,114,1,,response1disk_3,TRUE,7,7,"[195,240,10,127,186,147,235,27,4,78,122,209,290,321,228,60,229,128,280,13]",1.6671,rectangle
,,,,,,,,,,,,,FF,,,,,,,,2.0838,,,,,,,,,,,,,,,,,,,,,,60fdda59e83450ae5a0f83e6,61036aafb4e8cd61018fe0eb,2021-07-29_22h02.00.322,Simcolourproject_2stim_asymm_v5,2020.2.10,Win32,60,61025ae37ef11b136ea224fe,,,,,,,,,2501,105.600013,-38.40000701,1,0,0,response3disk,,5,15.20001167,-1.600006461,1,0,0,rectangle,15.20001167,-1.600006461,1,0,0,15.20001167,-1.600006461,1,0,0,0,147,147,16,1,,,,,,,,
,,,,,,,,,,,,,FF,,,,,,,,1.1861,,,,,,,,,,,,,,,,,,,,,,60fdda59e83450ae5a0f83e6,61036aafb4e8cd61018fe0eb,2021-07-29_22h02.00.322,Simcolourproject_2stim_asymm_v5,2020.2.10,Win32,60,61025ae37ef11b136ea224fe,,,,,,,,,1824,-101.5999901,49.5999943,1,0,0,response7disk,,1,7.200011551,-9.60000658,1,0,0,rectangle,7.200011551,-9.60000658,1,0,0,7.200011551,-9.60000658,1,0,0,0,148,148,91,1,,,,,,,,
,,,,,,,,,,,,,FF,,,,,,,,1.2885,,,,,,,,,,,,,,,,,,,,,,60fdda59e83450ae5a0f83e6,61036aafb4e8cd61018fe0eb,2021-07-29_22h02.00.322,Simcolourproject_2stim_asymm_v5,2020.2.10,Win32,60,61025ae37ef11b136ea224fe,,,,,,,,,1020,81.60001266,-66.40000743,1,0,0,response3disk,,5,-11.99998873,5.599993646,1,0,0,rectangle,-11.99998873,5.599993646,1,0,0,-11.99998873,5.599993646,1,0,0,0,149,149,59,1,,,,,,,,
,,,,,,,,,,,,,FF,,,,,,,,0.8502,,,,,,,,,,,,,,,,,,,,,,60fdda59e83450ae5a0f83e6,61036aafb4e8cd61018fe0eb,2021-07-29_22h02.00.322,Simcolourproject_2stim_asymm_v5,2020.2.10,Win32,60,61025ae37ef11b136ea224fe,,,,,,,,,345,-88.79998988,-31.2000069,1,0,0,response5disk,,2,-4.799988627,-1.600006461,1,0,0,rectangle,-4.799988627,-1.600006461,1,0,0,-4.799988627,-1.600006461,1,0,0,0,150,150,10,1,,,,,,,,
,,,,,,,,,,,,,FF,,,,,,,,1.1726,,,,,,,,,,,,,,,,,,,,,,60fdda59e83450ae5a0f83e6,61036aafb4e8cd61018fe0eb,2021-07-29_22h02.00.322,Simcolourproject_2stim_asymm_v5,2020.2.10,Win32,60,61025ae37ef11b136ea224fe,,,,,,,,,3594,28.80001187,-80.80000764,1,0,0,response3disk,,4,-2.399939764,1.599993587,1,0,0,rectangle,-2.399939764,1.599993587,1,0,0,-2.399939764,1.599993587,1,0,0,0,151,151,50,1,,,,,,,,
,,,,,,,,,,,,,FF,,,,,,,,0.783,,,,,,,,,,,,,,,,,,,,,,60fdda59e83450ae5a0f83e6,61036aafb4e8cd61018fe0eb,2021-07-29_22h02.00.322,Simcolourproject_2stim_asymm_v5,2020.2.10,Win32,60,61025ae37ef11b136ea224fe,,,,,,,,,4062,44.80001211,120.7999954,1,0,0,response1disk,,7,5.600060356,2.399993598,1,0,0,rectangle,5.600060356,2.399993598,1,0,0,5.600060356,2.399993598,1,0,0,0,152,152,116,1,,,,,,,,
,,,,,,,,,,,,,FF,,,,,,,,1.0332,,,,,,,,,,,,,,,,,,,,,,60fdda59e83450ae5a0f83e6,61036aafb4e8cd61018fe0eb,2021-07-29_22h02.00.322,Simcolourproject_2stim_asymm_v5,2020.2.10,Win32,60,61025ae37ef11b136ea224fe,,,,,,,,,3480,32.00001192,-93.60005666,1,0,0,response3disk,,4,20.00001174,2.399993598,1,0,0,rectangle,20.00001174,2.399993598,1,0,0,20.00001174,2.399993598,1,0,0,0,153,153,8,1,,,,,,,,
,,,,,,,,,,,,,FF,,,,,,,,1.1673,,,,,,,,,,,,,,,,,,,,,,60fdda59e83450ae5a0f83e6,61036aafb4e8cd61018fe0eb,2021-07-29_22h02.00.322,Simcolourproject_2stim_asymm_v5,2020.2.10,Win32,60,61025ae37ef11b136ea224fe,,,,,,,,,4328,-50.39994048,-97.60005672,1,0,0,response5disk,,3,19.20001173,11.99999374,1,0,0,rectangle,19.20001173,11.99999374,1,0,0,19.20001173,11.99999374,1,0,0,0,154,154,121,1,,,,,,,,
,,,,,,,,,,,,,FF,,,,,,,,0.9174,,,,,,,,,,,,,,,,,,,,,,60fdda59e83450ae5a0f83e6,61036aafb4e8cd61018fe0eb,2021-07-29_22h02.00.322,Simcolourproject_2stim_asymm_v5,2020.2.10,Win32,60,61025ae37ef11b136ea224fe,,,,,,,,,70,-92.79998994,-30.40000689,1,0,0,response5disk,,2,-9.599988699,-5.600006521,1,0,0,rectangle,-9.599988699,-5.600006521,1,0,0,-9.599988699,-5.600006521,1,0,0,0,155,155,86,1,,,,,,,,
,,,,,,,,,,,,,FF,,,,,,,,1.0663,,,,,,,,,,,,,,,,,,,,,,60fdda59e83450ae5a0f83e6,61036aafb4e8cd61018fe0eb,2021-07-29_22h02.00.322,Simcolourproject_2stim_asymm_v5,2020.2.10,Win32,60,61025ae37ef11b136ea224fe,,,,,,,,,3795,53.60001224,90.39999491,1,0,0,response1disk,,7,0.800011456,-6.400006533,1,0,0,rectangle,0.800011456,-6.400006533,1,0,0,0.800011456,-6.400006533,1,0,0,0,156,156,144,1,,,,,,,,
,,,,,,,,,,,,,FF,,,,,,,,0.9509,,,,,,,,,,,,,,,,,,,,,,60fdda59e83450ae5a0f83e6,61036aafb4e8cd61018fe0eb,2021-07-29_22h02.00.322,Simcolourproject_2stim_asymm_v5,2020.2.10,Win32,60,61025ae37ef11b136ea224fe,,,,,,,,,2843,36.80001199,75.9999947,1,0,0,response1disk,,7,6.400011539,7.19999367,1,0,0,rectangle,6.400011539,7.19999367,1,0,0,6.400011539,7.19999367,1,0,0,0,157,157,127,1,,,,,,,,
,,,,,,,,,,,,,FF,,,,,,,,1.0173,,,,,,,,,,,,,,,,,,,,,,60fdda59e83450ae5a0f83e6,61036aafb4e8cd61018fe0eb,2021-07-29_22h02.00.322,Simcolourproject_2stim_asymm_v5,2020.2.10,Win32,60,61025ae37ef11b136ea224fe,,,,,,,,,3823,68.80001247,-44.00000709,1,0,0,response3disk,,5,1.600060296,-2.400006473,1,0,0,rectangle,1.600060296,-2.400006473,1,0,0,1.600060296,-2.400006473,1,0,0,0,158,158,90,1,,,,,,,,
,,,,,,,,,,,,,FF,,,,,,,,0.7836,,,,,,,,,,,,,,,,,,,,,,60fdda59e83450ae5a0f83e6,61036aafb4e8cd61018fe0eb,2021-07-29_22h02.00.322,Simcolourproject_2stim_asymm_v5,2020.2.10,Win32,60,61025ae37ef11b136ea224fe,,,,,,,,,1145,-88.79998988,-36.00000697,1,0,0,response5disk,,2,-3.199988604,5.599993646,1,0,0,rectangle,-3.199988604,5.599993646,1,0,0,-3.199988604,5.599993646,1,0,0,0,159,159,56,1,,,,,,,,
,,,,,,,,,,,,,FF,,,,,,,,0.7557,,,,,,,,,,,,,,,,,,,,,,60fdda59e83450ae5a0f83e6,61036aafb4e8cd61018fe0eb,2021-07-29_22h02.00.322,Simcolourproject_2stim_asymm_v5,2020.2.10,Win32,60,61025ae37ef11b136ea224fe,,,,,,,,,2992,52.00001222,95.19997057,1,0,0,response1disk,,7,3.200011492,6.399993658,1,0,0,rectangle,3.200011492,6.399993658,1,0,0,3.200011492,6.399993658,1,0,0,1,0,160,19,1,,,,,,,,
,,,,,,,,,,,,,FF,,,,,,,,1.0837,,,,,,,,,,,,,,,,,,,,,,60fdda59e83450ae5a0f83e6,61036aafb4e8cd61018fe0eb,2021-07-29_22h02.00.322,Simcolourproject_2stim_asymm_v5,2020.2.10,Win32,60,61025ae37ef11b136ea224fe,,,,,,,,,1715,84.80001271,63.19997009,1,0,0,response1disk,,6,2.40001148,4.799993634,1,0,0,rectangle,2.40001148,4.799993634,1,0,0,2.40001148,4.799993634,1,0,0,1,1,161,107,1,,,,,,,,
,,,,,,,,,,,,,FF,,,,,,,,1.2017,,,,,,,,,,,,,,,,,,,,,,60fdda59e83450ae5a0f83e6,61036aafb4e8cd61018fe0eb,2021-07-29_22h02.00.322,Simcolourproject_2stim_asymm_v5,2020.2.10,Win32,60,61025ae37ef11b136ea224fe,,,,,,,,,2296,-83.99998981,-47.20000714,1,0,0,response5disk,,2,8.800011575,5.599993646,1,0,0,rectangle,8.800011575,5.599993646,1,0,0,8.800011575,5.599993646,1,0,0,1,2,162,154,1,,,,,,,,
,,,,,,,,,,,,,FF,,,,,,,,1.28,,,,,,,,,,,,,,,,,,,,,,60fdda59e83450ae5a0f83e6,61036aafb4e8cd61018fe0eb,2021-07-29_22h02.00.322,Simcolourproject_2stim_asymm_v5,2020.2.10,Win32,60,61025ae37ef11b136ea224fe,,,,,,,,,3739,104.000013,-52.80000722,1,0,0,response3disk,,5,-1.59998858,2.399993598,1,0,0,rectangle,-1.59998858,2.399993598,1,0,0,-1.59998858,2.399993598,1,0,0,1,3,163,16,1,,,,,,,,
,,,,,,,,,,,,,FF,,,,,,,,0.7505,,,,,,,,,,,,,,,,,,,,,,60fdda59e83450ae5a0f83e6,61036aafb4e8cd61018fe0eb,2021-07-29_22h02.00.322,Simcolourproject_2stim_asymm_v5,2020.2.10,Win32,60,61025ae37ef11b136ea224fe,,,,,,,,,3090,-43.1999892,-80.00000763,1,0,0,response5disk,,3,20.00001174,16.79999381,1,0,0,rectangle,20.00001174,16.79999381,1,0,0,20.00001174,16.79999381,1,0,0,1,4,164,143,1,,,,,,,,
,,,,,,,,,,,,,FF,,,,,,,,0.7002,,,,,,,,,,,,,,,,,,,,,,60fdda59e83450ae5a0f83e6,61036aafb4e8cd61018fe0eb,2021-07-29_22h02.00.322,Simcolourproject_2stim_asymm_v5,2020.2.10,Win32,60,61025ae37ef11b136ea224fe,,,,,,,,,2670,-39.19998914,-104.800008,1,0,0,response5disk,,3,10.4000116,5.599993646,1,0,0,rectangle,10.4000116,5.599993646,1,0,0,10.4000116,5.599993646,1,0,0,1,5,165,108,1,,,,,,,,
,,,,,,,,,,,,,FF,,,,,,,,0.6517,,,,,,,,,,,,,,,,,,,,,,60fdda59e83450ae5a0f83e6,61036aafb4e8cd61018fe0eb,2021-07-29_22h02.00.322,Simcolourproject_2stim_asymm_v5,2020.2.10,Win32,60,61025ae37ef11b136ea224fe,,,,,,,,,3007,-37.59998912,-73.60000753,1,0,0,response5disk,,3,1.14441E-05,-0.800006449,1,0,0,rectangle,1.14441E-05,-0.800006449,1,0,0,1.14441E-05,-0.800006449,1,0,0,1,6,166,51,1,,,,,,,,
,,,,,,,,,,,,,FF,,,,,,,,0.9631,,,,,,,,,,,,,,,,,,,,,,60fdda59e83450ae5a0f83e6,61036aafb4e8cd61018fe0eb,2021-07-29_22h02.00.322,Simcolourproject_2stim_asymm_v5,2020.2.10,Win32,60,61025ae37ef11b136ea224fe,,,,,,,,,2689,79.20001262,53.59999436,1,0,0,response1disk,,6,5.600060356,5.599993646,1,0,0,rectangle,5.600060356,5.599993646,1,0,0,5.600060356,5.599993646,1,0,0,1,7,167,59,1,,,,,,,,
,,,,,,,,,,,,,FF,,,,,,,,1.055,,,,,,,,,,,,,,,,,,,,,,60fdda59e83450ae5a0f83e6,61036aafb4e8cd61018fe0eb,2021-07-29_22h02.00.322,Simcolourproject_2stim_asymm_v5,2020.2.10,Win32,60,61025ae37ef11b136ea224fe,,,,,,,,,976,54.40001225,-87.20000774,1,0,0,response3disk,,4,17.60006053,-10.40000659,1,0,0,rectangle,17.60006053,-10.40000659,1,0,0,17.60006053,-10.40000659,1,0,0,1,8,168,96,1,,,,,,,,
,,,,,,,,,,,,,FF,,,,,,,,0.816,,,,,,,,,,,,,,,,,,,,,,60fdda59e83450ae5a0f83e6,61036aafb4e8cd61018fe0eb,2021-07-29_22h02.00.322,Simcolourproject_2stim_asymm_v5,2020.2.10,Win32,60,61025ae37ef11b136ea224fe,,,,,,,,,2918,96.80001289,-47.20000714,1,0,0,response3disk,,5,0.800011456,1.599993587,1,0,0,rectangle,0.800011456,1.599993587,1,0,0,0.800011456,1.599993587,1,0,0,1,9,169,92,1,,,,,,,,
,,,,,,,,,,,,,FF,,,,,,,,0.9177,,,,,,,,,,,,,,,,,,,,,,60fdda59e83450ae5a0f83e6,61036aafb4e8cd61018fe0eb,2021-07-29_22h02.00.322,Simcolourproject_2stim_asymm_v5,2020.2.10,Win32,60,61025ae37ef11b136ea224fe,,,,,,,,,59,54.40001225,114.3999953,1,0,0,response1disk,,7,1.600060296,-0.800006449,1,0,0,rectangle,1.600060296,-0.800006449,1,0,0,1.600060296,-0.800006449,1,0,0,1,10,170,93,1,,,,,,,,
,,,,,,,,,,,,,FF,,,,,,,,0.7843,,,,,,,,,,,,,,,,,,,,,,60fdda59e83450ae5a0f83e6,61036aafb4e8cd61018fe0eb,2021-07-29_22h02.00.322,Simcolourproject_2stim_asymm_v5,2020.2.10,Win32,60,61025ae37ef11b136ea224fe,,,,,,,,,2756,46.40001214,124.7999954,1,0,0,response1disk,,7,-1.59998858,0.799993575,1,0,0,rectangle,-1.59998858,0.799993575,1,0,0,-1.59998858,0.799993575,1,0,0,1,11,171,83,1,,,,,,,,
,,,,,,,,,,,,,FF,,,,,,,,1.0958,,,,,,,,,,,,,,,,,,,,,,60fdda59e83450ae5a0f83e6,61036aafb4e8cd61018fe0eb,2021-07-29_22h02.00.322,Simcolourproject_2stim_asymm_v5,2020.2.10,Win32,60,61025ae37ef11b136ea224fe,,,,,,,,,3173,115.2000132,51.19996991,1,0,0,response1disk,,6,-10.39993988,-4.000006497,1,0,0,rectangle,-10.39993988,-4.000006497,1,0,0,-10.39993988,-4.000006497,1,0,0,1,12,172,129,1,,,,,,,,
,,,,,,,,,,,,,FF,,,,,,,,1.1306,,,,,,,,,,,,,,,,,,,,,,60fdda59e83450ae5a0f83e6,61036aafb4e8cd61018fe0eb,2021-07-29_22h02.00.322,Simcolourproject_2stim_asymm_v5,2020.2.10,Win32,60,61025ae37ef11b136ea224fe,,,,,,,,,1235,33.60006077,-86.40000772,1,0,0,response3disk,,4,-3.999988616,-6.400006533,1,0,0,rectangle,-3.999988616,-6.400006533,1,0,0,-3.999988616,-6.400006533,1,0,0,1,13,173,137,1,,,,,,,,
,,,,,,,,,,,,,FF,,,,,,,,1.3001,,,,,,,,,,,,,,,,,,,,,,60fdda59e83450ae5a0f83e6,61036aafb4e8cd61018fe0eb,2021-07-29_22h02.00.322,Simcolourproject_2stim_asymm_v5,2020.2.10,Win32,60,61025ae37ef11b136ea224fe,,,,,,,,,1498,104.000013,52.79999435,1,0,0,response1disk,,6,0.800011456,-9.60000658,1,0,0,rectangle,0.800011456,-9.60000658,1,0,0,0.800011456,-9.60000658,1,0,0,1,14,174,56,1,,,,,,,,
,,,,,,,,,,,,,FF,,,,,,,,0.7675,,,,,,,,,,,,,,,,,,,,,,60fdda59e83450ae5a0f83e6,61036aafb4e8cd61018fe0eb,2021-07-29_22h02.00.322,Simcolourproject_2stim_asymm_v5,2020.2.10,Win32,60,61025ae37ef11b136ea224fe,,,,,,,,,2799,-31.99998903,-72.00000751,1,0,0,response5disk,,3,13.60006047,5.599993646,1,0,0,rectangle,13.60006047,5.599993646,1,0,0,13.60006047,5.599993646,1,0,0,1,15,175,124,1,,,,,,,,
,,,,,,,,,,,,,FF,,,,,,,,1.0345,,,,,,,,,,,,,,,,,,,,,,60fdda59e83450ae5a0f83e6,61036aafb4e8cd61018fe0eb,2021-07-29_22h02.00.322,Simcolourproject_2stim_asymm_v5,2020.2.10,Win32,60,61025ae37ef11b136ea224fe,,,,,,,,,1898,-66.39994072,-116.8000082,1,0,0,response5disk,,3,-5.599988639,-6.4373E-06,1,0,0,rectangle,-5.599988639,-6.4373E-06,1,0,0,-5.599988639,-6.4373E-06,1,0,0,1,16,176,104,1,,,,,,,,
,,,,,,,,,,,,,FF,,,,,,,,0.9551,,,,,,,,,,,,,,,,,,,,,,60fdda59e83450ae5a0f83e6,61036aafb4e8cd61018fe0eb,2021-07-29_22h02.00.322,Simcolourproject_2stim_asymm_v5,2020.2.10,Win32,60,61025ae37ef11b136ea224fe,,,,,,,,,3844,-91.19998991,-48.80000716,1,0,0,response5disk,,2,-11.19998872,-12.00000662,1,0,0,rectangle,-11.19998872,-12.00000662,1,0,0,-11.19998872,-12.00000662,1,0,0,1,17,177,150,1,,,,,,,,
,,,,,,,,,,,,,FF,,,,,,,,0.9538,,,,,,,,,,,,,,,,,,,,,,60fdda59e83450ae5a0f83e6,61036aafb4e8cd61018fe0eb,2021-07-29_22h02.00.322,Simcolourproject_2stim_asymm_v5,2020.2.10,Win32,60,61025ae37ef11b136ea224fe,,,,,,,,,4069,34.40001196,79.19997033,1,0,0,response1disk,,7,3.200011492,14.39999378,1,0,0,rectangle,3.200011492,14.39999378,1,0,0,3.200011492,14.39999378,1,0,0,1,18,178,148,1,,,,,,,,
,,,,,,,,,,,,,FF,,,,,,,,0.7496,,,,,,,,,,,,,,,,,,,,,,60fdda59e83450ae5a0f83e6,61036aafb4e8cd61018fe0eb,2021-07-29_22h02.00.322,Simcolourproject_2stim_asymm_v5,2020.2.10,Win32,60,61025ae37ef11b136ea224fe,,,,,,,,,2662,-96.79999,55.19996997,1,0,0,response7disk,,1,-7.999988675,-10.40000659,1,0,0,rectangle,-7.999988675,-10.40000659,1,0,0,-7.999988675,-10.40000659,1,0,0,1,19,179,87,1,,,,,,,,
,,,,,,,,,,,,,FF,,,,,,,,1.1506,,,,,,,,,,,,,,,,,,,,,,60fdda59e83450ae5a0f83e6,61036aafb4e8cd61018fe0eb,2021-07-29_22h02.00.322,Simcolourproject_2stim_asymm_v5,2020.2.10,Win32,60,61025ae37ef11b136ea224fe,,,,,,,,,1032,92.00001281,-42.40000707,1,0,0,response3disk,,5,2.40001148,7.19999367,1,0,0,rectangle,2.40001148,7.19999367,1,0,0,2.40001148,7.19999367,1,0,0,1,20,180,153,1,,,,,,,,
,,,,,,,,,,,,,FF,,,,,,,,2.018,,,,,,,,,,,,,,,,,,,,,,60fdda59e83450ae5a0f83e6,61036aafb4e8cd61018fe0eb,2021-07-29_22h02.00.322,Simcolourproject_2stim_asymm_v5,2020.2.10,Win32,60,61025ae37ef11b136ea224fe,,,,,,,,,1738,56.80001229,-76.00000757,1,0,0,response3disk,,4,25.60006065,-12.80000663,1,0,0,rectangle,25.60006065,-12.80000663,1,0,0,25.60006065,-12.80000663,1,0,0,1,21,181,78,1,,,,,,,,
,,,,,,,,,,,,,FF,,,,,,,,1.2658,,,,,,,,,,,,,,,,,,,,,,60fdda59e83450ae5a0f83e6,61036aafb4e8cd61018fe0eb,2021-07-29_22h02.00.322,Simcolourproject_2stim_asymm_v5,2020.2.10,Win32,60,61025ae37ef11b136ea224fe,,,,,,,,,371,56.00001228,-106.400008,1,0,0,response3disk,,4,1.600060296,11.99999374,1,0,0,rectangle,1.600060296,11.99999374,1,0,0,1.600060296,11.99999374,1,0,0,1,22,182,158,1,,,,,,,,
,,,,,,,,,,,,,FF,,,,,,,,0.9169,,,,,,,,,,,,,,,,,,,,,,60fdda59e83450ae5a0f83e6,61036aafb4e8cd61018fe0eb,2021-07-29_22h02.00.322,Simcolourproject_2stim_asymm_v5,2020.2.10,Win32,60,61025ae37ef11b136ea224fe,,,,,,,,,1086,108.8000131,-48.00000715,1,0,0,response3disk,,5,24.0000118,14.39999378,1,0,0,rectangle,24.0000118,14.39999378,1,0,0,24.0000118,14.39999378,1,0,0,1,23,183,26,1,,,,,,,,
,,,,,,,,,,,,,FF,,,,,,,,1.3006,,,,,,,,,,,,,,,,,,,,,,60fdda59e83450ae5a0f83e6,61036aafb4e8cd61018fe0eb,2021-07-29_22h02.00.322,Simcolourproject_2stim_asymm_v5,2020.2.10,Win32,60,61025ae37ef11b136ea224fe,,,,,,,,,3349,97.6000129,-44.8000071,1,0,0,response3disk,,5,8.000011563,4.799993634,1,0,0,rectangle,8.000011563,4.799993634,1,0,0,8.000011563,4.799993634,1,0,0,1,24,184,4,1,,,,,,,,
,,,,,,,,,,,,,FF,,,,,,,,0.8509,,,,,,,,,,,,,,,,,,,,,,60fdda59e83450ae5a0f83e6,61036aafb4e8cd61018fe0eb,2021-07-29_22h02.00.322,Simcolourproject_2stim_asymm_v5,2020.2.10,Win32,60,61025ae37ef11b136ea224fe,,,,,,,,,1653,85.60001272,-39.20000702,1,0,0,response3disk,,5,8.000011563,11.99999374,1,0,0,rectangle,128.0000134,-56.00000727,1,0,0,9.600060415,7.999993682,1,0,0,1,25,185,121,1,,response3disk_3,TRUE,5,5,"[195,240,10,127,186,147,235,27,4,78,122,209,290,321,228,60,229,128,280,13]",1.516,rectangle
,,,,,,,,,,,,,FF,,,,,,,,1.3843,,,,,,,,,,,,,,,,,,,,,,60fdda59e83450ae5a0f83e6,61036aafb4e8cd61018fe0eb,2021-07-29_22h02.00.322,Simcolourproject_2stim_asymm_v5,2020.2.10,Win32,60,61025ae37ef11b136ea224fe,,,,,,,,,740,40.00001204,-90.40000778,1,0,0,response3disk,,4,-13.59998876,9.599993706,1,0,0,rectangle,-13.59998876,9.599993706,1,0,0,-13.59998876,9.599993706,1,0,0,1,26,186,118,1,,,,,,,,
,,,,,,,,,,,,,FF,,,,,,,,0.9556,,,,,,,,,,,,,,,,,,,,,,60fdda59e83450ae5a0f83e6,61036aafb4e8cd61018fe0eb,2021-07-29_22h02.00.322,Simcolourproject_2stim_asymm_v5,2020.2.10,Win32,60,61025ae37ef11b136ea224fe,,,,,,,,,1700,46.40001214,120.7999954,1,0,0,response1disk,,7,7.200011551,3.19999361,1,0,0,rectangle,7.200011551,3.19999361,1,0,0,7.200011551,3.19999361,1,0,0,1,27,187,44,1,,,,,,,,
,,,,,,,,,,,,,FF,,,,,,,,1.7342,,,,,,,,,,,,,,,,,,,,,,60fdda59e83450ae5a0f83e6,61036aafb4e8cd61018fe0eb,2021-07-29_22h02.00.322,Simcolourproject_2stim_asymm_v5,2020.2.10,Win32,60,61025ae37ef11b136ea224fe,,,,,,,,,1736,44.0000121,-104.800008,1,0,0,response3disk,,4,5.600060356,-10.40000659,1,0,0,rectangle,5.600060356,-10.40000659,1,0,0,5.600060356,-10.40000659,1,0,0,1,28,188,45,1,,,,,,,,
,,,,,,,,,,,,,FF,,,,,,,,1.3678,,,,,,,,,,,,,,,,,,,,,,60fdda59e83450ae5a0f83e6,61036aafb4e8cd61018fe0eb,2021-07-29_22h02.00.322,Simcolourproject_2stim_asymm_v5,2020.2.10,Win32,60,61025ae37ef11b136ea224fe,,,,,,,,,3290,-83.99998981,47.19996985,1,0,0,response7disk,,1,-5.599988639,6.399993658,1,0,0,rectangle,-5.599988639,6.399993658,1,0,0,-5.599988639,6.399993658,1,0,0,1,29,189,38,1,,,,,,,,
,,,,,,,,,,,,,FF,,,,,,,,5.2669,,,,,,,,,,,,,,,,,,,,,,60fdda59e83450ae5a0f83e6,61036aafb4e8cd61018fe0eb,2021-07-29_22h02.00.322,Simcolourproject_2stim_asymm_v5,2020.2.10,Win32,60,61025ae37ef11b136ea224fe,,,,,,,,,2334,45.60006095,-104.800008,1,0,0,response3disk,,4,0.800011456,-10.40000659,1,0,0,rectangle,0.800011456,-10.40000659,1,0,0,0.800011456,-10.40000659,1,0,0,1,30,190,35,1,,,,,,,,
,,,,,,,,,,,,,FF,,,,,,,,1.2834,,,,,,,,,,,,,,,,,,,,,,60fdda59e83450ae5a0f83e6,61036aafb4e8cd61018fe0eb,2021-07-29_22h02.00.322,Simcolourproject_2stim_asymm_v5,2020.2.10,Win32,60,61025ae37ef11b136ea224fe,,,,,,,,,2503,46.40001214,-85.60005654,1,0,0,response3disk,,4,8.800011575,11.19999373,1,0,0,rectangle,8.800011575,11.19999373,1,0,0,8.800011575,11.19999373,1,0,0,1,31,191,131,1,,,,,,,,
,,,,,,,,,,,,,FF,,,,,,,,0.8886,,,,,,,,,,,,,,,,,,,,,,60fdda59e83450ae5a0f83e6,61036aafb4e8cd61018fe0eb,2021-07-29_22h02.00.322,Simcolourproject_2stim_asymm_v5,2020.2.10,Win32,60,61025ae37ef11b136ea224fe,,,,,,,,,4010,-57.59998941,-119.2000082,1,0,0,response5disk,,3,10.4000116,-4.000006497,1,0,0,rectangle,10.4000116,-4.000006497,1,0,0,10.4000116,-4.000006497,1,0,0,1,32,192,18,1,,,,,,,,
,,,,,,,,,,,,,FF,,,,,,,,0.7353,,,,,,,,,,,,,,,,,,,,,,60fdda59e83450ae5a0f83e6,61036aafb4e8cd61018fe0eb,2021-07-29_22h02.00.322,Simcolourproject_2stim_asymm_v5,2020.2.10,Win32,60,61025ae37ef11b136ea224fe,,,,,,,,,3741,-72.79998964,29.599994,1,0,0,response7disk,,1,-9.599988699,10.39999372,1,0,0,rectangle,-9.599988699,10.39999372,1,0,0,-9.599988699,10.39999372,1,0,0,1,33,193,46,1,,,,,,,,
,,,,,,,,,,,,,FF,,,,,,,,0.8223,,,,,,,,,,,,,,,,,,,,,,60fdda59e83450ae5a0f83e6,61036aafb4e8cd61018fe0eb,2021-07-29_22h02.00.322,Simcolourproject_2stim_asymm_v5,2020.2.10,Win32,60,61025ae37ef11b136ea224fe,,,,,,,,,106,-102.3999413,-64.00000739,1,0,0,response5disk,,2,8.800011575,-15.20000666,1,0,0,rectangle,-43.99998921,102.3999951,1,0,0,-3.199988604,5.599993646,1,0,0,1,34,194,103,1,,response7disk_3,TRUE,0,0,"[195,240,10,127,186,147,235,27,4,78,122,209,290,321,228,60,229,128,280,13]",1.5668,rectangle
,,,,,,,,,,,,,FF,,,,,,,,1.321,,,,,,,,,,,,,,,,,,,,,,60fdda59e83450ae5a0f83e6,61036aafb4e8cd61018fe0eb,2021-07-29_22h02.00.322,Simcolourproject_2stim_asymm_v5,2020.2.10,Win32,60,61025ae37ef11b136ea224fe,,,,,,,,,1284,38.40001202,-101.6000568,1,0,0,response3disk,,4,-7.999988675,-0.800006449,1,0,0,rectangle,-7.999988675,-0.800006449,1,0,0,-7.999988675,-0.800006449,1,0,0,1,35,195,43,1,,,,,,,,
,,,,,,,,,,,,,FF,,,,,,,,0.983,,,,,,,,,,,,,,,,,,,,,,60fdda59e83450ae5a0f83e6,61036aafb4e8cd61018fe0eb,2021-07-29_22h02.00.322,Simcolourproject_2stim_asymm_v5,2020.2.10,Win32,60,61025ae37ef11b136ea224fe,,,,,,,,,871,-52.79998934,-116.0000082,1,0,0,response5disk,,3,-7.999988675,7.19999367,1,0,0,rectangle,-7.999988675,7.19999367,1,0,0,-7.999988675,7.19999367,1,0,0,1,36,196,32,1,,,,,,,,
,,,,,,,,,,,,,FF,,,,,,,,1.4498,,,,,,,,,,,,,,,,,,,,,,60fdda59e83450ae5a0f83e6,61036aafb4e8cd61018fe0eb,2021-07-29_22h02.00.322,Simcolourproject_2stim_asymm_v5,2020.2.10,Win32,60,61025ae37ef11b136ea224fe,,,,,,,,,734,-56.7999894,-93.60005666,1,0,0,response5disk,,3,8.800011575,4.799993634,1,0,0,rectangle,8.800011575,4.799993634,1,0,0,8.800011575,4.799993634,1,0,0,1,37,197,115,1,,,,,,,,
,,,,,,,,,,,,,FF,,,,,,,,0.7008,,,,,,,,,,,,,,,,,,,,,,60fdda59e83450ae5a0f83e6,61036aafb4e8cd61018fe0eb,2021-07-29_22h02.00.322,Simcolourproject_2stim_asymm_v5,2020.2.10,Win32,60,61025ae37ef11b136ea224fe,,,,,,,,,775,48.00001216,-89.6000566,1,0,0,response3disk,,4,13.60006047,2.399993598,1,0,0,rectangle,13.60006047,2.399993598,1,0,0,13.60006047,2.399993598,1,0,0,1,38,198,84,1,,,,,,,,
,,,,,,,,,,,,,FF,,,,,,,,0.7836,,,,,,,,,,,,,,,,,,,,,,60fdda59e83450ae5a0f83e6,61036aafb4e8cd61018fe0eb,2021-07-29_22h02.00.322,Simcolourproject_2stim_asymm_v5,2020.2.10,Win32,60,61025ae37ef11b136ea224fe,,,,,,,,,3345,32.80001193,71.19997021,1,0,0,response1disk,,7,-5.599988639,-6.400006533,1,0,0,rectangle,-5.599988639,-6.400006533,1,0,0,-5.599988639,-6.400006533,1,0,0,1,39,199,36,1,,,,,,,,
,,,,,,,,,,,,,FF,,,,,,,,0.9171,,,,,,,,,,,,,,,,,,,,,,60fdda59e83450ae5a0f83e6,61036aafb4e8cd61018fe0eb,2021-07-29_22h02.00.322,Simcolourproject_2stim_asymm_v5,2020.2.10,Win32,60,61025ae37ef11b136ea224fe,,,,,,,,,840,50.4000122,98.39999503,1,0,0,response1disk,,7,13.60006047,10.39999372,1,0,0,rectangle,13.60006047,10.39999372,1,0,0,13.60006047,10.39999372,1,0,0,1,40,200,98,1,,,,,,,,
,,,,,,,,,,,,,FF,,,,,,,,1.0836,,,,,,,,,,,,,,,,,,,,,,60fdda59e83450ae5a0f83e6,61036aafb4e8cd61018fe0eb,2021-07-29_22h02.00.322,Simcolourproject_2stim_asymm_v5,2020.2.10,Win32,60,61025ae37ef11b136ea224fe,,,,,,,,,80,-43.1999892,-104.000008,1,0,0,response5disk,,3,-1.59998858,-0.800006449,1,0,0,rectangle,-1.59998858,-0.800006449,1,0,0,-1.59998858,-0.800006449,1,0,0,1,41,201,113,1,,,,,,,,
,,,,,,,,,,,,,FF,,,,,,,,0.705,,,,,,,,,,,,,,,,,,,,,,60fdda59e83450ae5a0f83e6,61036aafb4e8cd61018fe0eb,2021-07-29_22h02.00.322,Simcolourproject_2stim_asymm_v5,2020.2.10,Win32,60,61025ae37ef11b136ea224fe,,,,,,,,,3999,-46.39994042,-68.00000745,1,0,0,response5disk,,3,-5.599988639,1.599993587,1,0,0,rectangle,-5.599988639,1.599993587,1,0,0,-5.599988639,1.599993587,1,0,0,1,42,202,159,1,,,,,,,,
,,,,,,,,,,,,,FF,,,,,,,,0.9008,,,,,,,,,,,,,,,,,,,,,,60fdda59e83450ae5a0f83e6,61036aafb4e8cd61018fe0eb,2021-07-29_22h02.00.322,Simcolourproject_2stim_asymm_v5,2020.2.10,Win32,60,61025ae37ef11b136ea224fe,,,,,,,,,2421,-85.59998983,-42.40000707,1,0,0,response5disk,,2,0.800011456,-8.800006568,1,0,0,rectangle,0.800011456,-8.800006568,1,0,0,0.800011456,-8.800006568,1,0,0,1,43,203,34,1,,,,,,,,
,,,,,,,,,,,,,FF,,,,,,,,1.3003,,,,,,,,,,,,,,,,,,,,,,60fdda59e83450ae5a0f83e6,61036aafb4e8cd61018fe0eb,2021-07-29_22h02.00.322,Simcolourproject_2stim_asymm_v5,2020.2.10,Win32,60,61025ae37ef11b136ea224fe,,,,,,,,,3095,-50.39994048,-121.6000571,1,0,0,response5disk,,3,3.200011492,11.99999374,1,0,0,rectangle,3.200011492,11.99999374,1,0,0,3.200011492,11.99999374,1,0,0,1,44,204,7,1,,,,,,,,
,,,,,,,,,,,,,FF,,,,,,,,0.734,,,,,,,,,,,,,,,,,,,,,,60fdda59e83450ae5a0f83e6,61036aafb4e8cd61018fe0eb,2021-07-29_22h02.00.322,Simcolourproject_2stim_asymm_v5,2020.2.10,Win32,60,61025ae37ef11b136ea224fe,,,,,,,,,1711,90.40001279,-38.40000701,1,0,0,response3disk,,5,4.000011504,13.59999377,1,0,0,rectangle,4.000011504,13.59999377,1,0,0,4.000011504,13.59999377,1,0,0,1,45,205,122,1,,,,,,,,
,,,,,,,,,,,,,FF,,,,,,,,0.8308,,,,,,,,,,,,,,,,,,,,,,60fdda59e83450ae5a0f83e6,61036aafb4e8cd61018fe0eb,2021-07-29_22h02.00.322,Simcolourproject_2stim_asymm_v5,2020.2.10,Win32,60,61025ae37ef11b136ea224fe,,,,,,,,,79,-88.79998988,-34.40000695,1,0,0,response5disk,,2,-10.39993988,0.799993575,1,0,0,rectangle,-10.39993988,0.799993575,1,0,0,-10.39993988,0.799993575,1,0,0,1,46,206,12,1,,,,,,,,
,,,,,,,,,,,,,FF,,,,,,,,0.7836,,,,,,,,,,,,,,,,,,,,,,60fdda59e83450ae5a0f83e6,61036aafb4e8cd61018fe0eb,2021-07-29_22h02.00.322,Simcolourproject_2stim_asymm_v5,2020.2.10,Win32,60,61025ae37ef11b136ea224fe,,,,,,,,,4215,109.6000131,-40.80000705,1,0,0,response3disk,,5,28.80001187,4.799993634,1,0,0,rectangle,28.80001187,4.799993634,1,0,0,28.80001187,4.799993634,1,0,0,1,47,207,1,1,,,,,,,,
,,,,,,,,,,,,,FF,,,,,,,,1.1003,,,,,,,,,,,,,,,,,,,,,,60fdda59e83450ae5a0f83e6,61036aafb4e8cd61018fe0eb,2021-07-29_22h02.00.322,Simcolourproject_2stim_asymm_v5,2020.2.10,Win32,60,61025ae37ef11b136ea224fe,,,,,,,,,2198,98.40001291,45.59999424,1,0,0,response1disk,,6,-6.399939823,-0.800006449,1,0,0,rectangle,-91.99998993,42.39999419,1,0,0,4.800011516,-9.60000658,1,0,0,1,48,208,11,1,,response7disk_3,TRUE,1,1,"[195,240,10,127,186,147,235,27,4,78,122,209,290,321,228,60,229,128,280,13]",1.3495,rectangle
,,,,,,,,,,,,,FF,,,,,,,,1.0504,,,,,,,,,,,,,,,,,,,,,,60fdda59e83450ae5a0f83e6,61036aafb4e8cd61018fe0eb,2021-07-29_22h02.00.322,Simcolourproject_2stim_asymm_v5,2020.2.10,Win32,60,61025ae37ef11b136ea224fe,,,,,,,,,718,-97.59999001,-90.40000778,1,0,0,response5disk,,2,-12.79998875,-9.60000658,1,0,0,rectangle,-12.79998875,-9.60000658,1,0,0,-12.79998875,-9.60000658,1,0,0,1,49,209,64,1,,,,,,,,
,,,,,,,,,,,,,FF,,,,,,,,0.7495,,,,,,,,,,,,,,,,,,,,,,60fdda59e83450ae5a0f83e6,61036aafb4e8cd61018fe0eb,2021-07-29_22h02.00.322,Simcolourproject_2stim_asymm_v5,2020.2.10,Win32,60,61025ae37ef11b136ea224fe,,,,,,,,,2924,66.40001243,-56.80000728,1,0,0,response3disk,,5,18.40001172,-9.60000658,1,0,0,rectangle,18.40001172,-9.60000658,1,0,0,18.40001172,-9.60000658,1,0,0,1,50,210,69,1,,,,,,,,
,,,,,,,,,,,,,FF,,,,,,,,0.8176,,,,,,,,,,,,,,,,,,,,,,60fdda59e83450ae5a0f83e6,61036aafb4e8cd61018fe0eb,2021-07-29_22h02.00.322,Simcolourproject_2stim_asymm_v5,2020.2.10,Win32,60,61025ae37ef11b136ea224fe,,,,,,,,,3781,-35.99998909,-84.00000769,1,0,0,response5disk,,3,2.40001148,-13.60000664,1,0,0,rectangle,2.40001148,-13.60000664,1,0,0,2.40001148,-13.60000664,1,0,0,1,51,211,86,1,,,,,,,,
,,,,,,,,,,,,,FF,,,,,,,,0.7301,,,,,,,,,,,,,,,,,,,,,,60fdda59e83450ae5a0f83e6,61036aafb4e8cd61018fe0eb,2021-07-29_22h02.00.322,Simcolourproject_2stim_asymm_v5,2020.2.10,Win32,60,61025ae37ef11b136ea224fe,,,,,,,,,1861,78.40001261,-44.00000709,1,0,0,response3disk,,5,6.400011539,3.19999361,1,0,0,rectangle,6.400011539,3.19999361,1,0,0,6.400011539,3.19999361,1,0,0,1,52,212,95,1,,,,,,,,
,,,,,,,,,,,,,FF,,,,,,,,0.8523,,,,,,,,,,,,,,,,,,,,,,60fdda59e83450ae5a0f83e6,61036aafb4e8cd61018fe0eb,2021-07-29_22h02.00.322,Simcolourproject_2stim_asymm_v5,2020.2.10,Win32,60,61025ae37ef11b136ea224fe,,,,,,,,,3342,-42.39994036,-88.80000776,1,0,0,response5disk,,3,6.400011539,11.99999374,1,0,0,rectangle,6.400011539,11.99999374,1,0,0,6.400011539,11.99999374,1,0,0,1,53,213,71,1,,,,,,,,
,,,,,,,,,,,,,FF,,,,,,,,1.9047,,,,,,,,,,,,,,,,,,,,,,60fdda59e83450ae5a0f83e6,61036aafb4e8cd61018fe0eb,2021-07-29_22h02.00.322,Simcolourproject_2stim_asymm_v5,2020.2.10,Win32,60,61025ae37ef11b136ea224fe,,,,,,,,,817,-47.19998926,-105.6000568,1,0,0,response5disk,,3,4.000011504,4.799993634,1,0,0,rectangle,4.000011504,4.799993634,1,0,0,4.000011504,4.799993634,1,0,0,1,54,214,28,1,,,,,,,,
,,,,,,,,,,,,,FF,,,,,,,,0.7795,,,,,,,,,,,,,,,,,,,,,,60fdda59e83450ae5a0f83e6,61036aafb4e8cd61018fe0eb,2021-07-29_22h02.00.322,Simcolourproject_2stim_asymm_v5,2020.2.10,Win32,60,61025ae37ef11b136ea224fe,,,,,,,,,231,80.00001264,-45.60000712,1,0,0,response3disk,,5,20.80001175,-13.60000664,1,0,0,rectangle,20.80001175,-13.60000664,1,0,0,20.80001175,-13.60000664,1,0,0,1,55,215,110,1,,,,,,,,
,,,,,,,,,,,,,FF,,,,,,,,1.1009,,,,,,,,,,,,,,,,,,,,,,60fdda59e83450ae5a0f83e6,61036aafb4e8cd61018fe0eb,2021-07-29_22h02.00.322,Simcolourproject_2stim_asymm_v5,2020.2.10,Win32,60,61025ae37ef11b136ea224fe,,,,,,,,,1551,89.60001278,-38.40000701,1,0,0,response3disk,,5,9.600060415,-6.4373E-06,1,0,0,rectangle,9.600060415,-6.4373E-06,1,0,0,9.600060415,-6.4373E-06,1,0,0,1,56,216,151,1,,,,,,,,
,,,,,,,,,,,,,FF,,,,,,,,0.7506,,,,,,,,,,,,,,,,,,,,,,60fdda59e83450ae5a0f83e6,61036aafb4e8cd61018fe0eb,2021-07-29_22h02.00.322,Simcolourproject_2stim_asymm_v5,2020.2.10,Win32,60,61025ae37ef11b136ea224fe,,,,,,,,,4173,23.20001179,76.79999471,1,0,0,response1disk,,7,-0.799988568,2.399993598,1,0,0,rectangle,-0.799988568,2.399993598,1,0,0,-0.799988568,2.399993598,1,0,0,1,57,217,57,1,,,,,,,,
,,,,,,,,,,,,,FF,,,,,,,,0.9674,,,,,,,,,,,,,,,,,,,,,,60fdda59e83450ae5a0f83e6,61036aafb4e8cd61018fe0eb,2021-07-29_22h02.00.322,Simcolourproject_2stim_asymm_v5,2020.2.10,Win32,60,61025ae37ef11b136ea224fe,,,,,,,,,2937,106.400013,-52.80000722,1,0,0,response3disk,,5,18.40001172,4.799993634,1,0,0,rectangle,18.40001172,4.799993634,1,0,0,18.40001172,4.799993634,1,0,0,1,58,218,119,1,,,,,,,,
,,,,,,,,,,,,,FF,,,,,,,,1.9009,,,,,,,,,,,,,,,,,,,,,,60fdda59e83450ae5a0f83e6,61036aafb4e8cd61018fe0eb,2021-07-29_22h02.00.322,Simcolourproject_2stim_asymm_v5,2020.2.10,Win32,60,61025ae37ef11b136ea224fe,,,,,,,,,2178,93.60001284,-34.40000695,1,0,0,response3disk,,5,4.800011516,5.599993646,1,0,0,rectangle,4.800011516,5.599993646,1,0,0,4.800011516,5.599993646,1,0,0,1,59,219,75,1,,,,,,,,
,,,,,,,,,,,,,FF,,,,,,,,0.9178,,,,,,,,,,,,,,,,,,,,,,60fdda59e83450ae5a0f83e6,61036aafb4e8cd61018fe0eb,2021-07-29_22h02.00.322,Simcolourproject_2stim_asymm_v5,2020.2.10,Win32,60,61025ae37ef11b136ea224fe,,,,,,,,,3909,-39.19998914,-105.6000568,1,0,0,response5disk,,3,2.40001148,-3.200006485,1,0,0,rectangle,2.40001148,-3.200006485,1,0,0,2.40001148,-3.200006485,1,0,0,1,60,220,77,1,,,,,,,,
,,,,,,,,,,,,,FF,,,,,,,,0.6886,,,,,,,,,,,,,,,,,,,,,,60fdda59e83450ae5a0f83e6,61036aafb4e8cd61018fe0eb,2021-07-29_22h02.00.322,Simcolourproject_2stim_asymm_v5,2020.2.10,Win32,60,61025ae37ef11b136ea224fe,,,,,,,,,3933,-32.79998904,-68.00000745,1,0,0,response5disk,,3,-3.999988616,7.999993682,1,0,0,rectangle,-3.999988616,7.999993682,1,0,0,-3.999988616,7.999993682,1,0,0,1,61,221,29,1,,,,,,,,
,,,,,,,,,,,,,FF,,,,,,,,1.1007,,,,,,,,,,,,,,,,,,,,,,60fdda59e83450ae5a0f83e6,61036aafb4e8cd61018fe0eb,2021-07-29_22h02.00.322,Simcolourproject_2stim_asymm_v5,2020.2.10,Win32,60,61025ae37ef11b136ea224fe,,,,,,,,,578,20.80001175,-73.60000753,1,0,0,response3disk,,4,-8.799988687,5.599993646,1,0,0,rectangle,-8.799988687,5.599993646,1,0,0,-8.799988687,5.599993646,1,0,0,1,62,222,41,1,,,,,,,,
,,,,,,,,,,,,,FF,,,,,,,,0.855,,,,,,,,,,,,,,,,,,,,,,60fdda59e83450ae5a0f83e6,61036aafb4e8cd61018fe0eb,2021-07-29_22h02.00.322,Simcolourproject_2stim_asymm_v5,2020.2.10,Win32,60,61025ae37ef11b136ea224fe,,,,,,,,,4270,-63.99998951,-90.40000778,1,0,0,response5disk,,3,-7.999988675,9.599993706,1,0,0,rectangle,-7.999988675,9.599993706,1,0,0,-7.999988675,9.599993706,1,0,0,1,63,223,85,1,,,,,,,,
,,,,,,,,,,,,,FF,,,,,,,,0.8545,,,,,,,,,,,,,,,,,,,,,,60fdda59e83450ae5a0f83e6,61036aafb4e8cd61018fe0eb,2021-07-29_22h02.00.322,Simcolourproject_2stim_asymm_v5,2020.2.10,Win32,60,61025ae37ef11b136ea224fe,,,,,,,,,2666,-43.99998921,-96.80000788,1,0,0,response5disk,,3,2.40001148,-1.600006461,1,0,0,rectangle,2.40001148,-1.600006461,1,0,0,2.40001148,-1.600006461,1,0,0,1,64,224,79,1,,,,,,,,
,,,,,,,,,,,,,FF,,,,,,,,1.2,,,,,,,,,,,,,,,,,,,,,,60fdda59e83450ae5a0f83e6,61036aafb4e8cd61018fe0eb,2021-07-29_22h02.00.322,Simcolourproject_2stim_asymm_v5,2020.2.10,Win32,60,61025ae37ef11b136ea224fe,,,,,,,,,3355,80.00001264,40.79999417,1,0,0,response1disk,,6,-7.999988675,5.599993646,1,0,0,rectangle,-7.999988675,5.599993646,1,0,0,-7.999988675,5.599993646,1,0,0,1,65,225,60,1,,,,,,,,
,,,,,,,,,,,,,FF,,,,,,,,0.7498,,,,,,,,,,,,,,,,,,,,,,60fdda59e83450ae5a0f83e6,61036aafb4e8cd61018fe0eb,2021-07-29_22h02.00.322,Simcolourproject_2stim_asymm_v5,2020.2.10,Win32,60,61025ae37ef11b136ea224fe,,,,,,,,,3098,-99.99999005,-32.00000691,1,0,0,response5disk,,2,-9.599988699,14.39999378,1,0,0,rectangle,-9.599988699,14.39999378,1,0,0,-9.599988699,14.39999378,1,0,0,1,66,226,49,1,,,,,,,,
,,,,,,,,,,,,,FF,,,,,,,,0.9502,,,,,,,,,,,,,,,,,,,,,,60fdda59e83450ae5a0f83e6,61036aafb4e8cd61018fe0eb,2021-07-29_22h02.00.322,Simcolourproject_2stim_asymm_v5,2020.2.10,Win32,60,61025ae37ef11b136ea224fe,,,,,,,,,1425,86.40001273,35.19996967,1,0,0,response1disk,,6,1.14441E-05,-4.800006509,1,0,0,rectangle,-35.19998908,69.5999946,1,0,0,-7.199988663,-10.40000659,1,0,0,1,67,227,136,1,,response7disk_3,TRUE,0,0,"[195,240,10,127,186,147,235,27,4,78,122,209,290,321,228,60,229,128,280,13]",1.3001,rectangle
,,,,,,,,,,,,,FF,,,,,,,,0.7165,,,,,,,,,,,,,,,,,,,,,,60fdda59e83450ae5a0f83e6,61036aafb4e8cd61018fe0eb,2021-07-29_22h02.00.322,Simcolourproject_2stim_asymm_v5,2020.2.10,Win32,60,61025ae37ef11b136ea224fe,,,,,,,,,353,-95.19998997,-40.00000703,1,0,0,response5disk,,2,11.20001161,11.19999373,1,0,0,rectangle,-94.39994113,-52.80000722,1,0,0,-18.39994,7.19999367,1,0,0,1,68,228,81,1,,response5disk_3,TRUE,2,2,"[195,240,10,127,186,147,235,27,4,78,122,209,290,321,228,60,229,128,280,13]",1.3998,rectangle
,,,,,,,,,,,,,FF,,,,,,,,0.8334,,,,,,,,,,,,,,,,,,,,,,60fdda59e83450ae5a0f83e6,61036aafb4e8cd61018fe0eb,2021-07-29_22h02.00.322,Simcolourproject_2stim_asymm_v5,2020.2.10,Win32,60,61025ae37ef11b136ea224fe,,,,,,,,,1584,-57.59998941,-92.80000782,1,0,0,response5disk,,3,-5.599988639,-7.200006545,1,0,0,rectangle,-5.599988639,-7.200006545,1,0,0,-5.599988639,-7.200006545,1,0,0,1,69,229,2,1,,,,,,,,
,,,,,,,,,,,,,FF,,,,,,,,1.5501,,,,,,,,,,,,,,,,,,,,,,60fdda59e83450ae5a0f83e6,61036aafb4e8cd61018fe0eb,2021-07-29_22h02.00.322,Simcolourproject_2stim_asymm_v5,2020.2.10,Win32,60,61025ae37ef11b136ea224fe,,,,,,,,,1187,-41.59998918,-85.60005654,1,0,0,response5disk,,3,-9.599988699,-4.800006509,1,0,0,rectangle,-9.599988699,-4.800006509,1,0,0,-9.599988699,-4.800006509,1,0,0,1,70,230,123,1,,,,,,,,
,,,,,,,,,,,,,FF,,,,,,,,0.8668,,,,,,,,,,,,,,,,,,,,,,60fdda59e83450ae5a0f83e6,61036aafb4e8cd61018fe0eb,2021-07-29_22h02.00.322,Simcolourproject_2stim_asymm_v5,2020.2.10,Win32,60,61025ae37ef11b136ea224fe,,,,,,,,,3934,-54.39994054,-87.20000774,1,0,0,response5disk,,3,0.800011456,16.79999381,1,0,0,rectangle,0.800011456,16.79999381,1,0,0,0.800011456,16.79999381,1,0,0,1,71,231,47,1,,,,,,,,
,,,,,,,,,,,,,FF,,,,,,,,0.9007,,,,,,,,,,,,,,,,,,,,,,60fdda59e83450ae5a0f83e6,61036aafb4e8cd61018fe0eb,2021-07-29_22h02.00.322,Simcolourproject_2stim_asymm_v5,2020.2.10,Win32,60,61025ae37ef11b136ea224fe,,,,,,,,,4049,-45.59998924,-67.20000744,1,0,0,response5disk,,3,-0.799988568,8.799993694,1,0,0,rectangle,-0.799988568,8.799993694,1,0,0,-0.799988568,8.799993694,1,0,0,1,72,232,17,1,,,,,,,,
,,,,,,,,,,,,,FF,,,,,,,,0.9785,,,,,,,,,,,,,,,,,,,,,,60fdda59e83450ae5a0f83e6,61036aafb4e8cd61018fe0eb,2021-07-29_22h02.00.322,Simcolourproject_2stim_asymm_v5,2020.2.10,Win32,60,61025ae37ef11b136ea224fe,,,,,,,,,3648,101.600013,-56.80000728,1,0,0,response3disk,,5,1.600060296,0.799993575,1,0,0,rectangle,1.600060296,0.799993575,1,0,0,1.600060296,0.799993575,1,0,0,1,73,233,10,1,,,,,,,,
,,,,,,,,,,,,,FF,,,,,,,,0.9379,,,,,,,,,,,,,,,,,,,,,,60fdda59e83450ae5a0f83e6,61036aafb4e8cd61018fe0eb,2021-07-29_22h02.00.322,Simcolourproject_2stim_asymm_v5,2020.2.10,Win32,60,61025ae37ef11b136ea224fe,,,,,,,,,2760,98.40001291,-47.20000714,1,0,0,response3disk,,5,11.20001161,-7.200006545,1,0,0,rectangle,59.20001233,114.3999953,1,0,0,-22.39994006,-11.2000066,1,0,0,1,74,234,74,1,,response1disk_3,TRUE,7,7,"[195,240,10,127,186,147,235,27,4,78,122,209,290,321,228,60,229,128,280,13]",1.8994,rectangle
,,,,,,,,,,,,,FF,,,,,,,,1.734,,,,,,,,,,,,,,,,,,,,,,60fdda59e83450ae5a0f83e6,61036aafb4e8cd61018fe0eb,2021-07-29_22h02.00.322,Simcolourproject_2stim_asymm_v5,2020.2.10,Win32,60,61025ae37ef11b136ea224fe,,,,,,,,,3890,96.00001287,-47.20000714,1,0,0,response3disk,,5,-10.39993988,3.999993622,1,0,0,rectangle,-10.39993988,3.999993622,1,0,0,-10.39993988,3.999993622,1,0,0,1,75,235,116,1,,,,,,,,
,,,,,,,,,,,,,FF,,,,,,,,1.7509,,,,,,,,,,,,,,,,,,,,,,60fdda59e83450ae5a0f83e6,61036aafb4e8cd61018fe0eb,2021-07-29_22h02.00.322,Simcolourproject_2stim_asymm_v5,2020.2.10,Win32,60,61025ae37ef11b136ea224fe,,,,,,,,,2171,-40.79998916,-100.0000079,1,0,0,response5disk,,3,-3.999988616,-8.800006568,1,0,0,rectangle,-3.999988616,-8.800006568,1,0,0,-3.999988616,-8.800006568,1,0,0,1,76,236,90,1,,,,,,,,
,,,,,,,,,,,,,FF,,,,,,,,0.7211,,,,,,,,,,,,,,,,,,,,,,60fdda59e83450ae5a0f83e6,61036aafb4e8cd61018fe0eb,2021-07-29_22h02.00.322,Simcolourproject_2stim_asymm_v5,2020.2.10,Win32,60,61025ae37ef11b136ea224fe,,,,,,,,,1452,-66.39994072,-27.20000684,1,0,0,response5disk,,2,-11.99998873,7.999993682,1,0,0,rectangle,-11.99998873,7.999993682,1,0,0,-11.99998873,7.999993682,1,0,0,1,77,237,58,1,,,,,,,,
,,,,,,,,,,,,,FF,,,,,,,,0.7834,,,,,,,,,,,,,,,,,,,,,,60fdda59e83450ae5a0f83e6,61036aafb4e8cd61018fe0eb,2021-07-29_22h02.00.322,Simcolourproject_2stim_asymm_v5,2020.2.10,Win32,60,61025ae37ef11b136ea224fe,,,,,,,,,4254,-80.79998976,-33.60000694,1,0,0,response5disk,,2,-2.399939764,6.399993658,1,0,0,rectangle,-2.399939764,6.399993658,1,0,0,-2.399939764,6.399993658,1,0,0,1,78,238,135,1,,,,,,,,
,,,,,,,,,,,,,FF,,,,,,,,0.8831,,,,,,,,,,,,,,,,,,,,,,60fdda59e83450ae5a0f83e6,61036aafb4e8cd61018fe0eb,2021-07-29_22h02.00.322,Simcolourproject_2stim_asymm_v5,2020.2.10,Win32,60,61025ae37ef11b136ea224fe,,,,,,,,,3705,-43.99998921,103.1999707,1,0,0,response7disk,,0,-3.999988616,9.599993706,1,0,0,rectangle,103.200013,-33.60000694,1,0,0,3.200011492,7.999993682,1,0,0,1,79,239,21,1,,response3disk_3,TRUE,5,5,"[195,240,10,127,186,147,235,27,4,78,122,209,290,321,228,60,229,128,280,13]",3.3123,rectangle
,,,,,,,,,,,,,FF,,,,,,,,1.2517,,,,,,,,,,,,,,,,,,,,,,60fdda59e83450ae5a0f83e6,61036aafb4e8cd61018fe0eb,2021-07-29_22h02.00.322,Simcolourproject_2stim_asymm_v5,2020.2.10,Win32,60,61025ae37ef11b136ea224fe,,,,,,,,,337,92.00001281,35.9999941,1,0,0,response1disk,,6,15.20001167,-6.4373E-06,1,0,0,rectangle,15.20001167,-6.4373E-06,1,0,0,15.20001167,-6.4373E-06,1,0,0,1,80,240,13,1,,,,,,,,
,,,,,,,,,,,,,FF,,,,,,,,0.6666,,,,,,,,,,,,,,,,,,,,,,60fdda59e83450ae5a0f83e6,61036aafb4e8cd61018fe0eb,2021-07-29_22h02.00.322,Simcolourproject_2stim_asymm_v5,2020.2.10,Win32,60,61025ae37ef11b136ea224fe,,,,,,,,,2435,121.6000133,54.39999437,1,0,0,response1disk,,6,21.60006059,2.399993598,1,0,0,rectangle,21.60006059,2.399993598,1,0,0,21.60006059,2.399993598,1,0,0,1,81,241,120,1,,,,,,,,
,,,,,,,,,,,,,FF,,,,,,,,1.0007,,,,,,,,,,,,,,,,,,,,,,60fdda59e83450ae5a0f83e6,61036aafb4e8cd61018fe0eb,2021-07-29_22h02.00.322,Simcolourproject_2stim_asymm_v5,2020.2.10,Win32,60,61025ae37ef11b136ea224fe,,,,,,,,,3061,-47.19998926,-92.00000781,1,0,0,response5disk,,3,-0.799988568,11.19999373,1,0,0,rectangle,-0.799988568,11.19999373,1,0,0,-0.799988568,11.19999373,1,0,0,1,82,242,55,1,,,,,,,,
