key_resp.keys,key_resp.rt,key_resp_14.keys,key_resp_14.rt,key_resp_15.keys,key_resp_15.rt,key_resp_17.keys,key_resp_17.rt,key_resp_9.keys,key_resp_9.rt,key_resp_10.keys,key_resp_10.rt,practice_comparison,Ecc,mouse_5.x,mouse_5.y,mouse_5.leftButton,mouse_5.midButton,mouse_5.rightButton,mouse_5.clicked_name,pracsimilarity,response_time,mouse_10.x,mouse_10.y,mouse_10.leftButton,mouse_10.midButton,mouse_10.rightButton,mouse_10.clicked_name,mouse_7.x,mouse_7.y,mouse_7.leftButton,mouse_7.midButton,mouse_7.rightButton,mouse_6.x,mouse_6.y,mouse_6.leftButton,mouse_6.midButton,mouse_6.rightButton,duringprac.thisRepN,duringprac.thisTrialN,duringprac.thisN,duringprac.thisIndex,duringprac.ran,participant,session,date,expName,psychopyVersion,OS,frameRate,study_id,mouse_7.clicked_name,catchpracsimilarity,catch_response_time,catchnumberprac,catchtrialorderprac,mouse_6.clicked_name,key_resp_22.keys,key_resp_22.rt,realcomparison,mouse.x,mouse.y,mouse.leftButton,mouse.midButton,mouse.rightButton,mouse.clicked_name,Colour2,similarity,mouse_2.x,mouse_2.y,mouse_2.leftButton,mouse_2.midButton,mouse_2.rightButton,mouse_2.clicked_name,mouse_3.x,mouse_3.y,mouse_3.leftButton,mouse_3.midButton,mouse_3.rightButton,mouse_11.x,mouse_11.y,mouse_11.leftButton,mouse_11.midButton,mouse_11.rightButton,trials_2.thisRepN,trials_2.thisTrialN,trials_2.thisN,trials_2.thisIndex,trials_2.ran,Colour1,mouse_3.clicked_name,catchornah,catchsimilarity,catchnumber,catchtrialorder,catchRT,mouse_11.clicked_name
space,2.16611,space,8.14521,space,40.5853,space,47.692675,space,3.917115,space,6.022235,27,PF,-37.31640625,-87.03515625,1,0,0,response5disk_5,3,12.065035,-1.703125,-0.40234375,1,0,0,rectangle_8,-1.703125,-0.40234375,1,0,0,-1.703125,-0.40234375,1,0,0,0,0,0,1,1,60fdcd21c7b9174239c6f73e,61036b7652747e33664b31ab,2021-07-29_22h02.54.952,Simcolourproject_2stim_asymm_v5,2020.2.10,MacIntel,60,61025ae37ef11b136ea224fe,,,,,,,,,,,,,,,,,,,,,,,,,,,,,,,,,,,,,,,,,,,,,,
,,,,,,,,,,,,109,PF,42.1015625,-77.97265625,1,0,0,response3disk_5,4,2.816245,4.58984375,-0.0078125,1,0,0,rectangle_8,-86.14453125,47.83203125,1,0,0,11.3671875,1.90234375,1,0,0,0,1,1,2,1,60fdcd21c7b9174239c6f73e,61036b7652747e33664b31ab,2021-07-29_22h02.54.952,Simcolourproject_2stim_asymm_v5,2020.2.10,MacIntel,60,61025ae37ef11b136ea224fe,response7disk_7,1,4.13532,1,"[2,5]",rectangle_4,,,,,,,,,,,,,,,,,,,,,,,,,,,,,,,,,,,,,,,,
,,,,,,,,,,,,51,PF,-44.0234375,-73.8671875,1,0,0,response5disk_5,3,4.73258,0.66796875,-5.35546875,1,0,0,rectangle_8,0.66796875,-5.35546875,1,0,0,0.66796875,-5.35546875,1,0,0,0,2,2,6,1,60fdcd21c7b9174239c6f73e,61036b7652747e33664b31ab,2021-07-29_22h02.54.952,Simcolourproject_2stim_asymm_v5,2020.2.10,MacIntel,60,61025ae37ef11b136ea224fe,,,,,,,,,,,,,,,,,,,,,,,,,,,,,,,,,,,,,,,,,,,,,,
,,,,,,,,,,,,96,FF,45.1171875,73.40234375,1,0,0,response1disk_5,7,2.86623,2.015625,4.6015625,1,0,0,rectangle_8,2.015625,4.6015625,1,0,0,2.015625,4.6015625,1,0,0,0,3,3,3,1,60fdcd21c7b9174239c6f73e,61036b7652747e33664b31ab,2021-07-29_22h02.54.952,Simcolourproject_2stim_asymm_v5,2020.2.10,MacIntel,60,61025ae37ef11b136ea224fe,,,,,,,,,,,,,,,,,,,,,,,,,,,,,,,,,,,,,,,,,,,,,,
,,,,,,,,,,,,122,PF,-52.640625,-86.77734375,1,0,0,response5disk_5,3,2.716005,9.2109375,3.94140625,1,0,0,rectangle_8,-60.453125,34.65625,1,0,0,-6.10546875,3.109375,1,0,0,0,4,4,4,1,60fdcd21c7b9174239c6f73e,61036b7652747e33664b31ab,2021-07-29_22h02.54.952,Simcolourproject_2stim_asymm_v5,2020.2.10,MacIntel,60,61025ae37ef11b136ea224fe,response7disk_7,1,3.333295,1,"[2,5]",rectangle_4,,,,,,,,,,,,,,,,,,,,,,,,,,,,,,,,,,,,,,,,
,,,,,,,,,,,,108,FF,76.04296875,-40.953125,1,0,0,response3disk_5,5,4.66542,-1.08203125,5.671875,1,0,0,rectangle_8,-1.08203125,5.671875,1,0,0,-1.08203125,5.671875,1,0,0,0,5,5,5,1,60fdcd21c7b9174239c6f73e,61036b7652747e33664b31ab,2021-07-29_22h02.54.952,Simcolourproject_2stim_asymm_v5,2020.2.10,MacIntel,60,61025ae37ef11b136ea224fe,,,,,,,,,,,,,,,,,,,,,,,,,,,,,,,,,,,,,,,,,,,,,,
,,,,,,,,,,,,79,FF,29.484375,87.96875,1,0,0,response1disk_5,7,1.23391,-8.75,-6.74609375,1,0,0,rectangle_8,-8.75,-6.74609375,1,0,0,-8.75,-6.74609375,1,0,0,0,6,6,0,1,60fdcd21c7b9174239c6f73e,61036b7652747e33664b31ab,2021-07-29_22h02.54.952,Simcolourproject_2stim_asymm_v5,2020.2.10,MacIntel,60,61025ae37ef11b136ea224fe,,,,,,,,,,,,,,,,,,,,,,,,,,,,,,,,,,,,,,,,,,,,,,
,,,,,,,,,,,,,FF,,,,,,,,2.283895,,,,,,,,,,,,,,,,,,,,,,60fdcd21c7b9174239c6f73e,61036b7652747e33664b31ab,2021-07-29_22h02.54.952,Simcolourproject_2stim_asymm_v5,2020.2.10,MacIntel,60,61025ae37ef11b136ea224fe,,,,,,,space,5.024045,2351,47.4375,77.27734375,1,0,0,response1disk,,7,3.453125,3.80859375,1,0,0,rectangle,3.453125,3.80859375,1,0,0,3.453125,3.80859375,1,0,0,0,0,0,149,1,,,,,,,,
,,,,,,,,,,,,,FF,,,,,,,,0.916805,,,,,,,,,,,,,,,,,,,,,,60fdcd21c7b9174239c6f73e,61036b7652747e33664b31ab,2021-07-29_22h02.54.952,Simcolourproject_2stim_asymm_v5,2020.2.10,MacIntel,60,61025ae37ef11b136ea224fe,,,,,,,,,4137,33.84765625,96.296875,1,0,0,response1disk,,7,4.796875,-6.44140625,1,0,0,rectangle,4.796875,-6.44140625,1,0,0,4.796875,-6.44140625,1,0,0,0,1,1,70,1,,,,,,,,
,,,,,,,,,,,,,FF,,,,,,,,0.815545,,,,,,,,,,,,,,,,,,,,,,60fdcd21c7b9174239c6f73e,61036b7652747e33664b31ab,2021-07-29_22h02.54.952,Simcolourproject_2stim_asymm_v5,2020.2.10,MacIntel,60,61025ae37ef11b136ea224fe,,,,,,,,,4131,34.11328125,68.93359375,1,0,0,response1disk,,7,-7.64453125,-5.7578125,1,0,0,rectangle,-7.64453125,-5.7578125,1,0,0,-7.64453125,-5.7578125,1,0,0,0,2,2,60,1,,,,,,,,
,,,,,,,,,,,,,FF,,,,,,,,1.567445,,,,,,,,,,,,,,,,,,,,,,60fdcd21c7b9174239c6f73e,61036b7652747e33664b31ab,2021-07-29_22h02.54.952,Simcolourproject_2stim_asymm_v5,2020.2.10,MacIntel,60,61025ae37ef11b136ea224fe,,,,,,,,,303,37.98046875,71.9765625,1,0,0,response1disk,,7,10.609375,6.4765625,1,0,0,rectangle,10.609375,6.4765625,1,0,0,10.609375,6.4765625,1,0,0,0,3,3,145,1,,,,,,,,
,,,,,,,,,,,,,FF,,,,,,,,1.23319,,,,,,,,,,,,,,,,,,,,,,60fdcd21c7b9174239c6f73e,61036b7652747e33664b31ab,2021-07-29_22h02.54.952,Simcolourproject_2stim_asymm_v5,2020.2.10,MacIntel,60,61025ae37ef11b136ea224fe,,,,,,,,,2328,57.171875,25.171875,1,0,0,response1disk,,6,12.25390625,2.30078125,1,0,0,rectangle,12.25390625,2.30078125,1,0,0,12.25390625,2.30078125,1,0,0,0,4,4,57,1,,,,,,,,
,,,,,,,,,,,,,FF,,,,,,,,2.199935,,,,,,,,,,,,,,,,,,,,,,60fdcd21c7b9174239c6f73e,61036b7652747e33664b31ab,2021-07-29_22h02.54.952,Simcolourproject_2stim_asymm_v5,2020.2.10,MacIntel,60,61025ae37ef11b136ea224fe,,,,,,,,,2027,54.4609375,-84.67578125,1,0,0,response3disk,,4,-3.15625,2.8203125,1,0,0,rectangle,-3.15625,2.8203125,1,0,0,-3.15625,2.8203125,1,0,0,0,5,5,144,1,,,,,,,,
,,,,,,,,,,,,,FF,,,,,,,,2.39972,,,,,,,,,,,,,,,,,,,,,,60fdcd21c7b9174239c6f73e,61036b7652747e33664b31ab,2021-07-29_22h02.54.952,Simcolourproject_2stim_asymm_v5,2020.2.10,MacIntel,60,61025ae37ef11b136ea224fe,,,,,,,,,2883,54.42578125,-78.19140625,1,0,0,response3disk,,4,-7.66796875,1.66015625,1,0,0,rectangle,-7.66796875,1.66015625,1,0,0,-7.66796875,1.66015625,1,0,0,0,6,6,93,1,,,,,,,,
,,,,,,,,,,,,,FF,,,,,,,,1.96489,,,,,,,,,,,,,,,,,,,,,,60fdcd21c7b9174239c6f73e,61036b7652747e33664b31ab,2021-07-29_22h02.54.952,Simcolourproject_2stim_asymm_v5,2020.2.10,MacIntel,60,61025ae37ef11b136ea224fe,,,,,,,,,3952,72.87890625,-39.6328125,1,0,0,response3disk,,5,-2.0234375,11.15625,1,0,0,rectangle,-2.0234375,11.15625,1,0,0,-2.0234375,11.15625,1,0,0,0,7,7,154,1,,,,,,,,
,,,,,,,,,,,,,FF,,,,,,,,1.58267,,,,,,,,,,,,,,,,,,,,,,60fdcd21c7b9174239c6f73e,61036b7652747e33664b31ab,2021-07-29_22h02.54.952,Simcolourproject_2stim_asymm_v5,2020.2.10,MacIntel,60,61025ae37ef11b136ea224fe,,,,,,,,,740,-67.85546875,-39.23046875,1,0,0,response5disk,,2,4.1640625,-4.0625,1,0,0,rectangle,4.1640625,-4.0625,1,0,0,4.1640625,-4.0625,1,0,0,0,8,8,76,1,,,,,,,,
,,,,,,,,,,,,,FF,,,,,,,,3.80041,,,,,,,,,,,,,,,,,,,,,,60fdcd21c7b9174239c6f73e,61036b7652747e33664b31ab,2021-07-29_22h02.54.952,Simcolourproject_2stim_asymm_v5,2020.2.10,MacIntel,60,61025ae37ef11b136ea224fe,,,,,,,,,108,45.70703125,-68.69140625,1,0,0,response3disk,,4,20.89453125,-10.69140625,1,0,0,rectangle,20.89453125,-10.69140625,1,0,0,20.89453125,-10.69140625,1,0,0,0,9,9,150,1,,,,,,,,
,,,,,,,,,,,,,FF,,,,,,,,1.150625,,,,,,,,,,,,,,,,,,,,,,60fdcd21c7b9174239c6f73e,61036b7652747e33664b31ab,2021-07-29_22h02.54.952,Simcolourproject_2stim_asymm_v5,2020.2.10,MacIntel,60,61025ae37ef11b136ea224fe,,,,,,,,,4186,-45.1953125,-77.7578125,1,0,0,response5disk,,3,-3.1640625,10.1171875,1,0,0,rectangle,-3.1640625,10.1171875,1,0,0,-3.1640625,10.1171875,1,0,0,0,10,10,9,1,,,,,,,,
,,,,,,,,,,,,,FF,,,,,,,,1.25033,,,,,,,,,,,,,,,,,,,,,,60fdcd21c7b9174239c6f73e,61036b7652747e33664b31ab,2021-07-29_22h02.54.952,Simcolourproject_2stim_asymm_v5,2020.2.10,MacIntel,60,61025ae37ef11b136ea224fe,,,,,,,,,3468,-43.9609375,81.44140625,1,0,0,response7disk,,0,6.890625,-4.1015625,1,0,0,rectangle,6.890625,-4.1015625,1,0,0,6.890625,-4.1015625,1,0,0,0,11,11,14,1,,,,,,,,
,,,,,,,,,,,,,FF,,,,,,,,3.499655,,,,,,,,,,,,,,,,,,,,,,60fdcd21c7b9174239c6f73e,61036b7652747e33664b31ab,2021-07-29_22h02.54.952,Simcolourproject_2stim_asymm_v5,2020.2.10,MacIntel,60,61025ae37ef11b136ea224fe,,,,,,,,,995,77.34375,-49.65234375,1,0,0,response3disk,,5,-2.66796875,-1.7578125,1,0,0,rectangle,-2.66796875,-1.7578125,1,0,0,-2.66796875,-1.7578125,1,0,0,0,12,12,157,1,,,,,,,,
,,,,,,,,,,,,,FF,,,,,,,,1.666445,,,,,,,,,,,,,,,,,,,,,,60fdcd21c7b9174239c6f73e,61036b7652747e33664b31ab,2021-07-29_22h02.54.952,Simcolourproject_2stim_asymm_v5,2020.2.10,MacIntel,60,61025ae37ef11b136ea224fe,,,,,,,,,3638,55.4140625,87.6796875,1,0,0,response1disk,,7,12.7890625,3.1875,1,0,0,rectangle,12.7890625,3.1875,1,0,0,12.7890625,3.1875,1,0,0,0,13,13,85,1,,,,,,,,
,,,,,,,,,,,,,FF,,,,,,,,1.61589,,,,,,,,,,,,,,,,,,,,,,60fdcd21c7b9174239c6f73e,61036b7652747e33664b31ab,2021-07-29_22h02.54.952,Simcolourproject_2stim_asymm_v5,2020.2.10,MacIntel,60,61025ae37ef11b136ea224fe,,,,,,,,,3601,63.85546875,36.09765625,1,0,0,response1disk,,6,11.58203125,-8.5,1,0,0,rectangle,11.58203125,-8.5,1,0,0,11.58203125,-8.5,1,0,0,0,14,14,1,1,,,,,,,,
,,,,,,,,,,,,,FF,,,,,,,,0.983645,,,,,,,,,,,,,,,,,,,,,,60fdcd21c7b9174239c6f73e,61036b7652747e33664b31ab,2021-07-29_22h02.54.952,Simcolourproject_2stim_asymm_v5,2020.2.10,MacIntel,60,61025ae37ef11b136ea224fe,,,,,,,,,3524,26.4921875,72.21484375,1,0,0,response1disk,,7,-10.36328125,8.2109375,1,0,0,rectangle,-10.36328125,8.2109375,1,0,0,-10.36328125,8.2109375,1,0,0,0,15,15,63,1,,,,,,,,
,,,,,,,,,,,,,FF,,,,,,,,1.199775,,,,,,,,,,,,,,,,,,,,,,60fdcd21c7b9174239c6f73e,61036b7652747e33664b31ab,2021-07-29_22h02.54.952,Simcolourproject_2stim_asymm_v5,2020.2.10,MacIntel,60,61025ae37ef11b136ea224fe,,,,,,,,,814,48.078125,-81.3828125,1,0,0,response3disk,,4,6.1953125,-1.90234375,1,0,0,rectangle,6.1953125,-1.90234375,1,0,0,6.1953125,-1.90234375,1,0,0,0,16,16,75,1,,,,,,,,
,,,,,,,,,,,,,FF,,,,,,,,1.020845,,,,,,,,,,,,,,,,,,,,,,60fdcd21c7b9174239c6f73e,61036b7652747e33664b31ab,2021-07-29_22h02.54.952,Simcolourproject_2stim_asymm_v5,2020.2.10,MacIntel,60,61025ae37ef11b136ea224fe,,,,,,,,,3363,21.2890625,59.56640625,1,0,0,response1disk,,7,5.00390625,-4.546875,1,0,0,rectangle,5.00390625,-4.546875,1,0,0,5.00390625,-4.546875,1,0,0,0,17,17,43,1,,,,,,,,
,,,,,,,,,,,,,FF,,,,,,,,1.050335,,,,,,,,,,,,,,,,,,,,,,60fdcd21c7b9174239c6f73e,61036b7652747e33664b31ab,2021-07-29_22h02.54.952,Simcolourproject_2stim_asymm_v5,2020.2.10,MacIntel,60,61025ae37ef11b136ea224fe,,,,,,,,,1745,-86.3828125,-57.0859375,1,0,0,response5disk,,2,-14.49609375,-2.65625,1,0,0,rectangle,-14.49609375,-2.65625,1,0,0,-14.49609375,-2.65625,1,0,0,0,18,18,126,1,,,,,,,,
,,,,,,,,,,,,,FF,,,,,,,,1.599005,,,,,,,,,,,,,,,,,,,,,,60fdcd21c7b9174239c6f73e,61036b7652747e33664b31ab,2021-07-29_22h02.54.952,Simcolourproject_2stim_asymm_v5,2020.2.10,MacIntel,60,61025ae37ef11b136ea224fe,,,,,,,,,2286,-52.7734375,-64.3828125,1,0,0,response5disk,,3,-19.703125,-2.0546875,1,0,0,rectangle,-19.703125,-2.0546875,1,0,0,-19.703125,-2.0546875,1,0,0,0,19,19,29,1,,,,,,,,
,,,,,,,,,,,,,FF,,,,,,,,0.95174,,,,,,,,,,,,,,,,,,,,,,60fdcd21c7b9174239c6f73e,61036b7652747e33664b31ab,2021-07-29_22h02.54.952,Simcolourproject_2stim_asymm_v5,2020.2.10,MacIntel,60,61025ae37ef11b136ea224fe,,,,,,,,,2682,67.3203125,23.16015625,1,0,0,response1disk,,6,6.91015625,-3.078125,1,0,0,rectangle,6.91015625,-3.078125,1,0,0,6.91015625,-3.078125,1,0,0,0,20,20,4,1,,,,,,,,
,,,,,,,,,,,,,FF,,,,,,,,2.129165,,,,,,,,,,,,,,,,,,,,,,60fdcd21c7b9174239c6f73e,61036b7652747e33664b31ab,2021-07-29_22h02.54.952,Simcolourproject_2stim_asymm_v5,2020.2.10,MacIntel,60,61025ae37ef11b136ea224fe,,,,,,,,,1519,47.44921875,82.17578125,1,0,0,response1disk,,7,-0.87109375,1.1875,1,0,0,rectangle,-0.87109375,1.1875,1,0,0,-0.87109375,1.1875,1,0,0,0,21,21,81,1,,,,,,,,
,,,,,,,,,,,,,FF,,,,,,,,1.61658,,,,,,,,,,,,,,,,,,,,,,60fdcd21c7b9174239c6f73e,61036b7652747e33664b31ab,2021-07-29_22h02.54.952,Simcolourproject_2stim_asymm_v5,2020.2.10,MacIntel,60,61025ae37ef11b136ea224fe,,,,,,,,,715,64.4375,-38.5703125,1,0,0,response3disk,,5,2.62109375,0.00390625,1,0,0,rectangle,2.62109375,0.00390625,1,0,0,2.62109375,0.00390625,1,0,0,0,22,22,45,1,,,,,,,,
,,,,,,,,,,,,,FF,,,,,,,,2.933985,,,,,,,,,,,,,,,,,,,,,,60fdcd21c7b9174239c6f73e,61036b7652747e33664b31ab,2021-07-29_22h02.54.952,Simcolourproject_2stim_asymm_v5,2020.2.10,MacIntel,60,61025ae37ef11b136ea224fe,,,,,,,,,1263,33.6953125,71.51953125,1,0,0,response1disk,,7,-3.05078125,10.26171875,1,0,0,rectangle,-3.05078125,10.26171875,1,0,0,-3.05078125,10.26171875,1,0,0,0,23,23,139,1,,,,,,,,
,,,,,,,,,,,,,FF,,,,,,,,1.06956,,,,,,,,,,,,,,,,,,,,,,60fdcd21c7b9174239c6f73e,61036b7652747e33664b31ab,2021-07-29_22h02.54.952,Simcolourproject_2stim_asymm_v5,2020.2.10,MacIntel,60,61025ae37ef11b136ea224fe,,,,,,,,,616,-54.7421875,-71.85546875,1,0,0,response5disk,,3,-18.2265625,1.7421875,1,0,0,rectangle,-18.2265625,1.7421875,1,0,0,-18.2265625,1.7421875,1,0,0,0,24,24,105,1,,,,,,,,
,,,,,,,,,,,,,FF,,,,,,,,1.003175,,,,,,,,,,,,,,,,,,,,,,60fdcd21c7b9174239c6f73e,61036b7652747e33664b31ab,2021-07-29_22h02.54.952,Simcolourproject_2stim_asymm_v5,2020.2.10,MacIntel,60,61025ae37ef11b136ea224fe,,,,,,,,,3673,-56.0703125,-39.359375,1,0,0,response5disk,,2,0.203125,-0.66796875,1,0,0,rectangle,0.203125,-0.66796875,1,0,0,0.203125,-0.66796875,1,0,0,0,25,25,8,1,,,,,,,,
,,,,,,,,,,,,,FF,,,,,,,,0.93347,,,,,,,,,,,,,,,,,,,,,,60fdcd21c7b9174239c6f73e,61036b7652747e33664b31ab,2021-07-29_22h02.54.952,Simcolourproject_2stim_asymm_v5,2020.2.10,MacIntel,60,61025ae37ef11b136ea224fe,,,,,,,,,1426,38.80859375,75.07421875,1,0,0,response1disk,,7,-7.8046875,-2.796875,1,0,0,rectangle,-7.8046875,-2.796875,1,0,0,-7.8046875,-2.796875,1,0,0,0,26,26,137,1,,,,,,,,
,,,,,,,,,,,,,FF,,,,,,,,0.735105,,,,,,,,,,,,,,,,,,,,,,60fdcd21c7b9174239c6f73e,61036b7652747e33664b31ab,2021-07-29_22h02.54.952,Simcolourproject_2stim_asymm_v5,2020.2.10,MacIntel,60,61025ae37ef11b136ea224fe,,,,,,,,,1198,26.4765625,89.43359375,1,0,0,response1disk,,7,-6.46484375,-1.7265625,1,0,0,rectangle,-6.46484375,-1.7265625,1,0,0,-6.46484375,-1.7265625,1,0,0,0,27,27,46,1,,,,,,,,
,,,,,,,,,,,,,FF,,,,,,,,1.30014,,,,,,,,,,,,,,,,,,,,,,60fdcd21c7b9174239c6f73e,61036b7652747e33664b31ab,2021-07-29_22h02.54.952,Simcolourproject_2stim_asymm_v5,2020.2.10,MacIntel,60,61025ae37ef11b136ea224fe,,,,,,,,,2670,46.8125,-57.05078125,1,0,0,response3disk,,4,13.296875,6.91796875,1,0,0,rectangle,13.296875,6.91796875,1,0,0,13.296875,6.91796875,1,0,0,0,28,28,129,1,,,,,,,,
,,,,,,,,,,,,,FF,,,,,,,,0.899835,,,,,,,,,,,,,,,,,,,,,,60fdcd21c7b9174239c6f73e,61036b7652747e33664b31ab,2021-07-29_22h02.54.952,Simcolourproject_2stim_asymm_v5,2020.2.10,MacIntel,60,61025ae37ef11b136ea224fe,,,,,,,,,856,40.13671875,59.5078125,1,0,0,response1disk,,7,20.47265625,6.10546875,1,0,0,rectangle,20.47265625,6.10546875,1,0,0,20.47265625,6.10546875,1,0,0,0,29,29,61,1,,,,,,,,
,,,,,,,,,,,,,FF,,,,,,,,0.983295,,,,,,,,,,,,,,,,,,,,,,60fdcd21c7b9174239c6f73e,61036b7652747e33664b31ab,2021-07-29_22h02.54.952,Simcolourproject_2stim_asymm_v5,2020.2.10,MacIntel,60,61025ae37ef11b136ea224fe,,,,,,,,,1891,-46.3515625,-79.58203125,1,0,0,response5disk,,3,-18.41015625,0.62109375,1,0,0,rectangle,40.67578125,-79.45703125,1,0,0,1.57421875,-2.953125,1,0,0,0,30,30,36,1,,response3disk_3,TRUE,4,4,"[175,150,293,83,96,309,319,226,146,65,198,237,31,273,223,163,148,315,292,57]",3.11939,rectangle
,,,,,,,,,,,,,FF,,,,,,,,0.86552,,,,,,,,,,,,,,,,,,,,,,60fdcd21c7b9174239c6f73e,61036b7652747e33664b31ab,2021-07-29_22h02.54.952,Simcolourproject_2stim_asymm_v5,2020.2.10,MacIntel,60,61025ae37ef11b136ea224fe,,,,,,,,,2692,54.70703125,88.85546875,1,0,0,response1disk,,7,-3.22265625,2.359375,1,0,0,rectangle,-3.22265625,2.359375,1,0,0,-3.22265625,2.359375,1,0,0,0,31,31,55,1,,,,,,,,
,,,,,,,,,,,,,FF,,,,,,,,2.0676,,,,,,,,,,,,,,,,,,,,,,60fdcd21c7b9174239c6f73e,61036b7652747e33664b31ab,2021-07-29_22h02.54.952,Simcolourproject_2stim_asymm_v5,2020.2.10,MacIntel,60,61025ae37ef11b136ea224fe,,,,,,,,,1665,-22.08984375,-94.06640625,1,0,0,response5disk,,3,1.26171875,3.55859375,1,0,0,rectangle,1.26171875,3.55859375,1,0,0,1.26171875,3.55859375,1,0,0,0,32,32,95,1,,,,,,,,
,,,,,,,,,,,,,FF,,,,,,,,2.948315,,,,,,,,,,,,,,,,,,,,,,60fdcd21c7b9174239c6f73e,61036b7652747e33664b31ab,2021-07-29_22h02.54.952,Simcolourproject_2stim_asymm_v5,2020.2.10,MacIntel,60,61025ae37ef11b136ea224fe,,,,,,,,,3070,80.01171875,32.95703125,1,0,0,response1disk,,6,-13.59765625,-5.9140625,1,0,0,rectangle,-13.59765625,-5.9140625,1,0,0,-13.59765625,-5.9140625,1,0,0,0,33,33,13,1,,,,,,,,
,,,,,,,,,,,,,FF,,,,,,,,1.265695,,,,,,,,,,,,,,,,,,,,,,60fdcd21c7b9174239c6f73e,61036b7652747e33664b31ab,2021-07-29_22h02.54.952,Simcolourproject_2stim_asymm_v5,2020.2.10,MacIntel,60,61025ae37ef11b136ea224fe,,,,,,,,,2239,46.48046875,-72.421875,1,0,0,response3disk,,4,15.98828125,0.10546875,1,0,0,rectangle,15.98828125,0.10546875,1,0,0,15.98828125,0.10546875,1,0,0,0,34,34,32,1,,,,,,,,
,,,,,,,,,,,,,FF,,,,,,,,1.884285,,,,,,,,,,,,,,,,,,,,,,60fdcd21c7b9174239c6f73e,61036b7652747e33664b31ab,2021-07-29_22h02.54.952,Simcolourproject_2stim_asymm_v5,2020.2.10,MacIntel,60,61025ae37ef11b136ea224fe,,,,,,,,,32,67.26953125,-31.453125,1,0,0,response3disk,,5,-2.73828125,3.25390625,1,0,0,rectangle,-2.73828125,3.25390625,1,0,0,-2.73828125,3.25390625,1,0,0,0,35,35,42,1,,,,,,,,
,,,,,,,,,,,,,FF,,,,,,,,1.715865,,,,,,,,,,,,,,,,,,,,,,60fdcd21c7b9174239c6f73e,61036b7652747e33664b31ab,2021-07-29_22h02.54.952,Simcolourproject_2stim_asymm_v5,2020.2.10,MacIntel,60,61025ae37ef11b136ea224fe,,,,,,,,,2794,-21.7109375,-62.4921875,1,0,0,response5disk,,3,-11.3125,10.46875,1,0,0,rectangle,-11.3125,10.46875,1,0,0,-11.3125,10.46875,1,0,0,0,36,36,130,1,,,,,,,,
,,,,,,,,,,,,,FF,,,,,,,,1.30002,,,,,,,,,,,,,,,,,,,,,,60fdcd21c7b9174239c6f73e,61036b7652747e33664b31ab,2021-07-29_22h02.54.952,Simcolourproject_2stim_asymm_v5,2020.2.10,MacIntel,60,61025ae37ef11b136ea224fe,,,,,,,,,3397,-37.37109375,-81.42578125,1,0,0,response5disk,,3,-18.00390625,-1.8359375,1,0,0,rectangle,-18.00390625,-1.8359375,1,0,0,-18.00390625,-1.8359375,1,0,0,0,37,37,108,1,,,,,,,,
,,,,,,,,,,,,,FF,,,,,,,,1.43372,,,,,,,,,,,,,,,,,,,,,,60fdcd21c7b9174239c6f73e,61036b7652747e33664b31ab,2021-07-29_22h02.54.952,Simcolourproject_2stim_asymm_v5,2020.2.10,MacIntel,60,61025ae37ef11b136ea224fe,,,,,,,,,4084,80.99609375,32.13671875,1,0,0,response1disk,,6,10.5546875,-1.83203125,1,0,0,rectangle,10.5546875,-1.83203125,1,0,0,10.5546875,-1.83203125,1,0,0,0,38,38,67,1,,,,,,,,
,,,,,,,,,,,,,FF,,,,,,,,1.349835,,,,,,,,,,,,,,,,,,,,,,60fdcd21c7b9174239c6f73e,61036b7652747e33664b31ab,2021-07-29_22h02.54.952,Simcolourproject_2stim_asymm_v5,2020.2.10,MacIntel,60,61025ae37ef11b136ea224fe,,,,,,,,,3941,74.48046875,-37.62109375,1,0,0,response3disk,,5,2.36328125,1.0625,1,0,0,rectangle,2.36328125,1.0625,1,0,0,2.36328125,1.0625,1,0,0,0,39,39,82,1,,,,,,,,
,,,,,,,,,,,,,FF,,,,,,,,1.18584,,,,,,,,,,,,,,,,,,,,,,60fdcd21c7b9174239c6f73e,61036b7652747e33664b31ab,2021-07-29_22h02.54.952,Simcolourproject_2stim_asymm_v5,2020.2.10,MacIntel,60,61025ae37ef11b136ea224fe,,,,,,,,,2226,-47.08984375,73.28125,1,0,0,response7disk,,0,-19.68359375,-1.953125,1,0,0,rectangle,-19.68359375,-1.953125,1,0,0,-19.68359375,-1.953125,1,0,0,0,40,40,155,1,,,,,,,,
,,,,,,,,,,,,,FF,,,,,,,,1.750615,,,,,,,,,,,,,,,,,,,,,,60fdcd21c7b9174239c6f73e,61036b7652747e33664b31ab,2021-07-29_22h02.54.952,Simcolourproject_2stim_asymm_v5,2020.2.10,MacIntel,60,61025ae37ef11b136ea224fe,,,,,,,,,1536,-36.5234375,-88.05859375,1,0,0,response5disk,,3,-9.390625,-1.27734375,1,0,0,rectangle,-9.390625,-1.27734375,1,0,0,-9.390625,-1.27734375,1,0,0,0,41,41,89,1,,,,,,,,
,,,,,,,,,,,,,FF,,,,,,,,0.73376,,,,,,,,,,,,,,,,,,,,,,60fdcd21c7b9174239c6f73e,61036b7652747e33664b31ab,2021-07-29_22h02.54.952,Simcolourproject_2stim_asymm_v5,2020.2.10,MacIntel,60,61025ae37ef11b136ea224fe,,,,,,,,,2758,36.7734375,73.50390625,1,0,0,response1disk,,7,4.4453125,6.28125,1,0,0,rectangle,4.4453125,6.28125,1,0,0,4.4453125,6.28125,1,0,0,0,42,42,97,1,,,,,,,,
,,,,,,,,,,,,,FF,,,,,,,,1.516145,,,,,,,,,,,,,,,,,,,,,,60fdcd21c7b9174239c6f73e,61036b7652747e33664b31ab,2021-07-29_22h02.54.952,Simcolourproject_2stim_asymm_v5,2020.2.10,MacIntel,60,61025ae37ef11b136ea224fe,,,,,,,,,3925,58.99609375,47.9453125,1,0,0,response1disk,,6,-18.65625,-4.0859375,1,0,0,rectangle,-18.65625,-4.0859375,1,0,0,-18.65625,-4.0859375,1,0,0,0,43,43,59,1,,,,,,,,
,,,,,,,,,,,,,FF,,,,,,,,1.9176,,,,,,,,,,,,,,,,,,,,,,60fdcd21c7b9174239c6f73e,61036b7652747e33664b31ab,2021-07-29_22h02.54.952,Simcolourproject_2stim_asymm_v5,2020.2.10,MacIntel,60,61025ae37ef11b136ea224fe,,,,,,,,,3821,33.81640625,-87.8515625,1,0,0,response3disk,,4,5.1328125,-0.3125,1,0,0,rectangle,5.1328125,-0.3125,1,0,0,5.1328125,-0.3125,1,0,0,0,44,44,6,1,,,,,,,,
,,,,,,,,,,,,,FF,,,,,,,,2.01588,,,,,,,,,,,,,,,,,,,,,,60fdcd21c7b9174239c6f73e,61036b7652747e33664b31ab,2021-07-29_22h02.54.952,Simcolourproject_2stim_asymm_v5,2020.2.10,MacIntel,60,61025ae37ef11b136ea224fe,,,,,,,,,1567,35.1640625,61.58203125,1,0,0,response1disk,,7,2.8671875,-2.44921875,1,0,0,rectangle,2.8671875,-2.44921875,1,0,0,2.8671875,-2.44921875,1,0,0,0,45,45,132,1,,,,,,,,
,,,,,,,,,,,,,FF,,,,,,,,2.836895,,,,,,,,,,,,,,,,,,,,,,60fdcd21c7b9174239c6f73e,61036b7652747e33664b31ab,2021-07-29_22h02.54.952,Simcolourproject_2stim_asymm_v5,2020.2.10,MacIntel,60,61025ae37ef11b136ea224fe,,,,,,,,,1526,80.78125,37.0859375,1,0,0,response1disk,,6,0,-0.203125,1,0,0,rectangle,0,-0.203125,1,0,0,0,-0.203125,1,0,0,0,46,46,136,1,,,,,,,,
,,,,,,,,,,,,,FF,,,,,,,,1.01712,,,,,,,,,,,,,,,,,,,,,,60fdcd21c7b9174239c6f73e,61036b7652747e33664b31ab,2021-07-29_22h02.54.952,Simcolourproject_2stim_asymm_v5,2020.2.10,MacIntel,60,61025ae37ef11b136ea224fe,,,,,,,,,3561,30.65625,71.76953125,1,0,0,response1disk,,7,2.8203125,5.40234375,1,0,0,rectangle,2.8203125,5.40234375,1,0,0,2.8203125,5.40234375,1,0,0,0,47,47,79,1,,,,,,,,
,,,,,,,,,,,,,FF,,,,,,,,0.978875,,,,,,,,,,,,,,,,,,,,,,60fdcd21c7b9174239c6f73e,61036b7652747e33664b31ab,2021-07-29_22h02.54.952,Simcolourproject_2stim_asymm_v5,2020.2.10,MacIntel,60,61025ae37ef11b136ea224fe,,,,,,,,,1884,61.98828125,-28.67578125,1,0,0,response3disk,,5,2.99609375,-0.36328125,1,0,0,rectangle,2.99609375,-0.36328125,1,0,0,2.99609375,-0.36328125,1,0,0,0,48,48,127,1,,,,,,,,
,,,,,,,,,,,,,FF,,,,,,,,2.049495,,,,,,,,,,,,,,,,,,,,,,60fdcd21c7b9174239c6f73e,61036b7652747e33664b31ab,2021-07-29_22h02.54.952,Simcolourproject_2stim_asymm_v5,2020.2.10,MacIntel,60,61025ae37ef11b136ea224fe,,,,,,,,,1683,-85.08203125,-52.93359375,1,0,0,response5disk,,2,-25.67578125,-2.1953125,1,0,0,rectangle,-25.67578125,-2.1953125,1,0,0,-25.67578125,-2.1953125,1,0,0,0,49,49,88,1,,,,,,,,
,,,,,,,,,,,,,FF,,,,,,,,0.998555,,,,,,,,,,,,,,,,,,,,,,60fdcd21c7b9174239c6f73e,61036b7652747e33664b31ab,2021-07-29_22h02.54.952,Simcolourproject_2stim_asymm_v5,2020.2.10,MacIntel,60,61025ae37ef11b136ea224fe,,,,,,,,,3346,-66.1953125,-43.12109375,1,0,0,response5disk,,2,-8.01953125,-4.6953125,1,0,0,rectangle,-8.01953125,-4.6953125,1,0,0,-8.01953125,-4.6953125,1,0,0,0,50,50,78,1,,,,,,,,
,,,,,,,,,,,,,FF,,,,,,,,0.86783,,,,,,,,,,,,,,,,,,,,,,60fdcd21c7b9174239c6f73e,61036b7652747e33664b31ab,2021-07-29_22h02.54.952,Simcolourproject_2stim_asymm_v5,2020.2.10,MacIntel,60,61025ae37ef11b136ea224fe,,,,,,,,,4162,-67.43359375,-37.265625,1,0,0,response5disk,,2,-9.49609375,-3.05859375,1,0,0,rectangle,-9.49609375,-3.05859375,1,0,0,-9.49609375,-3.05859375,1,0,0,0,51,51,33,1,,,,,,,,
,,,,,,,,,,,,,FF,,,,,,,,0.934405,,,,,,,,,,,,,,,,,,,,,,60fdcd21c7b9174239c6f73e,61036b7652747e33664b31ab,2021-07-29_22h02.54.952,Simcolourproject_2stim_asymm_v5,2020.2.10,MacIntel,60,61025ae37ef11b136ea224fe,,,,,,,,,3480,43.33984375,-73.3046875,1,0,0,response3disk,,4,6.625,0.33203125,1,0,0,rectangle,6.625,0.33203125,1,0,0,6.625,0.33203125,1,0,0,0,52,52,20,1,,,,,,,,
,,,,,,,,,,,,,FF,,,,,,,,0.99998,,,,,,,,,,,,,,,,,,,,,,60fdcd21c7b9174239c6f73e,61036b7652747e33664b31ab,2021-07-29_22h02.54.952,Simcolourproject_2stim_asymm_v5,2020.2.10,MacIntel,60,61025ae37ef11b136ea224fe,,,,,,,,,1981,67.109375,37.93359375,1,0,0,response1disk,,6,-6.0703125,-4.26171875,1,0,0,rectangle,-6.0703125,-4.26171875,1,0,0,-6.0703125,-4.26171875,1,0,0,0,53,53,64,1,,,,,,,,
,,,,,,,,,,,,,FF,,,,,,,,0.801065,,,,,,,,,,,,,,,,,,,,,,60fdcd21c7b9174239c6f73e,61036b7652747e33664b31ab,2021-07-29_22h02.54.952,Simcolourproject_2stim_asymm_v5,2020.2.10,MacIntel,60,61025ae37ef11b136ea224fe,,,,,,,,,1997,30.06640625,75.93359375,1,0,0,response1disk,,7,-2.65625,-8.23828125,1,0,0,rectangle,-2.65625,-8.23828125,1,0,0,-2.65625,-8.23828125,1,0,0,0,54,54,68,1,,,,,,,,
,,,,,,,,,,,,,FF,,,,,,,,1.56593,,,,,,,,,,,,,,,,,,,,,,60fdcd21c7b9174239c6f73e,61036b7652747e33664b31ab,2021-07-29_22h02.54.952,Simcolourproject_2stim_asymm_v5,2020.2.10,MacIntel,60,61025ae37ef11b136ea224fe,,,,,,,,,2293,-75.9921875,-36.16015625,1,0,0,response5disk,,2,9.9296875,-4.625,1,0,0,rectangle,9.9296875,-4.625,1,0,0,9.9296875,-4.625,1,0,0,0,55,55,65,1,,,,,,,,
,,,,,,,,,,,,,FF,,,,,,,,2.235495,,,,,,,,,,,,,,,,,,,,,,60fdcd21c7b9174239c6f73e,61036b7652747e33664b31ab,2021-07-29_22h02.54.952,Simcolourproject_2stim_asymm_v5,2020.2.10,MacIntel,60,61025ae37ef11b136ea224fe,,,,,,,,,4192,49.90625,76.04296875,1,0,0,response1disk,,7,5.51171875,-0.0625,1,0,0,rectangle,-41.328125,69.20703125,1,0,0,-9.58984375,-1.1796875,1,0,0,0,56,56,3,1,,response7disk_3,TRUE,0,0,"[175,150,293,83,96,309,319,226,146,65,198,237,31,273,223,163,148,315,292,57]",2.23487,rectangle
,,,,,,,,,,,,,FF,,,,,,,,1.832585,,,,,,,,,,,,,,,,,,,,,,60fdcd21c7b9174239c6f73e,61036b7652747e33664b31ab,2021-07-29_22h02.54.952,Simcolourproject_2stim_asymm_v5,2020.2.10,MacIntel,60,61025ae37ef11b136ea224fe,,,,,,,,,3552,-38.0546875,92.140625,1,0,0,response7disk,,0,1.1328125,0.296875,1,0,0,rectangle,1.1328125,0.296875,1,0,0,1.1328125,0.296875,1,0,0,0,57,57,158,1,,,,,,,,
,,,,,,,,,,,,,FF,,,,,,,,3.38438,,,,,,,,,,,,,,,,,,,,,,60fdcd21c7b9174239c6f73e,61036b7652747e33664b31ab,2021-07-29_22h02.54.952,Simcolourproject_2stim_asymm_v5,2020.2.10,MacIntel,60,61025ae37ef11b136ea224fe,,,,,,,,,3038,39.12109375,-68.38671875,1,0,0,response3disk,,4,5.65625,-2.76171875,1,0,0,rectangle,5.65625,-2.76171875,1,0,0,5.65625,-2.76171875,1,0,0,0,58,58,73,1,,,,,,,,
,,,,,,,,,,,,,FF,,,,,,,,1.8172,,,,,,,,,,,,,,,,,,,,,,60fdcd21c7b9174239c6f73e,61036b7652747e33664b31ab,2021-07-29_22h02.54.952,Simcolourproject_2stim_asymm_v5,2020.2.10,MacIntel,60,61025ae37ef11b136ea224fe,,,,,,,,,4119,-24.97265625,-72.3359375,1,0,0,response5disk,,3,-2.125,4.94140625,1,0,0,rectangle,-2.125,4.94140625,1,0,0,-2.125,4.94140625,1,0,0,0,59,59,34,1,,,,,,,,
,,,,,,,,,,,,,FF,,,,,,,,0.933395,,,,,,,,,,,,,,,,,,,,,,60fdcd21c7b9174239c6f73e,61036b7652747e33664b31ab,2021-07-29_22h02.54.952,Simcolourproject_2stim_asymm_v5,2020.2.10,MacIntel,60,61025ae37ef11b136ea224fe,,,,,,,,,3356,85.54296875,25.52734375,1,0,0,response1disk,,6,11.63671875,-3.98046875,1,0,0,rectangle,11.63671875,-3.98046875,1,0,0,11.63671875,-3.98046875,1,0,0,0,60,60,99,1,,,,,,,,
,,,,,,,,,,,,,FF,,,,,,,,0.69879,,,,,,,,,,,,,,,,,,,,,,60fdcd21c7b9174239c6f73e,61036b7652747e33664b31ab,2021-07-29_22h02.54.952,Simcolourproject_2stim_asymm_v5,2020.2.10,MacIntel,60,61025ae37ef11b136ea224fe,,,,,,,,,2000,38.0234375,73.421875,1,0,0,response1disk,,7,13.8671875,4.50390625,1,0,0,rectangle,13.8671875,4.50390625,1,0,0,13.8671875,4.50390625,1,0,0,0,61,61,159,1,,,,,,,,
,,,,,,,,,,,,,FF,,,,,,,,1.69944,,,,,,,,,,,,,,,,,,,,,,60fdcd21c7b9174239c6f73e,61036b7652747e33664b31ab,2021-07-29_22h02.54.952,Simcolourproject_2stim_asymm_v5,2020.2.10,MacIntel,60,61025ae37ef11b136ea224fe,,,,,,,,,2311,67.27734375,31.53125,1,0,0,response1disk,,6,11.85546875,-4.96875,1,0,0,rectangle,11.85546875,-4.96875,1,0,0,11.85546875,-4.96875,1,0,0,0,62,62,15,1,,,,,,,,
,,,,,,,,,,,,,FF,,,,,,,,1.816475,,,,,,,,,,,,,,,,,,,,,,60fdcd21c7b9174239c6f73e,61036b7652747e33664b31ab,2021-07-29_22h02.54.952,Simcolourproject_2stim_asymm_v5,2020.2.10,MacIntel,60,61025ae37ef11b136ea224fe,,,,,,,,,845,18,74.44921875,1,0,0,response1disk,,7,-15.44921875,-8.24609375,1,0,0,rectangle,-15.44921875,-8.24609375,1,0,0,-15.44921875,-8.24609375,1,0,0,0,63,63,35,1,,,,,,,,
,,,,,,,,,,,,,FF,,,,,,,,1.382815,,,,,,,,,,,,,,,,,,,,,,60fdcd21c7b9174239c6f73e,61036b7652747e33664b31ab,2021-07-29_22h02.54.952,Simcolourproject_2stim_asymm_v5,2020.2.10,MacIntel,60,61025ae37ef11b136ea224fe,,,,,,,,,1063,37.93359375,63.51953125,1,0,0,response1disk,,7,7.36328125,4.7734375,1,0,0,rectangle,-22.03515625,81.59375,1,0,0,-12.23046875,2.984375,1,0,0,0,64,64,104,1,,response7disk_3,TRUE,0,0,"[175,150,293,83,96,309,319,226,146,65,198,237,31,273,223,163,148,315,292,57]",2.133965,rectangle
,,,,,,,,,,,,,FF,,,,,,,,1.28217,,,,,,,,,,,,,,,,,,,,,,60fdcd21c7b9174239c6f73e,61036b7652747e33664b31ab,2021-07-29_22h02.54.952,Simcolourproject_2stim_asymm_v5,2020.2.10,MacIntel,60,61025ae37ef11b136ea224fe,,,,,,,,,3981,44.65234375,-81.91015625,1,0,0,response3disk,,4,11.81640625,-3.23046875,1,0,0,rectangle,11.81640625,-3.23046875,1,0,0,11.81640625,-3.23046875,1,0,0,0,65,65,38,1,,,,,,,,
,,,,,,,,,,,,,FF,,,,,,,,1.116515,,,,,,,,,,,,,,,,,,,,,,60fdcd21c7b9174239c6f73e,61036b7652747e33664b31ab,2021-07-29_22h02.54.952,Simcolourproject_2stim_asymm_v5,2020.2.10,MacIntel,60,61025ae37ef11b136ea224fe,,,,,,,,,4095,-45.5390625,78.859375,1,0,0,response7disk,,0,-13.27734375,5.38671875,1,0,0,rectangle,-13.27734375,5.38671875,1,0,0,-13.27734375,5.38671875,1,0,0,0,66,66,86,1,,,,,,,,
,,,,,,,,,,,,,FF,,,,,,,,1.216655,,,,,,,,,,,,,,,,,,,,,,60fdcd21c7b9174239c6f73e,61036b7652747e33664b31ab,2021-07-29_22h02.54.952,Simcolourproject_2stim_asymm_v5,2020.2.10,MacIntel,60,61025ae37ef11b136ea224fe,,,,,,,,,1310,-38.609375,-75.94140625,1,0,0,response5disk,,3,-10.12890625,2.6796875,1,0,0,rectangle,-10.12890625,2.6796875,1,0,0,-10.12890625,2.6796875,1,0,0,0,67,67,44,1,,,,,,,,
,,,,,,,,,,,,,FF,,,,,,,,1.71901,,,,,,,,,,,,,,,,,,,,,,60fdcd21c7b9174239c6f73e,61036b7652747e33664b31ab,2021-07-29_22h02.54.952,Simcolourproject_2stim_asymm_v5,2020.2.10,MacIntel,60,61025ae37ef11b136ea224fe,,,,,,,,,3619,27.57421875,67.296875,1,0,0,response1disk,,7,-10.03515625,5.84375,1,0,0,rectangle,-10.03515625,5.84375,1,0,0,-10.03515625,5.84375,1,0,0,0,68,68,24,1,,,,,,,,
,,,,,,,,,,,,,FF,,,,,,,,1.55054,,,,,,,,,,,,,,,,,,,,,,60fdcd21c7b9174239c6f73e,61036b7652747e33664b31ab,2021-07-29_22h02.54.952,Simcolourproject_2stim_asymm_v5,2020.2.10,MacIntel,60,61025ae37ef11b136ea224fe,,,,,,,,,1875,28.98046875,73.60546875,1,0,0,response1disk,,7,-9.1875,0.23828125,1,0,0,rectangle,-9.1875,0.23828125,1,0,0,-9.1875,0.23828125,1,0,0,0,69,69,107,1,,,,,,,,
,,,,,,,,,,,,,FF,,,,,,,,2.39929,,,,,,,,,,,,,,,,,,,,,,60fdcd21c7b9174239c6f73e,61036b7652747e33664b31ab,2021-07-29_22h02.54.952,Simcolourproject_2stim_asymm_v5,2020.2.10,MacIntel,60,61025ae37ef11b136ea224fe,,,,,,,,,3200,-38.125,-74.77734375,1,0,0,response5disk,,3,-20.04296875,-1.58984375,1,0,0,rectangle,-20.04296875,-1.58984375,1,0,0,-20.04296875,-1.58984375,1,0,0,0,70,70,66,1,,,,,,,,
,,,,,,,,,,,,,FF,,,,,,,,1.633365,,,,,,,,,,,,,,,,,,,,,,60fdcd21c7b9174239c6f73e,61036b7652747e33664b31ab,2021-07-29_22h02.54.952,Simcolourproject_2stim_asymm_v5,2020.2.10,MacIntel,60,61025ae37ef11b136ea224fe,,,,,,,,,2713,67.3125,-95.953125,1,0,0,response3disk,,4,14.33984375,6.30859375,1,0,0,rectangle,14.33984375,6.30859375,1,0,0,14.33984375,6.30859375,1,0,0,0,71,71,111,1,,,,,,,,
,,,,,,,,,,,,,FF,,,,,,,,1.132855,,,,,,,,,,,,,,,,,,,,,,60fdcd21c7b9174239c6f73e,61036b7652747e33664b31ab,2021-07-29_22h02.54.952,Simcolourproject_2stim_asymm_v5,2020.2.10,MacIntel,60,61025ae37ef11b136ea224fe,,,,,,,,,1708,47.11328125,77.68359375,1,0,0,response1disk,,7,10.75390625,0.609375,1,0,0,rectangle,10.75390625,0.609375,1,0,0,10.75390625,0.609375,1,0,0,0,72,72,119,1,,,,,,,,
,,,,,,,,,,,,,FF,,,,,,,,3.76506,,,,,,,,,,,,,,,,,,,,,,60fdcd21c7b9174239c6f73e,61036b7652747e33664b31ab,2021-07-29_22h02.54.952,Simcolourproject_2stim_asymm_v5,2020.2.10,MacIntel,60,61025ae37ef11b136ea224fe,,,,,,,,,3858,36.921875,59.87109375,1,0,0,response1disk,,7,12.9921875,2.44921875,1,0,0,rectangle,12.9921875,2.44921875,1,0,0,12.9921875,2.44921875,1,0,0,0,73,73,69,1,,,,,,,,
,,,,,,,,,,,,,FF,,,,,,,,2.366785,,,,,,,,,,,,,,,,,,,,,,60fdcd21c7b9174239c6f73e,61036b7652747e33664b31ab,2021-07-29_22h02.54.952,Simcolourproject_2stim_asymm_v5,2020.2.10,MacIntel,60,61025ae37ef11b136ea224fe,,,,,,,,,135,39.1484375,65.28125,1,0,0,response1disk,,7,-6.3203125,-1.04296875,1,0,0,rectangle,-6.3203125,-1.04296875,1,0,0,-6.3203125,-1.04296875,1,0,0,0,74,74,91,1,,,,,,,,
,,,,,,,,,,,,,FF,,,,,,,,2.28468,,,,,,,,,,,,,,,,,,,,,,60fdcd21c7b9174239c6f73e,61036b7652747e33664b31ab,2021-07-29_22h02.54.952,Simcolourproject_2stim_asymm_v5,2020.2.10,MacIntel,60,61025ae37ef11b136ea224fe,,,,,,,,,2478,44.0078125,65.20703125,1,0,0,response1disk,,7,3.12109375,6.95703125,1,0,0,rectangle,3.12109375,6.95703125,1,0,0,3.12109375,6.95703125,1,0,0,0,75,75,146,1,,,,,,,,
,,,,,,,,,,,,,FF,,,,,,,,2.633495,,,,,,,,,,,,,,,,,,,,,,60fdcd21c7b9174239c6f73e,61036b7652747e33664b31ab,2021-07-29_22h02.54.952,Simcolourproject_2stim_asymm_v5,2020.2.10,MacIntel,60,61025ae37ef11b136ea224fe,,,,,,,,,546,35.18359375,-77.94140625,1,0,0,response3disk,,4,10.00390625,-2.87890625,1,0,0,rectangle,10.00390625,-2.87890625,1,0,0,10.00390625,-2.87890625,1,0,0,0,76,76,117,1,,,,,,,,
,,,,,,,,,,,,,FF,,,,,,,,0.883705,,,,,,,,,,,,,,,,,,,,,,60fdcd21c7b9174239c6f73e,61036b7652747e33664b31ab,2021-07-29_22h02.54.952,Simcolourproject_2stim_asymm_v5,2020.2.10,MacIntel,60,61025ae37ef11b136ea224fe,,,,,,,,,4217,37.97265625,69.85546875,1,0,0,response1disk,,7,15.98046875,1.84375,1,0,0,rectangle,15.98046875,1.84375,1,0,0,15.98046875,1.84375,1,0,0,0,77,77,151,1,,,,,,,,
,,,,,,,,,,,,,FF,,,,,,,,1.301795,,,,,,,,,,,,,,,,,,,,,,60fdcd21c7b9174239c6f73e,61036b7652747e33664b31ab,2021-07-29_22h02.54.952,Simcolourproject_2stim_asymm_v5,2020.2.10,MacIntel,60,61025ae37ef11b136ea224fe,,,,,,,,,3377,34.9765625,57.640625,1,0,0,response1disk,,7,15.30859375,-2.62109375,1,0,0,rectangle,15.30859375,-2.62109375,1,0,0,15.30859375,-2.62109375,1,0,0,0,78,78,52,1,,,,,,,,
,,,,,,,,,,,,,FF,,,,,,,,0.86844,,,,,,,,,,,,,,,,,,,,,,60fdcd21c7b9174239c6f73e,61036b7652747e33664b31ab,2021-07-29_22h02.54.952,Simcolourproject_2stim_asymm_v5,2020.2.10,MacIntel,60,61025ae37ef11b136ea224fe,,,,,,,,,683,65.2890625,26.66015625,1,0,0,response1disk,,6,10.2265625,7.62109375,1,0,0,rectangle,10.2265625,7.62109375,1,0,0,10.2265625,7.62109375,1,0,0,0,79,79,72,1,,,,,,,,
,,,,,,,,,,,,,FF,,,,,,,,1.151285,,,,,,,,,,,,,,,,,,,,,,60fdcd21c7b9174239c6f73e,61036b7652747e33664b31ab,2021-07-29_22h02.54.952,Simcolourproject_2stim_asymm_v5,2020.2.10,MacIntel,60,61025ae37ef11b136ea224fe,,,,,,,,,4197,40.5625,72.29296875,1,0,0,response1disk,,7,5.24609375,7.1171875,1,0,0,rectangle,5.24609375,7.1171875,1,0,0,5.24609375,7.1171875,1,0,0,0,80,80,94,1,,,,,,,,
,,,,,,,,,,,,,FF,,,,,,,,1.25152,,,,,,,,,,,,,,,,,,,,,,60fdcd21c7b9174239c6f73e,61036b7652747e33664b31ab,2021-07-29_22h02.54.952,Simcolourproject_2stim_asymm_v5,2020.2.10,MacIntel,60,61025ae37ef11b136ea224fe,,,,,,,,,2379,61.41015625,-53.796875,1,0,0,response3disk,,5,6.24609375,-3.375,1,0,0,rectangle,6.24609375,-3.375,1,0,0,6.24609375,-3.375,1,0,0,0,81,81,83,1,,,,,,,,
,,,,,,,,,,,,,FF,,,,,,,,1.665515,,,,,,,,,,,,,,,,,,,,,,60fdcd21c7b9174239c6f73e,61036b7652747e33664b31ab,2021-07-29_22h02.54.952,Simcolourproject_2stim_asymm_v5,2020.2.10,MacIntel,60,61025ae37ef11b136ea224fe,,,,,,,,,1680,-27.015625,-91.91796875,1,0,0,response5disk,,3,-1.5625,5.87109375,1,0,0,rectangle,36.18359375,83.9375,1,0,0,8.52734375,-1.55078125,1,0,0,0,82,82,25,1,,response1disk_3,TRUE,7,7,"[175,150,293,83,96,309,319,226,146,65,198,237,31,273,223,163,148,315,292,57]",1.98171,rectangle
,,,,,,,,,,,,,FF,,,,,,,,0.901435,,,,,,,,,,,,,,,,,,,,,,60fdcd21c7b9174239c6f73e,61036b7652747e33664b31ab,2021-07-29_22h02.54.952,Simcolourproject_2stim_asymm_v5,2020.2.10,MacIntel,60,61025ae37ef11b136ea224fe,,,,,,,,,3354,53.51171875,96.07421875,1,0,0,response1disk,,7,4.65234375,-5.84375,1,0,0,rectangle,4.65234375,-5.84375,1,0,0,4.65234375,-5.84375,1,0,0,0,83,83,39,1,,,,,,,,
,,,,,,,,,,,,,FF,,,,,,,,0.799845,,,,,,,,,,,,,,,,,,,,,,60fdcd21c7b9174239c6f73e,61036b7652747e33664b31ab,2021-07-29_22h02.54.952,Simcolourproject_2stim_asymm_v5,2020.2.10,MacIntel,60,61025ae37ef11b136ea224fe,,,,,,,,,1247,30.546875,59.3984375,1,0,0,response1disk,,7,19.12109375,-0.22265625,1,0,0,rectangle,19.12109375,-0.22265625,1,0,0,19.12109375,-0.22265625,1,0,0,0,84,84,114,1,,,,,,,,
,,,,,,,,,,,,,FF,,,,,,,,0.69896,,,,,,,,,,,,,,,,,,,,,,60fdcd21c7b9174239c6f73e,61036b7652747e33664b31ab,2021-07-29_22h02.54.952,Simcolourproject_2stim_asymm_v5,2020.2.10,MacIntel,60,61025ae37ef11b136ea224fe,,,,,,,,,4272,37,60.19140625,1,0,0,response1disk,,7,10.90625,1.421875,1,0,0,rectangle,10.90625,1.421875,1,0,0,10.90625,1.421875,1,0,0,0,85,85,101,1,,,,,,,,
,,,,,,,,,,,,,FF,,,,,,,,1.73484,,,,,,,,,,,,,,,,,,,,,,60fdcd21c7b9174239c6f73e,61036b7652747e33664b31ab,2021-07-29_22h02.54.952,Simcolourproject_2stim_asymm_v5,2020.2.10,MacIntel,60,61025ae37ef11b136ea224fe,,,,,,,,,1513,28.40234375,52.578125,1,0,0,response1disk,,7,-2.59375,-1.73828125,1,0,0,rectangle,-2.59375,-1.73828125,1,0,0,-2.59375,-1.73828125,1,0,0,0,86,86,80,1,,,,,,,,
,,,,,,,,,,,,,FF,,,,,,,,0.96739,,,,,,,,,,,,,,,,,,,,,,60fdcd21c7b9174239c6f73e,61036b7652747e33664b31ab,2021-07-29_22h02.54.952,Simcolourproject_2stim_asymm_v5,2020.2.10,MacIntel,60,61025ae37ef11b136ea224fe,,,,,,,,,1377,41.83203125,-80.40625,1,0,0,response3disk,,4,14.328125,-3.65234375,1,0,0,rectangle,14.328125,-3.65234375,1,0,0,14.328125,-3.65234375,1,0,0,0,87,87,74,1,,,,,,,,
,,,,,,,,,,,,,FF,,,,,,,,0.617345,,,,,,,,,,,,,,,,,,,,,,60fdcd21c7b9174239c6f73e,61036b7652747e33664b31ab,2021-07-29_22h02.54.952,Simcolourproject_2stim_asymm_v5,2020.2.10,MacIntel,60,61025ae37ef11b136ea224fe,,,,,,,,,720,-31.67578125,-66.3671875,1,0,0,response5disk,,3,-23.69140625,7.34375,1,0,0,rectangle,-23.69140625,7.34375,1,0,0,-23.69140625,7.34375,1,0,0,0,88,88,23,1,,,,,,,,
,,,,,,,,,,,,,FF,,,,,,,,1.38175,,,,,,,,,,,,,,,,,,,,,,60fdcd21c7b9174239c6f73e,61036b7652747e33664b31ab,2021-07-29_22h02.54.952,Simcolourproject_2stim_asymm_v5,2020.2.10,MacIntel,60,61025ae37ef11b136ea224fe,,,,,,,,,1444,35.69921875,-82.26171875,1,0,0,response3disk,,4,10.640625,-6.7734375,1,0,0,rectangle,10.640625,-6.7734375,1,0,0,10.640625,-6.7734375,1,0,0,0,89,89,17,1,,,,,,,,
,,,,,,,,,,,,,FF,,,,,,,,1.11631,,,,,,,,,,,,,,,,,,,,,,60fdcd21c7b9174239c6f73e,61036b7652747e33664b31ab,2021-07-29_22h02.54.952,Simcolourproject_2stim_asymm_v5,2020.2.10,MacIntel,60,61025ae37ef11b136ea224fe,,,,,,,,,783,34.984375,76.2890625,1,0,0,response1disk,,7,-16.7890625,-12.34765625,1,0,0,rectangle,-16.7890625,-12.34765625,1,0,0,-16.7890625,-12.34765625,1,0,0,0,90,90,148,1,,,,,,,,
,,,,,,,,,,,,,FF,,,,,,,,1.749975,,,,,,,,,,,,,,,,,,,,,,60fdcd21c7b9174239c6f73e,61036b7652747e33664b31ab,2021-07-29_22h02.54.952,Simcolourproject_2stim_asymm_v5,2020.2.10,MacIntel,60,61025ae37ef11b136ea224fe,,,,,,,,,3955,39.42578125,75.73046875,1,0,0,response1disk,,7,-3.66796875,4.44140625,1,0,0,rectangle,-3.66796875,4.44140625,1,0,0,-3.66796875,4.44140625,1,0,0,0,91,91,84,1,,,,,,,,
,,,,,,,,,,,,,FF,,,,,,,,1.53398,,,,,,,,,,,,,,,,,,,,,,60fdcd21c7b9174239c6f73e,61036b7652747e33664b31ab,2021-07-29_22h02.54.952,Simcolourproject_2stim_asymm_v5,2020.2.10,MacIntel,60,61025ae37ef11b136ea224fe,,,,,,,,,2958,49.98828125,70.09375,1,0,0,response1disk,,7,11.3984375,8.5703125,1,0,0,rectangle,11.3984375,8.5703125,1,0,0,11.3984375,8.5703125,1,0,0,0,92,92,56,1,,,,,,,,
,,,,,,,,,,,,,FF,,,,,,,,2.949965,,,,,,,,,,,,,,,,,,,,,,60fdcd21c7b9174239c6f73e,61036b7652747e33664b31ab,2021-07-29_22h02.54.952,Simcolourproject_2stim_asymm_v5,2020.2.10,MacIntel,60,61025ae37ef11b136ea224fe,,,,,,,,,4129,59.8046875,-44.84375,1,0,0,response3disk,,5,5.4296875,5.984375,1,0,0,rectangle,5.4296875,5.984375,1,0,0,5.4296875,5.984375,1,0,0,0,93,93,123,1,,,,,,,,
,,,,,,,,,,,,,FF,,,,,,,,0.815765,,,,,,,,,,,,,,,,,,,,,,60fdcd21c7b9174239c6f73e,61036b7652747e33664b31ab,2021-07-29_22h02.54.952,Simcolourproject_2stim_asymm_v5,2020.2.10,MacIntel,60,61025ae37ef11b136ea224fe,,,,,,,,,2977,25.61328125,38.09765625,1,0,0,response1disk,,7,14.953125,-1.734375,1,0,0,rectangle,14.953125,-1.734375,1,0,0,14.953125,-1.734375,1,0,0,0,94,94,54,1,,,,,,,,
,,,,,,,,,,,,,FF,,,,,,,,1.71682,,,,,,,,,,,,,,,,,,,,,,60fdcd21c7b9174239c6f73e,61036b7652747e33664b31ab,2021-07-29_22h02.54.952,Simcolourproject_2stim_asymm_v5,2020.2.10,MacIntel,60,61025ae37ef11b136ea224fe,,,,,,,,,2792,45.48828125,-91.05859375,1,0,0,response3disk,,4,13.83203125,1.43359375,1,0,0,rectangle,72.125,-45.4921875,1,0,0,20.73046875,-1.84765625,1,0,0,0,95,95,106,1,,response3disk_3,TRUE,5,5,"[175,150,293,83,96,309,319,226,146,65,198,237,31,273,223,163,148,315,292,57]",2.266795,rectangle
,,,,,,,,,,,,,FF,,,,,,,,1.232255,,,,,,,,,,,,,,,,,,,,,,60fdcd21c7b9174239c6f73e,61036b7652747e33664b31ab,2021-07-29_22h02.54.952,Simcolourproject_2stim_asymm_v5,2020.2.10,MacIntel,60,61025ae37ef11b136ea224fe,,,,,,,,,855,30.7265625,70.34375,1,0,0,response1disk,,7,-4.80859375,-2.6328125,1,0,0,rectangle,-4.80859375,-2.6328125,1,0,0,-4.80859375,-2.6328125,1,0,0,0,96,96,53,1,,,,,,,,
,,,,,,,,,,,,,FF,,,,,,,,0.668275,,,,,,,,,,,,,,,,,,,,,,60fdcd21c7b9174239c6f73e,61036b7652747e33664b31ab,2021-07-29_22h02.54.952,Simcolourproject_2stim_asymm_v5,2020.2.10,MacIntel,60,61025ae37ef11b136ea224fe,,,,,,,,,398,27.7890625,64.13671875,1,0,0,response1disk,,7,9.0078125,2.6796875,1,0,0,rectangle,9.0078125,2.6796875,1,0,0,9.0078125,2.6796875,1,0,0,0,97,97,120,1,,,,,,,,
,,,,,,,,,,,,,FF,,,,,,,,0.832325,,,,,,,,,,,,,,,,,,,,,,60fdcd21c7b9174239c6f73e,61036b7652747e33664b31ab,2021-07-29_22h02.54.952,Simcolourproject_2stim_asymm_v5,2020.2.10,MacIntel,60,61025ae37ef11b136ea224fe,,,,,,,,,685,35.20703125,65.84765625,1,0,0,response1disk,,7,0.14453125,9.0859375,1,0,0,rectangle,0.14453125,9.0859375,1,0,0,0.14453125,9.0859375,1,0,0,0,98,98,21,1,,,,,,,,
,,,,,,,,,,,,,FF,,,,,,,,3.84963,,,,,,,,,,,,,,,,,,,,,,60fdcd21c7b9174239c6f73e,61036b7652747e33664b31ab,2021-07-29_22h02.54.952,Simcolourproject_2stim_asymm_v5,2020.2.10,MacIntel,60,61025ae37ef11b136ea224fe,,,,,,,,,1917,63.89453125,29.60546875,1,0,0,response1disk,,6,0.77734375,1.02734375,1,0,0,rectangle,0.77734375,1.02734375,1,0,0,0.77734375,1.02734375,1,0,0,0,99,99,138,1,,,,,,,,
,,,,,,,,,,,,,FF,,,,,,,,1.21624,,,,,,,,,,,,,,,,,,,,,,60fdcd21c7b9174239c6f73e,61036b7652747e33664b31ab,2021-07-29_22h02.54.952,Simcolourproject_2stim_asymm_v5,2020.2.10,MacIntel,60,61025ae37ef11b136ea224fe,,,,,,,,,4280,-31.6953125,94.92578125,1,0,0,response7disk,,0,4.48046875,11.25,1,0,0,rectangle,4.48046875,11.25,1,0,0,4.48046875,11.25,1,0,0,0,100,100,147,1,,,,,,,,
,,,,,,,,,,,,,FF,,,,,,,,0.50033,,,,,,,,,,,,,,,,,,,,,,60fdcd21c7b9174239c6f73e,61036b7652747e33664b31ab,2021-07-29_22h02.54.952,Simcolourproject_2stim_asymm_v5,2020.2.10,MacIntel,60,61025ae37ef11b136ea224fe,,,,,,,,,3099,-54.98828125,32.1171875,1,0,0,response7disk,,1,-16.953125,-2.2890625,1,0,0,rectangle,-16.953125,-2.2890625,1,0,0,-16.953125,-2.2890625,1,0,0,0,101,101,5,1,,,,,,,,
,,,,,,,,,,,,,FF,,,,,,,,0.86615,,,,,,,,,,,,,,,,,,,,,,60fdcd21c7b9174239c6f73e,61036b7652747e33664b31ab,2021-07-29_22h02.54.952,Simcolourproject_2stim_asymm_v5,2020.2.10,MacIntel,60,61025ae37ef11b136ea224fe,,,,,,,,,638,-84.17578125,35.765625,1,0,0,response7disk,,1,4.046875,-1.125,1,0,0,rectangle,4.046875,-1.125,1,0,0,4.046875,-1.125,1,0,0,0,102,102,156,1,,,,,,,,
,,,,,,,,,,,,,FF,,,,,,,,1.817585,,,,,,,,,,,,,,,,,,,,,,60fdcd21c7b9174239c6f73e,61036b7652747e33664b31ab,2021-07-29_22h02.54.952,Simcolourproject_2stim_asymm_v5,2020.2.10,MacIntel,60,61025ae37ef11b136ea224fe,,,,,,,,,3464,31.6171875,-80.71875,1,0,0,response3disk,,4,5.9453125,1.22265625,1,0,0,rectangle,5.9453125,1.22265625,1,0,0,5.9453125,1.22265625,1,0,0,0,103,103,7,1,,,,,,,,
,,,,,,,,,,,,,FF,,,,,,,,0.78361,,,,,,,,,,,,,,,,,,,,,,60fdcd21c7b9174239c6f73e,61036b7652747e33664b31ab,2021-07-29_22h02.54.952,Simcolourproject_2stim_asymm_v5,2020.2.10,MacIntel,60,61025ae37ef11b136ea224fe,,,,,,,,,117,32.015625,83.69921875,1,0,0,response1disk,,7,-2.2890625,-0.69140625,1,0,0,rectangle,-2.2890625,-0.69140625,1,0,0,-2.2890625,-0.69140625,1,0,0,0,104,104,118,1,,,,,,,,
,,,,,,,,,,,,,FF,,,,,,,,1.51685,,,,,,,,,,,,,,,,,,,,,,60fdcd21c7b9174239c6f73e,61036b7652747e33664b31ab,2021-07-29_22h02.54.952,Simcolourproject_2stim_asymm_v5,2020.2.10,MacIntel,60,61025ae37ef11b136ea224fe,,,,,,,,,1541,39.875,-80.63671875,1,0,0,response3disk,,4,8.828125,2.52734375,1,0,0,rectangle,8.828125,2.52734375,1,0,0,8.828125,2.52734375,1,0,0,0,105,105,98,1,,,,,,,,
,,,,,,,,,,,,,FF,,,,,,,,1.083045,,,,,,,,,,,,,,,,,,,,,,60fdcd21c7b9174239c6f73e,61036b7652747e33664b31ab,2021-07-29_22h02.54.952,Simcolourproject_2stim_asymm_v5,2020.2.10,MacIntel,60,61025ae37ef11b136ea224fe,,,,,,,,,3339,-28.5625,-76.8671875,1,0,0,response5disk,,3,1.06640625,2.2578125,1,0,0,rectangle,1.06640625,2.2578125,1,0,0,1.06640625,2.2578125,1,0,0,0,106,106,41,1,,,,,,,,
,,,,,,,,,,,,,FF,,,,,,,,1.348945,,,,,,,,,,,,,,,,,,,,,,60fdcd21c7b9174239c6f73e,61036b7652747e33664b31ab,2021-07-29_22h02.54.952,Simcolourproject_2stim_asymm_v5,2020.2.10,MacIntel,60,61025ae37ef11b136ea224fe,,,,,,,,,4142,-75.6875,26.515625,1,0,0,response7disk,,1,1.5546875,2.64453125,1,0,0,rectangle,1.5546875,2.64453125,1,0,0,1.5546875,2.64453125,1,0,0,0,107,107,11,1,,,,,,,,
,,,,,,,,,,,,,FF,,,,,,,,0.74906,,,,,,,,,,,,,,,,,,,,,,60fdcd21c7b9174239c6f73e,61036b7652747e33664b31ab,2021-07-29_22h02.54.952,Simcolourproject_2stim_asymm_v5,2020.2.10,MacIntel,60,61025ae37ef11b136ea224fe,,,,,,,,,3663,41.90625,66.234375,1,0,0,response1disk,,7,9.24609375,4.68359375,1,0,0,rectangle,9.24609375,4.68359375,1,0,0,9.24609375,4.68359375,1,0,0,0,108,108,71,1,,,,,,,,
,,,,,,,,,,,,,FF,,,,,,,,2.01517,,,,,,,,,,,,,,,,,,,,,,60fdcd21c7b9174239c6f73e,61036b7652747e33664b31ab,2021-07-29_22h02.54.952,Simcolourproject_2stim_asymm_v5,2020.2.10,MacIntel,60,61025ae37ef11b136ea224fe,,,,,,,,,4240,57,-68.26171875,1,0,0,response3disk,,4,-5.71875,-6.76171875,1,0,0,rectangle,-5.71875,-6.76171875,1,0,0,-5.71875,-6.76171875,1,0,0,0,109,109,22,1,,,,,,,,
,,,,,,,,,,,,,FF,,,,,,,,1.9339,,,,,,,,,,,,,,,,,,,,,,60fdcd21c7b9174239c6f73e,61036b7652747e33664b31ab,2021-07-29_22h02.54.952,Simcolourproject_2stim_asymm_v5,2020.2.10,MacIntel,60,61025ae37ef11b136ea224fe,,,,,,,,,906,98.1796875,-44.3359375,1,0,0,response3disk,,5,14.31640625,-2.046875,1,0,0,rectangle,14.31640625,-2.046875,1,0,0,14.31640625,-2.046875,1,0,0,0,110,110,125,1,,,,,,,,
,,,,,,,,,,,,,FF,,,,,,,,2.332245,,,,,,,,,,,,,,,,,,,,,,60fdcd21c7b9174239c6f73e,61036b7652747e33664b31ab,2021-07-29_22h02.54.952,Simcolourproject_2stim_asymm_v5,2020.2.10,MacIntel,60,61025ae37ef11b136ea224fe,,,,,,,,,2424,34.8046875,-75.2734375,1,0,0,response3disk,,4,11.84765625,-2.21875,1,0,0,rectangle,11.84765625,-2.21875,1,0,0,11.84765625,-2.21875,1,0,0,0,111,111,124,1,,,,,,,,
,,,,,,,,,,,,,FF,,,,,,,,2.284055,,,,,,,,,,,,,,,,,,,,,,60fdcd21c7b9174239c6f73e,61036b7652747e33664b31ab,2021-07-29_22h02.54.952,Simcolourproject_2stim_asymm_v5,2020.2.10,MacIntel,60,61025ae37ef11b136ea224fe,,,,,,,,,4337,89.96875,26.60546875,1,0,0,response1disk,,6,4.5078125,-1.11328125,1,0,0,rectangle,4.5078125,-1.11328125,1,0,0,4.5078125,-1.11328125,1,0,0,0,112,112,37,1,,,,,,,,
,,,,,,,,,,,,,FF,,,,,,,,1.250375,,,,,,,,,,,,,,,,,,,,,,60fdcd21c7b9174239c6f73e,61036b7652747e33664b31ab,2021-07-29_22h02.54.952,Simcolourproject_2stim_asymm_v5,2020.2.10,MacIntel,60,61025ae37ef11b136ea224fe,,,,,,,,,2726,-48.62890625,-96.28125,1,0,0,response5disk,,3,-6.22265625,3.6796875,1,0,0,rectangle,-6.22265625,3.6796875,1,0,0,-6.22265625,3.6796875,1,0,0,0,113,113,110,1,,,,,,,,
,,,,,,,,,,,,,FF,,,,,,,,1.80105,,,,,,,,,,,,,,,,,,,,,,60fdcd21c7b9174239c6f73e,61036b7652747e33664b31ab,2021-07-29_22h02.54.952,Simcolourproject_2stim_asymm_v5,2020.2.10,MacIntel,60,61025ae37ef11b136ea224fe,,,,,,,,,3536,62.7890625,86.546875,1,0,0,response1disk,,7,6.46875,3.15234375,1,0,0,rectangle,6.46875,3.15234375,1,0,0,6.46875,3.15234375,1,0,0,0,114,114,112,1,,,,,,,,
,,,,,,,,,,,,,FF,,,,,,,,1.415655,,,,,,,,,,,,,,,,,,,,,,60fdcd21c7b9174239c6f73e,61036b7652747e33664b31ab,2021-07-29_22h02.54.952,Simcolourproject_2stim_asymm_v5,2020.2.10,MacIntel,60,61025ae37ef11b136ea224fe,,,,,,,,,352,32.46484375,-88.26171875,1,0,0,response3disk,,4,-7.734375,-0.64453125,1,0,0,rectangle,-7.734375,-0.64453125,1,0,0,-7.734375,-0.64453125,1,0,0,0,115,115,100,1,,,,,,,,
,,,,,,,,,,,,,FF,,,,,,,,1.101625,,,,,,,,,,,,,,,,,,,,,,60fdcd21c7b9174239c6f73e,61036b7652747e33664b31ab,2021-07-29_22h02.54.952,Simcolourproject_2stim_asymm_v5,2020.2.10,MacIntel,60,61025ae37ef11b136ea224fe,,,,,,,,,3635,-30.97265625,-68.1171875,1,0,0,response5disk,,3,-11.81640625,3.88671875,1,0,0,rectangle,-11.81640625,3.88671875,1,0,0,-11.81640625,3.88671875,1,0,0,0,116,116,18,1,,,,,,,,
,,,,,,,,,,,,,FF,,,,,,,,0.75099,,,,,,,,,,,,,,,,,,,,,,60fdcd21c7b9174239c6f73e,61036b7652747e33664b31ab,2021-07-29_22h02.54.952,Simcolourproject_2stim_asymm_v5,2020.2.10,MacIntel,60,61025ae37ef11b136ea224fe,,,,,,,,,699,30.51171875,74.1015625,1,0,0,response1disk,,7,7.27734375,-4.67578125,1,0,0,rectangle,7.27734375,-4.67578125,1,0,0,7.27734375,-4.67578125,1,0,0,0,117,117,153,1,,,,,,,,
,,,,,,,,,,,,,FF,,,,,,,,0.949795,,,,,,,,,,,,,,,,,,,,,,60fdcd21c7b9174239c6f73e,61036b7652747e33664b31ab,2021-07-29_22h02.54.952,Simcolourproject_2stim_asymm_v5,2020.2.10,MacIntel,60,61025ae37ef11b136ea224fe,,,,,,,,,2018,54.09375,33.81640625,1,0,0,response1disk,,6,-13.04296875,0.21875,1,0,0,rectangle,-13.04296875,0.21875,1,0,0,-13.04296875,0.21875,1,0,0,0,118,118,122,1,,,,,,,,
,,,,,,,,,,,,,FF,,,,,,,,1.31743,,,,,,,,,,,,,,,,,,,,,,60fdcd21c7b9174239c6f73e,61036b7652747e33664b31ab,2021-07-29_22h02.54.952,Simcolourproject_2stim_asymm_v5,2020.2.10,MacIntel,60,61025ae37ef11b136ea224fe,,,,,,,,,1454,-79.41796875,47.9375,1,0,0,response7disk,,1,-3.09765625,-3.015625,1,0,0,rectangle,-3.09765625,-3.015625,1,0,0,-3.09765625,-3.015625,1,0,0,0,119,119,2,1,,,,,,,,
,,,,,,,,,,,,,FF,,,,,,,,0.949995,,,,,,,,,,,,,,,,,,,,,,60fdcd21c7b9174239c6f73e,61036b7652747e33664b31ab,2021-07-29_22h02.54.952,Simcolourproject_2stim_asymm_v5,2020.2.10,MacIntel,60,61025ae37ef11b136ea224fe,,,,,,,,,279,-56.65234375,-36.859375,1,0,0,response5disk,,2,-1.04296875,4.55859375,1,0,0,rectangle,-1.04296875,4.55859375,1,0,0,-1.04296875,4.55859375,1,0,0,0,120,120,12,1,,,,,,,,
,,,,,,,,,,,,,FF,,,,,,,,0.735055,,,,,,,,,,,,,,,,,,,,,,60fdcd21c7b9174239c6f73e,61036b7652747e33664b31ab,2021-07-29_22h02.54.952,Simcolourproject_2stim_asymm_v5,2020.2.10,MacIntel,60,61025ae37ef11b136ea224fe,,,,,,,,,760,39.1171875,70.54296875,1,0,0,response1disk,,7,5.9375,-7.44921875,1,0,0,rectangle,5.9375,-7.44921875,1,0,0,5.9375,-7.44921875,1,0,0,0,121,121,92,1,,,,,,,,
,,,,,,,,,,,,,FF,,,,,,,,1.098715,,,,,,,,,,,,,,,,,,,,,,60fdcd21c7b9174239c6f73e,61036b7652747e33664b31ab,2021-07-29_22h02.54.952,Simcolourproject_2stim_asymm_v5,2020.2.10,MacIntel,60,61025ae37ef11b136ea224fe,,,,,,,,,4102,-83.328125,-34.71875,1,0,0,response5disk,,2,-20.74609375,4.1484375,1,0,0,rectangle,-20.74609375,4.1484375,1,0,0,-20.74609375,4.1484375,1,0,0,0,122,122,134,1,,,,,,,,
,,,,,,,,,,,,,FF,,,,,,,,1.233115,,,,,,,,,,,,,,,,,,,,,,60fdcd21c7b9174239c6f73e,61036b7652747e33664b31ab,2021-07-29_22h02.54.952,Simcolourproject_2stim_asymm_v5,2020.2.10,MacIntel,60,61025ae37ef11b136ea224fe,,,,,,,,,1451,-67.47265625,-37.765625,1,0,0,response5disk,,2,-8.703125,1.5078125,1,0,0,rectangle,-8.703125,1.5078125,1,0,0,-8.703125,1.5078125,1,0,0,0,123,123,128,1,,,,,,,,
,,,,,,,,,,,,,FF,,,,,,,,0.74841,,,,,,,,,,,,,,,,,,,,,,60fdcd21c7b9174239c6f73e,61036b7652747e33664b31ab,2021-07-29_22h02.54.952,Simcolourproject_2stim_asymm_v5,2020.2.10,MacIntel,60,61025ae37ef11b136ea224fe,,,,,,,,,3088,-36.23046875,-67.1640625,1,0,0,response5disk,,3,-11.53125,3.05859375,1,0,0,rectangle,-11.53125,3.05859375,1,0,0,-11.53125,3.05859375,1,0,0,0,124,124,58,1,,,,,,,,
,,,,,,,,,,,,,FF,,,,,,,,0.967515,,,,,,,,,,,,,,,,,,,,,,60fdcd21c7b9174239c6f73e,61036b7652747e33664b31ab,2021-07-29_22h02.54.952,Simcolourproject_2stim_asymm_v5,2020.2.10,MacIntel,60,61025ae37ef11b136ea224fe,,,,,,,,,3193,66.20703125,-34.47265625,1,0,0,response3disk,,5,12.5859375,5.1328125,1,0,0,rectangle,12.5859375,5.1328125,1,0,0,12.5859375,5.1328125,1,0,0,0,125,125,152,1,,,,,,,,
,,,,,,,,,,,,,FF,,,,,,,,1.032705,,,,,,,,,,,,,,,,,,,,,,60fdcd21c7b9174239c6f73e,61036b7652747e33664b31ab,2021-07-29_22h02.54.952,Simcolourproject_2stim_asymm_v5,2020.2.10,MacIntel,60,61025ae37ef11b136ea224fe,,,,,,,,,1215,-51.7109375,-28.2734375,1,0,0,response5disk,,2,11.7890625,4.625,1,0,0,rectangle,11.7890625,4.625,1,0,0,11.7890625,4.625,1,0,0,0,126,126,131,1,,,,,,,,
,,,,,,,,,,,,,FF,,,,,,,,0.916475,,,,,,,,,,,,,,,,,,,,,,60fdcd21c7b9174239c6f73e,61036b7652747e33664b31ab,2021-07-29_22h02.54.952,Simcolourproject_2stim_asymm_v5,2020.2.10,MacIntel,60,61025ae37ef11b136ea224fe,,,,,,,,,841,46.63671875,84.44921875,1,0,0,response1disk,,7,-5.30078125,12.0703125,1,0,0,rectangle,-5.30078125,12.0703125,1,0,0,-5.30078125,12.0703125,1,0,0,0,127,127,47,1,,,,,,,,
,,,,,,,,,,,,,FF,,,,,,,,2.2661,,,,,,,,,,,,,,,,,,,,,,60fdcd21c7b9174239c6f73e,61036b7652747e33664b31ab,2021-07-29_22h02.54.952,Simcolourproject_2stim_asymm_v5,2020.2.10,MacIntel,60,61025ae37ef11b136ea224fe,,,,,,,,,1150,56.2109375,43.53515625,1,0,0,response1disk,,6,-16.21875,-3.875,1,0,0,rectangle,-16.21875,-3.875,1,0,0,-16.21875,-3.875,1,0,0,0,128,128,30,1,,,,,,,,
,,,,,,,,,,,,,FF,,,,,,,,0.567275,,,,,,,,,,,,,,,,,,,,,,60fdcd21c7b9174239c6f73e,61036b7652747e33664b31ab,2021-07-29_22h02.54.952,Simcolourproject_2stim_asymm_v5,2020.2.10,MacIntel,60,61025ae37ef11b136ea224fe,,,,,,,,,3614,40.73828125,55.10546875,1,0,0,response1disk,,7,15.38671875,-3.95703125,1,0,0,rectangle,15.38671875,-3.95703125,1,0,0,15.38671875,-3.95703125,1,0,0,0,129,129,62,1,,,,,,,,
,,,,,,,,,,,,,FF,,,,,,,,1.200155,,,,,,,,,,,,,,,,,,,,,,60fdcd21c7b9174239c6f73e,61036b7652747e33664b31ab,2021-07-29_22h02.54.952,Simcolourproject_2stim_asymm_v5,2020.2.10,MacIntel,60,61025ae37ef11b136ea224fe,,,,,,,,,366,-25.0703125,87.73828125,1,0,0,response7disk,,0,-11.890625,-7.4609375,1,0,0,rectangle,-11.890625,-7.4609375,1,0,0,-11.890625,-7.4609375,1,0,0,0,130,130,116,1,,,,,,,,
,,,,,,,,,,,,,FF,,,,,,,,1.69951,,,,,,,,,,,,,,,,,,,,,,60fdcd21c7b9174239c6f73e,61036b7652747e33664b31ab,2021-07-29_22h02.54.952,Simcolourproject_2stim_asymm_v5,2020.2.10,MacIntel,60,61025ae37ef11b136ea224fe,,,,,,,,,411,23.37890625,75.1171875,1,0,0,response1disk,,7,-18.96875,1.3828125,1,0,0,rectangle,-18.96875,1.3828125,1,0,0,-18.96875,1.3828125,1,0,0,0,131,131,141,1,,,,,,,,
,,,,,,,,,,,,,FF,,,,,,,,1.33211,,,,,,,,,,,,,,,,,,,,,,60fdcd21c7b9174239c6f73e,61036b7652747e33664b31ab,2021-07-29_22h02.54.952,Simcolourproject_2stim_asymm_v5,2020.2.10,MacIntel,60,61025ae37ef11b136ea224fe,,,,,,,,,4006,35.1328125,-85.60546875,1,0,0,response3disk,,4,9.09375,4.44921875,1,0,0,rectangle,9.09375,4.44921875,1,0,0,9.09375,4.44921875,1,0,0,0,132,132,28,1,,,,,,,,
,,,,,,,,,,,,,FF,,,,,,,,1.099995,,,,,,,,,,,,,,,,,,,,,,60fdcd21c7b9174239c6f73e,61036b7652747e33664b31ab,2021-07-29_22h02.54.952,Simcolourproject_2stim_asymm_v5,2020.2.10,MacIntel,60,61025ae37ef11b136ea224fe,,,,,,,,,3551,-36.421875,71.5234375,1,0,0,response7disk,,0,-9.515625,-5.51171875,1,0,0,rectangle,-9.515625,-5.51171875,1,0,0,-9.515625,-5.51171875,1,0,0,0,133,133,115,1,,,,,,,,
,,,,,,,,,,,,,FF,,,,,,,,1.516895,,,,,,,,,,,,,,,,,,,,,,60fdcd21c7b9174239c6f73e,61036b7652747e33664b31ab,2021-07-29_22h02.54.952,Simcolourproject_2stim_asymm_v5,2020.2.10,MacIntel,60,61025ae37ef11b136ea224fe,,,,,,,,,1408,53.32421875,69.08984375,1,0,0,response1disk,,7,11.74609375,4.0078125,1,0,0,rectangle,11.74609375,4.0078125,1,0,0,11.74609375,4.0078125,1,0,0,0,134,134,50,1,,,,,,,,
,,,,,,,,,,,,,FF,,,,,,,,0.966765,,,,,,,,,,,,,,,,,,,,,,60fdcd21c7b9174239c6f73e,61036b7652747e33664b31ab,2021-07-29_22h02.54.952,Simcolourproject_2stim_asymm_v5,2020.2.10,MacIntel,60,61025ae37ef11b136ea224fe,,,,,,,,,898,61.15234375,-35.296875,1,0,0,response3disk,,5,25.4453125,-4.9296875,1,0,0,rectangle,25.4453125,-4.9296875,1,0,0,25.4453125,-4.9296875,1,0,0,0,135,135,77,1,,,,,,,,
,,,,,,,,,,,,,FF,,,,,,,,0.9,,,,,,,,,,,,,,,,,,,,,,60fdcd21c7b9174239c6f73e,61036b7652747e33664b31ab,2021-07-29_22h02.54.952,Simcolourproject_2stim_asymm_v5,2020.2.10,MacIntel,60,61025ae37ef11b136ea224fe,,,,,,,,,4144,34.48046875,-79.7265625,1,0,0,response3disk,,4,17.0625,0.203125,1,0,0,rectangle,17.0625,0.203125,1,0,0,17.0625,0.203125,1,0,0,0,136,136,27,1,,,,,,,,
,,,,,,,,,,,,,FF,,,,,,,,0.78359,,,,,,,,,,,,,,,,,,,,,,60fdcd21c7b9174239c6f73e,61036b7652747e33664b31ab,2021-07-29_22h02.54.952,Simcolourproject_2stim_asymm_v5,2020.2.10,MacIntel,60,61025ae37ef11b136ea224fe,,,,,,,,,2636,30.625,64.87109375,1,0,0,response1disk,,7,16.38671875,6.0390625,1,0,0,rectangle,16.38671875,6.0390625,1,0,0,16.38671875,6.0390625,1,0,0,0,137,137,90,1,,,,,,,,
,,,,,,,,,,,,,FF,,,,,,,,0.783175,,,,,,,,,,,,,,,,,,,,,,60fdcd21c7b9174239c6f73e,61036b7652747e33664b31ab,2021-07-29_22h02.54.952,Simcolourproject_2stim_asymm_v5,2020.2.10,MacIntel,60,61025ae37ef11b136ea224fe,,,,,,,,,356,-20.484375,-77.1796875,1,0,0,response5disk,,3,-3.55078125,0.953125,1,0,0,rectangle,-3.55078125,0.953125,1,0,0,-3.55078125,0.953125,1,0,0,0,138,138,0,1,,,,,,,,
,,,,,,,,,,,,,FF,,,,,,,,0.582715,,,,,,,,,,,,,,,,,,,,,,60fdcd21c7b9174239c6f73e,61036b7652747e33664b31ab,2021-07-29_22h02.54.952,Simcolourproject_2stim_asymm_v5,2020.2.10,MacIntel,60,61025ae37ef11b136ea224fe,,,,,,,,,526,-43.59765625,-83.2265625,1,0,0,response5disk,,3,-15.8359375,1.37109375,1,0,0,rectangle,-15.8359375,1.37109375,1,0,0,-15.8359375,1.37109375,1,0,0,0,139,139,48,1,,,,,,,,
,,,,,,,,,,,,,FF,,,,,,,,0.816725,,,,,,,,,,,,,,,,,,,,,,60fdcd21c7b9174239c6f73e,61036b7652747e33664b31ab,2021-07-29_22h02.54.952,Simcolourproject_2stim_asymm_v5,2020.2.10,MacIntel,60,61025ae37ef11b136ea224fe,,,,,,,,,984,-31.02734375,-77.63671875,1,0,0,response5disk,,3,-8.1328125,-0.6953125,1,0,0,rectangle,-8.1328125,-0.6953125,1,0,0,-8.1328125,-0.6953125,1,0,0,0,140,140,40,1,,,,,,,,
,,,,,,,,,,,,,FF,,,,,,,,0.599185,,,,,,,,,,,,,,,,,,,,,,60fdcd21c7b9174239c6f73e,61036b7652747e33664b31ab,2021-07-29_22h02.54.952,Simcolourproject_2stim_asymm_v5,2020.2.10,MacIntel,60,61025ae37ef11b136ea224fe,,,,,,,,,426,35.2265625,62.12890625,1,0,0,response1disk,,7,17.65625,2.05078125,1,0,0,rectangle,17.65625,2.05078125,1,0,0,17.65625,2.05078125,1,0,0,0,141,141,87,1,,,,,,,,
,,,,,,,,,,,,,FF,,,,,,,,1.43357,,,,,,,,,,,,,,,,,,,,,,60fdcd21c7b9174239c6f73e,61036b7652747e33664b31ab,2021-07-29_22h02.54.952,Simcolourproject_2stim_asymm_v5,2020.2.10,MacIntel,60,61025ae37ef11b136ea224fe,,,,,,,,,9,-37.6953125,-69.1953125,1,0,0,response5disk,,3,10.4765625,3.92578125,1,0,0,rectangle,10.4765625,3.92578125,1,0,0,10.4765625,3.92578125,1,0,0,0,142,142,140,1,,,,,,,,
,,,,,,,,,,,,,FF,,,,,,,,1.23542,,,,,,,,,,,,,,,,,,,,,,60fdcd21c7b9174239c6f73e,61036b7652747e33664b31ab,2021-07-29_22h02.54.952,Simcolourproject_2stim_asymm_v5,2020.2.10,MacIntel,60,61025ae37ef11b136ea224fe,,,,,,,,,2594,68.4765625,46.8984375,1,0,0,response1disk,,6,13.31640625,5.14453125,1,0,0,rectangle,13.31640625,5.14453125,1,0,0,13.31640625,5.14453125,1,0,0,0,143,143,16,1,,,,,,,,
,,,,,,,,,,,,,FF,,,,,,,,0.73296,,,,,,,,,,,,,,,,,,,,,,60fdcd21c7b9174239c6f73e,61036b7652747e33664b31ab,2021-07-29_22h02.54.952,Simcolourproject_2stim_asymm_v5,2020.2.10,MacIntel,60,61025ae37ef11b136ea224fe,,,,,,,,,489,40.328125,61.5703125,1,0,0,response1disk,,7,8.8828125,1.8046875,1,0,0,rectangle,8.8828125,1.8046875,1,0,0,8.8828125,1.8046875,1,0,0,0,144,144,133,1,,,,,,,,
,,,,,,,,,,,,,FF,,,,,,,,0.667945,,,,,,,,,,,,,,,,,,,,,,60fdcd21c7b9174239c6f73e,61036b7652747e33664b31ab,2021-07-29_22h02.54.952,Simcolourproject_2stim_asymm_v5,2020.2.10,MacIntel,60,61025ae37ef11b136ea224fe,,,,,,,,,2272,35.45703125,56.21484375,1,0,0,response1disk,,7,17.9453125,10.71875,1,0,0,rectangle,76.51953125,-37.66015625,1,0,0,11.64453125,-0.10546875,1,0,0,0,145,145,113,1,,response3disk_3,TRUE,5,5,"[175,150,293,83,96,309,319,226,146,65,198,237,31,273,223,163,148,315,292,57]",2.115605,rectangle
,,,,,,,,,,,,,FF,,,,,,,,1.483345,,,,,,,,,,,,,,,,,,,,,,60fdcd21c7b9174239c6f73e,61036b7652747e33664b31ab,2021-07-29_22h02.54.952,Simcolourproject_2stim_asymm_v5,2020.2.10,MacIntel,60,61025ae37ef11b136ea224fe,,,,,,,,,2947,33.66796875,-66.015625,1,0,0,response3disk,,4,19.21875,-10.70703125,1,0,0,rectangle,19.21875,-10.70703125,1,0,0,19.21875,-10.70703125,1,0,0,0,146,146,96,1,,,,,,,,
,,,,,,,,,,,,,FF,,,,,,,,0.98369,,,,,,,,,,,,,,,,,,,,,,60fdcd21c7b9174239c6f73e,61036b7652747e33664b31ab,2021-07-29_22h02.54.952,Simcolourproject_2stim_asymm_v5,2020.2.10,MacIntel,60,61025ae37ef11b136ea224fe,,,,,,,,,4141,-44.7578125,-94.9765625,1,0,0,response5disk,,3,-13.26953125,0.8984375,1,0,0,rectangle,77.31640625,-39.3046875,1,0,0,4.5078125,-5.62890625,1,0,0,0,147,147,103,1,,response3disk_3,TRUE,5,5,"[175,150,293,83,96,309,319,226,146,65,198,237,31,273,223,163,148,315,292,57]",2.649105,rectangle
,,,,,,,,,,,,,FF,,,,,,,,0.79923,,,,,,,,,,,,,,,,,,,,,,60fdcd21c7b9174239c6f73e,61036b7652747e33664b31ab,2021-07-29_22h02.54.952,Simcolourproject_2stim_asymm_v5,2020.2.10,MacIntel,60,61025ae37ef11b136ea224fe,,,,,,,,,286,-23.93359375,-72.02734375,1,0,0,response5disk,,3,-9.18359375,0.2890625,1,0,0,rectangle,-9.18359375,0.2890625,1,0,0,-9.18359375,0.2890625,1,0,0,0,148,148,26,1,,,,,,,,
,,,,,,,,,,,,,FF,,,,,,,,1.667075,,,,,,,,,,,,,,,,,,,,,,60fdcd21c7b9174239c6f73e,61036b7652747e33664b31ab,2021-07-29_22h02.54.952,Simcolourproject_2stim_asymm_v5,2020.2.10,MacIntel,60,61025ae37ef11b136ea224fe,,,,,,,,,273,85.07421875,-48.53515625,1,0,0,response3disk,,5,21.0546875,-9.6640625,1,0,0,rectangle,66.45703125,-35.31640625,1,0,0,20.33984375,-3.44140625,1,0,0,0,149,149,51,1,,response3disk_3,TRUE,5,5,"[175,150,293,83,96,309,319,226,146,65,198,237,31,273,223,163,148,315,292,57]",1.6152,rectangle
,,,,,,,,,,,,,FF,,,,,,,,0.733035,,,,,,,,,,,,,,,,,,,,,,60fdcd21c7b9174239c6f73e,61036b7652747e33664b31ab,2021-07-29_22h02.54.952,Simcolourproject_2stim_asymm_v5,2020.2.10,MacIntel,60,61025ae37ef11b136ea224fe,,,,,,,,,1721,42.8359375,93.703125,1,0,0,response1disk,,7,-15.5390625,-2.2578125,1,0,0,rectangle,-15.5390625,-2.2578125,1,0,0,-15.5390625,-2.2578125,1,0,0,0,150,150,109,1,,,,,,,,
,,,,,,,,,,,,,FF,,,,,,,,1.133485,,,,,,,,,,,,,,,,,,,,,,60fdcd21c7b9174239c6f73e,61036b7652747e33664b31ab,2021-07-29_22h02.54.952,Simcolourproject_2stim_asymm_v5,2020.2.10,MacIntel,60,61025ae37ef11b136ea224fe,,,,,,,,,1468,32.578125,77.2421875,1,0,0,response1disk,,7,-4.01953125,0.1796875,1,0,0,rectangle,-4.01953125,0.1796875,1,0,0,-4.01953125,0.1796875,1,0,0,0,151,151,102,1,,,,,,,,
,,,,,,,,,,,,,FF,,,,,,,,0.634335,,,,,,,,,,,,,,,,,,,,,,60fdcd21c7b9174239c6f73e,61036b7652747e33664b31ab,2021-07-29_22h02.54.952,Simcolourproject_2stim_asymm_v5,2020.2.10,MacIntel,60,61025ae37ef11b136ea224fe,,,,,,,,,779,32.15234375,68.375,1,0,0,response1disk,,7,-4.87109375,-5.05859375,1,0,0,rectangle,-4.87109375,-5.05859375,1,0,0,-4.87109375,-5.05859375,1,0,0,0,152,152,121,1,,,,,,,,
,,,,,,,,,,,,,FF,,,,,,,,0.548545,,,,,,,,,,,,,,,,,,,,,,60fdcd21c7b9174239c6f73e,61036b7652747e33664b31ab,2021-07-29_22h02.54.952,Simcolourproject_2stim_asymm_v5,2020.2.10,MacIntel,60,61025ae37ef11b136ea224fe,,,,,,,,,1624,32.30859375,85.44921875,1,0,0,response1disk,,7,0.984375,4.62109375,1,0,0,rectangle,0.984375,4.62109375,1,0,0,0.984375,4.62109375,1,0,0,0,153,153,31,1,,,,,,,,
,,,,,,,,,,,,,FF,,,,,,,,0.717505,,,,,,,,,,,,,,,,,,,,,,60fdcd21c7b9174239c6f73e,61036b7652747e33664b31ab,2021-07-29_22h02.54.952,Simcolourproject_2stim_asymm_v5,2020.2.10,MacIntel,60,61025ae37ef11b136ea224fe,,,,,,,,,996,33.37890625,63.51953125,1,0,0,response1disk,,7,7.609375,-2.8203125,1,0,0,rectangle,7.609375,-2.8203125,1,0,0,7.609375,-2.8203125,1,0,0,0,154,154,143,1,,,,,,,,
,,,,,,,,,,,,,FF,,,,,,,,1.13197,,,,,,,,,,,,,,,,,,,,,,60fdcd21c7b9174239c6f73e,61036b7652747e33664b31ab,2021-07-29_22h02.54.952,Simcolourproject_2stim_asymm_v5,2020.2.10,MacIntel,60,61025ae37ef11b136ea224fe,,,,,,,,,890,30.17578125,-69.671875,1,0,0,response3disk,,4,11.6640625,-3.1953125,1,0,0,rectangle,11.6640625,-3.1953125,1,0,0,11.6640625,-3.1953125,1,0,0,0,155,155,135,1,,,,,,,,
,,,,,,,,,,,,,FF,,,,,,,,1.19881,,,,,,,,,,,,,,,,,,,,,,60fdcd21c7b9174239c6f73e,61036b7652747e33664b31ab,2021-07-29_22h02.54.952,Simcolourproject_2stim_asymm_v5,2020.2.10,MacIntel,60,61025ae37ef11b136ea224fe,,,,,,,,,1691,52.52734375,-44.06640625,1,0,0,response3disk,,5,10.1796875,-1.359375,1,0,0,rectangle,10.1796875,-1.359375,1,0,0,10.1796875,-1.359375,1,0,0,0,156,156,19,1,,,,,,,,
,,,,,,,,,,,,,FF,,,,,,,,0.832065,,,,,,,,,,,,,,,,,,,,,,60fdcd21c7b9174239c6f73e,61036b7652747e33664b31ab,2021-07-29_22h02.54.952,Simcolourproject_2stim_asymm_v5,2020.2.10,MacIntel,60,61025ae37ef11b136ea224fe,,,,,,,,,1695,39.26953125,53.58203125,1,0,0,response1disk,,7,22.4375,8.77734375,1,0,0,rectangle,22.4375,8.77734375,1,0,0,22.4375,8.77734375,1,0,0,0,157,157,49,1,,,,,,,,
,,,,,,,,,,,,,FF,,,,,,,,0.733105,,,,,,,,,,,,,,,,,,,,,,60fdcd21c7b9174239c6f73e,61036b7652747e33664b31ab,2021-07-29_22h02.54.952,Simcolourproject_2stim_asymm_v5,2020.2.10,MacIntel,60,61025ae37ef11b136ea224fe,,,,,,,,,2964,39.5546875,57.04296875,1,0,0,response1disk,,7,1.64453125,0.9375,1,0,0,rectangle,1.64453125,0.9375,1,0,0,1.64453125,0.9375,1,0,0,0,158,158,142,1,,,,,,,,
,,,,,,,,,,,,,FF,,,,,,,,0.64942,,,,,,,,,,,,,,,,,,,,,,60fdcd21c7b9174239c6f73e,61036b7652747e33664b31ab,2021-07-29_22h02.54.952,Simcolourproject_2stim_asymm_v5,2020.2.10,MacIntel,60,61025ae37ef11b136ea224fe,,,,,,,,,281,-18.12109375,-83.23828125,1,0,0,response5disk,,3,-1.640625,-1.85546875,1,0,0,rectangle,-1.640625,-1.85546875,1,0,0,-1.640625,-1.85546875,1,0,0,0,159,159,10,1,,,,,,,,
,,,,,,,,,,,,,FF,,,,,,,,0.98463,,,,,,,,,,,,,,,,,,,,,,60fdcd21c7b9174239c6f73e,61036b7652747e33664b31ab,2021-07-29_22h02.54.952,Simcolourproject_2stim_asymm_v5,2020.2.10,MacIntel,60,61025ae37ef11b136ea224fe,,,,,,,,,2351,43.421875,86.796875,1,0,0,response1disk,,7,15.75,2.5234375,1,0,0,rectangle,15.75,2.5234375,1,0,0,15.75,2.5234375,1,0,0,1,0,160,150,1,,,,,,,,
,,,,,,,,,,,,,FF,,,,,,,,0.75066,,,,,,,,,,,,,,,,,,,,,,60fdcd21c7b9174239c6f73e,61036b7652747e33664b31ab,2021-07-29_22h02.54.952,Simcolourproject_2stim_asymm_v5,2020.2.10,MacIntel,60,61025ae37ef11b136ea224fe,,,,,,,,,4137,38.82421875,68.5859375,1,0,0,response1disk,,7,-1.99609375,7.3359375,1,0,0,rectangle,-1.99609375,7.3359375,1,0,0,-1.99609375,7.3359375,1,0,0,1,1,161,74,1,,,,,,,,
,,,,,,,,,,,,,FF,,,,,,,,0.58258,,,,,,,,,,,,,,,,,,,,,,60fdcd21c7b9174239c6f73e,61036b7652747e33664b31ab,2021-07-29_22h02.54.952,Simcolourproject_2stim_asymm_v5,2020.2.10,MacIntel,60,61025ae37ef11b136ea224fe,,,,,,,,,4131,38.51953125,72.23828125,1,0,0,response1disk,,7,-3.375,3.01953125,1,0,0,rectangle,39.96875,-71.2734375,1,0,0,22.02734375,-1.1484375,1,0,0,1,2,162,36,1,,response3disk_3,TRUE,4,4,"[175,150,293,83,96,309,319,226,146,65,198,237,31,273,223,163,148,315,292,57]",1.514905,rectangle
,,,,,,,,,,,,,FF,,,,,,,,1.816405,,,,,,,,,,,,,,,,,,,,,,60fdcd21c7b9174239c6f73e,61036b7652747e33664b31ab,2021-07-29_22h02.54.952,Simcolourproject_2stim_asymm_v5,2020.2.10,MacIntel,60,61025ae37ef11b136ea224fe,,,,,,,,,303,39.72265625,69.65234375,1,0,0,response1disk,,7,5.0390625,-10.79296875,1,0,0,rectangle,5.0390625,-10.79296875,1,0,0,5.0390625,-10.79296875,1,0,0,1,3,163,20,1,,,,,,,,
,,,,,,,,,,,,,FF,,,,,,,,0.64942,,,,,,,,,,,,,,,,,,,,,,60fdcd21c7b9174239c6f73e,61036b7652747e33664b31ab,2021-07-29_22h02.54.952,Simcolourproject_2stim_asymm_v5,2020.2.10,MacIntel,60,61025ae37ef11b136ea224fe,,,,,,,,,2328,25.6484375,62.609375,1,0,0,response1disk,,7,4.56640625,1.87890625,1,0,0,rectangle,4.56640625,1.87890625,1,0,0,4.56640625,1.87890625,1,0,0,1,4,164,68,1,,,,,,,,
,,,,,,,,,,,,,FF,,,,,,,,0.917315,,,,,,,,,,,,,,,,,,,,,,60fdcd21c7b9174239c6f73e,61036b7652747e33664b31ab,2021-07-29_22h02.54.952,Simcolourproject_2stim_asymm_v5,2020.2.10,MacIntel,60,61025ae37ef11b136ea224fe,,,,,,,,,2027,38.2578125,-79.2578125,1,0,0,response3disk,,4,4.4375,-4.53125,1,0,0,rectangle,4.4375,-4.53125,1,0,0,4.4375,-4.53125,1,0,0,1,5,165,138,1,,,,,,,,
,,,,,,,,,,,,,FF,,,,,,,,0.865335,,,,,,,,,,,,,,,,,,,,,,60fdcd21c7b9174239c6f73e,61036b7652747e33664b31ab,2021-07-29_22h02.54.952,Simcolourproject_2stim_asymm_v5,2020.2.10,MacIntel,60,61025ae37ef11b136ea224fe,,,,,,,,,2883,51.99609375,-25.26171875,1,0,0,response3disk,,5,3.94140625,-9.828125,1,0,0,rectangle,3.94140625,-9.828125,1,0,0,3.94140625,-9.828125,1,0,0,1,6,166,99,1,,,,,,,,
,,,,,,,,,,,,,FF,,,,,,,,1.700245,,,,,,,,,,,,,,,,,,,,,,60fdcd21c7b9174239c6f73e,61036b7652747e33664b31ab,2021-07-29_22h02.54.952,Simcolourproject_2stim_asymm_v5,2020.2.10,MacIntel,60,61025ae37ef11b136ea224fe,,,,,,,,,3952,66.42578125,19.58984375,1,0,0,response1disk,,6,0.15625,-0.6328125,1,0,0,rectangle,0.15625,-0.6328125,1,0,0,0.15625,-0.6328125,1,0,0,1,7,167,35,1,,,,,,,,
,,,,,,,,,,,,,FF,,,,,,,,0.851175,,,,,,,,,,,,,,,,,,,,,,60fdcd21c7b9174239c6f73e,61036b7652747e33664b31ab,2021-07-29_22h02.54.952,Simcolourproject_2stim_asymm_v5,2020.2.10,MacIntel,60,61025ae37ef11b136ea224fe,,,,,,,,,740,-30.0234375,-66.68359375,1,0,0,response5disk,,3,-18.98828125,3.6953125,1,0,0,rectangle,-18.98828125,3.6953125,1,0,0,-18.98828125,3.6953125,1,0,0,1,8,168,8,1,,,,,,,,
,,,,,,,,,,,,,FF,,,,,,,,0.66626,,,,,,,,,,,,,,,,,,,,,,60fdcd21c7b9174239c6f73e,61036b7652747e33664b31ab,2021-07-29_22h02.54.952,Simcolourproject_2stim_asymm_v5,2020.2.10,MacIntel,60,61025ae37ef11b136ea224fe,,,,,,,,,108,-40.5,-74.49609375,1,0,0,response5disk,,3,-18.34375,9.81640625,1,0,0,rectangle,-18.34375,9.81640625,1,0,0,-18.34375,9.81640625,1,0,0,1,9,169,145,1,,,,,,,,
,,,,,,,,,,,,,FF,,,,,,,,0.966795,,,,,,,,,,,,,,,,,,,,,,60fdcd21c7b9174239c6f73e,61036b7652747e33664b31ab,2021-07-29_22h02.54.952,Simcolourproject_2stim_asymm_v5,2020.2.10,MacIntel,60,61025ae37ef11b136ea224fe,,,,,,,,,4186,-79.1015625,-40.34375,1,0,0,response5disk,,2,3.5,0.203125,1,0,0,rectangle,3.5,0.203125,1,0,0,3.5,0.203125,1,0,0,1,10,170,57,1,,,,,,,,
,,,,,,,,,,,,,FF,,,,,,,,1.0003,,,,,,,,,,,,,,,,,,,,,,60fdcd21c7b9174239c6f73e,61036b7652747e33664b31ab,2021-07-29_22h02.54.952,Simcolourproject_2stim_asymm_v5,2020.2.10,MacIntel,60,61025ae37ef11b136ea224fe,,,,,,,,,3468,-27.078125,73.984375,1,0,0,response7disk,,0,14.74609375,-4.1328125,1,0,0,rectangle,14.74609375,-4.1328125,1,0,0,14.74609375,-4.1328125,1,0,0,1,11,171,119,1,,,,,,,,
,,,,,,,,,,,,,FF,,,,,,,,1.298505,,,,,,,,,,,,,,,,,,,,,,60fdcd21c7b9174239c6f73e,61036b7652747e33664b31ab,2021-07-29_22h02.54.952,Simcolourproject_2stim_asymm_v5,2020.2.10,MacIntel,60,61025ae37ef11b136ea224fe,,,,,,,,,995,52.9453125,80.69921875,1,0,0,response1disk,,7,12.8984375,-3.203125,1,0,0,rectangle,12.8984375,-3.203125,1,0,0,12.8984375,-3.203125,1,0,0,1,12,172,39,1,,,,,,,,
,,,,,,,,,,,,,FF,,,,,,,,0.632805,,,,,,,,,,,,,,,,,,,,,,60fdcd21c7b9174239c6f73e,61036b7652747e33664b31ab,2021-07-29_22h02.54.952,Simcolourproject_2stim_asymm_v5,2020.2.10,MacIntel,60,61025ae37ef11b136ea224fe,,,,,,,,,3638,44.76171875,62.12890625,1,0,0,response1disk,,7,19.36328125,0.4375,1,0,0,rectangle,19.36328125,0.4375,1,0,0,19.36328125,0.4375,1,0,0,1,13,173,120,1,,,,,,,,
,,,,,,,,,,,,,FF,,,,,,,,1.034175,,,,,,,,,,,,,,,,,,,,,,60fdcd21c7b9174239c6f73e,61036b7652747e33664b31ab,2021-07-29_22h02.54.952,Simcolourproject_2stim_asymm_v5,2020.2.10,MacIntel,60,61025ae37ef11b136ea224fe,,,,,,,,,3601,74.16796875,-54.16015625,1,0,0,response3disk,,5,22.42578125,1.421875,1,0,0,rectangle,69.0859375,38.63671875,1,0,0,16.08203125,11.0625,1,0,0,1,14,174,124,1,,response1disk_3,TRUE,6,6,"[175,150,293,83,96,309,319,226,146,65,198,237,31,273,223,163,148,315,292,57]",1.232625,rectangle
,,,,,,,,,,,,,FF,,,,,,,,1.232635,,,,,,,,,,,,,,,,,,,,,,60fdcd21c7b9174239c6f73e,61036b7652747e33664b31ab,2021-07-29_22h02.54.952,Simcolourproject_2stim_asymm_v5,2020.2.10,MacIntel,60,61025ae37ef11b136ea224fe,,,,,,,,,3524,34.55859375,82.55859375,1,0,0,response1disk,,7,13.8515625,8.98828125,1,0,0,rectangle,13.8515625,8.98828125,1,0,0,13.8515625,8.98828125,1,0,0,1,15,175,143,1,,,,,,,,
,,,,,,,,,,,,,FF,,,,,,,,0.90129,,,,,,,,,,,,,,,,,,,,,,60fdcd21c7b9174239c6f73e,61036b7652747e33664b31ab,2021-07-29_22h02.54.952,Simcolourproject_2stim_asymm_v5,2020.2.10,MacIntel,60,61025ae37ef11b136ea224fe,,,,,,,,,814,49.58203125,-81.9375,1,0,0,response3disk,,4,26.765625,0.87109375,1,0,0,rectangle,26.765625,0.87109375,1,0,0,26.765625,0.87109375,1,0,0,1,16,176,114,1,,,,,,,,
,,,,,,,,,,,,,FF,,,,,,,,1.166375,,,,,,,,,,,,,,,,,,,,,,60fdcd21c7b9174239c6f73e,61036b7652747e33664b31ab,2021-07-29_22h02.54.952,Simcolourproject_2stim_asymm_v5,2020.2.10,MacIntel,60,61025ae37ef11b136ea224fe,,,,,,,,,3363,32.8125,93.2265625,1,0,0,response1disk,,7,16.828125,-2.453125,1,0,0,rectangle,16.828125,-2.453125,1,0,0,16.828125,-2.453125,1,0,0,1,17,177,23,1,,,,,,,,
,,,,,,,,,,,,,FF,,,,,,,,1.682955,,,,,,,,,,,,,,,,,,,,,,60fdcd21c7b9174239c6f73e,61036b7652747e33664b31ab,2021-07-29_22h02.54.952,Simcolourproject_2stim_asymm_v5,2020.2.10,MacIntel,60,61025ae37ef11b136ea224fe,,,,,,,,,1745,-67.95703125,-45.15625,1,0,0,response5disk,,2,-18.16015625,1.2109375,1,0,0,rectangle,-18.16015625,1.2109375,1,0,0,-18.16015625,1.2109375,1,0,0,1,18,178,27,1,,,,,,,,
,,,,,,,,,,,,,FF,,,,,,,,1.3835,,,,,,,,,,,,,,,,,,,,,,60fdcd21c7b9174239c6f73e,61036b7652747e33664b31ab,2021-07-29_22h02.54.952,Simcolourproject_2stim_asymm_v5,2020.2.10,MacIntel,60,61025ae37ef11b136ea224fe,,,,,,,,,2286,-42.82421875,-82.89453125,1,0,0,response5disk,,3,6.09375,9.7421875,1,0,0,rectangle,6.09375,9.7421875,1,0,0,6.09375,9.7421875,1,0,0,1,19,179,71,1,,,,,,,,
,,,,,,,,,,,,,FF,,,,,,,,0.78039,,,,,,,,,,,,,,,,,,,,,,60fdcd21c7b9174239c6f73e,61036b7652747e33664b31ab,2021-07-29_22h02.54.952,Simcolourproject_2stim_asymm_v5,2020.2.10,MacIntel,60,61025ae37ef11b136ea224fe,,,,,,,,,2682,49.23046875,72.50390625,1,0,0,response1disk,,7,13.04296875,-7.69140625,1,0,0,rectangle,13.04296875,-7.69140625,1,0,0,13.04296875,-7.69140625,1,0,0,1,20,180,7,1,,,,,,,,
,,,,,,,,,,,,,FF,,,,,,,,0.566605,,,,,,,,,,,,,,,,,,,,,,60fdcd21c7b9174239c6f73e,61036b7652747e33664b31ab,2021-07-29_22h02.54.952,Simcolourproject_2stim_asymm_v5,2020.2.10,MacIntel,60,61025ae37ef11b136ea224fe,,,,,,,,,1519,42.13671875,61.4921875,1,0,0,response1disk,,7,-3.18359375,1.47265625,1,0,0,rectangle,-3.18359375,1.47265625,1,0,0,-3.18359375,1.47265625,1,0,0,1,21,181,41,1,,,,,,,,
,,,,,,,,,,,,,FF,,,,,,,,1.166805,,,,,,,,,,,,,,,,,,,,,,60fdcd21c7b9174239c6f73e,61036b7652747e33664b31ab,2021-07-29_22h02.54.952,Simcolourproject_2stim_asymm_v5,2020.2.10,MacIntel,60,61025ae37ef11b136ea224fe,,,,,,,,,715,64.13671875,26.55859375,1,0,0,response1disk,,6,7.9765625,-6.55859375,1,0,0,rectangle,7.9765625,-6.55859375,1,0,0,7.9765625,-6.55859375,1,0,0,1,22,182,76,1,,,,,,,,
,,,,,,,,,,,,,FF,,,,,,,,0.817545,,,,,,,,,,,,,,,,,,,,,,60fdcd21c7b9174239c6f73e,61036b7652747e33664b31ab,2021-07-29_22h02.54.952,Simcolourproject_2stim_asymm_v5,2020.2.10,MacIntel,60,61025ae37ef11b136ea224fe,,,,,,,,,1263,50.71875,76.81640625,1,0,0,response1disk,,7,2.69921875,0.5,1,0,0,rectangle,2.69921875,0.5,1,0,0,2.69921875,0.5,1,0,0,1,23,183,22,1,,,,,,,,
,,,,,,,,,,,,,FF,,,,,,,,0.85081,,,,,,,,,,,,,,,,,,,,,,60fdcd21c7b9174239c6f73e,61036b7652747e33664b31ab,2021-07-29_22h02.54.952,Simcolourproject_2stim_asymm_v5,2020.2.10,MacIntel,60,61025ae37ef11b136ea224fe,,,,,,,,,616,50.31640625,-74.08203125,1,0,0,response3disk,,4,12.140625,2.8984375,1,0,0,rectangle,12.140625,2.8984375,1,0,0,12.140625,2.8984375,1,0,0,1,24,184,49,1,,,,,,,,
,,,,,,,,,,,,,FF,,,,,,,,1.11695,,,,,,,,,,,,,,,,,,,,,,60fdcd21c7b9174239c6f73e,61036b7652747e33664b31ab,2021-07-29_22h02.54.952,Simcolourproject_2stim_asymm_v5,2020.2.10,MacIntel,60,61025ae37ef11b136ea224fe,,,,,,,,,3673,-46.140625,-68.78515625,1,0,0,response5disk,,3,11.21484375,11.3515625,1,0,0,rectangle,11.21484375,11.3515625,1,0,0,11.21484375,11.3515625,1,0,0,1,25,185,156,1,,,,,,,,
,,,,,,,,,,,,,FF,,,,,,,,0.76715,,,,,,,,,,,,,,,,,,,,,,60fdcd21c7b9174239c6f73e,61036b7652747e33664b31ab,2021-07-29_22h02.54.952,Simcolourproject_2stim_asymm_v5,2020.2.10,MacIntel,60,61025ae37ef11b136ea224fe,,,,,,,,,1426,58.8515625,33.78515625,1,0,0,response1disk,,6,3.609375,-0.78125,1,0,0,rectangle,3.609375,-0.78125,1,0,0,3.609375,-0.78125,1,0,0,1,26,186,61,1,,,,,,,,
,,,,,,,,,,,,,FF,,,,,,,,1.117105,,,,,,,,,,,,,,,,,,,,,,60fdcd21c7b9174239c6f73e,61036b7652747e33664b31ab,2021-07-29_22h02.54.952,Simcolourproject_2stim_asymm_v5,2020.2.10,MacIntel,60,61025ae37ef11b136ea224fe,,,,,,,,,1198,41.11328125,75.18359375,1,0,0,response1disk,,7,2.00390625,-5.3671875,1,0,0,rectangle,2.00390625,-5.3671875,1,0,0,2.00390625,-5.3671875,1,0,0,1,27,187,73,1,,,,,,,,
,,,,,,,,,,,,,FF,,,,,,,,1.514855,,,,,,,,,,,,,,,,,,,,,,60fdcd21c7b9174239c6f73e,61036b7652747e33664b31ab,2021-07-29_22h02.54.952,Simcolourproject_2stim_asymm_v5,2020.2.10,MacIntel,60,61025ae37ef11b136ea224fe,,,,,,,,,2670,49.609375,-83.02734375,1,0,0,response3disk,,4,-2.15625,-2.65234375,1,0,0,rectangle,-2.15625,-2.65234375,1,0,0,-2.15625,-2.65234375,1,0,0,1,28,188,21,1,,,,,,,,
,,,,,,,,,,,,,FF,,,,,,,,2.633855,,,,,,,,,,,,,,,,,,,,,,60fdcd21c7b9174239c6f73e,61036b7652747e33664b31ab,2021-07-29_22h02.54.952,Simcolourproject_2stim_asymm_v5,2020.2.10,MacIntel,60,61025ae37ef11b136ea224fe,,,,,,,,,856,46.8515625,87.0390625,1,0,0,response1disk,,7,-6.59765625,-3.3671875,1,0,0,rectangle,-6.59765625,-3.3671875,1,0,0,-6.59765625,-3.3671875,1,0,0,1,29,189,144,1,,,,,,,,
,,,,,,,,,,,,,FF,,,,,,,,1.01737,,,,,,,,,,,,,,,,,,,,,,60fdcd21c7b9174239c6f73e,61036b7652747e33664b31ab,2021-07-29_22h02.54.952,Simcolourproject_2stim_asymm_v5,2020.2.10,MacIntel,60,61025ae37ef11b136ea224fe,,,,,,,,,1891,-70.89453125,-35.1875,1,0,0,response5disk,,2,6.03125,-1.73046875,1,0,0,rectangle,6.03125,-1.73046875,1,0,0,6.03125,-1.73046875,1,0,0,1,30,190,19,1,,,,,,,,
,,,,,,,,,,,,,FF,,,,,,,,0.617555,,,,,,,,,,,,,,,,,,,,,,60fdcd21c7b9174239c6f73e,61036b7652747e33664b31ab,2021-07-29_22h02.54.952,Simcolourproject_2stim_asymm_v5,2020.2.10,MacIntel,60,61025ae37ef11b136ea224fe,,,,,,,,,2692,41.97265625,82.3515625,1,0,0,response1disk,,7,2.37890625,-1.66015625,1,0,0,rectangle,2.37890625,-1.66015625,1,0,0,2.37890625,-1.66015625,1,0,0,1,31,191,53,1,,,,,,,,
,,,,,,,,,,,,,FF,,,,,,,,3.39837,,,,,,,,,,,,,,,,,,,,,,60fdcd21c7b9174239c6f73e,61036b7652747e33664b31ab,2021-07-29_22h02.54.952,Simcolourproject_2stim_asymm_v5,2020.2.10,MacIntel,60,61025ae37ef11b136ea224fe,,,,,,,,,1665,77.171875,23.31640625,1,0,0,response1disk,,6,-12.64453125,-0.54296875,1,0,0,rectangle,-12.64453125,-0.54296875,1,0,0,-12.64453125,-0.54296875,1,0,0,1,32,192,33,1,,,,,,,,
,,,,,,,,,,,,,FF,,,,,,,,0.849545,,,,,,,,,,,,,,,,,,,,,,60fdcd21c7b9174239c6f73e,61036b7652747e33664b31ab,2021-07-29_22h02.54.952,Simcolourproject_2stim_asymm_v5,2020.2.10,MacIntel,60,61025ae37ef11b136ea224fe,,,,,,,,,3070,33.82421875,70.38671875,1,0,0,response1disk,,7,-5.5625,-2.6640625,1,0,0,rectangle,-5.5625,-2.6640625,1,0,0,-5.5625,-2.6640625,1,0,0,1,33,193,87,1,,,,,,,,
,,,,,,,,,,,,,FF,,,,,,,,0.89871,,,,,,,,,,,,,,,,,,,,,,60fdcd21c7b9174239c6f73e,61036b7652747e33664b31ab,2021-07-29_22h02.54.952,Simcolourproject_2stim_asymm_v5,2020.2.10,MacIntel,60,61025ae37ef11b136ea224fe,,,,,,,,,2239,37.5703125,-79.109375,1,0,0,response3disk,,4,-4.05859375,8.05859375,1,0,0,rectangle,-4.05859375,8.05859375,1,0,0,-4.05859375,8.05859375,1,0,0,1,34,194,12,1,,,,,,,,
,,,,,,,,,,,,,FF,,,,,,,,0.84883,,,,,,,,,,,,,,,,,,,,,,60fdcd21c7b9174239c6f73e,61036b7652747e33664b31ab,2021-07-29_22h02.54.952,Simcolourproject_2stim_asymm_v5,2020.2.10,MacIntel,60,61025ae37ef11b136ea224fe,,,,,,,,,32,-43.6953125,-87.32421875,1,0,0,response5disk,,3,3.66796875,-5.953125,1,0,0,rectangle,3.66796875,-5.953125,1,0,0,3.66796875,-5.953125,1,0,0,1,35,195,86,1,,,,,,,,
,,,,,,,,,,,,,FF,,,,,,,,0.80097,,,,,,,,,,,,,,,,,,,,,,60fdcd21c7b9174239c6f73e,61036b7652747e33664b31ab,2021-07-29_22h02.54.952,Simcolourproject_2stim_asymm_v5,2020.2.10,MacIntel,60,61025ae37ef11b136ea224fe,,,,,,,,,2794,38.52734375,50.87109375,1,0,0,response1disk,,7,5.90625,3.19921875,1,0,0,rectangle,5.90625,3.19921875,1,0,0,5.90625,3.19921875,1,0,0,1,36,196,91,1,,,,,,,,
,,,,,,,,,,,,,FF,,,,,,,,0.916775,,,,,,,,,,,,,,,,,,,,,,60fdcd21c7b9174239c6f73e,61036b7652747e33664b31ab,2021-07-29_22h02.54.952,Simcolourproject_2stim_asymm_v5,2020.2.10,MacIntel,60,61025ae37ef11b136ea224fe,,,,,,,,,3397,-31.78125,-83.69921875,1,0,0,response5disk,,3,2.203125,1.52734375,1,0,0,rectangle,37.109375,71.41015625,1,0,0,12.08984375,-1.42578125,1,0,0,1,37,197,104,1,,response1disk_3,TRUE,7,7,"[175,150,293,83,96,309,319,226,146,65,198,237,31,273,223,163,148,315,292,57]",1.267555,rectangle
,,,,,,,,,,,,,FF,,,,,,,,2.73341,,,,,,,,,,,,,,,,,,,,,,60fdcd21c7b9174239c6f73e,61036b7652747e33664b31ab,2021-07-29_22h02.54.952,Simcolourproject_2stim_asymm_v5,2020.2.10,MacIntel,60,61025ae37ef11b136ea224fe,,,,,,,,,4084,34.51953125,-81.53125,1,0,0,response3disk,,4,20.32421875,-9.03515625,1,0,0,rectangle,20.32421875,-9.03515625,1,0,0,20.32421875,-9.03515625,1,0,0,1,38,198,96,1,,,,,,,,
,,,,,,,,,,,,,FF,,,,,,,,1.24967,,,,,,,,,,,,,,,,,,,,,,60fdcd21c7b9174239c6f73e,61036b7652747e33664b31ab,2021-07-29_22h02.54.952,Simcolourproject_2stim_asymm_v5,2020.2.10,MacIntel,60,61025ae37ef11b136ea224fe,,,,,,,,,3941,42.57421875,-58.1015625,1,0,0,response3disk,,4,17.4765625,6.11328125,1,0,0,rectangle,17.4765625,6.11328125,1,0,0,17.4765625,6.11328125,1,0,0,1,39,199,139,1,,,,,,,,
,,,,,,,,,,,,,FF,,,,,,,,1.0649,,,,,,,,,,,,,,,,,,,,,,60fdcd21c7b9174239c6f73e,61036b7652747e33664b31ab,2021-07-29_22h02.54.952,Simcolourproject_2stim_asymm_v5,2020.2.10,MacIntel,60,61025ae37ef11b136ea224fe,,,,,,,,,2226,-37.5546875,88.1171875,1,0,0,response7disk,,0,-4.6640625,8.703125,1,0,0,rectangle,-4.6640625,8.703125,1,0,0,-4.6640625,8.703125,1,0,0,1,40,200,66,1,,,,,,,,
,,,,,,,,,,,,,FF,,,,,,,,0.86482,,,,,,,,,,,,,,,,,,,,,,60fdcd21c7b9174239c6f73e,61036b7652747e33664b31ab,2021-07-29_22h02.54.952,Simcolourproject_2stim_asymm_v5,2020.2.10,MacIntel,60,61025ae37ef11b136ea224fe,,,,,,,,,1536,-52.0859375,25.125,1,0,0,response7disk,,1,-5.3046875,-5.68359375,1,0,0,rectangle,-5.3046875,-5.68359375,1,0,0,-5.3046875,-5.68359375,1,0,0,1,41,201,154,1,,,,,,,,
,,,,,,,,,,,,,FF,,,,,,,,0.717475,,,,,,,,,,,,,,,,,,,,,,60fdcd21c7b9174239c6f73e,61036b7652747e33664b31ab,2021-07-29_22h02.54.952,Simcolourproject_2stim_asymm_v5,2020.2.10,MacIntel,60,61025ae37ef11b136ea224fe,,,,,,,,,2758,54.0703125,58.93359375,1,0,0,response1disk,,7,4.33203125,0.26171875,1,0,0,rectangle,4.33203125,0.26171875,1,0,0,4.33203125,0.26171875,1,0,0,1,42,202,18,1,,,,,,,,
,,,,,,,,,,,,,FF,,,,,,,,1.6011,,,,,,,,,,,,,,,,,,,,,,60fdcd21c7b9174239c6f73e,61036b7652747e33664b31ab,2021-07-29_22h02.54.952,Simcolourproject_2stim_asymm_v5,2020.2.10,MacIntel,60,61025ae37ef11b136ea224fe,,,,,,,,,3925,70.74609375,30.30859375,1,0,0,response1disk,,6,-0.70703125,-1.8828125,1,0,0,rectangle,-0.70703125,-1.8828125,1,0,0,-0.70703125,-1.8828125,1,0,0,1,43,203,109,1,,,,,,,,
,,,,,,,,,,,,,FF,,,,,,,,1.101545,,,,,,,,,,,,,,,,,,,,,,60fdcd21c7b9174239c6f73e,61036b7652747e33664b31ab,2021-07-29_22h02.54.952,Simcolourproject_2stim_asymm_v5,2020.2.10,MacIntel,60,61025ae37ef11b136ea224fe,,,,,,,,,3821,77.6484375,-45.68359375,1,0,0,response3disk,,5,-4.33203125,-8.03125,1,0,0,rectangle,-4.33203125,-8.03125,1,0,0,-4.33203125,-8.03125,1,0,0,1,44,204,45,1,,,,,,,,
,,,,,,,,,,,,,FF,,,,,,,,1.084305,,,,,,,,,,,,,,,,,,,,,,60fdcd21c7b9174239c6f73e,61036b7652747e33664b31ab,2021-07-29_22h02.54.952,Simcolourproject_2stim_asymm_v5,2020.2.10,MacIntel,60,61025ae37ef11b136ea224fe,,,,,,,,,1567,49.72265625,75.66796875,1,0,0,response1disk,,7,2.33203125,7.59375,1,0,0,rectangle,2.33203125,7.59375,1,0,0,2.33203125,7.59375,1,0,0,1,45,205,152,1,,,,,,,,
,,,,,,,,,,,,,FF,,,,,,,,1.466775,,,,,,,,,,,,,,,,,,,,,,60fdcd21c7b9174239c6f73e,61036b7652747e33664b31ab,2021-07-29_22h02.54.952,Simcolourproject_2stim_asymm_v5,2020.2.10,MacIntel,60,61025ae37ef11b136ea224fe,,,,,,,,,1526,-44.94140625,-77.2734375,1,0,0,response5disk,,3,-7.64453125,-0.453125,1,0,0,rectangle,-7.64453125,-0.453125,1,0,0,-7.64453125,-0.453125,1,0,0,1,46,206,72,1,,,,,,,,
,,,,,,,,,,,,,FF,,,,,,,,0.60007,,,,,,,,,,,,,,,,,,,,,,60fdcd21c7b9174239c6f73e,61036b7652747e33664b31ab,2021-07-29_22h02.54.952,Simcolourproject_2stim_asymm_v5,2020.2.10,MacIntel,60,61025ae37ef11b136ea224fe,,,,,,,,,3561,44.16796875,88.484375,1,0,0,response1disk,,7,10.1328125,5.203125,1,0,0,rectangle,10.1328125,5.203125,1,0,0,10.1328125,5.203125,1,0,0,1,47,207,16,1,,,,,,,,
,,,,,,,,,,,,,FF,,,,,,,,1.516995,,,,,,,,,,,,,,,,,,,,,,60fdcd21c7b9174239c6f73e,61036b7652747e33664b31ab,2021-07-29_22h02.54.952,Simcolourproject_2stim_asymm_v5,2020.2.10,MacIntel,60,61025ae37ef11b136ea224fe,,,,,,,,,1884,62.47265625,-40.26171875,1,0,0,response3disk,,5,6.26171875,-12.47265625,1,0,0,rectangle,6.26171875,-12.47265625,1,0,0,6.26171875,-12.47265625,1,0,0,1,48,208,113,1,,,,,,,,
,,,,,,,,,,,,,FF,,,,,,,,0.817215,,,,,,,,,,,,,,,,,,,,,,60fdcd21c7b9174239c6f73e,61036b7652747e33664b31ab,2021-07-29_22h02.54.952,Simcolourproject_2stim_asymm_v5,2020.2.10,MacIntel,60,61025ae37ef11b136ea224fe,,,,,,,,,1683,-26.75390625,-87.3828125,1,0,0,response5disk,,3,-4.3203125,5.09765625,1,0,0,rectangle,-4.3203125,5.09765625,1,0,0,-4.3203125,5.09765625,1,0,0,1,49,209,90,1,,,,,,,,
,,,,,,,,,,,,,FF,,,,,,,,0.833395,,,,,,,,,,,,,,,,,,,,,,60fdcd21c7b9174239c6f73e,61036b7652747e33664b31ab,2021-07-29_22h02.54.952,Simcolourproject_2stim_asymm_v5,2020.2.10,MacIntel,60,61025ae37ef11b136ea224fe,,,,,,,,,3346,-37.64453125,-63.3125,1,0,0,response5disk,,3,-16.9765625,2.63671875,1,0,0,rectangle,-16.9765625,2.63671875,1,0,0,-16.9765625,2.63671875,1,0,0,1,50,210,38,1,,,,,,,,
,,,,,,,,,,,,,FF,,,,,,,,0.950035,,,,,,,,,,,,,,,,,,,,,,60fdcd21c7b9174239c6f73e,61036b7652747e33664b31ab,2021-07-29_22h02.54.952,Simcolourproject_2stim_asymm_v5,2020.2.10,MacIntel,60,61025ae37ef11b136ea224fe,,,,,,,,,4162,-51.0234375,-78.1953125,1,0,0,response5disk,,3,-6.28125,-2.90625,1,0,0,rectangle,-6.28125,-2.90625,1,0,0,-6.28125,-2.90625,1,0,0,1,51,211,135,1,,,,,,,,
,,,,,,,,,,,,,FF,,,,,,,,1.56581,,,,,,,,,,,,,,,,,,,,,,60fdcd21c7b9174239c6f73e,61036b7652747e33664b31ab,2021-07-29_22h02.54.952,Simcolourproject_2stim_asymm_v5,2020.2.10,MacIntel,60,61025ae37ef11b136ea224fe,,,,,,,,,3480,32.5625,-96.97265625,1,0,0,response3disk,,4,15.98046875,-3.4375,1,0,0,rectangle,15.98046875,-3.4375,1,0,0,15.98046875,-3.4375,1,0,0,1,52,212,93,1,,,,,,,,
,,,,,,,,,,,,,FF,,,,,,,,1.451635,,,,,,,,,,,,,,,,,,,,,,60fdcd21c7b9174239c6f73e,61036b7652747e33664b31ab,2021-07-29_22h02.54.952,Simcolourproject_2stim_asymm_v5,2020.2.10,MacIntel,60,61025ae37ef11b136ea224fe,,,,,,,,,1981,79.71875,20.97265625,1,0,0,response1disk,,6,9.03125,-2.9140625,1,0,0,rectangle,9.03125,-2.9140625,1,0,0,9.03125,-2.9140625,1,0,0,1,53,213,136,1,,,,,,,,
,,,,,,,,,,,,,FF,,,,,,,,0.582165,,,,,,,,,,,,,,,,,,,,,,60fdcd21c7b9174239c6f73e,61036b7652747e33664b31ab,2021-07-29_22h02.54.952,Simcolourproject_2stim_asymm_v5,2020.2.10,MacIntel,60,61025ae37ef11b136ea224fe,,,,,,,,,1997,34.328125,52.09375,1,0,0,response1disk,,7,14.4375,-3.328125,1,0,0,rectangle,14.4375,-3.328125,1,0,0,14.4375,-3.328125,1,0,0,1,54,214,117,1,,,,,,,,
,,,,,,,,,,,,,FF,,,,,,,,0.86718,,,,,,,,,,,,,,,,,,,,,,60fdcd21c7b9174239c6f73e,61036b7652747e33664b31ab,2021-07-29_22h02.54.952,Simcolourproject_2stim_asymm_v5,2020.2.10,MacIntel,60,61025ae37ef11b136ea224fe,,,,,,,,,2293,-60.265625,-84.484375,1,0,0,response5disk,,3,-16.3203125,3.2734375,1,0,0,rectangle,-16.3203125,3.2734375,1,0,0,-16.3203125,3.2734375,1,0,0,1,55,215,77,1,,,,,,,,
,,,,,,,,,,,,,FF,,,,,,,,1.43465,,,,,,,,,,,,,,,,,,,,,,60fdcd21c7b9174239c6f73e,61036b7652747e33664b31ab,2021-07-29_22h02.54.952,Simcolourproject_2stim_asymm_v5,2020.2.10,MacIntel,60,61025ae37ef11b136ea224fe,,,,,,,,,4192,62.84765625,-25.49609375,1,0,0,response3disk,,5,14.94921875,-1.296875,1,0,0,rectangle,14.94921875,-1.296875,1,0,0,14.94921875,-1.296875,1,0,0,1,56,216,11,1,,,,,,,,
,,,,,,,,,,,,,FF,,,,,,,,0.883975,,,,,,,,,,,,,,,,,,,,,,60fdcd21c7b9174239c6f73e,61036b7652747e33664b31ab,2021-07-29_22h02.54.952,Simcolourproject_2stim_asymm_v5,2020.2.10,MacIntel,60,61025ae37ef11b136ea224fe,,,,,,,,,3552,-28.6953125,84.83984375,1,0,0,response7disk,,0,-3.97265625,-2.265625,1,0,0,rectangle,-3.97265625,-2.265625,1,0,0,-3.97265625,-2.265625,1,0,0,1,57,217,126,1,,,,,,,,
,,,,,,,,,,,,,FF,,,,,,,,2.91571,,,,,,,,,,,,,,,,,,,,,,60fdcd21c7b9174239c6f73e,61036b7652747e33664b31ab,2021-07-29_22h02.54.952,Simcolourproject_2stim_asymm_v5,2020.2.10,MacIntel,60,61025ae37ef11b136ea224fe,,,,,,,,,3038,70.5625,-39.20703125,1,0,0,response3disk,,5,-1.02734375,1.5625,1,0,0,rectangle,-1.02734375,1.5625,1,0,0,-1.02734375,1.5625,1,0,0,1,58,218,15,1,,,,,,,,
,,,,,,,,,,,,,FF,,,,,,,,1.38222,,,,,,,,,,,,,,,,,,,,,,60fdcd21c7b9174239c6f73e,61036b7652747e33664b31ab,2021-07-29_22h02.54.952,Simcolourproject_2stim_asymm_v5,2020.2.10,MacIntel,60,61025ae37ef11b136ea224fe,,,,,,,,,4119,-38.22265625,-89.625,1,0,0,response5disk,,3,3.171875,11.4296875,1,0,0,rectangle,3.171875,11.4296875,1,0,0,3.171875,11.4296875,1,0,0,1,59,219,112,1,,,,,,,,
,,,,,,,,,,,,,FF,,,,,,,,0.59891,,,,,,,,,,,,,,,,,,,,,,60fdcd21c7b9174239c6f73e,61036b7652747e33664b31ab,2021-07-29_22h02.54.952,Simcolourproject_2stim_asymm_v5,2020.2.10,MacIntel,60,61025ae37ef11b136ea224fe,,,,,,,,,3356,43.20703125,83.1171875,1,0,0,response1disk,,7,-3.67578125,3.2421875,1,0,0,rectangle,-3.67578125,3.2421875,1,0,0,-3.67578125,3.2421875,1,0,0,1,60,220,115,1,,,,,,,,
,,,,,,,,,,,,,FF,,,,,,,,0.717145,,,,,,,,,,,,,,,,,,,,,,60fdcd21c7b9174239c6f73e,61036b7652747e33664b31ab,2021-07-29_22h02.54.952,Simcolourproject_2stim_asymm_v5,2020.2.10,MacIntel,60,61025ae37ef11b136ea224fe,,,,,,,,,2000,32.00390625,74.125,1,0,0,response1disk,,7,5.18359375,1.86328125,1,0,0,rectangle,5.18359375,1.86328125,1,0,0,5.18359375,1.86328125,1,0,0,1,61,221,69,1,,,,,,,,
,,,,,,,,,,,,,FF,,,,,,,,1.201785,,,,,,,,,,,,,,,,,,,,,,60fdcd21c7b9174239c6f73e,61036b7652747e33664b31ab,2021-07-29_22h02.54.952,Simcolourproject_2stim_asymm_v5,2020.2.10,MacIntel,60,61025ae37ef11b136ea224fe,,,,,,,,,2311,78.015625,25.4296875,1,0,0,response1disk,,6,16.7421875,4.17578125,1,0,0,rectangle,-33.51171875,71.0078125,1,0,0,0.51171875,1.40234375,1,0,0,1,62,222,111,1,,response7disk_3,TRUE,0,0,"[175,150,293,83,96,309,319,226,146,65,198,237,31,273,223,163,148,315,292,57]",1.94822,rectangle
,,,,,,,,,,,,,FF,,,,,,,,1.36795,,,,,,,,,,,,,,,,,,,,,,60fdcd21c7b9174239c6f73e,61036b7652747e33664b31ab,2021-07-29_22h02.54.952,Simcolourproject_2stim_asymm_v5,2020.2.10,MacIntel,60,61025ae37ef11b136ea224fe,,,,,,,,,845,71.95703125,42.89453125,1,0,0,response1disk,,6,-3.9296875,-2.15625,1,0,0,rectangle,-3.9296875,-2.15625,1,0,0,-3.9296875,-2.15625,1,0,0,1,63,223,132,1,,,,,,,,
,,,,,,,,,,,,,FF,,,,,,,,3.96588,,,,,,,,,,,,,,,,,,,,,,60fdcd21c7b9174239c6f73e,61036b7652747e33664b31ab,2021-07-29_22h02.54.952,Simcolourproject_2stim_asymm_v5,2020.2.10,MacIntel,60,61025ae37ef11b136ea224fe,,,,,,,,,1063,60.69140625,-48.05859375,1,0,0,response3disk,,5,-9.67578125,-7.921875,1,0,0,rectangle,-9.67578125,-7.921875,1,0,0,-9.67578125,-7.921875,1,0,0,1,64,224,88,1,,,,,,,,
,,,,,,,,,,,,,FF,,,,,,,,0.73151,,,,,,,,,,,,,,,,,,,,,,60fdcd21c7b9174239c6f73e,61036b7652747e33664b31ab,2021-07-29_22h02.54.952,Simcolourproject_2stim_asymm_v5,2020.2.10,MacIntel,60,61025ae37ef11b136ea224fe,,,,,,,,,3981,-44.34375,-79.109375,1,0,0,response5disk,,3,-18.37109375,5.26171875,1,0,0,rectangle,-61.890625,34.7734375,1,0,0,6.84765625,1.8125,1,0,0,1,65,225,37,1,,response7disk_3,TRUE,1,1,"[175,150,293,83,96,309,319,226,146,65,198,237,31,273,223,163,148,315,292,57]",1.50077,rectangle
,,,,,,,,,,,,,FF,,,,,,,,0.732105,,,,,,,,,,,,,,,,,,,,,,60fdcd21c7b9174239c6f73e,61036b7652747e33664b31ab,2021-07-29_22h02.54.952,Simcolourproject_2stim_asymm_v5,2020.2.10,MacIntel,60,61025ae37ef11b136ea224fe,,,,,,,,,4095,-43.8515625,76.73046875,1,0,0,response7disk,,0,-0.7890625,0.33203125,1,0,0,rectangle,-0.7890625,0.33203125,1,0,0,-0.7890625,0.33203125,1,0,0,1,66,226,48,1,,,,,,,,
,,,,,,,,,,,,,FF,,,,,,,,1.300835,,,,,,,,,,,,,,,,,,,,,,60fdcd21c7b9174239c6f73e,61036b7652747e33664b31ab,2021-07-29_22h02.54.952,Simcolourproject_2stim_asymm_v5,2020.2.10,MacIntel,60,61025ae37ef11b136ea224fe,,,,,,,,,1310,37.70703125,-82.1640625,1,0,0,response3disk,,4,11.9921875,4.296875,1,0,0,rectangle,11.9921875,4.296875,1,0,0,11.9921875,4.296875,1,0,0,1,67,227,55,1,,,,,,,,
,,,,,,,,,,,,,FF,,,,,,,,0.91547,,,,,,,,,,,,,,,,,,,,,,60fdcd21c7b9174239c6f73e,61036b7652747e33664b31ab,2021-07-29_22h02.54.952,Simcolourproject_2stim_asymm_v5,2020.2.10,MacIntel,60,61025ae37ef11b136ea224fe,,,,,,,,,3619,47.6015625,38.20703125,1,0,0,response1disk,,6,2.93359375,3.96484375,1,0,0,rectangle,2.93359375,3.96484375,1,0,0,2.93359375,3.96484375,1,0,0,1,68,228,52,1,,,,,,,,
,,,,,,,,,,,,,FF,,,,,,,,0.749735,,,,,,,,,,,,,,,,,,,,,,60fdcd21c7b9174239c6f73e,61036b7652747e33664b31ab,2021-07-29_22h02.54.952,Simcolourproject_2stim_asymm_v5,2020.2.10,MacIntel,60,61025ae37ef11b136ea224fe,,,,,,,,,1875,37.41015625,72.83984375,1,0,0,response1disk,,7,-4.1171875,-4.40234375,1,0,0,rectangle,-4.1171875,-4.40234375,1,0,0,-4.1171875,-4.40234375,1,0,0,1,69,229,106,1,,,,,,,,
,,,,,,,,,,,,,FF,,,,,,,,1.467115,,,,,,,,,,,,,,,,,,,,,,60fdcd21c7b9174239c6f73e,61036b7652747e33664b31ab,2021-07-29_22h02.54.952,Simcolourproject_2stim_asymm_v5,2020.2.10,MacIntel,60,61025ae37ef11b136ea224fe,,,,,,,,,3200,44.140625,-84.51953125,1,0,0,response3disk,,4,9.7578125,-5.8359375,1,0,0,rectangle,9.7578125,-5.8359375,1,0,0,9.7578125,-5.8359375,1,0,0,1,70,230,103,1,,,,,,,,
,,,,,,,,,,,,,FF,,,,,,,,1.182085,,,,,,,,,,,,,,,,,,,,,,60fdcd21c7b9174239c6f73e,61036b7652747e33664b31ab,2021-07-29_22h02.54.952,Simcolourproject_2stim_asymm_v5,2020.2.10,MacIntel,60,61025ae37ef11b136ea224fe,,,,,,,,,2713,63.8828125,-46.95703125,1,0,0,response3disk,,5,11.99609375,-5.8046875,1,0,0,rectangle,11.99609375,-5.8046875,1,0,0,11.99609375,-5.8046875,1,0,0,1,71,231,17,1,,,,,,,,
,,,,,,,,,,,,,FF,,,,,,,,0.60089,,,,,,,,,,,,,,,,,,,,,,60fdcd21c7b9174239c6f73e,61036b7652747e33664b31ab,2021-07-29_22h02.54.952,Simcolourproject_2stim_asymm_v5,2020.2.10,MacIntel,60,61025ae37ef11b136ea224fe,,,,,,,,,1708,25.5234375,61.2265625,1,0,0,response1disk,,7,12.234375,-0.46484375,1,0,0,rectangle,12.234375,-0.46484375,1,0,0,12.234375,-0.46484375,1,0,0,1,72,232,159,1,,,,,,,,
,,,,,,,,,,,,,FF,,,,,,,,0.71951,,,,,,,,,,,,,,,,,,,,,,60fdcd21c7b9174239c6f73e,61036b7652747e33664b31ab,2021-07-29_22h02.54.952,Simcolourproject_2stim_asymm_v5,2020.2.10,MacIntel,60,61025ae37ef11b136ea224fe,,,,,,,,,3858,39.26171875,55.28125,1,0,0,response1disk,,7,11.8046875,-2.796875,1,0,0,rectangle,11.8046875,-2.796875,1,0,0,11.8046875,-2.796875,1,0,0,1,73,233,1,1,,,,,,,,
,,,,,,,,,,,,,FF,,,,,,,,1.65091,,,,,,,,,,,,,,,,,,,,,,60fdcd21c7b9174239c6f73e,61036b7652747e33664b31ab,2021-07-29_22h02.54.952,Simcolourproject_2stim_asymm_v5,2020.2.10,MacIntel,60,61025ae37ef11b136ea224fe,,,,,,,,,135,46.83203125,85.46875,1,0,0,response1disk,,7,3.37109375,0.50390625,1,0,0,rectangle,3.37109375,0.50390625,1,0,0,3.37109375,0.50390625,1,0,0,1,74,234,100,1,,,,,,,,
,,,,,,,,,,,,,FF,,,,,,,,1.067875,,,,,,,,,,,,,,,,,,,,,,60fdcd21c7b9174239c6f73e,61036b7652747e33664b31ab,2021-07-29_22h02.54.952,Simcolourproject_2stim_asymm_v5,2020.2.10,MacIntel,60,61025ae37ef11b136ea224fe,,,,,,,,,2478,61.89453125,46.59765625,1,0,0,response1disk,,6,-0.33984375,3.4296875,1,0,0,rectangle,-0.33984375,3.4296875,1,0,0,-0.33984375,3.4296875,1,0,0,1,75,235,85,1,,,,,,,,
,,,,,,,,,,,,,FF,,,,,,,,0.7179,,,,,,,,,,,,,,,,,,,,,,60fdcd21c7b9174239c6f73e,61036b7652747e33664b31ab,2021-07-29_22h02.54.952,Simcolourproject_2stim_asymm_v5,2020.2.10,MacIntel,60,61025ae37ef11b136ea224fe,,,,,,,,,546,-31.7578125,-90.3515625,1,0,0,response5disk,,3,-17.23046875,1.3046875,1,0,0,rectangle,50.12890625,-81.0234375,1,0,0,9.046875,-3.1640625,1,0,0,1,76,236,157,1,,response3disk_3,TRUE,4,4,"[175,150,293,83,96,309,319,226,146,65,198,237,31,273,223,163,148,315,292,57]",1.533235,rectangle
,,,,,,,,,,,,,FF,,,,,,,,0.834195,,,,,,,,,,,,,,,,,,,,,,60fdcd21c7b9174239c6f73e,61036b7652747e33664b31ab,2021-07-29_22h02.54.952,Simcolourproject_2stim_asymm_v5,2020.2.10,MacIntel,60,61025ae37ef11b136ea224fe,,,,,,,,,4217,38.62109375,75.23828125,1,0,0,response1disk,,7,3.24609375,0.49609375,1,0,0,rectangle,3.24609375,0.49609375,1,0,0,3.24609375,0.49609375,1,0,0,1,77,237,63,1,,,,,,,,
,,,,,,,,,,,,,FF,,,,,,,,3.099155,,,,,,,,,,,,,,,,,,,,,,60fdcd21c7b9174239c6f73e,61036b7652747e33664b31ab,2021-07-29_22h02.54.952,Simcolourproject_2stim_asymm_v5,2020.2.10,MacIntel,60,61025ae37ef11b136ea224fe,,,,,,,,,3377,75.953125,35.64453125,1,0,0,response1disk,,6,20.0625,-1.859375,1,0,0,rectangle,20.0625,-1.859375,1,0,0,20.0625,-1.859375,1,0,0,1,78,238,78,1,,,,,,,,
,,,,,,,,,,,,,FF,,,,,,,,1.05137,,,,,,,,,,,,,,,,,,,,,,60fdcd21c7b9174239c6f73e,61036b7652747e33664b31ab,2021-07-29_22h02.54.952,Simcolourproject_2stim_asymm_v5,2020.2.10,MacIntel,60,61025ae37ef11b136ea224fe,,,,,,,,,683,62.87890625,-37.81640625,1,0,0,response3disk,,5,19.6640625,-3.18359375,1,0,0,rectangle,19.6640625,-3.18359375,1,0,0,19.6640625,-3.18359375,1,0,0,1,79,239,83,1,,,,,,,,
,,,,,,,,,,,,,FF,,,,,,,,1.083485,,,,,,,,,,,,,,,,,,,,,,60fdcd21c7b9174239c6f73e,61036b7652747e33664b31ab,2021-07-29_22h02.54.952,Simcolourproject_2stim_asymm_v5,2020.2.10,MacIntel,60,61025ae37ef11b136ea224fe,,,,,,,,,4197,66.3046875,-31.5390625,1,0,0,response3disk,,5,9.49609375,-0.44921875,1,0,0,rectangle,9.49609375,-0.44921875,1,0,0,9.49609375,-0.44921875,1,0,0,1,80,240,59,1,,,,,,,,
,,,,,,,,,,,,,FF,,,,,,,,1.25244,,,,,,,,,,,,,,,,,,,,,,60fdcd21c7b9174239c6f73e,61036b7652747e33664b31ab,2021-07-29_22h02.54.952,Simcolourproject_2stim_asymm_v5,2020.2.10,MacIntel,60,61025ae37ef11b136ea224fe,,,,,,,,,2379,33.5703125,-94.13671875,1,0,0,response3disk,,4,10.8359375,-9.6328125,1,0,0,rectangle,10.8359375,-9.6328125,1,0,0,10.8359375,-9.6328125,1,0,0,1,81,241,158,1,,,,,,,,
,,,,,,,,,,,,,FF,,,,,,,,0.633635,,,,,,,,,,,,,,,,,,,,,,60fdcd21c7b9174239c6f73e,61036b7652747e33664b31ab,2021-07-29_22h02.54.952,Simcolourproject_2stim_asymm_v5,2020.2.10,MacIntel,60,61025ae37ef11b136ea224fe,,,,,,,,,1680,-36.03125,-74.62109375,1,0,0,response5disk,,3,-9.40234375,3.9921875,1,0,0,rectangle,-9.40234375,3.9921875,1,0,0,-9.40234375,3.9921875,1,0,0,1,82,242,122,1,,,,,,,,
,,,,,,,,,,,,,FF,,,,,,,,0.866175,,,,,,,,,,,,,,,,,,,,,,60fdcd21c7b9174239c6f73e,61036b7652747e33664b31ab,2021-07-29_22h02.54.952,Simcolourproject_2stim_asymm_v5,2020.2.10,MacIntel,60,61025ae37ef11b136ea224fe,,,,,,,,,3354,38.32421875,69.4296875,1,0,0,response1disk,,7,8.8203125,2.24609375,1,0,0,rectangle,8.8203125,2.24609375,1,0,0,8.8203125,2.24609375,1,0,0,1,83,243,134,1,,,,,,,,
,,,,,,,,,,,,,FF,,,,,,,,1.116545,,,,,,,,,,,,,,,,,,,,,,60fdcd21c7b9174239c6f73e,61036b7652747e33664b31ab,2021-07-29_22h02.54.952,Simcolourproject_2stim_asymm_v5,2020.2.10,MacIntel,60,61025ae37ef11b136ea224fe,,,,,,,,,1247,36.19140625,75.5390625,1,0,0,response1disk,,7,0.828125,3.20703125,1,0,0,rectangle,0.828125,3.20703125,1,0,0,0.828125,3.20703125,1,0,0,1,84,244,148,1,,,,,,,,
,,,,,,,,,,,,,FF,,,,,,,,0.582715,,,,,,,,,,,,,,,,,,,,,,60fdcd21c7b9174239c6f73e,61036b7652747e33664b31ab,2021-07-29_22h02.54.952,Simcolourproject_2stim_asymm_v5,2020.2.10,MacIntel,60,61025ae37ef11b136ea224fe,,,,,,,,,4272,32.6171875,68.1484375,1,0,0,response1disk,,7,-6.76953125,6.43359375,1,0,0,rectangle,-6.76953125,6.43359375,1,0,0,-6.76953125,6.43359375,1,0,0,1,85,245,118,1,,,,,,,,
,,,,,,,,,,,,,FF,,,,,,,,0.48484,,,,,,,,,,,,,,,,,,,,,,60fdcd21c7b9174239c6f73e,61036b7652747e33664b31ab,2021-07-29_22h02.54.952,Simcolourproject_2stim_asymm_v5,2020.2.10,MacIntel,60,61025ae37ef11b136ea224fe,,,,,,,,,1513,57.34765625,88.22265625,1,0,0,response1disk,,7,14.48046875,-3.6015625,1,0,0,rectangle,14.48046875,-3.6015625,1,0,0,14.48046875,-3.6015625,1,0,0,1,86,246,94,1,,,,,,,,
,,,,,,,,,,,,,FF,,,,,,,,0.71804,,,,,,,,,,,,,,,,,,,,,,60fdcd21c7b9174239c6f73e,61036b7652747e33664b31ab,2021-07-29_22h02.54.952,Simcolourproject_2stim_asymm_v5,2020.2.10,MacIntel,60,61025ae37ef11b136ea224fe,,,,,,,,,1377,-47.296875,-89.140625,1,0,0,response5disk,,3,-7.6015625,0.15234375,1,0,0,rectangle,-7.6015625,0.15234375,1,0,0,-7.6015625,0.15234375,1,0,0,1,87,247,14,1,,,,,,,,
