key_resp.keys,key_resp.rt,key_resp_14.keys,key_resp_14.rt,key_resp_15.keys,key_resp_15.rt,key_resp_17.keys,key_resp_17.rt,key_resp_9.keys,key_resp_9.rt,key_resp_10.keys,key_resp_10.rt,practice_comparison,Ecc,mouse_5.x,mouse_5.y,mouse_5.leftButton,mouse_5.midButton,mouse_5.rightButton,mouse_5.clicked_name,pracsimilarity,response_time,mouse_10.x,mouse_10.y,mouse_10.leftButton,mouse_10.midButton,mouse_10.rightButton,mouse_10.clicked_name,mouse_7.x,mouse_7.y,mouse_7.leftButton,mouse_7.midButton,mouse_7.rightButton,mouse_6.x,mouse_6.y,mouse_6.leftButton,mouse_6.midButton,mouse_6.rightButton,duringprac.thisRepN,duringprac.thisTrialN,duringprac.thisN,duringprac.thisIndex,duringprac.ran,participant,session,date,expName,psychopyVersion,OS,frameRate,study_id,mouse_7.clicked_name,catchpracsimilarity,catch_response_time,catchnumberprac,catchtrialorderprac,mouse_6.clicked_name,key_resp_22.keys,key_resp_22.rt,realcomparison,mouse.x,mouse.y,mouse.leftButton,mouse.midButton,mouse.rightButton,mouse.clicked_name,Colour2,similarity,mouse_2.x,mouse_2.y,mouse_2.leftButton,mouse_2.midButton,mouse_2.rightButton,mouse_2.clicked_name,mouse_3.x,mouse_3.y,mouse_3.leftButton,mouse_3.midButton,mouse_3.rightButton,mouse_11.x,mouse_11.y,mouse_11.leftButton,mouse_11.midButton,mouse_11.rightButton,trials_2.thisRepN,trials_2.thisTrialN,trials_2.thisN,trials_2.thisIndex,trials_2.ran,Colour1,mouse_3.clicked_name,catchornah,catchsimilarity,catchnumber,catchtrialorder,catchRT,mouse_11.clicked_name
space,3.8687,space,8.9443,space,6.2699,space,3.9414,space,1.3338,space,3.0283,139,PF,38.6015625,-79.17578125,1,0,0,response3disk_5,4,3.9384,-0.95703125,2.02734375,1,0,0,rectangle_8,-0.95703125,2.02734375,1,0,0,-0.95703125,2.02734375,1,0,0,0,0,0,4,1,60fd6b02340bf3233276eba9,61036ef566dec8e5896fc4f5,2021-07-29_23h18.50.991,Simcolourproject_2stim_asymm_v5,2020.2.10,MacIntel,60,61025ae37ef11b136ea224fe,,,,,,,,,,,,,,,,,,,,,,,,,,,,,,,,,,,,,,,,,,,,,,
,,,,,,,,,,,,147,FF,82.40625,-35.421875,1,0,0,response3disk_5,5,2.4341,0.30859375,-7.4375,1,0,0,rectangle_8,-33.15234375,82.45703125,1,0,0,1.3125,-4.265625,1,0,0,0,1,1,5,1,60fd6b02340bf3233276eba9,61036ef566dec8e5896fc4f5,2021-07-29_23h18.50.991,Simcolourproject_2stim_asymm_v5,2020.2.10,MacIntel,60,61025ae37ef11b136ea224fe,response7disk_7,0,2.9244,0,"[2,5]",rectangle_4,,,,,,,,,,,,,,,,,,,,,,,,,,,,,,,,,,,,,,,,
,,,,,,,,,,,,120,PF,63.98046875,24.08203125,1,0,0,response1disk_5,6,1.7178,-3.1953125,-1.78125,1,0,0,rectangle_8,-3.1953125,-1.78125,1,0,0,-3.1953125,-1.78125,1,0,0,0,2,2,1,1,60fd6b02340bf3233276eba9,61036ef566dec8e5896fc4f5,2021-07-29_23h18.50.991,Simcolourproject_2stim_asymm_v5,2020.2.10,MacIntel,60,61025ae37ef11b136ea224fe,,,,,,,,,,,,,,,,,,,,,,,,,,,,,,,,,,,,,,,,,,,,,,
,,,,,,,,,,,,53,PF,51.1640625,-27.234375,1,0,0,response3disk_5,5,1.4183,-7.55078125,-0.97265625,1,0,0,rectangle_8,-7.55078125,-0.97265625,1,0,0,-7.55078125,-0.97265625,1,0,0,0,3,3,6,1,60fd6b02340bf3233276eba9,61036ef566dec8e5896fc4f5,2021-07-29_23h18.50.991,Simcolourproject_2stim_asymm_v5,2020.2.10,MacIntel,60,61025ae37ef11b136ea224fe,,,,,,,,,,,,,,,,,,,,,,,,,,,,,,,,,,,,,,,,,,,,,,
,,,,,,,,,,,,94,FF,46.94921875,-29.36328125,1,0,0,response3disk_5,5,1.051,11.765625,-7.64453125,1,0,0,rectangle_8,-15.8828125,90.48046875,1,0,0,0.54296875,-12.91015625,1,0,0,0,4,4,0,1,60fd6b02340bf3233276eba9,61036ef566dec8e5896fc4f5,2021-07-29_23h18.50.991,Simcolourproject_2stim_asymm_v5,2020.2.10,MacIntel,60,61025ae37ef11b136ea224fe,response7disk_7,0,1.868,0,"[2,5]",rectangle_4,,,,,,,,,,,,,,,,,,,,,,,,,,,,,,,,,,,,,,,,
,,,,,,,,,,,,94,PF,30.90625,-52.859375,1,0,0,response3disk_5,4,1.1349,9.1015625,-3.1171875,1,0,0,rectangle_8,9.1015625,-3.1171875,1,0,0,9.1015625,-3.1171875,1,0,0,0,5,5,2,1,60fd6b02340bf3233276eba9,61036ef566dec8e5896fc4f5,2021-07-29_23h18.50.991,Simcolourproject_2stim_asymm_v5,2020.2.10,MacIntel,60,61025ae37ef11b136ea224fe,,,,,,,,,,,,,,,,,,,,,,,,,,,,,,,,,,,,,,,,,,,,,,
,,,,,,,,,,,,69,FF,-33.03125,-71.75390625,1,0,0,response5disk_5,3,1.5354,18.6484375,-0.78515625,1,0,0,rectangle_8,18.6484375,-0.78515625,1,0,0,18.6484375,-0.78515625,1,0,0,0,6,6,3,1,60fd6b02340bf3233276eba9,61036ef566dec8e5896fc4f5,2021-07-29_23h18.50.991,Simcolourproject_2stim_asymm_v5,2020.2.10,MacIntel,60,61025ae37ef11b136ea224fe,,,,,,,,,,,,,,,,,,,,,,,,,,,,,,,,,,,,,,,,,,,,,,
,,,,,,,,,,,,,FF,,,,,,,,2.185,,,,,,,,,,,,,,,,,,,,,,60fd6b02340bf3233276eba9,61036ef566dec8e5896fc4f5,2021-07-29_23h18.50.991,Simcolourproject_2stim_asymm_v5,2020.2.10,MacIntel,60,61025ae37ef11b136ea224fe,,,,,,,space,3.1357,2491,28.6640625,-64.1640625,1,0,0,response3disk,,4,9.89453125,-6.984375,1,0,0,rectangle,9.89453125,-6.984375,1,0,0,9.89453125,-6.984375,1,0,0,0,0,0,147,1,,,,,,,,
,,,,,,,,,,,,,FF,,,,,,,,2.602,,,,,,,,,,,,,,,,,,,,,,60fd6b02340bf3233276eba9,61036ef566dec8e5896fc4f5,2021-07-29_23h18.50.991,Simcolourproject_2stim_asymm_v5,2020.2.10,MacIntel,60,61025ae37ef11b136ea224fe,,,,,,,,,2684,-47.8359375,-85.58203125,1,0,0,response5disk,,3,-9.69921875,12.265625,1,0,0,rectangle,-9.69921875,12.265625,1,0,0,-9.69921875,12.265625,1,0,0,0,1,1,6,1,,,,,,,,
,,,,,,,,,,,,,FF,,,,,,,,2.2191,,,,,,,,,,,,,,,,,,,,,,60fd6b02340bf3233276eba9,61036ef566dec8e5896fc4f5,2021-07-29_23h18.50.991,Simcolourproject_2stim_asymm_v5,2020.2.10,MacIntel,60,61025ae37ef11b136ea224fe,,,,,,,,,582,72.55078125,34.83203125,1,0,0,response1disk,,6,13.09765625,3.796875,1,0,0,rectangle,13.09765625,3.796875,1,0,0,13.09765625,3.796875,1,0,0,0,2,2,37,1,,,,,,,,
,,,,,,,,,,,,,FF,,,,,,,,2.1511,,,,,,,,,,,,,,,,,,,,,,60fd6b02340bf3233276eba9,61036ef566dec8e5896fc4f5,2021-07-29_23h18.50.991,Simcolourproject_2stim_asymm_v5,2020.2.10,MacIntel,60,61025ae37ef11b136ea224fe,,,,,,,,,2617,84.5234375,-25.19921875,1,0,0,response3disk,,5,6.3671875,0.9375,1,0,0,rectangle,6.3671875,0.9375,1,0,0,6.3671875,0.9375,1,0,0,0,3,3,98,1,,,,,,,,
,,,,,,,,,,,,,FF,,,,,,,,2.0539,,,,,,,,,,,,,,,,,,,,,,60fd6b02340bf3233276eba9,61036ef566dec8e5896fc4f5,2021-07-29_23h18.50.991,Simcolourproject_2stim_asymm_v5,2020.2.10,MacIntel,60,61025ae37ef11b136ea224fe,,,,,,,,,2949,21.94921875,-69.046875,1,0,0,response3disk,,4,6.5078125,-4.96875,1,0,0,rectangle,6.5078125,-4.96875,1,0,0,6.5078125,-4.96875,1,0,0,0,4,4,22,1,,,,,,,,
,,,,,,,,,,,,,FF,,,,,,,,2.0171,,,,,,,,,,,,,,,,,,,,,,60fd6b02340bf3233276eba9,61036ef566dec8e5896fc4f5,2021-07-29_23h18.50.991,Simcolourproject_2stim_asymm_v5,2020.2.10,MacIntel,60,61025ae37ef11b136ea224fe,,,,,,,,,3072,37.98046875,57.4609375,1,0,0,response1disk,,7,0.80859375,-7.453125,1,0,0,rectangle,0.80859375,-7.453125,1,0,0,0.80859375,-7.453125,1,0,0,0,5,5,100,1,,,,,,,,
,,,,,,,,,,,,,FF,,,,,,,,2.6836,,,,,,,,,,,,,,,,,,,,,,60fd6b02340bf3233276eba9,61036ef566dec8e5896fc4f5,2021-07-29_23h18.50.991,Simcolourproject_2stim_asymm_v5,2020.2.10,MacIntel,60,61025ae37ef11b136ea224fe,,,,,,,,,1251,67.16796875,-32.37890625,1,0,0,response3disk,,5,15.26953125,-15.45703125,1,0,0,rectangle,15.26953125,-15.45703125,1,0,0,15.26953125,-15.45703125,1,0,0,0,6,6,119,1,,,,,,,,
,,,,,,,,,,,,,FF,,,,,,,,1.6343,,,,,,,,,,,,,,,,,,,,,,60fd6b02340bf3233276eba9,61036ef566dec8e5896fc4f5,2021-07-29_23h18.50.991,Simcolourproject_2stim_asymm_v5,2020.2.10,MacIntel,60,61025ae37ef11b136ea224fe,,,,,,,,,4210,89.8671875,33.61328125,1,0,0,response1disk,,6,9.625,-6.3203125,1,0,0,rectangle,9.625,-6.3203125,1,0,0,9.625,-6.3203125,1,0,0,0,7,7,27,1,,,,,,,,
,,,,,,,,,,,,,FF,,,,,,,,1.3167,,,,,,,,,,,,,,,,,,,,,,60fd6b02340bf3233276eba9,61036ef566dec8e5896fc4f5,2021-07-29_23h18.50.991,Simcolourproject_2stim_asymm_v5,2020.2.10,MacIntel,60,61025ae37ef11b136ea224fe,,,,,,,,,3673,-68.7421875,-24.06640625,1,0,0,response5disk,,2,-13.36328125,-2.15625,1,0,0,rectangle,-13.36328125,-2.15625,1,0,0,-13.36328125,-2.15625,1,0,0,0,8,8,43,1,,,,,,,,
,,,,,,,,,,,,,FF,,,,,,,,0.9512,,,,,,,,,,,,,,,,,,,,,,60fd6b02340bf3233276eba9,61036ef566dec8e5896fc4f5,2021-07-29_23h18.50.991,Simcolourproject_2stim_asymm_v5,2020.2.10,MacIntel,60,61025ae37ef11b136ea224fe,,,,,,,,,2051,27.09765625,-55.484375,1,0,0,response3disk,,4,12.69921875,-3.17578125,1,0,0,rectangle,12.69921875,-3.17578125,1,0,0,12.69921875,-3.17578125,1,0,0,0,9,9,0,1,,,,,,,,
,,,,,,,,,,,,,FF,,,,,,,,1.4869,,,,,,,,,,,,,,,,,,,,,,60fd6b02340bf3233276eba9,61036ef566dec8e5896fc4f5,2021-07-29_23h18.50.991,Simcolourproject_2stim_asymm_v5,2020.2.10,MacIntel,60,61025ae37ef11b136ea224fe,,,,,,,,,2809,63.08984375,-49.28515625,1,0,0,response3disk,,5,10.02734375,-14.26171875,1,0,0,rectangle,10.02734375,-14.26171875,1,0,0,10.02734375,-14.26171875,1,0,0,0,10,10,92,1,,,,,,,,
,,,,,,,,,,,,,FF,,,,,,,,1.0001,,,,,,,,,,,,,,,,,,,,,,60fd6b02340bf3233276eba9,61036ef566dec8e5896fc4f5,2021-07-29_23h18.50.991,Simcolourproject_2stim_asymm_v5,2020.2.10,MacIntel,60,61025ae37ef11b136ea224fe,,,,,,,,,40,55.38671875,24.71875,1,0,0,response1disk,,6,-12.55859375,-7.921875,1,0,0,rectangle,-12.55859375,-7.921875,1,0,0,-12.55859375,-7.921875,1,0,0,0,11,11,79,1,,,,,,,,
,,,,,,,,,,,,,FF,,,,,,,,1.5338,,,,,,,,,,,,,,,,,,,,,,60fd6b02340bf3233276eba9,61036ef566dec8e5896fc4f5,2021-07-29_23h18.50.991,Simcolourproject_2stim_asymm_v5,2020.2.10,MacIntel,60,61025ae37ef11b136ea224fe,,,,,,,,,1875,61.28125,29.80078125,1,0,0,response1disk,,6,21.53125,7.6875,1,0,0,rectangle,21.53125,7.6875,1,0,0,21.53125,7.6875,1,0,0,0,12,12,36,1,,,,,,,,
,,,,,,,,,,,,,FF,,,,,,,,1.1335,,,,,,,,,,,,,,,,,,,,,,60fd6b02340bf3233276eba9,61036ef566dec8e5896fc4f5,2021-07-29_23h18.50.991,Simcolourproject_2stim_asymm_v5,2020.2.10,MacIntel,60,61025ae37ef11b136ea224fe,,,,,,,,,539,43.609375,28.484375,1,0,0,response1disk,,6,0.96875,9.26953125,1,0,0,rectangle,0.96875,9.26953125,1,0,0,0.96875,9.26953125,1,0,0,0,13,13,9,1,,,,,,,,
,,,,,,,,,,,,,FF,,,,,,,,3.4039,,,,,,,,,,,,,,,,,,,,,,60fd6b02340bf3233276eba9,61036ef566dec8e5896fc4f5,2021-07-29_23h18.50.991,Simcolourproject_2stim_asymm_v5,2020.2.10,MacIntel,60,61025ae37ef11b136ea224fe,,,,,,,,,2599,74.93359375,-26.109375,1,0,0,response3disk,,5,-1.140625,-11.79296875,1,0,0,rectangle,-1.140625,-11.79296875,1,0,0,-1.140625,-11.79296875,1,0,0,0,14,14,31,1,,,,,,,,
,,,,,,,,,,,,,FF,,,,,,,,3.1678,,,,,,,,,,,,,,,,,,,,,,60fd6b02340bf3233276eba9,61036ef566dec8e5896fc4f5,2021-07-29_23h18.50.991,Simcolourproject_2stim_asymm_v5,2020.2.10,MacIntel,60,61025ae37ef11b136ea224fe,,,,,,,,,3307,34.93359375,-85.5390625,1,0,0,response3disk,,4,6.76953125,3.23046875,1,0,0,rectangle,6.76953125,3.23046875,1,0,0,6.76953125,3.23046875,1,0,0,0,15,15,65,1,,,,,,,,
,,,,,,,,,,,,,FF,,,,,,,,1.583,,,,,,,,,,,,,,,,,,,,,,60fd6b02340bf3233276eba9,61036ef566dec8e5896fc4f5,2021-07-29_23h18.50.991,Simcolourproject_2stim_asymm_v5,2020.2.10,MacIntel,60,61025ae37ef11b136ea224fe,,,,,,,,,2849,28.90234375,-32.2109375,1,0,0,response3disk,,4,-1.58203125,-2.421875,1,0,0,rectangle,-1.58203125,-2.421875,1,0,0,-1.58203125,-2.421875,1,0,0,0,16,16,45,1,,,,,,,,
,,,,,,,,,,,,,FF,,,,,,,,1.634,,,,,,,,,,,,,,,,,,,,,,60fd6b02340bf3233276eba9,61036ef566dec8e5896fc4f5,2021-07-29_23h18.50.991,Simcolourproject_2stim_asymm_v5,2020.2.10,MacIntel,60,61025ae37ef11b136ea224fe,,,,,,,,,3119,-33.16796875,-66.5625,1,0,0,response5disk,,3,-10.8125,-5.89453125,1,0,0,rectangle,-10.8125,-5.89453125,1,0,0,-10.8125,-5.89453125,1,0,0,0,17,17,29,1,,,,,,,,
,,,,,,,,,,,,,FF,,,,,,,,1.5671,,,,,,,,,,,,,,,,,,,,,,60fd6b02340bf3233276eba9,61036ef566dec8e5896fc4f5,2021-07-29_23h18.50.991,Simcolourproject_2stim_asymm_v5,2020.2.10,MacIntel,60,61025ae37ef11b136ea224fe,,,,,,,,,3236,-48.70703125,-34.59375,1,0,0,response5disk,,2,-14.12890625,-10.625,1,0,0,rectangle,-14.12890625,-10.625,1,0,0,-14.12890625,-10.625,1,0,0,0,18,18,155,1,,,,,,,,
,,,,,,,,,,,,,FF,,,,,,,,1.0847,,,,,,,,,,,,,,,,,,,,,,60fd6b02340bf3233276eba9,61036ef566dec8e5896fc4f5,2021-07-29_23h18.50.991,Simcolourproject_2stim_asymm_v5,2020.2.10,MacIntel,60,61025ae37ef11b136ea224fe,,,,,,,,,4130,-32.82421875,-45.78515625,1,0,0,response5disk,,3,-10.1015625,-3.22265625,1,0,0,rectangle,-10.1015625,-3.22265625,1,0,0,-10.1015625,-3.22265625,1,0,0,0,19,19,17,1,,,,,,,,
,,,,,,,,,,,,,FF,,,,,,,,1.4001,,,,,,,,,,,,,,,,,,,,,,60fd6b02340bf3233276eba9,61036ef566dec8e5896fc4f5,2021-07-29_23h18.50.991,Simcolourproject_2stim_asymm_v5,2020.2.10,MacIntel,60,61025ae37ef11b136ea224fe,,,,,,,,,4191,46.7734375,-35.95703125,1,0,0,response3disk,,5,-4.86328125,-4.47265625,1,0,0,rectangle,-4.86328125,-4.47265625,1,0,0,-4.86328125,-4.47265625,1,0,0,0,20,20,153,1,,,,,,,,
,,,,,,,,,,,,,FF,,,,,,,,1.1179,,,,,,,,,,,,,,,,,,,,,,60fd6b02340bf3233276eba9,61036ef566dec8e5896fc4f5,2021-07-29_23h18.50.991,Simcolourproject_2stim_asymm_v5,2020.2.10,MacIntel,60,61025ae37ef11b136ea224fe,,,,,,,,,2013,58.109375,-43.5390625,1,0,0,response3disk,,5,-7.28515625,5.46875,1,0,0,rectangle,-7.28515625,5.46875,1,0,0,-7.28515625,5.46875,1,0,0,0,21,21,122,1,,,,,,,,
,,,,,,,,,,,,,FF,,,,,,,,1.0346,,,,,,,,,,,,,,,,,,,,,,60fd6b02340bf3233276eba9,61036ef566dec8e5896fc4f5,2021-07-29_23h18.50.991,Simcolourproject_2stim_asymm_v5,2020.2.10,MacIntel,60,61025ae37ef11b136ea224fe,,,,,,,,,2784,-51.29296875,-28.30859375,1,0,0,response5disk,,2,-9.00390625,9.62890625,1,0,0,rectangle,-9.00390625,9.62890625,1,0,0,-9.00390625,9.62890625,1,0,0,0,22,22,144,1,,,,,,,,
,,,,,,,,,,,,,FF,,,,,,,,1.1494,,,,,,,,,,,,,,,,,,,,,,60fd6b02340bf3233276eba9,61036ef566dec8e5896fc4f5,2021-07-29_23h18.50.991,Simcolourproject_2stim_asymm_v5,2020.2.10,MacIntel,60,61025ae37ef11b136ea224fe,,,,,,,,,2525,23.3203125,-60.31640625,1,0,0,response3disk,,4,-6.85546875,6.59765625,1,0,0,rectangle,-6.85546875,6.59765625,1,0,0,-6.85546875,6.59765625,1,0,0,0,23,23,7,1,,,,,,,,
,,,,,,,,,,,,,FF,,,,,,,,1.2178,,,,,,,,,,,,,,,,,,,,,,60fd6b02340bf3233276eba9,61036ef566dec8e5896fc4f5,2021-07-29_23h18.50.991,Simcolourproject_2stim_asymm_v5,2020.2.10,MacIntel,60,61025ae37ef11b136ea224fe,,,,,,,,,1929,24.484375,-73.10546875,1,0,0,response3disk,,4,4.6484375,-9.32421875,1,0,0,rectangle,4.6484375,-9.32421875,1,0,0,4.6484375,-9.32421875,1,0,0,0,24,24,13,1,,,,,,,,
,,,,,,,,,,,,,FF,,,,,,,,2.0521,,,,,,,,,,,,,,,,,,,,,,60fd6b02340bf3233276eba9,61036ef566dec8e5896fc4f5,2021-07-29_23h18.50.991,Simcolourproject_2stim_asymm_v5,2020.2.10,MacIntel,60,61025ae37ef11b136ea224fe,,,,,,,,,3335,51.16796875,-21.09375,1,0,0,response3disk,,5,16.72265625,-11.48828125,1,0,0,rectangle,16.72265625,-11.48828125,1,0,0,16.72265625,-11.48828125,1,0,0,0,25,25,151,1,,,,,,,,
,,,,,,,,,,,,,FF,,,,,,,,1.0167,,,,,,,,,,,,,,,,,,,,,,60fd6b02340bf3233276eba9,61036ef566dec8e5896fc4f5,2021-07-29_23h18.50.991,Simcolourproject_2stim_asymm_v5,2020.2.10,MacIntel,60,61025ae37ef11b136ea224fe,,,,,,,,,1463,-26.77734375,-58.08203125,1,0,0,response5disk,,3,-4.7265625,0.65234375,1,0,0,rectangle,-4.7265625,0.65234375,1,0,0,-4.7265625,0.65234375,1,0,0,0,26,26,61,1,,,,,,,,
,,,,,,,,,,,,,FF,,,,,,,,1.0657,,,,,,,,,,,,,,,,,,,,,,60fd6b02340bf3233276eba9,61036ef566dec8e5896fc4f5,2021-07-29_23h18.50.991,Simcolourproject_2stim_asymm_v5,2020.2.10,MacIntel,60,61025ae37ef11b136ea224fe,,,,,,,,,1701,83.44140625,33.62109375,1,0,0,response1disk,,6,-10.62109375,-0.07421875,1,0,0,rectangle,-39.4375,-60.5625,1,0,0,-1.33984375,-11.265625,1,0,0,0,27,27,21,1,,response5disk_3,TRUE,3,3,"[123,60,320,251,296,55,185,68,158,110,180,202,308,281,191,239,321,28,153,102]",2.2329,rectangle
,,,,,,,,,,,,,FF,,,,,,,,0.9338,,,,,,,,,,,,,,,,,,,,,,60fd6b02340bf3233276eba9,61036ef566dec8e5896fc4f5,2021-07-29_23h18.50.991,Simcolourproject_2stim_asymm_v5,2020.2.10,MacIntel,60,61025ae37ef11b136ea224fe,,,,,,,,,2079,30.05859375,-48.0078125,1,0,0,response3disk,,4,1.0625,-2.6796875,1,0,0,rectangle,1.0625,-2.6796875,1,0,0,1.0625,-2.6796875,1,0,0,0,28,28,81,1,,,,,,,,
,,,,,,,,,,,,,FF,,,,,,,,1.7187,,,,,,,,,,,,,,,,,,,,,,60fd6b02340bf3233276eba9,61036ef566dec8e5896fc4f5,2021-07-29_23h18.50.991,Simcolourproject_2stim_asymm_v5,2020.2.10,MacIntel,60,61025ae37ef11b136ea224fe,,,,,,,,,1978,-28.9609375,-65.6640625,1,0,0,response5disk,,3,-0.9296875,-4.1171875,1,0,0,rectangle,-0.9296875,-4.1171875,1,0,0,-0.9296875,-4.1171875,1,0,0,0,29,29,40,1,,,,,,,,
,,,,,,,,,,,,,FF,,,,,,,,1.2989,,,,,,,,,,,,,,,,,,,,,,60fd6b02340bf3233276eba9,61036ef566dec8e5896fc4f5,2021-07-29_23h18.50.991,Simcolourproject_2stim_asymm_v5,2020.2.10,MacIntel,60,61025ae37ef11b136ea224fe,,,,,,,,,3669,-89.36328125,-31.703125,1,0,0,response5disk,,2,-3.86328125,-3.64453125,1,0,0,rectangle,-3.86328125,-3.64453125,1,0,0,-3.86328125,-3.64453125,1,0,0,0,30,30,5,1,,,,,,,,
,,,,,,,,,,,,,FF,,,,,,,,1.0672,,,,,,,,,,,,,,,,,,,,,,60fd6b02340bf3233276eba9,61036ef566dec8e5896fc4f5,2021-07-29_23h18.50.991,Simcolourproject_2stim_asymm_v5,2020.2.10,MacIntel,60,61025ae37ef11b136ea224fe,,,,,,,,,4285,37.46875,74.3046875,1,0,0,response1disk,,7,16.78515625,8.30859375,1,0,0,rectangle,16.78515625,8.30859375,1,0,0,16.78515625,8.30859375,1,0,0,0,31,31,60,1,,,,,,,,
,,,,,,,,,,,,,FF,,,,,,,,1.1513,,,,,,,,,,,,,,,,,,,,,,60fd6b02340bf3233276eba9,61036ef566dec8e5896fc4f5,2021-07-29_23h18.50.991,Simcolourproject_2stim_asymm_v5,2020.2.10,MacIntel,60,61025ae37ef11b136ea224fe,,,,,,,,,1316,44.09765625,-60.9765625,1,0,0,response3disk,,4,5.28125,7.4140625,1,0,0,rectangle,5.28125,7.4140625,1,0,0,5.28125,7.4140625,1,0,0,0,32,32,78,1,,,,,,,,
,,,,,,,,,,,,,FF,,,,,,,,1.0159,,,,,,,,,,,,,,,,,,,,,,60fd6b02340bf3233276eba9,61036ef566dec8e5896fc4f5,2021-07-29_23h18.50.991,Simcolourproject_2stim_asymm_v5,2020.2.10,MacIntel,60,61025ae37ef11b136ea224fe,,,,,,,,,4050,-93.2890625,-38.77734375,1,0,0,response5disk,,2,3.16015625,-6.90625,1,0,0,rectangle,3.16015625,-6.90625,1,0,0,3.16015625,-6.90625,1,0,0,0,33,33,56,1,,,,,,,,
,,,,,,,,,,,,,FF,,,,,,,,0.9498,,,,,,,,,,,,,,,,,,,,,,60fd6b02340bf3233276eba9,61036ef566dec8e5896fc4f5,2021-07-29_23h18.50.991,Simcolourproject_2stim_asymm_v5,2020.2.10,MacIntel,60,61025ae37ef11b136ea224fe,,,,,,,,,1389,18.11328125,-35.06640625,1,0,0,response3disk,,4,4.95703125,0.03125,1,0,0,rectangle,4.95703125,0.03125,1,0,0,4.95703125,0.03125,1,0,0,0,34,34,145,1,,,,,,,,
,,,,,,,,,,,,,FF,,,,,,,,1.7677,,,,,,,,,,,,,,,,,,,,,,60fd6b02340bf3233276eba9,61036ef566dec8e5896fc4f5,2021-07-29_23h18.50.991,Simcolourproject_2stim_asymm_v5,2020.2.10,MacIntel,60,61025ae37ef11b136ea224fe,,,,,,,,,4299,69.2109375,-30.4375,1,0,0,response3disk,,5,1.91796875,-7.0625,1,0,0,rectangle,1.91796875,-7.0625,1,0,0,1.91796875,-7.0625,1,0,0,0,35,35,38,1,,,,,,,,
,,,,,,,,,,,,,FF,,,,,,,,4.9678,,,,,,,,,,,,,,,,,,,,,,60fd6b02340bf3233276eba9,61036ef566dec8e5896fc4f5,2021-07-29_23h18.50.991,Simcolourproject_2stim_asymm_v5,2020.2.10,MacIntel,60,61025ae37ef11b136ea224fe,,,,,,,,,762,70.015625,-26.0859375,1,0,0,response3disk,,5,-8.87890625,-3.7578125,1,0,0,rectangle,-8.87890625,-3.7578125,1,0,0,-8.87890625,-3.7578125,1,0,0,0,36,36,131,1,,,,,,,,
,,,,,,,,,,,,,FF,,,,,,,,3.5183,,,,,,,,,,,,,,,,,,,,,,60fd6b02340bf3233276eba9,61036ef566dec8e5896fc4f5,2021-07-29_23h18.50.991,Simcolourproject_2stim_asymm_v5,2020.2.10,MacIntel,60,61025ae37ef11b136ea224fe,,,,,,,,,3429,-78.61328125,-31.9140625,1,0,0,response5disk,,2,-13.4765625,-10.921875,1,0,0,rectangle,-13.4765625,-10.921875,1,0,0,-13.4765625,-10.921875,1,0,0,0,37,37,19,1,,,,,,,,
,,,,,,,,,,,,,FF,,,,,,,,0.8008,,,,,,,,,,,,,,,,,,,,,,60fd6b02340bf3233276eba9,61036ef566dec8e5896fc4f5,2021-07-29_23h18.50.991,Simcolourproject_2stim_asymm_v5,2020.2.10,MacIntel,60,61025ae37ef11b136ea224fe,,,,,,,,,2303,-72.33984375,-36.875,1,0,0,response5disk,,2,-3.8984375,-8.4140625,1,0,0,rectangle,-3.8984375,-8.4140625,1,0,0,-3.8984375,-8.4140625,1,0,0,0,38,38,156,1,,,,,,,,
,,,,,,,,,,,,,FF,,,,,,,,0.8833,,,,,,,,,,,,,,,,,,,,,,60fd6b02340bf3233276eba9,61036ef566dec8e5896fc4f5,2021-07-29_23h18.50.991,Simcolourproject_2stim_asymm_v5,2020.2.10,MacIntel,60,61025ae37ef11b136ea224fe,,,,,,,,,4021,-73.484375,-32.1328125,1,0,0,response5disk,,2,-6.17578125,-9.59765625,1,0,0,rectangle,-6.17578125,-9.59765625,1,0,0,-6.17578125,-9.59765625,1,0,0,0,39,39,46,1,,,,,,,,
,,,,,,,,,,,,,FF,,,,,,,,1.7834,,,,,,,,,,,,,,,,,,,,,,60fd6b02340bf3233276eba9,61036ef566dec8e5896fc4f5,2021-07-29_23h18.50.991,Simcolourproject_2stim_asymm_v5,2020.2.10,MacIntel,60,61025ae37ef11b136ea224fe,,,,,,,,,1496,74.171875,28,1,0,0,response1disk,,6,-6.37109375,-12.0625,1,0,0,rectangle,-6.37109375,-12.0625,1,0,0,-6.37109375,-12.0625,1,0,0,0,40,40,149,1,,,,,,,,
,,,,,,,,,,,,,FF,,,,,,,,1.2675,,,,,,,,,,,,,,,,,,,,,,60fd6b02340bf3233276eba9,61036ef566dec8e5896fc4f5,2021-07-29_23h18.50.991,Simcolourproject_2stim_asymm_v5,2020.2.10,MacIntel,60,61025ae37ef11b136ea224fe,,,,,,,,,1124,82.41796875,27.93359375,1,0,0,response1disk,,6,9.1171875,1.9140625,1,0,0,rectangle,9.1171875,1.9140625,1,0,0,9.1171875,1.9140625,1,0,0,0,41,41,95,1,,,,,,,,
,,,,,,,,,,,,,FF,,,,,,,,0.8323,,,,,,,,,,,,,,,,,,,,,,60fd6b02340bf3233276eba9,61036ef566dec8e5896fc4f5,2021-07-29_23h18.50.991,Simcolourproject_2stim_asymm_v5,2020.2.10,MacIntel,60,61025ae37ef11b136ea224fe,,,,,,,,,2955,-41.875,-74.66796875,1,0,0,response5disk,,3,9.66796875,-0.7265625,1,0,0,rectangle,9.66796875,-0.7265625,1,0,0,9.66796875,-0.7265625,1,0,0,0,42,42,84,1,,,,,,,,
,,,,,,,,,,,,,FF,,,,,,,,1.1516,,,,,,,,,,,,,,,,,,,,,,60fd6b02340bf3233276eba9,61036ef566dec8e5896fc4f5,2021-07-29_23h18.50.991,Simcolourproject_2stim_asymm_v5,2020.2.10,MacIntel,60,61025ae37ef11b136ea224fe,,,,,,,,,344,31.73046875,-49.765625,1,0,0,response3disk,,4,18.41015625,-9.51171875,1,0,0,rectangle,18.41015625,-9.51171875,1,0,0,18.41015625,-9.51171875,1,0,0,0,43,43,72,1,,,,,,,,
,,,,,,,,,,,,,FF,,,,,,,,1.2678,,,,,,,,,,,,,,,,,,,,,,60fd6b02340bf3233276eba9,61036ef566dec8e5896fc4f5,2021-07-29_23h18.50.991,Simcolourproject_2stim_asymm_v5,2020.2.10,MacIntel,60,61025ae37ef11b136ea224fe,,,,,,,,,578,60.94921875,30.87890625,1,0,0,response1disk,,6,7.515625,-0.08984375,1,0,0,rectangle,7.515625,-0.08984375,1,0,0,7.515625,-0.08984375,1,0,0,0,44,44,140,1,,,,,,,,
,,,,,,,,,,,,,FF,,,,,,,,1.0686,,,,,,,,,,,,,,,,,,,,,,60fd6b02340bf3233276eba9,61036ef566dec8e5896fc4f5,2021-07-29_23h18.50.991,Simcolourproject_2stim_asymm_v5,2020.2.10,MacIntel,60,61025ae37ef11b136ea224fe,,,,,,,,,2301,-38.9921875,-55.49609375,1,0,0,response5disk,,3,-13.703125,-5.3671875,1,0,0,rectangle,-13.703125,-5.3671875,1,0,0,-13.703125,-5.3671875,1,0,0,0,45,45,118,1,,,,,,,,
,,,,,,,,,,,,,FF,,,,,,,,0.9843,,,,,,,,,,,,,,,,,,,,,,60fd6b02340bf3233276eba9,61036ef566dec8e5896fc4f5,2021-07-29_23h18.50.991,Simcolourproject_2stim_asymm_v5,2020.2.10,MacIntel,60,61025ae37ef11b136ea224fe,,,,,,,,,1645,83.77734375,35.94921875,1,0,0,response1disk,,6,6.6875,-11.95703125,1,0,0,rectangle,6.6875,-11.95703125,1,0,0,6.6875,-11.95703125,1,0,0,0,46,46,34,1,,,,,,,,
,,,,,,,,,,,,,FF,,,,,,,,0.9329,,,,,,,,,,,,,,,,,,,,,,60fd6b02340bf3233276eba9,61036ef566dec8e5896fc4f5,2021-07-29_23h18.50.991,Simcolourproject_2stim_asymm_v5,2020.2.10,MacIntel,60,61025ae37ef11b136ea224fe,,,,,,,,,555,-36.2265625,-50.609375,1,0,0,response5disk,,3,-11.03515625,-7.96484375,1,0,0,rectangle,-11.03515625,-7.96484375,1,0,0,-11.03515625,-7.96484375,1,0,0,0,47,47,134,1,,,,,,,,
,,,,,,,,,,,,,FF,,,,,,,,1.5674,,,,,,,,,,,,,,,,,,,,,,60fd6b02340bf3233276eba9,61036ef566dec8e5896fc4f5,2021-07-29_23h18.50.991,Simcolourproject_2stim_asymm_v5,2020.2.10,MacIntel,60,61025ae37ef11b136ea224fe,,,,,,,,,2692,75.67578125,40.71875,1,0,0,response1disk,,6,4.546875,7.9140625,1,0,0,rectangle,4.546875,7.9140625,1,0,0,4.546875,7.9140625,1,0,0,0,48,48,80,1,,,,,,,,
,,,,,,,,,,,,,FF,,,,,,,,1.2163,,,,,,,,,,,,,,,,,,,,,,60fd6b02340bf3233276eba9,61036ef566dec8e5896fc4f5,2021-07-29_23h18.50.991,Simcolourproject_2stim_asymm_v5,2020.2.10,MacIntel,60,61025ae37ef11b136ea224fe,,,,,,,,,3625,-36.81640625,-47.203125,1,0,0,response5disk,,3,1.515625,-7.2109375,1,0,0,rectangle,1.515625,-7.2109375,1,0,0,1.515625,-7.2109375,1,0,0,0,49,49,109,1,,,,,,,,
,,,,,,,,,,,,,FF,,,,,,,,0.8506,,,,,,,,,,,,,,,,,,,,,,60fd6b02340bf3233276eba9,61036ef566dec8e5896fc4f5,2021-07-29_23h18.50.991,Simcolourproject_2stim_asymm_v5,2020.2.10,MacIntel,60,61025ae37ef11b136ea224fe,,,,,,,,,168,-17.58203125,-39.7421875,1,0,0,response5disk,,3,2.6640625,-3.23046875,1,0,0,rectangle,2.6640625,-3.23046875,1,0,0,2.6640625,-3.23046875,1,0,0,0,50,50,3,1,,,,,,,,
,,,,,,,,,,,,,FF,,,,,,,,0.8337,,,,,,,,,,,,,,,,,,,,,,60fd6b02340bf3233276eba9,61036ef566dec8e5896fc4f5,2021-07-29_23h18.50.991,Simcolourproject_2stim_asymm_v5,2020.2.10,MacIntel,60,61025ae37ef11b136ea224fe,,,,,,,,,1391,33.5078125,-41.73828125,1,0,0,response3disk,,4,14.390625,-8.47265625,1,0,0,rectangle,14.390625,-8.47265625,1,0,0,14.390625,-8.47265625,1,0,0,0,51,51,24,1,,,,,,,,
,,,,,,,,,,,,,FF,,,,,,,,0.717,,,,,,,,,,,,,,,,,,,,,,60fd6b02340bf3233276eba9,61036ef566dec8e5896fc4f5,2021-07-29_23h18.50.991,Simcolourproject_2stim_asymm_v5,2020.2.10,MacIntel,60,61025ae37ef11b136ea224fe,,,,,,,,,4096,-46.76171875,-76.1953125,1,0,0,response5disk,,3,1.296875,5.3828125,1,0,0,rectangle,1.296875,5.3828125,1,0,0,1.296875,5.3828125,1,0,0,0,52,52,123,1,,,,,,,,
,,,,,,,,,,,,,FF,,,,,,,,1.1179,,,,,,,,,,,,,,,,,,,,,,60fd6b02340bf3233276eba9,61036ef566dec8e5896fc4f5,2021-07-29_23h18.50.991,Simcolourproject_2stim_asymm_v5,2020.2.10,MacIntel,60,61025ae37ef11b136ea224fe,,,,,,,,,2332,70.98046875,-49.9765625,1,0,0,response3disk,,5,2.05078125,-4.13671875,1,0,0,rectangle,2.05078125,-4.13671875,1,0,0,2.05078125,-4.13671875,1,0,0,0,53,53,75,1,,,,,,,,
,,,,,,,,,,,,,FF,,,,,,,,0.8016,,,,,,,,,,,,,,,,,,,,,,60fd6b02340bf3233276eba9,61036ef566dec8e5896fc4f5,2021-07-29_23h18.50.991,Simcolourproject_2stim_asymm_v5,2020.2.10,MacIntel,60,61025ae37ef11b136ea224fe,,,,,,,,,1634,37.3046875,53.0078125,1,0,0,response1disk,,7,14.34765625,-1.6953125,1,0,0,rectangle,-32.59375,65.70703125,1,0,0,-7.390625,9.80859375,1,0,0,0,54,54,108,1,,response7disk_3,TRUE,0,0,"[123,60,320,251,296,55,185,68,158,110,180,202,308,281,191,239,321,28,153,102]",1.1418,rectangle
,,,,,,,,,,,,,FF,,,,,,,,1.2347,,,,,,,,,,,,,,,,,,,,,,60fd6b02340bf3233276eba9,61036ef566dec8e5896fc4f5,2021-07-29_23h18.50.991,Simcolourproject_2stim_asymm_v5,2020.2.10,MacIntel,60,61025ae37ef11b136ea224fe,,,,,,,,,2613,-26.05859375,-36.31640625,1,0,0,response5disk,,3,-1.91015625,-1.51953125,1,0,0,rectangle,-1.91015625,-1.51953125,1,0,0,-1.91015625,-1.51953125,1,0,0,0,55,55,15,1,,,,,,,,
,,,,,,,,,,,,,FF,,,,,,,,0.7326,,,,,,,,,,,,,,,,,,,,,,60fd6b02340bf3233276eba9,61036ef566dec8e5896fc4f5,2021-07-29_23h18.50.991,Simcolourproject_2stim_asymm_v5,2020.2.10,MacIntel,60,61025ae37ef11b136ea224fe,,,,,,,,,2343,53.5390625,-19.00390625,1,0,0,response3disk,,5,19.07421875,-0.4140625,1,0,0,rectangle,19.07421875,-0.4140625,1,0,0,19.07421875,-0.4140625,1,0,0,0,56,56,97,1,,,,,,,,
,,,,,,,,,,,,,FF,,,,,,,,1.4332,,,,,,,,,,,,,,,,,,,,,,60fd6b02340bf3233276eba9,61036ef566dec8e5896fc4f5,2021-07-29_23h18.50.991,Simcolourproject_2stim_asymm_v5,2020.2.10,MacIntel,60,61025ae37ef11b136ea224fe,,,,,,,,,3104,-55.27734375,-76.56640625,1,0,0,response5disk,,3,16.5703125,-2.76171875,1,0,0,rectangle,16.5703125,-2.76171875,1,0,0,16.5703125,-2.76171875,1,0,0,0,57,57,41,1,,,,,,,,
,,,,,,,,,,,,,FF,,,,,,,,0.6835,,,,,,,,,,,,,,,,,,,,,,60fd6b02340bf3233276eba9,61036ef566dec8e5896fc4f5,2021-07-29_23h18.50.991,Simcolourproject_2stim_asymm_v5,2020.2.10,MacIntel,60,61025ae37ef11b136ea224fe,,,,,,,,,2345,53.14453125,-21.28125,1,0,0,response3disk,,5,5.29296875,-3.69140625,1,0,0,rectangle,5.29296875,-3.69140625,1,0,0,5.29296875,-3.69140625,1,0,0,0,58,58,138,1,,,,,,,,
,,,,,,,,,,,,,FF,,,,,,,,1.1017,,,,,,,,,,,,,,,,,,,,,,60fd6b02340bf3233276eba9,61036ef566dec8e5896fc4f5,2021-07-29_23h18.50.991,Simcolourproject_2stim_asymm_v5,2020.2.10,MacIntel,60,61025ae37ef11b136ea224fe,,,,,,,,,4360,-76.84375,-39.22265625,1,0,0,response5disk,,2,-9.9765625,-8.5234375,1,0,0,rectangle,66.71484375,39.703125,1,0,0,-6.2265625,2.84375,1,0,0,0,59,59,137,1,,response1disk_3,TRUE,6,6,"[123,60,320,251,296,55,185,68,158,110,180,202,308,281,191,239,321,28,153,102]",1.4169,rectangle
,,,,,,,,,,,,,FF,,,,,,,,1.7512,,,,,,,,,,,,,,,,,,,,,,60fd6b02340bf3233276eba9,61036ef566dec8e5896fc4f5,2021-07-29_23h18.50.991,Simcolourproject_2stim_asymm_v5,2020.2.10,MacIntel,60,61025ae37ef11b136ea224fe,,,,,,,,,4075,21.859375,-49.8515625,1,0,0,response3disk,,4,18.01171875,12.234375,1,0,0,rectangle,18.01171875,12.234375,1,0,0,18.01171875,12.234375,1,0,0,0,60,60,23,1,,,,,,,,
,,,,,,,,,,,,,FF,,,,,,,,0.9019,,,,,,,,,,,,,,,,,,,,,,60fd6b02340bf3233276eba9,61036ef566dec8e5896fc4f5,2021-07-29_23h18.50.991,Simcolourproject_2stim_asymm_v5,2020.2.10,MacIntel,60,61025ae37ef11b136ea224fe,,,,,,,,,1856,54.9375,27.109375,1,0,0,response1disk,,6,-4.453125,9.8828125,1,0,0,rectangle,-4.453125,9.8828125,1,0,0,-4.453125,9.8828125,1,0,0,0,61,61,124,1,,,,,,,,
,,,,,,,,,,,,,FF,,,,,,,,0.8187,,,,,,,,,,,,,,,,,,,,,,60fd6b02340bf3233276eba9,61036ef566dec8e5896fc4f5,2021-07-29_23h18.50.991,Simcolourproject_2stim_asymm_v5,2020.2.10,MacIntel,60,61025ae37ef11b136ea224fe,,,,,,,,,1822,-57.1328125,-25.8984375,1,0,0,response5disk,,2,-0.484375,-8.23828125,1,0,0,rectangle,-0.484375,-8.23828125,1,0,0,-0.484375,-8.23828125,1,0,0,0,62,62,57,1,,,,,,,,
,,,,,,,,,,,,,FF,,,,,,,,0.6844,,,,,,,,,,,,,,,,,,,,,,60fd6b02340bf3233276eba9,61036ef566dec8e5896fc4f5,2021-07-29_23h18.50.991,Simcolourproject_2stim_asymm_v5,2020.2.10,MacIntel,60,61025ae37ef11b136ea224fe,,,,,,,,,4208,-63.12109375,-38.54296875,1,0,0,response5disk,,2,2.1171875,-6.19921875,1,0,0,rectangle,2.1171875,-6.19921875,1,0,0,2.1171875,-6.19921875,1,0,0,0,63,63,130,1,,,,,,,,
,,,,,,,,,,,,,FF,,,,,,,,1.8004,,,,,,,,,,,,,,,,,,,,,,60fd6b02340bf3233276eba9,61036ef566dec8e5896fc4f5,2021-07-29_23h18.50.991,Simcolourproject_2stim_asymm_v5,2020.2.10,MacIntel,60,61025ae37ef11b136ea224fe,,,,,,,,,1212,-85.328125,-39.1328125,1,0,0,response5disk,,2,-13.34375,-12.203125,1,0,0,rectangle,-13.34375,-12.203125,1,0,0,-13.34375,-12.203125,1,0,0,0,64,64,64,1,,,,,,,,
,,,,,,,,,,,,,FF,,,,,,,,0.7662,,,,,,,,,,,,,,,,,,,,,,60fd6b02340bf3233276eba9,61036ef566dec8e5896fc4f5,2021-07-29_23h18.50.991,Simcolourproject_2stim_asymm_v5,2020.2.10,MacIntel,60,61025ae37ef11b136ea224fe,,,,,,,,,2285,28.3203125,-49.9140625,1,0,0,response3disk,,4,3.24609375,-12.5234375,1,0,0,rectangle,3.24609375,-12.5234375,1,0,0,3.24609375,-12.5234375,1,0,0,0,65,65,26,1,,,,,,,,
,,,,,,,,,,,,,FF,,,,,,,,0.886,,,,,,,,,,,,,,,,,,,,,,60fd6b02340bf3233276eba9,61036ef566dec8e5896fc4f5,2021-07-29_23h18.50.991,Simcolourproject_2stim_asymm_v5,2020.2.10,MacIntel,60,61025ae37ef11b136ea224fe,,,,,,,,,1967,24.83203125,-36.33203125,1,0,0,response3disk,,4,11.69921875,-12.28125,1,0,0,rectangle,11.69921875,-12.28125,1,0,0,11.69921875,-12.28125,1,0,0,0,66,66,133,1,,,,,,,,
,,,,,,,,,,,,,FF,,,,,,,,0.9371,,,,,,,,,,,,,,,,,,,,,,60fd6b02340bf3233276eba9,61036ef566dec8e5896fc4f5,2021-07-29_23h18.50.991,Simcolourproject_2stim_asymm_v5,2020.2.10,MacIntel,60,61025ae37ef11b136ea224fe,,,,,,,,,3183,49.94921875,30.3828125,1,0,0,response1disk,,6,-1.578125,-3.03515625,1,0,0,rectangle,-42.63671875,82.5625,1,0,0,-8.08984375,9.59375,1,0,0,0,67,67,14,1,,response7disk_3,TRUE,0,0,"[123,60,320,251,296,55,185,68,158,110,180,202,308,281,191,239,321,28,153,102]",1.2002,rectangle
,,,,,,,,,,,,,FF,,,,,,,,1.5502,,,,,,,,,,,,,,,,,,,,,,60fd6b02340bf3233276eba9,61036ef566dec8e5896fc4f5,2021-07-29_23h18.50.991,Simcolourproject_2stim_asymm_v5,2020.2.10,MacIntel,60,61025ae37ef11b136ea224fe,,,,,,,,,2066,65.36328125,26.6328125,1,0,0,response1disk,,6,16.27734375,12.50390625,1,0,0,rectangle,16.27734375,12.50390625,1,0,0,16.27734375,12.50390625,1,0,0,0,68,68,77,1,,,,,,,,
,,,,,,,,,,,,,FF,,,,,,,,1.0204,,,,,,,,,,,,,,,,,,,,,,60fd6b02340bf3233276eba9,61036ef566dec8e5896fc4f5,2021-07-29_23h18.50.991,Simcolourproject_2stim_asymm_v5,2020.2.10,MacIntel,60,61025ae37ef11b136ea224fe,,,,,,,,,746,24.62890625,-75.52734375,1,0,0,response3disk,,4,6.33203125,-4.79296875,1,0,0,rectangle,6.33203125,-4.79296875,1,0,0,6.33203125,-4.79296875,1,0,0,0,69,69,28,1,,,,,,,,
,,,,,,,,,,,,,FF,,,,,,,,2.2344,,,,,,,,,,,,,,,,,,,,,,60fd6b02340bf3233276eba9,61036ef566dec8e5896fc4f5,2021-07-29_23h18.50.991,Simcolourproject_2stim_asymm_v5,2020.2.10,MacIntel,60,61025ae37ef11b136ea224fe,,,,,,,,,1129,52.7890625,20.09375,1,0,0,response1disk,,6,15.8828125,7.33203125,1,0,0,rectangle,15.8828125,7.33203125,1,0,0,15.8828125,7.33203125,1,0,0,0,70,70,59,1,,,,,,,,
,,,,,,,,,,,,,FF,,,,,,,,0.8668,,,,,,,,,,,,,,,,,,,,,,60fd6b02340bf3233276eba9,61036ef566dec8e5896fc4f5,2021-07-29_23h18.50.991,Simcolourproject_2stim_asymm_v5,2020.2.10,MacIntel,60,61025ae37ef11b136ea224fe,,,,,,,,,3479,-22.6328125,-60.11328125,1,0,0,response5disk,,3,-7.046875,-10.7890625,1,0,0,rectangle,-7.046875,-10.7890625,1,0,0,-7.046875,-10.7890625,1,0,0,0,71,71,90,1,,,,,,,,
,,,,,,,,,,,,,FF,,,,,,,,0.7986,,,,,,,,,,,,,,,,,,,,,,60fd6b02340bf3233276eba9,61036ef566dec8e5896fc4f5,2021-07-29_23h18.50.991,Simcolourproject_2stim_asymm_v5,2020.2.10,MacIntel,60,61025ae37ef11b136ea224fe,,,,,,,,,34,76.71875,-25.68359375,1,0,0,response3disk,,5,15.4375,-15.71484375,1,0,0,rectangle,15.4375,-15.71484375,1,0,0,15.4375,-15.71484375,1,0,0,0,72,72,53,1,,,,,,,,
,,,,,,,,,,,,,FF,,,,,,,,0.7971,,,,,,,,,,,,,,,,,,,,,,60fd6b02340bf3233276eba9,61036ef566dec8e5896fc4f5,2021-07-29_23h18.50.991,Simcolourproject_2stim_asymm_v5,2020.2.10,MacIntel,60,61025ae37ef11b136ea224fe,,,,,,,,,3718,30.9140625,-40.4296875,1,0,0,response3disk,,4,2.15234375,9.90234375,1,0,0,rectangle,2.15234375,9.90234375,1,0,0,2.15234375,9.90234375,1,0,0,0,73,73,142,1,,,,,,,,
,,,,,,,,,,,,,FF,,,,,,,,0.8026,,,,,,,,,,,,,,,,,,,,,,60fd6b02340bf3233276eba9,61036ef566dec8e5896fc4f5,2021-07-29_23h18.50.991,Simcolourproject_2stim_asymm_v5,2020.2.10,MacIntel,60,61025ae37ef11b136ea224fe,,,,,,,,,669,58.4453125,30.0078125,1,0,0,response1disk,,6,-14.73828125,9.95703125,1,0,0,rectangle,-14.73828125,9.95703125,1,0,0,-14.73828125,9.95703125,1,0,0,0,74,74,99,1,,,,,,,,
,,,,,,,,,,,,,FF,,,,,,,,0.7825,,,,,,,,,,,,,,,,,,,,,,60fd6b02340bf3233276eba9,61036ef566dec8e5896fc4f5,2021-07-29_23h18.50.991,Simcolourproject_2stim_asymm_v5,2020.2.10,MacIntel,60,61025ae37ef11b136ea224fe,,,,,,,,,4348,-29.4609375,-73.12890625,1,0,0,response5disk,,3,-7.06640625,-0.421875,1,0,0,rectangle,-7.06640625,-0.421875,1,0,0,-7.06640625,-0.421875,1,0,0,0,75,75,32,1,,,,,,,,
,,,,,,,,,,,,,FF,,,,,,,,1.5005,,,,,,,,,,,,,,,,,,,,,,60fd6b02340bf3233276eba9,61036ef566dec8e5896fc4f5,2021-07-29_23h18.50.991,Simcolourproject_2stim_asymm_v5,2020.2.10,MacIntel,60,61025ae37ef11b136ea224fe,,,,,,,,,2255,58.9140625,24.6796875,1,0,0,response1disk,,6,14.65625,2.34375,1,0,0,rectangle,14.65625,2.34375,1,0,0,14.65625,2.34375,1,0,0,0,76,76,107,1,,,,,,,,
,,,,,,,,,,,,,FF,,,,,,,,1.1987,,,,,,,,,,,,,,,,,,,,,,60fd6b02340bf3233276eba9,61036ef566dec8e5896fc4f5,2021-07-29_23h18.50.991,Simcolourproject_2stim_asymm_v5,2020.2.10,MacIntel,60,61025ae37ef11b136ea224fe,,,,,,,,,1437,60.15625,-37.78515625,1,0,0,response3disk,,5,7.5703125,1.0859375,1,0,0,rectangle,7.5703125,1.0859375,1,0,0,7.5703125,1.0859375,1,0,0,0,77,77,50,1,,,,,,,,
,,,,,,,,,,,,,FF,,,,,,,,1.3128,,,,,,,,,,,,,,,,,,,,,,60fd6b02340bf3233276eba9,61036ef566dec8e5896fc4f5,2021-07-29_23h18.50.991,Simcolourproject_2stim_asymm_v5,2020.2.10,MacIntel,60,61025ae37ef11b136ea224fe,,,,,,,,,3160,33.01953125,-45.62890625,1,0,0,response3disk,,4,17.15234375,-5.63671875,1,0,0,rectangle,17.15234375,-5.63671875,1,0,0,17.15234375,-5.63671875,1,0,0,0,78,78,126,1,,,,,,,,
,,,,,,,,,,,,,FF,,,,,,,,1.0325,,,,,,,,,,,,,,,,,,,,,,60fd6b02340bf3233276eba9,61036ef566dec8e5896fc4f5,2021-07-29_23h18.50.991,Simcolourproject_2stim_asymm_v5,2020.2.10,MacIntel,60,61025ae37ef11b136ea224fe,,,,,,,,,1530,-36.87109375,-74.421875,1,0,0,response5disk,,3,-7.44140625,-15.66015625,1,0,0,rectangle,-7.44140625,-15.66015625,1,0,0,-7.44140625,-15.66015625,1,0,0,0,79,79,111,1,,,,,,,,
,,,,,,,,,,,,,FF,,,,,,,,1.2174,,,,,,,,,,,,,,,,,,,,,,60fd6b02340bf3233276eba9,61036ef566dec8e5896fc4f5,2021-07-29_23h18.50.991,Simcolourproject_2stim_asymm_v5,2020.2.10,MacIntel,60,61025ae37ef11b136ea224fe,,,,,,,,,2472,29.60546875,-65.59375,1,0,0,response3disk,,4,17.9296875,-2.32421875,1,0,0,rectangle,17.9296875,-2.32421875,1,0,0,17.9296875,-2.32421875,1,0,0,0,80,80,101,1,,,,,,,,
,,,,,,,,,,,,,FF,,,,,,,,0.8345,,,,,,,,,,,,,,,,,,,,,,60fd6b02340bf3233276eba9,61036ef566dec8e5896fc4f5,2021-07-29_23h18.50.991,Simcolourproject_2stim_asymm_v5,2020.2.10,MacIntel,60,61025ae37ef11b136ea224fe,,,,,,,,,1250,49.37109375,31.80078125,1,0,0,response1disk,,6,12.9140625,0.1640625,1,0,0,rectangle,12.9140625,0.1640625,1,0,0,12.9140625,0.1640625,1,0,0,0,81,81,47,1,,,,,,,,
,,,,,,,,,,,,,FF,,,,,,,,0.9166,,,,,,,,,,,,,,,,,,,,,,60fd6b02340bf3233276eba9,61036ef566dec8e5896fc4f5,2021-07-29_23h18.50.991,Simcolourproject_2stim_asymm_v5,2020.2.10,MacIntel,60,61025ae37ef11b136ea224fe,,,,,,,,,174,-52.80859375,-71.12109375,1,0,0,response5disk,,3,-3.00390625,-0.82421875,1,0,0,rectangle,-3.00390625,-0.82421875,1,0,0,-3.00390625,-0.82421875,1,0,0,0,82,82,103,1,,,,,,,,
,,,,,,,,,,,,,FF,,,,,,,,0.5835,,,,,,,,,,,,,,,,,,,,,,60fd6b02340bf3233276eba9,61036ef566dec8e5896fc4f5,2021-07-29_23h18.50.991,Simcolourproject_2stim_asymm_v5,2020.2.10,MacIntel,60,61025ae37ef11b136ea224fe,,,,,,,,,3391,-59.26953125,-34.703125,1,0,0,response5disk,,2,-4.46875,-6.13671875,1,0,0,rectangle,-4.46875,-6.13671875,1,0,0,-4.46875,-6.13671875,1,0,0,0,83,83,106,1,,,,,,,,
,,,,,,,,,,,,,FF,,,,,,,,0.9006,,,,,,,,,,,,,,,,,,,,,,60fd6b02340bf3233276eba9,61036ef566dec8e5896fc4f5,2021-07-29_23h18.50.991,Simcolourproject_2stim_asymm_v5,2020.2.10,MacIntel,60,61025ae37ef11b136ea224fe,,,,,,,,,327,63.765625,-26.7734375,1,0,0,response3disk,,5,-5.30078125,-6.13671875,1,0,0,rectangle,-5.30078125,-6.13671875,1,0,0,-5.30078125,-6.13671875,1,0,0,0,84,84,136,1,,,,,,,,
,,,,,,,,,,,,,FF,,,,,,,,1.3014,,,,,,,,,,,,,,,,,,,,,,60fd6b02340bf3233276eba9,61036ef566dec8e5896fc4f5,2021-07-29_23h18.50.991,Simcolourproject_2stim_asymm_v5,2020.2.10,MacIntel,60,61025ae37ef11b136ea224fe,,,,,,,,,979,21.1484375,-55.9140625,1,0,0,response3disk,,4,11.15234375,-1.6640625,1,0,0,rectangle,11.15234375,-1.6640625,1,0,0,11.15234375,-1.6640625,1,0,0,0,85,85,89,1,,,,,,,,
,,,,,,,,,,,,,FF,,,,,,,,0.8832,,,,,,,,,,,,,,,,,,,,,,60fd6b02340bf3233276eba9,61036ef566dec8e5896fc4f5,2021-07-29_23h18.50.991,Simcolourproject_2stim_asymm_v5,2020.2.10,MacIntel,60,61025ae37ef11b136ea224fe,,,,,,,,,808,-100.5703125,-49.68359375,1,0,0,response5disk,,2,21.765625,5.953125,1,0,0,rectangle,21.765625,5.953125,1,0,0,21.765625,5.953125,1,0,0,0,86,86,110,1,,,,,,,,
,,,,,,,,,,,,,FF,,,,,,,,1.7687,,,,,,,,,,,,,,,,,,,,,,60fd6b02340bf3233276eba9,61036ef566dec8e5896fc4f5,2021-07-29_23h18.50.991,Simcolourproject_2stim_asymm_v5,2020.2.10,MacIntel,60,61025ae37ef11b136ea224fe,,,,,,,,,4214,64.58984375,33.75390625,1,0,0,response1disk,,6,6.703125,10.59765625,1,0,0,rectangle,6.703125,10.59765625,1,0,0,6.703125,10.59765625,1,0,0,0,87,87,8,1,,,,,,,,
,,,,,,,,,,,,,FF,,,,,,,,0.9327,,,,,,,,,,,,,,,,,,,,,,60fd6b02340bf3233276eba9,61036ef566dec8e5896fc4f5,2021-07-29_23h18.50.991,Simcolourproject_2stim_asymm_v5,2020.2.10,MacIntel,60,61025ae37ef11b136ea224fe,,,,,,,,,2665,44.53125,-49.49609375,1,0,0,response3disk,,4,3.9765625,-3,1,0,0,rectangle,3.9765625,-3,1,0,0,3.9765625,-3,1,0,0,0,88,88,152,1,,,,,,,,
,,,,,,,,,,,,,FF,,,,,,,,2.0171,,,,,,,,,,,,,,,,,,,,,,60fd6b02340bf3233276eba9,61036ef566dec8e5896fc4f5,2021-07-29_23h18.50.991,Simcolourproject_2stim_asymm_v5,2020.2.10,MacIntel,60,61025ae37ef11b136ea224fe,,,,,,,,,383,65.375,22.9140625,1,0,0,response1disk,,6,20.3203125,5.24609375,1,0,0,rectangle,20.3203125,5.24609375,1,0,0,20.3203125,5.24609375,1,0,0,0,89,89,128,1,,,,,,,,
,,,,,,,,,,,,,FF,,,,,,,,2.2682,,,,,,,,,,,,,,,,,,,,,,60fd6b02340bf3233276eba9,61036ef566dec8e5896fc4f5,2021-07-29_23h18.50.991,Simcolourproject_2stim_asymm_v5,2020.2.10,MacIntel,60,61025ae37ef11b136ea224fe,,,,,,,,,1671,15.5625,-71.0234375,1,0,0,response3disk,,4,6.26953125,1.30078125,1,0,0,rectangle,6.26953125,1.30078125,1,0,0,6.26953125,1.30078125,1,0,0,0,90,90,52,1,,,,,,,,
,,,,,,,,,,,,,FF,,,,,,,,1.4001,,,,,,,,,,,,,,,,,,,,,,60fd6b02340bf3233276eba9,61036ef566dec8e5896fc4f5,2021-07-29_23h18.50.991,Simcolourproject_2stim_asymm_v5,2020.2.10,MacIntel,60,61025ae37ef11b136ea224fe,,,,,,,,,143,27.2109375,51.86328125,1,0,0,response1disk,,7,8.046875,2.609375,1,0,0,rectangle,8.046875,2.609375,1,0,0,8.046875,2.609375,1,0,0,0,91,91,148,1,,,,,,,,
,,,,,,,,,,,,,FF,,,,,,,,1.1018,,,,,,,,,,,,,,,,,,,,,,60fd6b02340bf3233276eba9,61036ef566dec8e5896fc4f5,2021-07-29_23h18.50.991,Simcolourproject_2stim_asymm_v5,2020.2.10,MacIntel,60,61025ae37ef11b136ea224fe,,,,,,,,,300,59.11328125,-41.1015625,1,0,0,response3disk,,5,17.640625,-15.75,1,0,0,rectangle,17.640625,-15.75,1,0,0,17.640625,-15.75,1,0,0,0,92,92,4,1,,,,,,,,
,,,,,,,,,,,,,FF,,,,,,,,0.7823,,,,,,,,,,,,,,,,,,,,,,60fd6b02340bf3233276eba9,61036ef566dec8e5896fc4f5,2021-07-29_23h18.50.991,Simcolourproject_2stim_asymm_v5,2020.2.10,MacIntel,60,61025ae37ef11b136ea224fe,,,,,,,,,4163,-87.5546875,-40.4140625,1,0,0,response5disk,,2,-7.54296875,0.5546875,1,0,0,rectangle,-7.54296875,0.5546875,1,0,0,-7.54296875,0.5546875,1,0,0,0,93,93,18,1,,,,,,,,
,,,,,,,,,,,,,FF,,,,,,,,0.7344,,,,,,,,,,,,,,,,,,,,,,60fd6b02340bf3233276eba9,61036ef566dec8e5896fc4f5,2021-07-29_23h18.50.991,Simcolourproject_2stim_asymm_v5,2020.2.10,MacIntel,60,61025ae37ef11b136ea224fe,,,,,,,,,2060,62.71484375,-23.3203125,1,0,0,response3disk,,5,10.37890625,2.9453125,1,0,0,rectangle,10.37890625,2.9453125,1,0,0,10.37890625,2.9453125,1,0,0,0,94,94,141,1,,,,,,,,
,,,,,,,,,,,,,FF,,,,,,,,1.4177,,,,,,,,,,,,,,,,,,,,,,60fd6b02340bf3233276eba9,61036ef566dec8e5896fc4f5,2021-07-29_23h18.50.991,Simcolourproject_2stim_asymm_v5,2020.2.10,MacIntel,60,61025ae37ef11b136ea224fe,,,,,,,,,2269,34.86328125,65.31640625,1,0,0,response1disk,,7,12.22265625,11.48046875,1,0,0,rectangle,12.22265625,11.48046875,1,0,0,12.22265625,11.48046875,1,0,0,0,95,95,83,1,,,,,,,,
,,,,,,,,,,,,,FF,,,,,,,,0.5171,,,,,,,,,,,,,,,,,,,,,,60fd6b02340bf3233276eba9,61036ef566dec8e5896fc4f5,2021-07-29_23h18.50.991,Simcolourproject_2stim_asymm_v5,2020.2.10,MacIntel,60,61025ae37ef11b136ea224fe,,,,,,,,,2138,22.65234375,42,1,0,0,response1disk,,7,4.2109375,3.07421875,1,0,0,rectangle,4.2109375,3.07421875,1,0,0,4.2109375,3.07421875,1,0,0,0,96,96,91,1,,,,,,,,
,,,,,,,,,,,,,FF,,,,,,,,1.4337,,,,,,,,,,,,,,,,,,,,,,60fd6b02340bf3233276eba9,61036ef566dec8e5896fc4f5,2021-07-29_23h18.50.991,Simcolourproject_2stim_asymm_v5,2020.2.10,MacIntel,60,61025ae37ef11b136ea224fe,,,,,,,,,2823,21.66015625,-58.44921875,1,0,0,response3disk,,4,11.62109375,-7.609375,1,0,0,rectangle,11.62109375,-7.609375,1,0,0,11.62109375,-7.609375,1,0,0,0,97,97,63,1,,,,,,,,
,,,,,,,,,,,,,FF,,,,,,,,1.2336,,,,,,,,,,,,,,,,,,,,,,60fd6b02340bf3233276eba9,61036ef566dec8e5896fc4f5,2021-07-29_23h18.50.991,Simcolourproject_2stim_asymm_v5,2020.2.10,MacIntel,60,61025ae37ef11b136ea224fe,,,,,,,,,3900,-41.58984375,-68.94921875,1,0,0,response5disk,,3,-4.8203125,-9.828125,1,0,0,rectangle,-4.8203125,-9.828125,1,0,0,-4.8203125,-9.828125,1,0,0,0,98,98,70,1,,,,,,,,
,,,,,,,,,,,,,FF,,,,,,,,1.3531,,,,,,,,,,,,,,,,,,,,,,60fd6b02340bf3233276eba9,61036ef566dec8e5896fc4f5,2021-07-29_23h18.50.991,Simcolourproject_2stim_asymm_v5,2020.2.10,MacIntel,60,61025ae37ef11b136ea224fe,,,,,,,,,662,63.8984375,47.15625,1,0,0,response1disk,,6,5.49609375,3.5703125,1,0,0,rectangle,5.49609375,3.5703125,1,0,0,5.49609375,3.5703125,1,0,0,0,99,99,120,1,,,,,,,,
,,,,,,,,,,,,,FF,,,,,,,,2.5202,,,,,,,,,,,,,,,,,,,,,,60fd6b02340bf3233276eba9,61036ef566dec8e5896fc4f5,2021-07-29_23h18.50.991,Simcolourproject_2stim_asymm_v5,2020.2.10,MacIntel,60,61025ae37ef11b136ea224fe,,,,,,,,,857,67.65234375,-20.59765625,1,0,0,response3disk,,5,20.41015625,6.1875,1,0,0,rectangle,20.41015625,6.1875,1,0,0,20.41015625,6.1875,1,0,0,0,100,100,93,1,,,,,,,,
,,,,,,,,,,,,,FF,,,,,,,,1.4004,,,,,,,,,,,,,,,,,,,,,,60fd6b02340bf3233276eba9,61036ef566dec8e5896fc4f5,2021-07-29_23h18.50.991,Simcolourproject_2stim_asymm_v5,2020.2.10,MacIntel,60,61025ae37ef11b136ea224fe,,,,,,,,,4267,-33.17578125,-60.78125,1,0,0,response5disk,,3,-9.09375,-6.2578125,1,0,0,rectangle,-22.17578125,-83.734375,1,0,0,-11.234375,0.1640625,1,0,0,0,101,101,20,1,,response5disk_3,TRUE,3,3,"[123,60,320,251,296,55,185,68,158,110,180,202,308,281,191,239,321,28,153,102]",1.8009,rectangle
,,,,,,,,,,,,,FF,,,,,,,,1.2838,,,,,,,,,,,,,,,,,,,,,,60fd6b02340bf3233276eba9,61036ef566dec8e5896fc4f5,2021-07-29_23h18.50.991,Simcolourproject_2stim_asymm_v5,2020.2.10,MacIntel,60,61025ae37ef11b136ea224fe,,,,,,,,,4051,42.6484375,-65.41796875,1,0,0,response3disk,,4,7.76953125,-6.14453125,1,0,0,rectangle,7.76953125,-6.14453125,1,0,0,7.76953125,-6.14453125,1,0,0,0,102,102,159,1,,,,,,,,
,,,,,,,,,,,,,FF,,,,,,,,0.8004,,,,,,,,,,,,,,,,,,,,,,60fd6b02340bf3233276eba9,61036ef566dec8e5896fc4f5,2021-07-29_23h18.50.991,Simcolourproject_2stim_asymm_v5,2020.2.10,MacIntel,60,61025ae37ef11b136ea224fe,,,,,,,,,1498,22.1484375,53.953125,1,0,0,response1disk,,7,13.2109375,13.19921875,1,0,0,rectangle,13.2109375,13.19921875,1,0,0,13.2109375,13.19921875,1,0,0,0,103,103,150,1,,,,,,,,
,,,,,,,,,,,,,FF,,,,,,,,1.5339,,,,,,,,,,,,,,,,,,,,,,60fd6b02340bf3233276eba9,61036ef566dec8e5896fc4f5,2021-07-29_23h18.50.991,Simcolourproject_2stim_asymm_v5,2020.2.10,MacIntel,60,61025ae37ef11b136ea224fe,,,,,,,,,2258,39.02734375,52.12890625,1,0,0,response1disk,,7,13.37109375,6.40625,1,0,0,rectangle,13.37109375,6.40625,1,0,0,13.37109375,6.40625,1,0,0,0,104,104,143,1,,,,,,,,
,,,,,,,,,,,,,FF,,,,,,,,1.7173,,,,,,,,,,,,,,,,,,,,,,60fd6b02340bf3233276eba9,61036ef566dec8e5896fc4f5,2021-07-29_23h18.50.991,Simcolourproject_2stim_asymm_v5,2020.2.10,MacIntel,60,61025ae37ef11b136ea224fe,,,,,,,,,1076,70.09375,-36.10546875,1,0,0,response3disk,,5,13.94921875,-12.78125,1,0,0,rectangle,13.94921875,-12.78125,1,0,0,13.94921875,-12.78125,1,0,0,0,105,105,55,1,,,,,,,,
,,,,,,,,,,,,,FF,,,,,,,,0.8334,,,,,,,,,,,,,,,,,,,,,,60fd6b02340bf3233276eba9,61036ef566dec8e5896fc4f5,2021-07-29_23h18.50.991,Simcolourproject_2stim_asymm_v5,2020.2.10,MacIntel,60,61025ae37ef11b136ea224fe,,,,,,,,,548,-89.53125,-52.8046875,1,0,0,response5disk,,2,-14.46484375,-10.25390625,1,0,0,rectangle,-14.46484375,-10.25390625,1,0,0,-14.46484375,-10.25390625,1,0,0,0,106,106,42,1,,,,,,,,
,,,,,,,,,,,,,FF,,,,,,,,1.1001,,,,,,,,,,,,,,,,,,,,,,60fd6b02340bf3233276eba9,61036ef566dec8e5896fc4f5,2021-07-29_23h18.50.991,Simcolourproject_2stim_asymm_v5,2020.2.10,MacIntel,60,61025ae37ef11b136ea224fe,,,,,,,,,2591,36.86328125,-55.1171875,1,0,0,response3disk,,4,7.64453125,-10.36328125,1,0,0,rectangle,7.64453125,-10.36328125,1,0,0,7.64453125,-10.36328125,1,0,0,0,107,107,68,1,,,,,,,,
,,,,,,,,,,,,,FF,,,,,,,,0.7178,,,,,,,,,,,,,,,,,,,,,,60fd6b02340bf3233276eba9,61036ef566dec8e5896fc4f5,2021-07-29_23h18.50.991,Simcolourproject_2stim_asymm_v5,2020.2.10,MacIntel,60,61025ae37ef11b136ea224fe,,,,,,,,,3595,-30.54296875,-62.94921875,1,0,0,response5disk,,3,-5.65625,-9.921875,1,0,0,rectangle,-5.65625,-9.921875,1,0,0,-5.65625,-9.921875,1,0,0,0,108,108,121,1,,,,,,,,
,,,,,,,,,,,,,FF,,,,,,,,0.7332,,,,,,,,,,,,,,,,,,,,,,60fd6b02340bf3233276eba9,61036ef566dec8e5896fc4f5,2021-07-29_23h18.50.991,Simcolourproject_2stim_asymm_v5,2020.2.10,MacIntel,60,61025ae37ef11b136ea224fe,,,,,,,,,2619,61.703125,31.53515625,1,0,0,response1disk,,6,17.921875,10.76171875,1,0,0,rectangle,22.28125,83.0859375,1,0,0,-1.95703125,8.24609375,1,0,0,0,109,109,11,1,,response1disk_3,TRUE,7,7,"[123,60,320,251,296,55,185,68,158,110,180,202,308,281,191,239,321,28,153,102]",1.1165,rectangle
,,,,,,,,,,,,,FF,,,,,,,,1.0338,,,,,,,,,,,,,,,,,,,,,,60fd6b02340bf3233276eba9,61036ef566dec8e5896fc4f5,2021-07-29_23h18.50.991,Simcolourproject_2stim_asymm_v5,2020.2.10,MacIntel,60,61025ae37ef11b136ea224fe,,,,,,,,,2012,41.7109375,78.875,1,0,0,response1disk,,7,13.98046875,-2.8828125,1,0,0,rectangle,13.98046875,-2.8828125,1,0,0,13.98046875,-2.8828125,1,0,0,0,110,110,146,1,,,,,,,,
,,,,,,,,,,,,,FF,,,,,,,,0.8328,,,,,,,,,,,,,,,,,,,,,,60fd6b02340bf3233276eba9,61036ef566dec8e5896fc4f5,2021-07-29_23h18.50.991,Simcolourproject_2stim_asymm_v5,2020.2.10,MacIntel,60,61025ae37ef11b136ea224fe,,,,,,,,,1598,38.984375,-43.80078125,1,0,0,response3disk,,4,17.53125,2.39453125,1,0,0,rectangle,17.53125,2.39453125,1,0,0,17.53125,2.39453125,1,0,0,0,111,111,85,1,,,,,,,,
,,,,,,,,,,,,,FF,,,,,,,,1.8007,,,,,,,,,,,,,,,,,,,,,,60fd6b02340bf3233276eba9,61036ef566dec8e5896fc4f5,2021-07-29_23h18.50.991,Simcolourproject_2stim_asymm_v5,2020.2.10,MacIntel,60,61025ae37ef11b136ea224fe,,,,,,,,,3660,-63.96484375,-68.70703125,1,0,0,response5disk,,3,-14.21875,-9.08984375,1,0,0,rectangle,-14.21875,-9.08984375,1,0,0,-14.21875,-9.08984375,1,0,0,0,112,112,48,1,,,,,,,,
,,,,,,,,,,,,,FF,,,,,,,,1.5009,,,,,,,,,,,,,,,,,,,,,,60fd6b02340bf3233276eba9,61036ef566dec8e5896fc4f5,2021-07-29_23h18.50.991,Simcolourproject_2stim_asymm_v5,2020.2.10,MacIntel,60,61025ae37ef11b136ea224fe,,,,,,,,,4230,40.01171875,71.80859375,1,0,0,response1disk,,7,16.5390625,4.4375,1,0,0,rectangle,16.5390625,4.4375,1,0,0,16.5390625,4.4375,1,0,0,0,113,113,87,1,,,,,,,,
,,,,,,,,,,,,,FF,,,,,,,,1.1013,,,,,,,,,,,,,,,,,,,,,,60fd6b02340bf3233276eba9,61036ef566dec8e5896fc4f5,2021-07-29_23h18.50.991,Simcolourproject_2stim_asymm_v5,2020.2.10,MacIntel,60,61025ae37ef11b136ea224fe,,,,,,,,,1321,75.4765625,31.31640625,1,0,0,response1disk,,6,15.1796875,0.07421875,1,0,0,rectangle,15.1796875,0.07421875,1,0,0,15.1796875,0.07421875,1,0,0,0,114,114,125,1,,,,,,,,
,,,,,,,,,,,,,FF,,,,,,,,0.6664,,,,,,,,,,,,,,,,,,,,,,60fd6b02340bf3233276eba9,61036ef566dec8e5896fc4f5,2021-07-29_23h18.50.991,Simcolourproject_2stim_asymm_v5,2020.2.10,MacIntel,60,61025ae37ef11b136ea224fe,,,,,,,,,2970,29.875,70.8359375,1,0,0,response1disk,,7,4.7109375,7.63671875,1,0,0,rectangle,4.7109375,7.63671875,1,0,0,4.7109375,7.63671875,1,0,0,0,115,115,86,1,,,,,,,,
,,,,,,,,,,,,,FF,,,,,,,,0.6839,,,,,,,,,,,,,,,,,,,,,,60fd6b02340bf3233276eba9,61036ef566dec8e5896fc4f5,2021-07-29_23h18.50.991,Simcolourproject_2stim_asymm_v5,2020.2.10,MacIntel,60,61025ae37ef11b136ea224fe,,,,,,,,,1913,74.46484375,-29.33984375,1,0,0,response3disk,,5,12.2734375,-5.953125,1,0,0,rectangle,12.2734375,-5.953125,1,0,0,12.2734375,-5.953125,1,0,0,0,116,116,102,1,,,,,,,,
,,,,,,,,,,,,,FF,,,,,,,,0.6509,,,,,,,,,,,,,,,,,,,,,,60fd6b02340bf3233276eba9,61036ef566dec8e5896fc4f5,2021-07-29_23h18.50.991,Simcolourproject_2stim_asymm_v5,2020.2.10,MacIntel,60,61025ae37ef11b136ea224fe,,,,,,,,,475,32.1640625,41.19921875,1,0,0,response1disk,,7,9.12109375,1.85546875,1,0,0,rectangle,9.12109375,1.85546875,1,0,0,9.12109375,1.85546875,1,0,0,0,117,117,117,1,,,,,,,,
,,,,,,,,,,,,,FF,,,,,,,,0.9344,,,,,,,,,,,,,,,,,,,,,,60fd6b02340bf3233276eba9,61036ef566dec8e5896fc4f5,2021-07-29_23h18.50.991,Simcolourproject_2stim_asymm_v5,2020.2.10,MacIntel,60,61025ae37ef11b136ea224fe,,,,,,,,,2396,26.734375,71.9921875,1,0,0,response1disk,,7,12.94921875,8.2578125,1,0,0,rectangle,12.94921875,8.2578125,1,0,0,12.94921875,8.2578125,1,0,0,0,118,118,157,1,,,,,,,,
,,,,,,,,,,,,,FF,,,,,,,,1.1678,,,,,,,,,,,,,,,,,,,,,,60fd6b02340bf3233276eba9,61036ef566dec8e5896fc4f5,2021-07-29_23h18.50.991,Simcolourproject_2stim_asymm_v5,2020.2.10,MacIntel,60,61025ae37ef11b136ea224fe,,,,,,,,,1295,24.4453125,-61.48828125,1,0,0,response3disk,,4,15.015625,5.63671875,1,0,0,rectangle,15.015625,5.63671875,1,0,0,15.015625,5.63671875,1,0,0,0,119,119,76,1,,,,,,,,
,,,,,,,,,,,,,FF,,,,,,,,0.9335,,,,,,,,,,,,,,,,,,,,,,60fd6b02340bf3233276eba9,61036ef566dec8e5896fc4f5,2021-07-29_23h18.50.991,Simcolourproject_2stim_asymm_v5,2020.2.10,MacIntel,60,61025ae37ef11b136ea224fe,,,,,,,,,26,33.140625,59.6328125,1,0,0,response1disk,,7,2.15625,10.62109375,1,0,0,rectangle,2.15625,10.62109375,1,0,0,2.15625,10.62109375,1,0,0,0,120,120,135,1,,,,,,,,
,,,,,,,,,,,,,FF,,,,,,,,0.7016,,,,,,,,,,,,,,,,,,,,,,60fd6b02340bf3233276eba9,61036ef566dec8e5896fc4f5,2021-07-29_23h18.50.991,Simcolourproject_2stim_asymm_v5,2020.2.10,MacIntel,60,61025ae37ef11b136ea224fe,,,,,,,,,3956,37.71875,65.828125,1,0,0,response1disk,,7,24.93359375,0.11328125,1,0,0,rectangle,24.93359375,0.11328125,1,0,0,24.93359375,0.11328125,1,0,0,0,121,121,154,1,,,,,,,,
,,,,,,,,,,,,,FF,,,,,,,,0.7498,,,,,,,,,,,,,,,,,,,,,,60fd6b02340bf3233276eba9,61036ef566dec8e5896fc4f5,2021-07-29_23h18.50.991,Simcolourproject_2stim_asymm_v5,2020.2.10,MacIntel,60,61025ae37ef11b136ea224fe,,,,,,,,,1865,36.94921875,79.5078125,1,0,0,response1disk,,7,16.21875,11.90625,1,0,0,rectangle,58.10546875,33.5234375,1,0,0,8.18359375,5.91015625,1,0,0,0,122,122,104,1,,response1disk_3,TRUE,6,6,"[123,60,320,251,296,55,185,68,158,110,180,202,308,281,191,239,321,28,153,102]",1.1667,rectangle
,,,,,,,,,,,,,FF,,,,,,,,1.2847,,,,,,,,,,,,,,,,,,,,,,60fd6b02340bf3233276eba9,61036ef566dec8e5896fc4f5,2021-07-29_23h18.50.991,Simcolourproject_2stim_asymm_v5,2020.2.10,MacIntel,60,61025ae37ef11b136ea224fe,,,,,,,,,162,-26.50390625,-59.35546875,1,0,0,response5disk,,3,-2.88671875,-7.90625,1,0,0,rectangle,-2.88671875,-7.90625,1,0,0,-2.88671875,-7.90625,1,0,0,0,123,123,115,1,,,,,,,,
,,,,,,,,,,,,,FF,,,,,,,,0.6673,,,,,,,,,,,,,,,,,,,,,,60fd6b02340bf3233276eba9,61036ef566dec8e5896fc4f5,2021-07-29_23h18.50.991,Simcolourproject_2stim_asymm_v5,2020.2.10,MacIntel,60,61025ae37ef11b136ea224fe,,,,,,,,,3148,-35.06640625,-45.75,1,0,0,response5disk,,3,-12.49609375,-10.91015625,1,0,0,rectangle,-12.49609375,-10.91015625,1,0,0,-12.49609375,-10.91015625,1,0,0,0,124,124,116,1,,,,,,,,
,,,,,,,,,,,,,FF,,,,,,,,0.7494,,,,,,,,,,,,,,,,,,,,,,60fd6b02340bf3233276eba9,61036ef566dec8e5896fc4f5,2021-07-29_23h18.50.991,Simcolourproject_2stim_asymm_v5,2020.2.10,MacIntel,60,61025ae37ef11b136ea224fe,,,,,,,,,2171,-25.82421875,-54.78515625,1,0,0,response5disk,,3,-8.41015625,4.59765625,1,0,0,rectangle,-8.41015625,4.59765625,1,0,0,-8.41015625,4.59765625,1,0,0,0,125,125,94,1,,,,,,,,
,,,,,,,,,,,,,FF,,,,,,,,0.9844,,,,,,,,,,,,,,,,,,,,,,60fd6b02340bf3233276eba9,61036ef566dec8e5896fc4f5,2021-07-29_23h18.50.991,Simcolourproject_2stim_asymm_v5,2020.2.10,MacIntel,60,61025ae37ef11b136ea224fe,,,,,,,,,603,73.13671875,42.07421875,1,0,0,response1disk,,6,5.3125,9.46875,1,0,0,rectangle,5.3125,9.46875,1,0,0,5.3125,9.46875,1,0,0,0,126,126,33,1,,,,,,,,
,,,,,,,,,,,,,FF,,,,,,,,1.2181,,,,,,,,,,,,,,,,,,,,,,60fd6b02340bf3233276eba9,61036ef566dec8e5896fc4f5,2021-07-29_23h18.50.991,Simcolourproject_2stim_asymm_v5,2020.2.10,MacIntel,60,61025ae37ef11b136ea224fe,,,,,,,,,289,68.76171875,-14.578125,1,0,0,response3disk,,5,26.890625,-6.82421875,1,0,0,rectangle,26.890625,-6.82421875,1,0,0,26.890625,-6.82421875,1,0,0,0,127,127,113,1,,,,,,,,
,,,,,,,,,,,,,FF,,,,,,,,1.8835,,,,,,,,,,,,,,,,,,,,,,60fd6b02340bf3233276eba9,61036ef566dec8e5896fc4f5,2021-07-29_23h18.50.991,Simcolourproject_2stim_asymm_v5,2020.2.10,MacIntel,60,61025ae37ef11b136ea224fe,,,,,,,,,1955,59.84375,14.52734375,1,0,0,response1disk,,6,26.63671875,1.17578125,1,0,0,rectangle,26.63671875,1.17578125,1,0,0,26.63671875,1.17578125,1,0,0,0,128,128,74,1,,,,,,,,
,,,,,,,,,,,,,FF,,,,,,,,0.9506,,,,,,,,,,,,,,,,,,,,,,60fd6b02340bf3233276eba9,61036ef566dec8e5896fc4f5,2021-07-29_23h18.50.991,Simcolourproject_2stim_asymm_v5,2020.2.10,MacIntel,60,61025ae37ef11b136ea224fe,,,,,,,,,959,57.109375,29.40625,1,0,0,response1disk,,6,28.1484375,4.94921875,1,0,0,rectangle,28.1484375,4.94921875,1,0,0,28.1484375,4.94921875,1,0,0,0,129,129,35,1,,,,,,,,
,,,,,,,,,,,,,FF,,,,,,,,1.0512,,,,,,,,,,,,,,,,,,,,,,60fd6b02340bf3233276eba9,61036ef566dec8e5896fc4f5,2021-07-29_23h18.50.991,Simcolourproject_2stim_asymm_v5,2020.2.10,MacIntel,60,61025ae37ef11b136ea224fe,,,,,,,,,2862,24.375,93.81640625,1,0,0,response1disk,,7,9.3359375,7.328125,1,0,0,rectangle,9.3359375,7.328125,1,0,0,9.3359375,7.328125,1,0,0,0,130,130,62,1,,,,,,,,
,,,,,,,,,,,,,FF,,,,,,,,0.8347,,,,,,,,,,,,,,,,,,,,,,60fd6b02340bf3233276eba9,61036ef566dec8e5896fc4f5,2021-07-29_23h18.50.991,Simcolourproject_2stim_asymm_v5,2020.2.10,MacIntel,60,61025ae37ef11b136ea224fe,,,,,,,,,2707,26.8984375,50.62109375,1,0,0,response1disk,,7,2.26953125,-11.78515625,1,0,0,rectangle,2.26953125,-11.78515625,1,0,0,2.26953125,-11.78515625,1,0,0,0,131,131,69,1,,,,,,,,
,,,,,,,,,,,,,FF,,,,,,,,4.0689,,,,,,,,,,,,,,,,,,,,,,60fd6b02340bf3233276eba9,61036ef566dec8e5896fc4f5,2021-07-29_23h18.50.991,Simcolourproject_2stim_asymm_v5,2020.2.10,MacIntel,60,61025ae37ef11b136ea224fe,,,,,,,,,2306,27.2734375,-26.19921875,1,0,0,response3disk,,5,2.32421875,-2.234375,1,0,0,rectangle,2.32421875,-2.234375,1,0,0,2.32421875,-2.234375,1,0,0,0,132,132,127,1,,,,,,,,
,,,,,,,,,,,,,FF,,,,,,,,2.0185,,,,,,,,,,,,,,,,,,,,,,60fd6b02340bf3233276eba9,61036ef566dec8e5896fc4f5,2021-07-29_23h18.50.991,Simcolourproject_2stim_asymm_v5,2020.2.10,MacIntel,60,61025ae37ef11b136ea224fe,,,,,,,,,3188,22.546875,-51.4140625,1,0,0,response3disk,,4,9.8125,-1.76953125,1,0,0,rectangle,9.8125,-1.76953125,1,0,0,9.8125,-1.76953125,1,0,0,0,133,133,66,1,,,,,,,,
,,,,,,,,,,,,,FF,,,,,,,,1.1175,,,,,,,,,,,,,,,,,,,,,,60fd6b02340bf3233276eba9,61036ef566dec8e5896fc4f5,2021-07-29_23h18.50.991,Simcolourproject_2stim_asymm_v5,2020.2.10,MacIntel,60,61025ae37ef11b136ea224fe,,,,,,,,,37,28.83984375,47.00390625,1,0,0,response1disk,,7,-1.8671875,1.41015625,1,0,0,rectangle,-1.8671875,1.41015625,1,0,0,-1.8671875,1.41015625,1,0,0,0,134,134,158,1,,,,,,,,
,,,,,,,,,,,,,FF,,,,,,,,0.9497,,,,,,,,,,,,,,,,,,,,,,60fd6b02340bf3233276eba9,61036ef566dec8e5896fc4f5,2021-07-29_23h18.50.991,Simcolourproject_2stim_asymm_v5,2020.2.10,MacIntel,60,61025ae37ef11b136ea224fe,,,,,,,,,165,-57.48828125,-38.63671875,1,0,0,response5disk,,2,2.921875,-8.60546875,1,0,0,rectangle,2.921875,-8.60546875,1,0,0,2.921875,-8.60546875,1,0,0,0,135,135,54,1,,,,,,,,
,,,,,,,,,,,,,FF,,,,,,,,0.8004,,,,,,,,,,,,,,,,,,,,,,60fd6b02340bf3233276eba9,61036ef566dec8e5896fc4f5,2021-07-29_23h18.50.991,Simcolourproject_2stim_asymm_v5,2020.2.10,MacIntel,60,61025ae37ef11b136ea224fe,,,,,,,,,4022,-88.70703125,-27.11328125,1,0,0,response5disk,,2,-9.43359375,-1.76171875,1,0,0,rectangle,-9.43359375,-1.76171875,1,0,0,-9.43359375,-1.76171875,1,0,0,0,136,136,16,1,,,,,,,,
,,,,,,,,,,,,,FF,,,,,,,,1.5178,,,,,,,,,,,,,,,,,,,,,,60fd6b02340bf3233276eba9,61036ef566dec8e5896fc4f5,2021-07-29_23h18.50.991,Simcolourproject_2stim_asymm_v5,2020.2.10,MacIntel,60,61025ae37ef11b136ea224fe,,,,,,,,,321,36.69140625,60.7109375,1,0,0,response1disk,,7,-0.4140625,-7.6484375,1,0,0,rectangle,-0.4140625,-7.6484375,1,0,0,-0.4140625,-7.6484375,1,0,0,0,137,137,112,1,,,,,,,,
,,,,,,,,,,,,,FF,,,,,,,,1.0837,,,,,,,,,,,,,,,,,,,,,,60fd6b02340bf3233276eba9,61036ef566dec8e5896fc4f5,2021-07-29_23h18.50.991,Simcolourproject_2stim_asymm_v5,2020.2.10,MacIntel,60,61025ae37ef11b136ea224fe,,,,,,,,,355,-38.35546875,64.98828125,1,0,0,response7disk,,0,-1.87109375,3.16015625,1,0,0,rectangle,-1.87109375,3.16015625,1,0,0,-1.87109375,3.16015625,1,0,0,0,138,138,25,1,,,,,,,,
,,,,,,,,,,,,,FF,,,,,,,,1.3676,,,,,,,,,,,,,,,,,,,,,,60fd6b02340bf3233276eba9,61036ef566dec8e5896fc4f5,2021-07-29_23h18.50.991,Simcolourproject_2stim_asymm_v5,2020.2.10,MacIntel,60,61025ae37ef11b136ea224fe,,,,,,,,,2366,-29.55078125,-48.05078125,1,0,0,response5disk,,3,6.578125,-10.94921875,1,0,0,rectangle,6.578125,-10.94921875,1,0,0,6.578125,-10.94921875,1,0,0,0,139,139,114,1,,,,,,,,
,,,,,,,,,,,,,FF,,,,,,,,0.8675,,,,,,,,,,,,,,,,,,,,,,60fd6b02340bf3233276eba9,61036ef566dec8e5896fc4f5,2021-07-29_23h18.50.991,Simcolourproject_2stim_asymm_v5,2020.2.10,MacIntel,60,61025ae37ef11b136ea224fe,,,,,,,,,2773,49.0390625,-18.5234375,1,0,0,response3disk,,5,6.69921875,-9.76953125,1,0,0,rectangle,6.69921875,-9.76953125,1,0,0,6.69921875,-9.76953125,1,0,0,0,140,140,132,1,,,,,,,,
,,,,,,,,,,,,,FF,,,,,,,,1.9022,,,,,,,,,,,,,,,,,,,,,,60fd6b02340bf3233276eba9,61036ef566dec8e5896fc4f5,2021-07-29_23h18.50.991,Simcolourproject_2stim_asymm_v5,2020.2.10,MacIntel,60,61025ae37ef11b136ea224fe,,,,,,,,,76,-55.67578125,-89.41015625,1,0,0,response5disk,,3,-5.36328125,-11.6171875,1,0,0,rectangle,-5.36328125,-11.6171875,1,0,0,-5.36328125,-11.6171875,1,0,0,0,141,141,71,1,,,,,,,,
,,,,,,,,,,,,,FF,,,,,,,,0.7843,,,,,,,,,,,,,,,,,,,,,,60fd6b02340bf3233276eba9,61036ef566dec8e5896fc4f5,2021-07-29_23h18.50.991,Simcolourproject_2stim_asymm_v5,2020.2.10,MacIntel,60,61025ae37ef11b136ea224fe,,,,,,,,,542,43.06640625,26.4375,1,0,0,response1disk,,6,-4.4140625,7.2265625,1,0,0,rectangle,-4.4140625,7.2265625,1,0,0,-4.4140625,7.2265625,1,0,0,0,142,142,44,1,,,,,,,,
,,,,,,,,,,,,,FF,,,,,,,,0.8984,,,,,,,,,,,,,,,,,,,,,,60fd6b02340bf3233276eba9,61036ef566dec8e5896fc4f5,2021-07-29_23h18.50.991,Simcolourproject_2stim_asymm_v5,2020.2.10,MacIntel,60,61025ae37ef11b136ea224fe,,,,,,,,,3226,37.4921875,63.0859375,1,0,0,response1disk,,7,13.38671875,5.90625,1,0,0,rectangle,13.38671875,5.90625,1,0,0,13.38671875,5.90625,1,0,0,0,143,143,105,1,,,,,,,,
,,,,,,,,,,,,,FF,,,,,,,,0.7672,,,,,,,,,,,,,,,,,,,,,,60fd6b02340bf3233276eba9,61036ef566dec8e5896fc4f5,2021-07-29_23h18.50.991,Simcolourproject_2stim_asymm_v5,2020.2.10,MacIntel,60,61025ae37ef11b136ea224fe,,,,,,,,,4290,27.015625,40.55859375,1,0,0,response1disk,,7,6.2734375,2.546875,1,0,0,rectangle,6.2734375,2.546875,1,0,0,6.2734375,2.546875,1,0,0,0,144,144,30,1,,,,,,,,
,,,,,,,,,,,,,FF,,,,,,,,1.5351,,,,,,,,,,,,,,,,,,,,,,60fd6b02340bf3233276eba9,61036ef566dec8e5896fc4f5,2021-07-29_23h18.50.991,Simcolourproject_2stim_asymm_v5,2020.2.10,MacIntel,60,61025ae37ef11b136ea224fe,,,,,,,,,2074,53.8046875,34.48828125,1,0,0,response1disk,,6,-26.3125,2.65625,1,0,0,rectangle,-26.3125,2.65625,1,0,0,-26.3125,2.65625,1,0,0,0,145,145,39,1,,,,,,,,
,,,,,,,,,,,,,FF,,,,,,,,0.7999,,,,,,,,,,,,,,,,,,,,,,60fd6b02340bf3233276eba9,61036ef566dec8e5896fc4f5,2021-07-29_23h18.50.991,Simcolourproject_2stim_asymm_v5,2020.2.10,MacIntel,60,61025ae37ef11b136ea224fe,,,,,,,,,225,56.76171875,24.45703125,1,0,0,response1disk,,6,6.1171875,0.66796875,1,0,0,rectangle,6.1171875,0.66796875,1,0,0,6.1171875,0.66796875,1,0,0,0,146,146,12,1,,,,,,,,
,,,,,,,,,,,,,FF,,,,,,,,1.4834,,,,,,,,,,,,,,,,,,,,,,60fd6b02340bf3233276eba9,61036ef566dec8e5896fc4f5,2021-07-29_23h18.50.991,Simcolourproject_2stim_asymm_v5,2020.2.10,MacIntel,60,61025ae37ef11b136ea224fe,,,,,,,,,1719,52.8828125,29.703125,1,0,0,response1disk,,6,20.5625,8.01953125,1,0,0,rectangle,20.5625,8.01953125,1,0,0,20.5625,8.01953125,1,0,0,0,147,147,58,1,,,,,,,,
,,,,,,,,,,,,,FF,,,,,,,,0.8154,,,,,,,,,,,,,,,,,,,,,,60fd6b02340bf3233276eba9,61036ef566dec8e5896fc4f5,2021-07-29_23h18.50.991,Simcolourproject_2stim_asymm_v5,2020.2.10,MacIntel,60,61025ae37ef11b136ea224fe,,,,,,,,,1547,29.25390625,54.30859375,1,0,0,response1disk,,7,20.7578125,9.84375,1,0,0,rectangle,20.7578125,9.84375,1,0,0,20.7578125,9.84375,1,0,0,0,148,148,1,1,,,,,,,,
,,,,,,,,,,,,,FF,,,,,,,,1.1678,,,,,,,,,,,,,,,,,,,,,,60fd6b02340bf3233276eba9,61036ef566dec8e5896fc4f5,2021-07-29_23h18.50.991,Simcolourproject_2stim_asymm_v5,2020.2.10,MacIntel,60,61025ae37ef11b136ea224fe,,,,,,,,,2406,63.25390625,37.33984375,1,0,0,response1disk,,6,6.1171875,-3.453125,1,0,0,rectangle,6.1171875,-3.453125,1,0,0,6.1171875,-3.453125,1,0,0,0,149,149,2,1,,,,,,,,
,,,,,,,,,,,,,FF,,,,,,,,1.1041,,,,,,,,,,,,,,,,,,,,,,60fd6b02340bf3233276eba9,61036ef566dec8e5896fc4f5,2021-07-29_23h18.50.991,Simcolourproject_2stim_asymm_v5,2020.2.10,MacIntel,60,61025ae37ef11b136ea224fe,,,,,,,,,3670,-77.828125,34.12890625,1,0,0,response7disk,,1,-3.9453125,-9.54296875,1,0,0,rectangle,-3.9453125,-9.54296875,1,0,0,-3.9453125,-9.54296875,1,0,0,0,150,150,67,1,,,,,,,,
,,,,,,,,,,,,,FF,,,,,,,,1.1344,,,,,,,,,,,,,,,,,,,,,,60fd6b02340bf3233276eba9,61036ef566dec8e5896fc4f5,2021-07-29_23h18.50.991,Simcolourproject_2stim_asymm_v5,2020.2.10,MacIntel,60,61025ae37ef11b136ea224fe,,,,,,,,,2459,23.28125,60.51953125,1,0,0,response1disk,,7,-0.44140625,15.28125,1,0,0,rectangle,-0.44140625,15.28125,1,0,0,-0.44140625,15.28125,1,0,0,0,151,151,82,1,,,,,,,,
,,,,,,,,,,,,,FF,,,,,,,,0.5661,,,,,,,,,,,,,,,,,,,,,,60fd6b02340bf3233276eba9,61036ef566dec8e5896fc4f5,2021-07-29_23h18.50.991,Simcolourproject_2stim_asymm_v5,2020.2.10,MacIntel,60,61025ae37ef11b136ea224fe,,,,,,,,,1083,41.1171875,68.82421875,1,0,0,response1disk,,7,14.45703125,15.7109375,1,0,0,rectangle,-25.79296875,98.140625,1,0,0,-18.76953125,9.23828125,1,0,0,0,152,152,73,1,,response7disk_3,TRUE,0,0,"[123,60,320,251,296,55,185,68,158,110,180,202,308,281,191,239,321,28,153,102]",1.2504,rectangle
,,,,,,,,,,,,,FF,,,,,,,,1.5455,,,,,,,,,,,,,,,,,,,,,,60fd6b02340bf3233276eba9,61036ef566dec8e5896fc4f5,2021-07-29_23h18.50.991,Simcolourproject_2stim_asymm_v5,2020.2.10,MacIntel,60,61025ae37ef11b136ea224fe,,,,,,,,,1219,-20.99609375,-45.5234375,1,0,0,response5disk,,3,8.69921875,-0.73828125,1,0,0,rectangle,8.69921875,-0.73828125,1,0,0,8.69921875,-0.73828125,1,0,0,0,153,153,96,1,,,,,,,,
,,,,,,,,,,,,,FF,,,,,,,,1.5335,,,,,,,,,,,,,,,,,,,,,,60fd6b02340bf3233276eba9,61036ef566dec8e5896fc4f5,2021-07-29_23h18.50.991,Simcolourproject_2stim_asymm_v5,2020.2.10,MacIntel,60,61025ae37ef11b136ea224fe,,,,,,,,,3803,-37.6015625,-71.33984375,1,0,0,response5disk,,3,5.734375,-6.6171875,1,0,0,rectangle,5.734375,-6.6171875,1,0,0,5.734375,-6.6171875,1,0,0,0,154,154,10,1,,,,,,,,
,,,,,,,,,,,,,FF,,,,,,,,1.5666,,,,,,,,,,,,,,,,,,,,,,60fd6b02340bf3233276eba9,61036ef566dec8e5896fc4f5,2021-07-29_23h18.50.991,Simcolourproject_2stim_asymm_v5,2020.2.10,MacIntel,60,61025ae37ef11b136ea224fe,,,,,,,,,2559,44.984375,36.11328125,1,0,0,response1disk,,6,21.0859375,-4.52734375,1,0,0,rectangle,21.0859375,-4.52734375,1,0,0,21.0859375,-4.52734375,1,0,0,0,155,155,51,1,,,,,,,,
,,,,,,,,,,,,,FF,,,,,,,,1.9497,,,,,,,,,,,,,,,,,,,,,,60fd6b02340bf3233276eba9,61036ef566dec8e5896fc4f5,2021-07-29_23h18.50.991,Simcolourproject_2stim_asymm_v5,2020.2.10,MacIntel,60,61025ae37ef11b136ea224fe,,,,,,,,,1345,59.99609375,30.359375,1,0,0,response1disk,,6,16.16015625,-4.08984375,1,0,0,rectangle,16.16015625,-4.08984375,1,0,0,16.16015625,-4.08984375,1,0,0,0,156,156,129,1,,,,,,,,
,,,,,,,,,,,,,FF,,,,,,,,1.5858,,,,,,,,,,,,,,,,,,,,,,60fd6b02340bf3233276eba9,61036ef566dec8e5896fc4f5,2021-07-29_23h18.50.991,Simcolourproject_2stim_asymm_v5,2020.2.10,MacIntel,60,61025ae37ef11b136ea224fe,,,,,,,,,2315,29.69921875,-63.28125,1,0,0,response3disk,,4,10.78125,-0.33984375,1,0,0,rectangle,26.58984375,-53.71875,1,0,0,2.8671875,-2.94140625,1,0,0,0,157,157,49,1,,response3disk_3,TRUE,4,4,"[123,60,320,251,296,55,185,68,158,110,180,202,308,281,191,239,321,28,153,102]",1.4517,rectangle
,,,,,,,,,,,,,FF,,,,,,,,1.5828,,,,,,,,,,,,,,,,,,,,,,60fd6b02340bf3233276eba9,61036ef566dec8e5896fc4f5,2021-07-29_23h18.50.991,Simcolourproject_2stim_asymm_v5,2020.2.10,MacIntel,60,61025ae37ef11b136ea224fe,,,,,,,,,2503,63.58984375,-41.3359375,1,0,0,response3disk,,5,3.5625,1.20703125,1,0,0,rectangle,3.5625,1.20703125,1,0,0,3.5625,1.20703125,1,0,0,0,158,158,88,1,,,,,,,,
,,,,,,,,,,,,,FF,,,,,,,,0.617,,,,,,,,,,,,,,,,,,,,,,60fd6b02340bf3233276eba9,61036ef566dec8e5896fc4f5,2021-07-29_23h18.50.991,Simcolourproject_2stim_asymm_v5,2020.2.10,MacIntel,60,61025ae37ef11b136ea224fe,,,,,,,,,3319,30.40625,50.26953125,1,0,0,response1disk,,7,12.171875,1.9921875,1,0,0,rectangle,12.171875,1.9921875,1,0,0,12.171875,1.9921875,1,0,0,0,159,159,139,1,,,,,,,,
,,,,,,,,,,,,,FF,,,,,,,,1.1165,,,,,,,,,,,,,,,,,,,,,,60fd6b02340bf3233276eba9,61036ef566dec8e5896fc4f5,2021-07-29_23h18.50.991,Simcolourproject_2stim_asymm_v5,2020.2.10,MacIntel,60,61025ae37ef11b136ea224fe,,,,,,,,,2491,61.953125,31.95703125,1,0,0,response1disk,,6,-7.5234375,-2.07421875,1,0,0,rectangle,-7.5234375,-2.07421875,1,0,0,-7.5234375,-2.07421875,1,0,0,1,0,160,45,1,,,,,,,,
,,,,,,,,,,,,,FF,,,,,,,,1.084,,,,,,,,,,,,,,,,,,,,,,60fd6b02340bf3233276eba9,61036ef566dec8e5896fc4f5,2021-07-29_23h18.50.991,Simcolourproject_2stim_asymm_v5,2020.2.10,MacIntel,60,61025ae37ef11b136ea224fe,,,,,,,,,2684,64.3046875,-20.4765625,1,0,0,response3disk,,5,19.37109375,0.65234375,1,0,0,rectangle,19.37109375,0.65234375,1,0,0,19.37109375,0.65234375,1,0,0,1,1,161,115,1,,,,,,,,
,,,,,,,,,,,,,FF,,,,,,,,0.6674,,,,,,,,,,,,,,,,,,,,,,60fd6b02340bf3233276eba9,61036ef566dec8e5896fc4f5,2021-07-29_23h18.50.991,Simcolourproject_2stim_asymm_v5,2020.2.10,MacIntel,60,61025ae37ef11b136ea224fe,,,,,,,,,582,31.2265625,65.42578125,1,0,0,response1disk,,7,12.35546875,7.7265625,1,0,0,rectangle,12.35546875,7.7265625,1,0,0,12.35546875,7.7265625,1,0,0,1,2,162,37,1,,,,,,,,
,,,,,,,,,,,,,FF,,,,,,,,0.9338,,,,,,,,,,,,,,,,,,,,,,60fd6b02340bf3233276eba9,61036ef566dec8e5896fc4f5,2021-07-29_23h18.50.991,Simcolourproject_2stim_asymm_v5,2020.2.10,MacIntel,60,61025ae37ef11b136ea224fe,,,,,,,,,2617,48.6484375,66.75390625,1,0,0,response1disk,,7,14.2578125,9.1875,1,0,0,rectangle,14.2578125,9.1875,1,0,0,14.2578125,9.1875,1,0,0,1,3,163,123,1,,,,,,,,
,,,,,,,,,,,,,FF,,,,,,,,0.7,,,,,,,,,,,,,,,,,,,,,,60fd6b02340bf3233276eba9,61036ef566dec8e5896fc4f5,2021-07-29_23h18.50.991,Simcolourproject_2stim_asymm_v5,2020.2.10,MacIntel,60,61025ae37ef11b136ea224fe,,,,,,,,,2949,38.02734375,50.08984375,1,0,0,response1disk,,7,21.2109375,7.80859375,1,0,0,rectangle,21.2109375,7.80859375,1,0,0,21.2109375,7.80859375,1,0,0,1,4,164,36,1,,,,,,,,
,,,,,,,,,,,,,FF,,,,,,,,0.7528,,,,,,,,,,,,,,,,,,,,,,60fd6b02340bf3233276eba9,61036ef566dec8e5896fc4f5,2021-07-29_23h18.50.991,Simcolourproject_2stim_asymm_v5,2020.2.10,MacIntel,60,61025ae37ef11b136ea224fe,,,,,,,,,3072,26.05859375,59.29296875,1,0,0,response1disk,,7,12.484375,-0.14453125,1,0,0,rectangle,12.484375,-0.14453125,1,0,0,12.484375,-0.14453125,1,0,0,1,5,165,95,1,,,,,,,,
,,,,,,,,,,,,,FF,,,,,,,,1.5348,,,,,,,,,,,,,,,,,,,,,,60fd6b02340bf3233276eba9,61036ef566dec8e5896fc4f5,2021-07-29_23h18.50.991,Simcolourproject_2stim_asymm_v5,2020.2.10,MacIntel,60,61025ae37ef11b136ea224fe,,,,,,,,,1251,84.99609375,-30.13671875,1,0,0,response3disk,,5,21.09765625,-12.9296875,1,0,0,rectangle,21.09765625,-12.9296875,1,0,0,21.09765625,-12.9296875,1,0,0,1,6,166,159,1,,,,,,,,
,,,,,,,,,,,,,FF,,,,,,,,1.2827,,,,,,,,,,,,,,,,,,,,,,60fd6b02340bf3233276eba9,61036ef566dec8e5896fc4f5,2021-07-29_23h18.50.991,Simcolourproject_2stim_asymm_v5,2020.2.10,MacIntel,60,61025ae37ef11b136ea224fe,,,,,,,,,4210,60.0234375,36.28515625,1,0,0,response1disk,,6,21.71484375,5.46484375,1,0,0,rectangle,21.71484375,5.46484375,1,0,0,21.71484375,5.46484375,1,0,0,1,7,167,88,1,,,,,,,,
,,,,,,,,,,,,,FF,,,,,,,,1.0726,,,,,,,,,,,,,,,,,,,,,,60fd6b02340bf3233276eba9,61036ef566dec8e5896fc4f5,2021-07-29_23h18.50.991,Simcolourproject_2stim_asymm_v5,2020.2.10,MacIntel,60,61025ae37ef11b136ea224fe,,,,,,,,,3673,-79.47265625,-28.046875,1,0,0,response5disk,,2,18.3828125,-4.86328125,1,0,0,rectangle,18.3828125,-4.86328125,1,0,0,18.3828125,-4.86328125,1,0,0,1,8,168,114,1,,,,,,,,
,,,,,,,,,,,,,FF,,,,,,,,1.3838,,,,,,,,,,,,,,,,,,,,,,60fd6b02340bf3233276eba9,61036ef566dec8e5896fc4f5,2021-07-29_23h18.50.991,Simcolourproject_2stim_asymm_v5,2020.2.10,MacIntel,60,61025ae37ef11b136ea224fe,,,,,,,,,2051,34.4375,-63.93359375,1,0,0,response3disk,,4,14.3203125,-15.765625,1,0,0,rectangle,14.3203125,-15.765625,1,0,0,14.3203125,-15.765625,1,0,0,1,9,169,67,1,,,,,,,,
,,,,,,,,,,,,,FF,,,,,,,,1.0001,,,,,,,,,,,,,,,,,,,,,,60fd6b02340bf3233276eba9,61036ef566dec8e5896fc4f5,2021-07-29_23h18.50.991,Simcolourproject_2stim_asymm_v5,2020.2.10,MacIntel,60,61025ae37ef11b136ea224fe,,,,,,,,,2809,34.53125,74.38671875,1,0,0,response1disk,,7,3.828125,8.12109375,1,0,0,rectangle,3.828125,8.12109375,1,0,0,3.828125,8.12109375,1,0,0,1,10,170,112,1,,,,,,,,
,,,,,,,,,,,,,FF,,,,,,,,0.5493,,,,,,,,,,,,,,,,,,,,,,60fd6b02340bf3233276eba9,61036ef566dec8e5896fc4f5,2021-07-29_23h18.50.991,Simcolourproject_2stim_asymm_v5,2020.2.10,MacIntel,60,61025ae37ef11b136ea224fe,,,,,,,,,40,41.4609375,56.0234375,1,0,0,response1disk,,7,4.64453125,9.625,1,0,0,rectangle,4.64453125,9.625,1,0,0,4.64453125,9.625,1,0,0,1,11,171,127,1,,,,,,,,
,,,,,,,,,,,,,FF,,,,,,,,0.7501,,,,,,,,,,,,,,,,,,,,,,60fd6b02340bf3233276eba9,61036ef566dec8e5896fc4f5,2021-07-29_23h18.50.991,Simcolourproject_2stim_asymm_v5,2020.2.10,MacIntel,60,61025ae37ef11b136ea224fe,,,,,,,,,1875,69.4453125,33.97265625,1,0,0,response1disk,,6,10.4609375,8.41796875,1,0,0,rectangle,10.4609375,8.41796875,1,0,0,10.4609375,8.41796875,1,0,0,1,12,172,58,1,,,,,,,,
,,,,,,,,,,,,,FF,,,,,,,,0.833,,,,,,,,,,,,,,,,,,,,,,60fd6b02340bf3233276eba9,61036ef566dec8e5896fc4f5,2021-07-29_23h18.50.991,Simcolourproject_2stim_asymm_v5,2020.2.10,MacIntel,60,61025ae37ef11b136ea224fe,,,,,,,,,539,54.5234375,-27.3359375,1,0,0,response3disk,,5,0.45703125,0.8046875,1,0,0,rectangle,0.45703125,0.8046875,1,0,0,0.45703125,0.8046875,1,0,0,1,13,173,40,1,,,,,,,,
,,,,,,,,,,,,,FF,,,,,,,,0.8491,,,,,,,,,,,,,,,,,,,,,,60fd6b02340bf3233276eba9,61036ef566dec8e5896fc4f5,2021-07-29_23h18.50.991,Simcolourproject_2stim_asymm_v5,2020.2.10,MacIntel,60,61025ae37ef11b136ea224fe,,,,,,,,,2599,53.90234375,33.76171875,1,0,0,response1disk,,6,16.546875,-4.23828125,1,0,0,rectangle,16.546875,-4.23828125,1,0,0,16.546875,-4.23828125,1,0,0,1,14,174,97,1,,,,,,,,
,,,,,,,,,,,,,FF,,,,,,,,0.8637,,,,,,,,,,,,,,,,,,,,,,60fd6b02340bf3233276eba9,61036ef566dec8e5896fc4f5,2021-07-29_23h18.50.991,Simcolourproject_2stim_asymm_v5,2020.2.10,MacIntel,60,61025ae37ef11b136ea224fe,,,,,,,,,3307,20.234375,-56.34375,1,0,0,response3disk,,4,5.68359375,-2.078125,1,0,0,rectangle,5.68359375,-2.078125,1,0,0,5.68359375,-2.078125,1,0,0,1,15,175,100,1,,,,,,,,
,,,,,,,,,,,,,FF,,,,,,,,1.1178,,,,,,,,,,,,,,,,,,,,,,60fd6b02340bf3233276eba9,61036ef566dec8e5896fc4f5,2021-07-29_23h18.50.991,Simcolourproject_2stim_asymm_v5,2020.2.10,MacIntel,60,61025ae37ef11b136ea224fe,,,,,,,,,2849,68.33984375,-31.625,1,0,0,response3disk,,5,13.77734375,-1.94921875,1,0,0,rectangle,13.77734375,-1.94921875,1,0,0,13.77734375,-1.94921875,1,0,0,1,16,176,148,1,,,,,,,,
,,,,,,,,,,,,,FF,,,,,,,,0.9665,,,,,,,,,,,,,,,,,,,,,,60fd6b02340bf3233276eba9,61036ef566dec8e5896fc4f5,2021-07-29_23h18.50.991,Simcolourproject_2stim_asymm_v5,2020.2.10,MacIntel,60,61025ae37ef11b136ea224fe,,,,,,,,,3119,66.90234375,31.83984375,1,0,0,response1disk,,6,25.47265625,10.59765625,1,0,0,rectangle,25.47265625,10.59765625,1,0,0,25.47265625,10.59765625,1,0,0,1,17,177,38,1,,,,,,,,
,,,,,,,,,,,,,FF,,,,,,,,0.9495,,,,,,,,,,,,,,,,,,,,,,60fd6b02340bf3233276eba9,61036ef566dec8e5896fc4f5,2021-07-29_23h18.50.991,Simcolourproject_2stim_asymm_v5,2020.2.10,MacIntel,60,61025ae37ef11b136ea224fe,,,,,,,,,3236,-36.5703125,-69.8359375,1,0,0,response5disk,,3,-18.34375,9.30859375,1,0,0,rectangle,-18.34375,9.30859375,1,0,0,-18.34375,9.30859375,1,0,0,1,18,178,50,1,,,,,,,,
,,,,,,,,,,,,,FF,,,,,,,,0.9169,,,,,,,,,,,,,,,,,,,,,,60fd6b02340bf3233276eba9,61036ef566dec8e5896fc4f5,2021-07-29_23h18.50.991,Simcolourproject_2stim_asymm_v5,2020.2.10,MacIntel,60,61025ae37ef11b136ea224fe,,,,,,,,,4130,-28.84375,-74.86328125,1,0,0,response5disk,,3,-14.5546875,-2.06640625,1,0,0,rectangle,72.28125,37.78515625,1,0,0,-10.14453125,8.03125,1,0,0,1,19,179,43,1,,response1disk_3,TRUE,6,6,"[123,60,320,251,296,55,185,68,158,110,180,202,308,281,191,239,321,28,153,102]",1.3676,rectangle
,,,,,,,,,,,,,FF,,,,,,,,0.8337,,,,,,,,,,,,,,,,,,,,,,60fd6b02340bf3233276eba9,61036ef566dec8e5896fc4f5,2021-07-29_23h18.50.991,Simcolourproject_2stim_asymm_v5,2020.2.10,MacIntel,60,61025ae37ef11b136ea224fe,,,,,,,,,4191,50.91796875,25.37890625,1,0,0,response1disk,,6,3.95703125,7.5390625,1,0,0,rectangle,3.95703125,7.5390625,1,0,0,3.95703125,7.5390625,1,0,0,1,20,180,34,1,,,,,,,,
,,,,,,,,,,,,,FF,,,,,,,,0.6987,,,,,,,,,,,,,,,,,,,,,,60fd6b02340bf3233276eba9,61036ef566dec8e5896fc4f5,2021-07-29_23h18.50.991,Simcolourproject_2stim_asymm_v5,2020.2.10,MacIntel,60,61025ae37ef11b136ea224fe,,,,,,,,,2013,60.50390625,31.671875,1,0,0,response1disk,,6,15.171875,4.73828125,1,0,0,rectangle,15.171875,4.73828125,1,0,0,15.171875,4.73828125,1,0,0,1,21,181,140,1,,,,,,,,
,,,,,,,,,,,,,FF,,,,,,,,0.8673,,,,,,,,,,,,,,,,,,,,,,60fd6b02340bf3233276eba9,61036ef566dec8e5896fc4f5,2021-07-29_23h18.50.991,Simcolourproject_2stim_asymm_v5,2020.2.10,MacIntel,60,61025ae37ef11b136ea224fe,,,,,,,,,2784,-47.80859375,-74.55859375,1,0,0,response5disk,,3,-12.390625,-4.4453125,1,0,0,rectangle,-12.390625,-4.4453125,1,0,0,-12.390625,-4.4453125,1,0,0,1,22,182,52,1,,,,,,,,
,,,,,,,,,,,,,FF,,,,,,,,0.7998,,,,,,,,,,,,,,,,,,,,,,60fd6b02340bf3233276eba9,61036ef566dec8e5896fc4f5,2021-07-29_23h18.50.991,Simcolourproject_2stim_asymm_v5,2020.2.10,MacIntel,60,61025ae37ef11b136ea224fe,,,,,,,,,2525,73.109375,-25.65625,1,0,0,response3disk,,5,14.51171875,-6.85546875,1,0,0,rectangle,14.51171875,-6.85546875,1,0,0,14.51171875,-6.85546875,1,0,0,1,23,183,145,1,,,,,,,,
,,,,,,,,,,,,,FF,,,,,,,,0.8852,,,,,,,,,,,,,,,,,,,,,,60fd6b02340bf3233276eba9,61036ef566dec8e5896fc4f5,2021-07-29_23h18.50.991,Simcolourproject_2stim_asymm_v5,2020.2.10,MacIntel,60,61025ae37ef11b136ea224fe,,,,,,,,,1929,45.0703125,-22.5546875,1,0,0,response3disk,,5,-6.78125,2.49609375,1,0,0,rectangle,68.19140625,-20.68359375,1,0,0,-9.984375,-4.8359375,1,0,0,1,24,184,98,1,,response3disk_3,TRUE,5,5,"[123,60,320,251,296,55,185,68,158,110,180,202,308,281,191,239,321,28,153,102]",1.3182,rectangle
,,,,,,,,,,,,,FF,,,,,,,,2.0176,,,,,,,,,,,,,,,,,,,,,,60fd6b02340bf3233276eba9,61036ef566dec8e5896fc4f5,2021-07-29_23h18.50.991,Simcolourproject_2stim_asymm_v5,2020.2.10,MacIntel,60,61025ae37ef11b136ea224fe,,,,,,,,,3335,68.40625,-37.81640625,1,0,0,response3disk,,5,-4.3203125,-2.91796875,1,0,0,rectangle,-4.3203125,-2.91796875,1,0,0,-4.3203125,-2.91796875,1,0,0,1,25,185,7,1,,,,,,,,
,,,,,,,,,,,,,FF,,,,,,,,1.7169,,,,,,,,,,,,,,,,,,,,,,60fd6b02340bf3233276eba9,61036ef566dec8e5896fc4f5,2021-07-29_23h18.50.991,Simcolourproject_2stim_asymm_v5,2020.2.10,MacIntel,60,61025ae37ef11b136ea224fe,,,,,,,,,1463,-51.6015625,-71.375,1,0,0,response5disk,,3,-9.734375,-12.6328125,1,0,0,rectangle,-9.734375,-12.6328125,1,0,0,-9.734375,-12.6328125,1,0,0,1,26,186,131,1,,,,,,,,
,,,,,,,,,,,,,FF,,,,,,,,0.7505,,,,,,,,,,,,,,,,,,,,,,60fd6b02340bf3233276eba9,61036ef566dec8e5896fc4f5,2021-07-29_23h18.50.991,Simcolourproject_2stim_asymm_v5,2020.2.10,MacIntel,60,61025ae37ef11b136ea224fe,,,,,,,,,1701,78.77734375,-39.71484375,1,0,0,response3disk,,5,6.9609375,7.37890625,1,0,0,rectangle,6.9609375,7.37890625,1,0,0,6.9609375,7.37890625,1,0,0,1,27,187,47,1,,,,,,,,
,,,,,,,,,,,,,FF,,,,,,,,1.0515,,,,,,,,,,,,,,,,,,,,,,60fd6b02340bf3233276eba9,61036ef566dec8e5896fc4f5,2021-07-29_23h18.50.991,Simcolourproject_2stim_asymm_v5,2020.2.10,MacIntel,60,61025ae37ef11b136ea224fe,,,,,,,,,2079,49.47265625,-19.453125,1,0,0,response3disk,,5,5.64453125,8.8125,1,0,0,rectangle,5.64453125,8.8125,1,0,0,5.64453125,8.8125,1,0,0,1,28,188,109,1,,,,,,,,
,,,,,,,,,,,,,FF,,,,,,,,2.4676,,,,,,,,,,,,,,,,,,,,,,60fd6b02340bf3233276eba9,61036ef566dec8e5896fc4f5,2021-07-29_23h18.50.991,Simcolourproject_2stim_asymm_v5,2020.2.10,MacIntel,60,61025ae37ef11b136ea224fe,,,,,,,,,1978,58.5,-66.74609375,1,0,0,response3disk,,4,27.08984375,-14.109375,1,0,0,rectangle,27.08984375,-14.109375,1,0,0,27.08984375,-14.109375,1,0,0,1,29,189,104,1,,,,,,,,
,,,,,,,,,,,,,FF,,,,,,,,1.1172,,,,,,,,,,,,,,,,,,,,,,60fd6b02340bf3233276eba9,61036ef566dec8e5896fc4f5,2021-07-29_23h18.50.991,Simcolourproject_2stim_asymm_v5,2020.2.10,MacIntel,60,61025ae37ef11b136ea224fe,,,,,,,,,3669,-34.6015625,54.8671875,1,0,0,response7disk,,0,-10.1796875,2.30859375,1,0,0,rectangle,-70.12890625,39.57421875,1,0,0,4.515625,6.49609375,1,0,0,1,30,190,149,1,,response7disk_3,TRUE,1,1,"[123,60,320,251,296,55,185,68,158,110,180,202,308,281,191,239,321,28,153,102]",1.3681,rectangle
,,,,,,,,,,,,,FF,,,,,,,,1.6666,,,,,,,,,,,,,,,,,,,,,,60fd6b02340bf3233276eba9,61036ef566dec8e5896fc4f5,2021-07-29_23h18.50.991,Simcolourproject_2stim_asymm_v5,2020.2.10,MacIntel,60,61025ae37ef11b136ea224fe,,,,,,,,,4285,60.98828125,-15.37109375,1,0,0,response3disk,,5,5.30078125,-2.79296875,1,0,0,rectangle,5.30078125,-2.79296875,1,0,0,5.30078125,-2.79296875,1,0,0,1,31,191,25,1,,,,,,,,
,,,,,,,,,,,,,FF,,,,,,,,1.7349,,,,,,,,,,,,,,,,,,,,,,60fd6b02340bf3233276eba9,61036ef566dec8e5896fc4f5,2021-07-29_23h18.50.991,Simcolourproject_2stim_asymm_v5,2020.2.10,MacIntel,60,61025ae37ef11b136ea224fe,,,,,,,,,1316,75.0234375,22.84765625,1,0,0,response1disk,,6,23.46484375,10.953125,1,0,0,rectangle,23.46484375,10.953125,1,0,0,23.46484375,10.953125,1,0,0,1,32,192,82,1,,,,,,,,
,,,,,,,,,,,,,FF,,,,,,,,1.2006,,,,,,,,,,,,,,,,,,,,,,60fd6b02340bf3233276eba9,61036ef566dec8e5896fc4f5,2021-07-29_23h18.50.991,Simcolourproject_2stim_asymm_v5,2020.2.10,MacIntel,60,61025ae37ef11b136ea224fe,,,,,,,,,4050,-76.98828125,-51.140625,1,0,0,response5disk,,2,6.34765625,-3.546875,1,0,0,rectangle,6.34765625,-3.546875,1,0,0,6.34765625,-3.546875,1,0,0,1,33,193,33,1,,,,,,,,
,,,,,,,,,,,,,FF,,,,,,,,1.3005,,,,,,,,,,,,,,,,,,,,,,60fd6b02340bf3233276eba9,61036ef566dec8e5896fc4f5,2021-07-29_23h18.50.991,Simcolourproject_2stim_asymm_v5,2020.2.10,MacIntel,60,61025ae37ef11b136ea224fe,,,,,,,,,1389,-59.2890625,-81.8984375,1,0,0,response5disk,,3,-6.36328125,-5.25390625,1,0,0,rectangle,-6.36328125,-5.25390625,1,0,0,-6.36328125,-5.25390625,1,0,0,1,34,194,110,1,,,,,,,,
,,,,,,,,,,,,,FF,,,,,,,,1.0506,,,,,,,,,,,,,,,,,,,,,,60fd6b02340bf3233276eba9,61036ef566dec8e5896fc4f5,2021-07-29_23h18.50.991,Simcolourproject_2stim_asymm_v5,2020.2.10,MacIntel,60,61025ae37ef11b136ea224fe,,,,,,,,,4299,31.515625,-68.57421875,1,0,0,response3disk,,4,7.23828125,-0.140625,1,0,0,rectangle,7.23828125,-0.140625,1,0,0,7.23828125,-0.140625,1,0,0,1,35,195,134,1,,,,,,,,
,,,,,,,,,,,,,FF,,,,,,,,1.3853,,,,,,,,,,,,,,,,,,,,,,60fd6b02340bf3233276eba9,61036ef566dec8e5896fc4f5,2021-07-29_23h18.50.991,Simcolourproject_2stim_asymm_v5,2020.2.10,MacIntel,60,61025ae37ef11b136ea224fe,,,,,,,,,762,47.12109375,36.91015625,1,0,0,response1disk,,6,10.4140625,5.3046875,1,0,0,rectangle,10.4140625,5.3046875,1,0,0,10.4140625,5.3046875,1,0,0,1,36,196,17,1,,,,,,,,
,,,,,,,,,,,,,FF,,,,,,,,1.3659,,,,,,,,,,,,,,,,,,,,,,60fd6b02340bf3233276eba9,61036ef566dec8e5896fc4f5,2021-07-29_23h18.50.991,Simcolourproject_2stim_asymm_v5,2020.2.10,MacIntel,60,61025ae37ef11b136ea224fe,,,,,,,,,3429,-74.71875,-16.10546875,1,0,0,response5disk,,2,-4.1796875,-7.796875,1,0,0,rectangle,-4.1796875,-7.796875,1,0,0,-4.1796875,-7.796875,1,0,0,1,37,197,53,1,,,,,,,,
,,,,,,,,,,,,,FF,,,,,,,,0.9174,,,,,,,,,,,,,,,,,,,,,,60fd6b02340bf3233276eba9,61036ef566dec8e5896fc4f5,2021-07-29_23h18.50.991,Simcolourproject_2stim_asymm_v5,2020.2.10,MacIntel,60,61025ae37ef11b136ea224fe,,,,,,,,,2303,-24.18359375,-51.4453125,1,0,0,response5disk,,3,4.43359375,-6.0859375,1,0,0,rectangle,4.43359375,-6.0859375,1,0,0,4.43359375,-6.0859375,1,0,0,1,38,198,13,1,,,,,,,,
,,,,,,,,,,,,,FF,,,,,,,,0.7348,,,,,,,,,,,,,,,,,,,,,,60fd6b02340bf3233276eba9,61036ef566dec8e5896fc4f5,2021-07-29_23h18.50.991,Simcolourproject_2stim_asymm_v5,2020.2.10,MacIntel,60,61025ae37ef11b136ea224fe,,,,,,,,,4021,-85.81640625,25.58203125,1,0,0,response7disk,,1,-6.1640625,-0.13671875,1,0,0,rectangle,-6.1640625,-0.13671875,1,0,0,-6.1640625,-0.13671875,1,0,0,1,39,199,44,1,,,,,,,,
,,,,,,,,,,,,,FF,,,,,,,,0.8346,,,,,,,,,,,,,,,,,,,,,,60fd6b02340bf3233276eba9,61036ef566dec8e5896fc4f5,2021-07-29_23h18.50.991,Simcolourproject_2stim_asymm_v5,2020.2.10,MacIntel,60,61025ae37ef11b136ea224fe,,,,,,,,,1496,43.23828125,65.16015625,1,0,0,response1disk,,7,6.27734375,4.66015625,1,0,0,rectangle,6.27734375,4.66015625,1,0,0,6.27734375,4.66015625,1,0,0,1,40,200,69,1,,,,,,,,
,,,,,,,,,,,,,FF,,,,,,,,0.7987,,,,,,,,,,,,,,,,,,,,,,60fd6b02340bf3233276eba9,61036ef566dec8e5896fc4f5,2021-07-29_23h18.50.991,Simcolourproject_2stim_asymm_v5,2020.2.10,MacIntel,60,61025ae37ef11b136ea224fe,,,,,,,,,1124,53.8203125,-19.60546875,1,0,0,response3disk,,5,18.84765625,-6.9296875,1,0,0,rectangle,-31.27734375,64.54296875,1,0,0,-0.66796875,-1.0390625,1,0,0,1,41,201,11,1,,response7disk_3,TRUE,0,0,"[123,60,320,251,296,55,185,68,158,110,180,202,308,281,191,239,321,28,153,102]",1.2008,rectangle
,,,,,,,,,,,,,FF,,,,,,,,1.0514,,,,,,,,,,,,,,,,,,,,,,60fd6b02340bf3233276eba9,61036ef566dec8e5896fc4f5,2021-07-29_23h18.50.991,Simcolourproject_2stim_asymm_v5,2020.2.10,MacIntel,60,61025ae37ef11b136ea224fe,,,,,,,,,2955,-23.8671875,-71.85546875,1,0,0,response5disk,,3,-0.6015625,-5.58203125,1,0,0,rectangle,-0.6015625,-5.58203125,1,0,0,-0.6015625,-5.58203125,1,0,0,1,42,202,73,1,,,,,,,,
,,,,,,,,,,,,,FF,,,,,,,,0.9174,,,,,,,,,,,,,,,,,,,,,,60fd6b02340bf3233276eba9,61036ef566dec8e5896fc4f5,2021-07-29_23h18.50.991,Simcolourproject_2stim_asymm_v5,2020.2.10,MacIntel,60,61025ae37ef11b136ea224fe,,,,,,,,,344,-29.22265625,-51.81640625,1,0,0,response5disk,,3,7.87890625,10.83203125,1,0,0,rectangle,7.87890625,10.83203125,1,0,0,7.87890625,10.83203125,1,0,0,1,43,203,8,1,,,,,,,,
,,,,,,,,,,,,,FF,,,,,,,,1.952,,,,,,,,,,,,,,,,,,,,,,60fd6b02340bf3233276eba9,61036ef566dec8e5896fc4f5,2021-07-29_23h18.50.991,Simcolourproject_2stim_asymm_v5,2020.2.10,MacIntel,60,61025ae37ef11b136ea224fe,,,,,,,,,578,-51.046875,-64.86328125,1,0,0,response5disk,,3,-19.53515625,-6.65234375,1,0,0,rectangle,-19.53515625,-6.65234375,1,0,0,-19.53515625,-6.65234375,1,0,0,1,44,204,126,1,,,,,,,,
,,,,,,,,,,,,,FF,,,,,,,,0.5833,,,,,,,,,,,,,,,,,,,,,,60fd6b02340bf3233276eba9,61036ef566dec8e5896fc4f5,2021-07-29_23h18.50.991,Simcolourproject_2stim_asymm_v5,2020.2.10,MacIntel,60,61025ae37ef11b136ea224fe,,,,,,,,,2301,-64.0546875,-41.203125,1,0,0,response5disk,,2,15.796875,1.9140625,1,0,0,rectangle,15.796875,1.9140625,1,0,0,15.796875,1.9140625,1,0,0,1,45,205,151,1,,,,,,,,
,,,,,,,,,,,,,FF,,,,,,,,0.604,,,,,,,,,,,,,,,,,,,,,,60fd6b02340bf3233276eba9,61036ef566dec8e5896fc4f5,2021-07-29_23h18.50.991,Simcolourproject_2stim_asymm_v5,2020.2.10,MacIntel,60,61025ae37ef11b136ea224fe,,,,,,,,,1645,57.86328125,-25.30078125,1,0,0,response3disk,,5,13.33984375,-10.38671875,1,0,0,rectangle,13.33984375,-10.38671875,1,0,0,13.33984375,-10.38671875,1,0,0,1,46,206,113,1,,,,,,,,
,,,,,,,,,,,,,FF,,,,,,,,0.7849,,,,,,,,,,,,,,,,,,,,,,60fd6b02340bf3233276eba9,61036ef566dec8e5896fc4f5,2021-07-29_23h18.50.991,Simcolourproject_2stim_asymm_v5,2020.2.10,MacIntel,60,61025ae37ef11b136ea224fe,,,,,,,,,555,-77.74609375,-28.02734375,1,0,0,response5disk,,2,-1.421875,-5.47265625,1,0,0,rectangle,-1.421875,-5.47265625,1,0,0,-1.421875,-5.47265625,1,0,0,1,47,207,130,1,,,,,,,,
,,,,,,,,,,,,,FF,,,,,,,,2.0507,,,,,,,,,,,,,,,,,,,,,,60fd6b02340bf3233276eba9,61036ef566dec8e5896fc4f5,2021-07-29_23h18.50.991,Simcolourproject_2stim_asymm_v5,2020.2.10,MacIntel,60,61025ae37ef11b136ea224fe,,,,,,,,,2692,56.4375,22.73046875,1,0,0,response1disk,,6,-10.30859375,6.40625,1,0,0,rectangle,-10.30859375,6.40625,1,0,0,-10.30859375,6.40625,1,0,0,1,48,208,93,1,,,,,,,,
,,,,,,,,,,,,,FF,,,,,,,,1.484,,,,,,,,,,,,,,,,,,,,,,60fd6b02340bf3233276eba9,61036ef566dec8e5896fc4f5,2021-07-29_23h18.50.991,Simcolourproject_2stim_asymm_v5,2020.2.10,MacIntel,60,61025ae37ef11b136ea224fe,,,,,,,,,3625,-50.41796875,-18.90234375,1,0,0,response5disk,,2,16.22265625,3.984375,1,0,0,rectangle,16.22265625,3.984375,1,0,0,16.22265625,3.984375,1,0,0,1,49,209,21,1,,,,,,,,
,,,,,,,,,,,,,FF,,,,,,,,0.8334,,,,,,,,,,,,,,,,,,,,,,60fd6b02340bf3233276eba9,61036ef566dec8e5896fc4f5,2021-07-29_23h18.50.991,Simcolourproject_2stim_asymm_v5,2020.2.10,MacIntel,60,61025ae37ef11b136ea224fe,,,,,,,,,168,-55.203125,-21.01953125,1,0,0,response5disk,,2,1.625,-8.625,1,0,0,rectangle,1.625,-8.625,1,0,0,1.625,-8.625,1,0,0,1,50,210,83,1,,,,,,,,
,,,,,,,,,,,,,FF,,,,,,,,1.2516,,,,,,,,,,,,,,,,,,,,,,60fd6b02340bf3233276eba9,61036ef566dec8e5896fc4f5,2021-07-29_23h18.50.991,Simcolourproject_2stim_asymm_v5,2020.2.10,MacIntel,60,61025ae37ef11b136ea224fe,,,,,,,,,1391,-41.16796875,-92.78515625,1,0,0,response5disk,,3,-12.7265625,-11.6640625,1,0,0,rectangle,-12.7265625,-11.6640625,1,0,0,-12.7265625,-11.6640625,1,0,0,1,51,211,78,1,,,,,,,,
,,,,,,,,,,,,,FF,,,,,,,,1.4688,,,,,,,,,,,,,,,,,,,,,,60fd6b02340bf3233276eba9,61036ef566dec8e5896fc4f5,2021-07-29_23h18.50.991,Simcolourproject_2stim_asymm_v5,2020.2.10,MacIntel,60,61025ae37ef11b136ea224fe,,,,,,,,,4096,-35.2890625,-61.3125,1,0,0,response5disk,,3,-3.9453125,-4.8515625,1,0,0,rectangle,-3.9453125,-4.8515625,1,0,0,-3.9453125,-4.8515625,1,0,0,1,52,212,157,1,,,,,,,,
,,,,,,,,,,,,,FF,,,,,,,,1.2272,,,,,,,,,,,,,,,,,,,,,,60fd6b02340bf3233276eba9,61036ef566dec8e5896fc4f5,2021-07-29_23h18.50.991,Simcolourproject_2stim_asymm_v5,2020.2.10,MacIntel,60,61025ae37ef11b136ea224fe,,,,,,,,,2332,64.234375,-23.64453125,1,0,0,response3disk,,5,13.16796875,-10.5546875,1,0,0,rectangle,13.16796875,-10.5546875,1,0,0,13.16796875,-10.5546875,1,0,0,1,53,213,89,1,,,,,,,,
,,,,,,,,,,,,,FF,,,,,,,,0.7844,,,,,,,,,,,,,,,,,,,,,,60fd6b02340bf3233276eba9,61036ef566dec8e5896fc4f5,2021-07-29_23h18.50.991,Simcolourproject_2stim_asymm_v5,2020.2.10,MacIntel,60,61025ae37ef11b136ea224fe,,,,,,,,,1634,28.875,46.00390625,1,0,0,response1disk,,7,-0.59375,3.0625,1,0,0,rectangle,-0.59375,3.0625,1,0,0,-0.59375,3.0625,1,0,0,1,54,214,121,1,,,,,,,,
,,,,,,,,,,,,,FF,,,,,,,,1.5192,,,,,,,,,,,,,,,,,,,,,,60fd6b02340bf3233276eba9,61036ef566dec8e5896fc4f5,2021-07-29_23h18.50.991,Simcolourproject_2stim_asymm_v5,2020.2.10,MacIntel,60,61025ae37ef11b136ea224fe,,,,,,,,,2613,21.890625,-67.6875,1,0,0,response3disk,,4,14.56640625,-5.12109375,1,0,0,rectangle,14.56640625,-5.12109375,1,0,0,14.56640625,-5.12109375,1,0,0,1,55,215,31,1,,,,,,,,
,,,,,,,,,,,,,FF,,,,,,,,1.3182,,,,,,,,,,,,,,,,,,,,,,60fd6b02340bf3233276eba9,61036ef566dec8e5896fc4f5,2021-07-29_23h18.50.991,Simcolourproject_2stim_asymm_v5,2020.2.10,MacIntel,60,61025ae37ef11b136ea224fe,,,,,,,,,2343,75.08203125,24.421875,1,0,0,response1disk,,6,1.24609375,8.7890625,1,0,0,rectangle,1.24609375,8.7890625,1,0,0,1.24609375,8.7890625,1,0,0,1,56,216,10,1,,,,,,,,
,,,,,,,,,,,,,FF,,,,,,,,0.867,,,,,,,,,,,,,,,,,,,,,,60fd6b02340bf3233276eba9,61036ef566dec8e5896fc4f5,2021-07-29_23h18.50.991,Simcolourproject_2stim_asymm_v5,2020.2.10,MacIntel,60,61025ae37ef11b136ea224fe,,,,,,,,,3104,-45.15625,-60.62890625,1,0,0,response5disk,,3,0.359375,-3.828125,1,0,0,rectangle,0.359375,-3.828125,1,0,0,0.359375,-3.828125,1,0,0,1,57,217,119,1,,,,,,,,
,,,,,,,,,,,,,FF,,,,,,,,0.7836,,,,,,,,,,,,,,,,,,,,,,60fd6b02340bf3233276eba9,61036ef566dec8e5896fc4f5,2021-07-29_23h18.50.991,Simcolourproject_2stim_asymm_v5,2020.2.10,MacIntel,60,61025ae37ef11b136ea224fe,,,,,,,,,2345,56.05859375,-22.796875,1,0,0,response3disk,,5,1.828125,4.73828125,1,0,0,rectangle,1.828125,4.73828125,1,0,0,1.828125,4.73828125,1,0,0,1,58,218,147,1,,,,,,,,
,,,,,,,,,,,,,FF,,,,,,,,1.5155,,,,,,,,,,,,,,,,,,,,,,60fd6b02340bf3233276eba9,61036ef566dec8e5896fc4f5,2021-07-29_23h18.50.991,Simcolourproject_2stim_asymm_v5,2020.2.10,MacIntel,60,61025ae37ef11b136ea224fe,,,,,,,,,4360,-75.76171875,-33.109375,1,0,0,response5disk,,2,-5.0390625,2.4921875,1,0,0,rectangle,-5.0390625,2.4921875,1,0,0,-5.0390625,2.4921875,1,0,0,1,59,219,106,1,,,,,,,,
,,,,,,,,,,,,,FF,,,,,,,,1.7498,,,,,,,,,,,,,,,,,,,,,,60fd6b02340bf3233276eba9,61036ef566dec8e5896fc4f5,2021-07-29_23h18.50.991,Simcolourproject_2stim_asymm_v5,2020.2.10,MacIntel,60,61025ae37ef11b136ea224fe,,,,,,,,,4075,-37.703125,-69.59375,1,0,0,response5disk,,3,-13.47265625,-5.74609375,1,0,0,rectangle,-13.47265625,-5.74609375,1,0,0,-13.47265625,-5.74609375,1,0,0,1,60,220,49,1,,,,,,,,
,,,,,,,,,,,,,FF,,,,,,,,1.1188,,,,,,,,,,,,,,,,,,,,,,60fd6b02340bf3233276eba9,61036ef566dec8e5896fc4f5,2021-07-29_23h18.50.991,Simcolourproject_2stim_asymm_v5,2020.2.10,MacIntel,60,61025ae37ef11b136ea224fe,,,,,,,,,1856,50.8515625,-21.42578125,1,0,0,response3disk,,5,-4.7109375,7.31640625,1,0,0,rectangle,-4.7109375,7.31640625,1,0,0,-4.7109375,7.31640625,1,0,0,1,61,221,20,1,,,,,,,,
,,,,,,,,,,,,,FF,,,,,,,,1.017,,,,,,,,,,,,,,,,,,,,,,60fd6b02340bf3233276eba9,61036ef566dec8e5896fc4f5,2021-07-29_23h18.50.991,Simcolourproject_2stim_asymm_v5,2020.2.10,MacIntel,60,61025ae37ef11b136ea224fe,,,,,,,,,1822,-81.33203125,22.2734375,1,0,0,response7disk,,1,6.65625,4.95703125,1,0,0,rectangle,6.65625,4.95703125,1,0,0,6.65625,4.95703125,1,0,0,1,62,222,103,1,,,,,,,,
,,,,,,,,,,,,,FF,,,,,,,,0.9003,,,,,,,,,,,,,,,,,,,,,,60fd6b02340bf3233276eba9,61036ef566dec8e5896fc4f5,2021-07-29_23h18.50.991,Simcolourproject_2stim_asymm_v5,2020.2.10,MacIntel,60,61025ae37ef11b136ea224fe,,,,,,,,,4208,-69.01171875,-48.91015625,1,0,0,response5disk,,2,8.734375,13.3046875,1,0,0,rectangle,8.734375,13.3046875,1,0,0,8.734375,13.3046875,1,0,0,1,63,223,117,1,,,,,,,,
,,,,,,,,,,,,,FF,,,,,,,,0.8493,,,,,,,,,,,,,,,,,,,,,,60fd6b02340bf3233276eba9,61036ef566dec8e5896fc4f5,2021-07-29_23h18.50.991,Simcolourproject_2stim_asymm_v5,2020.2.10,MacIntel,60,61025ae37ef11b136ea224fe,,,,,,,,,1212,-58.83984375,-23.80078125,1,0,0,response5disk,,2,-7.609375,-0.37890625,1,0,0,rectangle,-7.609375,-0.37890625,1,0,0,-7.609375,-0.37890625,1,0,0,1,64,224,0,1,,,,,,,,
,,,,,,,,,,,,,FF,,,,,,,,1.0511,,,,,,,,,,,,,,,,,,,,,,60fd6b02340bf3233276eba9,61036ef566dec8e5896fc4f5,2021-07-29_23h18.50.991,Simcolourproject_2stim_asymm_v5,2020.2.10,MacIntel,60,61025ae37ef11b136ea224fe,,,,,,,,,2285,70.40234375,-43.3984375,1,0,0,response3disk,,5,0.0390625,14.62890625,1,0,0,rectangle,0.0390625,14.62890625,1,0,0,0.0390625,14.62890625,1,0,0,1,65,225,92,1,,,,,,,,
,,,,,,,,,,,,,FF,,,,,,,,1.3019,,,,,,,,,,,,,,,,,,,,,,60fd6b02340bf3233276eba9,61036ef566dec8e5896fc4f5,2021-07-29_23h18.50.991,Simcolourproject_2stim_asymm_v5,2020.2.10,MacIntel,60,61025ae37ef11b136ea224fe,,,,,,,,,1967,58.9609375,-21.5234375,1,0,0,response3disk,,5,10.90234375,-12.16015625,1,0,0,rectangle,10.90234375,-12.16015625,1,0,0,10.90234375,-12.16015625,1,0,0,1,66,226,150,1,,,,,,,,
,,,,,,,,,,,,,FF,,,,,,,,0.936,,,,,,,,,,,,,,,,,,,,,,60fd6b02340bf3233276eba9,61036ef566dec8e5896fc4f5,2021-07-29_23h18.50.991,Simcolourproject_2stim_asymm_v5,2020.2.10,MacIntel,60,61025ae37ef11b136ea224fe,,,,,,,,,3183,30.2890625,49.76171875,1,0,0,response1disk,,7,21.3203125,2.15625,1,0,0,rectangle,21.3203125,2.15625,1,0,0,21.3203125,2.15625,1,0,0,1,67,227,27,1,,,,,,,,
,,,,,,,,,,,,,FF,,,,,,,,1.0164,,,,,,,,,,,,,,,,,,,,,,60fd6b02340bf3233276eba9,61036ef566dec8e5896fc4f5,2021-07-29_23h18.50.991,Simcolourproject_2stim_asymm_v5,2020.2.10,MacIntel,60,61025ae37ef11b136ea224fe,,,,,,,,,2066,24.7734375,71.14453125,1,0,0,response1disk,,7,4.16015625,-10,1,0,0,rectangle,4.16015625,-10,1,0,0,4.16015625,-10,1,0,0,1,68,228,9,1,,,,,,,,
,,,,,,,,,,,,,FF,,,,,,,,1.2838,,,,,,,,,,,,,,,,,,,,,,60fd6b02340bf3233276eba9,61036ef566dec8e5896fc4f5,2021-07-29_23h18.50.991,Simcolourproject_2stim_asymm_v5,2020.2.10,MacIntel,60,61025ae37ef11b136ea224fe,,,,,,,,,746,50.875,-42.16796875,1,0,0,response3disk,,5,5.45703125,-5.25390625,1,0,0,rectangle,5.45703125,-5.25390625,1,0,0,5.45703125,-5.25390625,1,0,0,1,69,229,125,1,,,,,,,,
,,,,,,,,,,,,,FF,,,,,,,,0.9503,,,,,,,,,,,,,,,,,,,,,,60fd6b02340bf3233276eba9,61036ef566dec8e5896fc4f5,2021-07-29_23h18.50.991,Simcolourproject_2stim_asymm_v5,2020.2.10,MacIntel,60,61025ae37ef11b136ea224fe,,,,,,,,,1129,55.4375,-24.5703125,1,0,0,response3disk,,5,25.984375,-7.68359375,1,0,0,rectangle,25.984375,-7.68359375,1,0,0,25.984375,-7.68359375,1,0,0,1,70,230,46,1,,,,,,,,
,,,,,,,,,,,,,FF,,,,,,,,0.8849,,,,,,,,,,,,,,,,,,,,,,60fd6b02340bf3233276eba9,61036ef566dec8e5896fc4f5,2021-07-29_23h18.50.991,Simcolourproject_2stim_asymm_v5,2020.2.10,MacIntel,60,61025ae37ef11b136ea224fe,,,,,,,,,3479,21.59765625,-72.41015625,1,0,0,response3disk,,4,2.53515625,-3.03515625,1,0,0,rectangle,2.53515625,-3.03515625,1,0,0,2.53515625,-3.03515625,1,0,0,1,71,231,35,1,,,,,,,,
,,,,,,,,,,,,,FF,,,,,,,,0.8011,,,,,,,,,,,,,,,,,,,,,,60fd6b02340bf3233276eba9,61036ef566dec8e5896fc4f5,2021-07-29_23h18.50.991,Simcolourproject_2stim_asymm_v5,2020.2.10,MacIntel,60,61025ae37ef11b136ea224fe,,,,,,,,,34,38.85546875,68.140625,1,0,0,response1disk,,7,2.41015625,9.19140625,1,0,0,rectangle,2.41015625,9.19140625,1,0,0,2.41015625,9.19140625,1,0,0,1,72,232,81,1,,,,,,,,
,,,,,,,,,,,,,FF,,,,,,,,2.1337,,,,,,,,,,,,,,,,,,,,,,60fd6b02340bf3233276eba9,61036ef566dec8e5896fc4f5,2021-07-29_23h18.50.991,Simcolourproject_2stim_asymm_v5,2020.2.10,MacIntel,60,61025ae37ef11b136ea224fe,,,,,,,,,3718,91.1484375,27.99609375,1,0,0,response1disk,,6,15.734375,15.51953125,1,0,0,rectangle,15.734375,15.51953125,1,0,0,15.734375,15.51953125,1,0,0,1,73,233,152,1,,,,,,,,
,,,,,,,,,,,,,FF,,,,,,,,1.3669,,,,,,,,,,,,,,,,,,,,,,60fd6b02340bf3233276eba9,61036ef566dec8e5896fc4f5,2021-07-29_23h18.50.991,Simcolourproject_2stim_asymm_v5,2020.2.10,MacIntel,60,61025ae37ef11b136ea224fe,,,,,,,,,669,54.35546875,28.62109375,1,0,0,response1disk,,6,13.41796875,4.55078125,1,0,0,rectangle,13.41796875,4.55078125,1,0,0,13.41796875,4.55078125,1,0,0,1,74,234,75,1,,,,,,,,
,,,,,,,,,,,,,FF,,,,,,,,1.1173,,,,,,,,,,,,,,,,,,,,,,60fd6b02340bf3233276eba9,61036ef566dec8e5896fc4f5,2021-07-29_23h18.50.991,Simcolourproject_2stim_asymm_v5,2020.2.10,MacIntel,60,61025ae37ef11b136ea224fe,,,,,,,,,4348,-35.4375,-54.52734375,1,0,0,response5disk,,3,-0.63671875,7.875,1,0,0,rectangle,-0.63671875,7.875,1,0,0,-0.63671875,7.875,1,0,0,1,75,235,146,1,,,,,,,,
,,,,,,,,,,,,,FF,,,,,,,,0.9167,,,,,,,,,,,,,,,,,,,,,,60fd6b02340bf3233276eba9,61036ef566dec8e5896fc4f5,2021-07-29_23h18.50.991,Simcolourproject_2stim_asymm_v5,2020.2.10,MacIntel,60,61025ae37ef11b136ea224fe,,,,,,,,,2255,29.25390625,55.2421875,1,0,0,response1disk,,7,13.421875,13.04296875,1,0,0,rectangle,13.421875,13.04296875,1,0,0,13.421875,13.04296875,1,0,0,1,76,236,72,1,,,,,,,,
,,,,,,,,,,,,,FF,,,,,,,,1.3343,,,,,,,,,,,,,,,,,,,,,,60fd6b02340bf3233276eba9,61036ef566dec8e5896fc4f5,2021-07-29_23h18.50.991,Simcolourproject_2stim_asymm_v5,2020.2.10,MacIntel,60,61025ae37ef11b136ea224fe,,,,,,,,,1437,66.2578125,-31.265625,1,0,0,response3disk,,5,12.8984375,-3,1,0,0,rectangle,12.8984375,-3,1,0,0,12.8984375,-3,1,0,0,1,77,237,3,1,,,,,,,,
,,,,,,,,,,,,,FF,,,,,,,,1.2846,,,,,,,,,,,,,,,,,,,,,,60fd6b02340bf3233276eba9,61036ef566dec8e5896fc4f5,2021-07-29_23h18.50.991,Simcolourproject_2stim_asymm_v5,2020.2.10,MacIntel,60,61025ae37ef11b136ea224fe,,,,,,,,,3160,21.0546875,-60.375,1,0,0,response3disk,,4,11.625,-14.375,1,0,0,rectangle,65.2265625,25.44921875,1,0,0,4.9609375,-3.671875,1,0,0,1,78,238,62,1,,response1disk_3,TRUE,6,6,"[123,60,320,251,296,55,185,68,158,110,180,202,308,281,191,239,321,28,153,102]",1.2655,rectangle
,,,,,,,,,,,,,FF,,,,,,,,1.382,,,,,,,,,,,,,,,,,,,,,,60fd6b02340bf3233276eba9,61036ef566dec8e5896fc4f5,2021-07-29_23h18.50.991,Simcolourproject_2stim_asymm_v5,2020.2.10,MacIntel,60,61025ae37ef11b136ea224fe,,,,,,,,,1530,-29.80859375,-59.9140625,1,0,0,response5disk,,3,-25.9296875,3.3671875,1,0,0,rectangle,-25.9296875,3.3671875,1,0,0,-25.9296875,3.3671875,1,0,0,1,79,239,101,1,,,,,,,,
,,,,,,,,,,,,,FF,,,,,,,,1.0158,,,,,,,,,,,,,,,,,,,,,,60fd6b02340bf3233276eba9,61036ef566dec8e5896fc4f5,2021-07-29_23h18.50.991,Simcolourproject_2stim_asymm_v5,2020.2.10,MacIntel,60,61025ae37ef11b136ea224fe,,,,,,,,,2472,52.6875,-72.3046875,1,0,0,response3disk,,4,1.67578125,-8.95703125,1,0,0,rectangle,1.67578125,-8.95703125,1,0,0,1.67578125,-8.95703125,1,0,0,1,80,240,57,1,,,,,,,,
,,,,,,,,,,,,,FF,,,,,,,,1.317,,,,,,,,,,,,,,,,,,,,,,60fd6b02340bf3233276eba9,61036ef566dec8e5896fc4f5,2021-07-29_23h18.50.991,Simcolourproject_2stim_asymm_v5,2020.2.10,MacIntel,60,61025ae37ef11b136ea224fe,,,,,,,,,1250,64.03515625,-28.0546875,1,0,0,response3disk,,5,22.8671875,-2.20703125,1,0,0,rectangle,22.8671875,-2.20703125,1,0,0,22.8671875,-2.20703125,1,0,0,1,81,241,118,1,,,,,,,,
,,,,,,,,,,,,,FF,,,,,,,,0.8181,,,,,,,,,,,,,,,,,,,,,,60fd6b02340bf3233276eba9,61036ef566dec8e5896fc4f5,2021-07-29_23h18.50.991,Simcolourproject_2stim_asymm_v5,2020.2.10,MacIntel,60,61025ae37ef11b136ea224fe,,,,,,,,,174,-25.0546875,-61.14453125,1,0,0,response5disk,,3,-4.03515625,-8.4296875,1,0,0,rectangle,-4.03515625,-8.4296875,1,0,0,-4.03515625,-8.4296875,1,0,0,1,82,242,142,1,,,,,,,,
,,,,,,,,,,,,,FF,,,,,,,,0.751,,,,,,,,,,,,,,,,,,,,,,60fd6b02340bf3233276eba9,61036ef566dec8e5896fc4f5,2021-07-29_23h18.50.991,Simcolourproject_2stim_asymm_v5,2020.2.10,MacIntel,60,61025ae37ef11b136ea224fe,,,,,,,,,3391,-91.29296875,-35.36328125,1,0,0,response5disk,,2,-14.73828125,-14.734375,1,0,0,rectangle,-14.73828125,-14.734375,1,0,0,-14.73828125,-14.734375,1,0,0,1,83,243,94,1,,,,,,,,
,,,,,,,,,,,,,FF,,,,,,,,1.1844,,,,,,,,,,,,,,,,,,,,,,60fd6b02340bf3233276eba9,61036ef566dec8e5896fc4f5,2021-07-29_23h18.50.991,Simcolourproject_2stim_asymm_v5,2020.2.10,MacIntel,60,61025ae37ef11b136ea224fe,,,,,,,,,327,31.12109375,45.82421875,1,0,0,response1disk,,7,7.38671875,9.8046875,1,0,0,rectangle,7.38671875,9.8046875,1,0,0,7.38671875,9.8046875,1,0,0,1,84,244,41,1,,,,,,,,
,,,,,,,,,,,,,FF,,,,,,,,0.9003,,,,,,,,,,,,,,,,,,,,,,60fd6b02340bf3233276eba9,61036ef566dec8e5896fc4f5,2021-07-29_23h18.50.991,Simcolourproject_2stim_asymm_v5,2020.2.10,MacIntel,60,61025ae37ef11b136ea224fe,,,,,,,,,979,34.2109375,-58.86328125,1,0,0,response3disk,,4,25.43359375,9.9296875,1,0,0,rectangle,25.43359375,9.9296875,1,0,0,25.43359375,9.9296875,1,0,0,1,85,245,30,1,,,,,,,,
,,,,,,,,,,,,,FF,,,,,,,,0.9674,,,,,,,,,,,,,,,,,,,,,,60fd6b02340bf3233276eba9,61036ef566dec8e5896fc4f5,2021-07-29_23h18.50.991,Simcolourproject_2stim_asymm_v5,2020.2.10,MacIntel,60,61025ae37ef11b136ea224fe,,,,,,,,,808,-67.53125,31.19140625,1,0,0,response7disk,,1,-6.734375,13.3515625,1,0,0,rectangle,-6.734375,13.3515625,1,0,0,-6.734375,13.3515625,1,0,0,1,86,246,59,1,,,,,,,,
,,,,,,,,,,,,,FF,,,,,,,,1.1673,,,,,,,,,,,,,,,,,,,,,,60fd6b02340bf3233276eba9,61036ef566dec8e5896fc4f5,2021-07-29_23h18.50.991,Simcolourproject_2stim_asymm_v5,2020.2.10,MacIntel,60,61025ae37ef11b136ea224fe,,,,,,,,,4214,37.609375,55.875,1,0,0,response1disk,,7,13.36328125,15.23828125,1,0,0,rectangle,13.36328125,15.23828125,1,0,0,13.36328125,15.23828125,1,0,0,1,87,247,141,1,,,,,,,,
,,,,,,,,,,,,,FF,,,,,,,,1.1338,,,,,,,,,,,,,,,,,,,,,,60fd6b02340bf3233276eba9,61036ef566dec8e5896fc4f5,2021-07-29_23h18.50.991,Simcolourproject_2stim_asymm_v5,2020.2.10,MacIntel,60,61025ae37ef11b136ea224fe,,,,,,,,,2665,25.84765625,-71.484375,1,0,0,response3disk,,4,7.81640625,5.3203125,1,0,0,rectangle,7.81640625,5.3203125,1,0,0,7.81640625,5.3203125,1,0,0,1,88,248,91,1,,,,,,,,
