key_resp.keys,key_resp.rt,key_resp_14.keys,key_resp_14.rt,key_resp_15.keys,key_resp_15.rt,key_resp_17.keys,key_resp_17.rt,key_resp_9.keys,key_resp_9.rt,key_resp_10.keys,key_resp_10.rt,practice_comparison,Ecc,mouse_5.x,mouse_5.y,mouse_5.leftButton,mouse_5.midButton,mouse_5.rightButton,mouse_5.clicked_name,pracsimilarity,response_time,mouse_10.x,mouse_10.y,mouse_10.leftButton,mouse_10.midButton,mouse_10.rightButton,mouse_10.clicked_name,mouse_7.x,mouse_7.y,mouse_7.leftButton,mouse_7.midButton,mouse_7.rightButton,mouse_6.x,mouse_6.y,mouse_6.leftButton,mouse_6.midButton,mouse_6.rightButton,duringprac.thisRepN,duringprac.thisTrialN,duringprac.thisN,duringprac.thisIndex,duringprac.ran,participant,session,date,expName,psychopyVersion,OS,frameRate,study_id,mouse_7.clicked_name,catchpracsimilarity,catch_response_time,catchnumberprac,catchtrialorderprac,mouse_6.clicked_name,key_resp_22.keys,key_resp_22.rt,realcomparison,mouse.x,mouse.y,mouse.leftButton,mouse.midButton,mouse.rightButton,mouse.clicked_name,Colour2,similarity,mouse_2.x,mouse_2.y,mouse_2.leftButton,mouse_2.midButton,mouse_2.rightButton,mouse_2.clicked_name,mouse_3.x,mouse_3.y,mouse_3.leftButton,mouse_3.midButton,mouse_3.rightButton,mouse_11.x,mouse_11.y,mouse_11.leftButton,mouse_11.midButton,mouse_11.rightButton,trials_2.thisRepN,trials_2.thisTrialN,trials_2.thisN,trials_2.thisIndex,trials_2.ran,Colour1,mouse_3.clicked_name,catchornah,catchsimilarity,catchnumber,catchtrialorder,catchRT,mouse_11.clicked_name
space,2.2249,space,11.6602,space,14.0712,space,11.2167,space,1.8815,space,6.3169,83,PF,91,32,1,0,0,response1disk_5,6,6.9393,0,0,1,0,0,rectangle_8,0,0,1,0,0,0,0,1,0,0,0,0,0,1,1,60fdb4958e221c323ee7e1c5,61036f03db302659b0568e6b,2021-07-29_22h19.26.455,Simcolourproject_2stim_asymm_v5,2020.2.10,Win32,60,61025ae37ef11b136ea224fe,,,,,,,,,,,,,,,,,,,,,,,,,,,,,,,,,,,,,,,,,,,,,,
,,,,,,,,,,,,159,FF,62,-44,1,0,0,response3disk_5,5,2.4406,-11,4,1,0,0,rectangle_8,81,-41,1,0,0,12,2,1,0,0,0,1,1,0,1,60fdb4958e221c323ee7e1c5,61036f03db302659b0568e6b,2021-07-29_22h19.26.455,Simcolourproject_2stim_asymm_v5,2020.2.10,Win32,60,61025ae37ef11b136ea224fe,response3disk_7,5,3.4535,5,"[2,5]",rectangle_4,,,,,,,,,,,,,,,,,,,,,,,,,,,,,,,,,,,,,,,,
,,,,,,,,,,,,110,PF,-61,-46,1,0,0,response5disk_5,2,4.9888,2,2,1,0,0,rectangle_8,2,2,1,0,0,2,2,1,0,0,0,2,2,2,1,60fdb4958e221c323ee7e1c5,61036f03db302659b0568e6b,2021-07-29_22h19.26.455,Simcolourproject_2stim_asymm_v5,2020.2.10,Win32,60,61025ae37ef11b136ea224fe,,,,,,,,,,,,,,,,,,,,,,,,,,,,,,,,,,,,,,,,,,,,,,
,,,,,,,,,,,,33,FF,47,-71,1,0,0,response3disk_5,4,4.6657,2,4,1,0,0,rectangle_8,2,4,1,0,0,2,4,1,0,0,0,3,3,3,1,60fdb4958e221c323ee7e1c5,61036f03db302659b0568e6b,2021-07-29_22h19.26.455,Simcolourproject_2stim_asymm_v5,2020.2.10,Win32,60,61025ae37ef11b136ea224fe,,,,,,,,,,,,,,,,,,,,,,,,,,,,,,,,,,,,,,,,,,,,,,
,,,,,,,,,,,,22,FF,96,-32,1,0,0,response3disk_5,5,3.3007,-2,13,1,0,0,rectangle_8,51,-27,1,0,0,4,-4,1,0,0,0,4,4,5,1,60fdb4958e221c323ee7e1c5,61036f03db302659b0568e6b,2021-07-29_22h19.26.455,Simcolourproject_2stim_asymm_v5,2020.2.10,Win32,60,61025ae37ef11b136ea224fe,response3disk_7,5,4.264,5,"[2,5]",rectangle_4,,,,,,,,,,,,,,,,,,,,,,,,,,,,,,,,,,,,,,,,
,,,,,,,,,,,,41,PF,-73,46,1,0,0,response7disk_5,1,5.1973,9,-4,1,0,0,rectangle_8,9,-4,1,0,0,9,-4,1,0,0,0,5,5,4,1,60fdb4958e221c323ee7e1c5,61036f03db302659b0568e6b,2021-07-29_22h19.26.455,Simcolourproject_2stim_asymm_v5,2020.2.10,Win32,60,61025ae37ef11b136ea224fe,,,,,,,,,,,,,,,,,,,,,,,,,,,,,,,,,,,,,,,,,,,,,,
,,,,,,,,,,,,98,PF,28,-78,1,0,0,response3disk_5,4,4.295,11,3,1,0,0,rectangle_8,11,3,1,0,0,11,3,1,0,0,0,6,6,6,1,60fdb4958e221c323ee7e1c5,61036f03db302659b0568e6b,2021-07-29_22h19.26.455,Simcolourproject_2stim_asymm_v5,2020.2.10,Win32,60,61025ae37ef11b136ea224fe,,,,,,,,,,,,,,,,,,,,,,,,,,,,,,,,,,,,,,,,,,,,,,
,,,,,,,,,,,,,FF,,,,,,,,3.0747,,,,,,,,,,,,,,,,,,,,,,60fdb4958e221c323ee7e1c5,61036f03db302659b0568e6b,2021-07-29_22h19.26.455,Simcolourproject_2stim_asymm_v5,2020.2.10,Win32,60,61025ae37ef11b136ea224fe,,,,,,,space,3.024,298,61,-92,1,0,0,response3disk,,4,18,-1,1,0,0,rectangle,18,-1,1,0,0,18,-1,1,0,0,0,0,0,158,1,,,,,,,,
,,,,,,,,,,,,,FF,,,,,,,,3.5936,,,,,,,,,,,,,,,,,,,,,,60fdb4958e221c323ee7e1c5,61036f03db302659b0568e6b,2021-07-29_22h19.26.455,Simcolourproject_2stim_asymm_v5,2020.2.10,Win32,60,61025ae37ef11b136ea224fe,,,,,,,,,3497,68,48,1,0,0,response1disk,,6,3,-5,1,0,0,rectangle,3,-5,1,0,0,3,-5,1,0,0,0,1,1,11,1,,,,,,,,
,,,,,,,,,,,,,FF,,,,,,,,2.9097,,,,,,,,,,,,,,,,,,,,,,60fdb4958e221c323ee7e1c5,61036f03db302659b0568e6b,2021-07-29_22h19.26.455,Simcolourproject_2stim_asymm_v5,2020.2.10,Win32,60,61025ae37ef11b136ea224fe,,,,,,,,,260,-58,27,1,0,0,response7disk,,1,9,5,1,0,0,rectangle,9,5,1,0,0,9,5,1,0,0,0,2,2,122,1,,,,,,,,
,,,,,,,,,,,,,FF,,,,,,,,3.225,,,,,,,,,,,,,,,,,,,,,,60fdb4958e221c323ee7e1c5,61036f03db302659b0568e6b,2021-07-29_22h19.26.455,Simcolourproject_2stim_asymm_v5,2020.2.10,Win32,60,61025ae37ef11b136ea224fe,,,,,,,,,1409,106,-29,1,0,0,response3disk,,5,-4,5,1,0,0,rectangle,-4,5,1,0,0,-4,5,1,0,0,0,3,3,86,1,,,,,,,,
,,,,,,,,,,,,,FF,,,,,,,,1.5126,,,,,,,,,,,,,,,,,,,,,,60fdb4958e221c323ee7e1c5,61036f03db302659b0568e6b,2021-07-29_22h19.26.455,Simcolourproject_2stim_asymm_v5,2020.2.10,Win32,60,61025ae37ef11b136ea224fe,,,,,,,,,2299,-66,30,1,0,0,response7disk,,1,-5,2,1,0,0,rectangle,-5,2,1,0,0,-5,2,1,0,0,0,4,4,89,1,,,,,,,,
,,,,,,,,,,,,,FF,,,,,,,,8.0859,,,,,,,,,,,,,,,,,,,,,,60fdb4958e221c323ee7e1c5,61036f03db302659b0568e6b,2021-07-29_22h19.26.455,Simcolourproject_2stim_asymm_v5,2020.2.10,Win32,60,61025ae37ef11b136ea224fe,,,,,,,,,1206,45,-77,1,0,0,response3disk,,4,-5,1,1,0,0,rectangle,-5,1,1,0,0,-5,1,1,0,0,0,5,5,153,1,,,,,,,,
,,,,,,,,,,,,,FF,,,,,,,,3.2261,,,,,,,,,,,,,,,,,,,,,,60fdb4958e221c323ee7e1c5,61036f03db302659b0568e6b,2021-07-29_22h19.26.455,Simcolourproject_2stim_asymm_v5,2020.2.10,Win32,60,61025ae37ef11b136ea224fe,,,,,,,,,2521,62,32,1,0,0,response1disk,,6,-15,1,1,0,0,rectangle,-15,1,1,0,0,-15,1,1,0,0,0,6,6,15,1,,,,,,,,
,,,,,,,,,,,,,FF,,,,,,,,1.8719,,,,,,,,,,,,,,,,,,,,,,60fdb4958e221c323ee7e1c5,61036f03db302659b0568e6b,2021-07-29_22h19.26.455,Simcolourproject_2stim_asymm_v5,2020.2.10,Win32,60,61025ae37ef11b136ea224fe,,,,,,,,,1275,34,-75,1,0,0,response3disk,,4,-8,3,1,0,0,rectangle,-8,3,1,0,0,-8,3,1,0,0,0,7,7,61,1,,,,,,,,
,,,,,,,,,,,,,FF,,,,,,,,3.7498,,,,,,,,,,,,,,,,,,,,,,60fdb4958e221c323ee7e1c5,61036f03db302659b0568e6b,2021-07-29_22h19.26.455,Simcolourproject_2stim_asymm_v5,2020.2.10,Win32,60,61025ae37ef11b136ea224fe,,,,,,,,,338,94,54,1,0,0,response1disk,,6,16,2,1,0,0,rectangle,16,2,1,0,0,16,2,1,0,0,0,8,8,152,1,,,,,,,,
,,,,,,,,,,,,,FF,,,,,,,,2.5984,,,,,,,,,,,,,,,,,,,,,,60fdb4958e221c323ee7e1c5,61036f03db302659b0568e6b,2021-07-29_22h19.26.455,Simcolourproject_2stim_asymm_v5,2020.2.10,Win32,60,61025ae37ef11b136ea224fe,,,,,,,,,457,71,53,1,0,0,response1disk,,6,13,0,1,0,0,rectangle,13,0,1,0,0,13,0,1,0,0,0,9,9,27,1,,,,,,,,
,,,,,,,,,,,,,FF,,,,,,,,4.5105,,,,,,,,,,,,,,,,,,,,,,60fdb4958e221c323ee7e1c5,61036f03db302659b0568e6b,2021-07-29_22h19.26.455,Simcolourproject_2stim_asymm_v5,2020.2.10,Win32,60,61025ae37ef11b136ea224fe,,,,,,,,,1655,75,36,1,0,0,response1disk,,6,3,1,1,0,0,rectangle,3,1,1,0,0,3,1,1,0,0,0,10,10,80,1,,,,,,,,
,,,,,,,,,,,,,FF,,,,,,,,2.8419,,,,,,,,,,,,,,,,,,,,,,60fdb4958e221c323ee7e1c5,61036f03db302659b0568e6b,2021-07-29_22h19.26.455,Simcolourproject_2stim_asymm_v5,2020.2.10,Win32,60,61025ae37ef11b136ea224fe,,,,,,,,,1076,38,-79,1,0,0,response3disk,,4,-4,8,1,0,0,rectangle,-4,8,1,0,0,-4,8,1,0,0,0,11,11,121,1,,,,,,,,
,,,,,,,,,,,,,FF,,,,,,,,1.6549,,,,,,,,,,,,,,,,,,,,,,60fdb4958e221c323ee7e1c5,61036f03db302659b0568e6b,2021-07-29_22h19.26.455,Simcolourproject_2stim_asymm_v5,2020.2.10,Win32,60,61025ae37ef11b136ea224fe,,,,,,,,,2337,47,77,1,0,0,response1disk,,7,16,-2,1,0,0,rectangle,-28,84,1,0,0,5,5,1,0,0,0,12,12,34,1,,response7disk_3,TRUE,0,0,"[248,124,122,100,47,188,312,279,50,89,67,299,247,13,76,39,39,270,116,248]",3.6101,rectangle
,,,,,,,,,,,,,FF,,,,,,,,3.5322,,,,,,,,,,,,,,,,,,,,,,60fdb4958e221c323ee7e1c5,61036f03db302659b0568e6b,2021-07-29_22h19.26.455,Simcolourproject_2stim_asymm_v5,2020.2.10,Win32,60,61025ae37ef11b136ea224fe,,,,,,,,,1205,103,-39,1,0,0,response3disk,,5,-14,-2,1,0,0,rectangle,-14,-2,1,0,0,-14,-2,1,0,0,0,13,13,71,1,,,,,,,,
,,,,,,,,,,,,,FF,,,,,,,,1.5544,,,,,,,,,,,,,,,,,,,,,,60fdb4958e221c323ee7e1c5,61036f03db302659b0568e6b,2021-07-29_22h19.26.455,Simcolourproject_2stim_asymm_v5,2020.2.10,Win32,60,61025ae37ef11b136ea224fe,,,,,,,,,3972,-39,-87,1,0,0,response5disk,,3,0,8,1,0,0,rectangle,0,8,1,0,0,0,8,1,0,0,0,14,14,83,1,,,,,,,,
,,,,,,,,,,,,,FF,,,,,,,,3.058,,,,,,,,,,,,,,,,,,,,,,60fdb4958e221c323ee7e1c5,61036f03db302659b0568e6b,2021-07-29_22h19.26.455,Simcolourproject_2stim_asymm_v5,2020.2.10,Win32,60,61025ae37ef11b136ea224fe,,,,,,,,,1378,27,-56,1,0,0,response3disk,,4,12,4,1,0,0,rectangle,12,4,1,0,0,12,4,1,0,0,0,15,15,29,1,,,,,,,,
,,,,,,,,,,,,,FF,,,,,,,,1.4459,,,,,,,,,,,,,,,,,,,,,,60fdb4958e221c323ee7e1c5,61036f03db302659b0568e6b,2021-07-29_22h19.26.455,Simcolourproject_2stim_asymm_v5,2020.2.10,Win32,60,61025ae37ef11b136ea224fe,,,,,,,,,2528,54,36,1,0,0,response1disk,,6,0,3,1,0,0,rectangle,0,3,1,0,0,0,3,1,0,0,0,16,16,9,1,,,,,,,,
,,,,,,,,,,,,,FF,,,,,,,,1.2201,,,,,,,,,,,,,,,,,,,,,,60fdb4958e221c323ee7e1c5,61036f03db302659b0568e6b,2021-07-29_22h19.26.455,Simcolourproject_2stim_asymm_v5,2020.2.10,Win32,60,61025ae37ef11b136ea224fe,,,,,,,,,4051,-64,-39,1,0,0,response5disk,,2,-8,13,1,0,0,rectangle,-8,13,1,0,0,-8,13,1,0,0,0,17,17,55,1,,,,,,,,
,,,,,,,,,,,,,FF,,,,,,,,2.5548,,,,,,,,,,,,,,,,,,,,,,60fdb4958e221c323ee7e1c5,61036f03db302659b0568e6b,2021-07-29_22h19.26.455,Simcolourproject_2stim_asymm_v5,2020.2.10,Win32,60,61025ae37ef11b136ea224fe,,,,,,,,,766,82,-46,1,0,0,response3disk,,5,18,3,1,0,0,rectangle,18,3,1,0,0,18,3,1,0,0,0,18,18,21,1,,,,,,,,
,,,,,,,,,,,,,FF,,,,,,,,1.6049,,,,,,,,,,,,,,,,,,,,,,60fdb4958e221c323ee7e1c5,61036f03db302659b0568e6b,2021-07-29_22h19.26.455,Simcolourproject_2stim_asymm_v5,2020.2.10,Win32,60,61025ae37ef11b136ea224fe,,,,,,,,,558,74,40,1,0,0,response1disk,,6,0,3,1,0,0,rectangle,0,3,1,0,0,0,3,1,0,0,0,19,19,90,1,,,,,,,,
,,,,,,,,,,,,,FF,,,,,,,,1.435,,,,,,,,,,,,,,,,,,,,,,60fdb4958e221c323ee7e1c5,61036f03db302659b0568e6b,2021-07-29_22h19.26.455,Simcolourproject_2stim_asymm_v5,2020.2.10,Win32,60,61025ae37ef11b136ea224fe,,,,,,,,,4110,51,88,1,0,0,response1disk,,7,28,12,1,0,0,rectangle,28,12,1,0,0,28,12,1,0,0,0,20,20,134,1,,,,,,,,
,,,,,,,,,,,,,FF,,,,,,,,1.1761,,,,,,,,,,,,,,,,,,,,,,60fdb4958e221c323ee7e1c5,61036f03db302659b0568e6b,2021-07-29_22h19.26.455,Simcolourproject_2stim_asymm_v5,2020.2.10,Win32,60,61025ae37ef11b136ea224fe,,,,,,,,,1845,31,67,1,0,0,response1disk,,7,-3,-1,1,0,0,rectangle,-3,-1,1,0,0,-3,-1,1,0,0,0,21,21,25,1,,,,,,,,
,,,,,,,,,,,,,FF,,,,,,,,1.6545,,,,,,,,,,,,,,,,,,,,,,60fdb4958e221c323ee7e1c5,61036f03db302659b0568e6b,2021-07-29_22h19.26.455,Simcolourproject_2stim_asymm_v5,2020.2.10,Win32,60,61025ae37ef11b136ea224fe,,,,,,,,,2219,22,-83,1,0,0,response3disk,,4,0,-1,1,0,0,rectangle,0,-1,1,0,0,0,-1,1,0,0,0,22,22,147,1,,,,,,,,
,,,,,,,,,,,,,FF,,,,,,,,1.1553,,,,,,,,,,,,,,,,,,,,,,60fdb4958e221c323ee7e1c5,61036f03db302659b0568e6b,2021-07-29_22h19.26.455,Simcolourproject_2stim_asymm_v5,2020.2.10,Win32,60,61025ae37ef11b136ea224fe,,,,,,,,,1785,-33,-79,1,0,0,response5disk,,3,-10,-3,1,0,0,rectangle,-10,-3,1,0,0,-10,-3,1,0,0,0,23,23,140,1,,,,,,,,
,,,,,,,,,,,,,FF,,,,,,,,1.4879,,,,,,,,,,,,,,,,,,,,,,60fdb4958e221c323ee7e1c5,61036f03db302659b0568e6b,2021-07-29_22h19.26.455,Simcolourproject_2stim_asymm_v5,2020.2.10,Win32,60,61025ae37ef11b136ea224fe,,,,,,,,,2989,60,-38,1,0,0,response3disk,,5,13,-5,1,0,0,rectangle,13,-5,1,0,0,13,-5,1,0,0,0,24,24,98,1,,,,,,,,
,,,,,,,,,,,,,FF,,,,,,,,2.3146,,,,,,,,,,,,,,,,,,,,,,60fdb4958e221c323ee7e1c5,61036f03db302659b0568e6b,2021-07-29_22h19.26.455,Simcolourproject_2stim_asymm_v5,2020.2.10,Win32,60,61025ae37ef11b136ea224fe,,,,,,,,,3375,76,58,1,0,0,response1disk,,6,-1,-5,1,0,0,rectangle,-1,-5,1,0,0,-1,-5,1,0,0,0,25,25,144,1,,,,,,,,
,,,,,,,,,,,,,FF,,,,,,,,2.0244,,,,,,,,,,,,,,,,,,,,,,60fdb4958e221c323ee7e1c5,61036f03db302659b0568e6b,2021-07-29_22h19.26.455,Simcolourproject_2stim_asymm_v5,2020.2.10,Win32,60,61025ae37ef11b136ea224fe,,,,,,,,,3261,53,-29,1,0,0,response3disk,,5,9,-8,1,0,0,rectangle,9,-8,1,0,0,9,-8,1,0,0,0,26,26,58,1,,,,,,,,
,,,,,,,,,,,,,FF,,,,,,,,4.1272,,,,,,,,,,,,,,,,,,,,,,60fdb4958e221c323ee7e1c5,61036f03db302659b0568e6b,2021-07-29_22h19.26.455,Simcolourproject_2stim_asymm_v5,2020.2.10,Win32,60,61025ae37ef11b136ea224fe,,,,,,,,,3268,58,67,1,0,0,response1disk,,7,25,7,1,0,0,rectangle,25,7,1,0,0,25,7,1,0,0,0,27,27,72,1,,,,,,,,
,,,,,,,,,,,,,FF,,,,,,,,0.719,,,,,,,,,,,,,,,,,,,,,,60fdb4958e221c323ee7e1c5,61036f03db302659b0568e6b,2021-07-29_22h19.26.455,Simcolourproject_2stim_asymm_v5,2020.2.10,Win32,60,61025ae37ef11b136ea224fe,,,,,,,,,691,29,80,1,0,0,response1disk,,7,8,5,1,0,0,rectangle,8,5,1,0,0,8,5,1,0,0,0,28,28,12,1,,,,,,,,
,,,,,,,,,,,,,FF,,,,,,,,1.3216,,,,,,,,,,,,,,,,,,,,,,60fdb4958e221c323ee7e1c5,61036f03db302659b0568e6b,2021-07-29_22h19.26.455,Simcolourproject_2stim_asymm_v5,2020.2.10,Win32,60,61025ae37ef11b136ea224fe,,,,,,,,,4343,-38,90,1,0,0,response7disk,,0,-2,1,1,0,0,rectangle,-2,1,1,0,0,-2,1,1,0,0,0,29,29,151,1,,,,,,,,
,,,,,,,,,,,,,FF,,,,,,,,1.6891,,,,,,,,,,,,,,,,,,,,,,60fdb4958e221c323ee7e1c5,61036f03db302659b0568e6b,2021-07-29_22h19.26.455,Simcolourproject_2stim_asymm_v5,2020.2.10,Win32,60,61025ae37ef11b136ea224fe,,,,,,,,,4290,47,69,1,0,0,response1disk,,7,19,7,1,0,0,rectangle,19,7,1,0,0,19,7,1,0,0,0,30,30,42,1,,,,,,,,
,,,,,,,,,,,,,FF,,,,,,,,4.0021,,,,,,,,,,,,,,,,,,,,,,60fdb4958e221c323ee7e1c5,61036f03db302659b0568e6b,2021-07-29_22h19.26.455,Simcolourproject_2stim_asymm_v5,2020.2.10,Win32,60,61025ae37ef11b136ea224fe,,,,,,,,,3152,-35,-82,1,0,0,response5disk,,3,4,5,1,0,0,rectangle,4,5,1,0,0,4,5,1,0,0,0,31,31,126,1,,,,,,,,
,,,,,,,,,,,,,FF,,,,,,,,1.4049,,,,,,,,,,,,,,,,,,,,,,60fdb4958e221c323ee7e1c5,61036f03db302659b0568e6b,2021-07-29_22h19.26.455,Simcolourproject_2stim_asymm_v5,2020.2.10,Win32,60,61025ae37ef11b136ea224fe,,,,,,,,,3993,-33,99,1,0,0,response7disk,,0,-6,15,1,0,0,rectangle,-6,15,1,0,0,-6,15,1,0,0,0,32,32,123,1,,,,,,,,
,,,,,,,,,,,,,FF,,,,,,,,3.1927,,,,,,,,,,,,,,,,,,,,,,60fdb4958e221c323ee7e1c5,61036f03db302659b0568e6b,2021-07-29_22h19.26.455,Simcolourproject_2stim_asymm_v5,2020.2.10,Win32,60,61025ae37ef11b136ea224fe,,,,,,,,,730,64,45,1,0,0,response1disk,,6,2,0,1,0,0,rectangle,2,0,1,0,0,2,0,1,0,0,0,33,33,69,1,,,,,,,,
,,,,,,,,,,,,,FF,,,,,,,,1.1034,,,,,,,,,,,,,,,,,,,,,,60fdb4958e221c323ee7e1c5,61036f03db302659b0568e6b,2021-07-29_22h19.26.455,Simcolourproject_2stim_asymm_v5,2020.2.10,Win32,60,61025ae37ef11b136ea224fe,,,,,,,,,2280,43,65,1,0,0,response1disk,,7,13,0,1,0,0,rectangle,13,0,1,0,0,13,0,1,0,0,0,34,34,75,1,,,,,,,,
,,,,,,,,,,,,,FF,,,,,,,,2.4393,,,,,,,,,,,,,,,,,,,,,,60fdb4958e221c323ee7e1c5,61036f03db302659b0568e6b,2021-07-29_22h19.26.455,Simcolourproject_2stim_asymm_v5,2020.2.10,Win32,60,61025ae37ef11b136ea224fe,,,,,,,,,1831,34,-76,1,0,0,response3disk,,4,20,-8,1,0,0,rectangle,20,-8,1,0,0,20,-8,1,0,0,0,35,35,65,1,,,,,,,,
,,,,,,,,,,,,,FF,,,,,,,,1.7389,,,,,,,,,,,,,,,,,,,,,,60fdb4958e221c323ee7e1c5,61036f03db302659b0568e6b,2021-07-29_22h19.26.455,Simcolourproject_2stim_asymm_v5,2020.2.10,Win32,60,61025ae37ef11b136ea224fe,,,,,,,,,2647,45,73,1,0,0,response1disk,,7,16,3,1,0,0,rectangle,16,3,1,0,0,16,3,1,0,0,0,36,36,33,1,,,,,,,,
,,,,,,,,,,,,,FF,,,,,,,,1.7205,,,,,,,,,,,,,,,,,,,,,,60fdb4958e221c323ee7e1c5,61036f03db302659b0568e6b,2021-07-29_22h19.26.455,Simcolourproject_2stim_asymm_v5,2020.2.10,Win32,60,61025ae37ef11b136ea224fe,,,,,,,,,1852,56,70,1,0,0,response1disk,,7,5,-5,1,0,0,rectangle,5,-5,1,0,0,5,-5,1,0,0,0,37,37,31,1,,,,,,,,
,,,,,,,,,,,,,FF,,,,,,,,0.8864,,,,,,,,,,,,,,,,,,,,,,60fdb4958e221c323ee7e1c5,61036f03db302659b0568e6b,2021-07-29_22h19.26.455,Simcolourproject_2stim_asymm_v5,2020.2.10,Win32,60,61025ae37ef11b136ea224fe,,,,,,,,,2330,47,44,1,0,0,response1disk,,6,9,7,1,0,0,rectangle,84,35,1,0,0,9,8,1,0,0,0,38,38,108,1,,response1disk_3,TRUE,6,6,"[248,124,122,100,47,188,312,279,50,89,67,299,247,13,76,39,39,270,116,248]",2.2078,rectangle
,,,,,,,,,,,,,FF,,,,,,,,2.5911,,,,,,,,,,,,,,,,,,,,,,60fdb4958e221c323ee7e1c5,61036f03db302659b0568e6b,2021-07-29_22h19.26.455,Simcolourproject_2stim_asymm_v5,2020.2.10,Win32,60,61025ae37ef11b136ea224fe,,,,,,,,,3728,60,42,1,0,0,response1disk,,6,16,-14,1,0,0,rectangle,16,-14,1,0,0,16,-14,1,0,0,0,39,39,154,1,,,,,,,,
,,,,,,,,,,,,,FF,,,,,,,,1.5689,,,,,,,,,,,,,,,,,,,,,,60fdb4958e221c323ee7e1c5,61036f03db302659b0568e6b,2021-07-29_22h19.26.455,Simcolourproject_2stim_asymm_v5,2020.2.10,Win32,60,61025ae37ef11b136ea224fe,,,,,,,,,1284,61,-44,1,0,0,response3disk,,5,6,11,1,0,0,rectangle,6,11,1,0,0,6,11,1,0,0,0,40,40,51,1,,,,,,,,
,,,,,,,,,,,,,FF,,,,,,,,1.1035,,,,,,,,,,,,,,,,,,,,,,60fdb4958e221c323ee7e1c5,61036f03db302659b0568e6b,2021-07-29_22h19.26.455,Simcolourproject_2stim_asymm_v5,2020.2.10,Win32,60,61025ae37ef11b136ea224fe,,,,,,,,,353,-35,-71,1,0,0,response5disk,,3,-13,-3,1,0,0,rectangle,-13,-3,1,0,0,-13,-3,1,0,0,0,41,41,97,1,,,,,,,,
,,,,,,,,,,,,,FF,,,,,,,,1.7877,,,,,,,,,,,,,,,,,,,,,,60fdb4958e221c323ee7e1c5,61036f03db302659b0568e6b,2021-07-29_22h19.26.455,Simcolourproject_2stim_asymm_v5,2020.2.10,Win32,60,61025ae37ef11b136ea224fe,,,,,,,,,1122,54,-27,1,0,0,response3disk,,5,20,-2,1,0,0,rectangle,20,-2,1,0,0,20,-2,1,0,0,0,42,42,78,1,,,,,,,,
,,,,,,,,,,,,,FF,,,,,,,,2.1908,,,,,,,,,,,,,,,,,,,,,,60fdb4958e221c323ee7e1c5,61036f03db302659b0568e6b,2021-07-29_22h19.26.455,Simcolourproject_2stim_asymm_v5,2020.2.10,Win32,60,61025ae37ef11b136ea224fe,,,,,,,,,2247,72,55,1,0,0,response1disk,,6,15,3,1,0,0,rectangle,15,3,1,0,0,15,3,1,0,0,0,43,43,40,1,,,,,,,,
,,,,,,,,,,,,,FF,,,,,,,,1.5557,,,,,,,,,,,,,,,,,,,,,,60fdb4958e221c323ee7e1c5,61036f03db302659b0568e6b,2021-07-29_22h19.26.455,Simcolourproject_2stim_asymm_v5,2020.2.10,Win32,60,61025ae37ef11b136ea224fe,,,,,,,,,315,56,-25,1,0,0,response3disk,,5,28,2,1,0,0,rectangle,28,2,1,0,0,28,2,1,0,0,0,44,44,73,1,,,,,,,,
,,,,,,,,,,,,,FF,,,,,,,,1.8541,,,,,,,,,,,,,,,,,,,,,,60fdb4958e221c323ee7e1c5,61036f03db302659b0568e6b,2021-07-29_22h19.26.455,Simcolourproject_2stim_asymm_v5,2020.2.10,Win32,60,61025ae37ef11b136ea224fe,,,,,,,,,382,30,-48,1,0,0,response3disk,,4,30,0,1,0,0,rectangle,30,0,1,0,0,30,0,1,0,0,0,45,45,95,1,,,,,,,,
,,,,,,,,,,,,,FF,,,,,,,,1.1792,,,,,,,,,,,,,,,,,,,,,,60fdb4958e221c323ee7e1c5,61036f03db302659b0568e6b,2021-07-29_22h19.26.455,Simcolourproject_2stim_asymm_v5,2020.2.10,Win32,60,61025ae37ef11b136ea224fe,,,,,,,,,3912,35,73,1,0,0,response1disk,,7,20,2,1,0,0,rectangle,-26,-57,1,0,0,-1,6,1,0,0,0,46,46,54,1,,response5disk_3,TRUE,3,3,"[248,124,122,100,47,188,312,279,50,89,67,299,247,13,76,39,39,270,116,248]",2.4806,rectangle
,,,,,,,,,,,,,FF,,,,,,,,1.5714,,,,,,,,,,,,,,,,,,,,,,60fdb4958e221c323ee7e1c5,61036f03db302659b0568e6b,2021-07-29_22h19.26.455,Simcolourproject_2stim_asymm_v5,2020.2.10,Win32,60,61025ae37ef11b136ea224fe,,,,,,,,,290,48,-35,1,0,0,response3disk,,5,2,-1,1,0,0,rectangle,2,-1,1,0,0,2,-1,1,0,0,0,47,47,143,1,,,,,,,,
,,,,,,,,,,,,,FF,,,,,,,,0.9704,,,,,,,,,,,,,,,,,,,,,,60fdb4958e221c323ee7e1c5,61036f03db302659b0568e6b,2021-07-29_22h19.26.455,Simcolourproject_2stim_asymm_v5,2020.2.10,Win32,60,61025ae37ef11b136ea224fe,,,,,,,,,3265,58,39,1,0,0,response1disk,,6,13,-2,1,0,0,rectangle,13,-2,1,0,0,13,-2,1,0,0,0,48,48,46,1,,,,,,,,
,,,,,,,,,,,,,FF,,,,,,,,1.4326,,,,,,,,,,,,,,,,,,,,,,60fdb4958e221c323ee7e1c5,61036f03db302659b0568e6b,2021-07-29_22h19.26.455,Simcolourproject_2stim_asymm_v5,2020.2.10,Win32,60,61025ae37ef11b136ea224fe,,,,,,,,,310,37,60,1,0,0,response1disk,,7,11,-9,1,0,0,rectangle,35,65,1,0,0,17,2,1,0,0,0,49,49,56,1,,response1disk_3,TRUE,7,7,"[248,124,122,100,47,188,312,279,50,89,67,299,247,13,76,39,39,270,116,248]",1.5356,rectangle
,,,,,,,,,,,,,FF,,,,,,,,1.8802,,,,,,,,,,,,,,,,,,,,,,60fdb4958e221c323ee7e1c5,61036f03db302659b0568e6b,2021-07-29_22h19.26.455,Simcolourproject_2stim_asymm_v5,2020.2.10,Win32,60,61025ae37ef11b136ea224fe,,,,,,,,,2986,65,26,1,0,0,response1disk,,6,13,0,1,0,0,rectangle,13,0,1,0,0,13,0,1,0,0,0,50,50,87,1,,,,,,,,
,,,,,,,,,,,,,FF,,,,,,,,0.9537,,,,,,,,,,,,,,,,,,,,,,60fdb4958e221c323ee7e1c5,61036f03db302659b0568e6b,2021-07-29_22h19.26.455,Simcolourproject_2stim_asymm_v5,2020.2.10,Win32,60,61025ae37ef11b136ea224fe,,,,,,,,,3866,39,75,1,0,0,response1disk,,7,11,-3,1,0,0,rectangle,11,-3,1,0,0,11,-3,1,0,0,0,51,51,47,1,,,,,,,,
,,,,,,,,,,,,,FF,,,,,,,,1.2287,,,,,,,,,,,,,,,,,,,,,,60fdb4958e221c323ee7e1c5,61036f03db302659b0568e6b,2021-07-29_22h19.26.455,Simcolourproject_2stim_asymm_v5,2020.2.10,Win32,60,61025ae37ef11b136ea224fe,,,,,,,,,2060,37,-34,1,0,0,response3disk,,5,-7,-1,1,0,0,rectangle,-7,-1,1,0,0,-7,-1,1,0,0,0,52,52,118,1,,,,,,,,
,,,,,,,,,,,,,FF,,,,,,,,1.1693,,,,,,,,,,,,,,,,,,,,,,60fdb4958e221c323ee7e1c5,61036f03db302659b0568e6b,2021-07-29_22h19.26.455,Simcolourproject_2stim_asymm_v5,2020.2.10,Win32,60,61025ae37ef11b136ea224fe,,,,,,,,,3147,-26,-57,1,0,0,response5disk,,3,-18,-1,1,0,0,rectangle,-18,-1,1,0,0,-18,-1,1,0,0,0,53,53,8,1,,,,,,,,
,,,,,,,,,,,,,FF,,,,,,,,1.5856,,,,,,,,,,,,,,,,,,,,,,60fdb4958e221c323ee7e1c5,61036f03db302659b0568e6b,2021-07-29_22h19.26.455,Simcolourproject_2stim_asymm_v5,2020.2.10,Win32,60,61025ae37ef11b136ea224fe,,,,,,,,,4298,49,-70,1,0,0,response3disk,,4,15,-1,1,0,0,rectangle,15,-1,1,0,0,15,-1,1,0,0,0,54,54,62,1,,,,,,,,
,,,,,,,,,,,,,FF,,,,,,,,1.2618,,,,,,,,,,,,,,,,,,,,,,60fdb4958e221c323ee7e1c5,61036f03db302659b0568e6b,2021-07-29_22h19.26.455,Simcolourproject_2stim_asymm_v5,2020.2.10,Win32,60,61025ae37ef11b136ea224fe,,,,,,,,,307,95,42,1,0,0,response1disk,,6,15,5,1,0,0,rectangle,15,5,1,0,0,15,5,1,0,0,0,55,55,48,1,,,,,,,,
,,,,,,,,,,,,,FF,,,,,,,,1.2695,,,,,,,,,,,,,,,,,,,,,,60fdb4958e221c323ee7e1c5,61036f03db302659b0568e6b,2021-07-29_22h19.26.455,Simcolourproject_2stim_asymm_v5,2020.2.10,Win32,60,61025ae37ef11b136ea224fe,,,,,,,,,1034,49,-22,1,0,0,response3disk,,5,-7,4,1,0,0,rectangle,-7,4,1,0,0,-7,4,1,0,0,0,56,56,101,1,,,,,,,,
,,,,,,,,,,,,,FF,,,,,,,,1.6813,,,,,,,,,,,,,,,,,,,,,,60fdb4958e221c323ee7e1c5,61036f03db302659b0568e6b,2021-07-29_22h19.26.455,Simcolourproject_2stim_asymm_v5,2020.2.10,Win32,60,61025ae37ef11b136ea224fe,,,,,,,,,1332,54,-28,1,0,0,response3disk,,5,-19,-5,1,0,0,rectangle,-19,-5,1,0,0,-19,-5,1,0,0,0,57,57,23,1,,,,,,,,
,,,,,,,,,,,,,FF,,,,,,,,1.3098,,,,,,,,,,,,,,,,,,,,,,60fdb4958e221c323ee7e1c5,61036f03db302659b0568e6b,2021-07-29_22h19.26.455,Simcolourproject_2stim_asymm_v5,2020.2.10,Win32,60,61025ae37ef11b136ea224fe,,,,,,,,,1069,63,53,1,0,0,response1disk,,6,-6,5,1,0,0,rectangle,-6,5,1,0,0,-6,5,1,0,0,0,58,58,0,1,,,,,,,,
,,,,,,,,,,,,,FF,,,,,,,,1.5125,,,,,,,,,,,,,,,,,,,,,,60fdb4958e221c323ee7e1c5,61036f03db302659b0568e6b,2021-07-29_22h19.26.455,Simcolourproject_2stim_asymm_v5,2020.2.10,Win32,60,61025ae37ef11b136ea224fe,,,,,,,,,1792,46,-64,1,0,0,response3disk,,4,6,12,1,0,0,rectangle,6,12,1,0,0,6,12,1,0,0,0,59,59,5,1,,,,,,,,
,,,,,,,,,,,,,FF,,,,,,,,1.3132,,,,,,,,,,,,,,,,,,,,,,60fdb4958e221c323ee7e1c5,61036f03db302659b0568e6b,2021-07-29_22h19.26.455,Simcolourproject_2stim_asymm_v5,2020.2.10,Win32,60,61025ae37ef11b136ea224fe,,,,,,,,,3129,50,46,1,0,0,response1disk,,6,0,4,1,0,0,rectangle,0,4,1,0,0,0,4,1,0,0,0,60,60,1,1,,,,,,,,
,,,,,,,,,,,,,FF,,,,,,,,1.2196,,,,,,,,,,,,,,,,,,,,,,60fdb4958e221c323ee7e1c5,61036f03db302659b0568e6b,2021-07-29_22h19.26.455,Simcolourproject_2stim_asymm_v5,2020.2.10,Win32,60,61025ae37ef11b136ea224fe,,,,,,,,,3137,34,65,1,0,0,response1disk,,7,1,-2,1,0,0,rectangle,1,-2,1,0,0,1,-2,1,0,0,0,61,61,41,1,,,,,,,,
,,,,,,,,,,,,,FF,,,,,,,,2.048,,,,,,,,,,,,,,,,,,,,,,60fdb4958e221c323ee7e1c5,61036f03db302659b0568e6b,2021-07-29_22h19.26.455,Simcolourproject_2stim_asymm_v5,2020.2.10,Win32,60,61025ae37ef11b136ea224fe,,,,,,,,,299,70,34,1,0,0,response1disk,,6,1,4,1,0,0,rectangle,1,4,1,0,0,1,4,1,0,0,0,62,62,132,1,,,,,,,,
,,,,,,,,,,,,,FF,,,,,,,,0.9293,,,,,,,,,,,,,,,,,,,,,,60fdb4958e221c323ee7e1c5,61036f03db302659b0568e6b,2021-07-29_22h19.26.455,Simcolourproject_2stim_asymm_v5,2020.2.10,Win32,60,61025ae37ef11b136ea224fe,,,,,,,,,2938,54,-31,1,0,0,response3disk,,5,-13,-4,1,0,0,rectangle,-13,-4,1,0,0,-13,-4,1,0,0,0,63,63,53,1,,,,,,,,
,,,,,,,,,,,,,FF,,,,,,,,1.1792,,,,,,,,,,,,,,,,,,,,,,60fdb4958e221c323ee7e1c5,61036f03db302659b0568e6b,2021-07-29_22h19.26.455,Simcolourproject_2stim_asymm_v5,2020.2.10,Win32,60,61025ae37ef11b136ea224fe,,,,,,,,,1112,25,-58,1,0,0,response3disk,,4,-2,-4,1,0,0,rectangle,-2,-4,1,0,0,-2,-4,1,0,0,0,64,64,148,1,,,,,,,,
,,,,,,,,,,,,,FF,,,,,,,,2.8679,,,,,,,,,,,,,,,,,,,,,,60fdb4958e221c323ee7e1c5,61036f03db302659b0568e6b,2021-07-29_22h19.26.455,Simcolourproject_2stim_asymm_v5,2020.2.10,Win32,60,61025ae37ef11b136ea224fe,,,,,,,,,3432,-57,-25,1,0,0,response5disk,,2,-20,11,1,0,0,rectangle,-20,11,1,0,0,-20,11,1,0,0,0,65,65,141,1,,,,,,,,
,,,,,,,,,,,,,FF,,,,,,,,1.339,,,,,,,,,,,,,,,,,,,,,,60fdb4958e221c323ee7e1c5,61036f03db302659b0568e6b,2021-07-29_22h19.26.455,Simcolourproject_2stim_asymm_v5,2020.2.10,Win32,60,61025ae37ef11b136ea224fe,,,,,,,,,4187,25,-50,1,0,0,response3disk,,4,-3,10,1,0,0,rectangle,64,-26,1,0,0,9,-2,1,0,0,0,66,66,14,1,,response3disk_3,TRUE,5,5,"[248,124,122,100,47,188,312,279,50,89,67,299,247,13,76,39,39,270,116,248]",1.6209,rectangle
,,,,,,,,,,,,,FF,,,,,,,,2.7243,,,,,,,,,,,,,,,,,,,,,,60fdb4958e221c323ee7e1c5,61036f03db302659b0568e6b,2021-07-29_22h19.26.455,Simcolourproject_2stim_asymm_v5,2020.2.10,Win32,60,61025ae37ef11b136ea224fe,,,,,,,,,2692,66,27,1,0,0,response1disk,,6,-7,10,1,0,0,rectangle,-7,10,1,0,0,-7,10,1,0,0,0,67,67,94,1,,,,,,,,
,,,,,,,,,,,,,FF,,,,,,,,0.7026,,,,,,,,,,,,,,,,,,,,,,60fdb4958e221c323ee7e1c5,61036f03db302659b0568e6b,2021-07-29_22h19.26.455,Simcolourproject_2stim_asymm_v5,2020.2.10,Win32,60,61025ae37ef11b136ea224fe,,,,,,,,,1843,44,67,1,0,0,response1disk,,7,14,4,1,0,0,rectangle,14,4,1,0,0,14,4,1,0,0,0,68,68,7,1,,,,,,,,
,,,,,,,,,,,,,FF,,,,,,,,1.0718,,,,,,,,,,,,,,,,,,,,,,60fdb4958e221c323ee7e1c5,61036f03db302659b0568e6b,2021-07-29_22h19.26.455,Simcolourproject_2stim_asymm_v5,2020.2.10,Win32,60,61025ae37ef11b136ea224fe,,,,,,,,,1656,62,31,1,0,0,response1disk,,6,18,-2,1,0,0,rectangle,18,-2,1,0,0,18,-2,1,0,0,0,69,69,157,1,,,,,,,,
,,,,,,,,,,,,,FF,,,,,,,,2.2063,,,,,,,,,,,,,,,,,,,,,,60fdb4958e221c323ee7e1c5,61036f03db302659b0568e6b,2021-07-29_22h19.26.455,Simcolourproject_2stim_asymm_v5,2020.2.10,Win32,60,61025ae37ef11b136ea224fe,,,,,,,,,1571,56,-28,1,0,0,response3disk,,5,11,13,1,0,0,rectangle,11,13,1,0,0,11,13,1,0,0,0,70,70,84,1,,,,,,,,
,,,,,,,,,,,,,FF,,,,,,,,1.2454,,,,,,,,,,,,,,,,,,,,,,60fdb4958e221c323ee7e1c5,61036f03db302659b0568e6b,2021-07-29_22h19.26.455,Simcolourproject_2stim_asymm_v5,2020.2.10,Win32,60,61025ae37ef11b136ea224fe,,,,,,,,,2631,59,39,1,0,0,response1disk,,6,18,5,1,0,0,rectangle,18,5,1,0,0,18,5,1,0,0,0,71,71,130,1,,,,,,,,
,,,,,,,,,,,,,FF,,,,,,,,1.7123,,,,,,,,,,,,,,,,,,,,,,60fdb4958e221c323ee7e1c5,61036f03db302659b0568e6b,2021-07-29_22h19.26.455,Simcolourproject_2stim_asymm_v5,2020.2.10,Win32,60,61025ae37ef11b136ea224fe,,,,,,,,,3651,-31,-60,1,0,0,response5disk,,3,-2,5,1,0,0,rectangle,-2,5,1,0,0,-2,5,1,0,0,0,72,72,59,1,,,,,,,,
,,,,,,,,,,,,,FF,,,,,,,,1.6049,,,,,,,,,,,,,,,,,,,,,,60fdb4958e221c323ee7e1c5,61036f03db302659b0568e6b,2021-07-29_22h19.26.455,Simcolourproject_2stim_asymm_v5,2020.2.10,Win32,60,61025ae37ef11b136ea224fe,,,,,,,,,1921,79,27,1,0,0,response1disk,,6,1,-3,1,0,0,rectangle,1,-3,1,0,0,1,-3,1,0,0,0,73,73,156,1,,,,,,,,
,,,,,,,,,,,,,FF,,,,,,,,1.1533,,,,,,,,,,,,,,,,,,,,,,60fdb4958e221c323ee7e1c5,61036f03db302659b0568e6b,2021-07-29_22h19.26.455,Simcolourproject_2stim_asymm_v5,2020.2.10,Win32,60,61025ae37ef11b136ea224fe,,,,,,,,,3269,57,25,1,0,0,response1disk,,6,18,2,1,0,0,rectangle,18,2,1,0,0,18,2,1,0,0,0,74,74,117,1,,,,,,,,
,,,,,,,,,,,,,FF,,,,,,,,2.242,,,,,,,,,,,,,,,,,,,,,,60fdb4958e221c323ee7e1c5,61036f03db302659b0568e6b,2021-07-29_22h19.26.455,Simcolourproject_2stim_asymm_v5,2020.2.10,Win32,60,61025ae37ef11b136ea224fe,,,,,,,,,3933,-63,-43,1,0,0,response5disk,,2,2,0,1,0,0,rectangle,81,28,1,0,0,28,-1,1,0,0,0,75,75,77,1,,response1disk_3,TRUE,6,6,"[248,124,122,100,47,188,312,279,50,89,67,299,247,13,76,39,39,270,116,248]",2.8414,rectangle
,,,,,,,,,,,,,FF,,,,,,,,2.0058,,,,,,,,,,,,,,,,,,,,,,60fdb4958e221c323ee7e1c5,61036f03db302659b0568e6b,2021-07-29_22h19.26.455,Simcolourproject_2stim_asymm_v5,2020.2.10,Win32,60,61025ae37ef11b136ea224fe,,,,,,,,,2251,70,24,1,0,0,response1disk,,6,12,2,1,0,0,rectangle,12,2,1,0,0,12,2,1,0,0,0,76,76,142,1,,,,,,,,
,,,,,,,,,,,,,FF,,,,,,,,1.371,,,,,,,,,,,,,,,,,,,,,,60fdb4958e221c323ee7e1c5,61036f03db302659b0568e6b,2021-07-29_22h19.26.455,Simcolourproject_2stim_asymm_v5,2020.2.10,Win32,60,61025ae37ef11b136ea224fe,,,,,,,,,2540,28,49,1,0,0,response1disk,,7,-4,1,1,0,0,rectangle,-4,1,1,0,0,-4,1,1,0,0,0,77,77,85,1,,,,,,,,
,,,,,,,,,,,,,FF,,,,,,,,1.7044,,,,,,,,,,,,,,,,,,,,,,60fdb4958e221c323ee7e1c5,61036f03db302659b0568e6b,2021-07-29_22h19.26.455,Simcolourproject_2stim_asymm_v5,2020.2.10,Win32,60,61025ae37ef11b136ea224fe,,,,,,,,,39,17,55,1,0,0,response1disk,,7,-6,-4,1,0,0,rectangle,-6,-4,1,0,0,-6,-4,1,0,0,0,78,78,114,1,,,,,,,,
,,,,,,,,,,,,,FF,,,,,,,,1.5726,,,,,,,,,,,,,,,,,,,,,,60fdb4958e221c323ee7e1c5,61036f03db302659b0568e6b,2021-07-29_22h19.26.455,Simcolourproject_2stim_asymm_v5,2020.2.10,Win32,60,61025ae37ef11b136ea224fe,,,,,,,,,1369,23,-74,1,0,0,response3disk,,4,-1,-4,1,0,0,rectangle,-1,-4,1,0,0,-1,-4,1,0,0,0,79,79,129,1,,,,,,,,
,,,,,,,,,,,,,FF,,,,,,,,1.5053,,,,,,,,,,,,,,,,,,,,,,60fdb4958e221c323ee7e1c5,61036f03db302659b0568e6b,2021-07-29_22h19.26.455,Simcolourproject_2stim_asymm_v5,2020.2.10,Win32,60,61025ae37ef11b136ea224fe,,,,,,,,,2460,39,55,1,0,0,response1disk,,7,7,-8,1,0,0,rectangle,7,-8,1,0,0,7,-8,1,0,0,0,80,80,137,1,,,,,,,,
,,,,,,,,,,,,,FF,,,,,,,,1.3538,,,,,,,,,,,,,,,,,,,,,,60fdb4958e221c323ee7e1c5,61036f03db302659b0568e6b,2021-07-29_22h19.26.455,Simcolourproject_2stim_asymm_v5,2020.2.10,Win32,60,61025ae37ef11b136ea224fe,,,,,,,,,4344,-63,-33,1,0,0,response5disk,,2,-14,4,1,0,0,rectangle,-14,4,1,0,0,-14,4,1,0,0,0,81,81,22,1,,,,,,,,
,,,,,,,,,,,,,FF,,,,,,,,1.4391,,,,,,,,,,,,,,,,,,,,,,60fdb4958e221c323ee7e1c5,61036f03db302659b0568e6b,2021-07-29_22h19.26.455,Simcolourproject_2stim_asymm_v5,2020.2.10,Win32,60,61025ae37ef11b136ea224fe,,,,,,,,,1053,48,-47,1,0,0,response3disk,,5,19,-9,1,0,0,rectangle,19,-9,1,0,0,19,-9,1,0,0,0,82,82,60,1,,,,,,,,
,,,,,,,,,,,,,FF,,,,,,,,1.1885,,,,,,,,,,,,,,,,,,,,,,60fdb4958e221c323ee7e1c5,61036f03db302659b0568e6b,2021-07-29_22h19.26.455,Simcolourproject_2stim_asymm_v5,2020.2.10,Win32,60,61025ae37ef11b136ea224fe,,,,,,,,,303,61,28,1,0,0,response1disk,,6,5,1,1,0,0,rectangle,5,1,1,0,0,5,1,1,0,0,0,83,83,99,1,,,,,,,,
,,,,,,,,,,,,,FF,,,,,,,,0.6441,,,,,,,,,,,,,,,,,,,,,,60fdb4958e221c323ee7e1c5,61036f03db302659b0568e6b,2021-07-29_22h19.26.455,Simcolourproject_2stim_asymm_v5,2020.2.10,Win32,60,61025ae37ef11b136ea224fe,,,,,,,,,2177,40,56,1,0,0,response1disk,,7,1,6,1,0,0,rectangle,1,6,1,0,0,1,6,1,0,0,0,84,84,68,1,,,,,,,,
,,,,,,,,,,,,,FF,,,,,,,,0.8774,,,,,,,,,,,,,,,,,,,,,,60fdb4958e221c323ee7e1c5,61036f03db302659b0568e6b,2021-07-29_22h19.26.455,Simcolourproject_2stim_asymm_v5,2020.2.10,Win32,60,61025ae37ef11b136ea224fe,,,,,,,,,2685,26,55,1,0,0,response1disk,,7,12,5,1,0,0,rectangle,12,5,1,0,0,12,5,1,0,0,0,85,85,135,1,,,,,,,,
,,,,,,,,,,,,,FF,,,,,,,,1.1454,,,,,,,,,,,,,,,,,,,,,,60fdb4958e221c323ee7e1c5,61036f03db302659b0568e6b,2021-07-29_22h19.26.455,Simcolourproject_2stim_asymm_v5,2020.2.10,Win32,60,61025ae37ef11b136ea224fe,,,,,,,,,115,42,54,1,0,0,response1disk,,7,10,1,1,0,0,rectangle,10,1,1,0,0,10,1,1,0,0,0,86,86,26,1,,,,,,,,
,,,,,,,,,,,,,FF,,,,,,,,1.0282,,,,,,,,,,,,,,,,,,,,,,60fdb4958e221c323ee7e1c5,61036f03db302659b0568e6b,2021-07-29_22h19.26.455,Simcolourproject_2stim_asymm_v5,2020.2.10,Win32,60,61025ae37ef11b136ea224fe,,,,,,,,,4322,56,33,1,0,0,response1disk,,6,-4,0,1,0,0,rectangle,-4,0,1,0,0,-4,0,1,0,0,0,87,87,138,1,,,,,,,,
,,,,,,,,,,,,,FF,,,,,,,,1.6976,,,,,,,,,,,,,,,,,,,,,,60fdb4958e221c323ee7e1c5,61036f03db302659b0568e6b,2021-07-29_22h19.26.455,Simcolourproject_2stim_asymm_v5,2020.2.10,Win32,60,61025ae37ef11b136ea224fe,,,,,,,,,3655,34,54,1,0,0,response1disk,,7,1,-3,1,0,0,rectangle,57,48,1,0,0,11,-1,1,0,0,0,88,88,136,1,,response1disk_3,TRUE,6,6,"[248,124,122,100,47,188,312,279,50,89,67,299,247,13,76,39,39,270,116,248]",1.6044,rectangle
,,,,,,,,,,,,,FF,,,,,,,,2.5158,,,,,,,,,,,,,,,,,,,,,,60fdb4958e221c323ee7e1c5,61036f03db302659b0568e6b,2021-07-29_22h19.26.455,Simcolourproject_2stim_asymm_v5,2020.2.10,Win32,60,61025ae37ef11b136ea224fe,,,,,,,,,2605,-47,-57,1,0,0,response5disk,,3,-5,-3,1,0,0,rectangle,-5,-3,1,0,0,-5,-3,1,0,0,0,89,89,18,1,,,,,,,,
,,,,,,,,,,,,,FF,,,,,,,,1.0441,,,,,,,,,,,,,,,,,,,,,,60fdb4958e221c323ee7e1c5,61036f03db302659b0568e6b,2021-07-29_22h19.26.455,Simcolourproject_2stim_asymm_v5,2020.2.10,Win32,60,61025ae37ef11b136ea224fe,,,,,,,,,2852,56,31,1,0,0,response1disk,,6,3,5,1,0,0,rectangle,3,5,1,0,0,3,5,1,0,0,0,90,90,145,1,,,,,,,,
,,,,,,,,,,,,,FF,,,,,,,,2.9099,,,,,,,,,,,,,,,,,,,,,,60fdb4958e221c323ee7e1c5,61036f03db302659b0568e6b,2021-07-29_22h19.26.455,Simcolourproject_2stim_asymm_v5,2020.2.10,Win32,60,61025ae37ef11b136ea224fe,,,,,,,,,1478,20,73,1,0,0,response1disk,,7,11,6,1,0,0,rectangle,11,6,1,0,0,11,6,1,0,0,0,91,91,10,1,,,,,,,,
,,,,,,,,,,,,,FF,,,,,,,,1.7413,,,,,,,,,,,,,,,,,,,,,,60fdb4958e221c323ee7e1c5,61036f03db302659b0568e6b,2021-07-29_22h19.26.455,Simcolourproject_2stim_asymm_v5,2020.2.10,Win32,60,61025ae37ef11b136ea224fe,,,,,,,,,1133,89,-39,1,0,0,response3disk,,5,20,-7,1,0,0,rectangle,20,-7,1,0,0,20,-7,1,0,0,0,92,92,50,1,,,,,,,,
,,,,,,,,,,,,,FF,,,,,,,,1.7261,,,,,,,,,,,,,,,,,,,,,,60fdb4958e221c323ee7e1c5,61036f03db302659b0568e6b,2021-07-29_22h19.26.455,Simcolourproject_2stim_asymm_v5,2020.2.10,Win32,60,61025ae37ef11b136ea224fe,,,,,,,,,2990,81,28,1,0,0,response1disk,,6,3,3,1,0,0,rectangle,3,3,1,0,0,3,3,1,0,0,0,93,93,24,1,,,,,,,,
,,,,,,,,,,,,,FF,,,,,,,,1.9175,,,,,,,,,,,,,,,,,,,,,,60fdb4958e221c323ee7e1c5,61036f03db302659b0568e6b,2021-07-29_22h19.26.455,Simcolourproject_2stim_asymm_v5,2020.2.10,Win32,60,61025ae37ef11b136ea224fe,,,,,,,,,2840,57,45,1,0,0,response1disk,,6,9,1,1,0,0,rectangle,9,1,1,0,0,9,1,1,0,0,0,94,94,106,1,,,,,,,,
,,,,,,,,,,,,,FF,,,,,,,,2.57,,,,,,,,,,,,,,,,,,,,,,60fdb4958e221c323ee7e1c5,61036f03db302659b0568e6b,2021-07-29_22h19.26.455,Simcolourproject_2stim_asymm_v5,2020.2.10,Win32,60,61025ae37ef11b136ea224fe,,,,,,,,,2375,41,60,1,0,0,response1disk,,7,9,8,1,0,0,rectangle,9,8,1,0,0,9,8,1,0,0,0,95,95,6,1,,,,,,,,
,,,,,,,,,,,,,FF,,,,,,,,1.3192,,,,,,,,,,,,,,,,,,,,,,60fdb4958e221c323ee7e1c5,61036f03db302659b0568e6b,2021-07-29_22h19.26.455,Simcolourproject_2stim_asymm_v5,2020.2.10,Win32,60,61025ae37ef11b136ea224fe,,,,,,,,,1753,35,-58,1,0,0,response3disk,,4,8,-4,1,0,0,rectangle,8,-4,1,0,0,8,-4,1,0,0,0,96,96,110,1,,,,,,,,
,,,,,,,,,,,,,FF,,,,,,,,1.1457,,,,,,,,,,,,,,,,,,,,,,60fdb4958e221c323ee7e1c5,61036f03db302659b0568e6b,2021-07-29_22h19.26.455,Simcolourproject_2stim_asymm_v5,2020.2.10,Win32,60,61025ae37ef11b136ea224fe,,,,,,,,,3573,27,-54,1,0,0,response3disk,,4,4,-6,1,0,0,rectangle,4,-6,1,0,0,4,-6,1,0,0,0,97,97,105,1,,,,,,,,
,,,,,,,,,,,,,FF,,,,,,,,0.9697,,,,,,,,,,,,,,,,,,,,,,60fdb4958e221c323ee7e1c5,61036f03db302659b0568e6b,2021-07-29_22h19.26.455,Simcolourproject_2stim_asymm_v5,2020.2.10,Win32,60,61025ae37ef11b136ea224fe,,,,,,,,,3756,20,-47,1,0,0,response3disk,,4,-1,0,1,0,0,rectangle,-1,0,1,0,0,-1,0,1,0,0,0,98,98,44,1,,,,,,,,
,,,,,,,,,,,,,FF,,,,,,,,1.3784,,,,,,,,,,,,,,,,,,,,,,60fdb4958e221c323ee7e1c5,61036f03db302659b0568e6b,2021-07-29_22h19.26.455,Simcolourproject_2stim_asymm_v5,2020.2.10,Win32,60,61025ae37ef11b136ea224fe,,,,,,,,,3871,90,23,1,0,0,response1disk,,6,31,-5,1,0,0,rectangle,27,75,1,0,0,11,7,1,0,0,0,99,99,38,1,,response1disk_3,TRUE,7,7,"[248,124,122,100,47,188,312,279,50,89,67,299,247,13,76,39,39,270,116,248]",1.6206,rectangle
,,,,,,,,,,,,,FF,,,,,,,,2.3181,,,,,,,,,,,,,,,,,,,,,,60fdb4958e221c323ee7e1c5,61036f03db302659b0568e6b,2021-07-29_22h19.26.455,Simcolourproject_2stim_asymm_v5,2020.2.10,Win32,60,61025ae37ef11b136ea224fe,,,,,,,,,947,94,-23,1,0,0,response3disk,,5,25,-9,1,0,0,rectangle,25,-9,1,0,0,25,-9,1,0,0,0,100,100,91,1,,,,,,,,
,,,,,,,,,,,,,FF,,,,,,,,0.8695,,,,,,,,,,,,,,,,,,,,,,60fdb4958e221c323ee7e1c5,61036f03db302659b0568e6b,2021-07-29_22h19.26.455,Simcolourproject_2stim_asymm_v5,2020.2.10,Win32,60,61025ae37ef11b136ea224fe,,,,,,,,,855,65,-30,1,0,0,response3disk,,5,23,-8,1,0,0,rectangle,23,-8,1,0,0,23,-8,1,0,0,0,101,101,82,1,,,,,,,,
,,,,,,,,,,,,,FF,,,,,,,,0.9383,,,,,,,,,,,,,,,,,,,,,,60fdb4958e221c323ee7e1c5,61036f03db302659b0568e6b,2021-07-29_22h19.26.455,Simcolourproject_2stim_asymm_v5,2020.2.10,Win32,60,61025ae37ef11b136ea224fe,,,,,,,,,4022,26,-57,1,0,0,response3disk,,4,-13,-9,1,0,0,rectangle,-13,-9,1,0,0,-13,-9,1,0,0,0,102,102,150,1,,,,,,,,
,,,,,,,,,,,,,FF,,,,,,,,1.554,,,,,,,,,,,,,,,,,,,,,,60fdb4958e221c323ee7e1c5,61036f03db302659b0568e6b,2021-07-29_22h19.26.455,Simcolourproject_2stim_asymm_v5,2020.2.10,Win32,60,61025ae37ef11b136ea224fe,,,,,,,,,4162,38,-56,1,0,0,response3disk,,4,11,-7,1,0,0,rectangle,11,-7,1,0,0,11,-7,1,0,0,0,103,103,155,1,,,,,,,,
,,,,,,,,,,,,,FF,,,,,,,,1.236,,,,,,,,,,,,,,,,,,,,,,60fdb4958e221c323ee7e1c5,61036f03db302659b0568e6b,2021-07-29_22h19.26.455,Simcolourproject_2stim_asymm_v5,2020.2.10,Win32,60,61025ae37ef11b136ea224fe,,,,,,,,,3792,61,31,1,0,0,response1disk,,6,24,-4,1,0,0,rectangle,24,-4,1,0,0,24,-4,1,0,0,0,104,104,115,1,,,,,,,,
,,,,,,,,,,,,,FF,,,,,,,,1.7555,,,,,,,,,,,,,,,,,,,,,,60fdb4958e221c323ee7e1c5,61036f03db302659b0568e6b,2021-07-29_22h19.26.455,Simcolourproject_2stim_asymm_v5,2020.2.10,Win32,60,61025ae37ef11b136ea224fe,,,,,,,,,709,70,41,1,0,0,response1disk,,6,18,-7,1,0,0,rectangle,18,-7,1,0,0,18,-7,1,0,0,0,105,105,107,1,,,,,,,,
,,,,,,,,,,,,,FF,,,,,,,,0.6685,,,,,,,,,,,,,,,,,,,,,,60fdb4958e221c323ee7e1c5,61036f03db302659b0568e6b,2021-07-29_22h19.26.455,Simcolourproject_2stim_asymm_v5,2020.2.10,Win32,60,61025ae37ef11b136ea224fe,,,,,,,,,677,44,73,1,0,0,response1disk,,7,10,-4,1,0,0,rectangle,10,-4,1,0,0,10,-4,1,0,0,0,106,106,125,1,,,,,,,,
,,,,,,,,,,,,,FF,,,,,,,,4.596,,,,,,,,,,,,,,,,,,,,,,60fdb4958e221c323ee7e1c5,61036f03db302659b0568e6b,2021-07-29_22h19.26.455,Simcolourproject_2stim_asymm_v5,2020.2.10,Win32,60,61025ae37ef11b136ea224fe,,,,,,,,,2231,70,-40,1,0,0,response3disk,,5,9,-7,1,0,0,rectangle,9,-7,1,0,0,9,-7,1,0,0,0,107,107,113,1,,,,,,,,
,,,,,,,,,,,,,FF,,,,,,,,1.6045,,,,,,,,,,,,,,,,,,,,,,60fdb4958e221c323ee7e1c5,61036f03db302659b0568e6b,2021-07-29_22h19.26.455,Simcolourproject_2stim_asymm_v5,2020.2.10,Win32,60,61025ae37ef11b136ea224fe,,,,,,,,,1225,64,-34,1,0,0,response3disk,,5,18,2,1,0,0,rectangle,18,2,1,0,0,18,2,1,0,0,0,108,108,124,1,,,,,,,,
,,,,,,,,,,,,,FF,,,,,,,,2.7401,,,,,,,,,,,,,,,,,,,,,,60fdb4958e221c323ee7e1c5,61036f03db302659b0568e6b,2021-07-29_22h19.26.455,Simcolourproject_2stim_asymm_v5,2020.2.10,Win32,60,61025ae37ef11b136ea224fe,,,,,,,,,2013,64,24,1,0,0,response1disk,,6,14,0,1,0,0,rectangle,14,0,1,0,0,14,0,1,0,0,0,109,109,39,1,,,,,,,,
,,,,,,,,,,,,,FF,,,,,,,,1.2,,,,,,,,,,,,,,,,,,,,,,60fdb4958e221c323ee7e1c5,61036f03db302659b0568e6b,2021-07-29_22h19.26.455,Simcolourproject_2stim_asymm_v5,2020.2.10,Win32,60,61025ae37ef11b136ea224fe,,,,,,,,,4120,-35,-68,1,0,0,response5disk,,3,-12,-5,1,0,0,rectangle,-12,-5,1,0,0,-12,-5,1,0,0,0,110,110,66,1,,,,,,,,
,,,,,,,,,,,,,FF,,,,,,,,1.461,,,,,,,,,,,,,,,,,,,,,,60fdb4958e221c323ee7e1c5,61036f03db302659b0568e6b,2021-07-29_22h19.26.455,Simcolourproject_2stim_asymm_v5,2020.2.10,Win32,60,61025ae37ef11b136ea224fe,,,,,,,,,554,41,-54,1,0,0,response3disk,,4,-4,4,1,0,0,rectangle,-4,4,1,0,0,-4,4,1,0,0,0,111,111,70,1,,,,,,,,
,,,,,,,,,,,,,FF,,,,,,,,2.3704,,,,,,,,,,,,,,,,,,,,,,60fdb4958e221c323ee7e1c5,61036f03db302659b0568e6b,2021-07-29_22h19.26.455,Simcolourproject_2stim_asymm_v5,2020.2.10,Win32,60,61025ae37ef11b136ea224fe,,,,,,,,,3092,71,32,1,0,0,response1disk,,6,9,-3,1,0,0,rectangle,9,-3,1,0,0,9,-3,1,0,0,0,112,112,88,1,,,,,,,,
,,,,,,,,,,,,,FF,,,,,,,,1.1869,,,,,,,,,,,,,,,,,,,,,,60fdb4958e221c323ee7e1c5,61036f03db302659b0568e6b,2021-07-29_22h19.26.455,Simcolourproject_2stim_asymm_v5,2020.2.10,Win32,60,61025ae37ef11b136ea224fe,,,,,,,,,3558,29,-62,1,0,0,response3disk,,4,5,8,1,0,0,rectangle,5,8,1,0,0,5,8,1,0,0,0,113,113,57,1,,,,,,,,
,,,,,,,,,,,,,FF,,,,,,,,1.02,,,,,,,,,,,,,,,,,,,,,,60fdb4958e221c323ee7e1c5,61036f03db302659b0568e6b,2021-07-29_22h19.26.455,Simcolourproject_2stim_asymm_v5,2020.2.10,Win32,60,61025ae37ef11b136ea224fe,,,,,,,,,3892,41,67,1,0,0,response1disk,,7,9,-3,1,0,0,rectangle,9,-3,1,0,0,9,-3,1,0,0,0,114,114,32,1,,,,,,,,
,,,,,,,,,,,,,FF,,,,,,,,0.6369,,,,,,,,,,,,,,,,,,,,,,60fdb4958e221c323ee7e1c5,61036f03db302659b0568e6b,2021-07-29_22h19.26.455,Simcolourproject_2stim_asymm_v5,2020.2.10,Win32,60,61025ae37ef11b136ea224fe,,,,,,,,,1625,36,65,1,0,0,response1disk,,7,6,13,1,0,0,rectangle,71,-26,1,0,0,11,-1,1,0,0,0,115,115,2,1,,response3disk_3,TRUE,5,5,"[248,124,122,100,47,188,312,279,50,89,67,299,247,13,76,39,39,270,116,248]",1.8265,rectangle
,,,,,,,,,,,,,FF,,,,,,,,7.471,,,,,,,,,,,,,,,,,,,,,,60fdb4958e221c323ee7e1c5,61036f03db302659b0568e6b,2021-07-29_22h19.26.455,Simcolourproject_2stim_asymm_v5,2020.2.10,Win32,60,61025ae37ef11b136ea224fe,,,,,,,,,1238,80,-43,1,0,0,response3disk,,5,25,-2,1,0,0,rectangle,25,-2,1,0,0,25,-2,1,0,0,0,116,116,81,1,,,,,,,,
,,,,,,,,,,,,,FF,,,,,,,,2.3345,,,,,,,,,,,,,,,,,,,,,,60fdb4958e221c323ee7e1c5,61036f03db302659b0568e6b,2021-07-29_22h19.26.455,Simcolourproject_2stim_asymm_v5,2020.2.10,Win32,60,61025ae37ef11b136ea224fe,,,,,,,,,595,51,66,1,0,0,response1disk,,7,18,1,1,0,0,rectangle,18,1,1,0,0,18,1,1,0,0,0,117,117,20,1,,,,,,,,
,,,,,,,,,,,,,FF,,,,,,,,0.8557,,,,,,,,,,,,,,,,,,,,,,60fdb4958e221c323ee7e1c5,61036f03db302659b0568e6b,2021-07-29_22h19.26.455,Simcolourproject_2stim_asymm_v5,2020.2.10,Win32,60,61025ae37ef11b136ea224fe,,,,,,,,,2315,43,65,1,0,0,response1disk,,7,12,1,1,0,0,rectangle,12,1,1,0,0,12,1,1,0,0,0,118,118,133,1,,,,,,,,
,,,,,,,,,,,,,FF,,,,,,,,1.1708,,,,,,,,,,,,,,,,,,,,,,60fdb4958e221c323ee7e1c5,61036f03db302659b0568e6b,2021-07-29_22h19.26.455,Simcolourproject_2stim_asymm_v5,2020.2.10,Win32,60,61025ae37ef11b136ea224fe,,,,,,,,,3695,51,38,1,0,0,response1disk,,6,21,-3,1,0,0,rectangle,21,-3,1,0,0,21,-3,1,0,0,0,119,119,120,1,,,,,,,,
,,,,,,,,,,,,,FF,,,,,,,,1.0725,,,,,,,,,,,,,,,,,,,,,,60fdb4958e221c323ee7e1c5,61036f03db302659b0568e6b,2021-07-29_22h19.26.455,Simcolourproject_2stim_asymm_v5,2020.2.10,Win32,60,61025ae37ef11b136ea224fe,,,,,,,,,884,32,46,1,0,0,response1disk,,7,8,-6,1,0,0,rectangle,8,-6,1,0,0,8,-6,1,0,0,0,120,120,79,1,,,,,,,,
,,,,,,,,,,,,,FF,,,,,,,,1.53,,,,,,,,,,,,,,,,,,,,,,60fdb4958e221c323ee7e1c5,61036f03db302659b0568e6b,2021-07-29_22h19.26.455,Simcolourproject_2stim_asymm_v5,2020.2.10,Win32,60,61025ae37ef11b136ea224fe,,,,,,,,,909,82,-28,1,0,0,response3disk,,5,6,-3,1,0,0,rectangle,-22,-72,1,0,0,6,4,1,0,0,0,121,121,37,1,,response5disk_3,TRUE,3,3,"[248,124,122,100,47,188,312,279,50,89,67,299,247,13,76,39,39,270,116,248]",2.3908,rectangle
,,,,,,,,,,,,,FF,,,,,,,,2.0723,,,,,,,,,,,,,,,,,,,,,,60fdb4958e221c323ee7e1c5,61036f03db302659b0568e6b,2021-07-29_22h19.26.455,Simcolourproject_2stim_asymm_v5,2020.2.10,Win32,60,61025ae37ef11b136ea224fe,,,,,,,,,2719,-75,-28,1,0,0,response5disk,,2,-9,7,1,0,0,rectangle,-9,7,1,0,0,-9,7,1,0,0,0,122,122,128,1,,,,,,,,
,,,,,,,,,,,,,FF,,,,,,,,2.0394,,,,,,,,,,,,,,,,,,,,,,60fdb4958e221c323ee7e1c5,61036f03db302659b0568e6b,2021-07-29_22h19.26.455,Simcolourproject_2stim_asymm_v5,2020.2.10,Win32,60,61025ae37ef11b136ea224fe,,,,,,,,,3888,101,-31,1,0,0,response3disk,,5,20,-9,1,0,0,rectangle,78,41,1,0,0,22,-1,1,0,0,0,123,123,103,1,,response1disk_3,TRUE,6,6,"[248,124,122,100,47,188,312,279,50,89,67,299,247,13,76,39,39,270,116,248]",2.5243,rectangle
,,,,,,,,,,,,,FF,,,,,,,,2.3236,,,,,,,,,,,,,,,,,,,,,,60fdb4958e221c323ee7e1c5,61036f03db302659b0568e6b,2021-07-29_22h19.26.455,Simcolourproject_2stim_asymm_v5,2020.2.10,Win32,60,61025ae37ef11b136ea224fe,,,,,,,,,4000,42,-56,1,0,0,response3disk,,4,14,-4,1,0,0,rectangle,14,-4,1,0,0,14,-4,1,0,0,0,124,124,93,1,,,,,,,,
,,,,,,,,,,,,,FF,,,,,,,,1.49,,,,,,,,,,,,,,,,,,,,,,60fdb4958e221c323ee7e1c5,61036f03db302659b0568e6b,2021-07-29_22h19.26.455,Simcolourproject_2stim_asymm_v5,2020.2.10,Win32,60,61025ae37ef11b136ea224fe,,,,,,,,,2250,76,31,1,0,0,response1disk,,6,3,-10,1,0,0,rectangle,3,-10,1,0,0,3,-10,1,0,0,0,125,125,4,1,,,,,,,,
,,,,,,,,,,,,,FF,,,,,,,,0.8882,,,,,,,,,,,,,,,,,,,,,,60fdb4958e221c323ee7e1c5,61036f03db302659b0568e6b,2021-07-29_22h19.26.455,Simcolourproject_2stim_asymm_v5,2020.2.10,Win32,60,61025ae37ef11b136ea224fe,,,,,,,,,814,72,-27,1,0,0,response3disk,,5,-10,-7,1,0,0,rectangle,-10,-7,1,0,0,-10,-7,1,0,0,0,126,126,116,1,,,,,,,,
,,,,,,,,,,,,,FF,,,,,,,,1.4201,,,,,,,,,,,,,,,,,,,,,,60fdb4958e221c323ee7e1c5,61036f03db302659b0568e6b,2021-07-29_22h19.26.455,Simcolourproject_2stim_asymm_v5,2020.2.10,Win32,60,61025ae37ef11b136ea224fe,,,,,,,,,3895,66,45,1,0,0,response1disk,,6,25,6,1,0,0,rectangle,25,6,1,0,0,25,6,1,0,0,0,127,127,102,1,,,,,,,,
,,,,,,,,,,,,,FF,,,,,,,,1.5687,,,,,,,,,,,,,,,,,,,,,,60fdb4958e221c323ee7e1c5,61036f03db302659b0568e6b,2021-07-29_22h19.26.455,Simcolourproject_2stim_asymm_v5,2020.2.10,Win32,60,61025ae37ef11b136ea224fe,,,,,,,,,3966,35,-72,1,0,0,response3disk,,4,-2,0,1,0,0,rectangle,-2,0,1,0,0,-2,0,1,0,0,0,128,128,104,1,,,,,,,,
,,,,,,,,,,,,,FF,,,,,,,,1.0226,,,,,,,,,,,,,,,,,,,,,,60fdb4958e221c323ee7e1c5,61036f03db302659b0568e6b,2021-07-29_22h19.26.455,Simcolourproject_2stim_asymm_v5,2020.2.10,Win32,60,61025ae37ef11b136ea224fe,,,,,,,,,1794,56,33,1,0,0,response1disk,,6,29,5,1,0,0,rectangle,29,5,1,0,0,29,5,1,0,0,0,129,129,119,1,,,,,,,,
,,,,,,,,,,,,,FF,,,,,,,,3.0596,,,,,,,,,,,,,,,,,,,,,,60fdb4958e221c323ee7e1c5,61036f03db302659b0568e6b,2021-07-29_22h19.26.455,Simcolourproject_2stim_asymm_v5,2020.2.10,Win32,60,61025ae37ef11b136ea224fe,,,,,,,,,3603,54,31,1,0,0,response1disk,,6,4,-5,1,0,0,rectangle,4,-5,1,0,0,4,-5,1,0,0,0,130,130,49,1,,,,,,,,
,,,,,,,,,,,,,FF,,,,,,,,1.6091,,,,,,,,,,,,,,,,,,,,,,60fdb4958e221c323ee7e1c5,61036f03db302659b0568e6b,2021-07-29_22h19.26.455,Simcolourproject_2stim_asymm_v5,2020.2.10,Win32,60,61025ae37ef11b136ea224fe,,,,,,,,,1052,64,-40,1,0,0,response3disk,,5,-1,-2,1,0,0,rectangle,-1,-2,1,0,0,-1,-2,1,0,0,0,131,131,109,1,,,,,,,,
,,,,,,,,,,,,,FF,,,,,,,,1.7571,,,,,,,,,,,,,,,,,,,,,,60fdb4958e221c323ee7e1c5,61036f03db302659b0568e6b,2021-07-29_22h19.26.455,Simcolourproject_2stim_asymm_v5,2020.2.10,Win32,60,61025ae37ef11b136ea224fe,,,,,,,,,602,63,40,1,0,0,response1disk,,6,18,11,1,0,0,rectangle,18,11,1,0,0,18,11,1,0,0,0,132,132,30,1,,,,,,,,
,,,,,,,,,,,,,FF,,,,,,,,1.7958,,,,,,,,,,,,,,,,,,,,,,60fdb4958e221c323ee7e1c5,61036f03db302659b0568e6b,2021-07-29_22h19.26.455,Simcolourproject_2stim_asymm_v5,2020.2.10,Win32,60,61025ae37ef11b136ea224fe,,,,,,,,,2316,58,-37,1,0,0,response3disk,,5,-9,6,1,0,0,rectangle,-9,6,1,0,0,-9,6,1,0,0,0,133,133,76,1,,,,,,,,
,,,,,,,,,,,,,FF,,,,,,,,1.7681,,,,,,,,,,,,,,,,,,,,,,60fdb4958e221c323ee7e1c5,61036f03db302659b0568e6b,2021-07-29_22h19.26.455,Simcolourproject_2stim_asymm_v5,2020.2.10,Win32,60,61025ae37ef11b136ea224fe,,,,,,,,,945,32,55,1,0,0,response1disk,,7,16,5,1,0,0,rectangle,16,5,1,0,0,16,5,1,0,0,0,134,134,96,1,,,,,,,,
,,,,,,,,,,,,,FF,,,,,,,,0.7356,,,,,,,,,,,,,,,,,,,,,,60fdb4958e221c323ee7e1c5,61036f03db302659b0568e6b,2021-07-29_22h19.26.455,Simcolourproject_2stim_asymm_v5,2020.2.10,Win32,60,61025ae37ef11b136ea224fe,,,,,,,,,1998,26,60,1,0,0,response1disk,,7,16,8,1,0,0,rectangle,16,8,1,0,0,16,8,1,0,0,0,135,135,52,1,,,,,,,,
,,,,,,,,,,,,,FF,,,,,,,,0.6767,,,,,,,,,,,,,,,,,,,,,,60fdb4958e221c323ee7e1c5,61036f03db302659b0568e6b,2021-07-29_22h19.26.455,Simcolourproject_2stim_asymm_v5,2020.2.10,Win32,60,61025ae37ef11b136ea224fe,,,,,,,,,3444,29,56,1,0,0,response1disk,,7,18,10,1,0,0,rectangle,18,10,1,0,0,18,10,1,0,0,0,136,136,100,1,,,,,,,,
,,,,,,,,,,,,,FF,,,,,,,,1.3056,,,,,,,,,,,,,,,,,,,,,,60fdb4958e221c323ee7e1c5,61036f03db302659b0568e6b,2021-07-29_22h19.26.455,Simcolourproject_2stim_asymm_v5,2020.2.10,Win32,60,61025ae37ef11b136ea224fe,,,,,,,,,1768,63,46,1,0,0,response1disk,,6,5,-5,1,0,0,rectangle,5,-5,1,0,0,5,-5,1,0,0,0,137,137,13,1,,,,,,,,
,,,,,,,,,,,,,FF,,,,,,,,1.423,,,,,,,,,,,,,,,,,,,,,,60fdb4958e221c323ee7e1c5,61036f03db302659b0568e6b,2021-07-29_22h19.26.455,Simcolourproject_2stim_asymm_v5,2020.2.10,Win32,60,61025ae37ef11b136ea224fe,,,,,,,,,2667,-53,31,1,0,0,response7disk,,1,-2,8,1,0,0,rectangle,-2,8,1,0,0,-2,8,1,0,0,0,138,138,149,1,,,,,,,,
,,,,,,,,,,,,,FF,,,,,,,,4.6109,,,,,,,,,,,,,,,,,,,,,,60fdb4958e221c323ee7e1c5,61036f03db302659b0568e6b,2021-07-29_22h19.26.455,Simcolourproject_2stim_asymm_v5,2020.2.10,Win32,60,61025ae37ef11b136ea224fe,,,,,,,,,399,67,-50,1,0,0,response3disk,,5,-13,3,1,0,0,rectangle,-13,3,1,0,0,-13,3,1,0,0,0,139,139,28,1,,,,,,,,
,,,,,,,,,,,,,FF,,,,,,,,1.5722,,,,,,,,,,,,,,,,,,,,,,60fdb4958e221c323ee7e1c5,61036f03db302659b0568e6b,2021-07-29_22h19.26.455,Simcolourproject_2stim_asymm_v5,2020.2.10,Win32,60,61025ae37ef11b136ea224fe,,,,,,,,,1710,49,61,1,0,0,response1disk,,7,18,12,1,0,0,rectangle,18,12,1,0,0,18,12,1,0,0,0,140,140,139,1,,,,,,,,
,,,,,,,,,,,,,FF,,,,,,,,1.9552,,,,,,,,,,,,,,,,,,,,,,60fdb4958e221c323ee7e1c5,61036f03db302659b0568e6b,2021-07-29_22h19.26.455,Simcolourproject_2stim_asymm_v5,2020.2.10,Win32,60,61025ae37ef11b136ea224fe,,,,,,,,,848,56,42,1,0,0,response1disk,,6,6,-2,1,0,0,rectangle,6,-2,1,0,0,6,-2,1,0,0,0,141,141,74,1,,,,,,,,
,,,,,,,,,,,,,FF,,,,,,,,1.2795,,,,,,,,,,,,,,,,,,,,,,60fdb4958e221c323ee7e1c5,61036f03db302659b0568e6b,2021-07-29_22h19.26.455,Simcolourproject_2stim_asymm_v5,2020.2.10,Win32,60,61025ae37ef11b136ea224fe,,,,,,,,,2589,58,41,1,0,0,response1disk,,6,-3,-3,1,0,0,rectangle,-3,-3,1,0,0,-3,-3,1,0,0,0,142,142,3,1,,,,,,,,
,,,,,,,,,,,,,FF,,,,,,,,1.121,,,,,,,,,,,,,,,,,,,,,,60fdb4958e221c323ee7e1c5,61036f03db302659b0568e6b,2021-07-29_22h19.26.455,Simcolourproject_2stim_asymm_v5,2020.2.10,Win32,60,61025ae37ef11b136ea224fe,,,,,,,,,1576,55,67,1,0,0,response1disk,,7,20,0,1,0,0,rectangle,20,0,1,0,0,20,0,1,0,0,0,143,143,67,1,,,,,,,,
,,,,,,,,,,,,,FF,,,,,,,,1.4194,,,,,,,,,,,,,,,,,,,,,,60fdb4958e221c323ee7e1c5,61036f03db302659b0568e6b,2021-07-29_22h19.26.455,Simcolourproject_2stim_asymm_v5,2020.2.10,Win32,60,61025ae37ef11b136ea224fe,,,,,,,,,1256,28,50,1,0,0,response1disk,,7,11,-4,1,0,0,rectangle,11,-4,1,0,0,11,-4,1,0,0,0,144,144,35,1,,,,,,,,
,,,,,,,,,,,,,FF,,,,,,,,1.6066,,,,,,,,,,,,,,,,,,,,,,60fdb4958e221c323ee7e1c5,61036f03db302659b0568e6b,2021-07-29_22h19.26.455,Simcolourproject_2stim_asymm_v5,2020.2.10,Win32,60,61025ae37ef11b136ea224fe,,,,,,,,,2472,68,-38,1,0,0,response3disk,,5,-12,3,1,0,0,rectangle,-12,3,1,0,0,-12,3,1,0,0,0,145,145,19,1,,,,,,,,
,,,,,,,,,,,,,FF,,,,,,,,1.3881,,,,,,,,,,,,,,,,,,,,,,60fdb4958e221c323ee7e1c5,61036f03db302659b0568e6b,2021-07-29_22h19.26.455,Simcolourproject_2stim_asymm_v5,2020.2.10,Win32,60,61025ae37ef11b136ea224fe,,,,,,,,,4178,56,29,1,0,0,response1disk,,6,12,-7,1,0,0,rectangle,12,-7,1,0,0,12,-7,1,0,0,0,146,146,146,1,,,,,,,,
,,,,,,,,,,,,,FF,,,,,,,,2.8163,,,,,,,,,,,,,,,,,,,,,,60fdb4958e221c323ee7e1c5,61036f03db302659b0568e6b,2021-07-29_22h19.26.455,Simcolourproject_2stim_asymm_v5,2020.2.10,Win32,60,61025ae37ef11b136ea224fe,,,,,,,,,2261,65,34,1,0,0,response1disk,,6,9,5,1,0,0,rectangle,9,5,1,0,0,9,5,1,0,0,0,147,147,127,1,,,,,,,,
,,,,,,,,,,,,,FF,,,,,,,,1.4715,,,,,,,,,,,,,,,,,,,,,,60fdb4958e221c323ee7e1c5,61036f03db302659b0568e6b,2021-07-29_22h19.26.455,Simcolourproject_2stim_asymm_v5,2020.2.10,Win32,60,61025ae37ef11b136ea224fe,,,,,,,,,2942,38,-61,1,0,0,response3disk,,4,16,-12,1,0,0,rectangle,16,-12,1,0,0,16,-12,1,0,0,0,148,148,45,1,,,,,,,,
,,,,,,,,,,,,,FF,,,,,,,,0.7613,,,,,,,,,,,,,,,,,,,,,,60fdb4958e221c323ee7e1c5,61036f03db302659b0568e6b,2021-07-29_22h19.26.455,Simcolourproject_2stim_asymm_v5,2020.2.10,Win32,60,61025ae37ef11b136ea224fe,,,,,,,,,647,40,-19,1,0,0,response3disk,,5,-1,5,1,0,0,rectangle,-1,5,1,0,0,-1,5,1,0,0,0,149,149,17,1,,,,,,,,
,,,,,,,,,,,,,FF,,,,,,,,2.2889,,,,,,,,,,,,,,,,,,,,,,60fdb4958e221c323ee7e1c5,61036f03db302659b0568e6b,2021-07-29_22h19.26.455,Simcolourproject_2stim_asymm_v5,2020.2.10,Win32,60,61025ae37ef11b136ea224fe,,,,,,,,,3441,-27,-55,1,0,0,response5disk,,3,-9,2,1,0,0,rectangle,-9,2,1,0,0,-9,2,1,0,0,0,150,150,63,1,,,,,,,,
,,,,,,,,,,,,,FF,,,,,,,,2.0757,,,,,,,,,,,,,,,,,,,,,,60fdb4958e221c323ee7e1c5,61036f03db302659b0568e6b,2021-07-29_22h19.26.455,Simcolourproject_2stim_asymm_v5,2020.2.10,Win32,60,61025ae37ef11b136ea224fe,,,,,,,,,2057,29,-26,1,0,0,response3disk,,5,5,-5,1,0,0,rectangle,5,-5,1,0,0,5,-5,1,0,0,0,151,151,64,1,,,,,,,,
,,,,,,,,,,,,,FF,,,,,,,,2.3688,,,,,,,,,,,,,,,,,,,,,,60fdb4958e221c323ee7e1c5,61036f03db302659b0568e6b,2021-07-29_22h19.26.455,Simcolourproject_2stim_asymm_v5,2020.2.10,Win32,60,61025ae37ef11b136ea224fe,,,,,,,,,278,-44,-61,1,0,0,response5disk,,3,7,-5,1,0,0,rectangle,7,-5,1,0,0,7,-5,1,0,0,0,152,152,36,1,,,,,,,,
,,,,,,,,,,,,,FF,,,,,,,,1.4287,,,,,,,,,,,,,,,,,,,,,,60fdb4958e221c323ee7e1c5,61036f03db302659b0568e6b,2021-07-29_22h19.26.455,Simcolourproject_2stim_asymm_v5,2020.2.10,Win32,60,61025ae37ef11b136ea224fe,,,,,,,,,683,42,-28,1,0,0,response3disk,,5,4,-6,1,0,0,rectangle,4,-6,1,0,0,4,-6,1,0,0,0,153,153,112,1,,,,,,,,
,,,,,,,,,,,,,FF,,,,,,,,3.6669,,,,,,,,,,,,,,,,,,,,,,60fdb4958e221c323ee7e1c5,61036f03db302659b0568e6b,2021-07-29_22h19.26.455,Simcolourproject_2stim_asymm_v5,2020.2.10,Win32,60,61025ae37ef11b136ea224fe,,,,,,,,,1126,91,-36,1,0,0,response3disk,,5,14,-1,1,0,0,rectangle,14,-1,1,0,0,14,-1,1,0,0,0,154,154,43,1,,,,,,,,
,,,,,,,,,,,,,FF,,,,,,,,3.0918,,,,,,,,,,,,,,,,,,,,,,60fdb4958e221c323ee7e1c5,61036f03db302659b0568e6b,2021-07-29_22h19.26.455,Simcolourproject_2stim_asymm_v5,2020.2.10,Win32,60,61025ae37ef11b136ea224fe,,,,,,,,,1329,52,67,1,0,0,response1disk,,7,21,11,1,0,0,rectangle,21,11,1,0,0,21,11,1,0,0,0,155,155,159,1,,,,,,,,
,,,,,,,,,,,,,FF,,,,,,,,1.7348,,,,,,,,,,,,,,,,,,,,,,60fdb4958e221c323ee7e1c5,61036f03db302659b0568e6b,2021-07-29_22h19.26.455,Simcolourproject_2stim_asymm_v5,2020.2.10,Win32,60,61025ae37ef11b136ea224fe,,,,,,,,,620,-71,-33,1,0,0,response5disk,,2,-2,-3,1,0,0,rectangle,-2,-3,1,0,0,-2,-3,1,0,0,0,156,156,131,1,,,,,,,,
,,,,,,,,,,,,,FF,,,,,,,,1.3353,,,,,,,,,,,,,,,,,,,,,,60fdb4958e221c323ee7e1c5,61036f03db302659b0568e6b,2021-07-29_22h19.26.455,Simcolourproject_2stim_asymm_v5,2020.2.10,Win32,60,61025ae37ef11b136ea224fe,,,,,,,,,794,36,59,1,0,0,response1disk,,7,15,2,1,0,0,rectangle,15,2,1,0,0,15,2,1,0,0,0,157,157,92,1,,,,,,,,
,,,,,,,,,,,,,FF,,,,,,,,0.7863,,,,,,,,,,,,,,,,,,,,,,60fdb4958e221c323ee7e1c5,61036f03db302659b0568e6b,2021-07-29_22h19.26.455,Simcolourproject_2stim_asymm_v5,2020.2.10,Win32,60,61025ae37ef11b136ea224fe,,,,,,,,,2132,46,54,1,0,0,response1disk,,7,14,1,1,0,0,rectangle,14,1,1,0,0,14,1,1,0,0,0,158,158,111,1,,,,,,,,
,,,,,,,,,,,,,FF,,,,,,,,1.203,,,,,,,,,,,,,,,,,,,,,,60fdb4958e221c323ee7e1c5,61036f03db302659b0568e6b,2021-07-29_22h19.26.455,Simcolourproject_2stim_asymm_v5,2020.2.10,Win32,60,61025ae37ef11b136ea224fe,,,,,,,,,2615,37,-68,1,0,0,response3disk,,4,5,4,1,0,0,rectangle,5,4,1,0,0,5,4,1,0,0,0,159,159,16,1,,,,,,,,
,,,,,,,,,,,,,FF,,,,,,,,1.0623,,,,,,,,,,,,,,,,,,,,,,60fdb4958e221c323ee7e1c5,61036f03db302659b0568e6b,2021-07-29_22h19.26.455,Simcolourproject_2stim_asymm_v5,2020.2.10,Win32,60,61025ae37ef11b136ea224fe,,,,,,,,,298,43,65,1,0,0,response1disk,,7,7,-1,1,0,0,rectangle,7,-1,1,0,0,7,-1,1,0,0,1,0,160,124,1,,,,,,,,
,,,,,,,,,,,,,FF,,,,,,,,0.8686,,,,,,,,,,,,,,,,,,,,,,60fdb4958e221c323ee7e1c5,61036f03db302659b0568e6b,2021-07-29_22h19.26.455,Simcolourproject_2stim_asymm_v5,2020.2.10,Win32,60,61025ae37ef11b136ea224fe,,,,,,,,,3497,38,61,1,0,0,response1disk,,7,11,-1,1,0,0,rectangle,11,-1,1,0,0,11,-1,1,0,0,1,1,161,75,1,,,,,,,,
,,,,,,,,,,,,,FF,,,,,,,,1.2137,,,,,,,,,,,,,,,,,,,,,,60fdb4958e221c323ee7e1c5,61036f03db302659b0568e6b,2021-07-29_22h19.26.455,Simcolourproject_2stim_asymm_v5,2020.2.10,Win32,60,61025ae37ef11b136ea224fe,,,,,,,,,260,43,-76,1,0,0,response3disk,,4,3,6,1,0,0,rectangle,3,6,1,0,0,3,6,1,0,0,1,2,162,39,1,,,,,,,,
,,,,,,,,,,,,,FF,,,,,,,,1.0049,,,,,,,,,,,,,,,,,,,,,,60fdb4958e221c323ee7e1c5,61036f03db302659b0568e6b,2021-07-29_22h19.26.455,Simcolourproject_2stim_asymm_v5,2020.2.10,Win32,60,61025ae37ef11b136ea224fe,,,,,,,,,1409,38,59,1,0,0,response1disk,,7,25,12,1,0,0,rectangle,25,12,1,0,0,25,12,1,0,0,1,3,163,128,1,,,,,,,,
,,,,,,,,,,,,,FF,,,,,,,,1.1551,,,,,,,,,,,,,,,,,,,,,,60fdb4958e221c323ee7e1c5,61036f03db302659b0568e6b,2021-07-29_22h19.26.455,Simcolourproject_2stim_asymm_v5,2020.2.10,Win32,60,61025ae37ef11b136ea224fe,,,,,,,,,2299,-33,-55,1,0,0,response5disk,,3,-21,13,1,0,0,rectangle,-21,13,1,0,0,-21,13,1,0,0,1,4,164,18,1,,,,,,,,
,,,,,,,,,,,,,FF,,,,,,,,6.2273,,,,,,,,,,,,,,,,,,,,,,60fdb4958e221c323ee7e1c5,61036f03db302659b0568e6b,2021-07-29_22h19.26.455,Simcolourproject_2stim_asymm_v5,2020.2.10,Win32,60,61025ae37ef11b136ea224fe,,,,,,,,,1206,77,-26,1,0,0,response3disk,,5,5,-2,1,0,0,rectangle,5,-2,1,0,0,5,-2,1,0,0,1,5,165,144,1,,,,,,,,
,,,,,,,,,,,,,FF,,,,,,,,1.0651,,,,,,,,,,,,,,,,,,,,,,60fdb4958e221c323ee7e1c5,61036f03db302659b0568e6b,2021-07-29_22h19.26.455,Simcolourproject_2stim_asymm_v5,2020.2.10,Win32,60,61025ae37ef11b136ea224fe,,,,,,,,,2521,36,90,1,0,0,response1disk,,7,23,5,1,0,0,rectangle,23,5,1,0,0,23,5,1,0,0,1,6,166,71,1,,,,,,,,
,,,,,,,,,,,,,FF,,,,,,,,1.9942,,,,,,,,,,,,,,,,,,,,,,60fdb4958e221c323ee7e1c5,61036f03db302659b0568e6b,2021-07-29_22h19.26.455,Simcolourproject_2stim_asymm_v5,2020.2.10,Win32,60,61025ae37ef11b136ea224fe,,,,,,,,,1275,75,-40,1,0,0,response3disk,,5,0,5,1,0,0,rectangle,0,5,1,0,0,0,5,1,0,0,1,7,167,129,1,,,,,,,,
,,,,,,,,,,,,,FF,,,,,,,,3.2085,,,,,,,,,,,,,,,,,,,,,,60fdb4958e221c323ee7e1c5,61036f03db302659b0568e6b,2021-07-29_22h19.26.455,Simcolourproject_2stim_asymm_v5,2020.2.10,Win32,60,61025ae37ef11b136ea224fe,,,,,,,,,338,45,-60,1,0,0,response3disk,,4,15,-5,1,0,0,rectangle,15,-5,1,0,0,15,-5,1,0,0,1,8,168,19,1,,,,,,,,
,,,,,,,,,,,,,FF,,,,,,,,1.067,,,,,,,,,,,,,,,,,,,,,,60fdb4958e221c323ee7e1c5,61036f03db302659b0568e6b,2021-07-29_22h19.26.455,Simcolourproject_2stim_asymm_v5,2020.2.10,Win32,60,61025ae37ef11b136ea224fe,,,,,,,,,457,40,-53,1,0,0,response3disk,,4,-5,-8,1,0,0,rectangle,-5,-8,1,0,0,-5,-8,1,0,0,1,9,169,136,1,,,,,,,,
,,,,,,,,,,,,,FF,,,,,,,,0.8819,,,,,,,,,,,,,,,,,,,,,,60fdb4958e221c323ee7e1c5,61036f03db302659b0568e6b,2021-07-29_22h19.26.455,Simcolourproject_2stim_asymm_v5,2020.2.10,Win32,60,61025ae37ef11b136ea224fe,,,,,,,,,1655,37,49,1,0,0,response1disk,,7,4,1,1,0,0,rectangle,4,1,1,0,0,4,1,1,0,0,1,10,170,14,1,,,,,,,,
,,,,,,,,,,,,,FF,,,,,,,,1.5871,,,,,,,,,,,,,,,,,,,,,,60fdb4958e221c323ee7e1c5,61036f03db302659b0568e6b,2021-07-29_22h19.26.455,Simcolourproject_2stim_asymm_v5,2020.2.10,Win32,60,61025ae37ef11b136ea224fe,,,,,,,,,1076,42,22,1,0,0,response1disk,,6,0,-2,1,0,0,rectangle,0,-2,1,0,0,0,-2,1,0,0,1,11,171,84,1,,,,,,,,
,,,,,,,,,,,,,FF,,,,,,,,0.794,,,,,,,,,,,,,,,,,,,,,,60fdb4958e221c323ee7e1c5,61036f03db302659b0568e6b,2021-07-29_22h19.26.455,Simcolourproject_2stim_asymm_v5,2020.2.10,Win32,60,61025ae37ef11b136ea224fe,,,,,,,,,2337,30,68,1,0,0,response1disk,,7,4,2,1,0,0,rectangle,4,2,1,0,0,4,2,1,0,0,1,12,172,23,1,,,,,,,,
,,,,,,,,,,,,,FF,,,,,,,,0.976,,,,,,,,,,,,,,,,,,,,,,60fdb4958e221c323ee7e1c5,61036f03db302659b0568e6b,2021-07-29_22h19.26.455,Simcolourproject_2stim_asymm_v5,2020.2.10,Win32,60,61025ae37ef11b136ea224fe,,,,,,,,,1205,42,23,1,0,0,response1disk,,6,13,2,1,0,0,rectangle,13,2,1,0,0,13,2,1,0,0,1,13,173,138,1,,,,,,,,
,,,,,,,,,,,,,FF,,,,,,,,1.6297,,,,,,,,,,,,,,,,,,,,,,60fdb4958e221c323ee7e1c5,61036f03db302659b0568e6b,2021-07-29_22h19.26.455,Simcolourproject_2stim_asymm_v5,2020.2.10,Win32,60,61025ae37ef11b136ea224fe,,,,,,,,,3972,39,-69,1,0,0,response3disk,,4,8,-6,1,0,0,rectangle,8,-6,1,0,0,8,-6,1,0,0,1,14,174,120,1,,,,,,,,
,,,,,,,,,,,,,FF,,,,,,,,3.4595,,,,,,,,,,,,,,,,,,,,,,60fdb4958e221c323ee7e1c5,61036f03db302659b0568e6b,2021-07-29_22h19.26.455,Simcolourproject_2stim_asymm_v5,2020.2.10,Win32,60,61025ae37ef11b136ea224fe,,,,,,,,,1378,34,-69,1,0,0,response3disk,,4,6,3,1,0,0,rectangle,6,3,1,0,0,6,3,1,0,0,1,15,175,88,1,,,,,,,,
,,,,,,,,,,,,,FF,,,,,,,,1.0368,,,,,,,,,,,,,,,,,,,,,,60fdb4958e221c323ee7e1c5,61036f03db302659b0568e6b,2021-07-29_22h19.26.455,Simcolourproject_2stim_asymm_v5,2020.2.10,Win32,60,61025ae37ef11b136ea224fe,,,,,,,,,2528,43,62,1,0,0,response1disk,,7,28,3,1,0,0,rectangle,28,3,1,0,0,28,3,1,0,0,1,16,176,6,1,,,,,,,,
,,,,,,,,,,,,,FF,,,,,,,,2.3398,,,,,,,,,,,,,,,,,,,,,,60fdb4958e221c323ee7e1c5,61036f03db302659b0568e6b,2021-07-29_22h19.26.455,Simcolourproject_2stim_asymm_v5,2020.2.10,Win32,60,61025ae37ef11b136ea224fe,,,,,,,,,4051,-41,-57,1,0,0,response5disk,,3,-18,1,1,0,0,rectangle,-18,1,1,0,0,-18,1,1,0,0,1,17,177,25,1,,,,,,,,
,,,,,,,,,,,,,FF,,,,,,,,1.0615,,,,,,,,,,,,,,,,,,,,,,60fdb4958e221c323ee7e1c5,61036f03db302659b0568e6b,2021-07-29_22h19.26.455,Simcolourproject_2stim_asymm_v5,2020.2.10,Win32,60,61025ae37ef11b136ea224fe,,,,,,,,,766,57,29,1,0,0,response1disk,,6,21,-7,1,0,0,rectangle,21,-7,1,0,0,21,-7,1,0,0,1,18,178,17,1,,,,,,,,
,,,,,,,,,,,,,FF,,,,,,,,2.199,,,,,,,,,,,,,,,,,,,,,,60fdb4958e221c323ee7e1c5,61036f03db302659b0568e6b,2021-07-29_22h19.26.455,Simcolourproject_2stim_asymm_v5,2020.2.10,Win32,60,61025ae37ef11b136ea224fe,,,,,,,,,558,51,32,1,0,0,response1disk,,6,16,3,1,0,0,rectangle,16,3,1,0,0,16,3,1,0,0,1,19,179,51,1,,,,,,,,
,,,,,,,,,,,,,FF,,,,,,,,0.6519,,,,,,,,,,,,,,,,,,,,,,60fdb4958e221c323ee7e1c5,61036f03db302659b0568e6b,2021-07-29_22h19.26.455,Simcolourproject_2stim_asymm_v5,2020.2.10,Win32,60,61025ae37ef11b136ea224fe,,,,,,,,,4110,32,59,1,0,0,response1disk,,7,12,10,1,0,0,rectangle,12,10,1,0,0,12,10,1,0,0,1,20,180,11,1,,,,,,,,
,,,,,,,,,,,,,FF,,,,,,,,0.7355,,,,,,,,,,,,,,,,,,,,,,60fdb4958e221c323ee7e1c5,61036f03db302659b0568e6b,2021-07-29_22h19.26.455,Simcolourproject_2stim_asymm_v5,2020.2.10,Win32,60,61025ae37ef11b136ea224fe,,,,,,,,,1845,34,55,1,0,0,response1disk,,7,14,10,1,0,0,rectangle,14,10,1,0,0,14,10,1,0,0,1,21,181,82,1,,,,,,,,
,,,,,,,,,,,,,FF,,,,,,,,2.6294,,,,,,,,,,,,,,,,,,,,,,60fdb4958e221c323ee7e1c5,61036f03db302659b0568e6b,2021-07-29_22h19.26.455,Simcolourproject_2stim_asymm_v5,2020.2.10,Win32,60,61025ae37ef11b136ea224fe,,,,,,,,,2219,91,-29,1,0,0,response3disk,,5,11,-6,1,0,0,rectangle,11,-6,1,0,0,11,-6,1,0,0,1,22,182,54,1,,,,,,,,
,,,,,,,,,,,,,FF,,,,,,,,1.1379,,,,,,,,,,,,,,,,,,,,,,60fdb4958e221c323ee7e1c5,61036f03db302659b0568e6b,2021-07-29_22h19.26.455,Simcolourproject_2stim_asymm_v5,2020.2.10,Win32,60,61025ae37ef11b136ea224fe,,,,,,,,,1785,63,-36,1,0,0,response3disk,,5,11,-4,1,0,0,rectangle,11,-4,1,0,0,11,-4,1,0,0,1,23,183,72,1,,,,,,,,
,,,,,,,,,,,,,FF,,,,,,,,2.4261,,,,,,,,,,,,,,,,,,,,,,60fdb4958e221c323ee7e1c5,61036f03db302659b0568e6b,2021-07-29_22h19.26.455,Simcolourproject_2stim_asymm_v5,2020.2.10,Win32,60,61025ae37ef11b136ea224fe,,,,,,,,,2989,45,26,1,0,0,response1disk,,6,24,7,1,0,0,rectangle,24,7,1,0,0,24,7,1,0,0,1,24,184,32,1,,,,,,,,
,,,,,,,,,,,,,FF,,,,,,,,1.0688,,,,,,,,,,,,,,,,,,,,,,60fdb4958e221c323ee7e1c5,61036f03db302659b0568e6b,2021-07-29_22h19.26.455,Simcolourproject_2stim_asymm_v5,2020.2.10,Win32,60,61025ae37ef11b136ea224fe,,,,,,,,,3375,45,65,1,0,0,response1disk,,7,13,-2,1,0,0,rectangle,13,-2,1,0,0,13,-2,1,0,0,1,25,185,59,1,,,,,,,,
,,,,,,,,,,,,,FF,,,,,,,,1.0555,,,,,,,,,,,,,,,,,,,,,,60fdb4958e221c323ee7e1c5,61036f03db302659b0568e6b,2021-07-29_22h19.26.455,Simcolourproject_2stim_asymm_v5,2020.2.10,Win32,60,61025ae37ef11b136ea224fe,,,,,,,,,3261,40,72,1,0,0,response1disk,,7,19,9,1,0,0,rectangle,19,9,1,0,0,19,9,1,0,0,1,26,186,20,1,,,,,,,,
,,,,,,,,,,,,,FF,,,,,,,,1.337,,,,,,,,,,,,,,,,,,,,,,60fdb4958e221c323ee7e1c5,61036f03db302659b0568e6b,2021-07-29_22h19.26.455,Simcolourproject_2stim_asymm_v5,2020.2.10,Win32,60,61025ae37ef11b136ea224fe,,,,,,,,,3268,36,53,1,0,0,response1disk,,7,12,-9,1,0,0,rectangle,30,77,1,0,0,27,-5,1,0,0,1,27,187,104,1,,response1disk_3,TRUE,7,7,"[248,124,122,100,47,188,312,279,50,89,67,299,247,13,76,39,39,270,116,248]",1.7504,rectangle
,,,,,,,,,,,,,FF,,,,,,,,2.9668,,,,,,,,,,,,,,,,,,,,,,60fdb4958e221c323ee7e1c5,61036f03db302659b0568e6b,2021-07-29_22h19.26.455,Simcolourproject_2stim_asymm_v5,2020.2.10,Win32,60,61025ae37ef11b136ea224fe,,,,,,,,,691,68,-40,1,0,0,response3disk,,5,9,-3,1,0,0,rectangle,9,-3,1,0,0,9,-3,1,0,0,1,28,188,48,1,,,,,,,,
,,,,,,,,,,,,,FF,,,,,,,,2.4993,,,,,,,,,,,,,,,,,,,,,,60fdb4958e221c323ee7e1c5,61036f03db302659b0568e6b,2021-07-29_22h19.26.455,Simcolourproject_2stim_asymm_v5,2020.2.10,Win32,60,61025ae37ef11b136ea224fe,,,,,,,,,4343,-58,24,1,0,0,response7disk,,1,15,-1,1,0,0,rectangle,15,-1,1,0,0,15,-1,1,0,0,1,29,189,89,1,,,,,,,,
,,,,,,,,,,,,,FF,,,,,,,,1.5461,,,,,,,,,,,,,,,,,,,,,,60fdb4958e221c323ee7e1c5,61036f03db302659b0568e6b,2021-07-29_22h19.26.455,Simcolourproject_2stim_asymm_v5,2020.2.10,Win32,60,61025ae37ef11b136ea224fe,,,,,,,,,4290,89,29,1,0,0,response1disk,,6,16,4,1,0,0,rectangle,16,4,1,0,0,16,4,1,0,0,1,30,190,155,1,,,,,,,,
,,,,,,,,,,,,,FF,,,,,,,,1.8836,,,,,,,,,,,,,,,,,,,,,,60fdb4958e221c323ee7e1c5,61036f03db302659b0568e6b,2021-07-29_22h19.26.455,Simcolourproject_2stim_asymm_v5,2020.2.10,Win32,60,61025ae37ef11b136ea224fe,,,,,,,,,3152,73,-52,1,0,0,response3disk,,5,-17,0,1,0,0,rectangle,-17,0,1,0,0,-17,0,1,0,0,1,31,191,7,1,,,,,,,,
,,,,,,,,,,,,,FF,,,,,,,,1.1967,,,,,,,,,,,,,,,,,,,,,,60fdb4958e221c323ee7e1c5,61036f03db302659b0568e6b,2021-07-29_22h19.26.455,Simcolourproject_2stim_asymm_v5,2020.2.10,Win32,60,61025ae37ef11b136ea224fe,,,,,,,,,3993,-27,52,1,0,0,response7disk,,0,7,-5,1,0,0,rectangle,7,-5,1,0,0,7,-5,1,0,0,1,32,192,146,1,,,,,,,,
,,,,,,,,,,,,,FF,,,,,,,,1.7547,,,,,,,,,,,,,,,,,,,,,,60fdb4958e221c323ee7e1c5,61036f03db302659b0568e6b,2021-07-29_22h19.26.455,Simcolourproject_2stim_asymm_v5,2020.2.10,Win32,60,61025ae37ef11b136ea224fe,,,,,,,,,730,30,-55,1,0,0,response3disk,,4,16,7,1,0,0,rectangle,16,7,1,0,0,16,7,1,0,0,1,33,193,67,1,,,,,,,,
,,,,,,,,,,,,,FF,,,,,,,,1.5196,,,,,,,,,,,,,,,,,,,,,,60fdb4958e221c323ee7e1c5,61036f03db302659b0568e6b,2021-07-29_22h19.26.455,Simcolourproject_2stim_asymm_v5,2020.2.10,Win32,60,61025ae37ef11b136ea224fe,,,,,,,,,2280,89,20,1,0,0,response1disk,,6,-2,2,1,0,0,rectangle,-2,2,1,0,0,-2,2,1,0,0,1,34,194,107,1,,,,,,,,
,,,,,,,,,,,,,FF,,,,,,,,1.4878,,,,,,,,,,,,,,,,,,,,,,60fdb4958e221c323ee7e1c5,61036f03db302659b0568e6b,2021-07-29_22h19.26.455,Simcolourproject_2stim_asymm_v5,2020.2.10,Win32,60,61025ae37ef11b136ea224fe,,,,,,,,,1831,51,-68,1,0,0,response3disk,,4,-10,6,1,0,0,rectangle,-10,6,1,0,0,-10,6,1,0,0,1,35,195,73,1,,,,,,,,
,,,,,,,,,,,,,FF,,,,,,,,1.0366,,,,,,,,,,,,,,,,,,,,,,60fdb4958e221c323ee7e1c5,61036f03db302659b0568e6b,2021-07-29_22h19.26.455,Simcolourproject_2stim_asymm_v5,2020.2.10,Win32,60,61025ae37ef11b136ea224fe,,,,,,,,,2647,52,77,1,0,0,response1disk,,7,26,13,1,0,0,rectangle,26,13,1,0,0,26,13,1,0,0,1,36,196,130,1,,,,,,,,
,,,,,,,,,,,,,FF,,,,,,,,0.7398,,,,,,,,,,,,,,,,,,,,,,60fdb4958e221c323ee7e1c5,61036f03db302659b0568e6b,2021-07-29_22h19.26.455,Simcolourproject_2stim_asymm_v5,2020.2.10,Win32,60,61025ae37ef11b136ea224fe,,,,,,,,,1852,29,56,1,0,0,response1disk,,7,20,15,1,0,0,rectangle,20,15,1,0,0,20,15,1,0,0,1,37,197,77,1,,,,,,,,
,,,,,,,,,,,,,FF,,,,,,,,0.7275,,,,,,,,,,,,,,,,,,,,,,60fdb4958e221c323ee7e1c5,61036f03db302659b0568e6b,2021-07-29_22h19.26.455,Simcolourproject_2stim_asymm_v5,2020.2.10,Win32,60,61025ae37ef11b136ea224fe,,,,,,,,,2330,26,57,1,0,0,response1disk,,7,5,1,1,0,0,rectangle,5,1,1,0,0,5,1,1,0,0,1,38,198,79,1,,,,,,,,
,,,,,,,,,,,,,FF,,,,,,,,0.8943,,,,,,,,,,,,,,,,,,,,,,60fdb4958e221c323ee7e1c5,61036f03db302659b0568e6b,2021-07-29_22h19.26.455,Simcolourproject_2stim_asymm_v5,2020.2.10,Win32,60,61025ae37ef11b136ea224fe,,,,,,,,,3728,42,64,1,0,0,response1disk,,7,19,2,1,0,0,rectangle,19,2,1,0,0,19,2,1,0,0,1,39,199,55,1,,,,,,,,
,,,,,,,,,,,,,FF,,,,,,,,1.6887,,,,,,,,,,,,,,,,,,,,,,60fdb4958e221c323ee7e1c5,61036f03db302659b0568e6b,2021-07-29_22h19.26.455,Simcolourproject_2stim_asymm_v5,2020.2.10,Win32,60,61025ae37ef11b136ea224fe,,,,,,,,,1284,72,39,1,0,0,response1disk,,6,4,-12,1,0,0,rectangle,4,-12,1,0,0,4,-12,1,0,0,1,40,200,141,1,,,,,,,,
,,,,,,,,,,,,,FF,,,,,,,,2.0556,,,,,,,,,,,,,,,,,,,,,,60fdb4958e221c323ee7e1c5,61036f03db302659b0568e6b,2021-07-29_22h19.26.455,Simcolourproject_2stim_asymm_v5,2020.2.10,Win32,60,61025ae37ef11b136ea224fe,,,,,,,,,353,64,-46,1,0,0,response3disk,,5,12,-2,1,0,0,rectangle,12,-2,1,0,0,12,-2,1,0,0,1,41,201,97,1,,,,,,,,
,,,,,,,,,,,,,FF,,,,,,,,1.029,,,,,,,,,,,,,,,,,,,,,,60fdb4958e221c323ee7e1c5,61036f03db302659b0568e6b,2021-07-29_22h19.26.455,Simcolourproject_2stim_asymm_v5,2020.2.10,Win32,60,61025ae37ef11b136ea224fe,,,,,,,,,1122,41,65,1,0,0,response1disk,,7,7,4,1,0,0,rectangle,7,4,1,0,0,7,4,1,0,0,1,42,202,49,1,,,,,,,,
,,,,,,,,,,,,,FF,,,,,,,,2.6992,,,,,,,,,,,,,,,,,,,,,,60fdb4958e221c323ee7e1c5,61036f03db302659b0568e6b,2021-07-29_22h19.26.455,Simcolourproject_2stim_asymm_v5,2020.2.10,Win32,60,61025ae37ef11b136ea224fe,,,,,,,,,2247,35,70,1,0,0,response1disk,,7,9,-5,1,0,0,rectangle,9,-5,1,0,0,9,-5,1,0,0,1,43,203,24,1,,,,,,,,
,,,,,,,,,,,,,FF,,,,,,,,0.8848,,,,,,,,,,,,,,,,,,,,,,60fdb4958e221c323ee7e1c5,61036f03db302659b0568e6b,2021-07-29_22h19.26.455,Simcolourproject_2stim_asymm_v5,2020.2.10,Win32,60,61025ae37ef11b136ea224fe,,,,,,,,,315,25,59,1,0,0,response1disk,,7,11,4,1,0,0,rectangle,11,4,1,0,0,11,4,1,0,0,1,44,204,110,1,,,,,,,,
,,,,,,,,,,,,,FF,,,,,,,,0.8525,,,,,,,,,,,,,,,,,,,,,,60fdb4958e221c323ee7e1c5,61036f03db302659b0568e6b,2021-07-29_22h19.26.455,Simcolourproject_2stim_asymm_v5,2020.2.10,Win32,60,61025ae37ef11b136ea224fe,,,,,,,,,382,34,66,1,0,0,response1disk,,7,10,12,1,0,0,rectangle,10,12,1,0,0,10,12,1,0,0,1,45,205,132,1,,,,,,,,
,,,,,,,,,,,,,FF,,,,,,,,2.0419,,,,,,,,,,,,,,,,,,,,,,60fdb4958e221c323ee7e1c5,61036f03db302659b0568e6b,2021-07-29_22h19.26.455,Simcolourproject_2stim_asymm_v5,2020.2.10,Win32,60,61025ae37ef11b136ea224fe,,,,,,,,,3912,91,28,1,0,0,response1disk,,6,14,-4,1,0,0,rectangle,14,-4,1,0,0,14,-4,1,0,0,1,46,206,101,1,,,,,,,,
,,,,,,,,,,,,,FF,,,,,,,,1.524,,,,,,,,,,,,,,,,,,,,,,60fdb4958e221c323ee7e1c5,61036f03db302659b0568e6b,2021-07-29_22h19.26.455,Simcolourproject_2stim_asymm_v5,2020.2.10,Win32,60,61025ae37ef11b136ea224fe,,,,,,,,,290,83,41,1,0,0,response1disk,,6,17,7,1,0,0,rectangle,17,7,1,0,0,17,7,1,0,0,1,47,207,27,1,,,,,,,,
,,,,,,,,,,,,,FF,,,,,,,,1.889,,,,,,,,,,,,,,,,,,,,,,60fdb4958e221c323ee7e1c5,61036f03db302659b0568e6b,2021-07-29_22h19.26.455,Simcolourproject_2stim_asymm_v5,2020.2.10,Win32,60,61025ae37ef11b136ea224fe,,,,,,,,,3265,92,28,1,0,0,response1disk,,6,21,-1,1,0,0,rectangle,21,-1,1,0,0,21,-1,1,0,0,1,48,208,122,1,,,,,,,,
,,,,,,,,,,,,,FF,,,,,,,,1.4876,,,,,,,,,,,,,,,,,,,,,,60fdb4958e221c323ee7e1c5,61036f03db302659b0568e6b,2021-07-29_22h19.26.455,Simcolourproject_2stim_asymm_v5,2020.2.10,Win32,60,61025ae37ef11b136ea224fe,,,,,,,,,310,30,68,1,0,0,response1disk,,7,8,3,1,0,0,rectangle,8,3,1,0,0,8,3,1,0,0,1,49,209,111,1,,,,,,,,
,,,,,,,,,,,,,FF,,,,,,,,2.9074,,,,,,,,,,,,,,,,,,,,,,60fdb4958e221c323ee7e1c5,61036f03db302659b0568e6b,2021-07-29_22h19.26.455,Simcolourproject_2stim_asymm_v5,2020.2.10,Win32,60,61025ae37ef11b136ea224fe,,,,,,,,,2986,42,68,1,0,0,response1disk,,7,15,8,1,0,0,rectangle,15,8,1,0,0,15,8,1,0,0,1,50,210,37,1,,,,,,,,
,,,,,,,,,,,,,FF,,,,,,,,0.6173,,,,,,,,,,,,,,,,,,,,,,60fdb4958e221c323ee7e1c5,61036f03db302659b0568e6b,2021-07-29_22h19.26.455,Simcolourproject_2stim_asymm_v5,2020.2.10,Win32,60,61025ae37ef11b136ea224fe,,,,,,,,,3866,17,84,1,0,0,response1disk,,7,11,-6,1,0,0,rectangle,11,-6,1,0,0,11,-6,1,0,0,1,51,211,40,1,,,,,,,,
,,,,,,,,,,,,,FF,,,,,,,,1.6178,,,,,,,,,,,,,,,,,,,,,,60fdb4958e221c323ee7e1c5,61036f03db302659b0568e6b,2021-07-29_22h19.26.455,Simcolourproject_2stim_asymm_v5,2020.2.10,Win32,60,61025ae37ef11b136ea224fe,,,,,,,,,2060,62,-30,1,0,0,response3disk,,5,0,12,1,0,0,rectangle,0,12,1,0,0,0,12,1,0,0,1,52,212,157,1,,,,,,,,
,,,,,,,,,,,,,FF,,,,,,,,2.2736,,,,,,,,,,,,,,,,,,,,,,60fdb4958e221c323ee7e1c5,61036f03db302659b0568e6b,2021-07-29_22h19.26.455,Simcolourproject_2stim_asymm_v5,2020.2.10,Win32,60,61025ae37ef11b136ea224fe,,,,,,,,,3147,-33,-83,1,0,0,response5disk,,3,-1,9,1,0,0,rectangle,-1,9,1,0,0,-1,9,1,0,0,1,53,213,152,1,,,,,,,,
,,,,,,,,,,,,,FF,,,,,,,,3.0546,,,,,,,,,,,,,,,,,,,,,,60fdb4958e221c323ee7e1c5,61036f03db302659b0568e6b,2021-07-29_22h19.26.455,Simcolourproject_2stim_asymm_v5,2020.2.10,Win32,60,61025ae37ef11b136ea224fe,,,,,,,,,4298,47,32,1,0,0,response1disk,,6,-1,-1,1,0,0,rectangle,-1,-1,1,0,0,-1,-1,1,0,0,1,54,214,35,1,,,,,,,,
,,,,,,,,,,,,,FF,,,,,,,,0.755,,,,,,,,,,,,,,,,,,,,,,60fdb4958e221c323ee7e1c5,61036f03db302659b0568e6b,2021-07-29_22h19.26.455,Simcolourproject_2stim_asymm_v5,2020.2.10,Win32,60,61025ae37ef11b136ea224fe,,,,,,,,,307,32,41,1,0,0,response1disk,,7,4,-4,1,0,0,rectangle,4,-4,1,0,0,4,-4,1,0,0,1,55,215,8,1,,,,,,,,
,,,,,,,,,,,,,FF,,,,,,,,2.9382,,,,,,,,,,,,,,,,,,,,,,60fdb4958e221c323ee7e1c5,61036f03db302659b0568e6b,2021-07-29_22h19.26.455,Simcolourproject_2stim_asymm_v5,2020.2.10,Win32,60,61025ae37ef11b136ea224fe,,,,,,,,,1034,75,37,1,0,0,response1disk,,6,27,6,1,0,0,rectangle,27,6,1,0,0,27,6,1,0,0,1,56,216,80,1,,,,,,,,
,,,,,,,,,,,,,FF,,,,,,,,0.8017,,,,,,,,,,,,,,,,,,,,,,60fdb4958e221c323ee7e1c5,61036f03db302659b0568e6b,2021-07-29_22h19.26.455,Simcolourproject_2stim_asymm_v5,2020.2.10,Win32,60,61025ae37ef11b136ea224fe,,,,,,,,,1332,31,51,1,0,0,response1disk,,7,7,-10,1,0,0,rectangle,7,-10,1,0,0,7,-10,1,0,0,1,57,217,113,1,,,,,,,,
,,,,,,,,,,,,,FF,,,,,,,,1.7886,,,,,,,,,,,,,,,,,,,,,,60fdb4958e221c323ee7e1c5,61036f03db302659b0568e6b,2021-07-29_22h19.26.455,Simcolourproject_2stim_asymm_v5,2020.2.10,Win32,60,61025ae37ef11b136ea224fe,,,,,,,,,1069,86,28,1,0,0,response1disk,,6,15,8,1,0,0,rectangle,15,8,1,0,0,15,8,1,0,0,1,58,218,102,1,,,,,,,,
,,,,,,,,,,,,,FF,,,,,,,,4.2207,,,,,,,,,,,,,,,,,,,,,,60fdb4958e221c323ee7e1c5,61036f03db302659b0568e6b,2021-07-29_22h19.26.455,Simcolourproject_2stim_asymm_v5,2020.2.10,Win32,60,61025ae37ef11b136ea224fe,,,,,,,,,1792,89,28,1,0,0,response1disk,,6,4,7,1,0,0,rectangle,4,7,1,0,0,4,7,1,0,0,1,59,219,28,1,,,,,,,,
,,,,,,,,,,,,,FF,,,,,,,,1.7724,,,,,,,,,,,,,,,,,,,,,,60fdb4958e221c323ee7e1c5,61036f03db302659b0568e6b,2021-07-29_22h19.26.455,Simcolourproject_2stim_asymm_v5,2020.2.10,Win32,60,61025ae37ef11b136ea224fe,,,,,,,,,3129,53,75,1,0,0,response1disk,,7,-9,2,1,0,0,rectangle,-9,2,1,0,0,-9,2,1,0,0,1,60,220,92,1,,,,,,,,
,,,,,,,,,,,,,FF,,,,,,,,0.8222,,,,,,,,,,,,,,,,,,,,,,60fdb4958e221c323ee7e1c5,61036f03db302659b0568e6b,2021-07-29_22h19.26.455,Simcolourproject_2stim_asymm_v5,2020.2.10,Win32,60,61025ae37ef11b136ea224fe,,,,,,,,,3137,34,77,1,0,0,response1disk,,7,-1,8,1,0,0,rectangle,-1,8,1,0,0,-1,8,1,0,0,1,61,221,64,1,,,,,,,,
,,,,,,,,,,,,,FF,,,,,,,,1.444,,,,,,,,,,,,,,,,,,,,,,60fdb4958e221c323ee7e1c5,61036f03db302659b0568e6b,2021-07-29_22h19.26.455,Simcolourproject_2stim_asymm_v5,2020.2.10,Win32,60,61025ae37ef11b136ea224fe,,,,,,,,,299,66,-53,1,0,0,response3disk,,5,-20,4,1,0,0,rectangle,-20,4,1,0,0,-20,4,1,0,0,1,62,222,2,1,,,,,,,,
,,,,,,,,,,,,,FF,,,,,,,,2.5973,,,,,,,,,,,,,,,,,,,,,,60fdb4958e221c323ee7e1c5,61036f03db302659b0568e6b,2021-07-29_22h19.26.455,Simcolourproject_2stim_asymm_v5,2020.2.10,Win32,60,61025ae37ef11b136ea224fe,,,,,,,,,2938,82,58,1,0,0,response1disk,,6,13,-1,1,0,0,rectangle,13,-1,1,0,0,13,-1,1,0,0,1,63,223,103,1,,,,,,,,
,,,,,,,,,,,,,FF,,,,,,,,1.37,,,,,,,,,,,,,,,,,,,,,,60fdb4958e221c323ee7e1c5,61036f03db302659b0568e6b,2021-07-29_22h19.26.455,Simcolourproject_2stim_asymm_v5,2020.2.10,Win32,60,61025ae37ef11b136ea224fe,,,,,,,,,1112,89,41,1,0,0,response1disk,,6,27,-1,1,0,0,rectangle,27,-1,1,0,0,27,-1,1,0,0,1,64,224,74,1,,,,,,,,
,,,,,,,,,,,,,FF,,,,,,,,1.4286,,,,,,,,,,,,,,,,,,,,,,60fdb4958e221c323ee7e1c5,61036f03db302659b0568e6b,2021-07-29_22h19.26.455,Simcolourproject_2stim_asymm_v5,2020.2.10,Win32,60,61025ae37ef11b136ea224fe,,,,,,,,,3432,-73,-38,1,0,0,response5disk,,2,2,5,1,0,0,rectangle,2,5,1,0,0,2,5,1,0,0,1,65,225,15,1,,,,,,,,
,,,,,,,,,,,,,FF,,,,,,,,1.9913,,,,,,,,,,,,,,,,,,,,,,60fdb4958e221c323ee7e1c5,61036f03db302659b0568e6b,2021-07-29_22h19.26.455,Simcolourproject_2stim_asymm_v5,2020.2.10,Win32,60,61025ae37ef11b136ea224fe,,,,,,,,,4187,74,-51,1,0,0,response3disk,,5,5,14,1,0,0,rectangle,5,14,1,0,0,5,14,1,0,0,1,66,226,158,1,,,,,,,,
,,,,,,,,,,,,,FF,,,,,,,,1.6885,,,,,,,,,,,,,,,,,,,,,,60fdb4958e221c323ee7e1c5,61036f03db302659b0568e6b,2021-07-29_22h19.26.455,Simcolourproject_2stim_asymm_v5,2020.2.10,Win32,60,61025ae37ef11b136ea224fe,,,,,,,,,2692,61,29,1,0,0,response1disk,,6,-15,3,1,0,0,rectangle,-15,3,1,0,0,-15,3,1,0,0,1,67,227,65,1,,,,,,,,
,,,,,,,,,,,,,FF,,,,,,,,0.9858,,,,,,,,,,,,,,,,,,,,,,60fdb4958e221c323ee7e1c5,61036f03db302659b0568e6b,2021-07-29_22h19.26.455,Simcolourproject_2stim_asymm_v5,2020.2.10,Win32,60,61025ae37ef11b136ea224fe,,,,,,,,,1843,43,67,1,0,0,response1disk,,7,8,2,1,0,0,rectangle,8,2,1,0,0,8,2,1,0,0,1,68,228,29,1,,,,,,,,
,,,,,,,,,,,,,FF,,,,,,,,1.429,,,,,,,,,,,,,,,,,,,,,,60fdb4958e221c323ee7e1c5,61036f03db302659b0568e6b,2021-07-29_22h19.26.455,Simcolourproject_2stim_asymm_v5,2020.2.10,Win32,60,61025ae37ef11b136ea224fe,,,,,,,,,1656,37,67,1,0,0,response1disk,,7,-5,2,1,0,0,rectangle,-5,2,1,0,0,-5,2,1,0,0,1,69,229,114,1,,,,,,,,
,,,,,,,,,,,,,FF,,,,,,,,1.2047,,,,,,,,,,,,,,,,,,,,,,60fdb4958e221c323ee7e1c5,61036f03db302659b0568e6b,2021-07-29_22h19.26.455,Simcolourproject_2stim_asymm_v5,2020.2.10,Win32,60,61025ae37ef11b136ea224fe,,,,,,,,,1571,72,30,1,0,0,response1disk,,6,-10,4,1,0,0,rectangle,-10,4,1,0,0,-10,4,1,0,0,1,70,230,38,1,,,,,,,,
,,,,,,,,,,,,,FF,,,,,,,,1.1528,,,,,,,,,,,,,,,,,,,,,,60fdb4958e221c323ee7e1c5,61036f03db302659b0568e6b,2021-07-29_22h19.26.455,Simcolourproject_2stim_asymm_v5,2020.2.10,Win32,60,61025ae37ef11b136ea224fe,,,,,,,,,2631,82,36,1,0,0,response1disk,,6,33,9,1,0,0,rectangle,33,9,1,0,0,33,9,1,0,0,1,71,231,31,1,,,,,,,,
,,,,,,,,,,,,,FF,,,,,,,,1.579,,,,,,,,,,,,,,,,,,,,,,60fdb4958e221c323ee7e1c5,61036f03db302659b0568e6b,2021-07-29_22h19.26.455,Simcolourproject_2stim_asymm_v5,2020.2.10,Win32,60,61025ae37ef11b136ea224fe,,,,,,,,,3651,68,-61,1,0,0,response3disk,,5,22,-3,1,0,0,rectangle,22,-3,1,0,0,22,-3,1,0,0,1,72,232,30,1,,,,,,,,
,,,,,,,,,,,,,FF,,,,,,,,4.0698,,,,,,,,,,,,,,,,,,,,,,60fdb4958e221c323ee7e1c5,61036f03db302659b0568e6b,2021-07-29_22h19.26.455,Simcolourproject_2stim_asymm_v5,2020.2.10,Win32,60,61025ae37ef11b136ea224fe,,,,,,,,,1921,77,41,1,0,0,response1disk,,6,17,7,1,0,0,rectangle,17,7,1,0,0,17,7,1,0,0,1,73,233,118,1,,,,,,,,
,,,,,,,,,,,,,FF,,,,,,,,1.4553,,,,,,,,,,,,,,,,,,,,,,60fdb4958e221c323ee7e1c5,61036f03db302659b0568e6b,2021-07-29_22h19.26.455,Simcolourproject_2stim_asymm_v5,2020.2.10,Win32,60,61025ae37ef11b136ea224fe,,,,,,,,,3269,86,32,1,0,0,response1disk,,6,0,-4,1,0,0,rectangle,0,-4,1,0,0,0,-4,1,0,0,1,74,234,151,1,,,,,,,,
,,,,,,,,,,,,,FF,,,,,,,,1.5053,,,,,,,,,,,,,,,,,,,,,,60fdb4958e221c323ee7e1c5,61036f03db302659b0568e6b,2021-07-29_22h19.26.455,Simcolourproject_2stim_asymm_v5,2020.2.10,Win32,60,61025ae37ef11b136ea224fe,,,,,,,,,3933,53,-77,1,0,0,response3disk,,4,5,2,1,0,0,rectangle,5,2,1,0,0,5,2,1,0,0,1,75,235,26,1,,,,,,,,
,,,,,,,,,,,,,FF,,,,,,,,1.7528,,,,,,,,,,,,,,,,,,,,,,60fdb4958e221c323ee7e1c5,61036f03db302659b0568e6b,2021-07-29_22h19.26.455,Simcolourproject_2stim_asymm_v5,2020.2.10,Win32,60,61025ae37ef11b136ea224fe,,,,,,,,,2251,72,-37,1,0,0,response3disk,,5,-12,-7,1,0,0,rectangle,-12,-7,1,0,0,-12,-7,1,0,0,1,76,236,131,1,,,,,,,,
,,,,,,,,,,,,,FF,,,,,,,,1.6115,,,,,,,,,,,,,,,,,,,,,,60fdb4958e221c323ee7e1c5,61036f03db302659b0568e6b,2021-07-29_22h19.26.455,Simcolourproject_2stim_asymm_v5,2020.2.10,Win32,60,61025ae37ef11b136ea224fe,,,,,,,,,2540,49,49,1,0,0,response1disk,,7,2,8,1,0,0,rectangle,2,8,1,0,0,2,8,1,0,0,1,77,237,137,1,,,,,,,,
,,,,,,,,,,,,,FF,,,,,,,,1.7654,,,,,,,,,,,,,,,,,,,,,,60fdb4958e221c323ee7e1c5,61036f03db302659b0568e6b,2021-07-29_22h19.26.455,Simcolourproject_2stim_asymm_v5,2020.2.10,Win32,60,61025ae37ef11b136ea224fe,,,,,,,,,39,49,-23,1,0,0,response3disk,,5,5,1,1,0,0,rectangle,5,1,1,0,0,5,1,1,0,0,1,78,238,21,1,,,,,,,,
,,,,,,,,,,,,,FF,,,,,,,,2.3972,,,,,,,,,,,,,,,,,,,,,,60fdb4958e221c323ee7e1c5,61036f03db302659b0568e6b,2021-07-29_22h19.26.455,Simcolourproject_2stim_asymm_v5,2020.2.10,Win32,60,61025ae37ef11b136ea224fe,,,,,,,,,1369,24,-83,1,0,0,response3disk,,4,15,-5,1,0,0,rectangle,15,-5,1,0,0,15,-5,1,0,0,1,79,239,86,1,,,,,,,,
,,,,,,,,,,,,,FF,,,,,,,,0.8691,,,,,,,,,,,,,,,,,,,,,,60fdb4958e221c323ee7e1c5,61036f03db302659b0568e6b,2021-07-29_22h19.26.455,Simcolourproject_2stim_asymm_v5,2020.2.10,Win32,60,61025ae37ef11b136ea224fe,,,,,,,,,2460,55,82,1,0,0,response1disk,,7,3,-2,1,0,0,rectangle,3,-2,1,0,0,3,-2,1,0,0,1,80,240,91,1,,,,,,,,
,,,,,,,,,,,,,FF,,,,,,,,1.4934,,,,,,,,,,,,,,,,,,,,,,60fdb4958e221c323ee7e1c5,61036f03db302659b0568e6b,2021-07-29_22h19.26.455,Simcolourproject_2stim_asymm_v5,2020.2.10,Win32,60,61025ae37ef11b136ea224fe,,,,,,,,,4344,-73,-31,1,0,0,response5disk,,2,-8,10,1,0,0,rectangle,-8,10,1,0,0,-8,10,1,0,0,1,81,241,52,1,,,,,,,,
,,,,,,,,,,,,,FF,,,,,,,,1.4012,,,,,,,,,,,,,,,,,,,,,,60fdb4958e221c323ee7e1c5,61036f03db302659b0568e6b,2021-07-29_22h19.26.455,Simcolourproject_2stim_asymm_v5,2020.2.10,Win32,60,61025ae37ef11b136ea224fe,,,,,,,,,1053,77,29,1,0,0,response1disk,,6,7,-15,1,0,0,rectangle,7,-15,1,0,0,7,-15,1,0,0,1,82,242,125,1,,,,,,,,
,,,,,,,,,,,,,FF,,,,,,,,1.0468,,,,,,,,,,,,,,,,,,,,,,60fdb4958e221c323ee7e1c5,61036f03db302659b0568e6b,2021-07-29_22h19.26.455,Simcolourproject_2stim_asymm_v5,2020.2.10,Win32,60,61025ae37ef11b136ea224fe,,,,,,,,,303,67,-34,1,0,0,response3disk,,5,9,0,1,0,0,rectangle,9,0,1,0,0,9,0,1,0,0,1,83,243,121,1,,,,,,,,
,,,,,,,,,,,,,FF,,,,,,,,1.2388,,,,,,,,,,,,,,,,,,,,,,60fdb4958e221c323ee7e1c5,61036f03db302659b0568e6b,2021-07-29_22h19.26.455,Simcolourproject_2stim_asymm_v5,2020.2.10,Win32,60,61025ae37ef11b136ea224fe,,,,,,,,,2177,78,42,1,0,0,response1disk,,6,26,4,1,0,0,rectangle,26,4,1,0,0,26,4,1,0,0,1,84,244,85,1,,,,,,,,
,,,,,,,,,,,,,FF,,,,,,,,0.654,,,,,,,,,,,,,,,,,,,,,,60fdb4958e221c323ee7e1c5,61036f03db302659b0568e6b,2021-07-29_22h19.26.455,Simcolourproject_2stim_asymm_v5,2020.2.10,Win32,60,61025ae37ef11b136ea224fe,,,,,,,,,2685,43,71,1,0,0,response1disk,,7,10,4,1,0,0,rectangle,10,4,1,0,0,10,4,1,0,0,1,85,245,10,1,,,,,,,,
,,,,,,,,,,,,,FF,,,,,,,,0.703,,,,,,,,,,,,,,,,,,,,,,60fdb4958e221c323ee7e1c5,61036f03db302659b0568e6b,2021-07-29_22h19.26.455,Simcolourproject_2stim_asymm_v5,2020.2.10,Win32,60,61025ae37ef11b136ea224fe,,,,,,,,,115,75,34,1,0,0,response1disk,,6,3,-5,1,0,0,rectangle,-72,-20,1,0,0,-3,1,1,0,0,1,86,246,33,1,,response5disk_3,TRUE,2,2,"[248,124,122,100,47,188,312,279,50,89,67,299,247,13,76,39,39,270,116,248]",2.7746,rectangle
,,,,,,,,,,,,,FF,,,,,,,,4.4451,,,,,,,,,,,,,,,,,,,,,,60fdb4958e221c323ee7e1c5,61036f03db302659b0568e6b,2021-07-29_22h19.26.455,Simcolourproject_2stim_asymm_v5,2020.2.10,Win32,60,61025ae37ef11b136ea224fe,,,,,,,,,4322,78,-46,1,0,0,response3disk,,5,4,-1,1,0,0,rectangle,-55,106,1,0,0,20,0,1,0,0,1,87,247,116,1,,response7disk_3,TRUE,0,0,"[248,124,122,100,47,188,312,279,50,89,67,299,247,13,76,39,39,270,116,248]",2.0133,rectangle
,,,,,,,,,,,,,FF,,,,,,,,1.5215,,,,,,,,,,,,,,,,,,,,,,60fdb4958e221c323ee7e1c5,61036f03db302659b0568e6b,2021-07-29_22h19.26.455,Simcolourproject_2stim_asymm_v5,2020.2.10,Win32,60,61025ae37ef11b136ea224fe,,,,,,,,,3655,74,39,1,0,0,response1disk,,6,15,-3,1,0,0,rectangle,15,-3,1,0,0,15,-3,1,0,0,1,88,248,105,1,,,,,,,,
,,,,,,,,,,,,,FF,,,,,,,,1.1529,,,,,,,,,,,,,,,,,,,,,,60fdb4958e221c323ee7e1c5,61036f03db302659b0568e6b,2021-07-29_22h19.26.455,Simcolourproject_2stim_asymm_v5,2020.2.10,Win32,60,61025ae37ef11b136ea224fe,,,,,,,,,2605,-27,-48,1,0,0,response5disk,,3,1,-4,1,0,0,rectangle,1,-4,1,0,0,1,-4,1,0,0,1,89,249,4,1,,,,,,,,
,,,,,,,,,,,,,FF,,,,,,,,0.9497,,,,,,,,,,,,,,,,,,,,,,60fdb4958e221c323ee7e1c5,61036f03db302659b0568e6b,2021-07-29_22h19.26.455,Simcolourproject_2stim_asymm_v5,2020.2.10,Win32,60,61025ae37ef11b136ea224fe,,,,,,,,,2852,47,73,1,0,0,response1disk,,7,15,0,1,0,0,rectangle,15,0,1,0,0,15,0,1,0,0,1,90,250,70,1,,,,,,,,
,,,,,,,,,,,,,FF,,,,,,,,0.7857,,,,,,,,,,,,,,,,,,,,,,60fdb4958e221c323ee7e1c5,61036f03db302659b0568e6b,2021-07-29_22h19.26.455,Simcolourproject_2stim_asymm_v5,2020.2.10,Win32,60,61025ae37ef11b136ea224fe,,,,,,,,,1478,27,72,1,0,0,response1disk,,7,2,2,1,0,0,rectangle,2,2,1,0,0,2,2,1,0,0,1,91,251,63,1,,,,,,,,
,,,,,,,,,,,,,FF,,,,,,,,2.1902,,,,,,,,,,,,,,,,,,,,,,60fdb4958e221c323ee7e1c5,61036f03db302659b0568e6b,2021-07-29_22h19.26.455,Simcolourproject_2stim_asymm_v5,2020.2.10,Win32,60,61025ae37ef11b136ea224fe,,,,,,,,,1133,83,-50,1,0,0,response3disk,,5,-9,15,1,0,0,rectangle,-9,15,1,0,0,-9,15,1,0,0,1,92,252,134,1,,,,,,,,
,,,,,,,,,,,,,FF,,,,,,,,1.0873,,,,,,,,,,,,,,,,,,,,,,60fdb4958e221c323ee7e1c5,61036f03db302659b0568e6b,2021-07-29_22h19.26.455,Simcolourproject_2stim_asymm_v5,2020.2.10,Win32,60,61025ae37ef11b136ea224fe,,,,,,,,,2990,53,37,1,0,0,response1disk,,6,13,7,1,0,0,rectangle,13,7,1,0,0,13,7,1,0,0,1,93,253,1,1,,,,,,,,
,,,,,,,,,,,,,FF,,,,,,,,1.2953,,,,,,,,,,,,,,,,,,,,,,60fdb4958e221c323ee7e1c5,61036f03db302659b0568e6b,2021-07-29_22h19.26.455,Simcolourproject_2stim_asymm_v5,2020.2.10,Win32,60,61025ae37ef11b136ea224fe,,,,,,,,,2840,66,41,1,0,0,response1disk,,6,16,3,1,0,0,rectangle,16,3,1,0,0,16,3,1,0,0,1,94,254,106,1,,,,,,,,
,,,,,,,,,,,,,FF,,,,,,,,0.8381,,,,,,,,,,,,,,,,,,,,,,60fdb4958e221c323ee7e1c5,61036f03db302659b0568e6b,2021-07-29_22h19.26.455,Simcolourproject_2stim_asymm_v5,2020.2.10,Win32,60,61025ae37ef11b136ea224fe,,,,,,,,,2375,78,34,1,0,0,response1disk,,6,15,7,1,0,0,rectangle,15,7,1,0,0,15,7,1,0,0,1,95,255,127,1,,,,,,,,
,,,,,,,,,,,,,FF,,,,,,,,1.2694,,,,,,,,,,,,,,,,,,,,,,60fdb4958e221c323ee7e1c5,61036f03db302659b0568e6b,2021-07-29_22h19.26.455,Simcolourproject_2stim_asymm_v5,2020.2.10,Win32,60,61025ae37ef11b136ea224fe,,,,,,,,,1753,34,-52,1,0,0,response3disk,,4,-7,1,1,0,0,rectangle,-7,1,1,0,0,-7,1,1,0,0,1,96,256,5,1,,,,,,,,
,,,,,,,,,,,,,FF,,,,,,,,1.8082,,,,,,,,,,,,,,,,,,,,,,60fdb4958e221c323ee7e1c5,61036f03db302659b0568e6b,2021-07-29_22h19.26.455,Simcolourproject_2stim_asymm_v5,2020.2.10,Win32,60,61025ae37ef11b136ea224fe,,,,,,,,,3573,77,-37,1,0,0,response3disk,,5,-10,12,1,0,0,rectangle,-10,12,1,0,0,-10,12,1,0,0,1,97,257,87,1,,,,,,,,
,,,,,,,,,,,,,FF,,,,,,,,0.7104,,,,,,,,,,,,,,,,,,,,,,60fdb4958e221c323ee7e1c5,61036f03db302659b0568e6b,2021-07-29_22h19.26.455,Simcolourproject_2stim_asymm_v5,2020.2.10,Win32,60,61025ae37ef11b136ea224fe,,,,,,,,,3756,63,-32,1,0,0,response3disk,,5,8,-2,1,0,0,rectangle,8,-2,1,0,0,8,-2,1,0,0,1,98,258,16,1,,,,,,,,
,,,,,,,,,,,,,FF,,,,,,,,1.8804,,,,,,,,,,,,,,,,,,,,,,60fdb4958e221c323ee7e1c5,61036f03db302659b0568e6b,2021-07-29_22h19.26.455,Simcolourproject_2stim_asymm_v5,2020.2.10,Win32,60,61025ae37ef11b136ea224fe,,,,,,,,,3871,57,26,1,0,0,response1disk,,6,10,4,1,0,0,rectangle,10,4,1,0,0,10,4,1,0,0,1,99,259,150,1,,,,,,,,
,,,,,,,,,,,,,FF,,,,,,,,0.9616,,,,,,,,,,,,,,,,,,,,,,60fdb4958e221c323ee7e1c5,61036f03db302659b0568e6b,2021-07-29_22h19.26.455,Simcolourproject_2stim_asymm_v5,2020.2.10,Win32,60,61025ae37ef11b136ea224fe,,,,,,,,,947,82,-51,1,0,0,response3disk,,5,11,-4,1,0,0,rectangle,11,-4,1,0,0,11,-4,1,0,0,1,100,260,99,1,,,,,,,,
,,,,,,,,,,,,,FF,,,,,,,,0.8725,,,,,,,,,,,,,,,,,,,,,,60fdb4958e221c323ee7e1c5,61036f03db302659b0568e6b,2021-07-29_22h19.26.455,Simcolourproject_2stim_asymm_v5,2020.2.10,Win32,60,61025ae37ef11b136ea224fe,,,,,,,,,855,73,-37,1,0,0,response3disk,,5,17,2,1,0,0,rectangle,17,2,1,0,0,17,2,1,0,0,1,101,261,3,1,,,,,,,,
,,,,,,,,,,,,,FF,,,,,,,,0.9209,,,,,,,,,,,,,,,,,,,,,,60fdb4958e221c323ee7e1c5,61036f03db302659b0568e6b,2021-07-29_22h19.26.455,Simcolourproject_2stim_asymm_v5,2020.2.10,Win32,60,61025ae37ef11b136ea224fe,,,,,,,,,4022,38,-76,1,0,0,response3disk,,4,7,3,1,0,0,rectangle,7,3,1,0,0,7,3,1,0,0,1,102,262,44,1,,,,,,,,
,,,,,,,,,,,,,FF,,,,,,,,1.0205,,,,,,,,,,,,,,,,,,,,,,60fdb4958e221c323ee7e1c5,61036f03db302659b0568e6b,2021-07-29_22h19.26.455,Simcolourproject_2stim_asymm_v5,2020.2.10,Win32,60,61025ae37ef11b136ea224fe,,,,,,,,,4162,-32,-65,1,0,0,response5disk,,3,-4,0,1,0,0,rectangle,-4,0,1,0,0,-4,0,1,0,0,1,103,263,123,1,,,,,,,,
,,,,,,,,,,,,,FF,,,,,,,,1.3374,,,,,,,,,,,,,,,,,,,,,,60fdb4958e221c323ee7e1c5,61036f03db302659b0568e6b,2021-07-29_22h19.26.455,Simcolourproject_2stim_asymm_v5,2020.2.10,Win32,60,61025ae37ef11b136ea224fe,,,,,,,,,3792,57,-29,1,0,0,response3disk,,5,-10,1,1,0,0,rectangle,-10,1,1,0,0,-10,1,1,0,0,1,104,264,46,1,,,,,,,,
,,,,,,,,,,,,,FF,,,,,,,,0.9532,,,,,,,,,,,,,,,,,,,,,,60fdb4958e221c323ee7e1c5,61036f03db302659b0568e6b,2021-07-29_22h19.26.455,Simcolourproject_2stim_asymm_v5,2020.2.10,Win32,60,61025ae37ef11b136ea224fe,,,,,,,,,709,37,-55,1,0,0,response3disk,,4,16,-9,1,0,0,rectangle,16,-9,1,0,0,16,-9,1,0,0,1,105,265,56,1,,,,,,,,
,,,,,,,,,,,,,FF,,,,,,,,1.0296,,,,,,,,,,,,,,,,,,,,,,60fdb4958e221c323ee7e1c5,61036f03db302659b0568e6b,2021-07-29_22h19.26.455,Simcolourproject_2stim_asymm_v5,2020.2.10,Win32,60,61025ae37ef11b136ea224fe,,,,,,,,,677,107,34,1,0,0,response1disk,,6,22,1,1,0,0,rectangle,22,1,1,0,0,22,1,1,0,0,1,106,266,66,1,,,,,,,,
,,,,,,,,,,,,,FF,,,,,,,,1.5068,,,,,,,,,,,,,,,,,,,,,,60fdb4958e221c323ee7e1c5,61036f03db302659b0568e6b,2021-07-29_22h19.26.455,Simcolourproject_2stim_asymm_v5,2020.2.10,Win32,60,61025ae37ef11b136ea224fe,,,,,,,,,2231,39,-74,1,0,0,response3disk,,4,13,-5,1,0,0,rectangle,13,-5,1,0,0,13,-5,1,0,0,1,107,267,100,1,,,,,,,,
,,,,,,,,,,,,,FF,,,,,,,,1.0455,,,,,,,,,,,,,,,,,,,,,,60fdb4958e221c323ee7e1c5,61036f03db302659b0568e6b,2021-07-29_22h19.26.455,Simcolourproject_2stim_asymm_v5,2020.2.10,Win32,60,61025ae37ef11b136ea224fe,,,,,,,,,1225,45,-36,1,0,0,response3disk,,5,-4,8,1,0,0,rectangle,-4,8,1,0,0,-4,8,1,0,0,1,108,268,147,1,,,,,,,,
,,,,,,,,,,,,,FF,,,,,,,,1.6132,,,,,,,,,,,,,,,,,,,,,,60fdb4958e221c323ee7e1c5,61036f03db302659b0568e6b,2021-07-29_22h19.26.455,Simcolourproject_2stim_asymm_v5,2020.2.10,Win32,60,61025ae37ef11b136ea224fe,,,,,,,,,2013,87,29,1,0,0,response1disk,,6,25,2,1,0,0,rectangle,-65,37,1,0,0,9,5,1,0,0,1,109,269,95,1,,response7disk_3,TRUE,1,1,"[248,124,122,100,47,188,312,279,50,89,67,299,247,13,76,39,39,270,116,248]",1.8626,rectangle
,,,,,,,,,,,,,FF,,,,,,,,3.7431,,,,,,,,,,,,,,,,,,,,,,60fdb4958e221c323ee7e1c5,61036f03db302659b0568e6b,2021-07-29_22h19.26.455,Simcolourproject_2stim_asymm_v5,2020.2.10,Win32,60,61025ae37ef11b136ea224fe,,,,,,,,,4120,-53,-62,1,0,0,response5disk,,3,2,0,1,0,0,rectangle,2,0,1,0,0,2,0,1,0,0,1,110,270,142,1,,,,,,,,
,,,,,,,,,,,,,FF,,,,,,,,1.5053,,,,,,,,,,,,,,,,,,,,,,60fdb4958e221c323ee7e1c5,61036f03db302659b0568e6b,2021-07-29_22h19.26.455,Simcolourproject_2stim_asymm_v5,2020.2.10,Win32,60,61025ae37ef11b136ea224fe,,,,,,,,,554,51,-68,1,0,0,response3disk,,4,0,4,1,0,0,rectangle,0,4,1,0,0,0,4,1,0,0,1,111,271,9,1,,,,,,,,
,,,,,,,,,,,,,FF,,,,,,,,0.8125,,,,,,,,,,,,,,,,,,,,,,60fdb4958e221c323ee7e1c5,61036f03db302659b0568e6b,2021-07-29_22h19.26.455,Simcolourproject_2stim_asymm_v5,2020.2.10,Win32,60,61025ae37ef11b136ea224fe,,,,,,,,,3092,81,-30,1,0,0,response3disk,,5,2,-7,1,0,0,rectangle,2,-7,1,0,0,2,-7,1,0,0,1,112,272,36,1,,,,,,,,
,,,,,,,,,,,,,FF,,,,,,,,0.7372,,,,,,,,,,,,,,,,,,,,,,60fdb4958e221c323ee7e1c5,61036f03db302659b0568e6b,2021-07-29_22h19.26.455,Simcolourproject_2stim_asymm_v5,2020.2.10,Win32,60,61025ae37ef11b136ea224fe,,,,,,,,,3558,59,44,1,0,0,response1disk,,6,7,4,1,0,0,rectangle,7,4,1,0,0,7,4,1,0,0,1,113,273,140,1,,,,,,,,
,,,,,,,,,,,,,FF,,,,,,,,0.9468,,,,,,,,,,,,,,,,,,,,,,60fdb4958e221c323ee7e1c5,61036f03db302659b0568e6b,2021-07-29_22h19.26.455,Simcolourproject_2stim_asymm_v5,2020.2.10,Win32,60,61025ae37ef11b136ea224fe,,,,,,,,,3892,51,75,1,0,0,response1disk,,7,-5,4,1,0,0,rectangle,-5,4,1,0,0,-5,4,1,0,0,1,114,274,81,1,,,,,,,,
,,,,,,,,,,,,,FF,,,,,,,,0.7865,,,,,,,,,,,,,,,,,,,,,,60fdb4958e221c323ee7e1c5,61036f03db302659b0568e6b,2021-07-29_22h19.26.455,Simcolourproject_2stim_asymm_v5,2020.2.10,Win32,60,61025ae37ef11b136ea224fe,,,,,,,,,1625,40,63,1,0,0,response1disk,,7,-13,6,1,0,0,rectangle,-13,6,1,0,0,-13,6,1,0,0,1,115,275,143,1,,,,,,,,
,,,,,,,,,,,,,FF,,,,,,,,0.8609,,,,,,,,,,,,,,,,,,,,,,60fdb4958e221c323ee7e1c5,61036f03db302659b0568e6b,2021-07-29_22h19.26.455,Simcolourproject_2stim_asymm_v5,2020.2.10,Win32,60,61025ae37ef11b136ea224fe,,,,,,,,,1238,85,49,1,0,0,response1disk,,6,2,8,1,0,0,rectangle,2,8,1,0,0,2,8,1,0,0,1,116,276,135,1,,,,,,,,
,,,,,,,,,,,,,FF,,,,,,,,1.0648,,,,,,,,,,,,,,,,,,,,,,60fdb4958e221c323ee7e1c5,61036f03db302659b0568e6b,2021-07-29_22h19.26.455,Simcolourproject_2stim_asymm_v5,2020.2.10,Win32,60,61025ae37ef11b136ea224fe,,,,,,,,,595,60,-19,1,0,0,response3disk,,5,10,0,1,0,0,rectangle,10,0,1,0,0,10,0,1,0,0,1,117,277,109,1,,,,,,,,
,,,,,,,,,,,,,FF,,,,,,,,1.8699,,,,,,,,,,,,,,,,,,,,,,60fdb4958e221c323ee7e1c5,61036f03db302659b0568e6b,2021-07-29_22h19.26.455,Simcolourproject_2stim_asymm_v5,2020.2.10,Win32,60,61025ae37ef11b136ea224fe,,,,,,,,,2315,64,-36,1,0,0,response3disk,,5,-2,6,1,0,0,rectangle,37,-74,1,0,0,9,3,1,0,0,1,118,278,153,1,,response3disk_3,TRUE,4,4,"[248,124,122,100,47,188,312,279,50,89,67,299,247,13,76,39,39,270,116,248]",2.2049,rectangle
,,,,,,,,,,,,,FF,,,,,,,,1.4351,,,,,,,,,,,,,,,,,,,,,,60fdb4958e221c323ee7e1c5,61036f03db302659b0568e6b,2021-07-29_22h19.26.455,Simcolourproject_2stim_asymm_v5,2020.2.10,Win32,60,61025ae37ef11b136ea224fe,,,,,,,,,3695,48,-43,1,0,0,response3disk,,5,25,-9,1,0,0,rectangle,25,-9,1,0,0,25,-9,1,0,0,1,119,279,62,1,,,,,,,,
,,,,,,,,,,,,,FF,,,,,,,,0.8353,,,,,,,,,,,,,,,,,,,,,,60fdb4958e221c323ee7e1c5,61036f03db302659b0568e6b,2021-07-29_22h19.26.455,Simcolourproject_2stim_asymm_v5,2020.2.10,Win32,60,61025ae37ef11b136ea224fe,,,,,,,,,884,38,37,1,0,0,response1disk,,6,12,-1,1,0,0,rectangle,12,-1,1,0,0,12,-1,1,0,0,1,120,280,34,1,,,,,,,,
,,,,,,,,,,,,,FF,,,,,,,,1.2552,,,,,,,,,,,,,,,,,,,,,,60fdb4958e221c323ee7e1c5,61036f03db302659b0568e6b,2021-07-29_22h19.26.455,Simcolourproject_2stim_asymm_v5,2020.2.10,Win32,60,61025ae37ef11b136ea224fe,,,,,,,,,909,85,-59,1,0,0,response3disk,,5,15,-6,1,0,0,rectangle,15,-6,1,0,0,15,-6,1,0,0,1,121,281,139,1,,,,,,,,
,,,,,,,,,,,,,FF,,,,,,,,2.3551,,,,,,,,,,,,,,,,,,,,,,60fdb4958e221c323ee7e1c5,61036f03db302659b0568e6b,2021-07-29_22h19.26.455,Simcolourproject_2stim_asymm_v5,2020.2.10,Win32,60,61025ae37ef11b136ea224fe,,,,,,,,,2719,-71,-53,1,0,0,response5disk,,2,14,4,1,0,0,rectangle,14,4,1,0,0,14,4,1,0,0,1,122,282,57,1,,,,,,,,
,,,,,,,,,,,,,FF,,,,,,,,1.1207,,,,,,,,,,,,,,,,,,,,,,60fdb4958e221c323ee7e1c5,61036f03db302659b0568e6b,2021-07-29_22h19.26.455,Simcolourproject_2stim_asymm_v5,2020.2.10,Win32,60,61025ae37ef11b136ea224fe,,,,,,,,,3888,52,-91,1,0,0,response3disk,,4,5,6,1,0,0,rectangle,5,6,1,0,0,5,6,1,0,0,1,123,283,126,1,,,,,,,,
,,,,,,,,,,,,,FF,,,,,,,,1.0066,,,,,,,,,,,,,,,,,,,,,,60fdb4958e221c323ee7e1c5,61036f03db302659b0568e6b,2021-07-29_22h19.26.455,Simcolourproject_2stim_asymm_v5,2020.2.10,Win32,60,61025ae37ef11b136ea224fe,,,,,,,,,4000,-28,-68,1,0,0,response5disk,,3,10,6,1,0,0,rectangle,10,6,1,0,0,10,6,1,0,0,1,124,284,41,1,,,,,,,,
,,,,,,,,,,,,,FF,,,,,,,,1.0288,,,,,,,,,,,,,,,,,,,,,,60fdb4958e221c323ee7e1c5,61036f03db302659b0568e6b,2021-07-29_22h19.26.455,Simcolourproject_2stim_asymm_v5,2020.2.10,Win32,60,61025ae37ef11b136ea224fe,,,,,,,,,2250,67,26,1,0,0,response1disk,,6,-6,-10,1,0,0,rectangle,-6,-10,1,0,0,-6,-10,1,0,0,1,125,285,90,1,,,,,,,,
,,,,,,,,,,,,,FF,,,,,,,,0.9499,,,,,,,,,,,,,,,,,,,,,,60fdb4958e221c323ee7e1c5,61036f03db302659b0568e6b,2021-07-29_22h19.26.455,Simcolourproject_2stim_asymm_v5,2020.2.10,Win32,60,61025ae37ef11b136ea224fe,,,,,,,,,814,80,-35,1,0,0,response3disk,,5,-8,-4,1,0,0,rectangle,-8,-4,1,0,0,-8,-4,1,0,0,1,126,286,60,1,,,,,,,,
,,,,,,,,,,,,,FF,,,,,,,,1.5251,,,,,,,,,,,,,,,,,,,,,,60fdb4958e221c323ee7e1c5,61036f03db302659b0568e6b,2021-07-29_22h19.26.455,Simcolourproject_2stim_asymm_v5,2020.2.10,Win32,60,61025ae37ef11b136ea224fe,,,,,,,,,3895,76,46,1,0,0,response1disk,,6,23,13,1,0,0,rectangle,23,13,1,0,0,23,13,1,0,0,1,127,287,0,1,,,,,,,,
,,,,,,,,,,,,,FF,,,,,,,,1.609,,,,,,,,,,,,,,,,,,,,,,60fdb4958e221c323ee7e1c5,61036f03db302659b0568e6b,2021-07-29_22h19.26.455,Simcolourproject_2stim_asymm_v5,2020.2.10,Win32,60,61025ae37ef11b136ea224fe,,,,,,,,,3966,35,-65,1,0,0,response3disk,,4,11,-7,1,0,0,rectangle,11,-7,1,0,0,11,-7,1,0,0,1,128,288,115,1,,,,,,,,
,,,,,,,,,,,,,FF,,,,,,,,1.0363,,,,,,,,,,,,,,,,,,,,,,60fdb4958e221c323ee7e1c5,61036f03db302659b0568e6b,2021-07-29_22h19.26.455,Simcolourproject_2stim_asymm_v5,2020.2.10,Win32,60,61025ae37ef11b136ea224fe,,,,,,,,,1794,92,26,1,0,0,response1disk,,6,30,9,1,0,0,rectangle,30,9,1,0,0,30,9,1,0,0,1,129,289,112,1,,,,,,,,
,,,,,,,,,,,,,FF,,,,,,,,2.2065,,,,,,,,,,,,,,,,,,,,,,60fdb4958e221c323ee7e1c5,61036f03db302659b0568e6b,2021-07-29_22h19.26.455,Simcolourproject_2stim_asymm_v5,2020.2.10,Win32,60,61025ae37ef11b136ea224fe,,,,,,,,,3603,71,32,1,0,0,response1disk,,6,-7,4,1,0,0,rectangle,-7,4,1,0,0,-7,4,1,0,0,1,130,290,53,1,,,,,,,,
,,,,,,,,,,,,,FF,,,,,,,,1.2702,,,,,,,,,,,,,,,,,,,,,,60fdb4958e221c323ee7e1c5,61036f03db302659b0568e6b,2021-07-29_22h19.26.455,Simcolourproject_2stim_asymm_v5,2020.2.10,Win32,60,61025ae37ef11b136ea224fe,,,,,,,,,1052,63,-34,1,0,0,response3disk,,5,1,-7,1,0,0,rectangle,1,-7,1,0,0,1,-7,1,0,0,1,131,291,159,1,,,,,,,,
,,,,,,,,,,,,,FF,,,,,,,,0.8352,,,,,,,,,,,,,,,,,,,,,,60fdb4958e221c323ee7e1c5,61036f03db302659b0568e6b,2021-07-29_22h19.26.455,Simcolourproject_2stim_asymm_v5,2020.2.10,Win32,60,61025ae37ef11b136ea224fe,,,,,,,,,602,70,-24,1,0,0,response3disk,,5,-19,-2,1,0,0,rectangle,-19,-2,1,0,0,-19,-2,1,0,0,1,132,292,58,1,,,,,,,,
,,,,,,,,,,,,,FF,,,,,,,,1.2876,,,,,,,,,,,,,,,,,,,,,,60fdb4958e221c323ee7e1c5,61036f03db302659b0568e6b,2021-07-29_22h19.26.455,Simcolourproject_2stim_asymm_v5,2020.2.10,Win32,60,61025ae37ef11b136ea224fe,,,,,,,,,2316,74,-38,1,0,0,response3disk,,5,-5,-1,1,0,0,rectangle,-5,-1,1,0,0,-5,-1,1,0,0,1,133,293,93,1,,,,,,,,
,,,,,,,,,,,,,FF,,,,,,,,1.9221,,,,,,,,,,,,,,,,,,,,,,60fdb4958e221c323ee7e1c5,61036f03db302659b0568e6b,2021-07-29_22h19.26.455,Simcolourproject_2stim_asymm_v5,2020.2.10,Win32,60,61025ae37ef11b136ea224fe,,,,,,,,,945,82,-44,1,0,0,response3disk,,5,3,5,1,0,0,rectangle,3,5,1,0,0,3,5,1,0,0,1,134,294,98,1,,,,,,,,
,,,,,,,,,,,,,FF,,,,,,,,1.0366,,,,,,,,,,,,,,,,,,,,,,60fdb4958e221c323ee7e1c5,61036f03db302659b0568e6b,2021-07-29_22h19.26.455,Simcolourproject_2stim_asymm_v5,2020.2.10,Win32,60,61025ae37ef11b136ea224fe,,,,,,,,,1998,51,74,1,0,0,response1disk,,7,11,3,1,0,0,rectangle,11,3,1,0,0,11,3,1,0,0,1,135,295,148,1,,,,,,,,
,,,,,,,,,,,,,FF,,,,,,,,1.4298,,,,,,,,,,,,,,,,,,,,,,60fdb4958e221c323ee7e1c5,61036f03db302659b0568e6b,2021-07-29_22h19.26.455,Simcolourproject_2stim_asymm_v5,2020.2.10,Win32,60,61025ae37ef11b136ea224fe,,,,,,,,,3444,53,41,1,0,0,response1disk,,6,2,-3,1,0,0,rectangle,2,-3,1,0,0,2,-3,1,0,0,1,136,296,96,1,,,,,,,,
,,,,,,,,,,,,,FF,,,,,,,,0.9027,,,,,,,,,,,,,,,,,,,,,,60fdb4958e221c323ee7e1c5,61036f03db302659b0568e6b,2021-07-29_22h19.26.455,Simcolourproject_2stim_asymm_v5,2020.2.10,Win32,60,61025ae37ef11b136ea224fe,,,,,,,,,1768,43,-27,1,0,0,response3disk,,5,-12,1,1,0,0,rectangle,-12,1,1,0,0,-12,1,1,0,0,1,137,297,145,1,,,,,,,,
,,,,,,,,,,,,,FF,,,,,,,,2.5331,,,,,,,,,,,,,,,,,,,,,,60fdb4958e221c323ee7e1c5,61036f03db302659b0568e6b,2021-07-29_22h19.26.455,Simcolourproject_2stim_asymm_v5,2020.2.10,Win32,60,61025ae37ef11b136ea224fe,,,,,,,,,2667,-61,21,1,0,0,response7disk,,1,8,10,1,0,0,rectangle,44,64,1,0,0,4,-1,1,0,0,1,138,298,76,1,,response1disk_3,TRUE,7,7,"[248,124,122,100,47,188,312,279,50,89,67,299,247,13,76,39,39,270,116,248]",2.0311,rectangle
,,,,,,,,,,,,,FF,,,,,,,,1.8557,,,,,,,,,,,,,,,,,,,,,,60fdb4958e221c323ee7e1c5,61036f03db302659b0568e6b,2021-07-29_22h19.26.455,Simcolourproject_2stim_asymm_v5,2020.2.10,Win32,60,61025ae37ef11b136ea224fe,,,,,,,,,399,87,49,1,0,0,response1disk,,6,12,6,1,0,0,rectangle,12,6,1,0,0,12,6,1,0,0,1,139,299,108,1,,,,,,,,
,,,,,,,,,,,,,FF,,,,,,,,0.9529,,,,,,,,,,,,,,,,,,,,,,60fdb4958e221c323ee7e1c5,61036f03db302659b0568e6b,2021-07-29_22h19.26.455,Simcolourproject_2stim_asymm_v5,2020.2.10,Win32,60,61025ae37ef11b136ea224fe,,,,,,,,,1710,93,33,1,0,0,response1disk,,6,9,-7,1,0,0,rectangle,9,-7,1,0,0,9,-7,1,0,0,1,140,300,50,1,,,,,,,,
,,,,,,,,,,,,,FF,,,,,,,,1.7927,,,,,,,,,,,,,,,,,,,,,,60fdb4958e221c323ee7e1c5,61036f03db302659b0568e6b,2021-07-29_22h19.26.455,Simcolourproject_2stim_asymm_v5,2020.2.10,Win32,60,61025ae37ef11b136ea224fe,,,,,,,,,848,73,46,1,0,0,response1disk,,6,-4,5,1,0,0,rectangle,-4,5,1,0,0,-4,5,1,0,0,1,141,301,156,1,,,,,,,,
,,,,,,,,,,,,,FF,,,,,,,,1.4126,,,,,,,,,,,,,,,,,,,,,,60fdb4958e221c323ee7e1c5,61036f03db302659b0568e6b,2021-07-29_22h19.26.455,Simcolourproject_2stim_asymm_v5,2020.2.10,Win32,60,61025ae37ef11b136ea224fe,,,,,,,,,2589,63,53,1,0,0,response1disk,,6,6,10,1,0,0,rectangle,6,10,1,0,0,6,10,1,0,0,1,142,302,69,1,,,,,,,,
,,,,,,,,,,,,,FF,,,,,,,,0.5756,,,,,,,,,,,,,,,,,,,,,,60fdb4958e221c323ee7e1c5,61036f03db302659b0568e6b,2021-07-29_22h19.26.455,Simcolourproject_2stim_asymm_v5,2020.2.10,Win32,60,61025ae37ef11b136ea224fe,,,,,,,,,1576,37,70,1,0,0,response1disk,,7,-13,3,1,0,0,rectangle,-13,3,1,0,0,-13,3,1,0,0,1,143,303,78,1,,,,,,,,
