key_resp.keys,key_resp.rt,key_resp_14.keys,key_resp_14.rt,key_resp_15.keys,key_resp_15.rt,key_resp_17.keys,key_resp_17.rt,key_resp_9.keys,key_resp_9.rt,key_resp_10.keys,key_resp_10.rt,practice_comparison,Ecc,mouse_5.x,mouse_5.y,mouse_5.leftButton,mouse_5.midButton,mouse_5.rightButton,mouse_5.clicked_name,pracsimilarity,response_time,mouse_10.x,mouse_10.y,mouse_10.leftButton,mouse_10.midButton,mouse_10.rightButton,mouse_10.clicked_name,mouse_7.x,mouse_7.y,mouse_7.leftButton,mouse_7.midButton,mouse_7.rightButton,mouse_6.x,mouse_6.y,mouse_6.leftButton,mouse_6.midButton,mouse_6.rightButton,duringprac.thisRepN,duringprac.thisTrialN,duringprac.thisN,duringprac.thisIndex,duringprac.ran,participant,session,date,expName,psychopyVersion,OS,frameRate,study_id,mouse_7.clicked_name,catchpracsimilarity,catch_response_time,catchnumberprac,catchtrialorderprac,mouse_6.clicked_name,key_resp_22.keys,key_resp_22.rt,realcomparison,mouse.x,mouse.y,mouse.leftButton,mouse.midButton,mouse.rightButton,mouse.clicked_name,Colour2,similarity,mouse_2.x,mouse_2.y,mouse_2.leftButton,mouse_2.midButton,mouse_2.rightButton,mouse_2.clicked_name,mouse_3.x,mouse_3.y,mouse_3.leftButton,mouse_3.midButton,mouse_3.rightButton,mouse_11.x,mouse_11.y,mouse_11.leftButton,mouse_11.midButton,mouse_11.rightButton,trials_2.thisRepN,trials_2.thisTrialN,trials_2.thisN,trials_2.thisIndex,trials_2.ran,Colour1,mouse_3.clicked_name,catchornah,catchsimilarity,catchnumber,catchtrialorder,catchRT,mouse_11.clicked_name
space,1.305,space,3.11,space,18.932,space,10.831,space,0.619,space,2.711,12,FF,40,-77,1,0,0,response3disk_5,4,14.829,-1,7,1,0,0,rectangle_8,-1,7,1,0,0,-1,7,1,0,0,0,0,0,5,1,60fdf33fdfb2399145bb4df4,61036e491c694e0cea5f117b,2021-07-29_22h13.43.148,Simcolourproject_2stim_asymm_v5,2020.2.10,MacIntel,60,61025ae37ef11b136ea224fe,,,,,,,,,,,,,,,,,,,,,,,,,,,,,,,,,,,,,,,,,,,,,,
,,,,,,,,,,,,69,PF,-33,-59,1,0,0,response5disk_5,3,3.085,8,-4,1,0,0,rectangle_8,85,-38,1,0,0,-2,0,1,0,0,0,1,1,2,1,60fdf33fdfb2399145bb4df4,61036e491c694e0cea5f117b,2021-07-29_22h13.43.148,Simcolourproject_2stim_asymm_v5,2020.2.10,MacIntel,60,61025ae37ef11b136ea224fe,response3disk_7,5,3.906,5,"[2,5]",rectangle_4,,,,,,,,,,,,,,,,,,,,,,,,,,,,,,,,,,,,,,,,
,,,,,,,,,,,,152,PF,41,79,1,0,0,response1disk_5,7,3.53,-2,7,1,0,0,rectangle_8,-2,7,1,0,0,-2,7,1,0,0,0,2,2,4,1,60fdf33fdfb2399145bb4df4,61036e491c694e0cea5f117b,2021-07-29_22h13.43.148,Simcolourproject_2stim_asymm_v5,2020.2.10,MacIntel,60,61025ae37ef11b136ea224fe,,,,,,,,,,,,,,,,,,,,,,,,,,,,,,,,,,,,,,,,,,,,,,
,,,,,,,,,,,,90,FF,48,83,1,0,0,response1disk_5,7,1.883,-14,-3,1,0,0,rectangle_8,-14,-3,1,0,0,-14,-3,1,0,0,0,3,3,3,1,60fdf33fdfb2399145bb4df4,61036e491c694e0cea5f117b,2021-07-29_22h13.43.148,Simcolourproject_2stim_asymm_v5,2020.2.10,MacIntel,60,61025ae37ef11b136ea224fe,,,,,,,,,,,,,,,,,,,,,,,,,,,,,,,,,,,,,,,,,,,,,,
,,,,,,,,,,,,44,FF,50,106,1,0,0,response1disk_5,7,3.042,-5,2,1,0,0,rectangle_8,82,-45,1,0,0,8,-8,1,0,0,0,4,4,0,1,60fdf33fdfb2399145bb4df4,61036e491c694e0cea5f117b,2021-07-29_22h13.43.148,Simcolourproject_2stim_asymm_v5,2020.2.10,MacIntel,60,61025ae37ef11b136ea224fe,response3disk_7,5,2.64,5,"[2,5]",rectangle_4,,,,,,,,,,,,,,,,,,,,,,,,,,,,,,,,,,,,,,,,
,,,,,,,,,,,,66,PF,71,-40,1,0,0,response3disk_5,5,2.527,14,-1,1,0,0,rectangle_8,14,-1,1,0,0,14,-1,1,0,0,0,5,5,1,1,60fdf33fdfb2399145bb4df4,61036e491c694e0cea5f117b,2021-07-29_22h13.43.148,Simcolourproject_2stim_asymm_v5,2020.2.10,MacIntel,60,61025ae37ef11b136ea224fe,,,,,,,,,,,,,,,,,,,,,,,,,,,,,,,,,,,,,,,,,,,,,,
,,,,,,,,,,,,126,PF,-49,-78,1,0,0,response5disk_5,3,1.817,-6,1,1,0,0,rectangle_8,-6,1,1,0,0,-6,1,1,0,0,0,6,6,6,1,60fdf33fdfb2399145bb4df4,61036e491c694e0cea5f117b,2021-07-29_22h13.43.148,Simcolourproject_2stim_asymm_v5,2020.2.10,MacIntel,60,61025ae37ef11b136ea224fe,,,,,,,,,,,,,,,,,,,,,,,,,,,,,,,,,,,,,,,,,,,,,,
,,,,,,,,,,,,,FF,,,,,,,,3.123,,,,,,,,,,,,,,,,,,,,,,60fdf33fdfb2399145bb4df4,61036e491c694e0cea5f117b,2021-07-29_22h13.43.148,Simcolourproject_2stim_asymm_v5,2020.2.10,MacIntel,60,61025ae37ef11b136ea224fe,,,,,,,space,2.621,1228,18,-65,1,0,0,response3disk,,4,0,-1,1,0,0,rectangle,0,-1,1,0,0,0,-1,1,0,0,0,0,0,13,1,,,,,,,,
,,,,,,,,,,,,,FF,,,,,,,,1.291,,,,,,,,,,,,,,,,,,,,,,60fdf33fdfb2399145bb4df4,61036e491c694e0cea5f117b,2021-07-29_22h13.43.148,Simcolourproject_2stim_asymm_v5,2020.2.10,MacIntel,60,61025ae37ef11b136ea224fe,,,,,,,,,1522,67,36,1,0,0,response1disk,,6,18,-10,1,0,0,rectangle,18,-10,1,0,0,18,-10,1,0,0,0,1,1,45,1,,,,,,,,
,,,,,,,,,,,,,FF,,,,,,,,3.395,,,,,,,,,,,,,,,,,,,,,,60fdf33fdfb2399145bb4df4,61036e491c694e0cea5f117b,2021-07-29_22h13.43.148,Simcolourproject_2stim_asymm_v5,2020.2.10,MacIntel,60,61025ae37ef11b136ea224fe,,,,,,,,,1590,40,68,1,0,0,response1disk,,7,4,9,1,0,0,rectangle,4,9,1,0,0,4,9,1,0,0,0,2,2,98,1,,,,,,,,
,,,,,,,,,,,,,FF,,,,,,,,0.753,,,,,,,,,,,,,,,,,,,,,,60fdf33fdfb2399145bb4df4,61036e491c694e0cea5f117b,2021-07-29_22h13.43.148,Simcolourproject_2stim_asymm_v5,2020.2.10,MacIntel,60,61025ae37ef11b136ea224fe,,,,,,,,,1997,30,70,1,0,0,response1disk,,7,6,-2,1,0,0,rectangle,6,-2,1,0,0,6,-2,1,0,0,0,3,3,125,1,,,,,,,,
,,,,,,,,,,,,,FF,,,,,,,,0.744,,,,,,,,,,,,,,,,,,,,,,60fdf33fdfb2399145bb4df4,61036e491c694e0cea5f117b,2021-07-29_22h13.43.148,Simcolourproject_2stim_asymm_v5,2020.2.10,MacIntel,60,61025ae37ef11b136ea224fe,,,,,,,,,2534,27,65,1,0,0,response1disk,,7,-4,10,1,0,0,rectangle,-4,10,1,0,0,-4,10,1,0,0,0,4,4,52,1,,,,,,,,
,,,,,,,,,,,,,FF,,,,,,,,1.656,,,,,,,,,,,,,,,,,,,,,,60fdf33fdfb2399145bb4df4,61036e491c694e0cea5f117b,2021-07-29_22h13.43.148,Simcolourproject_2stim_asymm_v5,2020.2.10,MacIntel,60,61025ae37ef11b136ea224fe,,,,,,,,,1827,-48,-82,1,0,0,response5disk,,3,0,-11,1,0,0,rectangle,0,-11,1,0,0,0,-11,1,0,0,0,5,5,104,1,,,,,,,,
,,,,,,,,,,,,,FF,,,,,,,,1.297,,,,,,,,,,,,,,,,,,,,,,60fdf33fdfb2399145bb4df4,61036e491c694e0cea5f117b,2021-07-29_22h13.43.148,Simcolourproject_2stim_asymm_v5,2020.2.10,MacIntel,60,61025ae37ef11b136ea224fe,,,,,,,,,2940,-38,74,1,0,0,response7disk,,0,-5,2,1,0,0,rectangle,-5,2,1,0,0,-5,2,1,0,0,0,6,6,147,1,,,,,,,,
,,,,,,,,,,,,,FF,,,,,,,,1.471,,,,,,,,,,,,,,,,,,,,,,60fdf33fdfb2399145bb4df4,61036e491c694e0cea5f117b,2021-07-29_22h13.43.148,Simcolourproject_2stim_asymm_v5,2020.2.10,MacIntel,60,61025ae37ef11b136ea224fe,,,,,,,,,1947,46,69,1,0,0,response1disk,,7,21,-3,1,0,0,rectangle,21,-3,1,0,0,21,-3,1,0,0,0,7,7,126,1,,,,,,,,
,,,,,,,,,,,,,FF,,,,,,,,0.701,,,,,,,,,,,,,,,,,,,,,,60fdf33fdfb2399145bb4df4,61036e491c694e0cea5f117b,2021-07-29_22h13.43.148,Simcolourproject_2stim_asymm_v5,2020.2.10,MacIntel,60,61025ae37ef11b136ea224fe,,,,,,,,,3987,25,100,1,0,0,response1disk,,7,0,-16,1,0,0,rectangle,0,-16,1,0,0,0,-16,1,0,0,0,8,8,57,1,,,,,,,,
,,,,,,,,,,,,,FF,,,,,,,,0.669,,,,,,,,,,,,,,,,,,,,,,60fdf33fdfb2399145bb4df4,61036e491c694e0cea5f117b,2021-07-29_22h13.43.148,Simcolourproject_2stim_asymm_v5,2020.2.10,MacIntel,60,61025ae37ef11b136ea224fe,,,,,,,,,3695,33,57,1,0,0,response1disk,,7,4,-1,1,0,0,rectangle,-83,-33,1,0,0,-11,-7,1,0,0,0,9,9,77,1,,response5disk_3,TRUE,2,2,"[243,188,276,124,90,90,10,300,0,319,89,173,150,273,217,274,172,216,91,97]",2.421,rectangle
,,,,,,,,,,,,,FF,,,,,,,,1.782,,,,,,,,,,,,,,,,,,,,,,60fdf33fdfb2399145bb4df4,61036e491c694e0cea5f117b,2021-07-29_22h13.43.148,Simcolourproject_2stim_asymm_v5,2020.2.10,MacIntel,60,61025ae37ef11b136ea224fe,,,,,,,,,1824,-49,35,1,0,0,response7disk,,1,-10,1,1,0,0,rectangle,-10,1,1,0,0,-10,1,1,0,0,0,10,10,148,1,,,,,,,,
,,,,,,,,,,,,,FF,,,,,,,,1.563,,,,,,,,,,,,,,,,,,,,,,60fdf33fdfb2399145bb4df4,61036e491c694e0cea5f117b,2021-07-29_22h13.43.148,Simcolourproject_2stim_asymm_v5,2020.2.10,MacIntel,60,61025ae37ef11b136ea224fe,,,,,,,,,3014,-35,-74,1,0,0,response5disk,,3,2,-2,1,0,0,rectangle,2,-2,1,0,0,2,-2,1,0,0,0,11,11,145,1,,,,,,,,
,,,,,,,,,,,,,FF,,,,,,,,1.355,,,,,,,,,,,,,,,,,,,,,,60fdf33fdfb2399145bb4df4,61036e491c694e0cea5f117b,2021-07-29_22h13.43.148,Simcolourproject_2stim_asymm_v5,2020.2.10,MacIntel,60,61025ae37ef11b136ea224fe,,,,,,,,,2358,-41,-91,1,0,0,response5disk,,3,-5,-9,1,0,0,rectangle,-5,-9,1,0,0,-5,-9,1,0,0,0,12,12,72,1,,,,,,,,
,,,,,,,,,,,,,FF,,,,,,,,1.32,,,,,,,,,,,,,,,,,,,,,,60fdf33fdfb2399145bb4df4,61036e491c694e0cea5f117b,2021-07-29_22h13.43.148,Simcolourproject_2stim_asymm_v5,2020.2.10,MacIntel,60,61025ae37ef11b136ea224fe,,,,,,,,,1531,79,36,1,0,0,response1disk,,6,0,7,1,0,0,rectangle,0,7,1,0,0,0,7,1,0,0,0,13,13,20,1,,,,,,,,
,,,,,,,,,,,,,FF,,,,,,,,0.881,,,,,,,,,,,,,,,,,,,,,,60fdf33fdfb2399145bb4df4,61036e491c694e0cea5f117b,2021-07-29_22h13.43.148,Simcolourproject_2stim_asymm_v5,2020.2.10,MacIntel,60,61025ae37ef11b136ea224fe,,,,,,,,,3064,27,97,1,0,0,response1disk,,7,4,2,1,0,0,rectangle,4,2,1,0,0,4,2,1,0,0,0,14,14,91,1,,,,,,,,
,,,,,,,,,,,,,FF,,,,,,,,3.089,,,,,,,,,,,,,,,,,,,,,,60fdf33fdfb2399145bb4df4,61036e491c694e0cea5f117b,2021-07-29_22h13.43.148,Simcolourproject_2stim_asymm_v5,2020.2.10,MacIntel,60,61025ae37ef11b136ea224fe,,,,,,,,,2777,67,60,1,0,0,response1disk,,6,31,-1,1,0,0,rectangle,31,-1,1,0,0,31,-1,1,0,0,0,15,15,4,1,,,,,,,,
,,,,,,,,,,,,,FF,,,,,,,,1.35,,,,,,,,,,,,,,,,,,,,,,60fdf33fdfb2399145bb4df4,61036e491c694e0cea5f117b,2021-07-29_22h13.43.148,Simcolourproject_2stim_asymm_v5,2020.2.10,MacIntel,60,61025ae37ef11b136ea224fe,,,,,,,,,2903,45,62,1,0,0,response1disk,,7,4,1,1,0,0,rectangle,4,1,1,0,0,4,1,1,0,0,0,16,16,39,1,,,,,,,,
,,,,,,,,,,,,,FF,,,,,,,,0.724,,,,,,,,,,,,,,,,,,,,,,60fdf33fdfb2399145bb4df4,61036e491c694e0cea5f117b,2021-07-29_22h13.43.148,Simcolourproject_2stim_asymm_v5,2020.2.10,MacIntel,60,61025ae37ef11b136ea224fe,,,,,,,,,2968,32,80,1,0,0,response1disk,,7,-1,1,1,0,0,rectangle,-1,1,1,0,0,-1,1,1,0,0,0,17,17,5,1,,,,,,,,
,,,,,,,,,,,,,FF,,,,,,,,0.602,,,,,,,,,,,,,,,,,,,,,,60fdf33fdfb2399145bb4df4,61036e491c694e0cea5f117b,2021-07-29_22h13.43.148,Simcolourproject_2stim_asymm_v5,2020.2.10,MacIntel,60,61025ae37ef11b136ea224fe,,,,,,,,,2640,36,74,1,0,0,response1disk,,7,12,0,1,0,0,rectangle,12,0,1,0,0,12,0,1,0,0,0,18,18,44,1,,,,,,,,
,,,,,,,,,,,,,FF,,,,,,,,1.132,,,,,,,,,,,,,,,,,,,,,,60fdf33fdfb2399145bb4df4,61036e491c694e0cea5f117b,2021-07-29_22h13.43.148,Simcolourproject_2stim_asymm_v5,2020.2.10,MacIntel,60,61025ae37ef11b136ea224fe,,,,,,,,,2293,-38,-64,1,0,0,response5disk,,3,-5,13,1,0,0,rectangle,-5,13,1,0,0,-5,13,1,0,0,0,19,19,155,1,,,,,,,,
,,,,,,,,,,,,,FF,,,,,,,,1.019,,,,,,,,,,,,,,,,,,,,,,60fdf33fdfb2399145bb4df4,61036e491c694e0cea5f117b,2021-07-29_22h13.43.148,Simcolourproject_2stim_asymm_v5,2020.2.10,MacIntel,60,61025ae37ef11b136ea224fe,,,,,,,,,1033,82,-50,1,0,0,response3disk,,5,-3,-9,1,0,0,rectangle,-3,-9,1,0,0,-3,-9,1,0,0,0,20,20,71,1,,,,,,,,
,,,,,,,,,,,,,FF,,,,,,,,1.118,,,,,,,,,,,,,,,,,,,,,,60fdf33fdfb2399145bb4df4,61036e491c694e0cea5f117b,2021-07-29_22h13.43.148,Simcolourproject_2stim_asymm_v5,2020.2.10,MacIntel,60,61025ae37ef11b136ea224fe,,,,,,,,,2995,-50,-63,1,0,0,response5disk,,3,-4,4,1,0,0,rectangle,-4,4,1,0,0,-4,4,1,0,0,0,21,21,144,1,,,,,,,,
,,,,,,,,,,,,,FF,,,,,,,,1.099,,,,,,,,,,,,,,,,,,,,,,60fdf33fdfb2399145bb4df4,61036e491c694e0cea5f117b,2021-07-29_22h13.43.148,Simcolourproject_2stim_asymm_v5,2020.2.10,MacIntel,60,61025ae37ef11b136ea224fe,,,,,,,,,2259,31,76,1,0,0,response1disk,,7,-1,6,1,0,0,rectangle,-1,6,1,0,0,-1,6,1,0,0,0,22,22,2,1,,,,,,,,
,,,,,,,,,,,,,FF,,,,,,,,0.698,,,,,,,,,,,,,,,,,,,,,,60fdf33fdfb2399145bb4df4,61036e491c694e0cea5f117b,2021-07-29_22h13.43.148,Simcolourproject_2stim_asymm_v5,2020.2.10,MacIntel,60,61025ae37ef11b136ea224fe,,,,,,,,,863,41,73,1,0,0,response1disk,,7,11,-9,1,0,0,rectangle,11,-9,1,0,0,11,-9,1,0,0,0,23,23,11,1,,,,,,,,
,,,,,,,,,,,,,FF,,,,,,,,0.619,,,,,,,,,,,,,,,,,,,,,,60fdf33fdfb2399145bb4df4,61036e491c694e0cea5f117b,2021-07-29_22h13.43.148,Simcolourproject_2stim_asymm_v5,2020.2.10,MacIntel,60,61025ae37ef11b136ea224fe,,,,,,,,,3950,39,68,1,0,0,response1disk,,7,15,-2,1,0,0,rectangle,15,-2,1,0,0,15,-2,1,0,0,0,24,24,70,1,,,,,,,,
,,,,,,,,,,,,,FF,,,,,,,,1.048,,,,,,,,,,,,,,,,,,,,,,60fdf33fdfb2399145bb4df4,61036e491c694e0cea5f117b,2021-07-29_22h13.43.148,Simcolourproject_2stim_asymm_v5,2020.2.10,MacIntel,60,61025ae37ef11b136ea224fe,,,,,,,,,3835,61,36,1,0,0,response1disk,,6,5,-4,1,0,0,rectangle,5,-4,1,0,0,5,-4,1,0,0,0,25,25,22,1,,,,,,,,
,,,,,,,,,,,,,FF,,,,,,,,1.159,,,,,,,,,,,,,,,,,,,,,,60fdf33fdfb2399145bb4df4,61036e491c694e0cea5f117b,2021-07-29_22h13.43.148,Simcolourproject_2stim_asymm_v5,2020.2.10,MacIntel,60,61025ae37ef11b136ea224fe,,,,,,,,,3674,65,37,1,0,0,response1disk,,6,16,4,1,0,0,rectangle,16,4,1,0,0,16,4,1,0,0,0,26,26,24,1,,,,,,,,
,,,,,,,,,,,,,FF,,,,,,,,0.789,,,,,,,,,,,,,,,,,,,,,,60fdf33fdfb2399145bb4df4,61036e491c694e0cea5f117b,2021-07-29_22h13.43.148,Simcolourproject_2stim_asymm_v5,2020.2.10,MacIntel,60,61025ae37ef11b136ea224fe,,,,,,,,,1955,27,62,1,0,0,response1disk,,7,-4,-2,1,0,0,rectangle,-4,-2,1,0,0,-4,-2,1,0,0,0,27,27,27,1,,,,,,,,
,,,,,,,,,,,,,FF,,,,,,,,0.707,,,,,,,,,,,,,,,,,,,,,,60fdf33fdfb2399145bb4df4,61036e491c694e0cea5f117b,2021-07-29_22h13.43.148,Simcolourproject_2stim_asymm_v5,2020.2.10,MacIntel,60,61025ae37ef11b136ea224fe,,,,,,,,,254,34,61,1,0,0,response1disk,,7,3,-3,1,0,0,rectangle,3,-3,1,0,0,3,-3,1,0,0,0,28,28,64,1,,,,,,,,
,,,,,,,,,,,,,FF,,,,,,,,0.868,,,,,,,,,,,,,,,,,,,,,,60fdf33fdfb2399145bb4df4,61036e491c694e0cea5f117b,2021-07-29_22h13.43.148,Simcolourproject_2stim_asymm_v5,2020.2.10,MacIntel,60,61025ae37ef11b136ea224fe,,,,,,,,,403,30,46,1,0,0,response1disk,,7,-8,10,1,0,0,rectangle,-8,10,1,0,0,-8,10,1,0,0,0,29,29,83,1,,,,,,,,
,,,,,,,,,,,,,FF,,,,,,,,0.987,,,,,,,,,,,,,,,,,,,,,,60fdf33fdfb2399145bb4df4,61036e491c694e0cea5f117b,2021-07-29_22h13.43.148,Simcolourproject_2stim_asymm_v5,2020.2.10,MacIntel,60,61025ae37ef11b136ea224fe,,,,,,,,,3715,80,41,1,0,0,response1disk,,6,22,-13,1,0,0,rectangle,22,-13,1,0,0,22,-13,1,0,0,0,30,30,100,1,,,,,,,,
,,,,,,,,,,,,,FF,,,,,,,,0.642,,,,,,,,,,,,,,,,,,,,,,60fdf33fdfb2399145bb4df4,61036e491c694e0cea5f117b,2021-07-29_22h13.43.148,Simcolourproject_2stim_asymm_v5,2020.2.10,MacIntel,60,61025ae37ef11b136ea224fe,,,,,,,,,1542,47,77,1,0,0,response1disk,,7,-9,10,1,0,0,rectangle,-9,10,1,0,0,-9,10,1,0,0,0,31,31,79,1,,,,,,,,
,,,,,,,,,,,,,FF,,,,,,,,0.651,,,,,,,,,,,,,,,,,,,,,,60fdf33fdfb2399145bb4df4,61036e491c694e0cea5f117b,2021-07-29_22h13.43.148,Simcolourproject_2stim_asymm_v5,2020.2.10,MacIntel,60,61025ae37ef11b136ea224fe,,,,,,,,,1358,28,61,1,0,0,response1disk,,7,11,2,1,0,0,rectangle,11,2,1,0,0,11,2,1,0,0,0,32,32,32,1,,,,,,,,
,,,,,,,,,,,,,FF,,,,,,,,0.788,,,,,,,,,,,,,,,,,,,,,,60fdf33fdfb2399145bb4df4,61036e491c694e0cea5f117b,2021-07-29_22h13.43.148,Simcolourproject_2stim_asymm_v5,2020.2.10,MacIntel,60,61025ae37ef11b136ea224fe,,,,,,,,,4050,46,76,1,0,0,response1disk,,7,8,-1,1,0,0,rectangle,8,-1,1,0,0,8,-1,1,0,0,0,33,33,65,1,,,,,,,,
,,,,,,,,,,,,,FF,,,,,,,,1.25,,,,,,,,,,,,,,,,,,,,,,60fdf33fdfb2399145bb4df4,61036e491c694e0cea5f117b,2021-07-29_22h13.43.148,Simcolourproject_2stim_asymm_v5,2020.2.10,MacIntel,60,61025ae37ef11b136ea224fe,,,,,,,,,2190,31,70,1,0,0,response1disk,,7,-1,-1,1,0,0,rectangle,-1,-1,1,0,0,-1,-1,1,0,0,0,34,34,69,1,,,,,,,,
,,,,,,,,,,,,,FF,,,,,,,,0.861,,,,,,,,,,,,,,,,,,,,,,60fdf33fdfb2399145bb4df4,61036e491c694e0cea5f117b,2021-07-29_22h13.43.148,Simcolourproject_2stim_asymm_v5,2020.2.10,MacIntel,60,61025ae37ef11b136ea224fe,,,,,,,,,1575,42,67,1,0,0,response1disk,,7,1,7,1,0,0,rectangle,1,7,1,0,0,1,7,1,0,0,0,35,35,139,1,,,,,,,,
,,,,,,,,,,,,,FF,,,,,,,,1.44,,,,,,,,,,,,,,,,,,,,,,60fdf33fdfb2399145bb4df4,61036e491c694e0cea5f117b,2021-07-29_22h13.43.148,Simcolourproject_2stim_asymm_v5,2020.2.10,MacIntel,60,61025ae37ef11b136ea224fe,,,,,,,,,3979,73,-63,1,0,0,response3disk,,5,3,-8,1,0,0,rectangle,3,-8,1,0,0,3,-8,1,0,0,0,36,36,137,1,,,,,,,,
,,,,,,,,,,,,,FF,,,,,,,,0.632,,,,,,,,,,,,,,,,,,,,,,60fdf33fdfb2399145bb4df4,61036e491c694e0cea5f117b,2021-07-29_22h13.43.148,Simcolourproject_2stim_asymm_v5,2020.2.10,MacIntel,60,61025ae37ef11b136ea224fe,,,,,,,,,1408,29,91,1,0,0,response1disk,,7,-15,-6,1,0,0,rectangle,-15,-6,1,0,0,-15,-6,1,0,0,0,37,37,40,1,,,,,,,,
,,,,,,,,,,,,,FF,,,,,,,,0.569,,,,,,,,,,,,,,,,,,,,,,60fdf33fdfb2399145bb4df4,61036e491c694e0cea5f117b,2021-07-29_22h13.43.148,Simcolourproject_2stim_asymm_v5,2020.2.10,MacIntel,60,61025ae37ef11b136ea224fe,,,,,,,,,3073,29,92,1,0,0,response1disk,,7,1,7,1,0,0,rectangle,1,7,1,0,0,1,7,1,0,0,0,38,38,154,1,,,,,,,,
,,,,,,,,,,,,,FF,,,,,,,,0.687,,,,,,,,,,,,,,,,,,,,,,60fdf33fdfb2399145bb4df4,61036e491c694e0cea5f117b,2021-07-29_22h13.43.148,Simcolourproject_2stim_asymm_v5,2020.2.10,MacIntel,60,61025ae37ef11b136ea224fe,,,,,,,,,2749,40,76,1,0,0,response1disk,,7,11,-9,1,0,0,rectangle,11,-9,1,0,0,11,-9,1,0,0,0,39,39,19,1,,,,,,,,
,,,,,,,,,,,,,FF,,,,,,,,0.468,,,,,,,,,,,,,,,,,,,,,,60fdf33fdfb2399145bb4df4,61036e491c694e0cea5f117b,2021-07-29_22h13.43.148,Simcolourproject_2stim_asymm_v5,2020.2.10,MacIntel,60,61025ae37ef11b136ea224fe,,,,,,,,,74,28,79,1,0,0,response1disk,,7,8,13,1,0,0,rectangle,8,13,1,0,0,8,13,1,0,0,0,40,40,58,1,,,,,,,,
,,,,,,,,,,,,,FF,,,,,,,,1.615,,,,,,,,,,,,,,,,,,,,,,60fdf33fdfb2399145bb4df4,61036e491c694e0cea5f117b,2021-07-29_22h13.43.148,Simcolourproject_2stim_asymm_v5,2020.2.10,MacIntel,60,61025ae37ef11b136ea224fe,,,,,,,,,3143,71,-60,1,0,0,response3disk,,5,16,-13,1,0,0,rectangle,16,-13,1,0,0,16,-13,1,0,0,0,41,41,63,1,,,,,,,,
,,,,,,,,,,,,,FF,,,,,,,,0.537,,,,,,,,,,,,,,,,,,,,,,60fdf33fdfb2399145bb4df4,61036e491c694e0cea5f117b,2021-07-29_22h13.43.148,Simcolourproject_2stim_asymm_v5,2020.2.10,MacIntel,60,61025ae37ef11b136ea224fe,,,,,,,,,3335,21,79,1,0,0,response1disk,,7,-1,8,1,0,0,rectangle,-1,8,1,0,0,-1,8,1,0,0,0,42,42,78,1,,,,,,,,
,,,,,,,,,,,,,FF,,,,,,,,0.581,,,,,,,,,,,,,,,,,,,,,,60fdf33fdfb2399145bb4df4,61036e491c694e0cea5f117b,2021-07-29_22h13.43.148,Simcolourproject_2stim_asymm_v5,2020.2.10,MacIntel,60,61025ae37ef11b136ea224fe,,,,,,,,,3224,27,56,1,0,0,response1disk,,7,10,-8,1,0,0,rectangle,10,-8,1,0,0,10,-8,1,0,0,0,43,43,56,1,,,,,,,,
,,,,,,,,,,,,,FF,,,,,,,,0.644,,,,,,,,,,,,,,,,,,,,,,60fdf33fdfb2399145bb4df4,61036e491c694e0cea5f117b,2021-07-29_22h13.43.148,Simcolourproject_2stim_asymm_v5,2020.2.10,MacIntel,60,61025ae37ef11b136ea224fe,,,,,,,,,4039,46,54,1,0,0,response1disk,,7,2,3,1,0,0,rectangle,2,3,1,0,0,2,3,1,0,0,0,44,44,25,1,,,,,,,,
,,,,,,,,,,,,,FF,,,,,,,,0.641,,,,,,,,,,,,,,,,,,,,,,60fdf33fdfb2399145bb4df4,61036e491c694e0cea5f117b,2021-07-29_22h13.43.148,Simcolourproject_2stim_asymm_v5,2020.2.10,MacIntel,60,61025ae37ef11b136ea224fe,,,,,,,,,3803,23,92,1,0,0,response1disk,,7,-9,2,1,0,0,rectangle,-9,2,1,0,0,-9,2,1,0,0,0,45,45,121,1,,,,,,,,
,,,,,,,,,,,,,FF,,,,,,,,0.892,,,,,,,,,,,,,,,,,,,,,,60fdf33fdfb2399145bb4df4,61036e491c694e0cea5f117b,2021-07-29_22h13.43.148,Simcolourproject_2stim_asymm_v5,2020.2.10,MacIntel,60,61025ae37ef11b136ea224fe,,,,,,,,,611,63,22,1,0,0,response1disk,,6,2,-8,1,0,0,rectangle,2,-8,1,0,0,2,-8,1,0,0,0,46,46,12,1,,,,,,,,
,,,,,,,,,,,,,FF,,,,,,,,0.604,,,,,,,,,,,,,,,,,,,,,,60fdf33fdfb2399145bb4df4,61036e491c694e0cea5f117b,2021-07-29_22h13.43.148,Simcolourproject_2stim_asymm_v5,2020.2.10,MacIntel,60,61025ae37ef11b136ea224fe,,,,,,,,,860,49,76,1,0,0,response1disk,,7,-2,9,1,0,0,rectangle,-2,9,1,0,0,-2,9,1,0,0,0,47,47,114,1,,,,,,,,
,,,,,,,,,,,,,FF,,,,,,,,0.933,,,,,,,,,,,,,,,,,,,,,,60fdf33fdfb2399145bb4df4,61036e491c694e0cea5f117b,2021-07-29_22h13.43.148,Simcolourproject_2stim_asymm_v5,2020.2.10,MacIntel,60,61025ae37ef11b136ea224fe,,,,,,,,,194,71,53,1,0,0,response1disk,,6,3,-7,1,0,0,rectangle,3,-7,1,0,0,3,-7,1,0,0,0,48,48,110,1,,,,,,,,
,,,,,,,,,,,,,FF,,,,,,,,0.597,,,,,,,,,,,,,,,,,,,,,,60fdf33fdfb2399145bb4df4,61036e491c694e0cea5f117b,2021-07-29_22h13.43.148,Simcolourproject_2stim_asymm_v5,2020.2.10,MacIntel,60,61025ae37ef11b136ea224fe,,,,,,,,,1642,37,69,1,0,0,response1disk,,7,-5,3,1,0,0,rectangle,-5,3,1,0,0,-5,3,1,0,0,0,49,49,128,1,,,,,,,,
,,,,,,,,,,,,,FF,,,,,,,,1.355,,,,,,,,,,,,,,,,,,,,,,60fdf33fdfb2399145bb4df4,61036e491c694e0cea5f117b,2021-07-29_22h13.43.148,Simcolourproject_2stim_asymm_v5,2020.2.10,MacIntel,60,61025ae37ef11b136ea224fe,,,,,,,,,1830,34,82,1,0,0,response1disk,,7,-4,6,1,0,0,rectangle,-4,6,1,0,0,-4,6,1,0,0,0,50,50,59,1,,,,,,,,
,,,,,,,,,,,,,FF,,,,,,,,0.771,,,,,,,,,,,,,,,,,,,,,,60fdf33fdfb2399145bb4df4,61036e491c694e0cea5f117b,2021-07-29_22h13.43.148,Simcolourproject_2stim_asymm_v5,2020.2.10,MacIntel,60,61025ae37ef11b136ea224fe,,,,,,,,,3581,34,84,1,0,0,response1disk,,7,1,3,1,0,0,rectangle,1,3,1,0,0,1,3,1,0,0,0,51,51,84,1,,,,,,,,
,,,,,,,,,,,,,FF,,,,,,,,1.618,,,,,,,,,,,,,,,,,,,,,,60fdf33fdfb2399145bb4df4,61036e491c694e0cea5f117b,2021-07-29_22h13.43.148,Simcolourproject_2stim_asymm_v5,2020.2.10,MacIntel,60,61025ae37ef11b136ea224fe,,,,,,,,,1291,-86,34,1,0,0,response7disk,,1,-15,1,1,0,0,rectangle,-15,1,1,0,0,-15,1,1,0,0,0,52,52,119,1,,,,,,,,
,,,,,,,,,,,,,FF,,,,,,,,0.627,,,,,,,,,,,,,,,,,,,,,,60fdf33fdfb2399145bb4df4,61036e491c694e0cea5f117b,2021-07-29_22h13.43.148,Simcolourproject_2stim_asymm_v5,2020.2.10,MacIntel,60,61025ae37ef11b136ea224fe,,,,,,,,,3763,41,87,1,0,0,response1disk,,7,10,-9,1,0,0,rectangle,10,-9,1,0,0,10,-9,1,0,0,0,53,53,26,1,,,,,,,,
,,,,,,,,,,,,,FF,,,,,,,,0.773,,,,,,,,,,,,,,,,,,,,,,60fdf33fdfb2399145bb4df4,61036e491c694e0cea5f117b,2021-07-29_22h13.43.148,Simcolourproject_2stim_asymm_v5,2020.2.10,MacIntel,60,61025ae37ef11b136ea224fe,,,,,,,,,2992,36,74,1,0,0,response1disk,,7,-5,-6,1,0,0,rectangle,-5,-6,1,0,0,-5,-6,1,0,0,0,54,54,3,1,,,,,,,,
,,,,,,,,,,,,,FF,,,,,,,,0.631,,,,,,,,,,,,,,,,,,,,,,60fdf33fdfb2399145bb4df4,61036e491c694e0cea5f117b,2021-07-29_22h13.43.148,Simcolourproject_2stim_asymm_v5,2020.2.10,MacIntel,60,61025ae37ef11b136ea224fe,,,,,,,,,2580,39,90,1,0,0,response1disk,,7,5,10,1,0,0,rectangle,5,10,1,0,0,5,10,1,0,0,0,55,55,112,1,,,,,,,,
,,,,,,,,,,,,,FF,,,,,,,,2.803,,,,,,,,,,,,,,,,,,,,,,60fdf33fdfb2399145bb4df4,61036e491c694e0cea5f117b,2021-07-29_22h13.43.148,Simcolourproject_2stim_asymm_v5,2020.2.10,MacIntel,60,61025ae37ef11b136ea224fe,,,,,,,,,1327,30,87,1,0,0,response1disk,,7,21,2,1,0,0,rectangle,21,2,1,0,0,21,2,1,0,0,0,56,56,132,1,,,,,,,,
,,,,,,,,,,,,,FF,,,,,,,,0.828,,,,,,,,,,,,,,,,,,,,,,60fdf33fdfb2399145bb4df4,61036e491c694e0cea5f117b,2021-07-29_22h13.43.148,Simcolourproject_2stim_asymm_v5,2020.2.10,MacIntel,60,61025ae37ef11b136ea224fe,,,,,,,,,4309,32,67,1,0,0,response1disk,,7,2,6,1,0,0,rectangle,2,6,1,0,0,2,6,1,0,0,0,57,57,42,1,,,,,,,,
,,,,,,,,,,,,,FF,,,,,,,,0.962,,,,,,,,,,,,,,,,,,,,,,60fdf33fdfb2399145bb4df4,61036e491c694e0cea5f117b,2021-07-29_22h13.43.148,Simcolourproject_2stim_asymm_v5,2020.2.10,MacIntel,60,61025ae37ef11b136ea224fe,,,,,,,,,3468,-27,89,1,0,0,response7disk,,0,-9,2,1,0,0,rectangle,-9,2,1,0,0,-9,2,1,0,0,0,58,58,74,1,,,,,,,,
,,,,,,,,,,,,,FF,,,,,,,,0.96,,,,,,,,,,,,,,,,,,,,,,60fdf33fdfb2399145bb4df4,61036e491c694e0cea5f117b,2021-07-29_22h13.43.148,Simcolourproject_2stim_asymm_v5,2020.2.10,MacIntel,60,61025ae37ef11b136ea224fe,,,,,,,,,3421,-71,26,1,0,0,response7disk,,1,-9,-2,1,0,0,rectangle,-9,-2,1,0,0,-9,-2,1,0,0,0,59,59,55,1,,,,,,,,
,,,,,,,,,,,,,FF,,,,,,,,0.785,,,,,,,,,,,,,,,,,,,,,,60fdf33fdfb2399145bb4df4,61036e491c694e0cea5f117b,2021-07-29_22h13.43.148,Simcolourproject_2stim_asymm_v5,2020.2.10,MacIntel,60,61025ae37ef11b136ea224fe,,,,,,,,,996,33,66,1,0,0,response1disk,,7,10,2,1,0,0,rectangle,10,2,1,0,0,10,2,1,0,0,0,60,60,127,1,,,,,,,,
,,,,,,,,,,,,,FF,,,,,,,,1.308,,,,,,,,,,,,,,,,,,,,,,60fdf33fdfb2399145bb4df4,61036e491c694e0cea5f117b,2021-07-29_22h13.43.148,Simcolourproject_2stim_asymm_v5,2020.2.10,MacIntel,60,61025ae37ef11b136ea224fe,,,,,,,,,2169,33,73,1,0,0,response1disk,,7,9,-5,1,0,0,rectangle,9,-5,1,0,0,9,-5,1,0,0,0,61,61,73,1,,,,,,,,
,,,,,,,,,,,,,FF,,,,,,,,1.235,,,,,,,,,,,,,,,,,,,,,,60fdf33fdfb2399145bb4df4,61036e491c694e0cea5f117b,2021-07-29_22h13.43.148,Simcolourproject_2stim_asymm_v5,2020.2.10,MacIntel,60,61025ae37ef11b136ea224fe,,,,,,,,,4251,-81,40,1,0,0,response7disk,,1,5,-4,1,0,0,rectangle,5,-4,1,0,0,5,-4,1,0,0,0,62,62,18,1,,,,,,,,
,,,,,,,,,,,,,FF,,,,,,,,1.362,,,,,,,,,,,,,,,,,,,,,,60fdf33fdfb2399145bb4df4,61036e491c694e0cea5f117b,2021-07-29_22h13.43.148,Simcolourproject_2stim_asymm_v5,2020.2.10,MacIntel,60,61025ae37ef11b136ea224fe,,,,,,,,,3626,34,-75,1,0,0,response3disk,,4,6,0,1,0,0,rectangle,6,0,1,0,0,6,0,1,0,0,0,63,63,9,1,,,,,,,,
,,,,,,,,,,,,,FF,,,,,,,,0.719,,,,,,,,,,,,,,,,,,,,,,60fdf33fdfb2399145bb4df4,61036e491c694e0cea5f117b,2021-07-29_22h13.43.148,Simcolourproject_2stim_asymm_v5,2020.2.10,MacIntel,60,61025ae37ef11b136ea224fe,,,,,,,,,428,34,64,1,0,0,response1disk,,7,-3,-11,1,0,0,rectangle,-3,-11,1,0,0,-3,-11,1,0,0,0,64,64,96,1,,,,,,,,
,,,,,,,,,,,,,FF,,,,,,,,0.571,,,,,,,,,,,,,,,,,,,,,,60fdf33fdfb2399145bb4df4,61036e491c694e0cea5f117b,2021-07-29_22h13.43.148,Simcolourproject_2stim_asymm_v5,2020.2.10,MacIntel,60,61025ae37ef11b136ea224fe,,,,,,,,,1914,28,96,1,0,0,response1disk,,7,13,12,1,0,0,rectangle,13,12,1,0,0,13,12,1,0,0,0,65,65,54,1,,,,,,,,
,,,,,,,,,,,,,FF,,,,,,,,1.235,,,,,,,,,,,,,,,,,,,,,,60fdf33fdfb2399145bb4df4,61036e491c694e0cea5f117b,2021-07-29_22h13.43.148,Simcolourproject_2stim_asymm_v5,2020.2.10,MacIntel,60,61025ae37ef11b136ea224fe,,,,,,,,,990,36,80,1,0,0,response1disk,,7,10,-3,1,0,0,rectangle,10,-3,1,0,0,10,-3,1,0,0,0,66,66,30,1,,,,,,,,
,,,,,,,,,,,,,FF,,,,,,,,0.513,,,,,,,,,,,,,,,,,,,,,,60fdf33fdfb2399145bb4df4,61036e491c694e0cea5f117b,2021-07-29_22h13.43.148,Simcolourproject_2stim_asymm_v5,2020.2.10,MacIntel,60,61025ae37ef11b136ea224fe,,,,,,,,,662,35,76,1,0,0,response1disk,,7,0,-6,1,0,0,rectangle,0,-6,1,0,0,0,-6,1,0,0,0,67,67,29,1,,,,,,,,
,,,,,,,,,,,,,FF,,,,,,,,0.544,,,,,,,,,,,,,,,,,,,,,,60fdf33fdfb2399145bb4df4,61036e491c694e0cea5f117b,2021-07-29_22h13.43.148,Simcolourproject_2stim_asymm_v5,2020.2.10,MacIntel,60,61025ae37ef11b136ea224fe,,,,,,,,,692,50,71,1,0,0,response1disk,,7,-9,4,1,0,0,rectangle,-9,4,1,0,0,-9,4,1,0,0,0,68,68,152,1,,,,,,,,
,,,,,,,,,,,,,FF,,,,,,,,1.024,,,,,,,,,,,,,,,,,,,,,,60fdf33fdfb2399145bb4df4,61036e491c694e0cea5f117b,2021-07-29_22h13.43.148,Simcolourproject_2stim_asymm_v5,2020.2.10,MacIntel,60,61025ae37ef11b136ea224fe,,,,,,,,,2998,74,-44,1,0,0,response3disk,,5,-2,2,1,0,0,rectangle,-2,2,1,0,0,-2,2,1,0,0,0,69,69,50,1,,,,,,,,
,,,,,,,,,,,,,FF,,,,,,,,0.58,,,,,,,,,,,,,,,,,,,,,,60fdf33fdfb2399145bb4df4,61036e491c694e0cea5f117b,2021-07-29_22h13.43.148,Simcolourproject_2stim_asymm_v5,2020.2.10,MacIntel,60,61025ae37ef11b136ea224fe,,,,,,,,,3613,37,75,1,0,0,response1disk,,7,-1,-5,1,0,0,rectangle,-1,-5,1,0,0,-1,-5,1,0,0,0,70,70,35,1,,,,,,,,
,,,,,,,,,,,,,FF,,,,,,,,0.649,,,,,,,,,,,,,,,,,,,,,,60fdf33fdfb2399145bb4df4,61036e491c694e0cea5f117b,2021-07-29_22h13.43.148,Simcolourproject_2stim_asymm_v5,2020.2.10,MacIntel,60,61025ae37ef11b136ea224fe,,,,,,,,,3643,29,105,1,0,0,response1disk,,7,-10,-1,1,0,0,rectangle,-10,-1,1,0,0,-10,-1,1,0,0,0,71,71,33,1,,,,,,,,
,,,,,,,,,,,,,FF,,,,,,,,0.954,,,,,,,,,,,,,,,,,,,,,,60fdf33fdfb2399145bb4df4,61036e491c694e0cea5f117b,2021-07-29_22h13.43.148,Simcolourproject_2stim_asymm_v5,2020.2.10,MacIntel,60,61025ae37ef11b136ea224fe,,,,,,,,,2788,71,42,1,0,0,response1disk,,6,13,-2,1,0,0,rectangle,13,-2,1,0,0,13,-2,1,0,0,0,72,72,115,1,,,,,,,,
,,,,,,,,,,,,,FF,,,,,,,,0.489,,,,,,,,,,,,,,,,,,,,,,60fdf33fdfb2399145bb4df4,61036e491c694e0cea5f117b,2021-07-29_22h13.43.148,Simcolourproject_2stim_asymm_v5,2020.2.10,MacIntel,60,61025ae37ef11b136ea224fe,,,,,,,,,690,47,76,1,0,0,response1disk,,7,-8,-14,1,0,0,rectangle,-8,-14,1,0,0,-8,-14,1,0,0,0,73,73,140,1,,,,,,,,
,,,,,,,,,,,,,FF,,,,,,,,0.514,,,,,,,,,,,,,,,,,,,,,,60fdf33fdfb2399145bb4df4,61036e491c694e0cea5f117b,2021-07-29_22h13.43.148,Simcolourproject_2stim_asymm_v5,2020.2.10,MacIntel,60,61025ae37ef11b136ea224fe,,,,,,,,,2467,38,97,1,0,0,response1disk,,7,-7,-3,1,0,0,rectangle,-7,-3,1,0,0,-7,-3,1,0,0,0,74,74,134,1,,,,,,,,
,,,,,,,,,,,,,FF,,,,,,,,0.752,,,,,,,,,,,,,,,,,,,,,,60fdf33fdfb2399145bb4df4,61036e491c694e0cea5f117b,2021-07-29_22h13.43.148,Simcolourproject_2stim_asymm_v5,2020.2.10,MacIntel,60,61025ae37ef11b136ea224fe,,,,,,,,,2672,73,32,1,0,0,response1disk,,6,10,-9,1,0,0,rectangle,10,-9,1,0,0,10,-9,1,0,0,0,75,75,95,1,,,,,,,,
,,,,,,,,,,,,,FF,,,,,,,,0.546,,,,,,,,,,,,,,,,,,,,,,60fdf33fdfb2399145bb4df4,61036e491c694e0cea5f117b,2021-07-29_22h13.43.148,Simcolourproject_2stim_asymm_v5,2020.2.10,MacIntel,60,61025ae37ef11b136ea224fe,,,,,,,,,1417,45,66,1,0,0,response1disk,,7,-2,4,1,0,0,rectangle,-2,4,1,0,0,-2,4,1,0,0,0,76,76,31,1,,,,,,,,
,,,,,,,,,,,,,FF,,,,,,,,0.593,,,,,,,,,,,,,,,,,,,,,,60fdf33fdfb2399145bb4df4,61036e491c694e0cea5f117b,2021-07-29_22h13.43.148,Simcolourproject_2stim_asymm_v5,2020.2.10,MacIntel,60,61025ae37ef11b136ea224fe,,,,,,,,,1334,32,85,1,0,0,response1disk,,7,-3,0,1,0,0,rectangle,-3,0,1,0,0,-3,0,1,0,0,0,77,77,75,1,,,,,,,,
,,,,,,,,,,,,,FF,,,,,,,,1.101,,,,,,,,,,,,,,,,,,,,,,60fdf33fdfb2399145bb4df4,61036e491c694e0cea5f117b,2021-07-29_22h13.43.148,Simcolourproject_2stim_asymm_v5,2020.2.10,MacIntel,60,61025ae37ef11b136ea224fe,,,,,,,,,4053,58,21,1,0,0,response1disk,,6,0,5,1,0,0,rectangle,0,5,1,0,0,0,5,1,0,0,0,78,78,6,1,,,,,,,,
,,,,,,,,,,,,,FF,,,,,,,,1.036,,,,,,,,,,,,,,,,,,,,,,60fdf33fdfb2399145bb4df4,61036e491c694e0cea5f117b,2021-07-29_22h13.43.148,Simcolourproject_2stim_asymm_v5,2020.2.10,MacIntel,60,61025ae37ef11b136ea224fe,,,,,,,,,3041,32,-64,1,0,0,response3disk,,4,-7,14,1,0,0,rectangle,-7,14,1,0,0,-7,14,1,0,0,0,79,79,107,1,,,,,,,,
,,,,,,,,,,,,,FF,,,,,,,,0.574,,,,,,,,,,,,,,,,,,,,,,60fdf33fdfb2399145bb4df4,61036e491c694e0cea5f117b,2021-07-29_22h13.43.148,Simcolourproject_2stim_asymm_v5,2020.2.10,MacIntel,60,61025ae37ef11b136ea224fe,,,,,,,,,1260,42,62,1,0,0,response1disk,,7,8,-2,1,0,0,rectangle,8,-2,1,0,0,8,-2,1,0,0,0,80,80,122,1,,,,,,,,
,,,,,,,,,,,,,FF,,,,,,,,0.621,,,,,,,,,,,,,,,,,,,,,,60fdf33fdfb2399145bb4df4,61036e491c694e0cea5f117b,2021-07-29_22h13.43.148,Simcolourproject_2stim_asymm_v5,2020.2.10,MacIntel,60,61025ae37ef11b136ea224fe,,,,,,,,,834,34,77,1,0,0,response1disk,,7,-7,6,1,0,0,rectangle,-7,6,1,0,0,-7,6,1,0,0,0,81,81,88,1,,,,,,,,
,,,,,,,,,,,,,FF,,,,,,,,0.562,,,,,,,,,,,,,,,,,,,,,,60fdf33fdfb2399145bb4df4,61036e491c694e0cea5f117b,2021-07-29_22h13.43.148,Simcolourproject_2stim_asymm_v5,2020.2.10,MacIntel,60,61025ae37ef11b136ea224fe,,,,,,,,,2573,37,60,1,0,0,response1disk,,7,7,-9,1,0,0,rectangle,7,-9,1,0,0,7,-9,1,0,0,0,82,82,118,1,,,,,,,,
,,,,,,,,,,,,,FF,,,,,,,,0.837,,,,,,,,,,,,,,,,,,,,,,60fdf33fdfb2399145bb4df4,61036e491c694e0cea5f117b,2021-07-29_22h13.43.148,Simcolourproject_2stim_asymm_v5,2020.2.10,MacIntel,60,61025ae37ef11b136ea224fe,,,,,,,,,3443,38,93,1,0,0,response1disk,,7,12,13,1,0,0,rectangle,12,13,1,0,0,12,13,1,0,0,0,83,83,153,1,,,,,,,,
,,,,,,,,,,,,,FF,,,,,,,,0.96,,,,,,,,,,,,,,,,,,,,,,60fdf33fdfb2399145bb4df4,61036e491c694e0cea5f117b,2021-07-29_22h13.43.148,Simcolourproject_2stim_asymm_v5,2020.2.10,MacIntel,60,61025ae37ef11b136ea224fe,,,,,,,,,4069,36,54,1,0,0,response1disk,,7,3,-6,1,0,0,rectangle,3,-6,1,0,0,3,-6,1,0,0,0,84,84,116,1,,,,,,,,
,,,,,,,,,,,,,FF,,,,,,,,0.507,,,,,,,,,,,,,,,,,,,,,,60fdf33fdfb2399145bb4df4,61036e491c694e0cea5f117b,2021-07-29_22h13.43.148,Simcolourproject_2stim_asymm_v5,2020.2.10,MacIntel,60,61025ae37ef11b136ea224fe,,,,,,,,,3612,39,78,1,0,0,response1disk,,7,6,4,1,0,0,rectangle,6,4,1,0,0,6,4,1,0,0,0,85,85,136,1,,,,,,,,
,,,,,,,,,,,,,FF,,,,,,,,1.536,,,,,,,,,,,,,,,,,,,,,,60fdf33fdfb2399145bb4df4,61036e491c694e0cea5f117b,2021-07-29_22h13.43.148,Simcolourproject_2stim_asymm_v5,2020.2.10,MacIntel,60,61025ae37ef11b136ea224fe,,,,,,,,,1383,68,-49,1,0,0,response3disk,,5,4,5,1,0,0,rectangle,4,5,1,0,0,4,5,1,0,0,0,86,86,60,1,,,,,,,,
,,,,,,,,,,,,,FF,,,,,,,,0.521,,,,,,,,,,,,,,,,,,,,,,60fdf33fdfb2399145bb4df4,61036e491c694e0cea5f117b,2021-07-29_22h13.43.148,Simcolourproject_2stim_asymm_v5,2020.2.10,MacIntel,60,61025ae37ef11b136ea224fe,,,,,,,,,2678,33,71,1,0,0,response1disk,,7,7,-4,1,0,0,rectangle,7,-4,1,0,0,7,-4,1,0,0,0,87,87,124,1,,,,,,,,
,,,,,,,,,,,,,FF,,,,,,,,0.963,,,,,,,,,,,,,,,,,,,,,,60fdf33fdfb2399145bb4df4,61036e491c694e0cea5f117b,2021-07-29_22h13.43.148,Simcolourproject_2stim_asymm_v5,2020.2.10,MacIntel,60,61025ae37ef11b136ea224fe,,,,,,,,,3383,-74,23,1,0,0,response7disk,,1,14,-8,1,0,0,rectangle,-19,72,1,0,0,-6,3,1,0,0,0,88,88,157,1,,response7disk_3,TRUE,0,0,"[243,188,276,124,90,90,10,300,0,319,89,173,150,273,217,274,172,216,91,97]",1.917,rectangle
,,,,,,,,,,,,,FF,,,,,,,,0.998,,,,,,,,,,,,,,,,,,,,,,60fdf33fdfb2399145bb4df4,61036e491c694e0cea5f117b,2021-07-29_22h13.43.148,Simcolourproject_2stim_asymm_v5,2020.2.10,MacIntel,60,61025ae37ef11b136ea224fe,,,,,,,,,4093,32,53,1,0,0,response1disk,,7,4,-1,1,0,0,rectangle,-35,88,1,0,0,-13,-8,1,0,0,0,89,89,34,1,,response7disk_3,TRUE,0,0,"[243,188,276,124,90,90,10,300,0,319,89,173,150,273,217,274,172,216,91,97]",1.762,rectangle
,,,,,,,,,,,,,FF,,,,,,,,0.701,,,,,,,,,,,,,,,,,,,,,,60fdf33fdfb2399145bb4df4,61036e491c694e0cea5f117b,2021-07-29_22h13.43.148,Simcolourproject_2stim_asymm_v5,2020.2.10,MacIntel,60,61025ae37ef11b136ea224fe,,,,,,,,,2312,36,72,1,0,0,response1disk,,7,3,12,1,0,0,rectangle,37,65,1,0,0,-7,5,1,0,0,0,90,90,17,1,,response1disk_3,TRUE,7,7,"[243,188,276,124,90,90,10,300,0,319,89,173,150,273,217,274,172,216,91,97]",1.88,rectangle
,,,,,,,,,,,,,FF,,,,,,,,1.016,,,,,,,,,,,,,,,,,,,,,,60fdf33fdfb2399145bb4df4,61036e491c694e0cea5f117b,2021-07-29_22h13.43.148,Simcolourproject_2stim_asymm_v5,2020.2.10,MacIntel,60,61025ae37ef11b136ea224fe,,,,,,,,,4219,77,34,1,0,0,response1disk,,6,7,4,1,0,0,rectangle,7,4,1,0,0,7,4,1,0,0,0,91,91,86,1,,,,,,,,
,,,,,,,,,,,,,FF,,,,,,,,0.715,,,,,,,,,,,,,,,,,,,,,,60fdf33fdfb2399145bb4df4,61036e491c694e0cea5f117b,2021-07-29_22h13.43.148,Simcolourproject_2stim_asymm_v5,2020.2.10,MacIntel,60,61025ae37ef11b136ea224fe,,,,,,,,,2866,31,73,1,0,0,response1disk,,7,-4,3,1,0,0,rectangle,-4,3,1,0,0,-4,3,1,0,0,0,92,92,48,1,,,,,,,,
,,,,,,,,,,,,,FF,,,,,,,,1.063,,,,,,,,,,,,,,,,,,,,,,60fdf33fdfb2399145bb4df4,61036e491c694e0cea5f117b,2021-07-29_22h13.43.148,Simcolourproject_2stim_asymm_v5,2020.2.10,MacIntel,60,61025ae37ef11b136ea224fe,,,,,,,,,4311,38,67,1,0,0,response1disk,,7,0,-4,1,0,0,rectangle,0,-4,1,0,0,0,-4,1,0,0,0,93,93,149,1,,,,,,,,
,,,,,,,,,,,,,FF,,,,,,,,0.666,,,,,,,,,,,,,,,,,,,,,,60fdf33fdfb2399145bb4df4,61036e491c694e0cea5f117b,2021-07-29_22h13.43.148,Simcolourproject_2stim_asymm_v5,2020.2.10,MacIntel,60,61025ae37ef11b136ea224fe,,,,,,,,,683,50,75,1,0,0,response1disk,,7,7,-2,1,0,0,rectangle,7,-2,1,0,0,7,-2,1,0,0,0,94,94,7,1,,,,,,,,
,,,,,,,,,,,,,FF,,,,,,,,0.991,,,,,,,,,,,,,,,,,,,,,,60fdf33fdfb2399145bb4df4,61036e491c694e0cea5f117b,2021-07-29_22h13.43.148,Simcolourproject_2stim_asymm_v5,2020.2.10,MacIntel,60,61025ae37ef11b136ea224fe,,,,,,,,,238,30,92,1,0,0,response1disk,,7,-7,0,1,0,0,rectangle,-7,0,1,0,0,-7,0,1,0,0,0,95,95,102,1,,,,,,,,
,,,,,,,,,,,,,FF,,,,,,,,0.593,,,,,,,,,,,,,,,,,,,,,,60fdf33fdfb2399145bb4df4,61036e491c694e0cea5f117b,2021-07-29_22h13.43.148,Simcolourproject_2stim_asymm_v5,2020.2.10,MacIntel,60,61025ae37ef11b136ea224fe,,,,,,,,,25,37,64,1,0,0,response1disk,,7,9,-2,1,0,0,rectangle,27,-79,1,0,0,-9,9,1,0,0,0,96,96,37,1,,response3disk_3,TRUE,4,4,"[243,188,276,124,90,90,10,300,0,319,89,173,150,273,217,274,172,216,91,97]",1.653,rectangle
,,,,,,,,,,,,,FF,,,,,,,,1.185,,,,,,,,,,,,,,,,,,,,,,60fdf33fdfb2399145bb4df4,61036e491c694e0cea5f117b,2021-07-29_22h13.43.148,Simcolourproject_2stim_asymm_v5,2020.2.10,MacIntel,60,61025ae37ef11b136ea224fe,,,,,,,,,2028,33,-62,1,0,0,response3disk,,4,-9,-7,1,0,0,rectangle,-9,-7,1,0,0,-9,-7,1,0,0,0,97,97,97,1,,,,,,,,
,,,,,,,,,,,,,FF,,,,,,,,1.48,,,,,,,,,,,,,,,,,,,,,,60fdf33fdfb2399145bb4df4,61036e491c694e0cea5f117b,2021-07-29_22h13.43.148,Simcolourproject_2stim_asymm_v5,2020.2.10,MacIntel,60,61025ae37ef11b136ea224fe,,,,,,,,,1966,-30,-83,1,0,0,response5disk,,3,3,-10,1,0,0,rectangle,3,-10,1,0,0,3,-10,1,0,0,0,98,98,159,1,,,,,,,,
,,,,,,,,,,,,,FF,,,,,,,,0.912,,,,,,,,,,,,,,,,,,,,,,60fdf33fdfb2399145bb4df4,61036e491c694e0cea5f117b,2021-07-29_22h13.43.148,Simcolourproject_2stim_asymm_v5,2020.2.10,MacIntel,60,61025ae37ef11b136ea224fe,,,,,,,,,4140,-38,80,1,0,0,response7disk,,0,-4,-4,1,0,0,rectangle,-4,-4,1,0,0,-4,-4,1,0,0,0,99,99,38,1,,,,,,,,
,,,,,,,,,,,,,FF,,,,,,,,0.649,,,,,,,,,,,,,,,,,,,,,,60fdf33fdfb2399145bb4df4,61036e491c694e0cea5f117b,2021-07-29_22h13.43.148,Simcolourproject_2stim_asymm_v5,2020.2.10,MacIntel,60,61025ae37ef11b136ea224fe,,,,,,,,,3605,37,71,1,0,0,response1disk,,7,2,-8,1,0,0,rectangle,2,-8,1,0,0,2,-8,1,0,0,0,100,100,47,1,,,,,,,,
,,,,,,,,,,,,,FF,,,,,,,,0.683,,,,,,,,,,,,,,,,,,,,,,60fdf33fdfb2399145bb4df4,61036e491c694e0cea5f117b,2021-07-29_22h13.43.148,Simcolourproject_2stim_asymm_v5,2020.2.10,MacIntel,60,61025ae37ef11b136ea224fe,,,,,,,,,2079,45,76,1,0,0,response1disk,,7,-8,5,1,0,0,rectangle,-8,5,1,0,0,-8,5,1,0,0,0,101,101,87,1,,,,,,,,
,,,,,,,,,,,,,FF,,,,,,,,0.584,,,,,,,,,,,,,,,,,,,,,,60fdf33fdfb2399145bb4df4,61036e491c694e0cea5f117b,2021-07-29_22h13.43.148,Simcolourproject_2stim_asymm_v5,2020.2.10,MacIntel,60,61025ae37ef11b136ea224fe,,,,,,,,,850,31,70,1,0,0,response1disk,,7,-3,4,1,0,0,rectangle,-3,4,1,0,0,-3,4,1,0,0,0,102,102,151,1,,,,,,,,
,,,,,,,,,,,,,FF,,,,,,,,0.689,,,,,,,,,,,,,,,,,,,,,,60fdf33fdfb2399145bb4df4,61036e491c694e0cea5f117b,2021-07-29_22h13.43.148,Simcolourproject_2stim_asymm_v5,2020.2.10,MacIntel,60,61025ae37ef11b136ea224fe,,,,,,,,,3650,37,106,1,0,0,response1disk,,7,-1,-11,1,0,0,rectangle,-1,-11,1,0,0,-1,-11,1,0,0,0,103,103,41,1,,,,,,,,
,,,,,,,,,,,,,FF,,,,,,,,1.306,,,,,,,,,,,,,,,,,,,,,,60fdf33fdfb2399145bb4df4,61036e491c694e0cea5f117b,2021-07-29_22h13.43.148,Simcolourproject_2stim_asymm_v5,2020.2.10,MacIntel,60,61025ae37ef11b136ea224fe,,,,,,,,,4339,56,-31,1,0,0,response3disk,,5,10,-2,1,0,0,rectangle,10,-2,1,0,0,10,-2,1,0,0,0,104,104,123,1,,,,,,,,
,,,,,,,,,,,,,FF,,,,,,,,1.172,,,,,,,,,,,,,,,,,,,,,,60fdf33fdfb2399145bb4df4,61036e491c694e0cea5f117b,2021-07-29_22h13.43.148,Simcolourproject_2stim_asymm_v5,2020.2.10,MacIntel,60,61025ae37ef11b136ea224fe,,,,,,,,,873,59,55,1,0,0,response1disk,,6,8,5,1,0,0,rectangle,8,5,1,0,0,8,5,1,0,0,0,105,105,14,1,,,,,,,,
,,,,,,,,,,,,,FF,,,,,,,,0.554,,,,,,,,,,,,,,,,,,,,,,60fdf33fdfb2399145bb4df4,61036e491c694e0cea5f117b,2021-07-29_22h13.43.148,Simcolourproject_2stim_asymm_v5,2020.2.10,MacIntel,60,61025ae37ef11b136ea224fe,,,,,,,,,1574,30,78,1,0,0,response1disk,,7,8,-10,1,0,0,rectangle,8,-10,1,0,0,8,-10,1,0,0,0,106,106,46,1,,,,,,,,
,,,,,,,,,,,,,FF,,,,,,,,0.713,,,,,,,,,,,,,,,,,,,,,,60fdf33fdfb2399145bb4df4,61036e491c694e0cea5f117b,2021-07-29_22h13.43.148,Simcolourproject_2stim_asymm_v5,2020.2.10,MacIntel,60,61025ae37ef11b136ea224fe,,,,,,,,,4195,29,69,1,0,0,response1disk,,7,-5,1,1,0,0,rectangle,-5,1,1,0,0,-5,1,1,0,0,0,107,107,143,1,,,,,,,,
,,,,,,,,,,,,,FF,,,,,,,,1.578,,,,,,,,,,,,,,,,,,,,,,60fdf33fdfb2399145bb4df4,61036e491c694e0cea5f117b,2021-07-29_22h13.43.148,Simcolourproject_2stim_asymm_v5,2020.2.10,MacIntel,60,61025ae37ef11b136ea224fe,,,,,,,,,3553,72,-46,1,0,0,response3disk,,5,-6,0,1,0,0,rectangle,-6,0,1,0,0,-6,0,1,0,0,0,108,108,62,1,,,,,,,,
,,,,,,,,,,,,,FF,,,,,,,,0.78,,,,,,,,,,,,,,,,,,,,,,60fdf33fdfb2399145bb4df4,61036e491c694e0cea5f117b,2021-07-29_22h13.43.148,Simcolourproject_2stim_asymm_v5,2020.2.10,MacIntel,60,61025ae37ef11b136ea224fe,,,,,,,,,2618,23,55,1,0,0,response1disk,,7,-12,3,1,0,0,rectangle,-12,3,1,0,0,-12,3,1,0,0,0,109,109,92,1,,,,,,,,
,,,,,,,,,,,,,FF,,,,,,,,2.067,,,,,,,,,,,,,,,,,,,,,,60fdf33fdfb2399145bb4df4,61036e491c694e0cea5f117b,2021-07-29_22h13.43.148,Simcolourproject_2stim_asymm_v5,2020.2.10,MacIntel,60,61025ae37ef11b136ea224fe,,,,,,,,,3703,34,-85,1,0,0,response3disk,,4,-4,0,1,0,0,rectangle,-4,0,1,0,0,-4,0,1,0,0,0,110,110,89,1,,,,,,,,
,,,,,,,,,,,,,FF,,,,,,,,0.607,,,,,,,,,,,,,,,,,,,,,,60fdf33fdfb2399145bb4df4,61036e491c694e0cea5f117b,2021-07-29_22h13.43.148,Simcolourproject_2stim_asymm_v5,2020.2.10,MacIntel,60,61025ae37ef11b136ea224fe,,,,,,,,,387,32,70,1,0,0,response1disk,,7,-10,1,1,0,0,rectangle,-10,1,1,0,0,-10,1,1,0,0,0,111,111,150,1,,,,,,,,
,,,,,,,,,,,,,FF,,,,,,,,0.657,,,,,,,,,,,,,,,,,,,,,,60fdf33fdfb2399145bb4df4,61036e491c694e0cea5f117b,2021-07-29_22h13.43.148,Simcolourproject_2stim_asymm_v5,2020.2.10,MacIntel,60,61025ae37ef11b136ea224fe,,,,,,,,,3412,28,69,1,0,0,response1disk,,7,6,-15,1,0,0,rectangle,6,-15,1,0,0,6,-15,1,0,0,0,112,112,113,1,,,,,,,,
,,,,,,,,,,,,,FF,,,,,,,,0.606,,,,,,,,,,,,,,,,,,,,,,60fdf33fdfb2399145bb4df4,61036e491c694e0cea5f117b,2021-07-29_22h13.43.148,Simcolourproject_2stim_asymm_v5,2020.2.10,MacIntel,60,61025ae37ef11b136ea224fe,,,,,,,,,1155,45,64,1,0,0,response1disk,,7,11,-4,1,0,0,rectangle,11,-4,1,0,0,11,-4,1,0,0,0,113,113,120,1,,,,,,,,
,,,,,,,,,,,,,FF,,,,,,,,1.163,,,,,,,,,,,,,,,,,,,,,,60fdf33fdfb2399145bb4df4,61036e491c694e0cea5f117b,2021-07-29_22h13.43.148,Simcolourproject_2stim_asymm_v5,2020.2.10,MacIntel,60,61025ae37ef11b136ea224fe,,,,,,,,,3377,40,-68,1,0,0,response3disk,,4,-4,9,1,0,0,rectangle,-4,9,1,0,0,-4,9,1,0,0,0,114,114,138,1,,,,,,,,
,,,,,,,,,,,,,FF,,,,,,,,0.598,,,,,,,,,,,,,,,,,,,,,,60fdf33fdfb2399145bb4df4,61036e491c694e0cea5f117b,2021-07-29_22h13.43.148,Simcolourproject_2stim_asymm_v5,2020.2.10,MacIntel,60,61025ae37ef11b136ea224fe,,,,,,,,,3087,35,58,1,0,0,response1disk,,7,10,0,1,0,0,rectangle,10,0,1,0,0,10,0,1,0,0,0,115,115,111,1,,,,,,,,
,,,,,,,,,,,,,FF,,,,,,,,0.716,,,,,,,,,,,,,,,,,,,,,,60fdf33fdfb2399145bb4df4,61036e491c694e0cea5f117b,2021-07-29_22h13.43.148,Simcolourproject_2stim_asymm_v5,2020.2.10,MacIntel,60,61025ae37ef11b136ea224fe,,,,,,,,,600,35,72,1,0,0,response1disk,,7,-1,4,1,0,0,rectangle,-1,4,1,0,0,-1,4,1,0,0,0,116,116,109,1,,,,,,,,
,,,,,,,,,,,,,FF,,,,,,,,0.573,,,,,,,,,,,,,,,,,,,,,,60fdf33fdfb2399145bb4df4,61036e491c694e0cea5f117b,2021-07-29_22h13.43.148,Simcolourproject_2stim_asymm_v5,2020.2.10,MacIntel,60,61025ae37ef11b136ea224fe,,,,,,,,,1805,42,87,1,0,0,response1disk,,7,-7,-2,1,0,0,rectangle,-7,-2,1,0,0,-7,-2,1,0,0,0,117,117,66,1,,,,,,,,
,,,,,,,,,,,,,FF,,,,,,,,1.034,,,,,,,,,,,,,,,,,,,,,,60fdf33fdfb2399145bb4df4,61036e491c694e0cea5f117b,2021-07-29_22h13.43.148,Simcolourproject_2stim_asymm_v5,2020.2.10,MacIntel,60,61025ae37ef11b136ea224fe,,,,,,,,,3187,79,31,1,0,0,response1disk,,6,19,-12,1,0,0,rectangle,19,-12,1,0,0,19,-12,1,0,0,0,118,118,36,1,,,,,,,,
,,,,,,,,,,,,,FF,,,,,,,,0.949,,,,,,,,,,,,,,,,,,,,,,60fdf33fdfb2399145bb4df4,61036e491c694e0cea5f117b,2021-07-29_22h13.43.148,Simcolourproject_2stim_asymm_v5,2020.2.10,MacIntel,60,61025ae37ef11b136ea224fe,,,,,,,,,1200,64,44,1,0,0,response1disk,,6,-1,-2,1,0,0,rectangle,-1,-2,1,0,0,-1,-2,1,0,0,0,119,119,82,1,,,,,,,,
,,,,,,,,,,,,,FF,,,,,,,,1.076,,,,,,,,,,,,,,,,,,,,,,60fdf33fdfb2399145bb4df4,61036e491c694e0cea5f117b,2021-07-29_22h13.43.148,Simcolourproject_2stim_asymm_v5,2020.2.10,MacIntel,60,61025ae37ef11b136ea224fe,,,,,,,,,82,63,45,1,0,0,response1disk,,6,0,-6,1,0,0,rectangle,0,-6,1,0,0,0,-6,1,0,0,0,120,120,94,1,,,,,,,,
,,,,,,,,,,,,,FF,,,,,,,,0.682,,,,,,,,,,,,,,,,,,,,,,60fdf33fdfb2399145bb4df4,61036e491c694e0cea5f117b,2021-07-29_22h13.43.148,Simcolourproject_2stim_asymm_v5,2020.2.10,MacIntel,60,61025ae37ef11b136ea224fe,,,,,,,,,1733,37,54,1,0,0,response1disk,,7,11,-6,1,0,0,rectangle,11,-6,1,0,0,11,-6,1,0,0,0,121,121,61,1,,,,,,,,
,,,,,,,,,,,,,FF,,,,,,,,0.613,,,,,,,,,,,,,,,,,,,,,,60fdf33fdfb2399145bb4df4,61036e491c694e0cea5f117b,2021-07-29_22h13.43.148,Simcolourproject_2stim_asymm_v5,2020.2.10,MacIntel,60,61025ae37ef11b136ea224fe,,,,,,,,,3770,36,70,1,0,0,response1disk,,7,3,8,1,0,0,rectangle,3,8,1,0,0,3,8,1,0,0,0,122,122,93,1,,,,,,,,
,,,,,,,,,,,,,FF,,,,,,,,0.602,,,,,,,,,,,,,,,,,,,,,,60fdf33fdfb2399145bb4df4,61036e491c694e0cea5f117b,2021-07-29_22h13.43.148,Simcolourproject_2stim_asymm_v5,2020.2.10,MacIntel,60,61025ae37ef11b136ea224fe,,,,,,,,,1065,65,50,1,0,0,response1disk,,6,5,3,1,0,0,rectangle,97,27,1,0,0,18,0,1,0,0,0,123,123,0,1,,response1disk_3,TRUE,6,6,"[243,188,276,124,90,90,10,300,0,319,89,173,150,273,217,274,172,216,91,97]",1.644,rectangle
,,,,,,,,,,,,,FF,,,,,,,,0.993,,,,,,,,,,,,,,,,,,,,,,60fdf33fdfb2399145bb4df4,61036e491c694e0cea5f117b,2021-07-29_22h13.43.148,Simcolourproject_2stim_asymm_v5,2020.2.10,MacIntel,60,61025ae37ef11b136ea224fe,,,,,,,,,4235,-35,69,1,0,0,response7disk,,0,2,-8,1,0,0,rectangle,2,-8,1,0,0,2,-8,1,0,0,0,124,124,106,1,,,,,,,,
,,,,,,,,,,,,,FF,,,,,,,,0.622,,,,,,,,,,,,,,,,,,,,,,60fdf33fdfb2399145bb4df4,61036e491c694e0cea5f117b,2021-07-29_22h13.43.148,Simcolourproject_2stim_asymm_v5,2020.2.10,MacIntel,60,61025ae37ef11b136ea224fe,,,,,,,,,332,46,76,1,0,0,response1disk,,7,8,-3,1,0,0,rectangle,8,-3,1,0,0,8,-3,1,0,0,0,125,125,28,1,,,,,,,,
,,,,,,,,,,,,,FF,,,,,,,,1.585,,,,,,,,,,,,,,,,,,,,,,60fdf33fdfb2399145bb4df4,61036e491c694e0cea5f117b,2021-07-29_22h13.43.148,Simcolourproject_2stim_asymm_v5,2020.2.10,MacIntel,60,61025ae37ef11b136ea224fe,,,,,,,,,3911,87,-31,1,0,0,response3disk,,5,4,-1,1,0,0,rectangle,4,-1,1,0,0,4,-1,1,0,0,0,126,126,130,1,,,,,,,,
,,,,,,,,,,,,,FF,,,,,,,,0.604,,,,,,,,,,,,,,,,,,,,,,60fdf33fdfb2399145bb4df4,61036e491c694e0cea5f117b,2021-07-29_22h13.43.148,Simcolourproject_2stim_asymm_v5,2020.2.10,MacIntel,60,61025ae37ef11b136ea224fe,,,,,,,,,1801,31,67,1,0,0,response1disk,,7,-1,8,1,0,0,rectangle,-1,8,1,0,0,-1,8,1,0,0,0,127,127,53,1,,,,,,,,
,,,,,,,,,,,,,FF,,,,,,,,0.535,,,,,,,,,,,,,,,,,,,,,,60fdf33fdfb2399145bb4df4,61036e491c694e0cea5f117b,2021-07-29_22h13.43.148,Simcolourproject_2stim_asymm_v5,2020.2.10,MacIntel,60,61025ae37ef11b136ea224fe,,,,,,,,,2745,43,86,1,0,0,response1disk,,7,2,9,1,0,0,rectangle,2,9,1,0,0,2,9,1,0,0,0,128,128,103,1,,,,,,,,
,,,,,,,,,,,,,FF,,,,,,,,0.59,,,,,,,,,,,,,,,,,,,,,,60fdf33fdfb2399145bb4df4,61036e491c694e0cea5f117b,2021-07-29_22h13.43.148,Simcolourproject_2stim_asymm_v5,2020.2.10,MacIntel,60,61025ae37ef11b136ea224fe,,,,,,,,,4057,31,87,1,0,0,response1disk,,7,-2,4,1,0,0,rectangle,-2,4,1,0,0,-2,4,1,0,0,0,129,129,23,1,,,,,,,,
,,,,,,,,,,,,,FF,,,,,,,,0.594,,,,,,,,,,,,,,,,,,,,,,60fdf33fdfb2399145bb4df4,61036e491c694e0cea5f117b,2021-07-29_22h13.43.148,Simcolourproject_2stim_asymm_v5,2020.2.10,MacIntel,60,61025ae37ef11b136ea224fe,,,,,,,,,826,35,98,1,0,0,response1disk,,7,1,9,1,0,0,rectangle,1,9,1,0,0,1,9,1,0,0,0,130,130,105,1,,,,,,,,
,,,,,,,,,,,,,FF,,,,,,,,0.556,,,,,,,,,,,,,,,,,,,,,,60fdf33fdfb2399145bb4df4,61036e491c694e0cea5f117b,2021-07-29_22h13.43.148,Simcolourproject_2stim_asymm_v5,2020.2.10,MacIntel,60,61025ae37ef11b136ea224fe,,,,,,,,,208,44,57,1,0,0,response1disk,,7,16,-11,1,0,0,rectangle,16,-11,1,0,0,16,-11,1,0,0,0,131,131,81,1,,,,,,,,
,,,,,,,,,,,,,FF,,,,,,,,0.495,,,,,,,,,,,,,,,,,,,,,,60fdf33fdfb2399145bb4df4,61036e491c694e0cea5f117b,2021-07-29_22h13.43.148,Simcolourproject_2stim_asymm_v5,2020.2.10,MacIntel,60,61025ae37ef11b136ea224fe,,,,,,,,,3645,45,99,1,0,0,response1disk,,7,-7,-6,1,0,0,rectangle,-7,-6,1,0,0,-7,-6,1,0,0,0,132,132,101,1,,,,,,,,
,,,,,,,,,,,,,FF,,,,,,,,1.046,,,,,,,,,,,,,,,,,,,,,,60fdf33fdfb2399145bb4df4,61036e491c694e0cea5f117b,2021-07-29_22h13.43.148,Simcolourproject_2stim_asymm_v5,2020.2.10,MacIntel,60,61025ae37ef11b136ea224fe,,,,,,,,,2834,87,33,1,0,0,response1disk,,6,-5,-5,1,0,0,rectangle,-5,-5,1,0,0,-5,-5,1,0,0,0,133,133,80,1,,,,,,,,
,,,,,,,,,,,,,FF,,,,,,,,0.583,,,,,,,,,,,,,,,,,,,,,,60fdf33fdfb2399145bb4df4,61036e491c694e0cea5f117b,2021-07-29_22h13.43.148,Simcolourproject_2stim_asymm_v5,2020.2.10,MacIntel,60,61025ae37ef11b136ea224fe,,,,,,,,,1176,21,55,1,0,0,response1disk,,7,1,7,1,0,0,rectangle,1,7,1,0,0,1,7,1,0,0,0,134,134,1,1,,,,,,,,
,,,,,,,,,,,,,FF,,,,,,,,0.686,,,,,,,,,,,,,,,,,,,,,,60fdf33fdfb2399145bb4df4,61036e491c694e0cea5f117b,2021-07-29_22h13.43.148,Simcolourproject_2stim_asymm_v5,2020.2.10,MacIntel,60,61025ae37ef11b136ea224fe,,,,,,,,,429,31,78,1,0,0,response1disk,,7,-13,-7,1,0,0,rectangle,-13,-7,1,0,0,-13,-7,1,0,0,0,135,135,51,1,,,,,,,,
,,,,,,,,,,,,,FF,,,,,,,,0.596,,,,,,,,,,,,,,,,,,,,,,60fdf33fdfb2399145bb4df4,61036e491c694e0cea5f117b,2021-07-29_22h13.43.148,Simcolourproject_2stim_asymm_v5,2020.2.10,MacIntel,60,61025ae37ef11b136ea224fe,,,,,,,,,511,27,55,1,0,0,response1disk,,7,-1,-3,1,0,0,rectangle,-1,-3,1,0,0,-1,-3,1,0,0,0,136,136,43,1,,,,,,,,
,,,,,,,,,,,,,FF,,,,,,,,0.538,,,,,,,,,,,,,,,,,,,,,,60fdf33fdfb2399145bb4df4,61036e491c694e0cea5f117b,2021-07-29_22h13.43.148,Simcolourproject_2stim_asymm_v5,2020.2.10,MacIntel,60,61025ae37ef11b136ea224fe,,,,,,,,,3267,32,92,1,0,0,response1disk,,7,-8,4,1,0,0,rectangle,-8,4,1,0,0,-8,4,1,0,0,0,137,137,131,1,,,,,,,,
,,,,,,,,,,,,,FF,,,,,,,,0.646,,,,,,,,,,,,,,,,,,,,,,60fdf33fdfb2399145bb4df4,61036e491c694e0cea5f117b,2021-07-29_22h13.43.148,Simcolourproject_2stim_asymm_v5,2020.2.10,MacIntel,60,61025ae37ef11b136ea224fe,,,,,,,,,2479,45,70,1,0,0,response1disk,,7,4,4,1,0,0,rectangle,4,4,1,0,0,4,4,1,0,0,0,138,138,68,1,,,,,,,,
,,,,,,,,,,,,,FF,,,,,,,,0.819,,,,,,,,,,,,,,,,,,,,,,60fdf33fdfb2399145bb4df4,61036e491c694e0cea5f117b,2021-07-29_22h13.43.148,Simcolourproject_2stim_asymm_v5,2020.2.10,MacIntel,60,61025ae37ef11b136ea224fe,,,,,,,,,638,88,45,1,0,0,response1disk,,6,6,6,1,0,0,rectangle,6,6,1,0,0,6,6,1,0,0,0,139,139,142,1,,,,,,,,
,,,,,,,,,,,,,FF,,,,,,,,0.533,,,,,,,,,,,,,,,,,,,,,,60fdf33fdfb2399145bb4df4,61036e491c694e0cea5f117b,2021-07-29_22h13.43.148,Simcolourproject_2stim_asymm_v5,2020.2.10,MacIntel,60,61025ae37ef11b136ea224fe,,,,,,,,,1924,49,69,1,0,0,response1disk,,7,10,14,1,0,0,rectangle,10,14,1,0,0,10,14,1,0,0,0,140,140,99,1,,,,,,,,
,,,,,,,,,,,,,FF,,,,,,,,0.537,,,,,,,,,,,,,,,,,,,,,,60fdf33fdfb2399145bb4df4,61036e491c694e0cea5f117b,2021-07-29_22h13.43.148,Simcolourproject_2stim_asymm_v5,2020.2.10,MacIntel,60,61025ae37ef11b136ea224fe,,,,,,,,,4135,36,74,1,0,0,response1disk,,7,5,1,1,0,0,rectangle,5,1,1,0,0,5,1,1,0,0,0,141,141,141,1,,,,,,,,
,,,,,,,,,,,,,FF,,,,,,,,0.524,,,,,,,,,,,,,,,,,,,,,,60fdf33fdfb2399145bb4df4,61036e491c694e0cea5f117b,2021-07-29_22h13.43.148,Simcolourproject_2stim_asymm_v5,2020.2.10,MacIntel,60,61025ae37ef11b136ea224fe,,,,,,,,,2309,49,75,1,0,0,response1disk,,7,7,9,1,0,0,rectangle,7,9,1,0,0,7,9,1,0,0,0,142,142,16,1,,,,,,,,
,,,,,,,,,,,,,FF,,,,,,,,0.574,,,,,,,,,,,,,,,,,,,,,,60fdf33fdfb2399145bb4df4,61036e491c694e0cea5f117b,2021-07-29_22h13.43.148,Simcolourproject_2stim_asymm_v5,2020.2.10,MacIntel,60,61025ae37ef11b136ea224fe,,,,,,,,,447,37,84,1,0,0,response1disk,,7,10,8,1,0,0,rectangle,10,8,1,0,0,10,8,1,0,0,0,143,143,85,1,,,,,,,,
,,,,,,,,,,,,,FF,,,,,,,,1.322,,,,,,,,,,,,,,,,,,,,,,60fdf33fdfb2399145bb4df4,61036e491c694e0cea5f117b,2021-07-29_22h13.43.148,Simcolourproject_2stim_asymm_v5,2020.2.10,MacIntel,60,61025ae37ef11b136ea224fe,,,,,,,,,2544,36,79,1,0,0,response1disk,,7,2,-5,1,0,0,rectangle,2,-5,1,0,0,2,-5,1,0,0,0,144,144,49,1,,,,,,,,
,,,,,,,,,,,,,FF,,,,,,,,0.505,,,,,,,,,,,,,,,,,,,,,,60fdf33fdfb2399145bb4df4,61036e491c694e0cea5f117b,2021-07-29_22h13.43.148,Simcolourproject_2stim_asymm_v5,2020.2.10,MacIntel,60,61025ae37ef11b136ea224fe,,,,,,,,,1922,32,92,1,0,0,response1disk,,7,4,5,1,0,0,rectangle,4,5,1,0,0,4,5,1,0,0,0,145,145,67,1,,,,,,,,
,,,,,,,,,,,,,FF,,,,,,,,1.825,,,,,,,,,,,,,,,,,,,,,,60fdf33fdfb2399145bb4df4,61036e491c694e0cea5f117b,2021-07-29_22h13.43.148,Simcolourproject_2stim_asymm_v5,2020.2.10,MacIntel,60,61025ae37ef11b136ea224fe,,,,,,,,,4211,32,79,1,0,0,response1disk,,7,7,-9,1,0,0,rectangle,7,-9,1,0,0,7,-9,1,0,0,0,146,146,10,1,,,,,,,,
,,,,,,,,,,,,,FF,,,,,,,,0.818,,,,,,,,,,,,,,,,,,,,,,60fdf33fdfb2399145bb4df4,61036e491c694e0cea5f117b,2021-07-29_22h13.43.148,Simcolourproject_2stim_asymm_v5,2020.2.10,MacIntel,60,61025ae37ef11b136ea224fe,,,,,,,,,626,26,65,1,0,0,response1disk,,7,0,0,1,0,0,rectangle,0,0,1,0,0,0,0,1,0,0,0,147,147,133,1,,,,,,,,
,,,,,,,,,,,,,FF,,,,,,,,0.589,,,,,,,,,,,,,,,,,,,,,,60fdf33fdfb2399145bb4df4,61036e491c694e0cea5f117b,2021-07-29_22h13.43.148,Simcolourproject_2stim_asymm_v5,2020.2.10,MacIntel,60,61025ae37ef11b136ea224fe,,,,,,,,,1355,36,95,1,0,0,response1disk,,7,3,9,1,0,0,rectangle,3,9,1,0,0,3,9,1,0,0,0,148,148,129,1,,,,,,,,
,,,,,,,,,,,,,FF,,,,,,,,1.502,,,,,,,,,,,,,,,,,,,,,,60fdf33fdfb2399145bb4df4,61036e491c694e0cea5f117b,2021-07-29_22h13.43.148,Simcolourproject_2stim_asymm_v5,2020.2.10,MacIntel,60,61025ae37ef11b136ea224fe,,,,,,,,,1961,-77,-36,1,0,0,response5disk,,2,2,-11,1,0,0,rectangle,-35,-90,1,0,0,-5,0,1,0,0,0,149,149,146,1,,response5disk_3,TRUE,3,3,"[243,188,276,124,90,90,10,300,0,319,89,173,150,273,217,274,172,216,91,97]",1.754,rectangle
,,,,,,,,,,,,,FF,,,,,,,,1.539,,,,,,,,,,,,,,,,,,,,,,60fdf33fdfb2399145bb4df4,61036e491c694e0cea5f117b,2021-07-29_22h13.43.148,Simcolourproject_2stim_asymm_v5,2020.2.10,MacIntel,60,61025ae37ef11b136ea224fe,,,,,,,,,1432,73,48,1,0,0,response1disk,,6,11,-8,1,0,0,rectangle,11,-8,1,0,0,11,-8,1,0,0,0,150,150,108,1,,,,,,,,
,,,,,,,,,,,,,FF,,,,,,,,0.681,,,,,,,,,,,,,,,,,,,,,,60fdf33fdfb2399145bb4df4,61036e491c694e0cea5f117b,2021-07-29_22h13.43.148,Simcolourproject_2stim_asymm_v5,2020.2.10,MacIntel,60,61025ae37ef11b136ea224fe,,,,,,,,,257,48,63,1,0,0,response1disk,,7,-3,-10,1,0,0,rectangle,-3,-10,1,0,0,-3,-10,1,0,0,0,151,151,21,1,,,,,,,,
,,,,,,,,,,,,,FF,,,,,,,,0.757,,,,,,,,,,,,,,,,,,,,,,60fdf33fdfb2399145bb4df4,61036e491c694e0cea5f117b,2021-07-29_22h13.43.148,Simcolourproject_2stim_asymm_v5,2020.2.10,MacIntel,60,61025ae37ef11b136ea224fe,,,,,,,,,1166,61,48,1,0,0,response1disk,,6,-7,1,1,0,0,rectangle,-7,1,1,0,0,-7,1,1,0,0,0,152,152,76,1,,,,,,,,
,,,,,,,,,,,,,FF,,,,,,,,0.789,,,,,,,,,,,,,,,,,,,,,,60fdf33fdfb2399145bb4df4,61036e491c694e0cea5f117b,2021-07-29_22h13.43.148,Simcolourproject_2stim_asymm_v5,2020.2.10,MacIntel,60,61025ae37ef11b136ea224fe,,,,,,,,,2162,70,25,1,0,0,response1disk,,6,3,2,1,0,0,rectangle,3,2,1,0,0,3,2,1,0,0,0,153,153,135,1,,,,,,,,
,,,,,,,,,,,,,FF,,,,,,,,1.086,,,,,,,,,,,,,,,,,,,,,,60fdf33fdfb2399145bb4df4,61036e491c694e0cea5f117b,2021-07-29_22h13.43.148,Simcolourproject_2stim_asymm_v5,2020.2.10,MacIntel,60,61025ae37ef11b136ea224fe,,,,,,,,,4321,45,72,1,0,0,response1disk,,7,5,-9,1,0,0,rectangle,5,-9,1,0,0,5,-9,1,0,0,0,154,154,156,1,,,,,,,,
,,,,,,,,,,,,,FF,,,,,,,,0.579,,,,,,,,,,,,,,,,,,,,,,60fdf33fdfb2399145bb4df4,61036e491c694e0cea5f117b,2021-07-29_22h13.43.148,Simcolourproject_2stim_asymm_v5,2020.2.10,MacIntel,60,61025ae37ef11b136ea224fe,,,,,,,,,763,30,63,1,0,0,response1disk,,7,-3,0,1,0,0,rectangle,-3,0,1,0,0,-3,0,1,0,0,0,155,155,158,1,,,,,,,,
,,,,,,,,,,,,,FF,,,,,,,,0.794,,,,,,,,,,,,,,,,,,,,,,60fdf33fdfb2399145bb4df4,61036e491c694e0cea5f117b,2021-07-29_22h13.43.148,Simcolourproject_2stim_asymm_v5,2020.2.10,MacIntel,60,61025ae37ef11b136ea224fe,,,,,,,,,3065,73,42,1,0,0,response1disk,,6,5,3,1,0,0,rectangle,5,3,1,0,0,5,3,1,0,0,0,156,156,8,1,,,,,,,,
,,,,,,,,,,,,,FF,,,,,,,,0.568,,,,,,,,,,,,,,,,,,,,,,60fdf33fdfb2399145bb4df4,61036e491c694e0cea5f117b,2021-07-29_22h13.43.148,Simcolourproject_2stim_asymm_v5,2020.2.10,MacIntel,60,61025ae37ef11b136ea224fe,,,,,,,,,1882,40,71,1,0,0,response1disk,,7,7,-3,1,0,0,rectangle,7,-3,1,0,0,7,-3,1,0,0,0,157,157,117,1,,,,,,,,
,,,,,,,,,,,,,FF,,,,,,,,0.923,,,,,,,,,,,,,,,,,,,,,,60fdf33fdfb2399145bb4df4,61036e491c694e0cea5f117b,2021-07-29_22h13.43.148,Simcolourproject_2stim_asymm_v5,2020.2.10,MacIntel,60,61025ae37ef11b136ea224fe,,,,,,,,,2884,35,88,1,0,0,response1disk,,7,10,-3,1,0,0,rectangle,10,-3,1,0,0,10,-3,1,0,0,0,158,158,90,1,,,,,,,,
,,,,,,,,,,,,,FF,,,,,,,,0.591,,,,,,,,,,,,,,,,,,,,,,60fdf33fdfb2399145bb4df4,61036e491c694e0cea5f117b,2021-07-29_22h13.43.148,Simcolourproject_2stim_asymm_v5,2020.2.10,MacIntel,60,61025ae37ef11b136ea224fe,,,,,,,,,1867,20,87,1,0,0,response1disk,,7,-2,3,1,0,0,rectangle,-2,3,1,0,0,-2,3,1,0,0,0,159,159,15,1,,,,,,,,
,,,,,,,,,,,,,FF,,,,,,,,1.335,,,,,,,,,,,,,,,,,,,,,,60fdf33fdfb2399145bb4df4,61036e491c694e0cea5f117b,2021-07-29_22h13.43.148,Simcolourproject_2stim_asymm_v5,2020.2.10,MacIntel,60,61025ae37ef11b136ea224fe,,,,,,,,,1228,35,87,1,0,0,response1disk,,7,14,5,1,0,0,rectangle,14,5,1,0,0,14,5,1,0,0,1,0,160,3,1,,,,,,,,
,,,,,,,,,,,,,FF,,,,,,,,1.631,,,,,,,,,,,,,,,,,,,,,,60fdf33fdfb2399145bb4df4,61036e491c694e0cea5f117b,2021-07-29_22h13.43.148,Simcolourproject_2stim_asymm_v5,2020.2.10,MacIntel,60,61025ae37ef11b136ea224fe,,,,,,,,,1522,-76,-38,1,0,0,response5disk,,2,-9,-2,1,0,0,rectangle,-9,-2,1,0,0,-9,-2,1,0,0,1,1,161,71,1,,,,,,,,
,,,,,,,,,,,,,FF,,,,,,,,0.607,,,,,,,,,,,,,,,,,,,,,,60fdf33fdfb2399145bb4df4,61036e491c694e0cea5f117b,2021-07-29_22h13.43.148,Simcolourproject_2stim_asymm_v5,2020.2.10,MacIntel,60,61025ae37ef11b136ea224fe,,,,,,,,,1590,41,82,1,0,0,response1disk,,7,5,-8,1,0,0,rectangle,5,-8,1,0,0,5,-8,1,0,0,1,2,162,80,1,,,,,,,,
,,,,,,,,,,,,,FF,,,,,,,,0.522,,,,,,,,,,,,,,,,,,,,,,60fdf33fdfb2399145bb4df4,61036e491c694e0cea5f117b,2021-07-29_22h13.43.148,Simcolourproject_2stim_asymm_v5,2020.2.10,MacIntel,60,61025ae37ef11b136ea224fe,,,,,,,,,1997,46,74,1,0,0,response1disk,,7,9,-3,1,0,0,rectangle,9,-3,1,0,0,9,-3,1,0,0,1,3,163,82,1,,,,,,,,
,,,,,,,,,,,,,FF,,,,,,,,0.602,,,,,,,,,,,,,,,,,,,,,,60fdf33fdfb2399145bb4df4,61036e491c694e0cea5f117b,2021-07-29_22h13.43.148,Simcolourproject_2stim_asymm_v5,2020.2.10,MacIntel,60,61025ae37ef11b136ea224fe,,,,,,,,,2534,41,77,1,0,0,response1disk,,7,11,-3,1,0,0,rectangle,11,-3,1,0,0,11,-3,1,0,0,1,4,164,130,1,,,,,,,,
,,,,,,,,,,,,,FF,,,,,,,,0.672,,,,,,,,,,,,,,,,,,,,,,60fdf33fdfb2399145bb4df4,61036e491c694e0cea5f117b,2021-07-29_22h13.43.148,Simcolourproject_2stim_asymm_v5,2020.2.10,MacIntel,60,61025ae37ef11b136ea224fe,,,,,,,,,1827,68,47,1,0,0,response1disk,,6,2,-13,1,0,0,rectangle,2,-13,1,0,0,2,-13,1,0,0,1,5,165,137,1,,,,,,,,
,,,,,,,,,,,,,FF,,,,,,,,0.892,,,,,,,,,,,,,,,,,,,,,,60fdf33fdfb2399145bb4df4,61036e491c694e0cea5f117b,2021-07-29_22h13.43.148,Simcolourproject_2stim_asymm_v5,2020.2.10,MacIntel,60,61025ae37ef11b136ea224fe,,,,,,,,,2940,-37,88,1,0,0,response7disk,,0,-6,5,1,0,0,rectangle,-6,5,1,0,0,-6,5,1,0,0,1,6,166,36,1,,,,,,,,
,,,,,,,,,,,,,FF,,,,,,,,0.737,,,,,,,,,,,,,,,,,,,,,,60fdf33fdfb2399145bb4df4,61036e491c694e0cea5f117b,2021-07-29_22h13.43.148,Simcolourproject_2stim_asymm_v5,2020.2.10,MacIntel,60,61025ae37ef11b136ea224fe,,,,,,,,,1947,33,45,1,0,0,response1disk,,7,-3,-3,1,0,0,rectangle,-3,-3,1,0,0,-3,-3,1,0,0,1,7,167,91,1,,,,,,,,
,,,,,,,,,,,,,FF,,,,,,,,0.626,,,,,,,,,,,,,,,,,,,,,,60fdf33fdfb2399145bb4df4,61036e491c694e0cea5f117b,2021-07-29_22h13.43.148,Simcolourproject_2stim_asymm_v5,2020.2.10,MacIntel,60,61025ae37ef11b136ea224fe,,,,,,,,,3987,33,60,1,0,0,response1disk,,7,2,1,1,0,0,rectangle,2,1,1,0,0,2,1,1,0,0,1,8,168,122,1,,,,,,,,
,,,,,,,,,,,,,FF,,,,,,,,0.537,,,,,,,,,,,,,,,,,,,,,,60fdf33fdfb2399145bb4df4,61036e491c694e0cea5f117b,2021-07-29_22h13.43.148,Simcolourproject_2stim_asymm_v5,2020.2.10,MacIntel,60,61025ae37ef11b136ea224fe,,,,,,,,,3695,36,80,1,0,0,response1disk,,7,-2,4,1,0,0,rectangle,-2,4,1,0,0,-2,4,1,0,0,1,9,169,92,1,,,,,,,,
,,,,,,,,,,,,,FF,,,,,,,,1.036,,,,,,,,,,,,,,,,,,,,,,60fdf33fdfb2399145bb4df4,61036e491c694e0cea5f117b,2021-07-29_22h13.43.148,Simcolourproject_2stim_asymm_v5,2020.2.10,MacIntel,60,61025ae37ef11b136ea224fe,,,,,,,,,1824,-78,36,1,0,0,response7disk,,1,2,-11,1,0,0,rectangle,2,-11,1,0,0,2,-11,1,0,0,1,10,170,20,1,,,,,,,,
,,,,,,,,,,,,,FF,,,,,,,,1.008,,,,,,,,,,,,,,,,,,,,,,60fdf33fdfb2399145bb4df4,61036e491c694e0cea5f117b,2021-07-29_22h13.43.148,Simcolourproject_2stim_asymm_v5,2020.2.10,MacIntel,60,61025ae37ef11b136ea224fe,,,,,,,,,3014,76,39,1,0,0,response1disk,,6,-5,10,1,0,0,rectangle,37,66,1,0,0,-2,3,1,0,0,1,11,171,129,1,,response1disk_3,TRUE,7,7,"[243,188,276,124,90,90,10,300,0,319,89,173,150,273,217,274,172,216,91,97]",1.536,rectangle
,,,,,,,,,,,,,FF,,,,,,,,0.785,,,,,,,,,,,,,,,,,,,,,,60fdf33fdfb2399145bb4df4,61036e491c694e0cea5f117b,2021-07-29_22h13.43.148,Simcolourproject_2stim_asymm_v5,2020.2.10,MacIntel,60,61025ae37ef11b136ea224fe,,,,,,,,,2358,62,28,1,0,0,response1disk,,6,11,0,1,0,0,rectangle,16,-81,1,0,0,8,12,1,0,0,1,12,172,89,1,,response3disk_3,TRUE,4,4,"[243,188,276,124,90,90,10,300,0,319,89,173,150,273,217,274,172,216,91,97]",2.034,rectangle
,,,,,,,,,,,,,FF,,,,,,,,0.841,,,,,,,,,,,,,,,,,,,,,,60fdf33fdfb2399145bb4df4,61036e491c694e0cea5f117b,2021-07-29_22h13.43.148,Simcolourproject_2stim_asymm_v5,2020.2.10,MacIntel,60,61025ae37ef11b136ea224fe,,,,,,,,,1531,42,72,1,0,0,response1disk,,7,9,4,1,0,0,rectangle,9,4,1,0,0,9,4,1,0,0,1,13,173,103,1,,,,,,,,
,,,,,,,,,,,,,FF,,,,,,,,0.785,,,,,,,,,,,,,,,,,,,,,,60fdf33fdfb2399145bb4df4,61036e491c694e0cea5f117b,2021-07-29_22h13.43.148,Simcolourproject_2stim_asymm_v5,2020.2.10,MacIntel,60,61025ae37ef11b136ea224fe,,,,,,,,,3064,18,68,1,0,0,response1disk,,7,4,12,1,0,0,rectangle,4,12,1,0,0,4,12,1,0,0,1,14,174,39,1,,,,,,,,
,,,,,,,,,,,,,FF,,,,,,,,1.273,,,,,,,,,,,,,,,,,,,,,,60fdf33fdfb2399145bb4df4,61036e491c694e0cea5f117b,2021-07-29_22h13.43.148,Simcolourproject_2stim_asymm_v5,2020.2.10,MacIntel,60,61025ae37ef11b136ea224fe,,,,,,,,,2777,-33,-70,1,0,0,response5disk,,3,10,2,1,0,0,rectangle,10,2,1,0,0,10,2,1,0,0,1,15,175,24,1,,,,,,,,
,,,,,,,,,,,,,FF,,,,,,,,0.607,,,,,,,,,,,,,,,,,,,,,,60fdf33fdfb2399145bb4df4,61036e491c694e0cea5f117b,2021-07-29_22h13.43.148,Simcolourproject_2stim_asymm_v5,2020.2.10,MacIntel,60,61025ae37ef11b136ea224fe,,,,,,,,,2903,44,82,1,0,0,response1disk,,7,10,-10,1,0,0,rectangle,10,-10,1,0,0,10,-10,1,0,0,1,16,176,151,1,,,,,,,,
,,,,,,,,,,,,,FF,,,,,,,,0.717,,,,,,,,,,,,,,,,,,,,,,60fdf33fdfb2399145bb4df4,61036e491c694e0cea5f117b,2021-07-29_22h13.43.148,Simcolourproject_2stim_asymm_v5,2020.2.10,MacIntel,60,61025ae37ef11b136ea224fe,,,,,,,,,2968,40,72,1,0,0,response1disk,,7,2,-3,1,0,0,rectangle,2,-3,1,0,0,2,-3,1,0,0,1,17,177,4,1,,,,,,,,
,,,,,,,,,,,,,FF,,,,,,,,0.554,,,,,,,,,,,,,,,,,,,,,,60fdf33fdfb2399145bb4df4,61036e491c694e0cea5f117b,2021-07-29_22h13.43.148,Simcolourproject_2stim_asymm_v5,2020.2.10,MacIntel,60,61025ae37ef11b136ea224fe,,,,,,,,,2640,37,79,1,0,0,response1disk,,7,2,-2,1,0,0,rectangle,2,-2,1,0,0,2,-2,1,0,0,1,18,178,13,1,,,,,,,,
,,,,,,,,,,,,,FF,,,,,,,,1.191,,,,,,,,,,,,,,,,,,,,,,60fdf33fdfb2399145bb4df4,61036e491c694e0cea5f117b,2021-07-29_22h13.43.148,Simcolourproject_2stim_asymm_v5,2020.2.10,MacIntel,60,61025ae37ef11b136ea224fe,,,,,,,,,2293,32,-69,1,0,0,response3disk,,4,-5,-10,1,0,0,rectangle,-5,-10,1,0,0,-5,-10,1,0,0,1,19,179,52,1,,,,,,,,
,,,,,,,,,,,,,FF,,,,,,,,2.718,,,,,,,,,,,,,,,,,,,,,,60fdf33fdfb2399145bb4df4,61036e491c694e0cea5f117b,2021-07-29_22h13.43.148,Simcolourproject_2stim_asymm_v5,2020.2.10,MacIntel,60,61025ae37ef11b136ea224fe,,,,,,,,,1033,42,-74,1,0,0,response3disk,,4,0,4,1,0,0,rectangle,0,4,1,0,0,0,4,1,0,0,1,20,180,55,1,,,,,,,,
,,,,,,,,,,,,,FF,,,,,,,,1.903,,,,,,,,,,,,,,,,,,,,,,60fdf33fdfb2399145bb4df4,61036e491c694e0cea5f117b,2021-07-29_22h13.43.148,Simcolourproject_2stim_asymm_v5,2020.2.10,MacIntel,60,61025ae37ef11b136ea224fe,,,,,,,,,2995,29,-80,1,0,0,response3disk,,4,5,-2,1,0,0,rectangle,5,-2,1,0,0,5,-2,1,0,0,1,21,181,110,1,,,,,,,,
,,,,,,,,,,,,,FF,,,,,,,,0.575,,,,,,,,,,,,,,,,,,,,,,60fdf33fdfb2399145bb4df4,61036e491c694e0cea5f117b,2021-07-29_22h13.43.148,Simcolourproject_2stim_asymm_v5,2020.2.10,MacIntel,60,61025ae37ef11b136ea224fe,,,,,,,,,2259,32,84,1,0,0,response1disk,,7,-10,-1,1,0,0,rectangle,-10,-1,1,0,0,-10,-1,1,0,0,1,22,182,157,1,,,,,,,,
,,,,,,,,,,,,,FF,,,,,,,,0.57,,,,,,,,,,,,,,,,,,,,,,60fdf33fdfb2399145bb4df4,61036e491c694e0cea5f117b,2021-07-29_22h13.43.148,Simcolourproject_2stim_asymm_v5,2020.2.10,MacIntel,60,61025ae37ef11b136ea224fe,,,,,,,,,863,37,66,1,0,0,response1disk,,7,7,5,1,0,0,rectangle,7,5,1,0,0,7,5,1,0,0,1,23,183,48,1,,,,,,,,
,,,,,,,,,,,,,FF,,,,,,,,0.636,,,,,,,,,,,,,,,,,,,,,,60fdf33fdfb2399145bb4df4,61036e491c694e0cea5f117b,2021-07-29_22h13.43.148,Simcolourproject_2stim_asymm_v5,2020.2.10,MacIntel,60,61025ae37ef11b136ea224fe,,,,,,,,,3950,29,50,1,0,0,response1disk,,7,0,-6,1,0,0,rectangle,0,-6,1,0,0,0,-6,1,0,0,1,24,184,64,1,,,,,,,,
,,,,,,,,,,,,,FF,,,,,,,,3.019,,,,,,,,,,,,,,,,,,,,,,60fdf33fdfb2399145bb4df4,61036e491c694e0cea5f117b,2021-07-29_22h13.43.148,Simcolourproject_2stim_asymm_v5,2020.2.10,MacIntel,60,61025ae37ef11b136ea224fe,,,,,,,,,3835,31,88,1,0,0,response1disk,,7,2,5,1,0,0,rectangle,2,5,1,0,0,2,5,1,0,0,1,25,185,32,1,,,,,,,,
,,,,,,,,,,,,,FF,,,,,,,,1.225,,,,,,,,,,,,,,,,,,,,,,60fdf33fdfb2399145bb4df4,61036e491c694e0cea5f117b,2021-07-29_22h13.43.148,Simcolourproject_2stim_asymm_v5,2020.2.10,MacIntel,60,61025ae37ef11b136ea224fe,,,,,,,,,3674,77,48,1,0,0,response1disk,,6,6,8,1,0,0,rectangle,6,8,1,0,0,6,8,1,0,0,1,26,186,44,1,,,,,,,,
,,,,,,,,,,,,,FF,,,,,,,,0.587,,,,,,,,,,,,,,,,,,,,,,60fdf33fdfb2399145bb4df4,61036e491c694e0cea5f117b,2021-07-29_22h13.43.148,Simcolourproject_2stim_asymm_v5,2020.2.10,MacIntel,60,61025ae37ef11b136ea224fe,,,,,,,,,1955,37,60,1,0,0,response1disk,,7,4,-16,1,0,0,rectangle,28,-82,1,0,0,3,-10,1,0,0,1,27,187,119,1,,response3disk_3,TRUE,4,4,"[243,188,276,124,90,90,10,300,0,319,89,173,150,273,217,274,172,216,91,97]",1.602,rectangle
,,,,,,,,,,,,,FF,,,,,,,,1.157,,,,,,,,,,,,,,,,,,,,,,60fdf33fdfb2399145bb4df4,61036e491c694e0cea5f117b,2021-07-29_22h13.43.148,Simcolourproject_2stim_asymm_v5,2020.2.10,MacIntel,60,61025ae37ef11b136ea224fe,,,,,,,,,254,72,-38,1,0,0,response3disk,,5,-21,-7,1,0,0,rectangle,-21,-7,1,0,0,-21,-7,1,0,0,1,28,188,35,1,,,,,,,,
,,,,,,,,,,,,,FF,,,,,,,,1.603,,,,,,,,,,,,,,,,,,,,,,60fdf33fdfb2399145bb4df4,61036e491c694e0cea5f117b,2021-07-29_22h13.43.148,Simcolourproject_2stim_asymm_v5,2020.2.10,MacIntel,60,61025ae37ef11b136ea224fe,,,,,,,,,403,19,73,1,0,0,response1disk,,7,0,8,1,0,0,rectangle,0,8,1,0,0,0,8,1,0,0,1,29,189,66,1,,,,,,,,
,,,,,,,,,,,,,FF,,,,,,,,0.902,,,,,,,,,,,,,,,,,,,,,,60fdf33fdfb2399145bb4df4,61036e491c694e0cea5f117b,2021-07-29_22h13.43.148,Simcolourproject_2stim_asymm_v5,2020.2.10,MacIntel,60,61025ae37ef11b136ea224fe,,,,,,,,,3715,61,25,1,0,0,response1disk,,6,10,-7,1,0,0,rectangle,10,-7,1,0,0,10,-7,1,0,0,1,30,190,146,1,,,,,,,,
,,,,,,,,,,,,,FF,,,,,,,,0.807,,,,,,,,,,,,,,,,,,,,,,60fdf33fdfb2399145bb4df4,61036e491c694e0cea5f117b,2021-07-29_22h13.43.148,Simcolourproject_2stim_asymm_v5,2020.2.10,MacIntel,60,61025ae37ef11b136ea224fe,,,,,,,,,1542,39,94,1,0,0,response1disk,,7,-3,7,1,0,0,rectangle,-3,7,1,0,0,-3,7,1,0,0,1,31,191,1,1,,,,,,,,
,,,,,,,,,,,,,FF,,,,,,,,0.637,,,,,,,,,,,,,,,,,,,,,,60fdf33fdfb2399145bb4df4,61036e491c694e0cea5f117b,2021-07-29_22h13.43.148,Simcolourproject_2stim_asymm_v5,2020.2.10,MacIntel,60,61025ae37ef11b136ea224fe,,,,,,,,,1358,42,70,1,0,0,response1disk,,7,7,4,1,0,0,rectangle,7,4,1,0,0,7,4,1,0,0,1,32,192,27,1,,,,,,,,
,,,,,,,,,,,,,FF,,,,,,,,0.724,,,,,,,,,,,,,,,,,,,,,,60fdf33fdfb2399145bb4df4,61036e491c694e0cea5f117b,2021-07-29_22h13.43.148,Simcolourproject_2stim_asymm_v5,2020.2.10,MacIntel,60,61025ae37ef11b136ea224fe,,,,,,,,,4050,31,80,1,0,0,response1disk,,7,-8,-4,1,0,0,rectangle,-8,-4,1,0,0,-8,-4,1,0,0,1,33,193,88,1,,,,,,,,
,,,,,,,,,,,,,FF,,,,,,,,0.508,,,,,,,,,,,,,,,,,,,,,,60fdf33fdfb2399145bb4df4,61036e491c694e0cea5f117b,2021-07-29_22h13.43.148,Simcolourproject_2stim_asymm_v5,2020.2.10,MacIntel,60,61025ae37ef11b136ea224fe,,,,,,,,,2190,40,73,1,0,0,response1disk,,7,0,-3,1,0,0,rectangle,0,-3,1,0,0,0,-3,1,0,0,1,34,194,123,1,,,,,,,,
,,,,,,,,,,,,,FF,,,,,,,,0.607,,,,,,,,,,,,,,,,,,,,,,60fdf33fdfb2399145bb4df4,61036e491c694e0cea5f117b,2021-07-29_22h13.43.148,Simcolourproject_2stim_asymm_v5,2020.2.10,MacIntel,60,61025ae37ef11b136ea224fe,,,,,,,,,1575,37,95,1,0,0,response1disk,,7,-2,-4,1,0,0,rectangle,-2,-4,1,0,0,-2,-4,1,0,0,1,35,195,117,1,,,,,,,,
,,,,,,,,,,,,,FF,,,,,,,,0.588,,,,,,,,,,,,,,,,,,,,,,60fdf33fdfb2399145bb4df4,61036e491c694e0cea5f117b,2021-07-29_22h13.43.148,Simcolourproject_2stim_asymm_v5,2020.2.10,MacIntel,60,61025ae37ef11b136ea224fe,,,,,,,,,3979,38,92,1,0,0,response1disk,,7,-13,-4,1,0,0,rectangle,-13,-4,1,0,0,-13,-4,1,0,0,1,36,196,97,1,,,,,,,,
,,,,,,,,,,,,,FF,,,,,,,,0.512,,,,,,,,,,,,,,,,,,,,,,60fdf33fdfb2399145bb4df4,61036e491c694e0cea5f117b,2021-07-29_22h13.43.148,Simcolourproject_2stim_asymm_v5,2020.2.10,MacIntel,60,61025ae37ef11b136ea224fe,,,,,,,,,1408,28,72,1,0,0,response1disk,,7,-1,-7,1,0,0,rectangle,-1,-7,1,0,0,-1,-7,1,0,0,1,37,197,152,1,,,,,,,,
,,,,,,,,,,,,,FF,,,,,,,,2.593,,,,,,,,,,,,,,,,,,,,,,60fdf33fdfb2399145bb4df4,61036e491c694e0cea5f117b,2021-07-29_22h13.43.148,Simcolourproject_2stim_asymm_v5,2020.2.10,MacIntel,60,61025ae37ef11b136ea224fe,,,,,,,,,3073,36,88,1,0,0,response1disk,,7,9,-7,1,0,0,rectangle,9,-7,1,0,0,9,-7,1,0,0,1,38,198,150,1,,,,,,,,
,,,,,,,,,,,,,FF,,,,,,,,0.537,,,,,,,,,,,,,,,,,,,,,,60fdf33fdfb2399145bb4df4,61036e491c694e0cea5f117b,2021-07-29_22h13.43.148,Simcolourproject_2stim_asymm_v5,2020.2.10,MacIntel,60,61025ae37ef11b136ea224fe,,,,,,,,,2749,23,91,1,0,0,response1disk,,7,-1,-9,1,0,0,rectangle,-1,-9,1,0,0,-1,-9,1,0,0,1,39,199,31,1,,,,,,,,
,,,,,,,,,,,,,FF,,,,,,,,0.671,,,,,,,,,,,,,,,,,,,,,,60fdf33fdfb2399145bb4df4,61036e491c694e0cea5f117b,2021-07-29_22h13.43.148,Simcolourproject_2stim_asymm_v5,2020.2.10,MacIntel,60,61025ae37ef11b136ea224fe,,,,,,,,,74,35,66,1,0,0,response1disk,,7,6,3,1,0,0,rectangle,6,3,1,0,0,6,3,1,0,0,1,40,200,144,1,,,,,,,,
,,,,,,,,,,,,,FF,,,,,,,,1.156,,,,,,,,,,,,,,,,,,,,,,60fdf33fdfb2399145bb4df4,61036e491c694e0cea5f117b,2021-07-29_22h13.43.148,Simcolourproject_2stim_asymm_v5,2020.2.10,MacIntel,60,61025ae37ef11b136ea224fe,,,,,,,,,3143,62,-41,1,0,0,response3disk,,5,2,-1,1,0,0,rectangle,2,-1,1,0,0,2,-1,1,0,0,1,41,201,54,1,,,,,,,,
,,,,,,,,,,,,,FF,,,,,,,,0.692,,,,,,,,,,,,,,,,,,,,,,60fdf33fdfb2399145bb4df4,61036e491c694e0cea5f117b,2021-07-29_22h13.43.148,Simcolourproject_2stim_asymm_v5,2020.2.10,MacIntel,60,61025ae37ef11b136ea224fe,,,,,,,,,3335,39,96,1,0,0,response1disk,,7,-8,-10,1,0,0,rectangle,-8,-10,1,0,0,-8,-10,1,0,0,1,42,202,105,1,,,,,,,,
,,,,,,,,,,,,,FF,,,,,,,,0.888,,,,,,,,,,,,,,,,,,,,,,60fdf33fdfb2399145bb4df4,61036e491c694e0cea5f117b,2021-07-29_22h13.43.148,Simcolourproject_2stim_asymm_v5,2020.2.10,MacIntel,60,61025ae37ef11b136ea224fe,,,,,,,,,3224,33,75,1,0,0,response1disk,,7,2,5,1,0,0,rectangle,2,5,1,0,0,2,5,1,0,0,1,43,203,53,1,,,,,,,,
,,,,,,,,,,,,,FF,,,,,,,,0.622,,,,,,,,,,,,,,,,,,,,,,60fdf33fdfb2399145bb4df4,61036e491c694e0cea5f117b,2021-07-29_22h13.43.148,Simcolourproject_2stim_asymm_v5,2020.2.10,MacIntel,60,61025ae37ef11b136ea224fe,,,,,,,,,4039,31,102,1,0,0,response1disk,,7,0,-5,1,0,0,rectangle,0,-5,1,0,0,0,-5,1,0,0,1,44,204,99,1,,,,,,,,
,,,,,,,,,,,,,FF,,,,,,,,0.558,,,,,,,,,,,,,,,,,,,,,,60fdf33fdfb2399145bb4df4,61036e491c694e0cea5f117b,2021-07-29_22h13.43.148,Simcolourproject_2stim_asymm_v5,2020.2.10,MacIntel,60,61025ae37ef11b136ea224fe,,,,,,,,,3803,37,66,1,0,0,response1disk,,7,8,5,1,0,0,rectangle,8,5,1,0,0,8,5,1,0,0,1,45,205,132,1,,,,,,,,
,,,,,,,,,,,,,FF,,,,,,,,1.903,,,,,,,,,,,,,,,,,,,,,,60fdf33fdfb2399145bb4df4,61036e491c694e0cea5f117b,2021-07-29_22h13.43.148,Simcolourproject_2stim_asymm_v5,2020.2.10,MacIntel,60,61025ae37ef11b136ea224fe,,,,,,,,,611,50,64,1,0,0,response1disk,,7,1,5,1,0,0,rectangle,1,5,1,0,0,1,5,1,0,0,1,46,206,86,1,,,,,,,,
,,,,,,,,,,,,,FF,,,,,,,,0.523,,,,,,,,,,,,,,,,,,,,,,60fdf33fdfb2399145bb4df4,61036e491c694e0cea5f117b,2021-07-29_22h13.43.148,Simcolourproject_2stim_asymm_v5,2020.2.10,MacIntel,60,61025ae37ef11b136ea224fe,,,,,,,,,860,29,69,1,0,0,response1disk,,7,-6,1,1,0,0,rectangle,-6,1,1,0,0,-6,1,1,0,0,1,47,207,118,1,,,,,,,,
,,,,,,,,,,,,,FF,,,,,,,,1.156,,,,,,,,,,,,,,,,,,,,,,60fdf33fdfb2399145bb4df4,61036e491c694e0cea5f117b,2021-07-29_22h13.43.148,Simcolourproject_2stim_asymm_v5,2020.2.10,MacIntel,60,61025ae37ef11b136ea224fe,,,,,,,,,194,55,47,1,0,0,response1disk,,6,-3,-9,1,0,0,rectangle,-3,-9,1,0,0,-3,-9,1,0,0,1,48,208,28,1,,,,,,,,
,,,,,,,,,,,,,FF,,,,,,,,0.607,,,,,,,,,,,,,,,,,,,,,,60fdf33fdfb2399145bb4df4,61036e491c694e0cea5f117b,2021-07-29_22h13.43.148,Simcolourproject_2stim_asymm_v5,2020.2.10,MacIntel,60,61025ae37ef11b136ea224fe,,,,,,,,,1642,48,66,1,0,0,response1disk,,7,10,-10,1,0,0,rectangle,10,-10,1,0,0,10,-10,1,0,0,1,49,209,34,1,,,,,,,,
,,,,,,,,,,,,,FF,,,,,,,,0.789,,,,,,,,,,,,,,,,,,,,,,60fdf33fdfb2399145bb4df4,61036e491c694e0cea5f117b,2021-07-29_22h13.43.148,Simcolourproject_2stim_asymm_v5,2020.2.10,MacIntel,60,61025ae37ef11b136ea224fe,,,,,,,,,1830,54,-38,1,0,0,response3disk,,5,3,-6,1,0,0,rectangle,3,-6,1,0,0,3,-6,1,0,0,1,50,210,42,1,,,,,,,,
,,,,,,,,,,,,,FF,,,,,,,,0.591,,,,,,,,,,,,,,,,,,,,,,60fdf33fdfb2399145bb4df4,61036e491c694e0cea5f117b,2021-07-29_22h13.43.148,Simcolourproject_2stim_asymm_v5,2020.2.10,MacIntel,60,61025ae37ef11b136ea224fe,,,,,,,,,3581,32,88,1,0,0,response1disk,,7,-2,-4,1,0,0,rectangle,-2,-4,1,0,0,-2,-4,1,0,0,1,51,211,68,1,,,,,,,,
,,,,,,,,,,,,,FF,,,,,,,,2.085,,,,,,,,,,,,,,,,,,,,,,60fdf33fdfb2399145bb4df4,61036e491c694e0cea5f117b,2021-07-29_22h13.43.148,Simcolourproject_2stim_asymm_v5,2020.2.10,MacIntel,60,61025ae37ef11b136ea224fe,,,,,,,,,1291,-92,-36,1,0,0,response5disk,,2,-23,1,1,0,0,rectangle,-23,1,1,0,0,-23,1,1,0,0,1,52,212,41,1,,,,,,,,
,,,,,,,,,,,,,FF,,,,,,,,0.622,,,,,,,,,,,,,,,,,,,,,,60fdf33fdfb2399145bb4df4,61036e491c694e0cea5f117b,2021-07-29_22h13.43.148,Simcolourproject_2stim_asymm_v5,2020.2.10,MacIntel,60,61025ae37ef11b136ea224fe,,,,,,,,,3763,37,58,1,0,0,response1disk,,7,8,10,1,0,0,rectangle,8,10,1,0,0,8,10,1,0,0,1,53,213,69,1,,,,,,,,
,,,,,,,,,,,,,FF,,,,,,,,0.556,,,,,,,,,,,,,,,,,,,,,,60fdf33fdfb2399145bb4df4,61036e491c694e0cea5f117b,2021-07-29_22h13.43.148,Simcolourproject_2stim_asymm_v5,2020.2.10,MacIntel,60,61025ae37ef11b136ea224fe,,,,,,,,,2992,48,84,1,0,0,response1disk,,7,-2,6,1,0,0,rectangle,-2,6,1,0,0,-2,6,1,0,0,1,54,214,90,1,,,,,,,,
,,,,,,,,,,,,,FF,,,,,,,,0.559,,,,,,,,,,,,,,,,,,,,,,60fdf33fdfb2399145bb4df4,61036e491c694e0cea5f117b,2021-07-29_22h13.43.148,Simcolourproject_2stim_asymm_v5,2020.2.10,MacIntel,60,61025ae37ef11b136ea224fe,,,,,,,,,2580,31,92,1,0,0,response1disk,,7,-2,8,1,0,0,rectangle,39,67,1,0,0,0,4,1,0,0,1,55,215,94,1,,response1disk_3,TRUE,7,7,"[243,188,276,124,90,90,10,300,0,319,89,173,150,273,217,274,172,216,91,97]",1.374,rectangle
,,,,,,,,,,,,,FF,,,,,,,,0.672,,,,,,,,,,,,,,,,,,,,,,60fdf33fdfb2399145bb4df4,61036e491c694e0cea5f117b,2021-07-29_22h13.43.148,Simcolourproject_2stim_asymm_v5,2020.2.10,MacIntel,60,61025ae37ef11b136ea224fe,,,,,,,,,1327,34,69,1,0,0,response1disk,,7,-3,6,1,0,0,rectangle,91,35,1,0,0,-1,-10,1,0,0,1,56,216,106,1,,response1disk_3,TRUE,6,6,"[243,188,276,124,90,90,10,300,0,319,89,173,150,273,217,274,172,216,91,97]",1.653,rectangle
,,,,,,,,,,,,,FF,,,,,,,,0.709,,,,,,,,,,,,,,,,,,,,,,60fdf33fdfb2399145bb4df4,61036e491c694e0cea5f117b,2021-07-29_22h13.43.148,Simcolourproject_2stim_asymm_v5,2020.2.10,MacIntel,60,61025ae37ef11b136ea224fe,,,,,,,,,4309,33,77,1,0,0,response1disk,,7,10,11,1,0,0,rectangle,10,11,1,0,0,10,11,1,0,0,1,57,217,113,1,,,,,,,,
,,,,,,,,,,,,,FF,,,,,,,,0.825,,,,,,,,,,,,,,,,,,,,,,60fdf33fdfb2399145bb4df4,61036e491c694e0cea5f117b,2021-07-29_22h13.43.148,Simcolourproject_2stim_asymm_v5,2020.2.10,MacIntel,60,61025ae37ef11b136ea224fe,,,,,,,,,3468,-31,71,1,0,0,response7disk,,0,5,1,1,0,0,rectangle,5,1,1,0,0,5,1,1,0,0,1,58,218,73,1,,,,,,,,
,,,,,,,,,,,,,FF,,,,,,,,0.867,,,,,,,,,,,,,,,,,,,,,,60fdf33fdfb2399145bb4df4,61036e491c694e0cea5f117b,2021-07-29_22h13.43.148,Simcolourproject_2stim_asymm_v5,2020.2.10,MacIntel,60,61025ae37ef11b136ea224fe,,,,,,,,,3421,-71,29,1,0,0,response7disk,,1,-6,-1,1,0,0,rectangle,-6,-1,1,0,0,-6,-1,1,0,0,1,59,219,139,1,,,,,,,,
,,,,,,,,,,,,,FF,,,,,,,,1.087,,,,,,,,,,,,,,,,,,,,,,60fdf33fdfb2399145bb4df4,61036e491c694e0cea5f117b,2021-07-29_22h13.43.148,Simcolourproject_2stim_asymm_v5,2020.2.10,MacIntel,60,61025ae37ef11b136ea224fe,,,,,,,,,996,33,67,1,0,0,response1disk,,7,10,7,1,0,0,rectangle,10,7,1,0,0,10,7,1,0,0,1,60,220,45,1,,,,,,,,
,,,,,,,,,,,,,FF,,,,,,,,0.795,,,,,,,,,,,,,,,,,,,,,,60fdf33fdfb2399145bb4df4,61036e491c694e0cea5f117b,2021-07-29_22h13.43.148,Simcolourproject_2stim_asymm_v5,2020.2.10,MacIntel,60,61025ae37ef11b136ea224fe,,,,,,,,,2169,60,36,1,0,0,response1disk,,6,-7,3,1,0,0,rectangle,-7,3,1,0,0,-7,3,1,0,0,1,61,221,108,1,,,,,,,,
,,,,,,,,,,,,,FF,,,,,,,,1.252,,,,,,,,,,,,,,,,,,,,,,60fdf33fdfb2399145bb4df4,61036e491c694e0cea5f117b,2021-07-29_22h13.43.148,Simcolourproject_2stim_asymm_v5,2020.2.10,MacIntel,60,61025ae37ef11b136ea224fe,,,,,,,,,4251,-42,72,1,0,0,response7disk,,0,-5,0,1,0,0,rectangle,-5,0,1,0,0,-5,0,1,0,0,1,62,222,5,1,,,,,,,,
,,,,,,,,,,,,,FF,,,,,,,,0.984,,,,,,,,,,,,,,,,,,,,,,60fdf33fdfb2399145bb4df4,61036e491c694e0cea5f117b,2021-07-29_22h13.43.148,Simcolourproject_2stim_asymm_v5,2020.2.10,MacIntel,60,61025ae37ef11b136ea224fe,,,,,,,,,3626,-78,33,1,0,0,response7disk,,1,-12,-7,1,0,0,rectangle,-12,-7,1,0,0,-12,-7,1,0,0,1,63,223,47,1,,,,,,,,
,,,,,,,,,,,,,FF,,,,,,,,0.875,,,,,,,,,,,,,,,,,,,,,,60fdf33fdfb2399145bb4df4,61036e491c694e0cea5f117b,2021-07-29_22h13.43.148,Simcolourproject_2stim_asymm_v5,2020.2.10,MacIntel,60,61025ae37ef11b136ea224fe,,,,,,,,,428,32,74,1,0,0,response1disk,,7,2,-3,1,0,0,rectangle,2,-3,1,0,0,2,-3,1,0,0,1,64,224,15,1,,,,,,,,
,,,,,,,,,,,,,FF,,,,,,,,0.973,,,,,,,,,,,,,,,,,,,,,,60fdf33fdfb2399145bb4df4,61036e491c694e0cea5f117b,2021-07-29_22h13.43.148,Simcolourproject_2stim_asymm_v5,2020.2.10,MacIntel,60,61025ae37ef11b136ea224fe,,,,,,,,,1914,35,77,1,0,0,response1disk,,7,-13,3,1,0,0,rectangle,-13,3,1,0,0,-13,3,1,0,0,1,65,225,131,1,,,,,,,,
,,,,,,,,,,,,,FF,,,,,,,,0.824,,,,,,,,,,,,,,,,,,,,,,60fdf33fdfb2399145bb4df4,61036e491c694e0cea5f117b,2021-07-29_22h13.43.148,Simcolourproject_2stim_asymm_v5,2020.2.10,MacIntel,60,61025ae37ef11b136ea224fe,,,,,,,,,990,63,35,1,0,0,response1disk,,6,-14,-2,1,0,0,rectangle,-14,-2,1,0,0,-14,-2,1,0,0,1,66,226,116,1,,,,,,,,
,,,,,,,,,,,,,FF,,,,,,,,0.588,,,,,,,,,,,,,,,,,,,,,,60fdf33fdfb2399145bb4df4,61036e491c694e0cea5f117b,2021-07-29_22h13.43.148,Simcolourproject_2stim_asymm_v5,2020.2.10,MacIntel,60,61025ae37ef11b136ea224fe,,,,,,,,,662,33,67,1,0,0,response1disk,,7,-9,-12,1,0,0,rectangle,-9,-12,1,0,0,-9,-12,1,0,0,1,67,227,12,1,,,,,,,,
,,,,,,,,,,,,,FF,,,,,,,,0.606,,,,,,,,,,,,,,,,,,,,,,60fdf33fdfb2399145bb4df4,61036e491c694e0cea5f117b,2021-07-29_22h13.43.148,Simcolourproject_2stim_asymm_v5,2020.2.10,MacIntel,60,61025ae37ef11b136ea224fe,,,,,,,,,692,37,62,1,0,0,response1disk,,7,-4,-6,1,0,0,rectangle,-4,-6,1,0,0,-4,-6,1,0,0,1,68,228,33,1,,,,,,,,
,,,,,,,,,,,,,FF,,,,,,,,1.389,,,,,,,,,,,,,,,,,,,,,,60fdf33fdfb2399145bb4df4,61036e491c694e0cea5f117b,2021-07-29_22h13.43.148,Simcolourproject_2stim_asymm_v5,2020.2.10,MacIntel,60,61025ae37ef11b136ea224fe,,,,,,,,,2998,-75,-18,1,0,0,response5disk,,2,-4,-8,1,0,0,rectangle,-4,-8,1,0,0,-4,-8,1,0,0,1,69,229,79,1,,,,,,,,
,,,,,,,,,,,,,FF,,,,,,,,0.824,,,,,,,,,,,,,,,,,,,,,,60fdf33fdfb2399145bb4df4,61036e491c694e0cea5f117b,2021-07-29_22h13.43.148,Simcolourproject_2stim_asymm_v5,2020.2.10,MacIntel,60,61025ae37ef11b136ea224fe,,,,,,,,,3613,27,108,1,0,0,response1disk,,7,2,-1,1,0,0,rectangle,2,-1,1,0,0,2,-1,1,0,0,1,70,230,136,1,,,,,,,,
,,,,,,,,,,,,,FF,,,,,,,,0.875,,,,,,,,,,,,,,,,,,,,,,60fdf33fdfb2399145bb4df4,61036e491c694e0cea5f117b,2021-07-29_22h13.43.148,Simcolourproject_2stim_asymm_v5,2020.2.10,MacIntel,60,61025ae37ef11b136ea224fe,,,,,,,,,3643,30,89,1,0,0,response1disk,,7,18,3,1,0,0,rectangle,18,3,1,0,0,18,3,1,0,0,1,71,231,85,1,,,,,,,,
,,,,,,,,,,,,,FF,,,,,,,,1.506,,,,,,,,,,,,,,,,,,,,,,60fdf33fdfb2399145bb4df4,61036e491c694e0cea5f117b,2021-07-29_22h13.43.148,Simcolourproject_2stim_asymm_v5,2020.2.10,MacIntel,60,61025ae37ef11b136ea224fe,,,,,,,,,2788,22,-79,1,0,0,response3disk,,4,3,-14,1,0,0,rectangle,3,-14,1,0,0,3,-14,1,0,0,1,72,232,81,1,,,,,,,,
,,,,,,,,,,,,,FF,,,,,,,,0.572,,,,,,,,,,,,,,,,,,,,,,60fdf33fdfb2399145bb4df4,61036e491c694e0cea5f117b,2021-07-29_22h13.43.148,Simcolourproject_2stim_asymm_v5,2020.2.10,MacIntel,60,61025ae37ef11b136ea224fe,,,,,,,,,690,24,75,1,0,0,response1disk,,7,-7,2,1,0,0,rectangle,-7,2,1,0,0,-7,2,1,0,0,1,73,233,109,1,,,,,,,,
,,,,,,,,,,,,,FF,,,,,,,,0.621,,,,,,,,,,,,,,,,,,,,,,60fdf33fdfb2399145bb4df4,61036e491c694e0cea5f117b,2021-07-29_22h13.43.148,Simcolourproject_2stim_asymm_v5,2020.2.10,MacIntel,60,61025ae37ef11b136ea224fe,,,,,,,,,2467,48,83,1,0,0,response1disk,,7,4,-9,1,0,0,rectangle,4,-9,1,0,0,4,-9,1,0,0,1,74,234,38,1,,,,,,,,
,,,,,,,,,,,,,FF,,,,,,,,1.34,,,,,,,,,,,,,,,,,,,,,,60fdf33fdfb2399145bb4df4,61036e491c694e0cea5f117b,2021-07-29_22h13.43.148,Simcolourproject_2stim_asymm_v5,2020.2.10,MacIntel,60,61025ae37ef11b136ea224fe,,,,,,,,,2672,72,-28,1,0,0,response3disk,,5,11,10,1,0,0,rectangle,11,10,1,0,0,11,10,1,0,0,1,75,235,96,1,,,,,,,,
,,,,,,,,,,,,,FF,,,,,,,,1.027,,,,,,,,,,,,,,,,,,,,,,60fdf33fdfb2399145bb4df4,61036e491c694e0cea5f117b,2021-07-29_22h13.43.148,Simcolourproject_2stim_asymm_v5,2020.2.10,MacIntel,60,61025ae37ef11b136ea224fe,,,,,,,,,1417,32,58,1,0,0,response1disk,,7,8,-7,1,0,0,rectangle,8,-7,1,0,0,8,-7,1,0,0,1,76,236,40,1,,,,,,,,
,,,,,,,,,,,,,FF,,,,,,,,0.576,,,,,,,,,,,,,,,,,,,,,,60fdf33fdfb2399145bb4df4,61036e491c694e0cea5f117b,2021-07-29_22h13.43.148,Simcolourproject_2stim_asymm_v5,2020.2.10,MacIntel,60,61025ae37ef11b136ea224fe,,,,,,,,,1334,27,69,1,0,0,response1disk,,7,-1,-12,1,0,0,rectangle,-1,-12,1,0,0,-1,-12,1,0,0,1,77,237,135,1,,,,,,,,
,,,,,,,,,,,,,FF,,,,,,,,0.784,,,,,,,,,,,,,,,,,,,,,,60fdf33fdfb2399145bb4df4,61036e491c694e0cea5f117b,2021-07-29_22h13.43.148,Simcolourproject_2stim_asymm_v5,2020.2.10,MacIntel,60,61025ae37ef11b136ea224fe,,,,,,,,,4053,81,30,1,0,0,response1disk,,6,-7,0,1,0,0,rectangle,-7,0,1,0,0,-7,0,1,0,0,1,78,238,84,1,,,,,,,,
,,,,,,,,,,,,,FF,,,,,,,,1.754,,,,,,,,,,,,,,,,,,,,,,60fdf33fdfb2399145bb4df4,61036e491c694e0cea5f117b,2021-07-29_22h13.43.148,Simcolourproject_2stim_asymm_v5,2020.2.10,MacIntel,60,61025ae37ef11b136ea224fe,,,,,,,,,3041,82,35,1,0,0,response1disk,,6,-5,-8,1,0,0,rectangle,-5,-8,1,0,0,-5,-8,1,0,0,1,79,239,149,1,,,,,,,,
,,,,,,,,,,,,,FF,,,,,,,,0.561,,,,,,,,,,,,,,,,,,,,,,60fdf33fdfb2399145bb4df4,61036e491c694e0cea5f117b,2021-07-29_22h13.43.148,Simcolourproject_2stim_asymm_v5,2020.2.10,MacIntel,60,61025ae37ef11b136ea224fe,,,,,,,,,1260,34,82,1,0,0,response1disk,,7,7,4,1,0,0,rectangle,7,4,1,0,0,7,4,1,0,0,1,80,240,148,1,,,,,,,,
,,,,,,,,,,,,,FF,,,,,,,,0.687,,,,,,,,,,,,,,,,,,,,,,60fdf33fdfb2399145bb4df4,61036e491c694e0cea5f117b,2021-07-29_22h13.43.148,Simcolourproject_2stim_asymm_v5,2020.2.10,MacIntel,60,61025ae37ef11b136ea224fe,,,,,,,,,834,23,83,1,0,0,response1disk,,7,3,-7,1,0,0,rectangle,3,-7,1,0,0,3,-7,1,0,0,1,81,241,11,1,,,,,,,,
,,,,,,,,,,,,,FF,,,,,,,,0.652,,,,,,,,,,,,,,,,,,,,,,60fdf33fdfb2399145bb4df4,61036e491c694e0cea5f117b,2021-07-29_22h13.43.148,Simcolourproject_2stim_asymm_v5,2020.2.10,MacIntel,60,61025ae37ef11b136ea224fe,,,,,,,,,2573,24,86,1,0,0,response1disk,,7,-21,-2,1,0,0,rectangle,93,-36,1,0,0,14,-1,1,0,0,1,82,242,8,1,,response3disk_3,TRUE,5,5,"[243,188,276,124,90,90,10,300,0,319,89,173,150,273,217,274,172,216,91,97]",1.594,rectangle
,,,,,,,,,,,,,FF,,,,,,,,0.626,,,,,,,,,,,,,,,,,,,,,,60fdf33fdfb2399145bb4df4,61036e491c694e0cea5f117b,2021-07-29_22h13.43.148,Simcolourproject_2stim_asymm_v5,2020.2.10,MacIntel,60,61025ae37ef11b136ea224fe,,,,,,,,,3443,46,58,1,0,0,response1disk,,7,1,-6,1,0,0,rectangle,1,-6,1,0,0,1,-6,1,0,0,1,83,243,111,1,,,,,,,,
,,,,,,,,,,,,,FF,,,,,,,,0.558,,,,,,,,,,,,,,,,,,,,,,60fdf33fdfb2399145bb4df4,61036e491c694e0cea5f117b,2021-07-29_22h13.43.148,Simcolourproject_2stim_asymm_v5,2020.2.10,MacIntel,60,61025ae37ef11b136ea224fe,,,,,,,,,4069,20,86,1,0,0,response1disk,,7,-6,5,1,0,0,rectangle,-6,5,1,0,0,-6,5,1,0,0,1,84,244,87,1,,,,,,,,
,,,,,,,,,,,,,FF,,,,,,,,0.542,,,,,,,,,,,,,,,,,,,,,,60fdf33fdfb2399145bb4df4,61036e491c694e0cea5f117b,2021-07-29_22h13.43.148,Simcolourproject_2stim_asymm_v5,2020.2.10,MacIntel,60,61025ae37ef11b136ea224fe,,,,,,,,,3612,38,71,1,0,0,response1disk,,7,0,0,1,0,0,rectangle,0,0,1,0,0,0,0,1,0,0,1,85,245,76,1,,,,,,,,
,,,,,,,,,,,,,FF,,,,,,,,0.736,,,,,,,,,,,,,,,,,,,,,,60fdf33fdfb2399145bb4df4,61036e491c694e0cea5f117b,2021-07-29_22h13.43.148,Simcolourproject_2stim_asymm_v5,2020.2.10,MacIntel,60,61025ae37ef11b136ea224fe,,,,,,,,,1383,73,33,1,0,0,response1disk,,6,7,-11,1,0,0,rectangle,7,-11,1,0,0,7,-11,1,0,0,1,86,246,100,1,,,,,,,,
,,,,,,,,,,,,,FF,,,,,,,,0.606,,,,,,,,,,,,,,,,,,,,,,60fdf33fdfb2399145bb4df4,61036e491c694e0cea5f117b,2021-07-29_22h13.43.148,Simcolourproject_2stim_asymm_v5,2020.2.10,MacIntel,60,61025ae37ef11b136ea224fe,,,,,,,,,2678,29,67,1,0,0,response1disk,,7,-6,-3,1,0,0,rectangle,-6,-3,1,0,0,-6,-3,1,0,0,1,87,247,62,1,,,,,,,,
,,,,,,,,,,,,,FF,,,,,,,,1.003,,,,,,,,,,,,,,,,,,,,,,60fdf33fdfb2399145bb4df4,61036e491c694e0cea5f117b,2021-07-29_22h13.43.148,Simcolourproject_2stim_asymm_v5,2020.2.10,MacIntel,60,61025ae37ef11b136ea224fe,,,,,,,,,3383,-74,-31,1,0,0,response5disk,,2,-13,-4,1,0,0,rectangle,-13,-4,1,0,0,-13,-4,1,0,0,1,88,248,124,1,,,,,,,,
,,,,,,,,,,,,,FF,,,,,,,,0.675,,,,,,,,,,,,,,,,,,,,,,60fdf33fdfb2399145bb4df4,61036e491c694e0cea5f117b,2021-07-29_22h13.43.148,Simcolourproject_2stim_asymm_v5,2020.2.10,MacIntel,60,61025ae37ef11b136ea224fe,,,,,,,,,4093,35,61,1,0,0,response1disk,,7,6,-6,1,0,0,rectangle,6,-6,1,0,0,6,-6,1,0,0,1,89,249,57,1,,,,,,,,
,,,,,,,,,,,,,FF,,,,,,,,0.555,,,,,,,,,,,,,,,,,,,,,,60fdf33fdfb2399145bb4df4,61036e491c694e0cea5f117b,2021-07-29_22h13.43.148,Simcolourproject_2stim_asymm_v5,2020.2.10,MacIntel,60,61025ae37ef11b136ea224fe,,,,,,,,,2312,32,81,1,0,0,response1disk,,7,-4,5,1,0,0,rectangle,-4,5,1,0,0,-4,5,1,0,0,1,90,250,14,1,,,,,,,,
,,,,,,,,,,,,,FF,,,,,,,,0.706,,,,,,,,,,,,,,,,,,,,,,60fdf33fdfb2399145bb4df4,61036e491c694e0cea5f117b,2021-07-29_22h13.43.148,Simcolourproject_2stim_asymm_v5,2020.2.10,MacIntel,60,61025ae37ef11b136ea224fe,,,,,,,,,4219,30,80,1,0,0,response1disk,,7,5,8,1,0,0,rectangle,5,8,1,0,0,5,8,1,0,0,1,91,251,127,1,,,,,,,,
,,,,,,,,,,,,,FF,,,,,,,,0.621,,,,,,,,,,,,,,,,,,,,,,60fdf33fdfb2399145bb4df4,61036e491c694e0cea5f117b,2021-07-29_22h13.43.148,Simcolourproject_2stim_asymm_v5,2020.2.10,MacIntel,60,61025ae37ef11b136ea224fe,,,,,,,,,2866,38,72,1,0,0,response1disk,,7,7,-1,1,0,0,rectangle,7,-1,1,0,0,7,-1,1,0,0,1,92,252,60,1,,,,,,,,
,,,,,,,,,,,,,FF,,,,,,,,0.607,,,,,,,,,,,,,,,,,,,,,,60fdf33fdfb2399145bb4df4,61036e491c694e0cea5f117b,2021-07-29_22h13.43.148,Simcolourproject_2stim_asymm_v5,2020.2.10,MacIntel,60,61025ae37ef11b136ea224fe,,,,,,,,,4311,36,80,1,0,0,response1disk,,7,13,3,1,0,0,rectangle,13,3,1,0,0,13,3,1,0,0,1,93,253,112,1,,,,,,,,
,,,,,,,,,,,,,FF,,,,,,,,0.736,,,,,,,,,,,,,,,,,,,,,,60fdf33fdfb2399145bb4df4,61036e491c694e0cea5f117b,2021-07-29_22h13.43.148,Simcolourproject_2stim_asymm_v5,2020.2.10,MacIntel,60,61025ae37ef11b136ea224fe,,,,,,,,,683,21,81,1,0,0,response1disk,,7,-7,8,1,0,0,rectangle,-7,8,1,0,0,-7,8,1,0,0,1,94,254,121,1,,,,,,,,
,,,,,,,,,,,,,FF,,,,,,,,0.446,,,,,,,,,,,,,,,,,,,,,,60fdf33fdfb2399145bb4df4,61036e491c694e0cea5f117b,2021-07-29_22h13.43.148,Simcolourproject_2stim_asymm_v5,2020.2.10,MacIntel,60,61025ae37ef11b136ea224fe,,,,,,,,,238,29,101,1,0,0,response1disk,,7,1,-1,1,0,0,rectangle,1,-1,1,0,0,1,-1,1,0,0,1,95,255,75,1,,,,,,,,
,,,,,,,,,,,,,FF,,,,,,,,0.456,,,,,,,,,,,,,,,,,,,,,,60fdf33fdfb2399145bb4df4,61036e491c694e0cea5f117b,2021-07-29_22h13.43.148,Simcolourproject_2stim_asymm_v5,2020.2.10,MacIntel,60,61025ae37ef11b136ea224fe,,,,,,,,,25,36,74,1,0,0,response1disk,,7,-5,0,1,0,0,rectangle,-5,0,1,0,0,-5,0,1,0,0,1,96,256,134,1,,,,,,,,
,,,,,,,,,,,,,FF,,,,,,,,1.276,,,,,,,,,,,,,,,,,,,,,,60fdf33fdfb2399145bb4df4,61036e491c694e0cea5f117b,2021-07-29_22h13.43.148,Simcolourproject_2stim_asymm_v5,2020.2.10,MacIntel,60,61025ae37ef11b136ea224fe,,,,,,,,,2028,-16,-84,1,0,0,response5disk,,3,0,6,1,0,0,rectangle,0,6,1,0,0,0,6,1,0,0,1,97,257,147,1,,,,,,,,
,,,,,,,,,,,,,FF,,,,,,,,1.008,,,,,,,,,,,,,,,,,,,,,,60fdf33fdfb2399145bb4df4,61036e491c694e0cea5f117b,2021-07-29_22h13.43.148,Simcolourproject_2stim_asymm_v5,2020.2.10,MacIntel,60,61025ae37ef11b136ea224fe,,,,,,,,,1966,-67,-34,1,0,0,response5disk,,2,-6,9,1,0,0,rectangle,-6,9,1,0,0,-6,9,1,0,0,1,98,258,22,1,,,,,,,,
,,,,,,,,,,,,,FF,,,,,,,,0.784,,,,,,,,,,,,,,,,,,,,,,60fdf33fdfb2399145bb4df4,61036e491c694e0cea5f117b,2021-07-29_22h13.43.148,Simcolourproject_2stim_asymm_v5,2020.2.10,MacIntel,60,61025ae37ef11b136ea224fe,,,,,,,,,4140,-40,72,1,0,0,response7disk,,0,-1,-8,1,0,0,rectangle,-1,-8,1,0,0,-1,-8,1,0,0,1,99,259,107,1,,,,,,,,
,,,,,,,,,,,,,FF,,,,,,,,0.685,,,,,,,,,,,,,,,,,,,,,,60fdf33fdfb2399145bb4df4,61036e491c694e0cea5f117b,2021-07-29_22h13.43.148,Simcolourproject_2stim_asymm_v5,2020.2.10,MacIntel,60,61025ae37ef11b136ea224fe,,,,,,,,,3605,28,70,1,0,0,response1disk,,7,-2,-7,1,0,0,rectangle,-2,-7,1,0,0,-2,-7,1,0,0,1,100,260,51,1,,,,,,,,
,,,,,,,,,,,,,FF,,,,,,,,0.711,,,,,,,,,,,,,,,,,,,,,,60fdf33fdfb2399145bb4df4,61036e491c694e0cea5f117b,2021-07-29_22h13.43.148,Simcolourproject_2stim_asymm_v5,2020.2.10,MacIntel,60,61025ae37ef11b136ea224fe,,,,,,,,,2079,23,90,1,0,0,response1disk,,7,-5,-8,1,0,0,rectangle,-5,-8,1,0,0,-5,-8,1,0,0,1,101,261,133,1,,,,,,,,
,,,,,,,,,,,,,FF,,,,,,,,0.568,,,,,,,,,,,,,,,,,,,,,,60fdf33fdfb2399145bb4df4,61036e491c694e0cea5f117b,2021-07-29_22h13.43.148,Simcolourproject_2stim_asymm_v5,2020.2.10,MacIntel,60,61025ae37ef11b136ea224fe,,,,,,,,,850,33,79,1,0,0,response1disk,,7,0,6,1,0,0,rectangle,0,6,1,0,0,0,6,1,0,0,1,102,262,154,1,,,,,,,,
,,,,,,,,,,,,,FF,,,,,,,,0.555,,,,,,,,,,,,,,,,,,,,,,60fdf33fdfb2399145bb4df4,61036e491c694e0cea5f117b,2021-07-29_22h13.43.148,Simcolourproject_2stim_asymm_v5,2020.2.10,MacIntel,60,61025ae37ef11b136ea224fe,,,,,,,,,3650,33,64,1,0,0,response1disk,,7,8,-1,1,0,0,rectangle,8,-1,1,0,0,8,-1,1,0,0,1,103,263,50,1,,,,,,,,
,,,,,,,,,,,,,FF,,,,,,,,1.002,,,,,,,,,,,,,,,,,,,,,,60fdf33fdfb2399145bb4df4,61036e491c694e0cea5f117b,2021-07-29_22h13.43.148,Simcolourproject_2stim_asymm_v5,2020.2.10,MacIntel,60,61025ae37ef11b136ea224fe,,,,,,,,,4339,-40,-86,1,0,0,response5disk,,3,-14,4,1,0,0,rectangle,-14,4,1,0,0,-14,4,1,0,0,1,104,264,6,1,,,,,,,,
,,,,,,,,,,,,,FF,,,,,,,,1.338,,,,,,,,,,,,,,,,,,,,,,60fdf33fdfb2399145bb4df4,61036e491c694e0cea5f117b,2021-07-29_22h13.43.148,Simcolourproject_2stim_asymm_v5,2020.2.10,MacIntel,60,61025ae37ef11b136ea224fe,,,,,,,,,873,91,-25,1,0,0,response3disk,,5,4,-6,1,0,0,rectangle,4,-6,1,0,0,4,-6,1,0,0,1,105,265,104,1,,,,,,,,
,,,,,,,,,,,,,FF,,,,,,,,0.574,,,,,,,,,,,,,,,,,,,,,,60fdf33fdfb2399145bb4df4,61036e491c694e0cea5f117b,2021-07-29_22h13.43.148,Simcolourproject_2stim_asymm_v5,2020.2.10,MacIntel,60,61025ae37ef11b136ea224fe,,,,,,,,,1574,36,88,1,0,0,response1disk,,7,5,8,1,0,0,rectangle,5,8,1,0,0,5,8,1,0,0,1,106,266,23,1,,,,,,,,
,,,,,,,,,,,,,FF,,,,,,,,0.575,,,,,,,,,,,,,,,,,,,,,,60fdf33fdfb2399145bb4df4,61036e491c694e0cea5f117b,2021-07-29_22h13.43.148,Simcolourproject_2stim_asymm_v5,2020.2.10,MacIntel,60,61025ae37ef11b136ea224fe,,,,,,,,,4195,42,84,1,0,0,response1disk,,7,6,-6,1,0,0,rectangle,6,-6,1,0,0,6,-6,1,0,0,1,107,267,140,1,,,,,,,,
,,,,,,,,,,,,,FF,,,,,,,,1.074,,,,,,,,,,,,,,,,,,,,,,60fdf33fdfb2399145bb4df4,61036e491c694e0cea5f117b,2021-07-29_22h13.43.148,Simcolourproject_2stim_asymm_v5,2020.2.10,MacIntel,60,61025ae37ef11b136ea224fe,,,,,,,,,3553,18,-82,1,0,0,response3disk,,4,-7,-10,1,0,0,rectangle,-7,-10,1,0,0,-7,-10,1,0,0,1,108,268,67,1,,,,,,,,
,,,,,,,,,,,,,FF,,,,,,,,1.452,,,,,,,,,,,,,,,,,,,,,,60fdf33fdfb2399145bb4df4,61036e491c694e0cea5f117b,2021-07-29_22h13.43.148,Simcolourproject_2stim_asymm_v5,2020.2.10,MacIntel,60,61025ae37ef11b136ea224fe,,,,,,,,,2618,66,33,1,0,0,response1disk,,6,11,-14,1,0,0,rectangle,11,-14,1,0,0,11,-14,1,0,0,1,109,269,158,1,,,,,,,,
,,,,,,,,,,,,,FF,,,,,,,,1.852,,,,,,,,,,,,,,,,,,,,,,60fdf33fdfb2399145bb4df4,61036e491c694e0cea5f117b,2021-07-29_22h13.43.148,Simcolourproject_2stim_asymm_v5,2020.2.10,MacIntel,60,61025ae37ef11b136ea224fe,,,,,,,,,3703,33,-73,1,0,0,response3disk,,4,2,-5,1,0,0,rectangle,2,-5,1,0,0,2,-5,1,0,0,1,110,270,156,1,,,,,,,,
,,,,,,,,,,,,,FF,,,,,,,,1.044,,,,,,,,,,,,,,,,,,,,,,60fdf33fdfb2399145bb4df4,61036e491c694e0cea5f117b,2021-07-29_22h13.43.148,Simcolourproject_2stim_asymm_v5,2020.2.10,MacIntel,60,61025ae37ef11b136ea224fe,,,,,,,,,387,75,35,1,0,0,response1disk,,6,25,-1,1,0,0,rectangle,25,-1,1,0,0,25,-1,1,0,0,1,111,271,159,1,,,,,,,,
,,,,,,,,,,,,,FF,,,,,,,,0.54,,,,,,,,,,,,,,,,,,,,,,60fdf33fdfb2399145bb4df4,61036e491c694e0cea5f117b,2021-07-29_22h13.43.148,Simcolourproject_2stim_asymm_v5,2020.2.10,MacIntel,60,61025ae37ef11b136ea224fe,,,,,,,,,3412,43,81,1,0,0,response1disk,,7,0,1,1,0,0,rectangle,-92,15,1,0,0,-17,0,1,0,0,1,112,272,78,1,,response7disk_3,TRUE,1,1,"[243,188,276,124,90,90,10,300,0,319,89,173,150,273,217,274,172,216,91,97]",1.985,rectangle
,,,,,,,,,,,,,FF,,,,,,,,0.691,,,,,,,,,,,,,,,,,,,,,,60fdf33fdfb2399145bb4df4,61036e491c694e0cea5f117b,2021-07-29_22h13.43.148,Simcolourproject_2stim_asymm_v5,2020.2.10,MacIntel,60,61025ae37ef11b136ea224fe,,,,,,,,,1155,23,69,1,0,0,response1disk,,7,-15,8,1,0,0,rectangle,83,-56,1,0,0,10,4,1,0,0,1,113,273,126,1,,response3disk_3,TRUE,5,5,"[243,188,276,124,90,90,10,300,0,319,89,173,150,273,217,274,172,216,91,97]",1.625,rectangle
,,,,,,,,,,,,,FF,,,,,,,,1.062,,,,,,,,,,,,,,,,,,,,,,60fdf33fdfb2399145bb4df4,61036e491c694e0cea5f117b,2021-07-29_22h13.43.148,Simcolourproject_2stim_asymm_v5,2020.2.10,MacIntel,60,61025ae37ef11b136ea224fe,,,,,,,,,3377,37,-90,1,0,0,response3disk,,4,-5,-3,1,0,0,rectangle,-5,-3,1,0,0,-5,-3,1,0,0,1,114,274,10,1,,,,,,,,
,,,,,,,,,,,,,FF,,,,,,,,1.37,,,,,,,,,,,,,,,,,,,,,,60fdf33fdfb2399145bb4df4,61036e491c694e0cea5f117b,2021-07-29_22h13.43.148,Simcolourproject_2stim_asymm_v5,2020.2.10,MacIntel,60,61025ae37ef11b136ea224fe,,,,,,,,,3087,82,33,1,0,0,response1disk,,6,-7,5,1,0,0,rectangle,78,21,1,0,0,10,-1,1,0,0,1,115,275,101,1,,response1disk_3,TRUE,6,6,"[243,188,276,124,90,90,10,300,0,319,89,173,150,273,217,274,172,216,91,97]",1.669,rectangle
,,,,,,,,,,,,,FF,,,,,,,,0.607,,,,,,,,,,,,,,,,,,,,,,60fdf33fdfb2399145bb4df4,61036e491c694e0cea5f117b,2021-07-29_22h13.43.148,Simcolourproject_2stim_asymm_v5,2020.2.10,MacIntel,60,61025ae37ef11b136ea224fe,,,,,,,,,600,32,75,1,0,0,response1disk,,7,-10,0,1,0,0,rectangle,-10,0,1,0,0,-10,0,1,0,0,1,116,276,65,1,,,,,,,,
,,,,,,,,,,,,,FF,,,,,,,,0.668,,,,,,,,,,,,,,,,,,,,,,60fdf33fdfb2399145bb4df4,61036e491c694e0cea5f117b,2021-07-29_22h13.43.148,Simcolourproject_2stim_asymm_v5,2020.2.10,MacIntel,60,61025ae37ef11b136ea224fe,,,,,,,,,1805,30,67,1,0,0,response1disk,,7,4,8,1,0,0,rectangle,4,8,1,0,0,4,8,1,0,0,1,117,277,128,1,,,,,,,,
,,,,,,,,,,,,,FF,,,,,,,,1.023,,,,,,,,,,,,,,,,,,,,,,60fdf33fdfb2399145bb4df4,61036e491c694e0cea5f117b,2021-07-29_22h13.43.148,Simcolourproject_2stim_asymm_v5,2020.2.10,MacIntel,60,61025ae37ef11b136ea224fe,,,,,,,,,3187,68,-26,1,0,0,response3disk,,5,-10,-3,1,0,0,rectangle,-10,-3,1,0,0,-10,-3,1,0,0,1,118,278,74,1,,,,,,,,
,,,,,,,,,,,,,FF,,,,,,,,0.919,,,,,,,,,,,,,,,,,,,,,,60fdf33fdfb2399145bb4df4,61036e491c694e0cea5f117b,2021-07-29_22h13.43.148,Simcolourproject_2stim_asymm_v5,2020.2.10,MacIntel,60,61025ae37ef11b136ea224fe,,,,,,,,,1200,70,48,1,0,0,response1disk,,6,-6,0,1,0,0,rectangle,-6,0,1,0,0,-6,0,1,0,0,1,119,279,115,1,,,,,,,,
,,,,,,,,,,,,,FF,,,,,,,,0.61,,,,,,,,,,,,,,,,,,,,,,60fdf33fdfb2399145bb4df4,61036e491c694e0cea5f117b,2021-07-29_22h13.43.148,Simcolourproject_2stim_asymm_v5,2020.2.10,MacIntel,60,61025ae37ef11b136ea224fe,,,,,,,,,82,24,84,1,0,0,response1disk,,7,-8,3,1,0,0,rectangle,-8,3,1,0,0,-8,3,1,0,0,1,120,280,142,1,,,,,,,,
,,,,,,,,,,,,,FF,,,,,,,,0.992,,,,,,,,,,,,,,,,,,,,,,60fdf33fdfb2399145bb4df4,61036e491c694e0cea5f117b,2021-07-29_22h13.43.148,Simcolourproject_2stim_asymm_v5,2020.2.10,MacIntel,60,61025ae37ef11b136ea224fe,,,,,,,,,1733,71,36,1,0,0,response1disk,,6,-1,4,1,0,0,rectangle,-1,4,1,0,0,-1,4,1,0,0,1,121,281,58,1,,,,,,,,
,,,,,,,,,,,,,FF,,,,,,,,0.592,,,,,,,,,,,,,,,,,,,,,,60fdf33fdfb2399145bb4df4,61036e491c694e0cea5f117b,2021-07-29_22h13.43.148,Simcolourproject_2stim_asymm_v5,2020.2.10,MacIntel,60,61025ae37ef11b136ea224fe,,,,,,,,,3770,24,77,1,0,0,response1disk,,7,-6,2,1,0,0,rectangle,-6,2,1,0,0,-6,2,1,0,0,1,122,282,18,1,,,,,,,,
,,,,,,,,,,,,,FF,,,,,,,,0.756,,,,,,,,,,,,,,,,,,,,,,60fdf33fdfb2399145bb4df4,61036e491c694e0cea5f117b,2021-07-29_22h13.43.148,Simcolourproject_2stim_asymm_v5,2020.2.10,MacIntel,60,61025ae37ef11b136ea224fe,,,,,,,,,1065,80,40,1,0,0,response1disk,,6,1,4,1,0,0,rectangle,1,4,1,0,0,1,4,1,0,0,1,123,283,138,1,,,,,,,,
,,,,,,,,,,,,,FF,,,,,,,,0.851,,,,,,,,,,,,,,,,,,,,,,60fdf33fdfb2399145bb4df4,61036e491c694e0cea5f117b,2021-07-29_22h13.43.148,Simcolourproject_2stim_asymm_v5,2020.2.10,MacIntel,60,61025ae37ef11b136ea224fe,,,,,,,,,4235,-32,79,1,0,0,response7disk,,0,-3,8,1,0,0,rectangle,-3,8,1,0,0,-3,8,1,0,0,1,124,284,26,1,,,,,,,,
,,,,,,,,,,,,,FF,,,,,,,,0.736,,,,,,,,,,,,,,,,,,,,,,60fdf33fdfb2399145bb4df4,61036e491c694e0cea5f117b,2021-07-29_22h13.43.148,Simcolourproject_2stim_asymm_v5,2020.2.10,MacIntel,60,61025ae37ef11b136ea224fe,,,,,,,,,332,36,85,1,0,0,response1disk,,7,-4,-4,1,0,0,rectangle,-4,-4,1,0,0,-4,-4,1,0,0,1,125,285,59,1,,,,,,,,
,,,,,,,,,,,,,FF,,,,,,,,1.607,,,,,,,,,,,,,,,,,,,,,,60fdf33fdfb2399145bb4df4,61036e491c694e0cea5f117b,2021-07-29_22h13.43.148,Simcolourproject_2stim_asymm_v5,2020.2.10,MacIntel,60,61025ae37ef11b136ea224fe,,,,,,,,,3911,28,-66,1,0,0,response3disk,,4,-23,2,1,0,0,rectangle,-23,2,1,0,0,-23,2,1,0,0,1,126,286,61,1,,,,,,,,
,,,,,,,,,,,,,FF,,,,,,,,0.572,,,,,,,,,,,,,,,,,,,,,,60fdf33fdfb2399145bb4df4,61036e491c694e0cea5f117b,2021-07-29_22h13.43.148,Simcolourproject_2stim_asymm_v5,2020.2.10,MacIntel,60,61025ae37ef11b136ea224fe,,,,,,,,,1801,27,69,1,0,0,response1disk,,7,-1,2,1,0,0,rectangle,-1,2,1,0,0,-1,2,1,0,0,1,127,287,17,1,,,,,,,,
,,,,,,,,,,,,,FF,,,,,,,,0.617,,,,,,,,,,,,,,,,,,,,,,60fdf33fdfb2399145bb4df4,61036e491c694e0cea5f117b,2021-07-29_22h13.43.148,Simcolourproject_2stim_asymm_v5,2020.2.10,MacIntel,60,61025ae37ef11b136ea224fe,,,,,,,,,2745,31,68,1,0,0,response1disk,,7,-4,-3,1,0,0,rectangle,-4,-3,1,0,0,-4,-3,1,0,0,1,128,288,46,1,,,,,,,,
,,,,,,,,,,,,,FF,,,,,,,,0.641,,,,,,,,,,,,,,,,,,,,,,60fdf33fdfb2399145bb4df4,61036e491c694e0cea5f117b,2021-07-29_22h13.43.148,Simcolourproject_2stim_asymm_v5,2020.2.10,MacIntel,60,61025ae37ef11b136ea224fe,,,,,,,,,4057,33,75,1,0,0,response1disk,,7,3,8,1,0,0,rectangle,3,8,1,0,0,3,8,1,0,0,1,129,289,141,1,,,,,,,,
,,,,,,,,,,,,,FF,,,,,,,,0.869,,,,,,,,,,,,,,,,,,,,,,60fdf33fdfb2399145bb4df4,61036e491c694e0cea5f117b,2021-07-29_22h13.43.148,Simcolourproject_2stim_asymm_v5,2020.2.10,MacIntel,60,61025ae37ef11b136ea224fe,,,,,,,,,826,45,75,1,0,0,response1disk,,7,5,4,1,0,0,rectangle,5,4,1,0,0,5,4,1,0,0,1,130,290,120,1,,,,,,,,
,,,,,,,,,,,,,FF,,,,,,,,0.54,,,,,,,,,,,,,,,,,,,,,,60fdf33fdfb2399145bb4df4,61036e491c694e0cea5f117b,2021-07-29_22h13.43.148,Simcolourproject_2stim_asymm_v5,2020.2.10,MacIntel,60,61025ae37ef11b136ea224fe,,,,,,,,,208,30,96,1,0,0,response1disk,,7,-6,11,1,0,0,rectangle,-6,11,1,0,0,-6,11,1,0,0,1,131,291,153,1,,,,,,,,
,,,,,,,,,,,,,FF,,,,,,,,0.523,,,,,,,,,,,,,,,,,,,,,,60fdf33fdfb2399145bb4df4,61036e491c694e0cea5f117b,2021-07-29_22h13.43.148,Simcolourproject_2stim_asymm_v5,2020.2.10,MacIntel,60,61025ae37ef11b136ea224fe,,,,,,,,,3645,22,79,1,0,0,response1disk,,7,-10,-4,1,0,0,rectangle,-10,-4,1,0,0,-10,-4,1,0,0,1,132,292,83,1,,,,,,,,
,,,,,,,,,,,,,FF,,,,,,,,1.257,,,,,,,,,,,,,,,,,,,,,,60fdf33fdfb2399145bb4df4,61036e491c694e0cea5f117b,2021-07-29_22h13.43.148,Simcolourproject_2stim_asymm_v5,2020.2.10,MacIntel,60,61025ae37ef11b136ea224fe,,,,,,,,,2834,75,-29,1,0,0,response3disk,,5,-2,11,1,0,0,rectangle,-2,11,1,0,0,-2,11,1,0,0,1,133,293,155,1,,,,,,,,
,,,,,,,,,,,,,FF,,,,,,,,0.574,,,,,,,,,,,,,,,,,,,,,,60fdf33fdfb2399145bb4df4,61036e491c694e0cea5f117b,2021-07-29_22h13.43.148,Simcolourproject_2stim_asymm_v5,2020.2.10,MacIntel,60,61025ae37ef11b136ea224fe,,,,,,,,,1176,30,87,1,0,0,response1disk,,7,-3,7,1,0,0,rectangle,-3,7,1,0,0,-3,7,1,0,0,1,134,294,30,1,,,,,,,,
,,,,,,,,,,,,,FF,,,,,,,,5.249,,,,,,,,,,,,,,,,,,,,,,60fdf33fdfb2399145bb4df4,61036e491c694e0cea5f117b,2021-07-29_22h13.43.148,Simcolourproject_2stim_asymm_v5,2020.2.10,MacIntel,60,61025ae37ef11b136ea224fe,,,,,,,,,429,38,79,1,0,0,response1disk,,7,18,4,1,0,0,rectangle,18,4,1,0,0,18,4,1,0,0,1,135,295,29,1,,,,,,,,
,,,,,,,,,,,,,FF,,,,,,,,0.624,,,,,,,,,,,,,,,,,,,,,,60fdf33fdfb2399145bb4df4,61036e491c694e0cea5f117b,2021-07-29_22h13.43.148,Simcolourproject_2stim_asymm_v5,2020.2.10,MacIntel,60,61025ae37ef11b136ea224fe,,,,,,,,,511,33,74,1,0,0,response1disk,,7,0,5,1,0,0,rectangle,0,5,1,0,0,0,5,1,0,0,1,136,296,19,1,,,,,,,,
,,,,,,,,,,,,,FF,,,,,,,,0.507,,,,,,,,,,,,,,,,,,,,,,60fdf33fdfb2399145bb4df4,61036e491c694e0cea5f117b,2021-07-29_22h13.43.148,Simcolourproject_2stim_asymm_v5,2020.2.10,MacIntel,60,61025ae37ef11b136ea224fe,,,,,,,,,3267,36,78,1,0,0,response1disk,,7,2,6,1,0,0,rectangle,2,6,1,0,0,2,6,1,0,0,1,137,297,37,1,,,,,,,,
,,,,,,,,,,,,,FF,,,,,,,,0.573,,,,,,,,,,,,,,,,,,,,,,60fdf33fdfb2399145bb4df4,61036e491c694e0cea5f117b,2021-07-29_22h13.43.148,Simcolourproject_2stim_asymm_v5,2020.2.10,MacIntel,60,61025ae37ef11b136ea224fe,,,,,,,,,2479,34,80,1,0,0,response1disk,,7,-13,11,1,0,0,rectangle,-13,11,1,0,0,-13,11,1,0,0,1,138,298,9,1,,,,,,,,
,,,,,,,,,,,,,FF,,,,,,,,1.434,,,,,,,,,,,,,,,,,,,,,,60fdf33fdfb2399145bb4df4,61036e491c694e0cea5f117b,2021-07-29_22h13.43.148,Simcolourproject_2stim_asymm_v5,2020.2.10,MacIntel,60,61025ae37ef11b136ea224fe,,,,,,,,,638,39,-75,1,0,0,response3disk,,4,7,-4,1,0,0,rectangle,-47,101,1,0,0,-8,-2,1,0,0,1,139,299,21,1,,response7disk_3,TRUE,0,0,"[243,188,276,124,90,90,10,300,0,319,89,173,150,273,217,274,172,216,91,97]",1.704,rectangle
,,,,,,,,,,,,,FF,,,,,,,,0.717,,,,,,,,,,,,,,,,,,,,,,60fdf33fdfb2399145bb4df4,61036e491c694e0cea5f117b,2021-07-29_22h13.43.148,Simcolourproject_2stim_asymm_v5,2020.2.10,MacIntel,60,61025ae37ef11b136ea224fe,,,,,,,,,1924,32,58,1,0,0,response1disk,,7,3,-2,1,0,0,rectangle,3,-2,1,0,0,3,-2,1,0,0,1,140,300,0,1,,,,,,,,
,,,,,,,,,,,,,FF,,,,,,,,0.74,,,,,,,,,,,,,,,,,,,,,,60fdf33fdfb2399145bb4df4,61036e491c694e0cea5f117b,2021-07-29_22h13.43.148,Simcolourproject_2stim_asymm_v5,2020.2.10,MacIntel,60,61025ae37ef11b136ea224fe,,,,,,,,,4135,33,73,1,0,0,response1disk,,7,-2,1,1,0,0,rectangle,-2,1,1,0,0,-2,1,1,0,0,1,141,301,56,1,,,,,,,,
,,,,,,,,,,,,,FF,,,,,,,,0.752,,,,,,,,,,,,,,,,,,,,,,60fdf33fdfb2399145bb4df4,61036e491c694e0cea5f117b,2021-07-29_22h13.43.148,Simcolourproject_2stim_asymm_v5,2020.2.10,MacIntel,60,61025ae37ef11b136ea224fe,,,,,,,,,2309,38,78,1,0,0,response1disk,,7,2,7,1,0,0,rectangle,2,7,1,0,0,2,7,1,0,0,1,142,302,95,1,,,,,,,,
