key_resp.keys,key_resp.rt,key_resp_14.keys,key_resp_14.rt,key_resp_15.keys,key_resp_15.rt,key_resp_17.keys,key_resp_17.rt,key_resp_9.keys,key_resp_9.rt,key_resp_10.keys,key_resp_10.rt,practice_comparison,Ecc,mouse_5.x,mouse_5.y,mouse_5.leftButton,mouse_5.midButton,mouse_5.rightButton,mouse_5.clicked_name,pracsimilarity,response_time,mouse_10.x,mouse_10.y,mouse_10.leftButton,mouse_10.midButton,mouse_10.rightButton,mouse_10.clicked_name,mouse_7.x,mouse_7.y,mouse_7.leftButton,mouse_7.midButton,mouse_7.rightButton,mouse_6.x,mouse_6.y,mouse_6.leftButton,mouse_6.midButton,mouse_6.rightButton,duringprac.thisRepN,duringprac.thisTrialN,duringprac.thisN,duringprac.thisIndex,duringprac.ran,participant,session,date,expName,psychopyVersion,OS,frameRate,study_id,mouse_7.clicked_name,catchpracsimilarity,catch_response_time,catchnumberprac,catchtrialorderprac,mouse_6.clicked_name,key_resp_22.keys,key_resp_22.rt,realcomparison,mouse.x,mouse.y,mouse.leftButton,mouse.midButton,mouse.rightButton,mouse.clicked_name,Colour2,similarity,mouse_2.x,mouse_2.y,mouse_2.leftButton,mouse_2.midButton,mouse_2.rightButton,mouse_2.clicked_name,mouse_3.x,mouse_3.y,mouse_3.leftButton,mouse_3.midButton,mouse_3.rightButton,mouse_11.x,mouse_11.y,mouse_11.leftButton,mouse_11.midButton,mouse_11.rightButton,trials_2.thisRepN,trials_2.thisTrialN,trials_2.thisN,trials_2.thisIndex,trials_2.ran,Colour1,mouse_3.clicked_name,catchornah,catchsimilarity,catchnumber,catchtrialorder,catchRT,mouse_11.clicked_name
space,1.634,space,8.668,space,32.221,space,20.423,space,4.765,space,7.584,11,PF,-29,78,1,0,0,response7disk_5,0,18.553,-13,-2,1,0,0,rectangle_8,-13,-2,1,0,0,-13,-2,1,0,0,0,0,0,1,1,60fd101eff0f1c63455307fe,61036dd53946c5585509af13,2021-07-29_20h11.53.248,Simcolourproject_2stim_asymm_v5,2020.2.10,MacIntel,60,61025ae37ef11b136ea224fe,,,,,,,,,,,,,,,,,,,,,,,,,,,,,,,,,,,,,,,,,,,,,,
,,,,,,,,,,,,106,FF,-61,-91,1,0,0,response5disk_5,3,6.134,-13,-5,1,0,0,rectangle_8,104,-62,1,0,0,5,5,1,0,0,0,1,1,3,1,60fd101eff0f1c63455307fe,61036dd53946c5585509af13,2021-07-29_20h11.53.248,Simcolourproject_2stim_asymm_v5,2020.2.10,MacIntel,60,61025ae37ef11b136ea224fe,response3disk_7,5,3.392,5,"[2,5]",rectangle_4,,,,,,,,,,,,,,,,,,,,,,,,,,,,,,,,,,,,,,,,
,,,,,,,,,,,,65,PF,62,86,1,0,0,response1disk_5,7,4.229,-14,-7,1,0,0,rectangle_8,-14,-7,1,0,0,-14,-7,1,0,0,0,2,2,2,1,60fd101eff0f1c63455307fe,61036dd53946c5585509af13,2021-07-29_20h11.53.248,Simcolourproject_2stim_asymm_v5,2020.2.10,MacIntel,60,61025ae37ef11b136ea224fe,,,,,,,,,,,,,,,,,,,,,,,,,,,,,,,,,,,,,,,,,,,,,,
,,,,,,,,,,,,87,PF,46,89,1,0,0,response1disk_5,7,4.01,-4,3,1,0,0,rectangle_8,-4,3,1,0,0,-4,3,1,0,0,0,3,3,4,1,60fd101eff0f1c63455307fe,61036dd53946c5585509af13,2021-07-29_20h11.53.248,Simcolourproject_2stim_asymm_v5,2020.2.10,MacIntel,60,61025ae37ef11b136ea224fe,,,,,,,,,,,,,,,,,,,,,,,,,,,,,,,,,,,,,,,,,,,,,,
,,,,,,,,,,,,120,FF,34,75,1,0,0,response1disk_5,7,1.488,7,1,1,0,0,rectangle_8,98,-50,1,0,0,-5,-12,1,0,0,0,4,4,0,1,60fd101eff0f1c63455307fe,61036dd53946c5585509af13,2021-07-29_20h11.53.248,Simcolourproject_2stim_asymm_v5,2020.2.10,MacIntel,60,61025ae37ef11b136ea224fe,response3disk_7,5,2.323,5,"[2,5]",rectangle_4,,,,,,,,,,,,,,,,,,,,,,,,,,,,,,,,,,,,,,,,
,,,,,,,,,,,,48,PF,51,73,1,0,0,response1disk_5,7,2.005,-6,-5,1,0,0,rectangle_8,-6,-5,1,0,0,-6,-5,1,0,0,0,5,5,6,1,60fd101eff0f1c63455307fe,61036dd53946c5585509af13,2021-07-29_20h11.53.248,Simcolourproject_2stim_asymm_v5,2020.2.10,MacIntel,60,61025ae37ef11b136ea224fe,,,,,,,,,,,,,,,,,,,,,,,,,,,,,,,,,,,,,,,,,,,,,,
,,,,,,,,,,,,49,FF,82,-41,1,0,0,response3disk_5,5,2.188,14,-6,1,0,0,rectangle_8,14,-6,1,0,0,14,-6,1,0,0,0,6,6,5,1,60fd101eff0f1c63455307fe,61036dd53946c5585509af13,2021-07-29_20h11.53.248,Simcolourproject_2stim_asymm_v5,2020.2.10,MacIntel,60,61025ae37ef11b136ea224fe,,,,,,,,,,,,,,,,,,,,,,,,,,,,,,,,,,,,,,,,,,,,,,
,,,,,,,,,,,,,FF,,,,,,,,1.555,,,,,,,,,,,,,,,,,,,,,,60fd101eff0f1c63455307fe,61036dd53946c5585509af13,2021-07-29_20h11.53.248,Simcolourproject_2stim_asymm_v5,2020.2.10,MacIntel,60,61025ae37ef11b136ea224fe,,,,,,,space,4.197,2269,44,87,1,0,0,response1disk,,7,21,-8,1,0,0,rectangle,21,-8,1,0,0,21,-8,1,0,0,0,0,0,29,1,,,,,,,,
,,,,,,,,,,,,,FF,,,,,,,,1.404,,,,,,,,,,,,,,,,,,,,,,60fd101eff0f1c63455307fe,61036dd53946c5585509af13,2021-07-29_20h11.53.248,Simcolourproject_2stim_asymm_v5,2020.2.10,MacIntel,60,61025ae37ef11b136ea224fe,,,,,,,,,1142,65,-39,1,0,0,response3disk,,5,-1,-5,1,0,0,rectangle,-1,-5,1,0,0,-1,-5,1,0,0,0,1,1,141,1,,,,,,,,
,,,,,,,,,,,,,FF,,,,,,,,1.254,,,,,,,,,,,,,,,,,,,,,,60fd101eff0f1c63455307fe,61036dd53946c5585509af13,2021-07-29_20h11.53.248,Simcolourproject_2stim_asymm_v5,2020.2.10,MacIntel,60,61025ae37ef11b136ea224fe,,,,,,,,,1577,27,90,1,0,0,response1disk,,7,5,-8,1,0,0,rectangle,5,-8,1,0,0,5,-8,1,0,0,0,2,2,38,1,,,,,,,,
,,,,,,,,,,,,,FF,,,,,,,,4.246,,,,,,,,,,,,,,,,,,,,,,60fd101eff0f1c63455307fe,61036dd53946c5585509af13,2021-07-29_20h11.53.248,Simcolourproject_2stim_asymm_v5,2020.2.10,MacIntel,60,61025ae37ef11b136ea224fe,,,,,,,,,2791,95,50,1,0,0,response1disk,,6,-7,-8,1,0,0,rectangle,-7,-8,1,0,0,-7,-8,1,0,0,0,3,3,22,1,,,,,,,,
,,,,,,,,,,,,,FF,,,,,,,,1.421,,,,,,,,,,,,,,,,,,,,,,60fd101eff0f1c63455307fe,61036dd53946c5585509af13,2021-07-29_20h11.53.248,Simcolourproject_2stim_asymm_v5,2020.2.10,MacIntel,60,61025ae37ef11b136ea224fe,,,,,,,,,3678,92,31,1,0,0,response1disk,,6,-5,-5,1,0,0,rectangle,-5,-5,1,0,0,-5,-5,1,0,0,0,4,4,37,1,,,,,,,,
,,,,,,,,,,,,,FF,,,,,,,,3.392,,,,,,,,,,,,,,,,,,,,,,60fd101eff0f1c63455307fe,61036dd53946c5585509af13,2021-07-29_20h11.53.248,Simcolourproject_2stim_asymm_v5,2020.2.10,MacIntel,60,61025ae37ef11b136ea224fe,,,,,,,,,718,80,-43,1,0,0,response3disk,,5,2,-5,1,0,0,rectangle,2,-5,1,0,0,2,-5,1,0,0,0,5,5,50,1,,,,,,,,
,,,,,,,,,,,,,FF,,,,,,,,4.094,,,,,,,,,,,,,,,,,,,,,,60fd101eff0f1c63455307fe,61036dd53946c5585509af13,2021-07-29_20h11.53.248,Simcolourproject_2stim_asymm_v5,2020.2.10,MacIntel,60,61025ae37ef11b136ea224fe,,,,,,,,,727,91,45,1,0,0,response1disk,,6,-4,-8,1,0,0,rectangle,-4,-8,1,0,0,-4,-8,1,0,0,0,6,6,157,1,,,,,,,,
,,,,,,,,,,,,,FF,,,,,,,,1.137,,,,,,,,,,,,,,,,,,,,,,60fd101eff0f1c63455307fe,61036dd53946c5585509af13,2021-07-29_20h11.53.248,Simcolourproject_2stim_asymm_v5,2020.2.10,MacIntel,60,61025ae37ef11b136ea224fe,,,,,,,,,4144,86,27,1,0,0,response1disk,,6,21,-1,1,0,0,rectangle,21,-1,1,0,0,21,-1,1,0,0,0,7,7,129,1,,,,,,,,
,,,,,,,,,,,,,FF,,,,,,,,0.836,,,,,,,,,,,,,,,,,,,,,,60fd101eff0f1c63455307fe,61036dd53946c5585509af13,2021-07-29_20h11.53.248,Simcolourproject_2stim_asymm_v5,2020.2.10,MacIntel,60,61025ae37ef11b136ea224fe,,,,,,,,,2929,32,75,1,0,0,response1disk,,7,4,2,1,0,0,rectangle,4,2,1,0,0,4,2,1,0,0,0,8,8,140,1,,,,,,,,
,,,,,,,,,,,,,FF,,,,,,,,1.471,,,,,,,,,,,,,,,,,,,,,,60fd101eff0f1c63455307fe,61036dd53946c5585509af13,2021-07-29_20h11.53.248,Simcolourproject_2stim_asymm_v5,2020.2.10,MacIntel,60,61025ae37ef11b136ea224fe,,,,,,,,,3341,89,-56,1,0,0,response3disk,,5,8,-3,1,0,0,rectangle,8,-3,1,0,0,8,-3,1,0,0,0,9,9,93,1,,,,,,,,
,,,,,,,,,,,,,FF,,,,,,,,2.105,,,,,,,,,,,,,,,,,,,,,,60fd101eff0f1c63455307fe,61036dd53946c5585509af13,2021-07-29_20h11.53.248,Simcolourproject_2stim_asymm_v5,2020.2.10,MacIntel,60,61025ae37ef11b136ea224fe,,,,,,,,,4040,42,99,1,0,0,response1disk,,7,-2,-10,1,0,0,rectangle,-2,-10,1,0,0,-2,-10,1,0,0,0,10,10,150,1,,,,,,,,
,,,,,,,,,,,,,FF,,,,,,,,1.254,,,,,,,,,,,,,,,,,,,,,,60fd101eff0f1c63455307fe,61036dd53946c5585509af13,2021-07-29_20h11.53.248,Simcolourproject_2stim_asymm_v5,2020.2.10,MacIntel,60,61025ae37ef11b136ea224fe,,,,,,,,,3489,36,72,1,0,0,response1disk,,7,4,-3,1,0,0,rectangle,4,-3,1,0,0,4,-3,1,0,0,0,11,11,55,1,,,,,,,,
,,,,,,,,,,,,,FF,,,,,,,,1.238,,,,,,,,,,,,,,,,,,,,,,60fd101eff0f1c63455307fe,61036dd53946c5585509af13,2021-07-29_20h11.53.248,Simcolourproject_2stim_asymm_v5,2020.2.10,MacIntel,60,61025ae37ef11b136ea224fe,,,,,,,,,3103,22,58,1,0,0,response1disk,,7,-21,-9,1,0,0,rectangle,53,-74,1,0,0,13,-12,1,0,0,0,12,12,114,1,,response3disk_3,TRUE,4,4,"[141,280,257,285,200,13,290,132,104,181,224,147,321,130,314,19,238,264,14,258]",1.922,rectangle
,,,,,,,,,,,,,FF,,,,,,,,1.086,,,,,,,,,,,,,,,,,,,,,,60fd101eff0f1c63455307fe,61036dd53946c5585509af13,2021-07-29_20h11.53.248,Simcolourproject_2stim_asymm_v5,2020.2.10,MacIntel,60,61025ae37ef11b136ea224fe,,,,,,,,,3707,-34,87,1,0,0,response7disk,,0,12,-9,1,0,0,rectangle,-78,-41,1,0,0,-1,-5,1,0,0,0,13,13,90,1,,response5disk_3,TRUE,2,2,"[141,280,257,285,200,13,290,132,104,181,224,147,321,130,314,19,238,264,14,258]",2.458,rectangle
,,,,,,,,,,,,,FF,,,,,,,,1.922,,,,,,,,,,,,,,,,,,,,,,60fd101eff0f1c63455307fe,61036dd53946c5585509af13,2021-07-29_20h11.53.248,Simcolourproject_2stim_asymm_v5,2020.2.10,MacIntel,60,61025ae37ef11b136ea224fe,,,,,,,,,818,43,79,1,0,0,response1disk,,7,-3,-4,1,0,0,rectangle,-3,-4,1,0,0,-3,-4,1,0,0,0,14,14,96,1,,,,,,,,
,,,,,,,,,,,,,FF,,,,,,,,1.036,,,,,,,,,,,,,,,,,,,,,,60fd101eff0f1c63455307fe,61036dd53946c5585509af13,2021-07-29_20h11.53.248,Simcolourproject_2stim_asymm_v5,2020.2.10,MacIntel,60,61025ae37ef11b136ea224fe,,,,,,,,,2729,41,82,1,0,0,response1disk,,7,-19,-18,1,0,0,rectangle,-19,-18,1,0,0,-19,-18,1,0,0,0,15,15,61,1,,,,,,,,
,,,,,,,,,,,,,FF,,,,,,,,12.517,,,,,,,,,,,,,,,,,,,,,,60fd101eff0f1c63455307fe,61036dd53946c5585509af13,2021-07-29_20h11.53.248,Simcolourproject_2stim_asymm_v5,2020.2.10,MacIntel,60,61025ae37ef11b136ea224fe,,,,,,,,,2099,-74,-57,1,0,0,response5disk,,2,4,2,1,0,0,rectangle,4,2,1,0,0,4,2,1,0,0,0,16,16,109,1,,,,,,,,
,,,,,,,,,,,,,FF,,,,,,,,2.307,,,,,,,,,,,,,,,,,,,,,,60fd101eff0f1c63455307fe,61036dd53946c5585509af13,2021-07-29_20h11.53.248,Simcolourproject_2stim_asymm_v5,2020.2.10,MacIntel,60,61025ae37ef11b136ea224fe,,,,,,,,,2908,30,64,1,0,0,response1disk,,7,-1,-10,1,0,0,rectangle,-1,-10,1,0,0,-1,-10,1,0,0,0,17,17,76,1,,,,,,,,
,,,,,,,,,,,,,FF,,,,,,,,1.839,,,,,,,,,,,,,,,,,,,,,,60fd101eff0f1c63455307fe,61036dd53946c5585509af13,2021-07-29_20h11.53.248,Simcolourproject_2stim_asymm_v5,2020.2.10,MacIntel,60,61025ae37ef11b136ea224fe,,,,,,,,,2774,27,71,1,0,0,response1disk,,7,-1,-10,1,0,0,rectangle,32,-62,1,0,0,19,3,1,0,0,0,18,18,42,1,,response3disk_3,TRUE,4,4,"[141,280,257,285,200,13,290,132,104,181,224,147,321,130,314,19,238,264,14,258]",1.337,rectangle
,,,,,,,,,,,,,FF,,,,,,,,0.852,,,,,,,,,,,,,,,,,,,,,,60fd101eff0f1c63455307fe,61036dd53946c5585509af13,2021-07-29_20h11.53.248,Simcolourproject_2stim_asymm_v5,2020.2.10,MacIntel,60,61025ae37ef11b136ea224fe,,,,,,,,,89,25,63,1,0,0,response1disk,,7,-6,-2,1,0,0,rectangle,-6,-2,1,0,0,-6,-2,1,0,0,0,19,19,7,1,,,,,,,,
,,,,,,,,,,,,,FF,,,,,,,,1.871,,,,,,,,,,,,,,,,,,,,,,60fd101eff0f1c63455307fe,61036dd53946c5585509af13,2021-07-29_20h11.53.248,Simcolourproject_2stim_asymm_v5,2020.2.10,MacIntel,60,61025ae37ef11b136ea224fe,,,,,,,,,1897,74,37,1,0,0,response1disk,,6,10,-9,1,0,0,rectangle,10,-9,1,0,0,10,-9,1,0,0,0,20,20,156,1,,,,,,,,
,,,,,,,,,,,,,FF,,,,,,,,0.737,,,,,,,,,,,,,,,,,,,,,,60fd101eff0f1c63455307fe,61036dd53946c5585509af13,2021-07-29_20h11.53.248,Simcolourproject_2stim_asymm_v5,2020.2.10,MacIntel,60,61025ae37ef11b136ea224fe,,,,,,,,,4284,37,90,1,0,0,response1disk,,7,8,1,1,0,0,rectangle,8,1,1,0,0,8,1,1,0,0,0,21,21,84,1,,,,,,,,
,,,,,,,,,,,,,FF,,,,,,,,1.152,,,,,,,,,,,,,,,,,,,,,,60fd101eff0f1c63455307fe,61036dd53946c5585509af13,2021-07-29_20h11.53.248,Simcolourproject_2stim_asymm_v5,2020.2.10,MacIntel,60,61025ae37ef11b136ea224fe,,,,,,,,,4108,75,38,1,0,0,response1disk,,6,0,1,1,0,0,rectangle,0,1,1,0,0,0,1,1,0,0,0,22,22,6,1,,,,,,,,
,,,,,,,,,,,,,FF,,,,,,,,2.189,,,,,,,,,,,,,,,,,,,,,,60fd101eff0f1c63455307fe,61036dd53946c5585509af13,2021-07-29_20h11.53.248,Simcolourproject_2stim_asymm_v5,2020.2.10,MacIntel,60,61025ae37ef11b136ea224fe,,,,,,,,,1136,79,35,1,0,0,response1disk,,6,14,-8,1,0,0,rectangle,14,-8,1,0,0,14,-8,1,0,0,0,23,23,25,1,,,,,,,,
,,,,,,,,,,,,,FF,,,,,,,,1.971,,,,,,,,,,,,,,,,,,,,,,60fd101eff0f1c63455307fe,61036dd53946c5585509af13,2021-07-29_20h11.53.248,Simcolourproject_2stim_asymm_v5,2020.2.10,MacIntel,60,61025ae37ef11b136ea224fe,,,,,,,,,3004,53,72,1,0,0,response1disk,,7,-1,-9,1,0,0,rectangle,-1,-9,1,0,0,-1,-9,1,0,0,0,24,24,56,1,,,,,,,,
,,,,,,,,,,,,,FF,,,,,,,,0.969,,,,,,,,,,,,,,,,,,,,,,60fd101eff0f1c63455307fe,61036dd53946c5585509af13,2021-07-29_20h11.53.248,Simcolourproject_2stim_asymm_v5,2020.2.10,MacIntel,60,61025ae37ef11b136ea224fe,,,,,,,,,255,83,40,1,0,0,response1disk,,6,29,6,1,0,0,rectangle,29,6,1,0,0,29,6,1,0,0,0,25,25,30,1,,,,,,,,
,,,,,,,,,,,,,FF,,,,,,,,0.701,,,,,,,,,,,,,,,,,,,,,,60fd101eff0f1c63455307fe,61036dd53946c5585509af13,2021-07-29_20h11.53.248,Simcolourproject_2stim_asymm_v5,2020.2.10,MacIntel,60,61025ae37ef11b136ea224fe,,,,,,,,,4289,37,85,1,0,0,response1disk,,7,-5,-15,1,0,0,rectangle,-5,-15,1,0,0,-5,-15,1,0,0,0,26,26,63,1,,,,,,,,
,,,,,,,,,,,,,FF,,,,,,,,1.321,,,,,,,,,,,,,,,,,,,,,,60fd101eff0f1c63455307fe,61036dd53946c5585509af13,2021-07-29_20h11.53.248,Simcolourproject_2stim_asymm_v5,2020.2.10,MacIntel,60,61025ae37ef11b136ea224fe,,,,,,,,,2372,52,74,1,0,0,response1disk,,7,-6,0,1,0,0,rectangle,-6,0,1,0,0,-6,0,1,0,0,0,27,27,47,1,,,,,,,,
,,,,,,,,,,,,,FF,,,,,,,,0.602,,,,,,,,,,,,,,,,,,,,,,60fd101eff0f1c63455307fe,61036dd53946c5585509af13,2021-07-29_20h11.53.248,Simcolourproject_2stim_asymm_v5,2020.2.10,MacIntel,60,61025ae37ef11b136ea224fe,,,,,,,,,2199,29,76,1,0,0,response1disk,,7,-5,0,1,0,0,rectangle,-5,0,1,0,0,-5,0,1,0,0,0,28,28,32,1,,,,,,,,
,,,,,,,,,,,,,FF,,,,,,,,0.534,,,,,,,,,,,,,,,,,,,,,,60fd101eff0f1c63455307fe,61036dd53946c5585509af13,2021-07-29_20h11.53.248,Simcolourproject_2stim_asymm_v5,2020.2.10,MacIntel,60,61025ae37ef11b136ea224fe,,,,,,,,,382,32,70,1,0,0,response1disk,,7,1,-3,1,0,0,rectangle,1,-3,1,0,0,1,-3,1,0,0,0,29,29,24,1,,,,,,,,
,,,,,,,,,,,,,FF,,,,,,,,0.735,,,,,,,,,,,,,,,,,,,,,,60fd101eff0f1c63455307fe,61036dd53946c5585509af13,2021-07-29_20h11.53.248,Simcolourproject_2stim_asymm_v5,2020.2.10,MacIntel,60,61025ae37ef11b136ea224fe,,,,,,,,,2102,30,65,1,0,0,response1disk,,7,7,-5,1,0,0,rectangle,7,-5,1,0,0,7,-5,1,0,0,0,30,30,146,1,,,,,,,,
,,,,,,,,,,,,,FF,,,,,,,,0.619,,,,,,,,,,,,,,,,,,,,,,60fd101eff0f1c63455307fe,61036dd53946c5585509af13,2021-07-29_20h11.53.248,Simcolourproject_2stim_asymm_v5,2020.2.10,MacIntel,60,61025ae37ef11b136ea224fe,,,,,,,,,1032,36,70,1,0,0,response1disk,,7,6,-10,1,0,0,rectangle,6,-10,1,0,0,6,-10,1,0,0,0,31,31,31,1,,,,,,,,
,,,,,,,,,,,,,FF,,,,,,,,0.601,,,,,,,,,,,,,,,,,,,,,,60fd101eff0f1c63455307fe,61036dd53946c5585509af13,2021-07-29_20h11.53.248,Simcolourproject_2stim_asymm_v5,2020.2.10,MacIntel,60,61025ae37ef11b136ea224fe,,,,,,,,,1493,37,83,1,0,0,response1disk,,7,13,7,1,0,0,rectangle,13,7,1,0,0,13,7,1,0,0,0,32,32,28,1,,,,,,,,
,,,,,,,,,,,,,FF,,,,,,,,0.502,,,,,,,,,,,,,,,,,,,,,,60fd101eff0f1c63455307fe,61036dd53946c5585509af13,2021-07-29_20h11.53.248,Simcolourproject_2stim_asymm_v5,2020.2.10,MacIntel,60,61025ae37ef11b136ea224fe,,,,,,,,,2766,43,88,1,0,0,response1disk,,7,-4,-15,1,0,0,rectangle,-4,-15,1,0,0,-4,-15,1,0,0,0,33,33,108,1,,,,,,,,
,,,,,,,,,,,,,FF,,,,,,,,0.769,,,,,,,,,,,,,,,,,,,,,,60fd101eff0f1c63455307fe,61036dd53946c5585509af13,2021-07-29_20h11.53.248,Simcolourproject_2stim_asymm_v5,2020.2.10,MacIntel,60,61025ae37ef11b136ea224fe,,,,,,,,,3733,25,65,1,0,0,response1disk,,7,2,6,1,0,0,rectangle,2,6,1,0,0,2,6,1,0,0,0,34,34,71,1,,,,,,,,
,,,,,,,,,,,,,FF,,,,,,,,0.569,,,,,,,,,,,,,,,,,,,,,,60fd101eff0f1c63455307fe,61036dd53946c5585509af13,2021-07-29_20h11.53.248,Simcolourproject_2stim_asymm_v5,2020.2.10,MacIntel,60,61025ae37ef11b136ea224fe,,,,,,,,,929,31,86,1,0,0,response1disk,,7,4,9,1,0,0,rectangle,4,9,1,0,0,4,9,1,0,0,0,35,35,26,1,,,,,,,,
,,,,,,,,,,,,,FF,,,,,,,,0.518,,,,,,,,,,,,,,,,,,,,,,60fd101eff0f1c63455307fe,61036dd53946c5585509af13,2021-07-29_20h11.53.248,Simcolourproject_2stim_asymm_v5,2020.2.10,MacIntel,60,61025ae37ef11b136ea224fe,,,,,,,,,1275,37,70,1,0,0,response1disk,,7,12,0,1,0,0,rectangle,12,0,1,0,0,12,0,1,0,0,0,36,36,100,1,,,,,,,,
,,,,,,,,,,,,,FF,,,,,,,,0.484,,,,,,,,,,,,,,,,,,,,,,60fd101eff0f1c63455307fe,61036dd53946c5585509af13,2021-07-29_20h11.53.248,Simcolourproject_2stim_asymm_v5,2020.2.10,MacIntel,60,61025ae37ef11b136ea224fe,,,,,,,,,3658,37,69,1,0,0,response1disk,,7,19,-6,1,0,0,rectangle,19,-6,1,0,0,19,-6,1,0,0,0,37,37,69,1,,,,,,,,
,,,,,,,,,,,,,FF,,,,,,,,0.435,,,,,,,,,,,,,,,,,,,,,,60fd101eff0f1c63455307fe,61036dd53946c5585509af13,2021-07-29_20h11.53.248,Simcolourproject_2stim_asymm_v5,2020.2.10,MacIntel,60,61025ae37ef11b136ea224fe,,,,,,,,,606,46,88,1,0,0,response1disk,,7,9,0,1,0,0,rectangle,9,0,1,0,0,9,0,1,0,0,0,38,38,35,1,,,,,,,,
,,,,,,,,,,,,,FF,,,,,,,,0.484,,,,,,,,,,,,,,,,,,,,,,60fd101eff0f1c63455307fe,61036dd53946c5585509af13,2021-07-29_20h11.53.248,Simcolourproject_2stim_asymm_v5,2020.2.10,MacIntel,60,61025ae37ef11b136ea224fe,,,,,,,,,4010,37,77,1,0,0,response1disk,,7,-2,-9,1,0,0,rectangle,-2,-9,1,0,0,-2,-9,1,0,0,0,39,39,20,1,,,,,,,,
,,,,,,,,,,,,,FF,,,,,,,,0.502,,,,,,,,,,,,,,,,,,,,,,60fd101eff0f1c63455307fe,61036dd53946c5585509af13,2021-07-29_20h11.53.248,Simcolourproject_2stim_asymm_v5,2020.2.10,MacIntel,60,61025ae37ef11b136ea224fe,,,,,,,,,557,36,92,1,0,0,response1disk,,7,4,5,1,0,0,rectangle,4,5,1,0,0,4,5,1,0,0,0,40,40,128,1,,,,,,,,
,,,,,,,,,,,,,FF,,,,,,,,1.053,,,,,,,,,,,,,,,,,,,,,,60fd101eff0f1c63455307fe,61036dd53946c5585509af13,2021-07-29_20h11.53.248,Simcolourproject_2stim_asymm_v5,2020.2.10,MacIntel,60,61025ae37ef11b136ea224fe,,,,,,,,,3375,87,35,1,0,0,response1disk,,6,18,4,1,0,0,rectangle,18,4,1,0,0,18,4,1,0,0,0,41,41,9,1,,,,,,,,
,,,,,,,,,,,,,FF,,,,,,,,0.769,,,,,,,,,,,,,,,,,,,,,,60fd101eff0f1c63455307fe,61036dd53946c5585509af13,2021-07-29_20h11.53.248,Simcolourproject_2stim_asymm_v5,2020.2.10,MacIntel,60,61025ae37ef11b136ea224fe,,,,,,,,,986,37,72,1,0,0,response1disk,,7,-8,-8,1,0,0,rectangle,-8,-8,1,0,0,-8,-8,1,0,0,0,42,42,97,1,,,,,,,,
,,,,,,,,,,,,,FF,,,,,,,,0.552,,,,,,,,,,,,,,,,,,,,,,60fd101eff0f1c63455307fe,61036dd53946c5585509af13,2021-07-29_20h11.53.248,Simcolourproject_2stim_asymm_v5,2020.2.10,MacIntel,60,61025ae37ef11b136ea224fe,,,,,,,,,1589,38,71,1,0,0,response1disk,,7,0,-8,1,0,0,rectangle,0,-8,1,0,0,0,-8,1,0,0,0,43,43,87,1,,,,,,,,
,,,,,,,,,,,,,FF,,,,,,,,0.467,,,,,,,,,,,,,,,,,,,,,,60fd101eff0f1c63455307fe,61036dd53946c5585509af13,2021-07-29_20h11.53.248,Simcolourproject_2stim_asymm_v5,2020.2.10,MacIntel,60,61025ae37ef11b136ea224fe,,,,,,,,,204,33,65,1,0,0,response1disk,,7,10,0,1,0,0,rectangle,10,0,1,0,0,10,0,1,0,0,0,44,44,79,1,,,,,,,,
,,,,,,,,,,,,,FF,,,,,,,,0.468,,,,,,,,,,,,,,,,,,,,,,60fd101eff0f1c63455307fe,61036dd53946c5585509af13,2021-07-29_20h11.53.248,Simcolourproject_2stim_asymm_v5,2020.2.10,MacIntel,60,61025ae37ef11b136ea224fe,,,,,,,,,2467,36,65,1,0,0,response1disk,,7,1,-11,1,0,0,rectangle,1,-11,1,0,0,1,-11,1,0,0,0,45,45,81,1,,,,,,,,
,,,,,,,,,,,,,FF,,,,,,,,0.468,,,,,,,,,,,,,,,,,,,,,,60fd101eff0f1c63455307fe,61036dd53946c5585509af13,2021-07-29_20h11.53.248,Simcolourproject_2stim_asymm_v5,2020.2.10,MacIntel,60,61025ae37ef11b136ea224fe,,,,,,,,,1178,24,67,1,0,0,response1disk,,7,-3,-6,1,0,0,rectangle,-3,-6,1,0,0,-3,-6,1,0,0,0,46,46,80,1,,,,,,,,
,,,,,,,,,,,,,FF,,,,,,,,1.27,,,,,,,,,,,,,,,,,,,,,,60fd101eff0f1c63455307fe,61036dd53946c5585509af13,2021-07-29_20h11.53.248,Simcolourproject_2stim_asymm_v5,2020.2.10,MacIntel,60,61025ae37ef11b136ea224fe,,,,,,,,,2363,76,45,1,0,0,response1disk,,6,7,-16,1,0,0,rectangle,7,-16,1,0,0,7,-16,1,0,0,0,47,47,124,1,,,,,,,,
,,,,,,,,,,,,,FF,,,,,,,,0.534,,,,,,,,,,,,,,,,,,,,,,60fd101eff0f1c63455307fe,61036dd53946c5585509af13,2021-07-29_20h11.53.248,Simcolourproject_2stim_asymm_v5,2020.2.10,MacIntel,60,61025ae37ef11b136ea224fe,,,,,,,,,2958,37,67,1,0,0,response1disk,,7,6,-3,1,0,0,rectangle,6,-3,1,0,0,6,-3,1,0,0,0,48,48,68,1,,,,,,,,
,,,,,,,,,,,,,FF,,,,,,,,0.635,,,,,,,,,,,,,,,,,,,,,,60fd101eff0f1c63455307fe,61036dd53946c5585509af13,2021-07-29_20h11.53.248,Simcolourproject_2stim_asymm_v5,2020.2.10,MacIntel,60,61025ae37ef11b136ea224fe,,,,,,,,,1152,27,72,1,0,0,response1disk,,7,-3,1,1,0,0,rectangle,-3,1,1,0,0,-3,1,1,0,0,0,49,49,77,1,,,,,,,,
,,,,,,,,,,,,,FF,,,,,,,,0.768,,,,,,,,,,,,,,,,,,,,,,60fd101eff0f1c63455307fe,61036dd53946c5585509af13,2021-07-29_20h11.53.248,Simcolourproject_2stim_asymm_v5,2020.2.10,MacIntel,60,61025ae37ef11b136ea224fe,,,,,,,,,1281,38,71,1,0,0,response1disk,,7,-7,-8,1,0,0,rectangle,-7,-8,1,0,0,-7,-8,1,0,0,0,50,50,52,1,,,,,,,,
,,,,,,,,,,,,,FF,,,,,,,,0.818,,,,,,,,,,,,,,,,,,,,,,60fd101eff0f1c63455307fe,61036dd53946c5585509af13,2021-07-29_20h11.53.248,Simcolourproject_2stim_asymm_v5,2020.2.10,MacIntel,60,61025ae37ef11b136ea224fe,,,,,,,,,274,30,73,1,0,0,response1disk,,7,5,-1,1,0,0,rectangle,5,-1,1,0,0,5,-1,1,0,0,0,51,51,1,1,,,,,,,,
,,,,,,,,,,,,,FF,,,,,,,,0.701,,,,,,,,,,,,,,,,,,,,,,60fd101eff0f1c63455307fe,61036dd53946c5585509af13,2021-07-29_20h11.53.248,Simcolourproject_2stim_asymm_v5,2020.2.10,MacIntel,60,61025ae37ef11b136ea224fe,,,,,,,,,4132,25,60,1,0,0,response1disk,,7,0,1,1,0,0,rectangle,0,1,1,0,0,0,1,1,0,0,0,52,52,67,1,,,,,,,,
,,,,,,,,,,,,,FF,,,,,,,,0.485,,,,,,,,,,,,,,,,,,,,,,60fd101eff0f1c63455307fe,61036dd53946c5585509af13,2021-07-29_20h11.53.248,Simcolourproject_2stim_asymm_v5,2020.2.10,MacIntel,60,61025ae37ef11b136ea224fe,,,,,,,,,3308,28,67,1,0,0,response1disk,,7,-5,-6,1,0,0,rectangle,-5,-6,1,0,0,-5,-6,1,0,0,0,53,53,0,1,,,,,,,,
,,,,,,,,,,,,,FF,,,,,,,,6.652,,,,,,,,,,,,,,,,,,,,,,60fd101eff0f1c63455307fe,61036dd53946c5585509af13,2021-07-29_20h11.53.248,Simcolourproject_2stim_asymm_v5,2020.2.10,MacIntel,60,61025ae37ef11b136ea224fe,,,,,,,,,4358,76,-28,1,0,0,response3disk,,5,21,-1,1,0,0,rectangle,21,-1,1,0,0,21,-1,1,0,0,0,54,54,92,1,,,,,,,,
,,,,,,,,,,,,,FF,,,,,,,,0.685,,,,,,,,,,,,,,,,,,,,,,60fd101eff0f1c63455307fe,61036dd53946c5585509af13,2021-07-29_20h11.53.248,Simcolourproject_2stim_asymm_v5,2020.2.10,MacIntel,60,61025ae37ef11b136ea224fe,,,,,,,,,2344,26,67,1,0,0,response1disk,,7,-3,-8,1,0,0,rectangle,-3,-8,1,0,0,-3,-8,1,0,0,0,55,55,106,1,,,,,,,,
,,,,,,,,,,,,,FF,,,,,,,,0.55,,,,,,,,,,,,,,,,,,,,,,60fd101eff0f1c63455307fe,61036dd53946c5585509af13,2021-07-29_20h11.53.248,Simcolourproject_2stim_asymm_v5,2020.2.10,MacIntel,60,61025ae37ef11b136ea224fe,,,,,,,,,1634,36,59,1,0,0,response1disk,,7,6,-1,1,0,0,rectangle,6,-1,1,0,0,6,-1,1,0,0,0,56,56,119,1,,,,,,,,
,,,,,,,,,,,,,FF,,,,,,,,1.135,,,,,,,,,,,,,,,,,,,,,,60fd101eff0f1c63455307fe,61036dd53946c5585509af13,2021-07-29_20h11.53.248,Simcolourproject_2stim_asymm_v5,2020.2.10,MacIntel,60,61025ae37ef11b136ea224fe,,,,,,,,,4026,77,28,1,0,0,response1disk,,6,15,-9,1,0,0,rectangle,15,-9,1,0,0,15,-9,1,0,0,0,57,57,57,1,,,,,,,,
,,,,,,,,,,,,,FF,,,,,,,,0.501,,,,,,,,,,,,,,,,,,,,,,60fd101eff0f1c63455307fe,61036dd53946c5585509af13,2021-07-29_20h11.53.248,Simcolourproject_2stim_asymm_v5,2020.2.10,MacIntel,60,61025ae37ef11b136ea224fe,,,,,,,,,838,34,68,1,0,0,response1disk,,7,-4,-4,1,0,0,rectangle,-4,-4,1,0,0,-4,-4,1,0,0,0,58,58,19,1,,,,,,,,
,,,,,,,,,,,,,FF,,,,,,,,0.484,,,,,,,,,,,,,,,,,,,,,,60fd101eff0f1c63455307fe,61036dd53946c5585509af13,2021-07-29_20h11.53.248,Simcolourproject_2stim_asymm_v5,2020.2.10,MacIntel,60,61025ae37ef11b136ea224fe,,,,,,,,,403,24,71,1,0,0,response1disk,,7,-8,-1,1,0,0,rectangle,-8,-1,1,0,0,-8,-1,1,0,0,0,59,59,4,1,,,,,,,,
,,,,,,,,,,,,,FF,,,,,,,,0.517,,,,,,,,,,,,,,,,,,,,,,60fd101eff0f1c63455307fe,61036dd53946c5585509af13,2021-07-29_20h11.53.248,Simcolourproject_2stim_asymm_v5,2020.2.10,MacIntel,60,61025ae37ef11b136ea224fe,,,,,,,,,4271,43,96,1,0,0,response1disk,,7,-4,9,1,0,0,rectangle,-4,9,1,0,0,-4,9,1,0,0,0,60,60,143,1,,,,,,,,
,,,,,,,,,,,,,FF,,,,,,,,1.019,,,,,,,,,,,,,,,,,,,,,,60fd101eff0f1c63455307fe,61036dd53946c5585509af13,2021-07-29_20h11.53.248,Simcolourproject_2stim_asymm_v5,2020.2.10,MacIntel,60,61025ae37ef11b136ea224fe,,,,,,,,,2036,79,35,1,0,0,response1disk,,6,-12,-15,1,0,0,rectangle,-12,-15,1,0,0,-12,-15,1,0,0,0,61,61,105,1,,,,,,,,
,,,,,,,,,,,,,FF,,,,,,,,0.701,,,,,,,,,,,,,,,,,,,,,,60fd101eff0f1c63455307fe,61036dd53946c5585509af13,2021-07-29_20h11.53.248,Simcolourproject_2stim_asymm_v5,2020.2.10,MacIntel,60,61025ae37ef11b136ea224fe,,,,,,,,,431,34,66,1,0,0,response1disk,,7,-6,6,1,0,0,rectangle,-6,6,1,0,0,-6,6,1,0,0,0,62,62,59,1,,,,,,,,
,,,,,,,,,,,,,FF,,,,,,,,0.517,,,,,,,,,,,,,,,,,,,,,,60fd101eff0f1c63455307fe,61036dd53946c5585509af13,2021-07-29_20h11.53.248,Simcolourproject_2stim_asymm_v5,2020.2.10,MacIntel,60,61025ae37ef11b136ea224fe,,,,,,,,,2181,39,88,1,0,0,response1disk,,7,1,2,1,0,0,rectangle,1,2,1,0,0,1,2,1,0,0,0,63,63,62,1,,,,,,,,
,,,,,,,,,,,,,FF,,,,,,,,1.721,,,,,,,,,,,,,,,,,,,,,,60fd101eff0f1c63455307fe,61036dd53946c5585509af13,2021-07-29_20h11.53.248,Simcolourproject_2stim_asymm_v5,2020.2.10,MacIntel,60,61025ae37ef11b136ea224fe,,,,,,,,,2718,-80,37,1,0,0,response7disk,,1,-10,-4,1,0,0,rectangle,-10,-4,1,0,0,-10,-4,1,0,0,0,64,64,101,1,,,,,,,,
,,,,,,,,,,,,,FF,,,,,,,,1.621,,,,,,,,,,,,,,,,,,,,,,60fd101eff0f1c63455307fe,61036dd53946c5585509af13,2021-07-29_20h11.53.248,Simcolourproject_2stim_asymm_v5,2020.2.10,MacIntel,60,61025ae37ef11b136ea224fe,,,,,,,,,2749,47,59,1,0,0,response1disk,,7,6,-2,1,0,0,rectangle,6,-2,1,0,0,6,-2,1,0,0,0,65,65,2,1,,,,,,,,
,,,,,,,,,,,,,FF,,,,,,,,0.517,,,,,,,,,,,,,,,,,,,,,,60fd101eff0f1c63455307fe,61036dd53946c5585509af13,2021-07-29_20h11.53.248,Simcolourproject_2stim_asymm_v5,2020.2.10,MacIntel,60,61025ae37ef11b136ea224fe,,,,,,,,,200,28,68,1,0,0,response1disk,,7,2,3,1,0,0,rectangle,2,3,1,0,0,2,3,1,0,0,0,66,66,145,1,,,,,,,,
,,,,,,,,,,,,,FF,,,,,,,,0.535,,,,,,,,,,,,,,,,,,,,,,60fd101eff0f1c63455307fe,61036dd53946c5585509af13,2021-07-29_20h11.53.248,Simcolourproject_2stim_asymm_v5,2020.2.10,MacIntel,60,61025ae37ef11b136ea224fe,,,,,,,,,1398,43,85,1,0,0,response1disk,,7,-7,-3,1,0,0,rectangle,-7,-3,1,0,0,-7,-3,1,0,0,0,67,67,111,1,,,,,,,,
,,,,,,,,,,,,,FF,,,,,,,,0.518,,,,,,,,,,,,,,,,,,,,,,60fd101eff0f1c63455307fe,61036dd53946c5585509af13,2021-07-29_20h11.53.248,Simcolourproject_2stim_asymm_v5,2020.2.10,MacIntel,60,61025ae37ef11b136ea224fe,,,,,,,,,2645,35,65,1,0,0,response1disk,,7,8,1,1,0,0,rectangle,8,1,1,0,0,8,1,1,0,0,0,68,68,118,1,,,,,,,,
,,,,,,,,,,,,,FF,,,,,,,,0.568,,,,,,,,,,,,,,,,,,,,,,60fd101eff0f1c63455307fe,61036dd53946c5585509af13,2021-07-29_20h11.53.248,Simcolourproject_2stim_asymm_v5,2020.2.10,MacIntel,60,61025ae37ef11b136ea224fe,,,,,,,,,4199,39,71,1,0,0,response1disk,,7,-2,-10,1,0,0,rectangle,-2,-10,1,0,0,-2,-10,1,0,0,0,69,69,103,1,,,,,,,,
,,,,,,,,,,,,,FF,,,,,,,,0.484,,,,,,,,,,,,,,,,,,,,,,60fd101eff0f1c63455307fe,61036dd53946c5585509af13,2021-07-29_20h11.53.248,Simcolourproject_2stim_asymm_v5,2020.2.10,MacIntel,60,61025ae37ef11b136ea224fe,,,,,,,,,476,54,75,1,0,0,response1disk,,7,7,6,1,0,0,rectangle,7,6,1,0,0,7,6,1,0,0,0,70,70,36,1,,,,,,,,
,,,,,,,,,,,,,FF,,,,,,,,1.42,,,,,,,,,,,,,,,,,,,,,,60fd101eff0f1c63455307fe,61036dd53946c5585509af13,2021-07-29_20h11.53.248,Simcolourproject_2stim_asymm_v5,2020.2.10,MacIntel,60,61025ae37ef11b136ea224fe,,,,,,,,,2669,47,-70,1,0,0,response3disk,,4,20,-4,1,0,0,rectangle,20,-4,1,0,0,20,-4,1,0,0,0,71,71,88,1,,,,,,,,
,,,,,,,,,,,,,FF,,,,,,,,0.72,,,,,,,,,,,,,,,,,,,,,,60fd101eff0f1c63455307fe,61036dd53946c5585509af13,2021-07-29_20h11.53.248,Simcolourproject_2stim_asymm_v5,2020.2.10,MacIntel,60,61025ae37ef11b136ea224fe,,,,,,,,,409,34,80,1,0,0,response1disk,,7,3,-5,1,0,0,rectangle,3,-5,1,0,0,3,-5,1,0,0,0,72,72,45,1,,,,,,,,
,,,,,,,,,,,,,FF,,,,,,,,0.469,,,,,,,,,,,,,,,,,,,,,,60fd101eff0f1c63455307fe,61036dd53946c5585509af13,2021-07-29_20h11.53.248,Simcolourproject_2stim_asymm_v5,2020.2.10,MacIntel,60,61025ae37ef11b136ea224fe,,,,,,,,,2761,33,78,1,0,0,response1disk,,7,3,4,1,0,0,rectangle,3,4,1,0,0,3,4,1,0,0,0,73,73,127,1,,,,,,,,
,,,,,,,,,,,,,FF,,,,,,,,2.891,,,,,,,,,,,,,,,,,,,,,,60fd101eff0f1c63455307fe,61036dd53946c5585509af13,2021-07-29_20h11.53.248,Simcolourproject_2stim_asymm_v5,2020.2.10,MacIntel,60,61025ae37ef11b136ea224fe,,,,,,,,,3057,67,22,1,0,0,response1disk,,6,22,4,1,0,0,rectangle,22,4,1,0,0,22,4,1,0,0,0,74,74,133,1,,,,,,,,
,,,,,,,,,,,,,FF,,,,,,,,2.472,,,,,,,,,,,,,,,,,,,,,,60fd101eff0f1c63455307fe,61036dd53946c5585509af13,2021-07-29_20h11.53.248,Simcolourproject_2stim_asymm_v5,2020.2.10,MacIntel,60,61025ae37ef11b136ea224fe,,,,,,,,,3839,70,33,1,0,0,response1disk,,6,18,2,1,0,0,rectangle,18,2,1,0,0,18,2,1,0,0,0,75,75,147,1,,,,,,,,
,,,,,,,,,,,,,FF,,,,,,,,0.568,,,,,,,,,,,,,,,,,,,,,,60fd101eff0f1c63455307fe,61036dd53946c5585509af13,2021-07-29_20h11.53.248,Simcolourproject_2stim_asymm_v5,2020.2.10,MacIntel,60,61025ae37ef11b136ea224fe,,,,,,,,,2386,32,59,1,0,0,response1disk,,7,5,-7,1,0,0,rectangle,5,-7,1,0,0,5,-7,1,0,0,0,76,76,33,1,,,,,,,,
,,,,,,,,,,,,,FF,,,,,,,,0.452,,,,,,,,,,,,,,,,,,,,,,60fd101eff0f1c63455307fe,61036dd53946c5585509af13,2021-07-29_20h11.53.248,Simcolourproject_2stim_asymm_v5,2020.2.10,MacIntel,60,61025ae37ef11b136ea224fe,,,,,,,,,2969,24,61,1,0,0,response1disk,,7,9,-7,1,0,0,rectangle,9,-7,1,0,0,9,-7,1,0,0,0,77,77,123,1,,,,,,,,
,,,,,,,,,,,,,FF,,,,,,,,1.821,,,,,,,,,,,,,,,,,,,,,,60fd101eff0f1c63455307fe,61036dd53946c5585509af13,2021-07-29_20h11.53.248,Simcolourproject_2stim_asymm_v5,2020.2.10,MacIntel,60,61025ae37ef11b136ea224fe,,,,,,,,,1951,32,72,1,0,0,response1disk,,7,-3,2,1,0,0,rectangle,-3,2,1,0,0,-3,2,1,0,0,0,78,78,53,1,,,,,,,,
,,,,,,,,,,,,,FF,,,,,,,,1.321,,,,,,,,,,,,,,,,,,,,,,60fd101eff0f1c63455307fe,61036dd53946c5585509af13,2021-07-29_20h11.53.248,Simcolourproject_2stim_asymm_v5,2020.2.10,MacIntel,60,61025ae37ef11b136ea224fe,,,,,,,,,3148,71,-47,1,0,0,response3disk,,5,2,-9,1,0,0,rectangle,2,-9,1,0,0,2,-9,1,0,0,0,79,79,113,1,,,,,,,,
,,,,,,,,,,,,,FF,,,,,,,,0.519,,,,,,,,,,,,,,,,,,,,,,60fd101eff0f1c63455307fe,61036dd53946c5585509af13,2021-07-29_20h11.53.248,Simcolourproject_2stim_asymm_v5,2020.2.10,MacIntel,60,61025ae37ef11b136ea224fe,,,,,,,,,917,32,69,1,0,0,response1disk,,7,2,-1,1,0,0,rectangle,2,-1,1,0,0,2,-1,1,0,0,0,80,80,41,1,,,,,,,,
,,,,,,,,,,,,,FF,,,,,,,,0.483,,,,,,,,,,,,,,,,,,,,,,60fd101eff0f1c63455307fe,61036dd53946c5585509af13,2021-07-29_20h11.53.248,Simcolourproject_2stim_asymm_v5,2020.2.10,MacIntel,60,61025ae37ef11b136ea224fe,,,,,,,,,567,33,78,1,0,0,response1disk,,7,1,-4,1,0,0,rectangle,1,-4,1,0,0,1,-4,1,0,0,0,81,81,15,1,,,,,,,,
,,,,,,,,,,,,,FF,,,,,,,,0.485,,,,,,,,,,,,,,,,,,,,,,60fd101eff0f1c63455307fe,61036dd53946c5585509af13,2021-07-29_20h11.53.248,Simcolourproject_2stim_asymm_v5,2020.2.10,MacIntel,60,61025ae37ef11b136ea224fe,,,,,,,,,2594,31,85,1,0,0,response1disk,,7,-11,-9,1,0,0,rectangle,-11,-9,1,0,0,-11,-9,1,0,0,0,82,82,27,1,,,,,,,,
,,,,,,,,,,,,,FF,,,,,,,,0.419,,,,,,,,,,,,,,,,,,,,,,60fd101eff0f1c63455307fe,61036dd53946c5585509af13,2021-07-29_20h11.53.248,Simcolourproject_2stim_asymm_v5,2020.2.10,MacIntel,60,61025ae37ef11b136ea224fe,,,,,,,,,2558,21,64,1,0,0,response1disk,,7,-8,-17,1,0,0,rectangle,-8,-17,1,0,0,-8,-17,1,0,0,0,83,83,51,1,,,,,,,,
,,,,,,,,,,,,,FF,,,,,,,,0.585,,,,,,,,,,,,,,,,,,,,,,60fd101eff0f1c63455307fe,61036dd53946c5585509af13,2021-07-29_20h11.53.248,Simcolourproject_2stim_asymm_v5,2020.2.10,MacIntel,60,61025ae37ef11b136ea224fe,,,,,,,,,2621,34,66,1,0,0,response1disk,,7,-5,-5,1,0,0,rectangle,-5,-5,1,0,0,-5,-5,1,0,0,0,84,84,34,1,,,,,,,,
,,,,,,,,,,,,,FF,,,,,,,,0.468,,,,,,,,,,,,,,,,,,,,,,60fd101eff0f1c63455307fe,61036dd53946c5585509af13,2021-07-29_20h11.53.248,Simcolourproject_2stim_asymm_v5,2020.2.10,MacIntel,60,61025ae37ef11b136ea224fe,,,,,,,,,1924,38,81,1,0,0,response1disk,,7,16,15,1,0,0,rectangle,16,15,1,0,0,16,15,1,0,0,0,85,85,46,1,,,,,,,,
,,,,,,,,,,,,,FF,,,,,,,,0.368,,,,,,,,,,,,,,,,,,,,,,60fd101eff0f1c63455307fe,61036dd53946c5585509af13,2021-07-29_20h11.53.248,Simcolourproject_2stim_asymm_v5,2020.2.10,MacIntel,60,61025ae37ef11b136ea224fe,,,,,,,,,901,40,86,1,0,0,response1disk,,7,3,-1,1,0,0,rectangle,3,-1,1,0,0,3,-1,1,0,0,0,86,86,11,1,,,,,,,,
,,,,,,,,,,,,,FF,,,,,,,,0.469,,,,,,,,,,,,,,,,,,,,,,60fd101eff0f1c63455307fe,61036dd53946c5585509af13,2021-07-29_20h11.53.248,Simcolourproject_2stim_asymm_v5,2020.2.10,MacIntel,60,61025ae37ef11b136ea224fe,,,,,,,,,3533,28,74,1,0,0,response1disk,,7,-3,-8,1,0,0,rectangle,-3,-8,1,0,0,-3,-8,1,0,0,0,87,87,60,1,,,,,,,,
,,,,,,,,,,,,,FF,,,,,,,,0.585,,,,,,,,,,,,,,,,,,,,,,60fd101eff0f1c63455307fe,61036dd53946c5585509af13,2021-07-29_20h11.53.248,Simcolourproject_2stim_asymm_v5,2020.2.10,MacIntel,60,61025ae37ef11b136ea224fe,,,,,,,,,1867,35,75,1,0,0,response1disk,,7,0,-4,1,0,0,rectangle,0,-4,1,0,0,0,-4,1,0,0,0,88,88,130,1,,,,,,,,
,,,,,,,,,,,,,FF,,,,,,,,0.534,,,,,,,,,,,,,,,,,,,,,,60fd101eff0f1c63455307fe,61036dd53946c5585509af13,2021-07-29_20h11.53.248,Simcolourproject_2stim_asymm_v5,2020.2.10,MacIntel,60,61025ae37ef11b136ea224fe,,,,,,,,,493,33,77,1,0,0,response1disk,,7,-7,-7,1,0,0,rectangle,-7,-7,1,0,0,-7,-7,1,0,0,0,89,89,23,1,,,,,,,,
,,,,,,,,,,,,,FF,,,,,,,,0.551,,,,,,,,,,,,,,,,,,,,,,60fd101eff0f1c63455307fe,61036dd53946c5585509af13,2021-07-29_20h11.53.248,Simcolourproject_2stim_asymm_v5,2020.2.10,MacIntel,60,61025ae37ef11b136ea224fe,,,,,,,,,3302,37,86,1,0,0,response1disk,,7,-7,2,1,0,0,rectangle,-7,2,1,0,0,-7,2,1,0,0,0,90,90,12,1,,,,,,,,
,,,,,,,,,,,,,FF,,,,,,,,1.403,,,,,,,,,,,,,,,,,,,,,,60fd101eff0f1c63455307fe,61036dd53946c5585509af13,2021-07-29_20h11.53.248,Simcolourproject_2stim_asymm_v5,2020.2.10,MacIntel,60,61025ae37ef11b136ea224fe,,,,,,,,,4145,108,-45,1,0,0,response3disk,,5,30,-9,1,0,0,rectangle,30,-9,1,0,0,30,-9,1,0,0,0,91,91,82,1,,,,,,,,
,,,,,,,,,,,,,FF,,,,,,,,0.768,,,,,,,,,,,,,,,,,,,,,,60fd101eff0f1c63455307fe,61036dd53946c5585509af13,2021-07-29_20h11.53.248,Simcolourproject_2stim_asymm_v5,2020.2.10,MacIntel,60,61025ae37ef11b136ea224fe,,,,,,,,,2333,41,78,1,0,0,response1disk,,7,3,2,1,0,0,rectangle,3,2,1,0,0,3,2,1,0,0,0,92,92,49,1,,,,,,,,
,,,,,,,,,,,,,FF,,,,,,,,0.535,,,,,,,,,,,,,,,,,,,,,,60fd101eff0f1c63455307fe,61036dd53946c5585509af13,2021-07-29_20h11.53.248,Simcolourproject_2stim_asymm_v5,2020.2.10,MacIntel,60,61025ae37ef11b136ea224fe,,,,,,,,,3702,37,70,1,0,0,response1disk,,7,11,13,1,0,0,rectangle,11,13,1,0,0,11,13,1,0,0,0,93,93,72,1,,,,,,,,
,,,,,,,,,,,,,FF,,,,,,,,0.467,,,,,,,,,,,,,,,,,,,,,,60fd101eff0f1c63455307fe,61036dd53946c5585509af13,2021-07-29_20h11.53.248,Simcolourproject_2stim_asymm_v5,2020.2.10,MacIntel,60,61025ae37ef11b136ea224fe,,,,,,,,,3758,27,55,1,0,0,response1disk,,7,3,9,1,0,0,rectangle,3,9,1,0,0,3,9,1,0,0,0,94,94,152,1,,,,,,,,
,,,,,,,,,,,,,FF,,,,,,,,0.452,,,,,,,,,,,,,,,,,,,,,,60fd101eff0f1c63455307fe,61036dd53946c5585509af13,2021-07-29_20h11.53.248,Simcolourproject_2stim_asymm_v5,2020.2.10,MacIntel,60,61025ae37ef11b136ea224fe,,,,,,,,,2251,45,85,1,0,0,response1disk,,7,-5,-1,1,0,0,rectangle,-5,-1,1,0,0,-5,-1,1,0,0,0,95,95,3,1,,,,,,,,
,,,,,,,,,,,,,FF,,,,,,,,1.236,,,,,,,,,,,,,,,,,,,,,,60fd101eff0f1c63455307fe,61036dd53946c5585509af13,2021-07-29_20h11.53.248,Simcolourproject_2stim_asymm_v5,2020.2.10,MacIntel,60,61025ae37ef11b136ea224fe,,,,,,,,,2365,68,26,1,0,0,response1disk,,6,4,-15,1,0,0,rectangle,4,-15,1,0,0,4,-15,1,0,0,0,96,96,58,1,,,,,,,,
,,,,,,,,,,,,,FF,,,,,,,,0.418,,,,,,,,,,,,,,,,,,,,,,60fd101eff0f1c63455307fe,61036dd53946c5585509af13,2021-07-29_20h11.53.248,Simcolourproject_2stim_asymm_v5,2020.2.10,MacIntel,60,61025ae37ef11b136ea224fe,,,,,,,,,3182,28,59,1,0,0,response1disk,,7,-13,-3,1,0,0,rectangle,-13,-3,1,0,0,-13,-3,1,0,0,0,97,97,107,1,,,,,,,,
,,,,,,,,,,,,,FF,,,,,,,,0.5,,,,,,,,,,,,,,,,,,,,,,60fd101eff0f1c63455307fe,61036dd53946c5585509af13,2021-07-29_20h11.53.248,Simcolourproject_2stim_asymm_v5,2020.2.10,MacIntel,60,61025ae37ef11b136ea224fe,,,,,,,,,1943,35,92,1,0,0,response1disk,,7,-3,-10,1,0,0,rectangle,-3,-10,1,0,0,-3,-10,1,0,0,0,98,98,151,1,,,,,,,,
,,,,,,,,,,,,,FF,,,,,,,,0.652,,,,,,,,,,,,,,,,,,,,,,60fd101eff0f1c63455307fe,61036dd53946c5585509af13,2021-07-29_20h11.53.248,Simcolourproject_2stim_asymm_v5,2020.2.10,MacIntel,60,61025ae37ef11b136ea224fe,,,,,,,,,829,34,73,1,0,0,response1disk,,7,0,0,1,0,0,rectangle,0,0,1,0,0,0,0,1,0,0,0,99,99,132,1,,,,,,,,
,,,,,,,,,,,,,FF,,,,,,,,1.921,,,,,,,,,,,,,,,,,,,,,,60fd101eff0f1c63455307fe,61036dd53946c5585509af13,2021-07-29_20h11.53.248,Simcolourproject_2stim_asymm_v5,2020.2.10,MacIntel,60,61025ae37ef11b136ea224fe,,,,,,,,,892,65,40,1,0,0,response1disk,,6,0,-5,1,0,0,rectangle,0,-5,1,0,0,0,-5,1,0,0,0,100,100,83,1,,,,,,,,
,,,,,,,,,,,,,FF,,,,,,,,0.468,,,,,,,,,,,,,,,,,,,,,,60fd101eff0f1c63455307fe,61036dd53946c5585509af13,2021-07-29_20h11.53.248,Simcolourproject_2stim_asymm_v5,2020.2.10,MacIntel,60,61025ae37ef11b136ea224fe,,,,,,,,,1647,34,77,1,0,0,response1disk,,7,0,-6,1,0,0,rectangle,0,-6,1,0,0,0,-6,1,0,0,0,101,101,110,1,,,,,,,,
,,,,,,,,,,,,,FF,,,,,,,,0.485,,,,,,,,,,,,,,,,,,,,,,60fd101eff0f1c63455307fe,61036dd53946c5585509af13,2021-07-29_20h11.53.248,Simcolourproject_2stim_asymm_v5,2020.2.10,MacIntel,60,61025ae37ef11b136ea224fe,,,,,,,,,3179,43,83,1,0,0,response1disk,,7,0,10,1,0,0,rectangle,0,10,1,0,0,0,10,1,0,0,0,102,102,112,1,,,,,,,,
,,,,,,,,,,,,,FF,,,,,,,,0.401,,,,,,,,,,,,,,,,,,,,,,60fd101eff0f1c63455307fe,61036dd53946c5585509af13,2021-07-29_20h11.53.248,Simcolourproject_2stim_asymm_v5,2020.2.10,MacIntel,60,61025ae37ef11b136ea224fe,,,,,,,,,873,34,69,1,0,0,response1disk,,7,0,-3,1,0,0,rectangle,-34,79,1,0,0,8,-7,1,0,0,0,103,103,144,1,,response7disk_3,TRUE,0,0,"[141,280,257,285,200,13,290,132,104,181,224,147,321,130,314,19,238,264,14,258]",3.243,rectangle
,,,,,,,,,,,,,FF,,,,,,,,1.02,,,,,,,,,,,,,,,,,,,,,,60fd101eff0f1c63455307fe,61036dd53946c5585509af13,2021-07-29_20h11.53.248,Simcolourproject_2stim_asymm_v5,2020.2.10,MacIntel,60,61025ae37ef11b136ea224fe,,,,,,,,,1553,41,70,1,0,0,response1disk,,7,2,7,1,0,0,rectangle,2,7,1,0,0,2,7,1,0,0,0,104,104,65,1,,,,,,,,
,,,,,,,,,,,,,FF,,,,,,,,0.754,,,,,,,,,,,,,,,,,,,,,,60fd101eff0f1c63455307fe,61036dd53946c5585509af13,2021-07-29_20h11.53.248,Simcolourproject_2stim_asymm_v5,2020.2.10,MacIntel,60,61025ae37ef11b136ea224fe,,,,,,,,,4296,40,77,1,0,0,response1disk,,7,4,10,1,0,0,rectangle,4,10,1,0,0,4,10,1,0,0,0,105,105,121,1,,,,,,,,
,,,,,,,,,,,,,FF,,,,,,,,1.203,,,,,,,,,,,,,,,,,,,,,,60fd101eff0f1c63455307fe,61036dd53946c5585509af13,2021-07-29_20h11.53.248,Simcolourproject_2stim_asymm_v5,2020.2.10,MacIntel,60,61025ae37ef11b136ea224fe,,,,,,,,,2175,41,66,1,0,0,response1disk,,7,8,-10,1,0,0,rectangle,8,-10,1,0,0,8,-10,1,0,0,0,106,106,64,1,,,,,,,,
,,,,,,,,,,,,,FF,,,,,,,,0.518,,,,,,,,,,,,,,,,,,,,,,60fd101eff0f1c63455307fe,61036dd53946c5585509af13,2021-07-29_20h11.53.248,Simcolourproject_2stim_asymm_v5,2020.2.10,MacIntel,60,61025ae37ef11b136ea224fe,,,,,,,,,558,28,61,1,0,0,response1disk,,7,-4,-10,1,0,0,rectangle,-4,-10,1,0,0,-4,-10,1,0,0,0,107,107,158,1,,,,,,,,
,,,,,,,,,,,,,FF,,,,,,,,0.953,,,,,,,,,,,,,,,,,,,,,,60fd101eff0f1c63455307fe,61036dd53946c5585509af13,2021-07-29_20h11.53.248,Simcolourproject_2stim_asymm_v5,2020.2.10,MacIntel,60,61025ae37ef11b136ea224fe,,,,,,,,,266,92,33,1,0,0,response1disk,,6,19,-2,1,0,0,rectangle,19,-2,1,0,0,19,-2,1,0,0,0,108,108,75,1,,,,,,,,
,,,,,,,,,,,,,FF,,,,,,,,0.45,,,,,,,,,,,,,,,,,,,,,,60fd101eff0f1c63455307fe,61036dd53946c5585509af13,2021-07-29_20h11.53.248,Simcolourproject_2stim_asymm_v5,2020.2.10,MacIntel,60,61025ae37ef11b136ea224fe,,,,,,,,,2752,37,71,1,0,0,response1disk,,7,-6,-12,1,0,0,rectangle,-6,-12,1,0,0,-6,-12,1,0,0,0,109,109,116,1,,,,,,,,
,,,,,,,,,,,,,FF,,,,,,,,0.469,,,,,,,,,,,,,,,,,,,,,,60fd101eff0f1c63455307fe,61036dd53946c5585509af13,2021-07-29_20h11.53.248,Simcolourproject_2stim_asymm_v5,2020.2.10,MacIntel,60,61025ae37ef11b136ea224fe,,,,,,,,,658,35,79,1,0,0,response1disk,,7,-6,-9,1,0,0,rectangle,-6,-9,1,0,0,-6,-9,1,0,0,0,110,110,16,1,,,,,,,,
,,,,,,,,,,,,,FF,,,,,,,,0.802,,,,,,,,,,,,,,,,,,,,,,60fd101eff0f1c63455307fe,61036dd53946c5585509af13,2021-07-29_20h11.53.248,Simcolourproject_2stim_asymm_v5,2020.2.10,MacIntel,60,61025ae37ef11b136ea224fe,,,,,,,,,2606,78,35,1,0,0,response1disk,,6,-3,2,1,0,0,rectangle,-3,2,1,0,0,-3,2,1,0,0,0,111,111,21,1,,,,,,,,
,,,,,,,,,,,,,FF,,,,,,,,0.969,,,,,,,,,,,,,,,,,,,,,,60fd101eff0f1c63455307fe,61036dd53946c5585509af13,2021-07-29_20h11.53.248,Simcolourproject_2stim_asymm_v5,2020.2.10,MacIntel,60,61025ae37ef11b136ea224fe,,,,,,,,,2654,73,47,1,0,0,response1disk,,6,4,-2,1,0,0,rectangle,4,-2,1,0,0,4,-2,1,0,0,0,112,112,153,1,,,,,,,,
,,,,,,,,,,,,,FF,,,,,,,,1.287,,,,,,,,,,,,,,,,,,,,,,60fd101eff0f1c63455307fe,61036dd53946c5585509af13,2021-07-29_20h11.53.248,Simcolourproject_2stim_asymm_v5,2020.2.10,MacIntel,60,61025ae37ef11b136ea224fe,,,,,,,,,2948,-69,27,1,0,0,response7disk,,1,-24,4,1,0,0,rectangle,-24,4,1,0,0,-24,4,1,0,0,0,113,113,159,1,,,,,,,,
,,,,,,,,,,,,,FF,,,,,,,,0.585,,,,,,,,,,,,,,,,,,,,,,60fd101eff0f1c63455307fe,61036dd53946c5585509af13,2021-07-29_20h11.53.248,Simcolourproject_2stim_asymm_v5,2020.2.10,MacIntel,60,61025ae37ef11b136ea224fe,,,,,,,,,3226,36,58,1,0,0,response1disk,,7,8,7,1,0,0,rectangle,8,7,1,0,0,8,7,1,0,0,0,114,114,95,1,,,,,,,,
,,,,,,,,,,,,,FF,,,,,,,,0.484,,,,,,,,,,,,,,,,,,,,,,60fd101eff0f1c63455307fe,61036dd53946c5585509af13,2021-07-29_20h11.53.248,Simcolourproject_2stim_asymm_v5,2020.2.10,MacIntel,60,61025ae37ef11b136ea224fe,,,,,,,,,2278,18,75,1,0,0,response1disk,,7,2,-4,1,0,0,rectangle,2,-4,1,0,0,2,-4,1,0,0,0,115,115,98,1,,,,,,,,
,,,,,,,,,,,,,FF,,,,,,,,0.401,,,,,,,,,,,,,,,,,,,,,,60fd101eff0f1c63455307fe,61036dd53946c5585509af13,2021-07-29_20h11.53.248,Simcolourproject_2stim_asymm_v5,2020.2.10,MacIntel,60,61025ae37ef11b136ea224fe,,,,,,,,,2057,60,85,1,0,0,response1disk,,7,19,-4,1,0,0,rectangle,19,-4,1,0,0,19,-4,1,0,0,0,116,116,8,1,,,,,,,,
,,,,,,,,,,,,,FF,,,,,,,,0.567,,,,,,,,,,,,,,,,,,,,,,60fd101eff0f1c63455307fe,61036dd53946c5585509af13,2021-07-29_20h11.53.248,Simcolourproject_2stim_asymm_v5,2020.2.10,MacIntel,60,61025ae37ef11b136ea224fe,,,,,,,,,1326,36,64,1,0,0,response1disk,,7,4,-16,1,0,0,rectangle,4,-16,1,0,0,4,-16,1,0,0,0,117,117,134,1,,,,,,,,
,,,,,,,,,,,,,FF,,,,,,,,0.618,,,,,,,,,,,,,,,,,,,,,,60fd101eff0f1c63455307fe,61036dd53946c5585509af13,2021-07-29_20h11.53.248,Simcolourproject_2stim_asymm_v5,2020.2.10,MacIntel,60,61025ae37ef11b136ea224fe,,,,,,,,,1488,41,80,1,0,0,response1disk,,7,10,-5,1,0,0,rectangle,10,-5,1,0,0,10,-5,1,0,0,0,118,118,155,1,,,,,,,,
,,,,,,,,,,,,,FF,,,,,,,,1.17,,,,,,,,,,,,,,,,,,,,,,60fd101eff0f1c63455307fe,61036dd53946c5585509af13,2021-07-29_20h11.53.248,Simcolourproject_2stim_asymm_v5,2020.2.10,MacIntel,60,61025ae37ef11b136ea224fe,,,,,,,,,1150,94,46,1,0,0,response1disk,,6,27,-8,1,0,0,rectangle,27,-8,1,0,0,27,-8,1,0,0,0,119,119,5,1,,,,,,,,
,,,,,,,,,,,,,FF,,,,,,,,0.685,,,,,,,,,,,,,,,,,,,,,,60fd101eff0f1c63455307fe,61036dd53946c5585509af13,2021-07-29_20h11.53.248,Simcolourproject_2stim_asymm_v5,2020.2.10,MacIntel,60,61025ae37ef11b136ea224fe,,,,,,,,,2052,38,73,1,0,0,response1disk,,7,-17,-9,1,0,0,rectangle,-17,-9,1,0,0,-17,-9,1,0,0,0,120,120,148,1,,,,,,,,
,,,,,,,,,,,,,FF,,,,,,,,0.535,,,,,,,,,,,,,,,,,,,,,,60fd101eff0f1c63455307fe,61036dd53946c5585509af13,2021-07-29_20h11.53.248,Simcolourproject_2stim_asymm_v5,2020.2.10,MacIntel,60,61025ae37ef11b136ea224fe,,,,,,,,,2414,34,78,1,0,0,response1disk,,7,-4,1,1,0,0,rectangle,-4,1,1,0,0,-4,1,1,0,0,0,121,121,78,1,,,,,,,,
,,,,,,,,,,,,,FF,,,,,,,,0.384,,,,,,,,,,,,,,,,,,,,,,60fd101eff0f1c63455307fe,61036dd53946c5585509af13,2021-07-29_20h11.53.248,Simcolourproject_2stim_asymm_v5,2020.2.10,MacIntel,60,61025ae37ef11b136ea224fe,,,,,,,,,748,42,77,1,0,0,response1disk,,7,2,-6,1,0,0,rectangle,2,-6,1,0,0,2,-6,1,0,0,0,122,122,142,1,,,,,,,,
,,,,,,,,,,,,,FF,,,,,,,,0.735,,,,,,,,,,,,,,,,,,,,,,60fd101eff0f1c63455307fe,61036dd53946c5585509af13,2021-07-29_20h11.53.248,Simcolourproject_2stim_asymm_v5,2020.2.10,MacIntel,60,61025ae37ef11b136ea224fe,,,,,,,,,2306,41,63,1,0,0,response1disk,,7,5,2,1,0,0,rectangle,5,2,1,0,0,5,2,1,0,0,0,123,123,54,1,,,,,,,,
,,,,,,,,,,,,,FF,,,,,,,,0.367,,,,,,,,,,,,,,,,,,,,,,60fd101eff0f1c63455307fe,61036dd53946c5585509af13,2021-07-29_20h11.53.248,Simcolourproject_2stim_asymm_v5,2020.2.10,MacIntel,60,61025ae37ef11b136ea224fe,,,,,,,,,866,38,71,1,0,0,response1disk,,7,-7,-11,1,0,0,rectangle,-7,-11,1,0,0,-7,-11,1,0,0,0,124,124,14,1,,,,,,,,
,,,,,,,,,,,,,FF,,,,,,,,0.469,,,,,,,,,,,,,,,,,,,,,,60fd101eff0f1c63455307fe,61036dd53946c5585509af13,2021-07-29_20h11.53.248,Simcolourproject_2stim_asymm_v5,2020.2.10,MacIntel,60,61025ae37ef11b136ea224fe,,,,,,,,,544,42,79,1,0,0,response1disk,,7,12,3,1,0,0,rectangle,12,3,1,0,0,12,3,1,0,0,0,125,125,122,1,,,,,,,,
,,,,,,,,,,,,,FF,,,,,,,,1.471,,,,,,,,,,,,,,,,,,,,,,60fd101eff0f1c63455307fe,61036dd53946c5585509af13,2021-07-29_20h11.53.248,Simcolourproject_2stim_asymm_v5,2020.2.10,MacIntel,60,61025ae37ef11b136ea224fe,,,,,,,,,2104,19,64,1,0,0,response1disk,,7,-7,-3,1,0,0,rectangle,-7,-3,1,0,0,-7,-3,1,0,0,0,126,126,44,1,,,,,,,,
,,,,,,,,,,,,,FF,,,,,,,,0.702,,,,,,,,,,,,,,,,,,,,,,60fd101eff0f1c63455307fe,61036dd53946c5585509af13,2021-07-29_20h11.53.248,Simcolourproject_2stim_asymm_v5,2020.2.10,MacIntel,60,61025ae37ef11b136ea224fe,,,,,,,,,1790,26,70,1,0,0,response1disk,,7,14,2,1,0,0,rectangle,14,2,1,0,0,14,2,1,0,0,0,127,127,125,1,,,,,,,,
,,,,,,,,,,,,,FF,,,,,,,,0.752,,,,,,,,,,,,,,,,,,,,,,60fd101eff0f1c63455307fe,61036dd53946c5585509af13,2021-07-29_20h11.53.248,Simcolourproject_2stim_asymm_v5,2020.2.10,MacIntel,60,61025ae37ef11b136ea224fe,,,,,,,,,569,35,67,1,0,0,response1disk,,7,-8,-2,1,0,0,rectangle,-8,-2,1,0,0,-8,-2,1,0,0,0,128,128,10,1,,,,,,,,
,,,,,,,,,,,,,FF,,,,,,,,0.819,,,,,,,,,,,,,,,,,,,,,,60fd101eff0f1c63455307fe,61036dd53946c5585509af13,2021-07-29_20h11.53.248,Simcolourproject_2stim_asymm_v5,2020.2.10,MacIntel,60,61025ae37ef11b136ea224fe,,,,,,,,,1764,23,58,1,0,0,response1disk,,7,5,-3,1,0,0,rectangle,40,-70,1,0,0,8,4,1,0,0,0,129,129,131,1,,response3disk_3,TRUE,4,4,"[141,280,257,285,200,13,290,132,104,181,224,147,321,130,314,19,238,264,14,258]",1.905,rectangle
,,,,,,,,,,,,,FF,,,,,,,,2.942,,,,,,,,,,,,,,,,,,,,,,60fd101eff0f1c63455307fe,61036dd53946c5585509af13,2021-07-29_20h11.53.248,Simcolourproject_2stim_asymm_v5,2020.2.10,MacIntel,60,61025ae37ef11b136ea224fe,,,,,,,,,2516,36,86,1,0,0,response1disk,,7,2,2,1,0,0,rectangle,2,2,1,0,0,2,2,1,0,0,0,130,130,120,1,,,,,,,,
,,,,,,,,,,,,,FF,,,,,,,,0.836,,,,,,,,,,,,,,,,,,,,,,60fd101eff0f1c63455307fe,61036dd53946c5585509af13,2021-07-29_20h11.53.248,Simcolourproject_2stim_asymm_v5,2020.2.10,MacIntel,60,61025ae37ef11b136ea224fe,,,,,,,,,735,29,64,1,0,0,response1disk,,7,4,8,1,0,0,rectangle,-35,-77,1,0,0,-9,4,1,0,0,0,131,131,70,1,,response5disk_3,TRUE,3,3,"[141,280,257,285,200,13,290,132,104,181,224,147,321,130,314,19,238,264,14,258]",1.604,rectangle
,,,,,,,,,,,,,FF,,,,,,,,0.852,,,,,,,,,,,,,,,,,,,,,,60fd101eff0f1c63455307fe,61036dd53946c5585509af13,2021-07-29_20h11.53.248,Simcolourproject_2stim_asymm_v5,2020.2.10,MacIntel,60,61025ae37ef11b136ea224fe,,,,,,,,,2534,24,67,1,0,0,response1disk,,7,-2,0,1,0,0,rectangle,-2,0,1,0,0,-2,0,1,0,0,0,132,132,126,1,,,,,,,,
,,,,,,,,,,,,,FF,,,,,,,,1.387,,,,,,,,,,,,,,,,,,,,,,60fd101eff0f1c63455307fe,61036dd53946c5585509af13,2021-07-29_20h11.53.248,Simcolourproject_2stim_asymm_v5,2020.2.10,MacIntel,60,61025ae37ef11b136ea224fe,,,,,,,,,2660,-38,81,1,0,0,response7disk,,0,-3,7,1,0,0,rectangle,-3,7,1,0,0,-3,7,1,0,0,0,133,133,138,1,,,,,,,,
,,,,,,,,,,,,,FF,,,,,,,,2.022,,,,,,,,,,,,,,,,,,,,,,60fd101eff0f1c63455307fe,61036dd53946c5585509af13,2021-07-29_20h11.53.248,Simcolourproject_2stim_asymm_v5,2020.2.10,MacIntel,60,61025ae37ef11b136ea224fe,,,,,,,,,3786,33,74,1,0,0,response1disk,,7,17,-3,1,0,0,rectangle,17,-3,1,0,0,17,-3,1,0,0,0,134,134,17,1,,,,,,,,
,,,,,,,,,,,,,FF,,,,,,,,0.736,,,,,,,,,,,,,,,,,,,,,,60fd101eff0f1c63455307fe,61036dd53946c5585509af13,2021-07-29_20h11.53.248,Simcolourproject_2stim_asymm_v5,2020.2.10,MacIntel,60,61025ae37ef11b136ea224fe,,,,,,,,,1260,24,63,1,0,0,response1disk,,7,-2,-18,1,0,0,rectangle,-2,-18,1,0,0,-2,-18,1,0,0,0,135,135,117,1,,,,,,,,
,,,,,,,,,,,,,FF,,,,,,,,0.484,,,,,,,,,,,,,,,,,,,,,,60fd101eff0f1c63455307fe,61036dd53946c5585509af13,2021-07-29_20h11.53.248,Simcolourproject_2stim_asymm_v5,2020.2.10,MacIntel,60,61025ae37ef11b136ea224fe,,,,,,,,,582,44,74,1,0,0,response1disk,,7,19,-10,1,0,0,rectangle,19,-10,1,0,0,19,-10,1,0,0,0,136,136,74,1,,,,,,,,
,,,,,,,,,,,,,FF,,,,,,,,0.535,,,,,,,,,,,,,,,,,,,,,,60fd101eff0f1c63455307fe,61036dd53946c5585509af13,2021-07-29_20h11.53.248,Simcolourproject_2stim_asymm_v5,2020.2.10,MacIntel,60,61025ae37ef11b136ea224fe,,,,,,,,,3178,38,56,1,0,0,response1disk,,7,-8,-8,1,0,0,rectangle,-8,-8,1,0,0,-8,-8,1,0,0,0,137,137,104,1,,,,,,,,
,,,,,,,,,,,,,FF,,,,,,,,0.468,,,,,,,,,,,,,,,,,,,,,,60fd101eff0f1c63455307fe,61036dd53946c5585509af13,2021-07-29_20h11.53.248,Simcolourproject_2stim_asymm_v5,2020.2.10,MacIntel,60,61025ae37ef11b136ea224fe,,,,,,,,,845,25,52,1,0,0,response1disk,,7,3,-2,1,0,0,rectangle,3,-2,1,0,0,3,-2,1,0,0,0,138,138,48,1,,,,,,,,
,,,,,,,,,,,,,FF,,,,,,,,1.103,,,,,,,,,,,,,,,,,,,,,,60fd101eff0f1c63455307fe,61036dd53946c5585509af13,2021-07-29_20h11.53.248,Simcolourproject_2stim_asymm_v5,2020.2.10,MacIntel,60,61025ae37ef11b136ea224fe,,,,,,,,,3743,-78,24,1,0,0,response7disk,,1,-11,5,1,0,0,rectangle,-11,5,1,0,0,-11,5,1,0,0,0,139,139,40,1,,,,,,,,
,,,,,,,,,,,,,FF,,,,,,,,0.803,,,,,,,,,,,,,,,,,,,,,,60fd101eff0f1c63455307fe,61036dd53946c5585509af13,2021-07-29_20h11.53.248,Simcolourproject_2stim_asymm_v5,2020.2.10,MacIntel,60,61025ae37ef11b136ea224fe,,,,,,,,,2246,27,67,1,0,0,response1disk,,7,3,2,1,0,0,rectangle,-88,-56,1,0,0,-24,0,1,0,0,0,140,140,86,1,,response5disk_3,TRUE,2,2,"[141,280,257,285,200,13,290,132,104,181,224,147,321,130,314,19,238,264,14,258]",1.486,rectangle
,,,,,,,,,,,,,FF,,,,,,,,1.89,,,,,,,,,,,,,,,,,,,,,,60fd101eff0f1c63455307fe,61036dd53946c5585509af13,2021-07-29_20h11.53.248,Simcolourproject_2stim_asymm_v5,2020.2.10,MacIntel,60,61025ae37ef11b136ea224fe,,,,,,,,,4116,23,54,1,0,0,response1disk,,7,6,2,1,0,0,rectangle,6,2,1,0,0,6,2,1,0,0,0,141,141,91,1,,,,,,,,
,,,,,,,,,,,,,FF,,,,,,,,0.618,,,,,,,,,,,,,,,,,,,,,,60fd101eff0f1c63455307fe,61036dd53946c5585509af13,2021-07-29_20h11.53.248,Simcolourproject_2stim_asymm_v5,2020.2.10,MacIntel,60,61025ae37ef11b136ea224fe,,,,,,,,,4263,22,69,1,0,0,response1disk,,7,1,7,1,0,0,rectangle,1,7,1,0,0,1,7,1,0,0,0,142,142,154,1,,,,,,,,
,,,,,,,,,,,,,FF,,,,,,,,0.635,,,,,,,,,,,,,,,,,,,,,,60fd101eff0f1c63455307fe,61036dd53946c5585509af13,2021-07-29_20h11.53.248,Simcolourproject_2stim_asymm_v5,2020.2.10,MacIntel,60,61025ae37ef11b136ea224fe,,,,,,,,,1769,29,51,1,0,0,response1disk,,7,11,-2,1,0,0,rectangle,11,-2,1,0,0,11,-2,1,0,0,0,143,143,99,1,,,,,,,,
,,,,,,,,,,,,,FF,,,,,,,,1.436,,,,,,,,,,,,,,,,,,,,,,60fd101eff0f1c63455307fe,61036dd53946c5585509af13,2021-07-29_20h11.53.248,Simcolourproject_2stim_asymm_v5,2020.2.10,MacIntel,60,61025ae37ef11b136ea224fe,,,,,,,,,1889,88,-33,1,0,0,response3disk,,5,17,-8,1,0,0,rectangle,17,-8,1,0,0,17,-8,1,0,0,0,144,144,139,1,,,,,,,,
,,,,,,,,,,,,,FF,,,,,,,,0.602,,,,,,,,,,,,,,,,,,,,,,60fd101eff0f1c63455307fe,61036dd53946c5585509af13,2021-07-29_20h11.53.248,Simcolourproject_2stim_asymm_v5,2020.2.10,MacIntel,60,61025ae37ef11b136ea224fe,,,,,,,,,3724,42,78,1,0,0,response1disk,,7,9,8,1,0,0,rectangle,9,8,1,0,0,9,8,1,0,0,0,145,145,135,1,,,,,,,,
,,,,,,,,,,,,,FF,,,,,,,,0.468,,,,,,,,,,,,,,,,,,,,,,60fd101eff0f1c63455307fe,61036dd53946c5585509af13,2021-07-29_20h11.53.248,Simcolourproject_2stim_asymm_v5,2020.2.10,MacIntel,60,61025ae37ef11b136ea224fe,,,,,,,,,183,38,63,1,0,0,response1disk,,7,6,0,1,0,0,rectangle,74,37,1,0,0,19,3,1,0,0,0,146,146,13,1,,response1disk_3,TRUE,6,6,"[141,280,257,285,200,13,290,132,104,181,224,147,321,130,314,19,238,264,14,258]",1.521,rectangle
,,,,,,,,,,,,,FF,,,,,,,,0.784,,,,,,,,,,,,,,,,,,,,,,60fd101eff0f1c63455307fe,61036dd53946c5585509af13,2021-07-29_20h11.53.248,Simcolourproject_2stim_asymm_v5,2020.2.10,MacIntel,60,61025ae37ef11b136ea224fe,,,,,,,,,3650,26,54,1,0,0,response1disk,,7,-3,0,1,0,0,rectangle,-3,0,1,0,0,-3,0,1,0,0,0,147,147,115,1,,,,,,,,
,,,,,,,,,,,,,FF,,,,,,,,1.304,,,,,,,,,,,,,,,,,,,,,,60fd101eff0f1c63455307fe,61036dd53946c5585509af13,2021-07-29_20h11.53.248,Simcolourproject_2stim_asymm_v5,2020.2.10,MacIntel,60,61025ae37ef11b136ea224fe,,,,,,,,,4140,-55,83,1,0,0,response7disk,,0,-3,2,1,0,0,rectangle,-3,2,1,0,0,-3,2,1,0,0,0,148,148,66,1,,,,,,,,
,,,,,,,,,,,,,FF,,,,,,,,0.669,,,,,,,,,,,,,,,,,,,,,,60fd101eff0f1c63455307fe,61036dd53946c5585509af13,2021-07-29_20h11.53.248,Simcolourproject_2stim_asymm_v5,2020.2.10,MacIntel,60,61025ae37ef11b136ea224fe,,,,,,,,,3833,30,67,1,0,0,response1disk,,7,11,5,1,0,0,rectangle,11,5,1,0,0,11,5,1,0,0,0,149,149,85,1,,,,,,,,
,,,,,,,,,,,,,FF,,,,,,,,1.82,,,,,,,,,,,,,,,,,,,,,,60fd101eff0f1c63455307fe,61036dd53946c5585509af13,2021-07-29_20h11.53.248,Simcolourproject_2stim_asymm_v5,2020.2.10,MacIntel,60,61025ae37ef11b136ea224fe,,,,,,,,,3384,84,-39,1,0,0,response3disk,,5,-8,7,1,0,0,rectangle,-8,7,1,0,0,-8,7,1,0,0,0,150,150,102,1,,,,,,,,
,,,,,,,,,,,,,FF,,,,,,,,1.739,,,,,,,,,,,,,,,,,,,,,,60fd101eff0f1c63455307fe,61036dd53946c5585509af13,2021-07-29_20h11.53.248,Simcolourproject_2stim_asymm_v5,2020.2.10,MacIntel,60,61025ae37ef11b136ea224fe,,,,,,,,,1965,73,-47,1,0,0,response3disk,,5,16,-10,1,0,0,rectangle,16,-10,1,0,0,16,-10,1,0,0,0,151,151,73,1,,,,,,,,
,,,,,,,,,,,,,FF,,,,,,,,1.003,,,,,,,,,,,,,,,,,,,,,,60fd101eff0f1c63455307fe,61036dd53946c5585509af13,2021-07-29_20h11.53.248,Simcolourproject_2stim_asymm_v5,2020.2.10,MacIntel,60,61025ae37ef11b136ea224fe,,,,,,,,,4341,29,74,1,0,0,response1disk,,7,11,-5,1,0,0,rectangle,11,-5,1,0,0,11,-5,1,0,0,0,152,152,149,1,,,,,,,,
,,,,,,,,,,,,,FF,,,,,,,,0.485,,,,,,,,,,,,,,,,,,,,,,60fd101eff0f1c63455307fe,61036dd53946c5585509af13,2021-07-29_20h11.53.248,Simcolourproject_2stim_asymm_v5,2020.2.10,MacIntel,60,61025ae37ef11b136ea224fe,,,,,,,,,3925,35,82,1,0,0,response1disk,,7,1,4,1,0,0,rectangle,1,4,1,0,0,1,4,1,0,0,0,153,153,137,1,,,,,,,,
,,,,,,,,,,,,,FF,,,,,,,,1.135,,,,,,,,,,,,,,,,,,,,,,60fd101eff0f1c63455307fe,61036dd53946c5585509af13,2021-07-29_20h11.53.248,Simcolourproject_2stim_asymm_v5,2020.2.10,MacIntel,60,61025ae37ef11b136ea224fe,,,,,,,,,1450,74,29,1,0,0,response1disk,,6,13,-3,1,0,0,rectangle,13,-3,1,0,0,13,-3,1,0,0,0,154,154,94,1,,,,,,,,
,,,,,,,,,,,,,FF,,,,,,,,1.654,,,,,,,,,,,,,,,,,,,,,,60fd101eff0f1c63455307fe,61036dd53946c5585509af13,2021-07-29_20h11.53.248,Simcolourproject_2stim_asymm_v5,2020.2.10,MacIntel,60,61025ae37ef11b136ea224fe,,,,,,,,,2029,67,26,1,0,0,response1disk,,6,17,5,1,0,0,rectangle,17,5,1,0,0,17,5,1,0,0,0,155,155,136,1,,,,,,,,
,,,,,,,,,,,,,FF,,,,,,,,0.752,,,,,,,,,,,,,,,,,,,,,,60fd101eff0f1c63455307fe,61036dd53946c5585509af13,2021-07-29_20h11.53.248,Simcolourproject_2stim_asymm_v5,2020.2.10,MacIntel,60,61025ae37ef11b136ea224fe,,,,,,,,,1621,30,57,1,0,0,response1disk,,7,4,-1,1,0,0,rectangle,4,-1,1,0,0,4,-1,1,0,0,0,156,156,39,1,,,,,,,,
,,,,,,,,,,,,,FF,,,,,,,,0.601,,,,,,,,,,,,,,,,,,,,,,60fd101eff0f1c63455307fe,61036dd53946c5585509af13,2021-07-29_20h11.53.248,Simcolourproject_2stim_asymm_v5,2020.2.10,MacIntel,60,61025ae37ef11b136ea224fe,,,,,,,,,2399,36,76,1,0,0,response1disk,,7,30,4,1,0,0,rectangle,30,4,1,0,0,30,4,1,0,0,0,157,157,18,1,,,,,,,,
,,,,,,,,,,,,,FF,,,,,,,,1.136,,,,,,,,,,,,,,,,,,,,,,60fd101eff0f1c63455307fe,61036dd53946c5585509af13,2021-07-29_20h11.53.248,Simcolourproject_2stim_asymm_v5,2020.2.10,MacIntel,60,61025ae37ef11b136ea224fe,,,,,,,,,1382,40,73,1,0,0,response1disk,,7,-3,-1,1,0,0,rectangle,-3,-1,1,0,0,-3,-1,1,0,0,0,158,158,89,1,,,,,,,,
,,,,,,,,,,,,,FF,,,,,,,,0.534,,,,,,,,,,,,,,,,,,,,,,60fd101eff0f1c63455307fe,61036dd53946c5585509af13,2021-07-29_20h11.53.248,Simcolourproject_2stim_asymm_v5,2020.2.10,MacIntel,60,61025ae37ef11b136ea224fe,,,,,,,,,3357,29,65,1,0,0,response1disk,,7,2,-2,1,0,0,rectangle,2,-2,1,0,0,2,-2,1,0,0,0,159,159,43,1,,,,,,,,
,,,,,,,,,,,,,FF,,,,,,,,0.634,,,,,,,,,,,,,,,,,,,,,,60fd101eff0f1c63455307fe,61036dd53946c5585509af13,2021-07-29_20h11.53.248,Simcolourproject_2stim_asymm_v5,2020.2.10,MacIntel,60,61025ae37ef11b136ea224fe,,,,,,,,,2269,35,56,1,0,0,response1disk,,7,7,-3,1,0,0,rectangle,7,-3,1,0,0,7,-3,1,0,0,1,0,160,153,1,,,,,,,,
,,,,,,,,,,,,,FF,,,,,,,,0.568,,,,,,,,,,,,,,,,,,,,,,60fd101eff0f1c63455307fe,61036dd53946c5585509af13,2021-07-29_20h11.53.248,Simcolourproject_2stim_asymm_v5,2020.2.10,MacIntel,60,61025ae37ef11b136ea224fe,,,,,,,,,1142,36,56,1,0,0,response1disk,,7,7,4,1,0,0,rectangle,7,4,1,0,0,7,4,1,0,0,1,1,161,41,1,,,,,,,,
,,,,,,,,,,,,,FF,,,,,,,,0.419,,,,,,,,,,,,,,,,,,,,,,60fd101eff0f1c63455307fe,61036dd53946c5585509af13,2021-07-29_20h11.53.248,Simcolourproject_2stim_asymm_v5,2020.2.10,MacIntel,60,61025ae37ef11b136ea224fe,,,,,,,,,1577,30,61,1,0,0,response1disk,,7,9,2,1,0,0,rectangle,9,2,1,0,0,9,2,1,0,0,1,2,162,106,1,,,,,,,,
,,,,,,,,,,,,,FF,,,,,,,,0.501,,,,,,,,,,,,,,,,,,,,,,60fd101eff0f1c63455307fe,61036dd53946c5585509af13,2021-07-29_20h11.53.248,Simcolourproject_2stim_asymm_v5,2020.2.10,MacIntel,60,61025ae37ef11b136ea224fe,,,,,,,,,2791,45,94,1,0,0,response1disk,,7,4,6,1,0,0,rectangle,4,6,1,0,0,4,6,1,0,0,1,3,163,63,1,,,,,,,,
,,,,,,,,,,,,,FF,,,,,,,,0.519,,,,,,,,,,,,,,,,,,,,,,60fd101eff0f1c63455307fe,61036dd53946c5585509af13,2021-07-29_20h11.53.248,Simcolourproject_2stim_asymm_v5,2020.2.10,MacIntel,60,61025ae37ef11b136ea224fe,,,,,,,,,3678,27,60,1,0,0,response1disk,,7,0,-2,1,0,0,rectangle,0,-2,1,0,0,0,-2,1,0,0,1,4,164,89,1,,,,,,,,
,,,,,,,,,,,,,FF,,,,,,,,1.204,,,,,,,,,,,,,,,,,,,,,,60fd101eff0f1c63455307fe,61036dd53946c5585509af13,2021-07-29_20h11.53.248,Simcolourproject_2stim_asymm_v5,2020.2.10,MacIntel,60,61025ae37ef11b136ea224fe,,,,,,,,,718,77,27,1,0,0,response1disk,,6,21,4,1,0,0,rectangle,21,4,1,0,0,21,4,1,0,0,1,5,165,99,1,,,,,,,,
,,,,,,,,,,,,,FF,,,,,,,,0.885,,,,,,,,,,,,,,,,,,,,,,60fd101eff0f1c63455307fe,61036dd53946c5585509af13,2021-07-29_20h11.53.248,Simcolourproject_2stim_asymm_v5,2020.2.10,MacIntel,60,61025ae37ef11b136ea224fe,,,,,,,,,727,32,51,1,0,0,response1disk,,7,7,-7,1,0,0,rectangle,7,-7,1,0,0,7,-7,1,0,0,1,6,166,5,1,,,,,,,,
,,,,,,,,,,,,,FF,,,,,,,,0.785,,,,,,,,,,,,,,,,,,,,,,60fd101eff0f1c63455307fe,61036dd53946c5585509af13,2021-07-29_20h11.53.248,Simcolourproject_2stim_asymm_v5,2020.2.10,MacIntel,60,61025ae37ef11b136ea224fe,,,,,,,,,4144,35,73,1,0,0,response1disk,,7,-1,-2,1,0,0,rectangle,-1,-2,1,0,0,-1,-2,1,0,0,1,7,167,8,1,,,,,,,,
,,,,,,,,,,,,,FF,,,,,,,,0.552,,,,,,,,,,,,,,,,,,,,,,60fd101eff0f1c63455307fe,61036dd53946c5585509af13,2021-07-29_20h11.53.248,Simcolourproject_2stim_asymm_v5,2020.2.10,MacIntel,60,61025ae37ef11b136ea224fe,,,,,,,,,2929,35,70,1,0,0,response1disk,,7,15,7,1,0,0,rectangle,15,7,1,0,0,15,7,1,0,0,1,8,168,22,1,,,,,,,,
,,,,,,,,,,,,,FF,,,,,,,,1.103,,,,,,,,,,,,,,,,,,,,,,60fd101eff0f1c63455307fe,61036dd53946c5585509af13,2021-07-29_20h11.53.248,Simcolourproject_2stim_asymm_v5,2020.2.10,MacIntel,60,61025ae37ef11b136ea224fe,,,,,,,,,3341,91,42,1,0,0,response1disk,,6,11,-6,1,0,0,rectangle,11,-6,1,0,0,11,-6,1,0,0,1,9,169,7,1,,,,,,,,
,,,,,,,,,,,,,FF,,,,,,,,0.552,,,,,,,,,,,,,,,,,,,,,,60fd101eff0f1c63455307fe,61036dd53946c5585509af13,2021-07-29_20h11.53.248,Simcolourproject_2stim_asymm_v5,2020.2.10,MacIntel,60,61025ae37ef11b136ea224fe,,,,,,,,,4040,37,55,1,0,0,response1disk,,7,18,9,1,0,0,rectangle,18,9,1,0,0,18,9,1,0,0,1,10,170,155,1,,,,,,,,
,,,,,,,,,,,,,FF,,,,,,,,0.686,,,,,,,,,,,,,,,,,,,,,,60fd101eff0f1c63455307fe,61036dd53946c5585509af13,2021-07-29_20h11.53.248,Simcolourproject_2stim_asymm_v5,2020.2.10,MacIntel,60,61025ae37ef11b136ea224fe,,,,,,,,,3489,38,82,1,0,0,response1disk,,7,3,-5,1,0,0,rectangle,3,-5,1,0,0,3,-5,1,0,0,1,11,171,28,1,,,,,,,,
,,,,,,,,,,,,,FF,,,,,,,,0.634,,,,,,,,,,,,,,,,,,,,,,60fd101eff0f1c63455307fe,61036dd53946c5585509af13,2021-07-29_20h11.53.248,Simcolourproject_2stim_asymm_v5,2020.2.10,MacIntel,60,61025ae37ef11b136ea224fe,,,,,,,,,3103,24,44,1,0,0,response1disk,,7,6,1,1,0,0,rectangle,6,1,1,0,0,6,1,1,0,0,1,12,172,157,1,,,,,,,,
,,,,,,,,,,,,,FF,,,,,,,,0.685,,,,,,,,,,,,,,,,,,,,,,60fd101eff0f1c63455307fe,61036dd53946c5585509af13,2021-07-29_20h11.53.248,Simcolourproject_2stim_asymm_v5,2020.2.10,MacIntel,60,61025ae37ef11b136ea224fe,,,,,,,,,3707,-35,64,1,0,0,response7disk,,0,-15,0,1,0,0,rectangle,-15,0,1,0,0,-15,0,1,0,0,1,13,173,31,1,,,,,,,,
,,,,,,,,,,,,,FF,,,,,,,,0.586,,,,,,,,,,,,,,,,,,,,,,60fd101eff0f1c63455307fe,61036dd53946c5585509af13,2021-07-29_20h11.53.248,Simcolourproject_2stim_asymm_v5,2020.2.10,MacIntel,60,61025ae37ef11b136ea224fe,,,,,,,,,818,25,55,1,0,0,response1disk,,7,6,6,1,0,0,rectangle,6,6,1,0,0,6,6,1,0,0,1,14,174,27,1,,,,,,,,
,,,,,,,,,,,,,FF,,,,,,,,0.653,,,,,,,,,,,,,,,,,,,,,,60fd101eff0f1c63455307fe,61036dd53946c5585509af13,2021-07-29_20h11.53.248,Simcolourproject_2stim_asymm_v5,2020.2.10,MacIntel,60,61025ae37ef11b136ea224fe,,,,,,,,,2729,21,42,1,0,0,response1disk,,7,7,-6,1,0,0,rectangle,7,-6,1,0,0,7,-6,1,0,0,1,15,175,21,1,,,,,,,,
,,,,,,,,,,,,,FF,,,,,,,,1.003,,,,,,,,,,,,,,,,,,,,,,60fd101eff0f1c63455307fe,61036dd53946c5585509af13,2021-07-29_20h11.53.248,Simcolourproject_2stim_asymm_v5,2020.2.10,MacIntel,60,61025ae37ef11b136ea224fe,,,,,,,,,2099,58,25,1,0,0,response1disk,,6,14,-6,1,0,0,rectangle,14,-6,1,0,0,14,-6,1,0,0,1,16,176,12,1,,,,,,,,
,,,,,,,,,,,,,FF,,,,,,,,0.685,,,,,,,,,,,,,,,,,,,,,,60fd101eff0f1c63455307fe,61036dd53946c5585509af13,2021-07-29_20h11.53.248,Simcolourproject_2stim_asymm_v5,2020.2.10,MacIntel,60,61025ae37ef11b136ea224fe,,,,,,,,,2908,26,51,1,0,0,response1disk,,7,26,-1,1,0,0,rectangle,26,-1,1,0,0,26,-1,1,0,0,1,17,177,150,1,,,,,,,,
,,,,,,,,,,,,,FF,,,,,,,,0.601,,,,,,,,,,,,,,,,,,,,,,60fd101eff0f1c63455307fe,61036dd53946c5585509af13,2021-07-29_20h11.53.248,Simcolourproject_2stim_asymm_v5,2020.2.10,MacIntel,60,61025ae37ef11b136ea224fe,,,,,,,,,2774,34,58,1,0,0,response1disk,,7,10,-2,1,0,0,rectangle,10,-2,1,0,0,10,-2,1,0,0,1,18,178,18,1,,,,,,,,
,,,,,,,,,,,,,FF,,,,,,,,0.453,,,,,,,,,,,,,,,,,,,,,,60fd101eff0f1c63455307fe,61036dd53946c5585509af13,2021-07-29_20h11.53.248,Simcolourproject_2stim_asymm_v5,2020.2.10,MacIntel,60,61025ae37ef11b136ea224fe,,,,,,,,,89,31,70,1,0,0,response1disk,,7,15,5,1,0,0,rectangle,15,5,1,0,0,15,5,1,0,0,1,19,179,55,1,,,,,,,,
,,,,,,,,,,,,,FF,,,,,,,,0.435,,,,,,,,,,,,,,,,,,,,,,60fd101eff0f1c63455307fe,61036dd53946c5585509af13,2021-07-29_20h11.53.248,Simcolourproject_2stim_asymm_v5,2020.2.10,MacIntel,60,61025ae37ef11b136ea224fe,,,,,,,,,1897,31,57,1,0,0,response1disk,,7,1,-12,1,0,0,rectangle,-77,-44,1,0,0,-17,-12,1,0,0,1,20,180,120,1,,response5disk_3,TRUE,2,2,"[141,280,257,285,200,13,290,132,104,181,224,147,321,130,314,19,238,264,14,258]",1.737,rectangle
,,,,,,,,,,,,,FF,,,,,,,,0.919,,,,,,,,,,,,,,,,,,,,,,60fd101eff0f1c63455307fe,61036dd53946c5585509af13,2021-07-29_20h11.53.248,Simcolourproject_2stim_asymm_v5,2020.2.10,MacIntel,60,61025ae37ef11b136ea224fe,,,,,,,,,4284,32,82,1,0,0,response1disk,,7,8,2,1,0,0,rectangle,8,2,1,0,0,8,2,1,0,0,1,21,181,97,1,,,,,,,,
,,,,,,,,,,,,,FF,,,,,,,,0.686,,,,,,,,,,,,,,,,,,,,,,60fd101eff0f1c63455307fe,61036dd53946c5585509af13,2021-07-29_20h11.53.248,Simcolourproject_2stim_asymm_v5,2020.2.10,MacIntel,60,61025ae37ef11b136ea224fe,,,,,,,,,4108,23,46,1,0,0,response1disk,,7,2,-6,1,0,0,rectangle,2,-6,1,0,0,2,-6,1,0,0,1,22,182,15,1,,,,,,,,
,,,,,,,,,,,,,FF,,,,,,,,1.07,,,,,,,,,,,,,,,,,,,,,,60fd101eff0f1c63455307fe,61036dd53946c5585509af13,2021-07-29_20h11.53.248,Simcolourproject_2stim_asymm_v5,2020.2.10,MacIntel,60,61025ae37ef11b136ea224fe,,,,,,,,,1136,83,45,1,0,0,response1disk,,6,9,-9,1,0,0,rectangle,9,-9,1,0,0,9,-9,1,0,0,1,23,183,58,1,,,,,,,,
,,,,,,,,,,,,,FF,,,,,,,,0.787,,,,,,,,,,,,,,,,,,,,,,60fd101eff0f1c63455307fe,61036dd53946c5585509af13,2021-07-29_20h11.53.248,Simcolourproject_2stim_asymm_v5,2020.2.10,MacIntel,60,61025ae37ef11b136ea224fe,,,,,,,,,3004,33,55,1,0,0,response1disk,,7,7,-8,1,0,0,rectangle,7,-8,1,0,0,7,-8,1,0,0,1,24,184,145,1,,,,,,,,
,,,,,,,,,,,,,FF,,,,,,,,1.037,,,,,,,,,,,,,,,,,,,,,,60fd101eff0f1c63455307fe,61036dd53946c5585509af13,2021-07-29_20h11.53.248,Simcolourproject_2stim_asymm_v5,2020.2.10,MacIntel,60,61025ae37ef11b136ea224fe,,,,,,,,,255,88,37,1,0,0,response1disk,,6,8,-4,1,0,0,rectangle,8,-4,1,0,0,8,-4,1,0,0,1,25,185,128,1,,,,,,,,
,,,,,,,,,,,,,FF,,,,,,,,0.635,,,,,,,,,,,,,,,,,,,,,,60fd101eff0f1c63455307fe,61036dd53946c5585509af13,2021-07-29_20h11.53.248,Simcolourproject_2stim_asymm_v5,2020.2.10,MacIntel,60,61025ae37ef11b136ea224fe,,,,,,,,,4289,37,62,1,0,0,response1disk,,7,7,11,1,0,0,rectangle,7,11,1,0,0,7,11,1,0,0,1,26,186,33,1,,,,,,,,
,,,,,,,,,,,,,FF,,,,,,,,0.385,,,,,,,,,,,,,,,,,,,,,,60fd101eff0f1c63455307fe,61036dd53946c5585509af13,2021-07-29_20h11.53.248,Simcolourproject_2stim_asymm_v5,2020.2.10,MacIntel,60,61025ae37ef11b136ea224fe,,,,,,,,,2372,47,68,1,0,0,response1disk,,7,5,5,1,0,0,rectangle,5,5,1,0,0,5,5,1,0,0,1,27,187,25,1,,,,,,,,
,,,,,,,,,,,,,FF,,,,,,,,0.383,,,,,,,,,,,,,,,,,,,,,,60fd101eff0f1c63455307fe,61036dd53946c5585509af13,2021-07-29_20h11.53.248,Simcolourproject_2stim_asymm_v5,2020.2.10,MacIntel,60,61025ae37ef11b136ea224fe,,,,,,,,,2199,34,66,1,0,0,response1disk,,7,2,2,1,0,0,rectangle,2,2,1,0,0,2,2,1,0,0,1,28,188,86,1,,,,,,,,
,,,,,,,,,,,,,FF,,,,,,,,0.4,,,,,,,,,,,,,,,,,,,,,,60fd101eff0f1c63455307fe,61036dd53946c5585509af13,2021-07-29_20h11.53.248,Simcolourproject_2stim_asymm_v5,2020.2.10,MacIntel,60,61025ae37ef11b136ea224fe,,,,,,,,,382,37,60,1,0,0,response1disk,,7,10,3,1,0,0,rectangle,10,3,1,0,0,10,3,1,0,0,1,29,189,57,1,,,,,,,,
,,,,,,,,,,,,,FF,,,,,,,,0.451,,,,,,,,,,,,,,,,,,,,,,60fd101eff0f1c63455307fe,61036dd53946c5585509af13,2021-07-29_20h11.53.248,Simcolourproject_2stim_asymm_v5,2020.2.10,MacIntel,60,61025ae37ef11b136ea224fe,,,,,,,,,2102,43,70,1,0,0,response1disk,,7,5,-7,1,0,0,rectangle,5,-7,1,0,0,5,-7,1,0,0,1,30,190,38,1,,,,,,,,
,,,,,,,,,,,,,FF,,,,,,,,0.652,,,,,,,,,,,,,,,,,,,,,,60fd101eff0f1c63455307fe,61036dd53946c5585509af13,2021-07-29_20h11.53.248,Simcolourproject_2stim_asymm_v5,2020.2.10,MacIntel,60,61025ae37ef11b136ea224fe,,,,,,,,,1032,38,87,1,0,0,response1disk,,7,-3,-2,1,0,0,rectangle,-3,-2,1,0,0,-3,-2,1,0,0,1,31,191,107,1,,,,,,,,
,,,,,,,,,,,,,FF,,,,,,,,0.685,,,,,,,,,,,,,,,,,,,,,,60fd101eff0f1c63455307fe,61036dd53946c5585509af13,2021-07-29_20h11.53.248,Simcolourproject_2stim_asymm_v5,2020.2.10,MacIntel,60,61025ae37ef11b136ea224fe,,,,,,,,,1493,43,88,1,0,0,response1disk,,7,5,14,1,0,0,rectangle,5,14,1,0,0,5,14,1,0,0,1,32,192,24,1,,,,,,,,
,,,,,,,,,,,,,FF,,,,,,,,1.922,,,,,,,,,,,,,,,,,,,,,,60fd101eff0f1c63455307fe,61036dd53946c5585509af13,2021-07-29_20h11.53.248,Simcolourproject_2stim_asymm_v5,2020.2.10,MacIntel,60,61025ae37ef11b136ea224fe,,,,,,,,,2766,30,59,1,0,0,response1disk,,7,6,10,1,0,0,rectangle,6,10,1,0,0,6,10,1,0,0,1,33,193,93,1,,,,,,,,
,,,,,,,,,,,,,FF,,,,,,,,0.617,,,,,,,,,,,,,,,,,,,,,,60fd101eff0f1c63455307fe,61036dd53946c5585509af13,2021-07-29_20h11.53.248,Simcolourproject_2stim_asymm_v5,2020.2.10,MacIntel,60,61025ae37ef11b136ea224fe,,,,,,,,,3733,31,63,1,0,0,response1disk,,7,14,4,1,0,0,rectangle,14,4,1,0,0,14,4,1,0,0,1,34,194,43,1,,,,,,,,
,,,,,,,,,,,,,FF,,,,,,,,0.517,,,,,,,,,,,,,,,,,,,,,,60fd101eff0f1c63455307fe,61036dd53946c5585509af13,2021-07-29_20h11.53.248,Simcolourproject_2stim_asymm_v5,2020.2.10,MacIntel,60,61025ae37ef11b136ea224fe,,,,,,,,,929,32,58,1,0,0,response1disk,,7,4,-17,1,0,0,rectangle,4,-17,1,0,0,4,-17,1,0,0,1,35,195,14,1,,,,,,,,
,,,,,,,,,,,,,FF,,,,,,,,0.468,,,,,,,,,,,,,,,,,,,,,,60fd101eff0f1c63455307fe,61036dd53946c5585509af13,2021-07-29_20h11.53.248,Simcolourproject_2stim_asymm_v5,2020.2.10,MacIntel,60,61025ae37ef11b136ea224fe,,,,,,,,,1275,36,70,1,0,0,response1disk,,7,8,2,1,0,0,rectangle,8,2,1,0,0,8,2,1,0,0,1,36,196,6,1,,,,,,,,
,,,,,,,,,,,,,FF,,,,,,,,1.054,,,,,,,,,,,,,,,,,,,,,,60fd101eff0f1c63455307fe,61036dd53946c5585509af13,2021-07-29_20h11.53.248,Simcolourproject_2stim_asymm_v5,2020.2.10,MacIntel,60,61025ae37ef11b136ea224fe,,,,,,,,,3658,32,61,1,0,0,response1disk,,7,-7,-6,1,0,0,rectangle,-7,-6,1,0,0,-7,-6,1,0,0,1,37,197,143,1,,,,,,,,
,,,,,,,,,,,,,FF,,,,,,,,0.552,,,,,,,,,,,,,,,,,,,,,,60fd101eff0f1c63455307fe,61036dd53946c5585509af13,2021-07-29_20h11.53.248,Simcolourproject_2stim_asymm_v5,2020.2.10,MacIntel,60,61025ae37ef11b136ea224fe,,,,,,,,,606,33,63,1,0,0,response1disk,,7,14,-10,1,0,0,rectangle,14,-10,1,0,0,14,-10,1,0,0,1,38,198,119,1,,,,,,,,
,,,,,,,,,,,,,FF,,,,,,,,0.418,,,,,,,,,,,,,,,,,,,,,,60fd101eff0f1c63455307fe,61036dd53946c5585509af13,2021-07-29_20h11.53.248,Simcolourproject_2stim_asymm_v5,2020.2.10,MacIntel,60,61025ae37ef11b136ea224fe,,,,,,,,,4010,52,76,1,0,0,response1disk,,7,11,-15,1,0,0,rectangle,-58,-35,1,0,0,-10,-7,1,0,0,1,39,199,69,1,,response5disk_3,TRUE,2,2,"[141,280,257,285,200,13,290,132,104,181,224,147,321,130,314,19,238,264,14,258]",1.352,rectangle
,,,,,,,,,,,,,FF,,,,,,,,0.869,,,,,,,,,,,,,,,,,,,,,,60fd101eff0f1c63455307fe,61036dd53946c5585509af13,2021-07-29_20h11.53.248,Simcolourproject_2stim_asymm_v5,2020.2.10,MacIntel,60,61025ae37ef11b136ea224fe,,,,,,,,,557,28,58,1,0,0,response1disk,,7,6,2,1,0,0,rectangle,6,2,1,0,0,6,2,1,0,0,1,40,200,47,1,,,,,,,,
,,,,,,,,,,,,,FF,,,,,,,,1.003,,,,,,,,,,,,,,,,,,,,,,60fd101eff0f1c63455307fe,61036dd53946c5585509af13,2021-07-29_20h11.53.248,Simcolourproject_2stim_asymm_v5,2020.2.10,MacIntel,60,61025ae37ef11b136ea224fe,,,,,,,,,3375,83,35,1,0,0,response1disk,,6,13,-5,1,0,0,rectangle,13,-5,1,0,0,13,-5,1,0,0,1,41,201,110,1,,,,,,,,
,,,,,,,,,,,,,FF,,,,,,,,0.485,,,,,,,,,,,,,,,,,,,,,,60fd101eff0f1c63455307fe,61036dd53946c5585509af13,2021-07-29_20h11.53.248,Simcolourproject_2stim_asymm_v5,2020.2.10,MacIntel,60,61025ae37ef11b136ea224fe,,,,,,,,,986,44,57,1,0,0,response1disk,,7,-2,-6,1,0,0,rectangle,-2,-6,1,0,0,-2,-6,1,0,0,1,42,202,81,1,,,,,,,,
,,,,,,,,,,,,,FF,,,,,,,,0.635,,,,,,,,,,,,,,,,,,,,,,60fd101eff0f1c63455307fe,61036dd53946c5585509af13,2021-07-29_20h11.53.248,Simcolourproject_2stim_asymm_v5,2020.2.10,MacIntel,60,61025ae37ef11b136ea224fe,,,,,,,,,1589,31,69,1,0,0,response1disk,,7,-4,2,1,0,0,rectangle,-4,2,1,0,0,-4,2,1,0,0,1,43,203,44,1,,,,,,,,
,,,,,,,,,,,,,FF,,,,,,,,0.652,,,,,,,,,,,,,,,,,,,,,,60fd101eff0f1c63455307fe,61036dd53946c5585509af13,2021-07-29_20h11.53.248,Simcolourproject_2stim_asymm_v5,2020.2.10,MacIntel,60,61025ae37ef11b136ea224fe,,,,,,,,,204,46,60,1,0,0,response1disk,,7,6,1,1,0,0,rectangle,6,1,1,0,0,6,1,1,0,0,1,44,204,96,1,,,,,,,,
,,,,,,,,,,,,,FF,,,,,,,,0.451,,,,,,,,,,,,,,,,,,,,,,60fd101eff0f1c63455307fe,61036dd53946c5585509af13,2021-07-29_20h11.53.248,Simcolourproject_2stim_asymm_v5,2020.2.10,MacIntel,60,61025ae37ef11b136ea224fe,,,,,,,,,2467,32,70,1,0,0,response1disk,,7,-16,-15,1,0,0,rectangle,-16,-15,1,0,0,-16,-15,1,0,0,1,45,205,87,1,,,,,,,,
,,,,,,,,,,,,,FF,,,,,,,,0.485,,,,,,,,,,,,,,,,,,,,,,60fd101eff0f1c63455307fe,61036dd53946c5585509af13,2021-07-29_20h11.53.248,Simcolourproject_2stim_asymm_v5,2020.2.10,MacIntel,60,61025ae37ef11b136ea224fe,,,,,,,,,1178,44,91,1,0,0,response1disk,,7,-15,-2,1,0,0,rectangle,-15,-2,1,0,0,-15,-2,1,0,0,1,46,206,52,1,,,,,,,,
,,,,,,,,,,,,,FF,,,,,,,,0.769,,,,,,,,,,,,,,,,,,,,,,60fd101eff0f1c63455307fe,61036dd53946c5585509af13,2021-07-29_20h11.53.248,Simcolourproject_2stim_asymm_v5,2020.2.10,MacIntel,60,61025ae37ef11b136ea224fe,,,,,,,,,2363,81,29,1,0,0,response1disk,,6,12,-6,1,0,0,rectangle,12,-6,1,0,0,12,-6,1,0,0,1,47,207,125,1,,,,,,,,
,,,,,,,,,,,,,FF,,,,,,,,0.502,,,,,,,,,,,,,,,,,,,,,,60fd101eff0f1c63455307fe,61036dd53946c5585509af13,2021-07-29_20h11.53.248,Simcolourproject_2stim_asymm_v5,2020.2.10,MacIntel,60,61025ae37ef11b136ea224fe,,,,,,,,,2958,48,68,1,0,0,response1disk,,7,13,7,1,0,0,rectangle,13,7,1,0,0,13,7,1,0,0,1,48,208,32,1,,,,,,,,
,,,,,,,,,,,,,FF,,,,,,,,0.435,,,,,,,,,,,,,,,,,,,,,,60fd101eff0f1c63455307fe,61036dd53946c5585509af13,2021-07-29_20h11.53.248,Simcolourproject_2stim_asymm_v5,2020.2.10,MacIntel,60,61025ae37ef11b136ea224fe,,,,,,,,,1152,32,75,1,0,0,response1disk,,7,-8,-7,1,0,0,rectangle,-8,-7,1,0,0,-8,-7,1,0,0,1,49,209,77,1,,,,,,,,
,,,,,,,,,,,,,FF,,,,,,,,0.535,,,,,,,,,,,,,,,,,,,,,,60fd101eff0f1c63455307fe,61036dd53946c5585509af13,2021-07-29_20h11.53.248,Simcolourproject_2stim_asymm_v5,2020.2.10,MacIntel,60,61025ae37ef11b136ea224fe,,,,,,,,,1281,60,82,1,0,0,response1disk,,7,3,-8,1,0,0,rectangle,3,-8,1,0,0,3,-8,1,0,0,1,50,210,36,1,,,,,,,,
,,,,,,,,,,,,,FF,,,,,,,,0.452,,,,,,,,,,,,,,,,,,,,,,60fd101eff0f1c63455307fe,61036dd53946c5585509af13,2021-07-29_20h11.53.248,Simcolourproject_2stim_asymm_v5,2020.2.10,MacIntel,60,61025ae37ef11b136ea224fe,,,,,,,,,274,38,76,1,0,0,response1disk,,7,-1,-9,1,0,0,rectangle,-1,-9,1,0,0,-1,-9,1,0,0,1,51,211,53,1,,,,,,,,
,,,,,,,,,,,,,FF,,,,,,,,0.451,,,,,,,,,,,,,,,,,,,,,,60fd101eff0f1c63455307fe,61036dd53946c5585509af13,2021-07-29_20h11.53.248,Simcolourproject_2stim_asymm_v5,2020.2.10,MacIntel,60,61025ae37ef11b136ea224fe,,,,,,,,,4132,33,75,1,0,0,response1disk,,7,-7,-17,1,0,0,rectangle,-7,-17,1,0,0,-7,-17,1,0,0,1,52,212,74,1,,,,,,,,
,,,,,,,,,,,,,FF,,,,,,,,0.569,,,,,,,,,,,,,,,,,,,,,,60fd101eff0f1c63455307fe,61036dd53946c5585509af13,2021-07-29_20h11.53.248,Simcolourproject_2stim_asymm_v5,2020.2.10,MacIntel,60,61025ae37ef11b136ea224fe,,,,,,,,,3308,32,108,1,0,0,response1disk,,7,4,5,1,0,0,rectangle,4,5,1,0,0,4,5,1,0,0,1,53,213,104,1,,,,,,,,
,,,,,,,,,,,,,FF,,,,,,,,2.923,,,,,,,,,,,,,,,,,,,,,,60fd101eff0f1c63455307fe,61036dd53946c5585509af13,2021-07-29_20h11.53.248,Simcolourproject_2stim_asymm_v5,2020.2.10,MacIntel,60,61025ae37ef11b136ea224fe,,,,,,,,,4358,28,89,1,0,0,response1disk,,7,23,5,1,0,0,rectangle,23,5,1,0,0,23,5,1,0,0,1,54,214,124,1,,,,,,,,
,,,,,,,,,,,,,FF,,,,,,,,4.529,,,,,,,,,,,,,,,,,,,,,,60fd101eff0f1c63455307fe,61036dd53946c5585509af13,2021-07-29_20h11.53.248,Simcolourproject_2stim_asymm_v5,2020.2.10,MacIntel,60,61025ae37ef11b136ea224fe,,,,,,,,,2344,31,76,1,0,0,response1disk,,7,-4,-4,1,0,0,rectangle,-4,-4,1,0,0,-4,-4,1,0,0,1,55,215,64,1,,,,,,,,
,,,,,,,,,,,,,FF,,,,,,,,0.836,,,,,,,,,,,,,,,,,,,,,,60fd101eff0f1c63455307fe,61036dd53946c5585509af13,2021-07-29_20h11.53.248,Simcolourproject_2stim_asymm_v5,2020.2.10,MacIntel,60,61025ae37ef11b136ea224fe,,,,,,,,,1634,52,77,1,0,0,response1disk,,7,0,-7,1,0,0,rectangle,0,-7,1,0,0,0,-7,1,0,0,1,56,216,16,1,,,,,,,,
,,,,,,,,,,,,,FF,,,,,,,,1.086,,,,,,,,,,,,,,,,,,,,,,60fd101eff0f1c63455307fe,61036dd53946c5585509af13,2021-07-29_20h11.53.248,Simcolourproject_2stim_asymm_v5,2020.2.10,MacIntel,60,61025ae37ef11b136ea224fe,,,,,,,,,4026,80,41,1,0,0,response1disk,,6,9,0,1,0,0,rectangle,9,0,1,0,0,9,0,1,0,0,1,57,217,34,1,,,,,,,,
,,,,,,,,,,,,,FF,,,,,,,,0.669,,,,,,,,,,,,,,,,,,,,,,60fd101eff0f1c63455307fe,61036dd53946c5585509af13,2021-07-29_20h11.53.248,Simcolourproject_2stim_asymm_v5,2020.2.10,MacIntel,60,61025ae37ef11b136ea224fe,,,,,,,,,838,27,66,1,0,0,response1disk,,7,8,-3,1,0,0,rectangle,8,-3,1,0,0,8,-3,1,0,0,1,58,218,139,1,,,,,,,,
,,,,,,,,,,,,,FF,,,,,,,,0.568,,,,,,,,,,,,,,,,,,,,,,60fd101eff0f1c63455307fe,61036dd53946c5585509af13,2021-07-29_20h11.53.248,Simcolourproject_2stim_asymm_v5,2020.2.10,MacIntel,60,61025ae37ef11b136ea224fe,,,,,,,,,403,23,40,1,0,0,response1disk,,7,-3,-6,1,0,0,rectangle,-3,-6,1,0,0,-3,-6,1,0,0,1,59,219,115,1,,,,,,,,
,,,,,,,,,,,,,FF,,,,,,,,0.535,,,,,,,,,,,,,,,,,,,,,,60fd101eff0f1c63455307fe,61036dd53946c5585509af13,2021-07-29_20h11.53.248,Simcolourproject_2stim_asymm_v5,2020.2.10,MacIntel,60,61025ae37ef11b136ea224fe,,,,,,,,,4271,40,58,1,0,0,response1disk,,7,8,5,1,0,0,rectangle,8,5,1,0,0,8,5,1,0,0,1,60,220,105,1,,,,,,,,
,,,,,,,,,,,,,FF,,,,,,,,0.752,,,,,,,,,,,,,,,,,,,,,,60fd101eff0f1c63455307fe,61036dd53946c5585509af13,2021-07-29_20h11.53.248,Simcolourproject_2stim_asymm_v5,2020.2.10,MacIntel,60,61025ae37ef11b136ea224fe,,,,,,,,,2036,77,35,1,0,0,response1disk,,6,5,-1,1,0,0,rectangle,5,-1,1,0,0,5,-1,1,0,0,1,61,221,114,1,,,,,,,,
,,,,,,,,,,,,,FF,,,,,,,,0.518,,,,,,,,,,,,,,,,,,,,,,60fd101eff0f1c63455307fe,61036dd53946c5585509af13,2021-07-29_20h11.53.248,Simcolourproject_2stim_asymm_v5,2020.2.10,MacIntel,60,61025ae37ef11b136ea224fe,,,,,,,,,431,39,67,1,0,0,response1disk,,7,9,6,1,0,0,rectangle,9,6,1,0,0,9,6,1,0,0,1,62,222,61,1,,,,,,,,
,,,,,,,,,,,,,FF,,,,,,,,1.103,,,,,,,,,,,,,,,,,,,,,,60fd101eff0f1c63455307fe,61036dd53946c5585509af13,2021-07-29_20h11.53.248,Simcolourproject_2stim_asymm_v5,2020.2.10,MacIntel,60,61025ae37ef11b136ea224fe,,,,,,,,,2181,65,44,1,0,0,response1disk,,6,-8,3,1,0,0,rectangle,-47,83,1,0,0,-1,-8,1,0,0,1,63,223,83,1,,response7disk_3,TRUE,0,0,"[141,280,257,285,200,13,290,132,104,181,224,147,321,130,314,19,238,264,14,258]",1.671,rectangle
,,,,,,,,,,,,,FF,,,,,,,,1.002,,,,,,,,,,,,,,,,,,,,,,60fd101eff0f1c63455307fe,61036dd53946c5585509af13,2021-07-29_20h11.53.248,Simcolourproject_2stim_asymm_v5,2020.2.10,MacIntel,60,61025ae37ef11b136ea224fe,,,,,,,,,2718,-47,84,1,0,0,response7disk,,0,-5,-6,1,0,0,rectangle,-5,-6,1,0,0,-5,-6,1,0,0,1,64,224,2,1,,,,,,,,
,,,,,,,,,,,,,FF,,,,,,,,1.019,,,,,,,,,,,,,,,,,,,,,,60fd101eff0f1c63455307fe,61036dd53946c5585509af13,2021-07-29_20h11.53.248,Simcolourproject_2stim_asymm_v5,2020.2.10,MacIntel,60,61025ae37ef11b136ea224fe,,,,,,,,,2749,34,70,1,0,0,response1disk,,7,-4,-4,1,0,0,rectangle,-4,-4,1,0,0,-4,-4,1,0,0,1,65,225,39,1,,,,,,,,
,,,,,,,,,,,,,FF,,,,,,,,0.685,,,,,,,,,,,,,,,,,,,,,,60fd101eff0f1c63455307fe,61036dd53946c5585509af13,2021-07-29_20h11.53.248,Simcolourproject_2stim_asymm_v5,2020.2.10,MacIntel,60,61025ae37ef11b136ea224fe,,,,,,,,,200,30,62,1,0,0,response1disk,,7,12,4,1,0,0,rectangle,12,4,1,0,0,12,4,1,0,0,1,66,226,13,1,,,,,,,,
,,,,,,,,,,,,,FF,,,,,,,,0.436,,,,,,,,,,,,,,,,,,,,,,60fd101eff0f1c63455307fe,61036dd53946c5585509af13,2021-07-29_20h11.53.248,Simcolourproject_2stim_asymm_v5,2020.2.10,MacIntel,60,61025ae37ef11b136ea224fe,,,,,,,,,1398,41,81,1,0,0,response1disk,,7,13,0,1,0,0,rectangle,13,0,1,0,0,13,0,1,0,0,1,67,227,30,1,,,,,,,,
,,,,,,,,,,,,,FF,,,,,,,,0.451,,,,,,,,,,,,,,,,,,,,,,60fd101eff0f1c63455307fe,61036dd53946c5585509af13,2021-07-29_20h11.53.248,Simcolourproject_2stim_asymm_v5,2020.2.10,MacIntel,60,61025ae37ef11b136ea224fe,,,,,,,,,2645,51,111,1,0,0,response1disk,,7,11,-18,1,0,0,rectangle,11,-18,1,0,0,11,-18,1,0,0,1,68,228,4,1,,,,,,,,
,,,,,,,,,,,,,FF,,,,,,,,0.436,,,,,,,,,,,,,,,,,,,,,,60fd101eff0f1c63455307fe,61036dd53946c5585509af13,2021-07-29_20h11.53.248,Simcolourproject_2stim_asymm_v5,2020.2.10,MacIntel,60,61025ae37ef11b136ea224fe,,,,,,,,,4199,46,86,1,0,0,response1disk,,7,18,2,1,0,0,rectangle,18,2,1,0,0,18,2,1,0,0,1,69,229,65,1,,,,,,,,
,,,,,,,,,,,,,FF,,,,,,,,0.449,,,,,,,,,,,,,,,,,,,,,,60fd101eff0f1c63455307fe,61036dd53946c5585509af13,2021-07-29_20h11.53.248,Simcolourproject_2stim_asymm_v5,2020.2.10,MacIntel,60,61025ae37ef11b136ea224fe,,,,,,,,,476,30,74,1,0,0,response1disk,,7,5,4,1,0,0,rectangle,5,4,1,0,0,5,4,1,0,0,1,70,230,102,1,,,,,,,,
,,,,,,,,,,,,,FF,,,,,,,,0.534,,,,,,,,,,,,,,,,,,,,,,60fd101eff0f1c63455307fe,61036dd53946c5585509af13,2021-07-29_20h11.53.248,Simcolourproject_2stim_asymm_v5,2020.2.10,MacIntel,60,61025ae37ef11b136ea224fe,,,,,,,,,2669,46,81,1,0,0,response1disk,,7,-5,14,1,0,0,rectangle,-5,14,1,0,0,-5,14,1,0,0,1,71,231,66,1,,,,,,,,
,,,,,,,,,,,,,FF,,,,,,,,0.485,,,,,,,,,,,,,,,,,,,,,,60fd101eff0f1c63455307fe,61036dd53946c5585509af13,2021-07-29_20h11.53.248,Simcolourproject_2stim_asymm_v5,2020.2.10,MacIntel,60,61025ae37ef11b136ea224fe,,,,,,,,,409,33,68,1,0,0,response1disk,,7,10,-11,1,0,0,rectangle,10,-11,1,0,0,10,-11,1,0,0,1,72,232,88,1,,,,,,,,
,,,,,,,,,,,,,FF,,,,,,,,0.434,,,,,,,,,,,,,,,,,,,,,,60fd101eff0f1c63455307fe,61036dd53946c5585509af13,2021-07-29_20h11.53.248,Simcolourproject_2stim_asymm_v5,2020.2.10,MacIntel,60,61025ae37ef11b136ea224fe,,,,,,,,,2761,43,76,1,0,0,response1disk,,7,4,4,1,0,0,rectangle,4,4,1,0,0,4,4,1,0,0,1,73,233,131,1,,,,,,,,
,,,,,,,,,,,,,FF,,,,,,,,2.489,,,,,,,,,,,,,,,,,,,,,,60fd101eff0f1c63455307fe,61036dd53946c5585509af13,2021-07-29_20h11.53.248,Simcolourproject_2stim_asymm_v5,2020.2.10,MacIntel,60,61025ae37ef11b136ea224fe,,,,,,,,,3057,69,50,1,0,0,response1disk,,6,2,-8,1,0,0,rectangle,2,-8,1,0,0,2,-8,1,0,0,1,74,234,37,1,,,,,,,,
,,,,,,,,,,,,,FF,,,,,,,,0.569,,,,,,,,,,,,,,,,,,,,,,60fd101eff0f1c63455307fe,61036dd53946c5585509af13,2021-07-29_20h11.53.248,Simcolourproject_2stim_asymm_v5,2020.2.10,MacIntel,60,61025ae37ef11b136ea224fe,,,,,,,,,3839,59,68,1,0,0,response1disk,,7,3,-16,1,0,0,rectangle,3,-16,1,0,0,3,-16,1,0,0,1,75,235,121,1,,,,,,,,
,,,,,,,,,,,,,FF,,,,,,,,0.468,,,,,,,,,,,,,,,,,,,,,,60fd101eff0f1c63455307fe,61036dd53946c5585509af13,2021-07-29_20h11.53.248,Simcolourproject_2stim_asymm_v5,2020.2.10,MacIntel,60,61025ae37ef11b136ea224fe,,,,,,,,,2386,52,97,1,0,0,response1disk,,7,-10,-14,1,0,0,rectangle,-10,-14,1,0,0,-10,-14,1,0,0,1,76,236,35,1,,,,,,,,
,,,,,,,,,,,,,FF,,,,,,,,0.418,,,,,,,,,,,,,,,,,,,,,,60fd101eff0f1c63455307fe,61036dd53946c5585509af13,2021-07-29_20h11.53.248,Simcolourproject_2stim_asymm_v5,2020.2.10,MacIntel,60,61025ae37ef11b136ea224fe,,,,,,,,,2969,31,66,1,0,0,response1disk,,7,-8,-16,1,0,0,rectangle,33,56,1,0,0,0,6,1,0,0,1,77,237,29,1,,response1disk_3,TRUE,7,7,"[141,280,257,285,200,13,290,132,104,181,224,147,321,130,314,19,238,264,14,258]",1.454,rectangle
,,,,,,,,,,,,,FF,,,,,,,,2.071,,,,,,,,,,,,,,,,,,,,,,60fd101eff0f1c63455307fe,61036dd53946c5585509af13,2021-07-29_20h11.53.248,Simcolourproject_2stim_asymm_v5,2020.2.10,MacIntel,60,61025ae37ef11b136ea224fe,,,,,,,,,1951,37,63,1,0,0,response1disk,,7,-18,-1,1,0,0,rectangle,-18,-1,1,0,0,-18,-1,1,0,0,1,78,238,118,1,,,,,,,,
,,,,,,,,,,,,,FF,,,,,,,,1.388,,,,,,,,,,,,,,,,,,,,,,60fd101eff0f1c63455307fe,61036dd53946c5585509af13,2021-07-29_20h11.53.248,Simcolourproject_2stim_asymm_v5,2020.2.10,MacIntel,60,61025ae37ef11b136ea224fe,,,,,,,,,3148,97,-31,1,0,0,response3disk,,5,22,-1,1,0,0,rectangle,22,-1,1,0,0,22,-1,1,0,0,1,79,239,152,1,,,,,,,,
,,,,,,,,,,,,,FF,,,,,,,,0.685,,,,,,,,,,,,,,,,,,,,,,60fd101eff0f1c63455307fe,61036dd53946c5585509af13,2021-07-29_20h11.53.248,Simcolourproject_2stim_asymm_v5,2020.2.10,MacIntel,60,61025ae37ef11b136ea224fe,,,,,,,,,917,37,69,1,0,0,response1disk,,7,3,0,1,0,0,rectangle,3,0,1,0,0,3,0,1,0,0,1,80,240,98,1,,,,,,,,
,,,,,,,,,,,,,FF,,,,,,,,0.634,,,,,,,,,,,,,,,,,,,,,,60fd101eff0f1c63455307fe,61036dd53946c5585509af13,2021-07-29_20h11.53.248,Simcolourproject_2stim_asymm_v5,2020.2.10,MacIntel,60,61025ae37ef11b136ea224fe,,,,,,,,,567,18,67,1,0,0,response1disk,,7,11,0,1,0,0,rectangle,11,0,1,0,0,11,0,1,0,0,1,81,241,54,1,,,,,,,,
,,,,,,,,,,,,,FF,,,,,,,,0.519,,,,,,,,,,,,,,,,,,,,,,60fd101eff0f1c63455307fe,61036dd53946c5585509af13,2021-07-29_20h11.53.248,Simcolourproject_2stim_asymm_v5,2020.2.10,MacIntel,60,61025ae37ef11b136ea224fe,,,,,,,,,2594,41,68,1,0,0,response1disk,,7,12,13,1,0,0,rectangle,12,13,1,0,0,12,13,1,0,0,1,82,242,0,1,,,,,,,,
,,,,,,,,,,,,,FF,,,,,,,,0.385,,,,,,,,,,,,,,,,,,,,,,60fd101eff0f1c63455307fe,61036dd53946c5585509af13,2021-07-29_20h11.53.248,Simcolourproject_2stim_asymm_v5,2020.2.10,MacIntel,60,61025ae37ef11b136ea224fe,,,,,,,,,2558,42,77,1,0,0,response1disk,,7,-3,-1,1,0,0,rectangle,-3,-1,1,0,0,-3,-1,1,0,0,1,83,243,94,1,,,,,,,,
,,,,,,,,,,,,,FF,,,,,,,,0.484,,,,,,,,,,,,,,,,,,,,,,60fd101eff0f1c63455307fe,61036dd53946c5585509af13,2021-07-29_20h11.53.248,Simcolourproject_2stim_asymm_v5,2020.2.10,MacIntel,60,61025ae37ef11b136ea224fe,,,,,,,,,2621,17,61,1,0,0,response1disk,,7,3,-5,1,0,0,rectangle,3,-5,1,0,0,3,-5,1,0,0,1,84,244,75,1,,,,,,,,
,,,,,,,,,,,,,FF,,,,,,,,0.569,,,,,,,,,,,,,,,,,,,,,,60fd101eff0f1c63455307fe,61036dd53946c5585509af13,2021-07-29_20h11.53.248,Simcolourproject_2stim_asymm_v5,2020.2.10,MacIntel,60,61025ae37ef11b136ea224fe,,,,,,,,,1924,31,51,1,0,0,response1disk,,7,18,-1,1,0,0,rectangle,18,-1,1,0,0,18,-1,1,0,0,1,85,245,45,1,,,,,,,,
,,,,,,,,,,,,,FF,,,,,,,,0.467,,,,,,,,,,,,,,,,,,,,,,60fd101eff0f1c63455307fe,61036dd53946c5585509af13,2021-07-29_20h11.53.248,Simcolourproject_2stim_asymm_v5,2020.2.10,MacIntel,60,61025ae37ef11b136ea224fe,,,,,,,,,901,52,54,1,0,0,response1disk,,7,12,-3,1,0,0,rectangle,12,-3,1,0,0,12,-3,1,0,0,1,86,246,91,1,,,,,,,,
,,,,,,,,,,,,,FF,,,,,,,,0.685,,,,,,,,,,,,,,,,,,,,,,60fd101eff0f1c63455307fe,61036dd53946c5585509af13,2021-07-29_20h11.53.248,Simcolourproject_2stim_asymm_v5,2020.2.10,MacIntel,60,61025ae37ef11b136ea224fe,,,,,,,,,3533,29,63,1,0,0,response1disk,,7,-10,-3,1,0,0,rectangle,-10,-3,1,0,0,-10,-3,1,0,0,1,87,247,84,1,,,,,,,,
,,,,,,,,,,,,,FF,,,,,,,,0.401,,,,,,,,,,,,,,,,,,,,,,60fd101eff0f1c63455307fe,61036dd53946c5585509af13,2021-07-29_20h11.53.248,Simcolourproject_2stim_asymm_v5,2020.2.10,MacIntel,60,61025ae37ef11b136ea224fe,,,,,,,,,1867,20,71,1,0,0,response1disk,,7,5,6,1,0,0,rectangle,5,6,1,0,0,5,6,1,0,0,1,88,248,85,1,,,,,,,,
,,,,,,,,,,,,,FF,,,,,,,,0.551,,,,,,,,,,,,,,,,,,,,,,60fd101eff0f1c63455307fe,61036dd53946c5585509af13,2021-07-29_20h11.53.248,Simcolourproject_2stim_asymm_v5,2020.2.10,MacIntel,60,61025ae37ef11b136ea224fe,,,,,,,,,493,36,70,1,0,0,response1disk,,7,8,4,1,0,0,rectangle,8,4,1,0,0,8,4,1,0,0,1,89,249,46,1,,,,,,,,
,,,,,,,,,,,,,FF,,,,,,,,0.467,,,,,,,,,,,,,,,,,,,,,,60fd101eff0f1c63455307fe,61036dd53946c5585509af13,2021-07-29_20h11.53.248,Simcolourproject_2stim_asymm_v5,2020.2.10,MacIntel,60,61025ae37ef11b136ea224fe,,,,,,,,,3302,31,65,1,0,0,response1disk,,7,0,-6,1,0,0,rectangle,0,-6,1,0,0,0,-6,1,0,0,1,90,250,67,1,,,,,,,,
,,,,,,,,,,,,,FF,,,,,,,,1.47,,,,,,,,,,,,,,,,,,,,,,60fd101eff0f1c63455307fe,61036dd53946c5585509af13,2021-07-29_20h11.53.248,Simcolourproject_2stim_asymm_v5,2020.2.10,MacIntel,60,61025ae37ef11b136ea224fe,,,,,,,,,4145,82,39,1,0,0,response1disk,,6,16,-7,1,0,0,rectangle,16,-7,1,0,0,16,-7,1,0,0,1,91,251,68,1,,,,,,,,
,,,,,,,,,,,,,FF,,,,,,,,0.685,,,,,,,,,,,,,,,,,,,,,,60fd101eff0f1c63455307fe,61036dd53946c5585509af13,2021-07-29_20h11.53.248,Simcolourproject_2stim_asymm_v5,2020.2.10,MacIntel,60,61025ae37ef11b136ea224fe,,,,,,,,,2333,30,54,1,0,0,response1disk,,7,-2,-2,1,0,0,rectangle,-2,-2,1,0,0,-2,-2,1,0,0,1,92,252,129,1,,,,,,,,
,,,,,,,,,,,,,FF,,,,,,,,0.368,,,,,,,,,,,,,,,,,,,,,,60fd101eff0f1c63455307fe,61036dd53946c5585509af13,2021-07-29_20h11.53.248,Simcolourproject_2stim_asymm_v5,2020.2.10,MacIntel,60,61025ae37ef11b136ea224fe,,,,,,,,,3702,38,71,1,0,0,response1disk,,7,-4,-3,1,0,0,rectangle,-4,-3,1,0,0,-4,-3,1,0,0,1,93,253,9,1,,,,,,,,
,,,,,,,,,,,,,FF,,,,,,,,0.584,,,,,,,,,,,,,,,,,,,,,,60fd101eff0f1c63455307fe,61036dd53946c5585509af13,2021-07-29_20h11.53.248,Simcolourproject_2stim_asymm_v5,2020.2.10,MacIntel,60,61025ae37ef11b136ea224fe,,,,,,,,,3758,37,75,1,0,0,response1disk,,7,-6,-10,1,0,0,rectangle,-6,-10,1,0,0,-6,-10,1,0,0,1,94,254,72,1,,,,,,,,
,,,,,,,,,,,,,FF,,,,,,,,1.605,,,,,,,,,,,,,,,,,,,,,,60fd101eff0f1c63455307fe,61036dd53946c5585509af13,2021-07-29_20h11.53.248,Simcolourproject_2stim_asymm_v5,2020.2.10,MacIntel,60,61025ae37ef11b136ea224fe,,,,,,,,,2251,31,57,1,0,0,response1disk,,7,15,1,1,0,0,rectangle,15,1,1,0,0,15,1,1,0,0,1,95,255,134,1,,,,,,,,
,,,,,,,,,,,,,FF,,,,,,,,0.451,,,,,,,,,,,,,,,,,,,,,,60fd101eff0f1c63455307fe,61036dd53946c5585509af13,2021-07-29_20h11.53.248,Simcolourproject_2stim_asymm_v5,2020.2.10,MacIntel,60,61025ae37ef11b136ea224fe,,,,,,,,,2365,41,61,1,0,0,response1disk,,7,13,0,1,0,0,rectangle,-71,40,1,0,0,-14,5,1,0,0,1,96,256,20,1,,response7disk_3,TRUE,1,1,"[141,280,257,285,200,13,290,132,104,181,224,147,321,130,314,19,238,264,14,258]",1.37,rectangle
,,,,,,,,,,,,,FF,,,,,,,,1.019,,,,,,,,,,,,,,,,,,,,,,60fd101eff0f1c63455307fe,61036dd53946c5585509af13,2021-07-29_20h11.53.248,Simcolourproject_2stim_asymm_v5,2020.2.10,MacIntel,60,61025ae37ef11b136ea224fe,,,,,,,,,3182,38,100,1,0,0,response1disk,,7,-9,2,1,0,0,rectangle,-68,37,1,0,0,-8,1,1,0,0,1,97,257,78,1,,response7disk_3,TRUE,1,1,"[141,280,257,285,200,13,290,132,104,181,224,147,321,130,314,19,238,264,14,258]",1.354,rectangle
,,,,,,,,,,,,,FF,,,,,,,,1.036,,,,,,,,,,,,,,,,,,,,,,60fd101eff0f1c63455307fe,61036dd53946c5585509af13,2021-07-29_20h11.53.248,Simcolourproject_2stim_asymm_v5,2020.2.10,MacIntel,60,61025ae37ef11b136ea224fe,,,,,,,,,1943,21,71,1,0,0,response1disk,,7,3,-3,1,0,0,rectangle,3,-3,1,0,0,3,-3,1,0,0,1,98,258,26,1,,,,,,,,
,,,,,,,,,,,,,FF,,,,,,,,0.685,,,,,,,,,,,,,,,,,,,,,,60fd101eff0f1c63455307fe,61036dd53946c5585509af13,2021-07-29_20h11.53.248,Simcolourproject_2stim_asymm_v5,2020.2.10,MacIntel,60,61025ae37ef11b136ea224fe,,,,,,,,,829,36,67,1,0,0,response1disk,,7,14,6,1,0,0,rectangle,14,6,1,0,0,14,6,1,0,0,1,99,259,23,1,,,,,,,,
,,,,,,,,,,,,,FF,,,,,,,,1.47,,,,,,,,,,,,,,,,,,,,,,60fd101eff0f1c63455307fe,61036dd53946c5585509af13,2021-07-29_20h11.53.248,Simcolourproject_2stim_asymm_v5,2020.2.10,MacIntel,60,61025ae37ef11b136ea224fe,,,,,,,,,892,85,36,1,0,0,response1disk,,6,19,-2,1,0,0,rectangle,19,-2,1,0,0,19,-2,1,0,0,1,100,260,100,1,,,,,,,,
,,,,,,,,,,,,,FF,,,,,,,,0.484,,,,,,,,,,,,,,,,,,,,,,60fd101eff0f1c63455307fe,61036dd53946c5585509af13,2021-07-29_20h11.53.248,Simcolourproject_2stim_asymm_v5,2020.2.10,MacIntel,60,61025ae37ef11b136ea224fe,,,,,,,,,1647,29,63,1,0,0,response1disk,,7,9,-2,1,0,0,rectangle,9,-2,1,0,0,9,-2,1,0,0,1,101,261,1,1,,,,,,,,
,,,,,,,,,,,,,FF,,,,,,,,0.485,,,,,,,,,,,,,,,,,,,,,,60fd101eff0f1c63455307fe,61036dd53946c5585509af13,2021-07-29_20h11.53.248,Simcolourproject_2stim_asymm_v5,2020.2.10,MacIntel,60,61025ae37ef11b136ea224fe,,,,,,,,,3179,34,74,1,0,0,response1disk,,7,4,-5,1,0,0,rectangle,4,-5,1,0,0,4,-5,1,0,0,1,102,262,158,1,,,,,,,,
,,,,,,,,,,,,,FF,,,,,,,,0.435,,,,,,,,,,,,,,,,,,,,,,60fd101eff0f1c63455307fe,61036dd53946c5585509af13,2021-07-29_20h11.53.248,Simcolourproject_2stim_asymm_v5,2020.2.10,MacIntel,60,61025ae37ef11b136ea224fe,,,,,,,,,873,36,76,1,0,0,response1disk,,7,10,1,1,0,0,rectangle,-99,-60,1,0,0,-10,-7,1,0,0,1,103,263,130,1,,response5disk_3,TRUE,2,2,"[141,280,257,285,200,13,290,132,104,181,224,147,321,130,314,19,238,264,14,258]",1.537,rectangle
,,,,,,,,,,,,,FF,,,,,,,,0.835,,,,,,,,,,,,,,,,,,,,,,60fd101eff0f1c63455307fe,61036dd53946c5585509af13,2021-07-29_20h11.53.248,Simcolourproject_2stim_asymm_v5,2020.2.10,MacIntel,60,61025ae37ef11b136ea224fe,,,,,,,,,1553,23,72,1,0,0,response1disk,,7,3,4,1,0,0,rectangle,3,4,1,0,0,3,4,1,0,0,1,104,264,127,1,,,,,,,,
,,,,,,,,,,,,,FF,,,,,,,,0.484,,,,,,,,,,,,,,,,,,,,,,60fd101eff0f1c63455307fe,61036dd53946c5585509af13,2021-07-29_20h11.53.248,Simcolourproject_2stim_asymm_v5,2020.2.10,MacIntel,60,61025ae37ef11b136ea224fe,,,,,,,,,4296,29,62,1,0,0,response1disk,,7,12,1,1,0,0,rectangle,12,1,1,0,0,12,1,1,0,0,1,105,265,109,1,,,,,,,,
,,,,,,,,,,,,,FF,,,,,,,,0.869,,,,,,,,,,,,,,,,,,,,,,60fd101eff0f1c63455307fe,61036dd53946c5585509af13,2021-07-29_20h11.53.248,Simcolourproject_2stim_asymm_v5,2020.2.10,MacIntel,60,61025ae37ef11b136ea224fe,,,,,,,,,2175,32,52,1,0,0,response1disk,,7,3,-10,1,0,0,rectangle,3,-10,1,0,0,3,-10,1,0,0,1,106,266,122,1,,,,,,,,
,,,,,,,,,,,,,FF,,,,,,,,0.452,,,,,,,,,,,,,,,,,,,,,,60fd101eff0f1c63455307fe,61036dd53946c5585509af13,2021-07-29_20h11.53.248,Simcolourproject_2stim_asymm_v5,2020.2.10,MacIntel,60,61025ae37ef11b136ea224fe,,,,,,,,,558,33,63,1,0,0,response1disk,,7,12,-1,1,0,0,rectangle,12,-1,1,0,0,12,-1,1,0,0,1,107,267,136,1,,,,,,,,
,,,,,,,,,,,,,FF,,,,,,,,0.451,,,,,,,,,,,,,,,,,,,,,,60fd101eff0f1c63455307fe,61036dd53946c5585509af13,2021-07-29_20h11.53.248,Simcolourproject_2stim_asymm_v5,2020.2.10,MacIntel,60,61025ae37ef11b136ea224fe,,,,,,,,,266,36,65,1,0,0,response1disk,,7,8,-1,1,0,0,rectangle,8,-1,1,0,0,8,-1,1,0,0,1,108,268,117,1,,,,,,,,
,,,,,,,,,,,,,FF,,,,,,,,0.669,,,,,,,,,,,,,,,,,,,,,,60fd101eff0f1c63455307fe,61036dd53946c5585509af13,2021-07-29_20h11.53.248,Simcolourproject_2stim_asymm_v5,2020.2.10,MacIntel,60,61025ae37ef11b136ea224fe,,,,,,,,,2752,28,65,1,0,0,response1disk,,7,8,-3,1,0,0,rectangle,8,-3,1,0,0,8,-3,1,0,0,1,109,269,101,1,,,,,,,,
,,,,,,,,,,,,,FF,,,,,,,,0.685,,,,,,,,,,,,,,,,,,,,,,60fd101eff0f1c63455307fe,61036dd53946c5585509af13,2021-07-29_20h11.53.248,Simcolourproject_2stim_asymm_v5,2020.2.10,MacIntel,60,61025ae37ef11b136ea224fe,,,,,,,,,658,33,57,1,0,0,response1disk,,7,13,4,1,0,0,rectangle,13,4,1,0,0,13,4,1,0,0,1,110,270,80,1,,,,,,,,
,,,,,,,,,,,,,FF,,,,,,,,2.288,,,,,,,,,,,,,,,,,,,,,,60fd101eff0f1c63455307fe,61036dd53946c5585509af13,2021-07-29_20h11.53.248,Simcolourproject_2stim_asymm_v5,2020.2.10,MacIntel,60,61025ae37ef11b136ea224fe,,,,,,,,,2606,79,54,1,0,0,response1disk,,6,-2,-2,1,0,0,rectangle,-2,-2,1,0,0,-2,-2,1,0,0,1,111,271,113,1,,,,,,,,
,,,,,,,,,,,,,FF,,,,,,,,1.22,,,,,,,,,,,,,,,,,,,,,,60fd101eff0f1c63455307fe,61036dd53946c5585509af13,2021-07-29_20h11.53.248,Simcolourproject_2stim_asymm_v5,2020.2.10,MacIntel,60,61025ae37ef11b136ea224fe,,,,,,,,,2654,88,35,1,0,0,response1disk,,6,16,-7,1,0,0,rectangle,16,-7,1,0,0,16,-7,1,0,0,1,112,272,149,1,,,,,,,,
,,,,,,,,,,,,,FF,,,,,,,,2.556,,,,,,,,,,,,,,,,,,,,,,60fd101eff0f1c63455307fe,61036dd53946c5585509af13,2021-07-29_20h11.53.248,Simcolourproject_2stim_asymm_v5,2020.2.10,MacIntel,60,61025ae37ef11b136ea224fe,,,,,,,,,2948,35,-65,1,0,0,response3disk,,4,20,0,1,0,0,rectangle,20,0,1,0,0,20,0,1,0,0,1,113,273,19,1,,,,,,,,
,,,,,,,,,,,,,FF,,,,,,,,0.668,,,,,,,,,,,,,,,,,,,,,,60fd101eff0f1c63455307fe,61036dd53946c5585509af13,2021-07-29_20h11.53.248,Simcolourproject_2stim_asymm_v5,2020.2.10,MacIntel,60,61025ae37ef11b136ea224fe,,,,,,,,,3226,37,70,1,0,0,response1disk,,7,2,3,1,0,0,rectangle,2,3,1,0,0,2,3,1,0,0,1,114,274,148,1,,,,,,,,
,,,,,,,,,,,,,FF,,,,,,,,0.45,,,,,,,,,,,,,,,,,,,,,,60fd101eff0f1c63455307fe,61036dd53946c5585509af13,2021-07-29_20h11.53.248,Simcolourproject_2stim_asymm_v5,2020.2.10,MacIntel,60,61025ae37ef11b136ea224fe,,,,,,,,,2278,21,73,1,0,0,response1disk,,7,-8,-14,1,0,0,rectangle,-8,-14,1,0,0,-8,-14,1,0,0,1,115,275,79,1,,,,,,,,
,,,,,,,,,,,,,FF,,,,,,,,0.419,,,,,,,,,,,,,,,,,,,,,,60fd101eff0f1c63455307fe,61036dd53946c5585509af13,2021-07-29_20h11.53.248,Simcolourproject_2stim_asymm_v5,2020.2.10,MacIntel,60,61025ae37ef11b136ea224fe,,,,,,,,,2057,39,87,1,0,0,response1disk,,7,-1,-1,1,0,0,rectangle,-1,-1,1,0,0,-1,-1,1,0,0,1,116,276,133,1,,,,,,,,
,,,,,,,,,,,,,FF,,,,,,,,0.434,,,,,,,,,,,,,,,,,,,,,,60fd101eff0f1c63455307fe,61036dd53946c5585509af13,2021-07-29_20h11.53.248,Simcolourproject_2stim_asymm_v5,2020.2.10,MacIntel,60,61025ae37ef11b136ea224fe,,,,,,,,,1326,49,93,1,0,0,response1disk,,7,12,8,1,0,0,rectangle,12,8,1,0,0,12,8,1,0,0,1,117,277,60,1,,,,,,,,
,,,,,,,,,,,,,FF,,,,,,,,0.316,,,,,,,,,,,,,,,,,,,,,,60fd101eff0f1c63455307fe,61036dd53946c5585509af13,2021-07-29_20h11.53.248,Simcolourproject_2stim_asymm_v5,2020.2.10,MacIntel,60,61025ae37ef11b136ea224fe,,,,,,,,,1488,54,88,1,0,0,response1disk,,7,12,-13,1,0,0,rectangle,12,-13,1,0,0,12,-13,1,0,0,1,118,278,56,1,,,,,,,,
,,,,,,,,,,,,,FF,,,,,,,,1.036,,,,,,,,,,,,,,,,,,,,,,60fd101eff0f1c63455307fe,61036dd53946c5585509af13,2021-07-29_20h11.53.248,Simcolourproject_2stim_asymm_v5,2020.2.10,MacIntel,60,61025ae37ef11b136ea224fe,,,,,,,,,1150,91,35,1,0,0,response1disk,,6,21,-7,1,0,0,rectangle,30,-73,1,0,0,12,-1,1,0,0,1,119,279,132,1,,response3disk_3,TRUE,4,4,"[141,280,257,285,200,13,290,132,104,181,224,147,321,130,314,19,238,264,14,258]",1.587,rectangle
,,,,,,,,,,,,,FF,,,,,,,,0.484,,,,,,,,,,,,,,,,,,,,,,60fd101eff0f1c63455307fe,61036dd53946c5585509af13,2021-07-29_20h11.53.248,Simcolourproject_2stim_asymm_v5,2020.2.10,MacIntel,60,61025ae37ef11b136ea224fe,,,,,,,,,2052,32,60,1,0,0,response1disk,,7,11,-5,1,0,0,rectangle,11,-5,1,0,0,11,-5,1,0,0,1,120,280,137,1,,,,,,,,
,,,,,,,,,,,,,FF,,,,,,,,0.451,,,,,,,,,,,,,,,,,,,,,,60fd101eff0f1c63455307fe,61036dd53946c5585509af13,2021-07-29_20h11.53.248,Simcolourproject_2stim_asymm_v5,2020.2.10,MacIntel,60,61025ae37ef11b136ea224fe,,,,,,,,,2414,24,45,1,0,0,response1disk,,7,8,-10,1,0,0,rectangle,8,-10,1,0,0,8,-10,1,0,0,1,121,281,116,1,,,,,,,,
,,,,,,,,,,,,,FF,,,,,,,,0.769,,,,,,,,,,,,,,,,,,,,,,60fd101eff0f1c63455307fe,61036dd53946c5585509af13,2021-07-29_20h11.53.248,Simcolourproject_2stim_asymm_v5,2020.2.10,MacIntel,60,61025ae37ef11b136ea224fe,,,,,,,,,748,31,66,1,0,0,response1disk,,7,9,6,1,0,0,rectangle,9,6,1,0,0,9,6,1,0,0,1,122,282,103,1,,,,,,,,
,,,,,,,,,,,,,FF,,,,,,,,0.717,,,,,,,,,,,,,,,,,,,,,,60fd101eff0f1c63455307fe,61036dd53946c5585509af13,2021-07-29_20h11.53.248,Simcolourproject_2stim_asymm_v5,2020.2.10,MacIntel,60,61025ae37ef11b136ea224fe,,,,,,,,,2306,21,53,1,0,0,response1disk,,7,9,-5,1,0,0,rectangle,9,-5,1,0,0,9,-5,1,0,0,1,123,283,142,1,,,,,,,,
,,,,,,,,,,,,,FF,,,,,,,,0.367,,,,,,,,,,,,,,,,,,,,,,60fd101eff0f1c63455307fe,61036dd53946c5585509af13,2021-07-29_20h11.53.248,Simcolourproject_2stim_asymm_v5,2020.2.10,MacIntel,60,61025ae37ef11b136ea224fe,,,,,,,,,866,31,56,1,0,0,response1disk,,7,12,-10,1,0,0,rectangle,19,-75,1,0,0,-9,2,1,0,0,1,124,284,147,1,,response3disk_3,TRUE,4,4,"[141,280,257,285,200,13,290,132,104,181,224,147,321,130,314,19,238,264,14,258]",1.421,rectangle
,,,,,,,,,,,,,FF,,,,,,,,1.805,,,,,,,,,,,,,,,,,,,,,,60fd101eff0f1c63455307fe,61036dd53946c5585509af13,2021-07-29_20h11.53.248,Simcolourproject_2stim_asymm_v5,2020.2.10,MacIntel,60,61025ae37ef11b136ea224fe,,,,,,,,,544,85,40,1,0,0,response1disk,,6,26,6,1,0,0,rectangle,26,6,1,0,0,26,6,1,0,0,1,125,285,76,1,,,,,,,,
,,,,,,,,,,,,,FF,,,,,,,,0.818,,,,,,,,,,,,,,,,,,,,,,60fd101eff0f1c63455307fe,61036dd53946c5585509af13,2021-07-29_20h11.53.248,Simcolourproject_2stim_asymm_v5,2020.2.10,MacIntel,60,61025ae37ef11b136ea224fe,,,,,,,,,2104,79,36,1,0,0,response1disk,,6,11,-6,1,0,0,rectangle,11,-6,1,0,0,11,-6,1,0,0,1,126,286,126,1,,,,,,,,
,,,,,,,,,,,,,FF,,,,,,,,0.401,,,,,,,,,,,,,,,,,,,,,,60fd101eff0f1c63455307fe,61036dd53946c5585509af13,2021-07-29_20h11.53.248,Simcolourproject_2stim_asymm_v5,2020.2.10,MacIntel,60,61025ae37ef11b136ea224fe,,,,,,,,,1790,38,53,1,0,0,response1disk,,7,22,5,1,0,0,rectangle,22,5,1,0,0,22,5,1,0,0,1,127,287,82,1,,,,,,,,
,,,,,,,,,,,,,FF,,,,,,,,0.618,,,,,,,,,,,,,,,,,,,,,,60fd101eff0f1c63455307fe,61036dd53946c5585509af13,2021-07-29_20h11.53.248,Simcolourproject_2stim_asymm_v5,2020.2.10,MacIntel,60,61025ae37ef11b136ea224fe,,,,,,,,,569,36,55,1,0,0,response1disk,,7,16,4,1,0,0,rectangle,16,4,1,0,0,16,4,1,0,0,1,128,288,135,1,,,,,,,,
,,,,,,,,,,,,,FF,,,,,,,,0.401,,,,,,,,,,,,,,,,,,,,,,60fd101eff0f1c63455307fe,61036dd53946c5585509af13,2021-07-29_20h11.53.248,Simcolourproject_2stim_asymm_v5,2020.2.10,MacIntel,60,61025ae37ef11b136ea224fe,,,,,,,,,1764,35,71,1,0,0,response1disk,,7,5,-9,1,0,0,rectangle,-67,-41,1,0,0,-11,-14,1,0,0,1,129,289,3,1,,response5disk_3,TRUE,2,2,"[141,280,257,285,200,13,290,132,104,181,224,147,321,130,314,19,238,264,14,258]",1.103,rectangle
,,,,,,,,,,,,,FF,,,,,,,,2.105,,,,,,,,,,,,,,,,,,,,,,60fd101eff0f1c63455307fe,61036dd53946c5585509af13,2021-07-29_20h11.53.248,Simcolourproject_2stim_asymm_v5,2020.2.10,MacIntel,60,61025ae37ef11b136ea224fe,,,,,,,,,2516,19,53,1,0,0,response1disk,,7,-1,-8,1,0,0,rectangle,-1,-8,1,0,0,-1,-8,1,0,0,1,130,290,138,1,,,,,,,,
,,,,,,,,,,,,,FF,,,,,,,,0.652,,,,,,,,,,,,,,,,,,,,,,60fd101eff0f1c63455307fe,61036dd53946c5585509af13,2021-07-29_20h11.53.248,Simcolourproject_2stim_asymm_v5,2020.2.10,MacIntel,60,61025ae37ef11b136ea224fe,,,,,,,,,735,31,59,1,0,0,response1disk,,7,9,16,1,0,0,rectangle,9,16,1,0,0,9,16,1,0,0,1,131,291,123,1,,,,,,,,
,,,,,,,,,,,,,FF,,,,,,,,0.451,,,,,,,,,,,,,,,,,,,,,,60fd101eff0f1c63455307fe,61036dd53946c5585509af13,2021-07-29_20h11.53.248,Simcolourproject_2stim_asymm_v5,2020.2.10,MacIntel,60,61025ae37ef11b136ea224fe,,,,,,,,,2534,46,80,1,0,0,response1disk,,7,11,9,1,0,0,rectangle,11,9,1,0,0,11,9,1,0,0,1,132,292,70,1,,,,,,,,
,,,,,,,,,,,,,FF,,,,,,,,0.903,,,,,,,,,,,,,,,,,,,,,,60fd101eff0f1c63455307fe,61036dd53946c5585509af13,2021-07-29_20h11.53.248,Simcolourproject_2stim_asymm_v5,2020.2.10,MacIntel,60,61025ae37ef11b136ea224fe,,,,,,,,,2660,-44,81,1,0,0,response7disk,,0,-9,1,1,0,0,rectangle,-9,1,1,0,0,-9,1,1,0,0,1,133,293,154,1,,,,,,,,
,,,,,,,,,,,,,FF,,,,,,,,0.485,,,,,,,,,,,,,,,,,,,,,,60fd101eff0f1c63455307fe,61036dd53946c5585509af13,2021-07-29_20h11.53.248,Simcolourproject_2stim_asymm_v5,2020.2.10,MacIntel,60,61025ae37ef11b136ea224fe,,,,,,,,,3786,40,84,1,0,0,response1disk,,7,4,-3,1,0,0,rectangle,4,-3,1,0,0,4,-3,1,0,0,1,134,294,159,1,,,,,,,,
,,,,,,,,,,,,,FF,,,,,,,,0.35,,,,,,,,,,,,,,,,,,,,,,60fd101eff0f1c63455307fe,61036dd53946c5585509af13,2021-07-29_20h11.53.248,Simcolourproject_2stim_asymm_v5,2020.2.10,MacIntel,60,61025ae37ef11b136ea224fe,,,,,,,,,1260,38,60,1,0,0,response1disk,,7,17,8,1,0,0,rectangle,17,8,1,0,0,17,8,1,0,0,1,135,295,111,1,,,,,,,,
,,,,,,,,,,,,,FF,,,,,,,,0.452,,,,,,,,,,,,,,,,,,,,,,60fd101eff0f1c63455307fe,61036dd53946c5585509af13,2021-07-29_20h11.53.248,Simcolourproject_2stim_asymm_v5,2020.2.10,MacIntel,60,61025ae37ef11b136ea224fe,,,,,,,,,582,39,66,1,0,0,response1disk,,7,5,10,1,0,0,rectangle,5,10,1,0,0,5,10,1,0,0,1,136,296,156,1,,,,,,,,
,,,,,,,,,,,,,FF,,,,,,,,0.284,,,,,,,,,,,,,,,,,,,,,,60fd101eff0f1c63455307fe,61036dd53946c5585509af13,2021-07-29_20h11.53.248,Simcolourproject_2stim_asymm_v5,2020.2.10,MacIntel,60,61025ae37ef11b136ea224fe,,,,,,,,,3178,57,97,1,0,0,response1disk,,7,13,9,1,0,0,rectangle,13,9,1,0,0,13,9,1,0,0,1,137,297,11,1,,,,,,,,
,,,,,,,,,,,,,FF,,,,,,,,0.268,,,,,,,,,,,,,,,,,,,,,,60fd101eff0f1c63455307fe,61036dd53946c5585509af13,2021-07-29_20h11.53.248,Simcolourproject_2stim_asymm_v5,2020.2.10,MacIntel,60,61025ae37ef11b136ea224fe,,,,,,,,,845,68,97,1,0,0,response1disk,,7,2,-1,1,0,0,rectangle,2,-1,1,0,0,2,-1,1,0,0,1,138,298,59,1,,,,,,,,
,,,,,,,,,,,,,FF,,,,,,,,1.438,,,,,,,,,,,,,,,,,,,,,,60fd101eff0f1c63455307fe,61036dd53946c5585509af13,2021-07-29_20h11.53.248,Simcolourproject_2stim_asymm_v5,2020.2.10,MacIntel,60,61025ae37ef11b136ea224fe,,,,,,,,,3743,-74,-39,1,0,0,response5disk,,2,-7,11,1,0,0,rectangle,-7,11,1,0,0,-7,11,1,0,0,1,139,299,42,1,,,,,,,,
,,,,,,,,,,,,,FF,,,,,,,,0.835,,,,,,,,,,,,,,,,,,,,,,60fd101eff0f1c63455307fe,61036dd53946c5585509af13,2021-07-29_20h11.53.248,Simcolourproject_2stim_asymm_v5,2020.2.10,MacIntel,60,61025ae37ef11b136ea224fe,,,,,,,,,2246,50,71,1,0,0,response1disk,,7,0,-7,1,0,0,rectangle,0,-7,1,0,0,0,-7,1,0,0,1,140,300,144,1,,,,,,,,
,,,,,,,,,,,,,FF,,,,,,,,0.418,,,,,,,,,,,,,,,,,,,,,,60fd101eff0f1c63455307fe,61036dd53946c5585509af13,2021-07-29_20h11.53.248,Simcolourproject_2stim_asymm_v5,2020.2.10,MacIntel,60,61025ae37ef11b136ea224fe,,,,,,,,,4116,27,66,1,0,0,response1disk,,7,0,-17,1,0,0,rectangle,0,-17,1,0,0,0,-17,1,0,0,1,141,301,151,1,,,,,,,,
