key_resp.keys,key_resp.rt,key_resp_14.keys,key_resp_14.rt,key_resp_15.keys,key_resp_15.rt,key_resp_17.keys,key_resp_17.rt,key_resp_9.keys,key_resp_9.rt,key_resp_10.keys,key_resp_10.rt,practice_comparison,Ecc,mouse_5.x,mouse_5.y,mouse_5.leftButton,mouse_5.midButton,mouse_5.rightButton,mouse_5.clicked_name,pracsimilarity,response_time,mouse_10.x,mouse_10.y,mouse_10.leftButton,mouse_10.midButton,mouse_10.rightButton,mouse_10.clicked_name,mouse_7.x,mouse_7.y,mouse_7.leftButton,mouse_7.midButton,mouse_7.rightButton,mouse_6.x,mouse_6.y,mouse_6.leftButton,mouse_6.midButton,mouse_6.rightButton,duringprac.thisRepN,duringprac.thisTrialN,duringprac.thisN,duringprac.thisIndex,duringprac.ran,participant,session,date,expName,psychopyVersion,OS,frameRate,study_id,mouse_7.clicked_name,catchpracsimilarity,catch_response_time,catchnumberprac,catchtrialorderprac,mouse_6.clicked_name,key_resp_22.keys,key_resp_22.rt,realcomparison,mouse.x,mouse.y,mouse.leftButton,mouse.midButton,mouse.rightButton,mouse.clicked_name,Colour2,similarity,mouse_2.x,mouse_2.y,mouse_2.leftButton,mouse_2.midButton,mouse_2.rightButton,mouse_2.clicked_name,mouse_3.x,mouse_3.y,mouse_3.leftButton,mouse_3.midButton,mouse_3.rightButton,mouse_11.x,mouse_11.y,mouse_11.leftButton,mouse_11.midButton,mouse_11.rightButton,trials_2.thisRepN,trials_2.thisTrialN,trials_2.thisN,trials_2.thisIndex,trials_2.ran,Colour1,mouse_3.clicked_name,catchornah,catchsimilarity,catchnumber,catchtrialorder,catchRT,mouse_11.clicked_name
space,1.8331,space,17.3934,space,54.7183,space,17.7176,space,8.8624,space,13.1072,101,PF,48.42205811,-107.0278931,1,0,0,response3disk_5,4,7.0893,-2.484619141,-11.07727051,1,0,0,rectangle_8,-2.484619141,-11.07727051,1,0,0,-2.484619141,-11.07727051,1,0,0,0,0,0,2,1,60fdf872fb6221897dcdba50,61036f88e074d6e537aaf6ea,2021-07-29_20h21.13.431,Simcolourproject_2stim_asymm_v5,2020.2.10,MacIntel,60,61025ae37ef11b136ea224fe,,,,,,,,,,,,,,,,,,,,,,,,,,,,,,,,,,,,,,,,,,,,,,
,,,,,,,,,,,,13,PF,-97.25622559,-55.36761475,1,0,0,response5disk_5,2,5.6679,-14.81152344,-10.13897705,1,0,0,rectangle_8,49.15142822,-91.89678955,1,0,0,5.132385254,4.224945068,1,0,0,0,1,1,1,1,60fdf872fb6221897dcdba50,61036f88e074d6e537aaf6ea,2021-07-29_20h21.13.431,Simcolourproject_2stim_asymm_v5,2020.2.10,MacIntel,60,61025ae37ef11b136ea224fe,response3disk_7,4,2.5686,4,"[2,5]",rectangle_4,,,,,,,,,,,,,,,,,,,,,,,,,,,,,,,,,,,,,,,,
,,,,,,,,,,,,37,FF,91.45495605,39.18511963,1,0,0,response1disk_5,6,5.2182,-0.476928711,-2.955322266,1,0,0,rectangle_8,-0.476928711,-2.955322266,1,0,0,-0.476928711,-2.955322266,1,0,0,0,2,2,5,1,60fdf872fb6221897dcdba50,61036f88e074d6e537aaf6ea,2021-07-29_20h21.13.431,Simcolourproject_2stim_asymm_v5,2020.2.10,MacIntel,60,61025ae37ef11b136ea224fe,,,,,,,,,,,,,,,,,,,,,,,,,,,,,,,,,,,,,,,,,,,,,,
,,,,,,,,,,,,36,PF,28.45068359,88.72772217,1,0,0,response1disk_5,7,1.6173,-1.765197754,3.770935059,1,0,0,rectangle_8,-1.765197754,3.770935059,1,0,0,-1.765197754,3.770935059,1,0,0,0,3,3,4,1,60fdf872fb6221897dcdba50,61036f88e074d6e537aaf6ea,2021-07-29_20h21.13.431,Simcolourproject_2stim_asymm_v5,2020.2.10,MacIntel,60,61025ae37ef11b136ea224fe,,,,,,,,,,,,,,,,,,,,,,,,,,,,,,,,,,,,,,,,,,,,,,
,,,,,,,,,,,,47,FF,-90.83410645,-52.16027832,1,0,0,response5disk_5,2,3.0516,21.58227539,0.199279785,1,0,0,rectangle_8,29.9486084,-85.78118896,1,0,0,7.251586914,-5.448455811,1,0,0,0,4,4,0,1,60fdf872fb6221897dcdba50,61036f88e074d6e537aaf6ea,2021-07-29_20h21.13.431,Simcolourproject_2stim_asymm_v5,2020.2.10,MacIntel,60,61025ae37ef11b136ea224fe,response3disk_7,4,2.3203,4,"[2,5]",rectangle_4,,,,,,,,,,,,,,,,,,,,,,,,,,,,,,,,,,,,,,,,
,,,,,,,,,,,,112,PF,88.08221436,47.77511597,1,0,0,response1disk_5,6,4.5358,16.39990234,4.003601074,1,0,0,rectangle_8,16.39990234,4.003601074,1,0,0,16.39990234,4.003601074,1,0,0,0,5,5,6,1,60fdf872fb6221897dcdba50,61036f88e074d6e537aaf6ea,2021-07-29_20h21.13.431,Simcolourproject_2stim_asymm_v5,2020.2.10,MacIntel,60,61025ae37ef11b136ea224fe,,,,,,,,,,,,,,,,,,,,,,,,,,,,,,,,,,,,,,,,,,,,,,
,,,,,,,,,,,,111,FF,-95.54772949,-22.50958252,1,0,0,response5disk_5,2,19.687,-8.063354492,4.71194458,1,0,0,rectangle_8,-8.063354492,4.71194458,1,0,0,-8.063354492,4.71194458,1,0,0,0,6,6,3,1,60fdf872fb6221897dcdba50,61036f88e074d6e537aaf6ea,2021-07-29_20h21.13.431,Simcolourproject_2stim_asymm_v5,2020.2.10,MacIntel,60,61025ae37ef11b136ea224fe,,,,,,,,,,,,,,,,,,,,,,,,,,,,,,,,,,,,,,,,,,,,,,
,,,,,,,,,,,,,FF,,,,,,,,3.2837,,,,,,,,,,,,,,,,,,,,,,60fdf872fb6221897dcdba50,61036f88e074d6e537aaf6ea,2021-07-29_20h21.13.431,Simcolourproject_2stim_asymm_v5,2020.2.10,MacIntel,60,61025ae37ef11b136ea224fe,,,,,,,space,52.6096,4119,-38.61541748,-70.78790283,1,0,0,response5disk,,3,5.280456543,-2.801452637,1,0,0,rectangle,5.280456543,-2.801452637,1,0,0,5.280456543,-2.801452637,1,0,0,0,0,0,149,1,,,,,,,,
,,,,,,,,,,,,,FF,,,,,,,,1.235,,,,,,,,,,,,,,,,,,,,,,60fdf872fb6221897dcdba50,61036f88e074d6e537aaf6ea,2021-07-29_20h21.13.431,Simcolourproject_2stim_asymm_v5,2020.2.10,MacIntel,60,61025ae37ef11b136ea224fe,,,,,,,,,306,39.87237549,80.46502686,1,0,0,response1disk,,7,5.572753906,4.925048828,1,0,0,rectangle,5.572753906,4.925048828,1,0,0,5.572753906,4.925048828,1,0,0,0,1,1,30,1,,,,,,,,
,,,,,,,,,,,,,FF,,,,,,,,1.4173,,,,,,,,,,,,,,,,,,,,,,60fdf872fb6221897dcdba50,61036f88e074d6e537aaf6ea,2021-07-29_20h21.13.431,Simcolourproject_2stim_asymm_v5,2020.2.10,MacIntel,60,61025ae37ef11b136ea224fe,,,,,,,,,1447,-96.02386475,38.20361328,1,0,0,response7disk,,1,-17.74157715,9.973327637,1,0,0,rectangle,-17.74157715,9.973327637,1,0,0,-17.74157715,9.973327637,1,0,0,0,2,2,52,1,,,,,,,,
,,,,,,,,,,,,,FF,,,,,,,,1.5012,,,,,,,,,,,,,,,,,,,,,,60fdf872fb6221897dcdba50,61036f88e074d6e537aaf6ea,2021-07-29_20h21.13.431,Simcolourproject_2stim_asymm_v5,2020.2.10,MacIntel,60,61025ae37ef11b136ea224fe,,,,,,,,,2600,37.71954346,89.06616211,1,0,0,response1disk,,7,6.830566406,8.62286377,1,0,0,rectangle,6.830566406,8.62286377,1,0,0,6.830566406,8.62286377,1,0,0,0,3,3,9,1,,,,,,,,
,,,,,,,,,,,,,FF,,,,,,,,2.3508,,,,,,,,,,,,,,,,,,,,,,60fdf872fb6221897dcdba50,61036f88e074d6e537aaf6ea,2021-07-29_20h21.13.431,Simcolourproject_2stim_asymm_v5,2020.2.10,MacIntel,60,61025ae37ef11b136ea224fe,,,,,,,,,3844,-39.5880127,-83.19219971,1,0,0,response5disk,,3,0.489990234,5.042785645,1,0,0,rectangle,0.489990234,5.042785645,1,0,0,0.489990234,5.042785645,1,0,0,0,4,4,150,1,,,,,,,,
,,,,,,,,,,,,,FF,,,,,,,,1.9667,,,,,,,,,,,,,,,,,,,,,,60fdf872fb6221897dcdba50,61036f88e074d6e537aaf6ea,2021-07-29_20h21.13.431,Simcolourproject_2stim_asymm_v5,2020.2.10,MacIntel,60,61025ae37ef11b136ea224fe,,,,,,,,,2748,41.96490479,111.3233337,1,0,0,response1disk,,7,-5.744812012,-13.80090332,1,0,0,rectangle,-5.744812012,-13.80090332,1,0,0,-5.744812012,-13.80090332,1,0,0,0,5,5,105,1,,,,,,,,
,,,,,,,,,,,,,FF,,,,,,,,2.7836,,,,,,,,,,,,,,,,,,,,,,60fdf872fb6221897dcdba50,61036f88e074d6e537aaf6ea,2021-07-29_20h21.13.431,Simcolourproject_2stim_asymm_v5,2020.2.10,MacIntel,60,61025ae37ef11b136ea224fe,,,,,,,,,1235,106.7327881,-30.16918945,1,0,0,response3disk,,5,16.06982422,-1.668945313,1,0,0,rectangle,16.06982422,-1.668945313,1,0,0,16.06982422,-1.668945313,1,0,0,0,6,6,132,1,,,,,,,,
,,,,,,,,,,,,,FF,,,,,,,,1.3837,,,,,,,,,,,,,,,,,,,,,,60fdf872fb6221897dcdba50,61036f88e074d6e537aaf6ea,2021-07-29_20h21.13.431,Simcolourproject_2stim_asymm_v5,2020.2.10,MacIntel,60,61025ae37ef11b136ea224fe,,,,,,,,,2389,35.69555664,90.73059082,1,0,0,response1disk,,7,-10.61950684,-1.144104004,1,0,0,rectangle,-10.61950684,-1.144104004,1,0,0,-10.61950684,-1.144104004,1,0,0,0,7,7,139,1,,,,,,,,
,,,,,,,,,,,,,FF,,,,,,,,1.7167,,,,,,,,,,,,,,,,,,,,,,60fdf872fb6221897dcdba50,61036f88e074d6e537aaf6ea,2021-07-29_20h21.13.431,Simcolourproject_2stim_asymm_v5,2020.2.10,MacIntel,60,61025ae37ef11b136ea224fe,,,,,,,,,1465,27.06091309,-74.13104248,1,0,0,response3disk,,4,3.66204834,-8.804046631,1,0,0,rectangle,3.66204834,-8.804046631,1,0,0,3.66204834,-8.804046631,1,0,0,0,8,8,144,1,,,,,,,,
,,,,,,,,,,,,,FF,,,,,,,,4.5036,,,,,,,,,,,,,,,,,,,,,,60fdf872fb6221897dcdba50,61036f88e074d6e537aaf6ea,2021-07-29_20h21.13.431,Simcolourproject_2stim_asymm_v5,2020.2.10,MacIntel,60,61025ae37ef11b136ea224fe,,,,,,,,,2228,-91.07226563,58.07391357,1,0,0,response7disk,,1,1.947692871,12.46118164,1,0,0,rectangle,1.947692871,12.46118164,1,0,0,1.947692871,12.46118164,1,0,0,0,9,9,148,1,,,,,,,,
,,,,,,,,,,,,,FF,,,,,,,,0.9338,,,,,,,,,,,,,,,,,,,,,,60fdf872fb6221897dcdba50,61036f88e074d6e537aaf6ea,2021-07-29_20h21.13.431,Simcolourproject_2stim_asymm_v5,2020.2.10,MacIntel,60,61025ae37ef11b136ea224fe,,,,,,,,,3640,26.05749512,83.72665405,1,0,0,response1disk,,7,9.685424805,1.780029297,1,0,0,rectangle,9.685424805,1.780029297,1,0,0,9.685424805,1.780029297,1,0,0,0,10,10,145,1,,,,,,,,
,,,,,,,,,,,,,FF,,,,,,,,1.119,,,,,,,,,,,,,,,,,,,,,,60fdf872fb6221897dcdba50,61036f88e074d6e537aaf6ea,2021-07-29_20h21.13.431,Simcolourproject_2stim_asymm_v5,2020.2.10,MacIntel,60,61025ae37ef11b136ea224fe,,,,,,,,,3777,-97.59716797,-58.08172607,1,0,0,response5disk,,2,-11.27832031,1.294921875,1,0,0,rectangle,-11.27832031,1.294921875,1,0,0,-11.27832031,1.294921875,1,0,0,0,11,11,68,1,,,,,,,,
,,,,,,,,,,,,,FF,,,,,,,,1.2499,,,,,,,,,,,,,,,,,,,,,,60fdf872fb6221897dcdba50,61036f88e074d6e537aaf6ea,2021-07-29_20h21.13.431,Simcolourproject_2stim_asymm_v5,2020.2.10,MacIntel,60,61025ae37ef11b136ea224fe,,,,,,,,,1828,-31.87762451,-85.09210205,1,0,0,response5disk,,3,-9.950073242,-12.12796021,1,0,0,rectangle,-9.950073242,-12.12796021,1,0,0,-9.950073242,-12.12796021,1,0,0,0,12,12,26,1,,,,,,,,
,,,,,,,,,,,,,FF,,,,,,,,2.2501,,,,,,,,,,,,,,,,,,,,,,60fdf872fb6221897dcdba50,61036f88e074d6e537aaf6ea,2021-07-29_20h21.13.431,Simcolourproject_2stim_asymm_v5,2020.2.10,MacIntel,60,61025ae37ef11b136ea224fe,,,,,,,,,5,-50.74401855,-89.2444458,1,0,0,response5disk,,3,3.229492188,9.657836914,1,0,0,rectangle,3.229492188,9.657836914,1,0,0,3.229492188,9.657836914,1,0,0,0,13,13,11,1,,,,,,,,
,,,,,,,,,,,,,FF,,,,,,,,1.9673,,,,,,,,,,,,,,,,,,,,,,60fdf872fb6221897dcdba50,61036f88e074d6e537aaf6ea,2021-07-29_20h21.13.431,Simcolourproject_2stim_asymm_v5,2020.2.10,MacIntel,60,61025ae37ef11b136ea224fe,,,,,,,,,641,39.23742676,-100.0587158,1,0,0,response3disk,,4,-3.922180176,1.756958008,1,0,0,rectangle,-3.922180176,1.756958008,1,0,0,-3.922180176,1.756958008,1,0,0,0,14,14,19,1,,,,,,,,
,,,,,,,,,,,,,FF,,,,,,,,1.0521,,,,,,,,,,,,,,,,,,,,,,60fdf872fb6221897dcdba50,61036f88e074d6e537aaf6ea,2021-07-29_20h21.13.431,Simcolourproject_2stim_asymm_v5,2020.2.10,MacIntel,60,61025ae37ef11b136ea224fe,,,,,,,,,628,33.28131104,82.13076782,1,0,0,response1disk,,7,3.623168945,7.525695801,1,0,0,rectangle,3.623168945,7.525695801,1,0,0,3.623168945,7.525695801,1,0,0,0,15,15,138,1,,,,,,,,
,,,,,,,,,,,,,FF,,,,,,,,1.0005,,,,,,,,,,,,,,,,,,,,,,60fdf872fb6221897dcdba50,61036f88e074d6e537aaf6ea,2021-07-29_20h21.13.431,Simcolourproject_2stim_asymm_v5,2020.2.10,MacIntel,60,61025ae37ef11b136ea224fe,,,,,,,,,2699,46.85681152,107.3396606,1,0,0,response1disk,,7,9.768432617,3.539916992,1,0,0,rectangle,9.768432617,3.539916992,1,0,0,9.768432617,3.539916992,1,0,0,0,16,16,34,1,,,,,,,,
,,,,,,,,,,,,,FF,,,,,,,,2.0505,,,,,,,,,,,,,,,,,,,,,,60fdf872fb6221897dcdba50,61036f88e074d6e537aaf6ea,2021-07-29_20h21.13.431,Simcolourproject_2stim_asymm_v5,2020.2.10,MacIntel,60,61025ae37ef11b136ea224fe,,,,,,,,,2297,-101.1831665,-50.71762085,1,0,0,response5disk,,2,-21.68151855,0.897735596,1,0,0,rectangle,-21.68151855,0.897735596,1,0,0,-21.68151855,0.897735596,1,0,0,0,17,17,1,1,,,,,,,,
,,,,,,,,,,,,,FF,,,,,,,,1.1838,,,,,,,,,,,,,,,,,,,,,,60fdf872fb6221897dcdba50,61036f88e074d6e537aaf6ea,2021-07-29_20h21.13.431,Simcolourproject_2stim_asymm_v5,2020.2.10,MacIntel,60,61025ae37ef11b136ea224fe,,,,,,,,,3264,28.89013672,93.41156006,1,0,0,response1disk,,7,5.279296875,10.25942993,1,0,0,rectangle,5.279296875,10.25942993,1,0,0,5.279296875,10.25942993,1,0,0,0,18,18,53,1,,,,,,,,
,,,,,,,,,,,,,FF,,,,,,,,1.1834,,,,,,,,,,,,,,,,,,,,,,60fdf872fb6221897dcdba50,61036f88e074d6e537aaf6ea,2021-07-29_20h21.13.431,Simcolourproject_2stim_asymm_v5,2020.2.10,MacIntel,60,61025ae37ef11b136ea224fe,,,,,,,,,4277,30.55078125,72.42315674,1,0,0,response1disk,,7,7.711547852,6.300109863,1,0,0,rectangle,7.711547852,6.300109863,1,0,0,7.711547852,6.300109863,1,0,0,0,19,19,142,1,,,,,,,,
,,,,,,,,,,,,,FF,,,,,,,,1.7665,,,,,,,,,,,,,,,,,,,,,,60fdf872fb6221897dcdba50,61036f88e074d6e537aaf6ea,2021-07-29_20h21.13.431,Simcolourproject_2stim_asymm_v5,2020.2.10,MacIntel,60,61025ae37ef11b136ea224fe,,,,,,,,,2584,32.4508667,77.54483032,1,0,0,response1disk,,7,6.556091309,8.431793213,1,0,0,rectangle,6.556091309,8.431793213,1,0,0,6.556091309,8.431793213,1,0,0,0,20,20,28,1,,,,,,,,
,,,,,,,,,,,,,FF,,,,,,,,0.816,,,,,,,,,,,,,,,,,,,,,,60fdf872fb6221897dcdba50,61036f88e074d6e537aaf6ea,2021-07-29_20h21.13.431,Simcolourproject_2stim_asymm_v5,2020.2.10,MacIntel,60,61025ae37ef11b136ea224fe,,,,,,,,,1107,29.89746094,72.31738281,1,0,0,response1disk,,7,4.348144531,-4.903259277,1,0,0,rectangle,4.348144531,-4.903259277,1,0,0,4.348144531,-4.903259277,1,0,0,0,21,21,12,1,,,,,,,,
,,,,,,,,,,,,,FF,,,,,,,,0.9512,,,,,,,,,,,,,,,,,,,,,,60fdf872fb6221897dcdba50,61036f88e074d6e537aaf6ea,2021-07-29_20h21.13.431,Simcolourproject_2stim_asymm_v5,2020.2.10,MacIntel,60,61025ae37ef11b136ea224fe,,,,,,,,,715,34.56317139,56.68096924,1,0,0,response1disk,,7,8.321228027,-4.672485352,1,0,0,rectangle,8.321228027,-4.672485352,1,0,0,8.321228027,-4.672485352,1,0,0,0,22,22,24,1,,,,,,,,
,,,,,,,,,,,,,FF,,,,,,,,1.9006,,,,,,,,,,,,,,,,,,,,,,60fdf872fb6221897dcdba50,61036f88e074d6e537aaf6ea,2021-07-29_20h21.13.431,Simcolourproject_2stim_asymm_v5,2020.2.10,MacIntel,60,61025ae37ef11b136ea224fe,,,,,,,,,1835,82.15625,29.77996826,1,0,0,response1disk,,6,11.85498047,-3.045593262,1,0,0,rectangle,11.85498047,-3.045593262,1,0,0,11.85498047,-3.045593262,1,0,0,0,23,23,50,1,,,,,,,,
,,,,,,,,,,,,,FF,,,,,,,,1.0335,,,,,,,,,,,,,,,,,,,,,,60fdf872fb6221897dcdba50,61036f88e074d6e537aaf6ea,2021-07-29_20h21.13.431,Simcolourproject_2stim_asymm_v5,2020.2.10,MacIntel,60,61025ae37ef11b136ea224fe,,,,,,,,,3800,42.49908447,84.8114624,1,0,0,response1disk,,7,11.89544678,13.08953857,1,0,0,rectangle,11.89544678,13.08953857,1,0,0,11.89544678,13.08953857,1,0,0,0,24,24,54,1,,,,,,,,
,,,,,,,,,,,,,FF,,,,,,,,1.0163,,,,,,,,,,,,,,,,,,,,,,60fdf872fb6221897dcdba50,61036f88e074d6e537aaf6ea,2021-07-29_20h21.13.431,Simcolourproject_2stim_asymm_v5,2020.2.10,MacIntel,60,61025ae37ef11b136ea224fe,,,,,,,,,3612,35.43664551,90.37774658,1,0,0,response1disk,,7,-8.184570313,-6.237426758,1,0,0,rectangle,37.69799805,108.377594,1,0,0,-4.115356445,0.395935059,1,0,0,0,25,25,141,1,,response1disk_3,TRUE,7,7,"[77,263,44,213,249,123,147,44,153,195,67,26,294,134,46,74,70,147,149,268]",2.1863,rectangle
,,,,,,,,,,,,,FF,,,,,,,,2.3001,,,,,,,,,,,,,,,,,,,,,,60fdf872fb6221897dcdba50,61036f88e074d6e537aaf6ea,2021-07-29_20h21.13.431,Simcolourproject_2stim_asymm_v5,2020.2.10,MacIntel,60,61025ae37ef11b136ea224fe,,,,,,,,,2237,97.88623047,-39.69497681,1,0,0,response3disk,,5,-21.84521484,1.015838623,1,0,0,rectangle,-21.84521484,1.015838623,1,0,0,-21.84521484,1.015838623,1,0,0,0,26,26,108,1,,,,,,,,
,,,,,,,,,,,,,FF,,,,,,,,1.5175,,,,,,,,,,,,,,,,,,,,,,60fdf872fb6221897dcdba50,61036f88e074d6e537aaf6ea,2021-07-29_20h21.13.431,Simcolourproject_2stim_asymm_v5,2020.2.10,MacIntel,60,61025ae37ef11b136ea224fe,,,,,,,,,1717,89.66711426,37.88616943,1,0,0,response1disk,,6,12.48901367,-2.081237793,1,0,0,rectangle,12.48901367,-2.081237793,1,0,0,12.48901367,-2.081237793,1,0,0,0,27,27,159,1,,,,,,,,
,,,,,,,,,,,,,FF,,,,,,,,1.7658,,,,,,,,,,,,,,,,,,,,,,60fdf872fb6221897dcdba50,61036f88e074d6e537aaf6ea,2021-07-29_20h21.13.431,Simcolourproject_2stim_asymm_v5,2020.2.10,MacIntel,60,61025ae37ef11b136ea224fe,,,,,,,,,1614,77.53112793,-38.82348633,1,0,0,response3disk,,5,-13.76953125,2.866394043,1,0,0,rectangle,-13.76953125,2.866394043,1,0,0,-13.76953125,2.866394043,1,0,0,0,28,28,113,1,,,,,,,,
,,,,,,,,,,,,,FF,,,,,,,,1.0005,,,,,,,,,,,,,,,,,,,,,,60fdf872fb6221897dcdba50,61036f88e074d6e537aaf6ea,2021-07-29_20h21.13.431,Simcolourproject_2stim_asymm_v5,2020.2.10,MacIntel,60,61025ae37ef11b136ea224fe,,,,,,,,,3222,28.64648438,89.70080566,1,0,0,response1disk,,7,-12.55529785,2.695007324,1,0,0,rectangle,-12.55529785,2.695007324,1,0,0,-12.55529785,2.695007324,1,0,0,0,29,29,98,1,,,,,,,,
,,,,,,,,,,,,,FF,,,,,,,,2.3339,,,,,,,,,,,,,,,,,,,,,,60fdf872fb6221897dcdba50,61036f88e074d6e537aaf6ea,2021-07-29_20h21.13.431,Simcolourproject_2stim_asymm_v5,2020.2.10,MacIntel,60,61025ae37ef11b136ea224fe,,,,,,,,,4306,-84.18762207,36.62902832,1,0,0,response7disk,,1,-3.348510742,-1.698516846,1,0,0,rectangle,-3.348510742,-1.698516846,1,0,0,-3.348510742,-1.698516846,1,0,0,0,30,30,7,1,,,,,,,,
,,,,,,,,,,,,,FF,,,,,,,,1.3337,,,,,,,,,,,,,,,,,,,,,,60fdf872fb6221897dcdba50,61036f88e074d6e537aaf6ea,2021-07-29_20h21.13.431,Simcolourproject_2stim_asymm_v5,2020.2.10,MacIntel,60,61025ae37ef11b136ea224fe,,,,,,,,,1927,35.08453369,85.64044189,1,0,0,response1disk,,7,8.469299316,-11.21453857,1,0,0,rectangle,8.469299316,-11.21453857,1,0,0,8.469299316,-11.21453857,1,0,0,0,31,31,65,1,,,,,,,,
,,,,,,,,,,,,,FF,,,,,,,,1.8197,,,,,,,,,,,,,,,,,,,,,,60fdf872fb6221897dcdba50,61036f88e074d6e537aaf6ea,2021-07-29_20h21.13.431,Simcolourproject_2stim_asymm_v5,2020.2.10,MacIntel,60,61025ae37ef11b136ea224fe,,,,,,,,,837,105.5195313,57.88546753,1,0,0,response1disk,,6,15.35552979,9.216491699,1,0,0,rectangle,15.35552979,9.216491699,1,0,0,15.35552979,9.216491699,1,0,0,0,32,32,147,1,,,,,,,,
,,,,,,,,,,,,,FF,,,,,,,,0.7832,,,,,,,,,,,,,,,,,,,,,,60fdf872fb6221897dcdba50,61036f88e074d6e537aaf6ea,2021-07-29_20h21.13.431,Simcolourproject_2stim_asymm_v5,2020.2.10,MacIntel,60,61025ae37ef11b136ea224fe,,,,,,,,,3841,34.46636963,78.65344238,1,0,0,response1disk,,7,1.894165039,-2.819763184,1,0,0,rectangle,1.894165039,-2.819763184,1,0,0,1.894165039,-2.819763184,1,0,0,0,33,33,152,1,,,,,,,,
,,,,,,,,,,,,,FF,,,,,,,,1.3162,,,,,,,,,,,,,,,,,,,,,,60fdf872fb6221897dcdba50,61036f88e074d6e537aaf6ea,2021-07-29_20h21.13.431,Simcolourproject_2stim_asymm_v5,2020.2.10,MacIntel,60,61025ae37ef11b136ea224fe,,,,,,,,,333,65.67974854,30.32904053,1,0,0,response1disk,,6,-0.815124512,0.507385254,1,0,0,rectangle,-0.815124512,0.507385254,1,0,0,-0.815124512,0.507385254,1,0,0,0,34,34,3,1,,,,,,,,
,,,,,,,,,,,,,FF,,,,,,,,1.2343,,,,,,,,,,,,,,,,,,,,,,60fdf872fb6221897dcdba50,61036f88e074d6e537aaf6ea,2021-07-29_20h21.13.431,Simcolourproject_2stim_asymm_v5,2020.2.10,MacIntel,60,61025ae37ef11b136ea224fe,,,,,,,,,1445,-42.8805542,99.4593811,1,0,0,response7disk,,0,-0.747314453,8.391662598,1,0,0,rectangle,-0.747314453,8.391662598,1,0,0,-0.747314453,8.391662598,1,0,0,0,35,35,140,1,,,,,,,,
,,,,,,,,,,,,,FF,,,,,,,,0.9845,,,,,,,,,,,,,,,,,,,,,,60fdf872fb6221897dcdba50,61036f88e074d6e537aaf6ea,2021-07-29_20h21.13.431,Simcolourproject_2stim_asymm_v5,2020.2.10,MacIntel,60,61025ae37ef11b136ea224fe,,,,,,,,,2573,37.49627686,113.3408813,1,0,0,response1disk,,7,5.977905273,2.073913574,1,0,0,rectangle,5.977905273,2.073913574,1,0,0,5.977905273,2.073913574,1,0,0,0,36,36,154,1,,,,,,,,
,,,,,,,,,,,,,FF,,,,,,,,1.3843,,,,,,,,,,,,,,,,,,,,,,60fdf872fb6221897dcdba50,61036f88e074d6e537aaf6ea,2021-07-29_20h21.13.431,Simcolourproject_2stim_asymm_v5,2020.2.10,MacIntel,60,61025ae37ef11b136ea224fe,,,,,,,,,4010,56.58239746,60.84356689,1,0,0,response1disk,,7,5.891235352,-3.108947754,1,0,0,rectangle,5.891235352,-3.108947754,1,0,0,5.891235352,-3.108947754,1,0,0,0,37,37,76,1,,,,,,,,
,,,,,,,,,,,,,FF,,,,,,,,1.2327,,,,,,,,,,,,,,,,,,,,,,60fdf872fb6221897dcdba50,61036f88e074d6e537aaf6ea,2021-07-29_20h21.13.431,Simcolourproject_2stim_asymm_v5,2020.2.10,MacIntel,60,61025ae37ef11b136ea224fe,,,,,,,,,3734,27.08111572,68.03256226,1,0,0,response1disk,,7,6.372558594,13.31680298,1,0,0,rectangle,6.372558594,13.31680298,1,0,0,6.372558594,13.31680298,1,0,0,0,38,38,88,1,,,,,,,,
,,,,,,,,,,,,,FF,,,,,,,,1.4682,,,,,,,,,,,,,,,,,,,,,,60fdf872fb6221897dcdba50,61036f88e074d6e537aaf6ea,2021-07-29_20h21.13.431,Simcolourproject_2stim_asymm_v5,2020.2.10,MacIntel,60,61025ae37ef11b136ea224fe,,,,,,,,,1169,76.50927734,41.32928467,1,0,0,response1disk,,6,15.63098145,3.362548828,1,0,0,rectangle,15.63098145,3.362548828,1,0,0,15.63098145,3.362548828,1,0,0,0,39,39,103,1,,,,,,,,
,,,,,,,,,,,,,FF,,,,,,,,2.7184,,,,,,,,,,,,,,,,,,,,,,60fdf872fb6221897dcdba50,61036f88e074d6e537aaf6ea,2021-07-29_20h21.13.431,Simcolourproject_2stim_asymm_v5,2020.2.10,MacIntel,60,61025ae37ef11b136ea224fe,,,,,,,,,2741,33.08111572,79.09014893,1,0,0,response1disk,,7,-5.528320313,0.37298584,1,0,0,rectangle,-5.528320313,0.37298584,1,0,0,-5.528320313,0.37298584,1,0,0,0,40,40,25,1,,,,,,,,
,,,,,,,,,,,,,FF,,,,,,,,0.8352,,,,,,,,,,,,,,,,,,,,,,60fdf872fb6221897dcdba50,61036f88e074d6e537aaf6ea,2021-07-29_20h21.13.431,Simcolourproject_2stim_asymm_v5,2020.2.10,MacIntel,60,61025ae37ef11b136ea224fe,,,,,,,,,87,25.14862061,67.00360107,1,0,0,response1disk,,7,-1.993469238,10.04748535,1,0,0,rectangle,-1.993469238,10.04748535,1,0,0,-1.993469238,10.04748535,1,0,0,0,41,41,94,1,,,,,,,,
,,,,,,,,,,,,,FF,,,,,,,,2.7163,,,,,,,,,,,,,,,,,,,,,,60fdf872fb6221897dcdba50,61036f88e074d6e537aaf6ea,2021-07-29_20h21.13.431,Simcolourproject_2stim_asymm_v5,2020.2.10,MacIntel,60,61025ae37ef11b136ea224fe,,,,,,,,,2928,33.77355957,68.1166687,1,0,0,response1disk,,7,7.70904541,14.87585449,1,0,0,rectangle,7.70904541,14.87585449,1,0,0,7.70904541,14.87585449,1,0,0,0,42,42,6,1,,,,,,,,
,,,,,,,,,,,,,FF,,,,,,,,1.0006,,,,,,,,,,,,,,,,,,,,,,60fdf872fb6221897dcdba50,61036f88e074d6e537aaf6ea,2021-07-29_20h21.13.431,Simcolourproject_2stim_asymm_v5,2020.2.10,MacIntel,60,61025ae37ef11b136ea224fe,,,,,,,,,1336,25.59954834,74.45159912,1,0,0,response1disk,,7,1.809143066,13.06671143,1,0,0,rectangle,-44.25775146,-78.5690918,1,0,0,-15.35699463,-6.681121826,1,0,0,0,43,43,87,1,,response5disk_3,TRUE,3,3,"[77,263,44,213,249,123,147,44,153,195,67,26,294,134,46,74,70,147,149,268]",1.9509,rectangle
,,,,,,,,,,,,,FF,,,,,,,,1.0681,,,,,,,,,,,,,,,,,,,,,,60fdf872fb6221897dcdba50,61036f88e074d6e537aaf6ea,2021-07-29_20h21.13.431,Simcolourproject_2stim_asymm_v5,2020.2.10,MacIntel,60,61025ae37ef11b136ea224fe,,,,,,,,,2393,32.86608887,77.9960022,1,0,0,response1disk,,7,11.16870117,7.994873047,1,0,0,rectangle,11.16870117,7.994873047,1,0,0,11.16870117,7.994873047,1,0,0,0,44,44,109,1,,,,,,,,
,,,,,,,,,,,,,FF,,,,,,,,1.3189,,,,,,,,,,,,,,,,,,,,,,60fdf872fb6221897dcdba50,61036f88e074d6e537aaf6ea,2021-07-29_20h21.13.431,Simcolourproject_2stim_asymm_v5,2020.2.10,MacIntel,60,61025ae37ef11b136ea224fe,,,,,,,,,3515,34.65008545,-67.04333496,1,0,0,response3disk,,4,-0.173461914,9.085510254,1,0,0,rectangle,85.14416504,34.14459229,1,0,0,5.188842773,-2.156524658,1,0,0,0,45,45,112,1,,response1disk_3,TRUE,6,6,"[77,263,44,213,249,123,147,44,153,195,67,26,294,134,46,74,70,147,149,268]",1.7165,rectangle
,,,,,,,,,,,,,FF,,,,,,,,0.9491,,,,,,,,,,,,,,,,,,,,,,60fdf872fb6221897dcdba50,61036f88e074d6e537aaf6ea,2021-07-29_20h21.13.431,Simcolourproject_2stim_asymm_v5,2020.2.10,MacIntel,60,61025ae37ef11b136ea224fe,,,,,,,,,884,35.96166992,73.07122803,1,0,0,response1disk,,7,10.61804199,2.116333008,1,0,0,rectangle,10.61804199,2.116333008,1,0,0,10.61804199,2.116333008,1,0,0,0,46,46,61,1,,,,,,,,
,,,,,,,,,,,,,FF,,,,,,,,3.2504,,,,,,,,,,,,,,,,,,,,,,60fdf872fb6221897dcdba50,61036f88e074d6e537aaf6ea,2021-07-29_20h21.13.431,Simcolourproject_2stim_asymm_v5,2020.2.10,MacIntel,60,61025ae37ef11b136ea224fe,,,,,,,,,3377,73.85394287,-23.90686035,1,0,0,response3disk,,5,-14.00073242,3.476989746,1,0,0,rectangle,-14.00073242,3.476989746,1,0,0,-14.00073242,3.476989746,1,0,0,0,47,47,22,1,,,,,,,,
,,,,,,,,,,,,,FF,,,,,,,,1.6836,,,,,,,,,,,,,,,,,,,,,,60fdf872fb6221897dcdba50,61036f88e074d6e537aaf6ea,2021-07-29_20h21.13.431,Simcolourproject_2stim_asymm_v5,2020.2.10,MacIntel,60,61025ae37ef11b136ea224fe,,,,,,,,,2161,31.765625,-81.75280762,1,0,0,response3disk,,4,-2.674438477,-0.686706543,1,0,0,rectangle,-2.674438477,-0.686706543,1,0,0,-2.674438477,-0.686706543,1,0,0,0,48,48,82,1,,,,,,,,
,,,,,,,,,,,,,FF,,,,,,,,2.1338,,,,,,,,,,,,,,,,,,,,,,60fdf872fb6221897dcdba50,61036f88e074d6e537aaf6ea,2021-07-29_20h21.13.431,Simcolourproject_2stim_asymm_v5,2020.2.10,MacIntel,60,61025ae37ef11b136ea224fe,,,,,,,,,2487,85.76177979,28.3421936,1,0,0,response1disk,,6,-14.26287842,-10.05404663,1,0,0,rectangle,-14.26287842,-10.05404663,1,0,0,-14.26287842,-10.05404663,1,0,0,0,49,49,41,1,,,,,,,,
,,,,,,,,,,,,,FF,,,,,,,,1.7004,,,,,,,,,,,,,,,,,,,,,,60fdf872fb6221897dcdba50,61036f88e074d6e537aaf6ea,2021-07-29_20h21.13.431,Simcolourproject_2stim_asymm_v5,2020.2.10,MacIntel,60,61025ae37ef11b136ea224fe,,,,,,,,,4075,78.68652344,-33.99468994,1,0,0,response3disk,,5,16.83300781,-1.295684814,1,0,0,rectangle,16.83300781,-1.295684814,1,0,0,16.83300781,-1.295684814,1,0,0,0,50,50,124,1,,,,,,,,
,,,,,,,,,,,,,FF,,,,,,,,0.7501,,,,,,,,,,,,,,,,,,,,,,60fdf872fb6221897dcdba50,61036f88e074d6e537aaf6ea,2021-07-29_20h21.13.431,Simcolourproject_2stim_asymm_v5,2020.2.10,MacIntel,60,61025ae37ef11b136ea224fe,,,,,,,,,3289,33.97314453,71.90844727,1,0,0,response1disk,,7,14.26867676,4.028747559,1,0,0,rectangle,14.26867676,4.028747559,1,0,0,14.26867676,4.028747559,1,0,0,0,51,51,135,1,,,,,,,,
,,,,,,,,,,,,,FF,,,,,,,,0.8343,,,,,,,,,,,,,,,,,,,,,,60fdf872fb6221897dcdba50,61036f88e074d6e537aaf6ea,2021-07-29_20h21.13.431,Simcolourproject_2stim_asymm_v5,2020.2.10,MacIntel,60,61025ae37ef11b136ea224fe,,,,,,,,,3195,-46.57055664,108.6195679,1,0,0,response7disk,,0,-4.454528809,5.185852051,1,0,0,rectangle,-4.454528809,5.185852051,1,0,0,-4.454528809,5.185852051,1,0,0,0,52,52,119,1,,,,,,,,
,,,,,,,,,,,,,FF,,,,,,,,1.8501,,,,,,,,,,,,,,,,,,,,,,60fdf872fb6221897dcdba50,61036f88e074d6e537aaf6ea,2021-07-29_20h21.13.431,Simcolourproject_2stim_asymm_v5,2020.2.10,MacIntel,60,61025ae37ef11b136ea224fe,,,,,,,,,2976,47.75921631,110.8066101,1,0,0,response1disk,,7,6.506896973,4.659301758,1,0,0,rectangle,6.506896973,4.659301758,1,0,0,6.506896973,4.659301758,1,0,0,0,53,53,102,1,,,,,,,,
,,,,,,,,,,,,,FF,,,,,,,,2.7009,,,,,,,,,,,,,,,,,,,,,,60fdf872fb6221897dcdba50,61036f88e074d6e537aaf6ea,2021-07-29_20h21.13.431,Simcolourproject_2stim_asymm_v5,2020.2.10,MacIntel,60,61025ae37ef11b136ea224fe,,,,,,,,,2779,65.65466309,31.96942139,1,0,0,response1disk,,6,-6.175537109,-2.263366699,1,0,0,rectangle,-6.175537109,-2.263366699,1,0,0,-6.175537109,-2.263366699,1,0,0,0,54,54,116,1,,,,,,,,
,,,,,,,,,,,,,FF,,,,,,,,1.1833,,,,,,,,,,,,,,,,,,,,,,60fdf872fb6221897dcdba50,61036f88e074d6e537aaf6ea,2021-07-29_20h21.13.431,Simcolourproject_2stim_asymm_v5,2020.2.10,MacIntel,60,61025ae37ef11b136ea224fe,,,,,,,,,2149,24.32000732,77.4012146,1,0,0,response1disk,,7,-14.53808594,-1.769287109,1,0,0,rectangle,-14.53808594,-1.769287109,1,0,0,-14.53808594,-1.769287109,1,0,0,0,55,55,80,1,,,,,,,,
,,,,,,,,,,,,,FF,,,,,,,,2.3675,,,,,,,,,,,,,,,,,,,,,,60fdf872fb6221897dcdba50,61036f88e074d6e537aaf6ea,2021-07-29_20h21.13.431,Simcolourproject_2stim_asymm_v5,2020.2.10,MacIntel,60,61025ae37ef11b136ea224fe,,,,,,,,,1150,79.9130249,-39.56378174,1,0,0,response3disk,,5,14.04156494,2.626403809,1,0,0,rectangle,14.04156494,2.626403809,1,0,0,14.04156494,2.626403809,1,0,0,0,56,56,13,1,,,,,,,,
,,,,,,,,,,,,,FF,,,,,,,,1.6998,,,,,,,,,,,,,,,,,,,,,,60fdf872fb6221897dcdba50,61036f88e074d6e537aaf6ea,2021-07-29_20h21.13.431,Simcolourproject_2stim_asymm_v5,2020.2.10,MacIntel,60,61025ae37ef11b136ea224fe,,,,,,,,,2651,68.35772705,46.26934814,1,0,0,response1disk,,6,5.580749512,-1.69631958,1,0,0,rectangle,5.580749512,-1.69631958,1,0,0,5.580749512,-1.69631958,1,0,0,0,57,57,69,1,,,,,,,,
,,,,,,,,,,,,,FF,,,,,,,,1.0172,,,,,,,,,,,,,,,,,,,,,,60fdf872fb6221897dcdba50,61036f88e074d6e537aaf6ea,2021-07-29_20h21.13.431,Simcolourproject_2stim_asymm_v5,2020.2.10,MacIntel,60,61025ae37ef11b136ea224fe,,,,,,,,,1043,32.12780762,88.11877441,1,0,0,response1disk,,7,-2.225891113,0.579650879,1,0,0,rectangle,-2.225891113,0.579650879,1,0,0,-2.225891113,0.579650879,1,0,0,0,58,58,58,1,,,,,,,,
,,,,,,,,,,,,,FF,,,,,,,,2.5518,,,,,,,,,,,,,,,,,,,,,,60fdf872fb6221897dcdba50,61036f88e074d6e537aaf6ea,2021-07-29_20h21.13.431,Simcolourproject_2stim_asymm_v5,2020.2.10,MacIntel,60,61025ae37ef11b136ea224fe,,,,,,,,,1154,30.57116699,85.11651611,1,0,0,response1disk,,7,11.81420898,16.04614258,1,0,0,rectangle,11.81420898,16.04614258,1,0,0,11.81420898,16.04614258,1,0,0,0,59,59,46,1,,,,,,,,
,,,,,,,,,,,,,FF,,,,,,,,0.7182,,,,,,,,,,,,,,,,,,,,,,60fdf872fb6221897dcdba50,61036f88e074d6e537aaf6ea,2021-07-29_20h21.13.431,Simcolourproject_2stim_asymm_v5,2020.2.10,MacIntel,60,61025ae37ef11b136ea224fe,,,,,,,,,2315,37.74182129,95.97314453,1,0,0,response1disk,,7,8.942077637,9.459899902,1,0,0,rectangle,8.942077637,9.459899902,1,0,0,8.942077637,9.459899902,1,0,0,0,60,60,146,1,,,,,,,,
,,,,,,,,,,,,,FF,,,,,,,,1.2336,,,,,,,,,,,,,,,,,,,,,,60fdf872fb6221897dcdba50,61036f88e074d6e537aaf6ea,2021-07-29_20h21.13.431,Simcolourproject_2stim_asymm_v5,2020.2.10,MacIntel,60,61025ae37ef11b136ea224fe,,,,,,,,,607,52.24261475,27.06512451,1,0,0,response1disk,,6,3.151245117,-5.701049805,1,0,0,rectangle,3.151245117,-5.701049805,1,0,0,3.151245117,-5.701049805,1,0,0,0,61,61,90,1,,,,,,,,
,,,,,,,,,,,,,FF,,,,,,,,2.2998,,,,,,,,,,,,,,,,,,,,,,60fdf872fb6221897dcdba50,61036f88e074d6e537aaf6ea,2021-07-29_20h21.13.431,Simcolourproject_2stim_asymm_v5,2020.2.10,MacIntel,60,61025ae37ef11b136ea224fe,,,,,,,,,1827,28.68969727,-98.16894531,1,0,0,response3disk,,4,2.009155273,-4.673156738,1,0,0,rectangle,2.009155273,-4.673156738,1,0,0,2.009155273,-4.673156738,1,0,0,0,62,62,31,1,,,,,,,,
,,,,,,,,,,,,,FF,,,,,,,,2.1005,,,,,,,,,,,,,,,,,,,,,,60fdf872fb6221897dcdba50,61036f88e074d6e537aaf6ea,2021-07-29_20h21.13.431,Simcolourproject_2stim_asymm_v5,2020.2.10,MacIntel,60,61025ae37ef11b136ea224fe,,,,,,,,,704,34.33666992,67.56140137,1,0,0,response1disk,,7,5.005737305,-8.336364746,1,0,0,rectangle,5.005737305,-8.336364746,1,0,0,5.005737305,-8.336364746,1,0,0,0,63,63,91,1,,,,,,,,
,,,,,,,,,,,,,FF,,,,,,,,1.5323,,,,,,,,,,,,,,,,,,,,,,60fdf872fb6221897dcdba50,61036f88e074d6e537aaf6ea,2021-07-29_20h21.13.431,Simcolourproject_2stim_asymm_v5,2020.2.10,MacIntel,60,61025ae37ef11b136ea224fe,,,,,,,,,777,36.84838867,83.38598633,1,0,0,response1disk,,7,5.178344727,6.998352051,1,0,0,rectangle,5.178344727,6.998352051,1,0,0,5.178344727,6.998352051,1,0,0,0,64,64,157,1,,,,,,,,
,,,,,,,,,,,,,FF,,,,,,,,0.7502,,,,,,,,,,,,,,,,,,,,,,60fdf872fb6221897dcdba50,61036f88e074d6e537aaf6ea,2021-07-29_20h21.13.431,Simcolourproject_2stim_asymm_v5,2020.2.10,MacIntel,60,61025ae37ef11b136ea224fe,,,,,,,,,420,38.70245361,124.1541748,1,0,0,response1disk,,7,-9.274230957,-4.78314209,1,0,0,rectangle,-9.274230957,-4.78314209,1,0,0,-9.274230957,-4.78314209,1,0,0,0,65,65,122,1,,,,,,,,
,,,,,,,,,,,,,FF,,,,,,,,1.4003,,,,,,,,,,,,,,,,,,,,,,60fdf872fb6221897dcdba50,61036f88e074d6e537aaf6ea,2021-07-29_20h21.13.431,Simcolourproject_2stim_asymm_v5,2020.2.10,MacIntel,60,61025ae37ef11b136ea224fe,,,,,,,,,2861,45.40289307,99.28643799,1,0,0,response1disk,,7,4.771972656,10.00656128,1,0,0,rectangle,75.48706055,34.83514404,1,0,0,-0.262817383,-3.493835449,1,0,0,0,66,66,96,1,,response1disk_3,TRUE,6,6,"[77,263,44,213,249,123,147,44,153,195,67,26,294,134,46,74,70,147,149,268]",2.3497,rectangle
,,,,,,,,,,,,,FF,,,,,,,,1.5179,,,,,,,,,,,,,,,,,,,,,,60fdf872fb6221897dcdba50,61036f88e074d6e537aaf6ea,2021-07-29_20h21.13.431,Simcolourproject_2stim_asymm_v5,2020.2.10,MacIntel,60,61025ae37ef11b136ea224fe,,,,,,,,,3099,-31.9977417,-95.36950684,1,0,0,response5disk,,3,-2.772949219,-2.37512207,1,0,0,rectangle,-2.772949219,-2.37512207,1,0,0,-2.772949219,-2.37512207,1,0,0,0,67,67,123,1,,,,,,,,
,,,,,,,,,,,,,FF,,,,,,,,2.0172,,,,,,,,,,,,,,,,,,,,,,60fdf872fb6221897dcdba50,61036f88e074d6e537aaf6ea,2021-07-29_20h21.13.431,Simcolourproject_2stim_asymm_v5,2020.2.10,MacIntel,60,61025ae37ef11b136ea224fe,,,,,,,,,3138,-46.13928223,-89.22802734,1,0,0,response5disk,,3,-11.6697998,-4.681518555,1,0,0,rectangle,-11.6697998,-4.681518555,1,0,0,-11.6697998,-4.681518555,1,0,0,0,68,68,42,1,,,,,,,,
,,,,,,,,,,,,,FF,,,,,,,,1.9002,,,,,,,,,,,,,,,,,,,,,,60fdf872fb6221897dcdba50,61036f88e074d6e537aaf6ea,2021-07-29_20h21.13.431,Simcolourproject_2stim_asymm_v5,2020.2.10,MacIntel,60,61025ae37ef11b136ea224fe,,,,,,,,,3190,-84.71234131,-34.42108154,1,0,0,response5disk,,2,5.452087402,7.257293701,1,0,0,rectangle,-44.20654297,79.70947266,1,0,0,-7.899353027,3.527282715,1,0,0,0,69,69,127,1,,response7disk_3,TRUE,0,0,"[77,263,44,213,249,123,147,44,153,195,67,26,294,134,46,74,70,147,149,268]",1.8332,rectangle
,,,,,,,,,,,,,FF,,,,,,,,2.4997,,,,,,,,,,,,,,,,,,,,,,60fdf872fb6221897dcdba50,61036f88e074d6e537aaf6ea,2021-07-29_20h21.13.431,Simcolourproject_2stim_asymm_v5,2020.2.10,MacIntel,60,61025ae37ef11b136ea224fe,,,,,,,,,3163,41.27862549,-103.5480347,1,0,0,response3disk,,4,4.364074707,-9.866851807,1,0,0,rectangle,4.364074707,-9.866851807,1,0,0,4.364074707,-9.866851807,1,0,0,0,70,70,95,1,,,,,,,,
,,,,,,,,,,,,,FF,,,,,,,,1.0176,,,,,,,,,,,,,,,,,,,,,,60fdf872fb6221897dcdba50,61036f88e074d6e537aaf6ea,2021-07-29_20h21.13.431,Simcolourproject_2stim_asymm_v5,2020.2.10,MacIntel,60,61025ae37ef11b136ea224fe,,,,,,,,,2278,26.5546875,88.92010498,1,0,0,response1disk,,7,0.602722168,4.840759277,1,0,0,rectangle,0.602722168,4.840759277,1,0,0,0.602722168,4.840759277,1,0,0,0,71,71,59,1,,,,,,,,
,,,,,,,,,,,,,FF,,,,,,,,2.9661,,,,,,,,,,,,,,,,,,,,,,60fdf872fb6221897dcdba50,61036f88e074d6e537aaf6ea,2021-07-29_20h21.13.431,Simcolourproject_2stim_asymm_v5,2020.2.10,MacIntel,60,61025ae37ef11b136ea224fe,,,,,,,,,2530,52.39239502,106.7914734,1,0,0,response1disk,,7,-0.605102539,-2.713378906,1,0,0,rectangle,-0.605102539,-2.713378906,1,0,0,-0.605102539,-2.713378906,1,0,0,0,72,72,21,1,,,,,,,,
,,,,,,,,,,,,,FF,,,,,,,,2.1001,,,,,,,,,,,,,,,,,,,,,,60fdf872fb6221897dcdba50,61036f88e074d6e537aaf6ea,2021-07-29_20h21.13.431,Simcolourproject_2stim_asymm_v5,2020.2.10,MacIntel,60,61025ae37ef11b136ea224fe,,,,,,,,,979,94.20599365,-44.43414307,1,0,0,response3disk,,5,20.27978516,6.842529297,1,0,0,rectangle,-33.79541016,-78.48864746,1,0,0,-3.421508789,5.57635498,1,0,0,0,73,73,17,1,,response5disk_3,TRUE,3,3,"[77,263,44,213,249,123,147,44,153,195,67,26,294,134,46,74,70,147,149,268]",2.1005,rectangle
,,,,,,,,,,,,,FF,,,,,,,,1.7502,,,,,,,,,,,,,,,,,,,,,,60fdf872fb6221897dcdba50,61036f88e074d6e537aaf6ea,2021-07-29_20h21.13.431,Simcolourproject_2stim_asymm_v5,2020.2.10,MacIntel,60,61025ae37ef11b136ea224fe,,,,,,,,,4170,-94.80615234,-64.65618896,1,0,0,response5disk,,2,-6.571166992,10.29238892,1,0,0,rectangle,-6.571166992,10.29238892,1,0,0,-6.571166992,10.29238892,1,0,0,0,74,74,155,1,,,,,,,,
,,,,,,,,,,,,,FF,,,,,,,,0.8518,,,,,,,,,,,,,,,,,,,,,,60fdf872fb6221897dcdba50,61036f88e074d6e537aaf6ea,2021-07-29_20h21.13.431,Simcolourproject_2stim_asymm_v5,2020.2.10,MacIntel,60,61025ae37ef11b136ea224fe,,,,,,,,,1018,56.38214111,120.5390625,1,0,0,response1disk,,7,-5.681396484,8.669433594,1,0,0,rectangle,-5.681396484,8.669433594,1,0,0,-5.681396484,8.669433594,1,0,0,0,75,75,84,1,,,,,,,,
,,,,,,,,,,,,,FF,,,,,,,,2.2332,,,,,,,,,,,,,,,,,,,,,,60fdf872fb6221897dcdba50,61036f88e074d6e537aaf6ea,2021-07-29_20h21.13.431,Simcolourproject_2stim_asymm_v5,2020.2.10,MacIntel,60,61025ae37ef11b136ea224fe,,,,,,,,,266,-99.1630249,-39.2565918,1,0,0,response5disk,,2,-24.92956543,-10.5512085,1,0,0,rectangle,83.87976074,-45.76776123,1,0,0,18.96704102,-0.775177002,1,0,0,0,76,76,0,1,,response3disk_3,TRUE,5,5,"[77,263,44,213,249,123,147,44,153,195,67,26,294,134,46,74,70,147,149,268]",1.4504,rectangle
,,,,,,,,,,,,,FF,,,,,,,,0.9849,,,,,,,,,,,,,,,,,,,,,,60fdf872fb6221897dcdba50,61036f88e074d6e537aaf6ea,2021-07-29_20h21.13.431,Simcolourproject_2stim_asymm_v5,2020.2.10,MacIntel,60,61025ae37ef11b136ea224fe,,,,,,,,,3223,34.48449707,80.61575317,1,0,0,response1disk,,7,-10.74377441,-1.815734863,1,0,0,rectangle,-10.74377441,-1.815734863,1,0,0,-10.74377441,-1.815734863,1,0,0,0,77,77,4,1,,,,,,,,
,,,,,,,,,,,,,FF,,,,,,,,1.4508,,,,,,,,,,,,,,,,,,,,,,60fdf872fb6221897dcdba50,61036f88e074d6e537aaf6ea,2021-07-29_20h21.13.431,Simcolourproject_2stim_asymm_v5,2020.2.10,MacIntel,60,61025ae37ef11b136ea224fe,,,,,,,,,3880,-37.06536865,-73.46325684,1,0,0,response5disk,,3,-19.95953369,-4.944030762,1,0,0,rectangle,-19.95953369,-4.944030762,1,0,0,-19.95953369,-4.944030762,1,0,0,0,78,78,97,1,,,,,,,,
,,,,,,,,,,,,,FF,,,,,,,,1,,,,,,,,,,,,,,,,,,,,,,60fdf872fb6221897dcdba50,61036f88e074d6e537aaf6ea,2021-07-29_20h21.13.431,Simcolourproject_2stim_asymm_v5,2020.2.10,MacIntel,60,61025ae37ef11b136ea224fe,,,,,,,,,3568,47.03540039,87.85772705,1,0,0,response1disk,,7,5.240722656,1.455200195,1,0,0,rectangle,5.240722656,1.455200195,1,0,0,5.240722656,1.455200195,1,0,0,0,79,79,49,1,,,,,,,,
,,,,,,,,,,,,,FF,,,,,,,,2.1345,,,,,,,,,,,,,,,,,,,,,,60fdf872fb6221897dcdba50,61036f88e074d6e537aaf6ea,2021-07-29_20h21.13.431,Simcolourproject_2stim_asymm_v5,2020.2.10,MacIntel,60,61025ae37ef11b136ea224fe,,,,,,,,,2168,56.02941895,-81.79144287,1,0,0,response3disk,,4,5.192138672,-0.952880859,1,0,0,rectangle,5.192138672,-0.952880859,1,0,0,5.192138672,-0.952880859,1,0,0,0,80,80,117,1,,,,,,,,
,,,,,,,,,,,,,FF,,,,,,,,1.1685,,,,,,,,,,,,,,,,,,,,,,60fdf872fb6221897dcdba50,61036f88e074d6e537aaf6ea,2021-07-29_20h21.13.431,Simcolourproject_2stim_asymm_v5,2020.2.10,MacIntel,60,61025ae37ef11b136ea224fe,,,,,,,,,1895,-39.17388916,-88.77087402,1,0,0,response5disk,,3,-11.68310547,-4.259033203,1,0,0,rectangle,-11.68310547,-4.259033203,1,0,0,-11.68310547,-4.259033203,1,0,0,0,81,81,23,1,,,,,,,,
,,,,,,,,,,,,,FF,,,,,,,,1.7004,,,,,,,,,,,,,,,,,,,,,,60fdf872fb6221897dcdba50,61036f88e074d6e537aaf6ea,2021-07-29_20h21.13.431,Simcolourproject_2stim_asymm_v5,2020.2.10,MacIntel,60,61025ae37ef11b136ea224fe,,,,,,,,,4240,-57.13671875,-115.7573242,1,0,0,response5disk,,3,-13.73449707,-1.55682373,1,0,0,rectangle,-13.73449707,-1.55682373,1,0,0,-13.73449707,-1.55682373,1,0,0,0,82,82,143,1,,,,,,,,
,,,,,,,,,,,,,FF,,,,,,,,1.5497,,,,,,,,,,,,,,,,,,,,,,60fdf872fb6221897dcdba50,61036f88e074d6e537aaf6ea,2021-07-29_20h21.13.431,Simcolourproject_2stim_asymm_v5,2020.2.10,MacIntel,60,61025ae37ef11b136ea224fe,,,,,,,,,3502,-46.97619629,-61.51034546,1,0,0,response5disk,,3,-12.73852539,-4.948120117,1,0,0,rectangle,-12.73852539,-4.948120117,1,0,0,-12.73852539,-4.948120117,1,0,0,0,83,83,55,1,,,,,,,,
,,,,,,,,,,,,,FF,,,,,,,,0.7329,,,,,,,,,,,,,,,,,,,,,,60fdf872fb6221897dcdba50,61036f88e074d6e537aaf6ea,2021-07-29_20h21.13.431,Simcolourproject_2stim_asymm_v5,2020.2.10,MacIntel,60,61025ae37ef11b136ea224fe,,,,,,,,,2260,37.32897949,108.4005737,1,0,0,response1disk,,7,2.416992188,0.261291504,1,0,0,rectangle,2.416992188,0.261291504,1,0,0,2.416992188,0.261291504,1,0,0,0,84,84,130,1,,,,,,,,
,,,,,,,,,,,,,FF,,,,,,,,1.4662,,,,,,,,,,,,,,,,,,,,,,60fdf872fb6221897dcdba50,61036f88e074d6e537aaf6ea,2021-07-29_20h21.13.431,Simcolourproject_2stim_asymm_v5,2020.2.10,MacIntel,60,61025ae37ef11b136ea224fe,,,,,,,,,1732,40.23370361,109.7267456,1,0,0,response1disk,,7,3.76953125,3.441772461,1,0,0,rectangle,3.76953125,3.441772461,1,0,0,3.76953125,3.441772461,1,0,0,0,85,85,27,1,,,,,,,,
,,,,,,,,,,,,,FF,,,,,,,,0.8205,,,,,,,,,,,,,,,,,,,,,,60fdf872fb6221897dcdba50,61036f88e074d6e537aaf6ea,2021-07-29_20h21.13.431,Simcolourproject_2stim_asymm_v5,2020.2.10,MacIntel,60,61025ae37ef11b136ea224fe,,,,,,,,,179,24.87536621,91.50588989,1,0,0,response1disk,,7,4.698242188,3.491943359,1,0,0,rectangle,4.698242188,3.491943359,1,0,0,4.698242188,3.491943359,1,0,0,0,86,86,156,1,,,,,,,,
,,,,,,,,,,,,,FF,,,,,,,,1.3167,,,,,,,,,,,,,,,,,,,,,,60fdf872fb6221897dcdba50,61036f88e074d6e537aaf6ea,2021-07-29_20h21.13.431,Simcolourproject_2stim_asymm_v5,2020.2.10,MacIntel,60,61025ae37ef11b136ea224fe,,,,,,,,,3151,-50.7467041,-92.37738037,1,0,0,response5disk,,3,-11.25732422,9.308166504,1,0,0,rectangle,-11.25732422,9.308166504,1,0,0,-11.25732422,9.308166504,1,0,0,0,87,87,78,1,,,,,,,,
,,,,,,,,,,,,,FF,,,,,,,,1.2503,,,,,,,,,,,,,,,,,,,,,,60fdf872fb6221897dcdba50,61036f88e074d6e537aaf6ea,2021-07-29_20h21.13.431,Simcolourproject_2stim_asymm_v5,2020.2.10,MacIntel,60,61025ae37ef11b136ea224fe,,,,,,,,,3915,-33.65783691,-74.27081299,1,0,0,response5disk,,3,-3.982788086,4.241363525,1,0,0,rectangle,-3.982788086,4.241363525,1,0,0,-3.982788086,4.241363525,1,0,0,0,88,88,57,1,,,,,,,,
,,,,,,,,,,,,,FF,,,,,,,,1.6537,,,,,,,,,,,,,,,,,,,,,,60fdf872fb6221897dcdba50,61036f88e074d6e537aaf6ea,2021-07-29_20h21.13.431,Simcolourproject_2stim_asymm_v5,2020.2.10,MacIntel,60,61025ae37ef11b136ea224fe,,,,,,,,,1310,-28.92456055,-68.66229248,1,0,0,response5disk,,3,-5.449890137,0.755981445,1,0,0,rectangle,-5.449890137,0.755981445,1,0,0,-5.449890137,0.755981445,1,0,0,0,89,89,39,1,,,,,,,,
,,,,,,,,,,,,,FF,,,,,,,,0.9853,,,,,,,,,,,,,,,,,,,,,,60fdf872fb6221897dcdba50,61036f88e074d6e537aaf6ea,2021-07-29_20h21.13.431,Simcolourproject_2stim_asymm_v5,2020.2.10,MacIntel,60,61025ae37ef11b136ea224fe,,,,,,,,,138,29.32177734,74.21133423,1,0,0,response1disk,,7,3.363830566,-3.789306641,1,0,0,rectangle,3.363830566,-3.789306641,1,0,0,3.363830566,-3.789306641,1,0,0,0,90,90,134,1,,,,,,,,
,,,,,,,,,,,,,FF,,,,,,,,0.8858,,,,,,,,,,,,,,,,,,,,,,60fdf872fb6221897dcdba50,61036f88e074d6e537aaf6ea,2021-07-29_20h21.13.431,Simcolourproject_2stim_asymm_v5,2020.2.10,MacIntel,60,61025ae37ef11b136ea224fe,,,,,,,,,136,35.43725586,84.44985962,1,0,0,response1disk,,7,12.36395264,-3.5078125,1,0,0,rectangle,12.36395264,-3.5078125,1,0,0,12.36395264,-3.5078125,1,0,0,0,91,91,18,1,,,,,,,,
,,,,,,,,,,,,,FF,,,,,,,,0.6327,,,,,,,,,,,,,,,,,,,,,,60fdf872fb6221897dcdba50,61036f88e074d6e537aaf6ea,2021-07-29_20h21.13.431,Simcolourproject_2stim_asymm_v5,2020.2.10,MacIntel,60,61025ae37ef11b136ea224fe,,,,,,,,,3320,35.49707031,70.37014771,1,0,0,response1disk,,7,12.53637695,7.894226074,1,0,0,rectangle,12.53637695,7.894226074,1,0,0,12.53637695,7.894226074,1,0,0,0,92,92,60,1,,,,,,,,
,,,,,,,,,,,,,FF,,,,,,,,0.8506,,,,,,,,,,,,,,,,,,,,,,60fdf872fb6221897dcdba50,61036f88e074d6e537aaf6ea,2021-07-29_20h21.13.431,Simcolourproject_2stim_asymm_v5,2020.2.10,MacIntel,60,61025ae37ef11b136ea224fe,,,,,,,,,2766,40.01855469,96.06854248,1,0,0,response1disk,,7,9.560974121,7.768585205,1,0,0,rectangle,9.560974121,7.768585205,1,0,0,9.560974121,7.768585205,1,0,0,0,93,93,85,1,,,,,,,,
,,,,,,,,,,,,,FF,,,,,,,,0.7344,,,,,,,,,,,,,,,,,,,,,,60fdf872fb6221897dcdba50,61036f88e074d6e537aaf6ea,2021-07-29_20h21.13.431,Simcolourproject_2stim_asymm_v5,2020.2.10,MacIntel,60,61025ae37ef11b136ea224fe,,,,,,,,,4320,40.38085938,102.7626038,1,0,0,response1disk,,7,-1.183227539,0.249328613,1,0,0,rectangle,-1.183227539,0.249328613,1,0,0,-1.183227539,0.249328613,1,0,0,0,94,94,20,1,,,,,,,,
,,,,,,,,,,,,,FF,,,,,,,,0.6173,,,,,,,,,,,,,,,,,,,,,,60fdf872fb6221897dcdba50,61036f88e074d6e537aaf6ea,2021-07-29_20h21.13.431,Simcolourproject_2stim_asymm_v5,2020.2.10,MacIntel,60,61025ae37ef11b136ea224fe,,,,,,,,,3311,44.8861084,117.9052734,1,0,0,response1disk,,7,1.329162598,7.086791992,1,0,0,rectangle,1.329162598,7.086791992,1,0,0,1.329162598,7.086791992,1,0,0,0,95,95,77,1,,,,,,,,
,,,,,,,,,,,,,FF,,,,,,,,1.0994,,,,,,,,,,,,,,,,,,,,,,60fdf872fb6221897dcdba50,61036f88e074d6e537aaf6ea,2021-07-29_20h21.13.431,Simcolourproject_2stim_asymm_v5,2020.2.10,MacIntel,60,61025ae37ef11b136ea224fe,,,,,,,,,112,45.6003418,112.8098755,1,0,0,response1disk,,7,2.699584961,4.488952637,1,0,0,rectangle,2.699584961,4.488952637,1,0,0,2.699584961,4.488952637,1,0,0,0,96,96,35,1,,,,,,,,
,,,,,,,,,,,,,FF,,,,,,,,1.0507,,,,,,,,,,,,,,,,,,,,,,60fdf872fb6221897dcdba50,61036f88e074d6e537aaf6ea,2021-07-29_20h21.13.431,Simcolourproject_2stim_asymm_v5,2020.2.10,MacIntel,60,61025ae37ef11b136ea224fe,,,,,,,,,199,43.0489502,83.73034668,1,0,0,response1disk,,7,-2.052246094,-2.130554199,1,0,0,rectangle,-2.052246094,-2.130554199,1,0,0,-2.052246094,-2.130554199,1,0,0,0,97,97,51,1,,,,,,,,
,,,,,,,,,,,,,FF,,,,,,,,0.751,,,,,,,,,,,,,,,,,,,,,,60fdf872fb6221897dcdba50,61036f88e074d6e537aaf6ea,2021-07-29_20h21.13.431,Simcolourproject_2stim_asymm_v5,2020.2.10,MacIntel,60,61025ae37ef11b136ea224fe,,,,,,,,,655,32.09545898,78.71887207,1,0,0,response1disk,,7,-10.90881348,-4.478851318,1,0,0,rectangle,-10.90881348,-4.478851318,1,0,0,-10.90881348,-4.478851318,1,0,0,0,98,98,10,1,,,,,,,,
,,,,,,,,,,,,,FF,,,,,,,,0.6503,,,,,,,,,,,,,,,,,,,,,,60fdf872fb6221897dcdba50,61036f88e074d6e537aaf6ea,2021-07-29_20h21.13.431,Simcolourproject_2stim_asymm_v5,2020.2.10,MacIntel,60,61025ae37ef11b136ea224fe,,,,,,,,,4198,31.19592285,81.08911133,1,0,0,response1disk,,7,13.37438965,6.282958984,1,0,0,rectangle,13.37438965,6.282958984,1,0,0,13.37438965,6.282958984,1,0,0,0,99,99,158,1,,,,,,,,
,,,,,,,,,,,,,FF,,,,,,,,2.1169,,,,,,,,,,,,,,,,,,,,,,60fdf872fb6221897dcdba50,61036f88e074d6e537aaf6ea,2021-07-29_20h21.13.431,Simcolourproject_2stim_asymm_v5,2020.2.10,MacIntel,60,61025ae37ef11b136ea224fe,,,,,,,,,2165,-56.41888428,-84.04016113,1,0,0,response5disk,,3,-29.84594727,-14.55978394,1,0,0,rectangle,-29.84594727,-14.55978394,1,0,0,-29.84594727,-14.55978394,1,0,0,0,100,100,47,1,,,,,,,,
,,,,,,,,,,,,,FF,,,,,,,,1.2838,,,,,,,,,,,,,,,,,,,,,,60fdf872fb6221897dcdba50,61036f88e074d6e537aaf6ea,2021-07-29_20h21.13.431,Simcolourproject_2stim_asymm_v5,2020.2.10,MacIntel,60,61025ae37ef11b136ea224fe,,,,,,,,,900,55.61206055,-77.0010376,1,0,0,response3disk,,4,10.66796875,8.39956665,1,0,0,rectangle,10.66796875,8.39956665,1,0,0,10.66796875,8.39956665,1,0,0,0,101,101,118,1,,,,,,,,
,,,,,,,,,,,,,FF,,,,,,,,2.083,,,,,,,,,,,,,,,,,,,,,,60fdf872fb6221897dcdba50,61036f88e074d6e537aaf6ea,2021-07-29_20h21.13.431,Simcolourproject_2stim_asymm_v5,2020.2.10,MacIntel,60,61025ae37ef11b136ea224fe,,,,,,,,,1120,77.87408447,38.640625,1,0,0,response1disk,,6,9.683532715,-1.419342041,1,0,0,rectangle,9.683532715,-1.419342041,1,0,0,9.683532715,-1.419342041,1,0,0,0,102,102,120,1,,,,,,,,
,,,,,,,,,,,,,FF,,,,,,,,0.9497,,,,,,,,,,,,,,,,,,,,,,60fdf872fb6221897dcdba50,61036f88e074d6e537aaf6ea,2021-07-29_20h21.13.431,Simcolourproject_2stim_asymm_v5,2020.2.10,MacIntel,60,61025ae37ef11b136ea224fe,,,,,,,,,1750,-26.38903809,86.9934082,1,0,0,response7disk,,0,-0.172729492,-10.02380371,1,0,0,rectangle,-0.172729492,-10.02380371,1,0,0,-0.172729492,-10.02380371,1,0,0,0,103,103,44,1,,,,,,,,
,,,,,,,,,,,,,FF,,,,,,,,5.7336,,,,,,,,,,,,,,,,,,,,,,60fdf872fb6221897dcdba50,61036f88e074d6e537aaf6ea,2021-07-29_20h21.13.431,Simcolourproject_2stim_asymm_v5,2020.2.10,MacIntel,60,61025ae37ef11b136ea224fe,,,,,,,,,1690,43.76342773,-87.12060547,1,0,0,response3disk,,4,4.785705566,-17.42572021,1,0,0,rectangle,4.785705566,-17.42572021,1,0,0,4.785705566,-17.42572021,1,0,0,0,104,104,92,1,,,,,,,,
,,,,,,,,,,,,,FF,,,,,,,,0.7492,,,,,,,,,,,,,,,,,,,,,,60fdf872fb6221897dcdba50,61036f88e074d6e537aaf6ea,2021-07-29_20h21.13.431,Simcolourproject_2stim_asymm_v5,2020.2.10,MacIntel,60,61025ae37ef11b136ea224fe,,,,,,,,,4218,-40.18554688,76.25756836,1,0,0,response7disk,,0,-10.29315186,16.92852783,1,0,0,rectangle,-10.29315186,16.92852783,1,0,0,-10.29315186,16.92852783,1,0,0,0,105,105,99,1,,,,,,,,
,,,,,,,,,,,,,FF,,,,,,,,0.7666,,,,,,,,,,,,,,,,,,,,,,60fdf872fb6221897dcdba50,61036f88e074d6e537aaf6ea,2021-07-29_20h21.13.431,Simcolourproject_2stim_asymm_v5,2020.2.10,MacIntel,60,61025ae37ef11b136ea224fe,,,,,,,,,2528,26.98150635,72.9909668,1,0,0,response1disk,,7,-0.029785156,-8.886779785,1,0,0,rectangle,-0.029785156,-8.886779785,1,0,0,-0.029785156,-8.886779785,1,0,0,0,106,106,56,1,,,,,,,,
,,,,,,,,,,,,,FF,,,,,,,,0.7162,,,,,,,,,,,,,,,,,,,,,,60fdf872fb6221897dcdba50,61036f88e074d6e537aaf6ea,2021-07-29_20h21.13.431,Simcolourproject_2stim_asymm_v5,2020.2.10,MacIntel,60,61025ae37ef11b136ea224fe,,,,,,,,,3381,-33.8192749,78.58868408,1,0,0,response7disk,,0,-4.632202148,5.70211792,1,0,0,rectangle,-4.632202148,5.70211792,1,0,0,-4.632202148,5.70211792,1,0,0,0,107,107,73,1,,,,,,,,
,,,,,,,,,,,,,FF,,,,,,,,1.9847,,,,,,,,,,,,,,,,,,,,,,60fdf872fb6221897dcdba50,61036f88e074d6e537aaf6ea,2021-07-29_20h21.13.431,Simcolourproject_2stim_asymm_v5,2020.2.10,MacIntel,60,61025ae37ef11b136ea224fe,,,,,,,,,2732,-49.87677002,-73.29760742,1,0,0,response5disk,,3,-6.679199219,4.783355713,1,0,0,rectangle,-6.679199219,4.783355713,1,0,0,-6.679199219,4.783355713,1,0,0,0,108,108,153,1,,,,,,,,
,,,,,,,,,,,,,FF,,,,,,,,0.8343,,,,,,,,,,,,,,,,,,,,,,60fdf872fb6221897dcdba50,61036f88e074d6e537aaf6ea,2021-07-29_20h21.13.431,Simcolourproject_2stim_asymm_v5,2020.2.10,MacIntel,60,61025ae37ef11b136ea224fe,,,,,,,,,2719,-43.49450684,68.38311768,1,0,0,response7disk,,0,-12.24829102,11.05081177,1,0,0,rectangle,-12.24829102,11.05081177,1,0,0,-12.24829102,11.05081177,1,0,0,0,109,109,137,1,,,,,,,,
,,,,,,,,,,,,,FF,,,,,,,,2.6015,,,,,,,,,,,,,,,,,,,,,,60fdf872fb6221897dcdba50,61036f88e074d6e537aaf6ea,2021-07-29_20h21.13.431,Simcolourproject_2stim_asymm_v5,2020.2.10,MacIntel,60,61025ae37ef11b136ea224fe,,,,,,,,,1533,-41.42956543,-59.24304199,1,0,0,response5disk,,3,-12.95495605,-3.456787109,1,0,0,rectangle,-12.95495605,-3.456787109,1,0,0,-12.95495605,-3.456787109,1,0,0,0,110,110,29,1,,,,,,,,
,,,,,,,,,,,,,FF,,,,,,,,1.1,,,,,,,,,,,,,,,,,,,,,,60fdf872fb6221897dcdba50,61036f88e074d6e537aaf6ea,2021-07-29_20h21.13.431,Simcolourproject_2stim_asymm_v5,2020.2.10,MacIntel,60,61025ae37ef11b136ea224fe,,,,,,,,,3676,-74.98040771,-27.96554565,1,0,0,response5disk,,2,-2.833984375,1.409606934,1,0,0,rectangle,-2.833984375,1.409606934,1,0,0,-2.833984375,1.409606934,1,0,0,0,111,111,37,1,,,,,,,,
,,,,,,,,,,,,,FF,,,,,,,,0.9511,,,,,,,,,,,,,,,,,,,,,,60fdf872fb6221897dcdba50,61036f88e074d6e537aaf6ea,2021-07-29_20h21.13.431,Simcolourproject_2stim_asymm_v5,2020.2.10,MacIntel,60,61025ae37ef11b136ea224fe,,,,,,,,,3651,47.37786865,88.43585205,1,0,0,response1disk,,7,11.76617432,9.089538574,1,0,0,rectangle,11.76617432,9.089538574,1,0,0,11.76617432,9.089538574,1,0,0,0,112,112,64,1,,,,,,,,
,,,,,,,,,,,,,FF,,,,,,,,0.9003,,,,,,,,,,,,,,,,,,,,,,60fdf872fb6221897dcdba50,61036f88e074d6e537aaf6ea,2021-07-29_20h21.13.431,Simcolourproject_2stim_asymm_v5,2020.2.10,MacIntel,60,61025ae37ef11b136ea224fe,,,,,,,,,3122,36.85418701,102.4853821,1,0,0,response1disk,,7,6.684997559,11.46697998,1,0,0,rectangle,6.684997559,11.46697998,1,0,0,6.684997559,11.46697998,1,0,0,0,113,113,33,1,,,,,,,,
,,,,,,,,,,,,,FF,,,,,,,,1.0352,,,,,,,,,,,,,,,,,,,,,,60fdf872fb6221897dcdba50,61036f88e074d6e537aaf6ea,2021-07-29_20h21.13.431,Simcolourproject_2stim_asymm_v5,2020.2.10,MacIntel,60,61025ae37ef11b136ea224fe,,,,,,,,,1402,35.43927002,86.87420654,1,0,0,response1disk,,7,5.941162109,-1.690612793,1,0,0,rectangle,5.941162109,-1.690612793,1,0,0,5.941162109,-1.690612793,1,0,0,0,114,114,79,1,,,,,,,,
,,,,,,,,,,,,,FF,,,,,,,,2.0673,,,,,,,,,,,,,,,,,,,,,,60fdf872fb6221897dcdba50,61036f88e074d6e537aaf6ea,2021-07-29_20h21.13.431,Simcolourproject_2stim_asymm_v5,2020.2.10,MacIntel,60,61025ae37ef11b136ea224fe,,,,,,,,,2421,-86.76550293,-36.61468506,1,0,0,response5disk,,2,-17.47991943,5.747558594,1,0,0,rectangle,-17.47991943,5.747558594,1,0,0,-17.47991943,5.747558594,1,0,0,0,115,115,151,1,,,,,,,,
,,,,,,,,,,,,,FF,,,,,,,,2.4337,,,,,,,,,,,,,,,,,,,,,,60fdf872fb6221897dcdba50,61036f88e074d6e537aaf6ea,2021-07-29_20h21.13.431,Simcolourproject_2stim_asymm_v5,2020.2.10,MacIntel,60,61025ae37ef11b136ea224fe,,,,,,,,,3503,-48.78375244,-82.13067627,1,0,0,response5disk,,3,-10.65563965,3.555175781,1,0,0,rectangle,-10.65563965,3.555175781,1,0,0,-10.65563965,3.555175781,1,0,0,0,116,116,114,1,,,,,,,,
,,,,,,,,,,,,,FF,,,,,,,,2.2333,,,,,,,,,,,,,,,,,,,,,,60fdf872fb6221897dcdba50,61036f88e074d6e537aaf6ea,2021-07-29_20h21.13.431,Simcolourproject_2stim_asymm_v5,2020.2.10,MacIntel,60,61025ae37ef11b136ea224fe,,,,,,,,,1429,103.1508789,29.24606323,1,0,0,response1disk,,6,-6.030883789,-0.474884033,1,0,0,rectangle,-6.030883789,-0.474884033,1,0,0,-6.030883789,-0.474884033,1,0,0,0,117,117,89,1,,,,,,,,
,,,,,,,,,,,,,FF,,,,,,,,1.8007,,,,,,,,,,,,,,,,,,,,,,60fdf872fb6221897dcdba50,61036f88e074d6e537aaf6ea,2021-07-29_20h21.13.431,Simcolourproject_2stim_asymm_v5,2020.2.10,MacIntel,60,61025ae37ef11b136ea224fe,,,,,,,,,3060,104.4931641,23.63961792,1,0,0,response1disk,,6,7.401550293,4.770568848,1,0,0,rectangle,7.401550293,4.770568848,1,0,0,7.401550293,4.770568848,1,0,0,0,118,118,48,1,,,,,,,,
,,,,,,,,,,,,,FF,,,,,,,,2.2334,,,,,,,,,,,,,,,,,,,,,,60fdf872fb6221897dcdba50,61036f88e074d6e537aaf6ea,2021-07-29_20h21.13.431,Simcolourproject_2stim_asymm_v5,2020.2.10,MacIntel,60,61025ae37ef11b136ea224fe,,,,,,,,,2896,43.68469238,91.39755249,1,0,0,response1disk,,7,2.286132813,5.955566406,1,0,0,rectangle,2.286132813,5.955566406,1,0,0,2.286132813,5.955566406,1,0,0,0,119,119,121,1,,,,,,,,
,,,,,,,,,,,,,FF,,,,,,,,1.0344,,,,,,,,,,,,,,,,,,,,,,60fdf872fb6221897dcdba50,61036f88e074d6e537aaf6ea,2021-07-29_20h21.13.431,Simcolourproject_2stim_asymm_v5,2020.2.10,MacIntel,60,61025ae37ef11b136ea224fe,,,,,,,,,4157,31.40075684,81.40594482,1,0,0,response1disk,,7,2.893188477,8.068145752,1,0,0,rectangle,2.893188477,8.068145752,1,0,0,2.893188477,8.068145752,1,0,0,0,120,120,63,1,,,,,,,,
,,,,,,,,,,,,,FF,,,,,,,,0.7158,,,,,,,,,,,,,,,,,,,,,,60fdf872fb6221897dcdba50,61036f88e074d6e537aaf6ea,2021-07-29_20h21.13.431,Simcolourproject_2stim_asymm_v5,2020.2.10,MacIntel,60,61025ae37ef11b136ea224fe,,,,,,,,,455,-43.42907715,83.32183838,1,0,0,response7disk,,0,-6.734130859,0.445739746,1,0,0,rectangle,-6.734130859,0.445739746,1,0,0,-6.734130859,0.445739746,1,0,0,0,121,121,115,1,,,,,,,,
,,,,,,,,,,,,,FF,,,,,,,,0.7839,,,,,,,,,,,,,,,,,,,,,,60fdf872fb6221897dcdba50,61036f88e074d6e537aaf6ea,2021-07-29_20h21.13.431,Simcolourproject_2stim_asymm_v5,2020.2.10,MacIntel,60,61025ae37ef11b136ea224fe,,,,,,,,,3940,-74.5802002,40.29589844,1,0,0,response7disk,,1,-28.1328125,10.79901123,1,0,0,rectangle,47.9251709,-86.74072266,1,0,0,15.06921387,-14.44116211,1,0,0,0,122,122,128,1,,response3disk_3,TRUE,4,4,"[77,263,44,213,249,123,147,44,153,195,67,26,294,134,46,74,70,147,149,268]",1.5492,rectangle
,,,,,,,,,,,,,FF,,,,,,,,2.7671,,,,,,,,,,,,,,,,,,,,,,60fdf872fb6221897dcdba50,61036f88e074d6e537aaf6ea,2021-07-29_20h21.13.431,Simcolourproject_2stim_asymm_v5,2020.2.10,MacIntel,60,61025ae37ef11b136ea224fe,,,,,,,,,3477,-91.04974365,-35.32666016,1,0,0,response5disk,,2,-6.49206543,-1.651306152,1,0,0,rectangle,-6.49206543,-1.651306152,1,0,0,-6.49206543,-1.651306152,1,0,0,0,123,123,81,1,,,,,,,,
,,,,,,,,,,,,,FF,,,,,,,,0.8502,,,,,,,,,,,,,,,,,,,,,,60fdf872fb6221897dcdba50,61036f88e074d6e537aaf6ea,2021-07-29_20h21.13.431,Simcolourproject_2stim_asymm_v5,2020.2.10,MacIntel,60,61025ae37ef11b136ea224fe,,,,,,,,,2636,32.26477051,78.42214966,1,0,0,response1disk,,7,11.63623047,7.469604492,1,0,0,rectangle,11.63623047,7.469604492,1,0,0,11.63623047,7.469604492,1,0,0,0,124,124,2,1,,,,,,,,
,,,,,,,,,,,,,FF,,,,,,,,0.8514,,,,,,,,,,,,,,,,,,,,,,60fdf872fb6221897dcdba50,61036f88e074d6e537aaf6ea,2021-07-29_20h21.13.431,Simcolourproject_2stim_asymm_v5,2020.2.10,MacIntel,60,61025ae37ef11b136ea224fe,,,,,,,,,4307,27.68151855,81.9593811,1,0,0,response1disk,,7,0.141113281,5.804382324,1,0,0,rectangle,0.141113281,5.804382324,1,0,0,0.141113281,5.804382324,1,0,0,0,125,125,5,1,,,,,,,,
,,,,,,,,,,,,,FF,,,,,,,,0.8663,,,,,,,,,,,,,,,,,,,,,,60fdf872fb6221897dcdba50,61036f88e074d6e537aaf6ea,2021-07-29_20h21.13.431,Simcolourproject_2stim_asymm_v5,2020.2.10,MacIntel,60,61025ae37ef11b136ea224fe,,,,,,,,,3137,17.47076416,87.86523438,1,0,0,response1disk,,7,0.140319824,-6.417602539,1,0,0,rectangle,0.140319824,-6.417602539,1,0,0,0.140319824,-6.417602539,1,0,0,0,126,126,32,1,,,,,,,,
,,,,,,,,,,,,,FF,,,,,,,,0.817,,,,,,,,,,,,,,,,,,,,,,60fdf872fb6221897dcdba50,61036f88e074d6e537aaf6ea,2021-07-29_20h21.13.431,Simcolourproject_2stim_asymm_v5,2020.2.10,MacIntel,60,61025ae37ef11b136ea224fe,,,,,,,,,3410,28.62414551,83.40252686,1,0,0,response1disk,,7,9.674377441,3.524841309,1,0,0,rectangle,9.674377441,3.524841309,1,0,0,9.674377441,3.524841309,1,0,0,0,127,127,100,1,,,,,,,,
,,,,,,,,,,,,,FF,,,,,,,,0.7024,,,,,,,,,,,,,,,,,,,,,,60fdf872fb6221897dcdba50,61036f88e074d6e537aaf6ea,2021-07-29_20h21.13.431,Simcolourproject_2stim_asymm_v5,2020.2.10,MacIntel,60,61025ae37ef11b136ea224fe,,,,,,,,,1562,35.06274414,84.35998535,1,0,0,response1disk,,7,16.54003906,7.873291016,1,0,0,rectangle,16.54003906,7.873291016,1,0,0,16.54003906,7.873291016,1,0,0,0,128,128,136,1,,,,,,,,
,,,,,,,,,,,,,FF,,,,,,,,0.8173,,,,,,,,,,,,,,,,,,,,,,60fdf872fb6221897dcdba50,61036f88e074d6e537aaf6ea,2021-07-29_20h21.13.431,Simcolourproject_2stim_asymm_v5,2020.2.10,MacIntel,60,61025ae37ef11b136ea224fe,,,,,,,,,361,31.67028809,68.23724365,1,0,0,response1disk,,7,3.885253906,1.953826904,1,0,0,rectangle,3.885253906,1.953826904,1,0,0,3.885253906,1.953826904,1,0,0,0,129,129,133,1,,,,,,,,
,,,,,,,,,,,,,FF,,,,,,,,0.7343,,,,,,,,,,,,,,,,,,,,,,60fdf872fb6221897dcdba50,61036f88e074d6e537aaf6ea,2021-07-29_20h21.13.431,Simcolourproject_2stim_asymm_v5,2020.2.10,MacIntel,60,61025ae37ef11b136ea224fe,,,,,,,,,241,30.57702637,110.0678101,1,0,0,response1disk,,7,4.071105957,6.38873291,1,0,0,rectangle,4.071105957,6.38873291,1,0,0,4.071105957,6.38873291,1,0,0,0,130,130,15,1,,,,,,,,
,,,,,,,,,,,,,FF,,,,,,,,0.6508,,,,,,,,,,,,,,,,,,,,,,60fdf872fb6221897dcdba50,61036f88e074d6e537aaf6ea,2021-07-29_20h21.13.431,Simcolourproject_2stim_asymm_v5,2020.2.10,MacIntel,60,61025ae37ef11b136ea224fe,,,,,,,,,935,39.67382813,95.4095459,1,0,0,response1disk,,7,10.44641113,2.450439453,1,0,0,rectangle,10.44641113,2.450439453,1,0,0,10.44641113,2.450439453,1,0,0,0,131,131,14,1,,,,,,,,
,,,,,,,,,,,,,FF,,,,,,,,1.6331,,,,,,,,,,,,,,,,,,,,,,60fdf872fb6221897dcdba50,61036f88e074d6e537aaf6ea,2021-07-29_20h21.13.431,Simcolourproject_2stim_asymm_v5,2020.2.10,MacIntel,60,61025ae37ef11b136ea224fe,,,,,,,,,1826,-40.35644531,-90.8760376,1,0,0,response5disk,,3,9.72833252,6.377166748,1,0,0,rectangle,9.72833252,6.377166748,1,0,0,9.72833252,6.377166748,1,0,0,0,132,132,106,1,,,,,,,,
,,,,,,,,,,,,,FF,,,,,,,,1.3328,,,,,,,,,,,,,,,,,,,,,,60fdf872fb6221897dcdba50,61036f88e074d6e537aaf6ea,2021-07-29_20h21.13.431,Simcolourproject_2stim_asymm_v5,2020.2.10,MacIntel,60,61025ae37ef11b136ea224fe,,,,,,,,,2367,47.80078125,-67.30108643,1,0,0,response3disk,,4,10.77099609,-3.706970215,1,0,0,rectangle,83.6897583,27.87286377,1,0,0,10.69104004,-6.83392334,1,0,0,0,133,133,72,1,,response1disk_3,TRUE,6,6,"[77,263,44,213,249,123,147,44,153,195,67,26,294,134,46,74,70,147,149,268]",1.8174,rectangle
,,,,,,,,,,,,,FF,,,,,,,,1.1668,,,,,,,,,,,,,,,,,,,,,,60fdf872fb6221897dcdba50,61036f88e074d6e537aaf6ea,2021-07-29_20h21.13.431,Simcolourproject_2stim_asymm_v5,2020.2.10,MacIntel,60,61025ae37ef11b136ea224fe,,,,,,,,,3667,28.50524902,63.94067383,1,0,0,response1disk,,7,3.897094727,-0.957244873,1,0,0,rectangle,3.897094727,-0.957244873,1,0,0,3.897094727,-0.957244873,1,0,0,0,134,134,66,1,,,,,,,,
,,,,,,,,,,,,,FF,,,,,,,,0.7174,,,,,,,,,,,,,,,,,,,,,,60fdf872fb6221897dcdba50,61036f88e074d6e537aaf6ea,2021-07-29_20h21.13.431,Simcolourproject_2stim_asymm_v5,2020.2.10,MacIntel,60,61025ae37ef11b136ea224fe,,,,,,,,,3808,33.39807129,95.2442627,1,0,0,response1disk,,7,4.454162598,4.229400635,1,0,0,rectangle,4.454162598,4.229400635,1,0,0,4.454162598,4.229400635,1,0,0,0,135,135,38,1,,,,,,,,
,,,,,,,,,,,,,FF,,,,,,,,0.8184,,,,,,,,,,,,,,,,,,,,,,60fdf872fb6221897dcdba50,61036f88e074d6e537aaf6ea,2021-07-29_20h21.13.431,Simcolourproject_2stim_asymm_v5,2020.2.10,MacIntel,60,61025ae37ef11b136ea224fe,,,,,,,,,3424,30.42694092,96.83648682,1,0,0,response1disk,,7,2.97833252,10.62503052,1,0,0,rectangle,2.97833252,10.62503052,1,0,0,2.97833252,10.62503052,1,0,0,0,136,136,101,1,,,,,,,,
,,,,,,,,,,,,,FF,,,,,,,,1.4163,,,,,,,,,,,,,,,,,,,,,,60fdf872fb6221897dcdba50,61036f88e074d6e537aaf6ea,2021-07-29_20h21.13.431,Simcolourproject_2stim_asymm_v5,2020.2.10,MacIntel,60,61025ae37ef11b136ea224fe,,,,,,,,,1804,35.47998047,121.8968811,1,0,0,response1disk,,7,0.356201172,6.617889404,1,0,0,rectangle,0.356201172,6.617889404,1,0,0,0.356201172,6.617889404,1,0,0,0,137,137,71,1,,,,,,,,
,,,,,,,,,,,,,FF,,,,,,,,1.1523,,,,,,,,,,,,,,,,,,,,,,60fdf872fb6221897dcdba50,61036f88e074d6e537aaf6ea,2021-07-29_20h21.13.431,Simcolourproject_2stim_asymm_v5,2020.2.10,MacIntel,60,61025ae37ef11b136ea224fe,,,,,,,,,1031,81.02947998,48.59680176,1,0,0,response1disk,,6,14.18151855,9.792236328,1,0,0,rectangle,14.18151855,9.792236328,1,0,0,14.18151855,9.792236328,1,0,0,0,138,138,62,1,,,,,,,,
,,,,,,,,,,,,,FF,,,,,,,,0.9163,,,,,,,,,,,,,,,,,,,,,,60fdf872fb6221897dcdba50,61036f88e074d6e537aaf6ea,2021-07-29_20h21.13.431,Simcolourproject_2stim_asymm_v5,2020.2.10,MacIntel,60,61025ae37ef11b136ea224fe,,,,,,,,,1011,38.41766357,90.30004883,1,0,0,response1disk,,7,-0.134155273,1.772583008,1,0,0,rectangle,-0.134155273,1.772583008,1,0,0,-0.134155273,1.772583008,1,0,0,0,139,139,104,1,,,,,,,,
,,,,,,,,,,,,,FF,,,,,,,,1.9006,,,,,,,,,,,,,,,,,,,,,,60fdf872fb6221897dcdba50,61036f88e074d6e537aaf6ea,2021-07-29_20h21.13.431,Simcolourproject_2stim_asymm_v5,2020.2.10,MacIntel,60,61025ae37ef11b136ea224fe,,,,,,,,,576,47.09423828,107.5611572,1,0,0,response1disk,,7,5.672119141,10.30969238,1,0,0,rectangle,5.672119141,10.30969238,1,0,0,5.672119141,10.30969238,1,0,0,0,140,140,40,1,,,,,,,,
,,,,,,,,,,,,,FF,,,,,,,,0.635,,,,,,,,,,,,,,,,,,,,,,60fdf872fb6221897dcdba50,61036f88e074d6e537aaf6ea,2021-07-29_20h21.13.431,Simcolourproject_2stim_asymm_v5,2020.2.10,MacIntel,60,61025ae37ef11b136ea224fe,,,,,,,,,3415,31.25195313,91.39141846,1,0,0,response1disk,,7,-4.581970215,2.874725342,1,0,0,rectangle,-4.581970215,2.874725342,1,0,0,-4.581970215,2.874725342,1,0,0,0,141,141,93,1,,,,,,,,
,,,,,,,,,,,,,FF,,,,,,,,0.9508,,,,,,,,,,,,,,,,,,,,,,60fdf872fb6221897dcdba50,61036f88e074d6e537aaf6ea,2021-07-29_20h21.13.431,Simcolourproject_2stim_asymm_v5,2020.2.10,MacIntel,60,61025ae37ef11b136ea224fe,,,,,,,,,2819,37.31689453,84.69238281,1,0,0,response1disk,,7,-0.717224121,-3.648498535,1,0,0,rectangle,-0.717224121,-3.648498535,1,0,0,-0.717224121,-3.648498535,1,0,0,0,142,142,16,1,,,,,,,,
,,,,,,,,,,,,,FF,,,,,,,,0.6505,,,,,,,,,,,,,,,,,,,,,,60fdf872fb6221897dcdba50,61036f88e074d6e537aaf6ea,2021-07-29_20h21.13.431,Simcolourproject_2stim_asymm_v5,2020.2.10,MacIntel,60,61025ae37ef11b136ea224fe,,,,,,,,,2763,32.67883301,103.0202026,1,0,0,response1disk,,7,6.647399902,6.219177246,1,0,0,rectangle,6.647399902,6.219177246,1,0,0,6.647399902,6.219177246,1,0,0,0,143,143,45,1,,,,,,,,
,,,,,,,,,,,,,FF,,,,,,,,0.4345,,,,,,,,,,,,,,,,,,,,,,60fdf872fb6221897dcdba50,61036f88e074d6e537aaf6ea,2021-07-29_20h21.13.431,Simcolourproject_2stim_asymm_v5,2020.2.10,MacIntel,60,61025ae37ef11b136ea224fe,,,,,,,,,4092,40.23388672,110.2854309,1,0,0,response1disk,,7,4.379638672,2.23034668,1,0,0,rectangle,4.379638672,2.23034668,1,0,0,4.379638672,2.23034668,1,0,0,0,144,144,129,1,,,,,,,,
,,,,,,,,,,,,,FF,,,,,,,,1.4179,,,,,,,,,,,,,,,,,,,,,,60fdf872fb6221897dcdba50,61036f88e074d6e537aaf6ea,2021-07-29_20h21.13.431,Simcolourproject_2stim_asymm_v5,2020.2.10,MacIntel,60,61025ae37ef11b136ea224fe,,,,,,,,,2046,85.05126953,57.40155029,1,0,0,response1disk,,6,9.209899902,10.3241272,1,0,0,rectangle,9.209899902,10.3241272,1,0,0,9.209899902,10.3241272,1,0,0,0,145,145,74,1,,,,,,,,
,,,,,,,,,,,,,FF,,,,,,,,1.7167,,,,,,,,,,,,,,,,,,,,,,60fdf872fb6221897dcdba50,61036f88e074d6e537aaf6ea,2021-07-29_20h21.13.431,Simcolourproject_2stim_asymm_v5,2020.2.10,MacIntel,60,61025ae37ef11b136ea224fe,,,,,,,,,1671,43.49829102,-100.8670654,1,0,0,response3disk,,4,-26.00073242,6.092529297,1,0,0,rectangle,97.7286377,40.0163269,1,0,0,5.364685059,-2.047241211,1,0,0,0,146,146,86,1,,response1disk_3,TRUE,6,6,"[77,263,44,213,249,123,147,44,153,195,67,26,294,134,46,74,70,147,149,268]",1.7155,rectangle
,,,,,,,,,,,,,FF,,,,,,,,3.2662,,,,,,,,,,,,,,,,,,,,,,60fdf872fb6221897dcdba50,61036f88e074d6e537aaf6ea,2021-07-29_20h21.13.431,Simcolourproject_2stim_asymm_v5,2020.2.10,MacIntel,60,61025ae37ef11b136ea224fe,,,,,,,,,440,29.21234131,-108.7766724,1,0,0,response3disk,,4,16.44396973,3.803344727,1,0,0,rectangle,16.44396973,3.803344727,1,0,0,16.44396973,3.803344727,1,0,0,0,147,147,43,1,,,,,,,,
,,,,,,,,,,,,,FF,,,,,,,,2.567,,,,,,,,,,,,,,,,,,,,,,60fdf872fb6221897dcdba50,61036f88e074d6e537aaf6ea,2021-07-29_20h21.13.431,Simcolourproject_2stim_asymm_v5,2020.2.10,MacIntel,60,61025ae37ef11b136ea224fe,,,,,,,,,2620,88.99829102,25.23492432,1,0,0,response1disk,,6,-0.383666992,4.456054688,1,0,0,rectangle,86.43426514,-35.22238159,1,0,0,-16.19006348,-2.414978027,1,0,0,0,148,148,131,1,,response3disk_3,TRUE,5,5,"[77,263,44,213,249,123,147,44,153,195,67,26,294,134,46,74,70,147,149,268]",1.435,rectangle
,,,,,,,,,,,,,FF,,,,,,,,1.9346,,,,,,,,,,,,,,,,,,,,,,60fdf872fb6221897dcdba50,61036f88e074d6e537aaf6ea,2021-07-29_20h21.13.431,Simcolourproject_2stim_asymm_v5,2020.2.10,MacIntel,60,61025ae37ef11b136ea224fe,,,,,,,,,1138,-77.98858643,26.54168701,1,0,0,response7disk,,1,-11.86791992,1.519134521,1,0,0,rectangle,-11.86791992,1.519134521,1,0,0,-11.86791992,1.519134521,1,0,0,0,149,149,70,1,,,,,,,,
,,,,,,,,,,,,,FF,,,,,,,,1.0007,,,,,,,,,,,,,,,,,,,,,,60fdf872fb6221897dcdba50,61036f88e074d6e537aaf6ea,2021-07-29_20h21.13.431,Simcolourproject_2stim_asymm_v5,2020.2.10,MacIntel,60,61025ae37ef11b136ea224fe,,,,,,,,,1981,32.97998047,80.83312988,1,0,0,response1disk,,7,7.41809082,11.9352417,1,0,0,rectangle,7.41809082,11.9352417,1,0,0,7.41809082,11.9352417,1,0,0,0,150,150,36,1,,,,,,,,
,,,,,,,,,,,,,FF,,,,,,,,0.6504,,,,,,,,,,,,,,,,,,,,,,60fdf872fb6221897dcdba50,61036f88e074d6e537aaf6ea,2021-07-29_20h21.13.431,Simcolourproject_2stim_asymm_v5,2020.2.10,MacIntel,60,61025ae37ef11b136ea224fe,,,,,,,,,3507,33.4911499,80.93719482,1,0,0,response1disk,,7,1.797546387,1.2784729,1,0,0,rectangle,1.797546387,1.2784729,1,0,0,1.797546387,1.2784729,1,0,0,0,151,151,110,1,,,,,,,,
,,,,,,,,,,,,,FF,,,,,,,,0.8838,,,,,,,,,,,,,,,,,,,,,,60fdf872fb6221897dcdba50,61036f88e074d6e537aaf6ea,2021-07-29_20h21.13.431,Simcolourproject_2stim_asymm_v5,2020.2.10,MacIntel,60,61025ae37ef11b136ea224fe,,,,,,,,,1186,25.76403809,81.98275757,1,0,0,response1disk,,7,2.457336426,5.20602417,1,0,0,rectangle,110.2987061,48.80374146,1,0,0,11.83984375,-7.29486084,1,0,0,0,152,152,75,1,,response1disk_3,TRUE,6,6,"[77,263,44,213,249,123,147,44,153,195,67,26,294,134,46,74,70,147,149,268]",1.4499,rectangle
,,,,,,,,,,,,,FF,,,,,,,,1.6173,,,,,,,,,,,,,,,,,,,,,,60fdf872fb6221897dcdba50,61036f88e074d6e537aaf6ea,2021-07-29_20h21.13.431,Simcolourproject_2stim_asymm_v5,2020.2.10,MacIntel,60,61025ae37ef11b136ea224fe,,,,,,,,,1910,44.28662109,-85.48236084,1,0,0,response3disk,,4,-6.167114258,-1.150756836,1,0,0,rectangle,-6.167114258,-1.150756836,1,0,0,-6.167114258,-1.150756836,1,0,0,0,153,153,126,1,,,,,,,,
,,,,,,,,,,,,,FF,,,,,,,,1.5998,,,,,,,,,,,,,,,,,,,,,,60fdf872fb6221897dcdba50,61036f88e074d6e537aaf6ea,2021-07-29_20h21.13.431,Simcolourproject_2stim_asymm_v5,2020.2.10,MacIntel,60,61025ae37ef11b136ea224fe,,,,,,,,,3600,32.54351807,98.89294434,1,0,0,response1disk,,7,-5.410095215,-0.004516602,1,0,0,rectangle,-5.410095215,-0.004516602,1,0,0,-5.410095215,-0.004516602,1,0,0,0,154,154,67,1,,,,,,,,
,,,,,,,,,,,,,FF,,,,,,,,0.9512,,,,,,,,,,,,,,,,,,,,,,60fdf872fb6221897dcdba50,61036f88e074d6e537aaf6ea,2021-07-29_20h21.13.431,Simcolourproject_2stim_asymm_v5,2020.2.10,MacIntel,60,61025ae37ef11b136ea224fe,,,,,,,,,839,39.25183105,119.21698,1,0,0,response1disk,,7,-7.793457031,-6.245483398,1,0,0,rectangle,-7.793457031,-6.245483398,1,0,0,-7.793457031,-6.245483398,1,0,0,0,155,155,111,1,,,,,,,,
,,,,,,,,,,,,,FF,,,,,,,,0.6677,,,,,,,,,,,,,,,,,,,,,,60fdf872fb6221897dcdba50,61036f88e074d6e537aaf6ea,2021-07-29_20h21.13.431,Simcolourproject_2stim_asymm_v5,2020.2.10,MacIntel,60,61025ae37ef11b136ea224fe,,,,,,,,,1552,24.16027832,89.87988281,1,0,0,response1disk,,7,8.202331543,9.840270996,1,0,0,rectangle,8.202331543,9.840270996,1,0,0,8.202331543,9.840270996,1,0,0,0,156,156,83,1,,,,,,,,
,,,,,,,,,,,,,FF,,,,,,,,2.4333,,,,,,,,,,,,,,,,,,,,,,60fdf872fb6221897dcdba50,61036f88e074d6e537aaf6ea,2021-07-29_20h21.13.431,Simcolourproject_2stim_asymm_v5,2020.2.10,MacIntel,60,61025ae37ef11b136ea224fe,,,,,,,,,2711,79.35961914,-32.09216309,1,0,0,response3disk,,5,-0.945251465,0.183288574,1,0,0,rectangle,-0.945251465,0.183288574,1,0,0,-0.945251465,0.183288574,1,0,0,0,157,157,125,1,,,,,,,,
,,,,,,,,,,,,,FF,,,,,,,,0.7666,,,,,,,,,,,,,,,,,,,,,,60fdf872fb6221897dcdba50,61036f88e074d6e537aaf6ea,2021-07-29_20h21.13.431,Simcolourproject_2stim_asymm_v5,2020.2.10,MacIntel,60,61025ae37ef11b136ea224fe,,,,,,,,,1640,31.44329834,108.7293701,1,0,0,response1disk,,7,6.697509766,7.07598877,1,0,0,rectangle,6.697509766,7.07598877,1,0,0,6.697509766,7.07598877,1,0,0,0,158,158,107,1,,,,,,,,
,,,,,,,,,,,,,FF,,,,,,,,1.2671,,,,,,,,,,,,,,,,,,,,,,60fdf872fb6221897dcdba50,61036f88e074d6e537aaf6ea,2021-07-29_20h21.13.431,Simcolourproject_2stim_asymm_v5,2020.2.10,MacIntel,60,61025ae37ef11b136ea224fe,,,,,,,,,99,-33.26483154,-89.4119873,1,0,0,response5disk,,3,-11.33624268,5.191375732,1,0,0,rectangle,-11.33624268,5.191375732,1,0,0,-11.33624268,5.191375732,1,0,0,0,159,159,8,1,,,,,,,,
,,,,,,,,,,,,,FF,,,,,,,,1.1503,,,,,,,,,,,,,,,,,,,,,,60fdf872fb6221897dcdba50,61036f88e074d6e537aaf6ea,2021-07-29_20h21.13.431,Simcolourproject_2stim_asymm_v5,2020.2.10,MacIntel,60,61025ae37ef11b136ea224fe,,,,,,,,,4119,-68.05163574,-33.64944458,1,0,0,response5disk,,2,-10.71862793,-4.481689453,1,0,0,rectangle,-10.71862793,-4.481689453,1,0,0,-10.71862793,-4.481689453,1,0,0,1,0,160,29,1,,,,,,,,
,,,,,,,,,,,,,FF,,,,,,,,0.7854,,,,,,,,,,,,,,,,,,,,,,60fdf872fb6221897dcdba50,61036f88e074d6e537aaf6ea,2021-07-29_20h21.13.431,Simcolourproject_2stim_asymm_v5,2020.2.10,MacIntel,60,61025ae37ef11b136ea224fe,,,,,,,,,306,33.4095459,108.5884705,1,0,0,response1disk,,7,15.73620605,5.763122559,1,0,0,rectangle,15.73620605,5.763122559,1,0,0,15.73620605,5.763122559,1,0,0,1,1,161,147,1,,,,,,,,
,,,,,,,,,,,,,FF,,,,,,,,0.9675,,,,,,,,,,,,,,,,,,,,,,60fdf872fb6221897dcdba50,61036f88e074d6e537aaf6ea,2021-07-29_20h21.13.431,Simcolourproject_2stim_asymm_v5,2020.2.10,MacIntel,60,61025ae37ef11b136ea224fe,,,,,,,,,1447,-91.15319824,35.50915527,1,0,0,response7disk,,1,-18.85705566,0.451507568,1,0,0,rectangle,-18.85705566,0.451507568,1,0,0,-18.85705566,0.451507568,1,0,0,1,2,162,113,1,,,,,,,,
,,,,,,,,,,,,,FF,,,,,,,,1.9499,,,,,,,,,,,,,,,,,,,,,,60fdf872fb6221897dcdba50,61036f88e074d6e537aaf6ea,2021-07-29_20h21.13.431,Simcolourproject_2stim_asymm_v5,2020.2.10,MacIntel,60,61025ae37ef11b136ea224fe,,,,,,,,,2600,54.15600586,111.7668457,1,0,0,response1disk,,7,7.884216309,-4.119812012,1,0,0,rectangle,7.884216309,-4.119812012,1,0,0,7.884216309,-4.119812012,1,0,0,1,3,163,134,1,,,,,,,,
,,,,,,,,,,,,,FF,,,,,,,,2.0824,,,,,,,,,,,,,,,,,,,,,,60fdf872fb6221897dcdba50,61036f88e074d6e537aaf6ea,2021-07-29_20h21.13.431,Simcolourproject_2stim_asymm_v5,2020.2.10,MacIntel,60,61025ae37ef11b136ea224fe,,,,,,,,,3844,-46.89959717,-60.77313232,1,0,0,response5disk,,3,-13.77038574,-7.099090576,1,0,0,rectangle,-13.77038574,-7.099090576,1,0,0,-13.77038574,-7.099090576,1,0,0,1,4,164,7,1,,,,,,,,
,,,,,,,,,,,,,FF,,,,,,,,1.0687,,,,,,,,,,,,,,,,,,,,,,60fdf872fb6221897dcdba50,61036f88e074d6e537aaf6ea,2021-07-29_20h21.13.431,Simcolourproject_2stim_asymm_v5,2020.2.10,MacIntel,60,61025ae37ef11b136ea224fe,,,,,,,,,2748,39.2923584,84.94042969,1,0,0,response1disk,,7,5.070800781,6.482391357,1,0,0,rectangle,5.070800781,6.482391357,1,0,0,5.070800781,6.482391357,1,0,0,1,5,165,13,1,,,,,,,,
,,,,,,,,,,,,,FF,,,,,,,,2.8346,,,,,,,,,,,,,,,,,,,,,,60fdf872fb6221897dcdba50,61036f88e074d6e537aaf6ea,2021-07-29_20h21.13.431,Simcolourproject_2stim_asymm_v5,2020.2.10,MacIntel,60,61025ae37ef11b136ea224fe,,,,,,,,,1235,75.42462158,34.78771973,1,0,0,response1disk,,6,0.387207031,7.879821777,1,0,0,rectangle,0.387207031,7.879821777,1,0,0,0.387207031,7.879821777,1,0,0,1,6,166,90,1,,,,,,,,
,,,,,,,,,,,,,FF,,,,,,,,0.8337,,,,,,,,,,,,,,,,,,,,,,60fdf872fb6221897dcdba50,61036f88e074d6e537aaf6ea,2021-07-29_20h21.13.431,Simcolourproject_2stim_asymm_v5,2020.2.10,MacIntel,60,61025ae37ef11b136ea224fe,,,,,,,,,2389,25.92614746,78.3338623,1,0,0,response1disk,,7,-3.612487793,-0.766418457,1,0,0,rectangle,-3.612487793,-0.766418457,1,0,0,-3.612487793,-0.766418457,1,0,0,1,7,167,61,1,,,,,,,,
,,,,,,,,,,,,,FF,,,,,,,,1.883,,,,,,,,,,,,,,,,,,,,,,60fdf872fb6221897dcdba50,61036f88e074d6e537aaf6ea,2021-07-29_20h21.13.431,Simcolourproject_2stim_asymm_v5,2020.2.10,MacIntel,60,61025ae37ef11b136ea224fe,,,,,,,,,1465,106.8826904,-48.74743652,1,0,0,response3disk,,5,8.147216797,-7.384643555,1,0,0,rectangle,8.147216797,-7.384643555,1,0,0,8.147216797,-7.384643555,1,0,0,1,8,168,93,1,,,,,,,,
,,,,,,,,,,,,,FF,,,,,,,,1.9177,,,,,,,,,,,,,,,,,,,,,,60fdf872fb6221897dcdba50,61036f88e074d6e537aaf6ea,2021-07-29_20h21.13.431,Simcolourproject_2stim_asymm_v5,2020.2.10,MacIntel,60,61025ae37ef11b136ea224fe,,,,,,,,,2228,-40.91845703,85.30047607,1,0,0,response7disk,,0,-14.7512207,-2.001922607,1,0,0,rectangle,-14.7512207,-2.001922607,1,0,0,-14.7512207,-2.001922607,1,0,0,1,9,169,15,1,,,,,,,,
,,,,,,,,,,,,,FF,,,,,,,,1.0836,,,,,,,,,,,,,,,,,,,,,,60fdf872fb6221897dcdba50,61036f88e074d6e537aaf6ea,2021-07-29_20h21.13.431,Simcolourproject_2stim_asymm_v5,2020.2.10,MacIntel,60,61025ae37ef11b136ea224fe,,,,,,,,,3640,50.51049805,99.45339966,1,0,0,response1disk,,7,-10.51806641,-1.710083008,1,0,0,rectangle,-10.51806641,-1.710083008,1,0,0,-10.51806641,-1.710083008,1,0,0,1,10,170,53,1,,,,,,,,
,,,,,,,,,,,,,FF,,,,,,,,1.9679,,,,,,,,,,,,,,,,,,,,,,60fdf872fb6221897dcdba50,61036f88e074d6e537aaf6ea,2021-07-29_20h21.13.431,Simcolourproject_2stim_asymm_v5,2020.2.10,MacIntel,60,61025ae37ef11b136ea224fe,,,,,,,,,3777,-111.0780029,34.0269165,1,0,0,response7disk,,1,-22.63513184,3.93862915,1,0,0,rectangle,-22.63513184,3.93862915,1,0,0,-22.63513184,3.93862915,1,0,0,1,11,171,82,1,,,,,,,,
,,,,,,,,,,,,,FF,,,,,,,,2.518,,,,,,,,,,,,,,,,,,,,,,60fdf872fb6221897dcdba50,61036f88e074d6e537aaf6ea,2021-07-29_20h21.13.431,Simcolourproject_2stim_asymm_v5,2020.2.10,MacIntel,60,61025ae37ef11b136ea224fe,,,,,,,,,1828,-36.29528809,-108.380188,1,0,0,response5disk,,3,-15.32995605,-6.936126709,1,0,0,rectangle,-15.32995605,-6.936126709,1,0,0,-15.32995605,-6.936126709,1,0,0,1,12,172,100,1,,,,,,,,
,,,,,,,,,,,,,FF,,,,,,,,1.3175,,,,,,,,,,,,,,,,,,,,,,60fdf872fb6221897dcdba50,61036f88e074d6e537aaf6ea,2021-07-29_20h21.13.431,Simcolourproject_2stim_asymm_v5,2020.2.10,MacIntel,60,61025ae37ef11b136ea224fe,,,,,,,,,5,30.70129395,-69.54125977,1,0,0,response3disk,,4,7.528747559,-2.109680176,1,0,0,rectangle,7.528747559,-2.109680176,1,0,0,7.528747559,-2.109680176,1,0,0,1,13,173,0,1,,,,,,,,
,,,,,,,,,,,,,FF,,,,,,,,1.902,,,,,,,,,,,,,,,,,,,,,,60fdf872fb6221897dcdba50,61036f88e074d6e537aaf6ea,2021-07-29_20h21.13.431,Simcolourproject_2stim_asymm_v5,2020.2.10,MacIntel,60,61025ae37ef11b136ea224fe,,,,,,,,,641,34.24542236,-75.3503418,1,0,0,response3disk,,4,-14.2388916,-7.182220459,1,0,0,rectangle,-14.2388916,-7.182220459,1,0,0,-14.2388916,-7.182220459,1,0,0,1,14,174,49,1,,,,,,,,
,,,,,,,,,,,,,FF,,,,,,,,0.816,,,,,,,,,,,,,,,,,,,,,,60fdf872fb6221897dcdba50,61036f88e074d6e537aaf6ea,2021-07-29_20h21.13.431,Simcolourproject_2stim_asymm_v5,2020.2.10,MacIntel,60,61025ae37ef11b136ea224fe,,,,,,,,,628,33.81439209,99.50161743,1,0,0,response1disk,,7,9.708190918,7.006896973,1,0,0,rectangle,9.708190918,7.006896973,1,0,0,9.708190918,7.006896973,1,0,0,1,15,175,95,1,,,,,,,,
,,,,,,,,,,,,,FF,,,,,,,,0.8542,,,,,,,,,,,,,,,,,,,,,,60fdf872fb6221897dcdba50,61036f88e074d6e537aaf6ea,2021-07-29_20h21.13.431,Simcolourproject_2stim_asymm_v5,2020.2.10,MacIntel,60,61025ae37ef11b136ea224fe,,,,,,,,,2699,38.12573242,95.13964844,1,0,0,response1disk,,7,2.85369873,5.202209473,1,0,0,rectangle,2.85369873,5.202209473,1,0,0,2.85369873,5.202209473,1,0,0,1,16,176,114,1,,,,,,,,
,,,,,,,,,,,,,FF,,,,,,,,1.2184,,,,,,,,,,,,,,,,,,,,,,60fdf872fb6221897dcdba50,61036f88e074d6e537aaf6ea,2021-07-29_20h21.13.431,Simcolourproject_2stim_asymm_v5,2020.2.10,MacIntel,60,61025ae37ef11b136ea224fe,,,,,,,,,2297,31.84399414,-83.91412354,1,0,0,response3disk,,4,0.444030762,-7.629211426,1,0,0,rectangle,0.444030762,-7.629211426,1,0,0,0.444030762,-7.629211426,1,0,0,1,17,177,128,1,,,,,,,,
,,,,,,,,,,,,,FF,,,,,,,,0.7152,,,,,,,,,,,,,,,,,,,,,,60fdf872fb6221897dcdba50,61036f88e074d6e537aaf6ea,2021-07-29_20h21.13.431,Simcolourproject_2stim_asymm_v5,2020.2.10,MacIntel,60,61025ae37ef11b136ea224fe,,,,,,,,,3264,32.06933594,74.39767456,1,0,0,response1disk,,7,-4.865966797,-0.891357422,1,0,0,rectangle,-4.865966797,-0.891357422,1,0,0,-4.865966797,-0.891357422,1,0,0,1,18,178,149,1,,,,,,,,
,,,,,,,,,,,,,FF,,,,,,,,0.7492,,,,,,,,,,,,,,,,,,,,,,60fdf872fb6221897dcdba50,61036f88e074d6e537aaf6ea,2021-07-29_20h21.13.431,Simcolourproject_2stim_asymm_v5,2020.2.10,MacIntel,60,61025ae37ef11b136ea224fe,,,,,,,,,4277,34.3416748,76.31652832,1,0,0,response1disk,,7,-1.866821289,7.28137207,1,0,0,rectangle,-1.866821289,7.28137207,1,0,0,-1.866821289,7.28137207,1,0,0,1,19,179,21,1,,,,,,,,
,,,,,,,,,,,,,FF,,,,,,,,0.7341,,,,,,,,,,,,,,,,,,,,,,60fdf872fb6221897dcdba50,61036f88e074d6e537aaf6ea,2021-07-29_20h21.13.431,Simcolourproject_2stim_asymm_v5,2020.2.10,MacIntel,60,61025ae37ef11b136ea224fe,,,,,,,,,2584,35.19976807,84.0027771,1,0,0,response1disk,,7,-3.07598877,-13.12796021,1,0,0,rectangle,-3.07598877,-13.12796021,1,0,0,-3.07598877,-13.12796021,1,0,0,1,20,180,143,1,,,,,,,,
,,,,,,,,,,,,,FF,,,,,,,,0.7331,,,,,,,,,,,,,,,,,,,,,,60fdf872fb6221897dcdba50,61036f88e074d6e537aaf6ea,2021-07-29_20h21.13.431,Simcolourproject_2stim_asymm_v5,2020.2.10,MacIntel,60,61025ae37ef11b136ea224fe,,,,,,,,,1107,25.61669922,82.83221436,1,0,0,response1disk,,7,-2.805908203,4.218811035,1,0,0,rectangle,-2.805908203,4.218811035,1,0,0,-2.805908203,4.218811035,1,0,0,1,21,181,19,1,,,,,,,,
,,,,,,,,,,,,,FF,,,,,,,,0.8824,,,,,,,,,,,,,,,,,,,,,,60fdf872fb6221897dcdba50,61036f88e074d6e537aaf6ea,2021-07-29_20h21.13.431,Simcolourproject_2stim_asymm_v5,2020.2.10,MacIntel,60,61025ae37ef11b136ea224fe,,,,,,,,,715,37.20422363,114.2060547,1,0,0,response1disk,,7,9.679260254,8.229370117,1,0,0,rectangle,9.679260254,8.229370117,1,0,0,9.679260254,8.229370117,1,0,0,1,22,182,98,1,,,,,,,,
,,,,,,,,,,,,,FF,,,,,,,,2.8511,,,,,,,,,,,,,,,,,,,,,,60fdf872fb6221897dcdba50,61036f88e074d6e537aaf6ea,2021-07-29_20h21.13.431,Simcolourproject_2stim_asymm_v5,2020.2.10,MacIntel,60,61025ae37ef11b136ea224fe,,,,,,,,,1835,88.42749023,-35.26428223,1,0,0,response3disk,,5,-3.124328613,7.798278809,1,0,0,rectangle,-3.124328613,7.798278809,1,0,0,-3.124328613,7.798278809,1,0,0,1,23,183,47,1,,,,,,,,
,,,,,,,,,,,,,FF,,,,,,,,1.0327,,,,,,,,,,,,,,,,,,,,,,60fdf872fb6221897dcdba50,61036f88e074d6e537aaf6ea,2021-07-29_20h21.13.431,Simcolourproject_2stim_asymm_v5,2020.2.10,MacIntel,60,61025ae37ef11b136ea224fe,,,,,,,,,3800,46.62280273,111.9602661,1,0,0,response1disk,,7,-2.413818359,2.490783691,1,0,0,rectangle,-2.413818359,2.490783691,1,0,0,-2.413818359,2.490783691,1,0,0,1,24,184,62,1,,,,,,,,
,,,,,,,,,,,,,FF,,,,,,,,0.9025,,,,,,,,,,,,,,,,,,,,,,60fdf872fb6221897dcdba50,61036f88e074d6e537aaf6ea,2021-07-29_20h21.13.431,Simcolourproject_2stim_asymm_v5,2020.2.10,MacIntel,60,61025ae37ef11b136ea224fe,,,,,,,,,3612,35.64093018,91.84606934,1,0,0,response1disk,,7,2.41229248,-1.514282227,1,0,0,rectangle,2.41229248,-1.514282227,1,0,0,2.41229248,-1.514282227,1,0,0,1,25,185,75,1,,,,,,,,
,,,,,,,,,,,,,FF,,,,,,,,1.3169,,,,,,,,,,,,,,,,,,,,,,60fdf872fb6221897dcdba50,61036f88e074d6e537aaf6ea,2021-07-29_20h21.13.431,Simcolourproject_2stim_asymm_v5,2020.2.10,MacIntel,60,61025ae37ef11b136ea224fe,,,,,,,,,2237,81.13397217,-32.79135132,1,0,0,response3disk,,5,15.42858887,-1.836608887,1,0,0,rectangle,15.42858887,-1.836608887,1,0,0,15.42858887,-1.836608887,1,0,0,1,26,186,71,1,,,,,,,,
,,,,,,,,,,,,,FF,,,,,,,,0.8005,,,,,,,,,,,,,,,,,,,,,,60fdf872fb6221897dcdba50,61036f88e074d6e537aaf6ea,2021-07-29_20h21.13.431,Simcolourproject_2stim_asymm_v5,2020.2.10,MacIntel,60,61025ae37ef11b136ea224fe,,,,,,,,,1717,42.16064453,87.49902344,1,0,0,response1disk,,7,9.499328613,-0.901153564,1,0,0,rectangle,9.499328613,-0.901153564,1,0,0,9.499328613,-0.901153564,1,0,0,1,27,187,54,1,,,,,,,,
,,,,,,,,,,,,,FF,,,,,,,,1.0172,,,,,,,,,,,,,,,,,,,,,,60fdf872fb6221897dcdba50,61036f88e074d6e537aaf6ea,2021-07-29_20h21.13.431,Simcolourproject_2stim_asymm_v5,2020.2.10,MacIntel,60,61025ae37ef11b136ea224fe,,,,,,,,,1614,85.58508301,-48.4105835,1,0,0,response3disk,,5,11.10632324,3.047241211,1,0,0,rectangle,11.10632324,3.047241211,1,0,0,11.10632324,3.047241211,1,0,0,1,28,188,11,1,,,,,,,,
,,,,,,,,,,,,,FF,,,,,,,,0.7009,,,,,,,,,,,,,,,,,,,,,,60fdf872fb6221897dcdba50,61036f88e074d6e537aaf6ea,2021-07-29_20h21.13.431,Simcolourproject_2stim_asymm_v5,2020.2.10,MacIntel,60,61025ae37ef11b136ea224fe,,,,,,,,,3222,31.03625488,68.88381958,1,0,0,response1disk,,7,-3.274536133,-3.977111816,1,0,0,rectangle,-3.274536133,-3.977111816,1,0,0,-3.274536133,-3.977111816,1,0,0,1,29,189,30,1,,,,,,,,
,,,,,,,,,,,,,FF,,,,,,,,1.4187,,,,,,,,,,,,,,,,,,,,,,60fdf872fb6221897dcdba50,61036f88e074d6e537aaf6ea,2021-07-29_20h21.13.431,Simcolourproject_2stim_asymm_v5,2020.2.10,MacIntel,60,61025ae37ef11b136ea224fe,,,,,,,,,4306,-94.90942383,-36.0954895,1,0,0,response5disk,,2,-25.56860352,-3.828308105,1,0,0,rectangle,-25.56860352,-3.828308105,1,0,0,-25.56860352,-3.828308105,1,0,0,1,30,190,119,1,,,,,,,,
,,,,,,,,,,,,,FF,,,,,,,,0.7656,,,,,,,,,,,,,,,,,,,,,,60fdf872fb6221897dcdba50,61036f88e074d6e537aaf6ea,2021-07-29_20h21.13.431,Simcolourproject_2stim_asymm_v5,2020.2.10,MacIntel,60,61025ae37ef11b136ea224fe,,,,,,,,,1927,52.35882568,102.9017334,1,0,0,response1disk,,7,-3.611083984,9.541320801,1,0,0,rectangle,-3.611083984,9.541320801,1,0,0,-3.611083984,9.541320801,1,0,0,1,31,191,14,1,,,,,,,,
,,,,,,,,,,,,,FF,,,,,,,,1.2329,,,,,,,,,,,,,,,,,,,,,,60fdf872fb6221897dcdba50,61036f88e074d6e537aaf6ea,2021-07-29_20h21.13.431,Simcolourproject_2stim_asymm_v5,2020.2.10,MacIntel,60,61025ae37ef11b136ea224fe,,,,,,,,,837,102.6410522,36.16021729,1,0,0,response1disk,,6,17.9967041,0.10256958,1,0,0,rectangle,17.9967041,0.10256958,1,0,0,17.9967041,0.10256958,1,0,0,1,32,192,110,1,,,,,,,,
,,,,,,,,,,,,,FF,,,,,,,,1.0472,,,,,,,,,,,,,,,,,,,,,,60fdf872fb6221897dcdba50,61036f88e074d6e537aaf6ea,2021-07-29_20h21.13.431,Simcolourproject_2stim_asymm_v5,2020.2.10,MacIntel,60,61025ae37ef11b136ea224fe,,,,,,,,,3841,39.77856445,93.39352417,1,0,0,response1disk,,7,15.9118042,-0.190551758,1,0,0,rectangle,15.9118042,-0.190551758,1,0,0,15.9118042,-0.190551758,1,0,0,1,33,193,116,1,,,,,,,,
,,,,,,,,,,,,,FF,,,,,,,,0.9327,,,,,,,,,,,,,,,,,,,,,,60fdf872fb6221897dcdba50,61036f88e074d6e537aaf6ea,2021-07-29_20h21.13.431,Simcolourproject_2stim_asymm_v5,2020.2.10,MacIntel,60,61025ae37ef11b136ea224fe,,,,,,,,,333,38.2199707,89.04501343,1,0,0,response1disk,,7,0.429016113,-3.791931152,1,0,0,rectangle,88.3918457,-35.77679443,1,0,0,6.764038086,10.53421021,1,0,0,1,34,194,109,1,,response3disk_3,TRUE,5,5,"[77,263,44,213,249,123,147,44,153,195,67,26,294,134,46,74,70,147,149,268]",1.7494,rectangle
,,,,,,,,,,,,,FF,,,,,,,,0.9181,,,,,,,,,,,,,,,,,,,,,,60fdf872fb6221897dcdba50,61036f88e074d6e537aaf6ea,2021-07-29_20h21.13.431,Simcolourproject_2stim_asymm_v5,2020.2.10,MacIntel,60,61025ae37ef11b136ea224fe,,,,,,,,,1445,-35.9430542,95.70458984,1,0,0,response7disk,,0,0.959960938,-14.2623291,1,0,0,rectangle,0.959960938,-14.2623291,1,0,0,0.959960938,-14.2623291,1,0,0,1,35,195,138,1,,,,,,,,
,,,,,,,,,,,,,FF,,,,,,,,0.9679,,,,,,,,,,,,,,,,,,,,,,60fdf872fb6221897dcdba50,61036f88e074d6e537aaf6ea,2021-07-29_20h21.13.431,Simcolourproject_2stim_asymm_v5,2020.2.10,MacIntel,60,61025ae37ef11b136ea224fe,,,,,,,,,2573,39.32006836,112.6886597,1,0,0,response1disk,,7,3.226196289,1.167907715,1,0,0,rectangle,3.226196289,1.167907715,1,0,0,3.226196289,1.167907715,1,0,0,1,36,196,65,1,,,,,,,,
,,,,,,,,,,,,,FF,,,,,,,,2.3155,,,,,,,,,,,,,,,,,,,,,,60fdf872fb6221897dcdba50,61036f88e074d6e537aaf6ea,2021-07-29_20h21.13.431,Simcolourproject_2stim_asymm_v5,2020.2.10,MacIntel,60,61025ae37ef11b136ea224fe,,,,,,,,,4010,96.40820313,-24.17184448,1,0,0,response3disk,,5,0.230102539,12.46008301,1,0,0,rectangle,0.230102539,12.46008301,1,0,0,0.230102539,12.46008301,1,0,0,1,37,197,127,1,,,,,,,,
,,,,,,,,,,,,,FF,,,,,,,,0.7839,,,,,,,,,,,,,,,,,,,,,,60fdf872fb6221897dcdba50,61036f88e074d6e537aaf6ea,2021-07-29_20h21.13.431,Simcolourproject_2stim_asymm_v5,2020.2.10,MacIntel,60,61025ae37ef11b136ea224fe,,,,,,,,,3734,39.97302246,99.02102661,1,0,0,response1disk,,7,-24.91906738,-6.574584961,1,0,0,rectangle,-24.91906738,-6.574584961,1,0,0,-24.91906738,-6.574584961,1,0,0,1,38,198,130,1,,,,,,,,
,,,,,,,,,,,,,FF,,,,,,,,0.7848,,,,,,,,,,,,,,,,,,,,,,60fdf872fb6221897dcdba50,61036f88e074d6e537aaf6ea,2021-07-29_20h21.13.431,Simcolourproject_2stim_asymm_v5,2020.2.10,MacIntel,60,61025ae37ef11b136ea224fe,,,,,,,,,1169,23.09832764,74.52600098,1,0,0,response1disk,,7,7.809448242,1.564056396,1,0,0,rectangle,7.809448242,1.564056396,1,0,0,7.809448242,1.564056396,1,0,0,1,39,199,99,1,,,,,,,,
,,,,,,,,,,,,,FF,,,,,,,,1.0665,,,,,,,,,,,,,,,,,,,,,,60fdf872fb6221897dcdba50,61036f88e074d6e537aaf6ea,2021-07-29_20h21.13.431,Simcolourproject_2stim_asymm_v5,2020.2.10,MacIntel,60,61025ae37ef11b136ea224fe,,,,,,,,,2741,44.25128174,77.76156616,1,0,0,response1disk,,7,17.11761475,2.897155762,1,0,0,rectangle,17.11761475,2.897155762,1,0,0,17.11761475,2.897155762,1,0,0,1,40,200,83,1,,,,,,,,
,,,,,,,,,,,,,FF,,,,,,,,0.9004,,,,,,,,,,,,,,,,,,,,,,60fdf872fb6221897dcdba50,61036f88e074d6e537aaf6ea,2021-07-29_20h21.13.431,Simcolourproject_2stim_asymm_v5,2020.2.10,MacIntel,60,61025ae37ef11b136ea224fe,,,,,,,,,87,43.38635254,94.3949585,1,0,0,response1disk,,7,9.125854492,-7.235351563,1,0,0,rectangle,9.125854492,-7.235351563,1,0,0,9.125854492,-7.235351563,1,0,0,1,41,201,77,1,,,,,,,,
,,,,,,,,,,,,,FF,,,,,,,,1.0678,,,,,,,,,,,,,,,,,,,,,,60fdf872fb6221897dcdba50,61036f88e074d6e537aaf6ea,2021-07-29_20h21.13.431,Simcolourproject_2stim_asymm_v5,2020.2.10,MacIntel,60,61025ae37ef11b136ea224fe,,,,,,,,,2928,59.95953369,32.47647095,1,0,0,response1disk,,6,5.382263184,4.011108398,1,0,0,rectangle,5.382263184,4.011108398,1,0,0,5.382263184,4.011108398,1,0,0,1,42,202,111,1,,,,,,,,
,,,,,,,,,,,,,FF,,,,,,,,0.8343,,,,,,,,,,,,,,,,,,,,,,60fdf872fb6221897dcdba50,61036f88e074d6e537aaf6ea,2021-07-29_20h21.13.431,Simcolourproject_2stim_asymm_v5,2020.2.10,MacIntel,60,61025ae37ef11b136ea224fe,,,,,,,,,1336,37.43231201,90.55047607,1,0,0,response1disk,,7,-0.405090332,6.6144104,1,0,0,rectangle,-0.405090332,6.6144104,1,0,0,-0.405090332,6.6144104,1,0,0,1,43,203,38,1,,,,,,,,
,,,,,,,,,,,,,FF,,,,,,,,0.7992,,,,,,,,,,,,,,,,,,,,,,60fdf872fb6221897dcdba50,61036f88e074d6e537aaf6ea,2021-07-29_20h21.13.431,Simcolourproject_2stim_asymm_v5,2020.2.10,MacIntel,60,61025ae37ef11b136ea224fe,,,,,,,,,2393,37.21789551,71.15750122,1,0,0,response1disk,,7,10.48461914,12.50177002,1,0,0,rectangle,10.48461914,12.50177002,1,0,0,10.48461914,12.50177002,1,0,0,1,44,204,70,1,,,,,,,,
,,,,,,,,,,,,,FF,,,,,,,,1.117,,,,,,,,,,,,,,,,,,,,,,60fdf872fb6221897dcdba50,61036f88e074d6e537aaf6ea,2021-07-29_20h21.13.431,Simcolourproject_2stim_asymm_v5,2020.2.10,MacIntel,60,61025ae37ef11b136ea224fe,,,,,,,,,3515,-42.85076904,-56.82574463,1,0,0,response5disk,,3,-14.3236084,-8.595031738,1,0,0,rectangle,-14.3236084,-8.595031738,1,0,0,-14.3236084,-8.595031738,1,0,0,1,45,205,12,1,,,,,,,,
,,,,,,,,,,,,,FF,,,,,,,,1.1988,,,,,,,,,,,,,,,,,,,,,,60fdf872fb6221897dcdba50,61036f88e074d6e537aaf6ea,2021-07-29_20h21.13.431,Simcolourproject_2stim_asymm_v5,2020.2.10,MacIntel,60,61025ae37ef11b136ea224fe,,,,,,,,,884,42.11450195,87.06292725,1,0,0,response1disk,,7,1.544799805,2.014190674,1,0,0,rectangle,1.544799805,2.014190674,1,0,0,1.544799805,2.014190674,1,0,0,1,46,206,24,1,,,,,,,,
,,,,,,,,,,,,,FF,,,,,,,,0.7329,,,,,,,,,,,,,,,,,,,,,,60fdf872fb6221897dcdba50,61036f88e074d6e537aaf6ea,2021-07-29_20h21.13.431,Simcolourproject_2stim_asymm_v5,2020.2.10,MacIntel,60,61025ae37ef11b136ea224fe,,,,,,,,,3377,24.39111328,64.42645264,1,0,0,response1disk,,7,3.742004395,2.839263916,1,0,0,rectangle,3.742004395,2.839263916,1,0,0,3.742004395,2.839263916,1,0,0,1,47,207,106,1,,,,,,,,
,,,,,,,,,,,,,FF,,,,,,,,1.4028,,,,,,,,,,,,,,,,,,,,,,60fdf872fb6221897dcdba50,61036f88e074d6e537aaf6ea,2021-07-29_20h21.13.431,Simcolourproject_2stim_asymm_v5,2020.2.10,MacIntel,60,61025ae37ef11b136ea224fe,,,,,,,,,2161,32.48358154,-79.65795898,1,0,0,response3disk,,4,-2.436706543,-4.108764648,1,0,0,rectangle,-2.436706543,-4.108764648,1,0,0,-2.436706543,-4.108764648,1,0,0,1,48,208,51,1,,,,,,,,
,,,,,,,,,,,,,FF,,,,,,,,2.3696,,,,,,,,,,,,,,,,,,,,,,60fdf872fb6221897dcdba50,61036f88e074d6e537aaf6ea,2021-07-29_20h21.13.431,Simcolourproject_2stim_asymm_v5,2020.2.10,MacIntel,60,61025ae37ef11b136ea224fe,,,,,,,,,2487,96.87652588,45.84429932,1,0,0,response1disk,,6,5.707214355,0.363708496,1,0,0,rectangle,5.707214355,0.363708496,1,0,0,5.707214355,0.363708496,1,0,0,1,49,209,26,1,,,,,,,,
,,,,,,,,,,,,,FF,,,,,,,,1.267,,,,,,,,,,,,,,,,,,,,,,60fdf872fb6221897dcdba50,61036f88e074d6e537aaf6ea,2021-07-29_20h21.13.431,Simcolourproject_2stim_asymm_v5,2020.2.10,MacIntel,60,61025ae37ef11b136ea224fe,,,,,,,,,4075,76.9901123,-30.82623291,1,0,0,response3disk,,5,10.64343262,-11.73864746,1,0,0,rectangle,10.64343262,-11.73864746,1,0,0,10.64343262,-11.73864746,1,0,0,1,50,210,125,1,,,,,,,,
,,,,,,,,,,,,,FF,,,,,,,,0.7331,,,,,,,,,,,,,,,,,,,,,,60fdf872fb6221897dcdba50,61036f88e074d6e537aaf6ea,2021-07-29_20h21.13.431,Simcolourproject_2stim_asymm_v5,2020.2.10,MacIntel,60,61025ae37ef11b136ea224fe,,,,,,,,,3289,41.70361328,85.20294189,1,0,0,response1disk,,7,0.832458496,12.03411865,1,0,0,rectangle,0.832458496,12.03411865,1,0,0,0.832458496,12.03411865,1,0,0,1,51,211,22,1,,,,,,,,
,,,,,,,,,,,,,FF,,,,,,,,0.9666,,,,,,,,,,,,,,,,,,,,,,60fdf872fb6221897dcdba50,61036f88e074d6e537aaf6ea,2021-07-29_20h21.13.431,Simcolourproject_2stim_asymm_v5,2020.2.10,MacIntel,60,61025ae37ef11b136ea224fe,,,,,,,,,3195,-38.01837158,81.51031494,1,0,0,response7disk,,0,23.42254639,-5.734436035,1,0,0,rectangle,-50.7043457,-101.8988647,1,0,0,5.086608887,-12.75109863,1,0,0,1,52,212,101,1,,response5disk_3,TRUE,3,3,"[77,263,44,213,249,123,147,44,153,195,67,26,294,134,46,74,70,147,149,268]",1.9998,rectangle
,,,,,,,,,,,,,FF,,,,,,,,1.2543,,,,,,,,,,,,,,,,,,,,,,60fdf872fb6221897dcdba50,61036f88e074d6e537aaf6ea,2021-07-29_20h21.13.431,Simcolourproject_2stim_asymm_v5,2020.2.10,MacIntel,60,61025ae37ef11b136ea224fe,,,,,,,,,2976,40.03527832,83.72290039,1,0,0,response1disk,,7,8.026367188,0.823577881,1,0,0,rectangle,8.026367188,0.823577881,1,0,0,8.026367188,0.823577881,1,0,0,1,53,213,142,1,,,,,,,,
,,,,,,,,,,,,,FF,,,,,,,,1.2345,,,,,,,,,,,,,,,,,,,,,,60fdf872fb6221897dcdba50,61036f88e074d6e537aaf6ea,2021-07-29_20h21.13.431,Simcolourproject_2stim_asymm_v5,2020.2.10,MacIntel,60,61025ae37ef11b136ea224fe,,,,,,,,,2779,34.9152832,-65.88934326,1,0,0,response3disk,,4,2.768676758,-10.27166748,1,0,0,rectangle,2.768676758,-10.27166748,1,0,0,2.768676758,-10.27166748,1,0,0,1,54,214,42,1,,,,,,,,
,,,,,,,,,,,,,FF,,,,,,,,0.6839,,,,,,,,,,,,,,,,,,,,,,60fdf872fb6221897dcdba50,61036f88e074d6e537aaf6ea,2021-07-29_20h21.13.431,Simcolourproject_2stim_asymm_v5,2020.2.10,MacIntel,60,61025ae37ef11b136ea224fe,,,,,,,,,2149,37.44042969,99.11730957,1,0,0,response1disk,,7,6.246704102,1.462341309,1,0,0,rectangle,6.246704102,1.462341309,1,0,0,6.246704102,1.462341309,1,0,0,1,55,215,133,1,,,,,,,,
,,,,,,,,,,,,,FF,,,,,,,,2.016,,,,,,,,,,,,,,,,,,,,,,60fdf872fb6221897dcdba50,61036f88e074d6e537aaf6ea,2021-07-29_20h21.13.431,Simcolourproject_2stim_asymm_v5,2020.2.10,MacIntel,60,61025ae37ef11b136ea224fe,,,,,,,,,1150,-27.01422119,-77.01464844,1,0,0,response5disk,,3,0.829345703,-13.02862549,1,0,0,rectangle,0.829345703,-13.02862549,1,0,0,0.829345703,-13.02862549,1,0,0,1,56,216,137,1,,,,,,,,
,,,,,,,,,,,,,FF,,,,,,,,0.7839,,,,,,,,,,,,,,,,,,,,,,60fdf872fb6221897dcdba50,61036f88e074d6e537aaf6ea,2021-07-29_20h21.13.431,Simcolourproject_2stim_asymm_v5,2020.2.10,MacIntel,60,61025ae37ef11b136ea224fe,,,,,,,,,2651,31.36242676,75.84997559,1,0,0,response1disk,,7,12.71350098,7.951293945,1,0,0,rectangle,12.71350098,7.951293945,1,0,0,12.71350098,7.951293945,1,0,0,1,57,217,157,1,,,,,,,,
,,,,,,,,,,,,,FF,,,,,,,,1.3993,,,,,,,,,,,,,,,,,,,,,,60fdf872fb6221897dcdba50,61036f88e074d6e537aaf6ea,2021-07-29_20h21.13.431,Simcolourproject_2stim_asymm_v5,2020.2.10,MacIntel,60,61025ae37ef11b136ea224fe,,,,,,,,,1043,37.39672852,84.45111084,1,0,0,response1disk,,7,9.649353027,6.275543213,1,0,0,rectangle,9.649353027,6.275543213,1,0,0,9.649353027,6.275543213,1,0,0,1,58,218,64,1,,,,,,,,
,,,,,,,,,,,,,FF,,,,,,,,2.0023,,,,,,,,,,,,,,,,,,,,,,60fdf872fb6221897dcdba50,61036f88e074d6e537aaf6ea,2021-07-29_20h21.13.431,Simcolourproject_2stim_asymm_v5,2020.2.10,MacIntel,60,61025ae37ef11b136ea224fe,,,,,,,,,1154,37.19140625,87.08410645,1,0,0,response1disk,,7,-1.877685547,-7.280029297,1,0,0,rectangle,-1.877685547,-7.280029297,1,0,0,-1.877685547,-7.280029297,1,0,0,1,59,219,129,1,,,,,,,,
,,,,,,,,,,,,,FF,,,,,,,,0.7685,,,,,,,,,,,,,,,,,,,,,,60fdf872fb6221897dcdba50,61036f88e074d6e537aaf6ea,2021-07-29_20h21.13.431,Simcolourproject_2stim_asymm_v5,2020.2.10,MacIntel,60,61025ae37ef11b136ea224fe,,,,,,,,,2315,28.02789307,84.99923706,1,0,0,response1disk,,7,6.593505859,-6.657043457,1,0,0,rectangle,6.593505859,-6.657043457,1,0,0,6.593505859,-6.657043457,1,0,0,1,60,220,16,1,,,,,,,,
,,,,,,,,,,,,,FF,,,,,,,,2.4825,,,,,,,,,,,,,,,,,,,,,,60fdf872fb6221897dcdba50,61036f88e074d6e537aaf6ea,2021-07-29_20h21.13.431,Simcolourproject_2stim_asymm_v5,2020.2.10,MacIntel,60,61025ae37ef11b136ea224fe,,,,,,,,,607,30.44311523,68.53985596,1,0,0,response1disk,,7,-1.503845215,-8.310516357,1,0,0,rectangle,-1.503845215,-8.310516357,1,0,0,-1.503845215,-8.310516357,1,0,0,1,61,221,120,1,,,,,,,,
,,,,,,,,,,,,,FF,,,,,,,,1.1831,,,,,,,,,,,,,,,,,,,,,,60fdf872fb6221897dcdba50,61036f88e074d6e537aaf6ea,2021-07-29_20h21.13.431,Simcolourproject_2stim_asymm_v5,2020.2.10,MacIntel,60,61025ae37ef11b136ea224fe,,,,,,,,,1827,45.95397949,-55.44873047,1,0,0,response3disk,,4,10.59429932,-7.515686035,1,0,0,rectangle,10.59429932,-7.515686035,1,0,0,10.59429932,-7.515686035,1,0,0,1,62,222,146,1,,,,,,,,
,,,,,,,,,,,,,FF,,,,,,,,2.9009,,,,,,,,,,,,,,,,,,,,,,60fdf872fb6221897dcdba50,61036f88e074d6e537aaf6ea,2021-07-29_20h21.13.431,Simcolourproject_2stim_asymm_v5,2020.2.10,MacIntel,60,61025ae37ef11b136ea224fe,,,,,,,,,704,77.09527588,-35.56195068,1,0,0,response3disk,,5,-2.774414063,-3.081970215,1,0,0,rectangle,-2.774414063,-3.081970215,1,0,0,-2.774414063,-3.081970215,1,0,0,1,63,223,102,1,,,,,,,,
,,,,,,,,,,,,,FF,,,,,,,,2.3829,,,,,,,,,,,,,,,,,,,,,,60fdf872fb6221897dcdba50,61036f88e074d6e537aaf6ea,2021-07-29_20h21.13.431,Simcolourproject_2stim_asymm_v5,2020.2.10,MacIntel,60,61025ae37ef11b136ea224fe,,,,,,,,,777,25.54211426,74.73382568,1,0,0,response1disk,,7,6.138977051,-5.527893066,1,0,0,rectangle,6.138977051,-5.527893066,1,0,0,6.138977051,-5.527893066,1,0,0,1,64,224,57,1,,,,,,,,
,,,,,,,,,,,,,FF,,,,,,,,1.2042,,,,,,,,,,,,,,,,,,,,,,60fdf872fb6221897dcdba50,61036f88e074d6e537aaf6ea,2021-07-29_20h21.13.431,Simcolourproject_2stim_asymm_v5,2020.2.10,MacIntel,60,61025ae37ef11b136ea224fe,,,,,,,,,420,24.79907227,62.69268799,1,0,0,response1disk,,7,-7.104553223,-3.694763184,1,0,0,rectangle,-7.104553223,-3.694763184,1,0,0,-7.104553223,-3.694763184,1,0,0,1,65,225,152,1,,,,,,,,
,,,,,,,,,,,,,FF,,,,,,,,1.4499,,,,,,,,,,,,,,,,,,,,,,60fdf872fb6221897dcdba50,61036f88e074d6e537aaf6ea,2021-07-29_20h21.13.431,Simcolourproject_2stim_asymm_v5,2020.2.10,MacIntel,60,61025ae37ef11b136ea224fe,,,,,,,,,2861,41.03118896,71.42120361,1,0,0,response1disk,,7,-7.464599609,-3.343200684,1,0,0,rectangle,-7.464599609,-3.343200684,1,0,0,-7.464599609,-3.343200684,1,0,0,1,66,226,17,1,,,,,,,,
,,,,,,,,,,,,,FF,,,,,,,,1.7853,,,,,,,,,,,,,,,,,,,,,,60fdf872fb6221897dcdba50,61036f88e074d6e537aaf6ea,2021-07-29_20h21.13.431,Simcolourproject_2stim_asymm_v5,2020.2.10,MacIntel,60,61025ae37ef11b136ea224fe,,,,,,,,,3099,-75.83477783,-41.10687256,1,0,0,response5disk,,2,-4.188537598,7.977783203,1,0,0,rectangle,-4.188537598,7.977783203,1,0,0,-4.188537598,7.977783203,1,0,0,1,67,227,27,1,,,,,,,,
,,,,,,,,,,,,,FF,,,,,,,,1.5832,,,,,,,,,,,,,,,,,,,,,,60fdf872fb6221897dcdba50,61036f88e074d6e537aaf6ea,2021-07-29_20h21.13.431,Simcolourproject_2stim_asymm_v5,2020.2.10,MacIntel,60,61025ae37ef11b136ea224fe,,,,,,,,,3138,-73.37731934,-36.04171753,1,0,0,response5disk,,2,-15.69836426,-0.638244629,1,0,0,rectangle,-15.69836426,-0.638244629,1,0,0,-15.69836426,-0.638244629,1,0,0,1,68,228,40,1,,,,,,,,
,,,,,,,,,,,,,FF,,,,,,,,2.2994,,,,,,,,,,,,,,,,,,,,,,60fdf872fb6221897dcdba50,61036f88e074d6e537aaf6ea,2021-07-29_20h21.13.431,Simcolourproject_2stim_asymm_v5,2020.2.10,MacIntel,60,61025ae37ef11b136ea224fe,,,,,,,,,3190,-65.44213867,30.34216309,1,0,0,response7disk,,1,12.78503418,-1.054626465,1,0,0,rectangle,12.78503418,-1.054626465,1,0,0,12.78503418,-1.054626465,1,0,0,1,69,229,48,1,,,,,,,,
,,,,,,,,,,,,,FF,,,,,,,,1.2177,,,,,,,,,,,,,,,,,,,,,,60fdf872fb6221897dcdba50,61036f88e074d6e537aaf6ea,2021-07-29_20h21.13.431,Simcolourproject_2stim_asymm_v5,2020.2.10,MacIntel,60,61025ae37ef11b136ea224fe,,,,,,,,,3163,48.18664551,114.8903809,1,0,0,response1disk,,7,12.24438477,5.64364624,1,0,0,rectangle,12.24438477,5.64364624,1,0,0,12.24438477,5.64364624,1,0,0,1,70,230,87,1,,,,,,,,
,,,,,,,,,,,,,FF,,,,,,,,0.7669,,,,,,,,,,,,,,,,,,,,,,60fdf872fb6221897dcdba50,61036f88e074d6e537aaf6ea,2021-07-29_20h21.13.431,Simcolourproject_2stim_asymm_v5,2020.2.10,MacIntel,60,61025ae37ef11b136ea224fe,,,,,,,,,2278,36.3973999,59.23974609,1,0,0,response1disk,,7,8.991210938,-4.9715271,1,0,0,rectangle,8.991210938,-4.9715271,1,0,0,8.991210938,-4.9715271,1,0,0,1,71,231,25,1,,,,,,,,
,,,,,,,,,,,,,FF,,,,,,,,0.8003,,,,,,,,,,,,,,,,,,,,,,60fdf872fb6221897dcdba50,61036f88e074d6e537aaf6ea,2021-07-29_20h21.13.431,Simcolourproject_2stim_asymm_v5,2020.2.10,MacIntel,60,61025ae37ef11b136ea224fe,,,,,,,,,2530,24.83337402,55.81072998,1,0,0,response1disk,,7,12.16906738,6.805786133,1,0,0,rectangle,12.16906738,6.805786133,1,0,0,12.16906738,6.805786133,1,0,0,1,72,232,8,1,,,,,,,,
,,,,,,,,,,,,,FF,,,,,,,,2.4391,,,,,,,,,,,,,,,,,,,,,,60fdf872fb6221897dcdba50,61036f88e074d6e537aaf6ea,2021-07-29_20h21.13.431,Simcolourproject_2stim_asymm_v5,2020.2.10,MacIntel,60,61025ae37ef11b136ea224fe,,,,,,,,,979,107.8708496,69.70419312,1,0,0,response1disk,,6,-26.83312988,-10.48748779,1,0,0,rectangle,-26.83312988,-10.48748779,1,0,0,-26.83312988,-10.48748779,1,0,0,1,73,233,1,1,,,,,,,,
,,,,,,,,,,,,,FF,,,,,,,,2.1871,,,,,,,,,,,,,,,,,,,,,,60fdf872fb6221897dcdba50,61036f88e074d6e537aaf6ea,2021-07-29_20h21.13.431,Simcolourproject_2stim_asymm_v5,2020.2.10,MacIntel,60,61025ae37ef11b136ea224fe,,,,,,,,,4170,-89.27392578,33.09246826,1,0,0,response7disk,,1,0.559631348,-3.952056885,1,0,0,rectangle,0.559631348,-3.952056885,1,0,0,0.559631348,-3.952056885,1,0,0,1,74,234,121,1,,,,,,,,
,,,,,,,,,,,,,FF,,,,,,,,0.8001,,,,,,,,,,,,,,,,,,,,,,60fdf872fb6221897dcdba50,61036f88e074d6e537aaf6ea,2021-07-29_20h21.13.431,Simcolourproject_2stim_asymm_v5,2020.2.10,MacIntel,60,61025ae37ef11b136ea224fe,,,,,,,,,1018,35.2388916,95.64889526,1,0,0,response1disk,,7,1.240966797,-0.497070313,1,0,0,rectangle,1.240966797,-0.497070313,1,0,0,1.240966797,-0.497070313,1,0,0,1,75,235,55,1,,,,,,,,
,,,,,,,,,,,,,FF,,,,,,,,1.167,,,,,,,,,,,,,,,,,,,,,,60fdf872fb6221897dcdba50,61036f88e074d6e537aaf6ea,2021-07-29_20h21.13.431,Simcolourproject_2stim_asymm_v5,2020.2.10,MacIntel,60,61025ae37ef11b136ea224fe,,,,,,,,,266,-85.34033203,-49.01556396,1,0,0,response5disk,,2,-23.96014404,-11.31268311,1,0,0,rectangle,-23.96014404,-11.31268311,1,0,0,-23.96014404,-11.31268311,1,0,0,1,76,236,43,1,,,,,,,,
,,,,,,,,,,,,,FF,,,,,,,,0.6837,,,,,,,,,,,,,,,,,,,,,,60fdf872fb6221897dcdba50,61036f88e074d6e537aaf6ea,2021-07-29_20h21.13.431,Simcolourproject_2stim_asymm_v5,2020.2.10,MacIntel,60,61025ae37ef11b136ea224fe,,,,,,,,,3223,37.17944336,87.40344238,1,0,0,response1disk,,7,3.412902832,5.785888672,1,0,0,rectangle,3.412902832,5.785888672,1,0,0,3.412902832,5.785888672,1,0,0,1,77,237,84,1,,,,,,,,
,,,,,,,,,,,,,FF,,,,,,,,1.0995,,,,,,,,,,,,,,,,,,,,,,60fdf872fb6221897dcdba50,61036f88e074d6e537aaf6ea,2021-07-29_20h21.13.431,Simcolourproject_2stim_asymm_v5,2020.2.10,MacIntel,60,61025ae37ef11b136ea224fe,,,,,,,,,3880,-30.5993042,-80.72802734,1,0,0,response5disk,,3,1.528015137,6.400390625,1,0,0,rectangle,1.528015137,6.400390625,1,0,0,1.528015137,6.400390625,1,0,0,1,78,238,73,1,,,,,,,,
,,,,,,,,,,,,,FF,,,,,,,,0.7499,,,,,,,,,,,,,,,,,,,,,,60fdf872fb6221897dcdba50,61036f88e074d6e537aaf6ea,2021-07-29_20h21.13.431,Simcolourproject_2stim_asymm_v5,2020.2.10,MacIntel,60,61025ae37ef11b136ea224fe,,,,,,,,,3568,27.84454346,70.12033081,1,0,0,response1disk,,7,-8.239624023,-6.032470703,1,0,0,rectangle,-8.239624023,-6.032470703,1,0,0,-8.239624023,-6.032470703,1,0,0,1,79,239,155,1,,,,,,,,
,,,,,,,,,,,,,FF,,,,,,,,1.7501,,,,,,,,,,,,,,,,,,,,,,60fdf872fb6221897dcdba50,61036f88e074d6e537aaf6ea,2021-07-29_20h21.13.431,Simcolourproject_2stim_asymm_v5,2020.2.10,MacIntel,60,61025ae37ef11b136ea224fe,,,,,,,,,2168,51.36456299,-104.8452148,1,0,0,response3disk,,4,11.88787842,-7.674804688,1,0,0,rectangle,11.88787842,-7.674804688,1,0,0,11.88787842,-7.674804688,1,0,0,1,80,240,108,1,,,,,,,,
,,,,,,,,,,,,,FF,,,,,,,,0.9176,,,,,,,,,,,,,,,,,,,,,,60fdf872fb6221897dcdba50,61036f88e074d6e537aaf6ea,2021-07-29_20h21.13.431,Simcolourproject_2stim_asymm_v5,2020.2.10,MacIntel,60,61025ae37ef11b136ea224fe,,,,,,,,,1895,35.81958008,-66.06481934,1,0,0,response3disk,,4,10.09515381,0.531860352,1,0,0,rectangle,10.09515381,0.531860352,1,0,0,10.09515381,0.531860352,1,0,0,1,81,241,78,1,,,,,,,,
