key_resp.keys,key_resp.rt,key_resp_14.keys,key_resp_14.rt,key_resp_15.keys,key_resp_15.rt,key_resp_17.keys,key_resp_17.rt,key_resp_9.keys,key_resp_9.rt,key_resp_10.keys,key_resp_10.rt,practice_comparison,Ecc,mouse_5.x,mouse_5.y,mouse_5.leftButton,mouse_5.midButton,mouse_5.rightButton,mouse_5.clicked_name,pracsimilarity,response_time,mouse_10.x,mouse_10.y,mouse_10.leftButton,mouse_10.midButton,mouse_10.rightButton,mouse_10.clicked_name,mouse_7.x,mouse_7.y,mouse_7.leftButton,mouse_7.midButton,mouse_7.rightButton,mouse_6.x,mouse_6.y,mouse_6.leftButton,mouse_6.midButton,mouse_6.rightButton,duringprac.thisRepN,duringprac.thisTrialN,duringprac.thisN,duringprac.thisIndex,duringprac.ran,participant,session,date,expName,psychopyVersion,OS,frameRate,study_id,mouse_7.clicked_name,catchpracsimilarity,catch_response_time,catchnumberprac,catchtrialorderprac,mouse_6.clicked_name,key_resp_22.keys,key_resp_22.rt,realcomparison,mouse.x,mouse.y,mouse.leftButton,mouse.midButton,mouse.rightButton,mouse.clicked_name,Colour2,similarity,mouse_2.x,mouse_2.y,mouse_2.leftButton,mouse_2.midButton,mouse_2.rightButton,mouse_2.clicked_name,mouse_3.x,mouse_3.y,mouse_3.leftButton,mouse_3.midButton,mouse_3.rightButton,mouse_11.x,mouse_11.y,mouse_11.leftButton,mouse_11.midButton,mouse_11.rightButton,trials_2.thisRepN,trials_2.thisTrialN,trials_2.thisN,trials_2.thisIndex,trials_2.ran,Colour1,mouse_3.clicked_name,catchornah,catchsimilarity,catchnumber,catchtrialorder,catchRT,mouse_11.clicked_name
space,1.9481,space,23.041,space,38.5436,space,14.2255,space,3.6631,space,5.0483,136,PF,95,-33,1,0,0,response3disk_5,5,3.6985,19,2,1,0,0,rectangle_8,19,2,1,0,0,19,2,1,0,0,0,0,0,6,1,60fe0836d3261a80cb413737,610378f5a2fda81102253075,2021-07-30_00h00.09.334,Simcolourproject_2stim_asymm_v5,2020.2.10,Win32,60,61025ae37ef11b136ea224fe,,,,,,,,,,,,,,,,,,,,,,,,,,,,,,,,,,,,,,,,,,,,,,
,,,,,,,,,,,,159,PF,33,-88,1,0,0,response3disk_5,4,3.6961,22,0,1,0,0,rectangle_8,-38,84,1,0,0,-9,5,1,0,0,0,1,1,2,1,60fe0836d3261a80cb413737,610378f5a2fda81102253075,2021-07-30_00h00.09.334,Simcolourproject_2stim_asymm_v5,2020.2.10,Win32,60,61025ae37ef11b136ea224fe,response7disk_7,0,2.3985,0,"[2,5]",rectangle_4,,,,,,,,,,,,,,,,,,,,,,,,,,,,,,,,,,,,,,,,
,,,,,,,,,,,,63,FF,70,-54,1,0,0,response3disk_5,5,2.1473,8,-4,1,0,0,rectangle_8,8,-4,1,0,0,8,-4,1,0,0,0,2,2,0,1,60fe0836d3261a80cb413737,610378f5a2fda81102253075,2021-07-30_00h00.09.334,Simcolourproject_2stim_asymm_v5,2020.2.10,Win32,60,61025ae37ef11b136ea224fe,,,,,,,,,,,,,,,,,,,,,,,,,,,,,,,,,,,,,,,,,,,,,,
,,,,,,,,,,,,69,FF,46,70,1,0,0,response1disk_5,7,1.832,3,-1,1,0,0,rectangle_8,3,-1,1,0,0,3,-1,1,0,0,0,3,3,5,1,60fe0836d3261a80cb413737,610378f5a2fda81102253075,2021-07-30_00h00.09.334,Simcolourproject_2stim_asymm_v5,2020.2.10,Win32,60,61025ae37ef11b136ea224fe,,,,,,,,,,,,,,,,,,,,,,,,,,,,,,,,,,,,,,,,,,,,,,
,,,,,,,,,,,,2,PF,86,-46,1,0,0,response3disk_5,5,2.6633,13,3,1,0,0,rectangle_8,-32,72,1,0,0,-8,3,1,0,0,0,4,4,1,1,60fe0836d3261a80cb413737,610378f5a2fda81102253075,2021-07-30_00h00.09.334,Simcolourproject_2stim_asymm_v5,2020.2.10,Win32,60,61025ae37ef11b136ea224fe,response7disk_7,0,2.3138,0,"[2,5]",rectangle_4,,,,,,,,,,,,,,,,,,,,,,,,,,,,,,,,,,,,,,,,
,,,,,,,,,,,,129,FF,-37,-87,1,0,0,response5disk_5,3,1.3805,2,10,1,0,0,rectangle_8,2,10,1,0,0,2,10,1,0,0,0,5,5,3,1,60fe0836d3261a80cb413737,610378f5a2fda81102253075,2021-07-30_00h00.09.334,Simcolourproject_2stim_asymm_v5,2020.2.10,Win32,60,61025ae37ef11b136ea224fe,,,,,,,,,,,,,,,,,,,,,,,,,,,,,,,,,,,,,,,,,,,,,,
,,,,,,,,,,,,131,PF,-66,29,1,0,0,response7disk_5,1,1.3804,-6,1,1,0,0,rectangle_8,-6,1,1,0,0,-6,1,1,0,0,0,6,6,4,1,60fe0836d3261a80cb413737,610378f5a2fda81102253075,2021-07-30_00h00.09.334,Simcolourproject_2stim_asymm_v5,2020.2.10,Win32,60,61025ae37ef11b136ea224fe,,,,,,,,,,,,,,,,,,,,,,,,,,,,,,,,,,,,,,,,,,,,,,
,,,,,,,,,,,,,FF,,,,,,,,1.8612,,,,,,,,,,,,,,,,,,,,,,60fe0836d3261a80cb413737,610378f5a2fda81102253075,2021-07-30_00h00.09.334,Simcolourproject_2stim_asymm_v5,2020.2.10,Win32,60,61025ae37ef11b136ea224fe,,,,,,,space,4.1089,1826,-78,47,1,0,0,response7disk,,1,-20,5,1,0,0,rectangle,-20,5,1,0,0,-20,5,1,0,0,0,0,0,100,1,,,,,,,,
,,,,,,,,,,,,,FF,,,,,,,,1.3849,,,,,,,,,,,,,,,,,,,,,,60fe0836d3261a80cb413737,610378f5a2fda81102253075,2021-07-30_00h00.09.334,Simcolourproject_2stim_asymm_v5,2020.2.10,Win32,60,61025ae37ef11b136ea224fe,,,,,,,,,1216,-61,43,1,0,0,response7disk,,1,-8,-3,1,0,0,rectangle,-8,-3,1,0,0,-8,-3,1,0,0,0,1,1,135,1,,,,,,,,
,,,,,,,,,,,,,FF,,,,,,,,1.0486,,,,,,,,,,,,,,,,,,,,,,60fe0836d3261a80cb413737,610378f5a2fda81102253075,2021-07-30_00h00.09.334,Simcolourproject_2stim_asymm_v5,2020.2.10,Win32,60,61025ae37ef11b136ea224fe,,,,,,,,,3538,54,-36,1,0,0,response3disk,,5,2,-8,1,0,0,rectangle,2,-8,1,0,0,2,-8,1,0,0,0,2,2,42,1,,,,,,,,
,,,,,,,,,,,,,FF,,,,,,,,1.4982,,,,,,,,,,,,,,,,,,,,,,60fe0836d3261a80cb413737,610378f5a2fda81102253075,2021-07-30_00h00.09.334,Simcolourproject_2stim_asymm_v5,2020.2.10,Win32,60,61025ae37ef11b136ea224fe,,,,,,,,,1733,39,-91,1,0,0,response3disk,,4,-5,6,1,0,0,rectangle,85,40,1,0,0,0,0,1,0,0,0,3,3,28,1,,response1disk_3,TRUE,6,6,"[60,143,286,316,313,43,4,94,115,228,90,276,270,83,259,20,107,8,173,289]",2.6966,rectangle
,,,,,,,,,,,,,FF,,,,,,,,1.0148,,,,,,,,,,,,,,,,,,,,,,60fe0836d3261a80cb413737,610378f5a2fda81102253075,2021-07-30_00h00.09.334,Simcolourproject_2stim_asymm_v5,2020.2.10,Win32,60,61025ae37ef11b136ea224fe,,,,,,,,,1887,-57,32,1,0,0,response7disk,,1,-4,4,1,0,0,rectangle,-4,4,1,0,0,-4,4,1,0,0,0,4,4,90,1,,,,,,,,
,,,,,,,,,,,,,FF,,,,,,,,3.2662,,,,,,,,,,,,,,,,,,,,,,60fe0836d3261a80cb413737,610378f5a2fda81102253075,2021-07-30_00h00.09.334,Simcolourproject_2stim_asymm_v5,2020.2.10,Win32,60,61025ae37ef11b136ea224fe,,,,,,,,,4263,70,27,1,0,0,response1disk,,6,2,7,1,0,0,rectangle,2,7,1,0,0,2,7,1,0,0,0,5,5,20,1,,,,,,,,
,,,,,,,,,,,,,FF,,,,,,,,1.2956,,,,,,,,,,,,,,,,,,,,,,60fe0836d3261a80cb413737,610378f5a2fda81102253075,2021-07-30_00h00.09.334,Simcolourproject_2stim_asymm_v5,2020.2.10,Win32,60,61025ae37ef11b136ea224fe,,,,,,,,,3921,-73,-49,1,0,0,response5disk,,2,9,15,1,0,0,rectangle,9,15,1,0,0,9,15,1,0,0,0,6,6,151,1,,,,,,,,
,,,,,,,,,,,,,FF,,,,,,,,1.2645,,,,,,,,,,,,,,,,,,,,,,60fe0836d3261a80cb413737,610378f5a2fda81102253075,2021-07-30_00h00.09.334,Simcolourproject_2stim_asymm_v5,2020.2.10,Win32,60,61025ae37ef11b136ea224fe,,,,,,,,,3715,-24,-77,1,0,0,response5disk,,3,5,-3,1,0,0,rectangle,-36,-71,1,0,0,-4,-7,1,0,0,0,7,7,152,1,,response5disk_3,TRUE,3,3,"[60,143,286,316,313,43,4,94,115,228,90,276,270,83,259,20,107,8,173,289]",2.2462,rectangle
,,,,,,,,,,,,,FF,,,,,,,,1.1988,,,,,,,,,,,,,,,,,,,,,,60fe0836d3261a80cb413737,610378f5a2fda81102253075,2021-07-30_00h00.09.334,Simcolourproject_2stim_asymm_v5,2020.2.10,Win32,60,61025ae37ef11b136ea224fe,,,,,,,,,2457,66,34,1,0,0,response1disk,,6,-1,4,1,0,0,rectangle,-1,4,1,0,0,-1,4,1,0,0,0,8,8,59,1,,,,,,,,
,,,,,,,,,,,,,FF,,,,,,,,3.279,,,,,,,,,,,,,,,,,,,,,,60fe0836d3261a80cb413737,610378f5a2fda81102253075,2021-07-30_00h00.09.334,Simcolourproject_2stim_asymm_v5,2020.2.10,Win32,60,61025ae37ef11b136ea224fe,,,,,,,,,4087,-86,-55,1,0,0,response5disk,,2,17,14,1,0,0,rectangle,17,14,1,0,0,17,14,1,0,0,0,9,9,104,1,,,,,,,,
,,,,,,,,,,,,,FF,,,,,,,,2.3462,,,,,,,,,,,,,,,,,,,,,,60fe0836d3261a80cb413737,610378f5a2fda81102253075,2021-07-30_00h00.09.334,Simcolourproject_2stim_asymm_v5,2020.2.10,Win32,60,61025ae37ef11b136ea224fe,,,,,,,,,1557,39,-75,1,0,0,response3disk,,4,1,-3,1,0,0,rectangle,1,-3,1,0,0,1,-3,1,0,0,0,10,10,78,1,,,,,,,,
,,,,,,,,,,,,,FF,,,,,,,,1.1996,,,,,,,,,,,,,,,,,,,,,,60fe0836d3261a80cb413737,610378f5a2fda81102253075,2021-07-30_00h00.09.334,Simcolourproject_2stim_asymm_v5,2020.2.10,Win32,60,61025ae37ef11b136ea224fe,,,,,,,,,2005,39,67,1,0,0,response1disk,,7,-3,-1,1,0,0,rectangle,-3,-1,1,0,0,-3,-1,1,0,0,0,11,11,108,1,,,,,,,,
,,,,,,,,,,,,,FF,,,,,,,,2.5795,,,,,,,,,,,,,,,,,,,,,,60fe0836d3261a80cb413737,610378f5a2fda81102253075,2021-07-30_00h00.09.334,Simcolourproject_2stim_asymm_v5,2020.2.10,Win32,60,61025ae37ef11b136ea224fe,,,,,,,,,1210,66,-27,1,0,0,response3disk,,5,-1,9,1,0,0,rectangle,-1,9,1,0,0,-1,9,1,0,0,0,12,12,2,1,,,,,,,,
,,,,,,,,,,,,,FF,,,,,,,,1.0323,,,,,,,,,,,,,,,,,,,,,,60fe0836d3261a80cb413737,610378f5a2fda81102253075,2021-07-30_00h00.09.334,Simcolourproject_2stim_asymm_v5,2020.2.10,Win32,60,61025ae37ef11b136ea224fe,,,,,,,,,3315,64,32,1,0,0,response1disk,,6,-21,0,1,0,0,rectangle,-21,0,1,0,0,-21,0,1,0,0,0,13,13,96,1,,,,,,,,
,,,,,,,,,,,,,FF,,,,,,,,1.5689,,,,,,,,,,,,,,,,,,,,,,60fe0836d3261a80cb413737,610378f5a2fda81102253075,2021-07-30_00h00.09.334,Simcolourproject_2stim_asymm_v5,2020.2.10,Win32,60,61025ae37ef11b136ea224fe,,,,,,,,,131,48,68,1,0,0,response1disk,,7,3,7,1,0,0,rectangle,3,7,1,0,0,3,7,1,0,0,0,14,14,40,1,,,,,,,,
,,,,,,,,,,,,,FF,,,,,,,,1.1626,,,,,,,,,,,,,,,,,,,,,,60fe0836d3261a80cb413737,610378f5a2fda81102253075,2021-07-30_00h00.09.334,Simcolourproject_2stim_asymm_v5,2020.2.10,Win32,60,61025ae37ef11b136ea224fe,,,,,,,,,4347,-31,-66,1,0,0,response5disk,,3,5,1,1,0,0,rectangle,5,1,1,0,0,5,1,1,0,0,0,15,15,107,1,,,,,,,,
,,,,,,,,,,,,,FF,,,,,,,,1.3466,,,,,,,,,,,,,,,,,,,,,,60fe0836d3261a80cb413737,610378f5a2fda81102253075,2021-07-30_00h00.09.334,Simcolourproject_2stim_asymm_v5,2020.2.10,Win32,60,61025ae37ef11b136ea224fe,,,,,,,,,601,37,-63,1,0,0,response3disk,,4,22,4,1,0,0,rectangle,22,4,1,0,0,22,4,1,0,0,0,16,16,145,1,,,,,,,,
,,,,,,,,,,,,,FF,,,,,,,,0.9993,,,,,,,,,,,,,,,,,,,,,,60fe0836d3261a80cb413737,610378f5a2fda81102253075,2021-07-30_00h00.09.334,Simcolourproject_2stim_asymm_v5,2020.2.10,Win32,60,61025ae37ef11b136ea224fe,,,,,,,,,731,-49,-96,1,0,0,response5disk,,3,-5,0,1,0,0,rectangle,-5,0,1,0,0,-5,0,1,0,0,0,17,17,88,1,,,,,,,,
,,,,,,,,,,,,,FF,,,,,,,,1.0992,,,,,,,,,,,,,,,,,,,,,,60fe0836d3261a80cb413737,610378f5a2fda81102253075,2021-07-30_00h00.09.334,Simcolourproject_2stim_asymm_v5,2020.2.10,Win32,60,61025ae37ef11b136ea224fe,,,,,,,,,2625,43,58,1,0,0,response1disk,,7,6,1,1,0,0,rectangle,6,1,1,0,0,6,1,1,0,0,0,18,18,102,1,,,,,,,,
,,,,,,,,,,,,,FF,,,,,,,,0.8811,,,,,,,,,,,,,,,,,,,,,,60fe0836d3261a80cb413737,610378f5a2fda81102253075,2021-07-30_00h00.09.334,Simcolourproject_2stim_asymm_v5,2020.2.10,Win32,60,61025ae37ef11b136ea224fe,,,,,,,,,2274,29,55,1,0,0,response1disk,,7,1,1,1,0,0,rectangle,63,-30,1,0,0,7,-1,1,0,0,0,19,19,27,1,,response3disk_3,TRUE,5,5,"[60,143,286,316,313,43,4,94,115,228,90,276,270,83,259,20,107,8,173,289]",2.5469,rectangle
,,,,,,,,,,,,,FF,,,,,,,,0.9665,,,,,,,,,,,,,,,,,,,,,,60fe0836d3261a80cb413737,610378f5a2fda81102253075,2021-07-30_00h00.09.334,Simcolourproject_2stim_asymm_v5,2020.2.10,Win32,60,61025ae37ef11b136ea224fe,,,,,,,,,2807,25,63,1,0,0,response1disk,,7,2,10,1,0,0,rectangle,2,10,1,0,0,2,10,1,0,0,0,20,20,62,1,,,,,,,,
,,,,,,,,,,,,,FF,,,,,,,,1.0147,,,,,,,,,,,,,,,,,,,,,,60fe0836d3261a80cb413737,610378f5a2fda81102253075,2021-07-30_00h00.09.334,Simcolourproject_2stim_asymm_v5,2020.2.10,Win32,60,61025ae37ef11b136ea224fe,,,,,,,,,1116,57,32,1,0,0,response1disk,,6,0,-8,1,0,0,rectangle,0,-8,1,0,0,0,-8,1,0,0,0,21,21,10,1,,,,,,,,
,,,,,,,,,,,,,FF,,,,,,,,1.7805,,,,,,,,,,,,,,,,,,,,,,60fe0836d3261a80cb413737,610378f5a2fda81102253075,2021-07-30_00h00.09.334,Simcolourproject_2stim_asymm_v5,2020.2.10,Win32,60,61025ae37ef11b136ea224fe,,,,,,,,,1482,65,37,1,0,0,response1disk,,6,3,1,1,0,0,rectangle,3,1,1,0,0,3,1,1,0,0,0,22,22,85,1,,,,,,,,
,,,,,,,,,,,,,FF,,,,,,,,0.8681,,,,,,,,,,,,,,,,,,,,,,60fe0836d3261a80cb413737,610378f5a2fda81102253075,2021-07-30_00h00.09.334,Simcolourproject_2stim_asymm_v5,2020.2.10,Win32,60,61025ae37ef11b136ea224fe,,,,,,,,,2448,44,60,1,0,0,response1disk,,7,7,8,1,0,0,rectangle,7,8,1,0,0,7,8,1,0,0,0,23,23,87,1,,,,,,,,
,,,,,,,,,,,,,FF,,,,,,,,1.3987,,,,,,,,,,,,,,,,,,,,,,60fe0836d3261a80cb413737,610378f5a2fda81102253075,2021-07-30_00h00.09.334,Simcolourproject_2stim_asymm_v5,2020.2.10,Win32,60,61025ae37ef11b136ea224fe,,,,,,,,,1535,-75,-32,1,0,0,response5disk,,2,5,11,1,0,0,rectangle,5,11,1,0,0,5,11,1,0,0,0,24,24,61,1,,,,,,,,
,,,,,,,,,,,,,FF,,,,,,,,0.9822,,,,,,,,,,,,,,,,,,,,,,60fe0836d3261a80cb413737,610378f5a2fda81102253075,2021-07-30_00h00.09.334,Simcolourproject_2stim_asymm_v5,2020.2.10,Win32,60,61025ae37ef11b136ea224fe,,,,,,,,,2845,-38,-59,1,0,0,response5disk,,3,-9,-1,1,0,0,rectangle,-9,-1,1,0,0,-9,-1,1,0,0,0,25,25,105,1,,,,,,,,
,,,,,,,,,,,,,FF,,,,,,,,0.9645,,,,,,,,,,,,,,,,,,,,,,60fe0836d3261a80cb413737,610378f5a2fda81102253075,2021-07-30_00h00.09.334,Simcolourproject_2stim_asymm_v5,2020.2.10,Win32,60,61025ae37ef11b136ea224fe,,,,,,,,,2750,35,26,1,0,0,response1disk,,6,5,3,1,0,0,rectangle,5,3,1,0,0,5,3,1,0,0,0,26,26,13,1,,,,,,,,
,,,,,,,,,,,,,FF,,,,,,,,2.0342,,,,,,,,,,,,,,,,,,,,,,60fe0836d3261a80cb413737,610378f5a2fda81102253075,2021-07-30_00h00.09.334,Simcolourproject_2stim_asymm_v5,2020.2.10,Win32,60,61025ae37ef11b136ea224fe,,,,,,,,,522,-40,-89,1,0,0,response5disk,,3,-3,5,1,0,0,rectangle,-3,5,1,0,0,-3,5,1,0,0,0,27,27,140,1,,,,,,,,
,,,,,,,,,,,,,FF,,,,,,,,1.2498,,,,,,,,,,,,,,,,,,,,,,60fe0836d3261a80cb413737,610378f5a2fda81102253075,2021-07-30_00h00.09.334,Simcolourproject_2stim_asymm_v5,2020.2.10,Win32,60,61025ae37ef11b136ea224fe,,,,,,,,,545,-64,-50,1,0,0,response5disk,,2,0,1,1,0,0,rectangle,0,1,1,0,0,0,1,1,0,0,0,28,28,121,1,,,,,,,,
,,,,,,,,,,,,,FF,,,,,,,,0.8983,,,,,,,,,,,,,,,,,,,,,,60fe0836d3261a80cb413737,610378f5a2fda81102253075,2021-07-30_00h00.09.334,Simcolourproject_2stim_asymm_v5,2020.2.10,Win32,60,61025ae37ef11b136ea224fe,,,,,,,,,1751,-68,-43,1,0,0,response5disk,,2,-2,7,1,0,0,rectangle,-2,7,1,0,0,-2,7,1,0,0,0,29,29,116,1,,,,,,,,
,,,,,,,,,,,,,FF,,,,,,,,0.8971,,,,,,,,,,,,,,,,,,,,,,60fe0836d3261a80cb413737,610378f5a2fda81102253075,2021-07-30_00h00.09.334,Simcolourproject_2stim_asymm_v5,2020.2.10,Win32,60,61025ae37ef11b136ea224fe,,,,,,,,,763,86,-19,1,0,0,response3disk,,5,5,5,1,0,0,rectangle,5,5,1,0,0,5,5,1,0,0,0,30,30,128,1,,,,,,,,
,,,,,,,,,,,,,FF,,,,,,,,1.0018,,,,,,,,,,,,,,,,,,,,,,60fe0836d3261a80cb413737,610378f5a2fda81102253075,2021-07-30_00h00.09.334,Simcolourproject_2stim_asymm_v5,2020.2.10,Win32,60,61025ae37ef11b136ea224fe,,,,,,,,,2903,60,28,1,0,0,response1disk,,6,-3,0,1,0,0,rectangle,-3,0,1,0,0,-3,0,1,0,0,0,31,31,153,1,,,,,,,,
,,,,,,,,,,,,,FF,,,,,,,,1.0151,,,,,,,,,,,,,,,,,,,,,,60fe0836d3261a80cb413737,610378f5a2fda81102253075,2021-07-30_00h00.09.334,Simcolourproject_2stim_asymm_v5,2020.2.10,Win32,60,61025ae37ef11b136ea224fe,,,,,,,,,1709,32,53,1,0,0,response1disk,,7,-10,0,1,0,0,rectangle,-10,0,1,0,0,-10,0,1,0,0,0,32,32,23,1,,,,,,,,
,,,,,,,,,,,,,FF,,,,,,,,2.1117,,,,,,,,,,,,,,,,,,,,,,60fe0836d3261a80cb413737,610378f5a2fda81102253075,2021-07-30_00h00.09.334,Simcolourproject_2stim_asymm_v5,2020.2.10,Win32,60,61025ae37ef11b136ea224fe,,,,,,,,,3704,-35,-85,1,0,0,response5disk,,3,9,10,1,0,0,rectangle,9,10,1,0,0,9,10,1,0,0,0,33,33,81,1,,,,,,,,
,,,,,,,,,,,,,FF,,,,,,,,1.7178,,,,,,,,,,,,,,,,,,,,,,60fe0836d3261a80cb413737,610378f5a2fda81102253075,2021-07-30_00h00.09.334,Simcolourproject_2stim_asymm_v5,2020.2.10,Win32,60,61025ae37ef11b136ea224fe,,,,,,,,,2756,53,-29,1,0,0,response3disk,,5,16,-9,1,0,0,rectangle,16,-9,1,0,0,16,-9,1,0,0,0,34,34,0,1,,,,,,,,
,,,,,,,,,,,,,FF,,,,,,,,0.8652,,,,,,,,,,,,,,,,,,,,,,60fe0836d3261a80cb413737,610378f5a2fda81102253075,2021-07-30_00h00.09.334,Simcolourproject_2stim_asymm_v5,2020.2.10,Win32,60,61025ae37ef11b136ea224fe,,,,,,,,,1805,29,-53,1,0,0,response3disk,,4,5,5,1,0,0,rectangle,5,5,1,0,0,5,5,1,0,0,0,35,35,31,1,,,,,,,,
,,,,,,,,,,,,,FF,,,,,,,,1.6644,,,,,,,,,,,,,,,,,,,,,,60fe0836d3261a80cb413737,610378f5a2fda81102253075,2021-07-30_00h00.09.334,Simcolourproject_2stim_asymm_v5,2020.2.10,Win32,60,61025ae37ef11b136ea224fe,,,,,,,,,3699,60,23,1,0,0,response1disk,,6,-1,-3,1,0,0,rectangle,-1,-3,1,0,0,-1,-3,1,0,0,0,36,36,44,1,,,,,,,,
,,,,,,,,,,,,,FF,,,,,,,,0.9953,,,,,,,,,,,,,,,,,,,,,,60fe0836d3261a80cb413737,610378f5a2fda81102253075,2021-07-30_00h00.09.334,Simcolourproject_2stim_asymm_v5,2020.2.10,Win32,60,61025ae37ef11b136ea224fe,,,,,,,,,3392,-59,-36,1,0,0,response5disk,,2,-15,2,1,0,0,rectangle,-15,2,1,0,0,-15,2,1,0,0,0,37,37,6,1,,,,,,,,
,,,,,,,,,,,,,FF,,,,,,,,0.9156,,,,,,,,,,,,,,,,,,,,,,60fe0836d3261a80cb413737,610378f5a2fda81102253075,2021-07-30_00h00.09.334,Simcolourproject_2stim_asymm_v5,2020.2.10,Win32,60,61025ae37ef11b136ea224fe,,,,,,,,,2489,-36,-61,1,0,0,response5disk,,3,2,-3,1,0,0,rectangle,2,-3,1,0,0,2,-3,1,0,0,0,38,38,143,1,,,,,,,,
,,,,,,,,,,,,,FF,,,,,,,,1.1992,,,,,,,,,,,,,,,,,,,,,,60fe0836d3261a80cb413737,610378f5a2fda81102253075,2021-07-30_00h00.09.334,Simcolourproject_2stim_asymm_v5,2020.2.10,Win32,60,61025ae37ef11b136ea224fe,,,,,,,,,1410,73,-40,1,0,0,response3disk,,5,16,-7,1,0,0,rectangle,16,-7,1,0,0,16,-7,1,0,0,0,39,39,93,1,,,,,,,,
,,,,,,,,,,,,,FF,,,,,,,,1.8649,,,,,,,,,,,,,,,,,,,,,,60fe0836d3261a80cb413737,610378f5a2fda81102253075,2021-07-30_00h00.09.334,Simcolourproject_2stim_asymm_v5,2020.2.10,Win32,60,61025ae37ef11b136ea224fe,,,,,,,,,2965,27,53,1,0,0,response1disk,,7,2,9,1,0,0,rectangle,2,9,1,0,0,2,9,1,0,0,0,40,40,101,1,,,,,,,,
,,,,,,,,,,,,,FF,,,,,,,,0.9121,,,,,,,,,,,,,,,,,,,,,,60fe0836d3261a80cb413737,610378f5a2fda81102253075,2021-07-30_00h00.09.334,Simcolourproject_2stim_asymm_v5,2020.2.10,Win32,60,61025ae37ef11b136ea224fe,,,,,,,,,3830,56,31,1,0,0,response1disk,,6,-10,-4,1,0,0,rectangle,-10,-4,1,0,0,-10,-4,1,0,0,0,41,41,150,1,,,,,,,,
,,,,,,,,,,,,,FF,,,,,,,,1.0155,,,,,,,,,,,,,,,,,,,,,,60fe0836d3261a80cb413737,610378f5a2fda81102253075,2021-07-30_00h00.09.334,Simcolourproject_2stim_asymm_v5,2020.2.10,Win32,60,61025ae37ef11b136ea224fe,,,,,,,,,2126,30,56,1,0,0,response1disk,,7,-1,5,1,0,0,rectangle,-31,-92,1,0,0,11,-4,1,0,0,0,42,42,109,1,,response5disk_3,TRUE,3,3,"[60,143,286,316,313,43,4,94,115,228,90,276,270,83,259,20,107,8,173,289]",2.534,rectangle
,,,,,,,,,,,,,FF,,,,,,,,5.2269,,,,,,,,,,,,,,,,,,,,,,60fe0836d3261a80cb413737,610378f5a2fda81102253075,2021-07-30_00h00.09.334,Simcolourproject_2stim_asymm_v5,2020.2.10,Win32,60,61025ae37ef11b136ea224fe,,,,,,,,,288,31,-43,1,0,0,response3disk,,4,-5,3,1,0,0,rectangle,-5,3,1,0,0,-5,3,1,0,0,0,43,43,3,1,,,,,,,,
,,,,,,,,,,,,,FF,,,,,,,,0.9516,,,,,,,,,,,,,,,,,,,,,,60fe0836d3261a80cb413737,610378f5a2fda81102253075,2021-07-30_00h00.09.334,Simcolourproject_2stim_asymm_v5,2020.2.10,Win32,60,61025ae37ef11b136ea224fe,,,,,,,,,3500,79,-21,1,0,0,response3disk,,5,4,14,1,0,0,rectangle,4,14,1,0,0,4,14,1,0,0,0,44,44,35,1,,,,,,,,
,,,,,,,,,,,,,FF,,,,,,,,1.0329,,,,,,,,,,,,,,,,,,,,,,60fe0836d3261a80cb413737,610378f5a2fda81102253075,2021-07-30_00h00.09.334,Simcolourproject_2stim_asymm_v5,2020.2.10,Win32,60,61025ae37ef11b136ea224fe,,,,,,,,,2483,-33,-64,1,0,0,response5disk,,3,4,6,1,0,0,rectangle,4,6,1,0,0,4,6,1,0,0,0,45,45,125,1,,,,,,,,
,,,,,,,,,,,,,FF,,,,,,,,2.0475,,,,,,,,,,,,,,,,,,,,,,60fe0836d3261a80cb413737,610378f5a2fda81102253075,2021-07-30_00h00.09.334,Simcolourproject_2stim_asymm_v5,2020.2.10,Win32,60,61025ae37ef11b136ea224fe,,,,,,,,,837,43,30,1,0,0,response1disk,,6,-6,-1,1,0,0,rectangle,-6,-1,1,0,0,-6,-1,1,0,0,0,46,46,37,1,,,,,,,,
,,,,,,,,,,,,,FF,,,,,,,,0.8977,,,,,,,,,,,,,,,,,,,,,,60fe0836d3261a80cb413737,610378f5a2fda81102253075,2021-07-30_00h00.09.334,Simcolourproject_2stim_asymm_v5,2020.2.10,Win32,60,61025ae37ef11b136ea224fe,,,,,,,,,3423,-68,-35,1,0,0,response5disk,,2,1,-10,1,0,0,rectangle,1,-10,1,0,0,1,-10,1,0,0,0,47,47,149,1,,,,,,,,
,,,,,,,,,,,,,FF,,,,,,,,1.7301,,,,,,,,,,,,,,,,,,,,,,60fe0836d3261a80cb413737,610378f5a2fda81102253075,2021-07-30_00h00.09.334,Simcolourproject_2stim_asymm_v5,2020.2.10,Win32,60,61025ae37ef11b136ea224fe,,,,,,,,,436,38,-23,1,0,0,response3disk,,5,0,-3,1,0,0,rectangle,0,-3,1,0,0,0,-3,1,0,0,0,48,48,14,1,,,,,,,,
,,,,,,,,,,,,,FF,,,,,,,,1.2628,,,,,,,,,,,,,,,,,,,,,,60fe0836d3261a80cb413737,610378f5a2fda81102253075,2021-07-30_00h00.09.334,Simcolourproject_2stim_asymm_v5,2020.2.10,Win32,60,61025ae37ef11b136ea224fe,,,,,,,,,721,-81,32,1,0,0,response7disk,,1,-2,2,1,0,0,rectangle,-2,2,1,0,0,-2,2,1,0,0,0,49,49,43,1,,,,,,,,
,,,,,,,,,,,,,FF,,,,,,,,0.9653,,,,,,,,,,,,,,,,,,,,,,60fe0836d3261a80cb413737,610378f5a2fda81102253075,2021-07-30_00h00.09.334,Simcolourproject_2stim_asymm_v5,2020.2.10,Win32,60,61025ae37ef11b136ea224fe,,,,,,,,,3543,44,26,1,0,0,response1disk,,6,0,-3,1,0,0,rectangle,0,-3,1,0,0,0,-3,1,0,0,0,50,50,139,1,,,,,,,,
,,,,,,,,,,,,,FF,,,,,,,,0.8357,,,,,,,,,,,,,,,,,,,,,,60fe0836d3261a80cb413737,610378f5a2fda81102253075,2021-07-30_00h00.09.334,Simcolourproject_2stim_asymm_v5,2020.2.10,Win32,60,61025ae37ef11b136ea224fe,,,,,,,,,2212,28,51,1,0,0,response1disk,,7,-2,-1,1,0,0,rectangle,-2,-1,1,0,0,-2,-1,1,0,0,0,51,51,94,1,,,,,,,,
,,,,,,,,,,,,,FF,,,,,,,,0.8643,,,,,,,,,,,,,,,,,,,,,,60fe0836d3261a80cb413737,610378f5a2fda81102253075,2021-07-30_00h00.09.334,Simcolourproject_2stim_asymm_v5,2020.2.10,Win32,60,61025ae37ef11b136ea224fe,,,,,,,,,3113,-35,-66,1,0,0,response5disk,,3,3,4,1,0,0,rectangle,3,4,1,0,0,3,4,1,0,0,0,52,52,8,1,,,,,,,,
,,,,,,,,,,,,,FF,,,,,,,,0.8487,,,,,,,,,,,,,,,,,,,,,,60fe0836d3261a80cb413737,610378f5a2fda81102253075,2021-07-30_00h00.09.334,Simcolourproject_2stim_asymm_v5,2020.2.10,Win32,60,61025ae37ef11b136ea224fe,,,,,,,,,2146,35,55,1,0,0,response1disk,,7,-5,-7,1,0,0,rectangle,-5,-7,1,0,0,-5,-7,1,0,0,0,53,53,50,1,,,,,,,,
,,,,,,,,,,,,,FF,,,,,,,,0.8325,,,,,,,,,,,,,,,,,,,,,,60fe0836d3261a80cb413737,610378f5a2fda81102253075,2021-07-30_00h00.09.334,Simcolourproject_2stim_asymm_v5,2020.2.10,Win32,60,61025ae37ef11b136ea224fe,,,,,,,,,524,-59,-18,1,0,0,response5disk,,2,-7,2,1,0,0,rectangle,-7,2,1,0,0,-7,2,1,0,0,0,54,54,92,1,,,,,,,,
,,,,,,,,,,,,,FF,,,,,,,,0.7322,,,,,,,,,,,,,,,,,,,,,,60fe0836d3261a80cb413737,610378f5a2fda81102253075,2021-07-30_00h00.09.334,Simcolourproject_2stim_asymm_v5,2020.2.10,Win32,60,61025ae37ef11b136ea224fe,,,,,,,,,2977,37,33,1,0,0,response1disk,,6,-12,-11,1,0,0,rectangle,-12,-11,1,0,0,-12,-11,1,0,0,0,55,55,79,1,,,,,,,,
,,,,,,,,,,,,,FF,,,,,,,,1.8515,,,,,,,,,,,,,,,,,,,,,,60fe0836d3261a80cb413737,610378f5a2fda81102253075,2021-07-30_00h00.09.334,Simcolourproject_2stim_asymm_v5,2020.2.10,Win32,60,61025ae37ef11b136ea224fe,,,,,,,,,3768,54,-46,1,0,0,response3disk,,5,20,2,1,0,0,rectangle,20,2,1,0,0,20,2,1,0,0,0,56,56,73,1,,,,,,,,
,,,,,,,,,,,,,FF,,,,,,,,0.8455,,,,,,,,,,,,,,,,,,,,,,60fe0836d3261a80cb413737,610378f5a2fda81102253075,2021-07-30_00h00.09.334,Simcolourproject_2stim_asymm_v5,2020.2.10,Win32,60,61025ae37ef11b136ea224fe,,,,,,,,,2889,-69,-34,1,0,0,response5disk,,2,2,0,1,0,0,rectangle,2,0,1,0,0,2,0,1,0,0,0,57,57,118,1,,,,,,,,
,,,,,,,,,,,,,FF,,,,,,,,1.2818,,,,,,,,,,,,,,,,,,,,,,60fe0836d3261a80cb413737,610378f5a2fda81102253075,2021-07-30_00h00.09.334,Simcolourproject_2stim_asymm_v5,2020.2.10,Win32,60,61025ae37ef11b136ea224fe,,,,,,,,,1559,23,-70,1,0,0,response3disk,,4,-6,3,1,0,0,rectangle,-6,3,1,0,0,-6,3,1,0,0,0,58,58,80,1,,,,,,,,
,,,,,,,,,,,,,FF,,,,,,,,1.0643,,,,,,,,,,,,,,,,,,,,,,60fe0836d3261a80cb413737,610378f5a2fda81102253075,2021-07-30_00h00.09.334,Simcolourproject_2stim_asymm_v5,2020.2.10,Win32,60,61025ae37ef11b136ea224fe,,,,,,,,,872,65,-29,1,0,0,response3disk,,5,12,4,1,0,0,rectangle,-35,-93,1,0,0,0,-4,1,0,0,0,59,59,132,1,,response5disk_3,TRUE,3,3,"[60,143,286,316,313,43,4,94,115,228,90,276,270,83,259,20,107,8,173,289]",1.5313,rectangle
,,,,,,,,,,,,,FF,,,,,,,,1.1016,,,,,,,,,,,,,,,,,,,,,,60fe0836d3261a80cb413737,610378f5a2fda81102253075,2021-07-30_00h00.09.334,Simcolourproject_2stim_asymm_v5,2020.2.10,Win32,60,61025ae37ef11b136ea224fe,,,,,,,,,2099,-23,45,1,0,0,response7disk,,0,-6,5,1,0,0,rectangle,-6,5,1,0,0,-6,5,1,0,0,0,60,60,120,1,,,,,,,,
,,,,,,,,,,,,,FF,,,,,,,,1.0292,,,,,,,,,,,,,,,,,,,,,,60fe0836d3261a80cb413737,610378f5a2fda81102253075,2021-07-30_00h00.09.334,Simcolourproject_2stim_asymm_v5,2020.2.10,Win32,60,61025ae37ef11b136ea224fe,,,,,,,,,3264,29,-67,1,0,0,response3disk,,4,-7,1,1,0,0,rectangle,-7,1,1,0,0,-7,1,1,0,0,0,61,61,41,1,,,,,,,,
,,,,,,,,,,,,,FF,,,,,,,,0.7493,,,,,,,,,,,,,,,,,,,,,,60fe0836d3261a80cb413737,610378f5a2fda81102253075,2021-07-30_00h00.09.334,Simcolourproject_2stim_asymm_v5,2020.2.10,Win32,60,61025ae37ef11b136ea224fe,,,,,,,,,257,-44,-60,1,0,0,response5disk,,3,4,14,1,0,0,rectangle,4,14,1,0,0,4,14,1,0,0,0,62,62,146,1,,,,,,,,
,,,,,,,,,,,,,FF,,,,,,,,0.999,,,,,,,,,,,,,,,,,,,,,,60fe0836d3261a80cb413737,610378f5a2fda81102253075,2021-07-30_00h00.09.334,Simcolourproject_2stim_asymm_v5,2020.2.10,Win32,60,61025ae37ef11b136ea224fe,,,,,,,,,3415,35,-60,1,0,0,response3disk,,4,-9,12,1,0,0,rectangle,-9,12,1,0,0,-9,12,1,0,0,0,63,63,98,1,,,,,,,,
,,,,,,,,,,,,,FF,,,,,,,,0.8164,,,,,,,,,,,,,,,,,,,,,,60fe0836d3261a80cb413737,610378f5a2fda81102253075,2021-07-30_00h00.09.334,Simcolourproject_2stim_asymm_v5,2020.2.10,Win32,60,61025ae37ef11b136ea224fe,,,,,,,,,2567,46,63,1,0,0,response1disk,,7,6,13,1,0,0,rectangle,6,13,1,0,0,6,13,1,0,0,0,64,64,112,1,,,,,,,,
,,,,,,,,,,,,,FF,,,,,,,,0.8999,,,,,,,,,,,,,,,,,,,,,,60fe0836d3261a80cb413737,610378f5a2fda81102253075,2021-07-30_00h00.09.334,Simcolourproject_2stim_asymm_v5,2020.2.10,Win32,60,61025ae37ef11b136ea224fe,,,,,,,,,2341,38,35,1,0,0,response1disk,,6,-19,0,1,0,0,rectangle,-19,0,1,0,0,-19,0,1,0,0,0,65,65,117,1,,,,,,,,
,,,,,,,,,,,,,FF,,,,,,,,0.9464,,,,,,,,,,,,,,,,,,,,,,60fe0836d3261a80cb413737,610378f5a2fda81102253075,2021-07-30_00h00.09.334,Simcolourproject_2stim_asymm_v5,2020.2.10,Win32,60,61025ae37ef11b136ea224fe,,,,,,,,,683,69,-31,1,0,0,response3disk,,5,1,11,1,0,0,rectangle,1,11,1,0,0,1,11,1,0,0,0,66,66,148,1,,,,,,,,
,,,,,,,,,,,,,FF,,,,,,,,1.281,,,,,,,,,,,,,,,,,,,,,,60fe0836d3261a80cb413737,610378f5a2fda81102253075,2021-07-30_00h00.09.334,Simcolourproject_2stim_asymm_v5,2020.2.10,Win32,60,61025ae37ef11b136ea224fe,,,,,,,,,946,58,-29,1,0,0,response3disk,,5,-2,3,1,0,0,rectangle,-2,3,1,0,0,-2,3,1,0,0,0,67,67,84,1,,,,,,,,
,,,,,,,,,,,,,FF,,,,,,,,0.8656,,,,,,,,,,,,,,,,,,,,,,60fe0836d3261a80cb413737,610378f5a2fda81102253075,2021-07-30_00h00.09.334,Simcolourproject_2stim_asymm_v5,2020.2.10,Win32,60,61025ae37ef11b136ea224fe,,,,,,,,,2238,-85,-49,1,0,0,response5disk,,2,6,3,1,0,0,rectangle,6,3,1,0,0,6,3,1,0,0,0,68,68,154,1,,,,,,,,
,,,,,,,,,,,,,FF,,,,,,,,1.0158,,,,,,,,,,,,,,,,,,,,,,60fe0836d3261a80cb413737,610378f5a2fda81102253075,2021-07-30_00h00.09.334,Simcolourproject_2stim_asymm_v5,2020.2.10,Win32,60,61025ae37ef11b136ea224fe,,,,,,,,,1716,41,71,1,0,0,response1disk,,7,-2,11,1,0,0,rectangle,-2,11,1,0,0,-2,11,1,0,0,0,69,69,119,1,,,,,,,,
,,,,,,,,,,,,,FF,,,,,,,,1.1649,,,,,,,,,,,,,,,,,,,,,,60fe0836d3261a80cb413737,610378f5a2fda81102253075,2021-07-30_00h00.09.334,Simcolourproject_2stim_asymm_v5,2020.2.10,Win32,60,61025ae37ef11b136ea224fe,,,,,,,,,1027,37,-67,1,0,0,response3disk,,4,-16,8,1,0,0,rectangle,-16,8,1,0,0,-16,8,1,0,0,0,70,70,71,1,,,,,,,,
,,,,,,,,,,,,,FF,,,,,,,,0.9321,,,,,,,,,,,,,,,,,,,,,,60fe0836d3261a80cb413737,610378f5a2fda81102253075,2021-07-30_00h00.09.334,Simcolourproject_2stim_asymm_v5,2020.2.10,Win32,60,61025ae37ef11b136ea224fe,,,,,,,,,959,37,25,1,0,0,response1disk,,6,-1,-5,1,0,0,rectangle,-1,-5,1,0,0,-1,-5,1,0,0,0,71,71,115,1,,,,,,,,
,,,,,,,,,,,,,FF,,,,,,,,0.832,,,,,,,,,,,,,,,,,,,,,,60fe0836d3261a80cb413737,610378f5a2fda81102253075,2021-07-30_00h00.09.334,Simcolourproject_2stim_asymm_v5,2020.2.10,Win32,60,61025ae37ef11b136ea224fe,,,,,,,,,1756,-58,-27,1,0,0,response5disk,,2,-5,0,1,0,0,rectangle,-5,0,1,0,0,-5,0,1,0,0,0,72,72,5,1,,,,,,,,
,,,,,,,,,,,,,FF,,,,,,,,2.9634,,,,,,,,,,,,,,,,,,,,,,60fe0836d3261a80cb413737,610378f5a2fda81102253075,2021-07-30_00h00.09.334,Simcolourproject_2stim_asymm_v5,2020.2.10,Win32,60,61025ae37ef11b136ea224fe,,,,,,,,,3115,-33,-72,1,0,0,response5disk,,3,-3,-4,1,0,0,rectangle,-3,-4,1,0,0,-3,-4,1,0,0,0,73,73,55,1,,,,,,,,
,,,,,,,,,,,,,FF,,,,,,,,5.48,,,,,,,,,,,,,,,,,,,,,,60fe0836d3261a80cb413737,610378f5a2fda81102253075,2021-07-30_00h00.09.334,Simcolourproject_2stim_asymm_v5,2020.2.10,Win32,60,61025ae37ef11b136ea224fe,,,,,,,,,2046,36,-47,1,0,0,response3disk,,4,5,-7,1,0,0,rectangle,5,-7,1,0,0,5,-7,1,0,0,0,74,74,156,1,,,,,,,,
,,,,,,,,,,,,,FF,,,,,,,,0.5989,,,,,,,,,,,,,,,,,,,,,,60fe0836d3261a80cb413737,610378f5a2fda81102253075,2021-07-30_00h00.09.334,Simcolourproject_2stim_asymm_v5,2020.2.10,Win32,60,61025ae37ef11b136ea224fe,,,,,,,,,3302,-34,-58,1,0,0,response5disk,,3,-1,10,1,0,0,rectangle,-1,10,1,0,0,-1,10,1,0,0,0,75,75,21,1,,,,,,,,
,,,,,,,,,,,,,FF,,,,,,,,0.5835,,,,,,,,,,,,,,,,,,,,,,60fe0836d3261a80cb413737,610378f5a2fda81102253075,2021-07-30_00h00.09.334,Simcolourproject_2stim_asymm_v5,2020.2.10,Win32,60,61025ae37ef11b136ea224fe,,,,,,,,,252,57,28,1,0,0,response1disk,,6,9,4,1,0,0,rectangle,9,4,1,0,0,9,4,1,0,0,0,76,76,53,1,,,,,,,,
,,,,,,,,,,,,,FF,,,,,,,,0.3796,,,,,,,,,,,,,,,,,,,,,,60fe0836d3261a80cb413737,610378f5a2fda81102253075,2021-07-30_00h00.09.334,Simcolourproject_2stim_asymm_v5,2020.2.10,Win32,60,61025ae37ef11b136ea224fe,,,,,,,,,2382,-45,-46,1,0,0,response5disk,,3,12,13,1,0,0,rectangle,12,13,1,0,0,12,13,1,0,0,0,77,77,137,1,,,,,,,,
,,,,,,,,,,,,,FF,,,,,,,,0.4,,,,,,,,,,,,,,,,,,,,,,60fe0836d3261a80cb413737,610378f5a2fda81102253075,2021-07-30_00h00.09.334,Simcolourproject_2stim_asymm_v5,2020.2.10,Win32,60,61025ae37ef11b136ea224fe,,,,,,,,,1487,52,-16,1,0,0,response3disk,,5,13,-1,1,0,0,rectangle,13,-1,1,0,0,13,-1,1,0,0,0,78,78,138,1,,,,,,,,
,,,,,,,,,,,,,FF,,,,,,,,0.4,,,,,,,,,,,,,,,,,,,,,,60fe0836d3261a80cb413737,610378f5a2fda81102253075,2021-07-30_00h00.09.334,Simcolourproject_2stim_asymm_v5,2020.2.10,Win32,60,61025ae37ef11b136ea224fe,,,,,,,,,3900,-19,-32,1,0,0,response5disk,,3,3,7,1,0,0,rectangle,3,7,1,0,0,3,7,1,0,0,0,79,79,144,1,,,,,,,,
,,,,,,,,,,,,,FF,,,,,,,,0.5994,,,,,,,,,,,,,,,,,,,,,,60fe0836d3261a80cb413737,610378f5a2fda81102253075,2021-07-30_00h00.09.334,Simcolourproject_2stim_asymm_v5,2020.2.10,Win32,60,61025ae37ef11b136ea224fe,,,,,,,,,596,49,-35,1,0,0,response3disk,,5,-3,-2,1,0,0,rectangle,-3,-2,1,0,0,-3,-2,1,0,0,0,80,80,66,1,,,,,,,,
,,,,,,,,,,,,,FF,,,,,,,,0.5321,,,,,,,,,,,,,,,,,,,,,,60fe0836d3261a80cb413737,610378f5a2fda81102253075,2021-07-30_00h00.09.334,Simcolourproject_2stim_asymm_v5,2020.2.10,Win32,60,61025ae37ef11b136ea224fe,,,,,,,,,283,49,40,1,0,0,response1disk,,6,-3,-4,1,0,0,rectangle,-3,-4,1,0,0,-3,-4,1,0,0,0,81,81,11,1,,,,,,,,
,,,,,,,,,,,,,FF,,,,,,,,1.3154,,,,,,,,,,,,,,,,,,,,,,60fe0836d3261a80cb413737,610378f5a2fda81102253075,2021-07-30_00h00.09.334,Simcolourproject_2stim_asymm_v5,2020.2.10,Win32,60,61025ae37ef11b136ea224fe,,,,,,,,,1307,-62,23,1,0,0,response7disk,,1,1,-6,1,0,0,rectangle,70,-33,1,0,0,5,6,1,0,0,0,82,82,126,1,,response3disk_3,TRUE,5,5,"[60,143,286,316,313,43,4,94,115,228,90,276,270,83,259,20,107,8,173,289]",2.0133,rectangle
,,,,,,,,,,,,,FF,,,,,,,,0.7325,,,,,,,,,,,,,,,,,,,,,,60fe0836d3261a80cb413737,610378f5a2fda81102253075,2021-07-30_00h00.09.334,Simcolourproject_2stim_asymm_v5,2020.2.10,Win32,60,61025ae37ef11b136ea224fe,,,,,,,,,2164,-46,32,1,0,0,response7disk,,1,4,2,1,0,0,rectangle,4,2,1,0,0,4,2,1,0,0,0,83,83,52,1,,,,,,,,
,,,,,,,,,,,,,FF,,,,,,,,0.5654,,,,,,,,,,,,,,,,,,,,,,60fe0836d3261a80cb413737,610378f5a2fda81102253075,2021-07-30_00h00.09.334,Simcolourproject_2stim_asymm_v5,2020.2.10,Win32,60,61025ae37ef11b136ea224fe,,,,,,,,,446,75,36,1,0,0,response1disk,,6,10,7,1,0,0,rectangle,10,7,1,0,0,10,7,1,0,0,0,84,84,70,1,,,,,,,,
,,,,,,,,,,,,,FF,,,,,,,,0.766,,,,,,,,,,,,,,,,,,,,,,60fe0836d3261a80cb413737,610378f5a2fda81102253075,2021-07-30_00h00.09.334,Simcolourproject_2stim_asymm_v5,2020.2.10,Win32,60,61025ae37ef11b136ea224fe,,,,,,,,,3374,35,-32,1,0,0,response3disk,,5,-6,4,1,0,0,rectangle,-6,4,1,0,0,-6,4,1,0,0,0,85,85,157,1,,,,,,,,
,,,,,,,,,,,,,FF,,,,,,,,0.5471,,,,,,,,,,,,,,,,,,,,,,60fe0836d3261a80cb413737,610378f5a2fda81102253075,2021-07-30_00h00.09.334,Simcolourproject_2stim_asymm_v5,2020.2.10,Win32,60,61025ae37ef11b136ea224fe,,,,,,,,,3134,43,33,1,0,0,response1disk,,6,7,6,1,0,0,rectangle,7,6,1,0,0,7,6,1,0,0,0,86,86,30,1,,,,,,,,
,,,,,,,,,,,,,FF,,,,,,,,0.6991,,,,,,,,,,,,,,,,,,,,,,60fe0836d3261a80cb413737,610378f5a2fda81102253075,2021-07-30_00h00.09.334,Simcolourproject_2stim_asymm_v5,2020.2.10,Win32,60,61025ae37ef11b136ea224fe,,,,,,,,,3611,35,32,1,0,0,response1disk,,6,11,11,1,0,0,rectangle,11,11,1,0,0,11,11,1,0,0,0,87,87,124,1,,,,,,,,
,,,,,,,,,,,,,FF,,,,,,,,0.5981,,,,,,,,,,,,,,,,,,,,,,60fe0836d3261a80cb413737,610378f5a2fda81102253075,2021-07-30_00h00.09.334,Simcolourproject_2stim_asymm_v5,2020.2.10,Win32,60,61025ae37ef11b136ea224fe,,,,,,,,,1200,-36,-29,1,0,0,response5disk,,2,-5,-10,1,0,0,rectangle,-5,-10,1,0,0,-5,-10,1,0,0,0,88,88,12,1,,,,,,,,
,,,,,,,,,,,,,FF,,,,,,,,0.58,,,,,,,,,,,,,,,,,,,,,,60fe0836d3261a80cb413737,610378f5a2fda81102253075,2021-07-30_00h00.09.334,Simcolourproject_2stim_asymm_v5,2020.2.10,Win32,60,61025ae37ef11b136ea224fe,,,,,,,,,2636,37,40,1,0,0,response1disk,,7,4,7,1,0,0,rectangle,-26,71,1,0,0,0,7,1,0,0,0,89,89,72,1,,response7disk_3,TRUE,0,0,"[60,143,286,316,313,43,4,94,115,228,90,276,270,83,259,20,107,8,173,289]",1.5808,rectangle
,,,,,,,,,,,,,FF,,,,,,,,0.5163,,,,,,,,,,,,,,,,,,,,,,60fe0836d3261a80cb413737,610378f5a2fda81102253075,2021-07-30_00h00.09.334,Simcolourproject_2stim_asymm_v5,2020.2.10,Win32,60,61025ae37ef11b136ea224fe,,,,,,,,,2999,51,-43,1,0,0,response3disk,,5,11,5,1,0,0,rectangle,11,5,1,0,0,11,5,1,0,0,0,90,90,111,1,,,,,,,,
,,,,,,,,,,,,,FF,,,,,,,,0.4978,,,,,,,,,,,,,,,,,,,,,,60fe0836d3261a80cb413737,610378f5a2fda81102253075,2021-07-30_00h00.09.334,Simcolourproject_2stim_asymm_v5,2020.2.10,Win32,60,61025ae37ef11b136ea224fe,,,,,,,,,2960,34,-34,1,0,0,response3disk,,5,-1,2,1,0,0,rectangle,-1,2,1,0,0,-1,2,1,0,0,0,91,91,97,1,,,,,,,,
,,,,,,,,,,,,,FF,,,,,,,,0.4996,,,,,,,,,,,,,,,,,,,,,,60fe0836d3261a80cb413737,610378f5a2fda81102253075,2021-07-30_00h00.09.334,Simcolourproject_2stim_asymm_v5,2020.2.10,Win32,60,61025ae37ef11b136ea224fe,,,,,,,,,3270,33,-45,1,0,0,response3disk,,4,2,1,1,0,0,rectangle,2,1,1,0,0,2,1,1,0,0,0,92,92,103,1,,,,,,,,
,,,,,,,,,,,,,FF,,,,,,,,0.9312,,,,,,,,,,,,,,,,,,,,,,60fe0836d3261a80cb413737,610378f5a2fda81102253075,2021-07-30_00h00.09.334,Simcolourproject_2stim_asymm_v5,2020.2.10,Win32,60,61025ae37ef11b136ea224fe,,,,,,,,,4046,-50,65,1,0,0,response7disk,,0,2,2,1,0,0,rectangle,35,66,1,0,0,4,10,1,0,0,0,93,93,91,1,,response1disk_3,TRUE,7,7,"[60,143,286,316,313,43,4,94,115,228,90,276,270,83,259,20,107,8,173,289]",1.7476,rectangle
,,,,,,,,,,,,,FF,,,,,,,,0.9648,,,,,,,,,,,,,,,,,,,,,,60fe0836d3261a80cb413737,610378f5a2fda81102253075,2021-07-30_00h00.09.334,Simcolourproject_2stim_asymm_v5,2020.2.10,Win32,60,61025ae37ef11b136ea224fe,,,,,,,,,3861,28,20,1,0,0,response1disk,,6,-2,10,1,0,0,rectangle,-2,10,1,0,0,-2,10,1,0,0,0,94,94,4,1,,,,,,,,
,,,,,,,,,,,,,FF,,,,,,,,0.6803,,,,,,,,,,,,,,,,,,,,,,60fe0836d3261a80cb413737,610378f5a2fda81102253075,2021-07-30_00h00.09.334,Simcolourproject_2stim_asymm_v5,2020.2.10,Win32,60,61025ae37ef11b136ea224fe,,,,,,,,,2685,-36,-57,1,0,0,response5disk,,3,0,9,1,0,0,rectangle,0,9,1,0,0,0,9,1,0,0,0,95,95,83,1,,,,,,,,
,,,,,,,,,,,,,FF,,,,,,,,0.7147,,,,,,,,,,,,,,,,,,,,,,60fe0836d3261a80cb413737,610378f5a2fda81102253075,2021-07-30_00h00.09.334,Simcolourproject_2stim_asymm_v5,2020.2.10,Win32,60,61025ae37ef11b136ea224fe,,,,,,,,,637,-44,54,1,0,0,response7disk,,0,4,9,1,0,0,rectangle,4,9,1,0,0,4,9,1,0,0,0,96,96,131,1,,,,,,,,
,,,,,,,,,,,,,FF,,,,,,,,0.6156,,,,,,,,,,,,,,,,,,,,,,60fe0836d3261a80cb413737,610378f5a2fda81102253075,2021-07-30_00h00.09.334,Simcolourproject_2stim_asymm_v5,2020.2.10,Win32,60,61025ae37ef11b136ea224fe,,,,,,,,,1702,41,-42,1,0,0,response3disk,,4,3,4,1,0,0,rectangle,3,4,1,0,0,3,4,1,0,0,0,97,97,22,1,,,,,,,,
,,,,,,,,,,,,,FF,,,,,,,,0.6184,,,,,,,,,,,,,,,,,,,,,,60fe0836d3261a80cb413737,610378f5a2fda81102253075,2021-07-30_00h00.09.334,Simcolourproject_2stim_asymm_v5,2020.2.10,Win32,60,61025ae37ef11b136ea224fe,,,,,,,,,1758,-58,-26,1,0,0,response5disk,,2,-7,-2,1,0,0,rectangle,-7,-2,1,0,0,-7,-2,1,0,0,0,98,98,142,1,,,,,,,,
,,,,,,,,,,,,,FF,,,,,,,,1.0325,,,,,,,,,,,,,,,,,,,,,,60fe0836d3261a80cb413737,610378f5a2fda81102253075,2021-07-30_00h00.09.334,Simcolourproject_2stim_asymm_v5,2020.2.10,Win32,60,61025ae37ef11b136ea224fe,,,,,,,,,3917,-71,-42,1,0,0,response5disk,,2,-5,4,1,0,0,rectangle,-5,4,1,0,0,-5,4,1,0,0,0,99,99,26,1,,,,,,,,
,,,,,,,,,,,,,FF,,,,,,,,2.727,,,,,,,,,,,,,,,,,,,,,,60fe0836d3261a80cb413737,610378f5a2fda81102253075,2021-07-30_00h00.09.334,Simcolourproject_2stim_asymm_v5,2020.2.10,Win32,60,61025ae37ef11b136ea224fe,,,,,,,,,4358,-67,17,1,0,0,response7disk,,1,-7,4,1,0,0,rectangle,-7,4,1,0,0,-7,4,1,0,0,0,100,100,65,1,,,,,,,,
,,,,,,,,,,,,,FF,,,,,,,,1.0159,,,,,,,,,,,,,,,,,,,,,,60fe0836d3261a80cb413737,610378f5a2fda81102253075,2021-07-30_00h00.09.334,Simcolourproject_2stim_asymm_v5,2020.2.10,Win32,60,61025ae37ef11b136ea224fe,,,,,,,,,2438,64,-26,1,0,0,response3disk,,5,17,7,1,0,0,rectangle,17,7,1,0,0,17,7,1,0,0,0,101,101,49,1,,,,,,,,
,,,,,,,,,,,,,FF,,,,,,,,0.5688,,,,,,,,,,,,,,,,,,,,,,60fe0836d3261a80cb413737,610378f5a2fda81102253075,2021-07-30_00h00.09.334,Simcolourproject_2stim_asymm_v5,2020.2.10,Win32,60,61025ae37ef11b136ea224fe,,,,,,,,,2142,36,35,1,0,0,response1disk,,6,6,7,1,0,0,rectangle,6,7,1,0,0,6,7,1,0,0,0,102,102,51,1,,,,,,,,
,,,,,,,,,,,,,FF,,,,,,,,0.5658,,,,,,,,,,,,,,,,,,,,,,60fe0836d3261a80cb413737,610378f5a2fda81102253075,2021-07-30_00h00.09.334,Simcolourproject_2stim_asymm_v5,2020.2.10,Win32,60,61025ae37ef11b136ea224fe,,,,,,,,,702,-57,-53,1,0,0,response5disk,,2,-6,-6,1,0,0,rectangle,-6,-6,1,0,0,-6,-6,1,0,0,0,103,103,17,1,,,,,,,,
,,,,,,,,,,,,,FF,,,,,,,,1.5839,,,,,,,,,,,,,,,,,,,,,,60fe0836d3261a80cb413737,610378f5a2fda81102253075,2021-07-30_00h00.09.334,Simcolourproject_2stim_asymm_v5,2020.2.10,Win32,60,61025ae37ef11b136ea224fe,,,,,,,,,4341,31,-41,1,0,0,response3disk,,4,2,3,1,0,0,rectangle,2,3,1,0,0,2,3,1,0,0,0,104,104,113,1,,,,,,,,
,,,,,,,,,,,,,FF,,,,,,,,2.8301,,,,,,,,,,,,,,,,,,,,,,60fe0836d3261a80cb413737,610378f5a2fda81102253075,2021-07-30_00h00.09.334,Simcolourproject_2stim_asymm_v5,2020.2.10,Win32,60,61025ae37ef11b136ea224fe,,,,,,,,,4230,54,48,1,0,0,response1disk,,6,5,-13,1,0,0,rectangle,5,-13,1,0,0,5,-13,1,0,0,0,105,105,82,1,,,,,,,,
,,,,,,,,,,,,,FF,,,,,,,,0.6664,,,,,,,,,,,,,,,,,,,,,,60fe0836d3261a80cb413737,610378f5a2fda81102253075,2021-07-30_00h00.09.334,Simcolourproject_2stim_asymm_v5,2020.2.10,Win32,60,61025ae37ef11b136ea224fe,,,,,,,,,3915,-46,-29,1,0,0,response5disk,,2,-6,5,1,0,0,rectangle,79,-38,1,0,0,6,1,1,0,0,0,106,106,99,1,,response3disk_3,TRUE,5,5,"[60,143,286,316,313,43,4,94,115,228,90,276,270,83,259,20,107,8,173,289]",1.7149,rectangle
,,,,,,,,,,,,,FF,,,,,,,,0.7471,,,,,,,,,,,,,,,,,,,,,,60fe0836d3261a80cb413737,610378f5a2fda81102253075,2021-07-30_00h00.09.334,Simcolourproject_2stim_asymm_v5,2020.2.10,Win32,60,61025ae37ef11b136ea224fe,,,,,,,,,208,19,-40,1,0,0,response3disk,,4,17,10,1,0,0,rectangle,17,10,1,0,0,17,10,1,0,0,0,107,107,69,1,,,,,,,,
,,,,,,,,,,,,,FF,,,,,,,,0.6527,,,,,,,,,,,,,,,,,,,,,,60fe0836d3261a80cb413737,610378f5a2fda81102253075,2021-07-30_00h00.09.334,Simcolourproject_2stim_asymm_v5,2020.2.10,Win32,60,61025ae37ef11b136ea224fe,,,,,,,,,3255,-18,-25,1,0,0,response5disk,,3,-10,-12,1,0,0,rectangle,-10,-12,1,0,0,-10,-12,1,0,0,0,108,108,106,1,,,,,,,,
,,,,,,,,,,,,,FF,,,,,,,,0.4997,,,,,,,,,,,,,,,,,,,,,,60fe0836d3261a80cb413737,610378f5a2fda81102253075,2021-07-30_00h00.09.334,Simcolourproject_2stim_asymm_v5,2020.2.10,Win32,60,61025ae37ef11b136ea224fe,,,,,,,,,2683,41,-45,1,0,0,response3disk,,4,2,5,1,0,0,rectangle,2,5,1,0,0,2,5,1,0,0,0,109,109,67,1,,,,,,,,
,,,,,,,,,,,,,FF,,,,,,,,0.4485,,,,,,,,,,,,,,,,,,,,,,60fe0836d3261a80cb413737,610378f5a2fda81102253075,2021-07-30_00h00.09.334,Simcolourproject_2stim_asymm_v5,2020.2.10,Win32,60,61025ae37ef11b136ea224fe,,,,,,,,,1780,32,-34,1,0,0,response3disk,,4,10,3,1,0,0,rectangle,10,3,1,0,0,10,3,1,0,0,0,110,110,9,1,,,,,,,,
,,,,,,,,,,,,,FF,,,,,,,,0.6982,,,,,,,,,,,,,,,,,,,,,,60fe0836d3261a80cb413737,610378f5a2fda81102253075,2021-07-30_00h00.09.334,Simcolourproject_2stim_asymm_v5,2020.2.10,Win32,60,61025ae37ef11b136ea224fe,,,,,,,,,602,-21,-26,1,0,0,response5disk,,3,-5,-1,1,0,0,rectangle,-5,-1,1,0,0,-5,-1,1,0,0,0,111,111,29,1,,,,,,,,
,,,,,,,,,,,,,FF,,,,,,,,0.6161,,,,,,,,,,,,,,,,,,,,,,60fe0836d3261a80cb413737,610378f5a2fda81102253075,2021-07-30_00h00.09.334,Simcolourproject_2stim_asymm_v5,2020.2.10,Win32,60,61025ae37ef11b136ea224fe,,,,,,,,,1594,-42,-54,1,0,0,response5disk,,3,-4,-5,1,0,0,rectangle,-4,-5,1,0,0,-4,-5,1,0,0,0,112,112,141,1,,,,,,,,
,,,,,,,,,,,,,FF,,,,,,,,0.6977,,,,,,,,,,,,,,,,,,,,,,60fe0836d3261a80cb413737,610378f5a2fda81102253075,2021-07-30_00h00.09.334,Simcolourproject_2stim_asymm_v5,2020.2.10,Win32,60,61025ae37ef11b136ea224fe,,,,,,,,,3862,-63,-25,1,0,0,response5disk,,2,-7,-6,1,0,0,rectangle,-7,-6,1,0,0,-7,-6,1,0,0,0,113,113,56,1,,,,,,,,
,,,,,,,,,,,,,FF,,,,,,,,0.7647,,,,,,,,,,,,,,,,,,,,,,60fe0836d3261a80cb413737,610378f5a2fda81102253075,2021-07-30_00h00.09.334,Simcolourproject_2stim_asymm_v5,2020.2.10,Win32,60,61025ae37ef11b136ea224fe,,,,,,,,,1568,15,-47,1,0,0,response3disk,,4,-7,3,1,0,0,rectangle,70,31,1,0,0,-8,-6,1,0,0,0,114,114,36,1,,response1disk_3,TRUE,6,6,"[60,143,286,316,313,43,4,94,115,228,90,276,270,83,259,20,107,8,173,289]",1.6313,rectangle
,,,,,,,,,,,,,FF,,,,,,,,0.7488,,,,,,,,,,,,,,,,,,,,,,60fe0836d3261a80cb413737,610378f5a2fda81102253075,2021-07-30_00h00.09.334,Simcolourproject_2stim_asymm_v5,2020.2.10,Win32,60,61025ae37ef11b136ea224fe,,,,,,,,,12,-43,-45,1,0,0,response5disk,,3,2,15,1,0,0,rectangle,2,15,1,0,0,2,15,1,0,0,0,115,115,60,1,,,,,,,,
,,,,,,,,,,,,,FF,,,,,,,,0.7653,,,,,,,,,,,,,,,,,,,,,,60fe0836d3261a80cb413737,610378f5a2fda81102253075,2021-07-30_00h00.09.334,Simcolourproject_2stim_asymm_v5,2020.2.10,Win32,60,61025ae37ef11b136ea224fe,,,,,,,,,1316,-19,-20,1,0,0,response5disk,,3,-2,-1,1,0,0,rectangle,-2,-1,1,0,0,-2,-1,1,0,0,0,116,116,95,1,,,,,,,,
,,,,,,,,,,,,,FF,,,,,,,,1.3145,,,,,,,,,,,,,,,,,,,,,,60fe0836d3261a80cb413737,610378f5a2fda81102253075,2021-07-30_00h00.09.334,Simcolourproject_2stim_asymm_v5,2020.2.10,Win32,60,61025ae37ef11b136ea224fe,,,,,,,,,515,54,-41,1,0,0,response3disk,,5,6,5,1,0,0,rectangle,6,5,1,0,0,6,5,1,0,0,0,117,117,54,1,,,,,,,,
,,,,,,,,,,,,,FF,,,,,,,,0.8659,,,,,,,,,,,,,,,,,,,,,,60fe0836d3261a80cb413737,610378f5a2fda81102253075,2021-07-30_00h00.09.334,Simcolourproject_2stim_asymm_v5,2020.2.10,Win32,60,61025ae37ef11b136ea224fe,,,,,,,,,648,-44,-21,1,0,0,response5disk,,2,-7,-11,1,0,0,rectangle,-7,-11,1,0,0,-7,-11,1,0,0,0,118,118,68,1,,,,,,,,
,,,,,,,,,,,,,FF,,,,,,,,0.6495,,,,,,,,,,,,,,,,,,,,,,60fe0836d3261a80cb413737,610378f5a2fda81102253075,2021-07-30_00h00.09.334,Simcolourproject_2stim_asymm_v5,2020.2.10,Win32,60,61025ae37ef11b136ea224fe,,,,,,,,,1786,36,27,1,0,0,response1disk,,6,4,-3,1,0,0,rectangle,4,-3,1,0,0,4,-3,1,0,0,0,119,119,24,1,,,,,,,,
,,,,,,,,,,,,,FF,,,,,,,,0.6663,,,,,,,,,,,,,,,,,,,,,,60fe0836d3261a80cb413737,610378f5a2fda81102253075,2021-07-30_00h00.09.334,Simcolourproject_2stim_asymm_v5,2020.2.10,Win32,60,61025ae37ef11b136ea224fe,,,,,,,,,1969,-37,-30,1,0,0,response5disk,,2,-5,-5,1,0,0,rectangle,-5,-5,1,0,0,-5,-5,1,0,0,0,120,120,58,1,,,,,,,,
,,,,,,,,,,,,,FF,,,,,,,,1.4138,,,,,,,,,,,,,,,,,,,,,,60fe0836d3261a80cb413737,610378f5a2fda81102253075,2021-07-30_00h00.09.334,Simcolourproject_2stim_asymm_v5,2020.2.10,Win32,60,61025ae37ef11b136ea224fe,,,,,,,,,797,34,-36,1,0,0,response3disk,,4,-8,3,1,0,0,rectangle,-8,3,1,0,0,-8,3,1,0,0,0,121,121,147,1,,,,,,,,
,,,,,,,,,,,,,FF,,,,,,,,1.115,,,,,,,,,,,,,,,,,,,,,,60fe0836d3261a80cb413737,610378f5a2fda81102253075,2021-07-30_00h00.09.334,Simcolourproject_2stim_asymm_v5,2020.2.10,Win32,60,61025ae37ef11b136ea224fe,,,,,,,,,983,54,24,1,0,0,response1disk,,6,3,1,1,0,0,rectangle,3,1,1,0,0,3,1,1,0,0,0,122,122,158,1,,,,,,,,
,,,,,,,,,,,,,FF,,,,,,,,0.6805,,,,,,,,,,,,,,,,,,,,,,60fe0836d3261a80cb413737,610378f5a2fda81102253075,2021-07-30_00h00.09.334,Simcolourproject_2stim_asymm_v5,2020.2.10,Win32,60,61025ae37ef11b136ea224fe,,,,,,,,,1842,37,-27,1,0,0,response3disk,,5,2,2,1,0,0,rectangle,2,2,1,0,0,2,2,1,0,0,0,123,123,39,1,,,,,,,,
,,,,,,,,,,,,,FF,,,,,,,,0.9023,,,,,,,,,,,,,,,,,,,,,,60fe0836d3261a80cb413737,610378f5a2fda81102253075,2021-07-30_00h00.09.334,Simcolourproject_2stim_asymm_v5,2020.2.10,Win32,60,61025ae37ef11b136ea224fe,,,,,,,,,118,29,58,1,0,0,response1disk,,7,8,-5,1,0,0,rectangle,8,-5,1,0,0,8,-5,1,0,0,0,124,124,77,1,,,,,,,,
,,,,,,,,,,,,,FF,,,,,,,,0.733,,,,,,,,,,,,,,,,,,,,,,60fe0836d3261a80cb413737,610378f5a2fda81102253075,2021-07-30_00h00.09.334,Simcolourproject_2stim_asymm_v5,2020.2.10,Win32,60,61025ae37ef11b136ea224fe,,,,,,,,,1240,-19,-23,1,0,0,response5disk,,3,-8,-4,1,0,0,rectangle,-8,-4,1,0,0,-8,-4,1,0,0,0,125,125,32,1,,,,,,,,
,,,,,,,,,,,,,FF,,,,,,,,0.6494,,,,,,,,,,,,,,,,,,,,,,60fe0836d3261a80cb413737,610378f5a2fda81102253075,2021-07-30_00h00.09.334,Simcolourproject_2stim_asymm_v5,2020.2.10,Win32,60,61025ae37ef11b136ea224fe,,,,,,,,,3268,32,-42,1,0,0,response3disk,,4,10,10,1,0,0,rectangle,10,10,1,0,0,10,10,1,0,0,0,126,126,19,1,,,,,,,,
,,,,,,,,,,,,,FF,,,,,,,,0.5499,,,,,,,,,,,,,,,,,,,,,,60fe0836d3261a80cb413737,610378f5a2fda81102253075,2021-07-30_00h00.09.334,Simcolourproject_2stim_asymm_v5,2020.2.10,Win32,60,61025ae37ef11b136ea224fe,,,,,,,,,2751,42,-35,1,0,0,response3disk,,5,1,4,1,0,0,rectangle,1,4,1,0,0,1,4,1,0,0,0,127,127,114,1,,,,,,,,
,,,,,,,,,,,,,FF,,,,,,,,0.549,,,,,,,,,,,,,,,,,,,,,,60fe0836d3261a80cb413737,610378f5a2fda81102253075,2021-07-30_00h00.09.334,Simcolourproject_2stim_asymm_v5,2020.2.10,Win32,60,61025ae37ef11b136ea224fe,,,,,,,,,1871,51,-39,1,0,0,response3disk,,5,6,2,1,0,0,rectangle,6,2,1,0,0,6,2,1,0,0,0,128,128,38,1,,,,,,,,
,,,,,,,,,,,,,FF,,,,,,,,0.7976,,,,,,,,,,,,,,,,,,,,,,60fe0836d3261a80cb413737,610378f5a2fda81102253075,2021-07-30_00h00.09.334,Simcolourproject_2stim_asymm_v5,2020.2.10,Win32,60,61025ae37ef11b136ea224fe,,,,,,,,,3394,-25,-43,1,0,0,response5disk,,3,-16,-11,1,0,0,rectangle,-16,-11,1,0,0,-16,-11,1,0,0,0,129,129,18,1,,,,,,,,
,,,,,,,,,,,,,FF,,,,,,,,0.631,,,,,,,,,,,,,,,,,,,,,,60fe0836d3261a80cb413737,610378f5a2fda81102253075,2021-07-30_00h00.09.334,Simcolourproject_2stim_asymm_v5,2020.2.10,Win32,60,61025ae37ef11b136ea224fe,,,,,,,,,1714,32,43,1,0,0,response1disk,,7,4,5,1,0,0,rectangle,4,5,1,0,0,4,5,1,0,0,0,130,130,46,1,,,,,,,,
,,,,,,,,,,,,,FF,,,,,,,,0.6498,,,,,,,,,,,,,,,,,,,,,,60fe0836d3261a80cb413737,610378f5a2fda81102253075,2021-07-30_00h00.09.334,Simcolourproject_2stim_asymm_v5,2020.2.10,Win32,60,61025ae37ef11b136ea224fe,,,,,,,,,893,34,-42,1,0,0,response3disk,,4,-4,3,1,0,0,rectangle,-4,3,1,0,0,-4,3,1,0,0,0,131,131,159,1,,,,,,,,
,,,,,,,,,,,,,FF,,,,,,,,0.6662,,,,,,,,,,,,,,,,,,,,,,60fe0836d3261a80cb413737,610378f5a2fda81102253075,2021-07-30_00h00.09.334,Simcolourproject_2stim_asymm_v5,2020.2.10,Win32,60,61025ae37ef11b136ea224fe,,,,,,,,,3751,-29,-41,1,0,0,response5disk,,3,-14,9,1,0,0,rectangle,-14,9,1,0,0,-14,9,1,0,0,0,132,132,33,1,,,,,,,,
,,,,,,,,,,,,,FF,,,,,,,,1.7985,,,,,,,,,,,,,,,,,,,,,,60fe0836d3261a80cb413737,610378f5a2fda81102253075,2021-07-30_00h00.09.334,Simcolourproject_2stim_asymm_v5,2020.2.10,Win32,60,61025ae37ef11b136ea224fe,,,,,,,,,2147,52,30,1,0,0,response1disk,,6,2,-14,1,0,0,rectangle,2,-14,1,0,0,2,-14,1,0,0,0,133,133,129,1,,,,,,,,
,,,,,,,,,,,,,FF,,,,,,,,0.6328,,,,,,,,,,,,,,,,,,,,,,60fe0836d3261a80cb413737,610378f5a2fda81102253075,2021-07-30_00h00.09.334,Simcolourproject_2stim_asymm_v5,2020.2.10,Win32,60,61025ae37ef11b136ea224fe,,,,,,,,,4252,-77,-15,1,0,0,response5disk,,2,-17,-3,1,0,0,rectangle,-17,-3,1,0,0,-17,-3,1,0,0,0,134,134,89,1,,,,,,,,
,,,,,,,,,,,,,FF,,,,,,,,0.7982,,,,,,,,,,,,,,,,,,,,,,60fe0836d3261a80cb413737,610378f5a2fda81102253075,2021-07-30_00h00.09.334,Simcolourproject_2stim_asymm_v5,2020.2.10,Win32,60,61025ae37ef11b136ea224fe,,,,,,,,,3718,40,28,1,0,0,response1disk,,6,15,6,1,0,0,rectangle,15,6,1,0,0,15,6,1,0,0,0,135,135,74,1,,,,,,,,
,,,,,,,,,,,,,FF,,,,,,,,0.7528,,,,,,,,,,,,,,,,,,,,,,60fe0836d3261a80cb413737,610378f5a2fda81102253075,2021-07-30_00h00.09.334,Simcolourproject_2stim_asymm_v5,2020.2.10,Win32,60,61025ae37ef11b136ea224fe,,,,,,,,,3067,30,-25,1,0,0,response3disk,,5,10,-11,1,0,0,rectangle,10,-11,1,0,0,10,-11,1,0,0,0,136,136,122,1,,,,,,,,
,,,,,,,,,,,,,FF,,,,,,,,0.799,,,,,,,,,,,,,,,,,,,,,,60fe0836d3261a80cb413737,610378f5a2fda81102253075,2021-07-30_00h00.09.334,Simcolourproject_2stim_asymm_v5,2020.2.10,Win32,60,61025ae37ef11b136ea224fe,,,,,,,,,676,42,-65,1,0,0,response3disk,,4,-7,5,1,0,0,rectangle,-7,5,1,0,0,-7,5,1,0,0,0,137,137,76,1,,,,,,,,
,,,,,,,,,,,,,FF,,,,,,,,0.6664,,,,,,,,,,,,,,,,,,,,,,60fe0836d3261a80cb413737,610378f5a2fda81102253075,2021-07-30_00h00.09.334,Simcolourproject_2stim_asymm_v5,2020.2.10,Win32,60,61025ae37ef11b136ea224fe,,,,,,,,,1345,48,-21,1,0,0,response3disk,,5,12,12,1,0,0,rectangle,12,12,1,0,0,12,12,1,0,0,0,138,138,15,1,,,,,,,,
,,,,,,,,,,,,,FF,,,,,,,,0.599,,,,,,,,,,,,,,,,,,,,,,60fe0836d3261a80cb413737,610378f5a2fda81102253075,2021-07-30_00h00.09.334,Simcolourproject_2stim_asymm_v5,2020.2.10,Win32,60,61025ae37ef11b136ea224fe,,,,,,,,,211,-39,-32,1,0,0,response5disk,,2,-17,7,1,0,0,rectangle,-17,7,1,0,0,-17,7,1,0,0,0,139,139,16,1,,,,,,,,
,,,,,,,,,,,,,FF,,,,,,,,0.7666,,,,,,,,,,,,,,,,,,,,,,60fe0836d3261a80cb413737,610378f5a2fda81102253075,2021-07-30_00h00.09.334,Simcolourproject_2stim_asymm_v5,2020.2.10,Win32,60,61025ae37ef11b136ea224fe,,,,,,,,,387,36,34,1,0,0,response1disk,,6,-2,7,1,0,0,rectangle,-2,7,1,0,0,-2,7,1,0,0,0,140,140,110,1,,,,,,,,
,,,,,,,,,,,,,FF,,,,,,,,0.6823,,,,,,,,,,,,,,,,,,,,,,60fe0836d3261a80cb413737,610378f5a2fda81102253075,2021-07-30_00h00.09.334,Simcolourproject_2stim_asymm_v5,2020.2.10,Win32,60,61025ae37ef11b136ea224fe,,,,,,,,,1765,-31,-58,1,0,0,response5disk,,3,-10,-5,1,0,0,rectangle,-10,-5,1,0,0,-10,-5,1,0,0,0,141,141,45,1,,,,,,,,
,,,,,,,,,,,,,FF,,,,,,,,0.7991,,,,,,,,,,,,,,,,,,,,,,60fe0836d3261a80cb413737,610378f5a2fda81102253075,2021-07-30_00h00.09.334,Simcolourproject_2stim_asymm_v5,2020.2.10,Win32,60,61025ae37ef11b136ea224fe,,,,,,,,,3847,-64,-41,1,0,0,response5disk,,2,-10,-3,1,0,0,rectangle,-33,-61,1,0,0,-3,1,1,0,0,0,142,142,134,1,,response5disk_3,TRUE,3,3,"[60,143,286,316,313,43,4,94,115,228,90,276,270,83,259,20,107,8,173,289]",1.7842,rectangle
,,,,,,,,,,,,,FF,,,,,,,,3.0275,,,,,,,,,,,,,,,,,,,,,,60fe0836d3261a80cb413737,610378f5a2fda81102253075,2021-07-30_00h00.09.334,Simcolourproject_2stim_asymm_v5,2020.2.10,Win32,60,61025ae37ef11b136ea224fe,,,,,,,,,312,59,-15,1,0,0,response3disk,,5,-1,5,1,0,0,rectangle,-1,5,1,0,0,-1,5,1,0,0,0,143,143,123,1,,,,,,,,
,,,,,,,,,,,,,FF,,,,,,,,1.064,,,,,,,,,,,,,,,,,,,,,,60fe0836d3261a80cb413737,610378f5a2fda81102253075,2021-07-30_00h00.09.334,Simcolourproject_2stim_asymm_v5,2020.2.10,Win32,60,61025ae37ef11b136ea224fe,,,,,,,,,2991,-28,-41,1,0,0,response5disk,,3,-7,-1,1,0,0,rectangle,-7,-1,1,0,0,-7,-1,1,0,0,0,144,144,47,1,,,,,,,,
,,,,,,,,,,,,,FF,,,,,,,,0.9147,,,,,,,,,,,,,,,,,,,,,,60fe0836d3261a80cb413737,610378f5a2fda81102253075,2021-07-30_00h00.09.334,Simcolourproject_2stim_asymm_v5,2020.2.10,Win32,60,61025ae37ef11b136ea224fe,,,,,,,,,3372,-56,-26,1,0,0,response5disk,,2,-1,-1,1,0,0,rectangle,-1,-1,1,0,0,-1,-1,1,0,0,0,145,145,133,1,,,,,,,,
,,,,,,,,,,,,,FF,,,,,,,,0.9468,,,,,,,,,,,,,,,,,,,,,,60fe0836d3261a80cb413737,610378f5a2fda81102253075,2021-07-30_00h00.09.334,Simcolourproject_2stim_asymm_v5,2020.2.10,Win32,60,61025ae37ef11b136ea224fe,,,,,,,,,2377,56,-51,1,0,0,response3disk,,5,-19,5,1,0,0,rectangle,-19,5,1,0,0,-19,5,1,0,0,0,146,146,130,1,,,,,,,,
,,,,,,,,,,,,,FF,,,,,,,,0.7654,,,,,,,,,,,,,,,,,,,,,,60fe0836d3261a80cb413737,610378f5a2fda81102253075,2021-07-30_00h00.09.334,Simcolourproject_2stim_asymm_v5,2020.2.10,Win32,60,61025ae37ef11b136ea224fe,,,,,,,,,1322,-39,-60,1,0,0,response5disk,,3,-6,2,1,0,0,rectangle,-6,2,1,0,0,-6,2,1,0,0,0,147,147,48,1,,,,,,,,
,,,,,,,,,,,,,FF,,,,,,,,0.599,,,,,,,,,,,,,,,,,,,,,,60fe0836d3261a80cb413737,610378f5a2fda81102253075,2021-07-30_00h00.09.334,Simcolourproject_2stim_asymm_v5,2020.2.10,Win32,60,61025ae37ef11b136ea224fe,,,,,,,,,745,-37,-57,1,0,0,response5disk,,3,-8,2,1,0,0,rectangle,-8,2,1,0,0,-8,2,1,0,0,0,148,148,136,1,,,,,,,,
,,,,,,,,,,,,,FF,,,,,,,,0.6664,,,,,,,,,,,,,,,,,,,,,,60fe0836d3261a80cb413737,610378f5a2fda81102253075,2021-07-30_00h00.09.334,Simcolourproject_2stim_asymm_v5,2020.2.10,Win32,60,61025ae37ef11b136ea224fe,,,,,,,,,290,50,-32,1,0,0,response3disk,,5,2,-3,1,0,0,rectangle,2,-3,1,0,0,2,-3,1,0,0,0,149,149,57,1,,,,,,,,
,,,,,,,,,,,,,FF,,,,,,,,1.1115,,,,,,,,,,,,,,,,,,,,,,60fe0836d3261a80cb413737,610378f5a2fda81102253075,2021-07-30_00h00.09.334,Simcolourproject_2stim_asymm_v5,2020.2.10,Win32,60,61025ae37ef11b136ea224fe,,,,,,,,,3851,-23,-49,1,0,0,response5disk,,3,17,11,1,0,0,rectangle,17,11,1,0,0,17,11,1,0,0,0,150,150,1,1,,,,,,,,
,,,,,,,,,,,,,FF,,,,,,,,0.6154,,,,,,,,,,,,,,,,,,,,,,60fe0836d3261a80cb413737,610378f5a2fda81102253075,2021-07-30_00h00.09.334,Simcolourproject_2stim_asymm_v5,2020.2.10,Win32,60,61025ae37ef11b136ea224fe,,,,,,,,,1397,-44,-68,1,0,0,response5disk,,3,-6,10,1,0,0,rectangle,-6,10,1,0,0,-6,10,1,0,0,0,151,151,75,1,,,,,,,,
,,,,,,,,,,,,,FF,,,,,,,,0.6992,,,,,,,,,,,,,,,,,,,,,,60fe0836d3261a80cb413737,610378f5a2fda81102253075,2021-07-30_00h00.09.334,Simcolourproject_2stim_asymm_v5,2020.2.10,Win32,60,61025ae37ef11b136ea224fe,,,,,,,,,927,32,-45,1,0,0,response3disk,,4,4,1,1,0,0,rectangle,4,1,1,0,0,4,1,1,0,0,0,152,152,34,1,,,,,,,,
,,,,,,,,,,,,,FF,,,,,,,,0.7157,,,,,,,,,,,,,,,,,,,,,,60fe0836d3261a80cb413737,610378f5a2fda81102253075,2021-07-30_00h00.09.334,Simcolourproject_2stim_asymm_v5,2020.2.10,Win32,60,61025ae37ef11b136ea224fe,,,,,,,,,1640,17,25,1,0,0,response1disk,,7,-6,-11,1,0,0,rectangle,-6,-11,1,0,0,-6,-11,1,0,0,0,153,153,86,1,,,,,,,,
,,,,,,,,,,,,,FF,,,,,,,,0.7323,,,,,,,,,,,,,,,,,,,,,,60fe0836d3261a80cb413737,610378f5a2fda81102253075,2021-07-30_00h00.09.334,Simcolourproject_2stim_asymm_v5,2020.2.10,Win32,60,61025ae37ef11b136ea224fe,,,,,,,,,3569,34,-41,1,0,0,response3disk,,4,4,-4,1,0,0,rectangle,4,-4,1,0,0,4,-4,1,0,0,0,154,154,155,1,,,,,,,,
,,,,,,,,,,,,,FF,,,,,,,,0.6816,,,,,,,,,,,,,,,,,,,,,,60fe0836d3261a80cb413737,610378f5a2fda81102253075,2021-07-30_00h00.09.334,Simcolourproject_2stim_asymm_v5,2020.2.10,Win32,60,61025ae37ef11b136ea224fe,,,,,,,,,98,-65,-36,1,0,0,response5disk,,2,-8,9,1,0,0,rectangle,-8,9,1,0,0,-8,9,1,0,0,0,155,155,127,1,,,,,,,,
,,,,,,,,,,,,,FF,,,,,,,,0.9489,,,,,,,,,,,,,,,,,,,,,,60fe0836d3261a80cb413737,610378f5a2fda81102253075,2021-07-30_00h00.09.334,Simcolourproject_2stim_asymm_v5,2020.2.10,Win32,60,61025ae37ef11b136ea224fe,,,,,,,,,2662,-54,69,1,0,0,response7disk,,0,-2,9,1,0,0,rectangle,-2,9,1,0,0,-2,9,1,0,0,0,156,156,63,1,,,,,,,,
,,,,,,,,,,,,,FF,,,,,,,,3.1128,,,,,,,,,,,,,,,,,,,,,,60fe0836d3261a80cb413737,610378f5a2fda81102253075,2021-07-30_00h00.09.334,Simcolourproject_2stim_asymm_v5,2020.2.10,Win32,60,61025ae37ef11b136ea224fe,,,,,,,,,3891,53,-51,1,0,0,response3disk,,5,-8,-1,1,0,0,rectangle,-8,-1,1,0,0,-8,-1,1,0,0,0,157,157,25,1,,,,,,,,
,,,,,,,,,,,,,FF,,,,,,,,0.8357,,,,,,,,,,,,,,,,,,,,,,60fe0836d3261a80cb413737,610378f5a2fda81102253075,2021-07-30_00h00.09.334,Simcolourproject_2stim_asymm_v5,2020.2.10,Win32,60,61025ae37ef11b136ea224fe,,,,,,,,,3506,-31,-42,1,0,0,response5disk,,3,-7,-1,1,0,0,rectangle,-7,-1,1,0,0,-7,-1,1,0,0,0,158,158,64,1,,,,,,,,
,,,,,,,,,,,,,FF,,,,,,,,1.0495,,,,,,,,,,,,,,,,,,,,,,60fe0836d3261a80cb413737,610378f5a2fda81102253075,2021-07-30_00h00.09.334,Simcolourproject_2stim_asymm_v5,2020.2.10,Win32,60,61025ae37ef11b136ea224fe,,,,,,,,,3286,40,-53,1,0,0,response3disk,,4,17,0,1,0,0,rectangle,17,0,1,0,0,17,0,1,0,0,0,159,159,7,1,,,,,,,,
,,,,,,,,,,,,,FF,,,,,,,,0.7657,,,,,,,,,,,,,,,,,,,,,,60fe0836d3261a80cb413737,610378f5a2fda81102253075,2021-07-30_00h00.09.334,Simcolourproject_2stim_asymm_v5,2020.2.10,Win32,60,61025ae37ef11b136ea224fe,,,,,,,,,1826,-42,-23,1,0,0,response5disk,,2,-7,-11,1,0,0,rectangle,-7,-11,1,0,0,-7,-11,1,0,0,1,0,160,152,1,,,,,,,,
,,,,,,,,,,,,,FF,,,,,,,,1.181,,,,,,,,,,,,,,,,,,,,,,60fe0836d3261a80cb413737,610378f5a2fda81102253075,2021-07-30_00h00.09.334,Simcolourproject_2stim_asymm_v5,2020.2.10,Win32,60,61025ae37ef11b136ea224fe,,,,,,,,,1216,-55,-52,1,0,0,response5disk,,2,11,14,1,0,0,rectangle,11,14,1,0,0,11,14,1,0,0,1,1,161,33,1,,,,,,,,
,,,,,,,,,,,,,FF,,,,,,,,0.6317,,,,,,,,,,,,,,,,,,,,,,60fe0836d3261a80cb413737,610378f5a2fda81102253075,2021-07-30_00h00.09.334,Simcolourproject_2stim_asymm_v5,2020.2.10,Win32,60,61025ae37ef11b136ea224fe,,,,,,,,,3538,40,-54,1,0,0,response3disk,,4,-4,8,1,0,0,rectangle,-4,8,1,0,0,-4,8,1,0,0,1,2,162,143,1,,,,,,,,
,,,,,,,,,,,,,FF,,,,,,,,1.0814,,,,,,,,,,,,,,,,,,,,,,60fe0836d3261a80cb413737,610378f5a2fda81102253075,2021-07-30_00h00.09.334,Simcolourproject_2stim_asymm_v5,2020.2.10,Win32,60,61025ae37ef11b136ea224fe,,,,,,,,,1733,27,-60,1,0,0,response3disk,,4,7,2,1,0,0,rectangle,7,2,1,0,0,7,2,1,0,0,1,3,163,111,1,,,,,,,,
,,,,,,,,,,,,,FF,,,,,,,,0.6658,,,,,,,,,,,,,,,,,,,,,,60fe0836d3261a80cb413737,610378f5a2fda81102253075,2021-07-30_00h00.09.334,Simcolourproject_2stim_asymm_v5,2020.2.10,Win32,60,61025ae37ef11b136ea224fe,,,,,,,,,1887,-37,-54,1,0,0,response5disk,,3,-9,15,1,0,0,rectangle,-9,15,1,0,0,-9,15,1,0,0,1,4,164,3,1,,,,,,,,
,,,,,,,,,,,,,FF,,,,,,,,1.1491,,,,,,,,,,,,,,,,,,,,,,60fe0836d3261a80cb413737,610378f5a2fda81102253075,2021-07-30_00h00.09.334,Simcolourproject_2stim_asymm_v5,2020.2.10,Win32,60,61025ae37ef11b136ea224fe,,,,,,,,,4263,50,-20,1,0,0,response3disk,,5,15,4,1,0,0,rectangle,15,4,1,0,0,15,4,1,0,0,1,5,165,115,1,,,,,,,,
,,,,,,,,,,,,,FF,,,,,,,,1.0316,,,,,,,,,,,,,,,,,,,,,,60fe0836d3261a80cb413737,610378f5a2fda81102253075,2021-07-30_00h00.09.334,Simcolourproject_2stim_asymm_v5,2020.2.10,Win32,60,61025ae37ef11b136ea224fe,,,,,,,,,3921,34,-75,1,0,0,response3disk,,4,6,0,1,0,0,rectangle,6,0,1,0,0,6,0,1,0,0,1,6,166,97,1,,,,,,,,
,,,,,,,,,,,,,FF,,,,,,,,0.83,,,,,,,,,,,,,,,,,,,,,,60fe0836d3261a80cb413737,610378f5a2fda81102253075,2021-07-30_00h00.09.334,Simcolourproject_2stim_asymm_v5,2020.2.10,Win32,60,61025ae37ef11b136ea224fe,,,,,,,,,3715,-29,-77,1,0,0,response5disk,,3,-12,-8,1,0,0,rectangle,-12,-8,1,0,0,-12,-8,1,0,0,1,7,167,137,1,,,,,,,,
,,,,,,,,,,,,,FF,,,,,,,,0.7492,,,,,,,,,,,,,,,,,,,,,,60fe0836d3261a80cb413737,610378f5a2fda81102253075,2021-07-30_00h00.09.334,Simcolourproject_2stim_asymm_v5,2020.2.10,Win32,60,61025ae37ef11b136ea224fe,,,,,,,,,2457,42,-29,1,0,0,response3disk,,5,3,6,1,0,0,rectangle,3,6,1,0,0,3,6,1,0,0,1,8,168,59,1,,,,,,,,
,,,,,,,,,,,,,FF,,,,,,,,1.0146,,,,,,,,,,,,,,,,,,,,,,60fe0836d3261a80cb413737,610378f5a2fda81102253075,2021-07-30_00h00.09.334,Simcolourproject_2stim_asymm_v5,2020.2.10,Win32,60,61025ae37ef11b136ea224fe,,,,,,,,,4087,22,23,1,0,0,response1disk,,7,-8,-6,1,0,0,rectangle,-8,-6,1,0,0,-8,-6,1,0,0,1,9,169,18,1,,,,,,,,
,,,,,,,,,,,,,FF,,,,,,,,1.4985,,,,,,,,,,,,,,,,,,,,,,60fe0836d3261a80cb413737,610378f5a2fda81102253075,2021-07-30_00h00.09.334,Simcolourproject_2stim_asymm_v5,2020.2.10,Win32,60,61025ae37ef11b136ea224fe,,,,,,,,,1557,89,-39,1,0,0,response3disk,,5,12,3,1,0,0,rectangle,12,3,1,0,0,12,3,1,0,0,1,10,170,57,1,,,,,,,,
,,,,,,,,,,,,,FF,,,,,,,,0.8657,,,,,,,,,,,,,,,,,,,,,,60fe0836d3261a80cb413737,610378f5a2fda81102253075,2021-07-30_00h00.09.334,Simcolourproject_2stim_asymm_v5,2020.2.10,Win32,60,61025ae37ef11b136ea224fe,,,,,,,,,2005,37,82,1,0,0,response1disk,,7,-2,-3,1,0,0,rectangle,-2,-3,1,0,0,-2,-3,1,0,0,1,11,171,40,1,,,,,,,,
,,,,,,,,,,,,,FF,,,,,,,,0.9487,,,,,,,,,,,,,,,,,,,,,,60fe0836d3261a80cb413737,610378f5a2fda81102253075,2021-07-30_00h00.09.334,Simcolourproject_2stim_asymm_v5,2020.2.10,Win32,60,61025ae37ef11b136ea224fe,,,,,,,,,1210,56,-25,1,0,0,response3disk,,5,-28,7,1,0,0,rectangle,-69,-39,1,0,0,21,6,1,0,0,1,12,172,56,1,,response5disk_3,TRUE,2,2,"[60,143,286,316,313,43,4,94,115,228,90,276,270,83,259,20,107,8,173,289]",1.8642,rectangle
,,,,,,,,,,,,,FF,,,,,,,,1.7011,,,,,,,,,,,,,,,,,,,,,,60fe0836d3261a80cb413737,610378f5a2fda81102253075,2021-07-30_00h00.09.334,Simcolourproject_2stim_asymm_v5,2020.2.10,Win32,60,61025ae37ef11b136ea224fe,,,,,,,,,3315,41,24,1,0,0,response1disk,,6,-4,-15,1,0,0,rectangle,-4,-15,1,0,0,-4,-15,1,0,0,1,13,173,41,1,,,,,,,,
,,,,,,,,,,,,,FF,,,,,,,,3.3465,,,,,,,,,,,,,,,,,,,,,,60fe0836d3261a80cb413737,610378f5a2fda81102253075,2021-07-30_00h00.09.334,Simcolourproject_2stim_asymm_v5,2020.2.10,Win32,60,61025ae37ef11b136ea224fe,,,,,,,,,131,43,-52,1,0,0,response3disk,,4,4,-4,1,0,0,rectangle,4,-4,1,0,0,4,-4,1,0,0,1,14,174,52,1,,,,,,,,
,,,,,,,,,,,,,FF,,,,,,,,0.6993,,,,,,,,,,,,,,,,,,,,,,60fe0836d3261a80cb413737,610378f5a2fda81102253075,2021-07-30_00h00.09.334,Simcolourproject_2stim_asymm_v5,2020.2.10,Win32,60,61025ae37ef11b136ea224fe,,,,,,,,,4347,-45,-58,1,0,0,response5disk,,3,-8,-5,1,0,0,rectangle,-8,-5,1,0,0,-8,-5,1,0,0,1,15,175,17,1,,,,,,,,
,,,,,,,,,,,,,FF,,,,,,,,0.5325,,,,,,,,,,,,,,,,,,,,,,60fe0836d3261a80cb413737,610378f5a2fda81102253075,2021-07-30_00h00.09.334,Simcolourproject_2stim_asymm_v5,2020.2.10,Win32,60,61025ae37ef11b136ea224fe,,,,,,,,,601,32,-51,1,0,0,response3disk,,4,3,-10,1,0,0,rectangle,3,-10,1,0,0,3,-10,1,0,0,1,16,176,15,1,,,,,,,,
,,,,,,,,,,,,,FF,,,,,,,,0.5635,,,,,,,,,,,,,,,,,,,,,,60fe0836d3261a80cb413737,610378f5a2fda81102253075,2021-07-30_00h00.09.334,Simcolourproject_2stim_asymm_v5,2020.2.10,Win32,60,61025ae37ef11b136ea224fe,,,,,,,,,731,-70,-42,1,0,0,response5disk,,2,-1,7,1,0,0,rectangle,-1,7,1,0,0,-1,7,1,0,0,1,17,177,105,1,,,,,,,,
,,,,,,,,,,,,,FF,,,,,,,,0.5016,,,,,,,,,,,,,,,,,,,,,,60fe0836d3261a80cb413737,610378f5a2fda81102253075,2021-07-30_00h00.09.334,Simcolourproject_2stim_asymm_v5,2020.2.10,Win32,60,61025ae37ef11b136ea224fe,,,,,,,,,2625,63,-34,1,0,0,response3disk,,5,7,-6,1,0,0,rectangle,7,-6,1,0,0,7,-6,1,0,0,1,18,178,156,1,,,,,,,,
,,,,,,,,,,,,,FF,,,,,,,,1.0147,,,,,,,,,,,,,,,,,,,,,,60fe0836d3261a80cb413737,610378f5a2fda81102253075,2021-07-30_00h00.09.334,Simcolourproject_2stim_asymm_v5,2020.2.10,Win32,60,61025ae37ef11b136ea224fe,,,,,,,,,2274,42,41,1,0,0,response1disk,,6,3,11,1,0,0,rectangle,3,11,1,0,0,3,11,1,0,0,1,19,179,106,1,,,,,,,,
,,,,,,,,,,,,,FF,,,,,,,,0.7166,,,,,,,,,,,,,,,,,,,,,,60fe0836d3261a80cb413737,610378f5a2fda81102253075,2021-07-30_00h00.09.334,Simcolourproject_2stim_asymm_v5,2020.2.10,Win32,60,61025ae37ef11b136ea224fe,,,,,,,,,2807,35,23,1,0,0,response1disk,,6,-8,-3,1,0,0,rectangle,-8,-3,1,0,0,-8,-3,1,0,0,1,20,180,77,1,,,,,,,,
,,,,,,,,,,,,,FF,,,,,,,,0.9487,,,,,,,,,,,,,,,,,,,,,,60fe0836d3261a80cb413737,610378f5a2fda81102253075,2021-07-30_00h00.09.334,Simcolourproject_2stim_asymm_v5,2020.2.10,Win32,60,61025ae37ef11b136ea224fe,,,,,,,,,1116,-45,-27,1,0,0,response5disk,,2,-9,0,1,0,0,rectangle,-9,0,1,0,0,-9,0,1,0,0,1,21,181,116,1,,,,,,,,
,,,,,,,,,,,,,FF,,,,,,,,0.7022,,,,,,,,,,,,,,,,,,,,,,60fe0836d3261a80cb413737,610378f5a2fda81102253075,2021-07-30_00h00.09.334,Simcolourproject_2stim_asymm_v5,2020.2.10,Win32,60,61025ae37ef11b136ea224fe,,,,,,,,,1482,66,52,1,0,0,response1disk,,6,-3,3,1,0,0,rectangle,-3,3,1,0,0,-3,3,1,0,0,1,22,182,136,1,,,,,,,,
,,,,,,,,,,,,,FF,,,,,,,,0.5662,,,,,,,,,,,,,,,,,,,,,,60fe0836d3261a80cb413737,610378f5a2fda81102253075,2021-07-30_00h00.09.334,Simcolourproject_2stim_asymm_v5,2020.2.10,Win32,60,61025ae37ef11b136ea224fe,,,,,,,,,2448,42,-49,1,0,0,response3disk,,4,-2,-10,1,0,0,rectangle,-2,-10,1,0,0,-2,-10,1,0,0,1,23,183,51,1,,,,,,,,
,,,,,,,,,,,,,FF,,,,,,,,0.8466,,,,,,,,,,,,,,,,,,,,,,60fe0836d3261a80cb413737,610378f5a2fda81102253075,2021-07-30_00h00.09.334,Simcolourproject_2stim_asymm_v5,2020.2.10,Win32,60,61025ae37ef11b136ea224fe,,,,,,,,,1535,-49,17,1,0,0,response7disk,,1,-4,4,1,0,0,rectangle,-4,4,1,0,0,-4,4,1,0,0,1,24,184,26,1,,,,,,,,
,,,,,,,,,,,,,FF,,,,,,,,0.6997,,,,,,,,,,,,,,,,,,,,,,60fe0836d3261a80cb413737,610378f5a2fda81102253075,2021-07-30_00h00.09.334,Simcolourproject_2stim_asymm_v5,2020.2.10,Win32,60,61025ae37ef11b136ea224fe,,,,,,,,,2845,62,43,1,0,0,response1disk,,6,-6,6,1,0,0,rectangle,-6,6,1,0,0,-6,6,1,0,0,1,25,185,14,1,,,,,,,,
,,,,,,,,,,,,,FF,,,,,,,,0.5527,,,,,,,,,,,,,,,,,,,,,,60fe0836d3261a80cb413737,610378f5a2fda81102253075,2021-07-30_00h00.09.334,Simcolourproject_2stim_asymm_v5,2020.2.10,Win32,60,61025ae37ef11b136ea224fe,,,,,,,,,2750,45,-27,1,0,0,response3disk,,5,-19,-8,1,0,0,rectangle,-19,-8,1,0,0,-19,-8,1,0,0,1,26,186,148,1,,,,,,,,
,,,,,,,,,,,,,FF,,,,,,,,0.8159,,,,,,,,,,,,,,,,,,,,,,60fe0836d3261a80cb413737,610378f5a2fda81102253075,2021-07-30_00h00.09.334,Simcolourproject_2stim_asymm_v5,2020.2.10,Win32,60,61025ae37ef11b136ea224fe,,,,,,,,,522,-67,-53,1,0,0,response5disk,,2,5,-5,1,0,0,rectangle,5,-5,1,0,0,5,-5,1,0,0,1,27,187,128,1,,,,,,,,
,,,,,,,,,,,,,FF,,,,,,,,1.0474,,,,,,,,,,,,,,,,,,,,,,60fe0836d3261a80cb413737,610378f5a2fda81102253075,2021-07-30_00h00.09.334,Simcolourproject_2stim_asymm_v5,2020.2.10,Win32,60,61025ae37ef11b136ea224fe,,,,,,,,,545,-54,38,1,0,0,response7disk,,1,27,12,1,0,0,rectangle,27,12,1,0,0,27,12,1,0,0,1,28,188,94,1,,,,,,,,
,,,,,,,,,,,,,FF,,,,,,,,1.2182,,,,,,,,,,,,,,,,,,,,,,60fe0836d3261a80cb413737,610378f5a2fda81102253075,2021-07-30_00h00.09.334,Simcolourproject_2stim_asymm_v5,2020.2.10,Win32,60,61025ae37ef11b136ea224fe,,,,,,,,,1751,-70,-42,1,0,0,response5disk,,2,1,2,1,0,0,rectangle,1,2,1,0,0,1,2,1,0,0,1,29,189,42,1,,,,,,,,
,,,,,,,,,,,,,FF,,,,,,,,1.3485,,,,,,,,,,,,,,,,,,,,,,60fe0836d3261a80cb413737,610378f5a2fda81102253075,2021-07-30_00h00.09.334,Simcolourproject_2stim_asymm_v5,2020.2.10,Win32,60,61025ae37ef11b136ea224fe,,,,,,,,,763,30,55,1,0,0,response1disk,,7,-4,11,1,0,0,rectangle,-4,11,1,0,0,-4,11,1,0,0,1,30,190,35,1,,,,,,,,
,,,,,,,,,,,,,FF,,,,,,,,0.7488,,,,,,,,,,,,,,,,,,,,,,60fe0836d3261a80cb413737,610378f5a2fda81102253075,2021-07-30_00h00.09.334,Simcolourproject_2stim_asymm_v5,2020.2.10,Win32,60,61025ae37ef11b136ea224fe,,,,,,,,,2903,-32,-48,1,0,0,response5disk,,3,-12,2,1,0,0,rectangle,-12,2,1,0,0,-12,2,1,0,0,1,31,191,145,1,,,,,,,,
,,,,,,,,,,,,,FF,,,,,,,,0.8991,,,,,,,,,,,,,,,,,,,,,,60fe0836d3261a80cb413737,610378f5a2fda81102253075,2021-07-30_00h00.09.334,Simcolourproject_2stim_asymm_v5,2020.2.10,Win32,60,61025ae37ef11b136ea224fe,,,,,,,,,1709,30,77,1,0,0,response1disk,,7,-1,-6,1,0,0,rectangle,-1,-6,1,0,0,-1,-6,1,0,0,1,32,192,64,1,,,,,,,,
,,,,,,,,,,,,,FF,,,,,,,,1.2785,,,,,,,,,,,,,,,,,,,,,,60fe0836d3261a80cb413737,610378f5a2fda81102253075,2021-07-30_00h00.09.334,Simcolourproject_2stim_asymm_v5,2020.2.10,Win32,60,61025ae37ef11b136ea224fe,,,,,,,,,3704,-70,23,1,0,0,response7disk,,1,-12,6,1,0,0,rectangle,-12,6,1,0,0,-12,6,1,0,0,1,33,193,32,1,,,,,,,,
,,,,,,,,,,,,,FF,,,,,,,,0.7156,,,,,,,,,,,,,,,,,,,,,,60fe0836d3261a80cb413737,610378f5a2fda81102253075,2021-07-30_00h00.09.334,Simcolourproject_2stim_asymm_v5,2020.2.10,Win32,60,61025ae37ef11b136ea224fe,,,,,,,,,2756,90,-19,1,0,0,response3disk,,5,-24,-6,1,0,0,rectangle,-24,-6,1,0,0,-24,-6,1,0,0,1,34,194,121,1,,,,,,,,
,,,,,,,,,,,,,FF,,,,,,,,0.6983,,,,,,,,,,,,,,,,,,,,,,60fe0836d3261a80cb413737,610378f5a2fda81102253075,2021-07-30_00h00.09.334,Simcolourproject_2stim_asymm_v5,2020.2.10,Win32,60,61025ae37ef11b136ea224fe,,,,,,,,,1805,-28,-47,1,0,0,response5disk,,3,-10,4,1,0,0,rectangle,-10,4,1,0,0,-10,4,1,0,0,1,35,195,76,1,,,,,,,,
,,,,,,,,,,,,,FF,,,,,,,,0.8815,,,,,,,,,,,,,,,,,,,,,,60fe0836d3261a80cb413737,610378f5a2fda81102253075,2021-07-30_00h00.09.334,Simcolourproject_2stim_asymm_v5,2020.2.10,Win32,60,61025ae37ef11b136ea224fe,,,,,,,,,3699,-69,-27,1,0,0,response5disk,,2,-6,2,1,0,0,rectangle,-6,2,1,0,0,-6,2,1,0,0,1,36,196,96,1,,,,,,,,
,,,,,,,,,,,,,FF,,,,,,,,1.695,,,,,,,,,,,,,,,,,,,,,,60fe0836d3261a80cb413737,610378f5a2fda81102253075,2021-07-30_00h00.09.334,Simcolourproject_2stim_asymm_v5,2020.2.10,Win32,60,61025ae37ef11b136ea224fe,,,,,,,,,3392,46,40,1,0,0,response1disk,,6,2,-2,1,0,0,rectangle,2,-2,1,0,0,2,-2,1,0,0,1,37,197,73,1,,,,,,,,
,,,,,,,,,,,,,FF,,,,,,,,5.2609,,,,,,,,,,,,,,,,,,,,,,60fe0836d3261a80cb413737,610378f5a2fda81102253075,2021-07-30_00h00.09.334,Simcolourproject_2stim_asymm_v5,2020.2.10,Win32,60,61025ae37ef11b136ea224fe,,,,,,,,,2489,51,-68,1,0,0,response3disk,,4,10,-6,1,0,0,rectangle,10,-6,1,0,0,10,-6,1,0,0,1,38,198,6,1,,,,,,,,
,,,,,,,,,,,,,FF,,,,,,,,0.697,,,,,,,,,,,,,,,,,,,,,,60fe0836d3261a80cb413737,610378f5a2fda81102253075,2021-07-30_00h00.09.334,Simcolourproject_2stim_asymm_v5,2020.2.10,Win32,60,61025ae37ef11b136ea224fe,,,,,,,,,1410,76,-39,1,0,0,response3disk,,5,1,6,1,0,0,rectangle,1,6,1,0,0,1,6,1,0,0,1,39,199,8,1,,,,,,,,
,,,,,,,,,,,,,FF,,,,,,,,0.9816,,,,,,,,,,,,,,,,,,,,,,60fe0836d3261a80cb413737,610378f5a2fda81102253075,2021-07-30_00h00.09.334,Simcolourproject_2stim_asymm_v5,2020.2.10,Win32,60,61025ae37ef11b136ea224fe,,,,,,,,,2965,73,30,1,0,0,response1disk,,6,-3,-8,1,0,0,rectangle,-3,-8,1,0,0,-3,-8,1,0,0,1,40,200,122,1,,,,,,,,
,,,,,,,,,,,,,FF,,,,,,,,0.6157,,,,,,,,,,,,,,,,,,,,,,60fe0836d3261a80cb413737,610378f5a2fda81102253075,2021-07-30_00h00.09.334,Simcolourproject_2stim_asymm_v5,2020.2.10,Win32,60,61025ae37ef11b136ea224fe,,,,,,,,,3830,62,-43,1,0,0,response3disk,,5,-1,-8,1,0,0,rectangle,-1,-8,1,0,0,-1,-8,1,0,0,1,41,201,82,1,,,,,,,,
,,,,,,,,,,,,,FF,,,,,,,,0.6128,,,,,,,,,,,,,,,,,,,,,,60fe0836d3261a80cb413737,610378f5a2fda81102253075,2021-07-30_00h00.09.334,Simcolourproject_2stim_asymm_v5,2020.2.10,Win32,60,61025ae37ef11b136ea224fe,,,,,,,,,2126,70,105,1,0,0,response1disk,,7,-5,2,1,0,0,rectangle,-5,2,1,0,0,-5,2,1,0,0,1,42,202,25,1,,,,,,,,
,,,,,,,,,,,,,FF,,,,,,,,0.6993,,,,,,,,,,,,,,,,,,,,,,60fe0836d3261a80cb413737,610378f5a2fda81102253075,2021-07-30_00h00.09.334,Simcolourproject_2stim_asymm_v5,2020.2.10,Win32,60,61025ae37ef11b136ea224fe,,,,,,,,,288,58,-36,1,0,0,response3disk,,5,17,-9,1,0,0,rectangle,17,-9,1,0,0,17,-9,1,0,0,1,43,203,48,1,,,,,,,,
,,,,,,,,,,,,,FF,,,,,,,,0.6498,,,,,,,,,,,,,,,,,,,,,,60fe0836d3261a80cb413737,610378f5a2fda81102253075,2021-07-30_00h00.09.334,Simcolourproject_2stim_asymm_v5,2020.2.10,Win32,60,61025ae37ef11b136ea224fe,,,,,,,,,3500,20,-44,1,0,0,response3disk,,4,-4,2,1,0,0,rectangle,-4,2,1,0,0,-4,2,1,0,0,1,44,204,151,1,,,,,,,,
,,,,,,,,,,,,,FF,,,,,,,,0.6487,,,,,,,,,,,,,,,,,,,,,,60fe0836d3261a80cb413737,610378f5a2fda81102253075,2021-07-30_00h00.09.334,Simcolourproject_2stim_asymm_v5,2020.2.10,Win32,60,61025ae37ef11b136ea224fe,,,,,,,,,2483,-40,-69,1,0,0,response5disk,,3,-5,3,1,0,0,rectangle,-5,3,1,0,0,-5,3,1,0,0,1,45,205,114,1,,,,,,,,
,,,,,,,,,,,,,FF,,,,,,,,0.7632,,,,,,,,,,,,,,,,,,,,,,60fe0836d3261a80cb413737,610378f5a2fda81102253075,2021-07-30_00h00.09.334,Simcolourproject_2stim_asymm_v5,2020.2.10,Win32,60,61025ae37ef11b136ea224fe,,,,,,,,,837,80,-30,1,0,0,response3disk,,5,0,5,1,0,0,rectangle,0,5,1,0,0,0,5,1,0,0,1,46,206,130,1,,,,,,,,
,,,,,,,,,,,,,FF,,,,,,,,1.0327,,,,,,,,,,,,,,,,,,,,,,60fe0836d3261a80cb413737,610378f5a2fda81102253075,2021-07-30_00h00.09.334,Simcolourproject_2stim_asymm_v5,2020.2.10,Win32,60,61025ae37ef11b136ea224fe,,,,,,,,,3423,-65,-38,1,0,0,response5disk,,2,7,14,1,0,0,rectangle,7,14,1,0,0,7,14,1,0,0,1,47,207,98,1,,,,,,,,
,,,,,,,,,,,,,FF,,,,,,,,0.915,,,,,,,,,,,,,,,,,,,,,,60fe0836d3261a80cb413737,610378f5a2fda81102253075,2021-07-30_00h00.09.334,Simcolourproject_2stim_asymm_v5,2020.2.10,Win32,60,61025ae37ef11b136ea224fe,,,,,,,,,436,-56,64,1,0,0,response7disk,,0,-4,7,1,0,0,rectangle,-4,7,1,0,0,-4,7,1,0,0,1,48,208,84,1,,,,,,,,
,,,,,,,,,,,,,FF,,,,,,,,0.7994,,,,,,,,,,,,,,,,,,,,,,60fe0836d3261a80cb413737,610378f5a2fda81102253075,2021-07-30_00h00.09.334,Simcolourproject_2stim_asymm_v5,2020.2.10,Win32,60,61025ae37ef11b136ea224fe,,,,,,,,,721,-68,36,1,0,0,response7disk,,1,13,-1,1,0,0,rectangle,13,-1,1,0,0,13,-1,1,0,0,1,49,209,67,1,,,,,,,,
,,,,,,,,,,,,,FF,,,,,,,,0.7492,,,,,,,,,,,,,,,,,,,,,,60fe0836d3261a80cb413737,610378f5a2fda81102253075,2021-07-30_00h00.09.334,Simcolourproject_2stim_asymm_v5,2020.2.10,Win32,60,61025ae37ef11b136ea224fe,,,,,,,,,3543,-59,-24,1,0,0,response5disk,,2,10,7,1,0,0,rectangle,10,7,1,0,0,10,7,1,0,0,1,50,210,69,1,,,,,,,,
,,,,,,,,,,,,,FF,,,,,,,,0.7833,,,,,,,,,,,,,,,,,,,,,,60fe0836d3261a80cb413737,610378f5a2fda81102253075,2021-07-30_00h00.09.334,Simcolourproject_2stim_asymm_v5,2020.2.10,Win32,60,61025ae37ef11b136ea224fe,,,,,,,,,2212,50,68,1,0,0,response1disk,,7,4,5,1,0,0,rectangle,4,5,1,0,0,4,5,1,0,0,1,51,211,10,1,,,,,,,,
,,,,,,,,,,,,,FF,,,,,,,,1.1313,,,,,,,,,,,,,,,,,,,,,,60fe0836d3261a80cb413737,610378f5a2fda81102253075,2021-07-30_00h00.09.334,Simcolourproject_2stim_asymm_v5,2020.2.10,Win32,60,61025ae37ef11b136ea224fe,,,,,,,,,3113,-34,-63,1,0,0,response5disk,,3,-10,-7,1,0,0,rectangle,-10,-7,1,0,0,-10,-7,1,0,0,1,52,212,0,1,,,,,,,,
,,,,,,,,,,,,,FF,,,,,,,,0.734,,,,,,,,,,,,,,,,,,,,,,60fe0836d3261a80cb413737,610378f5a2fda81102253075,2021-07-30_00h00.09.334,Simcolourproject_2stim_asymm_v5,2020.2.10,Win32,60,61025ae37ef11b136ea224fe,,,,,,,,,2146,38,53,1,0,0,response1disk,,7,-16,-12,1,0,0,rectangle,-16,-12,1,0,0,-16,-12,1,0,0,1,53,213,139,1,,,,,,,,
,,,,,,,,,,,,,FF,,,,,,,,0.7818,,,,,,,,,,,,,,,,,,,,,,60fe0836d3261a80cb413737,610378f5a2fda81102253075,2021-07-30_00h00.09.334,Simcolourproject_2stim_asymm_v5,2020.2.10,Win32,60,61025ae37ef11b136ea224fe,,,,,,,,,524,-27,-68,1,0,0,response5disk,,3,0,-2,1,0,0,rectangle,0,-2,1,0,0,0,-2,1,0,0,1,54,214,19,1,,,,,,,,
,,,,,,,,,,,,,FF,,,,,,,,1.1309,,,,,,,,,,,,,,,,,,,,,,60fe0836d3261a80cb413737,610378f5a2fda81102253075,2021-07-30_00h00.09.334,Simcolourproject_2stim_asymm_v5,2020.2.10,Win32,60,61025ae37ef11b136ea224fe,,,,,,,,,2977,69,25,1,0,0,response1disk,,6,3,-2,1,0,0,rectangle,3,-2,1,0,0,3,-2,1,0,0,1,55,215,158,1,,,,,,,,
,,,,,,,,,,,,,FF,,,,,,,,1.4153,,,,,,,,,,,,,,,,,,,,,,60fe0836d3261a80cb413737,610378f5a2fda81102253075,2021-07-30_00h00.09.334,Simcolourproject_2stim_asymm_v5,2020.2.10,Win32,60,61025ae37ef11b136ea224fe,,,,,,,,,3768,31,-72,1,0,0,response3disk,,4,5,-2,1,0,0,rectangle,5,-2,1,0,0,5,-2,1,0,0,1,56,216,92,1,,,,,,,,
,,,,,,,,,,,,,FF,,,,,,,,0.6649,,,,,,,,,,,,,,,,,,,,,,60fe0836d3261a80cb413737,610378f5a2fda81102253075,2021-07-30_00h00.09.334,Simcolourproject_2stim_asymm_v5,2020.2.10,Win32,60,61025ae37ef11b136ea224fe,,,,,,,,,2889,47,-15,1,0,0,response3disk,,5,18,-6,1,0,0,rectangle,18,-6,1,0,0,18,-6,1,0,0,1,57,217,135,1,,,,,,,,
,,,,,,,,,,,,,FF,,,,,,,,0.8162,,,,,,,,,,,,,,,,,,,,,,60fe0836d3261a80cb413737,610378f5a2fda81102253075,2021-07-30_00h00.09.334,Simcolourproject_2stim_asymm_v5,2020.2.10,Win32,60,61025ae37ef11b136ea224fe,,,,,,,,,1559,40,-15,1,0,0,response3disk,,5,20,-9,1,0,0,rectangle,20,-9,1,0,0,20,-9,1,0,0,1,58,218,120,1,,,,,,,,
,,,,,,,,,,,,,FF,,,,,,,,1.0678,,,,,,,,,,,,,,,,,,,,,,60fe0836d3261a80cb413737,610378f5a2fda81102253075,2021-07-30_00h00.09.334,Simcolourproject_2stim_asymm_v5,2020.2.10,Win32,60,61025ae37ef11b136ea224fe,,,,,,,,,872,78,-25,1,0,0,response3disk,,5,4,8,1,0,0,rectangle,4,8,1,0,0,4,8,1,0,0,1,59,219,22,1,,,,,,,,
,,,,,,,,,,,,,FF,,,,,,,,0.7852,,,,,,,,,,,,,,,,,,,,,,60fe0836d3261a80cb413737,610378f5a2fda81102253075,2021-07-30_00h00.09.334,Simcolourproject_2stim_asymm_v5,2020.2.10,Win32,60,61025ae37ef11b136ea224fe,,,,,,,,,2099,-49,46,1,0,0,response7disk,,1,-2,9,1,0,0,rectangle,-2,9,1,0,0,-2,9,1,0,0,1,60,220,13,1,,,,,,,,
,,,,,,,,,,,,,FF,,,,,,,,0.7491,,,,,,,,,,,,,,,,,,,,,,60fe0836d3261a80cb413737,610378f5a2fda81102253075,2021-07-30_00h00.09.334,Simcolourproject_2stim_asymm_v5,2020.2.10,Win32,60,61025ae37ef11b136ea224fe,,,,,,,,,3264,46,25,1,0,0,response1disk,,6,2,-5,1,0,0,rectangle,2,-5,1,0,0,2,-5,1,0,0,1,61,221,54,1,,,,,,,,
,,,,,,,,,,,,,FF,,,,,,,,0.7152,,,,,,,,,,,,,,,,,,,,,,60fe0836d3261a80cb413737,610378f5a2fda81102253075,2021-07-30_00h00.09.334,Simcolourproject_2stim_asymm_v5,2020.2.10,Win32,60,61025ae37ef11b136ea224fe,,,,,,,,,257,-47,-30,1,0,0,response5disk,,2,-9,-5,1,0,0,rectangle,-9,-5,1,0,0,-9,-5,1,0,0,1,62,222,43,1,,,,,,,,
,,,,,,,,,,,,,FF,,,,,,,,0.7663,,,,,,,,,,,,,,,,,,,,,,60fe0836d3261a80cb413737,610378f5a2fda81102253075,2021-07-30_00h00.09.334,Simcolourproject_2stim_asymm_v5,2020.2.10,Win32,60,61025ae37ef11b136ea224fe,,,,,,,,,3415,62,-28,1,0,0,response3disk,,5,14,-15,1,0,0,rectangle,14,-15,1,0,0,14,-15,1,0,0,1,63,223,133,1,,,,,,,,
,,,,,,,,,,,,,FF,,,,,,,,0.7178,,,,,,,,,,,,,,,,,,,,,,60fe0836d3261a80cb413737,610378f5a2fda81102253075,2021-07-30_00h00.09.334,Simcolourproject_2stim_asymm_v5,2020.2.10,Win32,60,61025ae37ef11b136ea224fe,,,,,,,,,2567,22,72,1,0,0,response1disk,,7,10,0,1,0,0,rectangle,10,0,1,0,0,10,0,1,0,0,1,64,224,39,1,,,,,,,,
,,,,,,,,,,,,,FF,,,,,,,,1.4312,,,,,,,,,,,,,,,,,,,,,,60fe0836d3261a80cb413737,610378f5a2fda81102253075,2021-07-30_00h00.09.334,Simcolourproject_2stim_asymm_v5,2020.2.10,Win32,60,61025ae37ef11b136ea224fe,,,,,,,,,2341,58,-26,1,0,0,response3disk,,5,14,-1,1,0,0,rectangle,14,-1,1,0,0,14,-1,1,0,0,1,65,225,91,1,,,,,,,,
,,,,,,,,,,,,,FF,,,,,,,,1.0326,,,,,,,,,,,,,,,,,,,,,,60fe0836d3261a80cb413737,610378f5a2fda81102253075,2021-07-30_00h00.09.334,Simcolourproject_2stim_asymm_v5,2020.2.10,Win32,60,61025ae37ef11b136ea224fe,,,,,,,,,683,73,-17,1,0,0,response3disk,,5,-1,11,1,0,0,rectangle,-1,11,1,0,0,-1,11,1,0,0,1,66,226,49,1,,,,,,,,
,,,,,,,,,,,,,FF,,,,,,,,0.7487,,,,,,,,,,,,,,,,,,,,,,60fe0836d3261a80cb413737,610378f5a2fda81102253075,2021-07-30_00h00.09.334,Simcolourproject_2stim_asymm_v5,2020.2.10,Win32,60,61025ae37ef11b136ea224fe,,,,,,,,,946,48,17,1,0,0,response1disk,,6,4,-11,1,0,0,rectangle,-45,-46,1,0,0,9,2,1,0,0,1,67,227,75,1,,response5disk_3,TRUE,3,2,"[60,143,286,316,313,43,4,94,115,228,90,276,270,83,259,20,107,8,173,289]",1.6475,rectangle
,,,,,,,,,,,,,FF,,,,,,,,0.8131,,,,,,,,,,,,,,,,,,,,,,60fe0836d3261a80cb413737,610378f5a2fda81102253075,2021-07-30_00h00.09.334,Simcolourproject_2stim_asymm_v5,2020.2.10,Win32,60,61025ae37ef11b136ea224fe,,,,,,,,,2238,-28,-43,1,0,0,response5disk,,3,-13,9,1,0,0,rectangle,-13,9,1,0,0,-13,9,1,0,0,1,68,228,140,1,,,,,,,,
,,,,,,,,,,,,,FF,,,,,,,,0.615,,,,,,,,,,,,,,,,,,,,,,60fe0836d3261a80cb413737,610378f5a2fda81102253075,2021-07-30_00h00.09.334,Simcolourproject_2stim_asymm_v5,2020.2.10,Win32,60,61025ae37ef11b136ea224fe,,,,,,,,,1716,52,-30,1,0,0,response3disk,,5,-3,9,1,0,0,rectangle,-3,9,1,0,0,-3,9,1,0,0,1,69,229,36,1,,,,,,,,
,,,,,,,,,,,,,FF,,,,,,,,0.7655,,,,,,,,,,,,,,,,,,,,,,60fe0836d3261a80cb413737,610378f5a2fda81102253075,2021-07-30_00h00.09.334,Simcolourproject_2stim_asymm_v5,2020.2.10,Win32,60,61025ae37ef11b136ea224fe,,,,,,,,,1027,80,40,1,0,0,response1disk,,6,1,-8,1,0,0,rectangle,1,-8,1,0,0,1,-8,1,0,0,1,70,230,104,1,,,,,,,,
,,,,,,,,,,,,,FF,,,,,,,,0.6826,,,,,,,,,,,,,,,,,,,,,,60fe0836d3261a80cb413737,610378f5a2fda81102253075,2021-07-30_00h00.09.334,Simcolourproject_2stim_asymm_v5,2020.2.10,Win32,60,61025ae37ef11b136ea224fe,,,,,,,,,959,51,39,1,0,0,response1disk,,6,4,1,1,0,0,rectangle,4,1,1,0,0,4,1,1,0,0,1,71,231,37,1,,,,,,,,
,,,,,,,,,,,,,FF,,,,,,,,0.7665,,,,,,,,,,,,,,,,,,,,,,60fe0836d3261a80cb413737,610378f5a2fda81102253075,2021-07-30_00h00.09.334,Simcolourproject_2stim_asymm_v5,2020.2.10,Win32,60,61025ae37ef11b136ea224fe,,,,,,,,,1756,-63,-34,1,0,0,response5disk,,2,-2,9,1,0,0,rectangle,-2,9,1,0,0,-2,9,1,0,0,1,72,232,23,1,,,,,,,,
,,,,,,,,,,,,,FF,,,,,,,,1.0125,,,,,,,,,,,,,,,,,,,,,,60fe0836d3261a80cb413737,610378f5a2fda81102253075,2021-07-30_00h00.09.334,Simcolourproject_2stim_asymm_v5,2020.2.10,Win32,60,61025ae37ef11b136ea224fe,,,,,,,,,3115,-39,-64,1,0,0,response5disk,,3,0,14,1,0,0,rectangle,0,14,1,0,0,0,14,1,0,0,1,73,233,101,1,,,,,,,,
,,,,,,,,,,,,,FF,,,,,,,,0.8815,,,,,,,,,,,,,,,,,,,,,,60fe0836d3261a80cb413737,610378f5a2fda81102253075,2021-07-30_00h00.09.334,Simcolourproject_2stim_asymm_v5,2020.2.10,Win32,60,61025ae37ef11b136ea224fe,,,,,,,,,2046,-41,-40,1,0,0,response5disk,,2,13,6,1,0,0,rectangle,13,6,1,0,0,13,6,1,0,0,1,74,234,11,1,,,,,,,,
,,,,,,,,,,,,,FF,,,,,,,,0.8321,,,,,,,,,,,,,,,,,,,,,,60fe0836d3261a80cb413737,610378f5a2fda81102253075,2021-07-30_00h00.09.334,Simcolourproject_2stim_asymm_v5,2020.2.10,Win32,60,61025ae37ef11b136ea224fe,,,,,,,,,3302,69,-39,1,0,0,response3disk,,5,0,7,1,0,0,rectangle,0,7,1,0,0,0,7,1,0,0,1,75,235,72,1,,,,,,,,
,,,,,,,,,,,,,FF,,,,,,,,1.1353,,,,,,,,,,,,,,,,,,,,,,60fe0836d3261a80cb413737,610378f5a2fda81102253075,2021-07-30_00h00.09.334,Simcolourproject_2stim_asymm_v5,2020.2.10,Win32,60,61025ae37ef11b136ea224fe,,,,,,,,,252,25,-62,1,0,0,response3disk,,4,-15,2,1,0,0,rectangle,-15,2,1,0,0,-15,2,1,0,0,1,76,236,119,1,,,,,,,,
,,,,,,,,,,,,,FF,,,,,,,,0.7322,,,,,,,,,,,,,,,,,,,,,,60fe0836d3261a80cb413737,610378f5a2fda81102253075,2021-07-30_00h00.09.334,Simcolourproject_2stim_asymm_v5,2020.2.10,Win32,60,61025ae37ef11b136ea224fe,,,,,,,,,2382,41,29,1,0,0,response1disk,,6,5,2,1,0,0,rectangle,5,2,1,0,0,5,2,1,0,0,1,77,237,93,1,,,,,,,,
,,,,,,,,,,,,,FF,,,,,,,,0.7979,,,,,,,,,,,,,,,,,,,,,,60fe0836d3261a80cb413737,610378f5a2fda81102253075,2021-07-30_00h00.09.334,Simcolourproject_2stim_asymm_v5,2020.2.10,Win32,60,61025ae37ef11b136ea224fe,,,,,,,,,1487,55,62,1,0,0,response1disk,,7,11,-6,1,0,0,rectangle,11,-6,1,0,0,11,-6,1,0,0,1,78,238,127,1,,,,,,,,
,,,,,,,,,,,,,FF,,,,,,,,1.0011,,,,,,,,,,,,,,,,,,,,,,60fe0836d3261a80cb413737,610378f5a2fda81102253075,2021-07-30_00h00.09.334,Simcolourproject_2stim_asymm_v5,2020.2.10,Win32,60,61025ae37ef11b136ea224fe,,,,,,,,,3900,59,49,1,0,0,response1disk,,6,22,15,1,0,0,rectangle,22,15,1,0,0,22,15,1,0,0,1,79,239,44,1,,,,,,,,
,,,,,,,,,,,,,FF,,,,,,,,0.699,,,,,,,,,,,,,,,,,,,,,,60fe0836d3261a80cb413737,610378f5a2fda81102253075,2021-07-30_00h00.09.334,Simcolourproject_2stim_asymm_v5,2020.2.10,Win32,60,61025ae37ef11b136ea224fe,,,,,,,,,596,43,50,1,0,0,response1disk,,7,22,14,1,0,0,rectangle,22,14,1,0,0,22,14,1,0,0,1,80,240,131,1,,,,,,,,
,,,,,,,,,,,,,FF,,,,,,,,0.7985,,,,,,,,,,,,,,,,,,,,,,60fe0836d3261a80cb413737,610378f5a2fda81102253075,2021-07-30_00h00.09.334,Simcolourproject_2stim_asymm_v5,2020.2.10,Win32,60,61025ae37ef11b136ea224fe,,,,,,,,,283,23,-48,1,0,0,response3disk,,4,9,-4,1,0,0,rectangle,9,-4,1,0,0,9,-4,1,0,0,1,81,241,38,1,,,,,,,,
,,,,,,,,,,,,,FF,,,,,,,,0.7494,,,,,,,,,,,,,,,,,,,,,,60fe0836d3261a80cb413737,610378f5a2fda81102253075,2021-07-30_00h00.09.334,Simcolourproject_2stim_asymm_v5,2020.2.10,Win32,60,61025ae37ef11b136ea224fe,,,,,,,,,1307,-58,-51,1,0,0,response5disk,,2,6,-8,1,0,0,rectangle,6,-8,1,0,0,6,-8,1,0,0,1,82,242,102,1,,,,,,,,
,,,,,,,,,,,,,FF,,,,,,,,0.9316,,,,,,,,,,,,,,,,,,,,,,60fe0836d3261a80cb413737,610378f5a2fda81102253075,2021-07-30_00h00.09.334,Simcolourproject_2stim_asymm_v5,2020.2.10,Win32,60,61025ae37ef11b136ea224fe,,,,,,,,,2164,-55,-42,1,0,0,response5disk,,2,2,6,1,0,0,rectangle,2,6,1,0,0,2,6,1,0,0,1,83,243,65,1,,,,,,,,
,,,,,,,,,,,,,FF,,,,,,,,1.4159,,,,,,,,,,,,,,,,,,,,,,60fe0836d3261a80cb413737,610378f5a2fda81102253075,2021-07-30_00h00.09.334,Simcolourproject_2stim_asymm_v5,2020.2.10,Win32,60,61025ae37ef11b136ea224fe,,,,,,,,,446,36,-83,1,0,0,response3disk,,4,-8,-2,1,0,0,rectangle,-8,-2,1,0,0,-8,-2,1,0,0,1,84,244,83,1,,,,,,,,
,,,,,,,,,,,,,FF,,,,,,,,0.8627,,,,,,,,,,,,,,,,,,,,,,60fe0836d3261a80cb413737,610378f5a2fda81102253075,2021-07-30_00h00.09.334,Simcolourproject_2stim_asymm_v5,2020.2.10,Win32,60,61025ae37ef11b136ea224fe,,,,,,,,,3374,50,-25,1,0,0,response3disk,,5,15,0,1,0,0,rectangle,15,0,1,0,0,15,0,1,0,0,1,85,245,134,1,,,,,,,,
,,,,,,,,,,,,,FF,,,,,,,,0.6486,,,,,,,,,,,,,,,,,,,,,,60fe0836d3261a80cb413737,610378f5a2fda81102253075,2021-07-30_00h00.09.334,Simcolourproject_2stim_asymm_v5,2020.2.10,Win32,60,61025ae37ef11b136ea224fe,,,,,,,,,3134,45,-21,1,0,0,response3disk,,5,5,7,1,0,0,rectangle,5,7,1,0,0,5,7,1,0,0,1,86,246,100,1,,,,,,,,
,,,,,,,,,,,,,FF,,,,,,,,0.7129,,,,,,,,,,,,,,,,,,,,,,60fe0836d3261a80cb413737,610378f5a2fda81102253075,2021-07-30_00h00.09.334,Simcolourproject_2stim_asymm_v5,2020.2.10,Win32,60,61025ae37ef11b136ea224fe,,,,,,,,,3611,57,-27,1,0,0,response3disk,,5,15,1,1,0,0,rectangle,15,1,1,0,0,15,1,1,0,0,1,87,247,47,1,,,,,,,,
,,,,,,,,,,,,,FF,,,,,,,,1.3482,,,,,,,,,,,,,,,,,,,,,,60fe0836d3261a80cb413737,610378f5a2fda81102253075,2021-07-30_00h00.09.334,Simcolourproject_2stim_asymm_v5,2020.2.10,Win32,60,61025ae37ef11b136ea224fe,,,,,,,,,1200,71,-30,1,0,0,response3disk,,5,18,2,1,0,0,rectangle,18,2,1,0,0,18,2,1,0,0,1,88,248,159,1,,,,,,,,
,,,,,,,,,,,,,FF,,,,,,,,0.7668,,,,,,,,,,,,,,,,,,,,,,60fe0836d3261a80cb413737,610378f5a2fda81102253075,2021-07-30_00h00.09.334,Simcolourproject_2stim_asymm_v5,2020.2.10,Win32,60,61025ae37ef11b136ea224fe,,,,,,,,,2636,63,31,1,0,0,response1disk,,6,-5,-8,1,0,0,rectangle,-5,-8,1,0,0,-5,-8,1,0,0,1,89,249,155,1,,,,,,,,
,,,,,,,,,,,,,FF,,,,,,,,0.7186,,,,,,,,,,,,,,,,,,,,,,60fe0836d3261a80cb413737,610378f5a2fda81102253075,2021-07-30_00h00.09.334,Simcolourproject_2stim_asymm_v5,2020.2.10,Win32,60,61025ae37ef11b136ea224fe,,,,,,,,,2999,-35,-59,1,0,0,response5disk,,3,-2,11,1,0,0,rectangle,-2,11,1,0,0,-2,11,1,0,0,1,90,250,90,1,,,,,,,,
,,,,,,,,,,,,,FF,,,,,,,,0.8489,,,,,,,,,,,,,,,,,,,,,,60fe0836d3261a80cb413737,610378f5a2fda81102253075,2021-07-30_00h00.09.334,Simcolourproject_2stim_asymm_v5,2020.2.10,Win32,60,61025ae37ef11b136ea224fe,,,,,,,,,2960,52,41,1,0,0,response1disk,,6,5,8,1,0,0,rectangle,5,8,1,0,0,5,8,1,0,0,1,91,251,149,1,,,,,,,,
,,,,,,,,,,,,,FF,,,,,,,,0.8455,,,,,,,,,,,,,,,,,,,,,,60fe0836d3261a80cb413737,610378f5a2fda81102253075,2021-07-30_00h00.09.334,Simcolourproject_2stim_asymm_v5,2020.2.10,Win32,60,61025ae37ef11b136ea224fe,,,,,,,,,3270,27,66,1,0,0,response1disk,,7,10,2,1,0,0,rectangle,10,2,1,0,0,10,2,1,0,0,1,92,252,31,1,,,,,,,,
,,,,,,,,,,,,,FF,,,,,,,,0.8816,,,,,,,,,,,,,,,,,,,,,,60fe0836d3261a80cb413737,610378f5a2fda81102253075,2021-07-30_00h00.09.334,Simcolourproject_2stim_asymm_v5,2020.2.10,Win32,60,61025ae37ef11b136ea224fe,,,,,,,,,4046,-32,66,1,0,0,response7disk,,0,3,5,1,0,0,rectangle,3,5,1,0,0,3,5,1,0,0,1,93,253,109,1,,,,,,,,
,,,,,,,,,,,,,FF,,,,,,,,0.8827,,,,,,,,,,,,,,,,,,,,,,60fe0836d3261a80cb413737,610378f5a2fda81102253075,2021-07-30_00h00.09.334,Simcolourproject_2stim_asymm_v5,2020.2.10,Win32,60,61025ae37ef11b136ea224fe,,,,,,,,,3861,-32,-51,1,0,0,response5disk,,3,1,5,1,0,0,rectangle,1,5,1,0,0,1,5,1,0,0,1,94,254,79,1,,,,,,,,
,,,,,,,,,,,,,FF,,,,,,,,0.8645,,,,,,,,,,,,,,,,,,,,,,60fe0836d3261a80cb413737,610378f5a2fda81102253075,2021-07-30_00h00.09.334,Simcolourproject_2stim_asymm_v5,2020.2.10,Win32,60,61025ae37ef11b136ea224fe,,,,,,,,,2685,58,41,1,0,0,response1disk,,6,13,3,1,0,0,rectangle,13,3,1,0,0,13,3,1,0,0,1,95,255,61,1,,,,,,,,
,,,,,,,,,,,,,FF,,,,,,,,0.7831,,,,,,,,,,,,,,,,,,,,,,60fe0836d3261a80cb413737,610378f5a2fda81102253075,2021-07-30_00h00.09.334,Simcolourproject_2stim_asymm_v5,2020.2.10,Win32,60,61025ae37ef11b136ea224fe,,,,,,,,,637,-56,-29,1,0,0,response5disk,,2,3,7,1,0,0,rectangle,3,7,1,0,0,3,7,1,0,0,1,96,256,29,1,,,,,,,,
,,,,,,,,,,,,,FF,,,,,,,,0.9152,,,,,,,,,,,,,,,,,,,,,,60fe0836d3261a80cb413737,610378f5a2fda81102253075,2021-07-30_00h00.09.334,Simcolourproject_2stim_asymm_v5,2020.2.10,Win32,60,61025ae37ef11b136ea224fe,,,,,,,,,1702,46,67,1,0,0,response1disk,,7,1,-9,1,0,0,rectangle,1,-9,1,0,0,1,-9,1,0,0,1,97,257,89,1,,,,,,,,
,,,,,,,,,,,,,FF,,,,,,,,0.6991,,,,,,,,,,,,,,,,,,,,,,60fe0836d3261a80cb413737,610378f5a2fda81102253075,2021-07-30_00h00.09.334,Simcolourproject_2stim_asymm_v5,2020.2.10,Win32,60,61025ae37ef11b136ea224fe,,,,,,,,,1758,-28,-56,1,0,0,response5disk,,3,5,8,1,0,0,rectangle,-75,-34,1,0,0,-16,-9,1,0,0,1,98,258,123,1,,response5disk_3,TRUE,2,2,"[60,143,286,316,313,43,4,94,115,228,90,276,270,83,259,20,107,8,173,289]",1.3307,rectangle
,,,,,,,,,,,,,FF,,,,,,,,1.114,,,,,,,,,,,,,,,,,,,,,,60fe0836d3261a80cb413737,610378f5a2fda81102253075,2021-07-30_00h00.09.334,Simcolourproject_2stim_asymm_v5,2020.2.10,Win32,60,61025ae37ef11b136ea224fe,,,,,,,,,3917,-43,-80,1,0,0,response5disk,,3,1,0,1,0,0,rectangle,1,0,1,0,0,1,0,1,0,0,1,99,259,70,1,,,,,,,,
,,,,,,,,,,,,,FF,,,,,,,,2.5475,,,,,,,,,,,,,,,,,,,,,,60fe0836d3261a80cb413737,610378f5a2fda81102253075,2021-07-30_00h00.09.334,Simcolourproject_2stim_asymm_v5,2020.2.10,Win32,60,61025ae37ef11b136ea224fe,,,,,,,,,4358,-50,64,1,0,0,response7disk,,0,-3,-4,1,0,0,rectangle,-3,-4,1,0,0,-3,-4,1,0,0,1,100,260,71,1,,,,,,,,
,,,,,,,,,,,,,FF,,,,,,,,0.6992,,,,,,,,,,,,,,,,,,,,,,60fe0836d3261a80cb413737,610378f5a2fda81102253075,2021-07-30_00h00.09.334,Simcolourproject_2stim_asymm_v5,2020.2.10,Win32,60,61025ae37ef11b136ea224fe,,,,,,,,,2438,43,29,1,0,0,response1disk,,6,-18,-7,1,0,0,rectangle,-18,-7,1,0,0,-18,-7,1,0,0,1,101,261,157,1,,,,,,,,
,,,,,,,,,,,,,FF,,,,,,,,0.6816,,,,,,,,,,,,,,,,,,,,,,60fe0836d3261a80cb413737,610378f5a2fda81102253075,2021-07-30_00h00.09.334,Simcolourproject_2stim_asymm_v5,2020.2.10,Win32,60,61025ae37ef11b136ea224fe,,,,,,,,,2142,40,64,1,0,0,response1disk,,7,1,-5,1,0,0,rectangle,1,-5,1,0,0,1,-5,1,0,0,1,102,262,80,1,,,,,,,,
,,,,,,,,,,,,,FF,,,,,,,,0.8168,,,,,,,,,,,,,,,,,,,,,,60fe0836d3261a80cb413737,610378f5a2fda81102253075,2021-07-30_00h00.09.334,Simcolourproject_2stim_asymm_v5,2020.2.10,Win32,60,61025ae37ef11b136ea224fe,,,,,,,,,702,-68,-40,1,0,0,response5disk,,2,9,8,1,0,0,rectangle,9,8,1,0,0,9,8,1,0,0,1,103,263,81,1,,,,,,,,
,,,,,,,,,,,,,FF,,,,,,,,1.4154,,,,,,,,,,,,,,,,,,,,,,60fe0836d3261a80cb413737,610378f5a2fda81102253075,2021-07-30_00h00.09.334,Simcolourproject_2stim_asymm_v5,2020.2.10,Win32,60,61025ae37ef11b136ea224fe,,,,,,,,,4341,19,-71,1,0,0,response3disk,,4,4,-5,1,0,0,rectangle,4,-5,1,0,0,4,-5,1,0,0,1,104,264,103,1,,,,,,,,
,,,,,,,,,,,,,FF,,,,,,,,2.3203,,,,,,,,,,,,,,,,,,,,,,60fe0836d3261a80cb413737,610378f5a2fda81102253075,2021-07-30_00h00.09.334,Simcolourproject_2stim_asymm_v5,2020.2.10,Win32,60,61025ae37ef11b136ea224fe,,,,,,,,,4230,25,36,1,0,0,response1disk,,7,4,-3,1,0,0,rectangle,4,-3,1,0,0,4,-3,1,0,0,1,105,265,86,1,,,,,,,,
,,,,,,,,,,,,,FF,,,,,,,,0.985,,,,,,,,,,,,,,,,,,,,,,60fe0836d3261a80cb413737,610378f5a2fda81102253075,2021-07-30_00h00.09.334,Simcolourproject_2stim_asymm_v5,2020.2.10,Win32,60,61025ae37ef11b136ea224fe,,,,,,,,,3915,-49,-42,1,0,0,response5disk,,2,3,5,1,0,0,rectangle,3,5,1,0,0,3,5,1,0,0,1,106,266,146,1,,,,,,,,
,,,,,,,,,,,,,FF,,,,,,,,1.4322,,,,,,,,,,,,,,,,,,,,,,60fe0836d3261a80cb413737,610378f5a2fda81102253075,2021-07-30_00h00.09.334,Simcolourproject_2stim_asymm_v5,2020.2.10,Win32,60,61025ae37ef11b136ea224fe,,,,,,,,,208,76,58,1,0,0,response1disk,,6,6,-9,1,0,0,rectangle,6,-9,1,0,0,6,-9,1,0,0,1,107,267,7,1,,,,,,,,
,,,,,,,,,,,,,FF,,,,,,,,0.8487,,,,,,,,,,,,,,,,,,,,,,60fe0836d3261a80cb413737,610378f5a2fda81102253075,2021-07-30_00h00.09.334,Simcolourproject_2stim_asymm_v5,2020.2.10,Win32,60,61025ae37ef11b136ea224fe,,,,,,,,,3255,37,-42,1,0,0,response3disk,,4,7,-15,1,0,0,rectangle,7,-15,1,0,0,7,-15,1,0,0,1,108,268,20,1,,,,,,,,
,,,,,,,,,,,,,FF,,,,,,,,0.8828,,,,,,,,,,,,,,,,,,,,,,60fe0836d3261a80cb413737,610378f5a2fda81102253075,2021-07-30_00h00.09.334,Simcolourproject_2stim_asymm_v5,2020.2.10,Win32,60,61025ae37ef11b136ea224fe,,,,,,,,,2683,-32,-53,1,0,0,response5disk,,3,-5,-4,1,0,0,rectangle,76,-35,1,0,0,12,0,1,0,0,1,109,269,34,1,,response3disk_3,TRUE,5,5,"[60,143,286,316,313,43,4,94,115,228,90,276,270,83,259,20,107,8,173,289]",1.5478,rectangle
,,,,,,,,,,,,,FF,,,,,,,,0.7646,,,,,,,,,,,,,,,,,,,,,,60fe0836d3261a80cb413737,610378f5a2fda81102253075,2021-07-30_00h00.09.334,Simcolourproject_2stim_asymm_v5,2020.2.10,Win32,60,61025ae37ef11b136ea224fe,,,,,,,,,1780,31,-62,1,0,0,response3disk,,4,-8,-3,1,0,0,rectangle,-8,-3,1,0,0,-8,-3,1,0,0,1,110,270,45,1,,,,,,,,
,,,,,,,,,,,,,FF,,,,,,,,0.6972,,,,,,,,,,,,,,,,,,,,,,60fe0836d3261a80cb413737,610378f5a2fda81102253075,2021-07-30_00h00.09.334,Simcolourproject_2stim_asymm_v5,2020.2.10,Win32,60,61025ae37ef11b136ea224fe,,,,,,,,,602,-53,-63,1,0,0,response5disk,,3,1,6,1,0,0,rectangle,1,6,1,0,0,1,6,1,0,0,1,111,271,12,1,,,,,,,,
,,,,,,,,,,,,,FF,,,,,,,,0.7824,,,,,,,,,,,,,,,,,,,,,,60fe0836d3261a80cb413737,610378f5a2fda81102253075,2021-07-30_00h00.09.334,Simcolourproject_2stim_asymm_v5,2020.2.10,Win32,60,61025ae37ef11b136ea224fe,,,,,,,,,1594,-53,-28,1,0,0,response5disk,,2,-11,7,1,0,0,rectangle,-11,7,1,0,0,-11,7,1,0,0,1,112,272,1,1,,,,,,,,
,,,,,,,,,,,,,FF,,,,,,,,0.8014,,,,,,,,,,,,,,,,,,,,,,60fe0836d3261a80cb413737,610378f5a2fda81102253075,2021-07-30_00h00.09.334,Simcolourproject_2stim_asymm_v5,2020.2.10,Win32,60,61025ae37ef11b136ea224fe,,,,,,,,,3862,43,57,1,0,0,response1disk,,7,1,3,1,0,0,rectangle,1,3,1,0,0,1,3,1,0,0,1,113,273,141,1,,,,,,,,
,,,,,,,,,,,,,FF,,,,,,,,1.3314,,,,,,,,,,,,,,,,,,,,,,60fe0836d3261a80cb413737,610378f5a2fda81102253075,2021-07-30_00h00.09.334,Simcolourproject_2stim_asymm_v5,2020.2.10,Win32,60,61025ae37ef11b136ea224fe,,,,,,,,,1568,38,-30,1,0,0,response3disk,,5,-1,-3,1,0,0,rectangle,-1,-3,1,0,0,-1,-3,1,0,0,1,114,274,150,1,,,,,,,,
,,,,,,,,,,,,,FF,,,,,,,,2.1479,,,,,,,,,,,,,,,,,,,,,,60fe0836d3261a80cb413737,610378f5a2fda81102253075,2021-07-30_00h00.09.334,Simcolourproject_2stim_asymm_v5,2020.2.10,Win32,60,61025ae37ef11b136ea224fe,,,,,,,,,12,75,-23,1,0,0,response3disk,,5,10,4,1,0,0,rectangle,-67,39,1,0,0,1,4,1,0,0,1,115,275,55,1,,response7disk_3,TRUE,1,1,"[60,143,286,316,313,43,4,94,115,228,90,276,270,83,259,20,107,8,173,289]",1.5653,rectangle
,,,,,,,,,,,,,FF,,,,,,,,1.3488,,,,,,,,,,,,,,,,,,,,,,60fe0836d3261a80cb413737,610378f5a2fda81102253075,2021-07-30_00h00.09.334,Simcolourproject_2stim_asymm_v5,2020.2.10,Win32,60,61025ae37ef11b136ea224fe,,,,,,,,,1316,90,-52,1,0,0,response3disk,,5,-3,8,1,0,0,rectangle,-3,8,1,0,0,-3,8,1,0,0,1,116,276,95,1,,,,,,,,
,,,,,,,,,,,,,FF,,,,,,,,0.7487,,,,,,,,,,,,,,,,,,,,,,60fe0836d3261a80cb413737,610378f5a2fda81102253075,2021-07-30_00h00.09.334,Simcolourproject_2stim_asymm_v5,2020.2.10,Win32,60,61025ae37ef11b136ea224fe,,,,,,,,,515,-40,-77,1,0,0,response5disk,,3,-7,5,1,0,0,rectangle,-7,5,1,0,0,-7,5,1,0,0,1,117,277,58,1,,,,,,,,
,,,,,,,,,,,,,FF,,,,,,,,1.3482,,,,,,,,,,,,,,,,,,,,,,60fe0836d3261a80cb413737,610378f5a2fda81102253075,2021-07-30_00h00.09.334,Simcolourproject_2stim_asymm_v5,2020.2.10,Win32,60,61025ae37ef11b136ea224fe,,,,,,,,,648,94,-29,1,0,0,response3disk,,5,11,-4,1,0,0,rectangle,11,-4,1,0,0,11,-4,1,0,0,1,118,278,113,1,,,,,,,,
,,,,,,,,,,,,,FF,,,,,,,,0.9157,,,,,,,,,,,,,,,,,,,,,,60fe0836d3261a80cb413737,610378f5a2fda81102253075,2021-07-30_00h00.09.334,Simcolourproject_2stim_asymm_v5,2020.2.10,Win32,60,61025ae37ef11b136ea224fe,,,,,,,,,1786,54,36,1,0,0,response1disk,,6,7,0,1,0,0,rectangle,7,0,1,0,0,7,0,1,0,0,1,119,279,63,1,,,,,,,,
,,,,,,,,,,,,,FF,,,,,,,,1.0978,,,,,,,,,,,,,,,,,,,,,,60fe0836d3261a80cb413737,610378f5a2fda81102253075,2021-07-30_00h00.09.334,Simcolourproject_2stim_asymm_v5,2020.2.10,Win32,60,61025ae37ef11b136ea224fe,,,,,,,,,1969,50,-50,1,0,0,response3disk,,5,-5,5,1,0,0,rectangle,-5,5,1,0,0,-5,5,1,0,0,1,120,280,68,1,,,,,,,,
,,,,,,,,,,,,,FF,,,,,,,,1.6006,,,,,,,,,,,,,,,,,,,,,,60fe0836d3261a80cb413737,610378f5a2fda81102253075,2021-07-30_00h00.09.334,Simcolourproject_2stim_asymm_v5,2020.2.10,Win32,60,61025ae37ef11b136ea224fe,,,,,,,,,797,70,-47,1,0,0,response3disk,,5,18,-5,1,0,0,rectangle,18,-5,1,0,0,18,-5,1,0,0,1,121,281,74,1,,,,,,,,
,,,,,,,,,,,,,FF,,,,,,,,0.8814,,,,,,,,,,,,,,,,,,,,,,60fe0836d3261a80cb413737,610378f5a2fda81102253075,2021-07-30_00h00.09.334,Simcolourproject_2stim_asymm_v5,2020.2.10,Win32,60,61025ae37ef11b136ea224fe,,,,,,,,,983,50,43,1,0,0,response1disk,,6,1,-1,1,0,0,rectangle,1,-1,1,0,0,1,-1,1,0,0,1,122,282,16,1,,,,,,,,
,,,,,,,,,,,,,FF,,,,,,,,0.8328,,,,,,,,,,,,,,,,,,,,,,60fe0836d3261a80cb413737,610378f5a2fda81102253075,2021-07-30_00h00.09.334,Simcolourproject_2stim_asymm_v5,2020.2.10,Win32,60,61025ae37ef11b136ea224fe,,,,,,,,,1842,38,48,1,0,0,response1disk,,7,-4,-6,1,0,0,rectangle,-4,-6,1,0,0,-4,-6,1,0,0,1,123,283,5,1,,,,,,,,
,,,,,,,,,,,,,FF,,,,,,,,0.7498,,,,,,,,,,,,,,,,,,,,,,60fe0836d3261a80cb413737,610378f5a2fda81102253075,2021-07-30_00h00.09.334,Simcolourproject_2stim_asymm_v5,2020.2.10,Win32,60,61025ae37ef11b136ea224fe,,,,,,,,,118,28,36,1,0,0,response1disk,,7,8,1,1,0,0,rectangle,8,1,1,0,0,8,1,1,0,0,1,124,284,99,1,,,,,,,,
,,,,,,,,,,,,,FF,,,,,,,,1.334,,,,,,,,,,,,,,,,,,,,,,60fe0836d3261a80cb413737,610378f5a2fda81102253075,2021-07-30_00h00.09.334,Simcolourproject_2stim_asymm_v5,2020.2.10,Win32,60,61025ae37ef11b136ea224fe,,,,,,,,,1240,54,22,1,0,0,response1disk,,6,26,8,1,0,0,rectangle,67,-28,1,0,0,16,1,1,0,0,1,125,285,78,1,,response3disk_3,TRUE,5,5,"[60,143,286,316,313,43,4,94,115,228,90,276,270,83,259,20,107,8,173,289]",1.93,rectangle
,,,,,,,,,,,,,FF,,,,,,,,1.0451,,,,,,,,,,,,,,,,,,,,,,60fe0836d3261a80cb413737,610378f5a2fda81102253075,2021-07-30_00h00.09.334,Simcolourproject_2stim_asymm_v5,2020.2.10,Win32,60,61025ae37ef11b136ea224fe,,,,,,,,,3268,55,56,1,0,0,response1disk,,7,16,10,1,0,0,rectangle,16,10,1,0,0,16,10,1,0,0,1,126,286,27,1,,,,,,,,
,,,,,,,,,,,,,FF,,,,,,,,0.8172,,,,,,,,,,,,,,,,,,,,,,60fe0836d3261a80cb413737,610378f5a2fda81102253075,2021-07-30_00h00.09.334,Simcolourproject_2stim_asymm_v5,2020.2.10,Win32,60,61025ae37ef11b136ea224fe,,,,,,,,,2751,31,53,1,0,0,response1disk,,7,3,5,1,0,0,rectangle,3,5,1,0,0,3,5,1,0,0,1,127,287,132,1,,,,,,,,
,,,,,,,,,,,,,FF,,,,,,,,0.9859,,,,,,,,,,,,,,,,,,,,,,60fe0836d3261a80cb413737,610378f5a2fda81102253075,2021-07-30_00h00.09.334,Simcolourproject_2stim_asymm_v5,2020.2.10,Win32,60,61025ae37ef11b136ea224fe,,,,,,,,,1871,27,55,1,0,0,response1disk,,7,2,-13,1,0,0,rectangle,65,34,1,0,0,8,2,1,0,0,1,128,288,107,1,,response1disk_3,TRUE,6,6,"[60,143,286,316,313,43,4,94,115,228,90,276,270,83,259,20,107,8,173,289]",1.7809,rectangle
,,,,,,,,,,,,,FF,,,,,,,,0.8646,,,,,,,,,,,,,,,,,,,,,,60fe0836d3261a80cb413737,610378f5a2fda81102253075,2021-07-30_00h00.09.334,Simcolourproject_2stim_asymm_v5,2020.2.10,Win32,60,61025ae37ef11b136ea224fe,,,,,,,,,3394,-25,-55,1,0,0,response5disk,,3,21,7,1,0,0,rectangle,21,7,1,0,0,21,7,1,0,0,1,129,289,21,1,,,,,,,,
,,,,,,,,,,,,,FF,,,,,,,,1.0661,,,,,,,,,,,,,,,,,,,,,,60fe0836d3261a80cb413737,610378f5a2fda81102253075,2021-07-30_00h00.09.334,Simcolourproject_2stim_asymm_v5,2020.2.10,Win32,60,61025ae37ef11b136ea224fe,,,,,,,,,1714,28,48,1,0,0,response1disk,,7,0,5,1,0,0,rectangle,0,5,1,0,0,0,5,1,0,0,1,130,290,108,1,,,,,,,,
,,,,,,,,,,,,,FF,,,,,,,,1.28,,,,,,,,,,,,,,,,,,,,,,60fe0836d3261a80cb413737,610378f5a2fda81102253075,2021-07-30_00h00.09.334,Simcolourproject_2stim_asymm_v5,2020.2.10,Win32,60,61025ae37ef11b136ea224fe,,,,,,,,,893,-61,-39,1,0,0,response5disk,,2,15,4,1,0,0,rectangle,15,4,1,0,0,15,4,1,0,0,1,131,291,50,1,,,,,,,,
,,,,,,,,,,,,,FF,,,,,,,,1.6288,,,,,,,,,,,,,,,,,,,,,,60fe0836d3261a80cb413737,610378f5a2fda81102253075,2021-07-30_00h00.09.334,Simcolourproject_2stim_asymm_v5,2020.2.10,Win32,60,61025ae37ef11b136ea224fe,,,,,,,,,3751,-67,-53,1,0,0,response5disk,,2,6,-13,1,0,0,rectangle,6,-13,1,0,0,6,-13,1,0,0,1,132,292,85,1,,,,,,,,
,,,,,,,,,,,,,FF,,,,,,,,0.7482,,,,,,,,,,,,,,,,,,,,,,60fe0836d3261a80cb413737,610378f5a2fda81102253075,2021-07-30_00h00.09.334,Simcolourproject_2stim_asymm_v5,2020.2.10,Win32,60,61025ae37ef11b136ea224fe,,,,,,,,,2147,17,37,1,0,0,response1disk,,7,-1,-5,1,0,0,rectangle,-1,-5,1,0,0,-1,-5,1,0,0,1,133,293,60,1,,,,,,,,
,,,,,,,,,,,,,FF,,,,,,,,0.9621,,,,,,,,,,,,,,,,,,,,,,60fe0836d3261a80cb413737,610378f5a2fda81102253075,2021-07-30_00h00.09.334,Simcolourproject_2stim_asymm_v5,2020.2.10,Win32,60,61025ae37ef11b136ea224fe,,,,,,,,,4252,-38,-49,1,0,0,response5disk,,3,0,0,1,0,0,rectangle,0,0,1,0,0,0,0,1,0,0,1,134,294,142,1,,,,,,,,
,,,,,,,,,,,,,FF,,,,,,,,0.9481,,,,,,,,,,,,,,,,,,,,,,60fe0836d3261a80cb413737,610378f5a2fda81102253075,2021-07-30_00h00.09.334,Simcolourproject_2stim_asymm_v5,2020.2.10,Win32,60,61025ae37ef11b136ea224fe,,,,,,,,,3718,33,-65,1,0,0,response3disk,,4,10,-2,1,0,0,rectangle,10,-2,1,0,0,10,-2,1,0,0,1,135,295,2,1,,,,,,,,
,,,,,,,,,,,,,FF,,,,,,,,0.9322,,,,,,,,,,,,,,,,,,,,,,60fe0836d3261a80cb413737,610378f5a2fda81102253075,2021-07-30_00h00.09.334,Simcolourproject_2stim_asymm_v5,2020.2.10,Win32,60,61025ae37ef11b136ea224fe,,,,,,,,,3067,35,-28,1,0,0,response3disk,,5,6,2,1,0,0,rectangle,6,2,1,0,0,6,2,1,0,0,1,136,296,24,1,,,,,,,,
,,,,,,,,,,,,,FF,,,,,,,,0.8324,,,,,,,,,,,,,,,,,,,,,,60fe0836d3261a80cb413737,610378f5a2fda81102253075,2021-07-30_00h00.09.334,Simcolourproject_2stim_asymm_v5,2020.2.10,Win32,60,61025ae37ef11b136ea224fe,,,,,,,,,676,55,27,1,0,0,response1disk,,6,0,-3,1,0,0,rectangle,0,-3,1,0,0,0,-3,1,0,0,1,137,297,147,1,,,,,,,,
,,,,,,,,,,,,,FF,,,,,,,,0.9984,,,,,,,,,,,,,,,,,,,,,,60fe0836d3261a80cb413737,610378f5a2fda81102253075,2021-07-30_00h00.09.334,Simcolourproject_2stim_asymm_v5,2020.2.10,Win32,60,61025ae37ef11b136ea224fe,,,,,,,,,1345,35,49,1,0,0,response1disk,,7,1,-3,1,0,0,rectangle,1,-3,1,0,0,1,-3,1,0,0,1,138,298,46,1,,,,,,,,
,,,,,,,,,,,,,FF,,,,,,,,0.8986,,,,,,,,,,,,,,,,,,,,,,60fe0836d3261a80cb413737,610378f5a2fda81102253075,2021-07-30_00h00.09.334,Simcolourproject_2stim_asymm_v5,2020.2.10,Win32,60,61025ae37ef11b136ea224fe,,,,,,,,,211,39,22,1,0,0,response1disk,,6,4,1,1,0,0,rectangle,4,1,1,0,0,4,1,1,0,0,1,139,299,53,1,,,,,,,,
,,,,,,,,,,,,,FF,,,,,,,,1.1992,,,,,,,,,,,,,,,,,,,,,,60fe0836d3261a80cb413737,610378f5a2fda81102253075,2021-07-30_00h00.09.334,Simcolourproject_2stim_asymm_v5,2020.2.10,Win32,60,61025ae37ef11b136ea224fe,,,,,,,,,387,31,-72,1,0,0,response3disk,,4,7,12,1,0,0,rectangle,7,12,1,0,0,7,12,1,0,0,1,140,300,88,1,,,,,,,,
,,,,,,,,,,,,,FF,,,,,,,,0.9334,,,,,,,,,,,,,,,,,,,,,,60fe0836d3261a80cb413737,610378f5a2fda81102253075,2021-07-30_00h00.09.334,Simcolourproject_2stim_asymm_v5,2020.2.10,Win32,60,61025ae37ef11b136ea224fe,,,,,,,,,1765,49,-36,1,0,0,response3disk,,5,11,0,1,0,0,rectangle,11,0,1,0,0,11,0,1,0,0,1,141,301,28,1,,,,,,,,
,,,,,,,,,,,,,FF,,,,,,,,0.7461,,,,,,,,,,,,,,,,,,,,,,60fe0836d3261a80cb413737,610378f5a2fda81102253075,2021-07-30_00h00.09.334,Simcolourproject_2stim_asymm_v5,2020.2.10,Win32,60,61025ae37ef11b136ea224fe,,,,,,,,,3847,-32,-70,1,0,0,response5disk,,3,3,-1,1,0,0,rectangle,3,-1,1,0,0,3,-1,1,0,0,1,142,302,118,1,,,,,,,,
,,,,,,,,,,,,,FF,,,,,,,,0.7501,,,,,,,,,,,,,,,,,,,,,,60fe0836d3261a80cb413737,610378f5a2fda81102253075,2021-07-30_00h00.09.334,Simcolourproject_2stim_asymm_v5,2020.2.10,Win32,60,61025ae37ef11b136ea224fe,,,,,,,,,312,40,79,1,0,0,response1disk,,7,-5,5,1,0,0,rectangle,-5,5,1,0,0,-5,5,1,0,0,1,143,303,124,1,,,,,,,,
