key_resp.keys,key_resp.rt,key_resp_14.keys,key_resp_14.rt,key_resp_15.keys,key_resp_15.rt,key_resp_17.keys,key_resp_17.rt,key_resp_9.keys,key_resp_9.rt,key_resp_10.keys,key_resp_10.rt,practice_comparison,Ecc,mouse_5.x,mouse_5.y,mouse_5.leftButton,mouse_5.midButton,mouse_5.rightButton,mouse_5.clicked_name,pracsimilarity,response_time,mouse_10.x,mouse_10.y,mouse_10.leftButton,mouse_10.midButton,mouse_10.rightButton,mouse_10.clicked_name,mouse_7.x,mouse_7.y,mouse_7.leftButton,mouse_7.midButton,mouse_7.rightButton,mouse_6.x,mouse_6.y,mouse_6.leftButton,mouse_6.midButton,mouse_6.rightButton,duringprac.thisRepN,duringprac.thisTrialN,duringprac.thisN,duringprac.thisIndex,duringprac.ran,participant,session,date,expName,psychopyVersion,OS,frameRate,study_id,mouse_7.clicked_name,catchpracsimilarity,catch_response_time,catchnumberprac,catchtrialorderprac,mouse_6.clicked_name,key_resp_22.keys,key_resp_22.rt,realcomparison,mouse.x,mouse.y,mouse.leftButton,mouse.midButton,mouse.rightButton,mouse.clicked_name,Colour2,similarity,mouse_2.x,mouse_2.y,mouse_2.leftButton,mouse_2.midButton,mouse_2.rightButton,mouse_2.clicked_name,mouse_3.x,mouse_3.y,mouse_3.leftButton,mouse_3.midButton,mouse_3.rightButton,mouse_11.x,mouse_11.y,mouse_11.leftButton,mouse_11.midButton,mouse_11.rightButton,trials_2.thisRepN,trials_2.thisTrialN,trials_2.thisN,trials_2.thisIndex,trials_2.ran,Colour1,mouse_3.clicked_name,catchornah,catchsimilarity,catchnumber,catchtrialorder,catchRT,mouse_11.clicked_name
space,1.944,space,10.6939,space,17.8387,space,34.946,space,1.9541,space,4.5624,7,PF,-43,56,1,0,0,response7disk_5,0,11.7184,-1,-5,1,0,0,rectangle_8,-1,-5,1,0,0,-1,-5,1,0,0,0,0,0,1,1,60fead9c1e43855aa01f97d6,610378bc72c6cfec7a21816f,2021-07-30_05h59.26.238,Simcolourproject_2stim_asymm_v5,2020.2.10,Win32,60,61025ae37ef11b136ea224fe,,,,,,,,,,,,,,,,,,,,,,,,,,,,,,,,,,,,,,,,,,,,,,
,,,,,,,,,,,,21,PF,55,-89,1,0,0,response3disk_5,4,4.8038,3,5,1,0,0,rectangle_8,38,55,1,0,0,-30,7,1,0,0,0,1,1,6,1,60fead9c1e43855aa01f97d6,610378bc72c6cfec7a21816f,2021-07-30_05h59.26.238,Simcolourproject_2stim_asymm_v5,2020.2.10,Win32,60,61025ae37ef11b136ea224fe,response1disk_7,7,5.5273,2,"[2,5]",rectangle_4,,,,,,,,,,,,,,,,,,,,,,,,,,,,,,,,,,,,,,,,
,,,,,,,,,,,,21,FF,72,-86,1,0,0,response3disk_5,4,12.0813,-8,10,1,0,0,rectangle_8,-8,10,1,0,0,-8,10,1,0,0,0,2,2,0,1,60fead9c1e43855aa01f97d6,610378bc72c6cfec7a21816f,2021-07-30_05h59.26.238,Simcolourproject_2stim_asymm_v5,2020.2.10,Win32,60,61025ae37ef11b136ea224fe,,,,,,,,,,,,,,,,,,,,,,,,,,,,,,,,,,,,,,,,,,,,,,
,,,,,,,,,,,,145,PF,78,66,1,0,0,response1disk_5,6,3.0915,-22,4,1,0,0,rectangle_8,-22,4,1,0,0,-22,4,1,0,0,0,3,3,2,1,60fead9c1e43855aa01f97d6,610378bc72c6cfec7a21816f,2021-07-30_05h59.26.238,Simcolourproject_2stim_asymm_v5,2020.2.10,Win32,60,61025ae37ef11b136ea224fe,,,,,,,,,,,,,,,,,,,,,,,,,,,,,,,,,,,,,,,,,,,,,,
,,,,,,,,,,,,87,PF,-79,-75,1,0,0,response5disk_5,2,10.2186,-3,9,1,0,0,rectangle_8,-93,-60,1,0,0,20,11,1,0,0,0,4,4,4,1,60fead9c1e43855aa01f97d6,610378bc72c6cfec7a21816f,2021-07-30_05h59.26.238,Simcolourproject_2stim_asymm_v5,2020.2.10,Win32,60,61025ae37ef11b136ea224fe,response5disk_7,2,7.3154,2,"[2,5]",rectangle_4,,,,,,,,,,,,,,,,,,,,,,,,,,,,,,,,,,,,,,,,
,,,,,,,,,,,,92,FF,100,-81,1,0,0,response3disk_5,5,3.0955,-15,11,1,0,0,rectangle_8,-15,11,1,0,0,-15,11,1,0,0,0,5,5,3,1,60fead9c1e43855aa01f97d6,610378bc72c6cfec7a21816f,2021-07-30_05h59.26.238,Simcolourproject_2stim_asymm_v5,2020.2.10,Win32,60,61025ae37ef11b136ea224fe,,,,,,,,,,,,,,,,,,,,,,,,,,,,,,,,,,,,,,,,,,,,,,
,,,,,,,,,,,,55,FF,81,67,1,0,0,response1disk_5,6,1.6514,2,-11,1,0,0,rectangle_8,2,-11,1,0,0,2,-11,1,0,0,0,6,6,5,1,60fead9c1e43855aa01f97d6,610378bc72c6cfec7a21816f,2021-07-30_05h59.26.238,Simcolourproject_2stim_asymm_v5,2020.2.10,Win32,60,61025ae37ef11b136ea224fe,,,,,,,,,,,,,,,,,,,,,,,,,,,,,,,,,,,,,,,,,,,,,,
,,,,,,,,,,,,,FF,,,,,,,,9.3542,,,,,,,,,,,,,,,,,,,,,,60fead9c1e43855aa01f97d6,610378bc72c6cfec7a21816f,2021-07-30_05h59.26.238,Simcolourproject_2stim_asymm_v5,2020.2.10,Win32,60,61025ae37ef11b136ea224fe,,,,,,,space,2.917,118,-48,58,1,0,0,response7disk,,0,-3,5,1,0,0,rectangle,-3,5,1,0,0,-3,5,1,0,0,0,0,0,12,1,,,,,,,,
,,,,,,,,,,,,,FF,,,,,,,,3.8616,,,,,,,,,,,,,,,,,,,,,,60fead9c1e43855aa01f97d6,610378bc72c6cfec7a21816f,2021-07-30_05h59.26.238,Simcolourproject_2stim_asymm_v5,2020.2.10,Win32,60,61025ae37ef11b136ea224fe,,,,,,,,,1732,-52,-50,1,0,0,response5disk,,2,-12,2,1,0,0,rectangle,-12,2,1,0,0,-12,2,1,0,0,0,1,1,21,1,,,,,,,,
,,,,,,,,,,,,,FF,,,,,,,,2.2021,,,,,,,,,,,,,,,,,,,,,,60fead9c1e43855aa01f97d6,610378bc72c6cfec7a21816f,2021-07-30_05h59.26.238,Simcolourproject_2stim_asymm_v5,2020.2.10,Win32,60,61025ae37ef11b136ea224fe,,,,,,,,,3640,-41,63,1,0,0,response7disk,,0,-8,3,1,0,0,rectangle,-8,3,1,0,0,-8,3,1,0,0,0,2,2,94,1,,,,,,,,
,,,,,,,,,,,,,FF,,,,,,,,1.969,,,,,,,,,,,,,,,,,,,,,,60fead9c1e43855aa01f97d6,610378bc72c6cfec7a21816f,2021-07-30_05h59.26.238,Simcolourproject_2stim_asymm_v5,2020.2.10,Win32,60,61025ae37ef11b136ea224fe,,,,,,,,,2540,-63,-78,1,0,0,response5disk,,3,-9,10,1,0,0,rectangle,-9,10,1,0,0,-9,10,1,0,0,0,3,3,33,1,,,,,,,,
,,,,,,,,,,,,,FF,,,,,,,,2.2852,,,,,,,,,,,,,,,,,,,,,,60fead9c1e43855aa01f97d6,610378bc72c6cfec7a21816f,2021-07-30_05h59.26.238,Simcolourproject_2stim_asymm_v5,2020.2.10,Win32,60,61025ae37ef11b136ea224fe,,,,,,,,,2619,-60,-43,1,0,0,response5disk,,2,-4,4,1,0,0,rectangle,-4,4,1,0,0,-4,4,1,0,0,0,4,4,61,1,,,,,,,,
,,,,,,,,,,,,,FF,,,,,,,,2.2521,,,,,,,,,,,,,,,,,,,,,,60fead9c1e43855aa01f97d6,610378bc72c6cfec7a21816f,2021-07-30_05h59.26.238,Simcolourproject_2stim_asymm_v5,2020.2.10,Win32,60,61025ae37ef11b136ea224fe,,,,,,,,,2159,-49,49,1,0,0,response7disk,,1,-6,-1,1,0,0,rectangle,-6,-1,1,0,0,-6,-1,1,0,0,0,5,5,139,1,,,,,,,,
,,,,,,,,,,,,,FF,,,,,,,,1.411,,,,,,,,,,,,,,,,,,,,,,60fead9c1e43855aa01f97d6,610378bc72c6cfec7a21816f,2021-07-30_05h59.26.238,Simcolourproject_2stim_asymm_v5,2020.2.10,Win32,60,61025ae37ef11b136ea224fe,,,,,,,,,226,55,58,1,0,0,response1disk,,7,-9,-3,1,0,0,rectangle,-9,-3,1,0,0,-9,-3,1,0,0,0,6,6,70,1,,,,,,,,
,,,,,,,,,,,,,FF,,,,,,,,1.9145,,,,,,,,,,,,,,,,,,,,,,60fead9c1e43855aa01f97d6,610378bc72c6cfec7a21816f,2021-07-30_05h59.26.238,Simcolourproject_2stim_asymm_v5,2020.2.10,Win32,60,61025ae37ef11b136ea224fe,,,,,,,,,451,-40,-36,1,0,0,response5disk,,2,1,-4,1,0,0,rectangle,1,-4,1,0,0,1,-4,1,0,0,0,7,7,16,1,,,,,,,,
,,,,,,,,,,,,,FF,,,,,,,,1.2523,,,,,,,,,,,,,,,,,,,,,,60fead9c1e43855aa01f97d6,610378bc72c6cfec7a21816f,2021-07-30_05h59.26.238,Simcolourproject_2stim_asymm_v5,2020.2.10,Win32,60,61025ae37ef11b136ea224fe,,,,,,,,,3272,60,-47,1,0,0,response3disk,,5,-7,-3,1,0,0,rectangle,-7,-3,1,0,0,-7,-3,1,0,0,0,8,8,1,1,,,,,,,,
,,,,,,,,,,,,,FF,,,,,,,,1.8576,,,,,,,,,,,,,,,,,,,,,,60fead9c1e43855aa01f97d6,610378bc72c6cfec7a21816f,2021-07-30_05h59.26.238,Simcolourproject_2stim_asymm_v5,2020.2.10,Win32,60,61025ae37ef11b136ea224fe,,,,,,,,,3155,78,-73,1,0,0,response3disk,,5,-1,3,1,0,0,rectangle,-1,3,1,0,0,-1,3,1,0,0,0,9,9,108,1,,,,,,,,
,,,,,,,,,,,,,FF,,,,,,,,1.3914,,,,,,,,,,,,,,,,,,,,,,60fead9c1e43855aa01f97d6,610378bc72c6cfec7a21816f,2021-07-30_05h59.26.238,Simcolourproject_2stim_asymm_v5,2020.2.10,Win32,60,61025ae37ef11b136ea224fe,,,,,,,,,1723,36,46,1,0,0,response1disk,,7,-5,-3,1,0,0,rectangle,-5,-3,1,0,0,-5,-3,1,0,0,0,10,10,83,1,,,,,,,,
,,,,,,,,,,,,,FF,,,,,,,,3.2536,,,,,,,,,,,,,,,,,,,,,,60fead9c1e43855aa01f97d6,610378bc72c6cfec7a21816f,2021-07-30_05h59.26.238,Simcolourproject_2stim_asymm_v5,2020.2.10,Win32,60,61025ae37ef11b136ea224fe,,,,,,,,,488,-41,-47,1,0,0,response5disk,,3,-5,-3,1,0,0,rectangle,-5,-3,1,0,0,-5,-3,1,0,0,0,11,11,80,1,,,,,,,,
,,,,,,,,,,,,,FF,,,,,,,,1.3217,,,,,,,,,,,,,,,,,,,,,,60fead9c1e43855aa01f97d6,610378bc72c6cfec7a21816f,2021-07-30_05h59.26.238,Simcolourproject_2stim_asymm_v5,2020.2.10,Win32,60,61025ae37ef11b136ea224fe,,,,,,,,,2918,39,43,1,0,0,response1disk,,7,3,7,1,0,0,rectangle,3,7,1,0,0,3,7,1,0,0,0,12,12,91,1,,,,,,,,
,,,,,,,,,,,,,FF,,,,,,,,1.6527,,,,,,,,,,,,,,,,,,,,,,60fead9c1e43855aa01f97d6,610378bc72c6cfec7a21816f,2021-07-30_05h59.26.238,Simcolourproject_2stim_asymm_v5,2020.2.10,Win32,60,61025ae37ef11b136ea224fe,,,,,,,,,3281,-76,-56,1,0,0,response5disk,,2,0,15,1,0,0,rectangle,0,15,1,0,0,0,15,1,0,0,0,13,13,138,1,,,,,,,,
,,,,,,,,,,,,,FF,,,,,,,,1.3525,,,,,,,,,,,,,,,,,,,,,,60fead9c1e43855aa01f97d6,610378bc72c6cfec7a21816f,2021-07-30_05h59.26.238,Simcolourproject_2stim_asymm_v5,2020.2.10,Win32,60,61025ae37ef11b136ea224fe,,,,,,,,,2582,-34,-46,1,0,0,response5disk,,3,1,1,1,0,0,rectangle,1,1,1,0,0,1,1,1,0,0,0,14,14,7,1,,,,,,,,
,,,,,,,,,,,,,FF,,,,,,,,1.7326,,,,,,,,,,,,,,,,,,,,,,60fead9c1e43855aa01f97d6,610378bc72c6cfec7a21816f,2021-07-30_05h59.26.238,Simcolourproject_2stim_asymm_v5,2020.2.10,Win32,60,61025ae37ef11b136ea224fe,,,,,,,,,3666,-29,38,1,0,0,response7disk,,0,-17,10,1,0,0,rectangle,-17,10,1,0,0,-17,10,1,0,0,0,15,15,3,1,,,,,,,,
,,,,,,,,,,,,,FF,,,,,,,,4.2038,,,,,,,,,,,,,,,,,,,,,,60fead9c1e43855aa01f97d6,610378bc72c6cfec7a21816f,2021-07-30_05h59.26.238,Simcolourproject_2stim_asymm_v5,2020.2.10,Win32,60,61025ae37ef11b136ea224fe,,,,,,,,,2790,-37,34,1,0,0,response7disk,,1,-10,5,1,0,0,rectangle,-10,5,1,0,0,-10,5,1,0,0,0,16,16,140,1,,,,,,,,
,,,,,,,,,,,,,FF,,,,,,,,1.1507,,,,,,,,,,,,,,,,,,,,,,60fead9c1e43855aa01f97d6,610378bc72c6cfec7a21816f,2021-07-30_05h59.26.238,Simcolourproject_2stim_asymm_v5,2020.2.10,Win32,60,61025ae37ef11b136ea224fe,,,,,,,,,3441,40,34,1,0,0,response1disk,,6,-5,-13,1,0,0,rectangle,-5,-13,1,0,0,-5,-13,1,0,0,0,17,17,74,1,,,,,,,,
,,,,,,,,,,,,,FF,,,,,,,,0.8851,,,,,,,,,,,,,,,,,,,,,,60fead9c1e43855aa01f97d6,610378bc72c6cfec7a21816f,2021-07-30_05h59.26.238,Simcolourproject_2stim_asymm_v5,2020.2.10,Win32,60,61025ae37ef11b136ea224fe,,,,,,,,,3221,44,39,1,0,0,response1disk,,6,11,10,1,0,0,rectangle,11,10,1,0,0,11,10,1,0,0,0,18,18,24,1,,,,,,,,
,,,,,,,,,,,,,FF,,,,,,,,1.0169,,,,,,,,,,,,,,,,,,,,,,60fead9c1e43855aa01f97d6,610378bc72c6cfec7a21816f,2021-07-30_05h59.26.238,Simcolourproject_2stim_asymm_v5,2020.2.10,Win32,60,61025ae37ef11b136ea224fe,,,,,,,,,4161,43,36,1,0,0,response1disk,,6,-3,0,1,0,0,rectangle,-3,0,1,0,0,-3,0,1,0,0,0,19,19,5,1,,,,,,,,
,,,,,,,,,,,,,FF,,,,,,,,1.452,,,,,,,,,,,,,,,,,,,,,,60fead9c1e43855aa01f97d6,610378bc72c6cfec7a21816f,2021-07-30_05h59.26.238,Simcolourproject_2stim_asymm_v5,2020.2.10,Win32,60,61025ae37ef11b136ea224fe,,,,,,,,,2939,-35,43,1,0,0,response7disk,,0,6,4,1,0,0,rectangle,6,4,1,0,0,6,4,1,0,0,0,20,20,117,1,,,,,,,,
,,,,,,,,,,,,,FF,,,,,,,,1.5749,,,,,,,,,,,,,,,,,,,,,,60fead9c1e43855aa01f97d6,610378bc72c6cfec7a21816f,2021-07-30_05h59.26.238,Simcolourproject_2stim_asymm_v5,2020.2.10,Win32,60,61025ae37ef11b136ea224fe,,,,,,,,,365,39,-39,1,0,0,response3disk,,5,-1,1,1,0,0,rectangle,-1,1,1,0,0,-1,1,1,0,0,0,21,21,27,1,,,,,,,,
,,,,,,,,,,,,,FF,,,,,,,,0.9379,,,,,,,,,,,,,,,,,,,,,,60fead9c1e43855aa01f97d6,610378bc72c6cfec7a21816f,2021-07-30_05h59.26.238,Simcolourproject_2stim_asymm_v5,2020.2.10,Win32,60,61025ae37ef11b136ea224fe,,,,,,,,,3886,29,-27,1,0,0,response3disk,,5,-6,3,1,0,0,rectangle,-6,3,1,0,0,-6,3,1,0,0,0,22,22,46,1,,,,,,,,
,,,,,,,,,,,,,FF,,,,,,,,1.6867,,,,,,,,,,,,,,,,,,,,,,60fead9c1e43855aa01f97d6,610378bc72c6cfec7a21816f,2021-07-30_05h59.26.238,Simcolourproject_2stim_asymm_v5,2020.2.10,Win32,60,61025ae37ef11b136ea224fe,,,,,,,,,1753,84,-72,1,0,0,response3disk,,5,8,-5,1,0,0,rectangle,8,-5,1,0,0,8,-5,1,0,0,0,23,23,115,1,,,,,,,,
,,,,,,,,,,,,,FF,,,,,,,,1.1718,,,,,,,,,,,,,,,,,,,,,,60fead9c1e43855aa01f97d6,610378bc72c6cfec7a21816f,2021-07-30_05h59.26.238,Simcolourproject_2stim_asymm_v5,2020.2.10,Win32,60,61025ae37ef11b136ea224fe,,,,,,,,,3682,-39,-51,1,0,0,response5disk,,3,10,10,1,0,0,rectangle,10,10,1,0,0,10,10,1,0,0,0,24,24,45,1,,,,,,,,
,,,,,,,,,,,,,FF,,,,,,,,1.4079,,,,,,,,,,,,,,,,,,,,,,60fead9c1e43855aa01f97d6,610378bc72c6cfec7a21816f,2021-07-30_05h59.26.238,Simcolourproject_2stim_asymm_v5,2020.2.10,Win32,60,61025ae37ef11b136ea224fe,,,,,,,,,4366,33,-31,1,0,0,response3disk,,5,1,-8,1,0,0,rectangle,1,-8,1,0,0,1,-8,1,0,0,0,25,25,44,1,,,,,,,,
,,,,,,,,,,,,,FF,,,,,,,,1.605,,,,,,,,,,,,,,,,,,,,,,60fead9c1e43855aa01f97d6,610378bc72c6cfec7a21816f,2021-07-30_05h59.26.238,Simcolourproject_2stim_asymm_v5,2020.2.10,Win32,60,61025ae37ef11b136ea224fe,,,,,,,,,3394,-43,-33,1,0,0,response5disk,,2,-23,9,1,0,0,rectangle,-23,9,1,0,0,-23,9,1,0,0,0,26,26,79,1,,,,,,,,
,,,,,,,,,,,,,FF,,,,,,,,1.0698,,,,,,,,,,,,,,,,,,,,,,60fead9c1e43855aa01f97d6,610378bc72c6cfec7a21816f,2021-07-30_05h59.26.238,Simcolourproject_2stim_asymm_v5,2020.2.10,Win32,60,61025ae37ef11b136ea224fe,,,,,,,,,1619,-30,36,1,0,0,response7disk,,0,-9,6,1,0,0,rectangle,-9,6,1,0,0,-9,6,1,0,0,0,27,27,56,1,,,,,,,,
,,,,,,,,,,,,,FF,,,,,,,,0.9524,,,,,,,,,,,,,,,,,,,,,,60fead9c1e43855aa01f97d6,610378bc72c6cfec7a21816f,2021-07-30_05h59.26.238,Simcolourproject_2stim_asymm_v5,2020.2.10,Win32,60,61025ae37ef11b136ea224fe,,,,,,,,,24,-26,33,1,0,0,response7disk,,0,-5,-5,1,0,0,rectangle,-5,-5,1,0,0,-5,-5,1,0,0,0,28,28,100,1,,,,,,,,
,,,,,,,,,,,,,FF,,,,,,,,0.8801,,,,,,,,,,,,,,,,,,,,,,60fead9c1e43855aa01f97d6,610378bc72c6cfec7a21816f,2021-07-30_05h59.26.238,Simcolourproject_2stim_asymm_v5,2020.2.10,Win32,60,61025ae37ef11b136ea224fe,,,,,,,,,3026,-24,17,1,0,0,response7disk,,1,-1,-6,1,0,0,rectangle,-1,-6,1,0,0,-1,-6,1,0,0,0,29,29,96,1,,,,,,,,
,,,,,,,,,,,,,FF,,,,,,,,0.9112,,,,,,,,,,,,,,,,,,,,,,60fead9c1e43855aa01f97d6,610378bc72c6cfec7a21816f,2021-07-30_05h59.26.238,Simcolourproject_2stim_asymm_v5,2020.2.10,Win32,60,61025ae37ef11b136ea224fe,,,,,,,,,435,-35,59,1,0,0,response7disk,,0,3,-12,1,0,0,rectangle,3,-12,1,0,0,3,-12,1,0,0,0,30,30,156,1,,,,,,,,
,,,,,,,,,,,,,FF,,,,,,,,1.1994,,,,,,,,,,,,,,,,,,,,,,60fead9c1e43855aa01f97d6,610378bc72c6cfec7a21816f,2021-07-30_05h59.26.238,Simcolourproject_2stim_asymm_v5,2020.2.10,Win32,60,61025ae37ef11b136ea224fe,,,,,,,,,2012,-42,50,1,0,0,response7disk,,0,-11,5,1,0,0,rectangle,-11,5,1,0,0,-11,5,1,0,0,0,31,31,19,1,,,,,,,,
,,,,,,,,,,,,,FF,,,,,,,,1.0751,,,,,,,,,,,,,,,,,,,,,,60fead9c1e43855aa01f97d6,610378bc72c6cfec7a21816f,2021-07-30_05h59.26.238,Simcolourproject_2stim_asymm_v5,2020.2.10,Win32,60,61025ae37ef11b136ea224fe,,,,,,,,,2091,-23,23,1,0,0,response7disk,,1,-14,-5,1,0,0,rectangle,-14,-5,1,0,0,-14,-5,1,0,0,0,32,32,149,1,,,,,,,,
,,,,,,,,,,,,,FF,,,,,,,,0.989,,,,,,,,,,,,,,,,,,,,,,60fead9c1e43855aa01f97d6,610378bc72c6cfec7a21816f,2021-07-30_05h59.26.238,Simcolourproject_2stim_asymm_v5,2020.2.10,Win32,60,61025ae37ef11b136ea224fe,,,,,,,,,751,-42,73,1,0,0,response7disk,,0,-9,7,1,0,0,rectangle,-9,7,1,0,0,-9,7,1,0,0,0,33,33,22,1,,,,,,,,
,,,,,,,,,,,,,FF,,,,,,,,1.2131,,,,,,,,,,,,,,,,,,,,,,60fead9c1e43855aa01f97d6,610378bc72c6cfec7a21816f,2021-07-30_05h59.26.238,Simcolourproject_2stim_asymm_v5,2020.2.10,Win32,60,61025ae37ef11b136ea224fe,,,,,,,,,2035,-54,-67,1,0,0,response5disk,,3,12,8,1,0,0,rectangle,12,8,1,0,0,12,8,1,0,0,0,34,34,135,1,,,,,,,,
,,,,,,,,,,,,,FF,,,,,,,,0.936,,,,,,,,,,,,,,,,,,,,,,60fead9c1e43855aa01f97d6,610378bc72c6cfec7a21816f,2021-07-30_05h59.26.238,Simcolourproject_2stim_asymm_v5,2020.2.10,Win32,60,61025ae37ef11b136ea224fe,,,,,,,,,3133,-29,35,1,0,0,response7disk,,0,-4,4,1,0,0,rectangle,-4,4,1,0,0,-4,4,1,0,0,0,35,35,81,1,,,,,,,,
,,,,,,,,,,,,,FF,,,,,,,,0.8967,,,,,,,,,,,,,,,,,,,,,,60fead9c1e43855aa01f97d6,610378bc72c6cfec7a21816f,2021-07-30_05h59.26.238,Simcolourproject_2stim_asymm_v5,2020.2.10,Win32,60,61025ae37ef11b136ea224fe,,,,,,,,,1708,-56,46,1,0,0,response7disk,,1,-18,2,1,0,0,rectangle,-18,2,1,0,0,-18,2,1,0,0,0,36,36,53,1,,,,,,,,
,,,,,,,,,,,,,FF,,,,,,,,1.0519,,,,,,,,,,,,,,,,,,,,,,60fead9c1e43855aa01f97d6,610378bc72c6cfec7a21816f,2021-07-30_05h59.26.238,Simcolourproject_2stim_asymm_v5,2020.2.10,Win32,60,61025ae37ef11b136ea224fe,,,,,,,,,2912,-67,-62,1,0,0,response5disk,,2,-1,1,1,0,0,rectangle,-1,1,1,0,0,-1,1,1,0,0,0,37,37,59,1,,,,,,,,
,,,,,,,,,,,,,FF,,,,,,,,1.4725,,,,,,,,,,,,,,,,,,,,,,60fead9c1e43855aa01f97d6,610378bc72c6cfec7a21816f,2021-07-30_05h59.26.238,Simcolourproject_2stim_asymm_v5,2020.2.10,Win32,60,61025ae37ef11b136ea224fe,,,,,,,,,2353,-47,-46,1,0,0,response5disk,,2,7,2,1,0,0,rectangle,7,2,1,0,0,7,2,1,0,0,0,38,38,130,1,,,,,,,,
,,,,,,,,,,,,,FF,,,,,,,,1.1145,,,,,,,,,,,,,,,,,,,,,,60fead9c1e43855aa01f97d6,610378bc72c6cfec7a21816f,2021-07-30_05h59.26.238,Simcolourproject_2stim_asymm_v5,2020.2.10,Win32,60,61025ae37ef11b136ea224fe,,,,,,,,,2555,-40,62,1,0,0,response7disk,,0,2,8,1,0,0,rectangle,2,8,1,0,0,2,8,1,0,0,0,39,39,159,1,,,,,,,,
,,,,,,,,,,,,,FF,,,,,,,,1.1508,,,,,,,,,,,,,,,,,,,,,,60fead9c1e43855aa01f97d6,610378bc72c6cfec7a21816f,2021-07-30_05h59.26.238,Simcolourproject_2stim_asymm_v5,2020.2.10,Win32,60,61025ae37ef11b136ea224fe,,,,,,,,,2896,-45,51,1,0,0,response7disk,,0,-5,8,1,0,0,rectangle,-5,8,1,0,0,-5,8,1,0,0,0,40,40,136,1,,,,,,,,
,,,,,,,,,,,,,FF,,,,,,,,2.2209,,,,,,,,,,,,,,,,,,,,,,60fead9c1e43855aa01f97d6,610378bc72c6cfec7a21816f,2021-07-30_05h59.26.238,Simcolourproject_2stim_asymm_v5,2020.2.10,Win32,60,61025ae37ef11b136ea224fe,,,,,,,,,437,30,-35,1,0,0,response3disk,,4,-7,11,1,0,0,rectangle,-7,11,1,0,0,-7,11,1,0,0,0,41,41,89,1,,,,,,,,
,,,,,,,,,,,,,FF,,,,,,,,0.9888,,,,,,,,,,,,,,,,,,,,,,60fead9c1e43855aa01f97d6,610378bc72c6cfec7a21816f,2021-07-30_05h59.26.238,Simcolourproject_2stim_asymm_v5,2020.2.10,Win32,60,61025ae37ef11b136ea224fe,,,,,,,,,2170,-48,47,1,0,0,response7disk,,1,-10,3,1,0,0,rectangle,-10,3,1,0,0,-10,3,1,0,0,0,42,42,34,1,,,,,,,,
,,,,,,,,,,,,,FF,,,,,,,,1.3616,,,,,,,,,,,,,,,,,,,,,,60fead9c1e43855aa01f97d6,610378bc72c6cfec7a21816f,2021-07-30_05h59.26.238,Simcolourproject_2stim_asymm_v5,2020.2.10,Win32,60,61025ae37ef11b136ea224fe,,,,,,,,,3850,65,-57,1,0,0,response3disk,,5,-12,15,1,0,0,rectangle,-12,15,1,0,0,-12,15,1,0,0,0,43,43,51,1,,,,,,,,
,,,,,,,,,,,,,FF,,,,,,,,1.3535,,,,,,,,,,,,,,,,,,,,,,60fead9c1e43855aa01f97d6,610378bc72c6cfec7a21816f,2021-07-30_05h59.26.238,Simcolourproject_2stim_asymm_v5,2020.2.10,Win32,60,61025ae37ef11b136ea224fe,,,,,,,,,4299,-39,-62,1,0,0,response5disk,,3,18,3,1,0,0,rectangle,18,3,1,0,0,18,3,1,0,0,0,44,44,116,1,,,,,,,,
,,,,,,,,,,,,,FF,,,,,,,,1.3602,,,,,,,,,,,,,,,,,,,,,,60fead9c1e43855aa01f97d6,610378bc72c6cfec7a21816f,2021-07-30_05h59.26.238,Simcolourproject_2stim_asymm_v5,2020.2.10,Win32,60,61025ae37ef11b136ea224fe,,,,,,,,,838,-37,47,1,0,0,response7disk,,0,-4,2,1,0,0,rectangle,-4,2,1,0,0,-4,2,1,0,0,0,45,45,50,1,,,,,,,,
,,,,,,,,,,,,,FF,,,,,,,,0.9867,,,,,,,,,,,,,,,,,,,,,,60fead9c1e43855aa01f97d6,610378bc72c6cfec7a21816f,2021-07-30_05h59.26.238,Simcolourproject_2stim_asymm_v5,2020.2.10,Win32,60,61025ae37ef11b136ea224fe,,,,,,,,,1693,-62,-69,1,0,0,response5disk,,3,-4,3,1,0,0,rectangle,-4,3,1,0,0,-4,3,1,0,0,0,46,46,25,1,,,,,,,,
,,,,,,,,,,,,,FF,,,,,,,,0.8961,,,,,,,,,,,,,,,,,,,,,,60fead9c1e43855aa01f97d6,610378bc72c6cfec7a21816f,2021-07-30_05h59.26.238,Simcolourproject_2stim_asymm_v5,2020.2.10,Win32,60,61025ae37ef11b136ea224fe,,,,,,,,,915,-86,-53,1,0,0,response5disk,,2,10,9,1,0,0,rectangle,10,9,1,0,0,10,9,1,0,0,0,47,47,28,1,,,,,,,,
,,,,,,,,,,,,,FF,,,,,,,,1.0235,,,,,,,,,,,,,,,,,,,,,,60fead9c1e43855aa01f97d6,610378bc72c6cfec7a21816f,2021-07-30_05h59.26.238,Simcolourproject_2stim_asymm_v5,2020.2.10,Win32,60,61025ae37ef11b136ea224fe,,,,,,,,,3990,-52,47,1,0,0,response7disk,,1,-10,9,1,0,0,rectangle,-10,9,1,0,0,-10,9,1,0,0,0,48,48,150,1,,,,,,,,
,,,,,,,,,,,,,FF,,,,,,,,2.3058,,,,,,,,,,,,,,,,,,,,,,60fead9c1e43855aa01f97d6,610378bc72c6cfec7a21816f,2021-07-30_05h59.26.238,Simcolourproject_2stim_asymm_v5,2020.2.10,Win32,60,61025ae37ef11b136ea224fe,,,,,,,,,936,-57,85,1,0,0,response7disk,,0,-8,10,1,0,0,rectangle,-8,10,1,0,0,-8,10,1,0,0,0,49,49,15,1,,,,,,,,
,,,,,,,,,,,,,FF,,,,,,,,0.9972,,,,,,,,,,,,,,,,,,,,,,60fead9c1e43855aa01f97d6,610378bc72c6cfec7a21816f,2021-07-30_05h59.26.238,Simcolourproject_2stim_asymm_v5,2020.2.10,Win32,60,61025ae37ef11b136ea224fe,,,,,,,,,1183,-62,52,1,0,0,response7disk,,1,0,-3,1,0,0,rectangle,0,-3,1,0,0,0,-3,1,0,0,0,50,50,104,1,,,,,,,,
,,,,,,,,,,,,,FF,,,,,,,,3.6006,,,,,,,,,,,,,,,,,,,,,,60fead9c1e43855aa01f97d6,610378bc72c6cfec7a21816f,2021-07-30_05h59.26.238,Simcolourproject_2stim_asymm_v5,2020.2.10,Win32,60,61025ae37ef11b136ea224fe,,,,,,,,,4367,-56,-51,1,0,0,response5disk,,2,-15,9,1,0,0,rectangle,-15,9,1,0,0,-15,9,1,0,0,0,51,51,42,1,,,,,,,,
,,,,,,,,,,,,,FF,,,,,,,,1.5751,,,,,,,,,,,,,,,,,,,,,,60fead9c1e43855aa01f97d6,610378bc72c6cfec7a21816f,2021-07-30_05h59.26.238,Simcolourproject_2stim_asymm_v5,2020.2.10,Win32,60,61025ae37ef11b136ea224fe,,,,,,,,,3348,-55,58,1,0,0,response7disk,,0,-23,5,1,0,0,rectangle,-23,5,1,0,0,-23,5,1,0,0,0,52,52,73,1,,,,,,,,
,,,,,,,,,,,,,FF,,,,,,,,1.0995,,,,,,,,,,,,,,,,,,,,,,60fead9c1e43855aa01f97d6,610378bc72c6cfec7a21816f,2021-07-30_05h59.26.238,Simcolourproject_2stim_asymm_v5,2020.2.10,Win32,60,61025ae37ef11b136ea224fe,,,,,,,,,2588,-68,-59,1,0,0,response5disk,,2,-9,7,1,0,0,rectangle,-89,32,1,0,0,-6,3,1,0,0,0,53,53,58,1,,response7disk_3,TRUE,1,1,"[185,199,318,54,213,255,134,166,132,204,55,238,256,270,121,193,304,221,296,319]",5.7012,rectangle
,,,,,,,,,,,,,FF,,,,,,,,2.9104,,,,,,,,,,,,,,,,,,,,,,60fead9c1e43855aa01f97d6,610378bc72c6cfec7a21816f,2021-07-30_05h59.26.238,Simcolourproject_2stim_asymm_v5,2020.2.10,Win32,60,61025ae37ef11b136ea224fe,,,,,,,,,2770,-59,-50,1,0,0,response5disk,,2,-6,0,1,0,0,rectangle,-61,83,1,0,0,5,4,1,0,0,0,54,54,32,1,,response7disk_3,TRUE,0,1,"[185,199,318,54,213,255,134,166,132,204,55,238,256,270,121,193,304,221,296,319]",3.67,rectangle
,,,,,,,,,,,,,FF,,,,,,,,5.1248,,,,,,,,,,,,,,,,,,,,,,60fead9c1e43855aa01f97d6,610378bc72c6cfec7a21816f,2021-07-30_05h59.26.238,Simcolourproject_2stim_asymm_v5,2020.2.10,Win32,60,61025ae37ef11b136ea224fe,,,,,,,,,2450,-65,65,1,0,0,response7disk,,1,2,-3,1,0,0,rectangle,2,-3,1,0,0,2,-3,1,0,0,0,55,55,6,1,,,,,,,,
,,,,,,,,,,,,,FF,,,,,,,,1.6668,,,,,,,,,,,,,,,,,,,,,,60fead9c1e43855aa01f97d6,610378bc72c6cfec7a21816f,2021-07-30_05h59.26.238,Simcolourproject_2stim_asymm_v5,2020.2.10,Win32,60,61025ae37ef11b136ea224fe,,,,,,,,,4192,-41,43,1,0,0,response7disk,,0,-9,-4,1,0,0,rectangle,-9,-4,1,0,0,-9,-4,1,0,0,0,56,56,85,1,,,,,,,,
,,,,,,,,,,,,,FF,,,,,,,,0.9682,,,,,,,,,,,,,,,,,,,,,,60fead9c1e43855aa01f97d6,610378bc72c6cfec7a21816f,2021-07-30_05h59.26.238,Simcolourproject_2stim_asymm_v5,2020.2.10,Win32,60,61025ae37ef11b136ea224fe,,,,,,,,,2858,-48,47,1,0,0,response7disk,,1,1,-11,1,0,0,rectangle,1,-11,1,0,0,1,-11,1,0,0,0,57,57,86,1,,,,,,,,
,,,,,,,,,,,,,FF,,,,,,,,0.9844,,,,,,,,,,,,,,,,,,,,,,60fead9c1e43855aa01f97d6,610378bc72c6cfec7a21816f,2021-07-30_05h59.26.238,Simcolourproject_2stim_asymm_v5,2020.2.10,Win32,60,61025ae37ef11b136ea224fe,,,,,,,,,960,-51,77,1,0,0,response7disk,,0,2,-10,1,0,0,rectangle,2,-10,1,0,0,2,-10,1,0,0,0,58,58,111,1,,,,,,,,
,,,,,,,,,,,,,FF,,,,,,,,1.3391,,,,,,,,,,,,,,,,,,,,,,60fead9c1e43855aa01f97d6,610378bc72c6cfec7a21816f,2021-07-30_05h59.26.238,Simcolourproject_2stim_asymm_v5,2020.2.10,Win32,60,61025ae37ef11b136ea224fe,,,,,,,,,3371,-56,62,1,0,0,response7disk,,0,3,8,1,0,0,rectangle,3,8,1,0,0,3,8,1,0,0,0,59,59,131,1,,,,,,,,
,,,,,,,,,,,,,FF,,,,,,,,0.939,,,,,,,,,,,,,,,,,,,,,,60fead9c1e43855aa01f97d6,610378bc72c6cfec7a21816f,2021-07-30_05h59.26.238,Simcolourproject_2stim_asymm_v5,2020.2.10,Win32,60,61025ae37ef11b136ea224fe,,,,,,,,,2183,-43,-65,1,0,0,response5disk,,3,-8,1,1,0,0,rectangle,-8,1,1,0,0,-8,1,1,0,0,0,60,60,98,1,,,,,,,,
,,,,,,,,,,,,,FF,,,,,,,,1.0812,,,,,,,,,,,,,,,,,,,,,,60fead9c1e43855aa01f97d6,610378bc72c6cfec7a21816f,2021-07-30_05h59.26.238,Simcolourproject_2stim_asymm_v5,2020.2.10,Win32,60,61025ae37ef11b136ea224fe,,,,,,,,,420,-52,56,1,0,0,response7disk,,0,-4,14,1,0,0,rectangle,-4,14,1,0,0,-4,14,1,0,0,0,61,61,107,1,,,,,,,,
,,,,,,,,,,,,,FF,,,,,,,,0.9994,,,,,,,,,,,,,,,,,,,,,,60fead9c1e43855aa01f97d6,610378bc72c6cfec7a21816f,2021-07-30_05h59.26.238,Simcolourproject_2stim_asymm_v5,2020.2.10,Win32,60,61025ae37ef11b136ea224fe,,,,,,,,,53,-36,49,1,0,0,response7disk,,0,23,0,1,0,0,rectangle,23,0,1,0,0,23,0,1,0,0,0,62,62,90,1,,,,,,,,
,,,,,,,,,,,,,FF,,,,,,,,0.8135,,,,,,,,,,,,,,,,,,,,,,60fead9c1e43855aa01f97d6,610378bc72c6cfec7a21816f,2021-07-30_05h59.26.238,Simcolourproject_2stim_asymm_v5,2020.2.10,Win32,60,61025ae37ef11b136ea224fe,,,,,,,,,1014,-49,44,1,0,0,response7disk,,1,6,8,1,0,0,rectangle,6,8,1,0,0,6,8,1,0,0,0,63,63,158,1,,,,,,,,
,,,,,,,,,,,,,FF,,,,,,,,0.9711,,,,,,,,,,,,,,,,,,,,,,60fead9c1e43855aa01f97d6,610378bc72c6cfec7a21816f,2021-07-30_05h59.26.238,Simcolourproject_2stim_asymm_v5,2020.2.10,Win32,60,61025ae37ef11b136ea224fe,,,,,,,,,1706,-40,70,1,0,0,response7disk,,0,0,9,1,0,0,rectangle,0,9,1,0,0,0,9,1,0,0,0,64,64,123,1,,,,,,,,
,,,,,,,,,,,,,FF,,,,,,,,0.9498,,,,,,,,,,,,,,,,,,,,,,60fead9c1e43855aa01f97d6,610378bc72c6cfec7a21816f,2021-07-30_05h59.26.238,Simcolourproject_2stim_asymm_v5,2020.2.10,Win32,60,61025ae37ef11b136ea224fe,,,,,,,,,1547,-43,50,1,0,0,response7disk,,0,-9,9,1,0,0,rectangle,-9,9,1,0,0,-9,9,1,0,0,0,65,65,102,1,,,,,,,,
,,,,,,,,,,,,,FF,,,,,,,,0.881,,,,,,,,,,,,,,,,,,,,,,60fead9c1e43855aa01f97d6,610378bc72c6cfec7a21816f,2021-07-30_05h59.26.238,Simcolourproject_2stim_asymm_v5,2020.2.10,Win32,60,61025ae37ef11b136ea224fe,,,,,,,,,26,-39,45,1,0,0,response7disk,,0,-5,2,1,0,0,rectangle,-5,2,1,0,0,-5,2,1,0,0,0,66,66,155,1,,,,,,,,
,,,,,,,,,,,,,FF,,,,,,,,0.8347,,,,,,,,,,,,,,,,,,,,,,60fead9c1e43855aa01f97d6,610378bc72c6cfec7a21816f,2021-07-30_05h59.26.238,Simcolourproject_2stim_asymm_v5,2020.2.10,Win32,60,61025ae37ef11b136ea224fe,,,,,,,,,35,-44,59,1,0,0,response7disk,,0,10,3,1,0,0,rectangle,10,3,1,0,0,10,3,1,0,0,0,67,67,97,1,,,,,,,,
,,,,,,,,,,,,,FF,,,,,,,,1.6897,,,,,,,,,,,,,,,,,,,,,,60fead9c1e43855aa01f97d6,610378bc72c6cfec7a21816f,2021-07-30_05h59.26.238,Simcolourproject_2stim_asymm_v5,2020.2.10,Win32,60,61025ae37ef11b136ea224fe,,,,,,,,,3051,-66,-52,1,0,0,response5disk,,2,-20,5,1,0,0,rectangle,-20,5,1,0,0,-20,5,1,0,0,0,68,68,82,1,,,,,,,,
,,,,,,,,,,,,,FF,,,,,,,,1.2804,,,,,,,,,,,,,,,,,,,,,,60fead9c1e43855aa01f97d6,610378bc72c6cfec7a21816f,2021-07-30_05h59.26.238,Simcolourproject_2stim_asymm_v5,2020.2.10,Win32,60,61025ae37ef11b136ea224fe,,,,,,,,,1879,-62,90,1,0,0,response7disk,,0,-14,13,1,0,0,rectangle,-14,13,1,0,0,-14,13,1,0,0,0,69,69,125,1,,,,,,,,
,,,,,,,,,,,,,FF,,,,,,,,1.7802,,,,,,,,,,,,,,,,,,,,,,60fead9c1e43855aa01f97d6,610378bc72c6cfec7a21816f,2021-07-30_05h59.26.238,Simcolourproject_2stim_asymm_v5,2020.2.10,Win32,60,61025ae37ef11b136ea224fe,,,,,,,,,1409,-50,61,1,0,0,response7disk,,0,-7,8,1,0,0,rectangle,-7,8,1,0,0,-7,8,1,0,0,0,70,70,65,1,,,,,,,,
,,,,,,,,,,,,,FF,,,,,,,,1.1635,,,,,,,,,,,,,,,,,,,,,,60fead9c1e43855aa01f97d6,610378bc72c6cfec7a21816f,2021-07-30_05h59.26.238,Simcolourproject_2stim_asymm_v5,2020.2.10,Win32,60,61025ae37ef11b136ea224fe,,,,,,,,,2462,-71,52,1,0,0,response7disk,,1,8,3,1,0,0,rectangle,8,3,1,0,0,8,3,1,0,0,0,71,71,148,1,,,,,,,,
,,,,,,,,,,,,,FF,,,,,,,,0.9357,,,,,,,,,,,,,,,,,,,,,,60fead9c1e43855aa01f97d6,610378bc72c6cfec7a21816f,2021-07-30_05h59.26.238,Simcolourproject_2stim_asymm_v5,2020.2.10,Win32,60,61025ae37ef11b136ea224fe,,,,,,,,,42,-39,42,1,0,0,response7disk,,0,-11,-5,1,0,0,rectangle,-11,-5,1,0,0,-11,-5,1,0,0,0,72,72,30,1,,,,,,,,
,,,,,,,,,,,,,FF,,,,,,,,2.3843,,,,,,,,,,,,,,,,,,,,,,60fead9c1e43855aa01f97d6,610378bc72c6cfec7a21816f,2021-07-30_05h59.26.238,Simcolourproject_2stim_asymm_v5,2020.2.10,Win32,60,61025ae37ef11b136ea224fe,,,,,,,,,1964,76,78,1,0,0,response1disk,,7,-33,-6,1,0,0,rectangle,-33,-6,1,0,0,-33,-6,1,0,0,0,73,73,2,1,,,,,,,,
,,,,,,,,,,,,,FF,,,,,,,,2.6437,,,,,,,,,,,,,,,,,,,,,,60fead9c1e43855aa01f97d6,610378bc72c6cfec7a21816f,2021-07-30_05h59.26.238,Simcolourproject_2stim_asymm_v5,2020.2.10,Win32,60,61025ae37ef11b136ea224fe,,,,,,,,,614,-66,-74,1,0,0,response5disk,,3,-16,5,1,0,0,rectangle,-16,5,1,0,0,-16,5,1,0,0,0,74,74,124,1,,,,,,,,
,,,,,,,,,,,,,FF,,,,,,,,1.4654,,,,,,,,,,,,,,,,,,,,,,60fead9c1e43855aa01f97d6,610378bc72c6cfec7a21816f,2021-07-30_05h59.26.238,Simcolourproject_2stim_asymm_v5,2020.2.10,Win32,60,61025ae37ef11b136ea224fe,,,,,,,,,480,-44,31,1,0,0,response7disk,,1,-29,-5,1,0,0,rectangle,-29,-5,1,0,0,-29,-5,1,0,0,0,75,75,31,1,,,,,,,,
,,,,,,,,,,,,,FF,,,,,,,,1.5309,,,,,,,,,,,,,,,,,,,,,,60fead9c1e43855aa01f97d6,610378bc72c6cfec7a21816f,2021-07-30_05h59.26.238,Simcolourproject_2stim_asymm_v5,2020.2.10,Win32,60,61025ae37ef11b136ea224fe,,,,,,,,,3434,72,-46,1,0,0,response3disk,,5,13,0,1,0,0,rectangle,13,0,1,0,0,13,0,1,0,0,0,76,76,87,1,,,,,,,,
,,,,,,,,,,,,,FF,,,,,,,,1.052,,,,,,,,,,,,,,,,,,,,,,60fead9c1e43855aa01f97d6,610378bc72c6cfec7a21816f,2021-07-30_05h59.26.238,Simcolourproject_2stim_asymm_v5,2020.2.10,Win32,60,61025ae37ef11b136ea224fe,,,,,,,,,2223,-52,75,1,0,0,response7disk,,0,-17,-5,1,0,0,rectangle,-17,-5,1,0,0,-17,-5,1,0,0,0,77,77,154,1,,,,,,,,
,,,,,,,,,,,,,FF,,,,,,,,1.3872,,,,,,,,,,,,,,,,,,,,,,60fead9c1e43855aa01f97d6,610378bc72c6cfec7a21816f,2021-07-30_05h59.26.238,Simcolourproject_2stim_asymm_v5,2020.2.10,Win32,60,61025ae37ef11b136ea224fe,,,,,,,,,1984,-46,-32,1,0,0,response5disk,,2,1,7,1,0,0,rectangle,1,7,1,0,0,1,7,1,0,0,0,78,78,153,1,,,,,,,,
,,,,,,,,,,,,,FF,,,,,,,,1.0504,,,,,,,,,,,,,,,,,,,,,,60fead9c1e43855aa01f97d6,610378bc72c6cfec7a21816f,2021-07-30_05h59.26.238,Simcolourproject_2stim_asymm_v5,2020.2.10,Win32,60,61025ae37ef11b136ea224fe,,,,,,,,,477,-37,71,1,0,0,response7disk,,0,-17,7,1,0,0,rectangle,-17,7,1,0,0,-17,7,1,0,0,0,79,79,127,1,,,,,,,,
,,,,,,,,,,,,,FF,,,,,,,,0.9752,,,,,,,,,,,,,,,,,,,,,,60fead9c1e43855aa01f97d6,610378bc72c6cfec7a21816f,2021-07-30_05h59.26.238,Simcolourproject_2stim_asymm_v5,2020.2.10,Win32,60,61025ae37ef11b136ea224fe,,,,,,,,,1393,-50,39,1,0,0,response7disk,,1,-10,4,1,0,0,rectangle,-10,4,1,0,0,-10,4,1,0,0,0,80,80,57,1,,,,,,,,
,,,,,,,,,,,,,FF,,,,,,,,1.1302,,,,,,,,,,,,,,,,,,,,,,60fead9c1e43855aa01f97d6,610378bc72c6cfec7a21816f,2021-07-30_05h59.26.238,Simcolourproject_2stim_asymm_v5,2020.2.10,Win32,60,61025ae37ef11b136ea224fe,,,,,,,,,93,52,62,1,0,0,response1disk,,7,-4,2,1,0,0,rectangle,-4,2,1,0,0,-4,2,1,0,0,0,81,81,134,1,,,,,,,,
,,,,,,,,,,,,,FF,,,,,,,,0.7994,,,,,,,,,,,,,,,,,,,,,,60fead9c1e43855aa01f97d6,610378bc72c6cfec7a21816f,2021-07-30_05h59.26.238,Simcolourproject_2stim_asymm_v5,2020.2.10,Win32,60,61025ae37ef11b136ea224fe,,,,,,,,,3088,-47,52,1,0,0,response7disk,,0,-25,0,1,0,0,rectangle,-25,0,1,0,0,-25,0,1,0,0,0,82,82,10,1,,,,,,,,
,,,,,,,,,,,,,FF,,,,,,,,0.9578,,,,,,,,,,,,,,,,,,,,,,60fead9c1e43855aa01f97d6,610378bc72c6cfec7a21816f,2021-07-30_05h59.26.238,Simcolourproject_2stim_asymm_v5,2020.2.10,Win32,60,61025ae37ef11b136ea224fe,,,,,,,,,3357,-72,-44,1,0,0,response5disk,,2,1,9,1,0,0,rectangle,1,9,1,0,0,1,9,1,0,0,0,83,83,69,1,,,,,,,,
,,,,,,,,,,,,,FF,,,,,,,,1.7009,,,,,,,,,,,,,,,,,,,,,,60fead9c1e43855aa01f97d6,610378bc72c6cfec7a21816f,2021-07-30_05h59.26.238,Simcolourproject_2stim_asymm_v5,2020.2.10,Win32,60,61025ae37ef11b136ea224fe,,,,,,,,,1173,-88,-38,1,0,0,response5disk,,2,-4,9,1,0,0,rectangle,-4,9,1,0,0,-4,9,1,0,0,0,84,84,93,1,,,,,,,,
,,,,,,,,,,,,,FF,,,,,,,,1.403,,,,,,,,,,,,,,,,,,,,,,60fead9c1e43855aa01f97d6,610378bc72c6cfec7a21816f,2021-07-30_05h59.26.238,Simcolourproject_2stim_asymm_v5,2020.2.10,Win32,60,61025ae37ef11b136ea224fe,,,,,,,,,1675,38,-56,1,0,0,response3disk,,4,-3,12,1,0,0,rectangle,-3,12,1,0,0,-3,12,1,0,0,0,85,85,68,1,,,,,,,,
,,,,,,,,,,,,,FF,,,,,,,,1.2311,,,,,,,,,,,,,,,,,,,,,,60fead9c1e43855aa01f97d6,610378bc72c6cfec7a21816f,2021-07-30_05h59.26.238,Simcolourproject_2stim_asymm_v5,2020.2.10,Win32,60,61025ae37ef11b136ea224fe,,,,,,,,,3431,37,-50,1,0,0,response3disk,,4,-5,3,1,0,0,rectangle,-5,3,1,0,0,-5,3,1,0,0,0,86,86,128,1,,,,,,,,
,,,,,,,,,,,,,FF,,,,,,,,1.2778,,,,,,,,,,,,,,,,,,,,,,60fead9c1e43855aa01f97d6,610378bc72c6cfec7a21816f,2021-07-30_05h59.26.238,Simcolourproject_2stim_asymm_v5,2020.2.10,Win32,60,61025ae37ef11b136ea224fe,,,,,,,,,652,-45,49,1,0,0,response7disk,,0,-23,-1,1,0,0,rectangle,-23,-1,1,0,0,-23,-1,1,0,0,0,87,87,26,1,,,,,,,,
,,,,,,,,,,,,,FF,,,,,,,,1.2779,,,,,,,,,,,,,,,,,,,,,,60fead9c1e43855aa01f97d6,610378bc72c6cfec7a21816f,2021-07-30_05h59.26.238,Simcolourproject_2stim_asymm_v5,2020.2.10,Win32,60,61025ae37ef11b136ea224fe,,,,,,,,,1477,-40,24,1,0,0,response7disk,,1,-3,-9,1,0,0,rectangle,-3,-9,1,0,0,-3,-9,1,0,0,0,88,88,78,1,,,,,,,,
,,,,,,,,,,,,,FF,,,,,,,,0.9919,,,,,,,,,,,,,,,,,,,,,,60fead9c1e43855aa01f97d6,610378bc72c6cfec7a21816f,2021-07-30_05h59.26.238,Simcolourproject_2stim_asymm_v5,2020.2.10,Win32,60,61025ae37ef11b136ea224fe,,,,,,,,,2510,-52,77,1,0,0,response7disk,,0,-15,9,1,0,0,rectangle,-15,9,1,0,0,-15,9,1,0,0,0,89,89,142,1,,,,,,,,
,,,,,,,,,,,,,FF,,,,,,,,0.9894,,,,,,,,,,,,,,,,,,,,,,60fead9c1e43855aa01f97d6,610378bc72c6cfec7a21816f,2021-07-30_05h59.26.238,Simcolourproject_2stim_asymm_v5,2020.2.10,Win32,60,61025ae37ef11b136ea224fe,,,,,,,,,4254,56,-56,1,0,0,response3disk,,5,-15,13,1,0,0,rectangle,-15,13,1,0,0,-15,13,1,0,0,0,90,90,64,1,,,,,,,,
,,,,,,,,,,,,,FF,,,,,,,,1.1918,,,,,,,,,,,,,,,,,,,,,,60fead9c1e43855aa01f97d6,610378bc72c6cfec7a21816f,2021-07-30_05h59.26.238,Simcolourproject_2stim_asymm_v5,2020.2.10,Win32,60,61025ae37ef11b136ea224fe,,,,,,,,,69,34,-31,1,0,0,response3disk,,5,4,-5,1,0,0,rectangle,4,-5,1,0,0,4,-5,1,0,0,0,91,91,99,1,,,,,,,,
,,,,,,,,,,,,,FF,,,,,,,,1.3546,,,,,,,,,,,,,,,,,,,,,,60fead9c1e43855aa01f97d6,610378bc72c6cfec7a21816f,2021-07-30_05h59.26.238,Simcolourproject_2stim_asymm_v5,2020.2.10,Win32,60,61025ae37ef11b136ea224fe,,,,,,,,,2532,-44,51,1,0,0,response7disk,,0,-11,1,1,0,0,rectangle,-11,1,1,0,0,-11,1,1,0,0,0,92,92,118,1,,,,,,,,
,,,,,,,,,,,,,FF,,,,,,,,1.1066,,,,,,,,,,,,,,,,,,,,,,60fead9c1e43855aa01f97d6,610378bc72c6cfec7a21816f,2021-07-30_05h59.26.238,Simcolourproject_2stim_asymm_v5,2020.2.10,Win32,60,61025ae37ef11b136ea224fe,,,,,,,,,429,-56,63,1,0,0,response7disk,,0,-16,6,1,0,0,rectangle,-16,6,1,0,0,-16,6,1,0,0,0,93,93,151,1,,,,,,,,
,,,,,,,,,,,,,FF,,,,,,,,2.2317,,,,,,,,,,,,,,,,,,,,,,60fead9c1e43855aa01f97d6,610378bc72c6cfec7a21816f,2021-07-30_05h59.26.238,Simcolourproject_2stim_asymm_v5,2020.2.10,Win32,60,61025ae37ef11b136ea224fe,,,,,,,,,3019,-52,31,1,0,0,response7disk,,1,-16,-2,1,0,0,rectangle,-16,-2,1,0,0,-16,-2,1,0,0,0,94,94,35,1,,,,,,,,
,,,,,,,,,,,,,FF,,,,,,,,1.0903,,,,,,,,,,,,,,,,,,,,,,60fead9c1e43855aa01f97d6,610378bc72c6cfec7a21816f,2021-07-30_05h59.26.238,Simcolourproject_2stim_asymm_v5,2020.2.10,Win32,60,61025ae37ef11b136ea224fe,,,,,,,,,981,-46,36,1,0,0,response7disk,,1,-9,5,1,0,0,rectangle,-9,5,1,0,0,-9,5,1,0,0,0,95,95,41,1,,,,,,,,
,,,,,,,,,,,,,FF,,,,,,,,1.421,,,,,,,,,,,,,,,,,,,,,,60fead9c1e43855aa01f97d6,610378bc72c6cfec7a21816f,2021-07-30_05h59.26.238,Simcolourproject_2stim_asymm_v5,2020.2.10,Win32,60,61025ae37ef11b136ea224fe,,,,,,,,,907,-88,47,1,0,0,response7disk,,1,-22,4,1,0,0,rectangle,-22,4,1,0,0,-22,4,1,0,0,0,96,96,11,1,,,,,,,,
,,,,,,,,,,,,,FF,,,,,,,,0.9149,,,,,,,,,,,,,,,,,,,,,,60fead9c1e43855aa01f97d6,610378bc72c6cfec7a21816f,2021-07-30_05h59.26.238,Simcolourproject_2stim_asymm_v5,2020.2.10,Win32,60,61025ae37ef11b136ea224fe,,,,,,,,,553,-39,33,1,0,0,response7disk,,1,-23,13,1,0,0,rectangle,-23,13,1,0,0,-23,13,1,0,0,0,97,97,67,1,,,,,,,,
,,,,,,,,,,,,,FF,,,,,,,,0.8533,,,,,,,,,,,,,,,,,,,,,,60fead9c1e43855aa01f97d6,610378bc72c6cfec7a21816f,2021-07-30_05h59.26.238,Simcolourproject_2stim_asymm_v5,2020.2.10,Win32,60,61025ae37ef11b136ea224fe,,,,,,,,,326,-54,38,1,0,0,response7disk,,1,-22,0,1,0,0,rectangle,-22,0,1,0,0,-22,0,1,0,0,0,98,98,75,1,,,,,,,,
,,,,,,,,,,,,,FF,,,,,,,,1.1842,,,,,,,,,,,,,,,,,,,,,,60fead9c1e43855aa01f97d6,610378bc72c6cfec7a21816f,2021-07-30_05h59.26.238,Simcolourproject_2stim_asymm_v5,2020.2.10,Win32,60,61025ae37ef11b136ea224fe,,,,,,,,,1440,-45,43,1,0,0,response7disk,,1,-16,8,1,0,0,rectangle,-16,8,1,0,0,-16,8,1,0,0,0,99,99,120,1,,,,,,,,
,,,,,,,,,,,,,FF,,,,,,,,1.1066,,,,,,,,,,,,,,,,,,,,,,60fead9c1e43855aa01f97d6,610378bc72c6cfec7a21816f,2021-07-30_05h59.26.238,Simcolourproject_2stim_asymm_v5,2020.2.10,Win32,60,61025ae37ef11b136ea224fe,,,,,,,,,3091,-39,43,1,0,0,response7disk,,0,-11,3,1,0,0,rectangle,-11,3,1,0,0,-11,3,1,0,0,0,100,100,137,1,,,,,,,,
,,,,,,,,,,,,,FF,,,,,,,,0.8713,,,,,,,,,,,,,,,,,,,,,,60fead9c1e43855aa01f97d6,610378bc72c6cfec7a21816f,2021-07-30_05h59.26.238,Simcolourproject_2stim_asymm_v5,2020.2.10,Win32,60,61025ae37ef11b136ea224fe,,,,,,,,,1178,-64,58,1,0,0,response7disk,,1,-14,10,1,0,0,rectangle,-14,10,1,0,0,-14,10,1,0,0,0,101,101,76,1,,,,,,,,
,,,,,,,,,,,,,FF,,,,,,,,1.6231,,,,,,,,,,,,,,,,,,,,,,60fead9c1e43855aa01f97d6,610378bc72c6cfec7a21816f,2021-07-30_05h59.26.238,Simcolourproject_2stim_asymm_v5,2020.2.10,Win32,60,61025ae37ef11b136ea224fe,,,,,,,,,3459,-56,41,1,0,0,response7disk,,1,-8,-4,1,0,0,rectangle,-8,-4,1,0,0,-8,-4,1,0,0,0,102,102,77,1,,,,,,,,
,,,,,,,,,,,,,FF,,,,,,,,0.865,,,,,,,,,,,,,,,,,,,,,,60fead9c1e43855aa01f97d6,610378bc72c6cfec7a21816f,2021-07-30_05h59.26.238,Simcolourproject_2stim_asymm_v5,2020.2.10,Win32,60,61025ae37ef11b136ea224fe,,,,,,,,,2065,-60,33,1,0,0,response7disk,,1,-18,-5,1,0,0,rectangle,-18,-5,1,0,0,-18,-5,1,0,0,0,103,103,29,1,,,,,,,,
,,,,,,,,,,,,,FF,,,,,,,,0.9735,,,,,,,,,,,,,,,,,,,,,,60fead9c1e43855aa01f97d6,610378bc72c6cfec7a21816f,2021-07-30_05h59.26.238,Simcolourproject_2stim_asymm_v5,2020.2.10,Win32,60,61025ae37ef11b136ea224fe,,,,,,,,,1749,-60,47,1,0,0,response7disk,,1,-1,10,1,0,0,rectangle,-1,10,1,0,0,-1,10,1,0,0,0,104,104,146,1,,,,,,,,
,,,,,,,,,,,,,FF,,,,,,,,1.0167,,,,,,,,,,,,,,,,,,,,,,60fead9c1e43855aa01f97d6,610378bc72c6cfec7a21816f,2021-07-30_05h59.26.238,Simcolourproject_2stim_asymm_v5,2020.2.10,Win32,60,61025ae37ef11b136ea224fe,,,,,,,,,2389,-67,71,1,0,0,response7disk,,0,-18,-9,1,0,0,rectangle,-18,-9,1,0,0,-18,-9,1,0,0,0,105,105,18,1,,,,,,,,
,,,,,,,,,,,,,FF,,,,,,,,1.8816,,,,,,,,,,,,,,,,,,,,,,60fead9c1e43855aa01f97d6,610378bc72c6cfec7a21816f,2021-07-30_05h59.26.238,Simcolourproject_2stim_asymm_v5,2020.2.10,Win32,60,61025ae37ef11b136ea224fe,,,,,,,,,598,-59,55,1,0,0,response7disk,,1,-15,2,1,0,0,rectangle,-15,2,1,0,0,-15,2,1,0,0,0,106,106,43,1,,,,,,,,
,,,,,,,,,,,,,FF,,,,,,,,2.083,,,,,,,,,,,,,,,,,,,,,,60fead9c1e43855aa01f97d6,610378bc72c6cfec7a21816f,2021-07-30_05h59.26.238,Simcolourproject_2stim_asymm_v5,2020.2.10,Win32,60,61025ae37ef11b136ea224fe,,,,,,,,,4000,-69,-32,1,0,0,response5disk,,2,-4,-3,1,0,0,rectangle,-4,-3,1,0,0,-4,-3,1,0,0,0,107,107,110,1,,,,,,,,
,,,,,,,,,,,,,FF,,,,,,,,1.0614,,,,,,,,,,,,,,,,,,,,,,60fead9c1e43855aa01f97d6,610378bc72c6cfec7a21816f,2021-07-30_05h59.26.238,Simcolourproject_2stim_asymm_v5,2020.2.10,Win32,60,61025ae37ef11b136ea224fe,,,,,,,,,1791,-73,-30,1,0,0,response5disk,,2,-3,15,1,0,0,rectangle,-3,15,1,0,0,-3,15,1,0,0,0,108,108,49,1,,,,,,,,
,,,,,,,,,,,,,FF,,,,,,,,0.9835,,,,,,,,,,,,,,,,,,,,,,60fead9c1e43855aa01f97d6,610378bc72c6cfec7a21816f,2021-07-30_05h59.26.238,Simcolourproject_2stim_asymm_v5,2020.2.10,Win32,60,61025ae37ef11b136ea224fe,,,,,,,,,3486,-82,-46,1,0,0,response5disk,,2,-4,-1,1,0,0,rectangle,-4,-1,1,0,0,-4,-1,1,0,0,0,109,109,114,1,,,,,,,,
,,,,,,,,,,,,,FF,,,,,,,,1.07,,,,,,,,,,,,,,,,,,,,,,60fead9c1e43855aa01f97d6,610378bc72c6cfec7a21816f,2021-07-30_05h59.26.238,Simcolourproject_2stim_asymm_v5,2020.2.10,Win32,60,61025ae37ef11b136ea224fe,,,,,,,,,2263,-51,54,1,0,0,response7disk,,0,-15,4,1,0,0,rectangle,-15,4,1,0,0,-15,4,1,0,0,0,110,110,119,1,,,,,,,,
,,,,,,,,,,,,,FF,,,,,,,,1.3758,,,,,,,,,,,,,,,,,,,,,,60fead9c1e43855aa01f97d6,610378bc72c6cfec7a21816f,2021-07-30_05h59.26.238,Simcolourproject_2stim_asymm_v5,2020.2.10,Win32,60,61025ae37ef11b136ea224fe,,,,,,,,,4182,-41,-36,1,0,0,response5disk,,2,-13,-1,1,0,0,rectangle,-13,-1,1,0,0,-13,-1,1,0,0,0,111,111,112,1,,,,,,,,
,,,,,,,,,,,,,FF,,,,,,,,0.9786,,,,,,,,,,,,,,,,,,,,,,60fead9c1e43855aa01f97d6,610378bc72c6cfec7a21816f,2021-07-30_05h59.26.238,Simcolourproject_2stim_asymm_v5,2020.2.10,Win32,60,61025ae37ef11b136ea224fe,,,,,,,,,3265,-57,65,1,0,0,response7disk,,0,-17,1,1,0,0,rectangle,-17,1,1,0,0,-17,1,1,0,0,0,112,112,23,1,,,,,,,,
,,,,,,,,,,,,,FF,,,,,,,,2.6501,,,,,,,,,,,,,,,,,,,,,,60fead9c1e43855aa01f97d6,610378bc72c6cfec7a21816f,2021-07-30_05h59.26.238,Simcolourproject_2stim_asymm_v5,2020.2.10,Win32,60,61025ae37ef11b136ea224fe,,,,,,,,,2230,56,-60,1,0,0,response3disk,,4,-6,-1,1,0,0,rectangle,-6,-1,1,0,0,-6,-1,1,0,0,0,113,113,145,1,,,,,,,,
,,,,,,,,,,,,,FF,,,,,,,,1.119,,,,,,,,,,,,,,,,,,,,,,60fead9c1e43855aa01f97d6,610378bc72c6cfec7a21816f,2021-07-30_05h59.26.238,Simcolourproject_2stim_asymm_v5,2020.2.10,Win32,60,61025ae37ef11b136ea224fe,,,,,,,,,1648,-41,43,1,0,0,response7disk,,0,-12,4,1,0,0,rectangle,-12,4,1,0,0,-12,4,1,0,0,0,114,114,48,1,,,,,,,,
,,,,,,,,,,,,,FF,,,,,,,,1.0305,,,,,,,,,,,,,,,,,,,,,,60fead9c1e43855aa01f97d6,610378bc72c6cfec7a21816f,2021-07-30_05h59.26.238,Simcolourproject_2stim_asymm_v5,2020.2.10,Win32,60,61025ae37ef11b136ea224fe,,,,,,,,,2088,-51,65,1,0,0,response7disk,,0,-10,15,1,0,0,rectangle,-10,15,1,0,0,-10,15,1,0,0,0,115,115,132,1,,,,,,,,
,,,,,,,,,,,,,FF,,,,,,,,1.6576,,,,,,,,,,,,,,,,,,,,,,60fead9c1e43855aa01f97d6,610378bc72c6cfec7a21816f,2021-07-30_05h59.26.238,Simcolourproject_2stim_asymm_v5,2020.2.10,Win32,60,61025ae37ef11b136ea224fe,,,,,,,,,2736,-46,61,1,0,0,response7disk,,0,-9,-3,1,0,0,rectangle,-9,-3,1,0,0,-9,-3,1,0,0,0,116,116,55,1,,,,,,,,
,,,,,,,,,,,,,FF,,,,,,,,1.3193,,,,,,,,,,,,,,,,,,,,,,60fead9c1e43855aa01f97d6,610378bc72c6cfec7a21816f,2021-07-30_05h59.26.238,Simcolourproject_2stim_asymm_v5,2020.2.10,Win32,60,61025ae37ef11b136ea224fe,,,,,,,,,3263,-53,57,1,0,0,response7disk,,0,2,10,1,0,0,rectangle,2,10,1,0,0,2,10,1,0,0,0,117,117,20,1,,,,,,,,
,,,,,,,,,,,,,FF,,,,,,,,0.9397,,,,,,,,,,,,,,,,,,,,,,60fead9c1e43855aa01f97d6,610378bc72c6cfec7a21816f,2021-07-30_05h59.26.238,Simcolourproject_2stim_asymm_v5,2020.2.10,Win32,60,61025ae37ef11b136ea224fe,,,,,,,,,183,-41,55,1,0,0,response7disk,,0,-9,1,1,0,0,rectangle,-9,1,1,0,0,-9,1,1,0,0,0,118,118,141,1,,,,,,,,
,,,,,,,,,,,,,FF,,,,,,,,0.9495,,,,,,,,,,,,,,,,,,,,,,60fead9c1e43855aa01f97d6,610378bc72c6cfec7a21816f,2021-07-30_05h59.26.238,Simcolourproject_2stim_asymm_v5,2020.2.10,Win32,60,61025ae37ef11b136ea224fe,,,,,,,,,302,-56,59,1,0,0,response7disk,,0,-17,1,1,0,0,rectangle,-17,1,1,0,0,-17,1,1,0,0,0,119,119,133,1,,,,,,,,
,,,,,,,,,,,,,FF,,,,,,,,0.8475,,,,,,,,,,,,,,,,,,,,,,60fead9c1e43855aa01f97d6,610378bc72c6cfec7a21816f,2021-07-30_05h59.26.238,Simcolourproject_2stim_asymm_v5,2020.2.10,Win32,60,61025ae37ef11b136ea224fe,,,,,,,,,3697,-63,71,1,0,0,response7disk,,0,-10,6,1,0,0,rectangle,58,-48,1,0,0,-3,5,1,0,0,0,120,120,144,1,,response3disk_3,TRUE,5,4,"[185,199,318,54,213,255,134,166,132,204,55,238,256,270,121,193,304,221,296,319]",1.4647,rectangle
,,,,,,,,,,,,,FF,,,,,,,,1.6698,,,,,,,,,,,,,,,,,,,,,,60fead9c1e43855aa01f97d6,610378bc72c6cfec7a21816f,2021-07-30_05h59.26.238,Simcolourproject_2stim_asymm_v5,2020.2.10,Win32,60,61025ae37ef11b136ea224fe,,,,,,,,,4073,-43,-49,1,0,0,response5disk,,3,-5,9,1,0,0,rectangle,-5,9,1,0,0,-5,9,1,0,0,0,121,121,122,1,,,,,,,,
,,,,,,,,,,,,,FF,,,,,,,,1.0573,,,,,,,,,,,,,,,,,,,,,,60fead9c1e43855aa01f97d6,610378bc72c6cfec7a21816f,2021-07-30_05h59.26.238,Simcolourproject_2stim_asymm_v5,2020.2.10,Win32,60,61025ae37ef11b136ea224fe,,,,,,,,,1975,-35,50,1,0,0,response7disk,,0,-2,0,1,0,0,rectangle,-2,0,1,0,0,-2,0,1,0,0,0,122,122,8,1,,,,,,,,
,,,,,,,,,,,,,FF,,,,,,,,1.6498,,,,,,,,,,,,,,,,,,,,,,60fead9c1e43855aa01f97d6,610378bc72c6cfec7a21816f,2021-07-30_05h59.26.238,Simcolourproject_2stim_asymm_v5,2020.2.10,Win32,60,61025ae37ef11b136ea224fe,,,,,,,,,1170,-41,37,1,0,0,response7disk,,1,-7,-6,1,0,0,rectangle,-7,-6,1,0,0,-7,-6,1,0,0,0,123,123,147,1,,,,,,,,
,,,,,,,,,,,,,FF,,,,,,,,1.2568,,,,,,,,,,,,,,,,,,,,,,60fead9c1e43855aa01f97d6,610378bc72c6cfec7a21816f,2021-07-30_05h59.26.238,Simcolourproject_2stim_asymm_v5,2020.2.10,Win32,60,61025ae37ef11b136ea224fe,,,,,,,,,168,-57,-47,1,0,0,response5disk,,2,-25,3,1,0,0,rectangle,-25,3,1,0,0,-25,3,1,0,0,0,124,124,38,1,,,,,,,,
,,,,,,,,,,,,,FF,,,,,,,,0.9926,,,,,,,,,,,,,,,,,,,,,,60fead9c1e43855aa01f97d6,610378bc72c6cfec7a21816f,2021-07-30_05h59.26.238,Simcolourproject_2stim_asymm_v5,2020.2.10,Win32,60,61025ae37ef11b136ea224fe,,,,,,,,,681,-44,62,1,0,0,response7disk,,0,2,-8,1,0,0,rectangle,2,-8,1,0,0,2,-8,1,0,0,0,125,125,71,1,,,,,,,,
,,,,,,,,,,,,,FF,,,,,,,,2.1187,,,,,,,,,,,,,,,,,,,,,,60fead9c1e43855aa01f97d6,610378bc72c6cfec7a21816f,2021-07-30_05h59.26.238,Simcolourproject_2stim_asymm_v5,2020.2.10,Win32,60,61025ae37ef11b136ea224fe,,,,,,,,,3683,-50,-33,1,0,0,response5disk,,2,13,4,1,0,0,rectangle,13,4,1,0,0,13,4,1,0,0,0,126,126,106,1,,,,,,,,
,,,,,,,,,,,,,FF,,,,,,,,1.453,,,,,,,,,,,,,,,,,,,,,,60fead9c1e43855aa01f97d6,610378bc72c6cfec7a21816f,2021-07-30_05h59.26.238,Simcolourproject_2stim_asymm_v5,2020.2.10,Win32,60,61025ae37ef11b136ea224fe,,,,,,,,,59,-38,39,1,0,0,response7disk,,0,-9,6,1,0,0,rectangle,-9,6,1,0,0,-9,6,1,0,0,0,127,127,109,1,,,,,,,,
,,,,,,,,,,,,,FF,,,,,,,,1.6033,,,,,,,,,,,,,,,,,,,,,,60fead9c1e43855aa01f97d6,610378bc72c6cfec7a21816f,2021-07-30_05h59.26.238,Simcolourproject_2stim_asymm_v5,2020.2.10,Win32,60,61025ae37ef11b136ea224fe,,,,,,,,,2256,-59,-51,1,0,0,response5disk,,2,-7,-7,1,0,0,rectangle,-7,-7,1,0,0,-7,-7,1,0,0,0,128,128,152,1,,,,,,,,
,,,,,,,,,,,,,FF,,,,,,,,1.3855,,,,,,,,,,,,,,,,,,,,,,60fead9c1e43855aa01f97d6,610378bc72c6cfec7a21816f,2021-07-30_05h59.26.238,Simcolourproject_2stim_asymm_v5,2020.2.10,Win32,60,61025ae37ef11b136ea224fe,,,,,,,,,3296,26,-27,1,0,0,response3disk,,4,-4,0,1,0,0,rectangle,-4,0,1,0,0,-4,0,1,0,0,0,129,129,66,1,,,,,,,,
,,,,,,,,,,,,,FF,,,,,,,,0.9914,,,,,,,,,,,,,,,,,,,,,,60fead9c1e43855aa01f97d6,610378bc72c6cfec7a21816f,2021-07-30_05h59.26.238,Simcolourproject_2stim_asymm_v5,2020.2.10,Win32,60,61025ae37ef11b136ea224fe,,,,,,,,,2332,-45,50,1,0,0,response7disk,,0,-14,11,1,0,0,rectangle,-14,11,1,0,0,-14,11,1,0,0,0,130,130,129,1,,,,,,,,
,,,,,,,,,,,,,FF,,,,,,,,1.3085,,,,,,,,,,,,,,,,,,,,,,60fead9c1e43855aa01f97d6,610378bc72c6cfec7a21816f,2021-07-30_05h59.26.238,Simcolourproject_2stim_asymm_v5,2020.2.10,Win32,60,61025ae37ef11b136ea224fe,,,,,,,,,1338,-32,31,1,0,0,response7disk,,1,-10,5,1,0,0,rectangle,43,60,1,0,0,4,3,1,0,0,0,131,131,39,1,,response1disk_3,TRUE,7,6,"[185,199,318,54,213,255,134,166,132,204,55,238,256,270,121,193,304,221,296,319]",2.0557,rectangle
,,,,,,,,,,,,,FF,,,,,,,,1.0519,,,,,,,,,,,,,,,,,,,,,,60fead9c1e43855aa01f97d6,610378bc72c6cfec7a21816f,2021-07-30_05h59.26.238,Simcolourproject_2stim_asymm_v5,2020.2.10,Win32,60,61025ae37ef11b136ea224fe,,,,,,,,,501,-57,50,1,0,0,response7disk,,1,11,1,1,0,0,rectangle,11,1,1,0,0,11,1,1,0,0,0,132,132,4,1,,,,,,,,
,,,,,,,,,,,,,FF,,,,,,,,0.9631,,,,,,,,,,,,,,,,,,,,,,60fead9c1e43855aa01f97d6,610378bc72c6cfec7a21816f,2021-07-30_05h59.26.238,Simcolourproject_2stim_asymm_v5,2020.2.10,Win32,60,61025ae37ef11b136ea224fe,,,,,,,,,369,-75,51,1,0,0,response7disk,,1,-8,5,1,0,0,rectangle,-47,77,1,0,0,0,-7,1,0,0,0,133,133,84,1,,response7disk_3,TRUE,0,0,"[185,199,318,54,213,255,134,166,132,204,55,238,256,270,121,193,304,221,296,319]",1.7767,rectangle
,,,,,,,,,,,,,FF,,,,,,,,1.388,,,,,,,,,,,,,,,,,,,,,,60fead9c1e43855aa01f97d6,610378bc72c6cfec7a21816f,2021-07-30_05h59.26.238,Simcolourproject_2stim_asymm_v5,2020.2.10,Win32,60,61025ae37ef11b136ea224fe,,,,,,,,,3429,46,-30,1,0,0,response3disk,,5,1,-7,1,0,0,rectangle,1,-7,1,0,0,1,-7,1,0,0,0,134,134,13,1,,,,,,,,
,,,,,,,,,,,,,FF,,,,,,,,1.1158,,,,,,,,,,,,,,,,,,,,,,60fead9c1e43855aa01f97d6,610378bc72c6cfec7a21816f,2021-07-30_05h59.26.238,Simcolourproject_2stim_asymm_v5,2020.2.10,Win32,60,61025ae37ef11b136ea224fe,,,,,,,,,1292,54,-31,1,0,0,response3disk,,5,-5,-1,1,0,0,rectangle,-5,-1,1,0,0,-5,-1,1,0,0,0,135,135,54,1,,,,,,,,
,,,,,,,,,,,,,FF,,,,,,,,0.9158,,,,,,,,,,,,,,,,,,,,,,60fead9c1e43855aa01f97d6,610378bc72c6cfec7a21816f,2021-07-30_05h59.26.238,Simcolourproject_2stim_asymm_v5,2020.2.10,Win32,60,61025ae37ef11b136ea224fe,,,,,,,,,1710,-64,61,1,0,0,response7disk,,1,-13,12,1,0,0,rectangle,-13,12,1,0,0,-13,12,1,0,0,0,136,136,37,1,,,,,,,,
,,,,,,,,,,,,,FF,,,,,,,,1.0431,,,,,,,,,,,,,,,,,,,,,,60fead9c1e43855aa01f97d6,610378bc72c6cfec7a21816f,2021-07-30_05h59.26.238,Simcolourproject_2stim_asymm_v5,2020.2.10,Win32,60,61025ae37ef11b136ea224fe,,,,,,,,,4215,-52,57,1,0,0,response7disk,,0,-4,9,1,0,0,rectangle,-4,9,1,0,0,-4,9,1,0,0,0,137,137,103,1,,,,,,,,
,,,,,,,,,,,,,FF,,,,,,,,1.3729,,,,,,,,,,,,,,,,,,,,,,60fead9c1e43855aa01f97d6,610378bc72c6cfec7a21816f,2021-07-30_05h59.26.238,Simcolourproject_2stim_asymm_v5,2020.2.10,Win32,60,61025ae37ef11b136ea224fe,,,,,,,,,3009,-59,59,1,0,0,response7disk,,1,-16,6,1,0,0,rectangle,-16,6,1,0,0,-16,6,1,0,0,0,138,138,72,1,,,,,,,,
,,,,,,,,,,,,,FF,,,,,,,,1.7199,,,,,,,,,,,,,,,,,,,,,,60fead9c1e43855aa01f97d6,610378bc72c6cfec7a21816f,2021-07-30_05h59.26.238,Simcolourproject_2stim_asymm_v5,2020.2.10,Win32,60,61025ae37ef11b136ea224fe,,,,,,,,,1613,51,-71,1,0,0,response3disk,,4,-13,14,1,0,0,rectangle,-13,14,1,0,0,-13,14,1,0,0,0,139,139,14,1,,,,,,,,
,,,,,,,,,,,,,FF,,,,,,,,0.9842,,,,,,,,,,,,,,,,,,,,,,60fead9c1e43855aa01f97d6,610378bc72c6cfec7a21816f,2021-07-30_05h59.26.238,Simcolourproject_2stim_asymm_v5,2020.2.10,Win32,60,61025ae37ef11b136ea224fe,,,,,,,,,3653,-34,41,1,0,0,response7disk,,0,-6,4,1,0,0,rectangle,-6,4,1,0,0,-6,4,1,0,0,0,140,140,113,1,,,,,,,,
,,,,,,,,,,,,,FF,,,,,,,,0.9335,,,,,,,,,,,,,,,,,,,,,,60fead9c1e43855aa01f97d6,610378bc72c6cfec7a21816f,2021-07-30_05h59.26.238,Simcolourproject_2stim_asymm_v5,2020.2.10,Win32,60,61025ae37ef11b136ea224fe,,,,,,,,,432,-51,58,1,0,0,response7disk,,0,-10,7,1,0,0,rectangle,-10,7,1,0,0,-10,7,1,0,0,0,141,141,88,1,,,,,,,,
,,,,,,,,,,,,,FF,,,,,,,,1.0586,,,,,,,,,,,,,,,,,,,,,,60fead9c1e43855aa01f97d6,610378bc72c6cfec7a21816f,2021-07-30_05h59.26.238,Simcolourproject_2stim_asymm_v5,2020.2.10,Win32,60,61025ae37ef11b136ea224fe,,,,,,,,,3515,-44,-41,1,0,0,response5disk,,2,-26,-1,1,0,0,rectangle,-26,-1,1,0,0,-26,-1,1,0,0,0,142,142,36,1,,,,,,,,
,,,,,,,,,,,,,FF,,,,,,,,1.4507,,,,,,,,,,,,,,,,,,,,,,60fead9c1e43855aa01f97d6,610378bc72c6cfec7a21816f,2021-07-30_05h59.26.238,Simcolourproject_2stim_asymm_v5,2020.2.10,Win32,60,61025ae37ef11b136ea224fe,,,,,,,,,3062,-44,-18,1,0,0,response5disk,,2,7,1,1,0,0,rectangle,7,1,1,0,0,7,1,1,0,0,0,143,143,101,1,,,,,,,,
,,,,,,,,,,,,,FF,,,,,,,,0.9568,,,,,,,,,,,,,,,,,,,,,,60fead9c1e43855aa01f97d6,610378bc72c6cfec7a21816f,2021-07-30_05h59.26.238,Simcolourproject_2stim_asymm_v5,2020.2.10,Win32,60,61025ae37ef11b136ea224fe,,,,,,,,,729,-37,52,1,0,0,response7disk,,0,-17,2,1,0,0,rectangle,-17,2,1,0,0,-17,2,1,0,0,0,144,144,47,1,,,,,,,,
,,,,,,,,,,,,,FF,,,,,,,,1.1049,,,,,,,,,,,,,,,,,,,,,,60fead9c1e43855aa01f97d6,610378bc72c6cfec7a21816f,2021-07-30_05h59.26.238,Simcolourproject_2stim_asymm_v5,2020.2.10,Win32,60,61025ae37ef11b136ea224fe,,,,,,,,,1676,96,-45,1,0,0,response3disk,,5,4,2,1,0,0,rectangle,4,2,1,0,0,4,2,1,0,0,0,145,145,95,1,,,,,,,,
,,,,,,,,,,,,,FF,,,,,,,,2.3433,,,,,,,,,,,,,,,,,,,,,,60fead9c1e43855aa01f97d6,610378bc72c6cfec7a21816f,2021-07-30_05h59.26.238,Simcolourproject_2stim_asymm_v5,2020.2.10,Win32,60,61025ae37ef11b136ea224fe,,,,,,,,,1116,-43,50,1,0,0,response7disk,,0,-12,14,1,0,0,rectangle,-12,14,1,0,0,-12,14,1,0,0,0,146,146,17,1,,,,,,,,
,,,,,,,,,,,,,FF,,,,,,,,1.3764,,,,,,,,,,,,,,,,,,,,,,60fead9c1e43855aa01f97d6,610378bc72c6cfec7a21816f,2021-07-30_05h59.26.238,Simcolourproject_2stim_asymm_v5,2020.2.10,Win32,60,61025ae37ef11b136ea224fe,,,,,,,,,1891,18,-31,1,0,0,response3disk,,4,1,-8,1,0,0,rectangle,1,-8,1,0,0,1,-8,1,0,0,0,147,147,143,1,,,,,,,,
,,,,,,,,,,,,,FF,,,,,,,,0.9921,,,,,,,,,,,,,,,,,,,,,,60fead9c1e43855aa01f97d6,610378bc72c6cfec7a21816f,2021-07-30_05h59.26.238,Simcolourproject_2stim_asymm_v5,2020.2.10,Win32,60,61025ae37ef11b136ea224fe,,,,,,,,,3808,-49,43,1,0,0,response7disk,,1,5,-3,1,0,0,rectangle,5,-3,1,0,0,5,-3,1,0,0,0,148,148,157,1,,,,,,,,
,,,,,,,,,,,,,FF,,,,,,,,1.3018,,,,,,,,,,,,,,,,,,,,,,60fead9c1e43855aa01f97d6,610378bc72c6cfec7a21816f,2021-07-30_05h59.26.238,Simcolourproject_2stim_asymm_v5,2020.2.10,Win32,60,61025ae37ef11b136ea224fe,,,,,,,,,1167,-33,47,1,0,0,response7disk,,0,-2,3,1,0,0,rectangle,-2,3,1,0,0,-2,3,1,0,0,0,149,149,40,1,,,,,,,,
,,,,,,,,,,,,,FF,,,,,,,,2.37,,,,,,,,,,,,,,,,,,,,,,60fead9c1e43855aa01f97d6,610378bc72c6cfec7a21816f,2021-07-30_05h59.26.238,Simcolourproject_2stim_asymm_v5,2020.2.10,Win32,60,61025ae37ef11b136ea224fe,,,,,,,,,1302,37,-23,1,0,0,response3disk,,5,-12,2,1,0,0,rectangle,-12,2,1,0,0,-12,2,1,0,0,0,150,150,121,1,,,,,,,,
,,,,,,,,,,,,,FF,,,,,,,,1.3589,,,,,,,,,,,,,,,,,,,,,,60fead9c1e43855aa01f97d6,610378bc72c6cfec7a21816f,2021-07-30_05h59.26.238,Simcolourproject_2stim_asymm_v5,2020.2.10,Win32,60,61025ae37ef11b136ea224fe,,,,,,,,,3329,-37,38,1,0,0,response7disk,,0,5,2,1,0,0,rectangle,5,2,1,0,0,5,2,1,0,0,0,151,151,52,1,,,,,,,,
,,,,,,,,,,,,,FF,,,,,,,,1.3547,,,,,,,,,,,,,,,,,,,,,,60fead9c1e43855aa01f97d6,610378bc72c6cfec7a21816f,2021-07-30_05h59.26.238,Simcolourproject_2stim_asymm_v5,2020.2.10,Win32,60,61025ae37ef11b136ea224fe,,,,,,,,,3952,-53,45,1,0,0,response7disk,,1,-4,-3,1,0,0,rectangle,-4,-3,1,0,0,-4,-3,1,0,0,0,152,152,60,1,,,,,,,,
,,,,,,,,,,,,,FF,,,,,,,,0.9845,,,,,,,,,,,,,,,,,,,,,,60fead9c1e43855aa01f97d6,610378bc72c6cfec7a21816f,2021-07-30_05h59.26.238,Simcolourproject_2stim_asymm_v5,2020.2.10,Win32,60,61025ae37ef11b136ea224fe,,,,,,,,,3279,-51,50,1,0,0,response7disk,,1,-8,-3,1,0,0,rectangle,-8,-3,1,0,0,-8,-3,1,0,0,0,153,153,0,1,,,,,,,,
,,,,,,,,,,,,,FF,,,,,,,,0.9189,,,,,,,,,,,,,,,,,,,,,,60fead9c1e43855aa01f97d6,610378bc72c6cfec7a21816f,2021-07-30_05h59.26.238,Simcolourproject_2stim_asymm_v5,2020.2.10,Win32,60,61025ae37ef11b136ea224fe,,,,,,,,,4100,-25,31,1,0,0,response7disk,,0,-6,7,1,0,0,rectangle,-6,7,1,0,0,-6,7,1,0,0,0,154,154,105,1,,,,,,,,
,,,,,,,,,,,,,FF,,,,,,,,0.9104,,,,,,,,,,,,,,,,,,,,,,60fead9c1e43855aa01f97d6,610378bc72c6cfec7a21816f,2021-07-30_05h59.26.238,Simcolourproject_2stim_asymm_v5,2020.2.10,Win32,60,61025ae37ef11b136ea224fe,,,,,,,,,3316,-64,72,1,0,0,response7disk,,0,-12,4,1,0,0,rectangle,-12,4,1,0,0,-12,4,1,0,0,0,155,155,63,1,,,,,,,,
,,,,,,,,,,,,,FF,,,,,,,,0.956,,,,,,,,,,,,,,,,,,,,,,60fead9c1e43855aa01f97d6,610378bc72c6cfec7a21816f,2021-07-30_05h59.26.238,Simcolourproject_2stim_asymm_v5,2020.2.10,Win32,60,61025ae37ef11b136ea224fe,,,,,,,,,3199,-44,61,1,0,0,response7disk,,0,-7,1,1,0,0,rectangle,-7,1,1,0,0,-7,1,1,0,0,0,156,156,92,1,,,,,,,,
,,,,,,,,,,,,,FF,,,,,,,,1.0013,,,,,,,,,,,,,,,,,,,,,,60fead9c1e43855aa01f97d6,610378bc72c6cfec7a21816f,2021-07-30_05h59.26.238,Simcolourproject_2stim_asymm_v5,2020.2.10,Win32,60,61025ae37ef11b136ea224fe,,,,,,,,,377,-58,49,1,0,0,response7disk,,1,-14,2,1,0,0,rectangle,-14,2,1,0,0,-14,2,1,0,0,0,157,157,9,1,,,,,,,,
,,,,,,,,,,,,,FF,,,,,,,,1.1517,,,,,,,,,,,,,,,,,,,,,,60fead9c1e43855aa01f97d6,610378bc72c6cfec7a21816f,2021-07-30_05h59.26.238,Simcolourproject_2stim_asymm_v5,2020.2.10,Win32,60,61025ae37ef11b136ea224fe,,,,,,,,,1065,67,-42,1,0,0,response3disk,,5,-6,6,1,0,0,rectangle,-6,6,1,0,0,-6,6,1,0,0,0,158,158,126,1,,,,,,,,
,,,,,,,,,,,,,FF,,,,,,,,1.2023,,,,,,,,,,,,,,,,,,,,,,60fead9c1e43855aa01f97d6,610378bc72c6cfec7a21816f,2021-07-30_05h59.26.238,Simcolourproject_2stim_asymm_v5,2020.2.10,Win32,60,61025ae37ef11b136ea224fe,,,,,,,,,674,-44,68,1,0,0,response7disk,,0,-7,-5,1,0,0,rectangle,-7,-5,1,0,0,-7,-5,1,0,0,0,159,159,62,1,,,,,,,,
,,,,,,,,,,,,,FF,,,,,,,,1.0197,,,,,,,,,,,,,,,,,,,,,,60fead9c1e43855aa01f97d6,610378bc72c6cfec7a21816f,2021-07-30_05h59.26.238,Simcolourproject_2stim_asymm_v5,2020.2.10,Win32,60,61025ae37ef11b136ea224fe,,,,,,,,,118,-51,61,1,0,0,response7disk,,0,-8,4,1,0,0,rectangle,-8,4,1,0,0,-8,4,1,0,0,1,0,160,101,1,,,,,,,,
,,,,,,,,,,,,,FF,,,,,,,,1.6951,,,,,,,,,,,,,,,,,,,,,,60fead9c1e43855aa01f97d6,610378bc72c6cfec7a21816f,2021-07-30_05h59.26.238,Simcolourproject_2stim_asymm_v5,2020.2.10,Win32,60,61025ae37ef11b136ea224fe,,,,,,,,,1732,-75,75,1,0,0,response7disk,,1,-1,5,1,0,0,rectangle,-1,5,1,0,0,-1,5,1,0,0,1,1,161,136,1,,,,,,,,
,,,,,,,,,,,,,FF,,,,,,,,0.9041,,,,,,,,,,,,,,,,,,,,,,60fead9c1e43855aa01f97d6,610378bc72c6cfec7a21816f,2021-07-30_05h59.26.238,Simcolourproject_2stim_asymm_v5,2020.2.10,Win32,60,61025ae37ef11b136ea224fe,,,,,,,,,3640,-53,63,1,0,0,response7disk,,0,-14,3,1,0,0,rectangle,-14,3,1,0,0,-14,3,1,0,0,1,2,162,59,1,,,,,,,,
,,,,,,,,,,,,,FF,,,,,,,,0.8205,,,,,,,,,,,,,,,,,,,,,,60fead9c1e43855aa01f97d6,610378bc72c6cfec7a21816f,2021-07-30_05h59.26.238,Simcolourproject_2stim_asymm_v5,2020.2.10,Win32,60,61025ae37ef11b136ea224fe,,,,,,,,,2540,-71,64,1,0,0,response7disk,,1,-12,-3,1,0,0,rectangle,-12,-3,1,0,0,-12,-3,1,0,0,1,3,163,106,1,,,,,,,,
,,,,,,,,,,,,,FF,,,,,,,,1.0883,,,,,,,,,,,,,,,,,,,,,,60fead9c1e43855aa01f97d6,610378bc72c6cfec7a21816f,2021-07-30_05h59.26.238,Simcolourproject_2stim_asymm_v5,2020.2.10,Win32,60,61025ae37ef11b136ea224fe,,,,,,,,,2619,-40,76,1,0,0,response7disk,,0,2,10,1,0,0,rectangle,2,10,1,0,0,2,10,1,0,0,1,4,164,56,1,,,,,,,,
,,,,,,,,,,,,,FF,,,,,,,,1.5875,,,,,,,,,,,,,,,,,,,,,,60fead9c1e43855aa01f97d6,610378bc72c6cfec7a21816f,2021-07-30_05h59.26.238,Simcolourproject_2stim_asymm_v5,2020.2.10,Win32,60,61025ae37ef11b136ea224fe,,,,,,,,,2159,-48,-49,1,0,0,response5disk,,3,-7,3,1,0,0,rectangle,49,-105,1,0,0,-15,7,1,0,0,1,5,165,67,1,,response3disk_3,TRUE,4,6,"[185,199,318,54,213,255,134,166,132,204,55,238,256,270,121,193,304,221,296,319]",2.1921,rectangle
,,,,,,,,,,,,,FF,,,,,,,,1.9766,,,,,,,,,,,,,,,,,,,,,,60fead9c1e43855aa01f97d6,610378bc72c6cfec7a21816f,2021-07-30_05h59.26.238,Simcolourproject_2stim_asymm_v5,2020.2.10,Win32,60,61025ae37ef11b136ea224fe,,,,,,,,,226,-49,-42,1,0,0,response5disk,,2,-17,-3,1,0,0,rectangle,-17,-3,1,0,0,-17,-3,1,0,0,1,6,166,99,1,,,,,,,,
,,,,,,,,,,,,,FF,,,,,,,,1.4946,,,,,,,,,,,,,,,,,,,,,,60fead9c1e43855aa01f97d6,610378bc72c6cfec7a21816f,2021-07-30_05h59.26.238,Simcolourproject_2stim_asymm_v5,2020.2.10,Win32,60,61025ae37ef11b136ea224fe,,,,,,,,,451,-60,-17,1,0,0,response5disk,,2,-10,3,1,0,0,rectangle,-10,3,1,0,0,-10,3,1,0,0,1,7,167,60,1,,,,,,,,
,,,,,,,,,,,,,FF,,,,,,,,1.675,,,,,,,,,,,,,,,,,,,,,,60fead9c1e43855aa01f97d6,610378bc72c6cfec7a21816f,2021-07-30_05h59.26.238,Simcolourproject_2stim_asymm_v5,2020.2.10,Win32,60,61025ae37ef11b136ea224fe,,,,,,,,,3272,-47,69,1,0,0,response7disk,,0,0,-3,1,0,0,rectangle,0,-3,1,0,0,0,-3,1,0,0,1,8,168,95,1,,,,,,,,
,,,,,,,,,,,,,FF,,,,,,,,1.3538,,,,,,,,,,,,,,,,,,,,,,60fead9c1e43855aa01f97d6,610378bc72c6cfec7a21816f,2021-07-30_05h59.26.238,Simcolourproject_2stim_asymm_v5,2020.2.10,Win32,60,61025ae37ef11b136ea224fe,,,,,,,,,3155,-53,-53,1,0,0,response5disk,,3,-20,-8,1,0,0,rectangle,-20,-8,1,0,0,-20,-8,1,0,0,1,9,169,34,1,,,,,,,,
,,,,,,,,,,,,,FF,,,,,,,,2.6018,,,,,,,,,,,,,,,,,,,,,,60fead9c1e43855aa01f97d6,610378bc72c6cfec7a21816f,2021-07-30_05h59.26.238,Simcolourproject_2stim_asymm_v5,2020.2.10,Win32,60,61025ae37ef11b136ea224fe,,,,,,,,,1723,-35,36,1,0,0,response7disk,,0,-12,-7,1,0,0,rectangle,-12,-7,1,0,0,-12,-7,1,0,0,1,10,170,75,1,,,,,,,,
,,,,,,,,,,,,,FF,,,,,,,,3.5079,,,,,,,,,,,,,,,,,,,,,,60fead9c1e43855aa01f97d6,610378bc72c6cfec7a21816f,2021-07-30_05h59.26.238,Simcolourproject_2stim_asymm_v5,2020.2.10,Win32,60,61025ae37ef11b136ea224fe,,,,,,,,,488,-34,-36,1,0,0,response5disk,,3,-16,1,1,0,0,rectangle,-16,1,1,0,0,-16,1,1,0,0,1,11,171,85,1,,,,,,,,
,,,,,,,,,,,,,FF,,,,,,,,1.3461,,,,,,,,,,,,,,,,,,,,,,60fead9c1e43855aa01f97d6,610378bc72c6cfec7a21816f,2021-07-30_05h59.26.238,Simcolourproject_2stim_asymm_v5,2020.2.10,Win32,60,61025ae37ef11b136ea224fe,,,,,,,,,2918,-46,52,1,0,0,response7disk,,0,-11,2,1,0,0,rectangle,-11,2,1,0,0,-11,2,1,0,0,1,12,172,0,1,,,,,,,,
,,,,,,,,,,,,,FF,,,,,,,,1.2036,,,,,,,,,,,,,,,,,,,,,,60fead9c1e43855aa01f97d6,610378bc72c6cfec7a21816f,2021-07-30_05h59.26.238,Simcolourproject_2stim_asymm_v5,2020.2.10,Win32,60,61025ae37ef11b136ea224fe,,,,,,,,,3281,-30,-48,1,0,0,response5disk,,3,-15,-1,1,0,0,rectangle,-15,-1,1,0,0,-15,-1,1,0,0,1,13,173,57,1,,,,,,,,
,,,,,,,,,,,,,FF,,,,,,,,1.4749,,,,,,,,,,,,,,,,,,,,,,60fead9c1e43855aa01f97d6,610378bc72c6cfec7a21816f,2021-07-30_05h59.26.238,Simcolourproject_2stim_asymm_v5,2020.2.10,Win32,60,61025ae37ef11b136ea224fe,,,,,,,,,2582,-59,86,1,0,0,response7disk,,0,-15,2,1,0,0,rectangle,-15,2,1,0,0,-15,2,1,0,0,1,14,174,70,1,,,,,,,,
,,,,,,,,,,,,,FF,,,,,,,,1.4497,,,,,,,,,,,,,,,,,,,,,,60fead9c1e43855aa01f97d6,610378bc72c6cfec7a21816f,2021-07-30_05h59.26.238,Simcolourproject_2stim_asymm_v5,2020.2.10,Win32,60,61025ae37ef11b136ea224fe,,,,,,,,,3666,-53,45,1,0,0,response7disk,,1,-5,-5,1,0,0,rectangle,-5,-5,1,0,0,-5,-5,1,0,0,1,15,175,86,1,,,,,,,,
,,,,,,,,,,,,,FF,,,,,,,,1.1882,,,,,,,,,,,,,,,,,,,,,,60fead9c1e43855aa01f97d6,610378bc72c6cfec7a21816f,2021-07-30_05h59.26.238,Simcolourproject_2stim_asymm_v5,2020.2.10,Win32,60,61025ae37ef11b136ea224fe,,,,,,,,,2790,-63,-41,1,0,0,response5disk,,2,-20,0,1,0,0,rectangle,-20,0,1,0,0,-20,0,1,0,0,1,16,176,42,1,,,,,,,,
,,,,,,,,,,,,,FF,,,,,,,,2.3183,,,,,,,,,,,,,,,,,,,,,,60fead9c1e43855aa01f97d6,610378bc72c6cfec7a21816f,2021-07-30_05h59.26.238,Simcolourproject_2stim_asymm_v5,2020.2.10,Win32,60,61025ae37ef11b136ea224fe,,,,,,,,,3441,-35,-41,1,0,0,response5disk,,3,-8,14,1,0,0,rectangle,-8,14,1,0,0,-8,14,1,0,0,1,17,177,109,1,,,,,,,,
,,,,,,,,,,,,,FF,,,,,,,,2.0436,,,,,,,,,,,,,,,,,,,,,,60fead9c1e43855aa01f97d6,610378bc72c6cfec7a21816f,2021-07-30_05h59.26.238,Simcolourproject_2stim_asymm_v5,2020.2.10,Win32,60,61025ae37ef11b136ea224fe,,,,,,,,,3221,-40,-52,1,0,0,response5disk,,3,-19,4,1,0,0,rectangle,-19,4,1,0,0,-19,4,1,0,0,1,18,178,148,1,,,,,,,,
,,,,,,,,,,,,,FF,,,,,,,,1.0193,,,,,,,,,,,,,,,,,,,,,,60fead9c1e43855aa01f97d6,610378bc72c6cfec7a21816f,2021-07-30_05h59.26.238,Simcolourproject_2stim_asymm_v5,2020.2.10,Win32,60,61025ae37ef11b136ea224fe,,,,,,,,,4161,33,36,1,0,0,response1disk,,7,-8,-3,1,0,0,rectangle,-8,-3,1,0,0,-8,-3,1,0,0,1,19,179,48,1,,,,,,,,
,,,,,,,,,,,,,FF,,,,,,,,0.9624,,,,,,,,,,,,,,,,,,,,,,60fead9c1e43855aa01f97d6,610378bc72c6cfec7a21816f,2021-07-30_05h59.26.238,Simcolourproject_2stim_asymm_v5,2020.2.10,Win32,60,61025ae37ef11b136ea224fe,,,,,,,,,2939,-40,57,1,0,0,response7disk,,0,-23,-2,1,0,0,rectangle,-23,-2,1,0,0,-23,-2,1,0,0,1,20,180,52,1,,,,,,,,
,,,,,,,,,,,,,FF,,,,,,,,1.8588,,,,,,,,,,,,,,,,,,,,,,60fead9c1e43855aa01f97d6,610378bc72c6cfec7a21816f,2021-07-30_05h59.26.238,Simcolourproject_2stim_asymm_v5,2020.2.10,Win32,60,61025ae37ef11b136ea224fe,,,,,,,,,365,-54,-41,1,0,0,response5disk,,2,-19,11,1,0,0,rectangle,-19,11,1,0,0,-19,11,1,0,0,1,21,181,82,1,,,,,,,,
,,,,,,,,,,,,,FF,,,,,,,,1.5502,,,,,,,,,,,,,,,,,,,,,,60fead9c1e43855aa01f97d6,610378bc72c6cfec7a21816f,2021-07-30_05h59.26.238,Simcolourproject_2stim_asymm_v5,2020.2.10,Win32,60,61025ae37ef11b136ea224fe,,,,,,,,,3886,-50,-50,1,0,0,response5disk,,3,-23,-11,1,0,0,rectangle,-23,-11,1,0,0,-23,-11,1,0,0,1,22,182,38,1,,,,,,,,
,,,,,,,,,,,,,FF,,,,,,,,1.6609,,,,,,,,,,,,,,,,,,,,,,60fead9c1e43855aa01f97d6,610378bc72c6cfec7a21816f,2021-07-30_05h59.26.238,Simcolourproject_2stim_asymm_v5,2020.2.10,Win32,60,61025ae37ef11b136ea224fe,,,,,,,,,1753,68,-47,1,0,0,response3disk,,5,-13,2,1,0,0,rectangle,-13,2,1,0,0,-13,2,1,0,0,1,23,183,133,1,,,,,,,,
,,,,,,,,,,,,,FF,,,,,,,,0.9521,,,,,,,,,,,,,,,,,,,,,,60fead9c1e43855aa01f97d6,610378bc72c6cfec7a21816f,2021-07-30_05h59.26.238,Simcolourproject_2stim_asymm_v5,2020.2.10,Win32,60,61025ae37ef11b136ea224fe,,,,,,,,,3682,-54,43,1,0,0,response7disk,,1,-17,0,1,0,0,rectangle,-81,-44,1,0,0,-5,6,1,0,0,1,24,184,36,1,,response5disk_3,TRUE,2,6,"[185,199,318,54,213,255,134,166,132,204,55,238,256,270,121,193,304,221,296,319]",2.039,rectangle
,,,,,,,,,,,,,FF,,,,,,,,1.2325,,,,,,,,,,,,,,,,,,,,,,60fead9c1e43855aa01f97d6,610378bc72c6cfec7a21816f,2021-07-30_05h59.26.238,Simcolourproject_2stim_asymm_v5,2020.2.10,Win32,60,61025ae37ef11b136ea224fe,,,,,,,,,4366,63,36,1,0,0,response1disk,,6,-3,-6,1,0,0,rectangle,-3,-6,1,0,0,-3,-6,1,0,0,1,25,185,3,1,,,,,,,,
,,,,,,,,,,,,,FF,,,,,,,,1.0513,,,,,,,,,,,,,,,,,,,,,,60fead9c1e43855aa01f97d6,610378bc72c6cfec7a21816f,2021-07-30_05h59.26.238,Simcolourproject_2stim_asymm_v5,2020.2.10,Win32,60,61025ae37ef11b136ea224fe,,,,,,,,,3394,-62,45,1,0,0,response7disk,,1,-4,6,1,0,0,rectangle,-4,6,1,0,0,-4,6,1,0,0,1,26,186,9,1,,,,,,,,
,,,,,,,,,,,,,FF,,,,,,,,0.8851,,,,,,,,,,,,,,,,,,,,,,60fead9c1e43855aa01f97d6,610378bc72c6cfec7a21816f,2021-07-30_05h59.26.238,Simcolourproject_2stim_asymm_v5,2020.2.10,Win32,60,61025ae37ef11b136ea224fe,,,,,,,,,1619,-55,50,1,0,0,response7disk,,1,-30,2,1,0,0,rectangle,-30,2,1,0,0,-30,2,1,0,0,1,27,187,78,1,,,,,,,,
,,,,,,,,,,,,,FF,,,,,,,,0.896,,,,,,,,,,,,,,,,,,,,,,60fead9c1e43855aa01f97d6,610378bc72c6cfec7a21816f,2021-07-30_05h59.26.238,Simcolourproject_2stim_asymm_v5,2020.2.10,Win32,60,61025ae37ef11b136ea224fe,,,,,,,,,24,-51,53,1,0,0,response7disk,,0,-8,3,1,0,0,rectangle,-8,3,1,0,0,-8,3,1,0,0,1,28,188,125,1,,,,,,,,
,,,,,,,,,,,,,FF,,,,,,,,1.8625,,,,,,,,,,,,,,,,,,,,,,60fead9c1e43855aa01f97d6,610378bc72c6cfec7a21816f,2021-07-30_05h59.26.238,Simcolourproject_2stim_asymm_v5,2020.2.10,Win32,60,61025ae37ef11b136ea224fe,,,,,,,,,3026,-53,-29,1,0,0,response5disk,,2,-11,4,1,0,0,rectangle,-11,4,1,0,0,-11,4,1,0,0,1,29,189,43,1,,,,,,,,
,,,,,,,,,,,,,FF,,,,,,,,2.1022,,,,,,,,,,,,,,,,,,,,,,60fead9c1e43855aa01f97d6,610378bc72c6cfec7a21816f,2021-07-30_05h59.26.238,Simcolourproject_2stim_asymm_v5,2020.2.10,Win32,60,61025ae37ef11b136ea224fe,,,,,,,,,435,-22,-33,1,0,0,response5disk,,3,-5,11,1,0,0,rectangle,-5,11,1,0,0,-5,11,1,0,0,1,30,190,105,1,,,,,,,,
,,,,,,,,,,,,,FF,,,,,,,,6.9266,,,,,,,,,,,,,,,,,,,,,,60fead9c1e43855aa01f97d6,610378bc72c6cfec7a21816f,2021-07-30_05h59.26.238,Simcolourproject_2stim_asymm_v5,2020.2.10,Win32,60,61025ae37ef11b136ea224fe,,,,,,,,,2012,-46,39,1,0,0,response7disk,,1,-16,-14,1,0,0,rectangle,-16,-14,1,0,0,-16,-14,1,0,0,1,31,191,149,1,,,,,,,,
,,,,,,,,,,,,,FF,,,,,,,,2.7524,,,,,,,,,,,,,,,,,,,,,,60fead9c1e43855aa01f97d6,610378bc72c6cfec7a21816f,2021-07-30_05h59.26.238,Simcolourproject_2stim_asymm_v5,2020.2.10,Win32,60,61025ae37ef11b136ea224fe,,,,,,,,,2091,-46,-91,1,0,0,response5disk,,3,-5,6,1,0,0,rectangle,89,-50,1,0,0,2,-8,1,0,0,1,32,192,108,1,,response3disk_3,TRUE,5,5,"[185,199,318,54,213,255,134,166,132,204,55,238,256,270,121,193,304,221,296,319]",5.3364,rectangle
,,,,,,,,,,,,,FF,,,,,,,,1.7444,,,,,,,,,,,,,,,,,,,,,,60fead9c1e43855aa01f97d6,610378bc72c6cfec7a21816f,2021-07-30_05h59.26.238,Simcolourproject_2stim_asymm_v5,2020.2.10,Win32,60,61025ae37ef11b136ea224fe,,,,,,,,,751,-63,-28,1,0,0,response5disk,,2,-6,-3,1,0,0,rectangle,-6,-3,1,0,0,-6,-3,1,0,0,1,33,193,8,1,,,,,,,,
,,,,,,,,,,,,,FF,,,,,,,,1.4185,,,,,,,,,,,,,,,,,,,,,,60fead9c1e43855aa01f97d6,610378bc72c6cfec7a21816f,2021-07-30_05h59.26.238,Simcolourproject_2stim_asymm_v5,2020.2.10,Win32,60,61025ae37ef11b136ea224fe,,,,,,,,,2035,28,-69,1,0,0,response3disk,,4,0,-3,1,0,0,rectangle,0,-3,1,0,0,0,-3,1,0,0,1,34,194,20,1,,,,,,,,
,,,,,,,,,,,,,FF,,,,,,,,2.0266,,,,,,,,,,,,,,,,,,,,,,60fead9c1e43855aa01f97d6,610378bc72c6cfec7a21816f,2021-07-30_05h59.26.238,Simcolourproject_2stim_asymm_v5,2020.2.10,Win32,60,61025ae37ef11b136ea224fe,,,,,,,,,3133,-81,-65,1,0,0,response5disk,,2,0,0,1,0,0,rectangle,0,0,1,0,0,0,0,1,0,0,1,35,195,16,1,,,,,,,,
,,,,,,,,,,,,,FF,,,,,,,,1.468,,,,,,,,,,,,,,,,,,,,,,60fead9c1e43855aa01f97d6,610378bc72c6cfec7a21816f,2021-07-30_05h59.26.238,Simcolourproject_2stim_asymm_v5,2020.2.10,Win32,60,61025ae37ef11b136ea224fe,,,,,,,,,1708,-59,-95,1,0,0,response5disk,,3,-1,-4,1,0,0,rectangle,-1,-4,1,0,0,-1,-4,1,0,0,1,36,196,32,1,,,,,,,,
,,,,,,,,,,,,,FF,,,,,,,,1.0885,,,,,,,,,,,,,,,,,,,,,,60fead9c1e43855aa01f97d6,610378bc72c6cfec7a21816f,2021-07-30_05h59.26.238,Simcolourproject_2stim_asymm_v5,2020.2.10,Win32,60,61025ae37ef11b136ea224fe,,,,,,,,,2912,-64,-27,1,0,0,response5disk,,2,-3,-6,1,0,0,rectangle,-3,-6,1,0,0,-3,-6,1,0,0,1,37,197,26,1,,,,,,,,
,,,,,,,,,,,,,FF,,,,,,,,1.287,,,,,,,,,,,,,,,,,,,,,,60fead9c1e43855aa01f97d6,610378bc72c6cfec7a21816f,2021-07-30_05h59.26.238,Simcolourproject_2stim_asymm_v5,2020.2.10,Win32,60,61025ae37ef11b136ea224fe,,,,,,,,,2353,-62,39,1,0,0,response7disk,,1,-13,2,1,0,0,rectangle,-34,81,1,0,0,0,5,1,0,0,1,38,198,94,1,,response7disk_3,TRUE,0,0,"[185,199,318,54,213,255,134,166,132,204,55,238,256,270,121,193,304,221,296,319]",2.753,rectangle
,,,,,,,,,,,,,FF,,,,,,,,2.6071,,,,,,,,,,,,,,,,,,,,,,60fead9c1e43855aa01f97d6,610378bc72c6cfec7a21816f,2021-07-30_05h59.26.238,Simcolourproject_2stim_asymm_v5,2020.2.10,Win32,60,61025ae37ef11b136ea224fe,,,,,,,,,2555,-58,-90,1,0,0,response5disk,,3,-11,1,1,0,0,rectangle,-11,1,1,0,0,-11,1,1,0,0,1,39,199,150,1,,,,,,,,
,,,,,,,,,,,,,FF,,,,,,,,1.313,,,,,,,,,,,,,,,,,,,,,,60fead9c1e43855aa01f97d6,610378bc72c6cfec7a21816f,2021-07-30_05h59.26.238,Simcolourproject_2stim_asymm_v5,2020.2.10,Win32,60,61025ae37ef11b136ea224fe,,,,,,,,,2896,-42,-71,1,0,0,response5disk,,3,4,1,1,0,0,rectangle,4,1,1,0,0,4,1,1,0,0,1,40,200,28,1,,,,,,,,
,,,,,,,,,,,,,FF,,,,,,,,1.3701,,,,,,,,,,,,,,,,,,,,,,60fead9c1e43855aa01f97d6,610378bc72c6cfec7a21816f,2021-07-30_05h59.26.238,Simcolourproject_2stim_asymm_v5,2020.2.10,Win32,60,61025ae37ef11b136ea224fe,,,,,,,,,437,64,-47,1,0,0,response3disk,,5,-21,2,1,0,0,rectangle,-21,2,1,0,0,-21,2,1,0,0,1,41,201,58,1,,,,,,,,
,,,,,,,,,,,,,FF,,,,,,,,1.3007,,,,,,,,,,,,,,,,,,,,,,60fead9c1e43855aa01f97d6,610378bc72c6cfec7a21816f,2021-07-30_05h59.26.238,Simcolourproject_2stim_asymm_v5,2020.2.10,Win32,60,61025ae37ef11b136ea224fe,,,,,,,,,2170,-69,-30,1,0,0,response5disk,,2,-14,10,1,0,0,rectangle,-14,10,1,0,0,-14,10,1,0,0,1,42,202,126,1,,,,,,,,
,,,,,,,,,,,,,FF,,,,,,,,1.328,,,,,,,,,,,,,,,,,,,,,,60fead9c1e43855aa01f97d6,610378bc72c6cfec7a21816f,2021-07-30_05h59.26.238,Simcolourproject_2stim_asymm_v5,2020.2.10,Win32,60,61025ae37ef11b136ea224fe,,,,,,,,,3850,81,-30,1,0,0,response3disk,,5,-2,8,1,0,0,rectangle,-78,-43,1,0,0,-5,-4,1,0,0,1,43,203,79,1,,response5disk_3,TRUE,2,2,"[185,199,318,54,213,255,134,166,132,204,55,238,256,270,121,193,304,221,296,319]",2.8111,rectangle
,,,,,,,,,,,,,FF,,,,,,,,1.339,,,,,,,,,,,,,,,,,,,,,,60fead9c1e43855aa01f97d6,610378bc72c6cfec7a21816f,2021-07-30_05h59.26.238,Simcolourproject_2stim_asymm_v5,2020.2.10,Win32,60,61025ae37ef11b136ea224fe,,,,,,,,,4299,-34,81,1,0,0,response7disk,,0,-13,-10,1,0,0,rectangle,-13,-10,1,0,0,-13,-10,1,0,0,1,44,204,115,1,,,,,,,,
,,,,,,,,,,,,,FF,,,,,,,,0.9342,,,,,,,,,,,,,,,,,,,,,,60fead9c1e43855aa01f97d6,610378bc72c6cfec7a21816f,2021-07-30_05h59.26.238,Simcolourproject_2stim_asymm_v5,2020.2.10,Win32,60,61025ae37ef11b136ea224fe,,,,,,,,,838,-26,65,1,0,0,response7disk,,0,-2,11,1,0,0,rectangle,-2,11,1,0,0,-2,11,1,0,0,1,45,205,137,1,,,,,,,,
,,,,,,,,,,,,,FF,,,,,,,,0.9697,,,,,,,,,,,,,,,,,,,,,,60fead9c1e43855aa01f97d6,610378bc72c6cfec7a21816f,2021-07-30_05h59.26.238,Simcolourproject_2stim_asymm_v5,2020.2.10,Win32,60,61025ae37ef11b136ea224fe,,,,,,,,,1693,-48,106,1,0,0,response7disk,,0,-9,-2,1,0,0,rectangle,-9,-2,1,0,0,-9,-2,1,0,0,1,46,206,88,1,,,,,,,,
,,,,,,,,,,,,,FF,,,,,,,,1.3441,,,,,,,,,,,,,,,,,,,,,,60fead9c1e43855aa01f97d6,610378bc72c6cfec7a21816f,2021-07-30_05h59.26.238,Simcolourproject_2stim_asymm_v5,2020.2.10,Win32,60,61025ae37ef11b136ea224fe,,,,,,,,,915,-49,88,1,0,0,response7disk,,0,-14,6,1,0,0,rectangle,-14,6,1,0,0,-14,6,1,0,0,1,47,207,53,1,,,,,,,,
,,,,,,,,,,,,,FF,,,,,,,,0.9172,,,,,,,,,,,,,,,,,,,,,,60fead9c1e43855aa01f97d6,610378bc72c6cfec7a21816f,2021-07-30_05h59.26.238,Simcolourproject_2stim_asymm_v5,2020.2.10,Win32,60,61025ae37ef11b136ea224fe,,,,,,,,,3990,-49,103,1,0,0,response7disk,,0,10,-1,1,0,0,rectangle,10,-1,1,0,0,10,-1,1,0,0,1,48,208,40,1,,,,,,,,
,,,,,,,,,,,,,FF,,,,,,,,0.7997,,,,,,,,,,,,,,,,,,,,,,60fead9c1e43855aa01f97d6,610378bc72c6cfec7a21816f,2021-07-30_05h59.26.238,Simcolourproject_2stim_asymm_v5,2020.2.10,Win32,60,61025ae37ef11b136ea224fe,,,,,,,,,936,-43,94,1,0,0,response7disk,,0,-18,-10,1,0,0,rectangle,-18,-10,1,0,0,-18,-10,1,0,0,1,49,209,124,1,,,,,,,,
,,,,,,,,,,,,,FF,,,,,,,,1.2693,,,,,,,,,,,,,,,,,,,,,,60fead9c1e43855aa01f97d6,610378bc72c6cfec7a21816f,2021-07-30_05h59.26.238,Simcolourproject_2stim_asymm_v5,2020.2.10,Win32,60,61025ae37ef11b136ea224fe,,,,,,,,,1183,-54,98,1,0,0,response7disk,,0,-11,3,1,0,0,rectangle,-11,3,1,0,0,-11,3,1,0,0,1,50,210,37,1,,,,,,,,
,,,,,,,,,,,,,FF,,,,,,,,1.7314,,,,,,,,,,,,,,,,,,,,,,60fead9c1e43855aa01f97d6,610378bc72c6cfec7a21816f,2021-07-30_05h59.26.238,Simcolourproject_2stim_asymm_v5,2020.2.10,Win32,60,61025ae37ef11b136ea224fe,,,,,,,,,4367,75,38,1,0,0,response1disk,,6,-1,14,1,0,0,rectangle,-1,14,1,0,0,-1,14,1,0,0,1,51,211,91,1,,,,,,,,
,,,,,,,,,,,,,FF,,,,,,,,0.984,,,,,,,,,,,,,,,,,,,,,,60fead9c1e43855aa01f97d6,610378bc72c6cfec7a21816f,2021-07-30_05h59.26.238,Simcolourproject_2stim_asymm_v5,2020.2.10,Win32,60,61025ae37ef11b136ea224fe,,,,,,,,,3348,-63,37,1,0,0,response7disk,,1,-17,-8,1,0,0,rectangle,-40,-90,1,0,0,8,14,1,0,0,1,52,212,18,1,,response5disk_3,TRUE,3,3,"[185,199,318,54,213,255,134,166,132,204,55,238,256,270,121,193,304,221,296,319]",2.7088,rectangle
,,,,,,,,,,,,,FF,,,,,,,,2.5079,,,,,,,,,,,,,,,,,,,,,,60fead9c1e43855aa01f97d6,610378bc72c6cfec7a21816f,2021-07-30_05h59.26.238,Simcolourproject_2stim_asymm_v5,2020.2.10,Win32,60,61025ae37ef11b136ea224fe,,,,,,,,,2588,-77,53,1,0,0,response7disk,,1,-11,-3,1,0,0,rectangle,-11,-3,1,0,0,-11,-3,1,0,0,1,53,213,156,1,,,,,,,,
,,,,,,,,,,,,,FF,,,,,,,,1.1927,,,,,,,,,,,,,,,,,,,,,,60fead9c1e43855aa01f97d6,610378bc72c6cfec7a21816f,2021-07-30_05h59.26.238,Simcolourproject_2stim_asymm_v5,2020.2.10,Win32,60,61025ae37ef11b136ea224fe,,,,,,,,,2770,-41,56,1,0,0,response7disk,,0,2,-7,1,0,0,rectangle,2,-7,1,0,0,2,-7,1,0,0,1,54,214,159,1,,,,,,,,
,,,,,,,,,,,,,FF,,,,,,,,1.0956,,,,,,,,,,,,,,,,,,,,,,60fead9c1e43855aa01f97d6,610378bc72c6cfec7a21816f,2021-07-30_05h59.26.238,Simcolourproject_2stim_asymm_v5,2020.2.10,Win32,60,61025ae37ef11b136ea224fe,,,,,,,,,2450,-34,93,1,0,0,response7disk,,0,-15,4,1,0,0,rectangle,-15,4,1,0,0,-15,4,1,0,0,1,55,215,49,1,,,,,,,,
,,,,,,,,,,,,,FF,,,,,,,,0.8384,,,,,,,,,,,,,,,,,,,,,,60fead9c1e43855aa01f97d6,610378bc72c6cfec7a21816f,2021-07-30_05h59.26.238,Simcolourproject_2stim_asymm_v5,2020.2.10,Win32,60,61025ae37ef11b136ea224fe,,,,,,,,,4192,-60,74,1,0,0,response7disk,,0,-21,1,1,0,0,rectangle,-21,1,1,0,0,-21,1,1,0,0,1,56,216,19,1,,,,,,,,
,,,,,,,,,,,,,FF,,,,,,,,0.9196,,,,,,,,,,,,,,,,,,,,,,60fead9c1e43855aa01f97d6,610378bc72c6cfec7a21816f,2021-07-30_05h59.26.238,Simcolourproject_2stim_asymm_v5,2020.2.10,Win32,60,61025ae37ef11b136ea224fe,,,,,,,,,2858,-52,114,1,0,0,response7disk,,0,-8,1,1,0,0,rectangle,-8,1,1,0,0,-8,1,1,0,0,1,57,217,30,1,,,,,,,,
,,,,,,,,,,,,,FF,,,,,,,,1.0578,,,,,,,,,,,,,,,,,,,,,,60fead9c1e43855aa01f97d6,610378bc72c6cfec7a21816f,2021-07-30_05h59.26.238,Simcolourproject_2stim_asymm_v5,2020.2.10,Win32,60,61025ae37ef11b136ea224fe,,,,,,,,,960,-33,82,1,0,0,response7disk,,0,1,-4,1,0,0,rectangle,1,-4,1,0,0,1,-4,1,0,0,1,58,218,61,1,,,,,,,,
,,,,,,,,,,,,,FF,,,,,,,,0.91,,,,,,,,,,,,,,,,,,,,,,60fead9c1e43855aa01f97d6,610378bc72c6cfec7a21816f,2021-07-30_05h59.26.238,Simcolourproject_2stim_asymm_v5,2020.2.10,Win32,60,61025ae37ef11b136ea224fe,,,,,,,,,3371,-51,75,1,0,0,response7disk,,0,-5,-3,1,0,0,rectangle,-5,-3,1,0,0,-5,-3,1,0,0,1,59,219,89,1,,,,,,,,
,,,,,,,,,,,,,FF,,,,,,,,1.2007,,,,,,,,,,,,,,,,,,,,,,60fead9c1e43855aa01f97d6,610378bc72c6cfec7a21816f,2021-07-30_05h59.26.238,Simcolourproject_2stim_asymm_v5,2020.2.10,Win32,60,61025ae37ef11b136ea224fe,,,,,,,,,2183,-65,-31,1,0,0,response5disk,,2,-7,-8,1,0,0,rectangle,75,43,1,0,0,-12,0,1,0,0,1,60,220,120,1,,response1disk_3,TRUE,6,6,"[185,199,318,54,213,255,134,166,132,204,55,238,256,270,121,193,304,221,296,319]",2.0503,rectangle
,,,,,,,,,,,,,FF,,,,,,,,1.1107,,,,,,,,,,,,,,,,,,,,,,60fead9c1e43855aa01f97d6,610378bc72c6cfec7a21816f,2021-07-30_05h59.26.238,Simcolourproject_2stim_asymm_v5,2020.2.10,Win32,60,61025ae37ef11b136ea224fe,,,,,,,,,420,-60,-86,1,0,0,response5disk,,3,-2,7,1,0,0,rectangle,-2,7,1,0,0,-2,7,1,0,0,1,61,221,113,1,,,,,,,,
,,,,,,,,,,,,,FF,,,,,,,,1.4771,,,,,,,,,,,,,,,,,,,,,,60fead9c1e43855aa01f97d6,610378bc72c6cfec7a21816f,2021-07-30_05h59.26.238,Simcolourproject_2stim_asymm_v5,2020.2.10,Win32,60,61025ae37ef11b136ea224fe,,,,,,,,,53,-43,-85,1,0,0,response5disk,,3,8,5,1,0,0,rectangle,8,5,1,0,0,8,5,1,0,0,1,62,222,10,1,,,,,,,,
,,,,,,,,,,,,,FF,,,,,,,,6.3,,,,,,,,,,,,,,,,,,,,,,60fead9c1e43855aa01f97d6,610378bc72c6cfec7a21816f,2021-07-30_05h59.26.238,Simcolourproject_2stim_asymm_v5,2020.2.10,Win32,60,61025ae37ef11b136ea224fe,,,,,,,,,1014,-30,78,1,0,0,response7disk,,0,-8,2,1,0,0,rectangle,-8,2,1,0,0,-8,2,1,0,0,1,63,223,22,1,,,,,,,,
,,,,,,,,,,,,,FF,,,,,,,,5.6173,,,,,,,,,,,,,,,,,,,,,,60fead9c1e43855aa01f97d6,610378bc72c6cfec7a21816f,2021-07-30_05h59.26.238,Simcolourproject_2stim_asymm_v5,2020.2.10,Win32,60,61025ae37ef11b136ea224fe,,,,,,,,,1706,-51,66,1,0,0,response7disk,,0,-25,-2,1,0,0,rectangle,-25,-2,1,0,0,-25,-2,1,0,0,1,64,224,6,1,,,,,,,,
,,,,,,,,,,,,,FF,,,,,,,,1.9927,,,,,,,,,,,,,,,,,,,,,,60fead9c1e43855aa01f97d6,610378bc72c6cfec7a21816f,2021-07-30_05h59.26.238,Simcolourproject_2stim_asymm_v5,2020.2.10,Win32,60,61025ae37ef11b136ea224fe,,,,,,,,,1547,-31,83,1,0,0,response7disk,,0,-4,-3,1,0,0,rectangle,-4,-3,1,0,0,-4,-3,1,0,0,1,65,225,54,1,,,,,,,,
,,,,,,,,,,,,,FF,,,,,,,,6.277,,,,,,,,,,,,,,,,,,,,,,60fead9c1e43855aa01f97d6,610378bc72c6cfec7a21816f,2021-07-30_05h59.26.238,Simcolourproject_2stim_asymm_v5,2020.2.10,Win32,60,61025ae37ef11b136ea224fe,,,,,,,,,26,-52,-61,1,0,0,response5disk,,3,-23,-1,1,0,0,rectangle,-23,-1,1,0,0,-23,-1,1,0,0,1,66,226,152,1,,,,,,,,
,,,,,,,,,,,,,FF,,,,,,,,1.6428,,,,,,,,,,,,,,,,,,,,,,60fead9c1e43855aa01f97d6,610378bc72c6cfec7a21816f,2021-07-30_05h59.26.238,Simcolourproject_2stim_asymm_v5,2020.2.10,Win32,60,61025ae37ef11b136ea224fe,,,,,,,,,35,-50,-29,1,0,0,response5disk,,2,1,1,1,0,0,rectangle,1,1,1,0,0,1,1,1,0,0,1,67,227,73,1,,,,,,,,
,,,,,,,,,,,,,FF,,,,,,,,1.6791,,,,,,,,,,,,,,,,,,,,,,60fead9c1e43855aa01f97d6,610378bc72c6cfec7a21816f,2021-07-30_05h59.26.238,Simcolourproject_2stim_asymm_v5,2020.2.10,Win32,60,61025ae37ef11b136ea224fe,,,,,,,,,3051,-27,-49,1,0,0,response5disk,,3,4,9,1,0,0,rectangle,4,9,1,0,0,4,9,1,0,0,1,68,228,144,1,,,,,,,,
,,,,,,,,,,,,,FF,,,,,,,,1.4165,,,,,,,,,,,,,,,,,,,,,,60fead9c1e43855aa01f97d6,610378bc72c6cfec7a21816f,2021-07-30_05h59.26.238,Simcolourproject_2stim_asymm_v5,2020.2.10,Win32,60,61025ae37ef11b136ea224fe,,,,,,,,,1879,-58,20,1,0,0,response7disk,,1,-15,7,1,0,0,rectangle,-15,7,1,0,0,-15,7,1,0,0,1,69,229,24,1,,,,,,,,
,,,,,,,,,,,,,FF,,,,,,,,1.2325,,,,,,,,,,,,,,,,,,,,,,60fead9c1e43855aa01f97d6,610378bc72c6cfec7a21816f,2021-07-30_05h59.26.238,Simcolourproject_2stim_asymm_v5,2020.2.10,Win32,60,61025ae37ef11b136ea224fe,,,,,,,,,1409,-42,81,1,0,0,response7disk,,0,-16,0,1,0,0,rectangle,-16,0,1,0,0,-16,0,1,0,0,1,70,230,119,1,,,,,,,,
,,,,,,,,,,,,,FF,,,,,,,,1.5752,,,,,,,,,,,,,,,,,,,,,,60fead9c1e43855aa01f97d6,610378bc72c6cfec7a21816f,2021-07-30_05h59.26.238,Simcolourproject_2stim_asymm_v5,2020.2.10,Win32,60,61025ae37ef11b136ea224fe,,,,,,,,,2462,-47,-16,1,0,0,response5disk,,2,-1,5,1,0,0,rectangle,-1,5,1,0,0,-1,5,1,0,0,1,71,231,117,1,,,,,,,,
,,,,,,,,,,,,,FF,,,,,,,,1.1694,,,,,,,,,,,,,,,,,,,,,,60fead9c1e43855aa01f97d6,610378bc72c6cfec7a21816f,2021-07-30_05h59.26.238,Simcolourproject_2stim_asymm_v5,2020.2.10,Win32,60,61025ae37ef11b136ea224fe,,,,,,,,,42,-68,38,1,0,0,response7disk,,1,-1,0,1,0,0,rectangle,-1,0,1,0,0,-1,0,1,0,0,1,72,232,77,1,,,,,,,,
,,,,,,,,,,,,,FF,,,,,,,,1.1947,,,,,,,,,,,,,,,,,,,,,,60fead9c1e43855aa01f97d6,610378bc72c6cfec7a21816f,2021-07-30_05h59.26.238,Simcolourproject_2stim_asymm_v5,2020.2.10,Win32,60,61025ae37ef11b136ea224fe,,,,,,,,,1964,91,-29,1,0,0,response3disk,,5,3,1,1,0,0,rectangle,3,1,1,0,0,3,1,1,0,0,1,73,233,135,1,,,,,,,,
,,,,,,,,,,,,,FF,,,,,,,,2.1177,,,,,,,,,,,,,,,,,,,,,,60fead9c1e43855aa01f97d6,610378bc72c6cfec7a21816f,2021-07-30_05h59.26.238,Simcolourproject_2stim_asymm_v5,2020.2.10,Win32,60,61025ae37ef11b136ea224fe,,,,,,,,,614,-38,-43,1,0,0,response5disk,,3,-25,4,1,0,0,rectangle,-25,4,1,0,0,-25,4,1,0,0,1,74,234,134,1,,,,,,,,
,,,,,,,,,,,,,FF,,,,,,,,1.1551,,,,,,,,,,,,,,,,,,,,,,60fead9c1e43855aa01f97d6,610378bc72c6cfec7a21816f,2021-07-30_05h59.26.238,Simcolourproject_2stim_asymm_v5,2020.2.10,Win32,60,61025ae37ef11b136ea224fe,,,,,,,,,480,-71,63,1,0,0,response7disk,,1,-13,14,1,0,0,rectangle,-13,14,1,0,0,-13,14,1,0,0,1,75,235,154,1,,,,,,,,
,,,,,,,,,,,,,FF,,,,,,,,1.1808,,,,,,,,,,,,,,,,,,,,,,60fead9c1e43855aa01f97d6,610378bc72c6cfec7a21816f,2021-07-30_05h59.26.238,Simcolourproject_2stim_asymm_v5,2020.2.10,Win32,60,61025ae37ef11b136ea224fe,,,,,,,,,3434,70,42,1,0,0,response1disk,,6,-22,2,1,0,0,rectangle,-22,2,1,0,0,-22,2,1,0,0,1,76,236,147,1,,,,,,,,
,,,,,,,,,,,,,FF,,,,,,,,1.0318,,,,,,,,,,,,,,,,,,,,,,60fead9c1e43855aa01f97d6,610378bc72c6cfec7a21816f,2021-07-30_05h59.26.238,Simcolourproject_2stim_asymm_v5,2020.2.10,Win32,60,61025ae37ef11b136ea224fe,,,,,,,,,2223,-64,64,1,0,0,response7disk,,1,-15,7,1,0,0,rectangle,97,-73,1,0,0,-2,2,1,0,0,1,77,237,83,1,,response3disk_3,TRUE,5,5,"[185,199,318,54,213,255,134,166,132,204,55,238,256,270,121,193,304,221,296,319]",4.2952,rectangle
,,,,,,,,,,,,,FF,,,,,,,,1.0206,,,,,,,,,,,,,,,,,,,,,,60fead9c1e43855aa01f97d6,610378bc72c6cfec7a21816f,2021-07-30_05h59.26.238,Simcolourproject_2stim_asymm_v5,2020.2.10,Win32,60,61025ae37ef11b136ea224fe,,,,,,,,,1984,-55,41,1,0,0,response7disk,,1,-8,6,1,0,0,rectangle,-8,6,1,0,0,-8,6,1,0,0,1,78,238,110,1,,,,,,,,
,,,,,,,,,,,,,FF,,,,,,,,1.3057,,,,,,,,,,,,,,,,,,,,,,60fead9c1e43855aa01f97d6,610378bc72c6cfec7a21816f,2021-07-30_05h59.26.238,Simcolourproject_2stim_asymm_v5,2020.2.10,Win32,60,61025ae37ef11b136ea224fe,,,,,,,,,477,-30,55,1,0,0,response7disk,,0,-5,7,1,0,0,rectangle,-5,7,1,0,0,-5,7,1,0,0,1,79,239,4,1,,,,,,,,
,,,,,,,,,,,,,FF,,,,,,,,1.0518,,,,,,,,,,,,,,,,,,,,,,60fead9c1e43855aa01f97d6,610378bc72c6cfec7a21816f,2021-07-30_05h59.26.238,Simcolourproject_2stim_asymm_v5,2020.2.10,Win32,60,61025ae37ef11b136ea224fe,,,,,,,,,1393,-40,56,1,0,0,response7disk,,0,-16,-9,1,0,0,rectangle,-16,-9,1,0,0,-16,-9,1,0,0,1,80,240,132,1,,,,,,,,
,,,,,,,,,,,,,FF,,,,,,,,1.2352,,,,,,,,,,,,,,,,,,,,,,60fead9c1e43855aa01f97d6,610378bc72c6cfec7a21816f,2021-07-30_05h59.26.238,Simcolourproject_2stim_asymm_v5,2020.2.10,Win32,60,61025ae37ef11b136ea224fe,,,,,,,,,93,52,89,1,0,0,response1disk,,7,-14,4,1,0,0,rectangle,-14,4,1,0,0,-14,4,1,0,0,1,81,241,97,1,,,,,,,,
,,,,,,,,,,,,,FF,,,,,,,,0.9104,,,,,,,,,,,,,,,,,,,,,,60fead9c1e43855aa01f97d6,610378bc72c6cfec7a21816f,2021-07-30_05h59.26.238,Simcolourproject_2stim_asymm_v5,2020.2.10,Win32,60,61025ae37ef11b136ea224fe,,,,,,,,,3088,-44,108,1,0,0,response7disk,,0,-14,-6,1,0,0,rectangle,-14,-6,1,0,0,-14,-6,1,0,0,1,82,242,116,1,,,,,,,,
,,,,,,,,,,,,,FF,,,,,,,,1.2716,,,,,,,,,,,,,,,,,,,,,,60fead9c1e43855aa01f97d6,610378bc72c6cfec7a21816f,2021-07-30_05h59.26.238,Simcolourproject_2stim_asymm_v5,2020.2.10,Win32,60,61025ae37ef11b136ea224fe,,,,,,,,,3357,-89,46,1,0,0,response7disk,,1,-13,9,1,0,0,rectangle,-13,9,1,0,0,-13,9,1,0,0,1,83,243,107,1,,,,,,,,
,,,,,,,,,,,,,FF,,,,,,,,0.9196,,,,,,,,,,,,,,,,,,,,,,60fead9c1e43855aa01f97d6,610378bc72c6cfec7a21816f,2021-07-30_05h59.26.238,Simcolourproject_2stim_asymm_v5,2020.2.10,Win32,60,61025ae37ef11b136ea224fe,,,,,,,,,1173,-92,57,1,0,0,response7disk,,1,-10,-4,1,0,0,rectangle,-10,-4,1,0,0,-10,-4,1,0,0,1,84,244,71,1,,,,,,,,
,,,,,,,,,,,,,FF,,,,,,,,2.0083,,,,,,,,,,,,,,,,,,,,,,60fead9c1e43855aa01f97d6,610378bc72c6cfec7a21816f,2021-07-30_05h59.26.238,Simcolourproject_2stim_asymm_v5,2020.2.10,Win32,60,61025ae37ef11b136ea224fe,,,,,,,,,1675,-64,-28,1,0,0,response5disk,,2,-9,-1,1,0,0,rectangle,-9,-1,1,0,0,-9,-1,1,0,0,1,85,245,65,1,,,,,,,,
,,,,,,,,,,,,,FF,,,,,,,,1.7983,,,,,,,,,,,,,,,,,,,,,,60fead9c1e43855aa01f97d6,610378bc72c6cfec7a21816f,2021-07-30_05h59.26.238,Simcolourproject_2stim_asymm_v5,2020.2.10,Win32,60,61025ae37ef11b136ea224fe,,,,,,,,,3431,-42,-70,1,0,0,response5disk,,3,-9,-3,1,0,0,rectangle,-9,-3,1,0,0,-9,-3,1,0,0,1,86,246,81,1,,,,,,,,
,,,,,,,,,,,,,FF,,,,,,,,0.9656,,,,,,,,,,,,,,,,,,,,,,60fead9c1e43855aa01f97d6,610378bc72c6cfec7a21816f,2021-07-30_05h59.26.238,Simcolourproject_2stim_asymm_v5,2020.2.10,Win32,60,61025ae37ef11b136ea224fe,,,,,,,,,652,-84,46,1,0,0,response7disk,,1,-4,-3,1,0,0,rectangle,-4,-3,1,0,0,-4,-3,1,0,0,1,87,247,92,1,,,,,,,,
,,,,,,,,,,,,,FF,,,,,,,,0.8472,,,,,,,,,,,,,,,,,,,,,,60fead9c1e43855aa01f97d6,610378bc72c6cfec7a21816f,2021-07-30_05h59.26.238,Simcolourproject_2stim_asymm_v5,2020.2.10,Win32,60,61025ae37ef11b136ea224fe,,,,,,,,,1477,-34,86,1,0,0,response7disk,,0,3,-3,1,0,0,rectangle,3,-3,1,0,0,3,-3,1,0,0,1,88,248,139,1,,,,,,,,
,,,,,,,,,,,,,FF,,,,,,,,1.335,,,,,,,,,,,,,,,,,,,,,,60fead9c1e43855aa01f97d6,610378bc72c6cfec7a21816f,2021-07-30_05h59.26.238,Simcolourproject_2stim_asymm_v5,2020.2.10,Win32,60,61025ae37ef11b136ea224fe,,,,,,,,,2510,-65,23,1,0,0,response7disk,,1,-20,-8,1,0,0,rectangle,-20,-8,1,0,0,-20,-8,1,0,0,1,89,249,138,1,,,,,,,,
,,,,,,,,,,,,,FF,,,,,,,,1.04,,,,,,,,,,,,,,,,,,,,,,60fead9c1e43855aa01f97d6,610378bc72c6cfec7a21816f,2021-07-30_05h59.26.238,Simcolourproject_2stim_asymm_v5,2020.2.10,Win32,60,61025ae37ef11b136ea224fe,,,,,,,,,4254,79,-49,1,0,0,response3disk,,5,-18,11,1,0,0,rectangle,-18,11,1,0,0,-18,11,1,0,0,1,90,250,118,1,,,,,,,,
,,,,,,,,,,,,,FF,,,,,,,,1.0046,,,,,,,,,,,,,,,,,,,,,,60fead9c1e43855aa01f97d6,610378bc72c6cfec7a21816f,2021-07-30_05h59.26.238,Simcolourproject_2stim_asymm_v5,2020.2.10,Win32,60,61025ae37ef11b136ea224fe,,,,,,,,,69,75,-36,1,0,0,response3disk,,5,-6,-4,1,0,0,rectangle,-6,-4,1,0,0,-6,-4,1,0,0,1,91,251,127,1,,,,,,,,
,,,,,,,,,,,,,FF,,,,,,,,1.8836,,,,,,,,,,,,,,,,,,,,,,60fead9c1e43855aa01f97d6,610378bc72c6cfec7a21816f,2021-07-30_05h59.26.238,Simcolourproject_2stim_asymm_v5,2020.2.10,Win32,60,61025ae37ef11b136ea224fe,,,,,,,,,2532,-73,-26,1,0,0,response5disk,,2,-18,9,1,0,0,rectangle,-18,9,1,0,0,-18,9,1,0,0,1,92,252,100,1,,,,,,,,
,,,,,,,,,,,,,FF,,,,,,,,1.218,,,,,,,,,,,,,,,,,,,,,,60fead9c1e43855aa01f97d6,610378bc72c6cfec7a21816f,2021-07-30_05h59.26.238,Simcolourproject_2stim_asymm_v5,2020.2.10,Win32,60,61025ae37ef11b136ea224fe,,,,,,,,,429,-71,39,1,0,0,response7disk,,1,13,-7,1,0,0,rectangle,13,-7,1,0,0,13,-7,1,0,0,1,93,253,51,1,,,,,,,,
,,,,,,,,,,,,,FF,,,,,,,,1.8292,,,,,,,,,,,,,,,,,,,,,,60fead9c1e43855aa01f97d6,610378bc72c6cfec7a21816f,2021-07-30_05h59.26.238,Simcolourproject_2stim_asymm_v5,2020.2.10,Win32,60,61025ae37ef11b136ea224fe,,,,,,,,,3019,-49,72,1,0,0,response7disk,,0,-4,-3,1,0,0,rectangle,101,-43,1,0,0,8,15,1,0,0,1,94,254,31,1,,response3disk_3,TRUE,5,5,"[185,199,318,54,213,255,134,166,132,204,55,238,256,270,121,193,304,221,296,319]",1.9557,rectangle
,,,,,,,,,,,,,FF,,,,,,,,9.656,,,,,,,,,,,,,,,,,,,,,,60fead9c1e43855aa01f97d6,610378bc72c6cfec7a21816f,2021-07-30_05h59.26.238,Simcolourproject_2stim_asymm_v5,2020.2.10,Win32,60,61025ae37ef11b136ea224fe,,,,,,,,,981,-40,82,1,0,0,response7disk,,0,-11,0,1,0,0,rectangle,-86,-40,1,0,0,-11,-2,1,0,0,1,95,255,14,1,,response5disk_3,TRUE,2,2,"[185,199,318,54,213,255,134,166,132,204,55,238,256,270,121,193,304,221,296,319]",2.032,rectangle
,,,,,,,,,,,,,FF,,,,,,,,9.6271,,,,,,,,,,,,,,,,,,,,,,60fead9c1e43855aa01f97d6,610378bc72c6cfec7a21816f,2021-07-30_05h59.26.238,Simcolourproject_2stim_asymm_v5,2020.2.10,Win32,60,61025ae37ef11b136ea224fe,,,,,,,,,907,58,23,1,0,0,response1disk,,6,-26,-5,1,0,0,rectangle,-26,-5,1,0,0,-26,-5,1,0,0,1,96,256,45,1,,,,,,,,
,,,,,,,,,,,,,FF,,,,,,,,1.1952,,,,,,,,,,,,,,,,,,,,,,60fead9c1e43855aa01f97d6,610378bc72c6cfec7a21816f,2021-07-30_05h59.26.238,Simcolourproject_2stim_asymm_v5,2020.2.10,Win32,60,61025ae37ef11b136ea224fe,,,,,,,,,553,-66,51,1,0,0,response7disk,,1,0,8,1,0,0,rectangle,0,8,1,0,0,0,8,1,0,0,1,97,257,55,1,,,,,,,,
,,,,,,,,,,,,,FF,,,,,,,,1.2211,,,,,,,,,,,,,,,,,,,,,,60fead9c1e43855aa01f97d6,610378bc72c6cfec7a21816f,2021-07-30_05h59.26.238,Simcolourproject_2stim_asymm_v5,2020.2.10,Win32,60,61025ae37ef11b136ea224fe,,,,,,,,,326,-76,42,1,0,0,response7disk,,1,-28,0,1,0,0,rectangle,-28,0,1,0,0,-28,0,1,0,0,1,98,258,29,1,,,,,,,,
,,,,,,,,,,,,,FF,,,,,,,,1.2231,,,,,,,,,,,,,,,,,,,,,,60fead9c1e43855aa01f97d6,610378bc72c6cfec7a21816f,2021-07-30_05h59.26.238,Simcolourproject_2stim_asymm_v5,2020.2.10,Win32,60,61025ae37ef11b136ea224fe,,,,,,,,,1440,-51,37,1,0,0,response7disk,,1,-3,1,1,0,0,rectangle,-3,1,1,0,0,-3,1,1,0,0,1,99,259,63,1,,,,,,,,
,,,,,,,,,,,,,FF,,,,,,,,1.0429,,,,,,,,,,,,,,,,,,,,,,60fead9c1e43855aa01f97d6,610378bc72c6cfec7a21816f,2021-07-30_05h59.26.238,Simcolourproject_2stim_asymm_v5,2020.2.10,Win32,60,61025ae37ef11b136ea224fe,,,,,,,,,3091,-67,24,1,0,0,response7disk,,1,-28,-9,1,0,0,rectangle,-28,-9,1,0,0,-28,-9,1,0,0,1,100,260,131,1,,,,,,,,
,,,,,,,,,,,,,FF,,,,,,,,1.2511,,,,,,,,,,,,,,,,,,,,,,60fead9c1e43855aa01f97d6,610378bc72c6cfec7a21816f,2021-07-30_05h59.26.238,Simcolourproject_2stim_asymm_v5,2020.2.10,Win32,60,61025ae37ef11b136ea224fe,,,,,,,,,1178,-38,76,1,0,0,response7disk,,0,-9,12,1,0,0,rectangle,-9,12,1,0,0,-9,12,1,0,0,1,101,261,66,1,,,,,,,,
,,,,,,,,,,,,,FF,,,,,,,,2.7695,,,,,,,,,,,,,,,,,,,,,,60fead9c1e43855aa01f97d6,610378bc72c6cfec7a21816f,2021-07-30_05h59.26.238,Simcolourproject_2stim_asymm_v5,2020.2.10,Win32,60,61025ae37ef11b136ea224fe,,,,,,,,,3459,-73,-16,1,0,0,response5disk,,2,-16,-9,1,0,0,rectangle,-16,-9,1,0,0,-16,-9,1,0,0,1,102,262,155,1,,,,,,,,
,,,,,,,,,,,,,FF,,,,,,,,1.1686,,,,,,,,,,,,,,,,,,,,,,60fead9c1e43855aa01f97d6,610378bc72c6cfec7a21816f,2021-07-30_05h59.26.238,Simcolourproject_2stim_asymm_v5,2020.2.10,Win32,60,61025ae37ef11b136ea224fe,,,,,,,,,2065,-34,81,1,0,0,response7disk,,0,-12,15,1,0,0,rectangle,-12,15,1,0,0,-12,15,1,0,0,1,103,263,64,1,,,,,,,,
,,,,,,,,,,,,,FF,,,,,,,,1.4931,,,,,,,,,,,,,,,,,,,,,,60fead9c1e43855aa01f97d6,610378bc72c6cfec7a21816f,2021-07-30_05h59.26.238,Simcolourproject_2stim_asymm_v5,2020.2.10,Win32,60,61025ae37ef11b136ea224fe,,,,,,,,,1749,46,-76,1,0,0,response3disk,,4,-19,-3,1,0,0,rectangle,-19,-3,1,0,0,-19,-3,1,0,0,1,104,264,146,1,,,,,,,,
,,,,,,,,,,,,,FF,,,,,,,,1.4194,,,,,,,,,,,,,,,,,,,,,,60fead9c1e43855aa01f97d6,610378bc72c6cfec7a21816f,2021-07-30_05h59.26.238,Simcolourproject_2stim_asymm_v5,2020.2.10,Win32,60,61025ae37ef11b136ea224fe,,,,,,,,,2389,-29,-59,1,0,0,response5disk,,3,-17,5,1,0,0,rectangle,-17,5,1,0,0,-17,5,1,0,0,1,105,265,23,1,,,,,,,,
,,,,,,,,,,,,,FF,,,,,,,,1.1674,,,,,,,,,,,,,,,,,,,,,,60fead9c1e43855aa01f97d6,610378bc72c6cfec7a21816f,2021-07-30_05h59.26.238,Simcolourproject_2stim_asymm_v5,2020.2.10,Win32,60,61025ae37ef11b136ea224fe,,,,,,,,,598,-30,-85,1,0,0,response5disk,,3,27,12,1,0,0,rectangle,27,12,1,0,0,27,12,1,0,0,1,106,266,121,1,,,,,,,,
,,,,,,,,,,,,,FF,,,,,,,,1.5078,,,,,,,,,,,,,,,,,,,,,,60fead9c1e43855aa01f97d6,610378bc72c6cfec7a21816f,2021-07-30_05h59.26.238,Simcolourproject_2stim_asymm_v5,2020.2.10,Win32,60,61025ae37ef11b136ea224fe,,,,,,,,,4000,-41,-58,1,0,0,response5disk,,3,-17,7,1,0,0,rectangle,-17,7,1,0,0,-17,7,1,0,0,1,107,267,25,1,,,,,,,,
,,,,,,,,,,,,,FF,,,,,,,,1.9225,,,,,,,,,,,,,,,,,,,,,,60fead9c1e43855aa01f97d6,610378bc72c6cfec7a21816f,2021-07-30_05h59.26.238,Simcolourproject_2stim_asymm_v5,2020.2.10,Win32,60,61025ae37ef11b136ea224fe,,,,,,,,,1791,-37,111,1,0,0,response7disk,,0,-7,1,1,0,0,rectangle,-7,1,1,0,0,-7,1,1,0,0,1,108,268,76,1,,,,,,,,
,,,,,,,,,,,,,FF,,,,,,,,1.6033,,,,,,,,,,,,,,,,,,,,,,60fead9c1e43855aa01f97d6,610378bc72c6cfec7a21816f,2021-07-30_05h59.26.238,Simcolourproject_2stim_asymm_v5,2020.2.10,Win32,60,61025ae37ef11b136ea224fe,,,,,,,,,3486,-89,-25,1,0,0,response5disk,,2,-2,4,1,0,0,rectangle,101,-36,1,0,0,-7,5,1,0,0,1,109,269,143,1,,response3disk_3,TRUE,5,5,"[185,199,318,54,213,255,134,166,132,204,55,238,256,270,121,193,304,221,296,319]",2.6298,rectangle
,,,,,,,,,,,,,FF,,,,,,,,1.1376,,,,,,,,,,,,,,,,,,,,,,60fead9c1e43855aa01f97d6,610378bc72c6cfec7a21816f,2021-07-30_05h59.26.238,Simcolourproject_2stim_asymm_v5,2020.2.10,Win32,60,61025ae37ef11b136ea224fe,,,,,,,,,2263,-68,-33,1,0,0,response5disk,,2,-15,5,1,0,0,rectangle,-15,5,1,0,0,-15,5,1,0,0,1,110,270,44,1,,,,,,,,
,,,,,,,,,,,,,FF,,,,,,,,1.2032,,,,,,,,,,,,,,,,,,,,,,60fead9c1e43855aa01f97d6,610378bc72c6cfec7a21816f,2021-07-30_05h59.26.238,Simcolourproject_2stim_asymm_v5,2020.2.10,Win32,60,61025ae37ef11b136ea224fe,,,,,,,,,4182,-42,-65,1,0,0,response5disk,,3,-8,9,1,0,0,rectangle,-8,9,1,0,0,-8,9,1,0,0,1,111,271,153,1,,,,,,,,
,,,,,,,,,,,,,FF,,,,,,,,1.5568,,,,,,,,,,,,,,,,,,,,,,60fead9c1e43855aa01f97d6,610378bc72c6cfec7a21816f,2021-07-30_05h59.26.238,Simcolourproject_2stim_asymm_v5,2020.2.10,Win32,60,61025ae37ef11b136ea224fe,,,,,,,,,3265,-39,82,1,0,0,response7disk,,0,-11,-6,1,0,0,rectangle,-11,-6,1,0,0,-11,-6,1,0,0,1,112,272,145,1,,,,,,,,
,,,,,,,,,,,,,FF,,,,,,,,1.3193,,,,,,,,,,,,,,,,,,,,,,60fead9c1e43855aa01f97d6,610378bc72c6cfec7a21816f,2021-07-30_05h59.26.238,Simcolourproject_2stim_asymm_v5,2020.2.10,Win32,60,61025ae37ef11b136ea224fe,,,,,,,,,2230,102,-41,1,0,0,response3disk,,5,-17,5,1,0,0,rectangle,-17,5,1,0,0,-17,5,1,0,0,1,113,273,111,1,,,,,,,,
,,,,,,,,,,,,,FF,,,,,,,,1.4826,,,,,,,,,,,,,,,,,,,,,,60fead9c1e43855aa01f97d6,610378bc72c6cfec7a21816f,2021-07-30_05h59.26.238,Simcolourproject_2stim_asymm_v5,2020.2.10,Win32,60,61025ae37ef11b136ea224fe,,,,,,,,,1648,-53,72,1,0,0,response7disk,,0,-7,-8,1,0,0,rectangle,-7,-8,1,0,0,-7,-8,1,0,0,1,114,274,151,1,,,,,,,,
,,,,,,,,,,,,,FF,,,,,,,,1.3685,,,,,,,,,,,,,,,,,,,,,,60fead9c1e43855aa01f97d6,610378bc72c6cfec7a21816f,2021-07-30_05h59.26.238,Simcolourproject_2stim_asymm_v5,2020.2.10,Win32,60,61025ae37ef11b136ea224fe,,,,,,,,,2088,-45,98,1,0,0,response7disk,,0,7,10,1,0,0,rectangle,7,10,1,0,0,7,10,1,0,0,1,115,275,103,1,,,,,,,,
,,,,,,,,,,,,,FF,,,,,,,,1.1321,,,,,,,,,,,,,,,,,,,,,,60fead9c1e43855aa01f97d6,610378bc72c6cfec7a21816f,2021-07-30_05h59.26.238,Simcolourproject_2stim_asymm_v5,2020.2.10,Win32,60,61025ae37ef11b136ea224fe,,,,,,,,,2736,-20,59,1,0,0,response7disk,,0,0,-4,1,0,0,rectangle,0,-4,1,0,0,0,-4,1,0,0,1,116,276,7,1,,,,,,,,
,,,,,,,,,,,,,FF,,,,,,,,0.8857,,,,,,,,,,,,,,,,,,,,,,60fead9c1e43855aa01f97d6,610378bc72c6cfec7a21816f,2021-07-30_05h59.26.238,Simcolourproject_2stim_asymm_v5,2020.2.10,Win32,60,61025ae37ef11b136ea224fe,,,,,,,,,3263,-56,76,1,0,0,response7disk,,0,-25,-9,1,0,0,rectangle,-25,-9,1,0,0,-25,-9,1,0,0,1,117,277,62,1,,,,,,,,
,,,,,,,,,,,,,FF,,,,,,,,2.0001,,,,,,,,,,,,,,,,,,,,,,60fead9c1e43855aa01f97d6,610378bc72c6cfec7a21816f,2021-07-30_05h59.26.238,Simcolourproject_2stim_asymm_v5,2020.2.10,Win32,60,61025ae37ef11b136ea224fe,,,,,,,,,183,-51,95,1,0,0,response7disk,,0,-20,1,1,0,0,rectangle,-20,1,1,0,0,-20,1,1,0,0,1,118,278,158,1,,,,,,,,
,,,,,,,,,,,,,FF,,,,,,,,0.9646,,,,,,,,,,,,,,,,,,,,,,60fead9c1e43855aa01f97d6,610378bc72c6cfec7a21816f,2021-07-30_05h59.26.238,Simcolourproject_2stim_asymm_v5,2020.2.10,Win32,60,61025ae37ef11b136ea224fe,,,,,,,,,302,-39,68,1,0,0,response7disk,,0,-11,0,1,0,0,rectangle,-11,0,1,0,0,-11,0,1,0,0,1,119,279,128,1,,,,,,,,
,,,,,,,,,,,,,FF,,,,,,,,1.6605,,,,,,,,,,,,,,,,,,,,,,60fead9c1e43855aa01f97d6,610378bc72c6cfec7a21816f,2021-07-30_05h59.26.238,Simcolourproject_2stim_asymm_v5,2020.2.10,Win32,60,61025ae37ef11b136ea224fe,,,,,,,,,3697,-33,63,1,0,0,response7disk,,0,-8,2,1,0,0,rectangle,-8,2,1,0,0,-8,2,1,0,0,1,120,280,141,1,,,,,,,,
,,,,,,,,,,,,,FF,,,,,,,,2.2918,,,,,,,,,,,,,,,,,,,,,,60fead9c1e43855aa01f97d6,610378bc72c6cfec7a21816f,2021-07-30_05h59.26.238,Simcolourproject_2stim_asymm_v5,2020.2.10,Win32,60,61025ae37ef11b136ea224fe,,,,,,,,,4073,-30,74,1,0,0,response7disk,,0,-24,-5,1,0,0,rectangle,-24,-5,1,0,0,-24,-5,1,0,0,1,121,281,33,1,,,,,,,,
,,,,,,,,,,,,,FF,,,,,,,,1.1682,,,,,,,,,,,,,,,,,,,,,,60fead9c1e43855aa01f97d6,610378bc72c6cfec7a21816f,2021-07-30_05h59.26.238,Simcolourproject_2stim_asymm_v5,2020.2.10,Win32,60,61025ae37ef11b136ea224fe,,,,,,,,,1975,-70,-38,1,0,0,response5disk,,2,12,-7,1,0,0,rectangle,12,-7,1,0,0,12,-7,1,0,0,1,122,282,80,1,,,,,,,,
,,,,,,,,,,,,,FF,,,,,,,,1.0455,,,,,,,,,,,,,,,,,,,,,,60fead9c1e43855aa01f97d6,610378bc72c6cfec7a21816f,2021-07-30_05h59.26.238,Simcolourproject_2stim_asymm_v5,2020.2.10,Win32,60,61025ae37ef11b136ea224fe,,,,,,,,,1170,-51,78,1,0,0,response7disk,,0,-15,6,1,0,0,rectangle,-15,6,1,0,0,-15,6,1,0,0,1,123,283,129,1,,,,,,,,
,,,,,,,,,,,,,FF,,,,,,,,1.739,,,,,,,,,,,,,,,,,,,,,,60fead9c1e43855aa01f97d6,610378bc72c6cfec7a21816f,2021-07-30_05h59.26.238,Simcolourproject_2stim_asymm_v5,2020.2.10,Win32,60,61025ae37ef11b136ea224fe,,,,,,,,,168,28,-68,1,0,0,response3disk,,4,-10,4,1,0,0,rectangle,-10,4,1,0,0,-10,4,1,0,0,1,124,284,90,1,,,,,,,,
,,,,,,,,,,,,,FF,,,,,,,,1.061,,,,,,,,,,,,,,,,,,,,,,60fead9c1e43855aa01f97d6,610378bc72c6cfec7a21816f,2021-07-30_05h59.26.238,Simcolourproject_2stim_asymm_v5,2020.2.10,Win32,60,61025ae37ef11b136ea224fe,,,,,,,,,681,-35,75,1,0,0,response7disk,,0,-1,-3,1,0,0,rectangle,-1,-3,1,0,0,-1,-3,1,0,0,1,125,285,98,1,,,,,,,,
,,,,,,,,,,,,,FF,,,,,,,,1.0036,,,,,,,,,,,,,,,,,,,,,,60fead9c1e43855aa01f97d6,610378bc72c6cfec7a21816f,2021-07-30_05h59.26.238,Simcolourproject_2stim_asymm_v5,2020.2.10,Win32,60,61025ae37ef11b136ea224fe,,,,,,,,,3683,-41,112,1,0,0,response7disk,,0,-19,8,1,0,0,rectangle,-19,8,1,0,0,-19,8,1,0,0,1,126,286,96,1,,,,,,,,
,,,,,,,,,,,,,FF,,,,,,,,1.1914,,,,,,,,,,,,,,,,,,,,,,60fead9c1e43855aa01f97d6,610378bc72c6cfec7a21816f,2021-07-30_05h59.26.238,Simcolourproject_2stim_asymm_v5,2020.2.10,Win32,60,61025ae37ef11b136ea224fe,,,,,,,,,59,-27,64,1,0,0,response7disk,,0,2,-7,1,0,0,rectangle,2,-7,1,0,0,2,-7,1,0,0,1,127,287,1,1,,,,,,,,
,,,,,,,,,,,,,FF,,,,,,,,1.1731,,,,,,,,,,,,,,,,,,,,,,60fead9c1e43855aa01f97d6,610378bc72c6cfec7a21816f,2021-07-30_05h59.26.238,Simcolourproject_2stim_asymm_v5,2020.2.10,Win32,60,61025ae37ef11b136ea224fe,,,,,,,,,2256,-23,-82,1,0,0,response5disk,,3,17,13,1,0,0,rectangle,17,13,1,0,0,17,13,1,0,0,1,128,288,72,1,,,,,,,,
,,,,,,,,,,,,,FF,,,,,,,,2.0766,,,,,,,,,,,,,,,,,,,,,,60fead9c1e43855aa01f97d6,610378bc72c6cfec7a21816f,2021-07-30_05h59.26.238,Simcolourproject_2stim_asymm_v5,2020.2.10,Win32,60,61025ae37ef11b136ea224fe,,,,,,,,,3296,57,-79,1,0,0,response3disk,,4,2,-6,1,0,0,rectangle,2,-6,1,0,0,2,-6,1,0,0,1,129,289,112,1,,,,,,,,
,,,,,,,,,,,,,FF,,,,,,,,3.8058,,,,,,,,,,,,,,,,,,,,,,60fead9c1e43855aa01f97d6,610378bc72c6cfec7a21816f,2021-07-30_05h59.26.238,Simcolourproject_2stim_asymm_v5,2020.2.10,Win32,60,61025ae37ef11b136ea224fe,,,,,,,,,2332,-50,31,1,0,0,response7disk,,1,-4,5,1,0,0,rectangle,-4,5,1,0,0,-4,5,1,0,0,1,130,290,69,1,,,,,,,,
,,,,,,,,,,,,,FF,,,,,,,,1.1843,,,,,,,,,,,,,,,,,,,,,,60fead9c1e43855aa01f97d6,610378bc72c6cfec7a21816f,2021-07-30_05h59.26.238,Simcolourproject_2stim_asymm_v5,2020.2.10,Win32,60,61025ae37ef11b136ea224fe,,,,,,,,,1338,-34,71,1,0,0,response7disk,,0,-11,-1,1,0,0,rectangle,-11,-1,1,0,0,-11,-1,1,0,0,1,131,291,5,1,,,,,,,,
,,,,,,,,,,,,,FF,,,,,,,,0.9214,,,,,,,,,,,,,,,,,,,,,,60fead9c1e43855aa01f97d6,610378bc72c6cfec7a21816f,2021-07-30_05h59.26.238,Simcolourproject_2stim_asymm_v5,2020.2.10,Win32,60,61025ae37ef11b136ea224fe,,,,,,,,,501,-32,78,1,0,0,response7disk,,0,2,8,1,0,0,rectangle,2,8,1,0,0,2,8,1,0,0,1,132,292,50,1,,,,,,,,
,,,,,,,,,,,,,FF,,,,,,,,2.0304,,,,,,,,,,,,,,,,,,,,,,60fead9c1e43855aa01f97d6,610378bc72c6cfec7a21816f,2021-07-30_05h59.26.238,Simcolourproject_2stim_asymm_v5,2020.2.10,Win32,60,61025ae37ef11b136ea224fe,,,,,,,,,369,-67,-42,1,0,0,response5disk,,2,-8,2,1,0,0,rectangle,-8,2,1,0,0,-8,2,1,0,0,1,133,293,122,1,,,,,,,,
,,,,,,,,,,,,,FF,,,,,,,,1.9604,,,,,,,,,,,,,,,,,,,,,,60fead9c1e43855aa01f97d6,610378bc72c6cfec7a21816f,2021-07-30_05h59.26.238,Simcolourproject_2stim_asymm_v5,2020.2.10,Win32,60,61025ae37ef11b136ea224fe,,,,,,,,,3429,-42,81,1,0,0,response7disk,,0,-8,-3,1,0,0,rectangle,-8,-3,1,0,0,-8,-3,1,0,0,1,134,294,157,1,,,,,,,,
,,,,,,,,,,,,,FF,,,,,,,,1.4913,,,,,,,,,,,,,,,,,,,,,,60fead9c1e43855aa01f97d6,610378bc72c6cfec7a21816f,2021-07-30_05h59.26.238,Simcolourproject_2stim_asymm_v5,2020.2.10,Win32,60,61025ae37ef11b136ea224fe,,,,,,,,,1292,106,-60,1,0,0,response3disk,,5,10,-5,1,0,0,rectangle,-74,-30,1,0,0,-3,0,1,0,0,1,135,295,46,1,,response5disk_3,TRUE,2,2,"[185,199,318,54,213,255,134,166,132,204,55,238,256,270,121,193,304,221,296,319]",2.4142,rectangle
,,,,,,,,,,,,,FF,,,,,,,,1.2268,,,,,,,,,,,,,,,,,,,,,,60fead9c1e43855aa01f97d6,610378bc72c6cfec7a21816f,2021-07-30_05h59.26.238,Simcolourproject_2stim_asymm_v5,2020.2.10,Win32,60,61025ae37ef11b136ea224fe,,,,,,,,,1710,-46,85,1,0,0,response7disk,,0,-6,-3,1,0,0,rectangle,-6,-3,1,0,0,-6,-3,1,0,0,1,136,296,102,1,,,,,,,,
,,,,,,,,,,,,,FF,,,,,,,,1.7572,,,,,,,,,,,,,,,,,,,,,,60fead9c1e43855aa01f97d6,610378bc72c6cfec7a21816f,2021-07-30_05h59.26.238,Simcolourproject_2stim_asymm_v5,2020.2.10,Win32,60,61025ae37ef11b136ea224fe,,,,,,,,,4215,-38,69,1,0,0,response7disk,,0,-5,1,1,0,0,rectangle,-5,1,1,0,0,-5,1,1,0,0,1,137,297,93,1,,,,,,,,
,,,,,,,,,,,,,FF,,,,,,,,1.0843,,,,,,,,,,,,,,,,,,,,,,60fead9c1e43855aa01f97d6,610378bc72c6cfec7a21816f,2021-07-30_05h59.26.238,Simcolourproject_2stim_asymm_v5,2020.2.10,Win32,60,61025ae37ef11b136ea224fe,,,,,,,,,3009,-44,85,1,0,0,response7disk,,0,-12,2,1,0,0,rectangle,-12,2,1,0,0,-12,2,1,0,0,1,138,298,114,1,,,,,,,,
,,,,,,,,,,,,,FF,,,,,,,,1.3183,,,,,,,,,,,,,,,,,,,,,,60fead9c1e43855aa01f97d6,610378bc72c6cfec7a21816f,2021-07-30_05h59.26.238,Simcolourproject_2stim_asymm_v5,2020.2.10,Win32,60,61025ae37ef11b136ea224fe,,,,,,,,,1613,65,-25,1,0,0,response3disk,,5,-3,11,1,0,0,rectangle,-3,11,1,0,0,-3,11,1,0,0,1,139,299,13,1,,,,,,,,
,,,,,,,,,,,,,FF,,,,,,,,0.9187,,,,,,,,,,,,,,,,,,,,,,60fead9c1e43855aa01f97d6,610378bc72c6cfec7a21816f,2021-07-30_05h59.26.238,Simcolourproject_2stim_asymm_v5,2020.2.10,Win32,60,61025ae37ef11b136ea224fe,,,,,,,,,3653,-36,58,1,0,0,response7disk,,0,-8,0,1,0,0,rectangle,-8,0,1,0,0,-8,0,1,0,0,1,140,300,142,1,,,,,,,,
,,,,,,,,,,,,,FF,,,,,,,,1.3121,,,,,,,,,,,,,,,,,,,,,,60fead9c1e43855aa01f97d6,610378bc72c6cfec7a21816f,2021-07-30_05h59.26.238,Simcolourproject_2stim_asymm_v5,2020.2.10,Win32,60,61025ae37ef11b136ea224fe,,,,,,,,,432,-39,48,1,0,0,response7disk,,0,2,-7,1,0,0,rectangle,2,-7,1,0,0,2,-7,1,0,0,1,141,301,2,1,,,,,,,,
