key_resp.keys,key_resp.rt,key_resp_14.keys,key_resp_14.rt,key_resp_15.keys,key_resp_15.rt,key_resp_17.keys,key_resp_17.rt,key_resp_9.keys,key_resp_9.rt,key_resp_10.keys,key_resp_10.rt,practice_comparison,Ecc,mouse_5.x,mouse_5.y,mouse_5.leftButton,mouse_5.midButton,mouse_5.rightButton,mouse_5.clicked_name,pracsimilarity,response_time,mouse_10.x,mouse_10.y,mouse_10.leftButton,mouse_10.midButton,mouse_10.rightButton,mouse_10.clicked_name,mouse_7.x,mouse_7.y,mouse_7.leftButton,mouse_7.midButton,mouse_7.rightButton,mouse_6.x,mouse_6.y,mouse_6.leftButton,mouse_6.midButton,mouse_6.rightButton,duringprac.thisRepN,duringprac.thisTrialN,duringprac.thisN,duringprac.thisIndex,duringprac.ran,participant,session,date,expName,psychopyVersion,OS,frameRate,study_id,mouse_7.clicked_name,catchpracsimilarity,catch_response_time,catchnumberprac,catchtrialorderprac,mouse_6.clicked_name,key_resp_22.keys,key_resp_22.rt,realcomparison,mouse.x,mouse.y,mouse.leftButton,mouse.midButton,mouse.rightButton,mouse.clicked_name,Colour2,similarity,mouse_2.x,mouse_2.y,mouse_2.leftButton,mouse_2.midButton,mouse_2.rightButton,mouse_2.clicked_name,mouse_3.x,mouse_3.y,mouse_3.leftButton,mouse_3.midButton,mouse_3.rightButton,mouse_11.x,mouse_11.y,mouse_11.leftButton,mouse_11.midButton,mouse_11.rightButton,trials_2.thisRepN,trials_2.thisTrialN,trials_2.thisN,trials_2.thisIndex,trials_2.ran,Colour1,mouse_3.clicked_name,catchornah,catchsimilarity,catchnumber,catchtrialorder,catchRT,mouse_11.clicked_name
space,1.0661,space,17.2649,space,36.7757,space,7.2138,space,0.9359,space,3.6002,127,PF,-87,-56,1,0,0,response5disk_5,2,6.2258,-4,-2,1,0,0,rectangle_8,-4,-2,1,0,0,-4,-2,1,0,0,0,0,0,1,1,60feb1d22d3c61aeab816651,610378cc864e7cffc8c68912,2021-07-30_13h59.41.249,Simcolourproject_2stim_asymm_v5,2020.2.10,Win32,60,61025ae37ef11b136ea224fe,,,,,,,,,,,,,,,,,,,,,,,,,,,,,,,,,,,,,,,,,,,,,,
,,,,,,,,,,,,138,FF,-26,-69,1,0,0,response5disk_5,3,4.4654,1,4,1,0,0,rectangle_8,129,-68,1,0,0,-9,2,1,0,0,0,1,1,0,1,60feb1d22d3c61aeab816651,610378cc864e7cffc8c68912,2021-07-30_13h59.41.249,Simcolourproject_2stim_asymm_v5,2020.2.10,Win32,60,61025ae37ef11b136ea224fe,response3disk_7,5,2.2196,5,"[2,5]",rectangle_4,,,,,,,,,,,,,,,,,,,,,,,,,,,,,,,,,,,,,,,,
,,,,,,,,,,,,31,FF,112,-45,1,0,0,response3disk_5,5,2.1665,-13,5,1,0,0,rectangle_8,-13,5,1,0,0,-13,5,1,0,0,0,2,2,5,1,60feb1d22d3c61aeab816651,610378cc864e7cffc8c68912,2021-07-30_13h59.41.249,Simcolourproject_2stim_asymm_v5,2020.2.10,Win32,60,61025ae37ef11b136ea224fe,,,,,,,,,,,,,,,,,,,,,,,,,,,,,,,,,,,,,,,,,,,,,,
,,,,,,,,,,,,104,PF,122,75,1,0,0,response1disk_5,6,1.8504,-9,-2,1,0,0,rectangle_8,-9,-2,1,0,0,-9,-2,1,0,0,0,3,3,6,1,60feb1d22d3c61aeab816651,610378cc864e7cffc8c68912,2021-07-30_13h59.41.249,Simcolourproject_2stim_asymm_v5,2020.2.10,Win32,60,61025ae37ef11b136ea224fe,,,,,,,,,,,,,,,,,,,,,,,,,,,,,,,,,,,,,,,,,,,,,,
,,,,,,,,,,,,13,FF,-84,-50,1,0,0,response5disk_5,2,2.5492,-8,6,1,0,0,rectangle_8,118,-61,1,0,0,-15,6,1,0,0,0,4,4,3,1,60feb1d22d3c61aeab816651,610378cc864e7cffc8c68912,2021-07-30_13h59.41.249,Simcolourproject_2stim_asymm_v5,2020.2.10,Win32,60,61025ae37ef11b136ea224fe,response3disk_7,5,1.5493,5,"[2,5]",rectangle_4,,,,,,,,,,,,,,,,,,,,,,,,,,,,,,,,,,,,,,,,
,,,,,,,,,,,,119,PF,-69,90,1,0,0,response7disk_5,0,2.9327,-8,6,1,0,0,rectangle_8,-8,6,1,0,0,-8,6,1,0,0,0,5,5,4,1,60feb1d22d3c61aeab816651,610378cc864e7cffc8c68912,2021-07-30_13h59.41.249,Simcolourproject_2stim_asymm_v5,2020.2.10,Win32,60,61025ae37ef11b136ea224fe,,,,,,,,,,,,,,,,,,,,,,,,,,,,,,,,,,,,,,,,,,,,,,
,,,,,,,,,,,,130,PF,58,133,1,0,0,response1disk_5,7,1.1338,7,3,1,0,0,rectangle_8,7,3,1,0,0,7,3,1,0,0,0,6,6,2,1,60feb1d22d3c61aeab816651,610378cc864e7cffc8c68912,2021-07-30_13h59.41.249,Simcolourproject_2stim_asymm_v5,2020.2.10,Win32,60,61025ae37ef11b136ea224fe,,,,,,,,,,,,,,,,,,,,,,,,,,,,,,,,,,,,,,,,,,,,,,
,,,,,,,,,,,,,FF,,,,,,,,1.9163,,,,,,,,,,,,,,,,,,,,,,60feb1d22d3c61aeab816651,610378cc864e7cffc8c68912,2021-07-30_13h59.41.249,Simcolourproject_2stim_asymm_v5,2020.2.10,Win32,60,61025ae37ef11b136ea224fe,,,,,,,space,3.4479,3028,73,97,1,0,0,response1disk,,7,11,-3,1,0,0,rectangle,11,-3,1,0,0,11,-3,1,0,0,0,0,0,65,1,,,,,,,,
,,,,,,,,,,,,,FF,,,,,,,,1.5496,,,,,,,,,,,,,,,,,,,,,,60feb1d22d3c61aeab816651,610378cc864e7cffc8c68912,2021-07-30_13h59.41.249,Simcolourproject_2stim_asymm_v5,2020.2.10,Win32,60,61025ae37ef11b136ea224fe,,,,,,,,,2918,65,52,1,0,0,response1disk,,6,10,4,1,0,0,rectangle,10,4,1,0,0,10,4,1,0,0,0,1,1,82,1,,,,,,,,
,,,,,,,,,,,,,FF,,,,,,,,1.5325,,,,,,,,,,,,,,,,,,,,,,60feb1d22d3c61aeab816651,610378cc864e7cffc8c68912,2021-07-30_13h59.41.249,Simcolourproject_2stim_asymm_v5,2020.2.10,Win32,60,61025ae37ef11b136ea224fe,,,,,,,,,334,55,-44,1,0,0,response3disk,,5,6,2,1,0,0,rectangle,6,2,1,0,0,6,2,1,0,0,0,2,2,21,1,,,,,,,,
,,,,,,,,,,,,,FF,,,,,,,,1.6837,,,,,,,,,,,,,,,,,,,,,,60feb1d22d3c61aeab816651,610378cc864e7cffc8c68912,2021-07-30_13h59.41.249,Simcolourproject_2stim_asymm_v5,2020.2.10,Win32,60,61025ae37ef11b136ea224fe,,,,,,,,,641,-66,-92,1,0,0,response5disk,,3,-7,-4,1,0,0,rectangle,-7,-4,1,0,0,-7,-4,1,0,0,0,3,3,67,1,,,,,,,,
,,,,,,,,,,,,,FF,,,,,,,,1.4037,,,,,,,,,,,,,,,,,,,,,,60feb1d22d3c61aeab816651,610378cc864e7cffc8c68912,2021-07-30_13h59.41.249,Simcolourproject_2stim_asymm_v5,2020.2.10,Win32,60,61025ae37ef11b136ea224fe,,,,,,,,,1888,-40,-61,1,0,0,response5disk,,3,-9,1,1,0,0,rectangle,62,-96,1,0,0,10,4,1,0,0,0,4,4,43,1,,response3disk_3,TRUE,4,4,"[313,135,41,211,85,165,151,119,171,243,5,63,113,154,23,93,9,279,210,270]",1.9178,rectangle
,,,,,,,,,,,,,FF,,,,,,,,1.7501,,,,,,,,,,,,,,,,,,,,,,60feb1d22d3c61aeab816651,610378cc864e7cffc8c68912,2021-07-30_13h59.41.249,Simcolourproject_2stim_asymm_v5,2020.2.10,Win32,60,61025ae37ef11b136ea224fe,,,,,,,,,2509,41,-119,1,0,0,response3disk,,4,10,1,1,0,0,rectangle,10,1,1,0,0,10,1,1,0,0,0,5,5,6,1,,,,,,,,
,,,,,,,,,,,,,FF,,,,,,,,1.5999,,,,,,,,,,,,,,,,,,,,,,60feb1d22d3c61aeab816651,610378cc864e7cffc8c68912,2021-07-30_13h59.41.249,Simcolourproject_2stim_asymm_v5,2020.2.10,Win32,60,61025ae37ef11b136ea224fe,,,,,,,,,486,47,-96,1,0,0,response3disk,,4,7,6,1,0,0,rectangle,7,6,1,0,0,7,6,1,0,0,0,6,6,31,1,,,,,,,,
,,,,,,,,,,,,,FF,,,,,,,,0.9344,,,,,,,,,,,,,,,,,,,,,,60feb1d22d3c61aeab816651,610378cc864e7cffc8c68912,2021-07-30_13h59.41.249,Simcolourproject_2stim_asymm_v5,2020.2.10,Win32,60,61025ae37ef11b136ea224fe,,,,,,,,,3107,-45,-63,1,0,0,response5disk,,3,0,0,1,0,0,rectangle,0,0,1,0,0,0,0,1,0,0,0,7,7,30,1,,,,,,,,
,,,,,,,,,,,,,FF,,,,,,,,1.3835,,,,,,,,,,,,,,,,,,,,,,60feb1d22d3c61aeab816651,610378cc864e7cffc8c68912,2021-07-30_13h59.41.249,Simcolourproject_2stim_asymm_v5,2020.2.10,Win32,60,61025ae37ef11b136ea224fe,,,,,,,,,646,-67,-34,1,0,0,response5disk,,2,4,7,1,0,0,rectangle,120,25,1,0,0,8,-2,1,0,0,0,8,8,141,1,,response1disk_3,TRUE,6,6,"[313,135,41,211,85,165,151,119,171,243,5,63,113,154,23,93,9,279,210,270]",1.9495,rectangle
,,,,,,,,,,,,,FF,,,,,,,,25.9838,,,,,,,,,,,,,,,,,,,,,,60feb1d22d3c61aeab816651,610378cc864e7cffc8c68912,2021-07-30_13h59.41.249,Simcolourproject_2stim_asymm_v5,2020.2.10,Win32,60,61025ae37ef11b136ea224fe,,,,,,,,,2372,67,-61,1,0,0,response3disk,,5,3,-2,1,0,0,rectangle,3,-2,1,0,0,3,-2,1,0,0,0,9,9,71,1,,,,,,,,
,,,,,,,,,,,,,FF,,,,,,,,1.7991,,,,,,,,,,,,,,,,,,,,,,60feb1d22d3c61aeab816651,610378cc864e7cffc8c68912,2021-07-30_13h59.41.249,Simcolourproject_2stim_asymm_v5,2020.2.10,Win32,60,61025ae37ef11b136ea224fe,,,,,,,,,581,80,36,1,0,0,response1disk,,6,8,-4,1,0,0,rectangle,8,-4,1,0,0,8,-4,1,0,0,0,10,10,79,1,,,,,,,,
,,,,,,,,,,,,,FF,,,,,,,,1.1501,,,,,,,,,,,,,,,,,,,,,,60feb1d22d3c61aeab816651,610378cc864e7cffc8c68912,2021-07-30_13h59.41.249,Simcolourproject_2stim_asymm_v5,2020.2.10,Win32,60,61025ae37ef11b136ea224fe,,,,,,,,,3269,125,58,1,0,0,response1disk,,6,19,-1,1,0,0,rectangle,19,-1,1,0,0,19,-1,1,0,0,0,11,11,132,1,,,,,,,,
,,,,,,,,,,,,,FF,,,,,,,,1.1666,,,,,,,,,,,,,,,,,,,,,,60feb1d22d3c61aeab816651,610378cc864e7cffc8c68912,2021-07-30_13h59.41.249,Simcolourproject_2stim_asymm_v5,2020.2.10,Win32,60,61025ae37ef11b136ea224fe,,,,,,,,,4205,-105,54,1,0,0,response7disk,,1,10,1,1,0,0,rectangle,10,1,1,0,0,10,1,1,0,0,0,12,12,130,1,,,,,,,,
,,,,,,,,,,,,,FF,,,,,,,,1.051,,,,,,,,,,,,,,,,,,,,,,60feb1d22d3c61aeab816651,610378cc864e7cffc8c68912,2021-07-30_13h59.41.249,Simcolourproject_2stim_asymm_v5,2020.2.10,Win32,60,61025ae37ef11b136ea224fe,,,,,,,,,17,52,-89,1,0,0,response3disk,,4,5,4,1,0,0,rectangle,5,4,1,0,0,5,4,1,0,0,0,13,13,66,1,,,,,,,,
,,,,,,,,,,,,,FF,,,,,,,,1.4831,,,,,,,,,,,,,,,,,,,,,,60feb1d22d3c61aeab816651,610378cc864e7cffc8c68912,2021-07-30_13h59.41.249,Simcolourproject_2stim_asymm_v5,2020.2.10,Win32,60,61025ae37ef11b136ea224fe,,,,,,,,,3642,52,-83,1,0,0,response3disk,,4,-13,1,1,0,0,rectangle,-13,1,1,0,0,-13,1,1,0,0,0,14,14,83,1,,,,,,,,
,,,,,,,,,,,,,FF,,,,,,,,3.4167,,,,,,,,,,,,,,,,,,,,,,60feb1d22d3c61aeab816651,610378cc864e7cffc8c68912,2021-07-30_13h59.41.249,Simcolourproject_2stim_asymm_v5,2020.2.10,Win32,60,61025ae37ef11b136ea224fe,,,,,,,,,2681,118,57,1,0,0,response1disk,,6,7,5,1,0,0,rectangle,7,5,1,0,0,7,5,1,0,0,0,15,15,149,1,,,,,,,,
,,,,,,,,,,,,,FF,,,,,,,,1.4332,,,,,,,,,,,,,,,,,,,,,,60feb1d22d3c61aeab816651,610378cc864e7cffc8c68912,2021-07-30_13h59.41.249,Simcolourproject_2stim_asymm_v5,2020.2.10,Win32,60,61025ae37ef11b136ea224fe,,,,,,,,,2386,102,-63,1,0,0,response3disk,,5,12,1,1,0,0,rectangle,12,1,1,0,0,12,1,1,0,0,0,16,16,47,1,,,,,,,,
,,,,,,,,,,,,,FF,,,,,,,,0.9676,,,,,,,,,,,,,,,,,,,,,,60feb1d22d3c61aeab816651,610378cc864e7cffc8c68912,2021-07-30_13h59.41.249,Simcolourproject_2stim_asymm_v5,2020.2.10,Win32,60,61025ae37ef11b136ea224fe,,,,,,,,,924,84,29,1,0,0,response1disk,,6,-10,-5,1,0,0,rectangle,-10,-5,1,0,0,-10,-5,1,0,0,0,17,17,33,1,,,,,,,,
,,,,,,,,,,,,,FF,,,,,,,,1.0335,,,,,,,,,,,,,,,,,,,,,,60feb1d22d3c61aeab816651,610378cc864e7cffc8c68912,2021-07-30_13h59.41.249,Simcolourproject_2stim_asymm_v5,2020.2.10,Win32,60,61025ae37ef11b136ea224fe,,,,,,,,,3373,-63,-55,1,0,0,response5disk,,2,-5,-1,1,0,0,rectangle,-5,-1,1,0,0,-5,-1,1,0,0,0,18,18,17,1,,,,,,,,
,,,,,,,,,,,,,FF,,,,,,,,1.5329,,,,,,,,,,,,,,,,,,,,,,60feb1d22d3c61aeab816651,610378cc864e7cffc8c68912,2021-07-30_13h59.41.249,Simcolourproject_2stim_asymm_v5,2020.2.10,Win32,60,61025ae37ef11b136ea224fe,,,,,,,,,544,-85,45,1,0,0,response7disk,,1,-3,0,1,0,0,rectangle,-3,0,1,0,0,-3,0,1,0,0,0,19,19,103,1,,,,,,,,
,,,,,,,,,,,,,FF,,,,,,,,1.5,,,,,,,,,,,,,,,,,,,,,,60feb1d22d3c61aeab816651,610378cc864e7cffc8c68912,2021-07-30_13h59.41.249,Simcolourproject_2stim_asymm_v5,2020.2.10,Win32,60,61025ae37ef11b136ea224fe,,,,,,,,,963,58,-47,1,0,0,response3disk,,5,8,-3,1,0,0,rectangle,8,-3,1,0,0,8,-3,1,0,0,0,20,20,139,1,,,,,,,,
,,,,,,,,,,,,,FF,,,,,,,,1.1489,,,,,,,,,,,,,,,,,,,,,,60feb1d22d3c61aeab816651,610378cc864e7cffc8c68912,2021-07-30_13h59.41.249,Simcolourproject_2stim_asymm_v5,2020.2.10,Win32,60,61025ae37ef11b136ea224fe,,,,,,,,,1706,92,68,1,0,0,response1disk,,6,13,4,1,0,0,rectangle,13,4,1,0,0,13,4,1,0,0,0,21,21,51,1,,,,,,,,
,,,,,,,,,,,,,FF,,,,,,,,0.8836,,,,,,,,,,,,,,,,,,,,,,60feb1d22d3c61aeab816651,610378cc864e7cffc8c68912,2021-07-30_13h59.41.249,Simcolourproject_2stim_asymm_v5,2020.2.10,Win32,60,61025ae37ef11b136ea224fe,,,,,,,,,51,43,91,1,0,0,response1disk,,7,2,-9,1,0,0,rectangle,-117,58,1,0,0,3,-3,1,0,0,0,22,22,70,1,,response7disk_3,TRUE,1,1,"[313,135,41,211,85,165,151,119,171,243,5,63,113,154,23,93,9,279,210,270]",2.116,rectangle
,,,,,,,,,,,,,FF,,,,,,,,1.317,,,,,,,,,,,,,,,,,,,,,,60feb1d22d3c61aeab816651,610378cc864e7cffc8c68912,2021-07-30_13h59.41.249,Simcolourproject_2stim_asymm_v5,2020.2.10,Win32,60,61025ae37ef11b136ea224fe,,,,,,,,,2474,-32,-80,1,0,0,response5disk,,3,2,1,1,0,0,rectangle,2,1,1,0,0,2,1,1,0,0,0,23,23,42,1,,,,,,,,
,,,,,,,,,,,,,FF,,,,,,,,1.067,,,,,,,,,,,,,,,,,,,,,,60feb1d22d3c61aeab816651,610378cc864e7cffc8c68912,2021-07-30_13h59.41.249,Simcolourproject_2stim_asymm_v5,2020.2.10,Win32,60,61025ae37ef11b136ea224fe,,,,,,,,,1432,103,47,1,0,0,response1disk,,6,-13,0,1,0,0,rectangle,-13,0,1,0,0,-13,0,1,0,0,0,24,24,154,1,,,,,,,,
,,,,,,,,,,,,,FF,,,,,,,,0.8832,,,,,,,,,,,,,,,,,,,,,,60feb1d22d3c61aeab816651,610378cc864e7cffc8c68912,2021-07-30_13h59.41.249,Simcolourproject_2stim_asymm_v5,2020.2.10,Win32,60,61025ae37ef11b136ea224fe,,,,,,,,,793,69,96,1,0,0,response1disk,,7,14,7,1,0,0,rectangle,14,7,1,0,0,14,7,1,0,0,0,25,25,134,1,,,,,,,,
,,,,,,,,,,,,,FF,,,,,,,,1.5826,,,,,,,,,,,,,,,,,,,,,,60feb1d22d3c61aeab816651,610378cc864e7cffc8c68912,2021-07-30_13h59.41.249,Simcolourproject_2stim_asymm_v5,2020.2.10,Win32,60,61025ae37ef11b136ea224fe,,,,,,,,,1819,-82,-57,1,0,0,response5disk,,2,0,-4,1,0,0,rectangle,0,-4,1,0,0,0,-4,1,0,0,0,26,26,96,1,,,,,,,,
,,,,,,,,,,,,,FF,,,,,,,,0.8005,,,,,,,,,,,,,,,,,,,,,,60feb1d22d3c61aeab816651,610378cc864e7cffc8c68912,2021-07-30_13h59.41.249,Simcolourproject_2stim_asymm_v5,2020.2.10,Win32,60,61025ae37ef11b136ea224fe,,,,,,,,,386,41,-76,1,0,0,response3disk,,4,15,3,1,0,0,rectangle,15,3,1,0,0,15,3,1,0,0,0,27,27,94,1,,,,,,,,
,,,,,,,,,,,,,FF,,,,,,,,1.1997,,,,,,,,,,,,,,,,,,,,,,60feb1d22d3c61aeab816651,610378cc864e7cffc8c68912,2021-07-30_13h59.41.249,Simcolourproject_2stim_asymm_v5,2020.2.10,Win32,60,61025ae37ef11b136ea224fe,,,,,,,,,2783,-89,-57,1,0,0,response5disk,,2,17,4,1,0,0,rectangle,17,4,1,0,0,17,4,1,0,0,0,28,28,98,1,,,,,,,,
,,,,,,,,,,,,,FF,,,,,,,,1.0833,,,,,,,,,,,,,,,,,,,,,,60feb1d22d3c61aeab816651,610378cc864e7cffc8c68912,2021-07-30_13h59.41.249,Simcolourproject_2stim_asymm_v5,2020.2.10,Win32,60,61025ae37ef11b136ea224fe,,,,,,,,,1378,-45,-92,1,0,0,response5disk,,3,9,-1,1,0,0,rectangle,9,-1,1,0,0,9,-1,1,0,0,0,29,29,9,1,,,,,,,,
,,,,,,,,,,,,,FF,,,,,,,,0.7822,,,,,,,,,,,,,,,,,,,,,,60feb1d22d3c61aeab816651,610378cc864e7cffc8c68912,2021-07-30_13h59.41.249,Simcolourproject_2stim_asymm_v5,2020.2.10,Win32,60,61025ae37ef11b136ea224fe,,,,,,,,,2206,37,97,1,0,0,response1disk,,7,10,4,1,0,0,rectangle,10,4,1,0,0,10,4,1,0,0,0,30,30,16,1,,,,,,,,
,,,,,,,,,,,,,FF,,,,,,,,8.7841,,,,,,,,,,,,,,,,,,,,,,60feb1d22d3c61aeab816651,610378cc864e7cffc8c68912,2021-07-30_13h59.41.249,Simcolourproject_2stim_asymm_v5,2020.2.10,Win32,60,61025ae37ef11b136ea224fe,,,,,,,,,2845,128,42,1,0,0,response1disk,,6,8,4,1,0,0,rectangle,8,4,1,0,0,8,4,1,0,0,0,31,31,64,1,,,,,,,,
,,,,,,,,,,,,,FF,,,,,,,,0.7329,,,,,,,,,,,,,,,,,,,,,,60feb1d22d3c61aeab816651,610378cc864e7cffc8c68912,2021-07-30_13h59.41.249,Simcolourproject_2stim_asymm_v5,2020.2.10,Win32,60,61025ae37ef11b136ea224fe,,,,,,,,,2302,39,-77,1,0,0,response3disk,,4,12,0,1,0,0,rectangle,12,0,1,0,0,12,0,1,0,0,0,32,32,86,1,,,,,,,,
,,,,,,,,,,,,,FF,,,,,,,,0.9162,,,,,,,,,,,,,,,,,,,,,,60feb1d22d3c61aeab816651,610378cc864e7cffc8c68912,2021-07-30_13h59.41.249,Simcolourproject_2stim_asymm_v5,2020.2.10,Win32,60,61025ae37ef11b136ea224fe,,,,,,,,,773,22,109,1,0,0,response1disk,,7,12,2,1,0,0,rectangle,12,2,1,0,0,12,2,1,0,0,0,33,33,36,1,,,,,,,,
,,,,,,,,,,,,,FF,,,,,,,,0.9829,,,,,,,,,,,,,,,,,,,,,,60feb1d22d3c61aeab816651,610378cc864e7cffc8c68912,2021-07-30_13h59.41.249,Simcolourproject_2stim_asymm_v5,2020.2.10,Win32,60,61025ae37ef11b136ea224fe,,,,,,,,,508,81,-28,1,0,0,response3disk,,5,15,7,1,0,0,rectangle,15,7,1,0,0,15,7,1,0,0,0,34,34,108,1,,,,,,,,
,,,,,,,,,,,,,FF,,,,,,,,0.8831,,,,,,,,,,,,,,,,,,,,,,60feb1d22d3c61aeab816651,610378cc864e7cffc8c68912,2021-07-30_13h59.41.249,Simcolourproject_2stim_asymm_v5,2020.2.10,Win32,60,61025ae37ef11b136ea224fe,,,,,,,,,3850,-43,-75,1,0,0,response5disk,,3,2,-6,1,0,0,rectangle,2,-6,1,0,0,2,-6,1,0,0,0,35,35,111,1,,,,,,,,
,,,,,,,,,,,,,FF,,,,,,,,0.9865,,,,,,,,,,,,,,,,,,,,,,60feb1d22d3c61aeab816651,610378cc864e7cffc8c68912,2021-07-30_13h59.41.249,Simcolourproject_2stim_asymm_v5,2020.2.10,Win32,60,61025ae37ef11b136ea224fe,,,,,,,,,4014,59,109,1,0,0,response1disk,,7,-1,-7,1,0,0,rectangle,-1,-7,1,0,0,-1,-7,1,0,0,0,36,36,13,1,,,,,,,,
,,,,,,,,,,,,,FF,,,,,,,,0.8663,,,,,,,,,,,,,,,,,,,,,,60feb1d22d3c61aeab816651,610378cc864e7cffc8c68912,2021-07-30_13h59.41.249,Simcolourproject_2stim_asymm_v5,2020.2.10,Win32,60,61025ae37ef11b136ea224fe,,,,,,,,,2787,-40,-45,1,0,0,response5disk,,3,-10,-7,1,0,0,rectangle,-10,-7,1,0,0,-10,-7,1,0,0,0,37,37,34,1,,,,,,,,
,,,,,,,,,,,,,FF,,,,,,,,3.2675,,,,,,,,,,,,,,,,,,,,,,60feb1d22d3c61aeab816651,610378cc864e7cffc8c68912,2021-07-30_13h59.41.249,Simcolourproject_2stim_asymm_v5,2020.2.10,Win32,60,61025ae37ef11b136ea224fe,,,,,,,,,1672,65,-94,1,0,0,response3disk,,4,19,6,1,0,0,rectangle,19,6,1,0,0,19,6,1,0,0,0,38,38,18,1,,,,,,,,
,,,,,,,,,,,,,FF,,,,,,,,0.6495,,,,,,,,,,,,,,,,,,,,,,60feb1d22d3c61aeab816651,610378cc864e7cffc8c68912,2021-07-30_13h59.41.249,Simcolourproject_2stim_asymm_v5,2020.2.10,Win32,60,61025ae37ef11b136ea224fe,,,,,,,,,1460,-69,-55,1,0,0,response5disk,,2,5,0,1,0,0,rectangle,5,0,1,0,0,5,0,1,0,0,0,39,39,41,1,,,,,,,,
,,,,,,,,,,,,,FF,,,,,,,,0.7669,,,,,,,,,,,,,,,,,,,,,,60feb1d22d3c61aeab816651,610378cc864e7cffc8c68912,2021-07-30_13h59.41.249,Simcolourproject_2stim_asymm_v5,2020.2.10,Win32,60,61025ae37ef11b136ea224fe,,,,,,,,,1407,54,-43,1,0,0,response3disk,,5,17,-2,1,0,0,rectangle,60,-81,1,0,0,4,1,1,0,0,0,40,40,61,1,,response3disk_3,TRUE,4,4,"[313,135,41,211,85,165,151,119,171,243,5,63,113,154,23,93,9,279,210,270]",1.1504,rectangle
,,,,,,,,,,,,,FF,,,,,,,,2.699,,,,,,,,,,,,,,,,,,,,,,60feb1d22d3c61aeab816651,610378cc864e7cffc8c68912,2021-07-30_13h59.41.249,Simcolourproject_2stim_asymm_v5,2020.2.10,Win32,60,61025ae37ef11b136ea224fe,,,,,,,,,108,-38,-89,1,0,0,response5disk,,3,-5,-2,1,0,0,rectangle,-5,-2,1,0,0,-5,-2,1,0,0,0,41,41,135,1,,,,,,,,
,,,,,,,,,,,,,FF,,,,,,,,1.2169,,,,,,,,,,,,,,,,,,,,,,60feb1d22d3c61aeab816651,610378cc864e7cffc8c68912,2021-07-30_13h59.41.249,Simcolourproject_2stim_asymm_v5,2020.2.10,Win32,60,61025ae37ef11b136ea224fe,,,,,,,,,1076,36,-91,1,0,0,response3disk,,4,4,1,1,0,0,rectangle,4,1,1,0,0,4,1,1,0,0,0,42,42,44,1,,,,,,,,
,,,,,,,,,,,,,FF,,,,,,,,0.7668,,,,,,,,,,,,,,,,,,,,,,60feb1d22d3c61aeab816651,610378cc864e7cffc8c68912,2021-07-30_13h59.41.249,Simcolourproject_2stim_asymm_v5,2020.2.10,Win32,60,61025ae37ef11b136ea224fe,,,,,,,,,4324,48,97,1,0,0,response1disk,,7,9,-1,1,0,0,rectangle,9,-1,1,0,0,9,-1,1,0,0,0,43,43,74,1,,,,,,,,
,,,,,,,,,,,,,FF,,,,,,,,1.4664,,,,,,,,,,,,,,,,,,,,,,60feb1d22d3c61aeab816651,610378cc864e7cffc8c68912,2021-07-30_13h59.41.249,Simcolourproject_2stim_asymm_v5,2020.2.10,Win32,60,61025ae37ef11b136ea224fe,,,,,,,,,908,54,-83,1,0,0,response3disk,,4,15,-5,1,0,0,rectangle,15,-5,1,0,0,15,-5,1,0,0,0,44,44,80,1,,,,,,,,
,,,,,,,,,,,,,FF,,,,,,,,1.9503,,,,,,,,,,,,,,,,,,,,,,60feb1d22d3c61aeab816651,610378cc864e7cffc8c68912,2021-07-30_13h59.41.249,Simcolourproject_2stim_asymm_v5,2020.2.10,Win32,60,61025ae37ef11b136ea224fe,,,,,,,,,1112,-38,-73,1,0,0,response5disk,,3,12,6,1,0,0,rectangle,12,6,1,0,0,12,6,1,0,0,0,45,45,137,1,,,,,,,,
,,,,,,,,,,,,,FF,,,,,,,,1.184,,,,,,,,,,,,,,,,,,,,,,60feb1d22d3c61aeab816651,610378cc864e7cffc8c68912,2021-07-30_13h59.41.249,Simcolourproject_2stim_asymm_v5,2020.2.10,Win32,60,61025ae37ef11b136ea224fe,,,,,,,,,560,-29,-79,1,0,0,response5disk,,3,7,6,1,0,0,rectangle,7,6,1,0,0,7,6,1,0,0,0,46,46,4,1,,,,,,,,
,,,,,,,,,,,,,FF,,,,,,,,0.8501,,,,,,,,,,,,,,,,,,,,,,60feb1d22d3c61aeab816651,610378cc864e7cffc8c68912,2021-07-30_13h59.41.249,Simcolourproject_2stim_asymm_v5,2020.2.10,Win32,60,61025ae37ef11b136ea224fe,,,,,,,,,2066,92,23,1,0,0,response1disk,,6,17,-2,1,0,0,rectangle,17,-2,1,0,0,17,-2,1,0,0,0,47,47,45,1,,,,,,,,
,,,,,,,,,,,,,FF,,,,,,,,0.7331,,,,,,,,,,,,,,,,,,,,,,60feb1d22d3c61aeab816651,610378cc864e7cffc8c68912,2021-07-30_13h59.41.249,Simcolourproject_2stim_asymm_v5,2020.2.10,Win32,60,61025ae37ef11b136ea224fe,,,,,,,,,2136,49,66,1,0,0,response1disk,,7,18,5,1,0,0,rectangle,18,5,1,0,0,18,5,1,0,0,0,48,48,151,1,,,,,,,,
,,,,,,,,,,,,,FF,,,,,,,,1.1333,,,,,,,,,,,,,,,,,,,,,,60feb1d22d3c61aeab816651,610378cc864e7cffc8c68912,2021-07-30_13h59.41.249,Simcolourproject_2stim_asymm_v5,2020.2.10,Win32,60,61025ae37ef11b136ea224fe,,,,,,,,,3591,-110,44,1,0,0,response7disk,,1,7,10,1,0,0,rectangle,7,10,1,0,0,7,10,1,0,0,0,49,49,155,1,,,,,,,,
,,,,,,,,,,,,,FF,,,,,,,,1.6004,,,,,,,,,,,,,,,,,,,,,,60feb1d22d3c61aeab816651,610378cc864e7cffc8c68912,2021-07-30_13h59.41.249,Simcolourproject_2stim_asymm_v5,2020.2.10,Win32,60,61025ae37ef11b136ea224fe,,,,,,,,,358,79,-56,1,0,0,response3disk,,5,15,3,1,0,0,rectangle,15,3,1,0,0,15,3,1,0,0,0,50,50,50,1,,,,,,,,
,,,,,,,,,,,,,FF,,,,,,,,0.9158,,,,,,,,,,,,,,,,,,,,,,60feb1d22d3c61aeab816651,610378cc864e7cffc8c68912,2021-07-30_13h59.41.249,Simcolourproject_2stim_asymm_v5,2020.2.10,Win32,60,61025ae37ef11b136ea224fe,,,,,,,,,2468,57,-90,1,0,0,response3disk,,4,1,-1,1,0,0,rectangle,1,-1,1,0,0,1,-1,1,0,0,0,51,51,159,1,,,,,,,,
,,,,,,,,,,,,,FF,,,,,,,,0.5659,,,,,,,,,,,,,,,,,,,,,,60feb1d22d3c61aeab816651,610378cc864e7cffc8c68912,2021-07-30_13h59.41.249,Simcolourproject_2stim_asymm_v5,2020.2.10,Win32,60,61025ae37ef11b136ea224fe,,,,,,,,,2818,58,115,1,0,0,response1disk,,7,6,0,1,0,0,rectangle,6,0,1,0,0,6,0,1,0,0,0,52,52,58,1,,,,,,,,
,,,,,,,,,,,,,FF,,,,,,,,1.6017,,,,,,,,,,,,,,,,,,,,,,60feb1d22d3c61aeab816651,610378cc864e7cffc8c68912,2021-07-30_13h59.41.249,Simcolourproject_2stim_asymm_v5,2020.2.10,Win32,60,61025ae37ef11b136ea224fe,,,,,,,,,3181,44,104,1,0,0,response1disk,,7,11,9,1,0,0,rectangle,11,9,1,0,0,11,9,1,0,0,0,53,53,12,1,,,,,,,,
,,,,,,,,,,,,,FF,,,,,,,,1.0328,,,,,,,,,,,,,,,,,,,,,,60feb1d22d3c61aeab816651,610378cc864e7cffc8c68912,2021-07-30_13h59.41.249,Simcolourproject_2stim_asymm_v5,2020.2.10,Win32,60,61025ae37ef11b136ea224fe,,,,,,,,,3424,28,77,1,0,0,response1disk,,7,9,3,1,0,0,rectangle,9,3,1,0,0,9,3,1,0,0,0,54,54,73,1,,,,,,,,
,,,,,,,,,,,,,FF,,,,,,,,0.6495,,,,,,,,,,,,,,,,,,,,,,60feb1d22d3c61aeab816651,610378cc864e7cffc8c68912,2021-07-30_13h59.41.249,Simcolourproject_2stim_asymm_v5,2020.2.10,Win32,60,61025ae37ef11b136ea224fe,,,,,,,,,2448,52,94,1,0,0,response1disk,,7,-4,7,1,0,0,rectangle,-4,7,1,0,0,-4,7,1,0,0,0,55,55,156,1,,,,,,,,
,,,,,,,,,,,,,FF,,,,,,,,1.7839,,,,,,,,,,,,,,,,,,,,,,60feb1d22d3c61aeab816651,610378cc864e7cffc8c68912,2021-07-30_13h59.41.249,Simcolourproject_2stim_asymm_v5,2020.2.10,Win32,60,61025ae37ef11b136ea224fe,,,,,,,,,4228,81,44,1,0,0,response1disk,,6,-9,2,1,0,0,rectangle,-9,2,1,0,0,-9,2,1,0,0,0,56,56,153,1,,,,,,,,
,,,,,,,,,,,,,FF,,,,,,,,1.1674,,,,,,,,,,,,,,,,,,,,,,60feb1d22d3c61aeab816651,610378cc864e7cffc8c68912,2021-07-30_13h59.41.249,Simcolourproject_2stim_asymm_v5,2020.2.10,Win32,60,61025ae37ef11b136ea224fe,,,,,,,,,2880,-46,-73,1,0,0,response5disk,,3,-6,6,1,0,0,rectangle,-6,6,1,0,0,-6,6,1,0,0,0,57,57,53,1,,,,,,,,
,,,,,,,,,,,,,FF,,,,,,,,3.0997,,,,,,,,,,,,,,,,,,,,,,60feb1d22d3c61aeab816651,610378cc864e7cffc8c68912,2021-07-30_13h59.41.249,Simcolourproject_2stim_asymm_v5,2020.2.10,Win32,60,61025ae37ef11b136ea224fe,,,,,,,,,3329,71,-48,1,0,0,response3disk,,5,7,2,1,0,0,rectangle,7,2,1,0,0,7,2,1,0,0,0,58,58,72,1,,,,,,,,
,,,,,,,,,,,,,FF,,,,,,,,1.1168,,,,,,,,,,,,,,,,,,,,,,60feb1d22d3c61aeab816651,610378cc864e7cffc8c68912,2021-07-30_13h59.41.249,Simcolourproject_2stim_asymm_v5,2020.2.10,Win32,60,61025ae37ef11b136ea224fe,,,,,,,,,1295,-49,-119,1,0,0,response5disk,,3,8,3,1,0,0,rectangle,8,3,1,0,0,8,3,1,0,0,0,59,59,129,1,,,,,,,,
,,,,,,,,,,,,,FF,,,,,,,,0.7833,,,,,,,,,,,,,,,,,,,,,,60feb1d22d3c61aeab816651,610378cc864e7cffc8c68912,2021-07-30_13h59.41.249,Simcolourproject_2stim_asymm_v5,2020.2.10,Win32,60,61025ae37ef11b136ea224fe,,,,,,,,,3396,-23,-61,1,0,0,response5disk,,3,-6,-1,1,0,0,rectangle,-6,-1,1,0,0,-6,-1,1,0,0,0,60,60,39,1,,,,,,,,
,,,,,,,,,,,,,FF,,,,,,,,0.817,,,,,,,,,,,,,,,,,,,,,,60feb1d22d3c61aeab816651,610378cc864e7cffc8c68912,2021-07-30_13h59.41.249,Simcolourproject_2stim_asymm_v5,2020.2.10,Win32,60,61025ae37ef11b136ea224fe,,,,,,,,,2002,59,55,1,0,0,response1disk,,6,9,-1,1,0,0,rectangle,9,-1,1,0,0,9,-1,1,0,0,0,61,61,23,1,,,,,,,,
,,,,,,,,,,,,,FF,,,,,,,,0.6669,,,,,,,,,,,,,,,,,,,,,,60feb1d22d3c61aeab816651,610378cc864e7cffc8c68912,2021-07-30_13h59.41.249,Simcolourproject_2stim_asymm_v5,2020.2.10,Win32,60,61025ae37ef11b136ea224fe,,,,,,,,,682,37,85,1,0,0,response1disk,,7,4,-1,1,0,0,rectangle,110,-49,1,0,0,6,-1,1,0,0,0,62,62,109,1,,response3disk_3,TRUE,5,5,"[313,135,41,211,85,165,151,119,171,243,5,63,113,154,23,93,9,279,210,270]",1.0996,rectangle
,,,,,,,,,,,,,FF,,,,,,,,1.517,,,,,,,,,,,,,,,,,,,,,,60feb1d22d3c61aeab816651,610378cc864e7cffc8c68912,2021-07-30_13h59.41.249,Simcolourproject_2stim_asymm_v5,2020.2.10,Win32,60,61025ae37ef11b136ea224fe,,,,,,,,,2713,26,-72,1,0,0,response3disk,,4,21,-9,1,0,0,rectangle,21,-9,1,0,0,21,-9,1,0,0,0,63,63,62,1,,,,,,,,
,,,,,,,,,,,,,FF,,,,,,,,0.6328,,,,,,,,,,,,,,,,,,,,,,60feb1d22d3c61aeab816651,610378cc864e7cffc8c68912,2021-07-30_13h59.41.249,Simcolourproject_2stim_asymm_v5,2020.2.10,Win32,60,61025ae37ef11b136ea224fe,,,,,,,,,2361,27,-63,1,0,0,response3disk,,4,9,2,1,0,0,rectangle,9,2,1,0,0,9,2,1,0,0,0,64,64,55,1,,,,,,,,
,,,,,,,,,,,,,FF,,,,,,,,30.5993,,,,,,,,,,,,,,,,,,,,,,60feb1d22d3c61aeab816651,610378cc864e7cffc8c68912,2021-07-30_13h59.41.249,Simcolourproject_2stim_asymm_v5,2020.2.10,Win32,60,61025ae37ef11b136ea224fe,,,,,,,,,889,144,-57,1,0,0,response3disk,,5,21,1,1,0,0,rectangle,21,1,1,0,0,21,1,1,0,0,0,65,65,131,1,,,,,,,,
,,,,,,,,,,,,,FF,,,,,,,,35.483,,,,,,,,,,,,,,,,,,,,,,60feb1d22d3c61aeab816651,610378cc864e7cffc8c68912,2021-07-30_13h59.41.249,Simcolourproject_2stim_asymm_v5,2020.2.10,Win32,60,61025ae37ef11b136ea224fe,,,,,,,,,1666,92,-132.5,1,0,0,response3disk,,4,2,-5.5,1,0,0,rectangle,2,-5.5,1,0,0,2,-5.5,1,0,0,0,66,66,28,1,,,,,,,,
,,,,,,,,,,,,,FF,,,,,,,,0.9829,,,,,,,,,,,,,,,,,,,,,,60feb1d22d3c61aeab816651,610378cc864e7cffc8c68912,2021-07-30_13h59.41.249,Simcolourproject_2stim_asymm_v5,2020.2.10,Win32,60,61025ae37ef11b136ea224fe,,,,,,,,,3708,-67,-45.5,1,0,0,response5disk,,2,-1,3.5,1,0,0,rectangle,-1,3.5,1,0,0,-1,3.5,1,0,0,0,67,67,128,1,,,,,,,,
,,,,,,,,,,,,,FF,,,,,,,,0.6493,,,,,,,,,,,,,,,,,,,,,,60feb1d22d3c61aeab816651,610378cc864e7cffc8c68912,2021-07-30_13h59.41.249,Simcolourproject_2stim_asymm_v5,2020.2.10,Win32,60,61025ae37ef11b136ea224fe,,,,,,,,,2103,-57,-50.5,1,0,0,response5disk,,2,1,4.5,1,0,0,rectangle,1,4.5,1,0,0,1,4.5,1,0,0,0,68,68,14,1,,,,,,,,
,,,,,,,,,,,,,FF,,,,,,,,1.2999,,,,,,,,,,,,,,,,,,,,,,60feb1d22d3c61aeab816651,610378cc864e7cffc8c68912,2021-07-30_13h59.41.249,Simcolourproject_2stim_asymm_v5,2020.2.10,Win32,60,61025ae37ef11b136ea224fe,,,,,,,,,3707,-86,-38.5,1,0,0,response5disk,,2,-3,7.5,1,0,0,rectangle,-3,7.5,1,0,0,-3,7.5,1,0,0,0,69,69,48,1,,,,,,,,
,,,,,,,,,,,,,FF,,,,,,,,0.7334,,,,,,,,,,,,,,,,,,,,,,60feb1d22d3c61aeab816651,610378cc864e7cffc8c68912,2021-07-30_13h59.41.249,Simcolourproject_2stim_asymm_v5,2020.2.10,Win32,60,61025ae37ef11b136ea224fe,,,,,,,,,3303,-34,-87.5,1,0,0,response5disk,,3,5,-4.5,1,0,0,rectangle,5,-4.5,1,0,0,5,-4.5,1,0,0,0,70,70,147,1,,,,,,,,
,,,,,,,,,,,,,FF,,,,,,,,0.7499,,,,,,,,,,,,,,,,,,,,,,60feb1d22d3c61aeab816651,610378cc864e7cffc8c68912,2021-07-30_13h59.41.249,Simcolourproject_2stim_asymm_v5,2020.2.10,Win32,60,61025ae37ef11b136ea224fe,,,,,,,,,927,63,80.5,1,0,0,response1disk,,7,9,6.5,1,0,0,rectangle,9,6.5,1,0,0,9,6.5,1,0,0,0,71,71,10,1,,,,,,,,
,,,,,,,,,,,,,FF,,,,,,,,1.3167,,,,,,,,,,,,,,,,,,,,,,60feb1d22d3c61aeab816651,610378cc864e7cffc8c68912,2021-07-30_13h59.41.249,Simcolourproject_2stim_asymm_v5,2020.2.10,Win32,60,61025ae37ef11b136ea224fe,,,,,,,,,2152,96,-42.5,1,0,0,response3disk,,5,-3,-4.5,1,0,0,rectangle,-3,-4.5,1,0,0,-3,-4.5,1,0,0,0,72,72,146,1,,,,,,,,
,,,,,,,,,,,,,FF,,,,,,,,1.0826,,,,,,,,,,,,,,,,,,,,,,60feb1d22d3c61aeab816651,610378cc864e7cffc8c68912,2021-07-30_13h59.41.249,Simcolourproject_2stim_asymm_v5,2020.2.10,Win32,60,61025ae37ef11b136ea224fe,,,,,,,,,3657,48,88.5,1,0,0,response1disk,,7,-1,0.5,1,0,0,rectangle,-1,0.5,1,0,0,-1,0.5,1,0,0,0,73,73,15,1,,,,,,,,
,,,,,,,,,,,,,FF,,,,,,,,0.8174,,,,,,,,,,,,,,,,,,,,,,60feb1d22d3c61aeab816651,610378cc864e7cffc8c68912,2021-07-30_13h59.41.249,Simcolourproject_2stim_asymm_v5,2020.2.10,Win32,60,61025ae37ef11b136ea224fe,,,,,,,,,3214,28,104.5,1,0,0,response1disk,,7,6,1.5,1,0,0,rectangle,6,1.5,1,0,0,6,1.5,1,0,0,0,74,74,27,1,,,,,,,,
,,,,,,,,,,,,,FF,,,,,,,,0.6335,,,,,,,,,,,,,,,,,,,,,,60feb1d22d3c61aeab816651,610378cc864e7cffc8c68912,2021-07-30_13h59.41.249,Simcolourproject_2stim_asymm_v5,2020.2.10,Win32,60,61025ae37ef11b136ea224fe,,,,,,,,,3137,54,90.5,1,0,0,response1disk,,7,12,4.5,1,0,0,rectangle,12,4.5,1,0,0,12,4.5,1,0,0,0,75,75,76,1,,,,,,,,
,,,,,,,,,,,,,FF,,,,,,,,1.5009,,,,,,,,,,,,,,,,,,,,,,60feb1d22d3c61aeab816651,610378cc864e7cffc8c68912,2021-07-30_13h59.41.249,Simcolourproject_2stim_asymm_v5,2020.2.10,Win32,60,61025ae37ef11b136ea224fe,,,,,,,,,1418,54,112.5,1,0,0,response1disk,,7,8,-1.5,1,0,0,rectangle,8,-1.5,1,0,0,8,-1.5,1,0,0,0,76,76,25,1,,,,,,,,
,,,,,,,,,,,,,FF,,,,,,,,1.3842,,,,,,,,,,,,,,,,,,,,,,60feb1d22d3c61aeab816651,610378cc864e7cffc8c68912,2021-07-30_13h59.41.249,Simcolourproject_2stim_asymm_v5,2020.2.10,Win32,60,61025ae37ef11b136ea224fe,,,,,,,,,2479,54,101.5,1,0,0,response1disk,,7,1,6.5,1,0,0,rectangle,1,6.5,1,0,0,1,6.5,1,0,0,0,77,77,122,1,,,,,,,,
,,,,,,,,,,,,,FF,,,,,,,,0.5508,,,,,,,,,,,,,,,,,,,,,,60feb1d22d3c61aeab816651,610378cc864e7cffc8c68912,2021-07-30_13h59.41.249,Simcolourproject_2stim_asymm_v5,2020.2.10,Win32,60,61025ae37ef11b136ea224fe,,,,,,,,,2331,50,91.5,1,0,0,response1disk,,7,1,-2.5,1,0,0,rectangle,1,-2.5,1,0,0,1,-2.5,1,0,0,0,78,78,101,1,,,,,,,,
,,,,,,,,,,,,,FF,,,,,,,,1.0662,,,,,,,,,,,,,,,,,,,,,,60feb1d22d3c61aeab816651,610378cc864e7cffc8c68912,2021-07-30_13h59.41.249,Simcolourproject_2stim_asymm_v5,2020.2.10,Win32,60,61025ae37ef11b136ea224fe,,,,,,,,,351,-32,-55.5,1,0,0,response5disk,,3,-3,-4.5,1,0,0,rectangle,-3,-4.5,1,0,0,-3,-4.5,1,0,0,0,79,79,143,1,,,,,,,,
,,,,,,,,,,,,,FF,,,,,,,,1.2833,,,,,,,,,,,,,,,,,,,,,,60feb1d22d3c61aeab816651,610378cc864e7cffc8c68912,2021-07-30_13h59.41.249,Simcolourproject_2stim_asymm_v5,2020.2.10,Win32,60,61025ae37ef11b136ea224fe,,,,,,,,,830,43,-85.5,1,0,0,response3disk,,4,7,-5.5,1,0,0,rectangle,7,-5.5,1,0,0,7,-5.5,1,0,0,0,80,80,126,1,,,,,,,,
,,,,,,,,,,,,,FF,,,,,,,,0.5501,,,,,,,,,,,,,,,,,,,,,,60feb1d22d3c61aeab816651,610378cc864e7cffc8c68912,2021-07-30_13h59.41.249,Simcolourproject_2stim_asymm_v5,2020.2.10,Win32,60,61025ae37ef11b136ea224fe,,,,,,,,,1719,38,78.5,1,0,0,response1disk,,7,7,1.5,1,0,0,rectangle,7,1.5,1,0,0,7,1.5,1,0,0,0,81,81,3,1,,,,,,,,
,,,,,,,,,,,,,FF,,,,,,,,2.5175,,,,,,,,,,,,,,,,,,,,,,60feb1d22d3c61aeab816651,610378cc864e7cffc8c68912,2021-07-30_13h59.41.249,Simcolourproject_2stim_asymm_v5,2020.2.10,Win32,60,61025ae37ef11b136ea224fe,,,,,,,,,2697,82,-61.5,1,0,0,response3disk,,5,9,-4.5,1,0,0,rectangle,9,-4.5,1,0,0,9,-4.5,1,0,0,0,82,82,120,1,,,,,,,,
,,,,,,,,,,,,,FF,,,,,,,,0.683,,,,,,,,,,,,,,,,,,,,,,60feb1d22d3c61aeab816651,610378cc864e7cffc8c68912,2021-07-30_13h59.41.249,Simcolourproject_2stim_asymm_v5,2020.2.10,Win32,60,61025ae37ef11b136ea224fe,,,,,,,,,1986,42,77.5,1,0,0,response1disk,,7,-2,-3.5,1,0,0,rectangle,-2,-3.5,1,0,0,-2,-3.5,1,0,0,0,83,83,106,1,,,,,,,,
,,,,,,,,,,,,,FF,,,,,,,,1.3174,,,,,,,,,,,,,,,,,,,,,,60feb1d22d3c61aeab816651,610378cc864e7cffc8c68912,2021-07-30_13h59.41.249,Simcolourproject_2stim_asymm_v5,2020.2.10,Win32,60,61025ae37ef11b136ea224fe,,,,,,,,,345,-40,-71.5,1,0,0,response5disk,,3,0,-5.5,1,0,0,rectangle,54,-97.5,1,0,0,0,-0.5,1,0,0,0,84,84,157,1,,response3disk_3,TRUE,4,4,"[313,135,41,211,85,165,151,119,171,243,5,63,113,154,23,93,9,279,210,270]",1.3684,rectangle
,,,,,,,,,,,,,FF,,,,,,,,0.7834,,,,,,,,,,,,,,,,,,,,,,60feb1d22d3c61aeab816651,610378cc864e7cffc8c68912,2021-07-30_13h59.41.249,Simcolourproject_2stim_asymm_v5,2020.2.10,Win32,60,61025ae37ef11b136ea224fe,,,,,,,,,2614,-27,-57.5,1,0,0,response5disk,,3,8,-1.5,1,0,0,rectangle,8,-1.5,1,0,0,8,-1.5,1,0,0,0,85,85,121,1,,,,,,,,
,,,,,,,,,,,,,FF,,,,,,,,1.0508,,,,,,,,,,,,,,,,,,,,,,60feb1d22d3c61aeab816651,610378cc864e7cffc8c68912,2021-07-30_13h59.41.249,Simcolourproject_2stim_asymm_v5,2020.2.10,Win32,60,61025ae37ef11b136ea224fe,,,,,,,,,4251,-57,76.5,1,0,0,response7disk,,0,2,-5.5,1,0,0,rectangle,2,-5.5,1,0,0,2,-5.5,1,0,0,0,86,86,150,1,,,,,,,,
,,,,,,,,,,,,,FF,,,,,,,,0.9344,,,,,,,,,,,,,,,,,,,,,,60feb1d22d3c61aeab816651,610378cc864e7cffc8c68912,2021-07-30_13h59.41.249,Simcolourproject_2stim_asymm_v5,2020.2.10,Win32,60,61025ae37ef11b136ea224fe,,,,,,,,,2424,-110,-47.5,1,0,0,response5disk,,2,-4,-3.5,1,0,0,rectangle,-4,-3.5,1,0,0,-4,-3.5,1,0,0,0,87,87,138,1,,,,,,,,
,,,,,,,,,,,,,FF,,,,,,,,0.9002,,,,,,,,,,,,,,,,,,,,,,60feb1d22d3c61aeab816651,610378cc864e7cffc8c68912,2021-07-30_13h59.41.249,Simcolourproject_2stim_asymm_v5,2020.2.10,Win32,60,61025ae37ef11b136ea224fe,,,,,,,,,2885,43,75.5,1,0,0,response1disk,,7,-7,6.5,1,0,0,rectangle,-7,6.5,1,0,0,-7,6.5,1,0,0,0,88,88,95,1,,,,,,,,
,,,,,,,,,,,,,FF,,,,,,,,0.9994,,,,,,,,,,,,,,,,,,,,,,60feb1d22d3c61aeab816651,610378cc864e7cffc8c68912,2021-07-30_13h59.41.249,Simcolourproject_2stim_asymm_v5,2020.2.10,Win32,60,61025ae37ef11b136ea224fe,,,,,,,,,866,105,27.5,1,0,0,response1disk,,6,5,-1.5,1,0,0,rectangle,5,-1.5,1,0,0,5,-1.5,1,0,0,0,89,89,26,1,,,,,,,,
,,,,,,,,,,,,,FF,,,,,,,,0.6495,,,,,,,,,,,,,,,,,,,,,,60feb1d22d3c61aeab816651,610378cc864e7cffc8c68912,2021-07-30_13h59.41.249,Simcolourproject_2stim_asymm_v5,2020.2.10,Win32,60,61025ae37ef11b136ea224fe,,,,,,,,,3576,45,72.5,1,0,0,response1disk,,7,3,1.5,1,0,0,rectangle,3,1.5,1,0,0,3,1.5,1,0,0,0,90,90,0,1,,,,,,,,
,,,,,,,,,,,,,FF,,,,,,,,0.9011,,,,,,,,,,,,,,,,,,,,,,60feb1d22d3c61aeab816651,610378cc864e7cffc8c68912,2021-07-30_13h59.41.249,Simcolourproject_2stim_asymm_v5,2020.2.10,Win32,60,61025ae37ef11b136ea224fe,,,,,,,,,2775,-29,97.5,1,0,0,response7disk,,0,-5,-3.5,1,0,0,rectangle,-5,-3.5,1,0,0,-5,-3.5,1,0,0,0,91,91,123,1,,,,,,,,
,,,,,,,,,,,,,FF,,,,,,,,0.95,,,,,,,,,,,,,,,,,,,,,,60feb1d22d3c61aeab816651,610378cc864e7cffc8c68912,2021-07-30_13h59.41.249,Simcolourproject_2stim_asymm_v5,2020.2.10,Win32,60,61025ae37ef11b136ea224fe,,,,,,,,,2883,-50,-56.5,1,0,0,response5disk,,3,-2,-0.5,1,0,0,rectangle,30,96.5,1,0,0,4,1.5,1,0,0,0,92,92,133,1,,response1disk_3,TRUE,7,7,"[313,135,41,211,85,165,151,119,171,243,5,63,113,154,23,93,9,279,210,270]",1.5664,rectangle
,,,,,,,,,,,,,FF,,,,,,,,0.6003,,,,,,,,,,,,,,,,,,,,,,60feb1d22d3c61aeab816651,610378cc864e7cffc8c68912,2021-07-30_13h59.41.249,Simcolourproject_2stim_asymm_v5,2020.2.10,Win32,60,61025ae37ef11b136ea224fe,,,,,,,,,1994,67,86.5,1,0,0,response1disk,,7,-2,6.5,1,0,0,rectangle,-2,6.5,1,0,0,-2,6.5,1,0,0,0,93,93,63,1,,,,,,,,
,,,,,,,,,,,,,FF,,,,,,,,1.1005,,,,,,,,,,,,,,,,,,,,,,60feb1d22d3c61aeab816651,610378cc864e7cffc8c68912,2021-07-30_13h59.41.249,Simcolourproject_2stim_asymm_v5,2020.2.10,Win32,60,61025ae37ef11b136ea224fe,,,,,,,,,1584,22,-59.5,1,0,0,response3disk,,4,5,6.5,1,0,0,rectangle,5,6.5,1,0,0,5,6.5,1,0,0,0,94,94,56,1,,,,,,,,
,,,,,,,,,,,,,FF,,,,,,,,0.7837,,,,,,,,,,,,,,,,,,,,,,60feb1d22d3c61aeab816651,610378cc864e7cffc8c68912,2021-07-30_13h59.41.249,Simcolourproject_2stim_asymm_v5,2020.2.10,Win32,60,61025ae37ef11b136ea224fe,,,,,,,,,2817,49,86.5,1,0,0,response1disk,,7,12,-2.5,1,0,0,rectangle,12,-2.5,1,0,0,12,-2.5,1,0,0,0,95,95,49,1,,,,,,,,
,,,,,,,,,,,,,FF,,,,,,,,0.5501,,,,,,,,,,,,,,,,,,,,,,60feb1d22d3c61aeab816651,610378cc864e7cffc8c68912,2021-07-30_13h59.41.249,Simcolourproject_2stim_asymm_v5,2020.2.10,Win32,60,61025ae37ef11b136ea224fe,,,,,,,,,576,56,87.5,1,0,0,response1disk,,7,-1,4.5,1,0,0,rectangle,-1,4.5,1,0,0,-1,4.5,1,0,0,0,96,96,52,1,,,,,,,,
,,,,,,,,,,,,,FF,,,,,,,,0.4501,,,,,,,,,,,,,,,,,,,,,,60feb1d22d3c61aeab816651,610378cc864e7cffc8c68912,2021-07-30_13h59.41.249,Simcolourproject_2stim_asymm_v5,2020.2.10,Win32,60,61025ae37ef11b136ea224fe,,,,,,,,,3904,44,75.5,1,0,0,response1disk,,7,-2,0.5,1,0,0,rectangle,-2,0.5,1,0,0,-2,0.5,1,0,0,0,97,97,100,1,,,,,,,,
,,,,,,,,,,,,,FF,,,,,,,,0.7674,,,,,,,,,,,,,,,,,,,,,,60feb1d22d3c61aeab816651,610378cc864e7cffc8c68912,2021-07-30_13h59.41.249,Simcolourproject_2stim_asymm_v5,2020.2.10,Win32,60,61025ae37ef11b136ea224fe,,,,,,,,,96,33,-74.5,1,0,0,response3disk,,4,3,3.5,1,0,0,rectangle,3,3.5,1,0,0,3,3.5,1,0,0,0,98,98,22,1,,,,,,,,
,,,,,,,,,,,,,FF,,,,,,,,0.8491,,,,,,,,,,,,,,,,,,,,,,60feb1d22d3c61aeab816651,610378cc864e7cffc8c68912,2021-07-30_13h59.41.249,Simcolourproject_2stim_asymm_v5,2020.2.10,Win32,60,61025ae37ef11b136ea224fe,,,,,,,,,718,-28,-72.5,1,0,0,response5disk,,3,9,-1.5,1,0,0,rectangle,9,-1.5,1,0,0,9,-1.5,1,0,0,0,99,99,105,1,,,,,,,,
,,,,,,,,,,,,,FF,,,,,,,,1.9166,,,,,,,,,,,,,,,,,,,,,,60feb1d22d3c61aeab816651,610378cc864e7cffc8c68912,2021-07-30_13h59.41.249,Simcolourproject_2stim_asymm_v5,2020.2.10,Win32,60,61025ae37ef11b136ea224fe,,,,,,,,,3912,64,35.5,1,0,0,response1disk,,6,12,3.5,1,0,0,rectangle,12,3.5,1,0,0,12,3.5,1,0,0,0,100,100,8,1,,,,,,,,
,,,,,,,,,,,,,FF,,,,,,,,59.3175,,,,,,,,,,,,,,,,,,,,,,60feb1d22d3c61aeab816651,610378cc864e7cffc8c68912,2021-07-30_13h59.41.249,Simcolourproject_2stim_asymm_v5,2020.2.10,Win32,60,61025ae37ef11b136ea224fe,,,,,,,,,3172,87,126.5,1,0,0,response1disk,,7,6,-0.5,1,0,0,rectangle,6,-0.5,1,0,0,6,-0.5,1,0,0,0,101,101,40,1,,,,,,,,
,,,,,,,,,,,,,FF,,,,,,,,1.3992,,,,,,,,,,,,,,,,,,,,,,60feb1d22d3c61aeab816651,610378cc864e7cffc8c68912,2021-07-30_13h59.41.249,Simcolourproject_2stim_asymm_v5,2020.2.10,Win32,60,61025ae37ef11b136ea224fe,,,,,,,,,4261,53,82.5,1,0,0,response1disk,,7,6,-3.5,1,0,0,rectangle,6,-3.5,1,0,0,6,-3.5,1,0,0,0,102,102,91,1,,,,,,,,
,,,,,,,,,,,,,FF,,,,,,,,1.7348,,,,,,,,,,,,,,,,,,,,,,60feb1d22d3c61aeab816651,610378cc864e7cffc8c68912,2021-07-30_13h59.41.249,Simcolourproject_2stim_asymm_v5,2020.2.10,Win32,60,61025ae37ef11b136ea224fe,,,,,,,,,1685,49,-84.5,1,0,0,response3disk,,4,2,-1.5,1,0,0,rectangle,2,-1.5,1,0,0,2,-1.5,1,0,0,0,103,103,46,1,,,,,,,,
,,,,,,,,,,,,,FF,,,,,,,,0.5671,,,,,,,,,,,,,,,,,,,,,,60feb1d22d3c61aeab816651,610378cc864e7cffc8c68912,2021-07-30_13h59.41.249,Simcolourproject_2stim_asymm_v5,2020.2.10,Win32,60,61025ae37ef11b136ea224fe,,,,,,,,,459,33,-64.5,1,0,0,response3disk,,4,-5,3.5,1,0,0,rectangle,-5,3.5,1,0,0,-5,3.5,1,0,0,0,104,104,7,1,,,,,,,,
,,,,,,,,,,,,,FF,,,,,,,,0.7329,,,,,,,,,,,,,,,,,,,,,,60feb1d22d3c61aeab816651,610378cc864e7cffc8c68912,2021-07-30_13h59.41.249,Simcolourproject_2stim_asymm_v5,2020.2.10,Win32,60,61025ae37ef11b136ea224fe,,,,,,,,,1546,39,115.5,1,0,0,response1disk,,7,10,0.5,1,0,0,rectangle,10,0.5,1,0,0,10,0.5,1,0,0,0,105,105,84,1,,,,,,,,
,,,,,,,,,,,,,FF,,,,,,,,0.583,,,,,,,,,,,,,,,,,,,,,,60feb1d22d3c61aeab816651,610378cc864e7cffc8c68912,2021-07-30_13h59.41.249,Simcolourproject_2stim_asymm_v5,2020.2.10,Win32,60,61025ae37ef11b136ea224fe,,,,,,,,,2741,40,73.5,1,0,0,response1disk,,7,4,2.5,1,0,0,rectangle,4,2.5,1,0,0,4,2.5,1,0,0,0,106,106,125,1,,,,,,,,
,,,,,,,,,,,,,FF,,,,,,,,3.1494,,,,,,,,,,,,,,,,,,,,,,60feb1d22d3c61aeab816651,610378cc864e7cffc8c68912,2021-07-30_13h59.41.249,Simcolourproject_2stim_asymm_v5,2020.2.10,Win32,60,61025ae37ef11b136ea224fe,,,,,,,,,3295,-48,-80.5,1,0,0,response5disk,,3,6,1.5,1,0,0,rectangle,6,1.5,1,0,0,6,1.5,1,0,0,0,107,107,158,1,,,,,,,,
,,,,,,,,,,,,,FF,,,,,,,,2.1159,,,,,,,,,,,,,,,,,,,,,,60feb1d22d3c61aeab816651,610378cc864e7cffc8c68912,2021-07-30_13h59.41.249,Simcolourproject_2stim_asymm_v5,2020.2.10,Win32,60,61025ae37ef11b136ea224fe,,,,,,,,,3808,93,-40.5,1,0,0,response3disk,,5,-7,2.5,1,0,0,rectangle,-7,2.5,1,0,0,-7,2.5,1,0,0,0,108,108,5,1,,,,,,,,
,,,,,,,,,,,,,FF,,,,,,,,0.867,,,,,,,,,,,,,,,,,,,,,,60feb1d22d3c61aeab816651,610378cc864e7cffc8c68912,2021-07-30_13h59.41.249,Simcolourproject_2stim_asymm_v5,2020.2.10,Win32,60,61025ae37ef11b136ea224fe,,,,,,,,,3341,-30,-71.5,1,0,0,response5disk,,3,12,5.5,1,0,0,rectangle,12,5.5,1,0,0,12,5.5,1,0,0,0,109,109,127,1,,,,,,,,
,,,,,,,,,,,,,FF,,,,,,,,0.6826,,,,,,,,,,,,,,,,,,,,,,60feb1d22d3c61aeab816651,610378cc864e7cffc8c68912,2021-07-30_13h59.41.249,Simcolourproject_2stim_asymm_v5,2020.2.10,Win32,60,61025ae37ef11b136ea224fe,,,,,,,,,2896,-40,-76.5,1,0,0,response5disk,,3,-5,1.5,1,0,0,rectangle,-5,1.5,1,0,0,-5,1.5,1,0,0,0,110,110,11,1,,,,,,,,
,,,,,,,,,,,,,FF,,,,,,,,1.1993,,,,,,,,,,,,,,,,,,,,,,60feb1d22d3c61aeab816651,610378cc864e7cffc8c68912,2021-07-30_13h59.41.249,Simcolourproject_2stim_asymm_v5,2020.2.10,Win32,60,61025ae37ef11b136ea224fe,,,,,,,,,504,48,92.5,1,0,0,response1disk,,7,-1,3.5,1,0,0,rectangle,-1,3.5,1,0,0,-1,3.5,1,0,0,0,111,111,59,1,,,,,,,,
,,,,,,,,,,,,,FF,,,,,,,,1.2832,,,,,,,,,,,,,,,,,,,,,,60feb1d22d3c61aeab816651,610378cc864e7cffc8c68912,2021-07-30_13h59.41.249,Simcolourproject_2stim_asymm_v5,2020.2.10,Win32,60,61025ae37ef11b136ea224fe,,,,,,,,,3932,29,-65.5,1,0,0,response3disk,,4,-1,4.5,1,0,0,rectangle,-78,-35.5,1,0,0,-2,-1.5,1,0,0,0,112,112,118,1,,response5disk_3,TRUE,2,2,"[313,135,41,211,85,165,151,119,171,243,5,63,113,154,23,93,9,279,210,270]",1.5988,rectangle
,,,,,,,,,,,,,FF,,,,,,,,1.5829,,,,,,,,,,,,,,,,,,,,,,60feb1d22d3c61aeab816651,610378cc864e7cffc8c68912,2021-07-30_13h59.41.249,Simcolourproject_2stim_asymm_v5,2020.2.10,Win32,60,61025ae37ef11b136ea224fe,,,,,,,,,1632,57,66.5,1,0,0,response1disk,,7,4,-4.5,1,0,0,rectangle,4,-4.5,1,0,0,4,-4.5,1,0,0,0,113,113,19,1,,,,,,,,
,,,,,,,,,,,,,FF,,,,,,,,1.5001,,,,,,,,,,,,,,,,,,,,,,60feb1d22d3c61aeab816651,610378cc864e7cffc8c68912,2021-07-30_13h59.41.249,Simcolourproject_2stim_asymm_v5,2020.2.10,Win32,60,61025ae37ef11b136ea224fe,,,,,,,,,2487,48,-73.5,1,0,0,response3disk,,4,1,1.5,1,0,0,rectangle,1,1.5,1,0,0,1,1.5,1,0,0,0,114,114,2,1,,,,,,,,
,,,,,,,,,,,,,FF,,,,,,,,1.2323,,,,,,,,,,,,,,,,,,,,,,60feb1d22d3c61aeab816651,610378cc864e7cffc8c68912,2021-07-30_13h59.41.249,Simcolourproject_2stim_asymm_v5,2020.2.10,Win32,60,61025ae37ef11b136ea224fe,,,,,,,,,3439,-47,-93.5,1,0,0,response5disk,,3,-11,5.5,1,0,0,rectangle,-11,5.5,1,0,0,-11,5.5,1,0,0,0,115,115,24,1,,,,,,,,
,,,,,,,,,,,,,FF,,,,,,,,0.6162,,,,,,,,,,,,,,,,,,,,,,60feb1d22d3c61aeab816651,610378cc864e7cffc8c68912,2021-07-30_13h59.41.249,Simcolourproject_2stim_asymm_v5,2020.2.10,Win32,60,61025ae37ef11b136ea224fe,,,,,,,,,2318,31,70.5,1,0,0,response1disk,,7,7,-4.5,1,0,0,rectangle,7,-4.5,1,0,0,7,-4.5,1,0,0,0,116,116,87,1,,,,,,,,
,,,,,,,,,,,,,FF,,,,,,,,0.9828,,,,,,,,,,,,,,,,,,,,,,60feb1d22d3c61aeab816651,610378cc864e7cffc8c68912,2021-07-30_13h59.41.249,Simcolourproject_2stim_asymm_v5,2020.2.10,Win32,60,61025ae37ef11b136ea224fe,,,,,,,,,1269,45,-71.5,1,0,0,response3disk,,4,6,6.5,1,0,0,rectangle,6,6.5,1,0,0,6,6.5,1,0,0,0,117,117,78,1,,,,,,,,
,,,,,,,,,,,,,FF,,,,,,,,0.7666,,,,,,,,,,,,,,,,,,,,,,60feb1d22d3c61aeab816651,610378cc864e7cffc8c68912,2021-07-30_13h59.41.249,Simcolourproject_2stim_asymm_v5,2020.2.10,Win32,60,61025ae37ef11b136ea224fe,,,,,,,,,1337,43,105.5,1,0,0,response1disk,,7,8,-2.5,1,0,0,rectangle,100,43.5,1,0,0,1,4.5,1,0,0,0,118,118,93,1,,response1disk_3,TRUE,6,6,"[313,135,41,211,85,165,151,119,171,243,5,63,113,154,23,93,9,279,210,270]",2.5503,rectangle
,,,,,,,,,,,,,FF,,,,,,,,0.6498,,,,,,,,,,,,,,,,,,,,,,60feb1d22d3c61aeab816651,610378cc864e7cffc8c68912,2021-07-30_13h59.41.249,Simcolourproject_2stim_asymm_v5,2020.2.10,Win32,60,61025ae37ef11b136ea224fe,,,,,,,,,178,40,81.5,1,0,0,response1disk,,7,9,1.5,1,0,0,rectangle,9,1.5,1,0,0,9,1.5,1,0,0,0,119,119,38,1,,,,,,,,
,,,,,,,,,,,,,FF,,,,,,,,1.8335,,,,,,,,,,,,,,,,,,,,,,60feb1d22d3c61aeab816651,610378cc864e7cffc8c68912,2021-07-30_13h59.41.249,Simcolourproject_2stim_asymm_v5,2020.2.10,Win32,60,61025ae37ef11b136ea224fe,,,,,,,,,647,33,-67.5,1,0,0,response3disk,,4,-7,-7.5,1,0,0,rectangle,-7,-7.5,1,0,0,-7,-7.5,1,0,0,0,120,120,81,1,,,,,,,,
,,,,,,,,,,,,,FF,,,,,,,,1.25,,,,,,,,,,,,,,,,,,,,,,60feb1d22d3c61aeab816651,610378cc864e7cffc8c68912,2021-07-30_13h59.41.249,Simcolourproject_2stim_asymm_v5,2020.2.10,Win32,60,61025ae37ef11b136ea224fe,,,,,,,,,1200,78,-50.5,1,0,0,response3disk,,5,11,-2.5,1,0,0,rectangle,11,-2.5,1,0,0,11,-2.5,1,0,0,0,121,121,90,1,,,,,,,,
,,,,,,,,,,,,,FF,,,,,,,,0.7338,,,,,,,,,,,,,,,,,,,,,,60feb1d22d3c61aeab816651,610378cc864e7cffc8c68912,2021-07-30_13h59.41.249,Simcolourproject_2stim_asymm_v5,2020.2.10,Win32,60,61025ae37ef11b136ea224fe,,,,,,,,,3729,38,87.5,1,0,0,response1disk,,7,1,2.5,1,0,0,rectangle,1,2.5,1,0,0,1,2.5,1,0,0,0,122,122,68,1,,,,,,,,
,,,,,,,,,,,,,FF,,,,,,,,0.7324,,,,,,,,,,,,,,,,,,,,,,60feb1d22d3c61aeab816651,610378cc864e7cffc8c68912,2021-07-30_13h59.41.249,Simcolourproject_2stim_asymm_v5,2020.2.10,Win32,60,61025ae37ef11b136ea224fe,,,,,,,,,464,29,-75.5,1,0,0,response3disk,,4,0,-0.5,1,0,0,rectangle,0,-0.5,1,0,0,0,-0.5,1,0,0,0,123,123,107,1,,,,,,,,
,,,,,,,,,,,,,FF,,,,,,,,0.6337,,,,,,,,,,,,,,,,,,,,,,60feb1d22d3c61aeab816651,610378cc864e7cffc8c68912,2021-07-30_13h59.41.249,Simcolourproject_2stim_asymm_v5,2020.2.10,Win32,60,61025ae37ef11b136ea224fe,,,,,,,,,2484,-42,-61.5,1,0,0,response5disk,,3,-4,1.5,1,0,0,rectangle,-4,1.5,1,0,0,-4,1.5,1,0,0,0,124,124,32,1,,,,,,,,
,,,,,,,,,,,,,FF,,,,,,,,0.6662,,,,,,,,,,,,,,,,,,,,,,60feb1d22d3c61aeab816651,610378cc864e7cffc8c68912,2021-07-30_13h59.41.249,Simcolourproject_2stim_asymm_v5,2020.2.10,Win32,60,61025ae37ef11b136ea224fe,,,,,,,,,937,33,73.5,1,0,0,response1disk,,7,11,5.5,1,0,0,rectangle,11,5.5,1,0,0,11,5.5,1,0,0,0,125,125,115,1,,,,,,,,
,,,,,,,,,,,,,FF,,,,,,,,0.9839,,,,,,,,,,,,,,,,,,,,,,60feb1d22d3c61aeab816651,610378cc864e7cffc8c68912,2021-07-30_13h59.41.249,Simcolourproject_2stim_asymm_v5,2020.2.10,Win32,60,61025ae37ef11b136ea224fe,,,,,,,,,2007,46,76.5,1,0,0,response1disk,,7,6,7.5,1,0,0,rectangle,6,7.5,1,0,0,6,7.5,1,0,0,0,126,126,145,1,,,,,,,,
,,,,,,,,,,,,,FF,,,,,,,,1.35,,,,,,,,,,,,,,,,,,,,,,60feb1d22d3c61aeab816651,610378cc864e7cffc8c68912,2021-07-30_13h59.41.249,Simcolourproject_2stim_asymm_v5,2020.2.10,Win32,60,61025ae37ef11b136ea224fe,,,,,,,,,1113,39,79.5,1,0,0,response1disk,,7,7,1.5,1,0,0,rectangle,7,1.5,1,0,0,7,1.5,1,0,0,0,127,127,88,1,,,,,,,,
,,,,,,,,,,,,,FF,,,,,,,,0.8836,,,,,,,,,,,,,,,,,,,,,,60feb1d22d3c61aeab816651,610378cc864e7cffc8c68912,2021-07-30_13h59.41.249,Simcolourproject_2stim_asymm_v5,2020.2.10,Win32,60,61025ae37ef11b136ea224fe,,,,,,,,,2226,-59,105.5,1,0,0,response7disk,,0,-9,7.5,1,0,0,rectangle,-9,7.5,1,0,0,-9,7.5,1,0,0,0,128,128,69,1,,,,,,,,
,,,,,,,,,,,,,FF,,,,,,,,2.0505,,,,,,,,,,,,,,,,,,,,,,60feb1d22d3c61aeab816651,610378cc864e7cffc8c68912,2021-07-30_13h59.41.249,Simcolourproject_2stim_asymm_v5,2020.2.10,Win32,60,61025ae37ef11b136ea224fe,,,,,,,,,4048,-44,-65.5,1,0,0,response5disk,,3,12,0.5,1,0,0,rectangle,12,0.5,1,0,0,12,0.5,1,0,0,0,129,129,92,1,,,,,,,,
,,,,,,,,,,,,,FF,,,,,,,,0.6498,,,,,,,,,,,,,,,,,,,,,,60feb1d22d3c61aeab816651,610378cc864e7cffc8c68912,2021-07-30_13h59.41.249,Simcolourproject_2stim_asymm_v5,2020.2.10,Win32,60,61025ae37ef11b136ea224fe,,,,,,,,,4343,-45,80.5,1,0,0,response7disk,,0,0,-0.5,1,0,0,rectangle,0,-0.5,1,0,0,0,-0.5,1,0,0,0,130,130,57,1,,,,,,,,
,,,,,,,,,,,,,FF,,,,,,,,2.6994,,,,,,,,,,,,,,,,,,,,,,60feb1d22d3c61aeab816651,610378cc864e7cffc8c68912,2021-07-30_13h59.41.249,Simcolourproject_2stim_asymm_v5,2020.2.10,Win32,60,61025ae37ef11b136ea224fe,,,,,,,,,1644,116,60.5,1,0,0,response1disk,,6,3,-2.5,1,0,0,rectangle,3,-2.5,1,0,0,3,-2.5,1,0,0,0,131,131,119,1,,,,,,,,
,,,,,,,,,,,,,FF,,,,,,,,0.9996,,,,,,,,,,,,,,,,,,,,,,60feb1d22d3c61aeab816651,610378cc864e7cffc8c68912,2021-07-30_13h59.41.249,Simcolourproject_2stim_asymm_v5,2020.2.10,Win32,60,61025ae37ef11b136ea224fe,,,,,,,,,1230,-31,-74.5,1,0,0,response5disk,,3,1,-1.5,1,0,0,rectangle,1,-1.5,1,0,0,1,-1.5,1,0,0,0,132,132,152,1,,,,,,,,
,,,,,,,,,,,,,FF,,,,,,,,2.7977,,,,,,,,,,,,,,,,,,,,,,60feb1d22d3c61aeab816651,610378cc864e7cffc8c68912,2021-07-30_13h59.41.249,Simcolourproject_2stim_asymm_v5,2020.2.10,Win32,60,61025ae37ef11b136ea224fe,,,,,,,,,2873,36,81.5,1,0,0,response1disk,,7,-8,0.5,1,0,0,rectangle,-8,0.5,1,0,0,-8,0.5,1,0,0,0,133,133,75,1,,,,,,,,
,,,,,,,,,,,,,FF,,,,,,,,2.0501,,,,,,,,,,,,,,,,,,,,,,60feb1d22d3c61aeab816651,610378cc864e7cffc8c68912,2021-07-30_13h59.41.249,Simcolourproject_2stim_asymm_v5,2020.2.10,Win32,60,61025ae37ef11b136ea224fe,,,,,,,,,2186,106,46.5,1,0,0,response1disk,,6,1,5.5,1,0,0,rectangle,76,-21.5,1,0,0,-10,2.5,1,0,0,0,134,134,124,1,,response3disk_3,TRUE,5,5,"[313,135,41,211,85,165,151,119,171,243,5,63,113,154,23,93,9,279,210,270]",1.4495,rectangle
,,,,,,,,,,,,,FF,,,,,,,,1.0167,,,,,,,,,,,,,,,,,,,,,,60feb1d22d3c61aeab816651,610378cc864e7cffc8c68912,2021-07-30_13h59.41.249,Simcolourproject_2stim_asymm_v5,2020.2.10,Win32,60,61025ae37ef11b136ea224fe,,,,,,,,,2251,68,-28.5,1,0,0,response3disk,,5,7,3.5,1,0,0,rectangle,7,3.5,1,0,0,7,3.5,1,0,0,0,135,135,54,1,,,,,,,,
,,,,,,,,,,,,,FF,,,,,,,,1.0001,,,,,,,,,,,,,,,,,,,,,,60feb1d22d3c61aeab816651,610378cc864e7cffc8c68912,2021-07-30_13h59.41.249,Simcolourproject_2stim_asymm_v5,2020.2.10,Win32,60,61025ae37ef11b136ea224fe,,,,,,,,,1123,117,44.5,1,0,0,response1disk,,6,-4,0.5,1,0,0,rectangle,-4,0.5,1,0,0,-4,0.5,1,0,0,0,136,136,148,1,,,,,,,,
,,,,,,,,,,,,,FF,,,,,,,,0.5167,,,,,,,,,,,,,,,,,,,,,,60feb1d22d3c61aeab816651,610378cc864e7cffc8c68912,2021-07-30_13h59.41.249,Simcolourproject_2stim_asymm_v5,2020.2.10,Win32,60,61025ae37ef11b136ea224fe,,,,,,,,,1884,42,74.5,1,0,0,response1disk,,7,3,5.5,1,0,0,rectangle,3,5.5,1,0,0,3,5.5,1,0,0,0,137,137,97,1,,,,,,,,
,,,,,,,,,,,,,FF,,,,,,,,0.6334,,,,,,,,,,,,,,,,,,,,,,60feb1d22d3c61aeab816651,610378cc864e7cffc8c68912,2021-07-30_13h59.41.249,Simcolourproject_2stim_asymm_v5,2020.2.10,Win32,60,61025ae37ef11b136ea224fe,,,,,,,,,2192,30,84.5,1,0,0,response1disk,,7,3,4.5,1,0,0,rectangle,3,4.5,1,0,0,3,4.5,1,0,0,0,138,138,60,1,,,,,,,,
,,,,,,,,,,,,,FF,,,,,,,,0.7842,,,,,,,,,,,,,,,,,,,,,,60feb1d22d3c61aeab816651,610378cc864e7cffc8c68912,2021-07-30_13h59.41.249,Simcolourproject_2stim_asymm_v5,2020.2.10,Win32,60,61025ae37ef11b136ea224fe,,,,,,,,,3476,-27,-48.5,1,0,0,response5disk,,3,-8,-4.5,1,0,0,rectangle,-8,-4.5,1,0,0,-8,-4.5,1,0,0,0,139,139,1,1,,,,,,,,
,,,,,,,,,,,,,FF,,,,,,,,0.5832,,,,,,,,,,,,,,,,,,,,,,60feb1d22d3c61aeab816651,610378cc864e7cffc8c68912,2021-07-30_13h59.41.249,Simcolourproject_2stim_asymm_v5,2020.2.10,Win32,60,61025ae37ef11b136ea224fe,,,,,,,,,3459,35,98.5,1,0,0,response1disk,,7,-8,-3.5,1,0,0,rectangle,-8,-3.5,1,0,0,-8,-3.5,1,0,0,0,140,140,114,1,,,,,,,,
,,,,,,,,,,,,,FF,,,,,,,,1.1838,,,,,,,,,,,,,,,,,,,,,,60feb1d22d3c61aeab816651,610378cc864e7cffc8c68912,2021-07-30_13h59.41.249,Simcolourproject_2stim_asymm_v5,2020.2.10,Win32,60,61025ae37ef11b136ea224fe,,,,,,,,,3988,43,73.5,1,0,0,response1disk,,7,0,5.5,1,0,0,rectangle,0,5.5,1,0,0,0,5.5,1,0,0,0,141,141,77,1,,,,,,,,
,,,,,,,,,,,,,FF,,,,,,,,0.8667,,,,,,,,,,,,,,,,,,,,,,60feb1d22d3c61aeab816651,610378cc864e7cffc8c68912,2021-07-30_13h59.41.249,Simcolourproject_2stim_asymm_v5,2020.2.10,Win32,60,61025ae37ef11b136ea224fe,,,,,,,,,4352,-30,-54.5,1,0,0,response5disk,,3,2,-2.5,1,0,0,rectangle,2,-2.5,1,0,0,2,-2.5,1,0,0,0,142,142,144,1,,,,,,,,
,,,,,,,,,,,,,FF,,,,,,,,0.5508,,,,,,,,,,,,,,,,,,,,,,60feb1d22d3c61aeab816651,610378cc864e7cffc8c68912,2021-07-30_13h59.41.249,Simcolourproject_2stim_asymm_v5,2020.2.10,Win32,60,61025ae37ef11b136ea224fe,,,,,,,,,1785,42,93.5,1,0,0,response1disk,,7,11,5.5,1,0,0,rectangle,11,5.5,1,0,0,11,5.5,1,0,0,0,143,143,35,1,,,,,,,,
,,,,,,,,,,,,,FF,,,,,,,,0.4668,,,,,,,,,,,,,,,,,,,,,,60feb1d22d3c61aeab816651,610378cc864e7cffc8c68912,2021-07-30_13h59.41.249,Simcolourproject_2stim_asymm_v5,2020.2.10,Win32,60,61025ae37ef11b136ea224fe,,,,,,,,,4234,42,79.5,1,0,0,response1disk,,7,5,1.5,1,0,0,rectangle,5,1.5,1,0,0,5,1.5,1,0,0,0,144,144,85,1,,,,,,,,
,,,,,,,,,,,,,FF,,,,,,,,0.583,,,,,,,,,,,,,,,,,,,,,,60feb1d22d3c61aeab816651,610378cc864e7cffc8c68912,2021-07-30_13h59.41.249,Simcolourproject_2stim_asymm_v5,2020.2.10,Win32,60,61025ae37ef11b136ea224fe,,,,,,,,,2862,43,104.5,1,0,0,response1disk,,7,-6,-1.5,1,0,0,rectangle,-6,-1.5,1,0,0,-6,-1.5,1,0,0,0,145,145,142,1,,,,,,,,
,,,,,,,,,,,,,FF,,,,,,,,0.9156,,,,,,,,,,,,,,,,,,,,,,60feb1d22d3c61aeab816651,610378cc864e7cffc8c68912,2021-07-30_13h59.41.249,Simcolourproject_2stim_asymm_v5,2020.2.10,Win32,60,61025ae37ef11b136ea224fe,,,,,,,,,1781,35,72.5,1,0,0,response1disk,,7,3,-0.5,1,0,0,rectangle,3,-0.5,1,0,0,3,-0.5,1,0,0,0,146,146,112,1,,,,,,,,
,,,,,,,,,,,,,FF,,,,,,,,1.3325,,,,,,,,,,,,,,,,,,,,,,60feb1d22d3c61aeab816651,610378cc864e7cffc8c68912,2021-07-30_13h59.41.249,Simcolourproject_2stim_asymm_v5,2020.2.10,Win32,60,61025ae37ef11b136ea224fe,,,,,,,,,552,31,-68.5,1,0,0,response3disk,,4,10,-5.5,1,0,0,rectangle,10,-5.5,1,0,0,10,-5.5,1,0,0,0,147,147,140,1,,,,,,,,
,,,,,,,,,,,,,FF,,,,,,,,0.484,,,,,,,,,,,,,,,,,,,,,,60feb1d22d3c61aeab816651,610378cc864e7cffc8c68912,2021-07-30_13h59.41.249,Simcolourproject_2stim_asymm_v5,2020.2.10,Win32,60,61025ae37ef11b136ea224fe,,,,,,,,,3174,49,94.5,1,0,0,response1disk,,7,1,-0.5,1,0,0,rectangle,1,-0.5,1,0,0,1,-0.5,1,0,0,0,148,148,37,1,,,,,,,,
,,,,,,,,,,,,,FF,,,,,,,,1.2175,,,,,,,,,,,,,,,,,,,,,,60feb1d22d3c61aeab816651,610378cc864e7cffc8c68912,2021-07-30_13h59.41.249,Simcolourproject_2stim_asymm_v5,2020.2.10,Win32,60,61025ae37ef11b136ea224fe,,,,,,,,,3876,67,-42.5,1,0,0,response3disk,,5,9,-5.5,1,0,0,rectangle,9,-5.5,1,0,0,9,-5.5,1,0,0,0,149,149,117,1,,,,,,,,
,,,,,,,,,,,,,FF,,,,,,,,0.6668,,,,,,,,,,,,,,,,,,,,,,60feb1d22d3c61aeab816651,610378cc864e7cffc8c68912,2021-07-30_13h59.41.249,Simcolourproject_2stim_asymm_v5,2020.2.10,Win32,60,61025ae37ef11b136ea224fe,,,,,,,,,1397,45,102.5,1,0,0,response1disk,,7,7,-0.5,1,0,0,rectangle,96,54.5,1,0,0,8,2.5,1,0,0,0,150,150,113,1,,response1disk_3,TRUE,6,6,"[313,135,41,211,85,165,151,119,171,243,5,63,113,154,23,93,9,279,210,270]",1.3159,rectangle
,,,,,,,,,,,,,FF,,,,,,,,0.5827,,,,,,,,,,,,,,,,,,,,,,60feb1d22d3c61aeab816651,610378cc864e7cffc8c68912,2021-07-30_13h59.41.249,Simcolourproject_2stim_asymm_v5,2020.2.10,Win32,60,61025ae37ef11b136ea224fe,,,,,,,,,56,40,80.5,1,0,0,response1disk,,7,4,5.5,1,0,0,rectangle,4,5.5,1,0,0,4,5.5,1,0,0,0,151,151,116,1,,,,,,,,
,,,,,,,,,,,,,FF,,,,,,,,0.4337,,,,,,,,,,,,,,,,,,,,,,60feb1d22d3c61aeab816651,610378cc864e7cffc8c68912,2021-07-30_13h59.41.249,Simcolourproject_2stim_asymm_v5,2020.2.10,Win32,60,61025ae37ef11b136ea224fe,,,,,,,,,25,46,83.5,1,0,0,response1disk,,7,4,-0.5,1,0,0,rectangle,4,-0.5,1,0,0,4,-0.5,1,0,0,0,152,152,102,1,,,,,,,,
,,,,,,,,,,,,,FF,,,,,,,,0.449,,,,,,,,,,,,,,,,,,,,,,60feb1d22d3c61aeab816651,610378cc864e7cffc8c68912,2021-07-30_13h59.41.249,Simcolourproject_2stim_asymm_v5,2020.2.10,Win32,60,61025ae37ef11b136ea224fe,,,,,,,,,1669,38,80.5,1,0,0,response1disk,,7,-9,-7.5,1,0,0,rectangle,-50,103.5,1,0,0,9,3.5,1,0,0,0,153,153,104,1,,response7disk_3,TRUE,0,0,"[313,135,41,211,85,165,151,119,171,243,5,63,113,154,23,93,9,279,210,270]",1.6321,rectangle
,,,,,,,,,,,,,FF,,,,,,,,1.6833,,,,,,,,,,,,,,,,,,,,,,60feb1d22d3c61aeab816651,610378cc864e7cffc8c68912,2021-07-30_13h59.41.249,Simcolourproject_2stim_asymm_v5,2020.2.10,Win32,60,61025ae37ef11b136ea224fe,,,,,,,,,782,71,-39.5,1,0,0,response3disk,,5,1,-0.5,1,0,0,rectangle,1,-0.5,1,0,0,1,-0.5,1,0,0,0,154,154,29,1,,,,,,,,
,,,,,,,,,,,,,FF,,,,,,,,1.3172,,,,,,,,,,,,,,,,,,,,,,60feb1d22d3c61aeab816651,610378cc864e7cffc8c68912,2021-07-30_13h59.41.249,Simcolourproject_2stim_asymm_v5,2020.2.10,Win32,60,61025ae37ef11b136ea224fe,,,,,,,,,2101,-69,-49.5,1,0,0,response5disk,,2,12,0.5,1,0,0,rectangle,12,0.5,1,0,0,12,0.5,1,0,0,0,155,155,136,1,,,,,,,,
,,,,,,,,,,,,,FF,,,,,,,,1.1992,,,,,,,,,,,,,,,,,,,,,,60feb1d22d3c61aeab816651,610378cc864e7cffc8c68912,2021-07-30_13h59.41.249,Simcolourproject_2stim_asymm_v5,2020.2.10,Win32,60,61025ae37ef11b136ea224fe,,,,,,,,,2593,67,38.5,1,0,0,response1disk,,6,-6,-1.5,1,0,0,rectangle,-6,-1.5,1,0,0,-6,-1.5,1,0,0,0,156,156,89,1,,,,,,,,
,,,,,,,,,,,,,FF,,,,,,,,1.0495,,,,,,,,,,,,,,,,,,,,,,60feb1d22d3c61aeab816651,610378cc864e7cffc8c68912,2021-07-30_13h59.41.249,Simcolourproject_2stim_asymm_v5,2020.2.10,Win32,60,61025ae37ef11b136ea224fe,,,,,,,,,1374,45,-62.5,1,0,0,response3disk,,4,-1,-4.5,1,0,0,rectangle,-1,-4.5,1,0,0,-1,-4.5,1,0,0,0,157,157,110,1,,,,,,,,
,,,,,,,,,,,,,FF,,,,,,,,0.6503,,,,,,,,,,,,,,,,,,,,,,60feb1d22d3c61aeab816651,610378cc864e7cffc8c68912,2021-07-30_13h59.41.249,Simcolourproject_2stim_asymm_v5,2020.2.10,Win32,60,61025ae37ef11b136ea224fe,,,,,,,,,2324,55,73.5,1,0,0,response1disk,,7,10,1.5,1,0,0,rectangle,10,1.5,1,0,0,10,1.5,1,0,0,0,158,158,99,1,,,,,,,,
,,,,,,,,,,,,,FF,,,,,,,,0.7502,,,,,,,,,,,,,,,,,,,,,,60feb1d22d3c61aeab816651,610378cc864e7cffc8c68912,2021-07-30_13h59.41.249,Simcolourproject_2stim_asymm_v5,2020.2.10,Win32,60,61025ae37ef11b136ea224fe,,,,,,,,,2916,43,78.5,1,0,0,response1disk,,7,11,2.5,1,0,0,rectangle,11,2.5,1,0,0,11,2.5,1,0,0,0,159,159,20,1,,,,,,,,
,,,,,,,,,,,,,FF,,,,,,,,0.7165,,,,,,,,,,,,,,,,,,,,,,60feb1d22d3c61aeab816651,610378cc864e7cffc8c68912,2021-07-30_13h59.41.249,Simcolourproject_2stim_asymm_v5,2020.2.10,Win32,60,61025ae37ef11b136ea224fe,,,,,,,,,3028,46,66.5,1,0,0,response1disk,,7,-6,-6.5,1,0,0,rectangle,-6,-6.5,1,0,0,-6,-6.5,1,0,0,1,0,160,150,1,,,,,,,,
,,,,,,,,,,,,,FF,,,,,,,,0.4662,,,,,,,,,,,,,,,,,,,,,,60feb1d22d3c61aeab816651,610378cc864e7cffc8c68912,2021-07-30_13h59.41.249,Simcolourproject_2stim_asymm_v5,2020.2.10,Win32,60,61025ae37ef11b136ea224fe,,,,,,,,,2918,38,69.5,1,0,0,response1disk,,7,2,-0.5,1,0,0,rectangle,2,-0.5,1,0,0,2,-0.5,1,0,0,1,1,161,128,1,,,,,,,,
,,,,,,,,,,,,,FF,,,,,,,,0.5004,,,,,,,,,,,,,,,,,,,,,,60feb1d22d3c61aeab816651,610378cc864e7cffc8c68912,2021-07-30_13h59.41.249,Simcolourproject_2stim_asymm_v5,2020.2.10,Win32,60,61025ae37ef11b136ea224fe,,,,,,,,,334,35,65.5,1,0,0,response1disk,,7,-6,-2.5,1,0,0,rectangle,-6,-2.5,1,0,0,-6,-2.5,1,0,0,1,2,162,13,1,,,,,,,,
,,,,,,,,,,,,,FF,,,,,,,,0.6661,,,,,,,,,,,,,,,,,,,,,,60feb1d22d3c61aeab816651,610378cc864e7cffc8c68912,2021-07-30_13h59.41.249,Simcolourproject_2stim_asymm_v5,2020.2.10,Win32,60,61025ae37ef11b136ea224fe,,,,,,,,,641,-34,-48.5,1,0,0,response5disk,,3,-7,2.5,1,0,0,rectangle,-7,2.5,1,0,0,-7,2.5,1,0,0,1,3,163,27,1,,,,,,,,
,,,,,,,,,,,,,FF,,,,,,,,0.6335,,,,,,,,,,,,,,,,,,,,,,60feb1d22d3c61aeab816651,610378cc864e7cffc8c68912,2021-07-30_13h59.41.249,Simcolourproject_2stim_asymm_v5,2020.2.10,Win32,60,61025ae37ef11b136ea224fe,,,,,,,,,1888,-57,-41.5,1,0,0,response5disk,,2,-9,-7.5,1,0,0,rectangle,-33,96.5,1,0,0,5,1.5,1,0,0,1,4,164,35,1,,response7disk_3,TRUE,0,0,"[313,135,41,211,85,165,151,119,171,243,5,63,113,154,23,93,9,279,210,270]",1.4333,rectangle
,,,,,,,,,,,,,FF,,,,,,,,0.4831,,,,,,,,,,,,,,,,,,,,,,60feb1d22d3c61aeab816651,610378cc864e7cffc8c68912,2021-07-30_13h59.41.249,Simcolourproject_2stim_asymm_v5,2020.2.10,Win32,60,61025ae37ef11b136ea224fe,,,,,,,,,2509,37,87.5,1,0,0,response1disk,,7,-3,2.5,1,0,0,rectangle,-3,2.5,1,0,0,-3,2.5,1,0,0,1,5,165,74,1,,,,,,,,
,,,,,,,,,,,,,FF,,,,,,,,0.5008,,,,,,,,,,,,,,,,,,,,,,60feb1d22d3c61aeab816651,610378cc864e7cffc8c68912,2021-07-30_13h59.41.249,Simcolourproject_2stim_asymm_v5,2020.2.10,Win32,60,61025ae37ef11b136ea224fe,,,,,,,,,486,30,71.5,1,0,0,response1disk,,7,10,3.5,1,0,0,rectangle,10,3.5,1,0,0,10,3.5,1,0,0,1,6,166,138,1,,,,,,,,
,,,,,,,,,,,,,FF,,,,,,,,0.916,,,,,,,,,,,,,,,,,,,,,,60feb1d22d3c61aeab816651,610378cc864e7cffc8c68912,2021-07-30_13h59.41.249,Simcolourproject_2stim_asymm_v5,2020.2.10,Win32,60,61025ae37ef11b136ea224fe,,,,,,,,,3107,-88,-45.5,1,0,0,response5disk,,2,-8,-7.5,1,0,0,rectangle,-8,-7.5,1,0,0,-8,-7.5,1,0,0,1,7,167,49,1,,,,,,,,
,,,,,,,,,,,,,FF,,,,,,,,4.5829,,,,,,,,,,,,,,,,,,,,,,60feb1d22d3c61aeab816651,610378cc864e7cffc8c68912,2021-07-30_13h59.41.249,Simcolourproject_2stim_asymm_v5,2020.2.10,Win32,60,61025ae37ef11b136ea224fe,,,,,,,,,646,48,112.5,1,0,0,response1disk,,7,3,-4.5,1,0,0,rectangle,3,-4.5,1,0,0,3,-4.5,1,0,0,1,8,168,29,1,,,,,,,,
,,,,,,,,,,,,,FF,,,,,,,,0.4834,,,,,,,,,,,,,,,,,,,,,,60feb1d22d3c61aeab816651,610378cc864e7cffc8c68912,2021-07-30_13h59.41.249,Simcolourproject_2stim_asymm_v5,2020.2.10,Win32,60,61025ae37ef11b136ea224fe,,,,,,,,,2372,43,97.5,1,0,0,response1disk,,7,5,-0.5,1,0,0,rectangle,5,-0.5,1,0,0,5,-0.5,1,0,0,1,9,169,83,1,,,,,,,,
,,,,,,,,,,,,,FF,,,,,,,,0.6465,,,,,,,,,,,,,,,,,,,,,,60feb1d22d3c61aeab816651,610378cc864e7cffc8c68912,2021-07-30_13h59.41.249,Simcolourproject_2stim_asymm_v5,2020.2.10,Win32,60,61025ae37ef11b136ea224fe,,,,,,,,,581,31,59.5,1,0,0,response1disk,,7,6,5.5,1,0,0,rectangle,45,-82.5,1,0,0,12,-1.5,1,0,0,1,10,170,20,1,,response3disk_3,TRUE,4,4,"[313,135,41,211,85,165,151,119,171,243,5,63,113,154,23,93,9,279,210,270]",1.0001,rectangle
,,,,,,,,,,,,,FF,,,,,,,,4.65,,,,,,,,,,,,,,,,,,,,,,60feb1d22d3c61aeab816651,610378cc864e7cffc8c68912,2021-07-30_13h59.41.249,Simcolourproject_2stim_asymm_v5,2020.2.10,Win32,60,61025ae37ef11b136ea224fe,,,,,,,,,3269,103,-42.5,1,0,0,response3disk,,5,0,0.5,1,0,0,rectangle,0,0.5,1,0,0,0,0.5,1,0,0,1,11,171,26,1,,,,,,,,
,,,,,,,,,,,,,FF,,,,,,,,1.4835,,,,,,,,,,,,,,,,,,,,,,60feb1d22d3c61aeab816651,610378cc864e7cffc8c68912,2021-07-30_13h59.41.249,Simcolourproject_2stim_asymm_v5,2020.2.10,Win32,60,61025ae37ef11b136ea224fe,,,,,,,,,4205,-96,45.5,1,0,0,response7disk,,1,5,-5.5,1,0,0,rectangle,5,-5.5,1,0,0,5,-5.5,1,0,0,1,12,172,58,1,,,,,,,,
,,,,,,,,,,,,,FF,,,,,,,,0.5834,,,,,,,,,,,,,,,,,,,,,,60feb1d22d3c61aeab816651,610378cc864e7cffc8c68912,2021-07-30_13h59.41.249,Simcolourproject_2stim_asymm_v5,2020.2.10,Win32,60,61025ae37ef11b136ea224fe,,,,,,,,,17,28,78.5,1,0,0,response1disk,,7,6,7.5,1,0,0,rectangle,6,7.5,1,0,0,6,7.5,1,0,0,1,13,173,6,1,,,,,,,,
,,,,,,,,,,,,,FF,,,,,,,,1.2505,,,,,,,,,,,,,,,,,,,,,,60feb1d22d3c61aeab816651,610378cc864e7cffc8c68912,2021-07-30_13h59.41.249,Simcolourproject_2stim_asymm_v5,2020.2.10,Win32,60,61025ae37ef11b136ea224fe,,,,,,,,,3642,96,42.5,1,0,0,response1disk,,6,0,-4.5,1,0,0,rectangle,0,-4.5,1,0,0,0,-4.5,1,0,0,1,14,174,3,1,,,,,,,,
,,,,,,,,,,,,,FF,,,,,,,,0.5661,,,,,,,,,,,,,,,,,,,,,,60feb1d22d3c61aeab816651,610378cc864e7cffc8c68912,2021-07-30_13h59.41.249,Simcolourproject_2stim_asymm_v5,2020.2.10,Win32,60,61025ae37ef11b136ea224fe,,,,,,,,,2681,36,78.5,1,0,0,response1disk,,7,4,1.5,1,0,0,rectangle,4,1.5,1,0,0,4,1.5,1,0,0,1,15,175,36,1,,,,,,,,
,,,,,,,,,,,,,FF,,,,,,,,0.8169,,,,,,,,,,,,,,,,,,,,,,60feb1d22d3c61aeab816651,610378cc864e7cffc8c68912,2021-07-30_13h59.41.249,Simcolourproject_2stim_asymm_v5,2020.2.10,Win32,60,61025ae37ef11b136ea224fe,,,,,,,,,2386,40,81.5,1,0,0,response1disk,,7,-1,4.5,1,0,0,rectangle,-1,4.5,1,0,0,-1,4.5,1,0,0,1,16,176,135,1,,,,,,,,
,,,,,,,,,,,,,FF,,,,,,,,0.6327,,,,,,,,,,,,,,,,,,,,,,60feb1d22d3c61aeab816651,610378cc864e7cffc8c68912,2021-07-30_13h59.41.249,Simcolourproject_2stim_asymm_v5,2020.2.10,Win32,60,61025ae37ef11b136ea224fe,,,,,,,,,924,28,54.5,1,0,0,response1disk,,7,9,-1.5,1,0,0,rectangle,9,-1.5,1,0,0,9,-1.5,1,0,0,1,17,177,60,1,,,,,,,,
,,,,,,,,,,,,,FF,,,,,,,,1.2175,,,,,,,,,,,,,,,,,,,,,,60feb1d22d3c61aeab816651,610378cc864e7cffc8c68912,2021-07-30_13h59.41.249,Simcolourproject_2stim_asymm_v5,2020.2.10,Win32,60,61025ae37ef11b136ea224fe,,,,,,,,,3373,-84,33.5,1,0,0,response7disk,,1,7,2.5,1,0,0,rectangle,7,2.5,1,0,0,7,2.5,1,0,0,1,18,178,50,1,,,,,,,,
,,,,,,,,,,,,,FF,,,,,,,,1.3496,,,,,,,,,,,,,,,,,,,,,,60feb1d22d3c61aeab816651,610378cc864e7cffc8c68912,2021-07-30_13h59.41.249,Simcolourproject_2stim_asymm_v5,2020.2.10,Win32,60,61025ae37ef11b136ea224fe,,,,,,,,,544,-40,-63.5,1,0,0,response5disk,,3,1,-1.5,1,0,0,rectangle,1,-1.5,1,0,0,1,-1.5,1,0,0,1,19,179,75,1,,,,,,,,
,,,,,,,,,,,,,FF,,,,,,,,0.8671,,,,,,,,,,,,,,,,,,,,,,60feb1d22d3c61aeab816651,610378cc864e7cffc8c68912,2021-07-30_13h59.41.249,Simcolourproject_2stim_asymm_v5,2020.2.10,Win32,60,61025ae37ef11b136ea224fe,,,,,,,,,963,40,54.5,1,0,0,response1disk,,7,11,-5.5,1,0,0,rectangle,11,-5.5,1,0,0,11,-5.5,1,0,0,1,20,180,149,1,,,,,,,,
,,,,,,,,,,,,,FF,,,,,,,,0.6339,,,,,,,,,,,,,,,,,,,,,,60feb1d22d3c61aeab816651,610378cc864e7cffc8c68912,2021-07-30_13h59.41.249,Simcolourproject_2stim_asymm_v5,2020.2.10,Win32,60,61025ae37ef11b136ea224fe,,,,,,,,,1706,31,57.5,1,0,0,response1disk,,7,-7,-6.5,1,0,0,rectangle,-7,-6.5,1,0,0,-7,-6.5,1,0,0,1,21,181,113,1,,,,,,,,
,,,,,,,,,,,,,FF,,,,,,,,0.8337,,,,,,,,,,,,,,,,,,,,,,60feb1d22d3c61aeab816651,610378cc864e7cffc8c68912,2021-07-30_13h59.41.249,Simcolourproject_2stim_asymm_v5,2020.2.10,Win32,60,61025ae37ef11b136ea224fe,,,,,,,,,51,23,64.5,1,0,0,response1disk,,7,-11,1.5,1,0,0,rectangle,-11,1.5,1,0,0,-11,1.5,1,0,0,1,22,182,85,1,,,,,,,,
,,,,,,,,,,,,,FF,,,,,,,,0.7835,,,,,,,,,,,,,,,,,,,,,,60feb1d22d3c61aeab816651,610378cc864e7cffc8c68912,2021-07-30_13h59.41.249,Simcolourproject_2stim_asymm_v5,2020.2.10,Win32,60,61025ae37ef11b136ea224fe,,,,,,,,,2474,46,70.5,1,0,0,response1disk,,7,3,5.5,1,0,0,rectangle,3,5.5,1,0,0,3,5.5,1,0,0,1,23,183,45,1,,,,,,,,
,,,,,,,,,,,,,FF,,,,,,,,0.633,,,,,,,,,,,,,,,,,,,,,,60feb1d22d3c61aeab816651,610378cc864e7cffc8c68912,2021-07-30_13h59.41.249,Simcolourproject_2stim_asymm_v5,2020.2.10,Win32,60,61025ae37ef11b136ea224fe,,,,,,,,,1432,44,64.5,1,0,0,response1disk,,7,-8,-6.5,1,0,0,rectangle,-8,-6.5,1,0,0,-8,-6.5,1,0,0,1,24,184,96,1,,,,,,,,
,,,,,,,,,,,,,FF,,,,,,,,0.8329,,,,,,,,,,,,,,,,,,,,,,60feb1d22d3c61aeab816651,610378cc864e7cffc8c68912,2021-07-30_13h59.41.249,Simcolourproject_2stim_asymm_v5,2020.2.10,Win32,60,61025ae37ef11b136ea224fe,,,,,,,,,793,47,56.5,1,0,0,response1disk,,7,2,-1.5,1,0,0,rectangle,2,-1.5,1,0,0,2,-1.5,1,0,0,1,25,185,63,1,,,,,,,,
,,,,,,,,,,,,,FF,,,,,,,,1.0029,,,,,,,,,,,,,,,,,,,,,,60feb1d22d3c61aeab816651,610378cc864e7cffc8c68912,2021-07-30_13h59.41.249,Simcolourproject_2stim_asymm_v5,2020.2.10,Win32,60,61025ae37ef11b136ea224fe,,,,,,,,,1819,-27,-54.5,1,0,0,response5disk,,3,8,-4.5,1,0,0,rectangle,8,-4.5,1,0,0,8,-4.5,1,0,0,1,26,186,154,1,,,,,,,,
,,,,,,,,,,,,,FF,,,,,,,,1.1835,,,,,,,,,,,,,,,,,,,,,,60feb1d22d3c61aeab816651,610378cc864e7cffc8c68912,2021-07-30_13h59.41.249,Simcolourproject_2stim_asymm_v5,2020.2.10,Win32,60,61025ae37ef11b136ea224fe,,,,,,,,,386,98,29.5,1,0,0,response1disk,,6,8,2.5,1,0,0,rectangle,8,2.5,1,0,0,8,2.5,1,0,0,1,27,187,32,1,,,,,,,,
,,,,,,,,,,,,,FF,,,,,,,,0.9326,,,,,,,,,,,,,,,,,,,,,,60feb1d22d3c61aeab816651,610378cc864e7cffc8c68912,2021-07-30_13h59.41.249,Simcolourproject_2stim_asymm_v5,2020.2.10,Win32,60,61025ae37ef11b136ea224fe,,,,,,,,,2783,-71,-42.5,1,0,0,response5disk,,2,-8,0.5,1,0,0,rectangle,-8,0.5,1,0,0,-8,0.5,1,0,0,1,28,188,115,1,,,,,,,,
,,,,,,,,,,,,,FF,,,,,,,,0.7166,,,,,,,,,,,,,,,,,,,,,,60feb1d22d3c61aeab816651,610378cc864e7cffc8c68912,2021-07-30_13h59.41.249,Simcolourproject_2stim_asymm_v5,2020.2.10,Win32,60,61025ae37ef11b136ea224fe,,,,,,,,,1378,-52,-33.5,1,0,0,response5disk,,2,2,1.5,1,0,0,rectangle,2,1.5,1,0,0,2,1.5,1,0,0,1,29,189,109,1,,,,,,,,
,,,,,,,,,,,,,FF,,,,,,,,1.1315,,,,,,,,,,,,,,,,,,,,,,60feb1d22d3c61aeab816651,610378cc864e7cffc8c68912,2021-07-30_13h59.41.249,Simcolourproject_2stim_asymm_v5,2020.2.10,Win32,60,61025ae37ef11b136ea224fe,,,,,,,,,2206,30,80.5,1,0,0,response1disk,,7,-6,3.5,1,0,0,rectangle,-6,3.5,1,0,0,-6,3.5,1,0,0,1,30,190,31,1,,,,,,,,
,,,,,,,,,,,,,FF,,,,,,,,1.1493,,,,,,,,,,,,,,,,,,,,,,60feb1d22d3c61aeab816651,610378cc864e7cffc8c68912,2021-07-30_13h59.41.249,Simcolourproject_2stim_asymm_v5,2020.2.10,Win32,60,61025ae37ef11b136ea224fe,,,,,,,,,2845,-34,-58.5,1,0,0,response5disk,,3,-8,-1.5,1,0,0,rectangle,-8,-1.5,1,0,0,-8,-1.5,1,0,0,1,31,191,99,1,,,,,,,,
,,,,,,,,,,,,,FF,,,,,,,,1.201,,,,,,,,,,,,,,,,,,,,,,60feb1d22d3c61aeab816651,610378cc864e7cffc8c68912,2021-07-30_13h59.41.249,Simcolourproject_2stim_asymm_v5,2020.2.10,Win32,60,61025ae37ef11b136ea224fe,,,,,,,,,2302,-23,-61.5,1,0,0,response5disk,,3,-2,-0.5,1,0,0,rectangle,-2,-0.5,1,0,0,-2,-0.5,1,0,0,1,32,192,15,1,,,,,,,,
,,,,,,,,,,,,,FF,,,,,,,,0.8506,,,,,,,,,,,,,,,,,,,,,,60feb1d22d3c61aeab816651,610378cc864e7cffc8c68912,2021-07-30_13h59.41.249,Simcolourproject_2stim_asymm_v5,2020.2.10,Win32,60,61025ae37ef11b136ea224fe,,,,,,,,,773,40,59.5,1,0,0,response1disk,,7,10,4.5,1,0,0,rectangle,10,4.5,1,0,0,10,4.5,1,0,0,1,33,193,10,1,,,,,,,,
,,,,,,,,,,,,,FF,,,,,,,,0.7496,,,,,,,,,,,,,,,,,,,,,,60feb1d22d3c61aeab816651,610378cc864e7cffc8c68912,2021-07-30_13h59.41.249,Simcolourproject_2stim_asymm_v5,2020.2.10,Win32,60,61025ae37ef11b136ea224fe,,,,,,,,,508,26,78.5,1,0,0,response1disk,,7,6,1.5,1,0,0,rectangle,6,1.5,1,0,0,6,1.5,1,0,0,1,34,194,110,1,,,,,,,,
,,,,,,,,,,,,,FF,,,,,,,,1.1166,,,,,,,,,,,,,,,,,,,,,,60feb1d22d3c61aeab816651,610378cc864e7cffc8c68912,2021-07-30_13h59.41.249,Simcolourproject_2stim_asymm_v5,2020.2.10,Win32,60,61025ae37ef11b136ea224fe,,,,,,,,,3850,-70,-41.5,1,0,0,response5disk,,2,4,-3.5,1,0,0,rectangle,4,-3.5,1,0,0,4,-3.5,1,0,0,1,35,195,47,1,,,,,,,,
,,,,,,,,,,,,,FF,,,,,,,,0.7996,,,,,,,,,,,,,,,,,,,,,,60feb1d22d3c61aeab816651,610378cc864e7cffc8c68912,2021-07-30_13h59.41.249,Simcolourproject_2stim_asymm_v5,2020.2.10,Win32,60,61025ae37ef11b136ea224fe,,,,,,,,,4014,42,84.5,1,0,0,response1disk,,7,10,2.5,1,0,0,rectangle,10,2.5,1,0,0,10,2.5,1,0,0,1,36,196,91,1,,,,,,,,
,,,,,,,,,,,,,FF,,,,,,,,1.0675,,,,,,,,,,,,,,,,,,,,,,60feb1d22d3c61aeab816651,610378cc864e7cffc8c68912,2021-07-30_13h59.41.249,Simcolourproject_2stim_asymm_v5,2020.2.10,Win32,60,61025ae37ef11b136ea224fe,,,,,,,,,2787,-32,-66.5,1,0,0,response5disk,,3,-1,-0.5,1,0,0,rectangle,-1,-0.5,1,0,0,-1,-0.5,1,0,0,1,37,197,79,1,,,,,,,,
,,,,,,,,,,,,,FF,,,,,,,,0.9047,,,,,,,,,,,,,,,,,,,,,,60feb1d22d3c61aeab816651,610378cc864e7cffc8c68912,2021-07-30_13h59.41.249,Simcolourproject_2stim_asymm_v5,2020.2.10,Win32,60,61025ae37ef11b136ea224fe,,,,,,,,,1672,-30,-55.5,1,0,0,response5disk,,3,6,-5.5,1,0,0,rectangle,6,-5.5,1,0,0,6,-5.5,1,0,0,1,38,198,151,1,,,,,,,,
,,,,,,,,,,,,,FF,,,,,,,,1.1993,,,,,,,,,,,,,,,,,,,,,,60feb1d22d3c61aeab816651,610378cc864e7cffc8c68912,2021-07-30_13h59.41.249,Simcolourproject_2stim_asymm_v5,2020.2.10,Win32,60,61025ae37ef11b136ea224fe,,,,,,,,,1460,-57,32.5,1,0,0,response7disk,,1,-3,2.5,1,0,0,rectangle,-3,2.5,1,0,0,-3,2.5,1,0,0,1,39,199,4,1,,,,,,,,
,,,,,,,,,,,,,FF,,,,,,,,0.9003,,,,,,,,,,,,,,,,,,,,,,60feb1d22d3c61aeab816651,610378cc864e7cffc8c68912,2021-07-30_13h59.41.249,Simcolourproject_2stim_asymm_v5,2020.2.10,Win32,60,61025ae37ef11b136ea224fe,,,,,,,,,1407,25,57.5,1,0,0,response1disk,,7,1,-4.5,1,0,0,rectangle,1,-4.5,1,0,0,1,-4.5,1,0,0,1,40,200,87,1,,,,,,,,
,,,,,,,,,,,,,FF,,,,,,,,0.7832,,,,,,,,,,,,,,,,,,,,,,60feb1d22d3c61aeab816651,610378cc864e7cffc8c68912,2021-07-30_13h59.41.249,Simcolourproject_2stim_asymm_v5,2020.2.10,Win32,60,61025ae37ef11b136ea224fe,,,,,,,,,108,-38,-55.5,1,0,0,response5disk,,3,-4,4.5,1,0,0,rectangle,-4,4.5,1,0,0,-4,4.5,1,0,0,1,41,201,39,1,,,,,,,,
,,,,,,,,,,,,,FF,,,,,,,,0.5993,,,,,,,,,,,,,,,,,,,,,,60feb1d22d3c61aeab816651,610378cc864e7cffc8c68912,2021-07-30_13h59.41.249,Simcolourproject_2stim_asymm_v5,2020.2.10,Win32,60,61025ae37ef11b136ea224fe,,,,,,,,,1076,41,64.5,1,0,0,response1disk,,7,0,5.5,1,0,0,rectangle,0,5.5,1,0,0,0,5.5,1,0,0,1,42,202,140,1,,,,,,,,
,,,,,,,,,,,,,FF,,,,,,,,0.6169,,,,,,,,,,,,,,,,,,,,,,60feb1d22d3c61aeab816651,610378cc864e7cffc8c68912,2021-07-30_13h59.41.249,Simcolourproject_2stim_asymm_v5,2020.2.10,Win32,60,61025ae37ef11b136ea224fe,,,,,,,,,4324,30,56.5,1,0,0,response1disk,,7,1,2.5,1,0,0,rectangle,1,2.5,1,0,0,1,2.5,1,0,0,1,43,203,131,1,,,,,,,,
,,,,,,,,,,,,,FF,,,,,,,,1.3335,,,,,,,,,,,,,,,,,,,,,,60feb1d22d3c61aeab816651,610378cc864e7cffc8c68912,2021-07-30_13h59.41.249,Simcolourproject_2stim_asymm_v5,2020.2.10,Win32,60,61025ae37ef11b136ea224fe,,,,,,,,,908,21,-65.5,1,0,0,response3disk,,4,0,-3.5,1,0,0,rectangle,0,-3.5,1,0,0,0,-3.5,1,0,0,1,44,204,146,1,,,,,,,,
,,,,,,,,,,,,,FF,,,,,,,,0.684,,,,,,,,,,,,,,,,,,,,,,60feb1d22d3c61aeab816651,610378cc864e7cffc8c68912,2021-07-30_13h59.41.249,Simcolourproject_2stim_asymm_v5,2020.2.10,Win32,60,61025ae37ef11b136ea224fe,,,,,,,,,1112,30,55.5,1,0,0,response1disk,,7,10,-7.5,1,0,0,rectangle,10,-7.5,1,0,0,10,-7.5,1,0,0,1,45,205,112,1,,,,,,,,
,,,,,,,,,,,,,FF,,,,,,,,2.2816,,,,,,,,,,,,,,,,,,,,,,60feb1d22d3c61aeab816651,610378cc864e7cffc8c68912,2021-07-30_13h59.41.249,Simcolourproject_2stim_asymm_v5,2020.2.10,Win32,60,61025ae37ef11b136ea224fe,,,,,,,,,560,68,-36.5,1,0,0,response3disk,,5,3,-1.5,1,0,0,rectangle,3,-1.5,1,0,0,3,-1.5,1,0,0,1,46,206,104,1,,,,,,,,
,,,,,,,,,,,,,FF,,,,,,,,0.7666,,,,,,,,,,,,,,,,,,,,,,60feb1d22d3c61aeab816651,610378cc864e7cffc8c68912,2021-07-30_13h59.41.249,Simcolourproject_2stim_asymm_v5,2020.2.10,Win32,60,61025ae37ef11b136ea224fe,,,,,,,,,2066,52,65.5,1,0,0,response1disk,,7,2,-6.5,1,0,0,rectangle,2,-6.5,1,0,0,2,-6.5,1,0,0,1,47,207,19,1,,,,,,,,
,,,,,,,,,,,,,FF,,,,,,,,0.6,,,,,,,,,,,,,,,,,,,,,,60feb1d22d3c61aeab816651,610378cc864e7cffc8c68912,2021-07-30_13h59.41.249,Simcolourproject_2stim_asymm_v5,2020.2.10,Win32,60,61025ae37ef11b136ea224fe,,,,,,,,,2136,43,64.5,1,0,0,response1disk,,7,-5,-3.5,1,0,0,rectangle,-5,-3.5,1,0,0,-5,-3.5,1,0,0,1,48,208,152,1,,,,,,,,
,,,,,,,,,,,,,FF,,,,,,,,0.8001,,,,,,,,,,,,,,,,,,,,,,60feb1d22d3c61aeab816651,610378cc864e7cffc8c68912,2021-07-30_13h59.41.249,Simcolourproject_2stim_asymm_v5,2020.2.10,Win32,60,61025ae37ef11b136ea224fe,,,,,,,,,3591,-34,67.5,1,0,0,response7disk,,0,-7,-1.5,1,0,0,rectangle,-46,66.5,1,0,0,8,3.5,1,0,0,1,49,209,144,1,,response7disk_3,TRUE,0,0,"[313,135,41,211,85,165,151,119,171,243,5,63,113,154,23,93,9,279,210,270]",1.4659,rectangle
,,,,,,,,,,,,,FF,,,,,,,,0.8166,,,,,,,,,,,,,,,,,,,,,,60feb1d22d3c61aeab816651,610378cc864e7cffc8c68912,2021-07-30_13h59.41.249,Simcolourproject_2stim_asymm_v5,2020.2.10,Win32,60,61025ae37ef11b136ea224fe,,,,,,,,,358,48,73.5,1,0,0,response1disk,,7,6,6.5,1,0,0,rectangle,-31,84.5,1,0,0,6,-1.5,1,0,0,1,50,210,130,1,,response7disk_3,TRUE,0,0,"[313,135,41,211,85,165,151,119,171,243,5,63,113,154,23,93,9,279,210,270]",1.4003,rectangle
,,,,,,,,,,,,,FF,,,,,,,,0.7831,,,,,,,,,,,,,,,,,,,,,,60feb1d22d3c61aeab816651,610378cc864e7cffc8c68912,2021-07-30_13h59.41.249,Simcolourproject_2stim_asymm_v5,2020.2.10,Win32,60,61025ae37ef11b136ea224fe,,,,,,,,,2468,46,57.5,1,0,0,response1disk,,7,1,4.5,1,0,0,rectangle,1,4.5,1,0,0,1,4.5,1,0,0,1,51,211,5,1,,,,,,,,
,,,,,,,,,,,,,FF,,,,,,,,1.1659,,,,,,,,,,,,,,,,,,,,,,60feb1d22d3c61aeab816651,610378cc864e7cffc8c68912,2021-07-30_13h59.41.249,Simcolourproject_2stim_asymm_v5,2020.2.10,Win32,60,61025ae37ef11b136ea224fe,,,,,,,,,2818,26,85.5,1,0,0,response1disk,,7,12,3.5,1,0,0,rectangle,12,3.5,1,0,0,12,3.5,1,0,0,1,52,212,88,1,,,,,,,,
,,,,,,,,,,,,,FF,,,,,,,,0.5995,,,,,,,,,,,,,,,,,,,,,,60feb1d22d3c61aeab816651,610378cc864e7cffc8c68912,2021-07-30_13h59.41.249,Simcolourproject_2stim_asymm_v5,2020.2.10,Win32,60,61025ae37ef11b136ea224fe,,,,,,,,,3181,32,57.5,1,0,0,response1disk,,7,11,-3.5,1,0,0,rectangle,11,-3.5,1,0,0,11,-3.5,1,0,0,1,53,213,12,1,,,,,,,,
,,,,,,,,,,,,,FF,,,,,,,,0.4995,,,,,,,,,,,,,,,,,,,,,,60feb1d22d3c61aeab816651,610378cc864e7cffc8c68912,2021-07-30_13h59.41.249,Simcolourproject_2stim_asymm_v5,2020.2.10,Win32,60,61025ae37ef11b136ea224fe,,,,,,,,,3424,34,70.5,1,0,0,response1disk,,7,2,-0.5,1,0,0,rectangle,2,-0.5,1,0,0,2,-0.5,1,0,0,1,54,214,90,1,,,,,,,,
,,,,,,,,,,,,,FF,,,,,,,,0.4989,,,,,,,,,,,,,,,,,,,,,,60feb1d22d3c61aeab816651,610378cc864e7cffc8c68912,2021-07-30_13h59.41.249,Simcolourproject_2stim_asymm_v5,2020.2.10,Win32,60,61025ae37ef11b136ea224fe,,,,,,,,,2448,35,60.5,1,0,0,response1disk,,7,2,-4.5,1,0,0,rectangle,2,-4.5,1,0,0,2,-4.5,1,0,0,1,55,215,24,1,,,,,,,,
,,,,,,,,,,,,,FF,,,,,,,,0.5672,,,,,,,,,,,,,,,,,,,,,,60feb1d22d3c61aeab816651,610378cc864e7cffc8c68912,2021-07-30_13h59.41.249,Simcolourproject_2stim_asymm_v5,2020.2.10,Win32,60,61025ae37ef11b136ea224fe,,,,,,,,,4228,34,61.5,1,0,0,response1disk,,7,4,-7.5,1,0,0,rectangle,4,-7.5,1,0,0,4,-7.5,1,0,0,1,56,216,44,1,,,,,,,,
,,,,,,,,,,,,,FF,,,,,,,,1.1354,,,,,,,,,,,,,,,,,,,,,,60feb1d22d3c61aeab816651,610378cc864e7cffc8c68912,2021-07-30_13h59.41.249,Simcolourproject_2stim_asymm_v5,2020.2.10,Win32,60,61025ae37ef11b136ea224fe,,,,,,,,,2880,53,-36.5,1,0,0,response3disk,,5,1,1.5,1,0,0,rectangle,1,1.5,1,0,0,1,1.5,1,0,0,1,57,217,148,1,,,,,,,,
,,,,,,,,,,,,,FF,,,,,,,,0.9169,,,,,,,,,,,,,,,,,,,,,,60feb1d22d3c61aeab816651,610378cc864e7cffc8c68912,2021-07-30_13h59.41.249,Simcolourproject_2stim_asymm_v5,2020.2.10,Win32,60,61025ae37ef11b136ea224fe,,,,,,,,,3329,-31,-61.5,1,0,0,response5disk,,3,-3,4.5,1,0,0,rectangle,-3,4.5,1,0,0,-3,4.5,1,0,0,1,58,218,42,1,,,,,,,,
,,,,,,,,,,,,,FF,,,,,,,,1.0836,,,,,,,,,,,,,,,,,,,,,,60feb1d22d3c61aeab816651,610378cc864e7cffc8c68912,2021-07-30_13h59.41.249,Simcolourproject_2stim_asymm_v5,2020.2.10,Win32,60,61025ae37ef11b136ea224fe,,,,,,,,,1295,44,-56.5,1,0,0,response3disk,,4,2,4.5,1,0,0,rectangle,2,4.5,1,0,0,2,4.5,1,0,0,1,59,219,33,1,,,,,,,,
,,,,,,,,,,,,,FF,,,,,,,,0.8507,,,,,,,,,,,,,,,,,,,,,,60feb1d22d3c61aeab816651,610378cc864e7cffc8c68912,2021-07-30_13h59.41.249,Simcolourproject_2stim_asymm_v5,2020.2.10,Win32,60,61025ae37ef11b136ea224fe,,,,,,,,,3396,-37,-70.5,1,0,0,response5disk,,3,-2,3.5,1,0,0,rectangle,-2,3.5,1,0,0,-2,3.5,1,0,0,1,60,220,124,1,,,,,,,,
,,,,,,,,,,,,,FF,,,,,,,,0.6836,,,,,,,,,,,,,,,,,,,,,,60feb1d22d3c61aeab816651,610378cc864e7cffc8c68912,2021-07-30_13h59.41.249,Simcolourproject_2stim_asymm_v5,2020.2.10,Win32,60,61025ae37ef11b136ea224fe,,,,,,,,,2002,43,83.5,1,0,0,response1disk,,7,2,5.5,1,0,0,rectangle,2,5.5,1,0,0,2,5.5,1,0,0,1,61,221,11,1,,,,,,,,
,,,,,,,,,,,,,FF,,,,,,,,0.8165,,,,,,,,,,,,,,,,,,,,,,60feb1d22d3c61aeab816651,610378cc864e7cffc8c68912,2021-07-30_13h59.41.249,Simcolourproject_2stim_asymm_v5,2020.2.10,Win32,60,61025ae37ef11b136ea224fe,,,,,,,,,682,33,64.5,1,0,0,response1disk,,7,2,-0.5,1,0,0,rectangle,2,-0.5,1,0,0,2,-0.5,1,0,0,1,62,222,17,1,,,,,,,,
,,,,,,,,,,,,,FF,,,,,,,,1.7196,,,,,,,,,,,,,,,,,,,,,,60feb1d22d3c61aeab816651,610378cc864e7cffc8c68912,2021-07-30_13h59.41.249,Simcolourproject_2stim_asymm_v5,2020.2.10,Win32,60,61025ae37ef11b136ea224fe,,,,,,,,,2713,98,-74.5,1,0,0,response3disk,,5,9,2.5,1,0,0,rectangle,9,2.5,1,0,0,9,2.5,1,0,0,1,63,223,46,1,,,,,,,,
,,,,,,,,,,,,,FF,,,,,,,,0.8009,,,,,,,,,,,,,,,,,,,,,,60feb1d22d3c61aeab816651,610378cc864e7cffc8c68912,2021-07-30_13h59.41.249,Simcolourproject_2stim_asymm_v5,2020.2.10,Win32,60,61025ae37ef11b136ea224fe,,,,,,,,,2361,-37,-62.5,1,0,0,response5disk,,3,-2,2.5,1,0,0,rectangle,-2,2.5,1,0,0,-2,2.5,1,0,0,1,64,224,117,1,,,,,,,,
,,,,,,,,,,,,,FF,,,,,,,,1.1497,,,,,,,,,,,,,,,,,,,,,,60feb1d22d3c61aeab816651,610378cc864e7cffc8c68912,2021-07-30_13h59.41.249,Simcolourproject_2stim_asymm_v5,2020.2.10,Win32,60,61025ae37ef11b136ea224fe,,,,,,,,,889,32,-50.5,1,0,0,response3disk,,4,3,-4.5,1,0,0,rectangle,3,-4.5,1,0,0,3,-4.5,1,0,0,1,65,225,122,1,,,,,,,,
,,,,,,,,,,,,,FF,,,,,,,,0.8993,,,,,,,,,,,,,,,,,,,,,,60feb1d22d3c61aeab816651,610378cc864e7cffc8c68912,2021-07-30_13h59.41.249,Simcolourproject_2stim_asymm_v5,2020.2.10,Win32,60,61025ae37ef11b136ea224fe,,,,,,,,,1666,36,71.5,1,0,0,response1disk,,7,-1,6.5,1,0,0,rectangle,-1,6.5,1,0,0,-1,6.5,1,0,0,1,66,226,108,1,,,,,,,,
,,,,,,,,,,,,,FF,,,,,,,,1.1332,,,,,,,,,,,,,,,,,,,,,,60feb1d22d3c61aeab816651,610378cc864e7cffc8c68912,2021-07-30_13h59.41.249,Simcolourproject_2stim_asymm_v5,2020.2.10,Win32,60,61025ae37ef11b136ea224fe,,,,,,,,,3708,-25,-67.5,1,0,0,response5disk,,3,4,-1.5,1,0,0,rectangle,4,-1.5,1,0,0,4,-1.5,1,0,0,1,67,227,97,1,,,,,,,,
,,,,,,,,,,,,,FF,,,,,,,,0.7691,,,,,,,,,,,,,,,,,,,,,,60feb1d22d3c61aeab816651,610378cc864e7cffc8c68912,2021-07-30_13h59.41.249,Simcolourproject_2stim_asymm_v5,2020.2.10,Win32,60,61025ae37ef11b136ea224fe,,,,,,,,,2103,-32,-73.5,1,0,0,response5disk,,3,3,1.5,1,0,0,rectangle,3,1.5,1,0,0,3,1.5,1,0,0,1,68,228,68,1,,,,,,,,
,,,,,,,,,,,,,FF,,,,,,,,0.8826,,,,,,,,,,,,,,,,,,,,,,60feb1d22d3c61aeab816651,610378cc864e7cffc8c68912,2021-07-30_13h59.41.249,Simcolourproject_2stim_asymm_v5,2020.2.10,Win32,60,61025ae37ef11b136ea224fe,,,,,,,,,3707,-61,91.5,1,0,0,response7disk,,0,-8,1.5,1,0,0,rectangle,-8,1.5,1,0,0,-8,1.5,1,0,0,1,69,229,28,1,,,,,,,,
,,,,,,,,,,,,,FF,,,,,,,,1.1839,,,,,,,,,,,,,,,,,,,,,,60feb1d22d3c61aeab816651,610378cc864e7cffc8c68912,2021-07-30_13h59.41.249,Simcolourproject_2stim_asymm_v5,2020.2.10,Win32,60,61025ae37ef11b136ea224fe,,,,,,,,,3303,89,-56.5,1,0,0,response3disk,,5,1,1.5,1,0,0,rectangle,1,1.5,1,0,0,1,1.5,1,0,0,1,70,230,77,1,,,,,,,,
,,,,,,,,,,,,,FF,,,,,,,,0.616,,,,,,,,,,,,,,,,,,,,,,60feb1d22d3c61aeab816651,610378cc864e7cffc8c68912,2021-07-30_13h59.41.249,Simcolourproject_2stim_asymm_v5,2020.2.10,Win32,60,61025ae37ef11b136ea224fe,,,,,,,,,927,44,74.5,1,0,0,response1disk,,7,6,-0.5,1,0,0,rectangle,6,-0.5,1,0,0,6,-0.5,1,0,0,1,71,231,119,1,,,,,,,,
,,,,,,,,,,,,,FF,,,,,,,,1.2337,,,,,,,,,,,,,,,,,,,,,,60feb1d22d3c61aeab816651,610378cc864e7cffc8c68912,2021-07-30_13h59.41.249,Simcolourproject_2stim_asymm_v5,2020.2.10,Win32,60,61025ae37ef11b136ea224fe,,,,,,,,,2152,59,-72.5,1,0,0,response3disk,,4,8,-3.5,1,0,0,rectangle,8,-3.5,1,0,0,8,-3.5,1,0,0,1,72,232,156,1,,,,,,,,
,,,,,,,,,,,,,FF,,,,,,,,0.5198,,,,,,,,,,,,,,,,,,,,,,60feb1d22d3c61aeab816651,610378cc864e7cffc8c68912,2021-07-30_13h59.41.249,Simcolourproject_2stim_asymm_v5,2020.2.10,Win32,60,61025ae37ef11b136ea224fe,,,,,,,,,3657,39,90.5,1,0,0,response1disk,,7,1,-2.5,1,0,0,rectangle,1,-2.5,1,0,0,1,-2.5,1,0,0,1,73,233,78,1,,,,,,,,
,,,,,,,,,,,,,FF,,,,,,,,0.6335,,,,,,,,,,,,,,,,,,,,,,60feb1d22d3c61aeab816651,610378cc864e7cffc8c68912,2021-07-30_13h59.41.249,Simcolourproject_2stim_asymm_v5,2020.2.10,Win32,60,61025ae37ef11b136ea224fe,,,,,,,,,3214,44,59.5,1,0,0,response1disk,,7,3,5.5,1,0,0,rectangle,3,5.5,1,0,0,3,5.5,1,0,0,1,74,234,105,1,,,,,,,,
,,,,,,,,,,,,,FF,,,,,,,,0.7313,,,,,,,,,,,,,,,,,,,,,,60feb1d22d3c61aeab816651,610378cc864e7cffc8c68912,2021-07-30_13h59.41.249,Simcolourproject_2stim_asymm_v5,2020.2.10,Win32,60,61025ae37ef11b136ea224fe,,,,,,,,,3137,52,70.5,1,0,0,response1disk,,7,8,-1.5,1,0,0,rectangle,8,-1.5,1,0,0,8,-1.5,1,0,0,1,75,235,84,1,,,,,,,,
,,,,,,,,,,,,,FF,,,,,,,,0.7836,,,,,,,,,,,,,,,,,,,,,,60feb1d22d3c61aeab816651,610378cc864e7cffc8c68912,2021-07-30_13h59.41.249,Simcolourproject_2stim_asymm_v5,2020.2.10,Win32,60,61025ae37ef11b136ea224fe,,,,,,,,,1418,35,59.5,1,0,0,response1disk,,7,-7,-5.5,1,0,0,rectangle,-7,-5.5,1,0,0,-7,-5.5,1,0,0,1,76,236,157,1,,,,,,,,
,,,,,,,,,,,,,FF,,,,,,,,0.6332,,,,,,,,,,,,,,,,,,,,,,60feb1d22d3c61aeab816651,610378cc864e7cffc8c68912,2021-07-30_13h59.41.249,Simcolourproject_2stim_asymm_v5,2020.2.10,Win32,60,61025ae37ef11b136ea224fe,,,,,,,,,2479,39,74.5,1,0,0,response1disk,,7,1,-1.5,1,0,0,rectangle,1,-1.5,1,0,0,1,-1.5,1,0,0,1,77,237,51,1,,,,,,,,
,,,,,,,,,,,,,FF,,,,,,,,0.5367,,,,,,,,,,,,,,,,,,,,,,60feb1d22d3c61aeab816651,610378cc864e7cffc8c68912,2021-07-30_13h59.41.249,Simcolourproject_2stim_asymm_v5,2020.2.10,Win32,60,61025ae37ef11b136ea224fe,,,,,,,,,2331,33,56.5,1,0,0,response1disk,,7,2,-5.5,1,0,0,rectangle,2,-5.5,1,0,0,2,-5.5,1,0,0,1,78,238,81,1,,,,,,,,
,,,,,,,,,,,,,FF,,,,,,,,0.8844,,,,,,,,,,,,,,,,,,,,,,60feb1d22d3c61aeab816651,610378cc864e7cffc8c68912,2021-07-30_13h59.41.249,Simcolourproject_2stim_asymm_v5,2020.2.10,Win32,60,61025ae37ef11b136ea224fe,,,,,,,,,351,-38,-52.5,1,0,0,response5disk,,3,-12,-2.5,1,0,0,rectangle,-12,-2.5,1,0,0,-12,-2.5,1,0,0,1,79,239,100,1,,,,,,,,
,,,,,,,,,,,,,FF,,,,,,,,0.9829,,,,,,,,,,,,,,,,,,,,,,60feb1d22d3c61aeab816651,610378cc864e7cffc8c68912,2021-07-30_13h59.41.249,Simcolourproject_2stim_asymm_v5,2020.2.10,Win32,60,61025ae37ef11b136ea224fe,,,,,,,,,830,37,-76.5,1,0,0,response3disk,,4,6,3.5,1,0,0,rectangle,6,3.5,1,0,0,6,3.5,1,0,0,1,80,240,62,1,,,,,,,,
,,,,,,,,,,,,,FF,,,,,,,,0.7169,,,,,,,,,,,,,,,,,,,,,,60feb1d22d3c61aeab816651,610378cc864e7cffc8c68912,2021-07-30_13h59.41.249,Simcolourproject_2stim_asymm_v5,2020.2.10,Win32,60,61025ae37ef11b136ea224fe,,,,,,,,,1719,35,57.5,1,0,0,response1disk,,7,-5,-1.5,1,0,0,rectangle,-5,-1.5,1,0,0,-5,-1.5,1,0,0,1,81,241,1,1,,,,,,,,
,,,,,,,,,,,,,FF,,,,,,,,0.7644,,,,,,,,,,,,,,,,,,,,,,60feb1d22d3c61aeab816651,610378cc864e7cffc8c68912,2021-07-30_13h59.41.249,Simcolourproject_2stim_asymm_v5,2020.2.10,Win32,60,61025ae37ef11b136ea224fe,,,,,,,,,2697,26,79.5,1,0,0,response1disk,,7,11,3.5,1,0,0,rectangle,-36,-87.5,1,0,0,-1,5.5,1,0,0,1,82,242,123,1,,response5disk_3,TRUE,3,3,"[313,135,41,211,85,165,151,119,171,243,5,63,113,154,23,93,9,279,210,270]",1.5494,rectangle
,,,,,,,,,,,,,FF,,,,,,,,1.2167,,,,,,,,,,,,,,,,,,,,,,60feb1d22d3c61aeab816651,610378cc864e7cffc8c68912,2021-07-30_13h59.41.249,Simcolourproject_2stim_asymm_v5,2020.2.10,Win32,60,61025ae37ef11b136ea224fe,,,,,,,,,1986,129,55.5,1,0,0,response1disk,,6,-10,6.5,1,0,0,rectangle,-10,6.5,1,0,0,-10,6.5,1,0,0,1,83,243,142,1,,,,,,,,
,,,,,,,,,,,,,FF,,,,,,,,0.9661,,,,,,,,,,,,,,,,,,,,,,60feb1d22d3c61aeab816651,610378cc864e7cffc8c68912,2021-07-30_13h59.41.249,Simcolourproject_2stim_asymm_v5,2020.2.10,Win32,60,61025ae37ef11b136ea224fe,,,,,,,,,345,55,-97.5,1,0,0,response3disk,,4,1,1.5,1,0,0,rectangle,1,1.5,1,0,0,1,1.5,1,0,0,1,84,244,133,1,,,,,,,,
,,,,,,,,,,,,,FF,,,,,,,,0.7001,,,,,,,,,,,,,,,,,,,,,,60feb1d22d3c61aeab816651,610378cc864e7cffc8c68912,2021-07-30_13h59.41.249,Simcolourproject_2stim_asymm_v5,2020.2.10,Win32,60,61025ae37ef11b136ea224fe,,,,,,,,,2614,42,-85.5,1,0,0,response3disk,,4,9,-2.5,1,0,0,rectangle,9,-2.5,1,0,0,9,-2.5,1,0,0,1,85,245,38,1,,,,,,,,
,,,,,,,,,,,,,FF,,,,,,,,0.7664,,,,,,,,,,,,,,,,,,,,,,60feb1d22d3c61aeab816651,610378cc864e7cffc8c68912,2021-07-30_13h59.41.249,Simcolourproject_2stim_asymm_v5,2020.2.10,Win32,60,61025ae37ef11b136ea224fe,,,,,,,,,4251,-68,-24.5,1,0,0,response5disk,,2,-3,1.5,1,0,0,rectangle,-3,1.5,1,0,0,-3,1.5,1,0,0,1,86,246,80,1,,,,,,,,
,,,,,,,,,,,,,FF,,,,,,,,0.7158,,,,,,,,,,,,,,,,,,,,,,60feb1d22d3c61aeab816651,610378cc864e7cffc8c68912,2021-07-30_13h59.41.249,Simcolourproject_2stim_asymm_v5,2020.2.10,Win32,60,61025ae37ef11b136ea224fe,,,,,,,,,2424,55,-76.5,1,0,0,response3disk,,4,3,2.5,1,0,0,rectangle,3,2.5,1,0,0,3,2.5,1,0,0,1,87,247,40,1,,,,,,,,
,,,,,,,,,,,,,FF,,,,,,,,0.5167,,,,,,,,,,,,,,,,,,,,,,60feb1d22d3c61aeab816651,610378cc864e7cffc8c68912,2021-07-30_13h59.41.249,Simcolourproject_2stim_asymm_v5,2020.2.10,Win32,60,61025ae37ef11b136ea224fe,,,,,,,,,2885,46,87.5,1,0,0,response1disk,,7,-2,-2.5,1,0,0,rectangle,-2,-2.5,1,0,0,-2,-2.5,1,0,0,1,88,248,67,1,,,,,,,,
,,,,,,,,,,,,,FF,,,,,,,,0.9838,,,,,,,,,,,,,,,,,,,,,,60feb1d22d3c61aeab816651,610378cc864e7cffc8c68912,2021-07-30_13h59.41.249,Simcolourproject_2stim_asymm_v5,2020.2.10,Win32,60,61025ae37ef11b136ea224fe,,,,,,,,,866,96,-43.5,1,0,0,response3disk,,5,7,1.5,1,0,0,rectangle,7,1.5,1,0,0,7,1.5,1,0,0,1,89,249,70,1,,,,,,,,
,,,,,,,,,,,,,FF,,,,,,,,0.5001,,,,,,,,,,,,,,,,,,,,,,60feb1d22d3c61aeab816651,610378cc864e7cffc8c68912,2021-07-30_13h59.41.249,Simcolourproject_2stim_asymm_v5,2020.2.10,Win32,60,61025ae37ef11b136ea224fe,,,,,,,,,3576,43,77.5,1,0,0,response1disk,,7,7,4.5,1,0,0,rectangle,7,4.5,1,0,0,7,4.5,1,0,0,1,90,250,65,1,,,,,,,,
,,,,,,,,,,,,,FF,,,,,,,,0.6493,,,,,,,,,,,,,,,,,,,,,,60feb1d22d3c61aeab816651,610378cc864e7cffc8c68912,2021-07-30_13h59.41.249,Simcolourproject_2stim_asymm_v5,2020.2.10,Win32,60,61025ae37ef11b136ea224fe,,,,,,,,,2775,-46,82.5,1,0,0,response7disk,,0,9,-2.5,1,0,0,rectangle,9,-2.5,1,0,0,9,-2.5,1,0,0,1,91,251,71,1,,,,,,,,
,,,,,,,,,,,,,FF,,,,,,,,1.6663,,,,,,,,,,,,,,,,,,,,,,60feb1d22d3c61aeab816651,610378cc864e7cffc8c68912,2021-07-30_13h59.41.249,Simcolourproject_2stim_asymm_v5,2020.2.10,Win32,60,61025ae37ef11b136ea224fe,,,,,,,,,2883,43,-89.5,1,0,0,response3disk,,4,3,-3.5,1,0,0,rectangle,3,-3.5,1,0,0,3,-3.5,1,0,0,1,92,252,107,1,,,,,,,,
,,,,,,,,,,,,,FF,,,,,,,,0.6004,,,,,,,,,,,,,,,,,,,,,,60feb1d22d3c61aeab816651,610378cc864e7cffc8c68912,2021-07-30_13h59.41.249,Simcolourproject_2stim_asymm_v5,2020.2.10,Win32,60,61025ae37ef11b136ea224fe,,,,,,,,,1994,46,106.5,1,0,0,response1disk,,7,-11,-3.5,1,0,0,rectangle,-11,-3.5,1,0,0,-11,-3.5,1,0,0,1,93,253,92,1,,,,,,,,
,,,,,,,,,,,,,FF,,,,,,,,0.9167,,,,,,,,,,,,,,,,,,,,,,60feb1d22d3c61aeab816651,610378cc864e7cffc8c68912,2021-07-30_13h59.41.249,Simcolourproject_2stim_asymm_v5,2020.2.10,Win32,60,61025ae37ef11b136ea224fe,,,,,,,,,1584,66,31.5,1,0,0,response1disk,,6,-2,-1.5,1,0,0,rectangle,-2,-1.5,1,0,0,-2,-1.5,1,0,0,1,94,254,153,1,,,,,,,,
,,,,,,,,,,,,,FF,,,,,,,,1.5502,,,,,,,,,,,,,,,,,,,,,,60feb1d22d3c61aeab816651,610378cc864e7cffc8c68912,2021-07-30_13h59.41.249,Simcolourproject_2stim_asymm_v5,2020.2.10,Win32,60,61025ae37ef11b136ea224fe,,,,,,,,,2817,56,107.5,1,0,0,response1disk,,7,-2,5.5,1,0,0,rectangle,-2,5.5,1,0,0,-2,5.5,1,0,0,1,95,255,16,1,,,,,,,,
,,,,,,,,,,,,,FF,,,,,,,,0.9494,,,,,,,,,,,,,,,,,,,,,,60feb1d22d3c61aeab816651,610378cc864e7cffc8c68912,2021-07-30_13h59.41.249,Simcolourproject_2stim_asymm_v5,2020.2.10,Win32,60,61025ae37ef11b136ea224fe,,,,,,,,,576,39,119.5,1,0,0,response1disk,,7,-4,-0.5,1,0,0,rectangle,-4,-0.5,1,0,0,-4,-0.5,1,0,0,1,96,256,93,1,,,,,,,,
,,,,,,,,,,,,,FF,,,,,,,,0.5828,,,,,,,,,,,,,,,,,,,,,,60feb1d22d3c61aeab816651,610378cc864e7cffc8c68912,2021-07-30_13h59.41.249,Simcolourproject_2stim_asymm_v5,2020.2.10,Win32,60,61025ae37ef11b136ea224fe,,,,,,,,,3904,37,94.5,1,0,0,response1disk,,7,10,-6.5,1,0,0,rectangle,10,-6.5,1,0,0,10,-6.5,1,0,0,1,97,257,43,1,,,,,,,,
,,,,,,,,,,,,,FF,,,,,,,,0.7669,,,,,,,,,,,,,,,,,,,,,,60feb1d22d3c61aeab816651,610378cc864e7cffc8c68912,2021-07-30_13h59.41.249,Simcolourproject_2stim_asymm_v5,2020.2.10,Win32,60,61025ae37ef11b136ea224fe,,,,,,,,,96,-36,-69.5,1,0,0,response5disk,,3,8,-2.5,1,0,0,rectangle,8,-2.5,1,0,0,8,-2.5,1,0,0,1,98,258,141,1,,,,,,,,
,,,,,,,,,,,,,FF,,,,,,,,0.8832,,,,,,,,,,,,,,,,,,,,,,60feb1d22d3c61aeab816651,610378cc864e7cffc8c68912,2021-07-30_13h59.41.249,Simcolourproject_2stim_asymm_v5,2020.2.10,Win32,60,61025ae37ef11b136ea224fe,,,,,,,,,718,-81,-33.5,1,0,0,response5disk,,2,-8,-2.5,1,0,0,rectangle,-8,-2.5,1,0,0,-8,-2.5,1,0,0,1,99,259,102,1,,,,,,,,
,,,,,,,,,,,,,FF,,,,,,,,0.9337,,,,,,,,,,,,,,,,,,,,,,60feb1d22d3c61aeab816651,610378cc864e7cffc8c68912,2021-07-30_13h59.41.249,Simcolourproject_2stim_asymm_v5,2020.2.10,Win32,60,61025ae37ef11b136ea224fe,,,,,,,,,3912,-41,-71.5,1,0,0,response5disk,,3,-1,1.5,1,0,0,rectangle,-1,1.5,1,0,0,-1,1.5,1,0,0,1,100,260,127,1,,,,,,,,
,,,,,,,,,,,,,FF,,,,,,,,0.4992,,,,,,,,,,,,,,,,,,,,,,60feb1d22d3c61aeab816651,610378cc864e7cffc8c68912,2021-07-30_13h59.41.249,Simcolourproject_2stim_asymm_v5,2020.2.10,Win32,60,61025ae37ef11b136ea224fe,,,,,,,,,3172,36,74.5,1,0,0,response1disk,,7,4,-1.5,1,0,0,rectangle,4,-1.5,1,0,0,4,-1.5,1,0,0,1,101,261,56,1,,,,,,,,
,,,,,,,,,,,,,FF,,,,,,,,0.5515,,,,,,,,,,,,,,,,,,,,,,60feb1d22d3c61aeab816651,610378cc864e7cffc8c68912,2021-07-30_13h59.41.249,Simcolourproject_2stim_asymm_v5,2020.2.10,Win32,60,61025ae37ef11b136ea224fe,,,,,,,,,4261,38,71.5,1,0,0,response1disk,,7,3,0.5,1,0,0,rectangle,3,0.5,1,0,0,3,0.5,1,0,0,1,102,262,120,1,,,,,,,,
,,,,,,,,,,,,,FF,,,,,,,,1.1499,,,,,,,,,,,,,,,,,,,,,,60feb1d22d3c61aeab816651,610378cc864e7cffc8c68912,2021-07-30_13h59.41.249,Simcolourproject_2stim_asymm_v5,2020.2.10,Win32,60,61025ae37ef11b136ea224fe,,,,,,,,,1685,90,-47.5,1,0,0,response3disk,,5,-5,1.5,1,0,0,rectangle,-5,1.5,1,0,0,-5,1.5,1,0,0,1,103,263,66,1,,,,,,,,
,,,,,,,,,,,,,FF,,,,,,,,1.2168,,,,,,,,,,,,,,,,,,,,,,60feb1d22d3c61aeab816651,610378cc864e7cffc8c68912,2021-07-30_13h59.41.249,Simcolourproject_2stim_asymm_v5,2020.2.10,Win32,60,61025ae37ef11b136ea224fe,,,,,,,,,459,27,-49.5,1,0,0,response3disk,,4,4,3.5,1,0,0,rectangle,4,3.5,1,0,0,4,3.5,1,0,0,1,104,264,139,1,,,,,,,,
,,,,,,,,,,,,,FF,,,,,,,,0.6333,,,,,,,,,,,,,,,,,,,,,,60feb1d22d3c61aeab816651,610378cc864e7cffc8c68912,2021-07-30_13h59.41.249,Simcolourproject_2stim_asymm_v5,2020.2.10,Win32,60,61025ae37ef11b136ea224fe,,,,,,,,,1546,49,87.5,1,0,0,response1disk,,7,0,0.5,1,0,0,rectangle,0,0.5,1,0,0,0,0.5,1,0,0,1,105,265,59,1,,,,,,,,
,,,,,,,,,,,,,FF,,,,,,,,0.5165,,,,,,,,,,,,,,,,,,,,,,60feb1d22d3c61aeab816651,610378cc864e7cffc8c68912,2021-07-30_13h59.41.249,Simcolourproject_2stim_asymm_v5,2020.2.10,Win32,60,61025ae37ef11b136ea224fe,,,,,,,,,2741,36,77.5,1,0,0,response1disk,,7,3,5.5,1,0,0,rectangle,3,5.5,1,0,0,3,5.5,1,0,0,1,106,266,114,1,,,,,,,,
,,,,,,,,,,,,,FF,,,,,,,,1.3488,,,,,,,,,,,,,,,,,,,,,,60feb1d22d3c61aeab816651,610378cc864e7cffc8c68912,2021-07-30_13h59.41.249,Simcolourproject_2stim_asymm_v5,2020.2.10,Win32,60,61025ae37ef11b136ea224fe,,,,,,,,,3295,-41,-77.5,1,0,0,response5disk,,3,-2,-5.5,1,0,0,rectangle,-2,-5.5,1,0,0,-2,-5.5,1,0,0,1,107,267,30,1,,,,,,,,
,,,,,,,,,,,,,FF,,,,,,,,0.7335,,,,,,,,,,,,,,,,,,,,,,60feb1d22d3c61aeab816651,610378cc864e7cffc8c68912,2021-07-30_13h59.41.249,Simcolourproject_2stim_asymm_v5,2020.2.10,Win32,60,61025ae37ef11b136ea224fe,,,,,,,,,3808,49,82.5,1,0,0,response1disk,,7,-7,3.5,1,0,0,rectangle,-7,3.5,1,0,0,-7,3.5,1,0,0,1,108,268,52,1,,,,,,,,
,,,,,,,,,,,,,FF,,,,,,,,0.9338,,,,,,,,,,,,,,,,,,,,,,60feb1d22d3c61aeab816651,610378cc864e7cffc8c68912,2021-07-30_13h59.41.249,Simcolourproject_2stim_asymm_v5,2020.2.10,Win32,60,61025ae37ef11b136ea224fe,,,,,,,,,3341,-41,-55.5,1,0,0,response5disk,,3,-11,-0.5,1,0,0,rectangle,37,-68.5,1,0,0,-10,0.5,1,0,0,1,109,269,129,1,,response3disk_3,TRUE,4,4,"[313,135,41,211,85,165,151,119,171,243,5,63,113,154,23,93,9,279,210,270]",0.9994,rectangle
,,,,,,,,,,,,,FF,,,,,,,,0.7497,,,,,,,,,,,,,,,,,,,,,,60feb1d22d3c61aeab816651,610378cc864e7cffc8c68912,2021-07-30_13h59.41.249,Simcolourproject_2stim_asymm_v5,2020.2.10,Win32,60,61025ae37ef11b136ea224fe,,,,,,,,,2896,-39,-76.5,1,0,0,response5disk,,3,11,1.5,1,0,0,rectangle,11,1.5,1,0,0,11,1.5,1,0,0,1,110,270,8,1,,,,,,,,
,,,,,,,,,,,,,FF,,,,,,,,0.634,,,,,,,,,,,,,,,,,,,,,,60feb1d22d3c61aeab816651,610378cc864e7cffc8c68912,2021-07-30_13h59.41.249,Simcolourproject_2stim_asymm_v5,2020.2.10,Win32,60,61025ae37ef11b136ea224fe,,,,,,,,,504,40,88.5,1,0,0,response1disk,,7,11,-1.5,1,0,0,rectangle,11,-1.5,1,0,0,11,-1.5,1,0,0,1,111,271,143,1,,,,,,,,
,,,,,,,,,,,,,FF,,,,,,,,0.9002,,,,,,,,,,,,,,,,,,,,,,60feb1d22d3c61aeab816651,610378cc864e7cffc8c68912,2021-07-30_13h59.41.249,Simcolourproject_2stim_asymm_v5,2020.2.10,Win32,60,61025ae37ef11b136ea224fe,,,,,,,,,3932,36,-64.5,1,0,0,response3disk,,4,4,-0.5,1,0,0,rectangle,4,-0.5,1,0,0,4,-0.5,1,0,0,1,112,272,98,1,,,,,,,,
,,,,,,,,,,,,,FF,,,,,,,,0.7504,,,,,,,,,,,,,,,,,,,,,,60feb1d22d3c61aeab816651,610378cc864e7cffc8c68912,2021-07-30_13h59.41.249,Simcolourproject_2stim_asymm_v5,2020.2.10,Win32,60,61025ae37ef11b136ea224fe,,,,,,,,,1632,41,77.5,1,0,0,response1disk,,7,-2,-2.5,1,0,0,rectangle,-2,-2.5,1,0,0,-2,-2.5,1,0,0,1,113,273,137,1,,,,,,,,
,,,,,,,,,,,,,FF,,,,,,,,1.6165,,,,,,,,,,,,,,,,,,,,,,60feb1d22d3c61aeab816651,610378cc864e7cffc8c68912,2021-07-30_13h59.41.249,Simcolourproject_2stim_asymm_v5,2020.2.10,Win32,60,61025ae37ef11b136ea224fe,,,,,,,,,2487,35,-79.5,1,0,0,response3disk,,4,1,1.5,1,0,0,rectangle,1,1.5,1,0,0,1,1.5,1,0,0,1,114,274,54,1,,,,,,,,
,,,,,,,,,,,,,FF,,,,,,,,0.6835,,,,,,,,,,,,,,,,,,,,,,60feb1d22d3c61aeab816651,610378cc864e7cffc8c68912,2021-07-30_13h59.41.249,Simcolourproject_2stim_asymm_v5,2020.2.10,Win32,60,61025ae37ef11b136ea224fe,,,,,,,,,3439,-31,-73.5,1,0,0,response5disk,,3,0,3.5,1,0,0,rectangle,0,3.5,1,0,0,0,3.5,1,0,0,1,115,275,22,1,,,,,,,,
,,,,,,,,,,,,,FF,,,,,,,,0.5001,,,,,,,,,,,,,,,,,,,,,,60feb1d22d3c61aeab816651,610378cc864e7cffc8c68912,2021-07-30_13h59.41.249,Simcolourproject_2stim_asymm_v5,2020.2.10,Win32,60,61025ae37ef11b136ea224fe,,,,,,,,,2318,25,69.5,1,0,0,response1disk,,7,5,2.5,1,0,0,rectangle,5,2.5,1,0,0,5,2.5,1,0,0,1,116,276,61,1,,,,,,,,
,,,,,,,,,,,,,FF,,,,,,,,1.299,,,,,,,,,,,,,,,,,,,,,,60feb1d22d3c61aeab816651,610378cc864e7cffc8c68912,2021-07-30_13h59.41.249,Simcolourproject_2stim_asymm_v5,2020.2.10,Win32,60,61025ae37ef11b136ea224fe,,,,,,,,,1269,59,-38.5,1,0,0,response3disk,,5,2,3.5,1,0,0,rectangle,2,3.5,1,0,0,2,3.5,1,0,0,1,117,277,136,1,,,,,,,,
,,,,,,,,,,,,,FF,,,,,,,,0.6156,,,,,,,,,,,,,,,,,,,,,,60feb1d22d3c61aeab816651,610378cc864e7cffc8c68912,2021-07-30_13h59.41.249,Simcolourproject_2stim_asymm_v5,2020.2.10,Win32,60,61025ae37ef11b136ea224fe,,,,,,,,,1337,45,73.5,1,0,0,response1disk,,7,1,3.5,1,0,0,rectangle,-31,-86.5,1,0,0,1,0.5,1,0,0,1,118,278,0,1,,response5disk_3,TRUE,3,3,"[313,135,41,211,85,165,151,119,171,243,5,63,113,154,23,93,9,279,210,270]",1.216,rectangle
,,,,,,,,,,,,,FF,,,,,,,,0.5001,,,,,,,,,,,,,,,,,,,,,,60feb1d22d3c61aeab816651,610378cc864e7cffc8c68912,2021-07-30_13h59.41.249,Simcolourproject_2stim_asymm_v5,2020.2.10,Win32,60,61025ae37ef11b136ea224fe,,,,,,,,,178,32,72.5,1,0,0,response1disk,,7,1,6.5,1,0,0,rectangle,1,6.5,1,0,0,1,6.5,1,0,0,1,119,279,76,1,,,,,,,,
,,,,,,,,,,,,,FF,,,,,,,,0.966,,,,,,,,,,,,,,,,,,,,,,60feb1d22d3c61aeab816651,610378cc864e7cffc8c68912,2021-07-30_13h59.41.249,Simcolourproject_2stim_asymm_v5,2020.2.10,Win32,60,61025ae37ef11b136ea224fe,,,,,,,,,647,-39,-62.5,1,0,0,response5disk,,3,-2,7.5,1,0,0,rectangle,-2,7.5,1,0,0,-2,7.5,1,0,0,1,120,280,21,1,,,,,,,,
,,,,,,,,,,,,,FF,,,,,,,,1.3326,,,,,,,,,,,,,,,,,,,,,,60feb1d22d3c61aeab816651,610378cc864e7cffc8c68912,2021-07-30_13h59.41.249,Simcolourproject_2stim_asymm_v5,2020.2.10,Win32,60,61025ae37ef11b136ea224fe,,,,,,,,,1200,63,-39.5,1,0,0,response3disk,,5,0,-6.5,1,0,0,rectangle,0,-6.5,1,0,0,0,-6.5,1,0,0,1,121,281,72,1,,,,,,,,
,,,,,,,,,,,,,FF,,,,,,,,1.2002,,,,,,,,,,,,,,,,,,,,,,60feb1d22d3c61aeab816651,610378cc864e7cffc8c68912,2021-07-30_13h59.41.249,Simcolourproject_2stim_asymm_v5,2020.2.10,Win32,60,61025ae37ef11b136ea224fe,,,,,,,,,3729,48,78.5,1,0,0,response1disk,,7,2,-2.5,1,0,0,rectangle,2,-2.5,1,0,0,2,-2.5,1,0,0,1,122,282,57,1,,,,,,,,
,,,,,,,,,,,,,FF,,,,,,,,0.7663,,,,,,,,,,,,,,,,,,,,,,60feb1d22d3c61aeab816651,610378cc864e7cffc8c68912,2021-07-30_13h59.41.249,Simcolourproject_2stim_asymm_v5,2020.2.10,Win32,60,61025ae37ef11b136ea224fe,,,,,,,,,464,-47,-61.5,1,0,0,response5disk,,3,-12,1.5,1,0,0,rectangle,-12,1.5,1,0,0,-12,1.5,1,0,0,1,123,283,53,1,,,,,,,,
,,,,,,,,,,,,,FF,,,,,,,,0.5999,,,,,,,,,,,,,,,,,,,,,,60feb1d22d3c61aeab816651,610378cc864e7cffc8c68912,2021-07-30_13h59.41.249,Simcolourproject_2stim_asymm_v5,2020.2.10,Win32,60,61025ae37ef11b136ea224fe,,,,,,,,,2484,-44,-63.5,1,0,0,response5disk,,3,-6,7.5,1,0,0,rectangle,-6,7.5,1,0,0,-6,7.5,1,0,0,1,124,284,134,1,,,,,,,,
,,,,,,,,,,,,,FF,,,,,,,,0.6332,,,,,,,,,,,,,,,,,,,,,,60feb1d22d3c61aeab816651,610378cc864e7cffc8c68912,2021-07-30_13h59.41.249,Simcolourproject_2stim_asymm_v5,2020.2.10,Win32,60,61025ae37ef11b136ea224fe,,,,,,,,,937,47,51.5,1,0,0,response1disk,,7,1,-5.5,1,0,0,rectangle,1,-5.5,1,0,0,1,-5.5,1,0,0,1,125,285,158,1,,,,,,,,
,,,,,,,,,,,,,FF,,,,,,,,0.6827,,,,,,,,,,,,,,,,,,,,,,60feb1d22d3c61aeab816651,610378cc864e7cffc8c68912,2021-07-30_13h59.41.249,Simcolourproject_2stim_asymm_v5,2020.2.10,Win32,60,61025ae37ef11b136ea224fe,,,,,,,,,2007,32,94.5,1,0,0,response1disk,,7,-5,-1.5,1,0,0,rectangle,-5,-1.5,1,0,0,-5,-1.5,1,0,0,1,126,286,126,1,,,,,,,,
,,,,,,,,,,,,,FF,,,,,,,,0.8497,,,,,,,,,,,,,,,,,,,,,,60feb1d22d3c61aeab816651,610378cc864e7cffc8c68912,2021-07-30_13h59.41.249,Simcolourproject_2stim_asymm_v5,2020.2.10,Win32,60,61025ae37ef11b136ea224fe,,,,,,,,,1113,43,76.5,1,0,0,response1disk,,7,4,0.5,1,0,0,rectangle,4,0.5,1,0,0,4,0.5,1,0,0,1,127,287,101,1,,,,,,,,
,,,,,,,,,,,,,FF,,,,,,,,0.6993,,,,,,,,,,,,,,,,,,,,,,60feb1d22d3c61aeab816651,610378cc864e7cffc8c68912,2021-07-30_13h59.41.249,Simcolourproject_2stim_asymm_v5,2020.2.10,Win32,60,61025ae37ef11b136ea224fe,,,,,,,,,2226,-46,88.5,1,0,0,response7disk,,0,-12,-4.5,1,0,0,rectangle,-12,-4.5,1,0,0,-12,-4.5,1,0,0,1,128,288,159,1,,,,,,,,
,,,,,,,,,,,,,FF,,,,,,,,1.0331,,,,,,,,,,,,,,,,,,,,,,60feb1d22d3c61aeab816651,610378cc864e7cffc8c68912,2021-07-30_13h59.41.249,Simcolourproject_2stim_asymm_v5,2020.2.10,Win32,60,61025ae37ef11b136ea224fe,,,,,,,,,4048,-85,-28.5,1,0,0,response5disk,,2,1,2.5,1,0,0,rectangle,1,2.5,1,0,0,1,2.5,1,0,0,1,129,289,86,1,,,,,,,,
,,,,,,,,,,,,,FF,,,,,,,,0.6499,,,,,,,,,,,,,,,,,,,,,,60feb1d22d3c61aeab816651,610378cc864e7cffc8c68912,2021-07-30_13h59.41.249,Simcolourproject_2stim_asymm_v5,2020.2.10,Win32,60,61025ae37ef11b136ea224fe,,,,,,,,,4343,-33,70.5,1,0,0,response7disk,,0,-12,-6.5,1,0,0,rectangle,-12,-6.5,1,0,0,-12,-6.5,1,0,0,1,130,290,37,1,,,,,,,,
,,,,,,,,,,,,,FF,,,,,,,,1.1991,,,,,,,,,,,,,,,,,,,,,,60feb1d22d3c61aeab816651,610378cc864e7cffc8c68912,2021-07-30_13h59.41.249,Simcolourproject_2stim_asymm_v5,2020.2.10,Win32,60,61025ae37ef11b136ea224fe,,,,,,,,,1644,55,80.5,1,0,0,response1disk,,7,5,-3.5,1,0,0,rectangle,5,-3.5,1,0,0,5,-3.5,1,0,0,1,131,291,106,1,,,,,,,,
,,,,,,,,,,,,,FF,,,,,,,,1.0498,,,,,,,,,,,,,,,,,,,,,,60feb1d22d3c61aeab816651,610378cc864e7cffc8c68912,2021-07-30_13h59.41.249,Simcolourproject_2stim_asymm_v5,2020.2.10,Win32,60,61025ae37ef11b136ea224fe,,,,,,,,,1230,-31,-61.5,1,0,0,response5disk,,3,4,4.5,1,0,0,rectangle,4,4.5,1,0,0,4,4.5,1,0,0,1,132,292,73,1,,,,,,,,
,,,,,,,,,,,,,FF,,,,,,,,0.6499,,,,,,,,,,,,,,,,,,,,,,60feb1d22d3c61aeab816651,610378cc864e7cffc8c68912,2021-07-30_13h59.41.249,Simcolourproject_2stim_asymm_v5,2020.2.10,Win32,60,61025ae37ef11b136ea224fe,,,,,,,,,2873,55,98.5,1,0,0,response1disk,,7,9,4.5,1,0,0,rectangle,9,4.5,1,0,0,9,4.5,1,0,0,1,133,293,111,1,,,,,,,,
,,,,,,,,,,,,,FF,,,,,,,,1.1991,,,,,,,,,,,,,,,,,,,,,,60feb1d22d3c61aeab816651,610378cc864e7cffc8c68912,2021-07-30_13h59.41.249,Simcolourproject_2stim_asymm_v5,2020.2.10,Win32,60,61025ae37ef11b136ea224fe,,,,,,,,,2186,59,83.5,1,0,0,response1disk,,7,-4,0.5,1,0,0,rectangle,-4,0.5,1,0,0,-4,0.5,1,0,0,1,134,294,69,1,,,,,,,,
,,,,,,,,,,,,,FF,,,,,,,,0.7663,,,,,,,,,,,,,,,,,,,,,,60feb1d22d3c61aeab816651,610378cc864e7cffc8c68912,2021-07-30_13h59.41.249,Simcolourproject_2stim_asymm_v5,2020.2.10,Win32,60,61025ae37ef11b136ea224fe,,,,,,,,,2251,70,-39.5,1,0,0,response3disk,,5,9,1.5,1,0,0,rectangle,9,1.5,1,0,0,9,1.5,1,0,0,1,135,295,94,1,,,,,,,,
,,,,,,,,,,,,,FF,,,,,,,,2.3333,,,,,,,,,,,,,,,,,,,,,,60feb1d22d3c61aeab816651,610378cc864e7cffc8c68912,2021-07-30_13h59.41.249,Simcolourproject_2stim_asymm_v5,2020.2.10,Win32,60,61025ae37ef11b136ea224fe,,,,,,,,,1123,30,-73.5,1,0,0,response3disk,,4,-6,5.5,1,0,0,rectangle,-6,5.5,1,0,0,-6,5.5,1,0,0,1,136,296,25,1,,,,,,,,
,,,,,,,,,,,,,FF,,,,,,,,1.2272,,,,,,,,,,,,,,,,,,,,,,60feb1d22d3c61aeab816651,610378cc864e7cffc8c68912,2021-07-30_13h59.41.249,Simcolourproject_2stim_asymm_v5,2020.2.10,Win32,60,61025ae37ef11b136ea224fe,,,,,,,,,1884,38,-45.5,1,0,0,response3disk,,4,-4,-3.5,1,0,0,rectangle,-4,-3.5,1,0,0,-4,-3.5,1,0,0,1,137,297,132,1,,,,,,,,
