key_resp.keys,key_resp.rt,key_resp_14.keys,key_resp_14.rt,key_resp_15.keys,key_resp_15.rt,key_resp_17.keys,key_resp_17.rt,key_resp_9.keys,key_resp_9.rt,key_resp_10.keys,key_resp_10.rt,practice_comparison,Ecc,mouse_5.x,mouse_5.y,mouse_5.leftButton,mouse_5.midButton,mouse_5.rightButton,mouse_5.clicked_name,pracsimilarity,response_time,mouse_10.x,mouse_10.y,mouse_10.leftButton,mouse_10.midButton,mouse_10.rightButton,mouse_10.clicked_name,mouse_7.x,mouse_7.y,mouse_7.leftButton,mouse_7.midButton,mouse_7.rightButton,mouse_6.x,mouse_6.y,mouse_6.leftButton,mouse_6.midButton,mouse_6.rightButton,duringprac.thisRepN,duringprac.thisTrialN,duringprac.thisN,duringprac.thisIndex,duringprac.ran,participant,session,date,expName,psychopyVersion,OS,frameRate,study_id,mouse_7.clicked_name,catchpracsimilarity,catch_response_time,catchnumberprac,catchtrialorderprac,mouse_6.clicked_name,key_resp_22.keys,key_resp_22.rt,realcomparison,mouse.x,mouse.y,mouse.leftButton,mouse.midButton,mouse.rightButton,mouse.clicked_name,Colour2,similarity,mouse_2.x,mouse_2.y,mouse_2.leftButton,mouse_2.midButton,mouse_2.rightButton,mouse_2.clicked_name,mouse_3.x,mouse_3.y,mouse_3.leftButton,mouse_3.midButton,mouse_3.rightButton,mouse_11.x,mouse_11.y,mouse_11.leftButton,mouse_11.midButton,mouse_11.rightButton,trials_2.thisRepN,trials_2.thisTrialN,trials_2.thisN,trials_2.thisIndex,trials_2.ran,Colour1,mouse_3.clicked_name,catchornah,catchsimilarity,catchnumber,catchtrialorder,catchRT,mouse_11.clicked_name
space,3.436,space,13.384,space,10.7835,space,4.8459,space,1.5759,space,3.2778,104,PF,-35.359375,-107.4335938,1,0,0,response5disk_5,3,10.0461,-2.22265625,2.08203125,1,0,0,rectangle_8,-2.22265625,2.08203125,1,0,0,-2.22265625,2.08203125,1,0,0,0,0,0,2,1,60fe1bea2504195ce9899d35,610378bde5f42b4bea54f83d,2021-07-29_23h59.06.067,Simcolourproject_2stim_asymm_v5,2020.2.10,MacIntel,60,61025ae37ef11b136ea224fe,,,,,,,,,,,,,,,,,,,,,,,,,,,,,,,,,,,,,,,,,,,,,,
,,,,,,,,,,,,127,FF,87.1640625,52.08203125,1,0,0,response1disk_5,6,10.1103,6.07421875,3.71484375,1,0,0,rectangle_8,81.7421875,38.7734375,1,0,0,4.18359375,-0.58984375,1,0,0,0,1,1,0,1,60fe1bea2504195ce9899d35,610378bde5f42b4bea54f83d,2021-07-29_23h59.06.067,Simcolourproject_2stim_asymm_v5,2020.2.10,MacIntel,60,61025ae37ef11b136ea224fe,response1disk_7,6,2.2246,6,"[2,5]",rectangle_4,,,,,,,,,,,,,,,,,,,,,,,,,,,,,,,,,,,,,,,,
,,,,,,,,,,,,150,FF,-39.50390625,-90.96484375,1,0,0,response5disk_5,3,11.3638,6.14453125,6.16015625,1,0,0,rectangle_8,6.14453125,6.16015625,1,0,0,6.14453125,6.16015625,1,0,0,0,2,2,3,1,60fe1bea2504195ce9899d35,610378bde5f42b4bea54f83d,2021-07-29_23h59.06.067,Simcolourproject_2stim_asymm_v5,2020.2.10,MacIntel,60,61025ae37ef11b136ea224fe,,,,,,,,,,,,,,,,,,,,,,,,,,,,,,,,,,,,,,,,,,,,,,
,,,,,,,,,,,,92,PF,86.23828125,-31.14453125,1,0,0,response3disk_5,5,4.6479,14.6796875,8.21875,1,0,0,rectangle_8,14.6796875,8.21875,1,0,0,14.6796875,8.21875,1,0,0,0,3,3,4,1,60fe1bea2504195ce9899d35,610378bde5f42b4bea54f83d,2021-07-29_23h59.06.067,Simcolourproject_2stim_asymm_v5,2020.2.10,MacIntel,60,61025ae37ef11b136ea224fe,,,,,,,,,,,,,,,,,,,,,,,,,,,,,,,,,,,,,,,,,,,,,,
,,,,,,,,,,,,125,PF,-36.26171875,-89.4296875,1,0,0,response5disk_5,3,2.8075,14.40625,4.1953125,1,0,0,rectangle_8,96.43359375,53.06640625,1,0,0,-1.8984375,4.28125,1,0,0,0,4,4,6,1,60fe1bea2504195ce9899d35,610378bde5f42b4bea54f83d,2021-07-29_23h59.06.067,Simcolourproject_2stim_asymm_v5,2020.2.10,MacIntel,60,61025ae37ef11b136ea224fe,response1disk_7,6,1.9051,6,"[2,5]",rectangle_4,,,,,,,,,,,,,,,,,,,,,,,,,,,,,,,,,,,,,,,,
,,,,,,,,,,,,105,FF,-94.13671875,46.69921875,1,0,0,response7disk_5,1,4.4785,0.01953125,-2.8828125,1,0,0,rectangle_8,0.01953125,-2.8828125,1,0,0,0.01953125,-2.8828125,1,0,0,0,5,5,5,1,60fe1bea2504195ce9899d35,610378bde5f42b4bea54f83d,2021-07-29_23h59.06.067,Simcolourproject_2stim_asymm_v5,2020.2.10,MacIntel,60,61025ae37ef11b136ea224fe,,,,,,,,,,,,,,,,,,,,,,,,,,,,,,,,,,,,,,,,,,,,,,
,,,,,,,,,,,,143,PF,85.68359375,-62.578125,1,0,0,response3disk_5,5,6.8851,-4.10546875,3.77734375,1,0,0,rectangle_8,-4.10546875,3.77734375,1,0,0,-4.10546875,3.77734375,1,0,0,0,6,6,1,1,60fe1bea2504195ce9899d35,610378bde5f42b4bea54f83d,2021-07-29_23h59.06.067,Simcolourproject_2stim_asymm_v5,2020.2.10,MacIntel,60,61025ae37ef11b136ea224fe,,,,,,,,,,,,,,,,,,,,,,,,,,,,,,,,,,,,,,,,,,,,,,
,,,,,,,,,,,,,FF,,,,,,,,4.8805,,,,,,,,,,,,,,,,,,,,,,60fe1bea2504195ce9899d35,610378bde5f42b4bea54f83d,2021-07-29_23h59.06.067,Simcolourproject_2stim_asymm_v5,2020.2.10,MacIntel,60,61025ae37ef11b136ea224fe,,,,,,,space,2.0656,1214,-93.6171875,46.21484375,1,0,0,response7disk,,1,-12.4765625,-1.02734375,1,0,0,rectangle,-12.4765625,-1.02734375,1,0,0,-12.4765625,-1.02734375,1,0,0,0,0,0,24,1,,,,,,,,
,,,,,,,,,,,,,FF,,,,,,,,2.5252,,,,,,,,,,,,,,,,,,,,,,60fe1bea2504195ce9899d35,610378bde5f42b4bea54f83d,2021-07-29_23h59.06.067,Simcolourproject_2stim_asymm_v5,2020.2.10,MacIntel,60,61025ae37ef11b136ea224fe,,,,,,,,,1530,-65.453125,44.640625,1,0,0,response7disk,,1,10.26953125,-11.41796875,1,0,0,rectangle,53.6796875,92.83984375,1,0,0,-0.51171875,12.671875,1,0,0,0,1,1,95,1,,response1disk_3,TRUE,7,7,"[81,314,244,110,85,249,91,120,152,34,2,265,275,167,63,300,95,297,16,32]",1.5041,rectangle
,,,,,,,,,,,,,FF,,,,,,,,58.2392,,,,,,,,,,,,,,,,,,,,,,60fe1bea2504195ce9899d35,610378bde5f42b4bea54f83d,2021-07-29_23h59.06.067,Simcolourproject_2stim_asymm_v5,2020.2.10,MacIntel,60,61025ae37ef11b136ea224fe,,,,,,,,,767,60.7734375,-89.28125,1,0,0,response3disk,,4,6.06640625,-11.8671875,1,0,0,rectangle,6.06640625,-11.8671875,1,0,0,6.06640625,-11.8671875,1,0,0,0,2,2,142,1,,,,,,,,
,,,,,,,,,,,,,FF,,,,,,,,1.8061,,,,,,,,,,,,,,,,,,,,,,60fe1bea2504195ce9899d35,610378bde5f42b4bea54f83d,2021-07-29_23h59.06.067,Simcolourproject_2stim_asymm_v5,2020.2.10,MacIntel,60,61025ae37ef11b136ea224fe,,,,,,,,,843,49.43359375,-102.84375,1,0,0,response3disk,,4,20.609375,-11.11328125,1,0,0,rectangle,20.609375,-11.11328125,1,0,0,20.609375,-11.11328125,1,0,0,0,3,3,111,1,,,,,,,,
,,,,,,,,,,,,,FF,,,,,,,,2.5049,,,,,,,,,,,,,,,,,,,,,,60fe1bea2504195ce9899d35,610378bde5f42b4bea54f83d,2021-07-29_23h59.06.067,Simcolourproject_2stim_asymm_v5,2020.2.10,MacIntel,60,61025ae37ef11b136ea224fe,,,,,,,,,4245,87.8359375,-52.03125,1,0,0,response3disk,,5,20.8203125,7.890625,1,0,0,rectangle,20.8203125,7.890625,1,0,0,20.8203125,7.890625,1,0,0,0,4,4,18,1,,,,,,,,
,,,,,,,,,,,,,FF,,,,,,,,1.3207,,,,,,,,,,,,,,,,,,,,,,60fe1bea2504195ce9899d35,610378bde5f42b4bea54f83d,2021-07-29_23h59.06.067,Simcolourproject_2stim_asymm_v5,2020.2.10,MacIntel,60,61025ae37ef11b136ea224fe,,,,,,,,,2304,-82.5,-34.171875,1,0,0,response5disk,,2,-18.078125,-1.4296875,1,0,0,rectangle,-18.078125,-1.4296875,1,0,0,-18.078125,-1.4296875,1,0,0,0,5,5,63,1,,,,,,,,
,,,,,,,,,,,,,FF,,,,,,,,1.8865,,,,,,,,,,,,,,,,,,,,,,60fe1bea2504195ce9899d35,610378bde5f42b4bea54f83d,2021-07-29_23h59.06.067,Simcolourproject_2stim_asymm_v5,2020.2.10,MacIntel,60,61025ae37ef11b136ea224fe,,,,,,,,,3312,86.73046875,-40.11328125,1,0,0,response3disk,,5,-1.01953125,-9.03515625,1,0,0,rectangle,-1.01953125,-9.03515625,1,0,0,-1.01953125,-9.03515625,1,0,0,0,6,6,147,1,,,,,,,,
,,,,,,,,,,,,,FF,,,,,,,,2.1061,,,,,,,,,,,,,,,,,,,,,,60fe1bea2504195ce9899d35,610378bde5f42b4bea54f83d,2021-07-29_23h59.06.067,Simcolourproject_2stim_asymm_v5,2020.2.10,MacIntel,60,61025ae37ef11b136ea224fe,,,,,,,,,3709,-92.48828125,50.99609375,1,0,0,response7disk,,1,-25.1875,2.0234375,1,0,0,rectangle,-25.1875,2.0234375,1,0,0,-25.1875,2.0234375,1,0,0,0,7,7,44,1,,,,,,,,
,,,,,,,,,,,,,FF,,,,,,,,0.9546,,,,,,,,,,,,,,,,,,,,,,60fe1bea2504195ce9899d35,610378bde5f42b4bea54f83d,2021-07-29_23h59.06.067,Simcolourproject_2stim_asymm_v5,2020.2.10,MacIntel,60,61025ae37ef11b136ea224fe,,,,,,,,,2609,-68.4375,46.28515625,1,0,0,response7disk,,1,-2.8828125,-8.20703125,1,0,0,rectangle,-2.8828125,-8.20703125,1,0,0,-2.8828125,-8.20703125,1,0,0,0,8,8,41,1,,,,,,,,
,,,,,,,,,,,,,FF,,,,,,,,1.588,,,,,,,,,,,,,,,,,,,,,,60fe1bea2504195ce9899d35,610378bde5f42b4bea54f83d,2021-07-29_23h59.06.067,Simcolourproject_2stim_asymm_v5,2020.2.10,MacIntel,60,61025ae37ef11b136ea224fe,,,,,,,,,537,39.19921875,-86.39453125,1,0,0,response3disk,,4,19.515625,-12.703125,1,0,0,rectangle,19.515625,-12.703125,1,0,0,19.515625,-12.703125,1,0,0,0,9,9,155,1,,,,,,,,
,,,,,,,,,,,,,FF,,,,,,,,1.5404,,,,,,,,,,,,,,,,,,,,,,60fe1bea2504195ce9899d35,610378bde5f42b4bea54f83d,2021-07-29_23h59.06.067,Simcolourproject_2stim_asymm_v5,2020.2.10,MacIntel,60,61025ae37ef11b136ea224fe,,,,,,,,,1777,53.55078125,-99.71875,1,0,0,response3disk,,4,14.8984375,-4.30859375,1,0,0,rectangle,14.8984375,-4.30859375,1,0,0,14.8984375,-4.30859375,1,0,0,0,10,10,138,1,,,,,,,,
,,,,,,,,,,,,,FF,,,,,,,,2.3232,,,,,,,,,,,,,,,,,,,,,,60fe1bea2504195ce9899d35,610378bde5f42b4bea54f83d,2021-07-29_23h59.06.067,Simcolourproject_2stim_asymm_v5,2020.2.10,MacIntel,60,61025ae37ef11b136ea224fe,,,,,,,,,994,57.44921875,-94.828125,1,0,0,response3disk,,4,-6.5859375,6.8984375,1,0,0,rectangle,-6.5859375,6.8984375,1,0,0,-6.5859375,6.8984375,1,0,0,0,11,11,105,1,,,,,,,,
,,,,,,,,,,,,,FF,,,,,,,,0.837,,,,,,,,,,,,,,,,,,,,,,60fe1bea2504195ce9899d35,610378bde5f42b4bea54f83d,2021-07-29_23h59.06.067,Simcolourproject_2stim_asymm_v5,2020.2.10,MacIntel,60,61025ae37ef11b136ea224fe,,,,,,,,,1068,56.73046875,-115.6328125,1,0,0,response3disk,,4,11.37890625,-5.125,1,0,0,rectangle,11.37890625,-5.125,1,0,0,11.37890625,-5.125,1,0,0,0,12,12,10,1,,,,,,,,
,,,,,,,,,,,,,FF,,,,,,,,1.3026,,,,,,,,,,,,,,,,,,,,,,60fe1bea2504195ce9899d35,610378bde5f42b4bea54f83d,2021-07-29_23h59.06.067,Simcolourproject_2stim_asymm_v5,2020.2.10,MacIntel,60,61025ae37ef11b136ea224fe,,,,,,,,,723,-96.26171875,37.1796875,1,0,0,response7disk,,1,-21.7265625,-2.89453125,1,0,0,rectangle,-21.7265625,-2.89453125,1,0,0,-21.7265625,-2.89453125,1,0,0,0,13,13,34,1,,,,,,,,
,,,,,,,,,,,,,FF,,,,,,,,1.3381,,,,,,,,,,,,,,,,,,,,,,60fe1bea2504195ce9899d35,610378bde5f42b4bea54f83d,2021-07-29_23h59.06.067,Simcolourproject_2stim_asymm_v5,2020.2.10,MacIntel,60,61025ae37ef11b136ea224fe,,,,,,,,,3240,99.5390625,-60.6953125,1,0,0,response3disk,,5,12.8046875,3.7734375,1,0,0,rectangle,12.8046875,3.7734375,1,0,0,12.8046875,3.7734375,1,0,0,0,14,14,78,1,,,,,,,,
,,,,,,,,,,,,,FF,,,,,,,,0.9208,,,,,,,,,,,,,,,,,,,,,,60fe1bea2504195ce9899d35,610378bde5f42b4bea54f83d,2021-07-29_23h59.06.067,Simcolourproject_2stim_asymm_v5,2020.2.10,MacIntel,60,61025ae37ef11b136ea224fe,,,,,,,,,992,-37.4765625,-78.8203125,1,0,0,response5disk,,3,-19.74609375,4.66015625,1,0,0,rectangle,41.390625,121.25,1,0,0,-0.015625,-9.18359375,1,0,0,0,15,15,94,1,,response1disk_3,TRUE,7,7,"[81,314,244,110,85,249,91,120,152,34,2,265,275,167,63,300,95,297,16,32]",1.4353,rectangle
,,,,,,,,,,,,,FF,,,,,,,,1.1712,,,,,,,,,,,,,,,,,,,,,,60fe1bea2504195ce9899d35,610378bde5f42b4bea54f83d,2021-07-29_23h59.06.067,Simcolourproject_2stim_asymm_v5,2020.2.10,MacIntel,60,61025ae37ef11b136ea224fe,,,,,,,,,4163,-32.82421875,89.484375,1,0,0,response7disk,,0,-22.01171875,17.01171875,1,0,0,rectangle,-22.01171875,17.01171875,1,0,0,-22.01171875,17.01171875,1,0,0,0,16,16,122,1,,,,,,,,
,,,,,,,,,,,,,FF,,,,,,,,0.8524,,,,,,,,,,,,,,,,,,,,,,60fe1bea2504195ce9899d35,610378bde5f42b4bea54f83d,2021-07-29_23h59.06.067,Simcolourproject_2stim_asymm_v5,2020.2.10,MacIntel,60,61025ae37ef11b136ea224fe,,,,,,,,,2721,-88.3125,45.453125,1,0,0,response7disk,,1,-28.8671875,15.09765625,1,0,0,rectangle,-28.8671875,15.09765625,1,0,0,-28.8671875,15.09765625,1,0,0,0,17,17,124,1,,,,,,,,
,,,,,,,,,,,,,FF,,,,,,,,1.3551,,,,,,,,,,,,,,,,,,,,,,60fe1bea2504195ce9899d35,610378bde5f42b4bea54f83d,2021-07-29_23h59.06.067,Simcolourproject_2stim_asymm_v5,2020.2.10,MacIntel,60,61025ae37ef11b136ea224fe,,,,,,,,,1100,49.74609375,-84.92578125,1,0,0,response3disk,,4,-5.16015625,9.765625,1,0,0,rectangle,-5.16015625,9.765625,1,0,0,-5.16015625,9.765625,1,0,0,0,18,18,60,1,,,,,,,,
,,,,,,,,,,,,,FF,,,,,,,,1.3369,,,,,,,,,,,,,,,,,,,,,,60fe1bea2504195ce9899d35,610378bde5f42b4bea54f83d,2021-07-29_23h59.06.067,Simcolourproject_2stim_asymm_v5,2020.2.10,MacIntel,60,61025ae37ef11b136ea224fe,,,,,,,,,2731,-72.4453125,35.13671875,1,0,0,response7disk,,1,-10.14453125,-9.91796875,1,0,0,rectangle,-10.14453125,-9.91796875,1,0,0,-10.14453125,-9.91796875,1,0,0,0,19,19,61,1,,,,,,,,
,,,,,,,,,,,,,FF,,,,,,,,0.9375,,,,,,,,,,,,,,,,,,,,,,60fe1bea2504195ce9899d35,610378bde5f42b4bea54f83d,2021-07-29_23h59.06.067,Simcolourproject_2stim_asymm_v5,2020.2.10,MacIntel,60,61025ae37ef11b136ea224fe,,,,,,,,,4223,-39.94140625,87.93359375,1,0,0,response7disk,,0,-12.3359375,14.1953125,1,0,0,rectangle,-12.3359375,14.1953125,1,0,0,-12.3359375,14.1953125,1,0,0,0,20,20,16,1,,,,,,,,
,,,,,,,,,,,,,FF,,,,,,,,1.0883,,,,,,,,,,,,,,,,,,,,,,60fe1bea2504195ce9899d35,610378bde5f42b4bea54f83d,2021-07-29_23h59.06.067,Simcolourproject_2stim_asymm_v5,2020.2.10,MacIntel,60,61025ae37ef11b136ea224fe,,,,,,,,,3827,93.33984375,-44.94140625,1,0,0,response3disk,,5,-2.06640625,9.48046875,1,0,0,rectangle,-2.06640625,9.48046875,1,0,0,-2.06640625,9.48046875,1,0,0,0,21,21,47,1,,,,,,,,
,,,,,,,,,,,,,FF,,,,,,,,0.8849,,,,,,,,,,,,,,,,,,,,,,60fe1bea2504195ce9899d35,610378bde5f42b4bea54f83d,2021-07-29_23h59.06.067,Simcolourproject_2stim_asymm_v5,2020.2.10,MacIntel,60,61025ae37ef11b136ea224fe,,,,,,,,,3022,70.05078125,48.22265625,1,0,0,response1disk,,6,20.31640625,-4.21484375,1,0,0,rectangle,20.31640625,-4.21484375,1,0,0,20.31640625,-4.21484375,1,0,0,0,22,22,152,1,,,,,,,,
,,,,,,,,,,,,,FF,,,,,,,,1.0869,,,,,,,,,,,,,,,,,,,,,,60fe1bea2504195ce9899d35,610378bde5f42b4bea54f83d,2021-07-29_23h59.06.067,Simcolourproject_2stim_asymm_v5,2020.2.10,MacIntel,60,61025ae37ef11b136ea224fe,,,,,,,,,2282,-46.4765625,-77.05078125,1,0,0,response5disk,,3,4,2.16796875,1,0,0,rectangle,4,2.16796875,1,0,0,4,2.16796875,1,0,0,0,23,23,137,1,,,,,,,,
,,,,,,,,,,,,,FF,,,,,,,,1.2518,,,,,,,,,,,,,,,,,,,,,,60fe1bea2504195ce9899d35,610378bde5f42b4bea54f83d,2021-07-29_23h59.06.067,Simcolourproject_2stim_asymm_v5,2020.2.10,MacIntel,60,61025ae37ef11b136ea224fe,,,,,,,,,3525,-73.5390625,-28,1,0,0,response5disk,,2,-17.296875,0.0078125,1,0,0,rectangle,-17.296875,0.0078125,1,0,0,-17.296875,0.0078125,1,0,0,0,24,24,87,1,,,,,,,,
,,,,,,,,,,,,,FF,,,,,,,,0.8338,,,,,,,,,,,,,,,,,,,,,,60fe1bea2504195ce9899d35,610378bde5f42b4bea54f83d,2021-07-29_23h59.06.067,Simcolourproject_2stim_asymm_v5,2020.2.10,MacIntel,60,61025ae37ef11b136ea224fe,,,,,,,,,1420,81.08984375,-55.2421875,1,0,0,response3disk,,5,22.52734375,-7.39453125,1,0,0,rectangle,22.52734375,-7.39453125,1,0,0,22.52734375,-7.39453125,1,0,0,0,25,25,13,1,,,,,,,,
,,,,,,,,,,,,,FF,,,,,,,,1.8898,,,,,,,,,,,,,,,,,,,,,,60fe1bea2504195ce9899d35,610378bde5f42b4bea54f83d,2021-07-29_23h59.06.067,Simcolourproject_2stim_asymm_v5,2020.2.10,MacIntel,60,61025ae37ef11b136ea224fe,,,,,,,,,2521,43.078125,75.31640625,1,0,0,response1disk,,7,12.1875,3.61328125,1,0,0,rectangle,12.1875,3.61328125,1,0,0,12.1875,3.61328125,1,0,0,0,26,26,151,1,,,,,,,,
,,,,,,,,,,,,,FF,,,,,,,,1.7543,,,,,,,,,,,,,,,,,,,,,,60fe1bea2504195ce9899d35,610378bde5f42b4bea54f83d,2021-07-29_23h59.06.067,Simcolourproject_2stim_asymm_v5,2020.2.10,MacIntel,60,61025ae37ef11b136ea224fe,,,,,,,,,1170,57.00390625,124.125,1,0,0,response1disk,,7,5.07421875,-2.36328125,1,0,0,rectangle,5.07421875,-2.36328125,1,0,0,5.07421875,-2.36328125,1,0,0,0,27,27,82,1,,,,,,,,
,,,,,,,,,,,,,FF,,,,,,,,1.5054,,,,,,,,,,,,,,,,,,,,,,60fe1bea2504195ce9899d35,610378bde5f42b4bea54f83d,2021-07-29_23h59.06.067,Simcolourproject_2stim_asymm_v5,2020.2.10,MacIntel,60,61025ae37ef11b136ea224fe,,,,,,,,,1692,107.9179688,33.4140625,1,0,0,response1disk,,6,8.53125,-6.26171875,1,0,0,rectangle,8.53125,-6.26171875,1,0,0,8.53125,-6.26171875,1,0,0,0,28,28,104,1,,,,,,,,
,,,,,,,,,,,,,FF,,,,,,,,1.9904,,,,,,,,,,,,,,,,,,,,,,60fe1bea2504195ce9899d35,610378bde5f42b4bea54f83d,2021-07-29_23h59.06.067,Simcolourproject_2stim_asymm_v5,2020.2.10,MacIntel,60,61025ae37ef11b136ea224fe,,,,,,,,,2590,110.4453125,17.90234375,1,0,0,response1disk,,6,15.15234375,-4.953125,1,0,0,rectangle,15.15234375,-4.953125,1,0,0,15.15234375,-4.953125,1,0,0,0,29,29,157,1,,,,,,,,
,,,,,,,,,,,,,FF,,,,,,,,1.404,,,,,,,,,,,,,,,,,,,,,,60fe1bea2504195ce9899d35,610378bde5f42b4bea54f83d,2021-07-29_23h59.06.067,Simcolourproject_2stim_asymm_v5,2020.2.10,MacIntel,60,61025ae37ef11b136ea224fe,,,,,,,,,1902,-23.99609375,-61.9140625,1,0,0,response5disk,,3,-0.4921875,-7.6953125,1,0,0,rectangle,-0.4921875,-7.6953125,1,0,0,-0.4921875,-7.6953125,1,0,0,0,30,30,113,1,,,,,,,,
,,,,,,,,,,,,,FF,,,,,,,,1.2547,,,,,,,,,,,,,,,,,,,,,,60fe1bea2504195ce9899d35,610378bde5f42b4bea54f83d,2021-07-29_23h59.06.067,Simcolourproject_2stim_asymm_v5,2020.2.10,MacIntel,60,61025ae37ef11b136ea224fe,,,,,,,,,1827,-30.3046875,-87.34765625,1,0,0,response5disk,,3,-4.625,-8.0078125,1,0,0,rectangle,-72.55078125,-47.13671875,1,0,0,-8.25,-5.140625,1,0,0,0,31,31,27,1,,response5disk_3,TRUE,2,2,"[81,314,244,110,85,249,91,120,152,34,2,265,275,167,63,300,95,297,16,32]",2.0373,rectangle
,,,,,,,,,,,,,FF,,,,,,,,1.187,,,,,,,,,,,,,,,,,,,,,,60fe1bea2504195ce9899d35,610378bde5f42b4bea54f83d,2021-07-29_23h59.06.067,Simcolourproject_2stim_asymm_v5,2020.2.10,MacIntel,60,61025ae37ef11b136ea224fe,,,,,,,,,3955,-20.99609375,-87.18359375,1,0,0,response5disk,,3,6.984375,14.2421875,1,0,0,rectangle,6.984375,14.2421875,1,0,0,6.984375,14.2421875,1,0,0,0,32,32,109,1,,,,,,,,
,,,,,,,,,,,,,FF,,,,,,,,6.5162,,,,,,,,,,,,,,,,,,,,,,60fe1bea2504195ce9899d35,610378bde5f42b4bea54f83d,2021-07-29_23h59.06.067,Simcolourproject_2stim_asymm_v5,2020.2.10,MacIntel,60,61025ae37ef11b136ea224fe,,,,,,,,,895,39.54296875,-104.546875,1,0,0,response3disk,,4,19.59765625,-14.26171875,1,0,0,rectangle,-41.83203125,-99.22265625,1,0,0,1.89453125,11.47265625,1,0,0,0,33,33,21,1,,response5disk_3,TRUE,3,3,"[81,314,244,110,85,249,91,120,152,34,2,265,275,167,63,300,95,297,16,32]",2.5901,rectangle
,,,,,,,,,,,,,FF,,,,,,,,7.569,,,,,,,,,,,,,,,,,,,,,,60fe1bea2504195ce9899d35,610378bde5f42b4bea54f83d,2021-07-29_23h59.06.067,Simcolourproject_2stim_asymm_v5,2020.2.10,MacIntel,60,61025ae37ef11b136ea224fe,,,,,,,,,1860,-40.15234375,-83.546875,1,0,0,response5disk,,3,12.2890625,1.83984375,1,0,0,rectangle,12.2890625,1.83984375,1,0,0,12.2890625,1.83984375,1,0,0,0,34,34,91,1,,,,,,,,
,,,,,,,,,,,,,FF,,,,,,,,1367.1198,,,,,,,,,,,,,,,,,,,,,,60fe1bea2504195ce9899d35,610378bde5f42b4bea54f83d,2021-07-29_23h59.06.067,Simcolourproject_2stim_asymm_v5,2020.2.10,MacIntel,60,61025ae37ef11b136ea224fe,,,,,,,,,2611,-33.71875,-98.890625,1,0,0,response5disk,,3,11.28125,-6.2578125,1,0,0,rectangle,11.28125,-6.2578125,1,0,0,11.28125,-6.2578125,1,0,0,0,35,35,54,1,,,,,,,,
,,,,,,,,,,,,,FF,,,,,,,,2.9755,,,,,,,,,,,,,,,,,,,,,,60fe1bea2504195ce9899d35,610378bde5f42b4bea54f83d,2021-07-29_23h59.06.067,Simcolourproject_2stim_asymm_v5,2020.2.10,MacIntel,60,61025ae37ef11b136ea224fe,,,,,,,,,1950,21.17578125,-89.890625,1,0,0,response3disk,,4,2.47265625,-7.14453125,1,0,0,rectangle,2.47265625,-7.14453125,1,0,0,2.47265625,-7.14453125,1,0,0,0,36,36,100,1,,,,,,,,
,,,,,,,,,,,,,FF,,,,,,,,1.2716,,,,,,,,,,,,,,,,,,,,,,60fe1bea2504195ce9899d35,610378bde5f42b4bea54f83d,2021-07-29_23h59.06.067,Simcolourproject_2stim_asymm_v5,2020.2.10,MacIntel,60,61025ae37ef11b136ea224fe,,,,,,,,,2556,34.14453125,-96.4609375,1,0,0,response3disk,,4,-0.98828125,-3.22265625,1,0,0,rectangle,-0.98828125,-3.22265625,1,0,0,-0.98828125,-3.22265625,1,0,0,0,37,37,49,1,,,,,,,,
,,,,,,,,,,,,,FF,,,,,,,,1.9552,,,,,,,,,,,,,,,,,,,,,,60fe1bea2504195ce9899d35,610378bde5f42b4bea54f83d,2021-07-29_23h59.06.067,Simcolourproject_2stim_asymm_v5,2020.2.10,MacIntel,60,61025ae37ef11b136ea224fe,,,,,,,,,2957,57.7734375,30.98046875,1,0,0,response1disk,,6,7.3359375,-5.34375,1,0,0,rectangle,7.3359375,-5.34375,1,0,0,7.3359375,-5.34375,1,0,0,0,38,38,2,1,,,,,,,,
,,,,,,,,,,,,,FF,,,,,,,,1.3551,,,,,,,,,,,,,,,,,,,,,,60fe1bea2504195ce9899d35,610378bde5f42b4bea54f83d,2021-07-29_23h59.06.067,Simcolourproject_2stim_asymm_v5,2020.2.10,MacIntel,60,61025ae37ef11b136ea224fe,,,,,,,,,305,101.09375,-25.84375,1,0,0,response3disk,,5,17.1875,12.0078125,1,0,0,rectangle,17.1875,12.0078125,1,0,0,17.1875,12.0078125,1,0,0,0,39,39,19,1,,,,,,,,
,,,,,,,,,,,,,FF,,,,,,,,2.6558,,,,,,,,,,,,,,,,,,,,,,60fe1bea2504195ce9899d35,610378bde5f42b4bea54f83d,2021-07-29_23h59.06.067,Simcolourproject_2stim_asymm_v5,2020.2.10,MacIntel,60,61025ae37ef11b136ea224fe,,,,,,,,,2051,-35.2421875,-83.8671875,1,0,0,response5disk,,3,-3.3828125,-7.3125,1,0,0,rectangle,-3.3828125,-7.3125,1,0,0,-3.3828125,-7.3125,1,0,0,0,40,40,106,1,,,,,,,,
,,,,,,,,,,,,,FF,,,,,,,,1.3882,,,,,,,,,,,,,,,,,,,,,,60fe1bea2504195ce9899d35,610378bde5f42b4bea54f83d,2021-07-29_23h59.06.067,Simcolourproject_2stim_asymm_v5,2020.2.10,MacIntel,60,61025ae37ef11b136ea224fe,,,,,,,,,2230,-34.15625,-81.35546875,1,0,0,response5disk,,3,-21.15625,-1.8671875,1,0,0,rectangle,-21.15625,-1.8671875,1,0,0,-21.15625,-1.8671875,1,0,0,0,41,41,77,1,,,,,,,,
,,,,,,,,,,,,,FF,,,,,,,,1.0217,,,,,,,,,,,,,,,,,,,,,,60fe1bea2504195ce9899d35,610378bde5f42b4bea54f83d,2021-07-29_23h59.06.067,Simcolourproject_2stim_asymm_v5,2020.2.10,MacIntel,60,61025ae37ef11b136ea224fe,,,,,,,,,3100,-73.41015625,-54.55078125,1,0,0,response5disk,,2,-10.3671875,-0.18359375,1,0,0,rectangle,-10.3671875,-0.18359375,1,0,0,-10.3671875,-0.18359375,1,0,0,0,42,42,133,1,,,,,,,,
,,,,,,,,,,,,,FF,,,,,,,,2.4743,,,,,,,,,,,,,,,,,,,,,,60fe1bea2504195ce9899d35,610378bde5f42b4bea54f83d,2021-07-29_23h59.06.067,Simcolourproject_2stim_asymm_v5,2020.2.10,MacIntel,60,61025ae37ef11b136ea224fe,,,,,,,,,1385,23.359375,-88.3671875,1,0,0,response3disk,,4,-17.58984375,-1.9921875,1,0,0,rectangle,-17.58984375,-1.9921875,1,0,0,-17.58984375,-1.9921875,1,0,0,0,43,43,35,1,,,,,,,,
,,,,,,,,,,,,,FF,,,,,,,,2.0885,,,,,,,,,,,,,,,,,,,,,,60fe1bea2504195ce9899d35,610378bde5f42b4bea54f83d,2021-07-29_23h59.06.067,Simcolourproject_2stim_asymm_v5,2020.2.10,MacIntel,60,61025ae37ef11b136ea224fe,,,,,,,,,2253,33.734375,-73.17578125,1,0,0,response3disk,,4,28.91796875,-7.359375,1,0,0,rectangle,28.91796875,-7.359375,1,0,0,28.91796875,-7.359375,1,0,0,0,44,44,141,1,,,,,,,,
,,,,,,,,,,,,,FF,,,,,,,,1.1676,,,,,,,,,,,,,,,,,,,,,,60fe1bea2504195ce9899d35,610378bde5f42b4bea54f83d,2021-07-29_23h59.06.067,Simcolourproject_2stim_asymm_v5,2020.2.10,MacIntel,60,61025ae37ef11b136ea224fe,,,,,,,,,58,84.89453125,-16.640625,1,0,0,response3disk,,5,-34.91015625,-6.9375,1,0,0,rectangle,-34.91015625,-6.9375,1,0,0,-34.91015625,-6.9375,1,0,0,0,45,45,64,1,,,,,,,,
,,,,,,,,,,,,,FF,,,,,,,,1.0369,,,,,,,,,,,,,,,,,,,,,,60fe1bea2504195ce9899d35,610378bde5f42b4bea54f83d,2021-07-29_23h59.06.067,Simcolourproject_2stim_asymm_v5,2020.2.10,MacIntel,60,61025ae37ef11b136ea224fe,,,,,,,,,3680,-72.73828125,-40.9375,1,0,0,response5disk,,2,-16.5,1.125,1,0,0,rectangle,-16.5,1.125,1,0,0,-16.5,1.125,1,0,0,0,46,46,69,1,,,,,,,,
,,,,,,,,,,,,,FF,,,,,,,,1.6533,,,,,,,,,,,,,,,,,,,,,,60fe1bea2504195ce9899d35,610378bde5f42b4bea54f83d,2021-07-29_23h59.06.067,Simcolourproject_2stim_asymm_v5,2020.2.10,MacIntel,60,61025ae37ef11b136ea224fe,,,,,,,,,499,49.0390625,-25.97265625,1,0,0,response3disk,,5,10.87890625,-5.58984375,1,0,0,rectangle,10.87890625,-5.58984375,1,0,0,10.87890625,-5.58984375,1,0,0,0,47,47,158,1,,,,,,,,
,,,,,,,,,,,,,FF,,,,,,,,1.0331,,,,,,,,,,,,,,,,,,,,,,60fe1bea2504195ce9899d35,610378bde5f42b4bea54f83d,2021-07-29_23h59.06.067,Simcolourproject_2stim_asymm_v5,2020.2.10,MacIntel,60,61025ae37ef11b136ea224fe,,,,,,,,,188,-70.0703125,-44.08203125,1,0,0,response5disk,,2,-13.1875,-4.265625,1,0,0,rectangle,-13.1875,-4.265625,1,0,0,-13.1875,-4.265625,1,0,0,0,48,48,83,1,,,,,,,,
,,,,,,,,,,,,,FF,,,,,,,,1.0827,,,,,,,,,,,,,,,,,,,,,,60fe1bea2504195ce9899d35,610378bde5f42b4bea54f83d,2021-07-29_23h59.06.067,Simcolourproject_2stim_asymm_v5,2020.2.10,MacIntel,60,61025ae37ef11b136ea224fe,,,,,,,,,73,52.5,-76.4140625,1,0,0,response3disk,,4,28.3671875,-10.76953125,1,0,0,rectangle,28.3671875,-10.76953125,1,0,0,28.3671875,-10.76953125,1,0,0,0,49,49,145,1,,,,,,,,
,,,,,,,,,,,,,FF,,,,,,,,0.7366,,,,,,,,,,,,,,,,,,,,,,60fe1bea2504195ce9899d35,610378bde5f42b4bea54f83d,2021-07-29_23h59.06.067,Simcolourproject_2stim_asymm_v5,2020.2.10,MacIntel,60,61025ae37ef11b136ea224fe,,,,,,,,,2983,62.71875,-36.97265625,1,0,0,response3disk,,5,17.37890625,-6.15625,1,0,0,rectangle,17.37890625,-6.15625,1,0,0,17.37890625,-6.15625,1,0,0,0,50,50,121,1,,,,,,,,
,,,,,,,,,,,,,FF,,,,,,,,2.0892,,,,,,,,,,,,,,,,,,,,,,60fe1bea2504195ce9899d35,610378bde5f42b4bea54f83d,2021-07-29_23h59.06.067,Simcolourproject_2stim_asymm_v5,2020.2.10,MacIntel,60,61025ae37ef11b136ea224fe,,,,,,,,,4295,-64.046875,-34.6953125,1,0,0,response5disk,,2,-9.08203125,-3.37109375,1,0,0,rectangle,-9.08203125,-3.37109375,1,0,0,-9.08203125,-3.37109375,1,0,0,0,51,51,102,1,,,,,,,,
,,,,,,,,,,,,,FF,,,,,,,,1.886,,,,,,,,,,,,,,,,,,,,,,60fe1bea2504195ce9899d35,610378bde5f42b4bea54f83d,2021-07-29_23h59.06.067,Simcolourproject_2stim_asymm_v5,2020.2.10,MacIntel,60,61025ae37ef11b136ea224fe,,,,,,,,,2325,39.82421875,48.140625,1,0,0,response1disk,,7,16.109375,3.86328125,1,0,0,rectangle,16.109375,3.86328125,1,0,0,16.109375,3.86328125,1,0,0,0,52,52,88,1,,,,,,,,
,,,,,,,,,,,,,FF,,,,,,,,0.9861,,,,,,,,,,,,,,,,,,,,,,60fe1bea2504195ce9899d35,610378bde5f42b4bea54f83d,2021-07-29_23h59.06.067,Simcolourproject_2stim_asymm_v5,2020.2.10,MacIntel,60,61025ae37ef11b136ea224fe,,,,,,,,,3991,61.92578125,29.06640625,1,0,0,response1disk,,6,21.5703125,-2.61328125,1,0,0,rectangle,21.5703125,-2.61328125,1,0,0,21.5703125,-2.61328125,1,0,0,0,53,53,90,1,,,,,,,,
,,,,,,,,,,,,,FF,,,,,,,,1.6016,,,,,,,,,,,,,,,,,,,,,,60fe1bea2504195ce9899d35,610378bde5f42b4bea54f83d,2021-07-29_23h59.06.067,Simcolourproject_2stim_asymm_v5,2020.2.10,MacIntel,60,61025ae37ef11b136ea224fe,,,,,,,,,3428,-102.7734375,32.33984375,1,0,0,response7disk,,1,-2.89453125,3.12109375,1,0,0,rectangle,-2.89453125,3.12109375,1,0,0,-2.89453125,3.12109375,1,0,0,0,54,54,139,1,,,,,,,,
,,,,,,,,,,,,,FF,,,,,,,,1.805,,,,,,,,,,,,,,,,,,,,,,60fe1bea2504195ce9899d35,610378bde5f42b4bea54f83d,2021-07-29_23h59.06.067,Simcolourproject_2stim_asymm_v5,2020.2.10,MacIntel,60,61025ae37ef11b136ea224fe,,,,,,,,,2720,-104.65625,-20.12109375,1,0,0,response5disk,,2,-20.421875,1.4921875,1,0,0,rectangle,-20.421875,1.4921875,1,0,0,-20.421875,1.4921875,1,0,0,0,55,55,56,1,,,,,,,,
,,,,,,,,,,,,,FF,,,,,,,,1.3331,,,,,,,,,,,,,,,,,,,,,,60fe1bea2504195ce9899d35,610378bde5f42b4bea54f83d,2021-07-29_23h59.06.067,Simcolourproject_2stim_asymm_v5,2020.2.10,MacIntel,60,61025ae37ef11b136ea224fe,,,,,,,,,2717,25.42578125,-57.23046875,1,0,0,response3disk,,4,-9.35546875,-0.91015625,1,0,0,rectangle,-9.35546875,-0.91015625,1,0,0,-9.35546875,-0.91015625,1,0,0,0,56,56,32,1,,,,,,,,
,,,,,,,,,,,,,FF,,,,,,,,162.901,,,,,,,,,,,,,,,,,,,,,,60fe1bea2504195ce9899d35,610378bde5f42b4bea54f83d,2021-07-29_23h59.06.067,Simcolourproject_2stim_asymm_v5,2020.2.10,MacIntel,60,61025ae37ef11b136ea224fe,,,,,,,,,1731,36.85546875,-81.20703125,1,0,0,response3disk,,4,33.6640625,-10.109375,1,0,0,rectangle,33.6640625,-10.109375,1,0,0,33.6640625,-10.109375,1,0,0,0,57,57,115,1,,,,,,,,
,,,,,,,,,,,,,FF,,,,,,,,1.0039,,,,,,,,,,,,,,,,,,,,,,60fe1bea2504195ce9899d35,610378bde5f42b4bea54f83d,2021-07-29_23h59.06.067,Simcolourproject_2stim_asymm_v5,2020.2.10,MacIntel,60,61025ae37ef11b136ea224fe,,,,,,,,,408,-38.65234375,-78.6640625,1,0,0,response5disk,,3,-4.28125,-1.3359375,1,0,0,rectangle,-4.28125,-1.3359375,1,0,0,-4.28125,-1.3359375,1,0,0,0,58,58,48,1,,,,,,,,
,,,,,,,,,,,,,FF,,,,,,,,0.9525,,,,,,,,,,,,,,,,,,,,,,60fe1bea2504195ce9899d35,610378bde5f42b4bea54f83d,2021-07-29_23h59.06.067,Simcolourproject_2stim_asymm_v5,2020.2.10,MacIntel,60,61025ae37ef11b136ea224fe,,,,,,,,,2513,104.0742188,-34.6171875,1,0,0,response3disk,,5,23.25390625,-9.578125,1,0,0,rectangle,23.25390625,-9.578125,1,0,0,23.25390625,-9.578125,1,0,0,0,59,59,20,1,,,,,,,,
,,,,,,,,,,,,,FF,,,,,,,,1.1338,,,,,,,,,,,,,,,,,,,,,,60fe1bea2504195ce9899d35,610378bde5f42b4bea54f83d,2021-07-29_23h59.06.067,Simcolourproject_2stim_asymm_v5,2020.2.10,MacIntel,60,61025ae37ef11b136ea224fe,,,,,,,,,4259,62.59765625,40.30859375,1,0,0,response1disk,,6,-0.26953125,-2.88671875,1,0,0,rectangle,-0.26953125,-2.88671875,1,0,0,-0.26953125,-2.88671875,1,0,0,0,60,60,65,1,,,,,,,,
,,,,,,,,,,,,,FF,,,,,,,,3.7258,,,,,,,,,,,,,,,,,,,,,,60fe1bea2504195ce9899d35,610378bde5f42b4bea54f83d,2021-07-29_23h59.06.067,Simcolourproject_2stim_asymm_v5,2020.2.10,MacIntel,60,61025ae37ef11b136ea224fe,,,,,,,,,2475,-42.9921875,-84.67578125,1,0,0,response5disk,,3,-15.19140625,-14.70703125,1,0,0,rectangle,-15.19140625,-14.70703125,1,0,0,-15.19140625,-14.70703125,1,0,0,0,61,61,130,1,,,,,,,,
,,,,,,,,,,,,,FF,,,,,,,,1.2032,,,,,,,,,,,,,,,,,,,,,,60fe1bea2504195ce9899d35,610378bde5f42b4bea54f83d,2021-07-29_23h59.06.067,Simcolourproject_2stim_asymm_v5,2020.2.10,MacIntel,60,61025ae37ef11b136ea224fe,,,,,,,,,4083,82.51171875,-39.05859375,1,0,0,response3disk,,5,-8.26953125,-7.1796875,1,0,0,rectangle,73.00390625,-30.90625,1,0,0,-3.98828125,-5.4609375,1,0,0,0,62,62,129,1,,response3disk_3,TRUE,5,5,"[81,314,244,110,85,249,91,120,152,34,2,265,275,167,63,300,95,297,16,32]",3.7621,rectangle
,,,,,,,,,,,,,FF,,,,,,,,282.522,,,,,,,,,,,,,,,,,,,,,,60fe1bea2504195ce9899d35,610378bde5f42b4bea54f83d,2021-07-29_23h59.06.067,Simcolourproject_2stim_asymm_v5,2020.2.10,MacIntel,60,61025ae37ef11b136ea224fe,,,,,,,,,4028,-35.796875,-64.33203125,1,0,0,response5disk,,3,-13.94140625,0.45703125,1,0,0,rectangle,-13.94140625,0.45703125,1,0,0,-13.94140625,0.45703125,1,0,0,0,63,63,123,1,,,,,,,,
,,,,,,,,,,,,,FF,,,,,,,,1.7558,,,,,,,,,,,,,,,,,,,,,,60fe1bea2504195ce9899d35,610378bde5f42b4bea54f83d,2021-07-29_23h59.06.067,Simcolourproject_2stim_asymm_v5,2020.2.10,MacIntel,60,61025ae37ef11b136ea224fe,,,,,,,,,162,-54.1953125,-29.69921875,1,0,0,response5disk,,2,-9.91796875,3.203125,1,0,0,rectangle,-9.91796875,3.203125,1,0,0,-9.91796875,3.203125,1,0,0,0,64,64,116,1,,,,,,,,
,,,,,,,,,,,,,FF,,,,,,,,1.6562,,,,,,,,,,,,,,,,,,,,,,60fe1bea2504195ce9899d35,610378bde5f42b4bea54f83d,2021-07-29_23h59.06.067,Simcolourproject_2stim_asymm_v5,2020.2.10,MacIntel,60,61025ae37ef11b136ea224fe,,,,,,,,,484,-73.83984375,-35.81640625,1,0,0,response5disk,,2,-28.30859375,-1.99609375,1,0,0,rectangle,-28.30859375,-1.99609375,1,0,0,-28.30859375,-1.99609375,1,0,0,0,65,65,131,1,,,,,,,,
,,,,,,,,,,,,,FF,,,,,,,,1.6879,,,,,,,,,,,,,,,,,,,,,,60fe1bea2504195ce9899d35,610378bde5f42b4bea54f83d,2021-07-29_23h59.06.067,Simcolourproject_2stim_asymm_v5,2020.2.10,MacIntel,60,61025ae37ef11b136ea224fe,,,,,,,,,3361,89.03515625,38.7734375,1,0,0,response1disk,,6,25.3203125,7.875,1,0,0,rectangle,25.3203125,7.875,1,0,0,25.3203125,7.875,1,0,0,0,66,66,11,1,,,,,,,,
,,,,,,,,,,,,,FF,,,,,,,,1.0371,,,,,,,,,,,,,,,,,,,,,,60fe1bea2504195ce9899d35,610378bde5f42b4bea54f83d,2021-07-29_23h59.06.067,Simcolourproject_2stim_asymm_v5,2020.2.10,MacIntel,60,61025ae37ef11b136ea224fe,,,,,,,,,3548,71.49609375,-102.1289063,1,0,0,response3disk,,4,-13.171875,1.18359375,1,0,0,rectangle,-13.171875,1.18359375,1,0,0,-13.171875,1.18359375,1,0,0,0,67,67,76,1,,,,,,,,
,,,,,,,,,,,,,FF,,,,,,,,0.9692,,,,,,,,,,,,,,,,,,,,,,60fe1bea2504195ce9899d35,610378bde5f42b4bea54f83d,2021-07-29_23h59.06.067,Simcolourproject_2stim_asymm_v5,2020.2.10,MacIntel,60,61025ae37ef11b136ea224fe,,,,,,,,,2800,72.83203125,58.97265625,1,0,0,response1disk,,6,17.9296875,10.3203125,1,0,0,rectangle,17.9296875,10.3203125,1,0,0,17.9296875,10.3203125,1,0,0,0,68,68,36,1,,,,,,,,
,,,,,,,,,,,,,FF,,,,,,,,0.9187,,,,,,,,,,,,,,,,,,,,,,60fe1bea2504195ce9899d35,610378bde5f42b4bea54f83d,2021-07-29_23h59.06.067,Simcolourproject_2stim_asymm_v5,2020.2.10,MacIntel,60,61025ae37ef11b136ea224fe,,,,,,,,,2573,103.8867188,75.3984375,1,0,0,response1disk,,6,34.71484375,15.03515625,1,0,0,rectangle,34.71484375,15.03515625,1,0,0,34.71484375,15.03515625,1,0,0,0,69,69,42,1,,,,,,,,
,,,,,,,,,,,,,FF,,,,,,,,1.2195,,,,,,,,,,,,,,,,,,,,,,60fe1bea2504195ce9899d35,610378bde5f42b4bea54f83d,2021-07-29_23h59.06.067,Simcolourproject_2stim_asymm_v5,2020.2.10,MacIntel,60,61025ae37ef11b136ea224fe,,,,,,,,,3046,-69.0390625,35.0078125,1,0,0,response7disk,,1,-25.421875,-1.3359375,1,0,0,rectangle,-25.421875,-1.3359375,1,0,0,-25.421875,-1.3359375,1,0,0,0,70,70,153,1,,,,,,,,
,,,,,,,,,,,,,FF,,,,,,,,0.9189,,,,,,,,,,,,,,,,,,,,,,60fe1bea2504195ce9899d35,610378bde5f42b4bea54f83d,2021-07-29_23h59.06.067,Simcolourproject_2stim_asymm_v5,2020.2.10,MacIntel,60,61025ae37ef11b136ea224fe,,,,,,,,,1997,36.4453125,69.94140625,1,0,0,response1disk,,7,-1.52734375,11.05859375,1,0,0,rectangle,-1.52734375,11.05859375,1,0,0,-1.52734375,11.05859375,1,0,0,0,71,71,28,1,,,,,,,,
,,,,,,,,,,,,,FF,,,,,,,,1.4379,,,,,,,,,,,,,,,,,,,,,,60fe1bea2504195ce9899d35,610378bde5f42b4bea54f83d,2021-07-29_23h59.06.067,Simcolourproject_2stim_asymm_v5,2020.2.10,MacIntel,60,61025ae37ef11b136ea224fe,,,,,,,,,2063,122.4257813,47.421875,1,0,0,response1disk,,6,28.375,12.6875,1,0,0,rectangle,28.375,12.6875,1,0,0,28.375,12.6875,1,0,0,0,72,72,7,1,,,,,,,,
,,,,,,,,,,,,,FF,,,,,,,,0.8851,,,,,,,,,,,,,,,,,,,,,,60fe1bea2504195ce9899d35,610378bde5f42b4bea54f83d,2021-07-29_23h59.06.067,Simcolourproject_2stim_asymm_v5,2020.2.10,MacIntel,60,61025ae37ef11b136ea224fe,,,,,,,,,94,-23.40625,76.49609375,1,0,0,response7disk,,0,-11.7578125,13.49609375,1,0,0,rectangle,-11.7578125,13.49609375,1,0,0,-11.7578125,13.49609375,1,0,0,0,73,73,40,1,,,,,,,,
,,,,,,,,,,,,,FF,,,,,,,,1.6717,,,,,,,,,,,,,,,,,,,,,,60fe1bea2504195ce9899d35,610378bde5f42b4bea54f83d,2021-07-29_23h59.06.067,Simcolourproject_2stim_asymm_v5,2020.2.10,MacIntel,60,61025ae37ef11b136ea224fe,,,,,,,,,4251,-42.765625,100.78125,1,0,0,response7disk,,0,-3.6875,-2.49609375,1,0,0,rectangle,-3.6875,-2.49609375,1,0,0,-3.6875,-2.49609375,1,0,0,0,74,74,66,1,,,,,,,,
,,,,,,,,,,,,,FF,,,,,,,,1.3372,,,,,,,,,,,,,,,,,,,,,,60fe1bea2504195ce9899d35,610378bde5f42b4bea54f83d,2021-07-29_23h59.06.067,Simcolourproject_2stim_asymm_v5,2020.2.10,MacIntel,60,61025ae37ef11b136ea224fe,,,,,,,,,3636,-40.73046875,-59.70703125,1,0,0,response5disk,,3,-22.73828125,-10.7890625,1,0,0,rectangle,-22.73828125,-10.7890625,1,0,0,-22.73828125,-10.7890625,1,0,0,0,75,75,67,1,,,,,,,,
,,,,,,,,,,,,,FF,,,,,,,,1.1866,,,,,,,,,,,,,,,,,,,,,,60fe1bea2504195ce9899d35,610378bde5f42b4bea54f83d,2021-07-29_23h59.06.067,Simcolourproject_2stim_asymm_v5,2020.2.10,MacIntel,60,61025ae37ef11b136ea224fe,,,,,,,,,1525,61.61328125,-35.18359375,1,0,0,response3disk,,5,16.48828125,-12.73828125,1,0,0,rectangle,16.48828125,-12.73828125,1,0,0,16.48828125,-12.73828125,1,0,0,0,76,76,117,1,,,,,,,,
,,,,,,,,,,,,,FF,,,,,,,,0.7688,,,,,,,,,,,,,,,,,,,,,,60fe1bea2504195ce9899d35,610378bde5f42b4bea54f83d,2021-07-29_23h59.06.067,Simcolourproject_2stim_asymm_v5,2020.2.10,MacIntel,60,61025ae37ef11b136ea224fe,,,,,,,,,331,91.9296875,51.69140625,1,0,0,response1disk,,6,16.60546875,6.94140625,1,0,0,rectangle,16.60546875,6.94140625,1,0,0,16.60546875,6.94140625,1,0,0,0,77,77,81,1,,,,,,,,
,,,,,,,,,,,,,FF,,,,,,,,0.7686,,,,,,,,,,,,,,,,,,,,,,60fe1bea2504195ce9899d35,610378bde5f42b4bea54f83d,2021-07-29_23h59.06.067,Simcolourproject_2stim_asymm_v5,2020.2.10,MacIntel,60,61025ae37ef11b136ea224fe,,,,,,,,,3397,35.6484375,-67.34765625,1,0,0,response3disk,,4,6.375,-7.71484375,1,0,0,rectangle,6.375,-7.71484375,1,0,0,6.375,-7.71484375,1,0,0,0,78,78,22,1,,,,,,,,
,,,,,,,,,,,,,FF,,,,,,,,0.8372,,,,,,,,,,,,,,,,,,,,,,60fe1bea2504195ce9899d35,610378bde5f42b4bea54f83d,2021-07-29_23h59.06.067,Simcolourproject_2stim_asymm_v5,2020.2.10,MacIntel,60,61025ae37ef11b136ea224fe,,,,,,,,,3787,99.32421875,-26.125,1,0,0,response3disk,,5,17.171875,-14.73046875,1,0,0,rectangle,17.171875,-14.73046875,1,0,0,17.171875,-14.73046875,1,0,0,0,79,79,72,1,,,,,,,,
,,,,,,,,,,,,,FF,,,,,,,,0.8533,,,,,,,,,,,,,,,,,,,,,,60fe1bea2504195ce9899d35,610378bde5f42b4bea54f83d,2021-07-29_23h59.06.067,Simcolourproject_2stim_asymm_v5,2020.2.10,MacIntel,60,61025ae37ef11b136ea224fe,,,,,,,,,2359,45.8046875,-97.453125,1,0,0,response3disk,,4,9.390625,3.53515625,1,0,0,rectangle,-91.98046875,34.60546875,1,0,0,21.5546875,8.16015625,1,0,0,0,80,80,92,1,,response7disk_3,TRUE,1,1,"[81,314,244,110,85,249,91,120,152,34,2,265,275,167,63,300,95,297,16,32]",1.772,rectangle
,,,,,,,,,,,,,FF,,,,,,,,1.2519,,,,,,,,,,,,,,,,,,,,,,60fe1bea2504195ce9899d35,610378bde5f42b4bea54f83d,2021-07-29_23h59.06.067,Simcolourproject_2stim_asymm_v5,2020.2.10,MacIntel,60,61025ae37ef11b136ea224fe,,,,,,,,,1380,74.53515625,-19.87890625,1,0,0,response3disk,,5,17.43359375,-17.47265625,1,0,0,rectangle,17.43359375,-17.47265625,1,0,0,17.43359375,-17.47265625,1,0,0,0,81,81,103,1,,,,,,,,
,,,,,,,,,,,,,FF,,,,,,,,26.0173,,,,,,,,,,,,,,,,,,,,,,60fe1bea2504195ce9899d35,610378bde5f42b4bea54f83d,2021-07-29_23h59.06.067,Simcolourproject_2stim_asymm_v5,2020.2.10,MacIntel,60,61025ae37ef11b136ea224fe,,,,,,,,,1050,-57.36328125,-100.625,1,0,0,response5disk,,3,-17.7890625,-2.0234375,1,0,0,rectangle,-17.7890625,-2.0234375,1,0,0,-17.7890625,-2.0234375,1,0,0,0,82,82,5,1,,,,,,,,
,,,,,,,,,,,,,FF,,,,,,,,55.1625,,,,,,,,,,,,,,,,,,,,,,60fe1bea2504195ce9899d35,610378bde5f42b4bea54f83d,2021-07-29_23h59.06.067,Simcolourproject_2stim_asymm_v5,2020.2.10,MacIntel,60,61025ae37ef11b136ea224fe,,,,,,,,,1705,-30.63671875,-73.06640625,1,0,0,response5disk,,3,-22.51171875,0.6640625,1,0,0,rectangle,-22.51171875,0.6640625,1,0,0,-22.51171875,0.6640625,1,0,0,0,83,83,6,1,,,,,,,,
,,,,,,,,,,,,,FF,,,,,,,,0.7356,,,,,,,,,,,,,,,,,,,,,,60fe1bea2504195ce9899d35,610378bde5f42b4bea54f83d,2021-07-29_23h59.06.067,Simcolourproject_2stim_asymm_v5,2020.2.10,MacIntel,60,61025ae37ef11b136ea224fe,,,,,,,,,726,-49.390625,-65.14453125,1,0,0,response5disk,,3,-14.52734375,14.30859375,1,0,0,rectangle,115.8125,46.30859375,1,0,0,6.1328125,-2.60546875,1,0,0,0,84,84,114,1,,response1disk_3,TRUE,6,6,"[81,314,244,110,85,249,91,120,152,34,2,265,275,167,63,300,95,297,16,32]",1.3853,rectangle
,,,,,,,,,,,,,FF,,,,,,,,0.8839,,,,,,,,,,,,,,,,,,,,,,60fe1bea2504195ce9899d35,610378bde5f42b4bea54f83d,2021-07-29_23h59.06.067,Simcolourproject_2stim_asymm_v5,2020.2.10,MacIntel,60,61025ae37ef11b136ea224fe,,,,,,,,,4317,74.41015625,45.1796875,1,0,0,response1disk,,6,-2.43359375,-17.95703125,1,0,0,rectangle,-2.43359375,-17.95703125,1,0,0,-2.43359375,-17.95703125,1,0,0,0,85,85,58,1,,,,,,,,
,,,,,,,,,,,,,FF,,,,,,,,0.7834,,,,,,,,,,,,,,,,,,,,,,60fe1bea2504195ce9899d35,610378bde5f42b4bea54f83d,2021-07-29_23h59.06.067,Simcolourproject_2stim_asymm_v5,2020.2.10,MacIntel,60,61025ae37ef11b136ea224fe,,,,,,,,,998,75.90625,-15.640625,1,0,0,response3disk,,5,6.77734375,-4.53125,1,0,0,rectangle,6.77734375,-4.53125,1,0,0,6.77734375,-4.53125,1,0,0,0,86,86,134,1,,,,,,,,
,,,,,,,,,,,,,FF,,,,,,,,0.9708,,,,,,,,,,,,,,,,,,,,,,60fe1bea2504195ce9899d35,610378bde5f42b4bea54f83d,2021-07-29_23h59.06.067,Simcolourproject_2stim_asymm_v5,2020.2.10,MacIntel,60,61025ae37ef11b136ea224fe,,,,,,,,,2974,36.48828125,84.2421875,1,0,0,response1disk,,7,10.72265625,7.77734375,1,0,0,rectangle,10.72265625,7.77734375,1,0,0,10.72265625,7.77734375,1,0,0,0,87,87,99,1,,,,,,,,
,,,,,,,,,,,,,FF,,,,,,,,1.2186,,,,,,,,,,,,,,,,,,,,,,60fe1bea2504195ce9899d35,610378bde5f42b4bea54f83d,2021-07-29_23h59.06.067,Simcolourproject_2stim_asymm_v5,2020.2.10,MacIntel,60,61025ae37ef11b136ea224fe,,,,,,,,,74,30.62890625,-101.6914063,1,0,0,response3disk,,4,10.390625,-13.125,1,0,0,rectangle,10.390625,-13.125,1,0,0,10.390625,-13.125,1,0,0,0,88,88,135,1,,,,,,,,
,,,,,,,,,,,,,FF,,,,,,,,0.8358,,,,,,,,,,,,,,,,,,,,,,60fe1bea2504195ce9899d35,610378bde5f42b4bea54f83d,2021-07-29_23h59.06.067,Simcolourproject_2stim_asymm_v5,2020.2.10,MacIntel,60,61025ae37ef11b136ea224fe,,,,,,,,,3873,95.30078125,72.29296875,1,0,0,response1disk,,6,9.33984375,-7.2734375,1,0,0,rectangle,9.33984375,-7.2734375,1,0,0,9.33984375,-7.2734375,1,0,0,0,89,89,12,1,,,,,,,,
,,,,,,,,,,,,,FF,,,,,,,,0.735,,,,,,,,,,,,,,,,,,,,,,60fe1bea2504195ce9899d35,610378bde5f42b4bea54f83d,2021-07-29_23h59.06.067,Simcolourproject_2stim_asymm_v5,2020.2.10,MacIntel,60,61025ae37ef11b136ea224fe,,,,,,,,,1697,76.26953125,-22.64453125,1,0,0,response3disk,,5,15.66015625,13.37890625,1,0,0,rectangle,109.5625,66.9296875,1,0,0,1.16796875,-7.375,1,0,0,0,90,90,125,1,,response1disk_3,TRUE,6,5,"[81,314,244,110,85,249,91,120,152,34,2,265,275,167,63,300,95,297,16,32]",1.2696,rectangle
,,,,,,,,,,,,,FF,,,,,,,,1.0699,,,,,,,,,,,,,,,,,,,,,,60fe1bea2504195ce9899d35,610378bde5f42b4bea54f83d,2021-07-29_23h59.06.067,Simcolourproject_2stim_asymm_v5,2020.2.10,MacIntel,60,61025ae37ef11b136ea224fe,,,,,,,,,1817,-102.6835938,-31.64453125,1,0,0,response5disk,,2,-34.109375,-14.875,1,0,0,rectangle,-34.109375,-14.875,1,0,0,-34.109375,-14.875,1,0,0,0,91,91,55,1,,,,,,,,
,,,,,,,,,,,,,FF,,,,,,,,0.7689,,,,,,,,,,,,,,,,,,,,,,60fe1bea2504195ce9899d35,610378bde5f42b4bea54f83d,2021-07-29_23h59.06.067,Simcolourproject_2stim_asymm_v5,2020.2.10,MacIntel,60,61025ae37ef11b136ea224fe,,,,,,,,,1334,99.375,-68.11328125,1,0,0,response3disk,,5,12.18359375,2.71484375,1,0,0,rectangle,12.18359375,2.71484375,1,0,0,12.18359375,2.71484375,1,0,0,0,92,92,33,1,,,,,,,,
,,,,,,,,,,,,,FF,,,,,,,,0.8338,,,,,,,,,,,,,,,,,,,,,,60fe1bea2504195ce9899d35,610378bde5f42b4bea54f83d,2021-07-29_23h59.06.067,Simcolourproject_2stim_asymm_v5,2020.2.10,MacIntel,60,61025ae37ef11b136ea224fe,,,,,,,,,1384,-46.39453125,-103.0507813,1,0,0,response5disk,,3,-6.37109375,2.6953125,1,0,0,rectangle,-6.37109375,2.6953125,1,0,0,-6.37109375,2.6953125,1,0,0,0,93,93,31,1,,,,,,,,
,,,,,,,,,,,,,FF,,,,,,,,2.5722,,,,,,,,,,,,,,,,,,,,,,60fe1bea2504195ce9899d35,610378bde5f42b4bea54f83d,2021-07-29_23h59.06.067,Simcolourproject_2stim_asymm_v5,2020.2.10,MacIntel,60,61025ae37ef11b136ea224fe,,,,,,,,,759,113.7109375,52.2578125,1,0,0,response1disk,,6,-5.65625,0.5078125,1,0,0,rectangle,-44.02734375,99.4375,1,0,0,-15.66796875,-4.0078125,1,0,0,0,94,94,150,1,,response7disk_3,TRUE,0,0,"[81,314,244,110,85,249,91,120,152,34,2,265,275,167,63,300,95,297,16,32]",2.104,rectangle
,,,,,,,,,,,,,FF,,,,,,,,0.8208,,,,,,,,,,,,,,,,,,,,,,60fe1bea2504195ce9899d35,610378bde5f42b4bea54f83d,2021-07-29_23h59.06.067,Simcolourproject_2stim_asymm_v5,2020.2.10,MacIntel,60,61025ae37ef11b136ea224fe,,,,,,,,,3480,-33.984375,-96.39453125,1,0,0,response5disk,,3,-24.40234375,-11.05078125,1,0,0,rectangle,-24.40234375,-11.05078125,1,0,0,-24.40234375,-11.05078125,1,0,0,0,95,95,80,1,,,,,,,,
,,,,,,,,,,,,,FF,,,,,,,,1.0873,,,,,,,,,,,,,,,,,,,,,,60fe1bea2504195ce9899d35,610378bde5f42b4bea54f83d,2021-07-29_23h59.06.067,Simcolourproject_2stim_asymm_v5,2020.2.10,MacIntel,60,61025ae37ef11b136ea224fe,,,,,,,,,2480,-48.43359375,93.515625,1,0,0,response7disk,,0,-12.375,2.0234375,1,0,0,rectangle,-12.375,2.0234375,1,0,0,-12.375,2.0234375,1,0,0,0,96,96,110,1,,,,,,,,
,,,,,,,,,,,,,FF,,,,,,,,0.9029,,,,,,,,,,,,,,,,,,,,,,60fe1bea2504195ce9899d35,610378bde5f42b4bea54f83d,2021-07-29_23h59.06.067,Simcolourproject_2stim_asymm_v5,2020.2.10,MacIntel,60,61025ae37ef11b136ea224fe,,,,,,,,,1104,89.08203125,-34.4453125,1,0,0,response3disk,,5,8.08984375,-7.63671875,1,0,0,rectangle,8.08984375,-7.63671875,1,0,0,8.08984375,-7.63671875,1,0,0,0,97,97,1,1,,,,,,,,
,,,,,,,,,,,,,FF,,,,,,,,0.7876,,,,,,,,,,,,,,,,,,,,,,60fe1bea2504195ce9899d35,610378bde5f42b4bea54f83d,2021-07-29_23h59.06.067,Simcolourproject_2stim_asymm_v5,2020.2.10,MacIntel,60,61025ae37ef11b136ea224fe,,,,,,,,,2097,-28.90234375,-115.0585938,1,0,0,response5disk,,3,8.1875,2.89453125,1,0,0,rectangle,8.1875,2.89453125,1,0,0,8.1875,2.89453125,1,0,0,0,98,98,154,1,,,,,,,,
,,,,,,,,,,,,,FF,,,,,,,,0.9341,,,,,,,,,,,,,,,,,,,,,,60fe1bea2504195ce9899d35,610378bde5f42b4bea54f83d,2021-07-29_23h59.06.067,Simcolourproject_2stim_asymm_v5,2020.2.10,MacIntel,60,61025ae37ef11b136ea224fe,,,,,,,,,1877,87.9375,34.7421875,1,0,0,response1disk,,6,13.49609375,11.1328125,1,0,0,rectangle,13.49609375,11.1328125,1,0,0,13.49609375,11.1328125,1,0,0,0,99,99,108,1,,,,,,,,
,,,,,,,,,,,,,FF,,,,,,,,0.835,,,,,,,,,,,,,,,,,,,,,,60fe1bea2504195ce9899d35,610378bde5f42b4bea54f83d,2021-07-29_23h59.06.067,Simcolourproject_2stim_asymm_v5,2020.2.10,MacIntel,60,61025ae37ef11b136ea224fe,,,,,,,,,647,31.703125,-84.328125,1,0,0,response3disk,,4,11.76171875,-9.1640625,1,0,0,rectangle,11.76171875,-9.1640625,1,0,0,11.76171875,-9.1640625,1,0,0,0,100,100,159,1,,,,,,,,
,,,,,,,,,,,,,FF,,,,,,,,0.7547,,,,,,,,,,,,,,,,,,,,,,60fe1bea2504195ce9899d35,610378bde5f42b4bea54f83d,2021-07-29_23h59.06.067,Simcolourproject_2stim_asymm_v5,2020.2.10,MacIntel,60,61025ae37ef11b136ea224fe,,,,,,,,,3859,87.43359375,47.57421875,1,0,0,response1disk,,6,8.9140625,-1.4375,1,0,0,rectangle,8.9140625,-1.4375,1,0,0,8.9140625,-1.4375,1,0,0,0,101,101,37,1,,,,,,,,
,,,,,,,,,,,,,FF,,,,,,,,1.0535,,,,,,,,,,,,,,,,,,,,,,60fe1bea2504195ce9899d35,610378bde5f42b4bea54f83d,2021-07-29_23h59.06.067,Simcolourproject_2stim_asymm_v5,2020.2.10,MacIntel,60,61025ae37ef11b136ea224fe,,,,,,,,,3800,48.82421875,98.96875,1,0,0,response1disk,,7,7.75,1.63671875,1,0,0,rectangle,7.75,1.63671875,1,0,0,7.75,1.63671875,1,0,0,0,102,102,89,1,,,,,,,,
,,,,,,,,,,,,,FF,,,,,,,,0.6832,,,,,,,,,,,,,,,,,,,,,,60fe1bea2504195ce9899d35,610378bde5f42b4bea54f83d,2021-07-29_23h59.06.067,Simcolourproject_2stim_asymm_v5,2020.2.10,MacIntel,60,61025ae37ef11b136ea224fe,,,,,,,,,3336,-47.62890625,90.734375,1,0,0,response7disk,,0,-6.0703125,2.73828125,1,0,0,rectangle,-6.0703125,2.73828125,1,0,0,-6.0703125,2.73828125,1,0,0,0,103,103,120,1,,,,,,,,
,,,,,,,,,,,,,FF,,,,,,,,0.9887,,,,,,,,,,,,,,,,,,,,,,60fe1bea2504195ce9899d35,610378bde5f42b4bea54f83d,2021-07-29_23h59.06.067,Simcolourproject_2stim_asymm_v5,2020.2.10,MacIntel,60,61025ae37ef11b136ea224fe,,,,,,,,,1624,35.203125,-63.48828125,1,0,0,response3disk,,4,13.75,10.48828125,1,0,0,rectangle,13.75,10.48828125,1,0,0,13.75,10.48828125,1,0,0,0,104,104,146,1,,,,,,,,
,,,,,,,,,,,,,FF,,,,,,,,0.87,,,,,,,,,,,,,,,,,,,,,,60fe1bea2504195ce9899d35,610378bde5f42b4bea54f83d,2021-07-29_23h59.06.067,Simcolourproject_2stim_asymm_v5,2020.2.10,MacIntel,60,61025ae37ef11b136ea224fe,,,,,,,,,3564,93.32421875,-42.046875,1,0,0,response3disk,,5,35.2578125,-1.2421875,1,0,0,rectangle,35.2578125,-1.2421875,1,0,0,35.2578125,-1.2421875,1,0,0,0,105,105,132,1,,,,,,,,
,,,,,,,,,,,,,FF,,,,,,,,1.8553,,,,,,,,,,,,,,,,,,,,,,60fe1bea2504195ce9899d35,610378bde5f42b4bea54f83d,2021-07-29_23h59.06.067,Simcolourproject_2stim_asymm_v5,2020.2.10,MacIntel,60,61025ae37ef11b136ea224fe,,,,,,,,,2483,-48.95703125,-79.76171875,1,0,0,response5disk,,3,-21.34765625,-13.81640625,1,0,0,rectangle,-21.34765625,-13.81640625,1,0,0,-21.34765625,-13.81640625,1,0,0,0,106,106,73,1,,,,,,,,
,,,,,,,,,,,,,FF,,,,,,,,2.5574,,,,,,,,,,,,,,,,,,,,,,60fe1bea2504195ce9899d35,610378bde5f42b4bea54f83d,2021-07-29_23h59.06.067,Simcolourproject_2stim_asymm_v5,2020.2.10,MacIntel,60,61025ae37ef11b136ea224fe,,,,,,,,,2155,31.33203125,92.77734375,1,0,0,response1disk,,7,-6.28515625,5.76953125,1,0,0,rectangle,-6.28515625,5.76953125,1,0,0,-6.28515625,5.76953125,1,0,0,0,107,107,127,1,,,,,,,,
,,,,,,,,,,,,,FF,,,,,,,,1.0375,,,,,,,,,,,,,,,,,,,,,,60fe1bea2504195ce9899d35,610378bde5f42b4bea54f83d,2021-07-29_23h59.06.067,Simcolourproject_2stim_asymm_v5,2020.2.10,MacIntel,60,61025ae37ef11b136ea224fe,,,,,,,,,2875,79.29296875,40.66796875,1,0,0,response1disk,,6,20.09375,-2.08984375,1,0,0,rectangle,20.09375,-2.08984375,1,0,0,20.09375,-2.08984375,1,0,0,0,108,108,0,1,,,,,,,,
,,,,,,,,,,,,,FF,,,,,,,,1.8038,,,,,,,,,,,,,,,,,,,,,,60fe1bea2504195ce9899d35,610378bde5f42b4bea54f83d,2021-07-29_23h59.06.067,Simcolourproject_2stim_asymm_v5,2020.2.10,MacIntel,60,61025ae37ef11b136ea224fe,,,,,,,,,1027,65.74609375,-111.2109375,1,0,0,response3disk,,4,9.921875,17.203125,1,0,0,rectangle,49.13671875,-84.9140625,1,0,0,6.8125,6.40234375,1,0,0,0,109,109,23,1,,response3disk_3,TRUE,4,4,"[81,314,244,110,85,249,91,120,152,34,2,265,275,167,63,300,95,297,16,32]",1.8554,rectangle
,,,,,,,,,,,,,FF,,,,,,,,0.7696,,,,,,,,,,,,,,,,,,,,,,60fe1bea2504195ce9899d35,610378bde5f42b4bea54f83d,2021-07-29_23h59.06.067,Simcolourproject_2stim_asymm_v5,2020.2.10,MacIntel,60,61025ae37ef11b136ea224fe,,,,,,,,,4290,63.83203125,93.171875,1,0,0,response1disk,,7,1.546875,4.5390625,1,0,0,rectangle,1.546875,4.5390625,1,0,0,1.546875,4.5390625,1,0,0,0,110,110,75,1,,,,,,,,
,,,,,,,,,,,,,FF,,,,,,,,0.7022,,,,,,,,,,,,,,,,,,,,,,60fe1bea2504195ce9899d35,610378bde5f42b4bea54f83d,2021-07-29_23h59.06.067,Simcolourproject_2stim_asymm_v5,2020.2.10,MacIntel,60,61025ae37ef11b136ea224fe,,,,,,,,,1740,39.3125,62.75,1,0,0,response1disk,,7,21.3125,11.49609375,1,0,0,rectangle,21.3125,11.49609375,1,0,0,21.3125,11.49609375,1,0,0,0,111,111,136,1,,,,,,,,
,,,,,,,,,,,,,FF,,,,,,,,65.0066,,,,,,,,,,,,,,,,,,,,,,60fe1bea2504195ce9899d35,610378bde5f42b4bea54f83d,2021-07-29_23h59.06.067,Simcolourproject_2stim_asymm_v5,2020.2.10,MacIntel,60,61025ae37ef11b136ea224fe,,,,,,,,,1649,54.296875,-104.4414063,1,0,0,response3disk,,4,10.8984375,8.53515625,1,0,0,rectangle,10.8984375,8.53515625,1,0,0,10.8984375,8.53515625,1,0,0,0,112,112,144,1,,,,,,,,
,,,,,,,,,,,,,FF,,,,,,,,0.8194,,,,,,,,,,,,,,,,,,,,,,60fe1bea2504195ce9899d35,610378bde5f42b4bea54f83d,2021-07-29_23h59.06.067,Simcolourproject_2stim_asymm_v5,2020.2.10,MacIntel,60,61025ae37ef11b136ea224fe,,,,,,,,,1333,57.98046875,-31.01953125,1,0,0,response3disk,,5,25.8046875,12.0625,1,0,0,rectangle,25.8046875,12.0625,1,0,0,25.8046875,12.0625,1,0,0,0,113,113,85,1,,,,,,,,
,,,,,,,,,,,,,FF,,,,,,,,0.804,,,,,,,,,,,,,,,,,,,,,,60fe1bea2504195ce9899d35,610378bde5f42b4bea54f83d,2021-07-29_23h59.06.067,Simcolourproject_2stim_asymm_v5,2020.2.10,MacIntel,60,61025ae37ef11b136ea224fe,,,,,,,,,2035,-31.1484375,-55.33984375,1,0,0,response5disk,,3,-13.9453125,-0.51953125,1,0,0,rectangle,-13.9453125,-0.51953125,1,0,0,-13.9453125,-0.51953125,1,0,0,0,114,114,126,1,,,,,,,,
,,,,,,,,,,,,,FF,,,,,,,,3.4421,,,,,,,,,,,,,,,,,,,,,,60fe1bea2504195ce9899d35,610378bde5f42b4bea54f83d,2021-07-29_23h59.06.067,Simcolourproject_2stim_asymm_v5,2020.2.10,MacIntel,60,61025ae37ef11b136ea224fe,,,,,,,,,1510,103.4257813,52.6484375,1,0,0,response1disk,,6,6.80078125,0.125,1,0,0,rectangle,6.80078125,0.125,1,0,0,6.80078125,0.125,1,0,0,0,115,115,68,1,,,,,,,,
,,,,,,,,,,,,,FF,,,,,,,,1.071,,,,,,,,,,,,,,,,,,,,,,60fe1bea2504195ce9899d35,610378bde5f42b4bea54f83d,2021-07-29_23h59.06.067,Simcolourproject_2stim_asymm_v5,2020.2.10,MacIntel,60,61025ae37ef11b136ea224fe,,,,,,,,,1020,21.66015625,73.85546875,1,0,0,response1disk,,7,16.0390625,5.99609375,1,0,0,rectangle,16.0390625,5.99609375,1,0,0,16.0390625,5.99609375,1,0,0,0,116,116,107,1,,,,,,,,
,,,,,,,,,,,,,FF,,,,,,,,0.6199,,,,,,,,,,,,,,,,,,,,,,60fe1bea2504195ce9899d35,610378bde5f42b4bea54f83d,2021-07-29_23h59.06.067,Simcolourproject_2stim_asymm_v5,2020.2.10,MacIntel,60,61025ae37ef11b136ea224fe,,,,,,,,,2213,87.9140625,-34.82421875,1,0,0,response3disk,,5,14.7421875,-2.046875,1,0,0,rectangle,14.7421875,-2.046875,1,0,0,14.7421875,-2.046875,1,0,0,0,117,117,148,1,,,,,,,,
,,,,,,,,,,,,,FF,,,,,,,,0.9703,,,,,,,,,,,,,,,,,,,,,,60fe1bea2504195ce9899d35,610378bde5f42b4bea54f83d,2021-07-29_23h59.06.067,Simcolourproject_2stim_asymm_v5,2020.2.10,MacIntel,60,61025ae37ef11b136ea224fe,,,,,,,,,777,93.0546875,17.24609375,1,0,0,response1disk,,6,-11.82421875,-15.62109375,1,0,0,rectangle,-11.82421875,-15.62109375,1,0,0,-11.82421875,-15.62109375,1,0,0,0,118,118,62,1,,,,,,,,
,,,,,,,,,,,,,FF,,,,,,,,1.2372,,,,,,,,,,,,,,,,,,,,,,60fe1bea2504195ce9899d35,610378bde5f42b4bea54f83d,2021-07-29_23h59.06.067,Simcolourproject_2stim_asymm_v5,2020.2.10,MacIntel,60,61025ae37ef11b136ea224fe,,,,,,,,,2366,-58.64453125,-97.91015625,1,0,0,response5disk,,3,-14.69921875,8.5859375,1,0,0,rectangle,31.6328125,-97.3046875,1,0,0,12.80078125,-5.28515625,1,0,0,0,119,119,3,1,,response3disk_3,TRUE,4,4,"[81,314,244,110,85,249,91,120,152,34,2,265,275,167,63,300,95,297,16,32]",1.6549,rectangle
,,,,,,,,,,,,,FF,,,,,,,,1.5544,,,,,,,,,,,,,,,,,,,,,,60fe1bea2504195ce9899d35,610378bde5f42b4bea54f83d,2021-07-29_23h59.06.067,Simcolourproject_2stim_asymm_v5,2020.2.10,MacIntel,60,61025ae37ef11b136ea224fe,,,,,,,,,3383,-65.90234375,36.27734375,1,0,0,response7disk,,1,-32.45703125,14.8515625,1,0,0,rectangle,-32.45703125,14.8515625,1,0,0,-32.45703125,14.8515625,1,0,0,0,120,120,112,1,,,,,,,,
,,,,,,,,,,,,,FF,,,,,,,,0.8017,,,,,,,,,,,,,,,,,,,,,,60fe1bea2504195ce9899d35,610378bde5f42b4bea54f83d,2021-07-29_23h59.06.067,Simcolourproject_2stim_asymm_v5,2020.2.10,MacIntel,60,61025ae37ef11b136ea224fe,,,,,,,,,4140,-33.69140625,101.09375,1,0,0,response7disk,,0,-4.8046875,-12.16796875,1,0,0,rectangle,-4.8046875,-12.16796875,1,0,0,-4.8046875,-12.16796875,1,0,0,0,121,121,43,1,,,,,,,,
,,,,,,,,,,,,,FF,,,,,,,,1.121,,,,,,,,,,,,,,,,,,,,,,60fe1bea2504195ce9899d35,610378bde5f42b4bea54f83d,2021-07-29_23h59.06.067,Simcolourproject_2stim_asymm_v5,2020.2.10,MacIntel,60,61025ae37ef11b136ea224fe,,,,,,,,,2236,-91.90234375,68.1171875,1,0,0,response7disk,,1,-15.51171875,-6.11328125,1,0,0,rectangle,-15.51171875,-6.11328125,1,0,0,-15.51171875,-6.11328125,1,0,0,0,122,122,8,1,,,,,,,,
,,,,,,,,,,,,,FF,,,,,,,,0.7521,,,,,,,,,,,,,,,,,,,,,,60fe1bea2504195ce9899d35,610378bde5f42b4bea54f83d,2021-07-29_23h59.06.067,Simcolourproject_2stim_asymm_v5,2020.2.10,MacIntel,60,61025ae37ef11b136ea224fe,,,,,,,,,3120,-68.55078125,-43.10546875,1,0,0,response5disk,,2,-14.3984375,2.3125,1,0,0,rectangle,-14.3984375,2.3125,1,0,0,-14.3984375,2.3125,1,0,0,0,123,123,143,1,,,,,,,,
,,,,,,,,,,,,,FF,,,,,,,,12.9864,,,,,,,,,,,,,,,,,,,,,,60fe1bea2504195ce9899d35,610378bde5f42b4bea54f83d,2021-07-29_23h59.06.067,Simcolourproject_2stim_asymm_v5,2020.2.10,MacIntel,60,61025ae37ef11b136ea224fe,,,,,,,,,2346,-41.09375,-91.296875,1,0,0,response5disk,,3,-3.46875,4.44140625,1,0,0,rectangle,-3.46875,4.44140625,1,0,0,-3.46875,4.44140625,1,0,0,0,124,124,25,1,,,,,,,,
,,,,,,,,,,,,,FF,,,,,,,,0.8028,,,,,,,,,,,,,,,,,,,,,,60fe1bea2504195ce9899d35,610378bde5f42b4bea54f83d,2021-07-29_23h59.06.067,Simcolourproject_2stim_asymm_v5,2020.2.10,MacIntel,60,61025ae37ef11b136ea224fe,,,,,,,,,3217,68.58203125,-37.7734375,1,0,0,response3disk,,5,17.17578125,-9.76171875,1,0,0,rectangle,17.17578125,-9.76171875,1,0,0,17.17578125,-9.76171875,1,0,0,0,125,125,156,1,,,,,,,,
,,,,,,,,,,,,,FF,,,,,,,,1.586,,,,,,,,,,,,,,,,,,,,,,60fe1bea2504195ce9899d35,610378bde5f42b4bea54f83d,2021-07-29_23h59.06.067,Simcolourproject_2stim_asymm_v5,2020.2.10,MacIntel,60,61025ae37ef11b136ea224fe,,,,,,,,,3661,-75.98046875,-31.05859375,1,0,0,response5disk,,2,-10.41796875,3.33984375,1,0,0,rectangle,-10.41796875,3.33984375,1,0,0,-10.41796875,3.33984375,1,0,0,0,126,126,45,1,,,,,,,,
,,,,,,,,,,,,,FF,,,,,,,,0.9839,,,,,,,,,,,,,,,,,,,,,,60fe1bea2504195ce9899d35,610378bde5f42b4bea54f83d,2021-07-29_23h59.06.067,Simcolourproject_2stim_asymm_v5,2020.2.10,MacIntel,60,61025ae37ef11b136ea224fe,,,,,,,,,3897,32.2421875,-65.01171875,1,0,0,response3disk,,4,12.40234375,-4.2890625,1,0,0,rectangle,12.40234375,-4.2890625,1,0,0,12.40234375,-4.2890625,1,0,0,0,127,127,46,1,,,,,,,,
,,,,,,,,,,,,,FF,,,,,,,,1.0366,,,,,,,,,,,,,,,,,,,,,,60fe1bea2504195ce9899d35,610378bde5f42b4bea54f83d,2021-07-29_23h59.06.067,Simcolourproject_2stim_asymm_v5,2020.2.10,MacIntel,60,61025ae37ef11b136ea224fe,,,,,,,,,4331,35.50390625,105.0585938,1,0,0,response1disk,,7,6.41796875,2.08203125,1,0,0,rectangle,6.41796875,2.08203125,1,0,0,6.41796875,2.08203125,1,0,0,0,128,128,17,1,,,,,,,,
,,,,,,,,,,,,,FF,,,,,,,,1.4713,,,,,,,,,,,,,,,,,,,,,,60fe1bea2504195ce9899d35,610378bde5f42b4bea54f83d,2021-07-29_23h59.06.067,Simcolourproject_2stim_asymm_v5,2020.2.10,MacIntel,60,61025ae37ef11b136ea224fe,,,,,,,,,1463,66.64453125,-35.16015625,1,0,0,response3disk,,5,-0.39453125,2.3828125,1,0,0,rectangle,-0.39453125,2.3828125,1,0,0,-0.39453125,2.3828125,1,0,0,0,129,129,96,1,,,,,,,,
,,,,,,,,,,,,,FF,,,,,,,,0.9697,,,,,,,,,,,,,,,,,,,,,,60fe1bea2504195ce9899d35,610378bde5f42b4bea54f83d,2021-07-29_23h59.06.067,Simcolourproject_2stim_asymm_v5,2020.2.10,MacIntel,60,61025ae37ef11b136ea224fe,,,,,,,,,2704,102.15625,-33.73046875,1,0,0,response3disk,,5,30.7890625,-16.11328125,1,0,0,rectangle,30.7890625,-16.11328125,1,0,0,30.7890625,-16.11328125,1,0,0,0,130,130,57,1,,,,,,,,
,,,,,,,,,,,,,FF,,,,,,,,0.5698,,,,,,,,,,,,,,,,,,,,,,60fe1bea2504195ce9899d35,610378bde5f42b4bea54f83d,2021-07-29_23h59.06.067,Simcolourproject_2stim_asymm_v5,2020.2.10,MacIntel,60,61025ae37ef11b136ea224fe,,,,,,,,,1197,50.6484375,-33.69921875,1,0,0,response3disk,,5,17.08984375,-1.6171875,1,0,0,rectangle,17.08984375,-1.6171875,1,0,0,17.08984375,-1.6171875,1,0,0,0,131,131,128,1,,,,,,,,
,,,,,,,,,,,,,FF,,,,,,,,0.6347,,,,,,,,,,,,,,,,,,,,,,60fe1bea2504195ce9899d35,610378bde5f42b4bea54f83d,2021-07-29_23h59.06.067,Simcolourproject_2stim_asymm_v5,2020.2.10,MacIntel,60,61025ae37ef11b136ea224fe,,,,,,,,,3928,61.54296875,-45.8515625,1,0,0,response3disk,,5,11.078125,0.890625,1,0,0,rectangle,11.078125,0.890625,1,0,0,11.078125,0.890625,1,0,0,0,132,132,79,1,,,,,,,,
,,,,,,,,,,,,,FF,,,,,,,,1.0027,,,,,,,,,,,,,,,,,,,,,,60fe1bea2504195ce9899d35,610378bde5f42b4bea54f83d,2021-07-29_23h59.06.067,Simcolourproject_2stim_asymm_v5,2020.2.10,MacIntel,60,61025ae37ef11b136ea224fe,,,,,,,,,1160,70.01953125,25.875,1,0,0,response1disk,,6,21.8515625,11.22265625,1,0,0,rectangle,21.8515625,11.22265625,1,0,0,21.8515625,11.22265625,1,0,0,0,133,133,140,1,,,,,,,,
,,,,,,,,,,,,,FF,,,,,,,,0.5836,,,,,,,,,,,,,,,,,,,,,,60fe1bea2504195ce9899d35,610378bde5f42b4bea54f83d,2021-07-29_23h59.06.067,Simcolourproject_2stim_asymm_v5,2020.2.10,MacIntel,60,61025ae37ef11b136ea224fe,,,,,,,,,1703,80.19921875,42.0390625,1,0,0,response1disk,,6,25.44140625,1.6328125,1,0,0,rectangle,25.44140625,1.6328125,1,0,0,25.44140625,1.6328125,1,0,0,0,134,134,50,1,,,,,,,,
,,,,,,,,,,,,,FF,,,,,,,,2.6425,,,,,,,,,,,,,,,,,,,,,,60fe1bea2504195ce9899d35,610378bde5f42b4bea54f83d,2021-07-29_23h59.06.067,Simcolourproject_2stim_asymm_v5,2020.2.10,MacIntel,60,61025ae37ef11b136ea224fe,,,,,,,,,496,43.19921875,82.35546875,1,0,0,response1disk,,7,5.921875,6.16796875,1,0,0,rectangle,5.921875,6.16796875,1,0,0,5.921875,6.16796875,1,0,0,0,135,135,30,1,,,,,,,,
,,,,,,,,,,,,,FF,,,,,,,,1.6209,,,,,,,,,,,,,,,,,,,,,,60fe1bea2504195ce9899d35,610378bde5f42b4bea54f83d,2021-07-29_23h59.06.067,Simcolourproject_2stim_asymm_v5,2020.2.10,MacIntel,60,61025ae37ef11b136ea224fe,,,,,,,,,2991,40.46875,82.40625,1,0,0,response1disk,,7,20.47265625,12.19140625,1,0,0,rectangle,20.47265625,12.19140625,1,0,0,20.47265625,12.19140625,1,0,0,0,136,136,86,1,,,,,,,,
,,,,,,,,,,,,,FF,,,,,,,,0.8676,,,,,,,,,,,,,,,,,,,,,,60fe1bea2504195ce9899d35,610378bde5f42b4bea54f83d,2021-07-29_23h59.06.067,Simcolourproject_2stim_asymm_v5,2020.2.10,MacIntel,60,61025ae37ef11b136ea224fe,,,,,,,,,2577,104.5664063,46.04296875,1,0,0,response1disk,,6,-8.21875,12.47265625,1,0,0,rectangle,-8.21875,12.47265625,1,0,0,-8.21875,12.47265625,1,0,0,0,137,137,149,1,,,,,,,,
,,,,,,,,,,,,,FF,,,,,,,,0.8033,,,,,,,,,,,,,,,,,,,,,,60fe1bea2504195ce9899d35,610378bde5f42b4bea54f83d,2021-07-29_23h59.06.067,Simcolourproject_2stim_asymm_v5,2020.2.10,MacIntel,60,61025ae37ef11b136ea224fe,,,,,,,,,2998,-56.80078125,-73.015625,1,0,0,response5disk,,3,-20.83984375,-11.875,1,0,0,rectangle,-20.83984375,-11.875,1,0,0,-20.83984375,-11.875,1,0,0,0,138,138,29,1,,,,,,,,
,,,,,,,,,,,,,FF,,,,,,,,1.0679,,,,,,,,,,,,,,,,,,,,,,60fe1bea2504195ce9899d35,610378bde5f42b4bea54f83d,2021-07-29_23h59.06.067,Simcolourproject_2stim_asymm_v5,2020.2.10,MacIntel,60,61025ae37ef11b136ea224fe,,,,,,,,,2362,-38.95703125,-79.9296875,1,0,0,response5disk,,3,-9.37890625,-1.40234375,1,0,0,rectangle,-9.37890625,-1.40234375,1,0,0,-9.37890625,-1.40234375,1,0,0,0,139,139,70,1,,,,,,,,
,,,,,,,,,,,,,FF,,,,,,,,0.9856,,,,,,,,,,,,,,,,,,,,,,60fe1bea2504195ce9899d35,610378bde5f42b4bea54f83d,2021-07-29_23h59.06.067,Simcolourproject_2stim_asymm_v5,2020.2.10,MacIntel,60,61025ae37ef11b136ea224fe,,,,,,,,,533,-73.98828125,56.92578125,1,0,0,response7disk,,1,4.69921875,8.5390625,1,0,0,rectangle,4.69921875,8.5390625,1,0,0,4.69921875,8.5390625,1,0,0,0,140,140,59,1,,,,,,,,
,,,,,,,,,,,,,FF,,,,,,,,1.3228,,,,,,,,,,,,,,,,,,,,,,60fe1bea2504195ce9899d35,610378bde5f42b4bea54f83d,2021-07-29_23h59.06.067,Simcolourproject_2stim_asymm_v5,2020.2.10,MacIntel,60,61025ae37ef11b136ea224fe,,,,,,,,,3651,66.47265625,-36.94140625,1,0,0,response3disk,,5,16.68359375,7.078125,1,0,0,rectangle,16.68359375,7.078125,1,0,0,16.68359375,7.078125,1,0,0,0,141,141,4,1,,,,,,,,
,,,,,,,,,,,,,FF,,,,,,,,1.2181,,,,,,,,,,,,,,,,,,,,,,60fe1bea2504195ce9899d35,610378bde5f42b4bea54f83d,2021-07-29_23h59.06.067,Simcolourproject_2stim_asymm_v5,2020.2.10,MacIntel,60,61025ae37ef11b136ea224fe,,,,,,,,,3454,43.17578125,71.109375,1,0,0,response1disk,,7,21.8125,11.1328125,1,0,0,rectangle,21.8125,11.1328125,1,0,0,21.8125,11.1328125,1,0,0,0,142,142,71,1,,,,,,,,
,,,,,,,,,,,,,FF,,,,,,,,0.7338,,,,,,,,,,,,,,,,,,,,,,60fe1bea2504195ce9899d35,610378bde5f42b4bea54f83d,2021-07-29_23h59.06.067,Simcolourproject_2stim_asymm_v5,2020.2.10,MacIntel,60,61025ae37ef11b136ea224fe,,,,,,,,,2653,91.859375,49.04296875,1,0,0,response1disk,,6,4.91796875,6.77734375,1,0,0,rectangle,4.91796875,6.77734375,1,0,0,4.91796875,6.77734375,1,0,0,0,143,143,15,1,,,,,,,,
,,,,,,,,,,,,,FF,,,,,,,,0.8853,,,,,,,,,,,,,,,,,,,,,,60fe1bea2504195ce9899d35,610378bde5f42b4bea54f83d,2021-07-29_23h59.06.067,Simcolourproject_2stim_asymm_v5,2020.2.10,MacIntel,60,61025ae37ef11b136ea224fe,,,,,,,,,2316,48.57421875,-82.14453125,1,0,0,response3disk,,4,5.49609375,-0.42578125,1,0,0,rectangle,5.49609375,-0.42578125,1,0,0,5.49609375,-0.42578125,1,0,0,0,144,144,53,1,,,,,,,,
,,,,,,,,,,,,,FF,,,,,,,,1.0343,,,,,,,,,,,,,,,,,,,,,,60fe1bea2504195ce9899d35,610378bde5f42b4bea54f83d,2021-07-29_23h59.06.067,Simcolourproject_2stim_asymm_v5,2020.2.10,MacIntel,60,61025ae37ef11b136ea224fe,,,,,,,,,108,-30.54296875,-87.13671875,1,0,0,response5disk,,3,3.6015625,3.3984375,1,0,0,rectangle,3.6015625,3.3984375,1,0,0,3.6015625,3.3984375,1,0,0,0,145,145,101,1,,,,,,,,
,,,,,,,,,,,,,FF,,,,,,,,0.5683,,,,,,,,,,,,,,,,,,,,,,60fe1bea2504195ce9899d35,610378bde5f42b4bea54f83d,2021-07-29_23h59.06.067,Simcolourproject_2stim_asymm_v5,2020.2.10,MacIntel,60,61025ae37ef11b136ea224fe,,,,,,,,,1486,80.3828125,-49.64453125,1,0,0,response3disk,,5,25.48046875,1.51953125,1,0,0,rectangle,25.48046875,1.51953125,1,0,0,25.48046875,1.51953125,1,0,0,0,146,146,97,1,,,,,,,,
,,,,,,,,,,,,,FF,,,,,,,,1.0542,,,,,,,,,,,,,,,,,,,,,,60fe1bea2504195ce9899d35,610378bde5f42b4bea54f83d,2021-07-29_23h59.06.067,Simcolourproject_2stim_asymm_v5,2020.2.10,MacIntel,60,61025ae37ef11b136ea224fe,,,,,,,,,1775,71.44921875,-45.609375,1,0,0,response3disk,,5,11.203125,-10.5703125,1,0,0,rectangle,11.203125,-10.5703125,1,0,0,11.203125,-10.5703125,1,0,0,0,147,147,74,1,,,,,,,,
,,,,,,,,,,,,,FF,,,,,,,,1.1365,,,,,,,,,,,,,,,,,,,,,,60fe1bea2504195ce9899d35,610378bde5f42b4bea54f83d,2021-07-29_23h59.06.067,Simcolourproject_2stim_asymm_v5,2020.2.10,MacIntel,60,61025ae37ef11b136ea224fe,,,,,,,,,739,60.45703125,-33.4375,1,0,0,response3disk,,5,20.7734375,7.7890625,1,0,0,rectangle,20.7734375,7.7890625,1,0,0,20.7734375,7.7890625,1,0,0,0,148,148,26,1,,,,,,,,
,,,,,,,,,,,,,FF,,,,,,,,0.8649,,,,,,,,,,,,,,,,,,,,,,60fe1bea2504195ce9899d35,610378bde5f42b4bea54f83d,2021-07-29_23h59.06.067,Simcolourproject_2stim_asymm_v5,2020.2.10,MacIntel,60,61025ae37ef11b136ea224fe,,,,,,,,,1277,70.5703125,40.40625,1,0,0,response1disk,,6,20.91796875,14.421875,1,0,0,rectangle,20.91796875,14.421875,1,0,0,20.91796875,14.421875,1,0,0,0,149,149,14,1,,,,,,,,
,,,,,,,,,,,,,FF,,,,,,,,1.2207,,,,,,,,,,,,,,,,,,,,,,60fe1bea2504195ce9899d35,610378bde5f42b4bea54f83d,2021-07-29_23h59.06.067,Simcolourproject_2stim_asymm_v5,2020.2.10,MacIntel,60,61025ae37ef11b136ea224fe,,,,,,,,,3311,124.9257813,64.9453125,1,0,0,response1disk,,6,22.28515625,2.96875,1,0,0,rectangle,22.28515625,2.96875,1,0,0,22.28515625,2.96875,1,0,0,0,150,150,118,1,,,,,,,,
,,,,,,,,,,,,,FF,,,,,,,,0.819,,,,,,,,,,,,,,,,,,,,,,60fe1bea2504195ce9899d35,610378bde5f42b4bea54f83d,2021-07-29_23h59.06.067,Simcolourproject_2stim_asymm_v5,2020.2.10,MacIntel,60,61025ae37ef11b136ea224fe,,,,,,,,,1872,50.1328125,65.53125,1,0,0,response1disk,,7,12.05078125,3.83984375,1,0,0,rectangle,100.8359375,59.69921875,1,0,0,8.4921875,-6.0234375,1,0,0,0,151,151,93,1,,response1disk_3,TRUE,6,6,"[81,314,244,110,85,249,91,120,152,34,2,265,275,167,63,300,95,297,16,32]",1.6184,rectangle
,,,,,,,,,,,,,FF,,,,,,,,0.8525,,,,,,,,,,,,,,,,,,,,,,60fe1bea2504195ce9899d35,610378bde5f42b4bea54f83d,2021-07-29_23h59.06.067,Simcolourproject_2stim_asymm_v5,2020.2.10,MacIntel,60,61025ae37ef11b136ea224fe,,,,,,,,,1244,71.078125,44.6171875,1,0,0,response1disk,,6,7.23828125,12.00390625,1,0,0,rectangle,7.23828125,12.00390625,1,0,0,7.23828125,12.00390625,1,0,0,0,152,152,119,1,,,,,,,,
,,,,,,,,,,,,,FF,,,,,,,,0.4848,,,,,,,,,,,,,,,,,,,,,,60fe1bea2504195ce9899d35,610378bde5f42b4bea54f83d,2021-07-29_23h59.06.067,Simcolourproject_2stim_asymm_v5,2020.2.10,MacIntel,60,61025ae37ef11b136ea224fe,,,,,,,,,2049,28.27734375,81.1953125,1,0,0,response1disk,,7,17.37890625,7.3046875,1,0,0,rectangle,17.37890625,7.3046875,1,0,0,17.37890625,7.3046875,1,0,0,0,153,153,98,1,,,,,,,,
,,,,,,,,,,,,,FF,,,,,,,,1.0032,,,,,,,,,,,,,,,,,,,,,,60fe1bea2504195ce9899d35,610378bde5f42b4bea54f83d,2021-07-29_23h59.06.067,Simcolourproject_2stim_asymm_v5,2020.2.10,MacIntel,60,61025ae37ef11b136ea224fe,,,,,,,,,3337,83.125,-45.34375,1,0,0,response3disk,,5,20.16015625,-0.109375,1,0,0,rectangle,20.16015625,-0.109375,1,0,0,20.16015625,-0.109375,1,0,0,0,154,154,84,1,,,,,,,,
,,,,,,,,,,,,,FF,,,,,,,,0.5667,,,,,,,,,,,,,,,,,,,,,,60fe1bea2504195ce9899d35,610378bde5f42b4bea54f83d,2021-07-29_23h59.06.067,Simcolourproject_2stim_asymm_v5,2020.2.10,MacIntel,60,61025ae37ef11b136ea224fe,,,,,,,,,2210,33.08984375,-92.37109375,1,0,0,response3disk,,4,26.09765625,-13.0078125,1,0,0,rectangle,26.09765625,-13.0078125,1,0,0,26.09765625,-13.0078125,1,0,0,0,155,155,52,1,,,,,,,,
,,,,,,,,,,,,,FF,,,,,,,,0.8351,,,,,,,,,,,,,,,,,,,,,,60fe1bea2504195ce9899d35,610378bde5f42b4bea54f83d,2021-07-29_23h59.06.067,Simcolourproject_2stim_asymm_v5,2020.2.10,MacIntel,60,61025ae37ef11b136ea224fe,,,,,,,,,4254,-29.52734375,-84.46875,1,0,0,response5disk,,3,-1.52734375,-5.62109375,1,0,0,rectangle,-1.52734375,-5.62109375,1,0,0,-1.52734375,-5.62109375,1,0,0,0,156,156,51,1,,,,,,,,
,,,,,,,,,,,,,FF,,,,,,,,1.4541,,,,,,,,,,,,,,,,,,,,,,60fe1bea2504195ce9899d35,610378bde5f42b4bea54f83d,2021-07-29_23h59.06.067,Simcolourproject_2stim_asymm_v5,2020.2.10,MacIntel,60,61025ae37ef11b136ea224fe,,,,,,,,,4269,21.890625,-111.3085938,1,0,0,response3disk,,4,13.55859375,-3.7734375,1,0,0,rectangle,13.55859375,-3.7734375,1,0,0,13.55859375,-3.7734375,1,0,0,0,157,157,38,1,,,,,,,,
,,,,,,,,,,,,,FF,,,,,,,,0.9379,,,,,,,,,,,,,,,,,,,,,,60fe1bea2504195ce9899d35,610378bde5f42b4bea54f83d,2021-07-29_23h59.06.067,Simcolourproject_2stim_asymm_v5,2020.2.10,MacIntel,60,61025ae37ef11b136ea224fe,,,,,,,,,1056,-79.78515625,-67.3828125,1,0,0,response5disk,,2,17.16015625,9.421875,1,0,0,rectangle,17.16015625,9.421875,1,0,0,17.16015625,9.421875,1,0,0,0,158,158,9,1,,,,,,,,
,,,,,,,,,,,,,FF,,,,,,,,0.8021,,,,,,,,,,,,,,,,,,,,,,60fe1bea2504195ce9899d35,610378bde5f42b4bea54f83d,2021-07-29_23h59.06.067,Simcolourproject_2stim_asymm_v5,2020.2.10,MacIntel,60,61025ae37ef11b136ea224fe,,,,,,,,,3801,53.09375,98.73828125,1,0,0,response1disk,,7,7.5625,-13.390625,1,0,0,rectangle,7.5625,-13.390625,1,0,0,7.5625,-13.390625,1,0,0,0,159,159,39,1,,,,,,,,
,,,,,,,,,,,,,FF,,,,,,,,0.7031,,,,,,,,,,,,,,,,,,,,,,60fe1bea2504195ce9899d35,610378bde5f42b4bea54f83d,2021-07-29_23h59.06.067,Simcolourproject_2stim_asymm_v5,2020.2.10,MacIntel,60,61025ae37ef11b136ea224fe,,,,,,,,,1214,-42.5703125,-69.07421875,1,0,0,response5disk,,3,14.8984375,6.81640625,1,0,0,rectangle,14.8984375,6.81640625,1,0,0,14.8984375,6.81640625,1,0,0,1,0,160,100,1,,,,,,,,
,,,,,,,,,,,,,FF,,,,,,,,0.7521,,,,,,,,,,,,,,,,,,,,,,60fe1bea2504195ce9899d35,610378bde5f42b4bea54f83d,2021-07-29_23h59.06.067,Simcolourproject_2stim_asymm_v5,2020.2.10,MacIntel,60,61025ae37ef11b136ea224fe,,,,,,,,,1530,-36.83203125,-88.2578125,1,0,0,response5disk,,3,-9.37109375,-5.40234375,1,0,0,rectangle,-9.37109375,-5.40234375,1,0,0,-9.37109375,-5.40234375,1,0,0,1,1,161,126,1,,,,,,,,
,,,,,,,,,,,,,FF,,,,,,,,0.6007,,,,,,,,,,,,,,,,,,,,,,60fe1bea2504195ce9899d35,610378bde5f42b4bea54f83d,2021-07-29_23h59.06.067,Simcolourproject_2stim_asymm_v5,2020.2.10,MacIntel,60,61025ae37ef11b136ea224fe,,,,,,,,,767,72.1796875,37.421875,1,0,0,response1disk,,6,16.6796875,7.71484375,1,0,0,rectangle,16.6796875,7.71484375,1,0,0,16.6796875,7.71484375,1,0,0,1,2,162,159,1,,,,,,,,
,,,,,,,,,,,,,FF,,,,,,,,0.7527,,,,,,,,,,,,,,,,,,,,,,60fe1bea2504195ce9899d35,610378bde5f42b4bea54f83d,2021-07-29_23h59.06.067,Simcolourproject_2stim_asymm_v5,2020.2.10,MacIntel,60,61025ae37ef11b136ea224fe,,,,,,,,,843,38.859375,-59.078125,1,0,0,response3disk,,4,17.328125,-6.83203125,1,0,0,rectangle,17.328125,-6.83203125,1,0,0,17.328125,-6.83203125,1,0,0,1,3,163,146,1,,,,,,,,
,,,,,,,,,,,,,FF,,,,,,,,1.1192,,,,,,,,,,,,,,,,,,,,,,60fe1bea2504195ce9899d35,610378bde5f42b4bea54f83d,2021-07-29_23h59.06.067,Simcolourproject_2stim_asymm_v5,2020.2.10,MacIntel,60,61025ae37ef11b136ea224fe,,,,,,,,,4245,21.71484375,97.54296875,1,0,0,response1disk,,7,-1.87890625,-9.9921875,1,0,0,rectangle,-1.87890625,-9.9921875,1,0,0,-1.87890625,-9.9921875,1,0,0,1,4,164,9,1,,,,,,,,
,,,,,,,,,,,,,FF,,,,,,,,1.2172,,,,,,,,,,,,,,,,,,,,,,60fe1bea2504195ce9899d35,610378bde5f42b4bea54f83d,2021-07-29_23h59.06.067,Simcolourproject_2stim_asymm_v5,2020.2.10,MacIntel,60,61025ae37ef11b136ea224fe,,,,,,,,,2304,77.9921875,-23.24609375,1,0,0,response3disk,,5,31.41015625,-16.171875,1,0,0,rectangle,31.41015625,-16.171875,1,0,0,31.41015625,-16.171875,1,0,0,1,5,165,144,1,,,,,,,,
,,,,,,,,,,,,,FF,,,,,,,,0.4505,,,,,,,,,,,,,,,,,,,,,,60fe1bea2504195ce9899d35,610378bde5f42b4bea54f83d,2021-07-29_23h59.06.067,Simcolourproject_2stim_asymm_v5,2020.2.10,MacIntel,60,61025ae37ef11b136ea224fe,,,,,,,,,3312,83.54296875,44.1796875,1,0,0,response1disk,,6,32.09375,11.71484375,1,0,0,rectangle,54.15625,102.1796875,1,0,0,7.69140625,1.1015625,1,0,0,1,6,166,8,1,,response1disk_3,TRUE,7,7,"[81,314,244,110,85,249,91,120,152,34,2,265,275,167,63,300,95,297,16,32]",1.1862,rectangle
,,,,,,,,,,,,,FF,,,,,,,,1.1181,,,,,,,,,,,,,,,,,,,,,,60fe1bea2504195ce9899d35,610378bde5f42b4bea54f83d,2021-07-29_23h59.06.067,Simcolourproject_2stim_asymm_v5,2020.2.10,MacIntel,60,61025ae37ef11b136ea224fe,,,,,,,,,3709,-88.890625,-54.65234375,1,0,0,response5disk,,2,16.6328125,11.4375,1,0,0,rectangle,16.6328125,11.4375,1,0,0,16.6328125,11.4375,1,0,0,1,7,167,150,1,,,,,,,,
,,,,,,,,,,,,,FF,,,,,,,,0.751,,,,,,,,,,,,,,,,,,,,,,60fe1bea2504195ce9899d35,610378bde5f42b4bea54f83d,2021-07-29_23h59.06.067,Simcolourproject_2stim_asymm_v5,2020.2.10,MacIntel,60,61025ae37ef11b136ea224fe,,,,,,,,,2609,46.76171875,-80.60546875,1,0,0,response3disk,,4,3.55859375,-2.69921875,1,0,0,rectangle,3.55859375,-2.69921875,1,0,0,3.55859375,-2.69921875,1,0,0,1,8,168,35,1,,,,,,,,
,,,,,,,,,,,,,FF,,,,,,,,0.6168,,,,,,,,,,,,,,,,,,,,,,60fe1bea2504195ce9899d35,610378bde5f42b4bea54f83d,2021-07-29_23h59.06.067,Simcolourproject_2stim_asymm_v5,2020.2.10,MacIntel,60,61025ae37ef11b136ea224fe,,,,,,,,,537,77.78515625,-43.5546875,1,0,0,response3disk,,5,10.953125,6.6953125,1,0,0,rectangle,10.953125,6.6953125,1,0,0,10.953125,6.6953125,1,0,0,1,9,169,86,1,,,,,,,,
,,,,,,,,,,,,,FF,,,,,,,,0.635,,,,,,,,,,,,,,,,,,,,,,60fe1bea2504195ce9899d35,610378bde5f42b4bea54f83d,2021-07-29_23h59.06.067,Simcolourproject_2stim_asymm_v5,2020.2.10,MacIntel,60,61025ae37ef11b136ea224fe,,,,,,,,,1777,89.671875,36.37109375,1,0,0,response1disk,,6,30.29296875,14.984375,1,0,0,rectangle,30.29296875,14.984375,1,0,0,30.29296875,14.984375,1,0,0,1,10,170,91,1,,,,,,,,
,,,,,,,,,,,,,FF,,,,,,,,0.7865,,,,,,,,,,,,,,,,,,,,,,60fe1bea2504195ce9899d35,610378bde5f42b4bea54f83d,2021-07-29_23h59.06.067,Simcolourproject_2stim_asymm_v5,2020.2.10,MacIntel,60,61025ae37ef11b136ea224fe,,,,,,,,,994,29.83203125,-75.33203125,1,0,0,response3disk,,4,21.25390625,-11.2265625,1,0,0,rectangle,21.25390625,-11.2265625,1,0,0,21.25390625,-11.2265625,1,0,0,1,11,171,145,1,,,,,,,,
,,,,,,,,,,,,,FF,,,,,,,,0.6522,,,,,,,,,,,,,,,,,,,,,,60fe1bea2504195ce9899d35,610378bde5f42b4bea54f83d,2021-07-29_23h59.06.067,Simcolourproject_2stim_asymm_v5,2020.2.10,MacIntel,60,61025ae37ef11b136ea224fe,,,,,,,,,1068,56.2421875,-24.93359375,1,0,0,response3disk,,5,23.390625,3.66015625,1,0,0,rectangle,23.390625,3.66015625,1,0,0,23.390625,3.66015625,1,0,0,1,12,172,1,1,,,,,,,,
,,,,,,,,,,,,,FF,,,,,,,,1.2532,,,,,,,,,,,,,,,,,,,,,,60fe1bea2504195ce9899d35,610378bde5f42b4bea54f83d,2021-07-29_23h59.06.067,Simcolourproject_2stim_asymm_v5,2020.2.10,MacIntel,60,61025ae37ef11b136ea224fe,,,,,,,,,723,90.109375,46.66796875,1,0,0,response1disk,,6,16.5390625,4.64453125,1,0,0,rectangle,16.5390625,4.64453125,1,0,0,16.5390625,4.64453125,1,0,0,1,13,173,141,1,,,,,,,,
,,,,,,,,,,,,,FF,,,,,,,,1.1369,,,,,,,,,,,,,,,,,,,,,,60fe1bea2504195ce9899d35,610378bde5f42b4bea54f83d,2021-07-29_23h59.06.067,Simcolourproject_2stim_asymm_v5,2020.2.10,MacIntel,60,61025ae37ef11b136ea224fe,,,,,,,,,3240,41.9375,82.09765625,1,0,0,response1disk,,7,1.44140625,10.03125,1,0,0,rectangle,1.44140625,10.03125,1,0,0,1.44140625,10.03125,1,0,0,1,14,174,49,1,,,,,,,,
,,,,,,,,,,,,,FF,,,,,,,,0.6186,,,,,,,,,,,,,,,,,,,,,,60fe1bea2504195ce9899d35,610378bde5f42b4bea54f83d,2021-07-29_23h59.06.067,Simcolourproject_2stim_asymm_v5,2020.2.10,MacIntel,60,61025ae37ef11b136ea224fe,,,,,,,,,992,93.03125,-46.859375,1,0,0,response3disk,,5,18.57421875,7.78125,1,0,0,rectangle,18.57421875,7.78125,1,0,0,18.57421875,7.78125,1,0,0,1,15,175,87,1,,,,,,,,
,,,,,,,,,,,,,FF,,,,,,,,1.1027,,,,,,,,,,,,,,,,,,,,,,60fe1bea2504195ce9899d35,610378bde5f42b4bea54f83d,2021-07-29_23h59.06.067,Simcolourproject_2stim_asymm_v5,2020.2.10,MacIntel,60,61025ae37ef11b136ea224fe,,,,,,,,,4163,-31.21875,82.59375,1,0,0,response7disk,,0,4.171875,-3.41015625,1,0,0,rectangle,4.171875,-3.41015625,1,0,0,4.171875,-3.41015625,1,0,0,1,16,176,103,1,,,,,,,,
,,,,,,,,,,,,,FF,,,,,,,,0.6195,,,,,,,,,,,,,,,,,,,,,,60fe1bea2504195ce9899d35,610378bde5f42b4bea54f83d,2021-07-29_23h59.06.067,Simcolourproject_2stim_asymm_v5,2020.2.10,MacIntel,60,61025ae37ef11b136ea224fe,,,,,,,,,2721,-44.72265625,-81.96484375,1,0,0,response5disk,,3,15.375,-6.796875,1,0,0,rectangle,15.375,-6.796875,1,0,0,15.375,-6.796875,1,0,0,1,17,177,70,1,,,,,,,,
,,,,,,,,,,,,,FF,,,,,,,,7.3708,,,,,,,,,,,,,,,,,,,,,,60fe1bea2504195ce9899d35,610378bde5f42b4bea54f83d,2021-07-29_23h59.06.067,Simcolourproject_2stim_asymm_v5,2020.2.10,MacIntel,60,61025ae37ef11b136ea224fe,,,,,,,,,1100,41.52734375,-76.359375,1,0,0,response3disk,,4,21.94921875,8.64453125,1,0,0,rectangle,21.94921875,8.64453125,1,0,0,21.94921875,8.64453125,1,0,0,1,18,178,95,1,,,,,,,,
,,,,,,,,,,,,,FF,,,,,,,,5.6993,,,,,,,,,,,,,,,,,,,,,,60fe1bea2504195ce9899d35,610378bde5f42b4bea54f83d,2021-07-29_23h59.06.067,Simcolourproject_2stim_asymm_v5,2020.2.10,MacIntel,60,61025ae37ef11b136ea224fe,,,,,,,,,2731,54.109375,-75.1015625,1,0,0,response3disk,,4,17.12109375,-0.90625,1,0,0,rectangle,17.12109375,-0.90625,1,0,0,17.12109375,-0.90625,1,0,0,1,19,179,56,1,,,,,,,,
,,,,,,,,,,,,,FF,,,,,,,,0.7677,,,,,,,,,,,,,,,,,,,,,,60fe1bea2504195ce9899d35,610378bde5f42b4bea54f83d,2021-07-29_23h59.06.067,Simcolourproject_2stim_asymm_v5,2020.2.10,MacIntel,60,61025ae37ef11b136ea224fe,,,,,,,,,4223,-18.00390625,-69.453125,1,0,0,response5disk,,3,4.828125,0.3203125,1,0,0,rectangle,4.828125,0.3203125,1,0,0,4.828125,0.3203125,1,0,0,1,20,180,52,1,,,,,,,,
,,,,,,,,,,,,,FF,,,,,,,,2.5899,,,,,,,,,,,,,,,,,,,,,,60fe1bea2504195ce9899d35,610378bde5f42b4bea54f83d,2021-07-29_23h59.06.067,Simcolourproject_2stim_asymm_v5,2020.2.10,MacIntel,60,61025ae37ef11b136ea224fe,,,,,,,,,3827,34.5234375,-45.6171875,1,0,0,response3disk,,4,16.015625,-4.44921875,1,0,0,rectangle,16.015625,-4.44921875,1,0,0,16.015625,-4.44921875,1,0,0,1,21,181,47,1,,,,,,,,
,,,,,,,,,,,,,FF,,,,,,,,0.6517,,,,,,,,,,,,,,,,,,,,,,60fe1bea2504195ce9899d35,610378bde5f42b4bea54f83d,2021-07-29_23h59.06.067,Simcolourproject_2stim_asymm_v5,2020.2.10,MacIntel,60,61025ae37ef11b136ea224fe,,,,,,,,,3022,69.26171875,-31.34765625,1,0,0,response3disk,,5,21.8203125,-4.4609375,1,0,0,rectangle,21.8203125,-4.4609375,1,0,0,21.8203125,-4.4609375,1,0,0,1,22,182,101,1,,,,,,,,
,,,,,,,,,,,,,FF,,,,,,,,0.6171,,,,,,,,,,,,,,,,,,,,,,60fe1bea2504195ce9899d35,610378bde5f42b4bea54f83d,2021-07-29_23h59.06.067,Simcolourproject_2stim_asymm_v5,2020.2.10,MacIntel,60,61025ae37ef11b136ea224fe,,,,,,,,,2282,32.6640625,87.0078125,1,0,0,response1disk,,7,19.671875,16.1953125,1,0,0,rectangle,19.671875,16.1953125,1,0,0,19.671875,16.1953125,1,0,0,1,23,183,51,1,,,,,,,,
,,,,,,,,,,,,,FF,,,,,,,,1.386,,,,,,,,,,,,,,,,,,,,,,60fe1bea2504195ce9899d35,610378bde5f42b4bea54f83d,2021-07-29_23h59.06.067,Simcolourproject_2stim_asymm_v5,2020.2.10,MacIntel,60,61025ae37ef11b136ea224fe,,,,,,,,,3525,79.57421875,31.98828125,1,0,0,response1disk,,6,16.640625,-6.421875,1,0,0,rectangle,16.640625,-6.421875,1,0,0,16.640625,-6.421875,1,0,0,1,24,184,134,1,,,,,,,,
,,,,,,,,,,,,,FF,,,,,,,,1.053,,,,,,,,,,,,,,,,,,,,,,60fe1bea2504195ce9899d35,610378bde5f42b4bea54f83d,2021-07-29_23h59.06.067,Simcolourproject_2stim_asymm_v5,2020.2.10,MacIntel,60,61025ae37ef11b136ea224fe,,,,,,,,,1420,90.80078125,33.01171875,1,0,0,response1disk,,6,24.89453125,10.1171875,1,0,0,rectangle,24.89453125,10.1171875,1,0,0,24.89453125,10.1171875,1,0,0,1,25,185,30,1,,,,,,,,
,,,,,,,,,,,,,FF,,,,,,,,0.7006,,,,,,,,,,,,,,,,,,,,,,60fe1bea2504195ce9899d35,610378bde5f42b4bea54f83d,2021-07-29_23h59.06.067,Simcolourproject_2stim_asymm_v5,2020.2.10,MacIntel,60,61025ae37ef11b136ea224fe,,,,,,,,,2521,44.01171875,80.6015625,1,0,0,response1disk,,7,10.6875,5.86328125,1,0,0,rectangle,10.6875,5.86328125,1,0,0,10.6875,5.86328125,1,0,0,1,26,186,82,1,,,,,,,,
,,,,,,,,,,,,,FF,,,,,,,,0.584,,,,,,,,,,,,,,,,,,,,,,60fe1bea2504195ce9899d35,610378bde5f42b4bea54f83d,2021-07-29_23h59.06.067,Simcolourproject_2stim_asymm_v5,2020.2.10,MacIntel,60,61025ae37ef11b136ea224fe,,,,,,,,,1170,34.328125,73.953125,1,0,0,response1disk,,7,28.23046875,7.7109375,1,0,0,rectangle,28.23046875,7.7109375,1,0,0,28.23046875,7.7109375,1,0,0,1,27,187,67,1,,,,,,,,
,,,,,,,,,,,,,FF,,,,,,,,0.8836,,,,,,,,,,,,,,,,,,,,,,60fe1bea2504195ce9899d35,610378bde5f42b4bea54f83d,2021-07-29_23h59.06.067,Simcolourproject_2stim_asymm_v5,2020.2.10,MacIntel,60,61025ae37ef11b136ea224fe,,,,,,,,,1692,63.62890625,-28.58203125,1,0,0,response3disk,,5,12.26171875,-9.6328125,1,0,0,rectangle,12.26171875,-9.6328125,1,0,0,12.26171875,-9.6328125,1,0,0,1,28,188,109,1,,,,,,,,
,,,,,,,,,,,,,FF,,,,,,,,0.6998,,,,,,,,,,,,,,,,,,,,,,60fe1bea2504195ce9899d35,610378bde5f42b4bea54f83d,2021-07-29_23h59.06.067,Simcolourproject_2stim_asymm_v5,2020.2.10,MacIntel,60,61025ae37ef11b136ea224fe,,,,,,,,,2590,44.265625,60.01953125,1,0,0,response1disk,,7,21.375,1.75,1,0,0,rectangle,21.375,1.75,1,0,0,21.375,1.75,1,0,0,1,29,189,124,1,,,,,,,,
,,,,,,,,,,,,,FF,,,,,,,,1.32,,,,,,,,,,,,,,,,,,,,,,60fe1bea2504195ce9899d35,610378bde5f42b4bea54f83d,2021-07-29_23h59.06.067,Simcolourproject_2stim_asymm_v5,2020.2.10,MacIntel,60,61025ae37ef11b136ea224fe,,,,,,,,,1902,56.1953125,-43.5703125,1,0,0,response3disk,,5,5.5390625,-3.8359375,1,0,0,rectangle,5.5390625,-3.8359375,1,0,0,5.5390625,-3.8359375,1,0,0,1,30,190,120,1,,,,,,,,
,,,,,,,,,,,,,FF,,,,,,,,1.5044,,,,,,,,,,,,,,,,,,,,,,60fe1bea2504195ce9899d35,610378bde5f42b4bea54f83d,2021-07-29_23h59.06.067,Simcolourproject_2stim_asymm_v5,2020.2.10,MacIntel,60,61025ae37ef11b136ea224fe,,,,,,,,,1827,60.77734375,-85.265625,1,0,0,response3disk,,4,14.2578125,-5.05078125,1,0,0,rectangle,14.2578125,-5.05078125,1,0,0,14.2578125,-5.05078125,1,0,0,1,31,191,60,1,,,,,,,,
,,,,,,,,,,,,,FF,,,,,,,,0.7865,,,,,,,,,,,,,,,,,,,,,,60fe1bea2504195ce9899d35,610378bde5f42b4bea54f83d,2021-07-29_23h59.06.067,Simcolourproject_2stim_asymm_v5,2020.2.10,MacIntel,60,61025ae37ef11b136ea224fe,,,,,,,,,3955,63.43359375,28.0390625,1,0,0,response1disk,,6,9.59765625,-8.09765625,1,0,0,rectangle,9.59765625,-8.09765625,1,0,0,9.59765625,-8.09765625,1,0,0,1,32,192,105,1,,,,,,,,
,,,,,,,,,,,,,FF,,,,,,,,1.504,,,,,,,,,,,,,,,,,,,,,,60fe1bea2504195ce9899d35,610378bde5f42b4bea54f83d,2021-07-29_23h59.06.067,Simcolourproject_2stim_asymm_v5,2020.2.10,MacIntel,60,61025ae37ef11b136ea224fe,,,,,,,,,895,-37.1875,-89.6015625,1,0,0,response5disk,,3,-18.8359375,-8.2734375,1,0,0,rectangle,-18.8359375,-8.2734375,1,0,0,-18.8359375,-8.2734375,1,0,0,1,33,193,15,1,,,,,,,,
,,,,,,,,,,,,,FF,,,,,,,,0.6346,,,,,,,,,,,,,,,,,,,,,,60fe1bea2504195ce9899d35,610378bde5f42b4bea54f83d,2021-07-29_23h59.06.067,Simcolourproject_2stim_asymm_v5,2020.2.10,MacIntel,60,61025ae37ef11b136ea224fe,,,,,,,,,1860,74.40234375,-33.1328125,1,0,0,response3disk,,5,-10.34375,14.203125,1,0,0,rectangle,-10.34375,14.203125,1,0,0,-10.34375,14.203125,1,0,0,1,34,194,123,1,,,,,,,,
,,,,,,,,,,,,,FF,,,,,,,,2.655,,,,,,,,,,,,,,,,,,,,,,60fe1bea2504195ce9899d35,610378bde5f42b4bea54f83d,2021-07-29_23h59.06.067,Simcolourproject_2stim_asymm_v5,2020.2.10,MacIntel,60,61025ae37ef11b136ea224fe,,,,,,,,,2611,16.203125,-101.7226563,1,0,0,response3disk,,4,-17.77734375,4.921875,1,0,0,rectangle,-17.77734375,4.921875,1,0,0,-17.77734375,4.921875,1,0,0,1,35,195,63,1,,,,,,,,
,,,,,,,,,,,,,FF,,,,,,,,0.9351,,,,,,,,,,,,,,,,,,,,,,60fe1bea2504195ce9899d35,610378bde5f42b4bea54f83d,2021-07-29_23h59.06.067,Simcolourproject_2stim_asymm_v5,2020.2.10,MacIntel,60,61025ae37ef11b136ea224fe,,,,,,,,,1950,73.2109375,-35.8984375,1,0,0,response3disk,,5,25.1171875,-10.8125,1,0,0,rectangle,25.1171875,-10.8125,1,0,0,25.1171875,-10.8125,1,0,0,1,36,196,133,1,,,,,,,,
,,,,,,,,,,,,,FF,,,,,,,,0.6015,,,,,,,,,,,,,,,,,,,,,,60fe1bea2504195ce9899d35,610378bde5f42b4bea54f83d,2021-07-29_23h59.06.067,Simcolourproject_2stim_asymm_v5,2020.2.10,MacIntel,60,61025ae37ef11b136ea224fe,,,,,,,,,2556,55.94140625,-55.9140625,1,0,0,response3disk,,5,-6.41796875,6.25390625,1,0,0,rectangle,-6.41796875,6.25390625,1,0,0,-6.41796875,6.25390625,1,0,0,1,37,197,59,1,,,,,,,,
,,,,,,,,,,,,,FF,,,,,,,,0.7677,,,,,,,,,,,,,,,,,,,,,,60fe1bea2504195ce9899d35,610378bde5f42b4bea54f83d,2021-07-29_23h59.06.067,Simcolourproject_2stim_asymm_v5,2020.2.10,MacIntel,60,61025ae37ef11b136ea224fe,,,,,,,,,2957,56.328125,39.33984375,1,0,0,response1disk,,6,22.83203125,11.7421875,1,0,0,rectangle,22.83203125,11.7421875,1,0,0,22.83203125,11.7421875,1,0,0,1,38,198,136,1,,,,,,,,
,,,,,,,,,,,,,FF,,,,,,,,1.1512,,,,,,,,,,,,,,,,,,,,,,60fe1bea2504195ce9899d35,610378bde5f42b4bea54f83d,2021-07-29_23h59.06.067,Simcolourproject_2stim_asymm_v5,2020.2.10,MacIntel,60,61025ae37ef11b136ea224fe,,,,,,,,,305,49.71484375,41.1015625,1,0,0,response1disk,,6,12.75390625,-1.80859375,1,0,0,rectangle,12.75390625,-1.80859375,1,0,0,12.75390625,-1.80859375,1,0,0,1,39,199,153,1,,,,,,,,
,,,,,,,,,,,,,FF,,,,,,,,0.5532,,,,,,,,,,,,,,,,,,,,,,60fe1bea2504195ce9899d35,610378bde5f42b4bea54f83d,2021-07-29_23h59.06.067,Simcolourproject_2stim_asymm_v5,2020.2.10,MacIntel,60,61025ae37ef11b136ea224fe,,,,,,,,,2051,70.78125,-24.8359375,1,0,0,response3disk,,5,24.78515625,3.0234375,1,0,0,rectangle,24.78515625,3.0234375,1,0,0,24.78515625,3.0234375,1,0,0,1,40,200,127,1,,,,,,,,
,,,,,,,,,,,,,FF,,,,,,,,0.7686,,,,,,,,,,,,,,,,,,,,,,60fe1bea2504195ce9899d35,610378bde5f42b4bea54f83d,2021-07-29_23h59.06.067,Simcolourproject_2stim_asymm_v5,2020.2.10,MacIntel,60,61025ae37ef11b136ea224fe,,,,,,,,,2230,52.5,-45.484375,1,0,0,response3disk,,5,9.70703125,-13.40625,1,0,0,rectangle,9.70703125,-13.40625,1,0,0,9.70703125,-13.40625,1,0,0,1,41,201,137,1,,,,,,,,
,,,,,,,,,,,,,FF,,,,,,,,1.0862,,,,,,,,,,,,,,,,,,,,,,60fe1bea2504195ce9899d35,610378bde5f42b4bea54f83d,2021-07-29_23h59.06.067,Simcolourproject_2stim_asymm_v5,2020.2.10,MacIntel,60,61025ae37ef11b136ea224fe,,,,,,,,,3100,-75.390625,-62.046875,1,0,0,response5disk,,2,-4.88671875,-15.63671875,1,0,0,rectangle,-4.88671875,-15.63671875,1,0,0,-4.88671875,-15.63671875,1,0,0,1,42,202,111,1,,,,,,,,
,,,,,,,,,,,,,FF,,,,,,,,1.1708,,,,,,,,,,,,,,,,,,,,,,60fe1bea2504195ce9899d35,610378bde5f42b4bea54f83d,2021-07-29_23h59.06.067,Simcolourproject_2stim_asymm_v5,2020.2.10,MacIntel,60,61025ae37ef11b136ea224fe,,,,,,,,,1385,86.32421875,-33.75390625,1,0,0,response3disk,,5,26.52734375,-0.11328125,1,0,0,rectangle,26.52734375,-0.11328125,1,0,0,26.52734375,-0.11328125,1,0,0,1,43,203,83,1,,,,,,,,
,,,,,,,,,,,,,FF,,,,,,,,0.7339,,,,,,,,,,,,,,,,,,,,,,60fe1bea2504195ce9899d35,610378bde5f42b4bea54f83d,2021-07-29_23h59.06.067,Simcolourproject_2stim_asymm_v5,2020.2.10,MacIntel,60,61025ae37ef11b136ea224fe,,,,,,,,,2253,36.09765625,-52.125,1,0,0,response3disk,,4,26.84765625,-7.38671875,1,0,0,rectangle,26.84765625,-7.38671875,1,0,0,26.84765625,-7.38671875,1,0,0,1,44,204,29,1,,,,,,,,
,,,,,,,,,,,,,FF,,,,,,,,0.6854,,,,,,,,,,,,,,,,,,,,,,60fe1bea2504195ce9899d35,610378bde5f42b4bea54f83d,2021-07-29_23h59.06.067,Simcolourproject_2stim_asymm_v5,2020.2.10,MacIntel,60,61025ae37ef11b136ea224fe,,,,,,,,,58,87.87109375,-45.4296875,1,0,0,response3disk,,5,20.51953125,-7.84375,1,0,0,rectangle,20.51953125,-7.84375,1,0,0,20.51953125,-7.84375,1,0,0,1,45,205,128,1,,,,,,,,
,,,,,,,,,,,,,FF,,,,,,,,1.1554,,,,,,,,,,,,,,,,,,,,,,60fe1bea2504195ce9899d35,610378bde5f42b4bea54f83d,2021-07-29_23h59.06.067,Simcolourproject_2stim_asymm_v5,2020.2.10,MacIntel,60,61025ae37ef11b136ea224fe,,,,,,,,,3680,-40.734375,-128.1796875,1,0,0,response5disk,,3,10.8671875,-13.4765625,1,0,0,rectangle,10.8671875,-13.4765625,1,0,0,10.8671875,-13.4765625,1,0,0,1,46,206,57,1,,,,,,,,
,,,,,,,,,,,,,FF,,,,,,,,1.2197,,,,,,,,,,,,,,,,,,,,,,60fe1bea2504195ce9899d35,610378bde5f42b4bea54f83d,2021-07-29_23h59.06.067,Simcolourproject_2stim_asymm_v5,2020.2.10,MacIntel,60,61025ae37ef11b136ea224fe,,,,,,,,,499,85.140625,42.36328125,1,0,0,response1disk,,6,4.6953125,15.4453125,1,0,0,rectangle,4.6953125,15.4453125,1,0,0,4.6953125,15.4453125,1,0,0,1,47,207,72,1,,,,,,,,
,,,,,,,,,,,,,FF,,,,,,,,1.74,,,,,,,,,,,,,,,,,,,,,,60fe1bea2504195ce9899d35,610378bde5f42b4bea54f83d,2021-07-29_23h59.06.067,Simcolourproject_2stim_asymm_v5,2020.2.10,MacIntel,60,61025ae37ef11b136ea224fe,,,,,,,,,188,-71.0703125,-37.10546875,1,0,0,response5disk,,2,-20.2109375,-10.1640625,1,0,0,rectangle,-20.2109375,-10.1640625,1,0,0,-20.2109375,-10.1640625,1,0,0,1,48,208,149,1,,,,,,,,
,,,,,,,,,,,,,FF,,,,,,,,0.8707,,,,,,,,,,,,,,,,,,,,,,60fe1bea2504195ce9899d35,610378bde5f42b4bea54f83d,2021-07-29_23h59.06.067,Simcolourproject_2stim_asymm_v5,2020.2.10,MacIntel,60,61025ae37ef11b136ea224fe,,,,,,,,,73,30.203125,-69.07421875,1,0,0,response3disk,,4,26.8515625,-10.8125,1,0,0,rectangle,26.8515625,-10.8125,1,0,0,26.8515625,-10.8125,1,0,0,1,49,209,119,1,,,,,,,,
,,,,,,,,,,,,,FF,,,,,,,,2.0878,,,,,,,,,,,,,,,,,,,,,,60fe1bea2504195ce9899d35,610378bde5f42b4bea54f83d,2021-07-29_23h59.06.067,Simcolourproject_2stim_asymm_v5,2020.2.10,MacIntel,60,61025ae37ef11b136ea224fe,,,,,,,,,2983,74.94140625,-49.28515625,1,0,0,response3disk,,5,18.86328125,-9.52734375,1,0,0,rectangle,18.86328125,-9.52734375,1,0,0,18.86328125,-9.52734375,1,0,0,1,50,210,74,1,,,,,,,,
,,,,,,,,,,,,,FF,,,,,,,,0.8188,,,,,,,,,,,,,,,,,,,,,,60fe1bea2504195ce9899d35,610378bde5f42b4bea54f83d,2021-07-29_23h59.06.067,Simcolourproject_2stim_asymm_v5,2020.2.10,MacIntel,60,61025ae37ef11b136ea224fe,,,,,,,,,4295,-29.2578125,-76.609375,1,0,0,response5disk,,3,1.00390625,-5.13671875,1,0,0,rectangle,1.00390625,-5.13671875,1,0,0,1.00390625,-5.13671875,1,0,0,1,51,211,97,1,,,,,,,,
,,,,,,,,,,,,,FF,,,,,,,,0.7533,,,,,,,,,,,,,,,,,,,,,,60fe1bea2504195ce9899d35,610378bde5f42b4bea54f83d,2021-07-29_23h59.06.067,Simcolourproject_2stim_asymm_v5,2020.2.10,MacIntel,60,61025ae37ef11b136ea224fe,,,,,,,,,2325,62.375,-27.27734375,1,0,0,response3disk,,5,20.5546875,-1.765625,1,0,0,rectangle,20.5546875,-1.765625,1,0,0,20.5546875,-1.765625,1,0,0,1,52,212,58,1,,,,,,,,
,,,,,,,,,,,,,FF,,,,,,,,1.0512,,,,,,,,,,,,,,,,,,,,,,60fe1bea2504195ce9899d35,610378bde5f42b4bea54f83d,2021-07-29_23h59.06.067,Simcolourproject_2stim_asymm_v5,2020.2.10,MacIntel,60,61025ae37ef11b136ea224fe,,,,,,,,,3991,32.95703125,39.92578125,1,0,0,response1disk,,7,23.6171875,16.5546875,1,0,0,rectangle,23.6171875,16.5546875,1,0,0,23.6171875,16.5546875,1,0,0,1,53,213,18,1,,,,,,,,
,,,,,,,,,,,,,FF,,,,,,,,0.887,,,,,,,,,,,,,,,,,,,,,,60fe1bea2504195ce9899d35,610378bde5f42b4bea54f83d,2021-07-29_23h59.06.067,Simcolourproject_2stim_asymm_v5,2020.2.10,MacIntel,60,61025ae37ef11b136ea224fe,,,,,,,,,3428,-39.703125,-45.7578125,1,0,0,response5disk,,3,-10.609375,-6.8984375,1,0,0,rectangle,-10.609375,-6.8984375,1,0,0,-10.609375,-6.8984375,1,0,0,1,54,214,66,1,,,,,,,,
,,,,,,,,,,,,,FF,,,,,,,,0.6865,,,,,,,,,,,,,,,,,,,,,,60fe1bea2504195ce9899d35,610378bde5f42b4bea54f83d,2021-07-29_23h59.06.067,Simcolourproject_2stim_asymm_v5,2020.2.10,MacIntel,60,61025ae37ef11b136ea224fe,,,,,,,,,2720,34.96484375,-92.86328125,1,0,0,response3disk,,4,31.20703125,4.42578125,1,0,0,rectangle,31.20703125,4.42578125,1,0,0,31.20703125,4.42578125,1,0,0,1,55,215,2,1,,,,,,,,
,,,,,,,,,,,,,FF,,,,,,,,0.7695,,,,,,,,,,,,,,,,,,,,,,60fe1bea2504195ce9899d35,610378bde5f42b4bea54f83d,2021-07-29_23h59.06.067,Simcolourproject_2stim_asymm_v5,2020.2.10,MacIntel,60,61025ae37ef11b136ea224fe,,,,,,,,,2717,92.3515625,-30.51171875,1,0,0,response3disk,,5,33.13671875,-15.83984375,1,0,0,rectangle,33.13671875,-15.83984375,1,0,0,33.13671875,-15.83984375,1,0,0,1,56,216,17,1,,,,,,,,
,,,,,,,,,,,,,FF,,,,,,,,0.8008,,,,,,,,,,,,,,,,,,,,,,60fe1bea2504195ce9899d35,610378bde5f42b4bea54f83d,2021-07-29_23h59.06.067,Simcolourproject_2stim_asymm_v5,2020.2.10,MacIntel,60,61025ae37ef11b136ea224fe,,,,,,,,,1731,103.0351563,39.8828125,1,0,0,response1disk,,6,10.94921875,12.71875,1,0,0,rectangle,10.94921875,12.71875,1,0,0,10.94921875,12.71875,1,0,0,1,57,217,98,1,,,,,,,,
,,,,,,,,,,,,,FF,,,,,,,,0.5326,,,,,,,,,,,,,,,,,,,,,,60fe1bea2504195ce9899d35,610378bde5f42b4bea54f83d,2021-07-29_23h59.06.067,Simcolourproject_2stim_asymm_v5,2020.2.10,MacIntel,60,61025ae37ef11b136ea224fe,,,,,,,,,408,68.09375,103.140625,1,0,0,response1disk,,7,15.21875,-8.265625,1,0,0,rectangle,15.21875,-8.265625,1,0,0,15.21875,-8.265625,1,0,0,1,58,218,45,1,,,,,,,,
,,,,,,,,,,,,,FF,,,,,,,,0.799,,,,,,,,,,,,,,,,,,,,,,60fe1bea2504195ce9899d35,610378bde5f42b4bea54f83d,2021-07-29_23h59.06.067,Simcolourproject_2stim_asymm_v5,2020.2.10,MacIntel,60,61025ae37ef11b136ea224fe,,,,,,,,,2513,68.546875,96.56640625,1,0,0,response1disk,,7,13.63671875,-5.19921875,1,0,0,rectangle,13.63671875,-5.19921875,1,0,0,13.63671875,-5.19921875,1,0,0,1,59,219,102,1,,,,,,,,
,,,,,,,,,,,,,FF,,,,,,,,0.7004,,,,,,,,,,,,,,,,,,,,,,60fe1bea2504195ce9899d35,610378bde5f42b4bea54f83d,2021-07-29_23h59.06.067,Simcolourproject_2stim_asymm_v5,2020.2.10,MacIntel,60,61025ae37ef11b136ea224fe,,,,,,,,,4259,67.32421875,-19.19921875,1,0,0,response3disk,,5,12.64453125,5.69140625,1,0,0,rectangle,12.64453125,5.69140625,1,0,0,12.64453125,5.69140625,1,0,0,1,60,220,107,1,,,,,,,,
,,,,,,,,,,,,,FF,,,,,,,,2.2235,,,,,,,,,,,,,,,,,,,,,,60fe1bea2504195ce9899d35,610378bde5f42b4bea54f83d,2021-07-29_23h59.06.067,Simcolourproject_2stim_asymm_v5,2020.2.10,MacIntel,60,61025ae37ef11b136ea224fe,,,,,,,,,2475,40.67578125,71.265625,1,0,0,response1disk,,7,19.49609375,-0.078125,1,0,0,rectangle,19.49609375,-0.078125,1,0,0,19.49609375,-0.078125,1,0,0,1,61,221,40,1,,,,,,,,
,,,,,,,,,,,,,FF,,,,,,,,1.037,,,,,,,,,,,,,,,,,,,,,,60fe1bea2504195ce9899d35,610378bde5f42b4bea54f83d,2021-07-29_23h59.06.067,Simcolourproject_2stim_asymm_v5,2020.2.10,MacIntel,60,61025ae37ef11b136ea224fe,,,,,,,,,4083,112.921875,-35.3984375,1,0,0,response3disk,,5,30.296875,-12.359375,1,0,0,rectangle,30.296875,-12.359375,1,0,0,30.296875,-12.359375,1,0,0,1,62,222,112,1,,,,,,,,
,,,,,,,,,,,,,FF,,,,,,,,0.9339,,,,,,,,,,,,,,,,,,,,,,60fe1bea2504195ce9899d35,610378bde5f42b4bea54f83d,2021-07-29_23h59.06.067,Simcolourproject_2stim_asymm_v5,2020.2.10,MacIntel,60,61025ae37ef11b136ea224fe,,,,,,,,,4028,89.88671875,34.3828125,1,0,0,response1disk,,6,25.4609375,6.26953125,1,0,0,rectangle,25.4609375,6.26953125,1,0,0,25.4609375,6.26953125,1,0,0,1,63,223,24,1,,,,,,,,
,,,,,,,,,,,,,FF,,,,,,,,0.6194,,,,,,,,,,,,,,,,,,,,,,60fe1bea2504195ce9899d35,610378bde5f42b4bea54f83d,2021-07-29_23h59.06.067,Simcolourproject_2stim_asymm_v5,2020.2.10,MacIntel,60,61025ae37ef11b136ea224fe,,,,,,,,,162,46.35546875,-79.26171875,1,0,0,response3disk,,4,32.61328125,-1.4296875,1,0,0,rectangle,32.61328125,-1.4296875,1,0,0,32.61328125,-1.4296875,1,0,0,1,64,224,37,1,,,,,,,,
,,,,,,,,,,,,,FF,,,,,,,,0.7352,,,,,,,,,,,,,,,,,,,,,,60fe1bea2504195ce9899d35,610378bde5f42b4bea54f83d,2021-07-29_23h59.06.067,Simcolourproject_2stim_asymm_v5,2020.2.10,MacIntel,60,61025ae37ef11b136ea224fe,,,,,,,,,484,73.16796875,-43.4765625,1,0,0,response3disk,,5,21.87890625,-14.6328125,1,0,0,rectangle,21.87890625,-14.6328125,1,0,0,21.87890625,-14.6328125,1,0,0,1,65,225,39,1,,,,,,,,
,,,,,,,,,,,,,FF,,,,,,,,0.8686,,,,,,,,,,,,,,,,,,,,,,60fe1bea2504195ce9899d35,610378bde5f42b4bea54f83d,2021-07-29_23h59.06.067,Simcolourproject_2stim_asymm_v5,2020.2.10,MacIntel,60,61025ae37ef11b136ea224fe,,,,,,,,,3361,70.10546875,35.20703125,1,0,0,response1disk,,6,9.59375,8.61328125,1,0,0,rectangle,9.59375,8.61328125,1,0,0,9.59375,8.61328125,1,0,0,1,66,226,94,1,,,,,,,,
,,,,,,,,,,,,,FF,,,,,,,,0.8188,,,,,,,,,,,,,,,,,,,,,,60fe1bea2504195ce9899d35,610378bde5f42b4bea54f83d,2021-07-29_23h59.06.067,Simcolourproject_2stim_asymm_v5,2020.2.10,MacIntel,60,61025ae37ef11b136ea224fe,,,,,,,,,3548,64.4921875,24.03125,1,0,0,response1disk,,6,14.89453125,-3.91796875,1,0,0,rectangle,14.89453125,-3.91796875,1,0,0,14.89453125,-3.91796875,1,0,0,1,67,227,154,1,,,,,,,,
,,,,,,,,,,,,,FF,,,,,,,,1.2357,,,,,,,,,,,,,,,,,,,,,,60fe1bea2504195ce9899d35,610378bde5f42b4bea54f83d,2021-07-29_23h59.06.067,Simcolourproject_2stim_asymm_v5,2020.2.10,MacIntel,60,61025ae37ef11b136ea224fe,,,,,,,,,2800,66.2265625,-36.70703125,1,0,0,response3disk,,5,35.90625,-15.234375,1,0,0,rectangle,35.90625,-15.234375,1,0,0,35.90625,-15.234375,1,0,0,1,68,228,113,1,,,,,,,,
,,,,,,,,,,,,,FF,,,,,,,,0.6171,,,,,,,,,,,,,,,,,,,,,,60fe1bea2504195ce9899d35,610378bde5f42b4bea54f83d,2021-07-29_23h59.06.067,Simcolourproject_2stim_asymm_v5,2020.2.10,MacIntel,60,61025ae37ef11b136ea224fe,,,,,,,,,2573,104.1679688,68.18359375,1,0,0,response1disk,,6,-1.5390625,-9.63671875,1,0,0,rectangle,-1.5390625,-9.63671875,1,0,0,-1.5390625,-9.63671875,1,0,0,1,69,229,11,1,,,,,,,,
,,,,,,,,,,,,,FF,,,,,,,,1.5032,,,,,,,,,,,,,,,,,,,,,,60fe1bea2504195ce9899d35,610378bde5f42b4bea54f83d,2021-07-29_23h59.06.067,Simcolourproject_2stim_asymm_v5,2020.2.10,MacIntel,60,61025ae37ef11b136ea224fe,,,,,,,,,3046,-59.203125,33.296875,1,0,0,response7disk,,1,5.265625,-12.26953125,1,0,0,rectangle,5.265625,-12.26953125,1,0,0,5.265625,-12.26953125,1,0,0,1,70,230,69,1,,,,,,,,
,,,,,,,,,,,,,FF,,,,,,,,13.6544,,,,,,,,,,,,,,,,,,,,,,60fe1bea2504195ce9899d35,610378bde5f42b4bea54f83d,2021-07-29_23h59.06.067,Simcolourproject_2stim_asymm_v5,2020.2.10,MacIntel,60,61025ae37ef11b136ea224fe,,,,,,,,,1997,46.7109375,-30.9140625,1,0,0,response3disk,,5,3.0859375,-2.5625,1,0,0,rectangle,3.0859375,-2.5625,1,0,0,3.0859375,-2.5625,1,0,0,1,71,231,92,1,,,,,,,,
,,,,,,,,,,,,,FF,,,,,,,,1.4036,,,,,,,,,,,,,,,,,,,,,,60fe1bea2504195ce9899d35,610378bde5f42b4bea54f83d,2021-07-29_23h59.06.067,Simcolourproject_2stim_asymm_v5,2020.2.10,MacIntel,60,61025ae37ef11b136ea224fe,,,,,,,,,2063,63.3671875,30.19921875,1,0,0,response1disk,,6,-1.44921875,-2.8046875,1,0,0,rectangle,-1.44921875,-2.8046875,1,0,0,-1.44921875,-2.8046875,1,0,0,1,72,232,61,1,,,,,,,,
,,,,,,,,,,,,,FF,,,,,,,,0.7716,,,,,,,,,,,,,,,,,,,,,,60fe1bea2504195ce9899d35,610378bde5f42b4bea54f83d,2021-07-29_23h59.06.067,Simcolourproject_2stim_asymm_v5,2020.2.10,MacIntel,60,61025ae37ef11b136ea224fe,,,,,,,,,94,-65.01953125,42.8984375,1,0,0,response7disk,,1,-2.11328125,-7.60546875,1,0,0,rectangle,-2.11328125,-7.60546875,1,0,0,-2.11328125,-7.60546875,1,0,0,1,73,233,21,1,,,,,,,,
,,,,,,,,,,,,,FF,,,,,,,,0.9193,,,,,,,,,,,,,,,,,,,,,,60fe1bea2504195ce9899d35,610378bde5f42b4bea54f83d,2021-07-29_23h59.06.067,Simcolourproject_2stim_asymm_v5,2020.2.10,MacIntel,60,61025ae37ef11b136ea224fe,,,,,,,,,4251,-50.00390625,103.8867188,1,0,0,response7disk,,0,-2.875,-6.6015625,1,0,0,rectangle,-2.875,-6.6015625,1,0,0,-2.875,-6.6015625,1,0,0,1,74,234,104,1,,,,,,,,
,,,,,,,,,,,,,FF,,,,,,,,0.752,,,,,,,,,,,,,,,,,,,,,,60fe1bea2504195ce9899d35,610378bde5f42b4bea54f83d,2021-07-29_23h59.06.067,Simcolourproject_2stim_asymm_v5,2020.2.10,MacIntel,60,61025ae37ef11b136ea224fe,,,,,,,,,3636,36.1640625,-85.27734375,1,0,0,response3disk,,4,21.04296875,-7.5,1,0,0,rectangle,21.04296875,-7.5,1,0,0,21.04296875,-7.5,1,0,0,1,75,235,157,1,,,,,,,,
,,,,,,,,,,,,,FF,,,,,,,,0.602,,,,,,,,,,,,,,,,,,,,,,60fe1bea2504195ce9899d35,610378bde5f42b4bea54f83d,2021-07-29_23h59.06.067,Simcolourproject_2stim_asymm_v5,2020.2.10,MacIntel,60,61025ae37ef11b136ea224fe,,,,,,,,,1525,51.05078125,-31.91796875,1,0,0,response3disk,,5,18.18359375,-12.03125,1,0,0,rectangle,18.18359375,-12.03125,1,0,0,18.18359375,-12.03125,1,0,0,1,76,236,114,1,,,,,,,,
,,,,,,,,,,,,,FF,,,,,,,,0.5856,,,,,,,,,,,,,,,,,,,,,,60fe1bea2504195ce9899d35,610378bde5f42b4bea54f83d,2021-07-29_23h59.06.067,Simcolourproject_2stim_asymm_v5,2020.2.10,MacIntel,60,61025ae37ef11b136ea224fe,,,,,,,,,331,61.03125,28.8671875,1,0,0,response1disk,,6,15.48046875,10.3046875,1,0,0,rectangle,15.48046875,10.3046875,1,0,0,15.48046875,10.3046875,1,0,0,1,77,237,85,1,,,,,,,,
,,,,,,,,,,,,,FF,,,,,,,,0.8002,,,,,,,,,,,,,,,,,,,,,,60fe1bea2504195ce9899d35,610378bde5f42b4bea54f83d,2021-07-29_23h59.06.067,Simcolourproject_2stim_asymm_v5,2020.2.10,MacIntel,60,61025ae37ef11b136ea224fe,,,,,,,,,3397,-66.09765625,-35.95703125,1,0,0,response5disk,,2,-34.01953125,-10.0859375,1,0,0,rectangle,-34.01953125,-10.0859375,1,0,0,-34.01953125,-10.0859375,1,0,0,1,78,238,140,1,,,,,,,,
,,,,,,,,,,,,,FF,,,,,,,,0.8522,,,,,,,,,,,,,,,,,,,,,,60fe1bea2504195ce9899d35,610378bde5f42b4bea54f83d,2021-07-29_23h59.06.067,Simcolourproject_2stim_asymm_v5,2020.2.10,MacIntel,60,61025ae37ef11b136ea224fe,,,,,,,,,3787,44.3984375,75.73046875,1,0,0,response1disk,,7,11.25390625,-0.296875,1,0,0,rectangle,11.25390625,-0.296875,1,0,0,11.25390625,-0.296875,1,0,0,1,79,239,77,1,,,,,,,,
,,,,,,,,,,,,,FF,,,,,,,,0.6685,,,,,,,,,,,,,,,,,,,,,,60fe1bea2504195ce9899d35,610378bde5f42b4bea54f83d,2021-07-29_23h59.06.067,Simcolourproject_2stim_asymm_v5,2020.2.10,MacIntel,60,61025ae37ef11b136ea224fe,,,,,,,,,2359,53.09765625,-27.90234375,1,0,0,response3disk,,5,14.59375,-0.6171875,1,0,0,rectangle,14.59375,-0.6171875,1,0,0,14.59375,-0.6171875,1,0,0,1,80,240,48,1,,,,,,,,
,,,,,,,,,,,,,FF,,,,,,,,0.7535,,,,,,,,,,,,,,,,,,,,,,60fe1bea2504195ce9899d35,610378bde5f42b4bea54f83d,2021-07-29_23h59.06.067,Simcolourproject_2stim_asymm_v5,2020.2.10,MacIntel,60,61025ae37ef11b136ea224fe,,,,,,,,,1380,36.7578125,-70.5859375,1,0,0,response3disk,,4,16.55078125,-3.76171875,1,0,0,rectangle,16.55078125,-3.76171875,1,0,0,16.55078125,-3.76171875,1,0,0,1,81,241,130,1,,,,,,,,
,,,,,,,,,,,,,FF,,,,,,,,0.7711,,,,,,,,,,,,,,,,,,,,,,60fe1bea2504195ce9899d35,610378bde5f42b4bea54f83d,2021-07-29_23h59.06.067,Simcolourproject_2stim_asymm_v5,2020.2.10,MacIntel,60,61025ae37ef11b136ea224fe,,,,,,,,,1050,-42.7421875,81.40625,1,0,0,response7disk,,0,-21.0703125,10.4921875,1,0,0,rectangle,-21.0703125,10.4921875,1,0,0,-21.0703125,10.4921875,1,0,0,1,82,242,93,1,,,,,,,,
,,,,,,,,,,,,,FF,,,,,,,,0.7349,,,,,,,,,,,,,,,,,,,,,,60fe1bea2504195ce9899d35,610378bde5f42b4bea54f83d,2021-07-29_23h59.06.067,Simcolourproject_2stim_asymm_v5,2020.2.10,MacIntel,60,61025ae37ef11b136ea224fe,,,,,,,,,1705,-27.4453125,-56.7890625,1,0,0,response5disk,,3,-2.73828125,-3.7109375,1,0,0,rectangle,-57.59375,117.1796875,1,0,0,-3.89453125,2.61328125,1,0,0,1,83,243,80,1,,response7disk_3,TRUE,0,0,"[81,314,244,110,85,249,91,120,152,34,2,265,275,167,63,300,95,297,16,32]",1.3363,rectangle
,,,,,,,,,,,,,FF,,,,,,,,0.951,,,,,,,,,,,,,,,,,,,,,,60fe1bea2504195ce9899d35,610378bde5f42b4bea54f83d,2021-07-29_23h59.06.067,Simcolourproject_2stim_asymm_v5,2020.2.10,MacIntel,60,61025ae37ef11b136ea224fe,,,,,,,,,726,-26.265625,-60.35546875,1,0,0,response5disk,,3,-19.12890625,-0.6796875,1,0,0,rectangle,-19.12890625,-0.6796875,1,0,0,-19.12890625,-0.6796875,1,0,0,1,84,244,41,1,,,,,,,,
,,,,,,,,,,,,,FF,,,,,,,,0.8357,,,,,,,,,,,,,,,,,,,,,,60fe1bea2504195ce9899d35,610378bde5f42b4bea54f83d,2021-07-29_23h59.06.067,Simcolourproject_2stim_asymm_v5,2020.2.10,MacIntel,60,61025ae37ef11b136ea224fe,,,,,,,,,4317,53.4375,92.5390625,1,0,0,response1disk,,7,9.93359375,7.87890625,1,0,0,rectangle,9.93359375,7.87890625,1,0,0,9.93359375,7.87890625,1,0,0,1,85,245,64,1,,,,,,,,
,,,,,,,,,,,,,FF,,,,,,,,0.6364,,,,,,,,,,,,,,,,,,,,,,60fe1bea2504195ce9899d35,610378bde5f42b4bea54f83d,2021-07-29_23h59.06.067,Simcolourproject_2stim_asymm_v5,2020.2.10,MacIntel,60,61025ae37ef11b136ea224fe,,,,,,,,,998,86.44140625,43.3046875,1,0,0,response1disk,,6,19.6328125,1.046875,1,0,0,rectangle,19.6328125,1.046875,1,0,0,19.6328125,1.046875,1,0,0,1,86,246,117,1,,,,,,,,
,,,,,,,,,,,,,FF,,,,,,,,0.5682,,,,,,,,,,,,,,,,,,,,,,60fe1bea2504195ce9899d35,610378bde5f42b4bea54f83d,2021-07-29_23h59.06.067,Simcolourproject_2stim_asymm_v5,2020.2.10,MacIntel,60,61025ae37ef11b136ea224fe,,,,,,,,,2974,51.4140625,-27.0234375,1,0,0,response3disk,,5,19.578125,-4.8828125,1,0,0,rectangle,19.578125,-4.8828125,1,0,0,19.578125,-4.8828125,1,0,0,1,87,247,27,1,,,,,,,,
