key_resp.keys,key_resp.rt,key_resp_14.keys,key_resp_14.rt,key_resp_15.keys,key_resp_15.rt,key_resp_17.keys,key_resp_17.rt,key_resp_9.keys,key_resp_9.rt,key_resp_10.keys,key_resp_10.rt,practice_comparison,Ecc,mouse_5.x,mouse_5.y,mouse_5.leftButton,mouse_5.midButton,mouse_5.rightButton,mouse_5.clicked_name,pracsimilarity,response_time,mouse_10.x,mouse_10.y,mouse_10.leftButton,mouse_10.midButton,mouse_10.rightButton,mouse_10.clicked_name,mouse_7.x,mouse_7.y,mouse_7.leftButton,mouse_7.midButton,mouse_7.rightButton,mouse_6.x,mouse_6.y,mouse_6.leftButton,mouse_6.midButton,mouse_6.rightButton,duringprac.thisRepN,duringprac.thisTrialN,duringprac.thisN,duringprac.thisIndex,duringprac.ran,participant,session,date,expName,psychopyVersion,OS,frameRate,study_id,mouse_7.clicked_name,catchpracsimilarity,catch_response_time,catchnumberprac,catchtrialorderprac,mouse_6.clicked_name,key_resp_22.keys,key_resp_22.rt,realcomparison,mouse.x,mouse.y,mouse.leftButton,mouse.midButton,mouse.rightButton,mouse.clicked_name,Colour2,similarity,mouse_2.x,mouse_2.y,mouse_2.leftButton,mouse_2.midButton,mouse_2.rightButton,mouse_2.clicked_name,mouse_3.x,mouse_3.y,mouse_3.leftButton,mouse_3.midButton,mouse_3.rightButton,mouse_11.x,mouse_11.y,mouse_11.leftButton,mouse_11.midButton,mouse_11.rightButton,trials_2.thisRepN,trials_2.thisTrialN,trials_2.thisN,trials_2.thisIndex,trials_2.ran,Colour1,mouse_3.clicked_name,catchornah,catchsimilarity,catchnumber,catchtrialorder,catchRT,mouse_11.clicked_name
space,4.3091,space,18.0151,space,26.9013,space,8.5167,space,3.9935,space,5.1342,53,PF,-67,-57,1,0,0,response5disk_5,2,14.334,4,-3,1,0,0,rectangle_8,4,-3,1,0,0,4,-3,1,0,0,0,0,0,2,1,60fe06feb5a616377ef806da,61036e26f9352193ec528f9d,2021-07-29_20h19.33.289,Simcolourproject_2stim_asymm_v5,2020.2.10,Win32,60,61025ae37ef11b136ea224fe,,,,,,,,,,,,,,,,,,,,,,,,,,,,,,,,,,,,,,,,,,,,,,
,,,,,,,,,,,,129,PF,-70,38,1,0,0,response7disk_5,1,4.3777,7,-5,1,0,0,rectangle_8,91,34,1,0,0,-19,-1,1,0,0,0,1,1,4,1,60fe06feb5a616377ef806da,61036e26f9352193ec528f9d,2021-07-29_20h19.33.289,Simcolourproject_2stim_asymm_v5,2020.2.10,Win32,60,61025ae37ef11b136ea224fe,response1disk_7,6,2.3467,6,"[2,5]",rectangle_4,,,,,,,,,,,,,,,,,,,,,,,,,,,,,,,,,,,,,,,,
,,,,,,,,,,,,46,PF,41,-87,1,0,0,response3disk_5,4,5.1266,-1,-1,1,0,0,rectangle_8,-1,-1,1,0,0,-1,-1,1,0,0,0,2,2,6,1,60fe06feb5a616377ef806da,61036e26f9352193ec528f9d,2021-07-29_20h19.33.289,Simcolourproject_2stim_asymm_v5,2020.2.10,Win32,60,61025ae37ef11b136ea224fe,,,,,,,,,,,,,,,,,,,,,,,,,,,,,,,,,,,,,,,,,,,,,,
,,,,,,,,,,,,141,PF,50,79,1,0,0,response1disk_5,7,2.6799,14,-7,1,0,0,rectangle_8,14,-7,1,0,0,14,-7,1,0,0,0,3,3,1,1,60fe06feb5a616377ef806da,61036e26f9352193ec528f9d,2021-07-29_20h19.33.289,Simcolourproject_2stim_asymm_v5,2020.2.10,Win32,60,61025ae37ef11b136ea224fe,,,,,,,,,,,,,,,,,,,,,,,,,,,,,,,,,,,,,,,,,,,,,,
,,,,,,,,,,,,23,FF,84,-55,1,0,0,response3disk_5,5,8.5707,-1,2,1,0,0,rectangle_8,87,35,1,0,0,-9,1,1,0,0,0,4,4,0,1,60fe06feb5a616377ef806da,61036e26f9352193ec528f9d,2021-07-29_20h19.33.289,Simcolourproject_2stim_asymm_v5,2020.2.10,Win32,60,61025ae37ef11b136ea224fe,response1disk_7,6,1.7636,6,"[2,5]",rectangle_4,,,,,,,,,,,,,,,,,,,,,,,,,,,,,,,,,,,,,,,,
,,,,,,,,,,,,57,FF,-84,-52,1,0,0,response5disk_5,2,3.3111,-14,2,1,0,0,rectangle_8,-14,2,1,0,0,-14,2,1,0,0,0,5,5,5,1,60fe06feb5a616377ef806da,61036e26f9352193ec528f9d,2021-07-29_20h19.33.289,Simcolourproject_2stim_asymm_v5,2020.2.10,Win32,60,61025ae37ef11b136ea224fe,,,,,,,,,,,,,,,,,,,,,,,,,,,,,,,,,,,,,,,,,,,,,,
,,,,,,,,,,,,30,FF,97,35,1,0,0,response1disk_5,6,2.9959,9,8,1,0,0,rectangle_8,9,8,1,0,0,9,8,1,0,0,0,6,6,3,1,60fe06feb5a616377ef806da,61036e26f9352193ec528f9d,2021-07-29_20h19.33.289,Simcolourproject_2stim_asymm_v5,2020.2.10,Win32,60,61025ae37ef11b136ea224fe,,,,,,,,,,,,,,,,,,,,,,,,,,,,,,,,,,,,,,,,,,,,,,
,,,,,,,,,,,,,FF,,,,,,,,4.7602,,,,,,,,,,,,,,,,,,,,,,60fe06feb5a616377ef806da,61036e26f9352193ec528f9d,2021-07-29_20h19.33.289,Simcolourproject_2stim_asymm_v5,2020.2.10,Win32,60,61025ae37ef11b136ea224fe,,,,,,,space,15.9228,1431,108,-44,1,0,0,response3disk,,5,9,0,1,0,0,rectangle,9,0,1,0,0,9,0,1,0,0,0,0,0,13,1,,,,,,,,
,,,,,,,,,,,,,FF,,,,,,,,1.447,,,,,,,,,,,,,,,,,,,,,,60fe06feb5a616377ef806da,61036e26f9352193ec528f9d,2021-07-29_20h19.33.289,Simcolourproject_2stim_asymm_v5,2020.2.10,Win32,60,61025ae37ef11b136ea224fe,,,,,,,,,4097,-76,48,1,0,0,response7disk,,1,-4,-9,1,0,0,rectangle,-4,-9,1,0,0,-4,-9,1,0,0,0,1,1,45,1,,,,,,,,
,,,,,,,,,,,,,FF,,,,,,,,1.847,,,,,,,,,,,,,,,,,,,,,,60fe06feb5a616377ef806da,61036e26f9352193ec528f9d,2021-07-29_20h19.33.289,Simcolourproject_2stim_asymm_v5,2020.2.10,Win32,60,61025ae37ef11b136ea224fe,,,,,,,,,1045,88,42,1,0,0,response1disk,,6,-1,-3,1,0,0,rectangle,-1,-3,1,0,0,-1,-3,1,0,0,0,2,2,37,1,,,,,,,,
,,,,,,,,,,,,,FF,,,,,,,,2.4961,,,,,,,,,,,,,,,,,,,,,,60fe06feb5a616377ef806da,61036e26f9352193ec528f9d,2021-07-29_20h19.33.289,Simcolourproject_2stim_asymm_v5,2020.2.10,Win32,60,61025ae37ef11b136ea224fe,,,,,,,,,793,44,86,1,0,0,response1disk,,7,-4,-2,1,0,0,rectangle,-4,-2,1,0,0,-4,-2,1,0,0,0,3,3,118,1,,,,,,,,
,,,,,,,,,,,,,FF,,,,,,,,1.7299,,,,,,,,,,,,,,,,,,,,,,60fe06feb5a616377ef806da,61036e26f9352193ec528f9d,2021-07-29_20h19.33.289,Simcolourproject_2stim_asymm_v5,2020.2.10,Win32,60,61025ae37ef11b136ea224fe,,,,,,,,,3749,-78,-46,1,0,0,response5disk,,2,3,4,1,0,0,rectangle,3,4,1,0,0,3,4,1,0,0,0,4,4,65,1,,,,,,,,
,,,,,,,,,,,,,FF,,,,,,,,2.0798,,,,,,,,,,,,,,,,,,,,,,60fe06feb5a616377ef806da,61036e26f9352193ec528f9d,2021-07-29_20h19.33.289,Simcolourproject_2stim_asymm_v5,2020.2.10,Win32,60,61025ae37ef11b136ea224fe,,,,,,,,,2742,87,45,1,0,0,response1disk,,6,-3,-9,1,0,0,rectangle,-3,-9,1,0,0,-3,-9,1,0,0,0,5,5,108,1,,,,,,,,
,,,,,,,,,,,,,FF,,,,,,,,3.4609,,,,,,,,,,,,,,,,,,,,,,60fe06feb5a616377ef806da,61036e26f9352193ec528f9d,2021-07-29_20h19.33.289,Simcolourproject_2stim_asymm_v5,2020.2.10,Win32,60,61025ae37ef11b136ea224fe,,,,,,,,,697,100,29,1,0,0,response1disk,,6,-3,4,1,0,0,rectangle,-3,4,1,0,0,-3,4,1,0,0,0,6,6,1,1,,,,,,,,
,,,,,,,,,,,,,FF,,,,,,,,2.694,,,,,,,,,,,,,,,,,,,,,,60fe06feb5a616377ef806da,61036e26f9352193ec528f9d,2021-07-29_20h19.33.289,Simcolourproject_2stim_asymm_v5,2020.2.10,Win32,60,61025ae37ef11b136ea224fe,,,,,,,,,258,-33,-88,1,0,0,response5disk,,3,-7,-1,1,0,0,rectangle,-7,-1,1,0,0,-7,-1,1,0,0,0,7,7,105,1,,,,,,,,
,,,,,,,,,,,,,FF,,,,,,,,4.3934,,,,,,,,,,,,,,,,,,,,,,60fe06feb5a616377ef806da,61036e26f9352193ec528f9d,2021-07-29_20h19.33.289,Simcolourproject_2stim_asymm_v5,2020.2.10,Win32,60,61025ae37ef11b136ea224fe,,,,,,,,,388,82,-48,1,0,0,response3disk,,5,-3,1,1,0,0,rectangle,-3,1,1,0,0,-3,1,1,0,0,0,8,8,119,1,,,,,,,,
,,,,,,,,,,,,,FF,,,,,,,,2.5963,,,,,,,,,,,,,,,,,,,,,,60fe06feb5a616377ef806da,61036e26f9352193ec528f9d,2021-07-29_20h19.33.289,Simcolourproject_2stim_asymm_v5,2020.2.10,Win32,60,61025ae37ef11b136ea224fe,,,,,,,,,1149,43,-90,1,0,0,response3disk,,4,-9,6,1,0,0,rectangle,-9,6,1,0,0,-9,6,1,0,0,0,9,9,104,1,,,,,,,,
,,,,,,,,,,,,,FF,,,,,,,,1.5638,,,,,,,,,,,,,,,,,,,,,,60fe06feb5a616377ef806da,61036e26f9352193ec528f9d,2021-07-29_20h19.33.289,Simcolourproject_2stim_asymm_v5,2020.2.10,Win32,60,61025ae37ef11b136ea224fe,,,,,,,,,3544,40,84,1,0,0,response1disk,,7,7,-2,1,0,0,rectangle,7,-2,1,0,0,7,-2,1,0,0,0,10,10,137,1,,,,,,,,
,,,,,,,,,,,,,FF,,,,,,,,1.9634,,,,,,,,,,,,,,,,,,,,,,60fe06feb5a616377ef806da,61036e26f9352193ec528f9d,2021-07-29_20h19.33.289,Simcolourproject_2stim_asymm_v5,2020.2.10,Win32,60,61025ae37ef11b136ea224fe,,,,,,,,,1147,-47,-94,1,0,0,response5disk,,3,-3,7,1,0,0,rectangle,-3,7,1,0,0,-3,7,1,0,0,0,11,11,36,1,,,,,,,,
,,,,,,,,,,,,,FF,,,,,,,,1.8285,,,,,,,,,,,,,,,,,,,,,,60fe06feb5a616377ef806da,61036e26f9352193ec528f9d,2021-07-29_20h19.33.289,Simcolourproject_2stim_asymm_v5,2020.2.10,Win32,60,61025ae37ef11b136ea224fe,,,,,,,,,3414,97,-39,1,0,0,response3disk,,5,10,7,1,0,0,rectangle,10,7,1,0,0,10,7,1,0,0,0,12,12,29,1,,,,,,,,
,,,,,,,,,,,,,FF,,,,,,,,3.8774,,,,,,,,,,,,,,,,,,,,,,60fe06feb5a616377ef806da,61036e26f9352193ec528f9d,2021-07-29_20h19.33.289,Simcolourproject_2stim_asymm_v5,2020.2.10,Win32,60,61025ae37ef11b136ea224fe,,,,,,,,,2620,96,35,1,0,0,response1disk,,6,-4,-1,1,0,0,rectangle,-4,-1,1,0,0,-4,-1,1,0,0,0,13,13,30,1,,,,,,,,
,,,,,,,,,,,,,FF,,,,,,,,1.5477,,,,,,,,,,,,,,,,,,,,,,60fe06feb5a616377ef806da,61036e26f9352193ec528f9d,2021-07-29_20h19.33.289,Simcolourproject_2stim_asymm_v5,2020.2.10,Win32,60,61025ae37ef11b136ea224fe,,,,,,,,,779,50,81,1,0,0,response1disk,,7,-11,5,1,0,0,rectangle,-11,5,1,0,0,-11,5,1,0,0,0,14,14,21,1,,,,,,,,
,,,,,,,,,,,,,FF,,,,,,,,2.2135,,,,,,,,,,,,,,,,,,,,,,60fe06feb5a616377ef806da,61036e26f9352193ec528f9d,2021-07-29_20h19.33.289,Simcolourproject_2stim_asymm_v5,2020.2.10,Win32,60,61025ae37ef11b136ea224fe,,,,,,,,,991,45,-85,1,0,0,response3disk,,4,6,-1,1,0,0,rectangle,6,-1,1,0,0,6,-1,1,0,0,0,15,15,120,1,,,,,,,,
,,,,,,,,,,,,,FF,,,,,,,,2.0795,,,,,,,,,,,,,,,,,,,,,,60fe06feb5a616377ef806da,61036e26f9352193ec528f9d,2021-07-29_20h19.33.289,Simcolourproject_2stim_asymm_v5,2020.2.10,Win32,60,61025ae37ef11b136ea224fe,,,,,,,,,4155,41,88,1,0,0,response1disk,,7,-5,-4,1,0,0,rectangle,-5,-4,1,0,0,-5,-4,1,0,0,0,16,16,7,1,,,,,,,,
,,,,,,,,,,,,,FF,,,,,,,,2.1468,,,,,,,,,,,,,,,,,,,,,,60fe06feb5a616377ef806da,61036e26f9352193ec528f9d,2021-07-29_20h19.33.289,Simcolourproject_2stim_asymm_v5,2020.2.10,Win32,60,61025ae37ef11b136ea224fe,,,,,,,,,3473,-91,-35,1,0,0,response5disk,,2,-1,1,1,0,0,rectangle,-1,1,1,0,0,-1,1,1,0,0,0,17,17,35,1,,,,,,,,
,,,,,,,,,,,,,FF,,,,,,,,1.481,,,,,,,,,,,,,,,,,,,,,,60fe06feb5a616377ef806da,61036e26f9352193ec528f9d,2021-07-29_20h19.33.289,Simcolourproject_2stim_asymm_v5,2020.2.10,Win32,60,61025ae37ef11b136ea224fe,,,,,,,,,1138,-76,43,1,0,0,response7disk,,1,-2,5,1,0,0,rectangle,-2,5,1,0,0,-2,5,1,0,0,0,18,18,10,1,,,,,,,,
,,,,,,,,,,,,,FF,,,,,,,,2.0631,,,,,,,,,,,,,,,,,,,,,,60fe06feb5a616377ef806da,61036e26f9352193ec528f9d,2021-07-29_20h19.33.289,Simcolourproject_2stim_asymm_v5,2020.2.10,Win32,60,61025ae37ef11b136ea224fe,,,,,,,,,1231,37,-97,1,0,0,response3disk,,4,-4,3,1,0,0,rectangle,-4,3,1,0,0,-4,3,1,0,0,0,19,19,112,1,,,,,,,,
,,,,,,,,,,,,,FF,,,,,,,,15.8423,,,,,,,,,,,,,,,,,,,,,,60fe06feb5a616377ef806da,61036e26f9352193ec528f9d,2021-07-29_20h19.33.289,Simcolourproject_2stim_asymm_v5,2020.2.10,Win32,60,61025ae37ef11b136ea224fe,,,,,,,,,661,51,-107,1,0,0,response3disk,,4,-1,2,1,0,0,rectangle,-1,2,1,0,0,-1,2,1,0,0,0,20,20,107,1,,,,,,,,
,,,,,,,,,,,,,FF,,,,,,,,2.7632,,,,,,,,,,,,,,,,,,,,,,60fe06feb5a616377ef806da,61036e26f9352193ec528f9d,2021-07-29_20h19.33.289,Simcolourproject_2stim_asymm_v5,2020.2.10,Win32,60,61025ae37ef11b136ea224fe,,,,,,,,,3264,99,43,1,0,0,response1disk,,6,-7,-7,1,0,0,rectangle,-7,-7,1,0,0,-7,-7,1,0,0,0,21,21,88,1,,,,,,,,
,,,,,,,,,,,,,FF,,,,,,,,1.6649,,,,,,,,,,,,,,,,,,,,,,60fe06feb5a616377ef806da,61036e26f9352193ec528f9d,2021-07-29_20h19.33.289,Simcolourproject_2stim_asymm_v5,2020.2.10,Win32,60,61025ae37ef11b136ea224fe,,,,,,,,,1541,-47,-75,1,0,0,response5disk,,3,-2,-7,1,0,0,rectangle,-2,-7,1,0,0,-2,-7,1,0,0,0,22,22,62,1,,,,,,,,
,,,,,,,,,,,,,FF,,,,,,,,2.5962,,,,,,,,,,,,,,,,,,,,,,60fe06feb5a616377ef806da,61036e26f9352193ec528f9d,2021-07-29_20h19.33.289,Simcolourproject_2stim_asymm_v5,2020.2.10,Win32,60,61025ae37ef11b136ea224fe,,,,,,,,,3950,45,-87,1,0,0,response3disk,,4,-1,0,1,0,0,rectangle,-1,0,1,0,0,-1,0,1,0,0,0,23,23,122,1,,,,,,,,
,,,,,,,,,,,,,FF,,,,,,,,1.6472,,,,,,,,,,,,,,,,,,,,,,60fe06feb5a616377ef806da,61036e26f9352193ec528f9d,2021-07-29_20h19.33.289,Simcolourproject_2stim_asymm_v5,2020.2.10,Win32,60,61025ae37ef11b136ea224fe,,,,,,,,,2098,-86,39,1,0,0,response7disk,,1,5,6,1,0,0,rectangle,5,6,1,0,0,5,6,1,0,0,0,24,24,109,1,,,,,,,,
,,,,,,,,,,,,,FF,,,,,,,,2.5957,,,,,,,,,,,,,,,,,,,,,,60fe06feb5a616377ef806da,61036e26f9352193ec528f9d,2021-07-29_20h19.33.289,Simcolourproject_2stim_asymm_v5,2020.2.10,Win32,60,61025ae37ef11b136ea224fe,,,,,,,,,2864,43,83,1,0,0,response1disk,,7,-2,6,1,0,0,rectangle,-2,6,1,0,0,-2,6,1,0,0,0,25,25,59,1,,,,,,,,
,,,,,,,,,,,,,FF,,,,,,,,1.1149,,,,,,,,,,,,,,,,,,,,,,60fe06feb5a616377ef806da,61036e26f9352193ec528f9d,2021-07-29_20h19.33.289,Simcolourproject_2stim_asymm_v5,2020.2.10,Win32,60,61025ae37ef11b136ea224fe,,,,,,,,,3715,-40,-79,1,0,0,response5disk,,3,-1,7,1,0,0,rectangle,-1,7,1,0,0,-1,7,1,0,0,0,26,26,4,1,,,,,,,,
,,,,,,,,,,,,,FF,,,,,,,,3.1951,,,,,,,,,,,,,,,,,,,,,,60fe06feb5a616377ef806da,61036e26f9352193ec528f9d,2021-07-29_20h19.33.289,Simcolourproject_2stim_asymm_v5,2020.2.10,Win32,60,61025ae37ef11b136ea224fe,,,,,,,,,281,55,-79,1,0,0,response3disk,,4,1,11,1,0,0,rectangle,1,11,1,0,0,1,11,1,0,0,0,27,27,46,1,,,,,,,,
,,,,,,,,,,,,,FF,,,,,,,,2.3963,,,,,,,,,,,,,,,,,,,,,,60fe06feb5a616377ef806da,61036e26f9352193ec528f9d,2021-07-29_20h19.33.289,Simcolourproject_2stim_asymm_v5,2020.2.10,Win32,60,61025ae37ef11b136ea224fe,,,,,,,,,1263,46,81,1,0,0,response1disk,,7,2,2,1,0,0,rectangle,2,2,1,0,0,2,2,1,0,0,0,28,28,39,1,,,,,,,,
,,,,,,,,,,,,,FF,,,,,,,,1.9633,,,,,,,,,,,,,,,,,,,,,,60fe06feb5a616377ef806da,61036e26f9352193ec528f9d,2021-07-29_20h19.33.289,Simcolourproject_2stim_asymm_v5,2020.2.10,Win32,60,61025ae37ef11b136ea224fe,,,,,,,,,1283,98,35,1,0,0,response1disk,,6,-17,0,1,0,0,rectangle,-17,0,1,0,0,-17,0,1,0,0,0,29,29,91,1,,,,,,,,
,,,,,,,,,,,,,FF,,,,,,,,3.1115,,,,,,,,,,,,,,,,,,,,,,60fe06feb5a616377ef806da,61036e26f9352193ec528f9d,2021-07-29_20h19.33.289,Simcolourproject_2stim_asymm_v5,2020.2.10,Win32,60,61025ae37ef11b136ea224fe,,,,,,,,,14,39,92,1,0,0,response1disk,,7,0,2,1,0,0,rectangle,0,2,1,0,0,0,2,1,0,0,0,30,30,93,1,,,,,,,,
,,,,,,,,,,,,,FF,,,,,,,,2.463,,,,,,,,,,,,,,,,,,,,,,60fe06feb5a616377ef806da,61036e26f9352193ec528f9d,2021-07-29_20h19.33.289,Simcolourproject_2stim_asymm_v5,2020.2.10,Win32,60,61025ae37ef11b136ea224fe,,,,,,,,,3708,-102,-30,1,0,0,response5disk,,2,-3,14,1,0,0,rectangle,-3,14,1,0,0,-3,14,1,0,0,0,31,31,94,1,,,,,,,,
,,,,,,,,,,,,,FF,,,,,,,,1.0818,,,,,,,,,,,,,,,,,,,,,,60fe06feb5a616377ef806da,61036e26f9352193ec528f9d,2021-07-29_20h19.33.289,Simcolourproject_2stim_asymm_v5,2020.2.10,Win32,60,61025ae37ef11b136ea224fe,,,,,,,,,3076,42,78,1,0,0,response1disk,,7,-5,4,1,0,0,rectangle,-5,4,1,0,0,-5,4,1,0,0,0,32,32,135,1,,,,,,,,
,,,,,,,,,,,,,FF,,,,,,,,2.5791,,,,,,,,,,,,,,,,,,,,,,60fe06feb5a616377ef806da,61036e26f9352193ec528f9d,2021-07-29_20h19.33.289,Simcolourproject_2stim_asymm_v5,2020.2.10,Win32,60,61025ae37ef11b136ea224fe,,,,,,,,,2470,35,91,1,0,0,response1disk,,7,3,4,1,0,0,rectangle,3,4,1,0,0,3,4,1,0,0,0,33,33,54,1,,,,,,,,
,,,,,,,,,,,,,FF,,,,,,,,1.2977,,,,,,,,,,,,,,,,,,,,,,60fe06feb5a616377ef806da,61036e26f9352193ec528f9d,2021-07-29_20h19.33.289,Simcolourproject_2stim_asymm_v5,2020.2.10,Win32,60,61025ae37ef11b136ea224fe,,,,,,,,,1216,-49,-72,1,0,0,response5disk,,3,2,1,1,0,0,rectangle,2,1,1,0,0,2,1,1,0,0,0,34,34,11,1,,,,,,,,
,,,,,,,,,,,,,FF,,,,,,,,1.2655,,,,,,,,,,,,,,,,,,,,,,60fe06feb5a616377ef806da,61036e26f9352193ec528f9d,2021-07-29_20h19.33.289,Simcolourproject_2stim_asymm_v5,2020.2.10,Win32,60,61025ae37ef11b136ea224fe,,,,,,,,,3995,-84,-41,1,0,0,response5disk,,2,-2,8,1,0,0,rectangle,-2,8,1,0,0,-2,8,1,0,0,0,35,35,61,1,,,,,,,,
,,,,,,,,,,,,,FF,,,,,,,,7.6216,,,,,,,,,,,,,,,,,,,,,,60fe06feb5a616377ef806da,61036e26f9352193ec528f9d,2021-07-29_20h19.33.289,Simcolourproject_2stim_asymm_v5,2020.2.10,Win32,60,61025ae37ef11b136ea224fe,,,,,,,,,1321,59,-42,1,0,0,response3disk,,5,-16,8,1,0,0,rectangle,-16,8,1,0,0,-16,8,1,0,0,0,36,36,155,1,,,,,,,,
,,,,,,,,,,,,,FF,,,,,,,,3.1459,,,,,,,,,,,,,,,,,,,,,,60fe06feb5a616377ef806da,61036e26f9352193ec528f9d,2021-07-29_20h19.33.289,Simcolourproject_2stim_asymm_v5,2020.2.10,Win32,60,61025ae37ef11b136ea224fe,,,,,,,,,2748,40,90,1,0,0,response1disk,,7,-7,5,1,0,0,rectangle,-7,5,1,0,0,-7,5,1,0,0,0,37,37,80,1,,,,,,,,
,,,,,,,,,,,,,FF,,,,,,,,2.3297,,,,,,,,,,,,,,,,,,,,,,60fe06feb5a616377ef806da,61036e26f9352193ec528f9d,2021-07-29_20h19.33.289,Simcolourproject_2stim_asymm_v5,2020.2.10,Win32,60,61025ae37ef11b136ea224fe,,,,,,,,,3865,37,81,1,0,0,response1disk,,7,0,8,1,0,0,rectangle,0,8,1,0,0,0,8,1,0,0,0,38,38,89,1,,,,,,,,
,,,,,,,,,,,,,FF,,,,,,,,1.5314,,,,,,,,,,,,,,,,,,,,,,60fe06feb5a616377ef806da,61036e26f9352193ec528f9d,2021-07-29_20h19.33.289,Simcolourproject_2stim_asymm_v5,2020.2.10,Win32,60,61025ae37ef11b136ea224fe,,,,,,,,,2541,-38,96,1,0,0,response7disk,,0,-7,3,1,0,0,rectangle,-45,90,1,0,0,-6,0,1,0,0,0,39,39,15,1,,response7disk_3,TRUE,0,0,"[231,262,92,203,236,266,97,64,222,178,104,300,251,44,40,105,200,190,77,155]",1.8809,rectangle
,,,,,,,,,,,,,FF,,,,,,,,0.8988,,,,,,,,,,,,,,,,,,,,,,60fe06feb5a616377ef806da,61036e26f9352193ec528f9d,2021-07-29_20h19.33.289,Simcolourproject_2stim_asymm_v5,2020.2.10,Win32,60,61025ae37ef11b136ea224fe,,,,,,,,,445,-83,39,1,0,0,response7disk,,1,-4,-5,1,0,0,rectangle,-4,-5,1,0,0,-4,-5,1,0,0,0,40,40,20,1,,,,,,,,
,,,,,,,,,,,,,FF,,,,,,,,2.3466,,,,,,,,,,,,,,,,,,,,,,60fe06feb5a616377ef806da,61036e26f9352193ec528f9d,2021-07-29_20h19.33.289,Simcolourproject_2stim_asymm_v5,2020.2.10,Win32,60,61025ae37ef11b136ea224fe,,,,,,,,,1733,-54,-88,1,0,0,response5disk,,3,-4,10,1,0,0,rectangle,-4,10,1,0,0,-4,10,1,0,0,0,41,41,2,1,,,,,,,,
,,,,,,,,,,,,,FF,,,,,,,,1.5805,,,,,,,,,,,,,,,,,,,,,,60fe06feb5a616377ef806da,61036e26f9352193ec528f9d,2021-07-29_20h19.33.289,Simcolourproject_2stim_asymm_v5,2020.2.10,Win32,60,61025ae37ef11b136ea224fe,,,,,,,,,3488,87,44,1,0,0,response1disk,,6,-2,10,1,0,0,rectangle,-2,10,1,0,0,-2,10,1,0,0,0,42,42,8,1,,,,,,,,
,,,,,,,,,,,,,FF,,,,,,,,1.299,,,,,,,,,,,,,,,,,,,,,,60fe06feb5a616377ef806da,61036e26f9352193ec528f9d,2021-07-29_20h19.33.289,Simcolourproject_2stim_asymm_v5,2020.2.10,Win32,60,61025ae37ef11b136ea224fe,,,,,,,,,526,80,-48,1,0,0,response3disk,,5,-8,6,1,0,0,rectangle,-92,-34,1,0,0,-4,6,1,0,0,0,43,43,99,1,,response5disk_3,TRUE,2,2,"[231,262,92,203,236,266,97,64,222,178,104,300,251,44,40,105,200,190,77,155]",1.9304,rectangle
,,,,,,,,,,,,,FF,,,,,,,,2.1634,,,,,,,,,,,,,,,,,,,,,,60fe06feb5a616377ef806da,61036e26f9352193ec528f9d,2021-07-29_20h19.33.289,Simcolourproject_2stim_asymm_v5,2020.2.10,Win32,60,61025ae37ef11b136ea224fe,,,,,,,,,1548,80,39,1,0,0,response1disk,,6,-6,5,1,0,0,rectangle,-6,5,1,0,0,-6,5,1,0,0,0,44,44,24,1,,,,,,,,
,,,,,,,,,,,,,FF,,,,,,,,2.2635,,,,,,,,,,,,,,,,,,,,,,60fe06feb5a616377ef806da,61036e26f9352193ec528f9d,2021-07-29_20h19.33.289,Simcolourproject_2stim_asymm_v5,2020.2.10,Win32,60,61025ae37ef11b136ea224fe,,,,,,,,,576,83,-53,1,0,0,response3disk,,5,-5,2,1,0,0,rectangle,-5,2,1,0,0,-5,2,1,0,0,0,45,45,133,1,,,,,,,,
,,,,,,,,,,,,,FF,,,,,,,,1.4819,,,,,,,,,,,,,,,,,,,,,,60fe06feb5a616377ef806da,61036e26f9352193ec528f9d,2021-07-29_20h19.33.289,Simcolourproject_2stim_asymm_v5,2020.2.10,Win32,60,61025ae37ef11b136ea224fe,,,,,,,,,565,81,-37,1,0,0,response3disk,,5,-5,8,1,0,0,rectangle,-5,8,1,0,0,-5,8,1,0,0,0,46,46,158,1,,,,,,,,
,,,,,,,,,,,,,FF,,,,,,,,0.9153,,,,,,,,,,,,,,,,,,,,,,60fe06feb5a616377ef806da,61036e26f9352193ec528f9d,2021-07-29_20h19.33.289,Simcolourproject_2stim_asymm_v5,2020.2.10,Win32,60,61025ae37ef11b136ea224fe,,,,,,,,,4095,-41,91,1,0,0,response7disk,,0,6,2,1,0,0,rectangle,6,2,1,0,0,6,2,1,0,0,0,47,47,34,1,,,,,,,,
,,,,,,,,,,,,,FF,,,,,,,,1.5975,,,,,,,,,,,,,,,,,,,,,,60fe06feb5a616377ef806da,61036e26f9352193ec528f9d,2021-07-29_20h19.33.289,Simcolourproject_2stim_asymm_v5,2020.2.10,Win32,60,61025ae37ef11b136ea224fe,,,,,,,,,2168,-85,-37,1,0,0,response5disk,,2,3,13,1,0,0,rectangle,3,13,1,0,0,3,13,1,0,0,0,48,48,92,1,,,,,,,,
,,,,,,,,,,,,,FF,,,,,,,,1.0654,,,,,,,,,,,,,,,,,,,,,,60fe06feb5a616377ef806da,61036e26f9352193ec528f9d,2021-07-29_20h19.33.289,Simcolourproject_2stim_asymm_v5,2020.2.10,Win32,60,61025ae37ef11b136ea224fe,,,,,,,,,3029,36,86,1,0,0,response1disk,,7,0,9,1,0,0,rectangle,0,9,1,0,0,0,9,1,0,0,0,49,49,17,1,,,,,,,,
,,,,,,,,,,,,,FF,,,,,,,,1.5473,,,,,,,,,,,,,,,,,,,,,,60fe06feb5a616377ef806da,61036e26f9352193ec528f9d,2021-07-29_20h19.33.289,Simcolourproject_2stim_asymm_v5,2020.2.10,Win32,60,61025ae37ef11b136ea224fe,,,,,,,,,3393,-87,-55,1,0,0,response5disk,,2,-8,5,1,0,0,rectangle,-8,5,1,0,0,-8,5,1,0,0,0,50,50,51,1,,,,,,,,
,,,,,,,,,,,,,FF,,,,,,,,1.3646,,,,,,,,,,,,,,,,,,,,,,60fe06feb5a616377ef806da,61036e26f9352193ec528f9d,2021-07-29_20h19.33.289,Simcolourproject_2stim_asymm_v5,2020.2.10,Win32,60,61025ae37ef11b136ea224fe,,,,,,,,,2454,51,78,1,0,0,response1disk,,7,-10,-4,1,0,0,rectangle,-10,-4,1,0,0,-10,-4,1,0,0,0,51,51,102,1,,,,,,,,
,,,,,,,,,,,,,FF,,,,,,,,1.1148,,,,,,,,,,,,,,,,,,,,,,60fe06feb5a616377ef806da,61036e26f9352193ec528f9d,2021-07-29_20h19.33.289,Simcolourproject_2stim_asymm_v5,2020.2.10,Win32,60,61025ae37ef11b136ea224fe,,,,,,,,,4355,44,102,1,0,0,response1disk,,7,-9,1,1,0,0,rectangle,-9,1,1,0,0,-9,1,1,0,0,0,52,52,38,1,,,,,,,,
,,,,,,,,,,,,,FF,,,,,,,,2.5629,,,,,,,,,,,,,,,,,,,,,,60fe06feb5a616377ef806da,61036e26f9352193ec528f9d,2021-07-29_20h19.33.289,Simcolourproject_2stim_asymm_v5,2020.2.10,Win32,60,61025ae37ef11b136ea224fe,,,,,,,,,1515,91,58,1,0,0,response1disk,,6,-7,7,1,0,0,rectangle,-7,7,1,0,0,-7,7,1,0,0,0,53,53,32,1,,,,,,,,
,,,,,,,,,,,,,FF,,,,,,,,0.832,,,,,,,,,,,,,,,,,,,,,,60fe06feb5a616377ef806da,61036e26f9352193ec528f9d,2021-07-29_20h19.33.289,Simcolourproject_2stim_asymm_v5,2020.2.10,Win32,60,61025ae37ef11b136ea224fe,,,,,,,,,1358,41,90,1,0,0,response1disk,,7,0,8,1,0,0,rectangle,0,8,1,0,0,0,8,1,0,0,0,54,54,41,1,,,,,,,,
,,,,,,,,,,,,,FF,,,,,,,,1.4475,,,,,,,,,,,,,,,,,,,,,,60fe06feb5a616377ef806da,61036e26f9352193ec528f9d,2021-07-29_20h19.33.289,Simcolourproject_2stim_asymm_v5,2020.2.10,Win32,60,61025ae37ef11b136ea224fe,,,,,,,,,1468,51,-73,1,0,0,response3disk,,4,3,11,1,0,0,rectangle,3,11,1,0,0,3,11,1,0,0,0,55,55,86,1,,,,,,,,
,,,,,,,,,,,,,FF,,,,,,,,0.9486,,,,,,,,,,,,,,,,,,,,,,60fe06feb5a616377ef806da,61036e26f9352193ec528f9d,2021-07-29_20h19.33.289,Simcolourproject_2stim_asymm_v5,2020.2.10,Win32,60,61025ae37ef11b136ea224fe,,,,,,,,,3466,58,99,1,0,0,response1disk,,7,1,3,1,0,0,rectangle,1,3,1,0,0,1,3,1,0,0,0,56,56,19,1,,,,,,,,
,,,,,,,,,,,,,FF,,,,,,,,1.2326,,,,,,,,,,,,,,,,,,,,,,60fe06feb5a616377ef806da,61036e26f9352193ec528f9d,2021-07-29_20h19.33.289,Simcolourproject_2stim_asymm_v5,2020.2.10,Win32,60,61025ae37ef11b136ea224fe,,,,,,,,,532,-92,-39,1,0,0,response5disk,,2,-7,11,1,0,0,rectangle,-7,11,1,0,0,-7,11,1,0,0,0,57,57,76,1,,,,,,,,
,,,,,,,,,,,,,FF,,,,,,,,1.7811,,,,,,,,,,,,,,,,,,,,,,60fe06feb5a616377ef806da,61036e26f9352193ec528f9d,2021-07-29_20h19.33.289,Simcolourproject_2stim_asymm_v5,2020.2.10,Win32,60,61025ae37ef11b136ea224fe,,,,,,,,,1522,-39,-85,1,0,0,response5disk,,3,-5,6,1,0,0,rectangle,-5,6,1,0,0,-5,6,1,0,0,0,58,58,115,1,,,,,,,,
,,,,,,,,,,,,,FF,,,,,,,,1.3493,,,,,,,,,,,,,,,,,,,,,,60fe06feb5a616377ef806da,61036e26f9352193ec528f9d,2021-07-29_20h19.33.289,Simcolourproject_2stim_asymm_v5,2020.2.10,Win32,60,61025ae37ef11b136ea224fe,,,,,,,,,1760,29,-82,1,0,0,response3disk,,4,-7,4,1,0,0,rectangle,-7,4,1,0,0,-7,4,1,0,0,0,59,59,12,1,,,,,,,,
,,,,,,,,,,,,,FF,,,,,,,,1.1484,,,,,,,,,,,,,,,,,,,,,,60fe06feb5a616377ef806da,61036e26f9352193ec528f9d,2021-07-29_20h19.33.289,Simcolourproject_2stim_asymm_v5,2020.2.10,Win32,60,61025ae37ef11b136ea224fe,,,,,,,,,4052,-38,-88,1,0,0,response5disk,,3,2,4,1,0,0,rectangle,2,4,1,0,0,2,4,1,0,0,0,60,60,68,1,,,,,,,,
,,,,,,,,,,,,,FF,,,,,,,,0.9821,,,,,,,,,,,,,,,,,,,,,,60fe06feb5a616377ef806da,61036e26f9352193ec528f9d,2021-07-29_20h19.33.289,Simcolourproject_2stim_asymm_v5,2020.2.10,Win32,60,61025ae37ef11b136ea224fe,,,,,,,,,1300,-39,-62,1,0,0,response5disk,,3,-2,6,1,0,0,rectangle,-2,6,1,0,0,-2,6,1,0,0,0,61,61,52,1,,,,,,,,
,,,,,,,,,,,,,FF,,,,,,,,1.2979,,,,,,,,,,,,,,,,,,,,,,60fe06feb5a616377ef806da,61036e26f9352193ec528f9d,2021-07-29_20h19.33.289,Simcolourproject_2stim_asymm_v5,2020.2.10,Win32,60,61025ae37ef11b136ea224fe,,,,,,,,,1703,42,77,1,0,0,response1disk,,7,5,6,1,0,0,rectangle,5,6,1,0,0,5,6,1,0,0,0,62,62,57,1,,,,,,,,
,,,,,,,,,,,,,FF,,,,,,,,1.2317,,,,,,,,,,,,,,,,,,,,,,60fe06feb5a616377ef806da,61036e26f9352193ec528f9d,2021-07-29_20h19.33.289,Simcolourproject_2stim_asymm_v5,2020.2.10,Win32,60,61025ae37ef11b136ea224fe,,,,,,,,,1698,75,38,1,0,0,response1disk,,6,3,6,1,0,0,rectangle,-32,-87,1,0,0,-2,6,1,0,0,0,63,63,139,1,,response5disk_3,TRUE,3,3,"[231,262,92,203,236,266,97,64,222,178,104,300,251,44,40,105,200,190,77,155]",1.7472,rectangle
,,,,,,,,,,,,,FF,,,,,,,,0.8817,,,,,,,,,,,,,,,,,,,,,,60fe06feb5a616377ef806da,61036e26f9352193ec528f9d,2021-07-29_20h19.33.289,Simcolourproject_2stim_asymm_v5,2020.2.10,Win32,60,61025ae37ef11b136ea224fe,,,,,,,,,4086,47,97,1,0,0,response1disk,,7,0,6,1,0,0,rectangle,0,6,1,0,0,0,6,1,0,0,0,64,64,159,1,,,,,,,,
,,,,,,,,,,,,,FF,,,,,,,,1.531,,,,,,,,,,,,,,,,,,,,,,60fe06feb5a616377ef806da,61036e26f9352193ec528f9d,2021-07-29_20h19.33.289,Simcolourproject_2stim_asymm_v5,2020.2.10,Win32,60,61025ae37ef11b136ea224fe,,,,,,,,,2642,38,88,1,0,0,response1disk,,7,0,8,1,0,0,rectangle,0,8,1,0,0,0,8,1,0,0,0,65,65,84,1,,,,,,,,
,,,,,,,,,,,,,FF,,,,,,,,1.2149,,,,,,,,,,,,,,,,,,,,,,60fe06feb5a616377ef806da,61036e26f9352193ec528f9d,2021-07-29_20h19.33.289,Simcolourproject_2stim_asymm_v5,2020.2.10,Win32,60,61025ae37ef11b136ea224fe,,,,,,,,,3162,92,23,1,0,0,response1disk,,6,-8,-9,1,0,0,rectangle,-8,-9,1,0,0,-8,-9,1,0,0,0,66,66,144,1,,,,,,,,
,,,,,,,,,,,,,FF,,,,,,,,0.7657,,,,,,,,,,,,,,,,,,,,,,60fe06feb5a616377ef806da,61036e26f9352193ec528f9d,2021-07-29_20h19.33.289,Simcolourproject_2stim_asymm_v5,2020.2.10,Win32,60,61025ae37ef11b136ea224fe,,,,,,,,,323,44,98,1,0,0,response1disk,,7,0,4,1,0,0,rectangle,0,4,1,0,0,0,4,1,0,0,0,67,67,58,1,,,,,,,,
,,,,,,,,,,,,,FF,,,,,,,,1.2311,,,,,,,,,,,,,,,,,,,,,,60fe06feb5a616377ef806da,61036e26f9352193ec528f9d,2021-07-29_20h19.33.289,Simcolourproject_2stim_asymm_v5,2020.2.10,Win32,60,61025ae37ef11b136ea224fe,,,,,,,,,2653,91,-40,1,0,0,response3disk,,5,6,11,1,0,0,rectangle,6,11,1,0,0,6,11,1,0,0,0,68,68,50,1,,,,,,,,
,,,,,,,,,,,,,FF,,,,,,,,1.598,,,,,,,,,,,,,,,,,,,,,,60fe06feb5a616377ef806da,61036e26f9352193ec528f9d,2021-07-29_20h19.33.289,Simcolourproject_2stim_asymm_v5,2020.2.10,Win32,60,61025ae37ef11b136ea224fe,,,,,,,,,1377,43,-93,1,0,0,response3disk,,4,-10,9,1,0,0,rectangle,-10,9,1,0,0,-10,9,1,0,0,0,69,69,127,1,,,,,,,,
,,,,,,,,,,,,,FF,,,,,,,,1.8473,,,,,,,,,,,,,,,,,,,,,,60fe06feb5a616377ef806da,61036e26f9352193ec528f9d,2021-07-29_20h19.33.289,Simcolourproject_2stim_asymm_v5,2020.2.10,Win32,60,61025ae37ef11b136ea224fe,,,,,,,,,1326,78,44,1,0,0,response1disk,,6,-1,6,1,0,0,rectangle,-1,6,1,0,0,-1,6,1,0,0,0,70,70,67,1,,,,,,,,
,,,,,,,,,,,,,FF,,,,,,,,2.0301,,,,,,,,,,,,,,,,,,,,,,60fe06feb5a616377ef806da,61036e26f9352193ec528f9d,2021-07-29_20h19.33.289,Simcolourproject_2stim_asymm_v5,2020.2.10,Win32,60,61025ae37ef11b136ea224fe,,,,,,,,,3644,54,-80,1,0,0,response3disk,,4,-4,8,1,0,0,rectangle,-4,8,1,0,0,-4,8,1,0,0,0,71,71,90,1,,,,,,,,
,,,,,,,,,,,,,FF,,,,,,,,1.4312,,,,,,,,,,,,,,,,,,,,,,60fe06feb5a616377ef806da,61036e26f9352193ec528f9d,2021-07-29_20h19.33.289,Simcolourproject_2stim_asymm_v5,2020.2.10,Win32,60,61025ae37ef11b136ea224fe,,,,,,,,,2685,32,75,1,0,0,response1disk,,7,-10,-7,1,0,0,rectangle,-10,-7,1,0,0,-10,-7,1,0,0,0,72,72,114,1,,,,,,,,
,,,,,,,,,,,,,FF,,,,,,,,0.8159,,,,,,,,,,,,,,,,,,,,,,60fe06feb5a616377ef806da,61036e26f9352193ec528f9d,2021-07-29_20h19.33.289,Simcolourproject_2stim_asymm_v5,2020.2.10,Win32,60,61025ae37ef11b136ea224fe,,,,,,,,,3369,40,80,1,0,0,response1disk,,7,-3,-4,1,0,0,rectangle,-3,-4,1,0,0,-3,-4,1,0,0,0,73,73,128,1,,,,,,,,
,,,,,,,,,,,,,FF,,,,,,,,0.9819,,,,,,,,,,,,,,,,,,,,,,60fe06feb5a616377ef806da,61036e26f9352193ec528f9d,2021-07-29_20h19.33.289,Simcolourproject_2stim_asymm_v5,2020.2.10,Win32,60,61025ae37ef11b136ea224fe,,,,,,,,,564,88,41,1,0,0,response1disk,,6,-4,6,1,0,0,rectangle,-4,6,1,0,0,-4,6,1,0,0,0,74,74,149,1,,,,,,,,
,,,,,,,,,,,,,FF,,,,,,,,1.1319,,,,,,,,,,,,,,,,,,,,,,60fe06feb5a616377ef806da,61036e26f9352193ec528f9d,2021-07-29_20h19.33.289,Simcolourproject_2stim_asymm_v5,2020.2.10,Win32,60,61025ae37ef11b136ea224fe,,,,,,,,,1892,-46,-75,1,0,0,response5disk,,3,-9,15,1,0,0,rectangle,-9,15,1,0,0,-9,15,1,0,0,0,75,75,87,1,,,,,,,,
,,,,,,,,,,,,,FF,,,,,,,,0.6987,,,,,,,,,,,,,,,,,,,,,,60fe06feb5a616377ef806da,61036e26f9352193ec528f9d,2021-07-29_20h19.33.289,Simcolourproject_2stim_asymm_v5,2020.2.10,Win32,60,61025ae37ef11b136ea224fe,,,,,,,,,397,25,76,1,0,0,response1disk,,7,-3,-4,1,0,0,rectangle,-57,-81,1,0,0,-6,11,1,0,0,0,76,76,73,1,,response5disk_3,TRUE,3,3,"[231,262,92,203,236,266,97,64,222,178,104,300,251,44,40,105,200,190,77,155]",1.5314,rectangle
,,,,,,,,,,,,,FF,,,,,,,,2.1133,,,,,,,,,,,,,,,,,,,,,,60fe06feb5a616377ef806da,61036e26f9352193ec528f9d,2021-07-29_20h19.33.289,Simcolourproject_2stim_asymm_v5,2020.2.10,Win32,60,61025ae37ef11b136ea224fe,,,,,,,,,4187,44,-79,1,0,0,response3disk,,4,-10,6,1,0,0,rectangle,-10,6,1,0,0,-10,6,1,0,0,0,77,77,9,1,,,,,,,,
,,,,,,,,,,,,,FF,,,,,,,,0.9985,,,,,,,,,,,,,,,,,,,,,,60fe06feb5a616377ef806da,61036e26f9352193ec528f9d,2021-07-29_20h19.33.289,Simcolourproject_2stim_asymm_v5,2020.2.10,Win32,60,61025ae37ef11b136ea224fe,,,,,,,,,3387,33,72,1,0,0,response1disk,,7,-5,8,1,0,0,rectangle,-5,8,1,0,0,-5,8,1,0,0,0,78,78,123,1,,,,,,,,
,,,,,,,,,,,,,FF,,,,,,,,1.2145,,,,,,,,,,,,,,,,,,,,,,60fe06feb5a616377ef806da,61036e26f9352193ec528f9d,2021-07-29_20h19.33.289,Simcolourproject_2stim_asymm_v5,2020.2.10,Win32,60,61025ae37ef11b136ea224fe,,,,,,,,,1705,82,42,1,0,0,response1disk,,6,0,2,1,0,0,rectangle,0,2,1,0,0,0,2,1,0,0,0,79,79,103,1,,,,,,,,
,,,,,,,,,,,,,FF,,,,,,,,1.4151,,,,,,,,,,,,,,,,,,,,,,60fe06feb5a616377ef806da,61036e26f9352193ec528f9d,2021-07-29_20h19.33.289,Simcolourproject_2stim_asymm_v5,2020.2.10,Win32,60,61025ae37ef11b136ea224fe,,,,,,,,,939,29,90,1,0,0,response1disk,,7,-5,8,1,0,0,rectangle,-5,8,1,0,0,-5,8,1,0,0,0,80,80,121,1,,,,,,,,
,,,,,,,,,,,,,FF,,,,,,,,0.9317,,,,,,,,,,,,,,,,,,,,,,60fe06feb5a616377ef806da,61036e26f9352193ec528f9d,2021-07-29_20h19.33.289,Simcolourproject_2stim_asymm_v5,2020.2.10,Win32,60,61025ae37ef11b136ea224fe,,,,,,,,,1520,47,90,1,0,0,response1disk,,7,4,-1,1,0,0,rectangle,4,-1,1,0,0,4,-1,1,0,0,0,81,81,33,1,,,,,,,,
,,,,,,,,,,,,,FF,,,,,,,,0.9818,,,,,,,,,,,,,,,,,,,,,,60fe06feb5a616377ef806da,61036e26f9352193ec528f9d,2021-07-29_20h19.33.289,Simcolourproject_2stim_asymm_v5,2020.2.10,Win32,60,61025ae37ef11b136ea224fe,,,,,,,,,966,40,107,1,0,0,response1disk,,7,-6,9,1,0,0,rectangle,-6,9,1,0,0,-6,9,1,0,0,0,82,82,0,1,,,,,,,,
,,,,,,,,,,,,,FF,,,,,,,,2.5965,,,,,,,,,,,,,,,,,,,,,,60fe06feb5a616377ef806da,61036e26f9352193ec528f9d,2021-07-29_20h19.33.289,Simcolourproject_2stim_asymm_v5,2020.2.10,Win32,60,61025ae37ef11b136ea224fe,,,,,,,,,2911,40,92,1,0,0,response1disk,,7,-4,-2,1,0,0,rectangle,-4,-2,1,0,0,-4,-2,1,0,0,0,83,83,106,1,,,,,,,,
,,,,,,,,,,,,,FF,,,,,,,,3.7276,,,,,,,,,,,,,,,,,,,,,,60fe06feb5a616377ef806da,61036e26f9352193ec528f9d,2021-07-29_20h19.33.289,Simcolourproject_2stim_asymm_v5,2020.2.10,Win32,60,61025ae37ef11b136ea224fe,,,,,,,,,3260,70,47,1,0,0,response1disk,,6,-3,3,1,0,0,rectangle,-3,3,1,0,0,-3,3,1,0,0,0,84,84,134,1,,,,,,,,
,,,,,,,,,,,,,FF,,,,,,,,1.6973,,,,,,,,,,,,,,,,,,,,,,60fe06feb5a616377ef806da,61036e26f9352193ec528f9d,2021-07-29_20h19.33.289,Simcolourproject_2stim_asymm_v5,2020.2.10,Win32,60,61025ae37ef11b136ea224fe,,,,,,,,,2392,75,42,1,0,0,response1disk,,6,-18,-1,1,0,0,rectangle,-18,-1,1,0,0,-18,-1,1,0,0,0,85,85,85,1,,,,,,,,
,,,,,,,,,,,,,FF,,,,,,,,5.6746,,,,,,,,,,,,,,,,,,,,,,60fe06feb5a616377ef806da,61036e26f9352193ec528f9d,2021-07-29_20h19.33.289,Simcolourproject_2stim_asymm_v5,2020.2.10,Win32,60,61025ae37ef11b136ea224fe,,,,,,,,,4214,34,82,1,0,0,response1disk,,7,-12,5,1,0,0,rectangle,-12,5,1,0,0,-12,5,1,0,0,0,86,86,100,1,,,,,,,,
,,,,,,,,,,,,,FF,,,,,,,,1.2811,,,,,,,,,,,,,,,,,,,,,,60fe06feb5a616377ef806da,61036e26f9352193ec528f9d,2021-07-29_20h19.33.289,Simcolourproject_2stim_asymm_v5,2020.2.10,Win32,60,61025ae37ef11b136ea224fe,,,,,,,,,816,73,-23,1,0,0,response3disk,,5,-9,8,1,0,0,rectangle,-9,8,1,0,0,-9,8,1,0,0,0,87,87,148,1,,,,,,,,
,,,,,,,,,,,,,FF,,,,,,,,1.1981,,,,,,,,,,,,,,,,,,,,,,60fe06feb5a616377ef806da,61036e26f9352193ec528f9d,2021-07-29_20h19.33.289,Simcolourproject_2stim_asymm_v5,2020.2.10,Win32,60,61025ae37ef11b136ea224fe,,,,,,,,,437,18,-79,1,0,0,response3disk,,4,-13,4,1,0,0,rectangle,-13,4,1,0,0,-13,4,1,0,0,0,88,88,64,1,,,,,,,,
,,,,,,,,,,,,,FF,,,,,,,,2.0469,,,,,,,,,,,,,,,,,,,,,,60fe06feb5a616377ef806da,61036e26f9352193ec528f9d,2021-07-29_20h19.33.289,Simcolourproject_2stim_asymm_v5,2020.2.10,Win32,60,61025ae37ef11b136ea224fe,,,,,,,,,3626,93,39,1,0,0,response1disk,,6,-14,5,1,0,0,rectangle,-14,5,1,0,0,-14,5,1,0,0,0,89,89,31,1,,,,,,,,
,,,,,,,,,,,,,FF,,,,,,,,3.4947,,,,,,,,,,,,,,,,,,,,,,60fe06feb5a616377ef806da,61036e26f9352193ec528f9d,2021-07-29_20h19.33.289,Simcolourproject_2stim_asymm_v5,2020.2.10,Win32,60,61025ae37ef11b136ea224fe,,,,,,,,,2199,105,40,1,0,0,response1disk,,6,0,12,1,0,0,rectangle,0,12,1,0,0,0,12,1,0,0,0,90,90,145,1,,,,,,,,
,,,,,,,,,,,,,FF,,,,,,,,2.4963,,,,,,,,,,,,,,,,,,,,,,60fe06feb5a616377ef806da,61036e26f9352193ec528f9d,2021-07-29_20h19.33.289,Simcolourproject_2stim_asymm_v5,2020.2.10,Win32,60,61025ae37ef11b136ea224fe,,,,,,,,,1988,28,88,1,0,0,response1disk,,7,-3,8,1,0,0,rectangle,57,-93,1,0,0,-7,-1,1,0,0,0,91,91,28,1,,response3disk_3,TRUE,4,4,"[231,262,92,203,236,266,97,64,222,178,104,300,251,44,40,105,200,190,77,155]",1.3152,rectangle
,,,,,,,,,,,,,FF,,,,,,,,1.5312,,,,,,,,,,,,,,,,,,,,,,60fe06feb5a616377ef806da,61036e26f9352193ec528f9d,2021-07-29_20h19.33.289,Simcolourproject_2stim_asymm_v5,2020.2.10,Win32,60,61025ae37ef11b136ea224fe,,,,,,,,,3966,-56,-92,1,0,0,response5disk,,3,-5,0,1,0,0,rectangle,-5,0,1,0,0,-5,0,1,0,0,0,92,92,154,1,,,,,,,,
,,,,,,,,,,,,,FF,,,,,,,,1.5645,,,,,,,,,,,,,,,,,,,,,,60fe06feb5a616377ef806da,61036e26f9352193ec528f9d,2021-07-29_20h19.33.289,Simcolourproject_2stim_asymm_v5,2020.2.10,Win32,60,61025ae37ef11b136ea224fe,,,,,,,,,394,86,-49,1,0,0,response3disk,,5,0,-3,1,0,0,rectangle,0,-3,1,0,0,0,-3,1,0,0,0,93,93,129,1,,,,,,,,
,,,,,,,,,,,,,FF,,,,,,,,1.1982,,,,,,,,,,,,,,,,,,,,,,60fe06feb5a616377ef806da,61036e26f9352193ec528f9d,2021-07-29_20h19.33.289,Simcolourproject_2stim_asymm_v5,2020.2.10,Win32,60,61025ae37ef11b136ea224fe,,,,,,,,,672,52,75,1,0,0,response1disk,,7,9,-3,1,0,0,rectangle,9,-3,1,0,0,9,-3,1,0,0,0,94,94,83,1,,,,,,,,
,,,,,,,,,,,,,FF,,,,,,,,0.8316,,,,,,,,,,,,,,,,,,,,,,60fe06feb5a616377ef806da,61036e26f9352193ec528f9d,2021-07-29_20h19.33.289,Simcolourproject_2stim_asymm_v5,2020.2.10,Win32,60,61025ae37ef11b136ea224fe,,,,,,,,,3405,30,91,1,0,0,response1disk,,7,-3,-4,1,0,0,rectangle,-3,-4,1,0,0,-3,-4,1,0,0,0,95,95,79,1,,,,,,,,
,,,,,,,,,,,,,FF,,,,,,,,0.8822,,,,,,,,,,,,,,,,,,,,,,60fe06feb5a616377ef806da,61036e26f9352193ec528f9d,2021-07-29_20h19.33.289,Simcolourproject_2stim_asymm_v5,2020.2.10,Win32,60,61025ae37ef11b136ea224fe,,,,,,,,,3484,94,37,1,0,0,response1disk,,6,-2,-4,1,0,0,rectangle,90,41,1,0,0,0,4,1,0,0,0,96,96,125,1,,response1disk_3,TRUE,6,6,"[231,262,92,203,236,266,97,64,222,178,104,300,251,44,40,105,200,190,77,155]",1.7637,rectangle
,,,,,,,,,,,,,FF,,,,,,,,2.0138,,,,,,,,,,,,,,,,,,,,,,60fe06feb5a616377ef806da,61036e26f9352193ec528f9d,2021-07-29_20h19.33.289,Simcolourproject_2stim_asymm_v5,2020.2.10,Win32,60,61025ae37ef11b136ea224fe,,,,,,,,,3778,-48,-92,1,0,0,response5disk,,3,4,2,1,0,0,rectangle,4,2,1,0,0,4,2,1,0,0,0,97,97,146,1,,,,,,,,
,,,,,,,,,,,,,FF,,,,,,,,1.3812,,,,,,,,,,,,,,,,,,,,,,60fe06feb5a616377ef806da,61036e26f9352193ec528f9d,2021-07-29_20h19.33.289,Simcolourproject_2stim_asymm_v5,2020.2.10,Win32,60,61025ae37ef11b136ea224fe,,,,,,,,,1114,92,-32,1,0,0,response3disk,,5,12,8,1,0,0,rectangle,12,8,1,0,0,12,8,1,0,0,0,98,98,138,1,,,,,,,,
,,,,,,,,,,,,,FF,,,,,,,,0.7318,,,,,,,,,,,,,,,,,,,,,,60fe06feb5a616377ef806da,61036e26f9352193ec528f9d,2021-07-29_20h19.33.289,Simcolourproject_2stim_asymm_v5,2020.2.10,Win32,60,61025ae37ef11b136ea224fe,,,,,,,,,941,29,76,1,0,0,response1disk,,7,4,6,1,0,0,rectangle,4,6,1,0,0,4,6,1,0,0,0,99,99,82,1,,,,,,,,
,,,,,,,,,,,,,FF,,,,,,,,1.4145,,,,,,,,,,,,,,,,,,,,,,60fe06feb5a616377ef806da,61036e26f9352193ec528f9d,2021-07-29_20h19.33.289,Simcolourproject_2stim_asymm_v5,2020.2.10,Win32,60,61025ae37ef11b136ea224fe,,,,,,,,,820,84,39,1,0,0,response1disk,,6,-10,5,1,0,0,rectangle,-10,5,1,0,0,-10,5,1,0,0,0,100,100,117,1,,,,,,,,
,,,,,,,,,,,,,FF,,,,,,,,1.4643,,,,,,,,,,,,,,,,,,,,,,60fe06feb5a616377ef806da,61036e26f9352193ec528f9d,2021-07-29_20h19.33.289,Simcolourproject_2stim_asymm_v5,2020.2.10,Win32,60,61025ae37ef11b136ea224fe,,,,,,,,,960,79,39,1,0,0,response1disk,,6,-3,1,1,0,0,rectangle,-3,1,1,0,0,-3,1,1,0,0,0,101,101,23,1,,,,,,,,
,,,,,,,,,,,,,FF,,,,,,,,0.8651,,,,,,,,,,,,,,,,,,,,,,60fe06feb5a616377ef806da,61036e26f9352193ec528f9d,2021-07-29_20h19.33.289,Simcolourproject_2stim_asymm_v5,2020.2.10,Win32,60,61025ae37ef11b136ea224fe,,,,,,,,,835,43,94,1,0,0,response1disk,,7,-11,3,1,0,0,rectangle,-11,3,1,0,0,-11,3,1,0,0,0,102,102,131,1,,,,,,,,
,,,,,,,,,,,,,FF,,,,,,,,0.9501,,,,,,,,,,,,,,,,,,,,,,60fe06feb5a616377ef806da,61036e26f9352193ec528f9d,2021-07-29_20h19.33.289,Simcolourproject_2stim_asymm_v5,2020.2.10,Win32,60,61025ae37ef11b136ea224fe,,,,,,,,,2371,86,39,1,0,0,response1disk,,6,5,4,1,0,0,rectangle,81,-38,1,0,0,-6,7,1,0,0,0,103,103,143,1,,response3disk_3,TRUE,5,5,"[231,262,92,203,236,266,97,64,222,178,104,300,251,44,40,105,200,190,77,155]",1.2809,rectangle
,,,,,,,,,,,,,FF,,,,,,,,1.8972,,,,,,,,,,,,,,,,,,,,,,60fe06feb5a616377ef806da,61036e26f9352193ec528f9d,2021-07-29_20h19.33.289,Simcolourproject_2stim_asymm_v5,2020.2.10,Win32,60,61025ae37ef11b136ea224fe,,,,,,,,,1193,87,-37,1,0,0,response3disk,,5,-3,7,1,0,0,rectangle,-30,93,1,0,0,-4,0,1,0,0,0,104,104,130,1,,response7disk_3,TRUE,0,0,"[231,262,92,203,236,266,97,64,222,178,104,300,251,44,40,105,200,190,77,155]",1.7296,rectangle
,,,,,,,,,,,,,FF,,,,,,,,1.1645,,,,,,,,,,,,,,,,,,,,,,60fe06feb5a616377ef806da,61036e26f9352193ec528f9d,2021-07-29_20h19.33.289,Simcolourproject_2stim_asymm_v5,2020.2.10,Win32,60,61025ae37ef11b136ea224fe,,,,,,,,,3739,56,95,1,0,0,response1disk,,7,0,1,1,0,0,rectangle,0,1,1,0,0,0,1,1,0,0,0,105,105,98,1,,,,,,,,
,,,,,,,,,,,,,FF,,,,,,,,1.2656,,,,,,,,,,,,,,,,,,,,,,60fe06feb5a616377ef806da,61036e26f9352193ec528f9d,2021-07-29_20h19.33.289,Simcolourproject_2stim_asymm_v5,2020.2.10,Win32,60,61025ae37ef11b136ea224fe,,,,,,,,,3971,-79,-44,1,0,0,response5disk,,2,-4,11,1,0,0,rectangle,-4,11,1,0,0,-4,11,1,0,0,0,106,106,75,1,,,,,,,,
,,,,,,,,,,,,,FF,,,,,,,,1.4313,,,,,,,,,,,,,,,,,,,,,,60fe06feb5a616377ef806da,61036e26f9352193ec528f9d,2021-07-29_20h19.33.289,Simcolourproject_2stim_asymm_v5,2020.2.10,Win32,60,61025ae37ef11b136ea224fe,,,,,,,,,610,85,-44,1,0,0,response3disk,,5,5,5,1,0,0,rectangle,5,5,1,0,0,5,5,1,0,0,0,107,107,95,1,,,,,,,,
,,,,,,,,,,,,,FF,,,,,,,,0.9483,,,,,,,,,,,,,,,,,,,,,,60fe06feb5a616377ef806da,61036e26f9352193ec528f9d,2021-07-29_20h19.33.289,Simcolourproject_2stim_asymm_v5,2020.2.10,Win32,60,61025ae37ef11b136ea224fe,,,,,,,,,1130,35,75,1,0,0,response1disk,,7,4,13,1,0,0,rectangle,4,13,1,0,0,4,13,1,0,0,0,108,108,25,1,,,,,,,,
,,,,,,,,,,,,,FF,,,,,,,,0.5989,,,,,,,,,,,,,,,,,,,,,,60fe06feb5a616377ef806da,61036e26f9352193ec528f9d,2021-07-29_20h19.33.289,Simcolourproject_2stim_asymm_v5,2020.2.10,Win32,60,61025ae37ef11b136ea224fe,,,,,,,,,4069,37,98,1,0,0,response1disk,,7,6,-7,1,0,0,rectangle,6,-7,1,0,0,6,-7,1,0,0,0,109,109,47,1,,,,,,,,
,,,,,,,,,,,,,FF,,,,,,,,0.8655,,,,,,,,,,,,,,,,,,,,,,60fe06feb5a616377ef806da,61036e26f9352193ec528f9d,2021-07-29_20h19.33.289,Simcolourproject_2stim_asymm_v5,2020.2.10,Win32,60,61025ae37ef11b136ea224fe,,,,,,,,,607,90,41,1,0,0,response1disk,,6,-16,0,1,0,0,rectangle,-16,0,1,0,0,-16,0,1,0,0,0,110,110,48,1,,,,,,,,
,,,,,,,,,,,,,FF,,,,,,,,0.6326,,,,,,,,,,,,,,,,,,,,,,60fe06feb5a616377ef806da,61036e26f9352193ec528f9d,2021-07-29_20h19.33.289,Simcolourproject_2stim_asymm_v5,2020.2.10,Win32,60,61025ae37ef11b136ea224fe,,,,,,,,,3300,32,80,1,0,0,response1disk,,7,-10,-11,1,0,0,rectangle,-10,-11,1,0,0,-10,-11,1,0,0,0,111,111,18,1,,,,,,,,
,,,,,,,,,,,,,FF,,,,,,,,0.666,,,,,,,,,,,,,,,,,,,,,,60fe06feb5a616377ef806da,61036e26f9352193ec528f9d,2021-07-29_20h19.33.289,Simcolourproject_2stim_asymm_v5,2020.2.10,Win32,60,61025ae37ef11b136ea224fe,,,,,,,,,3758,23,81,1,0,0,response1disk,,7,1,-4,1,0,0,rectangle,1,-4,1,0,0,1,-4,1,0,0,0,112,112,27,1,,,,,,,,
,,,,,,,,,,,,,FF,,,,,,,,0.6489,,,,,,,,,,,,,,,,,,,,,,60fe06feb5a616377ef806da,61036e26f9352193ec528f9d,2021-07-29_20h19.33.289,Simcolourproject_2stim_asymm_v5,2020.2.10,Win32,60,61025ae37ef11b136ea224fe,,,,,,,,,3072,34,82,1,0,0,response1disk,,7,-10,1,1,0,0,rectangle,-10,1,1,0,0,-10,1,1,0,0,0,113,113,116,1,,,,,,,,
,,,,,,,,,,,,,FF,,,,,,,,1.1646,,,,,,,,,,,,,,,,,,,,,,60fe06feb5a616377ef806da,61036e26f9352193ec528f9d,2021-07-29_20h19.33.289,Simcolourproject_2stim_asymm_v5,2020.2.10,Win32,60,61025ae37ef11b136ea224fe,,,,,,,,,3996,71,36,1,0,0,response1disk,,6,-3,8,1,0,0,rectangle,-3,8,1,0,0,-3,8,1,0,0,0,114,114,3,1,,,,,,,,
,,,,,,,,,,,,,FF,,,,,,,,1.3145,,,,,,,,,,,,,,,,,,,,,,60fe06feb5a616377ef806da,61036e26f9352193ec528f9d,2021-07-29_20h19.33.289,Simcolourproject_2stim_asymm_v5,2020.2.10,Win32,60,61025ae37ef11b136ea224fe,,,,,,,,,3352,42,96,1,0,0,response1disk,,7,-2,3,1,0,0,rectangle,-2,3,1,0,0,-2,3,1,0,0,0,115,115,124,1,,,,,,,,
,,,,,,,,,,,,,FF,,,,,,,,0.9982,,,,,,,,,,,,,,,,,,,,,,60fe06feb5a616377ef806da,61036e26f9352193ec528f9d,2021-07-29_20h19.33.289,Simcolourproject_2stim_asymm_v5,2020.2.10,Win32,60,61025ae37ef11b136ea224fe,,,,,,,,,1887,-44,-84,1,0,0,response5disk,,3,24,-1,1,0,0,rectangle,24,-1,1,0,0,24,-1,1,0,0,0,116,116,42,1,,,,,,,,
,,,,,,,,,,,,,FF,,,,,,,,0.682,,,,,,,,,,,,,,,,,,,,,,60fe06feb5a616377ef806da,61036e26f9352193ec528f9d,2021-07-29_20h19.33.289,Simcolourproject_2stim_asymm_v5,2020.2.10,Win32,60,61025ae37ef11b136ea224fe,,,,,,,,,4262,47,81,1,0,0,response1disk,,7,4,1,1,0,0,rectangle,4,1,1,0,0,4,1,1,0,0,0,117,117,96,1,,,,,,,,
,,,,,,,,,,,,,FF,,,,,,,,0.6653,,,,,,,,,,,,,,,,,,,,,,60fe06feb5a616377ef806da,61036e26f9352193ec528f9d,2021-07-29_20h19.33.289,Simcolourproject_2stim_asymm_v5,2020.2.10,Win32,60,61025ae37ef11b136ea224fe,,,,,,,,,1666,39,88,1,0,0,response1disk,,7,6,3,1,0,0,rectangle,6,3,1,0,0,6,3,1,0,0,0,118,118,55,1,,,,,,,,
,,,,,,,,,,,,,FF,,,,,,,,1.0139,,,,,,,,,,,,,,,,,,,,,,60fe06feb5a616377ef806da,61036e26f9352193ec528f9d,2021-07-29_20h19.33.289,Simcolourproject_2stim_asymm_v5,2020.2.10,Win32,60,61025ae37ef11b136ea224fe,,,,,,,,,4161,-43,93,1,0,0,response7disk,,0,-2,0,1,0,0,rectangle,-2,0,1,0,0,-2,0,1,0,0,0,119,119,147,1,,,,,,,,
,,,,,,,,,,,,,FF,,,,,,,,1.081,,,,,,,,,,,,,,,,,,,,,,60fe06feb5a616377ef806da,61036e26f9352193ec528f9d,2021-07-29_20h19.33.289,Simcolourproject_2stim_asymm_v5,2020.2.10,Win32,60,61025ae37ef11b136ea224fe,,,,,,,,,3791,34,94,1,0,0,response1disk,,7,2,-3,1,0,0,rectangle,2,-3,1,0,0,2,-3,1,0,0,0,120,120,14,1,,,,,,,,
,,,,,,,,,,,,,FF,,,,,,,,1.1981,,,,,,,,,,,,,,,,,,,,,,60fe06feb5a616377ef806da,61036e26f9352193ec528f9d,2021-07-29_20h19.33.289,Simcolourproject_2stim_asymm_v5,2020.2.10,Win32,60,61025ae37ef11b136ea224fe,,,,,,,,,1490,109,38,1,0,0,response1disk,,6,-11,3,1,0,0,rectangle,-11,3,1,0,0,-11,3,1,0,0,0,121,121,74,1,,,,,,,,
,,,,,,,,,,,,,FF,,,,,,,,1.2306,,,,,,,,,,,,,,,,,,,,,,60fe06feb5a616377ef806da,61036e26f9352193ec528f9d,2021-07-29_20h19.33.289,Simcolourproject_2stim_asymm_v5,2020.2.10,Win32,60,61025ae37ef11b136ea224fe,,,,,,,,,1035,95,40,1,0,0,response1disk,,6,-23,-1,1,0,0,rectangle,-23,-1,1,0,0,-23,-1,1,0,0,0,122,122,150,1,,,,,,,,
,,,,,,,,,,,,,FF,,,,,,,,1.9305,,,,,,,,,,,,,,,,,,,,,,60fe06feb5a616377ef806da,61036e26f9352193ec528f9d,2021-07-29_20h19.33.289,Simcolourproject_2stim_asymm_v5,2020.2.10,Win32,60,61025ae37ef11b136ea224fe,,,,,,,,,4367,-83,42,1,0,0,response7disk,,1,-7,-7,1,0,0,rectangle,-7,-7,1,0,0,-7,-7,1,0,0,0,123,123,26,1,,,,,,,,
,,,,,,,,,,,,,FF,,,,,,,,1.4479,,,,,,,,,,,,,,,,,,,,,,60fe06feb5a616377ef806da,61036e26f9352193ec528f9d,2021-07-29_20h19.33.289,Simcolourproject_2stim_asymm_v5,2020.2.10,Win32,60,61025ae37ef11b136ea224fe,,,,,,,,,107,84,26,1,0,0,response1disk,,6,-3,3,1,0,0,rectangle,-3,3,1,0,0,-3,3,1,0,0,0,124,124,6,1,,,,,,,,
,,,,,,,,,,,,,FF,,,,,,,,0.9314,,,,,,,,,,,,,,,,,,,,,,60fe06feb5a616377ef806da,61036e26f9352193ec528f9d,2021-07-29_20h19.33.289,Simcolourproject_2stim_asymm_v5,2020.2.10,Win32,60,61025ae37ef11b136ea224fe,,,,,,,,,2030,-83,-42,1,0,0,response5disk,,2,-12,4,1,0,0,rectangle,-12,4,1,0,0,-12,4,1,0,0,0,125,125,16,1,,,,,,,,
,,,,,,,,,,,,,FF,,,,,,,,0.8988,,,,,,,,,,,,,,,,,,,,,,60fe06feb5a616377ef806da,61036e26f9352193ec528f9d,2021-07-29_20h19.33.289,Simcolourproject_2stim_asymm_v5,2020.2.10,Win32,60,61025ae37ef11b136ea224fe,,,,,,,,,4183,-86,-39,1,0,0,response5disk,,2,14,0,1,0,0,rectangle,14,0,1,0,0,14,0,1,0,0,0,126,126,60,1,,,,,,,,
,,,,,,,,,,,,,FF,,,,,,,,2.4294,,,,,,,,,,,,,,,,,,,,,,60fe06feb5a616377ef806da,61036e26f9352193ec528f9d,2021-07-29_20h19.33.289,Simcolourproject_2stim_asymm_v5,2020.2.10,Win32,60,61025ae37ef11b136ea224fe,,,,,,,,,3619,42,82,1,0,0,response1disk,,7,13,-5,1,0,0,rectangle,13,-5,1,0,0,13,-5,1,0,0,0,127,127,77,1,,,,,,,,
,,,,,,,,,,,,,FF,,,,,,,,0.7989,,,,,,,,,,,,,,,,,,,,,,60fe06feb5a616377ef806da,61036e26f9352193ec528f9d,2021-07-29_20h19.33.289,Simcolourproject_2stim_asymm_v5,2020.2.10,Win32,60,61025ae37ef11b136ea224fe,,,,,,,,,4271,32,95,1,0,0,response1disk,,7,-12,-2,1,0,0,rectangle,-12,-2,1,0,0,-12,-2,1,0,0,0,128,128,153,1,,,,,,,,
,,,,,,,,,,,,,FF,,,,,,,,0.9486,,,,,,,,,,,,,,,,,,,,,,60fe06feb5a616377ef806da,61036e26f9352193ec528f9d,2021-07-29_20h19.33.289,Simcolourproject_2stim_asymm_v5,2020.2.10,Win32,60,61025ae37ef11b136ea224fe,,,,,,,,,2166,-75,-45,1,0,0,response5disk,,2,9,12,1,0,0,rectangle,9,12,1,0,0,9,12,1,0,0,0,129,129,43,1,,,,,,,,
,,,,,,,,,,,,,FF,,,,,,,,0.5991,,,,,,,,,,,,,,,,,,,,,,60fe06feb5a616377ef806da,61036e26f9352193ec528f9d,2021-07-29_20h19.33.289,Simcolourproject_2stim_asymm_v5,2020.2.10,Win32,60,61025ae37ef11b136ea224fe,,,,,,,,,707,32,97,1,0,0,response1disk,,7,-6,-1,1,0,0,rectangle,-6,-1,1,0,0,-6,-1,1,0,0,0,130,130,141,1,,,,,,,,
,,,,,,,,,,,,,FF,,,,,,,,0.5372,,,,,,,,,,,,,,,,,,,,,,60fe06feb5a616377ef806da,61036e26f9352193ec528f9d,2021-07-29_20h19.33.289,Simcolourproject_2stim_asymm_v5,2020.2.10,Win32,60,61025ae37ef11b136ea224fe,,,,,,,,,1041,45,99,1,0,0,response1disk,,7,-3,5,1,0,0,rectangle,-3,5,1,0,0,-3,5,1,0,0,0,131,131,70,1,,,,,,,,
,,,,,,,,,,,,,FF,,,,,,,,0.7819,,,,,,,,,,,,,,,,,,,,,,60fe06feb5a616377ef806da,61036e26f9352193ec528f9d,2021-07-29_20h19.33.289,Simcolourproject_2stim_asymm_v5,2020.2.10,Win32,60,61025ae37ef11b136ea224fe,,,,,,,,,2093,-30,91,1,0,0,response7disk,,0,13,2,1,0,0,rectangle,13,2,1,0,0,13,2,1,0,0,0,132,132,151,1,,,,,,,,
,,,,,,,,,,,,,FF,,,,,,,,0.9319,,,,,,,,,,,,,,,,,,,,,,60fe06feb5a616377ef806da,61036e26f9352193ec528f9d,2021-07-29_20h19.33.289,Simcolourproject_2stim_asymm_v5,2020.2.10,Win32,60,61025ae37ef11b136ea224fe,,,,,,,,,2641,47,80,1,0,0,response1disk,,7,-1,3,1,0,0,rectangle,-1,3,1,0,0,-1,3,1,0,0,0,133,133,142,1,,,,,,,,
,,,,,,,,,,,,,FF,,,,,,,,1.2819,,,,,,,,,,,,,,,,,,,,,,60fe06feb5a616377ef806da,61036e26f9352193ec528f9d,2021-07-29_20h19.33.289,Simcolourproject_2stim_asymm_v5,2020.2.10,Win32,60,61025ae37ef11b136ea224fe,,,,,,,,,465,92,36,1,0,0,response1disk,,6,-14,11,1,0,0,rectangle,-14,11,1,0,0,-14,11,1,0,0,0,134,134,66,1,,,,,,,,
,,,,,,,,,,,,,FF,,,,,,,,0.6664,,,,,,,,,,,,,,,,,,,,,,60fe06feb5a616377ef806da,61036e26f9352193ec528f9d,2021-07-29_20h19.33.289,Simcolourproject_2stim_asymm_v5,2020.2.10,Win32,60,61025ae37ef11b136ea224fe,,,,,,,,,2317,44,89,1,0,0,response1disk,,7,2,4,1,0,0,rectangle,2,4,1,0,0,2,4,1,0,0,0,135,135,97,1,,,,,,,,
,,,,,,,,,,,,,FF,,,,,,,,0.8985,,,,,,,,,,,,,,,,,,,,,,60fe06feb5a616377ef806da,61036e26f9352193ec528f9d,2021-07-29_20h19.33.289,Simcolourproject_2stim_asymm_v5,2020.2.10,Win32,60,61025ae37ef11b136ea224fe,,,,,,,,,2381,31,79,1,0,0,response1disk,,7,-1,-1,1,0,0,rectangle,-1,-1,1,0,0,-1,-1,1,0,0,0,136,136,156,1,,,,,,,,
,,,,,,,,,,,,,FF,,,,,,,,1.2144,,,,,,,,,,,,,,,,,,,,,,60fe06feb5a616377ef806da,61036e26f9352193ec528f9d,2021-07-29_20h19.33.289,Simcolourproject_2stim_asymm_v5,2020.2.10,Win32,60,61025ae37ef11b136ea224fe,,,,,,,,,481,74,39,1,0,0,response1disk,,6,3,-5,1,0,0,rectangle,3,-5,1,0,0,3,-5,1,0,0,0,137,137,53,1,,,,,,,,
,,,,,,,,,,,,,FF,,,,,,,,1.1982,,,,,,,,,,,,,,,,,,,,,,60fe06feb5a616377ef806da,61036e26f9352193ec528f9d,2021-07-29_20h19.33.289,Simcolourproject_2stim_asymm_v5,2020.2.10,Win32,60,61025ae37ef11b136ea224fe,,,,,,,,,2419,23,-99,1,0,0,response3disk,,4,3,1,1,0,0,rectangle,3,1,1,0,0,3,1,1,0,0,0,138,138,126,1,,,,,,,,
,,,,,,,,,,,,,FF,,,,,,,,0.699,,,,,,,,,,,,,,,,,,,,,,60fe06feb5a616377ef806da,61036e26f9352193ec528f9d,2021-07-29_20h19.33.289,Simcolourproject_2stim_asymm_v5,2020.2.10,Win32,60,61025ae37ef11b136ea224fe,,,,,,,,,2462,42,80,1,0,0,response1disk,,7,13,6,1,0,0,rectangle,13,6,1,0,0,13,6,1,0,0,0,139,139,63,1,,,,,,,,
,,,,,,,,,,,,,FF,,,,,,,,0.5988,,,,,,,,,,,,,,,,,,,,,,60fe06feb5a616377ef806da,61036e26f9352193ec528f9d,2021-07-29_20h19.33.289,Simcolourproject_2stim_asymm_v5,2020.2.10,Win32,60,61025ae37ef11b136ea224fe,,,,,,,,,1630,45,88,1,0,0,response1disk,,7,2,6,1,0,0,rectangle,2,6,1,0,0,2,6,1,0,0,0,140,140,132,1,,,,,,,,
,,,,,,,,,,,,,FF,,,,,,,,0.8488,,,,,,,,,,,,,,,,,,,,,,60fe06feb5a616377ef806da,61036e26f9352193ec528f9d,2021-07-29_20h19.33.289,Simcolourproject_2stim_asymm_v5,2020.2.10,Win32,60,61025ae37ef11b136ea224fe,,,,,,,,,2445,38,73,1,0,0,response1disk,,7,-2,-2,1,0,0,rectangle,-2,-2,1,0,0,-2,-2,1,0,0,0,141,141,136,1,,,,,,,,
,,,,,,,,,,,,,FF,,,,,,,,1.5311,,,,,,,,,,,,,,,,,,,,,,60fe06feb5a616377ef806da,61036e26f9352193ec528f9d,2021-07-29_20h19.33.289,Simcolourproject_2stim_asymm_v5,2020.2.10,Win32,60,61025ae37ef11b136ea224fe,,,,,,,,,1899,50,-79,1,0,0,response3disk,,4,-2,3,1,0,0,rectangle,-2,3,1,0,0,-2,3,1,0,0,0,142,142,72,1,,,,,,,,
,,,,,,,,,,,,,FF,,,,,,,,1.1983,,,,,,,,,,,,,,,,,,,,,,60fe06feb5a616377ef806da,61036e26f9352193ec528f9d,2021-07-29_20h19.33.289,Simcolourproject_2stim_asymm_v5,2020.2.10,Win32,60,61025ae37ef11b136ea224fe,,,,,,,,,551,-77,-99,1,0,0,response5disk,,3,6,4,1,0,0,rectangle,6,4,1,0,0,6,4,1,0,0,0,143,143,56,1,,,,,,,,
,,,,,,,,,,,,,FF,,,,,,,,0.6821,,,,,,,,,,,,,,,,,,,,,,60fe06feb5a616377ef806da,61036e26f9352193ec528f9d,2021-07-29_20h19.33.289,Simcolourproject_2stim_asymm_v5,2020.2.10,Win32,60,61025ae37ef11b136ea224fe,,,,,,,,,2975,21,64,1,0,0,response1disk,,7,-6,-9,1,0,0,rectangle,-6,-9,1,0,0,-6,-9,1,0,0,0,144,144,157,1,,,,,,,,
,,,,,,,,,,,,,FF,,,,,,,,0.9153,,,,,,,,,,,,,,,,,,,,,,60fe06feb5a616377ef806da,61036e26f9352193ec528f9d,2021-07-29_20h19.33.289,Simcolourproject_2stim_asymm_v5,2020.2.10,Win32,60,61025ae37ef11b136ea224fe,,,,,,,,,1607,-39,-90,1,0,0,response5disk,,3,-3,5,1,0,0,rectangle,-3,5,1,0,0,-3,5,1,0,0,0,145,145,101,1,,,,,,,,
,,,,,,,,,,,,,FF,,,,,,,,0.6152,,,,,,,,,,,,,,,,,,,,,,60fe06feb5a616377ef806da,61036e26f9352193ec528f9d,2021-07-29_20h19.33.289,Simcolourproject_2stim_asymm_v5,2020.2.10,Win32,60,61025ae37ef11b136ea224fe,,,,,,,,,3465,52,88,1,0,0,response1disk,,7,9,2,1,0,0,rectangle,9,2,1,0,0,9,2,1,0,0,0,146,146,140,1,,,,,,,,
,,,,,,,,,,,,,FF,,,,,,,,0.7499,,,,,,,,,,,,,,,,,,,,,,60fe06feb5a616377ef806da,61036e26f9352193ec528f9d,2021-07-29_20h19.33.289,Simcolourproject_2stim_asymm_v5,2020.2.10,Win32,60,61025ae37ef11b136ea224fe,,,,,,,,,2926,18,37,1,0,0,response1disk,,7,0,4,1,0,0,rectangle,0,4,1,0,0,0,4,1,0,0,0,147,147,81,1,,,,,,,,
,,,,,,,,,,,,,FF,,,,,,,,0.7318,,,,,,,,,,,,,,,,,,,,,,60fe06feb5a616377ef806da,61036e26f9352193ec528f9d,2021-07-29_20h19.33.289,Simcolourproject_2stim_asymm_v5,2020.2.10,Win32,60,61025ae37ef11b136ea224fe,,,,,,,,,4341,42,92,1,0,0,response1disk,,7,4,-2,1,0,0,rectangle,4,-2,1,0,0,4,-2,1,0,0,0,148,148,5,1,,,,,,,,
,,,,,,,,,,,,,FF,,,,,,,,1.3978,,,,,,,,,,,,,,,,,,,,,,60fe06feb5a616377ef806da,61036e26f9352193ec528f9d,2021-07-29_20h19.33.289,Simcolourproject_2stim_asymm_v5,2020.2.10,Win32,60,61025ae37ef11b136ea224fe,,,,,,,,,3979,-54,-78,1,0,0,response5disk,,3,-9,3,1,0,0,rectangle,-9,3,1,0,0,-9,3,1,0,0,0,149,149,152,1,,,,,,,,
,,,,,,,,,,,,,FF,,,,,,,,3.0455,,,,,,,,,,,,,,,,,,,,,,60fe06feb5a616377ef806da,61036e26f9352193ec528f9d,2021-07-29_20h19.33.289,Simcolourproject_2stim_asymm_v5,2020.2.10,Win32,60,61025ae37ef11b136ea224fe,,,,,,,,,2354,73,-43,1,0,0,response3disk,,5,21,-10,1,0,0,rectangle,21,-10,1,0,0,21,-10,1,0,0,0,150,150,110,1,,,,,,,,
,,,,,,,,,,,,,FF,,,,,,,,1.6473,,,,,,,,,,,,,,,,,,,,,,60fe06feb5a616377ef806da,61036e26f9352193ec528f9d,2021-07-29_20h19.33.289,Simcolourproject_2stim_asymm_v5,2020.2.10,Win32,60,61025ae37ef11b136ea224fe,,,,,,,,,314,52,74,1,0,0,response1disk,,7,6,-1,1,0,0,rectangle,6,-1,1,0,0,6,-1,1,0,0,0,151,151,22,1,,,,,,,,
,,,,,,,,,,,,,FF,,,,,,,,0.6824,,,,,,,,,,,,,,,,,,,,,,60fe06feb5a616377ef806da,61036e26f9352193ec528f9d,2021-07-29_20h19.33.289,Simcolourproject_2stim_asymm_v5,2020.2.10,Win32,60,61025ae37ef11b136ea224fe,,,,,,,,,923,37,78,1,0,0,response1disk,,7,2,5,1,0,0,rectangle,2,5,1,0,0,2,5,1,0,0,0,152,152,69,1,,,,,,,,
,,,,,,,,,,,,,FF,,,,,,,,2.5954,,,,,,,,,,,,,,,,,,,,,,60fe06feb5a616377ef806da,61036e26f9352193ec528f9d,2021-07-29_20h19.33.289,Simcolourproject_2stim_asymm_v5,2020.2.10,Win32,60,61025ae37ef11b136ea224fe,,,,,,,,,1506,37,71,1,0,0,response1disk,,7,1,9,1,0,0,rectangle,1,9,1,0,0,1,9,1,0,0,0,153,153,78,1,,,,,,,,
,,,,,,,,,,,,,FF,,,,,,,,0.5989,,,,,,,,,,,,,,,,,,,,,,60fe06feb5a616377ef806da,61036e26f9352193ec528f9d,2021-07-29_20h19.33.289,Simcolourproject_2stim_asymm_v5,2020.2.10,Win32,60,61025ae37ef11b136ea224fe,,,,,,,,,3171,24,76,1,0,0,response1disk,,7,-5,-8,1,0,0,rectangle,-84,39,1,0,0,2,5,1,0,0,0,154,154,49,1,,response7disk_3,TRUE,1,1,"[231,262,92,203,236,266,97,64,222,178,104,300,251,44,40,105,200,190,77,155]",1.3973,rectangle
,,,,,,,,,,,,,FF,,,,,,,,1.0478,,,,,,,,,,,,,,,,,,,,,,60fe06feb5a616377ef806da,61036e26f9352193ec528f9d,2021-07-29_20h19.33.289,Simcolourproject_2stim_asymm_v5,2020.2.10,Win32,60,61025ae37ef11b136ea224fe,,,,,,,,,925,44,100,1,0,0,response1disk,,7,-2,-3,1,0,0,rectangle,-2,-3,1,0,0,-2,-3,1,0,0,0,155,155,71,1,,,,,,,,
,,,,,,,,,,,,,FF,,,,,,,,0.8322,,,,,,,,,,,,,,,,,,,,,,60fe06feb5a616377ef806da,61036e26f9352193ec528f9d,2021-07-29_20h19.33.289,Simcolourproject_2stim_asymm_v5,2020.2.10,Win32,60,61025ae37ef11b136ea224fe,,,,,,,,,1840,53,92,1,0,0,response1disk,,7,3,0,1,0,0,rectangle,3,0,1,0,0,3,0,1,0,0,0,156,156,40,1,,,,,,,,
,,,,,,,,,,,,,FF,,,,,,,,0.5995,,,,,,,,,,,,,,,,,,,,,,60fe06feb5a616377ef806da,61036e26f9352193ec528f9d,2021-07-29_20h19.33.289,Simcolourproject_2stim_asymm_v5,2020.2.10,Win32,60,61025ae37ef11b136ea224fe,,,,,,,,,1716,40,89,1,0,0,response1disk,,7,14,5,1,0,0,rectangle,14,5,1,0,0,14,5,1,0,0,0,157,157,113,1,,,,,,,,
,,,,,,,,,,,,,FF,,,,,,,,0.9326,,,,,,,,,,,,,,,,,,,,,,60fe06feb5a616377ef806da,61036e26f9352193ec528f9d,2021-07-29_20h19.33.289,Simcolourproject_2stim_asymm_v5,2020.2.10,Win32,60,61025ae37ef11b136ea224fe,,,,,,,,,2815,92,42,1,0,0,response1disk,,6,-29,6,1,0,0,rectangle,-29,6,1,0,0,-29,6,1,0,0,0,158,158,111,1,,,,,,,,
,,,,,,,,,,,,,FF,,,,,,,,0.9485,,,,,,,,,,,,,,,,,,,,,,60fe06feb5a616377ef806da,61036e26f9352193ec528f9d,2021-07-29_20h19.33.289,Simcolourproject_2stim_asymm_v5,2020.2.10,Win32,60,61025ae37ef11b136ea224fe,,,,,,,,,3046,-80,-43,1,0,0,response5disk,,2,-1,12,1,0,0,rectangle,-1,12,1,0,0,-1,12,1,0,0,0,159,159,44,1,,,,,,,,
,,,,,,,,,,,,,FF,,,,,,,,1.0317,,,,,,,,,,,,,,,,,,,,,,60fe06feb5a616377ef806da,61036e26f9352193ec528f9d,2021-07-29_20h19.33.289,Simcolourproject_2stim_asymm_v5,2020.2.10,Win32,60,61025ae37ef11b136ea224fe,,,,,,,,,1431,44,-90,1,0,0,response3disk,,4,13,9,1,0,0,rectangle,13,9,1,0,0,13,9,1,0,0,1,0,160,104,1,,,,,,,,
,,,,,,,,,,,,,FF,,,,,,,,0.932,,,,,,,,,,,,,,,,,,,,,,60fe06feb5a616377ef806da,61036e26f9352193ec528f9d,2021-07-29_20h19.33.289,Simcolourproject_2stim_asymm_v5,2020.2.10,Win32,60,61025ae37ef11b136ea224fe,,,,,,,,,4097,-82,-48,1,0,0,response5disk,,2,8,0,1,0,0,rectangle,8,0,1,0,0,8,0,1,0,0,1,1,161,0,1,,,,,,,,
,,,,,,,,,,,,,FF,,,,,,,,1.6145,,,,,,,,,,,,,,,,,,,,,,60fe06feb5a616377ef806da,61036e26f9352193ec528f9d,2021-07-29_20h19.33.289,Simcolourproject_2stim_asymm_v5,2020.2.10,Win32,60,61025ae37ef11b136ea224fe,,,,,,,,,1045,45,-70,1,0,0,response3disk,,4,2,1,1,0,0,rectangle,2,1,1,0,0,2,1,1,0,0,1,2,162,97,1,,,,,,,,
,,,,,,,,,,,,,FF,,,,,,,,2.2474,,,,,,,,,,,,,,,,,,,,,,60fe06feb5a616377ef806da,61036e26f9352193ec528f9d,2021-07-29_20h19.33.289,Simcolourproject_2stim_asymm_v5,2020.2.10,Win32,60,61025ae37ef11b136ea224fe,,,,,,,,,793,84,-25,1,0,0,response3disk,,5,4,-3,1,0,0,rectangle,4,-3,1,0,0,4,-3,1,0,0,1,3,163,120,1,,,,,,,,
,,,,,,,,,,,,,FF,,,,,,,,0.9654,,,,,,,,,,,,,,,,,,,,,,60fe06feb5a616377ef806da,61036e26f9352193ec528f9d,2021-07-29_20h19.33.289,Simcolourproject_2stim_asymm_v5,2020.2.10,Win32,60,61025ae37ef11b136ea224fe,,,,,,,,,3749,-34,-92,1,0,0,response5disk,,3,21,14,1,0,0,rectangle,21,14,1,0,0,21,14,1,0,0,1,4,164,58,1,,,,,,,,
,,,,,,,,,,,,,FF,,,,,,,,2.1631,,,,,,,,,,,,,,,,,,,,,,60fe06feb5a616377ef806da,61036e26f9352193ec528f9d,2021-07-29_20h19.33.289,Simcolourproject_2stim_asymm_v5,2020.2.10,Win32,60,61025ae37ef11b136ea224fe,,,,,,,,,2742,109,-46,1,0,0,response3disk,,5,10,3,1,0,0,rectangle,10,3,1,0,0,10,3,1,0,0,1,5,165,35,1,,,,,,,,
,,,,,,,,,,,,,FF,,,,,,,,1.6797,,,,,,,,,,,,,,,,,,,,,,60fe06feb5a616377ef806da,61036e26f9352193ec528f9d,2021-07-29_20h19.33.289,Simcolourproject_2stim_asymm_v5,2020.2.10,Win32,60,61025ae37ef11b136ea224fe,,,,,,,,,697,81,-34,1,0,0,response3disk,,5,5,11,1,0,0,rectangle,5,11,1,0,0,5,11,1,0,0,1,6,166,145,1,,,,,,,,
,,,,,,,,,,,,,FF,,,,,,,,1.8642,,,,,,,,,,,,,,,,,,,,,,60fe06feb5a616377ef806da,61036e26f9352193ec528f9d,2021-07-29_20h19.33.289,Simcolourproject_2stim_asymm_v5,2020.2.10,Win32,60,61025ae37ef11b136ea224fe,,,,,,,,,258,32,-87,1,0,0,response3disk,,4,12,2,1,0,0,rectangle,12,2,1,0,0,12,2,1,0,0,1,7,167,42,1,,,,,,,,
,,,,,,,,,,,,,FF,,,,,,,,1.0645,,,,,,,,,,,,,,,,,,,,,,60fe06feb5a616377ef806da,61036e26f9352193ec528f9d,2021-07-29_20h19.33.289,Simcolourproject_2stim_asymm_v5,2020.2.10,Win32,60,61025ae37ef11b136ea224fe,,,,,,,,,388,95,47,1,0,0,response1disk,,6,1,-10,1,0,0,rectangle,1,-10,1,0,0,1,-10,1,0,0,1,8,168,31,1,,,,,,,,
,,,,,,,,,,,,,FF,,,,,,,,1.6632,,,,,,,,,,,,,,,,,,,,,,60fe06feb5a616377ef806da,61036e26f9352193ec528f9d,2021-07-29_20h19.33.289,Simcolourproject_2stim_asymm_v5,2020.2.10,Win32,60,61025ae37ef11b136ea224fe,,,,,,,,,1149,40,-92,1,0,0,response3disk,,4,3,8,1,0,0,rectangle,3,8,1,0,0,3,8,1,0,0,1,9,169,5,1,,,,,,,,
,,,,,,,,,,,,,FF,,,,,,,,10.3841,,,,,,,,,,,,,,,,,,,,,,60fe06feb5a616377ef806da,61036e26f9352193ec528f9d,2021-07-29_20h19.33.289,Simcolourproject_2stim_asymm_v5,2020.2.10,Win32,60,61025ae37ef11b136ea224fe,,,,,,,,,3544,65,-41,1,0,0,response3disk,,5,-8,3,1,0,0,rectangle,-8,3,1,0,0,-8,3,1,0,0,1,10,170,27,1,,,,,,,,
,,,,,,,,,,,,,FF,,,,,,,,1.7301,,,,,,,,,,,,,,,,,,,,,,60fe06feb5a616377ef806da,61036e26f9352193ec528f9d,2021-07-29_20h19.33.289,Simcolourproject_2stim_asymm_v5,2020.2.10,Win32,60,61025ae37ef11b136ea224fe,,,,,,,,,1147,78,-43,1,0,0,response3disk,,5,-9,12,1,0,0,rectangle,-9,12,1,0,0,-9,12,1,0,0,1,11,171,38,1,,,,,,,,
,,,,,,,,,,,,,FF,,,,,,,,3.145,,,,,,,,,,,,,,,,,,,,,,60fe06feb5a616377ef806da,61036e26f9352193ec528f9d,2021-07-29_20h19.33.289,Simcolourproject_2stim_asymm_v5,2020.2.10,Win32,60,61025ae37ef11b136ea224fe,,,,,,,,,3414,44,82,1,0,0,response1disk,,7,-8,1,1,0,0,rectangle,-8,1,1,0,0,-8,1,1,0,0,1,12,172,88,1,,,,,,,,
,,,,,,,,,,,,,FF,,,,,,,,1.8972,,,,,,,,,,,,,,,,,,,,,,60fe06feb5a616377ef806da,61036e26f9352193ec528f9d,2021-07-29_20h19.33.289,Simcolourproject_2stim_asymm_v5,2020.2.10,Win32,60,61025ae37ef11b136ea224fe,,,,,,,,,2620,78,36,1,0,0,response1disk,,6,2,-2,1,0,0,rectangle,2,-2,1,0,0,2,-2,1,0,0,1,13,173,157,1,,,,,,,,
,,,,,,,,,,,,,FF,,,,,,,,1.5982,,,,,,,,,,,,,,,,,,,,,,60fe06feb5a616377ef806da,61036e26f9352193ec528f9d,2021-07-29_20h19.33.289,Simcolourproject_2stim_asymm_v5,2020.2.10,Win32,60,61025ae37ef11b136ea224fe,,,,,,,,,779,82,-42,1,0,0,response3disk,,5,0,8,1,0,0,rectangle,0,8,1,0,0,0,8,1,0,0,1,14,174,75,1,,,,,,,,
,,,,,,,,,,,,,FF,,,,,,,,1.2482,,,,,,,,,,,,,,,,,,,,,,60fe06feb5a616377ef806da,61036e26f9352193ec528f9d,2021-07-29_20h19.33.289,Simcolourproject_2stim_asymm_v5,2020.2.10,Win32,60,61025ae37ef11b136ea224fe,,,,,,,,,991,78,-31,1,0,0,response3disk,,5,-7,6,1,0,0,rectangle,-7,6,1,0,0,-7,6,1,0,0,1,15,175,74,1,,,,,,,,
,,,,,,,,,,,,,FF,,,,,,,,0.649,,,,,,,,,,,,,,,,,,,,,,60fe06feb5a616377ef806da,61036e26f9352193ec528f9d,2021-07-29_20h19.33.289,Simcolourproject_2stim_asymm_v5,2020.2.10,Win32,60,61025ae37ef11b136ea224fe,,,,,,,,,4155,35,68,1,0,0,response1disk,,7,-7,7,1,0,0,rectangle,-7,7,1,0,0,-7,7,1,0,0,1,16,176,149,1,,,,,,,,
,,,,,,,,,,,,,FF,,,,,,,,0.9988,,,,,,,,,,,,,,,,,,,,,,60fe06feb5a616377ef806da,61036e26f9352193ec528f9d,2021-07-29_20h19.33.289,Simcolourproject_2stim_asymm_v5,2020.2.10,Win32,60,61025ae37ef11b136ea224fe,,,,,,,,,3473,-71,-35,1,0,0,response5disk,,2,-5,8,1,0,0,rectangle,-79,-51,1,0,0,-7,-1,1,0,0,1,17,177,41,1,,response5disk_3,TRUE,2,2,"[231,262,92,203,236,266,97,64,222,178,104,300,251,44,40,105,200,190,77,155]",1.514,rectangle
,,,,,,,,,,,,,FF,,,,,,,,1.1313,,,,,,,,,,,,,,,,,,,,,,60fe06feb5a616377ef806da,61036e26f9352193ec528f9d,2021-07-29_20h19.33.289,Simcolourproject_2stim_asymm_v5,2020.2.10,Win32,60,61025ae37ef11b136ea224fe,,,,,,,,,1138,-78,47,1,0,0,response7disk,,1,-18,-7,1,0,0,rectangle,-18,-7,1,0,0,-18,-7,1,0,0,1,18,178,18,1,,,,,,,,
,,,,,,,,,,,,,FF,,,,,,,,1.1314,,,,,,,,,,,,,,,,,,,,,,60fe06feb5a616377ef806da,61036e26f9352193ec528f9d,2021-07-29_20h19.33.289,Simcolourproject_2stim_asymm_v5,2020.2.10,Win32,60,61025ae37ef11b136ea224fe,,,,,,,,,1231,34,-85,1,0,0,response3disk,,4,-6,-3,1,0,0,rectangle,-6,-3,1,0,0,-6,-3,1,0,0,1,19,179,100,1,,,,,,,,
,,,,,,,,,,,,,FF,,,,,,,,1.764,,,,,,,,,,,,,,,,,,,,,,60fe06feb5a616377ef806da,61036e26f9352193ec528f9d,2021-07-29_20h19.33.289,Simcolourproject_2stim_asymm_v5,2020.2.10,Win32,60,61025ae37ef11b136ea224fe,,,,,,,,,661,68,-37,1,0,0,response3disk,,5,12,-1,1,0,0,rectangle,12,-1,1,0,0,12,-1,1,0,0,1,20,180,150,1,,,,,,,,
,,,,,,,,,,,,,FF,,,,,,,,0.732,,,,,,,,,,,,,,,,,,,,,,60fe06feb5a616377ef806da,61036e26f9352193ec528f9d,2021-07-29_20h19.33.289,Simcolourproject_2stim_asymm_v5,2020.2.10,Win32,60,61025ae37ef11b136ea224fe,,,,,,,,,3264,20,71,1,0,0,response1disk,,7,5,2,1,0,0,rectangle,5,2,1,0,0,5,2,1,0,0,1,21,181,59,1,,,,,,,,
,,,,,,,,,,,,,FF,,,,,,,,1.3648,,,,,,,,,,,,,,,,,,,,,,60fe06feb5a616377ef806da,61036e26f9352193ec528f9d,2021-07-29_20h19.33.289,Simcolourproject_2stim_asymm_v5,2020.2.10,Win32,60,61025ae37ef11b136ea224fe,,,,,,,,,1541,83,-39,1,0,0,response3disk,,5,3,15,1,0,0,rectangle,3,15,1,0,0,3,15,1,0,0,1,22,182,12,1,,,,,,,,
,,,,,,,,,,,,,FF,,,,,,,,1.015,,,,,,,,,,,,,,,,,,,,,,60fe06feb5a616377ef806da,61036e26f9352193ec528f9d,2021-07-29_20h19.33.289,Simcolourproject_2stim_asymm_v5,2020.2.10,Win32,60,61025ae37ef11b136ea224fe,,,,,,,,,3950,51,77,1,0,0,response1disk,,7,3,-5,1,0,0,rectangle,3,-5,1,0,0,3,-5,1,0,0,1,23,183,6,1,,,,,,,,
,,,,,,,,,,,,,FF,,,,,,,,3.0787,,,,,,,,,,,,,,,,,,,,,,60fe06feb5a616377ef806da,61036e26f9352193ec528f9d,2021-07-29_20h19.33.289,Simcolourproject_2stim_asymm_v5,2020.2.10,Win32,60,61025ae37ef11b136ea224fe,,,,,,,,,2098,-89,-50,1,0,0,response5disk,,2,-1,7,1,0,0,rectangle,-1,7,1,0,0,-1,7,1,0,0,1,24,184,92,1,,,,,,,,
,,,,,,,,,,,,,FF,,,,,,,,0.8822,,,,,,,,,,,,,,,,,,,,,,60fe06feb5a616377ef806da,61036e26f9352193ec528f9d,2021-07-29_20h19.33.289,Simcolourproject_2stim_asymm_v5,2020.2.10,Win32,60,61025ae37ef11b136ea224fe,,,,,,,,,2864,24,62,1,0,0,response1disk,,7,-18,-1,1,0,0,rectangle,-18,-1,1,0,0,-18,-1,1,0,0,1,25,185,71,1,,,,,,,,
,,,,,,,,,,,,,FF,,,,,,,,1.0312,,,,,,,,,,,,,,,,,,,,,,60fe06feb5a616377ef806da,61036e26f9352193ec528f9d,2021-07-29_20h19.33.289,Simcolourproject_2stim_asymm_v5,2020.2.10,Win32,60,61025ae37ef11b136ea224fe,,,,,,,,,3715,72,37,1,0,0,response1disk,,6,-9,0,1,0,0,rectangle,-9,0,1,0,0,-9,0,1,0,0,1,26,186,87,1,,,,,,,,
,,,,,,,,,,,,,FF,,,,,,,,0.749,,,,,,,,,,,,,,,,,,,,,,60fe06feb5a616377ef806da,61036e26f9352193ec528f9d,2021-07-29_20h19.33.289,Simcolourproject_2stim_asymm_v5,2020.2.10,Win32,60,61025ae37ef11b136ea224fe,,,,,,,,,281,45,77,1,0,0,response1disk,,7,3,2,1,0,0,rectangle,3,2,1,0,0,3,2,1,0,0,1,27,187,111,1,,,,,,,,
,,,,,,,,,,,,,FF,,,,,,,,0.5157,,,,,,,,,,,,,,,,,,,,,,60fe06feb5a616377ef806da,61036e26f9352193ec528f9d,2021-07-29_20h19.33.289,Simcolourproject_2stim_asymm_v5,2020.2.10,Win32,60,61025ae37ef11b136ea224fe,,,,,,,,,1263,23,59,1,0,0,response1disk,,7,-4,-5,1,0,0,rectangle,-4,-5,1,0,0,-4,-5,1,0,0,1,28,188,118,1,,,,,,,,
,,,,,,,,,,,,,FF,,,,,,,,0.5817,,,,,,,,,,,,,,,,,,,,,,60fe06feb5a616377ef806da,61036e26f9352193ec528f9d,2021-07-29_20h19.33.289,Simcolourproject_2stim_asymm_v5,2020.2.10,Win32,60,61025ae37ef11b136ea224fe,,,,,,,,,1283,32,66,1,0,0,response1disk,,7,-10,-8,1,0,0,rectangle,38,-92,1,0,0,-3,-2,1,0,0,1,29,189,40,1,,response3disk_3,TRUE,4,4,"[231,262,92,203,236,266,97,64,222,178,104,300,251,44,40,105,200,190,77,155]",1.132,rectangle
,,,,,,,,,,,,,FF,,,,,,,,1.4809,,,,,,,,,,,,,,,,,,,,,,60fe06feb5a616377ef806da,61036e26f9352193ec528f9d,2021-07-29_20h19.33.289,Simcolourproject_2stim_asymm_v5,2020.2.10,Win32,60,61025ae37ef11b136ea224fe,,,,,,,,,14,31,-85,1,0,0,response3disk,,4,-5,2,1,0,0,rectangle,-5,2,1,0,0,-5,2,1,0,0,1,30,190,122,1,,,,,,,,
,,,,,,,,,,,,,FF,,,,,,,,1.4805,,,,,,,,,,,,,,,,,,,,,,60fe06feb5a616377ef806da,61036e26f9352193ec528f9d,2021-07-29_20h19.33.289,Simcolourproject_2stim_asymm_v5,2020.2.10,Win32,60,61025ae37ef11b136ea224fe,,,,,,,,,3708,-50,-95,1,0,0,response5disk,,3,-4,10,1,0,0,rectangle,-4,10,1,0,0,-4,10,1,0,0,1,31,191,73,1,,,,,,,,
,,,,,,,,,,,,,FF,,,,,,,,0.6325,,,,,,,,,,,,,,,,,,,,,,60fe06feb5a616377ef806da,61036e26f9352193ec528f9d,2021-07-29_20h19.33.289,Simcolourproject_2stim_asymm_v5,2020.2.10,Win32,60,61025ae37ef11b136ea224fe,,,,,,,,,3076,25,86,1,0,0,response1disk,,7,-6,10,1,0,0,rectangle,-6,10,1,0,0,-6,10,1,0,0,1,32,192,32,1,,,,,,,,
,,,,,,,,,,,,,FF,,,,,,,,0.6159,,,,,,,,,,,,,,,,,,,,,,60fe06feb5a616377ef806da,61036e26f9352193ec528f9d,2021-07-29_20h19.33.289,Simcolourproject_2stim_asymm_v5,2020.2.10,Win32,60,61025ae37ef11b136ea224fe,,,,,,,,,2470,35,87,1,0,0,response1disk,,7,6,-4,1,0,0,rectangle,6,-4,1,0,0,6,-4,1,0,0,1,33,193,112,1,,,,,,,,
,,,,,,,,,,,,,FF,,,,,,,,1.4147,,,,,,,,,,,,,,,,,,,,,,60fe06feb5a616377ef806da,61036e26f9352193ec528f9d,2021-07-29_20h19.33.289,Simcolourproject_2stim_asymm_v5,2020.2.10,Win32,60,61025ae37ef11b136ea224fe,,,,,,,,,1216,74,-44,1,0,0,response3disk,,5,3,-4,1,0,0,rectangle,3,-4,1,0,0,3,-4,1,0,0,1,34,194,86,1,,,,,,,,
,,,,,,,,,,,,,FF,,,,,,,,1.0479,,,,,,,,,,,,,,,,,,,,,,60fe06feb5a616377ef806da,61036e26f9352193ec528f9d,2021-07-29_20h19.33.289,Simcolourproject_2stim_asymm_v5,2020.2.10,Win32,60,61025ae37ef11b136ea224fe,,,,,,,,,3995,-43,-101,1,0,0,response5disk,,3,4,1,1,0,0,rectangle,4,1,1,0,0,4,1,1,0,0,1,35,195,110,1,,,,,,,,
,,,,,,,,,,,,,FF,,,,,,,,0.5825,,,,,,,,,,,,,,,,,,,,,,60fe06feb5a616377ef806da,61036e26f9352193ec528f9d,2021-07-29_20h19.33.289,Simcolourproject_2stim_asymm_v5,2020.2.10,Win32,60,61025ae37ef11b136ea224fe,,,,,,,,,1321,37,87,1,0,0,response1disk,,7,6,11,1,0,0,rectangle,6,11,1,0,0,6,11,1,0,0,1,36,196,52,1,,,,,,,,
,,,,,,,,,,,,,FF,,,,,,,,0.5334,,,,,,,,,,,,,,,,,,,,,,60fe06feb5a616377ef806da,61036e26f9352193ec528f9d,2021-07-29_20h19.33.289,Simcolourproject_2stim_asymm_v5,2020.2.10,Win32,60,61025ae37ef11b136ea224fe,,,,,,,,,2748,33,86,1,0,0,response1disk,,7,-2,9,1,0,0,rectangle,-2,9,1,0,0,-2,9,1,0,0,1,37,197,151,1,,,,,,,,
,,,,,,,,,,,,,FF,,,,,,,,0.5826,,,,,,,,,,,,,,,,,,,,,,60fe06feb5a616377ef806da,61036e26f9352193ec528f9d,2021-07-29_20h19.33.289,Simcolourproject_2stim_asymm_v5,2020.2.10,Win32,60,61025ae37ef11b136ea224fe,,,,,,,,,3865,33,78,1,0,0,response1disk,,7,-7,-11,1,0,0,rectangle,-7,-11,1,0,0,-7,-11,1,0,0,1,38,198,13,1,,,,,,,,
,,,,,,,,,,,,,FF,,,,,,,,1.5478,,,,,,,,,,,,,,,,,,,,,,60fe06feb5a616377ef806da,61036e26f9352193ec528f9d,2021-07-29_20h19.33.289,Simcolourproject_2stim_asymm_v5,2020.2.10,Win32,60,61025ae37ef11b136ea224fe,,,,,,,,,2541,-50,94,1,0,0,response7disk,,0,-14,13,1,0,0,rectangle,82,-41,1,0,0,-5,-1,1,0,0,1,39,199,8,1,,response3disk_3,TRUE,5,5,"[231,262,92,203,236,266,97,64,222,178,104,300,251,44,40,105,200,190,77,155]",1.2977,rectangle
,,,,,,,,,,,,,FF,,,,,,,,2.5293,,,,,,,,,,,,,,,,,,,,,,60fe06feb5a616377ef806da,61036e26f9352193ec528f9d,2021-07-29_20h19.33.289,Simcolourproject_2stim_asymm_v5,2020.2.10,Win32,60,61025ae37ef11b136ea224fe,,,,,,,,,445,-89,39,1,0,0,response7disk,,1,-2,12,1,0,0,rectangle,-2,12,1,0,0,-2,12,1,0,0,1,40,200,140,1,,,,,,,,
,,,,,,,,,,,,,FF,,,,,,,,1.3812,,,,,,,,,,,,,,,,,,,,,,60fe06feb5a616377ef806da,61036e26f9352193ec528f9d,2021-07-29_20h19.33.289,Simcolourproject_2stim_asymm_v5,2020.2.10,Win32,60,61025ae37ef11b136ea224fe,,,,,,,,,1733,-43,-89,1,0,0,response5disk,,3,0,12,1,0,0,rectangle,0,12,1,0,0,0,12,1,0,0,1,41,201,152,1,,,,,,,,
,,,,,,,,,,,,,FF,,,,,,,,0.5498,,,,,,,,,,,,,,,,,,,,,,60fe06feb5a616377ef806da,61036e26f9352193ec528f9d,2021-07-29_20h19.33.289,Simcolourproject_2stim_asymm_v5,2020.2.10,Win32,60,61025ae37ef11b136ea224fe,,,,,,,,,3488,35,111,1,0,0,response1disk,,7,5,10,1,0,0,rectangle,-43,-90,1,0,0,2,9,1,0,0,1,42,202,98,1,,response5disk_3,TRUE,3,3,"[231,262,92,203,236,266,97,64,222,178,104,300,251,44,40,105,200,190,77,155]",1.5805,rectangle
,,,,,,,,,,,,,FF,,,,,,,,1.4803,,,,,,,,,,,,,,,,,,,,,,60fe06feb5a616377ef806da,61036e26f9352193ec528f9d,2021-07-29_20h19.33.289,Simcolourproject_2stim_asymm_v5,2020.2.10,Win32,60,61025ae37ef11b136ea224fe,,,,,,,,,526,-32,-108,1,0,0,response5disk,,3,-1,14,1,0,0,rectangle,-1,14,1,0,0,-1,14,1,0,0,1,43,203,135,1,,,,,,,,
,,,,,,,,,,,,,FF,,,,,,,,1.8212,,,,,,,,,,,,,,,,,,,,,,60fe06feb5a616377ef806da,61036e26f9352193ec528f9d,2021-07-29_20h19.33.289,Simcolourproject_2stim_asymm_v5,2020.2.10,Win32,60,61025ae37ef11b136ea224fe,,,,,,,,,1548,47,88,1,0,0,response1disk,,7,-4,-7,1,0,0,rectangle,-4,-7,1,0,0,-4,-7,1,0,0,1,44,204,3,1,,,,,,,,
,,,,,,,,,,,,,FF,,,,,,,,0.9317,,,,,,,,,,,,,,,,,,,,,,60fe06feb5a616377ef806da,61036e26f9352193ec528f9d,2021-07-29_20h19.33.289,Simcolourproject_2stim_asymm_v5,2020.2.10,Win32,60,61025ae37ef11b136ea224fe,,,,,,,,,576,53,73,1,0,0,response1disk,,7,-3,-9,1,0,0,rectangle,-3,-9,1,0,0,-3,-9,1,0,0,1,45,205,136,1,,,,,,,,
,,,,,,,,,,,,,FF,,,,,,,,0.9488,,,,,,,,,,,,,,,,,,,,,,60fe06feb5a616377ef806da,61036e26f9352193ec528f9d,2021-07-29_20h19.33.289,Simcolourproject_2stim_asymm_v5,2020.2.10,Win32,60,61025ae37ef11b136ea224fe,,,,,,,,,565,36,65,1,0,0,response1disk,,7,6,1,1,0,0,rectangle,6,1,1,0,0,6,1,1,0,0,1,46,206,53,1,,,,,,,,
,,,,,,,,,,,,,FF,,,,,,,,0.7979,,,,,,,,,,,,,,,,,,,,,,60fe06feb5a616377ef806da,61036e26f9352193ec528f9d,2021-07-29_20h19.33.289,Simcolourproject_2stim_asymm_v5,2020.2.10,Win32,60,61025ae37ef11b136ea224fe,,,,,,,,,4095,-36,114,1,0,0,response7disk,,0,4,2,1,0,0,rectangle,4,2,1,0,0,4,2,1,0,0,1,47,207,131,1,,,,,,,,
,,,,,,,,,,,,,FF,,,,,,,,1.2315,,,,,,,,,,,,,,,,,,,,,,60fe06feb5a616377ef806da,61036e26f9352193ec528f9d,2021-07-29_20h19.33.289,Simcolourproject_2stim_asymm_v5,2020.2.10,Win32,60,61025ae37ef11b136ea224fe,,,,,,,,,2168,-48,-97,1,0,0,response5disk,,3,-7,-6,1,0,0,rectangle,-7,-6,1,0,0,-7,-6,1,0,0,1,48,208,9,1,,,,,,,,
,,,,,,,,,,,,,FF,,,,,,,,0.5991,,,,,,,,,,,,,,,,,,,,,,60fe06feb5a616377ef806da,61036e26f9352193ec528f9d,2021-07-29_20h19.33.289,Simcolourproject_2stim_asymm_v5,2020.2.10,Win32,60,61025ae37ef11b136ea224fe,,,,,,,,,3029,49,103,1,0,0,response1disk,,7,15,4,1,0,0,rectangle,15,4,1,0,0,15,4,1,0,0,1,49,209,123,1,,,,,,,,
,,,,,,,,,,,,,FF,,,,,,,,1.9306,,,,,,,,,,,,,,,,,,,,,,60fe06feb5a616377ef806da,61036e26f9352193ec528f9d,2021-07-29_20h19.33.289,Simcolourproject_2stim_asymm_v5,2020.2.10,Win32,60,61025ae37ef11b136ea224fe,,,,,,,,,3393,-55,-89,1,0,0,response5disk,,3,10,11,1,0,0,rectangle,10,11,1,0,0,10,11,1,0,0,1,50,210,50,1,,,,,,,,
,,,,,,,,,,,,,FF,,,,,,,,0.5322,,,,,,,,,,,,,,,,,,,,,,60fe06feb5a616377ef806da,61036e26f9352193ec528f9d,2021-07-29_20h19.33.289,Simcolourproject_2stim_asymm_v5,2020.2.10,Win32,60,61025ae37ef11b136ea224fe,,,,,,,,,2454,42,98,1,0,0,response1disk,,7,2,-2,1,0,0,rectangle,2,-2,1,0,0,2,-2,1,0,0,1,51,211,34,1,,,,,,,,
,,,,,,,,,,,,,FF,,,,,,,,0.5161,,,,,,,,,,,,,,,,,,,,,,60fe06feb5a616377ef806da,61036e26f9352193ec528f9d,2021-07-29_20h19.33.289,Simcolourproject_2stim_asymm_v5,2020.2.10,Win32,60,61025ae37ef11b136ea224fe,,,,,,,,,4355,32,86,1,0,0,response1disk,,7,5,-7,1,0,0,rectangle,5,-7,1,0,0,5,-7,1,0,0,1,52,212,78,1,,,,,,,,
,,,,,,,,,,,,,FF,,,,,,,,0.5655,,,,,,,,,,,,,,,,,,,,,,60fe06feb5a616377ef806da,61036e26f9352193ec528f9d,2021-07-29_20h19.33.289,Simcolourproject_2stim_asymm_v5,2020.2.10,Win32,60,61025ae37ef11b136ea224fe,,,,,,,,,1515,38,98,1,0,0,response1disk,,7,5,8,1,0,0,rectangle,5,8,1,0,0,5,8,1,0,0,1,53,213,128,1,,,,,,,,
,,,,,,,,,,,,,FF,,,,,,,,0.4492,,,,,,,,,,,,,,,,,,,,,,60fe06feb5a616377ef806da,61036e26f9352193ec528f9d,2021-07-29_20h19.33.289,Simcolourproject_2stim_asymm_v5,2020.2.10,Win32,60,61025ae37ef11b136ea224fe,,,,,,,,,1358,55,119,1,0,0,response1disk,,7,6,5,1,0,0,rectangle,6,5,1,0,0,6,5,1,0,0,1,54,214,146,1,,,,,,,,
,,,,,,,,,,,,,FF,,,,,,,,1.3486,,,,,,,,,,,,,,,,,,,,,,60fe06feb5a616377ef806da,61036e26f9352193ec528f9d,2021-07-29_20h19.33.289,Simcolourproject_2stim_asymm_v5,2020.2.10,Win32,60,61025ae37ef11b136ea224fe,,,,,,,,,1468,66,-41,1,0,0,response3disk,,5,7,6,1,0,0,rectangle,7,6,1,0,0,7,6,1,0,0,1,55,215,49,1,,,,,,,,
,,,,,,,,,,,,,FF,,,,,,,,0.4997,,,,,,,,,,,,,,,,,,,,,,60fe06feb5a616377ef806da,61036e26f9352193ec528f9d,2021-07-29_20h19.33.289,Simcolourproject_2stim_asymm_v5,2020.2.10,Win32,60,61025ae37ef11b136ea224fe,,,,,,,,,3466,42,76,1,0,0,response1disk,,7,-3,-12,1,0,0,rectangle,-3,-12,1,0,0,-3,-12,1,0,0,1,56,216,85,1,,,,,,,,
,,,,,,,,,,,,,FF,,,,,,,,1.2154,,,,,,,,,,,,,,,,,,,,,,60fe06feb5a616377ef806da,61036e26f9352193ec528f9d,2021-07-29_20h19.33.289,Simcolourproject_2stim_asymm_v5,2020.2.10,Win32,60,61025ae37ef11b136ea224fe,,,,,,,,,532,-61,27,1,0,0,response7disk,,1,0,-2,1,0,0,rectangle,0,-2,1,0,0,0,-2,1,0,0,1,57,217,137,1,,,,,,,,
,,,,,,,,,,,,,FF,,,,,,,,0.8321,,,,,,,,,,,,,,,,,,,,,,60fe06feb5a616377ef806da,61036e26f9352193ec528f9d,2021-07-29_20h19.33.289,Simcolourproject_2stim_asymm_v5,2020.2.10,Win32,60,61025ae37ef11b136ea224fe,,,,,,,,,1522,-74,-57,1,0,0,response5disk,,2,3,-3,1,0,0,rectangle,3,-3,1,0,0,3,-3,1,0,0,1,58,218,148,1,,,,,,,,
,,,,,,,,,,,,,FF,,,,,,,,1.4981,,,,,,,,,,,,,,,,,,,,,,60fe06feb5a616377ef806da,61036e26f9352193ec528f9d,2021-07-29_20h19.33.289,Simcolourproject_2stim_asymm_v5,2020.2.10,Win32,60,61025ae37ef11b136ea224fe,,,,,,,,,1760,39,-80,1,0,0,response3disk,,4,9,10,1,0,0,rectangle,9,10,1,0,0,9,10,1,0,0,1,59,219,119,1,,,,,,,,
,,,,,,,,,,,,,FF,,,,,,,,0.7486,,,,,,,,,,,,,,,,,,,,,,60fe06feb5a616377ef806da,61036e26f9352193ec528f9d,2021-07-29_20h19.33.289,Simcolourproject_2stim_asymm_v5,2020.2.10,Win32,60,61025ae37ef11b136ea224fe,,,,,,,,,4052,-52,-84,1,0,0,response5disk,,3,-6,-1,1,0,0,rectangle,-6,-1,1,0,0,-6,-1,1,0,0,1,60,220,1,1,,,,,,,,
,,,,,,,,,,,,,FF,,,,,,,,2.0296,,,,,,,,,,,,,,,,,,,,,,60fe06feb5a616377ef806da,61036e26f9352193ec528f9d,2021-07-29_20h19.33.289,Simcolourproject_2stim_asymm_v5,2020.2.10,Win32,60,61025ae37ef11b136ea224fe,,,,,,,,,1300,41,-81,1,0,0,response3disk,,4,9,-2,1,0,0,rectangle,34,106,1,0,0,-11,1,1,0,0,1,61,221,66,1,,response1disk_3,TRUE,7,7,"[231,262,92,203,236,266,97,64,222,178,104,300,251,44,40,105,200,190,77,155]",1.6635,rectangle
,,,,,,,,,,,,,FF,,,,,,,,0.6154,,,,,,,,,,,,,,,,,,,,,,60fe06feb5a616377ef806da,61036e26f9352193ec528f9d,2021-07-29_20h19.33.289,Simcolourproject_2stim_asymm_v5,2020.2.10,Win32,60,61025ae37ef11b136ea224fe,,,,,,,,,1703,36,70,1,0,0,response1disk,,7,2,3,1,0,0,rectangle,2,3,1,0,0,2,3,1,0,0,1,62,222,94,1,,,,,,,,
,,,,,,,,,,,,,FF,,,,,,,,0.8824,,,,,,,,,,,,,,,,,,,,,,60fe06feb5a616377ef806da,61036e26f9352193ec528f9d,2021-07-29_20h19.33.289,Simcolourproject_2stim_asymm_v5,2020.2.10,Win32,60,61025ae37ef11b136ea224fe,,,,,,,,,1698,104,40,1,0,0,response1disk,,6,-5,-3,1,0,0,rectangle,-5,-3,1,0,0,-5,-3,1,0,0,1,63,223,109,1,,,,,,,,
,,,,,,,,,,,,,FF,,,,,,,,0.5331,,,,,,,,,,,,,,,,,,,,,,60fe06feb5a616377ef806da,61036e26f9352193ec528f9d,2021-07-29_20h19.33.289,Simcolourproject_2stim_asymm_v5,2020.2.10,Win32,60,61025ae37ef11b136ea224fe,,,,,,,,,4086,34,77,1,0,0,response1disk,,7,5,-2,1,0,0,rectangle,5,-2,1,0,0,5,-2,1,0,0,1,64,224,7,1,,,,,,,,
,,,,,,,,,,,,,FF,,,,,,,,0.466,,,,,,,,,,,,,,,,,,,,,,60fe06feb5a616377ef806da,61036e26f9352193ec528f9d,2021-07-29_20h19.33.289,Simcolourproject_2stim_asymm_v5,2020.2.10,Win32,60,61025ae37ef11b136ea224fe,,,,,,,,,2642,34,72,1,0,0,response1disk,,7,-5,-3,1,0,0,rectangle,-5,-3,1,0,0,-5,-3,1,0,0,1,65,225,107,1,,,,,,,,
,,,,,,,,,,,,,FF,,,,,,,,0.4992,,,,,,,,,,,,,,,,,,,,,,60fe06feb5a616377ef806da,61036e26f9352193ec528f9d,2021-07-29_20h19.33.289,Simcolourproject_2stim_asymm_v5,2020.2.10,Win32,60,61025ae37ef11b136ea224fe,,,,,,,,,3162,26,65,1,0,0,response1disk,,7,2,-7,1,0,0,rectangle,2,-7,1,0,0,2,-7,1,0,0,1,66,226,14,1,,,,,,,,
,,,,,,,,,,,,,FF,,,,,,,,0.4493,,,,,,,,,,,,,,,,,,,,,,60fe06feb5a616377ef806da,61036e26f9352193ec528f9d,2021-07-29_20h19.33.289,Simcolourproject_2stim_asymm_v5,2020.2.10,Win32,60,61025ae37ef11b136ea224fe,,,,,,,,,323,35,84,1,0,0,response1disk,,7,1,-8,1,0,0,rectangle,1,-8,1,0,0,1,-8,1,0,0,1,67,227,46,1,,,,,,,,
,,,,,,,,,,,,,FF,,,,,,,,0.4501,,,,,,,,,,,,,,,,,,,,,,60fe06feb5a616377ef806da,61036e26f9352193ec528f9d,2021-07-29_20h19.33.289,Simcolourproject_2stim_asymm_v5,2020.2.10,Win32,60,61025ae37ef11b136ea224fe,,,,,,,,,2653,26,61,1,0,0,response1disk,,7,-7,-5,1,0,0,rectangle,-7,-5,1,0,0,-7,-5,1,0,0,1,68,228,133,1,,,,,,,,
,,,,,,,,,,,,,FF,,,,,,,,1.2152,,,,,,,,,,,,,,,,,,,,,,60fe06feb5a616377ef806da,61036e26f9352193ec528f9d,2021-07-29_20h19.33.289,Simcolourproject_2stim_asymm_v5,2020.2.10,Win32,60,61025ae37ef11b136ea224fe,,,,,,,,,1377,28,-93,1,0,0,response3disk,,4,12,6,1,0,0,rectangle,12,6,1,0,0,12,6,1,0,0,1,69,229,126,1,,,,,,,,
,,,,,,,,,,,,,FF,,,,,,,,0.7653,,,,,,,,,,,,,,,,,,,,,,60fe06feb5a616377ef806da,61036e26f9352193ec528f9d,2021-07-29_20h19.33.289,Simcolourproject_2stim_asymm_v5,2020.2.10,Win32,60,61025ae37ef11b136ea224fe,,,,,,,,,1326,28,76,1,0,0,response1disk,,7,8,-6,1,0,0,rectangle,-40,-107,1,0,0,-4,6,1,0,0,1,70,230,101,1,,response5disk_3,TRUE,3,3,"[231,262,92,203,236,266,97,64,222,178,104,300,251,44,40,105,200,190,77,155]",1.3492,rectangle
,,,,,,,,,,,,,FF,,,,,,,,1.4147,,,,,,,,,,,,,,,,,,,,,,60fe06feb5a616377ef806da,61036e26f9352193ec528f9d,2021-07-29_20h19.33.289,Simcolourproject_2stim_asymm_v5,2020.2.10,Win32,60,61025ae37ef11b136ea224fe,,,,,,,,,3644,-33,-93,1,0,0,response5disk,,3,7,14,1,0,0,rectangle,7,14,1,0,0,7,14,1,0,0,1,71,231,144,1,,,,,,,,
,,,,,,,,,,,,,FF,,,,,,,,0.6323,,,,,,,,,,,,,,,,,,,,,,60fe06feb5a616377ef806da,61036e26f9352193ec528f9d,2021-07-29_20h19.33.289,Simcolourproject_2stim_asymm_v5,2020.2.10,Win32,60,61025ae37ef11b136ea224fe,,,,,,,,,2685,39,66,1,0,0,response1disk,,7,15,14,1,0,0,rectangle,15,14,1,0,0,15,14,1,0,0,1,72,232,132,1,,,,,,,,
,,,,,,,,,,,,,FF,,,,,,,,0.471,,,,,,,,,,,,,,,,,,,,,,60fe06feb5a616377ef806da,61036e26f9352193ec528f9d,2021-07-29_20h19.33.289,Simcolourproject_2stim_asymm_v5,2020.2.10,Win32,60,61025ae37ef11b136ea224fe,,,,,,,,,3369,45,84,1,0,0,response1disk,,7,-2,8,1,0,0,rectangle,-2,8,1,0,0,-2,8,1,0,0,1,73,233,22,1,,,,,,,,
,,,,,,,,,,,,,FF,,,,,,,,0.9818,,,,,,,,,,,,,,,,,,,,,,60fe06feb5a616377ef806da,61036e26f9352193ec528f9d,2021-07-29_20h19.33.289,Simcolourproject_2stim_asymm_v5,2020.2.10,Win32,60,61025ae37ef11b136ea224fe,,,,,,,,,564,74,-36,1,0,0,response3disk,,5,-11,6,1,0,0,rectangle,-11,6,1,0,0,-11,6,1,0,0,1,74,234,80,1,,,,,,,,
,,,,,,,,,,,,,FF,,,,,,,,1.2989,,,,,,,,,,,,,,,,,,,,,,60fe06feb5a616377ef806da,61036e26f9352193ec528f9d,2021-07-29_20h19.33.289,Simcolourproject_2stim_asymm_v5,2020.2.10,Win32,60,61025ae37ef11b136ea224fe,,,,,,,,,1892,-80,-52,1,0,0,response5disk,,2,1,11,1,0,0,rectangle,102,34,1,0,0,-5,1,1,0,0,1,75,235,15,1,,response1disk_3,TRUE,6,6,"[231,262,92,203,236,266,97,64,222,178,104,300,251,44,40,105,200,190,77,155]",1.3641,rectangle
,,,,,,,,,,,,,FF,,,,,,,,0.9981,,,,,,,,,,,,,,,,,,,,,,60fe06feb5a616377ef806da,61036e26f9352193ec528f9d,2021-07-29_20h19.33.289,Simcolourproject_2stim_asymm_v5,2020.2.10,Win32,60,61025ae37ef11b136ea224fe,,,,,,,,,397,48,92,1,0,0,response1disk,,7,17,-2,1,0,0,rectangle,17,-2,1,0,0,17,-2,1,0,0,1,76,236,29,1,,,,,,,,
,,,,,,,,,,,,,FF,,,,,,,,0.8994,,,,,,,,,,,,,,,,,,,,,,60fe06feb5a616377ef806da,61036e26f9352193ec528f9d,2021-07-29_20h19.33.289,Simcolourproject_2stim_asymm_v5,2020.2.10,Win32,60,61025ae37ef11b136ea224fe,,,,,,,,,4187,62,-45,1,0,0,response3disk,,5,6,1,1,0,0,rectangle,6,1,1,0,0,6,1,1,0,0,1,77,237,102,1,,,,,,,,
,,,,,,,,,,,,,FF,,,,,,,,0.7156,,,,,,,,,,,,,,,,,,,,,,60fe06feb5a616377ef806da,61036e26f9352193ec528f9d,2021-07-29_20h19.33.289,Simcolourproject_2stim_asymm_v5,2020.2.10,Win32,60,61025ae37ef11b136ea224fe,,,,,,,,,3387,60,84,1,0,0,response1disk,,7,16,5,1,0,0,rectangle,16,5,1,0,0,16,5,1,0,0,1,78,238,70,1,,,,,,,,
,,,,,,,,,,,,,FF,,,,,,,,0.4152,,,,,,,,,,,,,,,,,,,,,,60fe06feb5a616377ef806da,61036e26f9352193ec528f9d,2021-07-29_20h19.33.289,Simcolourproject_2stim_asymm_v5,2020.2.10,Win32,60,61025ae37ef11b136ea224fe,,,,,,,,,1705,34,82,1,0,0,response1disk,,7,-3,-6,1,0,0,rectangle,-3,-6,1,0,0,-3,-6,1,0,0,1,79,239,138,1,,,,,,,,
,,,,,,,,,,,,,FF,,,,,,,,0.6161,,,,,,,,,,,,,,,,,,,,,,60fe06feb5a616377ef806da,61036e26f9352193ec528f9d,2021-07-29_20h19.33.289,Simcolourproject_2stim_asymm_v5,2020.2.10,Win32,60,61025ae37ef11b136ea224fe,,,,,,,,,939,40,72,1,0,0,response1disk,,7,1,-7,1,0,0,rectangle,1,-7,1,0,0,1,-7,1,0,0,1,80,240,62,1,,,,,,,,
,,,,,,,,,,,,,FF,,,,,,,,0.4659,,,,,,,,,,,,,,,,,,,,,,60fe06feb5a616377ef806da,61036e26f9352193ec528f9d,2021-07-29_20h19.33.289,Simcolourproject_2stim_asymm_v5,2020.2.10,Win32,60,61025ae37ef11b136ea224fe,,,,,,,,,1520,45,79,1,0,0,response1disk,,7,10,7,1,0,0,rectangle,10,7,1,0,0,10,7,1,0,0,1,81,241,147,1,,,,,,,,
,,,,,,,,,,,,,FF,,,,,,,,0.4993,,,,,,,,,,,,,,,,,,,,,,60fe06feb5a616377ef806da,61036e26f9352193ec528f9d,2021-07-29_20h19.33.289,Simcolourproject_2stim_asymm_v5,2020.2.10,Win32,60,61025ae37ef11b136ea224fe,,,,,,,,,966,35,57,1,0,0,response1disk,,7,-1,-14,1,0,0,rectangle,-1,-14,1,0,0,-1,-14,1,0,0,1,82,242,116,1,,,,,,,,
,,,,,,,,,,,,,FF,,,,,,,,0.3987,,,,,,,,,,,,,,,,,,,,,,60fe06feb5a616377ef806da,61036e26f9352193ec528f9d,2021-07-29_20h19.33.289,Simcolourproject_2stim_asymm_v5,2020.2.10,Win32,60,61025ae37ef11b136ea224fe,,,,,,,,,2911,41,69,1,0,0,response1disk,,7,2,-5,1,0,0,rectangle,2,-5,1,0,0,2,-5,1,0,0,1,83,243,125,1,,,,,,,,
,,,,,,,,,,,,,FF,,,,,,,,0.4159,,,,,,,,,,,,,,,,,,,,,,60fe06feb5a616377ef806da,61036e26f9352193ec528f9d,2021-07-29_20h19.33.289,Simcolourproject_2stim_asymm_v5,2020.2.10,Win32,60,61025ae37ef11b136ea224fe,,,,,,,,,3260,37,67,1,0,0,response1disk,,7,-2,-7,1,0,0,rectangle,-2,-7,1,0,0,-2,-7,1,0,0,1,84,244,10,1,,,,,,,,
,,,,,,,,,,,,,FF,,,,,,,,0.4494,,,,,,,,,,,,,,,,,,,,,,60fe06feb5a616377ef806da,61036e26f9352193ec528f9d,2021-07-29_20h19.33.289,Simcolourproject_2stim_asymm_v5,2020.2.10,Win32,60,61025ae37ef11b136ea224fe,,,,,,,,,2392,41,78,1,0,0,response1disk,,7,-8,-8,1,0,0,rectangle,-8,-8,1,0,0,-8,-8,1,0,0,1,85,245,105,1,,,,,,,,
,,,,,,,,,,,,,FF,,,,,,,,0.4991,,,,,,,,,,,,,,,,,,,,,,60fe06feb5a616377ef806da,61036e26f9352193ec528f9d,2021-07-29_20h19.33.289,Simcolourproject_2stim_asymm_v5,2020.2.10,Win32,60,61025ae37ef11b136ea224fe,,,,,,,,,4214,41,89,1,0,0,response1disk,,7,8,3,1,0,0,rectangle,8,3,1,0,0,8,3,1,0,0,1,86,246,44,1,,,,,,,,
,,,,,,,,,,,,,FF,,,,,,,,1.1484,,,,,,,,,,,,,,,,,,,,,,60fe06feb5a616377ef806da,61036e26f9352193ec528f9d,2021-07-29_20h19.33.289,Simcolourproject_2stim_asymm_v5,2020.2.10,Win32,60,61025ae37ef11b136ea224fe,,,,,,,,,816,86,21,1,0,0,response1disk,,6,-5,5,1,0,0,rectangle,-5,5,1,0,0,-5,5,1,0,0,1,87,247,48,1,,,,,,,,
,,,,,,,,,,,,,FF,,,,,,,,1.1145,,,,,,,,,,,,,,,,,,,,,,60fe06feb5a616377ef806da,61036e26f9352193ec528f9d,2021-07-29_20h19.33.289,Simcolourproject_2stim_asymm_v5,2020.2.10,Win32,60,61025ae37ef11b136ea224fe,,,,,,,,,437,23,-86,1,0,0,response3disk,,4,-8,6,1,0,0,rectangle,-8,6,1,0,0,-8,6,1,0,0,1,88,248,67,1,,,,,,,,
,,,,,,,,,,,,,FF,,,,,,,,0.5335,,,,,,,,,,,,,,,,,,,,,,60fe06feb5a616377ef806da,61036e26f9352193ec528f9d,2021-07-29_20h19.33.289,Simcolourproject_2stim_asymm_v5,2020.2.10,Win32,60,61025ae37ef11b136ea224fe,,,,,,,,,3626,30,86,1,0,0,response1disk,,7,7,11,1,0,0,rectangle,7,11,1,0,0,7,11,1,0,0,1,89,249,114,1,,,,,,,,
,,,,,,,,,,,,,FF,,,,,,,,1.1652,,,,,,,,,,,,,,,,,,,,,,60fe06feb5a616377ef806da,61036e26f9352193ec528f9d,2021-07-29_20h19.33.289,Simcolourproject_2stim_asymm_v5,2020.2.10,Win32,60,61025ae37ef11b136ea224fe,,,,,,,,,2199,34,81,1,0,0,response1disk,,7,7,-3,1,0,0,rectangle,24,-95,1,0,0,-6,2,1,0,0,1,90,250,158,1,,response3disk_3,TRUE,4,4,"[231,262,92,203,236,266,97,64,222,178,104,300,251,44,40,105,200,190,77,155]",1.1648,rectangle
,,,,,,,,,,,,,FF,,,,,,,,0.699,,,,,,,,,,,,,,,,,,,,,,60fe06feb5a616377ef806da,61036e26f9352193ec528f9d,2021-07-29_20h19.33.289,Simcolourproject_2stim_asymm_v5,2020.2.10,Win32,60,61025ae37ef11b136ea224fe,,,,,,,,,1988,44,95,1,0,0,response1disk,,7,1,0,1,0,0,rectangle,1,0,1,0,0,1,0,1,0,0,1,91,251,83,1,,,,,,,,
,,,,,,,,,,,,,FF,,,,,,,,1.0151,,,,,,,,,,,,,,,,,,,,,,60fe06feb5a616377ef806da,61036e26f9352193ec528f9d,2021-07-29_20h19.33.289,Simcolourproject_2stim_asymm_v5,2020.2.10,Win32,60,61025ae37ef11b136ea224fe,,,,,,,,,3966,-55,-96,1,0,0,response5disk,,3,-3,13,1,0,0,rectangle,-3,13,1,0,0,-3,13,1,0,0,1,92,252,43,1,,,,,,,,
,,,,,,,,,,,,,FF,,,,,,,,1.0645,,,,,,,,,,,,,,,,,,,,,,60fe06feb5a616377ef806da,61036e26f9352193ec528f9d,2021-07-29_20h19.33.289,Simcolourproject_2stim_asymm_v5,2020.2.10,Win32,60,61025ae37ef11b136ea224fe,,,,,,,,,394,76,36,1,0,0,response1disk,,6,1,-8,1,0,0,rectangle,1,-8,1,0,0,1,-8,1,0,0,1,93,253,96,1,,,,,,,,
,,,,,,,,,,,,,FF,,,,,,,,0.6991,,,,,,,,,,,,,,,,,,,,,,60fe06feb5a616377ef806da,61036e26f9352193ec528f9d,2021-07-29_20h19.33.289,Simcolourproject_2stim_asymm_v5,2020.2.10,Win32,60,61025ae37ef11b136ea224fe,,,,,,,,,672,33,94,1,0,0,response1disk,,7,-13,10,1,0,0,rectangle,-13,10,1,0,0,-13,10,1,0,0,1,94,254,127,1,,,,,,,,
,,,,,,,,,,,,,FF,,,,,,,,0.5325,,,,,,,,,,,,,,,,,,,,,,60fe06feb5a616377ef806da,61036e26f9352193ec528f9d,2021-07-29_20h19.33.289,Simcolourproject_2stim_asymm_v5,2020.2.10,Win32,60,61025ae37ef11b136ea224fe,,,,,,,,,3405,37,72,1,0,0,response1disk,,7,1,6,1,0,0,rectangle,1,6,1,0,0,1,6,1,0,0,1,95,255,4,1,,,,,,,,
,,,,,,,,,,,,,FF,,,,,,,,0.5319,,,,,,,,,,,,,,,,,,,,,,60fe06feb5a616377ef806da,61036e26f9352193ec528f9d,2021-07-29_20h19.33.289,Simcolourproject_2stim_asymm_v5,2020.2.10,Win32,60,61025ae37ef11b136ea224fe,,,,,,,,,3484,40,96,1,0,0,response1disk,,7,7,8,1,0,0,rectangle,7,8,1,0,0,7,8,1,0,0,1,96,256,11,1,,,,,,,,
,,,,,,,,,,,,,FF,,,,,,,,1.1989,,,,,,,,,,,,,,,,,,,,,,60fe06feb5a616377ef806da,61036e26f9352193ec528f9d,2021-07-29_20h19.33.289,Simcolourproject_2stim_asymm_v5,2020.2.10,Win32,60,61025ae37ef11b136ea224fe,,,,,,,,,3778,18,-85,1,0,0,response3disk,,4,0,11,1,0,0,rectangle,0,11,1,0,0,0,11,1,0,0,1,97,257,45,1,,,,,,,,
,,,,,,,,,,,,,FF,,,,,,,,1.514,,,,,,,,,,,,,,,,,,,,,,60fe06feb5a616377ef806da,61036e26f9352193ec528f9d,2021-07-29_20h19.33.289,Simcolourproject_2stim_asymm_v5,2020.2.10,Win32,60,61025ae37ef11b136ea224fe,,,,,,,,,1114,60,-39,1,0,0,response3disk,,5,-1,4,1,0,0,rectangle,-1,4,1,0,0,-1,4,1,0,0,1,98,258,93,1,,,,,,,,
,,,,,,,,,,,,,FF,,,,,,,,0.6824,,,,,,,,,,,,,,,,,,,,,,60fe06feb5a616377ef806da,61036e26f9352193ec528f9d,2021-07-29_20h19.33.289,Simcolourproject_2stim_asymm_v5,2020.2.10,Win32,60,61025ae37ef11b136ea224fe,,,,,,,,,941,38,70,1,0,0,response1disk,,7,12,1,1,0,0,rectangle,12,1,1,0,0,12,1,1,0,0,1,99,259,36,1,,,,,,,,
,,,,,,,,,,,,,FF,,,,,,,,0.466,,,,,,,,,,,,,,,,,,,,,,60fe06feb5a616377ef806da,61036e26f9352193ec528f9d,2021-07-29_20h19.33.289,Simcolourproject_2stim_asymm_v5,2020.2.10,Win32,60,61025ae37ef11b136ea224fe,,,,,,,,,820,31,93,1,0,0,response1disk,,7,7,7,1,0,0,rectangle,7,7,1,0,0,7,7,1,0,0,1,100,260,130,1,,,,,,,,
,,,,,,,,,,,,,FF,,,,,,,,0.4822,,,,,,,,,,,,,,,,,,,,,,60fe06feb5a616377ef806da,61036e26f9352193ec528f9d,2021-07-29_20h19.33.289,Simcolourproject_2stim_asymm_v5,2020.2.10,Win32,60,61025ae37ef11b136ea224fe,,,,,,,,,960,34,82,1,0,0,response1disk,,7,3,6,1,0,0,rectangle,-94,-46,1,0,0,-12,-7,1,0,0,1,101,261,63,1,,response5disk_3,TRUE,2,2,"[231,262,92,203,236,266,97,64,222,178,104,300,251,44,40,105,200,190,77,155]",1.3976,rectangle
,,,,,,,,,,,,,FF,,,,,,,,0.549,,,,,,,,,,,,,,,,,,,,,,60fe06feb5a616377ef806da,61036e26f9352193ec528f9d,2021-07-29_20h19.33.289,Simcolourproject_2stim_asymm_v5,2020.2.10,Win32,60,61025ae37ef11b136ea224fe,,,,,,,,,835,31,88,1,0,0,response1disk,,7,6,10,1,0,0,rectangle,6,10,1,0,0,6,10,1,0,0,1,102,262,68,1,,,,,,,,
,,,,,,,,,,,,,FF,,,,,,,,0.6164,,,,,,,,,,,,,,,,,,,,,,60fe06feb5a616377ef806da,61036e26f9352193ec528f9d,2021-07-29_20h19.33.289,Simcolourproject_2stim_asymm_v5,2020.2.10,Win32,60,61025ae37ef11b136ea224fe,,,,,,,,,2371,37,85,1,0,0,response1disk,,7,-10,9,1,0,0,rectangle,-10,9,1,0,0,-10,9,1,0,0,1,103,263,141,1,,,,,,,,
,,,,,,,,,,,,,FF,,,,,,,,0.7823,,,,,,,,,,,,,,,,,,,,,,60fe06feb5a616377ef806da,61036e26f9352193ec528f9d,2021-07-29_20h19.33.289,Simcolourproject_2stim_asymm_v5,2020.2.10,Win32,60,61025ae37ef11b136ea224fe,,,,,,,,,1193,22,74,1,0,0,response1disk,,7,8,9,1,0,0,rectangle,8,9,1,0,0,8,9,1,0,0,1,104,264,72,1,,,,,,,,
,,,,,,,,,,,,,FF,,,,,,,,0.4822,,,,,,,,,,,,,,,,,,,,,,60fe06feb5a616377ef806da,61036e26f9352193ec528f9d,2021-07-29_20h19.33.289,Simcolourproject_2stim_asymm_v5,2020.2.10,Win32,60,61025ae37ef11b136ea224fe,,,,,,,,,3739,31,75,1,0,0,response1disk,,7,-12,-1,1,0,0,rectangle,37,-79,1,0,0,-6,-2,1,0,0,1,105,265,121,1,,response3disk_3,TRUE,4,4,"[231,262,92,203,236,266,97,64,222,178,104,300,251,44,40,105,200,190,77,155]",1.5474,rectangle
,,,,,,,,,,,,,FF,,,,,,,,0.9984,,,,,,,,,,,,,,,,,,,,,,60fe06feb5a616377ef806da,61036e26f9352193ec528f9d,2021-07-29_20h19.33.289,Simcolourproject_2stim_asymm_v5,2020.2.10,Win32,60,61025ae37ef11b136ea224fe,,,,,,,,,3971,-77,40,1,0,0,response7disk,,1,0,-3,1,0,0,rectangle,0,-3,1,0,0,0,-3,1,0,0,1,106,266,2,1,,,,,,,,
,,,,,,,,,,,,,FF,,,,,,,,0.6158,,,,,,,,,,,,,,,,,,,,,,60fe06feb5a616377ef806da,61036e26f9352193ec528f9d,2021-07-29_20h19.33.289,Simcolourproject_2stim_asymm_v5,2020.2.10,Win32,60,61025ae37ef11b136ea224fe,,,,,,,,,610,34,99,1,0,0,response1disk,,7,-2,1,1,0,0,rectangle,-2,1,1,0,0,-2,1,1,0,0,1,107,267,23,1,,,,,,,,
,,,,,,,,,,,,,FF,,,,,,,,1.015,,,,,,,,,,,,,,,,,,,,,,60fe06feb5a616377ef806da,61036e26f9352193ec528f9d,2021-07-29_20h19.33.289,Simcolourproject_2stim_asymm_v5,2020.2.10,Win32,60,61025ae37ef11b136ea224fe,,,,,,,,,1130,25,79,1,0,0,response1disk,,7,-1,4,1,0,0,rectangle,-1,4,1,0,0,-1,4,1,0,0,1,108,268,56,1,,,,,,,,
,,,,,,,,,,,,,FF,,,,,,,,0.6496,,,,,,,,,,,,,,,,,,,,,,60fe06feb5a616377ef806da,61036e26f9352193ec528f9d,2021-07-29_20h19.33.289,Simcolourproject_2stim_asymm_v5,2020.2.10,Win32,60,61025ae37ef11b136ea224fe,,,,,,,,,4069,37,96,1,0,0,response1disk,,7,-10,-7,1,0,0,rectangle,-10,-7,1,0,0,-10,-7,1,0,0,1,109,269,134,1,,,,,,,,
,,,,,,,,,,,,,FF,,,,,,,,2.3946,,,,,,,,,,,,,,,,,,,,,,60fe06feb5a616377ef806da,61036e26f9352193ec528f9d,2021-07-29_20h19.33.289,Simcolourproject_2stim_asymm_v5,2020.2.10,Win32,60,61025ae37ef11b136ea224fe,,,,,,,,,607,86,38,1,0,0,response1disk,,6,-7,0,1,0,0,rectangle,-7,0,1,0,0,-7,0,1,0,0,1,110,270,55,1,,,,,,,,
,,,,,,,,,,,,,FF,,,,,,,,0.6151,,,,,,,,,,,,,,,,,,,,,,60fe06feb5a616377ef806da,61036e26f9352193ec528f9d,2021-07-29_20h19.33.289,Simcolourproject_2stim_asymm_v5,2020.2.10,Win32,60,61025ae37ef11b136ea224fe,,,,,,,,,3300,39,90,1,0,0,response1disk,,7,10,3,1,0,0,rectangle,10,3,1,0,0,10,3,1,0,0,1,111,271,20,1,,,,,,,,
,,,,,,,,,,,,,FF,,,,,,,,0.5152,,,,,,,,,,,,,,,,,,,,,,60fe06feb5a616377ef806da,61036e26f9352193ec528f9d,2021-07-29_20h19.33.289,Simcolourproject_2stim_asymm_v5,2020.2.10,Win32,60,61025ae37ef11b136ea224fe,,,,,,,,,3758,28,71,1,0,0,response1disk,,7,7,6,1,0,0,rectangle,7,6,1,0,0,7,6,1,0,0,1,112,272,37,1,,,,,,,,
,,,,,,,,,,,,,FF,,,,,,,,3.9612,,,,,,,,,,,,,,,,,,,,,,60fe06feb5a616377ef806da,61036e26f9352193ec528f9d,2021-07-29_20h19.33.289,Simcolourproject_2stim_asymm_v5,2020.2.10,Win32,60,61025ae37ef11b136ea224fe,,,,,,,,,3072,80,41,1,0,0,response1disk,,6,10,5,1,0,0,rectangle,10,5,1,0,0,10,5,1,0,0,1,113,273,30,1,,,,,,,,
,,,,,,,,,,,,,FF,,,,,,,,1.3309,,,,,,,,,,,,,,,,,,,,,,60fe06feb5a616377ef806da,61036e26f9352193ec528f9d,2021-07-29_20h19.33.289,Simcolourproject_2stim_asymm_v5,2020.2.10,Win32,60,61025ae37ef11b136ea224fe,,,,,,,,,3996,63,-43,1,0,0,response3disk,,5,4,1,1,0,0,rectangle,4,1,1,0,0,4,1,1,0,0,1,114,274,25,1,,,,,,,,
,,,,,,,,,,,,,FF,,,,,,,,0.6155,,,,,,,,,,,,,,,,,,,,,,60fe06feb5a616377ef806da,61036e26f9352193ec528f9d,2021-07-29_20h19.33.289,Simcolourproject_2stim_asymm_v5,2020.2.10,Win32,60,61025ae37ef11b136ea224fe,,,,,,,,,3352,25,58,1,0,0,response1disk,,7,9,1,1,0,0,rectangle,9,1,1,0,0,9,1,1,0,0,1,115,275,57,1,,,,,,,,
,,,,,,,,,,,,,FF,,,,,,,,1.446,,,,,,,,,,,,,,,,,,,,,,60fe06feb5a616377ef806da,61036e26f9352193ec528f9d,2021-07-29_20h19.33.289,Simcolourproject_2stim_asymm_v5,2020.2.10,Win32,60,61025ae37ef11b136ea224fe,,,,,,,,,1887,-48,-94,1,0,0,response5disk,,3,-11,10,1,0,0,rectangle,-11,10,1,0,0,-11,10,1,0,0,1,116,276,51,1,,,,,,,,
,,,,,,,,,,,,,FF,,,,,,,,0.4993,,,,,,,,,,,,,,,,,,,,,,60fe06feb5a616377ef806da,61036e26f9352193ec528f9d,2021-07-29_20h19.33.289,Simcolourproject_2stim_asymm_v5,2020.2.10,Win32,60,61025ae37ef11b136ea224fe,,,,,,,,,4262,43,83,1,0,0,response1disk,,7,-4,-2,1,0,0,rectangle,-4,-2,1,0,0,-4,-2,1,0,0,1,117,277,108,1,,,,,,,,
,,,,,,,,,,,,,FF,,,,,,,,0.4824,,,,,,,,,,,,,,,,,,,,,,60fe06feb5a616377ef806da,61036e26f9352193ec528f9d,2021-07-29_20h19.33.289,Simcolourproject_2stim_asymm_v5,2020.2.10,Win32,60,61025ae37ef11b136ea224fe,,,,,,,,,1666,52,87,1,0,0,response1disk,,7,-2,4,1,0,0,rectangle,-2,4,1,0,0,-2,4,1,0,0,1,118,278,77,1,,,,,,,,
,,,,,,,,,,,,,FF,,,,,,,,0.7158,,,,,,,,,,,,,,,,,,,,,,60fe06feb5a616377ef806da,61036e26f9352193ec528f9d,2021-07-29_20h19.33.289,Simcolourproject_2stim_asymm_v5,2020.2.10,Win32,60,61025ae37ef11b136ea224fe,,,,,,,,,4161,-45,64,1,0,0,response7disk,,0,5,-2,1,0,0,rectangle,5,-2,1,0,0,5,-2,1,0,0,1,119,279,17,1,,,,,,,,
,,,,,,,,,,,,,FF,,,,,,,,0.7647,,,,,,,,,,,,,,,,,,,,,,60fe06feb5a616377ef806da,61036e26f9352193ec528f9d,2021-07-29_20h19.33.289,Simcolourproject_2stim_asymm_v5,2020.2.10,Win32,60,61025ae37ef11b136ea224fe,,,,,,,,,3791,43,102,1,0,0,response1disk,,7,7,0,1,0,0,rectangle,7,0,1,0,0,7,0,1,0,0,1,120,280,60,1,,,,,,,,
,,,,,,,,,,,,,FF,,,,,,,,0.5322,,,,,,,,,,,,,,,,,,,,,,60fe06feb5a616377ef806da,61036e26f9352193ec528f9d,2021-07-29_20h19.33.289,Simcolourproject_2stim_asymm_v5,2020.2.10,Win32,60,61025ae37ef11b136ea224fe,,,,,,,,,1490,37,87,1,0,0,response1disk,,7,2,-5,1,0,0,rectangle,2,-5,1,0,0,2,-5,1,0,0,1,121,281,33,1,,,,,,,,
,,,,,,,,,,,,,FF,,,,,,,,5.1095,,,,,,,,,,,,,,,,,,,,,,60fe06feb5a616377ef806da,61036e26f9352193ec528f9d,2021-07-29_20h19.33.289,Simcolourproject_2stim_asymm_v5,2020.2.10,Win32,60,61025ae37ef11b136ea224fe,,,,,,,,,1035,44,92,1,0,0,response1disk,,7,-7,0,1,0,0,rectangle,-7,0,1,0,0,-7,0,1,0,0,1,122,282,124,1,,,,,,,,
,,,,,,,,,,,,,FF,,,,,,,,1.7478,,,,,,,,,,,,,,,,,,,,,,60fe06feb5a616377ef806da,61036e26f9352193ec528f9d,2021-07-29_20h19.33.289,Simcolourproject_2stim_asymm_v5,2020.2.10,Win32,60,61025ae37ef11b136ea224fe,,,,,,,,,4367,-82,36,1,0,0,response7disk,,1,1,5,1,0,0,rectangle,1,5,1,0,0,1,5,1,0,0,1,123,283,90,1,,,,,,,,
,,,,,,,,,,,,,FF,,,,,,,,0.647,,,,,,,,,,,,,,,,,,,,,,60fe06feb5a616377ef806da,61036e26f9352193ec528f9d,2021-07-29_20h19.33.289,Simcolourproject_2stim_asymm_v5,2020.2.10,Win32,60,61025ae37ef11b136ea224fe,,,,,,,,,107,20,73,1,0,0,response1disk,,7,-11,3,1,0,0,rectangle,-11,3,1,0,0,-11,3,1,0,0,1,124,284,113,1,,,,,,,,
,,,,,,,,,,,,,FF,,,,,,,,0.8815,,,,,,,,,,,,,,,,,,,,,,60fe06feb5a616377ef806da,61036e26f9352193ec528f9d,2021-07-29_20h19.33.289,Simcolourproject_2stim_asymm_v5,2020.2.10,Win32,60,61025ae37ef11b136ea224fe,,,,,,,,,2030,-40,-92,1,0,0,response5disk,,3,-7,4,1,0,0,rectangle,-7,4,1,0,0,-7,4,1,0,0,1,125,285,142,1,,,,,,,,
,,,,,,,,,,,,,FF,,,,,,,,1.1476,,,,,,,,,,,,,,,,,,,,,,60fe06feb5a616377ef806da,61036e26f9352193ec528f9d,2021-07-29_20h19.33.289,Simcolourproject_2stim_asymm_v5,2020.2.10,Win32,60,61025ae37ef11b136ea224fe,,,,,,,,,4183,-48,-96,1,0,0,response5disk,,3,-14,9,1,0,0,rectangle,-14,9,1,0,0,-14,9,1,0,0,1,126,286,24,1,,,,,,,,
,,,,,,,,,,,,,FF,,,,,,,,0.5655,,,,,,,,,,,,,,,,,,,,,,60fe06feb5a616377ef806da,61036e26f9352193ec528f9d,2021-07-29_20h19.33.289,Simcolourproject_2stim_asymm_v5,2020.2.10,Win32,60,61025ae37ef11b136ea224fe,,,,,,,,,3619,41,111,1,0,0,response1disk,,7,-10,7,1,0,0,rectangle,-10,7,1,0,0,-10,7,1,0,0,1,127,287,82,1,,,,,,,,
,,,,,,,,,,,,,FF,,,,,,,,0.5345,,,,,,,,,,,,,,,,,,,,,,60fe06feb5a616377ef806da,61036e26f9352193ec528f9d,2021-07-29_20h19.33.289,Simcolourproject_2stim_asymm_v5,2020.2.10,Win32,60,61025ae37ef11b136ea224fe,,,,,,,,,4271,41,105,1,0,0,response1disk,,7,-3,2,1,0,0,rectangle,-3,2,1,0,0,-3,2,1,0,0,1,128,288,64,1,,,,,,,,
,,,,,,,,,,,,,FF,,,,,,,,1.3648,,,,,,,,,,,,,,,,,,,,,,60fe06feb5a616377ef806da,61036e26f9352193ec528f9d,2021-07-29_20h19.33.289,Simcolourproject_2stim_asymm_v5,2020.2.10,Win32,60,61025ae37ef11b136ea224fe,,,,,,,,,2166,-89,-44,1,0,0,response5disk,,2,-6,9,1,0,0,rectangle,-6,9,1,0,0,-6,9,1,0,0,1,129,289,154,1,,,,,,,,
,,,,,,,,,,,,,FF,,,,,,,,0.5155,,,,,,,,,,,,,,,,,,,,,,60fe06feb5a616377ef806da,61036e26f9352193ec528f9d,2021-07-29_20h19.33.289,Simcolourproject_2stim_asymm_v5,2020.2.10,Win32,60,61025ae37ef11b136ea224fe,,,,,,,,,707,44,88,1,0,0,response1disk,,7,10,2,1,0,0,rectangle,10,2,1,0,0,10,2,1,0,0,1,130,290,156,1,,,,,,,,
,,,,,,,,,,,,,FF,,,,,,,,0.5487,,,,,,,,,,,,,,,,,,,,,,60fe06feb5a616377ef806da,61036e26f9352193ec528f9d,2021-07-29_20h19.33.289,Simcolourproject_2stim_asymm_v5,2020.2.10,Win32,60,61025ae37ef11b136ea224fe,,,,,,,,,1041,43,90,1,0,0,response1disk,,7,-4,4,1,0,0,rectangle,-4,4,1,0,0,-4,4,1,0,0,1,131,291,47,1,,,,,,,,
,,,,,,,,,,,,,FF,,,,,,,,1.479,,,,,,,,,,,,,,,,,,,,,,60fe06feb5a616377ef806da,61036e26f9352193ec528f9d,2021-07-29_20h19.33.289,Simcolourproject_2stim_asymm_v5,2020.2.10,Win32,60,61025ae37ef11b136ea224fe,,,,,,,,,2093,-47,88,1,0,0,response7disk,,0,-1,0,1,0,0,rectangle,-1,0,1,0,0,-1,0,1,0,0,1,132,292,117,1,,,,,,,,
,,,,,,,,,,,,,FF,,,,,,,,1.0154,,,,,,,,,,,,,,,,,,,,,,60fe06feb5a616377ef806da,61036e26f9352193ec528f9d,2021-07-29_20h19.33.289,Simcolourproject_2stim_asymm_v5,2020.2.10,Win32,60,61025ae37ef11b136ea224fe,,,,,,,,,2641,37,85,1,0,0,response1disk,,7,-1,4,1,0,0,rectangle,-1,4,1,0,0,-1,4,1,0,0,1,133,293,129,1,,,,,,,,
,,,,,,,,,,,,,FF,,,,,,,,0.548,,,,,,,,,,,,,,,,,,,,,,60fe06feb5a616377ef806da,61036e26f9352193ec528f9d,2021-07-29_20h19.33.289,Simcolourproject_2stim_asymm_v5,2020.2.10,Win32,60,61025ae37ef11b136ea224fe,,,,,,,,,465,36,95,1,0,0,response1disk,,7,-9,-1,1,0,0,rectangle,-9,-1,1,0,0,-9,-1,1,0,0,1,134,294,143,1,,,,,,,,
,,,,,,,,,,,,,FF,,,,,,,,0.9804,,,,,,,,,,,,,,,,,,,,,,60fe06feb5a616377ef806da,61036e26f9352193ec528f9d,2021-07-29_20h19.33.289,Simcolourproject_2stim_asymm_v5,2020.2.10,Win32,60,61025ae37ef11b136ea224fe,,,,,,,,,2317,49,100,1,0,0,response1disk,,7,-7,8,1,0,0,rectangle,-7,8,1,0,0,-7,8,1,0,0,1,135,295,61,1,,,,,,,,
,,,,,,,,,,,,,FF,,,,,,,,0.5656,,,,,,,,,,,,,,,,,,,,,,60fe06feb5a616377ef806da,61036e26f9352193ec528f9d,2021-07-29_20h19.33.289,Simcolourproject_2stim_asymm_v5,2020.2.10,Win32,60,61025ae37ef11b136ea224fe,,,,,,,,,2381,41,80,1,0,0,response1disk,,7,0,2,1,0,0,rectangle,0,2,1,0,0,0,2,1,0,0,1,136,296,21,1,,,,,,,,
,,,,,,,,,,,,,FF,,,,,,,,0.5633,,,,,,,,,,,,,,,,,,,,,,60fe06feb5a616377ef806da,61036e26f9352193ec528f9d,2021-07-29_20h19.33.289,Simcolourproject_2stim_asymm_v5,2020.2.10,Win32,60,61025ae37ef11b136ea224fe,,,,,,,,,481,40,91,1,0,0,response1disk,,7,-6,0,1,0,0,rectangle,-6,0,1,0,0,-6,0,1,0,0,1,137,297,99,1,,,,,,,,
,,,,,,,,,,,,,FF,,,,,,,,1.1809,,,,,,,,,,,,,,,,,,,,,,60fe06feb5a616377ef806da,61036e26f9352193ec528f9d,2021-07-29_20h19.33.289,Simcolourproject_2stim_asymm_v5,2020.2.10,Win32,60,61025ae37ef11b136ea224fe,,,,,,,,,2419,-77,-45,1,0,0,response5disk,,2,-17,1,1,0,0,rectangle,-17,1,1,0,0,-17,1,1,0,0,1,138,298,79,1,,,,,,,,
,,,,,,,,,,,,,FF,,,,,,,,0.4824,,,,,,,,,,,,,,,,,,,,,,60fe06feb5a616377ef806da,61036e26f9352193ec528f9d,2021-07-29_20h19.33.289,Simcolourproject_2stim_asymm_v5,2020.2.10,Win32,60,61025ae37ef11b136ea224fe,,,,,,,,,2462,30,87,1,0,0,response1disk,,7,8,8,1,0,0,rectangle,28,78,1,0,0,-5,6,1,0,0,1,139,299,28,1,,response1disk_3,TRUE,7,7,"[231,262,92,203,236,266,97,64,222,178,104,300,251,44,40,105,200,190,77,155]",1.4641,rectangle
,,,,,,,,,,,,,FF,,,,,,,,0.632,,,,,,,,,,,,,,,,,,,,,,60fe06feb5a616377ef806da,61036e26f9352193ec528f9d,2021-07-29_20h19.33.289,Simcolourproject_2stim_asymm_v5,2020.2.10,Win32,60,61025ae37ef11b136ea224fe,,,,,,,,,1630,23,78,1,0,0,response1disk,,7,-13,3,1,0,0,rectangle,-13,3,1,0,0,-13,3,1,0,0,1,140,300,159,1,,,,,,,,
,,,,,,,,,,,,,FF,,,,,,,,0.832,,,,,,,,,,,,,,,,,,,,,,60fe06feb5a616377ef806da,61036e26f9352193ec528f9d,2021-07-29_20h19.33.289,Simcolourproject_2stim_asymm_v5,2020.2.10,Win32,60,61025ae37ef11b136ea224fe,,,,,,,,,2445,49,82,1,0,0,response1disk,,7,8,3,1,0,0,rectangle,8,3,1,0,0,8,3,1,0,0,1,141,301,106,1,,,,,,,,
,,,,,,,,,,,,,FF,,,,,,,,1.8976,,,,,,,,,,,,,,,,,,,,,,60fe06feb5a616377ef806da,61036e26f9352193ec528f9d,2021-07-29_20h19.33.289,Simcolourproject_2stim_asymm_v5,2020.2.10,Win32,60,61025ae37ef11b136ea224fe,,,,,,,,,1899,-49,-99,1,0,0,response5disk,,3,10,10,1,0,0,rectangle,10,10,1,0,0,10,10,1,0,0,1,142,302,19,1,,,,,,,,
