key_resp.keys,key_resp.rt,key_resp_14.keys,key_resp_14.rt,key_resp_15.keys,key_resp_15.rt,key_resp_17.keys,key_resp_17.rt,key_resp_9.keys,key_resp_9.rt,key_resp_10.keys,key_resp_10.rt,practice_comparison,Ecc,mouse_5.x,mouse_5.y,mouse_5.leftButton,mouse_5.midButton,mouse_5.rightButton,mouse_5.clicked_name,pracsimilarity,response_time,mouse_10.x,mouse_10.y,mouse_10.leftButton,mouse_10.midButton,mouse_10.rightButton,mouse_10.clicked_name,mouse_7.x,mouse_7.y,mouse_7.leftButton,mouse_7.midButton,mouse_7.rightButton,mouse_6.x,mouse_6.y,mouse_6.leftButton,mouse_6.midButton,mouse_6.rightButton,duringprac.thisRepN,duringprac.thisTrialN,duringprac.thisN,duringprac.thisIndex,duringprac.ran,participant,session,date,expName,psychopyVersion,OS,frameRate,study_id,mouse_7.clicked_name,catchpracsimilarity,catch_response_time,catchnumberprac,catchtrialorderprac,mouse_6.clicked_name,key_resp_22.keys,key_resp_22.rt,realcomparison,mouse.x,mouse.y,mouse.leftButton,mouse.midButton,mouse.rightButton,mouse.clicked_name,Colour2,similarity,mouse_2.x,mouse_2.y,mouse_2.leftButton,mouse_2.midButton,mouse_2.rightButton,mouse_2.clicked_name,mouse_3.x,mouse_3.y,mouse_3.leftButton,mouse_3.midButton,mouse_3.rightButton,mouse_11.x,mouse_11.y,mouse_11.leftButton,mouse_11.midButton,mouse_11.rightButton,trials_2.thisRepN,trials_2.thisTrialN,trials_2.thisN,trials_2.thisIndex,trials_2.ran,Colour1,mouse_3.clicked_name,catchornah,catchsimilarity,catchnumber,catchtrialorder,catchRT,mouse_11.clicked_name
space,1.106,space,29.106,space,52.447,space,9.46,space,4.602,space,6.175,118,PF,48,107,1,0,0,response1disk_5,7,40.25,-9,-7,1,0,0,rectangle_8,-9,-7,1,0,0,-9,-7,1,0,0,0,0,0,4,1,60fe439797c67fdd7643cabb,6103699ae74451882cc12807,2021-07-29_22h53.56.724,Simcolourproject_2stim_asymm_v5,2020.2.10,MacIntel,60,61025ae37ef11b136ea224fe,,,,,,,,,,,,,,,,,,,,,,,,,,,,,,,,,,,,,,,,,,,,,,
,,,,,,,,,,,,33,PF,96,30,1,0,0,response1disk_5,6,13.066,-1,-4,1,0,0,rectangle_8,40,-90,1,0,0,-5,-4,1,0,0,0,1,1,2,1,60fe439797c67fdd7643cabb,6103699ae74451882cc12807,2021-07-29_22h53.56.724,Simcolourproject_2stim_asymm_v5,2020.2.10,MacIntel,60,61025ae37ef11b136ea224fe,response3disk_7,4,5.65,4,"[2,5]",rectangle_4,,,,,,,,,,,,,,,,,,,,,,,,,,,,,,,,,,,,,,,,
,,,,,,,,,,,,139,PF,88,-20,1,0,0,response3disk_5,5,14.899,-8,2,1,0,0,rectangle_8,-8,2,1,0,0,-8,2,1,0,0,0,2,2,6,1,60fe439797c67fdd7643cabb,6103699ae74451882cc12807,2021-07-29_22h53.56.724,Simcolourproject_2stim_asymm_v5,2020.2.10,MacIntel,60,61025ae37ef11b136ea224fe,,,,,,,,,,,,,,,,,,,,,,,,,,,,,,,,,,,,,,,,,,,,,,
,,,,,,,,,,,,142,FF,-69,-40,1,0,0,response5disk_5,2,13.166,-5,-7,1,0,0,rectangle_8,-5,-7,1,0,0,-5,-7,1,0,0,0,3,3,3,1,60fe439797c67fdd7643cabb,6103699ae74451882cc12807,2021-07-29_22h53.56.724,Simcolourproject_2stim_asymm_v5,2020.2.10,MacIntel,60,61025ae37ef11b136ea224fe,,,,,,,,,,,,,,,,,,,,,,,,,,,,,,,,,,,,,,,,,,,,,,
,,,,,,,,,,,,36,FF,98,34,1,0,0,response1disk_5,6,15.066,-8,-2,1,0,0,rectangle_8,33,-87,1,0,0,-6,4,1,0,0,0,4,4,0,1,60fe439797c67fdd7643cabb,6103699ae74451882cc12807,2021-07-29_22h53.56.724,Simcolourproject_2stim_asymm_v5,2020.2.10,MacIntel,60,61025ae37ef11b136ea224fe,response3disk_7,4,6.699,4,"[2,5]",rectangle_4,,,,,,,,,,,,,,,,,,,,,,,,,,,,,,,,,,,,,,,,
,,,,,,,,,,,,68,FF,-41,-103,1,0,0,response5disk_5,3,2.934,6,-6,1,0,0,rectangle_8,6,-6,1,0,0,6,-6,1,0,0,0,5,5,5,1,60fe439797c67fdd7643cabb,6103699ae74451882cc12807,2021-07-29_22h53.56.724,Simcolourproject_2stim_asymm_v5,2020.2.10,MacIntel,60,61025ae37ef11b136ea224fe,,,,,,,,,,,,,,,,,,,,,,,,,,,,,,,,,,,,,,,,,,,,,,
,,,,,,,,,,,,8,PF,81,41,1,0,0,response1disk_5,6,4.3,2,-5,1,0,0,rectangle_8,2,-5,1,0,0,2,-5,1,0,0,0,6,6,1,1,60fe439797c67fdd7643cabb,6103699ae74451882cc12807,2021-07-29_22h53.56.724,Simcolourproject_2stim_asymm_v5,2020.2.10,MacIntel,60,61025ae37ef11b136ea224fe,,,,,,,,,,,,,,,,,,,,,,,,,,,,,,,,,,,,,,,,,,,,,,
,,,,,,,,,,,,,FF,,,,,,,,4.516,,,,,,,,,,,,,,,,,,,,,,60fe439797c67fdd7643cabb,6103699ae74451882cc12807,2021-07-29_22h53.56.724,Simcolourproject_2stim_asymm_v5,2020.2.10,MacIntel,60,61025ae37ef11b136ea224fe,,,,,,,space,4.576,3255,82,26,1,0,0,response1disk,,6,-3,-4,1,0,0,rectangle,-3,-4,1,0,0,-3,-4,1,0,0,0,0,0,133,1,,,,,,,,
,,,,,,,,,,,,,FF,,,,,,,,3.75,,,,,,,,,,,,,,,,,,,,,,60fe439797c67fdd7643cabb,6103699ae74451882cc12807,2021-07-29_22h53.56.724,Simcolourproject_2stim_asymm_v5,2020.2.10,MacIntel,60,61025ae37ef11b136ea224fe,,,,,,,,,4289,36,60,1,0,0,response1disk,,7,11,0,1,0,0,rectangle,11,0,1,0,0,11,0,1,0,0,0,1,1,67,1,,,,,,,,
,,,,,,,,,,,,,FF,,,,,,,,5.234,,,,,,,,,,,,,,,,,,,,,,60fe439797c67fdd7643cabb,6103699ae74451882cc12807,2021-07-29_22h53.56.724,Simcolourproject_2stim_asymm_v5,2020.2.10,MacIntel,60,61025ae37ef11b136ea224fe,,,,,,,,,3266,26,-98,1,0,0,response3disk,,4,-1,-1,1,0,0,rectangle,-1,-1,1,0,0,-1,-1,1,0,0,0,2,2,106,1,,,,,,,,
,,,,,,,,,,,,,FF,,,,,,,,27.799,,,,,,,,,,,,,,,,,,,,,,60fe439797c67fdd7643cabb,6103699ae74451882cc12807,2021-07-29_22h53.56.724,Simcolourproject_2stim_asymm_v5,2020.2.10,MacIntel,60,61025ae37ef11b136ea224fe,,,,,,,,,3518,78,-57,1,0,0,response3disk,,5,-5,-3,1,0,0,rectangle,-5,-3,1,0,0,-5,-3,1,0,0,0,3,3,5,1,,,,,,,,
,,,,,,,,,,,,,FF,,,,,,,,4.367,,,,,,,,,,,,,,,,,,,,,,60fe439797c67fdd7643cabb,6103699ae74451882cc12807,2021-07-29_22h53.56.724,Simcolourproject_2stim_asymm_v5,2020.2.10,MacIntel,60,61025ae37ef11b136ea224fe,,,,,,,,,2327,43,112,1,0,0,response1disk,,7,-6,-3,1,0,0,rectangle,-6,-3,1,0,0,-6,-3,1,0,0,0,4,4,36,1,,,,,,,,
,,,,,,,,,,,,,FF,,,,,,,,10.7,,,,,,,,,,,,,,,,,,,,,,60fe439797c67fdd7643cabb,6103699ae74451882cc12807,2021-07-29_22h53.56.724,Simcolourproject_2stim_asymm_v5,2020.2.10,MacIntel,60,61025ae37ef11b136ea224fe,,,,,,,,,1680,-65,-78,1,0,0,response5disk,,3,1,-3,1,0,0,rectangle,1,-3,1,0,0,1,-3,1,0,0,0,5,5,138,1,,,,,,,,
,,,,,,,,,,,,,FF,,,,,,,,4.633,,,,,,,,,,,,,,,,,,,,,,60fe439797c67fdd7643cabb,6103699ae74451882cc12807,2021-07-29_22h53.56.724,Simcolourproject_2stim_asymm_v5,2020.2.10,MacIntel,60,61025ae37ef11b136ea224fe,,,,,,,,,1441,91,58,1,0,0,response1disk,,6,-3,-3,1,0,0,rectangle,-3,-3,1,0,0,-3,-3,1,0,0,0,6,6,149,1,,,,,,,,
,,,,,,,,,,,,,FF,,,,,,,,3.084,,,,,,,,,,,,,,,,,,,,,,60fe439797c67fdd7643cabb,6103699ae74451882cc12807,2021-07-29_22h53.56.724,Simcolourproject_2stim_asymm_v5,2020.2.10,MacIntel,60,61025ae37ef11b136ea224fe,,,,,,,,,1182,25,58,1,0,0,response1disk,,7,-3,-3,1,0,0,rectangle,-3,-3,1,0,0,-3,-3,1,0,0,0,7,7,144,1,,,,,,,,
,,,,,,,,,,,,,FF,,,,,,,,3.65,,,,,,,,,,,,,,,,,,,,,,60fe439797c67fdd7643cabb,6103699ae74451882cc12807,2021-07-29_22h53.56.724,Simcolourproject_2stim_asymm_v5,2020.2.10,MacIntel,60,61025ae37ef11b136ea224fe,,,,,,,,,772,47,61,1,0,0,response1disk,,7,-2,-4,1,0,0,rectangle,-2,-4,1,0,0,-2,-4,1,0,0,0,8,8,120,1,,,,,,,,
,,,,,,,,,,,,,FF,,,,,,,,2.386,,,,,,,,,,,,,,,,,,,,,,60fe439797c67fdd7643cabb,6103699ae74451882cc12807,2021-07-29_22h53.56.724,Simcolourproject_2stim_asymm_v5,2020.2.10,MacIntel,60,61025ae37ef11b136ea224fe,,,,,,,,,458,-28,-60,1,0,0,response5disk,,3,5,-5,1,0,0,rectangle,5,-5,1,0,0,5,-5,1,0,0,0,9,9,131,1,,,,,,,,
,,,,,,,,,,,,,FF,,,,,,,,4.684,,,,,,,,,,,,,,,,,,,,,,60fe439797c67fdd7643cabb,6103699ae74451882cc12807,2021-07-29_22h53.56.724,Simcolourproject_2stim_asymm_v5,2020.2.10,MacIntel,60,61025ae37ef11b136ea224fe,,,,,,,,,411,44,73,1,0,0,response1disk,,7,0,-4,1,0,0,rectangle,0,-4,1,0,0,0,-4,1,0,0,0,10,10,83,1,,,,,,,,
,,,,,,,,,,,,,FF,,,,,,,,9.115,,,,,,,,,,,,,,,,,,,,,,60fe439797c67fdd7643cabb,6103699ae74451882cc12807,2021-07-29_22h53.56.724,Simcolourproject_2stim_asymm_v5,2020.2.10,MacIntel,60,61025ae37ef11b136ea224fe,,,,,,,,,1569,32,71,1,0,0,response1disk,,7,-1,0,1,0,0,rectangle,-1,0,1,0,0,-1,0,1,0,0,0,11,11,156,1,,,,,,,,
,,,,,,,,,,,,,FF,,,,,,,,3.067,,,,,,,,,,,,,,,,,,,,,,60fe439797c67fdd7643cabb,6103699ae74451882cc12807,2021-07-29_22h53.56.724,Simcolourproject_2stim_asymm_v5,2020.2.10,MacIntel,60,61025ae37ef11b136ea224fe,,,,,,,,,3251,-72,-27,1,0,0,response5disk,,2,1,-2,1,0,0,rectangle,1,-2,1,0,0,1,-2,1,0,0,0,12,12,137,1,,,,,,,,
,,,,,,,,,,,,,FF,,,,,,,,16.501,,,,,,,,,,,,,,,,,,,,,,60fe439797c67fdd7643cabb,6103699ae74451882cc12807,2021-07-29_22h53.56.724,Simcolourproject_2stim_asymm_v5,2020.2.10,MacIntel,60,61025ae37ef11b136ea224fe,,,,,,,,,1775,89,29,1,0,0,response1disk,,6,5,-3,1,0,0,rectangle,5,-3,1,0,0,5,-3,1,0,0,0,13,13,17,1,,,,,,,,
,,,,,,,,,,,,,FF,,,,,,,,3.733,,,,,,,,,,,,,,,,,,,,,,60fe439797c67fdd7643cabb,6103699ae74451882cc12807,2021-07-29_22h53.56.724,Simcolourproject_2stim_asymm_v5,2020.2.10,MacIntel,60,61025ae37ef11b136ea224fe,,,,,,,,,2171,-71,-33,1,0,0,response5disk,,2,-1,3,1,0,0,rectangle,-1,3,1,0,0,-1,3,1,0,0,0,14,14,80,1,,,,,,,,
,,,,,,,,,,,,,FF,,,,,,,,3.299,,,,,,,,,,,,,,,,,,,,,,60fe439797c67fdd7643cabb,6103699ae74451882cc12807,2021-07-29_22h53.56.724,Simcolourproject_2stim_asymm_v5,2020.2.10,MacIntel,60,61025ae37ef11b136ea224fe,,,,,,,,,1997,41,67,1,0,0,response1disk,,7,-2,-7,1,0,0,rectangle,-2,-7,1,0,0,-2,-7,1,0,0,0,15,15,10,1,,,,,,,,
,,,,,,,,,,,,,FF,,,,,,,,9.751,,,,,,,,,,,,,,,,,,,,,,60fe439797c67fdd7643cabb,6103699ae74451882cc12807,2021-07-29_22h53.56.724,Simcolourproject_2stim_asymm_v5,2020.2.10,MacIntel,60,61025ae37ef11b136ea224fe,,,,,,,,,2442,48,24,1,0,0,response1disk,,6,7,-9,1,0,0,rectangle,7,-9,1,0,0,7,-9,1,0,0,0,16,16,79,1,,,,,,,,
,,,,,,,,,,,,,FF,,,,,,,,3.433,,,,,,,,,,,,,,,,,,,,,,60fe439797c67fdd7643cabb,6103699ae74451882cc12807,2021-07-29_22h53.56.724,Simcolourproject_2stim_asymm_v5,2020.2.10,MacIntel,60,61025ae37ef11b136ea224fe,,,,,,,,,2139,84,24,1,0,0,response1disk,,6,2,-9,1,0,0,rectangle,2,-9,1,0,0,2,-9,1,0,0,0,17,17,3,1,,,,,,,,
,,,,,,,,,,,,,FF,,,,,,,,4.983,,,,,,,,,,,,,,,,,,,,,,60fe439797c67fdd7643cabb,6103699ae74451882cc12807,2021-07-29_22h53.56.724,Simcolourproject_2stim_asymm_v5,2020.2.10,MacIntel,60,61025ae37ef11b136ea224fe,,,,,,,,,1508,47,61,1,0,0,response1disk,,7,-4,1,1,0,0,rectangle,-4,1,1,0,0,-4,1,1,0,0,0,18,18,41,1,,,,,,,,
,,,,,,,,,,,,,FF,,,,,,,,2.7,,,,,,,,,,,,,,,,,,,,,,60fe439797c67fdd7643cabb,6103699ae74451882cc12807,2021-07-29_22h53.56.724,Simcolourproject_2stim_asymm_v5,2020.2.10,MacIntel,60,61025ae37ef11b136ea224fe,,,,,,,,,3930,37,63,1,0,0,response1disk,,7,-1,5,1,0,0,rectangle,-1,5,1,0,0,-1,5,1,0,0,0,19,19,58,1,,,,,,,,
,,,,,,,,,,,,,FF,,,,,,,,2.833,,,,,,,,,,,,,,,,,,,,,,60fe439797c67fdd7643cabb,6103699ae74451882cc12807,2021-07-29_22h53.56.724,Simcolourproject_2stim_asymm_v5,2020.2.10,MacIntel,60,61025ae37ef11b136ea224fe,,,,,,,,,2243,27,68,1,0,0,response1disk,,7,25,0,1,0,0,rectangle,25,0,1,0,0,25,0,1,0,0,0,20,20,155,1,,,,,,,,
,,,,,,,,,,,,,FF,,,,,,,,2.081,,,,,,,,,,,,,,,,,,,,,,60fe439797c67fdd7643cabb,6103699ae74451882cc12807,2021-07-29_22h53.56.724,Simcolourproject_2stim_asymm_v5,2020.2.10,MacIntel,60,61025ae37ef11b136ea224fe,,,,,,,,,4366,-95,-33,1,0,0,response5disk,,2,-8,2,1,0,0,rectangle,-8,2,1,0,0,-8,2,1,0,0,0,21,21,104,1,,,,,,,,
,,,,,,,,,,,,,FF,,,,,,,,11.333,,,,,,,,,,,,,,,,,,,,,,60fe439797c67fdd7643cabb,6103699ae74451882cc12807,2021-07-29_22h53.56.724,Simcolourproject_2stim_asymm_v5,2020.2.10,MacIntel,60,61025ae37ef11b136ea224fe,,,,,,,,,3836,44,68,1,0,0,response1disk,,7,7,8,1,0,0,rectangle,7,8,1,0,0,7,8,1,0,0,0,22,22,112,1,,,,,,,,
,,,,,,,,,,,,,FF,,,,,,,,1.466,,,,,,,,,,,,,,,,,,,,,,60fe439797c67fdd7643cabb,6103699ae74451882cc12807,2021-07-29_22h53.56.724,Simcolourproject_2stim_asymm_v5,2020.2.10,MacIntel,60,61025ae37ef11b136ea224fe,,,,,,,,,2609,-47,-63,1,0,0,response5disk,,3,3,4,1,0,0,rectangle,3,4,1,0,0,3,4,1,0,0,0,23,23,61,1,,,,,,,,
,,,,,,,,,,,,,FF,,,,,,,,2.032,,,,,,,,,,,,,,,,,,,,,,60fe439797c67fdd7643cabb,6103699ae74451882cc12807,2021-07-29_22h53.56.724,Simcolourproject_2stim_asymm_v5,2020.2.10,MacIntel,60,61025ae37ef11b136ea224fe,,,,,,,,,942,59,80,1,0,0,response1disk,,7,16,8,1,0,0,rectangle,16,8,1,0,0,16,8,1,0,0,0,24,24,69,1,,,,,,,,
,,,,,,,,,,,,,FF,,,,,,,,1.868,,,,,,,,,,,,,,,,,,,,,,60fe439797c67fdd7643cabb,6103699ae74451882cc12807,2021-07-29_22h53.56.724,Simcolourproject_2stim_asymm_v5,2020.2.10,MacIntel,60,61025ae37ef11b136ea224fe,,,,,,,,,1987,71,31,1,0,0,response1disk,,6,-1,-6,1,0,0,rectangle,-1,-6,1,0,0,-1,-6,1,0,0,0,25,25,159,1,,,,,,,,
,,,,,,,,,,,,,FF,,,,,,,,2.732,,,,,,,,,,,,,,,,,,,,,,60fe439797c67fdd7643cabb,6103699ae74451882cc12807,2021-07-29_22h53.56.724,Simcolourproject_2stim_asymm_v5,2020.2.10,MacIntel,60,61025ae37ef11b136ea224fe,,,,,,,,,554,-30,-64,1,0,0,response5disk,,3,10,0,1,0,0,rectangle,10,0,1,0,0,10,0,1,0,0,0,26,26,15,1,,,,,,,,
,,,,,,,,,,,,,FF,,,,,,,,2.6,,,,,,,,,,,,,,,,,,,,,,60fe439797c67fdd7643cabb,6103699ae74451882cc12807,2021-07-29_22h53.56.724,Simcolourproject_2stim_asymm_v5,2020.2.10,MacIntel,60,61025ae37ef11b136ea224fe,,,,,,,,,249,51,-39,1,0,0,response3disk,,5,2,-3,1,0,0,rectangle,2,-3,1,0,0,2,-3,1,0,0,0,27,27,48,1,,,,,,,,
,,,,,,,,,,,,,FF,,,,,,,,3.183,,,,,,,,,,,,,,,,,,,,,,60fe439797c67fdd7643cabb,6103699ae74451882cc12807,2021-07-29_22h53.56.724,Simcolourproject_2stim_asymm_v5,2020.2.10,MacIntel,60,61025ae37ef11b136ea224fe,,,,,,,,,30,99,49,1,0,0,response1disk,,6,-1,-5,1,0,0,rectangle,-1,-5,1,0,0,-1,-5,1,0,0,0,28,28,116,1,,,,,,,,
,,,,,,,,,,,,,FF,,,,,,,,2.8,,,,,,,,,,,,,,,,,,,,,,60fe439797c67fdd7643cabb,6103699ae74451882cc12807,2021-07-29_22h53.56.724,Simcolourproject_2stim_asymm_v5,2020.2.10,MacIntel,60,61025ae37ef11b136ea224fe,,,,,,,,,3061,23,-56,1,0,0,response3disk,,4,4,-1,1,0,0,rectangle,4,-1,1,0,0,4,-1,1,0,0,0,29,29,59,1,,,,,,,,
,,,,,,,,,,,,,FF,,,,,,,,2.2,,,,,,,,,,,,,,,,,,,,,,60fe439797c67fdd7643cabb,6103699ae74451882cc12807,2021-07-29_22h53.56.724,Simcolourproject_2stim_asymm_v5,2020.2.10,MacIntel,60,61025ae37ef11b136ea224fe,,,,,,,,,2957,24,63,1,0,0,response1disk,,7,-3,4,1,0,0,rectangle,-3,4,1,0,0,-3,4,1,0,0,0,30,30,57,1,,,,,,,,
,,,,,,,,,,,,,FF,,,,,,,,16.117,,,,,,,,,,,,,,,,,,,,,,60fe439797c67fdd7643cabb,6103699ae74451882cc12807,2021-07-29_22h53.56.724,Simcolourproject_2stim_asymm_v5,2020.2.10,MacIntel,60,61025ae37ef11b136ea224fe,,,,,,,,,2436,63,42,1,0,0,response1disk,,6,12,9,1,0,0,rectangle,12,9,1,0,0,12,9,1,0,0,0,31,31,87,1,,,,,,,,
,,,,,,,,,,,,,FF,,,,,,,,11.682,,,,,,,,,,,,,,,,,,,,,,60fe439797c67fdd7643cabb,6103699ae74451882cc12807,2021-07-29_22h53.56.724,Simcolourproject_2stim_asymm_v5,2020.2.10,MacIntel,60,61025ae37ef11b136ea224fe,,,,,,,,,1255,37,-72,1,0,0,response3disk,,4,-7,2,1,0,0,rectangle,-7,2,1,0,0,-7,2,1,0,0,0,32,32,32,1,,,,,,,,
,,,,,,,,,,,,,FF,,,,,,,,1.45,,,,,,,,,,,,,,,,,,,,,,60fe439797c67fdd7643cabb,6103699ae74451882cc12807,2021-07-29_22h53.56.724,Simcolourproject_2stim_asymm_v5,2020.2.10,MacIntel,60,61025ae37ef11b136ea224fe,,,,,,,,,1041,45,72,1,0,0,response1disk,,7,0,-6,1,0,0,rectangle,-84,-46,1,0,0,-4,4,1,0,0,0,33,33,139,1,,response5disk_3,TRUE,2,2,"[174,119,34,271,317,163,161,312,218,211,39,83,252,114,62,238,197,178,51,100]",4.582,rectangle
,,,,,,,,,,,,,FF,,,,,,,,19.815,,,,,,,,,,,,,,,,,,,,,,60fe439797c67fdd7643cabb,6103699ae74451882cc12807,2021-07-29_22h53.56.724,Simcolourproject_2stim_asymm_v5,2020.2.10,MacIntel,60,61025ae37ef11b136ea224fe,,,,,,,,,2477,72,42,1,0,0,response1disk,,6,6,4,1,0,0,rectangle,6,4,1,0,0,6,4,1,0,0,0,34,34,154,1,,,,,,,,
,,,,,,,,,,,,,FF,,,,,,,,19.499,,,,,,,,,,,,,,,,,,,,,,60fe439797c67fdd7643cabb,6103699ae74451882cc12807,2021-07-29_22h53.56.724,Simcolourproject_2stim_asymm_v5,2020.2.10,MacIntel,60,61025ae37ef11b136ea224fe,,,,,,,,,4329,-32,-75,1,0,0,response5disk,,3,0,1,1,0,0,rectangle,0,1,1,0,0,0,1,1,0,0,0,35,35,89,1,,,,,,,,
,,,,,,,,,,,,,FF,,,,,,,,4.233,,,,,,,,,,,,,,,,,,,,,,60fe439797c67fdd7643cabb,6103699ae74451882cc12807,2021-07-29_22h53.56.724,Simcolourproject_2stim_asymm_v5,2020.2.10,MacIntel,60,61025ae37ef11b136ea224fe,,,,,,,,,417,94,37,1,0,0,response1disk,,6,11,-3,1,0,0,rectangle,11,-3,1,0,0,11,-3,1,0,0,0,36,36,102,1,,,,,,,,
,,,,,,,,,,,,,FF,,,,,,,,1.317,,,,,,,,,,,,,,,,,,,,,,60fe439797c67fdd7643cabb,6103699ae74451882cc12807,2021-07-29_22h53.56.724,Simcolourproject_2stim_asymm_v5,2020.2.10,MacIntel,60,61025ae37ef11b136ea224fe,,,,,,,,,92,23,47,1,0,0,response1disk,,7,2,-8,1,0,0,rectangle,2,-8,1,0,0,2,-8,1,0,0,0,37,37,93,1,,,,,,,,
,,,,,,,,,,,,,FF,,,,,,,,1.7,,,,,,,,,,,,,,,,,,,,,,60fe439797c67fdd7643cabb,6103699ae74451882cc12807,2021-07-29_22h53.56.724,Simcolourproject_2stim_asymm_v5,2020.2.10,MacIntel,60,61025ae37ef11b136ea224fe,,,,,,,,,2223,31,-83,1,0,0,response3disk,,4,11,0,1,0,0,rectangle,78,-37,1,0,0,-8,0,1,0,0,0,38,38,122,1,,response3disk_3,TRUE,5,5,"[174,119,34,271,317,163,161,312,218,211,39,83,252,114,62,238,197,178,51,100]",2.682,rectangle
,,,,,,,,,,,,,FF,,,,,,,,1.567,,,,,,,,,,,,,,,,,,,,,,60fe439797c67fdd7643cabb,6103699ae74451882cc12807,2021-07-29_22h53.56.724,Simcolourproject_2stim_asymm_v5,2020.2.10,MacIntel,60,61025ae37ef11b136ea224fe,,,,,,,,,3188,-81,-35,1,0,0,response5disk,,2,-5,-5,1,0,0,rectangle,-5,-5,1,0,0,-5,-5,1,0,0,0,39,39,107,1,,,,,,,,
,,,,,,,,,,,,,FF,,,,,,,,3.533,,,,,,,,,,,,,,,,,,,,,,60fe439797c67fdd7643cabb,6103699ae74451882cc12807,2021-07-29_22h53.56.724,Simcolourproject_2stim_asymm_v5,2020.2.10,MacIntel,60,61025ae37ef11b136ea224fe,,,,,,,,,3597,-56,-86,1,0,0,response5disk,,3,3,-2,1,0,0,rectangle,3,-2,1,0,0,3,-2,1,0,0,0,40,40,65,1,,,,,,,,
,,,,,,,,,,,,,FF,,,,,,,,1.183,,,,,,,,,,,,,,,,,,,,,,60fe439797c67fdd7643cabb,6103699ae74451882cc12807,2021-07-29_22h53.56.724,Simcolourproject_2stim_asymm_v5,2020.2.10,MacIntel,60,61025ae37ef11b136ea224fe,,,,,,,,,3286,-28,-56,1,0,0,response5disk,,3,0,14,1,0,0,rectangle,0,14,1,0,0,0,14,1,0,0,0,41,41,7,1,,,,,,,,
,,,,,,,,,,,,,FF,,,,,,,,3.183,,,,,,,,,,,,,,,,,,,,,,60fe439797c67fdd7643cabb,6103699ae74451882cc12807,2021-07-29_22h53.56.724,Simcolourproject_2stim_asymm_v5,2020.2.10,MacIntel,60,61025ae37ef11b136ea224fe,,,,,,,,,972,75,-50,1,0,0,response3disk,,5,5,-7,1,0,0,rectangle,5,-7,1,0,0,5,-7,1,0,0,0,42,42,73,1,,,,,,,,
,,,,,,,,,,,,,FF,,,,,,,,3.115,,,,,,,,,,,,,,,,,,,,,,60fe439797c67fdd7643cabb,6103699ae74451882cc12807,2021-07-29_22h53.56.724,Simcolourproject_2stim_asymm_v5,2020.2.10,MacIntel,60,61025ae37ef11b136ea224fe,,,,,,,,,1759,31,-92,1,0,0,response3disk,,4,6,0,1,0,0,rectangle,6,0,1,0,0,6,0,1,0,0,0,43,43,2,1,,,,,,,,
,,,,,,,,,,,,,FF,,,,,,,,1.332,,,,,,,,,,,,,,,,,,,,,,60fe439797c67fdd7643cabb,6103699ae74451882cc12807,2021-07-29_22h53.56.724,Simcolourproject_2stim_asymm_v5,2020.2.10,MacIntel,60,61025ae37ef11b136ea224fe,,,,,,,,,2856,43,66,1,0,0,response1disk,,7,-2,-9,1,0,0,rectangle,-2,-9,1,0,0,-2,-9,1,0,0,0,44,44,6,1,,,,,,,,
,,,,,,,,,,,,,FF,,,,,,,,0.9,,,,,,,,,,,,,,,,,,,,,,60fe439797c67fdd7643cabb,6103699ae74451882cc12807,2021-07-29_22h53.56.724,Simcolourproject_2stim_asymm_v5,2020.2.10,MacIntel,60,61025ae37ef11b136ea224fe,,,,,,,,,1346,34,62,1,0,0,response1disk,,7,-4,-2,1,0,0,rectangle,-4,-2,1,0,0,-4,-2,1,0,0,0,45,45,75,1,,,,,,,,
,,,,,,,,,,,,,FF,,,,,,,,6.816,,,,,,,,,,,,,,,,,,,,,,60fe439797c67fdd7643cabb,6103699ae74451882cc12807,2021-07-29_22h53.56.724,Simcolourproject_2stim_asymm_v5,2020.2.10,MacIntel,60,61025ae37ef11b136ea224fe,,,,,,,,,2658,48,33,1,0,0,response1disk,,6,8,2,1,0,0,rectangle,8,2,1,0,0,8,2,1,0,0,0,46,46,30,1,,,,,,,,
,,,,,,,,,,,,,FF,,,,,,,,2.033,,,,,,,,,,,,,,,,,,,,,,60fe439797c67fdd7643cabb,6103699ae74451882cc12807,2021-07-29_22h53.56.724,Simcolourproject_2stim_asymm_v5,2020.2.10,MacIntel,60,61025ae37ef11b136ea224fe,,,,,,,,,2562,31,-73,1,0,0,response3disk,,4,7,-8,1,0,0,rectangle,7,-8,1,0,0,7,-8,1,0,0,0,47,47,55,1,,,,,,,,
,,,,,,,,,,,,,FF,,,,,,,,2.949,,,,,,,,,,,,,,,,,,,,,,60fe439797c67fdd7643cabb,6103699ae74451882cc12807,2021-07-29_22h53.56.724,Simcolourproject_2stim_asymm_v5,2020.2.10,MacIntel,60,61025ae37ef11b136ea224fe,,,,,,,,,620,-85,37,1,0,0,response7disk,,1,1,-2,1,0,0,rectangle,1,-2,1,0,0,1,-2,1,0,0,0,48,48,51,1,,,,,,,,
,,,,,,,,,,,,,FF,,,,,,,,2.932,,,,,,,,,,,,,,,,,,,,,,60fe439797c67fdd7643cabb,6103699ae74451882cc12807,2021-07-29_22h53.56.724,Simcolourproject_2stim_asymm_v5,2020.2.10,MacIntel,60,61025ae37ef11b136ea224fe,,,,,,,,,2620,23,-97,1,0,0,response3disk,,4,1,4,1,0,0,rectangle,1,4,1,0,0,1,4,1,0,0,0,49,49,147,1,,,,,,,,
,,,,,,,,,,,,,FF,,,,,,,,9.298,,,,,,,,,,,,,,,,,,,,,,60fe439797c67fdd7643cabb,6103699ae74451882cc12807,2021-07-29_22h53.56.724,Simcolourproject_2stim_asymm_v5,2020.2.10,MacIntel,60,61025ae37ef11b136ea224fe,,,,,,,,,451,64,-25,1,0,0,response3disk,,5,-6,3,1,0,0,rectangle,-42,107,1,0,0,-1,-1,1,0,0,0,50,50,128,1,,response7disk_3,TRUE,0,0,"[174,119,34,271,317,163,161,312,218,211,39,83,252,114,62,238,197,178,51,100]",3.598,rectangle
,,,,,,,,,,,,,FF,,,,,,,,5.415,,,,,,,,,,,,,,,,,,,,,,60fe439797c67fdd7643cabb,6103699ae74451882cc12807,2021-07-29_22h53.56.724,Simcolourproject_2stim_asymm_v5,2020.2.10,MacIntel,60,61025ae37ef11b136ea224fe,,,,,,,,,664,41,-58,1,0,0,response3disk,,4,1,1,1,0,0,rectangle,1,1,1,0,0,1,1,1,0,0,0,51,51,20,1,,,,,,,,
,,,,,,,,,,,,,FF,,,,,,,,2.149,,,,,,,,,,,,,,,,,,,,,,60fe439797c67fdd7643cabb,6103699ae74451882cc12807,2021-07-29_22h53.56.724,Simcolourproject_2stim_asymm_v5,2020.2.10,MacIntel,60,61025ae37ef11b136ea224fe,,,,,,,,,1145,-54,-39,1,0,0,response5disk,,2,2,1,1,0,0,rectangle,2,1,1,0,0,2,1,1,0,0,0,52,52,85,1,,,,,,,,
,,,,,,,,,,,,,FF,,,,,,,,1.55,,,,,,,,,,,,,,,,,,,,,,60fe439797c67fdd7643cabb,6103699ae74451882cc12807,2021-07-29_22h53.56.724,Simcolourproject_2stim_asymm_v5,2020.2.10,MacIntel,60,61025ae37ef11b136ea224fe,,,,,,,,,427,37,-98,1,0,0,response3disk,,4,0,6,1,0,0,rectangle,0,6,1,0,0,0,6,1,0,0,0,53,53,18,1,,,,,,,,
,,,,,,,,,,,,,FF,,,,,,,,3.116,,,,,,,,,,,,,,,,,,,,,,60fe439797c67fdd7643cabb,6103699ae74451882cc12807,2021-07-29_22h53.56.724,Simcolourproject_2stim_asymm_v5,2020.2.10,MacIntel,60,61025ae37ef11b136ea224fe,,,,,,,,,2348,56,29,1,0,0,response1disk,,6,3,-7,1,0,0,rectangle,3,-7,1,0,0,3,-7,1,0,0,0,54,54,150,1,,,,,,,,
,,,,,,,,,,,,,FF,,,,,,,,2.8,,,,,,,,,,,,,,,,,,,,,,60fe439797c67fdd7643cabb,6103699ae74451882cc12807,2021-07-29_22h53.56.724,Simcolourproject_2stim_asymm_v5,2020.2.10,MacIntel,60,61025ae37ef11b136ea224fe,,,,,,,,,3947,43,59,1,0,0,response1disk,,7,10,0,1,0,0,rectangle,10,0,1,0,0,10,0,1,0,0,0,55,55,77,1,,,,,,,,
,,,,,,,,,,,,,FF,,,,,,,,2.533,,,,,,,,,,,,,,,,,,,,,,60fe439797c67fdd7643cabb,6103699ae74451882cc12807,2021-07-29_22h53.56.724,Simcolourproject_2stim_asymm_v5,2020.2.10,MacIntel,60,61025ae37ef11b136ea224fe,,,,,,,,,125,53,29,1,0,0,response1disk,,6,2,3,1,0,0,rectangle,2,3,1,0,0,2,3,1,0,0,0,56,56,33,1,,,,,,,,
,,,,,,,,,,,,,FF,,,,,,,,2.201,,,,,,,,,,,,,,,,,,,,,,60fe439797c67fdd7643cabb,6103699ae74451882cc12807,2021-07-29_22h53.56.724,Simcolourproject_2stim_asymm_v5,2020.2.10,MacIntel,60,61025ae37ef11b136ea224fe,,,,,,,,,571,27,-57,1,0,0,response3disk,,4,2,10,1,0,0,rectangle,2,10,1,0,0,2,10,1,0,0,0,57,57,86,1,,,,,,,,
,,,,,,,,,,,,,FF,,,,,,,,8.017,,,,,,,,,,,,,,,,,,,,,,60fe439797c67fdd7643cabb,6103699ae74451882cc12807,2021-07-29_22h53.56.724,Simcolourproject_2stim_asymm_v5,2020.2.10,MacIntel,60,61025ae37ef11b136ea224fe,,,,,,,,,109,29,-56,1,0,0,response3disk,,4,-1,10,1,0,0,rectangle,-1,10,1,0,0,-1,10,1,0,0,0,58,58,42,1,,,,,,,,
,,,,,,,,,,,,,FF,,,,,,,,1.899,,,,,,,,,,,,,,,,,,,,,,60fe439797c67fdd7643cabb,6103699ae74451882cc12807,2021-07-29_22h53.56.724,Simcolourproject_2stim_asymm_v5,2020.2.10,MacIntel,60,61025ae37ef11b136ea224fe,,,,,,,,,4190,-22,-99,1,0,0,response5disk,,3,-4,-3,1,0,0,rectangle,-4,-3,1,0,0,-4,-3,1,0,0,0,59,59,134,1,,,,,,,,
,,,,,,,,,,,,,FF,,,,,,,,1.016,,,,,,,,,,,,,,,,,,,,,,60fe439797c67fdd7643cabb,6103699ae74451882cc12807,2021-07-29_22h53.56.724,Simcolourproject_2stim_asymm_v5,2020.2.10,MacIntel,60,61025ae37ef11b136ea224fe,,,,,,,,,932,26,99,1,0,0,response1disk,,7,-5,-6,1,0,0,rectangle,-5,-6,1,0,0,-5,-6,1,0,0,0,60,60,54,1,,,,,,,,
,,,,,,,,,,,,,FF,,,,,,,,3.332,,,,,,,,,,,,,,,,,,,,,,60fe439797c67fdd7643cabb,6103699ae74451882cc12807,2021-07-29_22h53.56.724,Simcolourproject_2stim_asymm_v5,2020.2.10,MacIntel,60,61025ae37ef11b136ea224fe,,,,,,,,,1314,74,-29,1,0,0,response3disk,,5,11,-2,1,0,0,rectangle,-44,106,1,0,0,2,2,1,0,0,0,61,61,21,1,,response7disk_3,TRUE,0,0,"[174,119,34,271,317,163,161,312,218,211,39,83,252,114,62,238,197,178,51,100]",2.398,rectangle
,,,,,,,,,,,,,FF,,,,,,,,12.784,,,,,,,,,,,,,,,,,,,,,,60fe439797c67fdd7643cabb,6103699ae74451882cc12807,2021-07-29_22h53.56.724,Simcolourproject_2stim_asymm_v5,2020.2.10,MacIntel,60,61025ae37ef11b136ea224fe,,,,,,,,,1761,39,-19,1,0,0,response3disk,,5,1,7,1,0,0,rectangle,1,7,1,0,0,1,7,1,0,0,0,62,62,132,1,,,,,,,,
,,,,,,,,,,,,,FF,,,,,,,,2,,,,,,,,,,,,,,,,,,,,,,60fe439797c67fdd7643cabb,6103699ae74451882cc12807,2021-07-29_22h53.56.724,Simcolourproject_2stim_asymm_v5,2020.2.10,MacIntel,60,61025ae37ef11b136ea224fe,,,,,,,,,2263,85,-38,1,0,0,response3disk,,5,15,-1,1,0,0,rectangle,15,-1,1,0,0,15,-1,1,0,0,0,63,63,95,1,,,,,,,,
,,,,,,,,,,,,,FF,,,,,,,,1.349,,,,,,,,,,,,,,,,,,,,,,60fe439797c67fdd7643cabb,6103699ae74451882cc12807,2021-07-29_22h53.56.724,Simcolourproject_2stim_asymm_v5,2020.2.10,MacIntel,60,61025ae37ef11b136ea224fe,,,,,,,,,3962,87,33,1,0,0,response1disk,,6,-14,-2,1,0,0,rectangle,-14,-2,1,0,0,-14,-2,1,0,0,0,64,64,8,1,,,,,,,,
,,,,,,,,,,,,,FF,,,,,,,,1.1,,,,,,,,,,,,,,,,,,,,,,60fe439797c67fdd7643cabb,6103699ae74451882cc12807,2021-07-29_22h53.56.724,Simcolourproject_2stim_asymm_v5,2020.2.10,MacIntel,60,61025ae37ef11b136ea224fe,,,,,,,,,1253,30,78,1,0,0,response1disk,,7,-5,0,1,0,0,rectangle,-5,0,1,0,0,-5,0,1,0,0,0,65,65,92,1,,,,,,,,
,,,,,,,,,,,,,FF,,,,,,,,1.999,,,,,,,,,,,,,,,,,,,,,,60fe439797c67fdd7643cabb,6103699ae74451882cc12807,2021-07-29_22h53.56.724,Simcolourproject_2stim_asymm_v5,2020.2.10,MacIntel,60,61025ae37ef11b136ea224fe,,,,,,,,,2510,29,-26,1,0,0,response3disk,,5,-10,5,1,0,0,rectangle,-10,5,1,0,0,-10,5,1,0,0,0,66,66,121,1,,,,,,,,
,,,,,,,,,,,,,FF,,,,,,,,1.832,,,,,,,,,,,,,,,,,,,,,,60fe439797c67fdd7643cabb,6103699ae74451882cc12807,2021-07-29_22h53.56.724,Simcolourproject_2stim_asymm_v5,2020.2.10,MacIntel,60,61025ae37ef11b136ea224fe,,,,,,,,,138,34,74,1,0,0,response1disk,,7,-11,4,1,0,0,rectangle,-11,4,1,0,0,-11,4,1,0,0,0,67,67,16,1,,,,,,,,
,,,,,,,,,,,,,FF,,,,,,,,1.516,,,,,,,,,,,,,,,,,,,,,,60fe439797c67fdd7643cabb,6103699ae74451882cc12807,2021-07-29_22h53.56.724,Simcolourproject_2stim_asymm_v5,2020.2.10,MacIntel,60,61025ae37ef11b136ea224fe,,,,,,,,,175,-33,-65,1,0,0,response5disk,,3,-3,7,1,0,0,rectangle,-3,7,1,0,0,-3,7,1,0,0,0,68,68,153,1,,,,,,,,
,,,,,,,,,,,,,FF,,,,,,,,3.616,,,,,,,,,,,,,,,,,,,,,,60fe439797c67fdd7643cabb,6103699ae74451882cc12807,2021-07-29_22h53.56.724,Simcolourproject_2stim_asymm_v5,2020.2.10,MacIntel,60,61025ae37ef11b136ea224fe,,,,,,,,,1349,37,-58,1,0,0,response3disk,,4,0,4,1,0,0,rectangle,0,4,1,0,0,0,4,1,0,0,0,69,69,70,1,,,,,,,,
,,,,,,,,,,,,,FF,,,,,,,,2.45,,,,,,,,,,,,,,,,,,,,,,60fe439797c67fdd7643cabb,6103699ae74451882cc12807,2021-07-29_22h53.56.724,Simcolourproject_2stim_asymm_v5,2020.2.10,MacIntel,60,61025ae37ef11b136ea224fe,,,,,,,,,4300,70,37,1,0,0,response1disk,,6,-6,5,1,0,0,rectangle,-6,5,1,0,0,-6,5,1,0,0,0,70,70,146,1,,,,,,,,
,,,,,,,,,,,,,FF,,,,,,,,1.732,,,,,,,,,,,,,,,,,,,,,,60fe439797c67fdd7643cabb,6103699ae74451882cc12807,2021-07-29_22h53.56.724,Simcolourproject_2stim_asymm_v5,2020.2.10,MacIntel,60,61025ae37ef11b136ea224fe,,,,,,,,,3204,-75,36,1,0,0,response7disk,,1,3,-2,1,0,0,rectangle,3,-2,1,0,0,3,-2,1,0,0,0,71,71,98,1,,,,,,,,
,,,,,,,,,,,,,FF,,,,,,,,1.832,,,,,,,,,,,,,,,,,,,,,,60fe439797c67fdd7643cabb,6103699ae74451882cc12807,2021-07-29_22h53.56.724,Simcolourproject_2stim_asymm_v5,2020.2.10,MacIntel,60,61025ae37ef11b136ea224fe,,,,,,,,,814,23,-102,1,0,0,response3disk,,4,12,5,1,0,0,rectangle,12,5,1,0,0,12,5,1,0,0,0,72,72,135,1,,,,,,,,
,,,,,,,,,,,,,FF,,,,,,,,2.517,,,,,,,,,,,,,,,,,,,,,,60fe439797c67fdd7643cabb,6103699ae74451882cc12807,2021-07-29_22h53.56.724,Simcolourproject_2stim_asymm_v5,2020.2.10,MacIntel,60,61025ae37ef11b136ea224fe,,,,,,,,,3156,-90,-35,1,0,0,response5disk,,2,-10,1,1,0,0,rectangle,-10,1,1,0,0,-10,1,1,0,0,0,73,73,125,1,,,,,,,,
,,,,,,,,,,,,,FF,,,,,,,,0.9,,,,,,,,,,,,,,,,,,,,,,60fe439797c67fdd7643cabb,6103699ae74451882cc12807,2021-07-29_22h53.56.724,Simcolourproject_2stim_asymm_v5,2020.2.10,MacIntel,60,61025ae37ef11b136ea224fe,,,,,,,,,3578,41,91,1,0,0,response1disk,,7,10,2,1,0,0,rectangle,10,2,1,0,0,10,2,1,0,0,0,74,74,1,1,,,,,,,,
,,,,,,,,,,,,,FF,,,,,,,,1.417,,,,,,,,,,,,,,,,,,,,,,60fe439797c67fdd7643cabb,6103699ae74451882cc12807,2021-07-29_22h53.56.724,Simcolourproject_2stim_asymm_v5,2020.2.10,MacIntel,60,61025ae37ef11b136ea224fe,,,,,,,,,185,-81,42,1,0,0,response7disk,,1,2,-3,1,0,0,rectangle,2,-3,1,0,0,2,-3,1,0,0,0,75,75,39,1,,,,,,,,
,,,,,,,,,,,,,FF,,,,,,,,2.449,,,,,,,,,,,,,,,,,,,,,,60fe439797c67fdd7643cabb,6103699ae74451882cc12807,2021-07-29_22h53.56.724,Simcolourproject_2stim_asymm_v5,2020.2.10,MacIntel,60,61025ae37ef11b136ea224fe,,,,,,,,,1144,30,-83,1,0,0,response3disk,,4,0,-2,1,0,0,rectangle,0,-2,1,0,0,0,-2,1,0,0,0,76,76,94,1,,,,,,,,
,,,,,,,,,,,,,FF,,,,,,,,2.649,,,,,,,,,,,,,,,,,,,,,,60fe439797c67fdd7643cabb,6103699ae74451882cc12807,2021-07-29_22h53.56.724,Simcolourproject_2stim_asymm_v5,2020.2.10,MacIntel,60,61025ae37ef11b136ea224fe,,,,,,,,,2267,30,74,1,0,0,response1disk,,7,3,7,1,0,0,rectangle,3,7,1,0,0,3,7,1,0,0,0,77,77,40,1,,,,,,,,
,,,,,,,,,,,,,FF,,,,,,,,1.033,,,,,,,,,,,,,,,,,,,,,,60fe439797c67fdd7643cabb,6103699ae74451882cc12807,2021-07-29_22h53.56.724,Simcolourproject_2stim_asymm_v5,2020.2.10,MacIntel,60,61025ae37ef11b136ea224fe,,,,,,,,,2721,-34,-65,1,0,0,response5disk,,3,-2,4,1,0,0,rectangle,-2,4,1,0,0,-2,4,1,0,0,0,78,78,38,1,,,,,,,,
,,,,,,,,,,,,,FF,,,,,,,,1.051,,,,,,,,,,,,,,,,,,,,,,60fe439797c67fdd7643cabb,6103699ae74451882cc12807,2021-07-29_22h53.56.724,Simcolourproject_2stim_asymm_v5,2020.2.10,MacIntel,60,61025ae37ef11b136ea224fe,,,,,,,,,1891,-40,-65,1,0,0,response5disk,,3,-18,13,1,0,0,rectangle,-18,13,1,0,0,-18,13,1,0,0,0,79,79,103,1,,,,,,,,
,,,,,,,,,,,,,FF,,,,,,,,6.016,,,,,,,,,,,,,,,,,,,,,,60fe439797c67fdd7643cabb,6103699ae74451882cc12807,2021-07-29_22h53.56.724,Simcolourproject_2stim_asymm_v5,2020.2.10,MacIntel,60,61025ae37ef11b136ea224fe,,,,,,,,,2639,94,-46,1,0,0,response3disk,,5,-5,5,1,0,0,rectangle,-5,5,1,0,0,-5,5,1,0,0,0,80,80,0,1,,,,,,,,
,,,,,,,,,,,,,FF,,,,,,,,4.401,,,,,,,,,,,,,,,,,,,,,,60fe439797c67fdd7643cabb,6103699ae74451882cc12807,2021-07-29_22h53.56.724,Simcolourproject_2stim_asymm_v5,2020.2.10,MacIntel,60,61025ae37ef11b136ea224fe,,,,,,,,,1877,71,-37,1,0,0,response3disk,,5,-12,3,1,0,0,rectangle,-12,3,1,0,0,-12,3,1,0,0,0,81,81,100,1,,,,,,,,
,,,,,,,,,,,,,FF,,,,,,,,1.95,,,,,,,,,,,,,,,,,,,,,,60fe439797c67fdd7643cabb,6103699ae74451882cc12807,2021-07-29_22h53.56.724,Simcolourproject_2stim_asymm_v5,2020.2.10,MacIntel,60,61025ae37ef11b136ea224fe,,,,,,,,,369,-30,-54,1,0,0,response5disk,,3,-6,-3,1,0,0,rectangle,-96,41,1,0,0,-10,-3,1,0,0,0,82,82,45,1,,response7disk_3,TRUE,1,1,"[174,119,34,271,317,163,161,312,218,211,39,83,252,114,62,238,197,178,51,100]",1.815,rectangle
,,,,,,,,,,,,,FF,,,,,,,,2.95,,,,,,,,,,,,,,,,,,,,,,60fe439797c67fdd7643cabb,6103699ae74451882cc12807,2021-07-29_22h53.56.724,Simcolourproject_2stim_asymm_v5,2020.2.10,MacIntel,60,61025ae37ef11b136ea224fe,,,,,,,,,1539,50,-60,1,0,0,response3disk,,4,-2,-2,1,0,0,rectangle,-2,-2,1,0,0,-2,-2,1,0,0,0,83,83,119,1,,,,,,,,
,,,,,,,,,,,,,FF,,,,,,,,1.068,,,,,,,,,,,,,,,,,,,,,,60fe439797c67fdd7643cabb,6103699ae74451882cc12807,2021-07-29_22h53.56.724,Simcolourproject_2stim_asymm_v5,2020.2.10,MacIntel,60,61025ae37ef11b136ea224fe,,,,,,,,,946,34,47,1,0,0,response1disk,,7,-5,-4,1,0,0,rectangle,-5,-4,1,0,0,-5,-4,1,0,0,0,84,84,129,1,,,,,,,,
,,,,,,,,,,,,,FF,,,,,,,,4.699,,,,,,,,,,,,,,,,,,,,,,60fe439797c67fdd7643cabb,6103699ae74451882cc12807,2021-07-29_22h53.56.724,Simcolourproject_2stim_asymm_v5,2020.2.10,MacIntel,60,61025ae37ef11b136ea224fe,,,,,,,,,4202,21,-83,1,0,0,response3disk,,4,-2,3,1,0,0,rectangle,-2,3,1,0,0,-2,3,1,0,0,0,85,85,90,1,,,,,,,,
,,,,,,,,,,,,,FF,,,,,,,,3.234,,,,,,,,,,,,,,,,,,,,,,60fe439797c67fdd7643cabb,6103699ae74451882cc12807,2021-07-29_22h53.56.724,Simcolourproject_2stim_asymm_v5,2020.2.10,MacIntel,60,61025ae37ef11b136ea224fe,,,,,,,,,3819,-49,-69,1,0,0,response5disk,,3,-9,-7,1,0,0,rectangle,-9,-7,1,0,0,-9,-7,1,0,0,0,86,86,101,1,,,,,,,,
,,,,,,,,,,,,,FF,,,,,,,,2.465,,,,,,,,,,,,,,,,,,,,,,60fe439797c67fdd7643cabb,6103699ae74451882cc12807,2021-07-29_22h53.56.724,Simcolourproject_2stim_asymm_v5,2020.2.10,MacIntel,60,61025ae37ef11b136ea224fe,,,,,,,,,1733,42,-64,1,0,0,response3disk,,4,-3,1,1,0,0,rectangle,-3,1,1,0,0,-3,1,1,0,0,0,87,87,114,1,,,,,,,,
,,,,,,,,,,,,,FF,,,,,,,,2.482,,,,,,,,,,,,,,,,,,,,,,60fe439797c67fdd7643cabb,6103699ae74451882cc12807,2021-07-29_22h53.56.724,Simcolourproject_2stim_asymm_v5,2020.2.10,MacIntel,60,61025ae37ef11b136ea224fe,,,,,,,,,954,41,-27,1,0,0,response3disk,,5,15,-2,1,0,0,rectangle,15,-2,1,0,0,15,-2,1,0,0,0,88,88,117,1,,,,,,,,
,,,,,,,,,,,,,FF,,,,,,,,2.283,,,,,,,,,,,,,,,,,,,,,,60fe439797c67fdd7643cabb,6103699ae74451882cc12807,2021-07-29_22h53.56.724,Simcolourproject_2stim_asymm_v5,2020.2.10,MacIntel,60,61025ae37ef11b136ea224fe,,,,,,,,,3020,40,-66,1,0,0,response3disk,,4,11,0,1,0,0,rectangle,11,0,1,0,0,11,0,1,0,0,0,89,89,82,1,,,,,,,,
,,,,,,,,,,,,,FF,,,,,,,,24.15,,,,,,,,,,,,,,,,,,,,,,60fe439797c67fdd7643cabb,6103699ae74451882cc12807,2021-07-29_22h53.56.724,Simcolourproject_2stim_asymm_v5,2020.2.10,MacIntel,60,61025ae37ef11b136ea224fe,,,,,,,,,4228,49,-31,1,0,0,response3disk,,5,4,-1,1,0,0,rectangle,4,-1,1,0,0,4,-1,1,0,0,0,90,90,29,1,,,,,,,,
,,,,,,,,,,,,,FF,,,,,,,,3.7,,,,,,,,,,,,,,,,,,,,,,60fe439797c67fdd7643cabb,6103699ae74451882cc12807,2021-07-29_22h53.56.724,Simcolourproject_2stim_asymm_v5,2020.2.10,MacIntel,60,61025ae37ef11b136ea224fe,,,,,,,,,186,-73,-36,1,0,0,response5disk,,2,-5,-10,1,0,0,rectangle,-5,-10,1,0,0,-5,-10,1,0,0,0,91,91,13,1,,,,,,,,
,,,,,,,,,,,,,FF,,,,,,,,1.401,,,,,,,,,,,,,,,,,,,,,,60fe439797c67fdd7643cabb,6103699ae74451882cc12807,2021-07-29_22h53.56.724,Simcolourproject_2stim_asymm_v5,2020.2.10,MacIntel,60,61025ae37ef11b136ea224fe,,,,,,,,,3591,-84,50,1,0,0,response7disk,,1,-6,6,1,0,0,rectangle,-6,6,1,0,0,-6,6,1,0,0,0,92,92,60,1,,,,,,,,
,,,,,,,,,,,,,FF,,,,,,,,2.6,,,,,,,,,,,,,,,,,,,,,,60fe439797c67fdd7643cabb,6103699ae74451882cc12807,2021-07-29_22h53.56.724,Simcolourproject_2stim_asymm_v5,2020.2.10,MacIntel,60,61025ae37ef11b136ea224fe,,,,,,,,,849,75,28,1,0,0,response1disk,,6,-10,0,1,0,0,rectangle,-10,0,1,0,0,-10,0,1,0,0,0,93,93,109,1,,,,,,,,
,,,,,,,,,,,,,FF,,,,,,,,1.633,,,,,,,,,,,,,,,,,,,,,,60fe439797c67fdd7643cabb,6103699ae74451882cc12807,2021-07-29_22h53.56.724,Simcolourproject_2stim_asymm_v5,2020.2.10,MacIntel,60,61025ae37ef11b136ea224fe,,,,,,,,,1806,23,89,1,0,0,response1disk,,7,1,2,1,0,0,rectangle,1,2,1,0,0,1,2,1,0,0,0,94,94,64,1,,,,,,,,
,,,,,,,,,,,,,FF,,,,,,,,3.467,,,,,,,,,,,,,,,,,,,,,,60fe439797c67fdd7643cabb,6103699ae74451882cc12807,2021-07-29_22h53.56.724,Simcolourproject_2stim_asymm_v5,2020.2.10,MacIntel,60,61025ae37ef11b136ea224fe,,,,,,,,,1769,109,25,1,0,0,response1disk,,6,3,-2,1,0,0,rectangle,3,-2,1,0,0,3,-2,1,0,0,0,95,95,118,1,,,,,,,,
,,,,,,,,,,,,,FF,,,,,,,,2.6,,,,,,,,,,,,,,,,,,,,,,60fe439797c67fdd7643cabb,6103699ae74451882cc12807,2021-07-29_22h53.56.724,Simcolourproject_2stim_asymm_v5,2020.2.10,MacIntel,60,61025ae37ef11b136ea224fe,,,,,,,,,1812,54,-42,1,0,0,response3disk,,5,2,8,1,0,0,rectangle,2,8,1,0,0,2,8,1,0,0,0,96,96,141,1,,,,,,,,
,,,,,,,,,,,,,FF,,,,,,,,2.8,,,,,,,,,,,,,,,,,,,,,,60fe439797c67fdd7643cabb,6103699ae74451882cc12807,2021-07-29_22h53.56.724,Simcolourproject_2stim_asymm_v5,2020.2.10,MacIntel,60,61025ae37ef11b136ea224fe,,,,,,,,,460,-55,-61,1,0,0,response5disk,,3,0,-4,1,0,0,rectangle,0,-4,1,0,0,0,-4,1,0,0,0,97,97,115,1,,,,,,,,
,,,,,,,,,,,,,FF,,,,,,,,1.148,,,,,,,,,,,,,,,,,,,,,,60fe439797c67fdd7643cabb,6103699ae74451882cc12807,2021-07-29_22h53.56.724,Simcolourproject_2stim_asymm_v5,2020.2.10,MacIntel,60,61025ae37ef11b136ea224fe,,,,,,,,,970,-64,-35,1,0,0,response5disk,,2,-6,-11,1,0,0,rectangle,-6,-11,1,0,0,-6,-11,1,0,0,0,98,98,76,1,,,,,,,,
,,,,,,,,,,,,,FF,,,,,,,,1.765,,,,,,,,,,,,,,,,,,,,,,60fe439797c67fdd7643cabb,6103699ae74451882cc12807,2021-07-29_22h53.56.724,Simcolourproject_2stim_asymm_v5,2020.2.10,MacIntel,60,61025ae37ef11b136ea224fe,,,,,,,,,111,82,-26,1,0,0,response3disk,,5,14,-5,1,0,0,rectangle,70,-27,1,0,0,-6,-1,1,0,0,0,99,99,62,1,,response3disk_3,TRUE,5,5,"[174,119,34,271,317,163,161,312,218,211,39,83,252,114,62,238,197,178,51,100]",3.532,rectangle
,,,,,,,,,,,,,FF,,,,,,,,4.45,,,,,,,,,,,,,,,,,,,,,,60fe439797c67fdd7643cabb,6103699ae74451882cc12807,2021-07-29_22h53.56.724,Simcolourproject_2stim_asymm_v5,2020.2.10,MacIntel,60,61025ae37ef11b136ea224fe,,,,,,,,,1646,85,26,1,0,0,response1disk,,6,11,-1,1,0,0,rectangle,11,-1,1,0,0,11,-1,1,0,0,0,100,100,52,1,,,,,,,,
,,,,,,,,,,,,,FF,,,,,,,,1.199,,,,,,,,,,,,,,,,,,,,,,60fe439797c67fdd7643cabb,6103699ae74451882cc12807,2021-07-29_22h53.56.724,Simcolourproject_2stim_asymm_v5,2020.2.10,MacIntel,60,61025ae37ef11b136ea224fe,,,,,,,,,2920,30,77,1,0,0,response1disk,,7,6,-8,1,0,0,rectangle,6,-8,1,0,0,6,-8,1,0,0,0,101,101,28,1,,,,,,,,
,,,,,,,,,,,,,FF,,,,,,,,1.333,,,,,,,,,,,,,,,,,,,,,,60fe439797c67fdd7643cabb,6103699ae74451882cc12807,2021-07-29_22h53.56.724,Simcolourproject_2stim_asymm_v5,2020.2.10,MacIntel,60,61025ae37ef11b136ea224fe,,,,,,,,,1686,-30,-56,1,0,0,response5disk,,3,2,2,1,0,0,rectangle,2,2,1,0,0,2,2,1,0,0,0,102,102,152,1,,,,,,,,
,,,,,,,,,,,,,FF,,,,,,,,0.982,,,,,,,,,,,,,,,,,,,,,,60fe439797c67fdd7643cabb,6103699ae74451882cc12807,2021-07-29_22h53.56.724,Simcolourproject_2stim_asymm_v5,2020.2.10,MacIntel,60,61025ae37ef11b136ea224fe,,,,,,,,,4138,35,61,1,0,0,response1disk,,7,-10,-6,1,0,0,rectangle,-10,-6,1,0,0,-10,-6,1,0,0,0,103,103,53,1,,,,,,,,
,,,,,,,,,,,,,FF,,,,,,,,2.016,,,,,,,,,,,,,,,,,,,,,,60fe439797c67fdd7643cabb,6103699ae74451882cc12807,2021-07-29_22h53.56.724,Simcolourproject_2stim_asymm_v5,2020.2.10,MacIntel,60,61025ae37ef11b136ea224fe,,,,,,,,,2290,66,20,1,0,0,response1disk,,6,-1,-7,1,0,0,rectangle,-1,-7,1,0,0,-1,-7,1,0,0,0,104,104,44,1,,,,,,,,
,,,,,,,,,,,,,FF,,,,,,,,3.532,,,,,,,,,,,,,,,,,,,,,,60fe439797c67fdd7643cabb,6103699ae74451882cc12807,2021-07-29_22h53.56.724,Simcolourproject_2stim_asymm_v5,2020.2.10,MacIntel,60,61025ae37ef11b136ea224fe,,,,,,,,,1117,97,31,1,0,0,response1disk,,6,19,8,1,0,0,rectangle,19,8,1,0,0,19,8,1,0,0,0,105,105,24,1,,,,,,,,
,,,,,,,,,,,,,FF,,,,,,,,5.082,,,,,,,,,,,,,,,,,,,,,,60fe439797c67fdd7643cabb,6103699ae74451882cc12807,2021-07-29_22h53.56.724,Simcolourproject_2stim_asymm_v5,2020.2.10,MacIntel,60,61025ae37ef11b136ea224fe,,,,,,,,,491,26,-55,1,0,0,response3disk,,4,5,8,1,0,0,rectangle,5,8,1,0,0,5,8,1,0,0,0,106,106,151,1,,,,,,,,
,,,,,,,,,,,,,FF,,,,,,,,4.3,,,,,,,,,,,,,,,,,,,,,,60fe439797c67fdd7643cabb,6103699ae74451882cc12807,2021-07-29_22h53.56.724,Simcolourproject_2stim_asymm_v5,2020.2.10,MacIntel,60,61025ae37ef11b136ea224fe,,,,,,,,,1809,63,-44,1,0,0,response3disk,,5,7,-1,1,0,0,rectangle,7,-1,1,0,0,7,-1,1,0,0,0,107,107,78,1,,,,,,,,
,,,,,,,,,,,,,FF,,,,,,,,1.034,,,,,,,,,,,,,,,,,,,,,,60fe439797c67fdd7643cabb,6103699ae74451882cc12807,2021-07-29_22h53.56.724,Simcolourproject_2stim_asymm_v5,2020.2.10,MacIntel,60,61025ae37ef11b136ea224fe,,,,,,,,,3155,-70,-36,1,0,0,response5disk,,2,1,-5,1,0,0,rectangle,1,-5,1,0,0,1,-5,1,0,0,0,108,108,108,1,,,,,,,,
,,,,,,,,,,,,,FF,,,,,,,,3.317,,,,,,,,,,,,,,,,,,,,,,60fe439797c67fdd7643cabb,6103699ae74451882cc12807,2021-07-29_22h53.56.724,Simcolourproject_2stim_asymm_v5,2020.2.10,MacIntel,60,61025ae37ef11b136ea224fe,,,,,,,,,1456,-56,-32,1,0,0,response5disk,,2,6,-7,1,0,0,rectangle,6,-7,1,0,0,6,-7,1,0,0,0,109,109,105,1,,,,,,,,
,,,,,,,,,,,,,FF,,,,,,,,7.466,,,,,,,,,,,,,,,,,,,,,,60fe439797c67fdd7643cabb,6103699ae74451882cc12807,2021-07-29_22h53.56.724,Simcolourproject_2stim_asymm_v5,2020.2.10,MacIntel,60,61025ae37ef11b136ea224fe,,,,,,,,,3246,-68,-91,1,0,0,response5disk,,3,-3,-5,1,0,0,rectangle,-3,-5,1,0,0,-3,-5,1,0,0,0,110,110,84,1,,,,,,,,
,,,,,,,,,,,,,FF,,,,,,,,1.267,,,,,,,,,,,,,,,,,,,,,,60fe439797c67fdd7643cabb,6103699ae74451882cc12807,2021-07-29_22h53.56.724,Simcolourproject_2stim_asymm_v5,2020.2.10,MacIntel,60,61025ae37ef11b136ea224fe,,,,,,,,,3016,34,97,1,0,0,response1disk,,7,1,-1,1,0,0,rectangle,1,-1,1,0,0,1,-1,1,0,0,0,111,111,130,1,,,,,,,,
,,,,,,,,,,,,,FF,,,,,,,,1.166,,,,,,,,,,,,,,,,,,,,,,60fe439797c67fdd7643cabb,6103699ae74451882cc12807,2021-07-29_22h53.56.724,Simcolourproject_2stim_asymm_v5,2020.2.10,MacIntel,60,61025ae37ef11b136ea224fe,,,,,,,,,1450,-65,-23,1,0,0,response5disk,,2,11,0,1,0,0,rectangle,11,0,1,0,0,11,0,1,0,0,0,112,112,99,1,,,,,,,,
,,,,,,,,,,,,,FF,,,,,,,,0.716,,,,,,,,,,,,,,,,,,,,,,60fe439797c67fdd7643cabb,6103699ae74451882cc12807,2021-07-29_22h53.56.724,Simcolourproject_2stim_asymm_v5,2020.2.10,MacIntel,60,61025ae37ef11b136ea224fe,,,,,,,,,3695,45,75,1,0,0,response1disk,,7,5,3,1,0,0,rectangle,-45,-101,1,0,0,7,-2,1,0,0,0,113,113,35,1,,response5disk_3,TRUE,3,3,"[174,119,34,271,317,163,161,312,218,211,39,83,252,114,62,238,197,178,51,100]",1.864,rectangle
,,,,,,,,,,,,,FF,,,,,,,,6.633,,,,,,,,,,,,,,,,,,,,,,60fe439797c67fdd7643cabb,6103699ae74451882cc12807,2021-07-29_22h53.56.724,Simcolourproject_2stim_asymm_v5,2020.2.10,MacIntel,60,61025ae37ef11b136ea224fe,,,,,,,,,1782,23,-86,1,0,0,response3disk,,4,7,-3,1,0,0,rectangle,7,-3,1,0,0,7,-3,1,0,0,0,114,114,148,1,,,,,,,,
,,,,,,,,,,,,,FF,,,,,,,,3.233,,,,,,,,,,,,,,,,,,,,,,60fe439797c67fdd7643cabb,6103699ae74451882cc12807,2021-07-29_22h53.56.724,Simcolourproject_2stim_asymm_v5,2020.2.10,MacIntel,60,61025ae37ef11b136ea224fe,,,,,,,,,1137,-22,-96,1,0,0,response5disk,,3,3,-3,1,0,0,rectangle,3,-3,1,0,0,3,-3,1,0,0,0,115,115,26,1,,,,,,,,
,,,,,,,,,,,,,FF,,,,,,,,6.517,,,,,,,,,,,,,,,,,,,,,,60fe439797c67fdd7643cabb,6103699ae74451882cc12807,2021-07-29_22h53.56.724,Simcolourproject_2stim_asymm_v5,2020.2.10,MacIntel,60,61025ae37ef11b136ea224fe,,,,,,,,,1044,73,-98,1,0,0,response3disk,,4,0,-4,1,0,0,rectangle,0,-4,1,0,0,0,-4,1,0,0,0,116,116,14,1,,,,,,,,
,,,,,,,,,,,,,FF,,,,,,,,1.933,,,,,,,,,,,,,,,,,,,,,,60fe439797c67fdd7643cabb,6103699ae74451882cc12807,2021-07-29_22h53.56.724,Simcolourproject_2stim_asymm_v5,2020.2.10,MacIntel,60,61025ae37ef11b136ea224fe,,,,,,,,,2730,-51,-79,1,0,0,response5disk,,3,0,-10,1,0,0,rectangle,0,-10,1,0,0,0,-10,1,0,0,0,117,117,37,1,,,,,,,,
,,,,,,,,,,,,,FF,,,,,,,,0.699,,,,,,,,,,,,,,,,,,,,,,60fe439797c67fdd7643cabb,6103699ae74451882cc12807,2021-07-29_22h53.56.724,Simcolourproject_2stim_asymm_v5,2020.2.10,MacIntel,60,61025ae37ef11b136ea224fe,,,,,,,,,1627,36,67,1,0,0,response1disk,,7,6,-10,1,0,0,rectangle,-48,105,1,0,0,-5,3,1,0,0,0,118,118,12,1,,response7disk_3,TRUE,0,0,"[174,119,34,271,317,163,161,312,218,211,39,83,252,114,62,238,197,178,51,100]",2.633,rectangle
,,,,,,,,,,,,,FF,,,,,,,,2.016,,,,,,,,,,,,,,,,,,,,,,60fe439797c67fdd7643cabb,6103699ae74451882cc12807,2021-07-29_22h53.56.724,Simcolourproject_2stim_asymm_v5,2020.2.10,MacIntel,60,61025ae37ef11b136ea224fe,,,,,,,,,1080,-28,-67,1,0,0,response5disk,,3,-1,0,1,0,0,rectangle,-1,0,1,0,0,-1,0,1,0,0,0,119,119,143,1,,,,,,,,
,,,,,,,,,,,,,FF,,,,,,,,1.766,,,,,,,,,,,,,,,,,,,,,,60fe439797c67fdd7643cabb,6103699ae74451882cc12807,2021-07-29_22h53.56.724,Simcolourproject_2stim_asymm_v5,2020.2.10,MacIntel,60,61025ae37ef11b136ea224fe,,,,,,,,,1335,69,-59,1,0,0,response3disk,,5,-14,6,1,0,0,rectangle,-14,6,1,0,0,-14,6,1,0,0,0,120,120,110,1,,,,,,,,
,,,,,,,,,,,,,FF,,,,,,,,0.865,,,,,,,,,,,,,,,,,,,,,,60fe439797c67fdd7643cabb,6103699ae74451882cc12807,2021-07-29_22h53.56.724,Simcolourproject_2stim_asymm_v5,2020.2.10,MacIntel,60,61025ae37ef11b136ea224fe,,,,,,,,,1601,-75,-32,1,0,0,response5disk,,2,0,-3,1,0,0,rectangle,0,-3,1,0,0,0,-3,1,0,0,0,121,121,145,1,,,,,,,,
,,,,,,,,,,,,,FF,,,,,,,,1.016,,,,,,,,,,,,,,,,,,,,,,60fe439797c67fdd7643cabb,6103699ae74451882cc12807,2021-07-29_22h53.56.724,Simcolourproject_2stim_asymm_v5,2020.2.10,MacIntel,60,61025ae37ef11b136ea224fe,,,,,,,,,818,-30,-46,1,0,0,response5disk,,3,-7,2,1,0,0,rectangle,-7,2,1,0,0,-7,2,1,0,0,0,122,122,74,1,,,,,,,,
,,,,,,,,,,,,,FF,,,,,,,,1.784,,,,,,,,,,,,,,,,,,,,,,60fe439797c67fdd7643cabb,6103699ae74451882cc12807,2021-07-29_22h53.56.724,Simcolourproject_2stim_asymm_v5,2020.2.10,MacIntel,60,61025ae37ef11b136ea224fe,,,,,,,,,1574,64,-34,1,0,0,response3disk,,5,-3,7,1,0,0,rectangle,-3,7,1,0,0,-3,7,1,0,0,0,123,123,123,1,,,,,,,,
,,,,,,,,,,,,,FF,,,,,,,,0.967,,,,,,,,,,,,,,,,,,,,,,60fe439797c67fdd7643cabb,6103699ae74451882cc12807,2021-07-29_22h53.56.724,Simcolourproject_2stim_asymm_v5,2020.2.10,MacIntel,60,61025ae37ef11b136ea224fe,,,,,,,,,4279,43,78,1,0,0,response1disk,,7,10,0,1,0,0,rectangle,10,0,1,0,0,10,0,1,0,0,0,124,124,25,1,,,,,,,,
,,,,,,,,,,,,,FF,,,,,,,,1.067,,,,,,,,,,,,,,,,,,,,,,60fe439797c67fdd7643cabb,6103699ae74451882cc12807,2021-07-29_22h53.56.724,Simcolourproject_2stim_asymm_v5,2020.2.10,MacIntel,60,61025ae37ef11b136ea224fe,,,,,,,,,290,-27,-65,1,0,0,response5disk,,3,-5,-3,1,0,0,rectangle,-5,-3,1,0,0,-5,-3,1,0,0,0,125,125,66,1,,,,,,,,
,,,,,,,,,,,,,FF,,,,,,,,2.233,,,,,,,,,,,,,,,,,,,,,,60fe439797c67fdd7643cabb,6103699ae74451882cc12807,2021-07-29_22h53.56.724,Simcolourproject_2stim_asymm_v5,2020.2.10,MacIntel,60,61025ae37ef11b136ea224fe,,,,,,,,,51,33,63,1,0,0,response1disk,,7,-1,16,1,0,0,rectangle,-1,16,1,0,0,-1,16,1,0,0,0,126,126,49,1,,,,,,,,
,,,,,,,,,,,,,FF,,,,,,,,1.1,,,,,,,,,,,,,,,,,,,,,,60fe439797c67fdd7643cabb,6103699ae74451882cc12807,2021-07-29_22h53.56.724,Simcolourproject_2stim_asymm_v5,2020.2.10,MacIntel,60,61025ae37ef11b136ea224fe,,,,,,,,,3048,-71,-28,1,0,0,response5disk,,2,-24,-5,1,0,0,rectangle,-24,-5,1,0,0,-24,-5,1,0,0,0,127,127,113,1,,,,,,,,
,,,,,,,,,,,,,FF,,,,,,,,0.815,,,,,,,,,,,,,,,,,,,,,,60fe439797c67fdd7643cabb,6103699ae74451882cc12807,2021-07-29_22h53.56.724,Simcolourproject_2stim_asymm_v5,2020.2.10,MacIntel,60,61025ae37ef11b136ea224fe,,,,,,,,,2966,41,77,1,0,0,response1disk,,7,-4,-4,1,0,0,rectangle,-4,-4,1,0,0,-4,-4,1,0,0,0,128,128,157,1,,,,,,,,
,,,,,,,,,,,,,FF,,,,,,,,0.949,,,,,,,,,,,,,,,,,,,,,,60fe439797c67fdd7643cabb,6103699ae74451882cc12807,2021-07-29_22h53.56.724,Simcolourproject_2stim_asymm_v5,2020.2.10,MacIntel,60,61025ae37ef11b136ea224fe,,,,,,,,,1131,-67,37,1,0,0,response7disk,,1,-8,0,1,0,0,rectangle,-8,0,1,0,0,-8,0,1,0,0,0,129,129,142,1,,,,,,,,
,,,,,,,,,,,,,FF,,,,,,,,1.317,,,,,,,,,,,,,,,,,,,,,,60fe439797c67fdd7643cabb,6103699ae74451882cc12807,2021-07-29_22h53.56.724,Simcolourproject_2stim_asymm_v5,2020.2.10,MacIntel,60,61025ae37ef11b136ea224fe,,,,,,,,,3333,-26,-59,1,0,0,response5disk,,3,-3,-3,1,0,0,rectangle,-3,-3,1,0,0,-3,-3,1,0,0,0,130,130,158,1,,,,,,,,
,,,,,,,,,,,,,FF,,,,,,,,2.333,,,,,,,,,,,,,,,,,,,,,,60fe439797c67fdd7643cabb,6103699ae74451882cc12807,2021-07-29_22h53.56.724,Simcolourproject_2stim_asymm_v5,2020.2.10,MacIntel,60,61025ae37ef11b136ea224fe,,,,,,,,,592,89,-40,1,0,0,response3disk,,5,4,0,1,0,0,rectangle,4,0,1,0,0,4,0,1,0,0,0,131,131,31,1,,,,,,,,
,,,,,,,,,,,,,FF,,,,,,,,1.416,,,,,,,,,,,,,,,,,,,,,,60fe439797c67fdd7643cabb,6103699ae74451882cc12807,2021-07-29_22h53.56.724,Simcolourproject_2stim_asymm_v5,2020.2.10,MacIntel,60,61025ae37ef11b136ea224fe,,,,,,,,,3745,-31,-92,1,0,0,response5disk,,3,-3,-1,1,0,0,rectangle,-3,-1,1,0,0,-3,-1,1,0,0,0,132,132,140,1,,,,,,,,
,,,,,,,,,,,,,FF,,,,,,,,1.334,,,,,,,,,,,,,,,,,,,,,,60fe439797c67fdd7643cabb,6103699ae74451882cc12807,2021-07-29_22h53.56.724,Simcolourproject_2stim_asymm_v5,2020.2.10,MacIntel,60,61025ae37ef11b136ea224fe,,,,,,,,,3452,81,-35,1,0,0,response3disk,,5,-7,-7,1,0,0,rectangle,-7,-7,1,0,0,-7,-7,1,0,0,0,133,133,22,1,,,,,,,,
,,,,,,,,,,,,,FF,,,,,,,,2.033,,,,,,,,,,,,,,,,,,,,,,60fe439797c67fdd7643cabb,6103699ae74451882cc12807,2021-07-29_22h53.56.724,Simcolourproject_2stim_asymm_v5,2020.2.10,MacIntel,60,61025ae37ef11b136ea224fe,,,,,,,,,18,28,-83,1,0,0,response3disk,,4,7,-6,1,0,0,rectangle,7,-6,1,0,0,7,-6,1,0,0,0,134,134,111,1,,,,,,,,
,,,,,,,,,,,,,FF,,,,,,,,2.402,,,,,,,,,,,,,,,,,,,,,,60fe439797c67fdd7643cabb,6103699ae74451882cc12807,2021-07-29_22h53.56.724,Simcolourproject_2stim_asymm_v5,2020.2.10,MacIntel,60,61025ae37ef11b136ea224fe,,,,,,,,,3613,53,31,1,0,0,response1disk,,6,-28,-9,1,0,0,rectangle,-28,-9,1,0,0,-28,-9,1,0,0,0,135,135,27,1,,,,,,,,
,,,,,,,,,,,,,FF,,,,,,,,2.666,,,,,,,,,,,,,,,,,,,,,,60fe439797c67fdd7643cabb,6103699ae74451882cc12807,2021-07-29_22h53.56.724,Simcolourproject_2stim_asymm_v5,2020.2.10,MacIntel,60,61025ae37ef11b136ea224fe,,,,,,,,,4220,49,-63,1,0,0,response3disk,,4,-2,0,1,0,0,rectangle,-2,0,1,0,0,-2,0,1,0,0,0,136,136,71,1,,,,,,,,
,,,,,,,,,,,,,FF,,,,,,,,1.433,,,,,,,,,,,,,,,,,,,,,,60fe439797c67fdd7643cabb,6103699ae74451882cc12807,2021-07-29_22h53.56.724,Simcolourproject_2stim_asymm_v5,2020.2.10,MacIntel,60,61025ae37ef11b136ea224fe,,,,,,,,,1793,26,58,1,0,0,response1disk,,7,9,-7,1,0,0,rectangle,9,-7,1,0,0,9,-7,1,0,0,0,137,137,63,1,,,,,,,,
,,,,,,,,,,,,,FF,,,,,,,,3.665,,,,,,,,,,,,,,,,,,,,,,60fe439797c67fdd7643cabb,6103699ae74451882cc12807,2021-07-29_22h53.56.724,Simcolourproject_2stim_asymm_v5,2020.2.10,MacIntel,60,61025ae37ef11b136ea224fe,,,,,,,,,882,49,28,1,0,0,response1disk,,6,9,-2,1,0,0,rectangle,9,-2,1,0,0,9,-2,1,0,0,0,138,138,72,1,,,,,,,,
,,,,,,,,,,,,,FF,,,,,,,,1.949,,,,,,,,,,,,,,,,,,,,,,60fe439797c67fdd7643cabb,6103699ae74451882cc12807,2021-07-29_22h53.56.724,Simcolourproject_2stim_asymm_v5,2020.2.10,MacIntel,60,61025ae37ef11b136ea224fe,,,,,,,,,63,-19,-58,1,0,0,response5disk,,3,1,-9,1,0,0,rectangle,1,-9,1,0,0,1,-9,1,0,0,0,139,139,47,1,,,,,,,,
,,,,,,,,,,,,,FF,,,,,,,,0.833,,,,,,,,,,,,,,,,,,,,,,60fe439797c67fdd7643cabb,6103699ae74451882cc12807,2021-07-29_22h53.56.724,Simcolourproject_2stim_asymm_v5,2020.2.10,MacIntel,60,61025ae37ef11b136ea224fe,,,,,,,,,64,39,57,1,0,0,response1disk,,7,10,-4,1,0,0,rectangle,10,-4,1,0,0,10,-4,1,0,0,0,140,140,4,1,,,,,,,,
,,,,,,,,,,,,,FF,,,,,,,,1.15,,,,,,,,,,,,,,,,,,,,,,60fe439797c67fdd7643cabb,6103699ae74451882cc12807,2021-07-29_22h53.56.724,Simcolourproject_2stim_asymm_v5,2020.2.10,MacIntel,60,61025ae37ef11b136ea224fe,,,,,,,,,4365,-67,38,1,0,0,response7disk,,1,-6,-2,1,0,0,rectangle,-6,-2,1,0,0,-6,-2,1,0,0,0,141,141,96,1,,,,,,,,
,,,,,,,,,,,,,FF,,,,,,,,1.783,,,,,,,,,,,,,,,,,,,,,,60fe439797c67fdd7643cabb,6103699ae74451882cc12807,2021-07-29_22h53.56.724,Simcolourproject_2stim_asymm_v5,2020.2.10,MacIntel,60,61025ae37ef11b136ea224fe,,,,,,,,,3599,-72,37,1,0,0,response7disk,,1,-10,0,1,0,0,rectangle,-10,0,1,0,0,-10,0,1,0,0,0,142,142,34,1,,,,,,,,
,,,,,,,,,,,,,FF,,,,,,,,6.116,,,,,,,,,,,,,,,,,,,,,,60fe439797c67fdd7643cabb,6103699ae74451882cc12807,2021-07-29_22h53.56.724,Simcolourproject_2stim_asymm_v5,2020.2.10,MacIntel,60,61025ae37ef11b136ea224fe,,,,,,,,,47,46,81,1,0,0,response1disk,,7,-14,-6,1,0,0,rectangle,-14,-6,1,0,0,-14,-6,1,0,0,0,143,143,23,1,,,,,,,,
,,,,,,,,,,,,,FF,,,,,,,,0.7,,,,,,,,,,,,,,,,,,,,,,60fe439797c67fdd7643cabb,6103699ae74451882cc12807,2021-07-29_22h53.56.724,Simcolourproject_2stim_asymm_v5,2020.2.10,MacIntel,60,61025ae37ef11b136ea224fe,,,,,,,,,2766,31,78,1,0,0,response1disk,,7,-1,1,1,0,0,rectangle,-1,1,1,0,0,-1,1,1,0,0,0,144,144,46,1,,,,,,,,
,,,,,,,,,,,,,FF,,,,,,,,0.833,,,,,,,,,,,,,,,,,,,,,,60fe439797c67fdd7643cabb,6103699ae74451882cc12807,2021-07-29_22h53.56.724,Simcolourproject_2stim_asymm_v5,2020.2.10,MacIntel,60,61025ae37ef11b136ea224fe,,,,,,,,,950,38,82,1,0,0,response1disk,,7,11,15,1,0,0,rectangle,11,15,1,0,0,11,15,1,0,0,0,145,145,88,1,,,,,,,,
,,,,,,,,,,,,,FF,,,,,,,,0.584,,,,,,,,,,,,,,,,,,,,,,60fe439797c67fdd7643cabb,6103699ae74451882cc12807,2021-07-29_22h53.56.724,Simcolourproject_2stim_asymm_v5,2020.2.10,MacIntel,60,61025ae37ef11b136ea224fe,,,,,,,,,330,40,87,1,0,0,response1disk,,7,6,11,1,0,0,rectangle,6,11,1,0,0,6,11,1,0,0,0,146,146,9,1,,,,,,,,
,,,,,,,,,,,,,FF,,,,,,,,1.8,,,,,,,,,,,,,,,,,,,,,,60fe439797c67fdd7643cabb,6103699ae74451882cc12807,2021-07-29_22h53.56.724,Simcolourproject_2stim_asymm_v5,2020.2.10,MacIntel,60,61025ae37ef11b136ea224fe,,,,,,,,,1064,-38,-56,1,0,0,response5disk,,3,-10,0,1,0,0,rectangle,-10,0,1,0,0,-10,0,1,0,0,0,147,147,11,1,,,,,,,,
,,,,,,,,,,,,,FF,,,,,,,,1.766,,,,,,,,,,,,,,,,,,,,,,60fe439797c67fdd7643cabb,6103699ae74451882cc12807,2021-07-29_22h53.56.724,Simcolourproject_2stim_asymm_v5,2020.2.10,MacIntel,60,61025ae37ef11b136ea224fe,,,,,,,,,1965,-75,-26,1,0,0,response5disk,,2,-18,-7,1,0,0,rectangle,-18,-7,1,0,0,-18,-7,1,0,0,0,148,148,97,1,,,,,,,,
,,,,,,,,,,,,,FF,,,,,,,,0.9,,,,,,,,,,,,,,,,,,,,,,60fe439797c67fdd7643cabb,6103699ae74451882cc12807,2021-07-29_22h53.56.724,Simcolourproject_2stim_asymm_v5,2020.2.10,MacIntel,60,61025ae37ef11b136ea224fe,,,,,,,,,3412,29,73,1,0,0,response1disk,,7,11,8,1,0,0,rectangle,11,8,1,0,0,11,8,1,0,0,0,149,149,81,1,,,,,,,,
,,,,,,,,,,,,,FF,,,,,,,,2.882,,,,,,,,,,,,,,,,,,,,,,60fe439797c67fdd7643cabb,6103699ae74451882cc12807,2021-07-29_22h53.56.724,Simcolourproject_2stim_asymm_v5,2020.2.10,MacIntel,60,61025ae37ef11b136ea224fe,,,,,,,,,3165,42,-20,1,0,0,response3disk,,5,7,6,1,0,0,rectangle,7,6,1,0,0,7,6,1,0,0,0,150,150,126,1,,,,,,,,
,,,,,,,,,,,,,FF,,,,,,,,3.048,,,,,,,,,,,,,,,,,,,,,,60fe439797c67fdd7643cabb,6103699ae74451882cc12807,2021-07-29_22h53.56.724,Simcolourproject_2stim_asymm_v5,2020.2.10,MacIntel,60,61025ae37ef11b136ea224fe,,,,,,,,,2214,72,-31,1,0,0,response3disk,,5,14,3,1,0,0,rectangle,14,3,1,0,0,14,3,1,0,0,0,151,151,43,1,,,,,,,,
,,,,,,,,,,,,,FF,,,,,,,,0.95,,,,,,,,,,,,,,,,,,,,,,60fe439797c67fdd7643cabb,6103699ae74451882cc12807,2021-07-29_22h53.56.724,Simcolourproject_2stim_asymm_v5,2020.2.10,MacIntel,60,61025ae37ef11b136ea224fe,,,,,,,,,2987,-39,-63,1,0,0,response5disk,,3,16,-10,1,0,0,rectangle,16,-10,1,0,0,16,-10,1,0,0,0,152,152,56,1,,,,,,,,
,,,,,,,,,,,,,FF,,,,,,,,2.783,,,,,,,,,,,,,,,,,,,,,,60fe439797c67fdd7643cabb,6103699ae74451882cc12807,2021-07-29_22h53.56.724,Simcolourproject_2stim_asymm_v5,2020.2.10,MacIntel,60,61025ae37ef11b136ea224fe,,,,,,,,,4235,41,-24,1,0,0,response3disk,,5,5,0,1,0,0,rectangle,5,0,1,0,0,5,0,1,0,0,0,153,153,19,1,,,,,,,,
,,,,,,,,,,,,,FF,,,,,,,,2.35,,,,,,,,,,,,,,,,,,,,,,60fe439797c67fdd7643cabb,6103699ae74451882cc12807,2021-07-29_22h53.56.724,Simcolourproject_2stim_asymm_v5,2020.2.10,MacIntel,60,61025ae37ef11b136ea224fe,,,,,,,,,1436,51,30,1,0,0,response1disk,,6,-2,1,1,0,0,rectangle,-2,1,1,0,0,-2,1,1,0,0,0,154,154,68,1,,,,,,,,
,,,,,,,,,,,,,FF,,,,,,,,1.217,,,,,,,,,,,,,,,,,,,,,,60fe439797c67fdd7643cabb,6103699ae74451882cc12807,2021-07-29_22h53.56.724,Simcolourproject_2stim_asymm_v5,2020.2.10,MacIntel,60,61025ae37ef11b136ea224fe,,,,,,,,,3662,-85,-33,1,0,0,response5disk,,2,-4,-2,1,0,0,rectangle,-4,-2,1,0,0,-4,-2,1,0,0,0,155,155,50,1,,,,,,,,
,,,,,,,,,,,,,FF,,,,,,,,1.551,,,,,,,,,,,,,,,,,,,,,,60fe439797c67fdd7643cabb,6103699ae74451882cc12807,2021-07-29_22h53.56.724,Simcolourproject_2stim_asymm_v5,2020.2.10,MacIntel,60,61025ae37ef11b136ea224fe,,,,,,,,,4318,58,-34,1,0,0,response3disk,,5,6,-8,1,0,0,rectangle,6,-8,1,0,0,6,-8,1,0,0,0,156,156,127,1,,,,,,,,
,,,,,,,,,,,,,FF,,,,,,,,2.867,,,,,,,,,,,,,,,,,,,,,,60fe439797c67fdd7643cabb,6103699ae74451882cc12807,2021-07-29_22h53.56.724,Simcolourproject_2stim_asymm_v5,2020.2.10,MacIntel,60,61025ae37ef11b136ea224fe,,,,,,,,,2438,33,94,1,0,0,response1disk,,7,10,2,1,0,0,rectangle,10,2,1,0,0,10,2,1,0,0,0,157,157,124,1,,,,,,,,
,,,,,,,,,,,,,FF,,,,,,,,1.232,,,,,,,,,,,,,,,,,,,,,,60fe439797c67fdd7643cabb,6103699ae74451882cc12807,2021-07-29_22h53.56.724,Simcolourproject_2stim_asymm_v5,2020.2.10,MacIntel,60,61025ae37ef11b136ea224fe,,,,,,,,,476,-24,-104,1,0,0,response5disk,,3,-1,-5,1,0,0,rectangle,-1,-5,1,0,0,-1,-5,1,0,0,0,158,158,136,1,,,,,,,,
,,,,,,,,,,,,,FF,,,,,,,,3.233,,,,,,,,,,,,,,,,,,,,,,60fe439797c67fdd7643cabb,6103699ae74451882cc12807,2021-07-29_22h53.56.724,Simcolourproject_2stim_asymm_v5,2020.2.10,MacIntel,60,61025ae37ef11b136ea224fe,,,,,,,,,1703,25,-69,1,0,0,response3disk,,4,15,15,1,0,0,rectangle,15,15,1,0,0,15,15,1,0,0,0,159,159,91,1,,,,,,,,
,,,,,,,,,,,,,FF,,,,,,,,4.916,,,,,,,,,,,,,,,,,,,,,,60fe439797c67fdd7643cabb,6103699ae74451882cc12807,2021-07-29_22h53.56.724,Simcolourproject_2stim_asymm_v5,2020.2.10,MacIntel,60,61025ae37ef11b136ea224fe,,,,,,,,,3255,63,-44,1,0,0,response3disk,,5,-6,-3,1,0,0,rectangle,-95,44,1,0,0,-3,-4,1,0,0,1,0,160,48,1,,response7disk_3,TRUE,1,1,"[174,119,34,271,317,163,161,312,218,211,39,83,252,114,62,238,197,178,51,100]",2.082,rectangle
,,,,,,,,,,,,,FF,,,,,,,,0.966,,,,,,,,,,,,,,,,,,,,,,60fe439797c67fdd7643cabb,6103699ae74451882cc12807,2021-07-29_22h53.56.724,Simcolourproject_2stim_asymm_v5,2020.2.10,MacIntel,60,61025ae37ef11b136ea224fe,,,,,,,,,4289,35,70,1,0,0,response1disk,,7,-1,-8,1,0,0,rectangle,-1,-8,1,0,0,-1,-8,1,0,0,1,1,161,104,1,,,,,,,,
,,,,,,,,,,,,,FF,,,,,,,,9.683,,,,,,,,,,,,,,,,,,,,,,60fe439797c67fdd7643cabb,6103699ae74451882cc12807,2021-07-29_22h53.56.724,Simcolourproject_2stim_asymm_v5,2020.2.10,MacIntel,60,61025ae37ef11b136ea224fe,,,,,,,,,3266,-29,-102,1,0,0,response5disk,,3,-4,2,1,0,0,rectangle,93,50,1,0,0,7,8,1,0,0,1,2,162,106,1,,response1disk_3,TRUE,6,6,"[174,119,34,271,317,163,161,312,218,211,39,83,252,114,62,238,197,178,51,100]",2.383,rectangle
,,,,,,,,,,,,,FF,,,,,,,,2.183,,,,,,,,,,,,,,,,,,,,,,60fe439797c67fdd7643cabb,6103699ae74451882cc12807,2021-07-29_22h53.56.724,Simcolourproject_2stim_asymm_v5,2020.2.10,MacIntel,60,61025ae37ef11b136ea224fe,,,,,,,,,3518,-80,-42,1,0,0,response5disk,,2,-1,4,1,0,0,rectangle,-1,4,1,0,0,-1,4,1,0,0,1,3,163,124,1,,,,,,,,
,,,,,,,,,,,,,FF,,,,,,,,5.233,,,,,,,,,,,,,,,,,,,,,,60fe439797c67fdd7643cabb,6103699ae74451882cc12807,2021-07-29_22h53.56.724,Simcolourproject_2stim_asymm_v5,2020.2.10,MacIntel,60,61025ae37ef11b136ea224fe,,,,,,,,,2327,72,33,1,0,0,response1disk,,6,-9,-5,1,0,0,rectangle,-9,-5,1,0,0,-9,-5,1,0,0,1,4,164,85,1,,,,,,,,
,,,,,,,,,,,,,FF,,,,,,,,1.183,,,,,,,,,,,,,,,,,,,,,,60fe439797c67fdd7643cabb,6103699ae74451882cc12807,2021-07-29_22h53.56.724,Simcolourproject_2stim_asymm_v5,2020.2.10,MacIntel,60,61025ae37ef11b136ea224fe,,,,,,,,,1680,-29,-60,1,0,0,response5disk,,3,5,0,1,0,0,rectangle,5,0,1,0,0,5,0,1,0,0,1,5,165,82,1,,,,,,,,
,,,,,,,,,,,,,FF,,,,,,,,1.266,,,,,,,,,,,,,,,,,,,,,,60fe439797c67fdd7643cabb,6103699ae74451882cc12807,2021-07-29_22h53.56.724,Simcolourproject_2stim_asymm_v5,2020.2.10,MacIntel,60,61025ae37ef11b136ea224fe,,,,,,,,,1441,32,-76,1,0,0,response3disk,,4,2,3,1,0,0,rectangle,2,3,1,0,0,2,3,1,0,0,1,6,166,2,1,,,,,,,,
,,,,,,,,,,,,,FF,,,,,,,,0.917,,,,,,,,,,,,,,,,,,,,,,60fe439797c67fdd7643cabb,6103699ae74451882cc12807,2021-07-29_22h53.56.724,Simcolourproject_2stim_asymm_v5,2020.2.10,MacIntel,60,61025ae37ef11b136ea224fe,,,,,,,,,1182,36,52,1,0,0,response1disk,,7,6,-5,1,0,0,rectangle,6,-5,1,0,0,6,-5,1,0,0,1,7,167,119,1,,,,,,,,
,,,,,,,,,,,,,FF,,,,,,,,1.2,,,,,,,,,,,,,,,,,,,,,,60fe439797c67fdd7643cabb,6103699ae74451882cc12807,2021-07-29_22h53.56.724,Simcolourproject_2stim_asymm_v5,2020.2.10,MacIntel,60,61025ae37ef11b136ea224fe,,,,,,,,,772,64,31,1,0,0,response1disk,,6,0,8,1,0,0,rectangle,0,8,1,0,0,0,8,1,0,0,1,8,168,5,1,,,,,,,,
,,,,,,,,,,,,,FF,,,,,,,,1.316,,,,,,,,,,,,,,,,,,,,,,60fe439797c67fdd7643cabb,6103699ae74451882cc12807,2021-07-29_22h53.56.724,Simcolourproject_2stim_asymm_v5,2020.2.10,MacIntel,60,61025ae37ef11b136ea224fe,,,,,,,,,458,-36,-61,1,0,0,response5disk,,3,-13,-2,1,0,0,rectangle,-13,-2,1,0,0,-13,-2,1,0,0,1,9,169,88,1,,,,,,,,
,,,,,,,,,,,,,FF,,,,,,,,1.699,,,,,,,,,,,,,,,,,,,,,,60fe439797c67fdd7643cabb,6103699ae74451882cc12807,2021-07-29_22h53.56.724,Simcolourproject_2stim_asymm_v5,2020.2.10,MacIntel,60,61025ae37ef11b136ea224fe,,,,,,,,,411,81,32,1,0,0,response1disk,,6,0,-6,1,0,0,rectangle,0,-6,1,0,0,0,-6,1,0,0,1,10,170,67,1,,,,,,,,
,,,,,,,,,,,,,FF,,,,,,,,2.466,,,,,,,,,,,,,,,,,,,,,,60fe439797c67fdd7643cabb,6103699ae74451882cc12807,2021-07-29_22h53.56.724,Simcolourproject_2stim_asymm_v5,2020.2.10,MacIntel,60,61025ae37ef11b136ea224fe,,,,,,,,,1569,51,86,1,0,0,response1disk,,7,-1,-4,1,0,0,rectangle,-1,-4,1,0,0,-1,-4,1,0,0,1,11,171,50,1,,,,,,,,
,,,,,,,,,,,,,FF,,,,,,,,1.433,,,,,,,,,,,,,,,,,,,,,,60fe439797c67fdd7643cabb,6103699ae74451882cc12807,2021-07-29_22h53.56.724,Simcolourproject_2stim_asymm_v5,2020.2.10,MacIntel,60,61025ae37ef11b136ea224fe,,,,,,,,,3251,-62,-25,1,0,0,response5disk,,2,4,-6,1,0,0,rectangle,4,-6,1,0,0,4,-6,1,0,0,1,12,172,98,1,,,,,,,,
,,,,,,,,,,,,,FF,,,,,,,,1.149,,,,,,,,,,,,,,,,,,,,,,60fe439797c67fdd7643cabb,6103699ae74451882cc12807,2021-07-29_22h53.56.724,Simcolourproject_2stim_asymm_v5,2020.2.10,MacIntel,60,61025ae37ef11b136ea224fe,,,,,,,,,1775,33,-78,1,0,0,response3disk,,4,11,-12,1,0,0,rectangle,-82,-31,1,0,0,7,-4,1,0,0,1,13,173,127,1,,response5disk_3,TRUE,2,2,"[174,119,34,271,317,163,161,312,218,211,39,83,252,114,62,238,197,178,51,100]",1.748,rectangle
,,,,,,,,,,,,,FF,,,,,,,,2.749,,,,,,,,,,,,,,,,,,,,,,60fe439797c67fdd7643cabb,6103699ae74451882cc12807,2021-07-29_22h53.56.724,Simcolourproject_2stim_asymm_v5,2020.2.10,MacIntel,60,61025ae37ef11b136ea224fe,,,,,,,,,2171,-26,-99,1,0,0,response5disk,,3,-1,-2,1,0,0,rectangle,-1,-2,1,0,0,-1,-2,1,0,0,1,14,174,132,1,,,,,,,,
,,,,,,,,,,,,,FF,,,,,,,,1.234,,,,,,,,,,,,,,,,,,,,,,60fe439797c67fdd7643cabb,6103699ae74451882cc12807,2021-07-29_22h53.56.724,Simcolourproject_2stim_asymm_v5,2020.2.10,MacIntel,60,61025ae37ef11b136ea224fe,,,,,,,,,1997,60,-34,1,0,0,response3disk,,5,2,2,1,0,0,rectangle,2,2,1,0,0,2,2,1,0,0,1,15,175,47,1,,,,,,,,
,,,,,,,,,,,,,FF,,,,,,,,2.9,,,,,,,,,,,,,,,,,,,,,,60fe439797c67fdd7643cabb,6103699ae74451882cc12807,2021-07-29_22h53.56.724,Simcolourproject_2stim_asymm_v5,2020.2.10,MacIntel,60,61025ae37ef11b136ea224fe,,,,,,,,,2442,40,-99,1,0,0,response3disk,,4,2,-7,1,0,0,rectangle,2,-7,1,0,0,2,-7,1,0,0,1,16,176,89,1,,,,,,,,
,,,,,,,,,,,,,FF,,,,,,,,1.234,,,,,,,,,,,,,,,,,,,,,,60fe439797c67fdd7643cabb,6103699ae74451882cc12807,2021-07-29_22h53.56.724,Simcolourproject_2stim_asymm_v5,2020.2.10,MacIntel,60,61025ae37ef11b136ea224fe,,,,,,,,,2139,69,33,1,0,0,response1disk,,6,3,4,1,0,0,rectangle,54,-109,1,0,0,-17,-8,1,0,0,1,17,177,44,1,,response3disk_3,TRUE,4,4,"[174,119,34,271,317,163,161,312,218,211,39,83,252,114,62,238,197,178,51,100]",1.748,rectangle
,,,,,,,,,,,,,FF,,,,,,,,1.666,,,,,,,,,,,,,,,,,,,,,,60fe439797c67fdd7643cabb,6103699ae74451882cc12807,2021-07-29_22h53.56.724,Simcolourproject_2stim_asymm_v5,2020.2.10,MacIntel,60,61025ae37ef11b136ea224fe,,,,,,,,,1508,43,40,1,0,0,response1disk,,6,-2,-1,1,0,0,rectangle,-2,-1,1,0,0,-2,-1,1,0,0,1,18,178,133,1,,,,,,,,
,,,,,,,,,,,,,FF,,,,,,,,4.601,,,,,,,,,,,,,,,,,,,,,,60fe439797c67fdd7643cabb,6103699ae74451882cc12807,2021-07-29_22h53.56.724,Simcolourproject_2stim_asymm_v5,2020.2.10,MacIntel,60,61025ae37ef11b136ea224fe,,,,,,,,,3930,64,29,1,0,0,response1disk,,6,6,-1,1,0,0,rectangle,6,-1,1,0,0,6,-1,1,0,0,1,19,179,100,1,,,,,,,,
,,,,,,,,,,,,,FF,,,,,,,,1.599,,,,,,,,,,,,,,,,,,,,,,60fe439797c67fdd7643cabb,6103699ae74451882cc12807,2021-07-29_22h53.56.724,Simcolourproject_2stim_asymm_v5,2020.2.10,MacIntel,60,61025ae37ef11b136ea224fe,,,,,,,,,2243,-36,-80,1,0,0,response5disk,,3,4,-3,1,0,0,rectangle,4,-3,1,0,0,4,-3,1,0,0,1,20,180,46,1,,,,,,,,
,,,,,,,,,,,,,FF,,,,,,,,1.083,,,,,,,,,,,,,,,,,,,,,,60fe439797c67fdd7643cabb,6103699ae74451882cc12807,2021-07-29_22h53.56.724,Simcolourproject_2stim_asymm_v5,2020.2.10,MacIntel,60,61025ae37ef11b136ea224fe,,,,,,,,,4366,-72,-31,1,0,0,response5disk,,2,-6,4,1,0,0,rectangle,-6,4,1,0,0,-6,4,1,0,0,1,21,181,26,1,,,,,,,,
,,,,,,,,,,,,,FF,,,,,,,,1.299,,,,,,,,,,,,,,,,,,,,,,60fe439797c67fdd7643cabb,6103699ae74451882cc12807,2021-07-29_22h53.56.724,Simcolourproject_2stim_asymm_v5,2020.2.10,MacIntel,60,61025ae37ef11b136ea224fe,,,,,,,,,3836,-65,-37,1,0,0,response5disk,,2,-2,0,1,0,0,rectangle,-2,0,1,0,0,-2,0,1,0,0,1,22,182,29,1,,,,,,,,
,,,,,,,,,,,,,FF,,,,,,,,1.666,,,,,,,,,,,,,,,,,,,,,,60fe439797c67fdd7643cabb,6103699ae74451882cc12807,2021-07-29_22h53.56.724,Simcolourproject_2stim_asymm_v5,2020.2.10,MacIntel,60,61025ae37ef11b136ea224fe,,,,,,,,,2609,-41,-63,1,0,0,response5disk,,3,6,11,1,0,0,rectangle,6,11,1,0,0,6,11,1,0,0,1,23,183,113,1,,,,,,,,
,,,,,,,,,,,,,FF,,,,,,,,2.234,,,,,,,,,,,,,,,,,,,,,,60fe439797c67fdd7643cabb,6103699ae74451882cc12807,2021-07-29_22h53.56.724,Simcolourproject_2stim_asymm_v5,2020.2.10,MacIntel,60,61025ae37ef11b136ea224fe,,,,,,,,,942,96,63,1,0,0,response1disk,,6,2,7,1,0,0,rectangle,2,7,1,0,0,2,7,1,0,0,1,24,184,87,1,,,,,,,,
,,,,,,,,,,,,,FF,,,,,,,,1.95,,,,,,,,,,,,,,,,,,,,,,60fe439797c67fdd7643cabb,6103699ae74451882cc12807,2021-07-29_22h53.56.724,Simcolourproject_2stim_asymm_v5,2020.2.10,MacIntel,60,61025ae37ef11b136ea224fe,,,,,,,,,1987,60,-25,1,0,0,response3disk,,5,12,4,1,0,0,rectangle,12,4,1,0,0,12,4,1,0,0,1,25,185,9,1,,,,,,,,
,,,,,,,,,,,,,FF,,,,,,,,1.85,,,,,,,,,,,,,,,,,,,,,,60fe439797c67fdd7643cabb,6103699ae74451882cc12807,2021-07-29_22h53.56.724,Simcolourproject_2stim_asymm_v5,2020.2.10,MacIntel,60,61025ae37ef11b136ea224fe,,,,,,,,,554,29,-123,1,0,0,response3disk,,4,4,-7,1,0,0,rectangle,4,-7,1,0,0,4,-7,1,0,0,1,26,186,42,1,,,,,,,,
,,,,,,,,,,,,,FF,,,,,,,,2.199,,,,,,,,,,,,,,,,,,,,,,60fe439797c67fdd7643cabb,6103699ae74451882cc12807,2021-07-29_22h53.56.724,Simcolourproject_2stim_asymm_v5,2020.2.10,MacIntel,60,61025ae37ef11b136ea224fe,,,,,,,,,249,40,74,1,0,0,response1disk,,7,-2,-6,1,0,0,rectangle,-2,-6,1,0,0,-2,-6,1,0,0,1,27,187,38,1,,,,,,,,
,,,,,,,,,,,,,FF,,,,,,,,1.983,,,,,,,,,,,,,,,,,,,,,,60fe439797c67fdd7643cabb,6103699ae74451882cc12807,2021-07-29_22h53.56.724,Simcolourproject_2stim_asymm_v5,2020.2.10,MacIntel,60,61025ae37ef11b136ea224fe,,,,,,,,,30,77,27,1,0,0,response1disk,,6,2,12,1,0,0,rectangle,2,12,1,0,0,2,12,1,0,0,1,28,188,6,1,,,,,,,,
,,,,,,,,,,,,,FF,,,,,,,,1.766,,,,,,,,,,,,,,,,,,,,,,60fe439797c67fdd7643cabb,6103699ae74451882cc12807,2021-07-29_22h53.56.724,Simcolourproject_2stim_asymm_v5,2020.2.10,MacIntel,60,61025ae37ef11b136ea224fe,,,,,,,,,3061,52,-105,1,0,0,response3disk,,4,11,-5,1,0,0,rectangle,11,-5,1,0,0,11,-5,1,0,0,1,29,189,147,1,,,,,,,,
,,,,,,,,,,,,,FF,,,,,,,,4.2,,,,,,,,,,,,,,,,,,,,,,60fe439797c67fdd7643cabb,6103699ae74451882cc12807,2021-07-29_22h53.56.724,Simcolourproject_2stim_asymm_v5,2020.2.10,MacIntel,60,61025ae37ef11b136ea224fe,,,,,,,,,2957,-30,-56,1,0,0,response5disk,,3,-2,-2,1,0,0,rectangle,-2,-2,1,0,0,-2,-2,1,0,0,1,30,190,32,1,,,,,,,,
,,,,,,,,,,,,,FF,,,,,,,,4.068,,,,,,,,,,,,,,,,,,,,,,60fe439797c67fdd7643cabb,6103699ae74451882cc12807,2021-07-29_22h53.56.724,Simcolourproject_2stim_asymm_v5,2020.2.10,MacIntel,60,61025ae37ef11b136ea224fe,,,,,,,,,2436,58,48,1,0,0,response1disk,,6,-2,8,1,0,0,rectangle,-2,8,1,0,0,-2,8,1,0,0,1,31,191,37,1,,,,,,,,
,,,,,,,,,,,,,FF,,,,,,,,1.383,,,,,,,,,,,,,,,,,,,,,,60fe439797c67fdd7643cabb,6103699ae74451882cc12807,2021-07-29_22h53.56.724,Simcolourproject_2stim_asymm_v5,2020.2.10,MacIntel,60,61025ae37ef11b136ea224fe,,,,,,,,,1255,67,114,1,0,0,response1disk,,7,-2,-2,1,0,0,rectangle,-2,-2,1,0,0,-2,-2,1,0,0,1,32,192,56,1,,,,,,,,
,,,,,,,,,,,,,FF,,,,,,,,0.883,,,,,,,,,,,,,,,,,,,,,,60fe439797c67fdd7643cabb,6103699ae74451882cc12807,2021-07-29_22h53.56.724,Simcolourproject_2stim_asymm_v5,2020.2.10,MacIntel,60,61025ae37ef11b136ea224fe,,,,,,,,,1041,35,81,1,0,0,response1disk,,7,0,0,1,0,0,rectangle,0,0,1,0,0,0,0,1,0,0,1,33,193,79,1,,,,,,,,
,,,,,,,,,,,,,FF,,,,,,,,2.468,,,,,,,,,,,,,,,,,,,,,,60fe439797c67fdd7643cabb,6103699ae74451882cc12807,2021-07-29_22h53.56.724,Simcolourproject_2stim_asymm_v5,2020.2.10,MacIntel,60,61025ae37ef11b136ea224fe,,,,,,,,,2477,102,70,1,0,0,response1disk,,6,-1,5,1,0,0,rectangle,-1,5,1,0,0,-1,5,1,0,0,1,34,194,74,1,,,,,,,,
,,,,,,,,,,,,,FF,,,,,,,,0.816,,,,,,,,,,,,,,,,,,,,,,60fe439797c67fdd7643cabb,6103699ae74451882cc12807,2021-07-29_22h53.56.724,Simcolourproject_2stim_asymm_v5,2020.2.10,MacIntel,60,61025ae37ef11b136ea224fe,,,,,,,,,4329,42,116,1,0,0,response1disk,,7,-3,-4,1,0,0,rectangle,-3,-4,1,0,0,-3,-4,1,0,0,1,35,195,120,1,,,,,,,,
,,,,,,,,,,,,,FF,,,,,,,,1.917,,,,,,,,,,,,,,,,,,,,,,60fe439797c67fdd7643cabb,6103699ae74451882cc12807,2021-07-29_22h53.56.724,Simcolourproject_2stim_asymm_v5,2020.2.10,MacIntel,60,61025ae37ef11b136ea224fe,,,,,,,,,417,63,21,1,0,0,response1disk,,6,-1,-1,1,0,0,rectangle,-78,33,1,0,0,2,1,1,0,0,1,36,196,75,1,,response7disk_3,TRUE,1,1,"[174,119,34,271,317,163,161,312,218,211,39,83,252,114,62,238,197,178,51,100]",1.815,rectangle
,,,,,,,,,,,,,FF,,,,,,,,3.95,,,,,,,,,,,,,,,,,,,,,,60fe439797c67fdd7643cabb,6103699ae74451882cc12807,2021-07-29_22h53.56.724,Simcolourproject_2stim_asymm_v5,2020.2.10,MacIntel,60,61025ae37ef11b136ea224fe,,,,,,,,,92,34,104,1,0,0,response1disk,,7,-4,-4,1,0,0,rectangle,-4,-4,1,0,0,-4,-4,1,0,0,1,37,197,105,1,,,,,,,,
,,,,,,,,,,,,,FF,,,,,,,,3.35,,,,,,,,,,,,,,,,,,,,,,60fe439797c67fdd7643cabb,6103699ae74451882cc12807,2021-07-29_22h53.56.724,Simcolourproject_2stim_asymm_v5,2020.2.10,MacIntel,60,61025ae37ef11b136ea224fe,,,,,,,,,2223,59,-28,1,0,0,response3disk,,5,-3,0,1,0,0,rectangle,-3,0,1,0,0,-3,0,1,0,0,1,38,198,30,1,,,,,,,,
,,,,,,,,,,,,,FF,,,,,,,,1.717,,,,,,,,,,,,,,,,,,,,,,60fe439797c67fdd7643cabb,6103699ae74451882cc12807,2021-07-29_22h53.56.724,Simcolourproject_2stim_asymm_v5,2020.2.10,MacIntel,60,61025ae37ef11b136ea224fe,,,,,,,,,3188,-55,-77,1,0,0,response5disk,,3,2,6,1,0,0,rectangle,2,6,1,0,0,2,6,1,0,0,1,39,199,70,1,,,,,,,,
,,,,,,,,,,,,,FF,,,,,,,,1.2,,,,,,,,,,,,,,,,,,,,,,60fe439797c67fdd7643cabb,6103699ae74451882cc12807,2021-07-29_22h53.56.724,Simcolourproject_2stim_asymm_v5,2020.2.10,MacIntel,60,61025ae37ef11b136ea224fe,,,,,,,,,3597,-47,-82,1,0,0,response5disk,,3,1,-1,1,0,0,rectangle,1,-1,1,0,0,1,-1,1,0,0,1,40,200,51,1,,,,,,,,
,,,,,,,,,,,,,FF,,,,,,,,1.266,,,,,,,,,,,,,,,,,,,,,,60fe439797c67fdd7643cabb,6103699ae74451882cc12807,2021-07-29_22h53.56.724,Simcolourproject_2stim_asymm_v5,2020.2.10,MacIntel,60,61025ae37ef11b136ea224fe,,,,,,,,,3286,36,-57,1,0,0,response3disk,,4,1,5,1,0,0,rectangle,1,5,1,0,0,1,5,1,0,0,1,41,201,156,1,,,,,,,,
,,,,,,,,,,,,,FF,,,,,,,,1.583,,,,,,,,,,,,,,,,,,,,,,60fe439797c67fdd7643cabb,6103699ae74451882cc12807,2021-07-29_22h53.56.724,Simcolourproject_2stim_asymm_v5,2020.2.10,MacIntel,60,61025ae37ef11b136ea224fe,,,,,,,,,972,-30,-72,1,0,0,response5disk,,3,-4,-2,1,0,0,rectangle,-4,-2,1,0,0,-4,-2,1,0,0,1,42,202,55,1,,,,,,,,
,,,,,,,,,,,,,FF,,,,,,,,2.733,,,,,,,,,,,,,,,,,,,,,,60fe439797c67fdd7643cabb,6103699ae74451882cc12807,2021-07-29_22h53.56.724,Simcolourproject_2stim_asymm_v5,2020.2.10,MacIntel,60,61025ae37ef11b136ea224fe,,,,,,,,,1759,-41,-104,1,0,0,response5disk,,3,3,-2,1,0,0,rectangle,3,-2,1,0,0,3,-2,1,0,0,1,43,203,125,1,,,,,,,,
,,,,,,,,,,,,,FF,,,,,,,,1.483,,,,,,,,,,,,,,,,,,,,,,60fe439797c67fdd7643cabb,6103699ae74451882cc12807,2021-07-29_22h53.56.724,Simcolourproject_2stim_asymm_v5,2020.2.10,MacIntel,60,61025ae37ef11b136ea224fe,,,,,,,,,2856,58,-30,1,0,0,response3disk,,5,-2,7,1,0,0,rectangle,-2,7,1,0,0,-2,7,1,0,0,1,44,204,155,1,,,,,,,,
,,,,,,,,,,,,,FF,,,,,,,,1.949,,,,,,,,,,,,,,,,,,,,,,60fe439797c67fdd7643cabb,6103699ae74451882cc12807,2021-07-29_22h53.56.724,Simcolourproject_2stim_asymm_v5,2020.2.10,MacIntel,60,61025ae37ef11b136ea224fe,,,,,,,,,1346,44,70,1,0,0,response1disk,,7,-3,8,1,0,0,rectangle,-3,8,1,0,0,-3,8,1,0,0,1,45,205,81,1,,,,,,,,
,,,,,,,,,,,,,FF,,,,,,,,2.101,,,,,,,,,,,,,,,,,,,,,,60fe439797c67fdd7643cabb,6103699ae74451882cc12807,2021-07-29_22h53.56.724,Simcolourproject_2stim_asymm_v5,2020.2.10,MacIntel,60,61025ae37ef11b136ea224fe,,,,,,,,,2658,32,-63,1,0,0,response3disk,,4,2,5,1,0,0,rectangle,2,5,1,0,0,2,5,1,0,0,1,46,206,101,1,,,,,,,,
,,,,,,,,,,,,,FF,,,,,,,,1.499,,,,,,,,,,,,,,,,,,,,,,60fe439797c67fdd7643cabb,6103699ae74451882cc12807,2021-07-29_22h53.56.724,Simcolourproject_2stim_asymm_v5,2020.2.10,MacIntel,60,61025ae37ef11b136ea224fe,,,,,,,,,2562,48,-33,1,0,0,response3disk,,5,-8,3,1,0,0,rectangle,-8,3,1,0,0,-8,3,1,0,0,1,47,207,33,1,,,,,,,,
,,,,,,,,,,,,,FF,,,,,,,,1.484,,,,,,,,,,,,,,,,,,,,,,60fe439797c67fdd7643cabb,6103699ae74451882cc12807,2021-07-29_22h53.56.724,Simcolourproject_2stim_asymm_v5,2020.2.10,MacIntel,60,61025ae37ef11b136ea224fe,,,,,,,,,620,-85,55,1,0,0,response7disk,,1,1,1,1,0,0,rectangle,1,1,1,0,0,1,1,1,0,0,1,48,208,93,1,,,,,,,,
,,,,,,,,,,,,,FF,,,,,,,,1.283,,,,,,,,,,,,,,,,,,,,,,60fe439797c67fdd7643cabb,6103699ae74451882cc12807,2021-07-29_22h53.56.724,Simcolourproject_2stim_asymm_v5,2020.2.10,MacIntel,60,61025ae37ef11b136ea224fe,,,,,,,,,2620,-36,-75,1,0,0,response5disk,,3,-5,5,1,0,0,rectangle,-5,5,1,0,0,-5,5,1,0,0,1,49,209,151,1,,,,,,,,
,,,,,,,,,,,,,FF,,,,,,,,3.401,,,,,,,,,,,,,,,,,,,,,,60fe439797c67fdd7643cabb,6103699ae74451882cc12807,2021-07-29_22h53.56.724,Simcolourproject_2stim_asymm_v5,2020.2.10,MacIntel,60,61025ae37ef11b136ea224fe,,,,,,,,,451,69,-49,1,0,0,response3disk,,5,2,-2,1,0,0,rectangle,-100,53,1,0,0,-7,-1,1,0,0,1,50,210,20,1,,response7disk_3,TRUE,1,1,"[174,119,34,271,317,163,161,312,218,211,39,83,252,114,62,238,197,178,51,100]",3.25,rectangle
,,,,,,,,,,,,,FF,,,,,,,,1.917,,,,,,,,,,,,,,,,,,,,,,60fe439797c67fdd7643cabb,6103699ae74451882cc12807,2021-07-29_22h53.56.724,Simcolourproject_2stim_asymm_v5,2020.2.10,MacIntel,60,61025ae37ef11b136ea224fe,,,,,,,,,664,68,-26,1,0,0,response3disk,,5,4,6,1,0,0,rectangle,4,6,1,0,0,4,6,1,0,0,1,51,211,8,1,,,,,,,,
,,,,,,,,,,,,,FF,,,,,,,,2.833,,,,,,,,,,,,,,,,,,,,,,60fe439797c67fdd7643cabb,6103699ae74451882cc12807,2021-07-29_22h53.56.724,Simcolourproject_2stim_asymm_v5,2020.2.10,MacIntel,60,61025ae37ef11b136ea224fe,,,,,,,,,1145,34,-96,1,0,0,response3disk,,4,-2,8,1,0,0,rectangle,-2,8,1,0,0,-2,8,1,0,0,1,52,212,78,1,,,,,,,,
,,,,,,,,,,,,,FF,,,,,,,,1.618,,,,,,,,,,,,,,,,,,,,,,60fe439797c67fdd7643cabb,6103699ae74451882cc12807,2021-07-29_22h53.56.724,Simcolourproject_2stim_asymm_v5,2020.2.10,MacIntel,60,61025ae37ef11b136ea224fe,,,,,,,,,427,71,-28,1,0,0,response3disk,,5,2,5,1,0,0,rectangle,2,5,1,0,0,2,5,1,0,0,1,53,213,95,1,,,,,,,,
,,,,,,,,,,,,,FF,,,,,,,,8.615,,,,,,,,,,,,,,,,,,,,,,60fe439797c67fdd7643cabb,6103699ae74451882cc12807,2021-07-29_22h53.56.724,Simcolourproject_2stim_asymm_v5,2020.2.10,MacIntel,60,61025ae37ef11b136ea224fe,,,,,,,,,2348,75,-34,1,0,0,response3disk,,5,-3,-1,1,0,0,rectangle,-3,-1,1,0,0,-3,-1,1,0,0,1,54,214,96,1,,,,,,,,
,,,,,,,,,,,,,FF,,,,,,,,2.649,,,,,,,,,,,,,,,,,,,,,,60fe439797c67fdd7643cabb,6103699ae74451882cc12807,2021-07-29_22h53.56.724,Simcolourproject_2stim_asymm_v5,2020.2.10,MacIntel,60,61025ae37ef11b136ea224fe,,,,,,,,,3947,75,30,1,0,0,response1disk,,6,0,-1,1,0,0,rectangle,0,-1,1,0,0,0,-1,1,0,0,1,55,215,146,1,,,,,,,,
,,,,,,,,,,,,,FF,,,,,,,,1.399,,,,,,,,,,,,,,,,,,,,,,60fe439797c67fdd7643cabb,6103699ae74451882cc12807,2021-07-29_22h53.56.724,Simcolourproject_2stim_asymm_v5,2020.2.10,MacIntel,60,61025ae37ef11b136ea224fe,,,,,,,,,125,33,60,1,0,0,response1disk,,7,3,-2,1,0,0,rectangle,3,-2,1,0,0,3,-2,1,0,0,1,56,216,35,1,,,,,,,,
,,,,,,,,,,,,,FF,,,,,,,,1.582,,,,,,,,,,,,,,,,,,,,,,60fe439797c67fdd7643cabb,6103699ae74451882cc12807,2021-07-29_22h53.56.724,Simcolourproject_2stim_asymm_v5,2020.2.10,MacIntel,60,61025ae37ef11b136ea224fe,,,,,,,,,571,72,-38,1,0,0,response3disk,,5,3,-2,1,0,0,rectangle,-51,-84,1,0,0,-1,-4,1,0,0,1,57,217,13,1,,response5disk_3,TRUE,3,3,"[174,119,34,271,317,163,161,312,218,211,39,83,252,114,62,238,197,178,51,100]",1.734,rectangle
,,,,,,,,,,,,,FF,,,,,,,,1.149,,,,,,,,,,,,,,,,,,,,,,60fe439797c67fdd7643cabb,6103699ae74451882cc12807,2021-07-29_22h53.56.724,Simcolourproject_2stim_asymm_v5,2020.2.10,MacIntel,60,61025ae37ef11b136ea224fe,,,,,,,,,109,58,-27,1,0,0,response3disk,,5,0,-4,1,0,0,rectangle,0,-4,1,0,0,0,-4,1,0,0,1,58,218,64,1,,,,,,,,
,,,,,,,,,,,,,FF,,,,,,,,1.55,,,,,,,,,,,,,,,,,,,,,,60fe439797c67fdd7643cabb,6103699ae74451882cc12807,2021-07-29_22h53.56.724,Simcolourproject_2stim_asymm_v5,2020.2.10,MacIntel,60,61025ae37ef11b136ea224fe,,,,,,,,,4190,-45,-78,1,0,0,response5disk,,3,3,-6,1,0,0,rectangle,3,-6,1,0,0,3,-6,1,0,0,1,59,219,65,1,,,,,,,,
,,,,,,,,,,,,,FF,,,,,,,,1.032,,,,,,,,,,,,,,,,,,,,,,60fe439797c67fdd7643cabb,6103699ae74451882cc12807,2021-07-29_22h53.56.724,Simcolourproject_2stim_asymm_v5,2020.2.10,MacIntel,60,61025ae37ef11b136ea224fe,,,,,,,,,932,44,67,1,0,0,response1disk,,7,-6,-4,1,0,0,rectangle,-6,-4,1,0,0,-6,-4,1,0,0,1,60,220,140,1,,,,,,,,
,,,,,,,,,,,,,FF,,,,,,,,2.033,,,,,,,,,,,,,,,,,,,,,,60fe439797c67fdd7643cabb,6103699ae74451882cc12807,2021-07-29_22h53.56.724,Simcolourproject_2stim_asymm_v5,2020.2.10,MacIntel,60,61025ae37ef11b136ea224fe,,,,,,,,,1314,31,-50,1,0,0,response3disk,,4,5,5,1,0,0,rectangle,5,5,1,0,0,5,5,1,0,0,1,61,221,68,1,,,,,,,,
,,,,,,,,,,,,,FF,,,,,,,,1.034,,,,,,,,,,,,,,,,,,,,,,60fe439797c67fdd7643cabb,6103699ae74451882cc12807,2021-07-29_22h53.56.724,Simcolourproject_2stim_asymm_v5,2020.2.10,MacIntel,60,61025ae37ef11b136ea224fe,,,,,,,,,1761,-39,-58,1,0,0,response5disk,,3,-2,4,1,0,0,rectangle,-2,4,1,0,0,-2,4,1,0,0,1,62,222,18,1,,,,,,,,
,,,,,,,,,,,,,FF,,,,,,,,1.466,,,,,,,,,,,,,,,,,,,,,,60fe439797c67fdd7643cabb,6103699ae74451882cc12807,2021-07-29_22h53.56.724,Simcolourproject_2stim_asymm_v5,2020.2.10,MacIntel,60,61025ae37ef11b136ea224fe,,,,,,,,,2263,75,32,1,0,0,response1disk,,6,-2,0,1,0,0,rectangle,-2,0,1,0,0,-2,0,1,0,0,1,63,223,126,1,,,,,,,,
,,,,,,,,,,,,,FF,,,,,,,,1.499,,,,,,,,,,,,,,,,,,,,,,60fe439797c67fdd7643cabb,6103699ae74451882cc12807,2021-07-29_22h53.56.724,Simcolourproject_2stim_asymm_v5,2020.2.10,MacIntel,60,61025ae37ef11b136ea224fe,,,,,,,,,3962,36,102,1,0,0,response1disk,,7,-1,12,1,0,0,rectangle,-1,12,1,0,0,-1,12,1,0,0,1,64,224,92,1,,,,,,,,
,,,,,,,,,,,,,FF,,,,,,,,0.95,,,,,,,,,,,,,,,,,,,,,,60fe439797c67fdd7643cabb,6103699ae74451882cc12807,2021-07-29_22h53.56.724,Simcolourproject_2stim_asymm_v5,2020.2.10,MacIntel,60,61025ae37ef11b136ea224fe,,,,,,,,,1253,47,103,1,0,0,response1disk,,7,-1,7,1,0,0,rectangle,-1,7,1,0,0,-1,7,1,0,0,1,65,225,135,1,,,,,,,,
,,,,,,,,,,,,,FF,,,,,,,,1.567,,,,,,,,,,,,,,,,,,,,,,60fe439797c67fdd7643cabb,6103699ae74451882cc12807,2021-07-29_22h53.56.724,Simcolourproject_2stim_asymm_v5,2020.2.10,MacIntel,60,61025ae37ef11b136ea224fe,,,,,,,,,2510,67,34,1,0,0,response1disk,,6,16,13,1,0,0,rectangle,16,13,1,0,0,16,13,1,0,0,1,66,226,31,1,,,,,,,,
,,,,,,,,,,,,,FF,,,,,,,,4.199,,,,,,,,,,,,,,,,,,,,,,60fe439797c67fdd7643cabb,6103699ae74451882cc12807,2021-07-29_22h53.56.724,Simcolourproject_2stim_asymm_v5,2020.2.10,MacIntel,60,61025ae37ef11b136ea224fe,,,,,,,,,138,44,91,1,0,0,response1disk,,7,0,-5,1,0,0,rectangle,0,-5,1,0,0,0,-5,1,0,0,1,67,227,123,1,,,,,,,,
,,,,,,,,,,,,,FF,,,,,,,,1.799,,,,,,,,,,,,,,,,,,,,,,60fe439797c67fdd7643cabb,6103699ae74451882cc12807,2021-07-29_22h53.56.724,Simcolourproject_2stim_asymm_v5,2020.2.10,MacIntel,60,61025ae37ef11b136ea224fe,,,,,,,,,175,-40,-65,1,0,0,response5disk,,3,7,9,1,0,0,rectangle,7,9,1,0,0,7,9,1,0,0,1,68,228,63,1,,,,,,,,
,,,,,,,,,,,,,FF,,,,,,,,2.483,,,,,,,,,,,,,,,,,,,,,,60fe439797c67fdd7643cabb,6103699ae74451882cc12807,2021-07-29_22h53.56.724,Simcolourproject_2stim_asymm_v5,2020.2.10,MacIntel,60,61025ae37ef11b136ea224fe,,,,,,,,,1349,79,39,1,0,0,response1disk,,6,8,7,1,0,0,rectangle,8,7,1,0,0,8,7,1,0,0,1,69,229,58,1,,,,,,,,
,,,,,,,,,,,,,FF,,,,,,,,6.999,,,,,,,,,,,,,,,,,,,,,,60fe439797c67fdd7643cabb,6103699ae74451882cc12807,2021-07-29_22h53.56.724,Simcolourproject_2stim_asymm_v5,2020.2.10,MacIntel,60,61025ae37ef11b136ea224fe,,,,,,,,,4300,73,-26,1,0,0,response3disk,,5,-6,2,1,0,0,rectangle,-6,2,1,0,0,-6,2,1,0,0,1,70,230,150,1,,,,,,,,
,,,,,,,,,,,,,FF,,,,,,,,1.434,,,,,,,,,,,,,,,,,,,,,,60fe439797c67fdd7643cabb,6103699ae74451882cc12807,2021-07-29_22h53.56.724,Simcolourproject_2stim_asymm_v5,2020.2.10,MacIntel,60,61025ae37ef11b136ea224fe,,,,,,,,,3204,-67,-42,1,0,0,response5disk,,2,-3,5,1,0,0,rectangle,-3,5,1,0,0,-3,5,1,0,0,1,71,231,24,1,,,,,,,,
,,,,,,,,,,,,,FF,,,,,,,,2.899,,,,,,,,,,,,,,,,,,,,,,60fe439797c67fdd7643cabb,6103699ae74451882cc12807,2021-07-29_22h53.56.724,Simcolourproject_2stim_asymm_v5,2020.2.10,MacIntel,60,61025ae37ef11b136ea224fe,,,,,,,,,814,70,-20,1,0,0,response3disk,,5,5,5,1,0,0,rectangle,5,5,1,0,0,5,5,1,0,0,1,72,232,130,1,,,,,,,,
,,,,,,,,,,,,,FF,,,,,,,,0.949,,,,,,,,,,,,,,,,,,,,,,60fe439797c67fdd7643cabb,6103699ae74451882cc12807,2021-07-29_22h53.56.724,Simcolourproject_2stim_asymm_v5,2020.2.10,MacIntel,60,61025ae37ef11b136ea224fe,,,,,,,,,3156,-67,-39,1,0,0,response5disk,,2,11,1,1,0,0,rectangle,11,1,1,0,0,11,1,1,0,0,1,73,233,115,1,,,,,,,,
,,,,,,,,,,,,,FF,,,,,,,,1.05,,,,,,,,,,,,,,,,,,,,,,60fe439797c67fdd7643cabb,6103699ae74451882cc12807,2021-07-29_22h53.56.724,Simcolourproject_2stim_asymm_v5,2020.2.10,MacIntel,60,61025ae37ef11b136ea224fe,,,,,,,,,3578,35,64,1,0,0,response1disk,,7,-5,13,1,0,0,rectangle,-5,13,1,0,0,-5,13,1,0,0,1,74,234,152,1,,,,,,,,
,,,,,,,,,,,,,FF,,,,,,,,0.884,,,,,,,,,,,,,,,,,,,,,,60fe439797c67fdd7643cabb,6103699ae74451882cc12807,2021-07-29_22h53.56.724,Simcolourproject_2stim_asymm_v5,2020.2.10,MacIntel,60,61025ae37ef11b136ea224fe,,,,,,,,,185,-70,33,1,0,0,response7disk,,1,-3,1,1,0,0,rectangle,-3,1,1,0,0,-3,1,1,0,0,1,75,235,137,1,,,,,,,,
,,,,,,,,,,,,,FF,,,,,,,,1.2,,,,,,,,,,,,,,,,,,,,,,60fe439797c67fdd7643cabb,6103699ae74451882cc12807,2021-07-29_22h53.56.724,Simcolourproject_2stim_asymm_v5,2020.2.10,MacIntel,60,61025ae37ef11b136ea224fe,,,,,,,,,1144,-37,-60,1,0,0,response5disk,,3,-3,0,1,0,0,rectangle,-3,0,1,0,0,-3,0,1,0,0,1,76,236,102,1,,,,,,,,
,,,,,,,,,,,,,FF,,,,,,,,1.433,,,,,,,,,,,,,,,,,,,,,,60fe439797c67fdd7643cabb,6103699ae74451882cc12807,2021-07-29_22h53.56.724,Simcolourproject_2stim_asymm_v5,2020.2.10,MacIntel,60,61025ae37ef11b136ea224fe,,,,,,,,,2267,58,31,1,0,0,response1disk,,6,6,6,1,0,0,rectangle,98,-45,1,0,0,-5,0,1,0,0,1,77,237,83,1,,response3disk_3,TRUE,5,5,"[174,119,34,271,317,163,161,312,218,211,39,83,252,114,62,238,197,178,51,100]",1.983,rectangle
,,,,,,,,,,,,,FF,,,,,,,,1.167,,,,,,,,,,,,,,,,,,,,,,60fe439797c67fdd7643cabb,6103699ae74451882cc12807,2021-07-29_22h53.56.724,Simcolourproject_2stim_asymm_v5,2020.2.10,MacIntel,60,61025ae37ef11b136ea224fe,,,,,,,,,2721,-37,-46,1,0,0,response5disk,,3,3,1,1,0,0,rectangle,3,1,1,0,0,3,1,1,0,0,1,78,238,60,1,,,,,,,,
,,,,,,,,,,,,,FF,,,,,,,,1.116,,,,,,,,,,,,,,,,,,,,,,60fe439797c67fdd7643cabb,6103699ae74451882cc12807,2021-07-29_22h53.56.724,Simcolourproject_2stim_asymm_v5,2020.2.10,MacIntel,60,61025ae37ef11b136ea224fe,,,,,,,,,1891,-39,-61,1,0,0,response5disk,,3,-5,-1,1,0,0,rectangle,-5,-1,1,0,0,-5,-1,1,0,0,1,79,239,153,1,,,,,,,,
,,,,,,,,,,,,,FF,,,,,,,,1.617,,,,,,,,,,,,,,,,,,,,,,60fe439797c67fdd7643cabb,6103699ae74451882cc12807,2021-07-29_22h53.56.724,Simcolourproject_2stim_asymm_v5,2020.2.10,MacIntel,60,61025ae37ef11b136ea224fe,,,,,,,,,2639,75,33,1,0,0,response1disk,,6,2,4,1,0,0,rectangle,2,4,1,0,0,2,4,1,0,0,1,80,240,53,1,,,,,,,,
,,,,,,,,,,,,,FF,,,,,,,,0.916,,,,,,,,,,,,,,,,,,,,,,60fe439797c67fdd7643cabb,6103699ae74451882cc12807,2021-07-29_22h53.56.724,Simcolourproject_2stim_asymm_v5,2020.2.10,MacIntel,60,61025ae37ef11b136ea224fe,,,,,,,,,1877,32,85,1,0,0,response1disk,,7,-4,6,1,0,0,rectangle,-4,6,1,0,0,-4,6,1,0,0,1,81,241,158,1,,,,,,,,
,,,,,,,,,,,,,FF,,,,,,,,1.383,,,,,,,,,,,,,,,,,,,,,,60fe439797c67fdd7643cabb,6103699ae74451882cc12807,2021-07-29_22h53.56.724,Simcolourproject_2stim_asymm_v5,2020.2.10,MacIntel,60,61025ae37ef11b136ea224fe,,,,,,,,,369,-51,-89,1,0,0,response5disk,,3,-7,0,1,0,0,rectangle,-7,0,1,0,0,-7,0,1,0,0,1,82,242,77,1,,,,,,,,
,,,,,,,,,,,,,FF,,,,,,,,1.033,,,,,,,,,,,,,,,,,,,,,,60fe439797c67fdd7643cabb,6103699ae74451882cc12807,2021-07-29_22h53.56.724,Simcolourproject_2stim_asymm_v5,2020.2.10,MacIntel,60,61025ae37ef11b136ea224fe,,,,,,,,,1539,39,-45,1,0,0,response3disk,,4,3,6,1,0,0,rectangle,3,6,1,0,0,3,6,1,0,0,1,83,243,12,1,,,,,,,,
,,,,,,,,,,,,,FF,,,,,,,,0.834,,,,,,,,,,,,,,,,,,,,,,60fe439797c67fdd7643cabb,6103699ae74451882cc12807,2021-07-29_22h53.56.724,Simcolourproject_2stim_asymm_v5,2020.2.10,MacIntel,60,61025ae37ef11b136ea224fe,,,,,,,,,946,30,50,1,0,0,response1disk,,7,3,-2,1,0,0,rectangle,3,-2,1,0,0,3,-2,1,0,0,1,84,244,128,1,,,,,,,,
,,,,,,,,,,,,,FF,,,,,,,,2.183,,,,,,,,,,,,,,,,,,,,,,60fe439797c67fdd7643cabb,6103699ae74451882cc12807,2021-07-29_22h53.56.724,Simcolourproject_2stim_asymm_v5,2020.2.10,MacIntel,60,61025ae37ef11b136ea224fe,,,,,,,,,4202,26,-92,1,0,0,response3disk,,4,5,-3,1,0,0,rectangle,5,-3,1,0,0,5,-3,1,0,0,1,85,245,73,1,,,,,,,,
,,,,,,,,,,,,,FF,,,,,,,,1.15,,,,,,,,,,,,,,,,,,,,,,60fe439797c67fdd7643cabb,6103699ae74451882cc12807,2021-07-29_22h53.56.724,Simcolourproject_2stim_asymm_v5,2020.2.10,MacIntel,60,61025ae37ef11b136ea224fe,,,,,,,,,3819,-32,-54,1,0,0,response5disk,,3,-5,0,1,0,0,rectangle,-5,0,1,0,0,-5,0,1,0,0,1,86,246,157,1,,,,,,,,
,,,,,,,,,,,,,FF,,,,,,,,1.568,,,,,,,,,,,,,,,,,,,,,,60fe439797c67fdd7643cabb,6103699ae74451882cc12807,2021-07-29_22h53.56.724,Simcolourproject_2stim_asymm_v5,2020.2.10,MacIntel,60,61025ae37ef11b136ea224fe,,,,,,,,,1733,78,-40,1,0,0,response3disk,,5,0,-8,1,0,0,rectangle,0,-8,1,0,0,0,-8,1,0,0,1,87,247,62,1,,,,,,,,
,,,,,,,,,,,,,FF,,,,,,,,1.1,,,,,,,,,,,,,,,,,,,,,,60fe439797c67fdd7643cabb,6103699ae74451882cc12807,2021-07-29_22h53.56.724,Simcolourproject_2stim_asymm_v5,2020.2.10,MacIntel,60,61025ae37ef11b136ea224fe,,,,,,,,,954,65,45,1,0,0,response1disk,,6,4,-4,1,0,0,rectangle,4,-4,1,0,0,4,-4,1,0,0,1,88,248,118,1,,,,,,,,
,,,,,,,,,,,,,FF,,,,,,,,1.349,,,,,,,,,,,,,,,,,,,,,,60fe439797c67fdd7643cabb,6103699ae74451882cc12807,2021-07-29_22h53.56.724,Simcolourproject_2stim_asymm_v5,2020.2.10,MacIntel,60,61025ae37ef11b136ea224fe,,,,,,,,,3020,88,34,1,0,0,response1disk,,6,-10,-2,1,0,0,rectangle,-10,-2,1,0,0,-10,-2,1,0,0,1,89,249,154,1,,,,,,,,
,,,,,,,,,,,,,FF,,,,,,,,1.35,,,,,,,,,,,,,,,,,,,,,,60fe439797c67fdd7643cabb,6103699ae74451882cc12807,2021-07-29_22h53.56.724,Simcolourproject_2stim_asymm_v5,2020.2.10,MacIntel,60,61025ae37ef11b136ea224fe,,,,,,,,,4228,86,38,1,0,0,response1disk,,6,5,11,1,0,0,rectangle,5,11,1,0,0,5,11,1,0,0,1,90,250,57,1,,,,,,,,
,,,,,,,,,,,,,FF,,,,,,,,1.116,,,,,,,,,,,,,,,,,,,,,,60fe439797c67fdd7643cabb,6103699ae74451882cc12807,2021-07-29_22h53.56.724,Simcolourproject_2stim_asymm_v5,2020.2.10,MacIntel,60,61025ae37ef11b136ea224fe,,,,,,,,,186,-73,-48,1,0,0,response5disk,,2,0,1,1,0,0,rectangle,39,-101,1,0,0,2,-3,1,0,0,1,91,251,4,1,,response3disk_3,TRUE,4,4,"[174,119,34,271,317,163,161,312,218,211,39,83,252,114,62,238,197,178,51,100]",2.466,rectangle
,,,,,,,,,,,,,FF,,,,,,,,1.567,,,,,,,,,,,,,,,,,,,,,,60fe439797c67fdd7643cabb,6103699ae74451882cc12807,2021-07-29_22h53.56.724,Simcolourproject_2stim_asymm_v5,2020.2.10,MacIntel,60,61025ae37ef11b136ea224fe,,,,,,,,,3591,-76,34,1,0,0,response7disk,,1,2,1,1,0,0,rectangle,2,1,1,0,0,2,1,1,0,0,1,92,252,117,1,,,,,,,,
,,,,,,,,,,,,,FF,,,,,,,,1.117,,,,,,,,,,,,,,,,,,,,,,60fe439797c67fdd7643cabb,6103699ae74451882cc12807,2021-07-29_22h53.56.724,Simcolourproject_2stim_asymm_v5,2020.2.10,MacIntel,60,61025ae37ef11b136ea224fe,,,,,,,,,849,34,74,1,0,0,response1disk,,7,-6,-1,1,0,0,rectangle,-6,-1,1,0,0,-6,-1,1,0,0,1,93,253,84,1,,,,,,,,
,,,,,,,,,,,,,FF,,,,,,,,3.383,,,,,,,,,,,,,,,,,,,,,,60fe439797c67fdd7643cabb,6103699ae74451882cc12807,2021-07-29_22h53.56.724,Simcolourproject_2stim_asymm_v5,2020.2.10,MacIntel,60,61025ae37ef11b136ea224fe,,,,,,,,,1806,58,-27,1,0,0,response3disk,,5,18,-5,1,0,0,rectangle,18,-5,1,0,0,18,-5,1,0,0,1,94,254,141,1,,,,,,,,
,,,,,,,,,,,,,FF,,,,,,,,2.366,,,,,,,,,,,,,,,,,,,,,,60fe439797c67fdd7643cabb,6103699ae74451882cc12807,2021-07-29_22h53.56.724,Simcolourproject_2stim_asymm_v5,2020.2.10,MacIntel,60,61025ae37ef11b136ea224fe,,,,,,,,,1769,86,45,1,0,0,response1disk,,6,0,3,1,0,0,rectangle,0,3,1,0,0,0,3,1,0,0,1,95,255,45,1,,,,,,,,
,,,,,,,,,,,,,FF,,,,,,,,3.8,,,,,,,,,,,,,,,,,,,,,,60fe439797c67fdd7643cabb,6103699ae74451882cc12807,2021-07-29_22h53.56.724,Simcolourproject_2stim_asymm_v5,2020.2.10,MacIntel,60,61025ae37ef11b136ea224fe,,,,,,,,,1812,73,-44,1,0,0,response3disk,,5,-6,-7,1,0,0,rectangle,-6,-7,1,0,0,-6,-7,1,0,0,1,96,256,7,1,,,,,,,,
,,,,,,,,,,,,,FF,,,,,,,,1.884,,,,,,,,,,,,,,,,,,,,,,60fe439797c67fdd7643cabb,6103699ae74451882cc12807,2021-07-29_22h53.56.724,Simcolourproject_2stim_asymm_v5,2020.2.10,MacIntel,60,61025ae37ef11b136ea224fe,,,,,,,,,460,-31,-74,1,0,0,response5disk,,3,2,2,1,0,0,rectangle,2,2,1,0,0,2,2,1,0,0,1,97,257,39,1,,,,,,,,
,,,,,,,,,,,,,FF,,,,,,,,1.1,,,,,,,,,,,,,,,,,,,,,,60fe439797c67fdd7643cabb,6103699ae74451882cc12807,2021-07-29_22h53.56.724,Simcolourproject_2stim_asymm_v5,2020.2.10,MacIntel,60,61025ae37ef11b136ea224fe,,,,,,,,,970,-81,-33,1,0,0,response5disk,,2,-2,-2,1,0,0,rectangle,-2,-2,1,0,0,-2,-2,1,0,0,1,98,258,16,1,,,,,,,,
,,,,,,,,,,,,,FF,,,,,,,,0.966,,,,,,,,,,,,,,,,,,,,,,60fe439797c67fdd7643cabb,6103699ae74451882cc12807,2021-07-29_22h53.56.724,Simcolourproject_2stim_asymm_v5,2020.2.10,MacIntel,60,61025ae37ef11b136ea224fe,,,,,,,,,111,82,-30,1,0,0,response3disk,,5,3,0,1,0,0,rectangle,3,0,1,0,0,3,0,1,0,0,1,99,259,69,1,,,,,,,,
,,,,,,,,,,,,,FF,,,,,,,,2.45,,,,,,,,,,,,,,,,,,,,,,60fe439797c67fdd7643cabb,6103699ae74451882cc12807,2021-07-29_22h53.56.724,Simcolourproject_2stim_asymm_v5,2020.2.10,MacIntel,60,61025ae37ef11b136ea224fe,,,,,,,,,1646,-24,-71,1,0,0,response5disk,,3,9,11,1,0,0,rectangle,9,11,1,0,0,9,11,1,0,0,1,100,260,138,1,,,,,,,,
,,,,,,,,,,,,,FF,,,,,,,,3.016,,,,,,,,,,,,,,,,,,,,,,60fe439797c67fdd7643cabb,6103699ae74451882cc12807,2021-07-29_22h53.56.724,Simcolourproject_2stim_asymm_v5,2020.2.10,MacIntel,60,61025ae37ef11b136ea224fe,,,,,,,,,2920,50,68,1,0,0,response1disk,,7,-3,1,1,0,0,rectangle,-3,1,1,0,0,-3,1,1,0,0,1,101,261,134,1,,,,,,,,
,,,,,,,,,,,,,FF,,,,,,,,1.249,,,,,,,,,,,,,,,,,,,,,,60fe439797c67fdd7643cabb,6103699ae74451882cc12807,2021-07-29_22h53.56.724,Simcolourproject_2stim_asymm_v5,2020.2.10,MacIntel,60,61025ae37ef11b136ea224fe,,,,,,,,,1686,-49,-75,1,0,0,response5disk,,3,5,0,1,0,0,rectangle,5,0,1,0,0,5,0,1,0,0,1,102,262,52,1,,,,,,,,
,,,,,,,,,,,,,FF,,,,,,,,1.084,,,,,,,,,,,,,,,,,,,,,,60fe439797c67fdd7643cabb,6103699ae74451882cc12807,2021-07-29_22h53.56.724,Simcolourproject_2stim_asymm_v5,2020.2.10,MacIntel,60,61025ae37ef11b136ea224fe,,,,,,,,,4138,34,83,1,0,0,response1disk,,7,-9,0,1,0,0,rectangle,-9,0,1,0,0,-9,0,1,0,0,1,103,263,11,1,,,,,,,,
,,,,,,,,,,,,,FF,,,,,,,,1.199,,,,,,,,,,,,,,,,,,,,,,60fe439797c67fdd7643cabb,6103699ae74451882cc12807,2021-07-29_22h53.56.724,Simcolourproject_2stim_asymm_v5,2020.2.10,MacIntel,60,61025ae37ef11b136ea224fe,,,,,,,,,2290,78,28,1,0,0,response1disk,,6,5,5,1,0,0,rectangle,5,5,1,0,0,5,5,1,0,0,1,104,264,66,1,,,,,,,,
,,,,,,,,,,,,,FF,,,,,,,,2.267,,,,,,,,,,,,,,,,,,,,,,60fe439797c67fdd7643cabb,6103699ae74451882cc12807,2021-07-29_22h53.56.724,Simcolourproject_2stim_asymm_v5,2020.2.10,MacIntel,60,61025ae37ef11b136ea224fe,,,,,,,,,1117,49,-80,1,0,0,response3disk,,4,1,7,1,0,0,rectangle,1,7,1,0,0,1,7,1,0,0,1,105,265,41,1,,,,,,,,
,,,,,,,,,,,,,FF,,,,,,,,1.166,,,,,,,,,,,,,,,,,,,,,,60fe439797c67fdd7643cabb,6103699ae74451882cc12807,2021-07-29_22h53.56.724,Simcolourproject_2stim_asymm_v5,2020.2.10,MacIntel,60,61025ae37ef11b136ea224fe,,,,,,,,,491,69,-33,1,0,0,response3disk,,5,5,2,1,0,0,rectangle,5,2,1,0,0,5,2,1,0,0,1,106,266,25,1,,,,,,,,
,,,,,,,,,,,,,FF,,,,,,,,2.816,,,,,,,,,,,,,,,,,,,,,,60fe439797c67fdd7643cabb,6103699ae74451882cc12807,2021-07-29_22h53.56.724,Simcolourproject_2stim_asymm_v5,2020.2.10,MacIntel,60,61025ae37ef11b136ea224fe,,,,,,,,,1809,70,-39,1,0,0,response3disk,,5,7,-5,1,0,0,rectangle,7,-5,1,0,0,7,-5,1,0,0,1,107,267,34,1,,,,,,,,
,,,,,,,,,,,,,FF,,,,,,,,1.701,,,,,,,,,,,,,,,,,,,,,,60fe439797c67fdd7643cabb,6103699ae74451882cc12807,2021-07-29_22h53.56.724,Simcolourproject_2stim_asymm_v5,2020.2.10,MacIntel,60,61025ae37ef11b136ea224fe,,,,,,,,,3155,-80,-42,1,0,0,response5disk,,2,12,-1,1,0,0,rectangle,12,-1,1,0,0,12,-1,1,0,0,1,108,268,99,1,,,,,,,,
,,,,,,,,,,,,,FF,,,,,,,,1.816,,,,,,,,,,,,,,,,,,,,,,60fe439797c67fdd7643cabb,6103699ae74451882cc12807,2021-07-29_22h53.56.724,Simcolourproject_2stim_asymm_v5,2020.2.10,MacIntel,60,61025ae37ef11b136ea224fe,,,,,,,,,1456,-48,-71,1,0,0,response5disk,,3,11,14,1,0,0,rectangle,11,14,1,0,0,11,14,1,0,0,1,109,269,136,1,,,,,,,,
,,,,,,,,,,,,,FF,,,,,,,,1.949,,,,,,,,,,,,,,,,,,,,,,60fe439797c67fdd7643cabb,6103699ae74451882cc12807,2021-07-29_22h53.56.724,Simcolourproject_2stim_asymm_v5,2020.2.10,MacIntel,60,61025ae37ef11b136ea224fe,,,,,,,,,3246,-41,-111,1,0,0,response5disk,,3,0,-11,1,0,0,rectangle,40,-107,1,0,0,0,-5,1,0,0,1,110,270,21,1,,response3disk_3,TRUE,4,4,"[174,119,34,271,317,163,161,312,218,211,39,83,252,114,62,238,197,178,51,100]",1.65,rectangle
,,,,,,,,,,,,,FF,,,,,,,,4.801,,,,,,,,,,,,,,,,,,,,,,60fe439797c67fdd7643cabb,6103699ae74451882cc12807,2021-07-29_22h53.56.724,Simcolourproject_2stim_asymm_v5,2020.2.10,MacIntel,60,61025ae37ef11b136ea224fe,,,,,,,,,3016,60,27,1,0,0,response1disk,,6,-6,-2,1,0,0,rectangle,-6,-2,1,0,0,-6,-2,1,0,0,1,111,271,129,1,,,,,,,,
,,,,,,,,,,,,,FF,,,,,,,,1.183,,,,,,,,,,,,,,,,,,,,,,60fe439797c67fdd7643cabb,6103699ae74451882cc12807,2021-07-29_22h53.56.724,Simcolourproject_2stim_asymm_v5,2020.2.10,MacIntel,60,61025ae37ef11b136ea224fe,,,,,,,,,1450,-43,-91,1,0,0,response5disk,,3,2,-5,1,0,0,rectangle,2,-5,1,0,0,2,-5,1,0,0,1,112,272,111,1,,,,,,,,
,,,,,,,,,,,,,FF,,,,,,,,0.934,,,,,,,,,,,,,,,,,,,,,,60fe439797c67fdd7643cabb,6103699ae74451882cc12807,2021-07-29_22h53.56.724,Simcolourproject_2stim_asymm_v5,2020.2.10,MacIntel,60,61025ae37ef11b136ea224fe,,,,,,,,,3695,40,69,1,0,0,response1disk,,7,0,-12,1,0,0,rectangle,0,-12,1,0,0,0,-12,1,0,0,1,113,273,114,1,,,,,,,,
,,,,,,,,,,,,,FF,,,,,,,,6.433,,,,,,,,,,,,,,,,,,,,,,60fe439797c67fdd7643cabb,6103699ae74451882cc12807,2021-07-29_22h53.56.724,Simcolourproject_2stim_asymm_v5,2020.2.10,MacIntel,60,61025ae37ef11b136ea224fe,,,,,,,,,1782,93,-37,1,0,0,response3disk,,5,10,3,1,0,0,rectangle,10,3,1,0,0,10,3,1,0,0,1,114,274,112,1,,,,,,,,
,,,,,,,,,,,,,FF,,,,,,,,2.434,,,,,,,,,,,,,,,,,,,,,,60fe439797c67fdd7643cabb,6103699ae74451882cc12807,2021-07-29_22h53.56.724,Simcolourproject_2stim_asymm_v5,2020.2.10,MacIntel,60,61025ae37ef11b136ea224fe,,,,,,,,,1137,25,-96,1,0,0,response3disk,,4,-4,5,1,0,0,rectangle,-4,5,1,0,0,-4,5,1,0,0,1,115,275,90,1,,,,,,,,
,,,,,,,,,,,,,FF,,,,,,,,1.316,,,,,,,,,,,,,,,,,,,,,,60fe439797c67fdd7643cabb,6103699ae74451882cc12807,2021-07-29_22h53.56.724,Simcolourproject_2stim_asymm_v5,2020.2.10,MacIntel,60,61025ae37ef11b136ea224fe,,,,,,,,,1044,80,-32,1,0,0,response3disk,,5,4,-2,1,0,0,rectangle,4,-2,1,0,0,4,-2,1,0,0,1,116,276,148,1,,,,,,,,
,,,,,,,,,,,,,FF,,,,,,,,2.583,,,,,,,,,,,,,,,,,,,,,,60fe439797c67fdd7643cabb,6103699ae74451882cc12807,2021-07-29_22h53.56.724,Simcolourproject_2stim_asymm_v5,2020.2.10,MacIntel,60,61025ae37ef11b136ea224fe,,,,,,,,,2730,37,-93,1,0,0,response3disk,,4,-2,0,1,0,0,rectangle,-2,0,1,0,0,-2,0,1,0,0,1,117,277,14,1,,,,,,,,
,,,,,,,,,,,,,FF,,,,,,,,1.067,,,,,,,,,,,,,,,,,,,,,,60fe439797c67fdd7643cabb,6103699ae74451882cc12807,2021-07-29_22h53.56.724,Simcolourproject_2stim_asymm_v5,2020.2.10,MacIntel,60,61025ae37ef11b136ea224fe,,,,,,,,,1627,39,77,1,0,0,response1disk,,7,2,-4,1,0,0,rectangle,2,-4,1,0,0,2,-4,1,0,0,1,118,278,19,1,,,,,,,,
,,,,,,,,,,,,,FF,,,,,,,,9.466,,,,,,,,,,,,,,,,,,,,,,60fe439797c67fdd7643cabb,6103699ae74451882cc12807,2021-07-29_22h53.56.724,Simcolourproject_2stim_asymm_v5,2020.2.10,MacIntel,60,61025ae37ef11b136ea224fe,,,,,,,,,1080,45,-61,1,0,0,response3disk,,4,2,1,1,0,0,rectangle,2,1,1,0,0,2,1,1,0,0,1,119,279,54,1,,,,,,,,
,,,,,,,,,,,,,FF,,,,,,,,0.967,,,,,,,,,,,,,,,,,,,,,,60fe439797c67fdd7643cabb,6103699ae74451882cc12807,2021-07-29_22h53.56.724,Simcolourproject_2stim_asymm_v5,2020.2.10,MacIntel,60,61025ae37ef11b136ea224fe,,,,,,,,,1335,78,34,1,0,0,response1disk,,6,-1,0,1,0,0,rectangle,-1,0,1,0,0,-1,0,1,0,0,1,120,280,0,1,,,,,,,,
,,,,,,,,,,,,,FF,,,,,,,,0.95,,,,,,,,,,,,,,,,,,,,,,60fe439797c67fdd7643cabb,6103699ae74451882cc12807,2021-07-29_22h53.56.724,Simcolourproject_2stim_asymm_v5,2020.2.10,MacIntel,60,61025ae37ef11b136ea224fe,,,,,,,,,1601,-49,-75,1,0,0,response5disk,,3,0,1,1,0,0,rectangle,0,1,1,0,0,0,1,1,0,0,1,121,281,139,1,,,,,,,,
,,,,,,,,,,,,,FF,,,,,,,,1.566,,,,,,,,,,,,,,,,,,,,,,60fe439797c67fdd7643cabb,6103699ae74451882cc12807,2021-07-29_22h53.56.724,Simcolourproject_2stim_asymm_v5,2020.2.10,MacIntel,60,61025ae37ef11b136ea224fe,,,,,,,,,818,-30,-64,1,0,0,response5disk,,3,6,2,1,0,0,rectangle,6,2,1,0,0,6,2,1,0,0,1,122,282,40,1,,,,,,,,
,,,,,,,,,,,,,FF,,,,,,,,1.6,,,,,,,,,,,,,,,,,,,,,,60fe439797c67fdd7643cabb,6103699ae74451882cc12807,2021-07-29_22h53.56.724,Simcolourproject_2stim_asymm_v5,2020.2.10,MacIntel,60,61025ae37ef11b136ea224fe,,,,,,,,,1574,47,74,1,0,0,response1disk,,7,3,-8,1,0,0,rectangle,3,-8,1,0,0,3,-8,1,0,0,1,123,283,36,1,,,,,,,,
,,,,,,,,,,,,,FF,,,,,,,,1.517,,,,,,,,,,,,,,,,,,,,,,60fe439797c67fdd7643cabb,6103699ae74451882cc12807,2021-07-29_22h53.56.724,Simcolourproject_2stim_asymm_v5,2020.2.10,MacIntel,60,61025ae37ef11b136ea224fe,,,,,,,,,4279,52,111,1,0,0,response1disk,,7,1,5,1,0,0,rectangle,1,5,1,0,0,1,5,1,0,0,1,124,284,145,1,,,,,,,,
,,,,,,,,,,,,,FF,,,,,,,,2.083,,,,,,,,,,,,,,,,,,,,,,60fe439797c67fdd7643cabb,6103699ae74451882cc12807,2021-07-29_22h53.56.724,Simcolourproject_2stim_asymm_v5,2020.2.10,MacIntel,60,61025ae37ef11b136ea224fe,,,,,,,,,290,35,-92,1,0,0,response3disk,,4,3,0,1,0,0,rectangle,3,0,1,0,0,3,0,1,0,0,1,125,285,61,1,,,,,,,,
,,,,,,,,,,,,,FF,,,,,,,,1.216,,,,,,,,,,,,,,,,,,,,,,60fe439797c67fdd7643cabb,6103699ae74451882cc12807,2021-07-29_22h53.56.724,Simcolourproject_2stim_asymm_v5,2020.2.10,MacIntel,60,61025ae37ef11b136ea224fe,,,,,,,,,51,49,60,1,0,0,response1disk,,7,1,-1,1,0,0,rectangle,1,-1,1,0,0,1,-1,1,0,0,1,126,286,149,1,,,,,,,,
,,,,,,,,,,,,,FF,,,,,,,,2.215,,,,,,,,,,,,,,,,,,,,,,60fe439797c67fdd7643cabb,6103699ae74451882cc12807,2021-07-29_22h53.56.724,Simcolourproject_2stim_asymm_v5,2020.2.10,MacIntel,60,61025ae37ef11b136ea224fe,,,,,,,,,3048,-63,-36,1,0,0,response5disk,,2,11,4,1,0,0,rectangle,11,4,1,0,0,11,4,1,0,0,1,127,287,122,1,,,,,,,,
,,,,,,,,,,,,,FF,,,,,,,,0.849,,,,,,,,,,,,,,,,,,,,,,60fe439797c67fdd7643cabb,6103699ae74451882cc12807,2021-07-29_22h53.56.724,Simcolourproject_2stim_asymm_v5,2020.2.10,MacIntel,60,61025ae37ef11b136ea224fe,,,,,,,,,2966,33,88,1,0,0,response1disk,,7,3,-8,1,0,0,rectangle,3,-8,1,0,0,3,-8,1,0,0,1,128,288,27,1,,,,,,,,
,,,,,,,,,,,,,FF,,,,,,,,1.115,,,,,,,,,,,,,,,,,,,,,,60fe439797c67fdd7643cabb,6103699ae74451882cc12807,2021-07-29_22h53.56.724,Simcolourproject_2stim_asymm_v5,2020.2.10,MacIntel,60,61025ae37ef11b136ea224fe,,,,,,,,,1131,-93,44,1,0,0,response7disk,,1,1,1,1,0,0,rectangle,1,1,1,0,0,1,1,1,0,0,1,129,289,43,1,,,,,,,,
,,,,,,,,,,,,,FF,,,,,,,,1.467,,,,,,,,,,,,,,,,,,,,,,60fe439797c67fdd7643cabb,6103699ae74451882cc12807,2021-07-29_22h53.56.724,Simcolourproject_2stim_asymm_v5,2020.2.10,MacIntel,60,61025ae37ef11b136ea224fe,,,,,,,,,3333,40,-106,1,0,0,response3disk,,4,4,-4,1,0,0,rectangle,4,-4,1,0,0,4,-4,1,0,0,1,130,290,103,1,,,,,,,,
,,,,,,,,,,,,,FF,,,,,,,,1.016,,,,,,,,,,,,,,,,,,,,,,60fe439797c67fdd7643cabb,6103699ae74451882cc12807,2021-07-29_22h53.56.724,Simcolourproject_2stim_asymm_v5,2020.2.10,MacIntel,60,61025ae37ef11b136ea224fe,,,,,,,,,592,83,-33,1,0,0,response3disk,,5,10,-2,1,0,0,rectangle,10,-2,1,0,0,10,-2,1,0,0,1,131,291,159,1,,,,,,,,
,,,,,,,,,,,,,FF,,,,,,,,1.033,,,,,,,,,,,,,,,,,,,,,,60fe439797c67fdd7643cabb,6103699ae74451882cc12807,2021-07-29_22h53.56.724,Simcolourproject_2stim_asymm_v5,2020.2.10,MacIntel,60,61025ae37ef11b136ea224fe,,,,,,,,,3745,-37,-70,1,0,0,response5disk,,3,-4,6,1,0,0,rectangle,-4,6,1,0,0,-4,6,1,0,0,1,132,292,143,1,,,,,,,,
,,,,,,,,,,,,,FF,,,,,,,,1.233,,,,,,,,,,,,,,,,,,,,,,60fe439797c67fdd7643cabb,6103699ae74451882cc12807,2021-07-29_22h53.56.724,Simcolourproject_2stim_asymm_v5,2020.2.10,MacIntel,60,61025ae37ef11b136ea224fe,,,,,,,,,3452,56,43,1,0,0,response1disk,,6,7,-7,1,0,0,rectangle,7,-7,1,0,0,7,-7,1,0,0,1,133,293,17,1,,,,,,,,
,,,,,,,,,,,,,FF,,,,,,,,1.882,,,,,,,,,,,,,,,,,,,,,,60fe439797c67fdd7643cabb,6103699ae74451882cc12807,2021-07-29_22h53.56.724,Simcolourproject_2stim_asymm_v5,2020.2.10,MacIntel,60,61025ae37ef11b136ea224fe,,,,,,,,,18,78,-27,1,0,0,response3disk,,5,7,-3,1,0,0,rectangle,7,-3,1,0,0,7,-3,1,0,0,1,134,294,49,1,,,,,,,,
,,,,,,,,,,,,,FF,,,,,,,,2.083,,,,,,,,,,,,,,,,,,,,,,60fe439797c67fdd7643cabb,6103699ae74451882cc12807,2021-07-29_22h53.56.724,Simcolourproject_2stim_asymm_v5,2020.2.10,MacIntel,60,61025ae37ef11b136ea224fe,,,,,,,,,3613,50,-28,1,0,0,response3disk,,5,-1,3,1,0,0,rectangle,-1,3,1,0,0,-1,3,1,0,0,1,135,295,121,1,,,,,,,,
,,,,,,,,,,,,,FF,,,,,,,,1.617,,,,,,,,,,,,,,,,,,,,,,60fe439797c67fdd7643cabb,6103699ae74451882cc12807,2021-07-29_22h53.56.724,Simcolourproject_2stim_asymm_v5,2020.2.10,MacIntel,60,61025ae37ef11b136ea224fe,,,,,,,,,4220,54,-59,1,0,0,response3disk,,4,14,0,1,0,0,rectangle,14,0,1,0,0,14,0,1,0,0,1,136,296,97,1,,,,,,,,
,,,,,,,,,,,,,FF,,,,,,,,1.933,,,,,,,,,,,,,,,,,,,,,,60fe439797c67fdd7643cabb,6103699ae74451882cc12807,2021-07-29_22h53.56.724,Simcolourproject_2stim_asymm_v5,2020.2.10,MacIntel,60,61025ae37ef11b136ea224fe,,,,,,,,,1793,67,-27,1,0,0,response3disk,,5,19,-4,1,0,0,rectangle,19,-4,1,0,0,19,-4,1,0,0,1,137,297,1,1,,,,,,,,
,,,,,,,,,,,,,FF,,,,,,,,3.217,,,,,,,,,,,,,,,,,,,,,,60fe439797c67fdd7643cabb,6103699ae74451882cc12807,2021-07-29_22h53.56.724,Simcolourproject_2stim_asymm_v5,2020.2.10,MacIntel,60,61025ae37ef11b136ea224fe,,,,,,,,,882,79,-48,1,0,0,response3disk,,5,24,1,1,0,0,rectangle,24,1,1,0,0,24,1,1,0,0,1,138,298,94,1,,,,,,,,
,,,,,,,,,,,,,FF,,,,,,,,1.2,,,,,,,,,,,,,,,,,,,,,,60fe439797c67fdd7643cabb,6103699ae74451882cc12807,2021-07-29_22h53.56.724,Simcolourproject_2stim_asymm_v5,2020.2.10,MacIntel,60,61025ae37ef11b136ea224fe,,,,,,,,,63,91,34,1,0,0,response1disk,,6,-1,0,1,0,0,rectangle,-1,0,1,0,0,-1,0,1,0,0,1,139,299,91,1,,,,,,,,
,,,,,,,,,,,,,FF,,,,,,,,1.95,,,,,,,,,,,,,,,,,,,,,,60fe439797c67fdd7643cabb,6103699ae74451882cc12807,2021-07-29_22h53.56.724,Simcolourproject_2stim_asymm_v5,2020.2.10,MacIntel,60,61025ae37ef11b136ea224fe,,,,,,,,,64,58,74,1,0,0,response1disk,,7,18,-8,1,0,0,rectangle,18,-8,1,0,0,18,-8,1,0,0,1,140,300,3,1,,,,,,,,
,,,,,,,,,,,,,FF,,,,,,,,1.048,,,,,,,,,,,,,,,,,,,,,,60fe439797c67fdd7643cabb,6103699ae74451882cc12807,2021-07-29_22h53.56.724,Simcolourproject_2stim_asymm_v5,2020.2.10,MacIntel,60,61025ae37ef11b136ea224fe,,,,,,,,,4365,-75,37,1,0,0,response7disk,,1,5,3,1,0,0,rectangle,5,3,1,0,0,5,3,1,0,0,1,141,301,109,1,,,,,,,,
