key_resp.keys,key_resp.rt,key_resp_14.keys,key_resp_14.rt,key_resp_15.keys,key_resp_15.rt,key_resp_17.keys,key_resp_17.rt,key_resp_9.keys,key_resp_9.rt,key_resp_10.keys,key_resp_10.rt,practice_comparison,Ecc,mouse_5.x,mouse_5.y,mouse_5.leftButton,mouse_5.midButton,mouse_5.rightButton,mouse_5.clicked_name,pracsimilarity,response_time,mouse_10.x,mouse_10.y,mouse_10.leftButton,mouse_10.midButton,mouse_10.rightButton,mouse_10.clicked_name,mouse_7.x,mouse_7.y,mouse_7.leftButton,mouse_7.midButton,mouse_7.rightButton,mouse_6.x,mouse_6.y,mouse_6.leftButton,mouse_6.midButton,mouse_6.rightButton,duringprac.thisRepN,duringprac.thisTrialN,duringprac.thisN,duringprac.thisIndex,duringprac.ran,participant,session,date,expName,psychopyVersion,OS,frameRate,study_id,mouse_7.clicked_name,catchpracsimilarity,catch_response_time,catchnumberprac,catchtrialorderprac,mouse_6.clicked_name,key_resp_22.keys,key_resp_22.rt,realcomparison,mouse.x,mouse.y,mouse.leftButton,mouse.midButton,mouse.rightButton,mouse.clicked_name,Colour2,similarity,mouse_2.x,mouse_2.y,mouse_2.leftButton,mouse_2.midButton,mouse_2.rightButton,mouse_2.clicked_name,mouse_3.x,mouse_3.y,mouse_3.leftButton,mouse_3.midButton,mouse_3.rightButton,mouse_3.clicked_name,catchornah,catchsimilarity,catchnumber,catchtrialorder,catchRT,mouse_11.x,mouse_11.y,mouse_11.leftButton,mouse_11.midButton,mouse_11.rightButton,mouse_11.clicked_name,trials_2.thisRepN,trials_2.thisTrialN,trials_2.thisN,trials_2.thisIndex,trials_2.ran,Colour1
space,1.3008,space,20.3323,space,45.2864,space,4.0226,space,1.7559,space,2.5858,93,PF,90.96875,-53.265625,1,0,0,response3disk_5,5,4.1574,12.51171875,-0.3671875,1,0,0,rectangle_8,12.51171875,-0.3671875,1,0,0,12.51171875,-0.3671875,1,0,0,0,0,0,4,1,60fe2df6522f22abe083b9ef,61037937e8a09471b7dc0cfc,2021-07-29_21h00.44.177,Simcolourproject_2stim_asymm_v5,2020.2.10,MacIntel,60,61025ae37ef11b136ea224fe,,,,,,,,,,,,,,,,,,,,,,,,,,,,,,,,,,,,,,,,,,,,,,
,,,,,,,,,,,,148,PF,40.78515625,114.828125,1,0,0,response1disk_5,7,5.0235,-10.23046875,-6.4296875,1,0,0,rectangle_8,-28.140625,-91.29296875,1,0,0,3.7109375,-4.203125,1,0,0,0,1,1,6,1,60fe2df6522f22abe083b9ef,61037937e8a09471b7dc0cfc,2021-07-29_21h00.44.177,Simcolourproject_2stim_asymm_v5,2020.2.10,MacIntel,60,61025ae37ef11b136ea224fe,response5disk_7,3,2.1036,3,"[2,5]",rectangle_4,,,,,,,,,,,,,,,,,,,,,,,,,,,,,,,,,,,,,,,,
,,,,,,,,,,,,152,PF,-53.234375,30.06640625,1,0,0,response7disk_5,1,4.9089,32.58984375,-0.16796875,1,0,0,rectangle_8,32.58984375,-0.16796875,1,0,0,32.58984375,-0.16796875,1,0,0,0,2,2,1,1,60fe2df6522f22abe083b9ef,61037937e8a09471b7dc0cfc,2021-07-29_21h00.44.177,Simcolourproject_2stim_asymm_v5,2020.2.10,MacIntel,60,61025ae37ef11b136ea224fe,,,,,,,,,,,,,,,,,,,,,,,,,,,,,,,,,,,,,,,,,,,,,,
,,,,,,,,,,,,141,FF,32.58984375,79.296875,1,0,0,response1disk_5,7,4.2567,14.53125,4.66796875,1,0,0,rectangle_8,14.53125,4.66796875,1,0,0,14.53125,4.66796875,1,0,0,0,3,3,3,1,60fe2df6522f22abe083b9ef,61037937e8a09471b7dc0cfc,2021-07-29_21h00.44.177,Simcolourproject_2stim_asymm_v5,2020.2.10,MacIntel,60,61025ae37ef11b136ea224fe,,,,,,,,,,,,,,,,,,,,,,,,,,,,,,,,,,,,,,,,,,,,,,
,,,,,,,,,,,,89,PF,77.5546875,58.1953125,1,0,0,response1disk_5,6,2.8051,-12.5234375,-0.03125,1,0,0,rectangle_8,-29.8125,-91.8125,1,0,0,-12.6484375,-1.65625,1,0,0,0,4,4,2,1,60fe2df6522f22abe083b9ef,61037937e8a09471b7dc0cfc,2021-07-29_21h00.44.177,Simcolourproject_2stim_asymm_v5,2020.2.10,MacIntel,60,61025ae37ef11b136ea224fe,response5disk_7,3,1.385,3,"[2,5]",rectangle_4,,,,,,,,,,,,,,,,,,,,,,,,,,,,,,,,,,,,,,,,
,,,,,,,,,,,,82,FF,-28.56640625,-76.75,1,0,0,response5disk_5,3,6.211,-6.2734375,14.796875,1,0,0,rectangle_8,-6.2734375,14.796875,1,0,0,-6.2734375,14.796875,1,0,0,0,5,5,0,1,60fe2df6522f22abe083b9ef,61037937e8a09471b7dc0cfc,2021-07-29_21h00.44.177,Simcolourproject_2stim_asymm_v5,2020.2.10,MacIntel,60,61025ae37ef11b136ea224fe,,,,,,,,,,,,,,,,,,,,,,,,,,,,,,,,,,,,,,,,,,,,,,
,,,,,,,,,,,,108,FF,46.75,88.8984375,1,0,0,response1disk_5,7,3.1016,13.26953125,-11.20703125,1,0,0,rectangle_8,13.26953125,-11.20703125,1,0,0,13.26953125,-11.20703125,1,0,0,0,6,6,5,1,60fe2df6522f22abe083b9ef,61037937e8a09471b7dc0cfc,2021-07-29_21h00.44.177,Simcolourproject_2stim_asymm_v5,2020.2.10,MacIntel,60,61025ae37ef11b136ea224fe,,,,,,,,,,,,,,,,,,,,,,,,,,,,,,,,,,,,,,,,,,,,,,
,,,,,,,,,,,,,FF,,,,,,,,3.6571,,,,,,,,,,,,,,,,,,,,,,60fe2df6522f22abe083b9ef,61037937e8a09471b7dc0cfc,2021-07-29_21h00.44.177,Simcolourproject_2stim_asymm_v5,2020.2.10,MacIntel,60,61025ae37ef11b136ea224fe,,,,,,,space,1.9695,858,-31.40234375,64.640625,1,0,0,response7disk,,0,0.70703125,2.1796875,1,0,0,rectangle,53.64453125,-30.296875,1,0,0,response3disk_3,TRUE,5,5,"[195,234,1,272,138,54,184,160,133,191,169,13,209,125,236,289,160,20,137,181]",2.1856,0.33984375,4.60546875,1,0,0,rectangle,0,0,0,147,1,
,,,,,,,,,,,,,FF,,,,,,,,8.6975,,,,,,,,,,,,,,,,,,,,,,60fe2df6522f22abe083b9ef,61037937e8a09471b7dc0cfc,2021-07-29_21h00.44.177,Simcolourproject_2stim_asymm_v5,2020.2.10,MacIntel,60,61025ae37ef11b136ea224fe,,,,,,,,,2947,42.5,-58.60546875,1,0,0,response3disk,,4,2.484375,-2.58203125,1,0,0,rectangle,2.484375,-2.58203125,1,0,0,,,,,,,2.484375,-2.58203125,1,0,0,,0,1,1,126,1,
,,,,,,,,,,,,,FF,,,,,,,,2.4871,,,,,,,,,,,,,,,,,,,,,,60fe2df6522f22abe083b9ef,61037937e8a09471b7dc0cfc,2021-07-29_21h00.44.177,Simcolourproject_2stim_asymm_v5,2020.2.10,MacIntel,60,61025ae37ef11b136ea224fe,,,,,,,,,2249,23.04296875,-75.1640625,1,0,0,response3disk,,4,-18.21484375,-5.734375,1,0,0,rectangle,-18.21484375,-5.734375,1,0,0,,,,,,,-18.21484375,-5.734375,1,0,0,,0,2,2,121,1,
,,,,,,,,,,,,,FF,,,,,,,,2.5539,,,,,,,,,,,,,,,,,,,,,,60fe2df6522f22abe083b9ef,61037937e8a09471b7dc0cfc,2021-07-29_21h00.44.177,Simcolourproject_2stim_asymm_v5,2020.2.10,MacIntel,60,61025ae37ef11b136ea224fe,,,,,,,,,1350,25.4453125,67.07421875,1,0,0,response1disk,,7,3.4296875,-7.125,1,0,0,rectangle,3.4296875,-7.125,1,0,0,,,,,,,3.4296875,-7.125,1,0,0,,0,3,3,80,1,
,,,,,,,,,,,,,FF,,,,,,,,3.7233,,,,,,,,,,,,,,,,,,,,,,60fe2df6522f22abe083b9ef,61037937e8a09471b7dc0cfc,2021-07-29_21h00.44.177,Simcolourproject_2stim_asymm_v5,2020.2.10,MacIntel,60,61025ae37ef11b136ea224fe,,,,,,,,,4317,32.4296875,-85.90625,1,0,0,response3disk,,4,-1.046875,4.85546875,1,0,0,rectangle,-1.046875,4.85546875,1,0,0,,,,,,,-1.046875,4.85546875,1,0,0,,0,4,4,2,1,
,,,,,,,,,,,,,FF,,,,,,,,3.7907,,,,,,,,,,,,,,,,,,,,,,60fe2df6522f22abe083b9ef,61037937e8a09471b7dc0cfc,2021-07-29_21h00.44.177,Simcolourproject_2stim_asymm_v5,2020.2.10,MacIntel,60,61025ae37ef11b136ea224fe,,,,,,,,,3739,44.64453125,109.7460938,1,0,0,response1disk,,7,-4.47265625,-10.2578125,1,0,0,rectangle,-4.47265625,-10.2578125,1,0,0,,,,,,,-4.47265625,-10.2578125,1,0,0,,0,5,5,106,1,
,,,,,,,,,,,,,FF,,,,,,,,3.0718,,,,,,,,,,,,,,,,,,,,,,60fe2df6522f22abe083b9ef,61037937e8a09471b7dc0cfc,2021-07-29_21h00.44.177,Simcolourproject_2stim_asymm_v5,2020.2.10,MacIntel,60,61025ae37ef11b136ea224fe,,,,,,,,,2753,47.8125,-66.5234375,1,0,0,response3disk,,4,-16.13671875,0.5546875,1,0,0,rectangle,-16.13671875,0.5546875,1,0,0,,,,,,,-16.13671875,0.5546875,1,0,0,,0,6,6,13,1,
,,,,,,,,,,,,,FF,,,,,,,,7.0795,,,,,,,,,,,,,,,,,,,,,,60fe2df6522f22abe083b9ef,61037937e8a09471b7dc0cfc,2021-07-29_21h00.44.177,Simcolourproject_2stim_asymm_v5,2020.2.10,MacIntel,60,61025ae37ef11b136ea224fe,,,,,,,,,1802,-26.67578125,-60.47265625,1,0,0,response5disk,,3,3.80078125,-2.19921875,1,0,0,rectangle,3.80078125,-2.19921875,1,0,0,,,,,,,3.80078125,-2.19921875,1,0,0,,0,7,7,41,1,
,,,,,,,,,,,,,FF,,,,,,,,3.3222,,,,,,,,,,,,,,,,,,,,,,60fe2df6522f22abe083b9ef,61037937e8a09471b7dc0cfc,2021-07-29_21h00.44.177,Simcolourproject_2stim_asymm_v5,2020.2.10,MacIntel,60,61025ae37ef11b136ea224fe,,,,,,,,,3640,45.09765625,72.65625,1,0,0,response1disk,,7,4.91796875,-2.2578125,1,0,0,rectangle,4.91796875,-2.2578125,1,0,0,,,,,,,4.91796875,-2.2578125,1,0,0,,0,8,8,55,1,
,,,,,,,,,,,,,FF,,,,,,,,1.7197,,,,,,,,,,,,,,,,,,,,,,60fe2df6522f22abe083b9ef,61037937e8a09471b7dc0cfc,2021-07-29_21h00.44.177,Simcolourproject_2stim_asymm_v5,2020.2.10,MacIntel,60,61025ae37ef11b136ea224fe,,,,,,,,,2990,-70.30078125,-45.6796875,1,0,0,response5disk,,2,-13.0703125,-9.05078125,1,0,0,rectangle,-13.0703125,-9.05078125,1,0,0,,,,,,,-13.0703125,-9.05078125,1,0,0,,0,9,9,104,1,
,,,,,,,,,,,,,FF,,,,,,,,1.7024,,,,,,,,,,,,,,,,,,,,,,60fe2df6522f22abe083b9ef,61037937e8a09471b7dc0cfc,2021-07-29_21h00.44.177,Simcolourproject_2stim_asymm_v5,2020.2.10,MacIntel,60,61025ae37ef11b136ea224fe,,,,,,,,,4181,-35.27734375,74.73046875,1,0,0,response7disk,,0,-14.0703125,3.625,1,0,0,rectangle,-14.0703125,3.625,1,0,0,,,,,,,-14.0703125,3.625,1,0,0,,0,10,10,72,1,
,,,,,,,,,,,,,FF,,,,,,,,1.853,,,,,,,,,,,,,,,,,,,,,,60fe2df6522f22abe083b9ef,61037937e8a09471b7dc0cfc,2021-07-29_21h00.44.177,Simcolourproject_2stim_asymm_v5,2020.2.10,MacIntel,60,61025ae37ef11b136ea224fe,,,,,,,,,902,-34.375,-75.3359375,1,0,0,response5disk,,3,-11.15234375,-0.140625,1,0,0,rectangle,-11.15234375,-0.140625,1,0,0,,,,,,,-11.15234375,-0.140625,1,0,0,,0,11,11,150,1,
,,,,,,,,,,,,,FF,,,,,,,,5.1084,,,,,,,,,,,,,,,,,,,,,,60fe2df6522f22abe083b9ef,61037937e8a09471b7dc0cfc,2021-07-29_21h00.44.177,Simcolourproject_2stim_asymm_v5,2020.2.10,MacIntel,60,61025ae37ef11b136ea224fe,,,,,,,,,1420,49.2109375,92.8984375,1,0,0,response1disk,,7,-1.640625,-6.21875,1,0,0,rectangle,-73.93359375,32.484375,1,0,0,response7disk_3,TRUE,1,1,"[195,234,1,272,138,54,184,160,133,191,169,13,209,125,236,289,160,20,137,181]",2.9217,-19.30078125,3.1875,1,0,0,rectangle,0,12,12,85,1,
,,,,,,,,,,,,,FF,,,,,,,,2.4862,,,,,,,,,,,,,,,,,,,,,,60fe2df6522f22abe083b9ef,61037937e8a09471b7dc0cfc,2021-07-29_21h00.44.177,Simcolourproject_2stim_asymm_v5,2020.2.10,MacIntel,60,61025ae37ef11b136ea224fe,,,,,,,,,4310,22.21875,71.15625,1,0,0,response1disk,,7,-1.0859375,13.79296875,1,0,0,rectangle,-1.0859375,13.79296875,1,0,0,,,,,,,-1.0859375,13.79296875,1,0,0,,0,13,13,110,1,
,,,,,,,,,,,,,FF,,,,,,,,1.7354,,,,,,,,,,,,,,,,,,,,,,60fe2df6522f22abe083b9ef,61037937e8a09471b7dc0cfc,2021-07-29_21h00.44.177,Simcolourproject_2stim_asymm_v5,2020.2.10,MacIntel,60,61025ae37ef11b136ea224fe,,,,,,,,,608,50.91015625,77.140625,1,0,0,response1disk,,7,23.8046875,-1.6171875,1,0,0,rectangle,23.8046875,-1.6171875,1,0,0,,,,,,,23.8046875,-1.6171875,1,0,0,,0,14,14,27,1,
,,,,,,,,,,,,,FF,,,,,,,,1.3185,,,,,,,,,,,,,,,,,,,,,,60fe2df6522f22abe083b9ef,61037937e8a09471b7dc0cfc,2021-07-29_21h00.44.177,Simcolourproject_2stim_asymm_v5,2020.2.10,MacIntel,60,61025ae37ef11b136ea224fe,,,,,,,,,281,-26.87109375,-60.375,1,0,0,response5disk,,3,-1.28125,5.5546875,1,0,0,rectangle,-1.28125,5.5546875,1,0,0,,,,,,,-1.28125,5.5546875,1,0,0,,0,15,15,102,1,
,,,,,,,,,,,,,FF,,,,,,,,4.5408,,,,,,,,,,,,,,,,,,,,,,60fe2df6522f22abe083b9ef,61037937e8a09471b7dc0cfc,2021-07-29_21h00.44.177,Simcolourproject_2stim_asymm_v5,2020.2.10,MacIntel,60,61025ae37ef11b136ea224fe,,,,,,,,,2607,-85.34375,26.61328125,1,0,0,response7disk,,1,-1.12109375,-10.92578125,1,0,0,rectangle,-1.12109375,-10.92578125,1,0,0,,,,,,,-1.12109375,-10.92578125,1,0,0,,0,16,16,144,1,
,,,,,,,,,,,,,FF,,,,,,,,4.6419,,,,,,,,,,,,,,,,,,,,,,60fe2df6522f22abe083b9ef,61037937e8a09471b7dc0cfc,2021-07-29_21h00.44.177,Simcolourproject_2stim_asymm_v5,2020.2.10,MacIntel,60,61025ae37ef11b136ea224fe,,,,,,,,,3246,68.2578125,-52.21484375,1,0,0,response3disk,,5,23.859375,6.828125,1,0,0,rectangle,23.859375,6.828125,1,0,0,,,,,,,23.859375,6.828125,1,0,0,,0,17,17,135,1,
,,,,,,,,,,,,,FF,,,,,,,,1.369,,,,,,,,,,,,,,,,,,,,,,60fe2df6522f22abe083b9ef,61037937e8a09471b7dc0cfc,2021-07-29_21h00.44.177,Simcolourproject_2stim_asymm_v5,2020.2.10,MacIntel,60,61025ae37ef11b136ea224fe,,,,,,,,,2232,70.140625,-40.015625,1,0,0,response3disk,,5,-29.40234375,11.25,1,0,0,rectangle,-29.40234375,11.25,1,0,0,,,,,,,-29.40234375,11.25,1,0,0,,0,18,18,22,1,
,,,,,,,,,,,,,FF,,,,,,,,2.4378,,,,,,,,,,,,,,,,,,,,,,60fe2df6522f22abe083b9ef,61037937e8a09471b7dc0cfc,2021-07-29_21h00.44.177,Simcolourproject_2stim_asymm_v5,2020.2.10,MacIntel,60,61025ae37ef11b136ea224fe,,,,,,,,,3974,46.65234375,-89.0390625,1,0,0,response3disk,,4,11.28515625,-5.83203125,1,0,0,rectangle,-89.0546875,-49.29296875,1,0,0,response5disk_3,TRUE,2,2,"[195,234,1,272,138,54,184,160,133,191,169,13,209,125,236,289,160,20,137,181]",1.6519,-0.75,2.55859375,1,0,0,rectangle,0,19,19,35,1,
,,,,,,,,,,,,,FF,,,,,,,,3.4729,,,,,,,,,,,,,,,,,,,,,,60fe2df6522f22abe083b9ef,61037937e8a09471b7dc0cfc,2021-07-29_21h00.44.177,Simcolourproject_2stim_asymm_v5,2020.2.10,MacIntel,60,61025ae37ef11b136ea224fe,,,,,,,,,1193,70.69921875,-61.984375,1,0,0,response3disk,,5,-6.48828125,0.1328125,1,0,0,rectangle,-6.48828125,0.1328125,1,0,0,,,,,,,-6.48828125,0.1328125,1,0,0,,0,20,20,152,1,
,,,,,,,,,,,,,FF,,,,,,,,2.2375,,,,,,,,,,,,,,,,,,,,,,60fe2df6522f22abe083b9ef,61037937e8a09471b7dc0cfc,2021-07-29_21h00.44.177,Simcolourproject_2stim_asymm_v5,2020.2.10,MacIntel,60,61025ae37ef11b136ea224fe,,,,,,,,,1336,34.7578125,-79.58203125,1,0,0,response3disk,,4,3.41015625,-8.59765625,1,0,0,rectangle,3.41015625,-8.59765625,1,0,0,,,,,,,3.41015625,-8.59765625,1,0,0,,0,21,21,18,1,
,,,,,,,,,,,,,FF,,,,,,,,10.2669,,,,,,,,,,,,,,,,,,,,,,60fe2df6522f22abe083b9ef,61037937e8a09471b7dc0cfc,2021-07-29_21h00.44.177,Simcolourproject_2stim_asymm_v5,2020.2.10,MacIntel,60,61025ae37ef11b136ea224fe,,,,,,,,,4178,86.6875,-55.875,1,0,0,response3disk,,5,6.453125,-13.34375,1,0,0,rectangle,6.453125,-13.34375,1,0,0,,,,,,,6.453125,-13.34375,1,0,0,,0,22,22,145,1,
,,,,,,,,,,,,,FF,,,,,,,,1.3851,,,,,,,,,,,,,,,,,,,,,,60fe2df6522f22abe083b9ef,61037937e8a09471b7dc0cfc,2021-07-29_21h00.44.177,Simcolourproject_2stim_asymm_v5,2020.2.10,MacIntel,60,61025ae37ef11b136ea224fe,,,,,,,,,4204,30.1171875,-69.6171875,1,0,0,response3disk,,4,5.41796875,-11.92578125,1,0,0,rectangle,5.41796875,-11.92578125,1,0,0,,,,,,,5.41796875,-11.92578125,1,0,0,,0,23,23,99,1,
,,,,,,,,,,,,,FF,,,,,,,,1.4195,,,,,,,,,,,,,,,,,,,,,,60fe2df6522f22abe083b9ef,61037937e8a09471b7dc0cfc,2021-07-29_21h00.44.177,Simcolourproject_2stim_asymm_v5,2020.2.10,MacIntel,60,61025ae37ef11b136ea224fe,,,,,,,,,1672,65.0234375,-21.1875,1,0,0,response3disk,,5,9.484375,-2.41015625,1,0,0,rectangle,9.484375,-2.41015625,1,0,0,,,,,,,9.484375,-2.41015625,1,0,0,,0,24,24,17,1,
,,,,,,,,,,,,,FF,,,,,,,,5.8599,,,,,,,,,,,,,,,,,,,,,,60fe2df6522f22abe083b9ef,61037937e8a09471b7dc0cfc,2021-07-29_21h00.44.177,Simcolourproject_2stim_asymm_v5,2020.2.10,MacIntel,60,61025ae37ef11b136ea224fe,,,,,,,,,195,80.36328125,-26.171875,1,0,0,response3disk,,5,10.1953125,-9.19921875,1,0,0,rectangle,10.1953125,-9.19921875,1,0,0,,,,,,,10.1953125,-9.19921875,1,0,0,,0,25,25,15,1,
,,,,,,,,,,,,,FF,,,,,,,,4.5572,,,,,,,,,,,,,,,,,,,,,,60fe2df6522f22abe083b9ef,61037937e8a09471b7dc0cfc,2021-07-29_21h00.44.177,Simcolourproject_2stim_asymm_v5,2020.2.10,MacIntel,60,61025ae37ef11b136ea224fe,,,,,,,,,1379,56.09765625,-37.63671875,1,0,0,response3disk,,5,22.765625,-4.33203125,1,0,0,rectangle,22.765625,-4.33203125,1,0,0,,,,,,,22.765625,-4.33203125,1,0,0,,0,26,26,48,1,
,,,,,,,,,,,,,FF,,,,,,,,1.5689,,,,,,,,,,,,,,,,,,,,,,60fe2df6522f22abe083b9ef,61037937e8a09471b7dc0cfc,2021-07-29_21h00.44.177,Simcolourproject_2stim_asymm_v5,2020.2.10,MacIntel,60,61025ae37ef11b136ea224fe,,,,,,,,,1043,57.91015625,-35.87109375,1,0,0,response3disk,,5,6.15625,-8.41796875,1,0,0,rectangle,6.15625,-8.41796875,1,0,0,,,,,,,6.15625,-8.41796875,1,0,0,,0,27,27,76,1,
,,,,,,,,,,,,,FF,,,,,,,,1.836,,,,,,,,,,,,,,,,,,,,,,60fe2df6522f22abe083b9ef,61037937e8a09471b7dc0cfc,2021-07-29_21h00.44.177,Simcolourproject_2stim_asymm_v5,2020.2.10,MacIntel,60,61025ae37ef11b136ea224fe,,,,,,,,,2195,76.35546875,17.00390625,1,0,0,response1disk,,6,16.08203125,1.45703125,1,0,0,rectangle,16.08203125,1.45703125,1,0,0,,,,,,,16.08203125,1.45703125,1,0,0,,0,28,28,77,1,
,,,,,,,,,,,,,FF,,,,,,,,0.9863,,,,,,,,,,,,,,,,,,,,,,60fe2df6522f22abe083b9ef,61037937e8a09471b7dc0cfc,2021-07-29_21h00.44.177,Simcolourproject_2stim_asymm_v5,2020.2.10,MacIntel,60,61025ae37ef11b136ea224fe,,,,,,,,,3823,38.40625,79.98046875,1,0,0,response1disk,,7,0.74609375,8.70703125,1,0,0,rectangle,0.74609375,8.70703125,1,0,0,,,,,,,0.74609375,8.70703125,1,0,0,,0,29,29,43,1,
,,,,,,,,,,,,,FF,,,,,,,,0.9842,,,,,,,,,,,,,,,,,,,,,,60fe2df6522f22abe083b9ef,61037937e8a09471b7dc0cfc,2021-07-29_21h00.44.177,Simcolourproject_2stim_asymm_v5,2020.2.10,MacIntel,60,61025ae37ef11b136ea224fe,,,,,,,,,3326,23.75390625,62.48828125,1,0,0,response1disk,,7,-19.453125,-8.0234375,1,0,0,rectangle,-19.453125,-8.0234375,1,0,0,,,,,,,-19.453125,-8.0234375,1,0,0,,0,30,30,123,1,
,,,,,,,,,,,,,FF,,,,,,,,1.1348,,,,,,,,,,,,,,,,,,,,,,60fe2df6522f22abe083b9ef,61037937e8a09471b7dc0cfc,2021-07-29_21h00.44.177,Simcolourproject_2stim_asymm_v5,2020.2.10,MacIntel,60,61025ae37ef11b136ea224fe,,,,,,,,,900,117.390625,48.8125,1,0,0,response1disk,,6,16.3125,-1.16015625,1,0,0,rectangle,16.3125,-1.16015625,1,0,0,,,,,,,16.3125,-1.16015625,1,0,0,,0,31,31,67,1,
,,,,,,,,,,,,,FF,,,,,,,,1.001,,,,,,,,,,,,,,,,,,,,,,60fe2df6522f22abe083b9ef,61037937e8a09471b7dc0cfc,2021-07-29_21h00.44.177,Simcolourproject_2stim_asymm_v5,2020.2.10,MacIntel,60,61025ae37ef11b136ea224fe,,,,,,,,,520,70.60546875,-32.7578125,1,0,0,response3disk,,5,-2.90234375,-11.89453125,1,0,0,rectangle,-2.90234375,-11.89453125,1,0,0,,,,,,,-2.90234375,-11.89453125,1,0,0,,0,32,32,117,1,
,,,,,,,,,,,,,FF,,,,,,,,1.2355,,,,,,,,,,,,,,,,,,,,,,60fe2df6522f22abe083b9ef,61037937e8a09471b7dc0cfc,2021-07-29_21h00.44.177,Simcolourproject_2stim_asymm_v5,2020.2.10,MacIntel,60,61025ae37ef11b136ea224fe,,,,,,,,,93,-33.09375,58.99609375,1,0,0,response7disk,,0,2.19140625,-6.36328125,1,0,0,rectangle,2.19140625,-6.36328125,1,0,0,,,,,,,2.19140625,-6.36328125,1,0,0,,0,33,33,142,1,
,,,,,,,,,,,,,FF,,,,,,,,3.6887,,,,,,,,,,,,,,,,,,,,,,60fe2df6522f22abe083b9ef,61037937e8a09471b7dc0cfc,2021-07-29_21h00.44.177,Simcolourproject_2stim_asymm_v5,2020.2.10,MacIntel,60,61025ae37ef11b136ea224fe,,,,,,,,,1182,31.1328125,84.46484375,1,0,0,response1disk,,7,18.953125,7.375,1,0,0,rectangle,18.953125,7.375,1,0,0,,,,,,,18.953125,7.375,1,0,0,,0,34,34,98,1,
,,,,,,,,,,,,,FF,,,,,,,,1.0522,,,,,,,,,,,,,,,,,,,,,,60fe2df6522f22abe083b9ef,61037937e8a09471b7dc0cfc,2021-07-29_21h00.44.177,Simcolourproject_2stim_asymm_v5,2020.2.10,MacIntel,60,61025ae37ef11b136ea224fe,,,,,,,,,3787,61.3046875,30.63671875,1,0,0,response1disk,,6,-10.0703125,-3.09375,1,0,0,rectangle,-10.0703125,-3.09375,1,0,0,,,,,,,-10.0703125,-3.09375,1,0,0,,0,35,35,96,1,
,,,,,,,,,,,,,FF,,,,,,,,1.5519,,,,,,,,,,,,,,,,,,,,,,60fe2df6522f22abe083b9ef,61037937e8a09471b7dc0cfc,2021-07-29_21h00.44.177,Simcolourproject_2stim_asymm_v5,2020.2.10,MacIntel,60,61025ae37ef11b136ea224fe,,,,,,,,,1717,78.359375,31.609375,1,0,0,response1disk,,6,7.26171875,-9.078125,1,0,0,rectangle,7.26171875,-9.078125,1,0,0,,,,,,,7.26171875,-9.078125,1,0,0,,0,36,36,26,1,
,,,,,,,,,,,,,FF,,,,,,,,1.6356,,,,,,,,,,,,,,,,,,,,,,60fe2df6522f22abe083b9ef,61037937e8a09471b7dc0cfc,2021-07-29_21h00.44.177,Simcolourproject_2stim_asymm_v5,2020.2.10,MacIntel,60,61025ae37ef11b136ea224fe,,,,,,,,,3453,75.90234375,24.68359375,1,0,0,response1disk,,6,9.625,-14.4453125,1,0,0,rectangle,9.625,-14.4453125,1,0,0,,,,,,,9.625,-14.4453125,1,0,0,,0,37,37,122,1,
,,,,,,,,,,,,,FF,,,,,,,,1.8197,,,,,,,,,,,,,,,,,,,,,,60fe2df6522f22abe083b9ef,61037937e8a09471b7dc0cfc,2021-07-29_21h00.44.177,Simcolourproject_2stim_asymm_v5,2020.2.10,MacIntel,60,61025ae37ef11b136ea224fe,,,,,,,,,2640,30.69921875,78.95703125,1,0,0,response1disk,,7,29.0859375,-3.15625,1,0,0,rectangle,29.0859375,-3.15625,1,0,0,,,,,,,29.0859375,-3.15625,1,0,0,,0,38,38,149,1,
,,,,,,,,,,,,,FF,,,,,,,,2.4038,,,,,,,,,,,,,,,,,,,,,,60fe2df6522f22abe083b9ef,61037937e8a09471b7dc0cfc,2021-07-29_21h00.44.177,Simcolourproject_2stim_asymm_v5,2020.2.10,MacIntel,60,61025ae37ef11b136ea224fe,,,,,,,,,3038,-80.34375,38.265625,1,0,0,response7disk,,1,4.48828125,-0.390625,1,0,0,rectangle,4.48828125,-0.390625,1,0,0,,,,,,,4.48828125,-0.390625,1,0,0,,0,39,39,114,1,
,,,,,,,,,,,,,FF,,,,,,,,4.9742,,,,,,,,,,,,,,,,,,,,,,60fe2df6522f22abe083b9ef,61037937e8a09471b7dc0cfc,2021-07-29_21h00.44.177,Simcolourproject_2stim_asymm_v5,2020.2.10,MacIntel,60,61025ae37ef11b136ea224fe,,,,,,,,,3751,84.25390625,44.046875,1,0,0,response1disk,,6,33.9609375,-9.68359375,1,0,0,rectangle,33.9609375,-9.68359375,1,0,0,,,,,,,33.9609375,-9.68359375,1,0,0,,0,40,40,146,1,
,,,,,,,,,,,,,FF,,,,,,,,1.8366,,,,,,,,,,,,,,,,,,,,,,60fe2df6522f22abe083b9ef,61037937e8a09471b7dc0cfc,2021-07-29_21h00.44.177,Simcolourproject_2stim_asymm_v5,2020.2.10,MacIntel,60,61025ae37ef11b136ea224fe,,,,,,,,,2309,44.15234375,73.15625,1,0,0,response1disk,,7,26.68359375,13.7109375,1,0,0,rectangle,26.68359375,13.7109375,1,0,0,,,,,,,26.68359375,13.7109375,1,0,0,,0,41,41,81,1,
,,,,,,,,,,,,,FF,,,,,,,,1.0686,,,,,,,,,,,,,,,,,,,,,,60fe2df6522f22abe083b9ef,61037937e8a09471b7dc0cfc,2021-07-29_21h00.44.177,Simcolourproject_2stim_asymm_v5,2020.2.10,MacIntel,60,61025ae37ef11b136ea224fe,,,,,,,,,2963,37.0078125,62.43359375,1,0,0,response1disk,,7,9.4453125,-1.6015625,1,0,0,rectangle,9.4453125,-1.6015625,1,0,0,,,,,,,9.4453125,-1.6015625,1,0,0,,0,42,42,64,1,
,,,,,,,,,,,,,FF,,,,,,,,1.3186,,,,,,,,,,,,,,,,,,,,,,60fe2df6522f22abe083b9ef,61037937e8a09471b7dc0cfc,2021-07-29_21h00.44.177,Simcolourproject_2stim_asymm_v5,2020.2.10,MacIntel,60,61025ae37ef11b136ea224fe,,,,,,,,,1197,70.42578125,-35.24609375,1,0,0,response3disk,,5,-0.37890625,-9.70703125,1,0,0,rectangle,-0.37890625,-9.70703125,1,0,0,,,,,,,-0.37890625,-9.70703125,1,0,0,,0,43,43,45,1,
,,,,,,,,,,,,,FF,,,,,,,,1.0688,,,,,,,,,,,,,,,,,,,,,,60fe2df6522f22abe083b9ef,61037937e8a09471b7dc0cfc,2021-07-29_21h00.44.177,Simcolourproject_2stim_asymm_v5,2020.2.10,MacIntel,60,61025ae37ef11b136ea224fe,,,,,,,,,322,40.75,-25.734375,1,0,0,response3disk,,5,0.47265625,2.02734375,1,0,0,rectangle,0.47265625,2.02734375,1,0,0,,,,,,,0.47265625,2.02734375,1,0,0,,0,44,44,118,1,
,,,,,,,,,,,,,FF,,,,,,,,3.8391,,,,,,,,,,,,,,,,,,,,,,60fe2df6522f22abe083b9ef,61037937e8a09471b7dc0cfc,2021-07-29_21h00.44.177,Simcolourproject_2stim_asymm_v5,2020.2.10,MacIntel,60,61025ae37ef11b136ea224fe,,,,,,,,,3683,74.00390625,32.64453125,1,0,0,response1disk,,6,-1.875,10.9140625,1,0,0,rectangle,-1.875,10.9140625,1,0,0,,,,,,,-1.875,10.9140625,1,0,0,,0,45,45,100,1,
,,,,,,,,,,,,,FF,,,,,,,,1.1005,,,,,,,,,,,,,,,,,,,,,,60fe2df6522f22abe083b9ef,61037937e8a09471b7dc0cfc,2021-07-29_21h00.44.177,Simcolourproject_2stim_asymm_v5,2020.2.10,MacIntel,60,61025ae37ef11b136ea224fe,,,,,,,,,2821,26.39453125,65.609375,1,0,0,response1disk,,7,3.04296875,14.4765625,1,0,0,rectangle,3.04296875,14.4765625,1,0,0,,,,,,,3.04296875,14.4765625,1,0,0,,0,46,46,94,1,
,,,,,,,,,,,,,FF,,,,,,,,2.3879,,,,,,,,,,,,,,,,,,,,,,60fe2df6522f22abe083b9ef,61037937e8a09471b7dc0cfc,2021-07-29_21h00.44.177,Simcolourproject_2stim_asymm_v5,2020.2.10,MacIntel,60,61025ae37ef11b136ea224fe,,,,,,,,,2650,44.890625,-80.1640625,1,0,0,response3disk,,4,-3.98828125,-1.21875,1,0,0,rectangle,-3.98828125,-1.21875,1,0,0,,,,,,,-3.98828125,-1.21875,1,0,0,,0,47,47,39,1,
,,,,,,,,,,,,,FF,,,,,,,,1.5018,,,,,,,,,,,,,,,,,,,,,,60fe2df6522f22abe083b9ef,61037937e8a09471b7dc0cfc,2021-07-29_21h00.44.177,Simcolourproject_2stim_asymm_v5,2020.2.10,MacIntel,60,61025ae37ef11b136ea224fe,,,,,,,,,736,28.43359375,-79.09375,1,0,0,response3disk,,4,5.484375,-12.7109375,1,0,0,rectangle,5.484375,-12.7109375,1,0,0,,,,,,,5.484375,-12.7109375,1,0,0,,0,48,48,7,1,
,,,,,,,,,,,,,FF,,,,,,,,0.9687,,,,,,,,,,,,,,,,,,,,,,60fe2df6522f22abe083b9ef,61037937e8a09471b7dc0cfc,2021-07-29_21h00.44.177,Simcolourproject_2stim_asymm_v5,2020.2.10,MacIntel,60,61025ae37ef11b136ea224fe,,,,,,,,,572,46.625,78.796875,1,0,0,response1disk,,7,20.6015625,4.40234375,1,0,0,rectangle,20.6015625,4.40234375,1,0,0,,,,,,,20.6015625,4.40234375,1,0,0,,0,49,49,83,1,
,,,,,,,,,,,,,FF,,,,,,,,2.0695,,,,,,,,,,,,,,,,,,,,,,60fe2df6522f22abe083b9ef,61037937e8a09471b7dc0cfc,2021-07-29_21h00.44.177,Simcolourproject_2stim_asymm_v5,2020.2.10,MacIntel,60,61025ae37ef11b136ea224fe,,,,,,,,,1964,71.22265625,26.22265625,1,0,0,response1disk,,6,-3.8515625,5.63671875,1,0,0,rectangle,-3.8515625,5.63671875,1,0,0,,,,,,,-3.8515625,5.63671875,1,0,0,,0,50,50,6,1,
,,,,,,,,,,,,,FF,,,,,,,,2.0024,,,,,,,,,,,,,,,,,,,,,,60fe2df6522f22abe083b9ef,61037937e8a09471b7dc0cfc,2021-07-29_21h00.44.177,Simcolourproject_2stim_asymm_v5,2020.2.10,MacIntel,60,61025ae37ef11b136ea224fe,,,,,,,,,1664,22.37109375,-64.11328125,1,0,0,response3disk,,4,-2.9296875,-0.86328125,1,0,0,rectangle,-2.9296875,-0.86328125,1,0,0,,,,,,,-2.9296875,-0.86328125,1,0,0,,0,51,51,47,1,
,,,,,,,,,,,,,FF,,,,,,,,1.9355,,,,,,,,,,,,,,,,,,,,,,60fe2df6522f22abe083b9ef,61037937e8a09471b7dc0cfc,2021-07-29_21h00.44.177,Simcolourproject_2stim_asymm_v5,2020.2.10,MacIntel,60,61025ae37ef11b136ea224fe,,,,,,,,,3147,-50.765625,-86.94140625,1,0,0,response5disk,,3,-21.4375,4.66015625,1,0,0,rectangle,-21.4375,4.66015625,1,0,0,,,,,,,-21.4375,4.66015625,1,0,0,,0,52,52,109,1,
,,,,,,,,,,,,,FF,,,,,,,,1.5854,,,,,,,,,,,,,,,,,,,,,,60fe2df6522f22abe083b9ef,61037937e8a09471b7dc0cfc,2021-07-29_21h00.44.177,Simcolourproject_2stim_asymm_v5,2020.2.10,MacIntel,60,61025ae37ef11b136ea224fe,,,,,,,,,1132,81.953125,29.66015625,1,0,0,response1disk,,6,32.8984375,12.18359375,1,0,0,rectangle,85.7734375,-32.94140625,1,0,0,response3disk_3,TRUE,5,5,"[195,234,1,272,138,54,184,160,133,191,169,13,209,125,236,289,160,20,137,181]",2.4705,2.0546875,6.2421875,1,0,0,rectangle,0,53,53,36,1,
,,,,,,,,,,,,,FF,,,,,,,,1.0193,,,,,,,,,,,,,,,,,,,,,,60fe2df6522f22abe083b9ef,61037937e8a09471b7dc0cfc,2021-07-29_21h00.44.177,Simcolourproject_2stim_asymm_v5,2020.2.10,MacIntel,60,61025ae37ef11b136ea224fe,,,,,,,,,3336,-37.8515625,100.296875,1,0,0,response7disk,,0,4.80078125,-8.66796875,1,0,0,rectangle,4.80078125,-8.66796875,1,0,0,,,,,,,4.80078125,-8.66796875,1,0,0,,0,54,54,92,1,
,,,,,,,,,,,,,FF,,,,,,,,1.6185,,,,,,,,,,,,,,,,,,,,,,60fe2df6522f22abe083b9ef,61037937e8a09471b7dc0cfc,2021-07-29_21h00.44.177,Simcolourproject_2stim_asymm_v5,2020.2.10,MacIntel,60,61025ae37ef11b136ea224fe,,,,,,,,,197,-97.0625,-37.90234375,1,0,0,response5disk,,2,9.171875,5.640625,1,0,0,rectangle,9.171875,5.640625,1,0,0,,,,,,,9.171875,5.640625,1,0,0,,0,55,55,32,1,
,,,,,,,,,,,,,FF,,,,,,,,2.3037,,,,,,,,,,,,,,,,,,,,,,60fe2df6522f22abe083b9ef,61037937e8a09471b7dc0cfc,2021-07-29_21h00.44.177,Simcolourproject_2stim_asymm_v5,2020.2.10,MacIntel,60,61025ae37ef11b136ea224fe,,,,,,,,,1407,44.015625,84.03125,1,0,0,response1disk,,7,8.74609375,-7.90625,1,0,0,rectangle,8.74609375,-7.90625,1,0,0,,,,,,,8.74609375,-7.90625,1,0,0,,0,56,56,128,1,
,,,,,,,,,,,,,FF,,,,,,,,4.4739,,,,,,,,,,,,,,,,,,,,,,60fe2df6522f22abe083b9ef,61037937e8a09471b7dc0cfc,2021-07-29_21h00.44.177,Simcolourproject_2stim_asymm_v5,2020.2.10,MacIntel,60,61025ae37ef11b136ea224fe,,,,,,,,,738,48.41796875,76.4140625,1,0,0,response1disk,,7,-18.0078125,-12.7578125,1,0,0,rectangle,-18.0078125,-12.7578125,1,0,0,,,,,,,-18.0078125,-12.7578125,1,0,0,,0,57,57,66,1,
,,,,,,,,,,,,,FF,,,,,,,,1.0351,,,,,,,,,,,,,,,,,,,,,,60fe2df6522f22abe083b9ef,61037937e8a09471b7dc0cfc,2021-07-29_21h00.44.177,Simcolourproject_2stim_asymm_v5,2020.2.10,MacIntel,60,61025ae37ef11b136ea224fe,,,,,,,,,2333,65.5546875,-36.88671875,1,0,0,response3disk,,5,-22.01953125,-6.75,1,0,0,rectangle,-22.01953125,-6.75,1,0,0,,,,,,,-22.01953125,-6.75,1,0,0,,0,58,58,115,1,
,,,,,,,,,,,,,FF,,,,,,,,1.002,,,,,,,,,,,,,,,,,,,,,,60fe2df6522f22abe083b9ef,61037937e8a09471b7dc0cfc,2021-07-29_21h00.44.177,Simcolourproject_2stim_asymm_v5,2020.2.10,MacIntel,60,61025ae37ef11b136ea224fe,,,,,,,,,4255,76.5859375,-29.67578125,1,0,0,response3disk,,5,-12.5859375,-15.61328125,1,0,0,rectangle,-12.5859375,-15.61328125,1,0,0,,,,,,,-12.5859375,-15.61328125,1,0,0,,0,59,59,124,1,
,,,,,,,,,,,,,FF,,,,,,,,1.3524,,,,,,,,,,,,,,,,,,,,,,60fe2df6522f22abe083b9ef,61037937e8a09471b7dc0cfc,2021-07-29_21h00.44.177,Simcolourproject_2stim_asymm_v5,2020.2.10,MacIntel,60,61025ae37ef11b136ea224fe,,,,,,,,,660,29.90234375,-87.80859375,1,0,0,response3disk,,4,-12.69140625,-15.3359375,1,0,0,rectangle,-12.69140625,-15.3359375,1,0,0,,,,,,,-12.69140625,-15.3359375,1,0,0,,0,60,60,53,1,
,,,,,,,,,,,,,FF,,,,,,,,0.9019,,,,,,,,,,,,,,,,,,,,,,60fe2df6522f22abe083b9ef,61037937e8a09471b7dc0cfc,2021-07-29_21h00.44.177,Simcolourproject_2stim_asymm_v5,2020.2.10,MacIntel,60,61025ae37ef11b136ea224fe,,,,,,,,,1353,38.3125,-86.29296875,1,0,0,response3disk,,4,5.91796875,-0.79296875,1,0,0,rectangle,5.91796875,-0.79296875,1,0,0,,,,,,,5.91796875,-0.79296875,1,0,0,,0,61,61,138,1,
,,,,,,,,,,,,,FF,,,,,,,,4.0234,,,,,,,,,,,,,,,,,,,,,,60fe2df6522f22abe083b9ef,61037937e8a09471b7dc0cfc,2021-07-29_21h00.44.177,Simcolourproject_2stim_asymm_v5,2020.2.10,MacIntel,60,61025ae37ef11b136ea224fe,,,,,,,,,3252,-29.93359375,-100.0351563,1,0,0,response5disk,,3,-7.63671875,6.6875,1,0,0,rectangle,-7.63671875,6.6875,1,0,0,,,,,,,-7.63671875,6.6875,1,0,0,,0,62,62,82,1,
,,,,,,,,,,,,,FF,,,,,,,,1.168,,,,,,,,,,,,,,,,,,,,,,60fe2df6522f22abe083b9ef,61037937e8a09471b7dc0cfc,2021-07-29_21h00.44.177,Simcolourproject_2stim_asymm_v5,2020.2.10,MacIntel,60,61025ae37ef11b136ea224fe,,,,,,,,,1558,30.51953125,-71.4375,1,0,0,response3disk,,4,8.578125,-8.10546875,1,0,0,rectangle,8.578125,-8.10546875,1,0,0,,,,,,,8.578125,-8.10546875,1,0,0,,0,63,63,42,1,
,,,,,,,,,,,,,FF,,,,,,,,2.1541,,,,,,,,,,,,,,,,,,,,,,60fe2df6522f22abe083b9ef,61037937e8a09471b7dc0cfc,2021-07-29_21h00.44.177,Simcolourproject_2stim_asymm_v5,2020.2.10,MacIntel,60,61025ae37ef11b136ea224fe,,,,,,,,,3870,39.453125,72.65625,1,0,0,response1disk,,7,-20.33984375,4.09765625,1,0,0,rectangle,-20.33984375,4.09765625,1,0,0,,,,,,,-20.33984375,4.09765625,1,0,0,,0,64,64,75,1,
,,,,,,,,,,,,,FF,,,,,,,,1.8867,,,,,,,,,,,,,,,,,,,,,,60fe2df6522f22abe083b9ef,61037937e8a09471b7dc0cfc,2021-07-29_21h00.44.177,Simcolourproject_2stim_asymm_v5,2020.2.10,MacIntel,60,61025ae37ef11b136ea224fe,,,,,,,,,670,17.92578125,53.83203125,1,0,0,response1disk,,7,-22.109375,-0.76171875,1,0,0,rectangle,-22.109375,-0.76171875,1,0,0,,,,,,,-22.109375,-0.76171875,1,0,0,,0,65,65,73,1,
,,,,,,,,,,,,,FF,,,,,,,,1.0183,,,,,,,,,,,,,,,,,,,,,,60fe2df6522f22abe083b9ef,61037937e8a09471b7dc0cfc,2021-07-29_21h00.44.177,Simcolourproject_2stim_asymm_v5,2020.2.10,MacIntel,60,61025ae37ef11b136ea224fe,,,,,,,,,616,56.26171875,-34.859375,1,0,0,response3disk,,5,4.10546875,-4.89453125,1,0,0,rectangle,4.10546875,-4.89453125,1,0,0,,,,,,,4.10546875,-4.89453125,1,0,0,,0,66,66,130,1,
,,,,,,,,,,,,,FF,,,,,,,,1.2356,,,,,,,,,,,,,,,,,,,,,,60fe2df6522f22abe083b9ef,61037937e8a09471b7dc0cfc,2021-07-29_21h00.44.177,Simcolourproject_2stim_asymm_v5,2020.2.10,MacIntel,60,61025ae37ef11b136ea224fe,,,,,,,,,3455,59.58984375,83.92578125,1,0,0,response1disk,,7,12.83203125,-7.0703125,1,0,0,rectangle,12.83203125,-7.0703125,1,0,0,,,,,,,12.83203125,-7.0703125,1,0,0,,0,67,67,34,1,
,,,,,,,,,,,,,FF,,,,,,,,0.8669,,,,,,,,,,,,,,,,,,,,,,60fe2df6522f22abe083b9ef,61037937e8a09471b7dc0cfc,2021-07-29_21h00.44.177,Simcolourproject_2stim_asymm_v5,2020.2.10,MacIntel,60,61025ae37ef11b136ea224fe,,,,,,,,,3092,56.359375,-35.5546875,1,0,0,response3disk,,5,5.37109375,0.02734375,1,0,0,rectangle,5.37109375,0.02734375,1,0,0,,,,,,,5.37109375,0.02734375,1,0,0,,0,68,68,148,1,
,,,,,,,,,,,,,FF,,,,,,,,2.9389,,,,,,,,,,,,,,,,,,,,,,60fe2df6522f22abe083b9ef,61037937e8a09471b7dc0cfc,2021-07-29_21h00.44.177,Simcolourproject_2stim_asymm_v5,2020.2.10,MacIntel,60,61025ae37ef11b136ea224fe,,,,,,,,,3712,-52.921875,-89.51171875,1,0,0,response5disk,,3,-14.56640625,0.9765625,1,0,0,rectangle,-14.56640625,0.9765625,1,0,0,,,,,,,-14.56640625,0.9765625,1,0,0,,0,69,69,155,1,
,,,,,,,,,,,,,FF,,,,,,,,0.7858,,,,,,,,,,,,,,,,,,,,,,60fe2df6522f22abe083b9ef,61037937e8a09471b7dc0cfc,2021-07-29_21h00.44.177,Simcolourproject_2stim_asymm_v5,2020.2.10,MacIntel,60,61025ae37ef11b136ea224fe,,,,,,,,,3477,-42.01953125,-89.96875,1,0,0,response5disk,,3,-23.578125,-3.4921875,1,0,0,rectangle,-23.578125,-3.4921875,1,0,0,,,,,,,-23.578125,-3.4921875,1,0,0,,0,70,70,132,1,
,,,,,,,,,,,,,FF,,,,,,,,1.3192,,,,,,,,,,,,,,,,,,,,,,60fe2df6522f22abe083b9ef,61037937e8a09471b7dc0cfc,2021-07-29_21h00.44.177,Simcolourproject_2stim_asymm_v5,2020.2.10,MacIntel,60,61025ae37ef11b136ea224fe,,,,,,,,,2310,70.71484375,-35.3515625,1,0,0,response3disk,,5,-0.98828125,6.8671875,1,0,0,rectangle,-0.98828125,6.8671875,1,0,0,,,,,,,-0.98828125,6.8671875,1,0,0,,0,71,71,159,1,
,,,,,,,,,,,,,FF,,,,,,,,1.5025,,,,,,,,,,,,,,,,,,,,,,60fe2df6522f22abe083b9ef,61037937e8a09471b7dc0cfc,2021-07-29_21h00.44.177,Simcolourproject_2stim_asymm_v5,2020.2.10,MacIntel,60,61025ae37ef11b136ea224fe,,,,,,,,,1740,78.3203125,34.1171875,1,0,0,response1disk,,6,-20.0625,14.109375,1,0,0,rectangle,-20.0625,14.109375,1,0,0,,,,,,,-20.0625,14.109375,1,0,0,,0,72,72,60,1,
,,,,,,,,,,,,,FF,,,,,,,,1.6027,,,,,,,,,,,,,,,,,,,,,,60fe2df6522f22abe083b9ef,61037937e8a09471b7dc0cfc,2021-07-29_21h00.44.177,Simcolourproject_2stim_asymm_v5,2020.2.10,MacIntel,60,61025ae37ef11b136ea224fe,,,,,,,,,565,-34.484375,-92.2578125,1,0,0,response5disk,,3,-8.40625,-6.4765625,1,0,0,rectangle,-8.40625,-6.4765625,1,0,0,,,,,,,-8.40625,-6.4765625,1,0,0,,0,73,73,93,1,
,,,,,,,,,,,,,FF,,,,,,,,1.2191,,,,,,,,,,,,,,,,,,,,,,60fe2df6522f22abe083b9ef,61037937e8a09471b7dc0cfc,2021-07-29_21h00.44.177,Simcolourproject_2stim_asymm_v5,2020.2.10,MacIntel,60,61025ae37ef11b136ea224fe,,,,,,,,,3118,76.82421875,-37.56640625,1,0,0,response3disk,,5,25.30078125,-7.78125,1,0,0,rectangle,25.30078125,-7.78125,1,0,0,,,,,,,25.30078125,-7.78125,1,0,0,,0,74,74,9,1,
,,,,,,,,,,,,,FF,,,,,,,,2.203,,,,,,,,,,,,,,,,,,,,,,60fe2df6522f22abe083b9ef,61037937e8a09471b7dc0cfc,2021-07-29_21h00.44.177,Simcolourproject_2stim_asymm_v5,2020.2.10,MacIntel,60,61025ae37ef11b136ea224fe,,,,,,,,,3097,-87.5859375,20.06640625,1,0,0,response7disk,,1,-1.1875,4.0859375,1,0,0,rectangle,-1.1875,4.0859375,1,0,0,,,,,,,-1.1875,4.0859375,1,0,0,,0,75,75,38,1,
,,,,,,,,,,,,,FF,,,,,,,,5.7275,,,,,,,,,,,,,,,,,,,,,,60fe2df6522f22abe083b9ef,61037937e8a09471b7dc0cfc,2021-07-29_21h00.44.177,Simcolourproject_2stim_asymm_v5,2020.2.10,MacIntel,60,61025ae37ef11b136ea224fe,,,,,,,,,2321,26.9609375,-94.3671875,1,0,0,response3disk,,4,-9.06640625,-2.37890625,1,0,0,rectangle,-9.06640625,-2.37890625,1,0,0,,,,,,,-9.06640625,-2.37890625,1,0,0,,0,76,76,141,1,
,,,,,,,,,,,,,FF,,,,,,,,1.8691,,,,,,,,,,,,,,,,,,,,,,60fe2df6522f22abe083b9ef,61037937e8a09471b7dc0cfc,2021-07-29_21h00.44.177,Simcolourproject_2stim_asymm_v5,2020.2.10,MacIntel,60,61025ae37ef11b136ea224fe,,,,,,,,,2433,71.171875,42.69921875,1,0,0,response1disk,,6,26.41796875,9.39453125,1,0,0,rectangle,26.41796875,9.39453125,1,0,0,,,,,,,26.41796875,9.39453125,1,0,0,,0,77,77,49,1,
,,,,,,,,,,,,,FF,,,,,,,,0.8181,,,,,,,,,,,,,,,,,,,,,,60fe2df6522f22abe083b9ef,61037937e8a09471b7dc0cfc,2021-07-29_21h00.44.177,Simcolourproject_2stim_asymm_v5,2020.2.10,MacIntel,60,61025ae37ef11b136ea224fe,,,,,,,,,792,38.5859375,90.91796875,1,0,0,response1disk,,7,0.2578125,-6.31640625,1,0,0,rectangle,0.2578125,-6.31640625,1,0,0,,,,,,,0.2578125,-6.31640625,1,0,0,,0,78,78,4,1,
,,,,,,,,,,,,,FF,,,,,,,,2.153,,,,,,,,,,,,,,,,,,,,,,60fe2df6522f22abe083b9ef,61037937e8a09471b7dc0cfc,2021-07-29_21h00.44.177,Simcolourproject_2stim_asymm_v5,2020.2.10,MacIntel,60,61025ae37ef11b136ea224fe,,,,,,,,,45,80.4453125,-28.30859375,1,0,0,response3disk,,5,15.7890625,3.140625,1,0,0,rectangle,15.7890625,3.140625,1,0,0,,,,,,,15.7890625,3.140625,1,0,0,,0,79,79,125,1,
,,,,,,,,,,,,,FF,,,,,,,,5.3086,,,,,,,,,,,,,,,,,,,,,,60fe2df6522f22abe083b9ef,61037937e8a09471b7dc0cfc,2021-07-29_21h00.44.177,Simcolourproject_2stim_asymm_v5,2020.2.10,MacIntel,60,61025ae37ef11b136ea224fe,,,,,,,,,469,27.83984375,-80.1796875,1,0,0,response3disk,,4,-4.08203125,3.8203125,1,0,0,rectangle,-4.08203125,3.8203125,1,0,0,,,,,,,-4.08203125,3.8203125,1,0,0,,0,80,80,129,1,
,,,,,,,,,,,,,FF,,,,,,,,1.3023,,,,,,,,,,,,,,,,,,,,,,60fe2df6522f22abe083b9ef,61037937e8a09471b7dc0cfc,2021-07-29_21h00.44.177,Simcolourproject_2stim_asymm_v5,2020.2.10,MacIntel,60,61025ae37ef11b136ea224fe,,,,,,,,,2764,43.4921875,76.43359375,1,0,0,response1disk,,7,12.41015625,-7.796875,1,0,0,rectangle,12.41015625,-7.796875,1,0,0,,,,,,,12.41015625,-7.796875,1,0,0,,0,81,81,119,1,
,,,,,,,,,,,,,FF,,,,,,,,1.5696,,,,,,,,,,,,,,,,,,,,,,60fe2df6522f22abe083b9ef,61037937e8a09471b7dc0cfc,2021-07-29_21h00.44.177,Simcolourproject_2stim_asymm_v5,2020.2.10,MacIntel,60,61025ae37ef11b136ea224fe,,,,,,,,,617,86.296875,37.27734375,1,0,0,response1disk,,6,4.3046875,-14.21484375,1,0,0,rectangle,4.3046875,-14.21484375,1,0,0,,,,,,,4.3046875,-14.21484375,1,0,0,,0,82,82,69,1,
,,,,,,,,,,,,,FF,,,,,,,,1.5862,,,,,,,,,,,,,,,,,,,,,,60fe2df6522f22abe083b9ef,61037937e8a09471b7dc0cfc,2021-07-29_21h00.44.177,Simcolourproject_2stim_asymm_v5,2020.2.10,MacIntel,60,61025ae37ef11b136ea224fe,,,,,,,,,1708,87.16796875,-34.578125,1,0,0,response3disk,,5,22.91015625,-4.59375,1,0,0,rectangle,22.91015625,-4.59375,1,0,0,,,,,,,22.91015625,-4.59375,1,0,0,,0,83,83,156,1,
,,,,,,,,,,,,,FF,,,,,,,,9.4162,,,,,,,,,,,,,,,,,,,,,,60fe2df6522f22abe083b9ef,61037937e8a09471b7dc0cfc,2021-07-29_21h00.44.177,Simcolourproject_2stim_asymm_v5,2020.2.10,MacIntel,60,61025ae37ef11b136ea224fe,,,,,,,,,1787,16.171875,86.26953125,1,0,0,response1disk,,7,12.96484375,2.82421875,1,0,0,rectangle,12.96484375,2.82421875,1,0,0,,,,,,,12.96484375,2.82421875,1,0,0,,0,84,84,105,1,
,,,,,,,,,,,,,FF,,,,,,,,1.0183,,,,,,,,,,,,,,,,,,,,,,60fe2df6522f22abe083b9ef,61037937e8a09471b7dc0cfc,2021-07-29_21h00.44.177,Simcolourproject_2stim_asymm_v5,2020.2.10,MacIntel,60,61025ae37ef11b136ea224fe,,,,,,,,,4270,79.98828125,-31.4921875,1,0,0,response3disk,,5,29.70703125,-3.69140625,1,0,0,rectangle,29.70703125,-3.69140625,1,0,0,,,,,,,29.70703125,-3.69140625,1,0,0,,0,85,85,97,1,
,,,,,,,,,,,,,FF,,,,,,,,2.9884,,,,,,,,,,,,,,,,,,,,,,60fe2df6522f22abe083b9ef,61037937e8a09471b7dc0cfc,2021-07-29_21h00.44.177,Simcolourproject_2stim_asymm_v5,2020.2.10,MacIntel,60,61025ae37ef11b136ea224fe,,,,,,,,,4115,33.28515625,-70.734375,1,0,0,response3disk,,4,10.25,-12.1171875,1,0,0,rectangle,10.25,-12.1171875,1,0,0,,,,,,,10.25,-12.1171875,1,0,0,,0,86,86,86,1,
,,,,,,,,,,,,,FF,,,,,,,,1.1023,,,,,,,,,,,,,,,,,,,,,,60fe2df6522f22abe083b9ef,61037937e8a09471b7dc0cfc,2021-07-29_21h00.44.177,Simcolourproject_2stim_asymm_v5,2020.2.10,MacIntel,60,61025ae37ef11b136ea224fe,,,,,,,,,200,73.30859375,28.08203125,1,0,0,response1disk,,6,-3.90625,1.50390625,1,0,0,rectangle,-3.90625,1.50390625,1,0,0,,,,,,,-3.90625,1.50390625,1,0,0,,0,87,87,154,1,
,,,,,,,,,,,,,FF,,,,,,,,0.9344,,,,,,,,,,,,,,,,,,,,,,60fe2df6522f22abe083b9ef,61037937e8a09471b7dc0cfc,2021-07-29_21h00.44.177,Simcolourproject_2stim_asymm_v5,2020.2.10,MacIntel,60,61025ae37ef11b136ea224fe,,,,,,,,,3456,35.64453125,72.0625,1,0,0,response1disk,,7,-2.29296875,2.12890625,1,0,0,rectangle,-2.29296875,2.12890625,1,0,0,,,,,,,-2.29296875,2.12890625,1,0,0,,0,88,88,37,1,
,,,,,,,,,,,,,FF,,,,,,,,1.2862,,,,,,,,,,,,,,,,,,,,,,60fe2df6522f22abe083b9ef,61037937e8a09471b7dc0cfc,2021-07-29_21h00.44.177,Simcolourproject_2stim_asymm_v5,2020.2.10,MacIntel,60,61025ae37ef11b136ea224fe,,,,,,,,,3625,-70.52734375,-36.21875,1,0,0,response5disk,,2,1.99609375,-5.94140625,1,0,0,rectangle,1.99609375,-5.94140625,1,0,0,,,,,,,1.99609375,-5.94140625,1,0,0,,0,89,89,87,1,
,,,,,,,,,,,,,FF,,,,,,,,1.7527,,,,,,,,,,,,,,,,,,,,,,60fe2df6522f22abe083b9ef,61037937e8a09471b7dc0cfc,2021-07-29_21h00.44.177,Simcolourproject_2stim_asymm_v5,2020.2.10,MacIntel,60,61025ae37ef11b136ea224fe,,,,,,,,,2450,59.48046875,45.0859375,1,0,0,response1disk,,6,-16.76953125,6.04296875,1,0,0,rectangle,-16.76953125,6.04296875,1,0,0,,,,,,,-16.76953125,6.04296875,1,0,0,,0,90,90,31,1,
,,,,,,,,,,,,,FF,,,,,,,,2.3862,,,,,,,,,,,,,,,,,,,,,,60fe2df6522f22abe083b9ef,61037937e8a09471b7dc0cfc,2021-07-29_21h00.44.177,Simcolourproject_2stim_asymm_v5,2020.2.10,MacIntel,60,61025ae37ef11b136ea224fe,,,,,,,,,990,-77.0703125,-55.1953125,1,0,0,response5disk,,2,13.03515625,-1.10546875,1,0,0,rectangle,13.03515625,-1.10546875,1,0,0,,,,,,,13.03515625,-1.10546875,1,0,0,,0,91,91,89,1,
,,,,,,,,,,,,,FF,,,,,,,,1.4523,,,,,,,,,,,,,,,,,,,,,,60fe2df6522f22abe083b9ef,61037937e8a09471b7dc0cfc,2021-07-29_21h00.44.177,Simcolourproject_2stim_asymm_v5,2020.2.10,MacIntel,60,61025ae37ef11b136ea224fe,,,,,,,,,1790,60.01953125,30.34765625,1,0,0,response1disk,,6,23.03515625,-0.8828125,1,0,0,rectangle,23.03515625,-0.8828125,1,0,0,,,,,,,23.03515625,-0.8828125,1,0,0,,0,92,92,79,1,
,,,,,,,,,,,,,FF,,,,,,,,1.7864,,,,,,,,,,,,,,,,,,,,,,60fe2df6522f22abe083b9ef,61037937e8a09471b7dc0cfc,2021-07-29_21h00.44.177,Simcolourproject_2stim_asymm_v5,2020.2.10,MacIntel,60,61025ae37ef11b136ea224fe,,,,,,,,,2955,-99.15234375,-48.20703125,1,0,0,response5disk,,2,-22.3984375,-1.54296875,1,0,0,rectangle,-22.3984375,-1.54296875,1,0,0,,,,,,,-22.3984375,-1.54296875,1,0,0,,0,93,93,51,1,
,,,,,,,,,,,,,FF,,,,,,,,1.0354,,,,,,,,,,,,,,,,,,,,,,60fe2df6522f22abe083b9ef,61037937e8a09471b7dc0cfc,2021-07-29_21h00.44.177,Simcolourproject_2stim_asymm_v5,2020.2.10,MacIntel,60,61025ae37ef11b136ea224fe,,,,,,,,,941,42.64453125,-66.53515625,1,0,0,response3disk,,4,27.203125,-10.69921875,1,0,0,rectangle,27.203125,-10.69921875,1,0,0,,,,,,,27.203125,-10.69921875,1,0,0,,0,94,94,12,1,
,,,,,,,,,,,,,FF,,,,,,,,1.5186,,,,,,,,,,,,,,,,,,,,,,60fe2df6522f22abe083b9ef,61037937e8a09471b7dc0cfc,2021-07-29_21h00.44.177,Simcolourproject_2stim_asymm_v5,2020.2.10,MacIntel,60,61025ae37ef11b136ea224fe,,,,,,,,,3655,31.0625,78.46484375,1,0,0,response1disk,,7,-10.7578125,-0.109375,1,0,0,rectangle,-10.7578125,-0.109375,1,0,0,,,,,,,-10.7578125,-0.109375,1,0,0,,0,95,95,50,1,
,,,,,,,,,,,,,FF,,,,,,,,4.0394,,,,,,,,,,,,,,,,,,,,,,60fe2df6522f22abe083b9ef,61037937e8a09471b7dc0cfc,2021-07-29_21h00.44.177,Simcolourproject_2stim_asymm_v5,2020.2.10,MacIntel,60,61025ae37ef11b136ea224fe,,,,,,,,,2435,26.39453125,39.0078125,1,0,0,response1disk,,7,4.00390625,-13.25390625,1,0,0,rectangle,4.00390625,-13.25390625,1,0,0,,,,,,,4.00390625,-13.25390625,1,0,0,,0,96,96,95,1,
,,,,,,,,,,,,,FF,,,,,,,,1.4194,,,,,,,,,,,,,,,,,,,,,,60fe2df6522f22abe083b9ef,61037937e8a09471b7dc0cfc,2021-07-29_21h00.44.177,Simcolourproject_2stim_asymm_v5,2020.2.10,MacIntel,60,61025ae37ef11b136ea224fe,,,,,,,,,4358,-75.24609375,34.90625,1,0,0,response7disk,,1,-5.0703125,9.7109375,1,0,0,rectangle,-5.0703125,9.7109375,1,0,0,,,,,,,-5.0703125,9.7109375,1,0,0,,0,97,97,91,1,
,,,,,,,,,,,,,FF,,,,,,,,2.5706,,,,,,,,,,,,,,,,,,,,,,60fe2df6522f22abe083b9ef,61037937e8a09471b7dc0cfc,2021-07-29_21h00.44.177,Simcolourproject_2stim_asymm_v5,2020.2.10,MacIntel,60,61025ae37ef11b136ea224fe,,,,,,,,,1849,76.42578125,15.83984375,1,0,0,response1disk,,6,5.75390625,-12.65625,1,0,0,rectangle,5.75390625,-12.65625,1,0,0,,,,,,,5.75390625,-12.65625,1,0,0,,0,98,98,71,1,
,,,,,,,,,,,,,FF,,,,,,,,0.9353,,,,,,,,,,,,,,,,,,,,,,60fe2df6522f22abe083b9ef,61037937e8a09471b7dc0cfc,2021-07-29_21h00.44.177,Simcolourproject_2stim_asymm_v5,2020.2.10,MacIntel,60,61025ae37ef11b136ea224fe,,,,,,,,,4344,-39.41015625,80.7265625,1,0,0,response7disk,,0,-13.91796875,0.53515625,1,0,0,rectangle,-13.91796875,0.53515625,1,0,0,,,,,,,-13.91796875,0.53515625,1,0,0,,0,99,99,151,1,
,,,,,,,,,,,,,FF,,,,,,,,3.2378,,,,,,,,,,,,,,,,,,,,,,60fe2df6522f22abe083b9ef,61037937e8a09471b7dc0cfc,2021-07-29_21h00.44.177,Simcolourproject_2stim_asymm_v5,2020.2.10,MacIntel,60,61025ae37ef11b136ea224fe,,,,,,,,,414,42.55078125,82.41796875,1,0,0,response1disk,,7,5.984375,-7.0546875,1,0,0,rectangle,5.984375,-7.0546875,1,0,0,,,,,,,5.984375,-7.0546875,1,0,0,,0,100,100,84,1,
,,,,,,,,,,,,,FF,,,,,,,,1.2523,,,,,,,,,,,,,,,,,,,,,,60fe2df6522f22abe083b9ef,61037937e8a09471b7dc0cfc,2021-07-29_21h00.44.177,Simcolourproject_2stim_asymm_v5,2020.2.10,MacIntel,60,61025ae37ef11b136ea224fe,,,,,,,,,2211,49.2890625,-16.36328125,1,0,0,response3disk,,5,4.4296875,-4.83203125,1,0,0,rectangle,4.4296875,-4.83203125,1,0,0,,,,,,,4.4296875,-4.83203125,1,0,0,,0,101,101,8,1,
,,,,,,,,,,,,,FF,,,,,,,,1.82,,,,,,,,,,,,,,,,,,,,,,60fe2df6522f22abe083b9ef,61037937e8a09471b7dc0cfc,2021-07-29_21h00.44.177,Simcolourproject_2stim_asymm_v5,2020.2.10,MacIntel,60,61025ae37ef11b136ea224fe,,,,,,,,,43,68.2421875,-31.66015625,1,0,0,response3disk,,5,9.19921875,-0.86328125,1,0,0,rectangle,9.19921875,-0.86328125,1,0,0,,,,,,,9.19921875,-0.86328125,1,0,0,,0,102,102,21,1,
,,,,,,,,,,,,,FF,,,,,,,,0.8506,,,,,,,,,,,,,,,,,,,,,,60fe2df6522f22abe083b9ef,61037937e8a09471b7dc0cfc,2021-07-29_21h00.44.177,Simcolourproject_2stim_asymm_v5,2020.2.10,MacIntel,60,61025ae37ef11b136ea224fe,,,,,,,,,3259,-33.1953125,-60.90234375,1,0,0,response5disk,,3,8.43359375,-8.6640625,1,0,0,rectangle,8.43359375,-8.6640625,1,0,0,,,,,,,8.43359375,-8.6640625,1,0,0,,0,103,103,57,1,
,,,,,,,,,,,,,FF,,,,,,,,21.6514,,,,,,,,,,,,,,,,,,,,,,60fe2df6522f22abe083b9ef,61037937e8a09471b7dc0cfc,2021-07-29_21h00.44.177,Simcolourproject_2stim_asymm_v5,2020.2.10,MacIntel,60,61025ae37ef11b136ea224fe,,,,,,,,,3303,73.375,-40.421875,1,0,0,response3disk,,5,3.34765625,-2.16015625,1,0,0,rectangle,3.34765625,-2.16015625,1,0,0,,,,,,,3.34765625,-2.16015625,1,0,0,,0,104,104,0,1,
,,,,,,,,,,,,,FF,,,,,,,,1.3366,,,,,,,,,,,,,,,,,,,,,,60fe2df6522f22abe083b9ef,61037937e8a09471b7dc0cfc,2021-07-29_21h00.44.177,Simcolourproject_2stim_asymm_v5,2020.2.10,MacIntel,60,61025ae37ef11b136ea224fe,,,,,,,,,2104,68.05859375,-42.9140625,1,0,0,response3disk,,5,9.98828125,-1.1796875,1,0,0,rectangle,9.98828125,-1.1796875,1,0,0,,,,,,,9.98828125,-1.1796875,1,0,0,,0,105,105,134,1,
,,,,,,,,,,,,,FF,,,,,,,,0.8675,,,,,,,,,,,,,,,,,,,,,,60fe2df6522f22abe083b9ef,61037937e8a09471b7dc0cfc,2021-07-29_21h00.44.177,Simcolourproject_2stim_asymm_v5,2020.2.10,MacIntel,60,61025ae37ef11b136ea224fe,,,,,,,,,137,84.05859375,-36.95703125,1,0,0,response3disk,,5,32.359375,5.484375,1,0,0,rectangle,32.359375,5.484375,1,0,0,,,,,,,32.359375,5.484375,1,0,0,,0,106,106,40,1,
,,,,,,,,,,,,,FF,,,,,,,,1.0682,,,,,,,,,,,,,,,,,,,,,,60fe2df6522f22abe083b9ef,61037937e8a09471b7dc0cfc,2021-07-29_21h00.44.177,Simcolourproject_2stim_asymm_v5,2020.2.10,MacIntel,60,61025ae37ef11b136ea224fe,,,,,,,,,3522,38.31640625,-78.32421875,1,0,0,response3disk,,4,3.69140625,-8.046875,1,0,0,rectangle,3.69140625,-8.046875,1,0,0,,,,,,,3.69140625,-8.046875,1,0,0,,0,107,107,44,1,
,,,,,,,,,,,,,FF,,,,,,,,0.8341,,,,,,,,,,,,,,,,,,,,,,60fe2df6522f22abe083b9ef,61037937e8a09471b7dc0cfc,2021-07-29_21h00.44.177,Simcolourproject_2stim_asymm_v5,2020.2.10,MacIntel,60,61025ae37ef11b136ea224fe,,,,,,,,,925,58.2109375,50.0546875,1,0,0,response1disk,,6,6.375,10.29296875,1,0,0,rectangle,6.375,10.29296875,1,0,0,,,,,,,6.375,10.29296875,1,0,0,,0,108,108,113,1,
,,,,,,,,,,,,,FF,,,,,,,,1.0192,,,,,,,,,,,,,,,,,,,,,,60fe2df6522f22abe083b9ef,61037937e8a09471b7dc0cfc,2021-07-29_21h00.44.177,Simcolourproject_2stim_asymm_v5,2020.2.10,MacIntel,60,61025ae37ef11b136ea224fe,,,,,,,,,2081,-28.8984375,-56.30859375,1,0,0,response5disk,,3,-1.21484375,1.13671875,1,0,0,rectangle,-1.21484375,1.13671875,1,0,0,,,,,,,-1.21484375,1.13671875,1,0,0,,0,109,109,111,1,
,,,,,,,,,,,,,FF,,,,,,,,1.3185,,,,,,,,,,,,,,,,,,,,,,60fe2df6522f22abe083b9ef,61037937e8a09471b7dc0cfc,2021-07-29_21h00.44.177,Simcolourproject_2stim_asymm_v5,2020.2.10,MacIntel,60,61025ae37ef11b136ea224fe,,,,,,,,,1658,41.65625,58.015625,1,0,0,response1disk,,7,11.05078125,9.2734375,1,0,0,rectangle,11.05078125,9.2734375,1,0,0,,,,,,,11.05078125,9.2734375,1,0,0,,0,110,110,19,1,
,,,,,,,,,,,,,FF,,,,,,,,3.7721,,,,,,,,,,,,,,,,,,,,,,60fe2df6522f22abe083b9ef,61037937e8a09471b7dc0cfc,2021-07-29_21h00.44.177,Simcolourproject_2stim_asymm_v5,2020.2.10,MacIntel,60,61025ae37ef11b136ea224fe,,,,,,,,,2767,41.74609375,60.05859375,1,0,0,response1disk,,7,17.80078125,-2.06640625,1,0,0,rectangle,17.80078125,-2.06640625,1,0,0,,,,,,,17.80078125,-2.06640625,1,0,0,,0,111,111,58,1,
,,,,,,,,,,,,,FF,,,,,,,,1.4022,,,,,,,,,,,,,,,,,,,,,,60fe2df6522f22abe083b9ef,61037937e8a09471b7dc0cfc,2021-07-29_21h00.44.177,Simcolourproject_2stim_asymm_v5,2020.2.10,MacIntel,60,61025ae37ef11b136ea224fe,,,,,,,,,379,31.28515625,58.79296875,1,0,0,response1disk,,7,7.578125,1.25,1,0,0,rectangle,7.578125,1.25,1,0,0,,,,,,,7.578125,1.25,1,0,0,,0,112,112,56,1,
,,,,,,,,,,,,,FF,,,,,,,,1.3365,,,,,,,,,,,,,,,,,,,,,,60fe2df6522f22abe083b9ef,61037937e8a09471b7dc0cfc,2021-07-29_21h00.44.177,Simcolourproject_2stim_asymm_v5,2020.2.10,MacIntel,60,61025ae37ef11b136ea224fe,,,,,,,,,1843,43.06640625,-21.62890625,1,0,0,response3disk,,5,12.4921875,15.0859375,1,0,0,rectangle,12.4921875,15.0859375,1,0,0,,,,,,,12.4921875,15.0859375,1,0,0,,0,113,113,127,1,
,,,,,,,,,,,,,FF,,,,,,,,1.2691,,,,,,,,,,,,,,,,,,,,,,60fe2df6522f22abe083b9ef,61037937e8a09471b7dc0cfc,2021-07-29_21h00.44.177,Simcolourproject_2stim_asymm_v5,2020.2.10,MacIntel,60,61025ae37ef11b136ea224fe,,,,,,,,,2294,44.14453125,-28.921875,1,0,0,response3disk,,5,16.1484375,5.53125,1,0,0,rectangle,16.1484375,5.53125,1,0,0,,,,,,,16.1484375,5.53125,1,0,0,,0,114,114,101,1,
,,,,,,,,,,,,,FF,,,,,,,,1.3855,,,,,,,,,,,,,,,,,,,,,,60fe2df6522f22abe083b9ef,61037937e8a09471b7dc0cfc,2021-07-29_21h00.44.177,Simcolourproject_2stim_asymm_v5,2020.2.10,MacIntel,60,61025ae37ef11b136ea224fe,,,,,,,,,2774,72.83203125,45.23046875,1,0,0,response1disk,,6,12.50390625,5.62890625,1,0,0,rectangle,12.50390625,5.62890625,1,0,0,,,,,,,12.50390625,5.62890625,1,0,0,,0,115,115,139,1,
,,,,,,,,,,,,,FF,,,,,,,,1.1515,,,,,,,,,,,,,,,,,,,,,,60fe2df6522f22abe083b9ef,61037937e8a09471b7dc0cfc,2021-07-29_21h00.44.177,Simcolourproject_2stim_asymm_v5,2020.2.10,MacIntel,60,61025ae37ef11b136ea224fe,,,,,,,,,2234,-26.7421875,-82.40234375,1,0,0,response5disk,,3,7.5703125,-8.40234375,1,0,0,rectangle,7.5703125,-8.40234375,1,0,0,,,,,,,7.5703125,-8.40234375,1,0,0,,0,116,116,3,1,
,,,,,,,,,,,,,FF,,,,,,,,2.8888,,,,,,,,,,,,,,,,,,,,,,60fe2df6522f22abe083b9ef,61037937e8a09471b7dc0cfc,2021-07-29_21h00.44.177,Simcolourproject_2stim_asymm_v5,2020.2.10,MacIntel,60,61025ae37ef11b136ea224fe,,,,,,,,,4244,42.4609375,-65.62890625,1,0,0,response3disk,,4,20.45703125,9.13671875,1,0,0,rectangle,20.45703125,9.13671875,1,0,0,,,,,,,20.45703125,9.13671875,1,0,0,,0,117,117,120,1,
,,,,,,,,,,,,,FF,,,,,,,,3.0549,,,,,,,,,,,,,,,,,,,,,,60fe2df6522f22abe083b9ef,61037937e8a09471b7dc0cfc,2021-07-29_21h00.44.177,Simcolourproject_2stim_asymm_v5,2020.2.10,MacIntel,60,61025ae37ef11b136ea224fe,,,,,,,,,1167,49.2421875,20.671875,1,0,0,response1disk,,6,15.80859375,-7.40625,1,0,0,rectangle,15.80859375,-7.40625,1,0,0,,,,,,,15.80859375,-7.40625,1,0,0,,0,118,118,153,1,
,,,,,,,,,,,,,FF,,,,,,,,0.8517,,,,,,,,,,,,,,,,,,,,,,60fe2df6522f22abe083b9ef,61037937e8a09471b7dc0cfc,2021-07-29_21h00.44.177,Simcolourproject_2stim_asymm_v5,2020.2.10,MacIntel,60,61025ae37ef11b136ea224fe,,,,,,,,,4062,30.1171875,58.05859375,1,0,0,response1disk,,7,2.34765625,3.1875,1,0,0,rectangle,2.34765625,3.1875,1,0,0,,,,,,,2.34765625,3.1875,1,0,0,,0,119,119,14,1,
,,,,,,,,,,,,,FF,,,,,,,,1.2864,,,,,,,,,,,,,,,,,,,,,,60fe2df6522f22abe083b9ef,61037937e8a09471b7dc0cfc,2021-07-29_21h00.44.177,Simcolourproject_2stim_asymm_v5,2020.2.10,MacIntel,60,61025ae37ef11b136ea224fe,,,,,,,,,1164,33.9140625,60.6171875,1,0,0,response1disk,,7,9.265625,-1.39453125,1,0,0,rectangle,9.265625,-1.39453125,1,0,0,,,,,,,9.265625,-1.39453125,1,0,0,,0,120,120,28,1,
,,,,,,,,,,,,,FF,,,,,,,,1.67,,,,,,,,,,,,,,,,,,,,,,60fe2df6522f22abe083b9ef,61037937e8a09471b7dc0cfc,2021-07-29_21h00.44.177,Simcolourproject_2stim_asymm_v5,2020.2.10,MacIntel,60,61025ae37ef11b136ea224fe,,,,,,,,,718,-26.4140625,-69.11328125,1,0,0,response5disk,,3,-9.171875,14.77734375,1,0,0,rectangle,-9.171875,14.77734375,1,0,0,,,,,,,-9.171875,14.77734375,1,0,0,,0,121,121,88,1,
,,,,,,,,,,,,,FF,,,,,,,,1.301,,,,,,,,,,,,,,,,,,,,,,60fe2df6522f22abe083b9ef,61037937e8a09471b7dc0cfc,2021-07-29_21h00.44.177,Simcolourproject_2stim_asymm_v5,2020.2.10,MacIntel,60,61025ae37ef11b136ea224fe,,,,,,,,,2400,55.41015625,51.19140625,1,0,0,response1disk,,6,-6.41015625,11.765625,1,0,0,rectangle,-6.41015625,11.765625,1,0,0,,,,,,,-6.41015625,11.765625,1,0,0,,0,122,122,33,1,
,,,,,,,,,,,,,FF,,,,,,,,1.7031,,,,,,,,,,,,,,,,,,,,,,60fe2df6522f22abe083b9ef,61037937e8a09471b7dc0cfc,2021-07-29_21h00.44.177,Simcolourproject_2stim_asymm_v5,2020.2.10,MacIntel,60,61025ae37ef11b136ea224fe,,,,,,,,,785,57.31640625,-29.46875,1,0,0,response3disk,,5,17.046875,-9.8203125,1,0,0,rectangle,17.046875,-9.8203125,1,0,0,,,,,,,17.046875,-9.8203125,1,0,0,,0,123,123,74,1,
,,,,,,,,,,,,,FF,,,,,,,,4.7408,,,,,,,,,,,,,,,,,,,,,,60fe2df6522f22abe083b9ef,61037937e8a09471b7dc0cfc,2021-07-29_21h00.44.177,Simcolourproject_2stim_asymm_v5,2020.2.10,MacIntel,60,61025ae37ef11b136ea224fe,,,,,,,,,1157,58.42578125,-36.5,1,0,0,response3disk,,5,17.609375,-7.1171875,1,0,0,rectangle,29.58203125,68.60546875,1,0,0,response1disk_3,TRUE,7,7,"[195,234,1,272,138,54,184,160,133,191,169,13,209,125,236,289,160,20,137,181]",1.5856,22.2734375,-7.796875,1,0,0,rectangle,0,124,124,143,1,
,,,,,,,,,,,,,FF,,,,,,,,3.9405,,,,,,,,,,,,,,,,,,,,,,60fe2df6522f22abe083b9ef,61037937e8a09471b7dc0cfc,2021-07-29_21h00.44.177,Simcolourproject_2stim_asymm_v5,2020.2.10,MacIntel,60,61025ae37ef11b136ea224fe,,,,,,,,,3805,52.1640625,40.69921875,1,0,0,response1disk,,6,4.47265625,-3.99609375,1,0,0,rectangle,4.47265625,-3.99609375,1,0,0,,,,,,,4.47265625,-3.99609375,1,0,0,,0,125,125,16,1,
,,,,,,,,,,,,,FF,,,,,,,,2.1201,,,,,,,,,,,,,,,,,,,,,,60fe2df6522f22abe083b9ef,61037937e8a09471b7dc0cfc,2021-07-29_21h00.44.177,Simcolourproject_2stim_asymm_v5,2020.2.10,MacIntel,60,61025ae37ef11b136ea224fe,,,,,,,,,2954,87.15234375,-54.32421875,1,0,0,response3disk,,5,13.65234375,-6.6796875,1,0,0,rectangle,13.65234375,-6.6796875,1,0,0,,,,,,,13.65234375,-6.6796875,1,0,0,,0,126,126,157,1,
,,,,,,,,,,,,,FF,,,,,,,,3.6392,,,,,,,,,,,,,,,,,,,,,,60fe2df6522f22abe083b9ef,61037937e8a09471b7dc0cfc,2021-07-29_21h00.44.177,Simcolourproject_2stim_asymm_v5,2020.2.10,MacIntel,60,61025ae37ef11b136ea224fe,,,,,,,,,1855,38.1875,83.0390625,1,0,0,response1disk,,7,4.90234375,6.48046875,1,0,0,rectangle,4.90234375,6.48046875,1,0,0,,,,,,,4.90234375,6.48046875,1,0,0,,0,127,127,137,1,
,,,,,,,,,,,,,FF,,,,,,,,7.6131,,,,,,,,,,,,,,,,,,,,,,60fe2df6522f22abe083b9ef,61037937e8a09471b7dc0cfc,2021-07-29_21h00.44.177,Simcolourproject_2stim_asymm_v5,2020.2.10,MacIntel,60,61025ae37ef11b136ea224fe,,,,,,,,,1995,64.26953125,43.6171875,1,0,0,response1disk,,6,7.16015625,-9.125,1,0,0,rectangle,7.16015625,-9.125,1,0,0,,,,,,,7.16015625,-9.125,1,0,0,,0,128,128,116,1,
,,,,,,,,,,,,,FF,,,,,,,,2.4868,,,,,,,,,,,,,,,,,,,,,,60fe2df6522f22abe083b9ef,61037937e8a09471b7dc0cfc,2021-07-29_21h00.44.177,Simcolourproject_2stim_asymm_v5,2020.2.10,MacIntel,60,61025ae37ef11b136ea224fe,,,,,,,,,2225,36.17578125,78.1328125,1,0,0,response1disk,,7,-1.41796875,-6.28515625,1,0,0,rectangle,-1.41796875,-6.28515625,1,0,0,,,,,,,-1.41796875,-6.28515625,1,0,0,,0,129,129,65,1,
,,,,,,,,,,,,,FF,,,,,,,,5.3921,,,,,,,,,,,,,,,,,,,,,,60fe2df6522f22abe083b9ef,61037937e8a09471b7dc0cfc,2021-07-29_21h00.44.177,Simcolourproject_2stim_asymm_v5,2020.2.10,MacIntel,60,61025ae37ef11b136ea224fe,,,,,,,,,3347,77.78125,-27.72265625,1,0,0,response3disk,,5,30.55859375,-11.17578125,1,0,0,rectangle,30.55859375,-11.17578125,1,0,0,,,,,,,30.55859375,-11.17578125,1,0,0,,0,130,130,131,1,
,,,,,,,,,,,,,FF,,,,,,,,1.5684,,,,,,,,,,,,,,,,,,,,,,60fe2df6522f22abe083b9ef,61037937e8a09471b7dc0cfc,2021-07-29_21h00.44.177,Simcolourproject_2stim_asymm_v5,2020.2.10,MacIntel,60,61025ae37ef11b136ea224fe,,,,,,,,,642,69.12109375,33.09375,1,0,0,response1disk,,6,13.4296875,-0.20703125,1,0,0,rectangle,13.4296875,-0.20703125,1,0,0,,,,,,,13.4296875,-0.20703125,1,0,0,,0,131,131,10,1,
,,,,,,,,,,,,,FF,,,,,,,,0.9841,,,,,,,,,,,,,,,,,,,,,,60fe2df6522f22abe083b9ef,61037937e8a09471b7dc0cfc,2021-07-29_21h00.44.177,Simcolourproject_2stim_asymm_v5,2020.2.10,MacIntel,60,61025ae37ef11b136ea224fe,,,,,,,,,3673,61.375,-37.203125,1,0,0,response3disk,,5,3.703125,-0.62109375,1,0,0,rectangle,46.6171875,60.95703125,1,0,0,response1disk_3,TRUE,7,7,"[195,234,1,272,138,54,184,160,133,191,169,13,209,125,236,289,160,20,137,181]",1.1022,7.171875,-8.64453125,1,0,0,rectangle,0,132,132,54,1,
,,,,,,,,,,,,,FF,,,,,,,,1.3022,,,,,,,,,,,,,,,,,,,,,,60fe2df6522f22abe083b9ef,61037937e8a09471b7dc0cfc,2021-07-29_21h00.44.177,Simcolourproject_2stim_asymm_v5,2020.2.10,MacIntel,60,61025ae37ef11b136ea224fe,,,,,,,,,136,36.05078125,-59.76953125,1,0,0,response3disk,,4,17.6171875,-0.31640625,1,0,0,rectangle,17.6171875,-0.31640625,1,0,0,,,,,,,17.6171875,-0.31640625,1,0,0,,0,133,133,5,1,
,,,,,,,,,,,,,FF,,,,,,,,1.0014,,,,,,,,,,,,,,,,,,,,,,60fe2df6522f22abe083b9ef,61037937e8a09471b7dc0cfc,2021-07-29_21h00.44.177,Simcolourproject_2stim_asymm_v5,2020.2.10,MacIntel,60,61025ae37ef11b136ea224fe,,,,,,,,,4180,68.078125,26.921875,1,0,0,response1disk,,6,20.10546875,10.00390625,1,0,0,rectangle,20.10546875,10.00390625,1,0,0,,,,,,,20.10546875,10.00390625,1,0,0,,0,134,134,63,1,
,,,,,,,,,,,,,FF,,,,,,,,17.4457,,,,,,,,,,,,,,,,,,,,,,60fe2df6522f22abe083b9ef,61037937e8a09471b7dc0cfc,2021-07-29_21h00.44.177,Simcolourproject_2stim_asymm_v5,2020.2.10,MacIntel,60,61025ae37ef11b136ea224fe,,,,,,,,,3513,61.76953125,-26.3671875,1,0,0,response3disk,,5,4.45703125,-8.42578125,1,0,0,rectangle,4.45703125,-8.42578125,1,0,0,,,,,,,4.45703125,-8.42578125,1,0,0,,0,135,135,25,1,
,,,,,,,,,,,,,FF,,,,,,,,5.7763,,,,,,,,,,,,,,,,,,,,,,60fe2df6522f22abe083b9ef,61037937e8a09471b7dc0cfc,2021-07-29_21h00.44.177,Simcolourproject_2stim_asymm_v5,2020.2.10,MacIntel,60,61025ae37ef11b136ea224fe,,,,,,,,,3559,57.94921875,-58.32421875,1,0,0,response3disk,,4,17.25390625,-6.88671875,1,0,0,rectangle,40.63671875,81.01171875,1,0,0,response1disk_3,TRUE,7,7,"[195,234,1,272,138,54,184,160,133,191,169,13,209,125,236,289,160,20,137,181]",1.2525,4.18359375,6.78125,1,0,0,rectangle,0,136,136,70,1,
,,,,,,,,,,,,,FF,,,,,,,,1.8045,,,,,,,,,,,,,,,,,,,,,,60fe2df6522f22abe083b9ef,61037937e8a09471b7dc0cfc,2021-07-29_21h00.44.177,Simcolourproject_2stim_asymm_v5,2020.2.10,MacIntel,60,61025ae37ef11b136ea224fe,,,,,,,,,901,39.62109375,-107.0273438,1,0,0,response3disk,,4,7.859375,-5.77734375,1,0,0,rectangle,-99.48046875,44.26953125,1,0,0,response7disk_3,TRUE,1,1,"[195,234,1,272,138,54,184,160,133,191,169,13,209,125,236,289,160,20,137,181]",1.5185,-18.06640625,-5.5625,1,0,0,rectangle,0,137,137,46,1,
,,,,,,,,,,,,,FF,,,,,,,,2.0363,,,,,,,,,,,,,,,,,,,,,,60fe2df6522f22abe083b9ef,61037937e8a09471b7dc0cfc,2021-07-29_21h00.44.177,Simcolourproject_2stim_asymm_v5,2020.2.10,MacIntel,60,61025ae37ef11b136ea224fe,,,,,,,,,3294,-25.30078125,-84.2734375,1,0,0,response5disk,,3,-2.44921875,8.1875,1,0,0,rectangle,-2.44921875,8.1875,1,0,0,,,,,,,-2.44921875,8.1875,1,0,0,,0,138,138,61,1,
,,,,,,,,,,,,,FF,,,,,,,,1.0018,,,,,,,,,,,,,,,,,,,,,,60fe2df6522f22abe083b9ef,61037937e8a09471b7dc0cfc,2021-07-29_21h00.44.177,Simcolourproject_2stim_asymm_v5,2020.2.10,MacIntel,60,61025ae37ef11b136ea224fe,,,,,,,,,1916,38.77734375,-71.78515625,1,0,0,response3disk,,4,12.10546875,-6.80078125,1,0,0,rectangle,12.10546875,-6.80078125,1,0,0,,,,,,,12.10546875,-6.80078125,1,0,0,,0,139,139,90,1,
,,,,,,,,,,,,,FF,,,,,,,,1.3855,,,,,,,,,,,,,,,,,,,,,,60fe2df6522f22abe083b9ef,61037937e8a09471b7dc0cfc,2021-07-29_21h00.44.177,Simcolourproject_2stim_asymm_v5,2020.2.10,MacIntel,60,61025ae37ef11b136ea224fe,,,,,,,,,2894,-93.8359375,29.00390625,1,0,0,response7disk,,1,-7.36328125,-8.83984375,1,0,0,rectangle,-7.36328125,-8.83984375,1,0,0,,,,,,,-7.36328125,-8.83984375,1,0,0,,0,140,140,52,1,
,,,,,,,,,,,,,FF,,,,,,,,1.5352,,,,,,,,,,,,,,,,,,,,,,60fe2df6522f22abe083b9ef,61037937e8a09471b7dc0cfc,2021-07-29_21h00.44.177,Simcolourproject_2stim_asymm_v5,2020.2.10,MacIntel,60,61025ae37ef11b136ea224fe,,,,,,,,,4292,56.671875,27.9609375,1,0,0,response1disk,,6,1.96875,-7.42578125,1,0,0,rectangle,1.96875,-7.42578125,1,0,0,,,,,,,1.96875,-7.42578125,1,0,0,,0,141,141,24,1,
,,,,,,,,,,,,,FF,,,,,,,,0.9683,,,,,,,,,,,,,,,,,,,,,,60fe2df6522f22abe083b9ef,61037937e8a09471b7dc0cfc,2021-07-29_21h00.44.177,Simcolourproject_2stim_asymm_v5,2020.2.10,MacIntel,60,61025ae37ef11b136ea224fe,,,,,,,,,3132,64.16796875,-41.9921875,1,0,0,response3disk,,5,-16.9140625,1.3515625,1,0,0,rectangle,-16.9140625,1.3515625,1,0,0,,,,,,,-16.9140625,1.3515625,1,0,0,,0,142,142,62,1,
,,,,,,,,,,,,,FF,,,,,,,,1.335,,,,,,,,,,,,,,,,,,,,,,60fe2df6522f22abe083b9ef,61037937e8a09471b7dc0cfc,2021-07-29_21h00.44.177,Simcolourproject_2stim_asymm_v5,2020.2.10,MacIntel,60,61025ae37ef11b136ea224fe,,,,,,,,,466,64.23046875,-46.88671875,1,0,0,response3disk,,5,13.4296875,-7.96484375,1,0,0,rectangle,13.4296875,-7.96484375,1,0,0,,,,,,,13.4296875,-7.96484375,1,0,0,,0,143,143,1,1,
,,,,,,,,,,,,,FF,,,,,,,,1.2192,,,,,,,,,,,,,,,,,,,,,,60fe2df6522f22abe083b9ef,61037937e8a09471b7dc0cfc,2021-07-29_21h00.44.177,Simcolourproject_2stim_asymm_v5,2020.2.10,MacIntel,60,61025ae37ef11b136ea224fe,,,,,,,,,4195,61.19140625,-45.33203125,1,0,0,response3disk,,5,7.90625,-5.39453125,1,0,0,rectangle,7.90625,-5.39453125,1,0,0,,,,,,,7.90625,-5.39453125,1,0,0,,0,144,144,140,1,
,,,,,,,,,,,,,FF,,,,,,,,0.9352,,,,,,,,,,,,,,,,,,,,,,60fe2df6522f22abe083b9ef,61037937e8a09471b7dc0cfc,2021-07-29_21h00.44.177,Simcolourproject_2stim_asymm_v5,2020.2.10,MacIntel,60,61025ae37ef11b136ea224fe,,,,,,,,,2926,30.01171875,-55.59375,1,0,0,response3disk,,4,23.34375,12.5234375,1,0,0,rectangle,23.34375,12.5234375,1,0,0,,,,,,,23.34375,12.5234375,1,0,0,,0,145,145,158,1,
,,,,,,,,,,,,,FF,,,,,,,,1.3354,,,,,,,,,,,,,,,,,,,,,,60fe2df6522f22abe083b9ef,61037937e8a09471b7dc0cfc,2021-07-29_21h00.44.177,Simcolourproject_2stim_asymm_v5,2020.2.10,MacIntel,60,61025ae37ef11b136ea224fe,,,,,,,,,1339,39.08203125,62.15234375,1,0,0,response1disk,,7,-2.1953125,1.671875,1,0,0,rectangle,-2.1953125,1.671875,1,0,0,,,,,,,-2.1953125,1.671875,1,0,0,,0,146,146,136,1,
,,,,,,,,,,,,,FF,,,,,,,,1.3692,,,,,,,,,,,,,,,,,,,,,,60fe2df6522f22abe083b9ef,61037937e8a09471b7dc0cfc,2021-07-29_21h00.44.177,Simcolourproject_2stim_asymm_v5,2020.2.10,MacIntel,60,61025ae37ef11b136ea224fe,,,,,,,,,3402,54.62109375,-21.23046875,1,0,0,response3disk,,5,-15.28125,-3.62109375,1,0,0,rectangle,-15.28125,-3.62109375,1,0,0,,,,,,,-15.28125,-3.62109375,1,0,0,,0,147,147,103,1,
,,,,,,,,,,,,,FF,,,,,,,,2.1529,,,,,,,,,,,,,,,,,,,,,,60fe2df6522f22abe083b9ef,61037937e8a09471b7dc0cfc,2021-07-29_21h00.44.177,Simcolourproject_2stim_asymm_v5,2020.2.10,MacIntel,60,61025ae37ef11b136ea224fe,,,,,,,,,4209,81.453125,-20.62890625,1,0,0,response3disk,,5,18.41796875,1.6953125,1,0,0,rectangle,18.41796875,1.6953125,1,0,0,,,,,,,18.41796875,1.6953125,1,0,0,,0,148,148,23,1,
,,,,,,,,,,,,,FF,,,,,,,,0.8343,,,,,,,,,,,,,,,,,,,,,,60fe2df6522f22abe083b9ef,61037937e8a09471b7dc0cfc,2021-07-29_21h00.44.177,Simcolourproject_2stim_asymm_v5,2020.2.10,MacIntel,60,61025ae37ef11b136ea224fe,,,,,,,,,1239,31.92578125,52.9375,1,0,0,response1disk,,7,8.9296875,-3.7578125,1,0,0,rectangle,8.9296875,-3.7578125,1,0,0,,,,,,,8.9296875,-3.7578125,1,0,0,,0,149,149,108,1,
,,,,,,,,,,,,,FF,,,,,,,,0.9843,,,,,,,,,,,,,,,,,,,,,,60fe2df6522f22abe083b9ef,61037937e8a09471b7dc0cfc,2021-07-29_21h00.44.177,Simcolourproject_2stim_asymm_v5,2020.2.10,MacIntel,60,61025ae37ef11b136ea224fe,,,,,,,,,2619,64.078125,-35.71875,1,0,0,response3disk,,5,-1.5546875,-2.38671875,1,0,0,rectangle,-1.5546875,-2.38671875,1,0,0,,,,,,,-1.5546875,-2.38671875,1,0,0,,0,150,150,20,1,
,,,,,,,,,,,,,FF,,,,,,,,1.3853,,,,,,,,,,,,,,,,,,,,,,60fe2df6522f22abe083b9ef,61037937e8a09471b7dc0cfc,2021-07-29_21h00.44.177,Simcolourproject_2stim_asymm_v5,2020.2.10,MacIntel,60,61025ae37ef11b136ea224fe,,,,,,,,,3971,61.33984375,21.6875,1,0,0,response1disk,,6,16.4765625,-1.875,1,0,0,rectangle,16.4765625,-1.875,1,0,0,,,,,,,16.4765625,-1.875,1,0,0,,0,151,151,112,1,
,,,,,,,,,,,,,FF,,,,,,,,0.9013,,,,,,,,,,,,,,,,,,,,,,60fe2df6522f22abe083b9ef,61037937e8a09471b7dc0cfc,2021-07-29_21h00.44.177,Simcolourproject_2stim_asymm_v5,2020.2.10,MacIntel,60,61025ae37ef11b136ea224fe,,,,,,,,,478,53.05859375,-29.4453125,1,0,0,response3disk,,5,9.1953125,-0.46875,1,0,0,rectangle,9.1953125,-0.46875,1,0,0,,,,,,,9.1953125,-0.46875,1,0,0,,0,152,152,133,1,
,,,,,,,,,,,,,FF,,,,,,,,1.1012,,,,,,,,,,,,,,,,,,,,,,60fe2df6522f22abe083b9ef,61037937e8a09471b7dc0cfc,2021-07-29_21h00.44.177,Simcolourproject_2stim_asymm_v5,2020.2.10,MacIntel,60,61025ae37ef11b136ea224fe,,,,,,,,,2068,32.1875,-59.7578125,1,0,0,response3disk,,4,30.109375,-1.0234375,1,0,0,rectangle,30.109375,-1.0234375,1,0,0,,,,,,,30.109375,-1.0234375,1,0,0,,0,153,153,78,1,
,,,,,,,,,,,,,FF,,,,,,,,1.2863,,,,,,,,,,,,,,,,,,,,,,60fe2df6522f22abe083b9ef,61037937e8a09471b7dc0cfc,2021-07-29_21h00.44.177,Simcolourproject_2stim_asymm_v5,2020.2.10,MacIntel,60,61025ae37ef11b136ea224fe,,,,,,,,,3488,79.9609375,26.19140625,1,0,0,response1disk,,6,19.99609375,-3.51171875,1,0,0,rectangle,19.99609375,-3.51171875,1,0,0,,,,,,,19.99609375,-3.51171875,1,0,0,,0,154,154,29,1,
,,,,,,,,,,,,,FF,,,,,,,,1.2182,,,,,,,,,,,,,,,,,,,,,,60fe2df6522f22abe083b9ef,61037937e8a09471b7dc0cfc,2021-07-29_21h00.44.177,Simcolourproject_2stim_asymm_v5,2020.2.10,MacIntel,60,61025ae37ef11b136ea224fe,,,,,,,,,1954,40.26171875,67.50390625,1,0,0,response1disk,,7,14.8671875,4.65625,1,0,0,rectangle,14.8671875,4.65625,1,0,0,,,,,,,14.8671875,4.65625,1,0,0,,0,155,155,59,1,
,,,,,,,,,,,,,FF,,,,,,,,2.2034,,,,,,,,,,,,,,,,,,,,,,60fe2df6522f22abe083b9ef,61037937e8a09471b7dc0cfc,2021-07-29_21h00.44.177,Simcolourproject_2stim_asymm_v5,2020.2.10,MacIntel,60,61025ae37ef11b136ea224fe,,,,,,,,,1867,28.8828125,47.515625,1,0,0,response1disk,,7,19.74609375,-0.27734375,1,0,0,rectangle,19.74609375,-0.27734375,1,0,0,,,,,,,19.74609375,-0.27734375,1,0,0,,0,156,156,107,1,
,,,,,,,,,,,,,FF,,,,,,,,2.4208,,,,,,,,,,,,,,,,,,,,,,60fe2df6522f22abe083b9ef,61037937e8a09471b7dc0cfc,2021-07-29_21h00.44.177,Simcolourproject_2stim_asymm_v5,2020.2.10,MacIntel,60,61025ae37ef11b136ea224fe,,,,,,,,,2540,38.02734375,71.03125,1,0,0,response1disk,,7,30.95703125,14.57421875,1,0,0,rectangle,30.95703125,14.57421875,1,0,0,,,,,,,30.95703125,14.57421875,1,0,0,,0,157,157,68,1,
,,,,,,,,,,,,,FF,,,,,,,,1.5198,,,,,,,,,,,,,,,,,,,,,,60fe2df6522f22abe083b9ef,61037937e8a09471b7dc0cfc,2021-07-29_21h00.44.177,Simcolourproject_2stim_asymm_v5,2020.2.10,MacIntel,60,61025ae37ef11b136ea224fe,,,,,,,,,1005,66.0625,-16.93359375,1,0,0,response3disk,,5,3.55859375,-4.23828125,1,0,0,rectangle,3.55859375,-4.23828125,1,0,0,,,,,,,3.55859375,-4.23828125,1,0,0,,0,158,158,30,1,
,,,,,,,,,,,,,FF,,,,,,,,0.9854,,,,,,,,,,,,,,,,,,,,,,60fe2df6522f22abe083b9ef,61037937e8a09471b7dc0cfc,2021-07-29_21h00.44.177,Simcolourproject_2stim_asymm_v5,2020.2.10,MacIntel,60,61025ae37ef11b136ea224fe,,,,,,,,,810,71.8046875,-22.12109375,1,0,0,response3disk,,5,20.54296875,-1.14453125,1,0,0,rectangle,49.80078125,-86.69921875,1,0,0,response3disk_3,TRUE,4,4,"[195,234,1,272,138,54,184,160,133,191,169,13,209,125,236,289,160,20,137,181]",1.787,16.625,-0.9140625,1,0,0,rectangle,0,159,159,11,1,
,,,,,,,,,,,,,FF,,,,,,,,6.3436,,,,,,,,,,,,,,,,,,,,,,60fe2df6522f22abe083b9ef,61037937e8a09471b7dc0cfc,2021-07-29_21h00.44.177,Simcolourproject_2stim_asymm_v5,2020.2.10,MacIntel,60,61025ae37ef11b136ea224fe,,,,,,,,,858,49.65234375,30.87890625,1,0,0,response1disk,,6,2.08984375,-2.08984375,1,0,0,rectangle,2.08984375,-2.08984375,1,0,0,,,,,,,2.08984375,-2.08984375,1,0,0,,1,0,160,54,1,
,,,,,,,,,,,,,FF,,,,,,,,2.7723,,,,,,,,,,,,,,,,,,,,,,60fe2df6522f22abe083b9ef,61037937e8a09471b7dc0cfc,2021-07-29_21h00.44.177,Simcolourproject_2stim_asymm_v5,2020.2.10,MacIntel,60,61025ae37ef11b136ea224fe,,,,,,,,,2947,56.1015625,24.76953125,1,0,0,response1disk,,6,12.6484375,-7.3828125,1,0,0,rectangle,12.6484375,-7.3828125,1,0,0,,,,,,,12.6484375,-7.3828125,1,0,0,,1,1,161,60,1,
,,,,,,,,,,,,,FF,,,,,,,,2.0376,,,,,,,,,,,,,,,,,,,,,,60fe2df6522f22abe083b9ef,61037937e8a09471b7dc0cfc,2021-07-29_21h00.44.177,Simcolourproject_2stim_asymm_v5,2020.2.10,MacIntel,60,61025ae37ef11b136ea224fe,,,,,,,,,2249,52.21484375,-30.16796875,1,0,0,response3disk,,5,10.62109375,10.32421875,1,0,0,rectangle,10.62109375,10.32421875,1,0,0,,,,,,,10.62109375,10.32421875,1,0,0,,1,2,162,88,1,
,,,,,,,,,,,,,FF,,,,,,,,1.1693,,,,,,,,,,,,,,,,,,,,,,60fe2df6522f22abe083b9ef,61037937e8a09471b7dc0cfc,2021-07-29_21h00.44.177,Simcolourproject_2stim_asymm_v5,2020.2.10,MacIntel,60,61025ae37ef11b136ea224fe,,,,,,,,,1350,35.6875,44.6171875,1,0,0,response1disk,,7,7.17578125,-12.34765625,1,0,0,rectangle,7.17578125,-12.34765625,1,0,0,,,,,,,7.17578125,-12.34765625,1,0,0,,1,3,163,8,1,
,,,,,,,,,,,,,FF,,,,,,,,1.7694,,,,,,,,,,,,,,,,,,,,,,60fe2df6522f22abe083b9ef,61037937e8a09471b7dc0cfc,2021-07-29_21h00.44.177,Simcolourproject_2stim_asymm_v5,2020.2.10,MacIntel,60,61025ae37ef11b136ea224fe,,,,,,,,,4317,-45.79296875,-26.87890625,1,0,0,response5disk,,2,-3.7421875,3.1171875,1,0,0,rectangle,-3.7421875,3.1171875,1,0,0,,,,,,,-3.7421875,3.1171875,1,0,0,,1,4,164,34,1,
,,,,,,,,,,,,,FF,,,,,,,,1.0517,,,,,,,,,,,,,,,,,,,,,,60fe2df6522f22abe083b9ef,61037937e8a09471b7dc0cfc,2021-07-29_21h00.44.177,Simcolourproject_2stim_asymm_v5,2020.2.10,MacIntel,60,61025ae37ef11b136ea224fe,,,,,,,,,3739,58.7578125,28.37109375,1,0,0,response1disk,,6,-0.90625,-8.765625,1,0,0,rectangle,-0.90625,-8.765625,1,0,0,,,,,,,-0.90625,-8.765625,1,0,0,,1,5,165,31,1,
,,,,,,,,,,,,,FF,,,,,,,,0.9853,,,,,,,,,,,,,,,,,,,,,,60fe2df6522f22abe083b9ef,61037937e8a09471b7dc0cfc,2021-07-29_21h00.44.177,Simcolourproject_2stim_asymm_v5,2020.2.10,MacIntel,60,61025ae37ef11b136ea224fe,,,,,,,,,2753,49.7734375,21.61328125,1,0,0,response1disk,,6,5.16015625,-7.671875,1,0,0,rectangle,5.16015625,-7.671875,1,0,0,,,,,,,5.16015625,-7.671875,1,0,0,,1,6,166,137,1,
,,,,,,,,,,,,,FF,,,,,,,,0.9182,,,,,,,,,,,,,,,,,,,,,,60fe2df6522f22abe083b9ef,61037937e8a09471b7dc0cfc,2021-07-29_21h00.44.177,Simcolourproject_2stim_asymm_v5,2020.2.10,MacIntel,60,61025ae37ef11b136ea224fe,,,,,,,,,1802,29.60546875,56.78515625,1,0,0,response1disk,,7,17.06640625,0.703125,1,0,0,rectangle,17.06640625,0.703125,1,0,0,,,,,,,17.06640625,0.703125,1,0,0,,1,7,167,155,1,
,,,,,,,,,,,,,FF,,,,,,,,1.4206,,,,,,,,,,,,,,,,,,,,,,60fe2df6522f22abe083b9ef,61037937e8a09471b7dc0cfc,2021-07-29_21h00.44.177,Simcolourproject_2stim_asymm_v5,2020.2.10,MacIntel,60,61025ae37ef11b136ea224fe,,,,,,,,,3640,22.0390625,48.6328125,1,0,0,response1disk,,7,10.20703125,8.09375,1,0,0,rectangle,-28.30859375,74.6640625,1,0,0,response7disk_3,TRUE,0,0,"[195,234,1,272,138,54,184,160,133,191,169,13,209,125,236,289,160,20,137,181]",1.8866,7.69140625,-9.06640625,1,0,0,rectangle,1,8,168,133,1,
,,,,,,,,,,,,,FF,,,,,,,,1.1187,,,,,,,,,,,,,,,,,,,,,,60fe2df6522f22abe083b9ef,61037937e8a09471b7dc0cfc,2021-07-29_21h00.44.177,Simcolourproject_2stim_asymm_v5,2020.2.10,MacIntel,60,61025ae37ef11b136ea224fe,,,,,,,,,2990,44.40625,21.40234375,1,0,0,response1disk,,6,13.26953125,-0.53515625,1,0,0,rectangle,13.26953125,-0.53515625,1,0,0,,,,,,,13.26953125,-0.53515625,1,0,0,,1,9,169,138,1,
,,,,,,,,,,,,,FF,,,,,,,,0.9014,,,,,,,,,,,,,,,,,,,,,,60fe2df6522f22abe083b9ef,61037937e8a09471b7dc0cfc,2021-07-29_21h00.44.177,Simcolourproject_2stim_asymm_v5,2020.2.10,MacIntel,60,61025ae37ef11b136ea224fe,,,,,,,,,4181,-36.08203125,63.7578125,1,0,0,response7disk,,0,-1.52734375,-4.7265625,1,0,0,rectangle,-1.52734375,-4.7265625,1,0,0,,,,,,,-1.52734375,-4.7265625,1,0,0,,1,10,170,35,1,
,,,,,,,,,,,,,FF,,,,,,,,1.1183,,,,,,,,,,,,,,,,,,,,,,60fe2df6522f22abe083b9ef,61037937e8a09471b7dc0cfc,2021-07-29_21h00.44.177,Simcolourproject_2stim_asymm_v5,2020.2.10,MacIntel,60,61025ae37ef11b136ea224fe,,,,,,,,,902,-19.94140625,-50.78515625,1,0,0,response5disk,,3,-5.66015625,-2.21484375,1,0,0,rectangle,-5.66015625,-2.21484375,1,0,0,,,,,,,-5.66015625,-2.21484375,1,0,0,,1,11,171,132,1,
,,,,,,,,,,,,,FF,,,,,,,,1.5852,,,,,,,,,,,,,,,,,,,,,,60fe2df6522f22abe083b9ef,61037937e8a09471b7dc0cfc,2021-07-29_21h00.44.177,Simcolourproject_2stim_asymm_v5,2020.2.10,MacIntel,60,61025ae37ef11b136ea224fe,,,,,,,,,1420,34.08203125,-31.75,1,0,0,response3disk,,5,-2.69140625,-6.7109375,1,0,0,rectangle,-2.69140625,-6.7109375,1,0,0,,,,,,,-2.69140625,-6.7109375,1,0,0,,1,12,172,2,1,
,,,,,,,,,,,,,FF,,,,,,,,2.4535,,,,,,,,,,,,,,,,,,,,,,60fe2df6522f22abe083b9ef,61037937e8a09471b7dc0cfc,2021-07-29_21h00.44.177,Simcolourproject_2stim_asymm_v5,2020.2.10,MacIntel,60,61025ae37ef11b136ea224fe,,,,,,,,,4310,22.54296875,47.73046875,1,0,0,response1disk,,7,2.1953125,-10.5546875,1,0,0,rectangle,2.1953125,-10.5546875,1,0,0,,,,,,,2.1953125,-10.5546875,1,0,0,,1,13,173,144,1,
,,,,,,,,,,,,,FF,,,,,,,,3.2729,,,,,,,,,,,,,,,,,,,,,,60fe2df6522f22abe083b9ef,61037937e8a09471b7dc0cfc,2021-07-29_21h00.44.177,Simcolourproject_2stim_asymm_v5,2020.2.10,MacIntel,60,61025ae37ef11b136ea224fe,,,,,,,,,608,53.1171875,-16.43359375,1,0,0,response3disk,,5,18.48828125,-8.65625,1,0,0,rectangle,18.48828125,-8.65625,1,0,0,,,,,,,18.48828125,-8.65625,1,0,0,,1,14,174,140,1,
,,,,,,,,,,,,,FF,,,,,,,,1.4182,,,,,,,,,,,,,,,,,,,,,,60fe2df6522f22abe083b9ef,61037937e8a09471b7dc0cfc,2021-07-29_21h00.44.177,Simcolourproject_2stim_asymm_v5,2020.2.10,MacIntel,60,61025ae37ef11b136ea224fe,,,,,,,,,281,59.3203125,28.54296875,1,0,0,response1disk,,6,19.4921875,-8.2421875,1,0,0,rectangle,19.4921875,-8.2421875,1,0,0,,,,,,,19.4921875,-8.2421875,1,0,0,,1,15,175,158,1,
,,,,,,,,,,,,,FF,,,,,,,,1.4202,,,,,,,,,,,,,,,,,,,,,,60fe2df6522f22abe083b9ef,61037937e8a09471b7dc0cfc,2021-07-29_21h00.44.177,Simcolourproject_2stim_asymm_v5,2020.2.10,MacIntel,60,61025ae37ef11b136ea224fe,,,,,,,,,2607,-33.86328125,-68.41015625,1,0,0,response5disk,,3,-5.1875,-2.69140625,1,0,0,rectangle,-5.1875,-2.69140625,1,0,0,,,,,,,-5.1875,-2.69140625,1,0,0,,1,16,176,150,1,
,,,,,,,,,,,,,FF,,,,,,,,1.486,,,,,,,,,,,,,,,,,,,,,,60fe2df6522f22abe083b9ef,61037937e8a09471b7dc0cfc,2021-07-29_21h00.44.177,Simcolourproject_2stim_asymm_v5,2020.2.10,MacIntel,60,61025ae37ef11b136ea224fe,,,,,,,,,3246,63.2578125,-25.39453125,1,0,0,response3disk,,5,5.69140625,-12.875,1,0,0,rectangle,5.69140625,-12.875,1,0,0,,,,,,,5.69140625,-12.875,1,0,0,,1,17,177,108,1,
,,,,,,,,,,,,,FF,,,,,,,,1.5689,,,,,,,,,,,,,,,,,,,,,,60fe2df6522f22abe083b9ef,61037937e8a09471b7dc0cfc,2021-07-29_21h00.44.177,Simcolourproject_2stim_asymm_v5,2020.2.10,MacIntel,60,61025ae37ef11b136ea224fe,,,,,,,,,2232,64.26171875,23.05859375,1,0,0,response1disk,,6,4.8359375,-14.1171875,1,0,0,rectangle,4.8359375,-14.1171875,1,0,0,,,,,,,4.8359375,-14.1171875,1,0,0,,1,18,178,66,1,
,,,,,,,,,,,,,FF,,,,,,,,1.5192,,,,,,,,,,,,,,,,,,,,,,60fe2df6522f22abe083b9ef,61037937e8a09471b7dc0cfc,2021-07-29_21h00.44.177,Simcolourproject_2stim_asymm_v5,2020.2.10,MacIntel,60,61025ae37ef11b136ea224fe,,,,,,,,,3974,47.42578125,25.70703125,1,0,0,response1disk,,6,28.1171875,12.8359375,1,0,0,rectangle,28.1171875,12.8359375,1,0,0,,,,,,,28.1171875,12.8359375,1,0,0,,1,19,179,122,1,
,,,,,,,,,,,,,FF,,,,,,,,2.4379,,,,,,,,,,,,,,,,,,,,,,60fe2df6522f22abe083b9ef,61037937e8a09471b7dc0cfc,2021-07-29_21h00.44.177,Simcolourproject_2stim_asymm_v5,2020.2.10,MacIntel,60,61025ae37ef11b136ea224fe,,,,,,,,,1193,38.39453125,-54.65625,1,0,0,response3disk,,4,6.01953125,-8.984375,1,0,0,rectangle,25.81640625,-69.828125,1,0,0,response3disk_3,TRUE,4,4,"[195,234,1,272,138,54,184,160,133,191,169,13,209,125,236,289,160,20,137,181]",1.6683,-0.71484375,7.23828125,1,0,0,rectangle,1,20,180,70,1,
,,,,,,,,,,,,,FF,,,,,,,,1.6363,,,,,,,,,,,,,,,,,,,,,,60fe2df6522f22abe083b9ef,61037937e8a09471b7dc0cfc,2021-07-29_21h00.44.177,Simcolourproject_2stim_asymm_v5,2020.2.10,MacIntel,60,61025ae37ef11b136ea224fe,,,,,,,,,1336,55.64453125,21.71875,1,0,0,response1disk,,6,11.30078125,1.07421875,1,0,0,rectangle,11.30078125,1.07421875,1,0,0,,,,,,,11.30078125,1.07421875,1,0,0,,1,21,181,36,1,
,,,,,,,,,,,,,FF,,,,,,,,8.2145,,,,,,,,,,,,,,,,,,,,,,60fe2df6522f22abe083b9ef,61037937e8a09471b7dc0cfc,2021-07-29_21h00.44.177,Simcolourproject_2stim_asymm_v5,2020.2.10,MacIntel,60,61025ae37ef11b136ea224fe,,,,,,,,,4178,52.3359375,27.828125,1,0,0,response1disk,,6,17.86328125,-3.5703125,1,0,0,rectangle,17.86328125,-3.5703125,1,0,0,,,,,,,17.86328125,-3.5703125,1,0,0,,1,22,182,139,1,
,,,,,,,,,,,,,FF,,,,,,,,1.9705,,,,,,,,,,,,,,,,,,,,,,60fe2df6522f22abe083b9ef,61037937e8a09471b7dc0cfc,2021-07-29_21h00.44.177,Simcolourproject_2stim_asymm_v5,2020.2.10,MacIntel,60,61025ae37ef11b136ea224fe,,,,,,,,,4204,47.43359375,42.2890625,1,0,0,response1disk,,6,27.1640625,11.0390625,1,0,0,rectangle,-91.734375,48.00390625,1,0,0,response7disk_3,TRUE,1,1,"[195,234,1,272,138,54,184,160,133,191,169,13,209,125,236,289,160,20,137,181]",1.4686,-6.8359375,14.4453125,1,0,0,rectangle,1,23,183,76,1,
,,,,,,,,,,,,,FF,,,,,,,,1.3681,,,,,,,,,,,,,,,,,,,,,,60fe2df6522f22abe083b9ef,61037937e8a09471b7dc0cfc,2021-07-29_21h00.44.177,Simcolourproject_2stim_asymm_v5,2020.2.10,MacIntel,60,61025ae37ef11b136ea224fe,,,,,,,,,1672,24.42578125,-65.1796875,1,0,0,response3disk,,4,-5.2421875,-13.53125,1,0,0,rectangle,-5.2421875,-13.53125,1,0,0,,,,,,,-5.2421875,-13.53125,1,0,0,,1,24,184,118,1,
,,,,,,,,,,,,,FF,,,,,,,,0.8685,,,,,,,,,,,,,,,,,,,,,,60fe2df6522f22abe083b9ef,61037937e8a09471b7dc0cfc,2021-07-29_21h00.44.177,Simcolourproject_2stim_asymm_v5,2020.2.10,MacIntel,60,61025ae37ef11b136ea224fe,,,,,,,,,195,57.4375,31.3984375,1,0,0,response1disk,,6,-7.23046875,10.4140625,1,0,0,rectangle,-7.23046875,10.4140625,1,0,0,,,,,,,-7.23046875,10.4140625,1,0,0,,1,25,185,113,1,
,,,,,,,,,,,,,FF,,,,,,,,1.6696,,,,,,,,,,,,,,,,,,,,,,60fe2df6522f22abe083b9ef,61037937e8a09471b7dc0cfc,2021-07-29_21h00.44.177,Simcolourproject_2stim_asymm_v5,2020.2.10,MacIntel,60,61025ae37ef11b136ea224fe,,,,,,,,,1379,33.71484375,69.78125,1,0,0,response1disk,,7,16.42578125,12.94921875,1,0,0,rectangle,16.42578125,12.94921875,1,0,0,,,,,,,16.42578125,12.94921875,1,0,0,,1,26,186,26,1,
,,,,,,,,,,,,,FF,,,,,,,,1.3352,,,,,,,,,,,,,,,,,,,,,,60fe2df6522f22abe083b9ef,61037937e8a09471b7dc0cfc,2021-07-29_21h00.44.177,Simcolourproject_2stim_asymm_v5,2020.2.10,MacIntel,60,61025ae37ef11b136ea224fe,,,,,,,,,1043,-21.6953125,-70.61328125,1,0,0,response5disk,,3,3.80859375,9.07421875,1,0,0,rectangle,3.80859375,9.07421875,1,0,0,,,,,,,3.80859375,9.07421875,1,0,0,,1,27,187,153,1,
,,,,,,,,,,,,,FF,,,,,,,,0.9842,,,,,,,,,,,,,,,,,,,,,,60fe2df6522f22abe083b9ef,61037937e8a09471b7dc0cfc,2021-07-29_21h00.44.177,Simcolourproject_2stim_asymm_v5,2020.2.10,MacIntel,60,61025ae37ef11b136ea224fe,,,,,,,,,2195,-25.26171875,-64.4765625,1,0,0,response5disk,,3,1.91015625,3.78515625,1,0,0,rectangle,1.91015625,3.78515625,1,0,0,,,,,,,1.91015625,3.78515625,1,0,0,,1,28,188,97,1,
,,,,,,,,,,,,,FF,,,,,,,,1.318,,,,,,,,,,,,,,,,,,,,,,60fe2df6522f22abe083b9ef,61037937e8a09471b7dc0cfc,2021-07-29_21h00.44.177,Simcolourproject_2stim_asymm_v5,2020.2.10,MacIntel,60,61025ae37ef11b136ea224fe,,,,,,,,,3823,70.7421875,27.6484375,1,0,0,response1disk,,6,9.6640625,-4.53515625,1,0,0,rectangle,9.6640625,-4.53515625,1,0,0,,,,,,,9.6640625,-4.53515625,1,0,0,,1,29,189,6,1,
,,,,,,,,,,,,,FF,,,,,,,,1.7523,,,,,,,,,,,,,,,,,,,,,,60fe2df6522f22abe083b9ef,61037937e8a09471b7dc0cfc,2021-07-29_21h00.44.177,Simcolourproject_2stim_asymm_v5,2020.2.10,MacIntel,60,61025ae37ef11b136ea224fe,,,,,,,,,3326,62.48828125,-19.921875,1,0,0,response3disk,,5,7.65234375,-4.17578125,1,0,0,rectangle,34.296875,-74.24609375,1,0,0,response3disk_3,TRUE,4,4,"[195,234,1,272,138,54,184,160,133,191,169,13,209,125,236,289,160,20,137,181]",1.6857,13.43359375,-14.2109375,1,0,0,rectangle,1,30,190,56,1,
,,,,,,,,,,,,,FF,,,,,,,,1.8689,,,,,,,,,,,,,,,,,,,,,,60fe2df6522f22abe083b9ef,61037937e8a09471b7dc0cfc,2021-07-29_21h00.44.177,Simcolourproject_2stim_asymm_v5,2020.2.10,MacIntel,60,61025ae37ef11b136ea224fe,,,,,,,,,900,-33.125,-57.78515625,1,0,0,response5disk,,3,-4.296875,-6.58203125,1,0,0,rectangle,-4.296875,-6.58203125,1,0,0,,,,,,,-4.296875,-6.58203125,1,0,0,,1,31,191,151,1,
,,,,,,,,,,,,,FF,,,,,,,,1.3023,,,,,,,,,,,,,,,,,,,,,,60fe2df6522f22abe083b9ef,61037937e8a09471b7dc0cfc,2021-07-29_21h00.44.177,Simcolourproject_2stim_asymm_v5,2020.2.10,MacIntel,60,61025ae37ef11b136ea224fe,,,,,,,,,520,67.265625,-44.93359375,1,0,0,response3disk,,5,26.07421875,-8.421875,1,0,0,rectangle,26.07421875,-8.421875,1,0,0,,,,,,,26.07421875,-8.421875,1,0,0,,1,32,192,14,1,
,,,,,,,,,,,,,FF,,,,,,,,0.9845,,,,,,,,,,,,,,,,,,,,,,60fe2df6522f22abe083b9ef,61037937e8a09471b7dc0cfc,2021-07-29_21h00.44.177,Simcolourproject_2stim_asymm_v5,2020.2.10,MacIntel,60,61025ae37ef11b136ea224fe,,,,,,,,,93,-22.2890625,51.0625,1,0,0,response7disk,,0,-6.87109375,6.04296875,1,0,0,rectangle,-6.87109375,6.04296875,1,0,0,,,,,,,-6.87109375,6.04296875,1,0,0,,1,33,193,91,1,
,,,,,,,,,,,,,FF,,,,,,,,2.6556,,,,,,,,,,,,,,,,,,,,,,60fe2df6522f22abe083b9ef,61037937e8a09471b7dc0cfc,2021-07-29_21h00.44.177,Simcolourproject_2stim_asymm_v5,2020.2.10,MacIntel,60,61025ae37ef11b136ea224fe,,,,,,,,,1182,52.93359375,-24.95703125,1,0,0,response3disk,,5,6.625,10.16796875,1,0,0,rectangle,-91.9453125,47.6171875,1,0,0,response7disk_3,TRUE,1,1,"[195,234,1,272,138,54,184,160,133,191,169,13,209,125,236,289,160,20,137,181]",1.3857,3.87109375,0.6328125,1,0,0,rectangle,1,34,194,24,1,
,,,,,,,,,,,,,FF,,,,,,,,1.9698,,,,,,,,,,,,,,,,,,,,,,60fe2df6522f22abe083b9ef,61037937e8a09471b7dc0cfc,2021-07-29_21h00.44.177,Simcolourproject_2stim_asymm_v5,2020.2.10,MacIntel,60,61025ae37ef11b136ea224fe,,,,,,,,,3787,51.45703125,-21.48046875,1,0,0,response3disk,,5,-10.3828125,3.3671875,1,0,0,rectangle,-10.3828125,3.3671875,1,0,0,,,,,,,-10.3828125,3.3671875,1,0,0,,1,35,195,146,1,
,,,,,,,,,,,,,FF,,,,,,,,1.135,,,,,,,,,,,,,,,,,,,,,,60fe2df6522f22abe083b9ef,61037937e8a09471b7dc0cfc,2021-07-29_21h00.44.177,Simcolourproject_2stim_asymm_v5,2020.2.10,MacIntel,60,61025ae37ef11b136ea224fe,,,,,,,,,1717,59.29296875,-27.5078125,1,0,0,response3disk,,5,1.2734375,-2.38671875,1,0,0,rectangle,1.2734375,-2.38671875,1,0,0,,,,,,,1.2734375,-2.38671875,1,0,0,,1,36,196,46,1,
,,,,,,,,,,,,,FF,,,,,,,,1.5365,,,,,,,,,,,,,,,,,,,,,,60fe2df6522f22abe083b9ef,61037937e8a09471b7dc0cfc,2021-07-29_21h00.44.177,Simcolourproject_2stim_asymm_v5,2020.2.10,MacIntel,60,61025ae37ef11b136ea224fe,,,,,,,,,3453,47.61328125,-30.84375,1,0,0,response3disk,,5,23,-9.3359375,1,0,0,rectangle,23,-9.3359375,1,0,0,,,,,,,23,-9.3359375,1,0,0,,1,37,197,53,1,
,,,,,,,,,,,,,FF,,,,,,,,1.6203,,,,,,,,,,,,,,,,,,,,,,60fe2df6522f22abe083b9ef,61037937e8a09471b7dc0cfc,2021-07-29_21h00.44.177,Simcolourproject_2stim_asymm_v5,2020.2.10,MacIntel,60,61025ae37ef11b136ea224fe,,,,,,,,,2640,42.98828125,-52.8515625,1,0,0,response3disk,,4,22.390625,-5.4921875,1,0,0,rectangle,22.390625,-5.4921875,1,0,0,,,,,,,22.390625,-5.4921875,1,0,0,,1,38,198,143,1,
,,,,,,,,,,,,,FF,,,,,,,,2.337,,,,,,,,,,,,,,,,,,,,,,60fe2df6522f22abe083b9ef,61037937e8a09471b7dc0cfc,2021-07-29_21h00.44.177,Simcolourproject_2stim_asymm_v5,2020.2.10,MacIntel,60,61025ae37ef11b136ea224fe,,,,,,,,,3038,37.92578125,-53.30078125,1,0,0,response3disk,,4,16.78515625,-12.03125,1,0,0,rectangle,16.78515625,-12.03125,1,0,0,,,,,,,16.78515625,-12.03125,1,0,0,,1,39,199,124,1,
,,,,,,,,,,,,,FF,,,,,,,,2.0028,,,,,,,,,,,,,,,,,,,,,,60fe2df6522f22abe083b9ef,61037937e8a09471b7dc0cfc,2021-07-29_21h00.44.177,Simcolourproject_2stim_asymm_v5,2020.2.10,MacIntel,60,61025ae37ef11b136ea224fe,,,,,,,,,3751,46.26171875,36.88671875,1,0,0,response1disk,,6,8.9140625,-9.36328125,1,0,0,rectangle,8.9140625,-9.36328125,1,0,0,,,,,,,8.9140625,-9.36328125,1,0,0,,1,40,200,156,1,
,,,,,,,,,,,,,FF,,,,,,,,2.0861,,,,,,,,,,,,,,,,,,,,,,60fe2df6522f22abe083b9ef,61037937e8a09471b7dc0cfc,2021-07-29_21h00.44.177,Simcolourproject_2stim_asymm_v5,2020.2.10,MacIntel,60,61025ae37ef11b136ea224fe,,,,,,,,,2309,29.21875,39.67578125,1,0,0,response1disk,,7,19.41015625,10.2421875,1,0,0,rectangle,19.41015625,10.2421875,1,0,0,,,,,,,19.41015625,10.2421875,1,0,0,,1,41,201,119,1,
,,,,,,,,,,,,,FF,,,,,,,,0.9007,,,,,,,,,,,,,,,,,,,,,,60fe2df6522f22abe083b9ef,61037937e8a09471b7dc0cfc,2021-07-29_21h00.44.177,Simcolourproject_2stim_asymm_v5,2020.2.10,MacIntel,60,61025ae37ef11b136ea224fe,,,,,,,,,2963,61.68359375,25.47265625,1,0,0,response1disk,,6,19.0859375,-11.62109375,1,0,0,rectangle,19.0859375,-11.62109375,1,0,0,,,,,,,19.0859375,-11.62109375,1,0,0,,1,42,202,5,1,
,,,,,,,,,,,,,FF,,,,,,,,2.3539,,,,,,,,,,,,,,,,,,,,,,60fe2df6522f22abe083b9ef,61037937e8a09471b7dc0cfc,2021-07-29_21h00.44.177,Simcolourproject_2stim_asymm_v5,2020.2.10,MacIntel,60,61025ae37ef11b136ea224fe,,,,,,,,,1197,29.67578125,50.3828125,1,0,0,response1disk,,7,24.76171875,-5.15234375,1,0,0,rectangle,24.76171875,-5.15234375,1,0,0,,,,,,,24.76171875,-5.15234375,1,0,0,,1,43,203,115,1,
,,,,,,,,,,,,,FF,,,,,,,,1.3361,,,,,,,,,,,,,,,,,,,,,,60fe2df6522f22abe083b9ef,61037937e8a09471b7dc0cfc,2021-07-29_21h00.44.177,Simcolourproject_2stim_asymm_v5,2020.2.10,MacIntel,60,61025ae37ef11b136ea224fe,,,,,,,,,322,42.0859375,19.05859375,1,0,0,response1disk,,6,9.30859375,-14.94140625,1,0,0,rectangle,9.30859375,-14.94140625,1,0,0,,,,,,,9.30859375,-14.94140625,1,0,0,,1,44,204,33,1,
,,,,,,,,,,,,,FF,,,,,,,,6.7605,,,,,,,,,,,,,,,,,,,,,,60fe2df6522f22abe083b9ef,61037937e8a09471b7dc0cfc,2021-07-29_21h00.44.177,Simcolourproject_2stim_asymm_v5,2020.2.10,MacIntel,60,61025ae37ef11b136ea224fe,,,,,,,,,3683,49.01953125,28.94140625,1,0,0,response1disk,,6,4.40625,-5.171875,1,0,0,rectangle,4.40625,-5.171875,1,0,0,,,,,,,4.40625,-5.171875,1,0,0,,1,45,205,69,1,
,,,,,,,,,,,,,FF,,,,,,,,1.3861,,,,,,,,,,,,,,,,,,,,,,60fe2df6522f22abe083b9ef,61037937e8a09471b7dc0cfc,2021-07-29_21h00.44.177,Simcolourproject_2stim_asymm_v5,2020.2.10,MacIntel,60,61025ae37ef11b136ea224fe,,,,,,,,,2821,31.34375,39.703125,1,0,0,response1disk,,7,20.87890625,13.640625,1,0,0,rectangle,20.87890625,13.640625,1,0,0,,,,,,,20.87890625,13.640625,1,0,0,,1,46,206,52,1,
,,,,,,,,,,,,,FF,,,,,,,,1.3362,,,,,,,,,,,,,,,,,,,,,,60fe2df6522f22abe083b9ef,61037937e8a09471b7dc0cfc,2021-07-29_21h00.44.177,Simcolourproject_2stim_asymm_v5,2020.2.10,MacIntel,60,61025ae37ef11b136ea224fe,,,,,,,,,2650,-20.8984375,-52.91015625,1,0,0,response5disk,,3,3.62109375,10.078125,1,0,0,rectangle,3.62109375,10.078125,1,0,0,,,,,,,3.62109375,10.078125,1,0,0,,1,47,207,101,1,
,,,,,,,,,,,,,FF,,,,,,,,1.0341,,,,,,,,,,,,,,,,,,,,,,60fe2df6522f22abe083b9ef,61037937e8a09471b7dc0cfc,2021-07-29_21h00.44.177,Simcolourproject_2stim_asymm_v5,2020.2.10,MacIntel,60,61025ae37ef11b136ea224fe,,,,,,,,,736,-34.265625,-65.87109375,1,0,0,response5disk,,3,-15.8203125,-3.0390625,1,0,0,rectangle,59.75,38.546875,1,0,0,response1disk_3,TRUE,6,6,"[195,234,1,272,138,54,184,160,133,191,169,13,209,125,236,289,160,20,137,181]",1.436,20.546875,3.7265625,1,0,0,rectangle,1,48,208,109,1,
,,,,,,,,,,,,,FF,,,,,,,,1.5523,,,,,,,,,,,,,,,,,,,,,,60fe2df6522f22abe083b9ef,61037937e8a09471b7dc0cfc,2021-07-29_21h00.44.177,Simcolourproject_2stim_asymm_v5,2020.2.10,MacIntel,60,61025ae37ef11b136ea224fe,,,,,,,,,572,-31.2578125,-60.09375,1,0,0,response5disk,,3,-6.64453125,-4.421875,1,0,0,rectangle,-6.64453125,-4.421875,1,0,0,,,,,,,-6.64453125,-4.421875,1,0,0,,1,49,209,30,1,
,,,,,,,,,,,,,FF,,,,,,,,0.9847,,,,,,,,,,,,,,,,,,,,,,60fe2df6522f22abe083b9ef,61037937e8a09471b7dc0cfc,2021-07-29_21h00.44.177,Simcolourproject_2stim_asymm_v5,2020.2.10,MacIntel,60,61025ae37ef11b136ea224fe,,,,,,,,,1964,-58.3515625,-36.87109375,1,0,0,response5disk,,2,-11.8671875,0.15234375,1,0,0,rectangle,-11.8671875,0.15234375,1,0,0,,,,,,,-11.8671875,0.15234375,1,0,0,,1,50,210,78,1,
,,,,,,,,,,,,,FF,,,,,,,,1.4184,,,,,,,,,,,,,,,,,,,,,,60fe2df6522f22abe083b9ef,61037937e8a09471b7dc0cfc,2021-07-29_21h00.44.177,Simcolourproject_2stim_asymm_v5,2020.2.10,MacIntel,60,61025ae37ef11b136ea224fe,,,,,,,,,1664,61.62109375,20.17578125,1,0,0,response1disk,,6,21.82421875,-7.80859375,1,0,0,rectangle,21.82421875,-7.80859375,1,0,0,,,,,,,21.82421875,-7.80859375,1,0,0,,1,51,211,72,1,
,,,,,,,,,,,,,FF,,,,,,,,1.9201,,,,,,,,,,,,,,,,,,,,,,60fe2df6522f22abe083b9ef,61037937e8a09471b7dc0cfc,2021-07-29_21h00.44.177,Simcolourproject_2stim_asymm_v5,2020.2.10,MacIntel,60,61025ae37ef11b136ea224fe,,,,,,,,,3147,17.81640625,-54.8515625,1,0,0,response3disk,,4,-0.41015625,5.09765625,1,0,0,rectangle,-0.41015625,5.09765625,1,0,0,,,,,,,-0.41015625,5.09765625,1,0,0,,1,52,212,99,1,
,,,,,,,,,,,,,FF,,,,,,,,1.8188,,,,,,,,,,,,,,,,,,,,,,60fe2df6522f22abe083b9ef,61037937e8a09471b7dc0cfc,2021-07-29_21h00.44.177,Simcolourproject_2stim_asymm_v5,2020.2.10,MacIntel,60,61025ae37ef11b136ea224fe,,,,,,,,,1132,57.74609375,-37.85546875,1,0,0,response3disk,,5,17.08984375,-4.15234375,1,0,0,rectangle,17.08984375,-4.15234375,1,0,0,,,,,,,17.08984375,-4.15234375,1,0,0,,1,53,213,59,1,
,,,,,,,,,,,,,FF,,,,,,,,0.7525,,,,,,,,,,,,,,,,,,,,,,60fe2df6522f22abe083b9ef,61037937e8a09471b7dc0cfc,2021-07-29_21h00.44.177,Simcolourproject_2stim_asymm_v5,2020.2.10,MacIntel,60,61025ae37ef11b136ea224fe,,,,,,,,,3336,-31.5234375,76.56640625,1,0,0,response7disk,,0,-1.6796875,8.81640625,1,0,0,rectangle,-1.6796875,8.81640625,1,0,0,,,,,,,-1.6796875,8.81640625,1,0,0,,1,54,214,15,1,
,,,,,,,,,,,,,FF,,,,,,,,4.2078,,,,,,,,,,,,,,,,,,,,,,60fe2df6522f22abe083b9ef,61037937e8a09471b7dc0cfc,2021-07-29_21h00.44.177,Simcolourproject_2stim_asymm_v5,2020.2.10,MacIntel,60,61025ae37ef11b136ea224fe,,,,,,,,,197,-49.11328125,-27.4453125,1,0,0,response5disk,,2,-7.54296875,-10.12109375,1,0,0,rectangle,-7.54296875,-10.12109375,1,0,0,,,,,,,-7.54296875,-10.12109375,1,0,0,,1,55,215,96,1,
,,,,,,,,,,,,,FF,,,,,,,,1.619,,,,,,,,,,,,,,,,,,,,,,60fe2df6522f22abe083b9ef,61037937e8a09471b7dc0cfc,2021-07-29_21h00.44.177,Simcolourproject_2stim_asymm_v5,2020.2.10,MacIntel,60,61025ae37ef11b136ea224fe,,,,,,,,,1407,47.15625,65.19921875,1,0,0,response1disk,,7,13.6875,9.52734375,1,0,0,rectangle,13.6875,9.52734375,1,0,0,,,,,,,13.6875,9.52734375,1,0,0,,1,56,216,121,1,
,,,,,,,,,,,,,FF,,,,,,,,1.8857,,,,,,,,,,,,,,,,,,,,,,60fe2df6522f22abe083b9ef,61037937e8a09471b7dc0cfc,2021-07-29_21h00.44.177,Simcolourproject_2stim_asymm_v5,2020.2.10,MacIntel,60,61025ae37ef11b136ea224fe,,,,,,,,,738,-50.46875,-80.0859375,1,0,0,response5disk,,3,-14.75,3.78515625,1,0,0,rectangle,-14.75,3.78515625,1,0,0,,,,,,,-14.75,3.78515625,1,0,0,,1,57,217,40,1,
,,,,,,,,,,,,,FF,,,,,,,,5.9596,,,,,,,,,,,,,,,,,,,,,,60fe2df6522f22abe083b9ef,61037937e8a09471b7dc0cfc,2021-07-29_21h00.44.177,Simcolourproject_2stim_asymm_v5,2020.2.10,MacIntel,60,61025ae37ef11b136ea224fe,,,,,,,,,2333,65.484375,-35.13671875,1,0,0,response3disk,,5,15.33203125,-13.46875,1,0,0,rectangle,15.33203125,-13.46875,1,0,0,,,,,,,15.33203125,-13.46875,1,0,0,,1,58,218,159,1,
,,,,,,,,,,,,,FF,,,,,,,,1.218,,,,,,,,,,,,,,,,,,,,,,60fe2df6522f22abe083b9ef,61037937e8a09471b7dc0cfc,2021-07-29_21h00.44.177,Simcolourproject_2stim_asymm_v5,2020.2.10,MacIntel,60,61025ae37ef11b136ea224fe,,,,,,,,,4255,61.87109375,32.34765625,1,0,0,response1disk,,6,-6.640625,3.75390625,1,0,0,rectangle,-6.640625,3.75390625,1,0,0,,,,,,,-6.640625,3.75390625,1,0,0,,1,59,219,48,1,
,,,,,,,,,,,,,FF,,,,,,,,2.9882,,,,,,,,,,,,,,,,,,,,,,60fe2df6522f22abe083b9ef,61037937e8a09471b7dc0cfc,2021-07-29_21h00.44.177,Simcolourproject_2stim_asymm_v5,2020.2.10,MacIntel,60,61025ae37ef11b136ea224fe,,,,,,,,,660,-44.03515625,-71.80078125,1,0,0,response5disk,,3,-17.296875,-2.453125,1,0,0,rectangle,-17.296875,-2.453125,1,0,0,,,,,,,-17.296875,-2.453125,1,0,0,,1,60,220,49,1,
,,,,,,,,,,,,,FF,,,,,,,,1.2852,,,,,,,,,,,,,,,,,,,,,,60fe2df6522f22abe083b9ef,61037937e8a09471b7dc0cfc,2021-07-29_21h00.44.177,Simcolourproject_2stim_asymm_v5,2020.2.10,MacIntel,60,61025ae37ef11b136ea224fe,,,,,,,,,1353,42.4140625,54.4765625,1,0,0,response1disk,,7,13.6328125,0.28125,1,0,0,rectangle,13.6328125,0.28125,1,0,0,,,,,,,13.6328125,0.28125,1,0,0,,1,61,221,142,1,
,,,,,,,,,,,,,FF,,,,,,,,1.1013,,,,,,,,,,,,,,,,,,,,,,60fe2df6522f22abe083b9ef,61037937e8a09471b7dc0cfc,2021-07-29_21h00.44.177,Simcolourproject_2stim_asymm_v5,2020.2.10,MacIntel,60,61025ae37ef11b136ea224fe,,,,,,,,,3252,49.16796875,20.30859375,1,0,0,response1disk,,6,17.13671875,1.55078125,1,0,0,rectangle,17.13671875,1.55078125,1,0,0,,,,,,,17.13671875,1.55078125,1,0,0,,1,62,222,79,1,
,,,,,,,,,,,,,FF,,,,,,,,1.2358,,,,,,,,,,,,,,,,,,,,,,60fe2df6522f22abe083b9ef,61037937e8a09471b7dc0cfc,2021-07-29_21h00.44.177,Simcolourproject_2stim_asymm_v5,2020.2.10,MacIntel,60,61025ae37ef11b136ea224fe,,,,,,,,,1558,83.75390625,-34.71484375,1,0,0,response3disk,,5,33.8203125,-10.99609375,1,0,0,rectangle,33.8203125,-10.99609375,1,0,0,,,,,,,33.8203125,-10.99609375,1,0,0,,1,63,223,18,1,
,,,,,,,,,,,,,FF,,,,,,,,1.0355,,,,,,,,,,,,,,,,,,,,,,60fe2df6522f22abe083b9ef,61037937e8a09471b7dc0cfc,2021-07-29_21h00.44.177,Simcolourproject_2stim_asymm_v5,2020.2.10,MacIntel,60,61025ae37ef11b136ea224fe,,,,,,,,,3870,68.0703125,45.1328125,1,0,0,response1disk,,6,7.6171875,9.25390625,1,0,0,rectangle,7.6171875,9.25390625,1,0,0,,,,,,,7.6171875,9.25390625,1,0,0,,1,64,224,55,1,
,,,,,,,,,,,,,FF,,,,,,,,2.4201,,,,,,,,,,,,,,,,,,,,,,60fe2df6522f22abe083b9ef,61037937e8a09471b7dc0cfc,2021-07-29_21h00.44.177,Simcolourproject_2stim_asymm_v5,2020.2.10,MacIntel,60,61025ae37ef11b136ea224fe,,,,,,,,,670,39.40234375,64.6875,1,0,0,response1disk,,7,16.74609375,15.3125,1,0,0,rectangle,16.74609375,15.3125,1,0,0,,,,,,,16.74609375,15.3125,1,0,0,,1,65,225,7,1,
,,,,,,,,,,,,,FF,,,,,,,,7.0443,,,,,,,,,,,,,,,,,,,,,,60fe2df6522f22abe083b9ef,61037937e8a09471b7dc0cfc,2021-07-29_21h00.44.177,Simcolourproject_2stim_asymm_v5,2020.2.10,MacIntel,60,61025ae37ef11b136ea224fe,,,,,,,,,616,67.9609375,-48.2421875,1,0,0,response3disk,,5,7.0859375,-10.91796875,1,0,0,rectangle,7.0859375,-10.91796875,1,0,0,,,,,,,7.0859375,-10.91796875,1,0,0,,1,66,226,111,1,
,,,,,,,,,,,,,FF,,,,,,,,1.0523,,,,,,,,,,,,,,,,,,,,,,60fe2df6522f22abe083b9ef,61037937e8a09471b7dc0cfc,2021-07-29_21h00.44.177,Simcolourproject_2stim_asymm_v5,2020.2.10,MacIntel,60,61025ae37ef11b136ea224fe,,,,,,,,,3455,36.7890625,62.7734375,1,0,0,response1disk,,7,14.7265625,-2.5546875,1,0,0,rectangle,14.7265625,-2.5546875,1,0,0,,,,,,,14.7265625,-2.5546875,1,0,0,,1,67,227,90,1,
,,,,,,,,,,,,,FF,,,,,,,,1.3178,,,,,,,,,,,,,,,,,,,,,,60fe2df6522f22abe083b9ef,61037937e8a09471b7dc0cfc,2021-07-29_21h00.44.177,Simcolourproject_2stim_asymm_v5,2020.2.10,MacIntel,60,61025ae37ef11b136ea224fe,,,,,,,,,3092,76.515625,-42.640625,1,0,0,response3disk,,5,20.47265625,-11.1484375,1,0,0,rectangle,20.47265625,-11.1484375,1,0,0,,,,,,,20.47265625,-11.1484375,1,0,0,,1,68,228,12,1,
,,,,,,,,,,,,,FF,,,,,,,,1.1523,,,,,,,,,,,,,,,,,,,,,,60fe2df6522f22abe083b9ef,61037937e8a09471b7dc0cfc,2021-07-29_21h00.44.177,Simcolourproject_2stim_asymm_v5,2020.2.10,MacIntel,60,61025ae37ef11b136ea224fe,,,,,,,,,3712,-38.28125,-105.0820313,1,0,0,response5disk,,3,-0.30078125,-3.7890625,1,0,0,rectangle,-0.30078125,-3.7890625,1,0,0,,,,,,,-0.30078125,-3.7890625,1,0,0,,1,69,229,136,1,
,,,,,,,,,,,,,FF,,,,,,,,0.735,,,,,,,,,,,,,,,,,,,,,,60fe2df6522f22abe083b9ef,61037937e8a09471b7dc0cfc,2021-07-29_21h00.44.177,Simcolourproject_2stim_asymm_v5,2020.2.10,MacIntel,60,61025ae37ef11b136ea224fe,,,,,,,,,3477,-31.27734375,-72.609375,1,0,0,response5disk,,3,-16.18359375,-0.42578125,1,0,0,rectangle,-16.18359375,-0.42578125,1,0,0,,,,,,,-16.18359375,-0.42578125,1,0,0,,1,70,230,89,1,
,,,,,,,,,,,,,FF,,,,,,,,1.5848,,,,,,,,,,,,,,,,,,,,,,60fe2df6522f22abe083b9ef,61037937e8a09471b7dc0cfc,2021-07-29_21h00.44.177,Simcolourproject_2stim_asymm_v5,2020.2.10,MacIntel,60,61025ae37ef11b136ea224fe,,,,,,,,,2310,69.515625,25.375,1,0,0,response1disk,,6,33.2734375,9.60546875,1,0,0,rectangle,33.2734375,9.60546875,1,0,0,,,,,,,33.2734375,9.60546875,1,0,0,,1,71,231,80,1,
,,,,,,,,,,,,,FF,,,,,,,,1.2688,,,,,,,,,,,,,,,,,,,,,,60fe2df6522f22abe083b9ef,61037937e8a09471b7dc0cfc,2021-07-29_21h00.44.177,Simcolourproject_2stim_asymm_v5,2020.2.10,MacIntel,60,61025ae37ef11b136ea224fe,,,,,,,,,1740,76.95703125,36.66015625,1,0,0,response1disk,,6,34.0078125,13.8671875,1,0,0,rectangle,34.0078125,13.8671875,1,0,0,,,,,,,34.0078125,13.8671875,1,0,0,,1,72,232,11,1,
,,,,,,,,,,,,,FF,,,,,,,,0.9049,,,,,,,,,,,,,,,,,,,,,,60fe2df6522f22abe083b9ef,61037937e8a09471b7dc0cfc,2021-07-29_21h00.44.177,Simcolourproject_2stim_asymm_v5,2020.2.10,MacIntel,60,61025ae37ef11b136ea224fe,,,,,,,,,565,56.83984375,33.24609375,1,0,0,response1disk,,6,10.95703125,-3.17578125,1,0,0,rectangle,45.5078125,-101.9453125,1,0,0,response3disk_3,TRUE,4,4,"[195,234,1,272,138,54,184,160,133,191,169,13,209,125,236,289,160,20,137,181]",1.9777,6.42578125,-4.76171875,1,0,0,rectangle,1,73,233,128,1,
,,,,,,,,,,,,,FF,,,,,,,,1.6696,,,,,,,,,,,,,,,,,,,,,,60fe2df6522f22abe083b9ef,61037937e8a09471b7dc0cfc,2021-07-29_21h00.44.177,Simcolourproject_2stim_asymm_v5,2020.2.10,MacIntel,60,61025ae37ef11b136ea224fe,,,,,,,,,3118,58.47265625,33.51171875,1,0,0,response1disk,,6,2.796875,-12.75,1,0,0,rectangle,2.796875,-12.75,1,0,0,,,,,,,2.796875,-12.75,1,0,0,,1,74,234,42,1,
,,,,,,,,,,,,,FF,,,,,,,,1.2531,,,,,,,,,,,,,,,,,,,,,,60fe2df6522f22abe083b9ef,61037937e8a09471b7dc0cfc,2021-07-29_21h00.44.177,Simcolourproject_2stim_asymm_v5,2020.2.10,MacIntel,60,61025ae37ef11b136ea224fe,,,,,,,,,3097,-33.12109375,76.36328125,1,0,0,response7disk,,0,-0.58984375,2.15625,1,0,0,rectangle,26.84375,89.7265625,1,0,0,response1disk_3,TRUE,7,7,"[195,234,1,272,138,54,184,160,133,191,169,13,209,125,236,289,160,20,137,181]",1.3339,11.73046875,6.78515625,1,0,0,rectangle,1,75,235,22,1,
,,,,,,,,,,,,,FF,,,,,,,,8.1638,,,,,,,,,,,,,,,,,,,,,,60fe2df6522f22abe083b9ef,61037937e8a09471b7dc0cfc,2021-07-29_21h00.44.177,Simcolourproject_2stim_asymm_v5,2020.2.10,MacIntel,60,61025ae37ef11b136ea224fe,,,,,,,,,2321,73.36328125,-39.34765625,1,0,0,response3disk,,5,8.85546875,9.9296875,1,0,0,rectangle,8.85546875,9.9296875,1,0,0,,,,,,,8.85546875,9.9296875,1,0,0,,1,76,236,41,1,
,,,,,,,,,,,,,FF,,,,,,,,0.9179,,,,,,,,,,,,,,,,,,,,,,60fe2df6522f22abe083b9ef,61037937e8a09471b7dc0cfc,2021-07-29_21h00.44.177,Simcolourproject_2stim_asymm_v5,2020.2.10,MacIntel,60,61025ae37ef11b136ea224fe,,,,,,,,,2433,66.5234375,31.9140625,1,0,0,response1disk,,6,9.9296875,7.98828125,1,0,0,rectangle,9.9296875,7.98828125,1,0,0,,,,,,,9.9296875,7.98828125,1,0,0,,1,77,237,61,1,
,,,,,,,,,,,,,FF,,,,,,,,1.9699,,,,,,,,,,,,,,,,,,,,,,60fe2df6522f22abe083b9ef,61037937e8a09471b7dc0cfc,2021-07-29_21h00.44.177,Simcolourproject_2stim_asymm_v5,2020.2.10,MacIntel,60,61025ae37ef11b136ea224fe,,,,,,,,,792,15.4921875,75.32421875,1,0,0,response1disk,,7,-6.55859375,4.47265625,1,0,0,rectangle,-6.55859375,4.47265625,1,0,0,,,,,,,-6.55859375,4.47265625,1,0,0,,1,78,238,145,1,
,,,,,,,,,,,,,FF,,,,,,,,1.3031,,,,,,,,,,,,,,,,,,,,,,60fe2df6522f22abe083b9ef,61037937e8a09471b7dc0cfc,2021-07-29_21h00.44.177,Simcolourproject_2stim_asymm_v5,2020.2.10,MacIntel,60,61025ae37ef11b136ea224fe,,,,,,,,,45,34.35546875,68.203125,1,0,0,response1disk,,7,13.73828125,1.93359375,1,0,0,rectangle,13.73828125,1.93359375,1,0,0,,,,,,,13.73828125,1.93359375,1,0,0,,1,79,239,77,1,
,,,,,,,,,,,,,FF,,,,,,,,1.0683,,,,,,,,,,,,,,,,,,,,,,60fe2df6522f22abe083b9ef,61037937e8a09471b7dc0cfc,2021-07-29_21h00.44.177,Simcolourproject_2stim_asymm_v5,2020.2.10,MacIntel,60,61025ae37ef11b136ea224fe,,,,,,,,,469,31.0859375,-59.828125,1,0,0,response3disk,,4,6.46484375,-11.97265625,1,0,0,rectangle,6.46484375,-11.97265625,1,0,0,,,,,,,6.46484375,-11.97265625,1,0,0,,1,80,240,68,1,
,,,,,,,,,,,,,FF,,,,,,,,0.8185,,,,,,,,,,,,,,,,,,,,,,60fe2df6522f22abe083b9ef,61037937e8a09471b7dc0cfc,2021-07-29_21h00.44.177,Simcolourproject_2stim_asymm_v5,2020.2.10,MacIntel,60,61025ae37ef11b136ea224fe,,,,,,,,,2764,66.53125,33.12890625,1,0,0,response1disk,,6,12.01171875,14.4453125,1,0,0,rectangle,12.01171875,14.4453125,1,0,0,,,,,,,12.01171875,14.4453125,1,0,0,,1,81,241,152,1,
,,,,,,,,,,,,,FF,,,,,,,,0.8833,,,,,,,,,,,,,,,,,,,,,,60fe2df6522f22abe083b9ef,61037937e8a09471b7dc0cfc,2021-07-29_21h00.44.177,Simcolourproject_2stim_asymm_v5,2020.2.10,MacIntel,60,61025ae37ef11b136ea224fe,,,,,,,,,617,22.9296875,-69.44140625,1,0,0,response3disk,,4,4.01171875,-11.65234375,1,0,0,rectangle,4.01171875,-11.65234375,1,0,0,,,,,,,4.01171875,-11.65234375,1,0,0,,1,82,242,95,1,
,,,,,,,,,,,,,FF,,,,,,,,1.8693,,,,,,,,,,,,,,,,,,,,,,60fe2df6522f22abe083b9ef,61037937e8a09471b7dc0cfc,2021-07-29_21h00.44.177,Simcolourproject_2stim_asymm_v5,2020.2.10,MacIntel,60,61025ae37ef11b136ea224fe,,,,,,,,,1708,-18.9765625,-47.6171875,1,0,0,response5disk,,3,-12.203125,2.51171875,1,0,0,rectangle,-12.203125,2.51171875,1,0,0,,,,,,,-12.203125,2.51171875,1,0,0,,1,83,243,120,1,
,,,,,,,,,,,,,FF,,,,,,,,2.5871,,,,,,,,,,,,,,,,,,,,,,60fe2df6522f22abe083b9ef,61037937e8a09471b7dc0cfc,2021-07-29_21h00.44.177,Simcolourproject_2stim_asymm_v5,2020.2.10,MacIntel,60,61025ae37ef11b136ea224fe,,,,,,,,,1787,61.01171875,26.1796875,1,0,0,response1disk,,6,5.19140625,5.16015625,1,0,0,rectangle,5.19140625,5.16015625,1,0,0,,,,,,,5.19140625,5.16015625,1,0,0,,1,84,244,131,1,
,,,,,,,,,,,,,FF,,,,,,,,1.7022,,,,,,,,,,,,,,,,,,,,,,60fe2df6522f22abe083b9ef,61037937e8a09471b7dc0cfc,2021-07-29_21h00.44.177,Simcolourproject_2stim_asymm_v5,2020.2.10,MacIntel,60,61025ae37ef11b136ea224fe,,,,,,,,,4270,59.515625,35.7109375,1,0,0,response1disk,,6,-15.19921875,-9.78515625,1,0,0,rectangle,-15.19921875,-9.78515625,1,0,0,,,,,,,-15.19921875,-9.78515625,1,0,0,,1,85,245,147,1,
,,,,,,,,,,,,,FF,,,,,,,,1.6526,,,,,,,,,,,,,,,,,,,,,,60fe2df6522f22abe083b9ef,61037937e8a09471b7dc0cfc,2021-07-29_21h00.44.177,Simcolourproject_2stim_asymm_v5,2020.2.10,MacIntel,60,61025ae37ef11b136ea224fe,,,,,,,,,4115,62.078125,35.7265625,1,0,0,response1disk,,6,6.54296875,-4.51171875,1,0,0,rectangle,6.54296875,-4.51171875,1,0,0,,,,,,,6.54296875,-4.51171875,1,0,0,,1,86,246,38,1,
,,,,,,,,,,,,,FF,,,,,,,,2.1202,,,,,,,,,,,,,,,,,,,,,,60fe2df6522f22abe083b9ef,61037937e8a09471b7dc0cfc,2021-07-29_21h00.44.177,Simcolourproject_2stim_asymm_v5,2020.2.10,MacIntel,60,61025ae37ef11b136ea224fe,,,,,,,,,200,34.9296875,59.85546875,1,0,0,response1disk,,7,21.10546875,9.80078125,1,0,0,rectangle,21.10546875,9.80078125,1,0,0,,,,,,,21.10546875,9.80078125,1,0,0,,1,87,247,110,1,
