key_resp.keys,key_resp.rt,key_resp_14.keys,key_resp_14.rt,key_resp_15.keys,key_resp_15.rt,key_resp_17.keys,key_resp_17.rt,key_resp_9.keys,key_resp_9.rt,key_resp_10.keys,key_resp_10.rt,practice_comparison,Ecc,mouse_5.x,mouse_5.y,mouse_5.leftButton,mouse_5.midButton,mouse_5.rightButton,mouse_5.clicked_name,pracsimilarity,response_time,mouse_10.x,mouse_10.y,mouse_10.leftButton,mouse_10.midButton,mouse_10.rightButton,mouse_10.clicked_name,mouse_7.x,mouse_7.y,mouse_7.leftButton,mouse_7.midButton,mouse_7.rightButton,mouse_6.x,mouse_6.y,mouse_6.leftButton,mouse_6.midButton,mouse_6.rightButton,duringprac.thisRepN,duringprac.thisTrialN,duringprac.thisN,duringprac.thisIndex,duringprac.ran,participant,session,date,expName,psychopyVersion,OS,frameRate,study_id,mouse_7.clicked_name,catchpracsimilarity,catch_response_time,catchnumberprac,catchtrialorderprac,mouse_6.clicked_name,key_resp_22.keys,key_resp_22.rt,realcomparison,mouse.x,mouse.y,mouse.leftButton,mouse.midButton,mouse.rightButton,mouse.clicked_name,Colour2,similarity,mouse_2.x,mouse_2.y,mouse_2.leftButton,mouse_2.midButton,mouse_2.rightButton,mouse_2.clicked_name,mouse_3.x,mouse_3.y,mouse_3.leftButton,mouse_3.midButton,mouse_3.rightButton,mouse_11.x,mouse_11.y,mouse_11.leftButton,mouse_11.midButton,mouse_11.rightButton,trials_2.thisRepN,trials_2.thisTrialN,trials_2.thisN,trials_2.thisIndex,trials_2.ran,Colour1,mouse_3.clicked_name,catchornah,catchsimilarity,catchnumber,catchtrialorder,catchRT,mouse_11.clicked_name
space,1.6002,space,5.6127,space,26.9809,space,33.0508,space,3.7182,space,7.2174,94,PF,84.69903564,38.94537354,1,0,0,response1disk_5,6,27.5083,-3.280273438,3.506286621,1,0,0,rectangle_8,-3.280273438,3.506286621,1,0,0,-3.280273438,3.506286621,1,0,0,0,0,0,4,1,60fe43b140d7b3e8893288f8,61036cfadaa4d7d2a8d929ac,2021-07-30_13h12.04.710,Simcolourproject_2stim_asymm_v5,2020.2.10,MacIntel,60,61025ae37ef11b136ea224fe,,,,,,,,,,,,,,,,,,,,,,,,,,,,,,,,,,,,,,,,,,,,,,
,,,,,,,,,,,,150,PF,-42.63195801,-85.16271973,1,0,0,response5disk_5,3,3.8668,4.162719727,3.356079102,1,0,0,rectangle_8,-36.91986084,-81.93151855,1,0,0,-1.282836914,4.473327637,1,0,0,0,1,1,2,1,60fe43b140d7b3e8893288f8,61036cfadaa4d7d2a8d929ac,2021-07-30_13h12.04.710,Simcolourproject_2stim_asymm_v5,2020.2.10,MacIntel,60,61025ae37ef11b136ea224fe,response5disk_7,3,6.4321,3,"[2,5]",rectangle_4,,,,,,,,,,,,,,,,,,,,,,,,,,,,,,,,,,,,,,,,
,,,,,,,,,,,,148,FF,43.97460938,-72.1640625,1,0,0,response3disk_5,4,2.4653,-7.776245117,-3.048095703,1,0,0,rectangle_8,-7.776245117,-3.048095703,1,0,0,-7.776245117,-3.048095703,1,0,0,0,2,2,5,1,60fe43b140d7b3e8893288f8,61036cfadaa4d7d2a8d929ac,2021-07-30_13h12.04.710,Simcolourproject_2stim_asymm_v5,2020.2.10,MacIntel,60,61025ae37ef11b136ea224fe,,,,,,,,,,,,,,,,,,,,,,,,,,,,,,,,,,,,,,,,,,,,,,
,,,,,,,,,,,,42,PF,93.894104,-50.62268066,1,0,0,response3disk_5,5,1.5813,1.194763184,-0.958251953,1,0,0,rectangle_8,1.194763184,-0.958251953,1,0,0,1.194763184,-0.958251953,1,0,0,0,3,3,6,1,60fe43b140d7b3e8893288f8,61036cfadaa4d7d2a8d929ac,2021-07-30_13h12.04.710,Simcolourproject_2stim_asymm_v5,2020.2.10,MacIntel,60,61025ae37ef11b136ea224fe,,,,,,,,,,,,,,,,,,,,,,,,,,,,,,,,,,,,,,,,,,,,,,
,,,,,,,,,,,,84,FF,78.7677002,-42.21392822,1,0,0,response3disk_5,5,1.6144,-0.20300293,-8.11151123,1,0,0,rectangle_8,-29.55749512,-85.04528809,1,0,0,3.628234863,-0.885742188,1,0,0,0,4,4,3,1,60fe43b140d7b3e8893288f8,61036cfadaa4d7d2a8d929ac,2021-07-30_13h12.04.710,Simcolourproject_2stim_asymm_v5,2020.2.10,MacIntel,60,61025ae37ef11b136ea224fe,response5disk_7,3,3.1836,3,"[2,5]",rectangle_4,,,,,,,,,,,,,,,,,,,,,,,,,,,,,,,,,,,,,,,,
,,,,,,,,,,,,16,PF,75.36248779,40.12670898,1,0,0,response1disk_5,6,5.4828,-3.942749023,-2.266479492,1,0,0,rectangle_8,-3.942749023,-2.266479492,1,0,0,-3.942749023,-2.266479492,1,0,0,0,5,5,1,1,60fe43b140d7b3e8893288f8,61036cfadaa4d7d2a8d929ac,2021-07-30_13h12.04.710,Simcolourproject_2stim_asymm_v5,2020.2.10,MacIntel,60,61025ae37ef11b136ea224fe,,,,,,,,,,,,,,,,,,,,,,,,,,,,,,,,,,,,,,,,,,,,,,
,,,,,,,,,,,,154,FF,-56.85125732,-80.81359863,1,0,0,response5disk_5,3,1.6659,6.238708496,2.885131836,1,0,0,rectangle_8,6.238708496,2.885131836,1,0,0,6.238708496,2.885131836,1,0,0,0,6,6,0,1,60fe43b140d7b3e8893288f8,61036cfadaa4d7d2a8d929ac,2021-07-30_13h12.04.710,Simcolourproject_2stim_asymm_v5,2020.2.10,MacIntel,60,61025ae37ef11b136ea224fe,,,,,,,,,,,,,,,,,,,,,,,,,,,,,,,,,,,,,,,,,,,,,,
,,,,,,,,,,,,,FF,,,,,,,,2.2503,,,,,,,,,,,,,,,,,,,,,,60fe43b140d7b3e8893288f8,61036cfadaa4d7d2a8d929ac,2021-07-30_13h12.04.710,Simcolourproject_2stim_asymm_v5,2020.2.10,MacIntel,60,61025ae37ef11b136ea224fe,,,,,,,space,8.2802,3742,-41.33764648,75.61816406,1,0,0,response7disk,,0,-0.99621582,-1.399475098,1,0,0,rectangle,-0.99621582,-1.399475098,1,0,0,-0.99621582,-1.399475098,1,0,0,0,0,0,69,1,,,,,,,,
,,,,,,,,,,,,,FF,,,,,,,,1.2503,,,,,,,,,,,,,,,,,,,,,,60fe43b140d7b3e8893288f8,61036cfadaa4d7d2a8d929ac,2021-07-30_13h12.04.710,Simcolourproject_2stim_asymm_v5,2020.2.10,MacIntel,60,61025ae37ef11b136ea224fe,,,,,,,,,1711,37.26696777,-75.86108398,1,0,0,response3disk,,4,-2.392578125,-0.730712891,1,0,0,rectangle,-2.392578125,-0.730712891,1,0,0,-2.392578125,-0.730712891,1,0,0,0,1,1,12,1,,,,,,,,
,,,,,,,,,,,,,FF,,,,,,,,0.9478,,,,,,,,,,,,,,,,,,,,,,60fe43b140d7b3e8893288f8,61036cfadaa4d7d2a8d929ac,2021-07-30_13h12.04.710,Simcolourproject_2stim_asymm_v5,2020.2.10,MacIntel,60,61025ae37ef11b136ea224fe,,,,,,,,,666,66.76171875,-37.95913696,1,0,0,response3disk,,5,-7.067260742,-2.343383789,1,0,0,rectangle,-7.067260742,-2.343383789,1,0,0,-7.067260742,-2.343383789,1,0,0,0,2,2,114,1,,,,,,,,
,,,,,,,,,,,,,FF,,,,,,,,0.8837,,,,,,,,,,,,,,,,,,,,,,60fe43b140d7b3e8893288f8,61036cfadaa4d7d2a8d929ac,2021-07-30_13h12.04.710,Simcolourproject_2stim_asymm_v5,2020.2.10,MacIntel,60,61025ae37ef11b136ea224fe,,,,,,,,,2515,72.62835693,-29.52252197,1,0,0,response3disk,,5,-11.9822998,-4.90045166,1,0,0,rectangle,-11.9822998,-4.90045166,1,0,0,-11.9822998,-4.90045166,1,0,0,0,3,3,18,1,,,,,,,,
,,,,,,,,,,,,,FF,,,,,,,,0.9691,,,,,,,,,,,,,,,,,,,,,,60fe43b140d7b3e8893288f8,61036cfadaa4d7d2a8d929ac,2021-07-30_13h12.04.710,Simcolourproject_2stim_asymm_v5,2020.2.10,MacIntel,60,61025ae37ef11b136ea224fe,,,,,,,,,859,79.6151123,-56.39251709,1,0,0,response3disk,,5,-3.279663086,-0.212524414,1,0,0,rectangle,-3.279663086,-0.212524414,1,0,0,-3.279663086,-0.212524414,1,0,0,0,4,4,93,1,,,,,,,,
,,,,,,,,,,,,,FF,,,,,,,,1.2999,,,,,,,,,,,,,,,,,,,,,,60fe43b140d7b3e8893288f8,61036cfadaa4d7d2a8d929ac,2021-07-30_13h12.04.710,Simcolourproject_2stim_asymm_v5,2020.2.10,MacIntel,60,61025ae37ef11b136ea224fe,,,,,,,,,3842,84.66906738,39.97814941,1,0,0,response1disk,,6,10.1763916,-1.964782715,1,0,0,rectangle,10.1763916,-1.964782715,1,0,0,10.1763916,-1.964782715,1,0,0,0,5,5,133,1,,,,,,,,
,,,,,,,,,,,,,FF,,,,,,,,0.9828,,,,,,,,,,,,,,,,,,,,,,60fe43b140d7b3e8893288f8,61036cfadaa4d7d2a8d929ac,2021-07-30_13h12.04.710,Simcolourproject_2stim_asymm_v5,2020.2.10,MacIntel,60,61025ae37ef11b136ea224fe,,,,,,,,,2553,33.65112305,-76.01818848,1,0,0,response3disk,,4,7.26159668,2.585021973,1,0,0,rectangle,7.26159668,2.585021973,1,0,0,7.26159668,2.585021973,1,0,0,0,6,6,99,1,,,,,,,,
,,,,,,,,,,,,,FF,,,,,,,,1.1176,,,,,,,,,,,,,,,,,,,,,,60fe43b140d7b3e8893288f8,61036cfadaa4d7d2a8d929ac,2021-07-30_13h12.04.710,Simcolourproject_2stim_asymm_v5,2020.2.10,MacIntel,60,61025ae37ef11b136ea224fe,,,,,,,,,60,84.36322021,-34.92687988,1,0,0,response3disk,,5,-7.724853516,-0.761291504,1,0,0,rectangle,-7.724853516,-0.761291504,1,0,0,-7.724853516,-0.761291504,1,0,0,0,7,7,139,1,,,,,,,,
,,,,,,,,,,,,,FF,,,,,,,,2.3845,,,,,,,,,,,,,,,,,,,,,,60fe43b140d7b3e8893288f8,61036cfadaa4d7d2a8d929ac,2021-07-30_13h12.04.710,Simcolourproject_2stim_asymm_v5,2020.2.10,MacIntel,60,61025ae37ef11b136ea224fe,,,,,,,,,17,79.29144287,40.66598511,1,0,0,response1disk,,6,13.9432373,0.922058105,1,0,0,rectangle,13.9432373,0.922058105,1,0,0,13.9432373,0.922058105,1,0,0,0,8,8,50,1,,,,,,,,
,,,,,,,,,,,,,FF,,,,,,,,0.817,,,,,,,,,,,,,,,,,,,,,,60fe43b140d7b3e8893288f8,61036cfadaa4d7d2a8d929ac,2021-07-30_13h12.04.710,Simcolourproject_2stim_asymm_v5,2020.2.10,MacIntel,60,61025ae37ef11b136ea224fe,,,,,,,,,2762,32.89752197,88.65802002,1,0,0,response1disk,,7,-10.921875,1.867126465,1,0,0,rectangle,-10.921875,1.867126465,1,0,0,-10.921875,1.867126465,1,0,0,0,9,9,102,1,,,,,,,,
,,,,,,,,,,,,,FF,,,,,,,,1.0183,,,,,,,,,,,,,,,,,,,,,,60fe43b140d7b3e8893288f8,61036cfadaa4d7d2a8d929ac,2021-07-30_13h12.04.710,Simcolourproject_2stim_asymm_v5,2020.2.10,MacIntel,60,61025ae37ef11b136ea224fe,,,,,,,,,845,75.03210449,-43.52255249,1,0,0,response3disk,,5,-0.648742676,-1.268981934,1,0,0,rectangle,-0.648742676,-1.268981934,1,0,0,-0.648742676,-1.268981934,1,0,0,0,10,10,89,1,,,,,,,,
,,,,,,,,,,,,,FF,,,,,,,,0.8141,,,,,,,,,,,,,,,,,,,,,,60fe43b140d7b3e8893288f8,61036cfadaa4d7d2a8d929ac,2021-07-30_13h12.04.710,Simcolourproject_2stim_asymm_v5,2020.2.10,MacIntel,60,61025ae37ef11b136ea224fe,,,,,,,,,3119,35.79620361,82.02523804,1,0,0,response1disk,,7,-1.995117188,-2.791015625,1,0,0,rectangle,-1.995117188,-2.791015625,1,0,0,-1.995117188,-2.791015625,1,0,0,0,11,11,81,1,,,,,,,,
,,,,,,,,,,,,,FF,,,,,,,,0.748,,,,,,,,,,,,,,,,,,,,,,60fe43b140d7b3e8893288f8,61036cfadaa4d7d2a8d929ac,2021-07-30_13h12.04.710,Simcolourproject_2stim_asymm_v5,2020.2.10,MacIntel,60,61025ae37ef11b136ea224fe,,,,,,,,,2588,24.43395996,79.91375732,1,0,0,response1disk,,7,-4.112304688,0.017883301,1,0,0,rectangle,-4.112304688,0.017883301,1,0,0,-4.112304688,0.017883301,1,0,0,0,12,12,147,1,,,,,,,,
,,,,,,,,,,,,,FF,,,,,,,,3.4863,,,,,,,,,,,,,,,,,,,,,,60fe43b140d7b3e8893288f8,61036cfadaa4d7d2a8d929ac,2021-07-30_13h12.04.710,Simcolourproject_2stim_asymm_v5,2020.2.10,MacIntel,60,61025ae37ef11b136ea224fe,,,,,,,,,2636,83.96203613,49.5098877,1,0,0,response1disk,,6,11.26373291,-2.588439941,1,0,0,rectangle,-31.48205566,90.45874023,1,0,0,6.245300293,2.35546875,1,0,0,0,13,13,8,1,,response7disk_3,TRUE,0,0,"[257,232,218,76,217,51,172,162,254,18,14,100,69,233,260,316,34,80,274,20]",2.6314,rectangle
,,,,,,,,,,,,,FF,,,,,,,,1.2856,,,,,,,,,,,,,,,,,,,,,,60fe43b140d7b3e8893288f8,61036cfadaa4d7d2a8d929ac,2021-07-30_13h12.04.710,Simcolourproject_2stim_asymm_v5,2020.2.10,MacIntel,60,61025ae37ef11b136ea224fe,,,,,,,,,1609,-40.76025391,82.94390869,1,0,0,response7disk,,0,7.10760498,-3.422973633,1,0,0,rectangle,7.10760498,-3.422973633,1,0,0,7.10760498,-3.422973633,1,0,0,0,14,14,116,1,,,,,,,,
,,,,,,,,,,,,,FF,,,,,,,,2.1029,,,,,,,,,,,,,,,,,,,,,,60fe43b140d7b3e8893288f8,61036cfadaa4d7d2a8d929ac,2021-07-30_13h12.04.710,Simcolourproject_2stim_asymm_v5,2020.2.10,MacIntel,60,61025ae37ef11b136ea224fe,,,,,,,,,1471,76.50976563,40.59246826,1,0,0,response1disk,,6,0.552307129,-1.741760254,1,0,0,rectangle,0.552307129,-1.741760254,1,0,0,0.552307129,-1.741760254,1,0,0,0,15,15,123,1,,,,,,,,
,,,,,,,,,,,,,FF,,,,,,,,0.9678,,,,,,,,,,,,,,,,,,,,,,60fe43b140d7b3e8893288f8,61036cfadaa4d7d2a8d929ac,2021-07-30_13h12.04.710,Simcolourproject_2stim_asymm_v5,2020.2.10,MacIntel,60,61025ae37ef11b136ea224fe,,,,,,,,,69,64.80297852,-40.41171265,1,0,0,response3disk,,5,-12.88006592,1.133666992,1,0,0,rectangle,-12.88006592,1.133666992,1,0,0,-12.88006592,1.133666992,1,0,0,0,16,16,135,1,,,,,,,,
,,,,,,,,,,,,,FF,,,,,,,,0.9367,,,,,,,,,,,,,,,,,,,,,,60fe43b140d7b3e8893288f8,61036cfadaa4d7d2a8d929ac,2021-07-30_13h12.04.710,Simcolourproject_2stim_asymm_v5,2020.2.10,MacIntel,60,61025ae37ef11b136ea224fe,,,,,,,,,586,40.57781982,66.56268311,1,0,0,response1disk,,7,3.656860352,2.379760742,1,0,0,rectangle,-75.21020508,45.20245361,1,0,0,-3.657836914,-1.257904053,1,0,0,0,17,17,107,1,,response7disk_3,TRUE,1,1,"[257,232,218,76,217,51,172,162,254,18,14,100,69,233,260,316,34,80,274,20]",2.1184,rectangle
,,,,,,,,,,,,,FF,,,,,,,,3.7337,,,,,,,,,,,,,,,,,,,,,,60fe43b140d7b3e8893288f8,61036cfadaa4d7d2a8d929ac,2021-07-30_13h12.04.710,Simcolourproject_2stim_asymm_v5,2020.2.10,MacIntel,60,61025ae37ef11b136ea224fe,,,,,,,,,2425,-82.16394043,-40.29431152,1,0,0,response5disk,,2,0.606811523,-5.883880615,1,0,0,rectangle,0.606811523,-5.883880615,1,0,0,0.606811523,-5.883880615,1,0,0,0,18,18,140,1,,,,,,,,
,,,,,,,,,,,,,FF,,,,,,,,1.3314,,,,,,,,,,,,,,,,,,,,,,60fe43b140d7b3e8893288f8,61036cfadaa4d7d2a8d929ac,2021-07-30_13h12.04.710,Simcolourproject_2stim_asymm_v5,2020.2.10,MacIntel,60,61025ae37ef11b136ea224fe,,,,,,,,,2722,-72.59002686,-32.37237549,1,0,0,response5disk,,2,0.717590332,-5.645446777,1,0,0,rectangle,37.18115234,74.37301636,1,0,0,-5.525878906,1.34954834,1,0,0,0,19,19,159,1,,response1disk_3,TRUE,7,7,"[257,232,218,76,217,51,172,162,254,18,14,100,69,233,260,316,34,80,274,20]",2.5006,rectangle
,,,,,,,,,,,,,FF,,,,,,,,1.3671,,,,,,,,,,,,,,,,,,,,,,60fe43b140d7b3e8893288f8,61036cfadaa4d7d2a8d929ac,2021-07-30_13h12.04.710,Simcolourproject_2stim_asymm_v5,2020.2.10,MacIntel,60,61025ae37ef11b136ea224fe,,,,,,,,,3620,35.41223145,-78.57806396,1,0,0,response3disk,,4,-3.986083984,-4.531951904,1,0,0,rectangle,-3.986083984,-4.531951904,1,0,0,-3.986083984,-4.531951904,1,0,0,0,20,20,153,1,,,,,,,,
,,,,,,,,,,,,,FF,,,,,,,,1.7166,,,,,,,,,,,,,,,,,,,,,,60fe43b140d7b3e8893288f8,61036cfadaa4d7d2a8d929ac,2021-07-30_13h12.04.710,Simcolourproject_2stim_asymm_v5,2020.2.10,MacIntel,60,61025ae37ef11b136ea224fe,,,,,,,,,3831,69.61962891,-41.25482178,1,0,0,response3disk,,5,-3.931518555,-6.040710449,1,0,0,rectangle,-3.931518555,-6.040710449,1,0,0,-3.931518555,-6.040710449,1,0,0,0,21,21,42,1,,,,,,,,
,,,,,,,,,,,,,FF,,,,,,,,1.0824,,,,,,,,,,,,,,,,,,,,,,60fe43b140d7b3e8893288f8,61036cfadaa4d7d2a8d929ac,2021-07-30_13h12.04.710,Simcolourproject_2stim_asymm_v5,2020.2.10,MacIntel,60,61025ae37ef11b136ea224fe,,,,,,,,,2529,42.57965088,-96.79077148,1,0,0,response3disk,,4,-9.03527832,-2.230957031,1,0,0,rectangle,-9.03527832,-2.230957031,1,0,0,-9.03527832,-2.230957031,1,0,0,0,22,22,119,1,,,,,,,,
,,,,,,,,,,,,,FF,,,,,,,,1.8499,,,,,,,,,,,,,,,,,,,,,,60fe43b140d7b3e8893288f8,61036cfadaa4d7d2a8d929ac,2021-07-30_13h12.04.710,Simcolourproject_2stim_asymm_v5,2020.2.10,MacIntel,60,61025ae37ef11b136ea224fe,,,,,,,,,4339,44.68426514,-88.02319336,1,0,0,response3disk,,4,-4.908203125,-2.160217285,1,0,0,rectangle,-4.908203125,-2.160217285,1,0,0,-4.908203125,-2.160217285,1,0,0,0,23,23,101,1,,,,,,,,
,,,,,,,,,,,,,FF,,,,,,,,1.9144,,,,,,,,,,,,,,,,,,,,,,60fe43b140d7b3e8893288f8,61036cfadaa4d7d2a8d929ac,2021-07-30_13h12.04.710,Simcolourproject_2stim_asymm_v5,2020.2.10,MacIntel,60,61025ae37ef11b136ea224fe,,,,,,,,,1474,78.37835693,-36.00695801,1,0,0,response3disk,,5,-1.233886719,5.723999023,1,0,0,rectangle,-1.233886719,5.723999023,1,0,0,-1.233886719,5.723999023,1,0,0,0,24,24,98,1,,,,,,,,
,,,,,,,,,,,,,FF,,,,,,,,1.352,,,,,,,,,,,,,,,,,,,,,,60fe43b140d7b3e8893288f8,61036cfadaa4d7d2a8d929ac,2021-07-30_13h12.04.710,Simcolourproject_2stim_asymm_v5,2020.2.10,MacIntel,60,61025ae37ef11b136ea224fe,,,,,,,,,2693,29.76373291,75.65197754,1,0,0,response1disk,,7,-4.256774902,-1.465698242,1,0,0,rectangle,-4.256774902,-1.465698242,1,0,0,-4.256774902,-1.465698242,1,0,0,0,25,25,59,1,,,,,,,,
,,,,,,,,,,,,,FF,,,,,,,,0.7664,,,,,,,,,,,,,,,,,,,,,,60fe43b140d7b3e8893288f8,61036cfadaa4d7d2a8d929ac,2021-07-30_13h12.04.710,Simcolourproject_2stim_asymm_v5,2020.2.10,MacIntel,60,61025ae37ef11b136ea224fe,,,,,,,,,3359,25.05511475,73.22088623,1,0,0,response1disk,,7,-1.739990234,-9.670043945,1,0,0,rectangle,-1.739990234,-9.670043945,1,0,0,-1.739990234,-9.670043945,1,0,0,0,26,26,127,1,,,,,,,,
,,,,,,,,,,,,,FF,,,,,,,,2.1661,,,,,,,,,,,,,,,,,,,,,,60fe43b140d7b3e8893288f8,61036cfadaa4d7d2a8d929ac,2021-07-30_13h12.04.710,Simcolourproject_2stim_asymm_v5,2020.2.10,MacIntel,60,61025ae37ef11b136ea224fe,,,,,,,,,1959,-29.41741943,-78.82354736,1,0,0,response5disk,,3,4.126464844,3.179260254,1,0,0,rectangle,4.126464844,3.179260254,1,0,0,4.126464844,3.179260254,1,0,0,0,27,27,68,1,,,,,,,,
,,,,,,,,,,,,,FF,,,,,,,,2.767,,,,,,,,,,,,,,,,,,,,,,60fe43b140d7b3e8893288f8,61036cfadaa4d7d2a8d929ac,2021-07-30_13h12.04.710,Simcolourproject_2stim_asymm_v5,2020.2.10,MacIntel,60,61025ae37ef11b136ea224fe,,,,,,,,,3711,-65.21490479,-46.75128174,1,0,0,response5disk,,2,-10.22387695,-12.83734131,1,0,0,rectangle,-10.22387695,-12.83734131,1,0,0,-10.22387695,-12.83734131,1,0,0,0,28,28,111,1,,,,,,,,
,,,,,,,,,,,,,FF,,,,,,,,1.4332,,,,,,,,,,,,,,,,,,,,,,60fe43b140d7b3e8893288f8,61036cfadaa4d7d2a8d929ac,2021-07-30_13h12.04.710,Simcolourproject_2stim_asymm_v5,2020.2.10,MacIntel,60,61025ae37ef11b136ea224fe,,,,,,,,,3230,43.1784668,73.92712402,1,0,0,response1disk,,7,-9.003601074,-3.229705811,1,0,0,rectangle,-9.003601074,-3.229705811,1,0,0,-9.003601074,-3.229705811,1,0,0,0,29,29,56,1,,,,,,,,
,,,,,,,,,,,,,FF,,,,,,,,2.284,,,,,,,,,,,,,,,,,,,,,,60fe43b140d7b3e8893288f8,61036cfadaa4d7d2a8d929ac,2021-07-30_13h12.04.710,Simcolourproject_2stim_asymm_v5,2020.2.10,MacIntel,60,61025ae37ef11b136ea224fe,,,,,,,,,3296,-37.96453857,-80.96228027,1,0,0,response5disk,,3,6.544189453,3.517150879,1,0,0,rectangle,6.544189453,3.517150879,1,0,0,6.544189453,3.517150879,1,0,0,0,30,30,118,1,,,,,,,,
,,,,,,,,,,,,,FF,,,,,,,,1.0317,,,,,,,,,,,,,,,,,,,,,,60fe43b140d7b3e8893288f8,61036cfadaa4d7d2a8d929ac,2021-07-30_13h12.04.710,Simcolourproject_2stim_asymm_v5,2020.2.10,MacIntel,60,61025ae37ef11b136ea224fe,,,,,,,,,2786,-67.375,-33.68249512,1,0,0,response5disk,,2,-7.807495117,-7.545623779,1,0,0,rectangle,-7.807495117,-7.545623779,1,0,0,-7.807495117,-7.545623779,1,0,0,0,31,31,23,1,,,,,,,,
,,,,,,,,,,,,,FF,,,,,,,,2.2333,,,,,,,,,,,,,,,,,,,,,,60fe43b140d7b3e8893288f8,61036cfadaa4d7d2a8d929ac,2021-07-30_13h12.04.710,Simcolourproject_2stim_asymm_v5,2020.2.10,MacIntel,60,61025ae37ef11b136ea224fe,,,,,,,,,3008,73.65197754,-42.18710327,1,0,0,response3disk,,5,-7.781616211,-5.433105469,1,0,0,rectangle,-7.781616211,-5.433105469,1,0,0,-7.781616211,-5.433105469,1,0,0,0,32,32,64,1,,,,,,,,
,,,,,,,,,,,,,FF,,,,,,,,1.1171,,,,,,,,,,,,,,,,,,,,,,60fe43b140d7b3e8893288f8,61036cfadaa4d7d2a8d929ac,2021-07-30_13h12.04.710,Simcolourproject_2stim_asymm_v5,2020.2.10,MacIntel,60,61025ae37ef11b136ea224fe,,,,,,,,,4071,-31.47412109,76.51974487,1,0,0,response7disk,,0,6.613220215,-3.610656738,1,0,0,rectangle,-91.28277588,-36.77636719,1,0,0,2.288024902,-1.544372559,1,0,0,0,33,33,46,1,,response5disk_3,TRUE,2,2,"[257,232,218,76,217,51,172,162,254,18,14,100,69,233,260,316,34,80,274,20]",2.2145,rectangle
,,,,,,,,,,,,,FF,,,,,,,,1.1835,,,,,,,,,,,,,,,,,,,,,,60fe43b140d7b3e8893288f8,61036cfadaa4d7d2a8d929ac,2021-07-30_13h12.04.710,Simcolourproject_2stim_asymm_v5,2020.2.10,MacIntel,60,61025ae37ef11b136ea224fe,,,,,,,,,2586,72.98394775,-34.63525391,1,0,0,response3disk,,5,-7.315979004,4.637390137,1,0,0,rectangle,-7.315979004,4.637390137,1,0,0,-7.315979004,4.637390137,1,0,0,0,34,34,148,1,,,,,,,,
,,,,,,,,,,,,,FF,,,,,,,,0.8987,,,,,,,,,,,,,,,,,,,,,,60fe43b140d7b3e8893288f8,61036cfadaa4d7d2a8d929ac,2021-07-30_13h12.04.710,Simcolourproject_2stim_asymm_v5,2020.2.10,MacIntel,60,61025ae37ef11b136ea224fe,,,,,,,,,2920,60.78814697,97.38058472,1,0,0,response1disk,,7,7.244934082,-3.219360352,1,0,0,rectangle,7.244934082,-3.219360352,1,0,0,7.244934082,-3.219360352,1,0,0,0,35,35,24,1,,,,,,,,
,,,,,,,,,,,,,FF,,,,,,,,1.4502,,,,,,,,,,,,,,,,,,,,,,60fe43b140d7b3e8893288f8,61036cfadaa4d7d2a8d929ac,2021-07-30_13h12.04.710,Simcolourproject_2stim_asymm_v5,2020.2.10,MacIntel,60,61025ae37ef11b136ea224fe,,,,,,,,,3626,-36.10241699,-89.84069824,1,0,0,response5disk,,3,1.601806641,-6.159423828,1,0,0,rectangle,1.601806641,-6.159423828,1,0,0,1.601806641,-6.159423828,1,0,0,0,36,36,49,1,,,,,,,,
,,,,,,,,,,,,,FF,,,,,,,,1.0173,,,,,,,,,,,,,,,,,,,,,,60fe43b140d7b3e8893288f8,61036cfadaa4d7d2a8d929ac,2021-07-30_13h12.04.710,Simcolourproject_2stim_asymm_v5,2020.2.10,MacIntel,60,61025ae37ef11b136ea224fe,,,,,,,,,2595,32.50952148,-64.71191406,1,0,0,response3disk,,4,0.466064453,-10.44793701,1,0,0,rectangle,0.466064453,-10.44793701,1,0,0,0.466064453,-10.44793701,1,0,0,0,37,37,95,1,,,,,,,,
,,,,,,,,,,,,,FF,,,,,,,,1.1339,,,,,,,,,,,,,,,,,,,,,,60fe43b140d7b3e8893288f8,61036cfadaa4d7d2a8d929ac,2021-07-30_13h12.04.710,Simcolourproject_2stim_asymm_v5,2020.2.10,MacIntel,60,61025ae37ef11b136ea224fe,,,,,,,,,4104,-74.63201904,-32.37878418,1,0,0,response5disk,,2,2.239929199,-0.952880859,1,0,0,rectangle,2.239929199,-0.952880859,1,0,0,2.239929199,-0.952880859,1,0,0,0,38,38,85,1,,,,,,,,
,,,,,,,,,,,,,FF,,,,,,,,1.0857,,,,,,,,,,,,,,,,,,,,,,60fe43b140d7b3e8893288f8,61036cfadaa4d7d2a8d929ac,2021-07-30_13h12.04.710,Simcolourproject_2stim_asymm_v5,2020.2.10,MacIntel,60,61025ae37ef11b136ea224fe,,,,,,,,,2492,36.73382568,-78.19512939,1,0,0,response3disk,,4,0.723937988,-4.471801758,1,0,0,rectangle,0.723937988,-4.471801758,1,0,0,0.723937988,-4.471801758,1,0,0,0,39,39,67,1,,,,,,,,
,,,,,,,,,,,,,FF,,,,,,,,1.9319,,,,,,,,,,,,,,,,,,,,,,60fe43b140d7b3e8893288f8,61036cfadaa4d7d2a8d929ac,2021-07-30_13h12.04.710,Simcolourproject_2stim_asymm_v5,2020.2.10,MacIntel,60,61025ae37ef11b136ea224fe,,,,,,,,,1943,75.5267334,35.32229614,1,0,0,response1disk,,6,-4.179138184,-6.951721191,1,0,0,rectangle,-4.179138184,-6.951721191,1,0,0,-4.179138184,-6.951721191,1,0,0,0,40,40,149,1,,,,,,,,
,,,,,,,,,,,,,FF,,,,,,,,1.2169,,,,,,,,,,,,,,,,,,,,,,60fe43b140d7b3e8893288f8,61036cfadaa4d7d2a8d929ac,2021-07-30_13h12.04.710,Simcolourproject_2stim_asymm_v5,2020.2.10,MacIntel,60,61025ae37ef11b136ea224fe,,,,,,,,,3980,74.59228516,-29.51074219,1,0,0,response3disk,,5,2.670471191,-6.691680908,1,0,0,rectangle,2.670471191,-6.691680908,1,0,0,2.670471191,-6.691680908,1,0,0,0,41,41,152,1,,,,,,,,
,,,,,,,,,,,,,FF,,,,,,,,2.1004,,,,,,,,,,,,,,,,,,,,,,60fe43b140d7b3e8893288f8,61036cfadaa4d7d2a8d929ac,2021-07-30_13h12.04.710,Simcolourproject_2stim_asymm_v5,2020.2.10,MacIntel,60,61025ae37ef11b136ea224fe,,,,,,,,,1340,72.3215332,34.38540649,1,0,0,response1disk,,6,-3.404907227,-5.147766113,1,0,0,rectangle,-3.404907227,-5.147766113,1,0,0,-3.404907227,-5.147766113,1,0,0,0,42,42,40,1,,,,,,,,
,,,,,,,,,,,,,FF,,,,,,,,1.4847,,,,,,,,,,,,,,,,,,,,,,60fe43b140d7b3e8893288f8,61036cfadaa4d7d2a8d929ac,2021-07-30_13h12.04.710,Simcolourproject_2stim_asymm_v5,2020.2.10,MacIntel,60,61025ae37ef11b136ea224fe,,,,,,,,,1362,24.49731445,-80.50067139,1,0,0,response3disk,,4,1.213500977,4.372039795,1,0,0,rectangle,1.213500977,4.372039795,1,0,0,1.213500977,4.372039795,1,0,0,0,43,43,71,1,,,,,,,,
,,,,,,,,,,,,,FF,,,,,,,,1.051,,,,,,,,,,,,,,,,,,,,,,60fe43b140d7b3e8893288f8,61036cfadaa4d7d2a8d929ac,2021-07-30_13h12.04.710,Simcolourproject_2stim_asymm_v5,2020.2.10,MacIntel,60,61025ae37ef11b136ea224fe,,,,,,,,,2355,-38.14978027,86.3447876,1,0,0,response7disk,,0,9.157531738,-2.321136475,1,0,0,rectangle,9.157531738,-2.321136475,1,0,0,9.157531738,-2.321136475,1,0,0,0,44,44,97,1,,,,,,,,
,,,,,,,,,,,,,FF,,,,,,,,1.0656,,,,,,,,,,,,,,,,,,,,,,60fe43b140d7b3e8893288f8,61036cfadaa4d7d2a8d929ac,2021-07-30_13h12.04.710,Simcolourproject_2stim_asymm_v5,2020.2.10,MacIntel,60,61025ae37ef11b136ea224fe,,,,,,,,,1615,-73.24768066,-42.3963623,1,0,0,response5disk,,2,9.85546875,-1.19317627,1,0,0,rectangle,9.85546875,-1.19317627,1,0,0,9.85546875,-1.19317627,1,0,0,0,45,45,143,1,,,,,,,,
,,,,,,,,,,,,,FF,,,,,,,,2.1177,,,,,,,,,,,,,,,,,,,,,,60fe43b140d7b3e8893288f8,61036cfadaa4d7d2a8d929ac,2021-07-30_13h12.04.710,Simcolourproject_2stim_asymm_v5,2020.2.10,MacIntel,60,61025ae37ef11b136ea224fe,,,,,,,,,1710,69.54345703,-48.70358276,1,0,0,response3disk,,5,1.898986816,-4.093811035,1,0,0,rectangle,1.898986816,-4.093811035,1,0,0,1.898986816,-4.093811035,1,0,0,0,46,46,61,1,,,,,,,,
,,,,,,,,,,,,,FF,,,,,,,,1.1314,,,,,,,,,,,,,,,,,,,,,,60fe43b140d7b3e8893288f8,61036cfadaa4d7d2a8d929ac,2021-07-30_13h12.04.710,Simcolourproject_2stim_asymm_v5,2020.2.10,MacIntel,60,61025ae37ef11b136ea224fe,,,,,,,,,662,90.99816895,50.85748291,1,0,0,response1disk,,6,-2.740356445,-5.711761475,1,0,0,rectangle,-2.740356445,-5.711761475,1,0,0,-2.740356445,-5.711761475,1,0,0,0,47,47,129,1,,,,,,,,
,,,,,,,,,,,,,FF,,,,,,,,0.8506,,,,,,,,,,,,,,,,,,,,,,60fe43b140d7b3e8893288f8,61036cfadaa4d7d2a8d929ac,2021-07-30_13h12.04.710,Simcolourproject_2stim_asymm_v5,2020.2.10,MacIntel,60,61025ae37ef11b136ea224fe,,,,,,,,,2264,30.81018066,62.81573486,1,0,0,response1disk,,7,-3.749511719,-4.905975342,1,0,0,rectangle,-3.749511719,-4.905975342,1,0,0,-3.749511719,-4.905975342,1,0,0,0,48,48,132,1,,,,,,,,
,,,,,,,,,,,,,FF,,,,,,,,1.0502,,,,,,,,,,,,,,,,,,,,,,60fe43b140d7b3e8893288f8,61036cfadaa4d7d2a8d929ac,2021-07-30_13h12.04.710,Simcolourproject_2stim_asymm_v5,2020.2.10,MacIntel,60,61025ae37ef11b136ea224fe,,,,,,,,,2780,-70.99902344,30.51641846,1,0,0,response7disk,,1,3.110717773,-2.695373535,1,0,0,rectangle,3.110717773,-2.695373535,1,0,0,3.110717773,-2.695373535,1,0,0,0,49,49,43,1,,,,,,,,
,,,,,,,,,,,,,FF,,,,,,,,2.2344,,,,,,,,,,,,,,,,,,,,,,60fe43b140d7b3e8893288f8,61036cfadaa4d7d2a8d929ac,2021-07-30_13h12.04.710,Simcolourproject_2stim_asymm_v5,2020.2.10,MacIntel,60,61025ae37ef11b136ea224fe,,,,,,,,,4165,79.70550537,49.62573242,1,0,0,response1disk,,6,-4.445556641,-4.542266846,1,0,0,rectangle,77.51690674,31.44500732,1,0,0,2.14050293,-3.515014648,1,0,0,0,50,50,104,1,,response1disk_3,TRUE,6,6,"[257,232,218,76,217,51,172,162,254,18,14,100,69,233,260,316,34,80,274,20]",2.1161,rectangle
,,,,,,,,,,,,,FF,,,,,,,,1.7667,,,,,,,,,,,,,,,,,,,,,,60fe43b140d7b3e8893288f8,61036cfadaa4d7d2a8d929ac,2021-07-30_13h12.04.710,Simcolourproject_2stim_asymm_v5,2020.2.10,MacIntel,60,61025ae37ef11b136ea224fe,,,,,,,,,1356,71.94256592,-44.54220581,1,0,0,response3disk,,5,-0.278442383,4.343078613,1,0,0,rectangle,-0.278442383,4.343078613,1,0,0,-0.278442383,4.343078613,1,0,0,0,51,51,30,1,,,,,,,,
,,,,,,,,,,,,,FF,,,,,,,,1.8002,,,,,,,,,,,,,,,,,,,,,,60fe43b140d7b3e8893288f8,61036cfadaa4d7d2a8d929ac,2021-07-30_13h12.04.710,Simcolourproject_2stim_asymm_v5,2020.2.10,MacIntel,60,61025ae37ef11b136ea224fe,,,,,,,,,2974,75.3560791,-33.0496521,1,0,0,response3disk,,5,-6.58581543,5.559448242,1,0,0,rectangle,-6.58581543,5.559448242,1,0,0,-6.58581543,5.559448242,1,0,0,0,52,52,106,1,,,,,,,,
,,,,,,,,,,,,,FF,,,,,,,,1.1319,,,,,,,,,,,,,,,,,,,,,,60fe43b140d7b3e8893288f8,61036cfadaa4d7d2a8d929ac,2021-07-30_13h12.04.710,Simcolourproject_2stim_asymm_v5,2020.2.10,MacIntel,60,61025ae37ef11b136ea224fe,,,,,,,,,194,-29.09661865,-61.49801636,1,0,0,response5disk,,3,-0.634033203,-1.827392578,1,0,0,rectangle,-0.634033203,-1.827392578,1,0,0,-0.634033203,-1.827392578,1,0,0,0,53,53,117,1,,,,,,,,
,,,,,,,,,,,,,FF,,,,,,,,0.8666,,,,,,,,,,,,,,,,,,,,,,60fe43b140d7b3e8893288f8,61036cfadaa4d7d2a8d929ac,2021-07-30_13h12.04.710,Simcolourproject_2stim_asymm_v5,2020.2.10,MacIntel,60,61025ae37ef11b136ea224fe,,,,,,,,,76,70.65563965,-36.02484131,1,0,0,response3disk,,5,2.4609375,3.102081299,1,0,0,rectangle,2.4609375,3.102081299,1,0,0,2.4609375,3.102081299,1,0,0,0,54,54,33,1,,,,,,,,
,,,,,,,,,,,,,FF,,,,,,,,0.8502,,,,,,,,,,,,,,,,,,,,,,60fe43b140d7b3e8893288f8,61036cfadaa4d7d2a8d929ac,2021-07-30_13h12.04.710,Simcolourproject_2stim_asymm_v5,2020.2.10,MacIntel,60,61025ae37ef11b136ea224fe,,,,,,,,,3325,49.92504883,83.3477478,1,0,0,response1disk,,7,-9.582275391,-3.426940918,1,0,0,rectangle,-9.582275391,-3.426940918,1,0,0,-9.582275391,-3.426940918,1,0,0,0,55,55,1,1,,,,,,,,
,,,,,,,,,,,,,FF,,,,,,,,1.8337,,,,,,,,,,,,,,,,,,,,,,60fe43b140d7b3e8893288f8,61036cfadaa4d7d2a8d929ac,2021-07-30_13h12.04.710,Simcolourproject_2stim_asymm_v5,2020.2.10,MacIntel,60,61025ae37ef11b136ea224fe,,,,,,,,,3663,-77.11230469,29.0300293,1,0,0,response7disk,,1,-4.92364502,-3.386871338,1,0,0,rectangle,-4.92364502,-3.386871338,1,0,0,-4.92364502,-3.386871338,1,0,0,0,56,56,58,1,,,,,,,,
,,,,,,,,,,,,,FF,,,,,,,,2.1166,,,,,,,,,,,,,,,,,,,,,,60fe43b140d7b3e8893288f8,61036cfadaa4d7d2a8d929ac,2021-07-30_13h12.04.710,Simcolourproject_2stim_asymm_v5,2020.2.10,MacIntel,60,61025ae37ef11b136ea224fe,,,,,,,,,642,47.85510254,-85.26000977,1,0,0,response3disk,,4,-1.848022461,-10.8008728,1,0,0,rectangle,-1.848022461,-10.8008728,1,0,0,-1.848022461,-10.8008728,1,0,0,0,57,57,91,1,,,,,,,,
,,,,,,,,,,,,,FF,,,,,,,,1.2643,,,,,,,,,,,,,,,,,,,,,,60fe43b140d7b3e8893288f8,61036cfadaa4d7d2a8d929ac,2021-07-30_13h12.04.710,Simcolourproject_2stim_asymm_v5,2020.2.10,MacIntel,60,61025ae37ef11b136ea224fe,,,,,,,,,4300,72.64447021,-37.22570801,1,0,0,response3disk,,5,2.70690918,-5.121826172,1,0,0,rectangle,2.70690918,-5.121826172,1,0,0,2.70690918,-5.121826172,1,0,0,0,58,58,146,1,,,,,,,,
,,,,,,,,,,,,,FF,,,,,,,,1.0837,,,,,,,,,,,,,,,,,,,,,,60fe43b140d7b3e8893288f8,61036cfadaa4d7d2a8d929ac,2021-07-30_13h12.04.710,Simcolourproject_2stim_asymm_v5,2020.2.10,MacIntel,60,61025ae37ef11b136ea224fe,,,,,,,,,1286,42.87481689,-99.58734131,1,0,0,response3disk,,4,2.63671875,4.669372559,1,0,0,rectangle,2.63671875,4.669372559,1,0,0,2.63671875,4.669372559,1,0,0,0,59,59,80,1,,,,,,,,
,,,,,,,,,,,,,FF,,,,,,,,2.9816,,,,,,,,,,,,,,,,,,,,,,60fe43b140d7b3e8893288f8,61036cfadaa4d7d2a8d929ac,2021-07-30_13h12.04.710,Simcolourproject_2stim_asymm_v5,2020.2.10,MacIntel,60,61025ae37ef11b136ea224fe,,,,,,,,,1395,80.31384277,-21.37286377,1,0,0,response3disk,,5,-7.692382813,5.63269043,1,0,0,rectangle,-7.692382813,5.63269043,1,0,0,-7.692382813,5.63269043,1,0,0,0,60,60,86,1,,,,,,,,
,,,,,,,,,,,,,FF,,,,,,,,1.4333,,,,,,,,,,,,,,,,,,,,,,60fe43b140d7b3e8893288f8,61036cfadaa4d7d2a8d929ac,2021-07-30_13h12.04.710,Simcolourproject_2stim_asymm_v5,2020.2.10,MacIntel,60,61025ae37ef11b136ea224fe,,,,,,,,,3618,74.82110596,-38.89468384,1,0,0,response3disk,,5,3.440856934,-2.018157959,1,0,0,rectangle,3.440856934,-2.018157959,1,0,0,3.440856934,-2.018157959,1,0,0,0,61,61,112,1,,,,,,,,
,,,,,,,,,,,,,FF,,,,,,,,0.8847,,,,,,,,,,,,,,,,,,,,,,60fe43b140d7b3e8893288f8,61036cfadaa4d7d2a8d929ac,2021-07-30_13h12.04.710,Simcolourproject_2stim_asymm_v5,2020.2.10,MacIntel,60,61025ae37ef11b136ea224fe,,,,,,,,,3300,59.54522705,92.70202637,1,0,0,response1disk,,7,-2.467041016,-2.655944824,1,0,0,rectangle,-2.467041016,-2.655944824,1,0,0,-2.467041016,-2.655944824,1,0,0,0,62,62,31,1,,,,,,,,
,,,,,,,,,,,,,FF,,,,,,,,0.9337,,,,,,,,,,,,,,,,,,,,,,60fe43b140d7b3e8893288f8,61036cfadaa4d7d2a8d929ac,2021-07-30_13h12.04.710,Simcolourproject_2stim_asymm_v5,2020.2.10,MacIntel,60,61025ae37ef11b136ea224fe,,,,,,,,,1721,91.29626465,38.51507568,1,0,0,response1disk,,6,13.13745117,-0.832702637,1,0,0,rectangle,13.13745117,-0.832702637,1,0,0,13.13745117,-0.832702637,1,0,0,0,63,63,22,1,,,,,,,,
,,,,,,,,,,,,,FF,,,,,,,,2.1669,,,,,,,,,,,,,,,,,,,,,,60fe43b140d7b3e8893288f8,61036cfadaa4d7d2a8d929ac,2021-07-30_13h12.04.710,Simcolourproject_2stim_asymm_v5,2020.2.10,MacIntel,60,61025ae37ef11b136ea224fe,,,,,,,,,1137,36.43243408,-94.17297363,1,0,0,response3disk,,4,1.121276855,-1.394775391,1,0,0,rectangle,1.121276855,-1.394775391,1,0,0,1.121276855,-1.394775391,1,0,0,0,64,64,5,1,,,,,,,,
,,,,,,,,,,,,,FF,,,,,,,,0.9834,,,,,,,,,,,,,,,,,,,,,,60fe43b140d7b3e8893288f8,61036cfadaa4d7d2a8d929ac,2021-07-30_13h12.04.710,Simcolourproject_2stim_asymm_v5,2020.2.10,MacIntel,60,61025ae37ef11b136ea224fe,,,,,,,,,1318,38.78125,-85.76165771,1,0,0,response3disk,,4,-1.246826172,-9.972595215,1,0,0,rectangle,-1.246826172,-9.972595215,1,0,0,-1.246826172,-9.972595215,1,0,0,0,65,65,16,1,,,,,,,,
,,,,,,,,,,,,,FF,,,,,,,,0.9503,,,,,,,,,,,,,,,,,,,,,,60fe43b140d7b3e8893288f8,61036cfadaa4d7d2a8d929ac,2021-07-30_13h12.04.710,Simcolourproject_2stim_asymm_v5,2020.2.10,MacIntel,60,61025ae37ef11b136ea224fe,,,,,,,,,2772,39.2208252,-63.41821289,1,0,0,response3disk,,4,0.641418457,-9.352722168,1,0,0,rectangle,0.641418457,-9.352722168,1,0,0,0.641418457,-9.352722168,1,0,0,0,66,66,78,1,,,,,,,,
,,,,,,,,,,,,,FF,,,,,,,,1.686,,,,,,,,,,,,,,,,,,,,,,60fe43b140d7b3e8893288f8,61036cfadaa4d7d2a8d929ac,2021-07-30_13h12.04.710,Simcolourproject_2stim_asymm_v5,2020.2.10,MacIntel,60,61025ae37ef11b136ea224fe,,,,,,,,,2809,82.84301758,-33.20678711,1,0,0,response3disk,,5,-10.34277344,-8.10345459,1,0,0,rectangle,-10.34277344,-8.10345459,1,0,0,-10.34277344,-8.10345459,1,0,0,0,67,67,10,1,,,,,,,,
,,,,,,,,,,,,,FF,,,,,,,,0.9987,,,,,,,,,,,,,,,,,,,,,,60fe43b140d7b3e8893288f8,61036cfadaa4d7d2a8d929ac,2021-07-30_13h12.04.710,Simcolourproject_2stim_asymm_v5,2020.2.10,MacIntel,60,61025ae37ef11b136ea224fe,,,,,,,,,4287,32.66015625,80.48049927,1,0,0,response1disk,,7,-1.184204102,-11.4519043,1,0,0,rectangle,-83.23529053,47.31970215,1,0,0,-1.146972656,-1.861206055,1,0,0,0,68,68,57,1,,response7disk_3,TRUE,1,1,"[257,232,218,76,217,51,172,162,254,18,14,100,69,233,260,316,34,80,274,20]",1.9476,rectangle
,,,,,,,,,,,,,FF,,,,,,,,1.1841,,,,,,,,,,,,,,,,,,,,,,60fe43b140d7b3e8893288f8,61036cfadaa4d7d2a8d929ac,2021-07-30_13h12.04.710,Simcolourproject_2stim_asymm_v5,2020.2.10,MacIntel,60,61025ae37ef11b136ea224fe,,,,,,,,,1754,-49.91003418,-95.52893066,1,0,0,response5disk,,3,6.41784668,0.469848633,1,0,0,rectangle,6.41784668,0.469848633,1,0,0,6.41784668,0.469848633,1,0,0,0,69,69,34,1,,,,,,,,
,,,,,,,,,,,,,FF,,,,,,,,1.0184,,,,,,,,,,,,,,,,,,,,,,60fe43b140d7b3e8893288f8,61036cfadaa4d7d2a8d929ac,2021-07-30_13h12.04.710,Simcolourproject_2stim_asymm_v5,2020.2.10,MacIntel,60,61025ae37ef11b136ea224fe,,,,,,,,,249,40.70788574,-69.49810791,1,0,0,response3disk,,4,3.469299316,-10.58319092,1,0,0,rectangle,3.469299316,-10.58319092,1,0,0,3.469299316,-10.58319092,1,0,0,0,70,70,72,1,,,,,,,,
,,,,,,,,,,,,,FF,,,,,,,,1.0181,,,,,,,,,,,,,,,,,,,,,,60fe43b140d7b3e8893288f8,61036cfadaa4d7d2a8d929ac,2021-07-30_13h12.04.710,Simcolourproject_2stim_asymm_v5,2020.2.10,MacIntel,60,61025ae37ef11b136ea224fe,,,,,,,,,2252,31.85723877,-78.84039307,1,0,0,response3disk,,4,-2.35333252,-2.561462402,1,0,0,rectangle,-2.35333252,-2.561462402,1,0,0,-2.35333252,-2.561462402,1,0,0,0,71,71,55,1,,,,,,,,
,,,,,,,,,,,,,FF,,,,,,,,0.8655,,,,,,,,,,,,,,,,,,,,,,60fe43b140d7b3e8893288f8,61036cfadaa4d7d2a8d929ac,2021-07-30_13h12.04.710,Simcolourproject_2stim_asymm_v5,2020.2.10,MacIntel,60,61025ae37ef11b136ea224fe,,,,,,,,,3566,41.04602051,-64.99627686,1,0,0,response3disk,,4,-1.682800293,-6.558959961,1,0,0,rectangle,-1.682800293,-6.558959961,1,0,0,-1.682800293,-6.558959961,1,0,0,0,72,72,131,1,,,,,,,,
,,,,,,,,,,,,,FF,,,,,,,,0.7981,,,,,,,,,,,,,,,,,,,,,,60fe43b140d7b3e8893288f8,61036cfadaa4d7d2a8d929ac,2021-07-30_13h12.04.710,Simcolourproject_2stim_asymm_v5,2020.2.10,MacIntel,60,61025ae37ef11b136ea224fe,,,,,,,,,323,32.56982422,64.44091797,1,0,0,response1disk,,7,-0.694946289,-7.903808594,1,0,0,rectangle,-0.694946289,-7.903808594,1,0,0,-0.694946289,-7.903808594,1,0,0,0,73,73,45,1,,,,,,,,
,,,,,,,,,,,,,FF,,,,,,,,1.1673,,,,,,,,,,,,,,,,,,,,,,60fe43b140d7b3e8893288f8,61036cfadaa4d7d2a8d929ac,2021-07-30_13h12.04.710,Simcolourproject_2stim_asymm_v5,2020.2.10,MacIntel,60,61025ae37ef11b136ea224fe,,,,,,,,,1000,93.60858154,29.45227051,1,0,0,response1disk,,6,6.217895508,-2.333862305,1,0,0,rectangle,6.217895508,-2.333862305,1,0,0,6.217895508,-2.333862305,1,0,0,0,74,74,150,1,,,,,,,,
,,,,,,,,,,,,,FF,,,,,,,,0.851,,,,,,,,,,,,,,,,,,,,,,60fe43b140d7b3e8893288f8,61036cfadaa4d7d2a8d929ac,2021-07-30_13h12.04.710,Simcolourproject_2stim_asymm_v5,2020.2.10,MacIntel,60,61025ae37ef11b136ea224fe,,,,,,,,,1578,36.29595947,86.44854736,1,0,0,response1disk,,7,0.698730469,-0.27935791,1,0,0,rectangle,-32.68908691,83.16122437,1,0,0,5.257202148,-1.103881836,1,0,0,0,75,75,103,1,,response7disk_3,TRUE,0,0,"[257,232,218,76,217,51,172,162,254,18,14,100,69,233,260,316,34,80,274,20]",2.0501,rectangle
,,,,,,,,,,,,,FF,,,,,,,,2.2355,,,,,,,,,,,,,,,,,,,,,,60fe43b140d7b3e8893288f8,61036cfadaa4d7d2a8d929ac,2021-07-30_13h12.04.710,Simcolourproject_2stim_asymm_v5,2020.2.10,MacIntel,60,61025ae37ef11b136ea224fe,,,,,,,,,1867,72.00457764,45.6645813,1,0,0,response1disk,,6,-0.119262695,-9.510131836,1,0,0,rectangle,-0.119262695,-9.510131836,1,0,0,-0.119262695,-9.510131836,1,0,0,0,76,76,120,1,,,,,,,,
,,,,,,,,,,,,,FF,,,,,,,,1.2002,,,,,,,,,,,,,,,,,,,,,,60fe43b140d7b3e8893288f8,61036cfadaa4d7d2a8d929ac,2021-07-30_13h12.04.710,Simcolourproject_2stim_asymm_v5,2020.2.10,MacIntel,60,61025ae37ef11b136ea224fe,,,,,,,,,1633,34.4239502,78.65081787,1,0,0,response1disk,,7,0.341064453,-4.782104492,1,0,0,rectangle,0.341064453,-4.782104492,1,0,0,0.341064453,-4.782104492,1,0,0,0,77,77,26,1,,,,,,,,
,,,,,,,,,,,,,FF,,,,,,,,0.8187,,,,,,,,,,,,,,,,,,,,,,60fe43b140d7b3e8893288f8,61036cfadaa4d7d2a8d929ac,2021-07-30_13h12.04.710,Simcolourproject_2stim_asymm_v5,2020.2.10,MacIntel,60,61025ae37ef11b136ea224fe,,,,,,,,,499,46.2590332,85.64041138,1,0,0,response1disk,,7,-6.983215332,2.598327637,1,0,0,rectangle,-6.983215332,2.598327637,1,0,0,-6.983215332,2.598327637,1,0,0,0,78,78,110,1,,,,,,,,
,,,,,,,,,,,,,FF,,,,,,,,1.6516,,,,,,,,,,,,,,,,,,,,,,60fe43b140d7b3e8893288f8,61036cfadaa4d7d2a8d929ac,2021-07-30_13h12.04.710,Simcolourproject_2stim_asymm_v5,2020.2.10,MacIntel,60,61025ae37ef11b136ea224fe,,,,,,,,,1026,69.41748047,-51.53778076,1,0,0,response3disk,,5,1.332397461,-1.259887695,1,0,0,rectangle,-87.1550293,-37.51074219,1,0,0,5.030029297,-11.62741089,1,0,0,0,79,79,74,1,,response5disk_3,TRUE,2,2,"[257,232,218,76,217,51,172,162,254,18,14,100,69,233,260,316,34,80,274,20]",2.3837,rectangle
,,,,,,,,,,,,,FF,,,,,,,,1.581,,,,,,,,,,,,,,,,,,,,,,60fe43b140d7b3e8893288f8,61036cfadaa4d7d2a8d929ac,2021-07-30_13h12.04.710,Simcolourproject_2stim_asymm_v5,2020.2.10,MacIntel,60,61025ae37ef11b136ea224fe,,,,,,,,,1751,25.96728516,-74.06225586,1,0,0,response3disk,,4,2.463867188,-7.073272705,1,0,0,rectangle,2.463867188,-7.073272705,1,0,0,2.463867188,-7.073272705,1,0,0,0,80,80,158,1,,,,,,,,
,,,,,,,,,,,,,FF,,,,,,,,5.299,,,,,,,,,,,,,,,,,,,,,,60fe43b140d7b3e8893288f8,61036cfadaa4d7d2a8d929ac,2021-07-30_13h12.04.710,Simcolourproject_2stim_asymm_v5,2020.2.10,MacIntel,60,61025ae37ef11b136ea224fe,,,,,,,,,3543,40.12854004,-64.81994629,1,0,0,response3disk,,4,-2.592651367,-0.960296631,1,0,0,rectangle,-2.592651367,-0.960296631,1,0,0,-2.592651367,-0.960296631,1,0,0,0,81,81,9,1,,,,,,,,
,,,,,,,,,,,,,FF,,,,,,,,1.6196,,,,,,,,,,,,,,,,,,,,,,60fe43b140d7b3e8893288f8,61036cfadaa4d7d2a8d929ac,2021-07-30_13h12.04.710,Simcolourproject_2stim_asymm_v5,2020.2.10,MacIntel,60,61025ae37ef11b136ea224fe,,,,,,,,,4273,81.22900391,50.5112915,1,0,0,response1disk,,6,-7.733764648,-12.13793945,1,0,0,rectangle,-7.733764648,-12.13793945,1,0,0,-7.733764648,-12.13793945,1,0,0,0,82,82,48,1,,,,,,,,
,,,,,,,,,,,,,FF,,,,,,,,1.4002,,,,,,,,,,,,,,,,,,,,,,60fe43b140d7b3e8893288f8,61036cfadaa4d7d2a8d929ac,2021-07-30_13h12.04.710,Simcolourproject_2stim_asymm_v5,2020.2.10,MacIntel,60,61025ae37ef11b136ea224fe,,,,,,,,,632,-75.30157471,31.51013184,1,0,0,response7disk,,1,-4.696655273,2.90737915,1,0,0,rectangle,-4.696655273,2.90737915,1,0,0,-4.696655273,2.90737915,1,0,0,0,83,83,115,1,,,,,,,,
,,,,,,,,,,,,,FF,,,,,,,,0.8494,,,,,,,,,,,,,,,,,,,,,,60fe43b140d7b3e8893288f8,61036cfadaa4d7d2a8d929ac,2021-07-30_13h12.04.710,Simcolourproject_2stim_asymm_v5,2020.2.10,MacIntel,60,61025ae37ef11b136ea224fe,,,,,,,,,1653,29.54040527,72.28979492,1,0,0,response1disk,,7,-5.173217773,-4.252990723,1,0,0,rectangle,-5.173217773,-4.252990723,1,0,0,-5.173217773,-4.252990723,1,0,0,0,84,84,28,1,,,,,,,,
,,,,,,,,,,,,,FF,,,,,,,,1.4017,,,,,,,,,,,,,,,,,,,,,,60fe43b140d7b3e8893288f8,61036cfadaa4d7d2a8d929ac,2021-07-30_13h12.04.710,Simcolourproject_2stim_asymm_v5,2020.2.10,MacIntel,60,61025ae37ef11b136ea224fe,,,,,,,,,1676,-70.53570557,-42.30963135,1,0,0,response5disk,,2,-1.686767578,-7.172912598,1,0,0,rectangle,-1.686767578,-7.172912598,1,0,0,-1.686767578,-7.172912598,1,0,0,0,85,85,77,1,,,,,,,,
,,,,,,,,,,,,,FF,,,,,,,,1.5529,,,,,,,,,,,,,,,,,,,,,,60fe43b140d7b3e8893288f8,61036cfadaa4d7d2a8d929ac,2021-07-30_13h12.04.710,Simcolourproject_2stim_asymm_v5,2020.2.10,MacIntel,60,61025ae37ef11b136ea224fe,,,,,,,,,1187,-38.57012939,-73.76397705,1,0,0,response5disk,,3,3.166442871,0.109466553,1,0,0,rectangle,3.166442871,0.109466553,1,0,0,3.166442871,0.109466553,1,0,0,0,86,86,32,1,,,,,,,,
,,,,,,,,,,,,,FF,,,,,,,,1.5994,,,,,,,,,,,,,,,,,,,,,,60fe43b140d7b3e8893288f8,61036cfadaa4d7d2a8d929ac,2021-07-30_13h12.04.710,Simcolourproject_2stim_asymm_v5,2020.2.10,MacIntel,60,61025ae37ef11b136ea224fe,,,,,,,,,454,33.53552246,76.50018311,1,0,0,response1disk,,7,-1.460998535,-10.92495728,1,0,0,rectangle,-1.460998535,-10.92495728,1,0,0,-1.460998535,-10.92495728,1,0,0,0,87,87,125,1,,,,,,,,
,,,,,,,,,,,,,FF,,,,,,,,3.0342,,,,,,,,,,,,,,,,,,,,,,60fe43b140d7b3e8893288f8,61036cfadaa4d7d2a8d929ac,2021-07-30_13h12.04.710,Simcolourproject_2stim_asymm_v5,2020.2.10,MacIntel,60,61025ae37ef11b136ea224fe,,,,,,,,,482,83.20428467,34.30731201,1,0,0,response1disk,,6,3.830444336,-3.642120361,1,0,0,rectangle,3.830444336,-3.642120361,1,0,0,3.830444336,-3.642120361,1,0,0,0,88,88,126,1,,,,,,,,
,,,,,,,,,,,,,FF,,,,,,,,0.7326,,,,,,,,,,,,,,,,,,,,,,60fe43b140d7b3e8893288f8,61036cfadaa4d7d2a8d929ac,2021-07-30_13h12.04.710,Simcolourproject_2stim_asymm_v5,2020.2.10,MacIntel,60,61025ae37ef11b136ea224fe,,,,,,,,,57,36.70526123,67.98922729,1,0,0,response1disk,,7,-4.858154297,-5.77734375,1,0,0,rectangle,-4.858154297,-5.77734375,1,0,0,-4.858154297,-5.77734375,1,0,0,0,89,89,138,1,,,,,,,,
,,,,,,,,,,,,,FF,,,,,,,,1.7695,,,,,,,,,,,,,,,,,,,,,,60fe43b140d7b3e8893288f8,61036cfadaa4d7d2a8d929ac,2021-07-30_13h12.04.710,Simcolourproject_2stim_asymm_v5,2020.2.10,MacIntel,60,61025ae37ef11b136ea224fe,,,,,,,,,4003,69.62945557,-48.34246826,1,0,0,response3disk,,5,3.616821289,-0.755310059,1,0,0,rectangle,3.616821289,-0.755310059,1,0,0,3.616821289,-0.755310059,1,0,0,0,90,90,41,1,,,,,,,,
,,,,,,,,,,,,,FF,,,,,,,,1.2663,,,,,,,,,,,,,,,,,,,,,,60fe43b140d7b3e8893288f8,61036cfadaa4d7d2a8d929ac,2021-07-30_13h12.04.710,Simcolourproject_2stim_asymm_v5,2020.2.10,MacIntel,60,61025ae37ef11b136ea224fe,,,,,,,,,30,75.14038086,-41.6340332,1,0,0,response3disk,,5,-2.431518555,-7.06652832,1,0,0,rectangle,-2.431518555,-7.06652832,1,0,0,-2.431518555,-7.06652832,1,0,0,0,91,91,53,1,,,,,,,,
,,,,,,,,,,,,,FF,,,,,,,,1.6305,,,,,,,,,,,,,,,,,,,,,,60fe43b140d7b3e8893288f8,61036cfadaa4d7d2a8d929ac,2021-07-30_13h12.04.710,Simcolourproject_2stim_asymm_v5,2020.2.10,MacIntel,60,61025ae37ef11b136ea224fe,,,,,,,,,376,40.72912598,-85.74780273,1,0,0,response3disk,,4,-4.055786133,8.29989624,1,0,0,rectangle,-4.055786133,8.29989624,1,0,0,-4.055786133,8.29989624,1,0,0,0,92,92,52,1,,,,,,,,
,,,,,,,,,,,,,FF,,,,,,,,0.8147,,,,,,,,,,,,,,,,,,,,,,60fe43b140d7b3e8893288f8,61036cfadaa4d7d2a8d929ac,2021-07-30_13h12.04.710,Simcolourproject_2stim_asymm_v5,2020.2.10,MacIntel,60,61025ae37ef11b136ea224fe,,,,,,,,,4084,46.90966797,74.64776611,1,0,0,response1disk,,7,-1.402099609,-7.895721436,1,0,0,rectangle,-1.402099609,-7.895721436,1,0,0,-1.402099609,-7.895721436,1,0,0,0,93,93,17,1,,,,,,,,
,,,,,,,,,,,,,FF,,,,,,,,0.7524,,,,,,,,,,,,,,,,,,,,,,60fe43b140d7b3e8893288f8,61036cfadaa4d7d2a8d929ac,2021-07-30_13h12.04.710,Simcolourproject_2stim_asymm_v5,2020.2.10,MacIntel,60,61025ae37ef11b136ea224fe,,,,,,,,,3634,31.11724854,69.61584473,1,0,0,response1disk,,7,1.964660645,4.538024902,1,0,0,rectangle,1.964660645,4.538024902,1,0,0,1.964660645,4.538024902,1,0,0,0,94,94,130,1,,,,,,,,
,,,,,,,,,,,,,FF,,,,,,,,1.6004,,,,,,,,,,,,,,,,,,,,,,60fe43b140d7b3e8893288f8,61036cfadaa4d7d2a8d929ac,2021-07-30_13h12.04.710,Simcolourproject_2stim_asymm_v5,2020.2.10,MacIntel,60,61025ae37ef11b136ea224fe,,,,,,,,,3456,81.10009766,46.87442017,1,0,0,response1disk,,6,9.365844727,6.227355957,1,0,0,rectangle,9.365844727,6.227355957,1,0,0,9.365844727,6.227355957,1,0,0,0,95,95,25,1,,,,,,,,
,,,,,,,,,,,,,FF,,,,,,,,0.7013,,,,,,,,,,,,,,,,,,,,,,60fe43b140d7b3e8893288f8,61036cfadaa4d7d2a8d929ac,2021-07-30_13h12.04.710,Simcolourproject_2stim_asymm_v5,2020.2.10,MacIntel,60,61025ae37ef11b136ea224fe,,,,,,,,,2135,38.45733643,76.04052734,1,0,0,response1disk,,7,1.510375977,2.838592529,1,0,0,rectangle,1.510375977,2.838592529,1,0,0,1.510375977,2.838592529,1,0,0,0,96,96,155,1,,,,,,,,
,,,,,,,,,,,,,FF,,,,,,,,1.4979,,,,,,,,,,,,,,,,,,,,,,60fe43b140d7b3e8893288f8,61036cfadaa4d7d2a8d929ac,2021-07-30_13h12.04.710,Simcolourproject_2stim_asymm_v5,2020.2.10,MacIntel,60,61025ae37ef11b136ea224fe,,,,,,,,,1509,78.90289307,46.01361084,1,0,0,response1disk,,6,0.309570313,-1.985931396,1,0,0,rectangle,0.309570313,-1.985931396,1,0,0,0.309570313,-1.985931396,1,0,0,0,97,97,90,1,,,,,,,,
,,,,,,,,,,,,,FF,,,,,,,,1.1168,,,,,,,,,,,,,,,,,,,,,,60fe43b140d7b3e8893288f8,61036cfadaa4d7d2a8d929ac,2021-07-30_13h12.04.710,Simcolourproject_2stim_asymm_v5,2020.2.10,MacIntel,60,61025ae37ef11b136ea224fe,,,,,,,,,331,74.31359863,26.74176025,1,0,0,response1disk,,6,5.028564453,-2.931121826,1,0,0,rectangle,5.028564453,-2.931121826,1,0,0,5.028564453,-2.931121826,1,0,0,0,98,98,7,1,,,,,,,,
,,,,,,,,,,,,,FF,,,,,,,,1.2675,,,,,,,,,,,,,,,,,,,,,,60fe43b140d7b3e8893288f8,61036cfadaa4d7d2a8d929ac,2021-07-30_13h12.04.710,Simcolourproject_2stim_asymm_v5,2020.2.10,MacIntel,60,61025ae37ef11b136ea224fe,,,,,,,,,2909,31.30810547,-92.06713867,1,0,0,response3disk,,4,-0.426879883,-8.970367432,1,0,0,rectangle,-36.66424561,86.48504639,1,0,0,-1.350280762,-3.891387939,1,0,0,0,99,99,87,1,,response7disk_3,TRUE,0,0,"[257,232,218,76,217,51,172,162,254,18,14,100,69,233,260,316,34,80,274,20]",1.9831,rectangle
,,,,,,,,,,,,,FF,,,,,,,,3.2005,,,,,,,,,,,,,,,,,,,,,,60fe43b140d7b3e8893288f8,61036cfadaa4d7d2a8d929ac,2021-07-30_13h12.04.710,Simcolourproject_2stim_asymm_v5,2020.2.10,MacIntel,60,61025ae37ef11b136ea224fe,,,,,,,,,500,58.47741699,-31.59786987,1,0,0,response3disk,,5,-0.255249023,-2.904998779,1,0,0,rectangle,-0.255249023,-2.904998779,1,0,0,-0.255249023,-2.904998779,1,0,0,0,100,100,62,1,,,,,,,,
,,,,,,,,,,,,,FF,,,,,,,,0.9152,,,,,,,,,,,,,,,,,,,,,,60fe43b140d7b3e8893288f8,61036cfadaa4d7d2a8d929ac,2021-07-30_13h12.04.710,Simcolourproject_2stim_asymm_v5,2020.2.10,MacIntel,60,61025ae37ef11b136ea224fe,,,,,,,,,174,-28.18212891,-72.00793457,1,0,0,response5disk,,3,-4.703735352,-8.177124023,1,0,0,rectangle,-4.703735352,-8.177124023,1,0,0,-4.703735352,-8.177124023,1,0,0,0,101,101,60,1,,,,,,,,
,,,,,,,,,,,,,FF,,,,,,,,0.8339,,,,,,,,,,,,,,,,,,,,,,60fe43b140d7b3e8893288f8,61036cfadaa4d7d2a8d929ac,2021-07-30_13h12.04.710,Simcolourproject_2stim_asymm_v5,2020.2.10,MacIntel,60,61025ae37ef11b136ea224fe,,,,,,,,,4094,54.07440186,74.84094238,1,0,0,response1disk,,7,10.41235352,-0.581573486,1,0,0,rectangle,10.41235352,-0.581573486,1,0,0,10.41235352,-0.581573486,1,0,0,0,102,102,79,1,,,,,,,,
,,,,,,,,,,,,,FF,,,,,,,,1.0165,,,,,,,,,,,,,,,,,,,,,,60fe43b140d7b3e8893288f8,61036cfadaa4d7d2a8d929ac,2021-07-30_13h12.04.710,Simcolourproject_2stim_asymm_v5,2020.2.10,MacIntel,60,61025ae37ef11b136ea224fe,,,,,,,,,1939,27.32226563,42.21807861,1,0,0,response1disk,,7,5.867614746,-4.736938477,1,0,0,rectangle,5.867614746,-4.736938477,1,0,0,5.867614746,-4.736938477,1,0,0,0,103,103,96,1,,,,,,,,
,,,,,,,,,,,,,FF,,,,,,,,1.4504,,,,,,,,,,,,,,,,,,,,,,60fe43b140d7b3e8893288f8,61036cfadaa4d7d2a8d929ac,2021-07-30_13h12.04.710,Simcolourproject_2stim_asymm_v5,2020.2.10,MacIntel,60,61025ae37ef11b136ea224fe,,,,,,,,,4329,-51.33685303,-75.08666992,1,0,0,response5disk,,3,-8.860046387,-1.699645996,1,0,0,rectangle,-8.860046387,-1.699645996,1,0,0,-8.860046387,-1.699645996,1,0,0,0,104,104,122,1,,,,,,,,
,,,,,,,,,,,,,FF,,,,,,,,1.8993,,,,,,,,,,,,,,,,,,,,,,60fe43b140d7b3e8893288f8,61036cfadaa4d7d2a8d929ac,2021-07-30_13h12.04.710,Simcolourproject_2stim_asymm_v5,2020.2.10,MacIntel,60,61025ae37ef11b136ea224fe,,,,,,,,,2891,-80.86791992,-42.16189575,1,0,0,response5disk,,2,6.647949219,-1.099121094,1,0,0,rectangle,6.647949219,-1.099121094,1,0,0,6.647949219,-1.099121094,1,0,0,0,105,105,3,1,,,,,,,,
,,,,,,,,,,,,,FF,,,,,,,,0.9828,,,,,,,,,,,,,,,,,,,,,,60fe43b140d7b3e8893288f8,61036cfadaa4d7d2a8d929ac,2021-07-30_13h12.04.710,Simcolourproject_2stim_asymm_v5,2020.2.10,MacIntel,60,61025ae37ef11b136ea224fe,,,,,,,,,538,42.32818604,80.98895264,1,0,0,response1disk,,7,5.206298828,-1.018768311,1,0,0,rectangle,5.206298828,-1.018768311,1,0,0,5.206298828,-1.018768311,1,0,0,0,106,106,4,1,,,,,,,,
,,,,,,,,,,,,,FF,,,,,,,,0.6829,,,,,,,,,,,,,,,,,,,,,,60fe43b140d7b3e8893288f8,61036cfadaa4d7d2a8d929ac,2021-07-30_13h12.04.710,Simcolourproject_2stim_asymm_v5,2020.2.10,MacIntel,60,61025ae37ef11b136ea224fe,,,,,,,,,3032,23.75701904,73.57629395,1,0,0,response1disk,,7,-15.96105957,-9.525756836,1,0,0,rectangle,-15.96105957,-9.525756836,1,0,0,-15.96105957,-9.525756836,1,0,0,0,107,107,51,1,,,,,,,,
,,,,,,,,,,,,,FF,,,,,,,,0.7001,,,,,,,,,,,,,,,,,,,,,,60fe43b140d7b3e8893288f8,61036cfadaa4d7d2a8d929ac,2021-07-30_13h12.04.710,Simcolourproject_2stim_asymm_v5,2020.2.10,MacIntel,60,61025ae37ef11b136ea224fe,,,,,,,,,2339,34.05932617,64.77801514,1,0,0,response1disk,,7,0.905334473,-7.515594482,1,0,0,rectangle,0.905334473,-7.515594482,1,0,0,0.905334473,-7.515594482,1,0,0,0,108,108,39,1,,,,,,,,
,,,,,,,,,,,,,FF,,,,,,,,1.2856,,,,,,,,,,,,,,,,,,,,,,60fe43b140d7b3e8893288f8,61036cfadaa4d7d2a8d929ac,2021-07-30_13h12.04.710,Simcolourproject_2stim_asymm_v5,2020.2.10,MacIntel,60,61025ae37ef11b136ea224fe,,,,,,,,,1181,83.69793701,-35.48492432,1,0,0,response3disk,,5,1.912780762,-9.605041504,1,0,0,rectangle,1.912780762,-9.605041504,1,0,0,1.912780762,-9.605041504,1,0,0,0,109,109,121,1,,,,,,,,
,,,,,,,,,,,,,FF,,,,,,,,0.6502,,,,,,,,,,,,,,,,,,,,,,60fe43b140d7b3e8893288f8,61036cfadaa4d7d2a8d929ac,2021-07-30_13h12.04.710,Simcolourproject_2stim_asymm_v5,2020.2.10,MacIntel,60,61025ae37ef11b136ea224fe,,,,,,,,,3455,28.04614258,69.33709717,1,0,0,response1disk,,7,7.532592773,-5.363128662,1,0,0,rectangle,7.532592773,-5.363128662,1,0,0,7.532592773,-5.363128662,1,0,0,0,110,110,76,1,,,,,,,,
,,,,,,,,,,,,,FF,,,,,,,,0.9006,,,,,,,,,,,,,,,,,,,,,,60fe43b140d7b3e8893288f8,61036cfadaa4d7d2a8d929ac,2021-07-30_13h12.04.710,Simcolourproject_2stim_asymm_v5,2020.2.10,MacIntel,60,61025ae37ef11b136ea224fe,,,,,,,,,717,-39.85339355,80.1892395,1,0,0,response7disk,,0,-7.584472656,-3.986083984,1,0,0,rectangle,-7.584472656,-3.986083984,1,0,0,-7.584472656,-3.986083984,1,0,0,0,111,111,94,1,,,,,,,,
,,,,,,,,,,,,,FF,,,,,,,,2.0166,,,,,,,,,,,,,,,,,,,,,,60fe43b140d7b3e8893288f8,61036cfadaa4d7d2a8d929ac,2021-07-30_13h12.04.710,Simcolourproject_2stim_asymm_v5,2020.2.10,MacIntel,60,61025ae37ef11b136ea224fe,,,,,,,,,802,-80.87255859,-31.5178833,1,0,0,response5disk,,2,-1.408874512,-3.202087402,1,0,0,rectangle,-1.408874512,-3.202087402,1,0,0,-1.408874512,-3.202087402,1,0,0,0,112,112,29,1,,,,,,,,
,,,,,,,,,,,,,FF,,,,,,,,1.0994,,,,,,,,,,,,,,,,,,,,,,60fe43b140d7b3e8893288f8,61036cfadaa4d7d2a8d929ac,2021-07-30_13h12.04.710,Simcolourproject_2stim_asymm_v5,2020.2.10,MacIntel,60,61025ae37ef11b136ea224fe,,,,,,,,,2542,-46.0715332,-84.72503662,1,0,0,response5disk,,3,-4.333251953,-14.14666748,1,0,0,rectangle,-4.333251953,-14.14666748,1,0,0,-4.333251953,-14.14666748,1,0,0,0,113,113,73,1,,,,,,,,
,,,,,,,,,,,,,FF,,,,,,,,0.8166,,,,,,,,,,,,,,,,,,,,,,60fe43b140d7b3e8893288f8,61036cfadaa4d7d2a8d929ac,2021-07-30_13h12.04.710,Simcolourproject_2stim_asymm_v5,2020.2.10,MacIntel,60,61025ae37ef11b136ea224fe,,,,,,,,,474,33.97949219,76.8274231,1,0,0,response1disk,,7,11.55645752,5.413238525,1,0,0,rectangle,11.55645752,5.413238525,1,0,0,11.55645752,5.413238525,1,0,0,0,114,114,70,1,,,,,,,,
,,,,,,,,,,,,,FF,,,,,,,,0.5481,,,,,,,,,,,,,,,,,,,,,,60fe43b140d7b3e8893288f8,61036cfadaa4d7d2a8d929ac,2021-07-30_13h12.04.710,Simcolourproject_2stim_asymm_v5,2020.2.10,MacIntel,60,61025ae37ef11b136ea224fe,,,,,,,,,402,43.85064697,83.84716797,1,0,0,response1disk,,7,10.07110596,-5.221740723,1,0,0,rectangle,10.07110596,-5.221740723,1,0,0,10.07110596,-5.221740723,1,0,0,0,115,115,66,1,,,,,,,,
,,,,,,,,,,,,,FF,,,,,,,,0.5679,,,,,,,,,,,,,,,,,,,,,,60fe43b140d7b3e8893288f8,61036cfadaa4d7d2a8d929ac,2021-07-30_13h12.04.710,Simcolourproject_2stim_asymm_v5,2020.2.10,MacIntel,60,61025ae37ef11b136ea224fe,,,,,,,,,1857,34.45550537,54.46374512,1,0,0,response1disk,,7,6.120239258,2.019927979,1,0,0,rectangle,6.120239258,2.019927979,1,0,0,6.120239258,2.019927979,1,0,0,0,116,116,54,1,,,,,,,,
,,,,,,,,,,,,,FF,,,,,,,,1.3851,,,,,,,,,,,,,,,,,,,,,,60fe43b140d7b3e8893288f8,61036cfadaa4d7d2a8d929ac,2021-07-30_13h12.04.710,Simcolourproject_2stim_asymm_v5,2020.2.10,MacIntel,60,61025ae37ef11b136ea224fe,,,,,,,,,1891,23.91278076,-80.00396729,1,0,0,response3disk,,4,-5.900268555,-13.38500977,1,0,0,rectangle,-5.900268555,-13.38500977,1,0,0,-5.900268555,-13.38500977,1,0,0,0,117,117,21,1,,,,,,,,
,,,,,,,,,,,,,FF,,,,,,,,0.5479,,,,,,,,,,,,,,,,,,,,,,60fe43b140d7b3e8893288f8,61036cfadaa4d7d2a8d929ac,2021-07-30_13h12.04.710,Simcolourproject_2stim_asymm_v5,2020.2.10,MacIntel,60,61025ae37ef11b136ea224fe,,,,,,,,,3362,37.84613037,88.9788208,1,0,0,response1disk,,7,4.516540527,-7.363250732,1,0,0,rectangle,4.516540527,-7.363250732,1,0,0,4.516540527,-7.363250732,1,0,0,0,118,118,2,1,,,,,,,,
,,,,,,,,,,,,,FF,,,,,,,,0.9002,,,,,,,,,,,,,,,,,,,,,,60fe43b140d7b3e8893288f8,61036cfadaa4d7d2a8d929ac,2021-07-30_13h12.04.710,Simcolourproject_2stim_asymm_v5,2020.2.10,MacIntel,60,61025ae37ef11b136ea224fe,,,,,,,,,2098,-50.09857178,-72.82446289,1,0,0,response5disk,,3,-7.102905273,-16.03463745,1,0,0,rectangle,-7.102905273,-16.03463745,1,0,0,-7.102905273,-16.03463745,1,0,0,0,119,119,11,1,,,,,,,,
,,,,,,,,,,,,,FF,,,,,,,,0.4976,,,,,,,,,,,,,,,,,,,,,,60fe43b140d7b3e8893288f8,61036cfadaa4d7d2a8d929ac,2021-07-30_13h12.04.710,Simcolourproject_2stim_asymm_v5,2020.2.10,MacIntel,60,61025ae37ef11b136ea224fe,,,,,,,,,4017,38.55810547,80.46801758,1,0,0,response1disk,,7,9.344482422,-16.86230469,1,0,0,rectangle,9.344482422,-16.86230469,1,0,0,9.344482422,-16.86230469,1,0,0,0,120,120,124,1,,,,,,,,
,,,,,,,,,,,,,FF,,,,,,,,1.3508,,,,,,,,,,,,,,,,,,,,,,60fe43b140d7b3e8893288f8,61036cfadaa4d7d2a8d929ac,2021-07-30_13h12.04.710,Simcolourproject_2stim_asymm_v5,2020.2.10,MacIntel,60,61025ae37ef11b136ea224fe,,,,,,,,,234,77.3135376,39.72470093,1,0,0,response1disk,,6,22.32983398,-2.277038574,1,0,0,rectangle,22.32983398,-2.277038574,1,0,0,22.32983398,-2.277038574,1,0,0,0,121,121,20,1,,,,,,,,
,,,,,,,,,,,,,FF,,,,,,,,0.9835,,,,,,,,,,,,,,,,,,,,,,60fe43b140d7b3e8893288f8,61036cfadaa4d7d2a8d929ac,2021-07-30_13h12.04.710,Simcolourproject_2stim_asymm_v5,2020.2.10,MacIntel,60,61025ae37ef11b136ea224fe,,,,,,,,,3630,-67.18762207,41.98217773,1,0,0,response7disk,,1,-7.913635254,-14.54669189,1,0,0,rectangle,-7.913635254,-14.54669189,1,0,0,-7.913635254,-14.54669189,1,0,0,0,122,122,44,1,,,,,,,,
,,,,,,,,,,,,,FF,,,,,,,,1.9508,,,,,,,,,,,,,,,,,,,,,,60fe43b140d7b3e8893288f8,61036cfadaa4d7d2a8d929ac,2021-07-30_13h12.04.710,Simcolourproject_2stim_asymm_v5,2020.2.10,MacIntel,60,61025ae37ef11b136ea224fe,,,,,,,,,1306,32.41125488,-84.88952637,1,0,0,response3disk,,4,-3.572509766,7.732147217,1,0,0,rectangle,-3.572509766,7.732147217,1,0,0,-3.572509766,7.732147217,1,0,0,0,123,123,37,1,,,,,,,,
,,,,,,,,,,,,,FF,,,,,,,,1.3002,,,,,,,,,,,,,,,,,,,,,,60fe43b140d7b3e8893288f8,61036cfadaa4d7d2a8d929ac,2021-07-30_13h12.04.710,Simcolourproject_2stim_asymm_v5,2020.2.10,MacIntel,60,61025ae37ef11b136ea224fe,,,,,,,,,1607,84.65551758,-44.05960083,1,0,0,response3disk,,5,0.396362305,-5.467773438,1,0,0,rectangle,0.396362305,-5.467773438,1,0,0,0.396362305,-5.467773438,1,0,0,0,124,124,27,1,,,,,,,,
,,,,,,,,,,,,,FF,,,,,,,,0.9998,,,,,,,,,,,,,,,,,,,,,,60fe43b140d7b3e8893288f8,61036cfadaa4d7d2a8d929ac,2021-07-30_13h12.04.710,Simcolourproject_2stim_asymm_v5,2020.2.10,MacIntel,60,61025ae37ef11b136ea224fe,,,,,,,,,981,52.35223389,-35.27047729,1,0,0,response3disk,,5,6.908203125,-12.33929443,1,0,0,rectangle,6.908203125,-12.33929443,1,0,0,6.908203125,-12.33929443,1,0,0,0,125,125,141,1,,,,,,,,
,,,,,,,,,,,,,FF,,,,,,,,1.4837,,,,,,,,,,,,,,,,,,,,,,60fe43b140d7b3e8893288f8,61036cfadaa4d7d2a8d929ac,2021-07-30_13h12.04.710,Simcolourproject_2stim_asymm_v5,2020.2.10,MacIntel,60,61025ae37ef11b136ea224fe,,,,,,,,,3441,75.0145874,-38.23162842,1,0,0,response3disk,,5,0.184143066,-3.264648438,1,0,0,rectangle,0.184143066,-3.264648438,1,0,0,0.184143066,-3.264648438,1,0,0,0,126,126,108,1,,,,,,,,
,,,,,,,,,,,,,FF,,,,,,,,0.9505,,,,,,,,,,,,,,,,,,,,,,60fe43b140d7b3e8893288f8,61036cfadaa4d7d2a8d929ac,2021-07-30_13h12.04.710,Simcolourproject_2stim_asymm_v5,2020.2.10,MacIntel,60,61025ae37ef11b136ea224fe,,,,,,,,,3310,71.92889404,28.44622803,1,0,0,response1disk,,6,1.720825195,-6.401428223,1,0,0,rectangle,1.720825195,-6.401428223,1,0,0,1.720825195,-6.401428223,1,0,0,0,127,127,82,1,,,,,,,,
,,,,,,,,,,,,,FF,,,,,,,,0.6175,,,,,,,,,,,,,,,,,,,,,,60fe43b140d7b3e8893288f8,61036cfadaa4d7d2a8d929ac,2021-07-30_13h12.04.710,Simcolourproject_2stim_asymm_v5,2020.2.10,MacIntel,60,61025ae37ef11b136ea224fe,,,,,,,,,304,36.4486084,89.11291504,1,0,0,response1disk,,7,-8.316894531,-8.848449707,1,0,0,rectangle,-8.316894531,-8.848449707,1,0,0,-8.316894531,-8.848449707,1,0,0,0,128,128,83,1,,,,,,,,
,,,,,,,,,,,,,FF,,,,,,,,1.7004,,,,,,,,,,,,,,,,,,,,,,60fe43b140d7b3e8893288f8,61036cfadaa4d7d2a8d929ac,2021-07-30_13h12.04.710,Simcolourproject_2stim_asymm_v5,2020.2.10,MacIntel,60,61025ae37ef11b136ea224fe,,,,,,,,,532,32.24334717,-87.1517334,1,0,0,response3disk,,4,-2.082641602,-5.416107178,1,0,0,rectangle,-2.082641602,-5.416107178,1,0,0,-2.082641602,-5.416107178,1,0,0,0,129,129,134,1,,,,,,,,
,,,,,,,,,,,,,FF,,,,,,,,0.917,,,,,,,,,,,,,,,,,,,,,,60fe43b140d7b3e8893288f8,61036cfadaa4d7d2a8d929ac,2021-07-30_13h12.04.710,Simcolourproject_2stim_asymm_v5,2020.2.10,MacIntel,60,61025ae37ef11b136ea224fe,,,,,,,,,1350,82.46142578,34.4911499,1,0,0,response1disk,,6,8.735473633,1.940307617,1,0,0,rectangle,8.735473633,1.940307617,1,0,0,8.735473633,1.940307617,1,0,0,0,130,130,84,1,,,,,,,,
,,,,,,,,,,,,,FF,,,,,,,,0.6334,,,,,,,,,,,,,,,,,,,,,,60fe43b140d7b3e8893288f8,61036cfadaa4d7d2a8d929ac,2021-07-30_13h12.04.710,Simcolourproject_2stim_asymm_v5,2020.2.10,MacIntel,60,61025ae37ef11b136ea224fe,,,,,,,,,1984,27.30072021,65.91046143,1,0,0,response1disk,,7,-8.221252441,-13.53607178,1,0,0,rectangle,-8.221252441,-13.53607178,1,0,0,-8.221252441,-13.53607178,1,0,0,0,131,131,38,1,,,,,,,,
,,,,,,,,,,,,,FF,,,,,,,,0.5667,,,,,,,,,,,,,,,,,,,,,,60fe43b140d7b3e8893288f8,61036cfadaa4d7d2a8d929ac,2021-07-30_13h12.04.710,Simcolourproject_2stim_asymm_v5,2020.2.10,MacIntel,60,61025ae37ef11b136ea224fe,,,,,,,,,3619,42.57165527,75.70574951,1,0,0,response1disk,,7,3.19329834,-5.126159668,1,0,0,rectangle,3.19329834,-5.126159668,1,0,0,3.19329834,-5.126159668,1,0,0,0,132,132,113,1,,,,,,,,
,,,,,,,,,,,,,FF,,,,,,,,1.0483,,,,,,,,,,,,,,,,,,,,,,60fe43b140d7b3e8893288f8,61036cfadaa4d7d2a8d929ac,2021-07-30_13h12.04.710,Simcolourproject_2stim_asymm_v5,2020.2.10,MacIntel,60,61025ae37ef11b136ea224fe,,,,,,,,,2689,78.31121826,44.7121582,1,0,0,response1disk,,6,1.367370605,1.587524414,1,0,0,rectangle,1.367370605,1.587524414,1,0,0,1.367370605,1.587524414,1,0,0,0,133,133,144,1,,,,,,,,
,,,,,,,,,,,,,FF,,,,,,,,0.8501,,,,,,,,,,,,,,,,,,,,,,60fe43b140d7b3e8893288f8,61036cfadaa4d7d2a8d929ac,2021-07-30_13h12.04.710,Simcolourproject_2stim_asymm_v5,2020.2.10,MacIntel,60,61025ae37ef11b136ea224fe,,,,,,,,,2364,45.12597656,-72.22857666,1,0,0,response3disk,,4,4.770385742,-7.111755371,1,0,0,rectangle,4.770385742,-7.111755371,1,0,0,4.770385742,-7.111755371,1,0,0,0,134,134,128,1,,,,,,,,
,,,,,,,,,,,,,FF,,,,,,,,0.8178,,,,,,,,,,,,,,,,,,,,,,60fe43b140d7b3e8893288f8,61036cfadaa4d7d2a8d929ac,2021-07-30_13h12.04.710,Simcolourproject_2stim_asymm_v5,2020.2.10,MacIntel,60,61025ae37ef11b136ea224fe,,,,,,,,,2487,36.12280273,-89.35571289,1,0,0,response3disk,,4,-3.754760742,-4.461242676,1,0,0,rectangle,-3.754760742,-4.461242676,1,0,0,-3.754760742,-4.461242676,1,0,0,0,135,135,92,1,,,,,,,,
,,,,,,,,,,,,,FF,,,,,,,,0.6869,,,,,,,,,,,,,,,,,,,,,,60fe43b140d7b3e8893288f8,61036cfadaa4d7d2a8d929ac,2021-07-30_13h12.04.710,Simcolourproject_2stim_asymm_v5,2020.2.10,MacIntel,60,61025ae37ef11b136ea224fe,,,,,,,,,472,41.54528809,82.03878784,1,0,0,response1disk,,7,9.846191406,3.346801758,1,0,0,rectangle,9.846191406,3.346801758,1,0,0,9.846191406,3.346801758,1,0,0,0,136,136,154,1,,,,,,,,
,,,,,,,,,,,,,FF,,,,,,,,0.7184,,,,,,,,,,,,,,,,,,,,,,60fe43b140d7b3e8893288f8,61036cfadaa4d7d2a8d929ac,2021-07-30_13h12.04.710,Simcolourproject_2stim_asymm_v5,2020.2.10,MacIntel,60,61025ae37ef11b136ea224fe,,,,,,,,,3484,40.76715088,73.28961182,1,0,0,response1disk,,7,-1.886352539,-8.949035645,1,0,0,rectangle,-1.886352539,-8.949035645,1,0,0,-1.886352539,-8.949035645,1,0,0,0,137,137,0,1,,,,,,,,
,,,,,,,,,,,,,FF,,,,,,,,0.7653,,,,,,,,,,,,,,,,,,,,,,60fe43b140d7b3e8893288f8,61036cfadaa4d7d2a8d929ac,2021-07-30_13h12.04.710,Simcolourproject_2stim_asymm_v5,2020.2.10,MacIntel,60,61025ae37ef11b136ea224fe,,,,,,,,,1366,33.46789551,86.41110229,1,0,0,response1disk,,7,2.242919922,5.419311523,1,0,0,rectangle,2.242919922,5.419311523,1,0,0,2.242919922,5.419311523,1,0,0,0,138,138,109,1,,,,,,,,
,,,,,,,,,,,,,FF,,,,,,,,0.6167,,,,,,,,,,,,,,,,,,,,,,60fe43b140d7b3e8893288f8,61036cfadaa4d7d2a8d929ac,2021-07-30_13h12.04.710,Simcolourproject_2stim_asymm_v5,2020.2.10,MacIntel,60,61025ae37ef11b136ea224fe,,,,,,,,,2978,30.10797119,56.47363281,1,0,0,response1disk,,7,-1.746826172,-10.86181641,1,0,0,rectangle,-1.746826172,-10.86181641,1,0,0,-1.746826172,-10.86181641,1,0,0,0,139,139,136,1,,,,,,,,
,,,,,,,,,,,,,FF,,,,,,,,1.467,,,,,,,,,,,,,,,,,,,,,,60fe43b140d7b3e8893288f8,61036cfadaa4d7d2a8d929ac,2021-07-30_13h12.04.710,Simcolourproject_2stim_asymm_v5,2020.2.10,MacIntel,60,61025ae37ef11b136ea224fe,,,,,,,,,1220,39.04016113,-87.86352539,1,0,0,response3disk,,4,2.21484375,-4.162231445,1,0,0,rectangle,2.21484375,-4.162231445,1,0,0,2.21484375,-4.162231445,1,0,0,0,140,140,142,1,,,,,,,,
,,,,,,,,,,,,,FF,,,,,,,,1.1694,,,,,,,,,,,,,,,,,,,,,,60fe43b140d7b3e8893288f8,61036cfadaa4d7d2a8d929ac,2021-07-30_13h12.04.710,Simcolourproject_2stim_asymm_v5,2020.2.10,MacIntel,60,61025ae37ef11b136ea224fe,,,,,,,,,729,81.57165527,-50.49163818,1,0,0,response3disk,,5,6.594482422,-6.406280518,1,0,0,rectangle,6.594482422,-6.406280518,1,0,0,6.594482422,-6.406280518,1,0,0,0,141,141,15,1,,,,,,,,
,,,,,,,,,,,,,FF,,,,,,,,2.4056,,,,,,,,,,,,,,,,,,,,,,60fe43b140d7b3e8893288f8,61036cfadaa4d7d2a8d929ac,2021-07-30_13h12.04.710,Simcolourproject_2stim_asymm_v5,2020.2.10,MacIntel,60,61025ae37ef11b136ea224fe,,,,,,,,,4208,75.73675537,-47.45373535,1,0,0,response3disk,,5,-7.18371582,-5.433929443,1,0,0,rectangle,-7.18371582,-5.433929443,1,0,0,-7.18371582,-5.433929443,1,0,0,0,142,142,14,1,,,,,,,,
,,,,,,,,,,,,,FF,,,,,,,,1.7009,,,,,,,,,,,,,,,,,,,,,,60fe43b140d7b3e8893288f8,61036cfadaa4d7d2a8d929ac,2021-07-30_13h12.04.710,Simcolourproject_2stim_asymm_v5,2020.2.10,MacIntel,60,61025ae37ef11b136ea224fe,,,,,,,,,2819,87.93707275,30.9800415,1,0,0,response1disk,,6,-0.771850586,3.351013184,1,0,0,rectangle,-0.771850586,3.351013184,1,0,0,-0.771850586,3.351013184,1,0,0,0,143,143,65,1,,,,,,,,
,,,,,,,,,,,,,FF,,,,,,,,0.8998,,,,,,,,,,,,,,,,,,,,,,60fe43b140d7b3e8893288f8,61036cfadaa4d7d2a8d929ac,2021-07-30_13h12.04.710,Simcolourproject_2stim_asymm_v5,2020.2.10,MacIntel,60,61025ae37ef11b136ea224fe,,,,,,,,,2852,44.00061035,90.50238037,1,0,0,response1disk,,7,-2.139526367,1.563781738,1,0,0,rectangle,-2.139526367,1.563781738,1,0,0,-2.139526367,1.563781738,1,0,0,0,144,144,157,1,,,,,,,,
,,,,,,,,,,,,,FF,,,,,,,,1.2334,,,,,,,,,,,,,,,,,,,,,,60fe43b140d7b3e8893288f8,61036cfadaa4d7d2a8d929ac,2021-07-30_13h12.04.710,Simcolourproject_2stim_asymm_v5,2020.2.10,MacIntel,60,61025ae37ef11b136ea224fe,,,,,,,,,2224,33.00427246,-91.16186523,1,0,0,response3disk,,4,-0.207519531,2.159729004,1,0,0,rectangle,-0.207519531,2.159729004,1,0,0,-0.207519531,2.159729004,1,0,0,0,145,145,105,1,,,,,,,,
,,,,,,,,,,,,,FF,,,,,,,,1.0189,,,,,,,,,,,,,,,,,,,,,,60fe43b140d7b3e8893288f8,61036cfadaa4d7d2a8d929ac,2021-07-30_13h12.04.710,Simcolourproject_2stim_asymm_v5,2020.2.10,MacIntel,60,61025ae37ef11b136ea224fe,,,,,,,,,3590,59.76885986,40.31756592,1,0,0,response1disk,,6,-10.24365234,-6.718811035,1,0,0,rectangle,-10.24365234,-6.718811035,1,0,0,-10.24365234,-6.718811035,1,0,0,0,146,146,6,1,,,,,,,,
,,,,,,,,,,,,,FF,,,,,,,,1.1171,,,,,,,,,,,,,,,,,,,,,,60fe43b140d7b3e8893288f8,61036cfadaa4d7d2a8d929ac,2021-07-30_13h12.04.710,Simcolourproject_2stim_asymm_v5,2020.2.10,MacIntel,60,61025ae37ef11b136ea224fe,,,,,,,,,3144,68.81768799,-37.17950439,1,0,0,response3disk,,5,-1.070556641,-6.06652832,1,0,0,rectangle,-1.070556641,-6.06652832,1,0,0,-1.070556641,-6.06652832,1,0,0,0,147,147,156,1,,,,,,,,
,,,,,,,,,,,,,FF,,,,,,,,1.8,,,,,,,,,,,,,,,,,,,,,,60fe43b140d7b3e8893288f8,61036cfadaa4d7d2a8d929ac,2021-07-30_13h12.04.710,Simcolourproject_2stim_asymm_v5,2020.2.10,MacIntel,60,61025ae37ef11b136ea224fe,,,,,,,,,3606,30.2800293,-81.39141846,1,0,0,response3disk,,4,-6.020507813,-8.475830078,1,0,0,rectangle,-6.020507813,-8.475830078,1,0,0,-6.020507813,-8.475830078,1,0,0,0,148,148,88,1,,,,,,,,
,,,,,,,,,,,,,FF,,,,,,,,1.1144,,,,,,,,,,,,,,,,,,,,,,60fe43b140d7b3e8893288f8,61036cfadaa4d7d2a8d929ac,2021-07-30_13h12.04.710,Simcolourproject_2stim_asymm_v5,2020.2.10,MacIntel,60,61025ae37ef11b136ea224fe,,,,,,,,,2941,-41.43505859,77.23861694,1,0,0,response7disk,,0,5.447387695,-7.224578857,1,0,0,rectangle,5.447387695,-7.224578857,1,0,0,5.447387695,-7.224578857,1,0,0,0,149,149,47,1,,,,,,,,
,,,,,,,,,,,,,FF,,,,,,,,0.9973,,,,,,,,,,,,,,,,,,,,,,60fe43b140d7b3e8893288f8,61036cfadaa4d7d2a8d929ac,2021-07-30_13h12.04.710,Simcolourproject_2stim_asymm_v5,2020.2.10,MacIntel,60,61025ae37ef11b136ea224fe,,,,,,,,,2900,-32.82348633,-66.9666748,1,0,0,response5disk,,3,-5.49395752,-0.199523926,1,0,0,rectangle,-5.49395752,-0.199523926,1,0,0,-5.49395752,-0.199523926,1,0,0,0,150,150,35,1,,,,,,,,
,,,,,,,,,,,,,FF,,,,,,,,1.3154,,,,,,,,,,,,,,,,,,,,,,60fe43b140d7b3e8893288f8,61036cfadaa4d7d2a8d929ac,2021-07-30_13h12.04.710,Simcolourproject_2stim_asymm_v5,2020.2.10,MacIntel,60,61025ae37ef11b136ea224fe,,,,,,,,,2933,-43.58001709,-83.14544678,1,0,0,response5disk,,3,-7.635620117,-10.76019287,1,0,0,rectangle,-7.635620117,-10.76019287,1,0,0,-7.635620117,-10.76019287,1,0,0,0,151,151,75,1,,,,,,,,
,,,,,,,,,,,,,FF,,,,,,,,1.0334,,,,,,,,,,,,,,,,,,,,,,60fe43b140d7b3e8893288f8,61036cfadaa4d7d2a8d929ac,2021-07-30_13h12.04.710,Simcolourproject_2stim_asymm_v5,2020.2.10,MacIntel,60,61025ae37ef11b136ea224fe,,,,,,,,,2894,-75.78820801,-37.33117676,1,0,0,response5disk,,2,-1.894775391,-10.64279175,1,0,0,rectangle,-1.894775391,-10.64279175,1,0,0,-1.894775391,-10.64279175,1,0,0,0,152,152,100,1,,,,,,,,
,,,,,,,,,,,,,FF,,,,,,,,0.7001,,,,,,,,,,,,,,,,,,,,,,60fe43b140d7b3e8893288f8,61036cfadaa4d7d2a8d929ac,2021-07-30_13h12.04.710,Simcolourproject_2stim_asymm_v5,2020.2.10,MacIntel,60,61025ae37ef11b136ea224fe,,,,,,,,,3225,39.5715332,66.64990234,1,0,0,response1disk,,7,6.845581055,-15.31835938,1,0,0,rectangle,6.845581055,-15.31835938,1,0,0,6.845581055,-15.31835938,1,0,0,0,153,153,36,1,,,,,,,,
,,,,,,,,,,,,,FF,,,,,,,,1.9998,,,,,,,,,,,,,,,,,,,,,,60fe43b140d7b3e8893288f8,61036cfadaa4d7d2a8d929ac,2021-07-30_13h12.04.710,Simcolourproject_2stim_asymm_v5,2020.2.10,MacIntel,60,61025ae37ef11b136ea224fe,,,,,,,,,1378,-28.10839844,-83.86071777,1,0,0,response5disk,,3,-5.979125977,1.953308105,1,0,0,rectangle,-5.979125977,1.953308105,1,0,0,-5.979125977,1.953308105,1,0,0,0,154,154,145,1,,,,,,,,
,,,,,,,,,,,,,FF,,,,,,,,1.2669,,,,,,,,,,,,,,,,,,,,,,60fe43b140d7b3e8893288f8,61036cfadaa4d7d2a8d929ac,2021-07-30_13h12.04.710,Simcolourproject_2stim_asymm_v5,2020.2.10,MacIntel,60,61025ae37ef11b136ea224fe,,,,,,,,,2403,83.74481201,33.69958496,1,0,0,response1disk,,6,1.13458252,-1.893188477,1,0,0,rectangle,1.13458252,-1.893188477,1,0,0,1.13458252,-1.893188477,1,0,0,0,155,155,137,1,,,,,,,,
,,,,,,,,,,,,,FF,,,,,,,,1.0507,,,,,,,,,,,,,,,,,,,,,,60fe43b140d7b3e8893288f8,61036cfadaa4d7d2a8d929ac,2021-07-30_13h12.04.710,Simcolourproject_2stim_asymm_v5,2020.2.10,MacIntel,60,61025ae37ef11b136ea224fe,,,,,,,,,1814,38.64050293,-95.00970459,1,0,0,response3disk,,4,-1.76953125,-4.569213867,1,0,0,rectangle,-1.76953125,-4.569213867,1,0,0,-1.76953125,-4.569213867,1,0,0,0,156,156,13,1,,,,,,,,
,,,,,,,,,,,,,FF,,,,,,,,1.0339,,,,,,,,,,,,,,,,,,,,,,60fe43b140d7b3e8893288f8,61036cfadaa4d7d2a8d929ac,2021-07-30_13h12.04.710,Simcolourproject_2stim_asymm_v5,2020.2.10,MacIntel,60,61025ae37ef11b136ea224fe,,,,,,,,,99,-40.89923096,-94.33459473,1,0,0,response5disk,,3,-6.084228516,-7.985778809,1,0,0,rectangle,-6.084228516,-7.985778809,1,0,0,-6.084228516,-7.985778809,1,0,0,0,157,157,19,1,,,,,,,,
,,,,,,,,,,,,,FF,,,,,,,,1.0666,,,,,,,,,,,,,,,,,,,,,,60fe43b140d7b3e8893288f8,61036cfadaa4d7d2a8d929ac,2021-07-30_13h12.04.710,Simcolourproject_2stim_asymm_v5,2020.2.10,MacIntel,60,61025ae37ef11b136ea224fe,,,,,,,,,1966,41.58306885,-84.3550415,1,0,0,response3disk,,4,-11.2366333,-9.959594727,1,0,0,rectangle,-11.2366333,-9.959594727,1,0,0,-11.2366333,-9.959594727,1,0,0,0,158,158,63,1,,,,,,,,
,,,,,,,,,,,,,FF,,,,,,,,0.6168,,,,,,,,,,,,,,,,,,,,,,60fe43b140d7b3e8893288f8,61036cfadaa4d7d2a8d929ac,2021-07-30_13h12.04.710,Simcolourproject_2stim_asymm_v5,2020.2.10,MacIntel,60,61025ae37ef11b136ea224fe,,,,,,,,,4070,30.04180908,59.46234131,1,0,0,response1disk,,7,5.853088379,2.150024414,1,0,0,rectangle,5.853088379,2.150024414,1,0,0,5.853088379,2.150024414,1,0,0,0,159,159,151,1,,,,,,,,
,,,,,,,,,,,,,FF,,,,,,,,0.9012,,,,,,,,,,,,,,,,,,,,,,60fe43b140d7b3e8893288f8,61036cfadaa4d7d2a8d929ac,2021-07-30_13h12.04.710,Simcolourproject_2stim_asymm_v5,2020.2.10,MacIntel,60,61025ae37ef11b136ea224fe,,,,,,,,,3742,-39.17443848,77.66491699,1,0,0,response7disk,,0,9.264343262,-13.44647217,1,0,0,rectangle,9.264343262,-13.44647217,1,0,0,9.264343262,-13.44647217,1,0,0,1,0,160,61,1,,,,,,,,
,,,,,,,,,,,,,FF,,,,,,,,2.7171,,,,,,,,,,,,,,,,,,,,,,60fe43b140d7b3e8893288f8,61036cfadaa4d7d2a8d929ac,2021-07-30_13h12.04.710,Simcolourproject_2stim_asymm_v5,2020.2.10,MacIntel,60,61025ae37ef11b136ea224fe,,,,,,,,,1711,93.58483887,36.89001465,1,0,0,response1disk,,6,0.575561523,-3.738342285,1,0,0,rectangle,71.62231445,-35.87902832,1,0,0,0.105957031,4.740020752,1,0,0,1,1,161,149,1,,response3disk_3,TRUE,5,5,"[257,232,218,76,217,51,172,162,254,18,14,100,69,233,260,316,34,80,274,20]",3.0157,rectangle
,,,,,,,,,,,,,FF,,,,,,,,1.453,,,,,,,,,,,,,,,,,,,,,,60fe43b140d7b3e8893288f8,61036cfadaa4d7d2a8d929ac,2021-07-30_13h12.04.710,Simcolourproject_2stim_asymm_v5,2020.2.10,MacIntel,60,61025ae37ef11b136ea224fe,,,,,,,,,666,84.49462891,58.67120361,1,0,0,response1disk,,6,-3.762756348,-0.876617432,1,0,0,rectangle,-3.762756348,-0.876617432,1,0,0,-3.762756348,-0.876617432,1,0,0,1,2,162,143,1,,,,,,,,
,,,,,,,,,,,,,FF,,,,,,,,0.7999,,,,,,,,,,,,,,,,,,,,,,60fe43b140d7b3e8893288f8,61036cfadaa4d7d2a8d929ac,2021-07-30_13h12.04.710,Simcolourproject_2stim_asymm_v5,2020.2.10,MacIntel,60,61025ae37ef11b136ea224fe,,,,,,,,,2515,53.76745605,21.25,1,0,0,response1disk,,6,-6.922851563,9.344787598,1,0,0,rectangle,-6.922851563,9.344787598,1,0,0,-6.922851563,9.344787598,1,0,0,1,3,163,89,1,,,,,,,,
,,,,,,,,,,,,,FF,,,,,,,,1.7855,,,,,,,,,,,,,,,,,,,,,,60fe43b140d7b3e8893288f8,61036cfadaa4d7d2a8d929ac,2021-07-30_13h12.04.710,Simcolourproject_2stim_asymm_v5,2020.2.10,MacIntel,60,61025ae37ef11b136ea224fe,,,,,,,,,859,27.55895996,85.16137695,1,0,0,response1disk,,7,-12.55395508,-5.736602783,1,0,0,rectangle,-12.55395508,-5.736602783,1,0,0,-12.55395508,-5.736602783,1,0,0,1,4,164,139,1,,,,,,,,
,,,,,,,,,,,,,FF,,,,,,,,0.8018,,,,,,,,,,,,,,,,,,,,,,60fe43b140d7b3e8893288f8,61036cfadaa4d7d2a8d929ac,2021-07-30_13h12.04.710,Simcolourproject_2stim_asymm_v5,2020.2.10,MacIntel,60,61025ae37ef11b136ea224fe,,,,,,,,,3842,44.47088623,91.29943848,1,0,0,response1disk,,7,-1.108459473,-6.637512207,1,0,0,rectangle,-1.108459473,-6.637512207,1,0,0,-1.108459473,-6.637512207,1,0,0,1,5,165,107,1,,,,,,,,
,,,,,,,,,,,,,FF,,,,,,,,1.5031,,,,,,,,,,,,,,,,,,,,,,60fe43b140d7b3e8893288f8,61036cfadaa4d7d2a8d929ac,2021-07-30_13h12.04.710,Simcolourproject_2stim_asymm_v5,2020.2.10,MacIntel,60,61025ae37ef11b136ea224fe,,,,,,,,,2553,79.82800293,43.70001221,1,0,0,response1disk,,6,-3.057983398,-2.859191895,1,0,0,rectangle,-3.057983398,-2.859191895,1,0,0,-3.057983398,-2.859191895,1,0,0,1,6,166,145,1,,,,,,,,
,,,,,,,,,,,,,FF,,,,,,,,0.8848,,,,,,,,,,,,,,,,,,,,,,60fe43b140d7b3e8893288f8,61036cfadaa4d7d2a8d929ac,2021-07-30_13h12.04.710,Simcolourproject_2stim_asymm_v5,2020.2.10,MacIntel,60,61025ae37ef11b136ea224fe,,,,,,,,,60,56.03918457,25.74234009,1,0,0,response1disk,,6,13.06134033,-1.819274902,1,0,0,rectangle,13.06134033,-1.819274902,1,0,0,13.06134033,-1.819274902,1,0,0,1,7,167,78,1,,,,,,,,
,,,,,,,,,,,,,FF,,,,,,,,1.3331,,,,,,,,,,,,,,,,,,,,,,60fe43b140d7b3e8893288f8,61036cfadaa4d7d2a8d929ac,2021-07-30_13h12.04.710,Simcolourproject_2stim_asymm_v5,2020.2.10,MacIntel,60,61025ae37ef11b136ea224fe,,,,,,,,,17,68.44281006,27.78213501,1,0,0,response1disk,,6,2.045776367,-10.35351563,1,0,0,rectangle,2.045776367,-10.35351563,1,0,0,2.045776367,-10.35351563,1,0,0,1,8,168,29,1,,,,,,,,
,,,,,,,,,,,,,FF,,,,,,,,0.8525,,,,,,,,,,,,,,,,,,,,,,60fe43b140d7b3e8893288f8,61036cfadaa4d7d2a8d929ac,2021-07-30_13h12.04.710,Simcolourproject_2stim_asymm_v5,2020.2.10,MacIntel,60,61025ae37ef11b136ea224fe,,,,,,,,,2762,36.86486816,71.97918701,1,0,0,response1disk,,7,8.955444336,-2.304229736,1,0,0,rectangle,8.955444336,-2.304229736,1,0,0,8.955444336,-2.304229736,1,0,0,1,9,169,120,1,,,,,,,,
,,,,,,,,,,,,,FF,,,,,,,,1.0996,,,,,,,,,,,,,,,,,,,,,,60fe43b140d7b3e8893288f8,61036cfadaa4d7d2a8d929ac,2021-07-30_13h12.04.710,Simcolourproject_2stim_asymm_v5,2020.2.10,MacIntel,60,61025ae37ef11b136ea224fe,,,,,,,,,845,78.93109131,44.42175293,1,0,0,response1disk,,6,-1.989562988,-1.496704102,1,0,0,rectangle,-1.989562988,-1.496704102,1,0,0,-1.989562988,-1.496704102,1,0,0,1,10,170,25,1,,,,,,,,
,,,,,,,,,,,,,FF,,,,,,,,0.7012,,,,,,,,,,,,,,,,,,,,,,60fe43b140d7b3e8893288f8,61036cfadaa4d7d2a8d929ac,2021-07-30_13h12.04.710,Simcolourproject_2stim_asymm_v5,2020.2.10,MacIntel,60,61025ae37ef11b136ea224fe,,,,,,,,,3119,28.00158691,97.83972168,1,0,0,response1disk,,7,2.056335449,11.23217773,1,0,0,rectangle,41.97143555,-99.39196777,1,0,0,2.750732422,-1.462768555,1,0,0,1,11,171,26,1,,response3disk_3,TRUE,4,4,"[257,232,218,76,217,51,172,162,254,18,14,100,69,233,260,316,34,80,274,20]",2.0309,rectangle
,,,,,,,,,,,,,FF,,,,,,,,0.7816,,,,,,,,,,,,,,,,,,,,,,60fe43b140d7b3e8893288f8,61036cfadaa4d7d2a8d929ac,2021-07-30_13h12.04.710,Simcolourproject_2stim_asymm_v5,2020.2.10,MacIntel,60,61025ae37ef11b136ea224fe,,,,,,,,,2588,31.3112793,75.17877197,1,0,0,response1disk,,7,-4.011352539,-3.587921143,1,0,0,rectangle,-4.011352539,-3.587921143,1,0,0,-4.011352539,-3.587921143,1,0,0,1,12,172,46,1,,,,,,,,
,,,,,,,,,,,,,FF,,,,,,,,1.0168,,,,,,,,,,,,,,,,,,,,,,60fe43b140d7b3e8893288f8,61036cfadaa4d7d2a8d929ac,2021-07-30_13h12.04.710,Simcolourproject_2stim_asymm_v5,2020.2.10,MacIntel,60,61025ae37ef11b136ea224fe,,,,,,,,,2636,88.10327148,52.45767212,1,0,0,response1disk,,6,-9.239624023,-12.74468994,1,0,0,rectangle,-9.239624023,-12.74468994,1,0,0,-9.239624023,-12.74468994,1,0,0,1,13,173,19,1,,,,,,,,
,,,,,,,,,,,,,FF,,,,,,,,0.6363,,,,,,,,,,,,,,,,,,,,,,60fe43b140d7b3e8893288f8,61036cfadaa4d7d2a8d929ac,2021-07-30_13h12.04.710,Simcolourproject_2stim_asymm_v5,2020.2.10,MacIntel,60,61025ae37ef11b136ea224fe,,,,,,,,,1609,-38.88726807,83.14770508,1,0,0,response7disk,,0,-4.606567383,-0.701629639,1,0,0,rectangle,-4.606567383,-0.701629639,1,0,0,-4.606567383,-0.701629639,1,0,0,1,14,174,158,1,,,,,,,,
,,,,,,,,,,,,,FF,,,,,,,,0.9667,,,,,,,,,,,,,,,,,,,,,,60fe43b140d7b3e8893288f8,61036cfadaa4d7d2a8d929ac,2021-07-30_13h12.04.710,Simcolourproject_2stim_asymm_v5,2020.2.10,MacIntel,60,61025ae37ef11b136ea224fe,,,,,,,,,1471,31.97186279,73.66125488,1,0,0,response1disk,,7,3.202941895,-7.832885742,1,0,0,rectangle,3.202941895,-7.832885742,1,0,0,3.202941895,-7.832885742,1,0,0,1,15,175,13,1,,,,,,,,
,,,,,,,,,,,,,FF,,,,,,,,0.8506,,,,,,,,,,,,,,,,,,,,,,60fe43b140d7b3e8893288f8,61036cfadaa4d7d2a8d929ac,2021-07-30_13h12.04.710,Simcolourproject_2stim_asymm_v5,2020.2.10,MacIntel,60,61025ae37ef11b136ea224fe,,,,,,,,,69,64.50817871,23.1819458,1,0,0,response1disk,,6,11.88745117,-5.405273438,1,0,0,rectangle,11.88745117,-5.405273438,1,0,0,11.88745117,-5.405273438,1,0,0,1,16,176,154,1,,,,,,,,
,,,,,,,,,,,,,FF,,,,,,,,0.7192,,,,,,,,,,,,,,,,,,,,,,60fe43b140d7b3e8893288f8,61036cfadaa4d7d2a8d929ac,2021-07-30_13h12.04.710,Simcolourproject_2stim_asymm_v5,2020.2.10,MacIntel,60,61025ae37ef11b136ea224fe,,,,,,,,,586,61.18414307,32.19580078,1,0,0,response1disk,,6,0.386352539,-10.75491333,1,0,0,rectangle,0.386352539,-10.75491333,1,0,0,0.386352539,-10.75491333,1,0,0,1,17,177,10,1,,,,,,,,
,,,,,,,,,,,,,FF,,,,,,,,1.1165,,,,,,,,,,,,,,,,,,,,,,60fe43b140d7b3e8893288f8,61036cfadaa4d7d2a8d929ac,2021-07-30_13h12.04.710,Simcolourproject_2stim_asymm_v5,2020.2.10,MacIntel,60,61025ae37ef11b136ea224fe,,,,,,,,,2425,-76.40368652,30.05834961,1,0,0,response7disk,,1,3.75970459,-0.865814209,1,0,0,rectangle,3.75970459,-0.865814209,1,0,0,3.75970459,-0.865814209,1,0,0,1,18,178,101,1,,,,,,,,
,,,,,,,,,,,,,FF,,,,,,,,1.4023,,,,,,,,,,,,,,,,,,,,,,60fe43b140d7b3e8893288f8,61036cfadaa4d7d2a8d929ac,2021-07-30_13h12.04.710,Simcolourproject_2stim_asymm_v5,2020.2.10,MacIntel,60,61025ae37ef11b136ea224fe,,,,,,,,,2722,-80.15386963,30.93249512,1,0,0,response7disk,,1,3.830810547,-9.55065918,1,0,0,rectangle,3.830810547,-9.55065918,1,0,0,3.830810547,-9.55065918,1,0,0,1,19,179,33,1,,,,,,,,
,,,,,,,,,,,,,FF,,,,,,,,1.351,,,,,,,,,,,,,,,,,,,,,,60fe43b140d7b3e8893288f8,61036cfadaa4d7d2a8d929ac,2021-07-30_13h12.04.710,Simcolourproject_2stim_asymm_v5,2020.2.10,MacIntel,60,61025ae37ef11b136ea224fe,,,,,,,,,3620,61.90185547,-37.96514893,1,0,0,response3disk,,5,-3.689331055,-3.007202148,1,0,0,rectangle,-3.689331055,-3.007202148,1,0,0,-3.689331055,-3.007202148,1,0,0,1,20,180,146,1,,,,,,,,
,,,,,,,,,,,,,FF,,,,,,,,2.4169,,,,,,,,,,,,,,,,,,,,,,60fe43b140d7b3e8893288f8,61036cfadaa4d7d2a8d929ac,2021-07-30_13h12.04.710,Simcolourproject_2stim_asymm_v5,2020.2.10,MacIntel,60,61025ae37ef11b136ea224fe,,,,,,,,,3831,64.61645508,34.52557373,1,0,0,response1disk,,6,-0.903930664,-0.189880371,1,0,0,rectangle,-0.903930664,-0.189880371,1,0,0,-0.903930664,-0.189880371,1,0,0,1,21,181,36,1,,,,,,,,
,,,,,,,,,,,,,FF,,,,,,,,2.517,,,,,,,,,,,,,,,,,,,,,,60fe43b140d7b3e8893288f8,61036cfadaa4d7d2a8d929ac,2021-07-30_13h12.04.710,Simcolourproject_2stim_asymm_v5,2020.2.10,MacIntel,60,61025ae37ef11b136ea224fe,,,,,,,,,2529,93.72998047,26.67681885,1,0,0,response1disk,,6,-0.54296875,2.257354736,1,0,0,rectangle,-0.54296875,2.257354736,1,0,0,-0.54296875,2.257354736,1,0,0,1,22,182,79,1,,,,,,,,
,,,,,,,,,,,,,FF,,,,,,,,1.2332,,,,,,,,,,,,,,,,,,,,,,60fe43b140d7b3e8893288f8,61036cfadaa4d7d2a8d929ac,2021-07-30_13h12.04.710,Simcolourproject_2stim_asymm_v5,2020.2.10,MacIntel,60,61025ae37ef11b136ea224fe,,,,,,,,,4339,-32.11657715,-72.31134033,1,0,0,response5disk,,3,0.655456543,-5.452636719,1,0,0,rectangle,0.655456543,-5.452636719,1,0,0,0.655456543,-5.452636719,1,0,0,1,23,183,108,1,,,,,,,,
,,,,,,,,,,,,,FF,,,,,,,,0.9008,,,,,,,,,,,,,,,,,,,,,,60fe43b140d7b3e8893288f8,61036cfadaa4d7d2a8d929ac,2021-07-30_13h12.04.710,Simcolourproject_2stim_asymm_v5,2020.2.10,MacIntel,60,61025ae37ef11b136ea224fe,,,,,,,,,1474,46.17248535,-74.50354004,1,0,0,response3disk,,4,-4.168457031,-10.76574707,1,0,0,rectangle,-4.168457031,-10.76574707,1,0,0,-4.168457031,-10.76574707,1,0,0,1,24,184,140,1,,,,,,,,
,,,,,,,,,,,,,FF,,,,,,,,0.7709,,,,,,,,,,,,,,,,,,,,,,60fe43b140d7b3e8893288f8,61036cfadaa4d7d2a8d929ac,2021-07-30_13h12.04.710,Simcolourproject_2stim_asymm_v5,2020.2.10,MacIntel,60,61025ae37ef11b136ea224fe,,,,,,,,,2693,68.95117188,47.22851563,1,0,0,response1disk,,6,4.156494141,2.470397949,1,0,0,rectangle,4.156494141,2.470397949,1,0,0,4.156494141,2.470397949,1,0,0,1,25,185,27,1,,,,,,,,
,,,,,,,,,,,,,FF,,,,,,,,0.6339,,,,,,,,,,,,,,,,,,,,,,60fe43b140d7b3e8893288f8,61036cfadaa4d7d2a8d929ac,2021-07-30_13h12.04.710,Simcolourproject_2stim_asymm_v5,2020.2.10,MacIntel,60,61025ae37ef11b136ea224fe,,,,,,,,,3359,27.03424072,61.8039856,1,0,0,response1disk,,7,-3.741271973,0.426513672,1,0,0,rectangle,-3.741271973,0.426513672,1,0,0,-3.741271973,0.426513672,1,0,0,1,26,186,103,1,,,,,,,,
,,,,,,,,,,,,,FF,,,,,,,,1.1323,,,,,,,,,,,,,,,,,,,,,,60fe43b140d7b3e8893288f8,61036cfadaa4d7d2a8d929ac,2021-07-30_13h12.04.710,Simcolourproject_2stim_asymm_v5,2020.2.10,MacIntel,60,61025ae37ef11b136ea224fe,,,,,,,,,1959,-44.03399658,-72.87640381,1,0,0,response5disk,,3,0.891052246,-7.148468018,1,0,0,rectangle,0.891052246,-7.148468018,1,0,0,0.891052246,-7.148468018,1,0,0,1,27,187,3,1,,,,,,,,
,,,,,,,,,,,,,FF,,,,,,,,1.7017,,,,,,,,,,,,,,,,,,,,,,60fe43b140d7b3e8893288f8,61036cfadaa4d7d2a8d929ac,2021-07-30_13h12.04.710,Simcolourproject_2stim_asymm_v5,2020.2.10,MacIntel,60,61025ae37ef11b136ea224fe,,,,,,,,,3711,-46.27288818,-96.10540771,1,0,0,response5disk,,3,6.195251465,-3.803375244,1,0,0,rectangle,6.195251465,-3.803375244,1,0,0,6.195251465,-3.803375244,1,0,0,1,28,188,159,1,,,,,,,,
,,,,,,,,,,,,,FF,,,,,,,,1.0146,,,,,,,,,,,,,,,,,,,,,,60fe43b140d7b3e8893288f8,61036cfadaa4d7d2a8d929ac,2021-07-30_13h12.04.710,Simcolourproject_2stim_asymm_v5,2020.2.10,MacIntel,60,61025ae37ef11b136ea224fe,,,,,,,,,3230,37.73144531,76.14056396,1,0,0,response1disk,,7,-1.246704102,-5.181854248,1,0,0,rectangle,-1.246704102,-5.181854248,1,0,0,-1.246704102,-5.181854248,1,0,0,1,29,189,69,1,,,,,,,,
,,,,,,,,,,,,,FF,,,,,,,,1.4848,,,,,,,,,,,,,,,,,,,,,,60fe43b140d7b3e8893288f8,61036cfadaa4d7d2a8d929ac,2021-07-30_13h12.04.710,Simcolourproject_2stim_asymm_v5,2020.2.10,MacIntel,60,61025ae37ef11b136ea224fe,,,,,,,,,3296,-79.3248291,-45.81530762,1,0,0,response5disk,,2,0.431762695,-3.995056152,1,0,0,rectangle,0.431762695,-3.995056152,1,0,0,0.431762695,-3.995056152,1,0,0,1,30,190,23,1,,,,,,,,
,,,,,,,,,,,,,FF,,,,,,,,2.8175,,,,,,,,,,,,,,,,,,,,,,60fe43b140d7b3e8893288f8,61036cfadaa4d7d2a8d929ac,2021-07-30_13h12.04.710,Simcolourproject_2stim_asymm_v5,2020.2.10,MacIntel,60,61025ae37ef11b136ea224fe,,,,,,,,,2786,-69.52270508,-27.8112793,1,0,0,response5disk,,2,7.812866211,-8.978820801,1,0,0,rectangle,7.812866211,-8.978820801,1,0,0,7.812866211,-8.978820801,1,0,0,1,31,191,113,1,,,,,,,,
,,,,,,,,,,,,,FF,,,,,,,,0.817,,,,,,,,,,,,,,,,,,,,,,60fe43b140d7b3e8893288f8,61036cfadaa4d7d2a8d929ac,2021-07-30_13h12.04.710,Simcolourproject_2stim_asymm_v5,2020.2.10,MacIntel,60,61025ae37ef11b136ea224fe,,,,,,,,,3008,-29.03704834,-90.95446777,1,0,0,response5disk,,3,7.868774414,1.959533691,1,0,0,rectangle,7.868774414,1.959533691,1,0,0,7.868774414,1.959533691,1,0,0,1,32,192,152,1,,,,,,,,
,,,,,,,,,,,,,FF,,,,,,,,0.7332,,,,,,,,,,,,,,,,,,,,,,60fe43b140d7b3e8893288f8,61036cfadaa4d7d2a8d929ac,2021-07-30_13h12.04.710,Simcolourproject_2stim_asymm_v5,2020.2.10,MacIntel,60,61025ae37ef11b136ea224fe,,,,,,,,,4071,-18.25622559,82.57751465,1,0,0,response7disk,,0,3.354309082,-3.146057129,1,0,0,rectangle,3.354309082,-3.146057129,1,0,0,3.354309082,-3.146057129,1,0,0,1,33,193,137,1,,,,,,,,
,,,,,,,,,,,,,FF,,,,,,,,1.3315,,,,,,,,,,,,,,,,,,,,,,60fe43b140d7b3e8893288f8,61036cfadaa4d7d2a8d929ac,2021-07-30_13h12.04.710,Simcolourproject_2stim_asymm_v5,2020.2.10,MacIntel,60,61025ae37ef11b136ea224fe,,,,,,,,,2586,74.93084717,-37.51483154,1,0,0,response3disk,,5,-6.008666992,1.865844727,1,0,0,rectangle,-6.008666992,1.865844727,1,0,0,-6.008666992,1.865844727,1,0,0,1,34,194,129,1,,,,,,,,
,,,,,,,,,,,,,FF,,,,,,,,0.6,,,,,,,,,,,,,,,,,,,,,,60fe43b140d7b3e8893288f8,61036cfadaa4d7d2a8d929ac,2021-07-30_13h12.04.710,Simcolourproject_2stim_asymm_v5,2020.2.10,MacIntel,60,61025ae37ef11b136ea224fe,,,,,,,,,2920,29.7723999,60.16607666,1,0,0,response1disk,,7,-5.667541504,-16.98297119,1,0,0,rectangle,-5.667541504,-16.98297119,1,0,0,-5.667541504,-16.98297119,1,0,0,1,35,195,86,1,,,,,,,,
,,,,,,,,,,,,,FF,,,,,,,,0.8829,,,,,,,,,,,,,,,,,,,,,,60fe43b140d7b3e8893288f8,61036cfadaa4d7d2a8d929ac,2021-07-30_13h12.04.710,Simcolourproject_2stim_asymm_v5,2020.2.10,MacIntel,60,61025ae37ef11b136ea224fe,,,,,,,,,3626,-37.37225342,-59.37304688,1,0,0,response5disk,,3,-2.483764648,-2.77822876,1,0,0,rectangle,-2.483764648,-2.77822876,1,0,0,-2.483764648,-2.77822876,1,0,0,1,36,196,30,1,,,,,,,,
,,,,,,,,,,,,,FF,,,,,,,,0.9814,,,,,,,,,,,,,,,,,,,,,,60fe43b140d7b3e8893288f8,61036cfadaa4d7d2a8d929ac,2021-07-30_13h12.04.710,Simcolourproject_2stim_asymm_v5,2020.2.10,MacIntel,60,61025ae37ef11b136ea224fe,,,,,,,,,2595,36.6361084,-88.88146973,1,0,0,response3disk,,4,5.786621094,-14.08959961,1,0,0,rectangle,5.786621094,-14.08959961,1,0,0,5.786621094,-14.08959961,1,0,0,1,37,197,102,1,,,,,,,,
,,,,,,,,,,,,,FF,,,,,,,,0.9506,,,,,,,,,,,,,,,,,,,,,,60fe43b140d7b3e8893288f8,61036cfadaa4d7d2a8d929ac,2021-07-30_13h12.04.710,Simcolourproject_2stim_asymm_v5,2020.2.10,MacIntel,60,61025ae37ef11b136ea224fe,,,,,,,,,4104,-77.12481689,-27.5960083,1,0,0,response5disk,,2,-3.812866211,-12.7487793,1,0,0,rectangle,-3.812866211,-12.7487793,1,0,0,-3.812866211,-12.7487793,1,0,0,1,38,198,142,1,,,,,,,,
,,,,,,,,,,,,,FF,,,,,,,,0.9674,,,,,,,,,,,,,,,,,,,,,,60fe43b140d7b3e8893288f8,61036cfadaa4d7d2a8d929ac,2021-07-30_13h12.04.710,Simcolourproject_2stim_asymm_v5,2020.2.10,MacIntel,60,61025ae37ef11b136ea224fe,,,,,,,,,2492,76.2119751,26.01083374,1,0,0,response1disk,,6,3.776611328,-1.477355957,1,0,0,rectangle,3.776611328,-1.477355957,1,0,0,3.776611328,-1.477355957,1,0,0,1,39,199,127,1,,,,,,,,
,,,,,,,,,,,,,FF,,,,,,,,0.5669,,,,,,,,,,,,,,,,,,,,,,60fe43b140d7b3e8893288f8,61036cfadaa4d7d2a8d929ac,2021-07-30_13h12.04.710,Simcolourproject_2stim_asymm_v5,2020.2.10,MacIntel,60,61025ae37ef11b136ea224fe,,,,,,,,,1943,39.36187744,71.93536377,1,0,0,response1disk,,7,4.898925781,2.172424316,1,0,0,rectangle,4.898925781,2.172424316,1,0,0,4.898925781,2.172424316,1,0,0,1,40,200,125,1,,,,,,,,
,,,,,,,,,,,,,FF,,,,,,,,1.1014,,,,,,,,,,,,,,,,,,,,,,60fe43b140d7b3e8893288f8,61036cfadaa4d7d2a8d929ac,2021-07-30_13h12.04.710,Simcolourproject_2stim_asymm_v5,2020.2.10,MacIntel,60,61025ae37ef11b136ea224fe,,,,,,,,,3980,45.21759033,88.13787842,1,0,0,response1disk,,7,7.744689941,15.75378418,1,0,0,rectangle,7.744689941,15.75378418,1,0,0,7.744689941,15.75378418,1,0,0,1,41,201,116,1,,,,,,,,
,,,,,,,,,,,,,FF,,,,,,,,0.5317,,,,,,,,,,,,,,,,,,,,,,60fe43b140d7b3e8893288f8,61036cfadaa4d7d2a8d929ac,2021-07-30_13h12.04.710,Simcolourproject_2stim_asymm_v5,2020.2.10,MacIntel,60,61025ae37ef11b136ea224fe,,,,,,,,,1340,32.38354492,77.17138672,1,0,0,response1disk,,7,-1.301452637,-3.524353027,1,0,0,rectangle,-1.301452637,-3.524353027,1,0,0,-1.301452637,-3.524353027,1,0,0,1,42,202,83,1,,,,,,,,
,,,,,,,,,,,,,FF,,,,,,,,0.9976,,,,,,,,,,,,,,,,,,,,,,60fe43b140d7b3e8893288f8,61036cfadaa4d7d2a8d929ac,2021-07-30_13h12.04.710,Simcolourproject_2stim_asymm_v5,2020.2.10,MacIntel,60,61025ae37ef11b136ea224fe,,,,,,,,,1362,66.12213135,38.49118042,1,0,0,response1disk,,6,2.116943359,5.520874023,1,0,0,rectangle,2.116943359,5.520874023,1,0,0,2.116943359,5.520874023,1,0,0,1,43,203,8,1,,,,,,,,
,,,,,,,,,,,,,FF,,,,,,,,0.6651,,,,,,,,,,,,,,,,,,,,,,60fe43b140d7b3e8893288f8,61036cfadaa4d7d2a8d929ac,2021-07-30_13h12.04.710,Simcolourproject_2stim_asymm_v5,2020.2.10,MacIntel,60,61025ae37ef11b136ea224fe,,,,,,,,,2355,-44.24316406,80.74734497,1,0,0,response7disk,,0,0.281860352,4.634490967,1,0,0,rectangle,0.281860352,4.634490967,1,0,0,0.281860352,4.634490967,1,0,0,1,44,204,96,1,,,,,,,,
,,,,,,,,,,,,,FF,,,,,,,,1.1164,,,,,,,,,,,,,,,,,,,,,,60fe43b140d7b3e8893288f8,61036cfadaa4d7d2a8d929ac,2021-07-30_13h12.04.710,Simcolourproject_2stim_asymm_v5,2020.2.10,MacIntel,60,61025ae37ef11b136ea224fe,,,,,,,,,1615,-45.11151123,-80.05291748,1,0,0,response5disk,,3,4.364624023,2.004943848,1,0,0,rectangle,4.364624023,2.004943848,1,0,0,4.364624023,2.004943848,1,0,0,1,45,205,16,1,,,,,,,,
,,,,,,,,,,,,,FF,,,,,,,,1.0649,,,,,,,,,,,,,,,,,,,,,,60fe43b140d7b3e8893288f8,61036cfadaa4d7d2a8d929ac,2021-07-30_13h12.04.710,Simcolourproject_2stim_asymm_v5,2020.2.10,MacIntel,60,61025ae37ef11b136ea224fe,,,,,,,,,1710,77.58166504,-37.66534424,1,0,0,response3disk,,5,4.108032227,-9.995544434,1,0,0,rectangle,4.108032227,-9.995544434,1,0,0,4.108032227,-9.995544434,1,0,0,1,46,206,42,1,,,,,,,,
,,,,,,,,,,,,,FF,,,,,,,,2.4322,,,,,,,,,,,,,,,,,,,,,,60fe43b140d7b3e8893288f8,61036cfadaa4d7d2a8d929ac,2021-07-30_13h12.04.710,Simcolourproject_2stim_asymm_v5,2020.2.10,MacIntel,60,61025ae37ef11b136ea224fe,,,,,,,,,662,67.97412109,-30.25274658,1,0,0,response3disk,,5,-3.259277344,12.30664063,1,0,0,rectangle,-3.259277344,12.30664063,1,0,0,-3.259277344,12.30664063,1,0,0,1,47,207,22,1,,,,,,,,
,,,,,,,,,,,,,FF,,,,,,,,0.7816,,,,,,,,,,,,,,,,,,,,,,60fe43b140d7b3e8893288f8,61036cfadaa4d7d2a8d929ac,2021-07-30_13h12.04.710,Simcolourproject_2stim_asymm_v5,2020.2.10,MacIntel,60,61025ae37ef11b136ea224fe,,,,,,,,,2264,36.14349365,84.277771,1,0,0,response1disk,,7,-6.33416748,1.487243652,1,0,0,rectangle,-6.33416748,1.487243652,1,0,0,-6.33416748,1.487243652,1,0,0,1,48,208,6,1,,,,,,,,
,,,,,,,,,,,,,FF,,,,,,,,0.9672,,,,,,,,,,,,,,,,,,,,,,60fe43b140d7b3e8893288f8,61036cfadaa4d7d2a8d929ac,2021-07-30_13h12.04.710,Simcolourproject_2stim_asymm_v5,2020.2.10,MacIntel,60,61025ae37ef11b136ea224fe,,,,,,,,,2780,-79.35394287,28.0703125,1,0,0,response7disk,,1,5.414306641,-5.599578857,1,0,0,rectangle,5.414306641,-5.599578857,1,0,0,5.414306641,-5.599578857,1,0,0,1,49,209,153,1,,,,,,,,
,,,,,,,,,,,,,FF,,,,,,,,1.2669,,,,,,,,,,,,,,,,,,,,,,60fe43b140d7b3e8893288f8,61036cfadaa4d7d2a8d929ac,2021-07-30_13h12.04.710,Simcolourproject_2stim_asymm_v5,2020.2.10,MacIntel,60,61025ae37ef11b136ea224fe,,,,,,,,,4165,45.52911377,-71.8583374,1,0,0,response3disk,,4,11.96881104,-6.326538086,1,0,0,rectangle,11.96881104,-6.326538086,1,0,0,11.96881104,-6.326538086,1,0,0,1,50,210,114,1,,,,,,,,
,,,,,,,,,,,,,FF,,,,,,,,0.9496,,,,,,,,,,,,,,,,,,,,,,60fe43b140d7b3e8893288f8,61036cfadaa4d7d2a8d929ac,2021-07-30_13h12.04.710,Simcolourproject_2stim_asymm_v5,2020.2.10,MacIntel,60,61025ae37ef11b136ea224fe,,,,,,,,,1356,34.42669678,-90.87365723,1,0,0,response3disk,,4,-0.904846191,-8.309234619,1,0,0,rectangle,-0.904846191,-8.309234619,1,0,0,-0.904846191,-8.309234619,1,0,0,1,51,211,45,1,,,,,,,,
,,,,,,,,,,,,,FF,,,,,,,,0.9669,,,,,,,,,,,,,,,,,,,,,,60fe43b140d7b3e8893288f8,61036cfadaa4d7d2a8d929ac,2021-07-30_13h12.04.710,Simcolourproject_2stim_asymm_v5,2020.2.10,MacIntel,60,61025ae37ef11b136ea224fe,,,,,,,,,2974,82.46270752,30.26721191,1,0,0,response1disk,,6,3.268127441,-5.827056885,1,0,0,rectangle,3.268127441,-5.827056885,1,0,0,3.268127441,-5.827056885,1,0,0,1,52,212,132,1,,,,,,,,
,,,,,,,,,,,,,FF,,,,,,,,0.9172,,,,,,,,,,,,,,,,,,,,,,60fe43b140d7b3e8893288f8,61036cfadaa4d7d2a8d929ac,2021-07-30_13h12.04.710,Simcolourproject_2stim_asymm_v5,2020.2.10,MacIntel,60,61025ae37ef11b136ea224fe,,,,,,,,,194,-46.45690918,-70.05224609,1,0,0,response5disk,,3,-0.898742676,-13.92254639,1,0,0,rectangle,-0.898742676,-13.92254639,1,0,0,-0.898742676,-13.92254639,1,0,0,1,53,213,84,1,,,,,,,,
,,,,,,,,,,,,,FF,,,,,,,,1.1038,,,,,,,,,,,,,,,,,,,,,,60fe43b140d7b3e8893288f8,61036cfadaa4d7d2a8d929ac,2021-07-30_13h12.04.710,Simcolourproject_2stim_asymm_v5,2020.2.10,MacIntel,60,61025ae37ef11b136ea224fe,,,,,,,,,76,84.64764404,-51.63720703,1,0,0,response3disk,,5,7.917480469,-9.134887695,1,0,0,rectangle,7.917480469,-9.134887695,1,0,0,7.917480469,-9.134887695,1,0,0,1,54,214,31,1,,,,,,,,
,,,,,,,,,,,,,FF,,,,,,,,0.7162,,,,,,,,,,,,,,,,,,,,,,60fe43b140d7b3e8893288f8,61036cfadaa4d7d2a8d929ac,2021-07-30_13h12.04.710,Simcolourproject_2stim_asymm_v5,2020.2.10,MacIntel,60,61025ae37ef11b136ea224fe,,,,,,,,,3325,34.08465576,71.39257813,1,0,0,response1disk,,7,-0.50793457,3.666992188,1,0,0,rectangle,-0.50793457,3.666992188,1,0,0,-0.50793457,3.666992188,1,0,0,1,55,215,81,1,,,,,,,,
,,,,,,,,,,,,,FF,,,,,,,,1.3323,,,,,,,,,,,,,,,,,,,,,,60fe43b140d7b3e8893288f8,61036cfadaa4d7d2a8d929ac,2021-07-30_13h12.04.710,Simcolourproject_2stim_asymm_v5,2020.2.10,MacIntel,60,61025ae37ef11b136ea224fe,,,,,,,,,3663,34.89770508,-82.52880859,1,0,0,response3disk,,4,-10.4107666,-15.3717041,1,0,0,rectangle,88.05615234,36.60662842,1,0,0,-1.637084961,-5.591918945,1,0,0,1,56,216,1,1,,response1disk_3,TRUE,6,6,"[257,232,218,76,217,51,172,162,254,18,14,100,69,233,260,316,34,80,274,20]",2.3832,rectangle
,,,,,,,,,,,,,FF,,,,,,,,1.7839,,,,,,,,,,,,,,,,,,,,,,60fe43b140d7b3e8893288f8,61036cfadaa4d7d2a8d929ac,2021-07-30_13h12.04.710,Simcolourproject_2stim_asymm_v5,2020.2.10,MacIntel,60,61025ae37ef11b136ea224fe,,,,,,,,,642,75.3067627,-28.7401123,1,0,0,response3disk,,5,1.119873047,-7.395751953,1,0,0,rectangle,67.51116943,-40.57092285,1,0,0,4.207458496,-5.444122314,1,0,0,1,57,217,57,1,,response3disk_3,TRUE,5,5,"[257,232,218,76,217,51,172,162,254,18,14,100,69,233,260,316,34,80,274,20]",2.4502,rectangle
,,,,,,,,,,,,,FF,,,,,,,,1.2313,,,,,,,,,,,,,,,,,,,,,,60fe43b140d7b3e8893288f8,61036cfadaa4d7d2a8d929ac,2021-07-30_13h12.04.710,Simcolourproject_2stim_asymm_v5,2020.2.10,MacIntel,60,61025ae37ef11b136ea224fe,,,,,,,,,4300,75.12457275,42.28146362,1,0,0,response1disk,,6,-3.472595215,-4.17868042,1,0,0,rectangle,-3.472595215,-4.17868042,1,0,0,-3.472595215,-4.17868042,1,0,0,1,58,218,133,1,,,,,,,,
,,,,,,,,,,,,,FF,,,,,,,,1.6173,,,,,,,,,,,,,,,,,,,,,,60fe43b140d7b3e8893288f8,61036cfadaa4d7d2a8d929ac,2021-07-30_13h12.04.710,Simcolourproject_2stim_asymm_v5,2020.2.10,MacIntel,60,61025ae37ef11b136ea224fe,,,,,,,,,1286,96.51434326,-38.68026733,1,0,0,response3disk,,5,8.182983398,-1.058227539,1,0,0,rectangle,8.182983398,-1.058227539,1,0,0,8.182983398,-1.058227539,1,0,0,1,59,219,105,1,,,,,,,,
,,,,,,,,,,,,,FF,,,,,,,,1.034,,,,,,,,,,,,,,,,,,,,,,60fe43b140d7b3e8893288f8,61036cfadaa4d7d2a8d929ac,2021-07-30_13h12.04.710,Simcolourproject_2stim_asymm_v5,2020.2.10,MacIntel,60,61025ae37ef11b136ea224fe,,,,,,,,,1395,80.27130127,-50.36987305,1,0,0,response3disk,,5,2.51550293,-13.09356689,1,0,0,rectangle,2.51550293,-13.09356689,1,0,0,2.51550293,-13.09356689,1,0,0,1,60,220,56,1,,,,,,,,
,,,,,,,,,,,,,FF,,,,,,,,0.8841,,,,,,,,,,,,,,,,,,,,,,60fe43b140d7b3e8893288f8,61036cfadaa4d7d2a8d929ac,2021-07-30_13h12.04.710,Simcolourproject_2stim_asymm_v5,2020.2.10,MacIntel,60,61025ae37ef11b136ea224fe,,,,,,,,,3618,35.2734375,92.25720215,1,0,0,response1disk,,7,2.108154297,-0.304962158,1,0,0,rectangle,2.108154297,-0.304962158,1,0,0,2.108154297,-0.304962158,1,0,0,1,61,221,97,1,,,,,,,,
,,,,,,,,,,,,,FF,,,,,,,,0.6667,,,,,,,,,,,,,,,,,,,,,,60fe43b140d7b3e8893288f8,61036cfadaa4d7d2a8d929ac,2021-07-30_13h12.04.710,Simcolourproject_2stim_asymm_v5,2020.2.10,MacIntel,60,61025ae37ef11b136ea224fe,,,,,,,,,3300,27.04431152,70.75335693,1,0,0,response1disk,,7,-0.665039063,0.678771973,1,0,0,rectangle,-0.665039063,0.678771973,1,0,0,-0.665039063,0.678771973,1,0,0,1,62,222,118,1,,,,,,,,
,,,,,,,,,,,,,FF,,,,,,,,1.0332,,,,,,,,,,,,,,,,,,,,,,60fe43b140d7b3e8893288f8,61036cfadaa4d7d2a8d929ac,2021-07-30_13h12.04.710,Simcolourproject_2stim_asymm_v5,2020.2.10,MacIntel,60,61025ae37ef11b136ea224fe,,,,,,,,,1721,41.47332764,84.36990356,1,0,0,response1disk,,7,2.687316895,-1.551513672,1,0,0,rectangle,2.687316895,-1.551513672,1,0,0,2.687316895,-1.551513672,1,0,0,1,63,223,151,1,,,,,,,,
,,,,,,,,,,,,,FF,,,,,,,,1.1168,,,,,,,,,,,,,,,,,,,,,,60fe43b140d7b3e8893288f8,61036cfadaa4d7d2a8d929ac,2021-07-30_13h12.04.710,Simcolourproject_2stim_asymm_v5,2020.2.10,MacIntel,60,61025ae37ef11b136ea224fe,,,,,,,,,1137,51.31347656,-74.24597168,1,0,0,response3disk,,4,-0.289428711,-3.888977051,1,0,0,rectangle,-0.289428711,-3.888977051,1,0,0,-0.289428711,-3.888977051,1,0,0,1,64,224,136,1,,,,,,,,
,,,,,,,,,,,,,FF,,,,,,,,0.8835,,,,,,,,,,,,,,,,,,,,,,60fe43b140d7b3e8893288f8,61036cfadaa4d7d2a8d929ac,2021-07-30_13h12.04.710,Simcolourproject_2stim_asymm_v5,2020.2.10,MacIntel,60,61025ae37ef11b136ea224fe,,,,,,,,,1318,84.19268799,37.52072144,1,0,0,response1disk,,6,-3.650146484,-15.22592163,1,0,0,rectangle,-3.650146484,-15.22592163,1,0,0,-3.650146484,-15.22592163,1,0,0,1,65,225,147,1,,,,,,,,
,,,,,,,,,,,,,FF,,,,,,,,0.9027,,,,,,,,,,,,,,,,,,,,,,60fe43b140d7b3e8893288f8,61036cfadaa4d7d2a8d929ac,2021-07-30_13h12.04.710,Simcolourproject_2stim_asymm_v5,2020.2.10,MacIntel,60,61025ae37ef11b136ea224fe,,,,,,,,,2772,77.4776001,55.64459229,0,0,1,response1disk,,6,16.3817749,-0.208526611,1,0,1,rectangle,16.3817749,-0.208526611,1,0,1,16.3817749,-0.208526611,1,0,1,1,66,226,128,1,,,,,,,,
,,,,,,,,,,,,,FF,,,,,,,,1.4171,,,,,,,,,,,,,,,,,,,,,,60fe43b140d7b3e8893288f8,61036cfadaa4d7d2a8d929ac,2021-07-30_13h12.04.710,Simcolourproject_2stim_asymm_v5,2020.2.10,MacIntel,60,61025ae37ef11b136ea224fe,,,,,,,,,2809,36.29229736,87.25769043,1,0,1,response1disk,,7,5.335632324,-3.26550293,1,0,1,rectangle,5.335632324,-3.26550293,1,0,1,5.335632324,-3.26550293,1,0,1,1,67,227,111,1,,,,,,,,
,,,,,,,,,,,,,FF,,,,,,,,0.6501,,,,,,,,,,,,,,,,,,,,,,60fe43b140d7b3e8893288f8,61036cfadaa4d7d2a8d929ac,2021-07-30_13h12.04.710,Simcolourproject_2stim_asymm_v5,2020.2.10,MacIntel,60,61025ae37ef11b136ea224fe,,,,,,,,,4287,35.46136475,75.75683594,1,0,1,response1disk,,7,3.703613281,-14.73266602,1,0,1,rectangle,3.703613281,-14.73266602,1,0,1,3.703613281,-14.73266602,1,0,1,1,68,228,58,1,,,,,,,,
,,,,,,,,,,,,,FF,,,,,,,,2.3001,,,,,,,,,,,,,,,,,,,,,,60fe43b140d7b3e8893288f8,61036cfadaa4d7d2a8d929ac,2021-07-30_13h12.04.710,Simcolourproject_2stim_asymm_v5,2020.2.10,MacIntel,60,61025ae37ef11b136ea224fe,,,,,,,,,1754,49.6416626,-87.38305664,1,0,1,response3disk,,4,-4.335510254,-9.461791992,1,0,1,rectangle,-4.335510254,-9.461791992,1,0,1,-4.335510254,-9.461791992,1,0,1,1,69,229,93,1,,,,,,,,
,,,,,,,,,,,,,FF,,,,,,,,1.3001,,,,,,,,,,,,,,,,,,,,,,60fe43b140d7b3e8893288f8,61036cfadaa4d7d2a8d929ac,2021-07-30_13h12.04.710,Simcolourproject_2stim_asymm_v5,2020.2.10,MacIntel,60,61025ae37ef11b136ea224fe,,,,,,,,,249,79.61395264,35.00424194,1,0,1,response1disk,,6,12.22875977,0.698425293,1,0,1,rectangle,12.22875977,0.698425293,1,0,1,12.22875977,0.698425293,1,0,1,1,70,230,121,1,,,,,,,,
,,,,,,,,,,,,,FF,,,,,,,,0.8987,,,,,,,,,,,,,,,,,,,,,,60fe43b140d7b3e8893288f8,61036cfadaa4d7d2a8d929ac,2021-07-30_13h12.04.710,Simcolourproject_2stim_asymm_v5,2020.2.10,MacIntel,60,61025ae37ef11b136ea224fe,,,,,,,,,2252,43.4942627,-75.01861572,1,0,1,response3disk,,4,2.786865234,-12.87442017,1,0,1,rectangle,27.39300537,-85.87371826,1,0,1,2.832824707,-5.556152344,1,0,1,1,71,231,124,1,,response3disk_3,TRUE,4,4,"[257,232,218,76,217,51,172,162,254,18,14,100,69,233,260,316,34,80,274,20]",1.8309,rectangle
,,,,,,,,,,,,,FF,,,,,,,,1.0649,,,,,,,,,,,,,,,,,,,,,,60fe43b140d7b3e8893288f8,61036cfadaa4d7d2a8d929ac,2021-07-30_13h12.04.710,Simcolourproject_2stim_asymm_v5,2020.2.10,MacIntel,60,61025ae37ef11b136ea224fe,,,,,,,,,3566,49.38977051,-71.72613525,1,0,1,response3disk,,4,-4.51550293,-12.60214233,1,0,1,rectangle,41.96936035,-86.57434082,1,0,1,-5.575195313,0.671569824,1,0,1,1,72,232,49,1,,response3disk_3,TRUE,4,4,"[257,232,218,76,217,51,172,162,254,18,14,100,69,233,260,316,34,80,274,20]",1.631,rectangle
,,,,,,,,,,,,,FF,,,,,,,,1.5166,,,,,,,,,,,,,,,,,,,,,,60fe43b140d7b3e8893288f8,61036cfadaa4d7d2a8d929ac,2021-07-30_13h12.04.710,Simcolourproject_2stim_asymm_v5,2020.2.10,MacIntel,60,61025ae37ef11b136ea224fe,,,,,,,,,323,28.06243896,79.39535522,1,0,1,response1disk,,7,-4.042724609,-5.493469238,1,0,1,rectangle,-4.042724609,-5.493469238,1,0,1,-4.042724609,-5.493469238,1,0,1,1,73,233,63,1,,,,,,,,
,,,,,,,,,,,,,FF,,,,,,,,0.9484,,,,,,,,,,,,,,,,,,,,,,60fe43b140d7b3e8893288f8,61036cfadaa4d7d2a8d929ac,2021-07-30_13h12.04.710,Simcolourproject_2stim_asymm_v5,2020.2.10,MacIntel,60,61025ae37ef11b136ea224fe,,,,,,,,,1000,60.92987061,42.44543457,1,0,1,response1disk,,6,1.933166504,7.43572998,1,0,1,rectangle,1.933166504,7.43572998,1,0,1,1.933166504,7.43572998,1,0,1,1,74,234,34,1,,,,,,,,
,,,,,,,,,,,,,FF,,,,,,,,0.8853,,,,,,,,,,,,,,,,,,,,,,60fe43b140d7b3e8893288f8,61036cfadaa4d7d2a8d929ac,2021-07-30_13h12.04.710,Simcolourproject_2stim_asymm_v5,2020.2.10,MacIntel,60,61025ae37ef11b136ea224fe,,,,,,,,,1578,62.65948486,92.09494019,1,0,1,response1disk,,7,1.872131348,-3.539581299,1,0,1,rectangle,1.872131348,-3.539581299,1,0,1,1.872131348,-3.539581299,1,0,1,1,75,235,90,1,,,,,,,,
,,,,,,,,,,,,,FF,,,,,,,,1.3333,,,,,,,,,,,,,,,,,,,,,,60fe43b140d7b3e8893288f8,61036cfadaa4d7d2a8d929ac,2021-07-30_13h12.04.710,Simcolourproject_2stim_asymm_v5,2020.2.10,MacIntel,60,61025ae37ef11b136ea224fe,,,,,,,,,1867,42.22589111,84.34069824,1,0,1,response1disk,,7,-6.91394043,-4.752502441,1,0,1,rectangle,-6.91394043,-4.752502441,1,0,1,-6.91394043,-4.752502441,1,0,1,1,76,236,67,1,,,,,,,,
,,,,,,,,,,,,,FF,,,,,,,,3.4152,,,,,,,,,,,,,,,,,,,,,,60fe43b140d7b3e8893288f8,61036cfadaa4d7d2a8d929ac,2021-07-30_13h12.04.710,Simcolourproject_2stim_asymm_v5,2020.2.10,MacIntel,60,61025ae37ef11b136ea224fe,,,,,,,,,1633,71.60351563,42.01782227,1,0,1,response1disk,,6,-7.137329102,-9.363372803,1,0,1,rectangle,-7.137329102,-9.363372803,1,0,1,-7.137329102,-9.363372803,1,0,1,1,77,237,24,1,,,,,,,,
,,,,,,,,,,,,,FF,,,,,,,,0.7995,,,,,,,,,,,,,,,,,,,,,,60fe43b140d7b3e8893288f8,61036cfadaa4d7d2a8d929ac,2021-07-30_13h12.04.710,Simcolourproject_2stim_asymm_v5,2020.2.10,MacIntel,60,61025ae37ef11b136ea224fe,,,,,,,,,499,38.17675781,63.13650513,1,0,1,response1disk,,7,0.482177734,-1.627868652,1,0,1,rectangle,0.482177734,-1.627868652,1,0,1,0.482177734,-1.627868652,1,0,1,1,78,238,115,1,,,,,,,,
,,,,,,,,,,,,,FF,,,,,,,,1.5524,,,,,,,,,,,,,,,,,,,,,,60fe43b140d7b3e8893288f8,61036cfadaa4d7d2a8d929ac,2021-07-30_13h12.04.710,Simcolourproject_2stim_asymm_v5,2020.2.10,MacIntel,60,61025ae37ef11b136ea224fe,,,,,,,,,1026,73.07501221,-45.5475769,1,0,1,response3disk,,5,-3.899475098,-8.838439941,1,0,1,rectangle,-3.899475098,-8.838439941,1,0,1,-3.899475098,-8.838439941,1,0,1,1,79,239,4,1,,,,,,,,
,,,,,,,,,,,,,FF,,,,,,,,1.0482,,,,,,,,,,,,,,,,,,,,,,60fe43b140d7b3e8893288f8,61036cfadaa4d7d2a8d929ac,2021-07-30_13h12.04.710,Simcolourproject_2stim_asymm_v5,2020.2.10,MacIntel,60,61025ae37ef11b136ea224fe,,,,,,,,,1751,-58.07806396,-83.24108887,1,0,1,response5disk,,3,-7.70098877,-8.518615723,1,0,1,rectangle,-7.70098877,-8.518615723,1,0,1,-7.70098877,-8.518615723,1,0,1,1,80,240,2,1,,,,,,,,
