key_resp.keys,key_resp.rt,key_resp_14.keys,key_resp_14.rt,key_resp_15.keys,key_resp_15.rt,key_resp_17.keys,key_resp_17.rt,key_resp_9.keys,key_resp_9.rt,key_resp_10.keys,key_resp_10.rt,practice_comparison,Ecc,mouse_5.x,mouse_5.y,mouse_5.leftButton,mouse_5.midButton,mouse_5.rightButton,mouse_5.clicked_name,pracsimilarity,response_time,mouse_10.x,mouse_10.y,mouse_10.leftButton,mouse_10.midButton,mouse_10.rightButton,mouse_10.clicked_name,mouse_7.x,mouse_7.y,mouse_7.leftButton,mouse_7.midButton,mouse_7.rightButton,mouse_6.x,mouse_6.y,mouse_6.leftButton,mouse_6.midButton,mouse_6.rightButton,duringprac.thisRepN,duringprac.thisTrialN,duringprac.thisN,duringprac.thisIndex,duringprac.ran,participant,session,date,expName,psychopyVersion,OS,frameRate,study_id,mouse_7.clicked_name,catchpracsimilarity,catch_response_time,catchnumberprac,catchtrialorderprac,mouse_6.clicked_name,key_resp_22.keys,key_resp_22.rt,realcomparison,mouse.x,mouse.y,mouse.leftButton,mouse.midButton,mouse.rightButton,mouse.clicked_name,Colour2,similarity,mouse_2.x,mouse_2.y,mouse_2.leftButton,mouse_2.midButton,mouse_2.rightButton,mouse_2.clicked_name,mouse_3.x,mouse_3.y,mouse_3.leftButton,mouse_3.midButton,mouse_3.rightButton,mouse_11.x,mouse_11.y,mouse_11.leftButton,mouse_11.midButton,mouse_11.rightButton,trials_2.thisRepN,trials_2.thisTrialN,trials_2.thisN,trials_2.thisIndex,trials_2.ran,Colour1,mouse_3.clicked_name,catchornah,catchsimilarity,catchnumber,catchtrialorder,catchRT,mouse_11.clicked_name
space,1.3477,space,9.6156,space,11.2413,space,5.6514,space,1.3413,space,4.0089,106,PF,132.7893066,-40.49584961,1,0,0,response3disk_5,5,7.6341,0.075866699,0.189758301,1,0,0,rectangle_8,0.075866699,0.189758301,1,0,0,0.075866699,0.189758301,1,0,0,0,0,0,4,1,60fe4482b0994eea74bfd910,610377a95586e6728cc99516,2021-07-29_21h08.48.635,Simcolourproject_2stim_asymm_v5,2020.2.10,Linux x86_64,60,61025ae37ef11b136ea224fe,,,,,,,,,,,,,,,,,,,,,,,,,,,,,,,,,,,,,,,,,,,,,,
,,,,,,,,,,,,2,FF,-56.69775391,104.0473938,1,0,0,response7disk_5,0,3.1802,-6.786376953,-5.452148438,1,0,0,rectangle_8,-101.7356567,-47.55303955,1,0,0,17.46661377,-7.573242188,1,0,0,0,1,1,5,1,60fe4482b0994eea74bfd910,610377a95586e6728cc99516,2021-07-29_21h08.48.635,Simcolourproject_2stim_asymm_v5,2020.2.10,Linux x86_64,60,61025ae37ef11b136ea224fe,response5disk_7,2,7.4045,2,"[2,5]",rectangle_4,,,,,,,,,,,,,,,,,,,,,,,,,,,,,,,,,,,,,,,,
,,,,,,,,,,,,27,FF,57.47186279,-87.33709717,1,0,0,response3disk_5,4,3.2591,-21.45495605,-0.490356445,1,0,0,rectangle_8,-21.45495605,-0.490356445,1,0,0,-21.45495605,-0.490356445,1,0,0,0,2,2,0,1,60fe4482b0994eea74bfd910,610377a95586e6728cc99516,2021-07-29_21h08.48.635,Simcolourproject_2stim_asymm_v5,2020.2.10,Linux x86_64,60,61025ae37ef11b136ea224fe,,,,,,,,,,,,,,,,,,,,,,,,,,,,,,,,,,,,,,,,,,,,,,
,,,,,,,,,,,,104,FF,-57.22717285,-95.63830566,1,0,0,response5disk_5,3,2.1854,16.51300049,8.404174805,1,0,0,rectangle_8,16.51300049,8.404174805,1,0,0,16.51300049,8.404174805,1,0,0,0,3,3,3,1,60fe4482b0994eea74bfd910,610377a95586e6728cc99516,2021-07-29_21h08.48.635,Simcolourproject_2stim_asymm_v5,2020.2.10,Linux x86_64,60,61025ae37ef11b136ea224fe,,,,,,,,,,,,,,,,,,,,,,,,,,,,,,,,,,,,,,,,,,,,,,
,,,,,,,,,,,,1,PF,67.53613281,-100.0165405,1,0,0,response3disk_5,4,1.9129,10.91308594,-2.031738281,1,0,0,rectangle_8,-105.9325562,-50.57330322,1,0,0,5.045654297,-9.747070313,1,0,0,0,4,4,2,1,60fe4482b0994eea74bfd910,610377a95586e6728cc99516,2021-07-29_21h08.48.635,Simcolourproject_2stim_asymm_v5,2020.2.10,Linux x86_64,60,61025ae37ef11b136ea224fe,response5disk_7,2,3.8946,2,"[2,5]",rectangle_4,,,,,,,,,,,,,,,,,,,,,,,,,,,,,,,,,,,,,,,,
,,,,,,,,,,,,41,PF,-104.081665,50.15359497,1,0,0,response7disk_5,1,2.3641,7.112487793,-6.224182129,1,0,0,rectangle_8,7.112487793,-6.224182129,1,0,0,7.112487793,-6.224182129,1,0,0,0,5,5,1,1,60fe4482b0994eea74bfd910,610377a95586e6728cc99516,2021-07-29_21h08.48.635,Simcolourproject_2stim_asymm_v5,2020.2.10,Linux x86_64,60,61025ae37ef11b136ea224fe,,,,,,,,,,,,,,,,,,,,,,,,,,,,,,,,,,,,,,,,,,,,,,
,,,,,,,,,,,,48,PF,-117.7649536,-44,1,0,0,response5disk_5,2,1.3654,-26.75085449,-9.490783691,1,0,0,rectangle_8,-26.75085449,-9.490783691,1,0,0,-26.75085449,-9.490783691,1,0,0,0,6,6,6,1,60fe4482b0994eea74bfd910,610377a95586e6728cc99516,2021-07-29_21h08.48.635,Simcolourproject_2stim_asymm_v5,2020.2.10,Linux x86_64,60,61025ae37ef11b136ea224fe,,,,,,,,,,,,,,,,,,,,,,,,,,,,,,,,,,,,,,,,,,,,,,
,,,,,,,,,,,,,FF,,,,,,,,1.3401,,,,,,,,,,,,,,,,,,,,,,60fe4482b0994eea74bfd910,610377a95586e6728cc99516,2021-07-29_21h08.48.635,Simcolourproject_2stim_asymm_v5,2020.2.10,Linux x86_64,60,61025ae37ef11b136ea224fe,,,,,,,space,3.3885,3475,-58.65930176,-84.06634521,1,0,0,response5disk,,3,1.538818359,5.622009277,1,0,0,rectangle,1.538818359,5.622009277,1,0,0,1.538818359,5.622009277,1,0,0,0,0,0,72,1,,,,,,,,
,,,,,,,,,,,,,FF,,,,,,,,1.5595,,,,,,,,,,,,,,,,,,,,,,60fe4482b0994eea74bfd910,610377a95586e6728cc99516,2021-07-29_21h08.48.635,Simcolourproject_2stim_asymm_v5,2020.2.10,Linux x86_64,60,61025ae37ef11b136ea224fe,,,,,,,,,1882,44.1237793,-105.0177612,1,0,0,response3disk,,4,-19.30059814,16.73504639,1,0,0,rectangle,-19.30059814,16.73504639,1,0,0,-19.30059814,16.73504639,1,0,0,0,1,1,22,1,,,,,,,,
,,,,,,,,,,,,,FF,,,,,,,,1.0634,,,,,,,,,,,,,,,,,,,,,,60fe4482b0994eea74bfd910,610377a95586e6728cc99516,2021-07-29_21h08.48.635,Simcolourproject_2stim_asymm_v5,2020.2.10,Linux x86_64,60,61025ae37ef11b136ea224fe,,,,,,,,,1870,-45.8739624,80.09329224,1,0,0,response7disk,,0,10.61706543,11.6932373,1,0,0,rectangle,10.61706543,11.6932373,1,0,0,10.61706543,11.6932373,1,0,0,0,2,2,52,1,,,,,,,,
,,,,,,,,,,,,,FF,,,,,,,,1.1517,,,,,,,,,,,,,,,,,,,,,,60fe4482b0994eea74bfd910,610377a95586e6728cc99516,2021-07-29_21h08.48.635,Simcolourproject_2stim_asymm_v5,2020.2.10,Linux x86_64,60,61025ae37ef11b136ea224fe,,,,,,,,,86,-55.70080566,95.32763672,1,0,0,response7disk,,0,-6.924438477,10.0020752,1,0,0,rectangle,-6.924438477,10.0020752,1,0,0,-6.924438477,10.0020752,1,0,0,0,3,3,117,1,,,,,,,,
,,,,,,,,,,,,,FF,,,,,,,,1.9916,,,,,,,,,,,,,,,,,,,,,,60fe4482b0994eea74bfd910,610377a95586e6728cc99516,2021-07-29_21h08.48.635,Simcolourproject_2stim_asymm_v5,2020.2.10,Linux x86_64,60,61025ae37ef11b136ea224fe,,,,,,,,,4128,-103.9449463,-76.19470215,1,0,0,response5disk,,2,0.298278809,-4.327941895,1,0,0,rectangle,0.298278809,-4.327941895,1,0,0,0.298278809,-4.327941895,1,0,0,0,4,4,66,1,,,,,,,,
,,,,,,,,,,,,,FF,,,,,,,,1.0726,,,,,,,,,,,,,,,,,,,,,,60fe4482b0994eea74bfd910,610377a95586e6728cc99516,2021-07-29_21h08.48.635,Simcolourproject_2stim_asymm_v5,2020.2.10,Linux x86_64,60,61025ae37ef11b136ea224fe,,,,,,,,,3766,-107.8196411,-44.62243652,1,0,0,response5disk,,2,32.93151855,-10.88513184,1,0,0,rectangle,32.93151855,-10.88513184,1,0,0,32.93151855,-10.88513184,1,0,0,0,5,5,46,1,,,,,,,,
,,,,,,,,,,,,,FF,,,,,,,,1.2528,,,,,,,,,,,,,,,,,,,,,,60fe4482b0994eea74bfd910,610377a95586e6728cc99516,2021-07-29_21h08.48.635,Simcolourproject_2stim_asymm_v5,2020.2.10,Linux x86_64,60,61025ae37ef11b136ea224fe,,,,,,,,,1908,-64.33483887,86.56686401,1,0,0,response7disk,,0,-10.45056152,-3.721069336,1,0,0,rectangle,-10.45056152,-3.721069336,1,0,0,-10.45056152,-3.721069336,1,0,0,0,6,6,35,1,,,,,,,,
,,,,,,,,,,,,,FF,,,,,,,,2.3189,,,,,,,,,,,,,,,,,,,,,,60fe4482b0994eea74bfd910,610377a95586e6728cc99516,2021-07-29_21h08.48.635,Simcolourproject_2stim_asymm_v5,2020.2.10,Linux x86_64,60,61025ae37ef11b136ea224fe,,,,,,,,,2216,-70.12200928,-128.7003784,1,0,0,response5disk,,3,5.515136719,-14.96392822,1,0,0,rectangle,5.515136719,-14.96392822,1,0,0,5.515136719,-14.96392822,1,0,0,0,7,7,53,1,,,,,,,,
,,,,,,,,,,,,,FF,,,,,,,,1.2115,,,,,,,,,,,,,,,,,,,,,,60fe4482b0994eea74bfd910,610377a95586e6728cc99516,2021-07-29_21h08.48.635,Simcolourproject_2stim_asymm_v5,2020.2.10,Linux x86_64,60,61025ae37ef11b136ea224fe,,,,,,,,,1835,41.33428955,-115.1157227,1,0,0,response3disk,,4,14.06677246,-12.71032715,1,0,0,rectangle,14.06677246,-12.71032715,1,0,0,14.06677246,-12.71032715,1,0,0,0,8,8,6,1,,,,,,,,
,,,,,,,,,,,,,FF,,,,,,,,0.9216,,,,,,,,,,,,,,,,,,,,,,60fe4482b0994eea74bfd910,610377a95586e6728cc99516,2021-07-29_21h08.48.635,Simcolourproject_2stim_asymm_v5,2020.2.10,Linux x86_64,60,61025ae37ef11b136ea224fe,,,,,,,,,2772,77.10888672,-111.2982178,1,0,0,response3disk,,4,13.40100098,-9.798828125,1,0,0,rectangle,13.40100098,-9.798828125,1,0,0,13.40100098,-9.798828125,1,0,0,0,9,9,98,1,,,,,,,,
,,,,,,,,,,,,,FF,,,,,,,,1.1836,,,,,,,,,,,,,,,,,,,,,,60fe4482b0994eea74bfd910,610377a95586e6728cc99516,2021-07-29_21h08.48.635,Simcolourproject_2stim_asymm_v5,2020.2.10,Linux x86_64,60,61025ae37ef11b136ea224fe,,,,,,,,,2115,-38.50097656,125.960907,1,0,0,response7disk,,0,-15.97387695,6.996154785,1,0,0,rectangle,-15.97387695,6.996154785,1,0,0,-15.97387695,6.996154785,1,0,0,0,10,10,40,1,,,,,,,,
,,,,,,,,,,,,,FF,,,,,,,,1.3708,,,,,,,,,,,,,,,,,,,,,,60fe4482b0994eea74bfd910,610377a95586e6728cc99516,2021-07-29_21h08.48.635,Simcolourproject_2stim_asymm_v5,2020.2.10,Linux x86_64,60,61025ae37ef11b136ea224fe,,,,,,,,,3436,97.60522461,49.30340576,1,0,0,response1disk,,6,16.72479248,-5.463012695,1,0,0,rectangle,16.72479248,-5.463012695,1,0,0,16.72479248,-5.463012695,1,0,0,0,11,11,127,1,,,,,,,,
,,,,,,,,,,,,,FF,,,,,,,,1.1616,,,,,,,,,,,,,,,,,,,,,,60fe4482b0994eea74bfd910,610377a95586e6728cc99516,2021-07-29_21h08.48.635,Simcolourproject_2stim_asymm_v5,2020.2.10,Linux x86_64,60,61025ae37ef11b136ea224fe,,,,,,,,,1332,-127.4124146,68.953125,1,0,0,response7disk,,1,-39.38421631,0.001586914,1,0,0,rectangle,-39.38421631,0.001586914,1,0,0,-39.38421631,0.001586914,1,0,0,0,12,12,26,1,,,,,,,,
,,,,,,,,,,,,,FF,,,,,,,,1.186,,,,,,,,,,,,,,,,,,,,,,60fe4482b0994eea74bfd910,610377a95586e6728cc99516,2021-07-29_21h08.48.635,Simcolourproject_2stim_asymm_v5,2020.2.10,Linux x86_64,60,61025ae37ef11b136ea224fe,,,,,,,,,1142,134.5645752,71.94708252,1,0,0,response1disk,,6,-3.696716309,-4.253417969,1,0,0,rectangle,-3.696716309,-4.253417969,1,0,0,-3.696716309,-4.253417969,1,0,0,0,13,13,73,1,,,,,,,,
,,,,,,,,,,,,,FF,,,,,,,,0.8603,,,,,,,,,,,,,,,,,,,,,,60fe4482b0994eea74bfd910,610377a95586e6728cc99516,2021-07-29_21h08.48.635,Simcolourproject_2stim_asymm_v5,2020.2.10,Linux x86_64,60,61025ae37ef11b136ea224fe,,,,,,,,,2712,119.4697266,37.94445801,1,0,0,response1disk,,6,31.45092773,-9.487182617,1,0,0,rectangle,31.45092773,-9.487182617,1,0,0,31.45092773,-9.487182617,1,0,0,0,14,14,54,1,,,,,,,,
,,,,,,,,,,,,,FF,,,,,,,,0.8107,,,,,,,,,,,,,,,,,,,,,,60fe4482b0994eea74bfd910,610377a95586e6728cc99516,2021-07-29_21h08.48.635,Simcolourproject_2stim_asymm_v5,2020.2.10,Linux x86_64,60,61025ae37ef11b136ea224fe,,,,,,,,,2920,-105.4688721,-73.57745361,1,0,0,response5disk,,2,-8.355102539,3.355651855,1,0,0,rectangle,-8.355102539,3.355651855,1,0,0,-8.355102539,3.355651855,1,0,0,0,15,15,121,1,,,,,,,,
,,,,,,,,,,,,,FF,,,,,,,,0.9545,,,,,,,,,,,,,,,,,,,,,,60fe4482b0994eea74bfd910,610377a95586e6728cc99516,2021-07-29_21h08.48.635,Simcolourproject_2stim_asymm_v5,2020.2.10,Linux x86_64,60,61025ae37ef11b136ea224fe,,,,,,,,,2652,98.61462402,-37.19219971,1,0,0,response3disk,,5,-29.83856201,14.15515137,1,0,0,rectangle,-29.83856201,14.15515137,1,0,0,-29.83856201,14.15515137,1,0,0,0,16,16,139,1,,,,,,,,
,,,,,,,,,,,,,FF,,,,,,,,0.7787,,,,,,,,,,,,,,,,,,,,,,60fe4482b0994eea74bfd910,610377a95586e6728cc99516,2021-07-29_21h08.48.635,Simcolourproject_2stim_asymm_v5,2020.2.10,Linux x86_64,60,61025ae37ef11b136ea224fe,,,,,,,,,2412,114.3226318,-49.66253662,1,0,0,response3disk,,5,21.77905273,2.00402832,1,0,0,rectangle,21.77905273,2.00402832,1,0,0,21.77905273,2.00402832,1,0,0,0,17,17,153,1,,,,,,,,
,,,,,,,,,,,,,FF,,,,,,,,1.7543,,,,,,,,,,,,,,,,,,,,,,60fe4482b0994eea74bfd910,610377a95586e6728cc99516,2021-07-29_21h08.48.635,Simcolourproject_2stim_asymm_v5,2020.2.10,Linux x86_64,60,61025ae37ef11b136ea224fe,,,,,,,,,1629,-122.0308838,-54.97210693,1,0,0,response5disk,,2,-18.15789795,-4.539733887,1,0,0,rectangle,-18.15789795,-4.539733887,1,0,0,-18.15789795,-4.539733887,1,0,0,0,18,18,114,1,,,,,,,,
,,,,,,,,,,,,,FF,,,,,,,,1.2628,,,,,,,,,,,,,,,,,,,,,,60fe4482b0994eea74bfd910,610377a95586e6728cc99516,2021-07-29_21h08.48.635,Simcolourproject_2stim_asymm_v5,2020.2.10,Linux x86_64,60,61025ae37ef11b136ea224fe,,,,,,,,,2400,-105.2112427,86.10250854,1,0,0,response7disk,,1,-25.77313232,7.465942383,1,0,0,rectangle,-25.77313232,7.465942383,1,0,0,-25.77313232,7.465942383,1,0,0,0,19,19,1,1,,,,,,,,
,,,,,,,,,,,,,FF,,,,,,,,2.6817,,,,,,,,,,,,,,,,,,,,,,60fe4482b0994eea74bfd910,610377a95586e6728cc99516,2021-07-29_21h08.48.635,Simcolourproject_2stim_asymm_v5,2020.2.10,Linux x86_64,60,61025ae37ef11b136ea224fe,,,,,,,,,431,-170.2958984,-84.55609131,1,0,0,response5disk,,2,-20.70355225,-12.47375488,1,0,0,rectangle,-20.70355225,-12.47375488,1,0,0,-20.70355225,-12.47375488,1,0,0,0,20,20,115,1,,,,,,,,
,,,,,,,,,,,,,FF,,,,,,,,0.854,,,,,,,,,,,,,,,,,,,,,,60fe4482b0994eea74bfd910,610377a95586e6728cc99516,2021-07-29_21h08.48.635,Simcolourproject_2stim_asymm_v5,2020.2.10,Linux x86_64,60,61025ae37ef11b136ea224fe,,,,,,,,,1898,125.6362305,-39.94628906,1,0,0,response3disk,,5,5.051086426,7.536010742,1,0,0,rectangle,5.051086426,7.536010742,1,0,0,5.051086426,7.536010742,1,0,0,0,21,21,18,1,,,,,,,,
,,,,,,,,,,,,,FF,,,,,,,,1.4915,,,,,,,,,,,,,,,,,,,,,,60fe4482b0994eea74bfd910,610377a95586e6728cc99516,2021-07-29_21h08.48.635,Simcolourproject_2stim_asymm_v5,2020.2.10,Linux x86_64,60,61025ae37ef11b136ea224fe,,,,,,,,,1398,-112.6610107,24.99951172,1,0,0,response7disk,,1,-18.5302124,-1.377441406,1,0,0,rectangle,-18.5302124,-1.377441406,1,0,0,-18.5302124,-1.377441406,1,0,0,0,22,22,34,1,,,,,,,,
,,,,,,,,,,,,,FF,,,,,,,,1.0525,,,,,,,,,,,,,,,,,,,,,,60fe4482b0994eea74bfd910,610377a95586e6728cc99516,2021-07-29_21h08.48.635,Simcolourproject_2stim_asymm_v5,2020.2.10,Linux x86_64,60,61025ae37ef11b136ea224fe,,,,,,,,,3050,-72.67431641,29.0184021,1,0,0,response7disk,,1,-39.34259033,8.679504395,1,0,0,rectangle,-39.34259033,8.679504395,1,0,0,-39.34259033,8.679504395,1,0,0,0,23,23,123,1,,,,,,,,
,,,,,,,,,,,,,FF,,,,,,,,2.3133,,,,,,,,,,,,,,,,,,,,,,60fe4482b0994eea74bfd910,610377a95586e6728cc99516,2021-07-29_21h08.48.635,Simcolourproject_2stim_asymm_v5,2020.2.10,Linux x86_64,60,61025ae37ef11b136ea224fe,,,,,,,,,2598,106.8057861,-56.80187988,1,0,0,response3disk,,5,12.42321777,2.960266113,1,0,0,rectangle,12.42321777,2.960266113,1,0,0,12.42321777,2.960266113,1,0,0,0,24,24,138,1,,,,,,,,
,,,,,,,,,,,,,FF,,,,,,,,1.126,,,,,,,,,,,,,,,,,,,,,,60fe4482b0994eea74bfd910,610377a95586e6728cc99516,2021-07-29_21h08.48.635,Simcolourproject_2stim_asymm_v5,2020.2.10,Linux x86_64,60,61025ae37ef11b136ea224fe,,,,,,,,,3449,-55.71411133,105.3535156,1,0,0,response7disk,,0,6.271911621,6.038513184,1,0,0,rectangle,6.271911621,6.038513184,1,0,0,6.271911621,6.038513184,1,0,0,0,25,25,49,1,,,,,,,,
,,,,,,,,,,,,,FF,,,,,,,,1.1441,,,,,,,,,,,,,,,,,,,,,,60fe4482b0994eea74bfd910,610377a95586e6728cc99516,2021-07-29_21h08.48.635,Simcolourproject_2stim_asymm_v5,2020.2.10,Linux x86_64,60,61025ae37ef11b136ea224fe,,,,,,,,,3342,64.14245605,-85.25958252,1,0,0,response3disk,,4,2.177001953,21.00146484,1,0,0,rectangle,2.177001953,21.00146484,1,0,0,2.177001953,21.00146484,1,0,0,0,26,26,24,1,,,,,,,,
,,,,,,,,,,,,,FF,,,,,,,,1.1553,,,,,,,,,,,,,,,,,,,,,,60fe4482b0994eea74bfd910,610377a95586e6728cc99516,2021-07-29_21h08.48.635,Simcolourproject_2stim_asymm_v5,2020.2.10,Linux x86_64,60,61025ae37ef11b136ea224fe,,,,,,,,,427,-109.4942627,44.47720337,1,0,0,response7disk,,1,-23.02722168,-16.08276367,1,0,0,rectangle,-23.02722168,-16.08276367,1,0,0,-23.02722168,-16.08276367,1,0,0,0,27,27,129,1,,,,,,,,
,,,,,,,,,,,,,FF,,,,,,,,0.7683,,,,,,,,,,,,,,,,,,,,,,60fe4482b0994eea74bfd910,610377a95586e6728cc99516,2021-07-29_21h08.48.635,Simcolourproject_2stim_asymm_v5,2020.2.10,Linux x86_64,60,61025ae37ef11b136ea224fe,,,,,,,,,1409,-88.89331055,-31.84588623,1,0,0,response5disk,,2,4.764526367,10.53253174,1,0,0,rectangle,4.764526367,10.53253174,1,0,0,4.764526367,10.53253174,1,0,0,0,28,28,110,1,,,,,,,,
,,,,,,,,,,,,,FF,,,,,,,,1.0967,,,,,,,,,,,,,,,,,,,,,,60fe4482b0994eea74bfd910,610377a95586e6728cc99516,2021-07-29_21h08.48.635,Simcolourproject_2stim_asymm_v5,2020.2.10,Linux x86_64,60,61025ae37ef11b136ea224fe,,,,,,,,,2382,-71.7166748,91.50869751,1,0,0,response7disk,,0,0.292907715,-18.48358154,1,0,0,rectangle,0.292907715,-18.48358154,1,0,0,0.292907715,-18.48358154,1,0,0,0,29,29,51,1,,,,,,,,
,,,,,,,,,,,,,FF,,,,,,,,1.4841,,,,,,,,,,,,,,,,,,,,,,60fe4482b0994eea74bfd910,610377a95586e6728cc99516,2021-07-29_21h08.48.635,Simcolourproject_2stim_asymm_v5,2020.2.10,Linux x86_64,60,61025ae37ef11b136ea224fe,,,,,,,,,2204,-136.2471313,100.9813232,1,0,0,response7disk,,1,6.530578613,-4.695251465,1,0,0,rectangle,6.530578613,-4.695251465,1,0,0,6.530578613,-4.695251465,1,0,0,0,30,30,155,1,,,,,,,,
,,,,,,,,,,,,,FF,,,,,,,,1.0062,,,,,,,,,,,,,,,,,,,,,,60fe4482b0994eea74bfd910,610377a95586e6728cc99516,2021-07-29_21h08.48.635,Simcolourproject_2stim_asymm_v5,2020.2.10,Linux x86_64,60,61025ae37ef11b136ea224fe,,,,,,,,,4295,109.0803223,-92.11047363,1,0,0,response3disk,,5,29.00665283,-7.437744141,1,0,0,rectangle,29.00665283,-7.437744141,1,0,0,29.00665283,-7.437744141,1,0,0,0,31,31,144,1,,,,,,,,
,,,,,,,,,,,,,FF,,,,,,,,0.9881,,,,,,,,,,,,,,,,,,,,,,60fe4482b0994eea74bfd910,610377a95586e6728cc99516,2021-07-29_21h08.48.635,Simcolourproject_2stim_asymm_v5,2020.2.10,Linux x86_64,60,61025ae37ef11b136ea224fe,,,,,,,,,105,-82.90411377,81.04788208,1,0,0,response7disk,,1,-7.692932129,-7.852600098,1,0,0,rectangle,-7.692932129,-7.852600098,1,0,0,-7.692932129,-7.852600098,1,0,0,0,32,32,99,1,,,,,,,,
,,,,,,,,,,,,,FF,,,,,,,,1.0362,,,,,,,,,,,,,,,,,,,,,,60fe4482b0994eea74bfd910,610377a95586e6728cc99516,2021-07-29_21h08.48.635,Simcolourproject_2stim_asymm_v5,2020.2.10,Linux x86_64,60,61025ae37ef11b136ea224fe,,,,,,,,,3421,-121.1373291,-58.92163086,1,0,0,response5disk,,2,-29.74371338,-1.586975098,1,0,0,rectangle,-29.74371338,-1.586975098,1,0,0,-29.74371338,-1.586975098,1,0,0,0,33,33,142,1,,,,,,,,
,,,,,,,,,,,,,FF,,,,,,,,0.9749,,,,,,,,,,,,,,,,,,,,,,60fe4482b0994eea74bfd910,610377a95586e6728cc99516,2021-07-29_21h08.48.635,Simcolourproject_2stim_asymm_v5,2020.2.10,Linux x86_64,60,61025ae37ef11b136ea224fe,,,,,,,,,967,-52.11749268,72.737854,1,0,0,response7disk,,0,-3.187438965,-21.4911499,1,0,0,rectangle,-3.187438965,-21.4911499,1,0,0,-3.187438965,-21.4911499,1,0,0,0,34,34,103,1,,,,,,,,
,,,,,,,,,,,,,FF,,,,,,,,0.9987,,,,,,,,,,,,,,,,,,,,,,60fe4482b0994eea74bfd910,610377a95586e6728cc99516,2021-07-29_21h08.48.635,Simcolourproject_2stim_asymm_v5,2020.2.10,Linux x86_64,60,61025ae37ef11b136ea224fe,,,,,,,,,103,-60.55560303,-120.3026733,1,0,0,response5disk,,3,1.546203613,-19.2911377,1,0,0,rectangle,1.546203613,-19.2911377,1,0,0,1.546203613,-19.2911377,1,0,0,0,35,35,3,1,,,,,,,,
,,,,,,,,,,,,,FF,,,,,,,,1.9585,,,,,,,,,,,,,,,,,,,,,,60fe4482b0994eea74bfd910,610377a95586e6728cc99516,2021-07-29_21h08.48.635,Simcolourproject_2stim_asymm_v5,2020.2.10,Linux x86_64,60,61025ae37ef11b136ea224fe,,,,,,,,,2390,-39.73272705,-68.94171143,1,0,0,response5disk,,3,20.23638916,14.68493652,1,0,0,rectangle,20.23638916,14.68493652,1,0,0,20.23638916,14.68493652,1,0,0,0,36,36,27,1,,,,,,,,
,,,,,,,,,,,,,FF,,,,,,,,1.9683,,,,,,,,,,,,,,,,,,,,,,60fe4482b0994eea74bfd910,610377a95586e6728cc99516,2021-07-29_21h08.48.635,Simcolourproject_2stim_asymm_v5,2020.2.10,Linux x86_64,60,61025ae37ef11b136ea224fe,,,,,,,,,2044,42.87249756,-54.4175415,1,0,0,response3disk,,4,-1.942260742,8.844238281,1,0,0,rectangle,-1.942260742,8.844238281,1,0,0,-1.942260742,8.844238281,1,0,0,0,37,37,101,1,,,,,,,,
,,,,,,,,,,,,,FF,,,,,,,,2.1003,,,,,,,,,,,,,,,,,,,,,,60fe4482b0994eea74bfd910,610377a95586e6728cc99516,2021-07-29_21h08.48.635,Simcolourproject_2stim_asymm_v5,2020.2.10,Linux x86_64,60,61025ae37ef11b136ea224fe,,,,,,,,,4236,-72.75830078,-162.3919678,1,0,0,response5disk,,3,-4.955993652,-5.201416016,1,0,0,rectangle,-4.955993652,-5.201416016,1,0,0,-4.955993652,-5.201416016,1,0,0,0,38,38,36,1,,,,,,,,
,,,,,,,,,,,,,FF,,,,,,,,1.4712,,,,,,,,,,,,,,,,,,,,,,60fe4482b0994eea74bfd910,610377a95586e6728cc99516,2021-07-29_21h08.48.635,Simcolourproject_2stim_asymm_v5,2020.2.10,Linux x86_64,60,61025ae37ef11b136ea224fe,,,,,,,,,1404,-75.49224854,-135.0288086,1,0,0,response5disk,,3,-20.44665527,-1.522033691,1,0,0,rectangle,-20.44665527,-1.522033691,1,0,0,-20.44665527,-1.522033691,1,0,0,0,39,39,159,1,,,,,,,,
,,,,,,,,,,,,,FF,,,,,,,,0.3935,,,,,,,,,,,,,,,,,,,,,,60fe4482b0994eea74bfd910,610377a95586e6728cc99516,2021-07-29_21h08.48.635,Simcolourproject_2stim_asymm_v5,2020.2.10,Linux x86_64,60,61025ae37ef11b136ea224fe,,,,,,,,,245,-81.29907227,-46.81115723,1,0,0,response5disk,,2,-28.9744873,-12.63067627,1,0,0,rectangle,-28.9744873,-12.63067627,1,0,0,-28.9744873,-12.63067627,1,0,0,0,40,40,13,1,,,,,,,,
,,,,,,,,,,,,,FF,,,,,,,,0.9106,,,,,,,,,,,,,,,,,,,,,,60fe4482b0994eea74bfd910,610377a95586e6728cc99516,2021-07-29_21h08.48.635,Simcolourproject_2stim_asymm_v5,2020.2.10,Linux x86_64,60,61025ae37ef11b136ea224fe,,,,,,,,,3319,142.3375244,-47.72271729,1,0,0,response3disk,,5,13.20050049,6.703063965,1,0,0,rectangle,13.20050049,6.703063965,1,0,0,13.20050049,6.703063965,1,0,0,0,41,41,56,1,,,,,,,,
,,,,,,,,,,,,,FF,,,,,,,,0.9493,,,,,,,,,,,,,,,,,,,,,,60fe4482b0994eea74bfd910,610377a95586e6728cc99516,2021-07-29_21h08.48.635,Simcolourproject_2stim_asymm_v5,2020.2.10,Linux x86_64,60,61025ae37ef11b136ea224fe,,,,,,,,,616,49.25744629,-63.16418457,1,0,0,response3disk,,4,18.76904297,13.42138672,1,0,0,rectangle,18.76904297,13.42138672,1,0,0,18.76904297,13.42138672,1,0,0,0,42,42,140,1,,,,,,,,
,,,,,,,,,,,,,FF,,,,,,,,0.8136,,,,,,,,,,,,,,,,,,,,,,60fe4482b0994eea74bfd910,610377a95586e6728cc99516,2021-07-29_21h08.48.635,Simcolourproject_2stim_asymm_v5,2020.2.10,Linux x86_64,60,61025ae37ef11b136ea224fe,,,,,,,,,136,-112.19104,-44.29162598,1,0,0,response5disk,,2,14.92407227,-4.031005859,1,0,0,rectangle,14.92407227,-4.031005859,1,0,0,14.92407227,-4.031005859,1,0,0,0,43,43,45,1,,,,,,,,
,,,,,,,,,,,,,FF,,,,,,,,0.8047,,,,,,,,,,,,,,,,,,,,,,60fe4482b0994eea74bfd910,610377a95586e6728cc99516,2021-07-29_21h08.48.635,Simcolourproject_2stim_asymm_v5,2020.2.10,Linux x86_64,60,61025ae37ef11b136ea224fe,,,,,,,,,1993,-61.54364014,-99.60894775,1,0,0,response5disk,,3,26.63293457,2.319641113,1,0,0,rectangle,26.63293457,2.319641113,1,0,0,26.63293457,2.319641113,1,0,0,0,44,44,85,1,,,,,,,,
,,,,,,,,,,,,,FF,,,,,,,,1.0238,,,,,,,,,,,,,,,,,,,,,,60fe4482b0994eea74bfd910,610377a95586e6728cc99516,2021-07-29_21h08.48.635,Simcolourproject_2stim_asymm_v5,2020.2.10,Linux x86_64,60,61025ae37ef11b136ea224fe,,,,,,,,,2001,-97.38500977,97.10574341,1,0,0,response7disk,,1,11.85375977,6.143005371,1,0,0,rectangle,-30.51397705,77.53253174,1,0,0,0.313415527,15.87634277,1,0,0,0,45,45,150,1,,response7disk_3,TRUE,0,6,"[314,46,50,206,81,297,200,318,50,274,224,259,221,163,186,260,215,177,191,165]",1.1973,rectangle
,,,,,,,,,,,,,FF,,,,,,,,1.4544,,,,,,,,,,,,,,,,,,,,,,60fe4482b0994eea74bfd910,610377a95586e6728cc99516,2021-07-29_21h08.48.635,Simcolourproject_2stim_asymm_v5,2020.2.10,Linux x86_64,60,61025ae37ef11b136ea224fe,,,,,,,,,366,96.11303711,123.5185852,1,0,0,response1disk,,7,5.642089844,12.23583984,1,0,0,rectangle,5.642089844,12.23583984,1,0,0,5.642089844,12.23583984,1,0,0,0,46,46,50,1,,,,,,,,
,,,,,,,,,,,,,FF,,,,,,,,1.0986,,,,,,,,,,,,,,,,,,,,,,60fe4482b0994eea74bfd910,610377a95586e6728cc99516,2021-07-29_21h08.48.635,Simcolourproject_2stim_asymm_v5,2020.2.10,Linux x86_64,60,61025ae37ef11b136ea224fe,,,,,,,,,18,-54.0402832,122.2400513,1,0,0,response7disk,,0,-11.73937988,16.76690674,1,0,0,rectangle,-11.73937988,16.76690674,1,0,0,-11.73937988,16.76690674,1,0,0,0,47,47,141,1,,,,,,,,
,,,,,,,,,,,,,FF,,,,,,,,0.9668,,,,,,,,,,,,,,,,,,,,,,60fe4482b0994eea74bfd910,610377a95586e6728cc99516,2021-07-29_21h08.48.635,Simcolourproject_2stim_asymm_v5,2020.2.10,Linux x86_64,60,61025ae37ef11b136ea224fe,,,,,,,,,2774,-64.07177734,155.8239746,1,0,0,response7disk,,0,2.44732666,9.533447266,1,0,0,rectangle,2.44732666,9.533447266,1,0,0,2.44732666,9.533447266,1,0,0,0,48,48,10,1,,,,,,,,
,,,,,,,,,,,,,FF,,,,,,,,2.1105,,,,,,,,,,,,,,,,,,,,,,60fe4482b0994eea74bfd910,610377a95586e6728cc99516,2021-07-29_21h08.48.635,Simcolourproject_2stim_asymm_v5,2020.2.10,Linux x86_64,60,61025ae37ef11b136ea224fe,,,,,,,,,2536,139.9909668,46.60693359,1,0,0,response1disk,,6,-11.27655029,-5.906311035,1,0,0,rectangle,-52.3125,113.8476563,1,0,0,33.27954102,-2.77545166,1,0,0,0,49,49,28,1,,response7disk_3,TRUE,0,0,"[314,46,50,206,81,297,200,318,50,274,224,259,221,163,186,260,215,177,191,165]",0.906,rectangle
,,,,,,,,,,,,,FF,,,,,,,,1.4437,,,,,,,,,,,,,,,,,,,,,,60fe4482b0994eea74bfd910,610377a95586e6728cc99516,2021-07-29_21h08.48.635,Simcolourproject_2stim_asymm_v5,2020.2.10,Linux x86_64,60,61025ae37ef11b136ea224fe,,,,,,,,,166,-42.13378906,43.62927246,1,0,0,response7disk,,0,-8.787780762,10.8338623,1,0,0,rectangle,-8.787780762,10.8338623,1,0,0,-8.787780762,10.8338623,1,0,0,0,50,50,19,1,,,,,,,,
,,,,,,,,,,,,,FF,,,,,,,,0.8056,,,,,,,,,,,,,,,,,,,,,,60fe4482b0994eea74bfd910,610377a95586e6728cc99516,2021-07-29_21h08.48.635,Simcolourproject_2stim_asymm_v5,2020.2.10,Linux x86_64,60,61025ae37ef11b136ea224fe,,,,,,,,,3761,-51.36340332,100.7046204,1,0,0,response7disk,,0,-8.897644043,13.95654297,1,0,0,rectangle,-8.897644043,13.95654297,1,0,0,-8.897644043,13.95654297,1,0,0,0,51,51,29,1,,,,,,,,
,,,,,,,,,,,,,FF,,,,,,,,1.3958,,,,,,,,,,,,,,,,,,,,,,60fe4482b0994eea74bfd910,610377a95586e6728cc99516,2021-07-29_21h08.48.635,Simcolourproject_2stim_asymm_v5,2020.2.10,Linux x86_64,60,61025ae37ef11b136ea224fe,,,,,,,,,1522,-55.17230225,147.8711243,1,0,0,response7disk,,0,12.03747559,-1.057434082,1,0,0,rectangle,12.03747559,-1.057434082,1,0,0,12.03747559,-1.057434082,1,0,0,0,52,52,88,1,,,,,,,,
,,,,,,,,,,,,,FF,,,,,,,,1.0095,,,,,,,,,,,,,,,,,,,,,,60fe4482b0994eea74bfd910,610377a95586e6728cc99516,2021-07-29_21h08.48.635,Simcolourproject_2stim_asymm_v5,2020.2.10,Linux x86_64,60,61025ae37ef11b136ea224fe,,,,,,,,,2974,-39.41711426,92.05474854,1,0,0,response7disk,,0,-19.01965332,2.897277832,1,0,0,rectangle,-19.01965332,2.897277832,1,0,0,-19.01965332,2.897277832,1,0,0,0,53,53,154,1,,,,,,,,
,,,,,,,,,,,,,FF,,,,,,,,0.5567,,,,,,,,,,,,,,,,,,,,,,60fe4482b0994eea74bfd910,610377a95586e6728cc99516,2021-07-29_21h08.48.635,Simcolourproject_2stim_asymm_v5,2020.2.10,Linux x86_64,60,61025ae37ef11b136ea224fe,,,,,,,,,1111,-69.05682373,135.458374,1,0,0,response7disk,,0,10.11804199,-10.77038574,1,0,0,rectangle,10.11804199,-10.77038574,1,0,0,10.11804199,-10.77038574,1,0,0,0,54,54,64,1,,,,,,,,
,,,,,,,,,,,,,FF,,,,,,,,0.7122,,,,,,,,,,,,,,,,,,,,,,60fe4482b0994eea74bfd910,610377a95586e6728cc99516,2021-07-29_21h08.48.635,Simcolourproject_2stim_asymm_v5,2020.2.10,Linux x86_64,60,61025ae37ef11b136ea224fe,,,,,,,,,3718,-76.48822021,105.9444885,1,0,0,response7disk,,0,-16.03289795,-20.8180542,1,0,0,rectangle,-16.03289795,-20.8180542,1,0,0,-16.03289795,-20.8180542,1,0,0,0,55,55,69,1,,,,,,,,
,,,,,,,,,,,,,FF,,,,,,,,1.9039,,,,,,,,,,,,,,,,,,,,,,60fe4482b0994eea74bfd910,610377a95586e6728cc99516,2021-07-29_21h08.48.635,Simcolourproject_2stim_asymm_v5,2020.2.10,Linux x86_64,60,61025ae37ef11b136ea224fe,,,,,,,,,1690,130.6175537,-95.36883545,1,0,0,response3disk,,5,15.52331543,10.21893311,1,0,0,rectangle,15.52331543,10.21893311,1,0,0,15.52331543,10.21893311,1,0,0,0,56,56,157,1,,,,,,,,
,,,,,,,,,,,,,FF,,,,,,,,0.7679,,,,,,,,,,,,,,,,,,,,,,60fe4482b0994eea74bfd910,610377a95586e6728cc99516,2021-07-29_21h08.48.635,Simcolourproject_2stim_asymm_v5,2020.2.10,Linux x86_64,60,61025ae37ef11b136ea224fe,,,,,,,,,84,-71.28302002,111.3806152,1,0,0,response7disk,,0,-27.51153564,10.6973877,1,0,0,rectangle,-27.51153564,10.6973877,1,0,0,-27.51153564,10.6973877,1,0,0,0,57,57,132,1,,,,,,,,
,,,,,,,,,,,,,FF,,,,,,,,0.6319,,,,,,,,,,,,,,,,,,,,,,60fe4482b0994eea74bfd910,610377a95586e6728cc99516,2021-07-29_21h08.48.635,Simcolourproject_2stim_asymm_v5,2020.2.10,Linux x86_64,60,61025ae37ef11b136ea224fe,,,,,,,,,3987,-68.77337646,102.7052002,1,0,0,response7disk,,0,-13.22485352,2.23046875,1,0,0,rectangle,-13.22485352,2.23046875,1,0,0,-13.22485352,2.23046875,1,0,0,0,58,58,71,1,,,,,,,,
,,,,,,,,,,,,,FF,,,,,,,,0.6699,,,,,,,,,,,,,,,,,,,,,,60fe4482b0994eea74bfd910,610377a95586e6728cc99516,2021-07-29_21h08.48.635,Simcolourproject_2stim_asymm_v5,2020.2.10,Linux x86_64,60,61025ae37ef11b136ea224fe,,,,,,,,,1998,-55.19213867,105.4342346,1,0,0,response7disk,,0,-14.98181152,-15.9185791,1,0,0,rectangle,-14.98181152,-15.9185791,1,0,0,-14.98181152,-15.9185791,1,0,0,0,59,59,119,1,,,,,,,,
,,,,,,,,,,,,,FF,,,,,,,,0.7221,,,,,,,,,,,,,,,,,,,,,,60fe4482b0994eea74bfd910,610377a95586e6728cc99516,2021-07-29_21h08.48.635,Simcolourproject_2stim_asymm_v5,2020.2.10,Linux x86_64,60,61025ae37ef11b136ea224fe,,,,,,,,,538,-40.99468994,104.2495117,1,0,0,response7disk,,0,-14.17608643,-2.486755371,1,0,0,rectangle,-14.17608643,-2.486755371,1,0,0,-14.17608643,-2.486755371,1,0,0,0,60,60,77,1,,,,,,,,
,,,,,,,,,,,,,FF,,,,,,,,1.6393,,,,,,,,,,,,,,,,,,,,,,60fe4482b0994eea74bfd910,610377a95586e6728cc99516,2021-07-29_21h08.48.635,Simcolourproject_2stim_asymm_v5,2020.2.10,Linux x86_64,60,61025ae37ef11b136ea224fe,,,,,,,,,1949,58.3326416,-113.7900391,1,0,0,response3disk,,4,9.349914551,7.612548828,1,0,0,rectangle,9.349914551,7.612548828,1,0,0,9.349914551,7.612548828,1,0,0,0,61,61,21,1,,,,,,,,
,,,,,,,,,,,,,FF,,,,,,,,0.791,,,,,,,,,,,,,,,,,,,,,,60fe4482b0994eea74bfd910,610377a95586e6728cc99516,2021-07-29_21h08.48.635,Simcolourproject_2stim_asymm_v5,2020.2.10,Linux x86_64,60,61025ae37ef11b136ea224fe,,,,,,,,,1622,-39.09759521,89.77059937,1,0,0,response7disk,,0,2.779663086,-8.347229004,1,0,0,rectangle,2.779663086,-8.347229004,1,0,0,2.779663086,-8.347229004,1,0,0,0,62,62,136,1,,,,,,,,
,,,,,,,,,,,,,FF,,,,,,,,1.3545,,,,,,,,,,,,,,,,,,,,,,60fe4482b0994eea74bfd910,610377a95586e6728cc99516,2021-07-29_21h08.48.635,Simcolourproject_2stim_asymm_v5,2020.2.10,Linux x86_64,60,61025ae37ef11b136ea224fe,,,,,,,,,3162,-66.07299805,-93.51715088,1,0,0,response5disk,,3,1.291137695,9.568969727,1,0,0,rectangle,1.291137695,9.568969727,1,0,0,1.291137695,9.568969727,1,0,0,0,63,63,25,1,,,,,,,,
,,,,,,,,,,,,,FF,,,,,,,,0.8083,,,,,,,,,,,,,,,,,,,,,,60fe4482b0994eea74bfd910,610377a95586e6728cc99516,2021-07-29_21h08.48.635,Simcolourproject_2stim_asymm_v5,2020.2.10,Linux x86_64,60,61025ae37ef11b136ea224fe,,,,,,,,,183,-36.32678223,84.68496704,1,0,0,response7disk,,0,-13.43841553,-4.48828125,1,0,0,rectangle,-13.43841553,-4.48828125,1,0,0,-13.43841553,-4.48828125,1,0,0,0,64,64,75,1,,,,,,,,
,,,,,,,,,,,,,FF,,,,,,,,0.6861,,,,,,,,,,,,,,,,,,,,,,60fe4482b0994eea74bfd910,610377a95586e6728cc99516,2021-07-29_21h08.48.635,Simcolourproject_2stim_asymm_v5,2020.2.10,Linux x86_64,60,61025ae37ef11b136ea224fe,,,,,,,,,2659,-58.29553223,161.8267822,1,0,0,response7disk,,0,-10.36621094,-12.74902344,1,0,0,rectangle,-10.36621094,-12.74902344,1,0,0,-10.36621094,-12.74902344,1,0,0,0,65,65,43,1,,,,,,,,
,,,,,,,,,,,,,FF,,,,,,,,1.2696,,,,,,,,,,,,,,,,,,,,,,60fe4482b0994eea74bfd910,610377a95586e6728cc99516,2021-07-29_21h08.48.635,Simcolourproject_2stim_asymm_v5,2020.2.10,Linux x86_64,60,61025ae37ef11b136ea224fe,,,,,,,,,1954,-79.1640625,106.4079285,1,0,0,response7disk,,0,-32.37213135,7.448608398,1,0,0,rectangle,-32.37213135,7.448608398,1,0,0,-32.37213135,7.448608398,1,0,0,0,66,66,20,1,,,,,,,,
,,,,,,,,,,,,,FF,,,,,,,,0.6925,,,,,,,,,,,,,,,,,,,,,,60fe4482b0994eea74bfd910,610377a95586e6728cc99516,2021-07-29_21h08.48.635,Simcolourproject_2stim_asymm_v5,2020.2.10,Linux x86_64,60,61025ae37ef11b136ea224fe,,,,,,,,,3921,-83.84509277,50.91012573,1,0,0,response7disk,,1,-33.71356201,13.57342529,1,0,0,rectangle,-33.71356201,13.57342529,1,0,0,-33.71356201,13.57342529,1,0,0,0,67,67,87,1,,,,,,,,
,,,,,,,,,,,,,FF,,,,,,,,0.9523,,,,,,,,,,,,,,,,,,,,,,60fe4482b0994eea74bfd910,610377a95586e6728cc99516,2021-07-29_21h08.48.635,Simcolourproject_2stim_asymm_v5,2020.2.10,Linux x86_64,60,61025ae37ef11b136ea224fe,,,,,,,,,4098,-98.02813721,-35.01202393,1,0,0,response5disk,,2,-26.14196777,-3.628051758,1,0,0,rectangle,-26.14196777,-3.628051758,1,0,0,-26.14196777,-3.628051758,1,0,0,0,68,68,12,1,,,,,,,,
,,,,,,,,,,,,,FF,,,,,,,,0.4054,,,,,,,,,,,,,,,,,,,,,,60fe4482b0994eea74bfd910,610377a95586e6728cc99516,2021-07-29_21h08.48.635,Simcolourproject_2stim_asymm_v5,2020.2.10,Linux x86_64,60,61025ae37ef11b136ea224fe,,,,,,,,,2276,-82.5892334,-85.06970215,1,0,0,response5disk,,3,-13.36676025,-12.43896484,1,0,0,rectangle,-13.36676025,-12.43896484,1,0,0,-13.36676025,-12.43896484,1,0,0,0,69,69,14,1,,,,,,,,
,,,,,,,,,,,,,FF,,,,,,,,0.3727,,,,,,,,,,,,,,,,,,,,,,60fe4482b0994eea74bfd910,610377a95586e6728cc99516,2021-07-29_21h08.48.635,Simcolourproject_2stim_asymm_v5,2020.2.10,Linux x86_64,60,61025ae37ef11b136ea224fe,,,,,,,,,2597,34.11968994,-104.0461426,1,0,0,response3disk,,4,1.988220215,17.52911377,1,0,0,rectangle,1.988220215,17.52911377,1,0,0,1.988220215,17.52911377,1,0,0,0,70,70,95,1,,,,,,,,
,,,,,,,,,,,,,FF,,,,,,,,1.3674,,,,,,,,,,,,,,,,,,,,,,60fe4482b0994eea74bfd910,610377a95586e6728cc99516,2021-07-29_21h08.48.635,Simcolourproject_2stim_asymm_v5,2020.2.10,Linux x86_64,60,61025ae37ef11b136ea224fe,,,,,,,,,3357,-117.2250977,-90.61816406,1,0,0,response5disk,,2,-7.33972168,9.928710938,1,0,0,rectangle,-7.33972168,9.928710938,1,0,0,-7.33972168,9.928710938,1,0,0,0,71,71,158,1,,,,,,,,
,,,,,,,,,,,,,FF,,,,,,,,0.6374,,,,,,,,,,,,,,,,,,,,,,60fe4482b0994eea74bfd910,610377a95586e6728cc99516,2021-07-29_21h08.48.635,Simcolourproject_2stim_asymm_v5,2020.2.10,Linux x86_64,60,61025ae37ef11b136ea224fe,,,,,,,,,569,-58.40893555,25.31604004,1,0,0,response7disk,,1,-27.65771484,0.518554688,1,0,0,rectangle,-27.65771484,0.518554688,1,0,0,-27.65771484,0.518554688,1,0,0,0,72,72,96,1,,,,,,,,
,,,,,,,,,,,,,FF,,,,,,,,1.0317,,,,,,,,,,,,,,,,,,,,,,60fe4482b0994eea74bfd910,610377a95586e6728cc99516,2021-07-29_21h08.48.635,Simcolourproject_2stim_asymm_v5,2020.2.10,Linux x86_64,60,61025ae37ef11b136ea224fe,,,,,,,,,2492,-77.23974609,-154.2883911,1,0,0,response5disk,,3,12.72186279,13.32818604,1,0,0,rectangle,12.72186279,13.32818604,1,0,0,12.72186279,13.32818604,1,0,0,0,73,73,100,1,,,,,,,,
,,,,,,,,,,,,,FF,,,,,,,,1.3932,,,,,,,,,,,,,,,,,,,,,,60fe4482b0994eea74bfd910,610377a95586e6728cc99516,2021-07-29_21h08.48.635,Simcolourproject_2stim_asymm_v5,2020.2.10,Linux x86_64,60,61025ae37ef11b136ea224fe,,,,,,,,,2852,-71.07507324,103.0726013,1,0,0,response7disk,,0,-18.42120361,-14.26409912,1,0,0,rectangle,-18.42120361,-14.26409912,1,0,0,-18.42120361,-14.26409912,1,0,0,0,74,74,15,1,,,,,,,,
,,,,,,,,,,,,,FF,,,,,,,,1.3363,,,,,,,,,,,,,,,,,,,,,,60fe4482b0994eea74bfd910,610377a95586e6728cc99516,2021-07-29_21h08.48.635,Simcolourproject_2stim_asymm_v5,2020.2.10,Linux x86_64,60,61025ae37ef11b136ea224fe,,,,,,,,,4046,81.32287598,156.0498047,1,0,0,response1disk,,7,-5.479858398,4.605773926,1,0,0,rectangle,-5.479858398,4.605773926,1,0,0,-5.479858398,4.605773926,1,0,0,0,75,75,47,1,,,,,,,,
,,,,,,,,,,,,,FF,,,,,,,,0.849,,,,,,,,,,,,,,,,,,,,,,60fe4482b0994eea74bfd910,610377a95586e6728cc99516,2021-07-29_21h08.48.635,Simcolourproject_2stim_asymm_v5,2020.2.10,Linux x86_64,60,61025ae37ef11b136ea224fe,,,,,,,,,1937,-112.6654663,30.89306641,1,0,0,response7disk,,1,-23.9932251,-13.33422852,1,0,0,rectangle,-23.9932251,-13.33422852,1,0,0,-23.9932251,-13.33422852,1,0,0,0,76,76,33,1,,,,,,,,
,,,,,,,,,,,,,FF,,,,,,,,1.2141,,,,,,,,,,,,,,,,,,,,,,60fe4482b0994eea74bfd910,610377a95586e6728cc99516,2021-07-29_21h08.48.635,Simcolourproject_2stim_asymm_v5,2020.2.10,Linux x86_64,60,61025ae37ef11b136ea224fe,,,,,,,,,800,-50.14648438,129.7382813,1,0,0,response7disk,,0,-18.58917236,7.270690918,1,0,0,rectangle,-18.58917236,7.270690918,1,0,0,-18.58917236,7.270690918,1,0,0,0,77,77,104,1,,,,,,,,
,,,,,,,,,,,,,FF,,,,,,,,0.7084,,,,,,,,,,,,,,,,,,,,,,60fe4482b0994eea74bfd910,610377a95586e6728cc99516,2021-07-29_21h08.48.635,Simcolourproject_2stim_asymm_v5,2020.2.10,Linux x86_64,60,61025ae37ef11b136ea224fe,,,,,,,,,2741,-47.61663818,94.73519897,1,0,0,response7disk,,0,-17.74517822,5.305297852,1,0,0,rectangle,-17.74517822,5.305297852,1,0,0,-17.74517822,5.305297852,1,0,0,0,78,78,143,1,,,,,,,,
,,,,,,,,,,,,,FF,,,,,,,,4.9423,,,,,,,,,,,,,,,,,,,,,,60fe4482b0994eea74bfd910,610377a95586e6728cc99516,2021-07-29_21h08.48.635,Simcolourproject_2stim_asymm_v5,2020.2.10,Linux x86_64,60,61025ae37ef11b136ea224fe,,,,,,,,,3538,68.99389648,-144.7683105,1,0,0,response3disk,,4,-1.40802002,-10.40081787,1,0,0,rectangle,-1.40802002,-10.40081787,1,0,0,-1.40802002,-10.40081787,1,0,0,0,79,79,48,1,,,,,,,,
,,,,,,,,,,,,,FF,,,,,,,,0.6742,,,,,,,,,,,,,,,,,,,,,,60fe4482b0994eea74bfd910,610377a95586e6728cc99516,2021-07-29_21h08.48.635,Simcolourproject_2stim_asymm_v5,2020.2.10,Linux x86_64,60,61025ae37ef11b136ea224fe,,,,,,,,,3580,-36.32739258,102.0406189,1,0,0,response7disk,,0,18.30450439,-9.838623047,1,0,0,rectangle,-116.303894,35.13796997,1,0,0,12.67236328,-8.714172363,1,0,0,0,80,80,90,1,,response7disk_3,TRUE,1,1,"[314,46,50,206,81,297,200,318,50,274,224,259,221,163,186,260,215,177,191,165]",3.3089,rectangle
,,,,,,,,,,,,,FF,,,,,,,,1.455,,,,,,,,,,,,,,,,,,,,,,60fe4482b0994eea74bfd910,610377a95586e6728cc99516,2021-07-29_21h08.48.635,Simcolourproject_2stim_asymm_v5,2020.2.10,Linux x86_64,60,61025ae37ef11b136ea224fe,,,,,,,,,968,49.28131104,134.6486511,1,0,0,response1disk,,7,-16.61486816,-12.6496582,1,0,0,rectangle,-16.61486816,-12.6496582,1,0,0,-16.61486816,-12.6496582,1,0,0,0,81,81,63,1,,,,,,,,
,,,,,,,,,,,,,FF,,,,,,,,0.7346,,,,,,,,,,,,,,,,,,,,,,60fe4482b0994eea74bfd910,610377a95586e6728cc99516,2021-07-29_21h08.48.635,Simcolourproject_2stim_asymm_v5,2020.2.10,Linux x86_64,60,61025ae37ef11b136ea224fe,,,,,,,,,1654,-52.09741211,104.8516541,1,0,0,response7disk,,0,20.55737305,-13.77404785,1,0,0,rectangle,20.55737305,-13.77404785,1,0,0,20.55737305,-13.77404785,1,0,0,0,82,82,108,1,,,,,,,,
,,,,,,,,,,,,,FF,,,,,,,,1.1701,,,,,,,,,,,,,,,,,,,,,,60fe4482b0994eea74bfd910,610377a95586e6728cc99516,2021-07-29_21h08.48.635,Simcolourproject_2stim_asymm_v5,2020.2.10,Linux x86_64,60,61025ae37ef11b136ea224fe,,,,,,,,,714,-66.7409668,104.8516541,1,0,0,response7disk,,0,5.913757324,-9.276367188,1,0,0,rectangle,5.913757324,-9.276367188,1,0,0,5.913757324,-9.276367188,1,0,0,0,83,83,156,1,,,,,,,,
,,,,,,,,,,,,,FF,,,,,,,,0.746,,,,,,,,,,,,,,,,,,,,,,60fe4482b0994eea74bfd910,610377a95586e6728cc99516,2021-07-29_21h08.48.635,Simcolourproject_2stim_asymm_v5,2020.2.10,Linux x86_64,60,61025ae37ef11b136ea224fe,,,,,,,,,1058,39.14343262,-162.7589722,1,0,0,response3disk,,4,33.5112915,0.28112793,1,0,0,rectangle,33.5112915,0.28112793,1,0,0,33.5112915,0.28112793,1,0,0,0,84,84,44,1,,,,,,,,
,,,,,,,,,,,,,FF,,,,,,,,0.5569,,,,,,,,,,,,,,,,,,,,,,60fe4482b0994eea74bfd910,610377a95586e6728cc99516,2021-07-29_21h08.48.635,Simcolourproject_2stim_asymm_v5,2020.2.10,Linux x86_64,60,61025ae37ef11b136ea224fe,,,,,,,,,2011,-47.02844238,103.1650391,1,0,0,response7disk,,0,25.06304932,-13.77404785,1,0,0,rectangle,25.06304932,-13.77404785,1,0,0,25.06304932,-13.77404785,1,0,0,0,85,85,5,1,,,,,,,,
,,,,,,,,,,,,,FF,,,,,,,,1.101,,,,,,,,,,,,,,,,,,,,,,60fe4482b0994eea74bfd910,610377a95586e6728cc99516,2021-07-29_21h08.48.635,Simcolourproject_2stim_asymm_v5,2020.2.10,Linux x86_64,60,61025ae37ef11b136ea224fe,,,,,,,,,3512,123.6257324,-65.49713135,1,0,0,response3disk,,5,-19.4309082,8.714233398,1,0,0,rectangle,-19.4309082,8.714233398,1,0,0,-19.4309082,8.714233398,1,0,0,0,86,86,116,1,,,,,,,,
,,,,,,,,,,,,,FF,,,,,,,,0.9091,,,,,,,,,,,,,,,,,,,,,,60fe4482b0994eea74bfd910,610377a95586e6728cc99516,2021-07-29_21h08.48.635,Simcolourproject_2stim_asymm_v5,2020.2.10,Linux x86_64,60,61025ae37ef11b136ea224fe,,,,,,,,,2951,54.91345215,-134.0863647,1,0,0,response3disk,,4,34.63769531,-12.6496582,1,0,0,rectangle,34.63769531,-12.6496582,1,0,0,34.63769531,-12.6496582,1,0,0,0,87,87,9,1,,,,,,,,
,,,,,,,,,,,,,FF,,,,,,,,1.526,,,,,,,,,,,,,,,,,,,,,,60fe4482b0994eea74bfd910,610377a95586e6728cc99516,2021-07-29_21h08.48.635,Simcolourproject_2stim_asymm_v5,2020.2.10,Linux x86_64,60,61025ae37ef11b136ea224fe,,,,,,,,,3054,61.67205811,-141.9572754,1,0,0,response3disk,,4,17.17803955,-12.08746338,1,0,0,rectangle,17.17803955,-12.08746338,1,0,0,17.17803955,-12.08746338,1,0,0,0,88,88,122,1,,,,,,,,
,,,,,,,,,,,,,FF,,,,,,,,0.6085,,,,,,,,,,,,,,,,,,,,,,60fe4482b0994eea74bfd910,610377a95586e6728cc99516,2021-07-29_21h08.48.635,Simcolourproject_2stim_asymm_v5,2020.2.10,Linux x86_64,60,61025ae37ef11b136ea224fe,,,,,,,,,3137,-71.80993652,95.29412842,1,0,0,response7disk,,0,26.75268555,-7.027587891,1,0,0,rectangle,26.75268555,-7.027587891,1,0,0,26.75268555,-7.027587891,1,0,0,0,89,89,80,1,,,,,,,,
,,,,,,,,,,,,,FF,,,,,,,,0.6773,,,,,,,,,,,,,,,,,,,,,,60fe4482b0994eea74bfd910,610377a95586e6728cc99516,2021-07-29_21h08.48.635,Simcolourproject_2stim_asymm_v5,2020.2.10,Linux x86_64,60,61025ae37ef11b136ea224fe,,,,,,,,,488,-71.80993652,114.9713745,1,0,0,response7disk,,0,18.86767578,-14.89849854,1,0,0,rectangle,18.86767578,-14.89849854,1,0,0,18.86767578,-14.89849854,1,0,0,0,90,90,79,1,,,,,,,,
,,,,,,,,,,,,,FF,,,,,,,,1.0505,,,,,,,,,,,,,,,,,,,,,,60fe4482b0994eea74bfd910,610377a95586e6728cc99516,2021-07-29_21h08.48.635,Simcolourproject_2stim_asymm_v5,2020.2.10,Linux x86_64,60,61025ae37ef11b136ea224fe,,,,,,,,,4237,52.6605835,122.2800903,1,0,0,response1disk,,7,-10.98266602,-13.21185303,1,0,0,rectangle,-10.98266602,-13.21185303,1,0,0,-10.98266602,-13.21185303,1,0,0,0,91,91,70,1,,,,,,,,
,,,,,,,,,,,,,FF,,,,,,,,0.7483,,,,,,,,,,,,,,,,,,,,,,60fe4482b0994eea74bfd910,610377a95586e6728cc99516,2021-07-29_21h08.48.635,Simcolourproject_2stim_asymm_v5,2020.2.10,Linux x86_64,60,61025ae37ef11b136ea224fe,,,,,,,,,3829,-65.05133057,127.9021606,1,0,0,response7disk,,0,4.224121094,-16.58508301,1,0,0,rectangle,4.224121094,-16.58508301,1,0,0,4.224121094,-16.58508301,1,0,0,0,92,92,151,1,,,,,,,,
,,,,,,,,,,,,,FF,,,,,,,,1.0277,,,,,,,,,,,,,,,,,,,,,,60fe4482b0994eea74bfd910,610377a95586e6728cc99516,2021-07-29_21h08.48.635,Simcolourproject_2stim_asymm_v5,2020.2.10,Linux x86_64,60,61025ae37ef11b136ea224fe,,,,,,,,,2580,-46.465271,120.03125,1,0,0,response7disk,,0,13.79876709,-13.77404785,1,0,0,rectangle,13.79876709,-13.77404785,1,0,0,13.79876709,-13.77404785,1,0,0,0,93,93,134,1,,,,,,,,
,,,,,,,,,,,,,FF,,,,,,,,0.9737,,,,,,,,,,,,,,,,,,,,,,60fe4482b0994eea74bfd910,610377a95586e6728cc99516,2021-07-29_21h08.48.635,Simcolourproject_2stim_asymm_v5,2020.2.10,Linux x86_64,60,61025ae37ef11b136ea224fe,,,,,,,,,983,-117.4303589,-95.29406738,1,0,0,response5disk,,2,19.4309082,-4.216552734,1,0,0,rectangle,19.4309082,-4.216552734,1,0,0,19.4309082,-4.216552734,1,0,0,0,94,94,7,1,,,,,,,,
,,,,,,,,,,,,,FF,,,,,,,,0.6625,,,,,,,,,,,,,,,,,,,,,,60fe4482b0994eea74bfd910,610377a95586e6728cc99516,2021-07-29_21h08.48.635,Simcolourproject_2stim_asymm_v5,2020.2.10,Linux x86_64,60,61025ae37ef11b136ea224fe,,,,,,,,,1783,-51.53417969,103.1650391,1,0,0,response7disk,,0,-8.729858398,-15.46069336,1,0,0,rectangle,-8.729858398,-15.46069336,1,0,0,-8.729858398,-15.46069336,1,0,0,0,95,95,39,1,,,,,,,,
,,,,,,,,,,,,,FF,,,,,,,,1.0579,,,,,,,,,,,,,,,,,,,,,,60fe4482b0994eea74bfd910,610377a95586e6728cc99516,2021-07-29_21h08.48.635,Simcolourproject_2stim_asymm_v5,2020.2.10,Linux x86_64,60,61025ae37ef11b136ea224fe,,,,,,,,,3433,70.68347168,97.54296875,1,0,0,response1disk,,7,4.224121094,-14.89849854,1,0,0,rectangle,4.224121094,-14.89849854,1,0,0,4.224121094,-14.89849854,1,0,0,0,96,96,84,1,,,,,,,,
,,,,,,,,,,,,,FF,,,,,,,,0.6822,,,,,,,,,,,,,,,,,,,,,,60fe4482b0994eea74bfd910,610377a95586e6728cc99516,2021-07-29_21h08.48.635,Simcolourproject_2stim_asymm_v5,2020.2.10,Linux x86_64,60,61025ae37ef11b136ea224fe,,,,,,,,,2689,-62.79846191,116.65802,1,0,0,response7disk,,0,2.534484863,-8.151977539,1,0,0,rectangle,2.534484863,-8.151977539,1,0,0,2.534484863,-8.151977539,1,0,0,0,97,97,149,1,,,,,,,,
,,,,,,,,,,,,,FF,,,,,,,,0.8624,,,,,,,,,,,,,,,,,,,,,,60fe4482b0994eea74bfd910,610377a95586e6728cc99516,2021-07-29_21h08.48.635,Simcolourproject_2stim_asymm_v5,2020.2.10,Linux x86_64,60,61025ae37ef11b136ea224fe,,,,,,,,,38,-72.93634033,109.9115295,1,0,0,response7disk,,0,17.17803955,-13.77404785,1,0,0,rectangle,17.17803955,-13.77404785,1,0,0,17.17803955,-13.77404785,1,0,0,0,98,98,133,1,,,,,,,,
,,,,,,,,,,,,,FF,,,,,,,,0.9781,,,,,,,,,,,,,,,,,,,,,,60fe4482b0994eea74bfd910,610377a95586e6728cc99516,2021-07-29_21h08.48.635,Simcolourproject_2stim_asymm_v5,2020.2.10,Linux x86_64,60,61025ae37ef11b136ea224fe,,,,,,,,,3483,-83.63745117,-162.7589722,1,0,0,response5disk,,3,22.24700928,-4.778747559,1,0,0,rectangle,22.24700928,-4.778747559,1,0,0,22.24700928,-4.778747559,1,0,0,0,99,99,31,1,,,,,,,,
,,,,,,,,,,,,,FF,,,,,,,,1.0574,,,,,,,,,,,,,,,,,,,,,,60fe4482b0994eea74bfd910,610377a95586e6728cc99516,2021-07-29_21h08.48.635,Simcolourproject_2stim_asymm_v5,2020.2.10,Linux x86_64,60,61025ae37ef11b136ea224fe,,,,,,,,,2158,47.02844238,-145.8927612,1,0,0,response3disk,,4,5.913757324,-10.9630127,1,0,0,rectangle,5.913757324,-10.9630127,1,0,0,5.913757324,-10.9630127,1,0,0,0,100,100,16,1,,,,,,,,
,,,,,,,,,,,,,FF,,,,,,,,0.6645,,,,,,,,,,,,,,,,,,,,,,60fe4482b0994eea74bfd910,610377a95586e6728cc99516,2021-07-29_21h08.48.635,Simcolourproject_2stim_asymm_v5,2020.2.10,Linux x86_64,60,61025ae37ef11b136ea224fe,,,,,,,,,1881,68.43066406,-123.9666748,1,0,0,response3disk,,4,5.350524902,0.28112793,1,0,0,rectangle,5.350524902,0.28112793,1,0,0,5.350524902,0.28112793,1,0,0,0,101,101,130,1,,,,,,,,
,,,,,,,,,,,,,FF,,,,,,,,0.606,,,,,,,,,,,,,,,,,,,,,,60fe4482b0994eea74bfd910,610377a95586e6728cc99516,2021-07-29_21h08.48.635,Simcolourproject_2stim_asymm_v5,2020.2.10,Linux x86_64,60,61025ae37ef11b136ea224fe,,,,,,,,,22,-67.86743164,101.4784241,1,0,0,response7disk,,0,-16.05163574,-8.151977539,1,0,0,rectangle,-16.05163574,-8.151977539,1,0,0,-16.05163574,-8.151977539,1,0,0,0,102,102,81,1,,,,,,,,
,,,,,,,,,,,,,FF,,,,,,,,0.5887,,,,,,,,,,,,,,,,,,,,,,60fe4482b0994eea74bfd910,610377a95586e6728cc99516,2021-07-29_21h08.48.635,Simcolourproject_2stim_asymm_v5,2020.2.10,Linux x86_64,60,61025ae37ef11b136ea224fe,,,,,,,,,3227,-78.56848145,112.1603394,1,0,0,response7disk,,0,10.41949463,-7.589782715,1,0,0,rectangle,10.41949463,-7.589782715,1,0,0,10.41949463,-7.589782715,1,0,0,0,103,103,113,1,,,,,,,,
,,,,,,,,,,,,,FF,,,,,,,,0.5861,,,,,,,,,,,,,,,,,,,,,,60fe4482b0994eea74bfd910,610377a95586e6728cc99516,2021-07-29_21h08.48.635,Simcolourproject_2stim_asymm_v5,2020.2.10,Linux x86_64,60,61025ae37ef11b136ea224fe,,,,,,,,,4080,-69.55706787,107.6626892,1,0,0,response7disk,,0,17.74127197,6.465393066,1,0,0,rectangle,17.74127197,6.465393066,1,0,0,17.74127197,6.465393066,1,0,0,0,104,104,65,1,,,,,,,,
,,,,,,,,,,,,,FF,,,,,,,,0.9162,,,,,,,,,,,,,,,,,,,,,,60fe4482b0994eea74bfd910,610377a95586e6728cc99516,2021-07-29_21h08.48.635,Simcolourproject_2stim_asymm_v5,2020.2.10,Linux x86_64,60,61025ae37ef11b136ea224fe,,,,,,,,,3802,-120.8096313,-66.621521,1,0,0,response5disk,,2,-3.660888672,-6.465332031,1,0,0,rectangle,-3.660888672,-6.465332031,1,0,0,-3.660888672,-6.465332031,1,0,0,0,105,105,124,1,,,,,,,,
,,,,,,,,,,,,,FF,,,,,,,,0.6237,,,,,,,,,,,,,,,,,,,,,,60fe4482b0994eea74bfd910,610377a95586e6728cc99516,2021-07-29_21h08.48.635,Simcolourproject_2stim_asymm_v5,2020.2.10,Linux x86_64,60,61025ae37ef11b136ea224fe,,,,,,,,,4002,-103.3499756,-60.43725586,1,0,0,response5disk,,2,-10.41949463,-1.405517578,1,0,0,rectangle,-10.41949463,-1.405517578,1,0,0,-10.41949463,-1.405517578,1,0,0,0,106,106,41,1,,,,,,,,
,,,,,,,,,,,,,FF,,,,,,,,1.4833,,,,,,,,,,,,,,,,,,,,,,60fe4482b0994eea74bfd910,610377a95586e6728cc99516,2021-07-29_21h08.48.635,Simcolourproject_2stim_asymm_v5,2020.2.10,Linux x86_64,60,61025ae37ef11b136ea224fe,,,,,,,,,3259,-44.77557373,-125.6532593,1,0,0,response5disk,,3,-1.971252441,-9.838623047,1,0,0,rectangle,-1.971252441,-9.838623047,1,0,0,-1.971252441,-9.838623047,1,0,0,0,107,107,147,1,,,,,,,,
,,,,,,,,,,,,,FF,,,,,,,,0.7734,,,,,,,,,,,,,,,,,,,,,,60fe4482b0994eea74bfd910,610377a95586e6728cc99516,2021-07-29_21h08.48.635,Simcolourproject_2stim_asymm_v5,2020.2.10,Linux x86_64,60,61025ae37ef11b136ea224fe,,,,,,,,,761,-120.8096313,-67.74597168,1,0,0,response5disk,,2,8.729858398,-7.589782715,1,0,0,rectangle,8.729858398,-7.589782715,1,0,0,8.729858398,-7.589782715,1,0,0,0,108,108,59,1,,,,,,,,
,,,,,,,,,,,,,FF,,,,,,,,0.8566,,,,,,,,,,,,,,,,,,,,,,60fe4482b0994eea74bfd910,610377a95586e6728cc99516,2021-07-29_21h08.48.635,Simcolourproject_2stim_asymm_v5,2020.2.10,Linux x86_64,60,61025ae37ef11b136ea224fe,,,,,,,,,2240,105.6027832,-68.3081665,1,0,0,response3disk,,5,9.293029785,13.21191406,1,0,0,rectangle,9.293029785,13.21191406,1,0,0,9.293029785,13.21191406,1,0,0,0,109,109,68,1,,,,,,,,
,,,,,,,,,,,,,FF,,,,,,,,0.6384,,,,,,,,,,,,,,,,,,,,,,60fe4482b0994eea74bfd910,610377a95586e6728cc99516,2021-07-29_21h08.48.635,Simcolourproject_2stim_asymm_v5,2020.2.10,Linux x86_64,60,61025ae37ef11b136ea224fe,,,,,,,,,2433,61.10882568,-142.5194702,1,0,0,response3disk,,4,9.856262207,-1.405517578,1,0,0,rectangle,9.856262207,-1.405517578,1,0,0,9.856262207,-1.405517578,1,0,0,0,110,110,109,1,,,,,,,,
,,,,,,,,,,,,,FF,,,,,,,,0.6874,,,,,,,,,,,,,,,,,,,,,,60fe4482b0994eea74bfd910,610377a95586e6728cc99516,2021-07-29_21h08.48.635,Simcolourproject_2stim_asymm_v5,2020.2.10,Linux x86_64,60,61025ae37ef11b136ea224fe,,,,,,,,,405,-58.85595703,130.1509705,1,0,0,response7disk,,0,1.971252441,3.092163086,1,0,0,rectangle,1.971252441,3.092163086,1,0,0,1.971252441,3.092163086,1,0,0,0,111,111,42,1,,,,,,,,
,,,,,,,,,,,,,FF,,,,,,,,1.1956,,,,,,,,,,,,,,,,,,,,,,60fe4482b0994eea74bfd910,610377a95586e6728cc99516,2021-07-29_21h08.48.635,Simcolourproject_2stim_asymm_v5,2020.2.10,Linux x86_64,60,61025ae37ef11b136ea224fe,,,,,,,,,91,-106.1660156,26.14263916,1,0,0,response7disk,,1,3.09765625,-10.40081787,1,0,0,rectangle,3.09765625,-10.40081787,1,0,0,3.09765625,-10.40081787,1,0,0,0,112,112,2,1,,,,,,,,
,,,,,,,,,,,,,FF,,,,,,,,0.8685,,,,,,,,,,,,,,,,,,,,,,60fe4482b0994eea74bfd910,610377a95586e6728cc99516,2021-07-29_21h08.48.635,Simcolourproject_2stim_asymm_v5,2020.2.10,Linux x86_64,60,61025ae37ef11b136ea224fe,,,,,,,,,3461,-61.67205811,123.40448,1,0,0,response7disk,,0,1.40802002,14.89849854,1,0,0,rectangle,1.40802002,14.89849854,1,0,0,1.40802002,14.89849854,1,0,0,0,113,113,57,1,,,,,,,,
,,,,,,,,,,,,,FF,,,,,,,,0.749,,,,,,,,,,,,,,,,,,,,,,60fe4482b0994eea74bfd910,610377a95586e6728cc99516,2021-07-29_21h08.48.635,Simcolourproject_2stim_asymm_v5,2020.2.10,Linux x86_64,60,61025ae37ef11b136ea224fe,,,,,,,,,929,-70.68347168,127.3399353,1,0,0,response7disk,,0,2.534484863,-3.654296875,1,0,0,rectangle,2.534484863,-3.654296875,1,0,0,2.534484863,-3.654296875,1,0,0,0,114,114,92,1,,,,,,,,
,,,,,,,,,,,,,FF,,,,,,,,0.6309,,,,,,,,,,,,,,,,,,,,,,60fe4482b0994eea74bfd910,610377a95586e6728cc99516,2021-07-29_21h08.48.635,Simcolourproject_2stim_asymm_v5,2020.2.10,Linux x86_64,60,61025ae37ef11b136ea224fe,,,,,,,,,3185,-66.17779541,107.6626892,1,0,0,response7disk,,0,21.68377686,-5.340942383,1,0,0,rectangle,21.68377686,-5.340942383,1,0,0,21.68377686,-5.340942383,1,0,0,0,115,115,11,1,,,,,,,,
,,,,,,,,,,,,,FF,,,,,,,,0.8387,,,,,,,,,,,,,,,,,,,,,,60fe4482b0994eea74bfd910,610377a95586e6728cc99516,2021-07-29_21h08.48.635,Simcolourproject_2stim_asymm_v5,2020.2.10,Linux x86_64,60,61025ae37ef11b136ea224fe,,,,,,,,,2630,-106.1660156,45.25769043,1,0,0,response7disk,,1,8.729858398,-15.46069336,1,0,0,rectangle,8.729858398,-15.46069336,1,0,0,8.729858398,-15.46069336,1,0,0,0,116,116,137,1,,,,,,,,
,,,,,,,,,,,,,FF,,,,,,,,0.632,,,,,,,,,,,,,,,,,,,,,,60fe4482b0994eea74bfd910,610377a95586e6728cc99516,2021-07-29_21h08.48.635,Simcolourproject_2stim_asymm_v5,2020.2.10,Linux x86_64,60,61025ae37ef11b136ea224fe,,,,,,,,,49,-101.0971069,25.58044434,1,0,0,response7disk,,1,-13.23553467,-13.21185303,1,0,0,rectangle,-13.23553467,-13.21185303,1,0,0,-13.23553467,-13.21185303,1,0,0,0,117,117,23,1,,,,,,,,
,,,,,,,,,,,,,FF,,,,,,,,9.6327,,,,,,,,,,,,,,,,,,,,,,60fe4482b0994eea74bfd910,610377a95586e6728cc99516,2021-07-29_21h08.48.635,Simcolourproject_2stim_asymm_v5,2020.2.10,Linux x86_64,60,61025ae37ef11b136ea224fe,,,,,,,,,2423,66.7409668,-117.7824097,1,0,0,response3disk,,4,14.9251709,-13.21185303,1,0,0,rectangle,14.9251709,-13.21185303,1,0,0,14.9251709,-13.21185303,1,0,0,0,118,118,152,1,,,,,,,,
,,,,,,,,,,,,,FF,,,,,,,,0.7867,,,,,,,,,,,,,,,,,,,,,,60fe4482b0994eea74bfd910,610377a95586e6728cc99516,2021-07-29_21h08.48.635,Simcolourproject_2stim_asymm_v5,2020.2.10,Linux x86_64,60,61025ae37ef11b136ea224fe,,,,,,,,,2392,-64.48809814,-134.6486206,1,0,0,response5disk,,3,4.787353516,-8.151977539,1,0,0,rectangle,4.787353516,-8.151977539,1,0,0,4.787353516,-8.151977539,1,0,0,0,119,119,78,1,,,,,,,,
,,,,,,,,,,,,,FF,,,,,,,,0.6333,,,,,,,,,,,,,,,,,,,,,,60fe4482b0994eea74bfd910,610377a95586e6728cc99516,2021-07-29_21h08.48.635,Simcolourproject_2stim_asymm_v5,2020.2.10,Linux x86_64,60,61025ae37ef11b136ea224fe,,,,,,,,,1065,58.85595703,-136.8973999,1,0,0,response3disk,,4,-3.09765625,5.903198242,1,0,0,rectangle,-3.09765625,5.903198242,1,0,0,-3.09765625,5.903198242,1,0,0,0,120,120,112,1,,,,,,,,
,,,,,,,,,,,,,FF,,,,,,,,1.084,,,,,,,,,,,,,,,,,,,,,,60fe4482b0994eea74bfd910,610377a95586e6728cc99516,2021-07-29_21h08.48.635,Simcolourproject_2stim_asymm_v5,2020.2.10,Linux x86_64,60,61025ae37ef11b136ea224fe,,,,,,,,,3935,65.61450195,117.7824097,1,0,0,response1disk,,7,8.166625977,10.96307373,1,0,0,rectangle,8.166625977,10.96307373,1,0,0,8.166625977,10.96307373,1,0,0,0,121,121,8,1,,,,,,,,
,,,,,,,,,,,,,FF,,,,,,,,0.6623,,,,,,,,,,,,,,,,,,,,,,60fe4482b0994eea74bfd910,610377a95586e6728cc99516,2021-07-29_21h08.48.635,Simcolourproject_2stim_asymm_v5,2020.2.10,Linux x86_64,60,61025ae37ef11b136ea224fe,,,,,,,,,1817,58.29272461,126.2155151,1,0,0,response1disk,,7,4.224121094,-11.52520752,1,0,0,rectangle,4.224121094,-11.52520752,1,0,0,4.224121094,-11.52520752,1,0,0,0,122,122,82,1,,,,,,,,
,,,,,,,,,,,,,FF,,,,,,,,0.6454,,,,,,,,,,,,,,,,,,,,,,60fe4482b0994eea74bfd910,610377a95586e6728cc99516,2021-07-29_21h08.48.635,Simcolourproject_2stim_asymm_v5,2020.2.10,Linux x86_64,60,61025ae37ef11b136ea224fe,,,,,,,,,2933,133.2003174,40.76004028,1,0,0,response1disk,,6,18.86767578,-0.843261719,1,0,0,rectangle,18.86767578,-0.843261719,1,0,0,18.86767578,-0.843261719,1,0,0,0,123,123,0,1,,,,,,,,
,,,,,,,,,,,,,FF,,,,,,,,0.7208,,,,,,,,,,,,,,,,,,,,,,60fe4482b0994eea74bfd910,610377a95586e6728cc99516,2021-07-29_21h08.48.635,Simcolourproject_2stim_asymm_v5,2020.2.10,Linux x86_64,60,61025ae37ef11b136ea224fe,,,,,,,,,4213,-59.41918945,106.538269,1,0,0,response7disk,,0,1.40802002,-0.281066895,1,0,0,rectangle,1.40802002,-0.281066895,1,0,0,1.40802002,-0.281066895,1,0,0,0,124,124,17,1,,,,,,,,
,,,,,,,,,,,,,FF,,,,,,,,0.7181,,,,,,,,,,,,,,,,,,,,,,60fe4482b0994eea74bfd910,610377a95586e6728cc99516,2021-07-29_21h08.48.635,Simcolourproject_2stim_asymm_v5,2020.2.10,Linux x86_64,60,61025ae37ef11b136ea224fe,,,,,,,,,2663,117.9935303,44.13327026,1,0,0,response1disk,,6,-2.534484863,-7.027587891,1,0,0,rectangle,-2.534484863,-7.027587891,1,0,0,-2.534484863,-7.027587891,1,0,0,0,125,125,146,1,,,,,,,,
,,,,,,,,,,,,,FF,,,,,,,,1.1209,,,,,,,,,,,,,,,,,,,,,,60fe4482b0994eea74bfd910,610377a95586e6728cc99516,2021-07-29_21h08.48.635,Simcolourproject_2stim_asymm_v5,2020.2.10,Linux x86_64,60,61025ae37ef11b136ea224fe,,,,,,,,,4256,-110.1085205,-83.48773193,1,0,0,response5disk,,2,27.87915039,-3.092102051,1,0,0,rectangle,27.87915039,-3.092102051,1,0,0,27.87915039,-3.092102051,1,0,0,0,126,126,76,1,,,,,,,,
,,,,,,,,,,,,,FF,,,,,,,,0.6546,,,,,,,,,,,,,,,,,,,,,,60fe4482b0994eea74bfd910,610377a95586e6728cc99516,2021-07-29_21h08.48.635,Simcolourproject_2stim_asymm_v5,2020.2.10,Linux x86_64,60,61025ae37ef11b136ea224fe,,,,,,,,,1680,-52.09741211,-130.1509399,1,0,0,response5disk,,3,-36.89056396,-2.529907227,1,0,0,rectangle,-36.89056396,-2.529907227,1,0,0,-36.89056396,-2.529907227,1,0,0,0,127,127,30,1,,,,,,,,
,,,,,,,,,,,,,FF,,,,,,,,0.9684,,,,,,,,,,,,,,,,,,,,,,60fe4482b0994eea74bfd910,610377a95586e6728cc99516,2021-07-29_21h08.48.635,Simcolourproject_2stim_asymm_v5,2020.2.10,Linux x86_64,60,61025ae37ef11b136ea224fe,,,,,,,,,1737,40.26989746,-129.5887451,1,0,0,response3disk,,4,9.293029785,7.027587891,1,0,0,rectangle,9.293029785,7.027587891,1,0,0,9.293029785,7.027587891,1,0,0,0,128,128,97,1,,,,,,,,
,,,,,,,,,,,,,FF,,,,,,,,0.6889,,,,,,,,,,,,,,,,,,,,,,60fe4482b0994eea74bfd910,610377a95586e6728cc99516,2021-07-29_21h08.48.635,Simcolourproject_2stim_asymm_v5,2020.2.10,Linux x86_64,60,61025ae37ef11b136ea224fe,,,,,,,,,1366,-49.84454346,84.04998779,1,0,0,response7disk,,0,-0.281616211,-5.340942383,1,0,0,rectangle,-0.281616211,-5.340942383,1,0,0,-0.281616211,-5.340942383,1,0,0,0,129,129,106,1,,,,,,,,
,,,,,,,,,,,,,FF,,,,,,,,0.7509,,,,,,,,,,,,,,,,,,,,,,60fe4482b0994eea74bfd910,610377a95586e6728cc99516,2021-07-29_21h08.48.635,Simcolourproject_2stim_asymm_v5,2020.2.10,Linux x86_64,60,61025ae37ef11b136ea224fe,,,,,,,,,2045,-39.70666504,110.4737244,1,0,0,response7disk,,0,-6.476989746,-7.027587891,1,0,0,rectangle,-6.476989746,-7.027587891,1,0,0,-6.476989746,-7.027587891,1,0,0,0,130,130,61,1,,,,,,,,
,,,,,,,,,,,,,FF,,,,,,,,0.8326,,,,,,,,,,,,,,,,,,,,,,60fe4482b0994eea74bfd910,610377a95586e6728cc99516,2021-07-29_21h08.48.635,Simcolourproject_2stim_asymm_v5,2020.2.10,Linux x86_64,60,61025ae37ef11b136ea224fe,,,,,,,,,4342,-98.28100586,-76.74127197,1,0,0,response5disk,,2,27.31591797,-12.6496582,1,0,0,rectangle,27.31591797,-12.6496582,1,0,0,27.31591797,-12.6496582,1,0,0,0,131,131,128,1,,,,,,,,
,,,,,,,,,,,,,FF,,,,,,,,0.5751,,,,,,,,,,,,,,,,,,,,,,60fe4482b0994eea74bfd910,610377a95586e6728cc99516,2021-07-29_21h08.48.635,Simcolourproject_2stim_asymm_v5,2020.2.10,Linux x86_64,60,61025ae37ef11b136ea224fe,,,,,,,,,4284,-62.23529053,118.344635,1,0,0,response7disk,,0,2.534484863,-11.52520752,1,0,0,rectangle,2.534484863,-11.52520752,1,0,0,2.534484863,-11.52520752,1,0,0,0,132,132,94,1,,,,,,,,
,,,,,,,,,,,,,FF,,,,,,,,0.5765,,,,,,,,,,,,,,,,,,,,,,60fe4482b0994eea74bfd910,610377a95586e6728cc99516,2021-07-29_21h08.48.635,Simcolourproject_2stim_asymm_v5,2020.2.10,Linux x86_64,60,61025ae37ef11b136ea224fe,,,,,,,,,3655,-51.53417969,108.7871094,1,0,0,response7disk,,0,-0.844848633,-5.340942383,1,0,0,rectangle,-0.844848633,-5.340942383,1,0,0,-0.844848633,-5.340942383,1,0,0,0,133,133,60,1,,,,,,,,
,,,,,,,,,,,,,FF,,,,,,,,0.6513,,,,,,,,,,,,,,,,,,,,,,60fe4482b0994eea74bfd910,610377a95586e6728cc99516,2021-07-29_21h08.48.635,Simcolourproject_2stim_asymm_v5,2020.2.10,Linux x86_64,60,61025ae37ef11b136ea224fe,,,,,,,,,293,-55.47668457,114.9713745,1,0,0,response7disk,,0,21.12054443,-16.58508301,1,0,0,rectangle,21.12054443,-16.58508301,1,0,0,21.12054443,-16.58508301,1,0,0,0,134,134,105,1,,,,,,,,
,,,,,,,,,,,,,FF,,,,,,,,0.8551,,,,,,,,,,,,,,,,,,,,,,60fe4482b0994eea74bfd910,610377a95586e6728cc99516,2021-07-29_21h08.48.635,Simcolourproject_2stim_asymm_v5,2020.2.10,Linux x86_64,60,61025ae37ef11b136ea224fe,,,,,,,,,1689,-130.3842773,-96.98071289,1,0,0,response5disk,,2,-27.87915039,14.33630371,1,0,0,rectangle,-27.87915039,14.33630371,1,0,0,-27.87915039,14.33630371,1,0,0,0,135,135,131,1,,,,,,,,
,,,,,,,,,,,,,FF,,,,,,,,0.6225,,,,,,,,,,,,,,,,,,,,,,60fe4482b0994eea74bfd910,610377a95586e6728cc99516,2021-07-29_21h08.48.635,Simcolourproject_2stim_asymm_v5,2020.2.10,Linux x86_64,60,61025ae37ef11b136ea224fe,,,,,,,,,2918,-54.35028076,132.3998108,1,0,0,response7disk,,0,9.293029785,13.77410889,1,0,0,rectangle,9.293029785,13.77410889,1,0,0,9.293029785,13.77410889,1,0,0,0,136,136,32,1,,,,,,,,
,,,,,,,,,,,,,FF,,,,,,,,0.7813,,,,,,,,,,,,,,,,,,,,,,60fe4482b0994eea74bfd910,610377a95586e6728cc99516,2021-07-29_21h08.48.635,Simcolourproject_2stim_asymm_v5,2020.2.10,Linux x86_64,60,61025ae37ef11b136ea224fe,,,,,,,,,2987,-63.92492676,-141.3950806,1,0,0,response5disk,,3,17.17803955,-1.967712402,1,0,0,rectangle,17.17803955,-1.967712402,1,0,0,17.17803955,-1.967712402,1,0,0,0,137,137,38,1,,,,,,,,
,,,,,,,,,,,,,FF,,,,,,,,0.725,,,,,,,,,,,,,,,,,,,,,,60fe4482b0994eea74bfd910,610377a95586e6728cc99516,2021-07-29_21h08.48.635,Simcolourproject_2stim_asymm_v5,2020.2.10,Linux x86_64,60,61025ae37ef11b136ea224fe,,,,,,,,,1611,61.67205811,-149.828186,1,0,0,response3disk,,4,-0.281616211,-12.08746338,1,0,0,rectangle,-0.281616211,-12.08746338,1,0,0,-0.281616211,-12.08746338,1,0,0,0,138,138,4,1,,,,,,,,
,,,,,,,,,,,,,FF,,,,,,,,0.8262,,,,,,,,,,,,,,,,,,,,,,60fe4482b0994eea74bfd910,610377a95586e6728cc99516,2021-07-29_21h08.48.635,Simcolourproject_2stim_asymm_v5,2020.2.10,Linux x86_64,60,61025ae37ef11b136ea224fe,,,,,,,,,809,-64.48809814,104.8516541,1,0,0,response7disk,,0,10.98266602,-8.714172363,1,0,0,rectangle,10.98266602,-8.714172363,1,0,0,10.98266602,-8.714172363,1,0,0,0,139,139,125,1,,,,,,,,
,,,,,,,,,,,,,FF,,,,,,,,0.6443,,,,,,,,,,,,,,,,,,,,,,60fe4482b0994eea74bfd910,610377a95586e6728cc99516,2021-07-29_21h08.48.635,Simcolourproject_2stim_asymm_v5,2020.2.10,Linux x86_64,60,61025ae37ef11b136ea224fe,,,,,,,,,820,-47.5916748,103.1650391,1,0,0,response7disk,,0,27.87915039,-12.08746338,1,0,0,rectangle,27.87915039,-12.08746338,1,0,0,27.87915039,-12.08746338,1,0,0,0,140,140,67,1,,,,,,,,
,,,,,,,,,,,,,FF,,,,,,,,0.5623,,,,,,,,,,,,,,,,,,,,,,60fe4482b0994eea74bfd910,610377a95586e6728cc99516,2021-07-29_21h08.48.635,Simcolourproject_2stim_asymm_v5,2020.2.10,Linux x86_64,60,61025ae37ef11b136ea224fe,,,,,,,,,668,-51.53417969,115.5335999,1,0,0,response7disk,,0,6.476989746,-15.46069336,1,0,0,rectangle,6.476989746,-15.46069336,1,0,0,6.476989746,-15.46069336,1,0,0,0,141,141,120,1,,,,,,,,
,,,,,,,,,,,,,FF,,,,,,,,0.5246,,,,,,,,,,,,,,,,,,,,,,60fe4482b0994eea74bfd910,610377a95586e6728cc99516,2021-07-29_21h08.48.635,Simcolourproject_2stim_asymm_v5,2020.2.10,Linux x86_64,60,61025ae37ef11b136ea224fe,,,,,,,,,1424,-36.89056396,103.7272339,1,0,0,response7disk,,0,5.913757324,-1.967712402,1,0,0,rectangle,5.913757324,-1.967712402,1,0,0,5.913757324,-1.967712402,1,0,0,0,142,142,107,1,,,,,,,,
,,,,,,,,,,,,,FF,,,,,,,,0.8451,,,,,,,,,,,,,,,,,,,,,,60fe4482b0994eea74bfd910,610377a95586e6728cc99516,2021-07-29_21h08.48.635,Simcolourproject_2stim_asymm_v5,2020.2.10,Linux x86_64,60,61025ae37ef11b136ea224fe,,,,,,,,,3046,58.29272461,-120.5934448,1,0,0,response3disk,,4,22.24700928,10.96307373,1,0,0,rectangle,22.24700928,10.96307373,1,0,0,22.24700928,10.96307373,1,0,0,0,143,143,118,1,,,,,,,,
,,,,,,,,,,,,,FF,,,,,,,,0.5793,,,,,,,,,,,,,,,,,,,,,,60fe4482b0994eea74bfd910,610377a95586e6728cc99516,2021-07-29_21h08.48.635,Simcolourproject_2stim_asymm_v5,2020.2.10,Linux x86_64,60,61025ae37ef11b136ea224fe,,,,,,,,,4331,-51.53417969,127.9021606,1,0,0,response7disk,,0,15.48840332,-7.589782715,1,0,0,rectangle,15.48840332,-7.589782715,1,0,0,15.48840332,-7.589782715,1,0,0,0,144,144,111,1,,,,,,,,
,,,,,,,,,,,,,FF,,,,,,,,0.6766,,,,,,,,,,,,,,,,,,,,,,60fe4482b0994eea74bfd910,610377a95586e6728cc99516,2021-07-29_21h08.48.635,Simcolourproject_2stim_asymm_v5,2020.2.10,Linux x86_64,60,61025ae37ef11b136ea224fe,,,,,,,,,3300,-52.6605835,109.3493042,1,0,0,response7disk,,0,16.05163574,-1.967712402,1,0,0,rectangle,16.05163574,-1.967712402,1,0,0,16.05163574,-1.967712402,1,0,0,0,145,145,86,1,,,,,,,,
,,,,,,,,,,,,,FF,,,,,,,,0.6816,,,,,,,,,,,,,,,,,,,,,,60fe4482b0994eea74bfd910,610377a95586e6728cc99516,2021-07-29_21h08.48.635,Simcolourproject_2stim_asymm_v5,2020.2.10,Linux x86_64,60,61025ae37ef11b136ea224fe,,,,,,,,,4279,-56.60308838,105.9760742,1,0,0,response7disk,,0,12.10913086,-6.465332031,1,0,0,rectangle,12.10913086,-6.465332031,1,0,0,12.10913086,-6.465332031,1,0,0,0,146,146,55,1,,,,,,,,
,,,,,,,,,,,,,FF,,,,,,,,0.6136,,,,,,,,,,,,,,,,,,,,,,60fe4482b0994eea74bfd910,610377a95586e6728cc99516,2021-07-29_21h08.48.635,Simcolourproject_2stim_asymm_v5,2020.2.10,Linux x86_64,60,61025ae37ef11b136ea224fe,,,,,,,,,4325,-49.28131104,112.7225647,1,0,0,response7disk,,0,10.98266602,10.96307373,1,0,0,rectangle,10.98266602,10.96307373,1,0,0,10.98266602,10.96307373,1,0,0,0,147,147,145,1,,,,,,,,
,,,,,,,,,,,,,FF,,,,,,,,0.6232,,,,,,,,,,,,,,,,,,,,,,60fe4482b0994eea74bfd910,610377a95586e6728cc99516,2021-07-29_21h08.48.635,Simcolourproject_2stim_asymm_v5,2020.2.10,Linux x86_64,60,61025ae37ef11b136ea224fe,,,,,,,,,176,-50.97094727,144.7683716,1,0,0,response7disk,,0,16.05163574,-5.340942383,1,0,0,rectangle,16.05163574,-5.340942383,1,0,0,16.05163574,-5.340942383,1,0,0,0,148,148,126,1,,,,,,,,
,,,,,,,,,,,,,FF,,,,,,,,0.6814,,,,,,,,,,,,,,,,,,,,,,60fe4482b0994eea74bfd910,610377a95586e6728cc99516,2021-07-29_21h08.48.635,Simcolourproject_2stim_asymm_v5,2020.2.10,Linux x86_64,60,61025ae37ef11b136ea224fe,,,,,,,,,2610,-61.10882568,-131.2753296,1,0,0,response5disk,,3,21.68377686,-7.589782715,1,0,0,rectangle,21.68377686,-7.589782715,1,0,0,21.68377686,-7.589782715,1,0,0,0,149,149,62,1,,,,,,,,
,,,,,,,,,,,,,FF,,,,,,,,1.5074,,,,,,,,,,,,,,,,,,,,,,60fe4482b0994eea74bfd910,610377a95586e6728cc99516,2021-07-29_21h08.48.635,Simcolourproject_2stim_asymm_v5,2020.2.10,Linux x86_64,60,61025ae37ef11b136ea224fe,,,,,,,,,1115,-109.5453491,-45.25762939,1,0,0,response5disk,,2,6.476989746,-3.092102051,1,0,0,rectangle,6.476989746,-3.092102051,1,0,0,6.476989746,-3.092102051,1,0,0,0,150,150,148,1,,,,,,,,
,,,,,,,,,,,,,FF,,,,,,,,0.5894,,,,,,,,,,,,,,,,,,,,,,60fe4482b0994eea74bfd910,610377a95586e6728cc99516,2021-07-29_21h08.48.635,Simcolourproject_2stim_asymm_v5,2020.2.10,Linux x86_64,60,61025ae37ef11b136ea224fe,,,,,,,,,690,-57.72955322,116.65802,1,0,0,response7disk,,0,13.79876709,-3.654296875,1,0,0,rectangle,13.79876709,-3.654296875,1,0,0,13.79876709,-3.654296875,1,0,0,0,151,151,37,1,,,,,,,,
,,,,,,,,,,,,,FF,,,,,,,,1.8996,,,,,,,,,,,,,,,,,,,,,,60fe4482b0994eea74bfd910,610377a95586e6728cc99516,2021-07-29_21h08.48.635,Simcolourproject_2stim_asymm_v5,2020.2.10,Linux x86_64,60,61025ae37ef11b136ea224fe,,,,,,,,,2760,-61.67205811,133.524231,1,0,0,response7disk,,0,16.61486816,-11.52520752,1,0,0,rectangle,16.61486816,-11.52520752,1,0,0,16.61486816,-11.52520752,1,0,0,0,152,152,83,1,,,,,,,,
,,,,,,,,,,,,,FF,,,,,,,,0.5987,,,,,,,,,,,,,,,,,,,,,,60fe4482b0994eea74bfd910,610377a95586e6728cc99516,2021-07-29_21h08.48.635,Simcolourproject_2stim_asymm_v5,2020.2.10,Linux x86_64,60,61025ae37ef11b136ea224fe,,,,,,,,,2453,-52.09741211,123.9667053,1,0,0,response7disk,,0,17.74127197,-0.843261719,1,0,0,rectangle,17.74127197,-0.843261719,1,0,0,17.74127197,-0.843261719,1,0,0,0,153,153,102,1,,,,,,,,
,,,,,,,,,,,,,FF,,,,,,,,0.8629,,,,,,,,,,,,,,,,,,,,,,60fe4482b0994eea74bfd910,610377a95586e6728cc99516,2021-07-29_21h08.48.635,Simcolourproject_2stim_asymm_v5,2020.2.10,Linux x86_64,60,61025ae37ef11b136ea224fe,,,,,,,,,980,-52.6605835,-136.8973999,1,0,0,response5disk,,3,27.31591797,1.967773438,1,0,0,rectangle,27.31591797,1.967773438,1,0,0,27.31591797,1.967773438,1,0,0,0,154,154,74,1,,,,,,,,
,,,,,,,,,,,,,FF,,,,,,,,0.7328,,,,,,,,,,,,,,,,,,,,,,60fe4482b0994eea74bfd910,610377a95586e6728cc99516,2021-07-29_21h08.48.635,Simcolourproject_2stim_asymm_v5,2020.2.10,Linux x86_64,60,61025ae37ef11b136ea224fe,,,,,,,,,82,-48.71807861,-145.3305054,1,0,0,response5disk,,3,25.06304932,10.40087891,1,0,0,rectangle,25.06304932,10.40087891,1,0,0,25.06304932,10.40087891,1,0,0,0,155,155,91,1,,,,,,,,
,,,,,,,,,,,,,FF,,,,,,,,0.5244,,,,,,,,,,,,,,,,,,,,,,60fe4482b0994eea74bfd910,610377a95586e6728cc99516,2021-07-29_21h08.48.635,Simcolourproject_2stim_asymm_v5,2020.2.10,Linux x86_64,60,61025ae37ef11b136ea224fe,,,,,,,,,2208,-53.22381592,140.2707214,1,0,0,response7disk,,0,15.48840332,-6.465332031,1,0,0,rectangle,15.48840332,-6.465332031,1,0,0,15.48840332,-6.465332031,1,0,0,0,156,156,135,1,,,,,,,,
,,,,,,,,,,,,,FF,,,,,,,,0.5814,,,,,,,,,,,,,,,,,,,,,,60fe4482b0994eea74bfd910,610377a95586e6728cc99516,2021-07-29_21h08.48.635,Simcolourproject_2stim_asymm_v5,2020.2.10,Linux x86_64,60,61025ae37ef11b136ea224fe,,,,,,,,,1177,-56.60308838,121.1556702,1,0,0,response7disk,,0,10.98266602,-18.27172852,1,0,0,rectangle,10.98266602,-18.27172852,1,0,0,10.98266602,-18.27172852,1,0,0,0,157,157,89,1,,,,,,,,
,,,,,,,,,,,,,FF,,,,,,,,0.5496,,,,,,,,,,,,,,,,,,,,,,60fe4482b0994eea74bfd910,610377a95586e6728cc99516,2021-07-29_21h08.48.635,Simcolourproject_2stim_asymm_v5,2020.2.10,Linux x86_64,60,61025ae37ef11b136ea224fe,,,,,,,,,3521,-45.33880615,94.16970825,1,0,0,response7disk,,0,10.41949463,-6.465332031,1,0,0,rectangle,10.41949463,-6.465332031,1,0,0,10.41949463,-6.465332031,1,0,0,0,158,158,93,1,,,,,,,,
,,,,,,,,,,,,,FF,,,,,,,,0.5651,,,,,,,,,,,,,,,,,,,,,,60fe4482b0994eea74bfd910,610377a95586e6728cc99516,2021-07-29_21h08.48.635,Simcolourproject_2stim_asymm_v5,2020.2.10,Linux x86_64,60,61025ae37ef11b136ea224fe,,,,,,,,,958,-115.7406616,-49.75531006,1,0,0,response5disk,,2,-17.17803955,-5.340942383,1,0,0,rectangle,-17.17803955,-5.340942383,1,0,0,-17.17803955,-5.340942383,1,0,0,0,159,159,58,1,,,,,,,,
,,,,,,,,,,,,,FF,,,,,,,,0.841,,,,,,,,,,,,,,,,,,,,,,60fe4482b0994eea74bfd910,610377a95586e6728cc99516,2021-07-29_21h08.48.635,Simcolourproject_2stim_asymm_v5,2020.2.10,Linux x86_64,60,61025ae37ef11b136ea224fe,,,,,,,,,3475,58.85595703,135.7730408,1,0,0,response1disk,,7,17.74127197,-9.838623047,1,0,0,rectangle,17.74127197,-9.838623047,1,0,0,17.74127197,-9.838623047,1,0,0,1,0,160,8,1,,,,,,,,
,,,,,,,,,,,,,FF,,,,,,,,0.8029,,,,,,,,,,,,,,,,,,,,,,60fe4482b0994eea74bfd910,610377a95586e6728cc99516,2021-07-29_21h08.48.635,Simcolourproject_2stim_asymm_v5,2020.2.10,Linux x86_64,60,61025ae37ef11b136ea224fe,,,,,,,,,1882,124.1889648,-76.74127197,1,0,0,response3disk,,5,2.534484863,0.843322754,1,0,0,rectangle,2.534484863,0.843322754,1,0,0,2.534484863,0.843322754,1,0,0,1,1,161,42,1,,,,,,,,
,,,,,,,,,,,,,FF,,,,,,,,0.5512,,,,,,,,,,,,,,,,,,,,,,60fe4482b0994eea74bfd910,610377a95586e6728cc99516,2021-07-29_21h08.48.635,Simcolourproject_2stim_asymm_v5,2020.2.10,Linux x86_64,60,61025ae37ef11b136ea224fe,,,,,,,,,1870,-60.54559326,123.9667053,1,0,0,response7disk,,0,16.05163574,-0.281066895,1,0,0,rectangle,139.395752,62.68612671,1,0,0,0.844848633,-12.6496582,1,0,0,1,2,162,64,1,,response1disk_3,TRUE,6,6,"[314,46,50,206,81,297,200,318,50,274,224,259,221,163,186,260,215,177,191,165]",1.8088,rectangle
,,,,,,,,,,,,,FF,,,,,,,,0.7348,,,,,,,,,,,,,,,,,,,,,,60fe4482b0994eea74bfd910,610377a95586e6728cc99516,2021-07-29_21h08.48.635,Simcolourproject_2stim_asymm_v5,2020.2.10,Linux x86_64,60,61025ae37ef11b136ea224fe,,,,,,,,,86,-62.23529053,-145.3305054,1,0,0,response5disk,,3,-0.281616211,5.341003418,1,0,0,rectangle,-0.281616211,5.341003418,1,0,0,-0.281616211,5.341003418,1,0,0,1,3,163,24,1,,,,,,,,
,,,,,,,,,,,,,FF,,,,,,,,0.9824,,,,,,,,,,,,,,,,,,,,,,60fe4482b0994eea74bfd910,610377a95586e6728cc99516,2021-07-29_21h08.48.635,Simcolourproject_2stim_asymm_v5,2020.2.10,Linux x86_64,60,61025ae37ef11b136ea224fe,,,,,,,,,4128,-119.1199951,46.94430542,1,0,0,response7disk,,1,5.913757324,-0.281066895,1,0,0,rectangle,-117.9935303,48.63095093,1,0,0,-1.971252441,8.152038574,1,0,0,1,4,164,99,1,,response7disk_3,TRUE,1,1,"[314,46,50,206,81,297,200,318,50,274,224,259,221,163,186,260,215,177,191,165]",1.3849,rectangle
,,,,,,,,,,,,,FF,,,,,,,,1.7632,,,,,,,,,,,,,,,,,,,,,,60fe4482b0994eea74bfd910,610377a95586e6728cc99516,2021-07-29_21h08.48.635,Simcolourproject_2stim_asymm_v5,2020.2.10,Linux x86_64,60,61025ae37ef11b136ea224fe,,,,,,,,,3766,-124.1889038,-74.49243164,1,0,0,response5disk,,2,8.166625977,-16.02288818,1,0,0,rectangle,8.166625977,-16.02288818,1,0,0,8.166625977,-16.02288818,1,0,0,1,5,165,83,1,,,,,,,,
,,,,,,,,,,,,,FF,,,,,,,,1.4656,,,,,,,,,,,,,,,,,,,,,,60fe4482b0994eea74bfd910,610377a95586e6728cc99516,2021-07-29_21h08.48.635,Simcolourproject_2stim_asymm_v5,2020.2.10,Linux x86_64,60,61025ae37ef11b136ea224fe,,,,,,,,,1908,-62.79846191,99.22958374,1,0,0,response7disk,,0,-0.281616211,-8.714172363,1,0,0,rectangle,-0.281616211,-8.714172363,1,0,0,-0.281616211,-8.714172363,1,0,0,1,6,166,27,1,,,,,,,,
,,,,,,,,,,,,,FF,,,,,,,,0.6645,,,,,,,,,,,,,,,,,,,,,,60fe4482b0994eea74bfd910,610377a95586e6728cc99516,2021-07-29_21h08.48.635,Simcolourproject_2stim_asymm_v5,2020.2.10,Linux x86_64,60,61025ae37ef11b136ea224fe,,,,,,,,,2216,-48.71807861,121.1556702,1,0,0,response7disk,,0,18.86767578,-4.216552734,1,0,0,rectangle,18.86767578,-4.216552734,1,0,0,18.86767578,-4.216552734,1,0,0,1,7,167,33,1,,,,,,,,
,,,,,,,,,,,,,FF,,,,,,,,1.4958,,,,,,,,,,,,,,,,,,,,,,60fe4482b0994eea74bfd910,610377a95586e6728cc99516,2021-07-29_21h08.48.635,Simcolourproject_2stim_asymm_v5,2020.2.10,Linux x86_64,60,61025ae37ef11b136ea224fe,,,,,,,,,1835,54.91345215,-129.5887451,1,0,0,response3disk,,4,2.534484863,0.28112793,1,0,0,rectangle,2.534484863,0.28112793,1,0,0,2.534484863,0.28112793,1,0,0,1,8,168,112,1,,,,,,,,
,,,,,,,,,,,,,FF,,,,,,,,0.8623,,,,,,,,,,,,,,,,,,,,,,60fe4482b0994eea74bfd910,610377a95586e6728cc99516,2021-07-29_21h08.48.635,Simcolourproject_2stim_asymm_v5,2020.2.10,Linux x86_64,60,61025ae37ef11b136ea224fe,,,,,,,,,2772,-59.98242188,124.5289001,1,0,0,response7disk,,0,13.23553467,-16.02288818,1,0,0,rectangle,13.23553467,-16.02288818,1,0,0,13.23553467,-16.02288818,1,0,0,1,9,169,58,1,,,,,,,,
,,,,,,,,,,,,,FF,,,,,,,,1.0208,,,,,,,,,,,,,,,,,,,,,,60fe4482b0994eea74bfd910,610377a95586e6728cc99516,2021-07-29_21h08.48.635,Simcolourproject_2stim_asymm_v5,2020.2.10,Linux x86_64,60,61025ae37ef11b136ea224fe,,,,,,,,,2115,-54.35028076,102.6028137,1,0,0,response7disk,,0,19.99414063,-12.08746338,1,0,0,rectangle,19.99414063,-12.08746338,1,0,0,19.99414063,-12.08746338,1,0,0,1,10,170,36,1,,,,,,,,
,,,,,,,,,,,,,FF,,,,,,,,0.8671,,,,,,,,,,,,,,,,,,,,,,60fe4482b0994eea74bfd910,610377a95586e6728cc99516,2021-07-29_21h08.48.635,Simcolourproject_2stim_asymm_v5,2020.2.10,Linux x86_64,60,61025ae37ef11b136ea224fe,,,,,,,,,3436,54.91345215,127.9021606,1,0,0,response1disk,,7,9.293029785,-12.08746338,1,0,0,rectangle,9.293029785,-12.08746338,1,0,0,9.293029785,-12.08746338,1,0,0,1,11,171,159,1,,,,,,,,
,,,,,,,,,,,,,FF,,,,,,,,0.8453,,,,,,,,,,,,,,,,,,,,,,60fe4482b0994eea74bfd910,610377a95586e6728cc99516,2021-07-29_21h08.48.635,Simcolourproject_2stim_asymm_v5,2020.2.10,Linux x86_64,60,61025ae37ef11b136ea224fe,,,,,,,,,1332,-54.91345215,105.4138489,1,0,0,response7disk,,0,10.98266602,10.40087891,1,0,0,rectangle,10.98266602,10.40087891,1,0,0,10.98266602,10.40087891,1,0,0,1,12,172,60,1,,,,,,,,
,,,,,,,,,,,,,FF,,,,,,,,7.4584,,,,,,,,,,,,,,,,,,,,,,60fe4482b0994eea74bfd910,610377a95586e6728cc99516,2021-07-29_21h08.48.635,Simcolourproject_2stim_asymm_v5,2020.2.10,Linux x86_64,60,61025ae37ef11b136ea224fe,,,,,,,,,1142,-130.9475098,-66.621521,1,0,0,response5disk,,2,-16.05163574,4.778808594,1,0,0,rectangle,-16.05163574,4.778808594,1,0,0,-16.05163574,4.778808594,1,0,0,1,13,173,105,1,,,,,,,,
,,,,,,,,,,,,,FF,,,,,,,,0.8478,,,,,,,,,,,,,,,,,,,,,,60fe4482b0994eea74bfd910,610377a95586e6728cc99516,2021-07-29_21h08.48.635,Simcolourproject_2stim_asymm_v5,2020.2.10,Linux x86_64,60,61025ae37ef11b136ea224fe,,,,,,,,,2712,-68.99383545,-138.0218506,1,0,0,response5disk,,3,1.971252441,12.08746338,1,0,0,rectangle,1.971252441,12.08746338,1,0,0,1.971252441,12.08746338,1,0,0,1,14,174,62,1,,,,,,,,
,,,,,,,,,,,,,FF,,,,,,,,0.5778,,,,,,,,,,,,,,,,,,,,,,60fe4482b0994eea74bfd910,610377a95586e6728cc99516,2021-07-29_21h08.48.635,Simcolourproject_2stim_asymm_v5,2020.2.10,Linux x86_64,60,61025ae37ef11b136ea224fe,,,,,,,,,2920,-54.91345215,107.1004944,1,0,0,response7disk,,0,11.54589844,5.341003418,1,0,0,rectangle,11.54589844,5.341003418,1,0,0,11.54589844,5.341003418,1,0,0,1,15,175,143,1,,,,,,,,
,,,,,,,,,,,,,FF,,,,,,,,1.3564,,,,,,,,,,,,,,,,,,,,,,60fe4482b0994eea74bfd910,610377a95586e6728cc99516,2021-07-29_21h08.48.635,Simcolourproject_2stim_asymm_v5,2020.2.10,Linux x86_64,60,61025ae37ef11b136ea224fe,,,,,,,,,2652,50.40771484,-130.7131348,1,0,0,response3disk,,4,15.48840332,3.65435791,1,0,0,rectangle,-54.35028076,132.9620056,1,0,0,-11.54589844,-14.89849854,1,0,0,1,16,176,46,1,,response7disk_3,TRUE,0,0,"[314,46,50,206,81,297,200,318,50,274,224,259,221,163,186,260,215,177,191,165]",1.4839,rectangle
,,,,,,,,,,,,,FF,,,,,,,,1.6049,,,,,,,,,,,,,,,,,,,,,,60fe4482b0994eea74bfd910,610377a95586e6728cc99516,2021-07-29_21h08.48.635,Simcolourproject_2stim_asymm_v5,2020.2.10,Linux x86_64,60,61025ae37ef11b136ea224fe,,,,,,,,,2412,-114.6142578,-70.55700684,1,0,0,response5disk,,2,2.534484863,-10.40081787,1,0,0,rectangle,2.534484863,-10.40081787,1,0,0,2.534484863,-10.40081787,1,0,0,1,17,177,29,1,,,,,,,,
,,,,,,,,,,,,,FF,,,,,,,,0.7187,,,,,,,,,,,,,,,,,,,,,,60fe4482b0994eea74bfd910,610377a95586e6728cc99516,2021-07-29_21h08.48.635,Simcolourproject_2stim_asymm_v5,2020.2.10,Linux x86_64,60,61025ae37ef11b136ea224fe,,,,,,,,,1629,-54.35028076,112.1603394,1,0,0,response7disk,,0,7.603393555,-6.465332031,1,0,0,rectangle,7.603393555,-6.465332031,1,0,0,7.603393555,-6.465332031,1,0,0,1,18,178,100,1,,,,,,,,
,,,,,,,,,,,,,FF,,,,,,,,1.0941,,,,,,,,,,,,,,,,,,,,,,60fe4482b0994eea74bfd910,610377a95586e6728cc99516,2021-07-29_21h08.48.635,Simcolourproject_2stim_asymm_v5,2020.2.10,Linux x86_64,60,61025ae37ef11b136ea224fe,,,,,,,,,2400,-62.79846191,90.79647827,1,0,0,response7disk,,0,0.281616211,-8.151977539,1,0,0,rectangle,0.281616211,-8.151977539,1,0,0,0.281616211,-8.151977539,1,0,0,1,19,179,70,1,,,,,,,,
,,,,,,,,,,,,,FF,,,,,,,,0.9516,,,,,,,,,,,,,,,,,,,,,,60fe4482b0994eea74bfd910,610377a95586e6728cc99516,2021-07-29_21h08.48.635,Simcolourproject_2stim_asymm_v5,2020.2.10,Linux x86_64,60,61025ae37ef11b136ea224fe,,,,,,,,,431,-104.4763794,-77.86566162,1,0,0,response5disk,,2,35.20092773,0.28112793,1,0,0,rectangle,35.20092773,0.28112793,1,0,0,35.20092773,0.28112793,1,0,0,1,20,180,151,1,,,,,,,,
,,,,,,,,,,,,,FF,,,,,,,,0.8669,,,,,,,,,,,,,,,,,,,,,,60fe4482b0994eea74bfd910,610377a95586e6728cc99516,2021-07-29_21h08.48.635,Simcolourproject_2stim_asymm_v5,2020.2.10,Linux x86_64,60,61025ae37ef11b136ea224fe,,,,,,,,,1898,-47.5916748,-161.6345215,1,0,0,response5disk,,3,30.69519043,-0.843261719,1,0,0,rectangle,30.69519043,-0.843261719,1,0,0,30.69519043,-0.843261719,1,0,0,1,21,181,86,1,,,,,,,,
,,,,,,,,,,,,,FF,,,,,,,,0.7552,,,,,,,,,,,,,,,,,,,,,,60fe4482b0994eea74bfd910,610377a95586e6728cc99516,2021-07-29_21h08.48.635,Simcolourproject_2stim_asymm_v5,2020.2.10,Linux x86_64,60,61025ae37ef11b136ea224fe,,,,,,,,,1398,-104.4763794,-59.87506104,1,0,0,response5disk,,2,-10.41949463,1.405517578,1,0,0,rectangle,-10.41949463,1.405517578,1,0,0,-10.41949463,1.405517578,1,0,0,1,22,182,35,1,,,,,,,,
,,,,,,,,,,,,,FF,,,,,,,,0.736,,,,,,,,,,,,,,,,,,,,,,60fe4482b0994eea74bfd910,610377a95586e6728cc99516,2021-07-29_21h08.48.635,Simcolourproject_2stim_asymm_v5,2020.2.10,Linux x86_64,60,61025ae37ef11b136ea224fe,,,,,,,,,3050,-106.1660156,-63.81048584,1,0,0,response5disk,,2,19.4309082,-7.027587891,1,0,0,rectangle,19.4309082,-7.027587891,1,0,0,19.4309082,-7.027587891,1,0,0,1,23,183,82,1,,,,,,,,
,,,,,,,,,,,,,FF,,,,,,,,1.1103,,,,,,,,,,,,,,,,,,,,,,60fe4482b0994eea74bfd910,610377a95586e6728cc99516,2021-07-29_21h08.48.635,Simcolourproject_2stim_asymm_v5,2020.2.10,Linux x86_64,60,61025ae37ef11b136ea224fe,,,,,,,,,2598,58.29272461,-163.8833618,1,0,0,response3disk,,4,3.09765625,-16.58508301,1,0,0,rectangle,3.09765625,-16.58508301,1,0,0,3.09765625,-16.58508301,1,0,0,1,24,184,128,1,,,,,,,,
,,,,,,,,,,,,,FF,,,,,,,,0.7622,,,,,,,,,,,,,,,,,,,,,,60fe4482b0994eea74bfd910,610377a95586e6728cc99516,2021-07-29_21h08.48.635,Simcolourproject_2stim_asymm_v5,2020.2.10,Linux x86_64,60,61025ae37ef11b136ea224fe,,,,,,,,,3449,-65.05133057,128.4643555,1,0,0,response7disk,,0,26.75268555,-5.340942383,1,0,0,rectangle,81.94775391,-170.067627,1,0,0,3.09765625,-0.843261719,1,0,0,1,25,185,30,1,,response3disk_3,TRUE,4,4,"[314,46,50,206,81,297,200,318,50,274,224,259,221,163,186,260,215,177,191,165]",1.696,rectangle
,,,,,,,,,,,,,FF,,,,,,,,0.7583,,,,,,,,,,,,,,,,,,,,,,60fe4482b0994eea74bfd910,610377a95586e6728cc99516,2021-07-29_21h08.48.635,Simcolourproject_2stim_asymm_v5,2020.2.10,Linux x86_64,60,61025ae37ef11b136ea224fe,,,,,,,,,3342,-59.98242188,-148.7037964,1,0,0,response5disk,,3,19.99414063,-1.967712402,1,0,0,rectangle,19.99414063,-1.967712402,1,0,0,19.99414063,-1.967712402,1,0,0,1,26,186,19,1,,,,,,,,
,,,,,,,,,,,,,FF,,,,,,,,1.8023,,,,,,,,,,,,,,,,,,,,,,60fe4482b0994eea74bfd910,610377a95586e6728cc99516,2021-07-29_21h08.48.635,Simcolourproject_2stim_asymm_v5,2020.2.10,Linux x86_64,60,61025ae37ef11b136ea224fe,,,,,,,,,427,-36.89056396,97.54296875,1,0,0,response7disk,,0,-17.74127197,-10.9630127,1,0,0,rectangle,-17.74127197,-10.9630127,1,0,0,-17.74127197,-10.9630127,1,0,0,1,27,187,40,1,,,,,,,,
,,,,,,,,,,,,,FF,,,,,,,,1.2137,,,,,,,,,,,,,,,,,,,,,,60fe4482b0994eea74bfd910,610377a95586e6728cc99516,2021-07-29_21h08.48.635,Simcolourproject_2stim_asymm_v5,2020.2.10,Linux x86_64,60,61025ae37ef11b136ea224fe,,,,,,,,,1409,-64.48809814,126.7777405,1,0,0,response7disk,,0,-17.74127197,-17.14727783,1,0,0,rectangle,-17.74127197,-17.14727783,1,0,0,-17.74127197,-17.14727783,1,0,0,1,28,188,72,1,,,,,,,,
,,,,,,,,,,,,,FF,,,,,,,,0.9697,,,,,,,,,,,,,,,,,,,,,,60fe4482b0994eea74bfd910,610377a95586e6728cc99516,2021-07-29_21h08.48.635,Simcolourproject_2stim_asymm_v5,2020.2.10,Linux x86_64,60,61025ae37ef11b136ea224fe,,,,,,,,,2382,-75.18920898,90.79647827,1,0,0,response7disk,,0,-39.70666504,-7.589782715,1,0,0,rectangle,-39.70666504,-7.589782715,1,0,0,-39.70666504,-7.589782715,1,0,0,1,29,189,93,1,,,,,,,,
,,,,,,,,,,,,,FF,,,,,,,,0.7982,,,,,,,,,,,,,,,,,,,,,,60fe4482b0994eea74bfd910,610377a95586e6728cc99516,2021-07-29_21h08.48.635,Simcolourproject_2stim_asymm_v5,2020.2.10,Linux x86_64,60,61025ae37ef11b136ea224fe,,,,,,,,,2204,-43.64916992,57.62625122,1,0,0,response7disk,,0,0.281616211,-9.838623047,1,0,0,rectangle,68.99389648,119.4690552,1,0,0,3.09765625,-12.08746338,1,0,0,1,30,190,57,1,,response1disk_3,TRUE,7,7,"[314,46,50,206,81,297,200,318,50,274,224,259,221,163,186,260,215,177,191,165]",1.9109,rectangle
,,,,,,,,,,,,,FF,,,,,,,,0.9081,,,,,,,,,,,,,,,,,,,,,,60fe4482b0994eea74bfd910,610377a95586e6728cc99516,2021-07-29_21h08.48.635,Simcolourproject_2stim_asymm_v5,2020.2.10,Linux x86_64,60,61025ae37ef11b136ea224fe,,,,,,,,,4295,131.5107422,-65.49713135,1,0,0,response3disk,,5,-0.281616211,-2.529907227,1,0,0,rectangle,-0.281616211,-2.529907227,1,0,0,-0.281616211,-2.529907227,1,0,0,1,31,191,56,1,,,,,,,,
,,,,,,,,,,,,,FF,,,,,,,,0.7773,,,,,,,,,,,,,,,,,,,,,,60fe4482b0994eea74bfd910,610377a95586e6728cc99516,2021-07-29_21h08.48.635,Simcolourproject_2stim_asymm_v5,2020.2.10,Linux x86_64,60,61025ae37ef11b136ea224fe,,,,,,,,,105,-53.22381592,-139.7084351,1,0,0,response5disk,,3,4.787353516,0.843322754,1,0,0,rectangle,4.787353516,0.843322754,1,0,0,4.787353516,0.843322754,1,0,0,1,32,192,141,1,,,,,,,,
,,,,,,,,,,,,,FF,,,,,,,,0.9045,,,,,,,,,,,,,,,,,,,,,,60fe4482b0994eea74bfd910,610377a95586e6728cc99516,2021-07-29_21h08.48.635,Simcolourproject_2stim_asymm_v5,2020.2.10,Linux x86_64,60,61025ae37ef11b136ea224fe,,,,,,,,,3421,-119.6831665,-68.87036133,1,0,0,response5disk,,2,-5.913757324,-4.778747559,1,0,0,rectangle,-5.913757324,-4.778747559,1,0,0,-5.913757324,-4.778747559,1,0,0,1,33,193,149,1,,,,,,,,
,,,,,,,,,,,,,FF,,,,,,,,0.7463,,,,,,,,,,,,,,,,,,,,,,60fe4482b0994eea74bfd910,610377a95586e6728cc99516,2021-07-29_21h08.48.635,Simcolourproject_2stim_asymm_v5,2020.2.10,Linux x86_64,60,61025ae37ef11b136ea224fe,,,,,,,,,967,-53.22381592,105.9760742,1,0,0,response7disk,,0,34.07452393,-8.714172363,1,0,0,rectangle,34.07452393,-8.714172363,1,0,0,34.07452393,-8.714172363,1,0,0,1,34,194,155,1,,,,,,,,
,,,,,,,,,,,,,FF,,,,,,,,0.9073,,,,,,,,,,,,,,,,,,,,,,60fe4482b0994eea74bfd910,610377a95586e6728cc99516,2021-07-29_21h08.48.635,Simcolourproject_2stim_asymm_v5,2020.2.10,Linux x86_64,60,61025ae37ef11b136ea224fe,,,,,,,,,103,-62.23529053,113.8469849,1,0,0,response7disk,,0,7.603393555,-8.714172363,1,0,0,rectangle,7.603393555,-8.714172363,1,0,0,7.603393555,-8.714172363,1,0,0,1,35,195,118,1,,,,,,,,
,,,,,,,,,,,,,FF,,,,,,,,0.812,,,,,,,,,,,,,,,,,,,,,,60fe4482b0994eea74bfd910,610377a95586e6728cc99516,2021-07-29_21h08.48.635,Simcolourproject_2stim_asymm_v5,2020.2.10,Linux x86_64,60,61025ae37ef11b136ea224fe,,,,,,,,,2390,-56.03991699,97.54296875,1,0,0,response7disk,,0,8.729858398,-1.405517578,1,0,0,rectangle,8.729858398,-1.405517578,1,0,0,8.729858398,-1.405517578,1,0,0,1,36,196,117,1,,,,,,,,
,,,,,,,,,,,,,FF,,,,,,,,0.7842,,,,,,,,,,,,,,,,,,,,,,60fe4482b0994eea74bfd910,610377a95586e6728cc99516,2021-07-29_21h08.48.635,Simcolourproject_2stim_asymm_v5,2020.2.10,Linux x86_64,60,61025ae37ef11b136ea224fe,,,,,,,,,2044,-42.52276611,-161.0723267,1,0,0,response5disk,,3,33.5112915,-10.40081787,1,0,0,rectangle,33.5112915,-10.40081787,1,0,0,33.5112915,-10.40081787,1,0,0,1,37,197,87,1,,,,,,,,
,,,,,,,,,,,,,FF,,,,,,,,1.1611,,,,,,,,,,,,,,,,,,,,,,60fe4482b0994eea74bfd910,610377a95586e6728cc99516,2021-07-29_21h08.48.635,Simcolourproject_2stim_asymm_v5,2020.2.10,Linux x86_64,60,61025ae37ef11b136ea224fe,,,,,,,,,4236,77.4420166,-137.4596558,1,0,0,response3disk,,4,14.9251709,-12.6496582,1,0,0,rectangle,14.9251709,-12.6496582,1,0,0,14.9251709,-12.6496582,1,0,0,1,38,198,97,1,,,,,,,,
,,,,,,,,,,,,,FF,,,,,,,,0.8067,,,,,,,,,,,,,,,,,,,,,,60fe4482b0994eea74bfd910,610377a95586e6728cc99516,2021-07-29_21h08.48.635,Simcolourproject_2stim_asymm_v5,2020.2.10,Linux x86_64,60,61025ae37ef11b136ea224fe,,,,,,,,,1404,-81.94781494,96.41854858,1,0,0,response7disk,,0,28.44238281,-7.589782715,1,0,0,rectangle,135.4532471,57.62625122,1,0,0,-8.729858398,-12.6496582,1,0,0,1,39,199,68,1,,response1disk_3,TRUE,6,6,"[314,46,50,206,81,297,200,318,50,274,224,259,221,163,186,260,215,177,191,165]",1.6589,rectangle
,,,,,,,,,,,,,FF,,,,,,,,2.1782,,,,,,,,,,,,,,,,,,,,,,60fe4482b0994eea74bfd910,610377a95586e6728cc99516,2021-07-29_21h08.48.635,Simcolourproject_2stim_asymm_v5,2020.2.10,Linux x86_64,60,61025ae37ef11b136ea224fe,,,,,,,,,245,-75.75244141,120.03125,1,0,0,response7disk,,0,-13.23553467,0.28112793,1,0,0,rectangle,-13.23553467,0.28112793,1,0,0,-13.23553467,0.28112793,1,0,0,1,40,200,116,1,,,,,,,,
,,,,,,,,,,,,,FF,,,,,,,,0.9206,,,,,,,,,,,,,,,,,,,,,,60fe4482b0994eea74bfd910,610377a95586e6728cc99516,2021-07-29_21h08.48.635,Simcolourproject_2stim_asymm_v5,2020.2.10,Linux x86_64,60,61025ae37ef11b136ea224fe,,,,,,,,,3319,-54.35028076,112.1603394,1,0,0,response7disk,,0,-13.79876709,-7.027587891,1,0,0,rectangle,-13.79876709,-7.027587891,1,0,0,-13.79876709,-7.027587891,1,0,0,1,41,201,25,1,,,,,,,,
,,,,,,,,,,,,,FF,,,,,,,,1.8388,,,,,,,,,,,,,,,,,,,,,,60fe4482b0994eea74bfd910,610377a95586e6728cc99516,2021-07-29_21h08.48.635,Simcolourproject_2stim_asymm_v5,2020.2.10,Linux x86_64,60,61025ae37ef11b136ea224fe,,,,,,,,,616,73.49951172,-156.574646,1,0,0,response3disk,,4,-12.10913086,3.65435791,1,0,0,rectangle,-12.10913086,3.65435791,1,0,0,-12.10913086,3.65435791,1,0,0,1,42,202,15,1,,,,,,,,
,,,,,,,,,,,,,FF,,,,,,,,0.7167,,,,,,,,,,,,,,,,,,,,,,60fe4482b0994eea74bfd910,610377a95586e6728cc99516,2021-07-29_21h08.48.635,Simcolourproject_2stim_asymm_v5,2020.2.10,Linux x86_64,60,61025ae37ef11b136ea224fe,,,,,,,,,136,-74.62597656,111.0359497,1,0,0,response7disk,,0,-22.81018066,18.27172852,1,0,0,rectangle,-22.81018066,18.27172852,1,0,0,-22.81018066,18.27172852,1,0,0,1,43,203,3,1,,,,,,,,
,,,,,,,,,,,,,FF,,,,,,,,1.2554,,,,,,,,,,,,,,,,,,,,,,60fe4482b0994eea74bfd910,610377a95586e6728cc99516,2021-07-29_21h08.48.635,Simcolourproject_2stim_asymm_v5,2020.2.10,Linux x86_64,60,61025ae37ef11b136ea224fe,,,,,,,,,1993,-47.02844238,108.2249146,1,0,0,response7disk,,0,-0.844848633,7.58984375,1,0,0,rectangle,-0.844848633,7.58984375,1,0,0,-0.844848633,7.58984375,1,0,0,1,44,204,74,1,,,,,,,,
,,,,,,,,,,,,,FF,,,,,,,,0.6601,,,,,,,,,,,,,,,,,,,,,,60fe4482b0994eea74bfd910,610377a95586e6728cc99516,2021-07-29_21h08.48.635,Simcolourproject_2stim_asymm_v5,2020.2.10,Linux x86_64,60,61025ae37ef11b136ea224fe,,,,,,,,,2001,-69.55706787,108.2249146,1,0,0,response7disk,,0,3.660888672,-17.70953369,1,0,0,rectangle,125.87854,-86.86096191,1,0,0,5.350524902,-0.843261719,1,0,0,1,45,205,79,1,,response3disk_3,TRUE,5,5,"[314,46,50,206,81,297,200,318,50,274,224,259,221,163,186,260,215,177,191,165]",1.409,rectangle
,,,,,,,,,,,,,FF,,,,,,,,0.8917,,,,,,,,,,,,,,,,,,,,,,60fe4482b0994eea74bfd910,610377a95586e6728cc99516,2021-07-29_21h08.48.635,Simcolourproject_2stim_asymm_v5,2020.2.10,Linux x86_64,60,61025ae37ef11b136ea224fe,,,,,,,,,366,63.36169434,121.1556702,1,0,0,response1disk,,7,14.9251709,-7.027587891,1,0,0,rectangle,14.9251709,-7.027587891,1,0,0,14.9251709,-7.027587891,1,0,0,1,46,206,101,1,,,,,,,,
,,,,,,,,,,,,,FF,,,,,,,,1.4077,,,,,,,,,,,,,,,,,,,,,,60fe4482b0994eea74bfd910,610377a95586e6728cc99516,2021-07-29_21h08.48.635,Simcolourproject_2stim_asymm_v5,2020.2.10,Linux x86_64,60,61025ae37ef11b136ea224fe,,,,,,,,,18,-99.4074707,39.63562012,1,0,0,response7disk,,1,-13.23553467,-4.778747559,1,0,0,rectangle,-13.23553467,-4.778747559,1,0,0,-13.23553467,-4.778747559,1,0,0,1,47,207,88,1,,,,,,,,
,,,,,,,,,,,,,FF,,,,,,,,0.8283,,,,,,,,,,,,,,,,,,,,,,60fe4482b0994eea74bfd910,610377a95586e6728cc99516,2021-07-29_21h08.48.635,Simcolourproject_2stim_asymm_v5,2020.2.10,Linux x86_64,60,61025ae37ef11b136ea224fe,,,,,,,,,2774,-30.69525146,123.40448,1,0,0,response7disk,,0,-8.166625977,-3.092102051,1,0,0,rectangle,-8.166625977,-3.092102051,1,0,0,-8.166625977,-3.092102051,1,0,0,1,48,208,66,1,,,,,,,,
,,,,,,,,,,,,,FF,,,,,,,,1.2191,,,,,,,,,,,,,,,,,,,,,,60fe4482b0994eea74bfd910,610377a95586e6728cc99516,2021-07-29_21h08.48.635,Simcolourproject_2stim_asymm_v5,2020.2.10,Linux x86_64,60,61025ae37ef11b136ea224fe,,,,,,,,,2536,-60.54559326,-135.7730103,1,0,0,response5disk,,3,10.98266602,3.65435791,1,0,0,rectangle,10.98266602,3.65435791,1,0,0,10.98266602,3.65435791,1,0,0,1,49,209,138,1,,,,,,,,
,,,,,,,,,,,,,FF,,,,,,,,1.3479,,,,,,,,,,,,,,,,,,,,,,60fe4482b0994eea74bfd910,610377a95586e6728cc99516,2021-07-29_21h08.48.635,Simcolourproject_2stim_asymm_v5,2020.2.10,Linux x86_64,60,61025ae37ef11b136ea224fe,,,,,,,,,166,-110.6717529,-43.57104492,1,0,0,response5disk,,2,-10.41949463,10.96307373,1,0,0,rectangle,-10.41949463,10.96307373,1,0,0,-10.41949463,10.96307373,1,0,0,1,50,210,17,1,,,,,,,,
,,,,,,,,,,,,,FF,,,,,,,,0.9992,,,,,,,,,,,,,,,,,,,,,,60fe4482b0994eea74bfd910,610377a95586e6728cc99516,2021-07-29_21h08.48.635,Simcolourproject_2stim_asymm_v5,2020.2.10,Linux x86_64,60,61025ae37ef11b136ea224fe,,,,,,,,,3761,-117.4303589,45.25769043,1,0,0,response7disk,,1,2.534484863,-14.89849854,1,0,0,rectangle,2.534484863,-14.89849854,1,0,0,2.534484863,-14.89849854,1,0,0,1,51,211,78,1,,,,,,,,
,,,,,,,,,,,,,FF,,,,,,,,1.2475,,,,,,,,,,,,,,,,,,,,,,60fe4482b0994eea74bfd910,610377a95586e6728cc99516,2021-07-29_21h08.48.635,Simcolourproject_2stim_asymm_v5,2020.2.10,Linux x86_64,60,61025ae37ef11b136ea224fe,,,,,,,,,1522,131.5107422,-85.73657227,1,0,0,response3disk,,5,2.534484863,-5.903137207,1,0,0,rectangle,2.534484863,-5.903137207,1,0,0,2.534484863,-5.903137207,1,0,0,1,52,212,55,1,,,,,,,,
,,,,,,,,,,,,,FF,,,,,,,,1.115,,,,,,,,,,,,,,,,,,,,,,60fe4482b0994eea74bfd910,610377a95586e6728cc99516,2021-07-29_21h08.48.635,Simcolourproject_2stim_asymm_v5,2020.2.10,Linux x86_64,60,61025ae37ef11b136ea224fe,,,,,,,,,2974,-129.8210449,-69.99475098,1,0,0,response5disk,,2,-8.166625977,-0.281066895,1,0,0,rectangle,-8.166625977,-0.281066895,1,0,0,-8.166625977,-0.281066895,1,0,0,1,53,213,150,1,,,,,,,,
,,,,,,,,,,,,,FF,,,,,,,,0.6863,,,,,,,,,,,,,,,,,,,,,,60fe4482b0994eea74bfd910,610377a95586e6728cc99516,2021-07-29_21h08.48.635,Simcolourproject_2stim_asymm_v5,2020.2.10,Linux x86_64,60,61025ae37ef11b136ea224fe,,,,,,,,,1111,-72.93634033,113.2847595,1,0,0,response7disk,,0,5.913757324,-5.903137207,1,0,0,rectangle,-72.93634033,113.8469849,1,0,0,8.729858398,-13.77404785,1,0,0,1,54,214,134,1,,response7disk_3,TRUE,0,0,"[314,46,50,206,81,297,200,318,50,274,224,259,221,163,186,260,215,177,191,165]",1.363,rectangle
,,,,,,,,,,,,,FF,,,,,,,,0.9059,,,,,,,,,,,,,,,,,,,,,,60fe4482b0994eea74bfd910,610377a95586e6728cc99516,2021-07-29_21h08.48.635,Simcolourproject_2stim_asymm_v5,2020.2.10,Linux x86_64,60,61025ae37ef11b136ea224fe,,,,,,,,,3718,-115.7406616,64.3727417,1,0,0,response7disk,,1,27.31591797,-5.903137207,1,0,0,rectangle,27.31591797,-5.903137207,1,0,0,27.31591797,-5.903137207,1,0,0,1,55,215,39,1,,,,,,,,
,,,,,,,,,,,,,FF,,,,,,,,0.8698,,,,,,,,,,,,,,,,,,,,,,60fe4482b0994eea74bfd910,610377a95586e6728cc99516,2021-07-29_21h08.48.635,Simcolourproject_2stim_asymm_v5,2020.2.10,Linux x86_64,60,61025ae37ef11b136ea224fe,,,,,,,,,1690,-44.77557373,-146.4549561,1,0,0,response5disk,,3,13.23553467,-13.21185303,1,0,0,rectangle,13.23553467,-13.21185303,1,0,0,13.23553467,-13.21185303,1,0,0,1,56,216,122,1,,,,,,,,
,,,,,,,,,,,,,FF,,,,,,,,0.6678,,,,,,,,,,,,,,,,,,,,,,60fe4482b0994eea74bfd910,610377a95586e6728cc99516,2021-07-29_21h08.48.635,Simcolourproject_2stim_asymm_v5,2020.2.10,Linux x86_64,60,61025ae37ef11b136ea224fe,,,,,,,,,84,-63.36169434,121.1556702,1,0,0,response7disk,,0,9.856262207,-6.465332031,1,0,0,rectangle,9.856262207,-6.465332031,1,0,0,9.856262207,-6.465332031,1,0,0,1,57,217,81,1,,,,,,,,
,,,,,,,,,,,,,FF,,,,,,,,1.045,,,,,,,,,,,,,,,,,,,,,,60fe4482b0994eea74bfd910,610377a95586e6728cc99516,2021-07-29_21h08.48.635,Simcolourproject_2stim_asymm_v5,2020.2.10,Linux x86_64,60,61025ae37ef11b136ea224fe,,,,,,,,,3987,-115.1774902,41.32223511,1,0,0,response7disk,,1,0.844848633,-0.281066895,1,0,0,rectangle,0.844848633,-0.281066895,1,0,0,0.844848633,-0.281066895,1,0,0,1,58,218,52,1,,,,,,,,
,,,,,,,,,,,,,FF,,,,,,,,0.8471,,,,,,,,,,,,,,,,,,,,,,60fe4482b0994eea74bfd910,610377a95586e6728cc99516,2021-07-29_21h08.48.635,Simcolourproject_2stim_asymm_v5,2020.2.10,Linux x86_64,60,61025ae37ef11b136ea224fe,,,,,,,,,1998,-55.47668457,122.8422852,1,0,0,response7disk,,0,5.350524902,-13.21185303,1,0,0,rectangle,5.350524902,-13.21185303,1,0,0,5.350524902,-13.21185303,1,0,0,1,59,219,94,1,,,,,,,,
,,,,,,,,,,,,,FF,,,,,,,,0.7449,,,,,,,,,,,,,,,,,,,,,,60fe4482b0994eea74bfd910,610377a95586e6728cc99516,2021-07-29_21h08.48.635,Simcolourproject_2stim_asymm_v5,2020.2.10,Linux x86_64,60,61025ae37ef11b136ea224fe,,,,,,,,,538,-51.53417969,113.2847595,1,0,0,response7disk,,0,20.55737305,0.28112793,1,0,0,rectangle,128.1314697,-57.6262207,1,0,0,-6.476989746,-7.589782715,1,0,0,1,60,220,76,1,,response3disk_3,TRUE,5,5,"[314,46,50,206,81,297,200,318,50,274,224,259,221,163,186,260,215,177,191,165]",1.2458,rectangle
,,,,,,,,,,,,,FF,,,,,,,,0.9495,,,,,,,,,,,,,,,,,,,,,,60fe4482b0994eea74bfd910,610377a95586e6728cc99516,2021-07-29_21h08.48.635,Simcolourproject_2stim_asymm_v5,2020.2.10,Linux x86_64,60,61025ae37ef11b136ea224fe,,,,,,,,,1949,-49.84454346,-143.0817261,1,0,0,response5disk,,3,26.18951416,10.40087891,1,0,0,rectangle,26.18951416,10.40087891,1,0,0,26.18951416,10.40087891,1,0,0,1,61,221,13,1,,,,,,,,
,,,,,,,,,,,,,FF,,,,,,,,0.7932,,,,,,,,,,,,,,,,,,,,,,60fe4482b0994eea74bfd910,610377a95586e6728cc99516,2021-07-29_21h08.48.635,Simcolourproject_2stim_asymm_v5,2020.2.10,Linux x86_64,60,61025ae37ef11b136ea224fe,,,,,,,,,1622,-62.79846191,113.8469849,1,0,0,response7disk,,0,12.10913086,0.28112793,1,0,0,rectangle,12.10913086,0.28112793,1,0,0,12.10913086,0.28112793,1,0,0,1,62,222,157,1,,,,,,,,
,,,,,,,,,,,,,FF,,,,,,,,0.8259,,,,,,,,,,,,,,,,,,,,,,60fe4482b0994eea74bfd910,610377a95586e6728cc99516,2021-07-29_21h08.48.635,Simcolourproject_2stim_asymm_v5,2020.2.10,Linux x86_64,60,61025ae37ef11b136ea224fe,,,,,,,,,3162,-48.71807861,95.29412842,1,0,0,response7disk,,0,33.5112915,-15.46069336,1,0,0,rectangle,130.9475098,-77.3034668,1,0,0,14.36199951,9.838623047,1,0,0,1,63,223,50,1,,response3disk_3,TRUE,5,5,"[314,46,50,206,81,297,200,318,50,274,224,259,221,163,186,260,215,177,191,165]",1.1729,rectangle
,,,,,,,,,,,,,FF,,,,,,,,0.925,,,,,,,,,,,,,,,,,,,,,,60fe4482b0994eea74bfd910,610377a95586e6728cc99516,2021-07-29_21h08.48.635,Simcolourproject_2stim_asymm_v5,2020.2.10,Linux x86_64,60,61025ae37ef11b136ea224fe,,,,,,,,,183,-99.97064209,58.18847656,1,0,0,response7disk,,1,26.18951416,-7.589782715,1,0,0,rectangle,26.18951416,-7.589782715,1,0,0,26.18951416,-7.589782715,1,0,0,1,64,224,26,1,,,,,,,,
,,,,,,,,,,,,,FF,,,,,,,,0.6719,,,,,,,,,,,,,,,,,,,,,,60fe4482b0994eea74bfd910,610377a95586e6728cc99516,2021-07-29_21h08.48.635,Simcolourproject_2stim_asymm_v5,2020.2.10,Linux x86_64,60,61025ae37ef11b136ea224fe,,,,,,,,,2659,-48.15490723,123.9667053,1,0,0,response7disk,,0,29.56878662,-9.276367188,1,0,0,rectangle,29.56878662,-9.276367188,1,0,0,29.56878662,-9.276367188,1,0,0,1,65,225,102,1,,,,,,,,
,,,,,,,,,,,,,FF,,,,,,,,0.7,,,,,,,,,,,,,,,,,,,,,,60fe4482b0994eea74bfd910,610377a95586e6728cc99516,2021-07-29_21h08.48.635,Simcolourproject_2stim_asymm_v5,2020.2.10,Linux x86_64,60,61025ae37ef11b136ea224fe,,,,,,,,,1954,-52.09741211,125.6533203,1,0,0,response7disk,,0,29.0055542,-16.02288818,1,0,0,rectangle,29.0055542,-16.02288818,1,0,0,29.0055542,-16.02288818,1,0,0,1,66,226,96,1,,,,,,,,
,,,,,,,,,,,,,FF,,,,,,,,0.8593,,,,,,,,,,,,,,,,,,,,,,60fe4482b0994eea74bfd910,610377a95586e6728cc99516,2021-07-29_21h08.48.635,Simcolourproject_2stim_asymm_v5,2020.2.10,Linux x86_64,60,61025ae37ef11b136ea224fe,,,,,,,,,3921,-44.77557373,-145.3305054,1,0,0,response5disk,,3,42.52270508,-7.589782715,1,0,0,rectangle,42.52270508,-7.589782715,1,0,0,42.52270508,-7.589782715,1,0,0,1,67,227,158,1,,,,,,,,
,,,,,,,,,,,,,FF,,,,,,,,1.1008,,,,,,,,,,,,,,,,,,,,,,60fe4482b0994eea74bfd910,610377a95586e6728cc99516,2021-07-29_21h08.48.635,Simcolourproject_2stim_asymm_v5,2020.2.10,Linux x86_64,60,61025ae37ef11b136ea224fe,,,,,,,,,4098,-120.2463989,-63.81048584,1,0,0,response5disk,,2,-17.17803955,-10.9630127,1,0,0,rectangle,-17.17803955,-10.9630127,1,0,0,-17.17803955,-10.9630127,1,0,0,1,68,228,23,1,,,,,,,,
,,,,,,,,,,,,,FF,,,,,,,,0.7433,,,,,,,,,,,,,,,,,,,,,,60fe4482b0994eea74bfd910,610377a95586e6728cc99516,2021-07-29_21h08.48.635,Simcolourproject_2stim_asymm_v5,2020.2.10,Linux x86_64,60,61025ae37ef11b136ea224fe,,,,,,,,,2276,-52.6605835,111.0359497,1,0,0,response7disk,,0,38.01702881,8.152038574,1,0,0,rectangle,38.01702881,8.152038574,1,0,0,38.01702881,8.152038574,1,0,0,1,69,229,126,1,,,,,,,,
,,,,,,,,,,,,,FF,,,,,,,,0.8715,,,,,,,,,,,,,,,,,,,,,,60fe4482b0994eea74bfd910,610377a95586e6728cc99516,2021-07-29_21h08.48.635,Simcolourproject_2stim_asymm_v5,2020.2.10,Linux x86_64,60,61025ae37ef11b136ea224fe,,,,,,,,,2597,67.86743164,-145.8927612,1,0,0,response3disk,,4,30.69519043,-7.027587891,1,0,0,rectangle,30.69519043,-7.027587891,1,0,0,30.69519043,-7.027587891,1,0,0,1,70,230,51,1,,,,,,,,
,,,,,,,,,,,,,FF,,,,,,,,1.2687,,,,,,,,,,,,,,,,,,,,,,60fe4482b0994eea74bfd910,610377a95586e6728cc99516,2021-07-29_21h08.48.635,Simcolourproject_2stim_asymm_v5,2020.2.10,Linux x86_64,60,61025ae37ef11b136ea224fe,,,,,,,,,3357,-51.53417969,100.9161987,1,0,0,response7disk,,0,5.913757324,-13.77404785,1,0,0,rectangle,5.913757324,-13.77404785,1,0,0,5.913757324,-13.77404785,1,0,0,1,71,231,111,1,,,,,,,,
,,,,,,,,,,,,,FF,,,,,,,,0.9899,,,,,,,,,,,,,,,,,,,,,,60fe4482b0994eea74bfd910,610377a95586e6728cc99516,2021-07-29_21h08.48.635,Simcolourproject_2stim_asymm_v5,2020.2.10,Linux x86_64,60,61025ae37ef11b136ea224fe,,,,,,,,,569,-59.41918945,90.79647827,1,0,0,response7disk,,0,16.61486816,-7.589782715,1,0,0,rectangle,16.61486816,-7.589782715,1,0,0,16.61486816,-7.589782715,1,0,0,1,72,232,130,1,,,,,,,,
,,,,,,,,,,,,,FF,,,,,,,,0.9964,,,,,,,,,,,,,,,,,,,,,,60fe4482b0994eea74bfd910,610377a95586e6728cc99516,2021-07-29_21h08.48.635,Simcolourproject_2stim_asymm_v5,2020.2.10,Linux x86_64,60,61025ae37ef11b136ea224fe,,,,,,,,,2492,-111.2349854,-64.37268066,1,0,0,response5disk,,2,-7.603393555,0.28112793,1,0,0,rectangle,-7.603393555,0.28112793,1,0,0,-7.603393555,0.28112793,1,0,0,1,73,233,37,1,,,,,,,,
,,,,,,,,,,,,,FF,,,,,,,,0.6082,,,,,,,,,,,,,,,,,,,,,,60fe4482b0994eea74bfd910,610377a95586e6728cc99516,2021-07-29_21h08.48.635,Simcolourproject_2stim_asymm_v5,2020.2.10,Linux x86_64,60,61025ae37ef11b136ea224fe,,,,,,,,,2852,-44.77557373,114.9713745,1,0,0,response7disk,,0,21.12054443,-11.52520752,1,0,0,rectangle,21.12054443,-11.52520752,1,0,0,21.12054443,-11.52520752,1,0,0,1,74,234,131,1,,,,,,,,
,,,,,,,,,,,,,FF,,,,,,,,0.7946,,,,,,,,,,,,,,,,,,,,,,60fe4482b0994eea74bfd910,610377a95586e6728cc99516,2021-07-29_21h08.48.635,Simcolourproject_2stim_asymm_v5,2020.2.10,Linux x86_64,60,61025ae37ef11b136ea224fe,,,,,,,,,4046,75.18920898,116.65802,1,0,0,response1disk,,7,13.79876709,-8.714172363,1,0,0,rectangle,13.79876709,-8.714172363,1,0,0,13.79876709,-8.714172363,1,0,0,1,75,235,38,1,,,,,,,,
,,,,,,,,,,,,,FF,,,,,,,,0.7094,,,,,,,,,,,,,,,,,,,,,,60fe4482b0994eea74bfd910,610377a95586e6728cc99516,2021-07-29_21h08.48.635,Simcolourproject_2stim_asymm_v5,2020.2.10,Linux x86_64,60,61025ae37ef11b136ea224fe,,,,,,,,,1937,-45.90203857,106.538269,1,0,0,response7disk,,0,0.281616211,-12.08746338,1,0,0,rectangle,0.281616211,-12.08746338,1,0,0,0.281616211,-12.08746338,1,0,0,1,76,236,142,1,,,,,,,,
,,,,,,,,,,,,,FF,,,,,,,,0.6177,,,,,,,,,,,,,,,,,,,,,,60fe4482b0994eea74bfd910,610377a95586e6728cc99516,2021-07-29_21h08.48.635,Simcolourproject_2stim_asymm_v5,2020.2.10,Linux x86_64,60,61025ae37ef11b136ea224fe,,,,,,,,,800,-56.60308838,93.60751343,1,0,0,response7disk,,0,20.55737305,-10.40081787,1,0,0,rectangle,20.55737305,-10.40081787,1,0,0,20.55737305,-10.40081787,1,0,0,1,77,237,67,1,,,,,,,,
,,,,,,,,,,,,,FF,,,,,,,,0.5383,,,,,,,,,,,,,,,,,,,,,,60fe4482b0994eea74bfd910,610377a95586e6728cc99516,2021-07-29_21h08.48.635,Simcolourproject_2stim_asymm_v5,2020.2.10,Linux x86_64,60,61025ae37ef11b136ea224fe,,,,,,,,,2741,-56.60308838,105.4138489,1,0,0,response7disk,,0,27.31591797,-11.52520752,1,0,0,rectangle,27.31591797,-11.52520752,1,0,0,27.31591797,-11.52520752,1,0,0,1,78,238,98,1,,,,,,,,
