key_resp.keys,key_resp.rt,key_resp_14.keys,key_resp_14.rt,key_resp_15.keys,key_resp_15.rt,key_resp_17.keys,key_resp_17.rt,key_resp_9.keys,key_resp_9.rt,key_resp_10.keys,key_resp_10.rt,practice_comparison,Ecc,mouse_5.x,mouse_5.y,mouse_5.leftButton,mouse_5.midButton,mouse_5.rightButton,mouse_5.clicked_name,pracsimilarity,response_time,mouse_10.x,mouse_10.y,mouse_10.leftButton,mouse_10.midButton,mouse_10.rightButton,mouse_10.clicked_name,mouse_7.x,mouse_7.y,mouse_7.leftButton,mouse_7.midButton,mouse_7.rightButton,mouse_6.x,mouse_6.y,mouse_6.leftButton,mouse_6.midButton,mouse_6.rightButton,duringprac.thisRepN,duringprac.thisTrialN,duringprac.thisN,duringprac.thisIndex,duringprac.ran,participant,session,date,expName,psychopyVersion,OS,frameRate,study_id,mouse_7.clicked_name,catchpracsimilarity,catch_response_time,catchnumberprac,catchtrialorderprac,mouse_6.clicked_name,key_resp_22.keys,key_resp_22.rt,realcomparison,mouse.x,mouse.y,mouse.leftButton,mouse.midButton,mouse.rightButton,mouse.clicked_name,Colour2,similarity,mouse_2.x,mouse_2.y,mouse_2.leftButton,mouse_2.midButton,mouse_2.rightButton,mouse_2.clicked_name,mouse_3.x,mouse_3.y,mouse_3.leftButton,mouse_3.midButton,mouse_3.rightButton,mouse_3.clicked_name,catchornah,catchsimilarity,catchnumber,catchtrialorder,catchRT,mouse_11.x,mouse_11.y,mouse_11.leftButton,mouse_11.midButton,mouse_11.rightButton,mouse_11.clicked_name,trials_2.thisRepN,trials_2.thisTrialN,trials_2.thisN,trials_2.thisIndex,trials_2.ran,Colour1
space,0.762125,space,8.278125,space,35.8643,space,5.86453,space,1.43302,space,4.08067,97,FF,90.359375,-43.5078125,1,0,0,response3disk_5,5,10.938355,12.5625,1.81640625,1,0,0,rectangle_8,12.5625,1.81640625,1,0,0,12.5625,1.81640625,1,0,0,0,0,0,0,1,60fee7661415e50dba611521,61036ad8dba2c62fa6a56671,2021-07-29_22h59.02.697,Simcolourproject_2stim_asymm_v5,2020.2.10,MacIntel,60,61025ae37ef11b136ea224fe,,,,,,,,,,,,,,,,,,,,,,,,,,,,,,,,,,,,,,,,,,,,,,
,,,,,,,,,,,,24,PF,52.49609375,-97.6171875,1,0,0,response3disk_5,4,5.09765,4.16796875,-8.03125,1,0,0,rectangle_8,-85.1484375,26.01171875,1,0,0,-5.76171875,-8.57421875,1,0,0,0,1,1,4,1,60fee7661415e50dba611521,61036ad8dba2c62fa6a56671,2021-07-29_22h59.02.697,Simcolourproject_2stim_asymm_v5,2020.2.10,MacIntel,60,61025ae37ef11b136ea224fe,response7disk_7,1,2.73551,1,"[2,5]",rectangle_4,,,,,,,,,,,,,,,,,,,,,,,,,,,,,,,,,,,,,,,,
,,,,,,,,,,,,129,PF,-36.390625,-82.67578125,1,0,0,response5disk_5,3,1.967485,-3.6328125,7.47265625,1,0,0,rectangle_8,-3.6328125,7.47265625,1,0,0,-3.6328125,7.47265625,1,0,0,0,2,2,2,1,60fee7661415e50dba611521,61036ad8dba2c62fa6a56671,2021-07-29_22h59.02.697,Simcolourproject_2stim_asymm_v5,2020.2.10,MacIntel,60,61025ae37ef11b136ea224fe,,,,,,,,,,,,,,,,,,,,,,,,,,,,,,,,,,,,,,,,,,,,,,
,,,,,,,,,,,,51,FF,29.0390625,-68.13671875,1,0,0,response3disk_5,4,1.567155,3.5703125,0.52734375,1,0,0,rectangle_8,3.5703125,0.52734375,1,0,0,3.5703125,0.52734375,1,0,0,0,3,3,3,1,60fee7661415e50dba611521,61036ad8dba2c62fa6a56671,2021-07-29_22h59.02.697,Simcolourproject_2stim_asymm_v5,2020.2.10,MacIntel,60,61025ae37ef11b136ea224fe,,,,,,,,,,,,,,,,,,,,,,,,,,,,,,,,,,,,,,,,,,,,,,
,,,,,,,,,,,,126,PF,-85.9296875,-34.1953125,1,0,0,response5disk_5,2,1.567005,-14.02734375,-2.11328125,1,0,0,rectangle_8,-99.59375,36.0625,1,0,0,-15.6875,-2.7890625,1,0,0,0,4,4,1,1,60fee7661415e50dba611521,61036ad8dba2c62fa6a56671,2021-07-29_22h59.02.697,Simcolourproject_2stim_asymm_v5,2020.2.10,MacIntel,60,61025ae37ef11b136ea224fe,response7disk_7,1,1.5657,1,"[2,5]",rectangle_4,,,,,,,,,,,,,,,,,,,,,,,,,,,,,,,,,,,,,,,,
,,,,,,,,,,,,11,PF,73.26171875,25.0625,1,0,0,response1disk_5,6,1.765335,-5.078125,-11.66015625,1,0,0,rectangle_8,-5.078125,-11.66015625,1,0,0,-5.078125,-11.66015625,1,0,0,0,5,5,6,1,60fee7661415e50dba611521,61036ad8dba2c62fa6a56671,2021-07-29_22h59.02.697,Simcolourproject_2stim_asymm_v5,2020.2.10,MacIntel,60,61025ae37ef11b136ea224fe,,,,,,,,,,,,,,,,,,,,,,,,,,,,,,,,,,,,,,,,,,,,,,
,,,,,,,,,,,,96,FF,59.7578125,-28.359375,1,0,0,response3disk_5,5,1.43422,16.5078125,-9.14453125,1,0,0,rectangle_8,16.5078125,-9.14453125,1,0,0,16.5078125,-9.14453125,1,0,0,0,6,6,5,1,60fee7661415e50dba611521,61036ad8dba2c62fa6a56671,2021-07-29_22h59.02.697,Simcolourproject_2stim_asymm_v5,2020.2.10,MacIntel,60,61025ae37ef11b136ea224fe,,,,,,,,,,,,,,,,,,,,,,,,,,,,,,,,,,,,,,,,,,,,,,
,,,,,,,,,,,,,FF,,,,,,,,2.14984,,,,,,,,,,,,,,,,,,,,,,60fee7661415e50dba611521,61036ad8dba2c62fa6a56671,2021-07-29_22h59.02.697,Simcolourproject_2stim_asymm_v5,2020.2.10,MacIntel,60,61025ae37ef11b136ea224fe,,,,,,,space,2.34283,1386,-30.54296875,-75.55078125,1,0,0,response5disk,,3,9.4765625,2.33984375,1,0,0,rectangle,-99.09375,15.58203125,1,0,0,response7disk_3,TRUE,1,1,"[76,48,307,127,17,219,1,245,295,194,169,33,157,149,96,270,114,120,227,305]",1.25089,-24.578125,-8.77734375,1,0,0,rectangle,0,0,0,121,1,
,,,,,,,,,,,,,FF,,,,,,,,3.532705,,,,,,,,,,,,,,,,,,,,,,60fee7661415e50dba611521,61036ad8dba2c62fa6a56671,2021-07-29_22h59.02.697,Simcolourproject_2stim_asymm_v5,2020.2.10,MacIntel,60,61025ae37ef11b136ea224fe,,,,,,,,,3275,60.1953125,-29.53125,1,0,0,response3disk,,5,2.79296875,-7.640625,1,0,0,rectangle,2.79296875,-7.640625,1,0,0,,,,,,,2.79296875,-7.640625,1,0,0,,0,1,1,40,1,
,,,,,,,,,,,,,FF,,,,,,,,1.167095,,,,,,,,,,,,,,,,,,,,,,60fee7661415e50dba611521,61036ad8dba2c62fa6a56671,2021-07-29_22h59.02.697,Simcolourproject_2stim_asymm_v5,2020.2.10,MacIntel,60,61025ae37ef11b136ea224fe,,,,,,,,,2602,-38.1640625,-65.7265625,1,0,0,response5disk,,3,-0.3515625,0.30859375,1,0,0,rectangle,-0.3515625,0.30859375,1,0,0,,,,,,,-0.3515625,0.30859375,1,0,0,,0,2,2,82,1,
,,,,,,,,,,,,,FF,,,,,,,,3.63416,,,,,,,,,,,,,,,,,,,,,,60fee7661415e50dba611521,61036ad8dba2c62fa6a56671,2021-07-29_22h59.02.697,Simcolourproject_2stim_asymm_v5,2020.2.10,MacIntel,60,61025ae37ef11b136ea224fe,,,,,,,,,928,80.28125,-29.2578125,1,0,0,response3disk,,5,5.02734375,-6.2265625,1,0,0,rectangle,5.02734375,-6.2265625,1,0,0,,,,,,,5.02734375,-6.2265625,1,0,0,,0,3,3,39,1,
,,,,,,,,,,,,,FF,,,,,,,,2.20106,,,,,,,,,,,,,,,,,,,,,,60fee7661415e50dba611521,61036ad8dba2c62fa6a56671,2021-07-29_22h59.02.697,Simcolourproject_2stim_asymm_v5,2020.2.10,MacIntel,60,61025ae37ef11b136ea224fe,,,,,,,,,4176,31.5546875,-64.5625,1,0,0,response3disk,,4,14.18359375,-8.234375,1,0,0,rectangle,14.18359375,-8.234375,1,0,0,,,,,,,14.18359375,-8.234375,1,0,0,,0,4,4,115,1,
,,,,,,,,,,,,,FF,,,,,,,,1.065815,,,,,,,,,,,,,,,,,,,,,,60fee7661415e50dba611521,61036ad8dba2c62fa6a56671,2021-07-29_22h59.02.697,Simcolourproject_2stim_asymm_v5,2020.2.10,MacIntel,60,61025ae37ef11b136ea224fe,,,,,,,,,4183,-52.80859375,-30.296875,1,0,0,response5disk,,2,4.65234375,3.29296875,1,0,0,rectangle,4.65234375,3.29296875,1,0,0,,,,,,,4.65234375,3.29296875,1,0,0,,0,5,5,88,1,
,,,,,,,,,,,,,FF,,,,,,,,0.932925,,,,,,,,,,,,,,,,,,,,,,60fee7661415e50dba611521,61036ad8dba2c62fa6a56671,2021-07-29_22h59.02.697,Simcolourproject_2stim_asymm_v5,2020.2.10,MacIntel,60,61025ae37ef11b136ea224fe,,,,,,,,,2725,-27.98046875,-64.984375,1,0,0,response5disk,,3,8.76953125,-8.078125,1,0,0,rectangle,8.76953125,-8.078125,1,0,0,,,,,,,8.76953125,-8.078125,1,0,0,,0,6,6,92,1,
,,,,,,,,,,,,,FF,,,,,,,,1.766955,,,,,,,,,,,,,,,,,,,,,,60fee7661415e50dba611521,61036ad8dba2c62fa6a56671,2021-07-29_22h59.02.697,Simcolourproject_2stim_asymm_v5,2020.2.10,MacIntel,60,61025ae37ef11b136ea224fe,,,,,,,,,2474,37.54296875,-65.7578125,1,0,0,response3disk,,4,24.23828125,-16.64453125,1,0,0,rectangle,24.23828125,-16.64453125,1,0,0,,,,,,,24.23828125,-16.64453125,1,0,0,,0,7,7,111,1,
,,,,,,,,,,,,,FF,,,,,,,,0.982865,,,,,,,,,,,,,,,,,,,,,,60fee7661415e50dba611521,61036ad8dba2c62fa6a56671,2021-07-29_22h59.02.697,Simcolourproject_2stim_asymm_v5,2020.2.10,MacIntel,60,61025ae37ef11b136ea224fe,,,,,,,,,1529,32.6484375,-48.78515625,1,0,0,response3disk,,4,28.15234375,-5.640625,1,0,0,rectangle,28.15234375,-5.640625,1,0,0,,,,,,,28.15234375,-5.640625,1,0,0,,0,8,8,18,1,
,,,,,,,,,,,,,FF,,,,,,,,0.73466,,,,,,,,,,,,,,,,,,,,,,60fee7661415e50dba611521,61036ad8dba2c62fa6a56671,2021-07-29_22h59.02.697,Simcolourproject_2stim_asymm_v5,2020.2.10,MacIntel,60,61025ae37ef11b136ea224fe,,,,,,,,,3810,-74,36.828125,1,0,0,response7disk,,1,11.18359375,5.4765625,1,0,0,rectangle,11.18359375,5.4765625,1,0,0,,,,,,,11.18359375,5.4765625,1,0,0,,0,9,9,105,1,
,,,,,,,,,,,,,FF,,,,,,,,2.735255,,,,,,,,,,,,,,,,,,,,,,60fee7661415e50dba611521,61036ad8dba2c62fa6a56671,2021-07-29_22h59.02.697,Simcolourproject_2stim_asymm_v5,2020.2.10,MacIntel,60,61025ae37ef11b136ea224fe,,,,,,,,,1955,37.9921875,-71.97265625,1,0,0,response3disk,,4,9.72265625,9.08203125,1,0,0,rectangle,9.72265625,9.08203125,1,0,0,,,,,,,9.72265625,9.08203125,1,0,0,,0,10,10,139,1,
,,,,,,,,,,,,,FF,,,,,,,,1.150135,,,,,,,,,,,,,,,,,,,,,,60fee7661415e50dba611521,61036ad8dba2c62fa6a56671,2021-07-29_22h59.02.697,Simcolourproject_2stim_asymm_v5,2020.2.10,MacIntel,60,61025ae37ef11b136ea224fe,,,,,,,,,2072,67.53125,-31.0703125,1,0,0,response3disk,,5,10.1796875,-2.93359375,1,0,0,rectangle,10.1796875,-2.93359375,1,0,0,,,,,,,10.1796875,-2.93359375,1,0,0,,0,11,11,7,1,
,,,,,,,,,,,,,FF,,,,,,,,1.81527,,,,,,,,,,,,,,,,,,,,,,60fee7661415e50dba611521,61036ad8dba2c62fa6a56671,2021-07-29_22h59.02.697,Simcolourproject_2stim_asymm_v5,2020.2.10,MacIntel,60,61025ae37ef11b136ea224fe,,,,,,,,,1586,-39.52734375,-72.921875,1,0,0,response5disk,,3,-3.4609375,7.96875,1,0,0,rectangle,-3.4609375,7.96875,1,0,0,,,,,,,-3.4609375,7.96875,1,0,0,,0,12,12,153,1,
,,,,,,,,,,,,,FF,,,,,,,,1.232975,,,,,,,,,,,,,,,,,,,,,,60fee7661415e50dba611521,61036ad8dba2c62fa6a56671,2021-07-29_22h59.02.697,Simcolourproject_2stim_asymm_v5,2020.2.10,MacIntel,60,61025ae37ef11b136ea224fe,,,,,,,,,44,-22.58984375,-43.90234375,1,0,0,response5disk,,3,-6.625,-7.78125,1,0,0,rectangle,-6.625,-7.78125,1,0,0,,,,,,,-6.625,-7.78125,1,0,0,,0,13,13,59,1,
,,,,,,,,,,,,,FF,,,,,,,,2.016855,,,,,,,,,,,,,,,,,,,,,,60fee7661415e50dba611521,61036ad8dba2c62fa6a56671,2021-07-29_22h59.02.697,Simcolourproject_2stim_asymm_v5,2020.2.10,MacIntel,60,61025ae37ef11b136ea224fe,,,,,,,,,2618,27.12890625,-54.26953125,1,0,0,response3disk,,4,21.97265625,-4.2578125,1,0,0,rectangle,21.97265625,-4.2578125,1,0,0,,,,,,,21.97265625,-4.2578125,1,0,0,,0,14,14,112,1,
,,,,,,,,,,,,,FF,,,,,,,,0.882255,,,,,,,,,,,,,,,,,,,,,,60fee7661415e50dba611521,61036ad8dba2c62fa6a56671,2021-07-29_22h59.02.697,Simcolourproject_2stim_asymm_v5,2020.2.10,MacIntel,60,61025ae37ef11b136ea224fe,,,,,,,,,2868,49.9765625,-29.7265625,1,0,0,response3disk,,5,22.921875,-6.85546875,1,0,0,rectangle,22.921875,-6.85546875,1,0,0,,,,,,,22.921875,-6.85546875,1,0,0,,0,15,15,17,1,
,,,,,,,,,,,,,FF,,,,,,,,0.918185,,,,,,,,,,,,,,,,,,,,,,60fee7661415e50dba611521,61036ad8dba2c62fa6a56671,2021-07-29_22h59.02.697,Simcolourproject_2stim_asymm_v5,2020.2.10,MacIntel,60,61025ae37ef11b136ea224fe,,,,,,,,,953,-17.6953125,-36.16796875,1,0,0,response5disk,,3,1.9375,8.62890625,1,0,0,rectangle,72.296875,-17.42578125,1,0,0,response3disk_3,TRUE,5,5,"[76,48,307,127,17,219,1,245,295,194,169,33,157,149,96,270,114,120,227,305]",1.750165,-0.11328125,-2.8671875,1,0,0,rectangle,0,16,16,93,1,
,,,,,,,,,,,,,FF,,,,,,,,1.684105,,,,,,,,,,,,,,,,,,,,,,60fee7661415e50dba611521,61036ad8dba2c62fa6a56671,2021-07-29_22h59.02.697,Simcolourproject_2stim_asymm_v5,2020.2.10,MacIntel,60,61025ae37ef11b136ea224fe,,,,,,,,,112,35.359375,-73.67578125,1,0,0,response3disk,,4,2.68359375,-17.7421875,1,0,0,rectangle,2.68359375,-17.7421875,1,0,0,,,,,,,2.68359375,-17.7421875,1,0,0,,0,17,17,116,1,
,,,,,,,,,,,,,FF,,,,,,,,0.966335,,,,,,,,,,,,,,,,,,,,,,60fee7661415e50dba611521,61036ad8dba2c62fa6a56671,2021-07-29_22h59.02.697,Simcolourproject_2stim_asymm_v5,2020.2.10,MacIntel,60,61025ae37ef11b136ea224fe,,,,,,,,,3823,48.05859375,-53.453125,1,0,0,response3disk,,4,15.0703125,-5.953125,1,0,0,rectangle,15.0703125,-5.953125,1,0,0,,,,,,,15.0703125,-5.953125,1,0,0,,0,18,18,14,1,
,,,,,,,,,,,,,FF,,,,,,,,0.70048,,,,,,,,,,,,,,,,,,,,,,60fee7661415e50dba611521,61036ad8dba2c62fa6a56671,2021-07-29_22h59.02.697,Simcolourproject_2stim_asymm_v5,2020.2.10,MacIntel,60,61025ae37ef11b136ea224fe,,,,,,,,,139,66.11328125,-32.5078125,1,0,0,response3disk,,5,10.0078125,-1.95703125,1,0,0,rectangle,10.0078125,-1.95703125,1,0,0,,,,,,,10.0078125,-1.95703125,1,0,0,,0,19,19,94,1,
,,,,,,,,,,,,,FF,,,,,,,,0.76815,,,,,,,,,,,,,,,,,,,,,,60fee7661415e50dba611521,61036ad8dba2c62fa6a56671,2021-07-29_22h59.02.697,Simcolourproject_2stim_asymm_v5,2020.2.10,MacIntel,60,61025ae37ef11b136ea224fe,,,,,,,,,2420,-104.0898438,50.34765625,1,0,0,response7disk,,1,-10.41796875,6.83984375,1,0,0,rectangle,-10.41796875,6.83984375,1,0,0,,,,,,,-10.41796875,6.83984375,1,0,0,,0,20,20,126,1,
,,,,,,,,,,,,,FF,,,,,,,,1.634395,,,,,,,,,,,,,,,,,,,,,,60fee7661415e50dba611521,61036ad8dba2c62fa6a56671,2021-07-29_22h59.02.697,Simcolourproject_2stim_asymm_v5,2020.2.10,MacIntel,60,61025ae37ef11b136ea224fe,,,,,,,,,2070,49.91796875,-25.33203125,1,0,0,response3disk,,5,-2.1640625,-2.3203125,1,0,0,rectangle,-2.1640625,-2.3203125,1,0,0,,,,,,,-2.1640625,-2.3203125,1,0,0,,0,21,21,89,1,
,,,,,,,,,,,,,FF,,,,,,,,1.767345,,,,,,,,,,,,,,,,,,,,,,60fee7661415e50dba611521,61036ad8dba2c62fa6a56671,2021-07-29_22h59.02.697,Simcolourproject_2stim_asymm_v5,2020.2.10,MacIntel,60,61025ae37ef11b136ea224fe,,,,,,,,,2140,42.58984375,-55.25,1,0,0,response3disk,,4,10.25,-10.26171875,1,0,0,rectangle,10.25,-10.26171875,1,0,0,,,,,,,10.25,-10.26171875,1,0,0,,0,22,22,74,1,
,,,,,,,,,,,,,FF,,,,,,,,0.816065,,,,,,,,,,,,,,,,,,,,,,60fee7661415e50dba611521,61036ad8dba2c62fa6a56671,2021-07-29_22h59.02.697,Simcolourproject_2stim_asymm_v5,2020.2.10,MacIntel,60,61025ae37ef11b136ea224fe,,,,,,,,,1022,56.94140625,-37.01171875,1,0,0,response3disk,,5,11.88671875,-1.21875,1,0,0,rectangle,11.88671875,-1.21875,1,0,0,,,,,,,11.88671875,-1.21875,1,0,0,,0,23,23,48,1,
,,,,,,,,,,,,,FF,,,,,,,,2.09877,,,,,,,,,,,,,,,,,,,,,,60fee7661415e50dba611521,61036ad8dba2c62fa6a56671,2021-07-29_22h59.02.697,Simcolourproject_2stim_asymm_v5,2020.2.10,MacIntel,60,61025ae37ef11b136ea224fe,,,,,,,,,1546,36.10546875,-49.26171875,1,0,0,response3disk,,4,-2.359375,0.5234375,1,0,0,rectangle,-2.359375,0.5234375,1,0,0,,,,,,,-2.359375,0.5234375,1,0,0,,0,24,24,9,1,
,,,,,,,,,,,,,FF,,,,,,,,0.749215,,,,,,,,,,,,,,,,,,,,,,60fee7661415e50dba611521,61036ad8dba2c62fa6a56671,2021-07-29_22h59.02.697,Simcolourproject_2stim_asymm_v5,2020.2.10,MacIntel,60,61025ae37ef11b136ea224fe,,,,,,,,,1164,45.30078125,-59.40625,1,0,0,response3disk,,4,13.19140625,5.27734375,1,0,0,rectangle,13.19140625,5.27734375,1,0,0,,,,,,,13.19140625,5.27734375,1,0,0,,0,25,25,136,1,
,,,,,,,,,,,,,FF,,,,,,,,1.33325,,,,,,,,,,,,,,,,,,,,,,60fee7661415e50dba611521,61036ad8dba2c62fa6a56671,2021-07-29_22h59.02.697,Simcolourproject_2stim_asymm_v5,2020.2.10,MacIntel,60,61025ae37ef11b136ea224fe,,,,,,,,,4112,24.43359375,-48.71875,1,0,0,response3disk,,4,3.05078125,-2.6796875,1,0,0,rectangle,3.05078125,-2.6796875,1,0,0,,,,,,,3.05078125,-2.6796875,1,0,0,,0,26,26,44,1,
,,,,,,,,,,,,,FF,,,,,,,,1.01814,,,,,,,,,,,,,,,,,,,,,,60fee7661415e50dba611521,61036ad8dba2c62fa6a56671,2021-07-29_22h59.02.697,Simcolourproject_2stim_asymm_v5,2020.2.10,MacIntel,60,61025ae37ef11b136ea224fe,,,,,,,,,1298,-71.9296875,-21.17578125,1,0,0,response5disk,,2,18.19140625,0.390625,1,0,0,rectangle,18.19140625,0.390625,1,0,0,,,,,,,18.19140625,0.390625,1,0,0,,0,27,27,118,1,
,,,,,,,,,,,,,FF,,,,,,,,1.41752,,,,,,,,,,,,,,,,,,,,,,60fee7661415e50dba611521,61036ad8dba2c62fa6a56671,2021-07-29_22h59.02.697,Simcolourproject_2stim_asymm_v5,2020.2.10,MacIntel,60,61025ae37ef11b136ea224fe,,,,,,,,,1333,63.85546875,-35.16796875,1,0,0,response3disk,,5,3.5546875,-0.41015625,1,0,0,rectangle,3.5546875,-0.41015625,1,0,0,,,,,,,3.5546875,-0.41015625,1,0,0,,0,28,28,42,1,
,,,,,,,,,,,,,FF,,,,,,,,2.032295,,,,,,,,,,,,,,,,,,,,,,60fee7661415e50dba611521,61036ad8dba2c62fa6a56671,2021-07-29_22h59.02.697,Simcolourproject_2stim_asymm_v5,2020.2.10,MacIntel,60,61025ae37ef11b136ea224fe,,,,,,,,,2313,46.47265625,-30.796875,1,0,0,response3disk,,5,19.76953125,-7.83984375,1,0,0,rectangle,19.76953125,-7.83984375,1,0,0,,,,,,,19.76953125,-7.83984375,1,0,0,,0,29,29,29,1,
,,,,,,,,,,,,,FF,,,,,,,,0.766255,,,,,,,,,,,,,,,,,,,,,,60fee7661415e50dba611521,61036ad8dba2c62fa6a56671,2021-07-29_22h59.02.697,Simcolourproject_2stim_asymm_v5,2020.2.10,MacIntel,60,61025ae37ef11b136ea224fe,,,,,,,,,3071,30.72265625,-67.76953125,1,0,0,response3disk,,4,6.63671875,-10.4296875,1,0,0,rectangle,6.63671875,-10.4296875,1,0,0,,,,,,,6.63671875,-10.4296875,1,0,0,,0,30,30,90,1,
,,,,,,,,,,,,,FF,,,,,,,,1.74973,,,,,,,,,,,,,,,,,,,,,,60fee7661415e50dba611521,61036ad8dba2c62fa6a56671,2021-07-29_22h59.02.697,Simcolourproject_2stim_asymm_v5,2020.2.10,MacIntel,60,61025ae37ef11b136ea224fe,,,,,,,,,3987,71.578125,-18.46484375,1,0,0,response3disk,,5,23.17578125,14.13671875,1,0,0,rectangle,23.17578125,14.13671875,1,0,0,,,,,,,23.17578125,14.13671875,1,0,0,,0,31,31,36,1,
,,,,,,,,,,,,,FF,,,,,,,,0.91778,,,,,,,,,,,,,,,,,,,,,,60fee7661415e50dba611521,61036ad8dba2c62fa6a56671,2021-07-29_22h59.02.697,Simcolourproject_2stim_asymm_v5,2020.2.10,MacIntel,60,61025ae37ef11b136ea224fe,,,,,,,,,2000,78.69921875,29.5546875,1,0,0,response1disk,,6,18.5078125,15.1953125,1,0,0,rectangle,-40.16015625,-80.96875,1,0,0,response5disk_3,TRUE,3,3,"[76,48,307,127,17,219,1,245,295,194,169,33,157,149,96,270,114,120,227,305]",1.80089,2.56640625,3.50390625,1,0,0,rectangle,0,32,32,8,1,
,,,,,,,,,,,,,FF,,,,,,,,0.8331,,,,,,,,,,,,,,,,,,,,,,60fee7661415e50dba611521,61036ad8dba2c62fa6a56671,2021-07-29_22h59.02.697,Simcolourproject_2stim_asymm_v5,2020.2.10,MacIntel,60,61025ae37ef11b136ea224fe,,,,,,,,,3465,-34.37890625,-56.34375,1,0,0,response5disk,,3,-11.33203125,-4.09375,1,0,0,rectangle,-11.33203125,-4.09375,1,0,0,,,,,,,-11.33203125,-4.09375,1,0,0,,0,33,33,104,1,
,,,,,,,,,,,,,FF,,,,,,,,1.384015,,,,,,,,,,,,,,,,,,,,,,60fee7661415e50dba611521,61036ad8dba2c62fa6a56671,2021-07-29_22h59.02.697,Simcolourproject_2stim_asymm_v5,2020.2.10,MacIntel,60,61025ae37ef11b136ea224fe,,,,,,,,,3261,57.29296875,-33.9375,1,0,0,response3disk,,5,15.53125,-6.74609375,1,0,0,rectangle,15.53125,-6.74609375,1,0,0,,,,,,,15.53125,-6.74609375,1,0,0,,0,34,34,102,1,
,,,,,,,,,,,,,FF,,,,,,,,1.03335,,,,,,,,,,,,,,,,,,,,,,60fee7661415e50dba611521,61036ad8dba2c62fa6a56671,2021-07-29_22h59.02.697,Simcolourproject_2stim_asymm_v5,2020.2.10,MacIntel,60,61025ae37ef11b136ea224fe,,,,,,,,,3878,28.05078125,-58.03125,1,0,0,response3disk,,4,10.92578125,-10.01953125,1,0,0,rectangle,10.92578125,-10.01953125,1,0,0,,,,,,,10.92578125,-10.01953125,1,0,0,,0,35,35,71,1,
,,,,,,,,,,,,,FF,,,,,,,,0.78386,,,,,,,,,,,,,,,,,,,,,,60fee7661415e50dba611521,61036ad8dba2c62fa6a56671,2021-07-29_22h59.02.697,Simcolourproject_2stim_asymm_v5,2020.2.10,MacIntel,60,61025ae37ef11b136ea224fe,,,,,,,,,1753,-60.734375,-23.19921875,1,0,0,response5disk,,2,-5.98046875,-6.0546875,1,0,0,rectangle,-5.98046875,-6.0546875,1,0,0,,,,,,,-5.98046875,-6.0546875,1,0,0,,0,36,36,31,1,
,,,,,,,,,,,,,FF,,,,,,,,0.750485,,,,,,,,,,,,,,,,,,,,,,60fee7661415e50dba611521,61036ad8dba2c62fa6a56671,2021-07-29_22h59.02.697,Simcolourproject_2stim_asymm_v5,2020.2.10,MacIntel,60,61025ae37ef11b136ea224fe,,,,,,,,,2095,-44.375,-20.7578125,1,0,0,response5disk,,2,-3.2578125,-9.234375,1,0,0,rectangle,-3.2578125,-9.234375,1,0,0,,,,,,,-3.2578125,-9.234375,1,0,0,,0,37,37,137,1,
,,,,,,,,,,,,,FF,,,,,,,,1.417765,,,,,,,,,,,,,,,,,,,,,,60fee7661415e50dba611521,61036ad8dba2c62fa6a56671,2021-07-29_22h59.02.697,Simcolourproject_2stim_asymm_v5,2020.2.10,MacIntel,60,61025ae37ef11b136ea224fe,,,,,,,,,1661,-68.10546875,-18.93359375,1,0,0,response5disk,,2,-34.44140625,-1.15625,1,0,0,rectangle,-34.44140625,-1.15625,1,0,0,,,,,,,-34.44140625,-1.15625,1,0,0,,0,38,38,156,1,
,,,,,,,,,,,,,FF,,,,,,,,1.466195,,,,,,,,,,,,,,,,,,,,,,60fee7661415e50dba611521,61036ad8dba2c62fa6a56671,2021-07-29_22h59.02.697,Simcolourproject_2stim_asymm_v5,2020.2.10,MacIntel,60,61025ae37ef11b136ea224fe,,,,,,,,,828,64.8125,-24.66796875,1,0,0,response3disk,,5,20.46875,-14.08984375,1,0,0,rectangle,20.46875,-14.08984375,1,0,0,,,,,,,20.46875,-14.08984375,1,0,0,,0,39,39,147,1,
,,,,,,,,,,,,,FF,,,,,,,,0.702195,,,,,,,,,,,,,,,,,,,,,,60fee7661415e50dba611521,61036ad8dba2c62fa6a56671,2021-07-29_22h59.02.697,Simcolourproject_2stim_asymm_v5,2020.2.10,MacIntel,60,61025ae37ef11b136ea224fe,,,,,,,,,2376,37.421875,-24.0703125,1,0,0,response3disk,,5,16.453125,-7.37890625,1,0,0,rectangle,16.453125,-7.37890625,1,0,0,,,,,,,16.453125,-7.37890625,1,0,0,,0,40,40,81,1,
,,,,,,,,,,,,,FF,,,,,,,,0.799815,,,,,,,,,,,,,,,,,,,,,,60fee7661415e50dba611521,61036ad8dba2c62fa6a56671,2021-07-29_22h59.02.697,Simcolourproject_2stim_asymm_v5,2020.2.10,MacIntel,60,61025ae37ef11b136ea224fe,,,,,,,,,2972,33.16015625,81.1875,1,0,0,response1disk,,7,9.5625,8.34375,1,0,0,rectangle,9.5625,8.34375,1,0,0,,,,,,,9.5625,8.34375,1,0,0,,0,41,41,76,1,
,,,,,,,,,,,,,FF,,,,,,,,1.51747,,,,,,,,,,,,,,,,,,,,,,60fee7661415e50dba611521,61036ad8dba2c62fa6a56671,2021-07-29_22h59.02.697,Simcolourproject_2stim_asymm_v5,2020.2.10,MacIntel,60,61025ae37ef11b136ea224fe,,,,,,,,,82,-82.25,28.95703125,1,0,0,response7disk,,1,-21.05859375,-7.85546875,1,0,0,rectangle,-21.05859375,-7.85546875,1,0,0,,,,,,,-21.05859375,-7.85546875,1,0,0,,0,42,42,58,1,
,,,,,,,,,,,,,FF,,,,,,,,1.26573,,,,,,,,,,,,,,,,,,,,,,60fee7661415e50dba611521,61036ad8dba2c62fa6a56671,2021-07-29_22h59.02.697,Simcolourproject_2stim_asymm_v5,2020.2.10,MacIntel,60,61025ae37ef11b136ea224fe,,,,,,,,,1578,-30.25390625,-42.47265625,1,0,0,response5disk,,3,-11.7265625,-5.94140625,1,0,0,rectangle,-11.7265625,-5.94140625,1,0,0,,,,,,,-11.7265625,-5.94140625,1,0,0,,0,43,43,2,1,
,,,,,,,,,,,,,FF,,,,,,,,1.41806,,,,,,,,,,,,,,,,,,,,,,60fee7661415e50dba611521,61036ad8dba2c62fa6a56671,2021-07-29_22h59.02.697,Simcolourproject_2stim_asymm_v5,2020.2.10,MacIntel,60,61025ae37ef11b136ea224fe,,,,,,,,,3380,78.96484375,35.29296875,1,0,0,response1disk,,6,8.859375,-0.2890625,1,0,0,rectangle,8.859375,-0.2890625,1,0,0,,,,,,,8.859375,-0.2890625,1,0,0,,0,44,44,123,1,
,,,,,,,,,,,,,FF,,,,,,,,1.466,,,,,,,,,,,,,,,,,,,,,,60fee7661415e50dba611521,61036ad8dba2c62fa6a56671,2021-07-29_22h59.02.697,Simcolourproject_2stim_asymm_v5,2020.2.10,MacIntel,60,61025ae37ef11b136ea224fe,,,,,,,,,959,-57.05078125,-27.43359375,1,0,0,response5disk,,2,-5.1796875,3.12890625,1,0,0,rectangle,-5.1796875,3.12890625,1,0,0,,,,,,,-5.1796875,3.12890625,1,0,0,,0,45,45,140,1,
,,,,,,,,,,,,,FF,,,,,,,,1.58343,,,,,,,,,,,,,,,,,,,,,,60fee7661415e50dba611521,61036ad8dba2c62fa6a56671,2021-07-29_22h59.02.697,Simcolourproject_2stim_asymm_v5,2020.2.10,MacIntel,60,61025ae37ef11b136ea224fe,,,,,,,,,1502,73.625,-19.50390625,1,0,0,response3disk,,5,32.46875,7.31640625,1,0,0,rectangle,32.46875,7.31640625,1,0,0,,,,,,,32.46875,7.31640625,1,0,0,,0,46,46,130,1,
,,,,,,,,,,,,,FF,,,,,,,,1.848825,,,,,,,,,,,,,,,,,,,,,,60fee7661415e50dba611521,61036ad8dba2c62fa6a56671,2021-07-29_22h59.02.697,Simcolourproject_2stim_asymm_v5,2020.2.10,MacIntel,60,61025ae37ef11b136ea224fe,,,,,,,,,2766,74.4609375,23.25,1,0,0,response1disk,,6,18.20703125,5.703125,1,0,0,rectangle,-44.65625,-83.30078125,1,0,0,response5disk_3,TRUE,3,3,"[76,48,307,127,17,219,1,245,295,194,169,33,157,149,96,270,114,120,227,305]",1.333105,-0.40234375,-2.234375,1,0,0,rectangle,0,47,47,4,1,
,,,,,,,,,,,,,FF,,,,,,,,1.06881,,,,,,,,,,,,,,,,,,,,,,60fee7661415e50dba611521,61036ad8dba2c62fa6a56671,2021-07-29_22h59.02.697,Simcolourproject_2stim_asymm_v5,2020.2.10,MacIntel,60,61025ae37ef11b136ea224fe,,,,,,,,,3882,-41.2421875,80.48046875,1,0,0,response7disk,,0,-7.125,4.69140625,1,0,0,rectangle,-7.125,4.69140625,1,0,0,,,,,,,-7.125,4.69140625,1,0,0,,0,48,48,138,1,
,,,,,,,,,,,,,FF,,,,,,,,1.11625,,,,,,,,,,,,,,,,,,,,,,60fee7661415e50dba611521,61036ad8dba2c62fa6a56671,2021-07-29_22h59.02.697,Simcolourproject_2stim_asymm_v5,2020.2.10,MacIntel,60,61025ae37ef11b136ea224fe,,,,,,,,,1536,-59.63671875,-25.3828125,1,0,0,response5disk,,2,-13.0703125,-10.02734375,1,0,0,rectangle,-13.0703125,-10.02734375,1,0,0,,,,,,,-13.0703125,-10.02734375,1,0,0,,0,49,49,72,1,
,,,,,,,,,,,,,FF,,,,,,,,1.249815,,,,,,,,,,,,,,,,,,,,,,60fee7661415e50dba611521,61036ad8dba2c62fa6a56671,2021-07-29_22h59.02.697,Simcolourproject_2stim_asymm_v5,2020.2.10,MacIntel,60,61025ae37ef11b136ea224fe,,,,,,,,,196,-22.50390625,-52.8125,1,0,0,response5disk,,3,-5.8671875,2.265625,1,0,0,rectangle,-5.8671875,2.265625,1,0,0,,,,,,,-5.8671875,2.265625,1,0,0,,0,50,50,133,1,
,,,,,,,,,,,,,FF,,,,,,,,1.150795,,,,,,,,,,,,,,,,,,,,,,60fee7661415e50dba611521,61036ad8dba2c62fa6a56671,2021-07-29_22h59.02.697,Simcolourproject_2stim_asymm_v5,2020.2.10,MacIntel,60,61025ae37ef11b136ea224fe,,,,,,,,,1437,68.56640625,-40.5546875,1,0,0,response3disk,,5,27.87890625,-1.41796875,1,0,0,rectangle,27.87890625,-1.41796875,1,0,0,,,,,,,27.87890625,-1.41796875,1,0,0,,0,51,51,51,1,
,,,,,,,,,,,,,FF,,,,,,,,1.01675,,,,,,,,,,,,,,,,,,,,,,60fee7661415e50dba611521,61036ad8dba2c62fa6a56671,2021-07-29_22h59.02.697,Simcolourproject_2stim_asymm_v5,2020.2.10,MacIntel,60,61025ae37ef11b136ea224fe,,,,,,,,,2605,-82.14453125,-21.453125,1,0,0,response5disk,,2,-17.2265625,0.62890625,1,0,0,rectangle,-17.2265625,0.62890625,1,0,0,,,,,,,-17.2265625,0.62890625,1,0,0,,0,52,52,80,1,
,,,,,,,,,,,,,FF,,,,,,,,1.300405,,,,,,,,,,,,,,,,,,,,,,60fee7661415e50dba611521,61036ad8dba2c62fa6a56671,2021-07-29_22h59.02.697,Simcolourproject_2stim_asymm_v5,2020.2.10,MacIntel,60,61025ae37ef11b136ea224fe,,,,,,,,,3944,-33.06640625,-62.69140625,1,0,0,response5disk,,3,-15.4765625,-7.1484375,1,0,0,rectangle,-15.4765625,-7.1484375,1,0,0,,,,,,,-15.4765625,-7.1484375,1,0,0,,0,53,53,62,1,
,,,,,,,,,,,,,FF,,,,,,,,0.88231,,,,,,,,,,,,,,,,,,,,,,60fee7661415e50dba611521,61036ad8dba2c62fa6a56671,2021-07-29_22h59.02.697,Simcolourproject_2stim_asymm_v5,2020.2.10,MacIntel,60,61025ae37ef11b136ea224fe,,,,,,,,,1690,-35.98046875,-58.61328125,1,0,0,response5disk,,3,-5.46875,7,1,0,0,rectangle,-5.46875,7,1,0,0,,,,,,,-5.46875,7,1,0,0,,0,54,54,49,1,
,,,,,,,,,,,,,FF,,,,,,,,0.61758,,,,,,,,,,,,,,,,,,,,,,60fee7661415e50dba611521,61036ad8dba2c62fa6a56671,2021-07-29_22h59.02.697,Simcolourproject_2stim_asymm_v5,2020.2.10,MacIntel,60,61025ae37ef11b136ea224fe,,,,,,,,,3382,-89.09375,46.08984375,1,0,0,response7disk,,1,-18.30078125,16.33984375,1,0,0,rectangle,-18.30078125,16.33984375,1,0,0,,,,,,,-18.30078125,16.33984375,1,0,0,,0,55,55,150,1,
,,,,,,,,,,,,,FF,,,,,,,,2.58143,,,,,,,,,,,,,,,,,,,,,,60fee7661415e50dba611521,61036ad8dba2c62fa6a56671,2021-07-29_22h59.02.697,Simcolourproject_2stim_asymm_v5,2020.2.10,MacIntel,60,61025ae37ef11b136ea224fe,,,,,,,,,1417,73.10546875,-40.94140625,1,0,0,response3disk,,5,21.953125,-5.84765625,1,0,0,rectangle,21.953125,-5.84765625,1,0,0,,,,,,,21.953125,-5.84765625,1,0,0,,0,56,56,23,1,
,,,,,,,,,,,,,FF,,,,,,,,0.6684,,,,,,,,,,,,,,,,,,,,,,60fee7661415e50dba611521,61036ad8dba2c62fa6a56671,2021-07-29_22h59.02.697,Simcolourproject_2stim_asymm_v5,2020.2.10,MacIntel,60,61025ae37ef11b136ea224fe,,,,,,,,,3034,49.98828125,-31.41015625,1,0,0,response3disk,,5,29.546875,-1.4375,1,0,0,rectangle,29.546875,-1.4375,1,0,0,,,,,,,29.546875,-1.4375,1,0,0,,0,57,57,33,1,
,,,,,,,,,,,,,FF,,,,,,,,0.883105,,,,,,,,,,,,,,,,,,,,,,60fee7661415e50dba611521,61036ad8dba2c62fa6a56671,2021-07-29_22h59.02.697,Simcolourproject_2stim_asymm_v5,2020.2.10,MacIntel,60,61025ae37ef11b136ea224fe,,,,,,,,,3086,45.84375,95.10546875,1,0,0,response1disk,,7,11.140625,3.640625,1,0,0,rectangle,11.140625,3.640625,1,0,0,,,,,,,11.140625,3.640625,1,0,0,,0,58,58,145,1,
,,,,,,,,,,,,,FF,,,,,,,,0.717595,,,,,,,,,,,,,,,,,,,,,,60fee7661415e50dba611521,61036ad8dba2c62fa6a56671,2021-07-29_22h59.02.697,Simcolourproject_2stim_asymm_v5,2020.2.10,MacIntel,60,61025ae37ef11b136ea224fe,,,,,,,,,4218,-82.24609375,31.6171875,1,0,0,response7disk,,1,-19.89453125,16.49609375,1,0,0,rectangle,-19.89453125,16.49609375,1,0,0,,,,,,,-19.89453125,16.49609375,1,0,0,,0,59,59,128,1,
,,,,,,,,,,,,,FF,,,,,,,,1.1991,,,,,,,,,,,,,,,,,,,,,,60fee7661415e50dba611521,61036ad8dba2c62fa6a56671,2021-07-29_22h59.02.697,Simcolourproject_2stim_asymm_v5,2020.2.10,MacIntel,60,61025ae37ef11b136ea224fe,,,,,,,,,1144,-62.19921875,-36.58203125,1,0,0,response5disk,,2,-3.97265625,2.359375,1,0,0,rectangle,-3.97265625,2.359375,1,0,0,,,,,,,-3.97265625,2.359375,1,0,0,,0,60,60,135,1,
,,,,,,,,,,,,,FF,,,,,,,,1.400015,,,,,,,,,,,,,,,,,,,,,,60fee7661415e50dba611521,61036ad8dba2c62fa6a56671,2021-07-29_22h59.02.697,Simcolourproject_2stim_asymm_v5,2020.2.10,MacIntel,60,61025ae37ef11b136ea224fe,,,,,,,,,1339,61.77734375,29.1640625,1,0,0,response1disk,,6,15.82421875,-9.29296875,1,0,0,rectangle,15.82421875,-9.29296875,1,0,0,,,,,,,15.82421875,-9.29296875,1,0,0,,0,61,61,10,1,
,,,,,,,,,,,,,FF,,,,,,,,0.73359,,,,,,,,,,,,,,,,,,,,,,60fee7661415e50dba611521,61036ad8dba2c62fa6a56671,2021-07-29_22h59.02.697,Simcolourproject_2stim_asymm_v5,2020.2.10,MacIntel,60,61025ae37ef11b136ea224fe,,,,,,,,,2816,64.90625,-28.19921875,1,0,0,response3disk,,5,9.8046875,-8.6796875,1,0,0,rectangle,9.8046875,-8.6796875,1,0,0,,,,,,,9.8046875,-8.6796875,1,0,0,,0,62,62,141,1,
,,,,,,,,,,,,,FF,,,,,,,,0.999395,,,,,,,,,,,,,,,,,,,,,,60fee7661415e50dba611521,61036ad8dba2c62fa6a56671,2021-07-29_22h59.02.697,Simcolourproject_2stim_asymm_v5,2020.2.10,MacIntel,60,61025ae37ef11b136ea224fe,,,,,,,,,1691,-31.33984375,-54.9453125,1,0,0,response5disk,,3,-10.01953125,-1.625,1,0,0,rectangle,-10.01953125,-1.625,1,0,0,,,,,,,-10.01953125,-1.625,1,0,0,,0,63,63,69,1,
,,,,,,,,,,,,,FF,,,,,,,,1.3675,,,,,,,,,,,,,,,,,,,,,,60fee7661415e50dba611521,61036ad8dba2c62fa6a56671,2021-07-29_22h59.02.697,Simcolourproject_2stim_asymm_v5,2020.2.10,MacIntel,60,61025ae37ef11b136ea224fe,,,,,,,,,3077,60.71875,-33.67578125,1,0,0,response3disk,,5,-3.68359375,-10.9375,1,0,0,rectangle,-3.68359375,-10.9375,1,0,0,,,,,,,-3.68359375,-10.9375,1,0,0,,0,64,64,114,1,
,,,,,,,,,,,,,FF,,,,,,,,0.75053,,,,,,,,,,,,,,,,,,,,,,60fee7661415e50dba611521,61036ad8dba2c62fa6a56671,2021-07-29_22h59.02.697,Simcolourproject_2stim_asymm_v5,2020.2.10,MacIntel,60,61025ae37ef11b136ea224fe,,,,,,,,,2616,77.97265625,26.40234375,1,0,0,response1disk,,6,12.15234375,4.1171875,1,0,0,rectangle,12.15234375,4.1171875,1,0,0,,,,,,,12.15234375,4.1171875,1,0,0,,0,65,65,124,1,
,,,,,,,,,,,,,FF,,,,,,,,0.800155,,,,,,,,,,,,,,,,,,,,,,60fee7661415e50dba611521,61036ad8dba2c62fa6a56671,2021-07-29_22h59.02.697,Simcolourproject_2stim_asymm_v5,2020.2.10,MacIntel,60,61025ae37ef11b136ea224fe,,,,,,,,,2162,-59.5703125,-20.01171875,1,0,0,response5disk,,2,-10.65234375,5.85546875,1,0,0,rectangle,-10.65234375,5.85546875,1,0,0,,,,,,,-10.65234375,5.85546875,1,0,0,,0,66,66,38,1,
,,,,,,,,,,,,,FF,,,,,,,,1.0015,,,,,,,,,,,,,,,,,,,,,,60fee7661415e50dba611521,61036ad8dba2c62fa6a56671,2021-07-29_22h59.02.697,Simcolourproject_2stim_asymm_v5,2020.2.10,MacIntel,60,61025ae37ef11b136ea224fe,,,,,,,,,2821,62.015625,32.98828125,1,0,0,response1disk,,6,22.63671875,7.78515625,1,0,0,rectangle,22.63671875,7.78515625,1,0,0,,,,,,,22.63671875,7.78515625,1,0,0,,0,67,67,120,1,
,,,,,,,,,,,,,FF,,,,,,,,0.83452,,,,,,,,,,,,,,,,,,,,,,60fee7661415e50dba611521,61036ad8dba2c62fa6a56671,2021-07-29_22h59.02.697,Simcolourproject_2stim_asymm_v5,2020.2.10,MacIntel,60,61025ae37ef11b136ea224fe,,,,,,,,,3983,-46.8984375,-28.66796875,1,0,0,response5disk,,2,-9.21484375,-1.484375,1,0,0,rectangle,-9.21484375,-1.484375,1,0,0,,,,,,,-9.21484375,-1.484375,1,0,0,,0,68,68,79,1,
,,,,,,,,,,,,,FF,,,,,,,,1.26698,,,,,,,,,,,,,,,,,,,,,,60fee7661415e50dba611521,61036ad8dba2c62fa6a56671,2021-07-29_22h59.02.697,Simcolourproject_2stim_asymm_v5,2020.2.10,MacIntel,60,61025ae37ef11b136ea224fe,,,,,,,,,321,29.9140625,85.9140625,1,0,0,response1disk,,7,-8.06640625,-6.4921875,1,0,0,rectangle,-8.06640625,-6.4921875,1,0,0,,,,,,,-8.06640625,-6.4921875,1,0,0,,0,69,69,157,1,
,,,,,,,,,,,,,FF,,,,,,,,1.051455,,,,,,,,,,,,,,,,,,,,,,60fee7661415e50dba611521,61036ad8dba2c62fa6a56671,2021-07-29_22h59.02.697,Simcolourproject_2stim_asymm_v5,2020.2.10,MacIntel,60,61025ae37ef11b136ea224fe,,,,,,,,,71,-26.1953125,-68.328125,1,0,0,response5disk,,3,-18.6875,-0.8515625,1,0,0,rectangle,-18.6875,-0.8515625,1,0,0,,,,,,,-18.6875,-0.8515625,1,0,0,,0,70,70,32,1,
,,,,,,,,,,,,,FF,,,,,,,,0.83464,,,,,,,,,,,,,,,,,,,,,,60fee7661415e50dba611521,61036ad8dba2c62fa6a56671,2021-07-29_22h59.02.697,Simcolourproject_2stim_asymm_v5,2020.2.10,MacIntel,60,61025ae37ef11b136ea224fe,,,,,,,,,1093,78.515625,48.39453125,1,0,0,response1disk,,6,12.16796875,14.8046875,1,0,0,rectangle,12.16796875,14.8046875,1,0,0,,,,,,,12.16796875,14.8046875,1,0,0,,0,71,71,152,1,
,,,,,,,,,,,,,FF,,,,,,,,0.84965,,,,,,,,,,,,,,,,,,,,,,60fee7661415e50dba611521,61036ad8dba2c62fa6a56671,2021-07-29_22h59.02.697,Simcolourproject_2stim_asymm_v5,2020.2.10,MacIntel,60,61025ae37ef11b136ea224fe,,,,,,,,,2433,44.60546875,-84.91796875,1,0,0,response3disk,,4,17.37890625,-4.8359375,1,0,0,rectangle,17.37890625,-4.8359375,1,0,0,,,,,,,17.37890625,-4.8359375,1,0,0,,0,72,72,37,1,
,,,,,,,,,,,,,FF,,,,,,,,1.117695,,,,,,,,,,,,,,,,,,,,,,60fee7661415e50dba611521,61036ad8dba2c62fa6a56671,2021-07-29_22h59.02.697,Simcolourproject_2stim_asymm_v5,2020.2.10,MacIntel,60,61025ae37ef11b136ea224fe,,,,,,,,,4168,-79.87890625,-31.1640625,1,0,0,response5disk,,2,-17.87109375,7.07421875,1,0,0,rectangle,-17.87109375,7.07421875,1,0,0,,,,,,,-17.87109375,7.07421875,1,0,0,,0,73,73,132,1,
,,,,,,,,,,,,,FF,,,,,,,,2.216115,,,,,,,,,,,,,,,,,,,,,,60fee7661415e50dba611521,61036ad8dba2c62fa6a56671,2021-07-29_22h59.02.697,Simcolourproject_2stim_asymm_v5,2020.2.10,MacIntel,60,61025ae37ef11b136ea224fe,,,,,,,,,1972,-72.265625,-27.375,1,0,0,response5disk,,2,-31.859375,-3.5078125,1,0,0,rectangle,-31.859375,-3.5078125,1,0,0,,,,,,,-31.859375,-3.5078125,1,0,0,,0,74,74,27,1,
,,,,,,,,,,,,,FF,,,,,,,,0.766305,,,,,,,,,,,,,,,,,,,,,,60fee7661415e50dba611521,61036ad8dba2c62fa6a56671,2021-07-29_22h59.02.697,Simcolourproject_2stim_asymm_v5,2020.2.10,MacIntel,60,61025ae37ef11b136ea224fe,,,,,,,,,1641,32.28515625,69.94140625,1,0,0,response1disk,,7,0.54296875,-11.94140625,1,0,0,rectangle,-86.16796875,41.390625,1,0,0,response7disk_3,TRUE,1,1,"[76,48,307,127,17,219,1,245,295,194,169,33,157,149,96,270,114,120,227,305]",1.166155,-3.19140625,7.17578125,1,0,0,rectangle,0,75,75,30,1,
,,,,,,,,,,,,,FF,,,,,,,,0.76567,,,,,,,,,,,,,,,,,,,,,,60fee7661415e50dba611521,61036ad8dba2c62fa6a56671,2021-07-29_22h59.02.697,Simcolourproject_2stim_asymm_v5,2020.2.10,MacIntel,60,61025ae37ef11b136ea224fe,,,,,,,,,3381,-33.85546875,89.796875,1,0,0,response7disk,,0,15.09375,-2.03125,1,0,0,rectangle,15.09375,-2.03125,1,0,0,,,,,,,15.09375,-2.03125,1,0,0,,0,76,76,16,1,
,,,,,,,,,,,,,FF,,,,,,,,1.43339,,,,,,,,,,,,,,,,,,,,,,60fee7661415e50dba611521,61036ad8dba2c62fa6a56671,2021-07-29_22h59.02.697,Simcolourproject_2stim_asymm_v5,2020.2.10,MacIntel,60,61025ae37ef11b136ea224fe,,,,,,,,,2124,81.00390625,-39.265625,1,0,0,response3disk,,5,17.6796875,-7.30078125,1,0,0,rectangle,17.6796875,-7.30078125,1,0,0,,,,,,,17.6796875,-7.30078125,1,0,0,,0,77,77,41,1,
,,,,,,,,,,,,,FF,,,,,,,,0.934295,,,,,,,,,,,,,,,,,,,,,,60fee7661415e50dba611521,61036ad8dba2c62fa6a56671,2021-07-29_22h59.02.697,Simcolourproject_2stim_asymm_v5,2020.2.10,MacIntel,60,61025ae37ef11b136ea224fe,,,,,,,,,3089,-78.28515625,23.0078125,1,0,0,response7disk,,1,-21.828125,-7,1,0,0,rectangle,-21.828125,-7,1,0,0,,,,,,,-21.828125,-7,1,0,0,,0,78,78,122,1,
,,,,,,,,,,,,,FF,,,,,,,,1.3168,,,,,,,,,,,,,,,,,,,,,,60fee7661415e50dba611521,61036ad8dba2c62fa6a56671,2021-07-29_22h59.02.697,Simcolourproject_2stim_asymm_v5,2020.2.10,MacIntel,60,61025ae37ef11b136ea224fe,,,,,,,,,3495,30.6484375,-78.0390625,1,0,0,response3disk,,4,1.70703125,-15.12109375,1,0,0,rectangle,1.70703125,-15.12109375,1,0,0,,,,,,,1.70703125,-15.12109375,1,0,0,,0,79,79,65,1,
,,,,,,,,,,,,,FF,,,,,,,,0.65012,,,,,,,,,,,,,,,,,,,,,,60fee7661415e50dba611521,61036ad8dba2c62fa6a56671,2021-07-29_22h59.02.697,Simcolourproject_2stim_asymm_v5,2020.2.10,MacIntel,60,61025ae37ef11b136ea224fe,,,,,,,,,417,32.3671875,-82.88671875,1,0,0,response3disk,,4,1.84765625,-13.3203125,1,0,0,rectangle,1.84765625,-13.3203125,1,0,0,,,,,,,1.84765625,-13.3203125,1,0,0,,0,80,80,1,1,
,,,,,,,,,,,,,FF,,,,,,,,0.816275,,,,,,,,,,,,,,,,,,,,,,60fee7661415e50dba611521,61036ad8dba2c62fa6a56671,2021-07-29_22h59.02.697,Simcolourproject_2stim_asymm_v5,2020.2.10,MacIntel,60,61025ae37ef11b136ea224fe,,,,,,,,,3004,-92.73828125,-15.609375,1,0,0,response5disk,,2,-27.515625,8.3828125,1,0,0,rectangle,-27.515625,8.3828125,1,0,0,,,,,,,-27.515625,8.3828125,1,0,0,,0,81,81,134,1,
,,,,,,,,,,,,,FF,,,,,,,,1.95037,,,,,,,,,,,,,,,,,,,,,,60fee7661415e50dba611521,61036ad8dba2c62fa6a56671,2021-07-29_22h59.02.697,Simcolourproject_2stim_asymm_v5,2020.2.10,MacIntel,60,61025ae37ef11b136ea224fe,,,,,,,,,4015,37.1171875,-75.41796875,1,0,0,response3disk,,4,5.48828125,-2.94140625,1,0,0,rectangle,5.48828125,-2.94140625,1,0,0,,,,,,,5.48828125,-2.94140625,1,0,0,,0,82,82,117,1,
,,,,,,,,,,,,,FF,,,,,,,,0.931135,,,,,,,,,,,,,,,,,,,,,,60fee7661415e50dba611521,61036ad8dba2c62fa6a56671,2021-07-29_22h59.02.697,Simcolourproject_2stim_asymm_v5,2020.2.10,MacIntel,60,61025ae37ef11b136ea224fe,,,,,,,,,3335,82.01171875,37.38671875,1,0,0,response1disk,,6,-8.27734375,5.31640625,1,0,0,rectangle,-8.27734375,5.31640625,1,0,0,,,,,,,-8.27734375,5.31640625,1,0,0,,0,83,83,108,1,
,,,,,,,,,,,,,FF,,,,,,,,0.70329,,,,,,,,,,,,,,,,,,,,,,60fee7661415e50dba611521,61036ad8dba2c62fa6a56671,2021-07-29_22h59.02.697,Simcolourproject_2stim_asymm_v5,2020.2.10,MacIntel,60,61025ae37ef11b136ea224fe,,,,,,,,,4240,-62.96484375,-23.109375,1,0,0,response5disk,,2,-11.37890625,0.3046875,1,0,0,rectangle,-11.37890625,0.3046875,1,0,0,,,,,,,-11.37890625,0.3046875,1,0,0,,0,84,84,73,1,
,,,,,,,,,,,,,FF,,,,,,,,0.76466,,,,,,,,,,,,,,,,,,,,,,60fee7661415e50dba611521,61036ad8dba2c62fa6a56671,2021-07-29_22h59.02.697,Simcolourproject_2stim_asymm_v5,2020.2.10,MacIntel,60,61025ae37ef11b136ea224fe,,,,,,,,,3156,-74.08984375,40.1796875,1,0,0,response7disk,,1,-7.99609375,4.29296875,1,0,0,rectangle,-7.99609375,4.29296875,1,0,0,,,,,,,-7.99609375,4.29296875,1,0,0,,0,85,85,57,1,
,,,,,,,,,,,,,FF,,,,,,,,1.349305,,,,,,,,,,,,,,,,,,,,,,60fee7661415e50dba611521,61036ad8dba2c62fa6a56671,2021-07-29_22h59.02.697,Simcolourproject_2stim_asymm_v5,2020.2.10,MacIntel,60,61025ae37ef11b136ea224fe,,,,,,,,,52,58.9453125,-31.55078125,1,0,0,response3disk,,5,18.875,-9.48828125,1,0,0,rectangle,18.875,-9.48828125,1,0,0,,,,,,,18.875,-9.48828125,1,0,0,,0,86,86,13,1,
,,,,,,,,,,,,,FF,,,,,,,,0.682995,,,,,,,,,,,,,,,,,,,,,,60fee7661415e50dba611521,61036ad8dba2c62fa6a56671,2021-07-29_22h59.02.697,Simcolourproject_2stim_asymm_v5,2020.2.10,MacIntel,60,61025ae37ef11b136ea224fe,,,,,,,,,2037,-73.83984375,-29.25390625,1,0,0,response5disk,,2,-0.16796875,0.8515625,1,0,0,rectangle,-0.16796875,0.8515625,1,0,0,,,,,,,-0.16796875,0.8515625,1,0,0,,0,87,87,155,1,
,,,,,,,,,,,,,FF,,,,,,,,1.285195,,,,,,,,,,,,,,,,,,,,,,60fee7661415e50dba611521,61036ad8dba2c62fa6a56671,2021-07-29_22h59.02.697,Simcolourproject_2stim_asymm_v5,2020.2.10,MacIntel,60,61025ae37ef11b136ea224fe,,,,,,,,,4090,-20.80859375,-89.921875,1,0,0,response5disk,,3,8.6953125,-0.09765625,1,0,0,rectangle,8.6953125,-0.09765625,1,0,0,,,,,,,8.6953125,-0.09765625,1,0,0,,0,88,88,70,1,
,,,,,,,,,,,,,FF,,,,,,,,0.949525,,,,,,,,,,,,,,,,,,,,,,60fee7661415e50dba611521,61036ad8dba2c62fa6a56671,2021-07-29_22h59.02.697,Simcolourproject_2stim_asymm_v5,2020.2.10,MacIntel,60,61025ae37ef11b136ea224fe,,,,,,,,,601,66.52734375,28.14453125,1,0,0,response1disk,,6,21.12890625,9.546875,1,0,0,rectangle,21.12890625,9.546875,1,0,0,,,,,,,21.12890625,9.546875,1,0,0,,0,89,89,21,1,
,,,,,,,,,,,,,FF,,,,,,,,0.81707,,,,,,,,,,,,,,,,,,,,,,60fee7661415e50dba611521,61036ad8dba2c62fa6a56671,2021-07-29_22h59.02.697,Simcolourproject_2stim_asymm_v5,2020.2.10,MacIntel,60,61025ae37ef11b136ea224fe,,,,,,,,,3677,-80.5390625,-23.97265625,1,0,0,response5disk,,2,-28.81640625,10.18359375,1,0,0,rectangle,-28.81640625,10.18359375,1,0,0,,,,,,,-28.81640625,10.18359375,1,0,0,,0,90,90,146,1,
,,,,,,,,,,,,,FF,,,,,,,,0.96675,,,,,,,,,,,,,,,,,,,,,,60fee7661415e50dba611521,61036ad8dba2c62fa6a56671,2021-07-29_22h59.02.697,Simcolourproject_2stim_asymm_v5,2020.2.10,MacIntel,60,61025ae37ef11b136ea224fe,,,,,,,,,4061,-27.69921875,-73.140625,1,0,0,response5disk,,3,-24.49609375,-9.12890625,1,0,0,rectangle,-24.49609375,-9.12890625,1,0,0,,,,,,,-24.49609375,-9.12890625,1,0,0,,0,91,91,154,1,
,,,,,,,,,,,,,FF,,,,,,,,0.76768,,,,,,,,,,,,,,,,,,,,,,60fee7661415e50dba611521,61036ad8dba2c62fa6a56671,2021-07-29_22h59.02.697,Simcolourproject_2stim_asymm_v5,2020.2.10,MacIntel,60,61025ae37ef11b136ea224fe,,,,,,,,,297,65.1484375,21.2734375,1,0,0,response1disk,,6,29.9921875,-6.88671875,1,0,0,rectangle,29.9921875,-6.88671875,1,0,0,,,,,,,29.9921875,-6.88671875,1,0,0,,0,92,92,66,1,
,,,,,,,,,,,,,FF,,,,,,,,0.716905,,,,,,,,,,,,,,,,,,,,,,60fee7661415e50dba611521,61036ad8dba2c62fa6a56671,2021-07-29_22h59.02.697,Simcolourproject_2stim_asymm_v5,2020.2.10,MacIntel,60,61025ae37ef11b136ea224fe,,,,,,,,,2388,77.1328125,33.6484375,1,0,0,response1disk,,6,13.71484375,3.140625,1,0,0,rectangle,13.71484375,3.140625,1,0,0,,,,,,,13.71484375,3.140625,1,0,0,,0,93,93,50,1,
,,,,,,,,,,,,,FF,,,,,,,,0.56682,,,,,,,,,,,,,,,,,,,,,,60fee7661415e50dba611521,61036ad8dba2c62fa6a56671,2021-07-29_22h59.02.697,Simcolourproject_2stim_asymm_v5,2020.2.10,MacIntel,60,61025ae37ef11b136ea224fe,,,,,,,,,3227,50.921875,78.5703125,1,0,0,response1disk,,7,20.41015625,7.7109375,1,0,0,rectangle,20.41015625,7.7109375,1,0,0,,,,,,,20.41015625,7.7109375,1,0,0,,0,94,94,6,1,
,,,,,,,,,,,,,FF,,,,,,,,0.90016,,,,,,,,,,,,,,,,,,,,,,60fee7661415e50dba611521,61036ad8dba2c62fa6a56671,2021-07-29_22h59.02.697,Simcolourproject_2stim_asymm_v5,2020.2.10,MacIntel,60,61025ae37ef11b136ea224fe,,,,,,,,,2180,20.1875,-69.94921875,1,0,0,response3disk,,4,-19.1953125,0.93359375,1,0,0,rectangle,-49.375,115.40625,1,0,0,response7disk_3,TRUE,0,0,"[76,48,307,127,17,219,1,245,295,194,169,33,157,149,96,270,114,120,227,305]",1.481925,4.73828125,2.72265625,1,0,0,rectangle,0,95,95,15,1,
,,,,,,,,,,,,,FF,,,,,,,,0.86669,,,,,,,,,,,,,,,,,,,,,,60fee7661415e50dba611521,61036ad8dba2c62fa6a56671,2021-07-29_22h59.02.697,Simcolourproject_2stim_asymm_v5,2020.2.10,MacIntel,60,61025ae37ef11b136ea224fe,,,,,,,,,2619,-24.21484375,-61.8125,1,0,0,response5disk,,3,-5.94921875,-9.6640625,1,0,0,rectangle,-5.94921875,-9.6640625,1,0,0,,,,,,,-5.94921875,-9.6640625,1,0,0,,0,96,96,56,1,
,,,,,,,,,,,,,FF,,,,,,,,0.93302,,,,,,,,,,,,,,,,,,,,,,60fee7661415e50dba611521,61036ad8dba2c62fa6a56671,2021-07-29_22h59.02.697,Simcolourproject_2stim_asymm_v5,2020.2.10,MacIntel,60,61025ae37ef11b136ea224fe,,,,,,,,,2963,78.43359375,42.28515625,1,0,0,response1disk,,6,11,12.640625,1,0,0,rectangle,11,12.640625,1,0,0,,,,,,,11,12.640625,1,0,0,,0,97,97,77,1,
,,,,,,,,,,,,,FF,,,,,,,,0.58408,,,,,,,,,,,,,,,,,,,,,,60fee7661415e50dba611521,61036ad8dba2c62fa6a56671,2021-07-29_22h59.02.697,Simcolourproject_2stim_asymm_v5,2020.2.10,MacIntel,60,61025ae37ef11b136ea224fe,,,,,,,,,2748,69.98046875,28.703125,1,0,0,response1disk,,6,5.36328125,-1.90234375,1,0,0,rectangle,5.36328125,-1.90234375,1,0,0,,,,,,,5.36328125,-1.90234375,1,0,0,,0,98,98,131,1,
,,,,,,,,,,,,,FF,,,,,,,,0.53367,,,,,,,,,,,,,,,,,,,,,,60fee7661415e50dba611521,61036ad8dba2c62fa6a56671,2021-07-29_22h59.02.697,Simcolourproject_2stim_asymm_v5,2020.2.10,MacIntel,60,61025ae37ef11b136ea224fe,,,,,,,,,772,86.8984375,36.26171875,1,0,0,response1disk,,6,7.125,11.64453125,1,0,0,rectangle,7.125,11.64453125,1,0,0,,,,,,,7.125,11.64453125,1,0,0,,0,99,99,0,1,
,,,,,,,,,,,,,FF,,,,,,,,2.13503,,,,,,,,,,,,,,,,,,,,,,60fee7661415e50dba611521,61036ad8dba2c62fa6a56671,2021-07-29_22h59.02.697,Simcolourproject_2stim_asymm_v5,2020.2.10,MacIntel,60,61025ae37ef11b136ea224fe,,,,,,,,,1419,92.45703125,71.3125,1,0,0,response1disk,,6,31.95703125,15.5390625,1,0,0,rectangle,31.95703125,15.5390625,1,0,0,,,,,,,31.95703125,15.5390625,1,0,0,,0,100,100,5,1,
,,,,,,,,,,,,,FF,,,,,,,,1.61617,,,,,,,,,,,,,,,,,,,,,,60fee7661415e50dba611521,61036ad8dba2c62fa6a56671,2021-07-29_22h59.02.697,Simcolourproject_2stim_asymm_v5,2020.2.10,MacIntel,60,61025ae37ef11b136ea224fe,,,,,,,,,461,37.109375,-80.68359375,1,0,0,response3disk,,4,9.34375,-0.1015625,1,0,0,rectangle,9.34375,-0.1015625,1,0,0,,,,,,,9.34375,-0.1015625,1,0,0,,0,101,101,61,1,
,,,,,,,,,,,,,FF,,,,,,,,0.898015,,,,,,,,,,,,,,,,,,,,,,60fee7661415e50dba611521,61036ad8dba2c62fa6a56671,2021-07-29_22h59.02.697,Simcolourproject_2stim_asymm_v5,2020.2.10,MacIntel,60,61025ae37ef11b136ea224fe,,,,,,,,,4161,-107.9726563,31.51171875,1,0,0,response7disk,,1,-24.60546875,17.48828125,1,0,0,rectangle,-24.60546875,17.48828125,1,0,0,,,,,,,-24.60546875,17.48828125,1,0,0,,0,102,102,109,1,
,,,,,,,,,,,,,FF,,,,,,,,2.0524,,,,,,,,,,,,,,,,,,,,,,60fee7661415e50dba611521,61036ad8dba2c62fa6a56671,2021-07-29_22h59.02.697,Simcolourproject_2stim_asymm_v5,2020.2.10,MacIntel,60,61025ae37ef11b136ea224fe,,,,,,,,,136,60.4375,-27.640625,1,0,0,response3disk,,5,22.0234375,10.99609375,1,0,0,rectangle,22.0234375,10.99609375,1,0,0,,,,,,,22.0234375,10.99609375,1,0,0,,0,103,103,91,1,
,,,,,,,,,,,,,FF,,,,,,,,0.747895,,,,,,,,,,,,,,,,,,,,,,60fee7661415e50dba611521,61036ad8dba2c62fa6a56671,2021-07-29_22h59.02.697,Simcolourproject_2stim_asymm_v5,2020.2.10,MacIntel,60,61025ae37ef11b136ea224fe,,,,,,,,,1483,64.3125,-30.76953125,1,0,0,response3disk,,5,22.953125,2.4453125,1,0,0,rectangle,22.953125,2.4453125,1,0,0,,,,,,,22.953125,2.4453125,1,0,0,,0,104,104,86,1,
,,,,,,,,,,,,,FF,,,,,,,,0.918165,,,,,,,,,,,,,,,,,,,,,,60fee7661415e50dba611521,61036ad8dba2c62fa6a56671,2021-07-29_22h59.02.697,Simcolourproject_2stim_asymm_v5,2020.2.10,MacIntel,60,61025ae37ef11b136ea224fe,,,,,,,,,1398,58.484375,-27.66796875,1,0,0,response3disk,,5,17.23828125,-0.2265625,1,0,0,rectangle,17.23828125,-0.2265625,1,0,0,,,,,,,17.23828125,-0.2265625,1,0,0,,0,105,105,100,1,
,,,,,,,,,,,,,FF,,,,,,,,1.051795,,,,,,,,,,,,,,,,,,,,,,60fee7661415e50dba611521,61036ad8dba2c62fa6a56671,2021-07-29_22h59.02.697,Simcolourproject_2stim_asymm_v5,2020.2.10,MacIntel,60,61025ae37ef11b136ea224fe,,,,,,,,,426,-23.046875,-49.8984375,1,0,0,response5disk,,3,4.31640625,-3.34375,1,0,0,rectangle,4.31640625,-3.34375,1,0,0,,,,,,,4.31640625,-3.34375,1,0,0,,0,106,106,98,1,
,,,,,,,,,,,,,FF,,,,,,,,1.115965,,,,,,,,,,,,,,,,,,,,,,60fee7661415e50dba611521,61036ad8dba2c62fa6a56671,2021-07-29_22h59.02.697,Simcolourproject_2stim_asymm_v5,2020.2.10,MacIntel,60,61025ae37ef11b136ea224fe,,,,,,,,,2125,34.7734375,64.5546875,1,0,0,response1disk,,7,26.01171875,13.84375,1,0,0,rectangle,26.01171875,13.84375,1,0,0,,,,,,,26.01171875,13.84375,1,0,0,,0,107,107,158,1,
,,,,,,,,,,,,,FF,,,,,,,,0.999505,,,,,,,,,,,,,,,,,,,,,,60fee7661415e50dba611521,61036ad8dba2c62fa6a56671,2021-07-29_22h59.02.697,Simcolourproject_2stim_asymm_v5,2020.2.10,MacIntel,60,61025ae37ef11b136ea224fe,,,,,,,,,1519,78.5859375,46.60546875,1,0,0,response1disk,,6,8.96484375,1.14453125,1,0,0,rectangle,8.96484375,1.14453125,1,0,0,,,,,,,8.96484375,1.14453125,1,0,0,,0,108,108,52,1,
,,,,,,,,,,,,,FF,,,,,,,,0.997875,,,,,,,,,,,,,,,,,,,,,,60fee7661415e50dba611521,61036ad8dba2c62fa6a56671,2021-07-29_22h59.02.697,Simcolourproject_2stim_asymm_v5,2020.2.10,MacIntel,60,61025ae37ef11b136ea224fe,,,,,,,,,3705,-46.140625,75.5390625,1,0,0,response7disk,,0,-5.10546875,-0.71875,1,0,0,rectangle,-5.10546875,-0.71875,1,0,0,,,,,,,-5.10546875,-0.71875,1,0,0,,0,109,109,3,1,
,,,,,,,,,,,,,FF,,,,,,,,1.01535,,,,,,,,,,,,,,,,,,,,,,60fee7661415e50dba611521,61036ad8dba2c62fa6a56671,2021-07-29_22h59.02.697,Simcolourproject_2stim_asymm_v5,2020.2.10,MacIntel,60,61025ae37ef11b136ea224fe,,,,,,,,,2861,43.70703125,77.53515625,1,0,0,response1disk,,7,33.94140625,-17.2109375,1,0,0,rectangle,33.94140625,-17.2109375,1,0,0,,,,,,,33.94140625,-17.2109375,1,0,0,,0,110,110,68,1,
,,,,,,,,,,,,,FF,,,,,,,,0.682475,,,,,,,,,,,,,,,,,,,,,,60fee7661415e50dba611521,61036ad8dba2c62fa6a56671,2021-07-29_22h59.02.697,Simcolourproject_2stim_asymm_v5,2020.2.10,MacIntel,60,61025ae37ef11b136ea224fe,,,,,,,,,4368,-33.17578125,88.91015625,1,0,0,response7disk,,0,-3.23046875,14.66015625,1,0,0,rectangle,-3.23046875,14.66015625,1,0,0,,,,,,,-3.23046875,14.66015625,1,0,0,,0,111,111,46,1,
,,,,,,,,,,,,,FF,,,,,,,,1.234315,,,,,,,,,,,,,,,,,,,,,,60fee7661415e50dba611521,61036ad8dba2c62fa6a56671,2021-07-29_22h59.02.697,Simcolourproject_2stim_asymm_v5,2020.2.10,MacIntel,60,61025ae37ef11b136ea224fe,,,,,,,,,657,-31.1640625,-63.984375,1,0,0,response5disk,,3,-25.703125,-10.91796875,1,0,0,rectangle,-25.703125,-10.91796875,1,0,0,,,,,,,-25.703125,-10.91796875,1,0,0,,0,112,112,78,1,
,,,,,,,,,,,,,FF,,,,,,,,0.98361,,,,,,,,,,,,,,,,,,,,,,60fee7661415e50dba611521,61036ad8dba2c62fa6a56671,2021-07-29_22h59.02.697,Simcolourproject_2stim_asymm_v5,2020.2.10,MacIntel,60,61025ae37ef11b136ea224fe,,,,,,,,,3668,-39.734375,96.17578125,1,0,0,response7disk,,0,-7.453125,13.2578125,1,0,0,rectangle,-80.44140625,-43.296875,1,0,0,response5disk_3,TRUE,2,2,"[76,48,307,127,17,219,1,245,295,194,169,33,157,149,96,270,114,120,227,305]",2.234065,1.2109375,-4.82421875,1,0,0,rectangle,0,113,113,53,1,
,,,,,,,,,,,,,FF,,,,,,,,1.65212,,,,,,,,,,,,,,,,,,,,,,60fee7661415e50dba611521,61036ad8dba2c62fa6a56671,2021-07-29_22h59.02.697,Simcolourproject_2stim_asymm_v5,2020.2.10,MacIntel,60,61025ae37ef11b136ea224fe,,,,,,,,,675,24.3828125,94.984375,1,0,0,response1disk,,7,6.86328125,-9.96875,1,0,0,rectangle,6.86328125,-9.96875,1,0,0,,,,,,,6.86328125,-9.96875,1,0,0,,0,114,114,20,1,
,,,,,,,,,,,,,FF,,,,,,,,1.149665,,,,,,,,,,,,,,,,,,,,,,60fee7661415e50dba611521,61036ad8dba2c62fa6a56671,2021-07-29_22h59.02.697,Simcolourproject_2stim_asymm_v5,2020.2.10,MacIntel,60,61025ae37ef11b136ea224fe,,,,,,,,,29,80.00390625,52.49609375,1,0,0,response1disk,,6,30.64453125,-2.57421875,1,0,0,rectangle,30.64453125,-2.57421875,1,0,0,,,,,,,30.64453125,-2.57421875,1,0,0,,0,115,115,55,1,
,,,,,,,,,,,,,FF,,,,,,,,0.91781,,,,,,,,,,,,,,,,,,,,,,60fee7661415e50dba611521,61036ad8dba2c62fa6a56671,2021-07-29_22h59.02.697,Simcolourproject_2stim_asymm_v5,2020.2.10,MacIntel,60,61025ae37ef11b136ea224fe,,,,,,,,,3861,80.52734375,29.90234375,1,0,0,response1disk,,6,24.20703125,-0.96875,1,0,0,rectangle,24.20703125,-0.96875,1,0,0,,,,,,,24.20703125,-0.96875,1,0,0,,0,116,116,64,1,
,,,,,,,,,,,,,FF,,,,,,,,0.98227,,,,,,,,,,,,,,,,,,,,,,60fee7661415e50dba611521,61036ad8dba2c62fa6a56671,2021-07-29_22h59.02.697,Simcolourproject_2stim_asymm_v5,2020.2.10,MacIntel,60,61025ae37ef11b136ea224fe,,,,,,,,,2170,-31.11328125,-71.4765625,1,0,0,response5disk,,3,2.83984375,1.86328125,1,0,0,rectangle,2.83984375,1.86328125,1,0,0,,,,,,,2.83984375,1.86328125,1,0,0,,0,117,117,97,1,
,,,,,,,,,,,,,FF,,,,,,,,2.26646,,,,,,,,,,,,,,,,,,,,,,60fee7661415e50dba611521,61036ad8dba2c62fa6a56671,2021-07-29_22h59.02.697,Simcolourproject_2stim_asymm_v5,2020.2.10,MacIntel,60,61025ae37ef11b136ea224fe,,,,,,,,,829,70.3515625,-20.80859375,1,0,0,response3disk,,5,26.80859375,5.44921875,1,0,0,rectangle,26.80859375,5.44921875,1,0,0,,,,,,,26.80859375,5.44921875,1,0,0,,0,118,118,60,1,
,,,,,,,,,,,,,FF,,,,,,,,1.54994,,,,,,,,,,,,,,,,,,,,,,60fee7661415e50dba611521,61036ad8dba2c62fa6a56671,2021-07-29_22h59.02.697,Simcolourproject_2stim_asymm_v5,2020.2.10,MacIntel,60,61025ae37ef11b136ea224fe,,,,,,,,,3158,47.30078125,-85.40234375,1,0,0,response3disk,,4,7.97265625,-2.80859375,1,0,0,rectangle,-47.03125,90.0546875,1,0,0,response7disk_3,TRUE,0,0,"[76,48,307,127,17,219,1,245,295,194,169,33,157,149,96,270,114,120,227,305]",1.8321,-6.66796875,-2.3671875,1,0,0,rectangle,0,119,119,45,1,
,,,,,,,,,,,,,FF,,,,,,,,0.85004,,,,,,,,,,,,,,,,,,,,,,60fee7661415e50dba611521,61036ad8dba2c62fa6a56671,2021-07-29_22h59.02.697,Simcolourproject_2stim_asymm_v5,2020.2.10,MacIntel,60,61025ae37ef11b136ea224fe,,,,,,,,,3957,43.29296875,89.78515625,1,0,0,response1disk,,7,1.4375,-2.0703125,1,0,0,rectangle,1.4375,-2.0703125,1,0,0,,,,,,,1.4375,-2.0703125,1,0,0,,0,120,120,12,1,
,,,,,,,,,,,,,FF,,,,,,,,1.983665,,,,,,,,,,,,,,,,,,,,,,60fee7661415e50dba611521,61036ad8dba2c62fa6a56671,2021-07-29_22h59.02.697,Simcolourproject_2stim_asymm_v5,2020.2.10,MacIntel,60,61025ae37ef11b136ea224fe,,,,,,,,,4086,-81.77734375,-42.546875,1,0,0,response5disk,,2,-21.5625,-10.8984375,1,0,0,rectangle,-21.5625,-10.8984375,1,0,0,,,,,,,-21.5625,-10.8984375,1,0,0,,0,121,121,85,1,
,,,,,,,,,,,,,FF,,,,,,,,1.217035,,,,,,,,,,,,,,,,,,,,,,60fee7661415e50dba611521,61036ad8dba2c62fa6a56671,2021-07-29_22h59.02.697,Simcolourproject_2stim_asymm_v5,2020.2.10,MacIntel,60,61025ae37ef11b136ea224fe,,,,,,,,,1999,94.12890625,-51.15234375,1,0,0,response3disk,,5,-11.1640625,-8.046875,1,0,0,rectangle,-11.1640625,-8.046875,1,0,0,,,,,,,-11.1640625,-8.046875,1,0,0,,0,122,122,103,1,
,,,,,,,,,,,,,FF,,,,,,,,0.79933,,,,,,,,,,,,,,,,,,,,,,60fee7661415e50dba611521,61036ad8dba2c62fa6a56671,2021-07-29_22h59.02.697,Simcolourproject_2stim_asymm_v5,2020.2.10,MacIntel,60,61025ae37ef11b136ea224fe,,,,,,,,,410,59.75,-47.6484375,1,0,0,response3disk,,5,-2.84375,-3.6015625,1,0,0,rectangle,-2.84375,-3.6015625,1,0,0,,,,,,,-2.84375,-3.6015625,1,0,0,,0,123,123,119,1,
,,,,,,,,,,,,,FF,,,,,,,,1.132545,,,,,,,,,,,,,,,,,,,,,,60fee7661415e50dba611521,61036ad8dba2c62fa6a56671,2021-07-29_22h59.02.697,Simcolourproject_2stim_asymm_v5,2020.2.10,MacIntel,60,61025ae37ef11b136ea224fe,,,,,,,,,148,70.44921875,29.78515625,1,0,0,response1disk,,6,7.49609375,0.80859375,1,0,0,rectangle,7.49609375,0.80859375,1,0,0,,,,,,,7.49609375,0.80859375,1,0,0,,0,124,124,129,1,
,,,,,,,,,,,,,FF,,,,,,,,1.93414,,,,,,,,,,,,,,,,,,,,,,60fee7661415e50dba611521,61036ad8dba2c62fa6a56671,2021-07-29_22h59.02.697,Simcolourproject_2stim_asymm_v5,2020.2.10,MacIntel,60,61025ae37ef11b136ea224fe,,,,,,,,,2484,-36.23046875,-80.44921875,1,0,0,response5disk,,3,-10.359375,-12.96875,1,0,0,rectangle,-10.359375,-12.96875,1,0,0,,,,,,,-10.359375,-12.96875,1,0,0,,0,125,125,101,1,
,,,,,,,,,,,,,FF,,,,,,,,0.858565,,,,,,,,,,,,,,,,,,,,,,60fee7661415e50dba611521,61036ad8dba2c62fa6a56671,2021-07-29_22h59.02.697,Simcolourproject_2stim_asymm_v5,2020.2.10,MacIntel,60,61025ae37ef11b136ea224fe,,,,,,,,,441,-73.95703125,-41.96875,1,0,0,response5disk,,2,-7.71875,-9.87890625,1,0,0,rectangle,81.50390625,51.7421875,1,0,0,response1disk_3,TRUE,6,6,"[76,48,307,127,17,219,1,245,295,194,169,33,157,149,96,270,114,120,227,305]",1.649495,11.3828125,2.5390625,1,0,0,rectangle,0,126,126,63,1,
,,,,,,,,,,,,,FF,,,,,,,,1.083975,,,,,,,,,,,,,,,,,,,,,,60fee7661415e50dba611521,61036ad8dba2c62fa6a56671,2021-07-29_22h59.02.697,Simcolourproject_2stim_asymm_v5,2020.2.10,MacIntel,60,61025ae37ef11b136ea224fe,,,,,,,,,4151,-76.2265625,-26.1875,1,0,0,response5disk,,2,-11.00390625,-15.578125,1,0,0,rectangle,-11.00390625,-15.578125,1,0,0,,,,,,,-11.00390625,-15.578125,1,0,0,,0,127,127,24,1,
,,,,,,,,,,,,,FF,,,,,,,,1.166565,,,,,,,,,,,,,,,,,,,,,,60fee7661415e50dba611521,61036ad8dba2c62fa6a56671,2021-07-29_22h59.02.697,Simcolourproject_2stim_asymm_v5,2020.2.10,MacIntel,60,61025ae37ef11b136ea224fe,,,,,,,,,3574,79.4140625,-53.56640625,1,0,0,response3disk,,5,30.4296875,-7.74609375,1,0,0,rectangle,30.4296875,-7.74609375,1,0,0,,,,,,,30.4296875,-7.74609375,1,0,0,,0,128,128,149,1,
,,,,,,,,,,,,,FF,,,,,,,,0.949255,,,,,,,,,,,,,,,,,,,,,,60fee7661415e50dba611521,61036ad8dba2c62fa6a56671,2021-07-29_22h59.02.697,Simcolourproject_2stim_asymm_v5,2020.2.10,MacIntel,60,61025ae37ef11b136ea224fe,,,,,,,,,3873,90.5078125,33.0390625,1,0,0,response1disk,,6,8.07421875,-0.59375,1,0,0,rectangle,8.07421875,-0.59375,1,0,0,,,,,,,8.07421875,-0.59375,1,0,0,,0,129,129,22,1,
,,,,,,,,,,,,,FF,,,,,,,,1.049975,,,,,,,,,,,,,,,,,,,,,,60fee7661415e50dba611521,61036ad8dba2c62fa6a56671,2021-07-29_22h59.02.697,Simcolourproject_2stim_asymm_v5,2020.2.10,MacIntel,60,61025ae37ef11b136ea224fe,,,,,,,,,2098,-85.8203125,30.80078125,1,0,0,response7disk,,1,-27.23046875,2.37109375,1,0,0,rectangle,-27.23046875,2.37109375,1,0,0,,,,,,,-27.23046875,2.37109375,1,0,0,,0,130,130,43,1,
,,,,,,,,,,,,,FF,,,,,,,,1.085,,,,,,,,,,,,,,,,,,,,,,60fee7661415e50dba611521,61036ad8dba2c62fa6a56671,2021-07-29_22h59.02.697,Simcolourproject_2stim_asymm_v5,2020.2.10,MacIntel,60,61025ae37ef11b136ea224fe,,,,,,,,,1594,-36.05859375,-59.0234375,1,0,0,response5disk,,3,-14.171875,-11.55078125,1,0,0,rectangle,-14.171875,-11.55078125,1,0,0,,,,,,,-14.171875,-11.55078125,1,0,0,,0,131,131,35,1,
,,,,,,,,,,,,,FF,,,,,,,,1.59913,,,,,,,,,,,,,,,,,,,,,,60fee7661415e50dba611521,61036ad8dba2c62fa6a56671,2021-07-29_22h59.02.697,Simcolourproject_2stim_asymm_v5,2020.2.10,MacIntel,60,61025ae37ef11b136ea224fe,,,,,,,,,269,70.01171875,-26.85546875,1,0,0,response3disk,,5,26.4921875,14.9375,1,0,0,rectangle,26.4921875,14.9375,1,0,0,,,,,,,26.4921875,14.9375,1,0,0,,0,132,132,142,1,
,,,,,,,,,,,,,FF,,,,,,,,1.64991,,,,,,,,,,,,,,,,,,,,,,60fee7661415e50dba611521,61036ad8dba2c62fa6a56671,2021-07-29_22h59.02.697,Simcolourproject_2stim_asymm_v5,2020.2.10,MacIntel,60,61025ae37ef11b136ea224fe,,,,,,,,,3919,18.14453125,-92.109375,1,0,0,response3disk,,4,-8.29296875,-8.09765625,1,0,0,rectangle,-8.29296875,-8.09765625,1,0,0,,,,,,,-8.29296875,-8.09765625,1,0,0,,0,133,133,125,1,
,,,,,,,,,,,,,FF,,,,,,,,0.917715,,,,,,,,,,,,,,,,,,,,,,60fee7661415e50dba611521,61036ad8dba2c62fa6a56671,2021-07-29_22h59.02.697,Simcolourproject_2stim_asymm_v5,2020.2.10,MacIntel,60,61025ae37ef11b136ea224fe,,,,,,,,,3190,-42.85546875,-74.51171875,1,0,0,response5disk,,3,-25.27734375,-2.48828125,1,0,0,rectangle,-25.27734375,-2.48828125,1,0,0,,,,,,,-25.27734375,-2.48828125,1,0,0,,0,134,134,83,1,
,,,,,,,,,,,,,FF,,,,,,,,1.000305,,,,,,,,,,,,,,,,,,,,,,60fee7661415e50dba611521,61036ad8dba2c62fa6a56671,2021-07-29_22h59.02.697,Simcolourproject_2stim_asymm_v5,2020.2.10,MacIntel,60,61025ae37ef11b136ea224fe,,,,,,,,,3719,40.79296875,-60.91796875,1,0,0,response3disk,,4,12.81640625,-13.76171875,1,0,0,rectangle,12.81640625,-13.76171875,1,0,0,,,,,,,12.81640625,-13.76171875,1,0,0,,0,135,135,143,1,
,,,,,,,,,,,,,FF,,,,,,,,1.66674,,,,,,,,,,,,,,,,,,,,,,60fee7661415e50dba611521,61036ad8dba2c62fa6a56671,2021-07-29_22h59.02.697,Simcolourproject_2stim_asymm_v5,2020.2.10,MacIntel,60,61025ae37ef11b136ea224fe,,,,,,,,,2774,79.6796875,-36.171875,1,0,0,response3disk,,5,18.92578125,7.28125,1,0,0,rectangle,18.92578125,7.28125,1,0,0,,,,,,,18.92578125,7.28125,1,0,0,,0,136,136,26,1,
,,,,,,,,,,,,,FF,,,,,,,,0.950725,,,,,,,,,,,,,,,,,,,,,,60fee7661415e50dba611521,61036ad8dba2c62fa6a56671,2021-07-29_22h59.02.697,Simcolourproject_2stim_asymm_v5,2020.2.10,MacIntel,60,61025ae37ef11b136ea224fe,,,,,,,,,2419,-65.68359375,-22.046875,1,0,0,response5disk,,2,-15.91796875,-5.48046875,1,0,0,rectangle,-15.91796875,-5.48046875,1,0,0,,,,,,,-15.91796875,-5.48046875,1,0,0,,0,137,137,151,1,
,,,,,,,,,,,,,FF,,,,,,,,0.83358,,,,,,,,,,,,,,,,,,,,,,60fee7661415e50dba611521,61036ad8dba2c62fa6a56671,2021-07-29_22h59.02.697,Simcolourproject_2stim_asymm_v5,2020.2.10,MacIntel,60,61025ae37ef11b136ea224fe,,,,,,,,,1210,68.70703125,28.86328125,1,0,0,response1disk,,6,14.703125,-8.77734375,1,0,0,rectangle,14.703125,-8.77734375,1,0,0,,,,,,,14.703125,-8.77734375,1,0,0,,0,138,138,144,1,
,,,,,,,,,,,,,FF,,,,,,,,1.28352,,,,,,,,,,,,,,,,,,,,,,60fee7661415e50dba611521,61036ad8dba2c62fa6a56671,2021-07-29_22h59.02.697,Simcolourproject_2stim_asymm_v5,2020.2.10,MacIntel,60,61025ae37ef11b136ea224fe,,,,,,,,,1387,-24.140625,-55.52734375,1,0,0,response5disk,,3,-14.8359375,-14.75390625,1,0,0,rectangle,-14.8359375,-14.75390625,1,0,0,,,,,,,-14.8359375,-14.75390625,1,0,0,,0,139,139,67,1,
,,,,,,,,,,,,,FF,,,,,,,,0.617345,,,,,,,,,,,,,,,,,,,,,,60fee7661415e50dba611521,61036ad8dba2c62fa6a56671,2021-07-29_22h59.02.697,Simcolourproject_2stim_asymm_v5,2020.2.10,MacIntel,60,61025ae37ef11b136ea224fe,,,,,,,,,4025,-35.33984375,-78.26171875,1,0,0,response5disk,,3,-10.9140625,-7.5390625,1,0,0,rectangle,-10.9140625,-7.5390625,1,0,0,,,,,,,-10.9140625,-7.5390625,1,0,0,,0,140,140,54,1,
,,,,,,,,,,,,,FF,,,,,,,,0.798955,,,,,,,,,,,,,,,,,,,,,,60fee7661415e50dba611521,61036ad8dba2c62fa6a56671,2021-07-29_22h59.02.697,Simcolourproject_2stim_asymm_v5,2020.2.10,MacIntel,60,61025ae37ef11b136ea224fe,,,,,,,,,2194,94.36328125,40.3046875,1,0,0,response1disk,,6,2.2265625,10.3671875,1,0,0,rectangle,2.2265625,10.3671875,1,0,0,,,,,,,2.2265625,10.3671875,1,0,0,,0,141,141,95,1,
,,,,,,,,,,,,,FF,,,,,,,,0.700915,,,,,,,,,,,,,,,,,,,,,,60fee7661415e50dba611521,61036ad8dba2c62fa6a56671,2021-07-29_22h59.02.697,Simcolourproject_2stim_asymm_v5,2020.2.10,MacIntel,60,61025ae37ef11b136ea224fe,,,,,,,,,1301,-72.71875,-33.65625,1,0,0,response5disk,,2,-30.76171875,-11.484375,1,0,0,rectangle,-30.76171875,-11.484375,1,0,0,,,,,,,-30.76171875,-11.484375,1,0,0,,0,142,142,28,1,
,,,,,,,,,,,,,FF,,,,,,,,1.06784,,,,,,,,,,,,,,,,,,,,,,60fee7661415e50dba611521,61036ad8dba2c62fa6a56671,2021-07-29_22h59.02.697,Simcolourproject_2stim_asymm_v5,2020.2.10,MacIntel,60,61025ae37ef11b136ea224fe,,,,,,,,,2042,32.17578125,-69.6875,1,0,0,response3disk,,4,4.765625,-17.6796875,1,0,0,rectangle,4.765625,-17.6796875,1,0,0,,,,,,,4.765625,-17.6796875,1,0,0,,0,143,143,107,1,
,,,,,,,,,,,,,FF,,,,,,,,0.732355,,,,,,,,,,,,,,,,,,,,,,60fee7661415e50dba611521,61036ad8dba2c62fa6a56671,2021-07-29_22h59.02.697,Simcolourproject_2stim_asymm_v5,2020.2.10,MacIntel,60,61025ae37ef11b136ea224fe,,,,,,,,,2932,-65.2578125,-29.90234375,1,0,0,response5disk,,2,-8.2421875,-4.84765625,1,0,0,rectangle,-8.2421875,-4.84765625,1,0,0,,,,,,,-8.2421875,-4.84765625,1,0,0,,0,144,144,34,1,
,,,,,,,,,,,,,FF,,,,,,,,1.53235,,,,,,,,,,,,,,,,,,,,,,60fee7661415e50dba611521,61036ad8dba2c62fa6a56671,2021-07-29_22h59.02.697,Simcolourproject_2stim_asymm_v5,2020.2.10,MacIntel,60,61025ae37ef11b136ea224fe,,,,,,,,,747,37.72265625,-79.06640625,1,0,0,response3disk,,4,11.2734375,-12.29296875,1,0,0,rectangle,11.2734375,-12.29296875,1,0,0,,,,,,,11.2734375,-12.29296875,1,0,0,,0,145,145,159,1,
,,,,,,,,,,,,,FF,,,,,,,,0.58163,,,,,,,,,,,,,,,,,,,,,,60fee7661415e50dba611521,61036ad8dba2c62fa6a56671,2021-07-29_22h59.02.697,Simcolourproject_2stim_asymm_v5,2020.2.10,MacIntel,60,61025ae37ef11b136ea224fe,,,,,,,,,1937,28.97265625,-77.76953125,1,0,0,response3disk,,4,15.03515625,-13.65234375,1,0,0,rectangle,15.03515625,-13.65234375,1,0,0,,,,,,,15.03515625,-13.65234375,1,0,0,,0,146,146,25,1,
,,,,,,,,,,,,,FF,,,,,,,,2.34999,,,,,,,,,,,,,,,,,,,,,,60fee7661415e50dba611521,61036ad8dba2c62fa6a56671,2021-07-29_22h59.02.697,Simcolourproject_2stim_asymm_v5,2020.2.10,MacIntel,60,61025ae37ef11b136ea224fe,,,,,,,,,1059,42.5,-80.93359375,1,0,0,response3disk,,4,-6.65234375,13.11328125,1,0,0,rectangle,-6.65234375,13.11328125,1,0,0,,,,,,,-6.65234375,13.11328125,1,0,0,,0,147,147,96,1,
,,,,,,,,,,,,,FF,,,,,,,,0.747745,,,,,,,,,,,,,,,,,,,,,,60fee7661415e50dba611521,61036ad8dba2c62fa6a56671,2021-07-29_22h59.02.697,Simcolourproject_2stim_asymm_v5,2020.2.10,MacIntel,60,61025ae37ef11b136ea224fe,,,,,,,,,2903,32.7734375,-93.35546875,1,0,0,response3disk,,4,-2.65234375,-9.5859375,1,0,0,rectangle,-46.8125,-79.58203125,1,0,0,response5disk_3,TRUE,3,3,"[76,48,307,127,17,219,1,245,295,194,169,33,157,149,96,270,114,120,227,305]",1.50119,-2.0546875,-13.33984375,1,0,0,rectangle,0,148,148,84,1,
,,,,,,,,,,,,,FF,,,,,,,,0.715215,,,,,,,,,,,,,,,,,,,,,,60fee7661415e50dba611521,61036ad8dba2c62fa6a56671,2021-07-29_22h59.02.697,Simcolourproject_2stim_asymm_v5,2020.2.10,MacIntel,60,61025ae37ef11b136ea224fe,,,,,,,,,373,-75.3828125,-40.375,1,0,0,response5disk,,2,-7.6875,10.2578125,1,0,0,rectangle,-7.6875,10.2578125,1,0,0,,,,,,,-7.6875,10.2578125,1,0,0,,0,149,149,75,1,
,,,,,,,,,,,,,FF,,,,,,,,0.95031,,,,,,,,,,,,,,,,,,,,,,60fee7661415e50dba611521,61036ad8dba2c62fa6a56671,2021-07-29_22h59.02.697,Simcolourproject_2stim_asymm_v5,2020.2.10,MacIntel,60,61025ae37ef11b136ea224fe,,,,,,,,,1792,-36.04296875,-54.734375,1,0,0,response5disk,,3,-7.25,-8.03125,1,0,0,rectangle,-7.25,-8.03125,1,0,0,,,,,,,-7.25,-8.03125,1,0,0,,0,150,150,47,1,
,,,,,,,,,,,,,FF,,,,,,,,0.70177,,,,,,,,,,,,,,,,,,,,,,60fee7661415e50dba611521,61036ad8dba2c62fa6a56671,2021-07-29_22h59.02.697,Simcolourproject_2stim_asymm_v5,2020.2.10,MacIntel,60,61025ae37ef11b136ea224fe,,,,,,,,,1486,71.9765625,31.10546875,1,0,0,response1disk,,6,13.94921875,-7.30078125,1,0,0,rectangle,13.94921875,-7.30078125,1,0,0,,,,,,,13.94921875,-7.30078125,1,0,0,,0,151,151,127,1,
,,,,,,,,,,,,,FF,,,,,,,,0.714645,,,,,,,,,,,,,,,,,,,,,,60fee7661415e50dba611521,61036ad8dba2c62fa6a56671,2021-07-29_22h59.02.697,Simcolourproject_2stim_asymm_v5,2020.2.10,MacIntel,60,61025ae37ef11b136ea224fe,,,,,,,,,488,64.7265625,-35.796875,1,0,0,response3disk,,5,4.59765625,-7.6953125,1,0,0,rectangle,4.59765625,-7.6953125,1,0,0,,,,,,,4.59765625,-7.6953125,1,0,0,,0,152,152,113,1,
,,,,,,,,,,,,,FF,,,,,,,,0.683455,,,,,,,,,,,,,,,,,,,,,,60fee7661415e50dba611521,61036ad8dba2c62fa6a56671,2021-07-29_22h59.02.697,Simcolourproject_2stim_asymm_v5,2020.2.10,MacIntel,60,61025ae37ef11b136ea224fe,,,,,,,,,911,35.8046875,-93.25,1,0,0,response3disk,,4,-10.28515625,-16.24609375,1,0,0,rectangle,-10.28515625,-16.24609375,1,0,0,,,,,,,-10.28515625,-16.24609375,1,0,0,,0,153,153,11,1,
,,,,,,,,,,,,,FF,,,,,,,,0.78894,,,,,,,,,,,,,,,,,,,,,,60fee7661415e50dba611521,61036ad8dba2c62fa6a56671,2021-07-29_22h59.02.697,Simcolourproject_2stim_asymm_v5,2020.2.10,MacIntel,60,61025ae37ef11b136ea224fe,,,,,,,,,252,69.3359375,-41.31640625,1,0,0,response3disk,,5,-10.984375,15.796875,1,0,0,rectangle,-10.984375,15.796875,1,0,0,,,,,,,-10.984375,15.796875,1,0,0,,0,154,154,148,1,
,,,,,,,,,,,,,FF,,,,,,,,0.500505,,,,,,,,,,,,,,,,,,,,,,60fee7661415e50dba611521,61036ad8dba2c62fa6a56671,2021-07-29_22h59.02.697,Simcolourproject_2stim_asymm_v5,2020.2.10,MacIntel,60,61025ae37ef11b136ea224fe,,,,,,,,,2460,72.14453125,-45.17578125,1,0,0,response3disk,,5,-10.703125,14.42578125,1,0,0,rectangle,-10.703125,14.42578125,1,0,0,,,,,,,-10.703125,14.42578125,1,0,0,,0,155,155,87,1,
,,,,,,,,,,,,,FF,,,,,,,,0.5189,,,,,,,,,,,,,,,,,,,,,,60fee7661415e50dba611521,61036ad8dba2c62fa6a56671,2021-07-29_22h59.02.697,Simcolourproject_2stim_asymm_v5,2020.2.10,MacIntel,60,61025ae37ef11b136ea224fe,,,,,,,,,2967,80.16796875,-40.6796875,1,0,0,response3disk,,5,7.05859375,1.02734375,1,0,0,rectangle,-25.53515625,-80.75390625,1,0,0,response5disk_3,TRUE,3,3,"[76,48,307,127,17,219,1,245,295,194,169,33,157,149,96,270,114,120,227,305]",1.8998,2.01953125,-12.12109375,1,0,0,rectangle,0,156,156,99,1,
,,,,,,,,,,,,,FF,,,,,,,,0.8321,,,,,,,,,,,,,,,,,,,,,,60fee7661415e50dba611521,61036ad8dba2c62fa6a56671,2021-07-29_22h59.02.697,Simcolourproject_2stim_asymm_v5,2020.2.10,MacIntel,60,61025ae37ef11b136ea224fe,,,,,,,,,62,35.0234375,78.22265625,1,0,0,response1disk,,7,8.08984375,15.7890625,1,0,0,rectangle,8.08984375,15.7890625,1,0,0,,,,,,,8.08984375,15.7890625,1,0,0,,0,157,157,110,1,
,,,,,,,,,,,,,FF,,,,,,,,0.6816,,,,,,,,,,,,,,,,,,,,,,60fee7661415e50dba611521,61036ad8dba2c62fa6a56671,2021-07-29_22h59.02.697,Simcolourproject_2stim_asymm_v5,2020.2.10,MacIntel,60,61025ae37ef11b136ea224fe,,,,,,,,,1291,-93.7265625,44.2578125,1,0,0,response7disk,,1,-12.93359375,1.8203125,1,0,0,rectangle,-12.93359375,1.8203125,1,0,0,,,,,,,-12.93359375,1.8203125,1,0,0,,0,158,158,106,1,
,,,,,,,,,,,,,FF,,,,,,,,0.899845,,,,,,,,,,,,,,,,,,,,,,60fee7661415e50dba611521,61036ad8dba2c62fa6a56671,2021-07-29_22h59.02.697,Simcolourproject_2stim_asymm_v5,2020.2.10,MacIntel,60,61025ae37ef11b136ea224fe,,,,,,,,,671,18.328125,85.75,1,0,0,response1disk,,7,-7.58203125,3.203125,1,0,0,rectangle,-7.58203125,3.203125,1,0,0,,,,,,,-7.58203125,3.203125,1,0,0,,0,159,159,19,1,
,,,,,,,,,,,,,FF,,,,,,,,0.89993,,,,,,,,,,,,,,,,,,,,,,60fee7661415e50dba611521,61036ad8dba2c62fa6a56671,2021-07-29_22h59.02.697,Simcolourproject_2stim_asymm_v5,2020.2.10,MacIntel,60,61025ae37ef11b136ea224fe,,,,,,,,,1386,-32.03125,-58.0859375,1,0,0,response5disk,,3,-21.5,-10.1484375,1,0,0,rectangle,-21.5,-10.1484375,1,0,0,,,,,,,-21.5,-10.1484375,1,0,0,,1,0,160,23,1,
,,,,,,,,,,,,,FF,,,,,,,,0.782985,,,,,,,,,,,,,,,,,,,,,,60fee7661415e50dba611521,61036ad8dba2c62fa6a56671,2021-07-29_22h59.02.697,Simcolourproject_2stim_asymm_v5,2020.2.10,MacIntel,60,61025ae37ef11b136ea224fe,,,,,,,,,3275,86.9609375,20.2734375,1,0,0,response1disk,,6,4.1640625,-14.484375,1,0,0,rectangle,4.1640625,-14.484375,1,0,0,,,,,,,4.1640625,-14.484375,1,0,0,,1,1,161,133,1,
,,,,,,,,,,,,,FF,,,,,,,,0.700115,,,,,,,,,,,,,,,,,,,,,,60fee7661415e50dba611521,61036ad8dba2c62fa6a56671,2021-07-29_22h59.02.697,Simcolourproject_2stim_asymm_v5,2020.2.10,MacIntel,60,61025ae37ef11b136ea224fe,,,,,,,,,2602,-49.66015625,-21.8828125,1,0,0,response5disk,,2,7.94140625,-14.31640625,1,0,0,rectangle,7.94140625,-14.31640625,1,0,0,,,,,,,7.94140625,-14.31640625,1,0,0,,1,2,162,59,1,
,,,,,,,,,,,,,FF,,,,,,,,0.88405,,,,,,,,,,,,,,,,,,,,,,60fee7661415e50dba611521,61036ad8dba2c62fa6a56671,2021-07-29_22h59.02.697,Simcolourproject_2stim_asymm_v5,2020.2.10,MacIntel,60,61025ae37ef11b136ea224fe,,,,,,,,,928,72.16796875,38.859375,1,0,0,response1disk,,6,8.6484375,4.53125,1,0,0,rectangle,8.6484375,4.53125,1,0,0,,,,,,,8.6484375,4.53125,1,0,0,,1,3,163,33,1,
,,,,,,,,,,,,,FF,,,,,,,,1.08335,,,,,,,,,,,,,,,,,,,,,,60fee7661415e50dba611521,61036ad8dba2c62fa6a56671,2021-07-29_22h59.02.697,Simcolourproject_2stim_asymm_v5,2020.2.10,MacIntel,60,61025ae37ef11b136ea224fe,,,,,,,,,4176,41.59375,-66.16015625,1,0,0,response3disk,,4,6.38671875,-9.0703125,1,0,0,rectangle,6.38671875,-9.0703125,1,0,0,,,,,,,6.38671875,-9.0703125,1,0,0,,1,4,164,64,1,
,,,,,,,,,,,,,FF,,,,,,,,1.13311,,,,,,,,,,,,,,,,,,,,,,60fee7661415e50dba611521,61036ad8dba2c62fa6a56671,2021-07-29_22h59.02.697,Simcolourproject_2stim_asymm_v5,2020.2.10,MacIntel,60,61025ae37ef11b136ea224fe,,,,,,,,,4183,-25.05859375,-67.4609375,1,0,0,response5disk,,3,-2.625,-2.6640625,1,0,0,rectangle,-2.625,-2.6640625,1,0,0,,,,,,,-2.625,-2.6640625,1,0,0,,1,5,165,22,1,
,,,,,,,,,,,,,FF,,,,,,,,0.70073,,,,,,,,,,,,,,,,,,,,,,60fee7661415e50dba611521,61036ad8dba2c62fa6a56671,2021-07-29_22h59.02.697,Simcolourproject_2stim_asymm_v5,2020.2.10,MacIntel,60,61025ae37ef11b136ea224fe,,,,,,,,,2725,-46.2265625,-71.578125,1,0,0,response5disk,,3,-10.453125,-16.08203125,1,0,0,rectangle,-10.453125,-16.08203125,1,0,0,,,,,,,-10.453125,-16.08203125,1,0,0,,1,6,166,84,1,
,,,,,,,,,,,,,FF,,,,,,,,0.933045,,,,,,,,,,,,,,,,,,,,,,60fee7661415e50dba611521,61036ad8dba2c62fa6a56671,2021-07-29_22h59.02.697,Simcolourproject_2stim_asymm_v5,2020.2.10,MacIntel,60,61025ae37ef11b136ea224fe,,,,,,,,,2474,57.93359375,-49.34375,1,0,0,response3disk,,5,-11.5234375,-4.51953125,1,0,0,rectangle,-11.5234375,-4.51953125,1,0,0,,,,,,,-11.5234375,-4.51953125,1,0,0,,1,7,167,48,1,
,,,,,,,,,,,,,FF,,,,,,,,0.750115,,,,,,,,,,,,,,,,,,,,,,60fee7661415e50dba611521,61036ad8dba2c62fa6a56671,2021-07-29_22h59.02.697,Simcolourproject_2stim_asymm_v5,2020.2.10,MacIntel,60,61025ae37ef11b136ea224fe,,,,,,,,,1529,64.75390625,-37.3359375,1,0,0,response3disk,,5,-6.5390625,4.91015625,1,0,0,rectangle,37.28515625,56.38671875,1,0,0,response1disk_3,TRUE,7,7,"[76,48,307,127,17,219,1,245,295,194,169,33,157,149,96,270,114,120,227,305]",1.398715,8.50390625,-9.4609375,1,0,0,rectangle,1,8,168,121,1,
,,,,,,,,,,,,,FF,,,,,,,,0.748855,,,,,,,,,,,,,,,,,,,,,,60fee7661415e50dba611521,61036ad8dba2c62fa6a56671,2021-07-29_22h59.02.697,Simcolourproject_2stim_asymm_v5,2020.2.10,MacIntel,60,61025ae37ef11b136ea224fe,,,,,,,,,3810,-36.828125,72.05078125,1,0,0,response7disk,,0,-9.31640625,1.83203125,1,0,0,rectangle,-9.31640625,1.83203125,1,0,0,,,,,,,-9.31640625,1.83203125,1,0,0,,1,9,169,58,1,
,,,,,,,,,,,,,FF,,,,,,,,1.215865,,,,,,,,,,,,,,,,,,,,,,60fee7661415e50dba611521,61036ad8dba2c62fa6a56671,2021-07-29_22h59.02.697,Simcolourproject_2stim_asymm_v5,2020.2.10,MacIntel,60,61025ae37ef11b136ea224fe,,,,,,,,,1955,-36.953125,-80.66015625,1,0,0,response5disk,,3,-32.10546875,-7.203125,1,0,0,rectangle,-32.10546875,-7.203125,1,0,0,,,,,,,-32.10546875,-7.203125,1,0,0,,1,10,170,0,1,
,,,,,,,,,,,,,FF,,,,,,,,1.03342,,,,,,,,,,,,,,,,,,,,,,60fee7661415e50dba611521,61036ad8dba2c62fa6a56671,2021-07-29_22h59.02.697,Simcolourproject_2stim_asymm_v5,2020.2.10,MacIntel,60,61025ae37ef11b136ea224fe,,,,,,,,,2072,74.328125,-25.72265625,1,0,0,response3disk,,5,18.3359375,-8.01171875,1,0,0,rectangle,18.3359375,-8.01171875,1,0,0,,,,,,,18.3359375,-8.01171875,1,0,0,,1,11,171,98,1,
,,,,,,,,,,,,,FF,,,,,,,,0.735045,,,,,,,,,,,,,,,,,,,,,,60fee7661415e50dba611521,61036ad8dba2c62fa6a56671,2021-07-29_22h59.02.697,Simcolourproject_2stim_asymm_v5,2020.2.10,MacIntel,60,61025ae37ef11b136ea224fe,,,,,,,,,1586,53.60546875,-32.8046875,1,0,0,response3disk,,5,8.4453125,-6.78125,1,0,0,rectangle,8.4453125,-6.78125,1,0,0,,,,,,,8.4453125,-6.78125,1,0,0,,1,12,172,49,1,
,,,,,,,,,,,,,FF,,,,,,,,0.581885,,,,,,,,,,,,,,,,,,,,,,60fee7661415e50dba611521,61036ad8dba2c62fa6a56671,2021-07-29_22h59.02.697,Simcolourproject_2stim_asymm_v5,2020.2.10,MacIntel,60,61025ae37ef11b136ea224fe,,,,,,,,,44,77.14453125,-32.828125,1,0,0,response3disk,,5,12.1484375,4.2265625,1,0,0,rectangle,12.1484375,4.2265625,1,0,0,,,,,,,12.1484375,4.2265625,1,0,0,,1,13,173,141,1,
,,,,,,,,,,,,,FF,,,,,,,,0.9821,,,,,,,,,,,,,,,,,,,,,,60fee7661415e50dba611521,61036ad8dba2c62fa6a56671,2021-07-29_22h59.02.697,Simcolourproject_2stim_asymm_v5,2020.2.10,MacIntel,60,61025ae37ef11b136ea224fe,,,,,,,,,2618,35.1875,-81.1171875,1,0,0,response3disk,,4,5.21484375,0.22265625,1,0,0,rectangle,5.21484375,0.22265625,1,0,0,,,,,,,5.21484375,0.22265625,1,0,0,,1,14,174,130,1,
,,,,,,,,,,,,,FF,,,,,,,,0.950715,,,,,,,,,,,,,,,,,,,,,,60fee7661415e50dba611521,61036ad8dba2c62fa6a56671,2021-07-29_22h59.02.697,Simcolourproject_2stim_asymm_v5,2020.2.10,MacIntel,60,61025ae37ef11b136ea224fe,,,,,,,,,2868,81.04296875,37.17578125,1,0,0,response1disk,,6,14.453125,8.16015625,1,0,0,rectangle,14.453125,8.16015625,1,0,0,,,,,,,14.453125,8.16015625,1,0,0,,1,15,175,35,1,
,,,,,,,,,,,,,FF,,,,,,,,0.85114,,,,,,,,,,,,,,,,,,,,,,60fee7661415e50dba611521,61036ad8dba2c62fa6a56671,2021-07-29_22h59.02.697,Simcolourproject_2stim_asymm_v5,2020.2.10,MacIntel,60,61025ae37ef11b136ea224fe,,,,,,,,,953,68.1796875,32.4765625,1,0,0,response1disk,,6,16.6484375,15.58203125,1,0,0,rectangle,16.6484375,15.58203125,1,0,0,,,,,,,16.6484375,15.58203125,1,0,0,,1,16,176,20,1,
,,,,,,,,,,,,,FF,,,,,,,,1.268345,,,,,,,,,,,,,,,,,,,,,,60fee7661415e50dba611521,61036ad8dba2c62fa6a56671,2021-07-29_22h59.02.697,Simcolourproject_2stim_asymm_v5,2020.2.10,MacIntel,60,61025ae37ef11b136ea224fe,,,,,,,,,112,57.203125,-27.96484375,1,0,0,response3disk,,5,5.96484375,-3.18359375,1,0,0,rectangle,5.96484375,-3.18359375,1,0,0,,,,,,,5.96484375,-3.18359375,1,0,0,,1,17,177,53,1,
,,,,,,,,,,,,,FF,,,,,,,,1.2834,,,,,,,,,,,,,,,,,,,,,,60fee7661415e50dba611521,61036ad8dba2c62fa6a56671,2021-07-29_22h59.02.697,Simcolourproject_2stim_asymm_v5,2020.2.10,MacIntel,60,61025ae37ef11b136ea224fe,,,,,,,,,3823,34.4140625,-74.5859375,1,0,0,response3disk,,4,2.87109375,-7.734375,1,0,0,rectangle,2.87109375,-7.734375,1,0,0,,,,,,,2.87109375,-7.734375,1,0,0,,1,18,178,147,1,
,,,,,,,,,,,,,FF,,,,,,,,0.763955,,,,,,,,,,,,,,,,,,,,,,60fee7661415e50dba611521,61036ad8dba2c62fa6a56671,2021-07-29_22h59.02.697,Simcolourproject_2stim_asymm_v5,2020.2.10,MacIntel,60,61025ae37ef11b136ea224fe,,,,,,,,,139,78.3125,31.1953125,1,0,0,response1disk,,6,13.51953125,4.65234375,1,0,0,rectangle,13.51953125,4.65234375,1,0,0,,,,,,,13.51953125,4.65234375,1,0,0,,1,19,179,134,1,
,,,,,,,,,,,,,FF,,,,,,,,0.884185,,,,,,,,,,,,,,,,,,,,,,60fee7661415e50dba611521,61036ad8dba2c62fa6a56671,2021-07-29_22h59.02.697,Simcolourproject_2stim_asymm_v5,2020.2.10,MacIntel,60,61025ae37ef11b136ea224fe,,,,,,,,,2420,-76.1953125,-43.3359375,1,0,0,response5disk,,2,-7.06640625,0.31640625,1,0,0,rectangle,-7.06640625,0.31640625,1,0,0,,,,,,,-7.06640625,0.31640625,1,0,0,,1,20,180,5,1,
,,,,,,,,,,,,,FF,,,,,,,,1.250975,,,,,,,,,,,,,,,,,,,,,,60fee7661415e50dba611521,61036ad8dba2c62fa6a56671,2021-07-29_22h59.02.697,Simcolourproject_2stim_asymm_v5,2020.2.10,MacIntel,60,61025ae37ef11b136ea224fe,,,,,,,,,2070,27.44140625,81.80078125,1,0,0,response1disk,,7,-2.46484375,-0.78515625,1,0,0,rectangle,-2.46484375,-0.78515625,1,0,0,,,,,,,-2.46484375,-0.78515625,1,0,0,,1,21,181,38,1,
,,,,,,,,,,,,,FF,,,,,,,,0.833025,,,,,,,,,,,,,,,,,,,,,,60fee7661415e50dba611521,61036ad8dba2c62fa6a56671,2021-07-29_22h59.02.697,Simcolourproject_2stim_asymm_v5,2020.2.10,MacIntel,60,61025ae37ef11b136ea224fe,,,,,,,,,2140,87.27734375,38.54296875,1,0,0,response1disk,,6,25.84765625,10.62109375,1,0,0,rectangle,25.84765625,10.62109375,1,0,0,,,,,,,25.84765625,10.62109375,1,0,0,,1,22,182,102,1,
,,,,,,,,,,,,,FF,,,,,,,,1.150195,,,,,,,,,,,,,,,,,,,,,,60fee7661415e50dba611521,61036ad8dba2c62fa6a56671,2021-07-29_22h59.02.697,Simcolourproject_2stim_asymm_v5,2020.2.10,MacIntel,60,61025ae37ef11b136ea224fe,,,,,,,,,1022,70.58984375,37.7734375,1,0,0,response1disk,,6,10.91796875,10.35546875,1,0,0,rectangle,10.91796875,10.35546875,1,0,0,,,,,,,10.91796875,10.35546875,1,0,0,,1,23,183,54,1,
,,,,,,,,,,,,,FF,,,,,,,,0.61537,,,,,,,,,,,,,,,,,,,,,,60fee7661415e50dba611521,61036ad8dba2c62fa6a56671,2021-07-29_22h59.02.697,Simcolourproject_2stim_asymm_v5,2020.2.10,MacIntel,60,61025ae37ef11b136ea224fe,,,,,,,,,1546,73.51171875,25.0390625,1,0,0,response1disk,,6,17.234375,10.12109375,1,0,0,rectangle,17.234375,10.12109375,1,0,0,,,,,,,17.234375,10.12109375,1,0,0,,1,24,184,92,1,
,,,,,,,,,,,,,FF,,,,,,,,0.483915,,,,,,,,,,,,,,,,,,,,,,60fee7661415e50dba611521,61036ad8dba2c62fa6a56671,2021-07-29_22h59.02.697,Simcolourproject_2stim_asymm_v5,2020.2.10,MacIntel,60,61025ae37ef11b136ea224fe,,,,,,,,,1164,74.2734375,27.73046875,1,0,0,response1disk,,6,7.90625,1.37109375,1,0,0,rectangle,7.90625,1.37109375,1,0,0,,,,,,,7.90625,1.37109375,1,0,0,,1,25,185,129,1,
,,,,,,,,,,,,,FF,,,,,,,,1.53321,,,,,,,,,,,,,,,,,,,,,,60fee7661415e50dba611521,61036ad8dba2c62fa6a56671,2021-07-29_22h59.02.697,Simcolourproject_2stim_asymm_v5,2020.2.10,MacIntel,60,61025ae37ef11b136ea224fe,,,,,,,,,4112,27.4140625,-85.57421875,1,0,0,response3disk,,4,4.48828125,-4.4375,1,0,0,rectangle,4.48828125,-4.4375,1,0,0,,,,,,,4.48828125,-4.4375,1,0,0,,1,26,186,72,1,
,,,,,,,,,,,,,FF,,,,,,,,0.80026,,,,,,,,,,,,,,,,,,,,,,60fee7661415e50dba611521,61036ad8dba2c62fa6a56671,2021-07-29_22h59.02.697,Simcolourproject_2stim_asymm_v5,2020.2.10,MacIntel,60,61025ae37ef11b136ea224fe,,,,,,,,,1298,-70.21875,-39.390625,1,0,0,response5disk,,2,12.45703125,-6.3125,1,0,0,rectangle,12.45703125,-6.3125,1,0,0,,,,,,,12.45703125,-6.3125,1,0,0,,1,27,187,136,1,
,,,,,,,,,,,,,FF,,,,,,,,0.915435,,,,,,,,,,,,,,,,,,,,,,60fee7661415e50dba611521,61036ad8dba2c62fa6a56671,2021-07-29_22h59.02.697,Simcolourproject_2stim_asymm_v5,2020.2.10,MacIntel,60,61025ae37ef11b136ea224fe,,,,,,,,,1333,93.8515625,38.70703125,1,0,0,response1disk,,6,16.26171875,16.859375,1,0,0,rectangle,16.26171875,16.859375,1,0,0,,,,,,,16.26171875,16.859375,1,0,0,,1,28,188,152,1,
,,,,,,,,,,,,,FF,,,,,,,,1.065555,,,,,,,,,,,,,,,,,,,,,,60fee7661415e50dba611521,61036ad8dba2c62fa6a56671,2021-07-29_22h59.02.697,Simcolourproject_2stim_asymm_v5,2020.2.10,MacIntel,60,61025ae37ef11b136ea224fe,,,,,,,,,2313,33.453125,-80.58984375,1,0,0,response3disk,,4,-7.08984375,-1.1796875,1,0,0,rectangle,-7.08984375,-1.1796875,1,0,0,,,,,,,-7.08984375,-1.1796875,1,0,0,,1,29,189,19,1,
,,,,,,,,,,,,,FF,,,,,,,,1.183905,,,,,,,,,,,,,,,,,,,,,,60fee7661415e50dba611521,61036ad8dba2c62fa6a56671,2021-07-29_22h59.02.697,Simcolourproject_2stim_asymm_v5,2020.2.10,MacIntel,60,61025ae37ef11b136ea224fe,,,,,,,,,3071,37.0703125,83.0546875,1,0,0,response1disk,,7,-1.1015625,2.19921875,1,0,0,rectangle,-1.1015625,2.19921875,1,0,0,,,,,,,-1.1015625,2.19921875,1,0,0,,1,30,190,113,1,
,,,,,,,,,,,,,FF,,,,,,,,1.117295,,,,,,,,,,,,,,,,,,,,,,60fee7661415e50dba611521,61036ad8dba2c62fa6a56671,2021-07-29_22h59.02.697,Simcolourproject_2stim_asymm_v5,2020.2.10,MacIntel,60,61025ae37ef11b136ea224fe,,,,,,,,,3987,26.79296875,-70.01171875,1,0,0,response3disk,,4,-2.73828125,2.265625,1,0,0,rectangle,-2.73828125,2.265625,1,0,0,,,,,,,-2.73828125,2.265625,1,0,0,,1,31,191,131,1,
,,,,,,,,,,,,,FF,,,,,,,,0.716815,,,,,,,,,,,,,,,,,,,,,,60fee7661415e50dba611521,61036ad8dba2c62fa6a56671,2021-07-29_22h59.02.697,Simcolourproject_2stim_asymm_v5,2020.2.10,MacIntel,60,61025ae37ef11b136ea224fe,,,,,,,,,2000,76.16015625,34.21875,1,0,0,response1disk,,6,27.22265625,7.12890625,1,0,0,rectangle,27.22265625,7.12890625,1,0,0,,,,,,,27.22265625,7.12890625,1,0,0,,1,32,192,150,1,
,,,,,,,,,,,,,FF,,,,,,,,0.905845,,,,,,,,,,,,,,,,,,,,,,60fee7661415e50dba611521,61036ad8dba2c62fa6a56671,2021-07-29_22h59.02.697,Simcolourproject_2stim_asymm_v5,2020.2.10,MacIntel,60,61025ae37ef11b136ea224fe,,,,,,,,,3465,-49.5234375,-85.65625,1,0,0,response5disk,,3,-27.73828125,-1.37890625,1,0,0,rectangle,31.5859375,-96.671875,1,0,0,response3disk_3,TRUE,4,4,"[76,48,307,127,17,219,1,245,295,194,169,33,157,149,96,270,114,120,227,305]",1.56592,-2.76953125,-4.60546875,1,0,0,rectangle,1,33,193,111,1,
,,,,,,,,,,,,,FF,,,,,,,,0.984695,,,,,,,,,,,,,,,,,,,,,,60fee7661415e50dba611521,61036ad8dba2c62fa6a56671,2021-07-29_22h59.02.697,Simcolourproject_2stim_asymm_v5,2020.2.10,MacIntel,60,61025ae37ef11b136ea224fe,,,,,,,,,3261,26.5078125,57.78125,1,0,0,response1disk,,7,13.61328125,-3.34765625,1,0,0,rectangle,13.61328125,-3.34765625,1,0,0,,,,,,,13.61328125,-3.34765625,1,0,0,,1,34,194,115,1,
,,,,,,,,,,,,,FF,,,,,,,,0.93295,,,,,,,,,,,,,,,,,,,,,,60fee7661415e50dba611521,61036ad8dba2c62fa6a56671,2021-07-29_22h59.02.697,Simcolourproject_2stim_asymm_v5,2020.2.10,MacIntel,60,61025ae37ef11b136ea224fe,,,,,,,,,3878,-45.79296875,-55.171875,1,0,0,response5disk,,3,-27.75390625,-5.78515625,1,0,0,rectangle,-27.75390625,-5.78515625,1,0,0,,,,,,,-27.75390625,-5.78515625,1,0,0,,1,35,195,143,1,
,,,,,,,,,,,,,FF,,,,,,,,0.650555,,,,,,,,,,,,,,,,,,,,,,60fee7661415e50dba611521,61036ad8dba2c62fa6a56671,2021-07-29_22h59.02.697,Simcolourproject_2stim_asymm_v5,2020.2.10,MacIntel,60,61025ae37ef11b136ea224fe,,,,,,,,,1753,-86.63671875,-33.02734375,1,0,0,response5disk,,2,-25.91796875,-3.61328125,1,0,0,rectangle,-25.91796875,-3.61328125,1,0,0,,,,,,,-25.91796875,-3.61328125,1,0,0,,1,36,196,93,1,
,,,,,,,,,,,,,FF,,,,,,,,2.88436,,,,,,,,,,,,,,,,,,,,,,60fee7661415e50dba611521,61036ad8dba2c62fa6a56671,2021-07-29_22h59.02.697,Simcolourproject_2stim_asymm_v5,2020.2.10,MacIntel,60,61025ae37ef11b136ea224fe,,,,,,,,,2095,-52.0859375,-31.58203125,1,0,0,response5disk,,2,-13.30078125,-5.44140625,1,0,0,rectangle,-13.30078125,-5.44140625,1,0,0,,,,,,,-13.30078125,-5.44140625,1,0,0,,1,37,197,29,1,
,,,,,,,,,,,,,FF,,,,,,,,3.10051,,,,,,,,,,,,,,,,,,,,,,60fee7661415e50dba611521,61036ad8dba2c62fa6a56671,2021-07-29_22h59.02.697,Simcolourproject_2stim_asymm_v5,2020.2.10,MacIntel,60,61025ae37ef11b136ea224fe,,,,,,,,,1661,-31.015625,-84.1328125,1,0,0,response5disk,,3,1.7265625,-9.51953125,1,0,0,rectangle,1.7265625,-9.51953125,1,0,0,,,,,,,1.7265625,-9.51953125,1,0,0,,1,38,198,140,1,
,,,,,,,,,,,,,FF,,,,,,,,0.78431,,,,,,,,,,,,,,,,,,,,,,60fee7661415e50dba611521,61036ad8dba2c62fa6a56671,2021-07-29_22h59.02.697,Simcolourproject_2stim_asymm_v5,2020.2.10,MacIntel,60,61025ae37ef11b136ea224fe,,,,,,,,,828,32.828125,-96.65234375,1,0,0,response3disk,,4,13.9375,-5.88671875,1,0,0,rectangle,13.9375,-5.88671875,1,0,0,,,,,,,13.9375,-5.88671875,1,0,0,,1,39,199,158,1,
,,,,,,,,,,,,,FF,,,,,,,,0.56553,,,,,,,,,,,,,,,,,,,,,,60fee7661415e50dba611521,61036ad8dba2c62fa6a56671,2021-07-29_22h59.02.697,Simcolourproject_2stim_asymm_v5,2020.2.10,MacIntel,60,61025ae37ef11b136ea224fe,,,,,,,,,2376,36.0703125,-101.7617188,1,0,0,response3disk,,4,16.22265625,-2.546875,1,0,0,rectangle,16.22265625,-2.546875,1,0,0,,,,,,,16.22265625,-2.546875,1,0,0,,1,40,200,80,1,
,,,,,,,,,,,,,FF,,,,,,,,1.084365,,,,,,,,,,,,,,,,,,,,,,60fee7661415e50dba611521,61036ad8dba2c62fa6a56671,2021-07-29_22h59.02.697,Simcolourproject_2stim_asymm_v5,2020.2.10,MacIntel,60,61025ae37ef11b136ea224fe,,,,,,,,,2972,75.56640625,36.62109375,1,0,0,response1disk,,6,20.55078125,6.296875,1,0,0,rectangle,20.55078125,6.296875,1,0,0,,,,,,,20.55078125,6.296875,1,0,0,,1,41,201,124,1,
,,,,,,,,,,,,,FF,,,,,,,,0.700905,,,,,,,,,,,,,,,,,,,,,,60fee7661415e50dba611521,61036ad8dba2c62fa6a56671,2021-07-29_22h59.02.697,Simcolourproject_2stim_asymm_v5,2020.2.10,MacIntel,60,61025ae37ef11b136ea224fe,,,,,,,,,82,-75.3984375,-33.60546875,1,0,0,response5disk,,2,0.6953125,-7.0234375,1,0,0,rectangle,0.6953125,-7.0234375,1,0,0,,,,,,,0.6953125,-7.0234375,1,0,0,,1,42,202,126,1,
,,,,,,,,,,,,,FF,,,,,,,,0.768525,,,,,,,,,,,,,,,,,,,,,,60fee7661415e50dba611521,61036ad8dba2c62fa6a56671,2021-07-29_22h59.02.697,Simcolourproject_2stim_asymm_v5,2020.2.10,MacIntel,60,61025ae37ef11b136ea224fe,,,,,,,,,1578,77.390625,-39.13671875,1,0,0,response3disk,,5,4.046875,-6.55859375,1,0,0,rectangle,4.046875,-6.55859375,1,0,0,,,,,,,4.046875,-6.55859375,1,0,0,,1,43,203,123,1,
,,,,,,,,,,,,,FF,,,,,,,,1.40104,,,,,,,,,,,,,,,,,,,,,,60fee7661415e50dba611521,61036ad8dba2c62fa6a56671,2021-07-29_22h59.02.697,Simcolourproject_2stim_asymm_v5,2020.2.10,MacIntel,60,61025ae37ef11b136ea224fe,,,,,,,,,3380,72.25390625,38.1875,1,0,0,response1disk,,6,19.53125,4.14453125,1,0,0,rectangle,19.53125,4.14453125,1,0,0,,,,,,,19.53125,4.14453125,1,0,0,,1,44,204,142,1,
,,,,,,,,,,,,,FF,,,,,,,,0.86666,,,,,,,,,,,,,,,,,,,,,,60fee7661415e50dba611521,61036ad8dba2c62fa6a56671,2021-07-29_22h59.02.697,Simcolourproject_2stim_asymm_v5,2020.2.10,MacIntel,60,61025ae37ef11b136ea224fe,,,,,,,,,959,-47.703125,-69.3046875,1,0,0,response5disk,,3,-0.5703125,14.80078125,1,0,0,rectangle,-0.5703125,14.80078125,1,0,0,,,,,,,-0.5703125,14.80078125,1,0,0,,1,45,205,67,1,
,,,,,,,,,,,,,FF,,,,,,,,0.9169,,,,,,,,,,,,,,,,,,,,,,60fee7661415e50dba611521,61036ad8dba2c62fa6a56671,2021-07-29_22h59.02.697,Simcolourproject_2stim_asymm_v5,2020.2.10,MacIntel,60,61025ae37ef11b136ea224fe,,,,,,,,,1502,67.7890625,42.80859375,1,0,0,response1disk,,6,8.62890625,4.9140625,1,0,0,rectangle,8.62890625,4.9140625,1,0,0,,,,,,,8.62890625,4.9140625,1,0,0,,1,46,206,15,1,
,,,,,,,,,,,,,FF,,,,,,,,0.882335,,,,,,,,,,,,,,,,,,,,,,60fee7661415e50dba611521,61036ad8dba2c62fa6a56671,2021-07-29_22h59.02.697,Simcolourproject_2stim_asymm_v5,2020.2.10,MacIntel,60,61025ae37ef11b136ea224fe,,,,,,,,,2766,56.8515625,93.125,1,0,0,response1disk,,7,16.25390625,-4.0703125,1,0,0,rectangle,16.25390625,-4.0703125,1,0,0,,,,,,,16.25390625,-4.0703125,1,0,0,,1,47,207,44,1,
,,,,,,,,,,,,,FF,,,,,,,,0.966875,,,,,,,,,,,,,,,,,,,,,,60fee7661415e50dba611521,61036ad8dba2c62fa6a56671,2021-07-29_22h59.02.697,Simcolourproject_2stim_asymm_v5,2020.2.10,MacIntel,60,61025ae37ef11b136ea224fe,,,,,,,,,3882,-70.26953125,-38.609375,1,0,0,response5disk,,2,2.546875,-17.453125,1,0,0,rectangle,2.546875,-17.453125,1,0,0,,,,,,,2.546875,-17.453125,1,0,0,,1,48,208,62,1,
,,,,,,,,,,,,,FF,,,,,,,,0.68476,,,,,,,,,,,,,,,,,,,,,,60fee7661415e50dba611521,61036ad8dba2c62fa6a56671,2021-07-29_22h59.02.697,Simcolourproject_2stim_asymm_v5,2020.2.10,MacIntel,60,61025ae37ef11b136ea224fe,,,,,,,,,1536,-39.77734375,-92.71484375,1,0,0,response5disk,,3,-8.34765625,0.078125,1,0,0,rectangle,-8.34765625,0.078125,1,0,0,,,,,,,-8.34765625,0.078125,1,0,0,,1,49,209,107,1,
,,,,,,,,,,,,,FF,,,,,,,,0.83238,,,,,,,,,,,,,,,,,,,,,,60fee7661415e50dba611521,61036ad8dba2c62fa6a56671,2021-07-29_22h59.02.697,Simcolourproject_2stim_asymm_v5,2020.2.10,MacIntel,60,61025ae37ef11b136ea224fe,,,,,,,,,196,-27.98828125,-71.20703125,1,0,0,response5disk,,3,-0.5625,7.47265625,1,0,0,rectangle,-0.5625,7.47265625,1,0,0,,,,,,,-0.5625,7.47265625,1,0,0,,1,50,210,9,1,
,,,,,,,,,,,,,FF,,,,,,,,0.699555,,,,,,,,,,,,,,,,,,,,,,60fee7661415e50dba611521,61036ad8dba2c62fa6a56671,2021-07-29_22h59.02.697,Simcolourproject_2stim_asymm_v5,2020.2.10,MacIntel,60,61025ae37ef11b136ea224fe,,,,,,,,,1437,42.50390625,-83.81640625,1,0,0,response3disk,,4,12.19140625,-8.7265625,1,0,0,rectangle,12.19140625,-8.7265625,1,0,0,,,,,,,12.19140625,-8.7265625,1,0,0,,1,51,211,97,1,
,,,,,,,,,,,,,FF,,,,,,,,0.78459,,,,,,,,,,,,,,,,,,,,,,60fee7661415e50dba611521,61036ad8dba2c62fa6a56671,2021-07-29_22h59.02.697,Simcolourproject_2stim_asymm_v5,2020.2.10,MacIntel,60,61025ae37ef11b136ea224fe,,,,,,,,,2605,-64.10546875,-29.69921875,1,0,0,response5disk,,2,1.83984375,-1.76953125,1,0,0,rectangle,1.83984375,-1.76953125,1,0,0,,,,,,,1.83984375,-1.76953125,1,0,0,,1,52,212,30,1,
,,,,,,,,,,,,,FF,,,,,,,,0.749305,,,,,,,,,,,,,,,,,,,,,,60fee7661415e50dba611521,61036ad8dba2c62fa6a56671,2021-07-29_22h59.02.697,Simcolourproject_2stim_asymm_v5,2020.2.10,MacIntel,60,61025ae37ef11b136ea224fe,,,,,,,,,3944,-33.5625,-75.3984375,1,0,0,response5disk,,3,-12.87890625,-6.39453125,1,0,0,rectangle,-12.87890625,-6.39453125,1,0,0,,,,,,,-12.87890625,-6.39453125,1,0,0,,1,53,213,82,1,
,,,,,,,,,,,,,FF,,,,,,,,1.033375,,,,,,,,,,,,,,,,,,,,,,60fee7661415e50dba611521,61036ad8dba2c62fa6a56671,2021-07-29_22h59.02.697,Simcolourproject_2stim_asymm_v5,2020.2.10,MacIntel,60,61025ae37ef11b136ea224fe,,,,,,,,,1690,-44.2265625,-76.98046875,1,0,0,response5disk,,3,-19.18359375,-13.73828125,1,0,0,rectangle,-19.18359375,-13.73828125,1,0,0,,,,,,,-19.18359375,-13.73828125,1,0,0,,1,54,214,112,1,
,,,,,,,,,,,,,FF,,,,,,,,0.66161,,,,,,,,,,,,,,,,,,,,,,60fee7661415e50dba611521,61036ad8dba2c62fa6a56671,2021-07-29_22h59.02.697,Simcolourproject_2stim_asymm_v5,2020.2.10,MacIntel,60,61025ae37ef11b136ea224fe,,,,,,,,,3382,-79.8203125,29.28125,1,0,0,response7disk,,1,-17.97265625,3.5859375,1,0,0,rectangle,-17.97265625,3.5859375,1,0,0,,,,,,,-17.97265625,3.5859375,1,0,0,,1,55,215,90,1,
,,,,,,,,,,,,,FF,,,,,,,,1.53315,,,,,,,,,,,,,,,,,,,,,,60fee7661415e50dba611521,61036ad8dba2c62fa6a56671,2021-07-29_22h59.02.697,Simcolourproject_2stim_asymm_v5,2020.2.10,MacIntel,60,61025ae37ef11b136ea224fe,,,,,,,,,1417,82.640625,35.890625,1,0,0,response1disk,,6,29.19921875,0.6015625,1,0,0,rectangle,29.19921875,0.6015625,1,0,0,,,,,,,29.19921875,0.6015625,1,0,0,,1,56,216,122,1,
,,,,,,,,,,,,,FF,,,,,,,,0.650545,,,,,,,,,,,,,,,,,,,,,,60fee7661415e50dba611521,61036ad8dba2c62fa6a56671,2021-07-29_22h59.02.697,Simcolourproject_2stim_asymm_v5,2020.2.10,MacIntel,60,61025ae37ef11b136ea224fe,,,,,,,,,3034,65.8203125,33.14453125,1,0,0,response1disk,,6,27.87109375,4.25390625,1,0,0,rectangle,27.87109375,4.25390625,1,0,0,,,,,,,27.87109375,4.25390625,1,0,0,,1,57,217,73,1,
,,,,,,,,,,,,,FF,,,,,,,,0.61673,,,,,,,,,,,,,,,,,,,,,,60fee7661415e50dba611521,61036ad8dba2c62fa6a56671,2021-07-29_22h59.02.697,Simcolourproject_2stim_asymm_v5,2020.2.10,MacIntel,60,61025ae37ef11b136ea224fe,,,,,,,,,3086,66.984375,24.80078125,1,0,0,response1disk,,6,26.1015625,-0.41015625,1,0,0,rectangle,30.5703125,-75.03515625,1,0,0,response3disk_3,TRUE,4,4,"[76,48,307,127,17,219,1,245,295,194,169,33,157,149,96,270,114,120,227,305]",1.49971,0.06640625,-3.07421875,1,0,0,rectangle,1,58,218,32,1,
,,,,,,,,,,,,,FF,,,,,,,,0.767365,,,,,,,,,,,,,,,,,,,,,,60fee7661415e50dba611521,61036ad8dba2c62fa6a56671,2021-07-29_22h59.02.697,Simcolourproject_2stim_asymm_v5,2020.2.10,MacIntel,60,61025ae37ef11b136ea224fe,,,,,,,,,4218,-70.296875,38.8828125,1,0,0,response7disk,,1,1.7734375,-3.0078125,1,0,0,rectangle,1.7734375,-3.0078125,1,0,0,,,,,,,1.7734375,-3.0078125,1,0,0,,1,59,219,21,1,
,,,,,,,,,,,,,FF,,,,,,,,0.782435,,,,,,,,,,,,,,,,,,,,,,60fee7661415e50dba611521,61036ad8dba2c62fa6a56671,2021-07-29_22h59.02.697,Simcolourproject_2stim_asymm_v5,2020.2.10,MacIntel,60,61025ae37ef11b136ea224fe,,,,,,,,,1144,-65.1328125,-35.69140625,1,0,0,response5disk,,2,-1.8828125,-17.6171875,1,0,0,rectangle,-1.8828125,-17.6171875,1,0,0,,,,,,,-1.8828125,-17.6171875,1,0,0,,1,60,220,66,1,
,,,,,,,,,,,,,FF,,,,,,,,0.71611,,,,,,,,,,,,,,,,,,,,,,60fee7661415e50dba611521,61036ad8dba2c62fa6a56671,2021-07-29_22h59.02.697,Simcolourproject_2stim_asymm_v5,2020.2.10,MacIntel,60,61025ae37ef11b136ea224fe,,,,,,,,,1339,81.9140625,38.73828125,1,0,0,response1disk,,6,17.90625,15.2734375,1,0,0,rectangle,17.90625,15.2734375,1,0,0,,,,,,,17.90625,15.2734375,1,0,0,,1,61,221,41,1,
,,,,,,,,,,,,,FF,,,,,,,,0.485105,,,,,,,,,,,,,,,,,,,,,,60fee7661415e50dba611521,61036ad8dba2c62fa6a56671,2021-07-29_22h59.02.697,Simcolourproject_2stim_asymm_v5,2020.2.10,MacIntel,60,61025ae37ef11b136ea224fe,,,,,,,,,2816,63.2265625,35.0078125,1,0,0,response1disk,,6,1.87890625,-0.5703125,1,0,0,rectangle,1.87890625,-0.5703125,1,0,0,,,,,,,1.87890625,-0.5703125,1,0,0,,1,62,222,34,1,
,,,,,,,,,,,,,FF,,,,,,,,0.70063,,,,,,,,,,,,,,,,,,,,,,60fee7661415e50dba611521,61036ad8dba2c62fa6a56671,2021-07-29_22h59.02.697,Simcolourproject_2stim_asymm_v5,2020.2.10,MacIntel,60,61025ae37ef11b136ea224fe,,,,,,,,,1691,-110.0039063,33,1,0,0,response7disk,,1,-8.0625,-4.5390625,1,0,0,rectangle,-8.0625,-4.5390625,1,0,0,,,,,,,-8.0625,-4.5390625,1,0,0,,1,63,223,117,1,
,,,,,,,,,,,,,FF,,,,,,,,0.7662,,,,,,,,,,,,,,,,,,,,,,60fee7661415e50dba611521,61036ad8dba2c62fa6a56671,2021-07-29_22h59.02.697,Simcolourproject_2stim_asymm_v5,2020.2.10,MacIntel,60,61025ae37ef11b136ea224fe,,,,,,,,,3077,75.3359375,36.69921875,1,0,0,response1disk,,6,27.3828125,2.6328125,1,0,0,rectangle,27.3828125,2.6328125,1,0,0,,,,,,,27.3828125,2.6328125,1,0,0,,1,64,224,39,1,
,,,,,,,,,,,,,FF,,,,,,,,0.834345,,,,,,,,,,,,,,,,,,,,,,60fee7661415e50dba611521,61036ad8dba2c62fa6a56671,2021-07-29_22h59.02.697,Simcolourproject_2stim_asymm_v5,2020.2.10,MacIntel,60,61025ae37ef11b136ea224fe,,,,,,,,,2616,34.3046875,-66.03515625,1,0,0,response3disk,,4,15.16015625,-14.3671875,1,0,0,rectangle,15.16015625,-14.3671875,1,0,0,,,,,,,15.16015625,-14.3671875,1,0,0,,1,65,225,77,1,
,,,,,,,,,,,,,FF,,,,,,,,0.74968,,,,,,,,,,,,,,,,,,,,,,60fee7661415e50dba611521,61036ad8dba2c62fa6a56671,2021-07-29_22h59.02.697,Simcolourproject_2stim_asymm_v5,2020.2.10,MacIntel,60,61025ae37ef11b136ea224fe,,,,,,,,,2162,-32.4921875,-83.3515625,1,0,0,response5disk,,3,-18.75390625,-5.32421875,1,0,0,rectangle,-74.64453125,-38.9765625,1,0,0,response5disk_3,TRUE,2,2,"[76,48,307,127,17,219,1,245,295,194,169,33,157,149,96,270,114,120,227,305]",1.200445,-0.14453125,2.9921875,1,0,0,rectangle,1,66,226,40,1,
,,,,,,,,,,,,,FF,,,,,,,,1.30088,,,,,,,,,,,,,,,,,,,,,,60fee7661415e50dba611521,61036ad8dba2c62fa6a56671,2021-07-29_22h59.02.697,Simcolourproject_2stim_asymm_v5,2020.2.10,MacIntel,60,61025ae37ef11b136ea224fe,,,,,,,,,2821,46.1875,74.46875,1,0,0,response1disk,,7,6.52734375,12.16796875,1,0,0,rectangle,6.52734375,12.16796875,1,0,0,,,,,,,6.52734375,12.16796875,1,0,0,,1,67,227,75,1,
,,,,,,,,,,,,,FF,,,,,,,,0.783855,,,,,,,,,,,,,,,,,,,,,,60fee7661415e50dba611521,61036ad8dba2c62fa6a56671,2021-07-29_22h59.02.697,Simcolourproject_2stim_asymm_v5,2020.2.10,MacIntel,60,61025ae37ef11b136ea224fe,,,,,,,,,3983,-37.78515625,-74.40234375,1,0,0,response5disk,,3,-25.109375,-7.8984375,1,0,0,rectangle,-25.109375,-7.8984375,1,0,0,,,,,,,-25.109375,-7.8984375,1,0,0,,1,68,228,51,1,
,,,,,,,,,,,,,FF,,,,,,,,0.84932,,,,,,,,,,,,,,,,,,,,,,60fee7661415e50dba611521,61036ad8dba2c62fa6a56671,2021-07-29_22h59.02.697,Simcolourproject_2stim_asymm_v5,2020.2.10,MacIntel,60,61025ae37ef11b136ea224fe,,,,,,,,,321,54.62890625,101.6210938,1,0,0,response1disk,,7,10.578125,12.78515625,1,0,0,rectangle,10.578125,12.78515625,1,0,0,,,,,,,10.578125,12.78515625,1,0,0,,1,69,229,57,1,
,,,,,,,,,,,,,FF,,,,,,,,0.79784,,,,,,,,,,,,,,,,,,,,,,60fee7661415e50dba611521,61036ad8dba2c62fa6a56671,2021-07-29_22h59.02.697,Simcolourproject_2stim_asymm_v5,2020.2.10,MacIntel,60,61025ae37ef11b136ea224fe,,,,,,,,,71,-36.1484375,-78.53125,1,0,0,response5disk,,3,-25.87109375,-4.16015625,1,0,0,rectangle,-25.87109375,-4.16015625,1,0,0,,,,,,,-25.87109375,-4.16015625,1,0,0,,1,70,230,27,1,
,,,,,,,,,,,,,FF,,,,,,,,0.700405,,,,,,,,,,,,,,,,,,,,,,60fee7661415e50dba611521,61036ad8dba2c62fa6a56671,2021-07-29_22h59.02.697,Simcolourproject_2stim_asymm_v5,2020.2.10,MacIntel,60,61025ae37ef11b136ea224fe,,,,,,,,,1093,74.0546875,39.43359375,1,0,0,response1disk,,6,-1.39453125,-12.19921875,1,0,0,rectangle,-1.39453125,-12.19921875,1,0,0,,,,,,,-1.39453125,-12.19921875,1,0,0,,1,71,231,26,1,
,,,,,,,,,,,,,FF,,,,,,,,0.700765,,,,,,,,,,,,,,,,,,,,,,60fee7661415e50dba611521,61036ad8dba2c62fa6a56671,2021-07-29_22h59.02.697,Simcolourproject_2stim_asymm_v5,2020.2.10,MacIntel,60,61025ae37ef11b136ea224fe,,,,,,,,,2433,87.640625,-40.11328125,1,0,0,response3disk,,5,-9.53515625,-10.5546875,1,0,0,rectangle,-9.53515625,-10.5546875,1,0,0,,,,,,,-9.53515625,-10.5546875,1,0,0,,1,72,232,65,1,
,,,,,,,,,,,,,FF,,,,,,,,0.59797,,,,,,,,,,,,,,,,,,,,,,60fee7661415e50dba611521,61036ad8dba2c62fa6a56671,2021-07-29_22h59.02.697,Simcolourproject_2stim_asymm_v5,2020.2.10,MacIntel,60,61025ae37ef11b136ea224fe,,,,,,,,,4168,-68.51953125,-32.2265625,1,0,0,response5disk,,2,-1.15234375,-0.43359375,1,0,0,rectangle,-1.15234375,-0.43359375,1,0,0,,,,,,,-1.15234375,-0.43359375,1,0,0,,1,73,233,135,1,
,,,,,,,,,,,,,FF,,,,,,,,0.683025,,,,,,,,,,,,,,,,,,,,,,60fee7661415e50dba611521,61036ad8dba2c62fa6a56671,2021-07-29_22h59.02.697,Simcolourproject_2stim_asymm_v5,2020.2.10,MacIntel,60,61025ae37ef11b136ea224fe,,,,,,,,,1972,-55.234375,-26.2734375,1,0,0,response5disk,,2,12.3046875,6.8515625,1,0,0,rectangle,12.3046875,6.8515625,1,0,0,,,,,,,12.3046875,6.8515625,1,0,0,,1,74,234,68,1,
,,,,,,,,,,,,,FF,,,,,,,,0.58835,,,,,,,,,,,,,,,,,,,,,,60fee7661415e50dba611521,61036ad8dba2c62fa6a56671,2021-07-29_22h59.02.697,Simcolourproject_2stim_asymm_v5,2020.2.10,MacIntel,60,61025ae37ef11b136ea224fe,,,,,,,,,1641,33.625,61.328125,1,0,0,response1disk,,7,6.1484375,5.05078125,1,0,0,rectangle,6.1484375,5.05078125,1,0,0,,,,,,,6.1484375,5.05078125,1,0,0,,1,75,235,146,1,
,,,,,,,,,,,,,FF,,,,,,,,0.98295,,,,,,,,,,,,,,,,,,,,,,60fee7661415e50dba611521,61036ad8dba2c62fa6a56671,2021-07-29_22h59.02.697,Simcolourproject_2stim_asymm_v5,2020.2.10,MacIntel,60,61025ae37ef11b136ea224fe,,,,,,,,,3381,-74.140625,25.5390625,1,0,0,response7disk,,1,-3.734375,-6.3046875,1,0,0,rectangle,-3.734375,-6.3046875,1,0,0,,,,,,,-3.734375,-6.3046875,1,0,0,,1,76,236,138,1,
,,,,,,,,,,,,,FF,,,,,,,,1.01563,,,,,,,,,,,,,,,,,,,,,,60fee7661415e50dba611521,61036ad8dba2c62fa6a56671,2021-07-29_22h59.02.697,Simcolourproject_2stim_asymm_v5,2020.2.10,MacIntel,60,61025ae37ef11b136ea224fe,,,,,,,,,2124,68.33203125,-22.5703125,1,0,0,response3disk,,5,4.62890625,-0.5703125,1,0,0,rectangle,4.62890625,-0.5703125,1,0,0,,,,,,,4.62890625,-0.5703125,1,0,0,,1,77,237,86,1,
,,,,,,,,,,,,,FF,,,,,,,,1.366325,,,,,,,,,,,,,,,,,,,,,,60fee7661415e50dba611521,61036ad8dba2c62fa6a56671,2021-07-29_22h59.02.697,Simcolourproject_2stim_asymm_v5,2020.2.10,MacIntel,60,61025ae37ef11b136ea224fe,,,,,,,,,3089,-37.94140625,-87.76953125,1,0,0,response5disk,,3,-5.3984375,1.3828125,1,0,0,rectangle,-5.3984375,1.3828125,1,0,0,,,,,,,-5.3984375,1.3828125,1,0,0,,1,78,238,78,1,
,,,,,,,,,,,,,FF,,,,,,,,0.833445,,,,,,,,,,,,,,,,,,,,,,60fee7661415e50dba611521,61036ad8dba2c62fa6a56671,2021-07-29_22h59.02.697,Simcolourproject_2stim_asymm_v5,2020.2.10,MacIntel,60,61025ae37ef11b136ea224fe,,,,,,,,,3495,-30.921875,-61.953125,1,0,0,response5disk,,3,1.5078125,0.20703125,1,0,0,rectangle,1.5078125,0.20703125,1,0,0,,,,,,,1.5078125,0.20703125,1,0,0,,1,79,239,16,1,
,,,,,,,,,,,,,FF,,,,,,,,0.915695,,,,,,,,,,,,,,,,,,,,,,60fee7661415e50dba611521,61036ad8dba2c62fa6a56671,2021-07-29_22h59.02.697,Simcolourproject_2stim_asymm_v5,2020.2.10,MacIntel,60,61025ae37ef11b136ea224fe,,,,,,,,,417,86.33984375,30.5234375,1,0,0,response1disk,,6,33.921875,6.37890625,1,0,0,rectangle,33.921875,6.37890625,1,0,0,,,,,,,33.921875,6.37890625,1,0,0,,1,80,240,127,1,
,,,,,,,,,,,,,FF,,,,,,,,1.399945,,,,,,,,,,,,,,,,,,,,,,60fee7661415e50dba611521,61036ad8dba2c62fa6a56671,2021-07-29_22h59.02.697,Simcolourproject_2stim_asymm_v5,2020.2.10,MacIntel,60,61025ae37ef11b136ea224fe,,,,,,,,,3004,-33.34375,-88.42578125,1,0,0,response5disk,,3,-14.73828125,2.4140625,1,0,0,rectangle,-14.73828125,2.4140625,1,0,0,,,,,,,-14.73828125,2.4140625,1,0,0,,1,81,241,139,1,
,,,,,,,,,,,,,FF,,,,,,,,1.28439,,,,,,,,,,,,,,,,,,,,,,60fee7661415e50dba611521,61036ad8dba2c62fa6a56671,2021-07-29_22h59.02.697,Simcolourproject_2stim_asymm_v5,2020.2.10,MacIntel,60,61025ae37ef11b136ea224fe,,,,,,,,,4015,42.76171875,-82.94921875,1,0,0,response3disk,,4,18.36328125,-2.33203125,1,0,0,rectangle,18.36328125,-2.33203125,1,0,0,,,,,,,18.36328125,-2.33203125,1,0,0,,1,82,242,28,1,
,,,,,,,,,,,,,FF,,,,,,,,0.716745,,,,,,,,,,,,,,,,,,,,,,60fee7661415e50dba611521,61036ad8dba2c62fa6a56671,2021-07-29_22h59.02.697,Simcolourproject_2stim_asymm_v5,2020.2.10,MacIntel,60,61025ae37ef11b136ea224fe,,,,,,,,,3335,53.11328125,89.91015625,1,0,0,response1disk,,7,5.7734375,-2.765625,1,0,0,rectangle,5.7734375,-2.765625,1,0,0,,,,,,,5.7734375,-2.765625,1,0,0,,1,83,243,159,1,
,,,,,,,,,,,,,FF,,,,,,,,0.749505,,,,,,,,,,,,,,,,,,,,,,60fee7661415e50dba611521,61036ad8dba2c62fa6a56671,2021-07-29_22h59.02.697,Simcolourproject_2stim_asymm_v5,2020.2.10,MacIntel,60,61025ae37ef11b136ea224fe,,,,,,,,,4240,-71.15234375,-30.3671875,1,0,0,response5disk,,2,0.7421875,-10.6796875,1,0,0,rectangle,-41.359375,87.2265625,1,0,0,response7disk_3,TRUE,0,0,"[76,48,307,127,17,219,1,245,295,194,169,33,157,149,96,270,114,120,227,305]",1.32532,-1.05859375,-14.1328125,1,0,0,rectangle,1,84,244,31,1,
,,,,,,,,,,,,,FF,,,,,,,,0.684535,,,,,,,,,,,,,,,,,,,,,,60fee7661415e50dba611521,61036ad8dba2c62fa6a56671,2021-07-29_22h59.02.697,Simcolourproject_2stim_asymm_v5,2020.2.10,MacIntel,60,61025ae37ef11b136ea224fe,,,,,,,,,3156,-72.06640625,18.0546875,1,0,0,response7disk,,1,-14.94921875,-15.6796875,1,0,0,rectangle,-14.94921875,-15.6796875,1,0,0,,,,,,,-14.94921875,-15.6796875,1,0,0,,1,85,245,100,1,
