key_resp.keys,key_resp.rt,key_resp_14.keys,key_resp_14.rt,key_resp_15.keys,key_resp_15.rt,key_resp_17.keys,key_resp_17.rt,key_resp_9.keys,key_resp_9.rt,key_resp_10.keys,key_resp_10.rt,practice_comparison,Ecc,mouse_5.x,mouse_5.y,mouse_5.leftButton,mouse_5.midButton,mouse_5.rightButton,mouse_5.clicked_name,pracsimilarity,response_time,mouse_10.x,mouse_10.y,mouse_10.leftButton,mouse_10.midButton,mouse_10.rightButton,mouse_10.clicked_name,mouse_7.x,mouse_7.y,mouse_7.leftButton,mouse_7.midButton,mouse_7.rightButton,mouse_6.x,mouse_6.y,mouse_6.leftButton,mouse_6.midButton,mouse_6.rightButton,duringprac.thisRepN,duringprac.thisTrialN,duringprac.thisN,duringprac.thisIndex,duringprac.ran,participant,session,date,expName,psychopyVersion,OS,frameRate,study_id,mouse_7.clicked_name,catchpracsimilarity,catch_response_time,catchnumberprac,catchtrialorderprac,mouse_6.clicked_name,key_resp_22.keys,key_resp_22.rt,realcomparison,mouse.x,mouse.y,mouse.leftButton,mouse.midButton,mouse.rightButton,mouse.clicked_name,Colour2,similarity,mouse_2.x,mouse_2.y,mouse_2.leftButton,mouse_2.midButton,mouse_2.rightButton,mouse_2.clicked_name,mouse_3.x,mouse_3.y,mouse_3.leftButton,mouse_3.midButton,mouse_3.rightButton,mouse_11.x,mouse_11.y,mouse_11.leftButton,mouse_11.midButton,mouse_11.rightButton,trials_2.thisRepN,trials_2.thisTrialN,trials_2.thisN,trials_2.thisIndex,trials_2.ran,Colour1,mouse_3.clicked_name,catchornah,catchsimilarity,catchnumber,catchtrialorder,catchRT,mouse_11.clicked_name
space,1.106,space,5.946,space,16.456,space,10.818,space,3.281,space,8.514,122,FF,44,95,1,0,0,response1disk_5,7,10.621,1,1,1,0,0,rectangle_8,1,1,1,0,0,1,1,1,0,0,0,0,0,5,1,60fe06da23cd2d64aaaa9260,61036e8e2cbe58fb177bb537,2021-07-29_20h15.13.059,Simcolourproject_2stim_asymm_v5,2020.2.10,MacIntel,60,61025ae37ef11b136ea224fe,,,,,,,,,,,,,,,,,,,,,,,,,,,,,,,,,,,,,,,,,,,,,,
,,,,,,,,,,,,51,PF,21,-71,1,0,0,response3disk_5,4,8.322,-12,0,1,0,0,rectangle_8,-42,69,1,0,0,-3,7,1,0,0,0,1,1,4,1,60fe06da23cd2d64aaaa9260,61036e8e2cbe58fb177bb537,2021-07-29_20h15.13.059,Simcolourproject_2stim_asymm_v5,2020.2.10,MacIntel,60,61025ae37ef11b136ea224fe,response7disk_7,0,4.052,0,"[2,5]",rectangle_4,,,,,,,,,,,,,,,,,,,,,,,,,,,,,,,,,,,,,,,,
,,,,,,,,,,,,130,FF,27,71,1,0,0,response1disk_5,7,3.768,-3,4,1,0,0,rectangle_8,-3,4,1,0,0,-3,4,1,0,0,0,2,2,3,1,60fe06da23cd2d64aaaa9260,61036e8e2cbe58fb177bb537,2021-07-29_20h15.13.059,Simcolourproject_2stim_asymm_v5,2020.2.10,MacIntel,60,61025ae37ef11b136ea224fe,,,,,,,,,,,,,,,,,,,,,,,,,,,,,,,,,,,,,,,,,,,,,,
,,,,,,,,,,,,19,PF,-29,-78,1,0,0,response5disk_5,3,10.321,2,-7,1,0,0,rectangle_8,2,-7,1,0,0,2,-7,1,0,0,0,3,3,6,1,60fe06da23cd2d64aaaa9260,61036e8e2cbe58fb177bb537,2021-07-29_20h15.13.059,Simcolourproject_2stim_asymm_v5,2020.2.10,MacIntel,60,61025ae37ef11b136ea224fe,,,,,,,,,,,,,,,,,,,,,,,,,,,,,,,,,,,,,,,,,,,,,,
,,,,,,,,,,,,133,PF,79,26,1,0,0,response1disk_5,6,3.523,-3,8,1,0,0,rectangle_8,-30,75,1,0,0,-6,6,1,0,0,0,4,4,1,1,60fe06da23cd2d64aaaa9260,61036e8e2cbe58fb177bb537,2021-07-29_20h15.13.059,Simcolourproject_2stim_asymm_v5,2020.2.10,MacIntel,60,61025ae37ef11b136ea224fe,response7disk_7,0,3.095,0,"[2,5]",rectangle_4,,,,,,,,,,,,,,,,,,,,,,,,,,,,,,,,,,,,,,,,
,,,,,,,,,,,,147,FF,46,87,1,0,0,response1disk_5,7,2.134,-11,0,1,0,0,rectangle_8,-11,0,1,0,0,-11,0,1,0,0,0,5,5,0,1,60fe06da23cd2d64aaaa9260,61036e8e2cbe58fb177bb537,2021-07-29_20h15.13.059,Simcolourproject_2stim_asymm_v5,2020.2.10,MacIntel,60,61025ae37ef11b136ea224fe,,,,,,,,,,,,,,,,,,,,,,,,,,,,,,,,,,,,,,,,,,,,,,
,,,,,,,,,,,,23,PF,37,64,1,0,0,response1disk_5,7,13.874,9,2,1,0,0,rectangle_8,9,2,1,0,0,9,2,1,0,0,0,6,6,2,1,60fe06da23cd2d64aaaa9260,61036e8e2cbe58fb177bb537,2021-07-29_20h15.13.059,Simcolourproject_2stim_asymm_v5,2020.2.10,MacIntel,60,61025ae37ef11b136ea224fe,,,,,,,,,,,,,,,,,,,,,,,,,,,,,,,,,,,,,,,,,,,,,,
,,,,,,,,,,,,,FF,,,,,,,,18.524,,,,,,,,,,,,,,,,,,,,,,60fe06da23cd2d64aaaa9260,61036e8e2cbe58fb177bb537,2021-07-29_20h15.13.059,Simcolourproject_2stim_asymm_v5,2020.2.10,MacIntel,60,61025ae37ef11b136ea224fe,,,,,,,space,14.044,2313,59,-34,1,0,0,response3disk,,5,5,2,1,0,0,rectangle,5,2,1,0,0,5,2,1,0,0,0,0,0,118,1,,,,,,,,
,,,,,,,,,,,,,FF,,,,,,,,3.719,,,,,,,,,,,,,,,,,,,,,,60fe06da23cd2d64aaaa9260,61036e8e2cbe58fb177bb537,2021-07-29_20h15.13.059,Simcolourproject_2stim_asymm_v5,2020.2.10,MacIntel,60,61025ae37ef11b136ea224fe,,,,,,,,,4200,-27,64,1,0,0,response7disk,,0,1,8,1,0,0,rectangle,1,8,1,0,0,1,8,1,0,0,0,1,1,74,1,,,,,,,,
,,,,,,,,,,,,,FF,,,,,,,,1.868,,,,,,,,,,,,,,,,,,,,,,60fe06da23cd2d64aaaa9260,61036e8e2cbe58fb177bb537,2021-07-29_20h15.13.059,Simcolourproject_2stim_asymm_v5,2020.2.10,MacIntel,60,61025ae37ef11b136ea224fe,,,,,,,,,826,-35,-51,1,0,0,response5disk,,3,-8,-1,1,0,0,rectangle,-8,-1,1,0,0,-8,-1,1,0,0,0,2,2,66,1,,,,,,,,
,,,,,,,,,,,,,FF,,,,,,,,1.483,,,,,,,,,,,,,,,,,,,,,,60fe06da23cd2d64aaaa9260,61036e8e2cbe58fb177bb537,2021-07-29_20h15.13.059,Simcolourproject_2stim_asymm_v5,2020.2.10,MacIntel,60,61025ae37ef11b136ea224fe,,,,,,,,,1731,68,47,1,0,0,response1disk,,6,7,5,1,0,0,rectangle,7,5,1,0,0,7,5,1,0,0,0,3,3,55,1,,,,,,,,
,,,,,,,,,,,,,FF,,,,,,,,1.451,,,,,,,,,,,,,,,,,,,,,,60fe06da23cd2d64aaaa9260,61036e8e2cbe58fb177bb537,2021-07-29_20h15.13.059,Simcolourproject_2stim_asymm_v5,2020.2.10,MacIntel,60,61025ae37ef11b136ea224fe,,,,,,,,,2145,45,70,1,0,0,response1disk,,7,-9,8,1,0,0,rectangle,-9,8,1,0,0,-9,8,1,0,0,0,4,4,151,1,,,,,,,,
,,,,,,,,,,,,,FF,,,,,,,,1.601,,,,,,,,,,,,,,,,,,,,,,60fe06da23cd2d64aaaa9260,61036e8e2cbe58fb177bb537,2021-07-29_20h15.13.059,Simcolourproject_2stim_asymm_v5,2020.2.10,MacIntel,60,61025ae37ef11b136ea224fe,,,,,,,,,1657,50,83,1,0,0,response1disk,,7,2,4,1,0,0,rectangle,2,4,1,0,0,2,4,1,0,0,0,5,5,138,1,,,,,,,,
,,,,,,,,,,,,,FF,,,,,,,,1.884,,,,,,,,,,,,,,,,,,,,,,60fe06da23cd2d64aaaa9260,61036e8e2cbe58fb177bb537,2021-07-29_20h15.13.059,Simcolourproject_2stim_asymm_v5,2020.2.10,MacIntel,60,61025ae37ef11b136ea224fe,,,,,,,,,2181,54,40,1,0,0,response1disk,,6,-7,2,1,0,0,rectangle,-7,2,1,0,0,-7,2,1,0,0,0,6,6,89,1,,,,,,,,
,,,,,,,,,,,,,FF,,,,,,,,4.119,,,,,,,,,,,,,,,,,,,,,,60fe06da23cd2d64aaaa9260,61036e8e2cbe58fb177bb537,2021-07-29_20h15.13.059,Simcolourproject_2stim_asymm_v5,2020.2.10,MacIntel,60,61025ae37ef11b136ea224fe,,,,,,,,,3399,-40,-91,1,0,0,response5disk,,3,-2,-7,1,0,0,rectangle,-40,-76,1,0,0,-3,0,1,0,0,0,7,7,123,1,,response5disk_3,TRUE,3,3,"[213,223,272,71,314,165,69,8,138,82,72,73,201,83,231,214,265,191,253,269]",2.984,rectangle
,,,,,,,,,,,,,FF,,,,,,,,1.583,,,,,,,,,,,,,,,,,,,,,,60fe06da23cd2d64aaaa9260,61036e8e2cbe58fb177bb537,2021-07-29_20h15.13.059,Simcolourproject_2stim_asymm_v5,2020.2.10,MacIntel,60,61025ae37ef11b136ea224fe,,,,,,,,,3695,40,67,1,0,0,response1disk,,7,1,7,1,0,0,rectangle,1,7,1,0,0,1,7,1,0,0,0,8,8,3,1,,,,,,,,
,,,,,,,,,,,,,FF,,,,,,,,1.168,,,,,,,,,,,,,,,,,,,,,,60fe06da23cd2d64aaaa9260,61036e8e2cbe58fb177bb537,2021-07-29_20h15.13.059,Simcolourproject_2stim_asymm_v5,2020.2.10,MacIntel,60,61025ae37ef11b136ea224fe,,,,,,,,,1877,34,72,1,0,0,response1disk,,7,8,-4,1,0,0,rectangle,8,-4,1,0,0,8,-4,1,0,0,0,9,9,62,1,,,,,,,,
,,,,,,,,,,,,,FF,,,,,,,,1.367,,,,,,,,,,,,,,,,,,,,,,60fe06da23cd2d64aaaa9260,61036e8e2cbe58fb177bb537,2021-07-29_20h15.13.059,Simcolourproject_2stim_asymm_v5,2020.2.10,MacIntel,60,61025ae37ef11b136ea224fe,,,,,,,,,516,69,29,1,0,0,response1disk,,6,-26,-6,1,0,0,rectangle,-26,-6,1,0,0,-26,-6,1,0,0,0,10,10,91,1,,,,,,,,
,,,,,,,,,,,,,FF,,,,,,,,15.824,,,,,,,,,,,,,,,,,,,,,,60fe06da23cd2d64aaaa9260,61036e8e2cbe58fb177bb537,2021-07-29_20h15.13.059,Simcolourproject_2stim_asymm_v5,2020.2.10,MacIntel,60,61025ae37ef11b136ea224fe,,,,,,,,,1065,67,28,1,0,0,response1disk,,6,-16,-5,1,0,0,rectangle,-16,-5,1,0,0,-16,-5,1,0,0,0,11,11,129,1,,,,,,,,
,,,,,,,,,,,,,FF,,,,,,,,3.384,,,,,,,,,,,,,,,,,,,,,,60fe06da23cd2d64aaaa9260,61036e8e2cbe58fb177bb537,2021-07-29_20h15.13.059,Simcolourproject_2stim_asymm_v5,2020.2.10,MacIntel,60,61025ae37ef11b136ea224fe,,,,,,,,,461,-33,-82,1,0,0,response5disk,,3,-17,-4,1,0,0,rectangle,-17,-4,1,0,0,-17,-4,1,0,0,0,12,12,128,1,,,,,,,,
,,,,,,,,,,,,,FF,,,,,,,,42.486,,,,,,,,,,,,,,,,,,,,,,60fe06da23cd2d64aaaa9260,61036e8e2cbe58fb177bb537,2021-07-29_20h15.13.059,Simcolourproject_2stim_asymm_v5,2020.2.10,MacIntel,60,61025ae37ef11b136ea224fe,,,,,,,,,776,24,91,1,0,0,response1disk,,7,-10,0,1,0,0,rectangle,-10,0,1,0,0,-10,0,1,0,0,0,13,13,18,1,,,,,,,,
,,,,,,,,,,,,,FF,,,,,,,,2.083,,,,,,,,,,,,,,,,,,,,,,60fe06da23cd2d64aaaa9260,61036e8e2cbe58fb177bb537,2021-07-29_20h15.13.059,Simcolourproject_2stim_asymm_v5,2020.2.10,MacIntel,60,61025ae37ef11b136ea224fe,,,,,,,,,825,68,-34,1,0,0,response3disk,,5,18,-6,1,0,0,rectangle,18,-6,1,0,0,18,-6,1,0,0,0,14,14,100,1,,,,,,,,
,,,,,,,,,,,,,FF,,,,,,,,1.384,,,,,,,,,,,,,,,,,,,,,,60fe06da23cd2d64aaaa9260,61036e8e2cbe58fb177bb537,2021-07-29_20h15.13.059,Simcolourproject_2stim_asymm_v5,2020.2.10,MacIntel,60,61025ae37ef11b136ea224fe,,,,,,,,,1639,63,27,1,0,0,response1disk,,6,4,10,1,0,0,rectangle,4,10,1,0,0,4,10,1,0,0,0,15,15,110,1,,,,,,,,
,,,,,,,,,,,,,FF,,,,,,,,1.617,,,,,,,,,,,,,,,,,,,,,,60fe06da23cd2d64aaaa9260,61036e8e2cbe58fb177bb537,2021-07-29_20h15.13.059,Simcolourproject_2stim_asymm_v5,2020.2.10,MacIntel,60,61025ae37ef11b136ea224fe,,,,,,,,,1366,70,-31,1,0,0,response3disk,,5,13,4,1,0,0,rectangle,13,4,1,0,0,13,4,1,0,0,0,16,16,132,1,,,,,,,,
,,,,,,,,,,,,,FF,,,,,,,,2.167,,,,,,,,,,,,,,,,,,,,,,60fe06da23cd2d64aaaa9260,61036e8e2cbe58fb177bb537,2021-07-29_20h15.13.059,Simcolourproject_2stim_asymm_v5,2020.2.10,MacIntel,60,61025ae37ef11b136ea224fe,,,,,,,,,3419,34,-65,1,0,0,response3disk,,4,9,2,1,0,0,rectangle,9,2,1,0,0,9,2,1,0,0,0,17,17,50,1,,,,,,,,
,,,,,,,,,,,,,FF,,,,,,,,1.584,,,,,,,,,,,,,,,,,,,,,,60fe06da23cd2d64aaaa9260,61036e8e2cbe58fb177bb537,2021-07-29_20h15.13.059,Simcolourproject_2stim_asymm_v5,2020.2.10,MacIntel,60,61025ae37ef11b136ea224fe,,,,,,,,,1736,74,41,1,0,0,response1disk,,6,6,3,1,0,0,rectangle,6,3,1,0,0,6,3,1,0,0,0,18,18,83,1,,,,,,,,
,,,,,,,,,,,,,FF,,,,,,,,2.567,,,,,,,,,,,,,,,,,,,,,,60fe06da23cd2d64aaaa9260,61036e8e2cbe58fb177bb537,2021-07-29_20h15.13.059,Simcolourproject_2stim_asymm_v5,2020.2.10,MacIntel,60,61025ae37ef11b136ea224fe,,,,,,,,,141,34,81,1,0,0,response1disk,,7,-1,9,1,0,0,rectangle,-1,9,1,0,0,-1,9,1,0,0,0,19,19,23,1,,,,,,,,
,,,,,,,,,,,,,FF,,,,,,,,1.968,,,,,,,,,,,,,,,,,,,,,,60fe06da23cd2d64aaaa9260,61036e8e2cbe58fb177bb537,2021-07-29_20h15.13.059,Simcolourproject_2stim_asymm_v5,2020.2.10,MacIntel,60,61025ae37ef11b136ea224fe,,,,,,,,,1219,-67,-24,1,0,0,response5disk,,2,-14,-6,1,0,0,rectangle,-14,-6,1,0,0,-14,-6,1,0,0,0,20,20,101,1,,,,,,,,
,,,,,,,,,,,,,FF,,,,,,,,1.935,,,,,,,,,,,,,,,,,,,,,,60fe06da23cd2d64aaaa9260,61036e8e2cbe58fb177bb537,2021-07-29_20h15.13.059,Simcolourproject_2stim_asymm_v5,2020.2.10,MacIntel,60,61025ae37ef11b136ea224fe,,,,,,,,,2787,30,-59,1,0,0,response3disk,,4,2,-2,1,0,0,rectangle,2,-2,1,0,0,2,-2,1,0,0,0,21,21,26,1,,,,,,,,
,,,,,,,,,,,,,FF,,,,,,,,1.634,,,,,,,,,,,,,,,,,,,,,,60fe06da23cd2d64aaaa9260,61036e8e2cbe58fb177bb537,2021-07-29_20h15.13.059,Simcolourproject_2stim_asymm_v5,2020.2.10,MacIntel,60,61025ae37ef11b136ea224fe,,,,,,,,,1933,30,-77,1,0,0,response3disk,,4,13,-6,1,0,0,rectangle,13,-6,1,0,0,13,-6,1,0,0,0,22,22,32,1,,,,,,,,
,,,,,,,,,,,,,FF,,,,,,,,61.296,,,,,,,,,,,,,,,,,,,,,,60fe06da23cd2d64aaaa9260,61036e8e2cbe58fb177bb537,2021-07-29_20h15.13.059,Simcolourproject_2stim_asymm_v5,2020.2.10,MacIntel,60,61025ae37ef11b136ea224fe,,,,,,,,,1492,83,28,1,0,0,response1disk,,6,6,9,1,0,0,rectangle,6,9,1,0,0,6,9,1,0,0,0,23,23,106,1,,,,,,,,
,,,,,,,,,,,,,FF,,,,,,,,1.398,,,,,,,,,,,,,,,,,,,,,,60fe06da23cd2d64aaaa9260,61036e8e2cbe58fb177bb537,2021-07-29_20h15.13.059,Simcolourproject_2stim_asymm_v5,2020.2.10,MacIntel,60,61025ae37ef11b136ea224fe,,,,,,,,,1981,39,76,1,0,0,response1disk,,7,-9,-1,1,0,0,rectangle,-9,-1,1,0,0,-9,-1,1,0,0,0,24,24,72,1,,,,,,,,
,,,,,,,,,,,,,FF,,,,,,,,1.502,,,,,,,,,,,,,,,,,,,,,,60fe06da23cd2d64aaaa9260,61036e8e2cbe58fb177bb537,2021-07-29_20h15.13.059,Simcolourproject_2stim_asymm_v5,2020.2.10,MacIntel,60,61025ae37ef11b136ea224fe,,,,,,,,,420,41,-82,1,0,0,response3disk,,4,11,10,1,0,0,rectangle,11,10,1,0,0,11,10,1,0,0,0,25,25,120,1,,,,,,,,
,,,,,,,,,,,,,FF,,,,,,,,1.135,,,,,,,,,,,,,,,,,,,,,,60fe06da23cd2d64aaaa9260,61036e8e2cbe58fb177bb537,2021-07-29_20h15.13.059,Simcolourproject_2stim_asymm_v5,2020.2.10,MacIntel,60,61025ae37ef11b136ea224fe,,,,,,,,,1609,-41,66,1,0,0,response7disk,,0,-29,1,1,0,0,rectangle,-29,1,1,0,0,-29,1,1,0,0,0,26,26,47,1,,,,,,,,
,,,,,,,,,,,,,FF,,,,,,,,1.002,,,,,,,,,,,,,,,,,,,,,,60fe06da23cd2d64aaaa9260,61036e8e2cbe58fb177bb537,2021-07-29_20h15.13.059,Simcolourproject_2stim_asymm_v5,2020.2.10,MacIntel,60,61025ae37ef11b136ea224fe,,,,,,,,,1089,81,53,1,0,0,response1disk,,6,7,-7,1,0,0,rectangle,7,-7,1,0,0,7,-7,1,0,0,0,27,27,144,1,,,,,,,,
,,,,,,,,,,,,,FF,,,,,,,,1.101,,,,,,,,,,,,,,,,,,,,,,60fe06da23cd2d64aaaa9260,61036e8e2cbe58fb177bb537,2021-07-29_20h15.13.059,Simcolourproject_2stim_asymm_v5,2020.2.10,MacIntel,60,61025ae37ef11b136ea224fe,,,,,,,,,3310,45,71,1,0,0,response1disk,,7,5,7,1,0,0,rectangle,5,7,1,0,0,5,7,1,0,0,0,28,28,11,1,,,,,,,,
,,,,,,,,,,,,,FF,,,,,,,,0.918,,,,,,,,,,,,,,,,,,,,,,60fe06da23cd2d64aaaa9260,61036e8e2cbe58fb177bb537,2021-07-29_20h15.13.059,Simcolourproject_2stim_asymm_v5,2020.2.10,MacIntel,60,61025ae37ef11b136ea224fe,,,,,,,,,487,54,77,1,0,0,response1disk,,7,1,2,1,0,0,rectangle,1,2,1,0,0,1,2,1,0,0,0,29,29,131,1,,,,,,,,
,,,,,,,,,,,,,FF,,,,,,,,7.404,,,,,,,,,,,,,,,,,,,,,,60fe06da23cd2d64aaaa9260,61036e8e2cbe58fb177bb537,2021-07-29_20h15.13.059,Simcolourproject_2stim_asymm_v5,2020.2.10,MacIntel,60,61025ae37ef11b136ea224fe,,,,,,,,,2519,51,69,1,0,0,response1disk,,7,3,0,1,0,0,rectangle,3,0,1,0,0,3,0,1,0,0,0,30,30,159,1,,,,,,,,
,,,,,,,,,,,,,FF,,,,,,,,1.401,,,,,,,,,,,,,,,,,,,,,,60fe06da23cd2d64aaaa9260,61036e8e2cbe58fb177bb537,2021-07-29_20h15.13.059,Simcolourproject_2stim_asymm_v5,2020.2.10,MacIntel,60,61025ae37ef11b136ea224fe,,,,,,,,,3518,-75,-48,1,0,0,response5disk,,2,-4,9,1,0,0,rectangle,-4,9,1,0,0,-4,9,1,0,0,0,31,31,17,1,,,,,,,,
,,,,,,,,,,,,,FF,,,,,,,,0.916,,,,,,,,,,,,,,,,,,,,,,60fe06da23cd2d64aaaa9260,61036e8e2cbe58fb177bb537,2021-07-29_20h15.13.059,Simcolourproject_2stim_asymm_v5,2020.2.10,MacIntel,60,61025ae37ef11b136ea224fe,,,,,,,,,3591,-27,63,1,0,0,response7disk,,0,-10,7,1,0,0,rectangle,-10,7,1,0,0,-10,7,1,0,0,0,32,32,39,1,,,,,,,,
,,,,,,,,,,,,,FF,,,,,,,,1.618,,,,,,,,,,,,,,,,,,,,,,60fe06da23cd2d64aaaa9260,61036e8e2cbe58fb177bb537,2021-07-29_20h15.13.059,Simcolourproject_2stim_asymm_v5,2020.2.10,MacIntel,60,61025ae37ef11b136ea224fe,,,,,,,,,1910,30,-76,1,0,0,response3disk,,4,8,3,1,0,0,rectangle,8,3,1,0,0,8,3,1,0,0,0,33,33,6,1,,,,,,,,
,,,,,,,,,,,,,FF,,,,,,,,1.001,,,,,,,,,,,,,,,,,,,,,,60fe06da23cd2d64aaaa9260,61036e8e2cbe58fb177bb537,2021-07-29_20h15.13.059,Simcolourproject_2stim_asymm_v5,2020.2.10,MacIntel,60,61025ae37ef11b136ea224fe,,,,,,,,,772,46,88,1,0,0,response1disk,,7,9,1,1,0,0,rectangle,9,1,1,0,0,9,1,1,0,0,0,34,34,27,1,,,,,,,,
,,,,,,,,,,,,,FF,,,,,,,,1.2,,,,,,,,,,,,,,,,,,,,,,60fe06da23cd2d64aaaa9260,61036e8e2cbe58fb177bb537,2021-07-29_20h15.13.059,Simcolourproject_2stim_asymm_v5,2020.2.10,MacIntel,60,61025ae37ef11b136ea224fe,,,,,,,,,20,35,62,1,0,0,response1disk,,7,11,2,1,0,0,rectangle,11,2,1,0,0,11,2,1,0,0,0,35,35,46,1,,,,,,,,
,,,,,,,,,,,,,FF,,,,,,,,7.82,,,,,,,,,,,,,,,,,,,,,,60fe06da23cd2d64aaaa9260,61036e8e2cbe58fb177bb537,2021-07-29_20h15.13.059,Simcolourproject_2stim_asymm_v5,2020.2.10,MacIntel,60,61025ae37ef11b136ea224fe,,,,,,,,,3428,30,58,1,0,0,response1disk,,7,8,5,1,0,0,rectangle,8,5,1,0,0,8,5,1,0,0,0,36,36,152,1,,,,,,,,
,,,,,,,,,,,,,FF,,,,,,,,0.833,,,,,,,,,,,,,,,,,,,,,,60fe06da23cd2d64aaaa9260,61036e8e2cbe58fb177bb537,2021-07-29_20h15.13.059,Simcolourproject_2stim_asymm_v5,2020.2.10,MacIntel,60,61025ae37ef11b136ea224fe,,,,,,,,,594,36,77,1,0,0,response1disk,,7,12,11,1,0,0,rectangle,12,11,1,0,0,12,11,1,0,0,0,37,37,121,1,,,,,,,,
,,,,,,,,,,,,,FF,,,,,,,,1.634,,,,,,,,,,,,,,,,,,,,,,60fe06da23cd2d64aaaa9260,61036e8e2cbe58fb177bb537,2021-07-29_20h15.13.059,Simcolourproject_2stim_asymm_v5,2020.2.10,MacIntel,60,61025ae37ef11b136ea224fe,,,,,,,,,3622,-73,-39,1,0,0,response5disk,,2,-9,1,1,0,0,rectangle,-9,1,1,0,0,-9,1,1,0,0,0,38,38,22,1,,,,,,,,
,,,,,,,,,,,,,FF,,,,,,,,1.234,,,,,,,,,,,,,,,,,,,,,,60fe06da23cd2d64aaaa9260,61036e8e2cbe58fb177bb537,2021-07-29_20h15.13.059,Simcolourproject_2stim_asymm_v5,2020.2.10,MacIntel,60,61025ae37ef11b136ea224fe,,,,,,,,,606,34,89,1,0,0,response1disk,,7,0,12,1,0,0,rectangle,0,12,1,0,0,0,12,1,0,0,0,39,39,63,1,,,,,,,,
,,,,,,,,,,,,,FF,,,,,,,,1.134,,,,,,,,,,,,,,,,,,,,,,60fe06da23cd2d64aaaa9260,61036e8e2cbe58fb177bb537,2021-07-29_20h15.13.059,Simcolourproject_2stim_asymm_v5,2020.2.10,MacIntel,60,61025ae37ef11b136ea224fe,,,,,,,,,708,24,73,1,0,0,response1disk,,7,3,8,1,0,0,rectangle,3,8,1,0,0,3,8,1,0,0,0,40,40,87,1,,,,,,,,
,,,,,,,,,,,,,FF,,,,,,,,0.816,,,,,,,,,,,,,,,,,,,,,,60fe06da23cd2d64aaaa9260,61036e8e2cbe58fb177bb537,2021-07-29_20h15.13.059,Simcolourproject_2stim_asymm_v5,2020.2.10,MacIntel,60,61025ae37ef11b136ea224fe,,,,,,,,,2983,36,63,1,0,0,response1disk,,7,11,1,1,0,0,rectangle,11,1,1,0,0,11,1,1,0,0,0,41,41,155,1,,,,,,,,
,,,,,,,,,,,,,FF,,,,,,,,0.65,,,,,,,,,,,,,,,,,,,,,,60fe06da23cd2d64aaaa9260,61036e8e2cbe58fb177bb537,2021-07-29_20h15.13.059,Simcolourproject_2stim_asymm_v5,2020.2.10,MacIntel,60,61025ae37ef11b136ea224fe,,,,,,,,,3926,32,66,1,0,0,response1disk,,7,-1,8,1,0,0,rectangle,-1,8,1,0,0,-1,8,1,0,0,0,42,42,95,1,,,,,,,,
,,,,,,,,,,,,,FF,,,,,,,,35.116,,,,,,,,,,,,,,,,,,,,,,60fe06da23cd2d64aaaa9260,61036e8e2cbe58fb177bb537,2021-07-29_20h15.13.059,Simcolourproject_2stim_asymm_v5,2020.2.10,MacIntel,60,61025ae37ef11b136ea224fe,,,,,,,,,2589,61,90,1,0,0,response1disk,,7,10,8,1,0,0,rectangle,10,8,1,0,0,10,8,1,0,0,0,43,43,146,1,,,,,,,,
,,,,,,,,,,,,,FF,,,,,,,,1.734,,,,,,,,,,,,,,,,,,,,,,60fe06da23cd2d64aaaa9260,61036e8e2cbe58fb177bb537,2021-07-29_20h15.13.059,Simcolourproject_2stim_asymm_v5,2020.2.10,MacIntel,60,61025ae37ef11b136ea224fe,,,,,,,,,4278,50,72,1,0,0,response1disk,,7,17,0,1,0,0,rectangle,17,0,1,0,0,17,0,1,0,0,0,44,44,79,1,,,,,,,,
,,,,,,,,,,,,,FF,,,,,,,,1.302,,,,,,,,,,,,,,,,,,,,,,60fe06da23cd2d64aaaa9260,61036e8e2cbe58fb177bb537,2021-07-29_20h15.13.059,Simcolourproject_2stim_asymm_v5,2020.2.10,MacIntel,60,61025ae37ef11b136ea224fe,,,,,,,,,1839,32,75,1,0,0,response1disk,,7,10,9,1,0,0,rectangle,10,9,1,0,0,10,9,1,0,0,0,45,45,73,1,,,,,,,,
,,,,,,,,,,,,,FF,,,,,,,,0.934,,,,,,,,,,,,,,,,,,,,,,60fe06da23cd2d64aaaa9260,61036e8e2cbe58fb177bb537,2021-07-29_20h15.13.059,Simcolourproject_2stim_asymm_v5,2020.2.10,MacIntel,60,61025ae37ef11b136ea224fe,,,,,,,,,860,43,58,1,0,0,response1disk,,7,13,8,1,0,0,rectangle,13,8,1,0,0,13,8,1,0,0,0,46,46,157,1,,,,,,,,
,,,,,,,,,,,,,FF,,,,,,,,7.102,,,,,,,,,,,,,,,,,,,,,,60fe06da23cd2d64aaaa9260,61036e8e2cbe58fb177bb537,2021-07-29_20h15.13.059,Simcolourproject_2stim_asymm_v5,2020.2.10,MacIntel,60,61025ae37ef11b136ea224fe,,,,,,,,,3443,59,88,1,0,0,response1disk,,7,3,9,1,0,0,rectangle,3,9,1,0,0,3,9,1,0,0,0,47,47,52,1,,,,,,,,
,,,,,,,,,,,,,FF,,,,,,,,1.234,,,,,,,,,,,,,,,,,,,,,,60fe06da23cd2d64aaaa9260,61036e8e2cbe58fb177bb537,2021-07-29_20h15.13.059,Simcolourproject_2stim_asymm_v5,2020.2.10,MacIntel,60,61025ae37ef11b136ea224fe,,,,,,,,,2362,-34,-59,1,0,0,response5disk,,3,-18,-4,1,0,0,rectangle,-18,-4,1,0,0,-18,-4,1,0,0,0,48,48,12,1,,,,,,,,
,,,,,,,,,,,,,FF,,,,,,,,0.751,,,,,,,,,,,,,,,,,,,,,,60fe06da23cd2d64aaaa9260,61036e8e2cbe58fb177bb537,2021-07-29_20h15.13.059,Simcolourproject_2stim_asymm_v5,2020.2.10,MacIntel,60,61025ae37ef11b136ea224fe,,,,,,,,,3358,21,66,1,0,0,response1disk,,7,7,4,1,0,0,rectangle,7,4,1,0,0,7,4,1,0,0,0,49,49,122,1,,,,,,,,
,,,,,,,,,,,,,FF,,,,,,,,0.683,,,,,,,,,,,,,,,,,,,,,,60fe06da23cd2d64aaaa9260,61036e8e2cbe58fb177bb537,2021-07-29_20h15.13.059,Simcolourproject_2stim_asymm_v5,2020.2.10,MacIntel,60,61025ae37ef11b136ea224fe,,,,,,,,,403,47,74,1,0,0,response1disk,,7,12,5,1,0,0,rectangle,12,5,1,0,0,12,5,1,0,0,0,50,50,40,1,,,,,,,,
,,,,,,,,,,,,,FF,,,,,,,,1.782,,,,,,,,,,,,,,,,,,,,,,60fe06da23cd2d64aaaa9260,61036e8e2cbe58fb177bb537,2021-07-29_20h15.13.059,Simcolourproject_2stim_asymm_v5,2020.2.10,MacIntel,60,61025ae37ef11b136ea224fe,,,,,,,,,4050,33,-66,1,0,0,response3disk,,4,6,3,1,0,0,rectangle,6,3,1,0,0,6,3,1,0,0,0,51,51,19,1,,,,,,,,
,,,,,,,,,,,,,FF,,,,,,,,0.867,,,,,,,,,,,,,,,,,,,,,,60fe06da23cd2d64aaaa9260,61036e8e2cbe58fb177bb537,2021-07-29_20h15.13.059,Simcolourproject_2stim_asymm_v5,2020.2.10,MacIntel,60,61025ae37ef11b136ea224fe,,,,,,,,,2668,64,30,1,0,0,response1disk,,6,10,-11,1,0,0,rectangle,10,-11,1,0,0,10,-11,1,0,0,0,52,52,9,1,,,,,,,,
,,,,,,,,,,,,,FF,,,,,,,,1.035,,,,,,,,,,,,,,,,,,,,,,60fe06da23cd2d64aaaa9260,61036e8e2cbe58fb177bb537,2021-07-29_20h15.13.059,Simcolourproject_2stim_asymm_v5,2020.2.10,MacIntel,60,61025ae37ef11b136ea224fe,,,,,,,,,2894,-64,-28,1,0,0,response5disk,,2,-20,7,1,0,0,rectangle,-20,7,1,0,0,-20,7,1,0,0,0,53,53,56,1,,,,,,,,
,,,,,,,,,,,,,FF,,,,,,,,0.967,,,,,,,,,,,,,,,,,,,,,,60fe06da23cd2d64aaaa9260,61036e8e2cbe58fb177bb537,2021-07-29_20h15.13.059,Simcolourproject_2stim_asymm_v5,2020.2.10,MacIntel,60,61025ae37ef11b136ea224fe,,,,,,,,,1396,39,66,1,0,0,response1disk,,7,4,6,1,0,0,rectangle,4,6,1,0,0,4,6,1,0,0,0,54,54,34,1,,,,,,,,
,,,,,,,,,,,,,FF,,,,,,,,0.967,,,,,,,,,,,,,,,,,,,,,,60fe06da23cd2d64aaaa9260,61036e8e2cbe58fb177bb537,2021-07-29_20h15.13.059,Simcolourproject_2stim_asymm_v5,2020.2.10,MacIntel,60,61025ae37ef11b136ea224fe,,,,,,,,,2002,28,55,1,0,0,response1disk,,7,-2,7,1,0,0,rectangle,-2,7,1,0,0,-2,7,1,0,0,0,55,55,102,1,,,,,,,,
,,,,,,,,,,,,,FF,,,,,,,,1.316,,,,,,,,,,,,,,,,,,,,,,60fe06da23cd2d64aaaa9260,61036e8e2cbe58fb177bb537,2021-07-29_20h15.13.059,Simcolourproject_2stim_asymm_v5,2020.2.10,MacIntel,60,61025ae37ef11b136ea224fe,,,,,,,,,33,35,73,1,0,0,response1disk,,7,3,-1,1,0,0,rectangle,3,-1,1,0,0,3,-1,1,0,0,0,56,56,70,1,,,,,,,,
,,,,,,,,,,,,,FF,,,,,,,,0.667,,,,,,,,,,,,,,,,,,,,,,60fe06da23cd2d64aaaa9260,61036e8e2cbe58fb177bb537,2021-07-29_20h15.13.059,Simcolourproject_2stim_asymm_v5,2020.2.10,MacIntel,60,61025ae37ef11b136ea224fe,,,,,,,,,397,49,76,1,0,0,response1disk,,7,6,7,1,0,0,rectangle,6,7,1,0,0,6,7,1,0,0,0,57,57,158,1,,,,,,,,
,,,,,,,,,,,,,FF,,,,,,,,0.917,,,,,,,,,,,,,,,,,,,,,,60fe06da23cd2d64aaaa9260,61036e8e2cbe58fb177bb537,2021-07-29_20h15.13.059,Simcolourproject_2stim_asymm_v5,2020.2.10,MacIntel,60,61025ae37ef11b136ea224fe,,,,,,,,,1006,46,67,1,0,0,response1disk,,7,6,10,1,0,0,rectangle,6,10,1,0,0,6,10,1,0,0,0,58,58,0,1,,,,,,,,
,,,,,,,,,,,,,FF,,,,,,,,0.651,,,,,,,,,,,,,,,,,,,,,,60fe06da23cd2d64aaaa9260,61036e8e2cbe58fb177bb537,2021-07-29_20h15.13.059,Simcolourproject_2stim_asymm_v5,2020.2.10,MacIntel,60,61025ae37ef11b136ea224fe,,,,,,,,,2571,47,70,1,0,0,response1disk,,7,8,4,1,0,0,rectangle,8,4,1,0,0,8,4,1,0,0,0,59,59,130,1,,,,,,,,
,,,,,,,,,,,,,FF,,,,,,,,1.317,,,,,,,,,,,,,,,,,,,,,,60fe06da23cd2d64aaaa9260,61036e8e2cbe58fb177bb537,2021-07-29_20h15.13.059,Simcolourproject_2stim_asymm_v5,2020.2.10,MacIntel,60,61025ae37ef11b136ea224fe,,,,,,,,,3141,-27,-66,1,0,0,response5disk,,3,-17,0,1,0,0,rectangle,-17,0,1,0,0,-17,0,1,0,0,0,60,60,42,1,,,,,,,,
,,,,,,,,,,,,,FF,,,,,,,,8.854,,,,,,,,,,,,,,,,,,,,,,60fe06da23cd2d64aaaa9260,61036e8e2cbe58fb177bb537,2021-07-29_20h15.13.059,Simcolourproject_2stim_asymm_v5,2020.2.10,MacIntel,60,61025ae37ef11b136ea224fe,,,,,,,,,3084,54,90,1,0,0,response1disk,,7,8,6,1,0,0,rectangle,8,6,1,0,0,8,6,1,0,0,0,61,61,67,1,,,,,,,,
,,,,,,,,,,,,,FF,,,,,,,,1.084,,,,,,,,,,,,,,,,,,,,,,60fe06da23cd2d64aaaa9260,61036e8e2cbe58fb177bb537,2021-07-29_20h15.13.059,Simcolourproject_2stim_asymm_v5,2020.2.10,MacIntel,60,61025ae37ef11b136ea224fe,,,,,,,,,3998,-26,-77,1,0,0,response5disk,,3,4,-1,1,0,0,rectangle,4,-1,1,0,0,4,-1,1,0,0,0,62,62,4,1,,,,,,,,
,,,,,,,,,,,,,FF,,,,,,,,0.7,,,,,,,,,,,,,,,,,,,,,,60fe06da23cd2d64aaaa9260,61036e8e2cbe58fb177bb537,2021-07-29_20h15.13.059,Simcolourproject_2stim_asymm_v5,2020.2.10,MacIntel,60,61025ae37ef11b136ea224fe,,,,,,,,,2636,42,62,1,0,0,response1disk,,7,1,-7,1,0,0,rectangle,1,-7,1,0,0,1,-7,1,0,0,0,63,63,154,1,,,,,,,,
,,,,,,,,,,,,,FF,,,,,,,,0.637,,,,,,,,,,,,,,,,,,,,,,60fe06da23cd2d64aaaa9260,61036e8e2cbe58fb177bb537,2021-07-29_20h15.13.059,Simcolourproject_2stim_asymm_v5,2020.2.10,MacIntel,60,61025ae37ef11b136ea224fe,,,,,,,,,3461,23,60,1,0,0,response1disk,,7,1,4,1,0,0,rectangle,1,4,1,0,0,1,4,1,0,0,0,64,64,37,1,,,,,,,,
,,,,,,,,,,,,,FF,,,,,,,,0.516,,,,,,,,,,,,,,,,,,,,,,60fe06da23cd2d64aaaa9260,61036e8e2cbe58fb177bb537,2021-07-29_20h15.13.059,Simcolourproject_2stim_asymm_v5,2020.2.10,MacIntel,60,61025ae37ef11b136ea224fe,,,,,,,,,912,35,61,1,0,0,response1disk,,7,12,6,1,0,0,rectangle,12,6,1,0,0,12,6,1,0,0,0,65,65,107,1,,,,,,,,
,,,,,,,,,,,,,FF,,,,,,,,0.45,,,,,,,,,,,,,,,,,,,,,,60fe06da23cd2d64aaaa9260,61036e8e2cbe58fb177bb537,2021-07-29_20h15.13.059,Simcolourproject_2stim_asymm_v5,2020.2.10,MacIntel,60,61025ae37ef11b136ea224fe,,,,,,,,,3145,39,64,1,0,0,response1disk,,7,5,-1,1,0,0,rectangle,5,-1,1,0,0,5,-1,1,0,0,0,66,66,133,1,,,,,,,,
,,,,,,,,,,,,,FF,,,,,,,,0.433,,,,,,,,,,,,,,,,,,,,,,60fe06da23cd2d64aaaa9260,61036e8e2cbe58fb177bb537,2021-07-29_20h15.13.059,Simcolourproject_2stim_asymm_v5,2020.2.10,MacIntel,60,61025ae37ef11b136ea224fe,,,,,,,,,246,36,59,1,0,0,response1disk,,7,2,2,1,0,0,rectangle,2,2,1,0,0,2,2,1,0,0,0,67,67,60,1,,,,,,,,
,,,,,,,,,,,,,FF,,,,,,,,0.384,,,,,,,,,,,,,,,,,,,,,,60fe06da23cd2d64aaaa9260,61036e8e2cbe58fb177bb537,2021-07-29_20h15.13.059,Simcolourproject_2stim_asymm_v5,2020.2.10,MacIntel,60,61025ae37ef11b136ea224fe,,,,,,,,,4013,29,64,1,0,0,response1disk,,7,4,3,1,0,0,rectangle,86,50,1,0,0,1,-3,1,0,0,0,68,68,21,1,,response1disk_3,TRUE,6,6,"[213,223,272,71,314,165,69,8,138,82,72,73,201,83,231,214,265,191,253,269]",2.317,rectangle
,,,,,,,,,,,,,FF,,,,,,,,0.651,,,,,,,,,,,,,,,,,,,,,,60fe06da23cd2d64aaaa9260,61036e8e2cbe58fb177bb537,2021-07-29_20h15.13.059,Simcolourproject_2stim_asymm_v5,2020.2.10,MacIntel,60,61025ae37ef11b136ea224fe,,,,,,,,,2048,22,63,1,0,0,response1disk,,7,-3,9,1,0,0,rectangle,-3,9,1,0,0,-3,9,1,0,0,0,69,69,5,1,,,,,,,,
,,,,,,,,,,,,,FF,,,,,,,,0.685,,,,,,,,,,,,,,,,,,,,,,60fe06da23cd2d64aaaa9260,61036e8e2cbe58fb177bb537,2021-07-29_20h15.13.059,Simcolourproject_2stim_asymm_v5,2020.2.10,MacIntel,60,61025ae37ef11b136ea224fe,,,,,,,,,2649,25,62,1,0,0,response1disk,,7,5,11,1,0,0,rectangle,-71,-35,1,0,0,-7,-5,1,0,0,0,70,70,80,1,,response5disk_3,TRUE,2,2,"[213,223,272,71,314,165,69,8,138,82,72,73,201,83,231,214,265,191,253,269]",1.852,rectangle
,,,,,,,,,,,,,FF,,,,,,,,0.6,,,,,,,,,,,,,,,,,,,,,,60fe06da23cd2d64aaaa9260,61036e8e2cbe58fb177bb537,2021-07-29_20h15.13.059,Simcolourproject_2stim_asymm_v5,2020.2.10,MacIntel,60,61025ae37ef11b136ea224fe,,,,,,,,,2822,44,64,1,0,0,response1disk,,7,3,1,1,0,0,rectangle,-30,58,1,0,0,-8,9,1,0,0,0,71,71,28,1,,response7disk_3,TRUE,0,0,"[213,223,272,71,314,165,69,8,138,82,72,73,201,83,231,214,265,191,253,269]",1.551,rectangle
,,,,,,,,,,,,,FF,,,,,,,,0.917,,,,,,,,,,,,,,,,,,,,,,60fe06da23cd2d64aaaa9260,61036e8e2cbe58fb177bb537,2021-07-29_20h15.13.059,Simcolourproject_2stim_asymm_v5,2020.2.10,MacIntel,60,61025ae37ef11b136ea224fe,,,,,,,,,3176,41,88,1,0,0,response1disk,,7,0,8,1,0,0,rectangle,76,31,1,0,0,2,-2,1,0,0,0,72,72,142,1,,response1disk_3,TRUE,6,6,"[213,223,272,71,314,165,69,8,138,82,72,73,201,83,231,214,265,191,253,269]",1.917,rectangle
,,,,,,,,,,,,,FF,,,,,,,,0.484,,,,,,,,,,,,,,,,,,,,,,60fe06da23cd2d64aaaa9260,61036e8e2cbe58fb177bb537,2021-07-29_20h15.13.059,Simcolourproject_2stim_asymm_v5,2020.2.10,MacIntel,60,61025ae37ef11b136ea224fe,,,,,,,,,2190,31,59,1,0,0,response1disk,,7,11,8,1,0,0,rectangle,11,8,1,0,0,11,8,1,0,0,0,73,73,16,1,,,,,,,,
,,,,,,,,,,,,,FF,,,,,,,,0.65,,,,,,,,,,,,,,,,,,,,,,60fe06da23cd2d64aaaa9260,61036e8e2cbe58fb177bb537,2021-07-29_20h15.13.059,Simcolourproject_2stim_asymm_v5,2020.2.10,MacIntel,60,61025ae37ef11b136ea224fe,,,,,,,,,2702,35,66,1,0,0,response1disk,,7,-3,0,1,0,0,rectangle,-3,0,1,0,0,-3,0,1,0,0,0,74,74,98,1,,,,,,,,
,,,,,,,,,,,,,FF,,,,,,,,0.401,,,,,,,,,,,,,,,,,,,,,,60fe06da23cd2d64aaaa9260,61036e8e2cbe58fb177bb537,2021-07-29_20h15.13.059,Simcolourproject_2stim_asymm_v5,2020.2.10,MacIntel,60,61025ae37ef11b136ea224fe,,,,,,,,,3386,25,52,1,0,0,response1disk,,7,8,8,1,0,0,rectangle,8,8,1,0,0,8,8,1,0,0,0,75,75,20,1,,,,,,,,
,,,,,,,,,,,,,FF,,,,,,,,0.568,,,,,,,,,,,,,,,,,,,,,,60fe06da23cd2d64aaaa9260,61036e8e2cbe58fb177bb537,2021-07-29_20h15.13.059,Simcolourproject_2stim_asymm_v5,2020.2.10,MacIntel,60,61025ae37ef11b136ea224fe,,,,,,,,,1148,26,46,1,0,0,response1disk,,7,-1,-5,1,0,0,rectangle,-1,-5,1,0,0,-1,-5,1,0,0,0,76,76,45,1,,,,,,,,
,,,,,,,,,,,,,FF,,,,,,,,0.451,,,,,,,,,,,,,,,,,,,,,,60fe06da23cd2d64aaaa9260,61036e8e2cbe58fb177bb537,2021-07-29_20h15.13.059,Simcolourproject_2stim_asymm_v5,2020.2.10,MacIntel,60,61025ae37ef11b136ea224fe,,,,,,,,,42,25,44,1,0,0,response1disk,,7,9,13,1,0,0,rectangle,9,13,1,0,0,9,13,1,0,0,0,77,77,24,1,,,,,,,,
,,,,,,,,,,,,,FF,,,,,,,,0.767,,,,,,,,,,,,,,,,,,,,,,60fe06da23cd2d64aaaa9260,61036e8e2cbe58fb177bb537,2021-07-29_20h15.13.059,Simcolourproject_2stim_asymm_v5,2020.2.10,MacIntel,60,61025ae37ef11b136ea224fe,,,,,,,,,4029,27,49,1,0,0,response1disk,,7,2,-7,1,0,0,rectangle,2,-7,1,0,0,2,-7,1,0,0,0,78,78,99,1,,,,,,,,
,,,,,,,,,,,,,FF,,,,,,,,1.25,,,,,,,,,,,,,,,,,,,,,,60fe06da23cd2d64aaaa9260,61036e8e2cbe58fb177bb537,2021-07-29_20h15.13.059,Simcolourproject_2stim_asymm_v5,2020.2.10,MacIntel,60,61025ae37ef11b136ea224fe,,,,,,,,,279,-42,-63,1,0,0,response5disk,,3,-11,-2,1,0,0,rectangle,-11,-2,1,0,0,-11,-2,1,0,0,0,79,79,15,1,,,,,,,,
,,,,,,,,,,,,,FF,,,,,,,,1.018,,,,,,,,,,,,,,,,,,,,,,60fe06da23cd2d64aaaa9260,61036e8e2cbe58fb177bb537,2021-07-29_20h15.13.059,Simcolourproject_2stim_asymm_v5,2020.2.10,MacIntel,60,61025ae37ef11b136ea224fe,,,,,,,,,3662,-23,-58,1,0,0,response5disk,,3,-8,-3,1,0,0,rectangle,-8,-3,1,0,0,-8,-3,1,0,0,0,80,80,30,1,,,,,,,,
,,,,,,,,,,,,,FF,,,,,,,,0.618,,,,,,,,,,,,,,,,,,,,,,60fe06da23cd2d64aaaa9260,61036e8e2cbe58fb177bb537,2021-07-29_20h15.13.059,Simcolourproject_2stim_asymm_v5,2020.2.10,MacIntel,60,61025ae37ef11b136ea224fe,,,,,,,,,915,33,85,1,0,0,response1disk,,7,-6,8,1,0,0,rectangle,79,46,1,0,0,12,-1,1,0,0,0,81,81,135,1,,response1disk_3,TRUE,6,6,"[213,223,272,71,314,165,69,8,138,82,72,73,201,83,231,214,265,191,253,269]",1.683,rectangle
,,,,,,,,,,,,,FF,,,,,,,,1.252,,,,,,,,,,,,,,,,,,,,,,60fe06da23cd2d64aaaa9260,61036e8e2cbe58fb177bb537,2021-07-29_20h15.13.059,Simcolourproject_2stim_asymm_v5,2020.2.10,MacIntel,60,61025ae37ef11b136ea224fe,,,,,,,,,1672,17,-69,1,0,0,response3disk,,4,7,1,1,0,0,rectangle,-65,-26,1,0,0,-4,4,1,0,0,0,82,82,84,1,,response5disk_3,TRUE,2,2,"[213,223,272,71,314,165,69,8,138,82,72,73,201,83,231,214,265,191,253,269]",1.4,rectangle
,,,,,,,,,,,,,FF,,,,,,,,0.583,,,,,,,,,,,,,,,,,,,,,,60fe06da23cd2d64aaaa9260,61036e8e2cbe58fb177bb537,2021-07-29_20h15.13.059,Simcolourproject_2stim_asymm_v5,2020.2.10,MacIntel,60,61025ae37ef11b136ea224fe,,,,,,,,,504,15,42,1,0,0,response1disk,,7,0,1,1,0,0,rectangle,0,1,1,0,0,0,1,1,0,0,0,83,83,147,1,,,,,,,,
,,,,,,,,,,,,,FF,,,,,,,,1.535,,,,,,,,,,,,,,,,,,,,,,60fe06da23cd2d64aaaa9260,61036e8e2cbe58fb177bb537,2021-07-29_20h15.13.059,Simcolourproject_2stim_asymm_v5,2020.2.10,MacIntel,60,61025ae37ef11b136ea224fe,,,,,,,,,191,62,-40,1,0,0,response3disk,,5,0,-13,1,0,0,rectangle,0,-13,1,0,0,0,-13,1,0,0,0,84,84,136,1,,,,,,,,
,,,,,,,,,,,,,FF,,,,,,,,0.583,,,,,,,,,,,,,,,,,,,,,,60fe06da23cd2d64aaaa9260,61036e8e2cbe58fb177bb537,2021-07-29_20h15.13.059,Simcolourproject_2stim_asymm_v5,2020.2.10,MacIntel,60,61025ae37ef11b136ea224fe,,,,,,,,,4173,37,52,1,0,0,response1disk,,7,9,6,1,0,0,rectangle,9,6,1,0,0,9,6,1,0,0,0,85,85,35,1,,,,,,,,
,,,,,,,,,,,,,FF,,,,,,,,0.867,,,,,,,,,,,,,,,,,,,,,,60fe06da23cd2d64aaaa9260,61036e8e2cbe58fb177bb537,2021-07-29_20h15.13.059,Simcolourproject_2stim_asymm_v5,2020.2.10,MacIntel,60,61025ae37ef11b136ea224fe,,,,,,,,,746,36,62,1,0,0,response1disk,,7,9,5,1,0,0,rectangle,9,5,1,0,0,9,5,1,0,0,0,86,86,44,1,,,,,,,,
,,,,,,,,,,,,,FF,,,,,,,,1.751,,,,,,,,,,,,,,,,,,,,,,60fe06da23cd2d64aaaa9260,61036e8e2cbe58fb177bb537,2021-07-29_20h15.13.059,Simcolourproject_2stim_asymm_v5,2020.2.10,MacIntel,60,61025ae37ef11b136ea224fe,,,,,,,,,713,73,-26,1,0,0,response3disk,,5,17,-13,1,0,0,rectangle,17,-13,1,0,0,17,-13,1,0,0,0,87,87,86,1,,,,,,,,
,,,,,,,,,,,,,FF,,,,,,,,1.083,,,,,,,,,,,,,,,,,,,,,,60fe06da23cd2d64aaaa9260,61036e8e2cbe58fb177bb537,2021-07-29_20h15.13.059,Simcolourproject_2stim_asymm_v5,2020.2.10,MacIntel,60,61025ae37ef11b136ea224fe,,,,,,,,,1822,-40,34,1,0,0,response7disk,,1,-18,-10,1,0,0,rectangle,-18,-10,1,0,0,-18,-10,1,0,0,0,88,88,150,1,,,,,,,,
,,,,,,,,,,,,,FF,,,,,,,,1.101,,,,,,,,,,,,,,,,,,,,,,60fe06da23cd2d64aaaa9260,61036e8e2cbe58fb177bb537,2021-07-29_20h15.13.059,Simcolourproject_2stim_asymm_v5,2020.2.10,MacIntel,60,61025ae37ef11b136ea224fe,,,,,,,,,3592,-64,-35,1,0,0,response5disk,,2,-3,0,1,0,0,rectangle,-3,0,1,0,0,-3,0,1,0,0,0,89,89,41,1,,,,,,,,
,,,,,,,,,,,,,FF,,,,,,,,1.831,,,,,,,,,,,,,,,,,,,,,,60fe06da23cd2d64aaaa9260,61036e8e2cbe58fb177bb537,2021-07-29_20h15.13.059,Simcolourproject_2stim_asymm_v5,2020.2.10,MacIntel,60,61025ae37ef11b136ea224fe,,,,,,,,,3919,27,-59,1,0,0,response3disk,,4,-6,-9,1,0,0,rectangle,-6,-9,1,0,0,-6,-9,1,0,0,0,90,90,114,1,,,,,,,,
,,,,,,,,,,,,,FF,,,,,,,,0.884,,,,,,,,,,,,,,,,,,,,,,60fe06da23cd2d64aaaa9260,61036e8e2cbe58fb177bb537,2021-07-29_20h15.13.059,Simcolourproject_2stim_asymm_v5,2020.2.10,MacIntel,60,61025ae37ef11b136ea224fe,,,,,,,,,1876,38,76,1,0,0,response1disk,,7,0,2,1,0,0,rectangle,0,2,1,0,0,0,2,1,0,0,0,91,91,7,1,,,,,,,,
,,,,,,,,,,,,,FF,,,,,,,,0.883,,,,,,,,,,,,,,,,,,,,,,60fe06da23cd2d64aaaa9260,61036e8e2cbe58fb177bb537,2021-07-29_20h15.13.059,Simcolourproject_2stim_asymm_v5,2020.2.10,MacIntel,60,61025ae37ef11b136ea224fe,,,,,,,,,3525,38,62,1,0,0,response1disk,,7,2,7,1,0,0,rectangle,2,7,1,0,0,2,7,1,0,0,0,92,92,108,1,,,,,,,,
,,,,,,,,,,,,,FF,,,,,,,,0.384,,,,,,,,,,,,,,,,,,,,,,60fe06da23cd2d64aaaa9260,61036e8e2cbe58fb177bb537,2021-07-29_20h15.13.059,Simcolourproject_2stim_asymm_v5,2020.2.10,MacIntel,60,61025ae37ef11b136ea224fe,,,,,,,,,598,25,53,1,0,0,response1disk,,7,-2,-3,1,0,0,rectangle,-2,-3,1,0,0,-2,-3,1,0,0,0,93,93,8,1,,,,,,,,
,,,,,,,,,,,,,FF,,,,,,,,0.767,,,,,,,,,,,,,,,,,,,,,,60fe06da23cd2d64aaaa9260,61036e8e2cbe58fb177bb537,2021-07-29_20h15.13.059,Simcolourproject_2stim_asymm_v5,2020.2.10,MacIntel,60,61025ae37ef11b136ea224fe,,,,,,,,,3473,-68,-46,1,0,0,response5disk,,2,2,15,1,0,0,rectangle,2,15,1,0,0,2,15,1,0,0,0,94,94,93,1,,,,,,,,
,,,,,,,,,,,,,FF,,,,,,,,0.95,,,,,,,,,,,,,,,,,,,,,,60fe06da23cd2d64aaaa9260,61036e8e2cbe58fb177bb537,2021-07-29_20h15.13.059,Simcolourproject_2stim_asymm_v5,2020.2.10,MacIntel,60,61025ae37ef11b136ea224fe,,,,,,,,,2726,-27,-52,1,0,0,response5disk,,3,2,1,1,0,0,rectangle,2,1,1,0,0,2,1,1,0,0,0,95,95,82,1,,,,,,,,
,,,,,,,,,,,,,FF,,,,,,,,0.567,,,,,,,,,,,,,,,,,,,,,,60fe06da23cd2d64aaaa9260,61036e8e2cbe58fb177bb537,2021-07-29_20h15.13.059,Simcolourproject_2stim_asymm_v5,2020.2.10,MacIntel,60,61025ae37ef11b136ea224fe,,,,,,,,,1628,26,56,1,0,0,response1disk,,7,-4,10,1,0,0,rectangle,-4,10,1,0,0,-4,10,1,0,0,0,96,96,127,1,,,,,,,,
,,,,,,,,,,,,,FF,,,,,,,,1.9,,,,,,,,,,,,,,,,,,,,,,60fe06da23cd2d64aaaa9260,61036e8e2cbe58fb177bb537,2021-07-29_20h15.13.059,Simcolourproject_2stim_asymm_v5,2020.2.10,MacIntel,60,61025ae37ef11b136ea224fe,,,,,,,,,3175,25,59,1,0,0,response1disk,,7,-11,-13,1,0,0,rectangle,-11,-13,1,0,0,-11,-13,1,0,0,0,97,97,38,1,,,,,,,,
,,,,,,,,,,,,,FF,,,,,,,,1.001,,,,,,,,,,,,,,,,,,,,,,60fe06da23cd2d64aaaa9260,61036e8e2cbe58fb177bb537,2021-07-29_20h15.13.059,Simcolourproject_2stim_asymm_v5,2020.2.10,MacIntel,60,61025ae37ef11b136ea224fe,,,,,,,,,104,21,-60,1,0,0,response3disk,,4,2,-5,1,0,0,rectangle,2,-5,1,0,0,2,-5,1,0,0,0,98,98,143,1,,,,,,,,
,,,,,,,,,,,,,FF,,,,,,,,0.901,,,,,,,,,,,,,,,,,,,,,,60fe06da23cd2d64aaaa9260,61036e8e2cbe58fb177bb537,2021-07-29_20h15.13.059,Simcolourproject_2stim_asymm_v5,2020.2.10,MacIntel,60,61025ae37ef11b136ea224fe,,,,,,,,,239,30,46,1,0,0,response1disk,,7,-4,3,1,0,0,rectangle,-4,3,1,0,0,-4,3,1,0,0,0,99,99,119,1,,,,,,,,
,,,,,,,,,,,,,FF,,,,,,,,0.784,,,,,,,,,,,,,,,,,,,,,,60fe06da23cd2d64aaaa9260,61036e8e2cbe58fb177bb537,2021-07-29_20h15.13.059,Simcolourproject_2stim_asymm_v5,2020.2.10,MacIntel,60,61025ae37ef11b136ea224fe,,,,,,,,,1892,-55,-28,1,0,0,response5disk,,2,11,9,1,0,0,rectangle,11,9,1,0,0,11,9,1,0,0,0,100,100,153,1,,,,,,,,
,,,,,,,,,,,,,FF,,,,,,,,2.001,,,,,,,,,,,,,,,,,,,,,,60fe06da23cd2d64aaaa9260,61036e8e2cbe58fb177bb537,2021-07-29_20h15.13.059,Simcolourproject_2stim_asymm_v5,2020.2.10,MacIntel,60,61025ae37ef11b136ea224fe,,,,,,,,,1979,30,56,1,0,0,response1disk,,7,-2,-3,1,0,0,rectangle,-2,-3,1,0,0,-2,-3,1,0,0,0,101,101,85,1,,,,,,,,
,,,,,,,,,,,,,FF,,,,,,,,1.102,,,,,,,,,,,,,,,,,,,,,,60fe06da23cd2d64aaaa9260,61036e8e2cbe58fb177bb537,2021-07-29_20h15.13.059,Simcolourproject_2stim_asymm_v5,2020.2.10,MacIntel,60,61025ae37ef11b136ea224fe,,,,,,,,,3453,58,-20,1,0,0,response3disk,,5,10,-2,1,0,0,rectangle,10,-2,1,0,0,10,-2,1,0,0,0,102,102,90,1,,,,,,,,
,,,,,,,,,,,,,FF,,,,,,,,0.6,,,,,,,,,,,,,,,,,,,,,,60fe06da23cd2d64aaaa9260,61036e8e2cbe58fb177bb537,2021-07-29_20h15.13.059,Simcolourproject_2stim_asymm_v5,2020.2.10,MacIntel,60,61025ae37ef11b136ea224fe,,,,,,,,,336,36,57,1,0,0,response1disk,,7,12,4,1,0,0,rectangle,12,4,1,0,0,12,4,1,0,0,0,103,103,109,1,,,,,,,,
,,,,,,,,,,,,,FF,,,,,,,,0.55,,,,,,,,,,,,,,,,,,,,,,60fe06da23cd2d64aaaa9260,61036e8e2cbe58fb177bb537,2021-07-29_20h15.13.059,Simcolourproject_2stim_asymm_v5,2020.2.10,MacIntel,60,61025ae37ef11b136ea224fe,,,,,,,,,2066,35,44,1,0,0,response1disk,,7,11,8,1,0,0,rectangle,11,8,1,0,0,11,8,1,0,0,0,104,104,48,1,,,,,,,,
,,,,,,,,,,,,,FF,,,,,,,,0.833,,,,,,,,,,,,,,,,,,,,,,60fe06da23cd2d64aaaa9260,61036e8e2cbe58fb177bb537,2021-07-29_20h15.13.059,Simcolourproject_2stim_asymm_v5,2020.2.10,MacIntel,60,61025ae37ef11b136ea224fe,,,,,,,,,1539,19,39,1,0,0,response1disk,,7,3,4,1,0,0,rectangle,3,4,1,0,0,3,4,1,0,0,0,105,105,49,1,,,,,,,,
,,,,,,,,,,,,,FF,,,,,,,,0.583,,,,,,,,,,,,,,,,,,,,,,60fe06da23cd2d64aaaa9260,61036e8e2cbe58fb177bb537,2021-07-29_20h15.13.059,Simcolourproject_2stim_asymm_v5,2020.2.10,MacIntel,60,61025ae37ef11b136ea224fe,,,,,,,,,752,22,44,1,0,0,response1disk,,7,10,9,1,0,0,rectangle,10,9,1,0,0,10,9,1,0,0,0,106,106,115,1,,,,,,,,
,,,,,,,,,,,,,FF,,,,,,,,1.1,,,,,,,,,,,,,,,,,,,,,,60fe06da23cd2d64aaaa9260,61036e8e2cbe58fb177bb537,2021-07-29_20h15.13.059,Simcolourproject_2stim_asymm_v5,2020.2.10,MacIntel,60,61025ae37ef11b136ea224fe,,,,,,,,,1709,31,54,1,0,0,response1disk,,7,-3,3,1,0,0,rectangle,-3,3,1,0,0,-3,3,1,0,0,0,107,107,65,1,,,,,,,,
,,,,,,,,,,,,,FF,,,,,,,,1.189,,,,,,,,,,,,,,,,,,,,,,60fe06da23cd2d64aaaa9260,61036e8e2cbe58fb177bb537,2021-07-29_20h15.13.059,Simcolourproject_2stim_asymm_v5,2020.2.10,MacIntel,60,61025ae37ef11b136ea224fe,,,,,,,,,726,-46,-54,1,0,0,response5disk,,3,-17,7,1,0,0,rectangle,-17,7,1,0,0,-17,7,1,0,0,0,108,108,81,1,,,,,,,,
,,,,,,,,,,,,,FF,,,,,,,,2.033,,,,,,,,,,,,,,,,,,,,,,60fe06da23cd2d64aaaa9260,61036e8e2cbe58fb177bb537,2021-07-29_20h15.13.059,Simcolourproject_2stim_asymm_v5,2020.2.10,MacIntel,60,61025ae37ef11b136ea224fe,,,,,,,,,252,38,76,1,0,0,response1disk,,7,21,2,1,0,0,rectangle,21,2,1,0,0,21,2,1,0,0,0,109,109,76,1,,,,,,,,
,,,,,,,,,,,,,FF,,,,,,,,0.667,,,,,,,,,,,,,,,,,,,,,,60fe06da23cd2d64aaaa9260,61036e8e2cbe58fb177bb537,2021-07-29_20h15.13.059,Simcolourproject_2stim_asymm_v5,2020.2.10,MacIntel,60,61025ae37ef11b136ea224fe,,,,,,,,,925,40,74,1,0,0,response1disk,,7,7,3,1,0,0,rectangle,7,3,1,0,0,7,3,1,0,0,0,110,110,2,1,,,,,,,,
,,,,,,,,,,,,,FF,,,,,,,,0.95,,,,,,,,,,,,,,,,,,,,,,60fe06da23cd2d64aaaa9260,61036e8e2cbe58fb177bb537,2021-07-29_20h15.13.059,Simcolourproject_2stim_asymm_v5,2020.2.10,MacIntel,60,61025ae37ef11b136ea224fe,,,,,,,,,382,34,49,1,0,0,response1disk,,7,2,-3,1,0,0,rectangle,2,-3,1,0,0,2,-3,1,0,0,0,111,111,116,1,,,,,,,,
,,,,,,,,,,,,,FF,,,,,,,,0.867,,,,,,,,,,,,,,,,,,,,,,60fe06da23cd2d64aaaa9260,61036e8e2cbe58fb177bb537,2021-07-29_20h15.13.059,Simcolourproject_2stim_asymm_v5,2020.2.10,MacIntel,60,61025ae37ef11b136ea224fe,,,,,,,,,3813,54,23,1,0,0,response1disk,,6,8,-3,1,0,0,rectangle,8,-3,1,0,0,8,-3,1,0,0,0,112,112,97,1,,,,,,,,
,,,,,,,,,,,,,FF,,,,,,,,0.684,,,,,,,,,,,,,,,,,,,,,,60fe06da23cd2d64aaaa9260,61036e8e2cbe58fb177bb537,2021-07-29_20h15.13.059,Simcolourproject_2stim_asymm_v5,2020.2.10,MacIntel,60,61025ae37ef11b136ea224fe,,,,,,,,,3773,66,18,1,0,0,response1disk,,6,-6,-13,1,0,0,rectangle,-6,-13,1,0,0,-6,-13,1,0,0,0,113,113,140,1,,,,,,,,
,,,,,,,,,,,,,FF,,,,,,,,1.785,,,,,,,,,,,,,,,,,,,,,,60fe06da23cd2d64aaaa9260,61036e8e2cbe58fb177bb537,2021-07-29_20h15.13.059,Simcolourproject_2stim_asymm_v5,2020.2.10,MacIntel,60,61025ae37ef11b136ea224fe,,,,,,,,,894,41,-73,1,0,0,response3disk,,4,8,-9,1,0,0,rectangle,8,-9,1,0,0,8,-9,1,0,0,0,114,114,59,1,,,,,,,,
,,,,,,,,,,,,,FF,,,,,,,,0.701,,,,,,,,,,,,,,,,,,,,,,60fe06da23cd2d64aaaa9260,61036e8e2cbe58fb177bb537,2021-07-29_20h15.13.059,Simcolourproject_2stim_asymm_v5,2020.2.10,MacIntel,60,61025ae37ef11b136ea224fe,,,,,,,,,1577,-46,-59,1,0,0,response5disk,,3,-6,-3,1,0,0,rectangle,-6,-3,1,0,0,-6,-3,1,0,0,0,115,115,31,1,,,,,,,,
,,,,,,,,,,,,,FF,,,,,,,,1.202,,,,,,,,,,,,,,,,,,,,,,60fe06da23cd2d64aaaa9260,61036e8e2cbe58fb177bb537,2021-07-29_20h15.13.059,Simcolourproject_2stim_asymm_v5,2020.2.10,MacIntel,60,61025ae37ef11b136ea224fe,,,,,,,,,4206,-71,-31,1,0,0,response5disk,,2,20,7,1,0,0,rectangle,20,7,1,0,0,20,7,1,0,0,0,116,116,103,1,,,,,,,,
,,,,,,,,,,,,,FF,,,,,,,,1.051,,,,,,,,,,,,,,,,,,,,,,60fe06da23cd2d64aaaa9260,61036e8e2cbe58fb177bb537,2021-07-29_20h15.13.059,Simcolourproject_2stim_asymm_v5,2020.2.10,MacIntel,60,61025ae37ef11b136ea224fe,,,,,,,,,4010,40,60,1,0,0,response1disk,,7,12,9,1,0,0,rectangle,12,9,1,0,0,12,9,1,0,0,0,117,117,113,1,,,,,,,,
,,,,,,,,,,,,,FF,,,,,,,,1.016,,,,,,,,,,,,,,,,,,,,,,60fe06da23cd2d64aaaa9260,61036e8e2cbe58fb177bb537,2021-07-29_20h15.13.059,Simcolourproject_2stim_asymm_v5,2020.2.10,MacIntel,60,61025ae37ef11b136ea224fe,,,,,,,,,1753,-28,-64,1,0,0,response5disk,,3,23,8,1,0,0,rectangle,23,8,1,0,0,23,8,1,0,0,0,118,118,111,1,,,,,,,,
,,,,,,,,,,,,,FF,,,,,,,,1.085,,,,,,,,,,,,,,,,,,,,,,60fe06da23cd2d64aaaa9260,61036e8e2cbe58fb177bb537,2021-07-29_20h15.13.059,Simcolourproject_2stim_asymm_v5,2020.2.10,MacIntel,60,61025ae37ef11b136ea224fe,,,,,,,,,3915,17,-60,1,0,0,response3disk,,4,2,-13,1,0,0,rectangle,2,-13,1,0,0,2,-13,1,0,0,0,119,119,61,1,,,,,,,,
,,,,,,,,,,,,,FF,,,,,,,,0.984,,,,,,,,,,,,,,,,,,,,,,60fe06da23cd2d64aaaa9260,61036e8e2cbe58fb177bb537,2021-07-29_20h15.13.059,Simcolourproject_2stim_asymm_v5,2020.2.10,MacIntel,60,61025ae37ef11b136ea224fe,,,,,,,,,737,22,51,1,0,0,response1disk,,7,8,6,1,0,0,rectangle,8,6,1,0,0,8,6,1,0,0,0,120,120,57,1,,,,,,,,
,,,,,,,,,,,,,FF,,,,,,,,0.567,,,,,,,,,,,,,,,,,,,,,,60fe06da23cd2d64aaaa9260,61036e8e2cbe58fb177bb537,2021-07-29_20h15.13.059,Simcolourproject_2stim_asymm_v5,2020.2.10,MacIntel,60,61025ae37ef11b136ea224fe,,,,,,,,,2005,26,57,1,0,0,response1disk,,7,7,-3,1,0,0,rectangle,7,-3,1,0,0,7,-3,1,0,0,0,121,121,58,1,,,,,,,,
,,,,,,,,,,,,,FF,,,,,,,,0.534,,,,,,,,,,,,,,,,,,,,,,60fe06da23cd2d64aaaa9260,61036e8e2cbe58fb177bb537,2021-07-29_20h15.13.059,Simcolourproject_2stim_asymm_v5,2020.2.10,MacIntel,60,61025ae37ef11b136ea224fe,,,,,,,,,980,38,55,1,0,0,response1disk,,7,6,-4,1,0,0,rectangle,6,-4,1,0,0,6,-4,1,0,0,0,122,122,112,1,,,,,,,,
,,,,,,,,,,,,,FF,,,,,,,,0.383,,,,,,,,,,,,,,,,,,,,,,60fe06da23cd2d64aaaa9260,61036e8e2cbe58fb177bb537,2021-07-29_20h15.13.059,Simcolourproject_2stim_asymm_v5,2020.2.10,MacIntel,60,61025ae37ef11b136ea224fe,,,,,,,,,4248,35,56,1,0,0,response1disk,,7,3,0,1,0,0,rectangle,3,0,1,0,0,3,0,1,0,0,0,123,123,125,1,,,,,,,,
,,,,,,,,,,,,,FF,,,,,,,,0.55,,,,,,,,,,,,,,,,,,,,,,60fe06da23cd2d64aaaa9260,61036e8e2cbe58fb177bb537,2021-07-29_20h15.13.059,Simcolourproject_2stim_asymm_v5,2020.2.10,MacIntel,60,61025ae37ef11b136ea224fe,,,,,,,,,1367,30,56,1,0,0,response1disk,,7,2,1,1,0,0,rectangle,2,1,1,0,0,2,1,1,0,0,0,124,124,149,1,,,,,,,,
,,,,,,,,,,,,,FF,,,,,,,,0.432,,,,,,,,,,,,,,,,,,,,,,60fe06da23cd2d64aaaa9260,61036e8e2cbe58fb177bb537,2021-07-29_20h15.13.059,Simcolourproject_2stim_asymm_v5,2020.2.10,MacIntel,60,61025ae37ef11b136ea224fe,,,,,,,,,1640,24,49,1,0,0,response1disk,,7,-4,3,1,0,0,rectangle,-4,3,1,0,0,-4,3,1,0,0,0,125,125,92,1,,,,,,,,
,,,,,,,,,,,,,FF,,,,,,,,0.317,,,,,,,,,,,,,,,,,,,,,,60fe06da23cd2d64aaaa9260,61036e8e2cbe58fb177bb537,2021-07-29_20h15.13.059,Simcolourproject_2stim_asymm_v5,2020.2.10,MacIntel,60,61025ae37ef11b136ea224fe,,,,,,,,,1559,37,53,1,0,0,response1disk,,7,4,4,1,0,0,rectangle,4,4,1,0,0,4,4,1,0,0,0,126,126,148,1,,,,,,,,
,,,,,,,,,,,,,FF,,,,,,,,0.301,,,,,,,,,,,,,,,,,,,,,,60fe06da23cd2d64aaaa9260,61036e8e2cbe58fb177bb537,2021-07-29_20h15.13.059,Simcolourproject_2stim_asymm_v5,2020.2.10,MacIntel,60,61025ae37ef11b136ea224fe,,,,,,,,,4008,36,52,1,0,0,response1disk,,7,9,8,1,0,0,rectangle,9,8,1,0,0,9,8,1,0,0,0,127,127,1,1,,,,,,,,
,,,,,,,,,,,,,FF,,,,,,,,0.35,,,,,,,,,,,,,,,,,,,,,,60fe06da23cd2d64aaaa9260,61036e8e2cbe58fb177bb537,2021-07-29_20h15.13.059,Simcolourproject_2stim_asymm_v5,2020.2.10,MacIntel,60,61025ae37ef11b136ea224fe,,,,,,,,,2862,31,50,1,0,0,response1disk,,7,4,10,1,0,0,rectangle,4,10,1,0,0,4,10,1,0,0,0,128,128,104,1,,,,,,,,
,,,,,,,,,,,,,FF,,,,,,,,0.285,,,,,,,,,,,,,,,,,,,,,,60fe06da23cd2d64aaaa9260,61036e8e2cbe58fb177bb537,2021-07-29_20h15.13.059,Simcolourproject_2stim_asymm_v5,2020.2.10,MacIntel,60,61025ae37ef11b136ea224fe,,,,,,,,,2129,31,47,1,0,0,response1disk,,7,6,8,1,0,0,rectangle,6,8,1,0,0,6,8,1,0,0,0,129,129,14,1,,,,,,,,
,,,,,,,,,,,,,FF,,,,,,,,0.3,,,,,,,,,,,,,,,,,,,,,,60fe06da23cd2d64aaaa9260,61036e8e2cbe58fb177bb537,2021-07-29_20h15.13.059,Simcolourproject_2stim_asymm_v5,2020.2.10,MacIntel,60,61025ae37ef11b136ea224fe,,,,,,,,,1660,30,42,1,0,0,response1disk,,7,7,9,1,0,0,rectangle,7,9,1,0,0,7,9,1,0,0,0,130,130,71,1,,,,,,,,
,,,,,,,,,,,,,FF,,,,,,,,0.367,,,,,,,,,,,,,,,,,,,,,,60fe06da23cd2d64aaaa9260,61036e8e2cbe58fb177bb537,2021-07-29_20h15.13.059,Simcolourproject_2stim_asymm_v5,2020.2.10,MacIntel,60,61025ae37ef11b136ea224fe,,,,,,,,,1485,27,42,1,0,0,response1disk,,7,5,9,1,0,0,rectangle,5,9,1,0,0,5,9,1,0,0,0,131,131,78,1,,,,,,,,
,,,,,,,,,,,,,FF,,,,,,,,0.467,,,,,,,,,,,,,,,,,,,,,,60fe06da23cd2d64aaaa9260,61036e8e2cbe58fb177bb537,2021-07-29_20h15.13.059,Simcolourproject_2stim_asymm_v5,2020.2.10,MacIntel,60,61025ae37ef11b136ea224fe,,,,,,,,,4323,30,48,1,0,0,response1disk,,7,0,-1,1,0,0,rectangle,0,-1,1,0,0,0,-1,1,0,0,0,132,132,134,1,,,,,,,,
,,,,,,,,,,,,,FF,,,,,,,,0.584,,,,,,,,,,,,,,,,,,,,,,60fe06da23cd2d64aaaa9260,61036e8e2cbe58fb177bb537,2021-07-29_20h15.13.059,Simcolourproject_2stim_asymm_v5,2020.2.10,MacIntel,60,61025ae37ef11b136ea224fe,,,,,,,,,406,27,40,1,0,0,response1disk,,7,-1,-3,1,0,0,rectangle,-1,-3,1,0,0,-1,-3,1,0,0,0,133,133,77,1,,,,,,,,
,,,,,,,,,,,,,FF,,,,,,,,0.75,,,,,,,,,,,,,,,,,,,,,,60fe06da23cd2d64aaaa9260,61036e8e2cbe58fb177bb537,2021-07-29_20h15.13.059,Simcolourproject_2stim_asymm_v5,2020.2.10,MacIntel,60,61025ae37ef11b136ea224fe,,,,,,,,,1041,29,44,1,0,0,response1disk,,7,-4,-12,1,0,0,rectangle,-4,-12,1,0,0,-4,-12,1,0,0,0,134,134,124,1,,,,,,,,
,,,,,,,,,,,,,FF,,,,,,,,0.618,,,,,,,,,,,,,,,,,,,,,,60fe06da23cd2d64aaaa9260,61036e8e2cbe58fb177bb537,2021-07-29_20h15.13.059,Simcolourproject_2stim_asymm_v5,2020.2.10,MacIntel,60,61025ae37ef11b136ea224fe,,,,,,,,,647,27,43,1,0,0,response1disk,,7,7,4,1,0,0,rectangle,7,4,1,0,0,7,4,1,0,0,0,135,135,29,1,,,,,,,,
,,,,,,,,,,,,,FF,,,,,,,,0.366,,,,,,,,,,,,,,,,,,,,,,60fe06da23cd2d64aaaa9260,61036e8e2cbe58fb177bb537,2021-07-29_20h15.13.059,Simcolourproject_2stim_asymm_v5,2020.2.10,MacIntel,60,61025ae37ef11b136ea224fe,,,,,,,,,1100,36,49,1,0,0,response1disk,,7,0,7,1,0,0,rectangle,0,7,1,0,0,0,7,1,0,0,0,136,136,75,1,,,,,,,,
,,,,,,,,,,,,,FF,,,,,,,,1.201,,,,,,,,,,,,,,,,,,,,,,60fe06da23cd2d64aaaa9260,61036e8e2cbe58fb177bb537,2021-07-29_20h15.13.059,Simcolourproject_2stim_asymm_v5,2020.2.10,MacIntel,60,61025ae37ef11b136ea224fe,,,,,,,,,3138,-62,-39,1,0,0,response5disk,,2,-14,-1,1,0,0,rectangle,-29,-62,1,0,0,-6,-9,1,0,0,0,137,137,13,1,,response5disk_3,TRUE,3,3,"[213,223,272,71,314,165,69,8,138,82,72,73,201,83,231,214,265,191,253,269]",1.6,rectangle
,,,,,,,,,,,,,FF,,,,,,,,0.617,,,,,,,,,,,,,,,,,,,,,,60fe06da23cd2d64aaaa9260,61036e8e2cbe58fb177bb537,2021-07-29_20h15.13.059,Simcolourproject_2stim_asymm_v5,2020.2.10,MacIntel,60,61025ae37ef11b136ea224fe,,,,,,,,,1656,27,54,1,0,0,response1disk,,7,-3,8,1,0,0,rectangle,-3,8,1,0,0,-3,8,1,0,0,0,138,138,25,1,,,,,,,,
,,,,,,,,,,,,,FF,,,,,,,,0.784,,,,,,,,,,,,,,,,,,,,,,60fe06da23cd2d64aaaa9260,61036e8e2cbe58fb177bb537,2021-07-29_20h15.13.059,Simcolourproject_2stim_asymm_v5,2020.2.10,MacIntel,60,61025ae37ef11b136ea224fe,,,,,,,,,1272,21,-59,1,0,0,response3disk,,4,14,3,1,0,0,rectangle,14,3,1,0,0,14,3,1,0,0,0,139,139,69,1,,,,,,,,
,,,,,,,,,,,,,FF,,,,,,,,0.483,,,,,,,,,,,,,,,,,,,,,,60fe06da23cd2d64aaaa9260,61036e8e2cbe58fb177bb537,2021-07-29_20h15.13.059,Simcolourproject_2stim_asymm_v5,2020.2.10,MacIntel,60,61025ae37ef11b136ea224fe,,,,,,,,,927,21,41,1,0,0,response1disk,,7,-6,4,1,0,0,rectangle,-6,4,1,0,0,-6,4,1,0,0,0,140,140,36,1,,,,,,,,
,,,,,,,,,,,,,FF,,,,,,,,0.65,,,,,,,,,,,,,,,,,,,,,,60fe06da23cd2d64aaaa9260,61036e8e2cbe58fb177bb537,2021-07-29_20h15.13.059,Simcolourproject_2stim_asymm_v5,2020.2.10,MacIntel,60,61025ae37ef11b136ea224fe,,,,,,,,,466,61,36,1,0,0,response1disk,,6,-8,-4,1,0,0,rectangle,-8,-4,1,0,0,-8,-4,1,0,0,0,141,141,10,1,,,,,,,,
,,,,,,,,,,,,,FF,,,,,,,,0.75,,,,,,,,,,,,,,,,,,,,,,60fe06da23cd2d64aaaa9260,61036e8e2cbe58fb177bb537,2021-07-29_20h15.13.059,Simcolourproject_2stim_asymm_v5,2020.2.10,MacIntel,60,61025ae37ef11b136ea224fe,,,,,,,,,2539,19,57,1,0,0,response1disk,,7,1,6,1,0,0,rectangle,1,6,1,0,0,1,6,1,0,0,0,142,142,117,1,,,,,,,,
,,,,,,,,,,,,,FF,,,,,,,,0.482,,,,,,,,,,,,,,,,,,,,,,60fe06da23cd2d64aaaa9260,61036e8e2cbe58fb177bb537,2021-07-29_20h15.13.059,Simcolourproject_2stim_asymm_v5,2020.2.10,MacIntel,60,61025ae37ef11b136ea224fe,,,,,,,,,2650,53,35,1,0,0,response1disk,,6,3,-2,1,0,0,rectangle,3,-2,1,0,0,3,-2,1,0,0,0,143,143,64,1,,,,,,,,
,,,,,,,,,,,,,FF,,,,,,,,0.7,,,,,,,,,,,,,,,,,,,,,,60fe06da23cd2d64aaaa9260,61036e8e2cbe58fb177bb537,2021-07-29_20h15.13.059,Simcolourproject_2stim_asymm_v5,2020.2.10,MacIntel,60,61025ae37ef11b136ea224fe,,,,,,,,,84,37,61,1,0,0,response1disk,,7,10,15,1,0,0,rectangle,10,15,1,0,0,10,15,1,0,0,0,144,144,105,1,,,,,,,,
,,,,,,,,,,,,,FF,,,,,,,,0.868,,,,,,,,,,,,,,,,,,,,,,60fe06da23cd2d64aaaa9260,61036e8e2cbe58fb177bb537,2021-07-29_20h15.13.059,Simcolourproject_2stim_asymm_v5,2020.2.10,MacIntel,60,61025ae37ef11b136ea224fe,,,,,,,,,2297,-36,-50,1,0,0,response5disk,,3,-3,3,1,0,0,rectangle,-3,3,1,0,0,-3,3,1,0,0,0,145,145,33,1,,,,,,,,
,,,,,,,,,,,,,FF,,,,,,,,0.782,,,,,,,,,,,,,,,,,,,,,,60fe06da23cd2d64aaaa9260,61036e8e2cbe58fb177bb537,2021-07-29_20h15.13.059,Simcolourproject_2stim_asymm_v5,2020.2.10,MacIntel,60,61025ae37ef11b136ea224fe,,,,,,,,,4142,-32,-46,1,0,0,response5disk,,3,-3,1,1,0,0,rectangle,-3,1,1,0,0,-3,1,1,0,0,0,146,146,54,1,,,,,,,,
,,,,,,,,,,,,,FF,,,,,,,,0.651,,,,,,,,,,,,,,,,,,,,,,60fe06da23cd2d64aaaa9260,61036e8e2cbe58fb177bb537,2021-07-29_20h15.13.059,Simcolourproject_2stim_asymm_v5,2020.2.10,MacIntel,60,61025ae37ef11b136ea224fe,,,,,,,,,775,34,52,1,0,0,response1disk,,7,11,10,1,0,0,rectangle,11,10,1,0,0,11,10,1,0,0,0,147,147,96,1,,,,,,,,
,,,,,,,,,,,,,FF,,,,,,,,0.752,,,,,,,,,,,,,,,,,,,,,,60fe06da23cd2d64aaaa9260,61036e8e2cbe58fb177bb537,2021-07-29_20h15.13.059,Simcolourproject_2stim_asymm_v5,2020.2.10,MacIntel,60,61025ae37ef11b136ea224fe,,,,,,,,,3940,-31,-67,1,0,0,response5disk,,3,-13,-9,1,0,0,rectangle,-13,-9,1,0,0,-13,-9,1,0,0,0,148,148,137,1,,,,,,,,
,,,,,,,,,,,,,FF,,,,,,,,0.784,,,,,,,,,,,,,,,,,,,,,,60fe06da23cd2d64aaaa9260,61036e8e2cbe58fb177bb537,2021-07-29_20h15.13.059,Simcolourproject_2stim_asymm_v5,2020.2.10,MacIntel,60,61025ae37ef11b136ea224fe,,,,,,,,,3503,21,-50,1,0,0,response3disk,,4,-6,-12,1,0,0,rectangle,-6,-12,1,0,0,-6,-12,1,0,0,0,149,149,139,1,,,,,,,,
,,,,,,,,,,,,,FF,,,,,,,,0.784,,,,,,,,,,,,,,,,,,,,,,60fe06da23cd2d64aaaa9260,61036e8e2cbe58fb177bb537,2021-07-29_20h15.13.059,Simcolourproject_2stim_asymm_v5,2020.2.10,MacIntel,60,61025ae37ef11b136ea224fe,,,,,,,,,77,-22,61,1,0,0,response7disk,,0,-10,11,1,0,0,rectangle,-10,11,1,0,0,-10,11,1,0,0,0,150,150,43,1,,,,,,,,
,,,,,,,,,,,,,FF,,,,,,,,0.551,,,,,,,,,,,,,,,,,,,,,,60fe06da23cd2d64aaaa9260,61036e8e2cbe58fb177bb537,2021-07-29_20h15.13.059,Simcolourproject_2stim_asymm_v5,2020.2.10,MacIntel,60,61025ae37ef11b136ea224fe,,,,,,,,,640,28,64,1,0,0,response1disk,,7,-9,-3,1,0,0,rectangle,-9,-3,1,0,0,-9,-3,1,0,0,0,151,151,88,1,,,,,,,,
,,,,,,,,,,,,,FF,,,,,,,,0.468,,,,,,,,,,,,,,,,,,,,,,60fe06da23cd2d64aaaa9260,61036e8e2cbe58fb177bb537,2021-07-29_20h15.13.059,Simcolourproject_2stim_asymm_v5,2020.2.10,MacIntel,60,61025ae37ef11b136ea224fe,,,,,,,,,795,29,55,1,0,0,response1disk,,7,6,-5,1,0,0,rectangle,6,-5,1,0,0,6,-5,1,0,0,0,152,152,126,1,,,,,,,,
,,,,,,,,,,,,,FF,,,,,,,,0.467,,,,,,,,,,,,,,,,,,,,,,60fe06da23cd2d64aaaa9260,61036e8e2cbe58fb177bb537,2021-07-29_20h15.13.059,Simcolourproject_2stim_asymm_v5,2020.2.10,MacIntel,60,61025ae37ef11b136ea224fe,,,,,,,,,3179,27,48,1,0,0,response1disk,,7,4,-8,1,0,0,rectangle,4,-8,1,0,0,4,-8,1,0,0,0,153,153,68,1,,,,,,,,
,,,,,,,,,,,,,FF,,,,,,,,0.516,,,,,,,,,,,,,,,,,,,,,,60fe06da23cd2d64aaaa9260,61036e8e2cbe58fb177bb537,2021-07-29_20h15.13.059,Simcolourproject_2stim_asymm_v5,2020.2.10,MacIntel,60,61025ae37ef11b136ea224fe,,,,,,,,,4184,19,54,1,0,0,response1disk,,7,4,6,1,0,0,rectangle,4,6,1,0,0,4,6,1,0,0,0,154,154,156,1,,,,,,,,
,,,,,,,,,,,,,FF,,,,,,,,0.901,,,,,,,,,,,,,,,,,,,,,,60fe06da23cd2d64aaaa9260,61036e8e2cbe58fb177bb537,2021-07-29_20h15.13.059,Simcolourproject_2stim_asymm_v5,2020.2.10,MacIntel,60,61025ae37ef11b136ea224fe,,,,,,,,,2943,-36,-60,1,0,0,response5disk,,3,-1,-2,1,0,0,rectangle,-1,-2,1,0,0,-1,-2,1,0,0,0,155,155,51,1,,,,,,,,
,,,,,,,,,,,,,FF,,,,,,,,0.459,,,,,,,,,,,,,,,,,,,,,,60fe06da23cd2d64aaaa9260,61036e8e2cbe58fb177bb537,2021-07-29_20h15.13.059,Simcolourproject_2stim_asymm_v5,2020.2.10,MacIntel,60,61025ae37ef11b136ea224fe,,,,,,,,,600,26,55,1,0,0,response1disk,,7,3,-4,1,0,0,rectangle,3,-4,1,0,0,3,-4,1,0,0,0,156,156,94,1,,,,,,,,
,,,,,,,,,,,,,FF,,,,,,,,0.584,,,,,,,,,,,,,,,,,,,,,,60fe06da23cd2d64aaaa9260,61036e8e2cbe58fb177bb537,2021-07-29_20h15.13.059,Simcolourproject_2stim_asymm_v5,2020.2.10,MacIntel,60,61025ae37ef11b136ea224fe,,,,,,,,,205,30,55,1,0,0,response1disk,,7,8,-1,1,0,0,rectangle,8,-1,1,0,0,8,-1,1,0,0,0,157,157,141,1,,,,,,,,
,,,,,,,,,,,,,FF,,,,,,,,0.684,,,,,,,,,,,,,,,,,,,,,,60fe06da23cd2d64aaaa9260,61036e8e2cbe58fb177bb537,2021-07-29_20h15.13.059,Simcolourproject_2stim_asymm_v5,2020.2.10,MacIntel,60,61025ae37ef11b136ea224fe,,,,,,,,,3749,-22,-62,1,0,0,response5disk,,3,-6,2,1,0,0,rectangle,-6,2,1,0,0,-6,2,1,0,0,0,158,158,145,1,,,,,,,,
,,,,,,,,,,,,,FF,,,,,,,,0.783,,,,,,,,,,,,,,,,,,,,,,60fe06da23cd2d64aaaa9260,61036e8e2cbe58fb177bb537,2021-07-29_20h15.13.059,Simcolourproject_2stim_asymm_v5,2020.2.10,MacIntel,60,61025ae37ef11b136ea224fe,,,,,,,,,497,40,46,1,0,0,response1disk,,7,5,-5,1,0,0,rectangle,5,-5,1,0,0,5,-5,1,0,0,0,159,159,53,1,,,,,,,,
,,,,,,,,,,,,,FF,,,,,,,,0.651,,,,,,,,,,,,,,,,,,,,,,60fe06da23cd2d64aaaa9260,61036e8e2cbe58fb177bb537,2021-07-29_20h15.13.059,Simcolourproject_2stim_asymm_v5,2020.2.10,MacIntel,60,61025ae37ef11b136ea224fe,,,,,,,,,2313,-36,-49,1,0,0,response5disk,,3,-21,-10,1,0,0,rectangle,-21,-10,1,0,0,-21,-10,1,0,0,1,0,160,115,1,,,,,,,,
,,,,,,,,,,,,,FF,,,,,,,,0.618,,,,,,,,,,,,,,,,,,,,,,60fe06da23cd2d64aaaa9260,61036e8e2cbe58fb177bb537,2021-07-29_20h15.13.059,Simcolourproject_2stim_asymm_v5,2020.2.10,MacIntel,60,61025ae37ef11b136ea224fe,,,,,,,,,4200,-34,56,1,0,0,response7disk,,0,-6,-6,1,0,0,rectangle,-6,-6,1,0,0,-6,-6,1,0,0,1,1,161,51,1,,,,,,,,
,,,,,,,,,,,,,FF,,,,,,,,0.452,,,,,,,,,,,,,,,,,,,,,,60fe06da23cd2d64aaaa9260,61036e8e2cbe58fb177bb537,2021-07-29_20h15.13.059,Simcolourproject_2stim_asymm_v5,2020.2.10,MacIntel,60,61025ae37ef11b136ea224fe,,,,,,,,,826,26,40,1,0,0,response1disk,,7,4,-3,1,0,0,rectangle,4,-3,1,0,0,4,-3,1,0,0,1,2,162,149,1,,,,,,,,
,,,,,,,,,,,,,FF,,,,,,,,0.618,,,,,,,,,,,,,,,,,,,,,,60fe06da23cd2d64aaaa9260,61036e8e2cbe58fb177bb537,2021-07-29_20h15.13.059,Simcolourproject_2stim_asymm_v5,2020.2.10,MacIntel,60,61025ae37ef11b136ea224fe,,,,,,,,,1731,30,65,1,0,0,response1disk,,7,-1,3,1,0,0,rectangle,-1,3,1,0,0,-1,3,1,0,0,1,3,163,150,1,,,,,,,,
,,,,,,,,,,,,,FF,,,,,,,,1.007,,,,,,,,,,,,,,,,,,,,,,60fe06da23cd2d64aaaa9260,61036e8e2cbe58fb177bb537,2021-07-29_20h15.13.059,Simcolourproject_2stim_asymm_v5,2020.2.10,MacIntel,60,61025ae37ef11b136ea224fe,,,,,,,,,2145,21,47,1,0,0,response1disk,,7,-3,8,1,0,0,rectangle,-62,-33,1,0,0,6,5,1,0,0,1,4,164,52,1,,response5disk_3,TRUE,2,2,"[213,223,272,71,314,165,69,8,138,82,72,73,201,83,231,214,265,191,253,269]",1.517,rectangle
,,,,,,,,,,,,,FF,,,,,,,,0.668,,,,,,,,,,,,,,,,,,,,,,60fe06da23cd2d64aaaa9260,61036e8e2cbe58fb177bb537,2021-07-29_20h15.13.059,Simcolourproject_2stim_asymm_v5,2020.2.10,MacIntel,60,61025ae37ef11b136ea224fe,,,,,,,,,1657,40,71,1,0,0,response1disk,,7,-2,-2,1,0,0,rectangle,-2,-2,1,0,0,-2,-2,1,0,0,1,5,165,80,1,,,,,,,,
,,,,,,,,,,,,,FF,,,,,,,,0.868,,,,,,,,,,,,,,,,,,,,,,60fe06da23cd2d64aaaa9260,61036e8e2cbe58fb177bb537,2021-07-29_20h15.13.059,Simcolourproject_2stim_asymm_v5,2020.2.10,MacIntel,60,61025ae37ef11b136ea224fe,,,,,,,,,2181,59,38,1,0,0,response1disk,,6,4,-4,1,0,0,rectangle,4,-4,1,0,0,4,-4,1,0,0,1,6,166,108,1,,,,,,,,
,,,,,,,,,,,,,FF,,,,,,,,0.851,,,,,,,,,,,,,,,,,,,,,,60fe06da23cd2d64aaaa9260,61036e8e2cbe58fb177bb537,2021-07-29_20h15.13.059,Simcolourproject_2stim_asymm_v5,2020.2.10,MacIntel,60,61025ae37ef11b136ea224fe,,,,,,,,,3399,16,-47,1,0,0,response3disk,,4,-8,-2,1,0,0,rectangle,-8,-2,1,0,0,-8,-2,1,0,0,1,7,167,75,1,,,,,,,,
,,,,,,,,,,,,,FF,,,,,,,,44.771,,,,,,,,,,,,,,,,,,,,,,60fe06da23cd2d64aaaa9260,61036e8e2cbe58fb177bb537,2021-07-29_20h15.13.059,Simcolourproject_2stim_asymm_v5,2020.2.10,MacIntel,60,61025ae37ef11b136ea224fe,,,,,,,,,3695,28,73,1,0,0,response1disk,,7,-1,-1,1,0,0,rectangle,-1,-1,1,0,0,-1,-1,1,0,0,1,8,168,60,1,,,,,,,,
,,,,,,,,,,,,,FF,,,,,,,,1.268,,,,,,,,,,,,,,,,,,,,,,60fe06da23cd2d64aaaa9260,61036e8e2cbe58fb177bb537,2021-07-29_20h15.13.059,Simcolourproject_2stim_asymm_v5,2020.2.10,MacIntel,60,61025ae37ef11b136ea224fe,,,,,,,,,1877,29,68,1,0,0,response1disk,,7,14,-2,1,0,0,rectangle,14,-2,1,0,0,14,-2,1,0,0,1,9,169,7,1,,,,,,,,
,,,,,,,,,,,,,FF,,,,,,,,1.417,,,,,,,,,,,,,,,,,,,,,,60fe06da23cd2d64aaaa9260,61036e8e2cbe58fb177bb537,2021-07-29_20h15.13.059,Simcolourproject_2stim_asymm_v5,2020.2.10,MacIntel,60,61025ae37ef11b136ea224fe,,,,,,,,,516,-41,-53,1,0,0,response5disk,,3,-17,7,1,0,0,rectangle,-17,7,1,0,0,-17,7,1,0,0,1,10,170,67,1,,,,,,,,
,,,,,,,,,,,,,FF,,,,,,,,3.468,,,,,,,,,,,,,,,,,,,,,,60fe06da23cd2d64aaaa9260,61036e8e2cbe58fb177bb537,2021-07-29_20h15.13.059,Simcolourproject_2stim_asymm_v5,2020.2.10,MacIntel,60,61025ae37ef11b136ea224fe,,,,,,,,,1065,-29,-62,1,0,0,response5disk,,3,-13,5,1,0,0,rectangle,-13,5,1,0,0,-13,5,1,0,0,1,11,171,50,1,,,,,,,,
,,,,,,,,,,,,,FF,,,,,,,,2.384,,,,,,,,,,,,,,,,,,,,,,60fe06da23cd2d64aaaa9260,61036e8e2cbe58fb177bb537,2021-07-29_20h15.13.059,Simcolourproject_2stim_asymm_v5,2020.2.10,MacIntel,60,61025ae37ef11b136ea224fe,,,,,,,,,461,-41,-64,1,0,0,response5disk,,3,7,3,1,0,0,rectangle,7,3,1,0,0,7,3,1,0,0,1,12,172,128,1,,,,,,,,
,,,,,,,,,,,,,FF,,,,,,,,1.2,,,,,,,,,,,,,,,,,,,,,,60fe06da23cd2d64aaaa9260,61036e8e2cbe58fb177bb537,2021-07-29_20h15.13.059,Simcolourproject_2stim_asymm_v5,2020.2.10,MacIntel,60,61025ae37ef11b136ea224fe,,,,,,,,,776,42,65,1,0,0,response1disk,,7,2,7,1,0,0,rectangle,2,7,1,0,0,2,7,1,0,0,1,13,173,3,1,,,,,,,,
,,,,,,,,,,,,,FF,,,,,,,,0.534,,,,,,,,,,,,,,,,,,,,,,60fe06da23cd2d64aaaa9260,61036e8e2cbe58fb177bb537,2021-07-29_20h15.13.059,Simcolourproject_2stim_asymm_v5,2020.2.10,MacIntel,60,61025ae37ef11b136ea224fe,,,,,,,,,825,71,40,1,0,0,response1disk,,6,4,-4,1,0,0,rectangle,4,-4,1,0,0,4,-4,1,0,0,1,14,174,147,1,,,,,,,,
,,,,,,,,,,,,,FF,,,,,,,,0.467,,,,,,,,,,,,,,,,,,,,,,60fe06da23cd2d64aaaa9260,61036e8e2cbe58fb177bb537,2021-07-29_20h15.13.059,Simcolourproject_2stim_asymm_v5,2020.2.10,MacIntel,60,61025ae37ef11b136ea224fe,,,,,,,,,1639,44,78,1,0,0,response1disk,,7,4,8,1,0,0,rectangle,4,8,1,0,0,4,8,1,0,0,1,15,175,64,1,,,,,,,,
,,,,,,,,,,,,,FF,,,,,,,,0.501,,,,,,,,,,,,,,,,,,,,,,60fe06da23cd2d64aaaa9260,61036e8e2cbe58fb177bb537,2021-07-29_20h15.13.059,Simcolourproject_2stim_asymm_v5,2020.2.10,MacIntel,60,61025ae37ef11b136ea224fe,,,,,,,,,1366,40,63,1,0,0,response1disk,,7,3,7,1,0,0,rectangle,3,7,1,0,0,3,7,1,0,0,1,16,176,111,1,,,,,,,,
,,,,,,,,,,,,,FF,,,,,,,,1.684,,,,,,,,,,,,,,,,,,,,,,60fe06da23cd2d64aaaa9260,61036e8e2cbe58fb177bb537,2021-07-29_20h15.13.059,Simcolourproject_2stim_asymm_v5,2020.2.10,MacIntel,60,61025ae37ef11b136ea224fe,,,,,,,,,3419,39,-57,1,0,0,response3disk,,4,-12,1,1,0,0,rectangle,-12,1,1,0,0,-12,1,1,0,0,1,17,177,146,1,,,,,,,,
,,,,,,,,,,,,,FF,,,,,,,,0.567,,,,,,,,,,,,,,,,,,,,,,60fe06da23cd2d64aaaa9260,61036e8e2cbe58fb177bb537,2021-07-29_20h15.13.059,Simcolourproject_2stim_asymm_v5,2020.2.10,MacIntel,60,61025ae37ef11b136ea224fe,,,,,,,,,1736,37,71,1,0,0,response1disk,,7,5,9,1,0,0,rectangle,5,9,1,0,0,5,9,1,0,0,1,18,178,73,1,,,,,,,,
,,,,,,,,,,,,,FF,,,,,,,,0.782,,,,,,,,,,,,,,,,,,,,,,60fe06da23cd2d64aaaa9260,61036e8e2cbe58fb177bb537,2021-07-29_20h15.13.059,Simcolourproject_2stim_asymm_v5,2020.2.10,MacIntel,60,61025ae37ef11b136ea224fe,,,,,,,,,141,37,68,1,0,0,response1disk,,7,15,14,1,0,0,rectangle,15,14,1,0,0,15,14,1,0,0,1,19,179,136,1,,,,,,,,
,,,,,,,,,,,,,FF,,,,,,,,1.234,,,,,,,,,,,,,,,,,,,,,,60fe06da23cd2d64aaaa9260,61036e8e2cbe58fb177bb537,2021-07-29_20h15.13.059,Simcolourproject_2stim_asymm_v5,2020.2.10,MacIntel,60,61025ae37ef11b136ea224fe,,,,,,,,,1219,65,-22,1,0,0,response3disk,,5,0,-2,1,0,0,rectangle,0,-2,1,0,0,0,-2,1,0,0,1,20,180,130,1,,,,,,,,
,,,,,,,,,,,,,FF,,,,,,,,0.418,,,,,,,,,,,,,,,,,,,,,,60fe06da23cd2d64aaaa9260,61036e8e2cbe58fb177bb537,2021-07-29_20h15.13.059,Simcolourproject_2stim_asymm_v5,2020.2.10,MacIntel,60,61025ae37ef11b136ea224fe,,,,,,,,,2787,27,71,1,0,0,response1disk,,7,8,-3,1,0,0,rectangle,8,-3,1,0,0,8,-3,1,0,0,1,21,181,8,1,,,,,,,,
,,,,,,,,,,,,,FF,,,,,,,,1.65,,,,,,,,,,,,,,,,,,,,,,60fe06da23cd2d64aaaa9260,61036e8e2cbe58fb177bb537,2021-07-29_20h15.13.059,Simcolourproject_2stim_asymm_v5,2020.2.10,MacIntel,60,61025ae37ef11b136ea224fe,,,,,,,,,1933,40,66,1,0,0,response1disk,,7,5,2,1,0,0,rectangle,5,2,1,0,0,5,2,1,0,0,1,22,182,15,1,,,,,,,,
,,,,,,,,,,,,,FF,,,,,,,,0.599,,,,,,,,,,,,,,,,,,,,,,60fe06da23cd2d64aaaa9260,61036e8e2cbe58fb177bb537,2021-07-29_20h15.13.059,Simcolourproject_2stim_asymm_v5,2020.2.10,MacIntel,60,61025ae37ef11b136ea224fe,,,,,,,,,1492,28,79,1,0,0,response1disk,,7,7,7,1,0,0,rectangle,7,7,1,0,0,7,7,1,0,0,1,23,183,132,1,,,,,,,,
,,,,,,,,,,,,,FF,,,,,,,,0.383,,,,,,,,,,,,,,,,,,,,,,60fe06da23cd2d64aaaa9260,61036e8e2cbe58fb177bb537,2021-07-29_20h15.13.059,Simcolourproject_2stim_asymm_v5,2020.2.10,MacIntel,60,61025ae37ef11b136ea224fe,,,,,,,,,1981,54,90,1,0,0,response1disk,,7,1,11,1,0,0,rectangle,1,11,1,0,0,1,11,1,0,0,1,24,184,141,1,,,,,,,,
,,,,,,,,,,,,,FF,,,,,,,,0.417,,,,,,,,,,,,,,,,,,,,,,60fe06da23cd2d64aaaa9260,61036e8e2cbe58fb177bb537,2021-07-29_20h15.13.059,Simcolourproject_2stim_asymm_v5,2020.2.10,MacIntel,60,61025ae37ef11b136ea224fe,,,,,,,,,420,32,61,1,0,0,response1disk,,7,4,1,1,0,0,rectangle,4,1,1,0,0,4,1,1,0,0,1,25,185,53,1,,,,,,,,
,,,,,,,,,,,,,FF,,,,,,,,0.551,,,,,,,,,,,,,,,,,,,,,,60fe06da23cd2d64aaaa9260,61036e8e2cbe58fb177bb537,2021-07-29_20h15.13.059,Simcolourproject_2stim_asymm_v5,2020.2.10,MacIntel,60,61025ae37ef11b136ea224fe,,,,,,,,,1609,-33,77,1,0,0,response7disk,,0,-3,4,1,0,0,rectangle,-3,4,1,0,0,-3,4,1,0,0,1,26,186,19,1,,,,,,,,
,,,,,,,,,,,,,FF,,,,,,,,0.467,,,,,,,,,,,,,,,,,,,,,,60fe06da23cd2d64aaaa9260,61036e8e2cbe58fb177bb537,2021-07-29_20h15.13.059,Simcolourproject_2stim_asymm_v5,2020.2.10,MacIntel,60,61025ae37ef11b136ea224fe,,,,,,,,,1089,39,71,1,0,0,response1disk,,7,0,-2,1,0,0,rectangle,0,-2,1,0,0,0,-2,1,0,0,1,27,187,28,1,,,,,,,,
,,,,,,,,,,,,,FF,,,,,,,,0.54,,,,,,,,,,,,,,,,,,,,,,60fe06da23cd2d64aaaa9260,61036e8e2cbe58fb177bb537,2021-07-29_20h15.13.059,Simcolourproject_2stim_asymm_v5,2020.2.10,MacIntel,60,61025ae37ef11b136ea224fe,,,,,,,,,3310,46,91,1,0,0,response1disk,,7,0,8,1,0,0,rectangle,0,8,1,0,0,0,8,1,0,0,1,28,188,47,1,,,,,,,,
,,,,,,,,,,,,,FF,,,,,,,,0.366,,,,,,,,,,,,,,,,,,,,,,60fe06da23cd2d64aaaa9260,61036e8e2cbe58fb177bb537,2021-07-29_20h15.13.059,Simcolourproject_2stim_asymm_v5,2020.2.10,MacIntel,60,61025ae37ef11b136ea224fe,,,,,,,,,487,25,69,1,0,0,response1disk,,7,-2,3,1,0,0,rectangle,-2,3,1,0,0,-2,3,1,0,0,1,29,189,104,1,,,,,,,,
,,,,,,,,,,,,,FF,,,,,,,,0.418,,,,,,,,,,,,,,,,,,,,,,60fe06da23cd2d64aaaa9260,61036e8e2cbe58fb177bb537,2021-07-29_20h15.13.059,Simcolourproject_2stim_asymm_v5,2020.2.10,MacIntel,60,61025ae37ef11b136ea224fe,,,,,,,,,2519,22,57,1,0,0,response1disk,,7,2,2,1,0,0,rectangle,27,78,1,0,0,2,3,1,0,0,1,30,190,124,1,,response1disk_3,TRUE,7,7,"[213,223,272,71,314,165,69,8,138,82,72,73,201,83,231,214,265,191,253,269]",1.565,rectangle
,,,,,,,,,,,,,FF,,,,,,,,1.149,,,,,,,,,,,,,,,,,,,,,,60fe06da23cd2d64aaaa9260,61036e8e2cbe58fb177bb537,2021-07-29_20h15.13.059,Simcolourproject_2stim_asymm_v5,2020.2.10,MacIntel,60,61025ae37ef11b136ea224fe,,,,,,,,,3518,75,-29,1,0,0,response3disk,,5,-2,-9,1,0,0,rectangle,-2,-9,1,0,0,-2,-9,1,0,0,1,31,191,117,1,,,,,,,,
,,,,,,,,,,,,,FF,,,,,,,,0.668,,,,,,,,,,,,,,,,,,,,,,60fe06da23cd2d64aaaa9260,61036e8e2cbe58fb177bb537,2021-07-29_20h15.13.059,Simcolourproject_2stim_asymm_v5,2020.2.10,MacIntel,60,61025ae37ef11b136ea224fe,,,,,,,,,3591,-26,75,1,0,0,response7disk,,0,2,-3,1,0,0,rectangle,2,-3,1,0,0,2,-3,1,0,0,1,32,192,34,1,,,,,,,,
,,,,,,,,,,,,,FF,,,,,,,,0.467,,,,,,,,,,,,,,,,,,,,,,60fe06da23cd2d64aaaa9260,61036e8e2cbe58fb177bb537,2021-07-29_20h15.13.059,Simcolourproject_2stim_asymm_v5,2020.2.10,MacIntel,60,61025ae37ef11b136ea224fe,,,,,,,,,1910,28,70,1,0,0,response1disk,,7,1,-1,1,0,0,rectangle,1,-1,1,0,0,1,-1,1,0,0,1,33,193,96,1,,,,,,,,
,,,,,,,,,,,,,FF,,,,,,,,0.5,,,,,,,,,,,,,,,,,,,,,,60fe06da23cd2d64aaaa9260,61036e8e2cbe58fb177bb537,2021-07-29_20h15.13.059,Simcolourproject_2stim_asymm_v5,2020.2.10,MacIntel,60,61025ae37ef11b136ea224fe,,,,,,,,,772,22,54,1,0,0,response1disk,,7,2,4,1,0,0,rectangle,2,4,1,0,0,2,4,1,0,0,1,34,194,55,1,,,,,,,,
,,,,,,,,,,,,,FF,,,,,,,,0.384,,,,,,,,,,,,,,,,,,,,,,60fe06da23cd2d64aaaa9260,61036e8e2cbe58fb177bb537,2021-07-29_20h15.13.059,Simcolourproject_2stim_asymm_v5,2020.2.10,MacIntel,60,61025ae37ef11b136ea224fe,,,,,,,,,20,21,48,1,0,0,response1disk,,7,0,1,1,0,0,rectangle,0,1,1,0,0,0,1,1,0,0,1,35,195,159,1,,,,,,,,
,,,,,,,,,,,,,FF,,,,,,,,1.001,,,,,,,,,,,,,,,,,,,,,,60fe06da23cd2d64aaaa9260,61036e8e2cbe58fb177bb537,2021-07-29_20h15.13.059,Simcolourproject_2stim_asymm_v5,2020.2.10,MacIntel,60,61025ae37ef11b136ea224fe,,,,,,,,,3428,-40,-64,1,0,0,response5disk,,3,3,-4,1,0,0,rectangle,3,-4,1,0,0,3,-4,1,0,0,1,36,196,95,1,,,,,,,,
,,,,,,,,,,,,,FF,,,,,,,,0.483,,,,,,,,,,,,,,,,,,,,,,60fe06da23cd2d64aaaa9260,61036e8e2cbe58fb177bb537,2021-07-29_20h15.13.059,Simcolourproject_2stim_asymm_v5,2020.2.10,MacIntel,60,61025ae37ef11b136ea224fe,,,,,,,,,594,26,58,1,0,0,response1disk,,7,5,-5,1,0,0,rectangle,5,-5,1,0,0,5,-5,1,0,0,1,37,197,40,1,,,,,,,,
,,,,,,,,,,,,,FF,,,,,,,,0.95,,,,,,,,,,,,,,,,,,,,,,60fe06da23cd2d64aaaa9260,61036e8e2cbe58fb177bb537,2021-07-29_20h15.13.059,Simcolourproject_2stim_asymm_v5,2020.2.10,MacIntel,60,61025ae37ef11b136ea224fe,,,,,,,,,3622,-31,-90,1,0,0,response5disk,,3,-4,6,1,0,0,rectangle,-4,6,1,0,0,-4,6,1,0,0,1,38,198,143,1,,,,,,,,
,,,,,,,,,,,,,FF,,,,,,,,1.517,,,,,,,,,,,,,,,,,,,,,,60fe06da23cd2d64aaaa9260,61036e8e2cbe58fb177bb537,2021-07-29_20h15.13.059,Simcolourproject_2stim_asymm_v5,2020.2.10,MacIntel,60,61025ae37ef11b136ea224fe,,,,,,,,,606,-35,-61,1,0,0,response5disk,,3,-10,-8,1,0,0,rectangle,-10,-8,1,0,0,-10,-8,1,0,0,1,39,199,76,1,,,,,,,,
,,,,,,,,,,,,,FF,,,,,,,,0.452,,,,,,,,,,,,,,,,,,,,,,60fe06da23cd2d64aaaa9260,61036e8e2cbe58fb177bb537,2021-07-29_20h15.13.059,Simcolourproject_2stim_asymm_v5,2020.2.10,MacIntel,60,61025ae37ef11b136ea224fe,,,,,,,,,708,20,61,1,0,0,response1disk,,7,1,-1,1,0,0,rectangle,65,-38,1,0,0,0,7,1,0,0,1,40,200,18,1,,response3disk_3,TRUE,5,5,"[213,223,272,71,314,165,69,8,138,82,72,73,201,83,231,214,265,191,253,269]",1.168,rectangle
,,,,,,,,,,,,,FF,,,,,,,,0.554,,,,,,,,,,,,,,,,,,,,,,60fe06da23cd2d64aaaa9260,61036e8e2cbe58fb177bb537,2021-07-29_20h15.13.059,Simcolourproject_2stim_asymm_v5,2020.2.10,MacIntel,60,61025ae37ef11b136ea224fe,,,,,,,,,2983,34,72,1,0,0,response1disk,,7,3,6,1,0,0,rectangle,3,6,1,0,0,3,6,1,0,0,1,41,201,49,1,,,,,,,,
,,,,,,,,,,,,,FF,,,,,,,,2.217,,,,,,,,,,,,,,,,,,,,,,60fe06da23cd2d64aaaa9260,61036e8e2cbe58fb177bb537,2021-07-29_20h15.13.059,Simcolourproject_2stim_asymm_v5,2020.2.10,MacIntel,60,61025ae37ef11b136ea224fe,,,,,,,,,3926,-33,-72,1,0,0,response5disk,,3,-7,0,1,0,0,rectangle,-7,0,1,0,0,-7,0,1,0,0,1,42,202,114,1,,,,,,,,
,,,,,,,,,,,,,FF,,,,,,,,0.483,,,,,,,,,,,,,,,,,,,,,,60fe06da23cd2d64aaaa9260,61036e8e2cbe58fb177bb537,2021-07-29_20h15.13.059,Simcolourproject_2stim_asymm_v5,2020.2.10,MacIntel,60,61025ae37ef11b136ea224fe,,,,,,,,,2589,19,46,1,0,0,response1disk,,7,4,2,1,0,0,rectangle,4,2,1,0,0,4,2,1,0,0,1,43,203,63,1,,,,,,,,
,,,,,,,,,,,,,FF,,,,,,,,0.567,,,,,,,,,,,,,,,,,,,,,,60fe06da23cd2d64aaaa9260,61036e8e2cbe58fb177bb537,2021-07-29_20h15.13.059,Simcolourproject_2stim_asymm_v5,2020.2.10,MacIntel,60,61025ae37ef11b136ea224fe,,,,,,,,,4278,31,48,1,0,0,response1disk,,7,3,7,1,0,0,rectangle,3,7,1,0,0,3,7,1,0,0,1,44,204,43,1,,,,,,,,
,,,,,,,,,,,,,FF,,,,,,,,0.484,,,,,,,,,,,,,,,,,,,,,,60fe06da23cd2d64aaaa9260,61036e8e2cbe58fb177bb537,2021-07-29_20h15.13.059,Simcolourproject_2stim_asymm_v5,2020.2.10,MacIntel,60,61025ae37ef11b136ea224fe,,,,,,,,,1839,28,54,1,0,0,response1disk,,7,7,7,1,0,0,rectangle,7,7,1,0,0,7,7,1,0,0,1,45,205,16,1,,,,,,,,
,,,,,,,,,,,,,FF,,,,,,,,0.334,,,,,,,,,,,,,,,,,,,,,,60fe06da23cd2d64aaaa9260,61036e8e2cbe58fb177bb537,2021-07-29_20h15.13.059,Simcolourproject_2stim_asymm_v5,2020.2.10,MacIntel,60,61025ae37ef11b136ea224fe,,,,,,,,,860,32,61,1,0,0,response1disk,,7,6,14,1,0,0,rectangle,6,14,1,0,0,6,14,1,0,0,1,46,206,46,1,,,,,,,,
,,,,,,,,,,,,,FF,,,,,,,,0.35,,,,,,,,,,,,,,,,,,,,,,60fe06da23cd2d64aaaa9260,61036e8e2cbe58fb177bb537,2021-07-29_20h15.13.059,Simcolourproject_2stim_asymm_v5,2020.2.10,MacIntel,60,61025ae37ef11b136ea224fe,,,,,,,,,3443,37,66,1,0,0,response1disk,,7,-6,1,1,0,0,rectangle,-6,1,1,0,0,-6,1,1,0,0,1,47,207,89,1,,,,,,,,
,,,,,,,,,,,,,FF,,,,,,,,0.9,,,,,,,,,,,,,,,,,,,,,,60fe06da23cd2d64aaaa9260,61036e8e2cbe58fb177bb537,2021-07-29_20h15.13.059,Simcolourproject_2stim_asymm_v5,2020.2.10,MacIntel,60,61025ae37ef11b136ea224fe,,,,,,,,,2362,-30,-53,1,0,0,response5disk,,3,-4,7,1,0,0,rectangle,-4,7,1,0,0,-4,7,1,0,0,1,48,208,125,1,,,,,,,,
,,,,,,,,,,,,,FF,,,,,,,,0.618,,,,,,,,,,,,,,,,,,,,,,60fe06da23cd2d64aaaa9260,61036e8e2cbe58fb177bb537,2021-07-29_20h15.13.059,Simcolourproject_2stim_asymm_v5,2020.2.10,MacIntel,60,61025ae37ef11b136ea224fe,,,,,,,,,3358,36,62,1,0,0,response1disk,,7,-1,-1,1,0,0,rectangle,-1,-1,1,0,0,-1,-1,1,0,0,1,49,209,37,1,,,,,,,,
,,,,,,,,,,,,,FF,,,,,,,,0.933,,,,,,,,,,,,,,,,,,,,,,60fe06da23cd2d64aaaa9260,61036e8e2cbe58fb177bb537,2021-07-29_20h15.13.059,Simcolourproject_2stim_asymm_v5,2020.2.10,MacIntel,60,61025ae37ef11b136ea224fe,,,,,,,,,403,20,58,1,0,0,response1disk,,7,-7,-2,1,0,0,rectangle,-7,-2,1,0,0,-7,-2,1,0,0,1,50,210,152,1,,,,,,,,
,,,,,,,,,,,,,FF,,,,,,,,1.368,,,,,,,,,,,,,,,,,,,,,,60fe06da23cd2d64aaaa9260,61036e8e2cbe58fb177bb537,2021-07-29_20h15.13.059,Simcolourproject_2stim_asymm_v5,2020.2.10,MacIntel,60,61025ae37ef11b136ea224fe,,,,,,,,,4050,25,-48,1,0,0,response3disk,,4,2,-6,1,0,0,rectangle,2,-6,1,0,0,2,-6,1,0,0,1,51,211,91,1,,,,,,,,
,,,,,,,,,,,,,FF,,,,,,,,0.866,,,,,,,,,,,,,,,,,,,,,,60fe06da23cd2d64aaaa9260,61036e8e2cbe58fb177bb537,2021-07-29_20h15.13.059,Simcolourproject_2stim_asymm_v5,2020.2.10,MacIntel,60,61025ae37ef11b136ea224fe,,,,,,,,,2668,32,-44,1,0,0,response3disk,,4,7,7,1,0,0,rectangle,-55,-35,1,0,0,-10,7,1,0,0,1,52,212,48,1,,response5disk_3,TRUE,2,2,"[213,223,272,71,314,165,69,8,138,82,72,73,201,83,231,214,265,191,253,269]",1.301,rectangle
,,,,,,,,,,,,,FF,,,,,,,,1.301,,,,,,,,,,,,,,,,,,,,,,60fe06da23cd2d64aaaa9260,61036e8e2cbe58fb177bb537,2021-07-29_20h15.13.059,Simcolourproject_2stim_asymm_v5,2020.2.10,MacIntel,60,61025ae37ef11b136ea224fe,,,,,,,,,2894,-69,-38,1,0,0,response5disk,,2,-7,-11,1,0,0,rectangle,31,-65,1,0,0,8,4,1,0,0,1,53,213,84,1,,response3disk_3,TRUE,4,4,"[213,223,272,71,314,165,69,8,138,82,72,73,201,83,231,214,265,191,253,269]",1.433,rectangle
,,,,,,,,,,,,,FF,,,,,,,,1.619,,,,,,,,,,,,,,,,,,,,,,60fe06da23cd2d64aaaa9260,61036e8e2cbe58fb177bb537,2021-07-29_20h15.13.059,Simcolourproject_2stim_asymm_v5,2020.2.10,MacIntel,60,61025ae37ef11b136ea224fe,,,,,,,,,1396,48,24,1,0,0,response1disk,,6,7,-3,1,0,0,rectangle,7,-3,1,0,0,7,-3,1,0,0,1,54,214,36,1,,,,,,,,
,,,,,,,,,,,,,FF,,,,,,,,0.583,,,,,,,,,,,,,,,,,,,,,,60fe06da23cd2d64aaaa9260,61036e8e2cbe58fb177bb537,2021-07-29_20h15.13.059,Simcolourproject_2stim_asymm_v5,2020.2.10,MacIntel,60,61025ae37ef11b136ea224fe,,,,,,,,,2002,20,51,1,0,0,response1disk,,7,0,2,1,0,0,rectangle,0,2,1,0,0,0,2,1,0,0,1,55,215,116,1,,,,,,,,
,,,,,,,,,,,,,FF,,,,,,,,0.717,,,,,,,,,,,,,,,,,,,,,,60fe06da23cd2d64aaaa9260,61036e8e2cbe58fb177bb537,2021-07-29_20h15.13.059,Simcolourproject_2stim_asymm_v5,2020.2.10,MacIntel,60,61025ae37ef11b136ea224fe,,,,,,,,,33,27,54,1,0,0,response1disk,,7,6,12,1,0,0,rectangle,6,12,1,0,0,6,12,1,0,0,1,56,216,74,1,,,,,,,,
,,,,,,,,,,,,,FF,,,,,,,,0.534,,,,,,,,,,,,,,,,,,,,,,60fe06da23cd2d64aaaa9260,61036e8e2cbe58fb177bb537,2021-07-29_20h15.13.059,Simcolourproject_2stim_asymm_v5,2020.2.10,MacIntel,60,61025ae37ef11b136ea224fe,,,,,,,,,397,47,25,1,0,0,response1disk,,6,13,2,1,0,0,rectangle,13,2,1,0,0,13,2,1,0,0,1,57,217,59,1,,,,,,,,
,,,,,,,,,,,,,FF,,,,,,,,0.45,,,,,,,,,,,,,,,,,,,,,,60fe06da23cd2d64aaaa9260,61036e8e2cbe58fb177bb537,2021-07-29_20h15.13.059,Simcolourproject_2stim_asymm_v5,2020.2.10,MacIntel,60,61025ae37ef11b136ea224fe,,,,,,,,,1006,33,61,1,0,0,response1disk,,7,5,10,1,0,0,rectangle,5,10,1,0,0,5,10,1,0,0,1,58,218,86,1,,,,,,,,
,,,,,,,,,,,,,FF,,,,,,,,0.55,,,,,,,,,,,,,,,,,,,,,,60fe06da23cd2d64aaaa9260,61036e8e2cbe58fb177bb537,2021-07-29_20h15.13.059,Simcolourproject_2stim_asymm_v5,2020.2.10,MacIntel,60,61025ae37ef11b136ea224fe,,,,,,,,,2571,44,29,1,0,0,response1disk,,6,12,14,1,0,0,rectangle,12,14,1,0,0,12,14,1,0,0,1,59,219,120,1,,,,,,,,
,,,,,,,,,,,,,FF,,,,,,,,1.268,,,,,,,,,,,,,,,,,,,,,,60fe06da23cd2d64aaaa9260,61036e8e2cbe58fb177bb537,2021-07-29_20h15.13.059,Simcolourproject_2stim_asymm_v5,2020.2.10,MacIntel,60,61025ae37ef11b136ea224fe,,,,,,,,,3141,-37,-86,1,0,0,response5disk,,3,-2,1,1,0,0,rectangle,-2,1,1,0,0,-2,1,1,0,0,1,60,220,97,1,,,,,,,,
,,,,,,,,,,,,,FF,,,,,,,,0.483,,,,,,,,,,,,,,,,,,,,,,60fe06da23cd2d64aaaa9260,61036e8e2cbe58fb177bb537,2021-07-29_20h15.13.059,Simcolourproject_2stim_asymm_v5,2020.2.10,MacIntel,60,61025ae37ef11b136ea224fe,,,,,,,,,3084,22,49,1,0,0,response1disk,,7,-1,3,1,0,0,rectangle,-1,3,1,0,0,-1,3,1,0,0,1,61,221,138,1,,,,,,,,
,,,,,,,,,,,,,FF,,,,,,,,0.767,,,,,,,,,,,,,,,,,,,,,,60fe06da23cd2d64aaaa9260,61036e8e2cbe58fb177bb537,2021-07-29_20h15.13.059,Simcolourproject_2stim_asymm_v5,2020.2.10,MacIntel,60,61025ae37ef11b136ea224fe,,,,,,,,,3998,-33,61,1,0,0,response7disk,,0,-17,7,1,0,0,rectangle,-49,-35,1,0,0,-13,-3,1,0,0,1,62,222,110,1,,response5disk_3,TRUE,2,2,"[213,223,272,71,314,165,69,8,138,82,72,73,201,83,231,214,265,191,253,269]",1.466,rectangle
,,,,,,,,,,,,,FF,,,,,,,,0.534,,,,,,,,,,,,,,,,,,,,,,60fe06da23cd2d64aaaa9260,61036e8e2cbe58fb177bb537,2021-07-29_20h15.13.059,Simcolourproject_2stim_asymm_v5,2020.2.10,MacIntel,60,61025ae37ef11b136ea224fe,,,,,,,,,2636,51,70,1,0,0,response1disk,,7,-3,5,1,0,0,rectangle,-3,5,1,0,0,-3,5,1,0,0,1,63,223,106,1,,,,,,,,
,,,,,,,,,,,,,FF,,,,,,,,2.001,,,,,,,,,,,,,,,,,,,,,,60fe06da23cd2d64aaaa9260,61036e8e2cbe58fb177bb537,2021-07-29_20h15.13.059,Simcolourproject_2stim_asymm_v5,2020.2.10,MacIntel,60,61025ae37ef11b136ea224fe,,,,,,,,,3461,28,-75,1,0,0,response3disk,,4,5,-11,1,0,0,rectangle,5,-11,1,0,0,5,-11,1,0,0,1,64,224,140,1,,,,,,,,
,,,,,,,,,,,,,FF,,,,,,,,0.818,,,,,,,,,,,,,,,,,,,,,,60fe06da23cd2d64aaaa9260,61036e8e2cbe58fb177bb537,2021-07-29_20h15.13.059,Simcolourproject_2stim_asymm_v5,2020.2.10,MacIntel,60,61025ae37ef11b136ea224fe,,,,,,,,,912,18,67,1,0,0,response1disk,,7,-5,9,1,0,0,rectangle,-5,9,1,0,0,-5,9,1,0,0,1,65,225,133,1,,,,,,,,
,,,,,,,,,,,,,FF,,,,,,,,0.55,,,,,,,,,,,,,,,,,,,,,,60fe06da23cd2d64aaaa9260,61036e8e2cbe58fb177bb537,2021-07-29_20h15.13.059,Simcolourproject_2stim_asymm_v5,2020.2.10,MacIntel,60,61025ae37ef11b136ea224fe,,,,,,,,,3145,23,45,1,0,0,response1disk,,7,-5,2,1,0,0,rectangle,-5,2,1,0,0,-5,2,1,0,0,1,66,226,156,1,,,,,,,,
,,,,,,,,,,,,,FF,,,,,,,,0.568,,,,,,,,,,,,,,,,,,,,,,60fe06da23cd2d64aaaa9260,61036e8e2cbe58fb177bb537,2021-07-29_20h15.13.059,Simcolourproject_2stim_asymm_v5,2020.2.10,MacIntel,60,61025ae37ef11b136ea224fe,,,,,,,,,246,18,33,1,0,0,response1disk,,7,1,-3,1,0,0,rectangle,1,-3,1,0,0,1,-3,1,0,0,1,67,227,82,1,,,,,,,,
,,,,,,,,,,,,,FF,,,,,,,,0.433,,,,,,,,,,,,,,,,,,,,,,60fe06da23cd2d64aaaa9260,61036e8e2cbe58fb177bb537,2021-07-29_20h15.13.059,Simcolourproject_2stim_asymm_v5,2020.2.10,MacIntel,60,61025ae37ef11b136ea224fe,,,,,,,,,4013,28,43,1,0,0,response1disk,,7,1,6,1,0,0,rectangle,1,6,1,0,0,1,6,1,0,0,1,68,228,9,1,,,,,,,,
,,,,,,,,,,,,,FF,,,,,,,,0.75,,,,,,,,,,,,,,,,,,,,,,60fe06da23cd2d64aaaa9260,61036e8e2cbe58fb177bb537,2021-07-29_20h15.13.059,Simcolourproject_2stim_asymm_v5,2020.2.10,MacIntel,60,61025ae37ef11b136ea224fe,,,,,,,,,2048,25,53,1,0,0,response1disk,,7,-4,8,1,0,0,rectangle,-4,8,1,0,0,-4,8,1,0,0,1,69,229,134,1,,,,,,,,
,,,,,,,,,,,,,FF,,,,,,,,0.401,,,,,,,,,,,,,,,,,,,,,,60fe06da23cd2d64aaaa9260,61036e8e2cbe58fb177bb537,2021-07-29_20h15.13.059,Simcolourproject_2stim_asymm_v5,2020.2.10,MacIntel,60,61025ae37ef11b136ea224fe,,,,,,,,,2649,28,62,1,0,0,response1disk,,7,-4,8,1,0,0,rectangle,54,30,1,0,0,-14,11,1,0,0,1,70,230,145,1,,response1disk_3,TRUE,6,6,"[213,223,272,71,314,165,69,8,138,82,72,73,201,83,231,214,265,191,253,269]",1.435,rectangle
,,,,,,,,,,,,,FF,,,,,,,,0.516,,,,,,,,,,,,,,,,,,,,,,60fe06da23cd2d64aaaa9260,61036e8e2cbe58fb177bb537,2021-07-29_20h15.13.059,Simcolourproject_2stim_asymm_v5,2020.2.10,MacIntel,60,61025ae37ef11b136ea224fe,,,,,,,,,2822,23,66,1,0,0,response1disk,,7,-12,3,1,0,0,rectangle,-12,3,1,0,0,-12,3,1,0,0,1,71,231,155,1,,,,,,,,
,,,,,,,,,,,,,FF,,,,,,,,1.117,,,,,,,,,,,,,,,,,,,,,,60fe06da23cd2d64aaaa9260,61036e8e2cbe58fb177bb537,2021-07-29_20h15.13.059,Simcolourproject_2stim_asymm_v5,2020.2.10,MacIntel,60,61025ae37ef11b136ea224fe,,,,,,,,,3176,17,39,1,0,0,response1disk,,7,-5,-1,1,0,0,rectangle,-5,-1,1,0,0,-5,-1,1,0,0,1,72,232,20,1,,,,,,,,
,,,,,,,,,,,,,FF,,,,,,,,0.517,,,,,,,,,,,,,,,,,,,,,,60fe06da23cd2d64aaaa9260,61036e8e2cbe58fb177bb537,2021-07-29_20h15.13.059,Simcolourproject_2stim_asymm_v5,2020.2.10,MacIntel,60,61025ae37ef11b136ea224fe,,,,,,,,,2190,26,44,1,0,0,response1disk,,7,-3,6,1,0,0,rectangle,-3,6,1,0,0,-3,6,1,0,0,1,73,233,65,1,,,,,,,,
,,,,,,,,,,,,,FF,,,,,,,,0.334,,,,,,,,,,,,,,,,,,,,,,60fe06da23cd2d64aaaa9260,61036e8e2cbe58fb177bb537,2021-07-29_20h15.13.059,Simcolourproject_2stim_asymm_v5,2020.2.10,MacIntel,60,61025ae37ef11b136ea224fe,,,,,,,,,2702,35,75,1,0,0,response1disk,,7,0,9,1,0,0,rectangle,0,9,1,0,0,0,9,1,0,0,1,74,234,31,1,,,,,,,,
,,,,,,,,,,,,,FF,,,,,,,,1.668,,,,,,,,,,,,,,,,,,,,,,60fe06da23cd2d64aaaa9260,61036e8e2cbe58fb177bb537,2021-07-29_20h15.13.059,Simcolourproject_2stim_asymm_v5,2020.2.10,MacIntel,60,61025ae37ef11b136ea224fe,,,,,,,,,3386,61,-21,1,0,0,response3disk,,5,4,1,1,0,0,rectangle,4,1,1,0,0,4,1,1,0,0,1,75,235,69,1,,,,,,,,
,,,,,,,,,,,,,FF,,,,,,,,0.416,,,,,,,,,,,,,,,,,,,,,,60fe06da23cd2d64aaaa9260,61036e8e2cbe58fb177bb537,2021-07-29_20h15.13.059,Simcolourproject_2stim_asymm_v5,2020.2.10,MacIntel,60,61025ae37ef11b136ea224fe,,,,,,,,,1148,19,64,1,0,0,response1disk,,7,-3,12,1,0,0,rectangle,-3,12,1,0,0,-3,12,1,0,0,1,76,236,158,1,,,,,,,,
,,,,,,,,,,,,,FF,,,,,,,,0.35,,,,,,,,,,,,,,,,,,,,,,60fe06da23cd2d64aaaa9260,61036e8e2cbe58fb177bb537,2021-07-29_20h15.13.059,Simcolourproject_2stim_asymm_v5,2020.2.10,MacIntel,60,61025ae37ef11b136ea224fe,,,,,,,,,42,38,66,1,0,0,response1disk,,7,-3,-1,1,0,0,rectangle,-3,-1,1,0,0,-3,-1,1,0,0,1,77,237,101,1,,,,,,,,
,,,,,,,,,,,,,FF,,,,,,,,0.384,,,,,,,,,,,,,,,,,,,,,,60fe06da23cd2d64aaaa9260,61036e8e2cbe58fb177bb537,2021-07-29_20h15.13.059,Simcolourproject_2stim_asymm_v5,2020.2.10,MacIntel,60,61025ae37ef11b136ea224fe,,,,,,,,,4029,25,45,1,0,0,response1disk,,7,2,2,1,0,0,rectangle,2,2,1,0,0,2,2,1,0,0,1,78,238,92,1,,,,,,,,
,,,,,,,,,,,,,FF,,,,,,,,0.382,,,,,,,,,,,,,,,,,,,,,,60fe06da23cd2d64aaaa9260,61036e8e2cbe58fb177bb537,2021-07-29_20h15.13.059,Simcolourproject_2stim_asymm_v5,2020.2.10,MacIntel,60,61025ae37ef11b136ea224fe,,,,,,,,,279,27,34,1,0,0,response1disk,,7,2,3,1,0,0,rectangle,2,3,1,0,0,2,3,1,0,0,1,79,239,153,1,,,,,,,,
,,,,,,,,,,,,,FF,,,,,,,,1.301,,,,,,,,,,,,,,,,,,,,,,60fe06da23cd2d64aaaa9260,61036e8e2cbe58fb177bb537,2021-07-29_20h15.13.059,Simcolourproject_2stim_asymm_v5,2020.2.10,MacIntel,60,61025ae37ef11b136ea224fe,,,,,,,,,3662,-40,-79,1,0,0,response5disk,,3,-7,11,1,0,0,rectangle,-7,11,1,0,0,-7,11,1,0,0,1,80,240,99,1,,,,,,,,
,,,,,,,,,,,,,FF,,,,,,,,0.567,,,,,,,,,,,,,,,,,,,,,,60fe06da23cd2d64aaaa9260,61036e8e2cbe58fb177bb537,2021-07-29_20h15.13.059,Simcolourproject_2stim_asymm_v5,2020.2.10,MacIntel,60,61025ae37ef11b136ea224fe,,,,,,,,,915,29,50,1,0,0,response1disk,,7,-9,3,1,0,0,rectangle,-9,3,1,0,0,-9,3,1,0,0,1,81,241,77,1,,,,,,,,
,,,,,,,,,,,,,FF,,,,,,,,1.201,,,,,,,,,,,,,,,,,,,,,,60fe06da23cd2d64aaaa9260,61036e8e2cbe58fb177bb537,2021-07-29_20h15.13.059,Simcolourproject_2stim_asymm_v5,2020.2.10,MacIntel,60,61025ae37ef11b136ea224fe,,,,,,,,,1672,-43,-71,1,0,0,response5disk,,3,-17,3,1,0,0,rectangle,-17,3,1,0,0,-17,3,1,0,0,1,82,242,42,1,,,,,,,,
,,,,,,,,,,,,,FF,,,,,,,,0.467,,,,,,,,,,,,,,,,,,,,,,60fe06da23cd2d64aaaa9260,61036e8e2cbe58fb177bb537,2021-07-29_20h15.13.059,Simcolourproject_2stim_asymm_v5,2020.2.10,MacIntel,60,61025ae37ef11b136ea224fe,,,,,,,,,504,14,49,1,0,0,response1disk,,7,-1,7,1,0,0,rectangle,-1,7,1,0,0,-1,7,1,0,0,1,83,243,30,1,,,,,,,,
,,,,,,,,,,,,,FF,,,,,,,,0.9,,,,,,,,,,,,,,,,,,,,,,60fe06da23cd2d64aaaa9260,61036e8e2cbe58fb177bb537,2021-07-29_20h15.13.059,Simcolourproject_2stim_asymm_v5,2020.2.10,MacIntel,60,61025ae37ef11b136ea224fe,,,,,,,,,191,26,32,1,0,0,response1disk,,7,-1,-3,1,0,0,rectangle,-1,-3,1,0,0,-1,-3,1,0,0,1,84,244,58,1,,,,,,,,
,,,,,,,,,,,,,FF,,,,,,,,0.5,,,,,,,,,,,,,,,,,,,,,,60fe06da23cd2d64aaaa9260,61036e8e2cbe58fb177bb537,2021-07-29_20h15.13.059,Simcolourproject_2stim_asymm_v5,2020.2.10,MacIntel,60,61025ae37ef11b136ea224fe,,,,,,,,,4173,22,51,1,0,0,response1disk,,7,-7,-2,1,0,0,rectangle,-7,-2,1,0,0,-7,-2,1,0,0,1,85,245,22,1,,,,,,,,
,,,,,,,,,,,,,FF,,,,,,,,1.034,,,,,,,,,,,,,,,,,,,,,,60fe06da23cd2d64aaaa9260,61036e8e2cbe58fb177bb537,2021-07-29_20h15.13.059,Simcolourproject_2stim_asymm_v5,2020.2.10,MacIntel,60,61025ae37ef11b136ea224fe,,,,,,,,,746,19,38,1,0,0,response1disk,,7,-7,-8,1,0,0,rectangle,-7,-8,1,0,0,-7,-8,1,0,0,1,86,246,79,1,,,,,,,,
,,,,,,,,,,,,,FF,,,,,,,,0.567,,,,,,,,,,,,,,,,,,,,,,60fe06da23cd2d64aaaa9260,61036e8e2cbe58fb177bb537,2021-07-29_20h15.13.059,Simcolourproject_2stim_asymm_v5,2020.2.10,MacIntel,60,61025ae37ef11b136ea224fe,,,,,,,,,713,25,42,1,0,0,response1disk,,7,1,1,1,0,0,rectangle,1,1,1,0,0,1,1,1,0,0,1,87,247,105,1,,,,,,,,
,,,,,,,,,,,,,FF,,,,,,,,0.749,,,,,,,,,,,,,,,,,,,,,,60fe06da23cd2d64aaaa9260,61036e8e2cbe58fb177bb537,2021-07-29_20h15.13.059,Simcolourproject_2stim_asymm_v5,2020.2.10,MacIntel,60,61025ae37ef11b136ea224fe,,,,,,,,,1822,-27,60,1,0,0,response7disk,,0,-9,4,1,0,0,rectangle,-9,4,1,0,0,-9,4,1,0,0,1,88,248,157,1,,,,,,,,
,,,,,,,,,,,,,FF,,,,,,,,1.067,,,,,,,,,,,,,,,,,,,,,,60fe06da23cd2d64aaaa9260,61036e8e2cbe58fb177bb537,2021-07-29_20h15.13.059,Simcolourproject_2stim_asymm_v5,2020.2.10,MacIntel,60,61025ae37ef11b136ea224fe,,,,,,,,,3592,-61,-35,1,0,0,response5disk,,2,2,12,1,0,0,rectangle,2,12,1,0,0,2,12,1,0,0,1,89,249,90,1,,,,,,,,
,,,,,,,,,,,,,FF,,,,,,,,0.883,,,,,,,,,,,,,,,,,,,,,,60fe06da23cd2d64aaaa9260,61036e8e2cbe58fb177bb537,2021-07-29_20h15.13.059,Simcolourproject_2stim_asymm_v5,2020.2.10,MacIntel,60,61025ae37ef11b136ea224fe,,,,,,,,,3919,-32,-62,1,0,0,response5disk,,3,-14,2,1,0,0,rectangle,-14,2,1,0,0,-14,2,1,0,0,1,90,250,32,1,,,,,,,,
,,,,,,,,,,,,,FF,,,,,,,,1.501,,,,,,,,,,,,,,,,,,,,,,60fe06da23cd2d64aaaa9260,61036e8e2cbe58fb177bb537,2021-07-29_20h15.13.059,Simcolourproject_2stim_asymm_v5,2020.2.10,MacIntel,60,61025ae37ef11b136ea224fe,,,,,,,,,1876,30,62,1,0,0,response1disk,,7,7,8,1,0,0,rectangle,7,8,1,0,0,7,8,1,0,0,1,91,251,107,1,,,,,,,,
,,,,,,,,,,,,,FF,,,,,,,,0.801,,,,,,,,,,,,,,,,,,,,,,60fe06da23cd2d64aaaa9260,61036e8e2cbe58fb177bb537,2021-07-29_20h15.13.059,Simcolourproject_2stim_asymm_v5,2020.2.10,MacIntel,60,61025ae37ef11b136ea224fe,,,,,,,,,3525,30,55,1,0,0,response1disk,,7,12,6,1,0,0,rectangle,38,73,1,0,0,9,7,1,0,0,1,92,252,2,1,,response1disk_3,TRUE,7,7,"[213,223,272,71,314,165,69,8,138,82,72,73,201,83,231,214,265,191,253,269]",1.535,rectangle
,,,,,,,,,,,,,FF,,,,,,,,0.517,,,,,,,,,,,,,,,,,,,,,,60fe06da23cd2d64aaaa9260,61036e8e2cbe58fb177bb537,2021-07-29_20h15.13.059,Simcolourproject_2stim_asymm_v5,2020.2.10,MacIntel,60,61025ae37ef11b136ea224fe,,,,,,,,,598,23,59,1,0,0,response1disk,,7,2,3,1,0,0,rectangle,2,3,1,0,0,2,3,1,0,0,1,93,253,68,1,,,,,,,,
,,,,,,,,,,,,,FF,,,,,,,,1.568,,,,,,,,,,,,,,,,,,,,,,60fe06da23cd2d64aaaa9260,61036e8e2cbe58fb177bb537,2021-07-29_20h15.13.059,Simcolourproject_2stim_asymm_v5,2020.2.10,MacIntel,60,61025ae37ef11b136ea224fe,,,,,,,,,3473,-80,-15,1,0,0,response5disk,,2,-19,3,1,0,0,rectangle,-19,3,1,0,0,-19,3,1,0,0,1,94,254,113,1,,,,,,,,
,,,,,,,,,,,,,FF,,,,,,,,0.766,,,,,,,,,,,,,,,,,,,,,,60fe06da23cd2d64aaaa9260,61036e8e2cbe58fb177bb537,2021-07-29_20h15.13.059,Simcolourproject_2stim_asymm_v5,2020.2.10,MacIntel,60,61025ae37ef11b136ea224fe,,,,,,,,,2726,19,44,1,0,0,response1disk,,7,2,-3,1,0,0,rectangle,2,-3,1,0,0,2,-3,1,0,0,1,95,255,118,1,,,,,,,,
,,,,,,,,,,,,,FF,,,,,,,,0.518,,,,,,,,,,,,,,,,,,,,,,60fe06da23cd2d64aaaa9260,61036e8e2cbe58fb177bb537,2021-07-29_20h15.13.059,Simcolourproject_2stim_asymm_v5,2020.2.10,MacIntel,60,61025ae37ef11b136ea224fe,,,,,,,,,1628,20,35,1,0,0,response1disk,,7,0,-8,1,0,0,rectangle,0,-8,1,0,0,0,-8,1,0,0,1,96,256,26,1,,,,,,,,
,,,,,,,,,,,,,FF,,,,,,,,1.318,,,,,,,,,,,,,,,,,,,,,,60fe06da23cd2d64aaaa9260,61036e8e2cbe58fb177bb537,2021-07-29_20h15.13.059,Simcolourproject_2stim_asymm_v5,2020.2.10,MacIntel,60,61025ae37ef11b136ea224fe,,,,,,,,,3175,-26,-44,1,0,0,response5disk,,3,-2,-6,1,0,0,rectangle,-2,-6,1,0,0,-2,-6,1,0,0,1,97,257,25,1,,,,,,,,
,,,,,,,,,,,,,FF,,,,,,,,0.618,,,,,,,,,,,,,,,,,,,,,,60fe06da23cd2d64aaaa9260,61036e8e2cbe58fb177bb537,2021-07-29_20h15.13.059,Simcolourproject_2stim_asymm_v5,2020.2.10,MacIntel,60,61025ae37ef11b136ea224fe,,,,,,,,,104,27,41,1,0,0,response1disk,,7,3,8,1,0,0,rectangle,3,8,1,0,0,3,8,1,0,0,1,98,258,10,1,,,,,,,,
,,,,,,,,,,,,,FF,,,,,,,,0.583,,,,,,,,,,,,,,,,,,,,,,60fe06da23cd2d64aaaa9260,61036e8e2cbe58fb177bb537,2021-07-29_20h15.13.059,Simcolourproject_2stim_asymm_v5,2020.2.10,MacIntel,60,61025ae37ef11b136ea224fe,,,,,,,,,239,36,-45,1,0,0,response3disk,,4,9,15,1,0,0,rectangle,9,15,1,0,0,9,15,1,0,0,1,99,259,144,1,,,,,,,,
,,,,,,,,,,,,,FF,,,,,,,,0.8,,,,,,,,,,,,,,,,,,,,,,60fe06da23cd2d64aaaa9260,61036e8e2cbe58fb177bb537,2021-07-29_20h15.13.059,Simcolourproject_2stim_asymm_v5,2020.2.10,MacIntel,60,61025ae37ef11b136ea224fe,,,,,,,,,1892,-50,-15,1,0,0,response5disk,,2,-9,-2,1,0,0,rectangle,-9,-2,1,0,0,-9,-2,1,0,0,1,100,260,87,1,,,,,,,,
,,,,,,,,,,,,,FF,,,,,,,,0.6,,,,,,,,,,,,,,,,,,,,,,60fe06da23cd2d64aaaa9260,61036e8e2cbe58fb177bb537,2021-07-29_20h15.13.059,Simcolourproject_2stim_asymm_v5,2020.2.10,MacIntel,60,61025ae37ef11b136ea224fe,,,,,,,,,1979,22,36,1,0,0,response1disk,,7,1,-2,1,0,0,rectangle,1,-2,1,0,0,1,-2,1,0,0,1,101,261,93,1,,,,,,,,
,,,,,,,,,,,,,FF,,,,,,,,0.55,,,,,,,,,,,,,,,,,,,,,,60fe06da23cd2d64aaaa9260,61036e8e2cbe58fb177bb537,2021-07-29_20h15.13.059,Simcolourproject_2stim_asymm_v5,2020.2.10,MacIntel,60,61025ae37ef11b136ea224fe,,,,,,,,,3453,21,48,1,0,0,response1disk,,7,0,2,1,0,0,rectangle,0,2,1,0,0,0,2,1,0,0,1,102,262,35,1,,,,,,,,
,,,,,,,,,,,,,FF,,,,,,,,0.583,,,,,,,,,,,,,,,,,,,,,,60fe06da23cd2d64aaaa9260,61036e8e2cbe58fb177bb537,2021-07-29_20h15.13.059,Simcolourproject_2stim_asymm_v5,2020.2.10,MacIntel,60,61025ae37ef11b136ea224fe,,,,,,,,,336,21,53,1,0,0,response1disk,,7,-3,15,1,0,0,rectangle,-3,15,1,0,0,-3,15,1,0,0,1,103,263,103,1,,,,,,,,
,,,,,,,,,,,,,FF,,,,,,,,0.45,,,,,,,,,,,,,,,,,,,,,,60fe06da23cd2d64aaaa9260,61036e8e2cbe58fb177bb537,2021-07-29_20h15.13.059,Simcolourproject_2stim_asymm_v5,2020.2.10,MacIntel,60,61025ae37ef11b136ea224fe,,,,,,,,,2066,22,44,1,0,0,response1disk,,7,-5,6,1,0,0,rectangle,-28,54,1,0,0,8,-6,1,0,0,1,104,264,85,1,,response7disk_3,TRUE,0,0,"[213,223,272,71,314,165,69,8,138,82,72,73,201,83,231,214,265,191,253,269]",1.551,rectangle
,,,,,,,,,,,,,FF,,,,,,,,1.117,,,,,,,,,,,,,,,,,,,,,,60fe06da23cd2d64aaaa9260,61036e8e2cbe58fb177bb537,2021-07-29_20h15.13.059,Simcolourproject_2stim_asymm_v5,2020.2.10,MacIntel,60,61025ae37ef11b136ea224fe,,,,,,,,,1539,67,-20,1,0,0,response3disk,,5,14,7,1,0,0,rectangle,14,7,1,0,0,14,7,1,0,0,1,105,265,4,1,,,,,,,,
,,,,,,,,,,,,,FF,,,,,,,,0.65,,,,,,,,,,,,,,,,,,,,,,60fe06da23cd2d64aaaa9260,61036e8e2cbe58fb177bb537,2021-07-29_20h15.13.059,Simcolourproject_2stim_asymm_v5,2020.2.10,MacIntel,60,61025ae37ef11b136ea224fe,,,,,,,,,752,34,53,1,0,0,response1disk,,7,0,7,1,0,0,rectangle,0,7,1,0,0,0,7,1,0,0,1,106,266,54,1,,,,,,,,
,,,,,,,,,,,,,FF,,,,,,,,0.415,,,,,,,,,,,,,,,,,,,,,,60fe06da23cd2d64aaaa9260,61036e8e2cbe58fb177bb537,2021-07-29_20h15.13.059,Simcolourproject_2stim_asymm_v5,2020.2.10,MacIntel,60,61025ae37ef11b136ea224fe,,,,,,,,,1709,17,47,1,0,0,response1disk,,7,-3,6,1,0,0,rectangle,-3,6,1,0,0,-3,6,1,0,0,1,107,267,23,1,,,,,,,,
,,,,,,,,,,,,,FF,,,,,,,,1.067,,,,,,,,,,,,,,,,,,,,,,60fe06da23cd2d64aaaa9260,61036e8e2cbe58fb177bb537,2021-07-29_20h15.13.059,Simcolourproject_2stim_asymm_v5,2020.2.10,MacIntel,60,61025ae37ef11b136ea224fe,,,,,,,,,726,37,-69,1,0,0,response3disk,,4,2,6,1,0,0,rectangle,-59,30,1,0,0,-1,4,1,0,0,1,108,268,33,1,,response7disk_3,TRUE,1,1,"[213,223,272,71,314,165,69,8,138,82,72,73,201,83,231,214,265,191,253,269]",1.601,rectangle
,,,,,,,,,,,,,FF,,,,,,,,0.517,,,,,,,,,,,,,,,,,,,,,,60fe06da23cd2d64aaaa9260,61036e8e2cbe58fb177bb537,2021-07-29_20h15.13.059,Simcolourproject_2stim_asymm_v5,2020.2.10,MacIntel,60,61025ae37ef11b136ea224fe,,,,,,,,,252,40,49,1,0,0,response1disk,,7,-1,14,1,0,0,rectangle,-1,14,1,0,0,-1,14,1,0,0,1,109,269,41,1,,,,,,,,
,,,,,,,,,,,,,FF,,,,,,,,0.905,,,,,,,,,,,,,,,,,,,,,,60fe06da23cd2d64aaaa9260,61036e8e2cbe58fb177bb537,2021-07-29_20h15.13.059,Simcolourproject_2stim_asymm_v5,2020.2.10,MacIntel,60,61025ae37ef11b136ea224fe,,,,,,,,,925,18,62,1,0,0,response1disk,,7,-10,-7,1,0,0,rectangle,-10,-7,1,0,0,-10,-7,1,0,0,1,110,270,27,1,,,,,,,,
,,,,,,,,,,,,,FF,,,,,,,,1.1,,,,,,,,,,,,,,,,,,,,,,60fe06da23cd2d64aaaa9260,61036e8e2cbe58fb177bb537,2021-07-29_20h15.13.059,Simcolourproject_2stim_asymm_v5,2020.2.10,MacIntel,60,61025ae37ef11b136ea224fe,,,,,,,,,382,17,-74,1,0,0,response3disk,,4,-4,12,1,0,0,rectangle,35,64,1,0,0,12,-5,1,0,0,1,111,271,142,1,,response1disk_3,TRUE,7,7,"[213,223,272,71,314,165,69,8,138,82,72,73,201,83,231,214,265,191,253,269]",1.717,rectangle
,,,,,,,,,,,,,FF,,,,,,,,1.083,,,,,,,,,,,,,,,,,,,,,,60fe06da23cd2d64aaaa9260,61036e8e2cbe58fb177bb537,2021-07-29_20h15.13.059,Simcolourproject_2stim_asymm_v5,2020.2.10,MacIntel,60,61025ae37ef11b136ea224fe,,,,,,,,,3813,-28,-54,1,0,0,response5disk,,3,0,-2,1,0,0,rectangle,0,-2,1,0,0,0,-2,1,0,0,1,112,272,112,1,,,,,,,,
,,,,,,,,,,,,,FF,,,,,,,,0.85,,,,,,,,,,,,,,,,,,,,,,60fe06da23cd2d64aaaa9260,61036e8e2cbe58fb177bb537,2021-07-29_20h15.13.059,Simcolourproject_2stim_asymm_v5,2020.2.10,MacIntel,60,61025ae37ef11b136ea224fe,,,,,,,,,3773,50,-27,1,0,0,response3disk,,5,28,5,1,0,0,rectangle,28,5,1,0,0,28,5,1,0,0,1,113,273,29,1,,,,,,,,
,,,,,,,,,,,,,FF,,,,,,,,0.85,,,,,,,,,,,,,,,,,,,,,,60fe06da23cd2d64aaaa9260,61036e8e2cbe58fb177bb537,2021-07-29_20h15.13.059,Simcolourproject_2stim_asymm_v5,2020.2.10,MacIntel,60,61025ae37ef11b136ea224fe,,,,,,,,,894,51,37,1,0,0,response1disk,,6,12,10,1,0,0,rectangle,12,10,1,0,0,12,10,1,0,0,1,114,274,78,1,,,,,,,,
,,,,,,,,,,,,,FF,,,,,,,,1.534,,,,,,,,,,,,,,,,,,,,,,60fe06da23cd2d64aaaa9260,61036e8e2cbe58fb177bb537,2021-07-29_20h15.13.059,Simcolourproject_2stim_asymm_v5,2020.2.10,MacIntel,60,61025ae37ef11b136ea224fe,,,,,,,,,1577,36,61,1,0,0,response1disk,,7,5,11,1,0,0,rectangle,5,11,1,0,0,5,11,1,0,0,1,115,275,94,1,,,,,,,,
,,,,,,,,,,,,,FF,,,,,,,,0.766,,,,,,,,,,,,,,,,,,,,,,60fe06da23cd2d64aaaa9260,61036e8e2cbe58fb177bb537,2021-07-29_20h15.13.059,Simcolourproject_2stim_asymm_v5,2020.2.10,MacIntel,60,61025ae37ef11b136ea224fe,,,,,,,,,4206,-38,-19,1,0,0,response5disk,,2,-18,-4,1,0,0,rectangle,-18,-4,1,0,0,-18,-4,1,0,0,1,116,276,61,1,,,,,,,,
,,,,,,,,,,,,,FF,,,,,,,,0.584,,,,,,,,,,,,,,,,,,,,,,60fe06da23cd2d64aaaa9260,61036e8e2cbe58fb177bb537,2021-07-29_20h15.13.059,Simcolourproject_2stim_asymm_v5,2020.2.10,MacIntel,60,61025ae37ef11b136ea224fe,,,,,,,,,4010,34,58,1,0,0,response1disk,,7,14,15,1,0,0,rectangle,14,15,1,0,0,14,15,1,0,0,1,117,277,62,1,,,,,,,,
,,,,,,,,,,,,,FF,,,,,,,,0.9,,,,,,,,,,,,,,,,,,,,,,60fe06da23cd2d64aaaa9260,61036e8e2cbe58fb177bb537,2021-07-29_20h15.13.059,Simcolourproject_2stim_asymm_v5,2020.2.10,MacIntel,60,61025ae37ef11b136ea224fe,,,,,,,,,1753,-29,-67,1,0,0,response5disk,,3,-2,-3,1,0,0,rectangle,-2,-3,1,0,0,-2,-3,1,0,0,1,118,278,71,1,,,,,,,,
,,,,,,,,,,,,,FF,,,,,,,,1,,,,,,,,,,,,,,,,,,,,,,60fe06da23cd2d64aaaa9260,61036e8e2cbe58fb177bb537,2021-07-29_20h15.13.059,Simcolourproject_2stim_asymm_v5,2020.2.10,MacIntel,60,61025ae37ef11b136ea224fe,,,,,,,,,3915,-26,-41,1,0,0,response5disk,,3,-1,-2,1,0,0,rectangle,-1,-2,1,0,0,-1,-2,1,0,0,1,119,279,139,1,,,,,,,,
,,,,,,,,,,,,,FF,,,,,,,,0.667,,,,,,,,,,,,,,,,,,,,,,60fe06da23cd2d64aaaa9260,61036e8e2cbe58fb177bb537,2021-07-29_20h15.13.059,Simcolourproject_2stim_asymm_v5,2020.2.10,MacIntel,60,61025ae37ef11b136ea224fe,,,,,,,,,737,17,51,1,0,0,response1disk,,7,1,5,1,0,0,rectangle,1,5,1,0,0,1,5,1,0,0,1,120,280,17,1,,,,,,,,
,,,,,,,,,,,,,FF,,,,,,,,0.85,,,,,,,,,,,,,,,,,,,,,,60fe06da23cd2d64aaaa9260,61036e8e2cbe58fb177bb537,2021-07-29_20h15.13.059,Simcolourproject_2stim_asymm_v5,2020.2.10,MacIntel,60,61025ae37ef11b136ea224fe,,,,,,,,,2005,40,59,1,0,0,response1disk,,7,3,12,1,0,0,rectangle,3,12,1,0,0,3,12,1,0,0,1,121,281,151,1,,,,,,,,
,,,,,,,,,,,,,FF,,,,,,,,0.683,,,,,,,,,,,,,,,,,,,,,,60fe06da23cd2d64aaaa9260,61036e8e2cbe58fb177bb537,2021-07-29_20h15.13.059,Simcolourproject_2stim_asymm_v5,2020.2.10,MacIntel,60,61025ae37ef11b136ea224fe,,,,,,,,,980,47,-23,1,0,0,response3disk,,5,12,5,1,0,0,rectangle,12,5,1,0,0,12,5,1,0,0,1,122,282,137,1,,,,,,,,
,,,,,,,,,,,,,FF,,,,,,,,0.918,,,,,,,,,,,,,,,,,,,,,,60fe06da23cd2d64aaaa9260,61036e8e2cbe58fb177bb537,2021-07-29_20h15.13.059,Simcolourproject_2stim_asymm_v5,2020.2.10,MacIntel,60,61025ae37ef11b136ea224fe,,,,,,,,,4248,33,56,1,0,0,response1disk,,7,4,5,1,0,0,rectangle,4,5,1,0,0,4,5,1,0,0,1,123,283,119,1,,,,,,,,
,,,,,,,,,,,,,FF,,,,,,,,0.9,,,,,,,,,,,,,,,,,,,,,,60fe06da23cd2d64aaaa9260,61036e8e2cbe58fb177bb537,2021-07-29_20h15.13.059,Simcolourproject_2stim_asymm_v5,2020.2.10,MacIntel,60,61025ae37ef11b136ea224fe,,,,,,,,,1367,53,28,1,0,0,response1disk,,6,12,5,1,0,0,rectangle,12,5,1,0,0,12,5,1,0,0,1,124,284,44,1,,,,,,,,
,,,,,,,,,,,,,FF,,,,,,,,0.483,,,,,,,,,,,,,,,,,,,,,,60fe06da23cd2d64aaaa9260,61036e8e2cbe58fb177bb537,2021-07-29_20h15.13.059,Simcolourproject_2stim_asymm_v5,2020.2.10,MacIntel,60,61025ae37ef11b136ea224fe,,,,,,,,,1640,34,61,1,0,0,response1disk,,7,11,13,1,0,0,rectangle,11,13,1,0,0,11,13,1,0,0,1,125,285,109,1,,,,,,,,
,,,,,,,,,,,,,FF,,,,,,,,0.433,,,,,,,,,,,,,,,,,,,,,,60fe06da23cd2d64aaaa9260,61036e8e2cbe58fb177bb537,2021-07-29_20h15.13.059,Simcolourproject_2stim_asymm_v5,2020.2.10,MacIntel,60,61025ae37ef11b136ea224fe,,,,,,,,,1559,48,37,1,0,0,response1disk,,6,15,6,1,0,0,rectangle,15,6,1,0,0,15,6,1,0,0,1,126,286,45,1,,,,,,,,
,,,,,,,,,,,,,FF,,,,,,,,1.084,,,,,,,,,,,,,,,,,,,,,,60fe06da23cd2d64aaaa9260,61036e8e2cbe58fb177bb537,2021-07-29_20h15.13.059,Simcolourproject_2stim_asymm_v5,2020.2.10,MacIntel,60,61025ae37ef11b136ea224fe,,,,,,,,,4008,36,47,1,0,0,response1disk,,7,20,12,1,0,0,rectangle,20,12,1,0,0,20,12,1,0,0,1,127,287,129,1,,,,,,,,
,,,,,,,,,,,,,FF,,,,,,,,0.399,,,,,,,,,,,,,,,,,,,,,,60fe06da23cd2d64aaaa9260,61036e8e2cbe58fb177bb537,2021-07-29_20h15.13.059,Simcolourproject_2stim_asymm_v5,2020.2.10,MacIntel,60,61025ae37ef11b136ea224fe,,,,,,,,,2862,55,20,1,0,0,response1disk,,6,23,0,1,0,0,rectangle,23,0,1,0,0,23,0,1,0,0,1,128,288,13,1,,,,,,,,
,,,,,,,,,,,,,FF,,,,,,,,0.419,,,,,,,,,,,,,,,,,,,,,,60fe06da23cd2d64aaaa9260,61036e8e2cbe58fb177bb537,2021-07-29_20h15.13.059,Simcolourproject_2stim_asymm_v5,2020.2.10,MacIntel,60,61025ae37ef11b136ea224fe,,,,,,,,,2129,44,58,1,0,0,response1disk,,7,20,6,1,0,0,rectangle,20,6,1,0,0,20,6,1,0,0,1,129,289,12,1,,,,,,,,
,,,,,,,,,,,,,FF,,,,,,,,0.517,,,,,,,,,,,,,,,,,,,,,,60fe06da23cd2d64aaaa9260,61036e8e2cbe58fb177bb537,2021-07-29_20h15.13.059,Simcolourproject_2stim_asymm_v5,2020.2.10,MacIntel,60,61025ae37ef11b136ea224fe,,,,,,,,,1660,47,50,1,0,0,response1disk,,7,14,6,1,0,0,rectangle,14,6,1,0,0,14,6,1,0,0,1,130,290,56,1,,,,,,,,
,,,,,,,,,,,,,FF,,,,,,,,0.568,,,,,,,,,,,,,,,,,,,,,,60fe06da23cd2d64aaaa9260,61036e8e2cbe58fb177bb537,2021-07-29_20h15.13.059,Simcolourproject_2stim_asymm_v5,2020.2.10,MacIntel,60,61025ae37ef11b136ea224fe,,,,,,,,,1485,51,55,1,0,0,response1disk,,7,12,0,1,0,0,rectangle,12,0,1,0,0,12,0,1,0,0,1,131,291,0,1,,,,,,,,
,,,,,,,,,,,,,FF,,,,,,,,0.45,,,,,,,,,,,,,,,,,,,,,,60fe06da23cd2d64aaaa9260,61036e8e2cbe58fb177bb537,2021-07-29_20h15.13.059,Simcolourproject_2stim_asymm_v5,2020.2.10,MacIntel,60,61025ae37ef11b136ea224fe,,,,,,,,,4323,45,59,1,0,0,response1disk,,7,16,-4,1,0,0,rectangle,16,-4,1,0,0,16,-4,1,0,0,1,132,292,121,1,,,,,,,,
,,,,,,,,,,,,,FF,,,,,,,,0.484,,,,,,,,,,,,,,,,,,,,,,60fe06da23cd2d64aaaa9260,61036e8e2cbe58fb177bb537,2021-07-29_20h15.13.059,Simcolourproject_2stim_asymm_v5,2020.2.10,MacIntel,60,61025ae37ef11b136ea224fe,,,,,,,,,406,44,43,1,0,0,response1disk,,6,19,6,1,0,0,rectangle,19,6,1,0,0,19,6,1,0,0,1,133,293,83,1,,,,,,,,
,,,,,,,,,,,,,FF,,,,,,,,0.45,,,,,,,,,,,,,,,,,,,,,,60fe06da23cd2d64aaaa9260,61036e8e2cbe58fb177bb537,2021-07-29_20h15.13.059,Simcolourproject_2stim_asymm_v5,2020.2.10,MacIntel,60,61025ae37ef11b136ea224fe,,,,,,,,,1041,46,56,1,0,0,response1disk,,7,18,4,1,0,0,rectangle,18,4,1,0,0,18,4,1,0,0,1,134,294,5,1,,,,,,,,
,,,,,,,,,,,,,FF,,,,,,,,0.517,,,,,,,,,,,,,,,,,,,,,,60fe06da23cd2d64aaaa9260,61036e8e2cbe58fb177bb537,2021-07-29_20h15.13.059,Simcolourproject_2stim_asymm_v5,2020.2.10,MacIntel,60,61025ae37ef11b136ea224fe,,,,,,,,,647,47,79,1,0,0,response1disk,,7,21,9,1,0,0,rectangle,21,9,1,0,0,21,9,1,0,0,1,135,295,11,1,,,,,,,,
,,,,,,,,,,,,,FF,,,,,,,,0.416,,,,,,,,,,,,,,,,,,,,,,60fe06da23cd2d64aaaa9260,61036e8e2cbe58fb177bb537,2021-07-29_20h15.13.059,Simcolourproject_2stim_asymm_v5,2020.2.10,MacIntel,60,61025ae37ef11b136ea224fe,,,,,,,,,1100,44,71,1,0,0,response1disk,,7,14,7,1,0,0,rectangle,14,7,1,0,0,14,7,1,0,0,1,136,296,126,1,,,,,,,,
,,,,,,,,,,,,,FF,,,,,,,,1.45,,,,,,,,,,,,,,,,,,,,,,60fe06da23cd2d64aaaa9260,61036e8e2cbe58fb177bb537,2021-07-29_20h15.13.059,Simcolourproject_2stim_asymm_v5,2020.2.10,MacIntel,60,61025ae37ef11b136ea224fe,,,,,,,,,3138,31,-68,1,0,0,response3disk,,4,12,-4,1,0,0,rectangle,12,-4,1,0,0,12,-4,1,0,0,1,137,297,154,1,,,,,,,,
,,,,,,,,,,,,,FF,,,,,,,,0.584,,,,,,,,,,,,,,,,,,,,,,60fe06da23cd2d64aaaa9260,61036e8e2cbe58fb177bb537,2021-07-29_20h15.13.059,Simcolourproject_2stim_asymm_v5,2020.2.10,MacIntel,60,61025ae37ef11b136ea224fe,,,,,,,,,1656,39,80,1,0,0,response1disk,,7,5,-5,1,0,0,rectangle,5,-5,1,0,0,5,-5,1,0,0,1,138,298,88,1,,,,,,,,
,,,,,,,,,,,,,FF,,,,,,,,0.867,,,,,,,,,,,,,,,,,,,,,,60fe06da23cd2d64aaaa9260,61036e8e2cbe58fb177bb537,2021-07-29_20h15.13.059,Simcolourproject_2stim_asymm_v5,2020.2.10,MacIntel,60,61025ae37ef11b136ea224fe,,,,,,,,,1272,37,53,1,0,0,response1disk,,7,9,-1,1,0,0,rectangle,9,-1,1,0,0,9,-1,1,0,0,1,139,299,38,1,,,,,,,,
,,,,,,,,,,,,,FF,,,,,,,,0.55,,,,,,,,,,,,,,,,,,,,,,60fe06da23cd2d64aaaa9260,61036e8e2cbe58fb177bb537,2021-07-29_20h15.13.059,Simcolourproject_2stim_asymm_v5,2020.2.10,MacIntel,60,61025ae37ef11b136ea224fe,,,,,,,,,927,26,55,1,0,0,response1disk,,7,6,12,1,0,0,rectangle,6,12,1,0,0,6,12,1,0,0,1,140,300,6,1,,,,,,,,
,,,,,,,,,,,,,FF,,,,,,,,2.385,,,,,,,,,,,,,,,,,,,,,,60fe06da23cd2d64aaaa9260,61036e8e2cbe58fb177bb537,2021-07-29_20h15.13.059,Simcolourproject_2stim_asymm_v5,2020.2.10,MacIntel,60,61025ae37ef11b136ea224fe,,,,,,,,,466,-34,-57,1,0,0,response5disk,,3,-27,-1,1,0,0,rectangle,-27,-1,1,0,0,-27,-1,1,0,0,1,141,301,127,1,,,,,,,,
