key_resp.keys,key_resp.rt,key_resp_14.keys,key_resp_14.rt,key_resp_15.keys,key_resp_15.rt,key_resp_17.keys,key_resp_17.rt,key_resp_9.keys,key_resp_9.rt,key_resp_10.keys,key_resp_10.rt,practice_comparison,Ecc,mouse_5.x,mouse_5.y,mouse_5.leftButton,mouse_5.midButton,mouse_5.rightButton,mouse_5.clicked_name,pracsimilarity,response_time,mouse_10.x,mouse_10.y,mouse_10.leftButton,mouse_10.midButton,mouse_10.rightButton,mouse_10.clicked_name,mouse_7.x,mouse_7.y,mouse_7.leftButton,mouse_7.midButton,mouse_7.rightButton,mouse_6.x,mouse_6.y,mouse_6.leftButton,mouse_6.midButton,mouse_6.rightButton,duringprac.thisRepN,duringprac.thisTrialN,duringprac.thisN,duringprac.thisIndex,duringprac.ran,participant,session,date,expName,psychopyVersion,OS,frameRate,study_id,mouse_7.clicked_name,catchpracsimilarity,catch_response_time,catchnumberprac,catchtrialorderprac,mouse_6.clicked_name,key_resp_22.keys,key_resp_22.rt,realcomparison,mouse.x,mouse.y,mouse.leftButton,mouse.midButton,mouse.rightButton,mouse.clicked_name,Colour2,similarity,mouse_2.x,mouse_2.y,mouse_2.leftButton,mouse_2.midButton,mouse_2.rightButton,mouse_2.clicked_name,mouse_3.x,mouse_3.y,mouse_3.leftButton,mouse_3.midButton,mouse_3.rightButton,mouse_11.x,mouse_11.y,mouse_11.leftButton,mouse_11.midButton,mouse_11.rightButton,trials_2.thisRepN,trials_2.thisTrialN,trials_2.thisN,trials_2.thisIndex,trials_2.ran,Colour1,mouse_3.clicked_name,catchornah,catchsimilarity,catchnumber,catchtrialorder,catchRT,mouse_11.clicked_name
space,4.2671,space,13.8981,space,13.6808,space,6.8474,space,0.6175,space,3.298,67,PF,-81,51,1,0,0,response7disk_5,1,4.3834,-13,-15,1,0,0,rectangle_8,-13,-15,1,0,0,-13,-15,1,0,0,0,0,0,4,1,60feea86c2cd1da8825671bc,61036ed836f49f6fa45685a1,2021-07-29_23h16.57.145,Simcolourproject_2stim_asymm_v5,2020.2.10,Win32,60,61025ae37ef11b136ea224fe,,,,,,,,,,,,,,,,,,,,,,,,,,,,,,,,,,,,,,,,,,,,,,
,,,,,,,,,,,,158,FF,40,-116,1,0,0,response3disk_5,4,2.5187,1,3,1,0,0,rectangle_8,-58,-89,1,0,0,3,-12,1,0,0,0,1,1,5,1,60feea86c2cd1da8825671bc,61036ed836f49f6fa45685a1,2021-07-29_23h16.57.145,Simcolourproject_2stim_asymm_v5,2020.2.10,Win32,60,61025ae37ef11b136ea224fe,response5disk_7,3,2.7149,3,"[2,5]",rectangle_4,,,,,,,,,,,,,,,,,,,,,,,,,,,,,,,,,,,,,,,,
,,,,,,,,,,,,38,FF,88,37,1,0,0,response1disk_5,6,1.5644,-5,-6,1,0,0,rectangle_8,-5,-6,1,0,0,-5,-6,1,0,0,0,2,2,3,1,60feea86c2cd1da8825671bc,61036ed836f49f6fa45685a1,2021-07-29_23h16.57.145,Simcolourproject_2stim_asymm_v5,2020.2.10,Win32,60,61025ae37ef11b136ea224fe,,,,,,,,,,,,,,,,,,,,,,,,,,,,,,,,,,,,,,,,,,,,,,
,,,,,,,,,,,,143,PF,-79,48,1,0,0,response7disk_5,1,1.482,-21,2,1,0,0,rectangle_8,-21,2,1,0,0,-21,2,1,0,0,0,3,3,2,1,60feea86c2cd1da8825671bc,61036ed836f49f6fa45685a1,2021-07-29_23h16.57.145,Simcolourproject_2stim_asymm_v5,2020.2.10,Win32,60,61025ae37ef11b136ea224fe,,,,,,,,,,,,,,,,,,,,,,,,,,,,,,,,,,,,,,,,,,,,,,
,,,,,,,,,,,,94,PF,-31,-55,1,0,0,response5disk_5,3,1.1652,-11,-8,1,0,0,rectangle_8,-36,-77,1,0,0,-5,-9,1,0,0,0,4,4,1,1,60feea86c2cd1da8825671bc,61036ed836f49f6fa45685a1,2021-07-29_23h16.57.145,Simcolourproject_2stim_asymm_v5,2020.2.10,Win32,60,61025ae37ef11b136ea224fe,response5disk_7,3,1.8312,3,"[2,5]",rectangle_4,,,,,,,,,,,,,,,,,,,,,,,,,,,,,,,,,,,,,,,,
,,,,,,,,,,,,133,PF,96,-56,1,0,0,response3disk_5,5,1.0988,7,1,1,0,0,rectangle_8,7,1,1,0,0,7,1,1,0,0,0,5,5,6,1,60feea86c2cd1da8825671bc,61036ed836f49f6fa45685a1,2021-07-29_23h16.57.145,Simcolourproject_2stim_asymm_v5,2020.2.10,Win32,60,61025ae37ef11b136ea224fe,,,,,,,,,,,,,,,,,,,,,,,,,,,,,,,,,,,,,,,,,,,,,,
,,,,,,,,,,,,27,FF,-69,-95,1,0,0,response5disk_5,3,1.2658,-29,-8,1,0,0,rectangle_8,-29,-8,1,0,0,-29,-8,1,0,0,0,6,6,0,1,60feea86c2cd1da8825671bc,61036ed836f49f6fa45685a1,2021-07-29_23h16.57.145,Simcolourproject_2stim_asymm_v5,2020.2.10,Win32,60,61025ae37ef11b136ea224fe,,,,,,,,,,,,,,,,,,,,,,,,,,,,,,,,,,,,,,,,,,,,,,
,,,,,,,,,,,,,FF,,,,,,,,1.4657,,,,,,,,,,,,,,,,,,,,,,60feea86c2cd1da8825671bc,61036ed836f49f6fa45685a1,2021-07-29_23h16.57.145,Simcolourproject_2stim_asymm_v5,2020.2.10,Win32,60,61025ae37ef11b136ea224fe,,,,,,,space,2.9247,3912,-46,-93,1,0,0,response5disk,,3,-4,2,1,0,0,rectangle,-4,2,1,0,0,-4,2,1,0,0,0,0,0,125,1,,,,,,,,
,,,,,,,,,,,,,FF,,,,,,,,1.3202,,,,,,,,,,,,,,,,,,,,,,60feea86c2cd1da8825671bc,61036ed836f49f6fa45685a1,2021-07-29_23h16.57.145,Simcolourproject_2stim_asymm_v5,2020.2.10,Win32,60,61025ae37ef11b136ea224fe,,,,,,,,,161,96,-30,1,0,0,response3disk,,5,23,3,1,0,0,rectangle,23,3,1,0,0,23,3,1,0,0,0,1,1,38,1,,,,,,,,
,,,,,,,,,,,,,FF,,,,,,,,1.7812,,,,,,,,,,,,,,,,,,,,,,60feea86c2cd1da8825671bc,61036ed836f49f6fa45685a1,2021-07-29_23h16.57.145,Simcolourproject_2stim_asymm_v5,2020.2.10,Win32,60,61025ae37ef11b136ea224fe,,,,,,,,,2045,-51,-107,1,0,0,response5disk,,3,-14,-3,1,0,0,rectangle,-14,-3,1,0,0,-14,-3,1,0,0,0,2,2,141,1,,,,,,,,
,,,,,,,,,,,,,FF,,,,,,,,4.6948,,,,,,,,,,,,,,,,,,,,,,60feea86c2cd1da8825671bc,61036ed836f49f6fa45685a1,2021-07-29_23h16.57.145,Simcolourproject_2stim_asymm_v5,2020.2.10,Win32,60,61025ae37ef11b136ea224fe,,,,,,,,,3321,84,-64,1,0,0,response3disk,,5,14,-5,1,0,0,rectangle,14,-5,1,0,0,14,-5,1,0,0,0,3,3,79,1,,,,,,,,
,,,,,,,,,,,,,FF,,,,,,,,1.5784,,,,,,,,,,,,,,,,,,,,,,60feea86c2cd1da8825671bc,61036ed836f49f6fa45685a1,2021-07-29_23h16.57.145,Simcolourproject_2stim_asymm_v5,2020.2.10,Win32,60,61025ae37ef11b136ea224fe,,,,,,,,,3248,37,-94,1,0,0,response3disk,,4,8,-15,1,0,0,rectangle,8,-15,1,0,0,8,-15,1,0,0,0,4,4,99,1,,,,,,,,
,,,,,,,,,,,,,FF,,,,,,,,2.3102,,,,,,,,,,,,,,,,,,,,,,60feea86c2cd1da8825671bc,61036ed836f49f6fa45685a1,2021-07-29_23h16.57.145,Simcolourproject_2stim_asymm_v5,2020.2.10,Win32,60,61025ae37ef11b136ea224fe,,,,,,,,,3686,-42,-106,1,0,0,response5disk,,3,6,14,1,0,0,rectangle,6,14,1,0,0,6,14,1,0,0,0,5,5,27,1,,,,,,,,
,,,,,,,,,,,,,FF,,,,,,,,2.5974,,,,,,,,,,,,,,,,,,,,,,60feea86c2cd1da8825671bc,61036ed836f49f6fa45685a1,2021-07-29_23h16.57.145,Simcolourproject_2stim_asymm_v5,2020.2.10,Win32,60,61025ae37ef11b136ea224fe,,,,,,,,,3761,42,-98,1,0,0,response3disk,,4,-20,-2,1,0,0,rectangle,-20,-2,1,0,0,-20,-2,1,0,0,0,6,6,146,1,,,,,,,,
,,,,,,,,,,,,,FF,,,,,,,,0.9039,,,,,,,,,,,,,,,,,,,,,,60feea86c2cd1da8825671bc,61036ed836f49f6fa45685a1,2021-07-29_23h16.57.145,Simcolourproject_2stim_asymm_v5,2020.2.10,Win32,60,61025ae37ef11b136ea224fe,,,,,,,,,1141,-67,-30,1,0,0,response5disk,,2,-20,-8,1,0,0,rectangle,-20,-8,1,0,0,-20,-8,1,0,0,0,7,7,51,1,,,,,,,,
,,,,,,,,,,,,,FF,,,,,,,,1.266,,,,,,,,,,,,,,,,,,,,,,60feea86c2cd1da8825671bc,61036ed836f49f6fa45685a1,2021-07-29_23h16.57.145,Simcolourproject_2stim_asymm_v5,2020.2.10,Win32,60,61025ae37ef11b136ea224fe,,,,,,,,,3806,49,73,1,0,0,response1disk,,7,4,9,1,0,0,rectangle,4,9,1,0,0,4,9,1,0,0,0,8,8,130,1,,,,,,,,
,,,,,,,,,,,,,FF,,,,,,,,1.5315,,,,,,,,,,,,,,,,,,,,,,60feea86c2cd1da8825671bc,61036ed836f49f6fa45685a1,2021-07-29_23h16.57.145,Simcolourproject_2stim_asymm_v5,2020.2.10,Win32,60,61025ae37ef11b136ea224fe,,,,,,,,,4248,77,43,1,0,0,response1disk,,6,13,-6,1,0,0,rectangle,13,-6,1,0,0,13,-6,1,0,0,0,9,9,89,1,,,,,,,,
,,,,,,,,,,,,,FF,,,,,,,,1.1829,,,,,,,,,,,,,,,,,,,,,,60feea86c2cd1da8825671bc,61036ed836f49f6fa45685a1,2021-07-29_23h16.57.145,Simcolourproject_2stim_asymm_v5,2020.2.10,Win32,60,61025ae37ef11b136ea224fe,,,,,,,,,2589,22,-74,1,0,0,response3disk,,4,-1,-7,1,0,0,rectangle,-1,-7,1,0,0,-1,-7,1,0,0,0,10,10,33,1,,,,,,,,
,,,,,,,,,,,,,FF,,,,,,,,0.9665,,,,,,,,,,,,,,,,,,,,,,60feea86c2cd1da8825671bc,61036ed836f49f6fa45685a1,2021-07-29_23h16.57.145,Simcolourproject_2stim_asymm_v5,2020.2.10,Win32,60,61025ae37ef11b136ea224fe,,,,,,,,,3168,69,-38,1,0,0,response3disk,,5,39,7,1,0,0,rectangle,39,7,1,0,0,39,7,1,0,0,0,11,11,49,1,,,,,,,,
,,,,,,,,,,,,,FF,,,,,,,,1.4367,,,,,,,,,,,,,,,,,,,,,,60feea86c2cd1da8825671bc,61036ed836f49f6fa45685a1,2021-07-29_23h16.57.145,Simcolourproject_2stim_asymm_v5,2020.2.10,Win32,60,61025ae37ef11b136ea224fe,,,,,,,,,1823,-65,52,1,0,0,response7disk,,1,-19,-7,1,0,0,rectangle,-19,-7,1,0,0,-19,-7,1,0,0,0,12,12,75,1,,,,,,,,
,,,,,,,,,,,,,FF,,,,,,,,0.7338,,,,,,,,,,,,,,,,,,,,,,60feea86c2cd1da8825671bc,61036ed836f49f6fa45685a1,2021-07-29_23h16.57.145,Simcolourproject_2stim_asymm_v5,2020.2.10,Win32,60,61025ae37ef11b136ea224fe,,,,,,,,,1447,-62,25,1,0,0,response7disk,,1,-10,-3,1,0,0,rectangle,-10,-3,1,0,0,-10,-3,1,0,0,0,13,13,2,1,,,,,,,,
,,,,,,,,,,,,,FF,,,,,,,,0.9832,,,,,,,,,,,,,,,,,,,,,,60feea86c2cd1da8825671bc,61036ed836f49f6fa45685a1,2021-07-29_23h16.57.145,Simcolourproject_2stim_asymm_v5,2020.2.10,Win32,60,61025ae37ef11b136ea224fe,,,,,,,,,1316,-91,-41,1,0,0,response5disk,,2,-32,14,1,0,0,rectangle,-32,14,1,0,0,-32,14,1,0,0,0,14,14,116,1,,,,,,,,
,,,,,,,,,,,,,FF,,,,,,,,2.152,,,,,,,,,,,,,,,,,,,,,,60feea86c2cd1da8825671bc,61036ed836f49f6fa45685a1,2021-07-29_23h16.57.145,Simcolourproject_2stim_asymm_v5,2020.2.10,Win32,60,61025ae37ef11b136ea224fe,,,,,,,,,4136,101,35,1,0,0,response1disk,,6,17,4,1,0,0,rectangle,17,4,1,0,0,17,4,1,0,0,0,15,15,60,1,,,,,,,,
,,,,,,,,,,,,,FF,,,,,,,,1.103,,,,,,,,,,,,,,,,,,,,,,60feea86c2cd1da8825671bc,61036ed836f49f6fa45685a1,2021-07-29_23h16.57.145,Simcolourproject_2stim_asymm_v5,2020.2.10,Win32,60,61025ae37ef11b136ea224fe,,,,,,,,,1375,-43,-71,1,0,0,response5disk,,3,-14,-7,1,0,0,rectangle,-14,-7,1,0,0,-14,-7,1,0,0,0,16,16,92,1,,,,,,,,
,,,,,,,,,,,,,FF,,,,,,,,1.1776,,,,,,,,,,,,,,,,,,,,,,60feea86c2cd1da8825671bc,61036ed836f49f6fa45685a1,2021-07-29_23h16.57.145,Simcolourproject_2stim_asymm_v5,2020.2.10,Win32,60,61025ae37ef11b136ea224fe,,,,,,,,,2061,68,31,1,0,0,response1disk,,6,27,9,1,0,0,rectangle,27,9,1,0,0,27,9,1,0,0,0,17,17,110,1,,,,,,,,
,,,,,,,,,,,,,FF,,,,,,,,1.4816,,,,,,,,,,,,,,,,,,,,,,60feea86c2cd1da8825671bc,61036ed836f49f6fa45685a1,2021-07-29_23h16.57.145,Simcolourproject_2stim_asymm_v5,2020.2.10,Win32,60,61025ae37ef11b136ea224fe,,,,,,,,,1448,-116,-46,1,0,0,response5disk,,2,-39,3,1,0,0,rectangle,-39,3,1,0,0,-39,3,1,0,0,0,18,18,45,1,,,,,,,,
,,,,,,,,,,,,,FF,,,,,,,,0.9122,,,,,,,,,,,,,,,,,,,,,,60feea86c2cd1da8825671bc,61036ed836f49f6fa45685a1,2021-07-29_23h16.57.145,Simcolourproject_2stim_asymm_v5,2020.2.10,Win32,60,61025ae37ef11b136ea224fe,,,,,,,,,246,28,-67,1,0,0,response3disk,,4,10,-10,1,0,0,rectangle,10,-10,1,0,0,10,-10,1,0,0,0,19,19,16,1,,,,,,,,
,,,,,,,,,,,,,FF,,,,,,,,0.9499,,,,,,,,,,,,,,,,,,,,,,60feea86c2cd1da8825671bc,61036ed836f49f6fa45685a1,2021-07-29_23h16.57.145,Simcolourproject_2stim_asymm_v5,2020.2.10,Win32,60,61025ae37ef11b136ea224fe,,,,,,,,,590,63,-37,1,0,0,response3disk,,5,23,-9,1,0,0,rectangle,23,-9,1,0,0,23,-9,1,0,0,0,20,20,46,1,,,,,,,,
,,,,,,,,,,,,,FF,,,,,,,,0.9339,,,,,,,,,,,,,,,,,,,,,,60feea86c2cd1da8825671bc,61036ed836f49f6fa45685a1,2021-07-29_23h16.57.145,Simcolourproject_2stim_asymm_v5,2020.2.10,Win32,60,61025ae37ef11b136ea224fe,,,,,,,,,286,-42,-79,1,0,0,response5disk,,3,-12,-10,1,0,0,rectangle,-12,-10,1,0,0,-12,-10,1,0,0,0,21,21,147,1,,,,,,,,
,,,,,,,,,,,,,FF,,,,,,,,1.0333,,,,,,,,,,,,,,,,,,,,,,60feea86c2cd1da8825671bc,61036ed836f49f6fa45685a1,2021-07-29_23h16.57.145,Simcolourproject_2stim_asymm_v5,2020.2.10,Win32,60,61025ae37ef11b136ea224fe,,,,,,,,,2348,49,30,1,0,0,response1disk,,6,4,9,1,0,0,rectangle,4,9,1,0,0,4,9,1,0,0,0,22,22,127,1,,,,,,,,
,,,,,,,,,,,,,FF,,,,,,,,1.3857,,,,,,,,,,,,,,,,,,,,,,60feea86c2cd1da8825671bc,61036ed836f49f6fa45685a1,2021-07-29_23h16.57.145,Simcolourproject_2stim_asymm_v5,2020.2.10,Win32,60,61025ae37ef11b136ea224fe,,,,,,,,,3283,97,-43,1,0,0,response3disk,,5,19,-10,1,0,0,rectangle,19,-10,1,0,0,19,-10,1,0,0,0,23,23,104,1,,,,,,,,
,,,,,,,,,,,,,FF,,,,,,,,0.8159,,,,,,,,,,,,,,,,,,,,,,60feea86c2cd1da8825671bc,61036ed836f49f6fa45685a1,2021-07-29_23h16.57.145,Simcolourproject_2stim_asymm_v5,2020.2.10,Win32,60,61025ae37ef11b136ea224fe,,,,,,,,,1221,-55,-70,1,0,0,response5disk,,3,-25,-9,1,0,0,rectangle,-93,-65,1,0,0,-4,-9,1,0,0,0,24,24,19,1,,response5disk_3,TRUE,2,2,"[190,255,166,278,277,25,211,211,161,38,115,235,106,322,171,285,152,323,42,184]",2.1646,rectangle
,,,,,,,,,,,,,FF,,,,,,,,1.0158,,,,,,,,,,,,,,,,,,,,,,60feea86c2cd1da8825671bc,61036ed836f49f6fa45685a1,2021-07-29_23h16.57.145,Simcolourproject_2stim_asymm_v5,2020.2.10,Win32,60,61025ae37ef11b136ea224fe,,,,,,,,,959,58,90,1,0,0,response1disk,,7,11,2,1,0,0,rectangle,11,2,1,0,0,11,2,1,0,0,0,25,25,84,1,,,,,,,,
,,,,,,,,,,,,,FF,,,,,,,,1.434,,,,,,,,,,,,,,,,,,,,,,60feea86c2cd1da8825671bc,61036ed836f49f6fa45685a1,2021-07-29_23h16.57.145,Simcolourproject_2stim_asymm_v5,2020.2.10,Win32,60,61025ae37ef11b136ea224fe,,,,,,,,,1261,24,78,1,0,0,response1disk,,7,-7,-13,1,0,0,rectangle,-7,-13,1,0,0,-7,-13,1,0,0,0,26,26,136,1,,,,,,,,
,,,,,,,,,,,,,FF,,,,,,,,0.984,,,,,,,,,,,,,,,,,,,,,,60feea86c2cd1da8825671bc,61036ed836f49f6fa45685a1,2021-07-29_23h16.57.145,Simcolourproject_2stim_asymm_v5,2020.2.10,Win32,60,61025ae37ef11b136ea224fe,,,,,,,,,745,39,-80,1,0,0,response3disk,,4,16,-8,1,0,0,rectangle,16,-8,1,0,0,16,-8,1,0,0,0,27,27,124,1,,,,,,,,
,,,,,,,,,,,,,FF,,,,,,,,0.8159,,,,,,,,,,,,,,,,,,,,,,60feea86c2cd1da8825671bc,61036ed836f49f6fa45685a1,2021-07-29_23h16.57.145,Simcolourproject_2stim_asymm_v5,2020.2.10,Win32,60,61025ae37ef11b136ea224fe,,,,,,,,,4204,-26,-64,1,0,0,response5disk,,3,-5,-10,1,0,0,rectangle,-5,-10,1,0,0,-5,-10,1,0,0,0,28,28,41,1,,,,,,,,
,,,,,,,,,,,,,FF,,,,,,,,1.1484,,,,,,,,,,,,,,,,,,,,,,60feea86c2cd1da8825671bc,61036ed836f49f6fa45685a1,2021-07-29_23h16.57.145,Simcolourproject_2stim_asymm_v5,2020.2.10,Win32,60,61025ae37ef11b136ea224fe,,,,,,,,,297,-32,-54,1,0,0,response5disk,,3,-9,-7,1,0,0,rectangle,-9,-7,1,0,0,-9,-7,1,0,0,0,29,29,152,1,,,,,,,,
,,,,,,,,,,,,,FF,,,,,,,,0.883,,,,,,,,,,,,,,,,,,,,,,60feea86c2cd1da8825671bc,61036ed836f49f6fa45685a1,2021-07-29_23h16.57.145,Simcolourproject_2stim_asymm_v5,2020.2.10,Win32,60,61025ae37ef11b136ea224fe,,,,,,,,,3866,36,72,1,0,0,response1disk,,7,-7,0,1,0,0,rectangle,-7,0,1,0,0,-7,0,1,0,0,0,30,30,21,1,,,,,,,,
,,,,,,,,,,,,,FF,,,,,,,,0.9822,,,,,,,,,,,,,,,,,,,,,,60feea86c2cd1da8825671bc,61036ed836f49f6fa45685a1,2021-07-29_23h16.57.145,Simcolourproject_2stim_asymm_v5,2020.2.10,Win32,60,61025ae37ef11b136ea224fe,,,,,,,,,3916,-37,-77,1,0,0,response5disk,,3,-7,-11,1,0,0,rectangle,-7,-11,1,0,0,-7,-11,1,0,0,0,31,31,81,1,,,,,,,,
,,,,,,,,,,,,,FF,,,,,,,,0.7495,,,,,,,,,,,,,,,,,,,,,,60feea86c2cd1da8825671bc,61036ed836f49f6fa45685a1,2021-07-29_23h16.57.145,Simcolourproject_2stim_asymm_v5,2020.2.10,Win32,60,61025ae37ef11b136ea224fe,,,,,,,,,612,-30,-50,1,0,0,response5disk,,3,-13,-9,1,0,0,rectangle,-13,-9,1,0,0,-13,-9,1,0,0,0,32,32,15,1,,,,,,,,
,,,,,,,,,,,,,FF,,,,,,,,0.8661,,,,,,,,,,,,,,,,,,,,,,60feea86c2cd1da8825671bc,61036ed836f49f6fa45685a1,2021-07-29_23h16.57.145,Simcolourproject_2stim_asymm_v5,2020.2.10,Win32,60,61025ae37ef11b136ea224fe,,,,,,,,,3338,-45,-69,1,0,0,response5disk,,3,-13,6,1,0,0,rectangle,-13,6,1,0,0,-13,6,1,0,0,0,33,33,80,1,,,,,,,,
,,,,,,,,,,,,,FF,,,,,,,,1.7191,,,,,,,,,,,,,,,,,,,,,,60feea86c2cd1da8825671bc,61036ed836f49f6fa45685a1,2021-07-29_23h16.57.145,Simcolourproject_2stim_asymm_v5,2020.2.10,Win32,60,61025ae37ef11b136ea224fe,,,,,,,,,3984,77,34,1,0,0,response1disk,,6,-13,-17,1,0,0,rectangle,-13,-17,1,0,0,-13,-17,1,0,0,0,34,34,24,1,,,,,,,,
,,,,,,,,,,,,,FF,,,,,,,,1.0165,,,,,,,,,,,,,,,,,,,,,,60feea86c2cd1da8825671bc,61036ed836f49f6fa45685a1,2021-07-29_23h16.57.145,Simcolourproject_2stim_asymm_v5,2020.2.10,Win32,60,61025ae37ef11b136ea224fe,,,,,,,,,3313,68,45,1,0,0,response1disk,,6,13,8,1,0,0,rectangle,13,8,1,0,0,13,8,1,0,0,0,35,35,97,1,,,,,,,,
,,,,,,,,,,,,,FF,,,,,,,,1.0163,,,,,,,,,,,,,,,,,,,,,,60feea86c2cd1da8825671bc,61036ed836f49f6fa45685a1,2021-07-29_23h16.57.145,Simcolourproject_2stim_asymm_v5,2020.2.10,Win32,60,61025ae37ef11b136ea224fe,,,,,,,,,1213,-95,-46,1,0,0,response5disk,,2,-25,8,1,0,0,rectangle,-25,8,1,0,0,-25,8,1,0,0,0,36,36,18,1,,,,,,,,
,,,,,,,,,,,,,FF,,,,,,,,0.9876,,,,,,,,,,,,,,,,,,,,,,60feea86c2cd1da8825671bc,61036ed836f49f6fa45685a1,2021-07-29_23h16.57.145,Simcolourproject_2stim_asymm_v5,2020.2.10,Win32,60,61025ae37ef11b136ea224fe,,,,,,,,,2106,-78,-49,1,0,0,response5disk,,2,-11,-2,1,0,0,rectangle,38,59,1,0,0,4,2,1,0,0,0,37,37,40,1,,response1disk_3,TRUE,7,7,"[190,255,166,278,277,25,211,211,161,38,115,235,106,322,171,285,152,323,42,184]",2.064,rectangle
,,,,,,,,,,,,,FF,,,,,,,,1.1326,,,,,,,,,,,,,,,,,,,,,,60feea86c2cd1da8825671bc,61036ed836f49f6fa45685a1,2021-07-29_23h16.57.145,Simcolourproject_2stim_asymm_v5,2020.2.10,Win32,60,61025ae37ef11b136ea224fe,,,,,,,,,2675,57,-50,1,0,0,response3disk,,5,-3,1,1,0,0,rectangle,-3,1,1,0,0,-3,1,1,0,0,0,38,38,102,1,,,,,,,,
,,,,,,,,,,,,,FF,,,,,,,,1.349,,,,,,,,,,,,,,,,,,,,,,60feea86c2cd1da8825671bc,61036ed836f49f6fa45685a1,2021-07-29_23h16.57.145,Simcolourproject_2stim_asymm_v5,2020.2.10,Win32,60,61025ae37ef11b136ea224fe,,,,,,,,,3077,89,37,1,0,0,response1disk,,6,12,-9,1,0,0,rectangle,12,-9,1,0,0,12,-9,1,0,0,0,39,39,70,1,,,,,,,,
,,,,,,,,,,,,,FF,,,,,,,,1.1323,,,,,,,,,,,,,,,,,,,,,,60feea86c2cd1da8825671bc,61036ed836f49f6fa45685a1,2021-07-29_23h16.57.145,Simcolourproject_2stim_asymm_v5,2020.2.10,Win32,60,61025ae37ef11b136ea224fe,,,,,,,,,903,-36,-83,1,0,0,response5disk,,3,1,-8,1,0,0,rectangle,1,-8,1,0,0,1,-8,1,0,0,0,40,40,134,1,,,,,,,,
,,,,,,,,,,,,,FF,,,,,,,,0.7503,,,,,,,,,,,,,,,,,,,,,,60feea86c2cd1da8825671bc,61036ed836f49f6fa45685a1,2021-07-29_23h16.57.145,Simcolourproject_2stim_asymm_v5,2020.2.10,Win32,60,61025ae37ef11b136ea224fe,,,,,,,,,1537,-69,-36,1,0,0,response5disk,,2,-5,1,1,0,0,rectangle,82,50,1,0,0,21,-1,1,0,0,0,41,41,133,1,,response1disk_3,TRUE,6,6,"[190,255,166,278,277,25,211,211,161,38,115,235,106,322,171,285,152,323,42,184]",2.165,rectangle
,,,,,,,,,,,,,FF,,,,,,,,2.1151,,,,,,,,,,,,,,,,,,,,,,60feea86c2cd1da8825671bc,61036ed836f49f6fa45685a1,2021-07-29_23h16.57.145,Simcolourproject_2stim_asymm_v5,2020.2.10,Win32,60,61025ae37ef11b136ea224fe,,,,,,,,,1313,-85,-47,1,0,0,response5disk,,2,-28,-6,1,0,0,rectangle,-28,-6,1,0,0,-28,-6,1,0,0,0,42,42,7,1,,,,,,,,
,,,,,,,,,,,,,FF,,,,,,,,0.9458,,,,,,,,,,,,,,,,,,,,,,60feea86c2cd1da8825671bc,61036ed836f49f6fa45685a1,2021-07-29_23h16.57.145,Simcolourproject_2stim_asymm_v5,2020.2.10,Win32,60,61025ae37ef11b136ea224fe,,,,,,,,,313,61,-54,1,0,0,response3disk,,5,13,-11,1,0,0,rectangle,13,-11,1,0,0,13,-11,1,0,0,0,43,43,14,1,,,,,,,,
,,,,,,,,,,,,,FF,,,,,,,,0.8452,,,,,,,,,,,,,,,,,,,,,,60feea86c2cd1da8825671bc,61036ed836f49f6fa45685a1,2021-07-29_23h16.57.145,Simcolourproject_2stim_asymm_v5,2020.2.10,Win32,60,61025ae37ef11b136ea224fe,,,,,,,,,2872,42,-34,1,0,0,response3disk,,5,-12,1,1,0,0,rectangle,-12,1,1,0,0,-12,1,1,0,0,0,44,44,4,1,,,,,,,,
,,,,,,,,,,,,,FF,,,,,,,,1.7151,,,,,,,,,,,,,,,,,,,,,,60feea86c2cd1da8825671bc,61036ed836f49f6fa45685a1,2021-07-29_23h16.57.145,Simcolourproject_2stim_asymm_v5,2020.2.10,Win32,60,61025ae37ef11b136ea224fe,,,,,,,,,928,110,23,1,0,0,response1disk,,6,2,-2,1,0,0,rectangle,2,-2,1,0,0,2,-2,1,0,0,0,45,45,119,1,,,,,,,,
,,,,,,,,,,,,,FF,,,,,,,,0.737,,,,,,,,,,,,,,,,,,,,,,60feea86c2cd1da8825671bc,61036ed836f49f6fa45685a1,2021-07-29_23h16.57.145,Simcolourproject_2stim_asymm_v5,2020.2.10,Win32,60,61025ae37ef11b136ea224fe,,,,,,,,,4141,-44,-55,1,0,0,response5disk,,3,-22,-17,1,0,0,rectangle,-22,-17,1,0,0,-22,-17,1,0,0,0,46,46,91,1,,,,,,,,
,,,,,,,,,,,,,FF,,,,,,,,1.1956,,,,,,,,,,,,,,,,,,,,,,60feea86c2cd1da8825671bc,61036ed836f49f6fa45685a1,2021-07-29_23h16.57.145,Simcolourproject_2stim_asymm_v5,2020.2.10,Win32,60,61025ae37ef11b136ea224fe,,,,,,,,,414,108,23,1,0,0,response1disk,,6,24,6,1,0,0,rectangle,24,6,1,0,0,24,6,1,0,0,0,47,47,139,1,,,,,,,,
,,,,,,,,,,,,,FF,,,,,,,,1.0674,,,,,,,,,,,,,,,,,,,,,,60feea86c2cd1da8825671bc,61036ed836f49f6fa45685a1,2021-07-29_23h16.57.145,Simcolourproject_2stim_asymm_v5,2020.2.10,Win32,60,61025ae37ef11b136ea224fe,,,,,,,,,2367,36,-60,1,0,0,response3disk,,4,-4,-9,1,0,0,rectangle,-4,-9,1,0,0,-4,-9,1,0,0,0,48,48,111,1,,,,,,,,
,,,,,,,,,,,,,FF,,,,,,,,0.8504,,,,,,,,,,,,,,,,,,,,,,60feea86c2cd1da8825671bc,61036ed836f49f6fa45685a1,2021-07-29_23h16.57.145,Simcolourproject_2stim_asymm_v5,2020.2.10,Win32,60,61025ae37ef11b136ea224fe,,,,,,,,,1158,-25,-58,1,0,0,response5disk,,3,-13,8,1,0,0,rectangle,-13,8,1,0,0,-13,8,1,0,0,0,49,49,140,1,,,,,,,,
,,,,,,,,,,,,,FF,,,,,,,,0.9529,,,,,,,,,,,,,,,,,,,,,,60feea86c2cd1da8825671bc,61036ed836f49f6fa45685a1,2021-07-29_23h16.57.145,Simcolourproject_2stim_asymm_v5,2020.2.10,Win32,60,61025ae37ef11b136ea224fe,,,,,,,,,3594,-24,-36,1,0,0,response5disk,,3,0,-1,1,0,0,rectangle,0,-1,1,0,0,0,-1,1,0,0,0,50,50,50,1,,,,,,,,
,,,,,,,,,,,,,FF,,,,,,,,1.1027,,,,,,,,,,,,,,,,,,,,,,60feea86c2cd1da8825671bc,61036ed836f49f6fa45685a1,2021-07-29_23h16.57.145,Simcolourproject_2stim_asymm_v5,2020.2.10,Win32,60,61025ae37ef11b136ea224fe,,,,,,,,,3496,72,20,1,0,0,response1disk,,6,20,0,1,0,0,rectangle,20,0,1,0,0,20,0,1,0,0,0,51,51,96,1,,,,,,,,
,,,,,,,,,,,,,FF,,,,,,,,0.9375,,,,,,,,,,,,,,,,,,,,,,60feea86c2cd1da8825671bc,61036ed836f49f6fa45685a1,2021-07-29_23h16.57.145,Simcolourproject_2stim_asymm_v5,2020.2.10,Win32,60,61025ae37ef11b136ea224fe,,,,,,,,,1352,55,34,1,0,0,response1disk,,6,10,2,1,0,0,rectangle,10,2,1,0,0,10,2,1,0,0,0,52,52,128,1,,,,,,,,
,,,,,,,,,,,,,FF,,,,,,,,0.8998,,,,,,,,,,,,,,,,,,,,,,60feea86c2cd1da8825671bc,61036ed836f49f6fa45685a1,2021-07-29_23h16.57.145,Simcolourproject_2stim_asymm_v5,2020.2.10,Win32,60,61025ae37ef11b136ea224fe,,,,,,,,,2759,48,26,1,0,0,response1disk,,6,2,-7,1,0,0,rectangle,2,-7,1,0,0,2,-7,1,0,0,0,53,53,117,1,,,,,,,,
,,,,,,,,,,,,,FF,,,,,,,,1.0534,,,,,,,,,,,,,,,,,,,,,,60feea86c2cd1da8825671bc,61036ed836f49f6fa45685a1,2021-07-29_23h16.57.145,Simcolourproject_2stim_asymm_v5,2020.2.10,Win32,60,61025ae37ef11b136ea224fe,,,,,,,,,4307,56,62,1,0,0,response1disk,,7,15,-6,1,0,0,rectangle,15,-6,1,0,0,15,-6,1,0,0,0,54,54,58,1,,,,,,,,
,,,,,,,,,,,,,FF,,,,,,,,0.9209,,,,,,,,,,,,,,,,,,,,,,60feea86c2cd1da8825671bc,61036ed836f49f6fa45685a1,2021-07-29_23h16.57.145,Simcolourproject_2stim_asymm_v5,2020.2.10,Win32,60,61025ae37ef11b136ea224fe,,,,,,,,,498,35,59,1,0,0,response1disk,,7,12,2,1,0,0,rectangle,12,2,1,0,0,12,2,1,0,0,0,55,55,108,1,,,,,,,,
,,,,,,,,,,,,,FF,,,,,,,,1.083,,,,,,,,,,,,,,,,,,,,,,60feea86c2cd1da8825671bc,61036ed836f49f6fa45685a1,2021-07-29_23h16.57.145,Simcolourproject_2stim_asymm_v5,2020.2.10,Win32,60,61025ae37ef11b136ea224fe,,,,,,,,,3269,64,-28,1,0,0,response3disk,,5,12,-1,1,0,0,rectangle,12,-1,1,0,0,12,-1,1,0,0,0,56,56,25,1,,,,,,,,
,,,,,,,,,,,,,FF,,,,,,,,0.9174,,,,,,,,,,,,,,,,,,,,,,60feea86c2cd1da8825671bc,61036ed836f49f6fa45685a1,2021-07-29_23h16.57.145,Simcolourproject_2stim_asymm_v5,2020.2.10,Win32,60,61025ae37ef11b136ea224fe,,,,,,,,,1182,60,34,1,0,0,response1disk,,6,27,10,1,0,0,rectangle,27,10,1,0,0,27,10,1,0,0,0,57,57,68,1,,,,,,,,
,,,,,,,,,,,,,FF,,,,,,,,0.7161,,,,,,,,,,,,,,,,,,,,,,60feea86c2cd1da8825671bc,61036ed836f49f6fa45685a1,2021-07-29_23h16.57.145,Simcolourproject_2stim_asymm_v5,2020.2.10,Win32,60,61025ae37ef11b136ea224fe,,,,,,,,,2460,46,34,1,0,0,response1disk,,6,4,-10,1,0,0,rectangle,4,-10,1,0,0,4,-10,1,0,0,0,58,58,54,1,,,,,,,,
,,,,,,,,,,,,,FF,,,,,,,,1.4158,,,,,,,,,,,,,,,,,,,,,,60feea86c2cd1da8825671bc,61036ed836f49f6fa45685a1,2021-07-29_23h16.57.145,Simcolourproject_2stim_asymm_v5,2020.2.10,Win32,60,61025ae37ef11b136ea224fe,,,,,,,,,2898,19,-77,1,0,0,response3disk,,4,-2,-8,1,0,0,rectangle,-2,-8,1,0,0,-2,-8,1,0,0,0,59,59,8,1,,,,,,,,
,,,,,,,,,,,,,FF,,,,,,,,1.1865,,,,,,,,,,,,,,,,,,,,,,60feea86c2cd1da8825671bc,61036ed836f49f6fa45685a1,2021-07-29_23h16.57.145,Simcolourproject_2stim_asymm_v5,2020.2.10,Win32,60,61025ae37ef11b136ea224fe,,,,,,,,,4174,62,40,1,0,0,response1disk,,6,12,4,1,0,0,rectangle,12,4,1,0,0,12,4,1,0,0,0,60,60,29,1,,,,,,,,
,,,,,,,,,,,,,FF,,,,,,,,0.787,,,,,,,,,,,,,,,,,,,,,,60feea86c2cd1da8825671bc,61036ed836f49f6fa45685a1,2021-07-29_23h16.57.145,Simcolourproject_2stim_asymm_v5,2020.2.10,Win32,60,61025ae37ef11b136ea224fe,,,,,,,,,3724,53,27,1,0,0,response1disk,,6,5,-3,1,0,0,rectangle,5,-3,1,0,0,5,-3,1,0,0,0,61,61,30,1,,,,,,,,
,,,,,,,,,,,,,FF,,,,,,,,0.8161,,,,,,,,,,,,,,,,,,,,,,60feea86c2cd1da8825671bc,61036ed836f49f6fa45685a1,2021-07-29_23h16.57.145,Simcolourproject_2stim_asymm_v5,2020.2.10,Win32,60,61025ae37ef11b136ea224fe,,,,,,,,,4237,-71,-31,1,0,0,response5disk,,2,-4,-1,1,0,0,rectangle,-4,-1,1,0,0,-4,-1,1,0,0,0,62,62,26,1,,,,,,,,
,,,,,,,,,,,,,FF,,,,,,,,0.8838,,,,,,,,,,,,,,,,,,,,,,60feea86c2cd1da8825671bc,61036ed836f49f6fa45685a1,2021-07-29_23h16.57.145,Simcolourproject_2stim_asymm_v5,2020.2.10,Win32,60,61025ae37ef11b136ea224fe,,,,,,,,,4271,39,68,1,0,0,response1disk,,7,6,-5,1,0,0,rectangle,6,-5,1,0,0,6,-5,1,0,0,0,63,63,66,1,,,,,,,,
,,,,,,,,,,,,,FF,,,,,,,,0.9001,,,,,,,,,,,,,,,,,,,,,,60feea86c2cd1da8825671bc,61036ed836f49f6fa45685a1,2021-07-29_23h16.57.145,Simcolourproject_2stim_asymm_v5,2020.2.10,Win32,60,61025ae37ef11b136ea224fe,,,,,,,,,2727,-19,-45,1,0,0,response5disk,,3,5,-1,1,0,0,rectangle,5,-1,1,0,0,5,-1,1,0,0,0,64,64,107,1,,,,,,,,
,,,,,,,,,,,,,FF,,,,,,,,0.8995,,,,,,,,,,,,,,,,,,,,,,60feea86c2cd1da8825671bc,61036ed836f49f6fa45685a1,2021-07-29_23h16.57.145,Simcolourproject_2stim_asymm_v5,2020.2.10,Win32,60,61025ae37ef11b136ea224fe,,,,,,,,,1039,-23,-47,1,0,0,response5disk,,3,-1,-10,1,0,0,rectangle,-1,-10,1,0,0,-1,-10,1,0,0,0,65,65,118,1,,,,,,,,
,,,,,,,,,,,,,FF,,,,,,,,1.0503,,,,,,,,,,,,,,,,,,,,,,60feea86c2cd1da8825671bc,61036ed836f49f6fa45685a1,2021-07-29_23h16.57.145,Simcolourproject_2stim_asymm_v5,2020.2.10,Win32,60,61025ae37ef11b136ea224fe,,,,,,,,,3241,69,51,1,0,0,response1disk,,6,-8,5,1,0,0,rectangle,-8,5,1,0,0,-8,5,1,0,0,0,66,66,13,1,,,,,,,,
,,,,,,,,,,,,,FF,,,,,,,,1.5532,,,,,,,,,,,,,,,,,,,,,,60feea86c2cd1da8825671bc,61036ed836f49f6fa45685a1,2021-07-29_23h16.57.145,Simcolourproject_2stim_asymm_v5,2020.2.10,Win32,60,61025ae37ef11b136ea224fe,,,,,,,,,2716,30,-80,1,0,0,response3disk,,4,1,-4,1,0,0,rectangle,1,-4,1,0,0,1,-4,1,0,0,0,67,67,129,1,,,,,,,,
,,,,,,,,,,,,,FF,,,,,,,,1.1363,,,,,,,,,,,,,,,,,,,,,,60feea86c2cd1da8825671bc,61036ed836f49f6fa45685a1,2021-07-29_23h16.57.145,Simcolourproject_2stim_asymm_v5,2020.2.10,Win32,60,61025ae37ef11b136ea224fe,,,,,,,,,3743,-62,25,1,0,0,response7disk,,1,-28,7,1,0,0,rectangle,-28,7,1,0,0,-28,7,1,0,0,0,68,68,82,1,,,,,,,,
,,,,,,,,,,,,,FF,,,,,,,,0.887,,,,,,,,,,,,,,,,,,,,,,60feea86c2cd1da8825671bc,61036ed836f49f6fa45685a1,2021-07-29_23h16.57.145,Simcolourproject_2stim_asymm_v5,2020.2.10,Win32,60,61025ae37ef11b136ea224fe,,,,,,,,,666,59,35,1,0,0,response1disk,,6,10,4,1,0,0,rectangle,10,4,1,0,0,10,4,1,0,0,0,69,69,1,1,,,,,,,,
,,,,,,,,,,,,,FF,,,,,,,,1.1341,,,,,,,,,,,,,,,,,,,,,,60feea86c2cd1da8825671bc,61036ed836f49f6fa45685a1,2021-07-29_23h16.57.145,Simcolourproject_2stim_asymm_v5,2020.2.10,Win32,60,61025ae37ef11b136ea224fe,,,,,,,,,2785,24,-60,1,0,0,response3disk,,4,-2,-9,1,0,0,rectangle,-2,-9,1,0,0,-2,-9,1,0,0,0,70,70,73,1,,,,,,,,
,,,,,,,,,,,,,FF,,,,,,,,0.9203,,,,,,,,,,,,,,,,,,,,,,60feea86c2cd1da8825671bc,61036ed836f49f6fa45685a1,2021-07-29_23h16.57.145,Simcolourproject_2stim_asymm_v5,2020.2.10,Win32,60,61025ae37ef11b136ea224fe,,,,,,,,,4092,53,48,1,0,0,response1disk,,6,5,11,1,0,0,rectangle,5,11,1,0,0,5,11,1,0,0,0,71,71,35,1,,,,,,,,
,,,,,,,,,,,,,FF,,,,,,,,1.1695,,,,,,,,,,,,,,,,,,,,,,60feea86c2cd1da8825671bc,61036ed836f49f6fa45685a1,2021-07-29_23h16.57.145,Simcolourproject_2stim_asymm_v5,2020.2.10,Win32,60,61025ae37ef11b136ea224fe,,,,,,,,,1245,50,-17,1,0,0,response3disk,,5,17,-4,1,0,0,rectangle,17,-4,1,0,0,17,-4,1,0,0,0,72,72,120,1,,,,,,,,
,,,,,,,,,,,,,FF,,,,,,,,1.5193,,,,,,,,,,,,,,,,,,,,,,60feea86c2cd1da8825671bc,61036ed836f49f6fa45685a1,2021-07-29_23h16.57.145,Simcolourproject_2stim_asymm_v5,2020.2.10,Win32,60,61025ae37ef11b136ea224fe,,,,,,,,,606,42,-43,1,0,0,response3disk,,4,18,0,1,0,0,rectangle,18,0,1,0,0,18,0,1,0,0,0,73,73,121,1,,,,,,,,
,,,,,,,,,,,,,FF,,,,,,,,0.8622,,,,,,,,,,,,,,,,,,,,,,60feea86c2cd1da8825671bc,61036ed836f49f6fa45685a1,2021-07-29_23h16.57.145,Simcolourproject_2stim_asymm_v5,2020.2.10,Win32,60,61025ae37ef11b136ea224fe,,,,,,,,,2240,-62,-32,1,0,0,response5disk,,2,-3,-13,1,0,0,rectangle,-3,-13,1,0,0,-3,-13,1,0,0,0,74,74,28,1,,,,,,,,
,,,,,,,,,,,,,FF,,,,,,,,1.2988,,,,,,,,,,,,,,,,,,,,,,60feea86c2cd1da8825671bc,61036ed836f49f6fa45685a1,2021-07-29_23h16.57.145,Simcolourproject_2stim_asymm_v5,2020.2.10,Win32,60,61025ae37ef11b136ea224fe,,,,,,,,,2113,-30,-71,1,0,0,response5disk,,3,-5,-12,1,0,0,rectangle,-5,-12,1,0,0,-5,-12,1,0,0,0,75,75,20,1,,,,,,,,
,,,,,,,,,,,,,FF,,,,,,,,1.0817,,,,,,,,,,,,,,,,,,,,,,60feea86c2cd1da8825671bc,61036ed836f49f6fa45685a1,2021-07-29_23h16.57.145,Simcolourproject_2stim_asymm_v5,2020.2.10,Win32,60,61025ae37ef11b136ea224fe,,,,,,,,,109,58,45,1,0,0,response1disk,,6,-17,6,1,0,0,rectangle,-17,6,1,0,0,-17,6,1,0,0,0,76,76,31,1,,,,,,,,
,,,,,,,,,,,,,FF,,,,,,,,1.0124,,,,,,,,,,,,,,,,,,,,,,60feea86c2cd1da8825671bc,61036ed836f49f6fa45685a1,2021-07-29_23h16.57.145,Simcolourproject_2stim_asymm_v5,2020.2.10,Win32,60,61025ae37ef11b136ea224fe,,,,,,,,,783,38,-51,1,0,0,response3disk,,4,5,-6,1,0,0,rectangle,5,-6,1,0,0,5,-6,1,0,0,0,77,77,135,1,,,,,,,,
,,,,,,,,,,,,,FF,,,,,,,,0.67,,,,,,,,,,,,,,,,,,,,,,60feea86c2cd1da8825671bc,61036ed836f49f6fa45685a1,2021-07-29_23h16.57.145,Simcolourproject_2stim_asymm_v5,2020.2.10,Win32,60,61025ae37ef11b136ea224fe,,,,,,,,,4325,38,25,1,0,0,response1disk,,6,18,7,1,0,0,rectangle,18,7,1,0,0,18,7,1,0,0,0,78,78,71,1,,,,,,,,
,,,,,,,,,,,,,FF,,,,,,,,1.0707,,,,,,,,,,,,,,,,,,,,,,60feea86c2cd1da8825671bc,61036ed836f49f6fa45685a1,2021-07-29_23h16.57.145,Simcolourproject_2stim_asymm_v5,2020.2.10,Win32,60,61025ae37ef11b136ea224fe,,,,,,,,,572,39,-27,1,0,0,response3disk,,5,-6,-14,1,0,0,rectangle,-6,-14,1,0,0,-6,-14,1,0,0,0,79,79,87,1,,,,,,,,
,,,,,,,,,,,,,FF,,,,,,,,1.4452,,,,,,,,,,,,,,,,,,,,,,60feea86c2cd1da8825671bc,61036ed836f49f6fa45685a1,2021-07-29_23h16.57.145,Simcolourproject_2stim_asymm_v5,2020.2.10,Win32,60,61025ae37ef11b136ea224fe,,,,,,,,,3534,39,85,1,0,0,response1disk,,7,1,11,1,0,0,rectangle,1,11,1,0,0,1,11,1,0,0,0,80,80,159,1,,,,,,,,
,,,,,,,,,,,,,FF,,,,,,,,1.0323,,,,,,,,,,,,,,,,,,,,,,60feea86c2cd1da8825671bc,61036ed836f49f6fa45685a1,2021-07-29_23h16.57.145,Simcolourproject_2stim_asymm_v5,2020.2.10,Win32,60,61025ae37ef11b136ea224fe,,,,,,,,,3818,-58,21,1,0,0,response7disk,,1,-14,-1,1,0,0,rectangle,-14,-1,1,0,0,-14,-1,1,0,0,0,81,81,63,1,,,,,,,,
,,,,,,,,,,,,,FF,,,,,,,,0.9196,,,,,,,,,,,,,,,,,,,,,,60feea86c2cd1da8825671bc,61036ed836f49f6fa45685a1,2021-07-29_23h16.57.145,Simcolourproject_2stim_asymm_v5,2020.2.10,Win32,60,61025ae37ef11b136ea224fe,,,,,,,,,2303,-42,-52,1,0,0,response5disk,,3,14,5,1,0,0,rectangle,14,5,1,0,0,14,5,1,0,0,0,82,82,77,1,,,,,,,,
,,,,,,,,,,,,,FF,,,,,,,,1.4495,,,,,,,,,,,,,,,,,,,,,,60feea86c2cd1da8825671bc,61036ed836f49f6fa45685a1,2021-07-29_23h16.57.145,Simcolourproject_2stim_asymm_v5,2020.2.10,Win32,60,61025ae37ef11b136ea224fe,,,,,,,,,478,69,45,1,0,0,response1disk,,6,-9,-4,1,0,0,rectangle,-9,-4,1,0,0,-9,-4,1,0,0,0,83,83,156,1,,,,,,,,
,,,,,,,,,,,,,FF,,,,,,,,1.2548,,,,,,,,,,,,,,,,,,,,,,60feea86c2cd1da8825671bc,61036ed836f49f6fa45685a1,2021-07-29_23h16.57.145,Simcolourproject_2stim_asymm_v5,2020.2.10,Win32,60,61025ae37ef11b136ea224fe,,,,,,,,,1739,18,-40,1,0,0,response3disk,,4,8,-12,1,0,0,rectangle,8,-12,1,0,0,8,-12,1,0,0,0,84,84,37,1,,,,,,,,
,,,,,,,,,,,,,FF,,,,,,,,1.4334,,,,,,,,,,,,,,,,,,,,,,60feea86c2cd1da8825671bc,61036ed836f49f6fa45685a1,2021-07-29_23h16.57.145,Simcolourproject_2stim_asymm_v5,2020.2.10,Win32,60,61025ae37ef11b136ea224fe,,,,,,,,,3799,75,28,1,0,0,response1disk,,6,14,2,1,0,0,rectangle,14,2,1,0,0,14,2,1,0,0,0,85,85,86,1,,,,,,,,
,,,,,,,,,,,,,FF,,,,,,,,1.082,,,,,,,,,,,,,,,,,,,,,,60feea86c2cd1da8825671bc,61036ed836f49f6fa45685a1,2021-07-29_23h16.57.145,Simcolourproject_2stim_asymm_v5,2020.2.10,Win32,60,61025ae37ef11b136ea224fe,,,,,,,,,3397,-38,-57,1,0,0,response5disk,,3,-7,1,1,0,0,rectangle,-7,1,1,0,0,-7,1,1,0,0,0,86,86,17,1,,,,,,,,
,,,,,,,,,,,,,FF,,,,,,,,0.7703,,,,,,,,,,,,,,,,,,,,,,60feea86c2cd1da8825671bc,61036ed836f49f6fa45685a1,2021-07-29_23h16.57.145,Simcolourproject_2stim_asymm_v5,2020.2.10,Win32,60,61025ae37ef11b136ea224fe,,,,,,,,,2035,-63,-30,1,0,0,response5disk,,2,-20,-2,1,0,0,rectangle,-20,-2,1,0,0,-20,-2,1,0,0,0,87,87,122,1,,,,,,,,
,,,,,,,,,,,,,FF,,,,,,,,1.0822,,,,,,,,,,,,,,,,,,,,,,60feea86c2cd1da8825671bc,61036ed836f49f6fa45685a1,2021-07-29_23h16.57.145,Simcolourproject_2stim_asymm_v5,2020.2.10,Win32,60,61025ae37ef11b136ea224fe,,,,,,,,,2886,-53,68,1,0,0,response7disk,,0,-17,12,1,0,0,rectangle,-17,12,1,0,0,-17,12,1,0,0,0,88,88,9,1,,,,,,,,
,,,,,,,,,,,,,FF,,,,,,,,1.5284,,,,,,,,,,,,,,,,,,,,,,60feea86c2cd1da8825671bc,61036ed836f49f6fa45685a1,2021-07-29_23h16.57.145,Simcolourproject_2stim_asymm_v5,2020.2.10,Win32,60,61025ae37ef11b136ea224fe,,,,,,,,,3040,23,-58,1,0,0,response3disk,,4,1,1,1,0,0,rectangle,1,1,1,0,0,1,1,1,0,0,0,89,89,3,1,,,,,,,,
,,,,,,,,,,,,,FF,,,,,,,,0.8816,,,,,,,,,,,,,,,,,,,,,,60feea86c2cd1da8825671bc,61036ed836f49f6fa45685a1,2021-07-29_23h16.57.145,Simcolourproject_2stim_asymm_v5,2020.2.10,Win32,60,61025ae37ef11b136ea224fe,,,,,,,,,1426,59,50,1,0,0,response1disk,,6,10,0,1,0,0,rectangle,10,0,1,0,0,10,0,1,0,0,0,90,90,148,1,,,,,,,,
,,,,,,,,,,,,,FF,,,,,,,,1.5193,,,,,,,,,,,,,,,,,,,,,,60feea86c2cd1da8825671bc,61036ed836f49f6fa45685a1,2021-07-29_23h16.57.145,Simcolourproject_2stim_asymm_v5,2020.2.10,Win32,60,61025ae37ef11b136ea224fe,,,,,,,,,2808,78,38,1,0,0,response1disk,,6,9,-17,1,0,0,rectangle,9,-17,1,0,0,9,-17,1,0,0,0,91,91,85,1,,,,,,,,
,,,,,,,,,,,,,FF,,,,,,,,0.9856,,,,,,,,,,,,,,,,,,,,,,60feea86c2cd1da8825671bc,61036ed836f49f6fa45685a1,2021-07-29_23h16.57.145,Simcolourproject_2stim_asymm_v5,2020.2.10,Win32,60,61025ae37ef11b136ea224fe,,,,,,,,,1209,56,-34,1,0,0,response3disk,,5,13,-16,1,0,0,rectangle,13,-16,1,0,0,13,-16,1,0,0,0,92,92,158,1,,,,,,,,
,,,,,,,,,,,,,FF,,,,,,,,1.5178,,,,,,,,,,,,,,,,,,,,,,60feea86c2cd1da8825671bc,61036ed836f49f6fa45685a1,2021-07-29_23h16.57.145,Simcolourproject_2stim_asymm_v5,2020.2.10,Win32,60,61025ae37ef11b136ea224fe,,,,,,,,,780,35,-49,1,0,0,response3disk,,4,17,-10,1,0,0,rectangle,17,-10,1,0,0,17,-10,1,0,0,0,93,93,0,1,,,,,,,,
,,,,,,,,,,,,,FF,,,,,,,,1.0871,,,,,,,,,,,,,,,,,,,,,,60feea86c2cd1da8825671bc,61036ed836f49f6fa45685a1,2021-07-29_23h16.57.145,Simcolourproject_2stim_asymm_v5,2020.2.10,Win32,60,61025ae37ef11b136ea224fe,,,,,,,,,829,67,-36,1,0,0,response3disk,,5,13,-9,1,0,0,rectangle,13,-9,1,0,0,13,-9,1,0,0,0,94,94,59,1,,,,,,,,
,,,,,,,,,,,,,FF,,,,,,,,1.2691,,,,,,,,,,,,,,,,,,,,,,60feea86c2cd1da8825671bc,61036ed836f49f6fa45685a1,2021-07-29_23h16.57.145,Simcolourproject_2stim_asymm_v5,2020.2.10,Win32,60,61025ae37ef11b136ea224fe,,,,,,,,,691,56,71,1,0,0,response1disk,,7,1,-4,1,0,0,rectangle,1,-4,1,0,0,1,-4,1,0,0,0,95,95,149,1,,,,,,,,
,,,,,,,,,,,,,FF,,,,,,,,1.5443,,,,,,,,,,,,,,,,,,,,,,60feea86c2cd1da8825671bc,61036ed836f49f6fa45685a1,2021-07-29_23h16.57.145,Simcolourproject_2stim_asymm_v5,2020.2.10,Win32,60,61025ae37ef11b136ea224fe,,,,,,,,,2657,79,42,1,0,0,response1disk,,6,19,5,1,0,0,rectangle,19,5,1,0,0,19,5,1,0,0,0,96,96,137,1,,,,,,,,
,,,,,,,,,,,,,FF,,,,,,,,1.7782,,,,,,,,,,,,,,,,,,,,,,60feea86c2cd1da8825671bc,61036ed836f49f6fa45685a1,2021-07-29_23h16.57.145,Simcolourproject_2stim_asymm_v5,2020.2.10,Win32,60,61025ae37ef11b136ea224fe,,,,,,,,,3182,50,67,1,0,0,response1disk,,7,5,-5,1,0,0,rectangle,5,-5,1,0,0,5,-5,1,0,0,0,97,97,5,1,,,,,,,,
,,,,,,,,,,,,,FF,,,,,,,,0.7956,,,,,,,,,,,,,,,,,,,,,,60feea86c2cd1da8825671bc,61036ed836f49f6fa45685a1,2021-07-29_23h16.57.145,Simcolourproject_2stim_asymm_v5,2020.2.10,Win32,60,61025ae37ef11b136ea224fe,,,,,,,,,1751,-34,-54,1,0,0,response5disk,,3,-3,1,1,0,0,rectangle,-3,1,1,0,0,-3,1,1,0,0,0,98,98,74,1,,,,,,,,
,,,,,,,,,,,,,FF,,,,,,,,1.1122,,,,,,,,,,,,,,,,,,,,,,60feea86c2cd1da8825671bc,61036ed836f49f6fa45685a1,2021-07-29_23h16.57.145,Simcolourproject_2stim_asymm_v5,2020.2.10,Win32,60,61025ae37ef11b136ea224fe,,,,,,,,,2713,17,-66,1,0,0,response3disk,,4,6,-17,1,0,0,rectangle,6,-17,1,0,0,6,-17,1,0,0,0,99,99,83,1,,,,,,,,
,,,,,,,,,,,,,FF,,,,,,,,1.4164,,,,,,,,,,,,,,,,,,,,,,60feea86c2cd1da8825671bc,61036ed836f49f6fa45685a1,2021-07-29_23h16.57.145,Simcolourproject_2stim_asymm_v5,2020.2.10,Win32,60,61025ae37ef11b136ea224fe,,,,,,,,,2493,39,-49,1,0,0,response3disk,,4,15,-16,1,0,0,rectangle,15,-16,1,0,0,15,-16,1,0,0,0,100,100,132,1,,,,,,,,
,,,,,,,,,,,,,FF,,,,,,,,0.8533,,,,,,,,,,,,,,,,,,,,,,60feea86c2cd1da8825671bc,61036ed836f49f6fa45685a1,2021-07-29_23h16.57.145,Simcolourproject_2stim_asymm_v5,2020.2.10,Win32,60,61025ae37ef11b136ea224fe,,,,,,,,,4020,-42,49,1,0,0,response7disk,,0,-22,14,1,0,0,rectangle,-22,14,1,0,0,-22,14,1,0,0,0,101,101,114,1,,,,,,,,
,,,,,,,,,,,,,FF,,,,,,,,0.9996,,,,,,,,,,,,,,,,,,,,,,60feea86c2cd1da8825671bc,61036ed836f49f6fa45685a1,2021-07-29_23h16.57.145,Simcolourproject_2stim_asymm_v5,2020.2.10,Win32,60,61025ae37ef11b136ea224fe,,,,,,,,,773,52,29,1,0,0,response1disk,,6,-3,-8,1,0,0,rectangle,-3,-8,1,0,0,-3,-8,1,0,0,0,102,102,62,1,,,,,,,,
,,,,,,,,,,,,,FF,,,,,,,,1.2028,,,,,,,,,,,,,,,,,,,,,,60feea86c2cd1da8825671bc,61036ed836f49f6fa45685a1,2021-07-29_23h16.57.145,Simcolourproject_2stim_asymm_v5,2020.2.10,Win32,60,61025ae37ef11b136ea224fe,,,,,,,,,1373,-29,-75,1,0,0,response5disk,,3,28,12,1,0,0,rectangle,28,12,1,0,0,28,12,1,0,0,0,103,103,47,1,,,,,,,,
,,,,,,,,,,,,,FF,,,,,,,,0.9325,,,,,,,,,,,,,,,,,,,,,,60feea86c2cd1da8825671bc,61036ed836f49f6fa45685a1,2021-07-29_23h16.57.145,Simcolourproject_2stim_asymm_v5,2020.2.10,Win32,60,61025ae37ef11b136ea224fe,,,,,,,,,4193,43,26,1,0,0,response1disk,,6,-6,-5,1,0,0,rectangle,-6,-5,1,0,0,-6,-5,1,0,0,0,104,104,42,1,,,,,,,,
,,,,,,,,,,,,,FF,,,,,,,,1.5836,,,,,,,,,,,,,,,,,,,,,,60feea86c2cd1da8825671bc,61036ed836f49f6fa45685a1,2021-07-29_23h16.57.145,Simcolourproject_2stim_asymm_v5,2020.2.10,Win32,60,61025ae37ef11b136ea224fe,,,,,,,,,2982,44,66,1,0,0,response1disk,,7,-7,5,1,0,0,rectangle,-44,61,1,0,0,-37,6,1,0,0,0,105,105,61,1,,response7disk_3,TRUE,0,0,"[190,255,166,278,277,25,211,211,161,38,115,235,106,322,171,285,152,323,42,184]",1.965,rectangle
,,,,,,,,,,,,,FF,,,,,,,,1.8351,,,,,,,,,,,,,,,,,,,,,,60feea86c2cd1da8825671bc,61036ed836f49f6fa45685a1,2021-07-29_23h16.57.145,Simcolourproject_2stim_asymm_v5,2020.2.10,Win32,60,61025ae37ef11b136ea224fe,,,,,,,,,83,61,-39,1,0,0,response3disk,,5,6,-6,1,0,0,rectangle,6,-6,1,0,0,6,-6,1,0,0,0,106,106,32,1,,,,,,,,
,,,,,,,,,,,,,FF,,,,,,,,0.9677,,,,,,,,,,,,,,,,,,,,,,60feea86c2cd1da8825671bc,61036ed836f49f6fa45685a1,2021-07-29_23h16.57.145,Simcolourproject_2stim_asymm_v5,2020.2.10,Win32,60,61025ae37ef11b136ea224fe,,,,,,,,,2495,85,56,1,0,0,response1disk,,6,16,-9,1,0,0,rectangle,16,-9,1,0,0,16,-9,1,0,0,0,107,107,123,1,,,,,,,,
,,,,,,,,,,,,,FF,,,,,,,,1.97,,,,,,,,,,,,,,,,,,,,,,60feea86c2cd1da8825671bc,61036ed836f49f6fa45685a1,2021-07-29_23h16.57.145,Simcolourproject_2stim_asymm_v5,2020.2.10,Win32,60,61025ae37ef11b136ea224fe,,,,,,,,,3764,67,28,1,0,0,response1disk,,6,23,-1,1,0,0,rectangle,23,-1,1,0,0,23,-1,1,0,0,0,108,108,44,1,,,,,,,,
,,,,,,,,,,,,,FF,,,,,,,,0.8834,,,,,,,,,,,,,,,,,,,,,,60feea86c2cd1da8825671bc,61036ed836f49f6fa45685a1,2021-07-29_23h16.57.145,Simcolourproject_2stim_asymm_v5,2020.2.10,Win32,60,61025ae37ef11b136ea224fe,,,,,,,,,3064,53,31,1,0,0,response1disk,,6,-13,-9,1,0,0,rectangle,-13,-9,1,0,0,-13,-9,1,0,0,0,109,109,23,1,,,,,,,,
,,,,,,,,,,,,,FF,,,,,,,,0.8369,,,,,,,,,,,,,,,,,,,,,,60feea86c2cd1da8825671bc,61036ed836f49f6fa45685a1,2021-07-29_23h16.57.145,Simcolourproject_2stim_asymm_v5,2020.2.10,Win32,60,61025ae37ef11b136ea224fe,,,,,,,,,2038,-43,-34,1,0,0,response5disk,,2,-26,-15,1,0,0,rectangle,-26,-15,1,0,0,-26,-15,1,0,0,0,110,110,34,1,,,,,,,,
,,,,,,,,,,,,,FF,,,,,,,,0.9528,,,,,,,,,,,,,,,,,,,,,,60feea86c2cd1da8825671bc,61036ed836f49f6fa45685a1,2021-07-29_23h16.57.145,Simcolourproject_2stim_asymm_v5,2020.2.10,Win32,60,61025ae37ef11b136ea224fe,,,,,,,,,2579,49,42,1,0,0,response1disk,,6,5,11,1,0,0,rectangle,5,11,1,0,0,5,11,1,0,0,0,111,111,153,1,,,,,,,,
,,,,,,,,,,,,,FF,,,,,,,,4.7168,,,,,,,,,,,,,,,,,,,,,,60feea86c2cd1da8825671bc,61036ed836f49f6fa45685a1,2021-07-29_23h16.57.145,Simcolourproject_2stim_asymm_v5,2020.2.10,Win32,60,61025ae37ef11b136ea224fe,,,,,,,,,3654,26,63,1,0,0,response1disk,,7,10,12,1,0,0,rectangle,10,12,1,0,0,10,12,1,0,0,0,112,112,90,1,,,,,,,,
,,,,,,,,,,,,,FF,,,,,,,,1.2984,,,,,,,,,,,,,,,,,,,,,,60feea86c2cd1da8825671bc,61036ed836f49f6fa45685a1,2021-07-29_23h16.57.145,Simcolourproject_2stim_asymm_v5,2020.2.10,Win32,60,61025ae37ef11b136ea224fe,,,,,,,,,3783,-35,-46,1,0,0,response5disk,,3,-4,0,1,0,0,rectangle,-4,0,1,0,0,-4,0,1,0,0,0,113,113,112,1,,,,,,,,
,,,,,,,,,,,,,FF,,,,,,,,1.3998,,,,,,,,,,,,,,,,,,,,,,60feea86c2cd1da8825671bc,61036ed836f49f6fa45685a1,2021-07-29_23h16.57.145,Simcolourproject_2stim_asymm_v5,2020.2.10,Win32,60,61025ae37ef11b136ea224fe,,,,,,,,,3721,35,-53,1,0,0,response3disk,,4,10,-11,1,0,0,rectangle,-52,39,1,0,0,-18,7,1,0,0,0,114,114,142,1,,response7disk_3,TRUE,1,1,"[190,255,166,278,277,25,211,211,161,38,115,235,106,322,171,285,152,323,42,184]",1.9814,rectangle
,,,,,,,,,,,,,FF,,,,,,,,0.9962,,,,,,,,,,,,,,,,,,,,,,60feea86c2cd1da8825671bc,61036ed836f49f6fa45685a1,2021-07-29_23h16.57.145,Simcolourproject_2stim_asymm_v5,2020.2.10,Win32,60,61025ae37ef11b136ea224fe,,,,,,,,,1585,31,-77,1,0,0,response3disk,,4,7,-1,1,0,0,rectangle,7,-1,1,0,0,7,-1,1,0,0,0,115,115,65,1,,,,,,,,
,,,,,,,,,,,,,FF,,,,,,,,0.8194,,,,,,,,,,,,,,,,,,,,,,60feea86c2cd1da8825671bc,61036ed836f49f6fa45685a1,2021-07-29_23h16.57.145,Simcolourproject_2stim_asymm_v5,2020.2.10,Win32,60,61025ae37ef11b136ea224fe,,,,,,,,,2330,43,64,1,0,0,response1disk,,7,13,7,1,0,0,rectangle,13,7,1,0,0,13,7,1,0,0,0,116,116,131,1,,,,,,,,
,,,,,,,,,,,,,FF,,,,,,,,0.9868,,,,,,,,,,,,,,,,,,,,,,60feea86c2cd1da8825671bc,61036ed836f49f6fa45685a1,2021-07-29_23h16.57.145,Simcolourproject_2stim_asymm_v5,2020.2.10,Win32,60,61025ae37ef11b136ea224fe,,,,,,,,,3998,-38,-58,1,0,0,response5disk,,3,-12,-3,1,0,0,rectangle,-12,-3,1,0,0,-12,-3,1,0,0,0,117,117,64,1,,,,,,,,
,,,,,,,,,,,,,FF,,,,,,,,0.9204,,,,,,,,,,,,,,,,,,,,,,60feea86c2cd1da8825671bc,61036ed836f49f6fa45685a1,2021-07-29_23h16.57.145,Simcolourproject_2stim_asymm_v5,2020.2.10,Win32,60,61025ae37ef11b136ea224fe,,,,,,,,,3827,35,31,1,0,0,response1disk,,6,12,5,1,0,0,rectangle,12,5,1,0,0,12,5,1,0,0,0,118,118,115,1,,,,,,,,
,,,,,,,,,,,,,FF,,,,,,,,1.0485,,,,,,,,,,,,,,,,,,,,,,60feea86c2cd1da8825671bc,61036ed836f49f6fa45685a1,2021-07-29_23h16.57.145,Simcolourproject_2stim_asymm_v5,2020.2.10,Win32,60,61025ae37ef11b136ea224fe,,,,,,,,,4073,40,-21,1,0,0,response3disk,,5,5,-5,1,0,0,rectangle,5,-5,1,0,0,5,-5,1,0,0,0,119,119,67,1,,,,,,,,
,,,,,,,,,,,,,FF,,,,,,,,1.9819,,,,,,,,,,,,,,,,,,,,,,60feea86c2cd1da8825671bc,61036ed836f49f6fa45685a1,2021-07-29_23h16.57.145,Simcolourproject_2stim_asymm_v5,2020.2.10,Win32,60,61025ae37ef11b136ea224fe,,,,,,,,,1391,69,-29,1,0,0,response3disk,,5,4,-2,1,0,0,rectangle,4,-2,1,0,0,4,-2,1,0,0,0,120,120,53,1,,,,,,,,
,,,,,,,,,,,,,FF,,,,,,,,1.3502,,,,,,,,,,,,,,,,,,,,,,60feea86c2cd1da8825671bc,61036ed836f49f6fa45685a1,2021-07-29_23h16.57.145,Simcolourproject_2stim_asymm_v5,2020.2.10,Win32,60,61025ae37ef11b136ea224fe,,,,,,,,,3119,63,41,1,0,0,response1disk,,6,-10,-6,1,0,0,rectangle,-10,-6,1,0,0,-10,-6,1,0,0,0,121,121,78,1,,,,,,,,
,,,,,,,,,,,,,FF,,,,,,,,0.9336,,,,,,,,,,,,,,,,,,,,,,60feea86c2cd1da8825671bc,61036ed836f49f6fa45685a1,2021-07-29_23h16.57.145,Simcolourproject_2stim_asymm_v5,2020.2.10,Win32,60,61025ae37ef11b136ea224fe,,,,,,,,,3251,-47,-59,1,0,0,response5disk,,3,0,-2,1,0,0,rectangle,0,-2,1,0,0,0,-2,1,0,0,0,122,122,126,1,,,,,,,,
,,,,,,,,,,,,,FF,,,,,,,,0.9835,,,,,,,,,,,,,,,,,,,,,,60feea86c2cd1da8825671bc,61036ed836f49f6fa45685a1,2021-07-29_23h16.57.145,Simcolourproject_2stim_asymm_v5,2020.2.10,Win32,60,61025ae37ef11b136ea224fe,,,,,,,,,177,33,46,1,0,0,response1disk,,7,23,3,1,0,0,rectangle,23,3,1,0,0,23,3,1,0,0,0,123,123,144,1,,,,,,,,
,,,,,,,,,,,,,FF,,,,,,,,1.0324,,,,,,,,,,,,,,,,,,,,,,60feea86c2cd1da8825671bc,61036ed836f49f6fa45685a1,2021-07-29_23h16.57.145,Simcolourproject_2stim_asymm_v5,2020.2.10,Win32,60,61025ae37ef11b136ea224fe,,,,,,,,,874,51,-26,1,0,0,response3disk,,5,-10,-10,1,0,0,rectangle,-10,-10,1,0,0,-10,-10,1,0,0,0,124,124,101,1,,,,,,,,
,,,,,,,,,,,,,FF,,,,,,,,1.0193,,,,,,,,,,,,,,,,,,,,,,60feea86c2cd1da8825671bc,61036ed836f49f6fa45685a1,2021-07-29_23h16.57.145,Simcolourproject_2stim_asymm_v5,2020.2.10,Win32,60,61025ae37ef11b136ea224fe,,,,,,,,,1575,47,29,1,0,0,response1disk,,6,-1,-9,1,0,0,rectangle,-1,-9,1,0,0,-1,-9,1,0,0,0,125,125,56,1,,,,,,,,
,,,,,,,,,,,,,FF,,,,,,,,1.2779,,,,,,,,,,,,,,,,,,,,,,60feea86c2cd1da8825671bc,61036ed836f49f6fa45685a1,2021-07-29_23h16.57.145,Simcolourproject_2stim_asymm_v5,2020.2.10,Win32,60,61025ae37ef11b136ea224fe,,,,,,,,,1468,30,-47,1,0,0,response3disk,,4,15,-12,1,0,0,rectangle,15,-12,1,0,0,15,-12,1,0,0,0,126,126,151,1,,,,,,,,
,,,,,,,,,,,,,FF,,,,,,,,1.0154,,,,,,,,,,,,,,,,,,,,,,60feea86c2cd1da8825671bc,61036ed836f49f6fa45685a1,2021-07-29_23h16.57.145,Simcolourproject_2stim_asymm_v5,2020.2.10,Win32,60,61025ae37ef11b136ea224fe,,,,,,,,,2176,25,-39,1,0,0,response3disk,,4,13,-8,1,0,0,rectangle,13,-8,1,0,0,13,-8,1,0,0,0,127,127,113,1,,,,,,,,
,,,,,,,,,,,,,FF,,,,,,,,0.9328,,,,,,,,,,,,,,,,,,,,,,60feea86c2cd1da8825671bc,61036ed836f49f6fa45685a1,2021-07-29_23h16.57.145,Simcolourproject_2stim_asymm_v5,2020.2.10,Win32,60,61025ae37ef11b136ea224fe,,,,,,,,,1247,17,49,1,0,0,response1disk,,7,2,15,1,0,0,rectangle,2,15,1,0,0,2,15,1,0,0,0,128,128,6,1,,,,,,,,
,,,,,,,,,,,,,FF,,,,,,,,0.7655,,,,,,,,,,,,,,,,,,,,,,60feea86c2cd1da8825671bc,61036ed836f49f6fa45685a1,2021-07-29_23h16.57.145,Simcolourproject_2stim_asymm_v5,2020.2.10,Win32,60,61025ae37ef11b136ea224fe,,,,,,,,,1797,28,61,1,0,0,response1disk,,7,11,13,1,0,0,rectangle,11,13,1,0,0,11,13,1,0,0,0,129,129,143,1,,,,,,,,
,,,,,,,,,,,,,FF,,,,,,,,0.8671,,,,,,,,,,,,,,,,,,,,,,60feea86c2cd1da8825671bc,61036ed836f49f6fa45685a1,2021-07-29_23h16.57.145,Simcolourproject_2stim_asymm_v5,2020.2.10,Win32,60,61025ae37ef11b136ea224fe,,,,,,,,,1252,22,41,1,0,0,response1disk,,7,11,6,1,0,0,rectangle,11,6,1,0,0,11,6,1,0,0,0,130,130,72,1,,,,,,,,
,,,,,,,,,,,,,FF,,,,,,,,1.1499,,,,,,,,,,,,,,,,,,,,,,60feea86c2cd1da8825671bc,61036ed836f49f6fa45685a1,2021-07-29_23h16.57.145,Simcolourproject_2stim_asymm_v5,2020.2.10,Win32,60,61025ae37ef11b136ea224fe,,,,,,,,,1610,-74,-66,1,0,0,response5disk,,2,15,0,1,0,0,rectangle,15,0,1,0,0,15,0,1,0,0,0,131,131,157,1,,,,,,,,
,,,,,,,,,,,,,FF,,,,,,,,1.3152,,,,,,,,,,,,,,,,,,,,,,60feea86c2cd1da8825671bc,61036ed836f49f6fa45685a1,2021-07-29_23h16.57.145,Simcolourproject_2stim_asymm_v5,2020.2.10,Win32,60,61025ae37ef11b136ea224fe,,,,,,,,,3483,-24,-48,1,0,0,response5disk,,3,0,-10,1,0,0,rectangle,0,-10,1,0,0,0,-10,1,0,0,0,132,132,48,1,,,,,,,,
,,,,,,,,,,,,,FF,,,,,,,,0.8365,,,,,,,,,,,,,,,,,,,,,,60feea86c2cd1da8825671bc,61036ed836f49f6fa45685a1,2021-07-29_23h16.57.145,Simcolourproject_2stim_asymm_v5,2020.2.10,Win32,60,61025ae37ef11b136ea224fe,,,,,,,,,3227,31,50,1,0,0,response1disk,,7,6,7,1,0,0,rectangle,6,7,1,0,0,6,7,1,0,0,0,133,133,69,1,,,,,,,,
,,,,,,,,,,,,,FF,,,,,,,,1.4361,,,,,,,,,,,,,,,,,,,,,,60feea86c2cd1da8825671bc,61036ed836f49f6fa45685a1,2021-07-29_23h16.57.145,Simcolourproject_2stim_asymm_v5,2020.2.10,Win32,60,61025ae37ef11b136ea224fe,,,,,,,,,558,36,-63,1,0,0,response3disk,,4,10,-8,1,0,0,rectangle,10,-8,1,0,0,10,-8,1,0,0,0,134,134,106,1,,,,,,,,
,,,,,,,,,,,,,FF,,,,,,,,1.1844,,,,,,,,,,,,,,,,,,,,,,60feea86c2cd1da8825671bc,61036ed836f49f6fa45685a1,2021-07-29_23h16.57.145,Simcolourproject_2stim_asymm_v5,2020.2.10,Win32,60,61025ae37ef11b136ea224fe,,,,,,,,,155,49,-27,1,0,0,response3disk,,5,11,-4,1,0,0,rectangle,11,-4,1,0,0,11,-4,1,0,0,0,135,135,12,1,,,,,,,,
,,,,,,,,,,,,,FF,,,,,,,,0.8168,,,,,,,,,,,,,,,,,,,,,,60feea86c2cd1da8825671bc,61036ed836f49f6fa45685a1,2021-07-29_23h16.57.145,Simcolourproject_2stim_asymm_v5,2020.2.10,Win32,60,61025ae37ef11b136ea224fe,,,,,,,,,2565,27,62,1,0,0,response1disk,,7,-2,5,1,0,0,rectangle,-2,5,1,0,0,-2,5,1,0,0,0,136,136,150,1,,,,,,,,
,,,,,,,,,,,,,FF,,,,,,,,0.9002,,,,,,,,,,,,,,,,,,,,,,60feea86c2cd1da8825671bc,61036ed836f49f6fa45685a1,2021-07-29_23h16.57.145,Simcolourproject_2stim_asymm_v5,2020.2.10,Win32,60,61025ae37ef11b136ea224fe,,,,,,,,,2331,39,66,1,0,0,response1disk,,7,3,2,1,0,0,rectangle,3,2,1,0,0,3,2,1,0,0,0,137,137,95,1,,,,,,,,
,,,,,,,,,,,,,FF,,,,,,,,1.1532,,,,,,,,,,,,,,,,,,,,,,60feea86c2cd1da8825671bc,61036ed836f49f6fa45685a1,2021-07-29_23h16.57.145,Simcolourproject_2stim_asymm_v5,2020.2.10,Win32,60,61025ae37ef11b136ea224fe,,,,,,,,,1581,18,-63,1,0,0,response3disk,,4,4,-10,1,0,0,rectangle,4,-10,1,0,0,4,-10,1,0,0,0,138,138,36,1,,,,,,,,
,,,,,,,,,,,,,FF,,,,,,,,1.1824,,,,,,,,,,,,,,,,,,,,,,60feea86c2cd1da8825671bc,61036ed836f49f6fa45685a1,2021-07-29_23h16.57.145,Simcolourproject_2stim_asymm_v5,2020.2.10,Win32,60,61025ae37ef11b136ea224fe,,,,,,,,,3924,-34,-43,1,0,0,response5disk,,3,-15,-12,1,0,0,rectangle,-15,-12,1,0,0,-15,-12,1,0,0,0,139,139,39,1,,,,,,,,
,,,,,,,,,,,,,FF,,,,,,,,3.4297,,,,,,,,,,,,,,,,,,,,,,60feea86c2cd1da8825671bc,61036ed836f49f6fa45685a1,2021-07-29_23h16.57.145,Simcolourproject_2stim_asymm_v5,2020.2.10,Win32,60,61025ae37ef11b136ea224fe,,,,,,,,,3387,70,56,1,0,0,response1disk,,6,20,17,1,0,0,rectangle,20,17,1,0,0,20,17,1,0,0,0,140,140,55,1,,,,,,,,
,,,,,,,,,,,,,FF,,,,,,,,0.6328,,,,,,,,,,,,,,,,,,,,,,60feea86c2cd1da8825671bc,61036ed836f49f6fa45685a1,2021-07-29_23h16.57.145,Simcolourproject_2stim_asymm_v5,2020.2.10,Win32,60,61025ae37ef11b136ea224fe,,,,,,,,,1925,58,52,1,0,0,response1disk,,6,-2,-7,1,0,0,rectangle,-2,-7,1,0,0,-2,-7,1,0,0,0,141,141,138,1,,,,,,,,
,,,,,,,,,,,,,FF,,,,,,,,1.0713,,,,,,,,,,,,,,,,,,,,,,60feea86c2cd1da8825671bc,61036ed836f49f6fa45685a1,2021-07-29_23h16.57.145,Simcolourproject_2stim_asymm_v5,2020.2.10,Win32,60,61025ae37ef11b136ea224fe,,,,,,,,,4028,43,-20,1,0,0,response3disk,,5,10,1,1,0,0,rectangle,10,1,1,0,0,10,1,1,0,0,0,142,142,43,1,,,,,,,,
,,,,,,,,,,,,,FF,,,,,,,,1.1331,,,,,,,,,,,,,,,,,,,,,,60feea86c2cd1da8825671bc,61036ed836f49f6fa45685a1,2021-07-29_23h16.57.145,Simcolourproject_2stim_asymm_v5,2020.2.10,Win32,60,61025ae37ef11b136ea224fe,,,,,,,,,1750,-32,-44,1,0,0,response5disk,,3,-12,-11,1,0,0,rectangle,-12,-11,1,0,0,-12,-11,1,0,0,0,143,143,93,1,,,,,,,,
,,,,,,,,,,,,,FF,,,,,,,,0.813,,,,,,,,,,,,,,,,,,,,,,60feea86c2cd1da8825671bc,61036ed836f49f6fa45685a1,2021-07-29_23h16.57.145,Simcolourproject_2stim_asymm_v5,2020.2.10,Win32,60,61025ae37ef11b136ea224fe,,,,,,,,,1186,22,55,1,0,0,response1disk,,7,-8,3,1,0,0,rectangle,-8,3,1,0,0,-8,3,1,0,0,0,144,144,11,1,,,,,,,,
,,,,,,,,,,,,,FF,,,,,,,,0.6171,,,,,,,,,,,,,,,,,,,,,,60feea86c2cd1da8825671bc,61036ed836f49f6fa45685a1,2021-07-29_23h16.57.145,Simcolourproject_2stim_asymm_v5,2020.2.10,Win32,60,61025ae37ef11b136ea224fe,,,,,,,,,3311,36,47,1,0,0,response1disk,,7,4,4,1,0,0,rectangle,4,4,1,0,0,4,4,1,0,0,0,145,145,109,1,,,,,,,,
,,,,,,,,,,,,,FF,,,,,,,,0.9497,,,,,,,,,,,,,,,,,,,,,,60feea86c2cd1da8825671bc,61036ed836f49f6fa45685a1,2021-07-29_23h16.57.145,Simcolourproject_2stim_asymm_v5,2020.2.10,Win32,60,61025ae37ef11b136ea224fe,,,,,,,,,639,-21,-60,1,0,0,response5disk,,3,20,-9,1,0,0,rectangle,20,-9,1,0,0,20,-9,1,0,0,0,146,146,100,1,,,,,,,,
,,,,,,,,,,,,,FF,,,,,,,,1.7151,,,,,,,,,,,,,,,,,,,,,,60feea86c2cd1da8825671bc,61036ed836f49f6fa45685a1,2021-07-29_23h16.57.145,Simcolourproject_2stim_asymm_v5,2020.2.10,Win32,60,61025ae37ef11b136ea224fe,,,,,,,,,3401,45,-33,1,0,0,response3disk,,5,7,-12,1,0,0,rectangle,7,-12,1,0,0,7,-12,1,0,0,0,147,147,155,1,,,,,,,,
,,,,,,,,,,,,,FF,,,,,,,,1.3983,,,,,,,,,,,,,,,,,,,,,,60feea86c2cd1da8825671bc,61036ed836f49f6fa45685a1,2021-07-29_23h16.57.145,Simcolourproject_2stim_asymm_v5,2020.2.10,Win32,60,61025ae37ef11b136ea224fe,,,,,,,,,1839,19,-66,1,0,0,response3disk,,4,1,-10,1,0,0,rectangle,1,-10,1,0,0,1,-10,1,0,0,0,148,148,76,1,,,,,,,,
,,,,,,,,,,,,,FF,,,,,,,,0.8692,,,,,,,,,,,,,,,,,,,,,,60feea86c2cd1da8825671bc,61036ed836f49f6fa45685a1,2021-07-29_23h16.57.145,Simcolourproject_2stim_asymm_v5,2020.2.10,Win32,60,61025ae37ef11b136ea224fe,,,,,,,,,1385,-47,-82,1,0,0,response5disk,,3,-2,-18,1,0,0,rectangle,-2,-18,1,0,0,-2,-18,1,0,0,0,149,149,145,1,,,,,,,,
,,,,,,,,,,,,,FF,,,,,,,,0.9496,,,,,,,,,,,,,,,,,,,,,,60feea86c2cd1da8825671bc,61036ed836f49f6fa45685a1,2021-07-29_23h16.57.145,Simcolourproject_2stim_asymm_v5,2020.2.10,Win32,60,61025ae37ef11b136ea224fe,,,,,,,,,858,32,70,1,0,0,response1disk,,7,0,9,1,0,0,rectangle,0,9,1,0,0,0,9,1,0,0,0,150,150,154,1,,,,,,,,
,,,,,,,,,,,,,FF,,,,,,,,0.886,,,,,,,,,,,,,,,,,,,,,,60feea86c2cd1da8825671bc,61036ed836f49f6fa45685a1,2021-07-29_23h16.57.145,Simcolourproject_2stim_asymm_v5,2020.2.10,Win32,60,61025ae37ef11b136ea224fe,,,,,,,,,3121,44,72,1,0,0,response1disk,,7,-11,1,1,0,0,rectangle,79,-40,1,0,0,22,4,1,0,0,0,151,151,94,1,,response3disk_3,TRUE,5,5,"[190,255,166,278,277,25,211,211,161,38,115,235,106,322,171,285,152,323,42,184]",1.8618,rectangle
,,,,,,,,,,,,,FF,,,,,,,,1.0463,,,,,,,,,,,,,,,,,,,,,,60feea86c2cd1da8825671bc,61036ed836f49f6fa45685a1,2021-07-29_23h16.57.145,Simcolourproject_2stim_asymm_v5,2020.2.10,Win32,60,61025ae37ef11b136ea224fe,,,,,,,,,3240,22,72,1,0,0,response1disk,,7,-2,0,1,0,0,rectangle,-2,0,1,0,0,-2,0,1,0,0,0,152,152,57,1,,,,,,,,
,,,,,,,,,,,,,FF,,,,,,,,0.7123,,,,,,,,,,,,,,,,,,,,,,60feea86c2cd1da8825671bc,61036ed836f49f6fa45685a1,2021-07-29_23h16.57.145,Simcolourproject_2stim_asymm_v5,2020.2.10,Win32,60,61025ae37ef11b136ea224fe,,,,,,,,,4272,18,40,1,0,0,response1disk,,7,-9,-11,1,0,0,rectangle,-9,-11,1,0,0,-9,-11,1,0,0,0,153,153,103,1,,,,,,,,
,,,,,,,,,,,,,FF,,,,,,,,1.229,,,,,,,,,,,,,,,,,,,,,,60feea86c2cd1da8825671bc,61036ed836f49f6fa45685a1,2021-07-29_23h16.57.145,Simcolourproject_2stim_asymm_v5,2020.2.10,Win32,60,61025ae37ef11b136ea224fe,,,,,,,,,862,73,-28,1,0,0,response3disk,,5,15,-6,1,0,0,rectangle,15,-6,1,0,0,15,-6,1,0,0,0,154,154,10,1,,,,,,,,
,,,,,,,,,,,,,FF,,,,,,,,0.9372,,,,,,,,,,,,,,,,,,,,,,60feea86c2cd1da8825671bc,61036ed836f49f6fa45685a1,2021-07-29_23h16.57.145,Simcolourproject_2stim_asymm_v5,2020.2.10,Win32,60,61025ae37ef11b136ea224fe,,,,,,,,,145,47,26,1,0,0,response1disk,,6,19,8,1,0,0,rectangle,19,8,1,0,0,19,8,1,0,0,0,155,155,22,1,,,,,,,,
,,,,,,,,,,,,,FF,,,,,,,,1.0368,,,,,,,,,,,,,,,,,,,,,,60feea86c2cd1da8825671bc,61036ed836f49f6fa45685a1,2021-07-29_23h16.57.145,Simcolourproject_2stim_asymm_v5,2020.2.10,Win32,60,61025ae37ef11b136ea224fe,,,,,,,,,2631,44,30,1,0,0,response1disk,,6,4,-14,1,0,0,rectangle,4,-14,1,0,0,4,-14,1,0,0,0,156,156,52,1,,,,,,,,
,,,,,,,,,,,,,FF,,,,,,,,0.6718,,,,,,,,,,,,,,,,,,,,,,60feea86c2cd1da8825671bc,61036ed836f49f6fa45685a1,2021-07-29_23h16.57.145,Simcolourproject_2stim_asymm_v5,2020.2.10,Win32,60,61025ae37ef11b136ea224fe,,,,,,,,,3409,35,27,1,0,0,response1disk,,6,20,6,1,0,0,rectangle,20,6,1,0,0,20,6,1,0,0,0,157,157,88,1,,,,,,,,
,,,,,,,,,,,,,FF,,,,,,,,0.7336,,,,,,,,,,,,,,,,,,,,,,60feea86c2cd1da8825671bc,61036ed836f49f6fa45685a1,2021-07-29_23h16.57.145,Simcolourproject_2stim_asymm_v5,2020.2.10,Win32,60,61025ae37ef11b136ea224fe,,,,,,,,,3755,46,32,1,0,0,response1disk,,6,23,7,1,0,0,rectangle,23,7,1,0,0,23,7,1,0,0,0,158,158,98,1,,,,,,,,
,,,,,,,,,,,,,FF,,,,,,,,0.864,,,,,,,,,,,,,,,,,,,,,,60feea86c2cd1da8825671bc,61036ed836f49f6fa45685a1,2021-07-29_23h16.57.145,Simcolourproject_2stim_asymm_v5,2020.2.10,Win32,60,61025ae37ef11b136ea224fe,,,,,,,,,2012,61,37,1,0,0,response1disk,,6,22,1,1,0,0,rectangle,22,1,1,0,0,22,1,1,0,0,0,159,159,105,1,,,,,,,,
,,,,,,,,,,,,,FF,,,,,,,,0.9985,,,,,,,,,,,,,,,,,,,,,,60feea86c2cd1da8825671bc,61036ed836f49f6fa45685a1,2021-07-29_23h16.57.145,Simcolourproject_2stim_asymm_v5,2020.2.10,Win32,60,61025ae37ef11b136ea224fe,,,,,,,,,3912,52,-34,1,0,0,response3disk,,5,16,-4,1,0,0,rectangle,99,51,1,0,0,17,5,1,0,0,1,0,160,61,1,,response1disk_3,TRUE,6,6,"[190,255,166,278,277,25,211,211,161,38,115,235,106,322,171,285,152,323,42,184]",1.8481,rectangle
,,,,,,,,,,,,,FF,,,,,,,,5.4478,,,,,,,,,,,,,,,,,,,,,,60feea86c2cd1da8825671bc,61036ed836f49f6fa45685a1,2021-07-29_23h16.57.145,Simcolourproject_2stim_asymm_v5,2020.2.10,Win32,60,61025ae37ef11b136ea224fe,,,,,,,,,161,49,-27,1,0,0,response3disk,,5,12,-6,1,0,0,rectangle,12,-6,1,0,0,12,-6,1,0,0,1,1,161,64,1,,,,,,,,
,,,,,,,,,,,,,FF,,,,,,,,0.9368,,,,,,,,,,,,,,,,,,,,,,60feea86c2cd1da8825671bc,61036ed836f49f6fa45685a1,2021-07-29_23h16.57.145,Simcolourproject_2stim_asymm_v5,2020.2.10,Win32,60,61025ae37ef11b136ea224fe,,,,,,,,,2045,29,-51,1,0,0,response3disk,,4,4,-7,1,0,0,rectangle,4,-7,1,0,0,4,-7,1,0,0,1,2,162,73,1,,,,,,,,
,,,,,,,,,,,,,FF,,,,,,,,1.0841,,,,,,,,,,,,,,,,,,,,,,60feea86c2cd1da8825671bc,61036ed836f49f6fa45685a1,2021-07-29_23h16.57.145,Simcolourproject_2stim_asymm_v5,2020.2.10,Win32,60,61025ae37ef11b136ea224fe,,,,,,,,,3321,57,47,1,0,0,response1disk,,6,13,6,1,0,0,rectangle,13,6,1,0,0,13,6,1,0,0,1,3,163,18,1,,,,,,,,
,,,,,,,,,,,,,FF,,,,,,,,0.8171,,,,,,,,,,,,,,,,,,,,,,60feea86c2cd1da8825671bc,61036ed836f49f6fa45685a1,2021-07-29_23h16.57.145,Simcolourproject_2stim_asymm_v5,2020.2.10,Win32,60,61025ae37ef11b136ea224fe,,,,,,,,,3248,-29,-46,1,0,0,response5disk,,3,5,-4,1,0,0,rectangle,5,-4,1,0,0,5,-4,1,0,0,1,4,164,4,1,,,,,,,,
,,,,,,,,,,,,,FF,,,,,,,,1.0166,,,,,,,,,,,,,,,,,,,,,,60feea86c2cd1da8825671bc,61036ed836f49f6fa45685a1,2021-07-29_23h16.57.145,Simcolourproject_2stim_asymm_v5,2020.2.10,Win32,60,61025ae37ef11b136ea224fe,,,,,,,,,3686,33,-30,1,0,0,response3disk,,5,8,-12,1,0,0,rectangle,72,-39,1,0,0,29,-5,1,0,0,1,5,165,3,1,,response3disk_3,TRUE,5,5,"[190,255,166,278,277,25,211,211,161,38,115,235,106,322,171,285,152,323,42,184]",1.5029,rectangle
,,,,,,,,,,,,,FF,,,,,,,,0.9158,,,,,,,,,,,,,,,,,,,,,,60feea86c2cd1da8825671bc,61036ed836f49f6fa45685a1,2021-07-29_23h16.57.145,Simcolourproject_2stim_asymm_v5,2020.2.10,Win32,60,61025ae37ef11b136ea224fe,,,,,,,,,3761,56,-27,1,0,0,response3disk,,5,17,-1,1,0,0,rectangle,17,-1,1,0,0,17,-1,1,0,0,1,6,166,29,1,,,,,,,,
,,,,,,,,,,,,,FF,,,,,,,,0.6673,,,,,,,,,,,,,,,,,,,,,,60feea86c2cd1da8825671bc,61036ed836f49f6fa45685a1,2021-07-29_23h16.57.145,Simcolourproject_2stim_asymm_v5,2020.2.10,Win32,60,61025ae37ef11b136ea224fe,,,,,,,,,1141,27,-39,1,0,0,response3disk,,4,9,9,1,0,0,rectangle,9,9,1,0,0,9,9,1,0,0,1,7,167,44,1,,,,,,,,
,,,,,,,,,,,,,FF,,,,,,,,0.7835,,,,,,,,,,,,,,,,,,,,,,60feea86c2cd1da8825671bc,61036ed836f49f6fa45685a1,2021-07-29_23h16.57.145,Simcolourproject_2stim_asymm_v5,2020.2.10,Win32,60,61025ae37ef11b136ea224fe,,,,,,,,,3806,25,48,1,0,0,response1disk,,7,10,8,1,0,0,rectangle,10,8,1,0,0,10,8,1,0,0,1,8,168,11,1,,,,,,,,
,,,,,,,,,,,,,FF,,,,,,,,1.003,,,,,,,,,,,,,,,,,,,,,,60feea86c2cd1da8825671bc,61036ed836f49f6fa45685a1,2021-07-29_23h16.57.145,Simcolourproject_2stim_asymm_v5,2020.2.10,Win32,60,61025ae37ef11b136ea224fe,,,,,,,,,4248,27,46,1,0,0,response1disk,,7,-1,-9,1,0,0,rectangle,-1,-9,1,0,0,-1,-9,1,0,0,1,9,169,16,1,,,,,,,,
,,,,,,,,,,,,,FF,,,,,,,,0.7672,,,,,,,,,,,,,,,,,,,,,,60feea86c2cd1da8825671bc,61036ed836f49f6fa45685a1,2021-07-29_23h16.57.145,Simcolourproject_2stim_asymm_v5,2020.2.10,Win32,60,61025ae37ef11b136ea224fe,,,,,,,,,2589,25,38,1,0,0,response1disk,,7,5,1,1,0,0,rectangle,56,-28,1,0,0,-13,4,1,0,0,1,10,170,10,1,,response3disk_3,TRUE,5,5,"[190,255,166,278,277,25,211,211,161,38,115,235,106,322,171,285,152,323,42,184]",1.597,rectangle
,,,,,,,,,,,,,FF,,,,,,,,0.8493,,,,,,,,,,,,,,,,,,,,,,60feea86c2cd1da8825671bc,61036ed836f49f6fa45685a1,2021-07-29_23h16.57.145,Simcolourproject_2stim_asymm_v5,2020.2.10,Win32,60,61025ae37ef11b136ea224fe,,,,,,,,,3168,25,52,1,0,0,response1disk,,7,-5,0,1,0,0,rectangle,-5,0,1,0,0,-5,0,1,0,0,1,11,171,147,1,,,,,,,,
,,,,,,,,,,,,,FF,,,,,,,,0.7687,,,,,,,,,,,,,,,,,,,,,,60feea86c2cd1da8825671bc,61036ed836f49f6fa45685a1,2021-07-29_23h16.57.145,Simcolourproject_2stim_asymm_v5,2020.2.10,Win32,60,61025ae37ef11b136ea224fe,,,,,,,,,1823,-47,-63,1,0,0,response5disk,,3,-6,0,1,0,0,rectangle,-6,0,1,0,0,-6,0,1,0,0,1,12,172,58,1,,,,,,,,
,,,,,,,,,,,,,FF,,,,,,,,0.8986,,,,,,,,,,,,,,,,,,,,,,60feea86c2cd1da8825671bc,61036ed836f49f6fa45685a1,2021-07-29_23h16.57.145,Simcolourproject_2stim_asymm_v5,2020.2.10,Win32,60,61025ae37ef11b136ea224fe,,,,,,,,,1447,-21,39,1,0,0,response7disk,,0,-13,16,1,0,0,rectangle,-13,16,1,0,0,-13,16,1,0,0,1,13,173,79,1,,,,,,,,
,,,,,,,,,,,,,FF,,,,,,,,1.5359,,,,,,,,,,,,,,,,,,,,,,60feea86c2cd1da8825671bc,61036ed836f49f6fa45685a1,2021-07-29_23h16.57.145,Simcolourproject_2stim_asymm_v5,2020.2.10,Win32,60,61025ae37ef11b136ea224fe,,,,,,,,,1316,35,-68,1,0,0,response3disk,,4,-17,5,1,0,0,rectangle,-17,5,1,0,0,-17,5,1,0,0,1,14,174,95,1,,,,,,,,
,,,,,,,,,,,,,FF,,,,,,,,0.7033,,,,,,,,,,,,,,,,,,,,,,60feea86c2cd1da8825671bc,61036ed836f49f6fa45685a1,2021-07-29_23h16.57.145,Simcolourproject_2stim_asymm_v5,2020.2.10,Win32,60,61025ae37ef11b136ea224fe,,,,,,,,,4136,37,58,1,0,0,response1disk,,7,16,14,1,0,0,rectangle,16,14,1,0,0,16,14,1,0,0,1,15,175,48,1,,,,,,,,
,,,,,,,,,,,,,FF,,,,,,,,1.3865,,,,,,,,,,,,,,,,,,,,,,60feea86c2cd1da8825671bc,61036ed836f49f6fa45685a1,2021-07-29_23h16.57.145,Simcolourproject_2stim_asymm_v5,2020.2.10,Win32,60,61025ae37ef11b136ea224fe,,,,,,,,,1375,34,-47,1,0,0,response3disk,,4,18,14,1,0,0,rectangle,18,14,1,0,0,18,14,1,0,0,1,16,176,105,1,,,,,,,,
,,,,,,,,,,,,,FF,,,,,,,,0.7036,,,,,,,,,,,,,,,,,,,,,,60feea86c2cd1da8825671bc,61036ed836f49f6fa45685a1,2021-07-29_23h16.57.145,Simcolourproject_2stim_asymm_v5,2020.2.10,Win32,60,61025ae37ef11b136ea224fe,,,,,,,,,2061,28,55,1,0,0,response1disk,,7,8,-3,1,0,0,rectangle,8,-3,1,0,0,8,-3,1,0,0,1,17,177,108,1,,,,,,,,
,,,,,,,,,,,,,FF,,,,,,,,0.9127,,,,,,,,,,,,,,,,,,,,,,60feea86c2cd1da8825671bc,61036ed836f49f6fa45685a1,2021-07-29_23h16.57.145,Simcolourproject_2stim_asymm_v5,2020.2.10,Win32,60,61025ae37ef11b136ea224fe,,,,,,,,,1448,-27,-59,1,0,0,response5disk,,3,2,-6,1,0,0,rectangle,2,-6,1,0,0,2,-6,1,0,0,1,18,178,65,1,,,,,,,,
,,,,,,,,,,,,,FF,,,,,,,,1.4614,,,,,,,,,,,,,,,,,,,,,,60feea86c2cd1da8825671bc,61036ed836f49f6fa45685a1,2021-07-29_23h16.57.145,Simcolourproject_2stim_asymm_v5,2020.2.10,Win32,60,61025ae37ef11b136ea224fe,,,,,,,,,246,57,-45,1,0,0,response3disk,,5,22,-14,1,0,0,rectangle,22,-14,1,0,0,22,-14,1,0,0,1,19,179,127,1,,,,,,,,
,,,,,,,,,,,,,FF,,,,,,,,0.8346,,,,,,,,,,,,,,,,,,,,,,60feea86c2cd1da8825671bc,61036ed836f49f6fa45685a1,2021-07-29_23h16.57.145,Simcolourproject_2stim_asymm_v5,2020.2.10,Win32,60,61025ae37ef11b136ea224fe,,,,,,,,,590,22,44,1,0,0,response1disk,,7,13,8,1,0,0,rectangle,13,8,1,0,0,13,8,1,0,0,1,20,180,134,1,,,,,,,,
,,,,,,,,,,,,,FF,,,,,,,,1.0154,,,,,,,,,,,,,,,,,,,,,,60feea86c2cd1da8825671bc,61036ed836f49f6fa45685a1,2021-07-29_23h16.57.145,Simcolourproject_2stim_asymm_v5,2020.2.10,Win32,60,61025ae37ef11b136ea224fe,,,,,,,,,286,57,-32,1,0,0,response3disk,,5,20,-2,1,0,0,rectangle,20,-2,1,0,0,20,-2,1,0,0,1,21,181,107,1,,,,,,,,
,,,,,,,,,,,,,FF,,,,,,,,0.8999,,,,,,,,,,,,,,,,,,,,,,60feea86c2cd1da8825671bc,61036ed836f49f6fa45685a1,2021-07-29_23h16.57.145,Simcolourproject_2stim_asymm_v5,2020.2.10,Win32,60,61025ae37ef11b136ea224fe,,,,,,,,,2348,46,37,1,0,0,response1disk,,6,-1,-14,1,0,0,rectangle,-1,-14,1,0,0,-1,-14,1,0,0,1,22,182,47,1,,,,,,,,
,,,,,,,,,,,,,FF,,,,,,,,2.8185,,,,,,,,,,,,,,,,,,,,,,60feea86c2cd1da8825671bc,61036ed836f49f6fa45685a1,2021-07-29_23h16.57.145,Simcolourproject_2stim_asymm_v5,2020.2.10,Win32,60,61025ae37ef11b136ea224fe,,,,,,,,,3283,45,-69,1,0,0,response3disk,,4,19,-13,1,0,0,rectangle,-41,-88,1,0,0,10,-5,1,0,0,1,23,183,69,1,,response5disk_3,TRUE,3,3,"[190,255,166,278,277,25,211,211,161,38,115,235,106,322,171,285,152,323,42,184]",1.5363,rectangle
,,,,,,,,,,,,,FF,,,,,,,,1.0827,,,,,,,,,,,,,,,,,,,,,,60feea86c2cd1da8825671bc,61036ed836f49f6fa45685a1,2021-07-29_23h16.57.145,Simcolourproject_2stim_asymm_v5,2020.2.10,Win32,60,61025ae37ef11b136ea224fe,,,,,,,,,1221,-19,-56,1,0,0,response5disk,,3,7,-3,1,0,0,rectangle,7,-3,1,0,0,7,-3,1,0,0,1,24,184,35,1,,,,,,,,
,,,,,,,,,,,,,FF,,,,,,,,1.5155,,,,,,,,,,,,,,,,,,,,,,60feea86c2cd1da8825671bc,61036ed836f49f6fa45685a1,2021-07-29_23h16.57.145,Simcolourproject_2stim_asymm_v5,2020.2.10,Win32,60,61025ae37ef11b136ea224fe,,,,,,,,,959,78,68,1,0,0,response1disk,,6,2,11,1,0,0,rectangle,2,11,1,0,0,2,11,1,0,0,1,25,185,124,1,,,,,,,,
,,,,,,,,,,,,,FF,,,,,,,,1.0501,,,,,,,,,,,,,,,,,,,,,,60feea86c2cd1da8825671bc,61036ed836f49f6fa45685a1,2021-07-29_23h16.57.145,Simcolourproject_2stim_asymm_v5,2020.2.10,Win32,60,61025ae37ef11b136ea224fe,,,,,,,,,1261,30,67,1,0,0,response1disk,,7,-9,0,1,0,0,rectangle,-9,0,1,0,0,-9,0,1,0,0,1,26,186,28,1,,,,,,,,
,,,,,,,,,,,,,FF,,,,,,,,1.2791,,,,,,,,,,,,,,,,,,,,,,60feea86c2cd1da8825671bc,61036ed836f49f6fa45685a1,2021-07-29_23h16.57.145,Simcolourproject_2stim_asymm_v5,2020.2.10,Win32,60,61025ae37ef11b136ea224fe,,,,,,,,,745,81,-38,1,0,0,response3disk,,5,34,3,1,0,0,rectangle,34,3,1,0,0,34,3,1,0,0,1,27,187,137,1,,,,,,,,
,,,,,,,,,,,,,FF,,,,,,,,0.7796,,,,,,,,,,,,,,,,,,,,,,60feea86c2cd1da8825671bc,61036ed836f49f6fa45685a1,2021-07-29_23h16.57.145,Simcolourproject_2stim_asymm_v5,2020.2.10,Win32,60,61025ae37ef11b136ea224fe,,,,,,,,,4204,26,-44,1,0,0,response3disk,,4,9,-11,1,0,0,rectangle,9,-11,1,0,0,9,-11,1,0,0,1,28,188,88,1,,,,,,,,
,,,,,,,,,,,,,FF,,,,,,,,0.6667,,,,,,,,,,,,,,,,,,,,,,60feea86c2cd1da8825671bc,61036ed836f49f6fa45685a1,2021-07-29_23h16.57.145,Simcolourproject_2stim_asymm_v5,2020.2.10,Win32,60,61025ae37ef11b136ea224fe,,,,,,,,,297,70,27,1,0,0,response1disk,,6,18,-12,1,0,0,rectangle,30,-86,1,0,0,5,-5,1,0,0,1,29,189,87,1,,response3disk_3,TRUE,4,4,"[190,255,166,278,277,25,211,211,161,38,115,235,106,322,171,285,152,323,42,184]",1.6517,rectangle
,,,,,,,,,,,,,FF,,,,,,,,1.0826,,,,,,,,,,,,,,,,,,,,,,60feea86c2cd1da8825671bc,61036ed836f49f6fa45685a1,2021-07-29_23h16.57.145,Simcolourproject_2stim_asymm_v5,2020.2.10,Win32,60,61025ae37ef11b136ea224fe,,,,,,,,,3866,73,44,1,0,0,response1disk,,6,28,8,1,0,0,rectangle,28,8,1,0,0,28,8,1,0,0,1,30,190,2,1,,,,,,,,
,,,,,,,,,,,,,FF,,,,,,,,0.9158,,,,,,,,,,,,,,,,,,,,,,60feea86c2cd1da8825671bc,61036ed836f49f6fa45685a1,2021-07-29_23h16.57.145,Simcolourproject_2stim_asymm_v5,2020.2.10,Win32,60,61025ae37ef11b136ea224fe,,,,,,,,,3916,46,-19,1,0,0,response3disk,,5,6,6,1,0,0,rectangle,6,6,1,0,0,6,6,1,0,0,1,31,191,26,1,,,,,,,,
,,,,,,,,,,,,,FF,,,,,,,,0.95,,,,,,,,,,,,,,,,,,,,,,60feea86c2cd1da8825671bc,61036ed836f49f6fa45685a1,2021-07-29_23h16.57.145,Simcolourproject_2stim_asymm_v5,2020.2.10,Win32,60,61025ae37ef11b136ea224fe,,,,,,,,,612,44,-24,1,0,0,response3disk,,5,19,-4,1,0,0,rectangle,19,-4,1,0,0,19,-4,1,0,0,1,32,192,110,1,,,,,,,,
,,,,,,,,,,,,,FF,,,,,,,,0.7869,,,,,,,,,,,,,,,,,,,,,,60feea86c2cd1da8825671bc,61036ed836f49f6fa45685a1,2021-07-29_23h16.57.145,Simcolourproject_2stim_asymm_v5,2020.2.10,Win32,60,61025ae37ef11b136ea224fe,,,,,,,,,3338,38,-23,1,0,0,response3disk,,5,14,-3,1,0,0,rectangle,14,-3,1,0,0,14,-3,1,0,0,1,33,193,92,1,,,,,,,,
,,,,,,,,,,,,,FF,,,,,,,,0.7877,,,,,,,,,,,,,,,,,,,,,,60feea86c2cd1da8825671bc,61036ed836f49f6fa45685a1,2021-07-29_23h16.57.145,Simcolourproject_2stim_asymm_v5,2020.2.10,Win32,60,61025ae37ef11b136ea224fe,,,,,,,,,3984,29,63,1,0,0,response1disk,,7,2,6,1,0,0,rectangle,2,6,1,0,0,2,6,1,0,0,1,34,194,57,1,,,,,,,,
,,,,,,,,,,,,,FF,,,,,,,,0.7661,,,,,,,,,,,,,,,,,,,,,,60feea86c2cd1da8825671bc,61036ed836f49f6fa45685a1,2021-07-29_23h16.57.145,Simcolourproject_2stim_asymm_v5,2020.2.10,Win32,60,61025ae37ef11b136ea224fe,,,,,,,,,3313,27,60,1,0,0,response1disk,,7,2,7,1,0,0,rectangle,2,7,1,0,0,2,7,1,0,0,1,35,195,81,1,,,,,,,,
,,,,,,,,,,,,,FF,,,,,,,,1.0003,,,,,,,,,,,,,,,,,,,,,,60feea86c2cd1da8825671bc,61036ed836f49f6fa45685a1,2021-07-29_23h16.57.145,Simcolourproject_2stim_asymm_v5,2020.2.10,Win32,60,61025ae37ef11b136ea224fe,,,,,,,,,1213,-28,-52,1,0,0,response5disk,,3,-10,-10,1,0,0,rectangle,-10,-10,1,0,0,-10,-10,1,0,0,1,36,196,21,1,,,,,,,,
,,,,,,,,,,,,,FF,,,,,,,,1.4164,,,,,,,,,,,,,,,,,,,,,,60feea86c2cd1da8825671bc,61036ed836f49f6fa45685a1,2021-07-29_23h16.57.145,Simcolourproject_2stim_asymm_v5,2020.2.10,Win32,60,61025ae37ef11b136ea224fe,,,,,,,,,2106,38,-46,1,0,0,response3disk,,4,10,3,1,0,0,rectangle,10,3,1,0,0,10,3,1,0,0,1,37,197,60,1,,,,,,,,
,,,,,,,,,,,,,FF,,,,,,,,0.9368,,,,,,,,,,,,,,,,,,,,,,60feea86c2cd1da8825671bc,61036ed836f49f6fa45685a1,2021-07-29_23h16.57.145,Simcolourproject_2stim_asymm_v5,2020.2.10,Win32,60,61025ae37ef11b136ea224fe,,,,,,,,,2675,42,33,1,0,0,response1disk,,6,15,9,1,0,0,rectangle,15,9,1,0,0,15,9,1,0,0,1,38,198,36,1,,,,,,,,
,,,,,,,,,,,,,FF,,,,,,,,1.1454,,,,,,,,,,,,,,,,,,,,,,60feea86c2cd1da8825671bc,61036ed836f49f6fa45685a1,2021-07-29_23h16.57.145,Simcolourproject_2stim_asymm_v5,2020.2.10,Win32,60,61025ae37ef11b136ea224fe,,,,,,,,,3077,36,56,1,0,0,response1disk,,7,11,-2,1,0,0,rectangle,11,-2,1,0,0,11,-2,1,0,0,1,39,199,52,1,,,,,,,,
,,,,,,,,,,,,,FF,,,,,,,,0.899,,,,,,,,,,,,,,,,,,,,,,60feea86c2cd1da8825671bc,61036ed836f49f6fa45685a1,2021-07-29_23h16.57.145,Simcolourproject_2stim_asymm_v5,2020.2.10,Win32,60,61025ae37ef11b136ea224fe,,,,,,,,,903,38,-27,1,0,0,response3disk,,5,9,-1,1,0,0,rectangle,9,-1,1,0,0,9,-1,1,0,0,1,40,200,119,1,,,,,,,,
,,,,,,,,,,,,,FF,,,,,,,,0.8492,,,,,,,,,,,,,,,,,,,,,,60feea86c2cd1da8825671bc,61036ed836f49f6fa45685a1,2021-07-29_23h16.57.145,Simcolourproject_2stim_asymm_v5,2020.2.10,Win32,60,61025ae37ef11b136ea224fe,,,,,,,,,1537,-19,-47,1,0,0,response5disk,,3,24,8,1,0,0,rectangle,24,8,1,0,0,24,8,1,0,0,1,41,201,157,1,,,,,,,,
,,,,,,,,,,,,,FF,,,,,,,,1.5994,,,,,,,,,,,,,,,,,,,,,,60feea86c2cd1da8825671bc,61036ed836f49f6fa45685a1,2021-07-29_23h16.57.145,Simcolourproject_2stim_asymm_v5,2020.2.10,Win32,60,61025ae37ef11b136ea224fe,,,,,,,,,1313,18,-55,1,0,0,response3disk,,4,5,-5,1,0,0,rectangle,5,-5,1,0,0,5,-5,1,0,0,1,42,202,153,1,,,,,,,,
,,,,,,,,,,,,,FF,,,,,,,,1.4456,,,,,,,,,,,,,,,,,,,,,,60feea86c2cd1da8825671bc,61036ed836f49f6fa45685a1,2021-07-29_23h16.57.145,Simcolourproject_2stim_asymm_v5,2020.2.10,Win32,60,61025ae37ef11b136ea224fe,,,,,,,,,313,63,26,1,0,0,response1disk,,6,20,6,1,0,0,rectangle,20,6,1,0,0,20,6,1,0,0,1,43,203,49,1,,,,,,,,
,,,,,,,,,,,,,FF,,,,,,,,0.9538,,,,,,,,,,,,,,,,,,,,,,60feea86c2cd1da8825671bc,61036ed836f49f6fa45685a1,2021-07-29_23h16.57.145,Simcolourproject_2stim_asymm_v5,2020.2.10,Win32,60,61025ae37ef11b136ea224fe,,,,,,,,,2872,41,30,1,0,0,response1disk,,6,-1,-7,1,0,0,rectangle,-1,-7,1,0,0,-1,-7,1,0,0,1,44,204,106,1,,,,,,,,
,,,,,,,,,,,,,FF,,,,,,,,1.051,,,,,,,,,,,,,,,,,,,,,,60feea86c2cd1da8825671bc,61036ed836f49f6fa45685a1,2021-07-29_23h16.57.145,Simcolourproject_2stim_asymm_v5,2020.2.10,Win32,60,61025ae37ef11b136ea224fe,,,,,,,,,928,28,44,1,0,0,response1disk,,7,10,5,1,0,0,rectangle,10,5,1,0,0,10,5,1,0,0,1,45,205,77,1,,,,,,,,
,,,,,,,,,,,,,FF,,,,,,,,1.0984,,,,,,,,,,,,,,,,,,,,,,60feea86c2cd1da8825671bc,61036ed836f49f6fa45685a1,2021-07-29_23h16.57.145,Simcolourproject_2stim_asymm_v5,2020.2.10,Win32,60,61025ae37ef11b136ea224fe,,,,,,,,,4141,-36,-63,1,0,0,response5disk,,3,9,-2,1,0,0,rectangle,9,-2,1,0,0,9,-2,1,0,0,1,46,206,34,1,,,,,,,,
,,,,,,,,,,,,,FF,,,,,,,,1.1817,,,,,,,,,,,,,,,,,,,,,,60feea86c2cd1da8825671bc,61036ed836f49f6fa45685a1,2021-07-29_23h16.57.145,Simcolourproject_2stim_asymm_v5,2020.2.10,Win32,60,61025ae37ef11b136ea224fe,,,,,,,,,414,39,42,1,0,0,response1disk,,7,22,9,1,0,0,rectangle,22,9,1,0,0,22,9,1,0,0,1,47,207,86,1,,,,,,,,
,,,,,,,,,,,,,FF,,,,,,,,0.9654,,,,,,,,,,,,,,,,,,,,,,60feea86c2cd1da8825671bc,61036ed836f49f6fa45685a1,2021-07-29_23h16.57.145,Simcolourproject_2stim_asymm_v5,2020.2.10,Win32,60,61025ae37ef11b136ea224fe,,,,,,,,,2367,50,-28,1,0,0,response3disk,,5,16,-9,1,0,0,rectangle,16,-9,1,0,0,16,-9,1,0,0,1,48,208,123,1,,,,,,,,
,,,,,,,,,,,,,FF,,,,,,,,1.1542,,,,,,,,,,,,,,,,,,,,,,60feea86c2cd1da8825671bc,61036ed836f49f6fa45685a1,2021-07-29_23h16.57.145,Simcolourproject_2stim_asymm_v5,2020.2.10,Win32,60,61025ae37ef11b136ea224fe,,,,,,,,,1158,32,-28,1,0,0,response3disk,,5,15,-16,1,0,0,rectangle,15,-16,1,0,0,15,-16,1,0,0,1,49,209,82,1,,,,,,,,
,,,,,,,,,,,,,FF,,,,,,,,0.9366,,,,,,,,,,,,,,,,,,,,,,60feea86c2cd1da8825671bc,61036ed836f49f6fa45685a1,2021-07-29_23h16.57.145,Simcolourproject_2stim_asymm_v5,2020.2.10,Win32,60,61025ae37ef11b136ea224fe,,,,,,,,,3594,30,-41,1,0,0,response3disk,,4,17,-6,1,0,0,rectangle,-30,-55,1,0,0,-5,-5,1,0,0,1,50,210,42,1,,response5disk_3,TRUE,3,3,"[190,255,166,278,277,25,211,211,161,38,115,235,106,322,171,285,152,323,42,184]",1.3866,rectangle
,,,,,,,,,,,,,FF,,,,,,,,1.2676,,,,,,,,,,,,,,,,,,,,,,60feea86c2cd1da8825671bc,61036ed836f49f6fa45685a1,2021-07-29_23h16.57.145,Simcolourproject_2stim_asymm_v5,2020.2.10,Win32,60,61025ae37ef11b136ea224fe,,,,,,,,,3496,50,29,1,0,0,response1disk,,6,14,-3,1,0,0,rectangle,14,-3,1,0,0,14,-3,1,0,0,1,51,211,132,1,,,,,,,,
,,,,,,,,,,,,,FF,,,,,,,,0.8003,,,,,,,,,,,,,,,,,,,,,,60feea86c2cd1da8825671bc,61036ed836f49f6fa45685a1,2021-07-29_23h16.57.145,Simcolourproject_2stim_asymm_v5,2020.2.10,Win32,60,61025ae37ef11b136ea224fe,,,,,,,,,1352,42,21,1,0,0,response1disk,,6,25,12,1,0,0,rectangle,25,12,1,0,0,25,12,1,0,0,1,52,212,30,1,,,,,,,,
,,,,,,,,,,,,,FF,,,,,,,,0.6673,,,,,,,,,,,,,,,,,,,,,,60feea86c2cd1da8825671bc,61036ed836f49f6fa45685a1,2021-07-29_23h16.57.145,Simcolourproject_2stim_asymm_v5,2020.2.10,Win32,60,61025ae37ef11b136ea224fe,,,,,,,,,2759,60,38,1,0,0,response1disk,,6,29,7,1,0,0,rectangle,29,7,1,0,0,29,7,1,0,0,1,53,213,104,1,,,,,,,,
,,,,,,,,,,,,,FF,,,,,,,,0.8868,,,,,,,,,,,,,,,,,,,,,,60feea86c2cd1da8825671bc,61036ed836f49f6fa45685a1,2021-07-29_23h16.57.145,Simcolourproject_2stim_asymm_v5,2020.2.10,Win32,60,61025ae37ef11b136ea224fe,,,,,,,,,4307,31,57,1,0,0,response1disk,,7,12,3,1,0,0,rectangle,12,3,1,0,0,12,3,1,0,0,1,54,214,59,1,,,,,,,,
,,,,,,,,,,,,,FF,,,,,,,,0.6654,,,,,,,,,,,,,,,,,,,,,,60feea86c2cd1da8825671bc,61036ed836f49f6fa45685a1,2021-07-29_23h16.57.145,Simcolourproject_2stim_asymm_v5,2020.2.10,Win32,60,61025ae37ef11b136ea224fe,,,,,,,,,498,20,43,1,0,0,response1disk,,7,5,12,1,0,0,rectangle,5,12,1,0,0,5,12,1,0,0,1,55,215,155,1,,,,,,,,
,,,,,,,,,,,,,FF,,,,,,,,0.6993,,,,,,,,,,,,,,,,,,,,,,60feea86c2cd1da8825671bc,61036ed836f49f6fa45685a1,2021-07-29_23h16.57.145,Simcolourproject_2stim_asymm_v5,2020.2.10,Win32,60,61025ae37ef11b136ea224fe,,,,,,,,,3269,31,55,1,0,0,response1disk,,7,-1,4,1,0,0,rectangle,-1,4,1,0,0,-1,4,1,0,0,1,56,216,83,1,,,,,,,,
,,,,,,,,,,,,,FF,,,,,,,,0.7656,,,,,,,,,,,,,,,,,,,,,,60feea86c2cd1da8825671bc,61036ed836f49f6fa45685a1,2021-07-29_23h16.57.145,Simcolourproject_2stim_asymm_v5,2020.2.10,Win32,60,61025ae37ef11b136ea224fe,,,,,,,,,1182,23,45,1,0,0,response1disk,,7,-6,-5,1,0,0,rectangle,-6,-5,1,0,0,-6,-5,1,0,0,1,57,217,156,1,,,,,,,,
,,,,,,,,,,,,,FF,,,,,,,,0.6796,,,,,,,,,,,,,,,,,,,,,,60feea86c2cd1da8825671bc,61036ed836f49f6fa45685a1,2021-07-29_23h16.57.145,Simcolourproject_2stim_asymm_v5,2020.2.10,Win32,60,61025ae37ef11b136ea224fe,,,,,,,,,2460,22,45,1,0,0,response1disk,,7,5,7,1,0,0,rectangle,5,7,1,0,0,5,7,1,0,0,1,58,218,22,1,,,,,,,,
,,,,,,,,,,,,,FF,,,,,,,,1.5044,,,,,,,,,,,,,,,,,,,,,,60feea86c2cd1da8825671bc,61036ed836f49f6fa45685a1,2021-07-29_23h16.57.145,Simcolourproject_2stim_asymm_v5,2020.2.10,Win32,60,61025ae37ef11b136ea224fe,,,,,,,,,2898,-28,-58,1,0,0,response5disk,,3,0,-7,1,0,0,rectangle,0,-7,1,0,0,0,-7,1,0,0,1,59,219,46,1,,,,,,,,
,,,,,,,,,,,,,FF,,,,,,,,0.915,,,,,,,,,,,,,,,,,,,,,,60feea86c2cd1da8825671bc,61036ed836f49f6fa45685a1,2021-07-29_23h16.57.145,Simcolourproject_2stim_asymm_v5,2020.2.10,Win32,60,61025ae37ef11b136ea224fe,,,,,,,,,4174,33,63,1,0,0,response1disk,,7,0,8,1,0,0,rectangle,0,8,1,0,0,0,8,1,0,0,1,60,220,111,1,,,,,,,,
,,,,,,,,,,,,,FF,,,,,,,,0.9855,,,,,,,,,,,,,,,,,,,,,,60feea86c2cd1da8825671bc,61036ed836f49f6fa45685a1,2021-07-29_23h16.57.145,Simcolourproject_2stim_asymm_v5,2020.2.10,Win32,60,61025ae37ef11b136ea224fe,,,,,,,,,3724,36,26,1,0,0,response1disk,,6,13,13,1,0,0,rectangle,13,13,1,0,0,13,13,1,0,0,1,61,221,70,1,,,,,,,,
,,,,,,,,,,,,,FF,,,,,,,,0.983,,,,,,,,,,,,,,,,,,,,,,60feea86c2cd1da8825671bc,61036ed836f49f6fa45685a1,2021-07-29_23h16.57.145,Simcolourproject_2stim_asymm_v5,2020.2.10,Win32,60,61025ae37ef11b136ea224fe,,,,,,,,,4237,-58,-26,1,0,0,response5disk,,2,-15,5,1,0,0,rectangle,-15,5,1,0,0,-15,5,1,0,0,1,62,222,24,1,,,,,,,,
,,,,,,,,,,,,,FF,,,,,,,,0.9835,,,,,,,,,,,,,,,,,,,,,,60feea86c2cd1da8825671bc,61036ed836f49f6fa45685a1,2021-07-29_23h16.57.145,Simcolourproject_2stim_asymm_v5,2020.2.10,Win32,60,61025ae37ef11b136ea224fe,,,,,,,,,4271,34,80,1,0,0,response1disk,,7,5,14,1,0,0,rectangle,5,14,1,0,0,5,14,1,0,0,1,63,223,51,1,,,,,,,,
,,,,,,,,,,,,,FF,,,,,,,,1.0663,,,,,,,,,,,,,,,,,,,,,,60feea86c2cd1da8825671bc,61036ed836f49f6fa45685a1,2021-07-29_23h16.57.145,Simcolourproject_2stim_asymm_v5,2020.2.10,Win32,60,61025ae37ef11b136ea224fe,,,,,,,,,2727,30,-47,1,0,0,response3disk,,4,13,-4,1,0,0,rectangle,13,-4,1,0,0,13,-4,1,0,0,1,64,224,133,1,,,,,,,,
,,,,,,,,,,,,,FF,,,,,,,,1.5546,,,,,,,,,,,,,,,,,,,,,,60feea86c2cd1da8825671bc,61036ed836f49f6fa45685a1,2021-07-29_23h16.57.145,Simcolourproject_2stim_asymm_v5,2020.2.10,Win32,60,61025ae37ef11b136ea224fe,,,,,,,,,1039,48,-21,1,0,0,response3disk,,5,9,-6,1,0,0,rectangle,9,-6,1,0,0,9,-6,1,0,0,1,65,225,33,1,,,,,,,,
,,,,,,,,,,,,,FF,,,,,,,,0.8658,,,,,,,,,,,,,,,,,,,,,,60feea86c2cd1da8825671bc,61036ed836f49f6fa45685a1,2021-07-29_23h16.57.145,Simcolourproject_2stim_asymm_v5,2020.2.10,Win32,60,61025ae37ef11b136ea224fe,,,,,,,,,3241,22,52,1,0,0,response1disk,,7,6,3,1,0,0,rectangle,6,3,1,0,0,6,3,1,0,0,1,66,226,102,1,,,,,,,,
,,,,,,,,,,,,,FF,,,,,,,,1.2869,,,,,,,,,,,,,,,,,,,,,,60feea86c2cd1da8825671bc,61036ed836f49f6fa45685a1,2021-07-29_23h16.57.145,Simcolourproject_2stim_asymm_v5,2020.2.10,Win32,60,61025ae37ef11b136ea224fe,,,,,,,,,2716,57,-30,1,0,0,response3disk,,5,13,-4,1,0,0,rectangle,13,-4,1,0,0,13,-4,1,0,0,1,67,227,91,1,,,,,,,,
,,,,,,,,,,,,,FF,,,,,,,,1.3491,,,,,,,,,,,,,,,,,,,,,,60feea86c2cd1da8825671bc,61036ed836f49f6fa45685a1,2021-07-29_23h16.57.145,Simcolourproject_2stim_asymm_v5,2020.2.10,Win32,60,61025ae37ef11b136ea224fe,,,,,,,,,3743,-33,-43,1,0,0,response5disk,,3,-7,-8,1,0,0,rectangle,-7,-8,1,0,0,-7,-8,1,0,0,1,68,228,78,1,,,,,,,,
,,,,,,,,,,,,,FF,,,,,,,,0.8369,,,,,,,,,,,,,,,,,,,,,,60feea86c2cd1da8825671bc,61036ed836f49f6fa45685a1,2021-07-29_23h16.57.145,Simcolourproject_2stim_asymm_v5,2020.2.10,Win32,60,61025ae37ef11b136ea224fe,,,,,,,,,666,39,-23,1,0,0,response3disk,,5,4,-2,1,0,0,rectangle,4,-2,1,0,0,4,-2,1,0,0,1,69,229,8,1,,,,,,,,
,,,,,,,,,,,,,FF,,,,,,,,0.9289,,,,,,,,,,,,,,,,,,,,,,60feea86c2cd1da8825671bc,61036ed836f49f6fa45685a1,2021-07-29_23h16.57.145,Simcolourproject_2stim_asymm_v5,2020.2.10,Win32,60,61025ae37ef11b136ea224fe,,,,,,,,,2785,25,-49,1,0,0,response3disk,,4,10,-5,1,0,0,rectangle,10,-5,1,0,0,10,-5,1,0,0,1,70,230,99,1,,,,,,,,
,,,,,,,,,,,,,FF,,,,,,,,0.946,,,,,,,,,,,,,,,,,,,,,,60feea86c2cd1da8825671bc,61036ed836f49f6fa45685a1,2021-07-29_23h16.57.145,Simcolourproject_2stim_asymm_v5,2020.2.10,Win32,60,61025ae37ef11b136ea224fe,,,,,,,,,4092,24,28,1,0,0,response1disk,,7,19,-1,1,0,0,rectangle,19,-1,1,0,0,19,-1,1,0,0,1,71,231,13,1,,,,,,,,
,,,,,,,,,,,,,FF,,,,,,,,0.836,,,,,,,,,,,,,,,,,,,,,,60feea86c2cd1da8825671bc,61036ed836f49f6fa45685a1,2021-07-29_23h16.57.145,Simcolourproject_2stim_asymm_v5,2020.2.10,Win32,60,61025ae37ef11b136ea224fe,,,,,,,,,1245,42,31,1,0,0,response1disk,,6,16,1,1,0,0,rectangle,16,1,1,0,0,16,1,1,0,0,1,72,232,31,1,,,,,,,,
,,,,,,,,,,,,,FF,,,,,,,,0.8334,,,,,,,,,,,,,,,,,,,,,,60feea86c2cd1da8825671bc,61036ed836f49f6fa45685a1,2021-07-29_23h16.57.145,Simcolourproject_2stim_asymm_v5,2020.2.10,Win32,60,61025ae37ef11b136ea224fe,,,,,,,,,606,52,35,1,0,0,response1disk,,6,29,7,1,0,0,rectangle,29,7,1,0,0,29,7,1,0,0,1,73,233,71,1,,,,,,,,
,,,,,,,,,,,,,FF,,,,,,,,0.8538,,,,,,,,,,,,,,,,,,,,,,60feea86c2cd1da8825671bc,61036ed836f49f6fa45685a1,2021-07-29_23h16.57.145,Simcolourproject_2stim_asymm_v5,2020.2.10,Win32,60,61025ae37ef11b136ea224fe,,,,,,,,,2240,29,-47,1,0,0,response3disk,,4,18,-12,1,0,0,rectangle,72,42,1,0,0,-3,-13,1,0,0,1,74,234,93,1,,response1disk_3,TRUE,6,6,"[190,255,166,278,277,25,211,211,161,38,115,235,106,322,171,285,152,323,42,184]",1.5446,rectangle
,,,,,,,,,,,,,FF,,,,,,,,2.9009,,,,,,,,,,,,,,,,,,,,,,60feea86c2cd1da8825671bc,61036ed836f49f6fa45685a1,2021-07-29_23h16.57.145,Simcolourproject_2stim_asymm_v5,2020.2.10,Win32,60,61025ae37ef11b136ea224fe,,,,,,,,,2113,61,38,1,0,0,response1disk,,6,27,-4,1,0,0,rectangle,27,-4,1,0,0,27,-4,1,0,0,1,75,235,89,1,,,,,,,,
,,,,,,,,,,,,,FF,,,,,,,,0.9332,,,,,,,,,,,,,,,,,,,,,,60feea86c2cd1da8825671bc,61036ed836f49f6fa45685a1,2021-07-29_23h16.57.145,Simcolourproject_2stim_asymm_v5,2020.2.10,Win32,60,61025ae37ef11b136ea224fe,,,,,,,,,109,46,26,1,0,0,response1disk,,6,9,-14,1,0,0,rectangle,9,-14,1,0,0,9,-14,1,0,0,1,76,236,68,1,,,,,,,,
,,,,,,,,,,,,,FF,,,,,,,,0.7335,,,,,,,,,,,,,,,,,,,,,,60feea86c2cd1da8825671bc,61036ed836f49f6fa45685a1,2021-07-29_23h16.57.145,Simcolourproject_2stim_asymm_v5,2020.2.10,Win32,60,61025ae37ef11b136ea224fe,,,,,,,,,783,51,27,1,0,0,response1disk,,6,18,-4,1,0,0,rectangle,18,-4,1,0,0,18,-4,1,0,0,1,77,237,144,1,,,,,,,,
,,,,,,,,,,,,,FF,,,,,,,,0.8043,,,,,,,,,,,,,,,,,,,,,,60feea86c2cd1da8825671bc,61036ed836f49f6fa45685a1,2021-07-29_23h16.57.145,Simcolourproject_2stim_asymm_v5,2020.2.10,Win32,60,61025ae37ef11b136ea224fe,,,,,,,,,4325,34,61,1,0,0,response1disk,,7,11,10,1,0,0,rectangle,11,10,1,0,0,11,10,1,0,0,1,78,238,27,1,,,,,,,,
,,,,,,,,,,,,,FF,,,,,,,,0.6703,,,,,,,,,,,,,,,,,,,,,,60feea86c2cd1da8825671bc,61036ed836f49f6fa45685a1,2021-07-29_23h16.57.145,Simcolourproject_2stim_asymm_v5,2020.2.10,Win32,60,61025ae37ef11b136ea224fe,,,,,,,,,572,32,54,1,0,0,response1disk,,7,8,6,1,0,0,rectangle,8,6,1,0,0,8,6,1,0,0,1,79,239,148,1,,,,,,,,
,,,,,,,,,,,,,FF,,,,,,,,0.6672,,,,,,,,,,,,,,,,,,,,,,60feea86c2cd1da8825671bc,61036ed836f49f6fa45685a1,2021-07-29_23h16.57.145,Simcolourproject_2stim_asymm_v5,2020.2.10,Win32,60,61025ae37ef11b136ea224fe,,,,,,,,,3534,25,48,1,0,0,response1disk,,7,-1,-2,1,0,0,rectangle,-1,-2,1,0,0,-1,-2,1,0,0,1,80,240,54,1,,,,,,,,
,,,,,,,,,,,,,FF,,,,,,,,1.327,,,,,,,,,,,,,,,,,,,,,,60feea86c2cd1da8825671bc,61036ed836f49f6fa45685a1,2021-07-29_23h16.57.145,Simcolourproject_2stim_asymm_v5,2020.2.10,Win32,60,61025ae37ef11b136ea224fe,,,,,,,,,3818,-74,-55,1,0,0,response5disk,,2,-12,-2,1,0,0,rectangle,-12,-2,1,0,0,-12,-2,1,0,0,1,81,241,19,1,,,,,,,,
,,,,,,,,,,,,,FF,,,,,,,,2.5805,,,,,,,,,,,,,,,,,,,,,,60feea86c2cd1da8825671bc,61036ed836f49f6fa45685a1,2021-07-29_23h16.57.145,Simcolourproject_2stim_asymm_v5,2020.2.10,Win32,60,61025ae37ef11b136ea224fe,,,,,,,,,2303,73,-42,1,0,0,response3disk,,5,8,-11,1,0,0,rectangle,8,-11,1,0,0,8,-11,1,0,0,1,82,242,25,1,,,,,,,,
,,,,,,,,,,,,,FF,,,,,,,,0.9009,,,,,,,,,,,,,,,,,,,,,,60feea86c2cd1da8825671bc,61036ed836f49f6fa45685a1,2021-07-29_23h16.57.145,Simcolourproject_2stim_asymm_v5,2020.2.10,Win32,60,61025ae37ef11b136ea224fe,,,,,,,,,478,47,36,1,0,0,response1disk,,6,16,6,1,0,0,rectangle,16,6,1,0,0,16,6,1,0,0,1,83,243,151,1,,,,,,,,
,,,,,,,,,,,,,FF,,,,,,,,0.8324,,,,,,,,,,,,,,,,,,,,,,60feea86c2cd1da8825671bc,61036ed836f49f6fa45685a1,2021-07-29_23h16.57.145,Simcolourproject_2stim_asymm_v5,2020.2.10,Win32,60,61025ae37ef11b136ea224fe,,,,,,,,,1739,48,31,1,0,0,response1disk,,6,14,-7,1,0,0,rectangle,14,-7,1,0,0,14,-7,1,0,0,1,84,244,90,1,,,,,,,,
,,,,,,,,,,,,,FF,,,,,,,,0.7454,,,,,,,,,,,,,,,,,,,,,,60feea86c2cd1da8825671bc,61036ed836f49f6fa45685a1,2021-07-29_23h16.57.145,Simcolourproject_2stim_asymm_v5,2020.2.10,Win32,60,61025ae37ef11b136ea224fe,,,,,,,,,3799,22,40,1,0,0,response1disk,,7,5,-4,1,0,0,rectangle,5,-4,1,0,0,5,-4,1,0,0,1,85,245,75,1,,,,,,,,
,,,,,,,,,,,,,FF,,,,,,,,1.4316,,,,,,,,,,,,,,,,,,,,,,60feea86c2cd1da8825671bc,61036ed836f49f6fa45685a1,2021-07-29_23h16.57.145,Simcolourproject_2stim_asymm_v5,2020.2.10,Win32,60,61025ae37ef11b136ea224fe,,,,,,,,,3397,31,-75,1,0,0,response3disk,,4,0,-10,1,0,0,rectangle,0,-10,1,0,0,0,-10,1,0,0,1,86,246,143,1,,,,,,,,
,,,,,,,,,,,,,FF,,,,,,,,0.8626,,,,,,,,,,,,,,,,,,,,,,60feea86c2cd1da8825671bc,61036ed836f49f6fa45685a1,2021-07-29_23h16.57.145,Simcolourproject_2stim_asymm_v5,2020.2.10,Win32,60,61025ae37ef11b136ea224fe,,,,,,,,,2035,-28,-41,1,0,0,response5disk,,3,-3,-2,1,0,0,rectangle,-3,-2,1,0,0,-3,-2,1,0,0,1,87,247,103,1,,,,,,,,
,,,,,,,,,,,,,FF,,,,,,,,1.0034,,,,,,,,,,,,,,,,,,,,,,60feea86c2cd1da8825671bc,61036ed836f49f6fa45685a1,2021-07-29_23h16.57.145,Simcolourproject_2stim_asymm_v5,2020.2.10,Win32,60,61025ae37ef11b136ea224fe,,,,,,,,,2886,-28,38,1,0,0,response7disk,,0,-8,4,1,0,0,rectangle,-8,4,1,0,0,-8,4,1,0,0,1,88,248,6,1,,,,,,,,
,,,,,,,,,,,,,FF,,,,,,,,1.3822,,,,,,,,,,,,,,,,,,,,,,60feea86c2cd1da8825671bc,61036ed836f49f6fa45685a1,2021-07-29_23h16.57.145,Simcolourproject_2stim_asymm_v5,2020.2.10,Win32,60,61025ae37ef11b136ea224fe,,,,,,,,,3040,-38,-44,1,0,0,response5disk,,3,-15,-10,1,0,0,rectangle,-15,-10,1,0,0,-15,-10,1,0,0,1,89,249,39,1,,,,,,,,
,,,,,,,,,,,,,FF,,,,,,,,1.2282,,,,,,,,,,,,,,,,,,,,,,60feea86c2cd1da8825671bc,61036ed836f49f6fa45685a1,2021-07-29_23h16.57.145,Simcolourproject_2stim_asymm_v5,2020.2.10,Win32,60,61025ae37ef11b136ea224fe,,,,,,,,,1426,68,-37,1,0,0,response3disk,,5,22,1,1,0,0,rectangle,22,1,1,0,0,22,1,1,0,0,1,90,250,80,1,,,,,,,,
,,,,,,,,,,,,,FF,,,,,,,,1.2744,,,,,,,,,,,,,,,,,,,,,,60feea86c2cd1da8825671bc,61036ed836f49f6fa45685a1,2021-07-29_23h16.57.145,Simcolourproject_2stim_asymm_v5,2020.2.10,Win32,60,61025ae37ef11b136ea224fe,,,,,,,,,2808,51,34,1,0,0,response1disk,,6,7,-1,1,0,0,rectangle,7,-1,1,0,0,7,-1,1,0,0,1,91,251,101,1,,,,,,,,
,,,,,,,,,,,,,FF,,,,,,,,1.4151,,,,,,,,,,,,,,,,,,,,,,60feea86c2cd1da8825671bc,61036ed836f49f6fa45685a1,2021-07-29_23h16.57.145,Simcolourproject_2stim_asymm_v5,2020.2.10,Win32,60,61025ae37ef11b136ea224fe,,,,,,,,,1209,60,-43,1,0,0,response3disk,,5,21,-7,1,0,0,rectangle,21,-7,1,0,0,21,-7,1,0,0,1,92,252,125,1,,,,,,,,
,,,,,,,,,,,,,FF,,,,,,,,1.5326,,,,,,,,,,,,,,,,,,,,,,60feea86c2cd1da8825671bc,61036ed836f49f6fa45685a1,2021-07-29_23h16.57.145,Simcolourproject_2stim_asymm_v5,2020.2.10,Win32,60,61025ae37ef11b136ea224fe,,,,,,,,,780,35,-63,1,0,0,response3disk,,4,12,6,1,0,0,rectangle,12,6,1,0,0,12,6,1,0,0,1,93,253,43,1,,,,,,,,
,,,,,,,,,,,,,FF,,,,,,,,1.0191,,,,,,,,,,,,,,,,,,,,,,60feea86c2cd1da8825671bc,61036ed836f49f6fa45685a1,2021-07-29_23h16.57.145,Simcolourproject_2stim_asymm_v5,2020.2.10,Win32,60,61025ae37ef11b136ea224fe,,,,,,,,,829,64,43,1,0,0,response1disk,,6,13,6,1,0,0,rectangle,68,-24,1,0,0,5,-5,1,0,0,1,94,254,23,1,,response3disk_3,TRUE,5,5,"[190,255,166,278,277,25,211,211,161,38,115,235,106,322,171,285,152,323,42,184]",2.5155,rectangle
,,,,,,,,,,,,,FF,,,,,,,,0.8875,,,,,,,,,,,,,,,,,,,,,,60feea86c2cd1da8825671bc,61036ed836f49f6fa45685a1,2021-07-29_23h16.57.145,Simcolourproject_2stim_asymm_v5,2020.2.10,Win32,60,61025ae37ef11b136ea224fe,,,,,,,,,691,71,54,1,0,0,response1disk,,6,19,12,1,0,0,rectangle,19,12,1,0,0,19,12,1,0,0,1,95,255,122,1,,,,,,,,
,,,,,,,,,,,,,FF,,,,,,,,0.9491,,,,,,,,,,,,,,,,,,,,,,60feea86c2cd1da8825671bc,61036ed836f49f6fa45685a1,2021-07-29_23h16.57.145,Simcolourproject_2stim_asymm_v5,2020.2.10,Win32,60,61025ae37ef11b136ea224fe,,,,,,,,,2657,56,-28,1,0,0,response3disk,,5,19,-1,1,0,0,rectangle,19,-1,1,0,0,19,-1,1,0,0,1,96,256,120,1,,,,,,,,
,,,,,,,,,,,,,FF,,,,,,,,0.983,,,,,,,,,,,,,,,,,,,,,,60feea86c2cd1da8825671bc,61036ed836f49f6fa45685a1,2021-07-29_23h16.57.145,Simcolourproject_2stim_asymm_v5,2020.2.10,Win32,60,61025ae37ef11b136ea224fe,,,,,,,,,3182,40,27,1,0,0,response1disk,,6,11,-2,1,0,0,rectangle,11,-2,1,0,0,11,-2,1,0,0,1,97,257,112,1,,,,,,,,
,,,,,,,,,,,,,FF,,,,,,,,0.8827,,,,,,,,,,,,,,,,,,,,,,60feea86c2cd1da8825671bc,61036ed836f49f6fa45685a1,2021-07-29_23h16.57.145,Simcolourproject_2stim_asymm_v5,2020.2.10,Win32,60,61025ae37ef11b136ea224fe,,,,,,,,,1751,-33,-60,1,0,0,response5disk,,3,-6,-14,1,0,0,rectangle,-6,-14,1,0,0,-6,-14,1,0,0,1,98,258,97,1,,,,,,,,
,,,,,,,,,,,,,FF,,,,,,,,0.9494,,,,,,,,,,,,,,,,,,,,,,60feea86c2cd1da8825671bc,61036ed836f49f6fa45685a1,2021-07-29_23h16.57.145,Simcolourproject_2stim_asymm_v5,2020.2.10,Win32,60,61025ae37ef11b136ea224fe,,,,,,,,,2713,20,-51,1,0,0,response3disk,,4,12,-1,1,0,0,rectangle,12,-1,1,0,0,12,-1,1,0,0,1,99,259,159,1,,,,,,,,
,,,,,,,,,,,,,FF,,,,,,,,1.1161,,,,,,,,,,,,,,,,,,,,,,60feea86c2cd1da8825671bc,61036ed836f49f6fa45685a1,2021-07-29_23h16.57.145,Simcolourproject_2stim_asymm_v5,2020.2.10,Win32,60,61025ae37ef11b136ea224fe,,,,,,,,,2493,55,44,1,0,0,response1disk,,6,-14,-8,1,0,0,rectangle,-14,-8,1,0,0,-14,-8,1,0,0,1,100,260,17,1,,,,,,,,
,,,,,,,,,,,,,FF,,,,,,,,1.7794,,,,,,,,,,,,,,,,,,,,,,60feea86c2cd1da8825671bc,61036ed836f49f6fa45685a1,2021-07-29_23h16.57.145,Simcolourproject_2stim_asymm_v5,2020.2.10,Win32,60,61025ae37ef11b136ea224fe,,,,,,,,,4020,-31,61,1,0,0,response7disk,,0,-8,1,1,0,0,rectangle,-8,1,1,0,0,-8,1,1,0,0,1,101,261,130,1,,,,,,,,
,,,,,,,,,,,,,FF,,,,,,,,1.7988,,,,,,,,,,,,,,,,,,,,,,60feea86c2cd1da8825671bc,61036ed836f49f6fa45685a1,2021-07-29_23h16.57.145,Simcolourproject_2stim_asymm_v5,2020.2.10,Win32,60,61025ae37ef11b136ea224fe,,,,,,,,,773,75,38,1,0,0,response1disk,,6,-2,-13,1,0,0,rectangle,-2,-13,1,0,0,-2,-13,1,0,0,1,102,262,85,1,,,,,,,,
,,,,,,,,,,,,,FF,,,,,,,,1.0829,,,,,,,,,,,,,,,,,,,,,,60feea86c2cd1da8825671bc,61036ed836f49f6fa45685a1,2021-07-29_23h16.57.145,Simcolourproject_2stim_asymm_v5,2020.2.10,Win32,60,61025ae37ef11b136ea224fe,,,,,,,,,1373,-26,-37,1,0,0,response5disk,,3,11,13,1,0,0,rectangle,11,13,1,0,0,11,13,1,0,0,1,103,263,55,1,,,,,,,,
,,,,,,,,,,,,,FF,,,,,,,,1.3291,,,,,,,,,,,,,,,,,,,,,,60feea86c2cd1da8825671bc,61036ed836f49f6fa45685a1,2021-07-29_23h16.57.145,Simcolourproject_2stim_asymm_v5,2020.2.10,Win32,60,61025ae37ef11b136ea224fe,,,,,,,,,4193,50,59,1,0,0,response1disk,,7,19,5,1,0,0,rectangle,19,5,1,0,0,19,5,1,0,0,1,104,264,138,1,,,,,,,,
,,,,,,,,,,,,,FF,,,,,,,,1.1996,,,,,,,,,,,,,,,,,,,,,,60feea86c2cd1da8825671bc,61036ed836f49f6fa45685a1,2021-07-29_23h16.57.145,Simcolourproject_2stim_asymm_v5,2020.2.10,Win32,60,61025ae37ef11b136ea224fe,,,,,,,,,2982,22,34,1,0,0,response1disk,,7,33,-4,1,0,0,rectangle,33,-4,1,0,0,33,-4,1,0,0,1,105,265,158,1,,,,,,,,
,,,,,,,,,,,,,FF,,,,,,,,1.0035,,,,,,,,,,,,,,,,,,,,,,60feea86c2cd1da8825671bc,61036ed836f49f6fa45685a1,2021-07-29_23h16.57.145,Simcolourproject_2stim_asymm_v5,2020.2.10,Win32,60,61025ae37ef11b136ea224fe,,,,,,,,,83,48,-37,1,0,0,response3disk,,5,20,-13,1,0,0,rectangle,20,-13,1,0,0,20,-13,1,0,0,1,106,266,117,1,,,,,,,,
,,,,,,,,,,,,,FF,,,,,,,,0.9335,,,,,,,,,,,,,,,,,,,,,,60feea86c2cd1da8825671bc,61036ed836f49f6fa45685a1,2021-07-29_23h16.57.145,Simcolourproject_2stim_asymm_v5,2020.2.10,Win32,60,61025ae37ef11b136ea224fe,,,,,,,,,2495,33,-19,1,0,0,response3disk,,5,13,-11,1,0,0,rectangle,13,-11,1,0,0,13,-11,1,0,0,1,107,267,45,1,,,,,,,,
,,,,,,,,,,,,,FF,,,,,,,,2.4519,,,,,,,,,,,,,,,,,,,,,,60feea86c2cd1da8825671bc,61036ed836f49f6fa45685a1,2021-07-29_23h16.57.145,Simcolourproject_2stim_asymm_v5,2020.2.10,Win32,60,61025ae37ef11b136ea224fe,,,,,,,,,3764,56,-19,1,0,0,response3disk,,5,24,-2,1,0,0,rectangle,24,-2,1,0,0,24,-2,1,0,0,1,108,268,139,1,,,,,,,,
,,,,,,,,,,,,,FF,,,,,,,,1.0622,,,,,,,,,,,,,,,,,,,,,,60feea86c2cd1da8825671bc,61036ed836f49f6fa45685a1,2021-07-29_23h16.57.145,Simcolourproject_2stim_asymm_v5,2020.2.10,Win32,60,61025ae37ef11b136ea224fe,,,,,,,,,3064,61,42,1,0,0,response1disk,,6,28,1,1,0,0,rectangle,28,1,1,0,0,28,1,1,0,0,1,109,269,15,1,,,,,,,,
,,,,,,,,,,,,,FF,,,,,,,,1.3288,,,,,,,,,,,,,,,,,,,,,,60feea86c2cd1da8825671bc,61036ed836f49f6fa45685a1,2021-07-29_23h16.57.145,Simcolourproject_2stim_asymm_v5,2020.2.10,Win32,60,61025ae37ef11b136ea224fe,,,,,,,,,2038,23,-56,1,0,0,response3disk,,4,-4,9,1,0,0,rectangle,-4,9,1,0,0,-4,9,1,0,0,1,110,270,37,1,,,,,,,,
,,,,,,,,,,,,,FF,,,,,,,,0.7536,,,,,,,,,,,,,,,,,,,,,,60feea86c2cd1da8825671bc,61036ed836f49f6fa45685a1,2021-07-29_23h16.57.145,Simcolourproject_2stim_asymm_v5,2020.2.10,Win32,60,61025ae37ef11b136ea224fe,,,,,,,,,2579,25,53,1,0,0,response1disk,,7,10,6,1,0,0,rectangle,10,6,1,0,0,10,6,1,0,0,1,111,271,84,1,,,,,,,,
,,,,,,,,,,,,,FF,,,,,,,,0.6326,,,,,,,,,,,,,,,,,,,,,,60feea86c2cd1da8825671bc,61036ed836f49f6fa45685a1,2021-07-29_23h16.57.145,Simcolourproject_2stim_asymm_v5,2020.2.10,Win32,60,61025ae37ef11b136ea224fe,,,,,,,,,3654,24,63,1,0,0,response1disk,,7,12,-1,1,0,0,rectangle,12,-1,1,0,0,12,-1,1,0,0,1,112,272,109,1,,,,,,,,
,,,,,,,,,,,,,FF,,,,,,,,1.0957,,,,,,,,,,,,,,,,,,,,,,60feea86c2cd1da8825671bc,61036ed836f49f6fa45685a1,2021-07-29_23h16.57.145,Simcolourproject_2stim_asymm_v5,2020.2.10,Win32,60,61025ae37ef11b136ea224fe,,,,,,,,,3783,63,-26,1,0,0,response3disk,,5,31,-2,1,0,0,rectangle,31,-2,1,0,0,31,-2,1,0,0,1,113,273,113,1,,,,,,,,
,,,,,,,,,,,,,FF,,,,,,,,1.1861,,,,,,,,,,,,,,,,,,,,,,60feea86c2cd1da8825671bc,61036ed836f49f6fa45685a1,2021-07-29_23h16.57.145,Simcolourproject_2stim_asymm_v5,2020.2.10,Win32,60,61025ae37ef11b136ea224fe,,,,,,,,,3721,46,-23,1,0,0,response3disk,,5,18,1,1,0,0,rectangle,18,1,1,0,0,18,1,1,0,0,1,114,274,129,1,,,,,,,,
,,,,,,,,,,,,,FF,,,,,,,,1.1527,,,,,,,,,,,,,,,,,,,,,,60feea86c2cd1da8825671bc,61036ed836f49f6fa45685a1,2021-07-29_23h16.57.145,Simcolourproject_2stim_asymm_v5,2020.2.10,Win32,60,61025ae37ef11b136ea224fe,,,,,,,,,1585,43,36,1,0,0,response1disk,,6,5,-13,1,0,0,rectangle,5,-13,1,0,0,5,-13,1,0,0,1,115,275,56,1,,,,,,,,
,,,,,,,,,,,,,FF,,,,,,,,1.1534,,,,,,,,,,,,,,,,,,,,,,60feea86c2cd1da8825671bc,61036ed836f49f6fa45685a1,2021-07-29_23h16.57.145,Simcolourproject_2stim_asymm_v5,2020.2.10,Win32,60,61025ae37ef11b136ea224fe,,,,,,,,,2330,33,52,1,0,0,response1disk,,7,2,-17,1,0,0,rectangle,-50,83,1,0,0,1,-9,1,0,0,1,116,276,152,1,,response7disk_3,TRUE,0,0,"[190,255,166,278,277,25,211,211,161,38,115,235,106,322,171,285,152,323,42,184]",1.9438,rectangle
,,,,,,,,,,,,,FF,,,,,,,,1.1787,,,,,,,,,,,,,,,,,,,,,,60feea86c2cd1da8825671bc,61036ed836f49f6fa45685a1,2021-07-29_23h16.57.145,Simcolourproject_2stim_asymm_v5,2020.2.10,Win32,60,61025ae37ef11b136ea224fe,,,,,,,,,3998,-30,-58,1,0,0,response5disk,,3,-5,-3,1,0,0,rectangle,-25,-36,1,0,0,-18,-8,1,0,0,1,117,277,41,1,,response5disk_3,TRUE,3,3,"[190,255,166,278,277,25,211,211,161,38,115,235,106,322,171,285,152,323,42,184]",1.7482,rectangle
,,,,,,,,,,,,,FF,,,,,,,,2.4605,,,,,,,,,,,,,,,,,,,,,,60feea86c2cd1da8825671bc,61036ed836f49f6fa45685a1,2021-07-29_23h16.57.145,Simcolourproject_2stim_asymm_v5,2020.2.10,Win32,60,61025ae37ef11b136ea224fe,,,,,,,,,3827,55,36,1,0,0,response1disk,,6,19,7,1,0,0,rectangle,19,7,1,0,0,19,7,1,0,0,1,118,278,38,1,,,,,,,,
,,,,,,,,,,,,,FF,,,,,,,,0.9344,,,,,,,,,,,,,,,,,,,,,,60feea86c2cd1da8825671bc,61036ed836f49f6fa45685a1,2021-07-29_23h16.57.145,Simcolourproject_2stim_asymm_v5,2020.2.10,Win32,60,61025ae37ef11b136ea224fe,,,,,,,,,4073,44,-40,1,0,0,response3disk,,5,10,-3,1,0,0,rectangle,10,-3,1,0,0,10,-3,1,0,0,1,119,279,76,1,,,,,,,,
,,,,,,,,,,,,,FF,,,,,,,,0.7169,,,,,,,,,,,,,,,,,,,,,,60feea86c2cd1da8825671bc,61036ed836f49f6fa45685a1,2021-07-29_23h16.57.145,Simcolourproject_2stim_asymm_v5,2020.2.10,Win32,60,61025ae37ef11b136ea224fe,,,,,,,,,1391,30,-43,1,0,0,response3disk,,4,10,-6,1,0,0,rectangle,10,-6,1,0,0,10,-6,1,0,0,1,120,280,149,1,,,,,,,,
,,,,,,,,,,,,,FF,,,,,,,,0.7833,,,,,,,,,,,,,,,,,,,,,,60feea86c2cd1da8825671bc,61036ed836f49f6fa45685a1,2021-07-29_23h16.57.145,Simcolourproject_2stim_asymm_v5,2020.2.10,Win32,60,61025ae37ef11b136ea224fe,,,,,,,,,3119,41,64,1,0,0,response1disk,,7,22,7,1,0,0,rectangle,22,7,1,0,0,22,7,1,0,0,1,121,281,14,1,,,,,,,,
,,,,,,,,,,,,,FF,,,,,,,,0.9822,,,,,,,,,,,,,,,,,,,,,,60feea86c2cd1da8825671bc,61036ed836f49f6fa45685a1,2021-07-29_23h16.57.145,Simcolourproject_2stim_asymm_v5,2020.2.10,Win32,60,61025ae37ef11b136ea224fe,,,,,,,,,3251,28,-34,1,0,0,response3disk,,4,15,13,1,0,0,rectangle,15,13,1,0,0,15,13,1,0,0,1,122,282,5,1,,,,,,,,
,,,,,,,,,,,,,FF,,,,,,,,0.8014,,,,,,,,,,,,,,,,,,,,,,60feea86c2cd1da8825671bc,61036ed836f49f6fa45685a1,2021-07-29_23h16.57.145,Simcolourproject_2stim_asymm_v5,2020.2.10,Win32,60,61025ae37ef11b136ea224fe,,,,,,,,,177,57,44,1,0,0,response1disk,,6,2,0,1,0,0,rectangle,2,0,1,0,0,2,0,1,0,0,1,123,283,66,1,,,,,,,,
,,,,,,,,,,,,,FF,,,,,,,,1.3158,,,,,,,,,,,,,,,,,,,,,,60feea86c2cd1da8825671bc,61036ed836f49f6fa45685a1,2021-07-29_23h16.57.145,Simcolourproject_2stim_asymm_v5,2020.2.10,Win32,60,61025ae37ef11b136ea224fe,,,,,,,,,874,32,-38,1,0,0,response3disk,,4,17,-6,1,0,0,rectangle,39,-76,1,0,0,4,-10,1,0,0,1,124,284,9,1,,response3disk_3,TRUE,4,4,"[190,255,166,278,277,25,211,211,161,38,115,235,106,322,171,285,152,323,42,184]",1.569,rectangle
,,,,,,,,,,,,,FF,,,,,,,,1.0867,,,,,,,,,,,,,,,,,,,,,,60feea86c2cd1da8825671bc,61036ed836f49f6fa45685a1,2021-07-29_23h16.57.145,Simcolourproject_2stim_asymm_v5,2020.2.10,Win32,60,61025ae37ef11b136ea224fe,,,,,,,,,1575,24,-35,1,0,0,response3disk,,4,11,-1,1,0,0,rectangle,11,-1,1,0,0,11,-1,1,0,0,1,125,285,40,1,,,,,,,,
,,,,,,,,,,,,,FF,,,,,,,,0.9039,,,,,,,,,,,,,,,,,,,,,,60feea86c2cd1da8825671bc,61036ed836f49f6fa45685a1,2021-07-29_23h16.57.145,Simcolourproject_2stim_asymm_v5,2020.2.10,Win32,60,61025ae37ef11b136ea224fe,,,,,,,,,1468,26,-60,1,0,0,response3disk,,4,11,-12,1,0,0,rectangle,11,-12,1,0,0,11,-12,1,0,0,1,126,286,1,1,,,,,,,,
,,,,,,,,,,,,,FF,,,,,,,,1.0452,,,,,,,,,,,,,,,,,,,,,,60feea86c2cd1da8825671bc,61036ed836f49f6fa45685a1,2021-07-29_23h16.57.145,Simcolourproject_2stim_asymm_v5,2020.2.10,Win32,60,61025ae37ef11b136ea224fe,,,,,,,,,2176,31,-60,1,0,0,response3disk,,4,4,-3,1,0,0,rectangle,4,-3,1,0,0,4,-3,1,0,0,1,127,287,118,1,,,,,,,,
,,,,,,,,,,,,,FF,,,,,,,,1.0835,,,,,,,,,,,,,,,,,,,,,,60feea86c2cd1da8825671bc,61036ed836f49f6fa45685a1,2021-07-29_23h16.57.145,Simcolourproject_2stim_asymm_v5,2020.2.10,Win32,60,61025ae37ef11b136ea224fe,,,,,,,,,1247,53,44,1,0,0,response1disk,,6,-10,-7,1,0,0,rectangle,-10,-7,1,0,0,-10,-7,1,0,0,1,128,288,72,1,,,,,,,,
,,,,,,,,,,,,,FF,,,,,,,,1.716,,,,,,,,,,,,,,,,,,,,,,60feea86c2cd1da8825671bc,61036ed836f49f6fa45685a1,2021-07-29_23h16.57.145,Simcolourproject_2stim_asymm_v5,2020.2.10,Win32,60,61025ae37ef11b136ea224fe,,,,,,,,,1797,49,72,1,0,0,response1disk,,7,-5,-9,1,0,0,rectangle,-5,-9,1,0,0,-5,-9,1,0,0,1,129,289,140,1,,,,,,,,
,,,,,,,,,,,,,FF,,,,,,,,0.7537,,,,,,,,,,,,,,,,,,,,,,60feea86c2cd1da8825671bc,61036ed836f49f6fa45685a1,2021-07-29_23h16.57.145,Simcolourproject_2stim_asymm_v5,2020.2.10,Win32,60,61025ae37ef11b136ea224fe,,,,,,,,,1252,19,43,1,0,0,response1disk,,7,3,4,1,0,0,rectangle,3,4,1,0,0,3,4,1,0,0,1,130,290,53,1,,,,,,,,
,,,,,,,,,,,,,FF,,,,,,,,1.2488,,,,,,,,,,,,,,,,,,,,,,60feea86c2cd1da8825671bc,61036ed836f49f6fa45685a1,2021-07-29_23h16.57.145,Simcolourproject_2stim_asymm_v5,2020.2.10,Win32,60,61025ae37ef11b136ea224fe,,,,,,,,,1610,-84,-51,1,0,0,response5disk,,2,-11,4,1,0,0,rectangle,-11,4,1,0,0,-11,4,1,0,0,1,131,291,135,1,,,,,,,,
,,,,,,,,,,,,,FF,,,,,,,,1.1833,,,,,,,,,,,,,,,,,,,,,,60feea86c2cd1da8825671bc,61036ed836f49f6fa45685a1,2021-07-29_23h16.57.145,Simcolourproject_2stim_asymm_v5,2020.2.10,Win32,60,61025ae37ef11b136ea224fe,,,,,,,,,3483,23,-59,1,0,0,response3disk,,4,6,0,1,0,0,rectangle,6,0,1,0,0,6,0,1,0,0,1,132,292,62,1,,,,,,,,
,,,,,,,,,,,,,FF,,,,,,,,0.8988,,,,,,,,,,,,,,,,,,,,,,60feea86c2cd1da8825671bc,61036ed836f49f6fa45685a1,2021-07-29_23h16.57.145,Simcolourproject_2stim_asymm_v5,2020.2.10,Win32,60,61025ae37ef11b136ea224fe,,,,,,,,,3227,36,47,1,0,0,response1disk,,7,21,6,1,0,0,rectangle,21,6,1,0,0,21,6,1,0,0,1,133,293,74,1,,,,,,,,
,,,,,,,,,,,,,FF,,,,,,,,0.9532,,,,,,,,,,,,,,,,,,,,,,60feea86c2cd1da8825671bc,61036ed836f49f6fa45685a1,2021-07-29_23h16.57.145,Simcolourproject_2stim_asymm_v5,2020.2.10,Win32,60,61025ae37ef11b136ea224fe,,,,,,,,,558,57,40,1,0,0,response1disk,,6,8,0,1,0,0,rectangle,8,0,1,0,0,8,0,1,0,0,1,134,294,63,1,,,,,,,,
,,,,,,,,,,,,,FF,,,,,,,,1.1655,,,,,,,,,,,,,,,,,,,,,,60feea86c2cd1da8825671bc,61036ed836f49f6fa45685a1,2021-07-29_23h16.57.145,Simcolourproject_2stim_asymm_v5,2020.2.10,Win32,60,61025ae37ef11b136ea224fe,,,,,,,,,155,47,-23,1,0,0,response3disk,,5,18,2,1,0,0,rectangle,18,2,1,0,0,18,2,1,0,0,1,135,295,121,1,,,,,,,,
,,,,,,,,,,,,,FF,,,,,,,,0.9529,,,,,,,,,,,,,,,,,,,,,,60feea86c2cd1da8825671bc,61036ed836f49f6fa45685a1,2021-07-29_23h16.57.145,Simcolourproject_2stim_asymm_v5,2020.2.10,Win32,60,61025ae37ef11b136ea224fe,,,,,,,,,2565,23,54,1,0,0,response1disk,,7,-3,-3,1,0,0,rectangle,-3,-3,1,0,0,-3,-3,1,0,0,1,136,296,154,1,,,,,,,,
,,,,,,,,,,,,,FF,,,,,,,,0.8719,,,,,,,,,,,,,,,,,,,,,,60feea86c2cd1da8825671bc,61036ed836f49f6fa45685a1,2021-07-29_23h16.57.145,Simcolourproject_2stim_asymm_v5,2020.2.10,Win32,60,61025ae37ef11b136ea224fe,,,,,,,,,2331,32,46,1,0,0,response1disk,,7,16,-3,1,0,0,rectangle,16,-3,1,0,0,16,-3,1,0,0,1,137,297,126,1,,,,,,,,
,,,,,,,,,,,,,FF,,,,,,,,1.0032,,,,,,,,,,,,,,,,,,,,,,60feea86c2cd1da8825671bc,61036ed836f49f6fa45685a1,2021-07-29_23h16.57.145,Simcolourproject_2stim_asymm_v5,2020.2.10,Win32,60,61025ae37ef11b136ea224fe,,,,,,,,,1581,42,-34,1,0,0,response3disk,,5,11,8,1,0,0,rectangle,11,8,1,0,0,11,8,1,0,0,1,138,298,12,1,,,,,,,,
,,,,,,,,,,,,,FF,,,,,,,,0.9835,,,,,,,,,,,,,,,,,,,,,,60feea86c2cd1da8825671bc,61036ed836f49f6fa45685a1,2021-07-29_23h16.57.145,Simcolourproject_2stim_asymm_v5,2020.2.10,Win32,60,61025ae37ef11b136ea224fe,,,,,,,,,3924,35,-32,1,0,0,response3disk,,5,11,-7,1,0,0,rectangle,11,-7,1,0,0,11,-7,1,0,0,1,139,299,131,1,,,,,,,,
,,,,,,,,,,,,,FF,,,,,,,,1.1161,,,,,,,,,,,,,,,,,,,,,,60feea86c2cd1da8825671bc,61036ed836f49f6fa45685a1,2021-07-29_23h16.57.145,Simcolourproject_2stim_asymm_v5,2020.2.10,Win32,60,61025ae37ef11b136ea224fe,,,,,,,,,3387,57,46,1,0,0,response1disk,,6,9,5,1,0,0,rectangle,9,5,1,0,0,9,5,1,0,0,1,140,300,115,1,,,,,,,,
,,,,,,,,,,,,,FF,,,,,,,,0.9162,,,,,,,,,,,,,,,,,,,,,,60feea86c2cd1da8825671bc,61036ed836f49f6fa45685a1,2021-07-29_23h16.57.145,Simcolourproject_2stim_asymm_v5,2020.2.10,Win32,60,61025ae37ef11b136ea224fe,,,,,,,,,1925,40,51,1,0,0,response1disk,,7,7,-11,1,0,0,rectangle,7,-11,1,0,0,7,-11,1,0,0,1,141,301,7,1,,,,,,,,
,,,,,,,,,,,,,FF,,,,,,,,1.4451,,,,,,,,,,,,,,,,,,,,,,60feea86c2cd1da8825671bc,61036ed836f49f6fa45685a1,2021-07-29_23h16.57.145,Simcolourproject_2stim_asymm_v5,2020.2.10,Win32,60,61025ae37ef11b136ea224fe,,,,,,,,,4028,70,30,1,0,0,response1disk,,6,5,-12,1,0,0,rectangle,5,-12,1,0,0,5,-12,1,0,0,1,142,302,96,1,,,,,,,,
