key_resp.keys,key_resp.rt,key_resp_14.keys,key_resp_14.rt,key_resp_15.keys,key_resp_15.rt,key_resp_17.keys,key_resp_17.rt,key_resp_9.keys,key_resp_9.rt,key_resp_10.keys,key_resp_10.rt,practice_comparison,Ecc,mouse_5.x,mouse_5.y,mouse_5.leftButton,mouse_5.midButton,mouse_5.rightButton,mouse_5.clicked_name,pracsimilarity,response_time,mouse_10.x,mouse_10.y,mouse_10.leftButton,mouse_10.midButton,mouse_10.rightButton,mouse_10.clicked_name,mouse_7.x,mouse_7.y,mouse_7.leftButton,mouse_7.midButton,mouse_7.rightButton,mouse_6.x,mouse_6.y,mouse_6.leftButton,mouse_6.midButton,mouse_6.rightButton,duringprac.thisRepN,duringprac.thisTrialN,duringprac.thisN,duringprac.thisIndex,duringprac.ran,participant,session,date,expName,psychopyVersion,OS,frameRate,study_id,mouse_7.clicked_name,catchpracsimilarity,catch_response_time,catchnumberprac,catchtrialorderprac,mouse_6.clicked_name,key_resp_22.keys,key_resp_22.rt,realcomparison,mouse.x,mouse.y,mouse.leftButton,mouse.midButton,mouse.rightButton,mouse.clicked_name,Colour2,similarity,mouse_2.x,mouse_2.y,mouse_2.leftButton,mouse_2.midButton,mouse_2.rightButton,mouse_2.clicked_name,mouse_3.x,mouse_3.y,mouse_3.leftButton,mouse_3.midButton,mouse_3.rightButton,mouse_11.x,mouse_11.y,mouse_11.leftButton,mouse_11.midButton,mouse_11.rightButton,trials_2.thisRepN,trials_2.thisTrialN,trials_2.thisN,trials_2.thisIndex,trials_2.ran,Colour1,mouse_3.clicked_name,catchornah,catchsimilarity,catchnumber,catchtrialorder,catchRT,mouse_11.clicked_name
space,1,space,3.177,space,18.946,space,4.655,space,1.231,space,2.661,41,PF,102,-49,1,0,0,response3disk_5,5,5.95,-7,3,1,0,0,rectangle_8,-7,3,1,0,0,-7,3,1,0,0,0,0,0,1,1,60fe112dce8bff0e598703f1,61036c517feeb397dbffe6f3,2021-07-29_23h05.48.070,Simcolourproject_2stim_asymm_v5,2020.2.10,MacIntel,60,61025ae37ef11b136ea224fe,,,,,,,,,,,,,,,,,,,,,,,,,,,,,,,,,,,,,,,,,,,,,,
,,,,,,,,,,,,160,PF,-36,-69,1,0,0,response5disk_5,3,1.667,-16,6,1,0,0,rectangle_8,-53,-99,1,0,0,-7,4,1,0,0,0,1,1,6,1,60fe112dce8bff0e598703f1,61036c517feeb397dbffe6f3,2021-07-29_23h05.48.070,Simcolourproject_2stim_asymm_v5,2020.2.10,MacIntel,60,61025ae37ef11b136ea224fe,response5disk_7,3,2.633,3,"[2,5]",rectangle_4,,,,,,,,,,,,,,,,,,,,,,,,,,,,,,,,,,,,,,,,
,,,,,,,,,,,,93,PF,62,95,1,0,0,response1disk_5,7,5.87,-3,4,1,0,0,rectangle_8,-3,4,1,0,0,-3,4,1,0,0,0,2,2,2,1,60fe112dce8bff0e598703f1,61036c517feeb397dbffe6f3,2021-07-29_23h05.48.070,Simcolourproject_2stim_asymm_v5,2020.2.10,MacIntel,60,61025ae37ef11b136ea224fe,,,,,,,,,,,,,,,,,,,,,,,,,,,,,,,,,,,,,,,,,,,,,,
,,,,,,,,,,,,146,PF,-42,-70,1,0,0,response5disk_5,3,2.082,7,1,1,0,0,rectangle_8,7,1,1,0,0,7,1,1,0,0,0,3,3,4,1,60fe112dce8bff0e598703f1,61036c517feeb397dbffe6f3,2021-07-29_23h05.48.070,Simcolourproject_2stim_asymm_v5,2020.2.10,MacIntel,60,61025ae37ef11b136ea224fe,,,,,,,,,,,,,,,,,,,,,,,,,,,,,,,,,,,,,,,,,,,,,,
,,,,,,,,,,,,88,FF,34,97,1,0,0,response1disk_5,7,3.916,-4,3,1,0,0,rectangle_8,-43,-96,1,0,0,1,1,1,0,0,0,4,4,5,1,60fe112dce8bff0e598703f1,61036c517feeb397dbffe6f3,2021-07-29_23h05.48.070,Simcolourproject_2stim_asymm_v5,2020.2.10,MacIntel,60,61025ae37ef11b136ea224fe,response5disk_7,3,2.667,3,"[2,5]",rectangle_4,,,,,,,,,,,,,,,,,,,,,,,,,,,,,,,,,,,,,,,,
,,,,,,,,,,,,61,FF,84,38,1,0,0,response1disk_5,6,5.882,4,2,1,0,0,rectangle_8,4,2,1,0,0,4,2,1,0,0,0,5,5,0,1,60fe112dce8bff0e598703f1,61036c517feeb397dbffe6f3,2021-07-29_23h05.48.070,Simcolourproject_2stim_asymm_v5,2020.2.10,MacIntel,60,61025ae37ef11b136ea224fe,,,,,,,,,,,,,,,,,,,,,,,,,,,,,,,,,,,,,,,,,,,,,,
,,,,,,,,,,,,131,FF,75,39,1,0,0,response1disk_5,6,1.353,6,8,1,0,0,rectangle_8,6,8,1,0,0,6,8,1,0,0,0,6,6,3,1,60fe112dce8bff0e598703f1,61036c517feeb397dbffe6f3,2021-07-29_23h05.48.070,Simcolourproject_2stim_asymm_v5,2020.2.10,MacIntel,60,61025ae37ef11b136ea224fe,,,,,,,,,,,,,,,,,,,,,,,,,,,,,,,,,,,,,,,,,,,,,,
,,,,,,,,,,,,,FF,,,,,,,,1.65,,,,,,,,,,,,,,,,,,,,,,60fe112dce8bff0e598703f1,61036c517feeb397dbffe6f3,2021-07-29_23h05.48.070,Simcolourproject_2stim_asymm_v5,2020.2.10,MacIntel,60,61025ae37ef11b136ea224fe,,,,,,,space,2.132,1898,-88,-37,1,0,0,response5disk,,2,0,0,1,0,0,rectangle,0,0,1,0,0,0,0,1,0,0,0,0,0,15,1,,,,,,,,
,,,,,,,,,,,,,FF,,,,,,,,0.933,,,,,,,,,,,,,,,,,,,,,,60fe112dce8bff0e598703f1,61036c517feeb397dbffe6f3,2021-07-29_23h05.48.070,Simcolourproject_2stim_asymm_v5,2020.2.10,MacIntel,60,61025ae37ef11b136ea224fe,,,,,,,,,2230,-47,-88,1,0,0,response5disk,,3,1,-3,1,0,0,rectangle,1,-3,1,0,0,1,-3,1,0,0,0,1,1,91,1,,,,,,,,
,,,,,,,,,,,,,FF,,,,,,,,0.951,,,,,,,,,,,,,,,,,,,,,,60fe112dce8bff0e598703f1,61036c517feeb397dbffe6f3,2021-07-29_23h05.48.070,Simcolourproject_2stim_asymm_v5,2020.2.10,MacIntel,60,61025ae37ef11b136ea224fe,,,,,,,,,4081,109,-53,1,0,0,response3disk,,5,11,-9,1,0,0,rectangle,11,-9,1,0,0,11,-9,1,0,0,0,2,2,100,1,,,,,,,,
,,,,,,,,,,,,,FF,,,,,,,,0.816,,,,,,,,,,,,,,,,,,,,,,60fe112dce8bff0e598703f1,61036c517feeb397dbffe6f3,2021-07-29_23h05.48.070,Simcolourproject_2stim_asymm_v5,2020.2.10,MacIntel,60,61025ae37ef11b136ea224fe,,,,,,,,,1839,-43,-84,1,0,0,response5disk,,3,-5,-18,1,0,0,rectangle,-5,-18,1,0,0,-5,-18,1,0,0,0,3,3,85,1,,,,,,,,
,,,,,,,,,,,,,FF,,,,,,,,1.181,,,,,,,,,,,,,,,,,,,,,,60fe112dce8bff0e598703f1,61036c517feeb397dbffe6f3,2021-07-29_23h05.48.070,Simcolourproject_2stim_asymm_v5,2020.2.10,MacIntel,60,61025ae37ef11b136ea224fe,,,,,,,,,2296,-88,-28,1,0,0,response5disk,,2,8,-2,1,0,0,rectangle,8,-2,1,0,0,8,-2,1,0,0,0,4,4,1,1,,,,,,,,
,,,,,,,,,,,,,FF,,,,,,,,1.383,,,,,,,,,,,,,,,,,,,,,,60fe112dce8bff0e598703f1,61036c517feeb397dbffe6f3,2021-07-29_23h05.48.070,Simcolourproject_2stim_asymm_v5,2020.2.10,MacIntel,60,61025ae37ef11b136ea224fe,,,,,,,,,2675,77,-55,1,0,0,response3disk,,5,18,0,1,0,0,rectangle,18,0,1,0,0,18,0,1,0,0,0,5,5,27,1,,,,,,,,
,,,,,,,,,,,,,FF,,,,,,,,0.985,,,,,,,,,,,,,,,,,,,,,,60fe112dce8bff0e598703f1,61036c517feeb397dbffe6f3,2021-07-29_23h05.48.070,Simcolourproject_2stim_asymm_v5,2020.2.10,MacIntel,60,61025ae37ef11b136ea224fe,,,,,,,,,2263,83,32,1,0,0,response1disk,,6,-4,-2,1,0,0,rectangle,-4,-2,1,0,0,-4,-2,1,0,0,0,6,6,25,1,,,,,,,,
,,,,,,,,,,,,,FF,,,,,,,,0.901,,,,,,,,,,,,,,,,,,,,,,60fe112dce8bff0e598703f1,61036c517feeb397dbffe6f3,2021-07-29_23h05.48.070,Simcolourproject_2stim_asymm_v5,2020.2.10,MacIntel,60,61025ae37ef11b136ea224fe,,,,,,,,,2389,76,-44,1,0,0,response3disk,,5,-8,5,1,0,0,rectangle,-8,5,1,0,0,-8,5,1,0,0,0,7,7,103,1,,,,,,,,
,,,,,,,,,,,,,FF,,,,,,,,1.083,,,,,,,,,,,,,,,,,,,,,,60fe112dce8bff0e598703f1,61036c517feeb397dbffe6f3,2021-07-29_23h05.48.070,Simcolourproject_2stim_asymm_v5,2020.2.10,MacIntel,60,61025ae37ef11b136ea224fe,,,,,,,,,2549,-82,41,1,0,0,response7disk,,1,7,6,1,0,0,rectangle,7,6,1,0,0,7,6,1,0,0,0,8,8,77,1,,,,,,,,
,,,,,,,,,,,,,FF,,,,,,,,1.167,,,,,,,,,,,,,,,,,,,,,,60fe112dce8bff0e598703f1,61036c517feeb397dbffe6f3,2021-07-29_23h05.48.070,Simcolourproject_2stim_asymm_v5,2020.2.10,MacIntel,60,61025ae37ef11b136ea224fe,,,,,,,,,2185,91,-58,1,0,0,response3disk,,5,13,0,1,0,0,rectangle,13,0,1,0,0,13,0,1,0,0,0,9,9,128,1,,,,,,,,
,,,,,,,,,,,,,FF,,,,,,,,0.951,,,,,,,,,,,,,,,,,,,,,,60fe112dce8bff0e598703f1,61036c517feeb397dbffe6f3,2021-07-29_23h05.48.070,Simcolourproject_2stim_asymm_v5,2020.2.10,MacIntel,60,61025ae37ef11b136ea224fe,,,,,,,,,3371,67,55,1,0,0,response1disk,,6,-8,10,1,0,0,rectangle,-8,10,1,0,0,-8,10,1,0,0,0,10,10,113,1,,,,,,,,
,,,,,,,,,,,,,FF,,,,,,,,1.116,,,,,,,,,,,,,,,,,,,,,,60fe112dce8bff0e598703f1,61036c517feeb397dbffe6f3,2021-07-29_23h05.48.070,Simcolourproject_2stim_asymm_v5,2020.2.10,MacIntel,60,61025ae37ef11b136ea224fe,,,,,,,,,416,76,-34,1,0,0,response3disk,,5,-3,-7,1,0,0,rectangle,-3,-7,1,0,0,-3,-7,1,0,0,0,11,11,61,1,,,,,,,,
,,,,,,,,,,,,,FF,,,,,,,,0.734,,,,,,,,,,,,,,,,,,,,,,60fe112dce8bff0e598703f1,61036c517feeb397dbffe6f3,2021-07-29_23h05.48.070,Simcolourproject_2stim_asymm_v5,2020.2.10,MacIntel,60,61025ae37ef11b136ea224fe,,,,,,,,,1092,55,39,1,0,0,response1disk,,6,1,-12,1,0,0,rectangle,1,-12,1,0,0,1,-12,1,0,0,0,12,12,20,1,,,,,,,,
,,,,,,,,,,,,,FF,,,,,,,,0.85,,,,,,,,,,,,,,,,,,,,,,60fe112dce8bff0e598703f1,61036c517feeb397dbffe6f3,2021-07-29_23h05.48.070,Simcolourproject_2stim_asymm_v5,2020.2.10,MacIntel,60,61025ae37ef11b136ea224fe,,,,,,,,,670,79,28,1,0,0,response1disk,,6,-1,15,1,0,0,rectangle,-1,15,1,0,0,-1,15,1,0,0,0,13,13,121,1,,,,,,,,
,,,,,,,,,,,,,FF,,,,,,,,0.783,,,,,,,,,,,,,,,,,,,,,,60fe112dce8bff0e598703f1,61036c517feeb397dbffe6f3,2021-07-29_23h05.48.070,Simcolourproject_2stim_asymm_v5,2020.2.10,MacIntel,60,61025ae37ef11b136ea224fe,,,,,,,,,560,28,-73,1,0,0,response3disk,,4,18,-14,1,0,0,rectangle,18,-14,1,0,0,18,-14,1,0,0,0,14,14,145,1,,,,,,,,
,,,,,,,,,,,,,FF,,,,,,,,0.716,,,,,,,,,,,,,,,,,,,,,,60fe112dce8bff0e598703f1,61036c517feeb397dbffe6f3,2021-07-29_23h05.48.070,Simcolourproject_2stim_asymm_v5,2020.2.10,MacIntel,60,61025ae37ef11b136ea224fe,,,,,,,,,2220,-47,-95,1,0,0,response5disk,,3,-1,-11,1,0,0,rectangle,46,108,1,0,0,1,4,1,0,0,0,15,15,125,1,,response1disk_3,TRUE,7,7,"[183,302,57,163,146,193,114,229,316,127,209,292,162,16,58,84,282,227,289,123]",2.451,rectangle
,,,,,,,,,,,,,FF,,,,,,,,0.833,,,,,,,,,,,,,,,,,,,,,,60fe112dce8bff0e598703f1,61036c517feeb397dbffe6f3,2021-07-29_23h05.48.070,Simcolourproject_2stim_asymm_v5,2020.2.10,MacIntel,60,61025ae37ef11b136ea224fe,,,,,,,,,2627,45,-73,1,0,0,response3disk,,4,8,-2,1,0,0,rectangle,8,-2,1,0,0,8,-2,1,0,0,0,16,16,3,1,,,,,,,,
,,,,,,,,,,,,,FF,,,,,,,,1.434,,,,,,,,,,,,,,,,,,,,,,60fe112dce8bff0e598703f1,61036c517feeb397dbffe6f3,2021-07-29_23h05.48.070,Simcolourproject_2stim_asymm_v5,2020.2.10,MacIntel,60,61025ae37ef11b136ea224fe,,,,,,,,,1604,-95,49,1,0,0,response7disk,,1,-4,12,1,0,0,rectangle,-4,12,1,0,0,-4,12,1,0,0,0,17,17,82,1,,,,,,,,
,,,,,,,,,,,,,FF,,,,,,,,1.632,,,,,,,,,,,,,,,,,,,,,,60fe112dce8bff0e598703f1,61036c517feeb397dbffe6f3,2021-07-29_23h05.48.070,Simcolourproject_2stim_asymm_v5,2020.2.10,MacIntel,60,61025ae37ef11b136ea224fe,,,,,,,,,3870,-46,-93,1,0,0,response5disk,,3,-1,5,1,0,0,rectangle,-1,5,1,0,0,-1,5,1,0,0,0,18,18,12,1,,,,,,,,
,,,,,,,,,,,,,FF,,,,,,,,1.3,,,,,,,,,,,,,,,,,,,,,,60fe112dce8bff0e598703f1,61036c517feeb397dbffe6f3,2021-07-29_23h05.48.070,Simcolourproject_2stim_asymm_v5,2020.2.10,MacIntel,60,61025ae37ef11b136ea224fe,,,,,,,,,1072,-56,-84,1,0,0,response5disk,,3,-14,-2,1,0,0,rectangle,-14,-2,1,0,0,-14,-2,1,0,0,0,19,19,50,1,,,,,,,,
,,,,,,,,,,,,,FF,,,,,,,,1.415,,,,,,,,,,,,,,,,,,,,,,60fe112dce8bff0e598703f1,61036c517feeb397dbffe6f3,2021-07-29_23h05.48.070,Simcolourproject_2stim_asymm_v5,2020.2.10,MacIntel,60,61025ae37ef11b136ea224fe,,,,,,,,,123,69,-42,1,0,0,response3disk,,5,-8,-1,1,0,0,rectangle,-8,-1,1,0,0,-8,-1,1,0,0,0,20,20,146,1,,,,,,,,
,,,,,,,,,,,,,FF,,,,,,,,0.884,,,,,,,,,,,,,,,,,,,,,,60fe112dce8bff0e598703f1,61036c517feeb397dbffe6f3,2021-07-29_23h05.48.070,Simcolourproject_2stim_asymm_v5,2020.2.10,MacIntel,60,61025ae37ef11b136ea224fe,,,,,,,,,3683,44,-83,1,0,0,response3disk,,4,11,-8,1,0,0,rectangle,11,-8,1,0,0,11,-8,1,0,0,0,21,21,96,1,,,,,,,,
,,,,,,,,,,,,,FF,,,,,,,,0.867,,,,,,,,,,,,,,,,,,,,,,60fe112dce8bff0e598703f1,61036c517feeb397dbffe6f3,2021-07-29_23h05.48.070,Simcolourproject_2stim_asymm_v5,2020.2.10,MacIntel,60,61025ae37ef11b136ea224fe,,,,,,,,,3083,96,42,1,0,0,response1disk,,6,21,6,1,0,0,rectangle,21,6,1,0,0,21,6,1,0,0,0,22,22,134,1,,,,,,,,
,,,,,,,,,,,,,FF,,,,,,,,0.868,,,,,,,,,,,,,,,,,,,,,,60fe112dce8bff0e598703f1,61036c517feeb397dbffe6f3,2021-07-29_23h05.48.070,Simcolourproject_2stim_asymm_v5,2020.2.10,MacIntel,60,61025ae37ef11b136ea224fe,,,,,,,,,3786,74,52,1,0,0,response1disk,,6,4,4,1,0,0,rectangle,4,4,1,0,0,4,4,1,0,0,0,23,23,144,1,,,,,,,,
,,,,,,,,,,,,,FF,,,,,,,,1.116,,,,,,,,,,,,,,,,,,,,,,60fe112dce8bff0e598703f1,61036c517feeb397dbffe6f3,2021-07-29_23h05.48.070,Simcolourproject_2stim_asymm_v5,2020.2.10,MacIntel,60,61025ae37ef11b136ea224fe,,,,,,,,,448,68,-50,1,0,0,response3disk,,5,-5,6,1,0,0,rectangle,-5,6,1,0,0,-5,6,1,0,0,0,24,24,147,1,,,,,,,,
,,,,,,,,,,,,,FF,,,,,,,,0.949,,,,,,,,,,,,,,,,,,,,,,60fe112dce8bff0e598703f1,61036c517feeb397dbffe6f3,2021-07-29_23h05.48.070,Simcolourproject_2stim_asymm_v5,2020.2.10,MacIntel,60,61025ae37ef11b136ea224fe,,,,,,,,,894,-49,-88,1,0,0,response5disk,,3,-3,4,1,0,0,rectangle,-3,4,1,0,0,-3,4,1,0,0,0,25,25,37,1,,,,,,,,
,,,,,,,,,,,,,FF,,,,,,,,1.134,,,,,,,,,,,,,,,,,,,,,,60fe112dce8bff0e598703f1,61036c517feeb397dbffe6f3,2021-07-29_23h05.48.070,Simcolourproject_2stim_asymm_v5,2020.2.10,MacIntel,60,61025ae37ef11b136ea224fe,,,,,,,,,667,88,-39,1,0,0,response3disk,,5,21,4,1,0,0,rectangle,21,4,1,0,0,21,4,1,0,0,0,26,26,48,1,,,,,,,,
,,,,,,,,,,,,,FF,,,,,,,,0.668,,,,,,,,,,,,,,,,,,,,,,60fe112dce8bff0e598703f1,61036c517feeb397dbffe6f3,2021-07-29_23h05.48.070,Simcolourproject_2stim_asymm_v5,2020.2.10,MacIntel,60,61025ae37ef11b136ea224fe,,,,,,,,,1061,36,-77,1,0,0,response3disk,,4,2,1,1,0,0,rectangle,2,1,1,0,0,2,1,1,0,0,0,27,27,68,1,,,,,,,,
,,,,,,,,,,,,,FF,,,,,,,,0.683,,,,,,,,,,,,,,,,,,,,,,60fe112dce8bff0e598703f1,61036c517feeb397dbffe6f3,2021-07-29_23h05.48.070,Simcolourproject_2stim_asymm_v5,2020.2.10,MacIntel,60,61025ae37ef11b136ea224fe,,,,,,,,,3062,53,-81,1,0,0,response3disk,,4,22,-8,1,0,0,rectangle,22,-8,1,0,0,22,-8,1,0,0,0,28,28,39,1,,,,,,,,
,,,,,,,,,,,,,FF,,,,,,,,0.681,,,,,,,,,,,,,,,,,,,,,,60fe112dce8bff0e598703f1,61036c517feeb397dbffe6f3,2021-07-29_23h05.48.070,Simcolourproject_2stim_asymm_v5,2020.2.10,MacIntel,60,61025ae37ef11b136ea224fe,,,,,,,,,3464,46,-80,1,0,0,response3disk,,4,16,-13,1,0,0,rectangle,16,-13,1,0,0,16,-13,1,0,0,0,29,29,78,1,,,,,,,,
,,,,,,,,,,,,,FF,,,,,,,,0.7,,,,,,,,,,,,,,,,,,,,,,60fe112dce8bff0e598703f1,61036c517feeb397dbffe6f3,2021-07-29_23h05.48.070,Simcolourproject_2stim_asymm_v5,2020.2.10,MacIntel,60,61025ae37ef11b136ea224fe,,,,,,,,,2776,-49,-90,1,0,0,response5disk,,3,-3,-1,1,0,0,rectangle,-3,-1,1,0,0,-3,-1,1,0,0,0,30,30,118,1,,,,,,,,
,,,,,,,,,,,,,FF,,,,,,,,0.665,,,,,,,,,,,,,,,,,,,,,,60fe112dce8bff0e598703f1,61036c517feeb397dbffe6f3,2021-07-29_23h05.48.070,Simcolourproject_2stim_asymm_v5,2020.2.10,MacIntel,60,61025ae37ef11b136ea224fe,,,,,,,,,4259,81,-33,1,0,0,response3disk,,5,9,0,1,0,0,rectangle,9,0,1,0,0,9,0,1,0,0,0,31,31,93,1,,,,,,,,
,,,,,,,,,,,,,FF,,,,,,,,0.898,,,,,,,,,,,,,,,,,,,,,,60fe112dce8bff0e598703f1,61036c517feeb397dbffe6f3,2021-07-29_23h05.48.070,Simcolourproject_2stim_asymm_v5,2020.2.10,MacIntel,60,61025ae37ef11b136ea224fe,,,,,,,,,1352,72,-37,1,0,0,response3disk,,5,4,-8,1,0,0,rectangle,4,-8,1,0,0,4,-8,1,0,0,0,32,32,90,1,,,,,,,,
,,,,,,,,,,,,,FF,,,,,,,,0.666,,,,,,,,,,,,,,,,,,,,,,60fe112dce8bff0e598703f1,61036c517feeb397dbffe6f3,2021-07-29_23h05.48.070,Simcolourproject_2stim_asymm_v5,2020.2.10,MacIntel,60,61025ae37ef11b136ea224fe,,,,,,,,,1110,71,36,1,0,0,response1disk,,6,-6,-15,1,0,0,rectangle,-6,-15,1,0,0,-6,-15,1,0,0,0,33,33,66,1,,,,,,,,
,,,,,,,,,,,,,FF,,,,,,,,1.183,,,,,,,,,,,,,,,,,,,,,,60fe112dce8bff0e598703f1,61036c517feeb397dbffe6f3,2021-07-29_23h05.48.070,Simcolourproject_2stim_asymm_v5,2020.2.10,MacIntel,60,61025ae37ef11b136ea224fe,,,,,,,,,2510,63,41,1,0,0,response1disk,,6,-2,8,1,0,0,rectangle,-2,8,1,0,0,-2,8,1,0,0,0,34,34,124,1,,,,,,,,
,,,,,,,,,,,,,FF,,,,,,,,0.766,,,,,,,,,,,,,,,,,,,,,,60fe112dce8bff0e598703f1,61036c517feeb397dbffe6f3,2021-07-29_23h05.48.070,Simcolourproject_2stim_asymm_v5,2020.2.10,MacIntel,60,61025ae37ef11b136ea224fe,,,,,,,,,4029,75,-45,1,0,0,response3disk,,5,14,-5,1,0,0,rectangle,14,-5,1,0,0,14,-5,1,0,0,0,35,35,153,1,,,,,,,,
,,,,,,,,,,,,,FF,,,,,,,,0.834,,,,,,,,,,,,,,,,,,,,,,60fe112dce8bff0e598703f1,61036c517feeb397dbffe6f3,2021-07-29_23h05.48.070,Simcolourproject_2stim_asymm_v5,2020.2.10,MacIntel,60,61025ae37ef11b136ea224fe,,,,,,,,,1005,72,-42,1,0,0,response3disk,,5,8,2,1,0,0,rectangle,8,2,1,0,0,8,2,1,0,0,0,36,36,6,1,,,,,,,,
,,,,,,,,,,,,,FF,,,,,,,,0.666,,,,,,,,,,,,,,,,,,,,,,60fe112dce8bff0e598703f1,61036c517feeb397dbffe6f3,2021-07-29_23h05.48.070,Simcolourproject_2stim_asymm_v5,2020.2.10,MacIntel,60,61025ae37ef11b136ea224fe,,,,,,,,,2819,55,-37,1,0,0,response3disk,,5,13,-5,1,0,0,rectangle,13,-5,1,0,0,13,-5,1,0,0,0,37,37,14,1,,,,,,,,
,,,,,,,,,,,,,FF,,,,,,,,0.865,,,,,,,,,,,,,,,,,,,,,,60fe112dce8bff0e598703f1,61036c517feeb397dbffe6f3,2021-07-29_23h05.48.070,Simcolourproject_2stim_asymm_v5,2020.2.10,MacIntel,60,61025ae37ef11b136ea224fe,,,,,,,,,3740,39,-101,1,0,0,response3disk,,4,4,-4,1,0,0,rectangle,4,-4,1,0,0,4,-4,1,0,0,0,38,38,99,1,,,,,,,,
,,,,,,,,,,,,,FF,,,,,,,,1.416,,,,,,,,,,,,,,,,,,,,,,60fe112dce8bff0e598703f1,61036c517feeb397dbffe6f3,2021-07-29_23h05.48.070,Simcolourproject_2stim_asymm_v5,2020.2.10,MacIntel,60,61025ae37ef11b136ea224fe,,,,,,,,,4096,-48,-86,1,0,0,response5disk,,3,1,1,1,0,0,rectangle,1,1,1,0,0,1,1,1,0,0,0,39,39,24,1,,,,,,,,
,,,,,,,,,,,,,FF,,,,,,,,0.634,,,,,,,,,,,,,,,,,,,,,,60fe112dce8bff0e598703f1,61036c517feeb397dbffe6f3,2021-07-29_23h05.48.070,Simcolourproject_2stim_asymm_v5,2020.2.10,MacIntel,60,61025ae37ef11b136ea224fe,,,,,,,,,4249,38,-79,1,0,0,response3disk,,4,7,1,1,0,0,rectangle,7,1,1,0,0,7,1,1,0,0,0,40,40,141,1,,,,,,,,
,,,,,,,,,,,,,FF,,,,,,,,1.047,,,,,,,,,,,,,,,,,,,,,,60fe112dce8bff0e598703f1,61036c517feeb397dbffe6f3,2021-07-29_23h05.48.070,Simcolourproject_2stim_asymm_v5,2020.2.10,MacIntel,60,61025ae37ef11b136ea224fe,,,,,,,,,2733,-50,-81,1,0,0,response5disk,,3,-4,-1,1,0,0,rectangle,-4,-1,1,0,0,-4,-1,1,0,0,0,41,41,36,1,,,,,,,,
,,,,,,,,,,,,,FF,,,,,,,,0.666,,,,,,,,,,,,,,,,,,,,,,60fe112dce8bff0e598703f1,61036c517feeb397dbffe6f3,2021-07-29_23h05.48.070,Simcolourproject_2stim_asymm_v5,2020.2.10,MacIntel,60,61025ae37ef11b136ea224fe,,,,,,,,,2064,40,-81,1,0,0,response3disk,,4,5,9,1,0,0,rectangle,5,9,1,0,0,5,9,1,0,0,0,42,42,33,1,,,,,,,,
,,,,,,,,,,,,,FF,,,,,,,,1.55,,,,,,,,,,,,,,,,,,,,,,60fe112dce8bff0e598703f1,61036c517feeb397dbffe6f3,2021-07-29_23h05.48.070,Simcolourproject_2stim_asymm_v5,2020.2.10,MacIntel,60,61025ae37ef11b136ea224fe,,,,,,,,,558,68,-43,1,0,0,response3disk,,5,9,-4,1,0,0,rectangle,9,-4,1,0,0,9,-4,1,0,0,0,43,43,17,1,,,,,,,,
,,,,,,,,,,,,,FF,,,,,,,,1.983,,,,,,,,,,,,,,,,,,,,,,60fe112dce8bff0e598703f1,61036c517feeb397dbffe6f3,2021-07-29_23h05.48.070,Simcolourproject_2stim_asymm_v5,2020.2.10,MacIntel,60,61025ae37ef11b136ea224fe,,,,,,,,,2542,-59,101,1,0,0,response7disk,,0,1,4,1,0,0,rectangle,1,4,1,0,0,1,4,1,0,0,0,44,44,8,1,,,,,,,,
,,,,,,,,,,,,,FF,,,,,,,,0.983,,,,,,,,,,,,,,,,,,,,,,60fe112dce8bff0e598703f1,61036c517feeb397dbffe6f3,2021-07-29_23h05.48.070,Simcolourproject_2stim_asymm_v5,2020.2.10,MacIntel,60,61025ae37ef11b136ea224fe,,,,,,,,,1371,-72,-39,1,0,0,response5disk,,2,8,-1,1,0,0,rectangle,8,-1,1,0,0,8,-1,1,0,0,0,45,45,35,1,,,,,,,,
,,,,,,,,,,,,,FF,,,,,,,,0.899,,,,,,,,,,,,,,,,,,,,,,60fe112dce8bff0e598703f1,61036c517feeb397dbffe6f3,2021-07-29_23h05.48.070,Simcolourproject_2stim_asymm_v5,2020.2.10,MacIntel,60,61025ae37ef11b136ea224fe,,,,,,,,,3492,45,-77,1,0,0,response3disk,,4,12,0,1,0,0,rectangle,12,0,1,0,0,12,0,1,0,0,0,46,46,154,1,,,,,,,,
,,,,,,,,,,,,,FF,,,,,,,,0.685,,,,,,,,,,,,,,,,,,,,,,60fe112dce8bff0e598703f1,61036c517feeb397dbffe6f3,2021-07-29_23h05.48.070,Simcolourproject_2stim_asymm_v5,2020.2.10,MacIntel,60,61025ae37ef11b136ea224fe,,,,,,,,,1394,34,-63,1,0,0,response3disk,,4,0,-6,1,0,0,rectangle,0,-6,1,0,0,0,-6,1,0,0,0,47,47,47,1,,,,,,,,
,,,,,,,,,,,,,FF,,,,,,,,0.935,,,,,,,,,,,,,,,,,,,,,,60fe112dce8bff0e598703f1,61036c517feeb397dbffe6f3,2021-07-29_23h05.48.070,Simcolourproject_2stim_asymm_v5,2020.2.10,MacIntel,60,61025ae37ef11b136ea224fe,,,,,,,,,1766,-53,-88,1,0,0,response5disk,,3,-7,7,1,0,0,rectangle,-7,7,1,0,0,-7,7,1,0,0,0,48,48,64,1,,,,,,,,
,,,,,,,,,,,,,FF,,,,,,,,0.8,,,,,,,,,,,,,,,,,,,,,,60fe112dce8bff0e598703f1,61036c517feeb397dbffe6f3,2021-07-29_23h05.48.070,Simcolourproject_2stim_asymm_v5,2020.2.10,MacIntel,60,61025ae37ef11b136ea224fe,,,,,,,,,802,-91,-40,1,0,0,response5disk,,2,7,-9,1,0,0,rectangle,7,-9,1,0,0,7,-9,1,0,0,0,49,49,5,1,,,,,,,,
,,,,,,,,,,,,,FF,,,,,,,,0.766,,,,,,,,,,,,,,,,,,,,,,60fe112dce8bff0e598703f1,61036c517feeb397dbffe6f3,2021-07-29_23h05.48.070,Simcolourproject_2stim_asymm_v5,2020.2.10,MacIntel,60,61025ae37ef11b136ea224fe,,,,,,,,,2812,71,-32,1,0,0,response3disk,,5,-29,19,1,0,0,rectangle,-29,19,1,0,0,-29,19,1,0,0,0,50,50,89,1,,,,,,,,
,,,,,,,,,,,,,FF,,,,,,,,0.75,,,,,,,,,,,,,,,,,,,,,,60fe112dce8bff0e598703f1,61036c517feeb397dbffe6f3,2021-07-29_23h05.48.070,Simcolourproject_2stim_asymm_v5,2020.2.10,MacIntel,60,61025ae37ef11b136ea224fe,,,,,,,,,1377,-47,-65,1,0,0,response5disk,,3,-25,-9,1,0,0,rectangle,-25,-9,1,0,0,-25,-9,1,0,0,0,51,51,34,1,,,,,,,,
,,,,,,,,,,,,,FF,,,,,,,,1.167,,,,,,,,,,,,,,,,,,,,,,60fe112dce8bff0e598703f1,61036c517feeb397dbffe6f3,2021-07-29_23h05.48.070,Simcolourproject_2stim_asymm_v5,2020.2.10,MacIntel,60,61025ae37ef11b136ea224fe,,,,,,,,,1280,79,40,1,0,0,response1disk,,6,15,11,1,0,0,rectangle,15,11,1,0,0,15,11,1,0,0,0,52,52,136,1,,,,,,,,
,,,,,,,,,,,,,FF,,,,,,,,0.682,,,,,,,,,,,,,,,,,,,,,,60fe112dce8bff0e598703f1,61036c517feeb397dbffe6f3,2021-07-29_23h05.48.070,Simcolourproject_2stim_asymm_v5,2020.2.10,MacIntel,60,61025ae37ef11b136ea224fe,,,,,,,,,2996,59,-33,1,0,0,response3disk,,5,1,-12,1,0,0,rectangle,1,-12,1,0,0,1,-12,1,0,0,0,53,53,69,1,,,,,,,,
,,,,,,,,,,,,,FF,,,,,,,,1.35,,,,,,,,,,,,,,,,,,,,,,60fe112dce8bff0e598703f1,61036c517feeb397dbffe6f3,2021-07-29_23h05.48.070,Simcolourproject_2stim_asymm_v5,2020.2.10,MacIntel,60,61025ae37ef11b136ea224fe,,,,,,,,,3724,85,68,1,0,0,response1disk,,6,4,8,1,0,0,rectangle,4,8,1,0,0,4,8,1,0,0,0,54,54,92,1,,,,,,,,
,,,,,,,,,,,,,FF,,,,,,,,0.684,,,,,,,,,,,,,,,,,,,,,,60fe112dce8bff0e598703f1,61036c517feeb397dbffe6f3,2021-07-29_23h05.48.070,Simcolourproject_2stim_asymm_v5,2020.2.10,MacIntel,60,61025ae37ef11b136ea224fe,,,,,,,,,318,49,84,1,0,0,response1disk,,7,3,-17,1,0,0,rectangle,3,-17,1,0,0,3,-17,1,0,0,0,55,55,54,1,,,,,,,,
,,,,,,,,,,,,,FF,,,,,,,,0.748,,,,,,,,,,,,,,,,,,,,,,60fe112dce8bff0e598703f1,61036c517feeb397dbffe6f3,2021-07-29_23h05.48.070,Simcolourproject_2stim_asymm_v5,2020.2.10,MacIntel,60,61025ae37ef11b136ea224fe,,,,,,,,,1849,80,35,1,0,0,response1disk,,6,11,7,1,0,0,rectangle,50,96,1,0,0,10,-5,1,0,0,0,56,56,44,1,,response1disk_3,TRUE,7,7,"[183,302,57,163,146,193,114,229,316,127,209,292,162,16,58,84,282,227,289,123]",1.416,rectangle
,,,,,,,,,,,,,FF,,,,,,,,0.951,,,,,,,,,,,,,,,,,,,,,,60fe112dce8bff0e598703f1,61036c517feeb397dbffe6f3,2021-07-29_23h05.48.070,Simcolourproject_2stim_asymm_v5,2020.2.10,MacIntel,60,61025ae37ef11b136ea224fe,,,,,,,,,391,82,40,1,0,0,response1disk,,6,4,10,1,0,0,rectangle,-84,-49,1,0,0,-7,-17,1,0,0,0,57,57,38,1,,response5disk_3,TRUE,2,2,"[183,302,57,163,146,193,114,229,316,127,209,292,162,16,58,84,282,227,289,123]",2.233,rectangle
,,,,,,,,,,,,,FF,,,,,,,,0.652,,,,,,,,,,,,,,,,,,,,,,60fe112dce8bff0e598703f1,61036c517feeb397dbffe6f3,2021-07-29_23h05.48.070,Simcolourproject_2stim_asymm_v5,2020.2.10,MacIntel,60,61025ae37ef11b136ea224fe,,,,,,,,,2911,67,-40,1,0,0,response3disk,,5,-8,-2,1,0,0,rectangle,-8,-2,1,0,0,-8,-2,1,0,0,0,58,58,51,1,,,,,,,,
,,,,,,,,,,,,,FF,,,,,,,,0.784,,,,,,,,,,,,,,,,,,,,,,60fe112dce8bff0e598703f1,61036c517feeb397dbffe6f3,2021-07-29_23h05.48.070,Simcolourproject_2stim_asymm_v5,2020.2.10,MacIntel,60,61025ae37ef11b136ea224fe,,,,,,,,,3079,67,-32,1,0,0,response3disk,,5,8,-3,1,0,0,rectangle,8,-3,1,0,0,8,-3,1,0,0,0,59,59,10,1,,,,,,,,
,,,,,,,,,,,,,FF,,,,,,,,1.081,,,,,,,,,,,,,,,,,,,,,,60fe112dce8bff0e598703f1,61036c517feeb397dbffe6f3,2021-07-29_23h05.48.070,Simcolourproject_2stim_asymm_v5,2020.2.10,MacIntel,60,61025ae37ef11b136ea224fe,,,,,,,,,2794,-34,-94,1,0,0,response5disk,,3,2,6,1,0,0,rectangle,2,6,1,0,0,2,6,1,0,0,0,60,60,104,1,,,,,,,,
,,,,,,,,,,,,,FF,,,,,,,,1.3,,,,,,,,,,,,,,,,,,,,,,60fe112dce8bff0e598703f1,61036c517feeb397dbffe6f3,2021-07-29_23h05.48.070,Simcolourproject_2stim_asymm_v5,2020.2.10,MacIntel,60,61025ae37ef11b136ea224fe,,,,,,,,,1499,74,40,1,0,0,response1disk,,6,-1,13,1,0,0,rectangle,-1,13,1,0,0,-1,13,1,0,0,0,61,61,156,1,,,,,,,,
,,,,,,,,,,,,,FF,,,,,,,,1.267,,,,,,,,,,,,,,,,,,,,,,60fe112dce8bff0e598703f1,61036c517feeb397dbffe6f3,2021-07-29_23h05.48.070,Simcolourproject_2stim_asymm_v5,2020.2.10,MacIntel,60,61025ae37ef11b136ea224fe,,,,,,,,,2417,101,-49,1,0,0,response3disk,,5,22,-7,1,0,0,rectangle,22,-7,1,0,0,22,-7,1,0,0,0,62,62,132,1,,,,,,,,
,,,,,,,,,,,,,FF,,,,,,,,0.699,,,,,,,,,,,,,,,,,,,,,,60fe112dce8bff0e598703f1,61036c517feeb397dbffe6f3,2021-07-29_23h05.48.070,Simcolourproject_2stim_asymm_v5,2020.2.10,MacIntel,60,61025ae37ef11b136ea224fe,,,,,,,,,1999,53,-30,1,0,0,response3disk,,5,4,2,1,0,0,rectangle,4,2,1,0,0,4,2,1,0,0,0,63,63,43,1,,,,,,,,
,,,,,,,,,,,,,FF,,,,,,,,0.815,,,,,,,,,,,,,,,,,,,,,,60fe112dce8bff0e598703f1,61036c517feeb397dbffe6f3,2021-07-29_23h05.48.070,Simcolourproject_2stim_asymm_v5,2020.2.10,MacIntel,60,61025ae37ef11b136ea224fe,,,,,,,,,3346,29,-64,1,0,0,response3disk,,4,4,-3,1,0,0,rectangle,4,-3,1,0,0,4,-3,1,0,0,0,64,64,133,1,,,,,,,,
,,,,,,,,,,,,,FF,,,,,,,,1.316,,,,,,,,,,,,,,,,,,,,,,60fe112dce8bff0e598703f1,61036c517feeb397dbffe6f3,2021-07-29_23h05.48.070,Simcolourproject_2stim_asymm_v5,2020.2.10,MacIntel,60,61025ae37ef11b136ea224fe,,,,,,,,,2223,34,-90,1,0,0,response3disk,,4,10,1,1,0,0,rectangle,10,1,1,0,0,10,1,1,0,0,0,65,65,4,1,,,,,,,,
,,,,,,,,,,,,,FF,,,,,,,,0.847,,,,,,,,,,,,,,,,,,,,,,60fe112dce8bff0e598703f1,61036c517feeb397dbffe6f3,2021-07-29_23h05.48.070,Simcolourproject_2stim_asymm_v5,2020.2.10,MacIntel,60,61025ae37ef11b136ea224fe,,,,,,,,,878,49,-83,1,0,0,response3disk,,4,5,2,1,0,0,rectangle,5,2,1,0,0,5,2,1,0,0,0,66,66,129,1,,,,,,,,
,,,,,,,,,,,,,FF,,,,,,,,0.847,,,,,,,,,,,,,,,,,,,,,,60fe112dce8bff0e598703f1,61036c517feeb397dbffe6f3,2021-07-29_23h05.48.070,Simcolourproject_2stim_asymm_v5,2020.2.10,MacIntel,60,61025ae37ef11b136ea224fe,,,,,,,,,602,97,-63,1,0,0,response3disk,,5,-1,-5,1,0,0,rectangle,-1,-5,1,0,0,-1,-5,1,0,0,0,67,67,149,1,,,,,,,,
,,,,,,,,,,,,,FF,,,,,,,,0.667,,,,,,,,,,,,,,,,,,,,,,60fe112dce8bff0e598703f1,61036c517feeb397dbffe6f3,2021-07-29_23h05.48.070,Simcolourproject_2stim_asymm_v5,2020.2.10,MacIntel,60,61025ae37ef11b136ea224fe,,,,,,,,,4339,-49,-99,1,0,0,response5disk,,3,-3,-13,1,0,0,rectangle,-3,-13,1,0,0,-3,-13,1,0,0,0,68,68,84,1,,,,,,,,
,,,,,,,,,,,,,FF,,,,,,,,0.765,,,,,,,,,,,,,,,,,,,,,,60fe112dce8bff0e598703f1,61036c517feeb397dbffe6f3,2021-07-29_23h05.48.070,Simcolourproject_2stim_asymm_v5,2020.2.10,MacIntel,60,61025ae37ef11b136ea224fe,,,,,,,,,2473,60,-104,1,0,0,response3disk,,4,15,-7,1,0,0,rectangle,15,-7,1,0,0,15,-7,1,0,0,0,69,69,122,1,,,,,,,,
,,,,,,,,,,,,,FF,,,,,,,,0.95,,,,,,,,,,,,,,,,,,,,,,60fe112dce8bff0e598703f1,61036c517feeb397dbffe6f3,2021-07-29_23h05.48.070,Simcolourproject_2stim_asymm_v5,2020.2.10,MacIntel,60,61025ae37ef11b136ea224fe,,,,,,,,,3074,85,43,1,0,0,response1disk,,6,12,8,1,0,0,rectangle,12,8,1,0,0,12,8,1,0,0,0,70,70,117,1,,,,,,,,
,,,,,,,,,,,,,FF,,,,,,,,0.702,,,,,,,,,,,,,,,,,,,,,,60fe112dce8bff0e598703f1,61036c517feeb397dbffe6f3,2021-07-29_23h05.48.070,Simcolourproject_2stim_asymm_v5,2020.2.10,MacIntel,60,61025ae37ef11b136ea224fe,,,,,,,,,3536,79,42,1,0,0,response1disk,,6,23,14,1,0,0,rectangle,23,14,1,0,0,23,14,1,0,0,0,71,71,116,1,,,,,,,,
,,,,,,,,,,,,,FF,,,,,,,,0.533,,,,,,,,,,,,,,,,,,,,,,60fe112dce8bff0e598703f1,61036c517feeb397dbffe6f3,2021-07-29_23h05.48.070,Simcolourproject_2stim_asymm_v5,2020.2.10,MacIntel,60,61025ae37ef11b136ea224fe,,,,,,,,,751,83,56,1,0,0,response1disk,,6,13,1,1,0,0,rectangle,13,1,1,0,0,13,1,1,0,0,0,72,72,98,1,,,,,,,,
,,,,,,,,,,,,,FF,,,,,,,,0.85,,,,,,,,,,,,,,,,,,,,,,60fe112dce8bff0e598703f1,61036c517feeb397dbffe6f3,2021-07-29_23h05.48.070,Simcolourproject_2stim_asymm_v5,2020.2.10,MacIntel,60,61025ae37ef11b136ea224fe,,,,,,,,,3243,-78,36,1,0,0,response7disk,,1,-12,15,1,0,0,rectangle,-12,15,1,0,0,-12,15,1,0,0,0,73,73,71,1,,,,,,,,
,,,,,,,,,,,,,FF,,,,,,,,1.049,,,,,,,,,,,,,,,,,,,,,,60fe112dce8bff0e598703f1,61036c517feeb397dbffe6f3,2021-07-29_23h05.48.070,Simcolourproject_2stim_asymm_v5,2020.2.10,MacIntel,60,61025ae37ef11b136ea224fe,,,,,,,,,2678,-65,-43,1,0,0,response5disk,,2,0,-10,1,0,0,rectangle,0,-10,1,0,0,0,-10,1,0,0,0,74,74,151,1,,,,,,,,
,,,,,,,,,,,,,FF,,,,,,,,0.833,,,,,,,,,,,,,,,,,,,,,,60fe112dce8bff0e598703f1,61036c517feeb397dbffe6f3,2021-07-29_23h05.48.070,Simcolourproject_2stim_asymm_v5,2020.2.10,MacIntel,60,61025ae37ef11b136ea224fe,,,,,,,,,2103,-34,-93,1,0,0,response5disk,,3,3,-12,1,0,0,rectangle,3,-12,1,0,0,3,-12,1,0,0,0,75,75,13,1,,,,,,,,
,,,,,,,,,,,,,FF,,,,,,,,0.766,,,,,,,,,,,,,,,,,,,,,,60fe112dce8bff0e598703f1,61036c517feeb397dbffe6f3,2021-07-29_23h05.48.070,Simcolourproject_2stim_asymm_v5,2020.2.10,MacIntel,60,61025ae37ef11b136ea224fe,,,,,,,,,1193,40,-65,1,0,0,response3disk,,4,19,-4,1,0,0,rectangle,19,-4,1,0,0,19,-4,1,0,0,0,76,76,157,1,,,,,,,,
,,,,,,,,,,,,,FF,,,,,,,,0.998,,,,,,,,,,,,,,,,,,,,,,60fe112dce8bff0e598703f1,61036c517feeb397dbffe6f3,2021-07-29_23h05.48.070,Simcolourproject_2stim_asymm_v5,2020.2.10,MacIntel,60,61025ae37ef11b136ea224fe,,,,,,,,,1033,86,-41,1,0,0,response3disk,,5,12,-1,1,0,0,rectangle,12,-1,1,0,0,12,-1,1,0,0,0,77,77,29,1,,,,,,,,
,,,,,,,,,,,,,FF,,,,,,,,1.014,,,,,,,,,,,,,,,,,,,,,,60fe112dce8bff0e598703f1,61036c517feeb397dbffe6f3,2021-07-29_23h05.48.070,Simcolourproject_2stim_asymm_v5,2020.2.10,MacIntel,60,61025ae37ef11b136ea224fe,,,,,,,,,4201,-84,36,1,0,0,response7disk,,1,-7,6,1,0,0,rectangle,-7,6,1,0,0,-7,6,1,0,0,0,78,78,42,1,,,,,,,,
,,,,,,,,,,,,,FF,,,,,,,,0.866,,,,,,,,,,,,,,,,,,,,,,60fe112dce8bff0e598703f1,61036c517feeb397dbffe6f3,2021-07-29_23h05.48.070,Simcolourproject_2stim_asymm_v5,2020.2.10,MacIntel,60,61025ae37ef11b136ea224fe,,,,,,,,,187,-79,-51,1,0,0,response5disk,,2,0,-5,1,0,0,rectangle,0,-5,1,0,0,0,-5,1,0,0,0,79,79,11,1,,,,,,,,
,,,,,,,,,,,,,FF,,,,,,,,0.696,,,,,,,,,,,,,,,,,,,,,,60fe112dce8bff0e598703f1,61036c517feeb397dbffe6f3,2021-07-29_23h05.48.070,Simcolourproject_2stim_asymm_v5,2020.2.10,MacIntel,60,61025ae37ef11b136ea224fe,,,,,,,,,2448,57,-90,1,0,0,response3disk,,4,-1,-2,1,0,0,rectangle,-1,-2,1,0,0,-1,-2,1,0,0,0,80,80,108,1,,,,,,,,
,,,,,,,,,,,,,FF,,,,,,,,4.784,,,,,,,,,,,,,,,,,,,,,,60fe112dce8bff0e598703f1,61036c517feeb397dbffe6f3,2021-07-29_23h05.48.070,Simcolourproject_2stim_asymm_v5,2020.2.10,MacIntel,60,61025ae37ef11b136ea224fe,,,,,,,,,1081,75,-48,1,0,0,response3disk,,5,21,-13,1,0,0,rectangle,21,-13,1,0,0,21,-13,1,0,0,0,81,81,52,1,,,,,,,,
,,,,,,,,,,,,,FF,,,,,,,,0.965,,,,,,,,,,,,,,,,,,,,,,60fe112dce8bff0e598703f1,61036c517feeb397dbffe6f3,2021-07-29_23h05.48.070,Simcolourproject_2stim_asymm_v5,2020.2.10,MacIntel,60,61025ae37ef11b136ea224fe,,,,,,,,,4294,-99,35,1,0,0,response7disk,,1,-19,0,1,0,0,rectangle,-19,0,1,0,0,-19,0,1,0,0,0,82,82,114,1,,,,,,,,
,,,,,,,,,,,,,FF,,,,,,,,0.699,,,,,,,,,,,,,,,,,,,,,,60fe112dce8bff0e598703f1,61036c517feeb397dbffe6f3,2021-07-29_23h05.48.070,Simcolourproject_2stim_asymm_v5,2020.2.10,MacIntel,60,61025ae37ef11b136ea224fe,,,,,,,,,3066,-42,-84,1,0,0,response5disk,,3,0,-13,1,0,0,rectangle,45,100,1,0,0,6,-2,1,0,0,0,83,83,18,1,,response1disk_3,TRUE,7,7,"[183,302,57,163,146,193,114,229,316,127,209,292,162,16,58,84,282,227,289,123]",2.199,rectangle
,,,,,,,,,,,,,FF,,,,,,,,1.151,,,,,,,,,,,,,,,,,,,,,,60fe112dce8bff0e598703f1,61036c517feeb397dbffe6f3,2021-07-29_23h05.48.070,Simcolourproject_2stim_asymm_v5,2020.2.10,MacIntel,60,61025ae37ef11b136ea224fe,,,,,,,,,3422,43,-75,1,0,0,response3disk,,4,10,1,1,0,0,rectangle,10,1,1,0,0,10,1,1,0,0,0,84,84,107,1,,,,,,,,
,,,,,,,,,,,,,FF,,,,,,,,1.283,,,,,,,,,,,,,,,,,,,,,,60fe112dce8bff0e598703f1,61036c517feeb397dbffe6f3,2021-07-29_23h05.48.070,Simcolourproject_2stim_asymm_v5,2020.2.10,MacIntel,60,61025ae37ef11b136ea224fe,,,,,,,,,897,-40,-89,1,0,0,response5disk,,3,6,-4,1,0,0,rectangle,6,-4,1,0,0,6,-4,1,0,0,0,85,85,142,1,,,,,,,,
,,,,,,,,,,,,,FF,,,,,,,,1.753,,,,,,,,,,,,,,,,,,,,,,60fe112dce8bff0e598703f1,61036c517feeb397dbffe6f3,2021-07-29_23h05.48.070,Simcolourproject_2stim_asymm_v5,2020.2.10,MacIntel,60,61025ae37ef11b136ea224fe,,,,,,,,,770,-33,-100,1,0,0,response5disk,,3,10,-2,1,0,0,rectangle,10,-2,1,0,0,10,-2,1,0,0,0,86,86,26,1,,,,,,,,
,,,,,,,,,,,,,FF,,,,,,,,0.667,,,,,,,,,,,,,,,,,,,,,,60fe112dce8bff0e598703f1,61036c517feeb397dbffe6f3,2021-07-29_23h05.48.070,Simcolourproject_2stim_asymm_v5,2020.2.10,MacIntel,60,61025ae37ef11b136ea224fe,,,,,,,,,901,-46,-76,1,0,0,response5disk,,3,-1,0,1,0,0,rectangle,-1,0,1,0,0,-1,0,1,0,0,0,87,87,59,1,,,,,,,,
,,,,,,,,,,,,,FF,,,,,,,,1.084,,,,,,,,,,,,,,,,,,,,,,60fe112dce8bff0e598703f1,61036c517feeb397dbffe6f3,2021-07-29_23h05.48.070,Simcolourproject_2stim_asymm_v5,2020.2.10,MacIntel,60,61025ae37ef11b136ea224fe,,,,,,,,,4178,89,-53,1,0,0,response3disk,,5,4,2,1,0,0,rectangle,4,2,1,0,0,4,2,1,0,0,0,88,88,67,1,,,,,,,,
,,,,,,,,,,,,,FF,,,,,,,,0.834,,,,,,,,,,,,,,,,,,,,,,60fe112dce8bff0e598703f1,61036c517feeb397dbffe6f3,2021-07-29_23h05.48.070,Simcolourproject_2stim_asymm_v5,2020.2.10,MacIntel,60,61025ae37ef11b136ea224fe,,,,,,,,,1975,33,-85,1,0,0,response3disk,,4,18,-3,1,0,0,rectangle,18,-3,1,0,0,18,-3,1,0,0,0,89,89,22,1,,,,,,,,
,,,,,,,,,,,,,FF,,,,,,,,0.9,,,,,,,,,,,,,,,,,,,,,,60fe112dce8bff0e598703f1,61036c517feeb397dbffe6f3,2021-07-29_23h05.48.070,Simcolourproject_2stim_asymm_v5,2020.2.10,MacIntel,60,61025ae37ef11b136ea224fe,,,,,,,,,1700,56,82,1,0,0,response1disk,,7,6,6,1,0,0,rectangle,6,6,1,0,0,6,6,1,0,0,0,90,90,80,1,,,,,,,,
,,,,,,,,,,,,,FF,,,,,,,,1.067,,,,,,,,,,,,,,,,,,,,,,60fe112dce8bff0e598703f1,61036c517feeb397dbffe6f3,2021-07-29_23h05.48.070,Simcolourproject_2stim_asymm_v5,2020.2.10,MacIntel,60,61025ae37ef11b136ea224fe,,,,,,,,,3389,-96,55,1,0,0,response7disk,,1,-5,3,1,0,0,rectangle,-5,3,1,0,0,-5,3,1,0,0,0,91,91,7,1,,,,,,,,
,,,,,,,,,,,,,FF,,,,,,,,1.167,,,,,,,,,,,,,,,,,,,,,,60fe112dce8bff0e598703f1,61036c517feeb397dbffe6f3,2021-07-29_23h05.48.070,Simcolourproject_2stim_asymm_v5,2020.2.10,MacIntel,60,61025ae37ef11b136ea224fe,,,,,,,,,3181,38,-96,1,0,0,response3disk,,4,9,-3,1,0,0,rectangle,9,-3,1,0,0,9,-3,1,0,0,0,92,92,28,1,,,,,,,,
,,,,,,,,,,,,,FF,,,,,,,,0.865,,,,,,,,,,,,,,,,,,,,,,60fe112dce8bff0e598703f1,61036c517feeb397dbffe6f3,2021-07-29_23h05.48.070,Simcolourproject_2stim_asymm_v5,2020.2.10,MacIntel,60,61025ae37ef11b136ea224fe,,,,,,,,,1922,77,-47,1,0,0,response3disk,,5,-3,-2,1,0,0,rectangle,-3,-2,1,0,0,-3,-2,1,0,0,0,93,93,106,1,,,,,,,,
,,,,,,,,,,,,,FF,,,,,,,,1.084,,,,,,,,,,,,,,,,,,,,,,60fe112dce8bff0e598703f1,61036c517feeb397dbffe6f3,2021-07-29_23h05.48.070,Simcolourproject_2stim_asymm_v5,2020.2.10,MacIntel,60,61025ae37ef11b136ea224fe,,,,,,,,,1841,68,-39,1,0,0,response3disk,,5,10,-13,1,0,0,rectangle,10,-13,1,0,0,10,-13,1,0,0,0,94,94,72,1,,,,,,,,
,,,,,,,,,,,,,FF,,,,,,,,1.066,,,,,,,,,,,,,,,,,,,,,,60fe112dce8bff0e598703f1,61036c517feeb397dbffe6f3,2021-07-29_23h05.48.070,Simcolourproject_2stim_asymm_v5,2020.2.10,MacIntel,60,61025ae37ef11b136ea224fe,,,,,,,,,3327,40,100,1,0,0,response1disk,,7,21,0,1,0,0,rectangle,21,0,1,0,0,21,0,1,0,0,0,95,95,16,1,,,,,,,,
,,,,,,,,,,,,,FF,,,,,,,,0.734,,,,,,,,,,,,,,,,,,,,,,60fe112dce8bff0e598703f1,61036c517feeb397dbffe6f3,2021-07-29_23h05.48.070,Simcolourproject_2stim_asymm_v5,2020.2.10,MacIntel,60,61025ae37ef11b136ea224fe,,,,,,,,,3672,-81,-37,1,0,0,response5disk,,2,14,-5,1,0,0,rectangle,14,-5,1,0,0,14,-5,1,0,0,0,96,96,111,1,,,,,,,,
,,,,,,,,,,,,,FF,,,,,,,,0.983,,,,,,,,,,,,,,,,,,,,,,60fe112dce8bff0e598703f1,61036c517feeb397dbffe6f3,2021-07-29_23h05.48.070,Simcolourproject_2stim_asymm_v5,2020.2.10,MacIntel,60,61025ae37ef11b136ea224fe,,,,,,,,,2149,97,65,1,0,0,response1disk,,6,8,19,1,0,0,rectangle,8,19,1,0,0,8,19,1,0,0,0,97,97,110,1,,,,,,,,
,,,,,,,,,,,,,FF,,,,,,,,0.966,,,,,,,,,,,,,,,,,,,,,,60fe112dce8bff0e598703f1,61036c517feeb397dbffe6f3,2021-07-29_23h05.48.070,Simcolourproject_2stim_asymm_v5,2020.2.10,MacIntel,60,61025ae37ef11b136ea224fe,,,,,,,,,3344,80,49,1,0,0,response1disk,,6,21,16,1,0,0,rectangle,21,16,1,0,0,21,16,1,0,0,0,98,98,76,1,,,,,,,,
,,,,,,,,,,,,,FF,,,,,,,,1.317,,,,,,,,,,,,,,,,,,,,,,60fe112dce8bff0e598703f1,61036c517feeb397dbffe6f3,2021-07-29_23h05.48.070,Simcolourproject_2stim_asymm_v5,2020.2.10,MacIntel,60,61025ae37ef11b136ea224fe,,,,,,,,,3996,47,-104,1,0,0,response3disk,,4,-3,3,1,0,0,rectangle,-3,3,1,0,0,-3,3,1,0,0,0,99,99,152,1,,,,,,,,
,,,,,,,,,,,,,FF,,,,,,,,1.15,,,,,,,,,,,,,,,,,,,,,,60fe112dce8bff0e598703f1,61036c517feeb397dbffe6f3,2021-07-29_23h05.48.070,Simcolourproject_2stim_asymm_v5,2020.2.10,MacIntel,60,61025ae37ef11b136ea224fe,,,,,,,,,2284,86,-37,1,0,0,response3disk,,5,9,-14,1,0,0,rectangle,9,-14,1,0,0,9,-14,1,0,0,0,100,100,112,1,,,,,,,,
,,,,,,,,,,,,,FF,,,,,,,,0.613,,,,,,,,,,,,,,,,,,,,,,60fe112dce8bff0e598703f1,61036c517feeb397dbffe6f3,2021-07-29_23h05.48.070,Simcolourproject_2stim_asymm_v5,2020.2.10,MacIntel,60,61025ae37ef11b136ea224fe,,,,,,,,,979,59,-39,1,0,0,response3disk,,5,-4,-20,1,0,0,rectangle,-4,-20,1,0,0,-4,-20,1,0,0,0,101,101,150,1,,,,,,,,
,,,,,,,,,,,,,FF,,,,,,,,0.667,,,,,,,,,,,,,,,,,,,,,,60fe112dce8bff0e598703f1,61036c517feeb397dbffe6f3,2021-07-29_23h05.48.070,Simcolourproject_2stim_asymm_v5,2020.2.10,MacIntel,60,61025ae37ef11b136ea224fe,,,,,,,,,4173,95,38,1,0,0,response1disk,,6,13,4,1,0,0,rectangle,13,4,1,0,0,13,4,1,0,0,0,102,102,81,1,,,,,,,,
,,,,,,,,,,,,,FF,,,,,,,,0.849,,,,,,,,,,,,,,,,,,,,,,60fe112dce8bff0e598703f1,61036c517feeb397dbffe6f3,2021-07-29_23h05.48.070,Simcolourproject_2stim_asymm_v5,2020.2.10,MacIntel,60,61025ae37ef11b136ea224fe,,,,,,,,,925,81,54,1,0,0,response1disk,,6,4,8,1,0,0,rectangle,4,8,1,0,0,4,8,1,0,0,0,103,103,2,1,,,,,,,,
,,,,,,,,,,,,,FF,,,,,,,,1.183,,,,,,,,,,,,,,,,,,,,,,60fe112dce8bff0e598703f1,61036c517feeb397dbffe6f3,2021-07-29_23h05.48.070,Simcolourproject_2stim_asymm_v5,2020.2.10,MacIntel,60,61025ae37ef11b136ea224fe,,,,,,,,,3940,-45,-104,1,0,0,response5disk,,3,4,-10,1,0,0,rectangle,4,-10,1,0,0,4,-10,1,0,0,0,104,104,87,1,,,,,,,,
,,,,,,,,,,,,,FF,,,,,,,,0.916,,,,,,,,,,,,,,,,,,,,,,60fe112dce8bff0e598703f1,61036c517feeb397dbffe6f3,2021-07-29_23h05.48.070,Simcolourproject_2stim_asymm_v5,2020.2.10,MacIntel,60,61025ae37ef11b136ea224fe,,,,,,,,,577,77,-46,1,0,0,response3disk,,5,14,-6,1,0,0,rectangle,14,-6,1,0,0,14,-6,1,0,0,0,105,105,86,1,,,,,,,,
,,,,,,,,,,,,,FF,,,,,,,,0.784,,,,,,,,,,,,,,,,,,,,,,60fe112dce8bff0e598703f1,61036c517feeb397dbffe6f3,2021-07-29_23h05.48.070,Simcolourproject_2stim_asymm_v5,2020.2.10,MacIntel,60,61025ae37ef11b136ea224fe,,,,,,,,,1867,39,-83,1,0,0,response3disk,,4,21,-18,1,0,0,rectangle,21,-18,1,0,0,21,-18,1,0,0,0,106,106,21,1,,,,,,,,
,,,,,,,,,,,,,FF,,,,,,,,0.833,,,,,,,,,,,,,,,,,,,,,,60fe112dce8bff0e598703f1,61036c517feeb397dbffe6f3,2021-07-29_23h05.48.070,Simcolourproject_2stim_asymm_v5,2020.2.10,MacIntel,60,61025ae37ef11b136ea224fe,,,,,,,,,2964,36,-73,1,0,0,response3disk,,4,12,-15,1,0,0,rectangle,12,-15,1,0,0,12,-15,1,0,0,0,107,107,9,1,,,,,,,,
,,,,,,,,,,,,,FF,,,,,,,,1.098,,,,,,,,,,,,,,,,,,,,,,60fe112dce8bff0e598703f1,61036c517feeb397dbffe6f3,2021-07-29_23h05.48.070,Simcolourproject_2stim_asymm_v5,2020.2.10,MacIntel,60,61025ae37ef11b136ea224fe,,,,,,,,,1073,87,46,1,0,0,response1disk,,6,6,-13,1,0,0,rectangle,6,-13,1,0,0,6,-13,1,0,0,0,108,108,139,1,,,,,,,,
,,,,,,,,,,,,,FF,,,,,,,,0.867,,,,,,,,,,,,,,,,,,,,,,60fe112dce8bff0e598703f1,61036c517feeb397dbffe6f3,2021-07-29_23h05.48.070,Simcolourproject_2stim_asymm_v5,2020.2.10,MacIntel,60,61025ae37ef11b136ea224fe,,,,,,,,,2786,-43,-95,1,0,0,response5disk,,3,-7,-3,1,0,0,rectangle,-7,-3,1,0,0,-7,-3,1,0,0,0,109,109,63,1,,,,,,,,
,,,,,,,,,,,,,FF,,,,,,,,0.917,,,,,,,,,,,,,,,,,,,,,,60fe112dce8bff0e598703f1,61036c517feeb397dbffe6f3,2021-07-29_23h05.48.070,Simcolourproject_2stim_asymm_v5,2020.2.10,MacIntel,60,61025ae37ef11b136ea224fe,,,,,,,,,2258,88,-50,1,0,0,response3disk,,5,16,-12,1,0,0,rectangle,16,-12,1,0,0,16,-12,1,0,0,0,110,110,53,1,,,,,,,,
,,,,,,,,,,,,,FF,,,,,,,,0.652,,,,,,,,,,,,,,,,,,,,,,60fe112dce8bff0e598703f1,61036c517feeb397dbffe6f3,2021-07-29_23h05.48.070,Simcolourproject_2stim_asymm_v5,2020.2.10,MacIntel,60,61025ae37ef11b136ea224fe,,,,,,,,,563,38,-79,1,0,0,response3disk,,4,13,-15,1,0,0,rectangle,13,-15,1,0,0,13,-15,1,0,0,0,111,111,40,1,,,,,,,,
,,,,,,,,,,,,,FF,,,,,,,,0.682,,,,,,,,,,,,,,,,,,,,,,60fe112dce8bff0e598703f1,61036c517feeb397dbffe6f3,2021-07-29_23h05.48.070,Simcolourproject_2stim_asymm_v5,2020.2.10,MacIntel,60,61025ae37ef11b136ea224fe,,,,,,,,,2682,88,-48,1,0,0,response3disk,,5,2,-15,1,0,0,rectangle,2,-15,1,0,0,2,-15,1,0,0,0,112,112,115,1,,,,,,,,
,,,,,,,,,,,,,FF,,,,,,,,0.8,,,,,,,,,,,,,,,,,,,,,,60fe112dce8bff0e598703f1,61036c517feeb397dbffe6f3,2021-07-29_23h05.48.070,Simcolourproject_2stim_asymm_v5,2020.2.10,MacIntel,60,61025ae37ef11b136ea224fe,,,,,,,,,3955,79,35,1,0,0,response1disk,,6,12,2,1,0,0,rectangle,57,99,1,0,0,16,-1,1,0,0,0,113,113,49,1,,response1disk_3,TRUE,7,7,"[183,302,57,163,146,193,114,229,316,127,209,292,162,16,58,84,282,227,289,123]",1.783,rectangle
,,,,,,,,,,,,,FF,,,,,,,,0.933,,,,,,,,,,,,,,,,,,,,,,60fe112dce8bff0e598703f1,61036c517feeb397dbffe6f3,2021-07-29_23h05.48.070,Simcolourproject_2stim_asymm_v5,2020.2.10,MacIntel,60,61025ae37ef11b136ea224fe,,,,,,,,,4118,-66,121,1,0,0,response7disk,,0,-10,3,1,0,0,rectangle,-10,3,1,0,0,-10,3,1,0,0,0,114,114,102,1,,,,,,,,
,,,,,,,,,,,,,FF,,,,,,,,0.667,,,,,,,,,,,,,,,,,,,,,,60fe112dce8bff0e598703f1,61036c517feeb397dbffe6f3,2021-07-29_23h05.48.070,Simcolourproject_2stim_asymm_v5,2020.2.10,MacIntel,60,61025ae37ef11b136ea224fe,,,,,,,,,4001,-68,-40,1,0,0,response5disk,,2,-12,-10,1,0,0,rectangle,-12,-10,1,0,0,-12,-10,1,0,0,0,115,115,60,1,,,,,,,,
,,,,,,,,,,,,,FF,,,,,,,,0.799,,,,,,,,,,,,,,,,,,,,,,60fe112dce8bff0e598703f1,61036c517feeb397dbffe6f3,2021-07-29_23h05.48.070,Simcolourproject_2stim_asymm_v5,2020.2.10,MacIntel,60,61025ae37ef11b136ea224fe,,,,,,,,,2200,82,-37,1,0,0,response3disk,,5,23,-7,1,0,0,rectangle,23,-7,1,0,0,23,-7,1,0,0,0,116,116,55,1,,,,,,,,
,,,,,,,,,,,,,FF,,,,,,,,0.668,,,,,,,,,,,,,,,,,,,,,,60fe112dce8bff0e598703f1,61036c517feeb397dbffe6f3,2021-07-29_23h05.48.070,Simcolourproject_2stim_asymm_v5,2020.2.10,MacIntel,60,61025ae37ef11b136ea224fe,,,,,,,,,1635,90,51,1,0,0,response1disk,,6,-7,4,1,0,0,rectangle,-7,4,1,0,0,-7,4,1,0,0,0,117,117,75,1,,,,,,,,
,,,,,,,,,,,,,FF,,,,,,,,1.001,,,,,,,,,,,,,,,,,,,,,,60fe112dce8bff0e598703f1,61036c517feeb397dbffe6f3,2021-07-29_23h05.48.070,Simcolourproject_2stim_asymm_v5,2020.2.10,MacIntel,60,61025ae37ef11b136ea224fe,,,,,,,,,3528,92,36,1,0,0,response1disk,,6,7,2,1,0,0,rectangle,7,2,1,0,0,7,2,1,0,0,0,118,118,135,1,,,,,,,,
,,,,,,,,,,,,,FF,,,,,,,,0.532,,,,,,,,,,,,,,,,,,,,,,60fe112dce8bff0e598703f1,61036c517feeb397dbffe6f3,2021-07-29_23h05.48.070,Simcolourproject_2stim_asymm_v5,2020.2.10,MacIntel,60,61025ae37ef11b136ea224fe,,,,,,,,,590,88,40,1,0,0,response1disk,,6,7,-2,1,0,0,rectangle,7,-2,1,0,0,7,-2,1,0,0,0,119,119,94,1,,,,,,,,
,,,,,,,,,,,,,FF,,,,,,,,0.999,,,,,,,,,,,,,,,,,,,,,,60fe112dce8bff0e598703f1,61036c517feeb397dbffe6f3,2021-07-29_23h05.48.070,Simcolourproject_2stim_asymm_v5,2020.2.10,MacIntel,60,61025ae37ef11b136ea224fe,,,,,,,,,3934,103,-54,1,0,0,response3disk,,5,17,-11,1,0,0,rectangle,17,-11,1,0,0,17,-11,1,0,0,0,120,120,131,1,,,,,,,,
,,,,,,,,,,,,,FF,,,,,,,,0.732,,,,,,,,,,,,,,,,,,,,,,60fe112dce8bff0e598703f1,61036c517feeb397dbffe6f3,2021-07-29_23h05.48.070,Simcolourproject_2stim_asymm_v5,2020.2.10,MacIntel,60,61025ae37ef11b136ea224fe,,,,,,,,,2328,100,48,1,0,0,response1disk,,6,0,6,1,0,0,rectangle,0,6,1,0,0,0,6,1,0,0,0,121,121,70,1,,,,,,,,
,,,,,,,,,,,,,FF,,,,,,,,0.9,,,,,,,,,,,,,,,,,,,,,,60fe112dce8bff0e598703f1,61036c517feeb397dbffe6f3,2021-07-29_23h05.48.070,Simcolourproject_2stim_asymm_v5,2020.2.10,MacIntel,60,61025ae37ef11b136ea224fe,,,,,,,,,4113,81,36,1,0,0,response1disk,,6,11,12,1,0,0,rectangle,-94,38,1,0,0,-9,5,1,0,0,0,122,122,126,1,,response7disk_3,TRUE,1,1,"[183,302,57,163,146,193,114,229,316,127,209,292,162,16,58,84,282,227,289,123]",1.649,rectangle
,,,,,,,,,,,,,FF,,,,,,,,0.65,,,,,,,,,,,,,,,,,,,,,,60fe112dce8bff0e598703f1,61036c517feeb397dbffe6f3,2021-07-29_23h05.48.070,Simcolourproject_2stim_asymm_v5,2020.2.10,MacIntel,60,61025ae37ef11b136ea224fe,,,,,,,,,3730,77,45,1,0,0,response1disk,,6,2,11,1,0,0,rectangle,2,11,1,0,0,2,11,1,0,0,0,123,123,105,1,,,,,,,,
,,,,,,,,,,,,,FF,,,,,,,,0.583,,,,,,,,,,,,,,,,,,,,,,60fe112dce8bff0e598703f1,61036c517feeb397dbffe6f3,2021-07-29_23h05.48.070,Simcolourproject_2stim_asymm_v5,2020.2.10,MacIntel,60,61025ae37ef11b136ea224fe,,,,,,,,,3104,-40,-88,1,0,0,response5disk,,3,1,-12,1,0,0,rectangle,1,-12,1,0,0,1,-12,1,0,0,0,124,124,101,1,,,,,,,,
,,,,,,,,,,,,,FF,,,,,,,,0.6,,,,,,,,,,,,,,,,,,,,,,60fe112dce8bff0e598703f1,61036c517feeb397dbffe6f3,2021-07-29_23h05.48.070,Simcolourproject_2stim_asymm_v5,2020.2.10,MacIntel,60,61025ae37ef11b136ea224fe,,,,,,,,,2664,-47,-85,1,0,0,response5disk,,3,5,-15,1,0,0,rectangle,5,-15,1,0,0,5,-15,1,0,0,0,125,125,30,1,,,,,,,,
,,,,,,,,,,,,,FF,,,,,,,,0.733,,,,,,,,,,,,,,,,,,,,,,60fe112dce8bff0e598703f1,61036c517feeb397dbffe6f3,2021-07-29_23h05.48.070,Simcolourproject_2stim_asymm_v5,2020.2.10,MacIntel,60,61025ae37ef11b136ea224fe,,,,,,,,,3572,67,-35,1,0,0,response3disk,,5,6,-19,1,0,0,rectangle,-44,-104,1,0,0,-1,7,1,0,0,0,126,126,123,1,,response5disk_3,TRUE,3,3,"[183,302,57,163,146,193,114,229,316,127,209,292,162,16,58,84,282,227,289,123]",1.883,rectangle
,,,,,,,,,,,,,FF,,,,,,,,0.833,,,,,,,,,,,,,,,,,,,,,,60fe112dce8bff0e598703f1,61036c517feeb397dbffe6f3,2021-07-29_23h05.48.070,Simcolourproject_2stim_asymm_v5,2020.2.10,MacIntel,60,61025ae37ef11b136ea224fe,,,,,,,,,4032,37,-80,1,0,0,response3disk,,4,16,-2,1,0,0,rectangle,16,-2,1,0,0,16,-2,1,0,0,0,127,127,140,1,,,,,,,,
,,,,,,,,,,,,,FF,,,,,,,,0.767,,,,,,,,,,,,,,,,,,,,,,60fe112dce8bff0e598703f1,61036c517feeb397dbffe6f3,2021-07-29_23h05.48.070,Simcolourproject_2stim_asymm_v5,2020.2.10,MacIntel,60,61025ae37ef11b136ea224fe,,,,,,,,,4077,47,-102,1,0,0,response3disk,,4,8,15,1,0,0,rectangle,8,15,1,0,0,8,15,1,0,0,0,128,128,62,1,,,,,,,,
,,,,,,,,,,,,,FF,,,,,,,,1.166,,,,,,,,,,,,,,,,,,,,,,60fe112dce8bff0e598703f1,61036c517feeb397dbffe6f3,2021-07-29_23h05.48.070,Simcolourproject_2stim_asymm_v5,2020.2.10,MacIntel,60,61025ae37ef11b136ea224fe,,,,,,,,,1926,90,54,1,0,0,response1disk,,6,16,10,1,0,0,rectangle,16,10,1,0,0,16,10,1,0,0,0,129,129,41,1,,,,,,,,
,,,,,,,,,,,,,FF,,,,,,,,0.783,,,,,,,,,,,,,,,,,,,,,,60fe112dce8bff0e598703f1,61036c517feeb397dbffe6f3,2021-07-29_23h05.48.070,Simcolourproject_2stim_asymm_v5,2020.2.10,MacIntel,60,61025ae37ef11b136ea224fe,,,,,,,,,2834,-86,41,1,0,0,response7disk,,1,-22,6,1,0,0,rectangle,-22,6,1,0,0,-22,6,1,0,0,0,130,130,23,1,,,,,,,,
,,,,,,,,,,,,,FF,,,,,,,,0.601,,,,,,,,,,,,,,,,,,,,,,60fe112dce8bff0e598703f1,61036c517feeb397dbffe6f3,2021-07-29_23h05.48.070,Simcolourproject_2stim_asymm_v5,2020.2.10,MacIntel,60,61025ae37ef11b136ea224fe,,,,,,,,,1649,105,35,1,0,0,response1disk,,6,17,7,1,0,0,rectangle,17,7,1,0,0,17,7,1,0,0,0,131,131,73,1,,,,,,,,
,,,,,,,,,,,,,FF,,,,,,,,0.983,,,,,,,,,,,,,,,,,,,,,,60fe112dce8bff0e598703f1,61036c517feeb397dbffe6f3,2021-07-29_23h05.48.070,Simcolourproject_2stim_asymm_v5,2020.2.10,MacIntel,60,61025ae37ef11b136ea224fe,,,,,,,,,3894,84,43,1,0,0,response1disk,,6,13,-3,1,0,0,rectangle,13,-3,1,0,0,13,-3,1,0,0,0,132,132,143,1,,,,,,,,
,,,,,,,,,,,,,FF,,,,,,,,0.716,,,,,,,,,,,,,,,,,,,,,,60fe112dce8bff0e598703f1,61036c517feeb397dbffe6f3,2021-07-29_23h05.48.070,Simcolourproject_2stim_asymm_v5,2020.2.10,MacIntel,60,61025ae37ef11b136ea224fe,,,,,,,,,1764,71,-31,1,0,0,response3disk,,5,33,-15,1,0,0,rectangle,33,-15,1,0,0,33,-15,1,0,0,0,133,133,57,1,,,,,,,,
,,,,,,,,,,,,,FF,,,,,,,,0.635,,,,,,,,,,,,,,,,,,,,,,60fe112dce8bff0e598703f1,61036c517feeb397dbffe6f3,2021-07-29_23h05.48.070,Simcolourproject_2stim_asymm_v5,2020.2.10,MacIntel,60,61025ae37ef11b136ea224fe,,,,,,,,,1503,79,-42,1,0,0,response3disk,,5,3,-7,1,0,0,rectangle,3,-7,1,0,0,3,-7,1,0,0,0,134,134,32,1,,,,,,,,
,,,,,,,,,,,,,FF,,,,,,,,0.751,,,,,,,,,,,,,,,,,,,,,,60fe112dce8bff0e598703f1,61036c517feeb397dbffe6f3,2021-07-29_23h05.48.070,Simcolourproject_2stim_asymm_v5,2020.2.10,MacIntel,60,61025ae37ef11b136ea224fe,,,,,,,,,1103,97,58,1,0,0,response1disk,,6,10,-2,1,0,0,rectangle,10,-2,1,0,0,10,-2,1,0,0,0,135,135,31,1,,,,,,,,
,,,,,,,,,,,,,FF,,,,,,,,0.898,,,,,,,,,,,,,,,,,,,,,,60fe112dce8bff0e598703f1,61036c517feeb397dbffe6f3,2021-07-29_23h05.48.070,Simcolourproject_2stim_asymm_v5,2020.2.10,MacIntel,60,61025ae37ef11b136ea224fe,,,,,,,,,803,-89,45,1,0,0,response7disk,,1,-9,5,1,0,0,rectangle,-9,5,1,0,0,-9,5,1,0,0,0,136,136,109,1,,,,,,,,
,,,,,,,,,,,,,FF,,,,,,,,0.831,,,,,,,,,,,,,,,,,,,,,,60fe112dce8bff0e598703f1,61036c517feeb397dbffe6f3,2021-07-29_23h05.48.070,Simcolourproject_2stim_asymm_v5,2020.2.10,MacIntel,60,61025ae37ef11b136ea224fe,,,,,,,,,910,77,-45,1,0,0,response3disk,,5,27,-4,1,0,0,rectangle,27,-4,1,0,0,27,-4,1,0,0,0,137,137,159,1,,,,,,,,
,,,,,,,,,,,,,FF,,,,,,,,0.549,,,,,,,,,,,,,,,,,,,,,,60fe112dce8bff0e598703f1,61036c517feeb397dbffe6f3,2021-07-29_23h05.48.070,Simcolourproject_2stim_asymm_v5,2020.2.10,MacIntel,60,61025ae37ef11b136ea224fe,,,,,,,,,114,68,-27,1,0,0,response3disk,,5,17,-15,1,0,0,rectangle,17,-15,1,0,0,17,-15,1,0,0,0,138,138,155,1,,,,,,,,
,,,,,,,,,,,,,FF,,,,,,,,0.75,,,,,,,,,,,,,,,,,,,,,,60fe112dce8bff0e598703f1,61036c517feeb397dbffe6f3,2021-07-29_23h05.48.070,Simcolourproject_2stim_asymm_v5,2020.2.10,MacIntel,60,61025ae37ef11b136ea224fe,,,,,,,,,3512,-80,-37,1,0,0,response5disk,,2,36,-3,1,0,0,rectangle,36,-3,1,0,0,36,-3,1,0,0,0,139,139,79,1,,,,,,,,
,,,,,,,,,,,,,FF,,,,,,,,0.884,,,,,,,,,,,,,,,,,,,,,,60fe112dce8bff0e598703f1,61036c517feeb397dbffe6f3,2021-07-29_23h05.48.070,Simcolourproject_2stim_asymm_v5,2020.2.10,MacIntel,60,61025ae37ef11b136ea224fe,,,,,,,,,3757,77,-43,1,0,0,response3disk,,5,7,-9,1,0,0,rectangle,7,-9,1,0,0,7,-9,1,0,0,0,140,140,65,1,,,,,,,,
,,,,,,,,,,,,,FF,,,,,,,,1.033,,,,,,,,,,,,,,,,,,,,,,60fe112dce8bff0e598703f1,61036c517feeb397dbffe6f3,2021-07-29_23h05.48.070,Simcolourproject_2stim_asymm_v5,2020.2.10,MacIntel,60,61025ae37ef11b136ea224fe,,,,,,,,,2960,75,-45,1,0,0,response3disk,,5,7,-14,1,0,0,rectangle,7,-14,1,0,0,7,-14,1,0,0,0,141,141,74,1,,,,,,,,
,,,,,,,,,,,,,FF,,,,,,,,1.149,,,,,,,,,,,,,,,,,,,,,,60fe112dce8bff0e598703f1,61036c517feeb397dbffe6f3,2021-07-29_23h05.48.070,Simcolourproject_2stim_asymm_v5,2020.2.10,MacIntel,60,61025ae37ef11b136ea224fe,,,,,,,,,3643,86,39,1,0,0,response1disk,,6,11,3,1,0,0,rectangle,11,3,1,0,0,11,3,1,0,0,0,142,142,58,1,,,,,,,,
,,,,,,,,,,,,,FF,,,,,,,,0.717,,,,,,,,,,,,,,,,,,,,,,60fe112dce8bff0e598703f1,61036c517feeb397dbffe6f3,2021-07-29_23h05.48.070,Simcolourproject_2stim_asymm_v5,2020.2.10,MacIntel,60,61025ae37ef11b136ea224fe,,,,,,,,,3138,88,48,1,0,0,response1disk,,6,7,17,1,0,0,rectangle,7,17,1,0,0,7,17,1,0,0,0,143,143,127,1,,,,,,,,
,,,,,,,,,,,,,FF,,,,,,,,0.8,,,,,,,,,,,,,,,,,,,,,,60fe112dce8bff0e598703f1,61036c517feeb397dbffe6f3,2021-07-29_23h05.48.070,Simcolourproject_2stim_asymm_v5,2020.2.10,MacIntel,60,61025ae37ef11b136ea224fe,,,,,,,,,4095,-59,94,1,0,0,response7disk,,0,-1,11,1,0,0,rectangle,-1,11,1,0,0,-1,11,1,0,0,0,144,144,45,1,,,,,,,,
,,,,,,,,,,,,,FF,,,,,,,,0.814,,,,,,,,,,,,,,,,,,,,,,60fe112dce8bff0e598703f1,61036c517feeb397dbffe6f3,2021-07-29_23h05.48.070,Simcolourproject_2stim_asymm_v5,2020.2.10,MacIntel,60,61025ae37ef11b136ea224fe,,,,,,,,,2793,-38,-100,1,0,0,response5disk,,3,3,6,1,0,0,rectangle,-48,77,1,0,0,12,8,1,0,0,0,145,145,19,1,,response7disk_3,TRUE,0,0,"[183,302,57,163,146,193,114,229,316,127,209,292,162,16,58,84,282,227,289,123]",2.035,rectangle
,,,,,,,,,,,,,FF,,,,,,,,0.933,,,,,,,,,,,,,,,,,,,,,,60fe112dce8bff0e598703f1,61036c517feeb397dbffe6f3,2021-07-29_23h05.48.070,Simcolourproject_2stim_asymm_v5,2020.2.10,MacIntel,60,61025ae37ef11b136ea224fe,,,,,,,,,3785,-38,-79,1,0,0,response5disk,,3,-19,-8,1,0,0,rectangle,-19,-8,1,0,0,-19,-8,1,0,0,0,146,146,0,1,,,,,,,,
,,,,,,,,,,,,,FF,,,,,,,,0.9,,,,,,,,,,,,,,,,,,,,,,60fe112dce8bff0e598703f1,61036c517feeb397dbffe6f3,2021-07-29_23h05.48.070,Simcolourproject_2stim_asymm_v5,2020.2.10,MacIntel,60,61025ae37ef11b136ea224fe,,,,,,,,,886,-109,49,1,0,0,response7disk,,1,0,10,1,0,0,rectangle,0,10,1,0,0,0,10,1,0,0,0,147,147,148,1,,,,,,,,
,,,,,,,,,,,,,FF,,,,,,,,0.701,,,,,,,,,,,,,,,,,,,,,,60fe112dce8bff0e598703f1,61036c517feeb397dbffe6f3,2021-07-29_23h05.48.070,Simcolourproject_2stim_asymm_v5,2020.2.10,MacIntel,60,61025ae37ef11b136ea224fe,,,,,,,,,1769,60,-37,1,0,0,response3disk,,5,-3,-1,1,0,0,rectangle,-3,-1,1,0,0,-3,-1,1,0,0,0,148,148,120,1,,,,,,,,
,,,,,,,,,,,,,FF,,,,,,,,0.867,,,,,,,,,,,,,,,,,,,,,,60fe112dce8bff0e598703f1,61036c517feeb397dbffe6f3,2021-07-29_23h05.48.070,Simcolourproject_2stim_asymm_v5,2020.2.10,MacIntel,60,61025ae37ef11b136ea224fe,,,,,,,,,1908,45,-100,1,0,0,response3disk,,4,13,-2,1,0,0,rectangle,13,-2,1,0,0,13,-2,1,0,0,0,149,149,137,1,,,,,,,,
,,,,,,,,,,,,,FF,,,,,,,,0.784,,,,,,,,,,,,,,,,,,,,,,60fe112dce8bff0e598703f1,61036c517feeb397dbffe6f3,2021-07-29_23h05.48.070,Simcolourproject_2stim_asymm_v5,2020.2.10,MacIntel,60,61025ae37ef11b136ea224fe,,,,,,,,,1316,86,-63,1,0,0,response3disk,,5,9,-11,1,0,0,rectangle,9,-11,1,0,0,9,-11,1,0,0,0,150,150,119,1,,,,,,,,
,,,,,,,,,,,,,FF,,,,,,,,1.149,,,,,,,,,,,,,,,,,,,,,,60fe112dce8bff0e598703f1,61036c517feeb397dbffe6f3,2021-07-29_23h05.48.070,Simcolourproject_2stim_asymm_v5,2020.2.10,MacIntel,60,61025ae37ef11b136ea224fe,,,,,,,,,3532,41,-92,1,0,0,response3disk,,4,6,-15,1,0,0,rectangle,6,-15,1,0,0,6,-15,1,0,0,0,151,151,158,1,,,,,,,,
,,,,,,,,,,,,,FF,,,,,,,,0.683,,,,,,,,,,,,,,,,,,,,,,60fe112dce8bff0e598703f1,61036c517feeb397dbffe6f3,2021-07-29_23h05.48.070,Simcolourproject_2stim_asymm_v5,2020.2.10,MacIntel,60,61025ae37ef11b136ea224fe,,,,,,,,,4343,-76,55,1,0,0,response7disk,,1,-13,-7,1,0,0,rectangle,-13,-7,1,0,0,-13,-7,1,0,0,0,152,152,56,1,,,,,,,,
,,,,,,,,,,,,,FF,,,,,,,,1.251,,,,,,,,,,,,,,,,,,,,,,60fe112dce8bff0e598703f1,61036c517feeb397dbffe6f3,2021-07-29_23h05.48.070,Simcolourproject_2stim_asymm_v5,2020.2.10,MacIntel,60,61025ae37ef11b136ea224fe,,,,,,,,,3244,-100,-34,1,0,0,response5disk,,2,6,-15,1,0,0,rectangle,6,-15,1,0,0,6,-15,1,0,0,0,153,153,83,1,,,,,,,,
,,,,,,,,,,,,,FF,,,,,,,,0.92,,,,,,,,,,,,,,,,,,,,,,60fe112dce8bff0e598703f1,61036c517feeb397dbffe6f3,2021-07-29_23h05.48.070,Simcolourproject_2stim_asymm_v5,2020.2.10,MacIntel,60,61025ae37ef11b136ea224fe,,,,,,,,,1267,74,-51,1,0,0,response3disk,,5,12,-6,1,0,0,rectangle,12,-6,1,0,0,12,-6,1,0,0,0,154,154,46,1,,,,,,,,
,,,,,,,,,,,,,FF,,,,,,,,0.8,,,,,,,,,,,,,,,,,,,,,,60fe112dce8bff0e598703f1,61036c517feeb397dbffe6f3,2021-07-29_23h05.48.070,Simcolourproject_2stim_asymm_v5,2020.2.10,MacIntel,60,61025ae37ef11b136ea224fe,,,,,,,,,1225,92,-45,1,0,0,response3disk,,5,11,-6,1,0,0,rectangle,11,-6,1,0,0,11,-6,1,0,0,0,155,155,130,1,,,,,,,,
,,,,,,,,,,,,,FF,,,,,,,,0.6,,,,,,,,,,,,,,,,,,,,,,60fe112dce8bff0e598703f1,61036c517feeb397dbffe6f3,2021-07-29_23h05.48.070,Simcolourproject_2stim_asymm_v5,2020.2.10,MacIntel,60,61025ae37ef11b136ea224fe,,,,,,,,,121,76,32,1,0,0,response1disk,,6,20,-12,1,0,0,rectangle,20,-12,1,0,0,20,-12,1,0,0,0,156,156,97,1,,,,,,,,
,,,,,,,,,,,,,FF,,,,,,,,0.631,,,,,,,,,,,,,,,,,,,,,,60fe112dce8bff0e598703f1,61036c517feeb397dbffe6f3,2021-07-29_23h05.48.070,Simcolourproject_2stim_asymm_v5,2020.2.10,MacIntel,60,61025ae37ef11b136ea224fe,,,,,,,,,1006,76,37,1,0,0,response1disk,,6,11,4,1,0,0,rectangle,11,4,1,0,0,11,4,1,0,0,0,157,157,138,1,,,,,,,,
,,,,,,,,,,,,,FF,,,,,,,,1.149,,,,,,,,,,,,,,,,,,,,,,60fe112dce8bff0e598703f1,61036c517feeb397dbffe6f3,2021-07-29_23h05.48.070,Simcolourproject_2stim_asymm_v5,2020.2.10,MacIntel,60,61025ae37ef11b136ea224fe,,,,,,,,,1462,-84,-48,1,0,0,response5disk,,2,-8,2,1,0,0,rectangle,-8,2,1,0,0,-8,2,1,0,0,0,158,158,95,1,,,,,,,,
,,,,,,,,,,,,,FF,,,,,,,,1.133,,,,,,,,,,,,,,,,,,,,,,60fe112dce8bff0e598703f1,61036c517feeb397dbffe6f3,2021-07-29_23h05.48.070,Simcolourproject_2stim_asymm_v5,2020.2.10,MacIntel,60,61025ae37ef11b136ea224fe,,,,,,,,,3589,89,39,1,0,0,response1disk,,6,1,-10,1,0,0,rectangle,1,-10,1,0,0,1,-10,1,0,0,0,159,159,88,1,,,,,,,,
,,,,,,,,,,,,,FF,,,,,,,,0.836,,,,,,,,,,,,,,,,,,,,,,60fe112dce8bff0e598703f1,61036c517feeb397dbffe6f3,2021-07-29_23h05.48.070,Simcolourproject_2stim_asymm_v5,2020.2.10,MacIntel,60,61025ae37ef11b136ea224fe,,,,,,,,,1898,-71,-42,1,0,0,response5disk,,2,-9,-14,1,0,0,rectangle,-9,-14,1,0,0,-9,-14,1,0,0,1,0,160,141,1,,,,,,,,
,,,,,,,,,,,,,FF,,,,,,,,0.749,,,,,,,,,,,,,,,,,,,,,,60fe112dce8bff0e598703f1,61036c517feeb397dbffe6f3,2021-07-29_23h05.48.070,Simcolourproject_2stim_asymm_v5,2020.2.10,MacIntel,60,61025ae37ef11b136ea224fe,,,,,,,,,2230,41,-82,1,0,0,response3disk,,4,7,1,1,0,0,rectangle,88,-45,1,0,0,13,-6,1,0,0,1,1,161,1,1,,response3disk_3,TRUE,5,5,"[183,302,57,163,146,193,114,229,316,127,209,292,162,16,58,84,282,227,289,123]",1.634,rectangle
,,,,,,,,,,,,,FF,,,,,,,,0.882,,,,,,,,,,,,,,,,,,,,,,60fe112dce8bff0e598703f1,61036c517feeb397dbffe6f3,2021-07-29_23h05.48.070,Simcolourproject_2stim_asymm_v5,2020.2.10,MacIntel,60,61025ae37ef11b136ea224fe,,,,,,,,,4081,44,-69,1,0,0,response3disk,,4,26,-4,1,0,0,rectangle,100,-34,1,0,0,9,-4,1,0,0,1,2,162,134,1,,response3disk_3,TRUE,5,5,"[183,302,57,163,146,193,114,229,316,127,209,292,162,16,58,84,282,227,289,123]",1.382,rectangle
,,,,,,,,,,,,,FF,,,,,,,,0.684,,,,,,,,,,,,,,,,,,,,,,60fe112dce8bff0e598703f1,61036c517feeb397dbffe6f3,2021-07-29_23h05.48.070,Simcolourproject_2stim_asymm_v5,2020.2.10,MacIntel,60,61025ae37ef11b136ea224fe,,,,,,,,,1839,49,-101,1,0,0,response3disk,,4,8,-4,1,0,0,rectangle,8,-4,1,0,0,8,-4,1,0,0,1,3,163,42,1,,,,,,,,
,,,,,,,,,,,,,FF,,,,,,,,0.733,,,,,,,,,,,,,,,,,,,,,,60fe112dce8bff0e598703f1,61036c517feeb397dbffe6f3,2021-07-29_23h05.48.070,Simcolourproject_2stim_asymm_v5,2020.2.10,MacIntel,60,61025ae37ef11b136ea224fe,,,,,,,,,2296,30,-79,1,0,0,response3disk,,4,1,5,1,0,0,rectangle,1,5,1,0,0,1,5,1,0,0,1,4,164,109,1,,,,,,,,
,,,,,,,,,,,,,FF,,,,,,,,0.583,,,,,,,,,,,,,,,,,,,,,,60fe112dce8bff0e598703f1,61036c517feeb397dbffe6f3,2021-07-29_23h05.48.070,Simcolourproject_2stim_asymm_v5,2020.2.10,MacIntel,60,61025ae37ef11b136ea224fe,,,,,,,,,2675,73,-47,1,0,0,response3disk,,5,10,-3,1,0,0,rectangle,10,-3,1,0,0,10,-3,1,0,0,1,5,165,72,1,,,,,,,,
,,,,,,,,,,,,,FF,,,,,,,,0.633,,,,,,,,,,,,,,,,,,,,,,60fe112dce8bff0e598703f1,61036c517feeb397dbffe6f3,2021-07-29_23h05.48.070,Simcolourproject_2stim_asymm_v5,2020.2.10,MacIntel,60,61025ae37ef11b136ea224fe,,,,,,,,,2263,82,-48,1,0,0,response3disk,,5,22,-8,1,0,0,rectangle,22,-8,1,0,0,22,-8,1,0,0,1,6,166,78,1,,,,,,,,
,,,,,,,,,,,,,FF,,,,,,,,0.566,,,,,,,,,,,,,,,,,,,,,,60fe112dce8bff0e598703f1,61036c517feeb397dbffe6f3,2021-07-29_23h05.48.070,Simcolourproject_2stim_asymm_v5,2020.2.10,MacIntel,60,61025ae37ef11b136ea224fe,,,,,,,,,2389,74,-38,1,0,0,response3disk,,5,5,-8,1,0,0,rectangle,5,-8,1,0,0,5,-8,1,0,0,1,7,167,64,1,,,,,,,,
,,,,,,,,,,,,,FF,,,,,,,,0.966,,,,,,,,,,,,,,,,,,,,,,60fe112dce8bff0e598703f1,61036c517feeb397dbffe6f3,2021-07-29_23h05.48.070,Simcolourproject_2stim_asymm_v5,2020.2.10,MacIntel,60,61025ae37ef11b136ea224fe,,,,,,,,,2549,-103,51,1,0,0,response7disk,,1,-18,-4,1,0,0,rectangle,-18,-4,1,0,0,-18,-4,1,0,0,1,8,168,41,1,,,,,,,,
,,,,,,,,,,,,,FF,,,,,,,,0.6,,,,,,,,,,,,,,,,,,,,,,60fe112dce8bff0e598703f1,61036c517feeb397dbffe6f3,2021-07-29_23h05.48.070,Simcolourproject_2stim_asymm_v5,2020.2.10,MacIntel,60,61025ae37ef11b136ea224fe,,,,,,,,,2185,66,31,1,0,0,response1disk,,6,11,15,1,0,0,rectangle,11,15,1,0,0,11,15,1,0,0,1,9,169,149,1,,,,,,,,
,,,,,,,,,,,,,FF,,,,,,,,0.983,,,,,,,,,,,,,,,,,,,,,,60fe112dce8bff0e598703f1,61036c517feeb397dbffe6f3,2021-07-29_23h05.48.070,Simcolourproject_2stim_asymm_v5,2020.2.10,MacIntel,60,61025ae37ef11b136ea224fe,,,,,,,,,3371,76,41,1,0,0,response1disk,,6,2,18,1,0,0,rectangle,2,18,1,0,0,2,18,1,0,0,1,10,170,48,1,,,,,,,,
,,,,,,,,,,,,,FF,,,,,,,,0.603,,,,,,,,,,,,,,,,,,,,,,60fe112dce8bff0e598703f1,61036c517feeb397dbffe6f3,2021-07-29_23h05.48.070,Simcolourproject_2stim_asymm_v5,2020.2.10,MacIntel,60,61025ae37ef11b136ea224fe,,,,,,,,,416,68,41,1,0,0,response1disk,,6,4,9,1,0,0,rectangle,4,9,1,0,0,4,9,1,0,0,1,11,171,66,1,,,,,,,,
,,,,,,,,,,,,,FF,,,,,,,,0.599,,,,,,,,,,,,,,,,,,,,,,60fe112dce8bff0e598703f1,61036c517feeb397dbffe6f3,2021-07-29_23h05.48.070,Simcolourproject_2stim_asymm_v5,2020.2.10,MacIntel,60,61025ae37ef11b136ea224fe,,,,,,,,,1092,73,40,1,0,0,response1disk,,6,13,8,1,0,0,rectangle,13,8,1,0,0,13,8,1,0,0,1,12,172,144,1,,,,,,,,
,,,,,,,,,,,,,FF,,,,,,,,1.133,,,,,,,,,,,,,,,,,,,,,,60fe112dce8bff0e598703f1,61036c517feeb397dbffe6f3,2021-07-29_23h05.48.070,Simcolourproject_2stim_asymm_v5,2020.2.10,MacIntel,60,61025ae37ef11b136ea224fe,,,,,,,,,670,78,51,1,0,0,response1disk,,6,23,8,1,0,0,rectangle,23,8,1,0,0,23,8,1,0,0,1,13,173,3,1,,,,,,,,
,,,,,,,,,,,,,FF,,,,,,,,0.783,,,,,,,,,,,,,,,,,,,,,,60fe112dce8bff0e598703f1,61036c517feeb397dbffe6f3,2021-07-29_23h05.48.070,Simcolourproject_2stim_asymm_v5,2020.2.10,MacIntel,60,61025ae37ef11b136ea224fe,,,,,,,,,560,69,-43,1,0,0,response3disk,,5,13,-16,1,0,0,rectangle,13,-16,1,0,0,13,-16,1,0,0,1,14,174,91,1,,,,,,,,
,,,,,,,,,,,,,FF,,,,,,,,0.665,,,,,,,,,,,,,,,,,,,,,,60fe112dce8bff0e598703f1,61036c517feeb397dbffe6f3,2021-07-29_23h05.48.070,Simcolourproject_2stim_asymm_v5,2020.2.10,MacIntel,60,61025ae37ef11b136ea224fe,,,,,,,,,2220,35,-66,1,0,0,response3disk,,4,19,-9,1,0,0,rectangle,19,-9,1,0,0,19,-9,1,0,0,1,15,175,23,1,,,,,,,,
,,,,,,,,,,,,,FF,,,,,,,,0.619,,,,,,,,,,,,,,,,,,,,,,60fe112dce8bff0e598703f1,61036c517feeb397dbffe6f3,2021-07-29_23h05.48.070,Simcolourproject_2stim_asymm_v5,2020.2.10,MacIntel,60,61025ae37ef11b136ea224fe,,,,,,,,,2627,69,-35,1,0,0,response3disk,,5,20,-17,1,0,0,rectangle,20,-17,1,0,0,20,-17,1,0,0,1,16,176,94,1,,,,,,,,
,,,,,,,,,,,,,FF,,,,,,,,0.733,,,,,,,,,,,,,,,,,,,,,,60fe112dce8bff0e598703f1,61036c517feeb397dbffe6f3,2021-07-29_23h05.48.070,Simcolourproject_2stim_asymm_v5,2020.2.10,MacIntel,60,61025ae37ef11b136ea224fe,,,,,,,,,1604,-101,62,1,0,0,response7disk,,1,-25,15,1,0,0,rectangle,-25,15,1,0,0,-25,15,1,0,0,1,17,177,8,1,,,,,,,,
,,,,,,,,,,,,,FF,,,,,,,,0.667,,,,,,,,,,,,,,,,,,,,,,60fe112dce8bff0e598703f1,61036c517feeb397dbffe6f3,2021-07-29_23h05.48.070,Simcolourproject_2stim_asymm_v5,2020.2.10,MacIntel,60,61025ae37ef11b136ea224fe,,,,,,,,,3870,61,36,1,0,0,response1disk,,6,8,-4,1,0,0,rectangle,8,-4,1,0,0,8,-4,1,0,0,1,18,178,82,1,,,,,,,,
,,,,,,,,,,,,,FF,,,,,,,,0.782,,,,,,,,,,,,,,,,,,,,,,60fe112dce8bff0e598703f1,61036c517feeb397dbffe6f3,2021-07-29_23h05.48.070,Simcolourproject_2stim_asymm_v5,2020.2.10,MacIntel,60,61025ae37ef11b136ea224fe,,,,,,,,,1072,-50,-87,1,0,0,response5disk,,3,-15,-12,1,0,0,rectangle,-15,-12,1,0,0,-15,-12,1,0,0,1,19,179,27,1,,,,,,,,
,,,,,,,,,,,,,FF,,,,,,,,0.733,,,,,,,,,,,,,,,,,,,,,,60fe112dce8bff0e598703f1,61036c517feeb397dbffe6f3,2021-07-29_23h05.48.070,Simcolourproject_2stim_asymm_v5,2020.2.10,MacIntel,60,61025ae37ef11b136ea224fe,,,,,,,,,123,88,30,1,0,0,response1disk,,6,26,11,1,0,0,rectangle,26,11,1,0,0,26,11,1,0,0,1,20,180,49,1,,,,,,,,
,,,,,,,,,,,,,FF,,,,,,,,0.95,,,,,,,,,,,,,,,,,,,,,,60fe112dce8bff0e598703f1,61036c517feeb397dbffe6f3,2021-07-29_23h05.48.070,Simcolourproject_2stim_asymm_v5,2020.2.10,MacIntel,60,61025ae37ef11b136ea224fe,,,,,,,,,3683,72,-52,1,0,0,response3disk,,5,14,-15,1,0,0,rectangle,14,-15,1,0,0,14,-15,1,0,0,1,21,181,123,1,,,,,,,,
,,,,,,,,,,,,,FF,,,,,,,,0.766,,,,,,,,,,,,,,,,,,,,,,60fe112dce8bff0e598703f1,61036c517feeb397dbffe6f3,2021-07-29_23h05.48.070,Simcolourproject_2stim_asymm_v5,2020.2.10,MacIntel,60,61025ae37ef11b136ea224fe,,,,,,,,,3083,86,35,1,0,0,response1disk,,6,32,17,1,0,0,rectangle,57,101,1,0,0,-2,8,1,0,0,1,22,182,103,1,,response1disk_3,TRUE,7,7,"[183,302,57,163,146,193,114,229,316,127,209,292,162,16,58,84,282,227,289,123]",1.931,rectangle
,,,,,,,,,,,,,FF,,,,,,,,0.816,,,,,,,,,,,,,,,,,,,,,,60fe112dce8bff0e598703f1,61036c517feeb397dbffe6f3,2021-07-29_23h05.48.070,Simcolourproject_2stim_asymm_v5,2020.2.10,MacIntel,60,61025ae37ef11b136ea224fe,,,,,,,,,3786,27,-88,1,0,0,response3disk,,4,12,-9,1,0,0,rectangle,12,-9,1,0,0,12,-9,1,0,0,1,23,183,32,1,,,,,,,,
,,,,,,,,,,,,,FF,,,,,,,,0.617,,,,,,,,,,,,,,,,,,,,,,60fe112dce8bff0e598703f1,61036c517feeb397dbffe6f3,2021-07-29_23h05.48.070,Simcolourproject_2stim_asymm_v5,2020.2.10,MacIntel,60,61025ae37ef11b136ea224fe,,,,,,,,,448,99,-42,1,0,0,response3disk,,5,20,11,1,0,0,rectangle,20,11,1,0,0,20,11,1,0,0,1,24,184,57,1,,,,,,,,
,,,,,,,,,,,,,FF,,,,,,,,0.631,,,,,,,,,,,,,,,,,,,,,,60fe112dce8bff0e598703f1,61036c517feeb397dbffe6f3,2021-07-29_23h05.48.070,Simcolourproject_2stim_asymm_v5,2020.2.10,MacIntel,60,61025ae37ef11b136ea224fe,,,,,,,,,894,-33,-91,1,0,0,response5disk,,3,-13,-7,1,0,0,rectangle,-13,-7,1,0,0,-13,-7,1,0,0,1,25,185,132,1,,,,,,,,
,,,,,,,,,,,,,FF,,,,,,,,0.517,,,,,,,,,,,,,,,,,,,,,,60fe112dce8bff0e598703f1,61036c517feeb397dbffe6f3,2021-07-29_23h05.48.070,Simcolourproject_2stim_asymm_v5,2020.2.10,MacIntel,60,61025ae37ef11b136ea224fe,,,,,,,,,667,79,44,1,0,0,response1disk,,6,15,11,1,0,0,rectangle,15,11,1,0,0,15,11,1,0,0,1,26,186,120,1,,,,,,,,
,,,,,,,,,,,,,FF,,,,,,,,1.116,,,,,,,,,,,,,,,,,,,,,,60fe112dce8bff0e598703f1,61036c517feeb397dbffe6f3,2021-07-29_23h05.48.070,Simcolourproject_2stim_asymm_v5,2020.2.10,MacIntel,60,61025ae37ef11b136ea224fe,,,,,,,,,1061,-40,-87,1,0,0,response5disk,,3,3,-8,1,0,0,rectangle,3,-8,1,0,0,3,-8,1,0,0,1,27,187,127,1,,,,,,,,
,,,,,,,,,,,,,FF,,,,,,,,0.687,,,,,,,,,,,,,,,,,,,,,,60fe112dce8bff0e598703f1,61036c517feeb397dbffe6f3,2021-07-29_23h05.48.070,Simcolourproject_2stim_asymm_v5,2020.2.10,MacIntel,60,61025ae37ef11b136ea224fe,,,,,,,,,3062,32,-67,1,0,0,response3disk,,4,6,2,1,0,0,rectangle,6,2,1,0,0,6,2,1,0,0,1,28,188,84,1,,,,,,,,
,,,,,,,,,,,,,FF,,,,,,,,0.583,,,,,,,,,,,,,,,,,,,,,,60fe112dce8bff0e598703f1,61036c517feeb397dbffe6f3,2021-07-29_23h05.48.070,Simcolourproject_2stim_asymm_v5,2020.2.10,MacIntel,60,61025ae37ef11b136ea224fe,,,,,,,,,3464,83,-35,1,0,0,response3disk,,5,27,-13,1,0,0,rectangle,27,-13,1,0,0,27,-13,1,0,0,1,29,189,36,1,,,,,,,,
,,,,,,,,,,,,,FF,,,,,,,,0.6,,,,,,,,,,,,,,,,,,,,,,60fe112dce8bff0e598703f1,61036c517feeb397dbffe6f3,2021-07-29_23h05.48.070,Simcolourproject_2stim_asymm_v5,2020.2.10,MacIntel,60,61025ae37ef11b136ea224fe,,,,,,,,,2776,-30,-86,1,0,0,response5disk,,3,-4,-13,1,0,0,rectangle,-4,-13,1,0,0,-4,-13,1,0,0,1,30,190,15,1,,,,,,,,
,,,,,,,,,,,,,FF,,,,,,,,0.718,,,,,,,,,,,,,,,,,,,,,,60fe112dce8bff0e598703f1,61036c517feeb397dbffe6f3,2021-07-29_23h05.48.070,Simcolourproject_2stim_asymm_v5,2020.2.10,MacIntel,60,61025ae37ef11b136ea224fe,,,,,,,,,4259,96,36,1,0,0,response1disk,,6,32,2,1,0,0,rectangle,32,2,1,0,0,32,2,1,0,0,1,31,191,135,1,,,,,,,,
,,,,,,,,,,,,,FF,,,,,,,,0.7,,,,,,,,,,,,,,,,,,,,,,60fe112dce8bff0e598703f1,61036c517feeb397dbffe6f3,2021-07-29_23h05.48.070,Simcolourproject_2stim_asymm_v5,2020.2.10,MacIntel,60,61025ae37ef11b136ea224fe,,,,,,,,,1352,67,-30,1,0,0,response3disk,,5,9,-18,1,0,0,rectangle,-92,-44,1,0,0,-6,-7,1,0,0,1,32,192,155,1,,response5disk_3,TRUE,2,2,"[183,302,57,163,146,193,114,229,316,127,209,292,162,16,58,84,282,227,289,123]",1.633,rectangle
,,,,,,,,,,,,,FF,,,,,,,,0.617,,,,,,,,,,,,,,,,,,,,,,60fe112dce8bff0e598703f1,61036c517feeb397dbffe6f3,2021-07-29_23h05.48.070,Simcolourproject_2stim_asymm_v5,2020.2.10,MacIntel,60,61025ae37ef11b136ea224fe,,,,,,,,,1110,61,-28,1,0,0,response3disk,,5,8,-2,1,0,0,rectangle,8,-2,1,0,0,8,-2,1,0,0,1,33,193,38,1,,,,,,,,
,,,,,,,,,,,,,FF,,,,,,,,0.683,,,,,,,,,,,,,,,,,,,,,,60fe112dce8bff0e598703f1,61036c517feeb397dbffe6f3,2021-07-29_23h05.48.070,Simcolourproject_2stim_asymm_v5,2020.2.10,MacIntel,60,61025ae37ef11b136ea224fe,,,,,,,,,2510,72,-38,1,0,0,response3disk,,5,-7,-9,1,0,0,rectangle,-7,-9,1,0,0,-7,-9,1,0,0,1,34,194,9,1,,,,,,,,
,,,,,,,,,,,,,FF,,,,,,,,0.832,,,,,,,,,,,,,,,,,,,,,,60fe112dce8bff0e598703f1,61036c517feeb397dbffe6f3,2021-07-29_23h05.48.070,Simcolourproject_2stim_asymm_v5,2020.2.10,MacIntel,60,61025ae37ef11b136ea224fe,,,,,,,,,4029,36,-84,1,0,0,response3disk,,4,19,-7,1,0,0,rectangle,19,-7,1,0,0,19,-7,1,0,0,1,35,195,19,1,,,,,,,,
,,,,,,,,,,,,,FF,,,,,,,,0.914,,,,,,,,,,,,,,,,,,,,,,60fe112dce8bff0e598703f1,61036c517feeb397dbffe6f3,2021-07-29_23h05.48.070,Simcolourproject_2stim_asymm_v5,2020.2.10,MacIntel,60,61025ae37ef11b136ea224fe,,,,,,,,,1005,93,-41,1,0,0,response3disk,,5,25,-14,1,0,0,rectangle,25,-14,1,0,0,25,-14,1,0,0,1,36,196,67,1,,,,,,,,
,,,,,,,,,,,,,FF,,,,,,,,0.635,,,,,,,,,,,,,,,,,,,,,,60fe112dce8bff0e598703f1,61036c517feeb397dbffe6f3,2021-07-29_23h05.48.070,Simcolourproject_2stim_asymm_v5,2020.2.10,MacIntel,60,61025ae37ef11b136ea224fe,,,,,,,,,2819,76,54,1,0,0,response1disk,,6,4,-1,1,0,0,rectangle,4,-1,1,0,0,4,-1,1,0,0,1,37,197,53,1,,,,,,,,
,,,,,,,,,,,,,FF,,,,,,,,1.067,,,,,,,,,,,,,,,,,,,,,,60fe112dce8bff0e598703f1,61036c517feeb397dbffe6f3,2021-07-29_23h05.48.070,Simcolourproject_2stim_asymm_v5,2020.2.10,MacIntel,60,61025ae37ef11b136ea224fe,,,,,,,,,3740,57,99,1,0,0,response1disk,,7,17,11,1,0,0,rectangle,17,11,1,0,0,17,11,1,0,0,1,38,198,152,1,,,,,,,,
,,,,,,,,,,,,,FF,,,,,,,,1.268,,,,,,,,,,,,,,,,,,,,,,60fe112dce8bff0e598703f1,61036c517feeb397dbffe6f3,2021-07-29_23h05.48.070,Simcolourproject_2stim_asymm_v5,2020.2.10,MacIntel,60,61025ae37ef11b136ea224fe,,,,,,,,,4096,-103,-41,1,0,0,response5disk,,2,-2,10,1,0,0,rectangle,-2,10,1,0,0,-2,10,1,0,0,1,39,199,137,1,,,,,,,,
,,,,,,,,,,,,,FF,,,,,,,,0.753,,,,,,,,,,,,,,,,,,,,,,60fe112dce8bff0e598703f1,61036c517feeb397dbffe6f3,2021-07-29_23h05.48.070,Simcolourproject_2stim_asymm_v5,2020.2.10,MacIntel,60,61025ae37ef11b136ea224fe,,,,,,,,,4249,102,48,1,0,0,response1disk,,6,17,11,1,0,0,rectangle,17,11,1,0,0,17,11,1,0,0,1,40,200,101,1,,,,,,,,
,,,,,,,,,,,,,FF,,,,,,,,0.683,,,,,,,,,,,,,,,,,,,,,,60fe112dce8bff0e598703f1,61036c517feeb397dbffe6f3,2021-07-29_23h05.48.070,Simcolourproject_2stim_asymm_v5,2020.2.10,MacIntel,60,61025ae37ef11b136ea224fe,,,,,,,,,2733,84,-40,1,0,0,response3disk,,5,14,14,1,0,0,rectangle,14,14,1,0,0,14,14,1,0,0,1,41,201,129,1,,,,,,,,
,,,,,,,,,,,,,FF,,,,,,,,0.498,,,,,,,,,,,,,,,,,,,,,,60fe112dce8bff0e598703f1,61036c517feeb397dbffe6f3,2021-07-29_23h05.48.070,Simcolourproject_2stim_asymm_v5,2020.2.10,MacIntel,60,61025ae37ef11b136ea224fe,,,,,,,,,2064,85,58,1,0,0,response1disk,,6,-2,-5,1,0,0,rectangle,-2,-5,1,0,0,-2,-5,1,0,0,1,42,202,90,1,,,,,,,,
,,,,,,,,,,,,,FF,,,,,,,,0.667,,,,,,,,,,,,,,,,,,,,,,60fe112dce8bff0e598703f1,61036c517feeb397dbffe6f3,2021-07-29_23h05.48.070,Simcolourproject_2stim_asymm_v5,2020.2.10,MacIntel,60,61025ae37ef11b136ea224fe,,,,,,,,,558,90,45,1,0,0,response1disk,,6,24,8,1,0,0,rectangle,24,8,1,0,0,24,8,1,0,0,1,43,203,85,1,,,,,,,,
,,,,,,,,,,,,,FF,,,,,,,,0.85,,,,,,,,,,,,,,,,,,,,,,60fe112dce8bff0e598703f1,61036c517feeb397dbffe6f3,2021-07-29_23h05.48.070,Simcolourproject_2stim_asymm_v5,2020.2.10,MacIntel,60,61025ae37ef11b136ea224fe,,,,,,,,,2542,-88,38,1,0,0,response7disk,,1,-7,20,1,0,0,rectangle,-7,20,1,0,0,-7,20,1,0,0,1,44,204,60,1,,,,,,,,
,,,,,,,,,,,,,FF,,,,,,,,0.784,,,,,,,,,,,,,,,,,,,,,,60fe112dce8bff0e598703f1,61036c517feeb397dbffe6f3,2021-07-29_23h05.48.070,Simcolourproject_2stim_asymm_v5,2020.2.10,MacIntel,60,61025ae37ef11b136ea224fe,,,,,,,,,1371,-80,-56,1,0,0,response5disk,,2,6,-2,1,0,0,rectangle,6,-2,1,0,0,6,-2,1,0,0,1,45,205,29,1,,,,,,,,
,,,,,,,,,,,,,FF,,,,,,,,0.699,,,,,,,,,,,,,,,,,,,,,,60fe112dce8bff0e598703f1,61036c517feeb397dbffe6f3,2021-07-29_23h05.48.070,Simcolourproject_2stim_asymm_v5,2020.2.10,MacIntel,60,61025ae37ef11b136ea224fe,,,,,,,,,3492,81,34,1,0,0,response1disk,,6,19,13,1,0,0,rectangle,19,13,1,0,0,19,13,1,0,0,1,46,206,12,1,,,,,,,,
,,,,,,,,,,,,,FF,,,,,,,,0.934,,,,,,,,,,,,,,,,,,,,,,60fe112dce8bff0e598703f1,61036c517feeb397dbffe6f3,2021-07-29_23h05.48.070,Simcolourproject_2stim_asymm_v5,2020.2.10,MacIntel,60,61025ae37ef11b136ea224fe,,,,,,,,,1394,69,-36,1,0,0,response3disk,,5,2,6,1,0,0,rectangle,2,6,1,0,0,2,6,1,0,0,1,47,207,37,1,,,,,,,,
,,,,,,,,,,,,,FF,,,,,,,,0.818,,,,,,,,,,,,,,,,,,,,,,60fe112dce8bff0e598703f1,61036c517feeb397dbffe6f3,2021-07-29_23h05.48.070,Simcolourproject_2stim_asymm_v5,2020.2.10,MacIntel,60,61025ae37ef11b136ea224fe,,,,,,,,,1766,-53,-84,1,0,0,response5disk,,3,-15,-9,1,0,0,rectangle,-36,-75,1,0,0,-8,-13,1,0,0,1,48,208,71,1,,response5disk_3,TRUE,3,3,"[183,302,57,163,146,193,114,229,316,127,209,292,162,16,58,84,282,227,289,123]",1.533,rectangle
,,,,,,,,,,,,,FF,,,,,,,,0.867,,,,,,,,,,,,,,,,,,,,,,60fe112dce8bff0e598703f1,61036c517feeb397dbffe6f3,2021-07-29_23h05.48.070,Simcolourproject_2stim_asymm_v5,2020.2.10,MacIntel,60,61025ae37ef11b136ea224fe,,,,,,,,,802,-97,-28,1,0,0,response5disk,,2,-14,-5,1,0,0,rectangle,-14,-5,1,0,0,-14,-5,1,0,0,1,49,209,80,1,,,,,,,,
,,,,,,,,,,,,,FF,,,,,,,,0.617,,,,,,,,,,,,,,,,,,,,,,60fe112dce8bff0e598703f1,61036c517feeb397dbffe6f3,2021-07-29_23h05.48.070,Simcolourproject_2stim_asymm_v5,2020.2.10,MacIntel,60,61025ae37ef11b136ea224fe,,,,,,,,,2812,61,-32,1,0,0,response3disk,,5,5,-17,1,0,0,rectangle,5,-17,1,0,0,5,-17,1,0,0,1,50,210,159,1,,,,,,,,
,,,,,,,,,,,,,FF,,,,,,,,0.616,,,,,,,,,,,,,,,,,,,,,,60fe112dce8bff0e598703f1,61036c517feeb397dbffe6f3,2021-07-29_23h05.48.070,Simcolourproject_2stim_asymm_v5,2020.2.10,MacIntel,60,61025ae37ef11b136ea224fe,,,,,,,,,1377,-49,-92,1,0,0,response5disk,,3,-13,-12,1,0,0,rectangle,-13,-12,1,0,0,-13,-12,1,0,0,1,51,211,99,1,,,,,,,,
,,,,,,,,,,,,,FF,,,,,,,,0.602,,,,,,,,,,,,,,,,,,,,,,60fe112dce8bff0e598703f1,61036c517feeb397dbffe6f3,2021-07-29_23h05.48.070,Simcolourproject_2stim_asymm_v5,2020.2.10,MacIntel,60,61025ae37ef11b136ea224fe,,,,,,,,,1280,82,33,1,0,0,response1disk,,6,13,1,1,0,0,rectangle,13,1,1,0,0,13,1,1,0,0,1,52,212,14,1,,,,,,,,
,,,,,,,,,,,,,FF,,,,,,,,1.583,,,,,,,,,,,,,,,,,,,,,,60fe112dce8bff0e598703f1,61036c517feeb397dbffe6f3,2021-07-29_23h05.48.070,Simcolourproject_2stim_asymm_v5,2020.2.10,MacIntel,60,61025ae37ef11b136ea224fe,,,,,,,,,2996,-81,-44,1,0,0,response5disk,,2,-28,-10,1,0,0,rectangle,-28,-10,1,0,0,-28,-10,1,0,0,1,53,213,89,1,,,,,,,,
,,,,,,,,,,,,,FF,,,,,,,,0.949,,,,,,,,,,,,,,,,,,,,,,60fe112dce8bff0e598703f1,61036c517feeb397dbffe6f3,2021-07-29_23h05.48.070,Simcolourproject_2stim_asymm_v5,2020.2.10,MacIntel,60,61025ae37ef11b136ea224fe,,,,,,,,,3724,-30,-88,1,0,0,response5disk,,3,-5,-17,1,0,0,rectangle,-5,-17,1,0,0,-5,-17,1,0,0,1,54,214,97,1,,,,,,,,
,,,,,,,,,,,,,FF,,,,,,,,0.616,,,,,,,,,,,,,,,,,,,,,,60fe112dce8bff0e598703f1,61036c517feeb397dbffe6f3,2021-07-29_23h05.48.070,Simcolourproject_2stim_asymm_v5,2020.2.10,MacIntel,60,61025ae37ef11b136ea224fe,,,,,,,,,318,78,49,1,0,0,response1disk,,6,14,8,1,0,0,rectangle,14,8,1,0,0,14,8,1,0,0,1,55,215,63,1,,,,,,,,
,,,,,,,,,,,,,FF,,,,,,,,0.882,,,,,,,,,,,,,,,,,,,,,,60fe112dce8bff0e598703f1,61036c517feeb397dbffe6f3,2021-07-29_23h05.48.070,Simcolourproject_2stim_asymm_v5,2020.2.10,MacIntel,60,61025ae37ef11b136ea224fe,,,,,,,,,1849,89,51,1,0,0,response1disk,,6,24,4,1,0,0,rectangle,24,4,1,0,0,24,4,1,0,0,1,56,216,31,1,,,,,,,,
,,,,,,,,,,,,,FF,,,,,,,,0.747,,,,,,,,,,,,,,,,,,,,,,60fe112dce8bff0e598703f1,61036c517feeb397dbffe6f3,2021-07-29_23h05.48.070,Simcolourproject_2stim_asymm_v5,2020.2.10,MacIntel,60,61025ae37ef11b136ea224fe,,,,,,,,,391,95,50,1,0,0,response1disk,,6,12,3,1,0,0,rectangle,12,3,1,0,0,12,3,1,0,0,1,57,217,0,1,,,,,,,,
,,,,,,,,,,,,,FF,,,,,,,,0.665,,,,,,,,,,,,,,,,,,,,,,60fe112dce8bff0e598703f1,61036c517feeb397dbffe6f3,2021-07-29_23h05.48.070,Simcolourproject_2stim_asymm_v5,2020.2.10,MacIntel,60,61025ae37ef11b136ea224fe,,,,,,,,,2911,78,44,1,0,0,response1disk,,6,22,1,1,0,0,rectangle,22,1,1,0,0,22,1,1,0,0,1,58,218,122,1,,,,,,,,
,,,,,,,,,,,,,FF,,,,,,,,0.784,,,,,,,,,,,,,,,,,,,,,,60fe112dce8bff0e598703f1,61036c517feeb397dbffe6f3,2021-07-29_23h05.48.070,Simcolourproject_2stim_asymm_v5,2020.2.10,MacIntel,60,61025ae37ef11b136ea224fe,,,,,,,,,3079,56,85,1,0,0,response1disk,,7,26,3,1,0,0,rectangle,26,3,1,0,0,26,3,1,0,0,1,59,219,52,1,,,,,,,,
,,,,,,,,,,,,,FF,,,,,,,,0.884,,,,,,,,,,,,,,,,,,,,,,60fe112dce8bff0e598703f1,61036c517feeb397dbffe6f3,2021-07-29_23h05.48.070,Simcolourproject_2stim_asymm_v5,2020.2.10,MacIntel,60,61025ae37ef11b136ea224fe,,,,,,,,,2794,31,-62,1,0,0,response3disk,,4,18,1,1,0,0,rectangle,18,1,1,0,0,18,1,1,0,0,1,60,220,105,1,,,,,,,,
,,,,,,,,,,,,,FF,,,,,,,,0.849,,,,,,,,,,,,,,,,,,,,,,60fe112dce8bff0e598703f1,61036c517feeb397dbffe6f3,2021-07-29_23h05.48.070,Simcolourproject_2stim_asymm_v5,2020.2.10,MacIntel,60,61025ae37ef11b136ea224fe,,,,,,,,,1499,54,87,1,0,0,response1disk,,7,8,5,1,0,0,rectangle,8,5,1,0,0,8,5,1,0,0,1,61,221,68,1,,,,,,,,
,,,,,,,,,,,,,FF,,,,,,,,1.117,,,,,,,,,,,,,,,,,,,,,,60fe112dce8bff0e598703f1,61036c517feeb397dbffe6f3,2021-07-29_23h05.48.070,Simcolourproject_2stim_asymm_v5,2020.2.10,MacIntel,60,61025ae37ef11b136ea224fe,,,,,,,,,2417,92,46,1,0,0,response1disk,,6,10,11,1,0,0,rectangle,10,11,1,0,0,10,11,1,0,0,1,62,222,40,1,,,,,,,,
,,,,,,,,,,,,,FF,,,,,,,,0.683,,,,,,,,,,,,,,,,,,,,,,60fe112dce8bff0e598703f1,61036c517feeb397dbffe6f3,2021-07-29_23h05.48.070,Simcolourproject_2stim_asymm_v5,2020.2.10,MacIntel,60,61025ae37ef11b136ea224fe,,,,,,,,,1999,86,38,1,0,0,response1disk,,6,29,20,1,0,0,rectangle,29,20,1,0,0,29,20,1,0,0,1,63,223,13,1,,,,,,,,
,,,,,,,,,,,,,FF,,,,,,,,0.702,,,,,,,,,,,,,,,,,,,,,,60fe112dce8bff0e598703f1,61036c517feeb397dbffe6f3,2021-07-29_23h05.48.070,Simcolourproject_2stim_asymm_v5,2020.2.10,MacIntel,60,61025ae37ef11b136ea224fe,,,,,,,,,3346,61,-33,1,0,0,response3disk,,5,8,2,1,0,0,rectangle,8,2,1,0,0,8,2,1,0,0,1,64,224,28,1,,,,,,,,
,,,,,,,,,,,,,FF,,,,,,,,0.851,,,,,,,,,,,,,,,,,,,,,,60fe112dce8bff0e598703f1,61036c517feeb397dbffe6f3,2021-07-29_23h05.48.070,Simcolourproject_2stim_asymm_v5,2020.2.10,MacIntel,60,61025ae37ef11b136ea224fe,,,,,,,,,2223,93,-50,1,0,0,response3disk,,5,8,0,1,0,0,rectangle,8,0,1,0,0,8,0,1,0,0,1,65,225,156,1,,,,,,,,
,,,,,,,,,,,,,FF,,,,,,,,0.6,,,,,,,,,,,,,,,,,,,,,,60fe112dce8bff0e598703f1,61036c517feeb397dbffe6f3,2021-07-29_23h05.48.070,Simcolourproject_2stim_asymm_v5,2020.2.10,MacIntel,60,61025ae37ef11b136ea224fe,,,,,,,,,878,85,-37,1,0,0,response3disk,,5,22,-7,1,0,0,rectangle,-106,27,1,0,0,2,2,1,0,0,1,66,226,104,1,,response7disk_3,TRUE,1,1,"[183,302,57,163,146,193,114,229,316,127,209,292,162,16,58,84,282,227,289,123]",1.583,rectangle
,,,,,,,,,,,,,FF,,,,,,,,0.65,,,,,,,,,,,,,,,,,,,,,,60fe112dce8bff0e598703f1,61036c517feeb397dbffe6f3,2021-07-29_23h05.48.070,Simcolourproject_2stim_asymm_v5,2020.2.10,MacIntel,60,61025ae37ef11b136ea224fe,,,,,,,,,602,39,-71,1,0,0,response3disk,,4,-7,-4,1,0,0,rectangle,-7,-4,1,0,0,-7,-4,1,0,0,1,67,227,115,1,,,,,,,,
,,,,,,,,,,,,,FF,,,,,,,,0.999,,,,,,,,,,,,,,,,,,,,,,60fe112dce8bff0e598703f1,61036c517feeb397dbffe6f3,2021-07-29_23h05.48.070,Simcolourproject_2stim_asymm_v5,2020.2.10,MacIntel,60,61025ae37ef11b136ea224fe,,,,,,,,,4339,29,-72,1,0,0,response3disk,,4,1,4,1,0,0,rectangle,-101,56,1,0,0,-8,5,1,0,0,1,68,228,125,1,,response7disk_3,TRUE,1,1,"[183,302,57,163,146,193,114,229,316,127,209,292,162,16,58,84,282,227,289,123]",1.27,rectangle
,,,,,,,,,,,,,FF,,,,,,,,0.918,,,,,,,,,,,,,,,,,,,,,,60fe112dce8bff0e598703f1,61036c517feeb397dbffe6f3,2021-07-29_23h05.48.070,Simcolourproject_2stim_asymm_v5,2020.2.10,MacIntel,60,61025ae37ef11b136ea224fe,,,,,,,,,2473,42,-81,1,0,0,response3disk,,4,5,1,1,0,0,rectangle,5,1,1,0,0,5,1,1,0,0,1,69,229,108,1,,,,,,,,
,,,,,,,,,,,,,FF,,,,,,,,1.284,,,,,,,,,,,,,,,,,,,,,,60fe112dce8bff0e598703f1,61036c517feeb397dbffe6f3,2021-07-29_23h05.48.070,Simcolourproject_2stim_asymm_v5,2020.2.10,MacIntel,60,61025ae37ef11b136ea224fe,,,,,,,,,3074,95,63,1,0,0,response1disk,,6,33,-3,1,0,0,rectangle,33,-3,1,0,0,33,-3,1,0,0,1,70,230,107,1,,,,,,,,
,,,,,,,,,,,,,FF,,,,,,,,0.617,,,,,,,,,,,,,,,,,,,,,,60fe112dce8bff0e598703f1,61036c517feeb397dbffe6f3,2021-07-29_23h05.48.070,Simcolourproject_2stim_asymm_v5,2020.2.10,MacIntel,60,61025ae37ef11b136ea224fe,,,,,,,,,3536,90,27,1,0,0,response1disk,,6,26,-3,1,0,0,rectangle,26,-3,1,0,0,26,-3,1,0,0,1,71,231,136,1,,,,,,,,
,,,,,,,,,,,,,FF,,,,,,,,0.733,,,,,,,,,,,,,,,,,,,,,,60fe112dce8bff0e598703f1,61036c517feeb397dbffe6f3,2021-07-29_23h05.48.070,Simcolourproject_2stim_asymm_v5,2020.2.10,MacIntel,60,61025ae37ef11b136ea224fe,,,,,,,,,751,81,24,1,0,0,response1disk,,6,11,10,1,0,0,rectangle,11,10,1,0,0,11,10,1,0,0,1,72,232,76,1,,,,,,,,
,,,,,,,,,,,,,FF,,,,,,,,0.882,,,,,,,,,,,,,,,,,,,,,,60fe112dce8bff0e598703f1,61036c517feeb397dbffe6f3,2021-07-29_23h05.48.070,Simcolourproject_2stim_asymm_v5,2020.2.10,MacIntel,60,61025ae37ef11b136ea224fe,,,,,,,,,3243,-104,56,1,0,0,response7disk,,1,7,14,1,0,0,rectangle,7,14,1,0,0,7,14,1,0,0,1,73,233,18,1,,,,,,,,
,,,,,,,,,,,,,FF,,,,,,,,1.251,,,,,,,,,,,,,,,,,,,,,,60fe112dce8bff0e598703f1,61036c517feeb397dbffe6f3,2021-07-29_23h05.48.070,Simcolourproject_2stim_asymm_v5,2020.2.10,MacIntel,60,61025ae37ef11b136ea224fe,,,,,,,,,2678,39,-92,1,0,0,response3disk,,4,-3,4,1,0,0,rectangle,-3,4,1,0,0,-3,4,1,0,0,1,74,234,61,1,,,,,,,,
,,,,,,,,,,,,,FF,,,,,,,,1.433,,,,,,,,,,,,,,,,,,,,,,60fe112dce8bff0e598703f1,61036c517feeb397dbffe6f3,2021-07-29_23h05.48.070,Simcolourproject_2stim_asymm_v5,2020.2.10,MacIntel,60,61025ae37ef11b136ea224fe,,,,,,,,,2103,-25,-85,1,0,0,response5disk,,3,-7,12,1,0,0,rectangle,-7,12,1,0,0,-7,12,1,0,0,1,75,235,45,1,,,,,,,,
,,,,,,,,,,,,,FF,,,,,,,,0.883,,,,,,,,,,,,,,,,,,,,,,60fe112dce8bff0e598703f1,61036c517feeb397dbffe6f3,2021-07-29_23h05.48.070,Simcolourproject_2stim_asymm_v5,2020.2.10,MacIntel,60,61025ae37ef11b136ea224fe,,,,,,,,,1193,39,-84,1,0,0,response3disk,,4,18,-13,1,0,0,rectangle,18,-13,1,0,0,18,-13,1,0,0,1,76,236,117,1,,,,,,,,
,,,,,,,,,,,,,FF,,,,,,,,0.866,,,,,,,,,,,,,,,,,,,,,,60fe112dce8bff0e598703f1,61036c517feeb397dbffe6f3,2021-07-29_23h05.48.070,Simcolourproject_2stim_asymm_v5,2020.2.10,MacIntel,60,61025ae37ef11b136ea224fe,,,,,,,,,1033,-26,-85,1,0,0,response5disk,,3,-5,-4,1,0,0,rectangle,-5,-4,1,0,0,-5,-4,1,0,0,1,77,237,133,1,,,,,,,,
,,,,,,,,,,,,,FF,,,,,,,,0.984,,,,,,,,,,,,,,,,,,,,,,60fe112dce8bff0e598703f1,61036c517feeb397dbffe6f3,2021-07-29_23h05.48.070,Simcolourproject_2stim_asymm_v5,2020.2.10,MacIntel,60,61025ae37ef11b136ea224fe,,,,,,,,,4201,-113,37,1,0,0,response7disk,,1,-15,2,1,0,0,rectangle,-15,2,1,0,0,-15,2,1,0,0,1,78,238,59,1,,,,,,,,
,,,,,,,,,,,,,FF,,,,,,,,0.647,,,,,,,,,,,,,,,,,,,,,,60fe112dce8bff0e598703f1,61036c517feeb397dbffe6f3,2021-07-29_23h05.48.070,Simcolourproject_2stim_asymm_v5,2020.2.10,MacIntel,60,61025ae37ef11b136ea224fe,,,,,,,,,187,-80,-46,1,0,0,response5disk,,2,17,-14,1,0,0,rectangle,17,-14,1,0,0,17,-14,1,0,0,1,79,239,87,1,,,,,,,,
,,,,,,,,,,,,,FF,,,,,,,,0.564,,,,,,,,,,,,,,,,,,,,,,60fe112dce8bff0e598703f1,61036c517feeb397dbffe6f3,2021-07-29_23h05.48.070,Simcolourproject_2stim_asymm_v5,2020.2.10,MacIntel,60,61025ae37ef11b136ea224fe,,,,,,,,,2448,80,46,1,0,0,response1disk,,6,15,-2,1,0,0,rectangle,15,-2,1,0,0,15,-2,1,0,0,1,80,240,157,1,,,,,,,,
,,,,,,,,,,,,,FF,,,,,,,,0.5,,,,,,,,,,,,,,,,,,,,,,60fe112dce8bff0e598703f1,61036c517feeb397dbffe6f3,2021-07-29_23h05.48.070,Simcolourproject_2stim_asymm_v5,2020.2.10,MacIntel,60,61025ae37ef11b136ea224fe,,,,,,,,,1081,58,99,1,0,0,response1disk,,7,13,9,1,0,0,rectangle,13,9,1,0,0,13,9,1,0,0,1,81,241,142,1,,,,,,,,
,,,,,,,,,,,,,FF,,,,,,,,0.92,,,,,,,,,,,,,,,,,,,,,,60fe112dce8bff0e598703f1,61036c517feeb397dbffe6f3,2021-07-29_23h05.48.070,Simcolourproject_2stim_asymm_v5,2020.2.10,MacIntel,60,61025ae37ef11b136ea224fe,,,,,,,,,4294,-102,61,1,0,0,response7disk,,1,5,-3,1,0,0,rectangle,5,-3,1,0,0,5,-3,1,0,0,1,82,242,150,1,,,,,,,,
,,,,,,,,,,,,,FF,,,,,,,,0.831,,,,,,,,,,,,,,,,,,,,,,60fe112dce8bff0e598703f1,61036c517feeb397dbffe6f3,2021-07-29_23h05.48.070,Simcolourproject_2stim_asymm_v5,2020.2.10,MacIntel,60,61025ae37ef11b136ea224fe,,,,,,,,,3066,-24,-85,1,0,0,response5disk,,3,-5,-12,1,0,0,rectangle,-5,-12,1,0,0,-5,-12,1,0,0,1,83,243,139,1,,,,,,,,
,,,,,,,,,,,,,FF,,,,,,,,0.75,,,,,,,,,,,,,,,,,,,,,,60fe112dce8bff0e598703f1,61036c517feeb397dbffe6f3,2021-07-29_23h05.48.070,Simcolourproject_2stim_asymm_v5,2020.2.10,MacIntel,60,61025ae37ef11b136ea224fe,,,,,,,,,3422,96,-49,1,0,0,response3disk,,5,11,-19,1,0,0,rectangle,11,-19,1,0,0,11,-19,1,0,0,1,84,244,34,1,,,,,,,,
,,,,,,,,,,,,,FF,,,,,,,,1.002,,,,,,,,,,,,,,,,,,,,,,60fe112dce8bff0e598703f1,61036c517feeb397dbffe6f3,2021-07-29_23h05.48.070,Simcolourproject_2stim_asymm_v5,2020.2.10,MacIntel,60,61025ae37ef11b136ea224fe,,,,,,,,,897,-42,-101,1,0,0,response5disk,,3,-6,-16,1,0,0,rectangle,-6,-16,1,0,0,-6,-16,1,0,0,1,85,245,65,1,,,,,,,,
,,,,,,,,,,,,,FF,,,,,,,,0.6,,,,,,,,,,,,,,,,,,,,,,60fe112dce8bff0e598703f1,61036c517feeb397dbffe6f3,2021-07-29_23h05.48.070,Simcolourproject_2stim_asymm_v5,2020.2.10,MacIntel,60,61025ae37ef11b136ea224fe,,,,,,,,,770,71,-35,1,0,0,response3disk,,5,20,-18,1,0,0,rectangle,20,-18,1,0,0,20,-18,1,0,0,1,86,246,75,1,,,,,,,,
,,,,,,,,,,,,,FF,,,,,,,,1.183,,,,,,,,,,,,,,,,,,,,,,60fe112dce8bff0e598703f1,61036c517feeb397dbffe6f3,2021-07-29_23h05.48.070,Simcolourproject_2stim_asymm_v5,2020.2.10,MacIntel,60,61025ae37ef11b136ea224fe,,,,,,,,,901,-106,-53,1,0,0,response5disk,,2,0,-4,1,0,0,rectangle,0,-4,1,0,0,0,-4,1,0,0,1,87,247,147,1,,,,,,,,
,,,,,,,,,,,,,FF,,,,,,,,0.717,,,,,,,,,,,,,,,,,,,,,,60fe112dce8bff0e598703f1,61036c517feeb397dbffe6f3,2021-07-29_23h05.48.070,Simcolourproject_2stim_asymm_v5,2020.2.10,MacIntel,60,61025ae37ef11b136ea224fe,,,,,,,,,4178,104,60,1,0,0,response1disk,,6,18,10,1,0,0,rectangle,18,10,1,0,0,18,10,1,0,0,1,88,248,10,1,,,,,,,,
,,,,,,,,,,,,,FF,,,,,,,,1.032,,,,,,,,,,,,,,,,,,,,,,60fe112dce8bff0e598703f1,61036c517feeb397dbffe6f3,2021-07-29_23h05.48.070,Simcolourproject_2stim_asymm_v5,2020.2.10,MacIntel,60,61025ae37ef11b136ea224fe,,,,,,,,,1975,37,-96,1,0,0,response3disk,,4,13,-19,1,0,0,rectangle,13,-19,1,0,0,13,-19,1,0,0,1,89,249,119,1,,,,,,,,
,,,,,,,,,,,,,FF,,,,,,,,0.935,,,,,,,,,,,,,,,,,,,,,,60fe112dce8bff0e598703f1,61036c517feeb397dbffe6f3,2021-07-29_23h05.48.070,Simcolourproject_2stim_asymm_v5,2020.2.10,MacIntel,60,61025ae37ef11b136ea224fe,,,,,,,,,1700,26,82,1,0,0,response1disk,,7,1,-6,1,0,0,rectangle,1,-6,1,0,0,1,-6,1,0,0,1,90,250,96,1,,,,,,,,
,,,,,,,,,,,,,FF,,,,,,,,0.883,,,,,,,,,,,,,,,,,,,,,,60fe112dce8bff0e598703f1,61036c517feeb397dbffe6f3,2021-07-29_23h05.48.070,Simcolourproject_2stim_asymm_v5,2020.2.10,MacIntel,60,61025ae37ef11b136ea224fe,,,,,,,,,3389,-47,111,1,0,0,response7disk,,0,-18,8,1,0,0,rectangle,-18,8,1,0,0,-18,8,1,0,0,1,91,251,154,1,,,,,,,,
,,,,,,,,,,,,,FF,,,,,,,,0.883,,,,,,,,,,,,,,,,,,,,,,60fe112dce8bff0e598703f1,61036c517feeb397dbffe6f3,2021-07-29_23h05.48.070,Simcolourproject_2stim_asymm_v5,2020.2.10,MacIntel,60,61025ae37ef11b136ea224fe,,,,,,,,,3181,-62,-114,1,0,0,response5disk,,3,5,10,1,0,0,rectangle,5,10,1,0,0,5,10,1,0,0,1,92,252,50,1,,,,,,,,
,,,,,,,,,,,,,FF,,,,,,,,0.816,,,,,,,,,,,,,,,,,,,,,,60fe112dce8bff0e598703f1,61036c517feeb397dbffe6f3,2021-07-29_23h05.48.070,Simcolourproject_2stim_asymm_v5,2020.2.10,MacIntel,60,61025ae37ef11b136ea224fe,,,,,,,,,1922,35,-87,1,0,0,response3disk,,4,13,1,1,0,0,rectangle,13,1,1,0,0,13,1,1,0,0,1,93,253,116,1,,,,,,,,
,,,,,,,,,,,,,FF,,,,,,,,1.1,,,,,,,,,,,,,,,,,,,,,,60fe112dce8bff0e598703f1,61036c517feeb397dbffe6f3,2021-07-29_23h05.48.070,Simcolourproject_2stim_asymm_v5,2020.2.10,MacIntel,60,61025ae37ef11b136ea224fe,,,,,,,,,1841,77,-38,1,0,0,response3disk,,5,1,-9,1,0,0,rectangle,1,-9,1,0,0,1,-9,1,0,0,1,94,254,112,1,,,,,,,,
,,,,,,,,,,,,,FF,,,,,,,,0.967,,,,,,,,,,,,,,,,,,,,,,60fe112dce8bff0e598703f1,61036c517feeb397dbffe6f3,2021-07-29_23h05.48.070,Simcolourproject_2stim_asymm_v5,2020.2.10,MacIntel,60,61025ae37ef11b136ea224fe,,,,,,,,,3327,41,78,1,0,0,response1disk,,7,17,8,1,0,0,rectangle,17,8,1,0,0,17,8,1,0,0,1,95,255,25,1,,,,,,,,
,,,,,,,,,,,,,FF,,,,,,,,1.116,,,,,,,,,,,,,,,,,,,,,,60fe112dce8bff0e598703f1,61036c517feeb397dbffe6f3,2021-07-29_23h05.48.070,Simcolourproject_2stim_asymm_v5,2020.2.10,MacIntel,60,61025ae37ef11b136ea224fe,,,,,,,,,3672,-72,-88,1,0,0,response5disk,,3,1,-1,1,0,0,rectangle,1,-1,1,0,0,1,-1,1,0,0,1,96,256,6,1,,,,,,,,
,,,,,,,,,,,,,FF,,,,,,,,0.769,,,,,,,,,,,,,,,,,,,,,,60fe112dce8bff0e598703f1,61036c517feeb397dbffe6f3,2021-07-29_23h05.48.070,Simcolourproject_2stim_asymm_v5,2020.2.10,MacIntel,60,61025ae37ef11b136ea224fe,,,,,,,,,2149,80,32,1,0,0,response1disk,,6,25,18,1,0,0,rectangle,25,18,1,0,0,25,18,1,0,0,1,97,257,92,1,,,,,,,,
,,,,,,,,,,,,,FF,,,,,,,,1.284,,,,,,,,,,,,,,,,,,,,,,60fe112dce8bff0e598703f1,61036c517feeb397dbffe6f3,2021-07-29_23h05.48.070,Simcolourproject_2stim_asymm_v5,2020.2.10,MacIntel,60,61025ae37ef11b136ea224fe,,,,,,,,,3344,79,-35,1,0,0,response3disk,,5,17,-8,1,0,0,rectangle,17,-8,1,0,0,17,-8,1,0,0,1,98,258,146,1,,,,,,,,
,,,,,,,,,,,,,FF,,,,,,,,0.984,,,,,,,,,,,,,,,,,,,,,,60fe112dce8bff0e598703f1,61036c517feeb397dbffe6f3,2021-07-29_23h05.48.070,Simcolourproject_2stim_asymm_v5,2020.2.10,MacIntel,60,61025ae37ef11b136ea224fe,,,,,,,,,3996,55,-75,1,0,0,response3disk,,4,38,4,1,0,0,rectangle,38,4,1,0,0,38,4,1,0,0,1,99,259,98,1,,,,,,,,
,,,,,,,,,,,,,FF,,,,,,,,0.916,,,,,,,,,,,,,,,,,,,,,,60fe112dce8bff0e598703f1,61036c517feeb397dbffe6f3,2021-07-29_23h05.48.070,Simcolourproject_2stim_asymm_v5,2020.2.10,MacIntel,60,61025ae37ef11b136ea224fe,,,,,,,,,2284,-60,-86,1,0,0,response5disk,,3,-6,3,1,0,0,rectangle,-6,3,1,0,0,-6,3,1,0,0,1,100,260,33,1,,,,,,,,
,,,,,,,,,,,,,FF,,,,,,,,1.166,,,,,,,,,,,,,,,,,,,,,,60fe112dce8bff0e598703f1,61036c517feeb397dbffe6f3,2021-07-29_23h05.48.070,Simcolourproject_2stim_asymm_v5,2020.2.10,MacIntel,60,61025ae37ef11b136ea224fe,,,,,,,,,979,-42,-70,1,0,0,response5disk,,3,-10,-6,1,0,0,rectangle,-10,-6,1,0,0,-10,-6,1,0,0,1,101,261,130,1,,,,,,,,
,,,,,,,,,,,,,FF,,,,,,,,0.867,,,,,,,,,,,,,,,,,,,,,,60fe112dce8bff0e598703f1,61036c517feeb397dbffe6f3,2021-07-29_23h05.48.070,Simcolourproject_2stim_asymm_v5,2020.2.10,MacIntel,60,61025ae37ef11b136ea224fe,,,,,,,,,4173,97,55,1,0,0,response1disk,,6,-2,-16,1,0,0,rectangle,-2,-16,1,0,0,-2,-16,1,0,0,1,102,262,110,1,,,,,,,,
,,,,,,,,,,,,,FF,,,,,,,,0.7,,,,,,,,,,,,,,,,,,,,,,60fe112dce8bff0e598703f1,61036c517feeb397dbffe6f3,2021-07-29_23h05.48.070,Simcolourproject_2stim_asymm_v5,2020.2.10,MacIntel,60,61025ae37ef11b136ea224fe,,,,,,,,,925,54,96,1,0,0,response1disk,,7,8,-16,1,0,0,rectangle,8,-16,1,0,0,8,-16,1,0,0,1,103,263,44,1,,,,,,,,
,,,,,,,,,,,,,FF,,,,,,,,1.15,,,,,,,,,,,,,,,,,,,,,,60fe112dce8bff0e598703f1,61036c517feeb397dbffe6f3,2021-07-29_23h05.48.070,Simcolourproject_2stim_asymm_v5,2020.2.10,MacIntel,60,61025ae37ef11b136ea224fe,,,,,,,,,3940,-86,-44,1,0,0,response5disk,,2,-22,-9,1,0,0,rectangle,-22,-9,1,0,0,-22,-9,1,0,0,1,104,264,24,1,,,,,,,,
,,,,,,,,,,,,,FF,,,,,,,,0.717,,,,,,,,,,,,,,,,,,,,,,60fe112dce8bff0e598703f1,61036c517feeb397dbffe6f3,2021-07-29_23h05.48.070,Simcolourproject_2stim_asymm_v5,2020.2.10,MacIntel,60,61025ae37ef11b136ea224fe,,,,,,,,,577,46,-85,1,0,0,response3disk,,4,18,-8,1,0,0,rectangle,18,-8,1,0,0,18,-8,1,0,0,1,105,265,73,1,,,,,,,,
,,,,,,,,,,,,,FF,,,,,,,,0.599,,,,,,,,,,,,,,,,,,,,,,60fe112dce8bff0e598703f1,61036c517feeb397dbffe6f3,2021-07-29_23h05.48.070,Simcolourproject_2stim_asymm_v5,2020.2.10,MacIntel,60,61025ae37ef11b136ea224fe,,,,,,,,,1867,55,-40,1,0,0,response3disk,,5,5,-12,1,0,0,rectangle,5,-12,1,0,0,5,-12,1,0,0,1,106,266,158,1,,,,,,,,
,,,,,,,,,,,,,FF,,,,,,,,0.667,,,,,,,,,,,,,,,,,,,,,,60fe112dce8bff0e598703f1,61036c517feeb397dbffe6f3,2021-07-29_23h05.48.070,Simcolourproject_2stim_asymm_v5,2020.2.10,MacIntel,60,61025ae37ef11b136ea224fe,,,,,,,,,2964,84,39,1,0,0,response1disk,,6,-5,4,1,0,0,rectangle,-5,4,1,0,0,-5,4,1,0,0,1,107,267,26,1,,,,,,,,
,,,,,,,,,,,,,FF,,,,,,,,1.933,,,,,,,,,,,,,,,,,,,,,,60fe112dce8bff0e598703f1,61036c517feeb397dbffe6f3,2021-07-29_23h05.48.070,Simcolourproject_2stim_asymm_v5,2020.2.10,MacIntel,60,61025ae37ef11b136ea224fe,,,,,,,,,1073,38,-94,1,0,0,response3disk,,4,5,-6,1,0,0,rectangle,5,-6,1,0,0,5,-6,1,0,0,1,108,268,79,1,,,,,,,,
,,,,,,,,,,,,,FF,,,,,,,,0.797,,,,,,,,,,,,,,,,,,,,,,60fe112dce8bff0e598703f1,61036c517feeb397dbffe6f3,2021-07-29_23h05.48.070,Simcolourproject_2stim_asymm_v5,2020.2.10,MacIntel,60,61025ae37ef11b136ea224fe,,,,,,,,,2786,48,-63,1,0,0,response3disk,,4,17,16,1,0,0,rectangle,17,16,1,0,0,17,16,1,0,0,1,109,269,30,1,,,,,,,,
,,,,,,,,,,,,,FF,,,,,,,,0.866,,,,,,,,,,,,,,,,,,,,,,60fe112dce8bff0e598703f1,61036c517feeb397dbffe6f3,2021-07-29_23h05.48.070,Simcolourproject_2stim_asymm_v5,2020.2.10,MacIntel,60,61025ae37ef11b136ea224fe,,,,,,,,,2258,-41,-96,1,0,0,response5disk,,3,9,-11,1,0,0,rectangle,9,-11,1,0,0,9,-11,1,0,0,1,110,270,39,1,,,,,,,,
,,,,,,,,,,,,,FF,,,,,,,,0.549,,,,,,,,,,,,,,,,,,,,,,60fe112dce8bff0e598703f1,61036c517feeb397dbffe6f3,2021-07-29_23h05.48.070,Simcolourproject_2stim_asymm_v5,2020.2.10,MacIntel,60,61025ae37ef11b136ea224fe,,,,,,,,,563,46,-71,1,0,0,response3disk,,4,15,2,1,0,0,rectangle,15,2,1,0,0,15,2,1,0,0,1,111,271,81,1,,,,,,,,
,,,,,,,,,,,,,FF,,,,,,,,0.718,,,,,,,,,,,,,,,,,,,,,,60fe112dce8bff0e598703f1,61036c517feeb397dbffe6f3,2021-07-29_23h05.48.070,Simcolourproject_2stim_asymm_v5,2020.2.10,MacIntel,60,61025ae37ef11b136ea224fe,,,,,,,,,2682,-55,-81,1,0,0,response5disk,,3,-9,-3,1,0,0,rectangle,-9,-3,1,0,0,-9,-3,1,0,0,1,112,272,86,1,,,,,,,,
,,,,,,,,,,,,,FF,,,,,,,,0.816,,,,,,,,,,,,,,,,,,,,,,60fe112dce8bff0e598703f1,61036c517feeb397dbffe6f3,2021-07-29_23h05.48.070,Simcolourproject_2stim_asymm_v5,2020.2.10,MacIntel,60,61025ae37ef11b136ea224fe,,,,,,,,,3955,45,-79,1,0,0,response3disk,,4,14,-9,1,0,0,rectangle,14,-9,1,0,0,14,-9,1,0,0,1,113,273,74,1,,,,,,,,
,,,,,,,,,,,,,FF,,,,,,,,1.084,,,,,,,,,,,,,,,,,,,,,,60fe112dce8bff0e598703f1,61036c517feeb397dbffe6f3,2021-07-29_23h05.48.070,Simcolourproject_2stim_asymm_v5,2020.2.10,MacIntel,60,61025ae37ef11b136ea224fe,,,,,,,,,4118,-111,68,1,0,0,response7disk,,1,-4,1,1,0,0,rectangle,-4,1,1,0,0,-4,1,1,0,0,1,114,274,131,1,,,,,,,,
,,,,,,,,,,,,,FF,,,,,,,,0.917,,,,,,,,,,,,,,,,,,,,,,60fe112dce8bff0e598703f1,61036c517feeb397dbffe6f3,2021-07-29_23h05.48.070,Simcolourproject_2stim_asymm_v5,2020.2.10,MacIntel,60,61025ae37ef11b136ea224fe,,,,,,,,,4001,-100,-36,1,0,0,response5disk,,2,-8,-21,1,0,0,rectangle,-8,-21,1,0,0,-8,-21,1,0,0,1,115,275,148,1,,,,,,,,
,,,,,,,,,,,,,FF,,,,,,,,1.201,,,,,,,,,,,,,,,,,,,,,,60fe112dce8bff0e598703f1,61036c517feeb397dbffe6f3,2021-07-29_23h05.48.070,Simcolourproject_2stim_asymm_v5,2020.2.10,MacIntel,60,61025ae37ef11b136ea224fe,,,,,,,,,2200,78,41,1,0,0,response1disk,,6,14,8,1,0,0,rectangle,14,8,1,0,0,14,8,1,0,0,1,116,276,21,1,,,,,,,,
,,,,,,,,,,,,,FF,,,,,,,,0.65,,,,,,,,,,,,,,,,,,,,,,60fe112dce8bff0e598703f1,61036c517feeb397dbffe6f3,2021-07-29_23h05.48.070,Simcolourproject_2stim_asymm_v5,2020.2.10,MacIntel,60,61025ae37ef11b136ea224fe,,,,,,,,,1635,56,88,1,0,0,response1disk,,7,26,-15,1,0,0,rectangle,26,-15,1,0,0,26,-15,1,0,0,1,117,277,70,1,,,,,,,,
,,,,,,,,,,,,,FF,,,,,,,,0.916,,,,,,,,,,,,,,,,,,,,,,60fe112dce8bff0e598703f1,61036c517feeb397dbffe6f3,2021-07-29_23h05.48.070,Simcolourproject_2stim_asymm_v5,2020.2.10,MacIntel,60,61025ae37ef11b136ea224fe,,,,,,,,,3528,81,-40,1,0,0,response3disk,,5,5,-3,1,0,0,rectangle,5,-3,1,0,0,5,-3,1,0,0,1,118,278,111,1,,,,,,,,
,,,,,,,,,,,,,FF,,,,,,,,0.634,,,,,,,,,,,,,,,,,,,,,,60fe112dce8bff0e598703f1,61036c517feeb397dbffe6f3,2021-07-29_23h05.48.070,Simcolourproject_2stim_asymm_v5,2020.2.10,MacIntel,60,61025ae37ef11b136ea224fe,,,,,,,,,590,40,-75,1,0,0,response3disk,,4,13,16,1,0,0,rectangle,13,16,1,0,0,13,16,1,0,0,1,119,279,58,1,,,,,,,,
,,,,,,,,,,,,,FF,,,,,,,,1.016,,,,,,,,,,,,,,,,,,,,,,60fe112dce8bff0e598703f1,61036c517feeb397dbffe6f3,2021-07-29_23h05.48.070,Simcolourproject_2stim_asymm_v5,2020.2.10,MacIntel,60,61025ae37ef11b136ea224fe,,,,,,,,,3934,84,-53,1,0,0,response3disk,,5,15,2,1,0,0,rectangle,15,2,1,0,0,15,2,1,0,0,1,120,280,47,1,,,,,,,,
,,,,,,,,,,,,,FF,,,,,,,,1.484,,,,,,,,,,,,,,,,,,,,,,60fe112dce8bff0e598703f1,61036c517feeb397dbffe6f3,2021-07-29_23h05.48.070,Simcolourproject_2stim_asymm_v5,2020.2.10,MacIntel,60,61025ae37ef11b136ea224fe,,,,,,,,,2328,86,53,1,0,0,response1disk,,6,11,17,1,0,0,rectangle,81,113,1,0,0,21,7,1,0,0,1,121,281,16,1,,response1disk_3,TRUE,7,7,"[183,302,57,163,146,193,114,229,316,127,209,292,162,16,58,84,282,227,289,123]",1.834,rectangle
,,,,,,,,,,,,,FF,,,,,,,,0.817,,,,,,,,,,,,,,,,,,,,,,60fe112dce8bff0e598703f1,61036c517feeb397dbffe6f3,2021-07-29_23h05.48.070,Simcolourproject_2stim_asymm_v5,2020.2.10,MacIntel,60,61025ae37ef11b136ea224fe,,,,,,,,,4113,51,-60,1,0,0,response3disk,,4,16,10,1,0,0,rectangle,16,10,1,0,0,16,10,1,0,0,1,122,282,128,1,,,,,,,,
,,,,,,,,,,,,,FF,,,,,,,,0.683,,,,,,,,,,,,,,,,,,,,,,60fe112dce8bff0e598703f1,61036c517feeb397dbffe6f3,2021-07-29_23h05.48.070,Simcolourproject_2stim_asymm_v5,2020.2.10,MacIntel,60,61025ae37ef11b136ea224fe,,,,,,,,,3730,95,64,1,0,0,response1disk,,6,15,8,1,0,0,rectangle,15,8,1,0,0,15,8,1,0,0,1,123,283,69,1,,,,,,,,
,,,,,,,,,,,,,FF,,,,,,,,0.817,,,,,,,,,,,,,,,,,,,,,,60fe112dce8bff0e598703f1,61036c517feeb397dbffe6f3,2021-07-29_23h05.48.070,Simcolourproject_2stim_asymm_v5,2020.2.10,MacIntel,60,61025ae37ef11b136ea224fe,,,,,,,,,3104,-36,-105,1,0,0,response5disk,,3,11,1,1,0,0,rectangle,11,1,1,0,0,11,1,1,0,0,1,124,284,126,1,,,,,,,,
,,,,,,,,,,,,,FF,,,,,,,,0.951,,,,,,,,,,,,,,,,,,,,,,60fe112dce8bff0e598703f1,61036c517feeb397dbffe6f3,2021-07-29_23h05.48.070,Simcolourproject_2stim_asymm_v5,2020.2.10,MacIntel,60,61025ae37ef11b136ea224fe,,,,,,,,,2664,-97,-43,1,0,0,response5disk,,2,-24,-3,1,0,0,rectangle,-24,-3,1,0,0,-24,-3,1,0,0,1,125,285,7,1,,,,,,,,
,,,,,,,,,,,,,FF,,,,,,,,1.483,,,,,,,,,,,,,,,,,,,,,,60fe112dce8bff0e598703f1,61036c517feeb397dbffe6f3,2021-07-29_23h05.48.070,Simcolourproject_2stim_asymm_v5,2020.2.10,MacIntel,60,61025ae37ef11b136ea224fe,,,,,,,,,3572,67,33,1,0,0,response1disk,,6,6,4,1,0,0,rectangle,6,4,1,0,0,6,4,1,0,0,1,126,286,55,1,,,,,,,,
,,,,,,,,,,,,,FF,,,,,,,,0.899,,,,,,,,,,,,,,,,,,,,,,60fe112dce8bff0e598703f1,61036c517feeb397dbffe6f3,2021-07-29_23h05.48.070,Simcolourproject_2stim_asymm_v5,2020.2.10,MacIntel,60,61025ae37ef11b136ea224fe,,,,,,,,,4032,78,-30,1,0,0,response3disk,,5,29,-20,1,0,0,rectangle,29,-20,1,0,0,29,-20,1,0,0,1,127,287,4,1,,,,,,,,
,,,,,,,,,,,,,FF,,,,,,,,1.033,,,,,,,,,,,,,,,,,,,,,,60fe112dce8bff0e598703f1,61036c517feeb397dbffe6f3,2021-07-29_23h05.48.070,Simcolourproject_2stim_asymm_v5,2020.2.10,MacIntel,60,61025ae37ef11b136ea224fe,,,,,,,,,4077,30,-94,1,0,0,response3disk,,4,20,20,1,0,0,rectangle,-107,49,1,0,0,-1,-9,1,0,0,1,128,288,95,1,,response7disk_3,TRUE,1,1,"[183,302,57,163,146,193,114,229,316,127,209,292,162,16,58,84,282,227,289,123]",1.433,rectangle
,,,,,,,,,,,,,FF,,,,,,,,0.967,,,,,,,,,,,,,,,,,,,,,,60fe112dce8bff0e598703f1,61036c517feeb397dbffe6f3,2021-07-29_23h05.48.070,Simcolourproject_2stim_asymm_v5,2020.2.10,MacIntel,60,61025ae37ef11b136ea224fe,,,,,,,,,1926,76,-43,1,0,0,response3disk,,5,15,-11,1,0,0,rectangle,15,-11,1,0,0,15,-11,1,0,0,1,129,289,22,1,,,,,,,,
,,,,,,,,,,,,,FF,,,,,,,,0.814,,,,,,,,,,,,,,,,,,,,,,60fe112dce8bff0e598703f1,61036c517feeb397dbffe6f3,2021-07-29_23h05.48.070,Simcolourproject_2stim_asymm_v5,2020.2.10,MacIntel,60,61025ae37ef11b136ea224fe,,,,,,,,,2834,-58,-86,1,0,0,response5disk,,3,-12,-13,1,0,0,rectangle,-12,-13,1,0,0,-12,-13,1,0,0,1,130,290,88,1,,,,,,,,
,,,,,,,,,,,,,FF,,,,,,,,0.783,,,,,,,,,,,,,,,,,,,,,,60fe112dce8bff0e598703f1,61036c517feeb397dbffe6f3,2021-07-29_23h05.48.070,Simcolourproject_2stim_asymm_v5,2020.2.10,MacIntel,60,61025ae37ef11b136ea224fe,,,,,,,,,1649,87,35,1,0,0,response1disk,,6,38,10,1,0,0,rectangle,106,36,1,0,0,14,0,1,0,0,1,131,291,121,1,,response1disk_3,TRUE,6,6,"[183,302,57,163,146,193,114,229,316,127,209,292,162,16,58,84,282,227,289,123]",1.583,rectangle
,,,,,,,,,,,,,FF,,,,,,,,0.784,,,,,,,,,,,,,,,,,,,,,,60fe112dce8bff0e598703f1,61036c517feeb397dbffe6f3,2021-07-29_23h05.48.070,Simcolourproject_2stim_asymm_v5,2020.2.10,MacIntel,60,61025ae37ef11b136ea224fe,,,,,,,,,3894,43,-73,1,0,0,response3disk,,4,26,-6,1,0,0,rectangle,26,-6,1,0,0,26,-6,1,0,0,1,132,292,2,1,,,,,,,,
,,,,,,,,,,,,,FF,,,,,,,,1.151,,,,,,,,,,,,,,,,,,,,,,60fe112dce8bff0e598703f1,61036c517feeb397dbffe6f3,2021-07-29_23h05.48.070,Simcolourproject_2stim_asymm_v5,2020.2.10,MacIntel,60,61025ae37ef11b136ea224fe,,,,,,,,,1764,-52,-89,1,0,0,response5disk,,3,5,10,1,0,0,rectangle,5,10,1,0,0,5,10,1,0,0,1,133,293,20,1,,,,,,,,
,,,,,,,,,,,,,FF,,,,,,,,0.982,,,,,,,,,,,,,,,,,,,,,,60fe112dce8bff0e598703f1,61036c517feeb397dbffe6f3,2021-07-29_23h05.48.070,Simcolourproject_2stim_asymm_v5,2020.2.10,MacIntel,60,61025ae37ef11b136ea224fe,,,,,,,,,1503,76,-39,1,0,0,response3disk,,5,11,3,1,0,0,rectangle,11,3,1,0,0,11,3,1,0,0,1,134,294,43,1,,,,,,,,
,,,,,,,,,,,,,FF,,,,,,,,0.933,,,,,,,,,,,,,,,,,,,,,,60fe112dce8bff0e598703f1,61036c517feeb397dbffe6f3,2021-07-29_23h05.48.070,Simcolourproject_2stim_asymm_v5,2020.2.10,MacIntel,60,61025ae37ef11b136ea224fe,,,,,,,,,1103,84,60,1,0,0,response1disk,,6,6,18,1,0,0,rectangle,6,18,1,0,0,6,18,1,0,0,1,135,295,56,1,,,,,,,,
,,,,,,,,,,,,,FF,,,,,,,,1.183,,,,,,,,,,,,,,,,,,,,,,60fe112dce8bff0e598703f1,61036c517feeb397dbffe6f3,2021-07-29_23h05.48.070,Simcolourproject_2stim_asymm_v5,2020.2.10,MacIntel,60,61025ae37ef11b136ea224fe,,,,,,,,,803,-87,-52,1,0,0,response5disk,,2,-1,-8,1,0,0,rectangle,-1,-8,1,0,0,-1,-8,1,0,0,1,136,296,118,1,,,,,,,,
,,,,,,,,,,,,,FF,,,,,,,,0.785,,,,,,,,,,,,,,,,,,,,,,60fe112dce8bff0e598703f1,61036c517feeb397dbffe6f3,2021-07-29_23h05.48.070,Simcolourproject_2stim_asymm_v5,2020.2.10,MacIntel,60,61025ae37ef11b136ea224fe,,,,,,,,,910,96,-40,1,0,0,response3disk,,5,21,-17,1,0,0,rectangle,21,-17,1,0,0,21,-17,1,0,0,1,137,297,5,1,,,,,,,,
,,,,,,,,,,,,,FF,,,,,,,,1.116,,,,,,,,,,,,,,,,,,,,,,60fe112dce8bff0e598703f1,61036c517feeb397dbffe6f3,2021-07-29_23h05.48.070,Simcolourproject_2stim_asymm_v5,2020.2.10,MacIntel,60,61025ae37ef11b136ea224fe,,,,,,,,,114,83,29,1,0,0,response1disk,,6,3,11,1,0,0,rectangle,3,11,1,0,0,3,11,1,0,0,1,138,298,113,1,,,,,,,,
,,,,,,,,,,,,,FF,,,,,,,,0.7,,,,,,,,,,,,,,,,,,,,,,60fe112dce8bff0e598703f1,61036c517feeb397dbffe6f3,2021-07-29_23h05.48.070,Simcolourproject_2stim_asymm_v5,2020.2.10,MacIntel,60,61025ae37ef11b136ea224fe,,,,,,,,,3512,-76,43,1,0,0,response7disk,,1,4,17,1,0,0,rectangle,4,17,1,0,0,4,17,1,0,0,1,139,299,62,1,,,,,,,,
