key_resp.keys,key_resp.rt,key_resp_14.keys,key_resp_14.rt,key_resp_15.keys,key_resp_15.rt,key_resp_17.keys,key_resp_17.rt,key_resp_9.keys,key_resp_9.rt,key_resp_10.keys,key_resp_10.rt,practice_comparison,Ecc,mouse_5.x,mouse_5.y,mouse_5.leftButton,mouse_5.midButton,mouse_5.rightButton,mouse_5.clicked_name,pracsimilarity,response_time,mouse_10.x,mouse_10.y,mouse_10.leftButton,mouse_10.midButton,mouse_10.rightButton,mouse_10.clicked_name,mouse_7.x,mouse_7.y,mouse_7.leftButton,mouse_7.midButton,mouse_7.rightButton,mouse_6.x,mouse_6.y,mouse_6.leftButton,mouse_6.midButton,mouse_6.rightButton,duringprac.thisRepN,duringprac.thisTrialN,duringprac.thisN,duringprac.thisIndex,duringprac.ran,participant,session,date,expName,psychopyVersion,OS,frameRate,study_id,mouse_7.clicked_name,catchpracsimilarity,catch_response_time,catchnumberprac,catchtrialorderprac,mouse_6.clicked_name,key_resp_22.keys,key_resp_22.rt,realcomparison,mouse.x,mouse.y,mouse.leftButton,mouse.midButton,mouse.rightButton,mouse.clicked_name,Colour2,similarity,mouse_2.x,mouse_2.y,mouse_2.leftButton,mouse_2.midButton,mouse_2.rightButton,mouse_2.clicked_name,mouse_3.x,mouse_3.y,mouse_3.leftButton,mouse_3.midButton,mouse_3.rightButton,mouse_11.x,mouse_11.y,mouse_11.leftButton,mouse_11.midButton,mouse_11.rightButton,trials_2.thisRepN,trials_2.thisTrialN,trials_2.thisN,trials_2.thisIndex,trials_2.ran,Colour1,mouse_3.clicked_name,catchornah,catchsimilarity,catchnumber,catchtrialorder,catchRT,mouse_11.clicked_name
space,1.6331,space,5.134,space,4.2245,space,349.3158,space,0.6321,space,3.0865,22,PF,-82,66,1,0,0,response7disk_5,1,10.1202,-4,-1,1,0,0,rectangle_8,-4,-1,1,0,0,-4,-1,1,0,0,0,0,0,6,1,60fe60dd936bd51ad5938b9f,6103691592396a346169f221,2021-07-29_22h51.28.331,Simcolourproject_2stim_asymm_v5,2020.2.10,Win32,60,61025ae37ef11b136ea224fe,,,,,,,,,,,,,,,,,,,,,,,,,,,,,,,,,,,,,,,,,,,,,,
,,,,,,,,,,,,73,PF,59,90,1,0,0,response1disk_5,7,3.8555,2,-9,1,0,0,rectangle_8,-56,139,1,0,0,-10,-9,1,0,0,0,1,1,2,1,60fe60dd936bd51ad5938b9f,6103691592396a346169f221,2021-07-29_22h51.28.331,Simcolourproject_2stim_asymm_v5,2020.2.10,Win32,60,61025ae37ef11b136ea224fe,response7disk_7,0,4.9101,0,"[2,5]",rectangle_4,,,,,,,,,,,,,,,,,,,,,,,,,,,,,,,,,,,,,,,,
,,,,,,,,,,,,113,FF,-101,54,1,0,0,response7disk_5,1,4.4379,12,-10,1,0,0,rectangle_8,12,-10,1,0,0,12,-10,1,0,0,0,2,2,3,1,60fe60dd936bd51ad5938b9f,6103691592396a346169f221,2021-07-29_22h51.28.331,Simcolourproject_2stim_asymm_v5,2020.2.10,Win32,60,61025ae37ef11b136ea224fe,,,,,,,,,,,,,,,,,,,,,,,,,,,,,,,,,,,,,,,,,,,,,,
,,,,,,,,,,,,83,PF,80,-99,1,0,0,response3disk_5,4,0.7377,-5,10,1,0,0,rectangle_8,-5,10,1,0,0,-5,10,1,0,0,0,3,3,4,1,60fe60dd936bd51ad5938b9f,6103691592396a346169f221,2021-07-29_22h51.28.331,Simcolourproject_2stim_asymm_v5,2020.2.10,Win32,60,61025ae37ef11b136ea224fe,,,,,,,,,,,,,,,,,,,,,,,,,,,,,,,,,,,,,,,,,,,,,,
,,,,,,,,,,,,47,FF,-98,-66,1,0,0,response5disk_5,2,0.349,-23,17,1,0,0,rectangle_8,62,-87,1,0,0,-9,-20,1,0,0,0,4,4,0,1,60fe60dd936bd51ad5938b9f,6103691592396a346169f221,2021-07-29_22h51.28.331,Simcolourproject_2stim_asymm_v5,2020.2.10,Win32,60,61025ae37ef11b136ea224fe,response3disk_7,4,0.3819,0,"[2,5]",rectangle_4,,,,,,,,,,,,,,,,,,,,,,,,,,,,,,,,,,,,,,,,
,,,,,,,,,,,,147,PF,-128,-59,1,0,0,response5disk_5,2,0.3594,4,6,1,0,0,rectangle_8,4,6,1,0,0,4,6,1,0,0,0,5,5,1,1,60fe60dd936bd51ad5938b9f,6103691592396a346169f221,2021-07-29_22h51.28.331,Simcolourproject_2stim_asymm_v5,2020.2.10,Win32,60,61025ae37ef11b136ea224fe,,,,,,,,,,,,,,,,,,,,,,,,,,,,,,,,,,,,,,,,,,,,,,
,,,,,,,,,,,,53,FF,-44,56,1,0,0,response7disk_5,0,0.5418,31,-15,1,0,0,rectangle_8,31,-15,1,0,0,31,-15,1,0,0,0,6,6,5,1,60fe60dd936bd51ad5938b9f,6103691592396a346169f221,2021-07-29_22h51.28.331,Simcolourproject_2stim_asymm_v5,2020.2.10,Win32,60,61025ae37ef11b136ea224fe,,,,,,,,,,,,,,,,,,,,,,,,,,,,,,,,,,,,,,,,,,,,,,
,,,,,,,,,,,,,FF,,,,,,,,1.3945,,,,,,,,,,,,,,,,,,,,,,60fe60dd936bd51ad5938b9f,6103691592396a346169f221,2021-07-29_22h51.28.331,Simcolourproject_2stim_asymm_v5,2020.2.10,Win32,60,61025ae37ef11b136ea224fe,,,,,,,space,2.1999,2989,89,70,1,0,0,response1disk,,6,-2,-8,1,0,0,rectangle,-2,-8,1,0,0,-2,-8,1,0,0,0,0,0,96,1,,,,,,,,
,,,,,,,,,,,,,FF,,,,,,,,0.5206,,,,,,,,,,,,,,,,,,,,,,60fe60dd936bd51ad5938b9f,6103691592396a346169f221,2021-07-29_22h51.28.331,Simcolourproject_2stim_asymm_v5,2020.2.10,Win32,60,61025ae37ef11b136ea224fe,,,,,,,,,3848,-96,55,1,0,0,response7disk,,1,2,-18,1,0,0,rectangle,2,-18,1,0,0,2,-18,1,0,0,0,1,1,149,1,,,,,,,,
,,,,,,,,,,,,,FF,,,,,,,,0.4708,,,,,,,,,,,,,,,,,,,,,,60fe60dd936bd51ad5938b9f,6103691592396a346169f221,2021-07-29_22h51.28.331,Simcolourproject_2stim_asymm_v5,2020.2.10,Win32,60,61025ae37ef11b136ea224fe,,,,,,,,,4237,-69,65,1,0,0,response7disk,,1,8,-7,1,0,0,rectangle,8,-7,1,0,0,8,-7,1,0,0,0,2,2,55,1,,,,,,,,
,,,,,,,,,,,,,FF,,,,,,,,3.0418,,,,,,,,,,,,,,,,,,,,,,60fe60dd936bd51ad5938b9f,6103691592396a346169f221,2021-07-29_22h51.28.331,Simcolourproject_2stim_asymm_v5,2020.2.10,Win32,60,61025ae37ef11b136ea224fe,,,,,,,,,790,93,-87,1,0,0,response3disk,,5,-32,14,1,0,0,rectangle,-32,14,1,0,0,-32,14,1,0,0,0,3,3,115,1,,,,,,,,
,,,,,,,,,,,,,FF,,,,,,,,0.9638,,,,,,,,,,,,,,,,,,,,,,60fe60dd936bd51ad5938b9f,6103691592396a346169f221,2021-07-29_22h51.28.331,Simcolourproject_2stim_asymm_v5,2020.2.10,Win32,60,61025ae37ef11b136ea224fe,,,,,,,,,753,86,-79,1,0,0,response3disk,,5,-12,-9,1,0,0,rectangle,-12,-9,1,0,0,-12,-9,1,0,0,0,4,4,118,1,,,,,,,,
,,,,,,,,,,,,,FF,,,,,,,,1.1752,,,,,,,,,,,,,,,,,,,,,,60fe60dd936bd51ad5938b9f,6103691592396a346169f221,2021-07-29_22h51.28.331,Simcolourproject_2stim_asymm_v5,2020.2.10,Win32,60,61025ae37ef11b136ea224fe,,,,,,,,,4003,-91,-100,1,0,0,response5disk,,3,-30,-1,1,0,0,rectangle,-30,-1,1,0,0,-30,-1,1,0,0,0,5,5,135,1,,,,,,,,
,,,,,,,,,,,,,FF,,,,,,,,1.0069,,,,,,,,,,,,,,,,,,,,,,60fe60dd936bd51ad5938b9f,6103691592396a346169f221,2021-07-29_22h51.28.331,Simcolourproject_2stim_asymm_v5,2020.2.10,Win32,60,61025ae37ef11b136ea224fe,,,,,,,,,3487,-78,-85,1,0,0,response5disk,,3,-2,-6,1,0,0,rectangle,-2,-6,1,0,0,-2,-6,1,0,0,0,6,6,1,1,,,,,,,,
,,,,,,,,,,,,,FF,,,,,,,,1.4031,,,,,,,,,,,,,,,,,,,,,,60fe60dd936bd51ad5938b9f,6103691592396a346169f221,2021-07-29_22h51.28.331,Simcolourproject_2stim_asymm_v5,2020.2.10,Win32,60,61025ae37ef11b136ea224fe,,,,,,,,,905,111,43,1,0,0,response1disk,,6,-8,-9,1,0,0,rectangle,-8,-9,1,0,0,-8,-9,1,0,0,0,7,7,153,1,,,,,,,,
,,,,,,,,,,,,,FF,,,,,,,,1.3753,,,,,,,,,,,,,,,,,,,,,,60fe60dd936bd51ad5938b9f,6103691592396a346169f221,2021-07-29_22h51.28.331,Simcolourproject_2stim_asymm_v5,2020.2.10,Win32,60,61025ae37ef11b136ea224fe,,,,,,,,,492,96,43,1,0,0,response1disk,,6,-12,-2,1,0,0,rectangle,-12,-2,1,0,0,-12,-2,1,0,0,0,8,8,8,1,,,,,,,,
,,,,,,,,,,,,,FF,,,,,,,,1.2211,,,,,,,,,,,,,,,,,,,,,,60fe60dd936bd51ad5938b9f,6103691592396a346169f221,2021-07-29_22h51.28.331,Simcolourproject_2stim_asymm_v5,2020.2.10,Win32,60,61025ae37ef11b136ea224fe,,,,,,,,,3191,-98,-51,1,0,0,response5disk,,2,16,3,1,0,0,rectangle,16,3,1,0,0,16,3,1,0,0,0,9,9,69,1,,,,,,,,
,,,,,,,,,,,,,FF,,,,,,,,1.6668,,,,,,,,,,,,,,,,,,,,,,60fe60dd936bd51ad5938b9f,6103691592396a346169f221,2021-07-29_22h51.28.331,Simcolourproject_2stim_asymm_v5,2020.2.10,Win32,60,61025ae37ef11b136ea224fe,,,,,,,,,1949,43,-119,1,0,0,response3disk,,4,17,5,1,0,0,rectangle,17,5,1,0,0,17,5,1,0,0,0,10,10,100,1,,,,,,,,
,,,,,,,,,,,,,FF,,,,,,,,1.4513,,,,,,,,,,,,,,,,,,,,,,60fe60dd936bd51ad5938b9f,6103691592396a346169f221,2021-07-29_22h51.28.331,Simcolourproject_2stim_asymm_v5,2020.2.10,Win32,60,61025ae37ef11b136ea224fe,,,,,,,,,4349,-111,-66,1,0,0,response5disk,,2,3,-2,1,0,0,rectangle,3,-2,1,0,0,3,-2,1,0,0,0,11,11,144,1,,,,,,,,
,,,,,,,,,,,,,FF,,,,,,,,1.3613,,,,,,,,,,,,,,,,,,,,,,60fe60dd936bd51ad5938b9f,6103691592396a346169f221,2021-07-29_22h51.28.331,Simcolourproject_2stim_asymm_v5,2020.2.10,Win32,60,61025ae37ef11b136ea224fe,,,,,,,,,644,32,-93,1,0,0,response3disk,,4,4,-5,1,0,0,rectangle,4,-5,1,0,0,4,-5,1,0,0,0,12,12,136,1,,,,,,,,
,,,,,,,,,,,,,FF,,,,,,,,1.0781,,,,,,,,,,,,,,,,,,,,,,60fe60dd936bd51ad5938b9f,6103691592396a346169f221,2021-07-29_22h51.28.331,Simcolourproject_2stim_asymm_v5,2020.2.10,Win32,60,61025ae37ef11b136ea224fe,,,,,,,,,583,62,-48,1,0,0,response3disk,,5,-20,9,1,0,0,rectangle,-20,9,1,0,0,-20,9,1,0,0,0,13,13,157,1,,,,,,,,
,,,,,,,,,,,,,FF,,,,,,,,1.1251,,,,,,,,,,,,,,,,,,,,,,60fe60dd936bd51ad5938b9f,6103691592396a346169f221,2021-07-29_22h51.28.331,Simcolourproject_2stim_asymm_v5,2020.2.10,Win32,60,61025ae37ef11b136ea224fe,,,,,,,,,3782,-107,-51,1,0,0,response5disk,,2,21,18,1,0,0,rectangle,21,18,1,0,0,21,18,1,0,0,0,14,14,116,1,,,,,,,,
,,,,,,,,,,,,,FF,,,,,,,,1.007,,,,,,,,,,,,,,,,,,,,,,60fe60dd936bd51ad5938b9f,6103691592396a346169f221,2021-07-29_22h51.28.331,Simcolourproject_2stim_asymm_v5,2020.2.10,Win32,60,61025ae37ef11b136ea224fe,,,,,,,,,3314,59,-140,1,0,0,response3disk,,4,7,9,1,0,0,rectangle,138,43,1,0,0,7,-3,1,0,0,0,15,15,94,1,,response1disk_3,TRUE,6,6,"[42,221,301,238,304,44,84,305,154,34,269,214,117,233,279,16,94,229,243,205]",3.0696,rectangle
,,,,,,,,,,,,,FF,,,,,,,,1.8405,,,,,,,,,,,,,,,,,,,,,,60fe60dd936bd51ad5938b9f,6103691592396a346169f221,2021-07-29_22h51.28.331,Simcolourproject_2stim_asymm_v5,2020.2.10,Win32,60,61025ae37ef11b136ea224fe,,,,,,,,,3319,133,-46,1,0,0,response3disk,,5,-5,10,1,0,0,rectangle,-5,10,1,0,0,-5,10,1,0,0,0,16,16,124,1,,,,,,,,
,,,,,,,,,,,,,FF,,,,,,,,1.0486,,,,,,,,,,,,,,,,,,,,,,60fe60dd936bd51ad5938b9f,6103691592396a346169f221,2021-07-29_22h51.28.331,Simcolourproject_2stim_asymm_v5,2020.2.10,Win32,60,61025ae37ef11b136ea224fe,,,,,,,,,2289,-62,-138,1,0,0,response5disk,,3,-5,7,1,0,0,rectangle,-5,7,1,0,0,-5,7,1,0,0,0,17,17,84,1,,,,,,,,
,,,,,,,,,,,,,FF,,,,,,,,0.8404,,,,,,,,,,,,,,,,,,,,,,60fe60dd936bd51ad5938b9f,6103691592396a346169f221,2021-07-29_22h51.28.331,Simcolourproject_2stim_asymm_v5,2020.2.10,Win32,60,61025ae37ef11b136ea224fe,,,,,,,,,1876,113,41,1,0,0,response1disk,,6,-33,-6,1,0,0,rectangle,-33,-6,1,0,0,-33,-6,1,0,0,0,18,18,64,1,,,,,,,,
,,,,,,,,,,,,,FF,,,,,,,,1.5417,,,,,,,,,,,,,,,,,,,,,,60fe60dd936bd51ad5938b9f,6103691592396a346169f221,2021-07-29_22h51.28.331,Simcolourproject_2stim_asymm_v5,2020.2.10,Win32,60,61025ae37ef11b136ea224fe,,,,,,,,,4082,-61,-107,1,0,0,response5disk,,3,-5,15,1,0,0,rectangle,-5,15,1,0,0,-5,15,1,0,0,0,19,19,103,1,,,,,,,,
,,,,,,,,,,,,,FF,,,,,,,,1.3057,,,,,,,,,,,,,,,,,,,,,,60fe60dd936bd51ad5938b9f,6103691592396a346169f221,2021-07-29_22h51.28.331,Simcolourproject_2stim_asymm_v5,2020.2.10,Win32,60,61025ae37ef11b136ea224fe,,,,,,,,,830,76,-39,1,0,0,response3disk,,5,14,3,1,0,0,rectangle,14,3,1,0,0,14,3,1,0,0,0,20,20,32,1,,,,,,,,
,,,,,,,,,,,,,FF,,,,,,,,2.0573,,,,,,,,,,,,,,,,,,,,,,60fe60dd936bd51ad5938b9f,6103691592396a346169f221,2021-07-29_22h51.28.331,Simcolourproject_2stim_asymm_v5,2020.2.10,Win32,60,61025ae37ef11b136ea224fe,,,,,,,,,2076,88,72,1,0,0,response1disk,,6,19,0,1,0,0,rectangle,19,0,1,0,0,19,0,1,0,0,0,21,21,51,1,,,,,,,,
,,,,,,,,,,,,,FF,,,,,,,,0.743,,,,,,,,,,,,,,,,,,,,,,60fe60dd936bd51ad5938b9f,6103691592396a346169f221,2021-07-29_22h51.28.331,Simcolourproject_2stim_asymm_v5,2020.2.10,Win32,60,61025ae37ef11b136ea224fe,,,,,,,,,1101,60,93,1,0,0,response1disk,,7,-8,14,1,0,0,rectangle,-8,14,1,0,0,-8,14,1,0,0,0,22,22,122,1,,,,,,,,
,,,,,,,,,,,,,FF,,,,,,,,1.0646,,,,,,,,,,,,,,,,,,,,,,60fe60dd936bd51ad5938b9f,6103691592396a346169f221,2021-07-29_22h51.28.331,Simcolourproject_2stim_asymm_v5,2020.2.10,Win32,60,61025ae37ef11b136ea224fe,,,,,,,,,762,115,27,1,0,0,response1disk,,6,22,-19,1,0,0,rectangle,22,-19,1,0,0,22,-19,1,0,0,0,23,23,87,1,,,,,,,,
,,,,,,,,,,,,,FF,,,,,,,,1.8264,,,,,,,,,,,,,,,,,,,,,,60fe60dd936bd51ad5938b9f,6103691592396a346169f221,2021-07-29_22h51.28.331,Simcolourproject_2stim_asymm_v5,2020.2.10,Win32,60,61025ae37ef11b136ea224fe,,,,,,,,,2013,53,-92,1,0,0,response3disk,,4,38,-5,1,0,0,rectangle,38,-5,1,0,0,38,-5,1,0,0,0,24,24,99,1,,,,,,,,
,,,,,,,,,,,,,FF,,,,,,,,1.2083,,,,,,,,,,,,,,,,,,,,,,60fe60dd936bd51ad5938b9f,6103691592396a346169f221,2021-07-29_22h51.28.331,Simcolourproject_2stim_asymm_v5,2020.2.10,Win32,60,61025ae37ef11b136ea224fe,,,,,,,,,958,75,-48,1,0,0,response3disk,,5,4,15,1,0,0,rectangle,4,15,1,0,0,4,15,1,0,0,0,25,25,132,1,,,,,,,,
,,,,,,,,,,,,,FF,,,,,,,,1.1807,,,,,,,,,,,,,,,,,,,,,,60fe60dd936bd51ad5938b9f,6103691592396a346169f221,2021-07-29_22h51.28.331,Simcolourproject_2stim_asymm_v5,2020.2.10,Win32,60,61025ae37ef11b136ea224fe,,,,,,,,,2161,-105,-47,1,0,0,response5disk,,2,5,13,1,0,0,rectangle,5,13,1,0,0,5,13,1,0,0,0,26,26,134,1,,,,,,,,
,,,,,,,,,,,,,FF,,,,,,,,1.1041,,,,,,,,,,,,,,,,,,,,,,60fe60dd936bd51ad5938b9f,6103691592396a346169f221,2021-07-29_22h51.28.331,Simcolourproject_2stim_asymm_v5,2020.2.10,Win32,60,61025ae37ef11b136ea224fe,,,,,,,,,3695,157,-51,1,0,0,response3disk,,5,-5,9,1,0,0,rectangle,-5,9,1,0,0,-5,9,1,0,0,0,27,27,92,1,,,,,,,,
,,,,,,,,,,,,,FF,,,,,,,,1.0002,,,,,,,,,,,,,,,,,,,,,,60fe60dd936bd51ad5938b9f,6103691592396a346169f221,2021-07-29_22h51.28.331,Simcolourproject_2stim_asymm_v5,2020.2.10,Win32,60,61025ae37ef11b136ea224fe,,,,,,,,,3461,-35,-111,1,0,0,response5disk,,3,19,-8,1,0,0,rectangle,19,-8,1,0,0,19,-8,1,0,0,0,28,28,67,1,,,,,,,,
,,,,,,,,,,,,,FF,,,,,,,,1.0195,,,,,,,,,,,,,,,,,,,,,,60fe60dd936bd51ad5938b9f,6103691592396a346169f221,2021-07-29_22h51.28.331,Simcolourproject_2stim_asymm_v5,2020.2.10,Win32,60,61025ae37ef11b136ea224fe,,,,,,,,,3891,49,-95,1,0,0,response3disk,,4,22,7,1,0,0,rectangle,22,7,1,0,0,22,7,1,0,0,0,29,29,34,1,,,,,,,,
,,,,,,,,,,,,,FF,,,,,,,,1.5376,,,,,,,,,,,,,,,,,,,,,,60fe60dd936bd51ad5938b9f,6103691592396a346169f221,2021-07-29_22h51.28.331,Simcolourproject_2stim_asymm_v5,2020.2.10,Win32,60,61025ae37ef11b136ea224fe,,,,,,,,,2280,73,100,1,0,0,response1disk,,7,20,-7,1,0,0,rectangle,20,-7,1,0,0,20,-7,1,0,0,0,30,30,47,1,,,,,,,,
,,,,,,,,,,,,,FF,,,,,,,,0.9235,,,,,,,,,,,,,,,,,,,,,,60fe60dd936bd51ad5938b9f,6103691592396a346169f221,2021-07-29_22h51.28.331,Simcolourproject_2stim_asymm_v5,2020.2.10,Win32,60,61025ae37ef11b136ea224fe,,,,,,,,,2850,39,93,1,0,0,response1disk,,7,8,12,1,0,0,rectangle,8,12,1,0,0,8,12,1,0,0,0,31,31,11,1,,,,,,,,
,,,,,,,,,,,,,FF,,,,,,,,2.0698,,,,,,,,,,,,,,,,,,,,,,60fe60dd936bd51ad5938b9f,6103691592396a346169f221,2021-07-29_22h51.28.331,Simcolourproject_2stim_asymm_v5,2020.2.10,Win32,60,61025ae37ef11b136ea224fe,,,,,,,,,811,49,-105,1,0,0,response3disk,,4,2,7,1,0,0,rectangle,2,7,1,0,0,2,7,1,0,0,0,32,32,158,1,,,,,,,,
,,,,,,,,,,,,,FF,,,,,,,,0.757,,,,,,,,,,,,,,,,,,,,,,60fe60dd936bd51ad5938b9f,6103691592396a346169f221,2021-07-29_22h51.28.331,Simcolourproject_2stim_asymm_v5,2020.2.10,Win32,60,61025ae37ef11b136ea224fe,,,,,,,,,2352,-42,-87,1,0,0,response5disk,,3,-6,4,1,0,0,rectangle,-146,64,1,0,0,15,-5,1,0,0,0,33,33,3,1,,response7disk_3,TRUE,1,1,"[42,221,301,238,304,44,84,305,154,34,269,214,117,233,279,16,94,229,243,205]",1.7986,rectangle
,,,,,,,,,,,,,FF,,,,,,,,1.0487,,,,,,,,,,,,,,,,,,,,,,60fe60dd936bd51ad5938b9f,6103691592396a346169f221,2021-07-29_22h51.28.331,Simcolourproject_2stim_asymm_v5,2020.2.10,Win32,60,61025ae37ef11b136ea224fe,,,,,,,,,2889,-83,-43,1,0,0,response5disk,,2,14,8,1,0,0,rectangle,14,8,1,0,0,14,8,1,0,0,0,34,34,7,1,,,,,,,,
,,,,,,,,,,,,,FF,,,,,,,,0.6459,,,,,,,,,,,,,,,,,,,,,,60fe60dd936bd51ad5938b9f,6103691592396a346169f221,2021-07-29_22h51.28.331,Simcolourproject_2stim_asymm_v5,2020.2.10,Win32,60,61025ae37ef11b136ea224fe,,,,,,,,,2796,-21,-111,1,0,0,response5disk,,3,6,-9,1,0,0,rectangle,6,-9,1,0,0,6,-9,1,0,0,0,35,35,78,1,,,,,,,,
,,,,,,,,,,,,,FF,,,,,,,,1.3542,,,,,,,,,,,,,,,,,,,,,,60fe60dd936bd51ad5938b9f,6103691592396a346169f221,2021-07-29_22h51.28.331,Simcolourproject_2stim_asymm_v5,2020.2.10,Win32,60,61025ae37ef11b136ea224fe,,,,,,,,,3105,-124,37,1,0,0,response7disk,,1,34,13,1,0,0,rectangle,34,13,1,0,0,34,13,1,0,0,0,36,36,146,1,,,,,,,,
,,,,,,,,,,,,,FF,,,,,,,,0.8682,,,,,,,,,,,,,,,,,,,,,,60fe60dd936bd51ad5938b9f,6103691592396a346169f221,2021-07-29_22h51.28.331,Simcolourproject_2stim_asymm_v5,2020.2.10,Win32,60,61025ae37ef11b136ea224fe,,,,,,,,,4300,97,40,1,0,0,response1disk,,6,-6,-11,1,0,0,rectangle,-6,-11,1,0,0,-6,-11,1,0,0,0,37,37,97,1,,,,,,,,
,,,,,,,,,,,,,FF,,,,,,,,1.3057,,,,,,,,,,,,,,,,,,,,,,60fe60dd936bd51ad5938b9f,6103691592396a346169f221,2021-07-29_22h51.28.331,Simcolourproject_2stim_asymm_v5,2020.2.10,Win32,60,61025ae37ef11b136ea224fe,,,,,,,,,2511,55,-73,1,0,0,response3disk,,4,-19,3,1,0,0,rectangle,-19,3,1,0,0,-19,3,1,0,0,0,38,38,45,1,,,,,,,,
,,,,,,,,,,,,,FF,,,,,,,,1.3075,,,,,,,,,,,,,,,,,,,,,,60fe60dd936bd51ad5938b9f,6103691592396a346169f221,2021-07-29_22h51.28.331,Simcolourproject_2stim_asymm_v5,2020.2.10,Win32,60,61025ae37ef11b136ea224fe,,,,,,,,,2599,68,-115,1,0,0,response3disk,,4,27,-2,1,0,0,rectangle,27,-2,1,0,0,27,-2,1,0,0,0,39,39,28,1,,,,,,,,
,,,,,,,,,,,,,FF,,,,,,,,0.8889,,,,,,,,,,,,,,,,,,,,,,60fe60dd936bd51ad5938b9f,6103691592396a346169f221,2021-07-29_22h51.28.331,Simcolourproject_2stim_asymm_v5,2020.2.10,Win32,60,61025ae37ef11b136ea224fe,,,,,,,,,2343,128,36,1,0,0,response1disk,,6,-37,6,1,0,0,rectangle,-37,6,1,0,0,-37,6,1,0,0,0,40,40,81,1,,,,,,,,
,,,,,,,,,,,,,FF,,,,,,,,1.3613,,,,,,,,,,,,,,,,,,,,,,60fe60dd936bd51ad5938b9f,6103691592396a346169f221,2021-07-29_22h51.28.331,Simcolourproject_2stim_asymm_v5,2020.2.10,Win32,60,61025ae37ef11b136ea224fe,,,,,,,,,6,42,-86,1,0,0,response3disk,,4,9,-3,1,0,0,rectangle,111,-61,1,0,0,-26,-1,1,0,0,0,41,41,58,1,,response3disk_3,TRUE,5,5,"[42,221,301,238,304,44,84,305,154,34,269,214,117,233,279,16,94,229,243,205]",4.1529,rectangle
,,,,,,,,,,,,,FF,,,,,,,,2.5018,,,,,,,,,,,,,,,,,,,,,,60fe60dd936bd51ad5938b9f,6103691592396a346169f221,2021-07-29_22h51.28.331,Simcolourproject_2stim_asymm_v5,2020.2.10,Win32,60,61025ae37ef11b136ea224fe,,,,,,,,,664,100,-43,1,0,0,response3disk,,5,19,-4,1,0,0,rectangle,19,-4,1,0,0,19,-4,1,0,0,0,42,42,46,1,,,,,,,,
,,,,,,,,,,,,,FF,,,,,,,,1.4725,,,,,,,,,,,,,,,,,,,,,,60fe60dd936bd51ad5938b9f,6103691592396a346169f221,2021-07-29_22h51.28.331,Simcolourproject_2stim_asymm_v5,2020.2.10,Win32,60,61025ae37ef11b136ea224fe,,,,,,,,,1299,85,-47,1,0,0,response3disk,,5,5,-13,1,0,0,rectangle,101,-50,1,0,0,2,-4,1,0,0,0,43,43,111,1,,response3disk_3,TRUE,5,5,"[42,221,301,238,304,44,84,305,154,34,269,214,117,233,279,16,94,229,243,205]",1.257,rectangle
,,,,,,,,,,,,,FF,,,,,,,,1.0636,,,,,,,,,,,,,,,,,,,,,,60fe60dd936bd51ad5938b9f,6103691592396a346169f221,2021-07-29_22h51.28.331,Simcolourproject_2stim_asymm_v5,2020.2.10,Win32,60,61025ae37ef11b136ea224fe,,,,,,,,,3150,-71,-99,1,0,0,response5disk,,3,-23,-7,1,0,0,rectangle,-23,-7,1,0,0,-23,-7,1,0,0,0,44,44,71,1,,,,,,,,
,,,,,,,,,,,,,FF,,,,,,,,0.8265,,,,,,,,,,,,,,,,,,,,,,60fe60dd936bd51ad5938b9f,6103691592396a346169f221,2021-07-29_22h51.28.331,Simcolourproject_2stim_asymm_v5,2020.2.10,Win32,60,61025ae37ef11b136ea224fe,,,,,,,,,4358,-89,31,1,0,0,response7disk,,1,40,4,1,0,0,rectangle,40,4,1,0,0,40,4,1,0,0,0,45,45,9,1,,,,,,,,
,,,,,,,,,,,,,FF,,,,,,,,0.5835,,,,,,,,,,,,,,,,,,,,,,60fe60dd936bd51ad5938b9f,6103691592396a346169f221,2021-07-29_22h51.28.331,Simcolourproject_2stim_asymm_v5,2020.2.10,Win32,60,61025ae37ef11b136ea224fe,,,,,,,,,1090,108,40,1,0,0,response1disk,,6,4,-21,1,0,0,rectangle,4,-21,1,0,0,4,-21,1,0,0,0,46,46,151,1,,,,,,,,
,,,,,,,,,,,,,FF,,,,,,,,0.6583,,,,,,,,,,,,,,,,,,,,,,60fe60dd936bd51ad5938b9f,6103691592396a346169f221,2021-07-29_22h51.28.331,Simcolourproject_2stim_asymm_v5,2020.2.10,Win32,60,61025ae37ef11b136ea224fe,,,,,,,,,3370,120,-55,1,0,0,response3disk,,5,-27,13,1,0,0,rectangle,-27,13,1,0,0,-27,13,1,0,0,0,47,47,10,1,,,,,,,,
,,,,,,,,,,,,,FF,,,,,,,,0.646,,,,,,,,,,,,,,,,,,,,,,60fe60dd936bd51ad5938b9f,6103691592396a346169f221,2021-07-29_22h51.28.331,Simcolourproject_2stim_asymm_v5,2020.2.10,Win32,60,61025ae37ef11b136ea224fe,,,,,,,,,2200,52,78,1,0,0,response1disk,,7,6,10,1,0,0,rectangle,6,10,1,0,0,6,10,1,0,0,0,48,48,140,1,,,,,,,,
,,,,,,,,,,,,,FF,,,,,,,,0.7157,,,,,,,,,,,,,,,,,,,,,,60fe60dd936bd51ad5938b9f,6103691592396a346169f221,2021-07-29_22h51.28.331,Simcolourproject_2stim_asymm_v5,2020.2.10,Win32,60,61025ae37ef11b136ea224fe,,,,,,,,,226,104,51,1,0,0,response1disk,,6,17,-21,1,0,0,rectangle,17,-21,1,0,0,17,-21,1,0,0,0,49,49,21,1,,,,,,,,
,,,,,,,,,,,,,FF,,,,,,,,0.6892,,,,,,,,,,,,,,,,,,,,,,60fe60dd936bd51ad5938b9f,6103691592396a346169f221,2021-07-29_22h51.28.331,Simcolourproject_2stim_asymm_v5,2020.2.10,Win32,60,61025ae37ef11b136ea224fe,,,,,,,,,1609,-58,157,1,0,0,response7disk,,0,5,-8,1,0,0,rectangle,5,-8,1,0,0,5,-8,1,0,0,0,50,50,98,1,,,,,,,,
,,,,,,,,,,,,,FF,,,,,,,,0.8821,,,,,,,,,,,,,,,,,,,,,,60fe60dd936bd51ad5938b9f,6103691592396a346169f221,2021-07-29_22h51.28.331,Simcolourproject_2stim_asymm_v5,2020.2.10,Win32,60,61025ae37ef11b136ea224fe,,,,,,,,,3320,105,53,1,0,0,response1disk,,6,22,2,1,0,0,rectangle,22,2,1,0,0,22,2,1,0,0,0,51,51,141,1,,,,,,,,
,,,,,,,,,,,,,FF,,,,,,,,0.7848,,,,,,,,,,,,,,,,,,,,,,60fe60dd936bd51ad5938b9f,6103691592396a346169f221,2021-07-29_22h51.28.331,Simcolourproject_2stim_asymm_v5,2020.2.10,Win32,60,61025ae37ef11b136ea224fe,,,,,,,,,3926,-43,-90,1,0,0,response5disk,,3,4,-5,1,0,0,rectangle,4,-5,1,0,0,4,-5,1,0,0,0,52,52,102,1,,,,,,,,
,,,,,,,,,,,,,FF,,,,,,,,0.8141,,,,,,,,,,,,,,,,,,,,,,60fe60dd936bd51ad5938b9f,6103691592396a346169f221,2021-07-29_22h51.28.331,Simcolourproject_2stim_asymm_v5,2020.2.10,Win32,60,61025ae37ef11b136ea224fe,,,,,,,,,3365,126,-50,1,0,0,response3disk,,5,-15,18,1,0,0,rectangle,-15,18,1,0,0,-15,18,1,0,0,0,53,53,30,1,,,,,,,,
,,,,,,,,,,,,,FF,,,,,,,,0.8681,,,,,,,,,,,,,,,,,,,,,,60fe60dd936bd51ad5938b9f,6103691592396a346169f221,2021-07-29_22h51.28.331,Simcolourproject_2stim_asymm_v5,2020.2.10,Win32,60,61025ae37ef11b136ea224fe,,,,,,,,,3253,-34,-128,1,0,0,response5disk,,3,10,-1,1,0,0,rectangle,10,-1,1,0,0,10,-1,1,0,0,0,54,54,126,1,,,,,,,,
,,,,,,,,,,,,,FF,,,,,,,,1.0417,,,,,,,,,,,,,,,,,,,,,,60fe60dd936bd51ad5938b9f,6103691592396a346169f221,2021-07-29_22h51.28.331,Simcolourproject_2stim_asymm_v5,2020.2.10,Win32,60,61025ae37ef11b136ea224fe,,,,,,,,,60,45,-126,1,0,0,response3disk,,4,13,-15,1,0,0,rectangle,13,-15,1,0,0,13,-15,1,0,0,0,55,55,114,1,,,,,,,,
,,,,,,,,,,,,,FF,,,,,,,,0.6043,,,,,,,,,,,,,,,,,,,,,,60fe60dd936bd51ad5938b9f,6103691592396a346169f221,2021-07-29_22h51.28.331,Simcolourproject_2stim_asymm_v5,2020.2.10,Win32,60,61025ae37ef11b136ea224fe,,,,,,,,,3283,-84,-49,1,0,0,response5disk,,2,-21,8,1,0,0,rectangle,-21,8,1,0,0,-21,8,1,0,0,0,56,56,155,1,,,,,,,,
,,,,,,,,,,,,,FF,,,,,,,,0.5277,,,,,,,,,,,,,,,,,,,,,,60fe60dd936bd51ad5938b9f,6103691592396a346169f221,2021-07-29_22h51.28.331,Simcolourproject_2stim_asymm_v5,2020.2.10,Win32,60,61025ae37ef11b136ea224fe,,,,,,,,,2831,-58,126,1,0,0,response7disk,,0,20,4,1,0,0,rectangle,20,4,1,0,0,20,4,1,0,0,0,57,57,138,1,,,,,,,,
,,,,,,,,,,,,,FF,,,,,,,,0.6723,,,,,,,,,,,,,,,,,,,,,,60fe60dd936bd51ad5938b9f,6103691592396a346169f221,2021-07-29_22h51.28.331,Simcolourproject_2stim_asymm_v5,2020.2.10,Win32,60,61025ae37ef11b136ea224fe,,,,,,,,,1012,-41,-102,1,0,0,response5disk,,3,9,4,1,0,0,rectangle,9,4,1,0,0,9,4,1,0,0,0,58,58,137,1,,,,,,,,
,,,,,,,,,,,,,FF,,,,,,,,0.6114,,,,,,,,,,,,,,,,,,,,,,60fe60dd936bd51ad5938b9f,6103691592396a346169f221,2021-07-29_22h51.28.331,Simcolourproject_2stim_asymm_v5,2020.2.10,Win32,60,61025ae37ef11b136ea224fe,,,,,,,,,752,96,-53,1,0,0,response3disk,,5,-8,13,1,0,0,rectangle,-8,13,1,0,0,-8,13,1,0,0,0,59,59,76,1,,,,,,,,
,,,,,,,,,,,,,FF,,,,,,,,0.6737,,,,,,,,,,,,,,,,,,,,,,60fe60dd936bd51ad5938b9f,6103691592396a346169f221,2021-07-29_22h51.28.331,Simcolourproject_2stim_asymm_v5,2020.2.10,Win32,60,61025ae37ef11b136ea224fe,,,,,,,,,1568,111,34,1,0,0,response1disk,,6,-5,-8,1,0,0,rectangle,-5,-8,1,0,0,-5,-8,1,0,0,0,60,60,110,1,,,,,,,,
,,,,,,,,,,,,,FF,,,,,,,,1.0087,,,,,,,,,,,,,,,,,,,,,,60fe60dd936bd51ad5938b9f,6103691592396a346169f221,2021-07-29_22h51.28.331,Simcolourproject_2stim_asymm_v5,2020.2.10,Win32,60,61025ae37ef11b136ea224fe,,,,,,,,,522,73,-101,1,0,0,response3disk,,4,8,-15,1,0,0,rectangle,8,-15,1,0,0,8,-15,1,0,0,0,61,61,41,1,,,,,,,,
,,,,,,,,,,,,,FF,,,,,,,,0.8627,,,,,,,,,,,,,,,,,,,,,,60fe60dd936bd51ad5938b9f,6103691592396a346169f221,2021-07-29_22h51.28.331,Simcolourproject_2stim_asymm_v5,2020.2.10,Win32,60,61025ae37ef11b136ea224fe,,,,,,,,,407,64,102,1,0,0,response1disk,,7,-6,9,1,0,0,rectangle,-6,9,1,0,0,-6,9,1,0,0,0,62,62,105,1,,,,,,,,
,,,,,,,,,,,,,FF,,,,,,,,0.5903,,,,,,,,,,,,,,,,,,,,,,60fe60dd936bd51ad5938b9f,6103691592396a346169f221,2021-07-29_22h51.28.331,Simcolourproject_2stim_asymm_v5,2020.2.10,Win32,60,61025ae37ef11b136ea224fe,,,,,,,,,1809,56,101,1,0,0,response1disk,,7,9,-3,1,0,0,rectangle,9,-3,1,0,0,9,-3,1,0,0,0,63,63,150,1,,,,,,,,
,,,,,,,,,,,,,FF,,,,,,,,0.5555,,,,,,,,,,,,,,,,,,,,,,60fe60dd936bd51ad5938b9f,6103691592396a346169f221,2021-07-29_22h51.28.331,Simcolourproject_2stim_asymm_v5,2020.2.10,Win32,60,61025ae37ef11b136ea224fe,,,,,,,,,2281,53,103,1,0,0,response1disk,,7,13,-1,1,0,0,rectangle,13,-1,1,0,0,13,-1,1,0,0,0,64,64,43,1,,,,,,,,
,,,,,,,,,,,,,FF,,,,,,,,0.625,,,,,,,,,,,,,,,,,,,,,,60fe60dd936bd51ad5938b9f,6103691592396a346169f221,2021-07-29_22h51.28.331,Simcolourproject_2stim_asymm_v5,2020.2.10,Win32,60,61025ae37ef11b136ea224fe,,,,,,,,,3087,50,105,1,0,0,response1disk,,7,-12,-12,1,0,0,rectangle,-12,-12,1,0,0,-12,-12,1,0,0,0,65,65,62,1,,,,,,,,
,,,,,,,,,,,,,FF,,,,,,,,1.2624,,,,,,,,,,,,,,,,,,,,,,60fe60dd936bd51ad5938b9f,6103691592396a346169f221,2021-07-29_22h51.28.331,Simcolourproject_2stim_asymm_v5,2020.2.10,Win32,60,61025ae37ef11b136ea224fe,,,,,,,,,2510,57,107,1,0,0,response1disk,,7,-10,9,1,0,0,rectangle,-10,9,1,0,0,-10,9,1,0,0,0,66,66,29,1,,,,,,,,
,,,,,,,,,,,,,FF,,,,,,,,0.8125,,,,,,,,,,,,,,,,,,,,,,60fe60dd936bd51ad5938b9f,6103691592396a346169f221,2021-07-29_22h51.28.331,Simcolourproject_2stim_asymm_v5,2020.2.10,Win32,60,61025ae37ef11b136ea224fe,,,,,,,,,170,-72,-41,1,0,0,response5disk,,2,5,11,1,0,0,rectangle,5,11,1,0,0,5,11,1,0,0,0,67,67,12,1,,,,,,,,
,,,,,,,,,,,,,FF,,,,,,,,0.5069,,,,,,,,,,,,,,,,,,,,,,60fe60dd936bd51ad5938b9f,6103691592396a346169f221,2021-07-29_22h51.28.331,Simcolourproject_2stim_asymm_v5,2020.2.10,Win32,60,61025ae37ef11b136ea224fe,,,,,,,,,1804,56,124,1,0,0,response1disk,,7,5,4,1,0,0,rectangle,5,4,1,0,0,5,4,1,0,0,0,68,68,2,1,,,,,,,,
,,,,,,,,,,,,,FF,,,,,,,,0.596,,,,,,,,,,,,,,,,,,,,,,60fe60dd936bd51ad5938b9f,6103691592396a346169f221,2021-07-29_22h51.28.331,Simcolourproject_2stim_asymm_v5,2020.2.10,Win32,60,61025ae37ef11b136ea224fe,,,,,,,,,2130,38,103,1,0,0,response1disk,,7,8,0,1,0,0,rectangle,8,0,1,0,0,8,0,1,0,0,0,69,69,139,1,,,,,,,,
,,,,,,,,,,,,,FF,,,,,,,,0.7084,,,,,,,,,,,,,,,,,,,,,,60fe60dd936bd51ad5938b9f,6103691592396a346169f221,2021-07-29_22h51.28.331,Simcolourproject_2stim_asymm_v5,2020.2.10,Win32,60,61025ae37ef11b136ea224fe,,,,,,,,,2969,54,107,1,0,0,response1disk,,7,-9,-12,1,0,0,rectangle,-9,-12,1,0,0,-9,-12,1,0,0,0,70,70,125,1,,,,,,,,
,,,,,,,,,,,,,FF,,,,,,,,0.6945,,,,,,,,,,,,,,,,,,,,,,60fe60dd936bd51ad5938b9f,6103691592396a346169f221,2021-07-29_22h51.28.331,Simcolourproject_2stim_asymm_v5,2020.2.10,Win32,60,61025ae37ef11b136ea224fe,,,,,,,,,1127,54,99,1,0,0,response1disk,,7,-3,4,1,0,0,rectangle,-3,4,1,0,0,-3,4,1,0,0,0,71,71,40,1,,,,,,,,
,,,,,,,,,,,,,FF,,,,,,,,0.4307,,,,,,,,,,,,,,,,,,,,,,60fe60dd936bd51ad5938b9f,6103691592396a346169f221,2021-07-29_22h51.28.331,Simcolourproject_2stim_asymm_v5,2020.2.10,Win32,60,61025ae37ef11b136ea224fe,,,,,,,,,3224,70,93,1,0,0,response1disk,,7,10,0,1,0,0,rectangle,10,0,1,0,0,10,0,1,0,0,0,72,72,90,1,,,,,,,,
,,,,,,,,,,,,,FF,,,,,,,,0.4517,,,,,,,,,,,,,,,,,,,,,,60fe60dd936bd51ad5938b9f,6103691592396a346169f221,2021-07-29_22h51.28.331,Simcolourproject_2stim_asymm_v5,2020.2.10,Win32,60,61025ae37ef11b136ea224fe,,,,,,,,,3270,71,114,1,0,0,response1disk,,7,6,-2,1,0,0,rectangle,6,-2,1,0,0,6,-2,1,0,0,0,73,73,145,1,,,,,,,,
,,,,,,,,,,,,,FF,,,,,,,,1.8181,,,,,,,,,,,,,,,,,,,,,,60fe60dd936bd51ad5938b9f,6103691592396a346169f221,2021-07-29_22h51.28.331,Simcolourproject_2stim_asymm_v5,2020.2.10,Win32,60,61025ae37ef11b136ea224fe,,,,,,,,,2650,99,-52,1,0,0,response3disk,,5,-29,17,1,0,0,rectangle,-29,17,1,0,0,-29,17,1,0,0,0,74,74,17,1,,,,,,,,
,,,,,,,,,,,,,FF,,,,,,,,1.1096,,,,,,,,,,,,,,,,,,,,,,60fe60dd936bd51ad5938b9f,6103691592396a346169f221,2021-07-29_22h51.28.331,Simcolourproject_2stim_asymm_v5,2020.2.10,Win32,60,61025ae37ef11b136ea224fe,,,,,,,,,3837,93,-113,1,0,0,response3disk,,4,20,6,1,0,0,rectangle,20,6,1,0,0,20,6,1,0,0,0,75,75,56,1,,,,,,,,
,,,,,,,,,,,,,FF,,,,,,,,0.5835,,,,,,,,,,,,,,,,,,,,,,60fe60dd936bd51ad5938b9f,6103691592396a346169f221,2021-07-29_22h51.28.331,Simcolourproject_2stim_asymm_v5,2020.2.10,Win32,60,61025ae37ef11b136ea224fe,,,,,,,,,2267,36,92,1,0,0,response1disk,,7,14,-9,1,0,0,rectangle,14,-9,1,0,0,14,-9,1,0,0,0,76,76,104,1,,,,,,,,
,,,,,,,,,,,,,FF,,,,,,,,0.842,,,,,,,,,,,,,,,,,,,,,,60fe60dd936bd51ad5938b9f,6103691592396a346169f221,2021-07-29_22h51.28.331,Simcolourproject_2stim_asymm_v5,2020.2.10,Win32,60,61025ae37ef11b136ea224fe,,,,,,,,,2154,44,86,1,0,0,response1disk,,7,1,-5,1,0,0,rectangle,1,-5,1,0,0,1,-5,1,0,0,0,77,77,142,1,,,,,,,,
,,,,,,,,,,,,,FF,,,,,,,,1.1597,,,,,,,,,,,,,,,,,,,,,,60fe60dd936bd51ad5938b9f,6103691592396a346169f221,2021-07-29_22h51.28.331,Simcolourproject_2stim_asymm_v5,2020.2.10,Win32,60,61025ae37ef11b136ea224fe,,,,,,,,,2622,-55,-111,1,0,0,response5disk,,3,-11,0,1,0,0,rectangle,-11,0,1,0,0,-11,0,1,0,0,0,78,78,31,1,,,,,,,,
,,,,,,,,,,,,,FF,,,,,,,,0.618,,,,,,,,,,,,,,,,,,,,,,60fe60dd936bd51ad5938b9f,6103691592396a346169f221,2021-07-29_22h51.28.331,Simcolourproject_2stim_asymm_v5,2020.2.10,Win32,60,61025ae37ef11b136ea224fe,,,,,,,,,3511,-79,-48,1,0,0,response5disk,,2,-23,7,1,0,0,rectangle,-23,7,1,0,0,-23,7,1,0,0,0,79,79,25,1,,,,,,,,
,,,,,,,,,,,,,FF,,,,,,,,0.8333,,,,,,,,,,,,,,,,,,,,,,60fe60dd936bd51ad5938b9f,6103691592396a346169f221,2021-07-29_22h51.28.331,Simcolourproject_2stim_asymm_v5,2020.2.10,Win32,60,61025ae37ef11b136ea224fe,,,,,,,,,224,143,-45,1,0,0,response3disk,,5,-13,9,1,0,0,rectangle,-13,9,1,0,0,-13,9,1,0,0,0,80,80,36,1,,,,,,,,
,,,,,,,,,,,,,FF,,,,,,,,0.611,,,,,,,,,,,,,,,,,,,,,,60fe60dd936bd51ad5938b9f,6103691592396a346169f221,2021-07-29_22h51.28.331,Simcolourproject_2stim_asymm_v5,2020.2.10,Win32,60,61025ae37ef11b136ea224fe,,,,,,,,,2124,52,109,1,0,0,response1disk,,7,26,-19,1,0,0,rectangle,26,-19,1,0,0,26,-19,1,0,0,0,81,81,131,1,,,,,,,,
,,,,,,,,,,,,,FF,,,,,,,,1.2779,,,,,,,,,,,,,,,,,,,,,,60fe60dd936bd51ad5938b9f,6103691592396a346169f221,2021-07-29_22h51.28.331,Simcolourproject_2stim_asymm_v5,2020.2.10,Win32,60,61025ae37ef11b136ea224fe,,,,,,,,,2030,-96,34,1,0,0,response7disk,,1,17,11,1,0,0,rectangle,17,11,1,0,0,17,11,1,0,0,0,82,82,147,1,,,,,,,,
,,,,,,,,,,,,,FF,,,,,,,,1.439,,,,,,,,,,,,,,,,,,,,,,60fe60dd936bd51ad5938b9f,6103691592396a346169f221,2021-07-29_22h51.28.331,Simcolourproject_2stim_asymm_v5,2020.2.10,Win32,60,61025ae37ef11b136ea224fe,,,,,,,,,1149,-85,-48,1,0,0,response5disk,,2,24,17,1,0,0,rectangle,-72,-119,1,0,0,-9,-6,1,0,0,0,83,83,159,1,,response5disk_3,TRUE,3,3,"[42,221,301,238,304,44,84,305,154,34,269,214,117,233,279,16,94,229,243,205]",2.0209,rectangle
,,,,,,,,,,,,,FF,,,,,,,,0.7569,,,,,,,,,,,,,,,,,,,,,,60fe60dd936bd51ad5938b9f,6103691592396a346169f221,2021-07-29_22h51.28.331,Simcolourproject_2stim_asymm_v5,2020.2.10,Win32,60,61025ae37ef11b136ea224fe,,,,,,,,,4335,-108,29,1,0,0,response7disk,,1,0,-13,1,0,0,rectangle,0,-13,1,0,0,0,-13,1,0,0,0,84,84,80,1,,,,,,,,
,,,,,,,,,,,,,FF,,,,,,,,0.6042,,,,,,,,,,,,,,,,,,,,,,60fe60dd936bd51ad5938b9f,6103691592396a346169f221,2021-07-29_22h51.28.331,Simcolourproject_2stim_asymm_v5,2020.2.10,Win32,60,61025ae37ef11b136ea224fe,,,,,,,,,20,123,40,1,0,0,response1disk,,6,21,-17,1,0,0,rectangle,21,-17,1,0,0,21,-17,1,0,0,0,85,85,156,1,,,,,,,,
,,,,,,,,,,,,,FF,,,,,,,,0.9999,,,,,,,,,,,,,,,,,,,,,,60fe60dd936bd51ad5938b9f,6103691592396a346169f221,2021-07-29_22h51.28.331,Simcolourproject_2stim_asymm_v5,2020.2.10,Win32,60,61025ae37ef11b136ea224fe,,,,,,,,,2114,35,81,1,0,0,response1disk,,7,-9,0,1,0,0,rectangle,-9,0,1,0,0,-9,0,1,0,0,0,86,86,13,1,,,,,,,,
,,,,,,,,,,,,,FF,,,,,,,,0.3195,,,,,,,,,,,,,,,,,,,,,,60fe60dd936bd51ad5938b9f,6103691592396a346169f221,2021-07-29_22h51.28.331,Simcolourproject_2stim_asymm_v5,2020.2.10,Win32,60,61025ae37ef11b136ea224fe,,,,,,,,,2484,66,94,1,0,0,response1disk,,7,5,8,1,0,0,rectangle,5,8,1,0,0,5,8,1,0,0,0,87,87,16,1,,,,,,,,
,,,,,,,,,,,,,FF,,,,,,,,0.4722,,,,,,,,,,,,,,,,,,,,,,60fe60dd936bd51ad5938b9f,6103691592396a346169f221,2021-07-29_22h51.28.331,Simcolourproject_2stim_asymm_v5,2020.2.10,Win32,60,61025ae37ef11b136ea224fe,,,,,,,,,1332,32,102,1,0,0,response1disk,,7,-4,10,1,0,0,rectangle,-4,10,1,0,0,-4,10,1,0,0,0,88,88,112,1,,,,,,,,
,,,,,,,,,,,,,FF,,,,,,,,0.3958,,,,,,,,,,,,,,,,,,,,,,60fe60dd936bd51ad5938b9f,6103691592396a346169f221,2021-07-29_22h51.28.331,Simcolourproject_2stim_asymm_v5,2020.2.10,Win32,60,61025ae37ef11b136ea224fe,,,,,,,,,3581,44,95,1,0,0,response1disk,,7,11,-13,1,0,0,rectangle,11,-13,1,0,0,11,-13,1,0,0,0,89,89,128,1,,,,,,,,
,,,,,,,,,,,,,FF,,,,,,,,0.6738,,,,,,,,,,,,,,,,,,,,,,60fe60dd936bd51ad5938b9f,6103691592396a346169f221,2021-07-29_22h51.28.331,Simcolourproject_2stim_asymm_v5,2020.2.10,Win32,60,61025ae37ef11b136ea224fe,,,,,,,,,1197,88,-39,1,0,0,response3disk,,5,7,14,1,0,0,rectangle,7,14,1,0,0,7,14,1,0,0,0,90,90,54,1,,,,,,,,
,,,,,,,,,,,,,FF,,,,,,,,0.6266,,,,,,,,,,,,,,,,,,,,,,60fe60dd936bd51ad5938b9f,6103691592396a346169f221,2021-07-29_22h51.28.331,Simcolourproject_2stim_asymm_v5,2020.2.10,Win32,60,61025ae37ef11b136ea224fe,,,,,,,,,78,-96,-47,1,0,0,response5disk,,2,-9,12,1,0,0,rectangle,-9,12,1,0,0,-9,12,1,0,0,0,91,91,93,1,,,,,,,,
,,,,,,,,,,,,,FF,,,,,,,,1.0294,,,,,,,,,,,,,,,,,,,,,,60fe60dd936bd51ad5938b9f,6103691592396a346169f221,2021-07-29_22h51.28.331,Simcolourproject_2stim_asymm_v5,2020.2.10,Win32,60,61025ae37ef11b136ea224fe,,,,,,,,,851,132,-59,1,0,0,response3disk,,5,24,19,1,0,0,rectangle,24,19,1,0,0,24,19,1,0,0,0,92,92,61,1,,,,,,,,
,,,,,,,,,,,,,FF,,,,,,,,1.2638,,,,,,,,,,,,,,,,,,,,,,60fe60dd936bd51ad5938b9f,6103691592396a346169f221,2021-07-29_22h51.28.331,Simcolourproject_2stim_asymm_v5,2020.2.10,Win32,60,61025ae37ef11b136ea224fe,,,,,,,,,1285,-51,-126,1,0,0,response5disk,,3,4,0,1,0,0,rectangle,-50,105,1,0,0,2,3,1,0,0,0,93,93,133,1,,response7disk_3,TRUE,0,0,"[42,221,301,238,304,44,84,305,154,34,269,214,117,233,279,16,94,229,243,205]",1.653,rectangle
,,,,,,,,,,,,,FF,,,,,,,,0.9862,,,,,,,,,,,,,,,,,,,,,,60fe60dd936bd51ad5938b9f,6103691592396a346169f221,2021-07-29_22h51.28.331,Simcolourproject_2stim_asymm_v5,2020.2.10,Win32,60,61025ae37ef11b136ea224fe,,,,,,,,,4129,-90,-34,1,0,0,response5disk,,2,8,12,1,0,0,rectangle,8,12,1,0,0,8,12,1,0,0,0,94,94,130,1,,,,,,,,
,,,,,,,,,,,,,FF,,,,,,,,1.2644,,,,,,,,,,,,,,,,,,,,,,60fe60dd936bd51ad5938b9f,6103691592396a346169f221,2021-07-29_22h51.28.331,Simcolourproject_2stim_asymm_v5,2020.2.10,Win32,60,61025ae37ef11b136ea224fe,,,,,,,,,694,106,-50,1,0,0,response3disk,,5,-17,-1,1,0,0,rectangle,-17,-1,1,0,0,-17,-1,1,0,0,0,95,95,57,1,,,,,,,,
,,,,,,,,,,,,,FF,,,,,,,,0.9385,,,,,,,,,,,,,,,,,,,,,,60fe60dd936bd51ad5938b9f,6103691592396a346169f221,2021-07-29_22h51.28.331,Simcolourproject_2stim_asymm_v5,2020.2.10,Win32,60,61025ae37ef11b136ea224fe,,,,,,,,,2144,150,-52,1,0,0,response3disk,,5,14,0,1,0,0,rectangle,14,0,1,0,0,14,0,1,0,0,0,96,96,15,1,,,,,,,,
,,,,,,,,,,,,,FF,,,,,,,,0.6388,,,,,,,,,,,,,,,,,,,,,,60fe60dd936bd51ad5938b9f,6103691592396a346169f221,2021-07-29_22h51.28.331,Simcolourproject_2stim_asymm_v5,2020.2.10,Win32,60,61025ae37ef11b136ea224fe,,,,,,,,,2096,-87,-55,1,0,0,response5disk,,2,-5,5,1,0,0,rectangle,-5,5,1,0,0,-5,5,1,0,0,0,97,97,123,1,,,,,,,,
,,,,,,,,,,,,,FF,,,,,,,,0.7,,,,,,,,,,,,,,,,,,,,,,60fe60dd936bd51ad5938b9f,6103691592396a346169f221,2021-07-29_22h51.28.331,Simcolourproject_2stim_asymm_v5,2020.2.10,Win32,60,61025ae37ef11b136ea224fe,,,,,,,,,3392,-112,57,1,0,0,response7disk,,1,-6,-6,1,0,0,rectangle,-6,-6,1,0,0,-6,-6,1,0,0,0,98,98,48,1,,,,,,,,
,,,,,,,,,,,,,FF,,,,,,,,1.0833,,,,,,,,,,,,,,,,,,,,,,60fe60dd936bd51ad5938b9f,6103691592396a346169f221,2021-07-29_22h51.28.331,Simcolourproject_2stim_asymm_v5,2020.2.10,Win32,60,61025ae37ef11b136ea224fe,,,,,,,,,1062,53,-98,1,0,0,response3disk,,4,-10,-17,1,0,0,rectangle,-10,-17,1,0,0,-10,-17,1,0,0,0,99,99,5,1,,,,,,,,
,,,,,,,,,,,,,FF,,,,,,,,1.1964,,,,,,,,,,,,,,,,,,,,,,60fe60dd936bd51ad5938b9f,6103691592396a346169f221,2021-07-29_22h51.28.331,Simcolourproject_2stim_asymm_v5,2020.2.10,Win32,60,61025ae37ef11b136ea224fe,,,,,,,,,2874,117,-58,1,0,0,response3disk,,5,11,14,1,0,0,rectangle,11,14,1,0,0,11,14,1,0,0,0,100,100,107,1,,,,,,,,
,,,,,,,,,,,,,FF,,,,,,,,0.9046,,,,,,,,,,,,,,,,,,,,,,60fe60dd936bd51ad5938b9f,6103691592396a346169f221,2021-07-29_22h51.28.331,Simcolourproject_2stim_asymm_v5,2020.2.10,Win32,60,61025ae37ef11b136ea224fe,,,,,,,,,3026,127,34,1,0,0,response1disk,,6,-3,-16,1,0,0,rectangle,-3,-16,1,0,0,-3,-16,1,0,0,0,101,101,39,1,,,,,,,,
,,,,,,,,,,,,,FF,,,,,,,,0.4465,,,,,,,,,,,,,,,,,,,,,,60fe60dd936bd51ad5938b9f,6103691592396a346169f221,2021-07-29_22h51.28.331,Simcolourproject_2stim_asymm_v5,2020.2.10,Win32,60,61025ae37ef11b136ea224fe,,,,,,,,,1016,51,111,1,0,0,response1disk,,7,-20,-2,1,0,0,rectangle,-20,-2,1,0,0,-20,-2,1,0,0,0,102,102,53,1,,,,,,,,
,,,,,,,,,,,,,FF,,,,,,,,0.9516,,,,,,,,,,,,,,,,,,,,,,60fe60dd936bd51ad5938b9f,6103691592396a346169f221,2021-07-29_22h51.28.331,Simcolourproject_2stim_asymm_v5,2020.2.10,Win32,60,61025ae37ef11b136ea224fe,,,,,,,,,1424,61,-119,1,0,0,response3disk,,4,24,3,1,0,0,rectangle,24,3,1,0,0,24,3,1,0,0,0,103,103,73,1,,,,,,,,
,,,,,,,,,,,,,FF,,,,,,,,0.9514,,,,,,,,,,,,,,,,,,,,,,60fe60dd936bd51ad5938b9f,6103691592396a346169f221,2021-07-29_22h51.28.331,Simcolourproject_2stim_asymm_v5,2020.2.10,Win32,60,61025ae37ef11b136ea224fe,,,,,,,,,147,120,35,1,0,0,response1disk,,6,4,-4,1,0,0,rectangle,4,-4,1,0,0,4,-4,1,0,0,0,104,104,23,1,,,,,,,,
,,,,,,,,,,,,,FF,,,,,,,,0.4793,,,,,,,,,,,,,,,,,,,,,,60fe60dd936bd51ad5938b9f,6103691592396a346169f221,2021-07-29_22h51.28.331,Simcolourproject_2stim_asymm_v5,2020.2.10,Win32,60,61025ae37ef11b136ea224fe,,,,,,,,,1492,54,110,1,0,0,response1disk,,7,3,-15,1,0,0,rectangle,3,-15,1,0,0,3,-15,1,0,0,0,105,105,86,1,,,,,,,,
,,,,,,,,,,,,,FF,,,,,,,,0.4999,,,,,,,,,,,,,,,,,,,,,,60fe60dd936bd51ad5938b9f,6103691592396a346169f221,2021-07-29_22h51.28.331,Simcolourproject_2stim_asymm_v5,2020.2.10,Win32,60,61025ae37ef11b136ea224fe,,,,,,,,,3012,49,77,1,0,0,response1disk,,7,21,3,1,0,0,rectangle,21,3,1,0,0,21,3,1,0,0,0,106,106,121,1,,,,,,,,
,,,,,,,,,,,,,FF,,,,,,,,0.2987,,,,,,,,,,,,,,,,,,,,,,60fe60dd936bd51ad5938b9f,6103691592396a346169f221,2021-07-29_22h51.28.331,Simcolourproject_2stim_asymm_v5,2020.2.10,Win32,60,61025ae37ef11b136ea224fe,,,,,,,,,3924,58,96,1,0,0,response1disk,,7,-2,-11,1,0,0,rectangle,-2,-11,1,0,0,-2,-11,1,0,0,0,107,107,154,1,,,,,,,,
,,,,,,,,,,,,,FF,,,,,,,,1.2905,,,,,,,,,,,,,,,,,,,,,,60fe60dd936bd51ad5938b9f,6103691592396a346169f221,2021-07-29_22h51.28.331,Simcolourproject_2stim_asymm_v5,2020.2.10,Win32,60,61025ae37ef11b136ea224fe,,,,,,,,,1152,-41,-91,1,0,0,response5disk,,3,18,6,1,0,0,rectangle,18,6,1,0,0,18,6,1,0,0,0,108,108,60,1,,,,,,,,
,,,,,,,,,,,,,FF,,,,,,,,1.0626,,,,,,,,,,,,,,,,,,,,,,60fe60dd936bd51ad5938b9f,6103691592396a346169f221,2021-07-29_22h51.28.331,Simcolourproject_2stim_asymm_v5,2020.2.10,Win32,60,61025ae37ef11b136ea224fe,,,,,,,,,2795,117,-44,1,0,0,response3disk,,5,-16,4,1,0,0,rectangle,-16,4,1,0,0,-16,4,1,0,0,0,109,109,37,1,,,,,,,,
,,,,,,,,,,,,,FF,,,,,,,,1.0348,,,,,,,,,,,,,,,,,,,,,,60fe60dd936bd51ad5938b9f,6103691592396a346169f221,2021-07-29_22h51.28.331,Simcolourproject_2stim_asymm_v5,2020.2.10,Win32,60,61025ae37ef11b136ea224fe,,,,,,,,,3328,-103,-70,1,0,0,response5disk,,2,-5,-7,1,0,0,rectangle,-5,-7,1,0,0,-5,-7,1,0,0,0,110,110,77,1,,,,,,,,
,,,,,,,,,,,,,FF,,,,,,,,0.8472,,,,,,,,,,,,,,,,,,,,,,60fe60dd936bd51ad5938b9f,6103691592396a346169f221,2021-07-29_22h51.28.331,Simcolourproject_2stim_asymm_v5,2020.2.10,Win32,60,61025ae37ef11b136ea224fe,,,,,,,,,620,-118,49,1,0,0,response7disk,,1,-25,0,1,0,0,rectangle,-25,0,1,0,0,-25,0,1,0,0,0,111,111,70,1,,,,,,,,
,,,,,,,,,,,,,FF,,,,,,,,0.6931,,,,,,,,,,,,,,,,,,,,,,60fe60dd936bd51ad5938b9f,6103691592396a346169f221,2021-07-29_22h51.28.331,Simcolourproject_2stim_asymm_v5,2020.2.10,Win32,60,61025ae37ef11b136ea224fe,,,,,,,,,1958,-94,40,1,0,0,response7disk,,1,-4,-21,1,0,0,rectangle,-4,-21,1,0,0,-4,-21,1,0,0,0,112,112,27,1,,,,,,,,
,,,,,,,,,,,,,FF,,,,,,,,0.4722,,,,,,,,,,,,,,,,,,,,,,60fe60dd936bd51ad5938b9f,6103691592396a346169f221,2021-07-29_22h51.28.331,Simcolourproject_2stim_asymm_v5,2020.2.10,Win32,60,61025ae37ef11b136ea224fe,,,,,,,,,3995,-74,41,1,0,0,response7disk,,1,-19,-1,1,0,0,rectangle,-19,-1,1,0,0,-19,-1,1,0,0,0,113,113,59,1,,,,,,,,
,,,,,,,,,,,,,FF,,,,,,,,0.7848,,,,,,,,,,,,,,,,,,,,,,60fe60dd936bd51ad5938b9f,6103691592396a346169f221,2021-07-29_22h51.28.331,Simcolourproject_2stim_asymm_v5,2020.2.10,Win32,60,61025ae37ef11b136ea224fe,,,,,,,,,3334,123,42,1,0,0,response1disk,,6,11,1,1,0,0,rectangle,11,1,1,0,0,11,1,1,0,0,0,114,114,35,1,,,,,,,,
,,,,,,,,,,,,,FF,,,,,,,,0.8404,,,,,,,,,,,,,,,,,,,,,,60fe60dd936bd51ad5938b9f,6103691592396a346169f221,2021-07-29_22h51.28.331,Simcolourproject_2stim_asymm_v5,2020.2.10,Win32,60,61025ae37ef11b136ea224fe,,,,,,,,,4004,126,-34,1,0,0,response3disk,,5,-4,10,1,0,0,rectangle,-4,10,1,0,0,-4,10,1,0,0,0,115,115,26,1,,,,,,,,
,,,,,,,,,,,,,FF,,,,,,,,0.5973,,,,,,,,,,,,,,,,,,,,,,60fe60dd936bd51ad5938b9f,6103691592396a346169f221,2021-07-29_22h51.28.331,Simcolourproject_2stim_asymm_v5,2020.2.10,Win32,60,61025ae37ef11b136ea224fe,,,,,,,,,1356,90,-41,1,0,0,response3disk,,5,-4,7,1,0,0,rectangle,80,-35,1,0,0,2,6.5,1,0,0,0,116,116,82,1,,response3disk_3,TRUE,5,5,"[42,221,301,238,304,44,84,305,154,34,269,214,117,233,279,16,94,229,243,205]",1.8403,rectangle
,,,,,,,,,,,,,FF,,,,,,,,1.4654,,,,,,,,,,,,,,,,,,,,,,60fe60dd936bd51ad5938b9f,6103691592396a346169f221,2021-07-29_22h51.28.331,Simcolourproject_2stim_asymm_v5,2020.2.10,Win32,60,61025ae37ef11b136ea224fe,,,,,,,,,416,-66,-111.5,1,0,0,response5disk,,3,4,-11.5,1,0,0,rectangle,4,-11.5,1,0,0,4,-11.5,1,0,0,0,117,117,85,1,,,,,,,,
,,,,,,,,,,,,,FF,,,,,,,,0.6598,,,,,,,,,,,,,,,,,,,,,,60fe60dd936bd51ad5938b9f,6103691592396a346169f221,2021-07-29_22h51.28.331,Simcolourproject_2stim_asymm_v5,2020.2.10,Win32,60,61025ae37ef11b136ea224fe,,,,,,,,,15,-63,-120.5,1,0,0,response5disk,,3,-15,-9.5,1,0,0,rectangle,-15,-9.5,1,0,0,-15,-9.5,1,0,0,0,118,118,50,1,,,,,,,,
,,,,,,,,,,,,,FF,,,,,,,,1.0209,,,,,,,,,,,,,,,,,,,,,,60fe60dd936bd51ad5938b9f,6103691592396a346169f221,2021-07-29_22h51.28.331,Simcolourproject_2stim_asymm_v5,2020.2.10,Win32,60,61025ae37ef11b136ea224fe,,,,,,,,,2907,46,-123.5,1,0,0,response3disk,,4,14,3.5,1,0,0,rectangle,14,3.5,1,0,0,14,3.5,1,0,0,0,119,119,52,1,,,,,,,,
,,,,,,,,,,,,,FF,,,,,,,,0.8747,,,,,,,,,,,,,,,,,,,,,,60fe60dd936bd51ad5938b9f,6103691592396a346169f221,2021-07-29_22h51.28.331,Simcolourproject_2stim_asymm_v5,2020.2.10,Win32,60,61025ae37ef11b136ea224fe,,,,,,,,,3199,-108,-49.5,1,0,0,response5disk,,2,-20,-3.5,1,0,0,rectangle,-20,-3.5,1,0,0,-20,-3.5,1,0,0,0,120,120,22,1,,,,,,,,
,,,,,,,,,,,,,FF,,,,,,,,1.2432,,,,,,,,,,,,,,,,,,,,,,60fe60dd936bd51ad5938b9f,6103691592396a346169f221,2021-07-29_22h51.28.331,Simcolourproject_2stim_asymm_v5,2020.2.10,Win32,60,61025ae37ef11b136ea224fe,,,,,,,,,57,117,-60.5,1,0,0,response3disk,,5,-1,-4.5,1,0,0,rectangle,-1,-4.5,1,0,0,-1,-4.5,1,0,0,0,121,121,49,1,,,,,,,,
,,,,,,,,,,,,,FF,,,,,,,,2.7224,,,,,,,,,,,,,,,,,,,,,,60fe60dd936bd51ad5938b9f,6103691592396a346169f221,2021-07-29_22h51.28.331,Simcolourproject_2stim_asymm_v5,2020.2.10,Win32,60,61025ae37ef11b136ea224fe,,,,,,,,,626,-62,-128.5,1,0,0,response5disk,,3,-6,1.5,1,0,0,rectangle,-6,1.5,1,0,0,-6,1.5,1,0,0,0,122,122,44,1,,,,,,,,
,,,,,,,,,,,,,FF,,,,,,,,0.9167,,,,,,,,,,,,,,,,,,,,,,60fe60dd936bd51ad5938b9f,6103691592396a346169f221,2021-07-29_22h51.28.331,Simcolourproject_2stim_asymm_v5,2020.2.10,Win32,60,61025ae37ef11b136ea224fe,,,,,,,,,1964,-94,45.5,1,0,0,response7disk,,1,3,-8.5,1,0,0,rectangle,3,-8.5,1,0,0,3,-8.5,1,0,0,0,123,123,74,1,,,,,,,,
,,,,,,,,,,,,,FF,,,,,,,,1.0347,,,,,,,,,,,,,,,,,,,,,,60fe60dd936bd51ad5938b9f,6103691592396a346169f221,2021-07-29_22h51.28.331,Simcolourproject_2stim_asymm_v5,2020.2.10,Win32,60,61025ae37ef11b136ea224fe,,,,,,,,,799,114,-51.5,1,0,0,response3disk,,5,-1,3.5,1,0,0,rectangle,-1,3.5,1,0,0,-1,3.5,1,0,0,0,124,124,79,1,,,,,,,,
,,,,,,,,,,,,,FF,,,,,,,,0.7152,,,,,,,,,,,,,,,,,,,,,,60fe60dd936bd51ad5938b9f,6103691592396a346169f221,2021-07-29_22h51.28.331,Simcolourproject_2stim_asymm_v5,2020.2.10,Win32,60,61025ae37ef11b136ea224fe,,,,,,,,,1978,42,-125.5,1,0,0,response3disk,,4,0,-14.5,1,0,0,rectangle,0,-14.5,1,0,0,0,-14.5,1,0,0,0,125,125,127,1,,,,,,,,
,,,,,,,,,,,,,FF,,,,,,,,1.2223,,,,,,,,,,,,,,,,,,,,,,60fe60dd936bd51ad5938b9f,6103691592396a346169f221,2021-07-29_22h51.28.331,Simcolourproject_2stim_asymm_v5,2020.2.10,Win32,60,61025ae37ef11b136ea224fe,,,,,,,,,408,-53,-106.5,1,0,0,response5disk,,3,12,5.5,1,0,0,rectangle,12,5.5,1,0,0,12,5.5,1,0,0,0,126,126,119,1,,,,,,,,
,,,,,,,,,,,,,FF,,,,,,,,1.1946,,,,,,,,,,,,,,,,,,,,,,60fe60dd936bd51ad5938b9f,6103691592396a346169f221,2021-07-29_22h51.28.331,Simcolourproject_2stim_asymm_v5,2020.2.10,Win32,60,61025ae37ef11b136ea224fe,,,,,,,,,3483,-61,-137.5,1,0,0,response5disk,,3,14,-5.5,1,0,0,rectangle,14,-5.5,1,0,0,14,-5.5,1,0,0,0,127,127,14,1,,,,,,,,
,,,,,,,,,,,,,FF,,,,,,,,1.2915,,,,,,,,,,,,,,,,,,,,,,60fe60dd936bd51ad5938b9f,6103691592396a346169f221,2021-07-29_22h51.28.331,Simcolourproject_2stim_asymm_v5,2020.2.10,Win32,60,61025ae37ef11b136ea224fe,,,,,,,,,2683,-68,-132.5,1,0,0,response5disk,,3,-20,-1.5,1,0,0,rectangle,-20,-1.5,1,0,0,-20,-1.5,1,0,0,0,128,128,38,1,,,,,,,,
,,,,,,,,,,,,,FF,,,,,,,,1.014,,,,,,,,,,,,,,,,,,,,,,60fe60dd936bd51ad5938b9f,6103691592396a346169f221,2021-07-29_22h51.28.331,Simcolourproject_2stim_asymm_v5,2020.2.10,Win32,60,61025ae37ef11b136ea224fe,,,,,,,,,1567,109,-59.5,1,0,0,response3disk,,5,0,11.5,1,0,0,rectangle,0,11.5,1,0,0,0,11.5,1,0,0,0,129,129,63,1,,,,,,,,
,,,,,,,,,,,,,FF,,,,,,,,0.9583,,,,,,,,,,,,,,,,,,,,,,60fe60dd936bd51ad5938b9f,6103691592396a346169f221,2021-07-29_22h51.28.331,Simcolourproject_2stim_asymm_v5,2020.2.10,Win32,60,61025ae37ef11b136ea224fe,,,,,,,,,251,38,-126.5,1,0,0,response3disk,,4,6,-0.5,1,0,0,rectangle,6,-0.5,1,0,0,6,-0.5,1,0,0,0,130,130,101,1,,,,,,,,
,,,,,,,,,,,,,FF,,,,,,,,1.014,,,,,,,,,,,,,,,,,,,,,,60fe60dd936bd51ad5938b9f,6103691592396a346169f221,2021-07-29_22h51.28.331,Simcolourproject_2stim_asymm_v5,2020.2.10,Win32,60,61025ae37ef11b136ea224fe,,,,,,,,,1532,-62,-127.5,1,0,0,response5disk,,3,0,-8.5,1,0,0,rectangle,0,-8.5,1,0,0,0,-8.5,1,0,0,0,131,131,4,1,,,,,,,,
,,,,,,,,,,,,,FF,,,,,,,,1.2083,,,,,,,,,,,,,,,,,,,,,,60fe60dd936bd51ad5938b9f,6103691592396a346169f221,2021-07-29_22h51.28.331,Simcolourproject_2stim_asymm_v5,2020.2.10,Win32,60,61025ae37ef11b136ea224fe,,,,,,,,,3805,-55,-145.5,1,0,0,response5disk,,3,7,11.5,1,0,0,rectangle,7,11.5,1,0,0,7,11.5,1,0,0,0,132,132,18,1,,,,,,,,
,,,,,,,,,,,,,FF,,,,,,,,0.9375,,,,,,,,,,,,,,,,,,,,,,60fe60dd936bd51ad5938b9f,6103691592396a346169f221,2021-07-29_22h51.28.331,Simcolourproject_2stim_asymm_v5,2020.2.10,Win32,60,61025ae37ef11b136ea224fe,,,,,,,,,1041,130,-52.5,1,0,0,response3disk,,5,-22,2.5,1,0,0,rectangle,-22,2.5,1,0,0,-22,2.5,1,0,0,0,133,133,117,1,,,,,,,,
,,,,,,,,,,,,,FF,,,,,,,,1.1251,,,,,,,,,,,,,,,,,,,,,,60fe60dd936bd51ad5938b9f,6103691592396a346169f221,2021-07-29_22h51.28.331,Simcolourproject_2stim_asymm_v5,2020.2.10,Win32,60,61025ae37ef11b136ea224fe,,,,,,,,,2341,-59,-146.5,1,0,0,response5disk,,3,-23,7.5,1,0,0,rectangle,-23,7.5,1,0,0,-23,7.5,1,0,0,0,134,134,72,1,,,,,,,,
,,,,,,,,,,,,,FF,,,,,,,,1.0694,,,,,,,,,,,,,,,,,,,,,,60fe60dd936bd51ad5938b9f,6103691592396a346169f221,2021-07-29_22h51.28.331,Simcolourproject_2stim_asymm_v5,2020.2.10,Win32,60,61025ae37ef11b136ea224fe,,,,,,,,,1154,111,-66.5,1,0,0,response3disk,,5,9,1.5,1,0,0,rectangle,9,1.5,1,0,0,9,1.5,1,0,0,0,135,135,33,1,,,,,,,,
,,,,,,,,,,,,,FF,,,,,,,,0.8611,,,,,,,,,,,,,,,,,,,,,,60fe60dd936bd51ad5938b9f,6103691592396a346169f221,2021-07-29_22h51.28.331,Simcolourproject_2stim_asymm_v5,2020.2.10,Win32,60,61025ae37ef11b136ea224fe,,,,,,,,,3347,63,-117.5,1,0,0,response3disk,,4,-6,14.5,1,0,0,rectangle,-6,14.5,1,0,0,-6,14.5,1,0,0,0,136,136,19,1,,,,,,,,
,,,,,,,,,,,,,FF,,,,,,,,1.9305,,,,,,,,,,,,,,,,,,,,,,60fe60dd936bd51ad5938b9f,6103691592396a346169f221,2021-07-29_22h51.28.331,Simcolourproject_2stim_asymm_v5,2020.2.10,Win32,60,61025ae37ef11b136ea224fe,,,,,,,,,2195,-48,-126.5,1,0,0,response5disk,,3,-13,-5.5,1,0,0,rectangle,-13,-5.5,1,0,0,-13,-5.5,1,0,0,0,137,137,143,1,,,,,,,,
,,,,,,,,,,,,,FF,,,,,,,,1.132,,,,,,,,,,,,,,,,,,,,,,60fe60dd936bd51ad5938b9f,6103691592396a346169f221,2021-07-29_22h51.28.331,Simcolourproject_2stim_asymm_v5,2020.2.10,Win32,60,61025ae37ef11b136ea224fe,,,,,,,,,442,-94,39.5,1,0,0,response7disk,,1,0,-6.5,1,0,0,rectangle,0,-6.5,1,0,0,0,-6.5,1,0,0,0,138,138,91,1,,,,,,,,
,,,,,,,,,,,,,FF,,,,,,,,1.1185,,,,,,,,,,,,,,,,,,,,,,60fe60dd936bd51ad5938b9f,6103691592396a346169f221,2021-07-29_22h51.28.331,Simcolourproject_2stim_asymm_v5,2020.2.10,Win32,60,61025ae37ef11b136ea224fe,,,,,,,,,4199,-44,-105.5,1,0,0,response5disk,,3,12,1.5,1,0,0,rectangle,12,1.5,1,0,0,12,1.5,1,0,0,0,139,139,24,1,,,,,,,,
,,,,,,,,,,,,,FF,,,,,,,,0.6454,,,,,,,,,,,,,,,,,,,,,,60fe60dd936bd51ad5938b9f,6103691592396a346169f221,2021-07-29_22h51.28.331,Simcolourproject_2stim_asymm_v5,2020.2.10,Win32,60,61025ae37ef11b136ea224fe,,,,,,,,,4366,-133,77.5,1,0,0,response7disk,,1,5,-1.5,1,0,0,rectangle,5,-1.5,1,0,0,5,-1.5,1,0,0,0,140,140,75,1,,,,,,,,
,,,,,,,,,,,,,FF,,,,,,,,0.6112,,,,,,,,,,,,,,,,,,,,,,60fe60dd936bd51ad5938b9f,6103691592396a346169f221,2021-07-29_22h51.28.331,Simcolourproject_2stim_asymm_v5,2020.2.10,Win32,60,61025ae37ef11b136ea224fe,,,,,,,,,1212,-104,29.5,1,0,0,response7disk,,1,-10,4.5,1,0,0,rectangle,-10,4.5,1,0,0,-10,4.5,1,0,0,0,141,141,42,1,,,,,,,,
,,,,,,,,,,,,,FF,,,,,,,,0.9586,,,,,,,,,,,,,,,,,,,,,,60fe60dd936bd51ad5938b9f,6103691592396a346169f221,2021-07-29_22h51.28.331,Simcolourproject_2stim_asymm_v5,2020.2.10,Win32,60,61025ae37ef11b136ea224fe,,,,,,,,,1069,-122,-54.5,1,0,0,response5disk,,2,9,15.5,1,0,0,rectangle,9,15.5,1,0,0,9,15.5,1,0,0,0,142,142,6,1,,,,,,,,
,,,,,,,,,,,,,FF,,,,,,,,0.5207,,,,,,,,,,,,,,,,,,,,,,60fe60dd936bd51ad5938b9f,6103691592396a346169f221,2021-07-29_22h51.28.331,Simcolourproject_2stim_asymm_v5,2020.2.10,Win32,60,61025ae37ef11b136ea224fe,,,,,,,,,2052,97,-39.5,1,0,0,response3disk,,5,-8,9.5,1,0,0,rectangle,-8,9.5,1,0,0,-8,9.5,1,0,0,0,143,143,66,1,,,,,,,,
,,,,,,,,,,,,,FF,,,,,,,,0.7638,,,,,,,,,,,,,,,,,,,,,,60fe60dd936bd51ad5938b9f,6103691592396a346169f221,2021-07-29_22h51.28.331,Simcolourproject_2stim_asymm_v5,2020.2.10,Win32,60,61025ae37ef11b136ea224fe,,,,,,,,,511,129,-55.5,1,0,0,response3disk,,5,-15,12.5,1,0,0,rectangle,-15,12.5,1,0,0,-15,12.5,1,0,0,0,144,144,83,1,,,,,,,,
,,,,,,,,,,,,,FF,,,,,,,,0.5556,,,,,,,,,,,,,,,,,,,,,,60fe60dd936bd51ad5938b9f,6103691592396a346169f221,2021-07-29_22h51.28.331,Simcolourproject_2stim_asymm_v5,2020.2.10,Win32,60,61025ae37ef11b136ea224fe,,,,,,,,,2316,-34,-113.5,1,0,0,response5disk,,3,19,-4.5,1,0,0,rectangle,19,-4.5,1,0,0,19,-4.5,1,0,0,0,145,145,120,1,,,,,,,,
,,,,,,,,,,,,,FF,,,,,,,,0.6595,,,,,,,,,,,,,,,,,,,,,,60fe60dd936bd51ad5938b9f,6103691592396a346169f221,2021-07-29_22h51.28.331,Simcolourproject_2stim_asymm_v5,2020.2.10,Win32,60,61025ae37ef11b136ea224fe,,,,,,,,,84,119,66.5,1,0,0,response1disk,,6,-8,7.5,1,0,0,rectangle,-8,7.5,1,0,0,-8,7.5,1,0,0,0,146,146,65,1,,,,,,,,
,,,,,,,,,,,,,FF,,,,,,,,0.6317,,,,,,,,,,,,,,,,,,,,,,60fe60dd936bd51ad5938b9f,6103691592396a346169f221,2021-07-29_22h51.28.331,Simcolourproject_2stim_asymm_v5,2020.2.10,Win32,60,61025ae37ef11b136ea224fe,,,,,,,,,1496,113,-59.5,1,0,0,response3disk,,5,-5,5.5,1,0,0,rectangle,-5,5.5,1,0,0,-5,5.5,1,0,0,0,147,147,88,1,,,,,,,,
,,,,,,,,,,,,,FF,,,,,,,,0.6181,,,,,,,,,,,,,,,,,,,,,,60fe60dd936bd51ad5938b9f,6103691592396a346169f221,2021-07-29_22h51.28.331,Simcolourproject_2stim_asymm_v5,2020.2.10,Win32,60,61025ae37ef11b136ea224fe,,,,,,,,,3459,59,99.5,1,0,0,response1disk,,7,5,-4.5,1,0,0,rectangle,5,-4.5,1,0,0,5,-4.5,1,0,0,0,148,148,20,1,,,,,,,,
,,,,,,,,,,,,,FF,,,,,,,,0.8536,,,,,,,,,,,,,,,,,,,,,,60fe60dd936bd51ad5938b9f,6103691592396a346169f221,2021-07-29_22h51.28.331,Simcolourproject_2stim_asymm_v5,2020.2.10,Win32,60,61025ae37ef11b136ea224fe,,,,,,,,,3080,-58,-132.5,1,0,0,response5disk,,3,7,3.5,1,0,0,rectangle,7,3.5,1,0,0,7,3.5,1,0,0,0,149,149,0,1,,,,,,,,
,,,,,,,,,,,,,FF,,,,,,,,0.9307,,,,,,,,,,,,,,,,,,,,,,60fe60dd936bd51ad5938b9f,6103691592396a346169f221,2021-07-29_22h51.28.331,Simcolourproject_2stim_asymm_v5,2020.2.10,Win32,60,61025ae37ef11b136ea224fe,,,,,,,,,155,106,-122.5,1,0,0,response3disk,,4,-9,4.5,1,0,0,rectangle,-9,4.5,1,0,0,-9,4.5,1,0,0,0,150,150,95,1,,,,,,,,
,,,,,,,,,,,,,FF,,,,,,,,0.6664,,,,,,,,,,,,,,,,,,,,,,60fe60dd936bd51ad5938b9f,6103691592396a346169f221,2021-07-29_22h51.28.331,Simcolourproject_2stim_asymm_v5,2020.2.10,Win32,60,61025ae37ef11b136ea224fe,,,,,,,,,1907,-61,-147.5,1,0,0,response5disk,,3,-10,1.5,1,0,0,rectangle,-10,1.5,1,0,0,-10,1.5,1,0,0,0,151,151,152,1,,,,,,,,
,,,,,,,,,,,,,FF,,,,,,,,0.6945,,,,,,,,,,,,,,,,,,,,,,60fe60dd936bd51ad5938b9f,6103691592396a346169f221,2021-07-29_22h51.28.331,Simcolourproject_2stim_asymm_v5,2020.2.10,Win32,60,61025ae37ef11b136ea224fe,,,,,,,,,4350,-114,-53.5,1,0,0,response5disk,,2,7,9.5,1,0,0,rectangle,7,9.5,1,0,0,7,9.5,1,0,0,0,152,152,106,1,,,,,,,,
,,,,,,,,,,,,,FF,,,,,,,,0.7851,,,,,,,,,,,,,,,,,,,,,,60fe60dd936bd51ad5938b9f,6103691592396a346169f221,2021-07-29_22h51.28.331,Simcolourproject_2stim_asymm_v5,2020.2.10,Win32,60,61025ae37ef11b136ea224fe,,,,,,,,,1286,-127,-59.5,1,0,0,response5disk,,2,-15,-2.5,1,0,0,rectangle,126,-51.5,1,0,0,-6,2.5,1,0,0,0,153,153,113,1,,response3disk_3,TRUE,5,5,"[42,221,301,238,304,44,84,305,154,34,269,214,117,233,279,16,94,229,243,205]",1.5277,rectangle
,,,,,,,,,,,,,FF,,,,,,,,0.7915,,,,,,,,,,,,,,,,,,,,,,60fe60dd936bd51ad5938b9f,6103691592396a346169f221,2021-07-29_22h51.28.331,Simcolourproject_2stim_asymm_v5,2020.2.10,Win32,60,61025ae37ef11b136ea224fe,,,,,,,,,1713,127,40.5,1,0,0,response1disk,,6,7,-11.5,1,0,0,rectangle,7,-11.5,1,0,0,7,-11.5,1,0,0,0,154,154,129,1,,,,,,,,
,,,,,,,,,,,,,FF,,,,,,,,0.555,,,,,,,,,,,,,,,,,,,,,,60fe60dd936bd51ad5938b9f,6103691592396a346169f221,2021-07-29_22h51.28.331,Simcolourproject_2stim_asymm_v5,2020.2.10,Win32,60,61025ae37ef11b136ea224fe,,,,,,,,,3203,-143,-52.5,1,0,0,response5disk,,2,13,-1.5,1,0,0,rectangle,13,-1.5,1,0,0,13,-1.5,1,0,0,0,155,155,89,1,,,,,,,,
,,,,,,,,,,,,,FF,,,,,,,,0.6945,,,,,,,,,,,,,,,,,,,,,,60fe60dd936bd51ad5938b9f,6103691592396a346169f221,2021-07-29_22h51.28.331,Simcolourproject_2stim_asymm_v5,2020.2.10,Win32,60,61025ae37ef11b136ea224fe,,,,,,,,,3873,61,-110.5,1,0,0,response3disk,,4,-8,-1.5,1,0,0,rectangle,-8,-1.5,1,0,0,-8,-1.5,1,0,0,0,156,156,108,1,,,,,,,,
,,,,,,,,,,,,,FF,,,,,,,,0.7292,,,,,,,,,,,,,,,,,,,,,,60fe60dd936bd51ad5938b9f,6103691592396a346169f221,2021-07-29_22h51.28.331,Simcolourproject_2stim_asymm_v5,2020.2.10,Win32,60,61025ae37ef11b136ea224fe,,,,,,,,,1542,-75,-137.5,1,0,0,response5disk,,3,-6,-2.5,1,0,0,rectangle,-6,-2.5,1,0,0,-6,-2.5,1,0,0,0,157,157,109,1,,,,,,,,
,,,,,,,,,,,,,FF,,,,,,,,0.7083,,,,,,,,,,,,,,,,,,,,,,60fe60dd936bd51ad5938b9f,6103691592396a346169f221,2021-07-29_22h51.28.331,Simcolourproject_2stim_asymm_v5,2020.2.10,Win32,60,61025ae37ef11b136ea224fe,,,,,,,,,2055,115,-52.5,1,0,0,response3disk,,5,12,1.5,1,0,0,rectangle,12,1.5,1,0,0,12,1.5,1,0,0,0,158,158,68,1,,,,,,,,
,,,,,,,,,,,,,FF,,,,,,,,0.4936,,,,,,,,,,,,,,,,,,,,,,60fe60dd936bd51ad5938b9f,6103691592396a346169f221,2021-07-29_22h51.28.331,Simcolourproject_2stim_asymm_v5,2020.2.10,Win32,60,61025ae37ef11b136ea224fe,,,,,,,,,3265,-93,-55.5,1,0,0,response5disk,,2,12,-0.5,1,0,0,rectangle,12,-0.5,1,0,0,12,-0.5,1,0,0,0,159,159,148,1,,,,,,,,
,,,,,,,,,,,,,FF,,,,,,,,0.6735,,,,,,,,,,,,,,,,,,,,,,60fe60dd936bd51ad5938b9f,6103691592396a346169f221,2021-07-29_22h51.28.331,Simcolourproject_2stim_asymm_v5,2020.2.10,Win32,60,61025ae37ef11b136ea224fe,,,,,,,,,2989,-80,40.5,1,0,0,response7disk,,1,-1,4.5,1,0,0,rectangle,-1,4.5,1,0,0,-1,4.5,1,0,0,1,0,160,151,1,,,,,,,,
,,,,,,,,,,,,,FF,,,,,,,,0.9028,,,,,,,,,,,,,,,,,,,,,,60fe60dd936bd51ad5938b9f,6103691592396a346169f221,2021-07-29_22h51.28.331,Simcolourproject_2stim_asymm_v5,2020.2.10,Win32,60,61025ae37ef11b136ea224fe,,,,,,,,,3848,-122,58.5,1,0,0,response7disk,,1,3,-0.5,1,0,0,rectangle,3,-0.5,1,0,0,3,-0.5,1,0,0,1,1,161,147,1,,,,,,,,
,,,,,,,,,,,,,FF,,,,,,,,0.5206,,,,,,,,,,,,,,,,,,,,,,60fe60dd936bd51ad5938b9f,6103691592396a346169f221,2021-07-29_22h51.28.331,Simcolourproject_2stim_asymm_v5,2020.2.10,Win32,60,61025ae37ef11b136ea224fe,,,,,,,,,4237,-144,61.5,1,0,0,response7disk,,1,-1,6.5,1,0,0,rectangle,-1,6.5,1,0,0,-1,6.5,1,0,0,1,2,162,16,1,,,,,,,,
,,,,,,,,,,,,,FF,,,,,,,,1.3061,,,,,,,,,,,,,,,,,,,,,,60fe60dd936bd51ad5938b9f,6103691592396a346169f221,2021-07-29_22h51.28.331,Simcolourproject_2stim_asymm_v5,2020.2.10,Win32,60,61025ae37ef11b136ea224fe,,,,,,,,,790,-38,-117.5,1,0,0,response5disk,,3,-4,13.5,1,0,0,rectangle,-4,13.5,1,0,0,-4,13.5,1,0,0,1,3,163,95,1,,,,,,,,
,,,,,,,,,,,,,FF,,,,,,,,0.9314,,,,,,,,,,,,,,,,,,,,,,60fe60dd936bd51ad5938b9f,6103691592396a346169f221,2021-07-29_22h51.28.331,Simcolourproject_2stim_asymm_v5,2020.2.10,Win32,60,61025ae37ef11b136ea224fe,,,,,,,,,753,47,-86.5,1,0,0,response3disk,,4,14,-0.5,1,0,0,rectangle,14,-0.5,1,0,0,14,-0.5,1,0,0,1,4,164,93,1,,,,,,,,
,,,,,,,,,,,,,FF,,,,,,,,0.7505,,,,,,,,,,,,,,,,,,,,,,60fe60dd936bd51ad5938b9f,6103691592396a346169f221,2021-07-29_22h51.28.331,Simcolourproject_2stim_asymm_v5,2020.2.10,Win32,60,61025ae37ef11b136ea224fe,,,,,,,,,4003,-41,-89.5,1,0,0,response5disk,,3,-20,16.5,1,0,0,rectangle,-20,16.5,1,0,0,-20,16.5,1,0,0,1,5,165,13,1,,,,,,,,
,,,,,,,,,,,,,FF,,,,,,,,0.5,,,,,,,,,,,,,,,,,,,,,,60fe60dd936bd51ad5938b9f,6103691592396a346169f221,2021-07-29_22h51.28.331,Simcolourproject_2stim_asymm_v5,2020.2.10,Win32,60,61025ae37ef11b136ea224fe,,,,,,,,,3487,-103,-38.5,1,0,0,response5disk,,2,-13,11.5,1,0,0,rectangle,-13,11.5,1,0,0,-13,11.5,1,0,0,1,6,166,71,1,,,,,,,,
,,,,,,,,,,,,,FF,,,,,,,,1.181,,,,,,,,,,,,,,,,,,,,,,60fe60dd936bd51ad5938b9f,6103691592396a346169f221,2021-07-29_22h51.28.331,Simcolourproject_2stim_asymm_v5,2020.2.10,Win32,60,61025ae37ef11b136ea224fe,,,,,,,,,905,-48,-121.5,1,0,0,response5disk,,3,7,-2.5,1,0,0,rectangle,7,-2.5,1,0,0,7,-2.5,1,0,0,1,7,167,11,1,,,,,,,,
,,,,,,,,,,,,,FF,,,,,,,,0.7084,,,,,,,,,,,,,,,,,,,,,,60fe60dd936bd51ad5938b9f,6103691592396a346169f221,2021-07-29_22h51.28.331,Simcolourproject_2stim_asymm_v5,2020.2.10,Win32,60,61025ae37ef11b136ea224fe,,,,,,,,,492,117,44.5,1,0,0,response1disk,,6,-18,-6.5,1,0,0,rectangle,-18,-6.5,1,0,0,-18,-6.5,1,0,0,1,8,168,8,1,,,,,,,,
,,,,,,,,,,,,,FF,,,,,,,,0.7152,,,,,,,,,,,,,,,,,,,,,,60fe60dd936bd51ad5938b9f,6103691592396a346169f221,2021-07-29_22h51.28.331,Simcolourproject_2stim_asymm_v5,2020.2.10,Win32,60,61025ae37ef11b136ea224fe,,,,,,,,,3191,-121,40.5,1,0,0,response7disk,,1,0,-5.5,1,0,0,rectangle,0,-5.5,1,0,0,0,-5.5,1,0,0,1,9,169,145,1,,,,,,,,
,,,,,,,,,,,,,FF,,,,,,,,0.6738,,,,,,,,,,,,,,,,,,,,,,60fe60dd936bd51ad5938b9f,6103691592396a346169f221,2021-07-29_22h51.28.331,Simcolourproject_2stim_asymm_v5,2020.2.10,Win32,60,61025ae37ef11b136ea224fe,,,,,,,,,1949,-58,-105.5,1,0,0,response5disk,,3,-6,-7.5,1,0,0,rectangle,-6,-7.5,1,0,0,-6,-7.5,1,0,0,1,10,170,142,1,,,,,,,,
,,,,,,,,,,,,,FF,,,,,,,,0.8749,,,,,,,,,,,,,,,,,,,,,,60fe60dd936bd51ad5938b9f,6103691592396a346169f221,2021-07-29_22h51.28.331,Simcolourproject_2stim_asymm_v5,2020.2.10,Win32,60,61025ae37ef11b136ea224fe,,,,,,,,,4349,-130,-53.5,1,0,0,response5disk,,2,5,6.5,1,0,0,rectangle,5,6.5,1,0,0,5,6.5,1,0,0,1,11,171,42,1,,,,,,,,
,,,,,,,,,,,,,FF,,,,,,,,1.0903,,,,,,,,,,,,,,,,,,,,,,60fe60dd936bd51ad5938b9f,6103691592396a346169f221,2021-07-29_22h51.28.331,Simcolourproject_2stim_asymm_v5,2020.2.10,Win32,60,61025ae37ef11b136ea224fe,,,,,,,,,644,-112,40.5,1,0,0,response7disk,,1,3,4.5,1,0,0,rectangle,3,4.5,1,0,0,3,4.5,1,0,0,1,12,172,153,1,,,,,,,,
,,,,,,,,,,,,,FF,,,,,,,,0.8403,,,,,,,,,,,,,,,,,,,,,,60fe60dd936bd51ad5938b9f,6103691592396a346169f221,2021-07-29_22h51.28.331,Simcolourproject_2stim_asymm_v5,2020.2.10,Win32,60,61025ae37ef11b136ea224fe,,,,,,,,,583,-50,-112.5,1,0,0,response5disk,,3,12,-9.5,1,0,0,rectangle,12,-9.5,1,0,0,12,-9.5,1,0,0,1,13,173,53,1,,,,,,,,
,,,,,,,,,,,,,FF,,,,,,,,0.7293,,,,,,,,,,,,,,,,,,,,,,60fe60dd936bd51ad5938b9f,6103691592396a346169f221,2021-07-29_22h51.28.331,Simcolourproject_2stim_asymm_v5,2020.2.10,Win32,60,61025ae37ef11b136ea224fe,,,,,,,,,3782,-117,42.5,1,0,0,response7disk,,1,11,1.5,1,0,0,rectangle,11,1.5,1,0,0,11,1.5,1,0,0,1,14,174,154,1,,,,,,,,
,,,,,,,,,,,,,FF,,,,,,,,0.7778,,,,,,,,,,,,,,,,,,,,,,60fe60dd936bd51ad5938b9f,6103691592396a346169f221,2021-07-29_22h51.28.331,Simcolourproject_2stim_asymm_v5,2020.2.10,Win32,60,61025ae37ef11b136ea224fe,,,,,,,,,3314,129,54.5,1,0,0,response1disk,,6,-9,-15.5,1,0,0,rectangle,-9,-15.5,1,0,0,-9,-15.5,1,0,0,1,15,175,156,1,,,,,,,,
,,,,,,,,,,,,,FF,,,,,,,,0.8127,,,,,,,,,,,,,,,,,,,,,,60fe60dd936bd51ad5938b9f,6103691592396a346169f221,2021-07-29_22h51.28.331,Simcolourproject_2stim_asymm_v5,2020.2.10,Win32,60,61025ae37ef11b136ea224fe,,,,,,,,,3319,52,97.5,1,0,0,response1disk,,7,-12,3.5,1,0,0,rectangle,-12,3.5,1,0,0,-12,3.5,1,0,0,1,16,176,157,1,,,,,,,,
,,,,,,,,,,,,,FF,,,,,,,,1.3818,,,,,,,,,,,,,,,,,,,,,,60fe60dd936bd51ad5938b9f,6103691592396a346169f221,2021-07-29_22h51.28.331,Simcolourproject_2stim_asymm_v5,2020.2.10,Win32,60,61025ae37ef11b136ea224fe,,,,,,,,,2289,-55,-114.5,1,0,0,response5disk,,3,9,-6.5,1,0,0,rectangle,9,-6.5,1,0,0,9,-6.5,1,0,0,1,17,177,143,1,,,,,,,,
,,,,,,,,,,,,,FF,,,,,,,,0.5347,,,,,,,,,,,,,,,,,,,,,,60fe60dd936bd51ad5938b9f,6103691592396a346169f221,2021-07-29_22h51.28.331,Simcolourproject_2stim_asymm_v5,2020.2.10,Win32,60,61025ae37ef11b136ea224fe,,,,,,,,,1876,53,124.5,1,0,0,response1disk,,7,-2,3.5,1,0,0,rectangle,-2,3.5,1,0,0,-2,3.5,1,0,0,1,18,178,4,1,,,,,,,,
,,,,,,,,,,,,,FF,,,,,,,,0.9931,,,,,,,,,,,,,,,,,,,,,,60fe60dd936bd51ad5938b9f,6103691592396a346169f221,2021-07-29_22h51.28.331,Simcolourproject_2stim_asymm_v5,2020.2.10,Win32,60,61025ae37ef11b136ea224fe,,,,,,,,,4082,-47,-115.5,1,0,0,response5disk,,3,-6,-0.5,1,0,0,rectangle,-6,-0.5,1,0,0,-6,-0.5,1,0,0,1,19,179,27,1,,,,,,,,
,,,,,,,,,,,,,FF,,,,,,,,1.0623,,,,,,,,,,,,,,,,,,,,,,60fe60dd936bd51ad5938b9f,6103691592396a346169f221,2021-07-29_22h51.28.331,Simcolourproject_2stim_asymm_v5,2020.2.10,Win32,60,61025ae37ef11b136ea224fe,,,,,,,,,830,89,-137.5,1,0,0,response3disk,,4,-18,17.5,1,0,0,rectangle,-18,17.5,1,0,0,-18,17.5,1,0,0,1,20,180,87,1,,,,,,,,
,,,,,,,,,,,,,FF,,,,,,,,1.8334,,,,,,,,,,,,,,,,,,,,,,60fe60dd936bd51ad5938b9f,6103691592396a346169f221,2021-07-29_22h51.28.331,Simcolourproject_2stim_asymm_v5,2020.2.10,Win32,60,61025ae37ef11b136ea224fe,,,,,,,,,2076,110,-56.5,1,0,0,response3disk,,5,0,6.5,1,0,0,rectangle,0,6.5,1,0,0,0,6.5,1,0,0,1,21,181,44,1,,,,,,,,
,,,,,,,,,,,,,FF,,,,,,,,0.4861,,,,,,,,,,,,,,,,,,,,,,60fe60dd936bd51ad5938b9f,6103691592396a346169f221,2021-07-29_22h51.28.331,Simcolourproject_2stim_asymm_v5,2020.2.10,Win32,60,61025ae37ef11b136ea224fe,,,,,,,,,1101,60,115.5,1,0,0,response1disk,,7,10,3.5,1,0,0,rectangle,10,3.5,1,0,0,10,3.5,1,0,0,1,22,182,40,1,,,,,,,,
,,,,,,,,,,,,,FF,,,,,,,,0.5902,,,,,,,,,,,,,,,,,,,,,,60fe60dd936bd51ad5938b9f,6103691592396a346169f221,2021-07-29_22h51.28.331,Simcolourproject_2stim_asymm_v5,2020.2.10,Win32,60,61025ae37ef11b136ea224fe,,,,,,,,,762,-82,-41.5,1,0,0,response5disk,,2,-11,12.5,1,0,0,rectangle,-11,12.5,1,0,0,-11,12.5,1,0,0,1,23,183,99,1,,,,,,,,
,,,,,,,,,,,,,FF,,,,,,,,1.0416,,,,,,,,,,,,,,,,,,,,,,60fe60dd936bd51ad5938b9f,6103691592396a346169f221,2021-07-29_22h51.28.331,Simcolourproject_2stim_asymm_v5,2020.2.10,Win32,60,61025ae37ef11b136ea224fe,,,,,,,,,2013,60,139.5,1,0,0,response1disk,,7,-5,-18.5,1,0,0,rectangle,-5,-18.5,1,0,0,-5,-18.5,1,0,0,1,24,184,35,1,,,,,,,,
,,,,,,,,,,,,,FF,,,,,,,,1.5209,,,,,,,,,,,,,,,,,,,,,,60fe60dd936bd51ad5938b9f,6103691592396a346169f221,2021-07-29_22h51.28.331,Simcolourproject_2stim_asymm_v5,2020.2.10,Win32,60,61025ae37ef11b136ea224fe,,,,,,,,,958,54,-127.5,1,0,0,response3disk,,4,6,-2.5,1,0,0,rectangle,6,-2.5,1,0,0,6,-2.5,1,0,0,1,25,185,102,1,,,,,,,,
,,,,,,,,,,,,,FF,,,,,,,,1.8819,,,,,,,,,,,,,,,,,,,,,,60fe60dd936bd51ad5938b9f,6103691592396a346169f221,2021-07-29_22h51.28.331,Simcolourproject_2stim_asymm_v5,2020.2.10,Win32,60,61025ae37ef11b136ea224fe,,,,,,,,,2161,-38,-138.5,1,0,0,response5disk,,3,-3,12.5,1,0,0,rectangle,-3,12.5,1,0,0,-3,12.5,1,0,0,1,26,186,134,1,,,,,,,,
,,,,,,,,,,,,,FF,,,,,,,,0.6668,,,,,,,,,,,,,,,,,,,,,,60fe60dd936bd51ad5938b9f,6103691592396a346169f221,2021-07-29_22h51.28.331,Simcolourproject_2stim_asymm_v5,2020.2.10,Win32,60,61025ae37ef11b136ea224fe,,,,,,,,,3695,51,108.5,1,0,0,response1disk,,7,0,-7.5,1,0,0,rectangle,0,-7.5,1,0,0,0,-7.5,1,0,0,1,27,187,25,1,,,,,,,,
,,,,,,,,,,,,,FF,,,,,,,,0.8682,,,,,,,,,,,,,,,,,,,,,,60fe60dd936bd51ad5938b9f,6103691592396a346169f221,2021-07-29_22h51.28.331,Simcolourproject_2stim_asymm_v5,2020.2.10,Win32,60,61025ae37ef11b136ea224fe,,,,,,,,,3461,43,-130.5,1,0,0,response3disk,,4,-7,-2.5,1,0,0,rectangle,-7,-2.5,1,0,0,-7,-2.5,1,0,0,1,28,188,84,1,,,,,,,,
,,,,,,,,,,,,,FF,,,,,,,,0.6877,,,,,,,,,,,,,,,,,,,,,,60fe60dd936bd51ad5938b9f,6103691592396a346169f221,2021-07-29_22h51.28.331,Simcolourproject_2stim_asymm_v5,2020.2.10,Win32,60,61025ae37ef11b136ea224fe,,,,,,,,,3891,-29,-122.5,1,0,0,response5disk,,3,20,-4.5,1,0,0,rectangle,20,-4.5,1,0,0,20,-4.5,1,0,0,1,29,189,110,1,,,,,,,,
,,,,,,,,,,,,,FF,,,,,,,,0.5766,,,,,,,,,,,,,,,,,,,,,,60fe60dd936bd51ad5938b9f,6103691592396a346169f221,2021-07-29_22h51.28.331,Simcolourproject_2stim_asymm_v5,2020.2.10,Win32,60,61025ae37ef11b136ea224fe,,,,,,,,,2280,71,122.5,1,0,0,response1disk,,7,-10,-12.5,1,0,0,rectangle,-10,-12.5,1,0,0,-10,-12.5,1,0,0,1,30,190,50,1,,,,,,,,
,,,,,,,,,,,,,FF,,,,,,,,5.4587,,,,,,,,,,,,,,,,,,,,,,60fe60dd936bd51ad5938b9f,6103691592396a346169f221,2021-07-29_22h51.28.331,Simcolourproject_2stim_asymm_v5,2020.2.10,Win32,60,61025ae37ef11b136ea224fe,,,,,,,,,2850,45,-117.5,1,0,0,response3disk,,4,-18,9.5,1,0,0,rectangle,-18,9.5,1,0,0,-18,9.5,1,0,0,1,31,191,59,1,,,,,,,,
,,,,,,,,,,,,,FF,,,,,,,,1.0492,,,,,,,,,,,,,,,,,,,,,,60fe60dd936bd51ad5938b9f,6103691592396a346169f221,2021-07-29_22h51.28.331,Simcolourproject_2stim_asymm_v5,2020.2.10,Win32,60,61025ae37ef11b136ea224fe,,,,,,,,,811,-117,-64.5,1,0,0,response5disk,,2,-15,5.5,1,0,0,rectangle,-15,5.5,1,0,0,-15,5.5,1,0,0,1,32,192,90,1,,,,,,,,
,,,,,,,,,,,,,FF,,,,,,,,0.8401,,,,,,,,,,,,,,,,,,,,,,60fe60dd936bd51ad5938b9f,6103691592396a346169f221,2021-07-29_22h51.28.331,Simcolourproject_2stim_asymm_v5,2020.2.10,Win32,60,61025ae37ef11b136ea224fe,,,,,,,,,2352,-54,-129.5,1,0,0,response5disk,,3,18,-13.5,1,0,0,rectangle,18,-13.5,1,0,0,18,-13.5,1,0,0,1,33,193,14,1,,,,,,,,
,,,,,,,,,,,,,FF,,,,,,,,0.7847,,,,,,,,,,,,,,,,,,,,,,60fe60dd936bd51ad5938b9f,6103691592396a346169f221,2021-07-29_22h51.28.331,Simcolourproject_2stim_asymm_v5,2020.2.10,Win32,60,61025ae37ef11b136ea224fe,,,,,,,,,2889,-145,-46.5,1,0,0,response5disk,,2,-3,0.5,1,0,0,rectangle,-3,0.5,1,0,0,-3,0.5,1,0,0,1,34,194,38,1,,,,,,,,
,,,,,,,,,,,,,FF,,,,,,,,1.1113,,,,,,,,,,,,,,,,,,,,,,60fe60dd936bd51ad5938b9f,6103691592396a346169f221,2021-07-29_22h51.28.331,Simcolourproject_2stim_asymm_v5,2020.2.10,Win32,60,61025ae37ef11b136ea224fe,,,,,,,,,2796,49,-136.5,1,0,0,response3disk,,4,-12,-3.5,1,0,0,rectangle,-12,-3.5,1,0,0,-12,-3.5,1,0,0,1,35,195,115,1,,,,,,,,
,,,,,,,,,,,,,FF,,,,,,,,0.9792,,,,,,,,,,,,,,,,,,,,,,60fe60dd936bd51ad5938b9f,6103691592396a346169f221,2021-07-29_22h51.28.331,Simcolourproject_2stim_asymm_v5,2020.2.10,Win32,60,61025ae37ef11b136ea224fe,,,,,,,,,3105,-121,-29.5,1,0,0,response5disk,,2,-1,6.5,1,0,0,rectangle,-1,6.5,1,0,0,-1,6.5,1,0,0,1,36,196,121,1,,,,,,,,
,,,,,,,,,,,,,FF,,,,,,,,2.1458,,,,,,,,,,,,,,,,,,,,,,60fe60dd936bd51ad5938b9f,6103691592396a346169f221,2021-07-29_22h51.28.331,Simcolourproject_2stim_asymm_v5,2020.2.10,Win32,60,61025ae37ef11b136ea224fe,,,,,,,,,4300,115,62.5,1,0,0,response1disk,,6,-20,8.5,1,0,0,rectangle,-20,8.5,1,0,0,-20,8.5,1,0,0,1,37,197,62,1,,,,,,,,
,,,,,,,,,,,,,FF,,,,,,,,0.7987,,,,,,,,,,,,,,,,,,,,,,60fe60dd936bd51ad5938b9f,6103691592396a346169f221,2021-07-29_22h51.28.331,Simcolourproject_2stim_asymm_v5,2020.2.10,Win32,60,61025ae37ef11b136ea224fe,,,,,,,,,2511,-67,-97.5,1,0,0,response5disk,,3,22,-9.5,1,0,0,rectangle,22,-9.5,1,0,0,22,-9.5,1,0,0,1,38,198,135,1,,,,,,,,
,,,,,,,,,,,,,FF,,,,,,,,1.5902,,,,,,,,,,,,,,,,,,,,,,60fe60dd936bd51ad5938b9f,6103691592396a346169f221,2021-07-29_22h51.28.331,Simcolourproject_2stim_asymm_v5,2020.2.10,Win32,60,61025ae37ef11b136ea224fe,,,,,,,,,2599,79,-129.5,1,0,0,response3disk,,4,-9,-2.5,1,0,0,rectangle,-9,-2.5,1,0,0,-9,-2.5,1,0,0,1,39,199,116,1,,,,,,,,
,,,,,,,,,,,,,FF,,,,,,,,2.0073,,,,,,,,,,,,,,,,,,,,,,60fe60dd936bd51ad5938b9f,6103691592396a346169f221,2021-07-29_22h51.28.331,Simcolourproject_2stim_asymm_v5,2020.2.10,Win32,60,61025ae37ef11b136ea224fe,,,,,,,,,2343,121,-76.5,1,0,0,response3disk,,5,-7,1.5,1,0,0,rectangle,-7,1.5,1,0,0,-7,1.5,1,0,0,1,40,200,78,1,,,,,,,,
,,,,,,,,,,,,,FF,,,,,,,,0.8681,,,,,,,,,,,,,,,,,,,,,,60fe60dd936bd51ad5938b9f,6103691592396a346169f221,2021-07-29_22h51.28.331,Simcolourproject_2stim_asymm_v5,2020.2.10,Win32,60,61025ae37ef11b136ea224fe,,,,,,,,,6,-116,-49.5,1,0,0,response5disk,,2,7,3.5,1,0,0,rectangle,7,3.5,1,0,0,7,3.5,1,0,0,1,41,201,3,1,,,,,,,,
,,,,,,,,,,,,,FF,,,,,,,,0.7365,,,,,,,,,,,,,,,,,,,,,,60fe60dd936bd51ad5938b9f,6103691592396a346169f221,2021-07-29_22h51.28.331,Simcolourproject_2stim_asymm_v5,2020.2.10,Win32,60,61025ae37ef11b136ea224fe,,,,,,,,,664,61,-127.5,1,0,0,response3disk,,4,-6,12.5,1,0,0,rectangle,-6,12.5,1,0,0,-6,12.5,1,0,0,1,42,202,34,1,,,,,,,,
,,,,,,,,,,,,,FF,,,,,,,,0.598,,,,,,,,,,,,,,,,,,,,,,60fe60dd936bd51ad5938b9f,6103691592396a346169f221,2021-07-29_22h51.28.331,Simcolourproject_2stim_asymm_v5,2020.2.10,Win32,60,61025ae37ef11b136ea224fe,,,,,,,,,1299,-112,48.5,1,0,0,response7disk,,1,-1,2.5,1,0,0,rectangle,-1,2.5,1,0,0,-1,2.5,1,0,0,1,43,203,140,1,,,,,,,,
,,,,,,,,,,,,,FF,,,,,,,,0.5695,,,,,,,,,,,,,,,,,,,,,,60fe60dd936bd51ad5938b9f,6103691592396a346169f221,2021-07-29_22h51.28.331,Simcolourproject_2stim_asymm_v5,2020.2.10,Win32,60,61025ae37ef11b136ea224fe,,,,,,,,,3150,-115,54.5,1,0,0,response7disk,,1,-3,4.5,1,0,0,rectangle,52,-141.5,1,0,0,-7,-1.5,1,0,0,1,44,204,94,1,,response3disk_3,TRUE,4,4,"[42,221,301,238,304,44,84,305,154,34,269,214,117,233,279,16,94,229,243,205]",1.4096,rectangle
,,,,,,,,,,,,,FF,,,,,,,,1.2983,,,,,,,,,,,,,,,,,,,,,,60fe60dd936bd51ad5938b9f,6103691592396a346169f221,2021-07-29_22h51.28.331,Simcolourproject_2stim_asymm_v5,2020.2.10,Win32,60,61025ae37ef11b136ea224fe,,,,,,,,,4358,-124,65.5,1,0,0,response7disk,,1,-1,-5.5,1,0,0,rectangle,-1,-5.5,1,0,0,-1,-5.5,1,0,0,1,45,205,18,1,,,,,,,,
,,,,,,,,,,,,,FF,,,,,,,,0.7912,,,,,,,,,,,,,,,,,,,,,,60fe60dd936bd51ad5938b9f,6103691592396a346169f221,2021-07-29_22h51.28.331,Simcolourproject_2stim_asymm_v5,2020.2.10,Win32,60,61025ae37ef11b136ea224fe,,,,,,,,,1090,117,51.5,1,0,0,response1disk,,6,-16,-11.5,1,0,0,rectangle,-16,-11.5,1,0,0,-16,-11.5,1,0,0,1,46,206,52,1,,,,,,,,
,,,,,,,,,,,,,FF,,,,,,,,0.6666,,,,,,,,,,,,,,,,,,,,,,60fe60dd936bd51ad5938b9f,6103691592396a346169f221,2021-07-29_22h51.28.331,Simcolourproject_2stim_asymm_v5,2020.2.10,Win32,60,61025ae37ef11b136ea224fe,,,,,,,,,3370,120,57.5,1,0,0,response1disk,,6,-13,-5.5,1,0,0,rectangle,-13,-5.5,1,0,0,-13,-5.5,1,0,0,1,47,207,77,1,,,,,,,,
,,,,,,,,,,,,,FF,,,,,,,,0.5345,,,,,,,,,,,,,,,,,,,,,,60fe60dd936bd51ad5938b9f,6103691592396a346169f221,2021-07-29_22h51.28.331,Simcolourproject_2stim_asymm_v5,2020.2.10,Win32,60,61025ae37ef11b136ea224fe,,,,,,,,,2200,103,-55.5,1,0,0,response3disk,,5,0,2.5,1,0,0,rectangle,0,2.5,1,0,0,0,2.5,1,0,0,1,48,208,125,1,,,,,,,,
,,,,,,,,,,,,,FF,,,,,,,,0.6459,,,,,,,,,,,,,,,,,,,,,,60fe60dd936bd51ad5938b9f,6103691592396a346169f221,2021-07-29_22h51.28.331,Simcolourproject_2stim_asymm_v5,2020.2.10,Win32,60,61025ae37ef11b136ea224fe,,,,,,,,,226,-32,-97.5,1,0,0,response5disk,,3,-2,11.5,1,0,0,rectangle,-2,11.5,1,0,0,-2,11.5,1,0,0,1,49,209,111,1,,,,,,,,
,,,,,,,,,,,,,FF,,,,,,,,0.5973,,,,,,,,,,,,,,,,,,,,,,60fe60dd936bd51ad5938b9f,6103691592396a346169f221,2021-07-29_22h51.28.331,Simcolourproject_2stim_asymm_v5,2020.2.10,Win32,60,61025ae37ef11b136ea224fe,,,,,,,,,1609,-60,132.5,1,0,0,response7disk,,0,0,-2.5,1,0,0,rectangle,0,-2.5,1,0,0,0,-2.5,1,0,0,1,50,210,67,1,,,,,,,,
,,,,,,,,,,,,,FF,,,,,,,,0.5278,,,,,,,,,,,,,,,,,,,,,,60fe60dd936bd51ad5938b9f,6103691592396a346169f221,2021-07-29_22h51.28.331,Simcolourproject_2stim_asymm_v5,2020.2.10,Win32,60,61025ae37ef11b136ea224fe,,,,,,,,,3320,142,43.5,1,0,0,response1disk,,6,-9,6.5,1,0,0,rectangle,-9,6.5,1,0,0,-9,6.5,1,0,0,1,51,211,159,1,,,,,,,,
,,,,,,,,,,,,,FF,,,,,,,,1.2708,,,,,,,,,,,,,,,,,,,,,,60fe60dd936bd51ad5938b9f,6103691592396a346169f221,2021-07-29_22h51.28.331,Simcolourproject_2stim_asymm_v5,2020.2.10,Win32,60,61025ae37ef11b136ea224fe,,,,,,,,,3926,128,-58.5,1,0,0,response3disk,,5,-7,9.5,1,0,0,rectangle,-7,9.5,1,0,0,-7,9.5,1,0,0,1,52,212,43,1,,,,,,,,
,,,,,,,,,,,,,FF,,,,,,,,1.0557,,,,,,,,,,,,,,,,,,,,,,60fe60dd936bd51ad5938b9f,6103691592396a346169f221,2021-07-29_22h51.28.331,Simcolourproject_2stim_asymm_v5,2020.2.10,Win32,60,61025ae37ef11b136ea224fe,,,,,,,,,3365,85,-37.5,1,0,0,response3disk,,5,-8,16.5,1,0,0,rectangle,55,-119.5,1,0,0,2,-0.5,1,0,0,1,53,213,58,1,,response3disk_3,TRUE,4,4,"[42,221,301,238,304,44,84,305,154,34,269,214,117,233,279,16,94,229,243,205]",2.1248,rectangle
,,,,,,,,,,,,,FF,,,,,,,,0.743,,,,,,,,,,,,,,,,,,,,,,60fe60dd936bd51ad5938b9f,6103691592396a346169f221,2021-07-29_22h51.28.331,Simcolourproject_2stim_asymm_v5,2020.2.10,Win32,60,61025ae37ef11b136ea224fe,,,,,,,,,3253,64,-108.5,1,0,0,response3disk,,4,4,2.5,1,0,0,rectangle,4,2.5,1,0,0,4,2.5,1,0,0,1,54,214,103,1,,,,,,,,
,,,,,,,,,,,,,FF,,,,,,,,0.8412,,,,,,,,,,,,,,,,,,,,,,60fe60dd936bd51ad5938b9f,6103691592396a346169f221,2021-07-29_22h51.28.331,Simcolourproject_2stim_asymm_v5,2020.2.10,Win32,60,61025ae37ef11b136ea224fe,,,,,,,,,60,59,-128.5,1,0,0,response3disk,,4,3,11.5,1,0,0,rectangle,3,11.5,1,0,0,3,11.5,1,0,0,1,55,215,45,1,,,,,,,,
,,,,,,,,,,,,,FF,,,,,,,,0.6318,,,,,,,,,,,,,,,,,,,,,,60fe60dd936bd51ad5938b9f,6103691592396a346169f221,2021-07-29_22h51.28.331,Simcolourproject_2stim_asymm_v5,2020.2.10,Win32,60,61025ae37ef11b136ea224fe,,,,,,,,,3283,-105,52.5,1,0,0,response7disk,,1,-10,-8.5,1,0,0,rectangle,-10,-8.5,1,0,0,-10,-8.5,1,0,0,1,56,216,117,1,,,,,,,,
,,,,,,,,,,,,,FF,,,,,,,,0.514,,,,,,,,,,,,,,,,,,,,,,60fe60dd936bd51ad5938b9f,6103691592396a346169f221,2021-07-29_22h51.28.331,Simcolourproject_2stim_asymm_v5,2020.2.10,Win32,60,61025ae37ef11b136ea224fe,,,,,,,,,2831,-52,136.5,1,0,0,response7disk,,0,21,-6.5,1,0,0,rectangle,21,-6.5,1,0,0,21,-6.5,1,0,0,1,57,217,30,1,,,,,,,,
,,,,,,,,,,,,,FF,,,,,,,,0.729,,,,,,,,,,,,,,,,,,,,,,60fe60dd936bd51ad5938b9f,6103691592396a346169f221,2021-07-29_22h51.28.331,Simcolourproject_2stim_asymm_v5,2020.2.10,Win32,60,61025ae37ef11b136ea224fe,,,,,,,,,1012,116,-54.5,1,0,0,response3disk,,5,13,5.5,1,0,0,rectangle,13,5.5,1,0,0,13,5.5,1,0,0,1,58,218,107,1,,,,,,,,
,,,,,,,,,,,,,FF,,,,,,,,0.8611,,,,,,,,,,,,,,,,,,,,,,60fe60dd936bd51ad5938b9f,6103691592396a346169f221,2021-07-29_22h51.28.331,Simcolourproject_2stim_asymm_v5,2020.2.10,Win32,60,61025ae37ef11b136ea224fe,,,,,,,,,752,60,-144.5,1,0,0,response3disk,,4,-1,2.5,1,0,0,rectangle,-1,2.5,1,0,0,-1,2.5,1,0,0,1,59,219,26,1,,,,,,,,
,,,,,,,,,,,,,FF,,,,,,,,0.7847,,,,,,,,,,,,,,,,,,,,,,60fe60dd936bd51ad5938b9f,6103691592396a346169f221,2021-07-29_22h51.28.331,Simcolourproject_2stim_asymm_v5,2020.2.10,Win32,60,61025ae37ef11b136ea224fe,,,,,,,,,1568,67,-96.5,1,0,0,response3disk,,4,17,-8.5,1,0,0,rectangle,89,-41.5,1,0,0,8,2.5,1,0,0,1,60,220,144,1,,response3disk_3,TRUE,5,5,"[42,221,301,238,304,44,84,305,154,34,269,214,117,233,279,16,94,229,243,205]",0.98,rectangle
,,,,,,,,,,,,,FF,,,,,,,,0.8472,,,,,,,,,,,,,,,,,,,,,,60fe60dd936bd51ad5938b9f,6103691592396a346169f221,2021-07-29_22h51.28.331,Simcolourproject_2stim_asymm_v5,2020.2.10,Win32,60,61025ae37ef11b136ea224fe,,,,,,,,,522,-74,-124.5,1,0,0,response5disk,,3,-15,-7.5,1,0,0,rectangle,-15,-7.5,1,0,0,-15,-7.5,1,0,0,1,61,221,105,1,,,,,,,,
,,,,,,,,,,,,,FF,,,,,,,,0.6323,,,,,,,,,,,,,,,,,,,,,,60fe60dd936bd51ad5938b9f,6103691592396a346169f221,2021-07-29_22h51.28.331,Simcolourproject_2stim_asymm_v5,2020.2.10,Win32,60,61025ae37ef11b136ea224fe,,,,,,,,,407,47,-102.5,1,0,0,response3disk,,4,1,-9.5,1,0,0,rectangle,1,-9.5,1,0,0,1,-9.5,1,0,0,1,62,222,109,1,,,,,,,,
,,,,,,,,,,,,,FF,,,,,,,,0.5692,,,,,,,,,,,,,,,,,,,,,,60fe60dd936bd51ad5938b9f,6103691592396a346169f221,2021-07-29_22h51.28.331,Simcolourproject_2stim_asymm_v5,2020.2.10,Win32,60,61025ae37ef11b136ea224fe,,,,,,,,,1809,-58,-103.5,1,0,0,response5disk,,3,-10,-16.5,1,0,0,rectangle,-10,-16.5,1,0,0,-10,-16.5,1,0,0,1,63,223,46,1,,,,,,,,
,,,,,,,,,,,,,FF,,,,,,,,1.0764,,,,,,,,,,,,,,,,,,,,,,60fe60dd936bd51ad5938b9f,6103691592396a346169f221,2021-07-29_22h51.28.331,Simcolourproject_2stim_asymm_v5,2020.2.10,Win32,60,61025ae37ef11b136ea224fe,,,,,,,,,2281,39,123.5,1,0,0,response1disk,,7,1,-17.5,1,0,0,rectangle,1,-17.5,1,0,0,1,-17.5,1,0,0,1,64,224,138,1,,,,,,,,
,,,,,,,,,,,,,FF,,,,,,,,0.4799,,,,,,,,,,,,,,,,,,,,,,60fe60dd936bd51ad5938b9f,6103691592396a346169f221,2021-07-29_22h51.28.331,Simcolourproject_2stim_asymm_v5,2020.2.10,Win32,60,61025ae37ef11b136ea224fe,,,,,,,,,3087,46,134.5,1,0,0,response1disk,,7,5,-4.5,1,0,0,rectangle,5,-4.5,1,0,0,5,-4.5,1,0,0,1,65,225,97,1,,,,,,,,
,,,,,,,,,,,,,FF,,,,,,,,0.6319,,,,,,,,,,,,,,,,,,,,,,60fe60dd936bd51ad5938b9f,6103691592396a346169f221,2021-07-29_22h51.28.331,Simcolourproject_2stim_asymm_v5,2020.2.10,Win32,60,61025ae37ef11b136ea224fe,,,,,,,,,2510,115,-48.5,1,0,0,response3disk,,5,9,-6.5,1,0,0,rectangle,9,-6.5,1,0,0,9,-6.5,1,0,0,1,66,226,20,1,,,,,,,,
,,,,,,,,,,,,,FF,,,,,,,,0.7222,,,,,,,,,,,,,,,,,,,,,,60fe60dd936bd51ad5938b9f,6103691592396a346169f221,2021-07-29_22h51.28.331,Simcolourproject_2stim_asymm_v5,2020.2.10,Win32,60,61025ae37ef11b136ea224fe,,,,,,,,,170,-112,-46.5,1,0,0,response5disk,,2,-16,11.5,1,0,0,rectangle,-16,11.5,1,0,0,-16,11.5,1,0,0,1,67,227,47,1,,,,,,,,
,,,,,,,,,,,,,FF,,,,,,,,0.6596,,,,,,,,,,,,,,,,,,,,,,60fe60dd936bd51ad5938b9f,6103691592396a346169f221,2021-07-29_22h51.28.331,Simcolourproject_2stim_asymm_v5,2020.2.10,Win32,60,61025ae37ef11b136ea224fe,,,,,,,,,1804,137,43.5,1,0,0,response1disk,,6,-10,2.5,1,0,0,rectangle,-127,-35.5,1,0,0,11,2.5,1,0,0,1,68,228,86,1,,response5disk_3,TRUE,2,2,"[42,221,301,238,304,44,84,305,154,34,269,214,117,233,279,16,94,229,243,205]",1.0699,rectangle
,,,,,,,,,,,,,FF,,,,,,,,1.0766,,,,,,,,,,,,,,,,,,,,,,60fe60dd936bd51ad5938b9f,6103691592396a346169f221,2021-07-29_22h51.28.331,Simcolourproject_2stim_asymm_v5,2020.2.10,Win32,60,61025ae37ef11b136ea224fe,,,,,,,,,2130,95,-40.5,1,0,0,response3disk,,5,15,-12.5,1,0,0,rectangle,15,-12.5,1,0,0,15,-12.5,1,0,0,1,69,229,130,1,,,,,,,,
,,,,,,,,,,,,,FF,,,,,,,,0.7149,,,,,,,,,,,,,,,,,,,,,,60fe60dd936bd51ad5938b9f,6103691592396a346169f221,2021-07-29_22h51.28.331,Simcolourproject_2stim_asymm_v5,2020.2.10,Win32,60,61025ae37ef11b136ea224fe,,,,,,,,,2969,-53,-107.5,1,0,0,response5disk,,3,-15,6.5,1,0,0,rectangle,-15,6.5,1,0,0,-15,6.5,1,0,0,1,70,230,65,1,,,,,,,,
,,,,,,,,,,,,,FF,,,,,,,,0.8957,,,,,,,,,,,,,,,,,,,,,,60fe60dd936bd51ad5938b9f,6103691592396a346169f221,2021-07-29_22h51.28.331,Simcolourproject_2stim_asymm_v5,2020.2.10,Win32,60,61025ae37ef11b136ea224fe,,,,,,,,,1127,106,67.5,1,0,0,response1disk,,6,7,-15.5,1,0,0,rectangle,7,-15.5,1,0,0,7,-15.5,1,0,0,1,71,231,1,1,,,,,,,,
,,,,,,,,,,,,,FF,,,,,,,,0.59,,,,,,,,,,,,,,,,,,,,,,60fe60dd936bd51ad5938b9f,6103691592396a346169f221,2021-07-29_22h51.28.331,Simcolourproject_2stim_asymm_v5,2020.2.10,Win32,60,61025ae37ef11b136ea224fe,,,,,,,,,3224,131,37.5,1,0,0,response1disk,,6,-8,-16.5,1,0,0,rectangle,48,122.5,1,0,0,-1,-7.5,1,0,0,1,72,232,54,1,,response1disk_3,TRUE,7,7,"[42,221,301,238,304,44,84,305,154,34,269,214,117,233,279,16,94,229,243,205]",1.5973,rectangle
,,,,,,,,,,,,,FF,,,,,,,,1.2431,,,,,,,,,,,,,,,,,,,,,,60fe60dd936bd51ad5938b9f,6103691592396a346169f221,2021-07-29_22h51.28.331,Simcolourproject_2stim_asymm_v5,2020.2.10,Win32,60,61025ae37ef11b136ea224fe,,,,,,,,,3270,125,38.5,1,0,0,response1disk,,6,8,-8.5,1,0,0,rectangle,8,-8.5,1,0,0,8,-8.5,1,0,0,1,73,233,29,1,,,,,,,,
,,,,,,,,,,,,,FF,,,,,,,,0.7287,,,,,,,,,,,,,,,,,,,,,,60fe60dd936bd51ad5938b9f,6103691592396a346169f221,2021-07-29_22h51.28.331,Simcolourproject_2stim_asymm_v5,2020.2.10,Win32,60,61025ae37ef11b136ea224fe,,,,,,,,,2650,57,-119.5,1,0,0,response3disk,,4,-5,-3.5,1,0,0,rectangle,-5,-3.5,1,0,0,-5,-3.5,1,0,0,1,74,234,132,1,,,,,,,,
,,,,,,,,,,,,,FF,,,,,,,,0.7426,,,,,,,,,,,,,,,,,,,,,,60fe60dd936bd51ad5938b9f,6103691592396a346169f221,2021-07-29_22h51.28.331,Simcolourproject_2stim_asymm_v5,2020.2.10,Win32,60,61025ae37ef11b136ea224fe,,,,,,,,,3837,61,-105.5,1,0,0,response3disk,,4,-12,11.5,1,0,0,rectangle,-12,11.5,1,0,0,-12,11.5,1,0,0,1,75,235,63,1,,,,,,,,
,,,,,,,,,,,,,FF,,,,,,,,0.6595,,,,,,,,,,,,,,,,,,,,,,60fe60dd936bd51ad5938b9f,6103691592396a346169f221,2021-07-29_22h51.28.331,Simcolourproject_2stim_asymm_v5,2020.2.10,Win32,60,61025ae37ef11b136ea224fe,,,,,,,,,2267,145,53.5,1,0,0,response1disk,,6,3,1.5,1,0,0,rectangle,3,1.5,1,0,0,3,1.5,1,0,0,1,76,236,56,1,,,,,,,,
,,,,,,,,,,,,,FF,,,,,,,,0.4373,,,,,,,,,,,,,,,,,,,,,,60fe60dd936bd51ad5938b9f,6103691592396a346169f221,2021-07-29_22h51.28.331,Simcolourproject_2stim_asymm_v5,2020.2.10,Win32,60,61025ae37ef11b136ea224fe,,,,,,,,,2154,111,53.5,1,0,0,response1disk,,6,2,0.5,1,0,0,rectangle,-59,141.5,1,0,0,-14,2.5,1,0,0,1,77,237,98,1,,response7disk_3,TRUE,0,0,"[42,221,301,238,304,44,84,305,154,34,269,214,117,233,279,16,94,229,243,205]",35.1821,rectangle
,,,,,,,,,,,,,FF,,,,,,,,0.9582,,,,,,,,,,,,,,,,,,,,,,60fe60dd936bd51ad5938b9f,6103691592396a346169f221,2021-07-29_22h51.28.331,Simcolourproject_2stim_asymm_v5,2020.2.10,Win32,60,61025ae37ef11b136ea224fe,,,,,,,,,2622,-53,-145.5,1,0,0,response5disk,,3,-15,-0.5,1,0,0,rectangle,-15,-0.5,1,0,0,-15,-0.5,1,0,0,1,78,238,17,1,,,,,,,,
,,,,,,,,,,,,,FF,,,,,,,,0.5555,,,,,,,,,,,,,,,,,,,,,,60fe60dd936bd51ad5938b9f,6103691592396a346169f221,2021-07-29_22h51.28.331,Simcolourproject_2stim_asymm_v5,2020.2.10,Win32,60,61025ae37ef11b136ea224fe,,,,,,,,,3511,-104,47.5,1,0,0,response7disk,,1,20,-4.5,1,0,0,rectangle,20,-4.5,1,0,0,20,-4.5,1,0,0,1,79,239,9,1,,,,,,,,
,,,,,,,,,,,,,FF,,,,,,,,0.7644,,,,,,,,,,,,,,,,,,,,,,60fe60dd936bd51ad5938b9f,6103691592396a346169f221,2021-07-29_22h51.28.331,Simcolourproject_2stim_asymm_v5,2020.2.10,Win32,60,61025ae37ef11b136ea224fe,,,,,,,,,224,-32,-117.5,1,0,0,response5disk,,3,6,2.5,1,0,0,rectangle,6,2.5,1,0,0,6,2.5,1,0,0,1,80,240,61,1,,,,,,,,
,,,,,,,,,,,,,FF,,,,,,,,0.9654,,,,,,,,,,,,,,,,,,,,,,60fe60dd936bd51ad5938b9f,6103691592396a346169f221,2021-07-29_22h51.28.331,Simcolourproject_2stim_asymm_v5,2020.2.10,Win32,60,61025ae37ef11b136ea224fe,,,,,,,,,2124,59,120.5,1,0,0,response1disk,,7,-14,-7.5,1,0,0,rectangle,-14,-7.5,1,0,0,-14,-7.5,1,0,0,1,81,241,5,1,,,,,,,,
,,,,,,,,,,,,,FF,,,,,,,,0.6395,,,,,,,,,,,,,,,,,,,,,,60fe60dd936bd51ad5938b9f,6103691592396a346169f221,2021-07-29_22h51.28.331,Simcolourproject_2stim_asymm_v5,2020.2.10,Win32,60,61025ae37ef11b136ea224fe,,,,,,,,,2030,-103,-50.5,1,0,0,response5disk,,2,-11,18.5,1,0,0,rectangle,-139,68.5,1,0,0,9,0.5,1,0,0,1,82,242,0,1,,response7disk_3,TRUE,1,1,"[42,221,301,238,304,44,84,305,154,34,269,214,117,233,279,16,94,229,243,205]",1.3332,rectangle
,,,,,,,,,,,,,FF,,,,,,,,0.7919,,,,,,,,,,,,,,,,,,,,,,60fe60dd936bd51ad5938b9f,6103691592396a346169f221,2021-07-29_22h51.28.331,Simcolourproject_2stim_asymm_v5,2020.2.10,Win32,60,61025ae37ef11b136ea224fe,,,,,,,,,1149,-52,-114.5,1,0,0,response5disk,,3,-14,-7.5,1,0,0,rectangle,-14,-7.5,1,0,0,-14,-7.5,1,0,0,1,83,243,152,1,,,,,,,,
,,,,,,,,,,,,,FF,,,,,,,,0.4861,,,,,,,,,,,,,,,,,,,,,,60fe60dd936bd51ad5938b9f,6103691592396a346169f221,2021-07-29_22h51.28.331,Simcolourproject_2stim_asymm_v5,2020.2.10,Win32,60,61025ae37ef11b136ea224fe,,,,,,,,,4335,-125,58.5,1,0,0,response7disk,,1,12,1.5,1,0,0,rectangle,12,1.5,1,0,0,12,1.5,1,0,0,1,84,244,81,1,,,,,,,,
,,,,,,,,,,,,,FF,,,,,,,,0.8063,,,,,,,,,,,,,,,,,,,,,,60fe60dd936bd51ad5938b9f,6103691592396a346169f221,2021-07-29_22h51.28.331,Simcolourproject_2stim_asymm_v5,2020.2.10,Win32,60,61025ae37ef11b136ea224fe,,,,,,,,,20,-40,-110.5,1,0,0,response5disk,,3,-19,13.5,1,0,0,rectangle,-19,13.5,1,0,0,-19,13.5,1,0,0,1,85,245,114,1,,,,,,,,
,,,,,,,,,,,,,FF,,,,,,,,0.6596,,,,,,,,,,,,,,,,,,,,,,60fe60dd936bd51ad5938b9f,6103691592396a346169f221,2021-07-29_22h51.28.331,Simcolourproject_2stim_asymm_v5,2020.2.10,Win32,60,61025ae37ef11b136ea224fe,,,,,,,,,2114,116,-55.5,1,0,0,response3disk,,5,-7,11.5,1,0,0,rectangle,-7,11.5,1,0,0,-7,11.5,1,0,0,1,86,246,33,1,,,,,,,,
,,,,,,,,,,,,,FF,,,,,,,,0.9582,,,,,,,,,,,,,,,,,,,,,,60fe60dd936bd51ad5938b9f,6103691592396a346169f221,2021-07-29_22h51.28.331,Simcolourproject_2stim_asymm_v5,2020.2.10,Win32,60,61025ae37ef11b136ea224fe,,,,,,,,,2484,44,-132.5,1,0,0,response3disk,,4,-4,11.5,1,0,0,rectangle,-4,11.5,1,0,0,-4,11.5,1,0,0,1,87,247,133,1,,,,,,,,
,,,,,,,,,,,,,FF,,,,,,,,0.9661,,,,,,,,,,,,,,,,,,,,,,60fe60dd936bd51ad5938b9f,6103691592396a346169f221,2021-07-29_22h51.28.331,Simcolourproject_2stim_asymm_v5,2020.2.10,Win32,60,61025ae37ef11b136ea224fe,,,,,,,,,1332,-46,-131.5,1,0,0,response5disk,,3,10,3.5,1,0,0,rectangle,10,3.5,1,0,0,10,3.5,1,0,0,1,88,248,76,1,,,,,,,,
,,,,,,,,,,,,,FF,,,,,,,,0.9241,,,,,,,,,,,,,,,,,,,,,,60fe60dd936bd51ad5938b9f,6103691592396a346169f221,2021-07-29_22h51.28.331,Simcolourproject_2stim_asymm_v5,2020.2.10,Win32,60,61025ae37ef11b136ea224fe,,,,,,,,,3581,102,41.5,1,0,0,response1disk,,6,1,-14.5,1,0,0,rectangle,1,-14.5,1,0,0,1,-14.5,1,0,0,1,89,249,128,1,,,,,,,,
,,,,,,,,,,,,,FF,,,,,,,,0.8403,,,,,,,,,,,,,,,,,,,,,,60fe60dd936bd51ad5938b9f,6103691592396a346169f221,2021-07-29_22h51.28.331,Simcolourproject_2stim_asymm_v5,2020.2.10,Win32,60,61025ae37ef11b136ea224fe,,,,,,,,,1197,33,-125.5,1,0,0,response3disk,,4,-15,8.5,1,0,0,rectangle,-15,8.5,1,0,0,-15,8.5,1,0,0,1,90,250,137,1,,,,,,,,
,,,,,,,,,,,,,FF,,,,,,,,0.847,,,,,,,,,,,,,,,,,,,,,,60fe60dd936bd51ad5938b9f,6103691592396a346169f221,2021-07-29_22h51.28.331,Simcolourproject_2stim_asymm_v5,2020.2.10,Win32,60,61025ae37ef11b136ea224fe,,,,,,,,,78,-53,-127.5,1,0,0,response5disk,,3,8,6.5,1,0,0,rectangle,8,6.5,1,0,0,8,6.5,1,0,0,1,91,251,150,1,,,,,,,,
,,,,,,,,,,,,,FF,,,,,,,,1.75,,,,,,,,,,,,,,,,,,,,,,60fe60dd936bd51ad5938b9f,6103691592396a346169f221,2021-07-29_22h51.28.331,Simcolourproject_2stim_asymm_v5,2020.2.10,Win32,60,61025ae37ef11b136ea224fe,,,,,,,,,851,43,-119.5,1,0,0,response3disk,,4,-16,13.5,1,0,0,rectangle,-16,13.5,1,0,0,-16,13.5,1,0,0,1,92,252,70,1,,,,,,,,
,,,,,,,,,,,,,FF,,,,,,,,0.9799,,,,,,,,,,,,,,,,,,,,,,60fe60dd936bd51ad5938b9f,6103691592396a346169f221,2021-07-29_22h51.28.331,Simcolourproject_2stim_asymm_v5,2020.2.10,Win32,60,61025ae37ef11b136ea224fe,,,,,,,,,1285,-104,-40.5,1,0,0,response5disk,,2,-3,-0.5,1,0,0,rectangle,-3,-0.5,1,0,0,-3,-0.5,1,0,0,1,93,253,146,1,,,,,,,,
,,,,,,,,,,,,,FF,,,,,,,,1.4171,,,,,,,,,,,,,,,,,,,,,,60fe60dd936bd51ad5938b9f,6103691592396a346169f221,2021-07-29_22h51.28.331,Simcolourproject_2stim_asymm_v5,2020.2.10,Win32,60,61025ae37ef11b136ea224fe,,,,,,,,,4129,-114,-66.5,1,0,0,response5disk,,2,-1,0.5,1,0,0,rectangle,-1,0.5,1,0,0,-1,0.5,1,0,0,1,94,254,2,1,,,,,,,,
,,,,,,,,,,,,,FF,,,,,,,,0.604,,,,,,,,,,,,,,,,,,,,,,60fe60dd936bd51ad5938b9f,6103691592396a346169f221,2021-07-29_22h51.28.331,Simcolourproject_2stim_asymm_v5,2020.2.10,Win32,60,61025ae37ef11b136ea224fe,,,,,,,,,694,-39,-117.5,1,0,0,response5disk,,3,-16,-10.5,1,0,0,rectangle,-16,-10.5,1,0,0,-16,-10.5,1,0,0,1,95,255,21,1,,,,,,,,
,,,,,,,,,,,,,FF,,,,,,,,0.7634,,,,,,,,,,,,,,,,,,,,,,60fe60dd936bd51ad5938b9f,6103691592396a346169f221,2021-07-29_22h51.28.331,Simcolourproject_2stim_asymm_v5,2020.2.10,Win32,60,61025ae37ef11b136ea224fe,,,,,,,,,2144,95,-52.5,1,0,0,response3disk,,5,-17,10.5,1,0,0,rectangle,-17,10.5,1,0,0,-17,10.5,1,0,0,1,96,256,120,1,,,,,,,,
,,,,,,,,,,,,,FF,,,,,,,,0.9513,,,,,,,,,,,,,,,,,,,,,,60fe60dd936bd51ad5938b9f,6103691592396a346169f221,2021-07-29_22h51.28.331,Simcolourproject_2stim_asymm_v5,2020.2.10,Win32,60,61025ae37ef11b136ea224fe,,,,,,,,,2096,-119,-62.5,1,0,0,response5disk,,2,1,10.5,1,0,0,rectangle,1,10.5,1,0,0,1,10.5,1,0,0,1,97,257,101,1,,,,,,,,
,,,,,,,,,,,,,FF,,,,,,,,0.493,,,,,,,,,,,,,,,,,,,,,,60fe60dd936bd51ad5938b9f,6103691592396a346169f221,2021-07-29_22h51.28.331,Simcolourproject_2stim_asymm_v5,2020.2.10,Win32,60,61025ae37ef11b136ea224fe,,,,,,,,,3392,-131,45.5,1,0,0,response7disk,,1,18,2.5,1,0,0,rectangle,18,2.5,1,0,0,18,2.5,1,0,0,1,98,258,148,1,,,,,,,,
,,,,,,,,,,,,,FF,,,,,,,,1.3264,,,,,,,,,,,,,,,,,,,,,,60fe60dd936bd51ad5938b9f,6103691592396a346169f221,2021-07-29_22h51.28.331,Simcolourproject_2stim_asymm_v5,2020.2.10,Win32,60,61025ae37ef11b136ea224fe,,,,,,,,,1062,-47,-136.5,1,0,0,response5disk,,3,-8,11.5,1,0,0,rectangle,-8,11.5,1,0,0,-8,11.5,1,0,0,1,99,259,80,1,,,,,,,,
,,,,,,,,,,,,,FF,,,,,,,,1.9648,,,,,,,,,,,,,,,,,,,,,,60fe60dd936bd51ad5938b9f,6103691592396a346169f221,2021-07-29_22h51.28.331,Simcolourproject_2stim_asymm_v5,2020.2.10,Win32,60,61025ae37ef11b136ea224fe,,,,,,,,,2874,62,-127.5,1,0,0,response3disk,,4,-3,-7.5,1,0,0,rectangle,-3,-7.5,1,0,0,-3,-7.5,1,0,0,1,100,260,32,1,,,,,,,,
,,,,,,,,,,,,,FF,,,,,,,,0.7361,,,,,,,,,,,,,,,,,,,,,,60fe60dd936bd51ad5938b9f,6103691592396a346169f221,2021-07-29_22h51.28.331,Simcolourproject_2stim_asymm_v5,2020.2.10,Win32,60,61025ae37ef11b136ea224fe,,,,,,,,,3026,-47,-115.5,1,0,0,response5disk,,3,1,4.5,1,0,0,rectangle,1,4.5,1,0,0,1,4.5,1,0,0,1,101,261,126,1,,,,,,,,
,,,,,,,,,,,,,FF,,,,,,,,0.9166,,,,,,,,,,,,,,,,,,,,,,60fe60dd936bd51ad5938b9f,6103691592396a346169f221,2021-07-29_22h51.28.331,Simcolourproject_2stim_asymm_v5,2020.2.10,Win32,60,61025ae37ef11b136ea224fe,,,,,,,,,1016,50,-123.5,1,0,0,response3disk,,4,-3,-0.5,1,0,0,rectangle,-3,-0.5,1,0,0,-3,-0.5,1,0,0,1,102,262,141,1,,,,,,,,
,,,,,,,,,,,,,FF,,,,,,,,0.5623,,,,,,,,,,,,,,,,,,,,,,60fe60dd936bd51ad5938b9f,6103691592396a346169f221,2021-07-29_22h51.28.331,Simcolourproject_2stim_asymm_v5,2020.2.10,Win32,60,61025ae37ef11b136ea224fe,,,,,,,,,1424,-91,-51.5,1,0,0,response5disk,,2,-17,-5.5,1,0,0,rectangle,-17,-5.5,1,0,0,-17,-5.5,1,0,0,1,103,263,39,1,,,,,,,,
,,,,,,,,,,,,,FF,,,,,,,,0.507,,,,,,,,,,,,,,,,,,,,,,60fe60dd936bd51ad5938b9f,6103691592396a346169f221,2021-07-29_22h51.28.331,Simcolourproject_2stim_asymm_v5,2020.2.10,Win32,60,61025ae37ef11b136ea224fe,,,,,,,,,147,-47,-103.5,1,0,0,response5disk,,3,-9,0.5,1,0,0,rectangle,-9,0.5,1,0,0,-9,0.5,1,0,0,1,104,264,6,1,,,,,,,,
,,,,,,,,,,,,,FF,,,,,,,,0.5907,,,,,,,,,,,,,,,,,,,,,,60fe60dd936bd51ad5938b9f,6103691592396a346169f221,2021-07-29_22h51.28.331,Simcolourproject_2stim_asymm_v5,2020.2.10,Win32,60,61025ae37ef11b136ea224fe,,,,,,,,,1492,101,-29.5,1,0,0,response3disk,,5,2,-4.5,1,0,0,rectangle,2,-4.5,1,0,0,2,-4.5,1,0,0,1,105,265,74,1,,,,,,,,
,,,,,,,,,,,,,FF,,,,,,,,2.0278,,,,,,,,,,,,,,,,,,,,,,60fe60dd936bd51ad5938b9f,6103691592396a346169f221,2021-07-29_22h51.28.331,Simcolourproject_2stim_asymm_v5,2020.2.10,Win32,60,61025ae37ef11b136ea224fe,,,,,,,,,3012,57,-146.5,1,0,0,response3disk,,4,-21,14.5,1,0,0,rectangle,-21,14.5,1,0,0,-21,14.5,1,0,0,1,106,266,96,1,,,,,,,,
,,,,,,,,,,,,,FF,,,,,,,,0.8193,,,,,,,,,,,,,,,,,,,,,,60fe60dd936bd51ad5938b9f,6103691592396a346169f221,2021-07-29_22h51.28.331,Simcolourproject_2stim_asymm_v5,2020.2.10,Win32,60,61025ae37ef11b136ea224fe,,,,,,,,,3924,-39,-141.5,1,0,0,response5disk,,3,-1,9.5,1,0,0,rectangle,-1,9.5,1,0,0,-1,9.5,1,0,0,1,107,267,155,1,,,,,,,,
,,,,,,,,,,,,,FF,,,,,,,,0.9729,,,,,,,,,,,,,,,,,,,,,,60fe60dd936bd51ad5938b9f,6103691592396a346169f221,2021-07-29_22h51.28.331,Simcolourproject_2stim_asymm_v5,2020.2.10,Win32,60,61025ae37ef11b136ea224fe,,,,,,,,,1152,-102,29.5,1,0,0,response7disk,,1,17,4.5,1,0,0,rectangle,129,63.5,1,0,0,-4,-5.5,1,0,0,1,108,268,22,1,,response1disk_3,TRUE,6,6,"[42,221,301,238,304,44,84,305,154,34,269,214,117,233,279,16,94,229,243,205]",2.0971,rectangle
,,,,,,,,,,,,,FF,,,,,,,,0.6528,,,,,,,,,,,,,,,,,,,,,,60fe60dd936bd51ad5938b9f,6103691592396a346169f221,2021-07-29_22h51.28.331,Simcolourproject_2stim_asymm_v5,2020.2.10,Win32,60,61025ae37ef11b136ea224fe,,,,,,,,,2795,72,-123.5,1,0,0,response3disk,,4,12,1.5,1,0,0,rectangle,12,1.5,1,0,0,12,1.5,1,0,0,1,109,269,136,1,,,,,,,,
,,,,,,,,,,,,,FF,,,,,,,,0.6458,,,,,,,,,,,,,,,,,,,,,,60fe60dd936bd51ad5938b9f,6103691592396a346169f221,2021-07-29_22h51.28.331,Simcolourproject_2stim_asymm_v5,2020.2.10,Win32,60,61025ae37ef11b136ea224fe,,,,,,,,,3328,-113,-37.5,1,0,0,response5disk,,2,-14,6.5,1,0,0,rectangle,-14,6.5,1,0,0,-14,6.5,1,0,0,1,110,270,73,1,,,,,,,,
,,,,,,,,,,,,,FF,,,,,,,,0.5556,,,,,,,,,,,,,,,,,,,,,,60fe60dd936bd51ad5938b9f,6103691592396a346169f221,2021-07-29_22h51.28.331,Simcolourproject_2stim_asymm_v5,2020.2.10,Win32,60,61025ae37ef11b136ea224fe,,,,,,,,,620,-114,42.5,1,0,0,response7disk,,1,6,-1.5,1,0,0,rectangle,6,-1.5,1,0,0,6,-1.5,1,0,0,1,111,271,69,1,,,,,,,,
,,,,,,,,,,,,,FF,,,,,,,,0.6182,,,,,,,,,,,,,,,,,,,,,,60fe60dd936bd51ad5938b9f,6103691592396a346169f221,2021-07-29_22h51.28.331,Simcolourproject_2stim_asymm_v5,2020.2.10,Win32,60,61025ae37ef11b136ea224fe,,,,,,,,,1958,-129,48.5,1,0,0,response7disk,,1,3,9.5,1,0,0,rectangle,3,9.5,1,0,0,3,9.5,1,0,0,1,112,272,124,1,,,,,,,,
,,,,,,,,,,,,,FF,,,,,,,,0.6388,,,,,,,,,,,,,,,,,,,,,,60fe60dd936bd51ad5938b9f,6103691592396a346169f221,2021-07-29_22h51.28.331,Simcolourproject_2stim_asymm_v5,2020.2.10,Win32,60,61025ae37ef11b136ea224fe,,,,,,,,,3995,-145,43.5,1,0,0,response7disk,,1,-6,0.5,1,0,0,rectangle,-6,0.5,1,0,0,-6,0.5,1,0,0,1,113,273,83,1,,,,,,,,
,,,,,,,,,,,,,FF,,,,,,,,0.7021,,,,,,,,,,,,,,,,,,,,,,60fe60dd936bd51ad5938b9f,6103691592396a346169f221,2021-07-29_22h51.28.331,Simcolourproject_2stim_asymm_v5,2020.2.10,Win32,60,61025ae37ef11b136ea224fe,,,,,,,,,3334,108,-37.5,1,0,0,response3disk,,5,-19,5.5,1,0,0,rectangle,-19,5.5,1,0,0,-19,5.5,1,0,0,1,114,274,131,1,,,,,,,,
,,,,,,,,,,,,,FF,,,,,,,,0.9584,,,,,,,,,,,,,,,,,,,,,,60fe60dd936bd51ad5938b9f,6103691592396a346169f221,2021-07-29_22h51.28.331,Simcolourproject_2stim_asymm_v5,2020.2.10,Win32,60,61025ae37ef11b136ea224fe,,,,,,,,,4004,-37,-145.5,1,0,0,response5disk,,3,12,11.5,1,0,0,rectangle,12,11.5,1,0,0,12,11.5,1,0,0,1,115,275,104,1,,,,,,,,
,,,,,,,,,,,,,FF,,,,,,,,0.6805,,,,,,,,,,,,,,,,,,,,,,60fe60dd936bd51ad5938b9f,6103691592396a346169f221,2021-07-29_22h51.28.331,Simcolourproject_2stim_asymm_v5,2020.2.10,Win32,60,61025ae37ef11b136ea224fe,,,,,,,,,1356,71,-111.5,1,0,0,response3disk,,4,7,1.5,1,0,0,rectangle,7,1.5,1,0,0,7,1.5,1,0,0,1,116,276,12,1,,,,,,,,
,,,,,,,,,,,,,FF,,,,,,,,0.479,,,,,,,,,,,,,,,,,,,,,,60fe60dd936bd51ad5938b9f,6103691592396a346169f221,2021-07-29_22h51.28.331,Simcolourproject_2stim_asymm_v5,2020.2.10,Win32,60,61025ae37ef11b136ea224fe,,,,,,,,,416,93,-53.5,1,0,0,response3disk,,5,14,-5.5,1,0,0,rectangle,14,-5.5,1,0,0,14,-5.5,1,0,0,1,117,277,113,1,,,,,,,,
,,,,,,,,,,,,,FF,,,,,,,,0.5695,,,,,,,,,,,,,,,,,,,,,,60fe60dd936bd51ad5938b9f,6103691592396a346169f221,2021-07-29_22h51.28.331,Simcolourproject_2stim_asymm_v5,2020.2.10,Win32,60,61025ae37ef11b136ea224fe,,,,,,,,,15,-63,-123.5,1,0,0,response5disk,,3,1,-5.5,1,0,0,rectangle,-74,-118.5,1,0,0,1,0.5,1,0,0,1,118,278,37,1,,response5disk_3,TRUE,3,3,"[42,221,301,238,304,44,84,305,154,34,269,214,117,233,279,16,94,229,243,205]",1.2431,rectangle
,,,,,,,,,,,,,FF,,,,,,,,0.7641,,,,,,,,,,,,,,,,,,,,,,60fe60dd936bd51ad5938b9f,6103691592396a346169f221,2021-07-29_22h51.28.331,Simcolourproject_2stim_asymm_v5,2020.2.10,Win32,60,61025ae37ef11b136ea224fe,,,,,,,,,2907,49,-121.5,1,0,0,response3disk,,4,-8,7.5,1,0,0,rectangle,-8,7.5,1,0,0,-8,7.5,1,0,0,1,119,279,122,1,,,,,,,,
,,,,,,,,,,,,,FF,,,,,,,,0.7923,,,,,,,,,,,,,,,,,,,,,,60fe60dd936bd51ad5938b9f,6103691592396a346169f221,2021-07-29_22h51.28.331,Simcolourproject_2stim_asymm_v5,2020.2.10,Win32,60,61025ae37ef11b136ea224fe,,,,,,,,,3199,-59,-135.5,1,0,0,response5disk,,3,-13,-10.5,1,0,0,rectangle,-13,-10.5,1,0,0,-13,-10.5,1,0,0,1,120,280,28,1,,,,,,,,
,,,,,,,,,,,,,FF,,,,,,,,0.6598,,,,,,,,,,,,,,,,,,,,,,60fe60dd936bd51ad5938b9f,6103691592396a346169f221,2021-07-29_22h51.28.331,Simcolourproject_2stim_asymm_v5,2020.2.10,Win32,60,61025ae37ef11b136ea224fe,,,,,,,,,57,61,-106.5,1,0,0,response3disk,,4,-4,1.5,1,0,0,rectangle,-4,1.5,1,0,0,-4,1.5,1,0,0,1,121,281,91,1,,,,,,,,
,,,,,,,,,,,,,FF,,,,,,,,0.6809,,,,,,,,,,,,,,,,,,,,,,60fe60dd936bd51ad5938b9f,6103691592396a346169f221,2021-07-29_22h51.28.331,Simcolourproject_2stim_asymm_v5,2020.2.10,Win32,60,61025ae37ef11b136ea224fe,,,,,,,,,626,-55,-121.5,1,0,0,response5disk,,3,-22,0.5,1,0,0,rectangle,-22,0.5,1,0,0,-22,0.5,1,0,0,1,122,282,72,1,,,,,,,,
,,,,,,,,,,,,,FF,,,,,,,,0.7294,,,,,,,,,,,,,,,,,,,,,,60fe60dd936bd51ad5938b9f,6103691592396a346169f221,2021-07-29_22h51.28.331,Simcolourproject_2stim_asymm_v5,2020.2.10,Win32,60,61025ae37ef11b136ea224fe,,,,,,,,,1964,-123,35.5,1,0,0,response7disk,,1,6,2.5,1,0,0,rectangle,6,2.5,1,0,0,6,2.5,1,0,0,1,123,283,108,1,,,,,,,,
,,,,,,,,,,,,,FF,,,,,,,,0.5974,,,,,,,,,,,,,,,,,,,,,,60fe60dd936bd51ad5938b9f,6103691592396a346169f221,2021-07-29_22h51.28.331,Simcolourproject_2stim_asymm_v5,2020.2.10,Win32,60,61025ae37ef11b136ea224fe,,,,,,,,,799,64,-96.5,1,0,0,response3disk,,4,0,-1.5,1,0,0,rectangle,0,-1.5,1,0,0,0,-1.5,1,0,0,1,124,284,48,1,,,,,,,,
,,,,,,,,,,,,,FF,,,,,,,,0.7917,,,,,,,,,,,,,,,,,,,,,,60fe60dd936bd51ad5938b9f,6103691592396a346169f221,2021-07-29_22h51.28.331,Simcolourproject_2stim_asymm_v5,2020.2.10,Win32,60,61025ae37ef11b136ea224fe,,,,,,,,,1978,-49,-115.5,1,0,0,response5disk,,3,-13,-6.5,1,0,0,rectangle,-13,-6.5,1,0,0,-13,-6.5,1,0,0,1,125,285,127,1,,,,,,,,
,,,,,,,,,,,,,FF,,,,,,,,1.5277,,,,,,,,,,,,,,,,,,,,,,60fe60dd936bd51ad5938b9f,6103691592396a346169f221,2021-07-29_22h51.28.331,Simcolourproject_2stim_asymm_v5,2020.2.10,Win32,60,61025ae37ef11b136ea224fe,,,,,,,,,408,122,-60.5,1,0,0,response3disk,,5,8,5.5,1,0,0,rectangle,8,5.5,1,0,0,8,5.5,1,0,0,1,126,286,88,1,,,,,,,,
,,,,,,,,,,,,,FF,,,,,,,,0.7565,,,,,,,,,,,,,,,,,,,,,,60fe60dd936bd51ad5938b9f,6103691592396a346169f221,2021-07-29_22h51.28.331,Simcolourproject_2stim_asymm_v5,2020.2.10,Win32,60,61025ae37ef11b136ea224fe,,,,,,,,,3483,-49,-129.5,1,0,0,response5disk,,3,13,-1.5,1,0,0,rectangle,13,-1.5,1,0,0,13,-1.5,1,0,0,1,127,287,89,1,,,,,,,,
,,,,,,,,,,,,,FF,,,,,,,,1.2229,,,,,,,,,,,,,,,,,,,,,,60fe60dd936bd51ad5938b9f,6103691592396a346169f221,2021-07-29_22h51.28.331,Simcolourproject_2stim_asymm_v5,2020.2.10,Win32,60,61025ae37ef11b136ea224fe,,,,,,,,,2683,71,-132.5,1,0,0,response3disk,,4,-14,9.5,1,0,0,rectangle,-14,9.5,1,0,0,-14,9.5,1,0,0,1,128,288,123,1,,,,,,,,
,,,,,,,,,,,,,FF,,,,,,,,0.9722,,,,,,,,,,,,,,,,,,,,,,60fe60dd936bd51ad5938b9f,6103691592396a346169f221,2021-07-29_22h51.28.331,Simcolourproject_2stim_asymm_v5,2020.2.10,Win32,60,61025ae37ef11b136ea224fe,,,,,,,,,1567,109,-71.5,1,0,0,response3disk,,5,5,0.5,1,0,0,rectangle,5,0.5,1,0,0,5,0.5,1,0,0,1,129,289,55,1,,,,,,,,
,,,,,,,,,,,,,FF,,,,,,,,0.7083,,,,,,,,,,,,,,,,,,,,,,60fe60dd936bd51ad5938b9f,6103691592396a346169f221,2021-07-29_22h51.28.331,Simcolourproject_2stim_asymm_v5,2020.2.10,Win32,60,61025ae37ef11b136ea224fe,,,,,,,,,251,-44,-139.5,1,0,0,response5disk,,3,-5,0.5,1,0,0,rectangle,-5,0.5,1,0,0,-5,0.5,1,0,0,1,130,290,64,1,,,,,,,,
,,,,,,,,,,,,,FF,,,,,,,,1.2925,,,,,,,,,,,,,,,,,,,,,,60fe60dd936bd51ad5938b9f,6103691592396a346169f221,2021-07-29_22h51.28.331,Simcolourproject_2stim_asymm_v5,2020.2.10,Win32,60,61025ae37ef11b136ea224fe,,,,,,,,,1532,-56,-130.5,1,0,0,response5disk,,3,-3,4.5,1,0,0,rectangle,-3,4.5,1,0,0,-3,4.5,1,0,0,1,131,291,10,1,,,,,,,,
,,,,,,,,,,,,,FF,,,,,,,,1.6597,,,,,,,,,,,,,,,,,,,,,,60fe60dd936bd51ad5938b9f,6103691592396a346169f221,2021-07-29_22h51.28.331,Simcolourproject_2stim_asymm_v5,2020.2.10,Win32,60,61025ae37ef11b136ea224fe,,,,,,,,,3805,-40,-115.5,1,0,0,response5disk,,3,-9,2.5,1,0,0,rectangle,-9,2.5,1,0,0,-9,2.5,1,0,0,1,132,292,129,1,,,,,,,,
,,,,,,,,,,,,,FF,,,,,,,,2.6109,,,,,,,,,,,,,,,,,,,,,,60fe60dd936bd51ad5938b9f,6103691592396a346169f221,2021-07-29_22h51.28.331,Simcolourproject_2stim_asymm_v5,2020.2.10,Win32,60,61025ae37ef11b136ea224fe,,,,,,,,,1041,114,-56.5,1,0,0,response3disk,,5,-23,1.5,1,0,0,rectangle,-23,1.5,1,0,0,-23,1.5,1,0,0,1,133,293,49,1,,,,,,,,
,,,,,,,,,,,,,FF,,,,,,,,2.3614,,,,,,,,,,,,,,,,,,,,,,60fe60dd936bd51ad5938b9f,6103691592396a346169f221,2021-07-29_22h51.28.331,Simcolourproject_2stim_asymm_v5,2020.2.10,Win32,60,61025ae37ef11b136ea224fe,,,,,,,,,2341,66,-113.5,1,0,0,response3disk,,4,2,1.5,1,0,0,rectangle,2,1.5,1,0,0,2,1.5,1,0,0,1,134,294,139,1,,,,,,,,
,,,,,,,,,,,,,FF,,,,,,,,0.6946,,,,,,,,,,,,,,,,,,,,,,60fe60dd936bd51ad5938b9f,6103691592396a346169f221,2021-07-29_22h51.28.331,Simcolourproject_2stim_asymm_v5,2020.2.10,Win32,60,61025ae37ef11b136ea224fe,,,,,,,,,1154,107,-30.5,1,0,0,response3disk,,5,-9,14.5,1,0,0,rectangle,-9,14.5,1,0,0,-9,14.5,1,0,0,1,135,295,158,1,,,,,,,,
,,,,,,,,,,,,,FF,,,,,,,,1.2847,,,,,,,,,,,,,,,,,,,,,,60fe60dd936bd51ad5938b9f,6103691592396a346169f221,2021-07-29_22h51.28.331,Simcolourproject_2stim_asymm_v5,2020.2.10,Win32,60,61025ae37ef11b136ea224fe,,,,,,,,,3347,88,-134.5,1,0,0,response3disk,,4,-3,3.5,1,0,0,rectangle,-3,3.5,1,0,0,-3,3.5,1,0,0,1,136,296,24,1,,,,,,,,
