key_resp.keys,key_resp.rt,key_resp_14.keys,key_resp_14.rt,key_resp_15.keys,key_resp_15.rt,key_resp_17.keys,key_resp_17.rt,key_resp_9.keys,key_resp_9.rt,key_resp_10.keys,key_resp_10.rt,practice_comparison,Ecc,mouse_5.x,mouse_5.y,mouse_5.leftButton,mouse_5.midButton,mouse_5.rightButton,mouse_5.clicked_name,pracsimilarity,response_time,mouse_10.x,mouse_10.y,mouse_10.leftButton,mouse_10.midButton,mouse_10.rightButton,mouse_10.clicked_name,mouse_7.x,mouse_7.y,mouse_7.leftButton,mouse_7.midButton,mouse_7.rightButton,mouse_6.x,mouse_6.y,mouse_6.leftButton,mouse_6.midButton,mouse_6.rightButton,duringprac.thisRepN,duringprac.thisTrialN,duringprac.thisN,duringprac.thisIndex,duringprac.ran,participant,session,date,expName,psychopyVersion,OS,frameRate,study_id,mouse_7.clicked_name,catchpracsimilarity,catch_response_time,catchnumberprac,catchtrialorderprac,mouse_6.clicked_name,key_resp_22.keys,key_resp_22.rt,realcomparison,mouse.x,mouse.y,mouse.leftButton,mouse.midButton,mouse.rightButton,mouse.clicked_name,Colour2,similarity,mouse_2.x,mouse_2.y,mouse_2.leftButton,mouse_2.midButton,mouse_2.rightButton,mouse_2.clicked_name,mouse_3.x,mouse_3.y,mouse_3.leftButton,mouse_3.midButton,mouse_3.rightButton,mouse_3.clicked_name,catchornah,catchsimilarity,catchnumber,catchtrialorder,catchRT,mouse_11.x,mouse_11.y,mouse_11.leftButton,mouse_11.midButton,mouse_11.rightButton,mouse_11.clicked_name,trials_2.thisRepN,trials_2.thisTrialN,trials_2.thisN,trials_2.thisIndex,trials_2.ran,Colour1
space,4.8338,space,12.064,space,28.1635,space,13.6144,space,2.3327,space,3.5303,93,FF,-41,-63,1,0,0,response5disk_5,3,4.3695,-2,0,1,0,0,rectangle_8,-2,0,1,0,0,-2,0,1,0,0,0,0,0,5,1,60fef35575c913648f573049,61036d4f22b2f12b331285c8,2021-07-29_20h12.44.756,Simcolourproject_2stim_asymm_v5,2020.2.10,Win32,60,61025ae37ef11b136ea224fe,,,,,,,,,,,,,,,,,,,,,,,,,,,,,,,,,,,,,,,,,,,,,,
,,,,,,,,,,,,61,PF,43,-51,1,0,0,response3disk_5,4,4.8495,-13,-1,1,0,0,rectangle_8,-72,-34,1,0,0,5,0,1,0,0,0,1,1,4,1,60fef35575c913648f573049,61036d4f22b2f12b331285c8,2021-07-29_20h12.44.756,Simcolourproject_2stim_asymm_v5,2020.2.10,Win32,60,61025ae37ef11b136ea224fe,response5disk_7,2,2.9673,2,"[2,5]",rectangle_4,,,,,,,,,,,,,,,,,,,,,,,,,,,,,,,,,,,,,,,,
,,,,,,,,,,,,58,FF,88,44,1,0,0,response1disk_5,6,2.4501,3,-3,1,0,0,rectangle_8,3,-3,1,0,0,3,-3,1,0,0,0,2,2,0,1,60fef35575c913648f573049,61036d4f22b2f12b331285c8,2021-07-29_20h12.44.756,Simcolourproject_2stim_asymm_v5,2020.2.10,Win32,60,61025ae37ef11b136ea224fe,,,,,,,,,,,,,,,,,,,,,,,,,,,,,,,,,,,,,,,,,,,,,,
,,,,,,,,,,,,22,FF,44,83,1,0,0,response1disk_5,7,1.2332,4,10,1,0,0,rectangle_8,4,10,1,0,0,4,10,1,0,0,0,3,3,3,1,60fef35575c913648f573049,61036d4f22b2f12b331285c8,2021-07-29_20h12.44.756,Simcolourproject_2stim_asymm_v5,2020.2.10,Win32,60,61025ae37ef11b136ea224fe,,,,,,,,,,,,,,,,,,,,,,,,,,,,,,,,,,,,,,,,,,,,,,
,,,,,,,,,,,,58,PF,99,-33,1,0,0,response3disk_5,5,8.4158,-5,6,1,0,0,rectangle_8,-84,-32,1,0,0,1,5,1,0,0,0,4,4,6,1,60fef35575c913648f573049,61036d4f22b2f12b331285c8,2021-07-29_20h12.44.756,Simcolourproject_2stim_asymm_v5,2020.2.10,Win32,60,61025ae37ef11b136ea224fe,response5disk_7,2,1.7828,2,"[2,5]",rectangle_4,,,,,,,,,,,,,,,,,,,,,,,,,,,,,,,,,,,,,,,,
,,,,,,,,,,,,49,PF,22,-61,1,0,0,response3disk_5,4,1.5164,-3,7,1,0,0,rectangle_8,-3,7,1,0,0,-3,7,1,0,0,0,5,5,1,1,60fef35575c913648f573049,61036d4f22b2f12b331285c8,2021-07-29_20h12.44.756,Simcolourproject_2stim_asymm_v5,2020.2.10,Win32,60,61025ae37ef11b136ea224fe,,,,,,,,,,,,,,,,,,,,,,,,,,,,,,,,,,,,,,,,,,,,,,
,,,,,,,,,,,,5,PF,85,29,1,0,0,response1disk_5,6,2.6002,2,-4,1,0,0,rectangle_8,2,-4,1,0,0,2,-4,1,0,0,0,6,6,2,1,60fef35575c913648f573049,61036d4f22b2f12b331285c8,2021-07-29_20h12.44.756,Simcolourproject_2stim_asymm_v5,2020.2.10,Win32,60,61025ae37ef11b136ea224fe,,,,,,,,,,,,,,,,,,,,,,,,,,,,,,,,,,,,,,,,,,,,,,
,,,,,,,,,,,,,FF,,,,,,,,2.7505,,,,,,,,,,,,,,,,,,,,,,60fef35575c913648f573049,61036d4f22b2f12b331285c8,2021-07-29_20h12.44.756,Simcolourproject_2stim_asymm_v5,2020.2.10,Win32,60,61025ae37ef11b136ea224fe,,,,,,,space,3.5805,2494,-77,-56,1,0,0,response5disk,,2,-8,-5,1,0,0,rectangle,74,33,1,0,0,response1disk_3,TRUE,6,6,"[88,62,21,170,134,16,1,85,7,23,184,46,176,191,189,45,44,219,248,259]",2.3666,-2,-2,1,0,0,rectangle,0,0,0,145,1,
,,,,,,,,,,,,,FF,,,,,,,,2.3667,,,,,,,,,,,,,,,,,,,,,,60fef35575c913648f573049,61036d4f22b2f12b331285c8,2021-07-29_20h12.44.756,Simcolourproject_2stim_asymm_v5,2020.2.10,Win32,60,61025ae37ef11b136ea224fe,,,,,,,,,2458,-57,-41,1,0,0,response5disk,,2,14,1,1,0,0,rectangle,14,1,1,0,0,,,,,,,14,1,1,0,0,,0,1,1,108,1,
,,,,,,,,,,,,,FF,,,,,,,,3.2001,,,,,,,,,,,,,,,,,,,,,,60fef35575c913648f573049,61036d4f22b2f12b331285c8,2021-07-29_20h12.44.756,Simcolourproject_2stim_asymm_v5,2020.2.10,Win32,60,61025ae37ef11b136ea224fe,,,,,,,,,42,71,-44,1,0,0,response3disk,,5,7,-9,1,0,0,rectangle,7,-9,1,0,0,,,,,,,7,-9,1,0,0,,0,2,2,159,1,
,,,,,,,,,,,,,FF,,,,,,,,1.2497,,,,,,,,,,,,,,,,,,,,,,60fef35575c913648f573049,61036d4f22b2f12b331285c8,2021-07-29_20h12.44.756,Simcolourproject_2stim_asymm_v5,2020.2.10,Win32,60,61025ae37ef11b136ea224fe,,,,,,,,,2455,63,32,1,0,0,response1disk,,6,-2,-2,1,0,0,rectangle,-2,-2,1,0,0,,,,,,,-2,-2,1,0,0,,0,3,3,154,1,
,,,,,,,,,,,,,FF,,,,,,,,1.903,,,,,,,,,,,,,,,,,,,,,,60fef35575c913648f573049,61036d4f22b2f12b331285c8,2021-07-29_20h12.44.756,Simcolourproject_2stim_asymm_v5,2020.2.10,Win32,60,61025ae37ef11b136ea224fe,,,,,,,,,131,57,33,1,0,0,response1disk,,6,-3,-14,1,0,0,rectangle,-3,-14,1,0,0,,,,,,,-3,-14,1,0,0,,0,4,4,22,1,
,,,,,,,,,,,,,FF,,,,,,,,1.2485,,,,,,,,,,,,,,,,,,,,,,60fef35575c913648f573049,61036d4f22b2f12b331285c8,2021-07-29_20h12.44.756,Simcolourproject_2stim_asymm_v5,2020.2.10,Win32,60,61025ae37ef11b136ea224fe,,,,,,,,,1095,55,-43,1,0,0,response3disk,,5,7,-2,1,0,0,rectangle,7,-2,1,0,0,,,,,,,7,-2,1,0,0,,0,5,5,81,1,
,,,,,,,,,,,,,FF,,,,,,,,1.1999,,,,,,,,,,,,,,,,,,,,,,60fef35575c913648f573049,61036d4f22b2f12b331285c8,2021-07-29_20h12.44.756,Simcolourproject_2stim_asymm_v5,2020.2.10,Win32,60,61025ae37ef11b136ea224fe,,,,,,,,,3265,102,-38,1,0,0,response3disk,,5,12,-5,1,0,0,rectangle,-87,31,1,0,0,response7disk_3,TRUE,1,1,"[88,62,21,170,134,16,1,85,7,23,184,46,176,191,189,45,44,219,248,259]",1.851,4,2,1,0,0,rectangle,0,6,6,99,1,
,,,,,,,,,,,,,FF,,,,,,,,1.782,,,,,,,,,,,,,,,,,,,,,,60fef35575c913648f573049,61036d4f22b2f12b331285c8,2021-07-29_20h12.44.756,Simcolourproject_2stim_asymm_v5,2020.2.10,Win32,60,61025ae37ef11b136ea224fe,,,,,,,,,3834,50,-77,1,0,0,response3disk,,4,-1,0,1,0,0,rectangle,-1,0,1,0,0,,,,,,,-1,0,1,0,0,,0,7,7,150,1,
,,,,,,,,,,,,,FF,,,,,,,,1.9509,,,,,,,,,,,,,,,,,,,,,,60fef35575c913648f573049,61036d4f22b2f12b331285c8,2021-07-29_20h12.44.756,Simcolourproject_2stim_asymm_v5,2020.2.10,Win32,60,61025ae37ef11b136ea224fe,,,,,,,,,753,52,76,1,0,0,response1disk,,7,-3,-9,1,0,0,rectangle,-3,-9,1,0,0,,,,,,,-3,-9,1,0,0,,0,8,8,132,1,
,,,,,,,,,,,,,FF,,,,,,,,1.1496,,,,,,,,,,,,,,,,,,,,,,60fef35575c913648f573049,61036d4f22b2f12b331285c8,2021-07-29_20h12.44.756,Simcolourproject_2stim_asymm_v5,2020.2.10,Win32,60,61025ae37ef11b136ea224fe,,,,,,,,,3891,68,-40,1,0,0,response3disk,,5,-2,-1,1,0,0,rectangle,-2,-1,1,0,0,,,,,,,-2,-1,1,0,0,,0,9,9,20,1,
,,,,,,,,,,,,,FF,,,,,,,,1.0668,,,,,,,,,,,,,,,,,,,,,,60fef35575c913648f573049,61036d4f22b2f12b331285c8,2021-07-29_20h12.44.756,Simcolourproject_2stim_asymm_v5,2020.2.10,Win32,60,61025ae37ef11b136ea224fe,,,,,,,,,500,38,63,1,0,0,response1disk,,7,-5,0,1,0,0,rectangle,-5,0,1,0,0,,,,,,,-5,0,1,0,0,,0,10,10,51,1,
,,,,,,,,,,,,,FF,,,,,,,,2.6182,,,,,,,,,,,,,,,,,,,,,,60fef35575c913648f573049,61036d4f22b2f12b331285c8,2021-07-29_20h12.44.756,Simcolourproject_2stim_asymm_v5,2020.2.10,Win32,60,61025ae37ef11b136ea224fe,,,,,,,,,612,-82,-51,1,0,0,response5disk,,2,-9,1,1,0,0,rectangle,-9,1,1,0,0,,,,,,,-9,1,1,0,0,,0,11,11,134,1,
,,,,,,,,,,,,,FF,,,,,,,,1.2998,,,,,,,,,,,,,,,,,,,,,,60fef35575c913648f573049,61036d4f22b2f12b331285c8,2021-07-29_20h12.44.756,Simcolourproject_2stim_asymm_v5,2020.2.10,Win32,60,61025ae37ef11b136ea224fe,,,,,,,,,2406,31,-44,1,0,0,response3disk,,4,6,-3,1,0,0,rectangle,6,-3,1,0,0,,,,,,,6,-3,1,0,0,,0,12,12,97,1,
,,,,,,,,,,,,,FF,,,,,,,,1.1503,,,,,,,,,,,,,,,,,,,,,,60fef35575c913648f573049,61036d4f22b2f12b331285c8,2021-07-29_20h12.44.756,Simcolourproject_2stim_asymm_v5,2020.2.10,Win32,60,61025ae37ef11b136ea224fe,,,,,,,,,3768,77,-35,1,0,0,response3disk,,5,11,-2,1,0,0,rectangle,11,-2,1,0,0,,,,,,,11,-2,1,0,0,,0,13,13,95,1,
,,,,,,,,,,,,,FF,,,,,,,,0.8665,,,,,,,,,,,,,,,,,,,,,,60fef35575c913648f573049,61036d4f22b2f12b331285c8,2021-07-29_20h12.44.756,Simcolourproject_2stim_asymm_v5,2020.2.10,Win32,60,61025ae37ef11b136ea224fe,,,,,,,,,1793,84,33,1,0,0,response1disk,,6,10,3,1,0,0,rectangle,10,3,1,0,0,,,,,,,10,3,1,0,0,,0,14,14,117,1,
,,,,,,,,,,,,,FF,,,,,,,,1.4329,,,,,,,,,,,,,,,,,,,,,,60fef35575c913648f573049,61036d4f22b2f12b331285c8,2021-07-29_20h12.44.756,Simcolourproject_2stim_asymm_v5,2020.2.10,Win32,60,61025ae37ef11b136ea224fe,,,,,,,,,892,-86,-30,1,0,0,response5disk,,2,-7,3,1,0,0,rectangle,-44,77,1,0,0,response7disk_3,TRUE,0,0,"[88,62,21,170,134,16,1,85,7,23,184,46,176,191,189,45,44,219,248,259]",1.7829,-2,-2,1,0,0,rectangle,0,15,15,87,1,
,,,,,,,,,,,,,FF,,,,,,,,0.9838,,,,,,,,,,,,,,,,,,,,,,60fef35575c913648f573049,61036d4f22b2f12b331285c8,2021-07-29_20h12.44.756,Simcolourproject_2stim_asymm_v5,2020.2.10,Win32,60,61025ae37ef11b136ea224fe,,,,,,,,,3322,87,46,1,0,0,response1disk,,6,11,1,1,0,0,rectangle,11,1,1,0,0,,,,,,,11,1,1,0,0,,0,16,16,63,1,
,,,,,,,,,,,,,FF,,,,,,,,1.0669,,,,,,,,,,,,,,,,,,,,,,60fef35575c913648f573049,61036d4f22b2f12b331285c8,2021-07-29_20h12.44.756,Simcolourproject_2stim_asymm_v5,2020.2.10,Win32,60,61025ae37ef11b136ea224fe,,,,,,,,,2895,51,-48,1,0,0,response3disk,,5,12,-12,1,0,0,rectangle,12,-12,1,0,0,,,,,,,12,-12,1,0,0,,0,17,17,44,1,
,,,,,,,,,,,,,FF,,,,,,,,1.6331,,,,,,,,,,,,,,,,,,,,,,60fef35575c913648f573049,61036d4f22b2f12b331285c8,2021-07-29_20h12.44.756,Simcolourproject_2stim_asymm_v5,2020.2.10,Win32,60,61025ae37ef11b136ea224fe,,,,,,,,,3970,-82,43,1,0,0,response7disk,,1,-18,0,1,0,0,rectangle,-18,0,1,0,0,,,,,,,-18,0,1,0,0,,0,18,18,139,1,
,,,,,,,,,,,,,FF,,,,,,,,1.8501,,,,,,,,,,,,,,,,,,,,,,60fef35575c913648f573049,61036d4f22b2f12b331285c8,2021-07-29_20h12.44.756,Simcolourproject_2stim_asymm_v5,2020.2.10,Win32,60,61025ae37ef11b136ea224fe,,,,,,,,,2729,-78,-37,1,0,0,response5disk,,2,-4,3,1,0,0,rectangle,-4,3,1,0,0,,,,,,,-4,3,1,0,0,,0,19,19,77,1,
,,,,,,,,,,,,,FF,,,,,,,,1.1362,,,,,,,,,,,,,,,,,,,,,,60fef35575c913648f573049,61036d4f22b2f12b331285c8,2021-07-29_20h12.44.756,Simcolourproject_2stim_asymm_v5,2020.2.10,Win32,60,61025ae37ef11b136ea224fe,,,,,,,,,888,51,-37,1,0,0,response3disk,,5,-7,0,1,0,0,rectangle,-73,41,1,0,0,response7disk_3,TRUE,1,1,"[88,62,21,170,134,16,1,85,7,23,184,46,176,191,189,45,44,219,248,259]",1.5138,-7,-6,1,0,0,rectangle,0,20,20,153,1,
,,,,,,,,,,,,,FF,,,,,,,,0.9149,,,,,,,,,,,,,,,,,,,,,,60fef35575c913648f573049,61036d4f22b2f12b331285c8,2021-07-29_20h12.44.756,Simcolourproject_2stim_asymm_v5,2020.2.10,Win32,60,61025ae37ef11b136ea224fe,,,,,,,,,2587,75,-22,1,0,0,response3disk,,5,-5,2,1,0,0,rectangle,-5,2,1,0,0,,,,,,,-5,2,1,0,0,,0,21,21,113,1,
,,,,,,,,,,,,,FF,,,,,,,,0.983,,,,,,,,,,,,,,,,,,,,,,60fef35575c913648f573049,61036d4f22b2f12b331285c8,2021-07-29_20h12.44.756,Simcolourproject_2stim_asymm_v5,2020.2.10,Win32,60,61025ae37ef11b136ea224fe,,,,,,,,,4237,-31,86,1,0,0,response7disk,,0,5,-5,1,0,0,rectangle,24,79,1,0,0,response1disk_3,TRUE,7,7,"[88,62,21,170,134,16,1,85,7,23,184,46,176,191,189,45,44,219,248,259]",1.6827,-4,-9,1,0,0,rectangle,0,22,22,59,1,
,,,,,,,,,,,,,FF,,,,,,,,1.4668,,,,,,,,,,,,,,,,,,,,,,60fef35575c913648f573049,61036d4f22b2f12b331285c8,2021-07-29_20h12.44.756,Simcolourproject_2stim_asymm_v5,2020.2.10,Win32,60,61025ae37ef11b136ea224fe,,,,,,,,,2074,52,-33,1,0,0,response3disk,,5,-1,2,1,0,0,rectangle,-1,2,1,0,0,,,,,,,-1,2,1,0,0,,0,23,23,21,1,
,,,,,,,,,,,,,FF,,,,,,,,0.9829,,,,,,,,,,,,,,,,,,,,,,60fef35575c913648f573049,61036d4f22b2f12b331285c8,2021-07-29_20h12.44.756,Simcolourproject_2stim_asymm_v5,2020.2.10,Win32,60,61025ae37ef11b136ea224fe,,,,,,,,,3496,52,-30,1,0,0,response3disk,,5,11,-2,1,0,0,rectangle,11,-2,1,0,0,,,,,,,11,-2,1,0,0,,0,24,24,119,1,
,,,,,,,,,,,,,FF,,,,,,,,0.7498,,,,,,,,,,,,,,,,,,,,,,60fef35575c913648f573049,61036d4f22b2f12b331285c8,2021-07-29_20h12.44.756,Simcolourproject_2stim_asymm_v5,2020.2.10,Win32,60,61025ae37ef11b136ea224fe,,,,,,,,,2197,79,41,1,0,0,response1disk,,6,10,10,1,0,0,rectangle,10,10,1,0,0,,,,,,,10,10,1,0,0,,0,25,25,27,1,
,,,,,,,,,,,,,FF,,,,,,,,1.7166,,,,,,,,,,,,,,,,,,,,,,60fef35575c913648f573049,61036d4f22b2f12b331285c8,2021-07-29_20h12.44.756,Simcolourproject_2stim_asymm_v5,2020.2.10,Win32,60,61025ae37ef11b136ea224fe,,,,,,,,,1554,70,-40,1,0,0,response3disk,,5,0,-2,1,0,0,rectangle,0,-2,1,0,0,,,,,,,0,-2,1,0,0,,0,26,26,121,1,
,,,,,,,,,,,,,FF,,,,,,,,1.083,,,,,,,,,,,,,,,,,,,,,,60fef35575c913648f573049,61036d4f22b2f12b331285c8,2021-07-29_20h12.44.756,Simcolourproject_2stim_asymm_v5,2020.2.10,Win32,60,61025ae37ef11b136ea224fe,,,,,,,,,1089,46,70,1,0,0,response1disk,,7,1,3,1,0,0,rectangle,1,3,1,0,0,,,,,,,1,3,1,0,0,,0,27,27,146,1,
,,,,,,,,,,,,,FF,,,,,,,,0.8334,,,,,,,,,,,,,,,,,,,,,,60fef35575c913648f573049,61036d4f22b2f12b331285c8,2021-07-29_20h12.44.756,Simcolourproject_2stim_asymm_v5,2020.2.10,Win32,60,61025ae37ef11b136ea224fe,,,,,,,,,1638,38,70,1,0,0,response1disk,,7,-3,5,1,0,0,rectangle,-3,5,1,0,0,,,,,,,-3,5,1,0,0,,0,28,28,26,1,
,,,,,,,,,,,,,FF,,,,,,,,0.8501,,,,,,,,,,,,,,,,,,,,,,60fef35575c913648f573049,61036d4f22b2f12b331285c8,2021-07-29_20h12.44.756,Simcolourproject_2stim_asymm_v5,2020.2.10,Win32,60,61025ae37ef11b136ea224fe,,,,,,,,,3500,44,72,1,0,0,response1disk,,7,8,13,1,0,0,rectangle,8,13,1,0,0,,,,,,,8,13,1,0,0,,0,29,29,11,1,
,,,,,,,,,,,,,FF,,,,,,,,0.6337,,,,,,,,,,,,,,,,,,,,,,60fef35575c913648f573049,61036d4f22b2f12b331285c8,2021-07-29_20h12.44.756,Simcolourproject_2stim_asymm_v5,2020.2.10,Win32,60,61025ae37ef11b136ea224fe,,,,,,,,,1643,50,63,1,0,0,response1disk,,7,1,6,1,0,0,rectangle,1,6,1,0,0,,,,,,,1,6,1,0,0,,0,30,30,147,1,
,,,,,,,,,,,,,FF,,,,,,,,2.8499,,,,,,,,,,,,,,,,,,,,,,60fef35575c913648f573049,61036d4f22b2f12b331285c8,2021-07-29_20h12.44.756,Simcolourproject_2stim_asymm_v5,2020.2.10,Win32,60,61025ae37ef11b136ea224fe,,,,,,,,,3546,61,31,1,0,0,response1disk,,6,-6,-1,1,0,0,rectangle,-6,-1,1,0,0,,,,,,,-6,-1,1,0,0,,0,31,31,70,1,
,,,,,,,,,,,,,FF,,,,,,,,1.1831,,,,,,,,,,,,,,,,,,,,,,60fef35575c913648f573049,61036d4f22b2f12b331285c8,2021-07-29_20h12.44.756,Simcolourproject_2stim_asymm_v5,2020.2.10,Win32,60,61025ae37ef11b136ea224fe,,,,,,,,,1040,-38,-105,1,0,0,response5disk,,3,11,12,1,0,0,rectangle,11,12,1,0,0,,,,,,,11,12,1,0,0,,0,32,32,71,1,
,,,,,,,,,,,,,FF,,,,,,,,1.183,,,,,,,,,,,,,,,,,,,,,,60fef35575c913648f573049,61036d4f22b2f12b331285c8,2021-07-29_20h12.44.756,Simcolourproject_2stim_asymm_v5,2020.2.10,Win32,60,61025ae37ef11b136ea224fe,,,,,,,,,2764,77,26,1,0,0,response1disk,,6,-10,-3,1,0,0,rectangle,-10,-3,1,0,0,,,,,,,-10,-3,1,0,0,,0,33,33,29,1,
,,,,,,,,,,,,,FF,,,,,,,,1.5003,,,,,,,,,,,,,,,,,,,,,,60fef35575c913648f573049,61036d4f22b2f12b331285c8,2021-07-29_20h12.44.756,Simcolourproject_2stim_asymm_v5,2020.2.10,Win32,60,61025ae37ef11b136ea224fe,,,,,,,,,3565,-37,-66,1,0,0,response5disk,,3,4,-7,1,0,0,rectangle,4,-7,1,0,0,,,,,,,4,-7,1,0,0,,0,34,34,75,1,
,,,,,,,,,,,,,FF,,,,,,,,0.8835,,,,,,,,,,,,,,,,,,,,,,60fef35575c913648f573049,61036d4f22b2f12b331285c8,2021-07-29_20h12.44.756,Simcolourproject_2stim_asymm_v5,2020.2.10,Win32,60,61025ae37ef11b136ea224fe,,,,,,,,,1819,-100,-40,1,0,0,response5disk,,2,-1,2,1,0,0,rectangle,-1,2,1,0,0,,,,,,,-1,2,1,0,0,,0,35,35,69,1,
,,,,,,,,,,,,,FF,,,,,,,,1.2499,,,,,,,,,,,,,,,,,,,,,,60fef35575c913648f573049,61036d4f22b2f12b331285c8,2021-07-29_20h12.44.756,Simcolourproject_2stim_asymm_v5,2020.2.10,Win32,60,61025ae37ef11b136ea224fe,,,,,,,,,4146,-75,43,1,0,0,response7disk,,1,-18,5,1,0,0,rectangle,-18,5,1,0,0,,,,,,,-18,5,1,0,0,,0,36,36,140,1,
,,,,,,,,,,,,,FF,,,,,,,,1.7666,,,,,,,,,,,,,,,,,,,,,,60fef35575c913648f573049,61036d4f22b2f12b331285c8,2021-07-29_20h12.44.756,Simcolourproject_2stim_asymm_v5,2020.2.10,Win32,60,61025ae37ef11b136ea224fe,,,,,,,,,1272,53,28,1,0,0,response1disk,,6,-7,-3,1,0,0,rectangle,-7,-3,1,0,0,,,,,,,-7,-3,1,0,0,,0,37,37,88,1,
,,,,,,,,,,,,,FF,,,,,,,,0.7328,,,,,,,,,,,,,,,,,,,,,,60fef35575c913648f573049,61036d4f22b2f12b331285c8,2021-07-29_20h12.44.756,Simcolourproject_2stim_asymm_v5,2020.2.10,Win32,60,61025ae37ef11b136ea224fe,,,,,,,,,4235,-40,78,1,0,0,response7disk,,0,-1,-4,1,0,0,rectangle,-1,-4,1,0,0,,,,,,,-1,-4,1,0,0,,0,38,38,15,1,
,,,,,,,,,,,,,FF,,,,,,,,1.1502,,,,,,,,,,,,,,,,,,,,,,60fef35575c913648f573049,61036d4f22b2f12b331285c8,2021-07-29_20h12.44.756,Simcolourproject_2stim_asymm_v5,2020.2.10,Win32,60,61025ae37ef11b136ea224fe,,,,,,,,,4031,-36,-52,1,0,0,response5disk,,3,8,4,1,0,0,rectangle,8,4,1,0,0,,,,,,,8,4,1,0,0,,0,39,39,155,1,
,,,,,,,,,,,,,FF,,,,,,,,1.0668,,,,,,,,,,,,,,,,,,,,,,60fef35575c913648f573049,61036d4f22b2f12b331285c8,2021-07-29_20h12.44.756,Simcolourproject_2stim_asymm_v5,2020.2.10,Win32,60,61025ae37ef11b136ea224fe,,,,,,,,,3214,82,19,1,0,0,response1disk,,6,3,-15,1,0,0,rectangle,3,-15,1,0,0,,,,,,,3,-15,1,0,0,,0,40,40,35,1,
,,,,,,,,,,,,,FF,,,,,,,,1.1,,,,,,,,,,,,,,,,,,,,,,60fef35575c913648f573049,61036d4f22b2f12b331285c8,2021-07-29_20h12.44.756,Simcolourproject_2stim_asymm_v5,2020.2.10,Win32,60,61025ae37ef11b136ea224fe,,,,,,,,,2361,-74,39,1,0,0,response7disk,,1,5,-1,1,0,0,rectangle,5,-1,1,0,0,,,,,,,5,-1,1,0,0,,0,41,41,112,1,
,,,,,,,,,,,,,FF,,,,,,,,0.7165,,,,,,,,,,,,,,,,,,,,,,60fef35575c913648f573049,61036d4f22b2f12b331285c8,2021-07-29_20h12.44.756,Simcolourproject_2stim_asymm_v5,2020.2.10,Win32,60,61025ae37ef11b136ea224fe,,,,,,,,,3744,-62,22,1,0,0,response7disk,,1,-11,-3,1,0,0,rectangle,-11,-3,1,0,0,,,,,,,-11,-3,1,0,0,,0,42,42,110,1,
,,,,,,,,,,,,,FF,,,,,,,,0.9328,,,,,,,,,,,,,,,,,,,,,,60fef35575c913648f573049,61036d4f22b2f12b331285c8,2021-07-29_20h12.44.756,Simcolourproject_2stim_asymm_v5,2020.2.10,Win32,60,61025ae37ef11b136ea224fe,,,,,,,,,1090,26,57,1,0,0,response1disk,,7,-10,7,1,0,0,rectangle,60,47,1,0,0,response1disk_3,TRUE,6,6,"[88,62,21,170,134,16,1,85,7,23,184,46,176,191,189,45,44,219,248,259]",1.8663,-5,-4,1,0,0,rectangle,0,43,43,98,1,
,,,,,,,,,,,,,FF,,,,,,,,1.1666,,,,,,,,,,,,,,,,,,,,,,60fef35575c913648f573049,61036d4f22b2f12b331285c8,2021-07-29_20h12.44.756,Simcolourproject_2stim_asymm_v5,2020.2.10,Win32,60,61025ae37ef11b136ea224fe,,,,,,,,,1549,72,-53,1,0,0,response3disk,,5,0,0,1,0,0,rectangle,75,40,1,0,0,response1disk_3,TRUE,6,6,"[88,62,21,170,134,16,1,85,7,23,184,46,176,191,189,45,44,219,248,259]",1.6997,2,5,1,0,0,rectangle,0,44,44,0,1,
,,,,,,,,,,,,,FF,,,,,,,,1.1498,,,,,,,,,,,,,,,,,,,,,,60fef35575c913648f573049,61036d4f22b2f12b331285c8,2021-07-29_20h12.44.756,Simcolourproject_2stim_asymm_v5,2020.2.10,Win32,60,61025ae37ef11b136ea224fe,,,,,,,,,1829,-48,-59,1,0,0,response5disk,,3,0,7,1,0,0,rectangle,32,-69,1,0,0,response3disk_3,TRUE,4,4,"[88,62,21,170,134,16,1,85,7,23,184,46,176,191,189,45,44,219,248,259]",1.5335,2,1,1,0,0,rectangle,0,45,45,7,1,
,,,,,,,,,,,,,FF,,,,,,,,2.0496,,,,,,,,,,,,,,,,,,,,,,60fef35575c913648f573049,61036d4f22b2f12b331285c8,2021-07-29_20h12.44.756,Simcolourproject_2stim_asymm_v5,2020.2.10,Win32,60,61025ae37ef11b136ea224fe,,,,,,,,,1920,53,94,1,0,0,response1disk,,7,-5,0,1,0,0,rectangle,-5,0,1,0,0,,,,,,,-5,0,1,0,0,,0,46,46,115,1,
,,,,,,,,,,,,,FF,,,,,,,,1.2002,,,,,,,,,,,,,,,,,,,,,,60fef35575c913648f573049,61036d4f22b2f12b331285c8,2021-07-29_20h12.44.756,Simcolourproject_2stim_asymm_v5,2020.2.10,Win32,60,61025ae37ef11b136ea224fe,,,,,,,,,3712,-61,-63,1,0,0,response5disk,,3,-7,-1,1,0,0,rectangle,-7,-1,1,0,0,,,,,,,-7,-1,1,0,0,,0,47,47,96,1,
,,,,,,,,,,,,,FF,,,,,,,,1.1999,,,,,,,,,,,,,,,,,,,,,,60fef35575c913648f573049,61036d4f22b2f12b331285c8,2021-07-29_20h12.44.756,Simcolourproject_2stim_asymm_v5,2020.2.10,Win32,60,61025ae37ef11b136ea224fe,,,,,,,,,3435,-49,-56,1,0,0,response5disk,,3,5,2,1,0,0,rectangle,5,2,1,0,0,,,,,,,5,2,1,0,0,,0,48,48,9,1,
,,,,,,,,,,,,,FF,,,,,,,,1.0492,,,,,,,,,,,,,,,,,,,,,,60fef35575c913648f573049,61036d4f22b2f12b331285c8,2021-07-29_20h12.44.756,Simcolourproject_2stim_asymm_v5,2020.2.10,Win32,60,61025ae37ef11b136ea224fe,,,,,,,,,2214,62,54,1,0,0,response1disk,,6,-2,0,1,0,0,rectangle,-2,0,1,0,0,,,,,,,-2,0,1,0,0,,0,49,49,148,1,
,,,,,,,,,,,,,FF,,,,,,,,0.8502,,,,,,,,,,,,,,,,,,,,,,60fef35575c913648f573049,61036d4f22b2f12b331285c8,2021-07-29_20h12.44.756,Simcolourproject_2stim_asymm_v5,2020.2.10,Win32,60,61025ae37ef11b136ea224fe,,,,,,,,,579,69,35,1,0,0,response1disk,,6,19,7,1,0,0,rectangle,19,7,1,0,0,,,,,,,19,7,1,0,0,,0,50,50,143,1,
,,,,,,,,,,,,,FF,,,,,,,,1.4164,,,,,,,,,,,,,,,,,,,,,,60fef35575c913648f573049,61036d4f22b2f12b331285c8,2021-07-29_20h12.44.756,Simcolourproject_2stim_asymm_v5,2020.2.10,Win32,60,61025ae37ef11b136ea224fe,,,,,,,,,3037,-27,50,1,0,0,response7disk,,0,-10,8,1,0,0,rectangle,-10,8,1,0,0,,,,,,,-10,8,1,0,0,,0,51,51,65,1,
,,,,,,,,,,,,,FF,,,,,,,,0.8997,,,,,,,,,,,,,,,,,,,,,,60fef35575c913648f573049,61036d4f22b2f12b331285c8,2021-07-29_20h12.44.756,Simcolourproject_2stim_asymm_v5,2020.2.10,Win32,60,61025ae37ef11b136ea224fe,,,,,,,,,3358,43,63,1,0,0,response1disk,,7,-2,-1,1,0,0,rectangle,-2,-1,1,0,0,,,,,,,-2,-1,1,0,0,,0,52,52,33,1,
,,,,,,,,,,,,,FF,,,,,,,,0.9164,,,,,,,,,,,,,,,,,,,,,,60fef35575c913648f573049,61036d4f22b2f12b331285c8,2021-07-29_20h12.44.756,Simcolourproject_2stim_asymm_v5,2020.2.10,Win32,60,61025ae37ef11b136ea224fe,,,,,,,,,631,-71,-47,1,0,0,response5disk,,2,-1,8,1,0,0,rectangle,-1,8,1,0,0,,,,,,,-1,8,1,0,0,,0,53,53,156,1,
,,,,,,,,,,,,,FF,,,,,,,,0.9331,,,,,,,,,,,,,,,,,,,,,,60fef35575c913648f573049,61036d4f22b2f12b331285c8,2021-07-29_20h12.44.756,Simcolourproject_2stim_asymm_v5,2020.2.10,Win32,60,61025ae37ef11b136ea224fe,,,,,,,,,2507,64,47,1,0,0,response1disk,,6,5,8,1,0,0,rectangle,5,8,1,0,0,,,,,,,5,8,1,0,0,,0,54,54,152,1,
,,,,,,,,,,,,,FF,,,,,,,,0.7994,,,,,,,,,,,,,,,,,,,,,,60fef35575c913648f573049,61036d4f22b2f12b331285c8,2021-07-29_20h12.44.756,Simcolourproject_2stim_asymm_v5,2020.2.10,Win32,60,61025ae37ef11b136ea224fe,,,,,,,,,2917,24,66,1,0,0,response1disk,,7,-9,11,1,0,0,rectangle,-9,11,1,0,0,,,,,,,-9,11,1,0,0,,0,55,55,30,1,
,,,,,,,,,,,,,FF,,,,,,,,1.0337,,,,,,,,,,,,,,,,,,,,,,60fef35575c913648f573049,61036d4f22b2f12b331285c8,2021-07-29_20h12.44.756,Simcolourproject_2stim_asymm_v5,2020.2.10,Win32,60,61025ae37ef11b136ea224fe,,,,,,,,,2720,-47,-61,1,0,0,response5disk,,3,4,4,1,0,0,rectangle,4,4,1,0,0,,,,,,,4,4,1,0,0,,0,56,56,136,1,
,,,,,,,,,,,,,FF,,,,,,,,1.4498,,,,,,,,,,,,,,,,,,,,,,60fef35575c913648f573049,61036d4f22b2f12b331285c8,2021-07-29_20h12.44.756,Simcolourproject_2stim_asymm_v5,2020.2.10,Win32,60,61025ae37ef11b136ea224fe,,,,,,,,,2783,56,-72,1,0,0,response3disk,,4,10,1,1,0,0,rectangle,10,1,1,0,0,,,,,,,10,1,1,0,0,,0,57,57,36,1,
,,,,,,,,,,,,,FF,,,,,,,,1.233,,,,,,,,,,,,,,,,,,,,,,60fef35575c913648f573049,61036d4f22b2f12b331285c8,2021-07-29_20h12.44.756,Simcolourproject_2stim_asymm_v5,2020.2.10,Win32,60,61025ae37ef11b136ea224fe,,,,,,,,,22,25,55,1,0,0,response1disk,,7,-12,-10,1,0,0,rectangle,-12,-10,1,0,0,,,,,,,-12,-10,1,0,0,,0,58,58,151,1,
,,,,,,,,,,,,,FF,,,,,,,,0.95,,,,,,,,,,,,,,,,,,,,,,60fef35575c913648f573049,61036d4f22b2f12b331285c8,2021-07-29_20h12.44.756,Simcolourproject_2stim_asymm_v5,2020.2.10,Win32,60,61025ae37ef11b136ea224fe,,,,,,,,,1241,40,50,1,0,0,response1disk,,7,8,-14,1,0,0,rectangle,8,-14,1,0,0,,,,,,,8,-14,1,0,0,,0,59,59,142,1,
,,,,,,,,,,,,,FF,,,,,,,,0.6665,,,,,,,,,,,,,,,,,,,,,,60fef35575c913648f573049,61036d4f22b2f12b331285c8,2021-07-29_20h12.44.756,Simcolourproject_2stim_asymm_v5,2020.2.10,Win32,60,61025ae37ef11b136ea224fe,,,,,,,,,674,23,58,1,0,0,response1disk,,7,-8,-2,1,0,0,rectangle,-8,-2,1,0,0,,,,,,,-8,-2,1,0,0,,0,60,60,54,1,
,,,,,,,,,,,,,FF,,,,,,,,0.8832,,,,,,,,,,,,,,,,,,,,,,60fef35575c913648f573049,61036d4f22b2f12b331285c8,2021-07-29_20h12.44.756,Simcolourproject_2stim_asymm_v5,2020.2.10,Win32,60,61025ae37ef11b136ea224fe,,,,,,,,,3541,38,82,1,0,0,response1disk,,7,3,7,1,0,0,rectangle,-72,38,1,0,0,response7disk_3,TRUE,1,1,"[88,62,21,170,134,16,1,85,7,23,184,46,176,191,189,45,44,219,248,259]",1.4501,-11,6,1,0,0,rectangle,0,61,61,62,1,
,,,,,,,,,,,,,FF,,,,,,,,0.8665,,,,,,,,,,,,,,,,,,,,,,60fef35575c913648f573049,61036d4f22b2f12b331285c8,2021-07-29_20h12.44.756,Simcolourproject_2stim_asymm_v5,2020.2.10,Win32,60,61025ae37ef11b136ea224fe,,,,,,,,,2067,36,69,1,0,0,response1disk,,7,5,9,1,0,0,rectangle,5,9,1,0,0,,,,,,,5,9,1,0,0,,0,62,62,66,1,
,,,,,,,,,,,,,FF,,,,,,,,0.7338,,,,,,,,,,,,,,,,,,,,,,60fef35575c913648f573049,61036d4f22b2f12b331285c8,2021-07-29_20h12.44.756,Simcolourproject_2stim_asymm_v5,2020.2.10,Win32,60,61025ae37ef11b136ea224fe,,,,,,,,,1990,42,79,1,0,0,response1disk,,7,7,4,1,0,0,rectangle,7,4,1,0,0,,,,,,,7,4,1,0,0,,0,63,63,116,1,
,,,,,,,,,,,,,FF,,,,,,,,1.0833,,,,,,,,,,,,,,,,,,,,,,60fef35575c913648f573049,61036d4f22b2f12b331285c8,2021-07-29_20h12.44.756,Simcolourproject_2stim_asymm_v5,2020.2.10,Win32,60,61025ae37ef11b136ea224fe,,,,,,,,,1142,53,37,1,0,0,response1disk,,6,-8,10,1,0,0,rectangle,-8,10,1,0,0,,,,,,,-8,10,1,0,0,,0,64,64,123,1,
,,,,,,,,,,,,,FF,,,,,,,,1.9163,,,,,,,,,,,,,,,,,,,,,,60fef35575c913648f573049,61036d4f22b2f12b331285c8,2021-07-29_20h12.44.756,Simcolourproject_2stim_asymm_v5,2020.2.10,Win32,60,61025ae37ef11b136ea224fe,,,,,,,,,975,29,-70,1,0,0,response3disk,,4,3,-7,1,0,0,rectangle,3,-7,1,0,0,,,,,,,3,-7,1,0,0,,0,65,65,53,1,
,,,,,,,,,,,,,FF,,,,,,,,1.0496,,,,,,,,,,,,,,,,,,,,,,60fef35575c913648f573049,61036d4f22b2f12b331285c8,2021-07-29_20h12.44.756,Simcolourproject_2stim_asymm_v5,2020.2.10,Win32,60,61025ae37ef11b136ea224fe,,,,,,,,,3926,36,47,1,0,0,response1disk,,7,11,15,1,0,0,rectangle,11,15,1,0,0,,,,,,,11,15,1,0,0,,0,66,66,102,1,
,,,,,,,,,,,,,FF,,,,,,,,0.65,,,,,,,,,,,,,,,,,,,,,,60fef35575c913648f573049,61036d4f22b2f12b331285c8,2021-07-29_20h12.44.756,Simcolourproject_2stim_asymm_v5,2020.2.10,Win32,60,61025ae37ef11b136ea224fe,,,,,,,,,3961,33,74,1,0,0,response1disk,,7,-5,1,1,0,0,rectangle,-5,1,1,0,0,,,,,,,-5,1,1,0,0,,0,67,67,80,1,
,,,,,,,,,,,,,FF,,,,,,,,1.4833,,,,,,,,,,,,,,,,,,,,,,60fef35575c913648f573049,61036d4f22b2f12b331285c8,2021-07-29_20h12.44.756,Simcolourproject_2stim_asymm_v5,2020.2.10,Win32,60,61025ae37ef11b136ea224fe,,,,,,,,,2629,71,-58,1,0,0,response3disk,,5,6,-8,1,0,0,rectangle,6,-8,1,0,0,,,,,,,6,-8,1,0,0,,0,68,68,157,1,
,,,,,,,,,,,,,FF,,,,,,,,0.8502,,,,,,,,,,,,,,,,,,,,,,60fef35575c913648f573049,61036d4f22b2f12b331285c8,2021-07-29_20h12.44.756,Simcolourproject_2stim_asymm_v5,2020.2.10,Win32,60,61025ae37ef11b136ea224fe,,,,,,,,,2593,55,-32,1,0,0,response3disk,,5,0,-1,1,0,0,rectangle,0,-1,1,0,0,,,,,,,0,-1,1,0,0,,0,69,69,17,1,
,,,,,,,,,,,,,FF,,,,,,,,1.5169,,,,,,,,,,,,,,,,,,,,,,60fef35575c913648f573049,61036d4f22b2f12b331285c8,2021-07-29_20h12.44.756,Simcolourproject_2stim_asymm_v5,2020.2.10,Win32,60,61025ae37ef11b136ea224fe,,,,,,,,,2416,63,-43,1,0,0,response3disk,,5,-16,-3,1,0,0,rectangle,-16,-3,1,0,0,,,,,,,-16,-3,1,0,0,,0,70,70,61,1,
,,,,,,,,,,,,,FF,,,,,,,,1.2164,,,,,,,,,,,,,,,,,,,,,,60fef35575c913648f573049,61036d4f22b2f12b331285c8,2021-07-29_20h12.44.756,Simcolourproject_2stim_asymm_v5,2020.2.10,Win32,60,61025ae37ef11b136ea224fe,,,,,,,,,1079,41,-60,1,0,0,response3disk,,4,7,-9,1,0,0,rectangle,7,-9,1,0,0,,,,,,,7,-9,1,0,0,,0,71,71,144,1,
,,,,,,,,,,,,,FF,,,,,,,,1.5334,,,,,,,,,,,,,,,,,,,,,,60fef35575c913648f573049,61036d4f22b2f12b331285c8,2021-07-29_20h12.44.756,Simcolourproject_2stim_asymm_v5,2020.2.10,Win32,60,61025ae37ef11b136ea224fe,,,,,,,,,4115,45,38,1,0,0,response1disk,,6,7,11,1,0,0,rectangle,7,11,1,0,0,,,,,,,7,11,1,0,0,,0,72,72,124,1,
,,,,,,,,,,,,,FF,,,,,,,,0.8504,,,,,,,,,,,,,,,,,,,,,,60fef35575c913648f573049,61036d4f22b2f12b331285c8,2021-07-29_20h12.44.756,Simcolourproject_2stim_asymm_v5,2020.2.10,Win32,60,61025ae37ef11b136ea224fe,,,,,,,,,2144,45,88,1,0,0,response1disk,,7,-7,13,1,0,0,rectangle,-7,13,1,0,0,,,,,,,-7,13,1,0,0,,0,73,73,79,1,
,,,,,,,,,,,,,FF,,,,,,,,0.9996,,,,,,,,,,,,,,,,,,,,,,60fef35575c913648f573049,61036d4f22b2f12b331285c8,2021-07-29_20h12.44.756,Simcolourproject_2stim_asymm_v5,2020.2.10,Win32,60,61025ae37ef11b136ea224fe,,,,,,,,,804,-25,-74,1,0,0,response5disk,,3,-8,-6,1,0,0,rectangle,-8,-6,1,0,0,,,,,,,-8,-6,1,0,0,,0,74,74,94,1,
,,,,,,,,,,,,,FF,,,,,,,,0.9161,,,,,,,,,,,,,,,,,,,,,,60fef35575c913648f573049,61036d4f22b2f12b331285c8,2021-07-29_20h12.44.756,Simcolourproject_2stim_asymm_v5,2020.2.10,Win32,60,61025ae37ef11b136ea224fe,,,,,,,,,2647,30,62,1,0,0,response1disk,,7,-4,-2,1,0,0,rectangle,-4,-2,1,0,0,,,,,,,-4,-2,1,0,0,,0,75,75,10,1,
,,,,,,,,,,,,,FF,,,,,,,,0.9333,,,,,,,,,,,,,,,,,,,,,,60fef35575c913648f573049,61036d4f22b2f12b331285c8,2021-07-29_20h12.44.756,Simcolourproject_2stim_asymm_v5,2020.2.10,Win32,60,61025ae37ef11b136ea224fe,,,,,,,,,2011,40,60,1,0,0,response1disk,,7,-1,7,1,0,0,rectangle,-1,7,1,0,0,,,,,,,-1,7,1,0,0,,0,76,76,3,1,
,,,,,,,,,,,,,FF,,,,,,,,1.4,,,,,,,,,,,,,,,,,,,,,,60fef35575c913648f573049,61036d4f22b2f12b331285c8,2021-07-29_20h12.44.756,Simcolourproject_2stim_asymm_v5,2020.2.10,Win32,60,61025ae37ef11b136ea224fe,,,,,,,,,59,71,28,1,0,0,response1disk,,6,1,7,1,0,0,rectangle,1,7,1,0,0,,,,,,,1,7,1,0,0,,0,77,77,55,1,
,,,,,,,,,,,,,FF,,,,,,,,0.6836,,,,,,,,,,,,,,,,,,,,,,60fef35575c913648f573049,61036d4f22b2f12b331285c8,2021-07-29_20h12.44.756,Simcolourproject_2stim_asymm_v5,2020.2.10,Win32,60,61025ae37ef11b136ea224fe,,,,,,,,,999,32,70,1,0,0,response1disk,,7,-3,-4,1,0,0,rectangle,-3,-4,1,0,0,,,,,,,-3,-4,1,0,0,,0,78,78,122,1,
,,,,,,,,,,,,,FF,,,,,,,,1.0498,,,,,,,,,,,,,,,,,,,,,,60fef35575c913648f573049,61036d4f22b2f12b331285c8,2021-07-29_20h12.44.756,Simcolourproject_2stim_asymm_v5,2020.2.10,Win32,60,61025ae37ef11b136ea224fe,,,,,,,,,3708,-64,-34,1,0,0,response5disk,,2,-4,-1,1,0,0,rectangle,-4,-1,1,0,0,,,,,,,-4,-1,1,0,0,,0,79,79,85,1,
,,,,,,,,,,,,,FF,,,,,,,,2.2002,,,,,,,,,,,,,,,,,,,,,,60fef35575c913648f573049,61036d4f22b2f12b331285c8,2021-07-29_20h12.44.756,Simcolourproject_2stim_asymm_v5,2020.2.10,Win32,60,61025ae37ef11b136ea224fe,,,,,,,,,2430,36,-52,1,0,0,response3disk,,4,7,-1,1,0,0,rectangle,7,-1,1,0,0,,,,,,,7,-1,1,0,0,,0,80,80,90,1,
,,,,,,,,,,,,,FF,,,,,,,,0.8998,,,,,,,,,,,,,,,,,,,,,,60fef35575c913648f573049,61036d4f22b2f12b331285c8,2021-07-29_20h12.44.756,Simcolourproject_2stim_asymm_v5,2020.2.10,Win32,60,61025ae37ef11b136ea224fe,,,,,,,,,1787,67,-30,1,0,0,response3disk,,5,19,6,1,0,0,rectangle,19,6,1,0,0,,,,,,,19,6,1,0,0,,0,81,81,28,1,
,,,,,,,,,,,,,FF,,,,,,,,0.7338,,,,,,,,,,,,,,,,,,,,,,60fef35575c913648f573049,61036d4f22b2f12b331285c8,2021-07-29_20h12.44.756,Simcolourproject_2stim_asymm_v5,2020.2.10,Win32,60,61025ae37ef11b136ea224fe,,,,,,,,,3085,36,58,1,0,0,response1disk,,7,-5,-8,1,0,0,rectangle,-5,-8,1,0,0,,,,,,,-5,-8,1,0,0,,0,82,82,72,1,
,,,,,,,,,,,,,FF,,,,,,,,0.6002,,,,,,,,,,,,,,,,,,,,,,60fef35575c913648f573049,61036d4f22b2f12b331285c8,2021-07-29_20h12.44.756,Simcolourproject_2stim_asymm_v5,2020.2.10,Win32,60,61025ae37ef11b136ea224fe,,,,,,,,,1066,42,65,1,0,0,response1disk,,7,6,6,1,0,0,rectangle,6,6,1,0,0,,,,,,,6,6,1,0,0,,0,83,83,45,1,
,,,,,,,,,,,,,FF,,,,,,,,0.55,,,,,,,,,,,,,,,,,,,,,,60fef35575c913648f573049,61036d4f22b2f12b331285c8,2021-07-29_20h12.44.756,Simcolourproject_2stim_asymm_v5,2020.2.10,Win32,60,61025ae37ef11b136ea224fe,,,,,,,,,2321,22,64,1,0,0,response1disk,,7,-17,-3,1,0,0,rectangle,18,-28,1,0,0,response3disk_3,TRUE,4,4,"[88,62,21,170,134,16,1,85,7,23,184,46,176,191,189,45,44,219,248,259]",1.8001,4,3,1,0,0,rectangle,0,84,84,129,1,
,,,,,,,,,,,,,FF,,,,,,,,0.7162,,,,,,,,,,,,,,,,,,,,,,60fef35575c913648f573049,61036d4f22b2f12b331285c8,2021-07-29_20h12.44.756,Simcolourproject_2stim_asymm_v5,2020.2.10,Win32,60,61025ae37ef11b136ea224fe,,,,,,,,,3468,-45,77,1,0,0,response7disk,,0,-6,9,1,0,0,rectangle,-6,9,1,0,0,,,,,,,-6,9,1,0,0,,0,85,85,52,1,
,,,,,,,,,,,,,FF,,,,,,,,1.1,,,,,,,,,,,,,,,,,,,,,,60fef35575c913648f573049,61036d4f22b2f12b331285c8,2021-07-29_20h12.44.756,Simcolourproject_2stim_asymm_v5,2020.2.10,Win32,60,61025ae37ef11b136ea224fe,,,,,,,,,345,-33,-66,1,0,0,response5disk,,3,4,15,1,0,0,rectangle,4,15,1,0,0,,,,,,,4,15,1,0,0,,0,86,86,2,1,
,,,,,,,,,,,,,FF,,,,,,,,0.6331,,,,,,,,,,,,,,,,,,,,,,60fef35575c913648f573049,61036d4f22b2f12b331285c8,2021-07-29_20h12.44.756,Simcolourproject_2stim_asymm_v5,2020.2.10,Win32,60,61025ae37ef11b136ea224fe,,,,,,,,,390,49,89,1,0,0,response1disk,,7,0,-6,1,0,0,rectangle,56,28,1,0,0,response1disk_3,TRUE,6,6,"[88,62,21,170,134,16,1,85,7,23,184,46,176,191,189,45,44,219,248,259]",1.5497,14,5,1,0,0,rectangle,0,87,87,42,1,
,,,,,,,,,,,,,FF,,,,,,,,0.7339,,,,,,,,,,,,,,,,,,,,,,60fef35575c913648f573049,61036d4f22b2f12b331285c8,2021-07-29_20h12.44.756,Simcolourproject_2stim_asymm_v5,2020.2.10,Win32,60,61025ae37ef11b136ea224fe,,,,,,,,,1862,24,55,1,0,0,response1disk,,7,-1,8,1,0,0,rectangle,-1,8,1,0,0,,,,,,,-1,8,1,0,0,,0,88,88,60,1,
,,,,,,,,,,,,,FF,,,,,,,,1.2673,,,,,,,,,,,,,,,,,,,,,,60fef35575c913648f573049,61036d4f22b2f12b331285c8,2021-07-29_20h12.44.756,Simcolourproject_2stim_asymm_v5,2020.2.10,Win32,60,61025ae37ef11b136ea224fe,,,,,,,,,1203,-69,53,1,0,0,response7disk,,1,5,7,1,0,0,rectangle,5,7,1,0,0,,,,,,,5,7,1,0,0,,0,89,89,12,1,
,,,,,,,,,,,,,FF,,,,,,,,0.7501,,,,,,,,,,,,,,,,,,,,,,60fef35575c913648f573049,61036d4f22b2f12b331285c8,2021-07-29_20h12.44.756,Simcolourproject_2stim_asymm_v5,2020.2.10,Win32,60,61025ae37ef11b136ea224fe,,,,,,,,,966,39,84,1,0,0,response1disk,,7,-5,-8,1,0,0,rectangle,-5,-8,1,0,0,,,,,,,-5,-8,1,0,0,,0,90,90,109,1,
,,,,,,,,,,,,,FF,,,,,,,,1.0328,,,,,,,,,,,,,,,,,,,,,,60fef35575c913648f573049,61036d4f22b2f12b331285c8,2021-07-29_20h12.44.756,Simcolourproject_2stim_asymm_v5,2020.2.10,Win32,60,61025ae37ef11b136ea224fe,,,,,,,,,3296,-55,-51,1,0,0,response5disk,,2,-15,-15,1,0,0,rectangle,-15,-15,1,0,0,,,,,,,-15,-15,1,0,0,,0,91,91,46,1,
,,,,,,,,,,,,,FF,,,,,,,,0.8496,,,,,,,,,,,,,,,,,,,,,,60fef35575c913648f573049,61036d4f22b2f12b331285c8,2021-07-29_20h12.44.756,Simcolourproject_2stim_asymm_v5,2020.2.10,Win32,60,61025ae37ef11b136ea224fe,,,,,,,,,1901,-48,-27,1,0,0,response5disk,,2,-3,2,1,0,0,rectangle,-3,2,1,0,0,,,,,,,-3,2,1,0,0,,0,92,92,133,1,
,,,,,,,,,,,,,FF,,,,,,,,0.6834,,,,,,,,,,,,,,,,,,,,,,60fef35575c913648f573049,61036d4f22b2f12b331285c8,2021-07-29_20h12.44.756,Simcolourproject_2stim_asymm_v5,2020.2.10,Win32,60,61025ae37ef11b136ea224fe,,,,,,,,,1041,23,74,1,0,0,response1disk,,7,-1,1,1,0,0,rectangle,-1,1,1,0,0,,,,,,,-1,1,1,0,0,,0,93,93,58,1,
,,,,,,,,,,,,,FF,,,,,,,,0.5502,,,,,,,,,,,,,,,,,,,,,,60fef35575c913648f573049,61036d4f22b2f12b331285c8,2021-07-29_20h12.44.756,Simcolourproject_2stim_asymm_v5,2020.2.10,Win32,60,61025ae37ef11b136ea224fe,,,,,,,,,2627,45,85,1,0,0,response1disk,,7,-2,5,1,0,0,rectangle,-2,5,1,0,0,,,,,,,-2,5,1,0,0,,0,94,94,103,1,
,,,,,,,,,,,,,FF,,,,,,,,0.817,,,,,,,,,,,,,,,,,,,,,,60fef35575c913648f573049,61036d4f22b2f12b331285c8,2021-07-29_20h12.44.756,Simcolourproject_2stim_asymm_v5,2020.2.10,Win32,60,61025ae37ef11b136ea224fe,,,,,,,,,1719,82,20,1,0,0,response1disk,,6,8,-1,1,0,0,rectangle,8,-1,1,0,0,,,,,,,8,-1,1,0,0,,0,95,95,127,1,
,,,,,,,,,,,,,FF,,,,,,,,0.6831,,,,,,,,,,,,,,,,,,,,,,60fef35575c913648f573049,61036d4f22b2f12b331285c8,2021-07-29_20h12.44.756,Simcolourproject_2stim_asymm_v5,2020.2.10,Win32,60,61025ae37ef11b136ea224fe,,,,,,,,,3956,31,78,1,0,0,response1disk,,7,-1,3,1,0,0,rectangle,-1,3,1,0,0,,,,,,,-1,3,1,0,0,,0,96,96,41,1,
,,,,,,,,,,,,,FF,,,,,,,,0.9832,,,,,,,,,,,,,,,,,,,,,,60fef35575c913648f573049,61036d4f22b2f12b331285c8,2021-07-29_20h12.44.756,Simcolourproject_2stim_asymm_v5,2020.2.10,Win32,60,61025ae37ef11b136ea224fe,,,,,,,,,3670,-66,-36,1,0,0,response5disk,,2,-10,0,1,0,0,rectangle,-10,0,1,0,0,,,,,,,-10,0,1,0,0,,0,97,97,141,1,
,,,,,,,,,,,,,FF,,,,,,,,1.2663,,,,,,,,,,,,,,,,,,,,,,60fef35575c913648f573049,61036d4f22b2f12b331285c8,2021-07-29_20h12.44.756,Simcolourproject_2stim_asymm_v5,2020.2.10,Win32,60,61025ae37ef11b136ea224fe,,,,,,,,,1544,59,-18,1,0,0,response3disk,,5,0,4,1,0,0,rectangle,0,4,1,0,0,,,,,,,0,4,1,0,0,,0,98,98,18,1,
,,,,,,,,,,,,,FF,,,,,,,,0.8001,,,,,,,,,,,,,,,,,,,,,,60fef35575c913648f573049,61036d4f22b2f12b331285c8,2021-07-29_20h12.44.756,Simcolourproject_2stim_asymm_v5,2020.2.10,Win32,60,61025ae37ef11b136ea224fe,,,,,,,,,1149,37,60,1,0,0,response1disk,,7,4,-4,1,0,0,rectangle,4,-4,1,0,0,,,,,,,4,-4,1,0,0,,0,99,99,78,1,
,,,,,,,,,,,,,FF,,,,,,,,1.0665,,,,,,,,,,,,,,,,,,,,,,60fef35575c913648f573049,61036d4f22b2f12b331285c8,2021-07-29_20h12.44.756,Simcolourproject_2stim_asymm_v5,2020.2.10,Win32,60,61025ae37ef11b136ea224fe,,,,,,,,,1440,66,19,1,0,0,response1disk,,6,10,-2,1,0,0,rectangle,10,-2,1,0,0,,,,,,,10,-2,1,0,0,,0,100,100,37,1,
,,,,,,,,,,,,,FF,,,,,,,,1.0664,,,,,,,,,,,,,,,,,,,,,,60fef35575c913648f573049,61036d4f22b2f12b331285c8,2021-07-29_20h12.44.756,Simcolourproject_2stim_asymm_v5,2020.2.10,Win32,60,61025ae37ef11b136ea224fe,,,,,,,,,4040,35,-60,1,0,0,response3disk,,4,8,-4,1,0,0,rectangle,8,-4,1,0,0,,,,,,,8,-4,1,0,0,,0,101,101,73,1,
,,,,,,,,,,,,,FF,,,,,,,,0.9169,,,,,,,,,,,,,,,,,,,,,,60fef35575c913648f573049,61036d4f22b2f12b331285c8,2021-07-29_20h12.44.756,Simcolourproject_2stim_asymm_v5,2020.2.10,Win32,60,61025ae37ef11b136ea224fe,,,,,,,,,54,24,53,1,0,0,response1disk,,7,1,2,1,0,0,rectangle,1,2,1,0,0,,,,,,,1,2,1,0,0,,0,102,102,49,1,
,,,,,,,,,,,,,FF,,,,,,,,0.6831,,,,,,,,,,,,,,,,,,,,,,60fef35575c913648f573049,61036d4f22b2f12b331285c8,2021-07-29_20h12.44.756,Simcolourproject_2stim_asymm_v5,2020.2.10,Win32,60,61025ae37ef11b136ea224fe,,,,,,,,,1251,22,52,1,0,0,response1disk,,7,-11,-10,1,0,0,rectangle,-11,-10,1,0,0,,,,,,,-11,-10,1,0,0,,0,103,103,100,1,
,,,,,,,,,,,,,FF,,,,,,,,1.2166,,,,,,,,,,,,,,,,,,,,,,60fef35575c913648f573049,61036d4f22b2f12b331285c8,2021-07-29_20h12.44.756,Simcolourproject_2stim_asymm_v5,2020.2.10,Win32,60,61025ae37ef11b136ea224fe,,,,,,,,,3290,-75,34,1,0,0,response7disk,,1,-3,-1,1,0,0,rectangle,-3,-1,1,0,0,,,,,,,-3,-1,1,0,0,,0,104,104,38,1,
,,,,,,,,,,,,,FF,,,,,,,,0.6174,,,,,,,,,,,,,,,,,,,,,,60fef35575c913648f573049,61036d4f22b2f12b331285c8,2021-07-29_20h12.44.756,Simcolourproject_2stim_asymm_v5,2020.2.10,Win32,60,61025ae37ef11b136ea224fe,,,,,,,,,3177,25,64,1,0,0,response1disk,,7,4,1,1,0,0,rectangle,4,1,1,0,0,,,,,,,4,1,1,0,0,,0,105,105,25,1,
,,,,,,,,,,,,,FF,,,,,,,,0.65,,,,,,,,,,,,,,,,,,,,,,60fef35575c913648f573049,61036d4f22b2f12b331285c8,2021-07-29_20h12.44.756,Simcolourproject_2stim_asymm_v5,2020.2.10,Win32,60,61025ae37ef11b136ea224fe,,,,,,,,,128,21,77,1,0,0,response1disk,,7,-8,-1,1,0,0,rectangle,-8,-1,1,0,0,,,,,,,-8,-1,1,0,0,,0,106,106,93,1,
,,,,,,,,,,,,,FF,,,,,,,,1.417,,,,,,,,,,,,,,,,,,,,,,60fef35575c913648f573049,61036d4f22b2f12b331285c8,2021-07-29_20h12.44.756,Simcolourproject_2stim_asymm_v5,2020.2.10,Win32,60,61025ae37ef11b136ea224fe,,,,,,,,,2858,22,50,1,0,0,response1disk,,7,-9,-4,1,0,0,rectangle,-9,-4,1,0,0,,,,,,,-9,-4,1,0,0,,0,107,107,56,1,
,,,,,,,,,,,,,FF,,,,,,,,0.9498,,,,,,,,,,,,,,,,,,,,,,60fef35575c913648f573049,61036d4f22b2f12b331285c8,2021-07-29_20h12.44.756,Simcolourproject_2stim_asymm_v5,2020.2.10,Win32,60,61025ae37ef11b136ea224fe,,,,,,,,,1200,47,-42,1,0,0,response3disk,,5,-3,-5,1,0,0,rectangle,-3,-5,1,0,0,,,,,,,-3,-5,1,0,0,,0,108,108,120,1,
,,,,,,,,,,,,,FF,,,,,,,,1.2501,,,,,,,,,,,,,,,,,,,,,,60fef35575c913648f573049,61036d4f22b2f12b331285c8,2021-07-29_20h12.44.756,Simcolourproject_2stim_asymm_v5,2020.2.10,Win32,60,61025ae37ef11b136ea224fe,,,,,,,,,329,55,-26,1,0,0,response3disk,,5,-6,4,1,0,0,rectangle,-6,4,1,0,0,,,,,,,-6,4,1,0,0,,0,109,109,40,1,
,,,,,,,,,,,,,FF,,,,,,,,0.834,,,,,,,,,,,,,,,,,,,,,,60fef35575c913648f573049,61036d4f22b2f12b331285c8,2021-07-29_20h12.44.756,Simcolourproject_2stim_asymm_v5,2020.2.10,Win32,60,61025ae37ef11b136ea224fe,,,,,,,,,80,-30,-35,1,0,0,response5disk,,3,2,1,1,0,0,rectangle,2,1,1,0,0,,,,,,,2,1,1,0,0,,0,110,110,106,1,
,,,,,,,,,,,,,FF,,,,,,,,0.8664,,,,,,,,,,,,,,,,,,,,,,60fef35575c913648f573049,61036d4f22b2f12b331285c8,2021-07-29_20h12.44.756,Simcolourproject_2stim_asymm_v5,2020.2.10,Win32,60,61025ae37ef11b136ea224fe,,,,,,,,,1587,-36,-56,1,0,0,response5disk,,3,7,4,1,0,0,rectangle,7,4,1,0,0,,,,,,,7,4,1,0,0,,0,111,111,101,1,
,,,,,,,,,,,,,FF,,,,,,,,0.6997,,,,,,,,,,,,,,,,,,,,,,60fef35575c913648f573049,61036d4f22b2f12b331285c8,2021-07-29_20h12.44.756,Simcolourproject_2stim_asymm_v5,2020.2.10,Win32,60,61025ae37ef11b136ea224fe,,,,,,,,,112,29,61,1,0,0,response1disk,,7,-3,-3,1,0,0,rectangle,-3,-3,1,0,0,,,,,,,-3,-3,1,0,0,,0,112,112,104,1,
,,,,,,,,,,,,,FF,,,,,,,,0.7662,,,,,,,,,,,,,,,,,,,,,,60fef35575c913648f573049,61036d4f22b2f12b331285c8,2021-07-29_20h12.44.756,Simcolourproject_2stim_asymm_v5,2020.2.10,Win32,60,61025ae37ef11b136ea224fe,,,,,,,,,1425,23,54,1,0,0,response1disk,,7,-7,-9,1,0,0,rectangle,-7,-9,1,0,0,,,,,,,-7,-9,1,0,0,,0,113,113,47,1,
,,,,,,,,,,,,,FF,,,,,,,,0.8828,,,,,,,,,,,,,,,,,,,,,,60fef35575c913648f573049,61036d4f22b2f12b331285c8,2021-07-29_20h12.44.756,Simcolourproject_2stim_asymm_v5,2020.2.10,Win32,60,61025ae37ef11b136ea224fe,,,,,,,,,1335,41,25,1,0,0,response1disk,,6,9,0,1,0,0,rectangle,9,0,1,0,0,,,,,,,9,0,1,0,0,,0,114,114,67,1,
,,,,,,,,,,,,,FF,,,,,,,,0.6834,,,,,,,,,,,,,,,,,,,,,,60fef35575c913648f573049,61036d4f22b2f12b331285c8,2021-07-29_20h12.44.756,Simcolourproject_2stim_asymm_v5,2020.2.10,Win32,60,61025ae37ef11b136ea224fe,,,,,,,,,2558,37,65,1,0,0,response1disk,,7,7,4,1,0,0,rectangle,7,4,1,0,0,,,,,,,7,4,1,0,0,,0,115,115,6,1,
,,,,,,,,,,,,,FF,,,,,,,,0.617,,,,,,,,,,,,,,,,,,,,,,60fef35575c913648f573049,61036d4f22b2f12b331285c8,2021-07-29_20h12.44.756,Simcolourproject_2stim_asymm_v5,2020.2.10,Win32,60,61025ae37ef11b136ea224fe,,,,,,,,,2910,33,65,1,0,0,response1disk,,7,0,7,1,0,0,rectangle,0,7,1,0,0,,,,,,,0,7,1,0,0,,0,116,116,5,1,
,,,,,,,,,,,,,FF,,,,,,,,1.7671,,,,,,,,,,,,,,,,,,,,,,60fef35575c913648f573049,61036d4f22b2f12b331285c8,2021-07-29_20h12.44.756,Simcolourproject_2stim_asymm_v5,2020.2.10,Win32,60,61025ae37ef11b136ea224fe,,,,,,,,,3391,-22,-51,1,0,0,response5disk,,3,-7,-5,1,0,0,rectangle,-7,-5,1,0,0,,,,,,,-7,-5,1,0,0,,0,117,117,158,1,
,,,,,,,,,,,,,FF,,,,,,,,0.9003,,,,,,,,,,,,,,,,,,,,,,60fef35575c913648f573049,61036d4f22b2f12b331285c8,2021-07-29_20h12.44.756,Simcolourproject_2stim_asymm_v5,2020.2.10,Win32,60,61025ae37ef11b136ea224fe,,,,,,,,,72,-70,23,1,0,0,response7disk,,1,-14,12,1,0,0,rectangle,-14,12,1,0,0,,,,,,,-14,12,1,0,0,,0,118,118,19,1,
,,,,,,,,,,,,,FF,,,,,,,,0.6504,,,,,,,,,,,,,,,,,,,,,,60fef35575c913648f573049,61036d4f22b2f12b331285c8,2021-07-29_20h12.44.756,Simcolourproject_2stim_asymm_v5,2020.2.10,Win32,60,61025ae37ef11b136ea224fe,,,,,,,,,2431,43,88,1,0,0,response1disk,,7,-2,8,1,0,0,rectangle,-2,8,1,0,0,,,,,,,-2,8,1,0,0,,0,119,119,130,1,
,,,,,,,,,,,,,FF,,,,,,,,1.7162,,,,,,,,,,,,,,,,,,,,,,60fef35575c913648f573049,61036d4f22b2f12b331285c8,2021-07-29_20h12.44.756,Simcolourproject_2stim_asymm_v5,2020.2.10,Win32,60,61025ae37ef11b136ea224fe,,,,,,,,,575,57,-27,1,0,0,response3disk,,5,0,3,1,0,0,rectangle,0,3,1,0,0,,,,,,,0,3,1,0,0,,0,120,120,89,1,
,,,,,,,,,,,,,FF,,,,,,,,0.8669,,,,,,,,,,,,,,,,,,,,,,60fef35575c913648f573049,61036d4f22b2f12b331285c8,2021-07-29_20h12.44.756,Simcolourproject_2stim_asymm_v5,2020.2.10,Win32,60,61025ae37ef11b136ea224fe,,,,,,,,,21,72,-37,1,0,0,response3disk,,5,12,-8,1,0,0,rectangle,12,-8,1,0,0,,,,,,,12,-8,1,0,0,,0,121,121,14,1,
,,,,,,,,,,,,,FF,,,,,,,,1.1004,,,,,,,,,,,,,,,,,,,,,,60fef35575c913648f573049,61036d4f22b2f12b331285c8,2021-07-29_20h12.44.756,Simcolourproject_2stim_asymm_v5,2020.2.10,Win32,60,61025ae37ef11b136ea224fe,,,,,,,,,2369,-36,-69,1,0,0,response5disk,,3,-1,-12,1,0,0,rectangle,-1,-12,1,0,0,,,,,,,-1,-12,1,0,0,,0,122,122,128,1,
,,,,,,,,,,,,,FF,,,,,,,,0.8665,,,,,,,,,,,,,,,,,,,,,,60fef35575c913648f573049,61036d4f22b2f12b331285c8,2021-07-29_20h12.44.756,Simcolourproject_2stim_asymm_v5,2020.2.10,Win32,60,61025ae37ef11b136ea224fe,,,,,,,,,3872,19,-57,1,0,0,response3disk,,4,-1,-6,1,0,0,rectangle,-1,-6,1,0,0,,,,,,,-1,-6,1,0,0,,0,123,123,4,1,
,,,,,,,,,,,,,FF,,,,,,,,1.4005,,,,,,,,,,,,,,,,,,,,,,60fef35575c913648f573049,61036d4f22b2f12b331285c8,2021-07-29_20h12.44.756,Simcolourproject_2stim_asymm_v5,2020.2.10,Win32,60,61025ae37ef11b136ea224fe,,,,,,,,,2578,33,74,1,0,0,response1disk,,7,-6,6,1,0,0,rectangle,-6,6,1,0,0,,,,,,,-6,6,1,0,0,,0,124,124,24,1,
,,,,,,,,,,,,,FF,,,,,,,,0.7335,,,,,,,,,,,,,,,,,,,,,,60fef35575c913648f573049,61036d4f22b2f12b331285c8,2021-07-29_20h12.44.756,Simcolourproject_2stim_asymm_v5,2020.2.10,Win32,60,61025ae37ef11b136ea224fe,,,,,,,,,3656,61,26,1,0,0,response1disk,,6,12,-2,1,0,0,rectangle,12,-2,1,0,0,,,,,,,12,-2,1,0,0,,0,125,125,111,1,
,,,,,,,,,,,,,FF,,,,,,,,0.7331,,,,,,,,,,,,,,,,,,,,,,60fef35575c913648f573049,61036d4f22b2f12b331285c8,2021-07-29_20h12.44.756,Simcolourproject_2stim_asymm_v5,2020.2.10,Win32,60,61025ae37ef11b136ea224fe,,,,,,,,,4136,36,70,1,0,0,response1disk,,7,-2,2,1,0,0,rectangle,-2,2,1,0,0,,,,,,,-2,2,1,0,0,,0,126,126,138,1,
,,,,,,,,,,,,,FF,,,,,,,,0.884,,,,,,,,,,,,,,,,,,,,,,60fef35575c913648f573049,61036d4f22b2f12b331285c8,2021-07-29_20h12.44.756,Simcolourproject_2stim_asymm_v5,2020.2.10,Win32,60,61025ae37ef11b136ea224fe,,,,,,,,,1371,28,-58,1,0,0,response3disk,,4,3,2,1,0,0,rectangle,3,2,1,0,0,,,,,,,3,2,1,0,0,,0,127,127,84,1,
,,,,,,,,,,,,,FF,,,,,,,,1.1003,,,,,,,,,,,,,,,,,,,,,,60fef35575c913648f573049,61036d4f22b2f12b331285c8,2021-07-29_20h12.44.756,Simcolourproject_2stim_asymm_v5,2020.2.10,Win32,60,61025ae37ef11b136ea224fe,,,,,,,,,2059,29,57,1,0,0,response1disk,,7,-10,3,1,0,0,rectangle,-10,3,1,0,0,,,,,,,-10,3,1,0,0,,0,128,128,43,1,
,,,,,,,,,,,,,FF,,,,,,,,1.6333,,,,,,,,,,,,,,,,,,,,,,60fef35575c913648f573049,61036d4f22b2f12b331285c8,2021-07-29_20h12.44.756,Simcolourproject_2stim_asymm_v5,2020.2.10,Win32,60,61025ae37ef11b136ea224fe,,,,,,,,,3610,47,73,1,0,0,response1disk,,7,1,8,1,0,0,rectangle,1,8,1,0,0,,,,,,,1,8,1,0,0,,0,129,129,76,1,
,,,,,,,,,,,,,FF,,,,,,,,2.1835,,,,,,,,,,,,,,,,,,,,,,60fef35575c913648f573049,61036d4f22b2f12b331285c8,2021-07-29_20h12.44.756,Simcolourproject_2stim_asymm_v5,2020.2.10,Win32,60,61025ae37ef11b136ea224fe,,,,,,,,,833,74,36,1,0,0,response1disk,,6,20,9,1,0,0,rectangle,20,9,1,0,0,,,,,,,20,9,1,0,0,,0,130,130,23,1,
,,,,,,,,,,,,,FF,,,,,,,,2.3003,,,,,,,,,,,,,,,,,,,,,,60fef35575c913648f573049,61036d4f22b2f12b331285c8,2021-07-29_20h12.44.756,Simcolourproject_2stim_asymm_v5,2020.2.10,Win32,60,61025ae37ef11b136ea224fe,,,,,,,,,1487,42,32,1,0,0,response1disk,,6,12,10,1,0,0,rectangle,12,10,1,0,0,,,,,,,12,10,1,0,0,,0,131,131,64,1,
,,,,,,,,,,,,,FF,,,,,,,,0.7505,,,,,,,,,,,,,,,,,,,,,,60fef35575c913648f573049,61036d4f22b2f12b331285c8,2021-07-29_20h12.44.756,Simcolourproject_2stim_asymm_v5,2020.2.10,Win32,60,61025ae37ef11b136ea224fe,,,,,,,,,397,31,51,1,0,0,response1disk,,7,0,4,1,0,0,rectangle,0,4,1,0,0,,,,,,,0,4,1,0,0,,0,132,132,135,1,
,,,,,,,,,,,,,FF,,,,,,,,1.5169,,,,,,,,,,,,,,,,,,,,,,60fef35575c913648f573049,61036d4f22b2f12b331285c8,2021-07-29_20h12.44.756,Simcolourproject_2stim_asymm_v5,2020.2.10,Win32,60,61025ae37ef11b136ea224fe,,,,,,,,,70,-65,39,1,0,0,response7disk,,1,-6,7,1,0,0,rectangle,-77,-33,1,0,0,response5disk_3,TRUE,2,2,"[88,62,21,170,134,16,1,85,7,23,184,46,176,191,189,45,44,219,248,259]",1.9499,0,-4,1,0,0,rectangle,0,133,133,48,1,
,,,,,,,,,,,,,FF,,,,,,,,1.1501,,,,,,,,,,,,,,,,,,,,,,60fef35575c913648f573049,61036d4f22b2f12b331285c8,2021-07-29_20h12.44.756,Simcolourproject_2stim_asymm_v5,2020.2.10,Win32,60,61025ae37ef11b136ea224fe,,,,,,,,,3677,-35,-65,1,0,0,response5disk,,3,3,4,1,0,0,rectangle,3,4,1,0,0,,,,,,,3,4,1,0,0,,0,134,134,125,1,
,,,,,,,,,,,,,FF,,,,,,,,0.6665,,,,,,,,,,,,,,,,,,,,,,60fef35575c913648f573049,61036d4f22b2f12b331285c8,2021-07-29_20h12.44.756,Simcolourproject_2stim_asymm_v5,2020.2.10,Win32,60,61025ae37ef11b136ea224fe,,,,,,,,,32,30,75,1,0,0,response1disk,,7,-6,9,1,0,0,rectangle,-6,9,1,0,0,,,,,,,-6,9,1,0,0,,0,135,135,91,1,
,,,,,,,,,,,,,FF,,,,,,,,1.5165,,,,,,,,,,,,,,,,,,,,,,60fef35575c913648f573049,61036d4f22b2f12b331285c8,2021-07-29_20h12.44.756,Simcolourproject_2stim_asymm_v5,2020.2.10,Win32,60,61025ae37ef11b136ea224fe,,,,,,,,,1463,79,-35,1,0,0,response3disk,,5,4,-5,1,0,0,rectangle,4,-5,1,0,0,,,,,,,4,-5,1,0,0,,0,136,136,8,1,
,,,,,,,,,,,,,FF,,,,,,,,0.7163,,,,,,,,,,,,,,,,,,,,,,60fef35575c913648f573049,61036d4f22b2f12b331285c8,2021-07-29_20h12.44.756,Simcolourproject_2stim_asymm_v5,2020.2.10,Win32,60,61025ae37ef11b136ea224fe,,,,,,,,,3077,15,51,1,0,0,response1disk,,7,-6,-13,1,0,0,rectangle,-6,-13,1,0,0,,,,,,,-6,-13,1,0,0,,0,137,137,86,1,
,,,,,,,,,,,,,FF,,,,,,,,0.9664,,,,,,,,,,,,,,,,,,,,,,60fef35575c913648f573049,61036d4f22b2f12b331285c8,2021-07-29_20h12.44.756,Simcolourproject_2stim_asymm_v5,2020.2.10,Win32,60,61025ae37ef11b136ea224fe,,,,,,,,,4314,25,54,1,0,0,response1disk,,7,-5,-4,1,0,0,rectangle,-5,-4,1,0,0,,,,,,,-5,-4,1,0,0,,0,138,138,83,1,
,,,,,,,,,,,,,FF,,,,,,,,0.9172,,,,,,,,,,,,,,,,,,,,,,60fef35575c913648f573049,61036d4f22b2f12b331285c8,2021-07-29_20h12.44.756,Simcolourproject_2stim_asymm_v5,2020.2.10,Win32,60,61025ae37ef11b136ea224fe,,,,,,,,,1541,37,-61,1,0,0,response3disk,,4,10,-4,1,0,0,rectangle,10,-4,1,0,0,,,,,,,10,-4,1,0,0,,0,139,139,13,1,
,,,,,,,,,,,,,FF,,,,,,,,0.6668,,,,,,,,,,,,,,,,,,,,,,60fef35575c913648f573049,61036d4f22b2f12b331285c8,2021-07-29_20h12.44.756,Simcolourproject_2stim_asymm_v5,2020.2.10,Win32,60,61025ae37ef11b136ea224fe,,,,,,,,,857,36,53,1,0,0,response1disk,,7,8,4,1,0,0,rectangle,8,4,1,0,0,,,,,,,8,4,1,0,0,,0,140,140,57,1,
,,,,,,,,,,,,,FF,,,,,,,,0.7166,,,,,,,,,,,,,,,,,,,,,,60fef35575c913648f573049,61036d4f22b2f12b331285c8,2021-07-29_20h12.44.756,Simcolourproject_2stim_asymm_v5,2020.2.10,Win32,60,61025ae37ef11b136ea224fe,,,,,,,,,497,20,48,1,0,0,response1disk,,7,-6,-9,1,0,0,rectangle,-6,-9,1,0,0,,,,,,,-6,-9,1,0,0,,0,141,141,114,1,
,,,,,,,,,,,,,FF,,,,,,,,0.8998,,,,,,,,,,,,,,,,,,,,,,60fef35575c913648f573049,61036d4f22b2f12b331285c8,2021-07-29_20h12.44.756,Simcolourproject_2stim_asymm_v5,2020.2.10,Win32,60,61025ae37ef11b136ea224fe,,,,,,,,,1725,31,50,1,0,0,response1disk,,7,7,-3,1,0,0,rectangle,7,-3,1,0,0,,,,,,,7,-3,1,0,0,,0,142,142,34,1,
,,,,,,,,,,,,,FF,,,,,,,,0.6334,,,,,,,,,,,,,,,,,,,,,,60fef35575c913648f573049,61036d4f22b2f12b331285c8,2021-07-29_20h12.44.756,Simcolourproject_2stim_asymm_v5,2020.2.10,Win32,60,61025ae37ef11b136ea224fe,,,,,,,,,3414,33,64,1,0,0,response1disk,,7,-3,7,1,0,0,rectangle,-3,7,1,0,0,,,,,,,-3,7,1,0,0,,0,143,143,82,1,
,,,,,,,,,,,,,FF,,,,,,,,0.7497,,,,,,,,,,,,,,,,,,,,,,60fef35575c913648f573049,61036d4f22b2f12b331285c8,2021-07-29_20h12.44.756,Simcolourproject_2stim_asymm_v5,2020.2.10,Win32,60,61025ae37ef11b136ea224fe,,,,,,,,,3697,38,81,1,0,0,response1disk,,7,4,2,1,0,0,rectangle,4,2,1,0,0,,,,,,,4,2,1,0,0,,0,144,144,105,1,
,,,,,,,,,,,,,FF,,,,,,,,1.0661,,,,,,,,,,,,,,,,,,,,,,60fef35575c913648f573049,61036d4f22b2f12b331285c8,2021-07-29_20h12.44.756,Simcolourproject_2stim_asymm_v5,2020.2.10,Win32,60,61025ae37ef11b136ea224fe,,,,,,,,,2527,21,41,1,0,0,response1disk,,7,-5,-12,1,0,0,rectangle,-5,-12,1,0,0,,,,,,,-5,-12,1,0,0,,0,145,145,118,1,
,,,,,,,,,,,,,FF,,,,,,,,0.6001,,,,,,,,,,,,,,,,,,,,,,60fef35575c913648f573049,61036d4f22b2f12b331285c8,2021-07-29_20h12.44.756,Simcolourproject_2stim_asymm_v5,2020.2.10,Win32,60,61025ae37ef11b136ea224fe,,,,,,,,,3455,45,65,1,0,0,response1disk,,7,12,0,1,0,0,rectangle,12,0,1,0,0,,,,,,,12,0,1,0,0,,0,146,146,107,1,
,,,,,,,,,,,,,FF,,,,,,,,0.6005,,,,,,,,,,,,,,,,,,,,,,60fef35575c913648f573049,61036d4f22b2f12b331285c8,2021-07-29_20h12.44.756,Simcolourproject_2stim_asymm_v5,2020.2.10,Win32,60,61025ae37ef11b136ea224fe,,,,,,,,,2132,38,54,1,0,0,response1disk,,7,12,7,1,0,0,rectangle,12,7,1,0,0,,,,,,,12,7,1,0,0,,0,147,147,131,1,
,,,,,,,,,,,,,FF,,,,,,,,1.1004,,,,,,,,,,,,,,,,,,,,,,60fef35575c913648f573049,61036d4f22b2f12b331285c8,2021-07-29_20h12.44.756,Simcolourproject_2stim_asymm_v5,2020.2.10,Win32,60,61025ae37ef11b136ea224fe,,,,,,,,,2207,46,21,1,0,0,response1disk,,6,4,1,1,0,0,rectangle,4,1,1,0,0,,,,,,,4,1,1,0,0,,0,148,148,137,1,
,,,,,,,,,,,,,FF,,,,,,,,1.7172,,,,,,,,,,,,,,,,,,,,,,60fef35575c913648f573049,61036d4f22b2f12b331285c8,2021-07-29_20h12.44.756,Simcolourproject_2stim_asymm_v5,2020.2.10,Win32,60,61025ae37ef11b136ea224fe,,,,,,,,,3212,55,-28,1,0,0,response3disk,,5,17,1,1,0,0,rectangle,17,1,1,0,0,,,,,,,17,1,1,0,0,,0,149,149,16,1,
,,,,,,,,,,,,,FF,,,,,,,,1.2002,,,,,,,,,,,,,,,,,,,,,,60fef35575c913648f573049,61036d4f22b2f12b331285c8,2021-07-29_20h12.44.756,Simcolourproject_2stim_asymm_v5,2020.2.10,Win32,60,61025ae37ef11b136ea224fe,,,,,,,,,3061,42,-52,1,0,0,response3disk,,4,3,-4,1,0,0,rectangle,3,-4,1,0,0,,,,,,,3,-4,1,0,0,,0,150,150,74,1,
,,,,,,,,,,,,,FF,,,,,,,,0.7329,,,,,,,,,,,,,,,,,,,,,,60fef35575c913648f573049,61036d4f22b2f12b331285c8,2021-07-29_20h12.44.756,Simcolourproject_2stim_asymm_v5,2020.2.10,Win32,60,61025ae37ef11b136ea224fe,,,,,,,,,3031,26,48,1,0,0,response1disk,,7,-2,6,1,0,0,rectangle,-2,6,1,0,0,,,,,,,-2,6,1,0,0,,0,151,151,32,1,
,,,,,,,,,,,,,FF,,,,,,,,1.6502,,,,,,,,,,,,,,,,,,,,,,60fef35575c913648f573049,61036d4f22b2f12b331285c8,2021-07-29_20h12.44.756,Simcolourproject_2stim_asymm_v5,2020.2.10,Win32,60,61025ae37ef11b136ea224fe,,,,,,,,,585,25,-42,1,0,0,response3disk,,4,5,-8,1,0,0,rectangle,5,-8,1,0,0,,,,,,,5,-8,1,0,0,,0,152,152,39,1,
,,,,,,,,,,,,,FF,,,,,,,,0.9497,,,,,,,,,,,,,,,,,,,,,,60fef35575c913648f573049,61036d4f22b2f12b331285c8,2021-07-29_20h12.44.756,Simcolourproject_2stim_asymm_v5,2020.2.10,Win32,60,61025ae37ef11b136ea224fe,,,,,,,,,980,25,-49,1,0,0,response3disk,,4,2,3,1,0,0,rectangle,2,3,1,0,0,,,,,,,2,3,1,0,0,,0,153,153,68,1,
,,,,,,,,,,,,,FF,,,,,,,,0.8838,,,,,,,,,,,,,,,,,,,,,,60fef35575c913648f573049,61036d4f22b2f12b331285c8,2021-07-29_20h12.44.756,Simcolourproject_2stim_asymm_v5,2020.2.10,Win32,60,61025ae37ef11b136ea224fe,,,,,,,,,451,40,26,1,0,0,response1disk,,6,5,3,1,0,0,rectangle,5,3,1,0,0,,,,,,,5,3,1,0,0,,0,154,154,92,1,
,,,,,,,,,,,,,FF,,,,,,,,0.6332,,,,,,,,,,,,,,,,,,,,,,60fef35575c913648f573049,61036d4f22b2f12b331285c8,2021-07-29_20h12.44.756,Simcolourproject_2stim_asymm_v5,2020.2.10,Win32,60,61025ae37ef11b136ea224fe,,,,,,,,,2750,23,52,1,0,0,response1disk,,7,-1,11,1,0,0,rectangle,-1,11,1,0,0,,,,,,,-1,11,1,0,0,,0,155,155,126,1,
,,,,,,,,,,,,,FF,,,,,,,,0.6841,,,,,,,,,,,,,,,,,,,,,,60fef35575c913648f573049,61036d4f22b2f12b331285c8,2021-07-29_20h12.44.756,Simcolourproject_2stim_asymm_v5,2020.2.10,Win32,60,61025ae37ef11b136ea224fe,,,,,,,,,1570,37,72,1,0,0,response1disk,,7,4,2,1,0,0,rectangle,4,2,1,0,0,,,,,,,4,2,1,0,0,,0,156,156,31,1,
,,,,,,,,,,,,,FF,,,,,,,,1.1505,,,,,,,,,,,,,,,,,,,,,,60fef35575c913648f573049,61036d4f22b2f12b331285c8,2021-07-29_20h12.44.756,Simcolourproject_2stim_asymm_v5,2020.2.10,Win32,60,61025ae37ef11b136ea224fe,,,,,,,,,1476,47,-58,1,0,0,response3disk,,4,2,-8,1,0,0,rectangle,2,-8,1,0,0,,,,,,,2,-8,1,0,0,,0,157,157,1,1,
,,,,,,,,,,,,,FF,,,,,,,,0.7834,,,,,,,,,,,,,,,,,,,,,,60fef35575c913648f573049,61036d4f22b2f12b331285c8,2021-07-29_20h12.44.756,Simcolourproject_2stim_asymm_v5,2020.2.10,Win32,60,61025ae37ef11b136ea224fe,,,,,,,,,3884,16,54,1,0,0,response1disk,,7,-9,12,1,0,0,rectangle,-9,12,1,0,0,,,,,,,-9,12,1,0,0,,0,158,158,50,1,
,,,,,,,,,,,,,FF,,,,,,,,2.5341,,,,,,,,,,,,,,,,,,,,,,60fef35575c913648f573049,61036d4f22b2f12b331285c8,2021-07-29_20h12.44.756,Simcolourproject_2stim_asymm_v5,2020.2.10,Win32,60,61025ae37ef11b136ea224fe,,,,,,,,,985,58,-44,1,0,0,response3disk,,5,1,-2,1,0,0,rectangle,1,-2,1,0,0,,,,,,,1,-2,1,0,0,,0,159,159,149,1,
,,,,,,,,,,,,,FF,,,,,,,,1.0167,,,,,,,,,,,,,,,,,,,,,,60fef35575c913648f573049,61036d4f22b2f12b331285c8,2021-07-29_20h12.44.756,Simcolourproject_2stim_asymm_v5,2020.2.10,Win32,60,61025ae37ef11b136ea224fe,,,,,,,,,2494,37,64,1,0,0,response1disk,,7,-3,1,1,0,0,rectangle,-3,1,1,0,0,,,,,,,-3,1,1,0,0,,1,0,160,136,1,
,,,,,,,,,,,,,FF,,,,,,,,0.7334,,,,,,,,,,,,,,,,,,,,,,60fef35575c913648f573049,61036d4f22b2f12b331285c8,2021-07-29_20h12.44.756,Simcolourproject_2stim_asymm_v5,2020.2.10,Win32,60,61025ae37ef11b136ea224fe,,,,,,,,,2458,29,60,1,0,0,response1disk,,7,-3,-8,1,0,0,rectangle,-3,-8,1,0,0,,,,,,,-3,-8,1,0,0,,1,1,161,151,1,
,,,,,,,,,,,,,FF,,,,,,,,0.9833,,,,,,,,,,,,,,,,,,,,,,60fef35575c913648f573049,61036d4f22b2f12b331285c8,2021-07-29_20h12.44.756,Simcolourproject_2stim_asymm_v5,2020.2.10,Win32,60,61025ae37ef11b136ea224fe,,,,,,,,,42,52,19,1,0,0,response1disk,,6,13,1,1,0,0,rectangle,13,1,1,0,0,,,,,,,13,1,1,0,0,,1,2,162,33,1,
,,,,,,,,,,,,,FF,,,,,,,,0.8499,,,,,,,,,,,,,,,,,,,,,,60fef35575c913648f573049,61036d4f22b2f12b331285c8,2021-07-29_20h12.44.756,Simcolourproject_2stim_asymm_v5,2020.2.10,Win32,60,61025ae37ef11b136ea224fe,,,,,,,,,2455,56,33,1,0,0,response1disk,,6,17,10,1,0,0,rectangle,17,10,1,0,0,,,,,,,17,10,1,0,0,,1,3,163,6,1,
,,,,,,,,,,,,,FF,,,,,,,,0.6836,,,,,,,,,,,,,,,,,,,,,,60fef35575c913648f573049,61036d4f22b2f12b331285c8,2021-07-29_20h12.44.756,Simcolourproject_2stim_asymm_v5,2020.2.10,Win32,60,61025ae37ef11b136ea224fe,,,,,,,,,131,49,32,1,0,0,response1disk,,6,6,3,1,0,0,rectangle,6,3,1,0,0,,,,,,,6,3,1,0,0,,1,4,164,26,1,
,,,,,,,,,,,,,FF,,,,,,,,0.6502,,,,,,,,,,,,,,,,,,,,,,60fef35575c913648f573049,61036d4f22b2f12b331285c8,2021-07-29_20h12.44.756,Simcolourproject_2stim_asymm_v5,2020.2.10,Win32,60,61025ae37ef11b136ea224fe,,,,,,,,,1095,42,68,1,0,0,response1disk,,7,-8,0,1,0,0,rectangle,-8,0,1,0,0,,,,,,,-8,0,1,0,0,,1,5,165,114,1,
,,,,,,,,,,,,,FF,,,,,,,,0.7501,,,,,,,,,,,,,,,,,,,,,,60fef35575c913648f573049,61036d4f22b2f12b331285c8,2021-07-29_20h12.44.756,Simcolourproject_2stim_asymm_v5,2020.2.10,Win32,60,61025ae37ef11b136ea224fe,,,,,,,,,3265,61,32,1,0,0,response1disk,,6,15,6,1,0,0,rectangle,15,6,1,0,0,,,,,,,15,6,1,0,0,,1,6,166,40,1,
,,,,,,,,,,,,,FF,,,,,,,,0.6336,,,,,,,,,,,,,,,,,,,,,,60fef35575c913648f573049,61036d4f22b2f12b331285c8,2021-07-29_20h12.44.756,Simcolourproject_2stim_asymm_v5,2020.2.10,Win32,60,61025ae37ef11b136ea224fe,,,,,,,,,3834,24,73,1,0,0,response1disk,,7,-12,-6,1,0,0,rectangle,-12,-6,1,0,0,,,,,,,-12,-6,1,0,0,,1,7,167,5,1,
,,,,,,,,,,,,,FF,,,,,,,,1.0164,,,,,,,,,,,,,,,,,,,,,,60fef35575c913648f573049,61036d4f22b2f12b331285c8,2021-07-29_20h12.44.756,Simcolourproject_2stim_asymm_v5,2020.2.10,Win32,60,61025ae37ef11b136ea224fe,,,,,,,,,753,16,43,1,0,0,response1disk,,7,-7,-11,1,0,0,rectangle,-7,-11,1,0,0,,,,,,,-7,-11,1,0,0,,1,8,168,84,1,
,,,,,,,,,,,,,FF,,,,,,,,0.7006,,,,,,,,,,,,,,,,,,,,,,60fef35575c913648f573049,61036d4f22b2f12b331285c8,2021-07-29_20h12.44.756,Simcolourproject_2stim_asymm_v5,2020.2.10,Win32,60,61025ae37ef11b136ea224fe,,,,,,,,,3891,27,54,1,0,0,response1disk,,7,0,8,1,0,0,rectangle,-33,-67,1,0,0,response5disk_3,TRUE,3,3,"[88,62,21,170,134,16,1,85,7,23,184,46,176,191,189,45,44,219,248,259]",2.4169,11,0,1,0,0,rectangle,1,9,169,39,1,
,,,,,,,,,,,,,FF,,,,,,,,0.7838,,,,,,,,,,,,,,,,,,,,,,60fef35575c913648f573049,61036d4f22b2f12b331285c8,2021-07-29_20h12.44.756,Simcolourproject_2stim_asymm_v5,2020.2.10,Win32,60,61025ae37ef11b136ea224fe,,,,,,,,,500,31,72,1,0,0,response1disk,,7,-2,11,1,0,0,rectangle,-2,11,1,0,0,,,,,,,-2,11,1,0,0,,1,10,170,77,1,
,,,,,,,,,,,,,FF,,,,,,,,1.067,,,,,,,,,,,,,,,,,,,,,,60fef35575c913648f573049,61036d4f22b2f12b331285c8,2021-07-29_20h12.44.756,Simcolourproject_2stim_asymm_v5,2020.2.10,Win32,60,61025ae37ef11b136ea224fe,,,,,,,,,612,-64,-29,1,0,0,response5disk,,2,-11,8,1,0,0,rectangle,-11,8,1,0,0,,,,,,,-11,8,1,0,0,,1,11,171,3,1,
,,,,,,,,,,,,,FF,,,,,,,,0.617,,,,,,,,,,,,,,,,,,,,,,60fef35575c913648f573049,61036d4f22b2f12b331285c8,2021-07-29_20h12.44.756,Simcolourproject_2stim_asymm_v5,2020.2.10,Win32,60,61025ae37ef11b136ea224fe,,,,,,,,,2406,24,72,1,0,0,response1disk,,7,-9,8,1,0,0,rectangle,-9,8,1,0,0,,,,,,,-9,8,1,0,0,,1,12,172,108,1,
,,,,,,,,,,,,,FF,,,,,,,,0.6508,,,,,,,,,,,,,,,,,,,,,,60fef35575c913648f573049,61036d4f22b2f12b331285c8,2021-07-29_20h12.44.756,Simcolourproject_2stim_asymm_v5,2020.2.10,Win32,60,61025ae37ef11b136ea224fe,,,,,,,,,3768,63,107,1,0,0,response1disk,,7,-1,6,1,0,0,rectangle,-1,6,1,0,0,,,,,,,-1,6,1,0,0,,1,13,173,22,1,
,,,,,,,,,,,,,FF,,,,,,,,0.683,,,,,,,,,,,,,,,,,,,,,,60fef35575c913648f573049,61036d4f22b2f12b331285c8,2021-07-29_20h12.44.756,Simcolourproject_2stim_asymm_v5,2020.2.10,Win32,60,61025ae37ef11b136ea224fe,,,,,,,,,1793,39,28,1,0,0,response1disk,,6,9,7,1,0,0,rectangle,9,7,1,0,0,,,,,,,9,7,1,0,0,,1,14,174,156,1,
,,,,,,,,,,,,,FF,,,,,,,,1.3498,,,,,,,,,,,,,,,,,,,,,,60fef35575c913648f573049,61036d4f22b2f12b331285c8,2021-07-29_20h12.44.756,Simcolourproject_2stim_asymm_v5,2020.2.10,Win32,60,61025ae37ef11b136ea224fe,,,,,,,,,892,23,-55,1,0,0,response3disk,,4,8,-2,1,0,0,rectangle,-28,78,1,0,0,response7disk_3,TRUE,0,0,"[88,62,21,170,134,16,1,85,7,23,184,46,176,191,189,45,44,219,248,259]",1.733,-6,6,1,0,0,rectangle,1,15,175,71,1,
,,,,,,,,,,,,,FF,,,,,,,,0.7836,,,,,,,,,,,,,,,,,,,,,,60fef35575c913648f573049,61036d4f22b2f12b331285c8,2021-07-29_20h12.44.756,Simcolourproject_2stim_asymm_v5,2020.2.10,Win32,60,61025ae37ef11b136ea224fe,,,,,,,,,3322,17,54,1,0,0,response1disk,,7,-6,0,1,0,0,rectangle,-6,0,1,0,0,,,,,,,-6,0,1,0,0,,1,16,176,67,1,
,,,,,,,,,,,,,FF,,,,,,,,1.0336,,,,,,,,,,,,,,,,,,,,,,60fef35575c913648f573049,61036d4f22b2f12b331285c8,2021-07-29_20h12.44.756,Simcolourproject_2stim_asymm_v5,2020.2.10,Win32,60,61025ae37ef11b136ea224fe,,,,,,,,,2895,-70,-43,1,0,0,response5disk,,2,-5,-5,1,0,0,rectangle,-5,-5,1,0,0,,,,,,,-5,-5,1,0,0,,1,17,177,140,1,
,,,,,,,,,,,,,FF,,,,,,,,0.7164,,,,,,,,,,,,,,,,,,,,,,60fef35575c913648f573049,61036d4f22b2f12b331285c8,2021-07-29_20h12.44.756,Simcolourproject_2stim_asymm_v5,2020.2.10,Win32,60,61025ae37ef11b136ea224fe,,,,,,,,,3970,-57,18,1,0,0,response7disk,,1,-15,10,1,0,0,rectangle,-15,10,1,0,0,,,,,,,-15,10,1,0,0,,1,18,178,74,1,
,,,,,,,,,,,,,FF,,,,,,,,0.9668,,,,,,,,,,,,,,,,,,,,,,60fef35575c913648f573049,61036d4f22b2f12b331285c8,2021-07-29_20h12.44.756,Simcolourproject_2stim_asymm_v5,2020.2.10,Win32,60,61025ae37ef11b136ea224fe,,,,,,,,,2729,-112,-61,1,0,0,response5disk,,2,29,14,1,0,0,rectangle,29,14,1,0,0,,,,,,,29,14,1,0,0,,1,19,179,104,1,
,,,,,,,,,,,,,FF,,,,,,,,1.8834,,,,,,,,,,,,,,,,,,,,,,60fef35575c913648f573049,61036d4f22b2f12b331285c8,2021-07-29_20h12.44.756,Simcolourproject_2stim_asymm_v5,2020.2.10,Win32,60,61025ae37ef11b136ea224fe,,,,,,,,,888,43,-56,1,0,0,response3disk,,4,16,-4,1,0,0,rectangle,16,-4,1,0,0,,,,,,,16,-4,1,0,0,,1,20,180,37,1,
,,,,,,,,,,,,,FF,,,,,,,,0.6667,,,,,,,,,,,,,,,,,,,,,,60fef35575c913648f573049,61036d4f22b2f12b331285c8,2021-07-29_20h12.44.756,Simcolourproject_2stim_asymm_v5,2020.2.10,Win32,60,61025ae37ef11b136ea224fe,,,,,,,,,2587,22,79,1,0,0,response1disk,,7,-10,3,1,0,0,rectangle,-10,3,1,0,0,,,,,,,-10,3,1,0,0,,1,21,181,92,1,
,,,,,,,,,,,,,FF,,,,,,,,0.7503,,,,,,,,,,,,,,,,,,,,,,60fef35575c913648f573049,61036d4f22b2f12b331285c8,2021-07-29_20h12.44.756,Simcolourproject_2stim_asymm_v5,2020.2.10,Win32,60,61025ae37ef11b136ea224fe,,,,,,,,,4237,-64,29,1,0,0,response7disk,,1,-14,3,1,0,0,rectangle,-14,3,1,0,0,,,,,,,-14,3,1,0,0,,1,22,182,138,1,
,,,,,,,,,,,,,FF,,,,,,,,0.917,,,,,,,,,,,,,,,,,,,,,,60fef35575c913648f573049,61036d4f22b2f12b331285c8,2021-07-29_20h12.44.756,Simcolourproject_2stim_asymm_v5,2020.2.10,Win32,60,61025ae37ef11b136ea224fe,,,,,,,,,2074,45,32,1,0,0,response1disk,,6,10,6,1,0,0,rectangle,62,-21,1,0,0,response3disk_3,TRUE,5,5,"[88,62,21,170,134,16,1,85,7,23,184,46,176,191,189,45,44,219,248,259]",1.6834,-2,6,1,0,0,rectangle,1,23,183,27,1,
,,,,,,,,,,,,,FF,,,,,,,,1.6335,,,,,,,,,,,,,,,,,,,,,,60fef35575c913648f573049,61036d4f22b2f12b331285c8,2021-07-29_20h12.44.756,Simcolourproject_2stim_asymm_v5,2020.2.10,Win32,60,61025ae37ef11b136ea224fe,,,,,,,,,3496,60,-26,1,0,0,response3disk,,5,7,4,1,0,0,rectangle,7,4,1,0,0,,,,,,,7,4,1,0,0,,1,24,184,23,1,
,,,,,,,,,,,,,FF,,,,,,,,0.6674,,,,,,,,,,,,,,,,,,,,,,60fef35575c913648f573049,61036d4f22b2f12b331285c8,2021-07-29_20h12.44.756,Simcolourproject_2stim_asymm_v5,2020.2.10,Win32,60,61025ae37ef11b136ea224fe,,,,,,,,,2197,37,78,1,0,0,response1disk,,7,-7,3,1,0,0,rectangle,-7,3,1,0,0,,,,,,,-7,3,1,0,0,,1,25,185,121,1,
,,,,,,,,,,,,,FF,,,,,,,,0.85,,,,,,,,,,,,,,,,,,,,,,60fef35575c913648f573049,61036d4f22b2f12b331285c8,2021-07-29_20h12.44.756,Simcolourproject_2stim_asymm_v5,2020.2.10,Win32,60,61025ae37ef11b136ea224fe,,,,,,,,,1554,58,29,1,0,0,response1disk,,6,8,4,1,0,0,rectangle,8,4,1,0,0,,,,,,,8,4,1,0,0,,1,26,186,139,1,
,,,,,,,,,,,,,FF,,,,,,,,0.6834,,,,,,,,,,,,,,,,,,,,,,60fef35575c913648f573049,61036d4f22b2f12b331285c8,2021-07-29_20h12.44.756,Simcolourproject_2stim_asymm_v5,2020.2.10,Win32,60,61025ae37ef11b136ea224fe,,,,,,,,,1089,36,30,1,0,0,response1disk,,6,13,10,1,0,0,rectangle,13,10,1,0,0,,,,,,,13,10,1,0,0,,1,27,187,79,1,
,,,,,,,,,,,,,FF,,,,,,,,0.7832,,,,,,,,,,,,,,,,,,,,,,60fef35575c913648f573049,61036d4f22b2f12b331285c8,2021-07-29_20h12.44.756,Simcolourproject_2stim_asymm_v5,2020.2.10,Win32,60,61025ae37ef11b136ea224fe,,,,,,,,,1638,29,55,1,0,0,response1disk,,7,-8,-13,1,0,0,rectangle,45,28,1,0,0,response1disk_3,TRUE,6,6,"[88,62,21,170,134,16,1,85,7,23,184,46,176,191,189,45,44,219,248,259]",1.7164,18,4,1,0,0,rectangle,1,28,188,29,1,
,,,,,,,,,,,,,FF,,,,,,,,1.1327,,,,,,,,,,,,,,,,,,,,,,60fef35575c913648f573049,61036d4f22b2f12b331285c8,2021-07-29_20h12.44.756,Simcolourproject_2stim_asymm_v5,2020.2.10,Win32,60,61025ae37ef11b136ea224fe,,,,,,,,,3500,26,50,1,0,0,response1disk,,7,-12,-9,1,0,0,rectangle,-12,-9,1,0,0,,,,,,,-12,-9,1,0,0,,1,29,189,122,1,
,,,,,,,,,,,,,FF,,,,,,,,0.5995,,,,,,,,,,,,,,,,,,,,,,60fef35575c913648f573049,61036d4f22b2f12b331285c8,2021-07-29_20h12.44.756,Simcolourproject_2stim_asymm_v5,2020.2.10,Win32,60,61025ae37ef11b136ea224fe,,,,,,,,,1643,28,53,1,0,0,response1disk,,7,-4,1,1,0,0,rectangle,26,61,1,0,0,response1disk_3,TRUE,7,7,"[88,62,21,170,134,16,1,85,7,23,184,46,176,191,189,45,44,219,248,259]",1.417,2,5,1,0,0,rectangle,1,30,190,81,1,
,,,,,,,,,,,,,FF,,,,,,,,1.9001,,,,,,,,,,,,,,,,,,,,,,60fef35575c913648f573049,61036d4f22b2f12b331285c8,2021-07-29_20h12.44.756,Simcolourproject_2stim_asymm_v5,2020.2.10,Win32,60,61025ae37ef11b136ea224fe,,,,,,,,,3546,56,24,1,0,0,response1disk,,6,5,10,1,0,0,rectangle,5,10,1,0,0,,,,,,,5,10,1,0,0,,1,31,191,155,1,
,,,,,,,,,,,,,FF,,,,,,,,1.3332,,,,,,,,,,,,,,,,,,,,,,60fef35575c913648f573049,61036d4f22b2f12b331285c8,2021-07-29_20h12.44.756,Simcolourproject_2stim_asymm_v5,2020.2.10,Win32,60,61025ae37ef11b136ea224fe,,,,,,,,,1040,16,-60,1,0,0,response3disk,,4,-6,13,1,0,0,rectangle,-6,13,1,0,0,,,,,,,-6,13,1,0,0,,1,32,192,132,1,
,,,,,,,,,,,,,FF,,,,,,,,0.7,,,,,,,,,,,,,,,,,,,,,,60fef35575c913648f573049,61036d4f22b2f12b331285c8,2021-07-29_20h12.44.756,Simcolourproject_2stim_asymm_v5,2020.2.10,Win32,60,61025ae37ef11b136ea224fe,,,,,,,,,2764,27,57,1,0,0,response1disk,,7,-3,8,1,0,0,rectangle,-3,8,1,0,0,,,,,,,-3,8,1,0,0,,1,33,193,147,1,
,,,,,,,,,,,,,FF,,,,,,,,2.1499,,,,,,,,,,,,,,,,,,,,,,60fef35575c913648f573049,61036d4f22b2f12b331285c8,2021-07-29_20h12.44.756,Simcolourproject_2stim_asymm_v5,2020.2.10,Win32,60,61025ae37ef11b136ea224fe,,,,,,,,,3565,-39,-61,1,0,0,response5disk,,3,-1,-2,1,0,0,rectangle,-1,-2,1,0,0,,,,,,,-1,-2,1,0,0,,1,34,194,4,1,
,,,,,,,,,,,,,FF,,,,,,,,0.9337,,,,,,,,,,,,,,,,,,,,,,60fef35575c913648f573049,61036d4f22b2f12b331285c8,2021-07-29_20h12.44.756,Simcolourproject_2stim_asymm_v5,2020.2.10,Win32,60,61025ae37ef11b136ea224fe,,,,,,,,,1819,-64,-38,1,0,0,response5disk,,2,-12,2,1,0,0,rectangle,-12,2,1,0,0,,,,,,,-12,2,1,0,0,,1,35,195,91,1,
,,,,,,,,,,,,,FF,,,,,,,,0.8999,,,,,,,,,,,,,,,,,,,,,,60fef35575c913648f573049,61036d4f22b2f12b331285c8,2021-07-29_20h12.44.756,Simcolourproject_2stim_asymm_v5,2020.2.10,Win32,60,61025ae37ef11b136ea224fe,,,,,,,,,4146,-55,35,1,0,0,response7disk,,1,12,5,1,0,0,rectangle,12,5,1,0,0,,,,,,,12,5,1,0,0,,1,36,196,82,1,
,,,,,,,,,,,,,FF,,,,,,,,0.6668,,,,,,,,,,,,,,,,,,,,,,60fef35575c913648f573049,61036d4f22b2f12b331285c8,2021-07-29_20h12.44.756,Simcolourproject_2stim_asymm_v5,2020.2.10,Win32,60,61025ae37ef11b136ea224fe,,,,,,,,,1272,21,54,1,0,0,response1disk,,7,-5,6,1,0,0,rectangle,-5,6,1,0,0,,,,,,,-5,6,1,0,0,,1,37,197,56,1,
,,,,,,,,,,,,,FF,,,,,,,,0.6172,,,,,,,,,,,,,,,,,,,,,,60fef35575c913648f573049,61036d4f22b2f12b331285c8,2021-07-29_20h12.44.756,Simcolourproject_2stim_asymm_v5,2020.2.10,Win32,60,61025ae37ef11b136ea224fe,,,,,,,,,4235,-42,63,1,0,0,response7disk,,0,4,3,1,0,0,rectangle,4,3,1,0,0,,,,,,,4,3,1,0,0,,1,38,198,70,1,
,,,,,,,,,,,,,FF,,,,,,,,1.9333,,,,,,,,,,,,,,,,,,,,,,60fef35575c913648f573049,61036d4f22b2f12b331285c8,2021-07-29_20h12.44.756,Simcolourproject_2stim_asymm_v5,2020.2.10,Win32,60,61025ae37ef11b136ea224fe,,,,,,,,,4031,-26,-59,1,0,0,response5disk,,3,-4,-8,1,0,0,rectangle,-4,-8,1,0,0,,,,,,,-4,-8,1,0,0,,1,39,199,148,1,
,,,,,,,,,,,,,FF,,,,,,,,1.0006,,,,,,,,,,,,,,,,,,,,,,60fef35575c913648f573049,61036d4f22b2f12b331285c8,2021-07-29_20h12.44.756,Simcolourproject_2stim_asymm_v5,2020.2.10,Win32,60,61025ae37ef11b136ea224fe,,,,,,,,,3214,45,58,1,0,0,response1disk,,7,4,5,1,0,0,rectangle,4,5,1,0,0,,,,,,,4,5,1,0,0,,1,40,200,125,1,
,,,,,,,,,,,,,FF,,,,,,,,0.7332,,,,,,,,,,,,,,,,,,,,,,60fef35575c913648f573049,61036d4f22b2f12b331285c8,2021-07-29_20h12.44.756,Simcolourproject_2stim_asymm_v5,2020.2.10,Win32,60,61025ae37ef11b136ea224fe,,,,,,,,,2361,-69,43,1,0,0,response7disk,,1,-8,6,1,0,0,rectangle,-8,6,1,0,0,,,,,,,-8,6,1,0,0,,1,41,201,60,1,
,,,,,,,,,,,,,FF,,,,,,,,0.8335,,,,,,,,,,,,,,,,,,,,,,60fef35575c913648f573049,61036d4f22b2f12b331285c8,2021-07-29_20h12.44.756,Simcolourproject_2stim_asymm_v5,2020.2.10,Win32,60,61025ae37ef11b136ea224fe,,,,,,,,,3744,-84,-56,1,0,0,response5disk,,2,4,-5,1,0,0,rectangle,4,-5,1,0,0,,,,,,,4,-5,1,0,0,,1,42,202,102,1,
,,,,,,,,,,,,,FF,,,,,,,,0.7165,,,,,,,,,,,,,,,,,,,,,,60fef35575c913648f573049,61036d4f22b2f12b331285c8,2021-07-29_20h12.44.756,Simcolourproject_2stim_asymm_v5,2020.2.10,Win32,60,61025ae37ef11b136ea224fe,,,,,,,,,1090,22,61,1,0,0,response1disk,,7,-14,1,1,0,0,rectangle,-14,1,1,0,0,,,,,,,-14,1,1,0,0,,1,43,203,157,1,
,,,,,,,,,,,,,FF,,,,,,,,0.7502,,,,,,,,,,,,,,,,,,,,,,60fef35575c913648f573049,61036d4f22b2f12b331285c8,2021-07-29_20h12.44.756,Simcolourproject_2stim_asymm_v5,2020.2.10,Win32,60,61025ae37ef11b136ea224fe,,,,,,,,,1549,28,60,1,0,0,response1disk,,7,0,4,1,0,0,rectangle,0,4,1,0,0,,,,,,,0,4,1,0,0,,1,44,204,117,1,
,,,,,,,,,,,,,FF,,,,,,,,0.934,,,,,,,,,,,,,,,,,,,,,,60fef35575c913648f573049,61036d4f22b2f12b331285c8,2021-07-29_20h12.44.756,Simcolourproject_2stim_asymm_v5,2020.2.10,Win32,60,61025ae37ef11b136ea224fe,,,,,,,,,1829,-31,-53,1,0,0,response5disk,,3,4,3,1,0,0,rectangle,4,3,1,0,0,,,,,,,4,3,1,0,0,,1,45,205,127,1,
,,,,,,,,,,,,,FF,,,,,,,,0.7835,,,,,,,,,,,,,,,,,,,,,,60fef35575c913648f573049,61036d4f22b2f12b331285c8,2021-07-29_20h12.44.756,Simcolourproject_2stim_asymm_v5,2020.2.10,Win32,60,61025ae37ef11b136ea224fe,,,,,,,,,1920,32,49,1,0,0,response1disk,,7,5,7,1,0,0,rectangle,5,7,1,0,0,,,,,,,5,7,1,0,0,,1,46,206,75,1,
,,,,,,,,,,,,,FF,,,,,,,,0.8169,,,,,,,,,,,,,,,,,,,,,,60fef35575c913648f573049,61036d4f22b2f12b331285c8,2021-07-29_20h12.44.756,Simcolourproject_2stim_asymm_v5,2020.2.10,Win32,60,61025ae37ef11b136ea224fe,,,,,,,,,3712,-59,-26,1,0,0,response5disk,,2,-1,0,1,0,0,rectangle,-1,0,1,0,0,,,,,,,-1,0,1,0,0,,1,47,207,65,1,
,,,,,,,,,,,,,FF,,,,,,,,1.4833,,,,,,,,,,,,,,,,,,,,,,60fef35575c913648f573049,61036d4f22b2f12b331285c8,2021-07-29_20h12.44.756,Simcolourproject_2stim_asymm_v5,2020.2.10,Win32,60,61025ae37ef11b136ea224fe,,,,,,,,,3435,-90,-34,1,0,0,response5disk,,2,-9,-5,1,0,0,rectangle,-9,-5,1,0,0,,,,,,,-9,-5,1,0,0,,1,48,208,73,1,
,,,,,,,,,,,,,FF,,,,,,,,1.3831,,,,,,,,,,,,,,,,,,,,,,60fef35575c913648f573049,61036d4f22b2f12b331285c8,2021-07-29_20h12.44.756,Simcolourproject_2stim_asymm_v5,2020.2.10,Win32,60,61025ae37ef11b136ea224fe,,,,,,,,,2214,51,-16,1,0,0,response3disk,,5,12,-9,1,0,0,rectangle,12,-9,1,0,0,,,,,,,12,-9,1,0,0,,1,49,209,66,1,
,,,,,,,,,,,,,FF,,,,,,,,0.7,,,,,,,,,,,,,,,,,,,,,,60fef35575c913648f573049,61036d4f22b2f12b331285c8,2021-07-29_20h12.44.756,Simcolourproject_2stim_asymm_v5,2020.2.10,Win32,60,61025ae37ef11b136ea224fe,,,,,,,,,579,19,36,1,0,0,response1disk,,7,-4,-4,1,0,0,rectangle,-4,-4,1,0,0,,,,,,,-4,-4,1,0,0,,1,50,210,134,1,
,,,,,,,,,,,,,FF,,,,,,,,0.9338,,,,,,,,,,,,,,,,,,,,,,60fef35575c913648f573049,61036d4f22b2f12b331285c8,2021-07-29_20h12.44.756,Simcolourproject_2stim_asymm_v5,2020.2.10,Win32,60,61025ae37ef11b136ea224fe,,,,,,,,,3037,-65,41,1,0,0,response7disk,,1,6,0,1,0,0,rectangle,6,0,1,0,0,,,,,,,6,0,1,0,0,,1,51,211,78,1,
,,,,,,,,,,,,,FF,,,,,,,,2.1667,,,,,,,,,,,,,,,,,,,,,,60fef35575c913648f573049,61036d4f22b2f12b331285c8,2021-07-29_20h12.44.756,Simcolourproject_2stim_asymm_v5,2020.2.10,Win32,60,61025ae37ef11b136ea224fe,,,,,,,,,3358,56,101,1,0,0,response1disk,,7,1,15,1,0,0,rectangle,1,15,1,0,0,,,,,,,1,15,1,0,0,,1,52,212,83,1,
,,,,,,,,,,,,,FF,,,,,,,,1.0665,,,,,,,,,,,,,,,,,,,,,,60fef35575c913648f573049,61036d4f22b2f12b331285c8,2021-07-29_20h12.44.756,Simcolourproject_2stim_asymm_v5,2020.2.10,Win32,60,61025ae37ef11b136ea224fe,,,,,,,,,631,-79,30,1,0,0,response7disk,,1,-3,-3,1,0,0,rectangle,-3,-3,1,0,0,,,,,,,-3,-3,1,0,0,,1,53,213,63,1,
,,,,,,,,,,,,,FF,,,,,,,,0.7331,,,,,,,,,,,,,,,,,,,,,,60fef35575c913648f573049,61036d4f22b2f12b331285c8,2021-07-29_20h12.44.756,Simcolourproject_2stim_asymm_v5,2020.2.10,Win32,60,61025ae37ef11b136ea224fe,,,,,,,,,2507,15,47,1,0,0,response1disk,,7,-4,11,1,0,0,rectangle,-4,11,1,0,0,,,,,,,-4,11,1,0,0,,1,54,214,54,1,
,,,,,,,,,,,,,FF,,,,,,,,0.8173,,,,,,,,,,,,,,,,,,,,,,60fef35575c913648f573049,61036d4f22b2f12b331285c8,2021-07-29_20h12.44.756,Simcolourproject_2stim_asymm_v5,2020.2.10,Win32,60,61025ae37ef11b136ea224fe,,,,,,,,,2917,38,63,1,0,0,response1disk,,7,2,-2,1,0,0,rectangle,2,-2,1,0,0,,,,,,,2,-2,1,0,0,,1,55,215,112,1,
,,,,,,,,,,,,,FF,,,,,,,,0.7838,,,,,,,,,,,,,,,,,,,,,,60fef35575c913648f573049,61036d4f22b2f12b331285c8,2021-07-29_20h12.44.756,Simcolourproject_2stim_asymm_v5,2020.2.10,Win32,60,61025ae37ef11b136ea224fe,,,,,,,,,2720,-70,37,1,0,0,response7disk,,1,7,-9,1,0,0,rectangle,7,-9,1,0,0,,,,,,,7,-9,1,0,0,,1,56,216,119,1,
,,,,,,,,,,,,,FF,,,,,,,,0.7334,,,,,,,,,,,,,,,,,,,,,,60fef35575c913648f573049,61036d4f22b2f12b331285c8,2021-07-29_20h12.44.756,Simcolourproject_2stim_asymm_v5,2020.2.10,Win32,60,61025ae37ef11b136ea224fe,,,,,,,,,2783,-73,-33,1,0,0,response5disk,,2,-2,-9,1,0,0,rectangle,-2,-9,1,0,0,,,,,,,-2,-9,1,0,0,,1,57,217,36,1,
,,,,,,,,,,,,,FF,,,,,,,,0.6505,,,,,,,,,,,,,,,,,,,,,,60fef35575c913648f573049,61036d4f22b2f12b331285c8,2021-07-29_20h12.44.756,Simcolourproject_2stim_asymm_v5,2020.2.10,Win32,60,61025ae37ef11b136ea224fe,,,,,,,,,22,19,41,1,0,0,response1disk,,7,-7,3,1,0,0,rectangle,34,74,1,0,0,response1disk_3,TRUE,7,7,"[88,62,21,170,134,16,1,85,7,23,184,46,176,191,189,45,44,219,248,259]",1.3998,0,5,1,0,0,rectangle,1,58,218,150,1,
,,,,,,,,,,,,,FF,,,,,,,,0.9497,,,,,,,,,,,,,,,,,,,,,,60fef35575c913648f573049,61036d4f22b2f12b331285c8,2021-07-29_20h12.44.756,Simcolourproject_2stim_asymm_v5,2020.2.10,Win32,60,61025ae37ef11b136ea224fe,,,,,,,,,1241,-86,-20,1,0,0,response5disk,,2,-6,-4,1,0,0,rectangle,-6,-4,1,0,0,,,,,,,-6,-4,1,0,0,,1,59,219,72,1,
,,,,,,,,,,,,,FF,,,,,,,,1.0505,,,,,,,,,,,,,,,,,,,,,,60fef35575c913648f573049,61036d4f22b2f12b331285c8,2021-07-29_20h12.44.756,Simcolourproject_2stim_asymm_v5,2020.2.10,Win32,60,61025ae37ef11b136ea224fe,,,,,,,,,674,54,-42,1,0,0,response3disk,,5,10,-12,1,0,0,rectangle,10,-12,1,0,0,,,,,,,10,-12,1,0,0,,1,60,220,69,1,
,,,,,,,,,,,,,FF,,,,,,,,0.6502,,,,,,,,,,,,,,,,,,,,,,60fef35575c913648f573049,61036d4f22b2f12b331285c8,2021-07-29_20h12.44.756,Simcolourproject_2stim_asymm_v5,2020.2.10,Win32,60,61025ae37ef11b136ea224fe,,,,,,,,,3541,38,70,1,0,0,response1disk,,7,4,4,1,0,0,rectangle,4,4,1,0,0,,,,,,,4,4,1,0,0,,1,61,221,9,1,
,,,,,,,,,,,,,FF,,,,,,,,0.6353,,,,,,,,,,,,,,,,,,,,,,60fef35575c913648f573049,61036d4f22b2f12b331285c8,2021-07-29_20h12.44.756,Simcolourproject_2stim_asymm_v5,2020.2.10,Win32,60,61025ae37ef11b136ea224fe,,,,,,,,,2067,27,60,1,0,0,response1disk,,7,-2,-3,1,0,0,rectangle,-2,-3,1,0,0,,,,,,,-2,-3,1,0,0,,1,62,222,58,1,
,,,,,,,,,,,,,FF,,,,,,,,0.6836,,,,,,,,,,,,,,,,,,,,,,60fef35575c913648f573049,61036d4f22b2f12b331285c8,2021-07-29_20h12.44.756,Simcolourproject_2stim_asymm_v5,2020.2.10,Win32,60,61025ae37ef11b136ea224fe,,,,,,,,,1990,22,52,1,0,0,response1disk,,7,-6,1,1,0,0,rectangle,-6,1,1,0,0,,,,,,,-6,1,1,0,0,,1,63,223,0,1,
,,,,,,,,,,,,,FF,,,,,,,,0.6509,,,,,,,,,,,,,,,,,,,,,,60fef35575c913648f573049,61036d4f22b2f12b331285c8,2021-07-29_20h12.44.756,Simcolourproject_2stim_asymm_v5,2020.2.10,Win32,60,61025ae37ef11b136ea224fe,,,,,,,,,1142,26,52,1,0,0,response1disk,,7,-4,-4,1,0,0,rectangle,-4,-4,1,0,0,,,,,,,-4,-4,1,0,0,,1,64,224,68,1,
,,,,,,,,,,,,,FF,,,,,,,,1.2,,,,,,,,,,,,,,,,,,,,,,60fef35575c913648f573049,61036d4f22b2f12b331285c8,2021-07-29_20h12.44.756,Simcolourproject_2stim_asymm_v5,2020.2.10,Win32,60,61025ae37ef11b136ea224fe,,,,,,,,,975,-57,-34,1,0,0,response5disk,,2,-15,-14,1,0,0,rectangle,-15,-14,1,0,0,,,,,,,-15,-14,1,0,0,,1,65,225,131,1,
,,,,,,,,,,,,,FF,,,,,,,,1.533,,,,,,,,,,,,,,,,,,,,,,60fef35575c913648f573049,61036d4f22b2f12b331285c8,2021-07-29_20h12.44.756,Simcolourproject_2stim_asymm_v5,2020.2.10,Win32,60,61025ae37ef11b136ea224fe,,,,,,,,,3926,49,-29,1,0,0,response3disk,,5,11,-8,1,0,0,rectangle,11,-8,1,0,0,,,,,,,11,-8,1,0,0,,1,66,226,32,1,
,,,,,,,,,,,,,FF,,,,,,,,1,,,,,,,,,,,,,,,,,,,,,,60fef35575c913648f573049,61036d4f22b2f12b331285c8,2021-07-29_20h12.44.756,Simcolourproject_2stim_asymm_v5,2020.2.10,Win32,60,61025ae37ef11b136ea224fe,,,,,,,,,3961,37,53,1,0,0,response1disk,,7,8,12,1,0,0,rectangle,8,12,1,0,0,,,,,,,8,12,1,0,0,,1,67,227,123,1,
,,,,,,,,,,,,,FF,,,,,,,,1.0671,,,,,,,,,,,,,,,,,,,,,,60fef35575c913648f573049,61036d4f22b2f12b331285c8,2021-07-29_20h12.44.756,Simcolourproject_2stim_asymm_v5,2020.2.10,Win32,60,61025ae37ef11b136ea224fe,,,,,,,,,2629,49,-21,1,0,0,response3disk,,5,7,-4,1,0,0,rectangle,7,-4,1,0,0,,,,,,,7,-4,1,0,0,,1,68,228,59,1,
,,,,,,,,,,,,,FF,,,,,,,,1.0841,,,,,,,,,,,,,,,,,,,,,,60fef35575c913648f573049,61036d4f22b2f12b331285c8,2021-07-29_20h12.44.756,Simcolourproject_2stim_asymm_v5,2020.2.10,Win32,60,61025ae37ef11b136ea224fe,,,,,,,,,2593,-64,-26,1,0,0,response5disk,,2,-17,6,1,0,0,rectangle,-17,6,1,0,0,,,,,,,-17,6,1,0,0,,1,69,229,50,1,
,,,,,,,,,,,,,FF,,,,,,,,1.5662,,,,,,,,,,,,,,,,,,,,,,60fef35575c913648f573049,61036d4f22b2f12b331285c8,2021-07-29_20h12.44.756,Simcolourproject_2stim_asymm_v5,2020.2.10,Win32,60,61025ae37ef11b136ea224fe,,,,,,,,,2416,26,-64,1,0,0,response3disk,,4,-2,5,1,0,0,rectangle,-2,5,1,0,0,,,,,,,-2,5,1,0,0,,1,70,230,94,1,
,,,,,,,,,,,,,FF,,,,,,,,0.7505,,,,,,,,,,,,,,,,,,,,,,60fef35575c913648f573049,61036d4f22b2f12b331285c8,2021-07-29_20h12.44.756,Simcolourproject_2stim_asymm_v5,2020.2.10,Win32,60,61025ae37ef11b136ea224fe,,,,,,,,,1079,-30,-51,1,0,0,response5disk,,3,-14,-11,1,0,0,rectangle,-14,-11,1,0,0,,,,,,,-14,-11,1,0,0,,1,71,231,52,1,
,,,,,,,,,,,,,FF,,,,,,,,1.0664,,,,,,,,,,,,,,,,,,,,,,60fef35575c913648f573049,61036d4f22b2f12b331285c8,2021-07-29_20h12.44.756,Simcolourproject_2stim_asymm_v5,2020.2.10,Win32,60,61025ae37ef11b136ea224fe,,,,,,,,,4115,-38,-40,1,0,0,response5disk,,3,-7,9,1,0,0,rectangle,-7,9,1,0,0,,,,,,,-7,9,1,0,0,,1,72,232,105,1,
,,,,,,,,,,,,,FF,,,,,,,,0.7544,,,,,,,,,,,,,,,,,,,,,,60fef35575c913648f573049,61036d4f22b2f12b331285c8,2021-07-29_20h12.44.756,Simcolourproject_2stim_asymm_v5,2020.2.10,Win32,60,61025ae37ef11b136ea224fe,,,,,,,,,2144,24,63,1,0,0,response1disk,,7,-3,1,1,0,0,rectangle,-3,1,1,0,0,,,,,,,-3,1,1,0,0,,1,73,233,88,1,
,,,,,,,,,,,,,FF,,,,,,,,1.2499,,,,,,,,,,,,,,,,,,,,,,60fef35575c913648f573049,61036d4f22b2f12b331285c8,2021-07-29_20h12.44.756,Simcolourproject_2stim_asymm_v5,2020.2.10,Win32,60,61025ae37ef11b136ea224fe,,,,,,,,,804,-70,-32,1,0,0,response5disk,,2,-13,-15,1,0,0,rectangle,-13,-15,1,0,0,,,,,,,-13,-15,1,0,0,,1,74,234,48,1,
,,,,,,,,,,,,,FF,,,,,,,,0.8166,,,,,,,,,,,,,,,,,,,,,,60fef35575c913648f573049,61036d4f22b2f12b331285c8,2021-07-29_20h12.44.756,Simcolourproject_2stim_asymm_v5,2020.2.10,Win32,60,61025ae37ef11b136ea224fe,,,,,,,,,2647,45,76,1,0,0,response1disk,,7,4,12,1,0,0,rectangle,4,12,1,0,0,,,,,,,4,12,1,0,0,,1,75,235,124,1,
,,,,,,,,,,,,,FF,,,,,,,,0.6502,,,,,,,,,,,,,,,,,,,,,,60fef35575c913648f573049,61036d4f22b2f12b331285c8,2021-07-29_20h12.44.756,Simcolourproject_2stim_asymm_v5,2020.2.10,Win32,60,61025ae37ef11b136ea224fe,,,,,,,,,2011,43,80,1,0,0,response1disk,,7,-11,0,1,0,0,rectangle,-11,0,1,0,0,,,,,,,-11,0,1,0,0,,1,76,236,53,1,
,,,,,,,,,,,,,FF,,,,,,,,1.35,,,,,,,,,,,,,,,,,,,,,,60fef35575c913648f573049,61036d4f22b2f12b331285c8,2021-07-29_20h12.44.756,Simcolourproject_2stim_asymm_v5,2020.2.10,Win32,60,61025ae37ef11b136ea224fe,,,,,,,,,59,54,-29,1,0,0,response3disk,,5,19,-7,1,0,0,rectangle,19,-7,1,0,0,,,,,,,19,-7,1,0,0,,1,77,237,137,1,
,,,,,,,,,,,,,FF,,,,,,,,1.0848,,,,,,,,,,,,,,,,,,,,,,60fef35575c913648f573049,61036d4f22b2f12b331285c8,2021-07-29_20h12.44.756,Simcolourproject_2stim_asymm_v5,2020.2.10,Win32,60,61025ae37ef11b136ea224fe,,,,,,,,,999,48,75,1,0,0,response1disk,,7,1,11,1,0,0,rectangle,1,11,1,0,0,,,,,,,1,11,1,0,0,,1,78,238,8,1,
,,,,,,,,,,,,,FF,,,,,,,,1.6003,,,,,,,,,,,,,,,,,,,,,,60fef35575c913648f573049,61036d4f22b2f12b331285c8,2021-07-29_20h12.44.756,Simcolourproject_2stim_asymm_v5,2020.2.10,Win32,60,61025ae37ef11b136ea224fe,,,,,,,,,3708,-31,-79,1,0,0,response5disk,,3,1,-9,1,0,0,rectangle,1,-9,1,0,0,,,,,,,1,-9,1,0,0,,1,79,239,44,1,
,,,,,,,,,,,,,FF,,,,,,,,1.9998,,,,,,,,,,,,,,,,,,,,,,60fef35575c913648f573049,61036d4f22b2f12b331285c8,2021-07-29_20h12.44.756,Simcolourproject_2stim_asymm_v5,2020.2.10,Win32,60,61025ae37ef11b136ea224fe,,,,,,,,,2430,34,-68,1,0,0,response3disk,,4,7,-10,1,0,0,rectangle,7,-10,1,0,0,,,,,,,7,-10,1,0,0,,1,80,240,19,1,
,,,,,,,,,,,,,FF,,,,,,,,0.7336,,,,,,,,,,,,,,,,,,,,,,60fef35575c913648f573049,61036d4f22b2f12b331285c8,2021-07-29_20h12.44.756,Simcolourproject_2stim_asymm_v5,2020.2.10,Win32,60,61025ae37ef11b136ea224fe,,,,,,,,,1787,58,43,1,0,0,response1disk,,6,11,0,1,0,0,rectangle,11,0,1,0,0,,,,,,,11,0,1,0,0,,1,81,241,110,1,
,,,,,,,,,,,,,FF,,,,,,,,0.7165,,,,,,,,,,,,,,,,,,,,,,60fef35575c913648f573049,61036d4f22b2f12b331285c8,2021-07-29_20h12.44.756,Simcolourproject_2stim_asymm_v5,2020.2.10,Win32,60,61025ae37ef11b136ea224fe,,,,,,,,,3085,67,40,1,0,0,response1disk,,6,17,12,1,0,0,rectangle,17,12,1,0,0,,,,,,,17,12,1,0,0,,1,82,242,101,1,
,,,,,,,,,,,,,FF,,,,,,,,0.8002,,,,,,,,,,,,,,,,,,,,,,60fef35575c913648f573049,61036d4f22b2f12b331285c8,2021-07-29_20h12.44.756,Simcolourproject_2stim_asymm_v5,2020.2.10,Win32,60,61025ae37ef11b136ea224fe,,,,,,,,,1066,49,81,1,0,0,response1disk,,7,-3,-3,1,0,0,rectangle,-3,-3,1,0,0,,,,,,,-3,-3,1,0,0,,1,83,243,16,1,
,,,,,,,,,,,,,FF,,,,,,,,0.9164,,,,,,,,,,,,,,,,,,,,,,60fef35575c913648f573049,61036d4f22b2f12b331285c8,2021-07-29_20h12.44.756,Simcolourproject_2stim_asymm_v5,2020.2.10,Win32,60,61025ae37ef11b136ea224fe,,,,,,,,,2321,30,65,1,0,0,response1disk,,7,7,9,1,0,0,rectangle,7,9,1,0,0,,,,,,,7,9,1,0,0,,1,84,244,116,1,
,,,,,,,,,,,,,FF,,,,,,,,0.7836,,,,,,,,,,,,,,,,,,,,,,60fef35575c913648f573049,61036d4f22b2f12b331285c8,2021-07-29_20h12.44.756,Simcolourproject_2stim_asymm_v5,2020.2.10,Win32,60,61025ae37ef11b136ea224fe,,,,,,,,,3468,-31,63,1,0,0,response7disk,,0,-4,-2,1,0,0,rectangle,-4,-2,1,0,0,,,,,,,-4,-2,1,0,0,,1,85,245,18,1,
,,,,,,,,,,,,,FF,,,,,,,,1.0166,,,,,,,,,,,,,,,,,,,,,,60fef35575c913648f573049,61036d4f22b2f12b331285c8,2021-07-29_20h12.44.756,Simcolourproject_2stim_asymm_v5,2020.2.10,Win32,60,61025ae37ef11b136ea224fe,,,,,,,,,345,-22,-62,1,0,0,response5disk,,3,5,10,1,0,0,rectangle,5,10,1,0,0,,,,,,,5,10,1,0,0,,1,86,246,10,1,
,,,,,,,,,,,,,FF,,,,,,,,0.7499,,,,,,,,,,,,,,,,,,,,,,60fef35575c913648f573049,61036d4f22b2f12b331285c8,2021-07-29_20h12.44.756,Simcolourproject_2stim_asymm_v5,2020.2.10,Win32,60,61025ae37ef11b136ea224fe,,,,,,,,,390,48,67,1,0,0,response1disk,,7,6,5,1,0,0,rectangle,-19,91,1,0,0,response7disk_3,TRUE,0,0,"[88,62,21,170,134,16,1,85,7,23,184,46,176,191,189,45,44,219,248,259]",2.0836,-8,9,1,0,0,rectangle,1,87,247,111,1,
,,,,,,,,,,,,,FF,,,,,,,,0.7336,,,,,,,,,,,,,,,,,,,,,,60fef35575c913648f573049,61036d4f22b2f12b331285c8,2021-07-29_20h12.44.756,Simcolourproject_2stim_asymm_v5,2020.2.10,Win32,60,61025ae37ef11b136ea224fe,,,,,,,,,1862,26,85,1,0,0,response1disk,,7,-17,-7,1,0,0,rectangle,-17,-7,1,0,0,,,,,,,-17,-7,1,0,0,,1,88,248,149,1,
,,,,,,,,,,,,,FF,,,,,,,,0.7499,,,,,,,,,,,,,,,,,,,,,,60fef35575c913648f573049,61036d4f22b2f12b331285c8,2021-07-29_20h12.44.756,Simcolourproject_2stim_asymm_v5,2020.2.10,Win32,60,61025ae37ef11b136ea224fe,,,,,,,,,1203,-36,55,1,0,0,response7disk,,0,-9,1,1,0,0,rectangle,-9,1,1,0,0,,,,,,,-9,1,1,0,0,,1,89,249,141,1,
,,,,,,,,,,,,,FF,,,,,,,,1.8333,,,,,,,,,,,,,,,,,,,,,,60fef35575c913648f573049,61036d4f22b2f12b331285c8,2021-07-29_20h12.44.756,Simcolourproject_2stim_asymm_v5,2020.2.10,Win32,60,61025ae37ef11b136ea224fe,,,,,,,,,966,64,40,1,0,0,response1disk,,6,5,6,1,0,0,rectangle,5,6,1,0,0,,,,,,,5,6,1,0,0,,1,90,250,115,1,
,,,,,,,,,,,,,FF,,,,,,,,1.0003,,,,,,,,,,,,,,,,,,,,,,60fef35575c913648f573049,61036d4f22b2f12b331285c8,2021-07-29_20h12.44.756,Simcolourproject_2stim_asymm_v5,2020.2.10,Win32,60,61025ae37ef11b136ea224fe,,,,,,,,,3296,-51,23,1,0,0,response7disk,,1,-10,2,1,0,0,rectangle,-10,2,1,0,0,,,,,,,-10,2,1,0,0,,1,91,251,41,1,
,,,,,,,,,,,,,FF,,,,,,,,0.8997,,,,,,,,,,,,,,,,,,,,,,60fef35575c913648f573049,61036d4f22b2f12b331285c8,2021-07-29_20h12.44.756,Simcolourproject_2stim_asymm_v5,2020.2.10,Win32,60,61025ae37ef11b136ea224fe,,,,,,,,,1901,-84,30,1,0,0,response7disk,,1,-2,1,1,0,0,rectangle,-2,1,1,0,0,,,,,,,-2,1,1,0,0,,1,92,252,100,1,
,,,,,,,,,,,,,FF,,,,,,,,1.4334,,,,,,,,,,,,,,,,,,,,,,60fef35575c913648f573049,61036d4f22b2f12b331285c8,2021-07-29_20h12.44.756,Simcolourproject_2stim_asymm_v5,2020.2.10,Win32,60,61025ae37ef11b136ea224fe,,,,,,,,,1041,50,-76,1,0,0,response3disk,,4,-6,10,1,0,0,rectangle,-6,10,1,0,0,,,,,,,-6,10,1,0,0,,1,93,253,120,1,
,,,,,,,,,,,,,FF,,,,,,,,1.1514,,,,,,,,,,,,,,,,,,,,,,60fef35575c913648f573049,61036d4f22b2f12b331285c8,2021-07-29_20h12.44.756,Simcolourproject_2stim_asymm_v5,2020.2.10,Win32,60,61025ae37ef11b136ea224fe,,,,,,,,,2627,58,-21,1,0,0,response3disk,,5,27,-3,1,0,0,rectangle,27,-3,1,0,0,,,,,,,27,-3,1,0,0,,1,94,254,30,1,
,,,,,,,,,,,,,FF,,,,,,,,1.1334,,,,,,,,,,,,,,,,,,,,,,60fef35575c913648f573049,61036d4f22b2f12b331285c8,2021-07-29_20h12.44.756,Simcolourproject_2stim_asymm_v5,2020.2.10,Win32,60,61025ae37ef11b136ea224fe,,,,,,,,,1719,-33,21,1,0,0,response7disk,,1,-6,7,1,0,0,rectangle,-6,7,1,0,0,,,,,,,-6,7,1,0,0,,1,95,255,146,1,
,,,,,,,,,,,,,FF,,,,,,,,0.835,,,,,,,,,,,,,,,,,,,,,,60fef35575c913648f573049,61036d4f22b2f12b331285c8,2021-07-29_20h12.44.756,Simcolourproject_2stim_asymm_v5,2020.2.10,Win32,60,61025ae37ef11b136ea224fe,,,,,,,,,3956,29,51,1,0,0,response1disk,,7,3,13,1,0,0,rectangle,3,13,1,0,0,,,,,,,3,13,1,0,0,,1,96,256,80,1,
,,,,,,,,,,,,,FF,,,,,,,,0.7834,,,,,,,,,,,,,,,,,,,,,,60fef35575c913648f573049,61036d4f22b2f12b331285c8,2021-07-29_20h12.44.756,Simcolourproject_2stim_asymm_v5,2020.2.10,Win32,60,61025ae37ef11b136ea224fe,,,,,,,,,3670,-42,34,1,0,0,response7disk,,1,-1,7,1,0,0,rectangle,-1,7,1,0,0,,,,,,,-1,7,1,0,0,,1,97,257,135,1,
,,,,,,,,,,,,,FF,,,,,,,,0.8666,,,,,,,,,,,,,,,,,,,,,,60fef35575c913648f573049,61036d4f22b2f12b331285c8,2021-07-29_20h12.44.756,Simcolourproject_2stim_asymm_v5,2020.2.10,Win32,60,61025ae37ef11b136ea224fe,,,,,,,,,1544,-83,-47,1,0,0,response5disk,,2,-26,-10,1,0,0,rectangle,23,-58,1,0,0,response3disk_3,TRUE,4,4,"[88,62,21,170,134,16,1,85,7,23,184,46,176,191,189,45,44,219,248,259]",1.4831,1,0,1,0,0,rectangle,1,98,258,154,1,
,,,,,,,,,,,,,FF,,,,,,,,1.5,,,,,,,,,,,,,,,,,,,,,,60fef35575c913648f573049,61036d4f22b2f12b331285c8,2021-07-29_20h12.44.756,Simcolourproject_2stim_asymm_v5,2020.2.10,Win32,60,61025ae37ef11b136ea224fe,,,,,,,,,1149,30,-53,1,0,0,response3disk,,4,-2,-9,1,0,0,rectangle,-2,-9,1,0,0,,,,,,,-2,-9,1,0,0,,1,99,259,21,1,
,,,,,,,,,,,,,FF,,,,,,,,1.4336,,,,,,,,,,,,,,,,,,,,,,60fef35575c913648f573049,61036d4f22b2f12b331285c8,2021-07-29_20h12.44.756,Simcolourproject_2stim_asymm_v5,2020.2.10,Win32,60,61025ae37ef11b136ea224fe,,,,,,,,,1440,49,25,1,0,0,response1disk,,6,17,3,1,0,0,rectangle,17,3,1,0,0,,,,,,,17,3,1,0,0,,1,100,260,57,1,
,,,,,,,,,,,,,FF,,,,,,,,1.6336,,,,,,,,,,,,,,,,,,,,,,60fef35575c913648f573049,61036d4f22b2f12b331285c8,2021-07-29_20h12.44.756,Simcolourproject_2stim_asymm_v5,2020.2.10,Win32,60,61025ae37ef11b136ea224fe,,,,,,,,,4040,56,25,1,0,0,response1disk,,6,24,9,1,0,0,rectangle,24,9,1,0,0,,,,,,,24,9,1,0,0,,1,101,261,47,1,
,,,,,,,,,,,,,FF,,,,,,,,0.8508,,,,,,,,,,,,,,,,,,,,,,60fef35575c913648f573049,61036d4f22b2f12b331285c8,2021-07-29_20h12.44.756,Simcolourproject_2stim_asymm_v5,2020.2.10,Win32,60,61025ae37ef11b136ea224fe,,,,,,,,,54,27,66,1,0,0,response1disk,,7,8,9,1,0,0,rectangle,8,9,1,0,0,,,,,,,8,9,1,0,0,,1,102,262,96,1,
,,,,,,,,,,,,,FF,,,,,,,,0.7,,,,,,,,,,,,,,,,,,,,,,60fef35575c913648f573049,61036d4f22b2f12b331285c8,2021-07-29_20h12.44.756,Simcolourproject_2stim_asymm_v5,2020.2.10,Win32,60,61025ae37ef11b136ea224fe,,,,,,,,,1251,29,51,1,0,0,response1disk,,7,15,12,1,0,0,rectangle,15,12,1,0,0,,,,,,,15,12,1,0,0,,1,103,263,20,1,
,,,,,,,,,,,,,FF,,,,,,,,0.6821,,,,,,,,,,,,,,,,,,,,,,60fef35575c913648f573049,61036d4f22b2f12b331285c8,2021-07-29_20h12.44.756,Simcolourproject_2stim_asymm_v5,2020.2.10,Win32,60,61025ae37ef11b136ea224fe,,,,,,,,,3290,-18,47,1,0,0,response7disk,,0,2,6,1,0,0,rectangle,2,6,1,0,0,,,,,,,2,6,1,0,0,,1,104,264,28,1,
,,,,,,,,,,,,,FF,,,,,,,,0.767,,,,,,,,,,,,,,,,,,,,,,60fef35575c913648f573049,61036d4f22b2f12b331285c8,2021-07-29_20h12.44.756,Simcolourproject_2stim_asymm_v5,2020.2.10,Win32,60,61025ae37ef11b136ea224fe,,,,,,,,,3177,35,51,1,0,0,response1disk,,7,-7,1,1,0,0,rectangle,-7,1,1,0,0,,,,,,,-7,1,1,0,0,,1,105,265,35,1,
,,,,,,,,,,,,,FF,,,,,,,,0.7002,,,,,,,,,,,,,,,,,,,,,,60fef35575c913648f573049,61036d4f22b2f12b331285c8,2021-07-29_20h12.44.756,Simcolourproject_2stim_asymm_v5,2020.2.10,Win32,60,61025ae37ef11b136ea224fe,,,,,,,,,128,21,46,1,0,0,response1disk,,7,4,0,1,0,0,rectangle,4,0,1,0,0,,,,,,,4,0,1,0,0,,1,106,266,25,1,
,,,,,,,,,,,,,FF,,,,,,,,0.6163,,,,,,,,,,,,,,,,,,,,,,60fef35575c913648f573049,61036d4f22b2f12b331285c8,2021-07-29_20h12.44.756,Simcolourproject_2stim_asymm_v5,2020.2.10,Win32,60,61025ae37ef11b136ea224fe,,,,,,,,,2858,31,49,1,0,0,response1disk,,7,13,6,1,0,0,rectangle,13,6,1,0,0,,,,,,,13,6,1,0,0,,1,107,267,90,1,
,,,,,,,,,,,,,FF,,,,,,,,0.8667,,,,,,,,,,,,,,,,,,,,,,60fef35575c913648f573049,61036d4f22b2f12b331285c8,2021-07-29_20h12.44.756,Simcolourproject_2stim_asymm_v5,2020.2.10,Win32,60,61025ae37ef11b136ea224fe,,,,,,,,,1200,-36,22,1,0,0,response7disk,,1,-3,3,1,0,0,rectangle,-3,3,1,0,0,,,,,,,-3,3,1,0,0,,1,108,268,95,1,
,,,,,,,,,,,,,FF,,,,,,,,1.4833,,,,,,,,,,,,,,,,,,,,,,60fef35575c913648f573049,61036d4f22b2f12b331285c8,2021-07-29_20h12.44.756,Simcolourproject_2stim_asymm_v5,2020.2.10,Win32,60,61025ae37ef11b136ea224fe,,,,,,,,,329,23,55,1,0,0,response1disk,,7,-4,8,1,0,0,rectangle,-4,8,1,0,0,,,,,,,-4,8,1,0,0,,1,109,269,12,1,
,,,,,,,,,,,,,FF,,,,,,,,1.2307,,,,,,,,,,,,,,,,,,,,,,60fef35575c913648f573049,61036d4f22b2f12b331285c8,2021-07-29_20h12.44.756,Simcolourproject_2stim_asymm_v5,2020.2.10,Win32,60,61025ae37ef11b136ea224fe,,,,,,,,,80,35,-63,1,0,0,response3disk,,4,3,1,1,0,0,rectangle,3,1,1,0,0,,,,,,,3,1,1,0,0,,1,110,270,128,1,
,,,,,,,,,,,,,FF,,,,,,,,1.0016,,,,,,,,,,,,,,,,,,,,,,60fef35575c913648f573049,61036d4f22b2f12b331285c8,2021-07-29_20h12.44.756,Simcolourproject_2stim_asymm_v5,2020.2.10,Win32,60,61025ae37ef11b136ea224fe,,,,,,,,,1587,-26,-59,1,0,0,response5disk,,3,-8,-8,1,0,0,rectangle,-8,-8,1,0,0,,,,,,,-8,-8,1,0,0,,1,111,271,93,1,
,,,,,,,,,,,,,FF,,,,,,,,1.267,,,,,,,,,,,,,,,,,,,,,,60fef35575c913648f573049,61036d4f22b2f12b331285c8,2021-07-29_20h12.44.756,Simcolourproject_2stim_asymm_v5,2020.2.10,Win32,60,61025ae37ef11b136ea224fe,,,,,,,,,112,53,43,1,0,0,response1disk,,6,10,7,1,0,0,rectangle,10,7,1,0,0,,,,,,,10,7,1,0,0,,1,112,272,31,1,
,,,,,,,,,,,,,FF,,,,,,,,0.8503,,,,,,,,,,,,,,,,,,,,,,60fef35575c913648f573049,61036d4f22b2f12b331285c8,2021-07-29_20h12.44.756,Simcolourproject_2stim_asymm_v5,2020.2.10,Win32,60,61025ae37ef11b136ea224fe,,,,,,,,,1425,40,86,1,0,0,response1disk,,7,-10,-6,1,0,0,rectangle,-10,-6,1,0,0,,,,,,,-10,-6,1,0,0,,1,113,273,24,1,
,,,,,,,,,,,,,FF,,,,,,,,1.6335,,,,,,,,,,,,,,,,,,,,,,60fef35575c913648f573049,61036d4f22b2f12b331285c8,2021-07-29_20h12.44.756,Simcolourproject_2stim_asymm_v5,2020.2.10,Win32,60,61025ae37ef11b136ea224fe,,,,,,,,,1335,54,25,1,0,0,response1disk,,6,19,3,1,0,0,rectangle,19,3,1,0,0,,,,,,,19,3,1,0,0,,1,114,274,51,1,
,,,,,,,,,,,,,FF,,,,,,,,0.7835,,,,,,,,,,,,,,,,,,,,,,60fef35575c913648f573049,61036d4f22b2f12b331285c8,2021-07-29_20h12.44.756,Simcolourproject_2stim_asymm_v5,2020.2.10,Win32,60,61025ae37ef11b136ea224fe,,,,,,,,,2558,30,46,1,0,0,response1disk,,7,5,15,1,0,0,rectangle,5,15,1,0,0,,,,,,,5,15,1,0,0,,1,115,275,87,1,
,,,,,,,,,,,,,FF,,,,,,,,0.5837,,,,,,,,,,,,,,,,,,,,,,60fef35575c913648f573049,61036d4f22b2f12b331285c8,2021-07-29_20h12.44.756,Simcolourproject_2stim_asymm_v5,2020.2.10,Win32,60,61025ae37ef11b136ea224fe,,,,,,,,,2910,31,51,1,0,0,response1disk,,7,1,-6,1,0,0,rectangle,1,-6,1,0,0,,,,,,,1,-6,1,0,0,,1,116,276,43,1,
,,,,,,,,,,,,,FF,,,,,,,,0.9834,,,,,,,,,,,,,,,,,,,,,,60fef35575c913648f573049,61036d4f22b2f12b331285c8,2021-07-29_20h12.44.756,Simcolourproject_2stim_asymm_v5,2020.2.10,Win32,60,61025ae37ef11b136ea224fe,,,,,,,,,3391,-59,-35,1,0,0,response5disk,,2,3,0,1,0,0,rectangle,3,0,1,0,0,,,,,,,3,0,1,0,0,,1,117,277,159,1,
,,,,,,,,,,,,,FF,,,,,,,,0.8502,,,,,,,,,,,,,,,,,,,,,,60fef35575c913648f573049,61036d4f22b2f12b331285c8,2021-07-29_20h12.44.756,Simcolourproject_2stim_asymm_v5,2020.2.10,Win32,60,61025ae37ef11b136ea224fe,,,,,,,,,72,-74,28,1,0,0,response7disk,,1,0,-1,1,0,0,rectangle,0,-1,1,0,0,,,,,,,0,-1,1,0,0,,1,118,278,86,1,
,,,,,,,,,,,,,FF,,,,,,,,0.9004,,,,,,,,,,,,,,,,,,,,,,60fef35575c913648f573049,61036d4f22b2f12b331285c8,2021-07-29_20h12.44.756,Simcolourproject_2stim_asymm_v5,2020.2.10,Win32,60,61025ae37ef11b136ea224fe,,,,,,,,,2431,-17,-59,1,0,0,response5disk,,3,-11,0,1,0,0,rectangle,-11,0,1,0,0,,,,,,,-11,0,1,0,0,,1,119,279,76,1,
,,,,,,,,,,,,,FF,,,,,,,,2.2507,,,,,,,,,,,,,,,,,,,,,,60fef35575c913648f573049,61036d4f22b2f12b331285c8,2021-07-29_20h12.44.756,Simcolourproject_2stim_asymm_v5,2020.2.10,Win32,60,61025ae37ef11b136ea224fe,,,,,,,,,575,69,-50,1,0,0,response3disk,,5,8,-4,1,0,0,rectangle,8,-4,1,0,0,,,,,,,8,-4,1,0,0,,1,120,280,130,1,
,,,,,,,,,,,,,FF,,,,,,,,1.9337,,,,,,,,,,,,,,,,,,,,,,60fef35575c913648f573049,61036d4f22b2f12b331285c8,2021-07-29_20h12.44.756,Simcolourproject_2stim_asymm_v5,2020.2.10,Win32,60,61025ae37ef11b136ea224fe,,,,,,,,,21,74,38,1,0,0,response1disk,,6,29,15,1,0,0,rectangle,29,15,1,0,0,,,,,,,29,15,1,0,0,,1,121,281,49,1,
,,,,,,,,,,,,,FF,,,,,,,,1.0496,,,,,,,,,,,,,,,,,,,,,,60fef35575c913648f573049,61036d4f22b2f12b331285c8,2021-07-29_20h12.44.756,Simcolourproject_2stim_asymm_v5,2020.2.10,Win32,60,61025ae37ef11b136ea224fe,,,,,,,,,2369,-41,-52,1,0,0,response5disk,,3,-13,6,1,0,0,rectangle,-13,6,1,0,0,,,,,,,-13,6,1,0,0,,1,122,282,145,1,
,,,,,,,,,,,,,FF,,,,,,,,1.7334,,,,,,,,,,,,,,,,,,,,,,60fef35575c913648f573049,61036d4f22b2f12b331285c8,2021-07-29_20h12.44.756,Simcolourproject_2stim_asymm_v5,2020.2.10,Win32,60,61025ae37ef11b136ea224fe,,,,,,,,,3872,60,-56,1,0,0,response3disk,,5,8,4,1,0,0,rectangle,8,4,1,0,0,,,,,,,8,4,1,0,0,,1,123,283,129,1,
,,,,,,,,,,,,,FF,,,,,,,,0.8002,,,,,,,,,,,,,,,,,,,,,,60fef35575c913648f573049,61036d4f22b2f12b331285c8,2021-07-29_20h12.44.756,Simcolourproject_2stim_asymm_v5,2020.2.10,Win32,60,61025ae37ef11b136ea224fe,,,,,,,,,2578,27,43,1,0,0,response1disk,,7,7,13,1,0,0,rectangle,7,13,1,0,0,,,,,,,7,13,1,0,0,,1,124,284,46,1,
,,,,,,,,,,,,,FF,,,,,,,,0.7677,,,,,,,,,,,,,,,,,,,,,,60fef35575c913648f573049,61036d4f22b2f12b331285c8,2021-07-29_20h12.44.756,Simcolourproject_2stim_asymm_v5,2020.2.10,Win32,60,61025ae37ef11b136ea224fe,,,,,,,,,3656,44,29,1,0,0,response1disk,,6,12,0,1,0,0,rectangle,12,0,1,0,0,,,,,,,12,0,1,0,0,,1,125,285,62,1,
,,,,,,,,,,,,,FF,,,,,,,,0.8005,,,,,,,,,,,,,,,,,,,,,,60fef35575c913648f573049,61036d4f22b2f12b331285c8,2021-07-29_20h12.44.756,Simcolourproject_2stim_asymm_v5,2020.2.10,Win32,60,61025ae37ef11b136ea224fe,,,,,,,,,4136,23,38,1,0,0,response1disk,,7,9,-2,1,0,0,rectangle,9,-2,1,0,0,,,,,,,9,-2,1,0,0,,1,126,286,97,1,
,,,,,,,,,,,,,FF,,,,,,,,0.9832,,,,,,,,,,,,,,,,,,,,,,60fef35575c913648f573049,61036d4f22b2f12b331285c8,2021-07-29_20h12.44.756,Simcolourproject_2stim_asymm_v5,2020.2.10,Win32,60,61025ae37ef11b136ea224fe,,,,,,,,,1371,-23,-35,1,0,0,response5disk,,3,-6,-4,1,0,0,rectangle,-6,-4,1,0,0,,,,,,,-6,-4,1,0,0,,1,127,287,14,1,
,,,,,,,,,,,,,FF,,,,,,,,0.8173,,,,,,,,,,,,,,,,,,,,,,60fef35575c913648f573049,61036d4f22b2f12b331285c8,2021-07-29_20h12.44.756,Simcolourproject_2stim_asymm_v5,2020.2.10,Win32,60,61025ae37ef11b136ea224fe,,,,,,,,,2059,18,38,1,0,0,response1disk,,7,3,6,1,0,0,rectangle,3,6,1,0,0,,,,,,,3,6,1,0,0,,1,128,288,152,1,
,,,,,,,,,,,,,FF,,,,,,,,1.0836,,,,,,,,,,,,,,,,,,,,,,60fef35575c913648f573049,61036d4f22b2f12b331285c8,2021-07-29_20h12.44.756,Simcolourproject_2stim_asymm_v5,2020.2.10,Win32,60,61025ae37ef11b136ea224fe,,,,,,,,,3610,20,49,1,0,0,response1disk,,7,7,13,1,0,0,rectangle,7,13,1,0,0,,,,,,,7,13,1,0,0,,1,129,289,109,1,
,,,,,,,,,,,,,FF,,,,,,,,1.7664,,,,,,,,,,,,,,,,,,,,,,60fef35575c913648f573049,61036d4f22b2f12b331285c8,2021-07-29_20h12.44.756,Simcolourproject_2stim_asymm_v5,2020.2.10,Win32,60,61025ae37ef11b136ea224fe,,,,,,,,,833,68,24,1,0,0,response1disk,,6,19,9,1,0,0,rectangle,19,9,1,0,0,,,,,,,19,9,1,0,0,,1,130,290,144,1,
,,,,,,,,,,,,,FF,,,,,,,,0.6833,,,,,,,,,,,,,,,,,,,,,,60fef35575c913648f573049,61036d4f22b2f12b331285c8,2021-07-29_20h12.44.756,Simcolourproject_2stim_asymm_v5,2020.2.10,Win32,60,61025ae37ef11b136ea224fe,,,,,,,,,1487,24,55,1,0,0,response1disk,,7,-1,4,1,0,0,rectangle,-1,4,1,0,0,,,,,,,-1,4,1,0,0,,1,131,291,107,1,
,,,,,,,,,,,,,FF,,,,,,,,0.7335,,,,,,,,,,,,,,,,,,,,,,60fef35575c913648f573049,61036d4f22b2f12b331285c8,2021-07-29_20h12.44.756,Simcolourproject_2stim_asymm_v5,2020.2.10,Win32,60,61025ae37ef11b136ea224fe,,,,,,,,,397,23,63,1,0,0,response1disk,,7,-4,-6,1,0,0,rectangle,-4,-6,1,0,0,,,,,,,-4,-6,1,0,0,,1,132,292,34,1,
,,,,,,,,,,,,,FF,,,,,,,,0.8501,,,,,,,,,,,,,,,,,,,,,,60fef35575c913648f573049,61036d4f22b2f12b331285c8,2021-07-29_20h12.44.756,Simcolourproject_2stim_asymm_v5,2020.2.10,Win32,60,61025ae37ef11b136ea224fe,,,,,,,,,70,-52,-27,1,0,0,response5disk,,2,-22,-7,1,0,0,rectangle,-22,-7,1,0,0,,,,,,,-22,-7,1,0,0,,1,133,293,45,1,
,,,,,,,,,,,,,FF,,,,,,,,0.8001,,,,,,,,,,,,,,,,,,,,,,60fef35575c913648f573049,61036d4f22b2f12b331285c8,2021-07-29_20h12.44.756,Simcolourproject_2stim_asymm_v5,2020.2.10,Win32,60,61025ae37ef11b136ea224fe,,,,,,,,,3677,-52,-37,1,0,0,response5disk,,2,-14,-11,1,0,0,rectangle,-14,-11,1,0,0,,,,,,,-14,-11,1,0,0,,1,134,294,103,1,
,,,,,,,,,,,,,FF,,,,,,,,0.8005,,,,,,,,,,,,,,,,,,,,,,60fef35575c913648f573049,61036d4f22b2f12b331285c8,2021-07-29_20h12.44.756,Simcolourproject_2stim_asymm_v5,2020.2.10,Win32,60,61025ae37ef11b136ea224fe,,,,,,,,,32,28,63,1,0,0,response1disk,,7,-4,7,1,0,0,rectangle,-4,7,1,0,0,,,,,,,-4,7,1,0,0,,1,135,295,17,1,
,,,,,,,,,,,,,FF,,,,,,,,0.8833,,,,,,,,,,,,,,,,,,,,,,60fef35575c913648f573049,61036d4f22b2f12b331285c8,2021-07-29_20h12.44.756,Simcolourproject_2stim_asymm_v5,2020.2.10,Win32,60,61025ae37ef11b136ea224fe,,,,,,,,,1463,-37,-61,1,0,0,response5disk,,3,0,3,1,0,0,rectangle,0,3,1,0,0,,,,,,,0,3,1,0,0,,1,136,296,158,1,
,,,,,,,,,,,,,FF,,,,,,,,0.7507,,,,,,,,,,,,,,,,,,,,,,60fef35575c913648f573049,61036d4f22b2f12b331285c8,2021-07-29_20h12.44.756,Simcolourproject_2stim_asymm_v5,2020.2.10,Win32,60,61025ae37ef11b136ea224fe,,,,,,,,,3077,20,42,1,0,0,response1disk,,7,-4,13,1,0,0,rectangle,-4,13,1,0,0,,,,,,,-4,13,1,0,0,,1,137,297,143,1,
,,,,,,,,,,,,,FF,,,,,,,,0.8166,,,,,,,,,,,,,,,,,,,,,,60fef35575c913648f573049,61036d4f22b2f12b331285c8,2021-07-29_20h12.44.756,Simcolourproject_2stim_asymm_v5,2020.2.10,Win32,60,61025ae37ef11b136ea224fe,,,,,,,,,4314,16,43,1,0,0,response1disk,,7,10,8,1,0,0,rectangle,10,8,1,0,0,,,,,,,10,8,1,0,0,,1,138,298,38,1,
,,,,,,,,,,,,,FF,,,,,,,,1.7333,,,,,,,,,,,,,,,,,,,,,,60fef35575c913648f573049,61036d4f22b2f12b331285c8,2021-07-29_20h12.44.756,Simcolourproject_2stim_asymm_v5,2020.2.10,Win32,60,61025ae37ef11b136ea224fe,,,,,,,,,1541,-28,-61,1,0,0,response5disk,,3,-12,-12,1,0,0,rectangle,-12,-12,1,0,0,,,,,,,-12,-12,1,0,0,,1,139,299,15,1,
,,,,,,,,,,,,,FF,,,,,,,,1.1004,,,,,,,,,,,,,,,,,,,,,,60fef35575c913648f573049,61036d4f22b2f12b331285c8,2021-07-29_20h12.44.756,Simcolourproject_2stim_asymm_v5,2020.2.10,Win32,60,61025ae37ef11b136ea224fe,,,,,,,,,857,15,43,1,0,0,response1disk,,7,-6,6,1,0,0,rectangle,-6,6,1,0,0,,,,,,,-6,6,1,0,0,,1,140,300,89,1,
,,,,,,,,,,,,,FF,,,,,,,,0.8505,,,,,,,,,,,,,,,,,,,,,,60fef35575c913648f573049,61036d4f22b2f12b331285c8,2021-07-29_20h12.44.756,Simcolourproject_2stim_asymm_v5,2020.2.10,Win32,60,61025ae37ef11b136ea224fe,,,,,,,,,497,20,39,1,0,0,response1disk,,7,17,9,1,0,0,rectangle,17,9,1,0,0,,,,,,,17,9,1,0,0,,1,141,301,133,1,
,,,,,,,,,,,,,FF,,,,,,,,1.0166,,,,,,,,,,,,,,,,,,,,,,60fef35575c913648f573049,61036d4f22b2f12b331285c8,2021-07-29_20h12.44.756,Simcolourproject_2stim_asymm_v5,2020.2.10,Win32,60,61025ae37ef11b136ea224fe,,,,,,,,,1725,23,48,1,0,0,response1disk,,7,1,-12,1,0,0,rectangle,1,-12,1,0,0,,,,,,,1,-12,1,0,0,,1,142,302,42,1,
