key_resp.keys,key_resp.rt,key_resp_14.keys,key_resp_14.rt,key_resp_15.keys,key_resp_15.rt,key_resp_17.keys,key_resp_17.rt,key_resp_9.keys,key_resp_9.rt,key_resp_10.keys,key_resp_10.rt,practice_comparison,Ecc,mouse_5.x,mouse_5.y,mouse_5.leftButton,mouse_5.midButton,mouse_5.rightButton,mouse_5.clicked_name,pracsimilarity,response_time,mouse_10.x,mouse_10.y,mouse_10.leftButton,mouse_10.midButton,mouse_10.rightButton,mouse_10.clicked_name,mouse_7.x,mouse_7.y,mouse_7.leftButton,mouse_7.midButton,mouse_7.rightButton,mouse_6.x,mouse_6.y,mouse_6.leftButton,mouse_6.midButton,mouse_6.rightButton,duringprac.thisRepN,duringprac.thisTrialN,duringprac.thisN,duringprac.thisIndex,duringprac.ran,participant,session,date,expName,psychopyVersion,OS,frameRate,study_id,mouse_7.clicked_name,catchpracsimilarity,catch_response_time,catchnumberprac,catchtrialorderprac,mouse_6.clicked_name,key_resp_22.keys,key_resp_22.rt,realcomparison,mouse.x,mouse.y,mouse.leftButton,mouse.midButton,mouse.rightButton,mouse.clicked_name,Colour2,similarity,mouse_2.x,mouse_2.y,mouse_2.leftButton,mouse_2.midButton,mouse_2.rightButton,mouse_2.clicked_name,mouse_3.x,mouse_3.y,mouse_3.leftButton,mouse_3.midButton,mouse_3.rightButton,mouse_11.x,mouse_11.y,mouse_11.leftButton,mouse_11.midButton,mouse_11.rightButton,trials_2.thisRepN,trials_2.thisTrialN,trials_2.thisN,trials_2.thisIndex,trials_2.ran,Colour1,mouse_3.clicked_name,catchornah,catchsimilarity,catchnumber,catchtrialorder,catchRT,mouse_11.clicked_name
space,2.4792,space,36.6197,space,65.2475,space,4.6204,space,4.0146,space,7.3944,77,PF,-59.99998945,71.19997021,1,0,0,response7disk_5,0,12.6268,-4.799988627,4.799993634,1,0,0,rectangle_8,-4.799988627,4.799993634,1,0,0,-4.799988627,4.799993634,1,0,0,0,0,0,6,1,60fefbdab9a63c79e252bb96,61036bcc3a8cf79310e47e47,2021-07-29_22h03.26.789,Simcolourproject_2stim_asymm_v5,2020.2.10,Win32,60,61025ae37ef11b136ea224fe,,,,,,,,,,,,,,,,,,,,,,,,,,,,,,,,,,,,,,,,,,,,,,
,,,,,,,,,,,,69,FF,70.40001249,79.19997033,1,0,0,response1disk_5,7,8.9086,-13.59998876,-4.800006509,1,0,0,rectangle_8,55.20001227,112.7999952,1,0,0,-3.199988604,-6.400006533,1,0,0,0,1,1,3,1,60fefbdab9a63c79e252bb96,61036bcc3a8cf79310e47e47,2021-07-29_22h03.26.789,Simcolourproject_2stim_asymm_v5,2020.2.10,Win32,60,61025ae37ef11b136ea224fe,response1disk_7,7,5.0679,7,"[2,5]",rectangle_4,,,,,,,,,,,,,,,,,,,,,,,,,,,,,,,,,,,,,,,,
,,,,,,,,,,,,26,PF,-50.39994048,-80.00000763,1,0,0,response5disk_5,3,12.4888,-8.799988687,3.19999361,1,0,0,rectangle_8,-8.799988687,3.19999361,1,0,0,-8.799988687,3.19999361,1,0,0,0,2,2,4,1,60fefbdab9a63c79e252bb96,61036bcc3a8cf79310e47e47,2021-07-29_22h03.26.789,Simcolourproject_2stim_asymm_v5,2020.2.10,Win32,60,61025ae37ef11b136ea224fe,,,,,,,,,,,,,,,,,,,,,,,,,,,,,,,,,,,,,,,,,,,,,,
,,,,,,,,,,,,127,PF,59.20001233,102.3999951,1,0,0,response1disk_5,7,4.2292,20.80001175,-4.000006497,1,0,0,rectangle_8,20.80001175,-4.000006497,1,0,0,20.80001175,-4.000006497,1,0,0,0,3,3,2,1,60fefbdab9a63c79e252bb96,61036bcc3a8cf79310e47e47,2021-07-29_22h03.26.789,Simcolourproject_2stim_asymm_v5,2020.2.10,Win32,60,61025ae37ef11b136ea224fe,,,,,,,,,,,,,,,,,,,,,,,,,,,,,,,,,,,,,,,,,,,,,,
,,,,,,,,,,,,71,FF,41.60006089,-94.40000784,1,0,0,response3disk_5,4,4.2462,2.40001148,1.599993587,1,0,0,rectangle_8,68.80001247,102.3999951,1,0,0,9.600060415,-1.600006461,1,0,0,0,4,4,0,1,60fefbdab9a63c79e252bb96,61036bcc3a8cf79310e47e47,2021-07-29_22h03.26.789,Simcolourproject_2stim_asymm_v5,2020.2.10,Win32,60,61025ae37ef11b136ea224fe,response1disk_7,7,5.5448,7,"[2,5]",rectangle_4,,,,,,,,,,,,,,,,,,,,,,,,,,,,,,,,,,,,,,,,
,,,,,,,,,,,,41,FF,56.80001229,90.39999491,1,0,0,response1disk_5,7,4.4624,10.4000116,2.399993598,1,0,0,rectangle_8,10.4000116,2.399993598,1,0,0,10.4000116,2.399993598,1,0,0,0,5,5,5,1,60fefbdab9a63c79e252bb96,61036bcc3a8cf79310e47e47,2021-07-29_22h03.26.789,Simcolourproject_2stim_asymm_v5,2020.2.10,Win32,60,61025ae37ef11b136ea224fe,,,,,,,,,,,,,,,,,,,,,,,,,,,,,,,,,,,,,,,,,,,,,,
,,,,,,,,,,,,112,PF,48.80001217,83.99999481,1,0,0,response1disk_5,7,1.8815,3.200011492,-6.400006533,1,0,0,rectangle_8,3.200011492,-6.400006533,1,0,0,3.200011492,-6.400006533,1,0,0,0,6,6,1,1,60fefbdab9a63c79e252bb96,61036bcc3a8cf79310e47e47,2021-07-29_22h03.26.789,Simcolourproject_2stim_asymm_v5,2020.2.10,Win32,60,61025ae37ef11b136ea224fe,,,,,,,,,,,,,,,,,,,,,,,,,,,,,,,,,,,,,,,,,,,,,,
,,,,,,,,,,,,,FF,,,,,,,,3.1772,,,,,,,,,,,,,,,,,,,,,,60fefbdab9a63c79e252bb96,61036bcc3a8cf79310e47e47,2021-07-29_22h03.26.789,Simcolourproject_2stim_asymm_v5,2020.2.10,Win32,60,61025ae37ef11b136ea224fe,,,,,,,space,1.9517,1700,44.0000121,89.5999949,1,0,0,response1disk,,7,-6.399939823,-6.400006533,1,0,0,rectangle,-6.399939823,-6.400006533,1,0,0,-6.399939823,-6.400006533,1,0,0,0,0,0,119,1,,,,,,,,
,,,,,,,,,,,,,FF,,,,,,,,3.7799,,,,,,,,,,,,,,,,,,,,,,60fefbdab9a63c79e252bb96,61036bcc3a8cf79310e47e47,2021-07-29_22h03.26.789,Simcolourproject_2stim_asymm_v5,2020.2.10,Win32,60,61025ae37ef11b136ea224fe,,,,,,,,,250,40.80001205,67.19997015,1,0,0,response1disk,,7,6.400011539,-4.800006509,1,0,0,rectangle,6.400011539,-4.800006509,1,0,0,6.400011539,-4.800006509,1,0,0,0,1,1,12,1,,,,,,,,
,,,,,,,,,,,,,FF,,,,,,,,1.3939,,,,,,,,,,,,,,,,,,,,,,60fefbdab9a63c79e252bb96,61036bcc3a8cf79310e47e47,2021-07-29_22h03.26.789,Simcolourproject_2stim_asymm_v5,2020.2.10,Win32,60,61025ae37ef11b136ea224fe,,,,,,,,,160,45.60006095,87.19997045,1,0,0,response1disk,,7,4.800011516,0.799993575,1,0,0,rectangle,4.800011516,0.799993575,1,0,0,4.800011516,0.799993575,1,0,0,0,2,2,19,1,,,,,,,,
,,,,,,,,,,,,,FF,,,,,,,,1.3984,,,,,,,,,,,,,,,,,,,,,,60fefbdab9a63c79e252bb96,61036bcc3a8cf79310e47e47,2021-07-29_22h03.26.789,Simcolourproject_2stim_asymm_v5,2020.2.10,Win32,60,61025ae37ef11b136ea224fe,,,,,,,,,2519,49.60006101,74.39999467,1,0,0,response1disk,,7,13.60006047,-5.600006521,1,0,0,rectangle,13.60006047,-5.600006521,1,0,0,13.60006047,-5.600006521,1,0,0,0,3,3,41,1,,,,,,,,
,,,,,,,,,,,,,FF,,,,,,,,1.2825,,,,,,,,,,,,,,,,,,,,,,60fefbdab9a63c79e252bb96,61036bcc3a8cf79310e47e47,2021-07-29_22h03.26.789,Simcolourproject_2stim_asymm_v5,2020.2.10,Win32,60,61025ae37ef11b136ea224fe,,,,,,,,,841,41.60006089,72.79999465,1,0,0,response1disk,,7,4.000011504,-2.400006473,1,0,0,rectangle,4.000011504,-2.400006473,1,0,0,4.000011504,-2.400006473,1,0,0,0,4,4,152,1,,,,,,,,
,,,,,,,,,,,,,FF,,,,,,,,1.4652,,,,,,,,,,,,,,,,,,,,,,60fefbdab9a63c79e252bb96,61036bcc3a8cf79310e47e47,2021-07-29_22h03.26.789,Simcolourproject_2stim_asymm_v5,2020.2.10,Win32,60,61025ae37ef11b136ea224fe,,,,,,,,,4348,106.400013,55.9999944,1,0,0,response1disk,,6,14.40001166,-8.000006557,1,0,0,rectangle,14.40001166,-8.000006557,1,0,0,14.40001166,-8.000006557,1,0,0,0,5,5,129,1,,,,,,,,
,,,,,,,,,,,,,FF,,,,,,,,6.7488,,,,,,,,,,,,,,,,,,,,,,60fefbdab9a63c79e252bb96,61036bcc3a8cf79310e47e47,2021-07-29_22h03.26.789,Simcolourproject_2stim_asymm_v5,2020.2.10,Win32,60,61025ae37ef11b136ea224fe,,,,,,,,,911,92.00001281,55.9999944,1,0,0,response1disk,,6,-1.59998858,-8.000006557,1,0,0,rectangle,-1.59998858,-8.000006557,1,0,0,-1.59998858,-8.000006557,1,0,0,0,6,6,149,1,,,,,,,,
,,,,,,,,,,,,,FF,,,,,,,,1.2459,,,,,,,,,,,,,,,,,,,,,,60fefbdab9a63c79e252bb96,61036bcc3a8cf79310e47e47,2021-07-29_22h03.26.789,Simcolourproject_2stim_asymm_v5,2020.2.10,Win32,60,61025ae37ef11b136ea224fe,,,,,,,,,2049,41.60006089,75.19997027,1,0,0,response1disk,,7,-1.59998858,0.799993575,1,0,0,rectangle,-1.59998858,0.799993575,1,0,0,-1.59998858,0.799993575,1,0,0,0,7,7,82,1,,,,,,,,
,,,,,,,,,,,,,FF,,,,,,,,1.1495,,,,,,,,,,,,,,,,,,,,,,60fefbdab9a63c79e252bb96,61036bcc3a8cf79310e47e47,2021-07-29_22h03.26.789,Simcolourproject_2stim_asymm_v5,2020.2.10,Win32,60,61025ae37ef11b136ea224fe,,,,,,,,,3616,47.20001215,85.59999484,1,0,0,response1disk,,7,12.80001163,13.59999377,1,0,0,rectangle,12.80001163,13.59999377,1,0,0,12.80001163,13.59999377,1,0,0,0,8,8,63,1,,,,,,,,
,,,,,,,,,,,,,FF,,,,,,,,0.8328,,,,,,,,,,,,,,,,,,,,,,60fefbdab9a63c79e252bb96,61036bcc3a8cf79310e47e47,2021-07-29_22h03.26.789,Simcolourproject_2stim_asymm_v5,2020.2.10,Win32,60,61025ae37ef11b136ea224fe,,,,,,,,,39,49.60006101,86.39999485,1,0,0,response1disk,,7,3.200011492,-6.4373E-06,1,0,0,rectangle,3.200011492,-6.4373E-06,1,0,0,3.200011492,-6.4373E-06,1,0,0,0,9,9,60,1,,,,,,,,
,,,,,,,,,,,,,FF,,,,,,,,1.0484,,,,,,,,,,,,,,,,,,,,,,60fefbdab9a63c79e252bb96,61036bcc3a8cf79310e47e47,2021-07-29_22h03.26.789,Simcolourproject_2stim_asymm_v5,2020.2.10,Win32,60,61025ae37ef11b136ea224fe,,,,,,,,,1503,52.00001222,74.39999467,1,0,0,response1disk,,7,12.00001162,1.599993587,1,0,0,rectangle,12.00001162,1.599993587,1,0,0,12.00001162,1.599993587,1,0,0,0,10,10,142,1,,,,,,,,
,,,,,,,,,,,,,FF,,,,,,,,0.8544,,,,,,,,,,,,,,,,,,,,,,60fefbdab9a63c79e252bb96,61036bcc3a8cf79310e47e47,2021-07-29_22h03.26.789,Simcolourproject_2stim_asymm_v5,2020.2.10,Win32,60,61025ae37ef11b136ea224fe,,,,,,,,,1549,35.20001197,75.19997027,1,0,0,response1disk,,7,14.40001166,-1.600006461,1,0,0,rectangle,14.40001166,-1.600006461,1,0,0,14.40001166,-1.600006461,1,0,0,0,11,11,127,1,,,,,,,,
,,,,,,,,,,,,,FF,,,,,,,,6.7772,,,,,,,,,,,,,,,,,,,,,,60fefbdab9a63c79e252bb96,61036bcc3a8cf79310e47e47,2021-07-29_22h03.26.789,Simcolourproject_2stim_asymm_v5,2020.2.10,Win32,60,61025ae37ef11b136ea224fe,,,,,,,,,1922,52.80001223,97.59999502,1,0,0,response1disk,,7,-5.599988639,3.999993622,1,0,0,rectangle,-5.599988639,3.999993622,1,0,0,-5.599988639,3.999993622,1,0,0,0,12,12,158,1,,,,,,,,
,,,,,,,,,,,,,FF,,,,,,,,1.2488,,,,,,,,,,,,,,,,,,,,,,60fefbdab9a63c79e252bb96,61036bcc3a8cf79310e47e47,2021-07-29_22h03.26.789,Simcolourproject_2stim_asymm_v5,2020.2.10,Win32,60,61025ae37ef11b136ea224fe,,,,,,,,,1106,51.20001221,87.19997045,1,0,0,response1disk,,7,16.80001169,8.799993694,1,0,0,rectangle,16.80001169,8.799993694,1,0,0,16.80001169,8.799993694,1,0,0,0,13,13,40,1,,,,,,,,
,,,,,,,,,,,,,FF,,,,,,,,0.866,,,,,,,,,,,,,,,,,,,,,,60fefbdab9a63c79e252bb96,61036bcc3a8cf79310e47e47,2021-07-29_22h03.26.789,Simcolourproject_2stim_asymm_v5,2020.2.10,Win32,60,61025ae37ef11b136ea224fe,,,,,,,,,1515,45.60006095,71.99999464,1,0,0,response1disk,,7,10.4000116,-0.800006449,1,0,0,rectangle,10.4000116,-0.800006449,1,0,0,10.4000116,-0.800006449,1,0,0,0,14,14,81,1,,,,,,,,
,,,,,,,,,,,,,FF,,,,,,,,1.0535,,,,,,,,,,,,,,,,,,,,,,60fefbdab9a63c79e252bb96,61036bcc3a8cf79310e47e47,2021-07-29_22h03.26.789,Simcolourproject_2stim_asymm_v5,2020.2.10,Win32,60,61025ae37ef11b136ea224fe,,,,,,,,,2865,39.20001203,59.99999446,1,0,0,response1disk,,7,1.600060296,-4.000006497,1,0,0,rectangle,1.600060296,-4.000006497,1,0,0,1.600060296,-4.000006497,1,0,0,0,15,15,79,1,,,,,,,,
,,,,,,,,,,,,,FF,,,,,,,,0.9714,,,,,,,,,,,,,,,,,,,,,,60fefbdab9a63c79e252bb96,61036bcc3a8cf79310e47e47,2021-07-29_22h03.26.789,Simcolourproject_2stim_asymm_v5,2020.2.10,Win32,60,61025ae37ef11b136ea224fe,,,,,,,,,3733,58.40001231,82.39999479,1,0,0,response1disk,,7,2.40001148,-1.600006461,1,0,0,rectangle,2.40001148,-1.600006461,1,0,0,2.40001148,-1.600006461,1,0,0,0,16,16,124,1,,,,,,,,
,,,,,,,,,,,,,FF,,,,,,,,2.3314,,,,,,,,,,,,,,,,,,,,,,60fefbdab9a63c79e252bb96,61036bcc3a8cf79310e47e47,2021-07-29_22h03.26.789,Simcolourproject_2stim_asymm_v5,2020.2.10,Win32,60,61025ae37ef11b136ea224fe,,,,,,,,,3859,-43.99998921,-87.20000774,1,0,0,response5disk,,3,6.400011539,0.799993575,1,0,0,rectangle,6.400011539,0.799993575,1,0,0,6.400011539,0.799993575,1,0,0,0,17,17,139,1,,,,,,,,
,,,,,,,,,,,,,FF,,,,,,,,0.9157,,,,,,,,,,,,,,,,,,,,,,60fefbdab9a63c79e252bb96,61036bcc3a8cf79310e47e47,2021-07-29_22h03.26.789,Simcolourproject_2stim_asymm_v5,2020.2.10,Win32,60,61025ae37ef11b136ea224fe,,,,,,,,,1998,48.00001216,103.1999707,1,0,0,response1disk,,7,-19.19998884,-8.800006568,1,0,0,rectangle,-19.19998884,-8.800006568,1,0,0,-19.19998884,-8.800006568,1,0,0,0,18,18,56,1,,,,,,,,
,,,,,,,,,,,,,FF,,,,,,,,2.3806,,,,,,,,,,,,,,,,,,,,,,60fefbdab9a63c79e252bb96,61036bcc3a8cf79310e47e47,2021-07-29_22h03.26.789,Simcolourproject_2stim_asymm_v5,2020.2.10,Win32,60,61025ae37ef11b136ea224fe,,,,,,,,,457,-61.59998947,-82.40000767,1,0,0,response5disk,,3,-11.19998872,-7.200006545,1,0,0,rectangle,-11.19998872,-7.200006545,1,0,0,-11.19998872,-7.200006545,1,0,0,0,19,19,147,1,,,,,,,,
,,,,,,,,,,,,,FF,,,,,,,,4.946,,,,,,,,,,,,,,,,,,,,,,60fefbdab9a63c79e252bb96,61036bcc3a8cf79310e47e47,2021-07-29_22h03.26.789,Simcolourproject_2stim_asymm_v5,2020.2.10,Win32,60,61025ae37ef11b136ea224fe,,,,,,,,,1541,60.00001234,113.5999953,1,0,0,response1disk,,7,-7.999988675,-8.000006557,1,0,0,rectangle,-101.5999901,43.19996979,1,0,0,-3.199988604,11.99999374,1,0,0,0,20,20,95,1,,response7disk_3,TRUE,1,1,"[113,39,21,213,56,86,107,75,237,30,223,120,288,309,256,313,103,27,279,266]",3.6305,rectangle
,,,,,,,,,,,,,FF,,,,,,,,1.2489,,,,,,,,,,,,,,,,,,,,,,60fefbdab9a63c79e252bb96,61036bcc3a8cf79310e47e47,2021-07-29_22h03.26.789,Simcolourproject_2stim_asymm_v5,2020.2.10,Win32,60,61025ae37ef11b136ea224fe,,,,,,,,,2867,59.20001233,106.3999951,1,0,0,response1disk,,7,10.4000116,-0.800006449,1,0,0,rectangle,10.4000116,-0.800006449,1,0,0,10.4000116,-0.800006449,1,0,0,0,21,21,61,1,,,,,,,,
,,,,,,,,,,,,,FF,,,,,,,,0.8822,,,,,,,,,,,,,,,,,,,,,,60fefbdab9a63c79e252bb96,61036bcc3a8cf79310e47e47,2021-07-29_22h03.26.789,Simcolourproject_2stim_asymm_v5,2020.2.10,Win32,60,61025ae37ef11b136ea224fe,,,,,,,,,314,72.80001253,118.3999953,1,0,0,response1disk,,7,15.20001167,-3.200006485,1,0,0,rectangle,15.20001167,-3.200006485,1,0,0,15.20001167,-3.200006485,1,0,0,0,22,22,55,1,,,,,,,,
,,,,,,,,,,,,,FF,,,,,,,,1.4362,,,,,,,,,,,,,,,,,,,,,,60fefbdab9a63c79e252bb96,61036bcc3a8cf79310e47e47,2021-07-29_22h03.26.789,Simcolourproject_2stim_asymm_v5,2020.2.10,Win32,60,61025ae37ef11b136ea224fe,,,,,,,,,1483,43.20001209,78.39999473,1,0,0,response1disk,,7,12.80001163,-2.400006473,1,0,0,rectangle,12.80001163,-2.400006473,1,0,0,12.80001163,-2.400006473,1,0,0,0,23,23,35,1,,,,,,,,
,,,,,,,,,,,,,FF,,,,,,,,1.3706,,,,,,,,,,,,,,,,,,,,,,60fefbdab9a63c79e252bb96,61036bcc3a8cf79310e47e47,2021-07-29_22h03.26.789,Simcolourproject_2stim_asymm_v5,2020.2.10,Win32,60,61025ae37ef11b136ea224fe,,,,,,,,,611,-57.59998941,-99.20000792,1,0,0,response5disk,,3,12.00001162,12.79999375,1,0,0,rectangle,12.00001162,12.79999375,1,0,0,12.00001162,12.79999375,1,0,0,0,24,24,20,1,,,,,,,,
,,,,,,,,,,,,,FF,,,,,,,,5.3071,,,,,,,,,,,,,,,,,,,,,,60fefbdab9a63c79e252bb96,61036bcc3a8cf79310e47e47,2021-07-29_22h03.26.789,Simcolourproject_2stim_asymm_v5,2020.2.10,Win32,60,61025ae37ef11b136ea224fe,,,,,,,,,3097,-43.1999892,107.9999952,1,0,0,response7disk,,0,-9.599988699,4.799993634,1,0,0,rectangle,-9.599988699,4.799993634,1,0,0,-9.599988699,4.799993634,1,0,0,0,25,25,134,1,,,,,,,,
,,,,,,,,,,,,,FF,,,,,,,,1.0831,,,,,,,,,,,,,,,,,,,,,,60fefbdab9a63c79e252bb96,61036bcc3a8cf79310e47e47,2021-07-29_22h03.26.789,Simcolourproject_2stim_asymm_v5,2020.2.10,Win32,60,61025ae37ef11b136ea224fe,,,,,,,,,178,56.00001228,115.1999709,1,0,0,response1disk,,7,-14.39993994,-8.000006557,1,0,0,rectangle,64.80001241,106.3999951,1,0,0,6.400011539,-6.4373E-06,1,0,0,0,26,26,153,1,,response1disk_3,TRUE,7,7,"[113,39,21,213,56,86,107,75,237,30,223,120,288,309,256,313,103,27,279,266]",2.1476,rectangle
,,,,,,,,,,,,,FF,,,,,,,,1.1492,,,,,,,,,,,,,,,,,,,,,,60fefbdab9a63c79e252bb96,61036bcc3a8cf79310e47e47,2021-07-29_22h03.26.789,Simcolourproject_2stim_asymm_v5,2020.2.10,Win32,60,61025ae37ef11b136ea224fe,,,,,,,,,1782,56.00001228,82.39999479,1,0,0,response1disk,,7,1.600060296,-8.000006557,1,0,0,rectangle,1.600060296,-8.000006557,1,0,0,1.600060296,-8.000006557,1,0,0,0,27,27,50,1,,,,,,,,
,,,,,,,,,,,,,FF,,,,,,,,0.6375,,,,,,,,,,,,,,,,,,,,,,60fefbdab9a63c79e252bb96,61036bcc3a8cf79310e47e47,2021-07-29_22h03.26.789,Simcolourproject_2stim_asymm_v5,2020.2.10,Win32,60,61025ae37ef11b136ea224fe,,,,,,,,,281,41.60006089,60.79999447,1,0,0,response1disk,,7,4.800011516,-2.400006473,1,0,0,rectangle,4.800011516,-2.400006473,1,0,0,4.800011516,-2.400006473,1,0,0,0,28,28,98,1,,,,,,,,
,,,,,,,,,,,,,FF,,,,,,,,0.8156,,,,,,,,,,,,,,,,,,,,,,60fefbdab9a63c79e252bb96,61036bcc3a8cf79310e47e47,2021-07-29_22h03.26.789,Simcolourproject_2stim_asymm_v5,2020.2.10,Win32,60,61025ae37ef11b136ea224fe,,,,,,,,,4301,52.80001223,84.79999483,1,0,0,response1disk,,7,4.800011516,-8.000006557,1,0,0,rectangle,40.80001205,91.19997051,1,0,0,-8.799988687,-3.200006485,1,0,0,0,29,29,68,1,,response1disk_3,TRUE,7,0,"[113,39,21,213,56,86,107,75,237,30,223,120,288,309,256,313,103,27,279,266]",2.0976,rectangle
,,,,,,,,,,,,,FF,,,,,,,,2.0483,,,,,,,,,,,,,,,,,,,,,,60fefbdab9a63c79e252bb96,61036bcc3a8cf79310e47e47,2021-07-29_22h03.26.789,Simcolourproject_2stim_asymm_v5,2020.2.10,Win32,60,61025ae37ef11b136ea224fe,,,,,,,,,1285,47.20001215,79.99999475,1,0,0,response1disk,,7,8.000011563,6.399993658,1,0,0,rectangle,8.000011563,6.399993658,1,0,0,8.000011563,6.399993658,1,0,0,0,30,30,106,1,,,,,,,,
,,,,,,,,,,,,,FF,,,,,,,,0.9209,,,,,,,,,,,,,,,,,,,,,,60fefbdab9a63c79e252bb96,61036bcc3a8cf79310e47e47,2021-07-29_22h03.26.789,Simcolourproject_2stim_asymm_v5,2020.2.10,Win32,60,61025ae37ef11b136ea224fe,,,,,,,,,319,47.20001215,68.79999459,1,0,0,response1disk,,7,-0.799988568,1.599993587,1,0,0,rectangle,-0.799988568,1.599993587,1,0,0,-0.799988568,1.599993587,1,0,0,0,31,31,31,1,,,,,,,,
,,,,,,,,,,,,,FF,,,,,,,,0.8661,,,,,,,,,,,,,,,,,,,,,,60fefbdab9a63c79e252bb96,61036bcc3a8cf79310e47e47,2021-07-29_22h03.26.789,Simcolourproject_2stim_asymm_v5,2020.2.10,Win32,60,61025ae37ef11b136ea224fe,,,,,,,,,1163,64.80001241,103.1999707,1,0,0,response1disk,,7,-4.799988627,-9.60000658,1,0,0,rectangle,-4.799988627,-9.60000658,1,0,0,-4.799988627,-9.60000658,1,0,0,0,32,32,70,1,,,,,,,,
,,,,,,,,,,,,,FF,,,,,,,,0.7013,,,,,,,,,,,,,,,,,,,,,,60fefbdab9a63c79e252bb96,61036bcc3a8cf79310e47e47,2021-07-29_22h03.26.789,Simcolourproject_2stim_asymm_v5,2020.2.10,Win32,60,61025ae37ef11b136ea224fe,,,,,,,,,2326,33.60006077,83.99999481,1,0,0,response1disk,,7,-13.59998876,1.599993587,1,0,0,rectangle,-13.59998876,1.599993587,1,0,0,-13.59998876,1.599993587,1,0,0,0,33,33,52,1,,,,,,,,
,,,,,,,,,,,,,FF,,,,,,,,3.2306,,,,,,,,,,,,,,,,,,,,,,60fefbdab9a63c79e252bb96,61036bcc3a8cf79310e47e47,2021-07-29_22h03.26.789,Simcolourproject_2stim_asymm_v5,2020.2.10,Win32,60,61025ae37ef11b136ea224fe,,,,,,,,,1819,-43.99998921,-99.20000792,1,0,0,response5disk,,3,4.000011504,-4.800006509,1,0,0,rectangle,4.000011504,-4.800006509,1,0,0,4.000011504,-4.800006509,1,0,0,0,34,34,108,1,,,,,,,,
,,,,,,,,,,,,,FF,,,,,,,,0.9159,,,,,,,,,,,,,,,,,,,,,,60fefbdab9a63c79e252bb96,61036bcc3a8cf79310e47e47,2021-07-29_22h03.26.789,Simcolourproject_2stim_asymm_v5,2020.2.10,Win32,60,61025ae37ef11b136ea224fe,,,,,,,,,1473,72.00001252,101.5999951,1,0,0,response1disk,,7,8.000011563,2.399993598,1,0,0,rectangle,8.000011563,2.399993598,1,0,0,8.000011563,2.399993598,1,0,0,0,35,35,94,1,,,,,,,,
,,,,,,,,,,,,,FF,,,,,,,,1.2821,,,,,,,,,,,,,,,,,,,,,,60fefbdab9a63c79e252bb96,61036bcc3a8cf79310e47e47,2021-07-29_22h03.26.789,Simcolourproject_2stim_asymm_v5,2020.2.10,Win32,60,61025ae37ef11b136ea224fe,,,,,,,,,819,57.6000123,80.79999477,1,0,0,response1disk,,7,10.4000116,-4.000006497,1,0,0,rectangle,10.4000116,-4.000006497,1,0,0,10.4000116,-4.000006497,1,0,0,0,36,36,117,1,,,,,,,,
,,,,,,,,,,,,,FF,,,,,,,,3.8163,,,,,,,,,,,,,,,,,,,,,,60fefbdab9a63c79e252bb96,61036bcc3a8cf79310e47e47,2021-07-29_22h03.26.789,Simcolourproject_2stim_asymm_v5,2020.2.10,Win32,60,61025ae37ef11b136ea224fe,,,,,,,,,668,50.4000122,81.59999478,1,0,0,response1disk,,7,1.14441E-05,-5.600006521,1,0,0,rectangle,1.14441E-05,-5.600006521,1,0,0,1.14441E-05,-5.600006521,1,0,0,0,37,37,57,1,,,,,,,,
,,,,,,,,,,,,,FF,,,,,,,,0.7164,,,,,,,,,,,,,,,,,,,,,,60fefbdab9a63c79e252bb96,61036bcc3a8cf79310e47e47,2021-07-29_22h03.26.789,Simcolourproject_2stim_asymm_v5,2020.2.10,Win32,60,61025ae37ef11b136ea224fe,,,,,,,,,2401,40.80001205,100.7999951,1,0,0,response1disk,,7,0.800011456,4.799993634,1,0,0,rectangle,46.40001214,115.9999953,1,0,0,0.800011456,-1.600006461,1,0,0,0,38,38,0,1,,response1disk_3,TRUE,7,7,"[113,39,21,213,56,86,107,75,237,30,223,120,288,309,256,313,103,27,279,266]",1.798,rectangle
,,,,,,,,,,,,,FF,,,,,,,,0.9326,,,,,,,,,,,,,,,,,,,,,,60fefbdab9a63c79e252bb96,61036bcc3a8cf79310e47e47,2021-07-29_22h03.26.789,Simcolourproject_2stim_asymm_v5,2020.2.10,Win32,60,61025ae37ef11b136ea224fe,,,,,,,,,2817,72.80001253,91.99999493,1,0,0,response1disk,,7,17.60006053,3.19999361,1,0,0,rectangle,17.60006053,3.19999361,1,0,0,17.60006053,3.19999361,1,0,0,0,39,39,25,1,,,,,,,,
,,,,,,,,,,,,,FF,,,,,,,,0.8042,,,,,,,,,,,,,,,,,,,,,,60fefbdab9a63c79e252bb96,61036bcc3a8cf79310e47e47,2021-07-29_22h03.26.789,Simcolourproject_2stim_asymm_v5,2020.2.10,Win32,60,61025ae37ef11b136ea224fe,,,,,,,,,3641,61.60001236,76.79999471,1,0,0,response1disk,,7,13.60006047,4.799993634,1,0,0,rectangle,13.60006047,4.799993634,1,0,0,13.60006047,4.799993634,1,0,0,0,40,40,110,1,,,,,,,,
,,,,,,,,,,,,,FF,,,,,,,,0.6375,,,,,,,,,,,,,,,,,,,,,,60fefbdab9a63c79e252bb96,61036bcc3a8cf79310e47e47,2021-07-29_22h03.26.789,Simcolourproject_2stim_asymm_v5,2020.2.10,Win32,60,61025ae37ef11b136ea224fe,,,,,,,,,838,41.60006089,69.5999946,1,0,0,response1disk,,7,0.800011456,-4.800006509,1,0,0,rectangle,0.800011456,-4.800006509,1,0,0,0.800011456,-4.800006509,1,0,0,0,41,41,101,1,,,,,,,,
,,,,,,,,,,,,,FF,,,,,,,,2.2198,,,,,,,,,,,,,,,,,,,,,,60fefbdab9a63c79e252bb96,61036bcc3a8cf79310e47e47,2021-07-29_22h03.26.789,Simcolourproject_2stim_asymm_v5,2020.2.10,Win32,60,61025ae37ef11b136ea224fe,,,,,,,,,2547,39.20001203,-88.80000776,1,0,0,response3disk,,4,20.00001174,-5.600006521,1,0,0,rectangle,20.00001174,-5.600006521,1,0,0,20.00001174,-5.600006521,1,0,0,0,42,42,29,1,,,,,,,,
,,,,,,,,,,,,,FF,,,,,,,,1.9481,,,,,,,,,,,,,,,,,,,,,,60fefbdab9a63c79e252bb96,61036bcc3a8cf79310e47e47,2021-07-29_22h03.26.789,Simcolourproject_2stim_asymm_v5,2020.2.10,Win32,60,61025ae37ef11b136ea224fe,,,,,,,,,1375,56.80001229,86.39999485,1,0,0,response1disk,,7,16.00001168,2.399993598,1,0,0,rectangle,16.00001168,2.399993598,1,0,0,16.00001168,2.399993598,1,0,0,0,43,43,11,1,,,,,,,,
,,,,,,,,,,,,,FF,,,,,,,,0.966,,,,,,,,,,,,,,,,,,,,,,60fefbdab9a63c79e252bb96,61036bcc3a8cf79310e47e47,2021-07-29_22h03.26.789,Simcolourproject_2stim_asymm_v5,2020.2.10,Win32,60,61025ae37ef11b136ea224fe,,,,,,,,,4289,56.00001228,87.19997045,1,0,0,response1disk,,7,5.600060356,-4.800006509,1,0,0,rectangle,5.600060356,-4.800006509,1,0,0,5.600060356,-4.800006509,1,0,0,0,44,44,113,1,,,,,,,,
,,,,,,,,,,,,,FF,,,,,,,,0.7213,,,,,,,,,,,,,,,,,,,,,,60fefbdab9a63c79e252bb96,61036bcc3a8cf79310e47e47,2021-07-29_22h03.26.789,Simcolourproject_2stim_asymm_v5,2020.2.10,Win32,60,61025ae37ef11b136ea224fe,,,,,,,,,3885,40.00001204,101.5999951,1,0,0,response1disk,,7,1.600060296,-1.600006461,1,0,0,rectangle,1.600060296,-1.600006461,1,0,0,1.600060296,-1.600006461,1,0,0,0,45,45,138,1,,,,,,,,
,,,,,,,,,,,,,FF,,,,,,,,0.6495,,,,,,,,,,,,,,,,,,,,,,60fefbdab9a63c79e252bb96,61036bcc3a8cf79310e47e47,2021-07-29_22h03.26.789,Simcolourproject_2stim_asymm_v5,2020.2.10,Win32,60,61025ae37ef11b136ea224fe,,,,,,,,,3208,60.00001234,92.79999495,1,0,0,response1disk,,7,12.80001163,6.399993658,1,0,0,rectangle,12.80001163,6.399993658,1,0,0,12.80001163,6.399993658,1,0,0,0,46,46,4,1,,,,,,,,
,,,,,,,,,,,,,FF,,,,,,,,0.6338,,,,,,,,,,,,,,,,,,,,,,60fefbdab9a63c79e252bb96,61036bcc3a8cf79310e47e47,2021-07-29_22h03.26.789,Simcolourproject_2stim_asymm_v5,2020.2.10,Win32,60,61025ae37ef11b136ea224fe,,,,,,,,,4298,46.40001214,91.19997051,1,0,0,response1disk,,7,-0.799988568,-10.40000659,1,0,0,rectangle,-0.799988568,-10.40000659,1,0,0,-0.799988568,-10.40000659,1,0,0,0,47,47,121,1,,,,,,,,
,,,,,,,,,,,,,FF,,,,,,,,0.6497,,,,,,,,,,,,,,,,,,,,,,60fefbdab9a63c79e252bb96,61036bcc3a8cf79310e47e47,2021-07-29_22h03.26.789,Simcolourproject_2stim_asymm_v5,2020.2.10,Win32,60,61025ae37ef11b136ea224fe,,,,,,,,,3185,35.20001197,83.99999481,1,0,0,response1disk,,7,10.4000116,12.79999375,1,0,0,rectangle,10.4000116,12.79999375,1,0,0,10.4000116,12.79999375,1,0,0,0,48,48,67,1,,,,,,,,
,,,,,,,,,,,,,FF,,,,,,,,0.9783,,,,,,,,,,,,,,,,,,,,,,60fefbdab9a63c79e252bb96,61036bcc3a8cf79310e47e47,2021-07-29_22h03.26.789,Simcolourproject_2stim_asymm_v5,2020.2.10,Win32,60,61025ae37ef11b136ea224fe,,,,,,,,,2470,49.60006101,101.5999951,1,0,0,response1disk,,7,4.800011516,3.999993622,1,0,0,rectangle,4.800011516,3.999993622,1,0,0,4.800011516,3.999993622,1,0,0,0,49,49,120,1,,,,,,,,
,,,,,,,,,,,,,FF,,,,,,,,0.6879,,,,,,,,,,,,,,,,,,,,,,60fefbdab9a63c79e252bb96,61036bcc3a8cf79310e47e47,2021-07-29_22h03.26.789,Simcolourproject_2stim_asymm_v5,2020.2.10,Win32,60,61025ae37ef11b136ea224fe,,,,,,,,,2463,43.20001209,76.79999471,1,0,0,response1disk,,7,10.4000116,-6.400006533,1,0,0,rectangle,10.4000116,-6.400006533,1,0,0,10.4000116,-6.400006533,1,0,0,0,50,50,32,1,,,,,,,,
,,,,,,,,,,,,,FF,,,,,,,,0.7333,,,,,,,,,,,,,,,,,,,,,,60fefbdab9a63c79e252bb96,61036bcc3a8cf79310e47e47,2021-07-29_22h03.26.789,Simcolourproject_2stim_asymm_v5,2020.2.10,Win32,60,61025ae37ef11b136ea224fe,,,,,,,,,3212,36.00001198,69.5999946,1,0,0,response1disk,,7,18.40001172,11.19999373,1,0,0,rectangle,18.40001172,11.19999373,1,0,0,18.40001172,11.19999373,1,0,0,0,51,51,13,1,,,,,,,,
,,,,,,,,,,,,,FF,,,,,,,,0.5663,,,,,,,,,,,,,,,,,,,,,,60fefbdab9a63c79e252bb96,61036bcc3a8cf79310e47e47,2021-07-29_22h03.26.789,Simcolourproject_2stim_asymm_v5,2020.2.10,Win32,60,61025ae37ef11b136ea224fe,,,,,,,,,3333,51.20001221,77.59999472,1,0,0,response1disk,,7,5.600060356,-9.60000658,1,0,0,rectangle,5.600060356,-9.60000658,1,0,0,5.600060356,-9.60000658,1,0,0,0,52,52,44,1,,,,,,,,
,,,,,,,,,,,,,FF,,,,,,,,0.6547,,,,,,,,,,,,,,,,,,,,,,60fefbdab9a63c79e252bb96,61036bcc3a8cf79310e47e47,2021-07-29_22h03.26.789,Simcolourproject_2stim_asymm_v5,2020.2.10,Win32,60,61025ae37ef11b136ea224fe,,,,,,,,,3833,40.00001204,75.19997027,1,0,0,response1disk,,7,6.400011539,3.999993622,1,0,0,rectangle,6.400011539,3.999993622,1,0,0,6.400011539,3.999993622,1,0,0,0,53,53,87,1,,,,,,,,
,,,,,,,,,,,,,FF,,,,,,,,0.5995,,,,,,,,,,,,,,,,,,,,,,60fefbdab9a63c79e252bb96,61036bcc3a8cf79310e47e47,2021-07-29_22h03.26.789,Simcolourproject_2stim_asymm_v5,2020.2.10,Win32,60,61025ae37ef11b136ea224fe,,,,,,,,,767,45.60006095,83.99999481,1,0,0,response1disk,,7,1.600060296,-13.60000664,1,0,0,rectangle,1.600060296,-13.60000664,1,0,0,1.600060296,-13.60000664,1,0,0,0,54,54,73,1,,,,,,,,
,,,,,,,,,,,,,FF,,,,,,,,0.6375,,,,,,,,,,,,,,,,,,,,,,60fefbdab9a63c79e252bb96,61036bcc3a8cf79310e47e47,2021-07-29_22h03.26.789,Simcolourproject_2stim_asymm_v5,2020.2.10,Win32,60,61025ae37ef11b136ea224fe,,,,,,,,,4034,40.00001204,74.39999467,1,0,0,response1disk,,7,8.000011563,-8.800006568,1,0,0,rectangle,-46.39994042,85.59999484,1,0,0,12.00001162,3.999993622,1,0,0,0,55,55,39,1,,response7disk_3,TRUE,0,0,"[113,39,21,213,56,86,107,75,237,30,223,120,288,309,256,313,103,27,279,266]",2.6308,rectangle
,,,,,,,,,,,,,FF,,,,,,,,2.1812,,,,,,,,,,,,,,,,,,,,,,60fefbdab9a63c79e252bb96,61036bcc3a8cf79310e47e47,2021-07-29_22h03.26.789,Simcolourproject_2stim_asymm_v5,2020.2.10,Win32,60,61025ae37ef11b136ea224fe,,,,,,,,,2715,-92.79998994,-47.20000714,1,0,0,response5disk,,2,13.60006047,5.599993646,1,0,0,rectangle,13.60006047,5.599993646,1,0,0,13.60006047,5.599993646,1,0,0,0,56,56,128,1,,,,,,,,
,,,,,,,,,,,,,FF,,,,,,,,0.6503,,,,,,,,,,,,,,,,,,,,,,60fefbdab9a63c79e252bb96,61036bcc3a8cf79310e47e47,2021-07-29_22h03.26.789,Simcolourproject_2stim_asymm_v5,2020.2.10,Win32,60,61025ae37ef11b136ea224fe,,,,,,,,,1559,67.20001245,109.5999952,1,0,0,response1disk,,7,11.20001161,-13.60000664,1,0,0,rectangle,11.20001161,-13.60000664,1,0,0,11.20001161,-13.60000664,1,0,0,0,57,57,62,1,,,,,,,,
,,,,,,,,,,,,,FF,,,,,,,,1.4644,,,,,,,,,,,,,,,,,,,,,,60fefbdab9a63c79e252bb96,61036bcc3a8cf79310e47e47,2021-07-29_22h03.26.789,Simcolourproject_2stim_asymm_v5,2020.2.10,Win32,60,61025ae37ef11b136ea224fe,,,,,,,,,2302,28.80001187,66.39999455,1,0,0,response1disk,,7,16.80001169,2.399993598,1,0,0,rectangle,16.80001169,2.399993598,1,0,0,16.80001169,2.399993598,1,0,0,0,58,58,143,1,,,,,,,,
,,,,,,,,,,,,,FF,,,,,,,,1.6986,,,,,,,,,,,,,,,,,,,,,,60fefbdab9a63c79e252bb96,61036bcc3a8cf79310e47e47,2021-07-29_22h03.26.789,Simcolourproject_2stim_asymm_v5,2020.2.10,Win32,60,61025ae37ef11b136ea224fe,,,,,,,,,3557,47.20001215,73.59999466,1,0,0,response1disk,,7,-2.399939764,-10.40000659,1,0,0,rectangle,-2.399939764,-10.40000659,1,0,0,-2.399939764,-10.40000659,1,0,0,0,59,59,102,1,,,,,,,,
,,,,,,,,,,,,,FF,,,,,,,,0.604,,,,,,,,,,,,,,,,,,,,,,60fefbdab9a63c79e252bb96,61036bcc3a8cf79310e47e47,2021-07-29_22h03.26.789,Simcolourproject_2stim_asymm_v5,2020.2.10,Win32,60,61025ae37ef11b136ea224fe,,,,,,,,,395,48.00001216,77.59999472,1,0,0,response1disk,,7,15.20001167,2.399993598,1,0,0,rectangle,15.20001167,2.399993598,1,0,0,15.20001167,2.399993598,1,0,0,0,60,60,159,1,,,,,,,,
,,,,,,,,,,,,,FF,,,,,,,,2.9521,,,,,,,,,,,,,,,,,,,,,,60fefbdab9a63c79e252bb96,61036bcc3a8cf79310e47e47,2021-07-29_22h03.26.789,Simcolourproject_2stim_asymm_v5,2020.2.10,Win32,60,61025ae37ef11b136ea224fe,,,,,,,,,980,59.20001233,94.39999497,1,0,0,response1disk,,7,-1.59998858,-5.600006521,1,0,0,rectangle,-1.59998858,-5.600006521,1,0,0,-1.59998858,-5.600006521,1,0,0,0,61,61,1,1,,,,,,,,
,,,,,,,,,,,,,FF,,,,,,,,0.566,,,,,,,,,,,,,,,,,,,,,,60fefbdab9a63c79e252bb96,61036bcc3a8cf79310e47e47,2021-07-29_22h03.26.789,Simcolourproject_2stim_asymm_v5,2020.2.10,Win32,60,61025ae37ef11b136ea224fe,,,,,,,,,2774,40.00001204,79.99999475,1,0,0,response1disk,,7,8.800011575,-1.600006461,1,0,0,rectangle,8.800011575,-1.600006461,1,0,0,8.800011575,-1.600006461,1,0,0,0,62,62,118,1,,,,,,,,
,,,,,,,,,,,,,FF,,,,,,,,0.616,,,,,,,,,,,,,,,,,,,,,,60fefbdab9a63c79e252bb96,61036bcc3a8cf79310e47e47,2021-07-29_22h03.26.789,Simcolourproject_2stim_asymm_v5,2020.2.10,Win32,60,61025ae37ef11b136ea224fe,,,,,,,,,199,52.00001222,84.79999483,1,0,0,response1disk,,7,8.000011563,-11.2000066,1,0,0,rectangle,8.000011563,-11.2000066,1,0,0,8.000011563,-11.2000066,1,0,0,0,63,63,141,1,,,,,,,,
,,,,,,,,,,,,,FF,,,,,,,,0.4553,,,,,,,,,,,,,,,,,,,,,,60fefbdab9a63c79e252bb96,61036bcc3a8cf79310e47e47,2021-07-29_22h03.26.789,Simcolourproject_2stim_asymm_v5,2020.2.10,Win32,60,61025ae37ef11b136ea224fe,,,,,,,,,1715,56.80001229,63.99999452,1,0,0,response1disk,,7,32.80001193,7.19999367,1,0,0,rectangle,32.80001193,7.19999367,1,0,0,32.80001193,7.19999367,1,0,0,0,64,64,78,1,,,,,,,,
,,,,,,,,,,,,,FF,,,,,,,,0.6165,,,,,,,,,,,,,,,,,,,,,,60fefbdab9a63c79e252bb96,61036bcc3a8cf79310e47e47,2021-07-29_22h03.26.789,Simcolourproject_2stim_asymm_v5,2020.2.10,Win32,60,61025ae37ef11b136ea224fe,,,,,,,,,2939,44.0000121,99.99999505,1,0,0,response1disk,,7,13.60006047,9.599993706,1,0,0,rectangle,13.60006047,9.599993706,1,0,0,13.60006047,9.599993706,1,0,0,0,65,65,37,1,,,,,,,,
,,,,,,,,,,,,,FF,,,,,,,,0.5619,,,,,,,,,,,,,,,,,,,,,,60fefbdab9a63c79e252bb96,61036bcc3a8cf79310e47e47,2021-07-29_22h03.26.789,Simcolourproject_2stim_asymm_v5,2020.2.10,Win32,60,61025ae37ef11b136ea224fe,,,,,,,,,1357,42.40001208,82.39999479,1,0,0,response1disk,,7,18.40001172,7.19999367,1,0,0,rectangle,18.40001172,7.19999367,1,0,0,18.40001172,7.19999367,1,0,0,0,66,66,140,1,,,,,,,,
,,,,,,,,,,,,,FF,,,,,,,,0.5298,,,,,,,,,,,,,,,,,,,,,,60fefbdab9a63c79e252bb96,61036bcc3a8cf79310e47e47,2021-07-29_22h03.26.789,Simcolourproject_2stim_asymm_v5,2020.2.10,Win32,60,61025ae37ef11b136ea224fe,,,,,,,,,181,50.4000122,77.59999472,1,0,0,response1disk,,7,8.000011563,-3.200006485,1,0,0,rectangle,8.000011563,-3.200006485,1,0,0,8.000011563,-3.200006485,1,0,0,0,67,67,100,1,,,,,,,,
,,,,,,,,,,,,,FF,,,,,,,,1.4644,,,,,,,,,,,,,,,,,,,,,,60fefbdab9a63c79e252bb96,61036bcc3a8cf79310e47e47,2021-07-29_22h03.26.789,Simcolourproject_2stim_asymm_v5,2020.2.10,Win32,60,61025ae37ef11b136ea224fe,,,,,,,,,4021,-44.79998922,101.5999951,1,0,0,response7disk,,0,8.800011575,8.799993694,1,0,0,rectangle,8.800011575,8.799993694,1,0,0,8.800011575,8.799993694,1,0,0,0,68,68,107,1,,,,,,,,
,,,,,,,,,,,,,FF,,,,,,,,0.7995,,,,,,,,,,,,,,,,,,,,,,60fefbdab9a63c79e252bb96,61036bcc3a8cf79310e47e47,2021-07-29_22h03.26.789,Simcolourproject_2stim_asymm_v5,2020.2.10,Win32,60,61025ae37ef11b136ea224fe,,,,,,,,,740,36.80001199,91.99999493,1,0,0,response1disk,,7,-0.799988568,-6.400006533,1,0,0,rectangle,-0.799988568,-6.400006533,1,0,0,-0.799988568,-6.400006533,1,0,0,0,69,69,80,1,,,,,,,,
,,,,,,,,,,,,,FF,,,,,,,,0.5718,,,,,,,,,,,,,,,,,,,,,,60fefbdab9a63c79e252bb96,61036bcc3a8cf79310e47e47,2021-07-29_22h03.26.789,Simcolourproject_2stim_asymm_v5,2020.2.10,Win32,60,61025ae37ef11b136ea224fe,,,,,,,,,1656,41.60006089,64.79999453,1,0,0,response1disk,,7,13.60006047,5.599993646,1,0,0,rectangle,13.60006047,5.599993646,1,0,0,13.60006047,5.599993646,1,0,0,0,70,70,3,1,,,,,,,,
,,,,,,,,,,,,,FF,,,,,,,,0.7158,,,,,,,,,,,,,,,,,,,,,,60fefbdab9a63c79e252bb96,61036bcc3a8cf79310e47e47,2021-07-29_22h03.26.789,Simcolourproject_2stim_asymm_v5,2020.2.10,Win32,60,61025ae37ef11b136ea224fe,,,,,,,,,4318,39.20001203,87.99999487,1,0,0,response1disk,,7,6.400011539,-0.800006449,1,0,0,rectangle,6.400011539,-0.800006449,1,0,0,6.400011539,-0.800006449,1,0,0,0,71,71,54,1,,,,,,,,
,,,,,,,,,,,,,FF,,,,,,,,0.5333,,,,,,,,,,,,,,,,,,,,,,60fefbdab9a63c79e252bb96,61036bcc3a8cf79310e47e47,2021-07-29_22h03.26.789,Simcolourproject_2stim_asymm_v5,2020.2.10,Win32,60,61025ae37ef11b136ea224fe,,,,,,,,,3638,40.00001204,71.99999464,1,0,0,response1disk,,7,18.40001172,-4.000006497,1,0,0,rectangle,18.40001172,-4.000006497,1,0,0,18.40001172,-4.000006497,1,0,0,0,72,72,26,1,,,,,,,,
,,,,,,,,,,,,,FF,,,,,,,,0.5824,,,,,,,,,,,,,,,,,,,,,,60fefbdab9a63c79e252bb96,61036bcc3a8cf79310e47e47,2021-07-29_22h03.26.789,Simcolourproject_2stim_asymm_v5,2020.2.10,Win32,60,61025ae37ef11b136ea224fe,,,,,,,,,928,52.80001223,87.19997045,1,0,0,response1disk,,7,16.00001168,-10.40000659,1,0,0,rectangle,16.00001168,-10.40000659,1,0,0,16.00001168,-10.40000659,1,0,0,0,73,73,15,1,,,,,,,,
,,,,,,,,,,,,,FF,,,,,,,,0.4456,,,,,,,,,,,,,,,,,,,,,,60fefbdab9a63c79e252bb96,61036bcc3a8cf79310e47e47,2021-07-29_22h03.26.789,Simcolourproject_2stim_asymm_v5,2020.2.10,Win32,60,61025ae37ef11b136ea224fe,,,,,,,,,2259,44.0000121,85.59999484,1,0,0,response1disk,,7,28.00001186,2.399993598,1,0,0,rectangle,99.20001292,63.19997009,1,0,0,12.80001163,-2.400006473,1,0,0,0,74,74,77,1,,response1disk_3,TRUE,6,6,"[113,39,21,213,56,86,107,75,237,30,223,120,288,309,256,313,103,27,279,266]",2.3476,rectangle
,,,,,,,,,,,,,FF,,,,,,,,1.2825,,,,,,,,,,,,,,,,,,,,,,60fefbdab9a63c79e252bb96,61036bcc3a8cf79310e47e47,2021-07-29_22h03.26.789,Simcolourproject_2stim_asymm_v5,2020.2.10,Win32,60,61025ae37ef11b136ea224fe,,,,,,,,,3741,-30.39994018,101.5999951,1,0,0,response7disk,,0,-20.79998887,7.19999367,1,0,0,rectangle,-20.79998887,7.19999367,1,0,0,-20.79998887,7.19999367,1,0,0,0,75,75,28,1,,,,,,,,
,,,,,,,,,,,,,FF,,,,,,,,2.864,,,,,,,,,,,,,,,,,,,,,,60fefbdab9a63c79e252bb96,61036bcc3a8cf79310e47e47,2021-07-29_22h03.26.789,Simcolourproject_2stim_asymm_v5,2020.2.10,Win32,60,61025ae37ef11b136ea224fe,,,,,,,,,1487,48.00001216,91.19997051,1,0,0,response1disk,,7,2.40001148,7.999993682,1,0,0,rectangle,2.40001148,7.999993682,1,0,0,2.40001148,7.999993682,1,0,0,0,76,76,6,1,,,,,,,,
,,,,,,,,,,,,,FF,,,,,,,,0.566,,,,,,,,,,,,,,,,,,,,,,60fefbdab9a63c79e252bb96,61036bcc3a8cf79310e47e47,2021-07-29_22h03.26.789,Simcolourproject_2stim_asymm_v5,2020.2.10,Win32,60,61025ae37ef11b136ea224fe,,,,,,,,,326,62.40001237,89.5999949,1,0,0,response1disk,,7,11.20001161,-12.00000662,1,0,0,rectangle,11.20001161,-12.00000662,1,0,0,11.20001161,-12.00000662,1,0,0,0,77,77,90,1,,,,,,,,
,,,,,,,,,,,,,FF,,,,,,,,0.7466,,,,,,,,,,,,,,,,,,,,,,60fefbdab9a63c79e252bb96,61036bcc3a8cf79310e47e47,2021-07-29_22h03.26.789,Simcolourproject_2stim_asymm_v5,2020.2.10,Win32,60,61025ae37ef11b136ea224fe,,,,,,,,,1841,32.00001192,80.79999477,1,0,0,response1disk,,7,4.000011504,12.79999375,1,0,0,rectangle,4.000011504,12.79999375,1,0,0,4.000011504,12.79999375,1,0,0,0,78,78,22,1,,,,,,,,
,,,,,,,,,,,,,FF,,,,,,,,0.5318,,,,,,,,,,,,,,,,,,,,,,60fefbdab9a63c79e252bb96,61036bcc3a8cf79310e47e47,2021-07-29_22h03.26.789,Simcolourproject_2stim_asymm_v5,2020.2.10,Win32,60,61025ae37ef11b136ea224fe,,,,,,,,,2352,48.80001217,79.19997033,1,0,0,response1disk,,7,20.00001174,5.599993646,1,0,0,rectangle,20.00001174,5.599993646,1,0,0,20.00001174,5.599993646,1,0,0,0,79,79,53,1,,,,,,,,
,,,,,,,,,,,,,FF,,,,,,,,1.7107,,,,,,,,,,,,,,,,,,,,,,60fefbdab9a63c79e252bb96,61036bcc3a8cf79310e47e47,2021-07-29_22h03.26.789,Simcolourproject_2stim_asymm_v5,2020.2.10,Win32,60,61025ae37ef11b136ea224fe,,,,,,,,,3817,55.20001227,82.39999479,1,0,0,response1disk,,7,16.80001169,-8.800006568,1,0,0,rectangle,16.80001169,-8.800006568,1,0,0,16.80001169,-8.800006568,1,0,0,0,80,80,144,1,,,,,,,,
,,,,,,,,,,,,,FF,,,,,,,,1.9483,,,,,,,,,,,,,,,,,,,,,,60fefbdab9a63c79e252bb96,61036bcc3a8cf79310e47e47,2021-07-29_22h03.26.789,Simcolourproject_2stim_asymm_v5,2020.2.10,Win32,60,61025ae37ef11b136ea224fe,,,,,,,,,3100,54.40001225,-91.2000078,1,0,0,response3disk,,4,17.60006053,-11.2000066,1,0,0,rectangle,17.60006053,-11.2000066,1,0,0,17.60006053,-11.2000066,1,0,0,0,81,81,88,1,,,,,,,,
,,,,,,,,,,,,,FF,,,,,,,,1.5159,,,,,,,,,,,,,,,,,,,,,,60fefbdab9a63c79e252bb96,61036bcc3a8cf79310e47e47,2021-07-29_22h03.26.789,Simcolourproject_2stim_asymm_v5,2020.2.10,Win32,60,61025ae37ef11b136ea224fe,,,,,,,,,1817,-105.5999901,-69.60000747,1,0,0,response5disk,,2,-2.399939764,2.399993598,1,0,0,rectangle,-2.399939764,2.399993598,1,0,0,-2.399939764,2.399993598,1,0,0,0,82,82,157,1,,,,,,,,
,,,,,,,,,,,,,FF,,,,,,,,1.9978,,,,,,,,,,,,,,,,,,,,,,60fefbdab9a63c79e252bb96,61036bcc3a8cf79310e47e47,2021-07-29_22h03.26.789,Simcolourproject_2stim_asymm_v5,2020.2.10,Win32,60,61025ae37ef11b136ea224fe,,,,,,,,,3205,100.0000129,39.99999416,1,0,0,response1disk,,6,9.600060415,-7.200006545,1,0,0,rectangle,9.600060415,-7.200006545,1,0,0,9.600060415,-7.200006545,1,0,0,0,83,83,17,1,,,,,,,,
,,,,,,,,,,,,,FF,,,,,,,,0.9991,,,,,,,,,,,,,,,,,,,,,,60fefbdab9a63c79e252bb96,61036bcc3a8cf79310e47e47,2021-07-29_22h03.26.789,Simcolourproject_2stim_asymm_v5,2020.2.10,Win32,60,61025ae37ef11b136ea224fe,,,,,,,,,801,-49.5999893,92.79999495,1,0,0,response7disk,,0,-13.59998876,3.999993622,1,0,0,rectangle,-13.59998876,3.999993622,1,0,0,-13.59998876,3.999993622,1,0,0,0,84,84,48,1,,,,,,,,
,,,,,,,,,,,,,FF,,,,,,,,1.6538,,,,,,,,,,,,,,,,,,,,,,60fefbdab9a63c79e252bb96,61036bcc3a8cf79310e47e47,2021-07-29_22h03.26.789,Simcolourproject_2stim_asymm_v5,2020.2.10,Win32,60,61025ae37ef11b136ea224fe,,,,,,,,,3797,42.40001208,106.3999951,1,0,0,response1disk,,7,2.40001148,3.19999361,1,0,0,rectangle,46.40001214,94.39999497,1,0,0,7.200011551,3.19999361,1,0,0,0,85,85,66,1,,response1disk_3,TRUE,7,4,"[113,39,21,213,56,86,107,75,237,30,223,120,288,309,256,313,103,27,279,266]",1.9861,rectangle
,,,,,,,,,,,,,FF,,,,,,,,0.5998,,,,,,,,,,,,,,,,,,,,,,60fefbdab9a63c79e252bb96,61036bcc3a8cf79310e47e47,2021-07-29_22h03.26.789,Simcolourproject_2stim_asymm_v5,2020.2.10,Win32,60,61025ae37ef11b136ea224fe,,,,,,,,,1246,44.80001211,94.39999497,1,0,0,response1disk,,7,1.600060296,-1.600006461,1,0,0,rectangle,1.600060296,-1.600006461,1,0,0,1.600060296,-1.600006461,1,0,0,0,86,86,148,1,,,,,,,,
,,,,,,,,,,,,,FF,,,,,,,,2.4022,,,,,,,,,,,,,,,,,,,,,,60fefbdab9a63c79e252bb96,61036bcc3a8cf79310e47e47,2021-07-29_22h03.26.789,Simcolourproject_2stim_asymm_v5,2020.2.10,Win32,60,61025ae37ef11b136ea224fe,,,,,,,,,1672,40.00001204,63.19997009,1,0,0,response1disk,,7,2.40001148,-9.60000658,1,0,0,rectangle,2.40001148,-9.60000658,1,0,0,2.40001148,-9.60000658,1,0,0,0,87,87,30,1,,,,,,,,
,,,,,,,,,,,,,FF,,,,,,,,1.3198,,,,,,,,,,,,,,,,,,,,,,60fefbdab9a63c79e252bb96,61036bcc3a8cf79310e47e47,2021-07-29_22h03.26.789,Simcolourproject_2stim_asymm_v5,2020.2.10,Win32,60,61025ae37ef11b136ea224fe,,,,,,,,,1757,56.80001229,83.99999481,1,0,0,response1disk,,7,8.800011575,-0.800006449,1,0,0,rectangle,8.800011575,-0.800006449,1,0,0,8.800011575,-0.800006449,1,0,0,0,88,88,47,1,,,,,,,,
,,,,,,,,,,,,,FF,,,,,,,,0.6045,,,,,,,,,,,,,,,,,,,,,,60fefbdab9a63c79e252bb96,61036bcc3a8cf79310e47e47,2021-07-29_22h03.26.789,Simcolourproject_2stim_asymm_v5,2020.2.10,Win32,60,61025ae37ef11b136ea224fe,,,,,,,,,1996,27.20001185,55.19996997,1,0,0,response1disk,,7,0.800011456,0.799993575,1,0,0,rectangle,0.800011456,0.799993575,1,0,0,0.800011456,0.799993575,1,0,0,0,89,89,89,1,,,,,,,,
,,,,,,,,,,,,,FF,,,,,,,,0.8036,,,,,,,,,,,,,,,,,,,,,,60fefbdab9a63c79e252bb96,61036bcc3a8cf79310e47e47,2021-07-29_22h03.26.789,Simcolourproject_2stim_asymm_v5,2020.2.10,Win32,60,61025ae37ef11b136ea224fe,,,,,,,,,1743,-36.7999891,97.59999502,1,0,0,response7disk,,0,-0.799988568,7.999993682,1,0,0,rectangle,-0.799988568,7.999993682,1,0,0,-0.799988568,7.999993682,1,0,0,0,90,90,137,1,,,,,,,,
,,,,,,,,,,,,,FF,,,,,,,,2.997,,,,,,,,,,,,,,,,,,,,,,60fefbdab9a63c79e252bb96,61036bcc3a8cf79310e47e47,2021-07-29_22h03.26.789,Simcolourproject_2stim_asymm_v5,2020.2.10,Win32,60,61025ae37ef11b136ea224fe,,,,,,,,,3498,94.40001285,48.79999429,1,0,0,response1disk,,6,-5.599988639,-3.200006485,1,0,0,rectangle,-5.599988639,-3.200006485,1,0,0,-5.599988639,-3.200006485,1,0,0,0,91,91,71,1,,,,,,,,
,,,,,,,,,,,,,FF,,,,,,,,0.8822,,,,,,,,,,,,,,,,,,,,,,60fefbdab9a63c79e252bb96,61036bcc3a8cf79310e47e47,2021-07-29_22h03.26.789,Simcolourproject_2stim_asymm_v5,2020.2.10,Win32,60,61025ae37ef11b136ea224fe,,,,,,,,,1724,32.00001192,84.79999483,1,0,0,response1disk,,7,-6.399939823,1.599993587,1,0,0,rectangle,-6.399939823,1.599993587,1,0,0,-6.399939823,1.599993587,1,0,0,0,92,92,33,1,,,,,,,,
,,,,,,,,,,,,,FF,,,,,,,,0.7157,,,,,,,,,,,,,,,,,,,,,,60fefbdab9a63c79e252bb96,61036bcc3a8cf79310e47e47,2021-07-29_22h03.26.789,Simcolourproject_2stim_asymm_v5,2020.2.10,Win32,60,61025ae37ef11b136ea224fe,,,,,,,,,3273,46.40001214,94.39999497,1,0,0,response1disk,,7,-11.19998872,-10.40000659,1,0,0,rectangle,-11.19998872,-10.40000659,1,0,0,-11.19998872,-10.40000659,1,0,0,0,93,93,36,1,,,,,,,,
,,,,,,,,,,,,,FF,,,,,,,,0.4119,,,,,,,,,,,,,,,,,,,,,,60fefbdab9a63c79e252bb96,61036bcc3a8cf79310e47e47,2021-07-29_22h03.26.789,Simcolourproject_2stim_asymm_v5,2020.2.10,Win32,60,61025ae37ef11b136ea224fe,,,,,,,,,3541,53.60001224,74.39999467,1,0,0,response1disk,,7,12.00001162,3.999993622,1,0,0,rectangle,12.00001162,3.999993622,1,0,0,12.00001162,3.999993622,1,0,0,0,94,94,131,1,,,,,,,,
,,,,,,,,,,,,,FF,,,,,,,,0.4284,,,,,,,,,,,,,,,,,,,,,,60fefbdab9a63c79e252bb96,61036bcc3a8cf79310e47e47,2021-07-29_22h03.26.789,Simcolourproject_2stim_asymm_v5,2020.2.10,Win32,60,61025ae37ef11b136ea224fe,,,,,,,,,502,46.40001214,79.99999475,1,0,0,response1disk,,7,-4.799988627,-11.2000066,1,0,0,rectangle,-4.799988627,-11.2000066,1,0,0,-4.799988627,-11.2000066,1,0,0,0,95,95,58,1,,,,,,,,
,,,,,,,,,,,,,FF,,,,,,,,0.572,,,,,,,,,,,,,,,,,,,,,,60fefbdab9a63c79e252bb96,61036bcc3a8cf79310e47e47,2021-07-29_22h03.26.789,Simcolourproject_2stim_asymm_v5,2020.2.10,Win32,60,61025ae37ef11b136ea224fe,,,,,,,,,651,42.40001208,73.59999466,1,0,0,response1disk,,7,-6.399939823,-6.400006533,1,0,0,rectangle,-6.399939823,-6.400006533,1,0,0,-6.399939823,-6.400006533,1,0,0,0,96,96,103,1,,,,,,,,
,,,,,,,,,,,,,FF,,,,,,,,1.5779,,,,,,,,,,,,,,,,,,,,,,60fefbdab9a63c79e252bb96,61036bcc3a8cf79310e47e47,2021-07-29_22h03.26.789,Simcolourproject_2stim_asymm_v5,2020.2.10,Win32,60,61025ae37ef11b136ea224fe,,,,,,,,,1407,54.40001225,95.19997057,1,0,0,response1disk,,7,8.800011575,0.799993575,1,0,0,rectangle,8.800011575,0.799993575,1,0,0,8.800011575,0.799993575,1,0,0,0,97,97,51,1,,,,,,,,
,,,,,,,,,,,,,FF,,,,,,,,0.6494,,,,,,,,,,,,,,,,,,,,,,60fefbdab9a63c79e252bb96,61036bcc3a8cf79310e47e47,2021-07-29_22h03.26.789,Simcolourproject_2stim_asymm_v5,2020.2.10,Win32,60,61025ae37ef11b136ea224fe,,,,,,,,,1025,58.40001231,102.3999951,1,0,0,response1disk,,7,21.60006059,-5.600006521,1,0,0,rectangle,21.60006059,-5.600006521,1,0,0,21.60006059,-5.600006521,1,0,0,0,98,98,46,1,,,,,,,,
,,,,,,,,,,,,,FF,,,,,,,,1.6372,,,,,,,,,,,,,,,,,,,,,,60fefbdab9a63c79e252bb96,61036bcc3a8cf79310e47e47,2021-07-29_22h03.26.789,Simcolourproject_2stim_asymm_v5,2020.2.10,Win32,60,61025ae37ef11b136ea224fe,,,,,,,,,4223,85.60001272,-58.40000731,1,0,0,response3disk,,5,24.80001181,5.599993646,1,0,0,rectangle,24.80001181,5.599993646,1,0,0,24.80001181,5.599993646,1,0,0,0,99,99,122,1,,,,,,,,
,,,,,,,,,,,,,FF,,,,,,,,1.3037,,,,,,,,,,,,,,,,,,,,,,60fefbdab9a63c79e252bb96,61036bcc3a8cf79310e47e47,2021-07-29_22h03.26.789,Simcolourproject_2stim_asymm_v5,2020.2.10,Win32,60,61025ae37ef11b136ea224fe,,,,,,,,,2771,53.60001224,88.79999489,1,0,0,response1disk,,7,4.000011504,-8.000006557,1,0,0,rectangle,4.000011504,-8.000006557,1,0,0,4.000011504,-8.000006557,1,0,0,0,100,100,16,1,,,,,,,,
,,,,,,,,,,,,,FF,,,,,,,,0.6826,,,,,,,,,,,,,,,,,,,,,,60fefbdab9a63c79e252bb96,61036bcc3a8cf79310e47e47,2021-07-29_22h03.26.789,Simcolourproject_2stim_asymm_v5,2020.2.10,Win32,60,61025ae37ef11b136ea224fe,,,,,,,,,3990,38.40001202,60.79999447,1,0,0,response1disk,,7,1.600060296,-5.600006521,1,0,0,rectangle,1.600060296,-5.600006521,1,0,0,1.600060296,-5.600006521,1,0,0,0,101,101,97,1,,,,,,,,
,,,,,,,,,,,,,FF,,,,,,,,0.6995,,,,,,,,,,,,,,,,,,,,,,60fefbdab9a63c79e252bb96,61036bcc3a8cf79310e47e47,2021-07-29_22h03.26.789,Simcolourproject_2stim_asymm_v5,2020.2.10,Win32,60,61025ae37ef11b136ea224fe,,,,,,,,,3006,39.20001203,75.9999947,1,0,0,response1disk,,7,-4.799988627,1.599993587,1,0,0,rectangle,39.20001203,-93.60005666,1,0,0,12.00001162,-13.60000664,1,0,0,0,102,102,133,1,,response3disk_3,TRUE,4,4,"[113,39,21,213,56,86,107,75,237,30,223,120,288,309,256,313,103,27,279,266]",1.9973,rectangle
,,,,,,,,,,,,,FF,,,,,,,,0.7664,,,,,,,,,,,,,,,,,,,,,,60fefbdab9a63c79e252bb96,61036bcc3a8cf79310e47e47,2021-07-29_22h03.26.789,Simcolourproject_2stim_asymm_v5,2020.2.10,Win32,60,61025ae37ef11b136ea224fe,,,,,,,,,4151,64.0000124,87.19997045,1,0,0,response1disk,,7,6.400011539,-12.00000662,1,0,0,rectangle,6.400011539,-12.00000662,1,0,0,6.400011539,-12.00000662,1,0,0,0,103,103,21,1,,,,,,,,
,,,,,,,,,,,,,FF,,,,,,,,1.4654,,,,,,,,,,,,,,,,,,,,,,60fefbdab9a63c79e252bb96,61036bcc3a8cf79310e47e47,2021-07-29_22h03.26.789,Simcolourproject_2stim_asymm_v5,2020.2.10,Win32,60,61025ae37ef11b136ea224fe,,,,,,,,,3599,99.20001292,-36.00000697,1,0,0,response3disk,,5,4.000011504,-5.600006521,1,0,0,rectangle,4.000011504,-5.600006521,1,0,0,4.000011504,-5.600006521,1,0,0,0,104,104,156,1,,,,,,,,
,,,,,,,,,,,,,FF,,,,,,,,0.6454,,,,,,,,,,,,,,,,,,,,,,60fefbdab9a63c79e252bb96,61036bcc3a8cf79310e47e47,2021-07-29_22h03.26.789,Simcolourproject_2stim_asymm_v5,2020.2.10,Win32,60,61025ae37ef11b136ea224fe,,,,,,,,,201,49.60006101,91.19997051,1,0,0,response1disk,,7,21.60006059,5.599993646,1,0,0,rectangle,21.60006059,5.599993646,1,0,0,21.60006059,5.599993646,1,0,0,0,105,105,49,1,,,,,,,,
,,,,,,,,,,,,,FF,,,,,,,,1.7647,,,,,,,,,,,,,,,,,,,,,,60fefbdab9a63c79e252bb96,61036bcc3a8cf79310e47e47,2021-07-29_22h03.26.789,Simcolourproject_2stim_asymm_v5,2020.2.10,Win32,60,61025ae37ef11b136ea224fe,,,,,,,,,4369,-96.79999,39.19996973,1,0,0,response7disk,,1,-18.39994,3.999993622,1,0,0,rectangle,125.6000133,95.99999499,1,0,0,9.600060415,-13.60000664,1,0,0,0,106,106,96,1,,response1disk_3,TRUE,6,6,"[113,39,21,213,56,86,107,75,237,30,223,120,288,309,256,313,103,27,279,266]",1.5144,rectangle
,,,,,,,,,,,,,FF,,,,,,,,0.8374,,,,,,,,,,,,,,,,,,,,,,60fefbdab9a63c79e252bb96,61036bcc3a8cf79310e47e47,2021-07-29_22h03.26.789,Simcolourproject_2stim_asymm_v5,2020.2.10,Win32,60,61025ae37ef11b136ea224fe,,,,,,,,,1728,47.20001215,71.19997021,1,0,0,response1disk,,7,5.600060356,-13.60000664,1,0,0,rectangle,5.600060356,-13.60000664,1,0,0,5.600060356,-13.60000664,1,0,0,0,107,107,72,1,,,,,,,,
,,,,,,,,,,,,,FF,,,,,,,,0.6826,,,,,,,,,,,,,,,,,,,,,,60fefbdab9a63c79e252bb96,61036bcc3a8cf79310e47e47,2021-07-29_22h03.26.789,Simcolourproject_2stim_asymm_v5,2020.2.10,Win32,60,61025ae37ef11b136ea224fe,,,,,,,,,658,36.00001198,59.19997003,1,0,0,response1disk,,7,-7.199988663,-13.60000664,1,0,0,rectangle,-7.199988663,-13.60000664,1,0,0,-7.199988663,-13.60000664,1,0,0,0,108,108,135,1,,,,,,,,
,,,,,,,,,,,,,FF,,,,,,,,0.878,,,,,,,,,,,,,,,,,,,,,,60fefbdab9a63c79e252bb96,61036bcc3a8cf79310e47e47,2021-07-29_22h03.26.789,Simcolourproject_2stim_asymm_v5,2020.2.10,Win32,60,61025ae37ef11b136ea224fe,,,,,,,,,1868,57.6000123,116.7999953,1,0,0,response1disk,,7,-1.59998858,6.399993658,1,0,0,rectangle,-1.59998858,6.399993658,1,0,0,-1.59998858,6.399993658,1,0,0,0,109,109,145,1,,,,,,,,
,,,,,,,,,,,,,FF,,,,,,,,2.331,,,,,,,,,,,,,,,,,,,,,,60fefbdab9a63c79e252bb96,61036bcc3a8cf79310e47e47,2021-07-29_22h03.26.789,Simcolourproject_2stim_asymm_v5,2020.2.10,Win32,60,61025ae37ef11b136ea224fe,,,,,,,,,4182,23.20001179,83.19997039,1,0,0,response1disk,,7,-7.199988663,-4.000006497,1,0,0,rectangle,-7.199988663,-4.000006497,1,0,0,-7.199988663,-4.000006497,1,0,0,0,110,110,146,1,,,,,,,,
,,,,,,,,,,,,,FF,,,,,,,,1.0986,,,,,,,,,,,,,,,,,,,,,,60fefbdab9a63c79e252bb96,61036bcc3a8cf79310e47e47,2021-07-29_22h03.26.789,Simcolourproject_2stim_asymm_v5,2020.2.10,Win32,60,61025ae37ef11b136ea224fe,,,,,,,,,1742,44.0000121,83.99999481,1,0,0,response1disk,,7,1.600060296,-0.800006449,1,0,0,rectangle,1.600060296,-0.800006449,1,0,0,1.600060296,-0.800006449,1,0,0,0,111,111,86,1,,,,,,,,
,,,,,,,,,,,,,FF,,,,,,,,0.5998,,,,,,,,,,,,,,,,,,,,,,60fefbdab9a63c79e252bb96,61036bcc3a8cf79310e47e47,2021-07-29_22h03.26.789,Simcolourproject_2stim_asymm_v5,2020.2.10,Win32,60,61025ae37ef11b136ea224fe,,,,,,,,,877,49.60006101,85.59999484,1,0,0,response1disk,,7,0.800011456,-6.4373E-06,1,0,0,rectangle,87.20001274,-33.60000694,1,0,0,4.800011516,-4.000006497,1,0,0,0,112,112,75,1,,response3disk_3,TRUE,5,5,"[113,39,21,213,56,86,107,75,237,30,223,120,288,309,256,313,103,27,279,266]",1.3939,rectangle
,,,,,,,,,,,,,FF,,,,,,,,1.6109,,,,,,,,,,,,,,,,,,,,,,60fefbdab9a63c79e252bb96,61036bcc3a8cf79310e47e47,2021-07-29_22h03.26.789,Simcolourproject_2stim_asymm_v5,2020.2.10,Win32,60,61025ae37ef11b136ea224fe,,,,,,,,,4119,92.00001281,-24.80000681,1,0,0,response3disk,,5,25.60006065,3.999993622,1,0,0,rectangle,25.60006065,3.999993622,1,0,0,25.60006065,3.999993622,1,0,0,0,113,113,18,1,,,,,,,,
,,,,,,,,,,,,,FF,,,,,,,,0.6453,,,,,,,,,,,,,,,,,,,,,,60fefbdab9a63c79e252bb96,61036bcc3a8cf79310e47e47,2021-07-29_22h03.26.789,Simcolourproject_2stim_asymm_v5,2020.2.10,Win32,60,61025ae37ef11b136ea224fe,,,,,,,,,3613,46.40001214,68.79999459,1,0,0,response1disk,,7,15.20001167,-0.800006449,1,0,0,rectangle,15.20001167,-0.800006449,1,0,0,15.20001167,-0.800006449,1,0,0,0,114,114,5,1,,,,,,,,
,,,,,,,,,,,,,FF,,,,,,,,0.6117,,,,,,,,,,,,,,,,,,,,,,60fefbdab9a63c79e252bb96,61036bcc3a8cf79310e47e47,2021-07-29_22h03.26.789,Simcolourproject_2stim_asymm_v5,2020.2.10,Win32,60,61025ae37ef11b136ea224fe,,,,,,,,,3830,35.20001197,59.99999446,1,0,0,response1disk,,7,9.600060415,-7.200006545,1,0,0,rectangle,9.600060415,-7.200006545,1,0,0,9.600060415,-7.200006545,1,0,0,0,115,115,104,1,,,,,,,,
,,,,,,,,,,,,,FF,,,,,,,,0.4951,,,,,,,,,,,,,,,,,,,,,,60fefbdab9a63c79e252bb96,61036bcc3a8cf79310e47e47,2021-07-29_22h03.26.789,Simcolourproject_2stim_asymm_v5,2020.2.10,Win32,60,61025ae37ef11b136ea224fe,,,,,,,,,2315,42.40001208,53.59999436,1,0,0,response1disk,,7,8.800011575,-8.000006557,1,0,0,rectangle,8.800011575,-8.000006557,1,0,0,8.800011575,-8.000006557,1,0,0,0,116,116,84,1,,,,,,,,
,,,,,,,,,,,,,FF,,,,,,,,0.4779,,,,,,,,,,,,,,,,,,,,,,60fefbdab9a63c79e252bb96,61036bcc3a8cf79310e47e47,2021-07-29_22h03.26.789,Simcolourproject_2stim_asymm_v5,2020.2.10,Win32,60,61025ae37ef11b136ea224fe,,,,,,,,,2206,32.80001193,57.59999442,1,0,0,response1disk,,7,-8.799988687,-4.000006497,1,0,0,rectangle,-8.799988687,-4.000006497,1,0,0,-8.799988687,-4.000006497,1,0,0,0,117,117,85,1,,,,,,,,
,,,,,,,,,,,,,FF,,,,,,,,0.8828,,,,,,,,,,,,,,,,,,,,,,60fefbdab9a63c79e252bb96,61036bcc3a8cf79310e47e47,2021-07-29_22h03.26.789,Simcolourproject_2stim_asymm_v5,2020.2.10,Win32,60,61025ae37ef11b136ea224fe,,,,,,,,,3095,24.80001181,68.79999459,1,0,0,response1disk,,7,-8.799988687,15.9999938,1,0,0,rectangle,-8.799988687,15.9999938,1,0,0,-8.799988687,15.9999938,1,0,0,0,118,118,64,1,,,,,,,,
,,,,,,,,,,,,,FF,,,,,,,,2.0936,,,,,,,,,,,,,,,,,,,,,,60fefbdab9a63c79e252bb96,61036bcc3a8cf79310e47e47,2021-07-29_22h03.26.789,Simcolourproject_2stim_asymm_v5,2020.2.10,Win32,60,61025ae37ef11b136ea224fe,,,,,,,,,2947,-39.19998914,-88.00000775,1,0,0,response5disk,,3,5.600060356,12.79999375,1,0,0,rectangle,129.6000134,45.59999424,1,0,0,-15.19998878,-8.800006568,1,0,0,0,119,119,42,1,,response1disk_3,TRUE,6,6,"[113,39,21,213,56,86,107,75,237,30,223,120,288,309,256,313,103,27,279,266]",2.5466,rectangle
,,,,,,,,,,,,,FF,,,,,,,,0.8997,,,,,,,,,,,,,,,,,,,,,,60fefbdab9a63c79e252bb96,61036bcc3a8cf79310e47e47,2021-07-29_22h03.26.789,Simcolourproject_2stim_asymm_v5,2020.2.10,Win32,60,61025ae37ef11b136ea224fe,,,,,,,,,1227,33.60006077,85.59999484,1,0,0,response1disk,,7,-11.19998872,6.399993658,1,0,0,rectangle,-11.19998872,6.399993658,1,0,0,-11.19998872,6.399993658,1,0,0,0,120,120,155,1,,,,,,,,
,,,,,,,,,,,,,FF,,,,,,,,0.5164,,,,,,,,,,,,,,,,,,,,,,60fefbdab9a63c79e252bb96,61036bcc3a8cf79310e47e47,2021-07-29_22h03.26.789,Simcolourproject_2stim_asymm_v5,2020.2.10,Win32,60,61025ae37ef11b136ea224fe,,,,,,,,,483,47.20001215,75.19997027,1,0,0,response1disk,,7,15.20001167,3.999993622,1,0,0,rectangle,15.20001167,3.999993622,1,0,0,15.20001167,3.999993622,1,0,0,0,121,121,136,1,,,,,,,,
,,,,,,,,,,,,,FF,,,,,,,,0.6822,,,,,,,,,,,,,,,,,,,,,,60fefbdab9a63c79e252bb96,61036bcc3a8cf79310e47e47,2021-07-29_22h03.26.789,Simcolourproject_2stim_asymm_v5,2020.2.10,Win32,60,61025ae37ef11b136ea224fe,,,,,,,,,1189,55.20001227,72.79999465,1,0,0,response1disk,,7,12.00001162,-5.600006521,1,0,0,rectangle,12.00001162,-5.600006521,1,0,0,12.00001162,-5.600006521,1,0,0,0,122,122,74,1,,,,,,,,
,,,,,,,,,,,,,FF,,,,,,,,3.1431,,,,,,,,,,,,,,,,,,,,,,60fefbdab9a63c79e252bb96,61036bcc3a8cf79310e47e47,2021-07-29_22h03.26.789,Simcolourproject_2stim_asymm_v5,2020.2.10,Win32,60,61025ae37ef11b136ea224fe,,,,,,,,,1597,55.20001227,83.19997039,1,0,0,response1disk,,7,8.800011575,-7.200006545,1,0,0,rectangle,8.800011575,-7.200006545,1,0,0,8.800011575,-7.200006545,1,0,0,0,123,123,130,1,,,,,,,,
,,,,,,,,,,,,,FF,,,,,,,,0.5119,,,,,,,,,,,,,,,,,,,,,,60fefbdab9a63c79e252bb96,61036bcc3a8cf79310e47e47,2021-07-29_22h03.26.789,Simcolourproject_2stim_asymm_v5,2020.2.10,Win32,60,61025ae37ef11b136ea224fe,,,,,,,,,1769,42.40001208,66.39999455,1,0,0,response1disk,,7,19.20001173,-6.4373E-06,1,0,0,rectangle,19.20001173,-6.4373E-06,1,0,0,19.20001173,-6.4373E-06,1,0,0,0,124,124,23,1,,,,,,,,
,,,,,,,,,,,,,FF,,,,,,,,2.6482,,,,,,,,,,,,,,,,,,,,,,60fefbdab9a63c79e252bb96,61036bcc3a8cf79310e47e47,2021-07-29_22h03.26.789,Simcolourproject_2stim_asymm_v5,2020.2.10,Win32,60,61025ae37ef11b136ea224fe,,,,,,,,,2810,56.80001229,83.19997039,1,0,0,response1disk,,7,4.000011504,0.799993575,1,0,0,rectangle,4.000011504,0.799993575,1,0,0,4.000011504,0.799993575,1,0,0,0,125,125,126,1,,,,,,,,
,,,,,,,,,,,,,FF,,,,,,,,2.831,,,,,,,,,,,,,,,,,,,,,,60fefbdab9a63c79e252bb96,61036bcc3a8cf79310e47e47,2021-07-29_22h03.26.789,Simcolourproject_2stim_asymm_v5,2020.2.10,Win32,60,61025ae37ef11b136ea224fe,,,,,,,,,2091,38.40001202,71.99999464,1,0,0,response1disk,,7,26.40001184,-9.60000658,1,0,0,rectangle,26.40001184,-9.60000658,1,0,0,26.40001184,-9.60000658,1,0,0,0,126,126,132,1,,,,,,,,
,,,,,,,,,,,,,FF,,,,,,,,0.5325,,,,,,,,,,,,,,,,,,,,,,60fefbdab9a63c79e252bb96,61036bcc3a8cf79310e47e47,2021-07-29_22h03.26.789,Simcolourproject_2stim_asymm_v5,2020.2.10,Win32,60,61025ae37ef11b136ea224fe,,,,,,,,,3171,43.20001209,69.5999946,1,0,0,response1disk,,7,14.40001166,-2.400006473,1,0,0,rectangle,14.40001166,-2.400006473,1,0,0,14.40001166,-2.400006473,1,0,0,0,127,127,27,1,,,,,,,,
,,,,,,,,,,,,,FF,,,,,,,,0.4822,,,,,,,,,,,,,,,,,,,,,,60fefbdab9a63c79e252bb96,61036bcc3a8cf79310e47e47,2021-07-29_22h03.26.789,Simcolourproject_2stim_asymm_v5,2020.2.10,Win32,60,61025ae37ef11b136ea224fe,,,,,,,,,775,28.80001187,58.39999443,1,0,0,response1disk,,7,-3.199988604,-6.400006533,1,0,0,rectangle,-3.199988604,-6.400006533,1,0,0,-3.199988604,-6.400006533,1,0,0,0,128,128,109,1,,,,,,,,
,,,,,,,,,,,,,FF,,,,,,,,0.4121,,,,,,,,,,,,,,,,,,,,,,60fefbdab9a63c79e252bb96,61036bcc3a8cf79310e47e47,2021-07-29_22h03.26.789,Simcolourproject_2stim_asymm_v5,2020.2.10,Win32,60,61025ae37ef11b136ea224fe,,,,,,,,,512,40.80001205,64.79999453,1,0,0,response1disk,,7,4.800011516,5.599993646,1,0,0,rectangle,4.800011516,5.599993646,1,0,0,4.800011516,5.599993646,1,0,0,0,129,129,45,1,,,,,,,,
,,,,,,,,,,,,,FF,,,,,,,,2.531,,,,,,,,,,,,,,,,,,,,,,60fefbdab9a63c79e252bb96,61036bcc3a8cf79310e47e47,2021-07-29_22h03.26.789,Simcolourproject_2stim_asymm_v5,2020.2.10,Win32,60,61025ae37ef11b136ea224fe,,,,,,,,,1329,39.20001203,78.39999473,1,0,0,response1disk,,7,-6.399939823,-2.400006473,1,0,0,rectangle,-6.399939823,-2.400006473,1,0,0,-6.399939823,-2.400006473,1,0,0,0,130,130,111,1,,,,,,,,
,,,,,,,,,,,,,FF,,,,,,,,0.4612,,,,,,,,,,,,,,,,,,,,,,60fefbdab9a63c79e252bb96,61036bcc3a8cf79310e47e47,2021-07-29_22h03.26.789,Simcolourproject_2stim_asymm_v5,2020.2.10,Win32,60,61025ae37ef11b136ea224fe,,,,,,,,,1642,63.20001239,79.19997033,1,0,0,response1disk,,7,8.800011575,-5.600006521,1,0,0,rectangle,8.800011575,-5.600006521,1,0,0,8.800011575,-5.600006521,1,0,0,0,131,131,93,1,,,,,,,,
,,,,,,,,,,,,,FF,,,,,,,,1.3649,,,,,,,,,,,,,,,,,,,,,,60fefbdab9a63c79e252bb96,61036bcc3a8cf79310e47e47,2021-07-29_22h03.26.789,Simcolourproject_2stim_asymm_v5,2020.2.10,Win32,60,61025ae37ef11b136ea224fe,,,,,,,,,187,-95.99998999,-59.20000732,1,0,0,response5disk,,2,10.4000116,-0.800006449,1,0,0,rectangle,10.4000116,-0.800006449,1,0,0,10.4000116,-0.800006449,1,0,0,0,132,132,105,1,,,,,,,,
,,,,,,,,,,,,,FF,,,,,,,,0.6162,,,,,,,,,,,,,,,,,,,,,,60fefbdab9a63c79e252bb96,61036bcc3a8cf79310e47e47,2021-07-29_22h03.26.789,Simcolourproject_2stim_asymm_v5,2020.2.10,Win32,60,61025ae37ef11b136ea224fe,,,,,,,,,1002,38.40001202,81.59999478,1,0,0,response1disk,,7,1.600060296,-7.200006545,1,0,0,rectangle,1.600060296,-7.200006545,1,0,0,1.600060296,-7.200006545,1,0,0,0,133,133,38,1,,,,,,,,
,,,,,,,,,,,,,FF,,,,,,,,1.6108,,,,,,,,,,,,,,,,,,,,,,60fefbdab9a63c79e252bb96,61036bcc3a8cf79310e47e47,2021-07-29_22h03.26.789,Simcolourproject_2stim_asymm_v5,2020.2.10,Win32,60,61025ae37ef11b136ea224fe,,,,,,,,,806,-94.39994113,-52.00000721,1,0,0,response5disk,,2,0.800011456,7.19999367,1,0,0,rectangle,0.800011456,7.19999367,1,0,0,0.800011456,7.19999367,1,0,0,0,134,134,76,1,,,,,,,,
,,,,,,,,,,,,,FF,,,,,,,,0.604,,,,,,,,,,,,,,,,,,,,,,60fefbdab9a63c79e252bb96,61036bcc3a8cf79310e47e47,2021-07-29_22h03.26.789,Simcolourproject_2stim_asymm_v5,2020.2.10,Win32,60,61025ae37ef11b136ea224fe,,,,,,,,,2826,42.40001208,71.19997021,1,0,0,response1disk,,7,2.40001148,-1.600006461,1,0,0,rectangle,2.40001148,-1.600006461,1,0,0,2.40001148,-1.600006461,1,0,0,0,135,135,125,1,,,,,,,,
,,,,,,,,,,,,,FF,,,,,,,,0.716,,,,,,,,,,,,,,,,,,,,,,60fefbdab9a63c79e252bb96,61036bcc3a8cf79310e47e47,2021-07-29_22h03.26.789,Simcolourproject_2stim_asymm_v5,2020.2.10,Win32,60,61025ae37ef11b136ea224fe,,,,,,,,,3505,44.80001211,71.19997021,1,0,0,response1disk,,7,18.40001172,15.9999938,1,0,0,rectangle,18.40001172,15.9999938,1,0,0,18.40001172,15.9999938,1,0,0,0,136,136,91,1,,,,,,,,
,,,,,,,,,,,,,FF,,,,,,,,1.5818,,,,,,,,,,,,,,,,,,,,,,60fefbdab9a63c79e252bb96,61036bcc3a8cf79310e47e47,2021-07-29_22h03.26.789,Simcolourproject_2stim_asymm_v5,2020.2.10,Win32,60,61025ae37ef11b136ea224fe,,,,,,,,,3783,84.0000127,-53.60000724,1,0,0,response3disk,,5,1.14441E-05,3.999993622,1,0,0,rectangle,1.14441E-05,3.999993622,1,0,0,1.14441E-05,3.999993622,1,0,0,0,137,137,65,1,,,,,,,,
,,,,,,,,,,,,,FF,,,,,,,,0.604,,,,,,,,,,,,,,,,,,,,,,60fefbdab9a63c79e252bb96,61036bcc3a8cf79310e47e47,2021-07-29_22h03.26.789,Simcolourproject_2stim_asymm_v5,2020.2.10,Win32,60,61025ae37ef11b136ea224fe,,,,,,,,,32,49.60006101,85.59999484,1,0,0,response1disk,,7,8.800011575,-8.800006568,1,0,0,rectangle,8.800011575,-8.800006568,1,0,0,8.800011575,-8.800006568,1,0,0,0,138,138,69,1,,,,,,,,
,,,,,,,,,,,,,FF,,,,,,,,1.3994,,,,,,,,,,,,,,,,,,,,,,60fefbdab9a63c79e252bb96,61036bcc3a8cf79310e47e47,2021-07-29_22h03.26.789,Simcolourproject_2stim_asymm_v5,2020.2.10,Win32,60,61025ae37ef11b136ea224fe,,,,,,,,,4129,120.8000132,59.99999446,1,0,0,response1disk,,6,6.400011539,1.599993587,1,0,0,rectangle,6.400011539,1.599993587,1,0,0,6.400011539,1.599993587,1,0,0,0,139,139,34,1,,,,,,,,
,,,,,,,,,,,,,FF,,,,,,,,0.9828,,,,,,,,,,,,,,,,,,,,,,60fefbdab9a63c79e252bb96,61036bcc3a8cf79310e47e47,2021-07-29_22h03.26.789,Simcolourproject_2stim_asymm_v5,2020.2.10,Win32,60,61025ae37ef11b136ea224fe,,,,,,,,,1574,44.0000121,83.19997039,1,0,0,response1disk,,7,0.800011456,-7.200006545,1,0,0,rectangle,0.800011456,-7.200006545,1,0,0,0.800011456,-7.200006545,1,0,0,0,140,140,43,1,,,,,,,,
,,,,,,,,,,,,,FF,,,,,,,,0.7996,,,,,,,,,,,,,,,,,,,,,,60fefbdab9a63c79e252bb96,61036bcc3a8cf79310e47e47,2021-07-29_22h03.26.789,Simcolourproject_2stim_asymm_v5,2020.2.10,Win32,60,61025ae37ef11b136ea224fe,,,,,,,,,311,39.20001203,70.39999461,1,0,0,response1disk,,7,2.40001148,3.19999361,1,0,0,rectangle,2.40001148,3.19999361,1,0,0,2.40001148,3.19999361,1,0,0,0,141,141,99,1,,,,,,,,
,,,,,,,,,,,,,FF,,,,,,,,1.3156,,,,,,,,,,,,,,,,,,,,,,60fefbdab9a63c79e252bb96,61036bcc3a8cf79310e47e47,2021-07-29_22h03.26.789,Simcolourproject_2stim_asymm_v5,2020.2.10,Win32,60,61025ae37ef11b136ea224fe,,,,,,,,,373,-40.79998916,-84.00000769,1,0,0,response5disk,,3,11.20001161,9.599993706,1,0,0,rectangle,11.20001161,9.599993706,1,0,0,11.20001161,9.599993706,1,0,0,0,142,142,83,1,,,,,,,,
,,,,,,,,,,,,,FF,,,,,,,,1.6321,,,,,,,,,,,,,,,,,,,,,,60fefbdab9a63c79e252bb96,61036bcc3a8cf79310e47e47,2021-07-29_22h03.26.789,Simcolourproject_2stim_asymm_v5,2020.2.10,Win32,60,61025ae37ef11b136ea224fe,,,,,,,,,2946,50.4000122,-75.20000756,1,0,0,response3disk,,4,11.20001161,7.999993682,1,0,0,rectangle,11.20001161,7.999993682,1,0,0,11.20001161,7.999993682,1,0,0,0,143,143,8,1,,,,,,,,
,,,,,,,,,,,,,FF,,,,,,,,0.7154,,,,,,,,,,,,,,,,,,,,,,60fefbdab9a63c79e252bb96,61036bcc3a8cf79310e47e47,2021-07-29_22h03.26.789,Simcolourproject_2stim_asymm_v5,2020.2.10,Win32,60,61025ae37ef11b136ea224fe,,,,,,,,,146,37.60006083,53.59999436,1,0,0,response1disk,,7,10.4000116,-4.800006509,1,0,0,rectangle,10.4000116,-4.800006509,1,0,0,10.4000116,-4.800006509,1,0,0,0,144,144,10,1,,,,,,,,
,,,,,,,,,,,,,FF,,,,,,,,0.4997,,,,,,,,,,,,,,,,,,,,,,60fefbdab9a63c79e252bb96,61036bcc3a8cf79310e47e47,2021-07-29_22h03.26.789,Simcolourproject_2stim_asymm_v5,2020.2.10,Win32,60,61025ae37ef11b136ea224fe,,,,,,,,,209,28.80001187,59.19997003,1,0,0,response1disk,,7,2.40001148,-0.800006449,1,0,0,rectangle,2.40001148,-0.800006449,1,0,0,2.40001148,-0.800006449,1,0,0,0,145,145,92,1,,,,,,,,
,,,,,,,,,,,,,FF,,,,,,,,5.6448,,,,,,,,,,,,,,,,,,,,,,60fefbdab9a63c79e252bb96,61036bcc3a8cf79310e47e47,2021-07-29_22h03.26.789,Simcolourproject_2stim_asymm_v5,2020.2.10,Win32,60,61025ae37ef11b136ea224fe,,,,,,,,,2009,36.00001198,119.1999709,1,0,0,response1disk,,7,-15.19998878,-5.600006521,1,0,0,rectangle,-15.19998878,-5.600006521,1,0,0,-15.19998878,-5.600006521,1,0,0,0,146,146,59,1,,,,,,,,
,,,,,,,,,,,,,FF,,,,,,,,1.5609,,,,,,,,,,,,,,,,,,,,,,60fefbdab9a63c79e252bb96,61036bcc3a8cf79310e47e47,2021-07-29_22h03.26.789,Simcolourproject_2stim_asymm_v5,2020.2.10,Win32,60,61025ae37ef11b136ea224fe,,,,,,,,,1684,52.00001222,-64.8000074,1,0,0,response3disk,,4,14.40001166,-12.80000663,1,0,0,rectangle,14.40001166,-12.80000663,1,0,0,14.40001166,-12.80000663,1,0,0,0,147,147,9,1,,,,,,,,
,,,,,,,,,,,,,FF,,,,,,,,0.5503,,,,,,,,,,,,,,,,,,,,,,60fefbdab9a63c79e252bb96,61036bcc3a8cf79310e47e47,2021-07-29_22h03.26.789,Simcolourproject_2stim_asymm_v5,2020.2.10,Win32,60,61025ae37ef11b136ea224fe,,,,,,,,,4008,26.40001184,55.19996997,1,0,0,response1disk,,7,0.800011456,-5.600006521,1,0,0,rectangle,0.800011456,-5.600006521,1,0,0,0.800011456,-5.600006521,1,0,0,0,148,148,154,1,,,,,,,,
,,,,,,,,,,,,,FF,,,,,,,,0.4112,,,,,,,,,,,,,,,,,,,,,,60fefbdab9a63c79e252bb96,61036bcc3a8cf79310e47e47,2021-07-29_22h03.26.789,Simcolourproject_2stim_asymm_v5,2020.2.10,Win32,60,61025ae37ef11b136ea224fe,,,,,,,,,2422,44.0000121,59.99999446,1,0,0,response1disk,,7,12.80001163,-9.60000658,1,0,0,rectangle,12.80001163,-9.60000658,1,0,0,12.80001163,-9.60000658,1,0,0,0,149,149,150,1,,,,,,,,
,,,,,,,,,,,,,FF,,,,,,,,0.5283,,,,,,,,,,,,,,,,,,,,,,60fefbdab9a63c79e252bb96,61036bcc3a8cf79310e47e47,2021-07-29_22h03.26.789,Simcolourproject_2stim_asymm_v5,2020.2.10,Win32,60,61025ae37ef11b136ea224fe,,,,,,,,,1179,41.60006089,61.59999448,1,0,0,response1disk,,7,12.00001162,-0.800006449,1,0,0,rectangle,12.00001162,-0.800006449,1,0,0,12.00001162,-0.800006449,1,0,0,0,150,150,114,1,,,,,,,,
,,,,,,,,,,,,,FF,,,,,,,,0.5491,,,,,,,,,,,,,,,,,,,,,,60fefbdab9a63c79e252bb96,61036bcc3a8cf79310e47e47,2021-07-29_22h03.26.789,Simcolourproject_2stim_asymm_v5,2020.2.10,Win32,60,61025ae37ef11b136ea224fe,,,,,,,,,3417,46.40001214,73.59999466,1,0,0,response1disk,,7,17.60006053,5.599993646,1,0,0,rectangle,17.60006053,5.599993646,1,0,0,17.60006053,5.599993646,1,0,0,0,151,151,151,1,,,,,,,,
,,,,,,,,,,,,,FF,,,,,,,,0.4163,,,,,,,,,,,,,,,,,,,,,,60fefbdab9a63c79e252bb96,61036bcc3a8cf79310e47e47,2021-07-29_22h03.26.789,Simcolourproject_2stim_asymm_v5,2020.2.10,Win32,60,61025ae37ef11b136ea224fe,,,,,,,,,606,39.20001203,69.5999946,1,0,0,response1disk,,7,6.400011539,-12.00000662,1,0,0,rectangle,6.400011539,-12.00000662,1,0,0,6.400011539,-12.00000662,1,0,0,0,152,152,7,1,,,,,,,,
,,,,,,,,,,,,,FF,,,,,,,,0.3456,,,,,,,,,,,,,,,,,,,,,,60fefbdab9a63c79e252bb96,61036bcc3a8cf79310e47e47,2021-07-29_22h03.26.789,Simcolourproject_2stim_asymm_v5,2020.2.10,Win32,60,61025ae37ef11b136ea224fe,,,,,,,,,1972,40.80001205,58.39999443,1,0,0,response1disk,,7,4.000011504,-3.200006485,1,0,0,rectangle,4.000011504,-3.200006485,1,0,0,4.000011504,-3.200006485,1,0,0,0,153,153,14,1,,,,,,,,
,,,,,,,,,,,,,FF,,,,,,,,0.4333,,,,,,,,,,,,,,,,,,,,,,60fefbdab9a63c79e252bb96,61036bcc3a8cf79310e47e47,2021-07-29_22h03.26.789,Simcolourproject_2stim_asymm_v5,2020.2.10,Win32,60,61025ae37ef11b136ea224fe,,,,,,,,,1571,30.4000119,50.39999431,1,0,0,response1disk,,7,16.00001168,-6.400006533,1,0,0,rectangle,16.00001168,-6.400006533,1,0,0,16.00001168,-6.400006533,1,0,0,0,154,154,115,1,,,,,,,,
,,,,,,,,,,,,,FF,,,,,,,,0.3599,,,,,,,,,,,,,,,,,,,,,,60fefbdab9a63c79e252bb96,61036bcc3a8cf79310e47e47,2021-07-29_22h03.26.789,Simcolourproject_2stim_asymm_v5,2020.2.10,Win32,60,61025ae37ef11b136ea224fe,,,,,,,,,2961,32.80001193,71.19997021,1,0,0,response1disk,,7,5.600060356,-9.60000658,1,0,0,rectangle,5.600060356,-9.60000658,1,0,0,5.600060356,-9.60000658,1,0,0,0,155,155,24,1,,,,,,,,
,,,,,,,,,,,,,FF,,,,,,,,2.5481,,,,,,,,,,,,,,,,,,,,,,60fefbdab9a63c79e252bb96,61036bcc3a8cf79310e47e47,2021-07-29_22h03.26.789,Simcolourproject_2stim_asymm_v5,2020.2.10,Win32,60,61025ae37ef11b136ea224fe,,,,,,,,,993,50.4000122,85.59999484,1,0,0,response1disk,,7,25.60006065,3.19999361,1,0,0,rectangle,25.60006065,3.19999361,1,0,0,25.60006065,3.19999361,1,0,0,0,156,156,2,1,,,,,,,,
,,,,,,,,,,,,,FF,,,,,,,,0.6993,,,,,,,,,,,,,,,,,,,,,,60fefbdab9a63c79e252bb96,61036bcc3a8cf79310e47e47,2021-07-29_22h03.26.789,Simcolourproject_2stim_asymm_v5,2020.2.10,Win32,60,61025ae37ef11b136ea224fe,,,,,,,,,1867,24.80001181,62.39999449,1,0,0,response1disk,,7,2.40001148,7.999993682,1,0,0,rectangle,2.40001148,7.999993682,1,0,0,2.40001148,7.999993682,1,0,0,0,157,157,123,1,,,,,,,,
,,,,,,,,,,,,,FF,,,,,,,,1.5657,,,,,,,,,,,,,,,,,,,,,,60fefbdab9a63c79e252bb96,61036bcc3a8cf79310e47e47,2021-07-29_22h03.26.789,Simcolourproject_2stim_asymm_v5,2020.2.10,Win32,60,61025ae37ef11b136ea224fe,,,,,,,,,1440,21.60006059,91.99999493,1,0,0,response1disk,,7,1.600060296,-6.4373E-06,1,0,0,rectangle,1.600060296,-6.4373E-06,1,0,0,1.600060296,-6.4373E-06,1,0,0,0,158,158,116,1,,,,,,,,
,,,,,,,,,,,,,FF,,,,,,,,0.7713,,,,,,,,,,,,,,,,,,,,,,60fefbdab9a63c79e252bb96,61036bcc3a8cf79310e47e47,2021-07-29_22h03.26.789,Simcolourproject_2stim_asymm_v5,2020.2.10,Win32,60,61025ae37ef11b136ea224fe,,,,,,,,,2417,47.20001215,94.39999497,1,0,0,response1disk,,7,-0.799988568,-5.600006521,1,0,0,rectangle,-0.799988568,-5.600006521,1,0,0,-0.799988568,-5.600006521,1,0,0,0,159,159,112,1,,,,,,,,
,,,,,,,,,,,,,FF,,,,,,,,0.6046,,,,,,,,,,,,,,,,,,,,,,60fefbdab9a63c79e252bb96,61036bcc3a8cf79310e47e47,2021-07-29_22h03.26.789,Simcolourproject_2stim_asymm_v5,2020.2.10,Win32,60,61025ae37ef11b136ea224fe,,,,,,,,,1700,50.4000122,74.39999467,1,0,0,response1disk,,7,16.80001169,-1.600006461,1,0,0,rectangle,16.80001169,-1.600006461,1,0,0,16.80001169,-1.600006461,1,0,0,1,0,160,3,1,,,,,,,,
,,,,,,,,,,,,,FF,,,,,,,,1.0046,,,,,,,,,,,,,,,,,,,,,,60fefbdab9a63c79e252bb96,61036bcc3a8cf79310e47e47,2021-07-29_22h03.26.789,Simcolourproject_2stim_asymm_v5,2020.2.10,Win32,60,61025ae37ef11b136ea224fe,,,,,,,,,250,50.4000122,79.99999475,1,0,0,response1disk,,7,16.80001169,2.399993598,1,0,0,rectangle,16.80001169,2.399993598,1,0,0,16.80001169,2.399993598,1,0,0,1,1,161,20,1,,,,,,,,
,,,,,,,,,,,,,FF,,,,,,,,0.8155,,,,,,,,,,,,,,,,,,,,,,60fefbdab9a63c79e252bb96,61036bcc3a8cf79310e47e47,2021-07-29_22h03.26.789,Simcolourproject_2stim_asymm_v5,2020.2.10,Win32,60,61025ae37ef11b136ea224fe,,,,,,,,,160,41.60006089,71.99999464,1,0,0,response1disk,,7,-4.799988627,-6.400006533,1,0,0,rectangle,-4.799988627,-6.400006533,1,0,0,-4.799988627,-6.400006533,1,0,0,1,2,162,25,1,,,,,,,,
,,,,,,,,,,,,,FF,,,,,,,,0.6492,,,,,,,,,,,,,,,,,,,,,,60fefbdab9a63c79e252bb96,61036bcc3a8cf79310e47e47,2021-07-29_22h03.26.789,Simcolourproject_2stim_asymm_v5,2020.2.10,Win32,60,61025ae37ef11b136ea224fe,,,,,,,,,2519,48.00001216,86.39999485,1,0,0,response1disk,,7,-7.199988663,-8.000006557,1,0,0,rectangle,-7.199988663,-8.000006557,1,0,0,-7.199988663,-8.000006557,1,0,0,1,3,163,40,1,,,,,,,,
,,,,,,,,,,,,,FF,,,,,,,,1.2325,,,,,,,,,,,,,,,,,,,,,,60fefbdab9a63c79e252bb96,61036bcc3a8cf79310e47e47,2021-07-29_22h03.26.789,Simcolourproject_2stim_asymm_v5,2020.2.10,Win32,60,61025ae37ef11b136ea224fe,,,,,,,,,841,58.40001231,87.19997045,1,0,0,response1disk,,7,-14.39993994,-1.600006461,1,0,0,rectangle,-14.39993994,-1.600006461,1,0,0,-14.39993994,-1.600006461,1,0,0,1,4,164,0,1,,,,,,,,
,,,,,,,,,,,,,FF,,,,,,,,0.6827,,,,,,,,,,,,,,,,,,,,,,60fefbdab9a63c79e252bb96,61036bcc3a8cf79310e47e47,2021-07-29_22h03.26.789,Simcolourproject_2stim_asymm_v5,2020.2.10,Win32,60,61025ae37ef11b136ea224fe,,,,,,,,,4348,29.60006071,59.99999446,1,0,0,response1disk,,7,3.200011492,-2.400006473,1,0,0,rectangle,3.200011492,-2.400006473,1,0,0,3.200011492,-2.400006473,1,0,0,1,5,165,48,1,,,,,,,,
,,,,,,,,,,,,,FF,,,,,,,,0.5829,,,,,,,,,,,,,,,,,,,,,,60fefbdab9a63c79e252bb96,61036bcc3a8cf79310e47e47,2021-07-29_22h03.26.789,Simcolourproject_2stim_asymm_v5,2020.2.10,Win32,60,61025ae37ef11b136ea224fe,,,,,,,,,911,40.00001204,59.19997003,1,0,0,response1disk,,7,17.60006053,-6.400006533,1,0,0,rectangle,17.60006053,-6.400006533,1,0,0,17.60006053,-6.400006533,1,0,0,1,6,166,2,1,,,,,,,,
,,,,,,,,,,,,,FF,,,,,,,,0.4159,,,,,,,,,,,,,,,,,,,,,,60fefbdab9a63c79e252bb96,61036bcc3a8cf79310e47e47,2021-07-29_22h03.26.789,Simcolourproject_2stim_asymm_v5,2020.2.10,Win32,60,61025ae37ef11b136ea224fe,,,,,,,,,2049,49.60006101,66.39999455,1,0,0,response1disk,,7,21.60006059,-4.800006509,1,0,0,rectangle,21.60006059,-4.800006509,1,0,0,21.60006059,-4.800006509,1,0,0,1,7,167,10,1,,,,,,,,
,,,,,,,,,,,,,FF,,,,,,,,0.4119,,,,,,,,,,,,,,,,,,,,,,60fefbdab9a63c79e252bb96,61036bcc3a8cf79310e47e47,2021-07-29_22h03.26.789,Simcolourproject_2stim_asymm_v5,2020.2.10,Win32,60,61025ae37ef11b136ea224fe,,,,,,,,,3616,32.00001192,52.79999435,1,0,0,response1disk,,7,16.80001169,-6.400006533,1,0,0,rectangle,16.80001169,-6.400006533,1,0,0,16.80001169,-6.400006533,1,0,0,1,8,168,90,1,,,,,,,,
,,,,,,,,,,,,,FF,,,,,,,,0.3994,,,,,,,,,,,,,,,,,,,,,,60fefbdab9a63c79e252bb96,61036bcc3a8cf79310e47e47,2021-07-29_22h03.26.789,Simcolourproject_2stim_asymm_v5,2020.2.10,Win32,60,61025ae37ef11b136ea224fe,,,,,,,,,39,45.60006095,67.19997015,1,0,0,response1disk,,7,19.20001173,-4.000006497,1,0,0,rectangle,19.20001173,-4.000006497,1,0,0,19.20001173,-4.000006497,1,0,0,1,9,169,143,1,,,,,,,,
,,,,,,,,,,,,,FF,,,,,,,,0.4779,,,,,,,,,,,,,,,,,,,,,,60fefbdab9a63c79e252bb96,61036bcc3a8cf79310e47e47,2021-07-29_22h03.26.789,Simcolourproject_2stim_asymm_v5,2020.2.10,Win32,60,61025ae37ef11b136ea224fe,,,,,,,,,1503,45.60006095,52.79999435,1,0,0,response1disk,,7,20.80001175,5.599993646,1,0,0,rectangle,20.80001175,5.599993646,1,0,0,20.80001175,5.599993646,1,0,0,1,10,170,96,1,,,,,,,,
,,,,,,,,,,,,,FF,,,,,,,,0.3819,,,,,,,,,,,,,,,,,,,,,,60fefbdab9a63c79e252bb96,61036bcc3a8cf79310e47e47,2021-07-29_22h03.26.789,Simcolourproject_2stim_asymm_v5,2020.2.10,Win32,60,61025ae37ef11b136ea224fe,,,,,,,,,1549,46.40001214,69.5999946,1,0,0,response1disk,,7,8.000011563,-8.000006557,1,0,0,rectangle,8.000011563,-8.000006557,1,0,0,8.000011563,-8.000006557,1,0,0,1,11,171,154,1,,,,,,,,
,,,,,,,,,,,,,FF,,,,,,,,0.311,,,,,,,,,,,,,,,,,,,,,,60fefbdab9a63c79e252bb96,61036bcc3a8cf79310e47e47,2021-07-29_22h03.26.789,Simcolourproject_2stim_asymm_v5,2020.2.10,Win32,60,61025ae37ef11b136ea224fe,,,,,,,,,1922,44.80001211,67.99999458,1,0,0,response1disk,,7,21.60006059,0.799993575,1,0,0,rectangle,21.60006059,0.799993575,1,0,0,21.60006059,0.799993575,1,0,0,1,12,172,139,1,,,,,,,,
,,,,,,,,,,,,,FF,,,,,,,,0.383,,,,,,,,,,,,,,,,,,,,,,60fefbdab9a63c79e252bb96,61036bcc3a8cf79310e47e47,2021-07-29_22h03.26.789,Simcolourproject_2stim_asymm_v5,2020.2.10,Win32,60,61025ae37ef11b136ea224fe,,,,,,,,,1106,44.80001211,64.79999453,1,0,0,response1disk,,7,14.40001166,7.999993682,1,0,0,rectangle,14.40001166,7.999993682,1,0,0,14.40001166,7.999993682,1,0,0,1,13,173,127,1,,,,,,,,
,,,,,,,,,,,,,FF,,,,,,,,0.3987,,,,,,,,,,,,,,,,,,,,,,60fefbdab9a63c79e252bb96,61036bcc3a8cf79310e47e47,2021-07-29_22h03.26.789,Simcolourproject_2stim_asymm_v5,2020.2.10,Win32,60,61025ae37ef11b136ea224fe,,,,,,,,,1515,42.40001208,66.39999455,1,0,0,response1disk,,7,20.80001175,4.799993634,1,0,0,rectangle,20.80001175,4.799993634,1,0,0,20.80001175,4.799993634,1,0,0,1,14,174,112,1,,,,,,,,
,,,,,,,,,,,,,FF,,,,,,,,2.6141,,,,,,,,,,,,,,,,,,,,,,60fefbdab9a63c79e252bb96,61036bcc3a8cf79310e47e47,2021-07-29_22h03.26.789,Simcolourproject_2stim_asymm_v5,2020.2.10,Win32,60,61025ae37ef11b136ea224fe,,,,,,,,,2865,48.80001217,73.59999466,1,0,0,response1disk,,7,12.80001163,11.99999374,1,0,0,rectangle,12.80001163,11.99999374,1,0,0,12.80001163,11.99999374,1,0,0,1,15,175,87,1,,,,,,,,
,,,,,,,,,,,,,FF,,,,,,,,0.5369,,,,,,,,,,,,,,,,,,,,,,60fefbdab9a63c79e252bb96,61036bcc3a8cf79310e47e47,2021-07-29_22h03.26.789,Simcolourproject_2stim_asymm_v5,2020.2.10,Win32,60,61025ae37ef11b136ea224fe,,,,,,,,,3733,38.40001202,66.39999455,1,0,0,response1disk,,7,16.80001169,5.599993646,1,0,0,rectangle,16.80001169,5.599993646,1,0,0,16.80001169,5.599993646,1,0,0,1,16,176,74,1,,,,,,,,
,,,,,,,,,,,,,FF,,,,,,,,0.8827,,,,,,,,,,,,,,,,,,,,,,60fefbdab9a63c79e252bb96,61036bcc3a8cf79310e47e47,2021-07-29_22h03.26.789,Simcolourproject_2stim_asymm_v5,2020.2.10,Win32,60,61025ae37ef11b136ea224fe,,,,,,,,,3859,50.4000122,67.99999458,1,0,0,response1disk,,7,15.20001167,5.599993646,1,0,0,rectangle,15.20001167,5.599993646,1,0,0,15.20001167,5.599993646,1,0,0,1,17,177,15,1,,,,,,,,
,,,,,,,,,,,,,FF,,,,,,,,1.0495,,,,,,,,,,,,,,,,,,,,,,60fefbdab9a63c79e252bb96,61036bcc3a8cf79310e47e47,2021-07-29_22h03.26.789,Simcolourproject_2stim_asymm_v5,2020.2.10,Win32,60,61025ae37ef11b136ea224fe,,,,,,,,,1998,40.00001204,63.19997009,1,0,0,response1disk,,7,1.14441E-05,-3.200006485,1,0,0,rectangle,1.14441E-05,-3.200006485,1,0,0,1.14441E-05,-3.200006485,1,0,0,1,18,178,75,1,,,,,,,,
,,,,,,,,,,,,,FF,,,,,,,,1.7482,,,,,,,,,,,,,,,,,,,,,,60fefbdab9a63c79e252bb96,61036bcc3a8cf79310e47e47,2021-07-29_22h03.26.789,Simcolourproject_2stim_asymm_v5,2020.2.10,Win32,60,61025ae37ef11b136ea224fe,,,,,,,,,457,-60.79998946,-98.4000079,1,0,0,response5disk,,3,3.200011492,4.799993634,1,0,0,rectangle,3.200011492,4.799993634,1,0,0,3.200011492,4.799993634,1,0,0,1,19,179,141,1,,,,,,,,
,,,,,,,,,,,,,FF,,,,,,,,0.683,,,,,,,,,,,,,,,,,,,,,,60fefbdab9a63c79e252bb96,61036bcc3a8cf79310e47e47,2021-07-29_22h03.26.789,Simcolourproject_2stim_asymm_v5,2020.2.10,Win32,60,61025ae37ef11b136ea224fe,,,,,,,,,1541,64.80001241,97.59999502,1,0,0,response1disk,,7,7.200011551,-6.4373E-06,1,0,0,rectangle,7.200011551,-6.4373E-06,1,0,0,7.200011551,-6.4373E-06,1,0,0,1,20,180,102,1,,,,,,,,
,,,,,,,,,,,,,FF,,,,,,,,0.3164,,,,,,,,,,,,,,,,,,,,,,60fefbdab9a63c79e252bb96,61036bcc3a8cf79310e47e47,2021-07-29_22h03.26.789,Simcolourproject_2stim_asymm_v5,2020.2.10,Win32,60,61025ae37ef11b136ea224fe,,,,,,,,,2867,44.0000121,59.99999446,1,0,0,response1disk,,7,7.200011551,-5.600006521,1,0,0,rectangle,7.200011551,-5.600006521,1,0,0,7.200011551,-5.600006521,1,0,0,1,21,181,27,1,,,,,,,,
,,,,,,,,,,,,,FF,,,,,,,,0.3661,,,,,,,,,,,,,,,,,,,,,,60fefbdab9a63c79e252bb96,61036bcc3a8cf79310e47e47,2021-07-29_22h03.26.789,Simcolourproject_2stim_asymm_v5,2020.2.10,Win32,60,61025ae37ef11b136ea224fe,,,,,,,,,314,46.40001214,50.39999431,1,0,0,response1disk,,7,16.00001168,11.99999374,1,0,0,rectangle,16.00001168,11.99999374,1,0,0,16.00001168,11.99999374,1,0,0,1,22,182,106,1,,,,,,,,
,,,,,,,,,,,,,FF,,,,,,,,0.3486,,,,,,,,,,,,,,,,,,,,,,60fefbdab9a63c79e252bb96,61036bcc3a8cf79310e47e47,2021-07-29_22h03.26.789,Simcolourproject_2stim_asymm_v5,2020.2.10,Win32,60,61025ae37ef11b136ea224fe,,,,,,,,,1483,44.0000121,79.99999475,1,0,0,response1disk,,7,8.000011563,8.799993694,1,0,0,rectangle,8.000011563,8.799993694,1,0,0,8.000011563,8.799993694,1,0,0,1,23,183,73,1,,,,,,,,
,,,,,,,,,,,,,FF,,,,,,,,0.4332,,,,,,,,,,,,,,,,,,,,,,60fefbdab9a63c79e252bb96,61036bcc3a8cf79310e47e47,2021-07-29_22h03.26.789,Simcolourproject_2stim_asymm_v5,2020.2.10,Win32,60,61025ae37ef11b136ea224fe,,,,,,,,,611,40.00001204,74.39999467,1,0,0,response1disk,,7,12.00001162,-6.4373E-06,1,0,0,rectangle,12.00001162,-6.4373E-06,1,0,0,12.00001162,-6.4373E-06,1,0,0,1,24,184,92,1,,,,,,,,
,,,,,,,,,,,,,FF,,,,,,,,1.1868,,,,,,,,,,,,,,,,,,,,,,60fefbdab9a63c79e252bb96,61036bcc3a8cf79310e47e47,2021-07-29_22h03.26.789,Simcolourproject_2stim_asymm_v5,2020.2.10,Win32,60,61025ae37ef11b136ea224fe,,,,,,,,,3097,-40.79998916,83.99999481,1,0,0,response7disk,,0,-10.39993988,4.799993634,1,0,0,rectangle,-10.39993988,4.799993634,1,0,0,-10.39993988,4.799993634,1,0,0,1,25,185,130,1,,,,,,,,
,,,,,,,,,,,,,FF,,,,,,,,0.6878,,,,,,,,,,,,,,,,,,,,,,60fefbdab9a63c79e252bb96,61036bcc3a8cf79310e47e47,2021-07-29_22h03.26.789,Simcolourproject_2stim_asymm_v5,2020.2.10,Win32,60,61025ae37ef11b136ea224fe,,,,,,,,,178,35.20001197,83.19997039,1,0,0,response1disk,,7,-3.999988616,-4.000006497,1,0,0,rectangle,-3.999988616,-4.000006497,1,0,0,-3.999988616,-4.000006497,1,0,0,1,26,186,115,1,,,,,,,,
,,,,,,,,,,,,,FF,,,,,,,,0.4622,,,,,,,,,,,,,,,,,,,,,,60fefbdab9a63c79e252bb96,61036bcc3a8cf79310e47e47,2021-07-29_22h03.26.789,Simcolourproject_2stim_asymm_v5,2020.2.10,Win32,60,61025ae37ef11b136ea224fe,,,,,,,,,1782,48.80001217,79.99999475,1,0,0,response1disk,,7,20.80001175,0.799993575,1,0,0,rectangle,20.80001175,0.799993575,1,0,0,20.80001175,0.799993575,1,0,0,1,27,187,5,1,,,,,,,,
,,,,,,,,,,,,,FF,,,,,,,,0.3954,,,,,,,,,,,,,,,,,,,,,,60fefbdab9a63c79e252bb96,61036bcc3a8cf79310e47e47,2021-07-29_22h03.26.789,Simcolourproject_2stim_asymm_v5,2020.2.10,Win32,60,61025ae37ef11b136ea224fe,,,,,,,,,281,50.4000122,55.9999944,1,0,0,response1disk,,7,24.0000118,6.399993658,1,0,0,rectangle,24.0000118,6.399993658,1,0,0,24.0000118,6.399993658,1,0,0,1,28,188,124,1,,,,,,,,
,,,,,,,,,,,,,FF,,,,,,,,0.4328,,,,,,,,,,,,,,,,,,,,,,60fefbdab9a63c79e252bb96,61036bcc3a8cf79310e47e47,2021-07-29_22h03.26.789,Simcolourproject_2stim_asymm_v5,2020.2.10,Win32,60,61025ae37ef11b136ea224fe,,,,,,,,,4301,35.20001197,58.39999443,1,0,0,response1disk,,7,9.600060415,-8.800006568,1,0,0,rectangle,9.600060415,-8.800006568,1,0,0,9.600060415,-8.800006568,1,0,0,1,29,189,60,1,,,,,,,,
,,,,,,,,,,,,,FF,,,,,,,,0.3982,,,,,,,,,,,,,,,,,,,,,,60fefbdab9a63c79e252bb96,61036bcc3a8cf79310e47e47,2021-07-29_22h03.26.789,Simcolourproject_2stim_asymm_v5,2020.2.10,Win32,60,61025ae37ef11b136ea224fe,,,,,,,,,1285,28.80001187,43.99999422,1,0,0,response1disk,,7,0.800011456,-11.2000066,1,0,0,rectangle,0.800011456,-11.2000066,1,0,0,0.800011456,-11.2000066,1,0,0,1,30,190,57,1,,,,,,,,
,,,,,,,,,,,,,FF,,,,,,,,0.3956,,,,,,,,,,,,,,,,,,,,,,60fefbdab9a63c79e252bb96,61036bcc3a8cf79310e47e47,2021-07-29_22h03.26.789,Simcolourproject_2stim_asymm_v5,2020.2.10,Win32,60,61025ae37ef11b136ea224fe,,,,,,,,,319,34.40001196,65.59999454,1,0,0,response1disk,,7,0.800011456,-1.600006461,1,0,0,rectangle,0.800011456,-1.600006461,1,0,0,0.800011456,-1.600006461,1,0,0,1,31,191,99,1,,,,,,,,
,,,,,,,,,,,,,FF,,,,,,,,0.5661,,,,,,,,,,,,,,,,,,,,,,60fefbdab9a63c79e252bb96,61036bcc3a8cf79310e47e47,2021-07-29_22h03.26.789,Simcolourproject_2stim_asymm_v5,2020.2.10,Win32,60,61025ae37ef11b136ea224fe,,,,,,,,,1163,34.40001196,58.39999443,1,0,0,response1disk,,7,8.800011575,2.399993598,1,0,0,rectangle,8.800011575,2.399993598,1,0,0,8.800011575,2.399993598,1,0,0,1,32,192,103,1,,,,,,,,
,,,,,,,,,,,,,FF,,,,,,,,0.7029,,,,,,,,,,,,,,,,,,,,,,60fefbdab9a63c79e252bb96,61036bcc3a8cf79310e47e47,2021-07-29_22h03.26.789,Simcolourproject_2stim_asymm_v5,2020.2.10,Win32,60,61025ae37ef11b136ea224fe,,,,,,,,,2326,54.40001225,105.5999951,1,0,0,response1disk,,7,-7.199988663,-8.000006557,1,0,0,rectangle,-7.199988663,-8.000006557,1,0,0,-7.199988663,-8.000006557,1,0,0,1,33,193,1,1,,,,,,,,
,,,,,,,,,,,,,FF,,,,,,,,0.4491,,,,,,,,,,,,,,,,,,,,,,60fefbdab9a63c79e252bb96,61036bcc3a8cf79310e47e47,2021-07-29_22h03.26.789,Simcolourproject_2stim_asymm_v5,2020.2.10,Win32,60,61025ae37ef11b136ea224fe,,,,,,,,,1819,62.40001237,90.39999491,1,0,0,response1disk,,7,26.40001184,-5.600006521,1,0,0,rectangle,26.40001184,-5.600006521,1,0,0,26.40001184,-5.600006521,1,0,0,1,34,194,117,1,,,,,,,,
,,,,,,,,,,,,,FF,,,,,,,,0.5002,,,,,,,,,,,,,,,,,,,,,,60fefbdab9a63c79e252bb96,61036bcc3a8cf79310e47e47,2021-07-29_22h03.26.789,Simcolourproject_2stim_asymm_v5,2020.2.10,Win32,60,61025ae37ef11b136ea224fe,,,,,,,,,1473,36.80001199,68.79999459,1,0,0,response1disk,,7,32.00001192,11.19999373,1,0,0,rectangle,32.00001192,11.19999373,1,0,0,32.00001192,11.19999373,1,0,0,1,35,195,128,1,,,,,,,,
,,,,,,,,,,,,,FF,,,,,,,,0.4283,,,,,,,,,,,,,,,,,,,,,,60fefbdab9a63c79e252bb96,61036bcc3a8cf79310e47e47,2021-07-29_22h03.26.789,Simcolourproject_2stim_asymm_v5,2020.2.10,Win32,60,61025ae37ef11b136ea224fe,,,,,,,,,819,38.40001202,68.79999459,1,0,0,response1disk,,7,22.40001178,-0.800006449,1,0,0,rectangle,22.40001178,-0.800006449,1,0,0,22.40001178,-0.800006449,1,0,0,1,36,196,150,1,,,,,,,,
,,,,,,,,,,,,,FF,,,,,,,,0.5493,,,,,,,,,,,,,,,,,,,,,,60fefbdab9a63c79e252bb96,61036bcc3a8cf79310e47e47,2021-07-29_22h03.26.789,Simcolourproject_2stim_asymm_v5,2020.2.10,Win32,60,61025ae37ef11b136ea224fe,,,,,,,,,668,44.0000121,67.99999458,1,0,0,response1disk,,7,24.0000118,1.599993587,1,0,0,rectangle,24.0000118,1.599993587,1,0,0,24.0000118,1.599993587,1,0,0,1,37,197,30,1,,,,,,,,
,,,,,,,,,,,,,FF,,,,,,,,0.4001,,,,,,,,,,,,,,,,,,,,,,60fefbdab9a63c79e252bb96,61036bcc3a8cf79310e47e47,2021-07-29_22h03.26.789,Simcolourproject_2stim_asymm_v5,2020.2.10,Win32,60,61025ae37ef11b136ea224fe,,,,,,,,,2401,36.80001199,63.99999452,1,0,0,response1disk,,7,4.000011504,-8.800006568,1,0,0,rectangle,4.000011504,-8.800006568,1,0,0,4.000011504,-8.800006568,1,0,0,1,38,198,104,1,,,,,,,,
,,,,,,,,,,,,,FF,,,,,,,,0.3715,,,,,,,,,,,,,,,,,,,,,,60fefbdab9a63c79e252bb96,61036bcc3a8cf79310e47e47,2021-07-29_22h03.26.789,Simcolourproject_2stim_asymm_v5,2020.2.10,Win32,60,61025ae37ef11b136ea224fe,,,,,,,,,2817,35.20001197,61.59999448,1,0,0,response1disk,,7,11.20001161,-4.000006497,1,0,0,rectangle,11.20001161,-4.000006497,1,0,0,11.20001161,-4.000006497,1,0,0,1,39,199,9,1,,,,,,,,
,,,,,,,,,,,,,FF,,,,,,,,0.3624,,,,,,,,,,,,,,,,,,,,,,60fefbdab9a63c79e252bb96,61036bcc3a8cf79310e47e47,2021-07-29_22h03.26.789,Simcolourproject_2stim_asymm_v5,2020.2.10,Win32,60,61025ae37ef11b136ea224fe,,,,,,,,,3641,36.00001198,62.39999449,1,0,0,response1disk,,7,12.00001162,-2.400006473,1,0,0,rectangle,12.00001162,-2.400006473,1,0,0,12.00001162,-2.400006473,1,0,0,1,40,200,18,1,,,,,,,,
,,,,,,,,,,,,,FF,,,,,,,,0.5496,,,,,,,,,,,,,,,,,,,,,,60fefbdab9a63c79e252bb96,61036bcc3a8cf79310e47e47,2021-07-29_22h03.26.789,Simcolourproject_2stim_asymm_v5,2020.2.10,Win32,60,61025ae37ef11b136ea224fe,,,,,,,,,838,36.80001199,43.19996979,1,0,0,response1disk,,7,19.20001173,11.99999374,1,0,0,rectangle,19.20001173,11.99999374,1,0,0,19.20001173,11.99999374,1,0,0,1,41,201,31,1,,,,,,,,
,,,,,,,,,,,,,FF,,,,,,,,0.7825,,,,,,,,,,,,,,,,,,,,,,60fefbdab9a63c79e252bb96,61036bcc3a8cf79310e47e47,2021-07-29_22h03.26.789,Simcolourproject_2stim_asymm_v5,2020.2.10,Win32,60,61025ae37ef11b136ea224fe,,,,,,,,,2547,-38.3999403,55.9999944,1,0,0,response7disk,,0,-7.199988663,-3.200006485,1,0,0,rectangle,-7.199988663,-3.200006485,1,0,0,-7.199988663,-3.200006485,1,0,0,1,42,202,41,1,,,,,,,,
,,,,,,,,,,,,,FF,,,,,,,,0.883,,,,,,,,,,,,,,,,,,,,,,60fefbdab9a63c79e252bb96,61036bcc3a8cf79310e47e47,2021-07-29_22h03.26.789,Simcolourproject_2stim_asymm_v5,2020.2.10,Win32,60,61025ae37ef11b136ea224fe,,,,,,,,,1375,-35.99998909,-84.00000769,1,0,0,response5disk,,3,-11.19998872,-9.60000658,1,0,0,rectangle,-11.19998872,-9.60000658,1,0,0,-11.19998872,-9.60000658,1,0,0,1,43,203,134,1,,,,,,,,
,,,,,,,,,,,,,FF,,,,,,,,0.4496,,,,,,,,,,,,,,,,,,,,,,60fefbdab9a63c79e252bb96,61036bcc3a8cf79310e47e47,2021-07-29_22h03.26.789,Simcolourproject_2stim_asymm_v5,2020.2.10,Win32,60,61025ae37ef11b136ea224fe,,,,,,,,,4289,42.40001208,57.59999442,1,0,0,response1disk,,7,14.40001166,3.19999361,1,0,0,rectangle,14.40001166,3.19999361,1,0,0,14.40001166,3.19999361,1,0,0,1,44,204,157,1,,,,,,,,
,,,,,,,,,,,,,FF,,,,,,,,0.3458,,,,,,,,,,,,,,,,,,,,,,60fefbdab9a63c79e252bb96,61036bcc3a8cf79310e47e47,2021-07-29_22h03.26.789,Simcolourproject_2stim_asymm_v5,2020.2.10,Win32,60,61025ae37ef11b136ea224fe,,,,,,,,,3885,40.80001205,56.79999441,1,0,0,response1disk,,7,20.00001174,5.599993646,1,0,0,rectangle,20.00001174,5.599993646,1,0,0,20.00001174,5.599993646,1,0,0,1,45,205,89,1,,,,,,,,
,,,,,,,,,,,,,FF,,,,,,,,0.3449,,,,,,,,,,,,,,,,,,,,,,60fefbdab9a63c79e252bb96,61036bcc3a8cf79310e47e47,2021-07-29_22h03.26.789,Simcolourproject_2stim_asymm_v5,2020.2.10,Win32,60,61025ae37ef11b136ea224fe,,,,,,,,,3208,37.60006083,64.79999453,1,0,0,response1disk,,7,2.40001148,14.39999378,1,0,0,rectangle,2.40001148,14.39999378,1,0,0,2.40001148,14.39999378,1,0,0,1,46,206,29,1,,,,,,,,
,,,,,,,,,,,,,FF,,,,,,,,0.3125,,,,,,,,,,,,,,,,,,,,,,60fefbdab9a63c79e252bb96,61036bcc3a8cf79310e47e47,2021-07-29_22h03.26.789,Simcolourproject_2stim_asymm_v5,2020.2.10,Win32,60,61025ae37ef11b136ea224fe,,,,,,,,,4298,28.80001187,69.5999946,1,0,0,response1disk,,7,6.400011539,11.99999374,1,0,0,rectangle,6.400011539,11.99999374,1,0,0,6.400011539,11.99999374,1,0,0,1,47,207,114,1,,,,,,,,
,,,,,,,,,,,,,FF,,,,,,,,0.4632,,,,,,,,,,,,,,,,,,,,,,60fefbdab9a63c79e252bb96,61036bcc3a8cf79310e47e47,2021-07-29_22h03.26.789,Simcolourproject_2stim_asymm_v5,2020.2.10,Win32,60,61025ae37ef11b136ea224fe,,,,,,,,,3185,30.4000119,63.19997009,1,0,0,response1disk,,7,7.200011551,0.799993575,1,0,0,rectangle,7.200011551,0.799993575,1,0,0,7.200011551,0.799993575,1,0,0,1,48,208,91,1,,,,,,,,
,,,,,,,,,,,,,FF,,,,,,,,0.4159,,,,,,,,,,,,,,,,,,,,,,60fefbdab9a63c79e252bb96,61036bcc3a8cf79310e47e47,2021-07-29_22h03.26.789,Simcolourproject_2stim_asymm_v5,2020.2.10,Win32,60,61025ae37ef11b136ea224fe,,,,,,,,,2470,46.40001214,65.59999454,1,0,0,response1disk,,7,15.20001167,3.19999361,1,0,0,rectangle,15.20001167,3.19999361,1,0,0,15.20001167,3.19999361,1,0,0,1,49,209,159,1,,,,,,,,
,,,,,,,,,,,,,FF,,,,,,,,0.3656,,,,,,,,,,,,,,,,,,,,,,60fefbdab9a63c79e252bb96,61036bcc3a8cf79310e47e47,2021-07-29_22h03.26.789,Simcolourproject_2stim_asymm_v5,2020.2.10,Win32,60,61025ae37ef11b136ea224fe,,,,,,,,,2463,35.20001197,55.9999944,1,0,0,response1disk,,7,13.60006047,-8.000006557,1,0,0,rectangle,13.60006047,-8.000006557,1,0,0,13.60006047,-8.000006557,1,0,0,1,50,210,146,1,,,,,,,,
,,,,,,,,,,,,,FF,,,,,,,,0.2951,,,,,,,,,,,,,,,,,,,,,,60fefbdab9a63c79e252bb96,61036bcc3a8cf79310e47e47,2021-07-29_22h03.26.789,Simcolourproject_2stim_asymm_v5,2020.2.10,Win32,60,61025ae37ef11b136ea224fe,,,,,,,,,3212,25.60006065,54.39999437,1,0,0,response1disk,,7,5.600060356,-0.800006449,1,0,0,rectangle,5.600060356,-0.800006449,1,0,0,5.600060356,-0.800006449,1,0,0,1,51,211,52,1,,,,,,,,
,,,,,,,,,,,,,FF,,,,,,,,1.7037,,,,,,,,,,,,,,,,,,,,,,60fefbdab9a63c79e252bb96,61036bcc3a8cf79310e47e47,2021-07-29_22h03.26.789,Simcolourproject_2stim_asymm_v5,2020.2.10,Win32,60,61025ae37ef11b136ea224fe,,,,,,,,,3333,-67.19998956,29.599994,1,0,0,response7disk,,1,-15.19998878,-6.4373E-06,1,0,0,rectangle,91.2000128,-57.6000073,1,0,0,2.40001148,7.999993682,1,0,0,1,52,212,123,1,,response3disk_3,TRUE,5,5,"[113,39,21,213,56,86,107,75,237,30,223,120,288,309,256,313,103,27,279,266]",2.2438,rectangle
,,,,,,,,,,,,,FF,,,,,,,,0.816,,,,,,,,,,,,,,,,,,,,,,60fefbdab9a63c79e252bb96,61036bcc3a8cf79310e47e47,2021-07-29_22h03.26.789,Simcolourproject_2stim_asymm_v5,2020.2.10,Win32,60,61025ae37ef11b136ea224fe,,,,,,,,,3833,57.6000123,95.99999499,1,0,0,response1disk,,7,16.00001168,5.599993646,1,0,0,rectangle,16.00001168,5.599993646,1,0,0,16.00001168,5.599993646,1,0,0,1,53,213,149,1,,,,,,,,
,,,,,,,,,,,,,FF,,,,,,,,0.4158,,,,,,,,,,,,,,,,,,,,,,60fefbdab9a63c79e252bb96,61036bcc3a8cf79310e47e47,2021-07-29_22h03.26.789,Simcolourproject_2stim_asymm_v5,2020.2.10,Win32,60,61025ae37ef11b136ea224fe,,,,,,,,,767,35.20001197,51.99999434,1,0,0,response1disk,,7,6.400011539,-2.400006473,1,0,0,rectangle,6.400011539,-2.400006473,1,0,0,6.400011539,-2.400006473,1,0,0,1,54,214,12,1,,,,,,,,
,,,,,,,,,,,,,FF,,,,,,,,0.4007,,,,,,,,,,,,,,,,,,,,,,60fefbdab9a63c79e252bb96,61036bcc3a8cf79310e47e47,2021-07-29_22h03.26.789,Simcolourproject_2stim_asymm_v5,2020.2.10,Win32,60,61025ae37ef11b136ea224fe,,,,,,,,,4034,28.00001186,57.59999442,1,0,0,response1disk,,7,0.800011456,2.399993598,1,0,0,rectangle,0.800011456,2.399993598,1,0,0,0.800011456,2.399993598,1,0,0,1,55,215,39,1,,,,,,,,
,,,,,,,,,,,,,FF,,,,,,,,0.9035,,,,,,,,,,,,,,,,,,,,,,60fefbdab9a63c79e252bb96,61036bcc3a8cf79310e47e47,2021-07-29_22h03.26.789,Simcolourproject_2stim_asymm_v5,2020.2.10,Win32,60,61025ae37ef11b136ea224fe,,,,,,,,,2715,25.60006065,56.79999441,1,0,0,response1disk,,7,-3.999988616,-0.800006449,1,0,0,rectangle,-3.999988616,-0.800006449,1,0,0,-3.999988616,-0.800006449,1,0,0,1,56,216,17,1,,,,,,,,
,,,,,,,,,,,,,FF,,,,,,,,0.3708,,,,,,,,,,,,,,,,,,,,,,60fefbdab9a63c79e252bb96,61036bcc3a8cf79310e47e47,2021-07-29_22h03.26.789,Simcolourproject_2stim_asymm_v5,2020.2.10,Win32,60,61025ae37ef11b136ea224fe,,,,,,,,,1559,36.00001198,57.59999442,1,0,0,response1disk,,7,4.000011504,-8.800006568,1,0,0,rectangle,4.000011504,-8.800006568,1,0,0,4.000011504,-8.800006568,1,0,0,1,57,217,137,1,,,,,,,,
,,,,,,,,,,,,,FF,,,,,,,,0.2619,,,,,,,,,,,,,,,,,,,,,,60fefbdab9a63c79e252bb96,61036bcc3a8cf79310e47e47,2021-07-29_22h03.26.789,Simcolourproject_2stim_asymm_v5,2020.2.10,Win32,60,61025ae37ef11b136ea224fe,,,,,,,,,2302,28.80001187,46.39999425,1,0,0,response1disk,,7,11.20001161,0.799993575,1,0,0,rectangle,11.20001161,0.799993575,1,0,0,11.20001161,0.799993575,1,0,0,1,58,218,94,1,,,,,,,,
,,,,,,,,,,,,,FF,,,,,,,,0.2448,,,,,,,,,,,,,,,,,,,,,,60fefbdab9a63c79e252bb96,61036bcc3a8cf79310e47e47,2021-07-29_22h03.26.789,Simcolourproject_2stim_asymm_v5,2020.2.10,Win32,60,61025ae37ef11b136ea224fe,,,,,,,,,3557,28.80001187,53.59999436,1,0,0,response1disk,,7,0.800011456,-12.00000662,1,0,0,rectangle,0.800011456,-12.00000662,1,0,0,0.800011456,-12.00000662,1,0,0,1,59,219,86,1,,,,,,,,
,,,,,,,,,,,,,FF,,,,,,,,0.2792,,,,,,,,,,,,,,,,,,,,,,60fefbdab9a63c79e252bb96,61036bcc3a8cf79310e47e47,2021-07-29_22h03.26.789,Simcolourproject_2stim_asymm_v5,2020.2.10,Win32,60,61025ae37ef11b136ea224fe,,,,,,,,,395,27.20001185,47.19996985,1,0,0,response1disk,,7,4.800011516,-5.600006521,1,0,0,rectangle,4.800011516,-5.600006521,1,0,0,4.800011516,-5.600006521,1,0,0,1,60,220,11,1,,,,,,,,
,,,,,,,,,,,,,FF,,,,,,,,0.3666,,,,,,,,,,,,,,,,,,,,,,60fefbdab9a63c79e252bb96,61036bcc3a8cf79310e47e47,2021-07-29_22h03.26.789,Simcolourproject_2stim_asymm_v5,2020.2.10,Win32,60,61025ae37ef11b136ea224fe,,,,,,,,,980,33.60006077,60.79999447,1,0,0,response1disk,,7,6.400011539,-3.200006485,1,0,0,rectangle,6.400011539,-3.200006485,1,0,0,6.400011539,-3.200006485,1,0,0,1,61,221,56,1,,,,,,,,
,,,,,,,,,,,,,FF,,,,,,,,0.4163,,,,,,,,,,,,,,,,,,,,,,60fefbdab9a63c79e252bb96,61036bcc3a8cf79310e47e47,2021-07-29_22h03.26.789,Simcolourproject_2stim_asymm_v5,2020.2.10,Win32,60,61025ae37ef11b136ea224fe,,,,,,,,,2774,32.00001192,48.79999429,1,0,0,response1disk,,7,8.800011575,-10.40000659,1,0,0,rectangle,-95.19998997,-45.60000712,1,0,0,-15.99998879,15.19999379,1,0,0,1,62,222,19,1,,response5disk_3,TRUE,2,2,"[113,39,21,213,56,86,107,75,237,30,223,120,288,309,256,313,103,27,279,266]",2.3483,rectangle
,,,,,,,,,,,,,FF,,,,,,,,1.4606,,,,,,,,,,,,,,,,,,,,,,60fefbdab9a63c79e252bb96,61036bcc3a8cf79310e47e47,2021-07-29_22h03.26.789,Simcolourproject_2stim_asymm_v5,2020.2.10,Win32,60,61025ae37ef11b136ea224fe,,,,,,,,,199,-48.79998928,-119.2000082,1,0,0,response5disk,,3,-0.799988568,-5.600006521,1,0,0,rectangle,-0.799988568,-5.600006521,1,0,0,-0.799988568,-5.600006521,1,0,0,1,63,223,59,1,,,,,,,,
,,,,,,,,,,,,,FF,,,,,,,,0.7991,,,,,,,,,,,,,,,,,,,,,,60fefbdab9a63c79e252bb96,61036bcc3a8cf79310e47e47,2021-07-29_22h03.26.789,Simcolourproject_2stim_asymm_v5,2020.2.10,Win32,60,61025ae37ef11b136ea224fe,,,,,,,,,1715,31.20001191,48.79999429,1,0,0,response1disk,,7,14.40001166,-0.800006449,1,0,0,rectangle,14.40001166,-0.800006449,1,0,0,14.40001166,-0.800006449,1,0,0,1,64,224,37,1,,,,,,,,
,,,,,,,,,,,,,FF,,,,,,,,0.533,,,,,,,,,,,,,,,,,,,,,,60fefbdab9a63c79e252bb96,61036bcc3a8cf79310e47e47,2021-07-29_22h03.26.789,Simcolourproject_2stim_asymm_v5,2020.2.10,Win32,60,61025ae37ef11b136ea224fe,,,,,,,,,2939,20.00001174,35.9999941,1,0,0,response1disk,,7,2.40001148,-4.800006509,1,0,0,rectangle,2.40001148,-4.800006509,1,0,0,2.40001148,-4.800006509,1,0,0,1,65,225,153,1,,,,,,,,
,,,,,,,,,,,,,FF,,,,,,,,0.7995,,,,,,,,,,,,,,,,,,,,,,60fefbdab9a63c79e252bb96,61036bcc3a8cf79310e47e47,2021-07-29_22h03.26.789,Simcolourproject_2stim_asymm_v5,2020.2.10,Win32,60,61025ae37ef11b136ea224fe,,,,,,,,,1357,34.40001196,63.19997009,1,0,0,response1disk,,7,1.14441E-05,5.599993646,1,0,0,rectangle,1.14441E-05,5.599993646,1,0,0,1.14441E-05,5.599993646,1,0,0,1,66,226,100,1,,,,,,,,
,,,,,,,,,,,,,FF,,,,,,,,1.0279,,,,,,,,,,,,,,,,,,,,,,60fefbdab9a63c79e252bb96,61036bcc3a8cf79310e47e47,2021-07-29_22h03.26.789,Simcolourproject_2stim_asymm_v5,2020.2.10,Win32,60,61025ae37ef11b136ea224fe,,,,,,,,,181,53.60001224,99.99999505,1,0,0,response1disk,,7,18.40001172,-6.4373E-06,1,0,0,rectangle,18.40001172,-6.4373E-06,1,0,0,18.40001172,-6.4373E-06,1,0,0,1,67,227,51,1,,,,,,,,
,,,,,,,,,,,,,FF,,,,,,,,3.48,,,,,,,,,,,,,,,,,,,,,,60fefbdab9a63c79e252bb96,61036bcc3a8cf79310e47e47,2021-07-29_22h03.26.789,Simcolourproject_2stim_asymm_v5,2020.2.10,Win32,60,61025ae37ef11b136ea224fe,,,,,,,,,4021,36.80001199,79.19997033,1,0,0,response1disk,,7,5.600060356,9.599993706,1,0,0,rectangle,5.600060356,9.599993706,1,0,0,5.600060356,9.599993706,1,0,0,1,68,228,107,1,,,,,,,,
,,,,,,,,,,,,,FF,,,,,,,,1.3659,,,,,,,,,,,,,,,,,,,,,,60fefbdab9a63c79e252bb96,61036bcc3a8cf79310e47e47,2021-07-29_22h03.26.789,Simcolourproject_2stim_asymm_v5,2020.2.10,Win32,60,61025ae37ef11b136ea224fe,,,,,,,,,740,44.0000121,101.5999951,1,0,0,response1disk,,7,-15.99998879,9.599993706,1,0,0,rectangle,-15.99998879,9.599993706,1,0,0,-15.99998879,9.599993706,1,0,0,1,69,229,84,1,,,,,,,,
,,,,,,,,,,,,,FF,,,,,,,,0.7332,,,,,,,,,,,,,,,,,,,,,,60fefbdab9a63c79e252bb96,61036bcc3a8cf79310e47e47,2021-07-29_22h03.26.789,Simcolourproject_2stim_asymm_v5,2020.2.10,Win32,60,61025ae37ef11b136ea224fe,,,,,,,,,1656,32.80001193,75.19997027,1,0,0,response1disk,,7,5.600060356,11.99999374,1,0,0,rectangle,5.600060356,11.99999374,1,0,0,5.600060356,11.99999374,1,0,0,1,70,230,55,1,,,,,,,,
,,,,,,,,,,,,,FF,,,,,,,,0.4123,,,,,,,,,,,,,,,,,,,,,,60fefbdab9a63c79e252bb96,61036bcc3a8cf79310e47e47,2021-07-29_22h03.26.789,Simcolourproject_2stim_asymm_v5,2020.2.10,Win32,60,61025ae37ef11b136ea224fe,,,,,,,,,4318,36.00001198,63.19997009,1,0,0,response1disk,,7,18.40001172,-8.000006557,1,0,0,rectangle,18.40001172,-8.000006557,1,0,0,18.40001172,-8.000006557,1,0,0,1,71,231,145,1,,,,,,,,
,,,,,,,,,,,,,FF,,,,,,,,0.4997,,,,,,,,,,,,,,,,,,,,,,60fefbdab9a63c79e252bb96,61036bcc3a8cf79310e47e47,2021-07-29_22h03.26.789,Simcolourproject_2stim_asymm_v5,2020.2.10,Win32,60,61025ae37ef11b136ea224fe,,,,,,,,,3638,44.0000121,63.99999452,1,0,0,response1disk,,7,12.80001163,1.599993587,1,0,0,rectangle,12.80001163,1.599993587,1,0,0,12.80001163,1.599993587,1,0,0,1,72,232,98,1,,,,,,,,
,,,,,,,,,,,,,FF,,,,,,,,0.5824,,,,,,,,,,,,,,,,,,,,,,60fefbdab9a63c79e252bb96,61036bcc3a8cf79310e47e47,2021-07-29_22h03.26.789,Simcolourproject_2stim_asymm_v5,2020.2.10,Win32,60,61025ae37ef11b136ea224fe,,,,,,,,,928,43.20001209,55.9999944,1,0,0,response1disk,,7,5.600060356,-5.600006521,1,0,0,rectangle,5.600060356,-5.600006521,1,0,0,5.600060356,-5.600006521,1,0,0,1,73,233,77,1,,,,,,,,
,,,,,,,,,,,,,FF,,,,,,,,0.3317,,,,,,,,,,,,,,,,,,,,,,60fefbdab9a63c79e252bb96,61036bcc3a8cf79310e47e47,2021-07-29_22h03.26.789,Simcolourproject_2stim_asymm_v5,2020.2.10,Win32,60,61025ae37ef11b136ea224fe,,,,,,,,,2259,28.00001186,53.59999436,1,0,0,response1disk,,7,-2.399939764,-12.00000662,1,0,0,rectangle,-2.399939764,-12.00000662,1,0,0,-2.399939764,-12.00000662,1,0,0,1,74,234,78,1,,,,,,,,
,,,,,,,,,,,,,FF,,,,,,,,0.7829,,,,,,,,,,,,,,,,,,,,,,60fefbdab9a63c79e252bb96,61036bcc3a8cf79310e47e47,2021-07-29_22h03.26.789,Simcolourproject_2stim_asymm_v5,2020.2.10,Win32,60,61025ae37ef11b136ea224fe,,,,,,,,,3741,-33.59998906,93.59999496,1,0,0,response7disk,,0,-19.19998884,-3.200006485,1,0,0,rectangle,-19.19998884,-3.200006485,1,0,0,-19.19998884,-3.200006485,1,0,0,1,75,235,113,1,,,,,,,,
,,,,,,,,,,,,,FF,,,,,,,,0.9823,,,,,,,,,,,,,,,,,,,,,,60fefbdab9a63c79e252bb96,61036bcc3a8cf79310e47e47,2021-07-29_22h03.26.789,Simcolourproject_2stim_asymm_v5,2020.2.10,Win32,60,61025ae37ef11b136ea224fe,,,,,,,,,1487,31.20001191,63.99999452,1,0,0,response1disk,,7,-1.59998858,7.999993682,1,0,0,rectangle,49.60006101,74.39999467,1,0,0,2.40001148,-3.200006485,1,0,0,1,76,236,62,1,,response1disk_3,TRUE,7,4,"[113,39,21,213,56,86,107,75,237,30,223,120,288,309,256,313,103,27,279,266]",1.2645,rectangle
,,,,,,,,,,,,,FF,,,,,,,,1.0508,,,,,,,,,,,,,,,,,,,,,,60fefbdab9a63c79e252bb96,61036bcc3a8cf79310e47e47,2021-07-29_22h03.26.789,Simcolourproject_2stim_asymm_v5,2020.2.10,Win32,60,61025ae37ef11b136ea224fe,,,,,,,,,326,54.40001225,82.39999479,1,0,0,response1disk,,7,10.4000116,10.39999372,1,0,0,rectangle,10.4000116,10.39999372,1,0,0,10.4000116,10.39999372,1,0,0,1,77,237,80,1,,,,,,,,
,,,,,,,,,,,,,FF,,,,,,,,0.6327,,,,,,,,,,,,,,,,,,,,,,60fefbdab9a63c79e252bb96,61036bcc3a8cf79310e47e47,2021-07-29_22h03.26.789,Simcolourproject_2stim_asymm_v5,2020.2.10,Win32,60,61025ae37ef11b136ea224fe,,,,,,,,,1841,37.60006083,65.59999454,1,0,0,response1disk,,7,20.00001174,14.39999378,1,0,0,rectangle,20.00001174,14.39999378,1,0,0,20.00001174,14.39999378,1,0,0,1,78,238,47,1,,,,,,,,
,,,,,,,,,,,,,FF,,,,,,,,0.4482,,,,,,,,,,,,,,,,,,,,,,60fefbdab9a63c79e252bb96,61036bcc3a8cf79310e47e47,2021-07-29_22h03.26.789,Simcolourproject_2stim_asymm_v5,2020.2.10,Win32,60,61025ae37ef11b136ea224fe,,,,,,,,,2352,39.20001203,68.79999459,1,0,0,response1disk,,7,15.20001167,1.599993587,1,0,0,rectangle,15.20001167,1.599993587,1,0,0,15.20001167,1.599993587,1,0,0,1,79,239,64,1,,,,,,,,
,,,,,,,,,,,,,FF,,,,,,,,0.8333,,,,,,,,,,,,,,,,,,,,,,60fefbdab9a63c79e252bb96,61036bcc3a8cf79310e47e47,2021-07-29_22h03.26.789,Simcolourproject_2stim_asymm_v5,2020.2.10,Win32,60,61025ae37ef11b136ea224fe,,,,,,,,,3817,-29.599989,66.39999455,1,0,0,response7disk,,0,4.000011504,0.799993575,1,0,0,rectangle,4.000011504,0.799993575,1,0,0,4.000011504,0.799993575,1,0,0,1,80,240,140,1,,,,,,,,
,,,,,,,,,,,,,FF,,,,,,,,1.4438,,,,,,,,,,,,,,,,,,,,,,60fefbdab9a63c79e252bb96,61036bcc3a8cf79310e47e47,2021-07-29_22h03.26.789,Simcolourproject_2stim_asymm_v5,2020.2.10,Win32,60,61025ae37ef11b136ea224fe,,,,,,,,,3100,-84.79998982,-54.40000725,1,0,0,response5disk,,2,-9.599988699,3.999993622,1,0,0,rectangle,-9.599988699,3.999993622,1,0,0,-9.599988699,3.999993622,1,0,0,1,81,241,14,1,,,,,,,,
,,,,,,,,,,,,,FF,,,,,,,,0.8043,,,,,,,,,,,,,,,,,,,,,,60fefbdab9a63c79e252bb96,61036bcc3a8cf79310e47e47,2021-07-29_22h03.26.789,Simcolourproject_2stim_asymm_v5,2020.2.10,Win32,60,61025ae37ef11b136ea224fe,,,,,,,,,1817,-28.79998899,75.9999947,1,0,0,response7disk,,0,1.14441E-05,7.999993682,1,0,0,rectangle,1.14441E-05,7.999993682,1,0,0,1.14441E-05,7.999993682,1,0,0,1,82,242,32,1,,,,,,,,
,,,,,,,,,,,,,FF,,,,,,,,1.7173,,,,,,,,,,,,,,,,,,,,,,60fefbdab9a63c79e252bb96,61036bcc3a8cf79310e47e47,2021-07-29_22h03.26.789,Simcolourproject_2stim_asymm_v5,2020.2.10,Win32,60,61025ae37ef11b136ea224fe,,,,,,,,,3205,84.80001271,-44.00000709,1,0,0,response3disk,,5,16.00001168,7.999993682,1,0,0,rectangle,16.00001168,7.999993682,1,0,0,16.00001168,7.999993682,1,0,0,1,83,243,85,1,,,,,,,,
