key_resp.keys,key_resp.rt,key_resp_14.keys,key_resp_14.rt,key_resp_15.keys,key_resp_15.rt,key_resp_17.keys,key_resp_17.rt,key_resp_9.keys,key_resp_9.rt,key_resp_10.keys,key_resp_10.rt,practice_comparison,Ecc,mouse_5.x,mouse_5.y,mouse_5.leftButton,mouse_5.midButton,mouse_5.rightButton,mouse_5.clicked_name,pracsimilarity,response_time,mouse_10.x,mouse_10.y,mouse_10.leftButton,mouse_10.midButton,mouse_10.rightButton,mouse_10.clicked_name,mouse_7.x,mouse_7.y,mouse_7.leftButton,mouse_7.midButton,mouse_7.rightButton,mouse_6.x,mouse_6.y,mouse_6.leftButton,mouse_6.midButton,mouse_6.rightButton,duringprac.thisRepN,duringprac.thisTrialN,duringprac.thisN,duringprac.thisIndex,duringprac.ran,participant,session,date,expName,psychopyVersion,OS,frameRate,study_id,mouse_7.clicked_name,catchpracsimilarity,catch_response_time,catchnumberprac,catchtrialorderprac,mouse_6.clicked_name,key_resp_22.keys,key_resp_22.rt,realcomparison,mouse.x,mouse.y,mouse.leftButton,mouse.midButton,mouse.rightButton,mouse.clicked_name,Colour2,similarity,mouse_2.x,mouse_2.y,mouse_2.leftButton,mouse_2.midButton,mouse_2.rightButton,mouse_2.clicked_name,mouse_3.x,mouse_3.y,mouse_3.leftButton,mouse_3.midButton,mouse_3.rightButton,mouse_11.x,mouse_11.y,mouse_11.leftButton,mouse_11.midButton,mouse_11.rightButton,trials_2.thisRepN,trials_2.thisTrialN,trials_2.thisN,trials_2.thisIndex,trials_2.ran,Colour1,mouse_3.clicked_name,catchornah,catchsimilarity,catchnumber,catchtrialorder,catchRT,mouse_11.clicked_name
space,0.2262,space,27.305,space,10.3209,space,15.187,space,0.124,space,6.6329,159,FF,71.33335453,-36.66667849,1,0,0,response3disk_5,5,2.8644,3.333393196,1.999989331,1,0,0,rectangle_8,3.333393196,1.999989331,1,0,0,3.333393196,1.999989331,1,0,0,0,0,0,0,1,60fe5dcd522e58dce4ea67ac,61036dd58f446aaf42f4385d,2021-07-30_13h13.08.458,Simcolourproject_2stim_asymm_v5,2020.2.10,Win32,60,61025ae37ef11b136ea224fe,,,,,,,,,,,,,,,,,,,,,,,,,,,,,,,,,,,,,,,,,,,,,,
,,,,,,,,,,,,56,PF,-88.66660955,-37.33334517,1,0,0,response5disk_5,2,5.1793,6.000019252,1.333322644,1,0,0,rectangle_8,87.33335501,36.66665703,1,0,0,-7.999981165,0.666655958,1,0,0,0,1,1,1,1,60fe5dcd522e58dce4ea67ac,61036dd58f446aaf42f4385d,2021-07-30_13h13.08.458,Simcolourproject_2stim_asymm_v5,2020.2.10,Win32,60,61025ae37ef11b136ea224fe,response1disk_7,6,4.0643,6,"[2,5]",rectangle_4,,,,,,,,,,,,,,,,,,,,,,,,,,,,,,,,,,,,,,,,
,,,,,,,,,,,,53,PF,-49.33331573,-70.6666795,1,0,0,response5disk_5,3,2.9303,-3.333314359,-1.333344102,1,0,0,rectangle_8,-3.333314359,-1.333344102,1,0,0,-3.333314359,-1.333344102,1,0,0,0,2,2,4,1,60fe5dcd522e58dce4ea67ac,61036dd58f446aaf42f4385d,2021-07-30_13h13.08.458,Simcolourproject_2stim_asymm_v5,2020.2.10,Win32,60,61025ae37ef11b136ea224fe,,,,,,,,,,,,,,,,,,,,,,,,,,,,,,,,,,,,,,,,,,,,,,
,,,,,,,,,,,,35,FF,84.66668826,-26.66667819,1,0,0,response3disk_5,5,2.5635,-0.666606923,-2.666677475,1,0,0,rectangle_8,-0.666606923,-2.666677475,1,0,0,-0.666606923,-2.666677475,1,0,0,0,3,3,3,1,60fe5dcd522e58dce4ea67ac,61036dd58f446aaf42f4385d,2021-07-30_13h13.08.458,Simcolourproject_2stim_asymm_v5,2020.2.10,Win32,60,61025ae37ef11b136ea224fe,,,,,,,,,,,,,,,,,,,,,,,,,,,,,,,,,,,,,,,,,,,,,,
,,,,,,,,,,,,148,PF,89.33335507,41.99999052,1,0,0,response1disk_5,6,2.323,10.00001937,-2.666677475,1,0,0,rectangle_8,85.33335495,37.33330337,1,0,0,-3.333314359,-3.333344162,1,0,0,0,4,4,6,1,60fe5dcd522e58dce4ea67ac,61036dd58f446aaf42f4385d,2021-07-30_13h13.08.458,Simcolourproject_2stim_asymm_v5,2020.2.10,Win32,60,61025ae37ef11b136ea224fe,response1disk_7,6,2.3298,6,"[2,5]",rectangle_4,,,,,,,,,,,,,,,,,,,,,,,,,,,,,,,,,,,,,,,,
,,,,,,,,,,,,144,PF,-38.66660806,-62.66667926,1,0,0,response5disk_5,3,3.5961,-5.333314419,4.666656077,1,0,0,rectangle_8,-5.333314419,4.666656077,1,0,0,-5.333314419,4.666656077,1,0,0,0,5,5,2,1,60fe5dcd522e58dce4ea67ac,61036dd58f446aaf42f4385d,2021-07-30_13h13.08.458,Simcolourproject_2stim_asymm_v5,2020.2.10,Win32,60,61025ae37ef11b136ea224fe,,,,,,,,,,,,,,,,,,,,,,,,,,,,,,,,,,,,,,,,,,,,,,
,,,,,,,,,,,,105,FF,-58.66660865,47.33330367,1,0,0,response7disk_5,1,2.0474,-13.33331466,5.333322763,1,0,0,rectangle_8,-13.33331466,5.333322763,1,0,0,-13.33331466,5.333322763,1,0,0,0,6,6,5,1,60fe5dcd522e58dce4ea67ac,61036dd58f446aaf42f4385d,2021-07-30_13h13.08.458,Simcolourproject_2stim_asymm_v5,2020.2.10,Win32,60,61025ae37ef11b136ea224fe,,,,,,,,,,,,,,,,,,,,,,,,,,,,,,,,,,,,,,,,,,,,,,
,,,,,,,,,,,,,FF,,,,,,,,1.6973,,,,,,,,,,,,,,,,,,,,,,60fe5dcd522e58dce4ea67ac,61036dd58f446aaf42f4385d,2021-07-30_13h13.08.458,Simcolourproject_2stim_asymm_v5,2020.2.10,Win32,60,61025ae37ef11b136ea224fe,,,,,,,space,4.2477,3298,-75.3333165,-32.00001168,1,0,0,response5disk,,2,-15.33331472,-8.666677654,1,0,0,rectangle,-15.33331472,-8.666677654,1,0,0,-15.33331472,-8.666677654,1,0,0,0,0,0,22,1,,,,,,,,
,,,,,,,,,,,,,FF,,,,,,,,1.348,,,,,,,,,,,,,,,,,,,,,,60fe5dcd522e58dce4ea67ac,61036dd58f446aaf42f4385d,2021-07-30_13h13.08.458,Simcolourproject_2stim_asymm_v5,2020.2.10,Win32,60,61025ae37ef11b136ea224fe,,,,,,,,,2913,71.33335453,-37.33334517,1,0,0,response3disk,,5,19.33339367,-8.666677654,1,0,0,rectangle,19.33339367,-8.666677654,1,0,0,19.33339367,-8.666677654,1,0,0,0,1,1,152,1,,,,,,,,
,,,,,,,,,,,,,FF,,,,,,,,2.7288,,,,,,,,,,,,,,,,,,,,,,60fe5dcd522e58dce4ea67ac,61036dd58f446aaf42f4385d,2021-07-30_13h13.08.458,Simcolourproject_2stim_asymm_v5,2020.2.10,Win32,60,61025ae37ef11b136ea224fe,,,,,,,,,843,86.00002164,30.66665685,1,0,0,response1disk,,6,13.33339349,-2.000010788,1,0,0,rectangle,13.33339349,-2.000010788,1,0,0,13.33339349,-2.000010788,1,0,0,0,2,2,35,1,,,,,,,,
,,,,,,,,,,,,,FF,,,,,,,,1.7311,,,,,,,,,,,,,,,,,,,,,,60fe5dcd522e58dce4ea67ac,61036dd58f446aaf42f4385d,2021-07-30_13h13.08.458,Simcolourproject_2stim_asymm_v5,2020.2.10,Win32,60,61025ae37ef11b136ea224fe,,,,,,,,,3395,-82.66660937,-24.66667813,1,0,0,response5disk,,2,-13.33331466,3.333322704,1,0,0,rectangle,-13.33331466,3.333322704,1,0,0,-13.33331466,3.333322704,1,0,0,0,3,3,60,1,,,,,,,,
,,,,,,,,,,,,,FF,,,,,,,,2.5805,,,,,,,,,,,,,,,,,,,,,,60fe5dcd522e58dce4ea67ac,61036dd58f446aaf42f4385d,2021-07-30_13h13.08.458,Simcolourproject_2stim_asymm_v5,2020.2.10,Win32,60,61025ae37ef11b136ea224fe,,,,,,,,,777,47.33335382,-73.33334625,1,0,0,response3disk,,4,12.00001943,-10.00001103,1,0,0,rectangle,-75.3333165,35.33330331,1,0,0,7.333393315,5.333322763,1,0,0,0,4,4,81,1,,response7disk_3,TRUE,1,1,"[11,140,19,176,105,122,285,156,29,295,5,269,40,207,101,233,206,131,303,158]",2.2806,rectangle
,,,,,,,,,,,,,FF,,,,,,,,1.8976,,,,,,,,,,,,,,,,,,,,,,60fe5dcd522e58dce4ea67ac,61036dd58f446aaf42f4385d,2021-07-30_13h13.08.458,Simcolourproject_2stim_asymm_v5,2020.2.10,Win32,60,61025ae37ef11b136ea224fe,,,,,,,,,3399,-50.66660841,-63.33334595,1,0,0,response5disk,,3,10.00001937,-1.333344102,1,0,0,rectangle,10.00001937,-1.333344102,1,0,0,10.00001937,-1.333344102,1,0,0,0,5,5,136,1,,,,,,,,
,,,,,,,,,,,,,FF,,,,,,,,1.3816,,,,,,,,,,,,,,,,,,,,,,60fe5dcd522e58dce4ea67ac,61036dd58f446aaf42f4385d,2021-07-30_13h13.08.458,Simcolourproject_2stim_asymm_v5,2020.2.10,Win32,60,61025ae37ef11b136ea224fe,,,,,,,,,3711,-73.99998313,27.33330307,1,0,0,response7disk,,1,13.33339349,-1.07288E-05,1,0,0,rectangle,13.33339349,-1.07288E-05,1,0,0,13.33339349,-1.07288E-05,1,0,0,0,6,6,26,1,,,,,,,,
,,,,,,,,,,,,,FF,,,,,,,,1.2812,,,,,,,,,,,,,,,,,,,,,,60fe5dcd522e58dce4ea67ac,61036dd58f446aaf42f4385d,2021-07-30_13h13.08.458,Simcolourproject_2stim_asymm_v5,2020.2.10,Win32,60,61025ae37ef11b136ea224fe,,,,,,,,,3891,44.00002038,-59.33334583,1,0,0,response3disk,,4,8.666685998,-1.07288E-05,1,0,0,rectangle,8.666685998,-1.07288E-05,1,0,0,8.666685998,-1.07288E-05,1,0,0,0,7,7,66,1,,,,,,,,
,,,,,,,,,,,,,FF,,,,,,,,1.8145,,,,,,,,,,,,,,,,,,,,,,60fe5dcd522e58dce4ea67ac,61036dd58f446aaf42f4385d,2021-07-30_13h13.08.458,Simcolourproject_2stim_asymm_v5,2020.2.10,Win32,60,61025ae37ef11b136ea224fe,,,,,,,,,1924,63.33335429,-49.33334553,1,0,0,response3disk,,5,-5.999981105,2.666656017,1,0,0,rectangle,-5.999981105,2.666656017,1,0,0,-5.999981105,2.666656017,1,0,0,0,8,8,88,1,,,,,,,,
,,,,,,,,,,,,,FF,,,,,,,,1.1977,,,,,,,,,,,,,,,,,,,,,,60fe5dcd522e58dce4ea67ac,61036dd58f446aaf42f4385d,2021-07-30_13h13.08.458,Simcolourproject_2stim_asymm_v5,2020.2.10,Win32,60,61025ae37ef11b136ea224fe,,,,,,,,,1234,-67.99998295,-29.33334494,1,0,0,response5disk,,2,-1.999980986,0.666655958,1,0,0,rectangle,-1.999980986,0.666655958,1,0,0,-1.999980986,0.666655958,1,0,0,0,9,9,99,1,,,,,,,,
,,,,,,,,,,,,,FF,,,,,,,,1.1485,,,,,,,,,,,,,,,,,,,,,,60fe5dcd522e58dce4ea67ac,61036dd58f446aaf42f4385d,2021-07-30_13h13.08.458,Simcolourproject_2stim_asymm_v5,2020.2.10,Win32,60,61025ae37ef11b136ea224fe,,,,,,,,,2893,-66.66660889,24.66665667,1,0,0,response7disk,,1,-8.666607161,9.333322883,1,0,0,rectangle,-43.99998224,-66.66667938,1,0,0,-11.99998128,1.333322644,1,0,0,0,10,10,153,1,,response5disk_3,TRUE,3,3,"[11,140,19,176,105,122,285,156,29,295,5,269,40,207,101,233,206,131,303,158]",2.2131,rectangle
,,,,,,,,,,,,,FF,,,,,,,,1.2179,,,,,,,,,,,,,,,,,,,,,,60fe5dcd522e58dce4ea67ac,61036dd58f446aaf42f4385d,2021-07-30_13h13.08.458,Simcolourproject_2stim_asymm_v5,2020.2.10,Win32,60,61025ae37ef11b136ea224fe,,,,,,,,,411,28.66668659,-61.33334589,1,0,0,response3disk,,4,3.333393196,-1.333344102,1,0,0,rectangle,3.333393196,-1.333344102,1,0,0,3.333393196,-1.333344102,1,0,0,0,11,11,1,1,,,,,,,,
,,,,,,,,,,,,,FF,,,,,,,,1.1982,,,,,,,,,,,,,,,,,,,,,,60fe5dcd522e58dce4ea67ac,61036dd58f446aaf42f4385d,2021-07-30_13h13.08.458,Simcolourproject_2stim_asymm_v5,2020.2.10,Win32,60,61025ae37ef11b136ea224fe,,,,,,,,,483,-41.99998218,-62.00001258,1,0,0,response5disk,,3,-1.3333143,-1.333344102,1,0,0,rectangle,-1.3333143,-1.333344102,1,0,0,-1.3333143,-1.333344102,1,0,0,0,12,12,125,1,,,,,,,,
,,,,,,,,,,,,,FF,,,,,,,,3.6317,,,,,,,,,,,,,,,,,,,,,,60fe5dcd522e58dce4ea67ac,61036dd58f446aaf42f4385d,2021-07-30_13h13.08.458,Simcolourproject_2stim_asymm_v5,2020.2.10,Win32,60,61025ae37ef11b136ea224fe,,,,,,,,,453,57.33335412,36.66665703,1,0,0,response1disk,,6,6.666685939,2.666656017,1,0,0,rectangle,6.666685939,2.666656017,1,0,0,6.666685939,2.666656017,1,0,0,0,13,13,31,1,,,,,,,,
,,,,,,,,,,,,,FF,,,,,,,,1.2483,,,,,,,,,,,,,,,,,,,,,,60fe5dcd522e58dce4ea67ac,61036dd58f446aaf42f4385d,2021-07-30_13h13.08.458,Simcolourproject_2stim_asymm_v5,2020.2.10,Win32,60,61025ae37ef11b136ea224fe,,,,,,,,,1830,-59.99998271,-38.66667855,1,0,0,response5disk,,2,-10.66660722,-1.07288E-05,1,0,0,rectangle,-10.66660722,-1.07288E-05,1,0,0,-10.66660722,-1.07288E-05,1,0,0,0,14,14,48,1,,,,,,,,
,,,,,,,,,,,,,FF,,,,,,,,1.1156,,,,,,,,,,,,,,,,,,,,,,60fe5dcd522e58dce4ea67ac,61036dd58f446aaf42f4385d,2021-07-30_13h13.08.458,Simcolourproject_2stim_asymm_v5,2020.2.10,Win32,60,61025ae37ef11b136ea224fe,,,,,,,,,2671,-53.99998254,-29.33334494,1,0,0,response5disk,,2,4.666685879,-3.333344162,1,0,0,rectangle,4.666685879,-3.333344162,1,0,0,4.666685879,-3.333344162,1,0,0,0,15,15,59,1,,,,,,,,
,,,,,,,,,,,,,FF,,,,,,,,1.9807,,,,,,,,,,,,,,,,,,,,,,60fe5dcd522e58dce4ea67ac,61036dd58f446aaf42f4385d,2021-07-30_13h13.08.458,Simcolourproject_2stim_asymm_v5,2020.2.10,Win32,60,61025ae37ef11b136ea224fe,,,,,,,,,1248,31.33339403,-59.33334583,1,0,0,response3disk,,4,10.66668606,-3.333344162,1,0,0,rectangle,10.66668606,-3.333344162,1,0,0,10.66668606,-3.333344162,1,0,0,0,16,16,65,1,,,,,,,,
,,,,,,,,,,,,,FF,,,,,,,,1.5486,,,,,,,,,,,,,,,,,,,,,,60fe5dcd522e58dce4ea67ac,61036dd58f446aaf42f4385d,2021-07-30_13h13.08.458,Simcolourproject_2stim_asymm_v5,2020.2.10,Win32,60,61025ae37ef11b136ea224fe,,,,,,,,,9,-41.99998218,-47.33334547,1,0,0,response5disk,,3,-3.999981046,0.666655958,1,0,0,rectangle,-3.999981046,0.666655958,1,0,0,-3.999981046,0.666655958,1,0,0,0,17,17,107,1,,,,,,,,
,,,,,,,,,,,,,FF,,,,,,,,1.5642,,,,,,,,,,,,,,,,,,,,,,60fe5dcd522e58dce4ea67ac,61036dd58f446aaf42f4385d,2021-07-30_13h13.08.458,Simcolourproject_2stim_asymm_v5,2020.2.10,Win32,60,61025ae37ef11b136ea224fe,,,,,,,,,242,89.33335507,23.33330295,1,0,0,response1disk,,6,26.00001985,3.333322704,1,0,0,rectangle,-74.66660913,-42.66667867,1,0,0,-3.333314359,-8.000010967,1,0,0,0,18,18,139,1,,response5disk_3,TRUE,2,2,"[11,140,19,176,105,122,285,156,29,295,5,269,40,207,101,233,206,131,303,158]",1.9642,rectangle
,,,,,,,,,,,,,FF,,,,,,,,2.7134,,,,,,,,,,,,,,,,,,,,,,60fe5dcd522e58dce4ea67ac,61036dd58f446aaf42f4385d,2021-07-30_13h13.08.458,Simcolourproject_2stim_asymm_v5,2020.2.10,Win32,60,61025ae37ef11b136ea224fe,,,,,,,,,3421,65.33335435,-46.0000121,1,0,0,response3disk,,5,12.00001943,-2.666677475,1,0,0,rectangle,12.00001943,-2.666677475,1,0,0,12.00001943,-2.666677475,1,0,0,0,19,19,83,1,,,,,,,,
,,,,,,,,,,,,,FF,,,,,,,,1.2651,,,,,,,,,,,,,,,,,,,,,,60fe5dcd522e58dce4ea67ac,61036dd58f446aaf42f4385d,2021-07-30_13h13.08.458,Simcolourproject_2stim_asymm_v5,2020.2.10,Win32,60,61025ae37ef11b136ea224fe,,,,,,,,,1594,76.00002134,33.99999028,1,0,0,response1disk,,6,9.333393375,-3.333344162,1,0,0,rectangle,9.333393375,-3.333344162,1,0,0,9.333393375,-3.333344162,1,0,0,0,20,20,56,1,,,,,,,,
,,,,,,,,,,,,,FF,,,,,,,,1.6154,,,,,,,,,,,,,,,,,,,,,,60fe5dcd522e58dce4ea67ac,61036dd58f446aaf42f4385d,2021-07-30_13h13.08.458,Simcolourproject_2stim_asymm_v5,2020.2.10,Win32,60,61025ae37ef11b136ea224fe,,,,,,,,,4136,62.66668761,38.66665709,1,0,0,response1disk,,6,15.33339355,2.666656017,1,0,0,rectangle,15.33339355,2.666656017,1,0,0,15.33339355,2.666656017,1,0,0,0,21,21,11,1,,,,,,,,
,,,,,,,,,,,,,FF,,,,,,,,1.7643,,,,,,,,,,,,,,,,,,,,,,60fe5dcd522e58dce4ea67ac,61036dd58f446aaf42f4385d,2021-07-30_13h13.08.458,Simcolourproject_2stim_asymm_v5,2020.2.10,Win32,60,61025ae37ef11b136ea224fe,,,,,,,,,491,31.33339403,102.666659,1,0,0,response1disk,,7,-9.333314538,-5.333344221,1,0,0,rectangle,-9.333314538,-5.333344221,1,0,0,-9.333314538,-5.333344221,1,0,0,0,22,22,105,1,,,,,,,,
,,,,,,,,,,,,,FF,,,,,,,,1.3653,,,,,,,,,,,,,,,,,,,,,,60fe5dcd522e58dce4ea67ac,61036dd58f446aaf42f4385d,2021-07-30_13h13.08.458,Simcolourproject_2stim_asymm_v5,2020.2.10,Win32,60,61025ae37ef11b136ea224fe,,,,,,,,,626,82.00002152,52.66665751,1,0,0,response1disk,,6,3.333393196,7.333322823,1,0,0,rectangle,3.333393196,7.333322823,1,0,0,3.333393196,7.333322823,1,0,0,0,23,23,50,1,,,,,,,,
,,,,,,,,,,,,,FF,,,,,,,,1.7479,,,,,,,,,,,,,,,,,,,,,,60fe5dcd522e58dce4ea67ac,61036dd58f446aaf42f4385d,2021-07-30_13h13.08.458,Simcolourproject_2stim_asymm_v5,2020.2.10,Win32,60,61025ae37ef11b136ea224fe,,,,,,,,,1253,59.33335418,-35.33334512,1,0,0,response3disk,,5,-7.333314478,7.99998951,1,0,0,rectangle,-7.333314478,7.99998951,1,0,0,-7.333314478,7.99998951,1,0,0,0,24,24,79,1,,,,,,,,
,,,,,,,,,,,,,FF,,,,,,,,2.0816,,,,,,,,,,,,,,,,,,,,,,60fe5dcd522e58dce4ea67ac,61036dd58f446aaf42f4385d,2021-07-30_13h13.08.458,Simcolourproject_2stim_asymm_v5,2020.2.10,Win32,60,61025ae37ef11b136ea224fe,,,,,,,,,3859,43.3333537,-69.33334613,1,0,0,response3disk,,4,7.333393315,5.333322763,1,0,0,rectangle,7.333393315,5.333322763,1,0,0,7.333393315,5.333322763,1,0,0,0,25,25,25,1,,,,,,,,
,,,,,,,,,,,,,FF,,,,,,,,1.2318,,,,,,,,,,,,,,,,,,,,,,60fe5dcd522e58dce4ea67ac,61036dd58f446aaf42f4385d,2021-07-30_13h13.08.458,Simcolourproject_2stim_asymm_v5,2020.2.10,Win32,60,61025ae37ef11b136ea224fe,,,,,,,,,403,69.33335447,-26.0000115,1,0,0,response3disk,,5,6.000019252,7.333322823,1,0,0,rectangle,6.000019252,7.333322823,1,0,0,6.000019252,7.333322823,1,0,0,0,26,26,159,1,,,,,,,,
,,,,,,,,,,,,,FF,,,,,,,,1.5981,,,,,,,,,,,,,,,,,,,,,,60fe5dcd522e58dce4ea67ac,61036dd58f446aaf42f4385d,2021-07-30_13h13.08.458,Simcolourproject_2stim_asymm_v5,2020.2.10,Win32,60,61025ae37ef11b136ea224fe,,,,,,,,,2087,34.00002009,-58.00001246,1,0,0,response3disk,,4,-6.666607102,1.333322644,1,0,0,rectangle,-6.666607102,1.333322644,1,0,0,-6.666607102,1.333322644,1,0,0,0,27,27,72,1,,,,,,,,
,,,,,,,,,,,,,FF,,,,,,,,9.3081,,,,,,,,,,,,,,,,,,,,,,60fe5dcd522e58dce4ea67ac,61036dd58f446aaf42f4385d,2021-07-30_13h13.08.458,Simcolourproject_2stim_asymm_v5,2020.2.10,Win32,60,61025ae37ef11b136ea224fe,,,,,,,,,1156,27.33339391,-46.66667879,1,0,0,response3disk,,4,12.66668612,-0.666677415,1,0,0,rectangle,63.33335429,32.66665691,1,0,0,4.000019193,-0.666677415,1,0,0,0,28,28,103,1,,response1disk_3,TRUE,6,6,"[11,140,19,176,105,122,285,156,29,295,5,269,40,207,101,233,206,131,303,158]",1.5151,rectangle
,,,,,,,,,,,,,FF,,,,,,,,1.7313,,,,,,,,,,,,,,,,,,,,,,60fe5dcd522e58dce4ea67ac,61036dd58f446aaf42f4385d,2021-07-30_13h13.08.458,Simcolourproject_2stim_asymm_v5,2020.2.10,Win32,60,61025ae37ef11b136ea224fe,,,,,,,,,1469,34.00002009,-52.66667897,1,0,0,response3disk,,4,17.33339361,1.999989331,1,0,0,rectangle,17.33339361,1.999989331,1,0,0,17.33339361,1.999989331,1,0,0,0,29,29,0,1,,,,,,,,
,,,,,,,,,,,,,FF,,,,,,,,1.8146,,,,,,,,,,,,,,,,,,,,,,60fe5dcd522e58dce4ea67ac,61036dd58f446aaf42f4385d,2021-07-30_13h13.08.458,Simcolourproject_2stim_asymm_v5,2020.2.10,Win32,60,61025ae37ef11b136ea224fe,,,,,,,,,2833,-74.66660913,-20.66667801,1,0,0,response5disk,,2,-7.999981165,-1.07288E-05,1,0,0,rectangle,-7.999981165,-1.07288E-05,1,0,0,-7.999981165,-1.07288E-05,1,0,0,0,30,30,134,1,,,,,,,,
,,,,,,,,,,,,,FF,,,,,,,,1.1826,,,,,,,,,,,,,,,,,,,,,,60fe5dcd522e58dce4ea67ac,61036dd58f446aaf42f4385d,2021-07-30_13h13.08.458,Simcolourproject_2stim_asymm_v5,2020.2.10,Win32,60,61025ae37ef11b136ea224fe,,,,,,,,,0,-35.33331531,75.99999154,1,0,0,response7disk,,0,-10.66660722,9.333322883,1,0,0,rectangle,-10.66660722,9.333322883,1,0,0,-10.66660722,9.333322883,1,0,0,0,31,31,42,1,,,,,,,,
,,,,,,,,,,,,,FF,,,,,,,,1.4477,,,,,,,,,,,,,,,,,,,,,,60fe5dcd522e58dce4ea67ac,61036dd58f446aaf42f4385d,2021-07-30_13h13.08.458,Simcolourproject_2stim_asymm_v5,2020.2.10,Win32,60,61025ae37ef11b136ea224fe,,,,,,,,,2197,50.66668725,91.33330498,1,0,0,response1disk,,7,2.000019133,5.99998945,1,0,0,rectangle,2.000019133,5.99998945,1,0,0,2.000019133,5.99998945,1,0,0,0,32,32,145,1,,,,,,,,
,,,,,,,,,,,,,FF,,,,,,,,1.5645,,,,,,,,,,,,,,,,,,,,,,60fe5dcd522e58dce4ea67ac,61036dd58f446aaf42f4385d,2021-07-30_13h13.08.458,Simcolourproject_2stim_asymm_v5,2020.2.10,Win32,60,61025ae37ef11b136ea224fe,,,,,,,,,746,-35.33331531,-48.66667885,1,0,0,response5disk,,3,-1.3333143,-1.333344102,1,0,0,rectangle,-1.3333143,-1.333344102,1,0,0,-1.3333143,-1.333344102,1,0,0,0,33,33,63,1,,,,,,,,
,,,,,,,,,,,,,FF,,,,,,,,1.7478,,,,,,,,,,,,,,,,,,,,,,60fe5dcd522e58dce4ea67ac,61036dd58f446aaf42f4385d,2021-07-30_13h13.08.458,Simcolourproject_2stim_asymm_v5,2020.2.10,Win32,60,61025ae37ef11b136ea224fe,,,,,,,,,458,-27.33331507,-66.0000127,1,0,0,response5disk,,3,6.666685939,-4.666677535,1,0,0,rectangle,6.666685939,-4.666677535,1,0,0,6.666685939,-4.666677535,1,0,0,0,34,34,149,1,,,,,,,,
,,,,,,,,,,,,,FF,,,,,,,,1.8818,,,,,,,,,,,,,,,,,,,,,,60fe5dcd522e58dce4ea67ac,61036dd58f446aaf42f4385d,2021-07-30_13h13.08.458,Simcolourproject_2stim_asymm_v5,2020.2.10,Win32,60,61025ae37ef11b136ea224fe,,,,,,,,,2629,77.33335471,46.66665733,1,0,0,response1disk,,6,21.33339373,-2.000010788,1,0,0,rectangle,21.33339373,-2.000010788,1,0,0,21.33339373,-2.000010788,1,0,0,0,35,35,100,1,,,,,,,,
,,,,,,,,,,,,,FF,,,,,,,,1.2815,,,,,,,,,,,,,,,,,,,,,,60fe5dcd522e58dce4ea67ac,61036dd58f446aaf42f4385d,2021-07-30_13h13.08.458,Simcolourproject_2stim_asymm_v5,2020.2.10,Win32,60,61025ae37ef11b136ea224fe,,,,,,,,,2102,-25.9999817,-52.66667897,1,0,0,response5disk,,3,0.66668576,4.666656077,1,0,0,rectangle,0.66668576,4.666656077,1,0,0,0.66668576,4.666656077,1,0,0,0,36,36,90,1,,,,,,,,
,,,,,,,,,,,,,FF,,,,,,,,2.2975,,,,,,,,,,,,,,,,,,,,,,60fe5dcd522e58dce4ea67ac,61036dd58f446aaf42f4385d,2021-07-30_13h13.08.458,Simcolourproject_2stim_asymm_v5,2020.2.10,Win32,60,61025ae37ef11b136ea224fe,,,,,,,,,4310,34.66668677,-54.66667902,1,0,0,response3disk,,4,17.33339361,-1.07288E-05,1,0,0,rectangle,17.33339361,-1.07288E-05,1,0,0,17.33339361,-1.07288E-05,1,0,0,0,37,37,38,1,,,,,,,,
,,,,,,,,,,,,,FF,,,,,,,,1.7981,,,,,,,,,,,,,,,,,,,,,,60fe5dcd522e58dce4ea67ac,61036dd58f446aaf42f4385d,2021-07-30_13h13.08.458,Simcolourproject_2stim_asymm_v5,2020.2.10,Win32,60,61025ae37ef11b136ea224fe,,,,,,,,,2212,71.33335453,-23.33334476,1,0,0,response3disk,,5,24.00001979,-1.07288E-05,1,0,0,rectangle,24.00001979,-1.07288E-05,1,0,0,24.00001979,-1.07288E-05,1,0,0,0,38,38,120,1,,,,,,,,
,,,,,,,,,,,,,FF,,,,,,,,1.2983,,,,,,,,,,,,,,,,,,,,,,60fe5dcd522e58dce4ea67ac,61036dd58f446aaf42f4385d,2021-07-30_13h13.08.458,Simcolourproject_2stim_asymm_v5,2020.2.10,Win32,60,61025ae37ef11b136ea224fe,,,,,,,,,717,-65.99998289,23.99998999,1,0,0,response7disk,,1,2.000019133,8.666656196,1,0,0,rectangle,-67.33331627,-34.00001174,1,0,0,-13.99998134,-1.07288E-05,1,0,0,0,39,39,9,1,,response5disk_3,TRUE,2,2,"[11,140,19,176,105,122,285,156,29,295,5,269,40,207,101,233,206,131,303,158]",1.8318,rectangle
,,,,,,,,,,,,,FF,,,,,,,,2.3472,,,,,,,,,,,,,,,,,,,,,,60fe5dcd522e58dce4ea67ac,61036dd58f446aaf42f4385d,2021-07-30_13h13.08.458,Simcolourproject_2stim_asymm_v5,2020.2.10,Win32,60,61025ae37ef11b136ea224fe,,,,,,,,,1012,52.66668731,26.66665673,1,0,0,response1disk,,6,11.33339343,0.666655958,1,0,0,rectangle,11.33339343,0.666655958,1,0,0,11.33339343,0.666655958,1,0,0,0,40,40,129,1,,,,,,,,
,,,,,,,,,,,,,FF,,,,,,,,2.197,,,,,,,,,,,,,,,,,,,,,,60fe5dcd522e58dce4ea67ac,61036dd58f446aaf42f4385d,2021-07-30_13h13.08.458,Simcolourproject_2stim_asymm_v5,2020.2.10,Win32,60,61025ae37ef11b136ea224fe,,,,,,,,,970,24.00001979,-48.66667885,1,0,0,response3disk,,4,1.333393137,5.333322763,1,0,0,rectangle,1.333393137,5.333322763,1,0,0,1.333393137,5.333322763,1,0,0,0,41,41,115,1,,,,,,,,
,,,,,,,,,,,,,FF,,,,,,,,1.8316,,,,,,,,,,,,,,,,,,,,,,60fe5dcd522e58dce4ea67ac,61036dd58f446aaf42f4385d,2021-07-30_13h13.08.458,Simcolourproject_2stim_asymm_v5,2020.2.10,Win32,60,61025ae37ef11b136ea224fe,,,,,,,,,1816,-42.66660817,84.66665846,1,0,0,response7disk,,0,-18.66660746,7.99998951,1,0,0,rectangle,-18.66660746,7.99998951,1,0,0,-18.66660746,7.99998951,1,0,0,0,42,42,86,1,,,,,,,,
,,,,,,,,,,,,,FF,,,,,,,,1.4647,,,,,,,,,,,,,,,,,,,,,,60fe5dcd522e58dce4ea67ac,61036dd58f446aaf42f4385d,2021-07-30_13h13.08.458,Simcolourproject_2stim_asymm_v5,2020.2.10,Win32,60,61025ae37ef11b136ea224fe,,,,,,,,,4091,-33.33331525,-43.33334535,1,0,0,response5disk,,3,7.333393315,1.999989331,1,0,0,rectangle,7.333393315,1.999989331,1,0,0,7.333393315,1.999989331,1,0,0,0,43,43,61,1,,,,,,,,
,,,,,,,,,,,,,FF,,,,,,,,3.3261,,,,,,,,,,,,,,,,,,,,,,60fe5dcd522e58dce4ea67ac,61036dd58f446aaf42f4385d,2021-07-30_13h13.08.458,Simcolourproject_2stim_asymm_v5,2020.2.10,Win32,60,61025ae37ef11b136ea224fe,,,,,,,,,2251,-20.66660752,-46.0000121,1,0,0,response5disk,,3,10.66668606,7.333322823,1,0,0,rectangle,10.66668606,7.333322823,1,0,0,10.66668606,7.333322823,1,0,0,0,44,44,101,1,,,,,,,,
,,,,,,,,,,,,,FF,,,,,,,,1.298,,,,,,,,,,,,,,,,,,,,,,60fe5dcd522e58dce4ea67ac,61036dd58f446aaf42f4385d,2021-07-30_13h13.08.458,Simcolourproject_2stim_asymm_v5,2020.2.10,Win32,60,61025ae37ef11b136ea224fe,,,,,,,,,1158,-40.66660812,-53.33334565,1,0,0,response5disk,,3,-9.999981225,-4.666677535,1,0,0,rectangle,-9.999981225,-4.666677535,1,0,0,-9.999981225,-4.666677535,1,0,0,0,45,45,114,1,,,,,,,,
,,,,,,,,,,,,,FF,,,,,,,,5.2116,,,,,,,,,,,,,,,,,,,,,,60fe5dcd522e58dce4ea67ac,61036dd58f446aaf42f4385d,2021-07-30_13h13.08.458,Simcolourproject_2stim_asymm_v5,2020.2.10,Win32,60,61025ae37ef11b136ea224fe,,,,,,,,,540,72.66668791,-36.66667849,1,0,0,response3disk,,5,2.66668582,7.333322823,1,0,0,rectangle,2.66668582,7.333322823,1,0,0,2.66668582,7.333322823,1,0,0,0,46,46,4,1,,,,,,,,
,,,,,,,,,,,,,FF,,,,,,,,1.432,,,,,,,,,,,,,,,,,,,,,,60fe5dcd522e58dce4ea67ac,61036dd58f446aaf42f4385d,2021-07-30_13h13.08.458,Simcolourproject_2stim_asymm_v5,2020.2.10,Win32,60,61025ae37ef11b136ea224fe,,,,,,,,,144,76.00002134,26.66665673,1,0,0,response1disk,,6,9.333393375,-0.666677415,1,0,0,rectangle,9.333393375,-0.666677415,1,0,0,9.333393375,-0.666677415,1,0,0,0,47,47,132,1,,,,,,,,
,,,,,,,,,,,,,FF,,,,,,,,1.1149,,,,,,,,,,,,,,,,,,,,,,60fe5dcd522e58dce4ea67ac,61036dd58f446aaf42f4385d,2021-07-30_13h13.08.458,Simcolourproject_2stim_asymm_v5,2020.2.10,Win32,60,61025ae37ef11b136ea224fe,,,,,,,,,281,-71.33331639,-27.33334488,1,0,0,response5disk,,2,-27.33331507,-2.000010788,1,0,0,rectangle,-27.33331507,-2.000010788,1,0,0,-27.33331507,-2.000010788,1,0,0,0,48,48,18,1,,,,,,,,
,,,,,,,,,,,,,FF,,,,,,,,1.4144,,,,,,,,,,,,,,,,,,,,,,60fe5dcd522e58dce4ea67ac,61036dd58f446aaf42f4385d,2021-07-30_13h13.08.458,Simcolourproject_2stim_asymm_v5,2020.2.10,Win32,60,61025ae37ef11b136ea224fe,,,,,,,,,475,-67.33331627,32.66665691,1,0,0,response7disk,,1,-5.333314419,7.99998951,1,0,0,rectangle,-5.333314419,7.99998951,1,0,0,-5.333314419,7.99998951,1,0,0,0,49,49,80,1,,,,,,,,
,,,,,,,,,,,,,FF,,,,,,,,1.1819,,,,,,,,,,,,,,,,,,,,,,60fe5dcd522e58dce4ea67ac,61036dd58f446aaf42f4385d,2021-07-30_13h13.08.458,Simcolourproject_2stim_asymm_v5,2020.2.10,Win32,60,61025ae37ef11b136ea224fe,,,,,,,,,1438,18.6666863,-66.0000127,1,0,0,response3disk,,4,6.000019252,-0.666677415,1,0,0,rectangle,6.000019252,-0.666677415,1,0,0,6.000019252,-0.666677415,1,0,0,0,50,50,5,1,,,,,,,,
,,,,,,,,,,,,,FF,,,,,,,,1.8641,,,,,,,,,,,,,,,,,,,,,,60fe5dcd522e58dce4ea67ac,61036dd58f446aaf42f4385d,2021-07-30_13h13.08.458,Simcolourproject_2stim_asymm_v5,2020.2.10,Win32,60,61025ae37ef11b136ea224fe,,,,,,,,,2220,-35.33331531,-61.33334589,1,0,0,response5disk,,3,-8.666607161,2.666656017,1,0,0,rectangle,-8.666607161,2.666656017,1,0,0,-8.666607161,2.666656017,1,0,0,0,51,51,78,1,,,,,,,,
,,,,,,,,,,,,,FF,,,,,,,,1.1814,,,,,,,,,,,,,,,,,,,,,,60fe5dcd522e58dce4ea67ac,61036dd58f446aaf42f4385d,2021-07-30_13h13.08.458,Simcolourproject_2stim_asymm_v5,2020.2.10,Win32,60,61025ae37ef11b136ea224fe,,,,,,,,,2458,50.00002056,88.66665858,1,0,0,response1disk,,7,5.333393256,4.666656077,1,0,0,rectangle,5.333393256,4.666656077,1,0,0,5.333393256,4.666656077,1,0,0,0,52,52,7,1,,,,,,,,
,,,,,,,,,,,,,FF,,,,,,,,1.5315,,,,,,,,,,,,,,,,,,,,,,60fe5dcd522e58dce4ea67ac,61036dd58f446aaf42f4385d,2021-07-30_13h13.08.458,Simcolourproject_2stim_asymm_v5,2020.2.10,Win32,60,61025ae37ef11b136ea224fe,,,,,,,,,3152,-67.33331627,-32.66667837,1,0,0,response5disk,,2,-18.66660746,6.666656137,1,0,0,rectangle,-18.66660746,6.666656137,1,0,0,-18.66660746,6.666656137,1,0,0,0,53,53,146,1,,,,,,,,
,,,,,,,,,,,,,FF,,,,,,,,1.5814,,,,,,,,,,,,,,,,,,,,,,60fe5dcd522e58dce4ea67ac,61036dd58f446aaf42f4385d,2021-07-30_13h13.08.458,Simcolourproject_2stim_asymm_v5,2020.2.10,Win32,60,61025ae37ef11b136ea224fe,,,,,,,,,3418,-21.99998158,-59.33334583,1,0,0,response5disk,,3,10.00001937,7.333322823,1,0,0,rectangle,10.00001937,7.333322823,1,0,0,10.00001937,7.333322823,1,0,0,0,54,54,32,1,,,,,,,,
,,,,,,,,,,,,,FF,,,,,,,,1.0647,,,,,,,,,,,,,,,,,,,,,,60fe5dcd522e58dce4ea67ac,61036dd58f446aaf42f4385d,2021-07-30_13h13.08.458,Simcolourproject_2stim_asymm_v5,2020.2.10,Win32,60,61025ae37ef11b136ea224fe,,,,,,,,,2022,25.33339385,-70.6666795,1,0,0,response3disk,,4,8.666685998,-4.000010848,1,0,0,rectangle,8.666685998,-4.000010848,1,0,0,8.666685998,-4.000010848,1,0,0,0,55,55,97,1,,,,,,,,
,,,,,,,,,,,,,FF,,,,,,,,1.6483,,,,,,,,,,,,,,,,,,,,,,60fe5dcd522e58dce4ea67ac,61036dd58f446aaf42f4385d,2021-07-30_13h13.08.458,Simcolourproject_2stim_asymm_v5,2020.2.10,Win32,60,61025ae37ef11b136ea224fe,,,,,,,,,4035,-62.66660877,-29.33334494,1,0,0,response5disk,,2,-17.33331478,-0.666677415,1,0,0,rectangle,-17.33331478,-0.666677415,1,0,0,-17.33331478,-0.666677415,1,0,0,0,56,56,69,1,,,,,,,,
,,,,,,,,,,,,,FF,,,,,,,,1.898,,,,,,,,,,,,,,,,,,,,,,60fe5dcd522e58dce4ea67ac,61036dd58f446aaf42f4385d,2021-07-30_13h13.08.458,Simcolourproject_2stim_asymm_v5,2020.2.10,Win32,60,61025ae37ef11b136ea224fe,,,,,,,,,2492,-27.33331507,-47.33334547,1,0,0,response5disk,,3,5.333393256,0.666655958,1,0,0,rectangle,5.333393256,0.666655958,1,0,0,5.333393256,0.666655958,1,0,0,0,57,57,44,1,,,,,,,,
,,,,,,,,,,,,,FF,,,,,,,,2.415,,,,,,,,,,,,,,,,,,,,,,60fe5dcd522e58dce4ea67ac,61036dd58f446aaf42f4385d,2021-07-30_13h13.08.458,Simcolourproject_2stim_asymm_v5,2020.2.10,Win32,60,61025ae37ef11b136ea224fe,,,,,,,,,3215,50.66668725,33.99999028,1,0,0,response1disk,,6,15.33339355,4.666656077,1,0,0,rectangle,15.33339355,4.666656077,1,0,0,15.33339355,4.666656077,1,0,0,0,58,58,37,1,,,,,,,,
,,,,,,,,,,,,,FF,,,,,,,,1.4816,,,,,,,,,,,,,,,,,,,,,,60fe5dcd522e58dce4ea67ac,61036dd58f446aaf42f4385d,2021-07-30_13h13.08.458,Simcolourproject_2stim_asymm_v5,2020.2.10,Win32,60,61025ae37ef11b136ea224fe,,,,,,,,,367,-68.66660895,16.66665643,1,0,0,response7disk,,1,1.333393137,3.333322704,1,0,0,rectangle,1.333393137,3.333322704,1,0,0,1.333393137,3.333322704,1,0,0,0,59,59,104,1,,,,,,,,
,,,,,,,,,,,,,FF,,,,,,,,1.8479,,,,,,,,,,,,,,,,,,,,,,60fe5dcd522e58dce4ea67ac,61036dd58f446aaf42f4385d,2021-07-30_13h13.08.458,Simcolourproject_2stim_asymm_v5,2020.2.10,Win32,60,61025ae37ef11b136ea224fe,,,,,,,,,3826,14.00001949,-42.00001198,1,0,0,response3disk,,4,-1.3333143,-1.07288E-05,1,0,0,rectangle,-1.3333143,-1.07288E-05,1,0,0,-1.3333143,-1.07288E-05,1,0,0,0,60,60,112,1,,,,,,,,
,,,,,,,,,,,,,FF,,,,,,,,3.6295,,,,,,,,,,,,,,,,,,,,,,60fe5dcd522e58dce4ea67ac,61036dd58f446aaf42f4385d,2021-07-30_13h13.08.458,Simcolourproject_2stim_asymm_v5,2020.2.10,Win32,60,61025ae37ef11b136ea224fe,,,,,,,,,880,60.66668755,-22.00001138,1,0,0,response3disk,,5,-9.333314538,3.333322704,1,0,0,rectangle,-9.333314538,3.333322704,1,0,0,-9.333314538,3.333322704,1,0,0,0,61,61,119,1,,,,,,,,
,,,,,,,,,,,,,FF,,,,,,,,1.6978,,,,,,,,,,,,,,,,,,,,,,60fe5dcd522e58dce4ea67ac,61036dd58f446aaf42f4385d,2021-07-30_13h13.08.458,Simcolourproject_2stim_asymm_v5,2020.2.10,Win32,60,61025ae37ef11b136ea224fe,,,,,,,,,1032,17.33339361,-52.00001228,1,0,0,response3disk,,4,1.333393137,-6.666677594,1,0,0,rectangle,1.333393137,-6.666677594,1,0,0,1.333393137,-6.666677594,1,0,0,0,62,62,64,1,,,,,,,,
,,,,,,,,,,,,,FF,,,,,,,,1.4979,,,,,,,,,,,,,,,,,,,,,,60fe5dcd522e58dce4ea67ac,61036dd58f446aaf42f4385d,2021-07-30_13h13.08.458,Simcolourproject_2stim_asymm_v5,2020.2.10,Win32,60,61025ae37ef11b136ea224fe,,,,,,,,,113,81.33335483,39.33330343,1,0,0,response1disk,,6,16.00001955,5.99998945,1,0,0,rectangle,16.00001955,5.99998945,1,0,0,16.00001955,5.99998945,1,0,0,0,63,63,124,1,,,,,,,,
,,,,,,,,,,,,,FF,,,,,,,,1.9973,,,,,,,,,,,,,,,,,,,,,,60fe5dcd522e58dce4ea67ac,61036dd58f446aaf42f4385d,2021-07-30_13h13.08.458,Simcolourproject_2stim_asymm_v5,2020.2.10,Win32,60,61025ae37ef11b136ea224fe,,,,,,,,,4247,56.66668743,-38.00001186,1,0,0,response3disk,,5,-0.666606923,5.333322763,1,0,0,rectangle,-0.666606923,5.333322763,1,0,0,-0.666606923,5.333322763,1,0,0,0,64,64,126,1,,,,,,,,
,,,,,,,,,,,,,FF,,,,,,,,2.0313,,,,,,,,,,,,,,,,,,,,,,60fe5dcd522e58dce4ea67ac,61036dd58f446aaf42f4385d,2021-07-30_13h13.08.458,Simcolourproject_2stim_asymm_v5,2020.2.10,Win32,60,61025ae37ef11b136ea224fe,,,,,,,,,3233,55.33335406,75.3333045,1,0,0,response1disk,,7,8.666685998,-4.000010848,1,0,0,rectangle,8.666685998,-4.000010848,1,0,0,8.666685998,-4.000010848,1,0,0,0,65,65,92,1,,,,,,,,
,,,,,,,,,,,,,FF,,,,,,,,1.1487,,,,,,,,,,,,,,,,,,,,,,60fe5dcd522e58dce4ea67ac,61036dd58f446aaf42f4385d,2021-07-30_13h13.08.458,Simcolourproject_2stim_asymm_v5,2020.2.10,Win32,60,61025ae37ef11b136ea224fe,,,,,,,,,1745,-40.66660812,63.99999118,1,0,0,response7disk,,0,-17.99998146,-0.666677415,1,0,0,rectangle,-17.99998146,-0.666677415,1,0,0,-17.99998146,-0.666677415,1,0,0,0,66,66,58,1,,,,,,,,
,,,,,,,,,,,,,FF,,,,,,,,1.4478,,,,,,,,,,,,,,,,,,,,,,60fe5dcd522e58dce4ea67ac,61036dd58f446aaf42f4385d,2021-07-30_13h13.08.458,Simcolourproject_2stim_asymm_v5,2020.2.10,Win32,60,61025ae37ef11b136ea224fe,,,,,,,,,3409,-35.33331531,-70.6666795,1,0,0,response5disk,,3,-1.3333143,-8.000010967,1,0,0,rectangle,-1.3333143,-8.000010967,1,0,0,-1.3333143,-8.000010967,1,0,0,0,67,67,52,1,,,,,,,,
,,,,,,,,,,,,,FF,,,,,,,,1.0649,,,,,,,,,,,,,,,,,,,,,,60fe5dcd522e58dce4ea67ac,61036dd58f446aaf42f4385d,2021-07-30_13h13.08.458,Simcolourproject_2stim_asymm_v5,2020.2.10,Win32,60,61025ae37ef11b136ea224fe,,,,,,,,,2860,82.6666882,40.66665715,1,0,0,response1disk,,6,23.33339379,6.666656137,1,0,0,rectangle,23.33339379,6.666656137,1,0,0,23.33339379,6.666656137,1,0,0,0,68,68,157,1,,,,,,,,
,,,,,,,,,,,,,FF,,,,,,,,1.6313,,,,,,,,,,,,,,,,,,,,,,60fe5dcd522e58dce4ea67ac,61036dd58f446aaf42f4385d,2021-07-30_13h13.08.458,Simcolourproject_2stim_asymm_v5,2020.2.10,Win32,60,61025ae37ef11b136ea224fe,,,,,,,,,3660,-81.33331668,-36.66667849,1,0,0,response5disk,,2,-10.66660722,4.666656077,1,0,0,rectangle,-10.66660722,4.666656077,1,0,0,-10.66660722,4.666656077,1,0,0,0,69,69,141,1,,,,,,,,
,,,,,,,,,,,,,FF,,,,,,,,0.8982,,,,,,,,,,,,,,,,,,,,,,60fe5dcd522e58dce4ea67ac,61036dd58f446aaf42f4385d,2021-07-30_13h13.08.458,Simcolourproject_2stim_asymm_v5,2020.2.10,Win32,60,61025ae37ef11b136ea224fe,,,,,,,,,4119,-53.33331585,23.33330295,1,0,0,response7disk,,1,-9.999981225,-2.666677475,1,0,0,rectangle,-9.999981225,-2.666677475,1,0,0,-9.999981225,-2.666677475,1,0,0,0,70,70,135,1,,,,,,,,
,,,,,,,,,,,,,FF,,,,,,,,1.3815,,,,,,,,,,,,,,,,,,,,,,60fe5dcd522e58dce4ea67ac,61036dd58f446aaf42f4385d,2021-07-30_13h13.08.458,Simcolourproject_2stim_asymm_v5,2020.2.10,Win32,60,61025ae37ef11b136ea224fe,,,,,,,,,1040,-17.33331478,-51.33334559,1,0,0,response5disk,,3,11.33339343,3.333322704,1,0,0,rectangle,11.33339343,3.333322704,1,0,0,11.33339343,3.333322704,1,0,0,0,71,71,87,1,,,,,,,,
,,,,,,,,,,,,,FF,,,,,,,,1.7311,,,,,,,,,,,,,,,,,,,,,,60fe5dcd522e58dce4ea67ac,61036dd58f446aaf42f4385d,2021-07-30_13h13.08.458,Simcolourproject_2stim_asymm_v5,2020.2.10,Win32,60,61025ae37ef11b136ea224fe,,,,,,,,,3197,-73.33331645,32.66665691,1,0,0,response7disk,,1,17.33339361,3.99998939,1,0,0,rectangle,17.33339361,3.99998939,1,0,0,17.33339361,3.99998939,1,0,0,0,72,72,49,1,,,,,,,,
,,,,,,,,,,,,,FF,,,,,,,,1.0653,,,,,,,,,,,,,,,,,,,,,,60fe5dcd522e58dce4ea67ac,61036dd58f446aaf42f4385d,2021-07-30_13h13.08.458,Simcolourproject_2stim_asymm_v5,2020.2.10,Win32,60,61025ae37ef11b136ea224fe,,,,,,,,,808,-63.33331615,18.66665649,1,0,0,response7disk,,1,-21.99998158,3.99998939,1,0,0,rectangle,-21.99998158,3.99998939,1,0,0,-21.99998158,3.99998939,1,0,0,0,73,73,55,1,,,,,,,,
,,,,,,,,,,,,,FF,,,,,,,,0.9318,,,,,,,,,,,,,,,,,,,,,,60fe5dcd522e58dce4ea67ac,61036dd58f446aaf42f4385d,2021-07-30_13h13.08.458,Simcolourproject_2stim_asymm_v5,2020.2.10,Win32,60,61025ae37ef11b136ea224fe,,,,,,,,,3662,-71.33331639,25.99999005,1,0,0,response7disk,,1,-25.9999817,4.666656077,1,0,0,rectangle,-25.9999817,4.666656077,1,0,0,-25.9999817,4.666656077,1,0,0,0,74,74,110,1,,,,,,,,
,,,,,,,,,,,,,FF,,,,,,,,1.3156,,,,,,,,,,,,,,,,,,,,,,60fe5dcd522e58dce4ea67ac,61036dd58f446aaf42f4385d,2021-07-30_13h13.08.458,Simcolourproject_2stim_asymm_v5,2020.2.10,Win32,60,61025ae37ef11b136ea224fe,,,,,,,,,1739,38.00002021,-57.33334577,1,0,0,response3disk,,4,1.333393137,-0.666677415,1,0,0,rectangle,1.333393137,-0.666677415,1,0,0,1.333393137,-0.666677415,1,0,0,0,75,75,102,1,,,,,,,,
,,,,,,,,,,,,,FF,,,,,,,,2.5802,,,,,,,,,,,,,,,,,,,,,,60fe5dcd522e58dce4ea67ac,61036dd58f446aaf42f4385d,2021-07-30_13h13.08.458,Simcolourproject_2stim_asymm_v5,2020.2.10,Win32,60,61025ae37ef11b136ea224fe,,,,,,,,,4064,48.66668719,31.99999022,1,0,0,response1disk,,6,-5.333314419,-5.333344221,1,0,0,rectangle,-5.333314419,-5.333344221,1,0,0,-5.333314419,-5.333344221,1,0,0,0,76,76,2,1,,,,,,,,
,,,,,,,,,,,,,FF,,,,,,,,1.2649,,,,,,,,,,,,,,,,,,,,,,60fe5dcd522e58dce4ea67ac,61036dd58f446aaf42f4385d,2021-07-30_13h13.08.458,Simcolourproject_2stim_asymm_v5,2020.2.10,Win32,60,61025ae37ef11b136ea224fe,,,,,,,,,2367,-21.99998158,-66.0000127,1,0,0,response5disk,,3,12.00001943,-0.666677415,1,0,0,rectangle,12.00001943,-0.666677415,1,0,0,12.00001943,-0.666677415,1,0,0,0,77,77,128,1,,,,,,,,
,,,,,,,,,,,,,FF,,,,,,,,1.598,,,,,,,,,,,,,,,,,,,,,,60fe5dcd522e58dce4ea67ac,61036dd58f446aaf42f4385d,2021-07-30_13h13.08.458,Simcolourproject_2stim_asymm_v5,2020.2.10,Win32,60,61025ae37ef11b136ea224fe,,,,,,,,,1113,25.33339385,-52.66667897,1,0,0,response3disk,,4,0.66668576,0.666655958,1,0,0,rectangle,0.66668576,0.666655958,1,0,0,0.66668576,0.666655958,1,0,0,0,78,78,85,1,,,,,,,,
,,,,,,,,,,,,,FF,,,,,,,,2.4138,,,,,,,,,,,,,,,,,,,,,,60fe5dcd522e58dce4ea67ac,61036dd58f446aaf42f4385d,2021-07-30_13h13.08.458,Simcolourproject_2stim_asymm_v5,2020.2.10,Win32,60,61025ae37ef11b136ea224fe,,,,,,,,,3349,66.00002104,-46.0000121,1,0,0,response3disk,,5,3.333393196,9.333322883,1,0,0,rectangle,3.333393196,9.333322883,1,0,0,3.333393196,9.333322883,1,0,0,0,79,79,156,1,,,,,,,,
,,,,,,,,,,,,,FF,,,,,,,,1.4311,,,,,,,,,,,,,,,,,,,,,,60fe5dcd522e58dce4ea67ac,61036dd58f446aaf42f4385d,2021-07-30_13h13.08.458,Simcolourproject_2stim_asymm_v5,2020.2.10,Win32,60,61025ae37ef11b136ea224fe,,,,,,,,,2832,-69.33331633,-23.33334476,1,0,0,response5disk,,2,-21.3333149,-2.666677475,1,0,0,rectangle,-21.3333149,-2.666677475,1,0,0,-21.3333149,-2.666677475,1,0,0,0,80,80,70,1,,,,,,,,
,,,,,,,,,,,,,FF,,,,,,,,1.082,,,,,,,,,,,,,,,,,,,,,,60fe5dcd522e58dce4ea67ac,61036dd58f446aaf42f4385d,2021-07-30_13h13.08.458,Simcolourproject_2stim_asymm_v5,2020.2.10,Win32,60,61025ae37ef11b136ea224fe,,,,,,,,,3449,46.00002044,-23.33334476,1,0,0,response3disk,,5,3.333393196,3.333322704,1,0,0,rectangle,3.333393196,3.333322704,1,0,0,3.333393196,3.333322704,1,0,0,0,81,81,93,1,,,,,,,,
,,,,,,,,,,,,,FF,,,,,,,,1.4481,,,,,,,,,,,,,,,,,,,,,,60fe5dcd522e58dce4ea67ac,61036dd58f446aaf42f4385d,2021-07-30_13h13.08.458,Simcolourproject_2stim_asymm_v5,2020.2.10,Win32,60,61025ae37ef11b136ea224fe,,,,,,,,,4007,-68.66660895,25.99999005,1,0,0,response7disk,,1,-17.99998146,7.99998951,1,0,0,rectangle,-17.99998146,7.99998951,1,0,0,-17.99998146,7.99998951,1,0,0,0,82,82,121,1,,,,,,,,
,,,,,,,,,,,,,FF,,,,,,,,2.9139,,,,,,,,,,,,,,,,,,,,,,60fe5dcd522e58dce4ea67ac,61036dd58f446aaf42f4385d,2021-07-30_13h13.08.458,Simcolourproject_2stim_asymm_v5,2020.2.10,Win32,60,61025ae37ef11b136ea224fe,,,,,,,,,2616,30.66668665,-47.33334547,1,0,0,response3disk,,4,20.66668636,-1.333344102,1,0,0,rectangle,20.66668636,-1.333344102,1,0,0,20.66668636,-1.333344102,1,0,0,0,83,83,19,1,,,,,,,,
,,,,,,,,,,,,,FF,,,,,,,,0.9647,,,,,,,,,,,,,,,,,,,,,,60fe5dcd522e58dce4ea67ac,61036dd58f446aaf42f4385d,2021-07-30_13h13.08.458,Simcolourproject_2stim_asymm_v5,2020.2.10,Win32,60,61025ae37ef11b136ea224fe,,,,,,,,,3388,-45.9999823,29.33330313,1,0,0,response7disk,,1,-7.333314478,3.99998939,1,0,0,rectangle,-7.333314478,3.99998939,1,0,0,-7.333314478,3.99998939,1,0,0,0,84,84,33,1,,,,,,,,
,,,,,,,,,,,,,FF,,,,,,,,1.3649,,,,,,,,,,,,,,,,,,,,,,60fe5dcd522e58dce4ea67ac,61036dd58f446aaf42f4385d,2021-07-30_13h13.08.458,Simcolourproject_2stim_asymm_v5,2020.2.10,Win32,60,61025ae37ef11b136ea224fe,,,,,,,,,3018,78.66668808,67.33330427,1,0,0,response1disk,,6,12.66668612,0.666655958,1,0,0,rectangle,12.66668612,0.666655958,1,0,0,12.66668612,0.666655958,1,0,0,0,85,85,118,1,,,,,,,,
,,,,,,,,,,,,,FF,,,,,,,,1.4987,,,,,,,,,,,,,,,,,,,,,,60fe5dcd522e58dce4ea67ac,61036dd58f446aaf42f4385d,2021-07-30_13h13.08.458,Simcolourproject_2stim_asymm_v5,2020.2.10,Win32,60,61025ae37ef11b136ea224fe,,,,,,,,,3878,45.33335376,-62.66667926,1,0,0,response3disk,,4,9.333393375,-2.666677475,1,0,0,rectangle,9.333393375,-2.666677475,1,0,0,9.333393375,-2.666677475,1,0,0,0,86,86,154,1,,,,,,,,
,,,,,,,,,,,,,FF,,,,,,,,1.9973,,,,,,,,,,,,,,,,,,,,,,60fe5dcd522e58dce4ea67ac,61036dd58f446aaf42f4385d,2021-07-30_13h13.08.458,Simcolourproject_2stim_asymm_v5,2020.2.10,Win32,60,61025ae37ef11b136ea224fe,,,,,,,,,1180,73.33335459,-20.00001132,1,0,0,response3disk,,5,6.666685939,-1.07288E-05,1,0,0,rectangle,6.666685939,-1.07288E-05,1,0,0,6.666685939,-1.07288E-05,1,0,0,0,87,87,113,1,,,,,,,,
,,,,,,,,,,,,,FF,,,,,,,,1.0811,,,,,,,,,,,,,,,,,,,,,,60fe5dcd522e58dce4ea67ac,61036dd58f446aaf42f4385d,2021-07-30_13h13.08.458,Simcolourproject_2stim_asymm_v5,2020.2.10,Win32,60,61025ae37ef11b136ea224fe,,,,,,,,,603,50.00002056,-73.33334625,1,0,0,response3disk,,4,5.333393256,5.333322763,1,0,0,rectangle,5.333393256,5.333322763,1,0,0,5.333393256,5.333322763,1,0,0,0,88,88,117,1,,,,,,,,
,,,,,,,,,,,,,FF,,,,,,,,3.7964,,,,,,,,,,,,,,,,,,,,,,60fe5dcd522e58dce4ea67ac,61036dd58f446aaf42f4385d,2021-07-30_13h13.08.458,Simcolourproject_2stim_asymm_v5,2020.2.10,Win32,60,61025ae37ef11b136ea224fe,,,,,,,,,561,-42.66660817,-60.6666792,1,0,0,response5disk,,3,-19.33331484,-2.666677475,1,0,0,rectangle,-19.33331484,-2.666677475,1,0,0,-19.33331484,-2.666677475,1,0,0,0,89,89,131,1,,,,,,,,
,,,,,,,,,,,,,FF,,,,,,,,1.2315,,,,,,,,,,,,,,,,,,,,,,60fe5dcd522e58dce4ea67ac,61036dd58f446aaf42f4385d,2021-07-30_13h13.08.458,Simcolourproject_2stim_asymm_v5,2020.2.10,Win32,60,61025ae37ef11b136ea224fe,,,,,,,,,235,74.00002128,-36.0000118,1,0,0,response3disk,,5,12.00001943,5.333322763,1,0,0,rectangle,12.00001943,5.333322763,1,0,0,12.00001943,5.333322763,1,0,0,0,90,90,3,1,,,,,,,,
,,,,,,,,,,,,,FF,,,,,,,,1.6146,,,,,,,,,,,,,,,,,,,,,,60fe5dcd522e58dce4ea67ac,61036dd58f446aaf42f4385d,2021-07-30_13h13.08.458,Simcolourproject_2stim_asymm_v5,2020.2.10,Win32,60,61025ae37ef11b136ea224fe,,,,,,,,,4164,-66.66660889,26.66665673,1,0,0,response7disk,,1,-17.99998146,-0.666677415,1,0,0,rectangle,-17.99998146,-0.666677415,1,0,0,-17.99998146,-0.666677415,1,0,0,0,91,91,41,1,,,,,,,,
,,,,,,,,,,,,,FF,,,,,,,,1.0325,,,,,,,,,,,,,,,,,,,,,,60fe5dcd522e58dce4ea67ac,61036dd58f446aaf42f4385d,2021-07-30_13h13.08.458,Simcolourproject_2stim_asymm_v5,2020.2.10,Win32,60,61025ae37ef11b136ea224fe,,,,,,,,,1912,26.00001985,-50.00001222,1,0,0,response3disk,,4,12.00001943,-10.00001103,1,0,0,rectangle,12.00001943,-10.00001103,1,0,0,12.00001943,-10.00001103,1,0,0,0,92,92,109,1,,,,,,,,
,,,,,,,,,,,,,FF,,,,,,,,3.6637,,,,,,,,,,,,,,,,,,,,,,60fe5dcd522e58dce4ea67ac,61036dd58f446aaf42f4385d,2021-07-30_13h13.08.458,Simcolourproject_2stim_asymm_v5,2020.2.10,Win32,60,61025ae37ef11b136ea224fe,,,,,,,,,1544,-48.66660835,-57.33334577,1,0,0,response5disk,,3,-17.33331478,-8.666677654,1,0,0,rectangle,-17.33331478,-8.666677654,1,0,0,-17.33331478,-8.666677654,1,0,0,0,93,93,36,1,,,,,,,,
,,,,,,,,,,,,,FF,,,,,,,,1.0325,,,,,,,,,,,,,,,,,,,,,,60fe5dcd522e58dce4ea67ac,61036dd58f446aaf42f4385d,2021-07-30_13h13.08.458,Simcolourproject_2stim_asymm_v5,2020.2.10,Win32,60,61025ae37ef11b136ea224fe,,,,,,,,,3630,-36.666608,70.66665804,1,0,0,response7disk,,0,-11.99998128,2.666656017,1,0,0,rectangle,-11.99998128,2.666656017,1,0,0,-11.99998128,2.666656017,1,0,0,0,94,94,127,1,,,,,,,,
,,,,,,,,,,,,,FF,,,,,,,,1.0655,,,,,,,,,,,,,,,,,,,,,,60fe5dcd522e58dce4ea67ac,61036dd58f446aaf42f4385d,2021-07-30_13h13.08.458,Simcolourproject_2stim_asymm_v5,2020.2.10,Win32,60,61025ae37ef11b136ea224fe,,,,,,,,,1708,28.66668659,-60.00001252,1,0,0,response3disk,,4,21.33339373,-2.666677475,1,0,0,rectangle,21.33339373,-2.666677475,1,0,0,21.33339373,-2.666677475,1,0,0,0,95,95,51,1,,,,,,,,
,,,,,,,,,,,,,FF,,,,,,,,1.1823,,,,,,,,,,,,,,,,,,,,,,60fe5dcd522e58dce4ea67ac,61036dd58f446aaf42f4385d,2021-07-30_13h13.08.458,Simcolourproject_2stim_asymm_v5,2020.2.10,Win32,60,61025ae37ef11b136ea224fe,,,,,,,,,951,-33.99998194,-54.66667902,1,0,0,response5disk,,3,-8.666607161,7.333322823,1,0,0,rectangle,-8.666607161,7.333322823,1,0,0,-8.666607161,7.333322823,1,0,0,0,96,96,148,1,,,,,,,,
,,,,,,,,,,,,,FF,,,,,,,,1.7153,,,,,,,,,,,,,,,,,,,,,,60fe5dcd522e58dce4ea67ac,61036dd58f446aaf42f4385d,2021-07-30_13h13.08.458,Simcolourproject_2stim_asymm_v5,2020.2.10,Win32,60,61025ae37ef11b136ea224fe,,,,,,,,,1371,-72.66660907,17.99998981,1,0,0,response7disk,,1,-7.999981165,1.999989331,1,0,0,rectangle,-7.999981165,1.999989331,1,0,0,-7.999981165,1.999989331,1,0,0,0,97,97,158,1,,,,,,,,
,,,,,,,,,,,,,FF,,,,,,,,6.7113,,,,,,,,,,,,,,,,,,,,,,60fe5dcd522e58dce4ea67ac,61036dd58f446aaf42f4385d,2021-07-30_13h13.08.458,Simcolourproject_2stim_asymm_v5,2020.2.10,Win32,60,61025ae37ef11b136ea224fe,,,,,,,,,128,75.33335465,-47.33334547,1,0,0,response3disk,,5,-2.666606983,5.333322763,1,0,0,rectangle,-2.666606983,5.333322763,1,0,0,-2.666606983,5.333322763,1,0,0,0,98,98,142,1,,,,,,,,
,,,,,,,,,,,,,FF,,,,,,,,2.348,,,,,,,,,,,,,,,,,,,,,,60fe5dcd522e58dce4ea67ac,61036dd58f446aaf42f4385d,2021-07-30_13h13.08.458,Simcolourproject_2stim_asymm_v5,2020.2.10,Win32,60,61025ae37ef11b136ea224fe,,,,,,,,,3141,60.66668755,31.33330319,1,0,0,response1disk,,6,22.66668642,-2.000010788,1,0,0,rectangle,22.66668642,-2.000010788,1,0,0,22.66668642,-2.000010788,1,0,0,0,99,99,74,1,,,,,,,,
,,,,,,,,,,,,,FF,,,,,,,,1.2824,,,,,,,,,,,,,,,,,,,,,,60fe5dcd522e58dce4ea67ac,61036dd58f446aaf42f4385d,2021-07-30_13h13.08.458,Simcolourproject_2stim_asymm_v5,2020.2.10,Win32,60,61025ae37ef11b136ea224fe,,,,,,,,,2467,46.66668713,58.66665769,1,0,0,response1disk,,7,16.66668624,-2.000010788,1,0,0,rectangle,-46.66660829,-65.33334601,1,0,0,-1.3333143,1.999989331,1,0,0,0,100,100,94,1,,response5disk_3,TRUE,3,3,"[11,140,19,176,105,122,285,156,29,295,5,269,40,207,101,233,206,131,303,158]",2.0316,rectangle
,,,,,,,,,,,,,FF,,,,,,,,1.382,,,,,,,,,,,,,,,,,,,,,,60fe5dcd522e58dce4ea67ac,61036dd58f446aaf42f4385d,2021-07-30_13h13.08.458,Simcolourproject_2stim_asymm_v5,2020.2.10,Win32,60,61025ae37ef11b136ea224fe,,,,,,,,,2045,30.66668665,-55.33334571,1,0,0,response3disk,,4,10.00001937,-3.333344162,1,0,0,rectangle,10.00001937,-3.333344162,1,0,0,10.00001937,-3.333344162,1,0,0,0,101,101,14,1,,,,,,,,
,,,,,,,,,,,,,FF,,,,,,,,1.4496,,,,,,,,,,,,,,,,,,,,,,60fe5dcd522e58dce4ea67ac,61036dd58f446aaf42f4385d,2021-07-30_13h13.08.458,Simcolourproject_2stim_asymm_v5,2020.2.10,Win32,60,61025ae37ef11b136ea224fe,,,,,,,,,340,-30.66660782,-65.33334601,1,0,0,response5disk,,3,-16.6666074,2.666656017,1,0,0,rectangle,-16.6666074,2.666656017,1,0,0,-16.6666074,2.666656017,1,0,0,0,102,102,150,1,,,,,,,,
,,,,,,,,,,,,,FF,,,,,,,,0.9493,,,,,,,,,,,,,,,,,,,,,,60fe5dcd522e58dce4ea67ac,61036dd58f446aaf42f4385d,2021-07-30_13h13.08.458,Simcolourproject_2stim_asymm_v5,2020.2.10,Win32,60,61025ae37ef11b136ea224fe,,,,,,,,,4010,-61.33331609,-22.00001138,1,0,0,response5disk,,2,-18.66660746,-2.666677475,1,0,0,rectangle,-18.66660746,-2.666677475,1,0,0,-18.66660746,-2.666677475,1,0,0,0,103,103,46,1,,,,,,,,
,,,,,,,,,,,,,FF,,,,,,,,2.981,,,,,,,,,,,,,,,,,,,,,,60fe5dcd522e58dce4ea67ac,61036dd58f446aaf42f4385d,2021-07-30_13h13.08.458,Simcolourproject_2stim_asymm_v5,2020.2.10,Win32,60,61025ae37ef11b136ea224fe,,,,,,,,,3118,76.00002134,18.66665649,1,0,0,response1disk,,6,4.000019193,3.99998939,1,0,0,rectangle,75.33335465,33.33330325,1,0,0,3.333393196,-0.666677415,1,0,0,0,104,104,34,1,,response1disk_3,TRUE,6,6,"[11,140,19,176,105,122,285,156,29,295,5,269,40,207,101,233,206,131,303,158]",1.5819,rectangle
,,,,,,,,,,,,,FF,,,,,,,,1.5487,,,,,,,,,,,,,,,,,,,,,,60fe5dcd522e58dce4ea67ac,61036dd58f446aaf42f4385d,2021-07-30_13h13.08.458,Simcolourproject_2stim_asymm_v5,2020.2.10,Win32,60,61025ae37ef11b136ea224fe,,,,,,,,,2662,-74.66660913,22.66665661,1,0,0,response7disk,,1,-18.66660746,8.666656196,1,0,0,rectangle,-18.66660746,8.666656196,1,0,0,-18.66660746,8.666656196,1,0,0,0,105,105,68,1,,,,,,,,
,,,,,,,,,,,,,FF,,,,,,,,0.9825,,,,,,,,,,,,,,,,,,,,,,60fe5dcd522e58dce4ea67ac,61036dd58f446aaf42f4385d,2021-07-30_13h13.08.458,Simcolourproject_2stim_asymm_v5,2020.2.10,Win32,60,61025ae37ef11b136ea224fe,,,,,,,,,2063,25.33339385,-40.00001192,1,0,0,response3disk,,4,2.66668582,5.99998945,1,0,0,rectangle,2.66668582,5.99998945,1,0,0,2.66668582,5.99998945,1,0,0,0,106,106,108,1,,,,,,,,
,,,,,,,,,,,,,FF,,,,,,,,1.2324,,,,,,,,,,,,,,,,,,,,,,60fe5dcd522e58dce4ea67ac,61036dd58f446aaf42f4385d,2021-07-30_13h13.08.458,Simcolourproject_2stim_asymm_v5,2020.2.10,Win32,60,61025ae37ef11b136ea224fe,,,,,,,,,1011,40.00002027,-46.66667879,1,0,0,response3disk,,4,4.666685879,1.333322644,1,0,0,rectangle,4.666685879,1.333322644,1,0,0,4.666685879,1.333322644,1,0,0,0,107,107,116,1,,,,,,,,
,,,,,,,,,,,,,FF,,,,,,,,1.6817,,,,,,,,,,,,,,,,,,,,,,60fe5dcd522e58dce4ea67ac,61036dd58f446aaf42f4385d,2021-07-30_13h13.08.458,Simcolourproject_2stim_asymm_v5,2020.2.10,Win32,60,61025ae37ef11b136ea224fe,,,,,,,,,3318,60.00002086,-36.66667849,1,0,0,response3disk,,5,10.00001937,0.666655958,1,0,0,rectangle,10.00001937,0.666655958,1,0,0,10.00001937,0.666655958,1,0,0,0,108,108,144,1,,,,,,,,
,,,,,,,,,,,,,FF,,,,,,,,1.1824,,,,,,,,,,,,,,,,,,,,,,60fe5dcd522e58dce4ea67ac,61036dd58f446aaf42f4385d,2021-07-30_13h13.08.458,Simcolourproject_2stim_asymm_v5,2020.2.10,Win32,60,61025ae37ef11b136ea224fe,,,,,,,,,2170,62.66668761,42.66665721,1,0,0,response1disk,,6,8.666685998,1.333322644,1,0,0,rectangle,8.666685998,1.333322644,1,0,0,8.666685998,1.333322644,1,0,0,0,109,109,95,1,,,,,,,,
,,,,,,,,,,,,,FF,,,,,,,,2.2818,,,,,,,,,,,,,,,,,,,,,,60fe5dcd522e58dce4ea67ac,61036dd58f446aaf42f4385d,2021-07-30_13h13.08.458,Simcolourproject_2stim_asymm_v5,2020.2.10,Win32,60,61025ae37ef11b136ea224fe,,,,,,,,,4297,-50.66660841,-38.00001186,1,0,0,response5disk,,2,-11.99998128,-2.666677475,1,0,0,rectangle,-11.99998128,-2.666677475,1,0,0,-11.99998128,-2.666677475,1,0,0,0,110,110,20,1,,,,,,,,
,,,,,,,,,,,,,FF,,,,,,,,1.8152,,,,,,,,,,,,,,,,,,,,,,60fe5dcd522e58dce4ea67ac,61036dd58f446aaf42f4385d,2021-07-30_13h13.08.458,Simcolourproject_2stim_asymm_v5,2020.2.10,Win32,60,61025ae37ef11b136ea224fe,,,,,,,,,1217,-65.33331621,18.66665649,1,0,0,response7disk,,1,-17.33331478,4.666656077,1,0,0,rectangle,-17.33331478,4.666656077,1,0,0,-17.33331478,4.666656077,1,0,0,0,111,111,91,1,,,,,,,,
,,,,,,,,,,,,,FF,,,,,,,,1.5321,,,,,,,,,,,,,,,,,,,,,,60fe5dcd522e58dce4ea67ac,61036dd58f446aaf42f4385d,2021-07-30_13h13.08.458,Simcolourproject_2stim_asymm_v5,2020.2.10,Win32,60,61025ae37ef11b136ea224fe,,,,,,,,,524,-53.99998254,-25.33334482,1,0,0,response5disk,,2,-17.33331478,-4.666677535,1,0,0,rectangle,-17.33331478,-4.666677535,1,0,0,-17.33331478,-4.666677535,1,0,0,0,112,112,151,1,,,,,,,,
,,,,,,,,,,,,,FF,,,,,,,,0.8659,,,,,,,,,,,,,,,,,,,,,,60fe5dcd522e58dce4ea67ac,61036dd58f446aaf42f4385d,2021-07-30_13h13.08.458,Simcolourproject_2stim_asymm_v5,2020.2.10,Win32,60,61025ae37ef11b136ea224fe,,,,,,,,,1958,-48.66660835,23.99998999,1,0,0,response7disk,,1,-3.333314359,7.333322823,1,0,0,rectangle,-3.333314359,7.333322823,1,0,0,-3.333314359,7.333322823,1,0,0,0,113,113,71,1,,,,,,,,
,,,,,,,,,,,,,FF,,,,,,,,1.0825,,,,,,,,,,,,,,,,,,,,,,60fe5dcd522e58dce4ea67ac,61036dd58f446aaf42f4385d,2021-07-30_13h13.08.458,Simcolourproject_2stim_asymm_v5,2020.2.10,Win32,60,61025ae37ef11b136ea224fe,,,,,,,,,2260,34.00002009,-36.0000118,1,0,0,response3disk,,4,16.00001955,-2.666677475,1,0,0,rectangle,16.00001955,-2.666677475,1,0,0,16.00001955,-2.666677475,1,0,0,0,114,114,57,1,,,,,,,,
,,,,,,,,,,,,,FF,,,,,,,,1.2823,,,,,,,,,,,,,,,,,,,,,,60fe5dcd522e58dce4ea67ac,61036dd58f446aaf42f4385d,2021-07-30_13h13.08.458,Simcolourproject_2stim_asymm_v5,2020.2.10,Win32,60,61025ae37ef11b136ea224fe,,,,,,,,,4041,37.33339421,-56.66667908,1,0,0,response3disk,,4,6.666685939,6.666656137,1,0,0,rectangle,6.666685939,6.666656137,1,0,0,6.666685939,6.666656137,1,0,0,0,115,115,147,1,,,,,,,,
,,,,,,,,,,,,,FF,,,,,,,,2.1815,,,,,,,,,,,,,,,,,,,,,,60fe5dcd522e58dce4ea67ac,61036dd58f446aaf42f4385d,2021-07-30_13h13.08.458,Simcolourproject_2stim_asymm_v5,2020.2.10,Win32,60,61025ae37ef11b136ea224fe,,,,,,,,,1832,-30.66660782,-33.33334506,1,0,0,response5disk,,3,-15.33331472,3.99998939,1,0,0,rectangle,-15.33331472,3.99998939,1,0,0,-15.33331472,3.99998939,1,0,0,0,116,116,15,1,,,,,,,,
,,,,,,,,,,,,,FF,,,,,,,,1.0323,,,,,,,,,,,,,,,,,,,,,,60fe5dcd522e58dce4ea67ac,61036dd58f446aaf42f4385d,2021-07-30_13h13.08.458,Simcolourproject_2stim_asymm_v5,2020.2.10,Win32,60,61025ae37ef11b136ea224fe,,,,,,,,,2563,60.66668755,-71.33334619,1,0,0,response3disk,,4,15.33339355,-5.333344221,1,0,0,rectangle,15.33339355,-5.333344221,1,0,0,15.33339355,-5.333344221,1,0,0,0,117,117,30,1,,,,,,,,
,,,,,,,,,,,,,FF,,,,,,,,1.0993,,,,,,,,,,,,,,,,,,,,,,60fe5dcd522e58dce4ea67ac,61036dd58f446aaf42f4385d,2021-07-30_13h13.08.458,Simcolourproject_2stim_asymm_v5,2020.2.10,Win32,60,61025ae37ef11b136ea224fe,,,,,,,,,1313,-75.99998319,-28.66667825,1,0,0,response5disk,,2,-15.33331472,-1.07288E-05,1,0,0,rectangle,-15.33331472,-1.07288E-05,1,0,0,-15.33331472,-1.07288E-05,1,0,0,0,118,118,89,1,,,,,,,,
,,,,,,,,,,,,,FF,,,,,,,,3.6638,,,,,,,,,,,,,,,,,,,,,,60fe5dcd522e58dce4ea67ac,61036dd58f446aaf42f4385d,2021-07-30_13h13.08.458,Simcolourproject_2stim_asymm_v5,2020.2.10,Win32,60,61025ae37ef11b136ea224fe,,,,,,,,,1168,34.66668677,25.33330301,1,0,0,response1disk,,6,8.666685998,4.666656077,1,0,0,rectangle,8.666685998,4.666656077,1,0,0,8.666685998,4.666656077,1,0,0,0,119,119,67,1,,,,,,,,
,,,,,,,,,,,,,FF,,,,,,,,0.8991,,,,,,,,,,,,,,,,,,,,,,60fe5dcd522e58dce4ea67ac,61036dd58f446aaf42f4385d,2021-07-30_13h13.08.458,Simcolourproject_2stim_asymm_v5,2020.2.10,Win32,60,61025ae37ef11b136ea224fe,,,,,,,,,2518,44.66668707,75.99999154,1,0,0,response1disk,,7,-0.666606923,1.999989331,1,0,0,rectangle,-0.666606923,1.999989331,1,0,0,-0.666606923,1.999989331,1,0,0,0,120,120,43,1,,,,,,,,
,,,,,,,,,,,,,FF,,,,,,,,1.0325,,,,,,,,,,,,,,,,,,,,,,60fe5dcd522e58dce4ea67ac,61036dd58f446aaf42f4385d,2021-07-30_13h13.08.458,Simcolourproject_2stim_asymm_v5,2020.2.10,Win32,60,61025ae37ef11b136ea224fe,,,,,,,,,441,-52.66660847,-31.333345,1,0,0,response5disk,,2,-13.33331466,1.333322644,1,0,0,rectangle,-50.66660841,-78.00001305,1,0,0,10.00001937,-1.333344102,1,0,0,0,121,121,39,1,,response5disk_3,TRUE,3,3,"[11,140,19,176,105,122,285,156,29,295,5,269,40,207,101,233,206,131,303,158]",2.2977,rectangle
,,,,,,,,,,,,,FF,,,,,,,,3.4471,,,,,,,,,,,,,,,,,,,,,,60fe5dcd522e58dce4ea67ac,61036dd58f446aaf42f4385d,2021-07-30_13h13.08.458,Simcolourproject_2stim_asymm_v5,2020.2.10,Win32,60,61025ae37ef11b136ea224fe,,,,,,,,,229,48.66668719,-29.33334494,1,0,0,response3disk,,5,20.66668636,-6.666677594,1,0,0,rectangle,20.66668636,-6.666677594,1,0,0,20.66668636,-6.666677594,1,0,0,0,122,122,10,1,,,,,,,,
,,,,,,,,,,,,,FF,,,,,,,,2.6811,,,,,,,,,,,,,,,,,,,,,,60fe5dcd522e58dce4ea67ac,61036dd58f446aaf42f4385d,2021-07-30_13h13.08.458,Simcolourproject_2stim_asymm_v5,2020.2.10,Win32,60,61025ae37ef11b136ea224fe,,,,,,,,,602,32.00002003,-62.66667926,1,0,0,response3disk,,4,-7.999981165,7.333322823,1,0,0,rectangle,-7.999981165,7.333322823,1,0,0,-7.999981165,7.333322823,1,0,0,0,123,123,17,1,,,,,,,,
,,,,,,,,,,,,,FF,,,,,,,,1.2821,,,,,,,,,,,,,,,,,,,,,,60fe5dcd522e58dce4ea67ac,61036dd58f446aaf42f4385d,2021-07-30_13h13.08.458,Simcolourproject_2stim_asymm_v5,2020.2.10,Win32,60,61025ae37ef11b136ea224fe,,,,,,,,,4175,31.33339403,-65.33334601,1,0,0,response3disk,,4,-7.999981165,-2.000010788,1,0,0,rectangle,-7.999981165,-2.000010788,1,0,0,-7.999981165,-2.000010788,1,0,0,0,124,124,12,1,,,,,,,,
,,,,,,,,,,,,,FF,,,,,,,,1.5988,,,,,,,,,,,,,,,,,,,,,,60fe5dcd522e58dce4ea67ac,61036dd58f446aaf42f4385d,2021-07-30_13h13.08.458,Simcolourproject_2stim_asymm_v5,2020.2.10,Win32,60,61025ae37ef11b136ea224fe,,,,,,,,,644,29.33339397,-58.66667914,1,0,0,response3disk,,4,6.000019252,3.99998939,1,0,0,rectangle,6.000019252,3.99998939,1,0,0,6.000019252,3.99998939,1,0,0,0,125,125,98,1,,,,,,,,
,,,,,,,,,,,,,FF,,,,,,,,1.1988,,,,,,,,,,,,,,,,,,,,,,60fe5dcd522e58dce4ea67ac,61036dd58f446aaf42f4385d,2021-07-30_13h13.08.458,Simcolourproject_2stim_asymm_v5,2020.2.10,Win32,60,61025ae37ef11b136ea224fe,,,,,,,,,971,-29.33331513,-58.66667914,1,0,0,response5disk,,3,-3.333314359,-0.666677415,1,0,0,rectangle,-3.333314359,-0.666677415,1,0,0,-3.333314359,-0.666677415,1,0,0,0,126,126,106,1,,,,,,,,
,,,,,,,,,,,,,FF,,,,,,,,3.9634,,,,,,,,,,,,,,,,,,,,,,60fe5dcd522e58dce4ea67ac,61036dd58f446aaf42f4385d,2021-07-30_13h13.08.458,Simcolourproject_2stim_asymm_v5,2020.2.10,Win32,60,61025ae37ef11b136ea224fe,,,,,,,,,825,-44.66660823,-20.00001132,1,0,0,response5disk,,2,-19.33331484,-1.07288E-05,1,0,0,rectangle,-19.33331484,-1.07288E-05,1,0,0,-19.33331484,-1.07288E-05,1,0,0,0,127,127,122,1,,,,,,,,
,,,,,,,,,,,,,FF,,,,,,,,1.6488,,,,,,,,,,,,,,,,,,,,,,60fe5dcd522e58dce4ea67ac,61036dd58f446aaf42f4385d,2021-07-30_13h13.08.458,Simcolourproject_2stim_asymm_v5,2020.2.10,Win32,60,61025ae37ef11b136ea224fe,,,,,,,,,1862,45.33335376,69.33330433,1,0,0,response1disk,,7,10.00001937,3.99998939,1,0,0,rectangle,10.00001937,3.99998939,1,0,0,10.00001937,3.99998939,1,0,0,0,128,128,53,1,,,,,,,,
,,,,,,,,,,,,,FF,,,,,,,,1.8312,,,,,,,,,,,,,,,,,,,,,,60fe5dcd522e58dce4ea67ac,61036dd58f446aaf42f4385d,2021-07-30_13h13.08.458,Simcolourproject_2stim_asymm_v5,2020.2.10,Win32,60,61025ae37ef11b136ea224fe,,,,,,,,,4015,45.33335376,-35.33334512,1,0,0,response3disk,,5,12.66668612,-2.666677475,1,0,0,rectangle,12.66668612,-2.666677475,1,0,0,12.66668612,-2.666677475,1,0,0,0,129,129,123,1,,,,,,,,
,,,,,,,,,,,,,FF,,,,,,,,1.2981,,,,,,,,,,,,,,,,,,,,,,60fe5dcd522e58dce4ea67ac,61036dd58f446aaf42f4385d,2021-07-30_13h13.08.458,Simcolourproject_2stim_asymm_v5,2020.2.10,Win32,60,61025ae37ef11b136ea224fe,,,,,,,,,1300,-67.99998295,-21.3333447,1,0,0,response5disk,,2,-15.33331472,-0.666677415,1,0,0,rectangle,-67.99998295,-33.33334506,1,0,0,-6.666607102,-6.000010908,1,0,0,0,130,130,96,1,,response5disk_3,TRUE,2,2,"[11,140,19,176,105,122,285,156,29,295,5,269,40,207,101,233,206,131,303,158]",2.1639,rectangle
,,,,,,,,,,,,,FF,,,,,,,,1.6316,,,,,,,,,,,,,,,,,,,,,,60fe5dcd522e58dce4ea67ac,61036dd58f446aaf42f4385d,2021-07-30_13h13.08.458,Simcolourproject_2stim_asymm_v5,2020.2.10,Win32,60,61025ae37ef11b136ea224fe,,,,,,,,,100,-25.33331501,-67.33334607,1,0,0,response5disk,,3,1.333393137,4.666656077,1,0,0,rectangle,1.333393137,4.666656077,1,0,0,1.333393137,4.666656077,1,0,0,0,131,131,77,1,,,,,,,,
,,,,,,,,,,,,,FF,,,,,,,,3.5303,,,,,,,,,,,,,,,,,,,,,,60fe5dcd522e58dce4ea67ac,61036dd58f446aaf42f4385d,2021-07-30_13h13.08.458,Simcolourproject_2stim_asymm_v5,2020.2.10,Win32,60,61025ae37ef11b136ea224fe,,,,,,,,,2412,19.33339367,-49.33334553,1,0,0,response3disk,,4,-2.666606983,1.999989331,1,0,0,rectangle,-2.666606983,1.999989331,1,0,0,-2.666606983,1.999989331,1,0,0,0,132,132,137,1,,,,,,,,
,,,,,,,,,,,,,FF,,,,,,,,2.2822,,,,,,,,,,,,,,,,,,,,,,60fe5dcd522e58dce4ea67ac,61036dd58f446aaf42f4385d,2021-07-30_13h13.08.458,Simcolourproject_2stim_asymm_v5,2020.2.10,Win32,60,61025ae37ef11b136ea224fe,,,,,,,,,1112,73.33335459,-36.0000118,1,0,0,response3disk,,5,9.333393375,-1.333344102,1,0,0,rectangle,9.333393375,-1.333344102,1,0,0,9.333393375,-1.333344102,1,0,0,0,133,133,143,1,,,,,,,,
,,,,,,,,,,,,,FF,,,,,,,,1.5645,,,,,,,,,,,,,,,,,,,,,,60fe5dcd522e58dce4ea67ac,61036dd58f446aaf42f4385d,2021-07-30_13h13.08.458,Simcolourproject_2stim_asymm_v5,2020.2.10,Win32,60,61025ae37ef11b136ea224fe,,,,,,,,,2335,54.66668737,33.33330325,1,0,0,response1disk,,6,8.666685998,1.999989331,1,0,0,rectangle,8.666685998,1.999989331,1,0,0,8.666685998,1.999989331,1,0,0,0,134,134,28,1,,,,,,,,
,,,,,,,,,,,,,FF,,,,,,,,1.6326,,,,,,,,,,,,,,,,,,,,,,60fe5dcd522e58dce4ea67ac,61036dd58f446aaf42f4385d,2021-07-30_13h13.08.458,Simcolourproject_2stim_asymm_v5,2020.2.10,Win32,60,61025ae37ef11b136ea224fe,,,,,,,,,3709,-65.33331621,36.66665703,1,0,0,response7disk,,1,-10.66660722,6.666656137,1,0,0,rectangle,-10.66660722,6.666656137,1,0,0,-10.66660722,6.666656137,1,0,0,0,135,135,138,1,,,,,,,,
,,,,,,,,,,,,,FF,,,,,,,,0.8141,,,,,,,,,,,,,,,,,,,,,,60fe5dcd522e58dce4ea67ac,61036dd58f446aaf42f4385d,2021-07-30_13h13.08.458,Simcolourproject_2stim_asymm_v5,2020.2.10,Win32,60,61025ae37ef11b136ea224fe,,,,,,,,,3053,-77.99998325,25.99999005,1,0,0,response7disk,,1,-8.666607161,5.99998945,1,0,0,rectangle,-8.666607161,5.99998945,1,0,0,-8.666607161,5.99998945,1,0,0,0,136,136,54,1,,,,,,,,
,,,,,,,,,,,,,FF,,,,,,,,0.7985,,,,,,,,,,,,,,,,,,,,,,60fe5dcd522e58dce4ea67ac,61036dd58f446aaf42f4385d,2021-07-30_13h13.08.458,Simcolourproject_2stim_asymm_v5,2020.2.10,Win32,60,61025ae37ef11b136ea224fe,,,,,,,,,3452,36.00002015,-58.66667914,1,0,0,response3disk,,4,4.666685879,-4.666677535,1,0,0,rectangle,4.666685879,-4.666677535,1,0,0,4.666685879,-4.666677535,1,0,0,0,137,137,21,1,,,,,,,,
,,,,,,,,,,,,,FF,,,,,,,,1.0325,,,,,,,,,,,,,,,,,,,,,,60fe5dcd522e58dce4ea67ac,61036dd58f446aaf42f4385d,2021-07-30_13h13.08.458,Simcolourproject_2stim_asymm_v5,2020.2.10,Win32,60,61025ae37ef11b136ea224fe,,,,,,,,,2916,46.00002044,18.66665649,1,0,0,response1disk,,6,-11.3333146,-11.3333444,1,0,0,rectangle,-11.3333146,-11.3333444,1,0,0,-11.3333146,-11.3333444,1,0,0,0,138,138,8,1,,,,,,,,
,,,,,,,,,,,,,FF,,,,,,,,1.0985,,,,,,,,,,,,,,,,,,,,,,60fe5dcd522e58dce4ea67ac,61036dd58f446aaf42f4385d,2021-07-30_13h13.08.458,Simcolourproject_2stim_asymm_v5,2020.2.10,Win32,60,61025ae37ef11b136ea224fe,,,,,,,,,767,70.00002116,-20.66667801,1,0,0,response3disk,,5,-3.333314359,7.333322823,1,0,0,rectangle,77.33335471,-30.66667831,1,0,0,14.00001949,-4.666677535,1,0,0,0,139,139,75,1,,response3disk_3,TRUE,5,5,"[11,140,19,176,105,122,285,156,29,295,5,269,40,207,101,233,206,131,303,158]",1.7152,rectangle
,,,,,,,,,,,,,FF,,,,,,,,3.9292,,,,,,,,,,,,,,,,,,,,,,60fe5dcd522e58dce4ea67ac,61036dd58f446aaf42f4385d,2021-07-30_13h13.08.458,Simcolourproject_2stim_asymm_v5,2020.2.10,Win32,60,61025ae37ef11b136ea224fe,,,,,,,,,564,-49.33331573,-31.333345,1,0,0,response5disk,,2,-0.666606923,1.333322644,1,0,0,rectangle,-0.666606923,1.333322644,1,0,0,-0.666606923,1.333322644,1,0,0,0,140,140,76,1,,,,,,,,
,,,,,,,,,,,,,FF,,,,,,,,0.9322,,,,,,,,,,,,,,,,,,,,,,60fe5dcd522e58dce4ea67ac,61036dd58f446aaf42f4385d,2021-07-30_13h13.08.458,Simcolourproject_2stim_asymm_v5,2020.2.10,Win32,60,61025ae37ef11b136ea224fe,,,,,,,,,1071,-53.33331585,-26.66667819,1,0,0,response5disk,,2,-5.999981105,-1.333344102,1,0,0,rectangle,-5.999981105,-1.333344102,1,0,0,-5.999981105,-1.333344102,1,0,0,0,141,141,62,1,,,,,,,,
,,,,,,,,,,,,,FF,,,,,,,,1.7481,,,,,,,,,,,,,,,,,,,,,,60fe5dcd522e58dce4ea67ac,61036dd58f446aaf42f4385d,2021-07-30_13h13.08.458,Simcolourproject_2stim_asymm_v5,2020.2.10,Win32,60,61025ae37ef11b136ea224fe,,,,,,,,,3548,-23.99998164,-46.0000121,1,0,0,response5disk,,3,4.000019193,-5.333344221,1,0,0,rectangle,4.000019193,-5.333344221,1,0,0,4.000019193,-5.333344221,1,0,0,0,142,142,16,1,,,,,,,,
,,,,,,,,,,,,,FF,,,,,,,,2.7808,,,,,,,,,,,,,,,,,,,,,,60fe5dcd522e58dce4ea67ac,61036dd58f446aaf42f4385d,2021-07-30_13h13.08.458,Simcolourproject_2stim_asymm_v5,2020.2.10,Win32,60,61025ae37ef11b136ea224fe,,,,,,,,,3451,33.33339409,-49.33334553,1,0,0,response3disk,,4,10.66668606,-2.000010788,1,0,0,rectangle,10.66668606,-2.000010788,1,0,0,10.66668606,-2.000010788,1,0,0,0,143,143,24,1,,,,,,,,
,,,,,,,,,,,,,FF,,,,,,,,1.3649,,,,,,,,,,,,,,,,,,,,,,60fe5dcd522e58dce4ea67ac,61036dd58f446aaf42f4385d,2021-07-30_13h13.08.458,Simcolourproject_2stim_asymm_v5,2020.2.10,Win32,60,61025ae37ef11b136ea224fe,,,,,,,,,3924,-41.99998218,-29.33334494,1,0,0,response5disk,,2,-14.66660734,-5.333344221,1,0,0,rectangle,-14.66660734,-5.333344221,1,0,0,-14.66660734,-5.333344221,1,0,0,0,144,144,133,1,,,,,,,,
,,,,,,,,,,,,,FF,,,,,,,,1.4318,,,,,,,,,,,,,,,,,,,,,,60fe5dcd522e58dce4ea67ac,61036dd58f446aaf42f4385d,2021-07-30_13h13.08.458,Simcolourproject_2stim_asymm_v5,2020.2.10,Win32,60,61025ae37ef11b136ea224fe,,,,,,,,,3279,29.33339397,-46.0000121,1,0,0,response3disk,,4,5.333393256,5.333322763,1,0,0,rectangle,5.333393256,5.333322763,1,0,0,5.333393256,5.333322763,1,0,0,0,145,145,155,1,,,,,,,,
,,,,,,,,,,,,,FF,,,,,,,,1.0508,,,,,,,,,,,,,,,,,,,,,,60fe5dcd522e58dce4ea67ac,61036dd58f446aaf42f4385d,2021-07-30_13h13.08.458,Simcolourproject_2stim_asymm_v5,2020.2.10,Win32,60,61025ae37ef11b136ea224fe,,,,,,,,,3367,65.33335435,-36.0000118,1,0,0,response3disk,,5,14.66668618,11.33332294,1,0,0,rectangle,14.66668618,11.33332294,1,0,0,14.66668618,11.33332294,1,0,0,0,146,146,111,1,,,,,,,,
,,,,,,,,,,,,,FF,,,,,,,,1.7477,,,,,,,,,,,,,,,,,,,,,,60fe5dcd522e58dce4ea67ac,61036dd58f446aaf42f4385d,2021-07-30_13h13.08.458,Simcolourproject_2stim_asymm_v5,2020.2.10,Win32,60,61025ae37ef11b136ea224fe,,,,,,,,,1892,-79.33331662,-16.66667789,1,0,0,response5disk,,2,-14.66660734,0.666655958,1,0,0,rectangle,-14.66660734,0.666655958,1,0,0,-14.66660734,0.666655958,1,0,0,0,147,147,29,1,,,,,,,,
,,,,,,,,,,,,,FF,,,,,,,,2.5802,,,,,,,,,,,,,,,,,,,,,,60fe5dcd522e58dce4ea67ac,61036dd58f446aaf42f4385d,2021-07-30_13h13.08.458,Simcolourproject_2stim_asymm_v5,2020.2.10,Win32,60,61025ae37ef11b136ea224fe,,,,,,,,,4109,79.33335477,43.99999058,1,0,0,response1disk,,6,8.666685998,5.99998945,1,0,0,rectangle,8.666685998,5.99998945,1,0,0,8.666685998,5.99998945,1,0,0,0,148,148,40,1,,,,,,,,
,,,,,,,,,,,,,FF,,,,,,,,1.2151,,,,,,,,,,,,,,,,,,,,,,60fe5dcd522e58dce4ea67ac,61036dd58f446aaf42f4385d,2021-07-30_13h13.08.458,Simcolourproject_2stim_asymm_v5,2020.2.10,Win32,60,61025ae37ef11b136ea224fe,,,,,,,,,2514,58.66668749,71.99999142,1,0,0,response1disk,,7,4.000019193,6.666656137,1,0,0,rectangle,4.000019193,6.666656137,1,0,0,4.000019193,6.666656137,1,0,0,0,149,149,6,1,,,,,,,,
,,,,,,,,,,,,,FF,,,,,,,,1.1492,,,,,,,,,,,,,,,,,,,,,,60fe5dcd522e58dce4ea67ac,61036dd58f446aaf42f4385d,2021-07-30_13h13.08.458,Simcolourproject_2stim_asymm_v5,2020.2.10,Win32,60,61025ae37ef11b136ea224fe,,,,,,,,,266,-61.99998277,-20.66667801,1,0,0,response5disk,,2,-14.66660734,2.666656017,1,0,0,rectangle,-14.66660734,2.666656017,1,0,0,-14.66660734,2.666656017,1,0,0,0,150,150,140,1,,,,,,,,
,,,,,,,,,,,,,FF,,,,,,,,0.799,,,,,,,,,,,,,,,,,,,,,,60fe5dcd522e58dce4ea67ac,61036dd58f446aaf42f4385d,2021-07-30_13h13.08.458,Simcolourproject_2stim_asymm_v5,2020.2.10,Win32,60,61025ae37ef11b136ea224fe,,,,,,,,,3425,-39.99998212,76.66665822,1,0,0,response7disk,,0,3.333393196,9.999989569,1,0,0,rectangle,3.333393196,9.999989569,1,0,0,3.333393196,9.999989569,1,0,0,0,151,151,47,1,,,,,,,,
,,,,,,,,,,,,,FF,,,,,,,,1.4315,,,,,,,,,,,,,,,,,,,,,,60fe5dcd522e58dce4ea67ac,61036dd58f446aaf42f4385d,2021-07-30_13h13.08.458,Simcolourproject_2stim_asymm_v5,2020.2.10,Win32,60,61025ae37ef11b136ea224fe,,,,,,,,,2513,56.00002074,33.33330325,1,0,0,response1disk,,6,3.333393196,1.333322644,1,0,0,rectangle,3.333393196,1.333322644,1,0,0,3.333393196,1.333322644,1,0,0,0,152,152,27,1,,,,,,,,
,,,,,,,,,,,,,FF,,,,,,,,2.7806,,,,,,,,,,,,,,,,,,,,,,60fe5dcd522e58dce4ea67ac,61036dd58f446aaf42f4385d,2021-07-30_13h13.08.458,Simcolourproject_2stim_asymm_v5,2020.2.10,Win32,60,61025ae37ef11b136ea224fe,,,,,,,,,3523,68.0000211,-29.33334494,1,0,0,response3disk,,5,18.6666863,-1.07288E-05,1,0,0,rectangle,18.6666863,-1.07288E-05,1,0,0,18.6666863,-1.07288E-05,1,0,0,0,153,153,45,1,,,,,,,,
,,,,,,,,,,,,,FF,,,,,,,,3.7135,,,,,,,,,,,,,,,,,,,,,,60fe5dcd522e58dce4ea67ac,61036dd58f446aaf42f4385d,2021-07-30_13h13.08.458,Simcolourproject_2stim_asymm_v5,2020.2.10,Win32,60,61025ae37ef11b136ea224fe,,,,,,,,,4298,30.66668665,-68.66667944,1,0,0,response3disk,,4,12.00001943,8.666656196,1,0,0,rectangle,12.00001943,8.666656196,1,0,0,12.00001943,8.666656196,1,0,0,0,154,154,82,1,,,,,,,,
,,,,,,,,,,,,,FF,,,,,,,,2.1815,,,,,,,,,,,,,,,,,,,,,,60fe5dcd522e58dce4ea67ac,61036dd58f446aaf42f4385d,2021-07-30_13h13.08.458,Simcolourproject_2stim_asymm_v5,2020.2.10,Win32,60,61025ae37ef11b136ea224fe,,,,,,,,,1920,52.00002062,-36.66667849,1,0,0,response3disk,,5,12.00001943,7.99998951,1,0,0,rectangle,-34.66660794,-79.33334643,1,0,0,2.000019133,-4.666677535,1,0,0,0,155,155,130,1,,response5disk_3,TRUE,3,3,"[11,140,19,176,105,122,285,156,29,295,5,269,40,207,101,233,206,131,303,158]",2.3638,rectangle
,,,,,,,,,,,,,FF,,,,,,,,3.9951,,,,,,,,,,,,,,,,,,,,,,60fe5dcd522e58dce4ea67ac,61036dd58f446aaf42f4385d,2021-07-30_13h13.08.458,Simcolourproject_2stim_asymm_v5,2020.2.10,Win32,60,61025ae37ef11b136ea224fe,,,,,,,,,759,36.00002015,-60.6666792,1,0,0,response3disk,,4,-1.3333143,3.99998939,1,0,0,rectangle,-1.3333143,3.99998939,1,0,0,-1.3333143,3.99998939,1,0,0,0,156,156,73,1,,,,,,,,
,,,,,,,,,,,,,FF,,,,,,,,2.1138,,,,,,,,,,,,,,,,,,,,,,60fe5dcd522e58dce4ea67ac,61036dd58f446aaf42f4385d,2021-07-30_13h13.08.458,Simcolourproject_2stim_asymm_v5,2020.2.10,Win32,60,61025ae37ef11b136ea224fe,,,,,,,,,990,-66.66660889,-32.00001168,1,0,0,response5disk,,2,-4.666607042,-4.000010848,1,0,0,rectangle,25.33339385,-56.0000124,1,0,0,9.333393375,-7.333344281,1,0,0,0,157,157,13,1,,response3disk_3,TRUE,4,0,"[11,140,19,176,105,122,285,156,29,295,5,269,40,207,101,233,206,131,303,158]",2.2147,rectangle
,,,,,,,,,,,,,FF,,,,,,,,1.1985,,,,,,,,,,,,,,,,,,,,,,60fe5dcd522e58dce4ea67ac,61036dd58f446aaf42f4385d,2021-07-30_13h13.08.458,Simcolourproject_2stim_asymm_v5,2020.2.10,Win32,60,61025ae37ef11b136ea224fe,,,,,,,,,1831,-66.66660889,25.99999005,1,0,0,response7disk,,1,-8.666607161,5.333322763,1,0,0,rectangle,-8.666607161,5.333322763,1,0,0,-8.666607161,5.333322763,1,0,0,0,158,158,23,1,,,,,,,,
,,,,,,,,,,,,,FF,,,,,,,,6.2276,,,,,,,,,,,,,,,,,,,,,,60fe5dcd522e58dce4ea67ac,61036dd58f446aaf42f4385d,2021-07-30_13h13.08.458,Simcolourproject_2stim_asymm_v5,2020.2.10,Win32,60,61025ae37ef11b136ea224fe,,,,,,,,,2127,24.00001979,-41.33334529,1,0,0,response3disk,,4,12.00001943,-0.666677415,1,0,0,rectangle,12.00001943,-0.666677415,1,0,0,12.00001943,-0.666677415,1,0,0,0,159,159,84,1,,,,,,,,
,,,,,,,,,,,,,FF,,,,,,,,0.9157,,,,,,,,,,,,,,,,,,,,,,60fe5dcd522e58dce4ea67ac,61036dd58f446aaf42f4385d,2021-07-30_13h13.08.458,Simcolourproject_2stim_asymm_v5,2020.2.10,Win32,60,61025ae37ef11b136ea224fe,,,,,,,,,3298,-55.9999826,27.99999011,1,0,0,response7disk,,1,-17.99998146,9.999989569,1,0,0,rectangle,-17.99998146,9.999989569,1,0,0,-17.99998146,9.999989569,1,0,0,1,0,160,78,1,,,,,,,,
,,,,,,,,,,,,,FF,,,,,,,,1.0317,,,,,,,,,,,,,,,,,,,,,,60fe5dcd522e58dce4ea67ac,61036dd58f446aaf42f4385d,2021-07-30_13h13.08.458,Simcolourproject_2stim_asymm_v5,2020.2.10,Win32,60,61025ae37ef11b136ea224fe,,,,,,,,,2913,28.66668659,-42.66667867,1,0,0,response3disk,,4,21.33339373,-2.666677475,1,0,0,rectangle,21.33339373,-2.666677475,1,0,0,21.33339373,-2.666677475,1,0,0,1,1,161,0,1,,,,,,,,
,,,,,,,,,,,,,FF,,,,,,,,3.9333,,,,,,,,,,,,,,,,,,,,,,60fe5dcd522e58dce4ea67ac,61036dd58f446aaf42f4385d,2021-07-30_13h13.08.458,Simcolourproject_2stim_asymm_v5,2020.2.10,Win32,60,61025ae37ef11b136ea224fe,,,,,,,,,843,41.33339433,-23.33334476,1,0,0,response3disk,,5,10.00001937,-6.666677594,1,0,0,rectangle,10.00001937,-6.666677594,1,0,0,10.00001937,-6.666677594,1,0,0,1,2,162,43,1,,,,,,,,
,,,,,,,,,,,,,FF,,,,,,,,1.0319,,,,,,,,,,,,,,,,,,,,,,60fe5dcd522e58dce4ea67ac,61036dd58f446aaf42f4385d,2021-07-30_13h13.08.458,Simcolourproject_2stim_asymm_v5,2020.2.10,Win32,60,61025ae37ef11b136ea224fe,,,,,,,,,3395,-65.33331621,30.66665685,1,0,0,response7disk,,1,-16.6666074,5.99998945,1,0,0,rectangle,-16.6666074,5.99998945,1,0,0,-16.6666074,5.99998945,1,0,0,1,3,163,48,1,,,,,,,,
,,,,,,,,,,,,,FF,,,,,,,,2.2149,,,,,,,,,,,,,,,,,,,,,,60fe5dcd522e58dce4ea67ac,61036dd58f446aaf42f4385d,2021-07-30_13h13.08.458,Simcolourproject_2stim_asymm_v5,2020.2.10,Win32,60,61025ae37ef11b136ea224fe,,,,,,,,,777,36.66668683,-72.00001287,1,0,0,response3disk,,4,17.33339361,11.99998963,1,0,0,rectangle,17.33339361,11.99998963,1,0,0,17.33339361,11.99998963,1,0,0,1,4,164,63,1,,,,,,,,
,,,,,,,,,,,,,FF,,,,,,,,1.0988,,,,,,,,,,,,,,,,,,,,,,60fe5dcd522e58dce4ea67ac,61036dd58f446aaf42f4385d,2021-07-30_13h13.08.458,Simcolourproject_2stim_asymm_v5,2020.2.10,Win32,60,61025ae37ef11b136ea224fe,,,,,,,,,3399,-31.99998188,-60.6666792,1,0,0,response5disk,,3,-7.999981165,0.666655958,1,0,0,rectangle,-7.999981165,0.666655958,1,0,0,-7.999981165,0.666655958,1,0,0,1,5,165,68,1,,,,,,,,
,,,,,,,,,,,,,FF,,,,,,,,1.0479,,,,,,,,,,,,,,,,,,,,,,60fe5dcd522e58dce4ea67ac,61036dd58f446aaf42f4385d,2021-07-30_13h13.08.458,Simcolourproject_2stim_asymm_v5,2020.2.10,Win32,60,61025ae37ef11b136ea224fe,,,,,,,,,3711,-65.99998289,23.33330295,1,0,0,response7disk,,1,-15.33331472,5.99998945,1,0,0,rectangle,-15.33331472,5.99998945,1,0,0,-15.33331472,5.99998945,1,0,0,1,6,166,46,1,,,,,,,,
,,,,,,,,,,,,,FF,,,,,,,,1.1315,,,,,,,,,,,,,,,,,,,,,,60fe5dcd522e58dce4ea67ac,61036dd58f446aaf42f4385d,2021-07-30_13h13.08.458,Simcolourproject_2stim_asymm_v5,2020.2.10,Win32,60,61025ae37ef11b136ea224fe,,,,,,,,,3891,72.00002122,53.33330385,1,0,0,response1disk,,6,10.00001937,1.999989331,1,0,0,rectangle,10.00001937,1.999989331,1,0,0,10.00001937,1.999989331,1,0,0,1,7,167,84,1,,,,,,,,
,,,,,,,,,,,,,FF,,,,,,,,1.5149,,,,,,,,,,,,,,,,,,,,,,60fe5dcd522e58dce4ea67ac,61036dd58f446aaf42f4385d,2021-07-30_13h13.08.458,Simcolourproject_2stim_asymm_v5,2020.2.10,Win32,60,61025ae37ef11b136ea224fe,,,,,,,,,1924,71.33335453,-22.66667807,1,0,0,response3disk,,5,15.33339355,1.333322644,1,0,0,rectangle,15.33339355,1.333322644,1,0,0,15.33339355,1.333322644,1,0,0,1,8,168,21,1,,,,,,,,
,,,,,,,,,,,,,FF,,,,,,,,0.9813,,,,,,,,,,,,,,,,,,,,,,60fe5dcd522e58dce4ea67ac,61036dd58f446aaf42f4385d,2021-07-30_13h13.08.458,Simcolourproject_2stim_asymm_v5,2020.2.10,Win32,60,61025ae37ef11b136ea224fe,,,,,,,,,1234,-52.66660847,-18.00001127,1,0,0,response5disk,,2,-19.33331484,-6.666677594,1,0,0,rectangle,-19.33331484,-6.666677594,1,0,0,-19.33331484,-6.666677594,1,0,0,1,9,169,93,1,,,,,,,,
,,,,,,,,,,,,,FF,,,,,,,,0.885,,,,,,,,,,,,,,,,,,,,,,60fe5dcd522e58dce4ea67ac,61036dd58f446aaf42f4385d,2021-07-30_13h13.08.458,Simcolourproject_2stim_asymm_v5,2020.2.10,Win32,60,61025ae37ef11b136ea224fe,,,,,,,,,2893,-56.66660859,31.33330319,1,0,0,response7disk,,1,-13.99998134,-1.333344102,1,0,0,rectangle,-13.99998134,-1.333344102,1,0,0,-13.99998134,-1.333344102,1,0,0,1,10,170,158,1,,,,,,,,
,,,,,,,,,,,,,FF,,,,,,,,1.0017,,,,,,,,,,,,,,,,,,,,,,60fe5dcd522e58dce4ea67ac,61036dd58f446aaf42f4385d,2021-07-30_13h13.08.458,Simcolourproject_2stim_asymm_v5,2020.2.10,Win32,60,61025ae37ef11b136ea224fe,,,,,,,,,411,44.00002038,-54.66667902,1,0,0,response3disk,,4,4.666685879,-8.000010967,1,0,0,rectangle,4.666685879,-8.000010967,1,0,0,4.666685879,-8.000010967,1,0,0,1,11,171,126,1,,,,,,,,
,,,,,,,,,,,,,FF,,,,,,,,1.6105,,,,,,,,,,,,,,,,,,,,,,60fe5dcd522e58dce4ea67ac,61036dd58f446aaf42f4385d,2021-07-30_13h13.08.458,Simcolourproject_2stim_asymm_v5,2020.2.10,Win32,60,61025ae37ef11b136ea224fe,,,,,,,,,483,81.33335483,35.99999034,1,0,0,response1disk,,6,21.33339373,5.333322763,1,0,0,rectangle,21.33339373,5.333322763,1,0,0,21.33339373,5.333322763,1,0,0,1,12,172,135,1,,,,,,,,
,,,,,,,,,,,,,FF,,,,,,,,1.4498,,,,,,,,,,,,,,,,,,,,,,60fe5dcd522e58dce4ea67ac,61036dd58f446aaf42f4385d,2021-07-30_13h13.08.458,Simcolourproject_2stim_asymm_v5,2020.2.10,Win32,60,61025ae37ef11b136ea224fe,,,,,,,,,453,70.00002116,23.99998999,1,0,0,response1disk,,6,26.00001985,4.666656077,1,0,0,rectangle,26.00001985,4.666656077,1,0,0,26.00001985,4.666656077,1,0,0,1,13,173,97,1,,,,,,,,
,,,,,,,,,,,,,FF,,,,,,,,1.2486,,,,,,,,,,,,,,,,,,,,,,60fe5dcd522e58dce4ea67ac,61036dd58f446aaf42f4385d,2021-07-30_13h13.08.458,Simcolourproject_2stim_asymm_v5,2020.2.10,Win32,60,61025ae37ef11b136ea224fe,,,,,,,,,1830,-64.66660883,-38.00001186,1,0,0,response5disk,,2,-2.666606983,-1.07288E-05,1,0,0,rectangle,-2.666606983,-1.07288E-05,1,0,0,-2.666606983,-1.07288E-05,1,0,0,1,14,174,58,1,,,,,,,,
,,,,,,,,,,,,,FF,,,,,,,,0.9159,,,,,,,,,,,,,,,,,,,,,,60fe5dcd522e58dce4ea67ac,61036dd58f446aaf42f4385d,2021-07-30_13h13.08.458,Simcolourproject_2stim_asymm_v5,2020.2.10,Win32,60,61025ae37ef11b136ea224fe,,,,,,,,,2671,-39.33331543,-51.33334559,1,0,0,response5disk,,3,-8.666607161,-2.000010788,1,0,0,rectangle,42.66668701,71.33330439,1,0,0,-2.666606983,-2.666677475,1,0,0,1,15,175,156,1,,response1disk_3,TRUE,7,7,"[11,140,19,176,105,122,285,156,29,295,5,269,40,207,101,233,206,131,303,158]",1.8678,rectangle
,,,,,,,,,,,,,FF,,,,,,,,1.4345,,,,,,,,,,,,,,,,,,,,,,60fe5dcd522e58dce4ea67ac,61036dd58f446aaf42f4385d,2021-07-30_13h13.08.458,Simcolourproject_2stim_asymm_v5,2020.2.10,Win32,60,61025ae37ef11b136ea224fe,,,,,,,,,1248,35.33339415,-54.66667902,1,0,0,response3disk,,4,10.66668606,-7.333344281,1,0,0,rectangle,10.66668606,-7.333344281,1,0,0,10.66668606,-7.333344281,1,0,0,1,16,176,91,1,,,,,,,,
,,,,,,,,,,,,,FF,,,,,,,,1.1814,,,,,,,,,,,,,,,,,,,,,,60fe5dcd522e58dce4ea67ac,61036dd58f446aaf42f4385d,2021-07-30_13h13.08.458,Simcolourproject_2stim_asymm_v5,2020.2.10,Win32,60,61025ae37ef11b136ea224fe,,,,,,,,,9,-43.33331555,-59.33334583,1,0,0,response5disk,,3,-4.666607042,-7.333344281,1,0,0,rectangle,-4.666607042,-7.333344281,1,0,0,-4.666607042,-7.333344281,1,0,0,1,17,177,65,1,,,,,,,,
,,,,,,,,,,,,,FF,,,,,,,,1.1643,,,,,,,,,,,,,,,,,,,,,,60fe5dcd522e58dce4ea67ac,61036dd58f446aaf42f4385d,2021-07-30_13h13.08.458,Simcolourproject_2stim_asymm_v5,2020.2.10,Win32,60,61025ae37ef11b136ea224fe,,,,,,,,,242,62.66668761,-52.66667897,1,0,0,response3disk,,5,8.666685998,-1.07288E-05,1,0,0,rectangle,8.666685998,-1.07288E-05,1,0,0,8.666685998,-1.07288E-05,1,0,0,1,18,178,77,1,,,,,,,,
,,,,,,,,,,,,,FF,,,,,,,,1.1318,,,,,,,,,,,,,,,,,,,,,,60fe5dcd522e58dce4ea67ac,61036dd58f446aaf42f4385d,2021-07-30_13h13.08.458,Simcolourproject_2stim_asymm_v5,2020.2.10,Win32,60,61025ae37ef11b136ea224fe,,,,,,,,,3421,-57.33331597,-32.66667837,1,0,0,response5disk,,2,2.000019133,8.666656196,1,0,0,rectangle,2.000019133,8.666656196,1,0,0,2.000019133,8.666656196,1,0,0,1,19,179,154,1,,,,,,,,
,,,,,,,,,,,,,FF,,,,,,,,0.9972,,,,,,,,,,,,,,,,,,,,,,60fe5dcd522e58dce4ea67ac,61036dd58f446aaf42f4385d,2021-07-30_13h13.08.458,Simcolourproject_2stim_asymm_v5,2020.2.10,Win32,60,61025ae37ef11b136ea224fe,,,,,,,,,1594,-24.66660764,-53.33334565,1,0,0,response5disk,,3,14.66668618,7.99998951,1,0,0,rectangle,14.66668618,7.99998951,1,0,0,14.66668618,7.99998951,1,0,0,1,20,180,128,1,,,,,,,,
,,,,,,,,,,,,,FF,,,,,,,,3.1307,,,,,,,,,,,,,,,,,,,,,,60fe5dcd522e58dce4ea67ac,61036dd58f446aaf42f4385d,2021-07-30_13h13.08.458,Simcolourproject_2stim_asymm_v5,2020.2.10,Win32,60,61025ae37ef11b136ea224fe,,,,,,,,,4136,37.33339421,-49.33334553,1,0,0,response3disk,,4,12.66668612,-1.333344102,1,0,0,rectangle,12.66668612,-1.333344102,1,0,0,12.66668612,-1.333344102,1,0,0,1,21,181,133,1,,,,,,,,
,,,,,,,,,,,,,FF,,,,,,,,0.8982,,,,,,,,,,,,,,,,,,,,,,60fe5dcd522e58dce4ea67ac,61036dd58f446aaf42f4385d,2021-07-30_13h13.08.458,Simcolourproject_2stim_asymm_v5,2020.2.10,Win32,60,61025ae37ef11b136ea224fe,,,,,,,,,491,70.66668785,-22.66667807,1,0,0,response3disk,,5,15.33339355,-6.666677594,1,0,0,rectangle,15.33339355,-6.666677594,1,0,0,15.33339355,-6.666677594,1,0,0,1,22,182,61,1,,,,,,,,
,,,,,,,,,,,,,FF,,,,,,,,0.9319,,,,,,,,,,,,,,,,,,,,,,60fe5dcd522e58dce4ea67ac,61036dd58f446aaf42f4385d,2021-07-30_13h13.08.458,Simcolourproject_2stim_asymm_v5,2020.2.10,Win32,60,61025ae37ef11b136ea224fe,,,,,,,,,626,42.66668701,17.33332312,1,0,0,response1disk,,6,-8.666607161,-7.333344281,1,0,0,rectangle,-8.666607161,-7.333344281,1,0,0,-8.666607161,-7.333344281,1,0,0,1,23,183,103,1,,,,,,,,
,,,,,,,,,,,,,FF,,,,,,,,1.1311,,,,,,,,,,,,,,,,,,,,,,60fe5dcd522e58dce4ea67ac,61036dd58f446aaf42f4385d,2021-07-30_13h13.08.458,Simcolourproject_2stim_asymm_v5,2020.2.10,Win32,60,61025ae37ef11b136ea224fe,,,,,,,,,1253,48.0000205,14.66665637,1,0,0,response1disk,,6,19.33339367,-4.666677535,1,0,0,rectangle,19.33339367,-4.666677535,1,0,0,19.33339367,-4.666677535,1,0,0,1,24,184,38,1,,,,,,,,
,,,,,,,,,,,,,FF,,,,,,,,1.3489,,,,,,,,,,,,,,,,,,,,,,60fe5dcd522e58dce4ea67ac,61036dd58f446aaf42f4385d,2021-07-30_13h13.08.458,Simcolourproject_2stim_asymm_v5,2020.2.10,Win32,60,61025ae37ef11b136ea224fe,,,,,,,,,3859,14.00001949,-46.66667879,1,0,0,response3disk,,4,0.66668576,-8.000010967,1,0,0,rectangle,0.66668576,-8.000010967,1,0,0,0.66668576,-8.000010967,1,0,0,1,25,185,89,1,,,,,,,,
,,,,,,,,,,,,,FF,,,,,,,,1.1027,,,,,,,,,,,,,,,,,,,,,,60fe5dcd522e58dce4ea67ac,61036dd58f446aaf42f4385d,2021-07-30_13h13.08.458,Simcolourproject_2stim_asymm_v5,2020.2.10,Win32,60,61025ae37ef11b136ea224fe,,,,,,,,,403,50.00002056,-26.66667819,1,0,0,response3disk,,5,20.66668636,-2.666677475,1,0,0,rectangle,20.66668636,-2.666677475,1,0,0,20.66668636,-2.666677475,1,0,0,1,26,186,99,1,,,,,,,,
,,,,,,,,,,,,,FF,,,,,,,,1.365,,,,,,,,,,,,,,,,,,,,,,60fe5dcd522e58dce4ea67ac,61036dd58f446aaf42f4385d,2021-07-30_13h13.08.458,Simcolourproject_2stim_asymm_v5,2020.2.10,Win32,60,61025ae37ef11b136ea224fe,,,,,,,,,2087,-46.66660829,-54.66667902,1,0,0,response5disk,,3,-8.666607161,9.999989569,1,0,0,rectangle,-8.666607161,9.999989569,1,0,0,-8.666607161,9.999989569,1,0,0,1,27,187,13,1,,,,,,,,
,,,,,,,,,,,,,FF,,,,,,,,1.2314,,,,,,,,,,,,,,,,,,,,,,60fe5dcd522e58dce4ea67ac,61036dd58f446aaf42f4385d,2021-07-30_13h13.08.458,Simcolourproject_2stim_asymm_v5,2020.2.10,Win32,60,61025ae37ef11b136ea224fe,,,,,,,,,1156,-61.99998277,-28.66667825,1,0,0,response5disk,,2,-21.99998158,-1.333344102,1,0,0,rectangle,-21.99998158,-1.333344102,1,0,0,-21.99998158,-1.333344102,1,0,0,1,28,188,104,1,,,,,,,,
,,,,,,,,,,,,,FF,,,,,,,,1.1678,,,,,,,,,,,,,,,,,,,,,,60fe5dcd522e58dce4ea67ac,61036dd58f446aaf42f4385d,2021-07-30_13h13.08.458,Simcolourproject_2stim_asymm_v5,2020.2.10,Win32,60,61025ae37ef11b136ea224fe,,,,,,,,,1469,-72.66660907,-29.33334494,1,0,0,response5disk,,2,-27.99998176,-2.000010788,1,0,0,rectangle,-27.99998176,-2.000010788,1,0,0,-27.99998176,-2.000010788,1,0,0,1,29,189,33,1,,,,,,,,
,,,,,,,,,,,,,FF,,,,,,,,0.8859,,,,,,,,,,,,,,,,,,,,,,60fe5dcd522e58dce4ea67ac,61036dd58f446aaf42f4385d,2021-07-30_13h13.08.458,Simcolourproject_2stim_asymm_v5,2020.2.10,Win32,60,61025ae37ef11b136ea224fe,,,,,,,,,2833,-56.66660859,27.33330307,1,0,0,response7disk,,1,-3.999981046,3.99998939,1,0,0,rectangle,-3.999981046,3.99998939,1,0,0,-3.999981046,3.99998939,1,0,0,1,30,190,102,1,,,,,,,,
,,,,,,,,,,,,,FF,,,,,,,,0.732,,,,,,,,,,,,,,,,,,,,,,60fe5dcd522e58dce4ea67ac,61036dd58f446aaf42f4385d,2021-07-30_13h13.08.458,Simcolourproject_2stim_asymm_v5,2020.2.10,Win32,60,61025ae37ef11b136ea224fe,,,,,,,,,0,-23.99998164,71.99999142,1,0,0,response7disk,,0,9.333393375,5.99998945,1,0,0,rectangle,9.333393375,5.99998945,1,0,0,9.333393375,5.99998945,1,0,0,1,31,191,29,1,,,,,,,,
,,,,,,,,,,,,,FF,,,,,,,,1.0192,,,,,,,,,,,,,,,,,,,,,,60fe5dcd522e58dce4ea67ac,61036dd58f446aaf42f4385d,2021-07-30_13h13.08.458,Simcolourproject_2stim_asymm_v5,2020.2.10,Win32,60,61025ae37ef11b136ea224fe,,,,,,,,,2197,32.66668671,81.99999171,1,0,0,response1disk,,7,6.666685939,8.666656196,1,0,0,rectangle,6.666685939,8.666656196,1,0,0,6.666685939,8.666656196,1,0,0,1,32,192,111,1,,,,,,,,
,,,,,,,,,,,,,FF,,,,,,,,1.5531,,,,,,,,,,,,,,,,,,,,,,60fe5dcd522e58dce4ea67ac,61036dd58f446aaf42f4385d,2021-07-30_13h13.08.458,Simcolourproject_2stim_asymm_v5,2020.2.10,Win32,60,61025ae37ef11b136ea224fe,,,,,,,,,746,32.66668671,-70.00001281,1,0,0,response3disk,,4,1.9735E-05,3.333322704,1,0,0,rectangle,1.9735E-05,3.333322704,1,0,0,1.9735E-05,3.333322704,1,0,0,1,33,193,119,1,,,,,,,,
,,,,,,,,,,,,,FF,,,,,,,,1.6482,,,,,,,,,,,,,,,,,,,,,,60fe5dcd522e58dce4ea67ac,61036dd58f446aaf42f4385d,2021-07-30_13h13.08.458,Simcolourproject_2stim_asymm_v5,2020.2.10,Win32,60,61025ae37ef11b136ea224fe,,,,,,,,,458,-44.66660823,-46.0000121,1,0,0,response5disk,,3,-11.3333146,2.666656017,1,0,0,rectangle,-11.3333146,2.666656017,1,0,0,-11.3333146,2.666656017,1,0,0,1,34,194,147,1,,,,,,,,
,,,,,,,,,,,,,FF,,,,,,,,1.5989,,,,,,,,,,,,,,,,,,,,,,60fe5dcd522e58dce4ea67ac,61036dd58f446aaf42f4385d,2021-07-30_13h13.08.458,Simcolourproject_2stim_asymm_v5,2020.2.10,Win32,60,61025ae37ef11b136ea224fe,,,,,,,,,2629,69.33335447,-34.00001174,1,0,0,response3disk,,5,2.66668582,2.666656017,1,0,0,rectangle,2.66668582,2.666656017,1,0,0,2.66668582,2.666656017,1,0,0,1,35,195,140,1,,,,,,,,
,,,,,,,,,,,,,FF,,,,,,,,1.1151,,,,,,,,,,,,,,,,,,,,,,60fe5dcd522e58dce4ea67ac,61036dd58f446aaf42f4385d,2021-07-30_13h13.08.458,Simcolourproject_2stim_asymm_v5,2020.2.10,Win32,60,61025ae37ef11b136ea224fe,,,,,,,,,2102,-57.99998266,-34.00001174,1,0,0,response5disk,,2,-23.99998164,-8.000010967,1,0,0,rectangle,-23.99998164,-8.000010967,1,0,0,-23.99998164,-8.000010967,1,0,0,1,36,196,149,1,,,,,,,,
,,,,,,,,,,,,,FF,,,,,,,,2.181,,,,,,,,,,,,,,,,,,,,,,60fe5dcd522e58dce4ea67ac,61036dd58f446aaf42f4385d,2021-07-30_13h13.08.458,Simcolourproject_2stim_asymm_v5,2020.2.10,Win32,60,61025ae37ef11b136ea224fe,,,,,,,,,4310,-39.99998212,-52.00001228,1,0,0,response5disk,,3,-12.66660728,-4.666677535,1,0,0,rectangle,-12.66660728,-4.666677535,1,0,0,-12.66660728,-4.666677535,1,0,0,1,37,197,1,1,,,,,,,,
,,,,,,,,,,,,,FF,,,,,,,,1.2185,,,,,,,,,,,,,,,,,,,,,,60fe5dcd522e58dce4ea67ac,61036dd58f446aaf42f4385d,2021-07-30_13h13.08.458,Simcolourproject_2stim_asymm_v5,2020.2.10,Win32,60,61025ae37ef11b136ea224fe,,,,,,,,,2212,74.00002128,-48.00001216,1,0,0,response3disk,,5,14.00001949,-6.666677594,1,0,0,rectangle,14.00001949,-6.666677594,1,0,0,14.00001949,-6.666677594,1,0,0,1,38,198,107,1,,,,,,,,
,,,,,,,,,,,,,FF,,,,,,,,0.9488,,,,,,,,,,,,,,,,,,,,,,60fe5dcd522e58dce4ea67ac,61036dd58f446aaf42f4385d,2021-07-30_13h13.08.458,Simcolourproject_2stim_asymm_v5,2020.2.10,Win32,60,61025ae37ef11b136ea224fe,,,,,,,,,717,-65.33331621,-28.66667825,1,0,0,response5disk,,2,-1.999980986,3.333322704,1,0,0,rectangle,-1.999980986,3.333322704,1,0,0,-1.999980986,3.333322704,1,0,0,1,39,199,42,1,,,,,,,,
,,,,,,,,,,,,,FF,,,,,,,,1.2988,,,,,,,,,,,,,,,,,,,,,,60fe5dcd522e58dce4ea67ac,61036dd58f446aaf42f4385d,2021-07-30_13h13.08.458,Simcolourproject_2stim_asymm_v5,2020.2.10,Win32,60,61025ae37ef11b136ea224fe,,,,,,,,,1012,58.66668749,-48.66667885,1,0,0,response3disk,,5,12.00001943,-8.000010967,1,0,0,rectangle,12.00001943,-8.000010967,1,0,0,12.00001943,-8.000010967,1,0,0,1,40,200,138,1,,,,,,,,
,,,,,,,,,,,,,FF,,,,,,,,1.0483,,,,,,,,,,,,,,,,,,,,,,60fe5dcd522e58dce4ea67ac,61036dd58f446aaf42f4385d,2021-07-30_13h13.08.458,Simcolourproject_2stim_asymm_v5,2020.2.10,Win32,60,61025ae37ef11b136ea224fe,,,,,,,,,970,-51.33331579,25.33330301,1,0,0,response7disk,,1,7.333393315,3.99998939,1,0,0,rectangle,7.333393315,3.99998939,1,0,0,7.333393315,3.99998939,1,0,0,1,41,201,15,1,,,,,,,,
,,,,,,,,,,,,,FF,,,,,,,,0.9649,,,,,,,,,,,,,,,,,,,,,,60fe5dcd522e58dce4ea67ac,61036dd58f446aaf42f4385d,2021-07-30_13h13.08.458,Simcolourproject_2stim_asymm_v5,2020.2.10,Win32,60,61025ae37ef11b136ea224fe,,,,,,,,,1816,-27.99998176,41.99999052,1,0,0,response7disk,,0,4.000019193,4.666656077,1,0,0,rectangle,4.000019193,4.666656077,1,0,0,4.000019193,4.666656077,1,0,0,1,42,202,114,1,,,,,,,,
,,,,,,,,,,,,,FF,,,,,,,,1.3149,,,,,,,,,,,,,,,,,,,,,,60fe5dcd522e58dce4ea67ac,61036dd58f446aaf42f4385d,2021-07-30_13h13.08.458,Simcolourproject_2stim_asymm_v5,2020.2.10,Win32,60,61025ae37ef11b136ea224fe,,,,,,,,,4091,16.00001955,-72.00001287,1,0,0,response3disk,,4,2.000019133,-0.666677415,1,0,0,rectangle,2.000019133,-0.666677415,1,0,0,2.000019133,-0.666677415,1,0,0,1,43,203,144,1,,,,,,,,
,,,,,,,,,,,,,FF,,,,,,,,1.5326,,,,,,,,,,,,,,,,,,,,,,60fe5dcd522e58dce4ea67ac,61036dd58f446aaf42f4385d,2021-07-30_13h13.08.458,Simcolourproject_2stim_asymm_v5,2020.2.10,Win32,60,61025ae37ef11b136ea224fe,,,,,,,,,2251,56.66668743,-33.33334506,1,0,0,response3disk,,5,18.6666863,-7.333344281,1,0,0,rectangle,18.6666863,-7.333344281,1,0,0,18.6666863,-7.333344281,1,0,0,1,44,204,150,1,,,,,,,,
,,,,,,,,,,,,,FF,,,,,,,,0.9649,,,,,,,,,,,,,,,,,,,,,,60fe5dcd522e58dce4ea67ac,61036dd58f446aaf42f4385d,2021-07-30_13h13.08.458,Simcolourproject_2stim_asymm_v5,2020.2.10,Win32,60,61025ae37ef11b136ea224fe,,,,,,,,,1158,-54.66660853,-24.00001144,1,0,0,response5disk,,2,-11.3333146,5.99998945,1,0,0,rectangle,36.00002015,-62.00001258,1,0,0,-1.3333143,-3.333344162,1,0,0,1,45,205,94,1,,response3disk_3,TRUE,4,4,"[11,140,19,176,105,122,285,156,29,295,5,269,40,207,101,233,206,131,303,158]",1.3144,rectangle
,,,,,,,,,,,,,FF,,,,,,,,1.1821,,,,,,,,,,,,,,,,,,,,,,60fe5dcd522e58dce4ea67ac,61036dd58f446aaf42f4385d,2021-07-30_13h13.08.458,Simcolourproject_2stim_asymm_v5,2020.2.10,Win32,60,61025ae37ef11b136ea224fe,,,,,,,,,540,44.00002038,25.33330301,1,0,0,response1disk,,6,-4.666607042,1.999989331,1,0,0,rectangle,35.33339415,72.6666581,1,0,0,2.000019133,6.666656137,1,0,0,1,46,206,35,1,,response1disk_3,TRUE,7,7,"[11,140,19,176,105,122,285,156,29,295,5,269,40,207,101,233,206,131,303,158]",1.9837,rectangle
,,,,,,,,,,,,,FF,,,,,,,,1.1143,,,,,,,,,,,,,,,,,,,,,,60fe5dcd522e58dce4ea67ac,61036dd58f446aaf42f4385d,2021-07-30_13h13.08.458,Simcolourproject_2stim_asymm_v5,2020.2.10,Win32,60,61025ae37ef11b136ea224fe,,,,,,,,,144,22.66668642,-43.33334535,1,0,0,response3disk,,4,9.333393375,-2.666677475,1,0,0,rectangle,9.333393375,-2.666677475,1,0,0,9.333393375,-2.666677475,1,0,0,1,47,207,155,1,,,,,,,,
,,,,,,,,,,,,,FF,,,,,,,,0.9151,,,,,,,,,,,,,,,,,,,,,,60fe5dcd522e58dce4ea67ac,61036dd58f446aaf42f4385d,2021-07-30_13h13.08.458,Simcolourproject_2stim_asymm_v5,2020.2.10,Win32,60,61025ae37ef11b136ea224fe,,,,,,,,,281,-28.66660776,-47.33334547,1,0,0,response5disk,,3,-7.333314478,5.333322763,1,0,0,rectangle,-7.333314478,5.333322763,1,0,0,-7.333314478,5.333322763,1,0,0,1,48,208,19,1,,,,,,,,
,,,,,,,,,,,,,FF,,,,,,,,1.7155,,,,,,,,,,,,,,,,,,,,,,60fe5dcd522e58dce4ea67ac,61036dd58f446aaf42f4385d,2021-07-30_13h13.08.458,Simcolourproject_2stim_asymm_v5,2020.2.10,Win32,60,61025ae37ef11b136ea224fe,,,,,,,,,475,14.66668618,-55.33334571,1,0,0,response3disk,,4,-1.999980986,2.666656017,1,0,0,rectangle,-1.999980986,2.666656017,1,0,0,-1.999980986,2.666656017,1,0,0,1,49,209,153,1,,,,,,,,
,,,,,,,,,,,,,FF,,,,,,,,2.2533,,,,,,,,,,,,,,,,,,,,,,60fe5dcd522e58dce4ea67ac,61036dd58f446aaf42f4385d,2021-07-30_13h13.08.458,Simcolourproject_2stim_asymm_v5,2020.2.10,Win32,60,61025ae37ef11b136ea224fe,,,,,,,,,1438,19.33339367,-57.33334577,1,0,0,response3disk,,4,-13.99998134,3.333322704,1,0,0,rectangle,-13.99998134,3.333322704,1,0,0,-13.99998134,3.333322704,1,0,0,1,50,210,86,1,,,,,,,,
,,,,,,,,,,,,,FF,,,,,,,,1.145,,,,,,,,,,,,,,,,,,,,,,60fe5dcd522e58dce4ea67ac,61036dd58f446aaf42f4385d,2021-07-30_13h13.08.458,Simcolourproject_2stim_asymm_v5,2020.2.10,Win32,60,61025ae37ef11b136ea224fe,,,,,,,,,2220,51.33335394,-30.00001162,1,0,0,response3disk,,5,17.33339361,3.333322704,1,0,0,rectangle,17.33339361,3.333322704,1,0,0,17.33339361,3.333322704,1,0,0,1,51,211,143,1,,,,,,,,
,,,,,,,,,,,,,FF,,,,,,,,1.6642,,,,,,,,,,,,,,,,,,,,,,60fe5dcd522e58dce4ea67ac,61036dd58f446aaf42f4385d,2021-07-30_13h13.08.458,Simcolourproject_2stim_asymm_v5,2020.2.10,Win32,60,61025ae37ef11b136ea224fe,,,,,,,,,2458,32.00002003,73.99999148,1,0,0,response1disk,,7,14.00001949,-2.000010788,1,0,0,rectangle,14.00001949,-2.000010788,1,0,0,14.00001949,-2.000010788,1,0,0,1,52,212,2,1,,,,,,,,
,,,,,,,,,,,,,FF,,,,,,,,0.9321,,,,,,,,,,,,,,,,,,,,,,60fe5dcd522e58dce4ea67ac,61036dd58f446aaf42f4385d,2021-07-30_13h13.08.458,Simcolourproject_2stim_asymm_v5,2020.2.10,Win32,60,61025ae37ef11b136ea224fe,,,,,,,,,3152,-47.33331567,-54.66667902,1,0,0,response5disk,,3,-5.333314419,0.666655958,1,0,0,rectangle,-5.333314419,0.666655958,1,0,0,-5.333314419,0.666655958,1,0,0,1,53,213,8,1,,,,,,,,
,,,,,,,,,,,,,FF,,,,,,,,1.1844,,,,,,,,,,,,,,,,,,,,,,60fe5dcd522e58dce4ea67ac,61036dd58f446aaf42f4385d,2021-07-30_13h13.08.458,Simcolourproject_2stim_asymm_v5,2020.2.10,Win32,60,61025ae37ef11b136ea224fe,,,,,,,,,3418,22.66668642,-54.66667902,1,0,0,response3disk,,4,-0.666606923,-8.666677654,1,0,0,rectangle,-0.666606923,-8.666677654,1,0,0,-0.666606923,-8.666677654,1,0,0,1,54,214,69,1,,,,,,,,
,,,,,,,,,,,,,FF,,,,,,,,1.2158,,,,,,,,,,,,,,,,,,,,,,60fe5dcd522e58dce4ea67ac,61036dd58f446aaf42f4385d,2021-07-30_13h13.08.458,Simcolourproject_2stim_asymm_v5,2020.2.10,Win32,60,61025ae37ef11b136ea224fe,,,,,,,,,2022,46.66668713,-32.66667837,1,0,0,response3disk,,5,23.33339379,-6.000010908,1,0,0,rectangle,23.33339379,-6.000010908,1,0,0,23.33339379,-6.000010908,1,0,0,1,55,215,101,1,,,,,,,,
,,,,,,,,,,,,,FF,,,,,,,,1.2348,,,,,,,,,,,,,,,,,,,,,,60fe5dcd522e58dce4ea67ac,61036dd58f446aaf42f4385d,2021-07-30_13h13.08.458,Simcolourproject_2stim_asymm_v5,2020.2.10,Win32,60,61025ae37ef11b136ea224fe,,,,,,,,,4035,-56.66660859,-24.00001144,1,0,0,response5disk,,2,-25.9999817,-1.333344102,1,0,0,rectangle,-25.9999817,-1.333344102,1,0,0,-25.9999817,-1.333344102,1,0,0,1,56,216,59,1,,,,,,,,
,,,,,,,,,,,,,FF,,,,,,,,1.1194,,,,,,,,,,,,,,,,,,,,,,60fe5dcd522e58dce4ea67ac,61036dd58f446aaf42f4385d,2021-07-30_13h13.08.458,Simcolourproject_2stim_asymm_v5,2020.2.10,Win32,60,61025ae37ef11b136ea224fe,,,,,,,,,2492,23.33339379,-46.66667879,1,0,0,response3disk,,4,-1.3333143,-4.000010848,1,0,0,rectangle,-1.3333143,-4.000010848,1,0,0,-1.3333143,-4.000010848,1,0,0,1,57,217,109,1,,,,,,,,
,,,,,,,,,,,,,FF,,,,,,,,1.4977,,,,,,,,,,,,,,,,,,,,,,60fe5dcd522e58dce4ea67ac,61036dd58f446aaf42f4385d,2021-07-30_13h13.08.458,Simcolourproject_2stim_asymm_v5,2020.2.10,Win32,60,61025ae37ef11b136ea224fe,,,,,,,,,3215,40.00002027,94.66665876,1,0,0,response1disk,,7,-0.666606923,-2.666677475,1,0,0,rectangle,-0.666606923,-2.666677475,1,0,0,-0.666606923,-2.666677475,1,0,0,1,58,218,142,1,,,,,,,,
,,,,,,,,,,,,,FF,,,,,,,,1.5645,,,,,,,,,,,,,,,,,,,,,,60fe5dcd522e58dce4ea67ac,61036dd58f446aaf42f4385d,2021-07-30_13h13.08.458,Simcolourproject_2stim_asymm_v5,2020.2.10,Win32,60,61025ae37ef11b136ea224fe,,,,,,,,,367,-69.99998301,23.33330295,1,0,0,response7disk,,1,-11.99998128,11.99998963,1,0,0,rectangle,-11.99998128,11.99998963,1,0,0,-11.99998128,11.99998963,1,0,0,1,59,219,67,1,,,,,,,,
,,,,,,,,,,,,,FF,,,,,,,,1.5982,,,,,,,,,,,,,,,,,,,,,,60fe5dcd522e58dce4ea67ac,61036dd58f446aaf42f4385d,2021-07-30_13h13.08.458,Simcolourproject_2stim_asymm_v5,2020.2.10,Win32,60,61025ae37ef11b136ea224fe,,,,,,,,,3826,32.00002003,-58.00001246,1,0,0,response3disk,,4,-4.666607042,-1.07288E-05,1,0,0,rectangle,-4.666607042,-1.07288E-05,1,0,0,-4.666607042,-1.07288E-05,1,0,0,1,60,220,75,1,,,,,,,,
,,,,,,,,,,,,,FF,,,,,,,,2.5641,,,,,,,,,,,,,,,,,,,,,,60fe5dcd522e58dce4ea67ac,61036dd58f446aaf42f4385d,2021-07-30_13h13.08.458,Simcolourproject_2stim_asymm_v5,2020.2.10,Win32,60,61025ae37ef11b136ea224fe,,,,,,,,,880,54.00002068,-44.00001204,1,0,0,response3disk,,5,18.00001961,-4.666677535,1,0,0,rectangle,18.00001961,-4.666677535,1,0,0,18.00001961,-4.666677535,1,0,0,1,61,221,105,1,,,,,,,,
,,,,,,,,,,,,,FF,,,,,,,,1.1316,,,,,,,,,,,,,,,,,,,,,,60fe5dcd522e58dce4ea67ac,61036dd58f446aaf42f4385d,2021-07-30_13h13.08.458,Simcolourproject_2stim_asymm_v5,2020.2.10,Win32,60,61025ae37ef11b136ea224fe,,,,,,,,,1032,-32.66660788,-44.00001204,1,0,0,response5disk,,3,-1.999980986,-4.666677535,1,0,0,rectangle,-1.999980986,-4.666677535,1,0,0,-1.999980986,-4.666677535,1,0,0,1,62,222,3,1,,,,,,,,
,,,,,,,,,,,,,FF,,,,,,,,1.3984,,,,,,,,,,,,,,,,,,,,,,60fe5dcd522e58dce4ea67ac,61036dd58f446aaf42f4385d,2021-07-30_13h13.08.458,Simcolourproject_2stim_asymm_v5,2020.2.10,Win32,60,61025ae37ef11b136ea224fe,,,,,,,,,113,51.33335394,-60.6666792,1,0,0,response3disk,,4,7.333393315,-6.666677594,1,0,0,rectangle,7.333393315,-6.666677594,1,0,0,7.333393315,-6.666677594,1,0,0,1,63,223,151,1,,,,,,,,
,,,,,,,,,,,,,FF,,,,,,,,0.966,,,,,,,,,,,,,,,,,,,,,,60fe5dcd522e58dce4ea67ac,61036dd58f446aaf42f4385d,2021-07-30_13h13.08.458,Simcolourproject_2stim_asymm_v5,2020.2.10,Win32,60,61025ae37ef11b136ea224fe,,,,,,,,,4247,54.66668737,-31.333345,1,0,0,response3disk,,5,-7.333314478,6.666656137,1,0,0,rectangle,-7.333314478,6.666656137,1,0,0,-7.333314478,6.666656137,1,0,0,1,64,224,121,1,,,,,,,,
,,,,,,,,,,,,,FF,,,,,,,,1.2152,,,,,,,,,,,,,,,,,,,,,,60fe5dcd522e58dce4ea67ac,61036dd58f446aaf42f4385d,2021-07-30_13h13.08.458,Simcolourproject_2stim_asymm_v5,2020.2.10,Win32,60,61025ae37ef11b136ea224fe,,,,,,,,,3233,44.00002038,-32.00001168,1,0,0,response3disk,,5,15.33339355,0.666655958,1,0,0,rectangle,15.33339355,0.666655958,1,0,0,15.33339355,0.666655958,1,0,0,1,65,225,157,1,,,,,,,,
,,,,,,,,,,,,,FF,,,,,,,,1.1312,,,,,,,,,,,,,,,,,,,,,,60fe5dcd522e58dce4ea67ac,61036dd58f446aaf42f4385d,2021-07-30_13h13.08.458,Simcolourproject_2stim_asymm_v5,2020.2.10,Win32,60,61025ae37ef11b136ea224fe,,,,,,,,,1745,-60.66660871,-21.3333447,1,0,0,response5disk,,2,-26.6666077,0.666655958,1,0,0,rectangle,-26.6666077,0.666655958,1,0,0,-26.6666077,0.666655958,1,0,0,1,66,226,82,1,,,,,,,,
,,,,,,,,,,,,,FF,,,,,,,,1.9651,,,,,,,,,,,,,,,,,,,,,,60fe5dcd522e58dce4ea67ac,61036dd58f446aaf42f4385d,2021-07-30_13h13.08.458,Simcolourproject_2stim_asymm_v5,2020.2.10,Win32,60,61025ae37ef11b136ea224fe,,,,,,,,,3409,28.66668659,-50.00001222,1,0,0,response3disk,,4,0.66668576,-13.33334446,1,0,0,rectangle,0.66668576,-13.33334446,1,0,0,0.66668576,-13.33334446,1,0,0,1,67,227,24,1,,,,,,,,
,,,,,,,,,,,,,FF,,,,,,,,2.3637,,,,,,,,,,,,,,,,,,,,,,60fe5dcd522e58dce4ea67ac,61036dd58f446aaf42f4385d,2021-07-30_13h13.08.458,Simcolourproject_2stim_asymm_v5,2020.2.10,Win32,60,61025ae37ef11b136ea224fe,,,,,,,,,2860,62.66668761,-16.00001121,1,0,0,response3disk,,5,3.333393196,5.99998945,1,0,0,rectangle,3.333393196,5.99998945,1,0,0,3.333393196,5.99998945,1,0,0,1,68,228,125,1,,,,,,,,
,,,,,,,,,,,,,FF,,,,,,,,1.132,,,,,,,,,,,,,,,,,,,,,,60fe5dcd522e58dce4ea67ac,61036dd58f446aaf42f4385d,2021-07-30_13h13.08.458,Simcolourproject_2stim_asymm_v5,2020.2.10,Win32,60,61025ae37ef11b136ea224fe,,,,,,,,,3660,53.333354,23.99998999,1,0,0,response1disk,,6,-7.999981165,-2.666677475,1,0,0,rectangle,-7.999981165,-2.666677475,1,0,0,-7.999981165,-2.666677475,1,0,0,1,69,229,116,1,,,,,,,,
,,,,,,,,,,,,,FF,,,,,,,,1.0609,,,,,,,,,,,,,,,,,,,,,,60fe5dcd522e58dce4ea67ac,61036dd58f446aaf42f4385d,2021-07-30_13h13.08.458,Simcolourproject_2stim_asymm_v5,2020.2.10,Win32,60,61025ae37ef11b136ea224fe,,,,,,,,,4119,-55.33331591,27.33330307,1,0,0,response7disk,,1,-9.999981225,7.333322823,1,0,0,rectangle,-9.999981225,7.333322823,1,0,0,-9.999981225,7.333322823,1,0,0,1,70,230,9,1,,,,,,,,
,,,,,,,,,,,,,FF,,,,,,,,0.9484,,,,,,,,,,,,,,,,,,,,,,60fe5dcd522e58dce4ea67ac,61036dd58f446aaf42f4385d,2021-07-30_13h13.08.458,Simcolourproject_2stim_asymm_v5,2020.2.10,Win32,60,61025ae37ef11b136ea224fe,,,,,,,,,1040,-44.66660823,-25.33334482,1,0,0,response5disk,,2,-16.6666074,-1.07288E-05,1,0,0,rectangle,-16.6666074,-1.07288E-05,1,0,0,-16.6666074,-1.07288E-05,1,0,0,1,71,231,28,1,,,,,,,,
,,,,,,,,,,,,,FF,,,,,,,,0.9151,,,,,,,,,,,,,,,,,,,,,,60fe5dcd522e58dce4ea67ac,61036dd58f446aaf42f4385d,2021-07-30_13h13.08.458,Simcolourproject_2stim_asymm_v5,2020.2.10,Win32,60,61025ae37ef11b136ea224fe,,,,,,,,,3197,-49.99998242,27.99999011,1,0,0,response7disk,,1,-12.66660728,9.333322883,1,0,0,rectangle,30.66668665,-59.33334583,1,0,0,-12.66660728,-0.666677415,1,0,0,1,72,232,139,1,,response3disk_3,TRUE,4,4,"[11,140,19,176,105,122,285,156,29,295,5,269,40,207,101,233,206,131,303,158]",1.298,rectangle
,,,,,,,,,,,,,FF,,,,,,,,1.0516,,,,,,,,,,,,,,,,,,,,,,60fe5dcd522e58dce4ea67ac,61036dd58f446aaf42f4385d,2021-07-30_13h13.08.458,Simcolourproject_2stim_asymm_v5,2020.2.10,Win32,60,61025ae37ef11b136ea224fe,,,,,,,,,808,-26.6666077,-50.66667891,1,0,0,response5disk,,3,-8.666607161,-5.333344221,1,0,0,rectangle,-8.666607161,-5.333344221,1,0,0,-8.666607161,-5.333344221,1,0,0,1,73,233,95,1,,,,,,,,
,,,,,,,,,,,,,FF,,,,,,,,1.0311,,,,,,,,,,,,,,,,,,,,,,60fe5dcd522e58dce4ea67ac,61036dd58f446aaf42f4385d,2021-07-30_13h13.08.458,Simcolourproject_2stim_asymm_v5,2020.2.10,Win32,60,61025ae37ef11b136ea224fe,,,,,,,,,3662,-33.33331525,-38.66667855,1,0,0,response5disk,,3,-22.66660758,-13.33334446,1,0,0,rectangle,-22.66660758,-13.33334446,1,0,0,-22.66660758,-13.33334446,1,0,0,1,74,234,16,1,,,,,,,,
,,,,,,,,,,,,,FF,,,,,,,,1.0187,,,,,,,,,,,,,,,,,,,,,,60fe5dcd522e58dce4ea67ac,61036dd58f446aaf42f4385d,2021-07-30_13h13.08.458,Simcolourproject_2stim_asymm_v5,2020.2.10,Win32,60,61025ae37ef11b136ea224fe,,,,,,,,,1739,40.66668695,-45.33334541,1,0,0,response3disk,,4,14.66668618,-10.66667771,1,0,0,rectangle,14.66668618,-10.66667771,1,0,0,14.66668618,-10.66667771,1,0,0,1,75,235,100,1,,,,,,,,
,,,,,,,,,,,,,FF,,,,,,,,1.2481,,,,,,,,,,,,,,,,,,,,,,60fe5dcd522e58dce4ea67ac,61036dd58f446aaf42f4385d,2021-07-30_13h13.08.458,Simcolourproject_2stim_asymm_v5,2020.2.10,Win32,60,61025ae37ef11b136ea224fe,,,,,,,,,4064,50.66668725,-27.33334488,1,0,0,response3disk,,5,21.33339373,-1.333344102,1,0,0,rectangle,21.33339373,-1.333344102,1,0,0,21.33339373,-1.333344102,1,0,0,1,76,236,18,1,,,,,,,,
,,,,,,,,,,,,,FF,,,,,,,,1.0491,,,,,,,,,,,,,,,,,,,,,,60fe5dcd522e58dce4ea67ac,61036dd58f446aaf42f4385d,2021-07-30_13h13.08.458,Simcolourproject_2stim_asymm_v5,2020.2.10,Win32,60,61025ae37ef11b136ea224fe,,,,,,,,,2367,-56.66660859,-30.00001162,1,0,0,response5disk,,2,-11.3333146,-8.666677654,1,0,0,rectangle,-11.3333146,-8.666677654,1,0,0,-11.3333146,-8.666677654,1,0,0,1,77,237,83,1,,,,,,,,
,,,,,,,,,,,,,FF,,,,,,,,0.9819,,,,,,,,,,,,,,,,,,,,,,60fe5dcd522e58dce4ea67ac,61036dd58f446aaf42f4385d,2021-07-30_13h13.08.458,Simcolourproject_2stim_asymm_v5,2020.2.10,Win32,60,61025ae37ef11b136ea224fe,,,,,,,,,1113,34.00002009,-54.00001234,1,0,0,response3disk,,4,2.000019133,1.999989331,1,0,0,rectangle,2.000019133,1.999989331,1,0,0,2.000019133,1.999989331,1,0,0,1,78,238,137,1,,,,,,,,
,,,,,,,,,,,,,FF,,,,,,,,2.0146,,,,,,,,,,,,,,,,,,,,,,60fe5dcd522e58dce4ea67ac,61036dd58f446aaf42f4385d,2021-07-30_13h13.08.458,Simcolourproject_2stim_asymm_v5,2020.2.10,Win32,60,61025ae37ef11b136ea224fe,,,,,,,,,3349,35.33339415,-56.0000124,1,0,0,response3disk,,4,12.66668612,-4.000010848,1,0,0,rectangle,12.66668612,-4.000010848,1,0,0,12.66668612,-4.000010848,1,0,0,1,79,239,92,1,,,,,,,,
,,,,,,,,,,,,,FF,,,,,,,,1.3144,,,,,,,,,,,,,,,,,,,,,,60fe5dcd522e58dce4ea67ac,61036dd58f446aaf42f4385d,2021-07-30_13h13.08.458,Simcolourproject_2stim_asymm_v5,2020.2.10,Win32,60,61025ae37ef11b136ea224fe,,,,,,,,,2832,-46.66660829,65.99999124,1,0,0,response7disk,,0,-15.9999814,5.99998945,1,0,0,rectangle,-15.9999814,5.99998945,1,0,0,-15.9999814,5.99998945,1,0,0,1,80,240,96,1,,,,,,,,
,,,,,,,,,,,,,FF,,,,,,,,2.0807,,,,,,,,,,,,,,,,,,,,,,60fe5dcd522e58dce4ea67ac,61036dd58f446aaf42f4385d,2021-07-30_13h13.08.458,Simcolourproject_2stim_asymm_v5,2020.2.10,Win32,60,61025ae37ef11b136ea224fe,,,,,,,,,3449,60.66668755,-42.00001198,1,0,0,response3disk,,5,11.33339343,1.999989331,1,0,0,rectangle,11.33339343,1.999989331,1,0,0,11.33339343,1.999989331,1,0,0,1,81,241,47,1,,,,,,,,
,,,,,,,,,,,,,FF,,,,,,,,1.1149,,,,,,,,,,,,,,,,,,,,,,60fe5dcd522e58dce4ea67ac,61036dd58f446aaf42f4385d,2021-07-30_13h13.08.458,Simcolourproject_2stim_asymm_v5,2020.2.10,Win32,60,61025ae37ef11b136ea224fe,,,,,,,,,4007,-61.33331609,-27.33334488,1,0,0,response5disk,,2,-23.33331496,1.333322644,1,0,0,rectangle,-23.33331496,1.333322644,1,0,0,-23.33331496,1.333322644,1,0,0,1,82,242,54,1,,,,,,,,
