key_resp.keys,key_resp.rt,key_resp_14.keys,key_resp_14.rt,key_resp_15.keys,key_resp_15.rt,key_resp_17.keys,key_resp_17.rt,key_resp_9.keys,key_resp_9.rt,key_resp_10.keys,key_resp_10.rt,practice_comparison,Ecc,mouse_5.x,mouse_5.y,mouse_5.leftButton,mouse_5.midButton,mouse_5.rightButton,mouse_5.clicked_name,pracsimilarity,response_time,mouse_10.x,mouse_10.y,mouse_10.leftButton,mouse_10.midButton,mouse_10.rightButton,mouse_10.clicked_name,mouse_7.x,mouse_7.y,mouse_7.leftButton,mouse_7.midButton,mouse_7.rightButton,mouse_6.x,mouse_6.y,mouse_6.leftButton,mouse_6.midButton,mouse_6.rightButton,duringprac.thisRepN,duringprac.thisTrialN,duringprac.thisN,duringprac.thisIndex,duringprac.ran,participant,session,date,expName,psychopyVersion,OS,frameRate,study_id,mouse_7.clicked_name,catchpracsimilarity,catch_response_time,catchnumberprac,catchtrialorderprac,mouse_6.clicked_name,key_resp_22.keys,key_resp_22.rt,realcomparison,mouse.x,mouse.y,mouse.leftButton,mouse.midButton,mouse.rightButton,mouse.clicked_name,Colour2,similarity,mouse_2.x,mouse_2.y,mouse_2.leftButton,mouse_2.midButton,mouse_2.rightButton,mouse_2.clicked_name,mouse_3.x,mouse_3.y,mouse_3.leftButton,mouse_3.midButton,mouse_3.rightButton,mouse_3.clicked_name,catchornah,catchsimilarity,catchnumber,catchtrialorder,catchRT,mouse_11.x,mouse_11.y,mouse_11.leftButton,mouse_11.midButton,mouse_11.rightButton,mouse_11.clicked_name,trials_2.thisRepN,trials_2.thisTrialN,trials_2.thisN,trials_2.thisIndex,trials_2.ran,Colour1
space,3.542,space,17.289,space,25.147,space,7.72,space,3.065,space,6.031,20,FF,89,45,1,0,0,response1disk_5,6,10.924,21,16,1,0,0,rectangle_8,21,16,1,0,0,21,16,1,0,0,0,0,0,3,1,60fe5e12ba8c216235600e18,610379180fe5a4c6ebda3d30,2021-07-30_00h02.31.437,Simcolourproject_2stim_asymm_v5,2020.2.10,Win32,60,61025ae37ef11b136ea224fe,,,,,,,,,,,,,,,,,,,,,,,,,,,,,,,,,,,,,,,,,,,,,,
,,,,,,,,,,,,134,PF,-49,-92,1,0,0,response5disk_5,3,3.223,6,4,1,0,0,rectangle_8,44,80,1,0,0,4,-1,1,0,0,0,1,1,6,1,60fe5e12ba8c216235600e18,610379180fe5a4c6ebda3d30,2021-07-30_00h02.31.437,Simcolourproject_2stim_asymm_v5,2020.2.10,Win32,60,61025ae37ef11b136ea224fe,response1disk_7,7,3.239,7,"[2,5]",rectangle_4,,,,,,,,,,,,,,,,,,,,,,,,,,,,,,,,,,,,,,,,
,,,,,,,,,,,,142,PF,38,-96,1,0,0,response3disk_5,4,4.897,7,1,1,0,0,rectangle_8,7,1,1,0,0,7,1,1,0,0,0,2,2,2,1,60fe5e12ba8c216235600e18,610379180fe5a4c6ebda3d30,2021-07-30_00h02.31.437,Simcolourproject_2stim_asymm_v5,2020.2.10,Win32,60,61025ae37ef11b136ea224fe,,,,,,,,,,,,,,,,,,,,,,,,,,,,,,,,,,,,,,,,,,,,,,
,,,,,,,,,,,,147,PF,-82,-46,1,0,0,response5disk_5,2,2.233,-16,0,1,0,0,rectangle_8,-16,0,1,0,0,-16,0,1,0,0,0,3,3,4,1,60fe5e12ba8c216235600e18,610379180fe5a4c6ebda3d30,2021-07-30_00h02.31.437,Simcolourproject_2stim_asymm_v5,2020.2.10,Win32,60,61025ae37ef11b136ea224fe,,,,,,,,,,,,,,,,,,,,,,,,,,,,,,,,,,,,,,,,,,,,,,
,,,,,,,,,,,,144,FF,-80,36,1,0,0,response7disk_5,1,1.441,13,0,1,0,0,rectangle_8,42,85,1,0,0,-7,4,1,0,0,0,4,4,0,1,60fe5e12ba8c216235600e18,610379180fe5a4c6ebda3d30,2021-07-30_00h02.31.437,Simcolourproject_2stim_asymm_v5,2020.2.10,Win32,60,61025ae37ef11b136ea224fe,response1disk_7,7,2.367,7,"[2,5]",rectangle_4,,,,,,,,,,,,,,,,,,,,,,,,,,,,,,,,,,,,,,,,
,,,,,,,,,,,,141,FF,122,48,1,0,0,response1disk_5,6,2.939,-6,-2,1,0,0,rectangle_8,-6,-2,1,0,0,-6,-2,1,0,0,0,5,5,5,1,60fe5e12ba8c216235600e18,610379180fe5a4c6ebda3d30,2021-07-30_00h02.31.437,Simcolourproject_2stim_asymm_v5,2020.2.10,Win32,60,61025ae37ef11b136ea224fe,,,,,,,,,,,,,,,,,,,,,,,,,,,,,,,,,,,,,,,,,,,,,,
,,,,,,,,,,,,110,PF,-72,-28,1,0,0,response5disk_5,2,1.801,12,5,1,0,0,rectangle_8,12,5,1,0,0,12,5,1,0,0,0,6,6,1,1,60fe5e12ba8c216235600e18,610379180fe5a4c6ebda3d30,2021-07-30_00h02.31.437,Simcolourproject_2stim_asymm_v5,2020.2.10,Win32,60,61025ae37ef11b136ea224fe,,,,,,,,,,,,,,,,,,,,,,,,,,,,,,,,,,,,,,,,,,,,,,
,,,,,,,,,,,,,FF,,,,,,,,3.071,,,,,,,,,,,,,,,,,,,,,,60fe5e12ba8c216235600e18,610379180fe5a4c6ebda3d30,2021-07-30_00h02.31.437,Simcolourproject_2stim_asymm_v5,2020.2.10,Win32,60,61025ae37ef11b136ea224fe,,,,,,,space,4.009,2366,58,96,1,0,0,response1disk,,7,-6,2,1,0,0,rectangle,61,107,1,0,0,response1disk_3,TRUE,7,7,"[102,15,35,98,233,121,48,1,261,67,128,187,179,157,126,299,288,55,235,2]",2.135,8,-9,1,0,0,rectangle,0,0,0,23,1,
,,,,,,,,,,,,,FF,,,,,,,,4.831,,,,,,,,,,,,,,,,,,,,,,60fe5e12ba8c216235600e18,610379180fe5a4c6ebda3d30,2021-07-30_00h02.31.437,Simcolourproject_2stim_asymm_v5,2020.2.10,Win32,60,61025ae37ef11b136ea224fe,,,,,,,,,2706,82,-42,1,0,0,response3disk,,5,15,2,1,0,0,rectangle,26,81,1,0,0,response1disk_3,TRUE,7,7,"[102,15,35,98,233,121,48,1,261,67,128,187,179,157,126,299,288,55,235,2]",2.021,2,-2,1,0,0,rectangle,0,1,1,149,1,
,,,,,,,,,,,,,FF,,,,,,,,2.372,,,,,,,,,,,,,,,,,,,,,,60fe5e12ba8c216235600e18,610379180fe5a4c6ebda3d30,2021-07-30_00h02.31.437,Simcolourproject_2stim_asymm_v5,2020.2.10,Win32,60,61025ae37ef11b136ea224fe,,,,,,,,,3356,107,80,1,0,0,response1disk,,6,5,6,1,0,0,rectangle,5,6,1,0,0,,,,,,,5,6,1,0,0,,0,2,2,32,1,
,,,,,,,,,,,,,FF,,,,,,,,2.909,,,,,,,,,,,,,,,,,,,,,,60fe5e12ba8c216235600e18,610379180fe5a4c6ebda3d30,2021-07-30_00h02.31.437,Simcolourproject_2stim_asymm_v5,2020.2.10,Win32,60,61025ae37ef11b136ea224fe,,,,,,,,,1691,-90,-27,1,0,0,response5disk,,2,-20,6,1,0,0,rectangle,-20,6,1,0,0,,,,,,,-20,6,1,0,0,,0,3,3,102,1,
,,,,,,,,,,,,,FF,,,,,,,,1.731,,,,,,,,,,,,,,,,,,,,,,60fe5e12ba8c216235600e18,610379180fe5a4c6ebda3d30,2021-07-30_00h02.31.437,Simcolourproject_2stim_asymm_v5,2020.2.10,Win32,60,61025ae37ef11b136ea224fe,,,,,,,,,2360,-82,45,1,0,0,response7disk,,1,6,4,1,0,0,rectangle,6,4,1,0,0,,,,,,,6,4,1,0,0,,0,4,4,64,1,
,,,,,,,,,,,,,FF,,,,,,,,2.441,,,,,,,,,,,,,,,,,,,,,,60fe5e12ba8c216235600e18,610379180fe5a4c6ebda3d30,2021-07-30_00h02.31.437,Simcolourproject_2stim_asymm_v5,2020.2.10,Win32,60,61025ae37ef11b136ea224fe,,,,,,,,,4135,86,-61,1,0,0,response3disk,,5,10,-1,1,0,0,rectangle,10,-1,1,0,0,,,,,,,10,-1,1,0,0,,0,5,5,132,1,
,,,,,,,,,,,,,FF,,,,,,,,1.761,,,,,,,,,,,,,,,,,,,,,,60fe5e12ba8c216235600e18,610379180fe5a4c6ebda3d30,2021-07-30_00h02.31.437,Simcolourproject_2stim_asymm_v5,2020.2.10,Win32,60,61025ae37ef11b136ea224fe,,,,,,,,,2887,-92,-56,1,0,0,response5disk,,2,-3,-6,1,0,0,rectangle,-3,-6,1,0,0,,,,,,,-3,-6,1,0,0,,0,6,6,82,1,
,,,,,,,,,,,,,FF,,,,,,,,2.817,,,,,,,,,,,,,,,,,,,,,,60fe5e12ba8c216235600e18,610379180fe5a4c6ebda3d30,2021-07-30_00h02.31.437,Simcolourproject_2stim_asymm_v5,2020.2.10,Win32,60,61025ae37ef11b136ea224fe,,,,,,,,,2129,112,42,1,0,0,response1disk,,6,-11,-7,1,0,0,rectangle,-11,-7,1,0,0,,,,,,,-11,-7,1,0,0,,0,7,7,153,1,
,,,,,,,,,,,,,FF,,,,,,,,2.931,,,,,,,,,,,,,,,,,,,,,,60fe5e12ba8c216235600e18,610379180fe5a4c6ebda3d30,2021-07-30_00h02.31.437,Simcolourproject_2stim_asymm_v5,2020.2.10,Win32,60,61025ae37ef11b136ea224fe,,,,,,,,,1143,61,-96,1,0,0,response3disk,,4,-2,16,1,0,0,rectangle,-2,16,1,0,0,,,,,,,-2,16,1,0,0,,0,8,8,118,1,
,,,,,,,,,,,,,FF,,,,,,,,1.825,,,,,,,,,,,,,,,,,,,,,,60fe5e12ba8c216235600e18,610379180fe5a4c6ebda3d30,2021-07-30_00h02.31.437,Simcolourproject_2stim_asymm_v5,2020.2.10,Win32,60,61025ae37ef11b136ea224fe,,,,,,,,,1413,93,-38,1,0,0,response3disk,,5,6,6,1,0,0,rectangle,6,6,1,0,0,,,,,,,6,6,1,0,0,,0,9,9,158,1,
,,,,,,,,,,,,,FF,,,,,,,,1.455,,,,,,,,,,,,,,,,,,,,,,60fe5e12ba8c216235600e18,610379180fe5a4c6ebda3d30,2021-07-30_00h02.31.437,Simcolourproject_2stim_asymm_v5,2020.2.10,Win32,60,61025ae37ef11b136ea224fe,,,,,,,,,2975,114,46,1,0,0,response1disk,,6,19,-4,1,0,0,rectangle,19,-4,1,0,0,,,,,,,19,-4,1,0,0,,0,10,10,76,1,
,,,,,,,,,,,,,FF,,,,,,,,2.024,,,,,,,,,,,,,,,,,,,,,,60fe5e12ba8c216235600e18,610379180fe5a4c6ebda3d30,2021-07-30_00h02.31.437,Simcolourproject_2stim_asymm_v5,2020.2.10,Win32,60,61025ae37ef11b136ea224fe,,,,,,,,,2712,64,-52,1,0,0,response3disk,,5,16,9,1,0,0,rectangle,16,9,1,0,0,,,,,,,16,9,1,0,0,,0,11,11,11,1,
,,,,,,,,,,,,,FF,,,,,,,,1.837,,,,,,,,,,,,,,,,,,,,,,60fe5e12ba8c216235600e18,610379180fe5a4c6ebda3d30,2021-07-30_00h02.31.437,Simcolourproject_2stim_asymm_v5,2020.2.10,Win32,60,61025ae37ef11b136ea224fe,,,,,,,,,594,28,126,1,0,0,response1disk,,7,-5,12,1,0,0,rectangle,-5,12,1,0,0,,,,,,,-5,12,1,0,0,,0,12,12,157,1,
,,,,,,,,,,,,,FF,,,,,,,,2.504,,,,,,,,,,,,,,,,,,,,,,60fe5e12ba8c216235600e18,610379180fe5a4c6ebda3d30,2021-07-30_00h02.31.437,Simcolourproject_2stim_asymm_v5,2020.2.10,Win32,60,61025ae37ef11b136ea224fe,,,,,,,,,1503,69,86,1,0,0,response1disk,,7,-8,-6,1,0,0,rectangle,-8,-6,1,0,0,,,,,,,-8,-6,1,0,0,,0,13,13,109,1,
,,,,,,,,,,,,,FF,,,,,,,,1.701,,,,,,,,,,,,,,,,,,,,,,60fe5e12ba8c216235600e18,610379180fe5a4c6ebda3d30,2021-07-30_00h02.31.437,Simcolourproject_2stim_asymm_v5,2020.2.10,Win32,60,61025ae37ef11b136ea224fe,,,,,,,,,3125,85,-53,1,0,0,response3disk,,5,17,8,1,0,0,rectangle,-57,47,1,0,0,response7disk_3,TRUE,1,1,"[102,15,35,98,233,121,48,1,261,67,128,187,179,157,126,299,288,55,235,2]",2.196,-14,1,1,0,0,rectangle,0,14,14,120,1,
,,,,,,,,,,,,,FF,,,,,,,,1.936,,,,,,,,,,,,,,,,,,,,,,60fe5e12ba8c216235600e18,610379180fe5a4c6ebda3d30,2021-07-30_00h02.31.437,Simcolourproject_2stim_asymm_v5,2020.2.10,Win32,60,61025ae37ef11b136ea224fe,,,,,,,,,737,77,-43,1,0,0,response3disk,,5,7,-1,1,0,0,rectangle,7,-1,1,0,0,,,,,,,7,-1,1,0,0,,0,15,15,129,1,
,,,,,,,,,,,,,FF,,,,,,,,1.951,,,,,,,,,,,,,,,,,,,,,,60fe5e12ba8c216235600e18,610379180fe5a4c6ebda3d30,2021-07-30_00h02.31.437,Simcolourproject_2stim_asymm_v5,2020.2.10,Win32,60,61025ae37ef11b136ea224fe,,,,,,,,,2817,39,-88,1,0,0,response3disk,,4,-1,7,1,0,0,rectangle,-1,7,1,0,0,,,,,,,-1,7,1,0,0,,0,16,16,145,1,
,,,,,,,,,,,,,FF,,,,,,,,1.519,,,,,,,,,,,,,,,,,,,,,,60fe5e12ba8c216235600e18,610379180fe5a4c6ebda3d30,2021-07-30_00h02.31.437,Simcolourproject_2stim_asymm_v5,2020.2.10,Win32,60,61025ae37ef11b136ea224fe,,,,,,,,,4124,-33,-97,1,0,0,response5disk,,3,6,-12,1,0,0,rectangle,6,-12,1,0,0,,,,,,,6,-12,1,0,0,,0,17,17,143,1,
,,,,,,,,,,,,,FF,,,,,,,,1.265,,,,,,,,,,,,,,,,,,,,,,60fe5e12ba8c216235600e18,610379180fe5a4c6ebda3d30,2021-07-30_00h02.31.437,Simcolourproject_2stim_asymm_v5,2020.2.10,Win32,60,61025ae37ef11b136ea224fe,,,,,,,,,1624,82,-42,1,0,0,response3disk,,5,5,-3,1,0,0,rectangle,5,-3,1,0,0,,,,,,,5,-3,1,0,0,,0,18,18,69,1,
,,,,,,,,,,,,,FF,,,,,,,,1.579,,,,,,,,,,,,,,,,,,,,,,60fe5e12ba8c216235600e18,610379180fe5a4c6ebda3d30,2021-07-30_00h02.31.437,Simcolourproject_2stim_asymm_v5,2020.2.10,Win32,60,61025ae37ef11b136ea224fe,,,,,,,,,1680,46,-110,1,0,0,response3disk,,4,9,-9,1,0,0,rectangle,9,-9,1,0,0,,,,,,,9,-9,1,0,0,,0,19,19,110,1,
,,,,,,,,,,,,,FF,,,,,,,,1.965,,,,,,,,,,,,,,,,,,,,,,60fe5e12ba8c216235600e18,610379180fe5a4c6ebda3d30,2021-07-30_00h02.31.437,Simcolourproject_2stim_asymm_v5,2020.2.10,Win32,60,61025ae37ef11b136ea224fe,,,,,,,,,1210,86,52,1,0,0,response1disk,,6,4,4,1,0,0,rectangle,4,4,1,0,0,,,,,,,4,4,1,0,0,,0,20,20,43,1,
,,,,,,,,,,,,,FF,,,,,,,,2.088,,,,,,,,,,,,,,,,,,,,,,60fe5e12ba8c216235600e18,610379180fe5a4c6ebda3d30,2021-07-30_00h02.31.437,Simcolourproject_2stim_asymm_v5,2020.2.10,Win32,60,61025ae37ef11b136ea224fe,,,,,,,,,3854,-34,-91,1,0,0,response5disk,,3,8,0,1,0,0,rectangle,8,0,1,0,0,,,,,,,8,0,1,0,0,,0,21,21,16,1,
,,,,,,,,,,,,,FF,,,,,,,,1.579,,,,,,,,,,,,,,,,,,,,,,60fe5e12ba8c216235600e18,610379180fe5a4c6ebda3d30,2021-07-30_00h02.31.437,Simcolourproject_2stim_asymm_v5,2020.2.10,Win32,60,61025ae37ef11b136ea224fe,,,,,,,,,125,90,-87,1,0,0,response3disk,,5,-8,6,1,0,0,rectangle,-8,6,1,0,0,,,,,,,-8,6,1,0,0,,0,22,22,142,1,
,,,,,,,,,,,,,FF,,,,,,,,1.757,,,,,,,,,,,,,,,,,,,,,,60fe5e12ba8c216235600e18,610379180fe5a4c6ebda3d30,2021-07-30_00h02.31.437,Simcolourproject_2stim_asymm_v5,2020.2.10,Win32,60,61025ae37ef11b136ea224fe,,,,,,,,,2024,86,46,1,0,0,response1disk,,6,0,-4,1,0,0,rectangle,0,-4,1,0,0,,,,,,,0,-4,1,0,0,,0,23,23,104,1,
,,,,,,,,,,,,,FF,,,,,,,,1.652,,,,,,,,,,,,,,,,,,,,,,60fe5e12ba8c216235600e18,610379180fe5a4c6ebda3d30,2021-07-30_00h02.31.437,Simcolourproject_2stim_asymm_v5,2020.2.10,Win32,60,61025ae37ef11b136ea224fe,,,,,,,,,1607,-39,-110,1,0,0,response5disk,,3,14,3,1,0,0,rectangle,14,3,1,0,0,,,,,,,14,3,1,0,0,,0,24,24,54,1,
,,,,,,,,,,,,,FF,,,,,,,,1.283,,,,,,,,,,,,,,,,,,,,,,60fe5e12ba8c216235600e18,610379180fe5a4c6ebda3d30,2021-07-30_00h02.31.437,Simcolourproject_2stim_asymm_v5,2020.2.10,Win32,60,61025ae37ef11b136ea224fe,,,,,,,,,3531,88,37,1,0,0,response1disk,,6,-7,0,1,0,0,rectangle,-7,0,1,0,0,,,,,,,-7,0,1,0,0,,0,25,25,135,1,
,,,,,,,,,,,,,FF,,,,,,,,1.334,,,,,,,,,,,,,,,,,,,,,,60fe5e12ba8c216235600e18,610379180fe5a4c6ebda3d30,2021-07-30_00h02.31.437,Simcolourproject_2stim_asymm_v5,2020.2.10,Win32,60,61025ae37ef11b136ea224fe,,,,,,,,,2769,50,-122,1,0,0,response3disk,,4,-8,7,1,0,0,rectangle,-8,7,1,0,0,,,,,,,-8,7,1,0,0,,0,26,26,124,1,
,,,,,,,,,,,,,FF,,,,,,,,1.307,,,,,,,,,,,,,,,,,,,,,,60fe5e12ba8c216235600e18,610379180fe5a4c6ebda3d30,2021-07-30_00h02.31.437,Simcolourproject_2stim_asymm_v5,2020.2.10,Win32,60,61025ae37ef11b136ea224fe,,,,,,,,,2667,-83,-40,1,0,0,response5disk,,2,-14,1,1,0,0,rectangle,-14,1,1,0,0,,,,,,,-14,1,1,0,0,,0,27,27,113,1,
,,,,,,,,,,,,,FF,,,,,,,,1.44,,,,,,,,,,,,,,,,,,,,,,60fe5e12ba8c216235600e18,610379180fe5a4c6ebda3d30,2021-07-30_00h02.31.437,Simcolourproject_2stim_asymm_v5,2020.2.10,Win32,60,61025ae37ef11b136ea224fe,,,,,,,,,2524,98,-68,1,0,0,response3disk,,5,16,0,1,0,0,rectangle,16,0,1,0,0,,,,,,,16,0,1,0,0,,0,28,28,38,1,
,,,,,,,,,,,,,FF,,,,,,,,1.556,,,,,,,,,,,,,,,,,,,,,,60fe5e12ba8c216235600e18,610379180fe5a4c6ebda3d30,2021-07-30_00h02.31.437,Simcolourproject_2stim_asymm_v5,2020.2.10,Win32,60,61025ae37ef11b136ea224fe,,,,,,,,,1133,-48,-95,1,0,0,response5disk,,3,9,-4,1,0,0,rectangle,9,-4,1,0,0,,,,,,,9,-4,1,0,0,,0,29,29,131,1,
,,,,,,,,,,,,,FF,,,,,,,,1.362,,,,,,,,,,,,,,,,,,,,,,60fe5e12ba8c216235600e18,610379180fe5a4c6ebda3d30,2021-07-30_00h02.31.437,Simcolourproject_2stim_asymm_v5,2020.2.10,Win32,60,61025ae37ef11b136ea224fe,,,,,,,,,1484,82,-49,1,0,0,response3disk,,5,3,1,1,0,0,rectangle,3,1,1,0,0,,,,,,,3,1,1,0,0,,0,30,30,1,1,
,,,,,,,,,,,,,FF,,,,,,,,1.781,,,,,,,,,,,,,,,,,,,,,,60fe5e12ba8c216235600e18,610379180fe5a4c6ebda3d30,2021-07-30_00h02.31.437,Simcolourproject_2stim_asymm_v5,2020.2.10,Win32,60,61025ae37ef11b136ea224fe,,,,,,,,,2376,44,-115,1,0,0,response3disk,,4,6,9,1,0,0,rectangle,6,9,1,0,0,,,,,,,6,9,1,0,0,,0,31,31,97,1,
,,,,,,,,,,,,,FF,,,,,,,,1.295,,,,,,,,,,,,,,,,,,,,,,60fe5e12ba8c216235600e18,610379180fe5a4c6ebda3d30,2021-07-30_00h02.31.437,Simcolourproject_2stim_asymm_v5,2020.2.10,Win32,60,61025ae37ef11b136ea224fe,,,,,,,,,997,41,-107,1,0,0,response3disk,,4,-2,15,1,0,0,rectangle,-2,15,1,0,0,,,,,,,-2,15,1,0,0,,0,32,32,3,1,
,,,,,,,,,,,,,FF,,,,,,,,1.45,,,,,,,,,,,,,,,,,,,,,,60fe5e12ba8c216235600e18,610379180fe5a4c6ebda3d30,2021-07-30_00h02.31.437,Simcolourproject_2stim_asymm_v5,2020.2.10,Win32,60,61025ae37ef11b136ea224fe,,,,,,,,,2574,88,53,1,0,0,response1disk,,6,1,-1,1,0,0,rectangle,1,-1,1,0,0,,,,,,,1,-1,1,0,0,,0,33,33,146,1,
,,,,,,,,,,,,,FF,,,,,,,,3.182,,,,,,,,,,,,,,,,,,,,,,60fe5e12ba8c216235600e18,610379180fe5a4c6ebda3d30,2021-07-30_00h02.31.437,Simcolourproject_2stim_asymm_v5,2020.2.10,Win32,60,61025ae37ef11b136ea224fe,,,,,,,,,649,95,-67,1,0,0,response3disk,,5,16,-1,1,0,0,rectangle,37,71,1,0,0,response1disk_3,TRUE,7,7,"[102,15,35,98,233,121,48,1,261,67,128,187,179,157,126,299,288,55,235,2]",1.987,-2,6,1,0,0,rectangle,0,34,34,49,1,
,,,,,,,,,,,,,FF,,,,,,,,2.565,,,,,,,,,,,,,,,,,,,,,,60fe5e12ba8c216235600e18,610379180fe5a4c6ebda3d30,2021-07-30_00h02.31.437,Simcolourproject_2stim_asymm_v5,2020.2.10,Win32,60,61025ae37ef11b136ea224fe,,,,,,,,,2171,44,-100,1,0,0,response3disk,,4,6,1,1,0,0,rectangle,6,1,1,0,0,,,,,,,6,1,1,0,0,,0,35,35,90,1,
,,,,,,,,,,,,,FF,,,,,,,,2.124,,,,,,,,,,,,,,,,,,,,,,60fe5e12ba8c216235600e18,610379180fe5a4c6ebda3d30,2021-07-30_00h02.31.437,Simcolourproject_2stim_asymm_v5,2020.2.10,Win32,60,61025ae37ef11b136ea224fe,,,,,,,,,3507,-60,-95,1,0,0,response5disk,,3,10,-2,1,0,0,rectangle,10,-2,1,0,0,,,,,,,10,-2,1,0,0,,0,36,36,58,1,
,,,,,,,,,,,,,FF,,,,,,,,1.782,,,,,,,,,,,,,,,,,,,,,,60fe5e12ba8c216235600e18,610379180fe5a4c6ebda3d30,2021-07-30_00h02.31.437,Simcolourproject_2stim_asymm_v5,2020.2.10,Win32,60,61025ae37ef11b136ea224fe,,,,,,,,,430,96,-60,1,0,0,response3disk,,5,9,-15,1,0,0,rectangle,9,-15,1,0,0,,,,,,,9,-15,1,0,0,,0,37,37,51,1,
,,,,,,,,,,,,,FF,,,,,,,,1.702,,,,,,,,,,,,,,,,,,,,,,60fe5e12ba8c216235600e18,610379180fe5a4c6ebda3d30,2021-07-30_00h02.31.437,Simcolourproject_2stim_asymm_v5,2020.2.10,Win32,60,61025ae37ef11b136ea224fe,,,,,,,,,604,93,38,1,0,0,response1disk,,6,-6,-6,1,0,0,rectangle,-6,-6,1,0,0,,,,,,,-6,-6,1,0,0,,0,38,38,73,1,
,,,,,,,,,,,,,FF,,,,,,,,1.861,,,,,,,,,,,,,,,,,,,,,,60fe5e12ba8c216235600e18,610379180fe5a4c6ebda3d30,2021-07-30_00h02.31.437,Simcolourproject_2stim_asymm_v5,2020.2.10,Win32,60,61025ae37ef11b136ea224fe,,,,,,,,,3007,-89,-68,1,0,0,response5disk,,2,-7,-11,1,0,0,rectangle,-7,-11,1,0,0,,,,,,,-7,-11,1,0,0,,0,39,39,80,1,
,,,,,,,,,,,,,FF,,,,,,,,1.328,,,,,,,,,,,,,,,,,,,,,,60fe5e12ba8c216235600e18,610379180fe5a4c6ebda3d30,2021-07-30_00h02.31.437,Simcolourproject_2stim_asymm_v5,2020.2.10,Win32,60,61025ae37ef11b136ea224fe,,,,,,,,,4295,-84,-38,1,0,0,response5disk,,2,20,8,1,0,0,rectangle,20,8,1,0,0,,,,,,,20,8,1,0,0,,0,40,40,18,1,
,,,,,,,,,,,,,FF,,,,,,,,1.763,,,,,,,,,,,,,,,,,,,,,,60fe5e12ba8c216235600e18,610379180fe5a4c6ebda3d30,2021-07-30_00h02.31.437,Simcolourproject_2stim_asymm_v5,2020.2.10,Win32,60,61025ae37ef11b136ea224fe,,,,,,,,,4167,-49,-96,1,0,0,response5disk,,3,-1,0,1,0,0,rectangle,-1,0,1,0,0,,,,,,,-1,0,1,0,0,,0,41,41,7,1,
,,,,,,,,,,,,,FF,,,,,,,,1.494,,,,,,,,,,,,,,,,,,,,,,60fe5e12ba8c216235600e18,610379180fe5a4c6ebda3d30,2021-07-30_00h02.31.437,Simcolourproject_2stim_asymm_v5,2020.2.10,Win32,60,61025ae37ef11b136ea224fe,,,,,,,,,330,86,59,1,0,0,response1disk,,6,14,7,1,0,0,rectangle,14,7,1,0,0,,,,,,,14,7,1,0,0,,0,42,42,99,1,
,,,,,,,,,,,,,FF,,,,,,,,1.354,,,,,,,,,,,,,,,,,,,,,,60fe5e12ba8c216235600e18,610379180fe5a4c6ebda3d30,2021-07-30_00h02.31.437,Simcolourproject_2stim_asymm_v5,2020.2.10,Win32,60,61025ae37ef11b136ea224fe,,,,,,,,,2380,102,66,1,0,0,response1disk,,6,9,11,1,0,0,rectangle,9,11,1,0,0,,,,,,,9,11,1,0,0,,0,43,43,112,1,
,,,,,,,,,,,,,FF,,,,,,,,1.654,,,,,,,,,,,,,,,,,,,,,,60fe5e12ba8c216235600e18,610379180fe5a4c6ebda3d30,2021-07-30_00h02.31.437,Simcolourproject_2stim_asymm_v5,2020.2.10,Win32,60,61025ae37ef11b136ea224fe,,,,,,,,,2054,54,-113,1,0,0,response3disk,,4,2,6,1,0,0,rectangle,2,6,1,0,0,,,,,,,2,6,1,0,0,,0,44,44,103,1,
,,,,,,,,,,,,,FF,,,,,,,,1.854,,,,,,,,,,,,,,,,,,,,,,60fe5e12ba8c216235600e18,610379180fe5a4c6ebda3d30,2021-07-30_00h02.31.437,Simcolourproject_2stim_asymm_v5,2020.2.10,Win32,60,61025ae37ef11b136ea224fe,,,,,,,,,2290,90,-43,1,0,0,response3disk,,5,5,-5,1,0,0,rectangle,5,-5,1,0,0,,,,,,,5,-5,1,0,0,,0,45,45,115,1,
,,,,,,,,,,,,,FF,,,,,,,,1.418,,,,,,,,,,,,,,,,,,,,,,60fe5e12ba8c216235600e18,610379180fe5a4c6ebda3d30,2021-07-30_00h02.31.437,Simcolourproject_2stim_asymm_v5,2020.2.10,Win32,60,61025ae37ef11b136ea224fe,,,,,,,,,1306,-81,-36,1,0,0,response5disk,,2,3,6,1,0,0,rectangle,3,6,1,0,0,,,,,,,3,6,1,0,0,,0,46,46,159,1,
,,,,,,,,,,,,,FF,,,,,,,,1.218,,,,,,,,,,,,,,,,,,,,,,60fe5e12ba8c216235600e18,610379180fe5a4c6ebda3d30,2021-07-30_00h02.31.437,Simcolourproject_2stim_asymm_v5,2020.2.10,Win32,60,61025ae37ef11b136ea224fe,,,,,,,,,3092,-98,56,1,0,0,response7disk,,1,2,8,1,0,0,rectangle,-26,80,1,0,0,response7disk_3,TRUE,0,0,"[102,15,35,98,233,121,48,1,261,67,128,187,179,157,126,299,288,55,235,2]",2.058,-6,6,1,0,0,rectangle,0,47,47,36,1,
,,,,,,,,,,,,,FF,,,,,,,,1.609,,,,,,,,,,,,,,,,,,,,,,60fe5e12ba8c216235600e18,610379180fe5a4c6ebda3d30,2021-07-30_00h02.31.437,Simcolourproject_2stim_asymm_v5,2020.2.10,Win32,60,61025ae37ef11b136ea224fe,,,,,,,,,1209,96,70,1,0,0,response1disk,,6,-4,-3,1,0,0,rectangle,-4,-3,1,0,0,,,,,,,-4,-3,1,0,0,,0,48,48,14,1,
,,,,,,,,,,,,,FF,,,,,,,,1.501,,,,,,,,,,,,,,,,,,,,,,60fe5e12ba8c216235600e18,610379180fe5a4c6ebda3d30,2021-07-30_00h02.31.437,Simcolourproject_2stim_asymm_v5,2020.2.10,Win32,60,61025ae37ef11b136ea224fe,,,,,,,,,1560,72,-28,1,0,0,response3disk,,5,-12,2,1,0,0,rectangle,-12,2,1,0,0,,,,,,,-12,2,1,0,0,,0,49,49,105,1,
,,,,,,,,,,,,,FF,,,,,,,,1.323,,,,,,,,,,,,,,,,,,,,,,60fe5e12ba8c216235600e18,610379180fe5a4c6ebda3d30,2021-07-30_00h02.31.437,Simcolourproject_2stim_asymm_v5,2020.2.10,Win32,60,61025ae37ef11b136ea224fe,,,,,,,,,849,75,48,1,0,0,response1disk,,6,1,8,1,0,0,rectangle,1,8,1,0,0,,,,,,,1,8,1,0,0,,0,50,50,78,1,
,,,,,,,,,,,,,FF,,,,,,,,1.449,,,,,,,,,,,,,,,,,,,,,,60fe5e12ba8c216235600e18,610379180fe5a4c6ebda3d30,2021-07-30_00h02.31.437,Simcolourproject_2stim_asymm_v5,2020.2.10,Win32,60,61025ae37ef11b136ea224fe,,,,,,,,,3529,-50,-114,1,0,0,response5disk,,3,12,-6,1,0,0,rectangle,12,-6,1,0,0,,,,,,,12,-6,1,0,0,,0,51,51,88,1,
,,,,,,,,,,,,,FF,,,,,,,,1.578,,,,,,,,,,,,,,,,,,,,,,60fe5e12ba8c216235600e18,610379180fe5a4c6ebda3d30,2021-07-30_00h02.31.437,Simcolourproject_2stim_asymm_v5,2020.2.10,Win32,60,61025ae37ef11b136ea224fe,,,,,,,,,2402,-33,-78,1,0,0,response5disk,,3,9,4,1,0,0,rectangle,9,4,1,0,0,,,,,,,9,4,1,0,0,,0,52,52,101,1,
,,,,,,,,,,,,,FF,,,,,,,,1.541,,,,,,,,,,,,,,,,,,,,,,60fe5e12ba8c216235600e18,610379180fe5a4c6ebda3d30,2021-07-30_00h02.31.437,Simcolourproject_2stim_asymm_v5,2020.2.10,Win32,60,61025ae37ef11b136ea224fe,,,,,,,,,1244,97,-52,1,0,0,response3disk,,5,-20,6,1,0,0,rectangle,-20,6,1,0,0,,,,,,,-20,6,1,0,0,,0,53,53,108,1,
,,,,,,,,,,,,,FF,,,,,,,,1.718,,,,,,,,,,,,,,,,,,,,,,60fe5e12ba8c216235600e18,610379180fe5a4c6ebda3d30,2021-07-30_00h02.31.437,Simcolourproject_2stim_asymm_v5,2020.2.10,Win32,60,61025ae37ef11b136ea224fe,,,,,,,,,531,-52,96,1,0,0,response7disk,,0,4,-3,1,0,0,rectangle,34,70,1,0,0,response1disk_3,TRUE,7,7,"[102,15,35,98,233,121,48,1,261,67,128,187,179,157,126,299,288,55,235,2]",1.88,9,4,1,0,0,rectangle,0,54,54,5,1,
,,,,,,,,,,,,,FF,,,,,,,,1.571,,,,,,,,,,,,,,,,,,,,,,60fe5e12ba8c216235600e18,610379180fe5a4c6ebda3d30,2021-07-30_00h02.31.437,Simcolourproject_2stim_asymm_v5,2020.2.10,Win32,60,61025ae37ef11b136ea224fe,,,,,,,,,2974,100,46,1,0,0,response1disk,,6,6,7,1,0,0,rectangle,6,7,1,0,0,,,,,,,6,7,1,0,0,,0,55,55,42,1,
,,,,,,,,,,,,,FF,,,,,,,,1.477,,,,,,,,,,,,,,,,,,,,,,60fe5e12ba8c216235600e18,610379180fe5a4c6ebda3d30,2021-07-30_00h02.31.437,Simcolourproject_2stim_asymm_v5,2020.2.10,Win32,60,61025ae37ef11b136ea224fe,,,,,,,,,3229,-38,-80,1,0,0,response5disk,,3,-3,-5,1,0,0,rectangle,-3,-5,1,0,0,,,,,,,-3,-5,1,0,0,,0,56,56,91,1,
,,,,,,,,,,,,,FF,,,,,,,,1.423,,,,,,,,,,,,,,,,,,,,,,60fe5e12ba8c216235600e18,610379180fe5a4c6ebda3d30,2021-07-30_00h02.31.437,Simcolourproject_2stim_asymm_v5,2020.2.10,Win32,60,61025ae37ef11b136ea224fe,,,,,,,,,3433,-52,100,1,0,0,response7disk,,0,-14,17,1,0,0,rectangle,-14,17,1,0,0,,,,,,,-14,17,1,0,0,,0,57,57,26,1,
,,,,,,,,,,,,,FF,,,,,,,,2.616,,,,,,,,,,,,,,,,,,,,,,60fe5e12ba8c216235600e18,610379180fe5a4c6ebda3d30,2021-07-30_00h02.31.437,Simcolourproject_2stim_asymm_v5,2020.2.10,Win32,60,61025ae37ef11b136ea224fe,,,,,,,,,225,25,-91,1,0,0,response3disk,,4,2,3,1,0,0,rectangle,2,3,1,0,0,,,,,,,2,3,1,0,0,,0,58,58,148,1,
,,,,,,,,,,,,,FF,,,,,,,,1.298,,,,,,,,,,,,,,,,,,,,,,60fe5e12ba8c216235600e18,610379180fe5a4c6ebda3d30,2021-07-30_00h02.31.437,Simcolourproject_2stim_asymm_v5,2020.2.10,Win32,60,61025ae37ef11b136ea224fe,,,,,,,,,1483,95,38,1,0,0,response1disk,,6,-2,-7,1,0,0,rectangle,-2,-7,1,0,0,,,,,,,-2,-7,1,0,0,,0,59,59,85,1,
,,,,,,,,,,,,,FF,,,,,,,,1.506,,,,,,,,,,,,,,,,,,,,,,60fe5e12ba8c216235600e18,610379180fe5a4c6ebda3d30,2021-07-30_00h02.31.437,Simcolourproject_2stim_asymm_v5,2020.2.10,Win32,60,61025ae37ef11b136ea224fe,,,,,,,,,2728,-89,-53,1,0,0,response5disk,,2,-8,4,1,0,0,rectangle,-8,4,1,0,0,,,,,,,-8,4,1,0,0,,0,60,60,50,1,
,,,,,,,,,,,,,FF,,,,,,,,1.711,,,,,,,,,,,,,,,,,,,,,,60fe5e12ba8c216235600e18,610379180fe5a4c6ebda3d30,2021-07-30_00h02.31.437,Simcolourproject_2stim_asymm_v5,2020.2.10,Win32,60,61025ae37ef11b136ea224fe,,,,,,,,,944,63,111,1,0,0,response1disk,,7,-6,5,1,0,0,rectangle,-6,5,1,0,0,,,,,,,-6,5,1,0,0,,0,61,61,137,1,
,,,,,,,,,,,,,FF,,,,,,,,1.142,,,,,,,,,,,,,,,,,,,,,,60fe5e12ba8c216235600e18,610379180fe5a4c6ebda3d30,2021-07-30_00h02.31.437,Simcolourproject_2stim_asymm_v5,2020.2.10,Win32,60,61025ae37ef11b136ea224fe,,,,,,,,,2159,55,110,1,0,0,response1disk,,7,14,0,1,0,0,rectangle,14,0,1,0,0,,,,,,,14,0,1,0,0,,0,62,62,119,1,
,,,,,,,,,,,,,FF,,,,,,,,1.376,,,,,,,,,,,,,,,,,,,,,,60fe5e12ba8c216235600e18,610379180fe5a4c6ebda3d30,2021-07-30_00h02.31.437,Simcolourproject_2stim_asymm_v5,2020.2.10,Win32,60,61025ae37ef11b136ea224fe,,,,,,,,,522,-73,-29,1,0,0,response5disk,,2,3,2,1,0,0,rectangle,3,2,1,0,0,,,,,,,3,2,1,0,0,,0,63,63,125,1,
,,,,,,,,,,,,,FF,,,,,,,,1.157,,,,,,,,,,,,,,,,,,,,,,60fe5e12ba8c216235600e18,610379180fe5a4c6ebda3d30,2021-07-30_00h02.31.437,Simcolourproject_2stim_asymm_v5,2020.2.10,Win32,60,61025ae37ef11b136ea224fe,,,,,,,,,4125,-82,-47,1,0,0,response5disk,,2,-10,7,1,0,0,rectangle,-10,7,1,0,0,,,,,,,-10,7,1,0,0,,0,64,64,2,1,
,,,,,,,,,,,,,FF,,,,,,,,1.001,,,,,,,,,,,,,,,,,,,,,,60fe5e12ba8c216235600e18,610379180fe5a4c6ebda3d30,2021-07-30_00h02.31.437,Simcolourproject_2stim_asymm_v5,2020.2.10,Win32,60,61025ae37ef11b136ea224fe,,,,,,,,,802,-69,45,1,0,0,response7disk,,1,4,11,1,0,0,rectangle,4,11,1,0,0,,,,,,,4,11,1,0,0,,0,65,65,87,1,
,,,,,,,,,,,,,FF,,,,,,,,1.772,,,,,,,,,,,,,,,,,,,,,,60fe5e12ba8c216235600e18,610379180fe5a4c6ebda3d30,2021-07-30_00h02.31.437,Simcolourproject_2stim_asymm_v5,2020.2.10,Win32,60,61025ae37ef11b136ea224fe,,,,,,,,,3934,-53,-106,1,0,0,response5disk,,3,3,11,1,0,0,rectangle,119,79,1,0,0,response1disk_3,TRUE,6,6,"[102,15,35,98,233,121,48,1,261,67,128,187,179,157,126,299,288,55,235,2]",2.996,2,6,1,0,0,rectangle,0,66,66,92,1,
,,,,,,,,,,,,,FF,,,,,,,,1.855,,,,,,,,,,,,,,,,,,,,,,60fe5e12ba8c216235600e18,610379180fe5a4c6ebda3d30,2021-07-30_00h02.31.437,Simcolourproject_2stim_asymm_v5,2020.2.10,Win32,60,61025ae37ef11b136ea224fe,,,,,,,,,3710,43,-81,1,0,0,response3disk,,4,3,7,1,0,0,rectangle,3,7,1,0,0,,,,,,,3,7,1,0,0,,0,67,67,22,1,
,,,,,,,,,,,,,FF,,,,,,,,2.379,,,,,,,,,,,,,,,,,,,,,,60fe5e12ba8c216235600e18,610379180fe5a4c6ebda3d30,2021-07-30_00h02.31.437,Simcolourproject_2stim_asymm_v5,2020.2.10,Win32,60,61025ae37ef11b136ea224fe,,,,,,,,,1279,102,-86,1,0,0,response3disk,,5,16,-7,1,0,0,rectangle,16,-7,1,0,0,,,,,,,16,-7,1,0,0,,0,68,68,95,1,
,,,,,,,,,,,,,FF,,,,,,,,1.509,,,,,,,,,,,,,,,,,,,,,,60fe5e12ba8c216235600e18,610379180fe5a4c6ebda3d30,2021-07-30_00h02.31.437,Simcolourproject_2stim_asymm_v5,2020.2.10,Win32,60,61025ae37ef11b136ea224fe,,,,,,,,,891,-54,80,1,0,0,response7disk,,0,-8,1,1,0,0,rectangle,-8,1,1,0,0,,,,,,,-8,1,1,0,0,,0,69,69,31,1,
,,,,,,,,,,,,,FF,,,,,,,,1.676,,,,,,,,,,,,,,,,,,,,,,60fe5e12ba8c216235600e18,610379180fe5a4c6ebda3d30,2021-07-30_00h02.31.437,Simcolourproject_2stim_asymm_v5,2020.2.10,Win32,60,61025ae37ef11b136ea224fe,,,,,,,,,3452,-27,-105,1,0,0,response5disk,,3,9,-7,1,0,0,rectangle,9,-7,1,0,0,,,,,,,9,-7,1,0,0,,0,70,70,111,1,
,,,,,,,,,,,,,FF,,,,,,,,1.516,,,,,,,,,,,,,,,,,,,,,,60fe5e12ba8c216235600e18,610379180fe5a4c6ebda3d30,2021-07-30_00h02.31.437,Simcolourproject_2stim_asymm_v5,2020.2.10,Win32,60,61025ae37ef11b136ea224fe,,,,,,,,,1083,92,62,1,0,0,response1disk,,6,-10,-8,1,0,0,rectangle,-10,-8,1,0,0,,,,,,,-10,-8,1,0,0,,0,71,71,30,1,
,,,,,,,,,,,,,FF,,,,,,,,1.356,,,,,,,,,,,,,,,,,,,,,,60fe5e12ba8c216235600e18,610379180fe5a4c6ebda3d30,2021-07-30_00h02.31.437,Simcolourproject_2stim_asymm_v5,2020.2.10,Win32,60,61025ae37ef11b136ea224fe,,,,,,,,,2796,-32,-93,1,0,0,response5disk,,3,10,-8,1,0,0,rectangle,10,-8,1,0,0,,,,,,,10,-8,1,0,0,,0,72,72,40,1,
,,,,,,,,,,,,,FF,,,,,,,,1.271,,,,,,,,,,,,,,,,,,,,,,60fe5e12ba8c216235600e18,610379180fe5a4c6ebda3d30,2021-07-30_00h02.31.437,Simcolourproject_2stim_asymm_v5,2020.2.10,Win32,60,61025ae37ef11b136ea224fe,,,,,,,,,150,-50,-55,1,0,0,response5disk,,3,-19,13,1,0,0,rectangle,-19,13,1,0,0,,,,,,,-19,13,1,0,0,,0,73,73,121,1,
,,,,,,,,,,,,,FF,,,,,,,,1.734,,,,,,,,,,,,,,,,,,,,,,60fe5e12ba8c216235600e18,610379180fe5a4c6ebda3d30,2021-07-30_00h02.31.437,Simcolourproject_2stim_asymm_v5,2020.2.10,Win32,60,61025ae37ef11b136ea224fe,,,,,,,,,4165,-76,-24,1,0,0,response5disk,,2,-16,16,1,0,0,rectangle,-16,16,1,0,0,,,,,,,-16,16,1,0,0,,0,74,74,65,1,
,,,,,,,,,,,,,FF,,,,,,,,1.101,,,,,,,,,,,,,,,,,,,,,,60fe5e12ba8c216235600e18,610379180fe5a4c6ebda3d30,2021-07-30_00h02.31.437,Simcolourproject_2stim_asymm_v5,2020.2.10,Win32,60,61025ae37ef11b136ea224fe,,,,,,,,,3318,56,108,1,0,0,response1disk,,7,10,5,1,0,0,rectangle,10,5,1,0,0,,,,,,,10,5,1,0,0,,0,75,75,81,1,
,,,,,,,,,,,,,FF,,,,,,,,1.138,,,,,,,,,,,,,,,,,,,,,,60fe5e12ba8c216235600e18,610379180fe5a4c6ebda3d30,2021-07-30_00h02.31.437,Simcolourproject_2stim_asymm_v5,2020.2.10,Win32,60,61025ae37ef11b136ea224fe,,,,,,,,,511,44,95,1,0,0,response1disk,,7,8,15,1,0,0,rectangle,8,15,1,0,0,,,,,,,8,15,1,0,0,,0,76,76,6,1,
,,,,,,,,,,,,,FF,,,,,,,,1.202,,,,,,,,,,,,,,,,,,,,,,60fe5e12ba8c216235600e18,610379180fe5a4c6ebda3d30,2021-07-30_00h02.31.437,Simcolourproject_2stim_asymm_v5,2020.2.10,Win32,60,61025ae37ef11b136ea224fe,,,,,,,,,2498,72,32,1,0,0,response1disk,,6,7,2,1,0,0,rectangle,7,2,1,0,0,,,,,,,7,2,1,0,0,,0,77,77,59,1,
,,,,,,,,,,,,,FF,,,,,,,,1.427,,,,,,,,,,,,,,,,,,,,,,60fe5e12ba8c216235600e18,610379180fe5a4c6ebda3d30,2021-07-30_00h02.31.437,Simcolourproject_2stim_asymm_v5,2020.2.10,Win32,60,61025ae37ef11b136ea224fe,,,,,,,,,3973,-67,-104,1,0,0,response5disk,,3,-1,-6,1,0,0,rectangle,-1,-6,1,0,0,,,,,,,-1,-6,1,0,0,,0,78,78,19,1,
,,,,,,,,,,,,,FF,,,,,,,,1.25,,,,,,,,,,,,,,,,,,,,,,60fe5e12ba8c216235600e18,610379180fe5a4c6ebda3d30,2021-07-30_00h02.31.437,Simcolourproject_2stim_asymm_v5,2020.2.10,Win32,60,61025ae37ef11b136ea224fe,,,,,,,,,3309,78,-38,1,0,0,response3disk,,5,19,-2,1,0,0,rectangle,19,-2,1,0,0,,,,,,,19,-2,1,0,0,,0,79,79,27,1,
,,,,,,,,,,,,,FF,,,,,,,,1.718,,,,,,,,,,,,,,,,,,,,,,60fe5e12ba8c216235600e18,610379180fe5a4c6ebda3d30,2021-07-30_00h02.31.437,Simcolourproject_2stim_asymm_v5,2020.2.10,Win32,60,61025ae37ef11b136ea224fe,,,,,,,,,2557,101,62,1,0,0,response1disk,,6,1,-7,1,0,0,rectangle,1,-7,1,0,0,,,,,,,1,-7,1,0,0,,0,80,80,41,1,
,,,,,,,,,,,,,FF,,,,,,,,2.064,,,,,,,,,,,,,,,,,,,,,,60fe5e12ba8c216235600e18,610379180fe5a4c6ebda3d30,2021-07-30_00h02.31.437,Simcolourproject_2stim_asymm_v5,2020.2.10,Win32,60,61025ae37ef11b136ea224fe,,,,,,,,,1843,41,-86,1,0,0,response3disk,,4,5,0,1,0,0,rectangle,5,0,1,0,0,,,,,,,5,0,1,0,0,,0,81,81,122,1,
,,,,,,,,,,,,,FF,,,,,,,,1.306,,,,,,,,,,,,,,,,,,,,,,60fe5e12ba8c216235600e18,610379180fe5a4c6ebda3d30,2021-07-30_00h02.31.437,Simcolourproject_2stim_asymm_v5,2020.2.10,Win32,60,61025ae37ef11b136ea224fe,,,,,,,,,2494,44,-66,1,0,0,response3disk,,4,16,7,1,0,0,rectangle,16,7,1,0,0,,,,,,,16,7,1,0,0,,0,82,82,106,1,
,,,,,,,,,,,,,FF,,,,,,,,3.093,,,,,,,,,,,,,,,,,,,,,,60fe5e12ba8c216235600e18,610379180fe5a4c6ebda3d30,2021-07-30_00h02.31.437,Simcolourproject_2stim_asymm_v5,2020.2.10,Win32,60,61025ae37ef11b136ea224fe,,,,,,,,,2592,-58,-99,1,0,0,response5disk,,3,-2,-10,1,0,0,rectangle,-2,-10,1,0,0,,,,,,,-2,-10,1,0,0,,0,83,83,133,1,
,,,,,,,,,,,,,FF,,,,,,,,1.771,,,,,,,,,,,,,,,,,,,,,,60fe5e12ba8c216235600e18,610379180fe5a4c6ebda3d30,2021-07-30_00h02.31.437,Simcolourproject_2stim_asymm_v5,2020.2.10,Win32,60,61025ae37ef11b136ea224fe,,,,,,,,,1343,94,-32,1,0,0,response3disk,,5,-8,4,1,0,0,rectangle,-8,4,1,0,0,,,,,,,-8,4,1,0,0,,0,84,84,70,1,
,,,,,,,,,,,,,FF,,,,,,,,1.21,,,,,,,,,,,,,,,,,,,,,,60fe5e12ba8c216235600e18,610379180fe5a4c6ebda3d30,2021-07-30_00h02.31.437,Simcolourproject_2stim_asymm_v5,2020.2.10,Win32,60,61025ae37ef11b136ea224fe,,,,,,,,,3682,-116,-31,1,0,0,response5disk,,2,-15,0,1,0,0,rectangle,-15,0,1,0,0,,,,,,,-15,0,1,0,0,,0,85,85,155,1,
,,,,,,,,,,,,,FF,,,,,,,,1.238,,,,,,,,,,,,,,,,,,,,,,60fe5e12ba8c216235600e18,610379180fe5a4c6ebda3d30,2021-07-30_00h02.31.437,Simcolourproject_2stim_asymm_v5,2020.2.10,Win32,60,61025ae37ef11b136ea224fe,,,,,,,,,1973,101,-36,1,0,0,response3disk,,5,7,0,1,0,0,rectangle,7,0,1,0,0,,,,,,,7,0,1,0,0,,0,86,86,66,1,
,,,,,,,,,,,,,FF,,,,,,,,2.696,,,,,,,,,,,,,,,,,,,,,,60fe5e12ba8c216235600e18,610379180fe5a4c6ebda3d30,2021-07-30_00h02.31.437,Simcolourproject_2stim_asymm_v5,2020.2.10,Win32,60,61025ae37ef11b136ea224fe,,,,,,,,,1334,100,29,1,0,0,response1disk,,6,4,5,1,0,0,rectangle,4,5,1,0,0,,,,,,,4,5,1,0,0,,0,87,87,100,1,
,,,,,,,,,,,,,FF,,,,,,,,1.335,,,,,,,,,,,,,,,,,,,,,,60fe5e12ba8c216235600e18,610379180fe5a4c6ebda3d30,2021-07-30_00h02.31.437,Simcolourproject_2stim_asymm_v5,2020.2.10,Win32,60,61025ae37ef11b136ea224fe,,,,,,,,,3048,-85,42,1,0,0,response7disk,,1,-14,12,1,0,0,rectangle,-14,12,1,0,0,,,,,,,-14,12,1,0,0,,0,88,88,74,1,
,,,,,,,,,,,,,FF,,,,,,,,1.09,,,,,,,,,,,,,,,,,,,,,,60fe5e12ba8c216235600e18,610379180fe5a4c6ebda3d30,2021-07-30_00h02.31.437,Simcolourproject_2stim_asymm_v5,2020.2.10,Win32,60,61025ae37ef11b136ea224fe,,,,,,,,,2873,114,50,1,0,0,response1disk,,6,1,14,1,0,0,rectangle,1,14,1,0,0,,,,,,,1,14,1,0,0,,0,89,89,53,1,
,,,,,,,,,,,,,FF,,,,,,,,1.281,,,,,,,,,,,,,,,,,,,,,,60fe5e12ba8c216235600e18,610379180fe5a4c6ebda3d30,2021-07-30_00h02.31.437,Simcolourproject_2stim_asymm_v5,2020.2.10,Win32,60,61025ae37ef11b136ea224fe,,,,,,,,,3552,-44,123,1,0,0,response7disk,,0,-4,11,1,0,0,rectangle,-4,11,1,0,0,,,,,,,-4,11,1,0,0,,0,90,90,139,1,
,,,,,,,,,,,,,FF,,,,,,,,1.202,,,,,,,,,,,,,,,,,,,,,,60fe5e12ba8c216235600e18,610379180fe5a4c6ebda3d30,2021-07-30_00h02.31.437,Simcolourproject_2stim_asymm_v5,2020.2.10,Win32,60,61025ae37ef11b136ea224fe,,,,,,,,,124,104,-49,1,0,0,response3disk,,5,10,-11,1,0,0,rectangle,10,-11,1,0,0,,,,,,,10,-11,1,0,0,,0,91,91,154,1,
,,,,,,,,,,,,,FF,,,,,,,,1.496,,,,,,,,,,,,,,,,,,,,,,60fe5e12ba8c216235600e18,610379180fe5a4c6ebda3d30,2021-07-30_00h02.31.437,Simcolourproject_2stim_asymm_v5,2020.2.10,Win32,60,61025ae37ef11b136ea224fe,,,,,,,,,882,40,-98,1,0,0,response3disk,,4,-4,-2,1,0,0,rectangle,-4,-2,1,0,0,,,,,,,-4,-2,1,0,0,,0,92,92,127,1,
,,,,,,,,,,,,,FF,,,,,,,,1.617,,,,,,,,,,,,,,,,,,,,,,60fe5e12ba8c216235600e18,610379180fe5a4c6ebda3d30,2021-07-30_00h02.31.437,Simcolourproject_2stim_asymm_v5,2020.2.10,Win32,60,61025ae37ef11b136ea224fe,,,,,,,,,3263,96,38,1,0,0,response1disk,,6,-8,3,1,0,0,rectangle,-8,3,1,0,0,,,,,,,-8,3,1,0,0,,0,93,93,94,1,
,,,,,,,,,,,,,FF,,,,,,,,1.124,,,,,,,,,,,,,,,,,,,,,,60fe5e12ba8c216235600e18,610379180fe5a4c6ebda3d30,2021-07-30_00h02.31.437,Simcolourproject_2stim_asymm_v5,2020.2.10,Win32,60,61025ae37ef11b136ea224fe,,,,,,,,,267,67,94,1,0,0,response1disk,,7,4,4,1,0,0,rectangle,4,4,1,0,0,,,,,,,4,4,1,0,0,,0,94,94,150,1,
,,,,,,,,,,,,,FF,,,,,,,,1.543,,,,,,,,,,,,,,,,,,,,,,60fe5e12ba8c216235600e18,610379180fe5a4c6ebda3d30,2021-07-30_00h02.31.437,Simcolourproject_2stim_asymm_v5,2020.2.10,Win32,60,61025ae37ef11b136ea224fe,,,,,,,,,122,33,-70,1,0,0,response3disk,,4,0,-5,1,0,0,rectangle,0,-5,1,0,0,,,,,,,0,-5,1,0,0,,0,95,95,152,1,
,,,,,,,,,,,,,FF,,,,,,,,2.488,,,,,,,,,,,,,,,,,,,,,,60fe5e12ba8c216235600e18,610379180fe5a4c6ebda3d30,2021-07-30_00h02.31.437,Simcolourproject_2stim_asymm_v5,2020.2.10,Win32,60,61025ae37ef11b136ea224fe,,,,,,,,,1373,-80,34,1,0,0,response7disk,,1,-13,8,1,0,0,rectangle,-13,8,1,0,0,,,,,,,-13,8,1,0,0,,0,96,96,151,1,
,,,,,,,,,,,,,FF,,,,,,,,1.815,,,,,,,,,,,,,,,,,,,,,,60fe5e12ba8c216235600e18,610379180fe5a4c6ebda3d30,2021-07-30_00h02.31.437,Simcolourproject_2stim_asymm_v5,2020.2.10,Win32,60,61025ae37ef11b136ea224fe,,,,,,,,,3265,112,-51,1,0,0,response3disk,,5,20,-7,1,0,0,rectangle,-96,-39,1,0,0,response5disk_3,TRUE,2,2,"[102,15,35,98,233,121,48,1,261,67,128,187,179,157,126,299,288,55,235,2]",2.32,-6,6,1,0,0,rectangle,0,97,97,15,1,
,,,,,,,,,,,,,FF,,,,,,,,1.234,,,,,,,,,,,,,,,,,,,,,,60fe5e12ba8c216235600e18,610379180fe5a4c6ebda3d30,2021-07-30_00h02.31.437,Simcolourproject_2stim_asymm_v5,2020.2.10,Win32,60,61025ae37ef11b136ea224fe,,,,,,,,,2081,-54,-88,1,0,0,response5disk,,3,-7,-12,1,0,0,rectangle,-7,-12,1,0,0,,,,,,,-7,-12,1,0,0,,0,98,98,136,1,
,,,,,,,,,,,,,FF,,,,,,,,1.1,,,,,,,,,,,,,,,,,,,,,,60fe5e12ba8c216235600e18,610379180fe5a4c6ebda3d30,2021-07-30_00h02.31.437,Simcolourproject_2stim_asymm_v5,2020.2.10,Win32,60,61025ae37ef11b136ea224fe,,,,,,,,,1003,62,-88,1,0,0,response3disk,,4,2,2,1,0,0,rectangle,2,2,1,0,0,,,,,,,2,2,1,0,0,,0,99,99,84,1,
,,,,,,,,,,,,,FF,,,,,,,,1.748,,,,,,,,,,,,,,,,,,,,,,60fe5e12ba8c216235600e18,610379180fe5a4c6ebda3d30,2021-07-30_00h02.31.437,Simcolourproject_2stim_asymm_v5,2020.2.10,Win32,60,61025ae37ef11b136ea224fe,,,,,,,,,74,42,-87,1,0,0,response3disk,,4,4,1,1,0,0,rectangle,4,1,1,0,0,,,,,,,4,1,1,0,0,,0,100,100,68,1,
,,,,,,,,,,,,,FF,,,,,,,,2.094,,,,,,,,,,,,,,,,,,,,,,60fe5e12ba8c216235600e18,610379180fe5a4c6ebda3d30,2021-07-30_00h02.31.437,Simcolourproject_2stim_asymm_v5,2020.2.10,Win32,60,61025ae37ef11b136ea224fe,,,,,,,,,1558,-48,-97,1,0,0,response5disk,,3,1,-6,1,0,0,rectangle,-34,72,1,0,0,response7disk_3,TRUE,0,0,"[102,15,35,98,233,121,48,1,261,67,128,187,179,157,126,299,288,55,235,2]",2.599,4,-10,1,0,0,rectangle,0,101,101,83,1,
,,,,,,,,,,,,,FF,,,,,,,,1.693,,,,,,,,,,,,,,,,,,,,,,60fe5e12ba8c216235600e18,610379180fe5a4c6ebda3d30,2021-07-30_00h02.31.437,Simcolourproject_2stim_asymm_v5,2020.2.10,Win32,60,61025ae37ef11b136ea224fe,,,,,,,,,4122,-72,-49,1,0,0,response5disk,,2,-6,-2,1,0,0,rectangle,-6,-2,1,0,0,,,,,,,-6,-2,1,0,0,,0,102,102,57,1,
,,,,,,,,,,,,,FF,,,,,,,,1.336,,,,,,,,,,,,,,,,,,,,,,60fe5e12ba8c216235600e18,610379180fe5a4c6ebda3d30,2021-07-30_00h02.31.437,Simcolourproject_2stim_asymm_v5,2020.2.10,Win32,60,61025ae37ef11b136ea224fe,,,,,,,,,396,92,51,1,0,0,response1disk,,6,24,-5,1,0,0,rectangle,24,-5,1,0,0,,,,,,,24,-5,1,0,0,,0,103,103,55,1,
,,,,,,,,,,,,,FF,,,,,,,,1.366,,,,,,,,,,,,,,,,,,,,,,60fe5e12ba8c216235600e18,610379180fe5a4c6ebda3d30,2021-07-30_00h02.31.437,Simcolourproject_2stim_asymm_v5,2020.2.10,Win32,60,61025ae37ef11b136ea224fe,,,,,,,,,706,79,42,1,0,0,response1disk,,6,-5,4,1,0,0,rectangle,-5,4,1,0,0,,,,,,,-5,4,1,0,0,,0,104,104,130,1,
,,,,,,,,,,,,,FF,,,,,,,,1.083,,,,,,,,,,,,,,,,,,,,,,60fe5e12ba8c216235600e18,610379180fe5a4c6ebda3d30,2021-07-30_00h02.31.437,Simcolourproject_2stim_asymm_v5,2020.2.10,Win32,60,61025ae37ef11b136ea224fe,,,,,,,,,1839,-39,-100,1,0,0,response5disk,,3,3,-12,1,0,0,rectangle,3,-12,1,0,0,,,,,,,3,-12,1,0,0,,0,105,105,60,1,
,,,,,,,,,,,,,FF,,,,,,,,1.226,,,,,,,,,,,,,,,,,,,,,,60fe5e12ba8c216235600e18,610379180fe5a4c6ebda3d30,2021-07-30_00h02.31.437,Simcolourproject_2stim_asymm_v5,2020.2.10,Win32,60,61025ae37ef11b136ea224fe,,,,,,,,,1960,-92,-35,1,0,0,response5disk,,2,5,10,1,0,0,rectangle,5,10,1,0,0,,,,,,,5,10,1,0,0,,0,106,106,71,1,
,,,,,,,,,,,,,FF,,,,,,,,1.217,,,,,,,,,,,,,,,,,,,,,,60fe5e12ba8c216235600e18,610379180fe5a4c6ebda3d30,2021-07-30_00h02.31.437,Simcolourproject_2stim_asymm_v5,2020.2.10,Win32,60,61025ae37ef11b136ea224fe,,,,,,,,,3965,-46,130,1,0,0,response7disk,,0,-16,12,1,0,0,rectangle,-16,12,1,0,0,,,,,,,-16,12,1,0,0,,0,107,107,45,1,
,,,,,,,,,,,,,FF,,,,,,,,0.992,,,,,,,,,,,,,,,,,,,,,,60fe5e12ba8c216235600e18,610379180fe5a4c6ebda3d30,2021-07-30_00h02.31.437,Simcolourproject_2stim_asymm_v5,2020.2.10,Win32,60,61025ae37ef11b136ea224fe,,,,,,,,,3806,-94,41,1,0,0,response7disk,,1,-21,11,1,0,0,rectangle,-21,11,1,0,0,,,,,,,-21,11,1,0,0,,0,108,108,20,1,
,,,,,,,,,,,,,FF,,,,,,,,1.311,,,,,,,,,,,,,,,,,,,,,,60fe5e12ba8c216235600e18,610379180fe5a4c6ebda3d30,2021-07-30_00h02.31.437,Simcolourproject_2stim_asymm_v5,2020.2.10,Win32,60,61025ae37ef11b136ea224fe,,,,,,,,,704,40,-86,1,0,0,response3disk,,4,1,-1,1,0,0,rectangle,1,-1,1,0,0,,,,,,,1,-1,1,0,0,,0,109,109,44,1,
,,,,,,,,,,,,,FF,,,,,,,,1.147,,,,,,,,,,,,,,,,,,,,,,60fe5e12ba8c216235600e18,610379180fe5a4c6ebda3d30,2021-07-30_00h02.31.437,Simcolourproject_2stim_asymm_v5,2020.2.10,Win32,60,61025ae37ef11b136ea224fe,,,,,,,,,2996,-82,-35,1,0,0,response5disk,,2,-17,-1,1,0,0,rectangle,-17,-1,1,0,0,,,,,,,-17,-1,1,0,0,,0,110,110,75,1,
,,,,,,,,,,,,,FF,,,,,,,,1.322,,,,,,,,,,,,,,,,,,,,,,60fe5e12ba8c216235600e18,610379180fe5a4c6ebda3d30,2021-07-30_00h02.31.437,Simcolourproject_2stim_asymm_v5,2020.2.10,Win32,60,61025ae37ef11b136ea224fe,,,,,,,,,3609,-42,-88,1,0,0,response5disk,,3,5,-11,1,0,0,rectangle,5,-11,1,0,0,,,,,,,5,-11,1,0,0,,0,111,111,46,1,
,,,,,,,,,,,,,FF,,,,,,,,1.157,,,,,,,,,,,,,,,,,,,,,,60fe5e12ba8c216235600e18,610379180fe5a4c6ebda3d30,2021-07-30_00h02.31.437,Simcolourproject_2stim_asymm_v5,2020.2.10,Win32,60,61025ae37ef11b136ea224fe,,,,,,,,,3425,-37,90,1,0,0,response7disk,,0,-15,11,1,0,0,rectangle,-15,11,1,0,0,,,,,,,-15,11,1,0,0,,0,112,112,24,1,
,,,,,,,,,,,,,FF,,,,,,,,2.183,,,,,,,,,,,,,,,,,,,,,,60fe5e12ba8c216235600e18,610379180fe5a4c6ebda3d30,2021-07-30_00h02.31.437,Simcolourproject_2stim_asymm_v5,2020.2.10,Win32,60,61025ae37ef11b136ea224fe,,,,,,,,,3006,-86,-54,1,0,0,response5disk,,2,9,8,1,0,0,rectangle,9,8,1,0,0,,,,,,,9,8,1,0,0,,0,113,113,147,1,
,,,,,,,,,,,,,FF,,,,,,,,1.264,,,,,,,,,,,,,,,,,,,,,,60fe5e12ba8c216235600e18,610379180fe5a4c6ebda3d30,2021-07-30_00h02.31.437,Simcolourproject_2stim_asymm_v5,2020.2.10,Win32,60,61025ae37ef11b136ea224fe,,,,,,,,,351,-112,58,1,0,0,response7disk,,1,-30,17,1,0,0,rectangle,-30,17,1,0,0,,,,,,,-30,17,1,0,0,,0,114,114,0,1,
,,,,,,,,,,,,,FF,,,,,,,,1.128,,,,,,,,,,,,,,,,,,,,,,60fe5e12ba8c216235600e18,610379180fe5a4c6ebda3d30,2021-07-30_00h02.31.437,Simcolourproject_2stim_asymm_v5,2020.2.10,Win32,60,61025ae37ef11b136ea224fe,,,,,,,,,1096,86,96,1,0,0,response1disk,,7,-8,0,1,0,0,rectangle,-8,0,1,0,0,,,,,,,-8,0,1,0,0,,0,115,115,128,1,
,,,,,,,,,,,,,FF,,,,,,,,1.167,,,,,,,,,,,,,,,,,,,,,,60fe5e12ba8c216235600e18,610379180fe5a4c6ebda3d30,2021-07-30_00h02.31.437,Simcolourproject_2stim_asymm_v5,2020.2.10,Win32,60,61025ae37ef11b136ea224fe,,,,,,,,,2234,-46,134,1,0,0,response7disk,,0,-8,10,1,0,0,rectangle,-8,10,1,0,0,,,,,,,-8,10,1,0,0,,0,116,116,34,1,
,,,,,,,,,,,,,FF,,,,,,,,1.336,,,,,,,,,,,,,,,,,,,,,,60fe5e12ba8c216235600e18,610379180fe5a4c6ebda3d30,2021-07-30_00h02.31.437,Simcolourproject_2stim_asymm_v5,2020.2.10,Win32,60,61025ae37ef11b136ea224fe,,,,,,,,,3186,90,44,1,0,0,response1disk,,6,-6,-6,1,0,0,rectangle,-6,-6,1,0,0,,,,,,,-6,-6,1,0,0,,0,117,117,79,1,
,,,,,,,,,,,,,FF,,,,,,,,1.463,,,,,,,,,,,,,,,,,,,,,,60fe5e12ba8c216235600e18,610379180fe5a4c6ebda3d30,2021-07-30_00h02.31.437,Simcolourproject_2stim_asymm_v5,2020.2.10,Win32,60,61025ae37ef11b136ea224fe,,,,,,,,,3352,56,108,1,0,0,response1disk,,7,3,12,1,0,0,rectangle,3,12,1,0,0,,,,,,,3,12,1,0,0,,0,118,118,63,1,
,,,,,,,,,,,,,FF,,,,,,,,1.255,,,,,,,,,,,,,,,,,,,,,,60fe5e12ba8c216235600e18,610379180fe5a4c6ebda3d30,2021-07-30_00h02.31.437,Simcolourproject_2stim_asymm_v5,2020.2.10,Win32,60,61025ae37ef11b136ea224fe,,,,,,,,,1412,-34,-67,1,0,0,response5disk,,3,-5,9,1,0,0,rectangle,-5,9,1,0,0,,,,,,,-5,9,1,0,0,,0,119,119,77,1,
,,,,,,,,,,,,,FF,,,,,,,,1.046,,,,,,,,,,,,,,,,,,,,,,60fe5e12ba8c216235600e18,610379180fe5a4c6ebda3d30,2021-07-30_00h02.31.437,Simcolourproject_2stim_asymm_v5,2020.2.10,Win32,60,61025ae37ef11b136ea224fe,,,,,,,,,725,-72,37,1,0,0,response7disk,,1,0,9,1,0,0,rectangle,54,-27,1,0,0,response3disk_3,TRUE,5,5,"[102,15,35,98,233,121,48,1,261,67,128,187,179,157,126,299,288,55,235,2]",2.145,-2,-2,1,0,0,rectangle,0,120,120,56,1,
,,,,,,,,,,,,,FF,,,,,,,,1.524,,,,,,,,,,,,,,,,,,,,,,60fe5e12ba8c216235600e18,610379180fe5a4c6ebda3d30,2021-07-30_00h02.31.437,Simcolourproject_2stim_asymm_v5,2020.2.10,Win32,60,61025ae37ef11b136ea224fe,,,,,,,,,2174,-83,61,1,0,0,response7disk,,1,-18,4,1,0,0,rectangle,-18,4,1,0,0,,,,,,,-18,4,1,0,0,,0,121,121,107,1,
,,,,,,,,,,,,,FF,,,,,,,,1.644,,,,,,,,,,,,,,,,,,,,,,60fe5e12ba8c216235600e18,610379180fe5a4c6ebda3d30,2021-07-30_00h02.31.437,Simcolourproject_2stim_asymm_v5,2020.2.10,Win32,60,61025ae37ef11b136ea224fe,,,,,,,,,3330,-92,-51,1,0,0,response5disk,,2,-10,-14,1,0,0,rectangle,-10,-14,1,0,0,,,,,,,-10,-14,1,0,0,,0,122,122,72,1,
,,,,,,,,,,,,,FF,,,,,,,,1.176,,,,,,,,,,,,,,,,,,,,,,60fe5e12ba8c216235600e18,610379180fe5a4c6ebda3d30,2021-07-30_00h02.31.437,Simcolourproject_2stim_asymm_v5,2020.2.10,Win32,60,61025ae37ef11b136ea224fe,,,,,,,,,4354,36,-83,1,0,0,response3disk,,4,21,-9,1,0,0,rectangle,21,-9,1,0,0,,,,,,,21,-9,1,0,0,,0,123,123,126,1,
,,,,,,,,,,,,,FF,,,,,,,,1.277,,,,,,,,,,,,,,,,,,,,,,60fe5e12ba8c216235600e18,610379180fe5a4c6ebda3d30,2021-07-30_00h02.31.437,Simcolourproject_2stim_asymm_v5,2020.2.10,Win32,60,61025ae37ef11b136ea224fe,,,,,,,,,2000,91,36,1,0,0,response1disk,,6,-21,-4,1,0,0,rectangle,-21,-4,1,0,0,,,,,,,-21,-4,1,0,0,,0,124,124,141,1,
,,,,,,,,,,,,,FF,,,,,,,,2.222,,,,,,,,,,,,,,,,,,,,,,60fe5e12ba8c216235600e18,610379180fe5a4c6ebda3d30,2021-07-30_00h02.31.437,Simcolourproject_2stim_asymm_v5,2020.2.10,Win32,60,61025ae37ef11b136ea224fe,,,,,,,,,1762,36,-114,1,0,0,response3disk,,4,0,8,1,0,0,rectangle,92,34,1,0,0,response1disk_3,TRUE,6,6,"[102,15,35,98,233,121,48,1,261,67,128,187,179,157,126,299,288,55,235,2]",2.16,4,11,1,0,0,rectangle,0,125,125,61,1,
,,,,,,,,,,,,,FF,,,,,,,,1.456,,,,,,,,,,,,,,,,,,,,,,60fe5e12ba8c216235600e18,610379180fe5a4c6ebda3d30,2021-07-30_00h02.31.437,Simcolourproject_2stim_asymm_v5,2020.2.10,Win32,60,61025ae37ef11b136ea224fe,,,,,,,,,1898,-33,-97,1,0,0,response5disk,,3,12,-9,1,0,0,rectangle,12,-9,1,0,0,,,,,,,12,-9,1,0,0,,0,126,126,89,1,
,,,,,,,,,,,,,FF,,,,,,,,1.063,,,,,,,,,,,,,,,,,,,,,,60fe5e12ba8c216235600e18,610379180fe5a4c6ebda3d30,2021-07-30_00h02.31.437,Simcolourproject_2stim_asymm_v5,2020.2.10,Win32,60,61025ae37ef11b136ea224fe,,,,,,,,,2888,-101,-53,1,0,0,response5disk,,2,-17,-8,1,0,0,rectangle,-74,-29,1,0,0,response5disk_3,TRUE,2,2,"[102,15,35,98,233,121,48,1,261,67,128,187,179,157,126,299,288,55,235,2]",2.263,-19,6,1,0,0,rectangle,0,127,127,39,1,
,,,,,,,,,,,,,FF,,,,,,,,1.947,,,,,,,,,,,,,,,,,,,,,,60fe5e12ba8c216235600e18,610379180fe5a4c6ebda3d30,2021-07-30_00h02.31.437,Simcolourproject_2stim_asymm_v5,2020.2.10,Win32,60,61025ae37ef11b136ea224fe,,,,,,,,,2692,73,-102,1,0,0,response3disk,,4,10,-4,1,0,0,rectangle,10,-4,1,0,0,,,,,,,10,-4,1,0,0,,0,128,128,4,1,
,,,,,,,,,,,,,FF,,,,,,,,1.862,,,,,,,,,,,,,,,,,,,,,,60fe5e12ba8c216235600e18,610379180fe5a4c6ebda3d30,2021-07-30_00h02.31.437,Simcolourproject_2stim_asymm_v5,2020.2.10,Win32,60,61025ae37ef11b136ea224fe,,,,,,,,,1515,122,31,1,0,0,response1disk,,6,-6,6,1,0,0,rectangle,-6,6,1,0,0,,,,,,,-6,6,1,0,0,,0,129,129,21,1,
,,,,,,,,,,,,,FF,,,,,,,,1.489,,,,,,,,,,,,,,,,,,,,,,60fe5e12ba8c216235600e18,610379180fe5a4c6ebda3d30,2021-07-30_00h02.31.437,Simcolourproject_2stim_asymm_v5,2020.2.10,Win32,60,61025ae37ef11b136ea224fe,,,,,,,,,3028,54,76,1,0,0,response1disk,,7,6,12,1,0,0,rectangle,6,12,1,0,0,,,,,,,6,12,1,0,0,,0,130,130,8,1,
,,,,,,,,,,,,,FF,,,,,,,,1.26,,,,,,,,,,,,,,,,,,,,,,60fe5e12ba8c216235600e18,610379180fe5a4c6ebda3d30,2021-07-30_00h02.31.437,Simcolourproject_2stim_asymm_v5,2020.2.10,Win32,60,61025ae37ef11b136ea224fe,,,,,,,,,2020,60,92,1,0,0,response1disk,,7,2,7,1,0,0,rectangle,2,7,1,0,0,,,,,,,2,7,1,0,0,,0,131,131,35,1,
,,,,,,,,,,,,,FF,,,,,,,,1.175,,,,,,,,,,,,,,,,,,,,,,60fe5e12ba8c216235600e18,610379180fe5a4c6ebda3d30,2021-07-30_00h02.31.437,Simcolourproject_2stim_asymm_v5,2020.2.10,Win32,60,61025ae37ef11b136ea224fe,,,,,,,,,297,68,36,1,0,0,response1disk,,6,-15,-9,1,0,0,rectangle,-15,-9,1,0,0,,,,,,,-15,-9,1,0,0,,0,132,132,96,1,
,,,,,,,,,,,,,FF,,,,,,,,1.206,,,,,,,,,,,,,,,,,,,,,,60fe5e12ba8c216235600e18,610379180fe5a4c6ebda3d30,2021-07-30_00h02.31.437,Simcolourproject_2stim_asymm_v5,2020.2.10,Win32,60,61025ae37ef11b136ea224fe,,,,,,,,,1778,-62,-63,1,0,0,response5disk,,3,-9,-14,1,0,0,rectangle,-9,-14,1,0,0,,,,,,,-9,-14,1,0,0,,0,133,133,10,1,
,,,,,,,,,,,,,FF,,,,,,,,1.162,,,,,,,,,,,,,,,,,,,,,,60fe5e12ba8c216235600e18,610379180fe5a4c6ebda3d30,2021-07-30_00h02.31.437,Simcolourproject_2stim_asymm_v5,2020.2.10,Win32,60,61025ae37ef11b136ea224fe,,,,,,,,,2689,30,-81,1,0,0,response3disk,,4,14,-5,1,0,0,rectangle,14,-5,1,0,0,,,,,,,14,-5,1,0,0,,0,134,134,114,1,
,,,,,,,,,,,,,FF,,,,,,,,1.417,,,,,,,,,,,,,,,,,,,,,,60fe5e12ba8c216235600e18,610379180fe5a4c6ebda3d30,2021-07-30_00h02.31.437,Simcolourproject_2stim_asymm_v5,2020.2.10,Win32,60,61025ae37ef11b136ea224fe,,,,,,,,,995,25,-81,1,0,0,response3disk,,4,4,6,1,0,0,rectangle,4,6,1,0,0,,,,,,,4,6,1,0,0,,0,135,135,67,1,
,,,,,,,,,,,,,FF,,,,,,,,1.184,,,,,,,,,,,,,,,,,,,,,,60fe5e12ba8c216235600e18,610379180fe5a4c6ebda3d30,2021-07-30_00h02.31.437,Simcolourproject_2stim_asymm_v5,2020.2.10,Win32,60,61025ae37ef11b136ea224fe,,,,,,,,,10,43,-80,1,0,0,response3disk,,4,19,-8,1,0,0,rectangle,19,-8,1,0,0,,,,,,,19,-8,1,0,0,,0,136,136,52,1,
,,,,,,,,,,,,,FF,,,,,,,,1.369,,,,,,,,,,,,,,,,,,,,,,60fe5e12ba8c216235600e18,610379180fe5a4c6ebda3d30,2021-07-30_00h02.31.437,Simcolourproject_2stim_asymm_v5,2020.2.10,Win32,60,61025ae37ef11b136ea224fe,,,,,,,,,1410,47,-89,1,0,0,response3disk,,4,0,-6,1,0,0,rectangle,0,-6,1,0,0,,,,,,,0,-6,1,0,0,,0,137,137,25,1,
,,,,,,,,,,,,,FF,,,,,,,,1.016,,,,,,,,,,,,,,,,,,,,,,60fe5e12ba8c216235600e18,610379180fe5a4c6ebda3d30,2021-07-30_00h02.31.437,Simcolourproject_2stim_asymm_v5,2020.2.10,Win32,60,61025ae37ef11b136ea224fe,,,,,,,,,1324,54,-123,1,0,0,response3disk,,4,10,-16,1,0,0,rectangle,10,-16,1,0,0,,,,,,,10,-16,1,0,0,,0,138,138,62,1,
,,,,,,,,,,,,,FF,,,,,,,,1.708,,,,,,,,,,,,,,,,,,,,,,60fe5e12ba8c216235600e18,610379180fe5a4c6ebda3d30,2021-07-30_00h02.31.437,Simcolourproject_2stim_asymm_v5,2020.2.10,Win32,60,61025ae37ef11b136ea224fe,,,,,,,,,1806,81,52,1,0,0,response1disk,,6,4,-9,1,0,0,rectangle,4,-9,1,0,0,,,,,,,4,-9,1,0,0,,0,139,139,116,1,
,,,,,,,,,,,,,FF,,,,,,,,1.282,,,,,,,,,,,,,,,,,,,,,,60fe5e12ba8c216235600e18,610379180fe5a4c6ebda3d30,2021-07-30_00h02.31.437,Simcolourproject_2stim_asymm_v5,2020.2.10,Win32,60,61025ae37ef11b136ea224fe,,,,,,,,,3141,-34,-81,1,0,0,response5disk,,3,12,-5,1,0,0,rectangle,12,-5,1,0,0,,,,,,,12,-5,1,0,0,,0,140,140,28,1,
,,,,,,,,,,,,,FF,,,,,,,,1.185,,,,,,,,,,,,,,,,,,,,,,60fe5e12ba8c216235600e18,610379180fe5a4c6ebda3d30,2021-07-30_00h02.31.437,Simcolourproject_2stim_asymm_v5,2020.2.10,Win32,60,61025ae37ef11b136ea224fe,,,,,,,,,402,84,-46,1,0,0,response3disk,,5,13,3,1,0,0,rectangle,13,3,1,0,0,,,,,,,13,3,1,0,0,,0,141,141,12,1,
,,,,,,,,,,,,,FF,,,,,,,,1.233,,,,,,,,,,,,,,,,,,,,,,60fe5e12ba8c216235600e18,610379180fe5a4c6ebda3d30,2021-07-30_00h02.31.437,Simcolourproject_2stim_asymm_v5,2020.2.10,Win32,60,61025ae37ef11b136ea224fe,,,,,,,,,56,-44,-91,1,0,0,response5disk,,3,2,-12,1,0,0,rectangle,2,-12,1,0,0,,,,,,,2,-12,1,0,0,,0,142,142,123,1,
,,,,,,,,,,,,,FF,,,,,,,,1.036,,,,,,,,,,,,,,,,,,,,,,60fe5e12ba8c216235600e18,610379180fe5a4c6ebda3d30,2021-07-30_00h02.31.437,Simcolourproject_2stim_asymm_v5,2020.2.10,Win32,60,61025ae37ef11b136ea224fe,,,,,,,,,2749,-43,-91,1,0,0,response5disk,,3,3,-2,1,0,0,rectangle,3,-2,1,0,0,,,,,,,3,-2,1,0,0,,0,143,143,9,1,
,,,,,,,,,,,,,FF,,,,,,,,1.449,,,,,,,,,,,,,,,,,,,,,,60fe5e12ba8c216235600e18,610379180fe5a4c6ebda3d30,2021-07-30_00h02.31.437,Simcolourproject_2stim_asymm_v5,2020.2.10,Win32,60,61025ae37ef11b136ea224fe,,,,,,,,,371,-65,-43,1,0,0,response5disk,,2,-10,-6,1,0,0,rectangle,-10,-6,1,0,0,,,,,,,-10,-6,1,0,0,,0,144,144,144,1,
,,,,,,,,,,,,,FF,,,,,,,,1.301,,,,,,,,,,,,,,,,,,,,,,60fe5e12ba8c216235600e18,610379180fe5a4c6ebda3d30,2021-07-30_00h02.31.437,Simcolourproject_2stim_asymm_v5,2020.2.10,Win32,60,61025ae37ef11b136ea224fe,,,,,,,,,132,34,-92,1,0,0,response3disk,,4,-4,2,1,0,0,rectangle,-4,2,1,0,0,,,,,,,-4,2,1,0,0,,0,145,145,29,1,
,,,,,,,,,,,,,FF,,,,,,,,1.231,,,,,,,,,,,,,,,,,,,,,,60fe5e12ba8c216235600e18,610379180fe5a4c6ebda3d30,2021-07-30_00h02.31.437,Simcolourproject_2stim_asymm_v5,2020.2.10,Win32,60,61025ae37ef11b136ea224fe,,,,,,,,,4028,-50,-59,1,0,0,response5disk,,3,-2,-14,1,0,0,rectangle,-2,-14,1,0,0,,,,,,,-2,-14,1,0,0,,0,146,146,93,1,
,,,,,,,,,,,,,FF,,,,,,,,2.785,,,,,,,,,,,,,,,,,,,,,,60fe5e12ba8c216235600e18,610379180fe5a4c6ebda3d30,2021-07-30_00h02.31.437,Simcolourproject_2stim_asymm_v5,2020.2.10,Win32,60,61025ae37ef11b136ea224fe,,,,,,,,,3296,-103,-34,1,0,0,response5disk,,2,9,8,1,0,0,rectangle,9,8,1,0,0,,,,,,,9,8,1,0,0,,0,147,147,98,1,
,,,,,,,,,,,,,FF,,,,,,,,1.151,,,,,,,,,,,,,,,,,,,,,,60fe5e12ba8c216235600e18,610379180fe5a4c6ebda3d30,2021-07-30_00h02.31.437,Simcolourproject_2stim_asymm_v5,2020.2.10,Win32,60,61025ae37ef11b136ea224fe,,,,,,,,,2060,84,-66,1,0,0,response3disk,,5,1,-16,1,0,0,rectangle,1,-16,1,0,0,,,,,,,1,-16,1,0,0,,0,148,148,156,1,
,,,,,,,,,,,,,FF,,,,,,,,1.051,,,,,,,,,,,,,,,,,,,,,,60fe5e12ba8c216235600e18,610379180fe5a4c6ebda3d30,2021-07-30_00h02.31.437,Simcolourproject_2stim_asymm_v5,2020.2.10,Win32,60,61025ae37ef11b136ea224fe,,,,,,,,,2611,-30,-95,1,0,0,response5disk,,3,17,-4,1,0,0,rectangle,17,-4,1,0,0,,,,,,,17,-4,1,0,0,,0,149,149,117,1,
,,,,,,,,,,,,,FF,,,,,,,,1.461,,,,,,,,,,,,,,,,,,,,,,60fe5e12ba8c216235600e18,610379180fe5a4c6ebda3d30,2021-07-30_00h02.31.437,Simcolourproject_2stim_asymm_v5,2020.2.10,Win32,60,61025ae37ef11b136ea224fe,,,,,,,,,3302,102,-51,1,0,0,response3disk,,5,6,2,1,0,0,rectangle,6,2,1,0,0,,,,,,,6,2,1,0,0,,0,150,150,138,1,
,,,,,,,,,,,,,FF,,,,,,,,1.52,,,,,,,,,,,,,,,,,,,,,,60fe5e12ba8c216235600e18,610379180fe5a4c6ebda3d30,2021-07-30_00h02.31.437,Simcolourproject_2stim_asymm_v5,2020.2.10,Win32,60,61025ae37ef11b136ea224fe,,,,,,,,,3140,-82,85,1,0,0,response7disk,,0,14,4,1,0,0,rectangle,14,4,1,0,0,,,,,,,14,4,1,0,0,,0,151,151,13,1,
,,,,,,,,,,,,,FF,,,,,,,,1.598,,,,,,,,,,,,,,,,,,,,,,60fe5e12ba8c216235600e18,610379180fe5a4c6ebda3d30,2021-07-30_00h02.31.437,Simcolourproject_2stim_asymm_v5,2020.2.10,Win32,60,61025ae37ef11b136ea224fe,,,,,,,,,1212,-43,116,1,0,0,response7disk,,0,-5,10,1,0,0,rectangle,-5,10,1,0,0,,,,,,,-5,10,1,0,0,,0,152,152,17,1,
,,,,,,,,,,,,,FF,,,,,,,,1.101,,,,,,,,,,,,,,,,,,,,,,60fe5e12ba8c216235600e18,610379180fe5a4c6ebda3d30,2021-07-30_00h02.31.437,Simcolourproject_2stim_asymm_v5,2020.2.10,Win32,60,61025ae37ef11b136ea224fe,,,,,,,,,497,101,-50,1,0,0,response3disk,,5,-6,3,1,0,0,rectangle,-6,3,1,0,0,,,,,,,-6,3,1,0,0,,0,153,153,33,1,
,,,,,,,,,,,,,FF,,,,,,,,1.122,,,,,,,,,,,,,,,,,,,,,,60fe5e12ba8c216235600e18,610379180fe5a4c6ebda3d30,2021-07-30_00h02.31.437,Simcolourproject_2stim_asymm_v5,2020.2.10,Win32,60,61025ae37ef11b136ea224fe,,,,,,,,,3490,59,31,1,0,0,response1disk,,6,-5,7,1,0,0,rectangle,-5,7,1,0,0,,,,,,,-5,7,1,0,0,,0,154,154,48,1,
,,,,,,,,,,,,,FF,,,,,,,,1.587,,,,,,,,,,,,,,,,,,,,,,60fe5e12ba8c216235600e18,610379180fe5a4c6ebda3d30,2021-07-30_00h02.31.437,Simcolourproject_2stim_asymm_v5,2020.2.10,Win32,60,61025ae37ef11b136ea224fe,,,,,,,,,2879,34,-85,1,0,0,response3disk,,4,11,2,1,0,0,rectangle,11,2,1,0,0,,,,,,,11,2,1,0,0,,0,155,155,47,1,
,,,,,,,,,,,,,FF,,,,,,,,1.773,,,,,,,,,,,,,,,,,,,,,,60fe5e12ba8c216235600e18,610379180fe5a4c6ebda3d30,2021-07-30_00h02.31.437,Simcolourproject_2stim_asymm_v5,2020.2.10,Win32,60,61025ae37ef11b136ea224fe,,,,,,,,,1408,39,-105,1,0,0,response3disk,,4,6,2,1,0,0,rectangle,-100,-35,1,0,0,response5disk_3,TRUE,2,2,"[102,15,35,98,233,121,48,1,261,67,128,187,179,157,126,299,288,55,235,2]",2.892,-32,-8,1,0,0,rectangle,0,156,156,134,1,
,,,,,,,,,,,,,FF,,,,,,,,1.161,,,,,,,,,,,,,,,,,,,,,,60fe5e12ba8c216235600e18,610379180fe5a4c6ebda3d30,2021-07-30_00h02.31.437,Simcolourproject_2stim_asymm_v5,2020.2.10,Win32,60,61025ae37ef11b136ea224fe,,,,,,,,,2770,-54,-42,1,0,0,response5disk,,2,8,-8,1,0,0,rectangle,8,-8,1,0,0,,,,,,,8,-8,1,0,0,,0,157,157,86,1,
,,,,,,,,,,,,,FF,,,,,,,,1.125,,,,,,,,,,,,,,,,,,,,,,60fe5e12ba8c216235600e18,610379180fe5a4c6ebda3d30,2021-07-30_00h02.31.437,Simcolourproject_2stim_asymm_v5,2020.2.10,Win32,60,61025ae37ef11b136ea224fe,,,,,,,,,2529,54,-73,1,0,0,response3disk,,4,3,-16,1,0,0,rectangle,3,-16,1,0,0,,,,,,,3,-16,1,0,0,,0,158,158,37,1,
,,,,,,,,,,,,,FF,,,,,,,,1.289,,,,,,,,,,,,,,,,,,,,,,60fe5e12ba8c216235600e18,610379180fe5a4c6ebda3d30,2021-07-30_00h02.31.437,Simcolourproject_2stim_asymm_v5,2020.2.10,Win32,60,61025ae37ef11b136ea224fe,,,,,,,,,97,-62,77,1,0,0,response7disk,,0,6,-2,1,0,0,rectangle,6,-2,1,0,0,,,,,,,6,-2,1,0,0,,0,159,159,140,1,
,,,,,,,,,,,,,FF,,,,,,,,1.4,,,,,,,,,,,,,,,,,,,,,,60fe5e12ba8c216235600e18,610379180fe5a4c6ebda3d30,2021-07-30_00h02.31.437,Simcolourproject_2stim_asymm_v5,2020.2.10,Win32,60,61025ae37ef11b136ea224fe,,,,,,,,,2366,52,-95,1,0,0,response3disk,,4,13,-15,1,0,0,rectangle,13,-15,1,0,0,,,,,,,13,-15,1,0,0,,1,0,160,123,1,
,,,,,,,,,,,,,FF,,,,,,,,2.354,,,,,,,,,,,,,,,,,,,,,,60fe5e12ba8c216235600e18,610379180fe5a4c6ebda3d30,2021-07-30_00h02.31.437,Simcolourproject_2stim_asymm_v5,2020.2.10,Win32,60,61025ae37ef11b136ea224fe,,,,,,,,,2706,87,54,1,0,0,response1disk,,6,21,10,1,0,0,rectangle,21,10,1,0,0,,,,,,,21,10,1,0,0,,1,1,161,126,1,
,,,,,,,,,,,,,FF,,,,,,,,1.255,,,,,,,,,,,,,,,,,,,,,,60fe5e12ba8c216235600e18,610379180fe5a4c6ebda3d30,2021-07-30_00h02.31.437,Simcolourproject_2stim_asymm_v5,2020.2.10,Win32,60,61025ae37ef11b136ea224fe,,,,,,,,,3356,48,101,1,0,0,response1disk,,7,17,-2,1,0,0,rectangle,17,-2,1,0,0,,,,,,,17,-2,1,0,0,,1,2,162,33,1,
,,,,,,,,,,,,,FF,,,,,,,,1.84,,,,,,,,,,,,,,,,,,,,,,60fe5e12ba8c216235600e18,610379180fe5a4c6ebda3d30,2021-07-30_00h02.31.437,Simcolourproject_2stim_asymm_v5,2020.2.10,Win32,60,61025ae37ef11b136ea224fe,,,,,,,,,1691,-82,-28,1,0,0,response5disk,,2,-10,-10,1,0,0,rectangle,-10,-10,1,0,0,,,,,,,-10,-10,1,0,0,,1,3,163,96,1,
,,,,,,,,,,,,,FF,,,,,,,,1.232,,,,,,,,,,,,,,,,,,,,,,60fe5e12ba8c216235600e18,610379180fe5a4c6ebda3d30,2021-07-30_00h02.31.437,Simcolourproject_2stim_asymm_v5,2020.2.10,Win32,60,61025ae37ef11b136ea224fe,,,,,,,,,2360,-59,40,1,0,0,response7disk,,1,2,9,1,0,0,rectangle,2,9,1,0,0,,,,,,,2,9,1,0,0,,1,4,164,142,1,
,,,,,,,,,,,,,FF,,,,,,,,1.614,,,,,,,,,,,,,,,,,,,,,,60fe5e12ba8c216235600e18,610379180fe5a4c6ebda3d30,2021-07-30_00h02.31.437,Simcolourproject_2stim_asymm_v5,2020.2.10,Win32,60,61025ae37ef11b136ea224fe,,,,,,,,,4135,31,-107,1,0,0,response3disk,,4,9,-16,1,0,0,rectangle,9,-16,1,0,0,,,,,,,9,-16,1,0,0,,1,5,165,35,1,
,,,,,,,,,,,,,FF,,,,,,,,1.377,,,,,,,,,,,,,,,,,,,,,,60fe5e12ba8c216235600e18,610379180fe5a4c6ebda3d30,2021-07-30_00h02.31.437,Simcolourproject_2stim_asymm_v5,2020.2.10,Win32,60,61025ae37ef11b136ea224fe,,,,,,,,,2887,-112,-86,1,0,0,response5disk,,2,4,-2,1,0,0,rectangle,4,-2,1,0,0,,,,,,,4,-2,1,0,0,,1,6,166,8,1,
,,,,,,,,,,,,,FF,,,,,,,,1.99,,,,,,,,,,,,,,,,,,,,,,60fe5e12ba8c216235600e18,610379180fe5a4c6ebda3d30,2021-07-30_00h02.31.437,Simcolourproject_2stim_asymm_v5,2020.2.10,Win32,60,61025ae37ef11b136ea224fe,,,,,,,,,2129,78,49,1,0,0,response1disk,,6,7,-4,1,0,0,rectangle,7,-4,1,0,0,,,,,,,7,-4,1,0,0,,1,7,167,22,1,
,,,,,,,,,,,,,FF,,,,,,,,3.017,,,,,,,,,,,,,,,,,,,,,,60fe5e12ba8c216235600e18,610379180fe5a4c6ebda3d30,2021-07-30_00h02.31.437,Simcolourproject_2stim_asymm_v5,2020.2.10,Win32,60,61025ae37ef11b136ea224fe,,,,,,,,,1143,-18,-98,1,0,0,response5disk,,3,4,-9,1,0,0,rectangle,4,-9,1,0,0,,,,,,,4,-9,1,0,0,,1,8,168,45,1,
,,,,,,,,,,,,,FF,,,,,,,,1.548,,,,,,,,,,,,,,,,,,,,,,60fe5e12ba8c216235600e18,610379180fe5a4c6ebda3d30,2021-07-30_00h02.31.437,Simcolourproject_2stim_asymm_v5,2020.2.10,Win32,60,61025ae37ef11b136ea224fe,,,,,,,,,1413,96,-30,1,0,0,response3disk,,5,26,4,1,0,0,rectangle,26,4,1,0,0,,,,,,,26,4,1,0,0,,1,9,169,67,1,
,,,,,,,,,,,,,FF,,,,,,,,1.058,,,,,,,,,,,,,,,,,,,,,,60fe5e12ba8c216235600e18,610379180fe5a4c6ebda3d30,2021-07-30_00h02.31.437,Simcolourproject_2stim_asymm_v5,2020.2.10,Win32,60,61025ae37ef11b136ea224fe,,,,,,,,,2975,56,83,1,0,0,response1disk,,7,9,1,1,0,0,rectangle,9,1,1,0,0,,,,,,,9,1,1,0,0,,1,10,170,93,1,
,,,,,,,,,,,,,FF,,,,,,,,1.358,,,,,,,,,,,,,,,,,,,,,,60fe5e12ba8c216235600e18,610379180fe5a4c6ebda3d30,2021-07-30_00h02.31.437,Simcolourproject_2stim_asymm_v5,2020.2.10,Win32,60,61025ae37ef11b136ea224fe,,,,,,,,,2712,-39,-60,1,0,0,response5disk,,3,-2,8,1,0,0,rectangle,-2,8,1,0,0,,,,,,,-2,8,1,0,0,,1,11,171,62,1,
,,,,,,,,,,,,,FF,,,,,,,,1.529,,,,,,,,,,,,,,,,,,,,,,60fe5e12ba8c216235600e18,610379180fe5a4c6ebda3d30,2021-07-30_00h02.31.437,Simcolourproject_2stim_asymm_v5,2020.2.10,Win32,60,61025ae37ef11b136ea224fe,,,,,,,,,594,79,53,1,0,0,response1disk,,6,12,10,1,0,0,rectangle,12,10,1,0,0,,,,,,,12,10,1,0,0,,1,12,172,38,1,
,,,,,,,,,,,,,FF,,,,,,,,1.117,,,,,,,,,,,,,,,,,,,,,,60fe5e12ba8c216235600e18,610379180fe5a4c6ebda3d30,2021-07-30_00h02.31.437,Simcolourproject_2stim_asymm_v5,2020.2.10,Win32,60,61025ae37ef11b136ea224fe,,,,,,,,,1503,58,107,1,0,0,response1disk,,7,11,8,1,0,0,rectangle,11,8,1,0,0,,,,,,,11,8,1,0,0,,1,13,173,16,1,
,,,,,,,,,,,,,FF,,,,,,,,1.077,,,,,,,,,,,,,,,,,,,,,,60fe5e12ba8c216235600e18,610379180fe5a4c6ebda3d30,2021-07-30_00h02.31.437,Simcolourproject_2stim_asymm_v5,2020.2.10,Win32,60,61025ae37ef11b136ea224fe,,,,,,,,,3125,-38,-97,1,0,0,response5disk,,3,7,-14,1,0,0,rectangle,7,-14,1,0,0,,,,,,,7,-14,1,0,0,,1,14,174,13,1,
,,,,,,,,,,,,,FF,,,,,,,,1.41,,,,,,,,,,,,,,,,,,,,,,60fe5e12ba8c216235600e18,610379180fe5a4c6ebda3d30,2021-07-30_00h02.31.437,Simcolourproject_2stim_asymm_v5,2020.2.10,Win32,60,61025ae37ef11b136ea224fe,,,,,,,,,737,-82,-50,1,0,0,response5disk,,2,-6,-12,1,0,0,rectangle,-6,-12,1,0,0,,,,,,,-6,-12,1,0,0,,1,15,175,43,1,
,,,,,,,,,,,,,FF,,,,,,,,1.302,,,,,,,,,,,,,,,,,,,,,,60fe5e12ba8c216235600e18,610379180fe5a4c6ebda3d30,2021-07-30_00h02.31.437,Simcolourproject_2stim_asymm_v5,2020.2.10,Win32,60,61025ae37ef11b136ea224fe,,,,,,,,,2817,-66,-34,1,0,0,response5disk,,2,14,-5,1,0,0,rectangle,14,-5,1,0,0,,,,,,,14,-5,1,0,0,,1,16,176,113,1,
,,,,,,,,,,,,,FF,,,,,,,,1.016,,,,,,,,,,,,,,,,,,,,,,60fe5e12ba8c216235600e18,610379180fe5a4c6ebda3d30,2021-07-30_00h02.31.437,Simcolourproject_2stim_asymm_v5,2020.2.10,Win32,60,61025ae37ef11b136ea224fe,,,,,,,,,4124,-66,-35,1,0,0,response5disk,,2,-7,0,1,0,0,rectangle,-7,0,1,0,0,,,,,,,-7,0,1,0,0,,1,17,177,39,1,
,,,,,,,,,,,,,FF,,,,,,,,1.705,,,,,,,,,,,,,,,,,,,,,,60fe5e12ba8c216235600e18,610379180fe5a4c6ebda3d30,2021-07-30_00h02.31.437,Simcolourproject_2stim_asymm_v5,2020.2.10,Win32,60,61025ae37ef11b136ea224fe,,,,,,,,,1624,66,-101,1,0,0,response3disk,,4,14,-4,1,0,0,rectangle,-46,-58,1,0,0,response5disk_3,TRUE,3,3,"[102,15,35,98,233,121,48,1,261,67,128,187,179,157,126,299,288,55,235,2]",2.494,1,-12,1,0,0,rectangle,1,18,178,91,1,
,,,,,,,,,,,,,FF,,,,,,,,1.242,,,,,,,,,,,,,,,,,,,,,,60fe5e12ba8c216235600e18,610379180fe5a4c6ebda3d30,2021-07-30_00h02.31.437,Simcolourproject_2stim_asymm_v5,2020.2.10,Win32,60,61025ae37ef11b136ea224fe,,,,,,,,,1680,-29,-84,1,0,0,response5disk,,3,12,-2,1,0,0,rectangle,12,-2,1,0,0,,,,,,,12,-2,1,0,0,,1,19,179,29,1,
,,,,,,,,,,,,,FF,,,,,,,,1.31,,,,,,,,,,,,,,,,,,,,,,60fe5e12ba8c216235600e18,610379180fe5a4c6ebda3d30,2021-07-30_00h02.31.437,Simcolourproject_2stim_asymm_v5,2020.2.10,Win32,60,61025ae37ef11b136ea224fe,,,,,,,,,1210,60,-110,1,0,0,response3disk,,4,1,-2,1,0,0,rectangle,1,-2,1,0,0,,,,,,,1,-2,1,0,0,,1,20,180,132,1,
,,,,,,,,,,,,,FF,,,,,,,,1.533,,,,,,,,,,,,,,,,,,,,,,60fe5e12ba8c216235600e18,610379180fe5a4c6ebda3d30,2021-07-30_00h02.31.437,Simcolourproject_2stim_asymm_v5,2020.2.10,Win32,60,61025ae37ef11b136ea224fe,,,,,,,,,3854,-59,-86,1,0,0,response5disk,,3,-3,-5,1,0,0,rectangle,-3,-5,1,0,0,,,,,,,-3,-5,1,0,0,,1,21,181,68,1,
,,,,,,,,,,,,,FF,,,,,,,,1.771,,,,,,,,,,,,,,,,,,,,,,60fe5e12ba8c216235600e18,610379180fe5a4c6ebda3d30,2021-07-30_00h02.31.437,Simcolourproject_2stim_asymm_v5,2020.2.10,Win32,60,61025ae37ef11b136ea224fe,,,,,,,,,125,20,-87,1,0,0,response3disk,,4,6,-9,1,0,0,rectangle,6,-9,1,0,0,,,,,,,6,-9,1,0,0,,1,22,182,95,1,
,,,,,,,,,,,,,FF,,,,,,,,1.711,,,,,,,,,,,,,,,,,,,,,,60fe5e12ba8c216235600e18,610379180fe5a4c6ebda3d30,2021-07-30_00h02.31.437,Simcolourproject_2stim_asymm_v5,2020.2.10,Win32,60,61025ae37ef11b136ea224fe,,,,,,,,,2024,78,65,1,0,0,response1disk,,6,3,-5,1,0,0,rectangle,3,-5,1,0,0,,,,,,,3,-5,1,0,0,,1,23,183,50,1,
,,,,,,,,,,,,,FF,,,,,,,,1.146,,,,,,,,,,,,,,,,,,,,,,60fe5e12ba8c216235600e18,610379180fe5a4c6ebda3d30,2021-07-30_00h02.31.437,Simcolourproject_2stim_asymm_v5,2020.2.10,Win32,60,61025ae37ef11b136ea224fe,,,,,,,,,1607,-31,-84,1,0,0,response5disk,,3,7,-10,1,0,0,rectangle,7,-10,1,0,0,,,,,,,7,-10,1,0,0,,1,24,184,105,1,
,,,,,,,,,,,,,FF,,,,,,,,1.215,,,,,,,,,,,,,,,,,,,,,,60fe5e12ba8c216235600e18,610379180fe5a4c6ebda3d30,2021-07-30_00h02.31.437,Simcolourproject_2stim_asymm_v5,2020.2.10,Win32,60,61025ae37ef11b136ea224fe,,,,,,,,,3531,64,51,1,0,0,response1disk,,6,16,14,1,0,0,rectangle,16,14,1,0,0,,,,,,,16,14,1,0,0,,1,25,185,143,1,
,,,,,,,,,,,,,FF,,,,,,,,1.222,,,,,,,,,,,,,,,,,,,,,,60fe5e12ba8c216235600e18,610379180fe5a4c6ebda3d30,2021-07-30_00h02.31.437,Simcolourproject_2stim_asymm_v5,2020.2.10,Win32,60,61025ae37ef11b136ea224fe,,,,,,,,,2769,47,-79,1,0,0,response3disk,,4,16,-12,1,0,0,rectangle,-88,51,1,0,0,response7disk_3,TRUE,1,1,"[102,15,35,98,233,121,48,1,261,67,128,187,179,157,126,299,288,55,235,2]",2.659,-13,6,1,0,0,rectangle,1,26,186,1,1,
,,,,,,,,,,,,,FF,,,,,,,,1.253,,,,,,,,,,,,,,,,,,,,,,60fe5e12ba8c216235600e18,610379180fe5a4c6ebda3d30,2021-07-30_00h02.31.437,Simcolourproject_2stim_asymm_v5,2020.2.10,Win32,60,61025ae37ef11b136ea224fe,,,,,,,,,2667,-81,-47,1,0,0,response5disk,,2,-9,4,1,0,0,rectangle,-9,4,1,0,0,,,,,,,-9,4,1,0,0,,1,27,187,78,1,
,,,,,,,,,,,,,FF,,,,,,,,1.113,,,,,,,,,,,,,,,,,,,,,,60fe5e12ba8c216235600e18,610379180fe5a4c6ebda3d30,2021-07-30_00h02.31.437,Simcolourproject_2stim_asymm_v5,2020.2.10,Win32,60,61025ae37ef11b136ea224fe,,,,,,,,,2524,49,-74,1,0,0,response3disk,,4,12,7,1,0,0,rectangle,12,7,1,0,0,,,,,,,12,7,1,0,0,,1,28,188,159,1,
,,,,,,,,,,,,,FF,,,,,,,,1.137,,,,,,,,,,,,,,,,,,,,,,60fe5e12ba8c216235600e18,610379180fe5a4c6ebda3d30,2021-07-30_00h02.31.437,Simcolourproject_2stim_asymm_v5,2020.2.10,Win32,60,61025ae37ef11b136ea224fe,,,,,,,,,1133,-42,-95,1,0,0,response5disk,,3,11,-14,1,0,0,rectangle,11,-14,1,0,0,,,,,,,11,-14,1,0,0,,1,29,189,122,1,
,,,,,,,,,,,,,FF,,,,,,,,1.971,,,,,,,,,,,,,,,,,,,,,,60fe5e12ba8c216235600e18,610379180fe5a4c6ebda3d30,2021-07-30_00h02.31.437,Simcolourproject_2stim_asymm_v5,2020.2.10,Win32,60,61025ae37ef11b136ea224fe,,,,,,,,,1484,56,-86,1,0,0,response3disk,,4,0,-2,1,0,0,rectangle,0,-2,1,0,0,,,,,,,0,-2,1,0,0,,1,30,190,152,1,
,,,,,,,,,,,,,FF,,,,,,,,1.067,,,,,,,,,,,,,,,,,,,,,,60fe5e12ba8c216235600e18,610379180fe5a4c6ebda3d30,2021-07-30_00h02.31.437,Simcolourproject_2stim_asymm_v5,2020.2.10,Win32,60,61025ae37ef11b136ea224fe,,,,,,,,,2376,-53,-77,1,0,0,response5disk,,3,2,-4,1,0,0,rectangle,2,-4,1,0,0,,,,,,,2,-4,1,0,0,,1,31,191,52,1,
,,,,,,,,,,,,,FF,,,,,,,,1.31,,,,,,,,,,,,,,,,,,,,,,60fe5e12ba8c216235600e18,610379180fe5a4c6ebda3d30,2021-07-30_00h02.31.437,Simcolourproject_2stim_asymm_v5,2020.2.10,Win32,60,61025ae37ef11b136ea224fe,,,,,,,,,997,-32,-58,1,0,0,response5disk,,3,8,-2,1,0,0,rectangle,8,-2,1,0,0,,,,,,,8,-2,1,0,0,,1,32,192,71,1,
,,,,,,,,,,,,,FF,,,,,,,,1.487,,,,,,,,,,,,,,,,,,,,,,60fe5e12ba8c216235600e18,610379180fe5a4c6ebda3d30,2021-07-30_00h02.31.437,Simcolourproject_2stim_asymm_v5,2020.2.10,Win32,60,61025ae37ef11b136ea224fe,,,,,,,,,2574,62,50,1,0,0,response1disk,,6,5,3,1,0,0,rectangle,5,3,1,0,0,,,,,,,5,3,1,0,0,,1,33,193,11,1,
,,,,,,,,,,,,,FF,,,,,,,,1.461,,,,,,,,,,,,,,,,,,,,,,60fe5e12ba8c216235600e18,610379180fe5a4c6ebda3d30,2021-07-30_00h02.31.437,Simcolourproject_2stim_asymm_v5,2020.2.10,Win32,60,61025ae37ef11b136ea224fe,,,,,,,,,649,78,-35,1,0,0,response3disk,,5,-2,3,1,0,0,rectangle,-2,3,1,0,0,,,,,,,-2,3,1,0,0,,1,34,194,63,1,
,,,,,,,,,,,,,FF,,,,,,,,1.791,,,,,,,,,,,,,,,,,,,,,,60fe5e12ba8c216235600e18,610379180fe5a4c6ebda3d30,2021-07-30_00h02.31.437,Simcolourproject_2stim_asymm_v5,2020.2.10,Win32,60,61025ae37ef11b136ea224fe,,,,,,,,,2171,29,-82,1,0,0,response3disk,,4,-4,-4,1,0,0,rectangle,-4,-4,1,0,0,,,,,,,-4,-4,1,0,0,,1,35,195,137,1,
,,,,,,,,,,,,,FF,,,,,,,,1.605,,,,,,,,,,,,,,,,,,,,,,60fe5e12ba8c216235600e18,610379180fe5a4c6ebda3d30,2021-07-30_00h02.31.437,Simcolourproject_2stim_asymm_v5,2020.2.10,Win32,60,61025ae37ef11b136ea224fe,,,,,,,,,3507,-76,31,1,0,0,response7disk,,1,-11,-4,1,0,0,rectangle,-11,-4,1,0,0,,,,,,,-11,-4,1,0,0,,1,36,196,51,1,
,,,,,,,,,,,,,FF,,,,,,,,1.899,,,,,,,,,,,,,,,,,,,,,,60fe5e12ba8c216235600e18,610379180fe5a4c6ebda3d30,2021-07-30_00h02.31.437,Simcolourproject_2stim_asymm_v5,2020.2.10,Win32,60,61025ae37ef11b136ea224fe,,,,,,,,,430,-54,-96,1,0,0,response5disk,,3,-8,-9,1,0,0,rectangle,-8,-9,1,0,0,,,,,,,-8,-9,1,0,0,,1,37,197,125,1,
,,,,,,,,,,,,,FF,,,,,,,,0.98,,,,,,,,,,,,,,,,,,,,,,60fe5e12ba8c216235600e18,610379180fe5a4c6ebda3d30,2021-07-30_00h02.31.437,Simcolourproject_2stim_asymm_v5,2020.2.10,Win32,60,61025ae37ef11b136ea224fe,,,,,,,,,604,-37,-69,1,0,0,response5disk,,3,2,-8,1,0,0,rectangle,2,-8,1,0,0,,,,,,,2,-8,1,0,0,,1,38,198,69,1,
,,,,,,,,,,,,,FF,,,,,,,,1.558,,,,,,,,,,,,,,,,,,,,,,60fe5e12ba8c216235600e18,610379180fe5a4c6ebda3d30,2021-07-30_00h02.31.437,Simcolourproject_2stim_asymm_v5,2020.2.10,Win32,60,61025ae37ef11b136ea224fe,,,,,,,,,3007,-98,-32,1,0,0,response5disk,,2,-34,6,1,0,0,rectangle,-34,6,1,0,0,,,,,,,-34,6,1,0,0,,1,39,199,23,1,
,,,,,,,,,,,,,FF,,,,,,,,1.197,,,,,,,,,,,,,,,,,,,,,,60fe5e12ba8c216235600e18,610379180fe5a4c6ebda3d30,2021-07-30_00h02.31.437,Simcolourproject_2stim_asymm_v5,2020.2.10,Win32,60,61025ae37ef11b136ea224fe,,,,,,,,,4295,-61,48,1,0,0,response7disk,,1,6,0,1,0,0,rectangle,6,0,1,0,0,,,,,,,6,0,1,0,0,,1,40,200,53,1,
,,,,,,,,,,,,,FF,,,,,,,,1.305,,,,,,,,,,,,,,,,,,,,,,60fe5e12ba8c216235600e18,610379180fe5a4c6ebda3d30,2021-07-30_00h02.31.437,Simcolourproject_2stim_asymm_v5,2020.2.10,Win32,60,61025ae37ef11b136ea224fe,,,,,,,,,4167,-25,-75,1,0,0,response5disk,,3,5,-2,1,0,0,rectangle,5,-2,1,0,0,,,,,,,5,-2,1,0,0,,1,41,201,87,1,
,,,,,,,,,,,,,FF,,,,,,,,1.284,,,,,,,,,,,,,,,,,,,,,,60fe5e12ba8c216235600e18,610379180fe5a4c6ebda3d30,2021-07-30_00h02.31.437,Simcolourproject_2stim_asymm_v5,2020.2.10,Win32,60,61025ae37ef11b136ea224fe,,,,,,,,,330,76,75,1,0,0,response1disk,,6,10,0,1,0,0,rectangle,10,0,1,0,0,,,,,,,10,0,1,0,0,,1,42,202,139,1,
,,,,,,,,,,,,,FF,,,,,,,,0.988,,,,,,,,,,,,,,,,,,,,,,60fe5e12ba8c216235600e18,610379180fe5a4c6ebda3d30,2021-07-30_00h02.31.437,Simcolourproject_2stim_asymm_v5,2020.2.10,Win32,60,61025ae37ef11b136ea224fe,,,,,,,,,2380,74,30,1,0,0,response1disk,,6,30,14,1,0,0,rectangle,30,14,1,0,0,,,,,,,30,14,1,0,0,,1,43,203,109,1,
,,,,,,,,,,,,,FF,,,,,,,,1.069,,,,,,,,,,,,,,,,,,,,,,60fe5e12ba8c216235600e18,610379180fe5a4c6ebda3d30,2021-07-30_00h02.31.437,Simcolourproject_2stim_asymm_v5,2020.2.10,Win32,60,61025ae37ef11b136ea224fe,,,,,,,,,2054,69,22,1,0,0,response1disk,,6,8,-4,1,0,0,rectangle,8,-4,1,0,0,,,,,,,8,-4,1,0,0,,1,44,204,158,1,
,,,,,,,,,,,,,FF,,,,,,,,1.714,,,,,,,,,,,,,,,,,,,,,,60fe5e12ba8c216235600e18,610379180fe5a4c6ebda3d30,2021-07-30_00h02.31.437,Simcolourproject_2stim_asymm_v5,2020.2.10,Win32,60,61025ae37ef11b136ea224fe,,,,,,,,,2290,86,-31,1,0,0,response3disk,,5,-30,1,1,0,0,rectangle,-30,1,1,0,0,,,,,,,-30,1,1,0,0,,1,45,205,18,1,
,,,,,,,,,,,,,FF,,,,,,,,1.15,,,,,,,,,,,,,,,,,,,,,,60fe5e12ba8c216235600e18,610379180fe5a4c6ebda3d30,2021-07-30_00h02.31.437,Simcolourproject_2stim_asymm_v5,2020.2.10,Win32,60,61025ae37ef11b136ea224fe,,,,,,,,,1306,-61,26,1,0,0,response7disk,,1,10,4,1,0,0,rectangle,10,4,1,0,0,,,,,,,10,4,1,0,0,,1,46,206,84,1,
,,,,,,,,,,,,,FF,,,,,,,,1.153,,,,,,,,,,,,,,,,,,,,,,60fe5e12ba8c216235600e18,610379180fe5a4c6ebda3d30,2021-07-30_00h02.31.437,Simcolourproject_2stim_asymm_v5,2020.2.10,Win32,60,61025ae37ef11b136ea224fe,,,,,,,,,3092,-26,69,1,0,0,response7disk,,0,-2,12,1,0,0,rectangle,-2,12,1,0,0,,,,,,,-2,12,1,0,0,,1,47,207,94,1,
,,,,,,,,,,,,,FF,,,,,,,,1.279,,,,,,,,,,,,,,,,,,,,,,60fe5e12ba8c216235600e18,610379180fe5a4c6ebda3d30,2021-07-30_00h02.31.437,Simcolourproject_2stim_asymm_v5,2020.2.10,Win32,60,61025ae37ef11b136ea224fe,,,,,,,,,1209,103,-60,1,0,0,response3disk,,5,3,-12,1,0,0,rectangle,3,-12,1,0,0,,,,,,,3,-12,1,0,0,,1,48,208,154,1,
,,,,,,,,,,,,,FF,,,,,,,,2.085,,,,,,,,,,,,,,,,,,,,,,60fe5e12ba8c216235600e18,610379180fe5a4c6ebda3d30,2021-07-30_00h02.31.437,Simcolourproject_2stim_asymm_v5,2020.2.10,Win32,60,61025ae37ef11b136ea224fe,,,,,,,,,1560,55,88,1,0,0,response1disk,,7,1,6,1,0,0,rectangle,1,6,1,0,0,,,,,,,1,6,1,0,0,,1,49,209,133,1,
,,,,,,,,,,,,,FF,,,,,,,,1.161,,,,,,,,,,,,,,,,,,,,,,60fe5e12ba8c216235600e18,610379180fe5a4c6ebda3d30,2021-07-30_00h02.31.437,Simcolourproject_2stim_asymm_v5,2020.2.10,Win32,60,61025ae37ef11b136ea224fe,,,,,,,,,849,55,82,1,0,0,response1disk,,7,14,14,1,0,0,rectangle,14,14,1,0,0,,,,,,,14,14,1,0,0,,1,50,210,111,1,
,,,,,,,,,,,,,FF,,,,,,,,1.434,,,,,,,,,,,,,,,,,,,,,,60fe5e12ba8c216235600e18,610379180fe5a4c6ebda3d30,2021-07-30_00h02.31.437,Simcolourproject_2stim_asymm_v5,2020.2.10,Win32,60,61025ae37ef11b136ea224fe,,,,,,,,,3529,34,-68,1,0,0,response3disk,,4,-19,5,1,0,0,rectangle,-19,5,1,0,0,,,,,,,-19,5,1,0,0,,1,51,211,41,1,
,,,,,,,,,,,,,FF,,,,,,,,1.218,,,,,,,,,,,,,,,,,,,,,,60fe5e12ba8c216235600e18,610379180fe5a4c6ebda3d30,2021-07-30_00h02.31.437,Simcolourproject_2stim_asymm_v5,2020.2.10,Win32,60,61025ae37ef11b136ea224fe,,,,,,,,,2402,-42,-73,1,0,0,response5disk,,3,-1,0,1,0,0,rectangle,-1,0,1,0,0,,,,,,,-1,0,1,0,0,,1,52,212,108,1,
,,,,,,,,,,,,,FF,,,,,,,,1.299,,,,,,,,,,,,,,,,,,,,,,60fe5e12ba8c216235600e18,610379180fe5a4c6ebda3d30,2021-07-30_00h02.31.437,Simcolourproject_2stim_asymm_v5,2020.2.10,Win32,60,61025ae37ef11b136ea224fe,,,,,,,,,1244,84,-40,1,0,0,response3disk,,5,25,2,1,0,0,rectangle,25,2,1,0,0,,,,,,,25,2,1,0,0,,1,53,213,104,1,
,,,,,,,,,,,,,FF,,,,,,,,1.235,,,,,,,,,,,,,,,,,,,,,,60fe5e12ba8c216235600e18,610379180fe5a4c6ebda3d30,2021-07-30_00h02.31.437,Simcolourproject_2stim_asymm_v5,2020.2.10,Win32,60,61025ae37ef11b136ea224fe,,,,,,,,,531,-72,50,1,0,0,response7disk,,1,-6,4,1,0,0,rectangle,-6,4,1,0,0,,,,,,,-6,4,1,0,0,,1,54,214,44,1,
,,,,,,,,,,,,,FF,,,,,,,,1.246,,,,,,,,,,,,,,,,,,,,,,60fe5e12ba8c216235600e18,610379180fe5a4c6ebda3d30,2021-07-30_00h02.31.437,Simcolourproject_2stim_asymm_v5,2020.2.10,Win32,60,61025ae37ef11b136ea224fe,,,,,,,,,2974,84,-55,1,0,0,response3disk,,5,24,-4,1,0,0,rectangle,24,-4,1,0,0,,,,,,,24,-4,1,0,0,,1,55,215,156,1,
,,,,,,,,,,,,,FF,,,,,,,,1.27,,,,,,,,,,,,,,,,,,,,,,60fe5e12ba8c216235600e18,610379180fe5a4c6ebda3d30,2021-07-30_00h02.31.437,Simcolourproject_2stim_asymm_v5,2020.2.10,Win32,60,61025ae37ef11b136ea224fe,,,,,,,,,3229,75,-54,1,0,0,response3disk,,5,-24,12,1,0,0,rectangle,-24,12,1,0,0,,,,,,,-24,12,1,0,0,,1,56,216,14,1,
,,,,,,,,,,,,,FF,,,,,,,,1.067,,,,,,,,,,,,,,,,,,,,,,60fe5e12ba8c216235600e18,610379180fe5a4c6ebda3d30,2021-07-30_00h02.31.437,Simcolourproject_2stim_asymm_v5,2020.2.10,Win32,60,61025ae37ef11b136ea224fe,,,,,,,,,3433,-51,87,1,0,0,response7disk,,0,6,-2,1,0,0,rectangle,6,-2,1,0,0,,,,,,,6,-2,1,0,0,,1,57,217,153,1,
,,,,,,,,,,,,,FF,,,,,,,,1.053,,,,,,,,,,,,,,,,,,,,,,60fe5e12ba8c216235600e18,610379180fe5a4c6ebda3d30,2021-07-30_00h02.31.437,Simcolourproject_2stim_asymm_v5,2020.2.10,Win32,60,61025ae37ef11b136ea224fe,,,,,,,,,225,70,24,1,0,0,response1disk,,6,-13,-4,1,0,0,rectangle,-13,-4,1,0,0,,,,,,,-13,-4,1,0,0,,1,58,218,130,1,
,,,,,,,,,,,,,FF,,,,,,,,1.253,,,,,,,,,,,,,,,,,,,,,,60fe5e12ba8c216235600e18,610379180fe5a4c6ebda3d30,2021-07-30_00h02.31.437,Simcolourproject_2stim_asymm_v5,2020.2.10,Win32,60,61025ae37ef11b136ea224fe,,,,,,,,,1483,81,-56,1,0,0,response3disk,,5,-4,12,1,0,0,rectangle,-4,12,1,0,0,,,,,,,-4,12,1,0,0,,1,59,219,89,1,
,,,,,,,,,,,,,FF,,,,,,,,1.3,,,,,,,,,,,,,,,,,,,,,,60fe5e12ba8c216235600e18,610379180fe5a4c6ebda3d30,2021-07-30_00h02.31.437,Simcolourproject_2stim_asymm_v5,2020.2.10,Win32,60,61025ae37ef11b136ea224fe,,,,,,,,,2728,-44,-80,1,0,0,response5disk,,3,-9,-13,1,0,0,rectangle,-9,-13,1,0,0,,,,,,,-9,-13,1,0,0,,1,60,220,149,1,
,,,,,,,,,,,,,FF,,,,,,,,1.872,,,,,,,,,,,,,,,,,,,,,,60fe5e12ba8c216235600e18,610379180fe5a4c6ebda3d30,2021-07-30_00h02.31.437,Simcolourproject_2stim_asymm_v5,2020.2.10,Win32,60,61025ae37ef11b136ea224fe,,,,,,,,,944,63,99,1,0,0,response1disk,,7,-2,4,1,0,0,rectangle,-2,4,1,0,0,,,,,,,-2,4,1,0,0,,1,61,221,7,1,
,,,,,,,,,,,,,FF,,,,,,,,1.097,,,,,,,,,,,,,,,,,,,,,,60fe5e12ba8c216235600e18,610379180fe5a4c6ebda3d30,2021-07-30_00h02.31.437,Simcolourproject_2stim_asymm_v5,2020.2.10,Win32,60,61025ae37ef11b136ea224fe,,,,,,,,,2159,41,68,1,0,0,response1disk,,7,1,9,1,0,0,rectangle,1,9,1,0,0,,,,,,,1,9,1,0,0,,1,62,222,15,1,
,,,,,,,,,,,,,FF,,,,,,,,1.636,,,,,,,,,,,,,,,,,,,,,,60fe5e12ba8c216235600e18,610379180fe5a4c6ebda3d30,2021-07-30_00h02.31.437,Simcolourproject_2stim_asymm_v5,2020.2.10,Win32,60,61025ae37ef11b136ea224fe,,,,,,,,,522,-98,-35,1,0,0,response5disk,,2,-10,0,1,0,0,rectangle,-10,0,1,0,0,,,,,,,-10,0,1,0,0,,1,63,223,54,1,
,,,,,,,,,,,,,FF,,,,,,,,1.502,,,,,,,,,,,,,,,,,,,,,,60fe5e12ba8c216235600e18,610379180fe5a4c6ebda3d30,2021-07-30_00h02.31.437,Simcolourproject_2stim_asymm_v5,2020.2.10,Win32,60,61025ae37ef11b136ea224fe,,,,,,,,,4125,-87,-50,1,0,0,response5disk,,2,2,-9,1,0,0,rectangle,2,-9,1,0,0,,,,,,,2,-9,1,0,0,,1,64,224,6,1,
,,,,,,,,,,,,,FF,,,,,,,,1.7,,,,,,,,,,,,,,,,,,,,,,60fe5e12ba8c216235600e18,610379180fe5a4c6ebda3d30,2021-07-30_00h02.31.437,Simcolourproject_2stim_asymm_v5,2020.2.10,Win32,60,61025ae37ef11b136ea224fe,,,,,,,,,802,-66,35,1,0,0,response7disk,,1,-14,4,1,0,0,rectangle,-14,4,1,0,0,,,,,,,-14,4,1,0,0,,1,65,225,24,1,
,,,,,,,,,,,,,FF,,,,,,,,1.318,,,,,,,,,,,,,,,,,,,,,,60fe5e12ba8c216235600e18,610379180fe5a4c6ebda3d30,2021-07-30_00h02.31.437,Simcolourproject_2stim_asymm_v5,2020.2.10,Win32,60,61025ae37ef11b136ea224fe,,,,,,,,,3934,-92,-40,1,0,0,response5disk,,2,2,14,1,0,0,rectangle,2,14,1,0,0,,,,,,,2,14,1,0,0,,1,66,226,99,1,
,,,,,,,,,,,,,FF,,,,,,,,1.477,,,,,,,,,,,,,,,,,,,,,,60fe5e12ba8c216235600e18,610379180fe5a4c6ebda3d30,2021-07-30_00h02.31.437,Simcolourproject_2stim_asymm_v5,2020.2.10,Win32,60,61025ae37ef11b136ea224fe,,,,,,,,,3710,-41,-96,1,0,0,response5disk,,3,2,2,1,0,0,rectangle,2,2,1,0,0,,,,,,,2,2,1,0,0,,1,67,227,40,1,
,,,,,,,,,,,,,FF,,,,,,,,1.52,,,,,,,,,,,,,,,,,,,,,,60fe5e12ba8c216235600e18,610379180fe5a4c6ebda3d30,2021-07-30_00h02.31.437,Simcolourproject_2stim_asymm_v5,2020.2.10,Win32,60,61025ae37ef11b136ea224fe,,,,,,,,,1279,82,-64,1,0,0,response3disk,,5,-18,16,1,0,0,rectangle,-18,16,1,0,0,,,,,,,-18,16,1,0,0,,1,68,228,19,1,
,,,,,,,,,,,,,FF,,,,,,,,1.415,,,,,,,,,,,,,,,,,,,,,,60fe5e12ba8c216235600e18,610379180fe5a4c6ebda3d30,2021-07-30_00h02.31.437,Simcolourproject_2stim_asymm_v5,2020.2.10,Win32,60,61025ae37ef11b136ea224fe,,,,,,,,,891,-44,-78,1,0,0,response5disk,,3,2,-5,1,0,0,rectangle,2,-5,1,0,0,,,,,,,2,-5,1,0,0,,1,69,229,28,1,
,,,,,,,,,,,,,FF,,,,,,,,1.245,,,,,,,,,,,,,,,,,,,,,,60fe5e12ba8c216235600e18,610379180fe5a4c6ebda3d30,2021-07-30_00h02.31.437,Simcolourproject_2stim_asymm_v5,2020.2.10,Win32,60,61025ae37ef11b136ea224fe,,,,,,,,,3452,33,-78,1,0,0,response3disk,,4,5,-6,1,0,0,rectangle,5,-6,1,0,0,,,,,,,5,-6,1,0,0,,1,70,230,129,1,
,,,,,,,,,,,,,FF,,,,,,,,1.344,,,,,,,,,,,,,,,,,,,,,,60fe5e12ba8c216235600e18,610379180fe5a4c6ebda3d30,2021-07-30_00h02.31.437,Simcolourproject_2stim_asymm_v5,2020.2.10,Win32,60,61025ae37ef11b136ea224fe,,,,,,,,,1083,88,30,1,0,0,response1disk,,6,25,-6,1,0,0,rectangle,25,-6,1,0,0,,,,,,,25,-6,1,0,0,,1,71,231,58,1,
,,,,,,,,,,,,,FF,,,,,,,,1.216,,,,,,,,,,,,,,,,,,,,,,60fe5e12ba8c216235600e18,610379180fe5a4c6ebda3d30,2021-07-30_00h02.31.437,Simcolourproject_2stim_asymm_v5,2020.2.10,Win32,60,61025ae37ef11b136ea224fe,,,,,,,,,2796,-24,-72,1,0,0,response5disk,,3,11,6,1,0,0,rectangle,98,47,1,0,0,response1disk_3,TRUE,6,6,"[102,15,35,98,233,121,48,1,261,67,128,187,179,157,126,299,288,55,235,2]",2.307,11,11,1,0,0,rectangle,1,72,232,134,1,
,,,,,,,,,,,,,FF,,,,,,,,1.191,,,,,,,,,,,,,,,,,,,,,,60fe5e12ba8c216235600e18,610379180fe5a4c6ebda3d30,2021-07-30_00h02.31.437,Simcolourproject_2stim_asymm_v5,2020.2.10,Win32,60,61025ae37ef11b136ea224fe,,,,,,,,,150,-37,-103,1,0,0,response5disk,,3,5,-5,1,0,0,rectangle,5,-5,1,0,0,,,,,,,5,-5,1,0,0,,1,73,233,110,1,
,,,,,,,,,,,,,FF,,,,,,,,1.101,,,,,,,,,,,,,,,,,,,,,,60fe5e12ba8c216235600e18,610379180fe5a4c6ebda3d30,2021-07-30_00h02.31.437,Simcolourproject_2stim_asymm_v5,2020.2.10,Win32,60,61025ae37ef11b136ea224fe,,,,,,,,,4165,-44,-98,1,0,0,response5disk,,3,1,-9,1,0,0,rectangle,107,64,1,0,0,response1disk_3,TRUE,6,6,"[102,15,35,98,233,121,48,1,261,67,128,187,179,157,126,299,288,55,235,2]",1.898,4,13,1,0,0,rectangle,1,74,234,107,1,
,,,,,,,,,,,,,FF,,,,,,,,1.535,,,,,,,,,,,,,,,,,,,,,,60fe5e12ba8c216235600e18,610379180fe5a4c6ebda3d30,2021-07-30_00h02.31.437,Simcolourproject_2stim_asymm_v5,2020.2.10,Win32,60,61025ae37ef11b136ea224fe,,,,,,,,,3318,61,98,1,0,0,response1disk,,7,0,17,1,0,0,rectangle,0,17,1,0,0,,,,,,,0,17,1,0,0,,1,75,235,17,1,
,,,,,,,,,,,,,FF,,,,,,,,1.698,,,,,,,,,,,,,,,,,,,,,,60fe5e12ba8c216235600e18,610379180fe5a4c6ebda3d30,2021-07-30_00h02.31.437,Simcolourproject_2stim_asymm_v5,2020.2.10,Win32,60,61025ae37ef11b136ea224fe,,,,,,,,,511,77,-43,1,0,0,response3disk,,5,-6,-2,1,0,0,rectangle,-6,-2,1,0,0,,,,,,,-6,-2,1,0,0,,1,76,236,64,1,
,,,,,,,,,,,,,FF,,,,,,,,1.497,,,,,,,,,,,,,,,,,,,,,,60fe5e12ba8c216235600e18,610379180fe5a4c6ebda3d30,2021-07-30_00h02.31.437,Simcolourproject_2stim_asymm_v5,2020.2.10,Win32,60,61025ae37ef11b136ea224fe,,,,,,,,,2498,93,39,1,0,0,response1disk,,6,34,11,1,0,0,rectangle,34,11,1,0,0,,,,,,,34,11,1,0,0,,1,77,237,82,1,
,,,,,,,,,,,,,FF,,,,,,,,1.265,,,,,,,,,,,,,,,,,,,,,,60fe5e12ba8c216235600e18,610379180fe5a4c6ebda3d30,2021-07-30_00h02.31.437,Simcolourproject_2stim_asymm_v5,2020.2.10,Win32,60,61025ae37ef11b136ea224fe,,,,,,,,,3973,-20,-60,1,0,0,response5disk,,3,11,14,1,0,0,rectangle,11,14,1,0,0,,,,,,,11,14,1,0,0,,1,78,238,74,1,
,,,,,,,,,,,,,FF,,,,,,,,1.559,,,,,,,,,,,,,,,,,,,,,,60fe5e12ba8c216235600e18,610379180fe5a4c6ebda3d30,2021-07-30_00h02.31.437,Simcolourproject_2stim_asymm_v5,2020.2.10,Win32,60,61025ae37ef11b136ea224fe,,,,,,,,,3309,83,-49,1,0,0,response3disk,,5,-12,3,1,0,0,rectangle,-12,3,1,0,0,,,,,,,-12,3,1,0,0,,1,79,239,70,1,
,,,,,,,,,,,,,FF,,,,,,,,1.232,,,,,,,,,,,,,,,,,,,,,,60fe5e12ba8c216235600e18,610379180fe5a4c6ebda3d30,2021-07-30_00h02.31.437,Simcolourproject_2stim_asymm_v5,2020.2.10,Win32,60,61025ae37ef11b136ea224fe,,,,,,,,,2557,26,-84,1,0,0,response3disk,,4,8,6,1,0,0,rectangle,8,6,1,0,0,,,,,,,8,6,1,0,0,,1,80,240,5,1,
,,,,,,,,,,,,,FF,,,,,,,,1.153,,,,,,,,,,,,,,,,,,,,,,60fe5e12ba8c216235600e18,610379180fe5a4c6ebda3d30,2021-07-30_00h02.31.437,Simcolourproject_2stim_asymm_v5,2020.2.10,Win32,60,61025ae37ef11b136ea224fe,,,,,,,,,1843,30,-80,1,0,0,response3disk,,4,6,13,1,0,0,rectangle,6,13,1,0,0,,,,,,,6,13,1,0,0,,1,81,241,31,1,
,,,,,,,,,,,,,FF,,,,,,,,1.749,,,,,,,,,,,,,,,,,,,,,,60fe5e12ba8c216235600e18,610379180fe5a4c6ebda3d30,2021-07-30_00h02.31.437,Simcolourproject_2stim_asymm_v5,2020.2.10,Win32,60,61025ae37ef11b136ea224fe,,,,,,,,,2494,103,-48,1,0,0,response3disk,,5,2,12,1,0,0,rectangle,2,12,1,0,0,,,,,,,2,12,1,0,0,,1,82,242,9,1,
,,,,,,,,,,,,,FF,,,,,,,,1.785,,,,,,,,,,,,,,,,,,,,,,60fe5e12ba8c216235600e18,610379180fe5a4c6ebda3d30,2021-07-30_00h02.31.437,Simcolourproject_2stim_asymm_v5,2020.2.10,Win32,60,61025ae37ef11b136ea224fe,,,,,,,,,2592,-38,-83,1,0,0,response5disk,,3,1,-9,1,0,0,rectangle,1,-9,1,0,0,,,,,,,1,-9,1,0,0,,1,83,243,27,1,
,,,,,,,,,,,,,FF,,,,,,,,1.483,,,,,,,,,,,,,,,,,,,,,,60fe5e12ba8c216235600e18,610379180fe5a4c6ebda3d30,2021-07-30_00h02.31.437,Simcolourproject_2stim_asymm_v5,2020.2.10,Win32,60,61025ae37ef11b136ea224fe,,,,,,,,,1343,80,-104,1,0,0,response3disk,,4,-2,14,1,0,0,rectangle,-2,14,1,0,0,,,,,,,-2,14,1,0,0,,1,84,244,127,1,
,,,,,,,,,,,,,FF,,,,,,,,1.399,,,,,,,,,,,,,,,,,,,,,,60fe5e12ba8c216235600e18,610379180fe5a4c6ebda3d30,2021-07-30_00h02.31.437,Simcolourproject_2stim_asymm_v5,2020.2.10,Win32,60,61025ae37ef11b136ea224fe,,,,,,,,,3682,-58,-83,1,0,0,response5disk,,3,10,-4,1,0,0,rectangle,10,-4,1,0,0,,,,,,,10,-4,1,0,0,,1,85,245,157,1,
,,,,,,,,,,,,,FF,,,,,,,,1.012,,,,,,,,,,,,,,,,,,,,,,60fe5e12ba8c216235600e18,610379180fe5a4c6ebda3d30,2021-07-30_00h02.31.437,Simcolourproject_2stim_asymm_v5,2020.2.10,Win32,60,61025ae37ef11b136ea224fe,,,,,,,,,1973,-45,-92,1,0,0,response5disk,,3,4,-2,1,0,0,rectangle,4,-2,1,0,0,,,,,,,4,-2,1,0,0,,1,86,246,90,1,
,,,,,,,,,,,,,FF,,,,,,,,1.167,,,,,,,,,,,,,,,,,,,,,,60fe5e12ba8c216235600e18,610379180fe5a4c6ebda3d30,2021-07-30_00h02.31.437,Simcolourproject_2stim_asymm_v5,2020.2.10,Win32,60,61025ae37ef11b136ea224fe,,,,,,,,,1334,67,-118,1,0,0,response3disk,,4,-5,7,1,0,0,rectangle,-5,7,1,0,0,,,,,,,-5,7,1,0,0,,1,87,247,117,1,
,,,,,,,,,,,,,FF,,,,,,,,0.955,,,,,,,,,,,,,,,,,,,,,,60fe5e12ba8c216235600e18,610379180fe5a4c6ebda3d30,2021-07-30_00h02.31.437,Simcolourproject_2stim_asymm_v5,2020.2.10,Win32,60,61025ae37ef11b136ea224fe,,,,,,,,,3048,-76,40,1,0,0,response7disk,,1,-20,6,1,0,0,rectangle,-20,6,1,0,0,,,,,,,-20,6,1,0,0,,1,88,248,77,1,
,,,,,,,,,,,,,FF,,,,,,,,1.598,,,,,,,,,,,,,,,,,,,,,,60fe5e12ba8c216235600e18,610379180fe5a4c6ebda3d30,2021-07-30_00h02.31.437,Simcolourproject_2stim_asymm_v5,2020.2.10,Win32,60,61025ae37ef11b136ea224fe,,,,,,,,,2873,34,-93,1,0,0,response3disk,,4,-10,1,1,0,0,rectangle,-10,1,1,0,0,,,,,,,-10,1,1,0,0,,1,89,249,145,1,
,,,,,,,,,,,,,FF,,,,,,,,1.067,,,,,,,,,,,,,,,,,,,,,,60fe5e12ba8c216235600e18,610379180fe5a4c6ebda3d30,2021-07-30_00h02.31.437,Simcolourproject_2stim_asymm_v5,2020.2.10,Win32,60,61025ae37ef11b136ea224fe,,,,,,,,,3552,-52,80,1,0,0,response7disk,,0,-4,-6,1,0,0,rectangle,-4,-6,1,0,0,,,,,,,-4,-6,1,0,0,,1,90,250,75,1,
,,,,,,,,,,,,,FF,,,,,,,,1.167,,,,,,,,,,,,,,,,,,,,,,60fe5e12ba8c216235600e18,610379180fe5a4c6ebda3d30,2021-07-30_00h02.31.437,Simcolourproject_2stim_asymm_v5,2020.2.10,Win32,60,61025ae37ef11b136ea224fe,,,,,,,,,124,35,-75,1,0,0,response3disk,,4,20,-3,1,0,0,rectangle,20,-3,1,0,0,,,,,,,20,-3,1,0,0,,1,91,251,36,1,
,,,,,,,,,,,,,FF,,,,,,,,1.1,,,,,,,,,,,,,,,,,,,,,,60fe5e12ba8c216235600e18,610379180fe5a4c6ebda3d30,2021-07-30_00h02.31.437,Simcolourproject_2stim_asymm_v5,2020.2.10,Win32,60,61025ae37ef11b136ea224fe,,,,,,,,,882,66,-26,1,0,0,response3disk,,5,3,16,1,0,0,rectangle,3,16,1,0,0,,,,,,,3,16,1,0,0,,1,92,252,79,1,
,,,,,,,,,,,,,FF,,,,,,,,1.131,,,,,,,,,,,,,,,,,,,,,,60fe5e12ba8c216235600e18,610379180fe5a4c6ebda3d30,2021-07-30_00h02.31.437,Simcolourproject_2stim_asymm_v5,2020.2.10,Win32,60,61025ae37ef11b136ea224fe,,,,,,,,,3263,74,-37,1,0,0,response3disk,,5,3,11,1,0,0,rectangle,3,11,1,0,0,,,,,,,3,11,1,0,0,,1,93,253,46,1,
,,,,,,,,,,,,,FF,,,,,,,,1.522,,,,,,,,,,,,,,,,,,,,,,60fe5e12ba8c216235600e18,610379180fe5a4c6ebda3d30,2021-07-30_00h02.31.437,Simcolourproject_2stim_asymm_v5,2020.2.10,Win32,60,61025ae37ef11b136ea224fe,,,,,,,,,267,84,-54,1,0,0,response3disk,,5,7,-4,1,0,0,rectangle,7,-4,1,0,0,,,,,,,7,-4,1,0,0,,1,94,254,88,1,
,,,,,,,,,,,,,FF,,,,,,,,1.286,,,,,,,,,,,,,,,,,,,,,,60fe5e12ba8c216235600e18,610379180fe5a4c6ebda3d30,2021-07-30_00h02.31.437,Simcolourproject_2stim_asymm_v5,2020.2.10,Win32,60,61025ae37ef11b136ea224fe,,,,,,,,,122,56,-22,1,0,0,response3disk,,5,-2,11,1,0,0,rectangle,-2,11,1,0,0,,,,,,,-2,11,1,0,0,,1,95,255,4,1,
,,,,,,,,,,,,,FF,,,,,,,,1.396,,,,,,,,,,,,,,,,,,,,,,60fe5e12ba8c216235600e18,610379180fe5a4c6ebda3d30,2021-07-30_00h02.31.437,Simcolourproject_2stim_asymm_v5,2020.2.10,Win32,60,61025ae37ef11b136ea224fe,,,,,,,,,1373,-92,48,1,0,0,response7disk,,1,-21,2,1,0,0,rectangle,-21,2,1,0,0,,,,,,,-21,2,1,0,0,,1,96,256,48,1,
,,,,,,,,,,,,,FF,,,,,,,,1.16,,,,,,,,,,,,,,,,,,,,,,60fe5e12ba8c216235600e18,610379180fe5a4c6ebda3d30,2021-07-30_00h02.31.437,Simcolourproject_2stim_asymm_v5,2020.2.10,Win32,60,61025ae37ef11b136ea224fe,,,,,,,,,3265,-51,-83,1,0,0,response5disk,,3,-3,-12,1,0,0,rectangle,-3,-12,1,0,0,,,,,,,-3,-12,1,0,0,,1,97,257,150,1,
,,,,,,,,,,,,,FF,,,,,,,,1.676,,,,,,,,,,,,,,,,,,,,,,60fe5e12ba8c216235600e18,610379180fe5a4c6ebda3d30,2021-07-30_00h02.31.437,Simcolourproject_2stim_asymm_v5,2020.2.10,Win32,60,61025ae37ef11b136ea224fe,,,,,,,,,2081,85,-66,1,0,0,response3disk,,5,-10,-4,1,0,0,rectangle,-10,-4,1,0,0,,,,,,,-10,-4,1,0,0,,1,98,258,66,1,
,,,,,,,,,,,,,FF,,,,,,,,1.363,,,,,,,,,,,,,,,,,,,,,,60fe5e12ba8c216235600e18,610379180fe5a4c6ebda3d30,2021-07-30_00h02.31.437,Simcolourproject_2stim_asymm_v5,2020.2.10,Win32,60,61025ae37ef11b136ea224fe,,,,,,,,,1003,-58,-86,1,0,0,response5disk,,3,-15,-7,1,0,0,rectangle,-15,-7,1,0,0,,,,,,,-15,-7,1,0,0,,1,99,259,42,1,
,,,,,,,,,,,,,FF,,,,,,,,1.977,,,,,,,,,,,,,,,,,,,,,,60fe5e12ba8c216235600e18,610379180fe5a4c6ebda3d30,2021-07-30_00h02.31.437,Simcolourproject_2stim_asymm_v5,2020.2.10,Win32,60,61025ae37ef11b136ea224fe,,,,,,,,,74,-50,-87,1,0,0,response5disk,,3,2,14,1,0,0,rectangle,-29,-65,1,0,0,response5disk_3,TRUE,3,3,"[102,15,35,98,233,121,48,1,261,67,128,187,179,157,126,299,288,55,235,2]",2.032,-3,-6,1,0,0,rectangle,1,100,260,101,1,
,,,,,,,,,,,,,FF,,,,,,,,1.335,,,,,,,,,,,,,,,,,,,,,,60fe5e12ba8c216235600e18,610379180fe5a4c6ebda3d30,2021-07-30_00h02.31.437,Simcolourproject_2stim_asymm_v5,2020.2.10,Win32,60,61025ae37ef11b136ea224fe,,,,,,,,,1558,43,-66,1,0,0,response3disk,,4,8,0,1,0,0,rectangle,8,0,1,0,0,,,,,,,8,0,1,0,0,,1,101,261,106,1,
,,,,,,,,,,,,,FF,,,,,,,,1.117,,,,,,,,,,,,,,,,,,,,,,60fe5e12ba8c216235600e18,610379180fe5a4c6ebda3d30,2021-07-30_00h02.31.437,Simcolourproject_2stim_asymm_v5,2020.2.10,Win32,60,61025ae37ef11b136ea224fe,,,,,,,,,4122,-27,-44,1,0,0,response5disk,,3,-4,-5,1,0,0,rectangle,-4,-5,1,0,0,,,,,,,-4,-5,1,0,0,,1,102,262,55,1,
,,,,,,,,,,,,,FF,,,,,,,,1.546,,,,,,,,,,,,,,,,,,,,,,60fe5e12ba8c216235600e18,610379180fe5a4c6ebda3d30,2021-07-30_00h02.31.437,Simcolourproject_2stim_asymm_v5,2020.2.10,Win32,60,61025ae37ef11b136ea224fe,,,,,,,,,396,-30,-64,1,0,0,response5disk,,3,6,-5,1,0,0,rectangle,6,-5,1,0,0,,,,,,,6,-5,1,0,0,,1,103,263,136,1,
,,,,,,,,,,,,,FF,,,,,,,,2.449,,,,,,,,,,,,,,,,,,,,,,60fe5e12ba8c216235600e18,610379180fe5a4c6ebda3d30,2021-07-30_00h02.31.437,Simcolourproject_2stim_asymm_v5,2020.2.10,Win32,60,61025ae37ef11b136ea224fe,,,,,,,,,706,78,-68,1,0,0,response3disk,,5,7,2,1,0,0,rectangle,7,2,1,0,0,,,,,,,7,2,1,0,0,,1,104,264,49,1,
,,,,,,,,,,,,,FF,,,,,,,,1.664,,,,,,,,,,,,,,,,,,,,,,60fe5e12ba8c216235600e18,610379180fe5a4c6ebda3d30,2021-07-30_00h02.31.437,Simcolourproject_2stim_asymm_v5,2020.2.10,Win32,60,61025ae37ef11b136ea224fe,,,,,,,,,1839,25,-93,1,0,0,response3disk,,4,1,-9,1,0,0,rectangle,1,-9,1,0,0,,,,,,,1,-9,1,0,0,,1,105,265,141,1,
,,,,,,,,,,,,,FF,,,,,,,,1.345,,,,,,,,,,,,,,,,,,,,,,60fe5e12ba8c216235600e18,610379180fe5a4c6ebda3d30,2021-07-30_00h02.31.437,Simcolourproject_2stim_asymm_v5,2020.2.10,Win32,60,61025ae37ef11b136ea224fe,,,,,,,,,1960,31,-106,1,0,0,response3disk,,4,7,10,1,0,0,rectangle,7,10,1,0,0,,,,,,,7,10,1,0,0,,1,106,266,121,1,
,,,,,,,,,,,,,FF,,,,,,,,1.069,,,,,,,,,,,,,,,,,,,,,,60fe5e12ba8c216235600e18,610379180fe5a4c6ebda3d30,2021-07-30_00h02.31.437,Simcolourproject_2stim_asymm_v5,2020.2.10,Win32,60,61025ae37ef11b136ea224fe,,,,,,,,,3965,-29,72,1,0,0,response7disk,,0,0,-9,1,0,0,rectangle,0,-9,1,0,0,,,,,,,0,-9,1,0,0,,1,107,267,103,1,
,,,,,,,,,,,,,FF,,,,,,,,1.417,,,,,,,,,,,,,,,,,,,,,,60fe5e12ba8c216235600e18,610379180fe5a4c6ebda3d30,2021-07-30_00h02.31.437,Simcolourproject_2stim_asymm_v5,2020.2.10,Win32,60,61025ae37ef11b136ea224fe,,,,,,,,,3806,-96,-32,1,0,0,response5disk,,2,-31,4,1,0,0,rectangle,-31,4,1,0,0,,,,,,,-31,4,1,0,0,,1,108,268,144,1,
,,,,,,,,,,,,,FF,,,,,,,,1.415,,,,,,,,,,,,,,,,,,,,,,60fe5e12ba8c216235600e18,610379180fe5a4c6ebda3d30,2021-07-30_00h02.31.437,Simcolourproject_2stim_asymm_v5,2020.2.10,Win32,60,61025ae37ef11b136ea224fe,,,,,,,,,704,51,-114,1,0,0,response3disk,,4,-3,10,1,0,0,rectangle,-3,10,1,0,0,,,,,,,-3,10,1,0,0,,1,109,269,102,1,
,,,,,,,,,,,,,FF,,,,,,,,1.643,,,,,,,,,,,,,,,,,,,,,,60fe5e12ba8c216235600e18,610379180fe5a4c6ebda3d30,2021-07-30_00h02.31.437,Simcolourproject_2stim_asymm_v5,2020.2.10,Win32,60,61025ae37ef11b136ea224fe,,,,,,,,,2996,-26,-82,1,0,0,response5disk,,3,-2,-14,1,0,0,rectangle,-2,-14,1,0,0,,,,,,,-2,-14,1,0,0,,1,110,270,92,1,
,,,,,,,,,,,,,FF,,,,,,,,1.102,,,,,,,,,,,,,,,,,,,,,,60fe5e12ba8c216235600e18,610379180fe5a4c6ebda3d30,2021-07-30_00h02.31.437,Simcolourproject_2stim_asymm_v5,2020.2.10,Win32,60,61025ae37ef11b136ea224fe,,,,,,,,,3609,-50,-65,1,0,0,response5disk,,3,12,5,1,0,0,rectangle,12,5,1,0,0,,,,,,,12,5,1,0,0,,1,111,271,100,1,
,,,,,,,,,,,,,FF,,,,,,,,1.131,,,,,,,,,,,,,,,,,,,,,,60fe5e12ba8c216235600e18,610379180fe5a4c6ebda3d30,2021-07-30_00h02.31.437,Simcolourproject_2stim_asymm_v5,2020.2.10,Win32,60,61025ae37ef11b136ea224fe,,,,,,,,,3425,-25,104,1,0,0,response7disk,,0,-15,8,1,0,0,rectangle,-15,8,1,0,0,,,,,,,-15,8,1,0,0,,1,112,272,30,1,
,,,,,,,,,,,,,FF,,,,,,,,1.65,,,,,,,,,,,,,,,,,,,,,,60fe5e12ba8c216235600e18,610379180fe5a4c6ebda3d30,2021-07-30_00h02.31.437,Simcolourproject_2stim_asymm_v5,2020.2.10,Win32,60,61025ae37ef11b136ea224fe,,,,,,,,,3006,-52,-109,1,0,0,response5disk,,3,-7,-1,1,0,0,rectangle,-7,-1,1,0,0,,,,,,,-7,-1,1,0,0,,1,113,273,138,1,
,,,,,,,,,,,,,FF,,,,,,,,1.218,,,,,,,,,,,,,,,,,,,,,,60fe5e12ba8c216235600e18,610379180fe5a4c6ebda3d30,2021-07-30_00h02.31.437,Simcolourproject_2stim_asymm_v5,2020.2.10,Win32,60,61025ae37ef11b136ea224fe,,,,,,,,,351,-100,-46,1,0,0,response5disk,,2,-26,-2,1,0,0,rectangle,-26,-2,1,0,0,,,,,,,-26,-2,1,0,0,,1,114,274,83,1,
,,,,,,,,,,,,,FF,,,,,,,,1.531,,,,,,,,,,,,,,,,,,,,,,60fe5e12ba8c216235600e18,610379180fe5a4c6ebda3d30,2021-07-30_00h02.31.437,Simcolourproject_2stim_asymm_v5,2020.2.10,Win32,60,61025ae37ef11b136ea224fe,,,,,,,,,1096,100,60,1,0,0,response1disk,,6,14,8,1,0,0,rectangle,14,8,1,0,0,,,,,,,14,8,1,0,0,,1,115,275,57,1,
,,,,,,,,,,,,,FF,,,,,,,,1.473,,,,,,,,,,,,,,,,,,,,,,60fe5e12ba8c216235600e18,610379180fe5a4c6ebda3d30,2021-07-30_00h02.31.437,Simcolourproject_2stim_asymm_v5,2020.2.10,Win32,60,61025ae37ef11b136ea224fe,,,,,,,,,2234,-92,54,1,0,0,response7disk,,1,-3,-5,1,0,0,rectangle,-3,-5,1,0,0,,,,,,,-3,-5,1,0,0,,1,116,276,2,1,
,,,,,,,,,,,,,FF,,,,,,,,1.466,,,,,,,,,,,,,,,,,,,,,,60fe5e12ba8c216235600e18,610379180fe5a4c6ebda3d30,2021-07-30_00h02.31.437,Simcolourproject_2stim_asymm_v5,2020.2.10,Win32,60,61025ae37ef11b136ea224fe,,,,,,,,,3186,47,123,1,0,0,response1disk,,7,3,11,1,0,0,rectangle,3,11,1,0,0,,,,,,,3,11,1,0,0,,1,117,277,98,1,
,,,,,,,,,,,,,FF,,,,,,,,1.1,,,,,,,,,,,,,,,,,,,,,,60fe5e12ba8c216235600e18,610379180fe5a4c6ebda3d30,2021-07-30_00h02.31.437,Simcolourproject_2stim_asymm_v5,2020.2.10,Win32,60,61025ae37ef11b136ea224fe,,,,,,,,,3352,41,89,1,0,0,response1disk,,7,7,6,1,0,0,rectangle,7,6,1,0,0,,,,,,,7,6,1,0,0,,1,118,278,47,1,
,,,,,,,,,,,,,FF,,,,,,,,2.138,,,,,,,,,,,,,,,,,,,,,,60fe5e12ba8c216235600e18,610379180fe5a4c6ebda3d30,2021-07-30_00h02.31.437,Simcolourproject_2stim_asymm_v5,2020.2.10,Win32,60,61025ae37ef11b136ea224fe,,,,,,,,,1412,84,-72,1,0,0,response3disk,,5,-10,6,1,0,0,rectangle,-10,6,1,0,0,,,,,,,-10,6,1,0,0,,1,119,279,148,1,
,,,,,,,,,,,,,FF,,,,,,,,1.053,,,,,,,,,,,,,,,,,,,,,,60fe5e12ba8c216235600e18,610379180fe5a4c6ebda3d30,2021-07-30_00h02.31.437,Simcolourproject_2stim_asymm_v5,2020.2.10,Win32,60,61025ae37ef11b136ea224fe,,,,,,,,,725,-57,-78,1,0,0,response5disk,,3,2,2,1,0,0,rectangle,2,2,1,0,0,,,,,,,2,2,1,0,0,,1,120,280,147,1,
,,,,,,,,,,,,,FF,,,,,,,,2.084,,,,,,,,,,,,,,,,,,,,,,60fe5e12ba8c216235600e18,610379180fe5a4c6ebda3d30,2021-07-30_00h02.31.437,Simcolourproject_2stim_asymm_v5,2020.2.10,Win32,60,61025ae37ef11b136ea224fe,,,,,,,,,2174,-84,54,1,0,0,response7disk,,1,-14,-2,1,0,0,rectangle,-14,-2,1,0,0,,,,,,,-14,-2,1,0,0,,1,121,281,128,1,
,,,,,,,,,,,,,FF,,,,,,,,1.316,,,,,,,,,,,,,,,,,,,,,,60fe5e12ba8c216235600e18,610379180fe5a4c6ebda3d30,2021-07-30_00h02.31.437,Simcolourproject_2stim_asymm_v5,2020.2.10,Win32,60,61025ae37ef11b136ea224fe,,,,,,,,,3330,-69,-40,1,0,0,response5disk,,2,-1,-15,1,0,0,rectangle,-1,-15,1,0,0,,,,,,,-1,-15,1,0,0,,1,122,282,73,1,
,,,,,,,,,,,,,FF,,,,,,,,1.952,,,,,,,,,,,,,,,,,,,,,,60fe5e12ba8c216235600e18,610379180fe5a4c6ebda3d30,2021-07-30_00h02.31.437,Simcolourproject_2stim_asymm_v5,2020.2.10,Win32,60,61025ae37ef11b136ea224fe,,,,,,,,,4354,67,-46,1,0,0,response3disk,,5,1,-2,1,0,0,rectangle,1,-2,1,0,0,,,,,,,1,-2,1,0,0,,1,123,283,97,1,
,,,,,,,,,,,,,FF,,,,,,,,1.275,,,,,,,,,,,,,,,,,,,,,,60fe5e12ba8c216235600e18,610379180fe5a4c6ebda3d30,2021-07-30_00h02.31.437,Simcolourproject_2stim_asymm_v5,2020.2.10,Win32,60,61025ae37ef11b136ea224fe,,,,,,,,,2000,26,64,1,0,0,response1disk,,7,-4,9,1,0,0,rectangle,-4,9,1,0,0,,,,,,,-4,9,1,0,0,,1,124,284,60,1,
,,,,,,,,,,,,,FF,,,,,,,,2.666,,,,,,,,,,,,,,,,,,,,,,60fe5e12ba8c216235600e18,610379180fe5a4c6ebda3d30,2021-07-30_00h02.31.437,Simcolourproject_2stim_asymm_v5,2020.2.10,Win32,60,61025ae37ef11b136ea224fe,,,,,,,,,1762,54,87,1,0,0,response1disk,,7,-16,6,1,0,0,rectangle,-16,6,1,0,0,,,,,,,-16,6,1,0,0,,1,125,285,85,1,
,,,,,,,,,,,,,FF,,,,,,,,1.466,,,,,,,,,,,,,,,,,,,,,,60fe5e12ba8c216235600e18,610379180fe5a4c6ebda3d30,2021-07-30_00h02.31.437,Simcolourproject_2stim_asymm_v5,2020.2.10,Win32,60,61025ae37ef11b136ea224fe,,,,,,,,,1898,-71,-92,1,0,0,response5disk,,3,12,-8,1,0,0,rectangle,12,-8,1,0,0,,,,,,,12,-8,1,0,0,,1,126,286,20,1,
,,,,,,,,,,,,,FF,,,,,,,,1.535,,,,,,,,,,,,,,,,,,,,,,60fe5e12ba8c216235600e18,610379180fe5a4c6ebda3d30,2021-07-30_00h02.31.437,Simcolourproject_2stim_asymm_v5,2020.2.10,Win32,60,61025ae37ef11b136ea224fe,,,,,,,,,2888,-55,-96,1,0,0,response5disk,,3,17,10,1,0,0,rectangle,-37,126,1,0,0,response7disk_3,TRUE,0,0,"[102,15,35,98,233,121,48,1,261,67,128,187,179,157,126,299,288,55,235,2]",2.22,-4,11,1,0,0,rectangle,1,127,287,119,1,
,,,,,,,,,,,,,FF,,,,,,,,1.471,,,,,,,,,,,,,,,,,,,,,,60fe5e12ba8c216235600e18,610379180fe5a4c6ebda3d30,2021-07-30_00h02.31.437,Simcolourproject_2stim_asymm_v5,2020.2.10,Win32,60,61025ae37ef11b136ea224fe,,,,,,,,,2692,63,-77,1,0,0,response3disk,,4,19,-6,1,0,0,rectangle,19,-6,1,0,0,,,,,,,19,-6,1,0,0,,1,128,288,25,1,
,,,,,,,,,,,,,FF,,,,,,,,1.174,,,,,,,,,,,,,,,,,,,,,,60fe5e12ba8c216235600e18,610379180fe5a4c6ebda3d30,2021-07-30_00h02.31.437,Simcolourproject_2stim_asymm_v5,2020.2.10,Win32,60,61025ae37ef11b136ea224fe,,,,,,,,,1515,88,-52,1,0,0,response3disk,,5,4,-4,1,0,0,rectangle,4,-4,1,0,0,,,,,,,4,-4,1,0,0,,1,129,289,118,1,
,,,,,,,,,,,,,FF,,,,,,,,0.924,,,,,,,,,,,,,,,,,,,,,,60fe5e12ba8c216235600e18,610379180fe5a4c6ebda3d30,2021-07-30_00h02.31.437,Simcolourproject_2stim_asymm_v5,2020.2.10,Win32,60,61025ae37ef11b136ea224fe,,,,,,,,,3028,80,-42,1,0,0,response3disk,,5,21,-10,1,0,0,rectangle,21,-10,1,0,0,,,,,,,21,-10,1,0,0,,1,130,290,72,1,
,,,,,,,,,,,,,FF,,,,,,,,1.144,,,,,,,,,,,,,,,,,,,,,,60fe5e12ba8c216235600e18,610379180fe5a4c6ebda3d30,2021-07-30_00h02.31.437,Simcolourproject_2stim_asymm_v5,2020.2.10,Win32,60,61025ae37ef11b136ea224fe,,,,,,,,,2020,62,-46,1,0,0,response3disk,,5,2,-2,1,0,0,rectangle,2,-2,1,0,0,,,,,,,2,-2,1,0,0,,1,131,291,116,1,
,,,,,,,,,,,,,FF,,,,,,,,0.944,,,,,,,,,,,,,,,,,,,,,,60fe5e12ba8c216235600e18,610379180fe5a4c6ebda3d30,2021-07-30_00h02.31.437,Simcolourproject_2stim_asymm_v5,2020.2.10,Win32,60,61025ae37ef11b136ea224fe,,,,,,,,,297,81,42,1,0,0,response1disk,,6,-17,-12,1,0,0,rectangle,-17,-12,1,0,0,,,,,,,-17,-12,1,0,0,,1,132,292,140,1,
,,,,,,,,,,,,,FF,,,,,,,,1.623,,,,,,,,,,,,,,,,,,,,,,60fe5e12ba8c216235600e18,610379180fe5a4c6ebda3d30,2021-07-30_00h02.31.437,Simcolourproject_2stim_asymm_v5,2020.2.10,Win32,60,61025ae37ef11b136ea224fe,,,,,,,,,1778,41,-95,1,0,0,response3disk,,4,-13,14,1,0,0,rectangle,-13,14,1,0,0,,,,,,,-13,14,1,0,0,,1,133,293,32,1,
,,,,,,,,,,,,,FF,,,,,,,,1.005,,,,,,,,,,,,,,,,,,,,,,60fe5e12ba8c216235600e18,610379180fe5a4c6ebda3d30,2021-07-30_00h02.31.437,Simcolourproject_2stim_asymm_v5,2020.2.10,Win32,60,61025ae37ef11b136ea224fe,,,,,,,,,2689,40,-88,1,0,0,response3disk,,4,14,-11,1,0,0,rectangle,14,-11,1,0,0,,,,,,,14,-11,1,0,0,,1,134,294,56,1,
,,,,,,,,,,,,,FF,,,,,,,,1.261,,,,,,,,,,,,,,,,,,,,,,60fe5e12ba8c216235600e18,610379180fe5a4c6ebda3d30,2021-07-30_00h02.31.437,Simcolourproject_2stim_asymm_v5,2020.2.10,Win32,60,61025ae37ef11b136ea224fe,,,,,,,,,995,65,-40,1,0,0,response3disk,,5,8,-5,1,0,0,rectangle,8,-5,1,0,0,,,,,,,8,-5,1,0,0,,1,135,295,124,1,
,,,,,,,,,,,,,FF,,,,,,,,1.402,,,,,,,,,,,,,,,,,,,,,,60fe5e12ba8c216235600e18,610379180fe5a4c6ebda3d30,2021-07-30_00h02.31.437,Simcolourproject_2stim_asymm_v5,2020.2.10,Win32,60,61025ae37ef11b136ea224fe,,,,,,,,,10,91,-65,1,0,0,response3disk,,5,20,8,1,0,0,rectangle,20,8,1,0,0,,,,,,,20,8,1,0,0,,1,136,296,76,1,
,,,,,,,,,,,,,FF,,,,,,,,1.499,,,,,,,,,,,,,,,,,,,,,,60fe5e12ba8c216235600e18,610379180fe5a4c6ebda3d30,2021-07-30_00h02.31.437,Simcolourproject_2stim_asymm_v5,2020.2.10,Win32,60,61025ae37ef11b136ea224fe,,,,,,,,,1410,32,-54,1,0,0,response3disk,,4,13,3,1,0,0,rectangle,13,3,1,0,0,,,,,,,13,3,1,0,0,,1,137,297,80,1,
,,,,,,,,,,,,,FF,,,,,,,,1.56,,,,,,,,,,,,,,,,,,,,,,60fe5e12ba8c216235600e18,610379180fe5a4c6ebda3d30,2021-07-30_00h02.31.437,Simcolourproject_2stim_asymm_v5,2020.2.10,Win32,60,61025ae37ef11b136ea224fe,,,,,,,,,1324,40,-100,1,0,0,response3disk,,4,19,-9,1,0,0,rectangle,35,78,1,0,0,response1disk_3,TRUE,7,7,"[102,15,35,98,233,121,48,1,261,67,128,187,179,157,126,299,288,55,235,2]",3.094,0,15,1,0,0,rectangle,1,138,298,21,1,
,,,,,,,,,,,,,FF,,,,,,,,1.484,,,,,,,,,,,,,,,,,,,,,,60fe5e12ba8c216235600e18,610379180fe5a4c6ebda3d30,2021-07-30_00h02.31.437,Simcolourproject_2stim_asymm_v5,2020.2.10,Win32,60,61025ae37ef11b136ea224fe,,,,,,,,,1806,66,84,1,0,0,response1disk,,7,8,7,1,0,0,rectangle,8,7,1,0,0,,,,,,,8,7,1,0,0,,1,139,299,131,1,
,,,,,,,,,,,,,FF,,,,,,,,1.687,,,,,,,,,,,,,,,,,,,,,,60fe5e12ba8c216235600e18,610379180fe5a4c6ebda3d30,2021-07-30_00h02.31.437,Simcolourproject_2stim_asymm_v5,2020.2.10,Win32,60,61025ae37ef11b136ea224fe,,,,,,,,,3141,-71,-44,1,0,0,response5disk,,2,0,-14,1,0,0,rectangle,0,-14,1,0,0,,,,,,,0,-14,1,0,0,,1,140,300,12,1,
,,,,,,,,,,,,,FF,,,,,,,,1.719,,,,,,,,,,,,,,,,,,,,,,60fe5e12ba8c216235600e18,610379180fe5a4c6ebda3d30,2021-07-30_00h02.31.437,Simcolourproject_2stim_asymm_v5,2020.2.10,Win32,60,61025ae37ef11b136ea224fe,,,,,,,,,402,109,-50,1,0,0,response3disk,,5,0,4,1,0,0,rectangle,0,4,1,0,0,,,,,,,0,4,1,0,0,,1,141,301,0,1,
,,,,,,,,,,,,,FF,,,,,,,,1.311,,,,,,,,,,,,,,,,,,,,,,60fe5e12ba8c216235600e18,610379180fe5a4c6ebda3d30,2021-07-30_00h02.31.437,Simcolourproject_2stim_asymm_v5,2020.2.10,Win32,60,61025ae37ef11b136ea224fe,,,,,,,,,56,-44,-111,1,0,0,response5disk,,3,-10,-3,1,0,0,rectangle,-10,-3,1,0,0,,,,,,,-10,-3,1,0,0,,1,142,302,3,1,
