key_resp.keys,key_resp.rt,key_resp_14.keys,key_resp_14.rt,key_resp_15.keys,key_resp_15.rt,key_resp_17.keys,key_resp_17.rt,key_resp_9.keys,key_resp_9.rt,key_resp_10.keys,key_resp_10.rt,practice_comparison,Ecc,mouse_5.x,mouse_5.y,mouse_5.leftButton,mouse_5.midButton,mouse_5.rightButton,mouse_5.clicked_name,pracsimilarity,response_time,mouse_10.x,mouse_10.y,mouse_10.leftButton,mouse_10.midButton,mouse_10.rightButton,mouse_10.clicked_name,mouse_7.x,mouse_7.y,mouse_7.leftButton,mouse_7.midButton,mouse_7.rightButton,mouse_6.x,mouse_6.y,mouse_6.leftButton,mouse_6.midButton,mouse_6.rightButton,duringprac.thisRepN,duringprac.thisTrialN,duringprac.thisN,duringprac.thisIndex,duringprac.ran,participant,session,date,expName,psychopyVersion,OS,frameRate,study_id,mouse_7.clicked_name,catchpracsimilarity,catch_response_time,catchnumberprac,catchtrialorderprac,mouse_6.clicked_name,key_resp_22.keys,key_resp_22.rt,realcomparison,mouse.x,mouse.y,mouse.leftButton,mouse.midButton,mouse.rightButton,mouse.clicked_name,Colour2,similarity,mouse_2.x,mouse_2.y,mouse_2.leftButton,mouse_2.midButton,mouse_2.rightButton,mouse_2.clicked_name,mouse_3.x,mouse_3.y,mouse_3.leftButton,mouse_3.midButton,mouse_3.rightButton,mouse_11.x,mouse_11.y,mouse_11.leftButton,mouse_11.midButton,mouse_11.rightButton,trials_2.thisRepN,trials_2.thisTrialN,trials_2.thisN,trials_2.thisIndex,trials_2.ran,Colour1,mouse_3.clicked_name,catchornah,catchsimilarity,catchnumber,catchtrialorder,catchRT,mouse_11.clicked_name
space,1.3475,space,13.2895,space,10.2266,space,3.1006,space,3.2208,space,4.1837,95,FF,93.5,-43,1,0,0,response3disk_5,5,10.4444,-3.5,2.5,1,0,0,rectangle_8,-3.5,2.5,1,0,0,-3.5,2.5,1,0,0,0,0,0,5,1,60feedc9ecfddadc0746e98f,61036c1c7d4c69350054cb29,2021-07-29_20h06.00.898,Simcolourproject_2stim_asymm_v5,2020.2.10,Win32,60,61025ae37ef11b136ea224fe,,,,,,,,,,,,,,,,,,,,,,,,,,,,,,,,,,,,,,,,,,,,,,
,,,,,,,,,,,,52,PF,41.5,55,1,0,0,response1disk_5,7,4.9871,1,0.5,1,0,0,rectangle_8,-21,67.5,1,0,0,-5,5.5,1,0,0,0,1,1,4,1,60feedc9ecfddadc0746e98f,61036c1c7d4c69350054cb29,2021-07-29_20h06.00.898,Simcolourproject_2stim_asymm_v5,2020.2.10,Win32,60,61025ae37ef11b136ea224fe,response7disk_7,0,2.3697,0,"[2,5]",rectangle_4,,,,,,,,,,,,,,,,,,,,,,,,,,,,,,,,,,,,,,,,
,,,,,,,,,,,,1,PF,97.5,-71.5,1,0,0,response3disk_5,5,12.8083,-6.5,-1.5,1,0,0,rectangle_8,-6.5,-1.5,1,0,0,-6.5,-1.5,1,0,0,0,2,2,6,1,60feedc9ecfddadc0746e98f,61036c1c7d4c69350054cb29,2021-07-29_20h06.00.898,Simcolourproject_2stim_asymm_v5,2020.2.10,Win32,60,61025ae37ef11b136ea224fe,,,,,,,,,,,,,,,,,,,,,,,,,,,,,,,,,,,,,,,,,,,,,,
,,,,,,,,,,,,159,PF,95,-55,1,0,0,response3disk_5,5,7.5299,2,1,1,0,0,rectangle_8,2,1,1,0,0,2,1,1,0,0,0,3,3,2,1,60feedc9ecfddadc0746e98f,61036c1c7d4c69350054cb29,2021-07-29_20h06.00.898,Simcolourproject_2stim_asymm_v5,2020.2.10,Win32,60,61025ae37ef11b136ea224fe,,,,,,,,,,,,,,,,,,,,,,,,,,,,,,,,,,,,,,,,,,,,,,
,,,,,,,,,,,,18,PF,60.5,86.5,1,0,0,response1disk_5,7,7.5556,1,10.5,1,0,0,rectangle_8,-24.5,88.5,1,0,0,-12.5,1,1,0,0,0,4,4,1,1,60feedc9ecfddadc0746e98f,61036c1c7d4c69350054cb29,2021-07-29_20h06.00.898,Simcolourproject_2stim_asymm_v5,2020.2.10,Win32,60,61025ae37ef11b136ea224fe,response7disk_7,0,1.7686,0,"[2,5]",rectangle_4,,,,,,,,,,,,,,,,,,,,,,,,,,,,,,,,,,,,,,,,
,,,,,,,,,,,,90,FF,98.5,-49.5,1,0,0,response3disk_5,5,5.9215,-8.5,-8,1,0,0,rectangle_8,-8.5,-8,1,0,0,-8.5,-8,1,0,0,0,5,5,0,1,60feedc9ecfddadc0746e98f,61036c1c7d4c69350054cb29,2021-07-29_20h06.00.898,Simcolourproject_2stim_asymm_v5,2020.2.10,Win32,60,61025ae37ef11b136ea224fe,,,,,,,,,,,,,,,,,,,,,,,,,,,,,,,,,,,,,,,,,,,,,,
,,,,,,,,,,,,37,FF,54.5,-91,1,0,0,response3disk_5,4,2.3797,3.5,-1,1,0,0,rectangle_8,3.5,-1,1,0,0,3.5,-1,1,0,0,0,6,6,3,1,60feedc9ecfddadc0746e98f,61036c1c7d4c69350054cb29,2021-07-29_20h06.00.898,Simcolourproject_2stim_asymm_v5,2020.2.10,Win32,60,61025ae37ef11b136ea224fe,,,,,,,,,,,,,,,,,,,,,,,,,,,,,,,,,,,,,,,,,,,,,,
,,,,,,,,,,,,,FF,,,,,,,,11.8158,,,,,,,,,,,,,,,,,,,,,,60feedc9ecfddadc0746e98f,61036c1c7d4c69350054cb29,2021-07-29_20h06.00.898,Simcolourproject_2stim_asymm_v5,2020.2.10,Win32,60,61025ae37ef11b136ea224fe,,,,,,,space,2.2822,2289,99.5,27,1,0,0,response1disk,,6,-9.5,-1,1,0,0,rectangle,-9.5,-1,1,0,0,-9.5,-1,1,0,0,0,0,0,155,1,,,,,,,,
,,,,,,,,,,,,,FF,,,,,,,,3.7693,,,,,,,,,,,,,,,,,,,,,,60feedc9ecfddadc0746e98f,61036c1c7d4c69350054cb29,2021-07-29_20h06.00.898,Simcolourproject_2stim_asymm_v5,2020.2.10,Win32,60,61025ae37ef11b136ea224fe,,,,,,,,,1631,87,-36.5,1,0,0,response3disk,,5,-11,-3.5,1,0,0,rectangle,-11,-3.5,1,0,0,-11,-3.5,1,0,0,0,1,1,133,1,,,,,,,,
,,,,,,,,,,,,,FF,,,,,,,,8.8782,,,,,,,,,,,,,,,,,,,,,,60feedc9ecfddadc0746e98f,61036c1c7d4c69350054cb29,2021-07-29_20h06.00.898,Simcolourproject_2stim_asymm_v5,2020.2.10,Win32,60,61025ae37ef11b136ea224fe,,,,,,,,,42,61.5,24,1,0,0,response1disk,,6,-6,1,1,0,0,rectangle,-6,1,1,0,0,-6,1,1,0,0,0,2,2,120,1,,,,,,,,
,,,,,,,,,,,,,FF,,,,,,,,2.0693,,,,,,,,,,,,,,,,,,,,,,60feedc9ecfddadc0746e98f,61036c1c7d4c69350054cb29,2021-07-29_20h06.00.898,Simcolourproject_2stim_asymm_v5,2020.2.10,Win32,60,61025ae37ef11b136ea224fe,,,,,,,,,3111,42,-89.5,1,0,0,response3disk,,4,-7,5,1,0,0,rectangle,-7,5,1,0,0,-7,5,1,0,0,0,3,3,151,1,,,,,,,,
,,,,,,,,,,,,,FF,,,,,,,,3.4276,,,,,,,,,,,,,,,,,,,,,,60feedc9ecfddadc0746e98f,61036c1c7d4c69350054cb29,2021-07-29_20h06.00.898,Simcolourproject_2stim_asymm_v5,2020.2.10,Win32,60,61025ae37ef11b136ea224fe,,,,,,,,,2668,86,-58,1,0,0,response3disk,,5,3,9.5,1,0,0,rectangle,-84,-27,1,0,0,-7,-9.5,1,0,0,0,4,4,76,1,,response5disk_3,TRUE,2,2,"[73,117,133,265,64,21,236,238,277,160,112,313,20,185,5,84,199,59,249,265]",2.0044,rectangle
,,,,,,,,,,,,,FF,,,,,,,,3.0195,,,,,,,,,,,,,,,,,,,,,,60feedc9ecfddadc0746e98f,61036c1c7d4c69350054cb29,2021-07-29_20h06.00.898,Simcolourproject_2stim_asymm_v5,2020.2.10,Win32,60,61025ae37ef11b136ea224fe,,,,,,,,,2308,75,-59.5,1,0,0,response3disk,,5,-6.5,2.5,1,0,0,rectangle,-6.5,2.5,1,0,0,-6.5,2.5,1,0,0,0,5,5,19,1,,,,,,,,
,,,,,,,,,,,,,FF,,,,,,,,8.3005,,,,,,,,,,,,,,,,,,,,,,60feedc9ecfddadc0746e98f,61036c1c7d4c69350054cb29,2021-07-29_20h06.00.898,Simcolourproject_2stim_asymm_v5,2020.2.10,Win32,60,61025ae37ef11b136ea224fe,,,,,,,,,207,79.5,24.5,1,0,0,response1disk,,6,-0.5,2,1,0,0,rectangle,-0.5,2,1,0,0,-0.5,2,1,0,0,0,6,6,77,1,,,,,,,,
,,,,,,,,,,,,,FF,,,,,,,,1.4028,,,,,,,,,,,,,,,,,,,,,,60feedc9ecfddadc0746e98f,61036c1c7d4c69350054cb29,2021-07-29_20h06.00.898,Simcolourproject_2stim_asymm_v5,2020.2.10,Win32,60,61025ae37ef11b136ea224fe,,,,,,,,,292,99,28.5,1,0,0,response1disk,,6,14,4.5,1,0,0,rectangle,14,4.5,1,0,0,14,4.5,1,0,0,0,7,7,124,1,,,,,,,,
,,,,,,,,,,,,,FF,,,,,,,,2.0191,,,,,,,,,,,,,,,,,,,,,,60feedc9ecfddadc0746e98f,61036c1c7d4c69350054cb29,2021-07-29_20h06.00.898,Simcolourproject_2stim_asymm_v5,2020.2.10,Win32,60,61025ae37ef11b136ea224fe,,,,,,,,,1284,59,94,1,0,0,response1disk,,7,1.5,-4.5,1,0,0,rectangle,1.5,-4.5,1,0,0,1.5,-4.5,1,0,0,0,8,8,38,1,,,,,,,,
,,,,,,,,,,,,,FF,,,,,,,,3.7037,,,,,,,,,,,,,,,,,,,,,,60feedc9ecfddadc0746e98f,61036c1c7d4c69350054cb29,2021-07-29_20h06.00.898,Simcolourproject_2stim_asymm_v5,2020.2.10,Win32,60,61025ae37ef11b136ea224fe,,,,,,,,,2025,-54.5,94,1,0,0,response7disk,,0,4,-4.5,1,0,0,rectangle,4,-4.5,1,0,0,4,-4.5,1,0,0,0,9,9,12,1,,,,,,,,
,,,,,,,,,,,,,FF,,,,,,,,3.8041,,,,,,,,,,,,,,,,,,,,,,60feedc9ecfddadc0746e98f,61036c1c7d4c69350054cb29,2021-07-29_20h06.00.898,Simcolourproject_2stim_asymm_v5,2020.2.10,Win32,60,61025ae37ef11b136ea224fe,,,,,,,,,1365,71,-57.5,1,0,0,response3disk,,5,-11.5,-1,1,0,0,rectangle,-11.5,-1,1,0,0,-11.5,-1,1,0,0,0,10,10,1,1,,,,,,,,
,,,,,,,,,,,,,FF,,,,,,,,4.6809,,,,,,,,,,,,,,,,,,,,,,60feedc9ecfddadc0746e98f,61036c1c7d4c69350054cb29,2021-07-29_20h06.00.898,Simcolourproject_2stim_asymm_v5,2020.2.10,Win32,60,61025ae37ef11b136ea224fe,,,,,,,,,3808,31.5,-87.5,1,0,0,response3disk,,4,-21.5,4.5,1,0,0,rectangle,-21.5,4.5,1,0,0,-21.5,4.5,1,0,0,0,11,11,36,1,,,,,,,,
,,,,,,,,,,,,,FF,,,,,,,,2.4883,,,,,,,,,,,,,,,,,,,,,,60feedc9ecfddadc0746e98f,61036c1c7d4c69350054cb29,2021-07-29_20h06.00.898,Simcolourproject_2stim_asymm_v5,2020.2.10,Win32,60,61025ae37ef11b136ea224fe,,,,,,,,,3814,-78,-43,1,0,0,response5disk,,2,-8.5,9.5,1,0,0,rectangle,-8.5,9.5,1,0,0,-8.5,9.5,1,0,0,0,12,12,137,1,,,,,,,,
,,,,,,,,,,,,,FF,,,,,,,,2.0536,,,,,,,,,,,,,,,,,,,,,,60feedc9ecfddadc0746e98f,61036c1c7d4c69350054cb29,2021-07-29_20h06.00.898,Simcolourproject_2stim_asymm_v5,2020.2.10,Win32,60,61025ae37ef11b136ea224fe,,,,,,,,,3116,48.5,75,1,0,0,response1disk,,7,10.5,-8,1,0,0,rectangle,10.5,-8,1,0,0,10.5,-8,1,0,0,0,13,13,26,1,,,,,,,,
,,,,,,,,,,,,,FF,,,,,,,,2.2542,,,,,,,,,,,,,,,,,,,,,,60feedc9ecfddadc0746e98f,61036c1c7d4c69350054cb29,2021-07-29_20h06.00.898,Simcolourproject_2stim_asymm_v5,2020.2.10,Win32,60,61025ae37ef11b136ea224fe,,,,,,,,,102,98,31.5,1,0,0,response1disk,,6,-4,-3,1,0,0,rectangle,-4,-3,1,0,0,-4,-3,1,0,0,0,14,14,48,1,,,,,,,,
,,,,,,,,,,,,,FF,,,,,,,,6.1144,,,,,,,,,,,,,,,,,,,,,,60feedc9ecfddadc0746e98f,61036c1c7d4c69350054cb29,2021-07-29_20h06.00.898,Simcolourproject_2stim_asymm_v5,2020.2.10,Win32,60,61025ae37ef11b136ea224fe,,,,,,,,,136,61,53,1,0,0,response1disk,,6,-7,7.5,1,0,0,rectangle,-7,7.5,1,0,0,-7,7.5,1,0,0,0,15,15,113,1,,,,,,,,
,,,,,,,,,,,,,FF,,,,,,,,2.4328,,,,,,,,,,,,,,,,,,,,,,60feedc9ecfddadc0746e98f,61036c1c7d4c69350054cb29,2021-07-29_20h06.00.898,Simcolourproject_2stim_asymm_v5,2020.2.10,Win32,60,61025ae37ef11b136ea224fe,,,,,,,,,3764,90,-53.5,1,0,0,response3disk,,5,-5,7.5,1,0,0,rectangle,-5,7.5,1,0,0,-5,7.5,1,0,0,0,16,16,136,1,,,,,,,,
,,,,,,,,,,,,,FF,,,,,,,,2.0073,,,,,,,,,,,,,,,,,,,,,,60feedc9ecfddadc0746e98f,61036c1c7d4c69350054cb29,2021-07-29_20h06.00.898,Simcolourproject_2stim_asymm_v5,2020.2.10,Win32,60,61025ae37ef11b136ea224fe,,,,,,,,,3977,80.5,-50.5,1,0,0,response3disk,,5,-4.5,11,1,0,0,rectangle,-4.5,11,1,0,0,-4.5,11,1,0,0,0,17,17,65,1,,,,,,,,
,,,,,,,,,,,,,FF,,,,,,,,2.4371,,,,,,,,,,,,,,,,,,,,,,60feedc9ecfddadc0746e98f,61036c1c7d4c69350054cb29,2021-07-29_20h06.00.898,Simcolourproject_2stim_asymm_v5,2020.2.10,Win32,60,61025ae37ef11b136ea224fe,,,,,,,,,1999,95,36,1,0,0,response1disk,,6,4.5,-1.5,1,0,0,rectangle,4.5,-1.5,1,0,0,4.5,-1.5,1,0,0,0,18,18,37,1,,,,,,,,
,,,,,,,,,,,,,FF,,,,,,,,1.172,,,,,,,,,,,,,,,,,,,,,,60feedc9ecfddadc0746e98f,61036c1c7d4c69350054cb29,2021-07-29_20h06.00.898,Simcolourproject_2stim_asymm_v5,2020.2.10,Win32,60,61025ae37ef11b136ea224fe,,,,,,,,,1926,92,42,1,0,0,response1disk,,6,0.5,5.5,1,0,0,rectangle,-100.5,-44,1,0,0,-4,-2.5,1,0,0,0,19,19,141,1,,response5disk_3,TRUE,2,2,"[73,117,133,265,64,21,236,238,277,160,112,313,20,185,5,84,199,59,249,265]",1.6356,rectangle
,,,,,,,,,,,,,FF,,,,,,,,3.5201,,,,,,,,,,,,,,,,,,,,,,60feedc9ecfddadc0746e98f,61036c1c7d4c69350054cb29,2021-07-29_20h06.00.898,Simcolourproject_2stim_asymm_v5,2020.2.10,Win32,60,61025ae37ef11b136ea224fe,,,,,,,,,1818,76,31.5,1,0,0,response1disk,,6,2.5,2.5,1,0,0,rectangle,33,74.5,1,0,0,7,-2.5,1,0,0,0,20,20,35,1,,response1disk_3,TRUE,7,7,"[73,117,133,265,64,21,236,238,277,160,112,313,20,185,5,84,199,59,249,265]",1.5176,rectangle
,,,,,,,,,,,,,FF,,,,,,,,1.1012,,,,,,,,,,,,,,,,,,,,,,60feedc9ecfddadc0746e98f,61036c1c7d4c69350054cb29,2021-07-29_20h06.00.898,Simcolourproject_2stim_asymm_v5,2020.2.10,Win32,60,61025ae37ef11b136ea224fe,,,,,,,,,1584,65,38.5,1,0,0,response1disk,,6,-12.5,2,1,0,0,rectangle,-12.5,2,1,0,0,-12.5,2,1,0,0,0,21,21,33,1,,,,,,,,
,,,,,,,,,,,,,FF,,,,,,,,4.8283,,,,,,,,,,,,,,,,,,,,,,60feedc9ecfddadc0746e98f,61036c1c7d4c69350054cb29,2021-07-29_20h06.00.898,Simcolourproject_2stim_asymm_v5,2020.2.10,Win32,60,61025ae37ef11b136ea224fe,,,,,,,,,2354,48,64.5,1,0,0,response1disk,,7,13,5.5,1,0,0,rectangle,13,5.5,1,0,0,13,5.5,1,0,0,0,22,22,25,1,,,,,,,,
,,,,,,,,,,,,,FF,,,,,,,,1.6988,,,,,,,,,,,,,,,,,,,,,,60feedc9ecfddadc0746e98f,61036c1c7d4c69350054cb29,2021-07-29_20h06.00.898,Simcolourproject_2stim_asymm_v5,2020.2.10,Win32,60,61025ae37ef11b136ea224fe,,,,,,,,,3975,74.5,-50.5,1,0,0,response3disk,,5,5.5,-3,1,0,0,rectangle,5.5,-3,1,0,0,5.5,-3,1,0,0,0,23,23,27,1,,,,,,,,
,,,,,,,,,,,,,FF,,,,,,,,2.204,,,,,,,,,,,,,,,,,,,,,,60feedc9ecfddadc0746e98f,61036c1c7d4c69350054cb29,2021-07-29_20h06.00.898,Simcolourproject_2stim_asymm_v5,2020.2.10,Win32,60,61025ae37ef11b136ea224fe,,,,,,,,,182,53.5,85,1,0,0,response1disk,,7,2,6.5,1,0,0,rectangle,2,6.5,1,0,0,2,6.5,1,0,0,0,24,24,53,1,,,,,,,,
,,,,,,,,,,,,,FF,,,,,,,,2.9642,,,,,,,,,,,,,,,,,,,,,,60feedc9ecfddadc0746e98f,61036c1c7d4c69350054cb29,2021-07-29_20h06.00.898,Simcolourproject_2stim_asymm_v5,2020.2.10,Win32,60,61025ae37ef11b136ea224fe,,,,,,,,,3266,51.5,-85,1,0,0,response3disk,,4,8.5,12.5,1,0,0,rectangle,8.5,12.5,1,0,0,8.5,12.5,1,0,0,0,25,25,72,1,,,,,,,,
,,,,,,,,,,,,,FF,,,,,,,,1.5204,,,,,,,,,,,,,,,,,,,,,,60feedc9ecfddadc0746e98f,61036c1c7d4c69350054cb29,2021-07-29_20h06.00.898,Simcolourproject_2stim_asymm_v5,2020.2.10,Win32,60,61025ae37ef11b136ea224fe,,,,,,,,,2748,24,50,1,0,0,response1disk,,7,-5,-3.5,1,0,0,rectangle,-5,-3.5,1,0,0,-5,-3.5,1,0,0,0,26,26,17,1,,,,,,,,
,,,,,,,,,,,,,FF,,,,,,,,1.3677,,,,,,,,,,,,,,,,,,,,,,60feedc9ecfddadc0746e98f,61036c1c7d4c69350054cb29,2021-07-29_20h06.00.898,Simcolourproject_2stim_asymm_v5,2020.2.10,Win32,60,61025ae37ef11b136ea224fe,,,,,,,,,3840,76.5,22,1,0,0,response1disk,,6,1,2.5,1,0,0,rectangle,1,2.5,1,0,0,1,2.5,1,0,0,0,27,27,126,1,,,,,,,,
,,,,,,,,,,,,,FF,,,,,,,,2.2237,,,,,,,,,,,,,,,,,,,,,,60feedc9ecfddadc0746e98f,61036c1c7d4c69350054cb29,2021-07-29_20h06.00.898,Simcolourproject_2stim_asymm_v5,2020.2.10,Win32,60,61025ae37ef11b136ea224fe,,,,,,,,,969,-79,-37,1,0,0,response5disk,,2,-1.5,8,1,0,0,rectangle,-1.5,8,1,0,0,-1.5,8,1,0,0,0,28,28,98,1,,,,,,,,
,,,,,,,,,,,,,FF,,,,,,,,2.1277,,,,,,,,,,,,,,,,,,,,,,60feedc9ecfddadc0746e98f,61036c1c7d4c69350054cb29,2021-07-29_20h06.00.898,Simcolourproject_2stim_asymm_v5,2020.2.10,Win32,60,61025ae37ef11b136ea224fe,,,,,,,,,2343,102.5,22.5,1,0,0,response1disk,,6,10,-4,1,0,0,rectangle,10,-4,1,0,0,10,-4,1,0,0,0,29,29,21,1,,,,,,,,
,,,,,,,,,,,,,FF,,,,,,,,1.2511,,,,,,,,,,,,,,,,,,,,,,60feedc9ecfddadc0746e98f,61036c1c7d4c69350054cb29,2021-07-29_20h06.00.898,Simcolourproject_2stim_asymm_v5,2020.2.10,Win32,60,61025ae37ef11b136ea224fe,,,,,,,,,1841,78.5,-43,1,0,0,response3disk,,5,-4.5,3,1,0,0,rectangle,-4.5,3,1,0,0,-4.5,3,1,0,0,0,30,30,110,1,,,,,,,,
,,,,,,,,,,,,,FF,,,,,,,,1.1868,,,,,,,,,,,,,,,,,,,,,,60feedc9ecfddadc0746e98f,61036c1c7d4c69350054cb29,2021-07-29_20h06.00.898,Simcolourproject_2stim_asymm_v5,2020.2.10,Win32,60,61025ae37ef11b136ea224fe,,,,,,,,,2028,42,-86.5,1,0,0,response3disk,,4,6,4.5,1,0,0,rectangle,6,4.5,1,0,0,6,4.5,1,0,0,0,31,31,7,1,,,,,,,,
,,,,,,,,,,,,,FF,,,,,,,,2.2218,,,,,,,,,,,,,,,,,,,,,,60feedc9ecfddadc0746e98f,61036c1c7d4c69350054cb29,2021-07-29_20h06.00.898,Simcolourproject_2stim_asymm_v5,2020.2.10,Win32,60,61025ae37ef11b136ea224fe,,,,,,,,,1198,84.5,44,1,0,0,response1disk,,6,8.5,7.5,1,0,0,rectangle,8.5,7.5,1,0,0,8.5,7.5,1,0,0,0,32,32,14,1,,,,,,,,
,,,,,,,,,,,,,FF,,,,,,,,2.2852,,,,,,,,,,,,,,,,,,,,,,60feedc9ecfddadc0746e98f,61036c1c7d4c69350054cb29,2021-07-29_20h06.00.898,Simcolourproject_2stim_asymm_v5,2020.2.10,Win32,60,61025ae37ef11b136ea224fe,,,,,,,,,4279,66,90,1,0,0,response1disk,,7,4,2,1,0,0,rectangle,4,2,1,0,0,4,2,1,0,0,0,33,33,29,1,,,,,,,,
,,,,,,,,,,,,,FF,,,,,,,,1.3374,,,,,,,,,,,,,,,,,,,,,,60feedc9ecfddadc0746e98f,61036c1c7d4c69350054cb29,2021-07-29_20h06.00.898,Simcolourproject_2stim_asymm_v5,2020.2.10,Win32,60,61025ae37ef11b136ea224fe,,,,,,,,,3601,84.5,-34,1,0,0,response3disk,,5,10.5,-5,1,0,0,rectangle,10.5,-5,1,0,0,10.5,-5,1,0,0,0,34,34,132,1,,,,,,,,
,,,,,,,,,,,,,FF,,,,,,,,2.0067,,,,,,,,,,,,,,,,,,,,,,60feedc9ecfddadc0746e98f,61036c1c7d4c69350054cb29,2021-07-29_20h06.00.898,Simcolourproject_2stim_asymm_v5,2020.2.10,Win32,60,61025ae37ef11b136ea224fe,,,,,,,,,399,67,71,1,0,0,response1disk,,7,-3,0.5,1,0,0,rectangle,-3,0.5,1,0,0,-3,0.5,1,0,0,0,35,35,145,1,,,,,,,,
,,,,,,,,,,,,,FF,,,,,,,,1.9847,,,,,,,,,,,,,,,,,,,,,,60feedc9ecfddadc0746e98f,61036c1c7d4c69350054cb29,2021-07-29_20h06.00.898,Simcolourproject_2stim_asymm_v5,2020.2.10,Win32,60,61025ae37ef11b136ea224fe,,,,,,,,,4284,49.5,89.5,1,0,0,response1disk,,7,5,8.5,1,0,0,rectangle,5,8.5,1,0,0,5,8.5,1,0,0,0,36,36,83,1,,,,,,,,
,,,,,,,,,,,,,FF,,,,,,,,1.1037,,,,,,,,,,,,,,,,,,,,,,60feedc9ecfddadc0746e98f,61036c1c7d4c69350054cb29,2021-07-29_20h06.00.898,Simcolourproject_2stim_asymm_v5,2020.2.10,Win32,60,61025ae37ef11b136ea224fe,,,,,,,,,3403,-56,-80,1,0,0,response5disk,,3,10,6,1,0,0,rectangle,10,6,1,0,0,10,6,1,0,0,0,37,37,138,1,,,,,,,,
,,,,,,,,,,,,,FF,,,,,,,,1.6218,,,,,,,,,,,,,,,,,,,,,,60feedc9ecfddadc0746e98f,61036c1c7d4c69350054cb29,2021-07-29_20h06.00.898,Simcolourproject_2stim_asymm_v5,2020.2.10,Win32,60,61025ae37ef11b136ea224fe,,,,,,,,,3886,77,-46,1,0,0,response3disk,,5,2,-3.5,1,0,0,rectangle,2,-3.5,1,0,0,2,-3.5,1,0,0,0,38,38,69,1,,,,,,,,
,,,,,,,,,,,,,FF,,,,,,,,6.0322,,,,,,,,,,,,,,,,,,,,,,60feedc9ecfddadc0746e98f,61036c1c7d4c69350054cb29,2021-07-29_20h06.00.898,Simcolourproject_2stim_asymm_v5,2020.2.10,Win32,60,61025ae37ef11b136ea224fe,,,,,,,,,2042,83.5,-64.5,1,0,0,response3disk,,5,-1,9,1,0,0,rectangle,-1,9,1,0,0,-1,9,1,0,0,0,39,39,84,1,,,,,,,,
,,,,,,,,,,,,,FF,,,,,,,,2.4383,,,,,,,,,,,,,,,,,,,,,,60feedc9ecfddadc0746e98f,61036c1c7d4c69350054cb29,2021-07-29_20h06.00.898,Simcolourproject_2stim_asymm_v5,2020.2.10,Win32,60,61025ae37ef11b136ea224fe,,,,,,,,,1434,95,-29.5,1,0,0,response3disk,,5,-6,-3,1,0,0,rectangle,-6,-3,1,0,0,-6,-3,1,0,0,0,40,40,149,1,,,,,,,,
,,,,,,,,,,,,,FF,,,,,,,,1.9015,,,,,,,,,,,,,,,,,,,,,,60feedc9ecfddadc0746e98f,61036c1c7d4c69350054cb29,2021-07-29_20h06.00.898,Simcolourproject_2stim_asymm_v5,2020.2.10,Win32,60,61025ae37ef11b136ea224fe,,,,,,,,,3483,66.5,-41.5,1,0,0,response3disk,,5,4,7,1,0,0,rectangle,4,7,1,0,0,4,7,1,0,0,0,41,41,150,1,,,,,,,,
,,,,,,,,,,,,,FF,,,,,,,,1.27,,,,,,,,,,,,,,,,,,,,,,60feedc9ecfddadc0746e98f,61036c1c7d4c69350054cb29,2021-07-29_20h06.00.898,Simcolourproject_2stim_asymm_v5,2020.2.10,Win32,60,61025ae37ef11b136ea224fe,,,,,,,,,631,78,-31,1,0,0,response3disk,,5,10,3.5,1,0,0,rectangle,10,3.5,1,0,0,10,3.5,1,0,0,0,42,42,62,1,,,,,,,,
,,,,,,,,,,,,,FF,,,,,,,,3.2622,,,,,,,,,,,,,,,,,,,,,,60feedc9ecfddadc0746e98f,61036c1c7d4c69350054cb29,2021-07-29_20h06.00.898,Simcolourproject_2stim_asymm_v5,2020.2.10,Win32,60,61025ae37ef11b136ea224fe,,,,,,,,,2383,46,79,1,0,0,response1disk,,7,12.5,4.5,1,0,0,rectangle,12.5,4.5,1,0,0,12.5,4.5,1,0,0,0,43,43,157,1,,,,,,,,
,,,,,,,,,,,,,FF,,,,,,,,1.7598,,,,,,,,,,,,,,,,,,,,,,60feedc9ecfddadc0746e98f,61036c1c7d4c69350054cb29,2021-07-29_20h06.00.898,Simcolourproject_2stim_asymm_v5,2020.2.10,Win32,60,61025ae37ef11b136ea224fe,,,,,,,,,1586,73,-43.5,1,0,0,response3disk,,5,-1.5,14,1,0,0,rectangle,-1.5,14,1,0,0,-1.5,14,1,0,0,0,44,44,43,1,,,,,,,,
,,,,,,,,,,,,,FF,,,,,,,,2.1019,,,,,,,,,,,,,,,,,,,,,,60feedc9ecfddadc0746e98f,61036c1c7d4c69350054cb29,2021-07-29_20h06.00.898,Simcolourproject_2stim_asymm_v5,2020.2.10,Win32,60,61025ae37ef11b136ea224fe,,,,,,,,,1107,79,-40,1,0,0,response3disk,,5,-7.5,3.5,1,0,0,rectangle,-7.5,3.5,1,0,0,-7.5,3.5,1,0,0,0,45,45,9,1,,,,,,,,
,,,,,,,,,,,,,FF,,,,,,,,2.5961,,,,,,,,,,,,,,,,,,,,,,60feedc9ecfddadc0746e98f,61036c1c7d4c69350054cb29,2021-07-29_20h06.00.898,Simcolourproject_2stim_asymm_v5,2020.2.10,Win32,60,61025ae37ef11b136ea224fe,,,,,,,,,1825,-35.5,-74.5,1,0,0,response5disk,,3,5.5,4,1,0,0,rectangle,5.5,4,1,0,0,5.5,4,1,0,0,0,46,46,148,1,,,,,,,,
,,,,,,,,,,,,,FF,,,,,,,,2.4969,,,,,,,,,,,,,,,,,,,,,,60feedc9ecfddadc0746e98f,61036c1c7d4c69350054cb29,2021-07-29_20h06.00.898,Simcolourproject_2stim_asymm_v5,2020.2.10,Win32,60,61025ae37ef11b136ea224fe,,,,,,,,,1137,81,-33.5,1,0,0,response3disk,,5,-7.5,-0.5,1,0,0,rectangle,-7.5,-0.5,1,0,0,-7.5,-0.5,1,0,0,0,47,47,95,1,,,,,,,,
,,,,,,,,,,,,,FF,,,,,,,,1.3464,,,,,,,,,,,,,,,,,,,,,,60feedc9ecfddadc0746e98f,61036c1c7d4c69350054cb29,2021-07-29_20h06.00.898,Simcolourproject_2stim_asymm_v5,2020.2.10,Win32,60,61025ae37ef11b136ea224fe,,,,,,,,,1892,43.5,-74,1,0,0,response3disk,,4,-8,4.5,1,0,0,rectangle,-8,4.5,1,0,0,-8,4.5,1,0,0,0,48,48,5,1,,,,,,,,
,,,,,,,,,,,,,FF,,,,,,,,1.0362,,,,,,,,,,,,,,,,,,,,,,60feedc9ecfddadc0746e98f,61036c1c7d4c69350054cb29,2021-07-29_20h06.00.898,Simcolourproject_2stim_asymm_v5,2020.2.10,Win32,60,61025ae37ef11b136ea224fe,,,,,,,,,232,47.5,60.5,1,0,0,response1disk,,7,7,-1.5,1,0,0,rectangle,7,-1.5,1,0,0,7,-1.5,1,0,0,0,49,49,109,1,,,,,,,,
,,,,,,,,,,,,,FF,,,,,,,,3.4646,,,,,,,,,,,,,,,,,,,,,,60feedc9ecfddadc0746e98f,61036c1c7d4c69350054cb29,2021-07-29_20h06.00.898,Simcolourproject_2stim_asymm_v5,2020.2.10,Win32,60,61025ae37ef11b136ea224fe,,,,,,,,,129,50.5,87,1,0,0,response1disk,,7,-1.5,7,1,0,0,rectangle,-1.5,7,1,0,0,-1.5,7,1,0,0,0,50,50,56,1,,,,,,,,
,,,,,,,,,,,,,FF,,,,,,,,1.284,,,,,,,,,,,,,,,,,,,,,,60feedc9ecfddadc0746e98f,61036c1c7d4c69350054cb29,2021-07-29_20h06.00.898,Simcolourproject_2stim_asymm_v5,2020.2.10,Win32,60,61025ae37ef11b136ea224fe,,,,,,,,,1917,85,27,1,0,0,response1disk,,6,6,-2,1,0,0,rectangle,6,-2,1,0,0,6,-2,1,0,0,0,51,51,91,1,,,,,,,,
,,,,,,,,,,,,,FF,,,,,,,,1.0851,,,,,,,,,,,,,,,,,,,,,,60feedc9ecfddadc0746e98f,61036c1c7d4c69350054cb29,2021-07-29_20h06.00.898,Simcolourproject_2stim_asymm_v5,2020.2.10,Win32,60,61025ae37ef11b136ea224fe,,,,,,,,,2455,88.5,39.5,1,0,0,response1disk,,6,-4,-4,1,0,0,rectangle,-4,-4,1,0,0,-4,-4,1,0,0,0,52,52,39,1,,,,,,,,
,,,,,,,,,,,,,FF,,,,,,,,1.1311,,,,,,,,,,,,,,,,,,,,,,60feedc9ecfddadc0746e98f,61036c1c7d4c69350054cb29,2021-07-29_20h06.00.898,Simcolourproject_2stim_asymm_v5,2020.2.10,Win32,60,61025ae37ef11b136ea224fe,,,,,,,,,475,87.5,-39,1,0,0,response3disk,,5,-1.5,8.5,1,0,0,rectangle,-1.5,8.5,1,0,0,-1.5,8.5,1,0,0,0,53,53,55,1,,,,,,,,
,,,,,,,,,,,,,FF,,,,,,,,1.2026,,,,,,,,,,,,,,,,,,,,,,60feedc9ecfddadc0746e98f,61036c1c7d4c69350054cb29,2021-07-29_20h06.00.898,Simcolourproject_2stim_asymm_v5,2020.2.10,Win32,60,61025ae37ef11b136ea224fe,,,,,,,,,2375,89.5,-36.5,1,0,0,response3disk,,5,-11,13,1,0,0,rectangle,-11,13,1,0,0,-11,13,1,0,0,0,54,54,3,1,,,,,,,,
,,,,,,,,,,,,,FF,,,,,,,,5.7733,,,,,,,,,,,,,,,,,,,,,,60feedc9ecfddadc0746e98f,61036c1c7d4c69350054cb29,2021-07-29_20h06.00.898,Simcolourproject_2stim_asymm_v5,2020.2.10,Win32,60,61025ae37ef11b136ea224fe,,,,,,,,,745,65,56,1,0,0,response1disk,,6,-16,5,1,0,0,rectangle,-16,5,1,0,0,-16,5,1,0,0,0,55,55,28,1,,,,,,,,
,,,,,,,,,,,,,FF,,,,,,,,2.8692,,,,,,,,,,,,,,,,,,,,,,60feedc9ecfddadc0746e98f,61036c1c7d4c69350054cb29,2021-07-29_20h06.00.898,Simcolourproject_2stim_asymm_v5,2020.2.10,Win32,60,61025ae37ef11b136ea224fe,,,,,,,,,4158,87,34,1,0,0,response1disk,,6,-6.5,13.5,1,0,0,rectangle,-6.5,13.5,1,0,0,-6.5,13.5,1,0,0,0,56,56,58,1,,,,,,,,
,,,,,,,,,,,,,FF,,,,,,,,1.1374,,,,,,,,,,,,,,,,,,,,,,60feedc9ecfddadc0746e98f,61036c1c7d4c69350054cb29,2021-07-29_20h06.00.898,Simcolourproject_2stim_asymm_v5,2020.2.10,Win32,60,61025ae37ef11b136ea224fe,,,,,,,,,941,38.5,92,1,0,0,response1disk,,7,-17.5,5,1,0,0,rectangle,-17.5,5,1,0,0,-17.5,5,1,0,0,0,57,57,63,1,,,,,,,,
,,,,,,,,,,,,,FF,,,,,,,,1.5008,,,,,,,,,,,,,,,,,,,,,,60feedc9ecfddadc0746e98f,61036c1c7d4c69350054cb29,2021-07-29_20h06.00.898,Simcolourproject_2stim_asymm_v5,2020.2.10,Win32,60,61025ae37ef11b136ea224fe,,,,,,,,,3269,32.5,107.5,1,0,0,response1disk,,7,-5.5,3.5,1,0,0,rectangle,46,-90,1,0,0,0.5,1.5,1,0,0,0,58,58,115,1,,response3disk_3,TRUE,4,4,"[73,117,133,265,64,21,236,238,277,160,112,313,20,185,5,84,199,59,249,265]",1.6709,rectangle
,,,,,,,,,,,,,FF,,,,,,,,2.7021,,,,,,,,,,,,,,,,,,,,,,60feedc9ecfddadc0746e98f,61036c1c7d4c69350054cb29,2021-07-29_20h06.00.898,Simcolourproject_2stim_asymm_v5,2020.2.10,Win32,60,61025ae37ef11b136ea224fe,,,,,,,,,2400,59.5,94.5,1,0,0,response1disk,,7,9,9,1,0,0,rectangle,9,9,1,0,0,9,9,1,0,0,0,59,59,79,1,,,,,,,,
,,,,,,,,,,,,,FF,,,,,,,,1.9185,,,,,,,,,,,,,,,,,,,,,,60feedc9ecfddadc0746e98f,61036c1c7d4c69350054cb29,2021-07-29_20h06.00.898,Simcolourproject_2stim_asymm_v5,2020.2.10,Win32,60,61025ae37ef11b136ea224fe,,,,,,,,,1976,84.5,34.5,1,0,0,response1disk,,6,-7,3,1,0,0,rectangle,-7,3,1,0,0,-7,3,1,0,0,0,60,60,153,1,,,,,,,,
,,,,,,,,,,,,,FF,,,,,,,,2.2361,,,,,,,,,,,,,,,,,,,,,,60feedc9ecfddadc0746e98f,61036c1c7d4c69350054cb29,2021-07-29_20h06.00.898,Simcolourproject_2stim_asymm_v5,2020.2.10,Win32,60,61025ae37ef11b136ea224fe,,,,,,,,,1543,75,32,1,0,0,response1disk,,6,4.5,14,1,0,0,rectangle,4.5,14,1,0,0,4.5,14,1,0,0,0,61,61,90,1,,,,,,,,
,,,,,,,,,,,,,FF,,,,,,,,2.6294,,,,,,,,,,,,,,,,,,,,,,60feedc9ecfddadc0746e98f,61036c1c7d4c69350054cb29,2021-07-29_20h06.00.898,Simcolourproject_2stim_asymm_v5,2020.2.10,Win32,60,61025ae37ef11b136ea224fe,,,,,,,,,4092,71.5,44,1,0,0,response1disk,,6,2,6.5,1,0,0,rectangle,2,6.5,1,0,0,2,6.5,1,0,0,0,62,62,100,1,,,,,,,,
,,,,,,,,,,,,,FF,,,,,,,,1.9509,,,,,,,,,,,,,,,,,,,,,,60feedc9ecfddadc0746e98f,61036c1c7d4c69350054cb29,2021-07-29_20h06.00.898,Simcolourproject_2stim_asymm_v5,2020.2.10,Win32,60,61025ae37ef11b136ea224fe,,,,,,,,,1847,81,63,1,0,0,response1disk,,6,0,-0.5,1,0,0,rectangle,-83,36.5,1,0,0,-13,1,1,0,0,0,63,63,128,1,,response7disk_3,TRUE,1,1,"[73,117,133,265,64,21,236,238,277,160,112,313,20,185,5,84,199,59,249,265]",1.6503,rectangle
,,,,,,,,,,,,,FF,,,,,,,,1.2934,,,,,,,,,,,,,,,,,,,,,,60feedc9ecfddadc0746e98f,61036c1c7d4c69350054cb29,2021-07-29_20h06.00.898,Simcolourproject_2stim_asymm_v5,2020.2.10,Win32,60,61025ae37ef11b136ea224fe,,,,,,,,,3589,-56.5,97,1,0,0,response7disk,,0,0.5,-4.5,1,0,0,rectangle,0.5,-4.5,1,0,0,0.5,-4.5,1,0,0,0,64,64,49,1,,,,,,,,
,,,,,,,,,,,,,FF,,,,,,,,10.8178,,,,,,,,,,,,,,,,,,,,,,60feedc9ecfddadc0746e98f,61036c1c7d4c69350054cb29,2021-07-29_20h06.00.898,Simcolourproject_2stim_asymm_v5,2020.2.10,Win32,60,61025ae37ef11b136ea224fe,,,,,,,,,63,49.5,67.5,1,0,0,response1disk,,7,5,-5,1,0,0,rectangle,5,-5,1,0,0,5,-5,1,0,0,0,65,65,80,1,,,,,,,,
,,,,,,,,,,,,,FF,,,,,,,,2.1531,,,,,,,,,,,,,,,,,,,,,,60feedc9ecfddadc0746e98f,61036c1c7d4c69350054cb29,2021-07-29_20h06.00.898,Simcolourproject_2stim_asymm_v5,2020.2.10,Win32,60,61025ae37ef11b136ea224fe,,,,,,,,,2286,71,35,1,0,0,response1disk,,6,-9,2,1,0,0,rectangle,-9,2,1,0,0,-9,2,1,0,0,0,66,66,20,1,,,,,,,,
,,,,,,,,,,,,,FF,,,,,,,,2.254,,,,,,,,,,,,,,,,,,,,,,60feedc9ecfddadc0746e98f,61036c1c7d4c69350054cb29,2021-07-29_20h06.00.898,Simcolourproject_2stim_asymm_v5,2020.2.10,Win32,60,61025ae37ef11b136ea224fe,,,,,,,,,2608,-62.5,-37.5,1,0,0,response5disk,,2,0.5,-7.5,1,0,0,rectangle,0.5,-7.5,1,0,0,0.5,-7.5,1,0,0,0,67,67,92,1,,,,,,,,
,,,,,,,,,,,,,FF,,,,,,,,2.1703,,,,,,,,,,,,,,,,,,,,,,60feedc9ecfddadc0746e98f,61036c1c7d4c69350054cb29,2021-07-29_20h06.00.898,Simcolourproject_2stim_asymm_v5,2020.2.10,Win32,60,61025ae37ef11b136ea224fe,,,,,,,,,850,28,108.5,1,0,0,response1disk,,7,4,5,1,0,0,rectangle,4,5,1,0,0,4,5,1,0,0,0,68,68,50,1,,,,,,,,
,,,,,,,,,,,,,FF,,,,,,,,2.8895,,,,,,,,,,,,,,,,,,,,,,60feedc9ecfddadc0746e98f,61036c1c7d4c69350054cb29,2021-07-29_20h06.00.898,Simcolourproject_2stim_asymm_v5,2020.2.10,Win32,60,61025ae37ef11b136ea224fe,,,,,,,,,1401,67.5,75.5,1,0,0,response1disk,,7,6.5,2.5,1,0,0,rectangle,6.5,2.5,1,0,0,6.5,2.5,1,0,0,0,69,69,47,1,,,,,,,,
,,,,,,,,,,,,,FF,,,,,,,,1.2871,,,,,,,,,,,,,,,,,,,,,,60feedc9ecfddadc0746e98f,61036c1c7d4c69350054cb29,2021-07-29_20h06.00.898,Simcolourproject_2stim_asymm_v5,2020.2.10,Win32,60,61025ae37ef11b136ea224fe,,,,,,,,,2618,64,33,1,0,0,response1disk,,6,5.5,2.5,1,0,0,rectangle,5.5,2.5,1,0,0,5.5,2.5,1,0,0,0,70,70,125,1,,,,,,,,
,,,,,,,,,,,,,FF,,,,,,,,1.3041,,,,,,,,,,,,,,,,,,,,,,60feedc9ecfddadc0746e98f,61036c1c7d4c69350054cb29,2021-07-29_20h06.00.898,Simcolourproject_2stim_asymm_v5,2020.2.10,Win32,60,61025ae37ef11b136ea224fe,,,,,,,,,881,91,43.5,1,0,0,response1disk,,6,2.5,3.5,1,0,0,rectangle,2.5,3.5,1,0,0,2.5,3.5,1,0,0,0,71,71,32,1,,,,,,,,
,,,,,,,,,,,,,FF,,,,,,,,0.9445,,,,,,,,,,,,,,,,,,,,,,60feedc9ecfddadc0746e98f,61036c1c7d4c69350054cb29,2021-07-29_20h06.00.898,Simcolourproject_2stim_asymm_v5,2020.2.10,Win32,60,61025ae37ef11b136ea224fe,,,,,,,,,3507,98.5,-55,1,0,0,response3disk,,5,-6,-5,1,0,0,rectangle,-71.5,57,1,0,0,-17,7,1,0,0,0,72,72,123,1,,response7disk_3,TRUE,1,1,"[73,117,133,265,64,21,236,238,277,160,112,313,20,185,5,84,199,59,249,265]",1.5423,rectangle
,,,,,,,,,,,,,FF,,,,,,,,1.0175,,,,,,,,,,,,,,,,,,,,,,60feedc9ecfddadc0746e98f,61036c1c7d4c69350054cb29,2021-07-29_20h06.00.898,Simcolourproject_2stim_asymm_v5,2020.2.10,Win32,60,61025ae37ef11b136ea224fe,,,,,,,,,775,46.5,76.5,1,0,0,response1disk,,7,13,0.5,1,0,0,rectangle,13,0.5,1,0,0,13,0.5,1,0,0,0,73,73,103,1,,,,,,,,
,,,,,,,,,,,,,FF,,,,,,,,1.7991,,,,,,,,,,,,,,,,,,,,,,60feedc9ecfddadc0746e98f,61036c1c7d4c69350054cb29,2021-07-29_20h06.00.898,Simcolourproject_2stim_asymm_v5,2020.2.10,Win32,60,61025ae37ef11b136ea224fe,,,,,,,,,1404,98,32.5,1,0,0,response1disk,,6,3.5,9.5,1,0,0,rectangle,3.5,9.5,1,0,0,3.5,9.5,1,0,0,0,74,74,54,1,,,,,,,,
,,,,,,,,,,,,,FF,,,,,,,,1.5035,,,,,,,,,,,,,,,,,,,,,,60feedc9ecfddadc0746e98f,61036c1c7d4c69350054cb29,2021-07-29_20h06.00.898,Simcolourproject_2stim_asymm_v5,2020.2.10,Win32,60,61025ae37ef11b136ea224fe,,,,,,,,,3920,58,-93.5,1,0,0,response3disk,,4,0.5,-2,1,0,0,rectangle,0.5,-2,1,0,0,0.5,-2,1,0,0,0,75,75,16,1,,,,,,,,
,,,,,,,,,,,,,FF,,,,,,,,0.8621,,,,,,,,,,,,,,,,,,,,,,60feedc9ecfddadc0746e98f,61036c1c7d4c69350054cb29,2021-07-29_20h06.00.898,Simcolourproject_2stim_asymm_v5,2020.2.10,Win32,60,61025ae37ef11b136ea224fe,,,,,,,,,2457,39,52.5,1,0,0,response1disk,,7,2.5,4,1,0,0,rectangle,2.5,4,1,0,0,2.5,4,1,0,0,0,76,76,146,1,,,,,,,,
,,,,,,,,,,,,,FF,,,,,,,,1.6279,,,,,,,,,,,,,,,,,,,,,,60feedc9ecfddadc0746e98f,61036c1c7d4c69350054cb29,2021-07-29_20h06.00.898,Simcolourproject_2stim_asymm_v5,2020.2.10,Win32,60,61025ae37ef11b136ea224fe,,,,,,,,,923,48,31,1,0,0,response1disk,,6,-10,-8,1,0,0,rectangle,-10,-8,1,0,0,-10,-8,1,0,0,0,77,77,61,1,,,,,,,,
,,,,,,,,,,,,,FF,,,,,,,,1.177,,,,,,,,,,,,,,,,,,,,,,60feedc9ecfddadc0746e98f,61036c1c7d4c69350054cb29,2021-07-29_20h06.00.898,Simcolourproject_2stim_asymm_v5,2020.2.10,Win32,60,61025ae37ef11b136ea224fe,,,,,,,,,4154,41.5,66.5,1,0,0,response1disk,,7,-2,10.5,1,0,0,rectangle,-2,10.5,1,0,0,-2,10.5,1,0,0,0,78,78,23,1,,,,,,,,
,,,,,,,,,,,,,FF,,,,,,,,2.2771,,,,,,,,,,,,,,,,,,,,,,60feedc9ecfddadc0746e98f,61036c1c7d4c69350054cb29,2021-07-29_20h06.00.898,Simcolourproject_2stim_asymm_v5,2020.2.10,Win32,60,61025ae37ef11b136ea224fe,,,,,,,,,4364,-72,-55.5,1,0,0,response5disk,,2,1.5,-4.5,1,0,0,rectangle,1.5,-4.5,1,0,0,1.5,-4.5,1,0,0,0,79,79,68,1,,,,,,,,
,,,,,,,,,,,,,FF,,,,,,,,2.9385,,,,,,,,,,,,,,,,,,,,,,60feedc9ecfddadc0746e98f,61036c1c7d4c69350054cb29,2021-07-29_20h06.00.898,Simcolourproject_2stim_asymm_v5,2020.2.10,Win32,60,61025ae37ef11b136ea224fe,,,,,,,,,1496,40,98.5,1,0,0,response1disk,,7,-7.5,-3,1,0,0,rectangle,-7.5,-3,1,0,0,-7.5,-3,1,0,0,0,80,80,129,1,,,,,,,,
,,,,,,,,,,,,,FF,,,,,,,,1.4843,,,,,,,,,,,,,,,,,,,,,,60feedc9ecfddadc0746e98f,61036c1c7d4c69350054cb29,2021-07-29_20h06.00.898,Simcolourproject_2stim_asymm_v5,2020.2.10,Win32,60,61025ae37ef11b136ea224fe,,,,,,,,,3107,22,-63.5,1,0,0,response3disk,,4,-13.5,15,1,0,0,rectangle,-13.5,15,1,0,0,-13.5,15,1,0,0,0,81,81,40,1,,,,,,,,
,,,,,,,,,,,,,FF,,,,,,,,0.7828,,,,,,,,,,,,,,,,,,,,,,60feedc9ecfddadc0746e98f,61036c1c7d4c69350054cb29,2021-07-29_20h06.00.898,Simcolourproject_2stim_asymm_v5,2020.2.10,Win32,60,61025ae37ef11b136ea224fe,,,,,,,,,3742,-62.5,83.5,1,0,0,response7disk,,0,-19,5.5,1,0,0,rectangle,-19,5.5,1,0,0,-19,5.5,1,0,0,0,82,82,86,1,,,,,,,,
,,,,,,,,,,,,,FF,,,,,,,,1.5547,,,,,,,,,,,,,,,,,,,,,,60feedc9ecfddadc0746e98f,61036c1c7d4c69350054cb29,2021-07-29_20h06.00.898,Simcolourproject_2stim_asymm_v5,2020.2.10,Win32,60,61025ae37ef11b136ea224fe,,,,,,,,,398,49.5,86,1,0,0,response1disk,,7,6,7.5,1,0,0,rectangle,-80,34,1,0,0,1.5,-6,1,0,0,0,83,83,24,1,,response7disk_3,TRUE,1,1,"[73,117,133,265,64,21,236,238,277,160,112,313,20,185,5,84,199,59,249,265]",1.1878,rectangle
,,,,,,,,,,,,,FF,,,,,,,,0.8512,,,,,,,,,,,,,,,,,,,,,,60feedc9ecfddadc0746e98f,61036c1c7d4c69350054cb29,2021-07-29_20h06.00.898,Simcolourproject_2stim_asymm_v5,2020.2.10,Win32,60,61025ae37ef11b136ea224fe,,,,,,,,,1096,35.5,96.5,1,0,0,response1disk,,7,10.5,-3,1,0,0,rectangle,10.5,-3,1,0,0,10.5,-3,1,0,0,0,84,84,66,1,,,,,,,,
,,,,,,,,,,,,,FF,,,,,,,,1.1026,,,,,,,,,,,,,,,,,,,,,,60feedc9ecfddadc0746e98f,61036c1c7d4c69350054cb29,2021-07-29_20h06.00.898,Simcolourproject_2stim_asymm_v5,2020.2.10,Win32,60,61025ae37ef11b136ea224fe,,,,,,,,,4168,-71,30,1,0,0,response7disk,,1,-10,2.5,1,0,0,rectangle,-10,2.5,1,0,0,-10,2.5,1,0,0,0,85,85,15,1,,,,,,,,
,,,,,,,,,,,,,FF,,,,,,,,2.3023,,,,,,,,,,,,,,,,,,,,,,60feedc9ecfddadc0746e98f,61036c1c7d4c69350054cb29,2021-07-29_20h06.00.898,Simcolourproject_2stim_asymm_v5,2020.2.10,Win32,60,61025ae37ef11b136ea224fe,,,,,,,,,2014,37.5,75.5,1,0,0,response1disk,,7,-1.5,13,1,0,0,rectangle,-1.5,13,1,0,0,-1.5,13,1,0,0,0,86,86,8,1,,,,,,,,
,,,,,,,,,,,,,FF,,,,,,,,1.6374,,,,,,,,,,,,,,,,,,,,,,60feedc9ecfddadc0746e98f,61036c1c7d4c69350054cb29,2021-07-29_20h06.00.898,Simcolourproject_2stim_asymm_v5,2020.2.10,Win32,60,61025ae37ef11b136ea224fe,,,,,,,,,3137,54.5,73,1,0,0,response1disk,,7,9.5,-2,1,0,0,rectangle,9.5,-2,1,0,0,9.5,-2,1,0,0,0,87,87,104,1,,,,,,,,
,,,,,,,,,,,,,FF,,,,,,,,1.2035,,,,,,,,,,,,,,,,,,,,,,60feedc9ecfddadc0746e98f,61036c1c7d4c69350054cb29,2021-07-29_20h06.00.898,Simcolourproject_2stim_asymm_v5,2020.2.10,Win32,60,61025ae37ef11b136ea224fe,,,,,,,,,454,36.5,56.5,1,0,0,response1disk,,7,15.5,-2.5,1,0,0,rectangle,15.5,-2.5,1,0,0,15.5,-2.5,1,0,0,0,88,88,85,1,,,,,,,,
,,,,,,,,,,,,,FF,,,,,,,,1.1111,,,,,,,,,,,,,,,,,,,,,,60feedc9ecfddadc0746e98f,61036c1c7d4c69350054cb29,2021-07-29_20h06.00.898,Simcolourproject_2stim_asymm_v5,2020.2.10,Win32,60,61025ae37ef11b136ea224fe,,,,,,,,,1767,80.5,45.5,1,0,0,response1disk,,6,-4,15,1,0,0,rectangle,-4,15,1,0,0,-4,15,1,0,0,0,89,89,75,1,,,,,,,,
,,,,,,,,,,,,,FF,,,,,,,,1.4347,,,,,,,,,,,,,,,,,,,,,,60feedc9ecfddadc0746e98f,61036c1c7d4c69350054cb29,2021-07-29_20h06.00.898,Simcolourproject_2stim_asymm_v5,2020.2.10,Win32,60,61025ae37ef11b136ea224fe,,,,,,,,,597,43.5,62,1,0,0,response1disk,,7,-2,-6,1,0,0,rectangle,-2,-6,1,0,0,-2,-6,1,0,0,0,90,90,114,1,,,,,,,,
,,,,,,,,,,,,,FF,,,,,,,,1.1849,,,,,,,,,,,,,,,,,,,,,,60feedc9ecfddadc0746e98f,61036c1c7d4c69350054cb29,2021-07-29_20h06.00.898,Simcolourproject_2stim_asymm_v5,2020.2.10,Win32,60,61025ae37ef11b136ea224fe,,,,,,,,,2820,40.5,89,1,0,0,response1disk,,7,6.5,-3.5,1,0,0,rectangle,6.5,-3.5,1,0,0,6.5,-3.5,1,0,0,0,91,91,10,1,,,,,,,,
,,,,,,,,,,,,,FF,,,,,,,,1.0183,,,,,,,,,,,,,,,,,,,,,,60feedc9ecfddadc0746e98f,61036c1c7d4c69350054cb29,2021-07-29_20h06.00.898,Simcolourproject_2stim_asymm_v5,2020.2.10,Win32,60,61025ae37ef11b136ea224fe,,,,,,,,,147,31.5,54.5,1,0,0,response1disk,,7,9.5,3,1,0,0,rectangle,9.5,3,1,0,0,9.5,3,1,0,0,0,92,92,87,1,,,,,,,,
,,,,,,,,,,,,,FF,,,,,,,,0.8171,,,,,,,,,,,,,,,,,,,,,,60feedc9ecfddadc0746e98f,61036c1c7d4c69350054cb29,2021-07-29_20h06.00.898,Simcolourproject_2stim_asymm_v5,2020.2.10,Win32,60,61025ae37ef11b136ea224fe,,,,,,,,,3906,-37,61,1,0,0,response7disk,,0,2,6.5,1,0,0,rectangle,2,6.5,1,0,0,2,6.5,1,0,0,0,93,93,143,1,,,,,,,,
,,,,,,,,,,,,,FF,,,,,,,,1.7678,,,,,,,,,,,,,,,,,,,,,,60feedc9ecfddadc0746e98f,61036c1c7d4c69350054cb29,2021-07-29_20h06.00.898,Simcolourproject_2stim_asymm_v5,2020.2.10,Win32,60,61025ae37ef11b136ea224fe,,,,,,,,,4173,62.5,39,1,0,0,response1disk,,6,0,-5.5,1,0,0,rectangle,0,-5.5,1,0,0,0,-5.5,1,0,0,0,94,94,51,1,,,,,,,,
,,,,,,,,,,,,,FF,,,,,,,,1.3184,,,,,,,,,,,,,,,,,,,,,,60feedc9ecfddadc0746e98f,61036c1c7d4c69350054cb29,2021-07-29_20h06.00.898,Simcolourproject_2stim_asymm_v5,2020.2.10,Win32,60,61025ae37ef11b136ea224fe,,,,,,,,,3051,61.5,-38.5,1,0,0,response3disk,,5,6,0,1,0,0,rectangle,6,0,1,0,0,6,0,1,0,0,0,95,95,112,1,,,,,,,,
,,,,,,,,,,,,,FF,,,,,,,,1.1578,,,,,,,,,,,,,,,,,,,,,,60feedc9ecfddadc0746e98f,61036c1c7d4c69350054cb29,2021-07-29_20h06.00.898,Simcolourproject_2stim_asymm_v5,2020.2.10,Win32,60,61025ae37ef11b136ea224fe,,,,,,,,,2501,67,-38.5,1,0,0,response3disk,,5,-22,9.5,1,0,0,rectangle,-22,9.5,1,0,0,-22,9.5,1,0,0,0,96,96,134,1,,,,,,,,
,,,,,,,,,,,,,FF,,,,,,,,0.9839,,,,,,,,,,,,,,,,,,,,,,60feedc9ecfddadc0746e98f,61036c1c7d4c69350054cb29,2021-07-29_20h06.00.898,Simcolourproject_2stim_asymm_v5,2020.2.10,Win32,60,61025ae37ef11b136ea224fe,,,,,,,,,2638,48,56,1,0,0,response1disk,,7,7,-6,1,0,0,rectangle,7,-6,1,0,0,7,-6,1,0,0,0,97,97,101,1,,,,,,,,
,,,,,,,,,,,,,FF,,,,,,,,1.0231,,,,,,,,,,,,,,,,,,,,,,60feedc9ecfddadc0746e98f,61036c1c7d4c69350054cb29,2021-07-29_20h06.00.898,Simcolourproject_2stim_asymm_v5,2020.2.10,Win32,60,61025ae37ef11b136ea224fe,,,,,,,,,2891,65,-34,1,0,0,response3disk,,5,4.5,7,1,0,0,rectangle,4.5,7,1,0,0,4.5,7,1,0,0,0,98,98,73,1,,,,,,,,
,,,,,,,,,,,,,FF,,,,,,,,1.186,,,,,,,,,,,,,,,,,,,,,,60feedc9ecfddadc0746e98f,61036c1c7d4c69350054cb29,2021-07-29_20h06.00.898,Simcolourproject_2stim_asymm_v5,2020.2.10,Win32,60,61025ae37ef11b136ea224fe,,,,,,,,,1007,35,66,1,0,0,response1disk,,7,1.5,1.5,1,0,0,rectangle,1.5,1.5,1,0,0,1.5,1.5,1,0,0,0,99,99,97,1,,,,,,,,
,,,,,,,,,,,,,FF,,,,,,,,1.0712,,,,,,,,,,,,,,,,,,,,,,60feedc9ecfddadc0746e98f,61036c1c7d4c69350054cb29,2021-07-29_20h06.00.898,Simcolourproject_2stim_asymm_v5,2020.2.10,Win32,60,61025ae37ef11b136ea224fe,,,,,,,,,296,28.5,58.5,1,0,0,response1disk,,7,0.5,-8.5,1,0,0,rectangle,0.5,-8.5,1,0,0,0.5,-8.5,1,0,0,0,100,100,46,1,,,,,,,,
,,,,,,,,,,,,,FF,,,,,,,,0.9609,,,,,,,,,,,,,,,,,,,,,,60feedc9ecfddadc0746e98f,61036c1c7d4c69350054cb29,2021-07-29_20h06.00.898,Simcolourproject_2stim_asymm_v5,2020.2.10,Win32,60,61025ae37ef11b136ea224fe,,,,,,,,,1357,74.5,50.5,1,0,0,response1disk,,6,0,0,1,0,0,rectangle,0,0,1,0,0,0,0,1,0,0,0,101,101,147,1,,,,,,,,
,,,,,,,,,,,,,FF,,,,,,,,2.0951,,,,,,,,,,,,,,,,,,,,,,60feedc9ecfddadc0746e98f,61036c1c7d4c69350054cb29,2021-07-29_20h06.00.898,Simcolourproject_2stim_asymm_v5,2020.2.10,Win32,60,61025ae37ef11b136ea224fe,,,,,,,,,755,42,21.5,1,0,0,response1disk,,6,-18.5,7,1,0,0,rectangle,-18.5,7,1,0,0,-18.5,7,1,0,0,0,102,102,107,1,,,,,,,,
,,,,,,,,,,,,,FF,,,,,,,,1.127,,,,,,,,,,,,,,,,,,,,,,60feedc9ecfddadc0746e98f,61036c1c7d4c69350054cb29,2021-07-29_20h06.00.898,Simcolourproject_2stim_asymm_v5,2020.2.10,Win32,60,61025ae37ef11b136ea224fe,,,,,,,,,1055,67.5,-35,1,0,0,response3disk,,5,-0.5,4,1,0,0,rectangle,-0.5,4,1,0,0,-0.5,4,1,0,0,0,103,103,118,1,,,,,,,,
,,,,,,,,,,,,,FF,,,,,,,,3.8618,,,,,,,,,,,,,,,,,,,,,,60feedc9ecfddadc0746e98f,61036c1c7d4c69350054cb29,2021-07-29_20h06.00.898,Simcolourproject_2stim_asymm_v5,2020.2.10,Win32,60,61025ae37ef11b136ea224fe,,,,,,,,,2395,52,21,1,0,0,response1disk,,6,-9,-7.5,1,0,0,rectangle,-9,-7.5,1,0,0,-9,-7.5,1,0,0,0,104,104,2,1,,,,,,,,
,,,,,,,,,,,,,FF,,,,,,,,1.8585,,,,,,,,,,,,,,,,,,,,,,60feedc9ecfddadc0746e98f,61036c1c7d4c69350054cb29,2021-07-29_20h06.00.898,Simcolourproject_2stim_asymm_v5,2020.2.10,Win32,60,61025ae37ef11b136ea224fe,,,,,,,,,427,61.5,-43.5,1,0,0,response3disk,,5,-15,9,1,0,0,rectangle,-15,9,1,0,0,-15,9,1,0,0,0,105,105,116,1,,,,,,,,
,,,,,,,,,,,,,FF,,,,,,,,2.3777,,,,,,,,,,,,,,,,,,,,,,60feedc9ecfddadc0746e98f,61036c1c7d4c69350054cb29,2021-07-29_20h06.00.898,Simcolourproject_2stim_asymm_v5,2020.2.10,Win32,60,61025ae37ef11b136ea224fe,,,,,,,,,1777,74,34,1,0,0,response1disk,,6,3.5,3,1,0,0,rectangle,3.5,3,1,0,0,3.5,3,1,0,0,0,106,106,71,1,,,,,,,,
,,,,,,,,,,,,,FF,,,,,,,,1.1528,,,,,,,,,,,,,,,,,,,,,,60feedc9ecfddadc0746e98f,61036c1c7d4c69350054cb29,2021-07-29_20h06.00.898,Simcolourproject_2stim_asymm_v5,2020.2.10,Win32,60,61025ae37ef11b136ea224fe,,,,,,,,,320,40.5,64.5,1,0,0,response1disk,,7,10,2.5,1,0,0,rectangle,10,2.5,1,0,0,10,2.5,1,0,0,0,107,107,89,1,,,,,,,,
,,,,,,,,,,,,,FF,,,,,,,,0.9763,,,,,,,,,,,,,,,,,,,,,,60feedc9ecfddadc0746e98f,61036c1c7d4c69350054cb29,2021-07-29_20h06.00.898,Simcolourproject_2stim_asymm_v5,2020.2.10,Win32,60,61025ae37ef11b136ea224fe,,,,,,,,,3220,38.5,83.5,1,0,0,response1disk,,7,14.5,9.5,1,0,0,rectangle,14.5,9.5,1,0,0,14.5,9.5,1,0,0,0,108,108,127,1,,,,,,,,
,,,,,,,,,,,,,FF,,,,,,,,2.3545,,,,,,,,,,,,,,,,,,,,,,60feedc9ecfddadc0746e98f,61036c1c7d4c69350054cb29,2021-07-29_20h06.00.898,Simcolourproject_2stim_asymm_v5,2020.2.10,Win32,60,61025ae37ef11b136ea224fe,,,,,,,,,3747,-83,35.5,1,0,0,response7disk,,1,20.5,1,1,0,0,rectangle,20.5,1,1,0,0,20.5,1,1,0,0,0,109,109,30,1,,,,,,,,
,,,,,,,,,,,,,FF,,,,,,,,1.3795,,,,,,,,,,,,,,,,,,,,,,60feedc9ecfddadc0746e98f,61036c1c7d4c69350054cb29,2021-07-29_20h06.00.898,Simcolourproject_2stim_asymm_v5,2020.2.10,Win32,60,61025ae37ef11b136ea224fe,,,,,,,,,623,64,34,1,0,0,response1disk,,6,0,0,1,0,0,rectangle,0,0,1,0,0,0,0,1,0,0,0,110,110,4,1,,,,,,,,
,,,,,,,,,,,,,FF,,,,,,,,1.1688,,,,,,,,,,,,,,,,,,,,,,60feedc9ecfddadc0746e98f,61036c1c7d4c69350054cb29,2021-07-29_20h06.00.898,Simcolourproject_2stim_asymm_v5,2020.2.10,Win32,60,61025ae37ef11b136ea224fe,,,,,,,,,3421,52,70.5,1,0,0,response1disk,,7,5,9,1,0,0,rectangle,49.5,40.5,1,0,0,-5.5,10,1,0,0,0,111,111,142,1,,response1disk_3,TRUE,6,6,"[73,117,133,265,64,21,236,238,277,160,112,313,20,185,5,84,199,59,249,265]",1.7668,rectangle
,,,,,,,,,,,,,FF,,,,,,,,2.0271,,,,,,,,,,,,,,,,,,,,,,60feedc9ecfddadc0746e98f,61036c1c7d4c69350054cb29,2021-07-29_20h06.00.898,Simcolourproject_2stim_asymm_v5,2020.2.10,Win32,60,61025ae37ef11b136ea224fe,,,,,,,,,501,49,63.5,1,0,0,response1disk,,7,6.5,-1,1,0,0,rectangle,6.5,-1,1,0,0,6.5,-1,1,0,0,0,112,112,59,1,,,,,,,,
,,,,,,,,,,,,,FF,,,,,,,,1.3591,,,,,,,,,,,,,,,,,,,,,,60feedc9ecfddadc0746e98f,61036c1c7d4c69350054cb29,2021-07-29_20h06.00.898,Simcolourproject_2stim_asymm_v5,2020.2.10,Win32,60,61025ae37ef11b136ea224fe,,,,,,,,,1218,25,-74.5,1,0,0,response3disk,,4,5,7,1,0,0,rectangle,5,7,1,0,0,5,7,1,0,0,0,113,113,159,1,,,,,,,,
,,,,,,,,,,,,,FF,,,,,,,,2.0096,,,,,,,,,,,,,,,,,,,,,,60feedc9ecfddadc0746e98f,61036c1c7d4c69350054cb29,2021-07-29_20h06.00.898,Simcolourproject_2stim_asymm_v5,2020.2.10,Win32,60,61025ae37ef11b136ea224fe,,,,,,,,,2103,83,35,1,0,0,response1disk,,6,-19,-12,1,0,0,rectangle,-19,-12,1,0,0,-19,-12,1,0,0,0,114,114,96,1,,,,,,,,
,,,,,,,,,,,,,FF,,,,,,,,1.227,,,,,,,,,,,,,,,,,,,,,,60feedc9ecfddadc0746e98f,61036c1c7d4c69350054cb29,2021-07-29_20h06.00.898,Simcolourproject_2stim_asymm_v5,2020.2.10,Win32,60,61025ae37ef11b136ea224fe,,,,,,,,,2830,46,96,1,0,0,response1disk,,7,2.5,-9.5,1,0,0,rectangle,2.5,-9.5,1,0,0,2.5,-9.5,1,0,0,0,115,115,41,1,,,,,,,,
,,,,,,,,,,,,,FF,,,,,,,,6.2323,,,,,,,,,,,,,,,,,,,,,,60feedc9ecfddadc0746e98f,61036c1c7d4c69350054cb29,2021-07-29_20h06.00.898,Simcolourproject_2stim_asymm_v5,2020.2.10,Win32,60,61025ae37ef11b136ea224fe,,,,,,,,,3651,35,76,1,0,0,response1disk,,7,1.5,-1.5,1,0,0,rectangle,56,-82,1,0,0,-1,10.5,1,0,0,0,116,116,74,1,,response3disk_3,TRUE,4,4,"[73,117,133,265,64,21,236,238,277,160,112,313,20,185,5,84,199,59,249,265]",1.6582,rectangle
,,,,,,,,,,,,,FF,,,,,,,,2.7832,,,,,,,,,,,,,,,,,,,,,,60feedc9ecfddadc0746e98f,61036c1c7d4c69350054cb29,2021-07-29_20h06.00.898,Simcolourproject_2stim_asymm_v5,2020.2.10,Win32,60,61025ae37ef11b136ea224fe,,,,,,,,,2879,73.5,26.5,1,0,0,response1disk,,6,3,5,1,0,0,rectangle,3,5,1,0,0,3,5,1,0,0,0,117,117,102,1,,,,,,,,
,,,,,,,,,,,,,FF,,,,,,,,7.1735,,,,,,,,,,,,,,,,,,,,,,60feedc9ecfddadc0746e98f,61036c1c7d4c69350054cb29,2021-07-29_20h06.00.898,Simcolourproject_2stim_asymm_v5,2020.2.10,Win32,60,61025ae37ef11b136ea224fe,,,,,,,,,3616,36.5,60.5,1,0,0,response1disk,,7,-1.5,-1.5,1,0,0,rectangle,-1.5,-1.5,1,0,0,-1.5,-1.5,1,0,0,0,118,118,152,1,,,,,,,,
,,,,,,,,,,,,,FF,,,,,,,,1.384,,,,,,,,,,,,,,,,,,,,,,60feedc9ecfddadc0746e98f,61036c1c7d4c69350054cb29,2021-07-29_20h06.00.898,Simcolourproject_2stim_asymm_v5,2020.2.10,Win32,60,61025ae37ef11b136ea224fe,,,,,,,,,3890,54,34,1,0,0,response1disk,,6,-2,3,1,0,0,rectangle,-2,3,1,0,0,-2,3,1,0,0,0,119,119,82,1,,,,,,,,
,,,,,,,,,,,,,FF,,,,,,,,0.8266,,,,,,,,,,,,,,,,,,,,,,60feedc9ecfddadc0746e98f,61036c1c7d4c69350054cb29,2021-07-29_20h06.00.898,Simcolourproject_2stim_asymm_v5,2020.2.10,Win32,60,61025ae37ef11b136ea224fe,,,,,,,,,251,60.5,38,1,0,0,response1disk,,6,5.5,-9,1,0,0,rectangle,5.5,-9,1,0,0,5.5,-9,1,0,0,0,120,120,111,1,,,,,,,,
,,,,,,,,,,,,,FF,,,,,,,,1.1839,,,,,,,,,,,,,,,,,,,,,,60feedc9ecfddadc0746e98f,61036c1c7d4c69350054cb29,2021-07-29_20h06.00.898,Simcolourproject_2stim_asymm_v5,2020.2.10,Win32,60,61025ae37ef11b136ea224fe,,,,,,,,,3277,42,71,1,0,0,response1disk,,7,3,-5.5,1,0,0,rectangle,3,-5.5,1,0,0,3,-5.5,1,0,0,0,121,121,99,1,,,,,,,,
,,,,,,,,,,,,,FF,,,,,,,,1.0425,,,,,,,,,,,,,,,,,,,,,,60feedc9ecfddadc0746e98f,61036c1c7d4c69350054cb29,2021-07-29_20h06.00.898,Simcolourproject_2stim_asymm_v5,2020.2.10,Win32,60,61025ae37ef11b136ea224fe,,,,,,,,,248,86.5,-29,1,0,0,response3disk,,5,-12,-1,1,0,0,rectangle,-12,-1,1,0,0,-12,-1,1,0,0,0,122,122,81,1,,,,,,,,
,,,,,,,,,,,,,FF,,,,,,,,1.0954,,,,,,,,,,,,,,,,,,,,,,60feedc9ecfddadc0746e98f,61036c1c7d4c69350054cb29,2021-07-29_20h06.00.898,Simcolourproject_2stim_asymm_v5,2020.2.10,Win32,60,61025ae37ef11b136ea224fe,,,,,,,,,15,60,31,1,0,0,response1disk,,6,2,-6.5,1,0,0,rectangle,2,-6.5,1,0,0,2,-6.5,1,0,0,0,123,123,106,1,,,,,,,,
,,,,,,,,,,,,,FF,,,,,,,,1.0514,,,,,,,,,,,,,,,,,,,,,,60feedc9ecfddadc0746e98f,61036c1c7d4c69350054cb29,2021-07-29_20h06.00.898,Simcolourproject_2stim_asymm_v5,2020.2.10,Win32,60,61025ae37ef11b136ea224fe,,,,,,,,,3857,91.5,32,1,0,0,response1disk,,6,2.5,2.5,1,0,0,rectangle,2.5,2.5,1,0,0,2.5,2.5,1,0,0,0,124,124,130,1,,,,,,,,
,,,,,,,,,,,,,FF,,,,,,,,1.7847,,,,,,,,,,,,,,,,,,,,,,60feedc9ecfddadc0746e98f,61036c1c7d4c69350054cb29,2021-07-29_20h06.00.898,Simcolourproject_2stim_asymm_v5,2020.2.10,Win32,60,61025ae37ef11b136ea224fe,,,,,,,,,950,65.5,-24.5,1,0,0,response3disk,,5,-17,4.5,1,0,0,rectangle,-17,4.5,1,0,0,-17,4.5,1,0,0,0,125,125,158,1,,,,,,,,
,,,,,,,,,,,,,FF,,,,,,,,2.0355,,,,,,,,,,,,,,,,,,,,,,60feedc9ecfddadc0746e98f,61036c1c7d4c69350054cb29,2021-07-29_20h06.00.898,Simcolourproject_2stim_asymm_v5,2020.2.10,Win32,60,61025ae37ef11b136ea224fe,,,,,,,,,1077,59,47.5,1,0,0,response1disk,,6,-9,-4.5,1,0,0,rectangle,-9,-4.5,1,0,0,-9,-4.5,1,0,0,0,126,126,42,1,,,,,,,,
,,,,,,,,,,,,,FF,,,,,,,,2.6187,,,,,,,,,,,,,,,,,,,,,,60feedc9ecfddadc0746e98f,61036c1c7d4c69350054cb29,2021-07-29_20h06.00.898,Simcolourproject_2stim_asymm_v5,2020.2.10,Win32,60,61025ae37ef11b136ea224fe,,,,,,,,,1595,44,97,1,0,0,response1disk,,7,-3,2,1,0,0,rectangle,-3,2,1,0,0,-3,2,1,0,0,0,127,127,18,1,,,,,,,,
,,,,,,,,,,,,,FF,,,,,,,,1.1862,,,,,,,,,,,,,,,,,,,,,,60feedc9ecfddadc0746e98f,61036c1c7d4c69350054cb29,2021-07-29_20h06.00.898,Simcolourproject_2stim_asymm_v5,2020.2.10,Win32,60,61025ae37ef11b136ea224fe,,,,,,,,,2238,72.5,35.5,1,0,0,response1disk,,6,2,-7.5,1,0,0,rectangle,2,-7.5,1,0,0,2,-7.5,1,0,0,0,128,128,135,1,,,,,,,,
,,,,,,,,,,,,,FF,,,,,,,,1.2444,,,,,,,,,,,,,,,,,,,,,,60feedc9ecfddadc0746e98f,61036c1c7d4c69350054cb29,2021-07-29_20h06.00.898,Simcolourproject_2stim_asymm_v5,2020.2.10,Win32,60,61025ae37ef11b136ea224fe,,,,,,,,,3151,75.5,-56,1,0,0,response3disk,,5,9,14.5,1,0,0,rectangle,9,14.5,1,0,0,9,14.5,1,0,0,0,129,129,154,1,,,,,,,,
,,,,,,,,,,,,,FF,,,,,,,,1.1185,,,,,,,,,,,,,,,,,,,,,,60feedc9ecfddadc0746e98f,61036c1c7d4c69350054cb29,2021-07-29_20h06.00.898,Simcolourproject_2stim_asymm_v5,2020.2.10,Win32,60,61025ae37ef11b136ea224fe,,,,,,,,,2951,88,-36.5,1,0,0,response3disk,,5,-6.5,6.5,1,0,0,rectangle,-6.5,6.5,1,0,0,-6.5,6.5,1,0,0,0,130,130,57,1,,,,,,,,
,,,,,,,,,,,,,FF,,,,,,,,2.6471,,,,,,,,,,,,,,,,,,,,,,60feedc9ecfddadc0746e98f,61036c1c7d4c69350054cb29,2021-07-29_20h06.00.898,Simcolourproject_2stim_asymm_v5,2020.2.10,Win32,60,61025ae37ef11b136ea224fe,,,,,,,,,3807,66.5,31.5,1,0,0,response1disk,,6,3,6,1,0,0,rectangle,3,6,1,0,0,3,6,1,0,0,0,131,131,88,1,,,,,,,,
,,,,,,,,,,,,,FF,,,,,,,,1.1233,,,,,,,,,,,,,,,,,,,,,,60feedc9ecfddadc0746e98f,61036c1c7d4c69350054cb29,2021-07-29_20h06.00.898,Simcolourproject_2stim_asymm_v5,2020.2.10,Win32,60,61025ae37ef11b136ea224fe,,,,,,,,,717,-77,41,1,0,0,response7disk,,1,1.5,-9.5,1,0,0,rectangle,-86.5,45.5,1,0,0,-3,-1,1,0,0,0,132,132,108,1,,response7disk_3,TRUE,1,1,"[73,117,133,265,64,21,236,238,277,160,112,313,20,185,5,84,199,59,249,265]",1.3263,rectangle
,,,,,,,,,,,,,FF,,,,,,,,1.5053,,,,,,,,,,,,,,,,,,,,,,60feedc9ecfddadc0746e98f,61036c1c7d4c69350054cb29,2021-07-29_20h06.00.898,Simcolourproject_2stim_asymm_v5,2020.2.10,Win32,60,61025ae37ef11b136ea224fe,,,,,,,,,3567,58.5,35,1,0,0,response1disk,,6,-4.5,8,1,0,0,rectangle,-4.5,8,1,0,0,-4.5,8,1,0,0,0,133,133,22,1,,,,,,,,
,,,,,,,,,,,,,FF,,,,,,,,2.121,,,,,,,,,,,,,,,,,,,,,,60feedc9ecfddadc0746e98f,61036c1c7d4c69350054cb29,2021-07-29_20h06.00.898,Simcolourproject_2stim_asymm_v5,2020.2.10,Win32,60,61025ae37ef11b136ea224fe,,,,,,,,,2633,33,71,1,0,0,response1disk,,7,-13,4.5,1,0,0,rectangle,-13,4.5,1,0,0,-13,4.5,1,0,0,0,134,134,34,1,,,,,,,,
,,,,,,,,,,,,,FF,,,,,,,,1.3718,,,,,,,,,,,,,,,,,,,,,,60feedc9ecfddadc0746e98f,61036c1c7d4c69350054cb29,2021-07-29_20h06.00.898,Simcolourproject_2stim_asymm_v5,2020.2.10,Win32,60,61025ae37ef11b136ea224fe,,,,,,,,,420,61.5,35,1,0,0,response1disk,,6,8.5,-7,1,0,0,rectangle,8.5,-7,1,0,0,8.5,-7,1,0,0,0,135,135,64,1,,,,,,,,
,,,,,,,,,,,,,FF,,,,,,,,0.8192,,,,,,,,,,,,,,,,,,,,,,60feedc9ecfddadc0746e98f,61036c1c7d4c69350054cb29,2021-07-29_20h06.00.898,Simcolourproject_2stim_asymm_v5,2020.2.10,Win32,60,61025ae37ef11b136ea224fe,,,,,,,,,3355,58,46.5,1,0,0,response1disk,,6,-4.5,-3.5,1,0,0,rectangle,-4.5,-3.5,1,0,0,-4.5,-3.5,1,0,0,0,136,136,121,1,,,,,,,,
,,,,,,,,,,,,,FF,,,,,,,,1.235,,,,,,,,,,,,,,,,,,,,,,60feedc9ecfddadc0746e98f,61036c1c7d4c69350054cb29,2021-07-29_20h06.00.898,Simcolourproject_2stim_asymm_v5,2020.2.10,Win32,60,61025ae37ef11b136ea224fe,,,,,,,,,1745,50,-74,1,0,0,response3disk,,4,-8,6.5,1,0,0,rectangle,-8,6.5,1,0,0,-8,6.5,1,0,0,0,137,137,144,1,,,,,,,,
,,,,,,,,,,,,,FF,,,,,,,,5.5301,,,,,,,,,,,,,,,,,,,,,,60feedc9ecfddadc0746e98f,61036c1c7d4c69350054cb29,2021-07-29_20h06.00.898,Simcolourproject_2stim_asymm_v5,2020.2.10,Win32,60,61025ae37ef11b136ea224fe,,,,,,,,,1588,86,44,1,0,0,response1disk,,6,-2.5,6,1,0,0,rectangle,-2.5,6,1,0,0,-2.5,6,1,0,0,0,138,138,60,1,,,,,,,,
,,,,,,,,,,,,,FF,,,,,,,,1.6143,,,,,,,,,,,,,,,,,,,,,,60feedc9ecfddadc0746e98f,61036c1c7d4c69350054cb29,2021-07-29_20h06.00.898,Simcolourproject_2stim_asymm_v5,2020.2.10,Win32,60,61025ae37ef11b136ea224fe,,,,,,,,,2228,31.5,-73,1,0,0,response3disk,,4,-5,5.5,1,0,0,rectangle,-5,5.5,1,0,0,-5,5.5,1,0,0,0,139,139,52,1,,,,,,,,
,,,,,,,,,,,,,FF,,,,,,,,0.954,,,,,,,,,,,,,,,,,,,,,,60feedc9ecfddadc0746e98f,61036c1c7d4c69350054cb29,2021-07-29_20h06.00.898,Simcolourproject_2stim_asymm_v5,2020.2.10,Win32,60,61025ae37ef11b136ea224fe,,,,,,,,,795,61.5,44.5,1,0,0,response1disk,,6,8,-1.5,1,0,0,rectangle,8,-1.5,1,0,0,8,-1.5,1,0,0,0,140,140,131,1,,,,,,,,
,,,,,,,,,,,,,FF,,,,,,,,0.9848,,,,,,,,,,,,,,,,,,,,,,60feedc9ecfddadc0746e98f,61036c1c7d4c69350054cb29,2021-07-29_20h06.00.898,Simcolourproject_2stim_asymm_v5,2020.2.10,Win32,60,61025ae37ef11b136ea224fe,,,,,,,,,428,78,32,1,0,0,response1disk,,6,-8.5,-7.5,1,0,0,rectangle,-8.5,-7.5,1,0,0,-8.5,-7.5,1,0,0,0,141,141,119,1,,,,,,,,
,,,,,,,,,,,,,FF,,,,,,,,0.9505,,,,,,,,,,,,,,,,,,,,,,60feedc9ecfddadc0746e98f,61036c1c7d4c69350054cb29,2021-07-29_20h06.00.898,Simcolourproject_2stim_asymm_v5,2020.2.10,Win32,60,61025ae37ef11b136ea224fe,,,,,,,,,760,46,92.5,1,0,0,response1disk,,7,-11,-8.5,1,0,0,rectangle,-11,-8.5,1,0,0,-11,-8.5,1,0,0,0,142,142,105,1,,,,,,,,
,,,,,,,,,,,,,FF,,,,,,,,0.935,,,,,,,,,,,,,,,,,,,,,,60feedc9ecfddadc0746e98f,61036c1c7d4c69350054cb29,2021-07-29_20h06.00.898,Simcolourproject_2stim_asymm_v5,2020.2.10,Win32,60,61025ae37ef11b136ea224fe,,,,,,,,,265,88.5,-57.5,1,0,0,response3disk,,5,4,1,1,0,0,rectangle,4,1,1,0,0,4,1,1,0,0,0,143,143,67,1,,,,,,,,
,,,,,,,,,,,,,FF,,,,,,,,0.8459,,,,,,,,,,,,,,,,,,,,,,60feedc9ecfddadc0746e98f,61036c1c7d4c69350054cb29,2021-07-29_20h06.00.898,Simcolourproject_2stim_asymm_v5,2020.2.10,Win32,60,61025ae37ef11b136ea224fe,,,,,,,,,3825,77,26.5,1,0,0,response1disk,,6,3,4.5,1,0,0,rectangle,3,4.5,1,0,0,3,4.5,1,0,0,0,144,144,6,1,,,,,,,,
,,,,,,,,,,,,,FF,,,,,,,,1.2195,,,,,,,,,,,,,,,,,,,,,,60feedc9ecfddadc0746e98f,61036c1c7d4c69350054cb29,2021-07-29_20h06.00.898,Simcolourproject_2stim_asymm_v5,2020.2.10,Win32,60,61025ae37ef11b136ea224fe,,,,,,,,,1568,39.5,73,1,0,0,response1disk,,7,-4.5,3,1,0,0,rectangle,-4.5,3,1,0,0,-4.5,3,1,0,0,0,145,145,78,1,,,,,,,,
,,,,,,,,,,,,,FF,,,,,,,,1.0015,,,,,,,,,,,,,,,,,,,,,,60feedc9ecfddadc0746e98f,61036c1c7d4c69350054cb29,2021-07-29_20h06.00.898,Simcolourproject_2stim_asymm_v5,2020.2.10,Win32,60,61025ae37ef11b136ea224fe,,,,,,,,,1567,41,76.5,1,0,0,response1disk,,7,-7,-2,1,0,0,rectangle,-7,-2,1,0,0,-7,-2,1,0,0,0,146,146,44,1,,,,,,,,
,,,,,,,,,,,,,FF,,,,,,,,0.834,,,,,,,,,,,,,,,,,,,,,,60feedc9ecfddadc0746e98f,61036c1c7d4c69350054cb29,2021-07-29_20h06.00.898,Simcolourproject_2stim_asymm_v5,2020.2.10,Win32,60,61025ae37ef11b136ea224fe,,,,,,,,,4233,28.5,74,1,0,0,response1disk,,7,10,-5.5,1,0,0,rectangle,10,-5.5,1,0,0,10,-5.5,1,0,0,0,147,147,156,1,,,,,,,,
,,,,,,,,,,,,,FF,,,,,,,,0.8672,,,,,,,,,,,,,,,,,,,,,,60feedc9ecfddadc0746e98f,61036c1c7d4c69350054cb29,2021-07-29_20h06.00.898,Simcolourproject_2stim_asymm_v5,2020.2.10,Win32,60,61025ae37ef11b136ea224fe,,,,,,,,,1091,43,74.5,1,0,0,response1disk,,7,5,3,1,0,0,rectangle,5,3,1,0,0,5,3,1,0,0,0,148,148,93,1,,,,,,,,
,,,,,,,,,,,,,FF,,,,,,,,1.5429,,,,,,,,,,,,,,,,,,,,,,60feedc9ecfddadc0746e98f,61036c1c7d4c69350054cb29,2021-07-29_20h06.00.898,Simcolourproject_2stim_asymm_v5,2020.2.10,Win32,60,61025ae37ef11b136ea224fe,,,,,,,,,3094,78,71,1,0,0,response1disk,,6,-0.5,5.5,1,0,0,rectangle,-0.5,5.5,1,0,0,-0.5,5.5,1,0,0,0,149,149,45,1,,,,,,,,
,,,,,,,,,,,,,FF,,,,,,,,0.9629,,,,,,,,,,,,,,,,,,,,,,60feedc9ecfddadc0746e98f,61036c1c7d4c69350054cb29,2021-07-29_20h06.00.898,Simcolourproject_2stim_asymm_v5,2020.2.10,Win32,60,61025ae37ef11b136ea224fe,,,,,,,,,1916,63,27.5,1,0,0,response1disk,,6,-9.5,-9,1,0,0,rectangle,-9.5,-9,1,0,0,-9.5,-9,1,0,0,0,150,150,139,1,,,,,,,,
,,,,,,,,,,,,,FF,,,,,,,,1.6867,,,,,,,,,,,,,,,,,,,,,,60feedc9ecfddadc0746e98f,61036c1c7d4c69350054cb29,2021-07-29_20h06.00.898,Simcolourproject_2stim_asymm_v5,2020.2.10,Win32,60,61025ae37ef11b136ea224fe,,,,,,,,,2431,71,46.5,1,0,0,response1disk,,6,-28,3.5,1,0,0,rectangle,-28,3.5,1,0,0,-28,3.5,1,0,0,0,151,151,94,1,,,,,,,,
,,,,,,,,,,,,,FF,,,,,,,,1.5105,,,,,,,,,,,,,,,,,,,,,,60feedc9ecfddadc0746e98f,61036c1c7d4c69350054cb29,2021-07-29_20h06.00.898,Simcolourproject_2stim_asymm_v5,2020.2.10,Win32,60,61025ae37ef11b136ea224fe,,,,,,,,,3397,65.5,36.5,1,0,0,response1disk,,6,10,7.5,1,0,0,rectangle,10,7.5,1,0,0,10,7.5,1,0,0,0,152,152,0,1,,,,,,,,
,,,,,,,,,,,,,FF,,,,,,,,0.868,,,,,,,,,,,,,,,,,,,,,,60feedc9ecfddadc0746e98f,61036c1c7d4c69350054cb29,2021-07-29_20h06.00.898,Simcolourproject_2stim_asymm_v5,2020.2.10,Win32,60,61025ae37ef11b136ea224fe,,,,,,,,,675,47.5,69,1,0,0,response1disk,,7,5,3.5,1,0,0,rectangle,5,3.5,1,0,0,5,3.5,1,0,0,0,153,153,31,1,,,,,,,,
,,,,,,,,,,,,,FF,,,,,,,,0.8176,,,,,,,,,,,,,,,,,,,,,,60feedc9ecfddadc0746e98f,61036c1c7d4c69350054cb29,2021-07-29_20h06.00.898,Simcolourproject_2stim_asymm_v5,2020.2.10,Win32,60,61025ae37ef11b136ea224fe,,,,,,,,,976,70,19.5,1,0,0,response1disk,,6,-7.5,-3.5,1,0,0,rectangle,-7.5,-3.5,1,0,0,-7.5,-3.5,1,0,0,0,154,154,70,1,,,,,,,,
,,,,,,,,,,,,,FF,,,,,,,,1.0143,,,,,,,,,,,,,,,,,,,,,,60feedc9ecfddadc0746e98f,61036c1c7d4c69350054cb29,2021-07-29_20h06.00.898,Simcolourproject_2stim_asymm_v5,2020.2.10,Win32,60,61025ae37ef11b136ea224fe,,,,,,,,,2298,71,-47.5,1,0,0,response3disk,,5,-4,0,1,0,0,rectangle,-4,0,1,0,0,-4,0,1,0,0,0,155,155,13,1,,,,,,,,
,,,,,,,,,,,,,FF,,,,,,,,0.9187,,,,,,,,,,,,,,,,,,,,,,60feedc9ecfddadc0746e98f,61036c1c7d4c69350054cb29,2021-07-29_20h06.00.898,Simcolourproject_2stim_asymm_v5,2020.2.10,Win32,60,61025ae37ef11b136ea224fe,,,,,,,,,2725,55,-24.5,1,0,0,response3disk,,5,-22,11.5,1,0,0,rectangle,-22,11.5,1,0,0,-22,11.5,1,0,0,0,156,156,117,1,,,,,,,,
,,,,,,,,,,,,,FF,,,,,,,,1.6048,,,,,,,,,,,,,,,,,,,,,,60feedc9ecfddadc0746e98f,61036c1c7d4c69350054cb29,2021-07-29_20h06.00.898,Simcolourproject_2stim_asymm_v5,2020.2.10,Win32,60,61025ae37ef11b136ea224fe,,,,,,,,,2188,82,48,1,0,0,response1disk,,6,2,5.5,1,0,0,rectangle,2,5.5,1,0,0,2,5.5,1,0,0,0,157,157,122,1,,,,,,,,
,,,,,,,,,,,,,FF,,,,,,,,0.7101,,,,,,,,,,,,,,,,,,,,,,60feedc9ecfddadc0746e98f,61036c1c7d4c69350054cb29,2021-07-29_20h06.00.898,Simcolourproject_2stim_asymm_v5,2020.2.10,Win32,60,61025ae37ef11b136ea224fe,,,,,,,,,47,26,81,1,0,0,response1disk,,7,-5.5,2,1,0,0,rectangle,-5.5,2,1,0,0,-5.5,2,1,0,0,0,158,158,140,1,,,,,,,,
,,,,,,,,,,,,,FF,,,,,,,,3.9018,,,,,,,,,,,,,,,,,,,,,,60feedc9ecfddadc0746e98f,61036c1c7d4c69350054cb29,2021-07-29_20h06.00.898,Simcolourproject_2stim_asymm_v5,2020.2.10,Win32,60,61025ae37ef11b136ea224fe,,,,,,,,,1951,49.5,30.5,1,0,0,response1disk,,6,-21.5,-2,1,0,0,rectangle,54.5,38,1,0,0,-7.5,1.5,1,0,0,0,159,159,11,1,,response1disk_3,TRUE,6,6,"[73,117,133,265,64,21,236,238,277,160,112,313,20,185,5,84,199,59,249,265]",1.6616,rectangle
,,,,,,,,,,,,,FF,,,,,,,,2.6696,,,,,,,,,,,,,,,,,,,,,,60feedc9ecfddadc0746e98f,61036c1c7d4c69350054cb29,2021-07-29_20h06.00.898,Simcolourproject_2stim_asymm_v5,2020.2.10,Win32,60,61025ae37ef11b136ea224fe,,,,,,,,,2289,63.5,42,1,0,0,response1disk,,6,-9.5,-4.5,1,0,0,rectangle,-9.5,-4.5,1,0,0,-9.5,-4.5,1,0,0,1,0,160,36,1,,,,,,,,
,,,,,,,,,,,,,FF,,,,,,,,3.7211,,,,,,,,,,,,,,,,,,,,,,60feedc9ecfddadc0746e98f,61036c1c7d4c69350054cb29,2021-07-29_20h06.00.898,Simcolourproject_2stim_asymm_v5,2020.2.10,Win32,60,61025ae37ef11b136ea224fe,,,,,,,,,1631,66,46.5,1,0,0,response1disk,,6,-12,-0.5,1,0,0,rectangle,-12,-0.5,1,0,0,-12,-0.5,1,0,0,1,1,161,51,1,,,,,,,,
,,,,,,,,,,,,,FF,,,,,,,,2.954,,,,,,,,,,,,,,,,,,,,,,60feedc9ecfddadc0746e98f,61036c1c7d4c69350054cb29,2021-07-29_20h06.00.898,Simcolourproject_2stim_asymm_v5,2020.2.10,Win32,60,61025ae37ef11b136ea224fe,,,,,,,,,42,41,98,1,0,0,response1disk,,7,-4.5,-5.5,1,0,0,rectangle,-4.5,-5.5,1,0,0,-4.5,-5.5,1,0,0,1,2,162,143,1,,,,,,,,
,,,,,,,,,,,,,FF,,,,,,,,1.217,,,,,,,,,,,,,,,,,,,,,,60feedc9ecfddadc0746e98f,61036c1c7d4c69350054cb29,2021-07-29_20h06.00.898,Simcolourproject_2stim_asymm_v5,2020.2.10,Win32,60,61025ae37ef11b136ea224fe,,,,,,,,,3111,101.5,38.5,1,0,0,response1disk,,6,-22.5,5.5,1,0,0,rectangle,-22.5,5.5,1,0,0,-22.5,5.5,1,0,0,1,3,163,52,1,,,,,,,,
,,,,,,,,,,,,,FF,,,,,,,,4.0539,,,,,,,,,,,,,,,,,,,,,,60feedc9ecfddadc0746e98f,61036c1c7d4c69350054cb29,2021-07-29_20h06.00.898,Simcolourproject_2stim_asymm_v5,2020.2.10,Win32,60,61025ae37ef11b136ea224fe,,,,,,,,,2668,94.5,33.5,1,0,0,response1disk,,6,18,3.5,1,0,0,rectangle,18,3.5,1,0,0,18,3.5,1,0,0,1,4,164,6,1,,,,,,,,
,,,,,,,,,,,,,FF,,,,,,,,0.6842,,,,,,,,,,,,,,,,,,,,,,60feedc9ecfddadc0746e98f,61036c1c7d4c69350054cb29,2021-07-29_20h06.00.898,Simcolourproject_2stim_asymm_v5,2020.2.10,Win32,60,61025ae37ef11b136ea224fe,,,,,,,,,2308,65.5,35.5,1,0,0,response1disk,,6,-26,-2,1,0,0,rectangle,-26,-2,1,0,0,-26,-2,1,0,0,1,5,165,20,1,,,,,,,,
,,,,,,,,,,,,,FF,,,,,,,,1.4179,,,,,,,,,,,,,,,,,,,,,,60feedc9ecfddadc0746e98f,61036c1c7d4c69350054cb29,2021-07-29_20h06.00.898,Simcolourproject_2stim_asymm_v5,2020.2.10,Win32,60,61025ae37ef11b136ea224fe,,,,,,,,,207,55,38.5,1,0,0,response1disk,,6,16,16,1,0,0,rectangle,16,16,1,0,0,16,16,1,0,0,1,6,166,93,1,,,,,,,,
,,,,,,,,,,,,,FF,,,,,,,,0.667,,,,,,,,,,,,,,,,,,,,,,60feedc9ecfddadc0746e98f,61036c1c7d4c69350054cb29,2021-07-29_20h06.00.898,Simcolourproject_2stim_asymm_v5,2020.2.10,Win32,60,61025ae37ef11b136ea224fe,,,,,,,,,292,58,34.5,1,0,0,response1disk,,6,-6,-8.5,1,0,0,rectangle,-6,-8.5,1,0,0,-6,-8.5,1,0,0,1,7,167,102,1,,,,,,,,
,,,,,,,,,,,,,FF,,,,,,,,1.0332,,,,,,,,,,,,,,,,,,,,,,60feedc9ecfddadc0746e98f,61036c1c7d4c69350054cb29,2021-07-29_20h06.00.898,Simcolourproject_2stim_asymm_v5,2020.2.10,Win32,60,61025ae37ef11b136ea224fe,,,,,,,,,1284,25.5,53.5,1,0,0,response1disk,,7,1.5,-12,1,0,0,rectangle,1.5,-12,1,0,0,1.5,-12,1,0,0,1,8,168,140,1,,,,,,,,
,,,,,,,,,,,,,FF,,,,,,,,0.9677,,,,,,,,,,,,,,,,,,,,,,60feedc9ecfddadc0746e98f,61036c1c7d4c69350054cb29,2021-07-29_20h06.00.898,Simcolourproject_2stim_asymm_v5,2020.2.10,Win32,60,61025ae37ef11b136ea224fe,,,,,,,,,2025,-28,49.5,1,0,0,response7disk,,0,6,-0.5,1,0,0,rectangle,6,-0.5,1,0,0,6,-0.5,1,0,0,1,9,169,72,1,,,,,,,,
,,,,,,,,,,,,,FF,,,,,,,,2.335,,,,,,,,,,,,,,,,,,,,,,60feedc9ecfddadc0746e98f,61036c1c7d4c69350054cb29,2021-07-29_20h06.00.898,Simcolourproject_2stim_asymm_v5,2020.2.10,Win32,60,61025ae37ef11b136ea224fe,,,,,,,,,1365,62.5,-44,1,0,0,response3disk,,5,-10.5,8.5,1,0,0,rectangle,-10.5,8.5,1,0,0,-10.5,8.5,1,0,0,1,10,170,108,1,,,,,,,,
,,,,,,,,,,,,,FF,,,,,,,,0.8506,,,,,,,,,,,,,,,,,,,,,,60feedc9ecfddadc0746e98f,61036c1c7d4c69350054cb29,2021-07-29_20h06.00.898,Simcolourproject_2stim_asymm_v5,2020.2.10,Win32,60,61025ae37ef11b136ea224fe,,,,,,,,,3808,76,-39.5,1,0,0,response3disk,,5,-5,13,1,0,0,rectangle,-5,13,1,0,0,-5,13,1,0,0,1,11,171,49,1,,,,,,,,
,,,,,,,,,,,,,FF,,,,,,,,0.8514,,,,,,,,,,,,,,,,,,,,,,60feedc9ecfddadc0746e98f,61036c1c7d4c69350054cb29,2021-07-29_20h06.00.898,Simcolourproject_2stim_asymm_v5,2020.2.10,Win32,60,61025ae37ef11b136ea224fe,,,,,,,,,3814,85,-40,1,0,0,response3disk,,5,-3,4,1,0,0,rectangle,-3,4,1,0,0,-3,4,1,0,0,1,12,172,16,1,,,,,,,,
,,,,,,,,,,,,,FF,,,,,,,,0.9509,,,,,,,,,,,,,,,,,,,,,,60feedc9ecfddadc0746e98f,61036c1c7d4c69350054cb29,2021-07-29_20h06.00.898,Simcolourproject_2stim_asymm_v5,2020.2.10,Win32,60,61025ae37ef11b136ea224fe,,,,,,,,,3116,37.5,75.5,1,0,0,response1disk,,7,3,9.5,1,0,0,rectangle,3,9.5,1,0,0,3,9.5,1,0,0,1,13,173,117,1,,,,,,,,
,,,,,,,,,,,,,FF,,,,,,,,0.9014,,,,,,,,,,,,,,,,,,,,,,60feedc9ecfddadc0746e98f,61036c1c7d4c69350054cb29,2021-07-29_20h06.00.898,Simcolourproject_2stim_asymm_v5,2020.2.10,Win32,60,61025ae37ef11b136ea224fe,,,,,,,,,102,70,47,1,0,0,response1disk,,6,-8,5,1,0,0,rectangle,-8,5,1,0,0,-8,5,1,0,0,1,14,174,127,1,,,,,,,,
,,,,,,,,,,,,,FF,,,,,,,,1.1835,,,,,,,,,,,,,,,,,,,,,,60feedc9ecfddadc0746e98f,61036c1c7d4c69350054cb29,2021-07-29_20h06.00.898,Simcolourproject_2stim_asymm_v5,2020.2.10,Win32,60,61025ae37ef11b136ea224fe,,,,,,,,,136,49,78,1,0,0,response1disk,,7,7.5,-4,1,0,0,rectangle,7.5,-4,1,0,0,7.5,-4,1,0,0,1,15,175,37,1,,,,,,,,
,,,,,,,,,,,,,FF,,,,,,,,0.8672,,,,,,,,,,,,,,,,,,,,,,60feedc9ecfddadc0746e98f,61036c1c7d4c69350054cb29,2021-07-29_20h06.00.898,Simcolourproject_2stim_asymm_v5,2020.2.10,Win32,60,61025ae37ef11b136ea224fe,,,,,,,,,3764,63,30.5,1,0,0,response1disk,,6,-6,-9,1,0,0,rectangle,-6,-9,1,0,0,-6,-9,1,0,0,1,16,176,92,1,,,,,,,,
,,,,,,,,,,,,,FF,,,,,,,,0.7674,,,,,,,,,,,,,,,,,,,,,,60feedc9ecfddadc0746e98f,61036c1c7d4c69350054cb29,2021-07-29_20h06.00.898,Simcolourproject_2stim_asymm_v5,2020.2.10,Win32,60,61025ae37ef11b136ea224fe,,,,,,,,,3977,77,39,1,0,0,response1disk,,6,-1,-0.5,1,0,0,rectangle,-1,-0.5,1,0,0,-1,-0.5,1,0,0,1,17,177,96,1,,,,,,,,
,,,,,,,,,,,,,FF,,,,,,,,1.7849,,,,,,,,,,,,,,,,,,,,,,60feedc9ecfddadc0746e98f,61036c1c7d4c69350054cb29,2021-07-29_20h06.00.898,Simcolourproject_2stim_asymm_v5,2020.2.10,Win32,60,61025ae37ef11b136ea224fe,,,,,,,,,1999,47,72,1,0,0,response1disk,,7,15,16,1,0,0,rectangle,15,16,1,0,0,15,16,1,0,0,1,18,178,2,1,,,,,,,,
,,,,,,,,,,,,,FF,,,,,,,,0.684,,,,,,,,,,,,,,,,,,,,,,60feedc9ecfddadc0746e98f,61036c1c7d4c69350054cb29,2021-07-29_20h06.00.898,Simcolourproject_2stim_asymm_v5,2020.2.10,Win32,60,61025ae37ef11b136ea224fe,,,,,,,,,1926,33,53.5,1,0,0,response1disk,,7,1,-5,1,0,0,rectangle,1,-5,1,0,0,1,-5,1,0,0,1,19,179,97,1,,,,,,,,
,,,,,,,,,,,,,FF,,,,,,,,0.9515,,,,,,,,,,,,,,,,,,,,,,60feedc9ecfddadc0746e98f,61036c1c7d4c69350054cb29,2021-07-29_20h06.00.898,Simcolourproject_2stim_asymm_v5,2020.2.10,Win32,60,61025ae37ef11b136ea224fe,,,,,,,,,1818,81,-63.5,1,0,0,response3disk,,5,-7.5,13.5,1,0,0,rectangle,-7.5,13.5,1,0,0,-7.5,13.5,1,0,0,1,20,180,132,1,,,,,,,,
,,,,,,,,,,,,,FF,,,,,,,,1.1682,,,,,,,,,,,,,,,,,,,,,,60feedc9ecfddadc0746e98f,61036c1c7d4c69350054cb29,2021-07-29_20h06.00.898,Simcolourproject_2stim_asymm_v5,2020.2.10,Win32,60,61025ae37ef11b136ea224fe,,,,,,,,,1584,59,33,1,0,0,response1disk,,6,-5.5,-2,1,0,0,rectangle,-5.5,-2,1,0,0,-5.5,-2,1,0,0,1,21,181,75,1,,,,,,,,
,,,,,,,,,,,,,FF,,,,,,,,1.0679,,,,,,,,,,,,,,,,,,,,,,60feedc9ecfddadc0746e98f,61036c1c7d4c69350054cb29,2021-07-29_20h06.00.898,Simcolourproject_2stim_asymm_v5,2020.2.10,Win32,60,61025ae37ef11b136ea224fe,,,,,,,,,2354,23.5,76,1,0,0,response1disk,,7,0.5,1,1,0,0,rectangle,0.5,1,1,0,0,0.5,1,1,0,0,1,22,182,64,1,,,,,,,,
,,,,,,,,,,,,,FF,,,,,,,,2.7851,,,,,,,,,,,,,,,,,,,,,,60feedc9ecfddadc0746e98f,61036c1c7d4c69350054cb29,2021-07-29_20h06.00.898,Simcolourproject_2stim_asymm_v5,2020.2.10,Win32,60,61025ae37ef11b136ea224fe,,,,,,,,,3975,91,29.5,1,0,0,response1disk,,6,-8,8.5,1,0,0,rectangle,-8,8.5,1,0,0,-8,8.5,1,0,0,1,23,183,28,1,,,,,,,,
,,,,,,,,,,,,,FF,,,,,,,,0.8861,,,,,,,,,,,,,,,,,,,,,,60feedc9ecfddadc0746e98f,61036c1c7d4c69350054cb29,2021-07-29_20h06.00.898,Simcolourproject_2stim_asymm_v5,2020.2.10,Win32,60,61025ae37ef11b136ea224fe,,,,,,,,,182,22.5,58,1,0,0,response1disk,,7,-1.5,0,1,0,0,rectangle,-82,52,1,0,0,0,-1.5,1,0,0,1,24,184,25,1,,response7disk_3,TRUE,1,1,"[73,117,133,265,64,21,236,238,277,160,112,313,20,185,5,84,199,59,249,265]",1.2599,rectangle
,,,,,,,,,,,,,FF,,,,,,,,1.4838,,,,,,,,,,,,,,,,,,,,,,60feedc9ecfddadc0746e98f,61036c1c7d4c69350054cb29,2021-07-29_20h06.00.898,Simcolourproject_2stim_asymm_v5,2020.2.10,Win32,60,61025ae37ef11b136ea224fe,,,,,,,,,3266,69,38,1,0,0,response1disk,,6,10.5,3,1,0,0,rectangle,10.5,3,1,0,0,10.5,3,1,0,0,1,25,185,123,1,,,,,,,,
,,,,,,,,,,,,,FF,,,,,,,,0.9349,,,,,,,,,,,,,,,,,,,,,,60feedc9ecfddadc0746e98f,61036c1c7d4c69350054cb29,2021-07-29_20h06.00.898,Simcolourproject_2stim_asymm_v5,2020.2.10,Win32,60,61025ae37ef11b136ea224fe,,,,,,,,,2748,51,73.5,1,0,0,response1disk,,7,14.5,8,1,0,0,rectangle,14.5,8,1,0,0,14.5,8,1,0,0,1,26,186,11,1,,,,,,,,
,,,,,,,,,,,,,FF,,,,,,,,1.4807,,,,,,,,,,,,,,,,,,,,,,60feedc9ecfddadc0746e98f,61036c1c7d4c69350054cb29,2021-07-29_20h06.00.898,Simcolourproject_2stim_asymm_v5,2020.2.10,Win32,60,61025ae37ef11b136ea224fe,,,,,,,,,3840,62.5,37,1,0,0,response1disk,,6,-2,-2,1,0,0,rectangle,-2,-2,1,0,0,-2,-2,1,0,0,1,27,187,124,1,,,,,,,,
,,,,,,,,,,,,,FF,,,,,,,,3.8056,,,,,,,,,,,,,,,,,,,,,,60feedc9ecfddadc0746e98f,61036c1c7d4c69350054cb29,2021-07-29_20h06.00.898,Simcolourproject_2stim_asymm_v5,2020.2.10,Win32,60,61025ae37ef11b136ea224fe,,,,,,,,,969,64.5,-42.5,1,0,0,response3disk,,5,-8,5,1,0,0,rectangle,-8,5,1,0,0,-8,5,1,0,0,1,28,188,32,1,,,,,,,,
,,,,,,,,,,,,,FF,,,,,,,,6.8006,,,,,,,,,,,,,,,,,,,,,,60feedc9ecfddadc0746e98f,61036c1c7d4c69350054cb29,2021-07-29_20h06.00.898,Simcolourproject_2stim_asymm_v5,2020.2.10,Win32,60,61025ae37ef11b136ea224fe,,,,,,,,,2343,85.5,37,1,0,0,response1disk,,6,-1,-2,1,0,0,rectangle,-1,-2,1,0,0,-1,-2,1,0,0,1,29,189,18,1,,,,,,,,
,,,,,,,,,,,,,FF,,,,,,,,0.8013,,,,,,,,,,,,,,,,,,,,,,60feedc9ecfddadc0746e98f,61036c1c7d4c69350054cb29,2021-07-29_20h06.00.898,Simcolourproject_2stim_asymm_v5,2020.2.10,Win32,60,61025ae37ef11b136ea224fe,,,,,,,,,1841,43,21.5,1,0,0,response1disk,,6,-3.5,-1.5,1,0,0,rectangle,-3.5,-1.5,1,0,0,-3.5,-1.5,1,0,0,1,30,190,158,1,,,,,,,,
,,,,,,,,,,,,,FF,,,,,,,,2.1035,,,,,,,,,,,,,,,,,,,,,,60feedc9ecfddadc0746e98f,61036c1c7d4c69350054cb29,2021-07-29_20h06.00.898,Simcolourproject_2stim_asymm_v5,2020.2.10,Win32,60,61025ae37ef11b136ea224fe,,,,,,,,,2028,60.5,-29,1,0,0,response3disk,,5,8.5,-7,1,0,0,rectangle,8.5,-7,1,0,0,8.5,-7,1,0,0,1,31,191,148,1,,,,,,,,
,,,,,,,,,,,,,FF,,,,,,,,0.8146,,,,,,,,,,,,,,,,,,,,,,60feedc9ecfddadc0746e98f,61036c1c7d4c69350054cb29,2021-07-29_20h06.00.898,Simcolourproject_2stim_asymm_v5,2020.2.10,Win32,60,61025ae37ef11b136ea224fe,,,,,,,,,1198,68,32,1,0,0,response1disk,,6,8.5,4,1,0,0,rectangle,8.5,4,1,0,0,8.5,4,1,0,0,1,32,192,14,1,,,,,,,,
,,,,,,,,,,,,,FF,,,,,,,,1.0184,,,,,,,,,,,,,,,,,,,,,,60feedc9ecfddadc0746e98f,61036c1c7d4c69350054cb29,2021-07-29_20h06.00.898,Simcolourproject_2stim_asymm_v5,2020.2.10,Win32,60,61025ae37ef11b136ea224fe,,,,,,,,,4279,28.5,83,1,0,0,response1disk,,7,-13,3,1,0,0,rectangle,-13,3,1,0,0,-13,3,1,0,0,1,33,193,15,1,,,,,,,,
,,,,,,,,,,,,,FF,,,,,,,,1.1196,,,,,,,,,,,,,,,,,,,,,,60feedc9ecfddadc0746e98f,61036c1c7d4c69350054cb29,2021-07-29_20h06.00.898,Simcolourproject_2stim_asymm_v5,2020.2.10,Win32,60,61025ae37ef11b136ea224fe,,,,,,,,,3601,76,-37,1,0,0,response3disk,,5,-2.5,6.5,1,0,0,rectangle,-2.5,6.5,1,0,0,-2.5,6.5,1,0,0,1,34,194,55,1,,,,,,,,
,,,,,,,,,,,,,FF,,,,,,,,1.0026,,,,,,,,,,,,,,,,,,,,,,60feedc9ecfddadc0746e98f,61036c1c7d4c69350054cb29,2021-07-29_20h06.00.898,Simcolourproject_2stim_asymm_v5,2020.2.10,Win32,60,61025ae37ef11b136ea224fe,,,,,,,,,399,59,65.5,1,0,0,response1disk,,7,4,-4,1,0,0,rectangle,4,-4,1,0,0,4,-4,1,0,0,1,35,195,136,1,,,,,,,,
,,,,,,,,,,,,,FF,,,,,,,,0.891,,,,,,,,,,,,,,,,,,,,,,60feedc9ecfddadc0746e98f,61036c1c7d4c69350054cb29,2021-07-29_20h06.00.898,Simcolourproject_2stim_asymm_v5,2020.2.10,Win32,60,61025ae37ef11b136ea224fe,,,,,,,,,4284,38,63,1,0,0,response1disk,,7,22,9,1,0,0,rectangle,22,9,1,0,0,22,9,1,0,0,1,36,196,47,1,,,,,,,,
,,,,,,,,,,,,,FF,,,,,,,,1.1858,,,,,,,,,,,,,,,,,,,,,,60feedc9ecfddadc0746e98f,61036c1c7d4c69350054cb29,2021-07-29_20h06.00.898,Simcolourproject_2stim_asymm_v5,2020.2.10,Win32,60,61025ae37ef11b136ea224fe,,,,,,,,,3403,82.5,38,1,0,0,response1disk,,6,9,4.5,1,0,0,rectangle,9,4.5,1,0,0,9,4.5,1,0,0,1,37,197,5,1,,,,,,,,
,,,,,,,,,,,,,FF,,,,,,,,2.2964,,,,,,,,,,,,,,,,,,,,,,60feedc9ecfddadc0746e98f,61036c1c7d4c69350054cb29,2021-07-29_20h06.00.898,Simcolourproject_2stim_asymm_v5,2020.2.10,Win32,60,61025ae37ef11b136ea224fe,,,,,,,,,3886,36.5,70.5,1,0,0,response1disk,,7,-2.5,7,1,0,0,rectangle,53,-39.5,1,0,0,-7.5,0,1,0,0,1,38,198,84,1,,response3disk_3,TRUE,5,5,"[73,117,133,265,64,21,236,238,277,160,112,313,20,185,5,84,199,59,249,265]",1.577,rectangle
,,,,,,,,,,,,,FF,,,,,,,,6.9389,,,,,,,,,,,,,,,,,,,,,,60feedc9ecfddadc0746e98f,61036c1c7d4c69350054cb29,2021-07-29_20h06.00.898,Simcolourproject_2stim_asymm_v5,2020.2.10,Win32,60,61025ae37ef11b136ea224fe,,,,,,,,,2042,34.5,-67,1,0,0,response3disk,,4,-1.5,4,1,0,0,rectangle,-1.5,4,1,0,0,-1.5,4,1,0,0,1,39,199,99,1,,,,,,,,
,,,,,,,,,,,,,FF,,,,,,,,2.1866,,,,,,,,,,,,,,,,,,,,,,60feedc9ecfddadc0746e98f,61036c1c7d4c69350054cb29,2021-07-29_20h06.00.898,Simcolourproject_2stim_asymm_v5,2020.2.10,Win32,60,61025ae37ef11b136ea224fe,,,,,,,,,1434,68.5,26,1,0,0,response1disk,,6,5.5,-4,1,0,0,rectangle,5.5,-4,1,0,0,5.5,-4,1,0,0,1,40,200,26,1,,,,,,,,
,,,,,,,,,,,,,FF,,,,,,,,1.0596,,,,,,,,,,,,,,,,,,,,,,60feedc9ecfddadc0746e98f,61036c1c7d4c69350054cb29,2021-07-29_20h06.00.898,Simcolourproject_2stim_asymm_v5,2020.2.10,Win32,60,61025ae37ef11b136ea224fe,,,,,,,,,3483,52,-61,1,0,0,response3disk,,4,-7,0,1,0,0,rectangle,-7,0,1,0,0,-7,0,1,0,0,1,41,201,142,1,,,,,,,,
,,,,,,,,,,,,,FF,,,,,,,,0.777,,,,,,,,,,,,,,,,,,,,,,60feedc9ecfddadc0746e98f,61036c1c7d4c69350054cb29,2021-07-29_20h06.00.898,Simcolourproject_2stim_asymm_v5,2020.2.10,Win32,60,61025ae37ef11b136ea224fe,,,,,,,,,631,54,-85,1,0,0,response3disk,,4,-12,13,1,0,0,rectangle,-12,13,1,0,0,-12,13,1,0,0,1,42,202,76,1,,,,,,,,
,,,,,,,,,,,,,FF,,,,,,,,1.6183,,,,,,,,,,,,,,,,,,,,,,60feedc9ecfddadc0746e98f,61036c1c7d4c69350054cb29,2021-07-29_20h06.00.898,Simcolourproject_2stim_asymm_v5,2020.2.10,Win32,60,61025ae37ef11b136ea224fe,,,,,,,,,2383,19.5,80,1,0,0,response1disk,,7,-13.5,-5,1,0,0,rectangle,-13.5,-5,1,0,0,-13.5,-5,1,0,0,1,43,203,7,1,,,,,,,,
,,,,,,,,,,,,,FF,,,,,,,,0.7896,,,,,,,,,,,,,,,,,,,,,,60feedc9ecfddadc0746e98f,61036c1c7d4c69350054cb29,2021-07-29_20h06.00.898,Simcolourproject_2stim_asymm_v5,2020.2.10,Win32,60,61025ae37ef11b136ea224fe,,,,,,,,,1586,74.5,33.5,1,0,0,response1disk,,6,-24.5,10,1,0,0,rectangle,-24.5,10,1,0,0,-24.5,10,1,0,0,1,44,204,73,1,,,,,,,,
,,,,,,,,,,,,,FF,,,,,,,,1.5201,,,,,,,,,,,,,,,,,,,,,,60feedc9ecfddadc0746e98f,61036c1c7d4c69350054cb29,2021-07-29_20h06.00.898,Simcolourproject_2stim_asymm_v5,2020.2.10,Win32,60,61025ae37ef11b136ea224fe,,,,,,,,,1107,74,38.5,1,0,0,response1disk,,6,-4,5.5,1,0,0,rectangle,-4,5.5,1,0,0,-4,5.5,1,0,0,1,45,205,30,1,,,,,,,,
,,,,,,,,,,,,,FF,,,,,,,,0.9497,,,,,,,,,,,,,,,,,,,,,,60feedc9ecfddadc0746e98f,61036c1c7d4c69350054cb29,2021-07-29_20h06.00.898,Simcolourproject_2stim_asymm_v5,2020.2.10,Win32,60,61025ae37ef11b136ea224fe,,,,,,,,,1825,56.5,-30,1,0,0,response3disk,,5,6.5,9.5,1,0,0,rectangle,6.5,9.5,1,0,0,6.5,9.5,1,0,0,1,46,206,12,1,,,,,,,,
,,,,,,,,,,,,,FF,,,,,,,,1.5192,,,,,,,,,,,,,,,,,,,,,,60feedc9ecfddadc0746e98f,61036c1c7d4c69350054cb29,2021-07-29_20h06.00.898,Simcolourproject_2stim_asymm_v5,2020.2.10,Win32,60,61025ae37ef11b136ea224fe,,,,,,,,,1137,36.5,-72.5,1,0,0,response3disk,,4,3,3.5,1,0,0,rectangle,3,3.5,1,0,0,3,3.5,1,0,0,1,47,207,54,1,,,,,,,,
,,,,,,,,,,,,,FF,,,,,,,,0.8022,,,,,,,,,,,,,,,,,,,,,,60feedc9ecfddadc0746e98f,61036c1c7d4c69350054cb29,2021-07-29_20h06.00.898,Simcolourproject_2stim_asymm_v5,2020.2.10,Win32,60,61025ae37ef11b136ea224fe,,,,,,,,,1892,38.5,-63.5,1,0,0,response3disk,,4,-5,4.5,1,0,0,rectangle,-5,4.5,1,0,0,-5,4.5,1,0,0,1,48,208,65,1,,,,,,,,
,,,,,,,,,,,,,FF,,,,,,,,0.8361,,,,,,,,,,,,,,,,,,,,,,60feedc9ecfddadc0746e98f,61036c1c7d4c69350054cb29,2021-07-29_20h06.00.898,Simcolourproject_2stim_asymm_v5,2020.2.10,Win32,60,61025ae37ef11b136ea224fe,,,,,,,,,232,38,89,1,0,0,response1disk,,7,-6.5,9.5,1,0,0,rectangle,-6.5,9.5,1,0,0,-6.5,9.5,1,0,0,1,49,209,150,1,,,,,,,,
,,,,,,,,,,,,,FF,,,,,,,,3.7039,,,,,,,,,,,,,,,,,,,,,,60feedc9ecfddadc0746e98f,61036c1c7d4c69350054cb29,2021-07-29_20h06.00.898,Simcolourproject_2stim_asymm_v5,2020.2.10,Win32,60,61025ae37ef11b136ea224fe,,,,,,,,,129,19.5,69.5,1,0,0,response1disk,,7,6,-5,1,0,0,rectangle,6,-5,1,0,0,6,-5,1,0,0,1,50,210,118,1,,,,,,,,
,,,,,,,,,,,,,FF,,,,,,,,1.8766,,,,,,,,,,,,,,,,,,,,,,60feedc9ecfddadc0746e98f,61036c1c7d4c69350054cb29,2021-07-29_20h06.00.898,Simcolourproject_2stim_asymm_v5,2020.2.10,Win32,60,61025ae37ef11b136ea224fe,,,,,,,,,1917,63.5,24.5,1,0,0,response1disk,,6,13.5,-1,1,0,0,rectangle,13.5,-1,1,0,0,13.5,-1,1,0,0,1,51,211,130,1,,,,,,,,
,,,,,,,,,,,,,FF,,,,,,,,0.7924,,,,,,,,,,,,,,,,,,,,,,60feedc9ecfddadc0746e98f,61036c1c7d4c69350054cb29,2021-07-29_20h06.00.898,Simcolourproject_2stim_asymm_v5,2020.2.10,Win32,60,61025ae37ef11b136ea224fe,,,,,,,,,2455,49,72.5,1,0,0,response1disk,,7,11,-8.5,1,0,0,rectangle,11,-8.5,1,0,0,11,-8.5,1,0,0,1,52,212,122,1,,,,,,,,
,,,,,,,,,,,,,FF,,,,,,,,0.7448,,,,,,,,,,,,,,,,,,,,,,60feedc9ecfddadc0746e98f,61036c1c7d4c69350054cb29,2021-07-29_20h06.00.898,Simcolourproject_2stim_asymm_v5,2020.2.10,Win32,60,61025ae37ef11b136ea224fe,,,,,,,,,475,66,23.5,1,0,0,response1disk,,6,-26.5,15,1,0,0,rectangle,-26.5,15,1,0,0,-26.5,15,1,0,0,1,53,213,61,1,,,,,,,,
,,,,,,,,,,,,,FF,,,,,,,,2.3019,,,,,,,,,,,,,,,,,,,,,,60feedc9ecfddadc0746e98f,61036c1c7d4c69350054cb29,2021-07-29_20h06.00.898,Simcolourproject_2stim_asymm_v5,2020.2.10,Win32,60,61025ae37ef11b136ea224fe,,,,,,,,,2375,43,80,1,0,0,response1disk,,7,6.5,-9.5,1,0,0,rectangle,6.5,-9.5,1,0,0,6.5,-9.5,1,0,0,1,54,214,154,1,,,,,,,,
,,,,,,,,,,,,,FF,,,,,,,,0.9688,,,,,,,,,,,,,,,,,,,,,,60feedc9ecfddadc0746e98f,61036c1c7d4c69350054cb29,2021-07-29_20h06.00.898,Simcolourproject_2stim_asymm_v5,2020.2.10,Win32,60,61025ae37ef11b136ea224fe,,,,,,,,,745,35,84.5,1,0,0,response1disk,,7,-7.5,9,1,0,0,rectangle,-7.5,9,1,0,0,-7.5,9,1,0,0,1,55,215,13,1,,,,,,,,
,,,,,,,,,,,,,FF,,,,,,,,4.8542,,,,,,,,,,,,,,,,,,,,,,60feedc9ecfddadc0746e98f,61036c1c7d4c69350054cb29,2021-07-29_20h06.00.898,Simcolourproject_2stim_asymm_v5,2020.2.10,Win32,60,61025ae37ef11b136ea224fe,,,,,,,,,4158,36,24,1,0,0,response1disk,,6,22.5,6.5,1,0,0,rectangle,22.5,6.5,1,0,0,22.5,6.5,1,0,0,1,56,216,31,1,,,,,,,,
,,,,,,,,,,,,,FF,,,,,,,,0.7255,,,,,,,,,,,,,,,,,,,,,,60feedc9ecfddadc0746e98f,61036c1c7d4c69350054cb29,2021-07-29_20h06.00.898,Simcolourproject_2stim_asymm_v5,2020.2.10,Win32,60,61025ae37ef11b136ea224fe,,,,,,,,,941,26.5,69.5,1,0,0,response1disk,,7,-0.5,-2.5,1,0,0,rectangle,-0.5,-2.5,1,0,0,-0.5,-2.5,1,0,0,1,57,217,67,1,,,,,,,,
,,,,,,,,,,,,,FF,,,,,,,,1.1343,,,,,,,,,,,,,,,,,,,,,,60feedc9ecfddadc0746e98f,61036c1c7d4c69350054cb29,2021-07-29_20h06.00.898,Simcolourproject_2stim_asymm_v5,2020.2.10,Win32,60,61025ae37ef11b136ea224fe,,,,,,,,,3269,15.5,54,1,0,0,response1disk,,7,2,-9.5,1,0,0,rectangle,2,-9.5,1,0,0,2,-9.5,1,0,0,1,58,218,149,1,,,,,,,,
,,,,,,,,,,,,,FF,,,,,,,,1.0769,,,,,,,,,,,,,,,,,,,,,,60feedc9ecfddadc0746e98f,61036c1c7d4c69350054cb29,2021-07-29_20h06.00.898,Simcolourproject_2stim_asymm_v5,2020.2.10,Win32,60,61025ae37ef11b136ea224fe,,,,,,,,,2400,34,51.5,1,0,0,response1disk,,7,9.5,7,1,0,0,rectangle,9.5,7,1,0,0,9.5,7,1,0,0,1,59,219,62,1,,,,,,,,
,,,,,,,,,,,,,FF,,,,,,,,1.1133,,,,,,,,,,,,,,,,,,,,,,60feedc9ecfddadc0746e98f,61036c1c7d4c69350054cb29,2021-07-29_20h06.00.898,Simcolourproject_2stim_asymm_v5,2020.2.10,Win32,60,61025ae37ef11b136ea224fe,,,,,,,,,1976,58.5,24.5,1,0,0,response1disk,,6,-3.5,9,1,0,0,rectangle,-3.5,9,1,0,0,-3.5,9,1,0,0,1,60,220,88,1,,,,,,,,
,,,,,,,,,,,,,FF,,,,,,,,0.7662,,,,,,,,,,,,,,,,,,,,,,60feedc9ecfddadc0746e98f,61036c1c7d4c69350054cb29,2021-07-29_20h06.00.898,Simcolourproject_2stim_asymm_v5,2020.2.10,Win32,60,61025ae37ef11b136ea224fe,,,,,,,,,1543,58.5,39.5,1,0,0,response1disk,,6,-23,-8,1,0,0,rectangle,-23,-8,1,0,0,-23,-8,1,0,0,1,61,221,109,1,,,,,,,,
,,,,,,,,,,,,,FF,,,,,,,,1.6376,,,,,,,,,,,,,,,,,,,,,,60feedc9ecfddadc0746e98f,61036c1c7d4c69350054cb29,2021-07-29_20h06.00.898,Simcolourproject_2stim_asymm_v5,2020.2.10,Win32,60,61025ae37ef11b136ea224fe,,,,,,,,,4092,39.5,64,1,0,0,response1disk,,7,6.5,6,1,0,0,rectangle,6.5,6,1,0,0,6.5,6,1,0,0,1,62,222,4,1,,,,,,,,
,,,,,,,,,,,,,FF,,,,,,,,0.8347,,,,,,,,,,,,,,,,,,,,,,60feedc9ecfddadc0746e98f,61036c1c7d4c69350054cb29,2021-07-29_20h06.00.898,Simcolourproject_2stim_asymm_v5,2020.2.10,Win32,60,61025ae37ef11b136ea224fe,,,,,,,,,1847,63,35,1,0,0,response1disk,,6,13,-8.5,1,0,0,rectangle,13,-8.5,1,0,0,13,-8.5,1,0,0,1,63,223,89,1,,,,,,,,
,,,,,,,,,,,,,FF,,,,,,,,1.0405,,,,,,,,,,,,,,,,,,,,,,60feedc9ecfddadc0746e98f,61036c1c7d4c69350054cb29,2021-07-29_20h06.00.898,Simcolourproject_2stim_asymm_v5,2020.2.10,Win32,60,61025ae37ef11b136ea224fe,,,,,,,,,3589,27,53.5,1,0,0,response1disk,,7,9,4,1,0,0,rectangle,9,4,1,0,0,9,4,1,0,0,1,64,224,116,1,,,,,,,,
,,,,,,,,,,,,,FF,,,,,,,,1.0412,,,,,,,,,,,,,,,,,,,,,,60feedc9ecfddadc0746e98f,61036c1c7d4c69350054cb29,2021-07-29_20h06.00.898,Simcolourproject_2stim_asymm_v5,2020.2.10,Win32,60,61025ae37ef11b136ea224fe,,,,,,,,,63,71,-44.5,1,0,0,response3disk,,5,3,-10,1,0,0,rectangle,3,-10,1,0,0,3,-10,1,0,0,1,65,225,156,1,,,,,,,,
,,,,,,,,,,,,,FF,,,,,,,,2.4751,,,,,,,,,,,,,,,,,,,,,,60feedc9ecfddadc0746e98f,61036c1c7d4c69350054cb29,2021-07-29_20h06.00.898,Simcolourproject_2stim_asymm_v5,2020.2.10,Win32,60,61025ae37ef11b136ea224fe,,,,,,,,,2286,40,58.5,1,0,0,response1disk,,7,12.5,8,1,0,0,rectangle,12.5,8,1,0,0,12.5,8,1,0,0,1,66,226,43,1,,,,,,,,
,,,,,,,,,,,,,FF,,,,,,,,1.9203,,,,,,,,,,,,,,,,,,,,,,60feedc9ecfddadc0746e98f,61036c1c7d4c69350054cb29,2021-07-29_20h06.00.898,Simcolourproject_2stim_asymm_v5,2020.2.10,Win32,60,61025ae37ef11b136ea224fe,,,,,,,,,2608,-65,-34.5,1,0,0,response5disk,,2,-15.5,10.5,1,0,0,rectangle,-15.5,10.5,1,0,0,-15.5,10.5,1,0,0,1,67,227,105,1,,,,,,,,
,,,,,,,,,,,,,FF,,,,,,,,0.8014,,,,,,,,,,,,,,,,,,,,,,60feedc9ecfddadc0746e98f,61036c1c7d4c69350054cb29,2021-07-29_20h06.00.898,Simcolourproject_2stim_asymm_v5,2020.2.10,Win32,60,61025ae37ef11b136ea224fe,,,,,,,,,850,45,77,1,0,0,response1disk,,7,4.5,-3,1,0,0,rectangle,4.5,-3,1,0,0,4.5,-3,1,0,0,1,68,228,40,1,,,,,,,,
,,,,,,,,,,,,,FF,,,,,,,,0.9847,,,,,,,,,,,,,,,,,,,,,,60feedc9ecfddadc0746e98f,61036c1c7d4c69350054cb29,2021-07-29_20h06.00.898,Simcolourproject_2stim_asymm_v5,2020.2.10,Win32,60,61025ae37ef11b136ea224fe,,,,,,,,,1401,37,70,1,0,0,response1disk,,7,0.5,-1,1,0,0,rectangle,0.5,-1,1,0,0,0.5,-1,1,0,0,1,69,229,35,1,,,,,,,,
,,,,,,,,,,,,,FF,,,,,,,,0.9672,,,,,,,,,,,,,,,,,,,,,,60feedc9ecfddadc0746e98f,61036c1c7d4c69350054cb29,2021-07-29_20h06.00.898,Simcolourproject_2stim_asymm_v5,2020.2.10,Win32,60,61025ae37ef11b136ea224fe,,,,,,,,,2618,32,53,1,0,0,response1disk,,7,9.5,3.5,1,0,0,rectangle,9.5,3.5,1,0,0,9.5,3.5,1,0,0,1,70,230,106,1,,,,,,,,
,,,,,,,,,,,,,FF,,,,,,,,0.8846,,,,,,,,,,,,,,,,,,,,,,60feedc9ecfddadc0746e98f,61036c1c7d4c69350054cb29,2021-07-29_20h06.00.898,Simcolourproject_2stim_asymm_v5,2020.2.10,Win32,60,61025ae37ef11b136ea224fe,,,,,,,,,881,64,32.5,1,0,0,response1disk,,6,-2,4,1,0,0,rectangle,-2,4,1,0,0,-2,4,1,0,0,1,71,231,19,1,,,,,,,,
,,,,,,,,,,,,,FF,,,,,,,,1.0538,,,,,,,,,,,,,,,,,,,,,,60feedc9ecfddadc0746e98f,61036c1c7d4c69350054cb29,2021-07-29_20h06.00.898,Simcolourproject_2stim_asymm_v5,2020.2.10,Win32,60,61025ae37ef11b136ea224fe,,,,,,,,,3507,59.5,-30.5,1,0,0,response3disk,,5,5.5,4,1,0,0,rectangle,5.5,4,1,0,0,5.5,4,1,0,0,1,72,232,63,1,,,,,,,,
,,,,,,,,,,,,,FF,,,,,,,,1.7198,,,,,,,,,,,,,,,,,,,,,,60feedc9ecfddadc0746e98f,61036c1c7d4c69350054cb29,2021-07-29_20h06.00.898,Simcolourproject_2stim_asymm_v5,2020.2.10,Win32,60,61025ae37ef11b136ea224fe,,,,,,,,,775,40.5,68,1,0,0,response1disk,,7,7.5,-4,1,0,0,rectangle,7.5,-4,1,0,0,7.5,-4,1,0,0,1,73,233,44,1,,,,,,,,
,,,,,,,,,,,,,FF,,,,,,,,1.0526,,,,,,,,,,,,,,,,,,,,,,60feedc9ecfddadc0746e98f,61036c1c7d4c69350054cb29,2021-07-29_20h06.00.898,Simcolourproject_2stim_asymm_v5,2020.2.10,Win32,60,61025ae37ef11b136ea224fe,,,,,,,,,1404,48,75.5,1,0,0,response1disk,,7,16,-1.5,1,0,0,rectangle,16,-1.5,1,0,0,16,-1.5,1,0,0,1,74,234,78,1,,,,,,,,
,,,,,,,,,,,,,FF,,,,,,,,1.1682,,,,,,,,,,,,,,,,,,,,,,60feedc9ecfddadc0746e98f,61036c1c7d4c69350054cb29,2021-07-29_20h06.00.898,Simcolourproject_2stim_asymm_v5,2020.2.10,Win32,60,61025ae37ef11b136ea224fe,,,,,,,,,3920,81,-23.5,1,0,0,response3disk,,5,10.5,11.5,1,0,0,rectangle,73.5,39.5,1,0,0,-10.5,-2,1,0,0,1,75,235,21,1,,response1disk_3,TRUE,6,6,"[73,117,133,265,64,21,236,238,277,160,112,313,20,185,5,84,199,59,249,265]",1.3882,rectangle
,,,,,,,,,,,,,FF,,,,,,,,1.1551,,,,,,,,,,,,,,,,,,,,,,60feedc9ecfddadc0746e98f,61036c1c7d4c69350054cb29,2021-07-29_20h06.00.898,Simcolourproject_2stim_asymm_v5,2020.2.10,Win32,60,61025ae37ef11b136ea224fe,,,,,,,,,2457,44,88.5,1,0,0,response1disk,,7,3.5,7,1,0,0,rectangle,3.5,7,1,0,0,3.5,7,1,0,0,1,76,236,134,1,,,,,,,,
,,,,,,,,,,,,,FF,,,,,,,,1.5596,,,,,,,,,,,,,,,,,,,,,,60feedc9ecfddadc0746e98f,61036c1c7d4c69350054cb29,2021-07-29_20h06.00.898,Simcolourproject_2stim_asymm_v5,2020.2.10,Win32,60,61025ae37ef11b136ea224fe,,,,,,,,,923,48,52,1,0,0,response1disk,,7,18.5,3.5,1,0,0,rectangle,34.5,-51,1,0,0,4,-5,1,0,0,1,77,237,42,1,,response3disk_3,TRUE,4,4,"[73,117,133,265,64,21,236,238,277,160,112,313,20,185,5,84,199,59,249,265]",1.3524,rectangle
,,,,,,,,,,,,,FF,,,,,,,,1.0501,,,,,,,,,,,,,,,,,,,,,,60feedc9ecfddadc0746e98f,61036c1c7d4c69350054cb29,2021-07-29_20h06.00.898,Simcolourproject_2stim_asymm_v5,2020.2.10,Win32,60,61025ae37ef11b136ea224fe,,,,,,,,,4154,35,58,1,0,0,response1disk,,7,3,-4,1,0,0,rectangle,3,-4,1,0,0,3,-4,1,0,0,1,78,238,111,1,,,,,,,,
,,,,,,,,,,,,,FF,,,,,,,,5.3101,,,,,,,,,,,,,,,,,,,,,,60feedc9ecfddadc0746e98f,61036c1c7d4c69350054cb29,2021-07-29_20h06.00.898,Simcolourproject_2stim_asymm_v5,2020.2.10,Win32,60,61025ae37ef11b136ea224fe,,,,,,,,,4364,69.5,-25.5,1,0,0,response3disk,,5,15.5,-10.5,1,0,0,rectangle,15.5,-10.5,1,0,0,15.5,-10.5,1,0,0,1,79,239,146,1,,,,,,,,
,,,,,,,,,,,,,FF,,,,,,,,4.1121,,,,,,,,,,,,,,,,,,,,,,60feedc9ecfddadc0746e98f,61036c1c7d4c69350054cb29,2021-07-29_20h06.00.898,Simcolourproject_2stim_asymm_v5,2020.2.10,Win32,60,61025ae37ef11b136ea224fe,,,,,,,,,1496,55,81,1,0,0,response1disk,,7,14,-6,1,0,0,rectangle,14,-6,1,0,0,14,-6,1,0,0,1,80,240,56,1,,,,,,,,
,,,,,,,,,,,,,FF,,,,,,,,1.0686,,,,,,,,,,,,,,,,,,,,,,60feedc9ecfddadc0746e98f,61036c1c7d4c69350054cb29,2021-07-29_20h06.00.898,Simcolourproject_2stim_asymm_v5,2020.2.10,Win32,60,61025ae37ef11b136ea224fe,,,,,,,,,3107,69.5,-47.5,1,0,0,response3disk,,5,-10,-0.5,1,0,0,rectangle,-10,-0.5,1,0,0,-10,-0.5,1,0,0,1,81,241,157,1,,,,,,,,
,,,,,,,,,,,,,FF,,,,,,,,3.2531,,,,,,,,,,,,,,,,,,,,,,60feedc9ecfddadc0746e98f,61036c1c7d4c69350054cb29,2021-07-29_20h06.00.898,Simcolourproject_2stim_asymm_v5,2020.2.10,Win32,60,61025ae37ef11b136ea224fe,,,,,,,,,3742,-61.5,39.5,1,0,0,response7disk,,1,-1.5,1,1,0,0,rectangle,-1.5,1,1,0,0,-1.5,1,1,0,0,1,82,242,110,1,,,,,,,,
,,,,,,,,,,,,,FF,,,,,,,,1.0203,,,,,,,,,,,,,,,,,,,,,,60feedc9ecfddadc0746e98f,61036c1c7d4c69350054cb29,2021-07-29_20h06.00.898,Simcolourproject_2stim_asymm_v5,2020.2.10,Win32,60,61025ae37ef11b136ea224fe,,,,,,,,,398,38,73,1,0,0,response1disk,,7,8.5,-4.5,1,0,0,rectangle,8.5,-4.5,1,0,0,8.5,-4.5,1,0,0,1,83,243,0,1,,,,,,,,
,,,,,,,,,,,,,FF,,,,,,,,1.2942,,,,,,,,,,,,,,,,,,,,,,60feedc9ecfddadc0746e98f,61036c1c7d4c69350054cb29,2021-07-29_20h06.00.898,Simcolourproject_2stim_asymm_v5,2020.2.10,Win32,60,61025ae37ef11b136ea224fe,,,,,,,,,1096,25.5,56.5,1,0,0,response1disk,,7,8,-2.5,1,0,0,rectangle,8,-2.5,1,0,0,8,-2.5,1,0,0,1,84,244,141,1,,,,,,,,
,,,,,,,,,,,,,FF,,,,,,,,1.644,,,,,,,,,,,,,,,,,,,,,,60feedc9ecfddadc0746e98f,61036c1c7d4c69350054cb29,2021-07-29_20h06.00.898,Simcolourproject_2stim_asymm_v5,2020.2.10,Win32,60,61025ae37ef11b136ea224fe,,,,,,,,,4168,-64,35,1,0,0,response7disk,,1,12.5,-7,1,0,0,rectangle,12.5,-7,1,0,0,12.5,-7,1,0,0,1,85,245,125,1,,,,,,,,
,,,,,,,,,,,,,FF,,,,,,,,0.9193,,,,,,,,,,,,,,,,,,,,,,60feedc9ecfddadc0746e98f,61036c1c7d4c69350054cb29,2021-07-29_20h06.00.898,Simcolourproject_2stim_asymm_v5,2020.2.10,Win32,60,61025ae37ef11b136ea224fe,,,,,,,,,2014,28,56.5,1,0,0,response1disk,,7,9.5,1,1,0,0,rectangle,9.5,1,1,0,0,9.5,1,1,0,0,1,86,246,91,1,,,,,,,,
,,,,,,,,,,,,,FF,,,,,,,,0.8014,,,,,,,,,,,,,,,,,,,,,,60feedc9ecfddadc0746e98f,61036c1c7d4c69350054cb29,2021-07-29_20h06.00.898,Simcolourproject_2stim_asymm_v5,2020.2.10,Win32,60,61025ae37ef11b136ea224fe,,,,,,,,,3137,34.5,57.5,1,0,0,response1disk,,7,10,-3.5,1,0,0,rectangle,10,-3.5,1,0,0,10,-3.5,1,0,0,1,87,247,81,1,,,,,,,,
,,,,,,,,,,,,,FF,,,,,,,,1.4247,,,,,,,,,,,,,,,,,,,,,,60feedc9ecfddadc0746e98f,61036c1c7d4c69350054cb29,2021-07-29_20h06.00.898,Simcolourproject_2stim_asymm_v5,2020.2.10,Win32,60,61025ae37ef11b136ea224fe,,,,,,,,,454,41,88.5,1,0,0,response1disk,,7,-2,2,1,0,0,rectangle,52.5,38.5,1,0,0,-2.5,-1.5,1,0,0,1,88,248,24,1,,response1disk_3,TRUE,6,6,"[73,117,133,265,64,21,236,238,277,160,112,313,20,185,5,84,199,59,249,265]",2.3091,rectangle
,,,,,,,,,,,,,FF,,,,,,,,1.1527,,,,,,,,,,,,,,,,,,,,,,60feedc9ecfddadc0746e98f,61036c1c7d4c69350054cb29,2021-07-29_20h06.00.898,Simcolourproject_2stim_asymm_v5,2020.2.10,Win32,60,61025ae37ef11b136ea224fe,,,,,,,,,1767,49,35,1,0,0,response1disk,,6,-5,-1.5,1,0,0,rectangle,-5,-1.5,1,0,0,-5,-1.5,1,0,0,1,89,249,155,1,,,,,,,,
,,,,,,,,,,,,,FF,,,,,,,,0.9531,,,,,,,,,,,,,,,,,,,,,,60feedc9ecfddadc0746e98f,61036c1c7d4c69350054cb29,2021-07-29_20h06.00.898,Simcolourproject_2stim_asymm_v5,2020.2.10,Win32,60,61025ae37ef11b136ea224fe,,,,,,,,,597,42,74,1,0,0,response1disk,,7,2,7.5,1,0,0,rectangle,2,7.5,1,0,0,2,7.5,1,0,0,1,90,250,98,1,,,,,,,,
,,,,,,,,,,,,,FF,,,,,,,,0.8953,,,,,,,,,,,,,,,,,,,,,,60feedc9ecfddadc0746e98f,61036c1c7d4c69350054cb29,2021-07-29_20h06.00.898,Simcolourproject_2stim_asymm_v5,2020.2.10,Win32,60,61025ae37ef11b136ea224fe,,,,,,,,,2820,29.5,55,1,0,0,response1disk,,7,9,4,1,0,0,rectangle,9,4,1,0,0,9,4,1,0,0,1,91,251,126,1,,,,,,,,
,,,,,,,,,,,,,FF,,,,,,,,1.0466,,,,,,,,,,,,,,,,,,,,,,60feedc9ecfddadc0746e98f,61036c1c7d4c69350054cb29,2021-07-29_20h06.00.898,Simcolourproject_2stim_asymm_v5,2020.2.10,Win32,60,61025ae37ef11b136ea224fe,,,,,,,,,147,29,60.5,1,0,0,response1disk,,7,2,7,1,0,0,rectangle,2,7,1,0,0,2,7,1,0,0,1,92,252,39,1,,,,,,,,
,,,,,,,,,,,,,FF,,,,,,,,0.9347,,,,,,,,,,,,,,,,,,,,,,60feedc9ecfddadc0746e98f,61036c1c7d4c69350054cb29,2021-07-29_20h06.00.898,Simcolourproject_2stim_asymm_v5,2020.2.10,Win32,60,61025ae37ef11b136ea224fe,,,,,,,,,3906,-71.5,45.5,1,0,0,response7disk,,1,-5.5,1,1,0,0,rectangle,-5.5,1,1,0,0,-5.5,1,1,0,0,1,93,253,147,1,,,,,,,,
,,,,,,,,,,,,,FF,,,,,,,,1.0087,,,,,,,,,,,,,,,,,,,,,,60feedc9ecfddadc0746e98f,61036c1c7d4c69350054cb29,2021-07-29_20h06.00.898,Simcolourproject_2stim_asymm_v5,2020.2.10,Win32,60,61025ae37ef11b136ea224fe,,,,,,,,,4173,21.5,53,1,0,0,response1disk,,7,-2.5,2,1,0,0,rectangle,-2.5,2,1,0,0,-2.5,2,1,0,0,1,94,254,129,1,,,,,,,,
,,,,,,,,,,,,,FF,,,,,,,,0.809,,,,,,,,,,,,,,,,,,,,,,60feedc9ecfddadc0746e98f,61036c1c7d4c69350054cb29,2021-07-29_20h06.00.898,Simcolourproject_2stim_asymm_v5,2020.2.10,Win32,60,61025ae37ef11b136ea224fe,,,,,,,,,3051,52.5,24.5,1,0,0,response1disk,,6,1,-1.5,1,0,0,rectangle,1,-1.5,1,0,0,1,-1.5,1,0,0,1,95,255,121,1,,,,,,,,
,,,,,,,,,,,,,FF,,,,,,,,0.785,,,,,,,,,,,,,,,,,,,,,,60feedc9ecfddadc0746e98f,61036c1c7d4c69350054cb29,2021-07-29_20h06.00.898,Simcolourproject_2stim_asymm_v5,2020.2.10,Win32,60,61025ae37ef11b136ea224fe,,,,,,,,,2501,40,38.5,1,0,0,response1disk,,6,2.5,5.5,1,0,0,rectangle,2.5,5.5,1,0,0,2.5,5.5,1,0,0,1,96,256,120,1,,,,,,,,
,,,,,,,,,,,,,FF,,,,,,,,0.9179,,,,,,,,,,,,,,,,,,,,,,60feedc9ecfddadc0746e98f,61036c1c7d4c69350054cb29,2021-07-29_20h06.00.898,Simcolourproject_2stim_asymm_v5,2020.2.10,Win32,60,61025ae37ef11b136ea224fe,,,,,,,,,2638,32.5,79,1,0,0,response1disk,,7,-8,-5,1,0,0,rectangle,-8,-5,1,0,0,-8,-5,1,0,0,1,97,257,8,1,,,,,,,,
,,,,,,,,,,,,,FF,,,,,,,,0.9639,,,,,,,,,,,,,,,,,,,,,,60feedc9ecfddadc0746e98f,61036c1c7d4c69350054cb29,2021-07-29_20h06.00.898,Simcolourproject_2stim_asymm_v5,2020.2.10,Win32,60,61025ae37ef11b136ea224fe,,,,,,,,,2891,70.5,-42,1,0,0,response3disk,,5,-4,6.5,1,0,0,rectangle,-4,6.5,1,0,0,-4,6.5,1,0,0,1,98,258,45,1,,,,,,,,
,,,,,,,,,,,,,FF,,,,,,,,1.5519,,,,,,,,,,,,,,,,,,,,,,60feedc9ecfddadc0746e98f,61036c1c7d4c69350054cb29,2021-07-29_20h06.00.898,Simcolourproject_2stim_asymm_v5,2020.2.10,Win32,60,61025ae37ef11b136ea224fe,,,,,,,,,1007,46.5,76.5,1,0,0,response1disk,,7,0.5,3,1,0,0,rectangle,0.5,3,1,0,0,0.5,3,1,0,0,1,99,259,114,1,,,,,,,,
,,,,,,,,,,,,,FF,,,,,,,,0.9513,,,,,,,,,,,,,,,,,,,,,,60feedc9ecfddadc0746e98f,61036c1c7d4c69350054cb29,2021-07-29_20h06.00.898,Simcolourproject_2stim_asymm_v5,2020.2.10,Win32,60,61025ae37ef11b136ea224fe,,,,,,,,,296,70.5,23,1,0,0,response1disk,,6,-8,-3,1,0,0,rectangle,-8,-3,1,0,0,-8,-3,1,0,0,1,100,260,119,1,,,,,,,,
,,,,,,,,,,,,,FF,,,,,,,,0.8028,,,,,,,,,,,,,,,,,,,,,,60feedc9ecfddadc0746e98f,61036c1c7d4c69350054cb29,2021-07-29_20h06.00.898,Simcolourproject_2stim_asymm_v5,2020.2.10,Win32,60,61025ae37ef11b136ea224fe,,,,,,,,,1357,56,36.5,1,0,0,response1disk,,6,-3,-5.5,1,0,0,rectangle,-3,-5.5,1,0,0,-3,-5.5,1,0,0,1,101,261,68,1,,,,,,,,
,,,,,,,,,,,,,FF,,,,,,,,0.9602,,,,,,,,,,,,,,,,,,,,,,60feedc9ecfddadc0746e98f,61036c1c7d4c69350054cb29,2021-07-29_20h06.00.898,Simcolourproject_2stim_asymm_v5,2020.2.10,Win32,60,61025ae37ef11b136ea224fe,,,,,,,,,755,22.5,59,1,0,0,response1disk,,7,12.5,-3,1,0,0,rectangle,12.5,-3,1,0,0,12.5,-3,1,0,0,1,102,262,137,1,,,,,,,,
,,,,,,,,,,,,,FF,,,,,,,,0.8904,,,,,,,,,,,,,,,,,,,,,,60feedc9ecfddadc0746e98f,61036c1c7d4c69350054cb29,2021-07-29_20h06.00.898,Simcolourproject_2stim_asymm_v5,2020.2.10,Win32,60,61025ae37ef11b136ea224fe,,,,,,,,,1055,58.5,29,1,0,0,response1disk,,6,5,-3,1,0,0,rectangle,5,-3,1,0,0,5,-3,1,0,0,1,103,263,27,1,,,,,,,,
,,,,,,,,,,,,,FF,,,,,,,,1.4016,,,,,,,,,,,,,,,,,,,,,,60feedc9ecfddadc0746e98f,61036c1c7d4c69350054cb29,2021-07-29_20h06.00.898,Simcolourproject_2stim_asymm_v5,2020.2.10,Win32,60,61025ae37ef11b136ea224fe,,,,,,,,,2395,26.5,56.5,1,0,0,response1disk,,7,17,-4.5,1,0,0,rectangle,107.5,38,1,0,0,-12.5,-5.5,1,0,0,1,104,264,145,1,,response1disk_3,TRUE,6,6,"[73,117,133,265,64,21,236,238,277,160,112,313,20,185,5,84,199,59,249,265]",1.7015,rectangle
,,,,,,,,,,,,,FF,,,,,,,,1.8187,,,,,,,,,,,,,,,,,,,,,,60feedc9ecfddadc0746e98f,61036c1c7d4c69350054cb29,2021-07-29_20h06.00.898,Simcolourproject_2stim_asymm_v5,2020.2.10,Win32,60,61025ae37ef11b136ea224fe,,,,,,,,,427,62,36.5,1,0,0,response1disk,,6,-1.5,-13,1,0,0,rectangle,-1.5,-13,1,0,0,-1.5,-13,1,0,0,1,105,265,38,1,,,,,,,,
,,,,,,,,,,,,,FF,,,,,,,,0.8955,,,,,,,,,,,,,,,,,,,,,,60feedc9ecfddadc0746e98f,61036c1c7d4c69350054cb29,2021-07-29_20h06.00.898,Simcolourproject_2stim_asymm_v5,2020.2.10,Win32,60,61025ae37ef11b136ea224fe,,,,,,,,,1777,69.5,36.5,1,0,0,response1disk,,6,-3.5,3.5,1,0,0,rectangle,-3.5,3.5,1,0,0,-3.5,3.5,1,0,0,1,106,266,151,1,,,,,,,,
,,,,,,,,,,,,,FF,,,,,,,,1.5196,,,,,,,,,,,,,,,,,,,,,,60feedc9ecfddadc0746e98f,61036c1c7d4c69350054cb29,2021-07-29_20h06.00.898,Simcolourproject_2stim_asymm_v5,2020.2.10,Win32,60,61025ae37ef11b136ea224fe,,,,,,,,,320,47.5,84,1,0,0,response1disk,,7,-8.5,-1,1,0,0,rectangle,-8.5,-1,1,0,0,-8.5,-1,1,0,0,1,107,267,17,1,,,,,,,,
,,,,,,,,,,,,,FF,,,,,,,,2.0015,,,,,,,,,,,,,,,,,,,,,,60feedc9ecfddadc0746e98f,61036c1c7d4c69350054cb29,2021-07-29_20h06.00.898,Simcolourproject_2stim_asymm_v5,2020.2.10,Win32,60,61025ae37ef11b136ea224fe,,,,,,,,,3220,45.5,66.5,1,0,0,response1disk,,7,-8,3,1,0,0,rectangle,-8,3,1,0,0,-8,3,1,0,0,1,108,268,34,1,,,,,,,,
,,,,,,,,,,,,,FF,,,,,,,,1.5409,,,,,,,,,,,,,,,,,,,,,,60feedc9ecfddadc0746e98f,61036c1c7d4c69350054cb29,2021-07-29_20h06.00.898,Simcolourproject_2stim_asymm_v5,2020.2.10,Win32,60,61025ae37ef11b136ea224fe,,,,,,,,,3747,31,-66.5,1,0,0,response3disk,,4,-9,-0.5,1,0,0,rectangle,-9,-0.5,1,0,0,-9,-0.5,1,0,0,1,109,269,3,1,,,,,,,,
,,,,,,,,,,,,,FF,,,,,,,,0.9653,,,,,,,,,,,,,,,,,,,,,,60feedc9ecfddadc0746e98f,61036c1c7d4c69350054cb29,2021-07-29_20h06.00.898,Simcolourproject_2stim_asymm_v5,2020.2.10,Win32,60,61025ae37ef11b136ea224fe,,,,,,,,,623,42.5,83,1,0,0,response1disk,,7,3.5,9,1,0,0,rectangle,3.5,9,1,0,0,3.5,9,1,0,0,1,110,270,85,1,,,,,,,,
,,,,,,,,,,,,,FF,,,,,,,,1.0941,,,,,,,,,,,,,,,,,,,,,,60feedc9ecfddadc0746e98f,61036c1c7d4c69350054cb29,2021-07-29_20h06.00.898,Simcolourproject_2stim_asymm_v5,2020.2.10,Win32,60,61025ae37ef11b136ea224fe,,,,,,,,,3421,31.5,72.5,1,0,0,response1disk,,7,1.5,3,1,0,0,rectangle,1.5,3,1,0,0,1.5,3,1,0,0,1,111,271,103,1,,,,,,,,
,,,,,,,,,,,,,FF,,,,,,,,0.8763,,,,,,,,,,,,,,,,,,,,,,60feedc9ecfddadc0746e98f,61036c1c7d4c69350054cb29,2021-07-29_20h06.00.898,Simcolourproject_2stim_asymm_v5,2020.2.10,Win32,60,61025ae37ef11b136ea224fe,,,,,,,,,501,37.5,69,1,0,0,response1disk,,7,3.5,-2,1,0,0,rectangle,3.5,-2,1,0,0,3.5,-2,1,0,0,1,112,272,53,1,,,,,,,,
,,,,,,,,,,,,,FF,,,,,,,,1.3682,,,,,,,,,,,,,,,,,,,,,,60feedc9ecfddadc0746e98f,61036c1c7d4c69350054cb29,2021-07-29_20h06.00.898,Simcolourproject_2stim_asymm_v5,2020.2.10,Win32,60,61025ae37ef11b136ea224fe,,,,,,,,,1218,58,-39.5,1,0,0,response3disk,,5,-8.5,1.5,1,0,0,rectangle,-8.5,1.5,1,0,0,-8.5,1.5,1,0,0,1,113,273,33,1,,,,,,,,
,,,,,,,,,,,,,FF,,,,,,,,0.9101,,,,,,,,,,,,,,,,,,,,,,60feedc9ecfddadc0746e98f,61036c1c7d4c69350054cb29,2021-07-29_20h06.00.898,Simcolourproject_2stim_asymm_v5,2020.2.10,Win32,60,61025ae37ef11b136ea224fe,,,,,,,,,2103,79,-29,1,0,0,response3disk,,5,3,3.5,1,0,0,rectangle,3,3.5,1,0,0,3,3.5,1,0,0,1,114,274,112,1,,,,,,,,
,,,,,,,,,,,,,FF,,,,,,,,0.887,,,,,,,,,,,,,,,,,,,,,,60feedc9ecfddadc0746e98f,61036c1c7d4c69350054cb29,2021-07-29_20h06.00.898,Simcolourproject_2stim_asymm_v5,2020.2.10,Win32,60,61025ae37ef11b136ea224fe,,,,,,,,,2830,30.5,58.5,1,0,0,response1disk,,7,5,4.5,1,0,0,rectangle,5,4.5,1,0,0,5,4.5,1,0,0,1,115,275,94,1,,,,,,,,
,,,,,,,,,,,,,FF,,,,,,,,1.1024,,,,,,,,,,,,,,,,,,,,,,60feedc9ecfddadc0746e98f,61036c1c7d4c69350054cb29,2021-07-29_20h06.00.898,Simcolourproject_2stim_asymm_v5,2020.2.10,Win32,60,61025ae37ef11b136ea224fe,,,,,,,,,3651,24.5,65,1,0,0,response1disk,,7,1.5,1,1,0,0,rectangle,-41.5,-70,1,0,0,-10,1.5,1,0,0,1,116,276,83,1,,response5disk_3,TRUE,3,3,"[73,117,133,265,64,21,236,238,277,160,112,313,20,185,5,84,199,59,249,265]",1.9373,rectangle
,,,,,,,,,,,,,FF,,,,,,,,1.4188,,,,,,,,,,,,,,,,,,,,,,60feedc9ecfddadc0746e98f,61036c1c7d4c69350054cb29,2021-07-29_20h06.00.898,Simcolourproject_2stim_asymm_v5,2020.2.10,Win32,60,61025ae37ef11b136ea224fe,,,,,,,,,2879,64.5,36,1,0,0,response1disk,,6,-6,6,1,0,0,rectangle,-6,6,1,0,0,-6,6,1,0,0,1,117,277,135,1,,,,,,,,
,,,,,,,,,,,,,FF,,,,,,,,0.7539,,,,,,,,,,,,,,,,,,,,,,60feedc9ecfddadc0746e98f,61036c1c7d4c69350054cb29,2021-07-29_20h06.00.898,Simcolourproject_2stim_asymm_v5,2020.2.10,Win32,60,61025ae37ef11b136ea224fe,,,,,,,,,3616,31,61.5,1,0,0,response1disk,,7,7,6,1,0,0,rectangle,7,6,1,0,0,7,6,1,0,0,1,118,278,80,1,,,,,,,,
,,,,,,,,,,,,,FF,,,,,,,,0.7885,,,,,,,,,,,,,,,,,,,,,,60feedc9ecfddadc0746e98f,61036c1c7d4c69350054cb29,2021-07-29_20h06.00.898,Simcolourproject_2stim_asymm_v5,2020.2.10,Win32,60,61025ae37ef11b136ea224fe,,,,,,,,,3890,37.5,78,1,0,0,response1disk,,7,4.5,0.5,1,0,0,rectangle,4.5,0.5,1,0,0,4.5,0.5,1,0,0,1,119,279,101,1,,,,,,,,
,,,,,,,,,,,,,FF,,,,,,,,2.0269,,,,,,,,,,,,,,,,,,,,,,60feedc9ecfddadc0746e98f,61036c1c7d4c69350054cb29,2021-07-29_20h06.00.898,Simcolourproject_2stim_asymm_v5,2020.2.10,Win32,60,61025ae37ef11b136ea224fe,,,,,,,,,251,39,78.5,1,0,0,response1disk,,7,-0.5,2.5,1,0,0,rectangle,-0.5,2.5,1,0,0,-0.5,2.5,1,0,0,1,120,280,69,1,,,,,,,,
,,,,,,,,,,,,,FF,,,,,,,,0.7693,,,,,,,,,,,,,,,,,,,,,,60feedc9ecfddadc0746e98f,61036c1c7d4c69350054cb29,2021-07-29_20h06.00.898,Simcolourproject_2stim_asymm_v5,2020.2.10,Win32,60,61025ae37ef11b136ea224fe,,,,,,,,,3277,23.5,82,1,0,0,response1disk,,7,1.5,-5,1,0,0,rectangle,1.5,-5,1,0,0,1.5,-5,1,0,0,1,121,281,144,1,,,,,,,,
,,,,,,,,,,,,,FF,,,,,,,,3.8384,,,,,,,,,,,,,,,,,,,,,,60feedc9ecfddadc0746e98f,61036c1c7d4c69350054cb29,2021-07-29_20h06.00.898,Simcolourproject_2stim_asymm_v5,2020.2.10,Win32,60,61025ae37ef11b136ea224fe,,,,,,,,,248,92,39,1,0,0,response1disk,,6,0.5,3.5,1,0,0,rectangle,0.5,3.5,1,0,0,0.5,3.5,1,0,0,1,122,282,86,1,,,,,,,,
,,,,,,,,,,,,,FF,,,,,,,,4.4719,,,,,,,,,,,,,,,,,,,,,,60feedc9ecfddadc0746e98f,61036c1c7d4c69350054cb29,2021-07-29_20h06.00.898,Simcolourproject_2stim_asymm_v5,2020.2.10,Win32,60,61025ae37ef11b136ea224fe,,,,,,,,,15,74,42.5,1,0,0,response1disk,,6,-7.5,0.5,1,0,0,rectangle,-7.5,0.5,1,0,0,-7.5,0.5,1,0,0,1,123,283,22,1,,,,,,,,
,,,,,,,,,,,,,FF,,,,,,,,0.7837,,,,,,,,,,,,,,,,,,,,,,60feedc9ecfddadc0746e98f,61036c1c7d4c69350054cb29,2021-07-29_20h06.00.898,Simcolourproject_2stim_asymm_v5,2020.2.10,Win32,60,61025ae37ef11b136ea224fe,,,,,,,,,3857,75.5,38,1,0,0,response1disk,,6,-20.5,11,1,0,0,rectangle,-20.5,11,1,0,0,-20.5,11,1,0,0,1,124,284,95,1,,,,,,,,
,,,,,,,,,,,,,FF,,,,,,,,0.8349,,,,,,,,,,,,,,,,,,,,,,60feedc9ecfddadc0746e98f,61036c1c7d4c69350054cb29,2021-07-29_20h06.00.898,Simcolourproject_2stim_asymm_v5,2020.2.10,Win32,60,61025ae37ef11b136ea224fe,,,,,,,,,950,69.5,46,1,0,0,response1disk,,6,-12,-6.5,1,0,0,rectangle,-12,-6.5,1,0,0,-12,-6.5,1,0,0,1,125,285,79,1,,,,,,,,
,,,,,,,,,,,,,FF,,,,,,,,2.6868,,,,,,,,,,,,,,,,,,,,,,60feedc9ecfddadc0746e98f,61036c1c7d4c69350054cb29,2021-07-29_20h06.00.898,Simcolourproject_2stim_asymm_v5,2020.2.10,Win32,60,61025ae37ef11b136ea224fe,,,,,,,,,1077,73.5,50.5,1,0,0,response1disk,,6,3,1.5,1,0,0,rectangle,3,1.5,1,0,0,3,1.5,1,0,0,1,126,286,74,1,,,,,,,,
,,,,,,,,,,,,,FF,,,,,,,,0.9346,,,,,,,,,,,,,,,,,,,,,,60feedc9ecfddadc0746e98f,61036c1c7d4c69350054cb29,2021-07-29_20h06.00.898,Simcolourproject_2stim_asymm_v5,2020.2.10,Win32,60,61025ae37ef11b136ea224fe,,,,,,,,,1595,42,62,1,0,0,response1disk,,7,-11,4,1,0,0,rectangle,-11,4,1,0,0,-11,4,1,0,0,1,127,287,41,1,,,,,,,,
,,,,,,,,,,,,,FF,,,,,,,,4.1547,,,,,,,,,,,,,,,,,,,,,,60feedc9ecfddadc0746e98f,61036c1c7d4c69350054cb29,2021-07-29_20h06.00.898,Simcolourproject_2stim_asymm_v5,2020.2.10,Win32,60,61025ae37ef11b136ea224fe,,,,,,,,,2238,68.5,-36,1,0,0,response3disk,,5,-7,2.5,1,0,0,rectangle,-7,2.5,1,0,0,-7,2.5,1,0,0,1,128,288,66,1,,,,,,,,
,,,,,,,,,,,,,FF,,,,,,,,1.1294,,,,,,,,,,,,,,,,,,,,,,60feedc9ecfddadc0746e98f,61036c1c7d4c69350054cb29,2021-07-29_20h06.00.898,Simcolourproject_2stim_asymm_v5,2020.2.10,Win32,60,61025ae37ef11b136ea224fe,,,,,,,,,3151,96,-44,1,0,0,response3disk,,5,-2,2.5,1,0,0,rectangle,-2,2.5,1,0,0,-2,2.5,1,0,0,1,129,289,50,1,,,,,,,,
,,,,,,,,,,,,,FF,,,,,,,,0.8434,,,,,,,,,,,,,,,,,,,,,,60feedc9ecfddadc0746e98f,61036c1c7d4c69350054cb29,2021-07-29_20h06.00.898,Simcolourproject_2stim_asymm_v5,2020.2.10,Win32,60,61025ae37ef11b136ea224fe,,,,,,,,,2951,92,-43,1,0,0,response3disk,,5,-9,14,1,0,0,rectangle,-9,14,1,0,0,-9,14,1,0,0,1,130,290,71,1,,,,,,,,
,,,,,,,,,,,,,FF,,,,,,,,1.503,,,,,,,,,,,,,,,,,,,,,,60feedc9ecfddadc0746e98f,61036c1c7d4c69350054cb29,2021-07-29_20h06.00.898,Simcolourproject_2stim_asymm_v5,2020.2.10,Win32,60,61025ae37ef11b136ea224fe,,,,,,,,,3807,91.5,-53.5,1,0,0,response3disk,,5,2.5,3.5,1,0,0,rectangle,2.5,3.5,1,0,0,2.5,3.5,1,0,0,1,131,291,115,1,,,,,,,,
,,,,,,,,,,,,,FF,,,,,,,,1.2922,,,,,,,,,,,,,,,,,,,,,,60feedc9ecfddadc0746e98f,61036c1c7d4c69350054cb29,2021-07-29_20h06.00.898,Simcolourproject_2stim_asymm_v5,2020.2.10,Win32,60,61025ae37ef11b136ea224fe,,,,,,,,,717,-90,-42,1,0,0,response5disk,,2,-11,-5.5,1,0,0,rectangle,-11,-5.5,1,0,0,-11,-5.5,1,0,0,1,132,292,29,1,,,,,,,,
,,,,,,,,,,,,,FF,,,,,,,,1.8711,,,,,,,,,,,,,,,,,,,,,,60feedc9ecfddadc0746e98f,61036c1c7d4c69350054cb29,2021-07-29_20h06.00.898,Simcolourproject_2stim_asymm_v5,2020.2.10,Win32,60,61025ae37ef11b136ea224fe,,,,,,,,,3567,-30.5,-99.5,1,0,0,response5disk,,3,4.5,-3.5,1,0,0,rectangle,4.5,-3.5,1,0,0,4.5,-3.5,1,0,0,1,133,293,128,1,,,,,,,,
,,,,,,,,,,,,,FF,,,,,,,,2.8032,,,,,,,,,,,,,,,,,,,,,,60feedc9ecfddadc0746e98f,61036c1c7d4c69350054cb29,2021-07-29_20h06.00.898,Simcolourproject_2stim_asymm_v5,2020.2.10,Win32,60,61025ae37ef11b136ea224fe,,,,,,,,,2633,28,83.5,1,0,0,response1disk,,7,10,-11,1,0,0,rectangle,10,-11,1,0,0,10,-11,1,0,0,1,134,294,70,1,,,,,,,,
,,,,,,,,,,,,,FF,,,,,,,,0.8515,,,,,,,,,,,,,,,,,,,,,,60feedc9ecfddadc0746e98f,61036c1c7d4c69350054cb29,2021-07-29_20h06.00.898,Simcolourproject_2stim_asymm_v5,2020.2.10,Win32,60,61025ae37ef11b136ea224fe,,,,,,,,,420,79.5,26.5,1,0,0,response1disk,,6,0,1.5,1,0,0,rectangle,0,1.5,1,0,0,0,1.5,1,0,0,1,135,295,10,1,,,,,,,,
,,,,,,,,,,,,,FF,,,,,,,,0.7854,,,,,,,,,,,,,,,,,,,,,,60feedc9ecfddadc0746e98f,61036c1c7d4c69350054cb29,2021-07-29_20h06.00.898,Simcolourproject_2stim_asymm_v5,2020.2.10,Win32,60,61025ae37ef11b136ea224fe,,,,,,,,,3355,75.5,36.5,1,0,0,response1disk,,6,9,2,1,0,0,rectangle,9,2,1,0,0,9,2,1,0,0,1,136,296,48,1,,,,,,,,
