key_resp.keys,key_resp.rt,key_resp_14.keys,key_resp_14.rt,key_resp_15.keys,key_resp_15.rt,key_resp_17.keys,key_resp_17.rt,key_resp_9.keys,key_resp_9.rt,key_resp_10.keys,key_resp_10.rt,practice_comparison,Ecc,mouse_5.x,mouse_5.y,mouse_5.leftButton,mouse_5.midButton,mouse_5.rightButton,mouse_5.clicked_name,pracsimilarity,response_time,mouse_10.x,mouse_10.y,mouse_10.leftButton,mouse_10.midButton,mouse_10.rightButton,mouse_10.clicked_name,mouse_7.x,mouse_7.y,mouse_7.leftButton,mouse_7.midButton,mouse_7.rightButton,mouse_6.x,mouse_6.y,mouse_6.leftButton,mouse_6.midButton,mouse_6.rightButton,duringprac.thisRepN,duringprac.thisTrialN,duringprac.thisN,duringprac.thisIndex,duringprac.ran,participant,session,date,expName,psychopyVersion,OS,frameRate,study_id,mouse_7.clicked_name,catchpracsimilarity,catch_response_time,catchnumberprac,catchtrialorderprac,mouse_6.clicked_name,key_resp_22.keys,key_resp_22.rt,realcomparison,mouse.x,mouse.y,mouse.leftButton,mouse.midButton,mouse.rightButton,mouse.clicked_name,Colour2,similarity,mouse_2.x,mouse_2.y,mouse_2.leftButton,mouse_2.midButton,mouse_2.rightButton,mouse_2.clicked_name,mouse_3.x,mouse_3.y,mouse_3.leftButton,mouse_3.midButton,mouse_3.rightButton,mouse_11.x,mouse_11.y,mouse_11.leftButton,mouse_11.midButton,mouse_11.rightButton,trials_2.thisRepN,trials_2.thisTrialN,trials_2.thisN,trials_2.thisIndex,trials_2.ran,Colour1,mouse_3.clicked_name,catchornah,catchsimilarity,catchnumber,catchtrialorder,catchRT,mouse_11.clicked_name
space,1.0426,space,1.3161,space,27.5146,space,1.5667,space,0.784,space,2.8438,31,FF,-54.7265625,99.83984375,1,0,0,response7disk_5,0,10.5487,-13.74609375,-3.4296875,1,0,0,rectangle_8,-13.74609375,-3.4296875,1,0,0,-13.74609375,-3.4296875,1,0,0,0,0,0,3,1,60fe310d963e64b57e9d10a8,610377c86d97b3a2a315b060,2021-07-29_23h56.17.266,Simcolourproject_2stim_asymm_v5,2020.2.10,MacIntel,60,61025ae37ef11b136ea224fe,,,,,,,,,,,,,,,,,,,,,,,,,,,,,,,,,,,,,,,,,,,,,,
,,,,,,,,,,,,119,PF,40.0234375,71.78515625,1,0,0,response1disk_5,7,3.7168,-16.13671875,-4.13671875,1,0,0,rectangle_8,59.7109375,114.2226563,1,0,0,4.32421875,-15.4921875,1,0,0,0,1,1,2,1,60fe310d963e64b57e9d10a8,610377c86d97b3a2a315b060,2021-07-29_23h56.17.266,Simcolourproject_2stim_asymm_v5,2020.2.10,MacIntel,60,61025ae37ef11b136ea224fe,response1disk_7,7,1.7834,7,"[2,5]",rectangle_4,,,,,,,,,,,,,,,,,,,,,,,,,,,,,,,,,,,,,,,,
,,,,,,,,,,,,18,PF,-55.44140625,-84.23046875,1,0,0,response5disk_5,3,2.65,-13.8203125,-4.01953125,1,0,0,rectangle_8,-13.8203125,-4.01953125,1,0,0,-13.8203125,-4.01953125,1,0,0,0,2,2,6,1,60fe310d963e64b57e9d10a8,610377c86d97b3a2a315b060,2021-07-29_23h56.17.266,Simcolourproject_2stim_asymm_v5,2020.2.10,MacIntel,60,61025ae37ef11b136ea224fe,,,,,,,,,,,,,,,,,,,,,,,,,,,,,,,,,,,,,,,,,,,,,,
,,,,,,,,,,,,112,FF,-37.2421875,-68.703125,1,0,0,response5disk_5,3,10.9161,-15.875,2.3125,1,0,0,rectangle_8,-15.875,2.3125,1,0,0,-15.875,2.3125,1,0,0,0,3,3,0,1,60fe310d963e64b57e9d10a8,610377c86d97b3a2a315b060,2021-07-29_23h56.17.266,Simcolourproject_2stim_asymm_v5,2020.2.10,MacIntel,60,61025ae37ef11b136ea224fe,,,,,,,,,,,,,,,,,,,,,,,,,,,,,,,,,,,,,,,,,,,,,,
,,,,,,,,,,,,86,PF,107.6210938,-55.21875,1,0,0,response3disk_5,5,2.4656,4.96484375,-3.89453125,1,0,0,rectangle_8,37.1640625,85.50390625,1,0,0,8.76953125,-15.48828125,1,0,0,0,4,4,1,1,60fe310d963e64b57e9d10a8,610377c86d97b3a2a315b060,2021-07-29_23h56.17.266,Simcolourproject_2stim_asymm_v5,2020.2.10,MacIntel,60,61025ae37ef11b136ea224fe,response1disk_7,7,2.3504,7,"[2,5]",rectangle_4,,,,,,,,,,,,,,,,,,,,,,,,,,,,,,,,,,,,,,,,
,,,,,,,,,,,,21,PF,-35.3125,-76.578125,1,0,0,response5disk_5,3,2.9,9.2734375,-6.453125,1,0,0,rectangle_8,9.2734375,-6.453125,1,0,0,9.2734375,-6.453125,1,0,0,0,5,5,4,1,60fe310d963e64b57e9d10a8,610377c86d97b3a2a315b060,2021-07-29_23h56.17.266,Simcolourproject_2stim_asymm_v5,2020.2.10,MacIntel,60,61025ae37ef11b136ea224fe,,,,,,,,,,,,,,,,,,,,,,,,,,,,,,,,,,,,,,,,,,,,,,
,,,,,,,,,,,,59,FF,78.70703125,30.9140625,1,0,0,response1disk_5,6,1.2166,8.8671875,8.6328125,1,0,0,rectangle_8,8.8671875,8.6328125,1,0,0,8.8671875,8.6328125,1,0,0,0,6,6,5,1,60fe310d963e64b57e9d10a8,610377c86d97b3a2a315b060,2021-07-29_23h56.17.266,Simcolourproject_2stim_asymm_v5,2020.2.10,MacIntel,60,61025ae37ef11b136ea224fe,,,,,,,,,,,,,,,,,,,,,,,,,,,,,,,,,,,,,,,,,,,,,,
,,,,,,,,,,,,,FF,,,,,,,,1.332,,,,,,,,,,,,,,,,,,,,,,60fe310d963e64b57e9d10a8,610377c86d97b3a2a315b060,2021-07-29_23h56.17.266,Simcolourproject_2stim_asymm_v5,2020.2.10,MacIntel,60,61025ae37ef11b136ea224fe,,,,,,,space,2.2242,1379,28.1015625,-62.33203125,1,0,0,response3disk,,4,11.03125,-6.984375,1,0,0,rectangle,11.03125,-6.984375,1,0,0,11.03125,-6.984375,1,0,0,0,0,0,154,1,,,,,,,,
,,,,,,,,,,,,,FF,,,,,,,,1.0668,,,,,,,,,,,,,,,,,,,,,,60fe310d963e64b57e9d10a8,610377c86d97b3a2a315b060,2021-07-29_23h56.17.266,Simcolourproject_2stim_asymm_v5,2020.2.10,MacIntel,60,61025ae37ef11b136ea224fe,,,,,,,,,3123,53.78125,67.17578125,1,0,0,response1disk,,7,13.12109375,13.51953125,1,0,0,rectangle,13.12109375,13.51953125,1,0,0,13.12109375,13.51953125,1,0,0,0,1,1,141,1,,,,,,,,
,,,,,,,,,,,,,FF,,,,,,,,1.1491,,,,,,,,,,,,,,,,,,,,,,60fe310d963e64b57e9d10a8,610377c86d97b3a2a315b060,2021-07-29_23h56.17.266,Simcolourproject_2stim_asymm_v5,2020.2.10,MacIntel,60,61025ae37ef11b136ea224fe,,,,,,,,,420,108.2148438,34.38671875,1,0,0,response1disk,,6,24.734375,-0.41796875,1,0,0,rectangle,24.734375,-0.41796875,1,0,0,24.734375,-0.41796875,1,0,0,0,2,2,95,1,,,,,,,,
,,,,,,,,,,,,,FF,,,,,,,,1.4504,,,,,,,,,,,,,,,,,,,,,,60fe310d963e64b57e9d10a8,610377c86d97b3a2a315b060,2021-07-29_23h56.17.266,Simcolourproject_2stim_asymm_v5,2020.2.10,MacIntel,60,61025ae37ef11b136ea224fe,,,,,,,,,2336,50.6484375,36.37109375,1,0,0,response1disk,,6,-5.17578125,6.3203125,1,0,0,rectangle,-5.17578125,6.3203125,1,0,0,-5.17578125,6.3203125,1,0,0,0,3,3,33,1,,,,,,,,
,,,,,,,,,,,,,FF,,,,,,,,0.7499,,,,,,,,,,,,,,,,,,,,,,60fe310d963e64b57e9d10a8,610377c86d97b3a2a315b060,2021-07-29_23h56.17.266,Simcolourproject_2stim_asymm_v5,2020.2.10,MacIntel,60,61025ae37ef11b136ea224fe,,,,,,,,,700,-31.26953125,-63.703125,1,0,0,response5disk,,3,-19.39453125,-6.50390625,1,0,0,rectangle,-19.39453125,-6.50390625,1,0,0,-19.39453125,-6.50390625,1,0,0,0,4,4,7,1,,,,,,,,
,,,,,,,,,,,,,FF,,,,,,,,1.0841,,,,,,,,,,,,,,,,,,,,,,60fe310d963e64b57e9d10a8,610377c86d97b3a2a315b060,2021-07-29_23h56.17.266,Simcolourproject_2stim_asymm_v5,2020.2.10,MacIntel,60,61025ae37ef11b136ea224fe,,,,,,,,,494,81.24609375,-37.3125,1,0,0,response3disk,,5,18.4140625,-10.52734375,1,0,0,rectangle,18.4140625,-10.52734375,1,0,0,18.4140625,-10.52734375,1,0,0,0,5,5,25,1,,,,,,,,
,,,,,,,,,,,,,FF,,,,,,,,0.9826,,,,,,,,,,,,,,,,,,,,,,60fe310d963e64b57e9d10a8,610377c86d97b3a2a315b060,2021-07-29_23h56.17.266,Simcolourproject_2stim_asymm_v5,2020.2.10,MacIntel,60,61025ae37ef11b136ea224fe,,,,,,,,,2923,78.6796875,-37.4609375,1,0,0,response3disk,,5,6.7109375,1.1640625,1,0,0,rectangle,6.7109375,1.1640625,1,0,0,6.7109375,1.1640625,1,0,0,0,6,6,123,1,,,,,,,,
,,,,,,,,,,,,,FF,,,,,,,,0.7352,,,,,,,,,,,,,,,,,,,,,,60fe310d963e64b57e9d10a8,610377c86d97b3a2a315b060,2021-07-29_23h56.17.266,Simcolourproject_2stim_asymm_v5,2020.2.10,MacIntel,60,61025ae37ef11b136ea224fe,,,,,,,,,583,97.05078125,-60.33984375,1,0,0,response3disk,,5,-1.46484375,-6.97265625,1,0,0,rectangle,-1.46484375,-6.97265625,1,0,0,-1.46484375,-6.97265625,1,0,0,0,7,7,13,1,,,,,,,,
,,,,,,,,,,,,,FF,,,,,,,,1.0332,,,,,,,,,,,,,,,,,,,,,,60fe310d963e64b57e9d10a8,610377c86d97b3a2a315b060,2021-07-29_23h56.17.266,Simcolourproject_2stim_asymm_v5,2020.2.10,MacIntel,60,61025ae37ef11b136ea224fe,,,,,,,,,2258,81.4453125,19.734375,1,0,0,response1disk,,6,15.26953125,4.89453125,1,0,0,rectangle,15.26953125,4.89453125,1,0,0,15.26953125,4.89453125,1,0,0,0,8,8,73,1,,,,,,,,
,,,,,,,,,,,,,FF,,,,,,,,0.8835,,,,,,,,,,,,,,,,,,,,,,60fe310d963e64b57e9d10a8,610377c86d97b3a2a315b060,2021-07-29_23h56.17.266,Simcolourproject_2stim_asymm_v5,2020.2.10,MacIntel,60,61025ae37ef11b136ea224fe,,,,,,,,,2290,78.6328125,39.03125,1,0,0,response1disk,,6,25.76171875,15.47265625,1,0,0,rectangle,25.76171875,15.47265625,1,0,0,25.76171875,15.47265625,1,0,0,0,9,9,64,1,,,,,,,,
,,,,,,,,,,,,,FF,,,,,,,,1.0494,,,,,,,,,,,,,,,,,,,,,,60fe310d963e64b57e9d10a8,610377c86d97b3a2a315b060,2021-07-29_23h56.17.266,Simcolourproject_2stim_asymm_v5,2020.2.10,MacIntel,60,61025ae37ef11b136ea224fe,,,,,,,,,3545,-41.96875,-86.96484375,1,0,0,response5disk,,3,-18.40234375,-4.0625,1,0,0,rectangle,-18.40234375,-4.0625,1,0,0,-18.40234375,-4.0625,1,0,0,0,10,10,120,1,,,,,,,,
,,,,,,,,,,,,,FF,,,,,,,,2.5005,,,,,,,,,,,,,,,,,,,,,,60fe310d963e64b57e9d10a8,610377c86d97b3a2a315b060,2021-07-29_23h56.17.266,Simcolourproject_2stim_asymm_v5,2020.2.10,MacIntel,60,61025ae37ef11b136ea224fe,,,,,,,,,2578,65.40625,-47.29296875,1,0,0,response3disk,,5,-15.3359375,-7.296875,1,0,0,rectangle,-15.3359375,-7.296875,1,0,0,-15.3359375,-7.296875,1,0,0,0,11,11,32,1,,,,,,,,
,,,,,,,,,,,,,FF,,,,,,,,0.7834,,,,,,,,,,,,,,,,,,,,,,60fe310d963e64b57e9d10a8,610377c86d97b3a2a315b060,2021-07-29_23h56.17.266,Simcolourproject_2stim_asymm_v5,2020.2.10,MacIntel,60,61025ae37ef11b136ea224fe,,,,,,,,,2306,67.8203125,-39.38671875,1,0,0,response3disk,,5,5.578125,-11.28515625,1,0,0,rectangle,5.578125,-11.28515625,1,0,0,5.578125,-11.28515625,1,0,0,0,12,12,89,1,,,,,,,,
,,,,,,,,,,,,,FF,,,,,,,,0.8514,,,,,,,,,,,,,,,,,,,,,,60fe310d963e64b57e9d10a8,610377c86d97b3a2a315b060,2021-07-29_23h56.17.266,Simcolourproject_2stim_asymm_v5,2020.2.10,MacIntel,60,61025ae37ef11b136ea224fe,,,,,,,,,3890,-15.8984375,-47.53515625,1,0,0,response5disk,,3,13.59765625,-1.421875,1,0,0,rectangle,13.59765625,-1.421875,1,0,0,13.59765625,-1.421875,1,0,0,0,13,13,15,1,,,,,,,,
,,,,,,,,,,,,,FF,,,,,,,,1.0996,,,,,,,,,,,,,,,,,,,,,,60fe310d963e64b57e9d10a8,610377c86d97b3a2a315b060,2021-07-29_23h56.17.266,Simcolourproject_2stim_asymm_v5,2020.2.10,MacIntel,60,61025ae37ef11b136ea224fe,,,,,,,,,2699,46.33203125,76.81640625,1,0,0,response1disk,,7,-1.12890625,-13.09765625,1,0,0,rectangle,-1.12890625,-13.09765625,1,0,0,-1.12890625,-13.09765625,1,0,0,0,14,14,71,1,,,,,,,,
,,,,,,,,,,,,,FF,,,,,,,,1.2498,,,,,,,,,,,,,,,,,,,,,,60fe310d963e64b57e9d10a8,610377c86d97b3a2a315b060,2021-07-29_23h56.17.266,Simcolourproject_2stim_asymm_v5,2020.2.10,MacIntel,60,61025ae37ef11b136ea224fe,,,,,,,,,1533,51.3203125,21.99609375,1,0,0,response1disk,,6,-12.7109375,-2.609375,1,0,0,rectangle,-12.7109375,-2.609375,1,0,0,-12.7109375,-2.609375,1,0,0,0,15,15,39,1,,,,,,,,
,,,,,,,,,,,,,FF,,,,,,,,0.7835,,,,,,,,,,,,,,,,,,,,,,60fe310d963e64b57e9d10a8,610377c86d97b3a2a315b060,2021-07-29_23h56.17.266,Simcolourproject_2stim_asymm_v5,2020.2.10,MacIntel,60,61025ae37ef11b136ea224fe,,,,,,,,,2930,61.25390625,-37.89453125,1,0,0,response3disk,,5,-7.43359375,-0.73828125,1,0,0,rectangle,-7.43359375,-0.73828125,1,0,0,-7.43359375,-0.73828125,1,0,0,0,16,16,19,1,,,,,,,,
,,,,,,,,,,,,,FF,,,,,,,,1.0502,,,,,,,,,,,,,,,,,,,,,,60fe310d963e64b57e9d10a8,610377c86d97b3a2a315b060,2021-07-29_23h56.17.266,Simcolourproject_2stim_asymm_v5,2020.2.10,MacIntel,60,61025ae37ef11b136ea224fe,,,,,,,,,4317,-39.33203125,-67.28125,1,0,0,response5disk,,3,-18.5546875,2.5625,1,0,0,rectangle,-18.5546875,2.5625,1,0,0,-18.5546875,2.5625,1,0,0,0,17,17,100,1,,,,,,,,
,,,,,,,,,,,,,FF,,,,,,,,0.5177,,,,,,,,,,,,,,,,,,,,,,60fe310d963e64b57e9d10a8,610377c86d97b3a2a315b060,2021-07-29_23h56.17.266,Simcolourproject_2stim_asymm_v5,2020.2.10,MacIntel,60,61025ae37ef11b136ea224fe,,,,,,,,,4223,-29.359375,65.53125,1,0,0,response7disk,,0,10.8984375,11.640625,1,0,0,rectangle,10.8984375,11.640625,1,0,0,10.8984375,11.640625,1,0,0,0,18,18,106,1,,,,,,,,
,,,,,,,,,,,,,FF,,,,,,,,0.7002,,,,,,,,,,,,,,,,,,,,,,60fe310d963e64b57e9d10a8,610377c86d97b3a2a315b060,2021-07-29_23h56.17.266,Simcolourproject_2stim_asymm_v5,2020.2.10,MacIntel,60,61025ae37ef11b136ea224fe,,,,,,,,,3338,34.76953125,-61.73046875,1,0,0,response3disk,,4,22.08984375,-7.01953125,1,0,0,rectangle,22.08984375,-7.01953125,1,0,0,22.08984375,-7.01953125,1,0,0,0,19,19,74,1,,,,,,,,
,,,,,,,,,,,,,FF,,,,,,,,0.8832,,,,,,,,,,,,,,,,,,,,,,60fe310d963e64b57e9d10a8,610377c86d97b3a2a315b060,2021-07-29_23h56.17.266,Simcolourproject_2stim_asymm_v5,2020.2.10,MacIntel,60,61025ae37ef11b136ea224fe,,,,,,,,,2140,81.23046875,-47.62890625,1,0,0,response3disk,,5,21.73828125,-15.203125,1,0,0,rectangle,21.73828125,-15.203125,1,0,0,21.73828125,-15.203125,1,0,0,0,20,20,88,1,,,,,,,,
,,,,,,,,,,,,,FF,,,,,,,,0.85,,,,,,,,,,,,,,,,,,,,,,60fe310d963e64b57e9d10a8,610377c86d97b3a2a315b060,2021-07-29_23h56.17.266,Simcolourproject_2stim_asymm_v5,2020.2.10,MacIntel,60,61025ae37ef11b136ea224fe,,,,,,,,,4051,-19.27734375,-68.8828125,1,0,0,response5disk,,3,-19.27734375,-11.96875,1,0,0,rectangle,-19.27734375,-11.96875,1,0,0,-19.27734375,-11.96875,1,0,0,0,21,21,48,1,,,,,,,,
,,,,,,,,,,,,,FF,,,,,,,,0.7844,,,,,,,,,,,,,,,,,,,,,,60fe310d963e64b57e9d10a8,610377c86d97b3a2a315b060,2021-07-29_23h56.17.266,Simcolourproject_2stim_asymm_v5,2020.2.10,MacIntel,60,61025ae37ef11b136ea224fe,,,,,,,,,1218,-89.6171875,25.390625,1,0,0,response7disk,,1,-4.75390625,9.48828125,1,0,0,rectangle,-4.75390625,9.48828125,1,0,0,-4.75390625,9.48828125,1,0,0,0,22,22,47,1,,,,,,,,
,,,,,,,,,,,,,FF,,,,,,,,0.5656,,,,,,,,,,,,,,,,,,,,,,60fe310d963e64b57e9d10a8,610377c86d97b3a2a315b060,2021-07-29_23h56.17.266,Simcolourproject_2stim_asymm_v5,2020.2.10,MacIntel,60,61025ae37ef11b136ea224fe,,,,,,,,,2029,-57.62109375,-32.19921875,1,0,0,response5disk,,2,-28.359375,-13.98046875,1,0,0,rectangle,-28.359375,-13.98046875,1,0,0,-28.359375,-13.98046875,1,0,0,0,23,23,148,1,,,,,,,,
,,,,,,,,,,,,,FF,,,,,,,,0.9331,,,,,,,,,,,,,,,,,,,,,,60fe310d963e64b57e9d10a8,610377c86d97b3a2a315b060,2021-07-29_23h56.17.266,Simcolourproject_2stim_asymm_v5,2020.2.10,MacIntel,60,61025ae37ef11b136ea224fe,,,,,,,,,524,-32.01171875,-65.27734375,1,0,0,response5disk,,3,1.84375,-0.55078125,1,0,0,rectangle,1.84375,-0.55078125,1,0,0,1.84375,-0.55078125,1,0,0,0,24,24,110,1,,,,,,,,
,,,,,,,,,,,,,FF,,,,,,,,0.6509,,,,,,,,,,,,,,,,,,,,,,60fe310d963e64b57e9d10a8,610377c86d97b3a2a315b060,2021-07-29_23h56.17.266,Simcolourproject_2stim_asymm_v5,2020.2.10,MacIntel,60,61025ae37ef11b136ea224fe,,,,,,,,,1718,87.68359375,-52.25,1,0,0,response3disk,,5,9.47265625,8.2578125,1,0,0,rectangle,9.47265625,8.2578125,1,0,0,9.47265625,8.2578125,1,0,0,0,25,25,137,1,,,,,,,,
,,,,,,,,,,,,,FF,,,,,,,,0.7669,,,,,,,,,,,,,,,,,,,,,,60fe310d963e64b57e9d10a8,610377c86d97b3a2a315b060,2021-07-29_23h56.17.266,Simcolourproject_2stim_asymm_v5,2020.2.10,MacIntel,60,61025ae37ef11b136ea224fe,,,,,,,,,927,79.2421875,16.21484375,1,0,0,response1disk,,6,27.3515625,4.92578125,1,0,0,rectangle,27.3515625,4.92578125,1,0,0,27.3515625,4.92578125,1,0,0,0,26,26,38,1,,,,,,,,
,,,,,,,,,,,,,FF,,,,,,,,0.5166,,,,,,,,,,,,,,,,,,,,,,60fe310d963e64b57e9d10a8,610377c86d97b3a2a315b060,2021-07-29_23h56.17.266,Simcolourproject_2stim_asymm_v5,2020.2.10,MacIntel,60,61025ae37ef11b136ea224fe,,,,,,,,,2816,41.71875,-21.8828125,1,0,0,response3disk,,5,19.37109375,-17.61328125,1,0,0,rectangle,19.37109375,-17.61328125,1,0,0,19.37109375,-17.61328125,1,0,0,0,27,27,158,1,,,,,,,,
,,,,,,,,,,,,,FF,,,,,,,,0.3997,,,,,,,,,,,,,,,,,,,,,,60fe310d963e64b57e9d10a8,610377c86d97b3a2a315b060,2021-07-29_23h56.17.266,Simcolourproject_2stim_asymm_v5,2020.2.10,MacIntel,60,61025ae37ef11b136ea224fe,,,,,,,,,4098,42.296875,-37.2890625,1,0,0,response3disk,,5,-18.73046875,-5.46484375,1,0,0,rectangle,-18.73046875,-5.46484375,1,0,0,-18.73046875,-5.46484375,1,0,0,0,28,28,107,1,,,,,,,,
,,,,,,,,,,,,,FF,,,,,,,,0.6486,,,,,,,,,,,,,,,,,,,,,,60fe310d963e64b57e9d10a8,610377c86d97b3a2a315b060,2021-07-29_23h56.17.266,Simcolourproject_2stim_asymm_v5,2020.2.10,MacIntel,60,61025ae37ef11b136ea224fe,,,,,,,,,2442,36.8828125,-42.06640625,1,0,0,response3disk,,4,2.640625,-5.6796875,1,0,0,rectangle,2.640625,-5.6796875,1,0,0,2.640625,-5.6796875,1,0,0,0,29,29,119,1,,,,,,,,
,,,,,,,,,,,,,FF,,,,,,,,0.6999,,,,,,,,,,,,,,,,,,,,,,60fe310d963e64b57e9d10a8,610377c86d97b3a2a315b060,2021-07-29_23h56.17.266,Simcolourproject_2stim_asymm_v5,2020.2.10,MacIntel,60,61025ae37ef11b136ea224fe,,,,,,,,,2396,-26.8671875,-99.8984375,1,0,0,response5disk,,3,-19.5390625,10.8046875,1,0,0,rectangle,-19.5390625,10.8046875,1,0,0,-19.5390625,10.8046875,1,0,0,0,30,30,62,1,,,,,,,,
,,,,,,,,,,,,,FF,,,,,,,,0.6993,,,,,,,,,,,,,,,,,,,,,,60fe310d963e64b57e9d10a8,610377c86d97b3a2a315b060,2021-07-29_23h56.17.266,Simcolourproject_2stim_asymm_v5,2020.2.10,MacIntel,60,61025ae37ef11b136ea224fe,,,,,,,,,3423,-75.70703125,53.1171875,1,0,0,response7disk,,1,-3.93359375,7.8359375,1,0,0,rectangle,-75.734375,-39.8359375,1,0,0,24.78125,-10.87109375,1,0,0,0,31,31,26,1,,response5disk_3,TRUE,2,2,"[286,152,261,104,85,157,100,161,319,81,290,302,190,182,122,117,196,32,322,207]",2.433,rectangle
,,,,,,,,,,,,,FF,,,,,,,,1.3835,,,,,,,,,,,,,,,,,,,,,,60fe310d963e64b57e9d10a8,610377c86d97b3a2a315b060,2021-07-29_23h56.17.266,Simcolourproject_2stim_asymm_v5,2020.2.10,MacIntel,60,61025ae37ef11b136ea224fe,,,,,,,,,3314,32.2109375,74.8828125,1,0,0,response1disk,,7,8.96484375,-5.12109375,1,0,0,rectangle,8.96484375,-5.12109375,1,0,0,8.96484375,-5.12109375,1,0,0,0,32,32,136,1,,,,,,,,
,,,,,,,,,,,,,FF,,,,,,,,0.8497,,,,,,,,,,,,,,,,,,,,,,60fe310d963e64b57e9d10a8,610377c86d97b3a2a315b060,2021-07-29_23h56.17.266,Simcolourproject_2stim_asymm_v5,2020.2.10,MacIntel,60,61025ae37ef11b136ea224fe,,,,,,,,,1306,-84.29296875,-35.13671875,1,0,0,response5disk,,2,-11.4296875,-13.98828125,1,0,0,rectangle,-11.4296875,-13.98828125,1,0,0,-11.4296875,-13.98828125,1,0,0,0,33,33,126,1,,,,,,,,
,,,,,,,,,,,,,FF,,,,,,,,0.3834,,,,,,,,,,,,,,,,,,,,,,60fe310d963e64b57e9d10a8,610377c86d97b3a2a315b060,2021-07-29_23h56.17.266,Simcolourproject_2stim_asymm_v5,2020.2.10,MacIntel,60,61025ae37ef11b136ea224fe,,,,,,,,,1384,-63.83203125,-23.87890625,1,0,0,response5disk,,2,-25.359375,-14.078125,1,0,0,rectangle,-25.359375,-14.078125,1,0,0,-25.359375,-14.078125,1,0,0,0,34,34,81,1,,,,,,,,
,,,,,,,,,,,,,FF,,,,,,,,0.8834,,,,,,,,,,,,,,,,,,,,,,60fe310d963e64b57e9d10a8,610377c86d97b3a2a315b060,2021-07-29_23h56.17.266,Simcolourproject_2stim_asymm_v5,2020.2.10,MacIntel,60,61025ae37ef11b136ea224fe,,,,,,,,,3543,-32.6015625,-62.56640625,1,0,0,response5disk,,3,-26.76953125,-2.38671875,1,0,0,rectangle,-26.76953125,-2.38671875,1,0,0,-26.76953125,-2.38671875,1,0,0,0,35,35,70,1,,,,,,,,
,,,,,,,,,,,,,FF,,,,,,,,0.4003,,,,,,,,,,,,,,,,,,,,,,60fe310d963e64b57e9d10a8,610377c86d97b3a2a315b060,2021-07-29_23h56.17.266,Simcolourproject_2stim_asymm_v5,2020.2.10,MacIntel,60,61025ae37ef11b136ea224fe,,,,,,,,,4183,-65.54296875,26.7265625,1,0,0,response7disk,,1,0.74609375,-0.09765625,1,0,0,rectangle,0.74609375,-0.09765625,1,0,0,0.74609375,-0.09765625,1,0,0,0,36,36,142,1,,,,,,,,
,,,,,,,,,,,,,FF,,,,,,,,0.7151,,,,,,,,,,,,,,,,,,,,,,60fe310d963e64b57e9d10a8,610377c86d97b3a2a315b060,2021-07-29_23h56.17.266,Simcolourproject_2stim_asymm_v5,2020.2.10,MacIntel,60,61025ae37ef11b136ea224fe,,,,,,,,,3644,-31.80078125,-60.02734375,1,0,0,response5disk,,3,1.171875,2.88671875,1,0,0,rectangle,1.171875,2.88671875,1,0,0,1.171875,2.88671875,1,0,0,0,37,37,94,1,,,,,,,,
,,,,,,,,,,,,,FF,,,,,,,,0.8163,,,,,,,,,,,,,,,,,,,,,,60fe310d963e64b57e9d10a8,610377c86d97b3a2a315b060,2021-07-29_23h56.17.266,Simcolourproject_2stim_asymm_v5,2020.2.10,MacIntel,60,61025ae37ef11b136ea224fe,,,,,,,,,2135,76.14453125,-37.92578125,1,0,0,response3disk,,5,33.73828125,-12.2421875,1,0,0,rectangle,33.73828125,-12.2421875,1,0,0,33.73828125,-12.2421875,1,0,0,0,38,38,27,1,,,,,,,,
,,,,,,,,,,,,,FF,,,,,,,,1.1679,,,,,,,,,,,,,,,,,,,,,,60fe310d963e64b57e9d10a8,610377c86d97b3a2a315b060,2021-07-29_23h56.17.266,Simcolourproject_2stim_asymm_v5,2020.2.10,MacIntel,60,61025ae37ef11b136ea224fe,,,,,,,,,1692,57.36328125,-89.19140625,1,0,0,response3disk,,4,2.94140625,-10.0390625,1,0,0,rectangle,2.94140625,-10.0390625,1,0,0,2.94140625,-10.0390625,1,0,0,0,39,39,12,1,,,,,,,,
,,,,,,,,,,,,,FF,,,,,,,,0.7338,,,,,,,,,,,,,,,,,,,,,,60fe310d963e64b57e9d10a8,610377c86d97b3a2a315b060,2021-07-29_23h56.17.266,Simcolourproject_2stim_asymm_v5,2020.2.10,MacIntel,60,61025ae37ef11b136ea224fe,,,,,,,,,2238,71.02734375,-24.83984375,1,0,0,response3disk,,5,12.02734375,8.12109375,1,0,0,rectangle,12.02734375,8.12109375,1,0,0,12.02734375,8.12109375,1,0,0,0,40,40,52,1,,,,,,,,
,,,,,,,,,,,,,FF,,,,,,,,0.6493,,,,,,,,,,,,,,,,,,,,,,60fe310d963e64b57e9d10a8,610377c86d97b3a2a315b060,2021-07-29_23h56.17.266,Simcolourproject_2stim_asymm_v5,2020.2.10,MacIntel,60,61025ae37ef11b136ea224fe,,,,,,,,,3704,-71.0703125,-35.52734375,1,0,0,response5disk,,2,-23.57421875,-0.3359375,1,0,0,rectangle,-23.57421875,-0.3359375,1,0,0,-23.57421875,-0.3359375,1,0,0,0,41,41,155,1,,,,,,,,
,,,,,,,,,,,,,FF,,,,,,,,0.4494,,,,,,,,,,,,,,,,,,,,,,60fe310d963e64b57e9d10a8,610377c86d97b3a2a315b060,2021-07-29_23h56.17.266,Simcolourproject_2stim_asymm_v5,2020.2.10,MacIntel,60,61025ae37ef11b136ea224fe,,,,,,,,,2380,66.8046875,23.31640625,1,0,0,response1disk,,6,16.55859375,14.3046875,1,0,0,rectangle,16.55859375,14.3046875,1,0,0,16.55859375,14.3046875,1,0,0,0,42,42,96,1,,,,,,,,
,,,,,,,,,,,,,FF,,,,,,,,0.7332,,,,,,,,,,,,,,,,,,,,,,60fe310d963e64b57e9d10a8,610377c86d97b3a2a315b060,2021-07-29_23h56.17.266,Simcolourproject_2stim_asymm_v5,2020.2.10,MacIntel,60,61025ae37ef11b136ea224fe,,,,,,,,,4034,-38.546875,-68.515625,1,0,0,response5disk,,3,-34.703125,-13.1953125,1,0,0,rectangle,-34.703125,-13.1953125,1,0,0,-34.703125,-13.1953125,1,0,0,0,43,43,102,1,,,,,,,,
,,,,,,,,,,,,,FF,,,,,,,,0.5678,,,,,,,,,,,,,,,,,,,,,,60fe310d963e64b57e9d10a8,610377c86d97b3a2a315b060,2021-07-29_23h56.17.266,Simcolourproject_2stim_asymm_v5,2020.2.10,MacIntel,60,61025ae37ef11b136ea224fe,,,,,,,,,3937,-55.77734375,61.84765625,1,0,0,response7disk,,0,-21.2734375,4.140625,1,0,0,rectangle,-21.2734375,4.140625,1,0,0,-21.2734375,4.140625,1,0,0,0,44,44,9,1,,,,,,,,
,,,,,,,,,,,,,FF,,,,,,,,0.6833,,,,,,,,,,,,,,,,,,,,,,60fe310d963e64b57e9d10a8,610377c86d97b3a2a315b060,2021-07-29_23h56.17.266,Simcolourproject_2stim_asymm_v5,2020.2.10,MacIntel,60,61025ae37ef11b136ea224fe,,,,,,,,,739,32.39453125,-89.96875,1,0,0,response3disk,,4,-14.78515625,1.4296875,1,0,0,rectangle,-14.78515625,1.4296875,1,0,0,-14.78515625,1.4296875,1,0,0,0,45,45,82,1,,,,,,,,
,,,,,,,,,,,,,FF,,,,,,,,0.6505,,,,,,,,,,,,,,,,,,,,,,60fe310d963e64b57e9d10a8,610377c86d97b3a2a315b060,2021-07-29_23h56.17.266,Simcolourproject_2stim_asymm_v5,2020.2.10,MacIntel,60,61025ae37ef11b136ea224fe,,,,,,,,,3443,87.16015625,-30.2734375,1,0,0,response3disk,,5,9.86328125,-11.0078125,1,0,0,rectangle,9.86328125,-11.0078125,1,0,0,9.86328125,-11.0078125,1,0,0,0,46,46,45,1,,,,,,,,
,,,,,,,,,,,,,FF,,,,,,,,0.5656,,,,,,,,,,,,,,,,,,,,,,60fe310d963e64b57e9d10a8,610377c86d97b3a2a315b060,2021-07-29_23h56.17.266,Simcolourproject_2stim_asymm_v5,2020.2.10,MacIntel,60,61025ae37ef11b136ea224fe,,,,,,,,,3462,-26.9375,-49.96484375,1,0,0,response5disk,,3,-26.9375,10.74609375,1,0,0,rectangle,-26.9375,10.74609375,1,0,0,-26.9375,10.74609375,1,0,0,0,47,47,84,1,,,,,,,,
,,,,,,,,,,,,,FF,,,,,,,,0.4509,,,,,,,,,,,,,,,,,,,,,,60fe310d963e64b57e9d10a8,610377c86d97b3a2a315b060,2021-07-29_23h56.17.266,Simcolourproject_2stim_asymm_v5,2020.2.10,MacIntel,60,61025ae37ef11b136ea224fe,,,,,,,,,3925,97.32421875,-43.56640625,1,0,0,response3disk,,5,9.57421875,-2.2734375,1,0,0,rectangle,9.57421875,-2.2734375,1,0,0,9.57421875,-2.2734375,1,0,0,0,48,48,24,1,,,,,,,,
,,,,,,,,,,,,,FF,,,,,,,,1.2337,,,,,,,,,,,,,,,,,,,,,,60fe310d963e64b57e9d10a8,610377c86d97b3a2a315b060,2021-07-29_23h56.17.266,Simcolourproject_2stim_asymm_v5,2020.2.10,MacIntel,60,61025ae37ef11b136ea224fe,,,,,,,,,4295,-76.12890625,58.51171875,1,0,0,response7disk,,1,15.5546875,-5.69921875,1,0,0,rectangle,15.5546875,-5.69921875,1,0,0,15.5546875,-5.69921875,1,0,0,0,49,49,40,1,,,,,,,,
,,,,,,,,,,,,,FF,,,,,,,,0.3997,,,,,,,,,,,,,,,,,,,,,,60fe310d963e64b57e9d10a8,610377c86d97b3a2a315b060,2021-07-29_23h56.17.266,Simcolourproject_2stim_asymm_v5,2020.2.10,MacIntel,60,61025ae37ef11b136ea224fe,,,,,,,,,3047,-57.20703125,58.87109375,1,0,0,response7disk,,0,-25.83203125,14.35546875,1,0,0,rectangle,-25.83203125,14.35546875,1,0,0,-25.83203125,14.35546875,1,0,0,0,50,50,60,1,,,,,,,,
,,,,,,,,,,,,,FF,,,,,,,,0.6666,,,,,,,,,,,,,,,,,,,,,,60fe310d963e64b57e9d10a8,610377c86d97b3a2a315b060,2021-07-29_23h56.17.266,Simcolourproject_2stim_asymm_v5,2020.2.10,MacIntel,60,61025ae37ef11b136ea224fe,,,,,,,,,2591,-27.078125,-69.4609375,1,0,0,response5disk,,3,-24.9296875,-13.37890625,1,0,0,rectangle,-24.9296875,-13.37890625,1,0,0,-24.9296875,-13.37890625,1,0,0,0,51,51,8,1,,,,,,,,
,,,,,,,,,,,,,FF,,,,,,,,0.5337,,,,,,,,,,,,,,,,,,,,,,60fe310d963e64b57e9d10a8,610377c86d97b3a2a315b060,2021-07-29_23h56.17.266,Simcolourproject_2stim_asymm_v5,2020.2.10,MacIntel,60,61025ae37ef11b136ea224fe,,,,,,,,,515,32.2734375,-60.55859375,1,0,0,response3disk,,4,6.921875,-6.91796875,1,0,0,rectangle,6.921875,-6.91796875,1,0,0,6.921875,-6.91796875,1,0,0,0,52,52,49,1,,,,,,,,
,,,,,,,,,,,,,FF,,,,,,,,0.6508,,,,,,,,,,,,,,,,,,,,,,60fe310d963e64b57e9d10a8,610377c86d97b3a2a315b060,2021-07-29_23h56.17.266,Simcolourproject_2stim_asymm_v5,2020.2.10,MacIntel,60,61025ae37ef11b136ea224fe,,,,,,,,,3602,83.4765625,-21.44921875,1,0,0,response3disk,,5,15.38671875,8.6328125,1,0,0,rectangle,15.38671875,8.6328125,1,0,0,15.38671875,8.6328125,1,0,0,0,53,53,20,1,,,,,,,,
,,,,,,,,,,,,,FF,,,,,,,,0.5842,,,,,,,,,,,,,,,,,,,,,,60fe310d963e64b57e9d10a8,610377c86d97b3a2a315b060,2021-07-29_23h56.17.266,Simcolourproject_2stim_asymm_v5,2020.2.10,MacIntel,60,61025ae37ef11b136ea224fe,,,,,,,,,74,-18.78515625,-52.53125,1,0,0,response5disk,,3,-18.78515625,-4.40234375,1,0,0,rectangle,-18.78515625,-4.40234375,1,0,0,-18.78515625,-4.40234375,1,0,0,0,54,54,10,1,,,,,,,,
,,,,,,,,,,,,,FF,,,,,,,,0.6681,,,,,,,,,,,,,,,,,,,,,,60fe310d963e64b57e9d10a8,610377c86d97b3a2a315b060,2021-07-29_23h56.17.266,Simcolourproject_2stim_asymm_v5,2020.2.10,MacIntel,60,61025ae37ef11b136ea224fe,,,,,,,,,701,-54.171875,-27.796875,1,0,0,response5disk,,2,-15.90625,-10.22265625,1,0,0,rectangle,-15.90625,-10.22265625,1,0,0,-15.90625,-10.22265625,1,0,0,0,55,55,41,1,,,,,,,,
,,,,,,,,,,,,,FF,,,,,,,,0.5333,,,,,,,,,,,,,,,,,,,,,,60fe310d963e64b57e9d10a8,610377c86d97b3a2a315b060,2021-07-29_23h56.17.266,Simcolourproject_2stim_asymm_v5,2020.2.10,MacIntel,60,61025ae37ef11b136ea224fe,,,,,,,,,4151,30.203125,-51.51953125,1,0,0,response3disk,,4,15.50390625,12.41796875,1,0,0,rectangle,15.50390625,12.41796875,1,0,0,15.50390625,12.41796875,1,0,0,0,56,56,16,1,,,,,,,,
,,,,,,,,,,,,,FF,,,,,,,,0.4666,,,,,,,,,,,,,,,,,,,,,,60fe310d963e64b57e9d10a8,610377c86d97b3a2a315b060,2021-07-29_23h56.17.266,Simcolourproject_2stim_asymm_v5,2020.2.10,MacIntel,60,61025ae37ef11b136ea224fe,,,,,,,,,1837,54.984375,-24.8671875,1,0,0,response3disk,,5,9.81640625,1.6953125,1,0,0,rectangle,9.81640625,1.6953125,1,0,0,9.81640625,1.6953125,1,0,0,0,57,57,87,1,,,,,,,,
,,,,,,,,,,,,,FF,,,,,,,,0.5996,,,,,,,,,,,,,,,,,,,,,,60fe310d963e64b57e9d10a8,610377c86d97b3a2a315b060,2021-07-29_23h56.17.266,Simcolourproject_2stim_asymm_v5,2020.2.10,MacIntel,60,61025ae37ef11b136ea224fe,,,,,,,,,2877,46.6875,33.19140625,1,0,0,response1disk,,6,-26.62890625,16.1875,1,0,0,rectangle,-26.62890625,16.1875,1,0,0,-26.62890625,16.1875,1,0,0,0,58,58,131,1,,,,,,,,
,,,,,,,,,,,,,FF,,,,,,,,1.0343,,,,,,,,,,,,,,,,,,,,,,60fe310d963e64b57e9d10a8,610377c86d97b3a2a315b060,2021-07-29_23h56.17.266,Simcolourproject_2stim_asymm_v5,2020.2.10,MacIntel,60,61025ae37ef11b136ea224fe,,,,,,,,,1726,-71.0859375,-28.09765625,1,0,0,response5disk,,2,-12.28125,-5.9375,1,0,0,rectangle,-12.28125,-5.9375,1,0,0,-12.28125,-5.9375,1,0,0,0,59,59,109,1,,,,,,,,
,,,,,,,,,,,,,FF,,,,,,,,0.4668,,,,,,,,,,,,,,,,,,,,,,60fe310d963e64b57e9d10a8,610377c86d97b3a2a315b060,2021-07-29_23h56.17.266,Simcolourproject_2stim_asymm_v5,2020.2.10,MacIntel,60,61025ae37ef11b136ea224fe,,,,,,,,,3857,81.609375,-18.69140625,1,0,0,response3disk,,5,15.109375,0.57421875,1,0,0,rectangle,15.109375,0.57421875,1,0,0,15.109375,0.57421875,1,0,0,0,60,60,143,1,,,,,,,,
,,,,,,,,,,,,,FF,,,,,,,,0.9994,,,,,,,,,,,,,,,,,,,,,,60fe310d963e64b57e9d10a8,610377c86d97b3a2a315b060,2021-07-29_23h56.17.266,Simcolourproject_2stim_asymm_v5,2020.2.10,MacIntel,60,61025ae37ef11b136ea224fe,,,,,,,,,1053,61.87890625,-27.1953125,1,0,0,response3disk,,5,-1.01171875,2.0546875,1,0,0,rectangle,-1.01171875,2.0546875,1,0,0,-1.01171875,2.0546875,1,0,0,0,61,61,14,1,,,,,,,,
,,,,,,,,,,,,,FF,,,,,,,,0.6652,,,,,,,,,,,,,,,,,,,,,,60fe310d963e64b57e9d10a8,610377c86d97b3a2a315b060,2021-07-29_23h56.17.266,Simcolourproject_2stim_asymm_v5,2020.2.10,MacIntel,60,61025ae37ef11b136ea224fe,,,,,,,,,3108,-59.37890625,-30.31640625,1,0,0,response5disk,,2,-11.1796875,-0.3515625,1,0,0,rectangle,-11.1796875,-0.3515625,1,0,0,-11.1796875,-0.3515625,1,0,0,0,62,62,86,1,,,,,,,,
,,,,,,,,,,,,,FF,,,,,,,,0.5324,,,,,,,,,,,,,,,,,,,,,,60fe310d963e64b57e9d10a8,610377c86d97b3a2a315b060,2021-07-29_23h56.17.266,Simcolourproject_2stim_asymm_v5,2020.2.10,MacIntel,60,61025ae37ef11b136ea224fe,,,,,,,,,1038,-56.9296875,-50.5703125,1,0,0,response5disk,,2,-0.5625,9.41015625,1,0,0,rectangle,-0.5625,9.41015625,1,0,0,-0.5625,9.41015625,1,0,0,0,63,63,0,1,,,,,,,,
,,,,,,,,,,,,,FF,,,,,,,,0.7503,,,,,,,,,,,,,,,,,,,,,,60fe310d963e64b57e9d10a8,610377c86d97b3a2a315b060,2021-07-29_23h56.17.266,Simcolourproject_2stim_asymm_v5,2020.2.10,MacIntel,60,61025ae37ef11b136ea224fe,,,,,,,,,2575,44.1953125,-66.0078125,1,0,0,response3disk,,4,28.42578125,-1.3828125,1,0,0,rectangle,28.42578125,-1.3828125,1,0,0,28.42578125,-1.3828125,1,0,0,0,64,64,61,1,,,,,,,,
,,,,,,,,,,,,,FF,,,,,,,,0.583,,,,,,,,,,,,,,,,,,,,,,60fe310d963e64b57e9d10a8,610377c86d97b3a2a315b060,2021-07-29_23h56.17.266,Simcolourproject_2stim_asymm_v5,2020.2.10,MacIntel,60,61025ae37ef11b136ea224fe,,,,,,,,,1079,50.39453125,-30.41796875,1,0,0,response3disk,,5,-4.5078125,-2.921875,1,0,0,rectangle,-4.5078125,-2.921875,1,0,0,-4.5078125,-2.921875,1,0,0,0,65,65,98,1,,,,,,,,
,,,,,,,,,,,,,FF,,,,,,,,1.8341,,,,,,,,,,,,,,,,,,,,,,60fe310d963e64b57e9d10a8,610377c86d97b3a2a315b060,2021-07-29_23h56.17.266,Simcolourproject_2stim_asymm_v5,2020.2.10,MacIntel,60,61025ae37ef11b136ea224fe,,,,,,,,,1614,60.21875,-121.0546875,1,0,0,response3disk,,4,-14.265625,3.7265625,1,0,0,rectangle,-14.265625,3.7265625,1,0,0,-14.265625,3.7265625,1,0,0,0,66,66,11,1,,,,,,,,
,,,,,,,,,,,,,FF,,,,,,,,1.0329,,,,,,,,,,,,,,,,,,,,,,60fe310d963e64b57e9d10a8,610377c86d97b3a2a315b060,2021-07-29_23h56.17.266,Simcolourproject_2stim_asymm_v5,2020.2.10,MacIntel,60,61025ae37ef11b136ea224fe,,,,,,,,,967,37.7421875,38.53125,1,0,0,response1disk,,7,7.19921875,8.94921875,1,0,0,rectangle,7.19921875,8.94921875,1,0,0,7.19921875,8.94921875,1,0,0,0,67,67,157,1,,,,,,,,
,,,,,,,,,,,,,FF,,,,,,,,0.5834,,,,,,,,,,,,,,,,,,,,,,60fe310d963e64b57e9d10a8,610377c86d97b3a2a315b060,2021-07-29_23h56.17.266,Simcolourproject_2stim_asymm_v5,2020.2.10,MacIntel,60,61025ae37ef11b136ea224fe,,,,,,,,,4149,-60.171875,-41.79296875,1,0,0,response5disk,,2,-10.8203125,-7.94140625,1,0,0,rectangle,-10.8203125,-7.94140625,1,0,0,-10.8203125,-7.94140625,1,0,0,0,68,68,135,1,,,,,,,,
,,,,,,,,,,,,,FF,,,,,,,,0.7159,,,,,,,,,,,,,,,,,,,,,,60fe310d963e64b57e9d10a8,610377c86d97b3a2a315b060,2021-07-29_23h56.17.266,Simcolourproject_2stim_asymm_v5,2020.2.10,MacIntel,60,61025ae37ef11b136ea224fe,,,,,,,,,503,-26.3359375,-62.42578125,1,0,0,response5disk,,3,-11.92578125,7.71875,1,0,0,rectangle,-11.92578125,7.71875,1,0,0,-11.92578125,7.71875,1,0,0,0,69,69,85,1,,,,,,,,
,,,,,,,,,,,,,FF,,,,,,,,0.9005,,,,,,,,,,,,,,,,,,,,,,60fe310d963e64b57e9d10a8,610377c86d97b3a2a315b060,2021-07-29_23h56.17.266,Simcolourproject_2stim_asymm_v5,2020.2.10,MacIntel,60,61025ae37ef11b136ea224fe,,,,,,,,,2617,56.16015625,-39.62109375,1,0,0,response3disk,,5,17.30078125,-7.703125,1,0,0,rectangle,17.30078125,-7.703125,1,0,0,17.30078125,-7.703125,1,0,0,0,70,70,149,1,,,,,,,,
,,,,,,,,,,,,,FF,,,,,,,,4.3169,,,,,,,,,,,,,,,,,,,,,,60fe310d963e64b57e9d10a8,610377c86d97b3a2a315b060,2021-07-29_23h56.17.266,Simcolourproject_2stim_asymm_v5,2020.2.10,MacIntel,60,61025ae37ef11b136ea224fe,,,,,,,,,3151,47.23046875,-63.49609375,1,0,0,response3disk,,4,25.70703125,-10.23046875,1,0,0,rectangle,25.70703125,-10.23046875,1,0,0,25.70703125,-10.23046875,1,0,0,0,71,71,118,1,,,,,,,,
,,,,,,,,,,,,,FF,,,,,,,,3.0332,,,,,,,,,,,,,,,,,,,,,,60fe310d963e64b57e9d10a8,610377c86d97b3a2a315b060,2021-07-29_23h56.17.266,Simcolourproject_2stim_asymm_v5,2020.2.10,MacIntel,60,61025ae37ef11b136ea224fe,,,,,,,,,476,51.390625,-42.66796875,1,0,0,response3disk,,5,-32.6640625,-1.53125,1,0,0,rectangle,-32.6640625,-1.53125,1,0,0,-32.6640625,-1.53125,1,0,0,0,72,72,55,1,,,,,,,,
,,,,,,,,,,,,,FF,,,,,,,,0.5343,,,,,,,,,,,,,,,,,,,,,,60fe310d963e64b57e9d10a8,610377c86d97b3a2a315b060,2021-07-29_23h56.17.266,Simcolourproject_2stim_asymm_v5,2020.2.10,MacIntel,60,61025ae37ef11b136ea224fe,,,,,,,,,398,-34.8203125,-51.50390625,1,0,0,response5disk,,3,-33.54296875,-12.5546875,1,0,0,rectangle,-33.54296875,-12.5546875,1,0,0,-33.54296875,-12.5546875,1,0,0,0,73,73,125,1,,,,,,,,
,,,,,,,,,,,,,FF,,,,,,,,0.5496,,,,,,,,,,,,,,,,,,,,,,60fe310d963e64b57e9d10a8,610377c86d97b3a2a315b060,2021-07-29_23h56.17.266,Simcolourproject_2stim_asymm_v5,2020.2.10,MacIntel,60,61025ae37ef11b136ea224fe,,,,,,,,,905,36.734375,-43.015625,1,0,0,response3disk,,4,29.58203125,-10.5234375,1,0,0,rectangle,29.58203125,-10.5234375,1,0,0,29.58203125,-10.5234375,1,0,0,0,74,74,116,1,,,,,,,,
,,,,,,,,,,,,,FF,,,,,,,,0.817,,,,,,,,,,,,,,,,,,,,,,60fe310d963e64b57e9d10a8,610377c86d97b3a2a315b060,2021-07-29_23h56.17.266,Simcolourproject_2stim_asymm_v5,2020.2.10,MacIntel,60,61025ae37ef11b136ea224fe,,,,,,,,,356,-38.90234375,67.59375,1,0,0,response7disk,,0,-10.41796875,-4.4375,1,0,0,rectangle,-10.41796875,-4.4375,1,0,0,-10.41796875,-4.4375,1,0,0,0,75,75,97,1,,,,,,,,
,,,,,,,,,,,,,FF,,,,,,,,0.5333,,,,,,,,,,,,,,,,,,,,,,60fe310d963e64b57e9d10a8,610377c86d97b3a2a315b060,2021-07-29_23h56.17.266,Simcolourproject_2stim_asymm_v5,2020.2.10,MacIntel,60,61025ae37ef11b136ea224fe,,,,,,,,,1862,-25.86328125,-40.2578125,1,0,0,response5disk,,3,-15.08984375,-6.87890625,1,0,0,rectangle,-15.08984375,-6.87890625,1,0,0,-15.08984375,-6.87890625,1,0,0,0,76,76,129,1,,,,,,,,
,,,,,,,,,,,,,FF,,,,,,,,0.7496,,,,,,,,,,,,,,,,,,,,,,60fe310d963e64b57e9d10a8,610377c86d97b3a2a315b060,2021-07-29_23h56.17.266,Simcolourproject_2stim_asymm_v5,2020.2.10,MacIntel,60,61025ae37ef11b136ea224fe,,,,,,,,,1530,-35.75390625,51.796875,1,0,0,response7disk,,0,-13.98828125,7.52734375,1,0,0,rectangle,-13.98828125,7.52734375,1,0,0,-13.98828125,7.52734375,1,0,0,0,77,77,117,1,,,,,,,,
,,,,,,,,,,,,,FF,,,,,,,,0.5163,,,,,,,,,,,,,,,,,,,,,,60fe310d963e64b57e9d10a8,610377c86d97b3a2a315b060,2021-07-29_23h56.17.266,Simcolourproject_2stim_asymm_v5,2020.2.10,MacIntel,60,61025ae37ef11b136ea224fe,,,,,,,,,2361,-54.32421875,35.38671875,1,0,0,response7disk,,1,-11.40234375,9.8828125,1,0,0,rectangle,-11.40234375,9.8828125,1,0,0,-11.40234375,9.8828125,1,0,0,0,78,78,35,1,,,,,,,,
,,,,,,,,,,,,,FF,,,,,,,,0.5668,,,,,,,,,,,,,,,,,,,,,,60fe310d963e64b57e9d10a8,610377c86d97b3a2a315b060,2021-07-29_23h56.17.266,Simcolourproject_2stim_asymm_v5,2020.2.10,MacIntel,60,61025ae37ef11b136ea224fe,,,,,,,,,784,-69.171875,-32.8671875,1,0,0,response5disk,,2,-35.72265625,-10.2265625,1,0,0,rectangle,-35.72265625,-10.2265625,1,0,0,-35.72265625,-10.2265625,1,0,0,0,79,79,140,1,,,,,,,,
,,,,,,,,,,,,,FF,,,,,,,,0.6341,,,,,,,,,,,,,,,,,,,,,,60fe310d963e64b57e9d10a8,610377c86d97b3a2a315b060,2021-07-29_23h56.17.266,Simcolourproject_2stim_asymm_v5,2020.2.10,MacIntel,60,61025ae37ef11b136ea224fe,,,,,,,,,1187,28.8203125,-53.88671875,1,0,0,response3disk,,4,0.76171875,1.453125,1,0,0,rectangle,-90.63671875,35.07421875,1,0,0,4.6796875,-0.1953125,1,0,0,0,80,80,150,1,,response7disk_3,TRUE,1,1,"[286,152,261,104,85,157,100,161,319,81,290,302,190,182,122,117,196,32,322,207]",1.6499,rectangle
,,,,,,,,,,,,,FF,,,,,,,,0.5837,,,,,,,,,,,,,,,,,,,,,,60fe310d963e64b57e9d10a8,610377c86d97b3a2a315b060,2021-07-29_23h56.17.266,Simcolourproject_2stim_asymm_v5,2020.2.10,MacIntel,60,61025ae37ef11b136ea224fe,,,,,,,,,3068,-82.98046875,-52.859375,1,0,0,response5disk,,2,-14.375,4.0390625,1,0,0,rectangle,-14.375,4.0390625,1,0,0,-14.375,4.0390625,1,0,0,0,81,81,57,1,,,,,,,,
,,,,,,,,,,,,,FF,,,,,,,,0.5174,,,,,,,,,,,,,,,,,,,,,,60fe310d963e64b57e9d10a8,610377c86d97b3a2a315b060,2021-07-29_23h56.17.266,Simcolourproject_2stim_asymm_v5,2020.2.10,MacIntel,60,61025ae37ef11b136ea224fe,,,,,,,,,188,-36.55078125,61.90234375,1,0,0,response7disk,,0,-27.10546875,-3.7109375,1,0,0,rectangle,-27.10546875,-3.7109375,1,0,0,-27.10546875,-3.7109375,1,0,0,0,82,82,152,1,,,,,,,,
,,,,,,,,,,,,,FF,,,,,,,,0.4495,,,,,,,,,,,,,,,,,,,,,,60fe310d963e64b57e9d10a8,610377c86d97b3a2a315b060,2021-07-29_23h56.17.266,Simcolourproject_2stim_asymm_v5,2020.2.10,MacIntel,60,61025ae37ef11b136ea224fe,,,,,,,,,297,37.7578125,-50.2109375,1,0,0,response3disk,,4,31.375,-11.13671875,1,0,0,rectangle,31.375,-11.13671875,1,0,0,31.375,-11.13671875,1,0,0,0,83,83,130,1,,,,,,,,
,,,,,,,,,,,,,FF,,,,,,,,0.3832,,,,,,,,,,,,,,,,,,,,,,60fe310d963e64b57e9d10a8,610377c86d97b3a2a315b060,2021-07-29_23h56.17.266,Simcolourproject_2stim_asymm_v5,2020.2.10,MacIntel,60,61025ae37ef11b136ea224fe,,,,,,,,,1853,-28.95703125,-38.2890625,1,0,0,response5disk,,3,-14.4140625,-6.5859375,1,0,0,rectangle,-61.95703125,-37.4609375,1,0,0,4.62109375,-10.1640625,1,0,0,0,84,84,128,1,,response5disk_3,TRUE,2,2,"[286,152,261,104,85,157,100,161,319,81,290,302,190,182,122,117,196,32,322,207]",1.8324,rectangle
,,,,,,,,,,,,,FF,,,,,,,,1.1176,,,,,,,,,,,,,,,,,,,,,,60fe310d963e64b57e9d10a8,610377c86d97b3a2a315b060,2021-07-29_23h56.17.266,Simcolourproject_2stim_asymm_v5,2020.2.10,MacIntel,60,61025ae37ef11b136ea224fe,,,,,,,,,176,-45.42578125,-37.52734375,1,0,0,response5disk,,2,-8.515625,-14.3359375,1,0,0,rectangle,-8.515625,-14.3359375,1,0,0,-8.515625,-14.3359375,1,0,0,0,85,85,31,1,,,,,,,,
,,,,,,,,,,,,,FF,,,,,,,,0.7841,,,,,,,,,,,,,,,,,,,,,,60fe310d963e64b57e9d10a8,610377c86d97b3a2a315b060,2021-07-29_23h56.17.266,Simcolourproject_2stim_asymm_v5,2020.2.10,MacIntel,60,61025ae37ef11b136ea224fe,,,,,,,,,2223,-74.73828125,32.4453125,1,0,0,response7disk,,1,-1.46484375,2.0859375,1,0,0,rectangle,-1.46484375,2.0859375,1,0,0,-1.46484375,2.0859375,1,0,0,0,86,86,54,1,,,,,,,,
,,,,,,,,,,,,,FF,,,,,,,,0.6335,,,,,,,,,,,,,,,,,,,,,,60fe310d963e64b57e9d10a8,610377c86d97b3a2a315b060,2021-07-29_23h56.17.266,Simcolourproject_2stim_asymm_v5,2020.2.10,MacIntel,60,61025ae37ef11b136ea224fe,,,,,,,,,2546,-45.234375,52.82421875,1,0,0,response7disk,,0,-10.171875,-11.44140625,1,0,0,rectangle,-10.171875,-11.44140625,1,0,0,-10.171875,-11.44140625,1,0,0,0,87,87,146,1,,,,,,,,
,,,,,,,,,,,,,FF,,,,,,,,0.6168,,,,,,,,,,,,,,,,,,,,,,60fe310d963e64b57e9d10a8,610377c86d97b3a2a315b060,2021-07-29_23h56.17.266,Simcolourproject_2stim_asymm_v5,2020.2.10,MacIntel,60,61025ae37ef11b136ea224fe,,,,,,,,,1827,-28.37109375,47.80859375,1,0,0,response7disk,,0,1.5625,-2.9609375,1,0,0,rectangle,1.5625,-2.9609375,1,0,0,1.5625,-2.9609375,1,0,0,0,88,88,103,1,,,,,,,,
,,,,,,,,,,,,,FF,,,,,,,,0.7005,,,,,,,,,,,,,,,,,,,,,,60fe310d963e64b57e9d10a8,610377c86d97b3a2a315b060,2021-07-29_23h56.17.266,Simcolourproject_2stim_asymm_v5,2020.2.10,MacIntel,60,61025ae37ef11b136ea224fe,,,,,,,,,158,-38.2578125,-44.3125,1,0,0,response5disk,,3,-23.171875,-6.45703125,1,0,0,rectangle,-23.171875,-6.45703125,1,0,0,-23.171875,-6.45703125,1,0,0,0,89,89,2,1,,,,,,,,
,,,,,,,,,,,,,FF,,,,,,,,2.1988,,,,,,,,,,,,,,,,,,,,,,60fe310d963e64b57e9d10a8,610377c86d97b3a2a315b060,2021-07-29_23h56.17.266,Simcolourproject_2stim_asymm_v5,2020.2.10,MacIntel,60,61025ae37ef11b136ea224fe,,,,,,,,,1438,40.203125,-88.2734375,1,0,0,response3disk,,4,18.37890625,-8.51171875,1,0,0,rectangle,18.37890625,-8.51171875,1,0,0,18.37890625,-8.51171875,1,0,0,0,90,90,79,1,,,,,,,,
,,,,,,,,,,,,,FF,,,,,,,,1.2317,,,,,,,,,,,,,,,,,,,,,,60fe310d963e64b57e9d10a8,610377c86d97b3a2a315b060,2021-07-29_23h56.17.266,Simcolourproject_2stim_asymm_v5,2020.2.10,MacIntel,60,61025ae37ef11b136ea224fe,,,,,,,,,3132,81.65625,-38.359375,1,0,0,response3disk,,5,-5.4765625,3.2734375,1,0,0,rectangle,-5.4765625,3.2734375,1,0,0,-5.4765625,3.2734375,1,0,0,0,91,91,3,1,,,,,,,,
,,,,,,,,,,,,,FF,,,,,,,,2.6166,,,,,,,,,,,,,,,,,,,,,,60fe310d963e64b57e9d10a8,610377c86d97b3a2a315b060,2021-07-29_23h56.17.266,Simcolourproject_2stim_asymm_v5,2020.2.10,MacIntel,60,61025ae37ef11b136ea224fe,,,,,,,,,602,63.48046875,-29.14453125,1,0,0,response3disk,,5,30.26171875,-9.49609375,1,0,0,rectangle,30.26171875,-9.49609375,1,0,0,30.26171875,-9.49609375,1,0,0,0,92,92,65,1,,,,,,,,
,,,,,,,,,,,,,FF,,,,,,,,0.5003,,,,,,,,,,,,,,,,,,,,,,60fe310d963e64b57e9d10a8,610377c86d97b3a2a315b060,2021-07-29_23h56.17.266,Simcolourproject_2stim_asymm_v5,2020.2.10,MacIntel,60,61025ae37ef11b136ea224fe,,,,,,,,,604,61.5234375,-32.63671875,1,0,0,response3disk,,5,1.3515625,-9.19140625,1,0,0,rectangle,1.3515625,-9.19140625,1,0,0,1.3515625,-9.19140625,1,0,0,0,93,93,1,1,,,,,,,,
,,,,,,,,,,,,,FF,,,,,,,,0.4327,,,,,,,,,,,,,,,,,,,,,,60fe310d963e64b57e9d10a8,610377c86d97b3a2a315b060,2021-07-29_23h56.17.266,Simcolourproject_2stim_asymm_v5,2020.2.10,MacIntel,60,61025ae37ef11b136ea224fe,,,,,,,,,4222,-50.21875,-68.8046875,1,0,0,response5disk,,3,-18.3671875,-3.8046875,1,0,0,rectangle,-18.3671875,-3.8046875,1,0,0,-18.3671875,-3.8046875,1,0,0,0,94,94,46,1,,,,,,,,
,,,,,,,,,,,,,FF,,,,,,,,1.1167,,,,,,,,,,,,,,,,,,,,,,60fe310d963e64b57e9d10a8,610377c86d97b3a2a315b060,2021-07-29_23h56.17.266,Simcolourproject_2stim_asymm_v5,2020.2.10,MacIntel,60,61025ae37ef11b136ea224fe,,,,,,,,,1989,88.1015625,39.53515625,1,0,0,response1disk,,6,-3.140625,16.578125,1,0,0,rectangle,-3.140625,16.578125,1,0,0,-3.140625,16.578125,1,0,0,0,95,95,18,1,,,,,,,,
,,,,,,,,,,,,,FF,,,,,,,,0.7654,,,,,,,,,,,,,,,,,,,,,,60fe310d963e64b57e9d10a8,610377c86d97b3a2a315b060,2021-07-29_23h56.17.266,Simcolourproject_2stim_asymm_v5,2020.2.10,MacIntel,60,61025ae37ef11b136ea224fe,,,,,,,,,1276,-65.96875,-40.62890625,1,0,0,response5disk,,2,-29.51171875,0.6875,1,0,0,rectangle,-29.51171875,0.6875,1,0,0,-29.51171875,0.6875,1,0,0,0,96,96,37,1,,,,,,,,
,,,,,,,,,,,,,FF,,,,,,,,0.717,,,,,,,,,,,,,,,,,,,,,,60fe310d963e64b57e9d10a8,610377c86d97b3a2a315b060,2021-07-29_23h56.17.266,Simcolourproject_2stim_asymm_v5,2020.2.10,MacIntel,60,61025ae37ef11b136ea224fe,,,,,,,,,1412,66.04296875,-50.796875,1,0,0,response3disk,,5,15.93359375,-17.89453125,1,0,0,rectangle,15.93359375,-17.89453125,1,0,0,15.93359375,-17.89453125,1,0,0,0,97,97,43,1,,,,,,,,
,,,,,,,,,,,,,FF,,,,,,,,0.7004,,,,,,,,,,,,,,,,,,,,,,60fe310d963e64b57e9d10a8,610377c86d97b3a2a315b060,2021-07-29_23h56.17.266,Simcolourproject_2stim_asymm_v5,2020.2.10,MacIntel,60,61025ae37ef11b136ea224fe,,,,,,,,,2205,81.44140625,-47.79296875,1,0,0,response3disk,,5,15.13671875,-10.96484375,1,0,0,rectangle,15.13671875,-10.96484375,1,0,0,15.13671875,-10.96484375,1,0,0,0,98,98,5,1,,,,,,,,
,,,,,,,,,,,,,FF,,,,,,,,0.5684,,,,,,,,,,,,,,,,,,,,,,60fe310d963e64b57e9d10a8,610377c86d97b3a2a315b060,2021-07-29_23h56.17.266,Simcolourproject_2stim_asymm_v5,2020.2.10,MacIntel,60,61025ae37ef11b136ea224fe,,,,,,,,,3592,-23.6796875,-58.75,1,0,0,response5disk,,3,-23.6796875,-10.66796875,1,0,0,rectangle,-49.92578125,86.22265625,1,0,0,-6.6328125,-1.59765625,1,0,0,0,99,99,99,1,,response7disk_3,TRUE,0,0,"[286,152,261,104,85,157,100,161,319,81,290,302,190,182,122,117,196,32,322,207]",1.4824,rectangle
,,,,,,,,,,,,,FF,,,,,,,,0.9499,,,,,,,,,,,,,,,,,,,,,,60fe310d963e64b57e9d10a8,610377c86d97b3a2a315b060,2021-07-29_23h56.17.266,Simcolourproject_2stim_asymm_v5,2020.2.10,MacIntel,60,61025ae37ef11b136ea224fe,,,,,,,,,1457,-60.84765625,-28.59375,1,0,0,response5disk,,2,-10.55859375,-8.7578125,1,0,0,rectangle,-10.55859375,-8.7578125,1,0,0,-10.55859375,-8.7578125,1,0,0,0,100,100,138,1,,,,,,,,
,,,,,,,,,,,,,FF,,,,,,,,0.6344,,,,,,,,,,,,,,,,,,,,,,60fe310d963e64b57e9d10a8,610377c86d97b3a2a315b060,2021-07-29_23h56.17.266,Simcolourproject_2stim_asymm_v5,2020.2.10,MacIntel,60,61025ae37ef11b136ea224fe,,,,,,,,,2271,62.703125,-28.359375,1,0,0,response3disk,,5,18.8203125,-11.19140625,1,0,0,rectangle,18.8203125,-11.19140625,1,0,0,18.8203125,-11.19140625,1,0,0,0,101,101,50,1,,,,,,,,
,,,,,,,,,,,,,FF,,,,,,,,0.8165,,,,,,,,,,,,,,,,,,,,,,60fe310d963e64b57e9d10a8,610377c86d97b3a2a315b060,2021-07-29_23h56.17.266,Simcolourproject_2stim_asymm_v5,2020.2.10,MacIntel,60,61025ae37ef11b136ea224fe,,,,,,,,,2198,-21.05078125,-52.4609375,1,0,0,response5disk,,3,-20.35546875,-13.53515625,1,0,0,rectangle,-20.35546875,-13.53515625,1,0,0,-20.35546875,-13.53515625,1,0,0,0,102,102,66,1,,,,,,,,
,,,,,,,,,,,,,FF,,,,,,,,1.4502,,,,,,,,,,,,,,,,,,,,,,60fe310d963e64b57e9d10a8,610377c86d97b3a2a315b060,2021-07-29_23h56.17.266,Simcolourproject_2stim_asymm_v5,2020.2.10,MacIntel,60,61025ae37ef11b136ea224fe,,,,,,,,,2184,34.21875,-48.47265625,1,0,0,response3disk,,4,9.1953125,9.5546875,1,0,0,rectangle,-33.32421875,-114.6523438,1,0,0,-8.578125,0.24609375,1,0,0,0,103,103,58,1,,response5disk_3,TRUE,3,3,"[286,152,261,104,85,157,100,161,319,81,290,302,190,182,122,117,196,32,322,207]",1.8177,rectangle
,,,,,,,,,,,,,FF,,,,,,,,4.1834,,,,,,,,,,,,,,,,,,,,,,60fe310d963e64b57e9d10a8,610377c86d97b3a2a315b060,2021-07-29_23h56.17.266,Simcolourproject_2stim_asymm_v5,2020.2.10,MacIntel,60,61025ae37ef11b136ea224fe,,,,,,,,,2033,70.6015625,36.5390625,1,0,0,response1disk,,6,4.4296875,-0.5546875,1,0,0,rectangle,4.4296875,-0.5546875,1,0,0,4.4296875,-0.5546875,1,0,0,0,104,104,139,1,,,,,,,,
,,,,,,,,,,,,,FF,,,,,,,,0.5663,,,,,,,,,,,,,,,,,,,,,,60fe310d963e64b57e9d10a8,610377c86d97b3a2a315b060,2021-07-29_23h56.17.266,Simcolourproject_2stim_asymm_v5,2020.2.10,MacIntel,60,61025ae37ef11b136ea224fe,,,,,,,,,916,43.953125,-52.7578125,1,0,0,response3disk,,4,-10.9375,-10.51171875,1,0,0,rectangle,-10.9375,-10.51171875,1,0,0,-10.9375,-10.51171875,1,0,0,0,105,105,29,1,,,,,,,,
,,,,,,,,,,,,,FF,,,,,,,,0.8332,,,,,,,,,,,,,,,,,,,,,,60fe310d963e64b57e9d10a8,610377c86d97b3a2a315b060,2021-07-29_23h56.17.266,Simcolourproject_2stim_asymm_v5,2020.2.10,MacIntel,60,61025ae37ef11b136ea224fe,,,,,,,,,3122,47.42578125,59.29296875,1,0,0,response1disk,,7,-2.1015625,-14.5234375,1,0,0,rectangle,-2.1015625,-14.5234375,1,0,0,-2.1015625,-14.5234375,1,0,0,0,106,106,69,1,,,,,,,,
,,,,,,,,,,,,,FF,,,,,,,,0.6157,,,,,,,,,,,,,,,,,,,,,,60fe310d963e64b57e9d10a8,610377c86d97b3a2a315b060,2021-07-29_23h56.17.266,Simcolourproject_2stim_asymm_v5,2020.2.10,MacIntel,60,61025ae37ef11b136ea224fe,,,,,,,,,650,-24.87890625,-51.4609375,1,0,0,response5disk,,3,-24.87890625,-11.2734375,1,0,0,rectangle,-24.87890625,-11.2734375,1,0,0,-24.87890625,-11.2734375,1,0,0,0,107,107,121,1,,,,,,,,
,,,,,,,,,,,,,FF,,,,,,,,0.5333,,,,,,,,,,,,,,,,,,,,,,60fe310d963e64b57e9d10a8,610377c86d97b3a2a315b060,2021-07-29_23h56.17.266,Simcolourproject_2stim_asymm_v5,2020.2.10,MacIntel,60,61025ae37ef11b136ea224fe,,,,,,,,,546,-25.83984375,-47.73046875,1,0,0,response5disk,,3,-25.83984375,-3.4609375,1,0,0,rectangle,-25.83984375,-3.4609375,1,0,0,-25.83984375,-3.4609375,1,0,0,0,108,108,159,1,,,,,,,,
,,,,,,,,,,,,,FF,,,,,,,,0.4663,,,,,,,,,,,,,,,,,,,,,,60fe310d963e64b57e9d10a8,610377c86d97b3a2a315b060,2021-07-29_23h56.17.266,Simcolourproject_2stim_asymm_v5,2020.2.10,MacIntel,60,61025ae37ef11b136ea224fe,,,,,,,,,1608,-27.58203125,-45.34375,1,0,0,response5disk,,3,-9.68359375,-13.3203125,1,0,0,rectangle,-9.68359375,-13.3203125,1,0,0,-9.68359375,-13.3203125,1,0,0,0,109,109,122,1,,,,,,,,
,,,,,,,,,,,,,FF,,,,,,,,0.585,,,,,,,,,,,,,,,,,,,,,,60fe310d963e64b57e9d10a8,610377c86d97b3a2a315b060,2021-07-29_23h56.17.266,Simcolourproject_2stim_asymm_v5,2020.2.10,MacIntel,60,61025ae37ef11b136ea224fe,,,,,,,,,3590,81.74609375,-20.78515625,1,0,0,response3disk,,5,33.4296875,-4.75,1,0,0,rectangle,33.4296875,-4.75,1,0,0,33.4296875,-4.75,1,0,0,0,110,110,144,1,,,,,,,,
,,,,,,,,,,,,,FF,,,,,,,,0.4835,,,,,,,,,,,,,,,,,,,,,,60fe310d963e64b57e9d10a8,610377c86d97b3a2a315b060,2021-07-29_23h56.17.266,Simcolourproject_2stim_asymm_v5,2020.2.10,MacIntel,60,61025ae37ef11b136ea224fe,,,,,,,,,1659,62.5625,40.66015625,1,0,0,response1disk,,6,11.4609375,3.40234375,1,0,0,rectangle,11.4609375,3.40234375,1,0,0,11.4609375,3.40234375,1,0,0,0,111,111,56,1,,,,,,,,
,,,,,,,,,,,,,FF,,,,,,,,0.6171,,,,,,,,,,,,,,,,,,,,,,60fe310d963e64b57e9d10a8,610377c86d97b3a2a315b060,2021-07-29_23h56.17.266,Simcolourproject_2stim_asymm_v5,2020.2.10,MacIntel,60,61025ae37ef11b136ea224fe,,,,,,,,,1525,-48.88671875,-34.5234375,1,0,0,response5disk,,2,-4.73046875,-11.203125,1,0,0,rectangle,-4.73046875,-11.203125,1,0,0,-4.73046875,-11.203125,1,0,0,0,112,112,4,1,,,,,,,,
,,,,,,,,,,,,,FF,,,,,,,,0.6828,,,,,,,,,,,,,,,,,,,,,,60fe310d963e64b57e9d10a8,610377c86d97b3a2a315b060,2021-07-29_23h56.17.266,Simcolourproject_2stim_asymm_v5,2020.2.10,MacIntel,60,61025ae37ef11b136ea224fe,,,,,,,,,2281,91.4609375,35.15625,1,0,0,response1disk,,6,8.0625,-0.65234375,1,0,0,rectangle,8.0625,-0.65234375,1,0,0,8.0625,-0.65234375,1,0,0,0,113,113,72,1,,,,,,,,
,,,,,,,,,,,,,FF,,,,,,,,0.5178,,,,,,,,,,,,,,,,,,,,,,60fe310d963e64b57e9d10a8,610377c86d97b3a2a315b060,2021-07-29_23h56.17.266,Simcolourproject_2stim_asymm_v5,2020.2.10,MacIntel,60,61025ae37ef11b136ea224fe,,,,,,,,,1892,-64.5546875,24.3359375,1,0,0,response7disk,,1,-29.4453125,1.359375,1,0,0,rectangle,-29.4453125,1.359375,1,0,0,-29.4453125,1.359375,1,0,0,0,114,114,80,1,,,,,,,,
,,,,,,,,,,,,,FF,,,,,,,,0.4509,,,,,,,,,,,,,,,,,,,,,,60fe310d963e64b57e9d10a8,610377c86d97b3a2a315b060,2021-07-29_23h56.17.266,Simcolourproject_2stim_asymm_v5,2020.2.10,MacIntel,60,61025ae37ef11b136ea224fe,,,,,,,,,2509,71.83984375,-36.30859375,1,0,0,response3disk,,5,15.76171875,-0.01953125,1,0,0,rectangle,15.76171875,-0.01953125,1,0,0,15.76171875,-0.01953125,1,0,0,0,115,115,30,1,,,,,,,,
,,,,,,,,,,,,,FF,,,,,,,,0.6501,,,,,,,,,,,,,,,,,,,,,,60fe310d963e64b57e9d10a8,610377c86d97b3a2a315b060,2021-07-29_23h56.17.266,Simcolourproject_2stim_asymm_v5,2020.2.10,MacIntel,60,61025ae37ef11b136ea224fe,,,,,,,,,3048,-34.83203125,75.58984375,1,0,0,response7disk,,0,7.01953125,-0.0390625,1,0,0,rectangle,-110.9609375,59.33984375,1,0,0,3.1953125,-5.78125,1,0,0,0,116,116,115,1,,response7disk_3,TRUE,1,1,"[286,152,261,104,85,157,100,161,319,81,290,302,190,182,122,117,196,32,322,207]",1.1825,rectangle
,,,,,,,,,,,,,FF,,,,,,,,0.566,,,,,,,,,,,,,,,,,,,,,,60fe310d963e64b57e9d10a8,610377c86d97b3a2a315b060,2021-07-29_23h56.17.266,Simcolourproject_2stim_asymm_v5,2020.2.10,MacIntel,60,61025ae37ef11b136ea224fe,,,,,,,,,3803,50.2890625,-24.40625,1,0,0,response3disk,,5,10.671875,-8.77734375,1,0,0,rectangle,10.671875,-8.77734375,1,0,0,10.671875,-8.77734375,1,0,0,0,117,117,42,1,,,,,,,,
,,,,,,,,,,,,,FF,,,,,,,,0.583,,,,,,,,,,,,,,,,,,,,,,60fe310d963e64b57e9d10a8,610377c86d97b3a2a315b060,2021-07-29_23h56.17.266,Simcolourproject_2stim_asymm_v5,2020.2.10,MacIntel,60,61025ae37ef11b136ea224fe,,,,,,,,,441,-76.41015625,51.6484375,1,0,0,response7disk,,1,-1.25,7.53515625,1,0,0,rectangle,-1.25,7.53515625,1,0,0,-1.25,7.53515625,1,0,0,0,118,118,23,1,,,,,,,,
,,,,,,,,,,,,,FF,,,,,,,,0.5667,,,,,,,,,,,,,,,,,,,,,,60fe310d963e64b57e9d10a8,610377c86d97b3a2a315b060,2021-07-29_23h56.17.266,Simcolourproject_2stim_asymm_v5,2020.2.10,MacIntel,60,61025ae37ef11b136ea224fe,,,,,,,,,1624,89.921875,25.390625,1,0,0,response1disk,,6,-6.65234375,12.8984375,1,0,0,rectangle,-6.65234375,12.8984375,1,0,0,-6.65234375,12.8984375,1,0,0,0,119,119,28,1,,,,,,,,
,,,,,,,,,,,,,FF,,,,,,,,0.418,,,,,,,,,,,,,,,,,,,,,,60fe310d963e64b57e9d10a8,610377c86d97b3a2a315b060,2021-07-29_23h56.17.266,Simcolourproject_2stim_asymm_v5,2020.2.10,MacIntel,60,61025ae37ef11b136ea224fe,,,,,,,,,3970,-34.97265625,34.8984375,1,0,0,response7disk,,1,-5.8203125,3.08984375,1,0,0,rectangle,-5.8203125,3.08984375,1,0,0,-5.8203125,3.08984375,1,0,0,0,120,120,90,1,,,,,,,,
,,,,,,,,,,,,,FF,,,,,,,,0.3338,,,,,,,,,,,,,,,,,,,,,,60fe310d963e64b57e9d10a8,610377c86d97b3a2a315b060,2021-07-29_23h56.17.266,Simcolourproject_2stim_asymm_v5,2020.2.10,MacIntel,60,61025ae37ef11b136ea224fe,,,,,,,,,1243,64.52734375,-23.4765625,1,0,0,response3disk,,5,17.44140625,-6.85546875,1,0,0,rectangle,-86.20703125,27.73046875,1,0,0,-4.18359375,-0.95703125,1,0,0,0,121,121,44,1,,response7disk_3,TRUE,1,1,"[286,152,261,104,85,157,100,161,319,81,290,302,190,182,122,117,196,32,322,207]",1.0324,rectangle
,,,,,,,,,,,,,FF,,,,,,,,0.6989,,,,,,,,,,,,,,,,,,,,,,60fe310d963e64b57e9d10a8,610377c86d97b3a2a315b060,2021-07-29_23h56.17.266,Simcolourproject_2stim_asymm_v5,2020.2.10,MacIntel,60,61025ae37ef11b136ea224fe,,,,,,,,,3909,-34.17578125,76.3203125,1,0,0,response7disk,,0,-0.78125,10.359375,1,0,0,rectangle,-0.78125,10.359375,1,0,0,-0.78125,10.359375,1,0,0,0,122,122,21,1,,,,,,,,
,,,,,,,,,,,,,FF,,,,,,,,0.8831,,,,,,,,,,,,,,,,,,,,,,60fe310d963e64b57e9d10a8,610377c86d97b3a2a315b060,2021-07-29_23h56.17.266,Simcolourproject_2stim_asymm_v5,2020.2.10,MacIntel,60,61025ae37ef11b136ea224fe,,,,,,,,,660,40.3359375,-68.40625,1,0,0,response3disk,,4,2.55859375,10.3203125,1,0,0,rectangle,2.55859375,10.3203125,1,0,0,2.55859375,10.3203125,1,0,0,0,123,123,151,1,,,,,,,,
,,,,,,,,,,,,,FF,,,,,,,,0.7502,,,,,,,,,,,,,,,,,,,,,,60fe310d963e64b57e9d10a8,610377c86d97b3a2a315b060,2021-07-29_23h56.17.266,Simcolourproject_2stim_asymm_v5,2020.2.10,MacIntel,60,61025ae37ef11b136ea224fe,,,,,,,,,3687,85.36328125,42.9296875,1,0,0,response1disk,,6,-2.98046875,-14.5703125,1,0,0,rectangle,-2.98046875,-14.5703125,1,0,0,-2.98046875,-14.5703125,1,0,0,0,124,124,132,1,,,,,,,,
,,,,,,,,,,,,,FF,,,,,,,,0.7994,,,,,,,,,,,,,,,,,,,,,,60fe310d963e64b57e9d10a8,610377c86d97b3a2a315b060,2021-07-29_23h56.17.266,Simcolourproject_2stim_asymm_v5,2020.2.10,MacIntel,60,61025ae37ef11b136ea224fe,,,,,,,,,656,-22.47265625,-65.50390625,1,0,0,response5disk,,3,-6.39453125,0.03125,1,0,0,rectangle,-6.39453125,0.03125,1,0,0,-6.39453125,0.03125,1,0,0,0,125,125,34,1,,,,,,,,
,,,,,,,,,,,,,FF,,,,,,,,0.5997,,,,,,,,,,,,,,,,,,,,,,60fe310d963e64b57e9d10a8,610377c86d97b3a2a315b060,2021-07-29_23h56.17.266,Simcolourproject_2stim_asymm_v5,2020.2.10,MacIntel,60,61025ae37ef11b136ea224fe,,,,,,,,,372,-71.546875,31.078125,1,0,0,response7disk,,1,-6.08984375,0.671875,1,0,0,rectangle,-6.08984375,0.671875,1,0,0,-6.08984375,0.671875,1,0,0,0,126,126,53,1,,,,,,,,
,,,,,,,,,,,,,FF,,,,,,,,0.585,,,,,,,,,,,,,,,,,,,,,,60fe310d963e64b57e9d10a8,610377c86d97b3a2a315b060,2021-07-29_23h56.17.266,Simcolourproject_2stim_asymm_v5,2020.2.10,MacIntel,60,61025ae37ef11b136ea224fe,,,,,,,,,2203,73.09375,44.9140625,1,0,0,response1disk,,6,-5.26953125,1.78515625,1,0,0,rectangle,-5.26953125,1.78515625,1,0,0,-5.26953125,1.78515625,1,0,0,0,127,127,145,1,,,,,,,,
,,,,,,,,,,,,,FF,,,,,,,,0.9331,,,,,,,,,,,,,,,,,,,,,,60fe310d963e64b57e9d10a8,610377c86d97b3a2a315b060,2021-07-29_23h56.17.266,Simcolourproject_2stim_asymm_v5,2020.2.10,MacIntel,60,61025ae37ef11b136ea224fe,,,,,,,,,285,48.328125,-83.6796875,1,0,0,response3disk,,4,-1.6171875,7.71875,1,0,0,rectangle,-1.6171875,7.71875,1,0,0,-1.6171875,7.71875,1,0,0,0,128,128,111,1,,,,,,,,
,,,,,,,,,,,,,FF,,,,,,,,2.1662,,,,,,,,,,,,,,,,,,,,,,60fe310d963e64b57e9d10a8,610377c86d97b3a2a315b060,2021-07-29_23h56.17.266,Simcolourproject_2stim_asymm_v5,2020.2.10,MacIntel,60,61025ae37ef11b136ea224fe,,,,,,,,,1951,101.9726563,-23.2890625,1,0,0,response3disk,,5,-22.765625,-5.76171875,1,0,0,rectangle,-22.765625,-5.76171875,1,0,0,-22.765625,-5.76171875,1,0,0,0,129,129,105,1,,,,,,,,
,,,,,,,,,,,,,FF,,,,,,,,1.0496,,,,,,,,,,,,,,,,,,,,,,60fe310d963e64b57e9d10a8,610377c86d97b3a2a315b060,2021-07-29_23h56.17.266,Simcolourproject_2stim_asymm_v5,2020.2.10,MacIntel,60,61025ae37ef11b136ea224fe,,,,,,,,,3992,74.90625,27.95703125,1,0,0,response1disk,,6,-15.29296875,-0.01171875,1,0,0,rectangle,-15.29296875,-0.01171875,1,0,0,-15.29296875,-0.01171875,1,0,0,0,130,130,153,1,,,,,,,,
,,,,,,,,,,,,,FF,,,,,,,,0.6994,,,,,,,,,,,,,,,,,,,,,,60fe310d963e64b57e9d10a8,610377c86d97b3a2a315b060,2021-07-29_23h56.17.266,Simcolourproject_2stim_asymm_v5,2020.2.10,MacIntel,60,61025ae37ef11b136ea224fe,,,,,,,,,3794,45.546875,32.5546875,1,0,0,response1disk,,6,-1.39453125,-3.26953125,1,0,0,rectangle,-1.39453125,-3.26953125,1,0,0,-1.39453125,-3.26953125,1,0,0,0,131,131,101,1,,,,,,,,
,,,,,,,,,,,,,FF,,,,,,,,0.6834,,,,,,,,,,,,,,,,,,,,,,60fe310d963e64b57e9d10a8,610377c86d97b3a2a315b060,2021-07-29_23h56.17.266,Simcolourproject_2stim_asymm_v5,2020.2.10,MacIntel,60,61025ae37ef11b136ea224fe,,,,,,,,,2502,16.30859375,37.3828125,1,0,0,response1disk,,7,-3.63671875,-5.5625,1,0,0,rectangle,-3.63671875,-5.5625,1,0,0,-3.63671875,-5.5625,1,0,0,0,132,132,51,1,,,,,,,,
,,,,,,,,,,,,,FF,,,,,,,,0.9337,,,,,,,,,,,,,,,,,,,,,,60fe310d963e64b57e9d10a8,610377c86d97b3a2a315b060,2021-07-29_23h56.17.266,Simcolourproject_2stim_asymm_v5,2020.2.10,MacIntel,60,61025ae37ef11b136ea224fe,,,,,,,,,1960,20.3046875,-72.34765625,1,0,0,response3disk,,4,1.04296875,-12.94921875,1,0,0,rectangle,1.04296875,-12.94921875,1,0,0,1.04296875,-12.94921875,1,0,0,0,133,133,133,1,,,,,,,,
,,,,,,,,,,,,,FF,,,,,,,,0.5834,,,,,,,,,,,,,,,,,,,,,,60fe310d963e64b57e9d10a8,610377c86d97b3a2a315b060,2021-07-29_23h56.17.266,Simcolourproject_2stim_asymm_v5,2020.2.10,MacIntel,60,61025ae37ef11b136ea224fe,,,,,,,,,4171,58.08984375,48,1,0,0,response1disk,,6,19.94140625,9.36328125,1,0,0,rectangle,19.94140625,9.36328125,1,0,0,19.94140625,9.36328125,1,0,0,0,134,134,91,1,,,,,,,,
,,,,,,,,,,,,,FF,,,,,,,,0.9504,,,,,,,,,,,,,,,,,,,,,,60fe310d963e64b57e9d10a8,610377c86d97b3a2a315b060,2021-07-29_23h56.17.266,Simcolourproject_2stim_asymm_v5,2020.2.10,MacIntel,60,61025ae37ef11b136ea224fe,,,,,,,,,1147,44.2890625,-24.328125,1,0,0,response3disk,,5,2.17578125,-5.72265625,1,0,0,rectangle,2.17578125,-5.72265625,1,0,0,2.17578125,-5.72265625,1,0,0,0,135,135,59,1,,,,,,,,
,,,,,,,,,,,,,FF,,,,,,,,2.8174,,,,,,,,,,,,,,,,,,,,,,60fe310d963e64b57e9d10a8,610377c86d97b3a2a315b060,2021-07-29_23h56.17.266,Simcolourproject_2stim_asymm_v5,2020.2.10,MacIntel,60,61025ae37ef11b136ea224fe,,,,,,,,,1732,43.98046875,-62.48828125,1,0,0,response3disk,,4,16.6171875,-16.32421875,1,0,0,rectangle,16.6171875,-16.32421875,1,0,0,16.6171875,-16.32421875,1,0,0,0,136,136,93,1,,,,,,,,
,,,,,,,,,,,,,FF,,,,,,,,0.9333,,,,,,,,,,,,,,,,,,,,,,60fe310d963e64b57e9d10a8,610377c86d97b3a2a315b060,2021-07-29_23h56.17.266,Simcolourproject_2stim_asymm_v5,2020.2.10,MacIntel,60,61025ae37ef11b136ea224fe,,,,,,,,,3052,-118.3007813,-28.09375,1,0,0,response5disk,,2,-19.97265625,-12.17578125,1,0,0,rectangle,-19.97265625,-12.17578125,1,0,0,-19.97265625,-12.17578125,1,0,0,0,137,137,83,1,,,,,,,,
,,,,,,,,,,,,,FF,,,,,,,,0.5174,,,,,,,,,,,,,,,,,,,,,,60fe310d963e64b57e9d10a8,610377c86d97b3a2a315b060,2021-07-29_23h56.17.266,Simcolourproject_2stim_asymm_v5,2020.2.10,MacIntel,60,61025ae37ef11b136ea224fe,,,,,,,,,1369,-48.19140625,-24.13671875,1,0,0,response5disk,,2,-28.11328125,-11.796875,1,0,0,rectangle,-28.11328125,-11.796875,1,0,0,-28.11328125,-11.796875,1,0,0,0,138,138,77,1,,,,,,,,
,,,,,,,,,,,,,FF,,,,,,,,0.6334,,,,,,,,,,,,,,,,,,,,,,60fe310d963e64b57e9d10a8,610377c86d97b3a2a315b060,2021-07-29_23h56.17.266,Simcolourproject_2stim_asymm_v5,2020.2.10,MacIntel,60,61025ae37ef11b136ea224fe,,,,,,,,,155,40.50390625,-70.0546875,1,0,0,response3disk,,4,25.77734375,-17.7265625,1,0,0,rectangle,25.77734375,-17.7265625,1,0,0,25.77734375,-17.7265625,1,0,0,0,139,139,36,1,,,,,,,,
,,,,,,,,,,,,,FF,,,,,,,,0.884,,,,,,,,,,,,,,,,,,,,,,60fe310d963e64b57e9d10a8,610377c86d97b3a2a315b060,2021-07-29_23h56.17.266,Simcolourproject_2stim_asymm_v5,2020.2.10,MacIntel,60,61025ae37ef11b136ea224fe,,,,,,,,,4015,45.6875,-23.04296875,1,0,0,response3disk,,5,-7.4375,2.9609375,1,0,0,rectangle,-7.4375,2.9609375,1,0,0,-7.4375,2.9609375,1,0,0,0,140,140,75,1,,,,,,,,
,,,,,,,,,,,,,FF,,,,,,,,0.6173,,,,,,,,,,,,,,,,,,,,,,60fe310d963e64b57e9d10a8,610377c86d97b3a2a315b060,2021-07-29_23h56.17.266,Simcolourproject_2stim_asymm_v5,2020.2.10,MacIntel,60,61025ae37ef11b136ea224fe,,,,,,,,,2384,47.97265625,17.44140625,1,0,0,response1disk,,6,10.4140625,-0.47265625,1,0,0,rectangle,10.4140625,-0.47265625,1,0,0,10.4140625,-0.47265625,1,0,0,0,141,141,76,1,,,,,,,,
,,,,,,,,,,,,,FF,,,,,,,,0.8171,,,,,,,,,,,,,,,,,,,,,,60fe310d963e64b57e9d10a8,610377c86d97b3a2a315b060,2021-07-29_23h56.17.266,Simcolourproject_2stim_asymm_v5,2020.2.10,MacIntel,60,61025ae37ef11b136ea224fe,,,,,,,,,3559,-65.32421875,34.07421875,1,0,0,response7disk,,1,-5.97265625,-9.91796875,1,0,0,rectangle,-5.97265625,-9.91796875,1,0,0,-5.97265625,-9.91796875,1,0,0,0,142,142,114,1,,,,,,,,
,,,,,,,,,,,,,FF,,,,,,,,0.8655,,,,,,,,,,,,,,,,,,,,,,60fe310d963e64b57e9d10a8,610377c86d97b3a2a315b060,2021-07-29_23h56.17.266,Simcolourproject_2stim_asymm_v5,2020.2.10,MacIntel,60,61025ae37ef11b136ea224fe,,,,,,,,,2984,-34.7890625,59.50390625,1,0,0,response7disk,,0,-10.21875,3.375,1,0,0,rectangle,-10.21875,3.375,1,0,0,-10.21875,3.375,1,0,0,0,143,143,68,1,,,,,,,,
,,,,,,,,,,,,,FF,,,,,,,,0.6166,,,,,,,,,,,,,,,,,,,,,,60fe310d963e64b57e9d10a8,610377c86d97b3a2a315b060,2021-07-29_23h56.17.266,Simcolourproject_2stim_asymm_v5,2020.2.10,MacIntel,60,61025ae37ef11b136ea224fe,,,,,,,,,1620,66.9375,-41.98046875,1,0,0,response3disk,,5,10.89453125,-13.04296875,1,0,0,rectangle,10.89453125,-13.04296875,1,0,0,10.89453125,-13.04296875,1,0,0,0,144,144,63,1,,,,,,,,
,,,,,,,,,,,,,FF,,,,,,,,0.8166,,,,,,,,,,,,,,,,,,,,,,60fe310d963e64b57e9d10a8,610377c86d97b3a2a315b060,2021-07-29_23h56.17.266,Simcolourproject_2stim_asymm_v5,2020.2.10,MacIntel,60,61025ae37ef11b136ea224fe,,,,,,,,,1104,48.53125,24.2890625,1,0,0,response1disk,,6,19.77734375,7.2890625,1,0,0,rectangle,19.77734375,7.2890625,1,0,0,19.77734375,7.2890625,1,0,0,0,145,145,113,1,,,,,,,,
,,,,,,,,,,,,,FF,,,,,,,,0.9827,,,,,,,,,,,,,,,,,,,,,,60fe310d963e64b57e9d10a8,610377c86d97b3a2a315b060,2021-07-29_23h56.17.266,Simcolourproject_2stim_asymm_v5,2020.2.10,MacIntel,60,61025ae37ef11b136ea224fe,,,,,,,,,97,-36.890625,60.5625,1,0,0,response7disk,,0,-6.98828125,-4.1875,1,0,0,rectangle,-6.98828125,-4.1875,1,0,0,-6.98828125,-4.1875,1,0,0,0,146,146,67,1,,,,,,,,
,,,,,,,,,,,,,FF,,,,,,,,0.6674,,,,,,,,,,,,,,,,,,,,,,60fe310d963e64b57e9d10a8,610377c86d97b3a2a315b060,2021-07-29_23h56.17.266,Simcolourproject_2stim_asymm_v5,2020.2.10,MacIntel,60,61025ae37ef11b136ea224fe,,,,,,,,,1374,34.9453125,16.46484375,1,0,0,response1disk,,6,-18.203125,-16.00390625,1,0,0,rectangle,-18.203125,-16.00390625,1,0,0,-18.203125,-16.00390625,1,0,0,0,147,147,22,1,,,,,,,,
,,,,,,,,,,,,,FF,,,,,,,,0.6161,,,,,,,,,,,,,,,,,,,,,,60fe310d963e64b57e9d10a8,610377c86d97b3a2a315b060,2021-07-29_23h56.17.266,Simcolourproject_2stim_asymm_v5,2020.2.10,MacIntel,60,61025ae37ef11b136ea224fe,,,,,,,,,4312,92.98046875,-36.36328125,1,0,0,response3disk,,5,17.40625,9.41015625,1,0,0,rectangle,17.40625,9.41015625,1,0,0,17.40625,9.41015625,1,0,0,0,148,148,17,1,,,,,,,,
,,,,,,,,,,,,,FF,,,,,,,,0.4326,,,,,,,,,,,,,,,,,,,,,,60fe310d963e64b57e9d10a8,610377c86d97b3a2a315b060,2021-07-29_23h56.17.266,Simcolourproject_2stim_asymm_v5,2020.2.10,MacIntel,60,61025ae37ef11b136ea224fe,,,,,,,,,3707,-15.23046875,71.35546875,1,0,0,response7disk,,0,0.0546875,10.796875,1,0,0,rectangle,0.0546875,10.796875,1,0,0,0.0546875,10.796875,1,0,0,0,149,149,108,1,,,,,,,,
,,,,,,,,,,,,,FF,,,,,,,,0.4673,,,,,,,,,,,,,,,,,,,,,,60fe310d963e64b57e9d10a8,610377c86d97b3a2a315b060,2021-07-29_23h56.17.266,Simcolourproject_2stim_asymm_v5,2020.2.10,MacIntel,60,61025ae37ef11b136ea224fe,,,,,,,,,3231,32.49609375,-46.25390625,1,0,0,response3disk,,4,12.52734375,-5.25390625,1,0,0,rectangle,12.52734375,-5.25390625,1,0,0,12.52734375,-5.25390625,1,0,0,0,150,150,92,1,,,,,,,,
,,,,,,,,,,,,,FF,,,,,,,,0.6016,,,,,,,,,,,,,,,,,,,,,,60fe310d963e64b57e9d10a8,610377c86d97b3a2a315b060,2021-07-29_23h56.17.266,Simcolourproject_2stim_asymm_v5,2020.2.10,MacIntel,60,61025ae37ef11b136ea224fe,,,,,,,,,3088,20.046875,-49.9296875,1,0,0,response3disk,,4,6.5,-7.37109375,1,0,0,rectangle,56.453125,95.26953125,1,0,0,25.0703125,6.53515625,1,0,0,0,151,151,127,1,,response1disk_3,TRUE,7,7,"[286,152,261,104,85,157,100,161,319,81,290,302,190,182,122,117,196,32,322,207]",1.7335,rectangle
,,,,,,,,,,,,,FF,,,,,,,,0.8507,,,,,,,,,,,,,,,,,,,,,,60fe310d963e64b57e9d10a8,610377c86d97b3a2a315b060,2021-07-29_23h56.17.266,Simcolourproject_2stim_asymm_v5,2020.2.10,MacIntel,60,61025ae37ef11b136ea224fe,,,,,,,,,1048,-45.875,-55.48828125,1,0,0,response5disk,,3,-27.15625,8.26171875,1,0,0,rectangle,-27.15625,8.26171875,1,0,0,-27.15625,8.26171875,1,0,0,0,152,152,112,1,,,,,,,,
,,,,,,,,,,,,,FF,,,,,,,,0.4495,,,,,,,,,,,,,,,,,,,,,,60fe310d963e64b57e9d10a8,610377c86d97b3a2a315b060,2021-07-29_23h56.17.266,Simcolourproject_2stim_asymm_v5,2020.2.10,MacIntel,60,61025ae37ef11b136ea224fe,,,,,,,,,1776,43.734375,19.78125,1,0,0,response1disk,,6,4.2265625,1.015625,1,0,0,rectangle,4.2265625,1.015625,1,0,0,4.2265625,1.015625,1,0,0,0,153,153,6,1,,,,,,,,
,,,,,,,,,,,,,FF,,,,,,,,1.2828,,,,,,,,,,,,,,,,,,,,,,60fe310d963e64b57e9d10a8,610377c86d97b3a2a315b060,2021-07-29_23h56.17.266,Simcolourproject_2stim_asymm_v5,2020.2.10,MacIntel,60,61025ae37ef11b136ea224fe,,,,,,,,,1064,-46.08984375,63.515625,1,0,0,response7disk,,0,-17.80859375,14.41015625,1,0,0,rectangle,-17.80859375,14.41015625,1,0,0,-17.80859375,14.41015625,1,0,0,0,154,154,156,1,,,,,,,,
,,,,,,,,,,,,,FF,,,,,,,,0.6323,,,,,,,,,,,,,,,,,,,,,,60fe310d963e64b57e9d10a8,610377c86d97b3a2a315b060,2021-07-29_23h56.17.266,Simcolourproject_2stim_asymm_v5,2020.2.10,MacIntel,60,61025ae37ef11b136ea224fe,,,,,,,,,3627,75.70703125,-47.87109375,1,0,0,response3disk,,5,7.203125,-9.9375,1,0,0,rectangle,7.203125,-9.9375,1,0,0,7.203125,-9.9375,1,0,0,0,155,155,134,1,,,,,,,,
,,,,,,,,,,,,,FF,,,,,,,,0.4656,,,,,,,,,,,,,,,,,,,,,,60fe310d963e64b57e9d10a8,610377c86d97b3a2a315b060,2021-07-29_23h56.17.266,Simcolourproject_2stim_asymm_v5,2020.2.10,MacIntel,60,61025ae37ef11b136ea224fe,,,,,,,,,3510,-26.9765625,51.94140625,1,0,0,response7disk,,0,-12.9296875,0.7578125,1,0,0,rectangle,34.65234375,-91.89453125,1,0,0,10.0703125,-12.56640625,1,0,0,0,156,156,147,1,,response3disk_3,TRUE,4,4,"[286,152,261,104,85,157,100,161,319,81,290,302,190,182,122,117,196,32,322,207]",1.3333,rectangle
,,,,,,,,,,,,,FF,,,,,,,,0.6829,,,,,,,,,,,,,,,,,,,,,,60fe310d963e64b57e9d10a8,610377c86d97b3a2a315b060,2021-07-29_23h56.17.266,Simcolourproject_2stim_asymm_v5,2020.2.10,MacIntel,60,61025ae37ef11b136ea224fe,,,,,,,,,4332,-59.375,-47.37890625,1,0,0,response5disk,,2,8.125,-6.80859375,1,0,0,rectangle,8.125,-6.80859375,1,0,0,8.125,-6.80859375,1,0,0,0,157,157,78,1,,,,,,,,
,,,,,,,,,,,,,FF,,,,,,,,1.9649,,,,,,,,,,,,,,,,,,,,,,60fe310d963e64b57e9d10a8,610377c86d97b3a2a315b060,2021-07-29_23h56.17.266,Simcolourproject_2stim_asymm_v5,2020.2.10,MacIntel,60,61025ae37ef11b136ea224fe,,,,,,,,,765,68.0390625,-51.61328125,1,0,0,response3disk,,5,-10.69140625,-4.53515625,1,0,0,rectangle,-10.69140625,-4.53515625,1,0,0,-10.69140625,-4.53515625,1,0,0,0,158,158,124,1,,,,,,,,
,,,,,,,,,,,,,FF,,,,,,,,0.5511,,,,,,,,,,,,,,,,,,,,,,60fe310d963e64b57e9d10a8,610377c86d97b3a2a315b060,2021-07-29_23h56.17.266,Simcolourproject_2stim_asymm_v5,2020.2.10,MacIntel,60,61025ae37ef11b136ea224fe,,,,,,,,,2983,46.85546875,36.23046875,1,0,0,response1disk,,6,-5.48828125,8.41796875,1,0,0,rectangle,-5.48828125,8.41796875,1,0,0,-5.48828125,8.41796875,1,0,0,0,159,159,104,1,,,,,,,,
,,,,,,,,,,,,,FF,,,,,,,,0.8497,,,,,,,,,,,,,,,,,,,,,,60fe310d963e64b57e9d10a8,610377c86d97b3a2a315b060,2021-07-29_23h56.17.266,Simcolourproject_2stim_asymm_v5,2020.2.10,MacIntel,60,61025ae37ef11b136ea224fe,,,,,,,,,1379,-53.86328125,-60.2109375,1,0,0,response5disk,,3,-9.921875,-2.02734375,1,0,0,rectangle,-64.45703125,-36.83203125,1,0,0,-4.06640625,-2.546875,1,0,0,1,0,160,17,1,,response5disk_3,TRUE,2,2,"[286,152,261,104,85,157,100,161,319,81,290,302,190,182,122,117,196,32,322,207]",1.55,rectangle
,,,,,,,,,,,,,FF,,,,,,,,0.6347,,,,,,,,,,,,,,,,,,,,,,60fe310d963e64b57e9d10a8,610377c86d97b3a2a315b060,2021-07-29_23h56.17.266,Simcolourproject_2stim_asymm_v5,2020.2.10,MacIntel,60,61025ae37ef11b136ea224fe,,,,,,,,,3123,34.625,-52.12890625,1,0,0,response3disk,,4,-18.7109375,8.02734375,1,0,0,rectangle,-18.7109375,8.02734375,1,0,0,-18.7109375,8.02734375,1,0,0,1,1,161,128,1,,,,,,,,
,,,,,,,,,,,,,FF,,,,,,,,0.3838,,,,,,,,,,,,,,,,,,,,,,60fe310d963e64b57e9d10a8,610377c86d97b3a2a315b060,2021-07-29_23h56.17.266,Simcolourproject_2stim_asymm_v5,2020.2.10,MacIntel,60,61025ae37ef11b136ea224fe,,,,,,,,,420,44.00390625,33.671875,1,0,0,response1disk,,6,-10.6171875,0.5703125,1,0,0,rectangle,-10.6171875,0.5703125,1,0,0,-10.6171875,0.5703125,1,0,0,1,2,162,46,1,,,,,,,,
,,,,,,,,,,,,,FF,,,,,,,,0.4501,,,,,,,,,,,,,,,,,,,,,,60fe310d963e64b57e9d10a8,610377c86d97b3a2a315b060,2021-07-29_23h56.17.266,Simcolourproject_2stim_asymm_v5,2020.2.10,MacIntel,60,61025ae37ef11b136ea224fe,,,,,,,,,2336,74.609375,37.6328125,1,0,0,response1disk,,6,-3.21875,17.18359375,1,0,0,rectangle,-3.21875,17.18359375,1,0,0,-3.21875,17.18359375,1,0,0,1,3,163,123,1,,,,,,,,
,,,,,,,,,,,,,FF,,,,,,,,0.7994,,,,,,,,,,,,,,,,,,,,,,60fe310d963e64b57e9d10a8,610377c86d97b3a2a315b060,2021-07-29_23h56.17.266,Simcolourproject_2stim_asymm_v5,2020.2.10,MacIntel,60,61025ae37ef11b136ea224fe,,,,,,,,,700,-38.92578125,-44.01171875,1,0,0,response5disk,,3,-20.7265625,-8.578125,1,0,0,rectangle,-20.7265625,-8.578125,1,0,0,-20.7265625,-8.578125,1,0,0,1,4,164,30,1,,,,,,,,
,,,,,,,,,,,,,FF,,,,,,,,0.4826,,,,,,,,,,,,,,,,,,,,,,60fe310d963e64b57e9d10a8,610377c86d97b3a2a315b060,2021-07-29_23h56.17.266,Simcolourproject_2stim_asymm_v5,2020.2.10,MacIntel,60,61025ae37ef11b136ea224fe,,,,,,,,,494,38.77734375,-25.35546875,1,0,0,response3disk,,5,-14.1640625,-9.8828125,1,0,0,rectangle,-14.1640625,-9.8828125,1,0,0,-14.1640625,-9.8828125,1,0,0,1,5,165,137,1,,,,,,,,
,,,,,,,,,,,,,FF,,,,,,,,0.5842,,,,,,,,,,,,,,,,,,,,,,60fe310d963e64b57e9d10a8,610377c86d97b3a2a315b060,2021-07-29_23h56.17.266,Simcolourproject_2stim_asymm_v5,2020.2.10,MacIntel,60,61025ae37ef11b136ea224fe,,,,,,,,,2923,52.44140625,-28.796875,1,0,0,response3disk,,5,5.3828125,-7.0390625,1,0,0,rectangle,5.3828125,-7.0390625,1,0,0,5.3828125,-7.0390625,1,0,0,1,6,166,156,1,,,,,,,,
,,,,,,,,,,,,,FF,,,,,,,,0.3677,,,,,,,,,,,,,,,,,,,,,,60fe310d963e64b57e9d10a8,610377c86d97b3a2a315b060,2021-07-29_23h56.17.266,Simcolourproject_2stim_asymm_v5,2020.2.10,MacIntel,60,61025ae37ef11b136ea224fe,,,,,,,,,583,62.7890625,-45.265625,1,0,0,response3disk,,5,17.30859375,-6.73828125,1,0,0,rectangle,17.30859375,-6.73828125,1,0,0,17.30859375,-6.73828125,1,0,0,1,7,167,146,1,,,,,,,,
,,,,,,,,,,,,,FF,,,,,,,,0.4832,,,,,,,,,,,,,,,,,,,,,,60fe310d963e64b57e9d10a8,610377c86d97b3a2a315b060,2021-07-29_23h56.17.266,Simcolourproject_2stim_asymm_v5,2020.2.10,MacIntel,60,61025ae37ef11b136ea224fe,,,,,,,,,2258,74.79296875,-36.984375,1,0,0,response3disk,,5,23.33984375,9.90625,1,0,0,rectangle,23.33984375,9.90625,1,0,0,23.33984375,9.90625,1,0,0,1,8,168,148,1,,,,,,,,
,,,,,,,,,,,,,FF,,,,,,,,0.5154,,,,,,,,,,,,,,,,,,,,,,60fe310d963e64b57e9d10a8,610377c86d97b3a2a315b060,2021-07-29_23h56.17.266,Simcolourproject_2stim_asymm_v5,2020.2.10,MacIntel,60,61025ae37ef11b136ea224fe,,,,,,,,,2290,22.2578125,35.11328125,1,0,0,response1disk,,7,2.78515625,6.87890625,1,0,0,rectangle,2.78515625,6.87890625,1,0,0,2.78515625,6.87890625,1,0,0,1,9,169,66,1,,,,,,,,
,,,,,,,,,,,,,FF,,,,,,,,0.9819,,,,,,,,,,,,,,,,,,,,,,60fe310d963e64b57e9d10a8,610377c86d97b3a2a315b060,2021-07-29_23h56.17.266,Simcolourproject_2stim_asymm_v5,2020.2.10,MacIntel,60,61025ae37ef11b136ea224fe,,,,,,,,,3545,-64.671875,-47.58984375,1,0,0,response5disk,,2,-25.66796875,-13.51171875,1,0,0,rectangle,-25.66796875,-13.51171875,1,0,0,-25.66796875,-13.51171875,1,0,0,1,10,170,136,1,,,,,,,,
,,,,,,,,,,,,,FF,,,,,,,,0.6484,,,,,,,,,,,,,,,,,,,,,,60fe310d963e64b57e9d10a8,610377c86d97b3a2a315b060,2021-07-29_23h56.17.266,Simcolourproject_2stim_asymm_v5,2020.2.10,MacIntel,60,61025ae37ef11b136ea224fe,,,,,,,,,2578,44.5625,26.6484375,1,0,0,response1disk,,6,-3.015625,9.08984375,1,0,0,rectangle,-3.015625,9.08984375,1,0,0,-3.015625,9.08984375,1,0,0,1,11,171,55,1,,,,,,,,
,,,,,,,,,,,,,FF,,,,,,,,1.1174,,,,,,,,,,,,,,,,,,,,,,60fe310d963e64b57e9d10a8,610377c86d97b3a2a315b060,2021-07-29_23h56.17.266,Simcolourproject_2stim_asymm_v5,2020.2.10,MacIntel,60,61025ae37ef11b136ea224fe,,,,,,,,,2306,73.12890625,-57.47265625,1,0,0,response3disk,,5,12.703125,-0.62109375,1,0,0,rectangle,12.703125,-0.62109375,1,0,0,12.703125,-0.62109375,1,0,0,1,12,172,138,1,,,,,,,,
,,,,,,,,,,,,,FF,,,,,,,,0.7336,,,,,,,,,,,,,,,,,,,,,,60fe310d963e64b57e9d10a8,610377c86d97b3a2a315b060,2021-07-29_23h56.17.266,Simcolourproject_2stim_asymm_v5,2020.2.10,MacIntel,60,61025ae37ef11b136ea224fe,,,,,,,,,3890,86.3515625,-37.91796875,1,0,0,response3disk,,5,6.08984375,1.359375,1,0,0,rectangle,6.08984375,1.359375,1,0,0,6.08984375,1.359375,1,0,0,1,13,173,127,1,,,,,,,,
,,,,,,,,,,,,,FF,,,,,,,,0.9335,,,,,,,,,,,,,,,,,,,,,,60fe310d963e64b57e9d10a8,610377c86d97b3a2a315b060,2021-07-29_23h56.17.266,Simcolourproject_2stim_asymm_v5,2020.2.10,MacIntel,60,61025ae37ef11b136ea224fe,,,,,,,,,2699,43.9921875,76.58203125,1,0,0,response1disk,,7,11.19140625,16.484375,1,0,0,rectangle,11.19140625,16.484375,1,0,0,11.19140625,16.484375,1,0,0,1,14,174,147,1,,,,,,,,
,,,,,,,,,,,,,FF,,,,,,,,1.0832,,,,,,,,,,,,,,,,,,,,,,60fe310d963e64b57e9d10a8,610377c86d97b3a2a315b060,2021-07-29_23h56.17.266,Simcolourproject_2stim_asymm_v5,2020.2.10,MacIntel,60,61025ae37ef11b136ea224fe,,,,,,,,,1533,-22.37109375,-67.78125,1,0,0,response5disk,,3,-14.97265625,7.30859375,1,0,0,rectangle,-14.97265625,7.30859375,1,0,0,-14.97265625,7.30859375,1,0,0,1,15,175,69,1,,,,,,,,
,,,,,,,,,,,,,FF,,,,,,,,0.5003,,,,,,,,,,,,,,,,,,,,,,60fe310d963e64b57e9d10a8,610377c86d97b3a2a315b060,2021-07-29_23h56.17.266,Simcolourproject_2stim_asymm_v5,2020.2.10,MacIntel,60,61025ae37ef11b136ea224fe,,,,,,,,,2930,84.51953125,40.390625,1,0,0,response1disk,,6,-0.7109375,-4.671875,1,0,0,rectangle,-0.7109375,-4.671875,1,0,0,-0.7109375,-4.671875,1,0,0,1,16,176,117,1,,,,,,,,
,,,,,,,,,,,,,FF,,,,,,,,0.7332,,,,,,,,,,,,,,,,,,,,,,60fe310d963e64b57e9d10a8,610377c86d97b3a2a315b060,2021-07-29_23h56.17.266,Simcolourproject_2stim_asymm_v5,2020.2.10,MacIntel,60,61025ae37ef11b136ea224fe,,,,,,,,,4317,82.734375,-41.9375,1,0,0,response3disk,,5,6.76953125,-14.7890625,1,0,0,rectangle,6.76953125,-14.7890625,1,0,0,6.76953125,-14.7890625,1,0,0,1,17,177,0,1,,,,,,,,
,,,,,,,,,,,,,FF,,,,,,,,0.6997,,,,,,,,,,,,,,,,,,,,,,60fe310d963e64b57e9d10a8,610377c86d97b3a2a315b060,2021-07-29_23h56.17.266,Simcolourproject_2stim_asymm_v5,2020.2.10,MacIntel,60,61025ae37ef11b136ea224fe,,,,,,,,,4223,-52.57421875,37.7265625,1,0,0,response7disk,,1,-7.75,-0.28125,1,0,0,rectangle,-7.75,-0.28125,1,0,0,-7.75,-0.28125,1,0,0,1,18,178,86,1,,,,,,,,
,,,,,,,,,,,,,FF,,,,,,,,0.7338,,,,,,,,,,,,,,,,,,,,,,60fe310d963e64b57e9d10a8,610377c86d97b3a2a315b060,2021-07-29_23h56.17.266,Simcolourproject_2stim_asymm_v5,2020.2.10,MacIntel,60,61025ae37ef11b136ea224fe,,,,,,,,,3338,-95.22265625,-49.9453125,1,0,0,response5disk,,2,1.8203125,-8.44140625,1,0,0,rectangle,1.8203125,-8.44140625,1,0,0,1.8203125,-8.44140625,1,0,0,1,19,179,90,1,,,,,,,,
,,,,,,,,,,,,,FF,,,,,,,,0.5509,,,,,,,,,,,,,,,,,,,,,,60fe310d963e64b57e9d10a8,610377c86d97b3a2a315b060,2021-07-29_23h56.17.266,Simcolourproject_2stim_asymm_v5,2020.2.10,MacIntel,60,61025ae37ef11b136ea224fe,,,,,,,,,2140,41.44140625,25.71875,1,0,0,response1disk,,6,-0.453125,2.00390625,1,0,0,rectangle,-0.453125,2.00390625,1,0,0,-0.453125,2.00390625,1,0,0,1,20,180,7,1,,,,,,,,
,,,,,,,,,,,,,FF,,,,,,,,0.567,,,,,,,,,,,,,,,,,,,,,,60fe310d963e64b57e9d10a8,610377c86d97b3a2a315b060,2021-07-29_23h56.17.266,Simcolourproject_2stim_asymm_v5,2020.2.10,MacIntel,60,61025ae37ef11b136ea224fe,,,,,,,,,4051,-24.7578125,-45.04296875,1,0,0,response5disk,,3,-18.234375,-0.8125,1,0,0,rectangle,-52,-115.4140625,1,0,0,-15.46484375,10.00390625,1,0,0,1,21,181,12,1,,response5disk_3,TRUE,3,3,"[286,152,261,104,85,157,100,161,319,81,290,302,190,182,122,117,196,32,322,207]",2.0161,rectangle
,,,,,,,,,,,,,FF,,,,,,,,0.8498,,,,,,,,,,,,,,,,,,,,,,60fe310d963e64b57e9d10a8,610377c86d97b3a2a315b060,2021-07-29_23h56.17.266,Simcolourproject_2stim_asymm_v5,2020.2.10,MacIntel,60,61025ae37ef11b136ea224fe,,,,,,,,,1218,-67.82421875,30.41015625,1,0,0,response7disk,,1,-19.7890625,-10.55859375,1,0,0,rectangle,-19.7890625,-10.55859375,1,0,0,-19.7890625,-10.55859375,1,0,0,1,22,182,53,1,,,,,,,,
,,,,,,,,,,,,,FF,,,,,,,,0.5504,,,,,,,,,,,,,,,,,,,,,,60fe310d963e64b57e9d10a8,610377c86d97b3a2a315b060,2021-07-29_23h56.17.266,Simcolourproject_2stim_asymm_v5,2020.2.10,MacIntel,60,61025ae37ef11b136ea224fe,,,,,,,,,2029,-50.28125,29.9453125,1,0,0,response7disk,,1,-0.1875,-1.36328125,1,0,0,rectangle,-0.1875,-1.36328125,1,0,0,-0.1875,-1.36328125,1,0,0,1,23,183,83,1,,,,,,,,
,,,,,,,,,,,,,FF,,,,,,,,1.1674,,,,,,,,,,,,,,,,,,,,,,60fe310d963e64b57e9d10a8,610377c86d97b3a2a315b060,2021-07-29_23h56.17.266,Simcolourproject_2stim_asymm_v5,2020.2.10,MacIntel,60,61025ae37ef11b136ea224fe,,,,,,,,,524,-20.65234375,-63.4609375,1,0,0,response5disk,,3,-3.96875,12.0546875,1,0,0,rectangle,-3.96875,12.0546875,1,0,0,-3.96875,12.0546875,1,0,0,1,24,184,76,1,,,,,,,,
,,,,,,,,,,,,,FF,,,,,,,,0.5508,,,,,,,,,,,,,,,,,,,,,,60fe310d963e64b57e9d10a8,610377c86d97b3a2a315b060,2021-07-29_23h56.17.266,Simcolourproject_2stim_asymm_v5,2020.2.10,MacIntel,60,61025ae37ef11b136ea224fe,,,,,,,,,1718,81.109375,-45.40234375,1,0,0,response3disk,,5,0.38671875,-10.375,1,0,0,rectangle,0.38671875,-10.375,1,0,0,0.38671875,-10.375,1,0,0,1,25,185,115,1,,,,,,,,
,,,,,,,,,,,,,FF,,,,,,,,0.3669,,,,,,,,,,,,,,,,,,,,,,60fe310d963e64b57e9d10a8,610377c86d97b3a2a315b060,2021-07-29_23h56.17.266,Simcolourproject_2stim_asymm_v5,2020.2.10,MacIntel,60,61025ae37ef11b136ea224fe,,,,,,,,,927,68.21484375,22.16015625,1,0,0,response1disk,,6,-4.2109375,11.3828125,1,0,0,rectangle,-4.2109375,11.3828125,1,0,0,-4.2109375,11.3828125,1,0,0,1,26,186,1,1,,,,,,,,
,,,,,,,,,,,,,FF,,,,,,,,0.5502,,,,,,,,,,,,,,,,,,,,,,60fe310d963e64b57e9d10a8,610377c86d97b3a2a315b060,2021-07-29_23h56.17.266,Simcolourproject_2stim_asymm_v5,2020.2.10,MacIntel,60,61025ae37ef11b136ea224fe,,,,,,,,,2816,39.31640625,68.7578125,1,0,0,response1disk,,7,24.51171875,11.1796875,1,0,0,rectangle,24.51171875,11.1796875,1,0,0,24.51171875,11.1796875,1,0,0,1,27,187,41,1,,,,,,,,
,,,,,,,,,,,,,FF,,,,,,,,0.8327,,,,,,,,,,,,,,,,,,,,,,60fe310d963e64b57e9d10a8,610377c86d97b3a2a315b060,2021-07-29_23h56.17.266,Simcolourproject_2stim_asymm_v5,2020.2.10,MacIntel,60,61025ae37ef11b136ea224fe,,,,,,,,,4098,-69.5,-33.05078125,1,0,0,response5disk,,2,-5.62109375,6.73046875,1,0,0,rectangle,-5.62109375,6.73046875,1,0,0,-5.62109375,6.73046875,1,0,0,1,28,188,77,1,,,,,,,,
,,,,,,,,,,,,,FF,,,,,,,,1.0016,,,,,,,,,,,,,,,,,,,,,,60fe310d963e64b57e9d10a8,610377c86d97b3a2a315b060,2021-07-29_23h56.17.266,Simcolourproject_2stim_asymm_v5,2020.2.10,MacIntel,60,61025ae37ef11b136ea224fe,,,,,,,,,2442,58.703125,-32.90234375,1,0,0,response3disk,,5,12.88671875,-8.34375,1,0,0,rectangle,37.9765625,53.44140625,1,0,0,20.03125,-2.38671875,1,0,0,1,29,189,25,1,,response1disk_3,TRUE,7,7,"[286,152,261,104,85,157,100,161,319,81,290,302,190,182,122,117,196,32,322,207]",1.2496,rectangle
,,,,,,,,,,,,,FF,,,,,,,,1.0169,,,,,,,,,,,,,,,,,,,,,,60fe310d963e64b57e9d10a8,610377c86d97b3a2a315b060,2021-07-29_23h56.17.266,Simcolourproject_2stim_asymm_v5,2020.2.10,MacIntel,60,61025ae37ef11b136ea224fe,,,,,,,,,2396,91.0703125,-29.66796875,1,0,0,response3disk,,5,-6.58984375,-10.546875,1,0,0,rectangle,-6.58984375,-10.546875,1,0,0,-6.58984375,-10.546875,1,0,0,1,30,190,68,1,,,,,,,,
,,,,,,,,,,,,,FF,,,,,,,,0.934,,,,,,,,,,,,,,,,,,,,,,60fe310d963e64b57e9d10a8,610377c86d97b3a2a315b060,2021-07-29_23h56.17.266,Simcolourproject_2stim_asymm_v5,2020.2.10,MacIntel,60,61025ae37ef11b136ea224fe,,,,,,,,,3423,-41.50390625,-81.69140625,1,0,0,response5disk,,3,-26.19921875,-9.26171875,1,0,0,rectangle,-26.19921875,-9.26171875,1,0,0,-26.19921875,-9.26171875,1,0,0,1,31,191,79,1,,,,,,,,
,,,,,,,,,,,,,FF,,,,,,,,0.6516,,,,,,,,,,,,,,,,,,,,,,60fe310d963e64b57e9d10a8,610377c86d97b3a2a315b060,2021-07-29_23h56.17.266,Simcolourproject_2stim_asymm_v5,2020.2.10,MacIntel,60,61025ae37ef11b136ea224fe,,,,,,,,,3314,115.5820313,-52.07421875,1,0,0,response3disk,,5,6.25,8.671875,1,0,0,rectangle,6.25,8.671875,1,0,0,6.25,8.671875,1,0,0,1,32,192,132,1,,,,,,,,
,,,,,,,,,,,,,FF,,,,,,,,0.5662,,,,,,,,,,,,,,,,,,,,,,60fe310d963e64b57e9d10a8,610377c86d97b3a2a315b060,2021-07-29_23h56.17.266,Simcolourproject_2stim_asymm_v5,2020.2.10,MacIntel,60,61025ae37ef11b136ea224fe,,,,,,,,,1306,-62.12109375,-15.4140625,1,0,0,response5disk,,2,-5.6484375,7.1875,1,0,0,rectangle,-5.6484375,7.1875,1,0,0,-5.6484375,7.1875,1,0,0,1,33,193,157,1,,,,,,,,
,,,,,,,,,,,,,FF,,,,,,,,0.5502,,,,,,,,,,,,,,,,,,,,,,60fe310d963e64b57e9d10a8,610377c86d97b3a2a315b060,2021-07-29_23h56.17.266,Simcolourproject_2stim_asymm_v5,2020.2.10,MacIntel,60,61025ae37ef11b136ea224fe,,,,,,,,,1384,-79.8828125,40.1171875,1,0,0,response7disk,,1,6.46875,8.07421875,1,0,0,rectangle,6.46875,8.07421875,1,0,0,6.46875,8.07421875,1,0,0,1,34,194,116,1,,,,,,,,
,,,,,,,,,,,,,FF,,,,,,,,0.7338,,,,,,,,,,,,,,,,,,,,,,60fe310d963e64b57e9d10a8,610377c86d97b3a2a315b060,2021-07-29_23h56.17.266,Simcolourproject_2stim_asymm_v5,2020.2.10,MacIntel,60,61025ae37ef11b136ea224fe,,,,,,,,,3543,-74.0234375,37.44921875,1,0,0,response7disk,,1,-22.6171875,-2.6015625,1,0,0,rectangle,-86.0625,29.76171875,1,0,0,-8.8828125,6.828125,1,0,0,1,35,195,109,1,,response7disk_3,TRUE,1,1,"[286,152,261,104,85,157,100,161,319,81,290,302,190,182,122,117,196,32,322,207]",1.3171,rectangle
,,,,,,,,,,,,,FF,,,,,,,,0.6162,,,,,,,,,,,,,,,,,,,,,,60fe310d963e64b57e9d10a8,610377c86d97b3a2a315b060,2021-07-29_23h56.17.266,Simcolourproject_2stim_asymm_v5,2020.2.10,MacIntel,60,61025ae37ef11b136ea224fe,,,,,,,,,4183,-35.4609375,53.96875,1,0,0,response7disk,,0,-0.05078125,-4.4921875,1,0,0,rectangle,-0.05078125,-4.4921875,1,0,0,-0.05078125,-4.4921875,1,0,0,1,36,196,72,1,,,,,,,,
,,,,,,,,,,,,,FF,,,,,,,,1.1002,,,,,,,,,,,,,,,,,,,,,,60fe310d963e64b57e9d10a8,610377c86d97b3a2a315b060,2021-07-29_23h56.17.266,Simcolourproject_2stim_asymm_v5,2020.2.10,MacIntel,60,61025ae37ef11b136ea224fe,,,,,,,,,3644,-75.90625,-36.109375,1,0,0,response5disk,,2,-11.84765625,-0.4921875,1,0,0,rectangle,-11.84765625,-0.4921875,1,0,0,-11.84765625,-0.4921875,1,0,0,1,37,197,63,1,,,,,,,,
,,,,,,,,,,,,,FF,,,,,,,,0.2995,,,,,,,,,,,,,,,,,,,,,,60fe310d963e64b57e9d10a8,610377c86d97b3a2a315b060,2021-07-29_23h56.17.266,Simcolourproject_2stim_asymm_v5,2020.2.10,MacIntel,60,61025ae37ef11b136ea224fe,,,,,,,,,2135,74.32421875,-41.45703125,1,0,0,response3disk,,5,-0.55078125,-6.71875,1,0,0,rectangle,-0.55078125,-6.71875,1,0,0,-0.55078125,-6.71875,1,0,0,1,38,198,114,1,,,,,,,,
,,,,,,,,,,,,,FF,,,,,,,,0.9491,,,,,,,,,,,,,,,,,,,,,,60fe310d963e64b57e9d10a8,610377c86d97b3a2a315b060,2021-07-29_23h56.17.266,Simcolourproject_2stim_asymm_v5,2020.2.10,MacIntel,60,61025ae37ef11b136ea224fe,,,,,,,,,1692,59.05078125,38.671875,1,0,0,response1disk,,6,17.22265625,13.34375,1,0,0,rectangle,17.22265625,13.34375,1,0,0,17.22265625,13.34375,1,0,0,1,39,199,141,1,,,,,,,,
,,,,,,,,,,,,,FF,,,,,,,,1.0998,,,,,,,,,,,,,,,,,,,,,,60fe310d963e64b57e9d10a8,610377c86d97b3a2a315b060,2021-07-29_23h56.17.266,Simcolourproject_2stim_asymm_v5,2020.2.10,MacIntel,60,61025ae37ef11b136ea224fe,,,,,,,,,2238,71.109375,-40.65234375,1,0,0,response3disk,,5,5.15625,5.5390625,1,0,0,rectangle,5.15625,5.5390625,1,0,0,5.15625,5.5390625,1,0,0,1,40,200,16,1,,,,,,,,
,,,,,,,,,,,,,FF,,,,,,,,1.3832,,,,,,,,,,,,,,,,,,,,,,60fe310d963e64b57e9d10a8,610377c86d97b3a2a315b060,2021-07-29_23h56.17.266,Simcolourproject_2stim_asymm_v5,2020.2.10,MacIntel,60,61025ae37ef11b136ea224fe,,,,,,,,,3704,21.015625,-86.01171875,1,0,0,response3disk,,4,-15.34375,4.29296875,1,0,0,rectangle,-15.34375,4.29296875,1,0,0,-15.34375,4.29296875,1,0,0,1,41,201,140,1,,,,,,,,
,,,,,,,,,,,,,FF,,,,,,,,0.6665,,,,,,,,,,,,,,,,,,,,,,60fe310d963e64b57e9d10a8,610377c86d97b3a2a315b060,2021-07-29_23h56.17.266,Simcolourproject_2stim_asymm_v5,2020.2.10,MacIntel,60,61025ae37ef11b136ea224fe,,,,,,,,,2380,36.30078125,65.61328125,1,0,0,response1disk,,7,23.04296875,-6.375,1,0,0,rectangle,23.04296875,-6.375,1,0,0,23.04296875,-6.375,1,0,0,1,42,202,143,1,,,,,,,,
,,,,,,,,,,,,,FF,,,,,,,,0.9489,,,,,,,,,,,,,,,,,,,,,,60fe310d963e64b57e9d10a8,610377c86d97b3a2a315b060,2021-07-29_23h56.17.266,Simcolourproject_2stim_asymm_v5,2020.2.10,MacIntel,60,61025ae37ef11b136ea224fe,,,,,,,,,4034,41.4296875,-56.640625,1,0,0,response3disk,,4,14.4296875,-5.25,1,0,0,rectangle,14.4296875,-5.25,1,0,0,14.4296875,-5.25,1,0,0,1,43,203,29,1,,,,,,,,
,,,,,,,,,,,,,FF,,,,,,,,0.7845,,,,,,,,,,,,,,,,,,,,,,60fe310d963e64b57e9d10a8,610377c86d97b3a2a315b060,2021-07-29_23h56.17.266,Simcolourproject_2stim_asymm_v5,2020.2.10,MacIntel,60,61025ae37ef11b136ea224fe,,,,,,,,,3937,-51.2890625,48.6640625,1,0,0,response7disk,,1,12.859375,1.51953125,1,0,0,rectangle,12.859375,1.51953125,1,0,0,12.859375,1.51953125,1,0,0,1,44,204,129,1,,,,,,,,
,,,,,,,,,,,,,FF,,,,,,,,0.5338,,,,,,,,,,,,,,,,,,,,,,60fe310d963e64b57e9d10a8,610377c86d97b3a2a315b060,2021-07-29_23h56.17.266,Simcolourproject_2stim_asymm_v5,2020.2.10,MacIntel,60,61025ae37ef11b136ea224fe,,,,,,,,,739,43.66796875,27.19140625,1,0,0,response1disk,,6,18.1015625,3.60546875,1,0,0,rectangle,18.1015625,3.60546875,1,0,0,18.1015625,3.60546875,1,0,0,1,45,205,58,1,,,,,,,,
,,,,,,,,,,,,,FF,,,,,,,,0.483,,,,,,,,,,,,,,,,,,,,,,60fe310d963e64b57e9d10a8,610377c86d97b3a2a315b060,2021-07-29_23h56.17.266,Simcolourproject_2stim_asymm_v5,2020.2.10,MacIntel,60,61025ae37ef11b136ea224fe,,,,,,,,,3443,40.6328125,26.7421875,1,0,0,response1disk,,6,13.921875,11.62109375,1,0,0,rectangle,96.2109375,31.890625,1,0,0,13.8984375,10.4453125,1,0,0,1,46,206,149,1,,response1disk_3,TRUE,6,6,"[286,152,261,104,85,157,100,161,319,81,290,302,190,182,122,117,196,32,322,207]",1.3823,rectangle
,,,,,,,,,,,,,FF,,,,,,,,7.6345,,,,,,,,,,,,,,,,,,,,,,60fe310d963e64b57e9d10a8,610377c86d97b3a2a315b060,2021-07-29_23h56.17.266,Simcolourproject_2stim_asymm_v5,2020.2.10,MacIntel,60,61025ae37ef11b136ea224fe,,,,,,,,,3462,56.21875,-19.20703125,1,0,0,response3disk,,5,2.7734375,-13.84765625,1,0,0,rectangle,2.7734375,-13.84765625,1,0,0,2.7734375,-13.84765625,1,0,0,1,47,207,34,1,,,,,,,,
,,,,,,,,,,,,,FF,,,,,,,,0.6503,,,,,,,,,,,,,,,,,,,,,,60fe310d963e64b57e9d10a8,610377c86d97b3a2a315b060,2021-07-29_23h56.17.266,Simcolourproject_2stim_asymm_v5,2020.2.10,MacIntel,60,61025ae37ef11b136ea224fe,,,,,,,,,3925,35.78125,-54.9375,1,0,0,response3disk,,4,10.81640625,-7.96484375,1,0,0,rectangle,10.81640625,-7.96484375,1,0,0,10.81640625,-7.96484375,1,0,0,1,48,208,15,1,,,,,,,,
,,,,,,,,,,,,,FF,,,,,,,,0.7324,,,,,,,,,,,,,,,,,,,,,,60fe310d963e64b57e9d10a8,610377c86d97b3a2a315b060,2021-07-29_23h56.17.266,Simcolourproject_2stim_asymm_v5,2020.2.10,MacIntel,60,61025ae37ef11b136ea224fe,,,,,,,,,4295,-114.9492188,-44.95703125,1,0,0,response5disk,,2,-11.953125,-9.30859375,1,0,0,rectangle,-11.953125,-9.30859375,1,0,0,-11.953125,-9.30859375,1,0,0,1,49,209,88,1,,,,,,,,
,,,,,,,,,,,,,FF,,,,,,,,1.2159,,,,,,,,,,,,,,,,,,,,,,60fe310d963e64b57e9d10a8,610377c86d97b3a2a315b060,2021-07-29_23h56.17.266,Simcolourproject_2stim_asymm_v5,2020.2.10,MacIntel,60,61025ae37ef11b136ea224fe,,,,,,,,,3047,-82.24609375,-28.53125,1,0,0,response5disk,,2,-13.4921875,-12.015625,1,0,0,rectangle,-13.4921875,-12.015625,1,0,0,-13.4921875,-12.015625,1,0,0,1,50,210,96,1,,,,,,,,
,,,,,,,,,,,,,FF,,,,,,,,0.9166,,,,,,,,,,,,,,,,,,,,,,60fe310d963e64b57e9d10a8,610377c86d97b3a2a315b060,2021-07-29_23h56.17.266,Simcolourproject_2stim_asymm_v5,2020.2.10,MacIntel,60,61025ae37ef11b136ea224fe,,,,,,,,,2591,49.42578125,-29.125,1,0,0,response3disk,,5,23.0234375,-0.48046875,1,0,0,rectangle,23.0234375,-0.48046875,1,0,0,23.0234375,-0.48046875,1,0,0,1,51,211,133,1,,,,,,,,
,,,,,,,,,,,,,FF,,,,,,,,0.6497,,,,,,,,,,,,,,,,,,,,,,60fe310d963e64b57e9d10a8,610377c86d97b3a2a315b060,2021-07-29_23h56.17.266,Simcolourproject_2stim_asymm_v5,2020.2.10,MacIntel,60,61025ae37ef11b136ea224fe,,,,,,,,,515,-25.79296875,-66.9609375,1,0,0,response5disk,,3,-22.41796875,3.67578125,1,0,0,rectangle,-22.41796875,3.67578125,1,0,0,-22.41796875,3.67578125,1,0,0,1,52,212,98,1,,,,,,,,
,,,,,,,,,,,,,FF,,,,,,,,0.7502,,,,,,,,,,,,,,,,,,,,,,60fe310d963e64b57e9d10a8,610377c86d97b3a2a315b060,2021-07-29_23h56.17.266,Simcolourproject_2stim_asymm_v5,2020.2.10,MacIntel,60,61025ae37ef11b136ea224fe,,,,,,,,,3602,73.109375,38.96484375,1,0,0,response1disk,,6,-7.48046875,-6.8125,1,0,0,rectangle,-7.48046875,-6.8125,1,0,0,-7.48046875,-6.8125,1,0,0,1,53,213,2,1,,,,,,,,
,,,,,,,,,,,,,FF,,,,,,,,0.684,,,,,,,,,,,,,,,,,,,,,,60fe310d963e64b57e9d10a8,610377c86d97b3a2a315b060,2021-07-29_23h56.17.266,Simcolourproject_2stim_asymm_v5,2020.2.10,MacIntel,60,61025ae37ef11b136ea224fe,,,,,,,,,74,27.546875,-49.28515625,1,0,0,response3disk,,4,22.31640625,-8.19140625,1,0,0,rectangle,22.31640625,-8.19140625,1,0,0,22.31640625,-8.19140625,1,0,0,1,54,214,119,1,,,,,,,,
,,,,,,,,,,,,,FF,,,,,,,,1.1013,,,,,,,,,,,,,,,,,,,,,,60fe310d963e64b57e9d10a8,610377c86d97b3a2a315b060,2021-07-29_23h56.17.266,Simcolourproject_2stim_asymm_v5,2020.2.10,MacIntel,60,61025ae37ef11b136ea224fe,,,,,,,,,701,-98.6015625,44.10546875,1,0,0,response7disk,,1,-12.0234375,14.8125,1,0,0,rectangle,-12.0234375,14.8125,1,0,0,-12.0234375,14.8125,1,0,0,1,55,215,93,1,,,,,,,,
,,,,,,,,,,,,,FF,,,,,,,,1.0662,,,,,,,,,,,,,,,,,,,,,,60fe310d963e64b57e9d10a8,610377c86d97b3a2a315b060,2021-07-29_23h56.17.266,Simcolourproject_2stim_asymm_v5,2020.2.10,MacIntel,60,61025ae37ef11b136ea224fe,,,,,,,,,4151,-27.1328125,-33.76171875,1,0,0,response5disk,,3,-8.078125,11.87109375,1,0,0,rectangle,-8.078125,11.87109375,1,0,0,-8.078125,11.87109375,1,0,0,1,56,216,4,1,,,,,,,,
,,,,,,,,,,,,,FF,,,,,,,,0.6831,,,,,,,,,,,,,,,,,,,,,,60fe310d963e64b57e9d10a8,610377c86d97b3a2a315b060,2021-07-29_23h56.17.266,Simcolourproject_2stim_asymm_v5,2020.2.10,MacIntel,60,61025ae37ef11b136ea224fe,,,,,,,,,1837,26.77734375,-37.44921875,1,0,0,response3disk,,4,5.1953125,3.640625,1,0,0,rectangle,5.1953125,3.640625,1,0,0,5.1953125,3.640625,1,0,0,1,57,217,65,1,,,,,,,,
,,,,,,,,,,,,,FF,,,,,,,,1.0166,,,,,,,,,,,,,,,,,,,,,,60fe310d963e64b57e9d10a8,610377c86d97b3a2a315b060,2021-07-29_23h56.17.266,Simcolourproject_2stim_asymm_v5,2020.2.10,MacIntel,60,61025ae37ef11b136ea224fe,,,,,,,,,2877,-62.68359375,-54.28125,1,0,0,response5disk,,2,-11.21875,-3.43359375,1,0,0,rectangle,-11.21875,-3.43359375,1,0,0,-11.21875,-3.43359375,1,0,0,1,58,218,50,1,,,,,,,,
,,,,,,,,,,,,,FF,,,,,,,,0.5347,,,,,,,,,,,,,,,,,,,,,,60fe310d963e64b57e9d10a8,610377c86d97b3a2a315b060,2021-07-29_23h56.17.266,Simcolourproject_2stim_asymm_v5,2020.2.10,MacIntel,60,61025ae37ef11b136ea224fe,,,,,,,,,1726,33.14453125,-18.37890625,1,0,0,response3disk,,5,18.82421875,-13.39453125,1,0,0,rectangle,18.82421875,-13.39453125,1,0,0,18.82421875,-13.39453125,1,0,0,1,59,219,24,1,,,,,,,,
,,,,,,,,,,,,,FF,,,,,,,,0.6,,,,,,,,,,,,,,,,,,,,,,60fe310d963e64b57e9d10a8,610377c86d97b3a2a315b060,2021-07-29_23h56.17.266,Simcolourproject_2stim_asymm_v5,2020.2.10,MacIntel,60,61025ae37ef11b136ea224fe,,,,,,,,,3857,64.66796875,-31.015625,1,0,0,response3disk,,5,15.1484375,-12.03125,1,0,0,rectangle,15.1484375,-12.03125,1,0,0,15.1484375,-12.03125,1,0,0,1,60,220,80,1,,,,,,,,
,,,,,,,,,,,,,FF,,,,,,,,0.816,,,,,,,,,,,,,,,,,,,,,,60fe310d963e64b57e9d10a8,610377c86d97b3a2a315b060,2021-07-29_23h56.17.266,Simcolourproject_2stim_asymm_v5,2020.2.10,MacIntel,60,61025ae37ef11b136ea224fe,,,,,,,,,1053,-55.8125,-43.98046875,1,0,0,response5disk,,2,0.45703125,-12.578125,1,0,0,rectangle,0.45703125,-12.578125,1,0,0,0.45703125,-12.578125,1,0,0,1,61,221,154,1,,,,,,,,
,,,,,,,,,,,,,FF,,,,,,,,0.6329,,,,,,,,,,,,,,,,,,,,,,60fe310d963e64b57e9d10a8,610377c86d97b3a2a315b060,2021-07-29_23h56.17.266,Simcolourproject_2stim_asymm_v5,2020.2.10,MacIntel,60,61025ae37ef11b136ea224fe,,,,,,,,,3108,-74.546875,36.33984375,1,0,0,response7disk,,1,-13.76171875,3.421875,1,0,0,rectangle,-13.76171875,3.421875,1,0,0,-13.76171875,3.421875,1,0,0,1,62,222,26,1,,,,,,,,
,,,,,,,,,,,,,FF,,,,,,,,0.9667,,,,,,,,,,,,,,,,,,,,,,60fe310d963e64b57e9d10a8,610377c86d97b3a2a315b060,2021-07-29_23h56.17.266,Simcolourproject_2stim_asymm_v5,2020.2.10,MacIntel,60,61025ae37ef11b136ea224fe,,,,,,,,,1038,-61.2578125,44.93359375,1,0,0,response7disk,,1,-12.83984375,-8.67578125,1,0,0,rectangle,-12.83984375,-8.67578125,1,0,0,-12.83984375,-8.67578125,1,0,0,1,63,223,14,1,,,,,,,,
,,,,,,,,,,,,,FF,,,,,,,,0.5824,,,,,,,,,,,,,,,,,,,,,,60fe310d963e64b57e9d10a8,610377c86d97b3a2a315b060,2021-07-29_23h56.17.266,Simcolourproject_2stim_asymm_v5,2020.2.10,MacIntel,60,61025ae37ef11b136ea224fe,,,,,,,,,2575,30.51171875,18.0703125,1,0,0,response1disk,,6,8.33984375,5.125,1,0,0,rectangle,8.33984375,5.125,1,0,0,8.33984375,5.125,1,0,0,1,64,224,33,1,,,,,,,,
,,,,,,,,,,,,,FF,,,,,,,,0.4003,,,,,,,,,,,,,,,,,,,,,,60fe310d963e64b57e9d10a8,610377c86d97b3a2a315b060,2021-07-29_23h56.17.266,Simcolourproject_2stim_asymm_v5,2020.2.10,MacIntel,60,61025ae37ef11b136ea224fe,,,,,,,,,1079,58.66015625,42.8671875,1,0,0,response1disk,,6,5.96484375,2.9765625,1,0,0,rectangle,5.96484375,2.9765625,1,0,0,5.96484375,2.9765625,1,0,0,1,65,225,126,1,,,,,,,,
,,,,,,,,,,,,,FF,,,,,,,,0.4332,,,,,,,,,,,,,,,,,,,,,,60fe310d963e64b57e9d10a8,610377c86d97b3a2a315b060,2021-07-29_23h56.17.266,Simcolourproject_2stim_asymm_v5,2020.2.10,MacIntel,60,61025ae37ef11b136ea224fe,,,,,,,,,1614,47.55078125,54.1796875,1,0,0,response1disk,,7,18.6953125,13.19921875,1,0,0,rectangle,18.6953125,13.19921875,1,0,0,18.6953125,13.19921875,1,0,0,1,66,226,155,1,,,,,,,,
,,,,,,,,,,,,,FF,,,,,,,,0.7163,,,,,,,,,,,,,,,,,,,,,,60fe310d963e64b57e9d10a8,610377c86d97b3a2a315b060,2021-07-29_23h56.17.266,Simcolourproject_2stim_asymm_v5,2020.2.10,MacIntel,60,61025ae37ef11b136ea224fe,,,,,,,,,967,49.765625,68.3046875,1,0,0,response1disk,,7,20.8046875,-11.17578125,1,0,0,rectangle,20.8046875,-11.17578125,1,0,0,20.8046875,-11.17578125,1,0,0,1,67,227,135,1,,,,,,,,
,,,,,,,,,,,,,FF,,,,,,,,0.783,,,,,,,,,,,,,,,,,,,,,,60fe310d963e64b57e9d10a8,610377c86d97b3a2a315b060,2021-07-29_23h56.17.266,Simcolourproject_2stim_asymm_v5,2020.2.10,MacIntel,60,61025ae37ef11b136ea224fe,,,,,,,,,4149,-51.84375,-38.3828125,1,0,0,response5disk,,2,-7.8671875,-4.79296875,1,0,0,rectangle,-7.8671875,-4.79296875,1,0,0,-7.8671875,-4.79296875,1,0,0,1,68,228,21,1,,,,,,,,
,,,,,,,,,,,,,FF,,,,,,,,0.466,,,,,,,,,,,,,,,,,,,,,,60fe310d963e64b57e9d10a8,610377c86d97b3a2a315b060,2021-07-29_23h56.17.266,Simcolourproject_2stim_asymm_v5,2020.2.10,MacIntel,60,61025ae37ef11b136ea224fe,,,,,,,,,503,29.6171875,-27.71875,1,0,0,response3disk,,5,4.171875,-2.12109375,1,0,0,rectangle,4.171875,-2.12109375,1,0,0,4.171875,-2.12109375,1,0,0,1,69,229,159,1,,,,,,,,
,,,,,,,,,,,,,FF,,,,,,,,0.8666,,,,,,,,,,,,,,,,,,,,,,60fe310d963e64b57e9d10a8,610377c86d97b3a2a315b060,2021-07-29_23h56.17.266,Simcolourproject_2stim_asymm_v5,2020.2.10,MacIntel,60,61025ae37ef11b136ea224fe,,,,,,,,,2617,-37.27734375,-57.58203125,1,0,0,response5disk,,3,-25.43359375,0.5,1,0,0,rectangle,-25.43359375,0.5,1,0,0,-25.43359375,0.5,1,0,0,1,70,230,19,1,,,,,,,,
,,,,,,,,,,,,,FF,,,,,,,,0.8332,,,,,,,,,,,,,,,,,,,,,,60fe310d963e64b57e9d10a8,610377c86d97b3a2a315b060,2021-07-29_23h56.17.266,Simcolourproject_2stim_asymm_v5,2020.2.10,MacIntel,60,61025ae37ef11b136ea224fe,,,,,,,,,3151,-63.15234375,29.91796875,1,0,0,response7disk,,1,8.08203125,-0.47265625,1,0,0,rectangle,8.08203125,-0.47265625,1,0,0,8.08203125,-0.47265625,1,0,0,1,71,231,71,1,,,,,,,,
,,,,,,,,,,,,,FF,,,,,,,,0.3989,,,,,,,,,,,,,,,,,,,,,,60fe310d963e64b57e9d10a8,610377c86d97b3a2a315b060,2021-07-29_23h56.17.266,Simcolourproject_2stim_asymm_v5,2020.2.10,MacIntel,60,61025ae37ef11b136ea224fe,,,,,,,,,476,30.28515625,-18.7421875,1,0,0,response3disk,,5,9.2421875,-9.42578125,1,0,0,rectangle,9.2421875,-9.42578125,1,0,0,9.2421875,-9.42578125,1,0,0,1,72,232,142,1,,,,,,,,
,,,,,,,,,,,,,FF,,,,,,,,0.4373,,,,,,,,,,,,,,,,,,,,,,60fe310d963e64b57e9d10a8,610377c86d97b3a2a315b060,2021-07-29_23h56.17.266,Simcolourproject_2stim_asymm_v5,2020.2.10,MacIntel,60,61025ae37ef11b136ea224fe,,,,,,,,,398,84.36328125,40.76953125,1,0,0,response1disk,,6,20.2890625,1.890625,1,0,0,rectangle,20.2890625,1.890625,1,0,0,20.2890625,1.890625,1,0,0,1,73,233,56,1,,,,,,,,
,,,,,,,,,,,,,FF,,,,,,,,0.6165,,,,,,,,,,,,,,,,,,,,,,60fe310d963e64b57e9d10a8,610377c86d97b3a2a315b060,2021-07-29_23h56.17.266,Simcolourproject_2stim_asymm_v5,2020.2.10,MacIntel,60,61025ae37ef11b136ea224fe,,,,,,,,,905,68.4609375,45.43359375,1,0,0,response1disk,,6,19.6328125,5.1875,1,0,0,rectangle,19.6328125,5.1875,1,0,0,19.6328125,5.1875,1,0,0,1,74,234,31,1,,,,,,,,
,,,,,,,,,,,,,FF,,,,,,,,0.7666,,,,,,,,,,,,,,,,,,,,,,60fe310d963e64b57e9d10a8,610377c86d97b3a2a315b060,2021-07-29_23h56.17.266,Simcolourproject_2stim_asymm_v5,2020.2.10,MacIntel,60,61025ae37ef11b136ea224fe,,,,,,,,,356,-27.90234375,-66.0078125,1,0,0,response5disk,,3,-27.90234375,1.26171875,1,0,0,rectangle,-27.90234375,1.26171875,1,0,0,-27.90234375,1.26171875,1,0,0,1,75,235,20,1,,,,,,,,
,,,,,,,,,,,,,FF,,,,,,,,0.4166,,,,,,,,,,,,,,,,,,,,,,60fe310d963e64b57e9d10a8,610377c86d97b3a2a315b060,2021-07-29_23h56.17.266,Simcolourproject_2stim_asymm_v5,2020.2.10,MacIntel,60,61025ae37ef11b136ea224fe,,,,,,,,,1862,33.19140625,-25.83203125,1,0,0,response3disk,,5,26.484375,-5.015625,1,0,0,rectangle,26.484375,-5.015625,1,0,0,26.484375,-5.015625,1,0,0,1,76,236,54,1,,,,,,,,
,,,,,,,,,,,,,FF,,,,,,,,0.6502,,,,,,,,,,,,,,,,,,,,,,60fe310d963e64b57e9d10a8,610377c86d97b3a2a315b060,2021-07-29_23h56.17.266,Simcolourproject_2stim_asymm_v5,2020.2.10,MacIntel,60,61025ae37ef11b136ea224fe,,,,,,,,,1530,-107.6289063,-36.0703125,1,0,0,response5disk,,2,-5.76171875,-15.46484375,1,0,0,rectangle,-5.76171875,-15.46484375,1,0,0,-5.76171875,-15.46484375,1,0,0,1,77,237,37,1,,,,,,,,
,,,,,,,,,,,,,FF,,,,,,,,0.534,,,,,,,,,,,,,,,,,,,,,,60fe310d963e64b57e9d10a8,610377c86d97b3a2a315b060,2021-07-29_23h56.17.266,Simcolourproject_2stim_asymm_v5,2020.2.10,MacIntel,60,61025ae37ef11b136ea224fe,,,,,,,,,2361,-63.8828125,21.53515625,1,0,0,response7disk,,1,-8.484375,10.73046875,1,0,0,rectangle,-8.484375,10.73046875,1,0,0,-8.484375,10.73046875,1,0,0,1,78,238,131,1,,,,,,,,
,,,,,,,,,,,,,FF,,,,,,,,0.4004,,,,,,,,,,,,,,,,,,,,,,60fe310d963e64b57e9d10a8,610377c86d97b3a2a315b060,2021-07-29_23h56.17.266,Simcolourproject_2stim_asymm_v5,2020.2.10,MacIntel,60,61025ae37ef11b136ea224fe,,,,,,,,,784,-26.91015625,-39.92578125,1,0,0,response5disk,,3,-22.7265625,4.9375,1,0,0,rectangle,-22.7265625,4.9375,1,0,0,-22.7265625,4.9375,1,0,0,1,79,239,74,1,,,,,,,,
,,,,,,,,,,,,,FF,,,,,,,,0.4171,,,,,,,,,,,,,,,,,,,,,,60fe310d963e64b57e9d10a8,610377c86d97b3a2a315b060,2021-07-29_23h56.17.266,Simcolourproject_2stim_asymm_v5,2020.2.10,MacIntel,60,61025ae37ef11b136ea224fe,,,,,,,,,1187,30.66796875,-23.0859375,1,0,0,response3disk,,5,9.25,-8.8125,1,0,0,rectangle,9.25,-8.8125,1,0,0,9.25,-8.8125,1,0,0,1,80,240,103,1,,,,,,,,
,,,,,,,,,,,,,FF,,,,,,,,0.4672,,,,,,,,,,,,,,,,,,,,,,60fe310d963e64b57e9d10a8,610377c86d97b3a2a315b060,2021-07-29_23h56.17.266,Simcolourproject_2stim_asymm_v5,2020.2.10,MacIntel,60,61025ae37ef11b136ea224fe,,,,,,,,,3068,-29.6484375,44.9453125,1,0,0,response7disk,,0,-0.80859375,1.08984375,1,0,0,rectangle,-0.80859375,1.08984375,1,0,0,-0.80859375,1.08984375,1,0,0,1,81,241,36,1,,,,,,,,
,,,,,,,,,,,,,FF,,,,,,,,0.5836,,,,,,,,,,,,,,,,,,,,,,60fe310d963e64b57e9d10a8,610377c86d97b3a2a315b060,2021-07-29_23h56.17.266,Simcolourproject_2stim_asymm_v5,2020.2.10,MacIntel,60,61025ae37ef11b136ea224fe,,,,,,,,,188,-49.3359375,33.05078125,1,0,0,response7disk,,1,-19.66015625,17.20703125,1,0,0,rectangle,-19.66015625,17.20703125,1,0,0,-19.66015625,17.20703125,1,0,0,1,82,242,134,1,,,,,,,,
,,,,,,,,,,,,,FF,,,,,,,,0.9186,,,,,,,,,,,,,,,,,,,,,,60fe310d963e64b57e9d10a8,610377c86d97b3a2a315b060,2021-07-29_23h56.17.266,Simcolourproject_2stim_asymm_v5,2020.2.10,MacIntel,60,61025ae37ef11b136ea224fe,,,,,,,,,297,69.7265625,49.00390625,1,0,0,response1disk,,6,24.25,12.7421875,1,0,0,rectangle,24.25,12.7421875,1,0,0,24.25,12.7421875,1,0,0,1,83,243,60,1,,,,,,,,
,,,,,,,,,,,,,FF,,,,,,,,0.5844,,,,,,,,,,,,,,,,,,,,,,60fe310d963e64b57e9d10a8,610377c86d97b3a2a315b060,2021-07-29_23h56.17.266,Simcolourproject_2stim_asymm_v5,2020.2.10,MacIntel,60,61025ae37ef11b136ea224fe,,,,,,,,,1853,20.4765625,-50.70703125,1,0,0,response3disk,,4,5.2421875,-15.72265625,1,0,0,rectangle,5.2421875,-15.72265625,1,0,0,5.2421875,-15.72265625,1,0,0,1,84,244,104,1,,,,,,,,
,,,,,,,,,,,,,FF,,,,,,,,0.617,,,,,,,,,,,,,,,,,,,,,,60fe310d963e64b57e9d10a8,610377c86d97b3a2a315b060,2021-07-29_23h56.17.266,Simcolourproject_2stim_asymm_v5,2020.2.10,MacIntel,60,61025ae37ef11b136ea224fe,,,,,,,,,176,67.28125,39.546875,1,0,0,response1disk,,6,3.7890625,-3.890625,1,0,0,rectangle,3.7890625,-3.890625,1,0,0,3.7890625,-3.890625,1,0,0,1,85,245,125,1,,,,,,,,
,,,,,,,,,,,,,FF,,,,,,,,0.567,,,,,,,,,,,,,,,,,,,,,,60fe310d963e64b57e9d10a8,610377c86d97b3a2a315b060,2021-07-29_23h56.17.266,Simcolourproject_2stim_asymm_v5,2020.2.10,MacIntel,60,61025ae37ef11b136ea224fe,,,,,,,,,2223,19.04296875,38.90234375,1,0,0,response1disk,,7,18.7265625,15.29296875,1,0,0,rectangle,18.7265625,15.29296875,1,0,0,18.7265625,15.29296875,1,0,0,1,86,246,85,1,,,,,,,,
,,,,,,,,,,,,,FF,,,,,,,,0.8339,,,,,,,,,,,,,,,,,,,,,,60fe310d963e64b57e9d10a8,610377c86d97b3a2a315b060,2021-07-29_23h56.17.266,Simcolourproject_2stim_asymm_v5,2020.2.10,MacIntel,60,61025ae37ef11b136ea224fe,,,,,,,,,2546,-28.9921875,-51.296875,1,0,0,response5disk,,3,-28.9921875,-12.23828125,1,0,0,rectangle,-28.9921875,-12.23828125,1,0,0,-28.9921875,-12.23828125,1,0,0,1,87,247,42,1,,,,,,,,
