key_resp.keys,key_resp.rt,key_resp_14.keys,key_resp_14.rt,key_resp_15.keys,key_resp_15.rt,key_resp_17.keys,key_resp_17.rt,key_resp_9.keys,key_resp_9.rt,key_resp_10.keys,key_resp_10.rt,practice_comparison,Ecc,mouse_5.x,mouse_5.y,mouse_5.leftButton,mouse_5.midButton,mouse_5.rightButton,mouse_5.clicked_name,pracsimilarity,response_time,mouse_10.x,mouse_10.y,mouse_10.leftButton,mouse_10.midButton,mouse_10.rightButton,mouse_10.clicked_name,mouse_7.x,mouse_7.y,mouse_7.leftButton,mouse_7.midButton,mouse_7.rightButton,mouse_6.x,mouse_6.y,mouse_6.leftButton,mouse_6.midButton,mouse_6.rightButton,duringprac.thisRepN,duringprac.thisTrialN,duringprac.thisN,duringprac.thisIndex,duringprac.ran,participant,session,date,expName,psychopyVersion,OS,frameRate,study_id,mouse_7.clicked_name,catchpracsimilarity,catch_response_time,catchnumberprac,catchtrialorderprac,mouse_6.clicked_name,key_resp_22.keys,key_resp_22.rt,realcomparison,mouse.x,mouse.y,mouse.leftButton,mouse.midButton,mouse.rightButton,mouse.clicked_name,Colour2,similarity,mouse_2.x,mouse_2.y,mouse_2.leftButton,mouse_2.midButton,mouse_2.rightButton,mouse_2.clicked_name,mouse_3.x,mouse_3.y,mouse_3.leftButton,mouse_3.midButton,mouse_3.rightButton,mouse_11.x,mouse_11.y,mouse_11.leftButton,mouse_11.midButton,mouse_11.rightButton,trials_2.thisRepN,trials_2.thisTrialN,trials_2.thisN,trials_2.thisIndex,trials_2.ran,Colour1,mouse_3.clicked_name,catchornah,catchsimilarity,catchnumber,catchtrialorder,catchRT,mouse_11.clicked_name
space,1.3284,space,6.7894,space,8.7323,space,4.8151,space,1.9313,space,4.6662,9,FF,-47.6015625,-96.62890625,1,0,0,response5disk_5,3,6.3347,2.5859375,-7.8828125,1,0,0,rectangle_8,2.5859375,-7.8828125,1,0,0,2.5859375,-7.8828125,1,0,0,0,0,0,3,1,60fe160ed067fe6ac793b5cc,61036888cd475cdc97453bb3,2021-07-29_22h49.26.058,Simcolourproject_2stim_asymm_v5,2020.2.10,MacIntel,60,61025ae37ef11b136ea224fe,,,,,,,,,,,,,,,,,,,,,,,,,,,,,,,,,,,,,,,,,,,,,,
,,,,,,,,,,,,13,FF,-82.125,-46.73046875,1,0,0,response5disk_5,2,2.3842,-8.0234375,-0.8984375,1,0,0,rectangle_8,-91.54296875,38.1796875,1,0,0,8.12890625,-0.625,1,0,0,0,1,1,0,1,60fe160ed067fe6ac793b5cc,61036888cd475cdc97453bb3,2021-07-29_22h49.26.058,Simcolourproject_2stim_asymm_v5,2020.2.10,MacIntel,60,61025ae37ef11b136ea224fe,response7disk_7,1,2.6335,1,"[2,5]",rectangle_4,,,,,,,,,,,,,,,,,,,,,,,,,,,,,,,,,,,,,,,,
,,,,,,,,,,,,50,PF,94.4296875,-48.3125,1,0,0,response3disk_5,5,2.3665,16.9375,-2.96875,1,0,0,rectangle_8,16.9375,-2.96875,1,0,0,16.9375,-2.96875,1,0,0,0,2,2,4,1,60fe160ed067fe6ac793b5cc,61036888cd475cdc97453bb3,2021-07-29_22h49.26.058,Simcolourproject_2stim_asymm_v5,2020.2.10,MacIntel,60,61025ae37ef11b136ea224fe,,,,,,,,,,,,,,,,,,,,,,,,,,,,,,,,,,,,,,,,,,,,,,
,,,,,,,,,,,,8,PF,31.79296875,-95.5625,1,0,0,response3disk_5,4,1.3167,-7.75390625,4.40625,1,0,0,rectangle_8,-7.75390625,4.40625,1,0,0,-7.75390625,4.40625,1,0,0,0,3,3,2,1,60fe160ed067fe6ac793b5cc,61036888cd475cdc97453bb3,2021-07-29_22h49.26.058,Simcolourproject_2stim_asymm_v5,2020.2.10,MacIntel,60,61025ae37ef11b136ea224fe,,,,,,,,,,,,,,,,,,,,,,,,,,,,,,,,,,,,,,,,,,,,,,
,,,,,,,,,,,,105,PF,-72.4140625,-51.1875,1,0,0,response5disk_5,2,1.1826,12.109375,-6.1640625,1,0,0,rectangle_8,-99.109375,56.90625,1,0,0,-1.76171875,-3.609375,1,0,0,0,4,4,1,1,60fe160ed067fe6ac793b5cc,61036888cd475cdc97453bb3,2021-07-29_22h49.26.058,Simcolourproject_2stim_asymm_v5,2020.2.10,MacIntel,60,61025ae37ef11b136ea224fe,response7disk_7,1,2.4693,1,"[2,5]",rectangle_4,,,,,,,,,,,,,,,,,,,,,,,,,,,,,,,,,,,,,,,,
,,,,,,,,,,,,1,FF,106.28125,29.7421875,1,0,0,response1disk_5,6,1.2326,8.16796875,-4.10546875,1,0,0,rectangle_8,8.16796875,-4.10546875,1,0,0,8.16796875,-4.10546875,1,0,0,0,5,5,5,1,60fe160ed067fe6ac793b5cc,61036888cd475cdc97453bb3,2021-07-29_22h49.26.058,Simcolourproject_2stim_asymm_v5,2020.2.10,MacIntel,60,61025ae37ef11b136ea224fe,,,,,,,,,,,,,,,,,,,,,,,,,,,,,,,,,,,,,,,,,,,,,,
,,,,,,,,,,,,119,PF,102.90625,46.94140625,1,0,0,response1disk_5,6,1.366,5.328125,4.75390625,1,0,0,rectangle_8,5.328125,4.75390625,1,0,0,5.328125,4.75390625,1,0,0,0,6,6,6,1,60fe160ed067fe6ac793b5cc,61036888cd475cdc97453bb3,2021-07-29_22h49.26.058,Simcolourproject_2stim_asymm_v5,2020.2.10,MacIntel,60,61025ae37ef11b136ea224fe,,,,,,,,,,,,,,,,,,,,,,,,,,,,,,,,,,,,,,,,,,,,,,
,,,,,,,,,,,,,FF,,,,,,,,1.182,,,,,,,,,,,,,,,,,,,,,,60fe160ed067fe6ac793b5cc,61036888cd475cdc97453bb3,2021-07-29_22h49.26.058,Simcolourproject_2stim_asymm_v5,2020.2.10,MacIntel,60,61025ae37ef11b136ea224fe,,,,,,,space,8.3752,3161,45.72265625,-80.68359375,1,0,0,response3disk,,4,-0.77734375,-4.04296875,1,0,0,rectangle,-0.77734375,-4.04296875,1,0,0,-0.77734375,-4.04296875,1,0,0,0,0,0,89,1,,,,,,,,
,,,,,,,,,,,,,FF,,,,,,,,0.9324,,,,,,,,,,,,,,,,,,,,,,60fe160ed067fe6ac793b5cc,61036888cd475cdc97453bb3,2021-07-29_22h49.26.058,Simcolourproject_2stim_asymm_v5,2020.2.10,MacIntel,60,61025ae37ef11b136ea224fe,,,,,,,,,3134,98.94921875,-55.78515625,1,0,0,response3disk,,5,9.84375,-7.0234375,1,0,0,rectangle,9.84375,-7.0234375,1,0,0,9.84375,-7.0234375,1,0,0,0,1,1,139,1,,,,,,,,
,,,,,,,,,,,,,FF,,,,,,,,1.3023,,,,,,,,,,,,,,,,,,,,,,60fe160ed067fe6ac793b5cc,61036888cd475cdc97453bb3,2021-07-29_22h49.26.058,Simcolourproject_2stim_asymm_v5,2020.2.10,MacIntel,60,61025ae37ef11b136ea224fe,,,,,,,,,3564,25.4296875,-80.28125,1,0,0,response3disk,,4,-6.37109375,-5.9140625,1,0,0,rectangle,-6.37109375,-5.9140625,1,0,0,-6.37109375,-5.9140625,1,0,0,0,2,2,27,1,,,,,,,,
,,,,,,,,,,,,,FF,,,,,,,,0.9003,,,,,,,,,,,,,,,,,,,,,,60fe160ed067fe6ac793b5cc,61036888cd475cdc97453bb3,2021-07-29_22h49.26.058,Simcolourproject_2stim_asymm_v5,2020.2.10,MacIntel,60,61025ae37ef11b136ea224fe,,,,,,,,,1132,-77.06640625,-52.703125,1,0,0,response5disk,,2,-10.25,-10.0234375,1,0,0,rectangle,-10.25,-10.0234375,1,0,0,-10.25,-10.0234375,1,0,0,0,3,3,125,1,,,,,,,,
,,,,,,,,,,,,,FF,,,,,,,,1.3493,,,,,,,,,,,,,,,,,,,,,,60fe160ed067fe6ac793b5cc,61036888cd475cdc97453bb3,2021-07-29_22h49.26.058,Simcolourproject_2stim_asymm_v5,2020.2.10,MacIntel,60,61025ae37ef11b136ea224fe,,,,,,,,,3458,95.16015625,31.71875,1,0,0,response1disk,,6,12.23046875,12.18359375,1,0,0,rectangle,12.23046875,12.18359375,1,0,0,12.23046875,12.18359375,1,0,0,0,4,4,64,1,,,,,,,,
,,,,,,,,,,,,,FF,,,,,,,,0.9008,,,,,,,,,,,,,,,,,,,,,,60fe160ed067fe6ac793b5cc,61036888cd475cdc97453bb3,2021-07-29_22h49.26.058,Simcolourproject_2stim_asymm_v5,2020.2.10,MacIntel,60,61025ae37ef11b136ea224fe,,,,,,,,,2080,100.7109375,-40.8828125,1,0,0,response3disk,,5,21.96484375,3.61328125,1,0,0,rectangle,21.96484375,3.61328125,1,0,0,21.96484375,3.61328125,1,0,0,0,5,5,63,1,,,,,,,,
,,,,,,,,,,,,,FF,,,,,,,,1.3656,,,,,,,,,,,,,,,,,,,,,,60fe160ed067fe6ac793b5cc,61036888cd475cdc97453bb3,2021-07-29_22h49.26.058,Simcolourproject_2stim_asymm_v5,2020.2.10,MacIntel,60,61025ae37ef11b136ea224fe,,,,,,,,,1043,42.6015625,-99.875,1,0,0,response3disk,,4,1.35546875,-11.08203125,1,0,0,rectangle,1.35546875,-11.08203125,1,0,0,1.35546875,-11.08203125,1,0,0,0,6,6,122,1,,,,,,,,
,,,,,,,,,,,,,FF,,,,,,,,1.3669,,,,,,,,,,,,,,,,,,,,,,60fe160ed067fe6ac793b5cc,61036888cd475cdc97453bb3,2021-07-29_22h49.26.058,Simcolourproject_2stim_asymm_v5,2020.2.10,MacIntel,60,61025ae37ef11b136ea224fe,,,,,,,,,777,90.19140625,-29.79296875,1,0,0,response3disk,,5,13.640625,-0.53125,1,0,0,rectangle,13.640625,-0.53125,1,0,0,13.640625,-0.53125,1,0,0,0,7,7,94,1,,,,,,,,
,,,,,,,,,,,,,FF,,,,,,,,0.8663,,,,,,,,,,,,,,,,,,,,,,60fe160ed067fe6ac793b5cc,61036888cd475cdc97453bb3,2021-07-29_22h49.26.058,Simcolourproject_2stim_asymm_v5,2020.2.10,MacIntel,60,61025ae37ef11b136ea224fe,,,,,,,,,3857,-42.921875,-104.8164063,1,0,0,response5disk,,3,2.03125,-2.92578125,1,0,0,rectangle,2.03125,-2.92578125,1,0,0,2.03125,-2.92578125,1,0,0,0,8,8,17,1,,,,,,,,
,,,,,,,,,,,,,FF,,,,,,,,0.8994,,,,,,,,,,,,,,,,,,,,,,60fe160ed067fe6ac793b5cc,61036888cd475cdc97453bb3,2021-07-29_22h49.26.058,Simcolourproject_2stim_asymm_v5,2020.2.10,MacIntel,60,61025ae37ef11b136ea224fe,,,,,,,,,3005,-104.90625,-51.0703125,1,0,0,response5disk,,2,-4.6328125,3.16796875,1,0,0,rectangle,-4.6328125,3.16796875,1,0,0,-4.6328125,3.16796875,1,0,0,0,9,9,71,1,,,,,,,,
,,,,,,,,,,,,,FF,,,,,,,,0.901,,,,,,,,,,,,,,,,,,,,,,60fe160ed067fe6ac793b5cc,61036888cd475cdc97453bb3,2021-07-29_22h49.26.058,Simcolourproject_2stim_asymm_v5,2020.2.10,MacIntel,60,61025ae37ef11b136ea224fe,,,,,,,,,2327,53.8203125,-97.59375,1,0,0,response3disk,,4,19.578125,-9.7578125,1,0,0,rectangle,19.578125,-9.7578125,1,0,0,19.578125,-9.7578125,1,0,0,0,10,10,8,1,,,,,,,,
,,,,,,,,,,,,,FF,,,,,,,,1.0176,,,,,,,,,,,,,,,,,,,,,,60fe160ed067fe6ac793b5cc,61036888cd475cdc97453bb3,2021-07-29_22h49.26.058,Simcolourproject_2stim_asymm_v5,2020.2.10,MacIntel,60,61025ae37ef11b136ea224fe,,,,,,,,,2361,-96.19921875,-39.1484375,1,0,0,response5disk,,2,-21.83984375,-11.265625,1,0,0,rectangle,-21.83984375,-11.265625,1,0,0,-21.83984375,-11.265625,1,0,0,0,11,11,51,1,,,,,,,,
,,,,,,,,,,,,,FF,,,,,,,,1.283,,,,,,,,,,,,,,,,,,,,,,60fe160ed067fe6ac793b5cc,61036888cd475cdc97453bb3,2021-07-29_22h49.26.058,Simcolourproject_2stim_asymm_v5,2020.2.10,MacIntel,60,61025ae37ef11b136ea224fe,,,,,,,,,488,57.046875,-99.078125,1,0,0,response3disk,,4,15.73046875,-9.96875,1,0,0,rectangle,15.73046875,-9.96875,1,0,0,15.73046875,-9.96875,1,0,0,0,12,12,156,1,,,,,,,,
,,,,,,,,,,,,,FF,,,,,,,,0.9507,,,,,,,,,,,,,,,,,,,,,,60fe160ed067fe6ac793b5cc,61036888cd475cdc97453bb3,2021-07-29_22h49.26.058,Simcolourproject_2stim_asymm_v5,2020.2.10,MacIntel,60,61025ae37ef11b136ea224fe,,,,,,,,,2948,-83.9453125,35.3828125,1,0,0,response7disk,,1,-8.41015625,14.31640625,1,0,0,rectangle,-8.41015625,14.31640625,1,0,0,-8.41015625,14.31640625,1,0,0,0,13,13,32,1,,,,,,,,
,,,,,,,,,,,,,FF,,,,,,,,1.1515,,,,,,,,,,,,,,,,,,,,,,60fe160ed067fe6ac793b5cc,61036888cd475cdc97453bb3,2021-07-29_22h49.26.058,Simcolourproject_2stim_asymm_v5,2020.2.10,MacIntel,60,61025ae37ef11b136ea224fe,,,,,,,,,3144,42.65234375,-76.8828125,1,0,0,response3disk,,4,17.359375,-7.5859375,1,0,0,rectangle,17.359375,-7.5859375,1,0,0,17.359375,-7.5859375,1,0,0,0,14,14,19,1,,,,,,,,
,,,,,,,,,,,,,FF,,,,,,,,0.8163,,,,,,,,,,,,,,,,,,,,,,60fe160ed067fe6ac793b5cc,61036888cd475cdc97453bb3,2021-07-29_22h49.26.058,Simcolourproject_2stim_asymm_v5,2020.2.10,MacIntel,60,61025ae37ef11b136ea224fe,,,,,,,,,3902,-49.0703125,-73.54296875,1,0,0,response5disk,,3,-5.92578125,-10.609375,1,0,0,rectangle,-5.92578125,-10.609375,1,0,0,-5.92578125,-10.609375,1,0,0,0,15,15,110,1,,,,,,,,
,,,,,,,,,,,,,FF,,,,,,,,0.9165,,,,,,,,,,,,,,,,,,,,,,60fe160ed067fe6ac793b5cc,61036888cd475cdc97453bb3,2021-07-29_22h49.26.058,Simcolourproject_2stim_asymm_v5,2020.2.10,MacIntel,60,61025ae37ef11b136ea224fe,,,,,,,,,1797,91.27734375,32.7109375,1,0,0,response1disk,,6,17.12109375,5.171875,1,0,0,rectangle,17.12109375,5.171875,1,0,0,17.12109375,5.171875,1,0,0,0,16,16,39,1,,,,,,,,
,,,,,,,,,,,,,FF,,,,,,,,1.0168,,,,,,,,,,,,,,,,,,,,,,60fe160ed067fe6ac793b5cc,61036888cd475cdc97453bb3,2021-07-29_22h49.26.058,Simcolourproject_2stim_asymm_v5,2020.2.10,MacIntel,60,61025ae37ef11b136ea224fe,,,,,,,,,2409,40.58203125,91.62890625,1,0,0,response1disk,,7,-2.671875,-5.6640625,1,0,0,rectangle,-2.671875,-5.6640625,1,0,0,-2.671875,-5.6640625,1,0,0,0,17,17,44,1,,,,,,,,
,,,,,,,,,,,,,FF,,,,,,,,0.9826,,,,,,,,,,,,,,,,,,,,,,60fe160ed067fe6ac793b5cc,61036888cd475cdc97453bb3,2021-07-29_22h49.26.058,Simcolourproject_2stim_asymm_v5,2020.2.10,MacIntel,60,61025ae37ef11b136ea224fe,,,,,,,,,1425,106.0898438,-67.35546875,1,0,0,response3disk,,5,11.8203125,-7.46484375,1,0,0,rectangle,11.8203125,-7.46484375,1,0,0,11.8203125,-7.46484375,1,0,0,0,18,18,140,1,,,,,,,,
,,,,,,,,,,,,,FF,,,,,,,,1.5514,,,,,,,,,,,,,,,,,,,,,,60fe160ed067fe6ac793b5cc,61036888cd475cdc97453bb3,2021-07-29_22h49.26.058,Simcolourproject_2stim_asymm_v5,2020.2.10,MacIntel,60,61025ae37ef11b136ea224fe,,,,,,,,,2491,48.7578125,-81.47265625,1,0,0,response3disk,,4,3.2890625,-11.58203125,1,0,0,rectangle,3.2890625,-11.58203125,1,0,0,3.2890625,-11.58203125,1,0,0,0,19,19,108,1,,,,,,,,
,,,,,,,,,,,,,FF,,,,,,,,1.7505,,,,,,,,,,,,,,,,,,,,,,60fe160ed067fe6ac793b5cc,61036888cd475cdc97453bb3,2021-07-29_22h49.26.058,Simcolourproject_2stim_asymm_v5,2020.2.10,MacIntel,60,61025ae37ef11b136ea224fe,,,,,,,,,3019,85.55078125,-45.390625,1,0,0,response3disk,,5,9.85546875,-0.31640625,1,0,0,rectangle,9.85546875,-0.31640625,1,0,0,9.85546875,-0.31640625,1,0,0,0,20,20,148,1,,,,,,,,
,,,,,,,,,,,,,FF,,,,,,,,1.0324,,,,,,,,,,,,,,,,,,,,,,60fe160ed067fe6ac793b5cc,61036888cd475cdc97453bb3,2021-07-29_22h49.26.058,Simcolourproject_2stim_asymm_v5,2020.2.10,MacIntel,60,61025ae37ef11b136ea224fe,,,,,,,,,3645,105.3789063,47.12109375,1,0,0,response1disk,,6,-4.58984375,0.90234375,1,0,0,rectangle,-4.58984375,0.90234375,1,0,0,-4.58984375,0.90234375,1,0,0,0,21,21,21,1,,,,,,,,
,,,,,,,,,,,,,FF,,,,,,,,0.949,,,,,,,,,,,,,,,,,,,,,,60fe160ed067fe6ac793b5cc,61036888cd475cdc97453bb3,2021-07-29_22h49.26.058,Simcolourproject_2stim_asymm_v5,2020.2.10,MacIntel,60,61025ae37ef11b136ea224fe,,,,,,,,,2765,110.4101563,46.34765625,1,0,0,response1disk,,6,16.02734375,5.64453125,1,0,0,rectangle,16.02734375,5.64453125,1,0,0,16.02734375,5.64453125,1,0,0,0,22,22,144,1,,,,,,,,
,,,,,,,,,,,,,FF,,,,,,,,0.8985,,,,,,,,,,,,,,,,,,,,,,60fe160ed067fe6ac793b5cc,61036888cd475cdc97453bb3,2021-07-29_22h49.26.058,Simcolourproject_2stim_asymm_v5,2020.2.10,MacIntel,60,61025ae37ef11b136ea224fe,,,,,,,,,849,95.328125,22.71484375,1,0,0,response1disk,,6,9.765625,-1.17578125,1,0,0,rectangle,9.765625,-1.17578125,1,0,0,9.765625,-1.17578125,1,0,0,0,23,23,42,1,,,,,,,,
,,,,,,,,,,,,,FF,,,,,,,,1.0328,,,,,,,,,,,,,,,,,,,,,,60fe160ed067fe6ac793b5cc,61036888cd475cdc97453bb3,2021-07-29_22h49.26.058,Simcolourproject_2stim_asymm_v5,2020.2.10,MacIntel,60,61025ae37ef11b136ea224fe,,,,,,,,,3020,90.92578125,52.015625,1,0,0,response1disk,,6,14.28125,1.03125,1,0,0,rectangle,14.28125,1.03125,1,0,0,14.28125,1.03125,1,0,0,0,24,24,26,1,,,,,,,,
,,,,,,,,,,,,,FF,,,,,,,,1.1326,,,,,,,,,,,,,,,,,,,,,,60fe160ed067fe6ac793b5cc,61036888cd475cdc97453bb3,2021-07-29_22h49.26.058,Simcolourproject_2stim_asymm_v5,2020.2.10,MacIntel,60,61025ae37ef11b136ea224fe,,,,,,,,,1286,33.734375,-105.5703125,1,0,0,response3disk,,4,15.04296875,0.92578125,1,0,0,rectangle,15.04296875,0.92578125,1,0,0,15.04296875,0.92578125,1,0,0,0,25,25,45,1,,,,,,,,
,,,,,,,,,,,,,FF,,,,,,,,0.8334,,,,,,,,,,,,,,,,,,,,,,60fe160ed067fe6ac793b5cc,61036888cd475cdc97453bb3,2021-07-29_22h49.26.058,Simcolourproject_2stim_asymm_v5,2020.2.10,MacIntel,60,61025ae37ef11b136ea224fe,,,,,,,,,242,80.97265625,-34.40234375,1,0,0,response3disk,,5,27.9609375,3.04296875,1,0,0,rectangle,27.9609375,3.04296875,1,0,0,27.9609375,3.04296875,1,0,0,0,26,26,16,1,,,,,,,,
,,,,,,,,,,,,,FF,,,,,,,,0.8999,,,,,,,,,,,,,,,,,,,,,,60fe160ed067fe6ac793b5cc,61036888cd475cdc97453bb3,2021-07-29_22h49.26.058,Simcolourproject_2stim_asymm_v5,2020.2.10,MacIntel,60,61025ae37ef11b136ea224fe,,,,,,,,,2237,-44.66015625,-84.6484375,1,0,0,response5disk,,3,5.0546875,-4.81640625,1,0,0,rectangle,5.0546875,-4.81640625,1,0,0,5.0546875,-4.81640625,1,0,0,0,27,27,13,1,,,,,,,,
,,,,,,,,,,,,,FF,,,,,,,,0.7993,,,,,,,,,,,,,,,,,,,,,,60fe160ed067fe6ac793b5cc,61036888cd475cdc97453bb3,2021-07-29_22h49.26.058,Simcolourproject_2stim_asymm_v5,2020.2.10,MacIntel,60,61025ae37ef11b136ea224fe,,,,,,,,,3936,-33.6875,80.796875,1,0,0,response7disk,,0,-4.76953125,6.171875,1,0,0,rectangle,-4.76953125,6.171875,1,0,0,-4.76953125,6.171875,1,0,0,0,28,28,138,1,,,,,,,,
,,,,,,,,,,,,,FF,,,,,,,,0.9161,,,,,,,,,,,,,,,,,,,,,,60fe160ed067fe6ac793b5cc,61036888cd475cdc97453bb3,2021-07-29_22h49.26.058,Simcolourproject_2stim_asymm_v5,2020.2.10,MacIntel,60,61025ae37ef11b136ea224fe,,,,,,,,,146,96.84375,-54.96875,1,0,0,response3disk,,5,20.0390625,-2.41796875,1,0,0,rectangle,20.0390625,-2.41796875,1,0,0,20.0390625,-2.41796875,1,0,0,0,29,29,85,1,,,,,,,,
,,,,,,,,,,,,,FF,,,,,,,,0.9167,,,,,,,,,,,,,,,,,,,,,,60fe160ed067fe6ac793b5cc,61036888cd475cdc97453bb3,2021-07-29_22h49.26.058,Simcolourproject_2stim_asymm_v5,2020.2.10,MacIntel,60,61025ae37ef11b136ea224fe,,,,,,,,,2385,96.47265625,-30.89453125,1,0,0,response3disk,,5,6.88671875,3.84765625,1,0,0,rectangle,6.88671875,3.84765625,1,0,0,6.88671875,3.84765625,1,0,0,0,30,30,20,1,,,,,,,,
,,,,,,,,,,,,,FF,,,,,,,,1.0173,,,,,,,,,,,,,,,,,,,,,,60fe160ed067fe6ac793b5cc,61036888cd475cdc97453bb3,2021-07-29_22h49.26.058,Simcolourproject_2stim_asymm_v5,2020.2.10,MacIntel,60,61025ae37ef11b136ea224fe,,,,,,,,,3686,99.29296875,52.515625,1,0,0,response1disk,,6,-7.6953125,5.13671875,1,0,0,rectangle,-7.6953125,5.13671875,1,0,0,-7.6953125,5.13671875,1,0,0,0,31,31,75,1,,,,,,,,
,,,,,,,,,,,,,FF,,,,,,,,1.0152,,,,,,,,,,,,,,,,,,,,,,60fe160ed067fe6ac793b5cc,61036888cd475cdc97453bb3,2021-07-29_22h49.26.058,Simcolourproject_2stim_asymm_v5,2020.2.10,MacIntel,60,61025ae37ef11b136ea224fe,,,,,,,,,712,45.7578125,-101.7265625,1,0,0,response3disk,,4,13.15625,0.265625,1,0,0,rectangle,13.15625,0.265625,1,0,0,13.15625,0.265625,1,0,0,0,32,32,127,1,,,,,,,,
,,,,,,,,,,,,,FF,,,,,,,,0.8675,,,,,,,,,,,,,,,,,,,,,,60fe160ed067fe6ac793b5cc,61036888cd475cdc97453bb3,2021-07-29_22h49.26.058,Simcolourproject_2stim_asymm_v5,2020.2.10,MacIntel,60,61025ae37ef11b136ea224fe,,,,,,,,,2062,38.84375,-100.5078125,1,0,0,response3disk,,4,-5.0078125,0.98046875,1,0,0,rectangle,-5.0078125,0.98046875,1,0,0,-5.0078125,0.98046875,1,0,0,0,33,33,66,1,,,,,,,,
,,,,,,,,,,,,,FF,,,,,,,,0.9828,,,,,,,,,,,,,,,,,,,,,,60fe160ed067fe6ac793b5cc,61036888cd475cdc97453bb3,2021-07-29_22h49.26.058,Simcolourproject_2stim_asymm_v5,2020.2.10,MacIntel,60,61025ae37ef11b136ea224fe,,,,,,,,,4240,-54.1484375,-97.3984375,1,0,0,response5disk,,3,6.15625,9.66015625,1,0,0,rectangle,6.15625,9.66015625,1,0,0,6.15625,9.66015625,1,0,0,0,34,34,111,1,,,,,,,,
,,,,,,,,,,,,,FF,,,,,,,,0.7676,,,,,,,,,,,,,,,,,,,,,,60fe160ed067fe6ac793b5cc,61036888cd475cdc97453bb3,2021-07-29_22h49.26.058,Simcolourproject_2stim_asymm_v5,2020.2.10,MacIntel,60,61025ae37ef11b136ea224fe,,,,,,,,,589,97.6640625,45.359375,1,0,0,response1disk,,6,3.37890625,2.22265625,1,0,0,rectangle,3.37890625,2.22265625,1,0,0,3.37890625,2.22265625,1,0,0,0,35,35,145,1,,,,,,,,
,,,,,,,,,,,,,FF,,,,,,,,0.9335,,,,,,,,,,,,,,,,,,,,,,60fe160ed067fe6ac793b5cc,61036888cd475cdc97453bb3,2021-07-29_22h49.26.058,Simcolourproject_2stim_asymm_v5,2020.2.10,MacIntel,60,61025ae37ef11b136ea224fe,,,,,,,,,1931,89.8046875,-64.73046875,1,0,0,response3disk,,5,3.8203125,-4.7109375,1,0,0,rectangle,3.8203125,-4.7109375,1,0,0,3.8203125,-4.7109375,1,0,0,0,36,36,119,1,,,,,,,,
,,,,,,,,,,,,,FF,,,,,,,,1.0169,,,,,,,,,,,,,,,,,,,,,,60fe160ed067fe6ac793b5cc,61036888cd475cdc97453bb3,2021-07-29_22h49.26.058,Simcolourproject_2stim_asymm_v5,2020.2.10,MacIntel,60,61025ae37ef11b136ea224fe,,,,,,,,,1535,-102.984375,-39.3515625,1,0,0,response5disk,,2,-7.6796875,-1.203125,1,0,0,rectangle,-7.6796875,-1.203125,1,0,0,-7.6796875,-1.203125,1,0,0,0,37,37,92,1,,,,,,,,
,,,,,,,,,,,,,FF,,,,,,,,0.7837,,,,,,,,,,,,,,,,,,,,,,60fe160ed067fe6ac793b5cc,61036888cd475cdc97453bb3,2021-07-29_22h49.26.058,Simcolourproject_2stim_asymm_v5,2020.2.10,MacIntel,60,61025ae37ef11b136ea224fe,,,,,,,,,789,-43.8359375,-89.82421875,1,0,0,response5disk,,3,-8.234375,-2.1953125,1,0,0,rectangle,-8.234375,-2.1953125,1,0,0,-8.234375,-2.1953125,1,0,0,0,38,38,117,1,,,,,,,,
,,,,,,,,,,,,,FF,,,,,,,,0.7165,,,,,,,,,,,,,,,,,,,,,,60fe160ed067fe6ac793b5cc,61036888cd475cdc97453bb3,2021-07-29_22h49.26.058,Simcolourproject_2stim_asymm_v5,2020.2.10,MacIntel,60,61025ae37ef11b136ea224fe,,,,,,,,,3393,-84.2734375,-45.83203125,1,0,0,response5disk,,2,-10.87890625,3.76171875,1,0,0,rectangle,-10.87890625,3.76171875,1,0,0,-10.87890625,3.76171875,1,0,0,0,39,39,99,1,,,,,,,,
,,,,,,,,,,,,,FF,,,,,,,,0.9327,,,,,,,,,,,,,,,,,,,,,,60fe160ed067fe6ac793b5cc,61036888cd475cdc97453bb3,2021-07-29_22h49.26.058,Simcolourproject_2stim_asymm_v5,2020.2.10,MacIntel,60,61025ae37ef11b136ea224fe,,,,,,,,,2524,106.0039063,53.49609375,1,0,0,response1disk,,6,16.98828125,-0.21875,1,0,0,rectangle,16.98828125,-0.21875,1,0,0,16.98828125,-0.21875,1,0,0,0,40,40,68,1,,,,,,,,
,,,,,,,,,,,,,FF,,,,,,,,0.7658,,,,,,,,,,,,,,,,,,,,,,60fe160ed067fe6ac793b5cc,61036888cd475cdc97453bb3,2021-07-29_22h49.26.058,Simcolourproject_2stim_asymm_v5,2020.2.10,MacIntel,60,61025ae37ef11b136ea224fe,,,,,,,,,535,82.140625,-42.015625,1,0,0,response3disk,,5,33.35546875,-10.078125,1,0,0,rectangle,33.35546875,-10.078125,1,0,0,33.35546875,-10.078125,1,0,0,0,41,41,33,1,,,,,,,,
,,,,,,,,,,,,,FF,,,,,,,,0.8169,,,,,,,,,,,,,,,,,,,,,,60fe160ed067fe6ac793b5cc,61036888cd475cdc97453bb3,2021-07-29_22h49.26.058,Simcolourproject_2stim_asymm_v5,2020.2.10,MacIntel,60,61025ae37ef11b136ea224fe,,,,,,,,,1148,99.57421875,-73.25390625,1,0,0,response3disk,,5,-6.1484375,-0.20703125,1,0,0,rectangle,-6.1484375,-0.20703125,1,0,0,-6.1484375,-0.20703125,1,0,0,0,42,42,90,1,,,,,,,,
,,,,,,,,,,,,,FF,,,,,,,,0.733,,,,,,,,,,,,,,,,,,,,,,60fe160ed067fe6ac793b5cc,61036888cd475cdc97453bb3,2021-07-29_22h49.26.058,Simcolourproject_2stim_asymm_v5,2020.2.10,MacIntel,60,61025ae37ef11b136ea224fe,,,,,,,,,763,109.203125,-45.80859375,1,0,0,response3disk,,5,18.2109375,16.78125,1,0,0,rectangle,18.2109375,16.78125,1,0,0,18.2109375,16.78125,1,0,0,0,43,43,157,1,,,,,,,,
,,,,,,,,,,,,,FF,,,,,,,,0.7837,,,,,,,,,,,,,,,,,,,,,,60fe160ed067fe6ac793b5cc,61036888cd475cdc97453bb3,2021-07-29_22h49.26.058,Simcolourproject_2stim_asymm_v5,2020.2.10,MacIntel,60,61025ae37ef11b136ea224fe,,,,,,,,,176,32.546875,90.89453125,1,0,0,response1disk,,7,-1.5625,8.4921875,1,0,0,rectangle,-1.5625,8.4921875,1,0,0,-1.5625,8.4921875,1,0,0,0,44,44,80,1,,,,,,,,
,,,,,,,,,,,,,FF,,,,,,,,0.6334,,,,,,,,,,,,,,,,,,,,,,60fe160ed067fe6ac793b5cc,61036888cd475cdc97453bb3,2021-07-29_22h49.26.058,Simcolourproject_2stim_asymm_v5,2020.2.10,MacIntel,60,61025ae37ef11b136ea224fe,,,,,,,,,3195,-51.61328125,75.015625,1,0,0,response7disk,,0,-18.23828125,5.96484375,1,0,0,rectangle,-18.23828125,5.96484375,1,0,0,-18.23828125,5.96484375,1,0,0,0,45,45,78,1,,,,,,,,
,,,,,,,,,,,,,FF,,,,,,,,0.7829,,,,,,,,,,,,,,,,,,,,,,60fe160ed067fe6ac793b5cc,61036888cd475cdc97453bb3,2021-07-29_22h49.26.058,Simcolourproject_2stim_asymm_v5,2020.2.10,MacIntel,60,61025ae37ef11b136ea224fe,,,,,,,,,2535,-47.91015625,-61.96875,1,0,0,response5disk,,3,-8.95703125,-10.6875,1,0,0,rectangle,-8.95703125,-10.6875,1,0,0,-8.95703125,-10.6875,1,0,0,0,46,46,14,1,,,,,,,,
,,,,,,,,,,,,,FF,,,,,,,,0.7505,,,,,,,,,,,,,,,,,,,,,,60fe160ed067fe6ac793b5cc,61036888cd475cdc97453bb3,2021-07-29_22h49.26.058,Simcolourproject_2stim_asymm_v5,2020.2.10,MacIntel,60,61025ae37ef11b136ea224fe,,,,,,,,,2425,-100.59375,-38.03125,1,0,0,response5disk,,2,-16.765625,-0.7265625,1,0,0,rectangle,-16.765625,-0.7265625,1,0,0,-16.765625,-0.7265625,1,0,0,0,47,47,88,1,,,,,,,,
,,,,,,,,,,,,,FF,,,,,,,,0.8495,,,,,,,,,,,,,,,,,,,,,,60fe160ed067fe6ac793b5cc,61036888cd475cdc97453bb3,2021-07-29_22h49.26.058,Simcolourproject_2stim_asymm_v5,2020.2.10,MacIntel,60,61025ae37ef11b136ea224fe,,,,,,,,,4276,60.89453125,-85.828125,1,0,0,response3disk,,4,15.95703125,-12.98828125,1,0,0,rectangle,15.95703125,-12.98828125,1,0,0,15.95703125,-12.98828125,1,0,0,0,48,48,100,1,,,,,,,,
,,,,,,,,,,,,,FF,,,,,,,,0.8312,,,,,,,,,,,,,,,,,,,,,,60fe160ed067fe6ac793b5cc,61036888cd475cdc97453bb3,2021-07-29_22h49.26.058,Simcolourproject_2stim_asymm_v5,2020.2.10,MacIntel,60,61025ae37ef11b136ea224fe,,,,,,,,,3232,102.4453125,49.953125,1,0,0,response1disk,,6,17.75,7.08203125,1,0,0,rectangle,17.75,7.08203125,1,0,0,17.75,7.08203125,1,0,0,0,49,49,124,1,,,,,,,,
,,,,,,,,,,,,,FF,,,,,,,,0.799,,,,,,,,,,,,,,,,,,,,,,60fe160ed067fe6ac793b5cc,61036888cd475cdc97453bb3,2021-07-29_22h49.26.058,Simcolourproject_2stim_asymm_v5,2020.2.10,MacIntel,60,61025ae37ef11b136ea224fe,,,,,,,,,3218,103.7265625,53.46875,1,0,0,response1disk,,6,-15.20703125,3.17578125,1,0,0,rectangle,-15.20703125,3.17578125,1,0,0,-15.20703125,3.17578125,1,0,0,0,50,50,49,1,,,,,,,,
,,,,,,,,,,,,,FF,,,,,,,,0.916,,,,,,,,,,,,,,,,,,,,,,60fe160ed067fe6ac793b5cc,61036888cd475cdc97453bb3,2021-07-29_22h49.26.058,Simcolourproject_2stim_asymm_v5,2020.2.10,MacIntel,60,61025ae37ef11b136ea224fe,,,,,,,,,3254,80.90234375,-74.32421875,1,0,0,response3disk,,5,-1.81640625,4.453125,1,0,0,rectangle,-1.81640625,4.453125,1,0,0,-1.81640625,4.453125,1,0,0,0,51,51,5,1,,,,,,,,
,,,,,,,,,,,,,FF,,,,,,,,0.8661,,,,,,,,,,,,,,,,,,,,,,60fe160ed067fe6ac793b5cc,61036888cd475cdc97453bb3,2021-07-29_22h49.26.058,Simcolourproject_2stim_asymm_v5,2020.2.10,MacIntel,60,61025ae37ef11b136ea224fe,,,,,,,,,3771,33.29296875,-83.2421875,1,0,0,response3disk,,4,-4.56640625,2.52734375,1,0,0,rectangle,-4.56640625,2.52734375,1,0,0,-4.56640625,2.52734375,1,0,0,0,52,52,79,1,,,,,,,,
,,,,,,,,,,,,,FF,,,,,,,,0.6167,,,,,,,,,,,,,,,,,,,,,,60fe160ed067fe6ac793b5cc,61036888cd475cdc97453bb3,2021-07-29_22h49.26.058,Simcolourproject_2stim_asymm_v5,2020.2.10,MacIntel,60,61025ae37ef11b136ea224fe,,,,,,,,,1994,86.36328125,48.4375,1,0,0,response1disk,,6,13.375,6.60546875,1,0,0,rectangle,13.375,6.60546875,1,0,0,13.375,6.60546875,1,0,0,0,53,53,152,1,,,,,,,,
,,,,,,,,,,,,,FF,,,,,,,,0.7831,,,,,,,,,,,,,,,,,,,,,,60fe160ed067fe6ac793b5cc,61036888cd475cdc97453bb3,2021-07-29_22h49.26.058,Simcolourproject_2stim_asymm_v5,2020.2.10,MacIntel,60,61025ae37ef11b136ea224fe,,,,,,,,,3653,43.88671875,79.578125,1,0,0,response1disk,,7,9.9609375,15.91015625,1,0,0,rectangle,9.9609375,15.91015625,1,0,0,9.9609375,15.91015625,1,0,0,0,54,54,70,1,,,,,,,,
,,,,,,,,,,,,,FF,,,,,,,,0.8836,,,,,,,,,,,,,,,,,,,,,,60fe160ed067fe6ac793b5cc,61036888cd475cdc97453bb3,2021-07-29_22h49.26.058,Simcolourproject_2stim_asymm_v5,2020.2.10,MacIntel,60,61025ae37ef11b136ea224fe,,,,,,,,,4119,-62.39453125,-75.70703125,1,0,0,response5disk,,3,-18.10546875,-10.0625,1,0,0,rectangle,-18.10546875,-10.0625,1,0,0,-18.10546875,-10.0625,1,0,0,0,55,55,62,1,,,,,,,,
,,,,,,,,,,,,,FF,,,,,,,,0.8501,,,,,,,,,,,,,,,,,,,,,,60fe160ed067fe6ac793b5cc,61036888cd475cdc97453bb3,2021-07-29_22h49.26.058,Simcolourproject_2stim_asymm_v5,2020.2.10,MacIntel,60,61025ae37ef11b136ea224fe,,,,,,,,,875,-44.38671875,-81.359375,1,0,0,response5disk,,3,-5.01171875,-2.8515625,1,0,0,rectangle,-5.01171875,-2.8515625,1,0,0,-5.01171875,-2.8515625,1,0,0,0,56,56,158,1,,,,,,,,
,,,,,,,,,,,,,FF,,,,,,,,0.8003,,,,,,,,,,,,,,,,,,,,,,60fe160ed067fe6ac793b5cc,61036888cd475cdc97453bb3,2021-07-29_22h49.26.058,Simcolourproject_2stim_asymm_v5,2020.2.10,MacIntel,60,61025ae37ef11b136ea224fe,,,,,,,,,678,99.62109375,39.359375,1,0,0,response1disk,,6,17.24609375,2.515625,1,0,0,rectangle,17.24609375,2.515625,1,0,0,17.24609375,2.515625,1,0,0,0,57,57,133,1,,,,,,,,
,,,,,,,,,,,,,FF,,,,,,,,0.6328,,,,,,,,,,,,,,,,,,,,,,60fe160ed067fe6ac793b5cc,61036888cd475cdc97453bb3,2021-07-29_22h49.26.058,Simcolourproject_2stim_asymm_v5,2020.2.10,MacIntel,60,61025ae37ef11b136ea224fe,,,,,,,,,378,92.78515625,40.44921875,1,0,0,response1disk,,6,-3.6171875,-0.58203125,1,0,0,rectangle,-3.6171875,-0.58203125,1,0,0,-3.6171875,-0.58203125,1,0,0,0,58,58,61,1,,,,,,,,
,,,,,,,,,,,,,FF,,,,,,,,0.7675,,,,,,,,,,,,,,,,,,,,,,60fe160ed067fe6ac793b5cc,61036888cd475cdc97453bb3,2021-07-29_22h49.26.058,Simcolourproject_2stim_asymm_v5,2020.2.10,MacIntel,60,61025ae37ef11b136ea224fe,,,,,,,,,2047,-67.10546875,-76.578125,1,0,0,response5disk,,3,-16.62109375,-6.20703125,1,0,0,rectangle,-16.62109375,-6.20703125,1,0,0,-16.62109375,-6.20703125,1,0,0,0,59,59,137,1,,,,,,,,
,,,,,,,,,,,,,FF,,,,,,,,0.5838,,,,,,,,,,,,,,,,,,,,,,60fe160ed067fe6ac793b5cc,61036888cd475cdc97453bb3,2021-07-29_22h49.26.058,Simcolourproject_2stim_asymm_v5,2020.2.10,MacIntel,60,61025ae37ef11b136ea224fe,,,,,,,,,3268,90.37890625,59.75390625,1,0,0,response1disk,,6,14.04296875,4.6640625,1,0,0,rectangle,95.80859375,-48.4453125,1,0,0,19.1953125,-4.17578125,1,0,0,0,60,60,155,1,,response3disk_3,TRUE,5,5,"[319,110,275,147,302,61,120,283,213,288,126,250,294,177,273,135,232,173,258,223]",2.0652,rectangle
,,,,,,,,,,,,,FF,,,,,,,,0.8659,,,,,,,,,,,,,,,,,,,,,,60fe160ed067fe6ac793b5cc,61036888cd475cdc97453bb3,2021-07-29_22h49.26.058,Simcolourproject_2stim_asymm_v5,2020.2.10,MacIntel,60,61025ae37ef11b136ea224fe,,,,,,,,,1848,-22.83984375,-87.765625,1,0,0,response5disk,,3,-0.6015625,-8.21484375,1,0,0,rectangle,-0.6015625,-8.21484375,1,0,0,-0.6015625,-8.21484375,1,0,0,0,61,61,123,1,,,,,,,,
,,,,,,,,,,,,,FF,,,,,,,,0.7681,,,,,,,,,,,,,,,,,,,,,,60fe160ed067fe6ac793b5cc,61036888cd475cdc97453bb3,2021-07-29_22h49.26.058,Simcolourproject_2stim_asymm_v5,2020.2.10,MacIntel,60,61025ae37ef11b136ea224fe,,,,,,,,,4219,-44.40234375,-93.1640625,1,0,0,response5disk,,3,-5.60546875,-9.22265625,1,0,0,rectangle,-5.60546875,-9.22265625,1,0,0,-5.60546875,-9.22265625,1,0,0,0,62,62,50,1,,,,,,,,
,,,,,,,,,,,,,FF,,,,,,,,0.6818,,,,,,,,,,,,,,,,,,,,,,60fe160ed067fe6ac793b5cc,61036888cd475cdc97453bb3,2021-07-29_22h49.26.058,Simcolourproject_2stim_asymm_v5,2020.2.10,MacIntel,60,61025ae37ef11b136ea224fe,,,,,,,,,3646,88.1328125,46.4765625,1,0,0,response1disk,,6,9.203125,0.453125,1,0,0,rectangle,9.203125,0.453125,1,0,0,9.203125,0.453125,1,0,0,0,63,63,56,1,,,,,,,,
,,,,,,,,,,,,,FF,,,,,,,,0.567,,,,,,,,,,,,,,,,,,,,,,60fe160ed067fe6ac793b5cc,61036888cd475cdc97453bb3,2021-07-29_22h49.26.058,Simcolourproject_2stim_asymm_v5,2020.2.10,MacIntel,60,61025ae37ef11b136ea224fe,,,,,,,,,691,90.00390625,31.06640625,1,0,0,response1disk,,6,3.53515625,-6.578125,1,0,0,rectangle,3.53515625,-6.578125,1,0,0,3.53515625,-6.578125,1,0,0,0,64,64,115,1,,,,,,,,
,,,,,,,,,,,,,FF,,,,,,,,0.732,,,,,,,,,,,,,,,,,,,,,,60fe160ed067fe6ac793b5cc,61036888cd475cdc97453bb3,2021-07-29_22h49.26.058,Simcolourproject_2stim_asymm_v5,2020.2.10,MacIntel,60,61025ae37ef11b136ea224fe,,,,,,,,,1843,-67.046875,-81.1484375,1,0,0,response5disk,,3,-10.51953125,-5.08203125,1,0,0,rectangle,-10.51953125,-5.08203125,1,0,0,-10.51953125,-5.08203125,1,0,0,0,65,65,65,1,,,,,,,,
,,,,,,,,,,,,,FF,,,,,,,,0.8841,,,,,,,,,,,,,,,,,,,,,,60fe160ed067fe6ac793b5cc,61036888cd475cdc97453bb3,2021-07-29_22h49.26.058,Simcolourproject_2stim_asymm_v5,2020.2.10,MacIntel,60,61025ae37ef11b136ea224fe,,,,,,,,,1732,-58.625,-109.0351563,1,0,0,response5disk,,3,6.06640625,-4.58984375,1,0,0,rectangle,6.06640625,-4.58984375,1,0,0,6.06640625,-4.58984375,1,0,0,0,66,66,30,1,,,,,,,,
,,,,,,,,,,,,,FF,,,,,,,,0.6342,,,,,,,,,,,,,,,,,,,,,,60fe160ed067fe6ac793b5cc,61036888cd475cdc97453bb3,2021-07-29_22h49.26.058,Simcolourproject_2stim_asymm_v5,2020.2.10,MacIntel,60,61025ae37ef11b136ea224fe,,,,,,,,,2558,62.9296875,38.1953125,1,0,0,response1disk,,6,18.5625,-3.8828125,1,0,0,rectangle,18.5625,-3.8828125,1,0,0,18.5625,-3.8828125,1,0,0,0,67,67,6,1,,,,,,,,
,,,,,,,,,,,,,FF,,,,,,,,0.9486,,,,,,,,,,,,,,,,,,,,,,60fe160ed067fe6ac793b5cc,61036888cd475cdc97453bb3,2021-07-29_22h49.26.058,Simcolourproject_2stim_asymm_v5,2020.2.10,MacIntel,60,61025ae37ef11b136ea224fe,,,,,,,,,339,76.44140625,-56.55859375,1,0,0,response3disk,,5,32.6171875,-16.75390625,1,0,0,rectangle,32.6171875,-16.75390625,1,0,0,32.6171875,-16.75390625,1,0,0,0,68,68,12,1,,,,,,,,
,,,,,,,,,,,,,FF,,,,,,,,0.9668,,,,,,,,,,,,,,,,,,,,,,60fe160ed067fe6ac793b5cc,61036888cd475cdc97453bb3,2021-07-29_22h49.26.058,Simcolourproject_2stim_asymm_v5,2020.2.10,MacIntel,60,61025ae37ef11b136ea224fe,,,,,,,,,4148,-39.578125,-81.3671875,1,0,0,response5disk,,3,4.11328125,-10.63671875,1,0,0,rectangle,4.11328125,-10.63671875,1,0,0,4.11328125,-10.63671875,1,0,0,0,69,69,154,1,,,,,,,,
,,,,,,,,,,,,,FF,,,,,,,,1.1844,,,,,,,,,,,,,,,,,,,,,,60fe160ed067fe6ac793b5cc,61036888cd475cdc97453bb3,2021-07-29_22h49.26.058,Simcolourproject_2stim_asymm_v5,2020.2.10,MacIntel,60,61025ae37ef11b136ea224fe,,,,,,,,,321,92.7578125,-41.01953125,1,0,0,response3disk,,5,15.15234375,-8.20703125,1,0,0,rectangle,15.15234375,-8.20703125,1,0,0,15.15234375,-8.20703125,1,0,0,0,70,70,22,1,,,,,,,,
,,,,,,,,,,,,,FF,,,,,,,,1.0005,,,,,,,,,,,,,,,,,,,,,,60fe160ed067fe6ac793b5cc,61036888cd475cdc97453bb3,2021-07-29_22h49.26.058,Simcolourproject_2stim_asymm_v5,2020.2.10,MacIntel,60,61025ae37ef11b136ea224fe,,,,,,,,,1629,71.30859375,-41.01953125,1,0,0,response3disk,,5,9.71875,5.43359375,1,0,0,rectangle,9.71875,5.43359375,1,0,0,9.71875,5.43359375,1,0,0,0,71,71,59,1,,,,,,,,
,,,,,,,,,,,,,FF,,,,,,,,0.732,,,,,,,,,,,,,,,,,,,,,,60fe160ed067fe6ac793b5cc,61036888cd475cdc97453bb3,2021-07-29_22h49.26.058,Simcolourproject_2stim_asymm_v5,2020.2.10,MacIntel,60,61025ae37ef11b136ea224fe,,,,,,,,,1276,-47.9375,-83.2421875,1,0,0,response5disk,,3,-10.98046875,-5.59375,1,0,0,rectangle,-10.98046875,-5.59375,1,0,0,-10.98046875,-5.59375,1,0,0,0,72,72,48,1,,,,,,,,
,,,,,,,,,,,,,FF,,,,,,,,0.8999,,,,,,,,,,,,,,,,,,,,,,60fe160ed067fe6ac793b5cc,61036888cd475cdc97453bb3,2021-07-29_22h49.26.058,Simcolourproject_2stim_asymm_v5,2020.2.10,MacIntel,60,61025ae37ef11b136ea224fe,,,,,,,,,4189,100.734375,49.8828125,1,0,0,response1disk,,6,2.34765625,4.23046875,1,0,0,rectangle,2.34765625,4.23046875,1,0,0,2.34765625,4.23046875,1,0,0,0,73,73,57,1,,,,,,,,
,,,,,,,,,,,,,FF,,,,,,,,0.6164,,,,,,,,,,,,,,,,,,,,,,60fe160ed067fe6ac793b5cc,61036888cd475cdc97453bb3,2021-07-29_22h49.26.058,Simcolourproject_2stim_asymm_v5,2020.2.10,MacIntel,60,61025ae37ef11b136ea224fe,,,,,,,,,2956,98.453125,28.02734375,1,0,0,response1disk,,6,22.73046875,12.0703125,1,0,0,rectangle,22.73046875,12.0703125,1,0,0,22.73046875,12.0703125,1,0,0,0,74,74,150,1,,,,,,,,
,,,,,,,,,,,,,FF,,,,,,,,0.9487,,,,,,,,,,,,,,,,,,,,,,60fe160ed067fe6ac793b5cc,61036888cd475cdc97453bb3,2021-07-29_22h49.26.058,Simcolourproject_2stim_asymm_v5,2020.2.10,MacIntel,60,61025ae37ef11b136ea224fe,,,,,,,,,4301,58.83984375,-84.8125,1,0,0,response3disk,,4,15.36328125,-7.39453125,1,0,0,rectangle,15.36328125,-7.39453125,1,0,0,15.36328125,-7.39453125,1,0,0,0,75,75,18,1,,,,,,,,
,,,,,,,,,,,,,FF,,,,,,,,1.0491,,,,,,,,,,,,,,,,,,,,,,60fe160ed067fe6ac793b5cc,61036888cd475cdc97453bb3,2021-07-29_22h49.26.058,Simcolourproject_2stim_asymm_v5,2020.2.10,MacIntel,60,61025ae37ef11b136ea224fe,,,,,,,,,1612,18.9921875,-92.6171875,1,0,0,response3disk,,4,9.34765625,-12.984375,1,0,0,rectangle,9.34765625,-12.984375,1,0,0,9.34765625,-12.984375,1,0,0,0,76,76,84,1,,,,,,,,
,,,,,,,,,,,,,FF,,,,,,,,0.6666,,,,,,,,,,,,,,,,,,,,,,60fe160ed067fe6ac793b5cc,61036888cd475cdc97453bb3,2021-07-29_22h49.26.058,Simcolourproject_2stim_asymm_v5,2020.2.10,MacIntel,60,61025ae37ef11b136ea224fe,,,,,,,,,1659,107.578125,58.49609375,1,0,0,response1disk,,6,12.4140625,6.5078125,1,0,0,rectangle,12.4140625,6.5078125,1,0,0,12.4140625,6.5078125,1,0,0,0,77,77,128,1,,,,,,,,
,,,,,,,,,,,,,FF,,,,,,,,0.8001,,,,,,,,,,,,,,,,,,,,,,60fe160ed067fe6ac793b5cc,61036888cd475cdc97453bb3,2021-07-29_22h49.26.058,Simcolourproject_2stim_asymm_v5,2020.2.10,MacIntel,60,61025ae37ef11b136ea224fe,,,,,,,,,1569,103.7109375,46.38671875,1,0,0,response1disk,,6,19.94140625,1.2578125,1,0,0,rectangle,19.94140625,1.2578125,1,0,0,19.94140625,1.2578125,1,0,0,0,78,78,98,1,,,,,,,,
,,,,,,,,,,,,,FF,,,,,,,,0.7025,,,,,,,,,,,,,,,,,,,,,,60fe160ed067fe6ac793b5cc,61036888cd475cdc97453bb3,2021-07-29_22h49.26.058,Simcolourproject_2stim_asymm_v5,2020.2.10,MacIntel,60,61025ae37ef11b136ea224fe,,,,,,,,,654,35.5546875,-81.6953125,1,0,0,response3disk,,4,6.8984375,-9.39453125,1,0,0,rectangle,6.8984375,-9.39453125,1,0,0,6.8984375,-9.39453125,1,0,0,0,79,79,151,1,,,,,,,,
,,,,,,,,,,,,,FF,,,,,,,,0.7824,,,,,,,,,,,,,,,,,,,,,,60fe160ed067fe6ac793b5cc,61036888cd475cdc97453bb3,2021-07-29_22h49.26.058,Simcolourproject_2stim_asymm_v5,2020.2.10,MacIntel,60,61025ae37ef11b136ea224fe,,,,,,,,,2560,30.5625,-72.41796875,1,0,0,response3disk,,4,4.15625,-6.67578125,1,0,0,rectangle,4.15625,-6.67578125,1,0,0,4.15625,-6.67578125,1,0,0,0,80,80,60,1,,,,,,,,
,,,,,,,,,,,,,FF,,,,,,,,0.8679,,,,,,,,,,,,,,,,,,,,,,60fe160ed067fe6ac793b5cc,61036888cd475cdc97453bb3,2021-07-29_22h49.26.058,Simcolourproject_2stim_asymm_v5,2020.2.10,MacIntel,60,61025ae37ef11b136ea224fe,,,,,,,,,3768,94.3984375,46.6328125,1,0,0,response1disk,,6,18.90234375,-0.46875,1,0,0,rectangle,18.90234375,-0.46875,1,0,0,18.90234375,-0.46875,1,0,0,0,81,81,77,1,,,,,,,,
,,,,,,,,,,,,,FF,,,,,,,,0.6328,,,,,,,,,,,,,,,,,,,,,,60fe160ed067fe6ac793b5cc,61036888cd475cdc97453bb3,2021-07-29_22h49.26.058,Simcolourproject_2stim_asymm_v5,2020.2.10,MacIntel,60,61025ae37ef11b136ea224fe,,,,,,,,,1264,83.35546875,-42.0703125,1,0,0,response3disk,,5,10.0390625,-0.5625,1,0,0,rectangle,10.0390625,-0.5625,1,0,0,10.0390625,-0.5625,1,0,0,0,82,82,1,1,,,,,,,,
,,,,,,,,,,,,,FF,,,,,,,,0.8688,,,,,,,,,,,,,,,,,,,,,,60fe160ed067fe6ac793b5cc,61036888cd475cdc97453bb3,2021-07-29_22h49.26.058,Simcolourproject_2stim_asymm_v5,2020.2.10,MacIntel,60,61025ae37ef11b136ea224fe,,,,,,,,,638,-39.55859375,-62.625,1,0,0,response5disk,,3,-9.5625,-8.15234375,1,0,0,rectangle,-9.5625,-8.15234375,1,0,0,-9.5625,-8.15234375,1,0,0,0,83,83,104,1,,,,,,,,
,,,,,,,,,,,,,FF,,,,,,,,0.8007,,,,,,,,,,,,,,,,,,,,,,60fe160ed067fe6ac793b5cc,61036888cd475cdc97453bb3,2021-07-29_22h49.26.058,Simcolourproject_2stim_asymm_v5,2020.2.10,MacIntel,60,61025ae37ef11b136ea224fe,,,,,,,,,1734,-83.9453125,-51.34375,1,0,0,response5disk,,2,-28.75,-7.3203125,1,0,0,rectangle,-28.75,-7.3203125,1,0,0,-28.75,-7.3203125,1,0,0,0,84,84,52,1,,,,,,,,
,,,,,,,,,,,,,FF,,,,,,,,0.7347,,,,,,,,,,,,,,,,,,,,,,60fe160ed067fe6ac793b5cc,61036888cd475cdc97453bb3,2021-07-29_22h49.26.058,Simcolourproject_2stim_asymm_v5,2020.2.10,MacIntel,60,61025ae37ef11b136ea224fe,,,,,,,,,2899,-77.50390625,-61.08984375,1,0,0,response5disk,,2,-19.47265625,-12.5546875,1,0,0,rectangle,-19.47265625,-12.5546875,1,0,0,-19.47265625,-12.5546875,1,0,0,0,85,85,31,1,,,,,,,,
,,,,,,,,,,,,,FF,,,,,,,,0.8007,,,,,,,,,,,,,,,,,,,,,,60fe160ed067fe6ac793b5cc,61036888cd475cdc97453bb3,2021-07-29_22h49.26.058,Simcolourproject_2stim_asymm_v5,2020.2.10,MacIntel,60,61025ae37ef11b136ea224fe,,,,,,,,,3308,97.98828125,45.109375,1,0,0,response1disk,,6,22.43359375,9.26171875,1,0,0,rectangle,22.43359375,9.26171875,1,0,0,22.43359375,9.26171875,1,0,0,0,86,86,7,1,,,,,,,,
,,,,,,,,,,,,,FF,,,,,,,,0.7657,,,,,,,,,,,,,,,,,,,,,,60fe160ed067fe6ac793b5cc,61036888cd475cdc97453bb3,2021-07-29_22h49.26.058,Simcolourproject_2stim_asymm_v5,2020.2.10,MacIntel,60,61025ae37ef11b136ea224fe,,,,,,,,,2528,93.95703125,33.4453125,1,0,0,response1disk,,6,15.7890625,6.36328125,1,0,0,rectangle,15.7890625,6.36328125,1,0,0,15.7890625,6.36328125,1,0,0,0,87,87,72,1,,,,,,,,
,,,,,,,,,,,,,FF,,,,,,,,1.1666,,,,,,,,,,,,,,,,,,,,,,60fe160ed067fe6ac793b5cc,61036888cd475cdc97453bb3,2021-07-29_22h49.26.058,Simcolourproject_2stim_asymm_v5,2020.2.10,MacIntel,60,61025ae37ef11b136ea224fe,,,,,,,,,2557,69.4375,-42.53515625,1,0,0,response3disk,,5,18.125,9.15234375,1,0,0,rectangle,18.125,9.15234375,1,0,0,18.125,9.15234375,1,0,0,0,88,88,87,1,,,,,,,,
,,,,,,,,,,,,,FF,,,,,,,,0.9179,,,,,,,,,,,,,,,,,,,,,,60fe160ed067fe6ac793b5cc,61036888cd475cdc97453bb3,2021-07-29_22h49.26.058,Simcolourproject_2stim_asymm_v5,2020.2.10,MacIntel,60,61025ae37ef11b136ea224fe,,,,,,,,,3365,58.53125,85.63671875,1,0,0,response1disk,,7,8.87109375,1.1953125,1,0,0,rectangle,8.87109375,1.1953125,1,0,0,8.87109375,1.1953125,1,0,0,0,89,89,55,1,,,,,,,,
,,,,,,,,,,,,,FF,,,,,,,,0.9015,,,,,,,,,,,,,,,,,,,,,,60fe160ed067fe6ac793b5cc,61036888cd475cdc97453bb3,2021-07-29_22h49.26.058,Simcolourproject_2stim_asymm_v5,2020.2.10,MacIntel,60,61025ae37ef11b136ea224fe,,,,,,,,,3773,-47.2265625,-70.1640625,1,0,0,response5disk,,3,-23.08984375,-1.45703125,1,0,0,rectangle,-23.08984375,-1.45703125,1,0,0,-23.08984375,-1.45703125,1,0,0,0,90,90,76,1,,,,,,,,
,,,,,,,,,,,,,FF,,,,,,,,0.6684,,,,,,,,,,,,,,,,,,,,,,60fe160ed067fe6ac793b5cc,61036888cd475cdc97453bb3,2021-07-29_22h49.26.058,Simcolourproject_2stim_asymm_v5,2020.2.10,MacIntel,60,61025ae37ef11b136ea224fe,,,,,,,,,2791,-56.46875,-99.40234375,1,0,0,response5disk,,3,-14.84765625,-3.08984375,1,0,0,rectangle,-14.84765625,-3.08984375,1,0,0,-14.84765625,-3.08984375,1,0,0,0,91,91,36,1,,,,,,,,
,,,,,,,,,,,,,FF,,,,,,,,0.5822,,,,,,,,,,,,,,,,,,,,,,60fe160ed067fe6ac793b5cc,61036888cd475cdc97453bb3,2021-07-29_22h49.26.058,Simcolourproject_2stim_asymm_v5,2020.2.10,MacIntel,60,61025ae37ef11b136ea224fe,,,,,,,,,3421,-53.453125,-99.16796875,1,0,0,response5disk,,3,-4.85546875,-3.55078125,1,0,0,rectangle,-4.85546875,-3.55078125,1,0,0,-4.85546875,-3.55078125,1,0,0,0,92,92,2,1,,,,,,,,
,,,,,,,,,,,,,FF,,,,,,,,0.6164,,,,,,,,,,,,,,,,,,,,,,60fe160ed067fe6ac793b5cc,61036888cd475cdc97453bb3,2021-07-29_22h49.26.058,Simcolourproject_2stim_asymm_v5,2020.2.10,MacIntel,60,61025ae37ef11b136ea224fe,,,,,,,,,3287,-40.4921875,-80.4375,1,0,0,response5disk,,3,-4.71875,4.83203125,1,0,0,rectangle,-4.71875,4.83203125,1,0,0,-4.71875,4.83203125,1,0,0,0,93,93,54,1,,,,,,,,
,,,,,,,,,,,,,FF,,,,,,,,0.833,,,,,,,,,,,,,,,,,,,,,,60fe160ed067fe6ac793b5cc,61036888cd475cdc97453bb3,2021-07-29_22h49.26.058,Simcolourproject_2stim_asymm_v5,2020.2.10,MacIntel,60,61025ae37ef11b136ea224fe,,,,,,,,,260,-95.68359375,-26.640625,1,0,0,response5disk,,2,-0.65234375,0.375,1,0,0,rectangle,-0.65234375,0.375,1,0,0,-0.65234375,0.375,1,0,0,0,94,94,121,1,,,,,,,,
,,,,,,,,,,,,,FF,,,,,,,,0.6495,,,,,,,,,,,,,,,,,,,,,,60fe160ed067fe6ac793b5cc,61036888cd475cdc97453bb3,2021-07-29_22h49.26.058,Simcolourproject_2stim_asymm_v5,2020.2.10,MacIntel,60,61025ae37ef11b136ea224fe,,,,,,,,,27,80.2734375,51.98046875,1,0,0,response1disk,,6,2.296875,-1.30859375,1,0,0,rectangle,2.296875,-1.30859375,1,0,0,2.296875,-1.30859375,1,0,0,0,95,95,95,1,,,,,,,,
,,,,,,,,,,,,,FF,,,,,,,,0.9851,,,,,,,,,,,,,,,,,,,,,,60fe160ed067fe6ac793b5cc,61036888cd475cdc97453bb3,2021-07-29_22h49.26.058,Simcolourproject_2stim_asymm_v5,2020.2.10,MacIntel,60,61025ae37ef11b136ea224fe,,,,,,,,,790,71.94140625,-31.37109375,1,0,0,response3disk,,5,16.53515625,8.3203125,1,0,0,rectangle,16.53515625,8.3203125,1,0,0,16.53515625,8.3203125,1,0,0,0,96,96,96,1,,,,,,,,
,,,,,,,,,,,,,FF,,,,,,,,0.9184,,,,,,,,,,,,,,,,,,,,,,60fe160ed067fe6ac793b5cc,61036888cd475cdc97453bb3,2021-07-29_22h49.26.058,Simcolourproject_2stim_asymm_v5,2020.2.10,MacIntel,60,61025ae37ef11b136ea224fe,,,,,,,,,2656,22.421875,-65.39453125,1,0,0,response3disk,,4,2.48828125,-14.78125,1,0,0,rectangle,2.48828125,-14.78125,1,0,0,2.48828125,-14.78125,1,0,0,0,97,97,82,1,,,,,,,,
,,,,,,,,,,,,,FF,,,,,,,,0.6832,,,,,,,,,,,,,,,,,,,,,,60fe160ed067fe6ac793b5cc,61036888cd475cdc97453bb3,2021-07-29_22h49.26.058,Simcolourproject_2stim_asymm_v5,2020.2.10,MacIntel,60,61025ae37ef11b136ea224fe,,,,,,,,,2611,70.62890625,-45.10546875,1,0,0,response3disk,,5,10.11328125,-10.328125,1,0,0,rectangle,10.11328125,-10.328125,1,0,0,10.11328125,-10.328125,1,0,0,0,98,98,149,1,,,,,,,,
,,,,,,,,,,,,,FF,,,,,,,,0.7011,,,,,,,,,,,,,,,,,,,,,,60fe160ed067fe6ac793b5cc,61036888cd475cdc97453bb3,2021-07-29_22h49.26.058,Simcolourproject_2stim_asymm_v5,2020.2.10,MacIntel,60,61025ae37ef11b136ea224fe,,,,,,,,,3208,44.69921875,-96.2109375,1,0,0,response3disk,,4,13.703125,0.0078125,1,0,0,rectangle,13.703125,0.0078125,1,0,0,13.703125,0.0078125,1,0,0,0,99,99,24,1,,,,,,,,
,,,,,,,,,,,,,FF,,,,,,,,0.6327,,,,,,,,,,,,,,,,,,,,,,60fe160ed067fe6ac793b5cc,61036888cd475cdc97453bb3,2021-07-29_22h49.26.058,Simcolourproject_2stim_asymm_v5,2020.2.10,MacIntel,60,61025ae37ef11b136ea224fe,,,,,,,,,3159,32.9765625,-93.3671875,1,0,0,response3disk,,4,11.1796875,-9.55859375,1,0,0,rectangle,11.1796875,-9.55859375,1,0,0,11.1796875,-9.55859375,1,0,0,0,100,100,9,1,,,,,,,,
,,,,,,,,,,,,,FF,,,,,,,,0.7176,,,,,,,,,,,,,,,,,,,,,,60fe160ed067fe6ac793b5cc,61036888cd475cdc97453bb3,2021-07-29_22h49.26.058,Simcolourproject_2stim_asymm_v5,2020.2.10,MacIntel,60,61025ae37ef11b136ea224fe,,,,,,,,,3967,-55.390625,-99.85546875,1,0,0,response5disk,,3,0.71875,-5.328125,1,0,0,rectangle,0.71875,-5.328125,1,0,0,0.71875,-5.328125,1,0,0,0,101,101,105,1,,,,,,,,
,,,,,,,,,,,,,FF,,,,,,,,0.7332,,,,,,,,,,,,,,,,,,,,,,60fe160ed067fe6ac793b5cc,61036888cd475cdc97453bb3,2021-07-29_22h49.26.058,Simcolourproject_2stim_asymm_v5,2020.2.10,MacIntel,60,61025ae37ef11b136ea224fe,,,,,,,,,842,112.5078125,24.66015625,1,0,0,response1disk,,6,23.04296875,4.52734375,1,0,0,rectangle,23.04296875,4.52734375,1,0,0,23.04296875,4.52734375,1,0,0,0,102,102,37,1,,,,,,,,
,,,,,,,,,,,,,FF,,,,,,,,0.9336,,,,,,,,,,,,,,,,,,,,,,60fe160ed067fe6ac793b5cc,61036888cd475cdc97453bb3,2021-07-29_22h49.26.058,Simcolourproject_2stim_asymm_v5,2020.2.10,MacIntel,60,61025ae37ef11b136ea224fe,,,,,,,,,2279,42.3046875,78.23046875,1,0,0,response1disk,,7,10.11328125,16.13671875,1,0,0,rectangle,10.11328125,16.13671875,1,0,0,10.11328125,16.13671875,1,0,0,0,103,103,23,1,,,,,,,,
,,,,,,,,,,,,,FF,,,,,,,,0.7656,,,,,,,,,,,,,,,,,,,,,,60fe160ed067fe6ac793b5cc,61036888cd475cdc97453bb3,2021-07-29_22h49.26.058,Simcolourproject_2stim_asymm_v5,2020.2.10,MacIntel,60,61025ae37ef11b136ea224fe,,,,,,,,,2953,-35.4453125,-91.5234375,1,0,0,response5disk,,3,-2.1328125,-6.5234375,1,0,0,rectangle,-2.1328125,-6.5234375,1,0,0,-2.1328125,-6.5234375,1,0,0,0,104,104,40,1,,,,,,,,
,,,,,,,,,,,,,FF,,,,,,,,0.5025,,,,,,,,,,,,,,,,,,,,,,60fe160ed067fe6ac793b5cc,61036888cd475cdc97453bb3,2021-07-29_22h49.26.058,Simcolourproject_2stim_asymm_v5,2020.2.10,MacIntel,60,61025ae37ef11b136ea224fe,,,,,,,,,3196,-46.98046875,-79.8984375,1,0,0,response5disk,,3,-11.7734375,-4.9140625,1,0,0,rectangle,-11.7734375,-4.9140625,1,0,0,-11.7734375,-4.9140625,1,0,0,0,105,105,86,1,,,,,,,,
,,,,,,,,,,,,,FF,,,,,,,,0.6837,,,,,,,,,,,,,,,,,,,,,,60fe160ed067fe6ac793b5cc,61036888cd475cdc97453bb3,2021-07-29_22h49.26.058,Simcolourproject_2stim_asymm_v5,2020.2.10,MacIntel,60,61025ae37ef11b136ea224fe,,,,,,,,,1990,85.3984375,41.90234375,1,0,0,response1disk,,6,26.80859375,17.734375,1,0,0,rectangle,26.80859375,17.734375,1,0,0,26.80859375,17.734375,1,0,0,0,106,106,116,1,,,,,,,,
,,,,,,,,,,,,,FF,,,,,,,,0.7493,,,,,,,,,,,,,,,,,,,,,,60fe160ed067fe6ac793b5cc,61036888cd475cdc97453bb3,2021-07-29_22h49.26.058,Simcolourproject_2stim_asymm_v5,2020.2.10,MacIntel,60,61025ae37ef11b136ea224fe,,,,,,,,,3736,101.9179688,-32.6328125,1,0,0,response3disk,,5,10.12109375,7.12109375,1,0,0,rectangle,10.12109375,7.12109375,1,0,0,10.12109375,7.12109375,1,0,0,0,107,107,159,1,,,,,,,,
,,,,,,,,,,,,,FF,,,,,,,,0.6838,,,,,,,,,,,,,,,,,,,,,,60fe160ed067fe6ac793b5cc,61036888cd475cdc97453bb3,2021-07-29_22h49.26.058,Simcolourproject_2stim_asymm_v5,2020.2.10,MacIntel,60,61025ae37ef11b136ea224fe,,,,,,,,,3900,39.2109375,-60.90625,1,0,0,response3disk,,4,1.6328125,-2.17578125,1,0,0,rectangle,1.6328125,-2.17578125,1,0,0,1.6328125,-2.17578125,1,0,0,0,108,108,103,1,,,,,,,,
,,,,,,,,,,,,,FF,,,,,,,,0.6351,,,,,,,,,,,,,,,,,,,,,,60fe160ed067fe6ac793b5cc,61036888cd475cdc97453bb3,2021-07-29_22h49.26.058,Simcolourproject_2stim_asymm_v5,2020.2.10,MacIntel,60,61025ae37ef11b136ea224fe,,,,,,,,,2516,51.90234375,107.1640625,1,0,0,response1disk,,7,3.01171875,4.65625,1,0,0,rectangle,68.9453125,-45.5390625,1,0,0,6.671875,9.875,1,0,0,0,109,109,135,1,,response3disk_3,TRUE,5,5,"[319,110,275,147,302,61,120,283,213,288,126,250,294,177,273,135,232,173,258,223]",1.7836,rectangle
,,,,,,,,,,,,,FF,,,,,,,,0.9161,,,,,,,,,,,,,,,,,,,,,,60fe160ed067fe6ac793b5cc,61036888cd475cdc97453bb3,2021-07-29_22h49.26.058,Simcolourproject_2stim_asymm_v5,2020.2.10,MacIntel,60,61025ae37ef11b136ea224fe,,,,,,,,,4146,-89.8671875,-61.16015625,1,0,0,response5disk,,2,-12.390625,0.20703125,1,0,0,rectangle,-12.390625,0.20703125,1,0,0,-12.390625,0.20703125,1,0,0,0,110,110,132,1,,,,,,,,
,,,,,,,,,,,,,FF,,,,,,,,1.301,,,,,,,,,,,,,,,,,,,,,,60fe160ed067fe6ac793b5cc,61036888cd475cdc97453bb3,2021-07-29_22h49.26.058,Simcolourproject_2stim_asymm_v5,2020.2.10,MacIntel,60,61025ae37ef11b136ea224fe,,,,,,,,,1587,68.46875,89.2109375,1,0,0,response1disk,,7,16.1953125,11.171875,1,0,0,rectangle,16.1953125,11.171875,1,0,0,16.1953125,11.171875,1,0,0,0,111,111,46,1,,,,,,,,
,,,,,,,,,,,,,FF,,,,,,,,0.6829,,,,,,,,,,,,,,,,,,,,,,60fe160ed067fe6ac793b5cc,61036888cd475cdc97453bb3,2021-07-29_22h49.26.058,Simcolourproject_2stim_asymm_v5,2020.2.10,MacIntel,60,61025ae37ef11b136ea224fe,,,,,,,,,3737,47.25390625,-99.515625,1,0,0,response3disk,,4,13.125,4.18359375,1,0,0,rectangle,13.125,4.18359375,1,0,0,13.125,4.18359375,1,0,0,0,112,112,120,1,,,,,,,,
,,,,,,,,,,,,,FF,,,,,,,,0.7162,,,,,,,,,,,,,,,,,,,,,,60fe160ed067fe6ac793b5cc,61036888cd475cdc97453bb3,2021-07-29_22h49.26.058,Simcolourproject_2stim_asymm_v5,2020.2.10,MacIntel,60,61025ae37ef11b136ea224fe,,,,,,,,,572,95.61328125,44.71875,1,0,0,response1disk,,6,-7.625,-1.6484375,1,0,0,rectangle,-7.625,-1.6484375,1,0,0,-7.625,-1.6484375,1,0,0,0,113,113,136,1,,,,,,,,
,,,,,,,,,,,,,FF,,,,,,,,0.7173,,,,,,,,,,,,,,,,,,,,,,60fe160ed067fe6ac793b5cc,61036888cd475cdc97453bb3,2021-07-29_22h49.26.058,Simcolourproject_2stim_asymm_v5,2020.2.10,MacIntel,60,61025ae37ef11b136ea224fe,,,,,,,,,3624,-95.78125,-52.85546875,1,0,0,response5disk,,2,-21.59375,-5.640625,1,0,0,rectangle,-21.59375,-5.640625,1,0,0,-21.59375,-5.640625,1,0,0,0,114,114,134,1,,,,,,,,
,,,,,,,,,,,,,FF,,,,,,,,0.6002,,,,,,,,,,,,,,,,,,,,,,60fe160ed067fe6ac793b5cc,61036888cd475cdc97453bb3,2021-07-29_22h49.26.058,Simcolourproject_2stim_asymm_v5,2020.2.10,MacIntel,60,61025ae37ef11b136ea224fe,,,,,,,,,2704,63.73046875,-43.0703125,1,0,0,response3disk,,5,-8.03515625,6.0703125,1,0,0,rectangle,-8.03515625,6.0703125,1,0,0,-8.03515625,6.0703125,1,0,0,0,115,115,83,1,,,,,,,,
,,,,,,,,,,,,,FF,,,,,,,,0.617,,,,,,,,,,,,,,,,,,,,,,60fe160ed067fe6ac793b5cc,61036888cd475cdc97453bb3,2021-07-29_22h49.26.058,Simcolourproject_2stim_asymm_v5,2020.2.10,MacIntel,60,61025ae37ef11b136ea224fe,,,,,,,,,4231,86.50390625,51.16796875,1,0,0,response1disk,,6,4.94140625,4.6328125,1,0,0,rectangle,4.94140625,4.6328125,1,0,0,4.94140625,4.6328125,1,0,0,0,116,116,0,1,,,,,,,,
,,,,,,,,,,,,,FF,,,,,,,,0.95,,,,,,,,,,,,,,,,,,,,,,60fe160ed067fe6ac793b5cc,61036888cd475cdc97453bb3,2021-07-29_22h49.26.058,Simcolourproject_2stim_asymm_v5,2020.2.10,MacIntel,60,61025ae37ef11b136ea224fe,,,,,,,,,782,99.7265625,37.57421875,1,0,0,response1disk,,6,5.50390625,8.890625,1,0,0,rectangle,5.50390625,8.890625,1,0,0,5.50390625,8.890625,1,0,0,0,117,117,47,1,,,,,,,,
,,,,,,,,,,,,,FF,,,,,,,,0.8841,,,,,,,,,,,,,,,,,,,,,,60fe160ed067fe6ac793b5cc,61036888cd475cdc97453bb3,2021-07-29_22h49.26.058,Simcolourproject_2stim_asymm_v5,2020.2.10,MacIntel,60,61025ae37ef11b136ea224fe,,,,,,,,,1228,-42.3046875,-102.53125,1,0,0,response5disk,,3,-6.6953125,-0.8671875,1,0,0,rectangle,-6.6953125,-0.8671875,1,0,0,-6.6953125,-0.8671875,1,0,0,0,118,118,143,1,,,,,,,,
,,,,,,,,,,,,,FF,,,,,,,,0.6487,,,,,,,,,,,,,,,,,,,,,,60fe160ed067fe6ac793b5cc,61036888cd475cdc97453bb3,2021-07-29_22h49.26.058,Simcolourproject_2stim_asymm_v5,2020.2.10,MacIntel,60,61025ae37ef11b136ea224fe,,,,,,,,,3133,58.65625,84.42578125,1,0,0,response1disk,,7,0.296875,-2.28515625,1,0,0,rectangle,-87.96484375,-55.90234375,1,0,0,-0.65234375,-4.33203125,1,0,0,0,119,119,53,1,,response5disk_3,TRUE,2,2,"[319,110,275,147,302,61,120,283,213,288,126,250,294,177,273,135,232,173,258,223]",1.7516,rectangle
,,,,,,,,,,,,,FF,,,,,,,,0.8992,,,,,,,,,,,,,,,,,,,,,,60fe160ed067fe6ac793b5cc,61036888cd475cdc97453bb3,2021-07-29_22h49.26.058,Simcolourproject_2stim_asymm_v5,2020.2.10,MacIntel,60,61025ae37ef11b136ea224fe,,,,,,,,,1129,54.3359375,73.65234375,1,0,0,response1disk,,7,11.7421875,-0.01171875,1,0,0,rectangle,11.7421875,-0.01171875,1,0,0,11.7421875,-0.01171875,1,0,0,0,120,120,146,1,,,,,,,,
,,,,,,,,,,,,,FF,,,,,,,,0.9659,,,,,,,,,,,,,,,,,,,,,,60fe160ed067fe6ac793b5cc,61036888cd475cdc97453bb3,2021-07-29_22h49.26.058,Simcolourproject_2stim_asymm_v5,2020.2.10,MacIntel,60,61025ae37ef11b136ea224fe,,,,,,,,,3483,81.359375,30.82421875,1,0,0,response1disk,,6,6.55078125,6.5078125,1,0,0,rectangle,6.55078125,6.5078125,1,0,0,6.55078125,6.5078125,1,0,0,0,121,121,69,1,,,,,,,,
,,,,,,,,,,,,,FF,,,,,,,,0.6836,,,,,,,,,,,,,,,,,,,,,,60fe160ed067fe6ac793b5cc,61036888cd475cdc97453bb3,2021-07-29_22h49.26.058,Simcolourproject_2stim_asymm_v5,2020.2.10,MacIntel,60,61025ae37ef11b136ea224fe,,,,,,,,,1208,30.671875,79.80078125,1,0,0,response1disk,,7,-10.61328125,-0.21875,1,0,0,rectangle,-10.61328125,-0.21875,1,0,0,-10.61328125,-0.21875,1,0,0,0,122,122,114,1,,,,,,,,
,,,,,,,,,,,,,FF,,,,,,,,0.6156,,,,,,,,,,,,,,,,,,,,,,60fe160ed067fe6ac793b5cc,61036888cd475cdc97453bb3,2021-07-29_22h49.26.058,Simcolourproject_2stim_asymm_v5,2020.2.10,MacIntel,60,61025ae37ef11b136ea224fe,,,,,,,,,2797,72.765625,-52.1015625,1,0,0,response3disk,,5,13.265625,-1.828125,1,0,0,rectangle,13.265625,-1.828125,1,0,0,13.265625,-1.828125,1,0,0,0,123,123,129,1,,,,,,,,
,,,,,,,,,,,,,FF,,,,,,,,0.8179,,,,,,,,,,,,,,,,,,,,,,60fe160ed067fe6ac793b5cc,61036888cd475cdc97453bb3,2021-07-29_22h49.26.058,Simcolourproject_2stim_asymm_v5,2020.2.10,MacIntel,60,61025ae37ef11b136ea224fe,,,,,,,,,383,81.46875,-39.3671875,1,0,0,response3disk,,5,22.84765625,0.19921875,1,0,0,rectangle,22.84765625,0.19921875,1,0,0,22.84765625,0.19921875,1,0,0,0,124,124,142,1,,,,,,,,
,,,,,,,,,,,,,FF,,,,,,,,0.684,,,,,,,,,,,,,,,,,,,,,,60fe160ed067fe6ac793b5cc,61036888cd475cdc97453bb3,2021-07-29_22h49.26.058,Simcolourproject_2stim_asymm_v5,2020.2.10,MacIntel,60,61025ae37ef11b136ea224fe,,,,,,,,,1904,35.9296875,-82.12109375,1,0,0,response3disk,,4,9.14453125,9.49609375,1,0,0,rectangle,-78.9765625,-33.08984375,1,0,0,-2.59765625,-2.65625,1,0,0,0,125,125,4,1,,response5disk_3,TRUE,2,2,"[319,110,275,147,302,61,120,283,213,288,126,250,294,177,273,135,232,173,258,223]",1.5324,rectangle
,,,,,,,,,,,,,FF,,,,,,,,0.7339,,,,,,,,,,,,,,,,,,,,,,60fe160ed067fe6ac793b5cc,61036888cd475cdc97453bb3,2021-07-29_22h49.26.058,Simcolourproject_2stim_asymm_v5,2020.2.10,MacIntel,60,61025ae37ef11b136ea224fe,,,,,,,,,3906,-37.015625,93.31640625,1,0,0,response7disk,,0,-14.59765625,11.30859375,1,0,0,rectangle,-14.59765625,11.30859375,1,0,0,-14.59765625,11.30859375,1,0,0,0,126,126,101,1,,,,,,,,
,,,,,,,,,,,,,FF,,,,,,,,0.7347,,,,,,,,,,,,,,,,,,,,,,60fe160ed067fe6ac793b5cc,61036888cd475cdc97453bb3,2021-07-29_22h49.26.058,Simcolourproject_2stim_asymm_v5,2020.2.10,MacIntel,60,61025ae37ef11b136ea224fe,,,,,,,,,3385,-84.58203125,-41.03125,1,0,0,response5disk,,2,6.3359375,-9.93359375,1,0,0,rectangle,6.3359375,-9.93359375,1,0,0,6.3359375,-9.93359375,1,0,0,0,127,127,35,1,,,,,,,,
,,,,,,,,,,,,,FF,,,,,,,,0.751,,,,,,,,,,,,,,,,,,,,,,60fe160ed067fe6ac793b5cc,61036888cd475cdc97453bb3,2021-07-29_22h49.26.058,Simcolourproject_2stim_asymm_v5,2020.2.10,MacIntel,60,61025ae37ef11b136ea224fe,,,,,,,,,3903,-28.828125,-90.38671875,1,0,0,response5disk,,3,10.65625,0.87109375,1,0,0,rectangle,10.65625,0.87109375,1,0,0,10.65625,0.87109375,1,0,0,0,128,128,10,1,,,,,,,,
,,,,,,,,,,,,,FF,,,,,,,,0.7332,,,,,,,,,,,,,,,,,,,,,,60fe160ed067fe6ac793b5cc,61036888cd475cdc97453bb3,2021-07-29_22h49.26.058,Simcolourproject_2stim_asymm_v5,2020.2.10,MacIntel,60,61025ae37ef11b136ea224fe,,,,,,,,,276,-78.12109375,36.40625,1,0,0,response7disk,,1,-13.28125,7.234375,1,0,0,rectangle,-13.28125,7.234375,1,0,0,-13.28125,7.234375,1,0,0,0,129,129,38,1,,,,,,,,
,,,,,,,,,,,,,FF,,,,,,,,0.7836,,,,,,,,,,,,,,,,,,,,,,60fe160ed067fe6ac793b5cc,61036888cd475cdc97453bb3,2021-07-29_22h49.26.058,Simcolourproject_2stim_asymm_v5,2020.2.10,MacIntel,60,61025ae37ef11b136ea224fe,,,,,,,,,2375,51.46484375,-81.359375,1,0,0,response3disk,,4,10.29296875,-5.9375,1,0,0,rectangle,10.29296875,-5.9375,1,0,0,10.29296875,-5.9375,1,0,0,0,130,130,91,1,,,,,,,,
,,,,,,,,,,,,,FF,,,,,,,,0.7838,,,,,,,,,,,,,,,,,,,,,,60fe160ed067fe6ac793b5cc,61036888cd475cdc97453bb3,2021-07-29_22h49.26.058,Simcolourproject_2stim_asymm_v5,2020.2.10,MacIntel,60,61025ae37ef11b136ea224fe,,,,,,,,,2823,-56.96875,-95.12109375,1,0,0,response5disk,,3,-2.609375,-4.03515625,1,0,0,rectangle,-2.609375,-4.03515625,1,0,0,-2.609375,-4.03515625,1,0,0,0,131,131,3,1,,,,,,,,
,,,,,,,,,,,,,FF,,,,,,,,0.6832,,,,,,,,,,,,,,,,,,,,,,60fe160ed067fe6ac793b5cc,61036888cd475cdc97453bb3,2021-07-29_22h49.26.058,Simcolourproject_2stim_asymm_v5,2020.2.10,MacIntel,60,61025ae37ef11b136ea224fe,,,,,,,,,3101,-43.3515625,-82.44921875,1,0,0,response5disk,,3,3.01953125,-4,1,0,0,rectangle,3.01953125,-4,1,0,0,3.01953125,-4,1,0,0,0,132,132,130,1,,,,,,,,
,,,,,,,,,,,,,FF,,,,,,,,0.667,,,,,,,,,,,,,,,,,,,,,,60fe160ed067fe6ac793b5cc,61036888cd475cdc97453bb3,2021-07-29_22h49.26.058,Simcolourproject_2stim_asymm_v5,2020.2.10,MacIntel,60,61025ae37ef11b136ea224fe,,,,,,,,,449,67.0234375,43.78515625,1,0,0,response1disk,,6,11.44140625,0.859375,1,0,0,rectangle,11.44140625,0.859375,1,0,0,11.44140625,0.859375,1,0,0,0,133,133,25,1,,,,,,,,
,,,,,,,,,,,,,FF,,,,,,,,0.6173,,,,,,,,,,,,,,,,,,,,,,60fe160ed067fe6ac793b5cc,61036888cd475cdc97453bb3,2021-07-29_22h49.26.058,Simcolourproject_2stim_asymm_v5,2020.2.10,MacIntel,60,61025ae37ef11b136ea224fe,,,,,,,,,3812,-52.640625,-72.171875,1,0,0,response5disk,,3,-15.05078125,-5.84375,1,0,0,rectangle,-93.56640625,67.51953125,1,0,0,-18.8984375,17.5078125,1,0,0,0,134,134,147,1,,response7disk_3,TRUE,1,1,"[319,110,275,147,302,61,120,283,213,288,126,250,294,177,273,135,232,173,258,223]",1.4841,rectangle
,,,,,,,,,,,,,FF,,,,,,,,0.9493,,,,,,,,,,,,,,,,,,,,,,60fe160ed067fe6ac793b5cc,61036888cd475cdc97453bb3,2021-07-29_22h49.26.058,Simcolourproject_2stim_asymm_v5,2020.2.10,MacIntel,60,61025ae37ef11b136ea224fe,,,,,,,,,3836,-25.90234375,-90.203125,1,0,0,response5disk,,3,14.7421875,2.01171875,1,0,0,rectangle,14.7421875,2.01171875,1,0,0,14.7421875,2.01171875,1,0,0,0,135,135,29,1,,,,,,,,
,,,,,,,,,,,,,FF,,,,,,,,0.6693,,,,,,,,,,,,,,,,,,,,,,60fe160ed067fe6ac793b5cc,61036888cd475cdc97453bb3,2021-07-29_22h49.26.058,Simcolourproject_2stim_asymm_v5,2020.2.10,MacIntel,60,61025ae37ef11b136ea224fe,,,,,,,,,657,81.58984375,34.75390625,1,0,0,response1disk,,6,21.4921875,7.09765625,1,0,0,rectangle,21.4921875,7.09765625,1,0,0,21.4921875,7.09765625,1,0,0,0,136,136,41,1,,,,,,,,
,,,,,,,,,,,,,FF,,,,,,,,0.8502,,,,,,,,,,,,,,,,,,,,,,60fe160ed067fe6ac793b5cc,61036888cd475cdc97453bb3,2021-07-29_22h49.26.058,Simcolourproject_2stim_asymm_v5,2020.2.10,MacIntel,60,61025ae37ef11b136ea224fe,,,,,,,,,2093,-59.9453125,83.89453125,1,0,0,response7disk,,0,-11.1640625,-12.25,1,0,0,rectangle,-11.1640625,-12.25,1,0,0,-11.1640625,-12.25,1,0,0,0,137,137,126,1,,,,,,,,
,,,,,,,,,,,,,FF,,,,,,,,0.6987,,,,,,,,,,,,,,,,,,,,,,60fe160ed067fe6ac793b5cc,61036888cd475cdc97453bb3,2021-07-29_22h49.26.058,Simcolourproject_2stim_asymm_v5,2020.2.10,MacIntel,60,61025ae37ef11b136ea224fe,,,,,,,,,1916,-48.60546875,-109.5273438,1,0,0,response5disk,,3,-1.7265625,-5.62109375,1,0,0,rectangle,-1.7265625,-5.62109375,1,0,0,-1.7265625,-5.62109375,1,0,0,0,138,138,34,1,,,,,,,,
,,,,,,,,,,,,,FF,,,,,,,,0.7655,,,,,,,,,,,,,,,,,,,,,,60fe160ed067fe6ac793b5cc,61036888cd475cdc97453bb3,2021-07-29_22h49.26.058,Simcolourproject_2stim_asymm_v5,2020.2.10,MacIntel,60,61025ae37ef11b136ea224fe,,,,,,,,,4108,40.82421875,-88.75,1,0,0,response3disk,,4,13.3671875,5.453125,1,0,0,rectangle,13.3671875,5.453125,1,0,0,13.3671875,5.453125,1,0,0,0,139,139,153,1,,,,,,,,
,,,,,,,,,,,,,FF,,,,,,,,0.7016,,,,,,,,,,,,,,,,,,,,,,60fe160ed067fe6ac793b5cc,61036888cd475cdc97453bb3,2021-07-29_22h49.26.058,Simcolourproject_2stim_asymm_v5,2020.2.10,MacIntel,60,61025ae37ef11b136ea224fe,,,,,,,,,3579,90.0390625,50.0546875,1,0,0,response1disk,,6,21.8671875,16.09375,1,0,0,rectangle,21.8671875,16.09375,1,0,0,21.8671875,16.09375,1,0,0,0,140,140,58,1,,,,,,,,
,,,,,,,,,,,,,FF,,,,,,,,0.6861,,,,,,,,,,,,,,,,,,,,,,60fe160ed067fe6ac793b5cc,61036888cd475cdc97453bb3,2021-07-29_22h49.26.058,Simcolourproject_2stim_asymm_v5,2020.2.10,MacIntel,60,61025ae37ef11b136ea224fe,,,,,,,,,3015,24.58984375,60.70703125,1,0,0,response1disk,,7,-9.703125,4.8828125,1,0,0,rectangle,-9.703125,4.8828125,1,0,0,-9.703125,4.8828125,1,0,0,0,141,141,93,1,,,,,,,,
,,,,,,,,,,,,,FF,,,,,,,,0.9827,,,,,,,,,,,,,,,,,,,,,,60fe160ed067fe6ac793b5cc,61036888cd475cdc97453bb3,2021-07-29_22h49.26.058,Simcolourproject_2stim_asymm_v5,2020.2.10,MacIntel,60,61025ae37ef11b136ea224fe,,,,,,,,,289,58.01171875,-101.2773438,1,0,0,response3disk,,4,1.86328125,-3.72265625,1,0,0,rectangle,1.86328125,-3.72265625,1,0,0,1.86328125,-3.72265625,1,0,0,0,142,142,73,1,,,,,,,,
,,,,,,,,,,,,,FF,,,,,,,,0.7062,,,,,,,,,,,,,,,,,,,,,,60fe160ed067fe6ac793b5cc,61036888cd475cdc97453bb3,2021-07-29_22h49.26.058,Simcolourproject_2stim_asymm_v5,2020.2.10,MacIntel,60,61025ae37ef11b136ea224fe,,,,,,,,,4327,30.578125,78.33203125,1,0,0,response1disk,,7,-0.80078125,-4.94140625,1,0,0,rectangle,-0.80078125,-4.94140625,1,0,0,-0.80078125,-4.94140625,1,0,0,0,143,143,67,1,,,,,,,,
,,,,,,,,,,,,,FF,,,,,,,,1.0509,,,,,,,,,,,,,,,,,,,,,,60fe160ed067fe6ac793b5cc,61036888cd475cdc97453bb3,2021-07-29_22h49.26.058,Simcolourproject_2stim_asymm_v5,2020.2.10,MacIntel,60,61025ae37ef11b136ea224fe,,,,,,,,,401,115.9648438,-56.69140625,1,0,0,response3disk,,5,-8.421875,13.86328125,1,0,0,rectangle,-8.421875,13.86328125,1,0,0,-8.421875,13.86328125,1,0,0,0,144,144,15,1,,,,,,,,
,,,,,,,,,,,,,FF,,,,,,,,0.7171,,,,,,,,,,,,,,,,,,,,,,60fe160ed067fe6ac793b5cc,61036888cd475cdc97453bb3,2021-07-29_22h49.26.058,Simcolourproject_2stim_asymm_v5,2020.2.10,MacIntel,60,61025ae37ef11b136ea224fe,,,,,,,,,395,76.69921875,-40.72265625,1,0,0,response3disk,,5,6.12109375,-2.78125,1,0,0,rectangle,6.12109375,-2.78125,1,0,0,6.12109375,-2.78125,1,0,0,0,145,145,113,1,,,,,,,,
,,,,,,,,,,,,,FF,,,,,,,,0.7165,,,,,,,,,,,,,,,,,,,,,,60fe160ed067fe6ac793b5cc,61036888cd475cdc97453bb3,2021-07-29_22h49.26.058,Simcolourproject_2stim_asymm_v5,2020.2.10,MacIntel,60,61025ae37ef11b136ea224fe,,,,,,,,,899,38.765625,-96.8046875,1,0,0,response3disk,,4,-5.94921875,-4.96484375,1,0,0,rectangle,-68.6796875,31.09765625,1,0,0,-6.79296875,-1.47265625,1,0,0,0,146,146,74,1,,response7disk_3,TRUE,1,1,"[319,110,275,147,302,61,120,283,213,288,126,250,294,177,273,135,232,173,258,223]",1.1498,rectangle
,,,,,,,,,,,,,FF,,,,,,,,0.7998,,,,,,,,,,,,,,,,,,,,,,60fe160ed067fe6ac793b5cc,61036888cd475cdc97453bb3,2021-07-29_22h49.26.058,Simcolourproject_2stim_asymm_v5,2020.2.10,MacIntel,60,61025ae37ef11b136ea224fe,,,,,,,,,3848,-43.59765625,-78.25,1,0,0,response5disk,,3,-10.7890625,8.28125,1,0,0,rectangle,-10.7890625,8.28125,1,0,0,-10.7890625,8.28125,1,0,0,0,147,147,97,1,,,,,,,,
,,,,,,,,,,,,,FF,,,,,,,,0.6004,,,,,,,,,,,,,,,,,,,,,,60fe160ed067fe6ac793b5cc,61036888cd475cdc97453bb3,2021-07-29_22h49.26.058,Simcolourproject_2stim_asymm_v5,2020.2.10,MacIntel,60,61025ae37ef11b136ea224fe,,,,,,,,,490,86.15234375,37.89453125,1,0,0,response1disk,,6,5.27734375,3.95703125,1,0,0,rectangle,5.27734375,3.95703125,1,0,0,5.27734375,3.95703125,1,0,0,0,148,148,112,1,,,,,,,,
,,,,,,,,,,,,,FF,,,,,,,,0.7165,,,,,,,,,,,,,,,,,,,,,,60fe160ed067fe6ac793b5cc,61036888cd475cdc97453bb3,2021-07-29_22h49.26.058,Simcolourproject_2stim_asymm_v5,2020.2.10,MacIntel,60,61025ae37ef11b136ea224fe,,,,,,,,,3259,74.56640625,-58.9609375,1,0,0,response3disk,,5,3.984375,5.2890625,1,0,0,rectangle,3.984375,5.2890625,1,0,0,3.984375,5.2890625,1,0,0,0,149,149,107,1,,,,,,,,
,,,,,,,,,,,,,FF,,,,,,,,0.7333,,,,,,,,,,,,,,,,,,,,,,60fe160ed067fe6ac793b5cc,61036888cd475cdc97453bb3,2021-07-29_22h49.26.058,Simcolourproject_2stim_asymm_v5,2020.2.10,MacIntel,60,61025ae37ef11b136ea224fe,,,,,,,,,4005,-50.1640625,-89.88671875,1,0,0,response5disk,,3,-13.07421875,-7.84375,1,0,0,rectangle,-13.07421875,-7.84375,1,0,0,-13.07421875,-7.84375,1,0,0,0,150,150,109,1,,,,,,,,
,,,,,,,,,,,,,FF,,,,,,,,0.7842,,,,,,,,,,,,,,,,,,,,,,60fe160ed067fe6ac793b5cc,61036888cd475cdc97453bb3,2021-07-29_22h49.26.058,Simcolourproject_2stim_asymm_v5,2020.2.10,MacIntel,60,61025ae37ef11b136ea224fe,,,,,,,,,747,85.51171875,70.8828125,1,0,0,response1disk,,6,7.234375,1.78125,1,0,0,rectangle,7.234375,1.78125,1,0,0,7.234375,1.78125,1,0,0,0,151,151,131,1,,,,,,,,
,,,,,,,,,,,,,FF,,,,,,,,0.899,,,,,,,,,,,,,,,,,,,,,,60fe160ed067fe6ac793b5cc,61036888cd475cdc97453bb3,2021-07-29_22h49.26.058,Simcolourproject_2stim_asymm_v5,2020.2.10,MacIntel,60,61025ae37ef11b136ea224fe,,,,,,,,,2125,51.3984375,97.796875,1,0,0,response1disk,,7,-15.83203125,-8.0703125,1,0,0,rectangle,-15.83203125,-8.0703125,1,0,0,-15.83203125,-8.0703125,1,0,0,0,152,152,102,1,,,,,,,,
,,,,,,,,,,,,,FF,,,,,,,,0.7344,,,,,,,,,,,,,,,,,,,,,,60fe160ed067fe6ac793b5cc,61036888cd475cdc97453bb3,2021-07-29_22h49.26.058,Simcolourproject_2stim_asymm_v5,2020.2.10,MacIntel,60,61025ae37ef11b136ea224fe,,,,,,,,,303,64.82421875,88.96875,1,0,0,response1disk,,7,8.35546875,-0.7109375,1,0,0,rectangle,8.35546875,-0.7109375,1,0,0,8.35546875,-0.7109375,1,0,0,0,153,153,11,1,,,,,,,,
,,,,,,,,,,,,,FF,,,,,,,,0.8499,,,,,,,,,,,,,,,,,,,,,,60fe160ed067fe6ac793b5cc,61036888cd475cdc97453bb3,2021-07-29_22h49.26.058,Simcolourproject_2stim_asymm_v5,2020.2.10,MacIntel,60,61025ae37ef11b136ea224fe,,,,,,,,,1860,71.82421875,33.49609375,1,0,0,response1disk,,6,9.26953125,-4.046875,1,0,0,rectangle,9.26953125,-4.046875,1,0,0,9.26953125,-4.046875,1,0,0,0,154,154,118,1,,,,,,,,
,,,,,,,,,,,,,FF,,,,,,,,0.6823,,,,,,,,,,,,,,,,,,,,,,60fe160ed067fe6ac793b5cc,61036888cd475cdc97453bb3,2021-07-29_22h49.26.058,Simcolourproject_2stim_asymm_v5,2020.2.10,MacIntel,60,61025ae37ef11b136ea224fe,,,,,,,,,824,-77.2421875,-47.81640625,1,0,0,response5disk,,2,-16.046875,-11.7734375,1,0,0,rectangle,-16.046875,-11.7734375,1,0,0,-16.046875,-11.7734375,1,0,0,0,155,155,81,1,,,,,,,,
,,,,,,,,,,,,,FF,,,,,,,,0.6496,,,,,,,,,,,,,,,,,,,,,,60fe160ed067fe6ac793b5cc,61036888cd475cdc97453bb3,2021-07-29_22h49.26.058,Simcolourproject_2stim_asymm_v5,2020.2.10,MacIntel,60,61025ae37ef11b136ea224fe,,,,,,,,,1324,66.67578125,51.6484375,1,0,0,response1disk,,6,-2.4453125,14.26953125,1,0,0,rectangle,-2.4453125,14.26953125,1,0,0,-2.4453125,14.26953125,1,0,0,0,156,156,106,1,,,,,,,,
,,,,,,,,,,,,,FF,,,,,,,,0.6056,,,,,,,,,,,,,,,,,,,,,,60fe160ed067fe6ac793b5cc,61036888cd475cdc97453bb3,2021-07-29_22h49.26.058,Simcolourproject_2stim_asymm_v5,2020.2.10,MacIntel,60,61025ae37ef11b136ea224fe,,,,,,,,,913,61.859375,-31.54296875,1,0,0,response3disk,,5,21.4140625,0.06640625,1,0,0,rectangle,21.4140625,0.06640625,1,0,0,21.4140625,0.06640625,1,0,0,0,157,157,141,1,,,,,,,,
,,,,,,,,,,,,,FF,,,,,,,,0.7489,,,,,,,,,,,,,,,,,,,,,,60fe160ed067fe6ac793b5cc,61036888cd475cdc97453bb3,2021-07-29_22h49.26.058,Simcolourproject_2stim_asymm_v5,2020.2.10,MacIntel,60,61025ae37ef11b136ea224fe,,,,,,,,,1682,-96.2890625,39.2734375,1,0,0,response7disk,,1,-10.484375,11.4921875,1,0,0,rectangle,-10.484375,11.4921875,1,0,0,-10.484375,11.4921875,1,0,0,0,158,158,43,1,,,,,,,,
,,,,,,,,,,,,,FF,,,,,,,,0.7321,,,,,,,,,,,,,,,,,,,,,,60fe160ed067fe6ac793b5cc,61036888cd475cdc97453bb3,2021-07-29_22h49.26.058,Simcolourproject_2stim_asymm_v5,2020.2.10,MacIntel,60,61025ae37ef11b136ea224fe,,,,,,,,,500,83.8828125,54.54296875,1,0,0,response1disk,,6,-7.3515625,-2.85546875,1,0,0,rectangle,-7.3515625,-2.85546875,1,0,0,-7.3515625,-2.85546875,1,0,0,0,159,159,28,1,,,,,,,,
,,,,,,,,,,,,,FF,,,,,,,,0.8164,,,,,,,,,,,,,,,,,,,,,,60fe160ed067fe6ac793b5cc,61036888cd475cdc97453bb3,2021-07-29_22h49.26.058,Simcolourproject_2stim_asymm_v5,2020.2.10,MacIntel,60,61025ae37ef11b136ea224fe,,,,,,,,,3161,-48.33203125,-65.82421875,1,0,0,response5disk,,3,0.6171875,15.75,1,0,0,rectangle,0.6171875,15.75,1,0,0,0.6171875,15.75,1,0,0,1,0,160,92,1,,,,,,,,
,,,,,,,,,,,,,FF,,,,,,,,0.6321,,,,,,,,,,,,,,,,,,,,,,60fe160ed067fe6ac793b5cc,61036888cd475cdc97453bb3,2021-07-29_22h49.26.058,Simcolourproject_2stim_asymm_v5,2020.2.10,MacIntel,60,61025ae37ef11b136ea224fe,,,,,,,,,3134,114.109375,47.19140625,1,0,0,response1disk,,6,-23.984375,-11.8125,1,0,0,rectangle,-23.984375,-11.8125,1,0,0,-23.984375,-11.8125,1,0,0,1,1,161,34,1,,,,,,,,
,,,,,,,,,,,,,FF,,,,,,,,0.6676,,,,,,,,,,,,,,,,,,,,,,60fe160ed067fe6ac793b5cc,61036888cd475cdc97453bb3,2021-07-29_22h49.26.058,Simcolourproject_2stim_asymm_v5,2020.2.10,MacIntel,60,61025ae37ef11b136ea224fe,,,,,,,,,3564,74.00390625,-47.125,1,0,0,response3disk,,5,8.69921875,-5.515625,1,0,0,rectangle,8.69921875,-5.515625,1,0,0,8.69921875,-5.515625,1,0,0,1,2,162,85,1,,,,,,,,
,,,,,,,,,,,,,FF,,,,,,,,0.636,,,,,,,,,,,,,,,,,,,,,,60fe160ed067fe6ac793b5cc,61036888cd475cdc97453bb3,2021-07-29_22h49.26.058,Simcolourproject_2stim_asymm_v5,2020.2.10,MacIntel,60,61025ae37ef11b136ea224fe,,,,,,,,,1132,-43.09375,-78.5234375,1,0,0,response5disk,,3,-10.0703125,-2.671875,1,0,0,rectangle,-10.0703125,-2.671875,1,0,0,-10.0703125,-2.671875,1,0,0,1,3,163,8,1,,,,,,,,
,,,,,,,,,,,,,FF,,,,,,,,0.617,,,,,,,,,,,,,,,,,,,,,,60fe160ed067fe6ac793b5cc,61036888cd475cdc97453bb3,2021-07-29_22h49.26.058,Simcolourproject_2stim_asymm_v5,2020.2.10,MacIntel,60,61025ae37ef11b136ea224fe,,,,,,,,,3458,53.01171875,79.24609375,1,0,0,response1disk,,7,-2.984375,0.1953125,1,0,0,rectangle,-2.984375,0.1953125,1,0,0,-2.984375,0.1953125,1,0,0,1,4,164,46,1,,,,,,,,
,,,,,,,,,,,,,FF,,,,,,,,0.615,,,,,,,,,,,,,,,,,,,,,,60fe160ed067fe6ac793b5cc,61036888cd475cdc97453bb3,2021-07-29_22h49.26.058,Simcolourproject_2stim_asymm_v5,2020.2.10,MacIntel,60,61025ae37ef11b136ea224fe,,,,,,,,,2080,65.44921875,39.1015625,1,0,0,response1disk,,6,12.640625,14.921875,1,0,0,rectangle,12.640625,14.921875,1,0,0,12.640625,14.921875,1,0,0,1,5,165,107,1,,,,,,,,
,,,,,,,,,,,,,FF,,,,,,,,0.633,,,,,,,,,,,,,,,,,,,,,,60fe160ed067fe6ac793b5cc,61036888cd475cdc97453bb3,2021-07-29_22h49.26.058,Simcolourproject_2stim_asymm_v5,2020.2.10,MacIntel,60,61025ae37ef11b136ea224fe,,,,,,,,,1043,80.51953125,-45.77734375,1,0,0,response3disk,,5,3.99609375,7.33984375,1,0,0,rectangle,3.99609375,7.33984375,1,0,0,3.99609375,7.33984375,1,0,0,1,6,166,68,1,,,,,,,,
,,,,,,,,,,,,,FF,,,,,,,,0.7157,,,,,,,,,,,,,,,,,,,,,,60fe160ed067fe6ac793b5cc,61036888cd475cdc97453bb3,2021-07-29_22h49.26.058,Simcolourproject_2stim_asymm_v5,2020.2.10,MacIntel,60,61025ae37ef11b136ea224fe,,,,,,,,,777,68.453125,-47.5546875,1,0,0,response3disk,,5,19.66796875,-4.5,1,0,0,rectangle,19.66796875,-4.5,1,0,0,19.66796875,-4.5,1,0,0,1,7,167,12,1,,,,,,,,
,,,,,,,,,,,,,FF,,,,,,,,0.5185,,,,,,,,,,,,,,,,,,,,,,60fe160ed067fe6ac793b5cc,61036888cd475cdc97453bb3,2021-07-29_22h49.26.058,Simcolourproject_2stim_asymm_v5,2020.2.10,MacIntel,60,61025ae37ef11b136ea224fe,,,,,,,,,3857,71.359375,-43.63671875,1,0,0,response3disk,,5,-7.046875,-3.05078125,1,0,0,rectangle,-7.046875,-3.05078125,1,0,0,-7.046875,-3.05078125,1,0,0,1,8,168,30,1,,,,,,,,
,,,,,,,,,,,,,FF,,,,,,,,0.7843,,,,,,,,,,,,,,,,,,,,,,60fe160ed067fe6ac793b5cc,61036888cd475cdc97453bb3,2021-07-29_22h49.26.058,Simcolourproject_2stim_asymm_v5,2020.2.10,MacIntel,60,61025ae37ef11b136ea224fe,,,,,,,,,3005,-43.61328125,-69.63671875,1,0,0,response5disk,,3,-21.2890625,-17.03125,1,0,0,rectangle,-21.2890625,-17.03125,1,0,0,-21.2890625,-17.03125,1,0,0,1,9,169,61,1,,,,,,,,
,,,,,,,,,,,,,FF,,,,,,,,1.0356,,,,,,,,,,,,,,,,,,,,,,60fe160ed067fe6ac793b5cc,61036888cd475cdc97453bb3,2021-07-29_22h49.26.058,Simcolourproject_2stim_asymm_v5,2020.2.10,MacIntel,60,61025ae37ef11b136ea224fe,,,,,,,,,2327,89.6328125,-64.84765625,1,0,0,response3disk,,5,4.4453125,3.23828125,1,0,0,rectangle,4.4453125,3.23828125,1,0,0,4.4453125,3.23828125,1,0,0,1,10,170,27,1,,,,,,,,
,,,,,,,,,,,,,FF,,,,,,,,0.6003,,,,,,,,,,,,,,,,,,,,,,60fe160ed067fe6ac793b5cc,61036888cd475cdc97453bb3,2021-07-29_22h49.26.058,Simcolourproject_2stim_asymm_v5,2020.2.10,MacIntel,60,61025ae37ef11b136ea224fe,,,,,,,,,2361,-76.4140625,-44.03125,1,0,0,response5disk,,2,-10.875,8.046875,1,0,0,rectangle,-10.875,8.046875,1,0,0,-10.875,8.046875,1,0,0,1,11,171,130,1,,,,,,,,
,,,,,,,,,,,,,FF,,,,,,,,0.5826,,,,,,,,,,,,,,,,,,,,,,60fe160ed067fe6ac793b5cc,61036888cd475cdc97453bb3,2021-07-29_22h49.26.058,Simcolourproject_2stim_asymm_v5,2020.2.10,MacIntel,60,61025ae37ef11b136ea224fe,,,,,,,,,488,92.80859375,36.90234375,1,0,0,response1disk,,6,6.85546875,4.890625,1,0,0,rectangle,-67.4765625,33.83984375,1,0,0,-6.3125,3.1875,1,0,0,1,12,172,135,1,,response7disk_3,TRUE,1,1,"[319,110,275,147,302,61,120,283,213,288,126,250,294,177,273,135,232,173,258,223]",1.2165,rectangle
,,,,,,,,,,,,,FF,,,,,,,,0.7021,,,,,,,,,,,,,,,,,,,,,,60fe160ed067fe6ac793b5cc,61036888cd475cdc97453bb3,2021-07-29_22h49.26.058,Simcolourproject_2stim_asymm_v5,2020.2.10,MacIntel,60,61025ae37ef11b136ea224fe,,,,,,,,,2948,-86.5,-54.7109375,1,0,0,response5disk,,2,-10.34765625,-8.03125,1,0,0,rectangle,-10.34765625,-8.03125,1,0,0,-10.34765625,-8.03125,1,0,0,1,13,173,39,1,,,,,,,,
,,,,,,,,,,,,,FF,,,,,,,,0.7172,,,,,,,,,,,,,,,,,,,,,,60fe160ed067fe6ac793b5cc,61036888cd475cdc97453bb3,2021-07-29_22h49.26.058,Simcolourproject_2stim_asymm_v5,2020.2.10,MacIntel,60,61025ae37ef11b136ea224fe,,,,,,,,,3144,-51.64453125,-97.6484375,1,0,0,response5disk,,3,6.56640625,-1.6171875,1,0,0,rectangle,6.56640625,-1.6171875,1,0,0,6.56640625,-1.6171875,1,0,0,1,14,174,45,1,,,,,,,,
,,,,,,,,,,,,,FF,,,,,,,,0.6186,,,,,,,,,,,,,,,,,,,,,,60fe160ed067fe6ac793b5cc,61036888cd475cdc97453bb3,2021-07-29_22h49.26.058,Simcolourproject_2stim_asymm_v5,2020.2.10,MacIntel,60,61025ae37ef11b136ea224fe,,,,,,,,,3902,-51.71875,-92.77734375,1,0,0,response5disk,,3,2.35546875,0.44140625,1,0,0,rectangle,2.35546875,0.44140625,1,0,0,2.35546875,0.44140625,1,0,0,1,15,175,150,1,,,,,,,,
,,,,,,,,,,,,,FF,,,,,,,,0.683,,,,,,,,,,,,,,,,,,,,,,60fe160ed067fe6ac793b5cc,61036888cd475cdc97453bb3,2021-07-29_22h49.26.058,Simcolourproject_2stim_asymm_v5,2020.2.10,MacIntel,60,61025ae37ef11b136ea224fe,,,,,,,,,1797,88.10546875,23.71875,1,0,0,response1disk,,6,14.1328125,-0.359375,1,0,0,rectangle,-79.13671875,-27.484375,1,0,0,-13.90234375,5.34765625,1,0,0,1,16,176,66,1,,response5disk_3,TRUE,2,2,"[319,110,275,147,302,61,120,283,213,288,126,250,294,177,273,135,232,173,258,223]",1.8673,rectangle
,,,,,,,,,,,,,FF,,,,,,,,0.7653,,,,,,,,,,,,,,,,,,,,,,60fe160ed067fe6ac793b5cc,61036888cd475cdc97453bb3,2021-07-29_22h49.26.058,Simcolourproject_2stim_asymm_v5,2020.2.10,MacIntel,60,61025ae37ef11b136ea224fe,,,,,,,,,2409,102.0078125,30.359375,1,0,0,response1disk,,6,11.50390625,4.12109375,1,0,0,rectangle,11.50390625,4.12109375,1,0,0,11.50390625,4.12109375,1,0,0,1,17,177,35,1,,,,,,,,
,,,,,,,,,,,,,FF,,,,,,,,0.6496,,,,,,,,,,,,,,,,,,,,,,60fe160ed067fe6ac793b5cc,61036888cd475cdc97453bb3,2021-07-29_22h49.26.058,Simcolourproject_2stim_asymm_v5,2020.2.10,MacIntel,60,61025ae37ef11b136ea224fe,,,,,,,,,1425,74.37109375,26.453125,1,0,0,response1disk,,6,12.859375,-3.34375,1,0,0,rectangle,12.859375,-3.34375,1,0,0,12.859375,-3.34375,1,0,0,1,18,178,3,1,,,,,,,,
,,,,,,,,,,,,,FF,,,,,,,,0.899,,,,,,,,,,,,,,,,,,,,,,60fe160ed067fe6ac793b5cc,61036888cd475cdc97453bb3,2021-07-29_22h49.26.058,Simcolourproject_2stim_asymm_v5,2020.2.10,MacIntel,60,61025ae37ef11b136ea224fe,,,,,,,,,2491,27.46484375,-73.7421875,1,0,0,response3disk,,4,9.64453125,-4.77734375,1,0,0,rectangle,9.64453125,-4.77734375,1,0,0,9.64453125,-4.77734375,1,0,0,1,19,179,147,1,,,,,,,,
,,,,,,,,,,,,,FF,,,,,,,,0.6831,,,,,,,,,,,,,,,,,,,,,,60fe160ed067fe6ac793b5cc,61036888cd475cdc97453bb3,2021-07-29_22h49.26.058,Simcolourproject_2stim_asymm_v5,2020.2.10,MacIntel,60,61025ae37ef11b136ea224fe,,,,,,,,,3019,97.33984375,-34.35546875,1,0,0,response3disk,,5,21.0546875,-1.90234375,1,0,0,rectangle,21.0546875,-1.90234375,1,0,0,21.0546875,-1.90234375,1,0,0,1,20,180,29,1,,,,,,,,
,,,,,,,,,,,,,FF,,,,,,,,0.9661,,,,,,,,,,,,,,,,,,,,,,60fe160ed067fe6ac793b5cc,61036888cd475cdc97453bb3,2021-07-29_22h49.26.058,Simcolourproject_2stim_asymm_v5,2020.2.10,MacIntel,60,61025ae37ef11b136ea224fe,,,,,,,,,3645,66.37109375,88.6875,1,0,0,response1disk,,7,-0.4609375,-10.1015625,1,0,0,rectangle,-0.4609375,-10.1015625,1,0,0,-0.4609375,-10.1015625,1,0,0,1,21,181,1,1,,,,,,,,
,,,,,,,,,,,,,FF,,,,,,,,0.5654,,,,,,,,,,,,,,,,,,,,,,60fe160ed067fe6ac793b5cc,61036888cd475cdc97453bb3,2021-07-29_22h49.26.058,Simcolourproject_2stim_asymm_v5,2020.2.10,MacIntel,60,61025ae37ef11b136ea224fe,,,,,,,,,2765,83.99609375,38.94921875,1,0,0,response1disk,,6,20.234375,6.4765625,1,0,0,rectangle,20.234375,6.4765625,1,0,0,20.234375,6.4765625,1,0,0,1,22,182,121,1,,,,,,,,
,,,,,,,,,,,,,FF,,,,,,,,0.6832,,,,,,,,,,,,,,,,,,,,,,60fe160ed067fe6ac793b5cc,61036888cd475cdc97453bb3,2021-07-29_22h49.26.058,Simcolourproject_2stim_asymm_v5,2020.2.10,MacIntel,60,61025ae37ef11b136ea224fe,,,,,,,,,849,80.265625,-56.99609375,1,0,0,response3disk,,5,8.4453125,-10.89453125,1,0,0,rectangle,8.4453125,-10.89453125,1,0,0,8.4453125,-10.89453125,1,0,0,1,23,183,17,1,,,,,,,,
,,,,,,,,,,,,,FF,,,,,,,,0.6668,,,,,,,,,,,,,,,,,,,,,,60fe160ed067fe6ac793b5cc,61036888cd475cdc97453bb3,2021-07-29_22h49.26.058,Simcolourproject_2stim_asymm_v5,2020.2.10,MacIntel,60,61025ae37ef11b136ea224fe,,,,,,,,,3020,60.29296875,-34.71484375,1,0,0,response3disk,,5,4.171875,-4.95703125,1,0,0,rectangle,4.171875,-4.95703125,1,0,0,4.171875,-4.95703125,1,0,0,1,24,184,15,1,,,,,,,,
,,,,,,,,,,,,,FF,,,,,,,,0.8662,,,,,,,,,,,,,,,,,,,,,,60fe160ed067fe6ac793b5cc,61036888cd475cdc97453bb3,2021-07-29_22h49.26.058,Simcolourproject_2stim_asymm_v5,2020.2.10,MacIntel,60,61025ae37ef11b136ea224fe,,,,,,,,,1286,38.9765625,-101.0195313,1,0,0,response3disk,,4,14.1171875,-3.296875,1,0,0,rectangle,14.1171875,-3.296875,1,0,0,14.1171875,-3.296875,1,0,0,1,25,185,56,1,,,,,,,,
,,,,,,,,,,,,,FF,,,,,,,,0.7004,,,,,,,,,,,,,,,,,,,,,,60fe160ed067fe6ac793b5cc,61036888cd475cdc97453bb3,2021-07-29_22h49.26.058,Simcolourproject_2stim_asymm_v5,2020.2.10,MacIntel,60,61025ae37ef11b136ea224fe,,,,,,,,,242,37.87109375,-55.7734375,1,0,0,response3disk,,4,13.09765625,1.296875,1,0,0,rectangle,13.09765625,1.296875,1,0,0,13.09765625,1.296875,1,0,0,1,26,186,81,1,,,,,,,,
,,,,,,,,,,,,,FF,,,,,,,,0.8169,,,,,,,,,,,,,,,,,,,,,,60fe160ed067fe6ac793b5cc,61036888cd475cdc97453bb3,2021-07-29_22h49.26.058,Simcolourproject_2stim_asymm_v5,2020.2.10,MacIntel,60,61025ae37ef11b136ea224fe,,,,,,,,,2237,-54.06640625,-107.7539063,1,0,0,response5disk,,3,1.91796875,3.92578125,1,0,0,rectangle,1.91796875,3.92578125,1,0,0,1.91796875,3.92578125,1,0,0,1,27,187,151,1,,,,,,,,
,,,,,,,,,,,,,FF,,,,,,,,0.5996,,,,,,,,,,,,,,,,,,,,,,60fe160ed067fe6ac793b5cc,61036888cd475cdc97453bb3,2021-07-29_22h49.26.058,Simcolourproject_2stim_asymm_v5,2020.2.10,MacIntel,60,61025ae37ef11b136ea224fe,,,,,,,,,3936,-28.71875,71.609375,1,0,0,response7disk,,0,-16.19921875,7.0625,1,0,0,rectangle,-16.19921875,7.0625,1,0,0,-16.19921875,7.0625,1,0,0,1,28,188,13,1,,,,,,,,
,,,,,,,,,,,,,FF,,,,,,,,0.7011,,,,,,,,,,,,,,,,,,,,,,60fe160ed067fe6ac793b5cc,61036888cd475cdc97453bb3,2021-07-29_22h49.26.058,Simcolourproject_2stim_asymm_v5,2020.2.10,MacIntel,60,61025ae37ef11b136ea224fe,,,,,,,,,146,73.171875,-34.9453125,1,0,0,response3disk,,5,19.4765625,7.9375,1,0,0,rectangle,19.4765625,7.9375,1,0,0,19.4765625,7.9375,1,0,0,1,29,189,69,1,,,,,,,,
,,,,,,,,,,,,,FF,,,,,,,,0.6848,,,,,,,,,,,,,,,,,,,,,,60fe160ed067fe6ac793b5cc,61036888cd475cdc97453bb3,2021-07-29_22h49.26.058,Simcolourproject_2stim_asymm_v5,2020.2.10,MacIntel,60,61025ae37ef11b136ea224fe,,,,,,,,,2385,87.203125,-40.9609375,1,0,0,response3disk,,5,24.3671875,-4.14453125,1,0,0,rectangle,24.3671875,-4.14453125,1,0,0,24.3671875,-4.14453125,1,0,0,1,30,190,77,1,,,,,,,,
,,,,,,,,,,,,,FF,,,,,,,,0.5348,,,,,,,,,,,,,,,,,,,,,,60fe160ed067fe6ac793b5cc,61036888cd475cdc97453bb3,2021-07-29_22h49.26.058,Simcolourproject_2stim_asymm_v5,2020.2.10,MacIntel,60,61025ae37ef11b136ea224fe,,,,,,,,,3686,82.7734375,-43.5390625,1,0,0,response3disk,,5,20.046875,-8.27734375,1,0,0,rectangle,20.046875,-8.27734375,1,0,0,20.046875,-8.27734375,1,0,0,1,31,191,128,1,,,,,,,,
,,,,,,,,,,,,,FF,,,,,,,,0.7502,,,,,,,,,,,,,,,,,,,,,,60fe160ed067fe6ac793b5cc,61036888cd475cdc97453bb3,2021-07-29_22h49.26.058,Simcolourproject_2stim_asymm_v5,2020.2.10,MacIntel,60,61025ae37ef11b136ea224fe,,,,,,,,,712,46.12109375,-37.859375,1,0,0,response3disk,,5,2.0234375,-11.859375,1,0,0,rectangle,2.0234375,-11.859375,1,0,0,2.0234375,-11.859375,1,0,0,1,32,192,148,1,,,,,,,,
,,,,,,,,,,,,,FF,,,,,,,,0.5662,,,,,,,,,,,,,,,,,,,,,,60fe160ed067fe6ac793b5cc,61036888cd475cdc97453bb3,2021-07-29_22h49.26.058,Simcolourproject_2stim_asymm_v5,2020.2.10,MacIntel,60,61025ae37ef11b136ea224fe,,,,,,,,,2062,-54.10546875,-93.3515625,1,0,0,response5disk,,3,-16.80859375,-3.48828125,1,0,0,rectangle,-16.80859375,-3.48828125,1,0,0,-16.80859375,-3.48828125,1,0,0,1,33,193,146,1,,,,,,,,
,,,,,,,,,,,,,FF,,,,,,,,0.5839,,,,,,,,,,,,,,,,,,,,,,60fe160ed067fe6ac793b5cc,61036888cd475cdc97453bb3,2021-07-29_22h49.26.058,Simcolourproject_2stim_asymm_v5,2020.2.10,MacIntel,60,61025ae37ef11b136ea224fe,,,,,,,,,4240,-37.08203125,-74.78515625,1,0,0,response5disk,,3,1.0546875,-2.484375,1,0,0,rectangle,1.0546875,-2.484375,1,0,0,1.0546875,-2.484375,1,0,0,1,34,194,47,1,,,,,,,,
,,,,,,,,,,,,,FF,,,,,,,,0.8834,,,,,,,,,,,,,,,,,,,,,,60fe160ed067fe6ac793b5cc,61036888cd475cdc97453bb3,2021-07-29_22h49.26.058,Simcolourproject_2stim_asymm_v5,2020.2.10,MacIntel,60,61025ae37ef11b136ea224fe,,,,,,,,,589,75.59765625,42.33984375,1,0,0,response1disk,,6,-4.2265625,12.859375,1,0,0,rectangle,-4.2265625,12.859375,1,0,0,-4.2265625,12.859375,1,0,0,1,35,195,83,1,,,,,,,,
,,,,,,,,,,,,,FF,,,,,,,,0.6681,,,,,,,,,,,,,,,,,,,,,,60fe160ed067fe6ac793b5cc,61036888cd475cdc97453bb3,2021-07-29_22h49.26.058,Simcolourproject_2stim_asymm_v5,2020.2.10,MacIntel,60,61025ae37ef11b136ea224fe,,,,,,,,,1931,52.03515625,-26.15625,1,0,0,response3disk,,5,4.03125,3.7265625,1,0,0,rectangle,4.03125,3.7265625,1,0,0,4.03125,3.7265625,1,0,0,1,36,196,110,1,,,,,,,,
,,,,,,,,,,,,,FF,,,,,,,,0.6877,,,,,,,,,,,,,,,,,,,,,,60fe160ed067fe6ac793b5cc,61036888cd475cdc97453bb3,2021-07-29_22h49.26.058,Simcolourproject_2stim_asymm_v5,2020.2.10,MacIntel,60,61025ae37ef11b136ea224fe,,,,,,,,,1535,-81.0703125,-53.8125,1,0,0,response5disk,,2,0.29296875,8.16015625,1,0,0,rectangle,0.29296875,8.16015625,1,0,0,0.29296875,8.16015625,1,0,0,1,37,197,136,1,,,,,,,,
,,,,,,,,,,,,,FF,,,,,,,,0.6486,,,,,,,,,,,,,,,,,,,,,,60fe160ed067fe6ac793b5cc,61036888cd475cdc97453bb3,2021-07-29_22h49.26.058,Simcolourproject_2stim_asymm_v5,2020.2.10,MacIntel,60,61025ae37ef11b136ea224fe,,,,,,,,,789,-69.61328125,-39.22265625,1,0,0,response5disk,,2,-4.359375,2.84375,1,0,0,rectangle,-4.359375,2.84375,1,0,0,-4.359375,2.84375,1,0,0,1,38,198,159,1,,,,,,,,
,,,,,,,,,,,,,FF,,,,,,,,0.6007,,,,,,,,,,,,,,,,,,,,,,60fe160ed067fe6ac793b5cc,61036888cd475cdc97453bb3,2021-07-29_22h49.26.058,Simcolourproject_2stim_asymm_v5,2020.2.10,MacIntel,60,61025ae37ef11b136ea224fe,,,,,,,,,3393,-62.6328125,-38.4765625,1,0,0,response5disk,,2,-2.8671875,-4.4609375,1,0,0,rectangle,-2.8671875,-4.4609375,1,0,0,-2.8671875,-4.4609375,1,0,0,1,39,199,137,1,,,,,,,,
,,,,,,,,,,,,,FF,,,,,,,,0.5664,,,,,,,,,,,,,,,,,,,,,,60fe160ed067fe6ac793b5cc,61036888cd475cdc97453bb3,2021-07-29_22h49.26.058,Simcolourproject_2stim_asymm_v5,2020.2.10,MacIntel,60,61025ae37ef11b136ea224fe,,,,,,,,,2524,58.77734375,-39.6953125,1,0,0,response3disk,,5,12.39453125,1.2109375,1,0,0,rectangle,12.39453125,1.2109375,1,0,0,12.39453125,1.2109375,1,0,0,1,40,200,38,1,,,,,,,,
,,,,,,,,,,,,,FF,,,,,,,,0.6669,,,,,,,,,,,,,,,,,,,,,,60fe160ed067fe6ac793b5cc,61036888cd475cdc97453bb3,2021-07-29_22h49.26.058,Simcolourproject_2stim_asymm_v5,2020.2.10,MacIntel,60,61025ae37ef11b136ea224fe,,,,,,,,,535,36.1328125,-93.51171875,1,0,0,response3disk,,4,15.80859375,-8.015625,1,0,0,rectangle,15.80859375,-8.015625,1,0,0,15.80859375,-8.015625,1,0,0,1,41,201,153,1,,,,,,,,
,,,,,,,,,,,,,FF,,,,,,,,1.5161,,,,,,,,,,,,,,,,,,,,,,60fe160ed067fe6ac793b5cc,61036888cd475cdc97453bb3,2021-07-29_22h49.26.058,Simcolourproject_2stim_asymm_v5,2020.2.10,MacIntel,60,61025ae37ef11b136ea224fe,,,,,,,,,1148,70.0703125,30.01953125,1,0,0,response1disk,,6,0.53125,5,1,0,0,rectangle,0.53125,5,1,0,0,0.53125,5,1,0,0,1,42,202,33,1,,,,,,,,
,,,,,,,,,,,,,FF,,,,,,,,0.6655,,,,,,,,,,,,,,,,,,,,,,60fe160ed067fe6ac793b5cc,61036888cd475cdc97453bb3,2021-07-29_22h49.26.058,Simcolourproject_2stim_asymm_v5,2020.2.10,MacIntel,60,61025ae37ef11b136ea224fe,,,,,,,,,763,72.0546875,-56.87890625,1,0,0,response3disk,,5,14.3359375,-12.18359375,1,0,0,rectangle,14.3359375,-12.18359375,1,0,0,14.3359375,-12.18359375,1,0,0,1,43,203,142,1,,,,,,,,
,,,,,,,,,,,,,FF,,,,,,,,0.6997,,,,,,,,,,,,,,,,,,,,,,60fe160ed067fe6ac793b5cc,61036888cd475cdc97453bb3,2021-07-29_22h49.26.058,Simcolourproject_2stim_asymm_v5,2020.2.10,MacIntel,60,61025ae37ef11b136ea224fe,,,,,,,,,176,44.53515625,92.90234375,1,0,0,response1disk,,7,-0.04296875,6.90234375,1,0,0,rectangle,-0.04296875,6.90234375,1,0,0,-0.04296875,6.90234375,1,0,0,1,44,204,86,1,,,,,,,,
,,,,,,,,,,,,,FF,,,,,,,,0.6178,,,,,,,,,,,,,,,,,,,,,,60fe160ed067fe6ac793b5cc,61036888cd475cdc97453bb3,2021-07-29_22h49.26.058,Simcolourproject_2stim_asymm_v5,2020.2.10,MacIntel,60,61025ae37ef11b136ea224fe,,,,,,,,,3195,-49.71484375,92.5390625,1,0,0,response7disk,,0,-13.19921875,1.671875,1,0,0,rectangle,-13.19921875,1.671875,1,0,0,-13.19921875,1.671875,1,0,0,1,45,205,7,1,,,,,,,,
,,,,,,,,,,,,,FF,,,,,,,,0.7179,,,,,,,,,,,,,,,,,,,,,,60fe160ed067fe6ac793b5cc,61036888cd475cdc97453bb3,2021-07-29_22h49.26.058,Simcolourproject_2stim_asymm_v5,2020.2.10,MacIntel,60,61025ae37ef11b136ea224fe,,,,,,,,,2535,-84.75,-49.46875,1,0,0,response5disk,,2,-5.78125,-6.4921875,1,0,0,rectangle,-5.78125,-6.4921875,1,0,0,-5.78125,-6.4921875,1,0,0,1,46,206,31,1,,,,,,,,
,,,,,,,,,,,,,FF,,,,,,,,0.5175,,,,,,,,,,,,,,,,,,,,,,60fe160ed067fe6ac793b5cc,61036888cd475cdc97453bb3,2021-07-29_22h49.26.058,Simcolourproject_2stim_asymm_v5,2020.2.10,MacIntel,60,61025ae37ef11b136ea224fe,,,,,,,,,2425,-77.70703125,-49.24609375,1,0,0,response5disk,,2,13.52734375,4.71875,1,0,0,rectangle,13.52734375,4.71875,1,0,0,13.52734375,4.71875,1,0,0,1,47,207,40,1,,,,,,,,
,,,,,,,,,,,,,FF,,,,,,,,0.6339,,,,,,,,,,,,,,,,,,,,,,60fe160ed067fe6ac793b5cc,61036888cd475cdc97453bb3,2021-07-29_22h49.26.058,Simcolourproject_2stim_asymm_v5,2020.2.10,MacIntel,60,61025ae37ef11b136ea224fe,,,,,,,,,4276,42.390625,-75.80859375,1,0,0,response3disk,,4,11.63671875,-5.375,1,0,0,rectangle,11.63671875,-5.375,1,0,0,11.63671875,-5.375,1,0,0,1,48,208,134,1,,,,,,,,
,,,,,,,,,,,,,FF,,,,,,,,0.7662,,,,,,,,,,,,,,,,,,,,,,60fe160ed067fe6ac793b5cc,61036888cd475cdc97453bb3,2021-07-29_22h49.26.058,Simcolourproject_2stim_asymm_v5,2020.2.10,MacIntel,60,61025ae37ef11b136ea224fe,,,,,,,,,3232,53.30078125,87.29296875,1,0,0,response1disk,,7,11.078125,-6.07421875,1,0,0,rectangle,11.078125,-6.07421875,1,0,0,11.078125,-6.07421875,1,0,0,1,49,209,32,1,,,,,,,,
,,,,,,,,,,,,,FF,,,,,,,,0.6328,,,,,,,,,,,,,,,,,,,,,,60fe160ed067fe6ac793b5cc,61036888cd475cdc97453bb3,2021-07-29_22h49.26.058,Simcolourproject_2stim_asymm_v5,2020.2.10,MacIntel,60,61025ae37ef11b136ea224fe,,,,,,,,,3218,76.08203125,-41.42578125,1,0,0,response3disk,,5,15.265625,-5.3828125,1,0,0,rectangle,15.265625,-5.3828125,1,0,0,15.265625,-5.3828125,1,0,0,1,50,210,114,1,,,,,,,,
,,,,,,,,,,,,,FF,,,,,,,,1.2822,,,,,,,,,,,,,,,,,,,,,,60fe160ed067fe6ac793b5cc,61036888cd475cdc97453bb3,2021-07-29_22h49.26.058,Simcolourproject_2stim_asymm_v5,2020.2.10,MacIntel,60,61025ae37ef11b136ea224fe,,,,,,,,,3254,30.60546875,-93.625,1,0,0,response3disk,,4,5.75390625,-13.82421875,1,0,0,rectangle,5.75390625,-13.82421875,1,0,0,5.75390625,-13.82421875,1,0,0,1,51,211,157,1,,,,,,,,
,,,,,,,,,,,,,FF,,,,,,,,0.7322,,,,,,,,,,,,,,,,,,,,,,60fe160ed067fe6ac793b5cc,61036888cd475cdc97453bb3,2021-07-29_22h49.26.058,Simcolourproject_2stim_asymm_v5,2020.2.10,MacIntel,60,61025ae37ef11b136ea224fe,,,,,,,,,3771,48.72265625,-84.625,1,0,0,response3disk,,4,-0.3515625,-0.6796875,1,0,0,rectangle,48.703125,-97.31640625,1,0,0,4.08984375,-6.046875,1,0,0,1,52,212,52,1,,response3disk_3,TRUE,4,4,"[319,110,275,147,302,61,120,283,213,288,126,250,294,177,273,135,232,173,258,223]",1.4507,rectangle
,,,,,,,,,,,,,FF,,,,,,,,0.815,,,,,,,,,,,,,,,,,,,,,,60fe160ed067fe6ac793b5cc,61036888cd475cdc97453bb3,2021-07-29_22h49.26.058,Simcolourproject_2stim_asymm_v5,2020.2.10,MacIntel,60,61025ae37ef11b136ea224fe,,,,,,,,,1994,70.30859375,30.80078125,1,0,0,response1disk,,6,22.82421875,9.23828125,1,0,0,rectangle,22.82421875,9.23828125,1,0,0,22.82421875,9.23828125,1,0,0,1,53,213,72,1,,,,,,,,
,,,,,,,,,,,,,FF,,,,,,,,0.6326,,,,,,,,,,,,,,,,,,,,,,60fe160ed067fe6ac793b5cc,61036888cd475cdc97453bb3,2021-07-29_22h49.26.058,Simcolourproject_2stim_asymm_v5,2020.2.10,MacIntel,60,61025ae37ef11b136ea224fe,,,,,,,,,3653,85.40625,-43.51953125,1,0,0,response3disk,,5,11.0625,-6.10546875,1,0,0,rectangle,11.0625,-6.10546875,1,0,0,11.0625,-6.10546875,1,0,0,1,54,214,115,1,,,,,,,,
,,,,,,,,,,,,,FF,,,,,,,,0.6673,,,,,,,,,,,,,,,,,,,,,,60fe160ed067fe6ac793b5cc,61036888cd475cdc97453bb3,2021-07-29_22h49.26.058,Simcolourproject_2stim_asymm_v5,2020.2.10,MacIntel,60,61025ae37ef11b136ea224fe,,,,,,,,,4119,-81.375,-46.69921875,1,0,0,response5disk,,2,-0.5390625,2.41015625,1,0,0,rectangle,-0.5390625,2.41015625,1,0,0,-0.5390625,2.41015625,1,0,0,1,55,215,113,1,,,,,,,,
,,,,,,,,,,,,,FF,,,,,,,,0.6497,,,,,,,,,,,,,,,,,,,,,,60fe160ed067fe6ac793b5cc,61036888cd475cdc97453bb3,2021-07-29_22h49.26.058,Simcolourproject_2stim_asymm_v5,2020.2.10,MacIntel,60,61025ae37ef11b136ea224fe,,,,,,,,,875,-50.296875,-87.140625,1,0,0,response5disk,,3,-5.21484375,3.87890625,1,0,0,rectangle,-5.21484375,3.87890625,1,0,0,-5.21484375,3.87890625,1,0,0,1,56,216,4,1,,,,,,,,
,,,,,,,,,,,,,FF,,,,,,,,0.8002,,,,,,,,,,,,,,,,,,,,,,60fe160ed067fe6ac793b5cc,61036888cd475cdc97453bb3,2021-07-29_22h49.26.058,Simcolourproject_2stim_asymm_v5,2020.2.10,MacIntel,60,61025ae37ef11b136ea224fe,,,,,,,,,678,40.40625,73.37890625,1,0,0,response1disk,,7,5.67578125,-0.04296875,1,0,0,rectangle,5.67578125,-0.04296875,1,0,0,5.67578125,-0.04296875,1,0,0,1,57,217,70,1,,,,,,,,
,,,,,,,,,,,,,FF,,,,,,,,0.7496,,,,,,,,,,,,,,,,,,,,,,60fe160ed067fe6ac793b5cc,61036888cd475cdc97453bb3,2021-07-29_22h49.26.058,Simcolourproject_2stim_asymm_v5,2020.2.10,MacIntel,60,61025ae37ef11b136ea224fe,,,,,,,,,378,31.56640625,-84.328125,1,0,0,response3disk,,4,5.8203125,-8.6875,1,0,0,rectangle,5.8203125,-8.6875,1,0,0,5.8203125,-8.6875,1,0,0,1,58,218,28,1,,,,,,,,
,,,,,,,,,,,,,FF,,,,,,,,0.6333,,,,,,,,,,,,,,,,,,,,,,60fe160ed067fe6ac793b5cc,61036888cd475cdc97453bb3,2021-07-29_22h49.26.058,Simcolourproject_2stim_asymm_v5,2020.2.10,MacIntel,60,61025ae37ef11b136ea224fe,,,,,,,,,2047,37.91796875,-92.55078125,1,0,0,response3disk,,4,21.72265625,-11.46484375,1,0,0,rectangle,21.72265625,-11.46484375,1,0,0,21.72265625,-11.46484375,1,0,0,1,59,219,95,1,,,,,,,,
,,,,,,,,,,,,,FF,,,,,,,,0.5849,,,,,,,,,,,,,,,,,,,,,,60fe160ed067fe6ac793b5cc,61036888cd475cdc97453bb3,2021-07-29_22h49.26.058,Simcolourproject_2stim_asymm_v5,2020.2.10,MacIntel,60,61025ae37ef11b136ea224fe,,,,,,,,,3268,71.6796875,-31.67578125,1,0,0,response3disk,,5,4.3984375,4.61328125,1,0,0,rectangle,4.3984375,4.61328125,1,0,0,4.3984375,4.61328125,1,0,0,1,60,220,96,1,,,,,,,,
,,,,,,,,,,,,,FF,,,,,,,,0.7827,,,,,,,,,,,,,,,,,,,,,,60fe160ed067fe6ac793b5cc,61036888cd475cdc97453bb3,2021-07-29_22h49.26.058,Simcolourproject_2stim_asymm_v5,2020.2.10,MacIntel,60,61025ae37ef11b136ea224fe,,,,,,,,,1848,18.67578125,-79.296875,1,0,0,response3disk,,4,2.5625,6.11328125,1,0,0,rectangle,2.5625,6.11328125,1,0,0,2.5625,6.11328125,1,0,0,1,61,221,90,1,,,,,,,,
,,,,,,,,,,,,,FF,,,,,,,,0.9335,,,,,,,,,,,,,,,,,,,,,,60fe160ed067fe6ac793b5cc,61036888cd475cdc97453bb3,2021-07-29_22h49.26.058,Simcolourproject_2stim_asymm_v5,2020.2.10,MacIntel,60,61025ae37ef11b136ea224fe,,,,,,,,,4219,33.7890625,-70.50390625,1,0,0,response3disk,,4,1.32421875,-12.7734375,1,0,0,rectangle,42.6328125,81.7265625,1,0,0,17.6328125,-14.74609375,1,0,0,1,62,222,104,1,,response1disk_3,TRUE,7,7,"[319,110,275,147,302,61,120,283,213,288,126,250,294,177,273,135,232,173,258,223]",1.7156,rectangle
,,,,,,,,,,,,,FF,,,,,,,,0.8839,,,,,,,,,,,,,,,,,,,,,,60fe160ed067fe6ac793b5cc,61036888cd475cdc97453bb3,2021-07-29_22h49.26.058,Simcolourproject_2stim_asymm_v5,2020.2.10,MacIntel,60,61025ae37ef11b136ea224fe,,,,,,,,,3646,41.3515625,70.87890625,1,0,0,response1disk,,7,10.3125,7.3671875,1,0,0,rectangle,10.3125,7.3671875,1,0,0,10.3125,7.3671875,1,0,0,1,63,223,73,1,,,,,,,,
,,,,,,,,,,,,,FF,,,,,,,,0.649,,,,,,,,,,,,,,,,,,,,,,60fe160ed067fe6ac793b5cc,61036888cd475cdc97453bb3,2021-07-29_22h49.26.058,Simcolourproject_2stim_asymm_v5,2020.2.10,MacIntel,60,61025ae37ef11b136ea224fe,,,,,,,,,691,76.09765625,-47.234375,1,0,0,response3disk,,5,10.62890625,-2.16796875,1,0,0,rectangle,10.62890625,-2.16796875,1,0,0,10.62890625,-2.16796875,1,0,0,1,64,224,62,1,,,,,,,,
,,,,,,,,,,,,,FF,,,,,,,,0.649,,,,,,,,,,,,,,,,,,,,,,60fe160ed067fe6ac793b5cc,61036888cd475cdc97453bb3,2021-07-29_22h49.26.058,Simcolourproject_2stim_asymm_v5,2020.2.10,MacIntel,60,61025ae37ef11b136ea224fe,,,,,,,,,1843,66.5234375,-32.84375,1,0,0,response3disk,,5,14.9140625,-1.00390625,1,0,0,rectangle,14.9140625,-1.00390625,1,0,0,14.9140625,-1.00390625,1,0,0,1,65,225,42,1,,,,,,,,
,,,,,,,,,,,,,FF,,,,,,,,1.2353,,,,,,,,,,,,,,,,,,,,,,60fe160ed067fe6ac793b5cc,61036888cd475cdc97453bb3,2021-07-29_22h49.26.058,Simcolourproject_2stim_asymm_v5,2020.2.10,MacIntel,60,61025ae37ef11b136ea224fe,,,,,,,,,1732,-47.921875,-92.203125,1,0,0,response5disk,,3,-5.87890625,17.43359375,1,0,0,rectangle,-5.87890625,17.43359375,1,0,0,-5.87890625,17.43359375,1,0,0,1,66,226,11,1,,,,,,,,
,,,,,,,,,,,,,FF,,,,,,,,0.9169,,,,,,,,,,,,,,,,,,,,,,60fe160ed067fe6ac793b5cc,61036888cd475cdc97453bb3,2021-07-29_22h49.26.058,Simcolourproject_2stim_asymm_v5,2020.2.10,MacIntel,60,61025ae37ef11b136ea224fe,,,,,,,,,2558,68.08203125,42.90625,1,0,0,response1disk,,6,-1.7890625,2.66796875,1,0,0,rectangle,-1.7890625,2.66796875,1,0,0,-1.7890625,2.66796875,1,0,0,1,67,227,74,1,,,,,,,,
,,,,,,,,,,,,,FF,,,,,,,,0.7341,,,,,,,,,,,,,,,,,,,,,,60fe160ed067fe6ac793b5cc,61036888cd475cdc97453bb3,2021-07-29_22h49.26.058,Simcolourproject_2stim_asymm_v5,2020.2.10,MacIntel,60,61025ae37ef11b136ea224fe,,,,,,,,,339,-25.578125,-74.63671875,1,0,0,response5disk,,3,-4.83203125,-0.8828125,1,0,0,rectangle,-4.83203125,-0.8828125,1,0,0,-4.83203125,-0.8828125,1,0,0,1,68,228,37,1,,,,,,,,
,,,,,,,,,,,,,FF,,,,,,,,0.6163,,,,,,,,,,,,,,,,,,,,,,60fe160ed067fe6ac793b5cc,61036888cd475cdc97453bb3,2021-07-29_22h49.26.058,Simcolourproject_2stim_asymm_v5,2020.2.10,MacIntel,60,61025ae37ef11b136ea224fe,,,,,,,,,4148,-51.76171875,-69.41796875,1,0,0,response5disk,,3,-6.15625,9.7265625,1,0,0,rectangle,-6.15625,9.7265625,1,0,0,-6.15625,9.7265625,1,0,0,1,69,229,149,1,,,,,,,,
,,,,,,,,,,,,,FF,,,,,,,,0.8005,,,,,,,,,,,,,,,,,,,,,,60fe160ed067fe6ac793b5cc,61036888cd475cdc97453bb3,2021-07-29_22h49.26.058,Simcolourproject_2stim_asymm_v5,2020.2.10,MacIntel,60,61025ae37ef11b136ea224fe,,,,,,,,,321,91.77734375,-38.9453125,1,0,0,response3disk,,5,-0.41015625,8.22265625,1,0,0,rectangle,-0.41015625,8.22265625,1,0,0,-0.41015625,8.22265625,1,0,0,1,70,230,79,1,,,,,,,,
,,,,,,,,,,,,,FF,,,,,,,,1.4027,,,,,,,,,,,,,,,,,,,,,,60fe160ed067fe6ac793b5cc,61036888cd475cdc97453bb3,2021-07-29_22h49.26.058,Simcolourproject_2stim_asymm_v5,2020.2.10,MacIntel,60,61025ae37ef11b136ea224fe,,,,,,,,,1629,57.9765625,-69.265625,1,0,0,response3disk,,4,3.1796875,12.32421875,1,0,0,rectangle,84.5,-48.6953125,1,0,0,15.8828125,2.34765625,1,0,0,1,71,231,116,1,,response3disk_3,TRUE,5,5,"[319,110,275,147,302,61,120,283,213,288,126,250,294,177,273,135,232,173,258,223]",1.7826,rectangle
,,,,,,,,,,,,,FF,,,,,,,,1.268,,,,,,,,,,,,,,,,,,,,,,60fe160ed067fe6ac793b5cc,61036888cd475cdc97453bb3,2021-07-29_22h49.26.058,Simcolourproject_2stim_asymm_v5,2020.2.10,MacIntel,60,61025ae37ef11b136ea224fe,,,,,,,,,1276,-24.2578125,-91.51171875,1,0,0,response5disk,,3,12.94140625,2.66796875,1,0,0,rectangle,12.94140625,2.66796875,1,0,0,12.94140625,2.66796875,1,0,0,1,72,232,16,1,,,,,,,,
,,,,,,,,,,,,,FF,,,,,,,,0.6559,,,,,,,,,,,,,,,,,,,,,,60fe160ed067fe6ac793b5cc,61036888cd475cdc97453bb3,2021-07-29_22h49.26.058,Simcolourproject_2stim_asymm_v5,2020.2.10,MacIntel,60,61025ae37ef11b136ea224fe,,,,,,,,,4189,48.73046875,-89.30078125,1,0,0,response3disk,,4,19.52734375,-7.3671875,1,0,0,rectangle,19.52734375,-7.3671875,1,0,0,19.52734375,-7.3671875,1,0,0,1,73,233,119,1,,,,,,,,
,,,,,,,,,,,,,FF,,,,,,,,0.616,,,,,,,,,,,,,,,,,,,,,,60fe160ed067fe6ac793b5cc,61036888cd475cdc97453bb3,2021-07-29_22h49.26.058,Simcolourproject_2stim_asymm_v5,2020.2.10,MacIntel,60,61025ae37ef11b136ea224fe,,,,,,,,,2956,83.63671875,36.63671875,1,0,0,response1disk,,6,3.13671875,-9.54296875,1,0,0,rectangle,3.13671875,-9.54296875,1,0,0,3.13671875,-9.54296875,1,0,0,1,74,234,63,1,,,,,,,,
,,,,,,,,,,,,,FF,,,,,,,,0.7181,,,,,,,,,,,,,,,,,,,,,,60fe160ed067fe6ac793b5cc,61036888cd475cdc97453bb3,2021-07-29_22h49.26.058,Simcolourproject_2stim_asymm_v5,2020.2.10,MacIntel,60,61025ae37ef11b136ea224fe,,,,,,,,,4301,84.8984375,-39.9453125,1,0,0,response3disk,,5,14.0390625,-5.390625,1,0,0,rectangle,14.0390625,-5.390625,1,0,0,14.0390625,-5.390625,1,0,0,1,75,235,155,1,,,,,,,,
,,,,,,,,,,,,,FF,,,,,,,,0.7339,,,,,,,,,,,,,,,,,,,,,,60fe160ed067fe6ac793b5cc,61036888cd475cdc97453bb3,2021-07-29_22h49.26.058,Simcolourproject_2stim_asymm_v5,2020.2.10,MacIntel,60,61025ae37ef11b136ea224fe,,,,,,,,,1612,-36.7578125,-79.8828125,1,0,0,response5disk,,3,-12.42578125,1.140625,1,0,0,rectangle,-12.42578125,1.140625,1,0,0,-12.42578125,1.140625,1,0,0,1,76,236,2,1,,,,,,,,
,,,,,,,,,,,,,FF,,,,,,,,0.766,,,,,,,,,,,,,,,,,,,,,,60fe160ed067fe6ac793b5cc,61036888cd475cdc97453bb3,2021-07-29_22h49.26.058,Simcolourproject_2stim_asymm_v5,2020.2.10,MacIntel,60,61025ae37ef11b136ea224fe,,,,,,,,,1659,72.25,-77.3125,1,0,0,response3disk,,4,12.03515625,-10.21875,1,0,0,rectangle,12.03515625,-10.21875,1,0,0,12.03515625,-10.21875,1,0,0,1,77,237,25,1,,,,,,,,
,,,,,,,,,,,,,FF,,,,,,,,0.7002,,,,,,,,,,,,,,,,,,,,,,60fe160ed067fe6ac793b5cc,61036888cd475cdc97453bb3,2021-07-29_22h49.26.058,Simcolourproject_2stim_asymm_v5,2020.2.10,MacIntel,60,61025ae37ef11b136ea224fe,,,,,,,,,1569,93.7421875,54.4453125,1,0,0,response1disk,,6,22,6.49609375,1,0,0,rectangle,22,6.49609375,1,0,0,22,6.49609375,1,0,0,1,78,238,97,1,,,,,,,,
,,,,,,,,,,,,,FF,,,,,,,,0.7676,,,,,,,,,,,,,,,,,,,,,,60fe160ed067fe6ac793b5cc,61036888cd475cdc97453bb3,2021-07-29_22h49.26.058,Simcolourproject_2stim_asymm_v5,2020.2.10,MacIntel,60,61025ae37ef11b136ea224fe,,,,,,,,,654,-40.95703125,-89.2421875,1,0,0,response5disk,,3,-4.671875,-6.82421875,1,0,0,rectangle,-4.671875,-6.82421875,1,0,0,-4.671875,-6.82421875,1,0,0,1,79,239,133,1,,,,,,,,
,,,,,,,,,,,,,FF,,,,,,,,0.7174,,,,,,,,,,,,,,,,,,,,,,60fe160ed067fe6ac793b5cc,61036888cd475cdc97453bb3,2021-07-29_22h49.26.058,Simcolourproject_2stim_asymm_v5,2020.2.10,MacIntel,60,61025ae37ef11b136ea224fe,,,,,,,,,2560,-37.25,-59.9140625,1,0,0,response5disk,,3,-1.2890625,-2.1875,1,0,0,rectangle,-1.2890625,-2.1875,1,0,0,-1.2890625,-2.1875,1,0,0,1,80,240,22,1,,,,,,,,
,,,,,,,,,,,,,FF,,,,,,,,0.7488,,,,,,,,,,,,,,,,,,,,,,60fe160ed067fe6ac793b5cc,61036888cd475cdc97453bb3,2021-07-29_22h49.26.058,Simcolourproject_2stim_asymm_v5,2020.2.10,MacIntel,60,61025ae37ef11b136ea224fe,,,,,,,,,3768,35.296875,-65.07421875,1,0,0,response3disk,,4,7.36328125,-11.51171875,1,0,0,rectangle,7.36328125,-11.51171875,1,0,0,7.36328125,-11.51171875,1,0,0,1,81,241,145,1,,,,,,,,
,,,,,,,,,,,,,FF,,,,,,,,0.7172,,,,,,,,,,,,,,,,,,,,,,60fe160ed067fe6ac793b5cc,61036888cd475cdc97453bb3,2021-07-29_22h49.26.058,Simcolourproject_2stim_asymm_v5,2020.2.10,MacIntel,60,61025ae37ef11b136ea224fe,,,,,,,,,1264,66.61328125,-53.953125,1,0,0,response3disk,,5,1.49609375,1.62890625,1,0,0,rectangle,1.49609375,1.62890625,1,0,0,1.49609375,1.62890625,1,0,0,1,82,242,105,1,,,,,,,,
,,,,,,,,,,,,,FF,,,,,,,,0.8674,,,,,,,,,,,,,,,,,,,,,,60fe160ed067fe6ac793b5cc,61036888cd475cdc97453bb3,2021-07-29_22h49.26.058,Simcolourproject_2stim_asymm_v5,2020.2.10,MacIntel,60,61025ae37ef11b136ea224fe,,,,,,,,,638,-53.13671875,-99.99609375,1,0,0,response5disk,,3,-7.859375,-11.53125,1,0,0,rectangle,-7.859375,-11.53125,1,0,0,-7.859375,-11.53125,1,0,0,1,83,243,49,1,,,,,,,,
,,,,,,,,,,,,,FF,,,,,,,,0.7821,,,,,,,,,,,,,,,,,,,,,,60fe160ed067fe6ac793b5cc,61036888cd475cdc97453bb3,2021-07-29_22h49.26.058,Simcolourproject_2stim_asymm_v5,2020.2.10,MacIntel,60,61025ae37ef11b136ea224fe,,,,,,,,,1734,-90.6015625,-42.89453125,1,0,0,response5disk,,2,-11.46875,4.1796875,1,0,0,rectangle,-11.46875,4.1796875,1,0,0,-11.46875,4.1796875,1,0,0,1,84,244,106,1,,,,,,,,
,,,,,,,,,,,,,FF,,,,,,,,0.8339,,,,,,,,,,,,,,,,,,,,,,60fe160ed067fe6ac793b5cc,61036888cd475cdc97453bb3,2021-07-29_22h49.26.058,Simcolourproject_2stim_asymm_v5,2020.2.10,MacIntel,60,61025ae37ef11b136ea224fe,,,,,,,,,2899,-96.7109375,-46.5234375,1,0,0,response5disk,,2,-7.44921875,9.546875,1,0,0,rectangle,-7.44921875,9.546875,1,0,0,-7.44921875,9.546875,1,0,0,1,85,245,59,1,,,,,,,,
,,,,,,,,,,,,,FF,,,,,,,,0.7664,,,,,,,,,,,,,,,,,,,,,,60fe160ed067fe6ac793b5cc,61036888cd475cdc97453bb3,2021-07-29_22h49.26.058,Simcolourproject_2stim_asymm_v5,2020.2.10,MacIntel,60,61025ae37ef11b136ea224fe,,,,,,,,,3308,58.92578125,44.01953125,1,0,0,response1disk,,6,-14.609375,0.6640625,1,0,0,rectangle,-14.609375,0.6640625,1,0,0,-14.609375,0.6640625,1,0,0,1,86,246,158,1,,,,,,,,
,,,,,,,,,,,,,FF,,,,,,,,0.7011,,,,,,,,,,,,,,,,,,,,,,60fe160ed067fe6ac793b5cc,61036888cd475cdc97453bb3,2021-07-29_22h49.26.058,Simcolourproject_2stim_asymm_v5,2020.2.10,MacIntel,60,61025ae37ef11b136ea224fe,,,,,,,,,2528,50.34375,31.67578125,1,0,0,response1disk,,6,5.5234375,11.3125,1,0,0,rectangle,5.5234375,11.3125,1,0,0,5.5234375,11.3125,1,0,0,1,87,247,84,1,,,,,,,,
,,,,,,,,,,,,,FF,,,,,,,,0.6832,,,,,,,,,,,,,,,,,,,,,,60fe160ed067fe6ac793b5cc,61036888cd475cdc97453bb3,2021-07-29_22h49.26.058,Simcolourproject_2stim_asymm_v5,2020.2.10,MacIntel,60,61025ae37ef11b136ea224fe,,,,,,,,,2557,25.77734375,51.4453125,1,0,0,response1disk,,7,9.296875,8.0859375,1,0,0,rectangle,9.296875,8.0859375,1,0,0,9.296875,8.0859375,1,0,0,1,88,248,18,1,,,,,,,,
,,,,,,,,,,,,,FF,,,,,,,,0.8183,,,,,,,,,,,,,,,,,,,,,,60fe160ed067fe6ac793b5cc,61036888cd475cdc97453bb3,2021-07-29_22h49.26.058,Simcolourproject_2stim_asymm_v5,2020.2.10,MacIntel,60,61025ae37ef11b136ea224fe,,,,,,,,,3365,47.5859375,71.265625,1,0,0,response1disk,,7,10.54296875,-1.734375,1,0,0,rectangle,27.109375,-88.10546875,1,0,0,-2.828125,-3.265625,1,0,0,1,89,249,118,1,,response3disk_3,TRUE,4,4,"[319,110,275,147,302,61,120,283,213,288,126,250,294,177,273,135,232,173,258,223]",1.3168,rectangle
