key_resp.keys,key_resp.rt,key_resp_14.keys,key_resp_14.rt,key_resp_15.keys,key_resp_15.rt,key_resp_17.keys,key_resp_17.rt,key_resp_9.keys,key_resp_9.rt,key_resp_10.keys,key_resp_10.rt,practice_comparison,Ecc,mouse_5.x,mouse_5.y,mouse_5.leftButton,mouse_5.midButton,mouse_5.rightButton,mouse_5.clicked_name,pracsimilarity,response_time,mouse_10.x,mouse_10.y,mouse_10.leftButton,mouse_10.midButton,mouse_10.rightButton,mouse_10.clicked_name,mouse_7.x,mouse_7.y,mouse_7.leftButton,mouse_7.midButton,mouse_7.rightButton,mouse_6.x,mouse_6.y,mouse_6.leftButton,mouse_6.midButton,mouse_6.rightButton,duringprac.thisRepN,duringprac.thisTrialN,duringprac.thisN,duringprac.thisIndex,duringprac.ran,participant,session,date,expName,psychopyVersion,OS,frameRate,study_id,mouse_7.clicked_name,catchpracsimilarity,catch_response_time,catchnumberprac,catchtrialorderprac,mouse_6.clicked_name,key_resp_22.keys,key_resp_22.rt,realcomparison,mouse.x,mouse.y,mouse.leftButton,mouse.midButton,mouse.rightButton,mouse.clicked_name,Colour2,similarity,mouse_2.x,mouse_2.y,mouse_2.leftButton,mouse_2.midButton,mouse_2.rightButton,mouse_2.clicked_name,mouse_3.x,mouse_3.y,mouse_3.leftButton,mouse_3.midButton,mouse_3.rightButton,mouse_11.x,mouse_11.y,mouse_11.leftButton,mouse_11.midButton,mouse_11.rightButton,trials_2.thisRepN,trials_2.thisTrialN,trials_2.thisN,trials_2.thisIndex,trials_2.ran,Colour1,mouse_3.clicked_name,catchornah,catchsimilarity,catchnumber,catchtrialorder,catchRT,mouse_11.clicked_name
space,0.8099,space,13.5821,space,7.5971,space,3.1346,space,2.1829,space,4.1056,29,PF,-81.99998337,41.33330349,1,0,0,response7disk_5,1,15.5527,6.666685939,-1.333344102,1,0,0,rectangle_8,6.666685939,-1.333344102,1,0,0,6.666685939,-1.333344102,1,0,0,0,0,0,6,1,60fe0193128d5101aada7200,61036722e74451882cc127cd,2021-07-29_22h44.18.125,Simcolourproject_2stim_asymm_v5,2020.2.10,Win32,60,61025ae37ef11b136ea224fe,,,,,,,,,,,,,,,,,,,,,,,,,,,,,,,,,,,,,,,,,,,,,,
,,,,,,,,,,,,115,PF,30.66668665,-79.33334643,1,0,0,response3disk_5,4,6.1212,-3.999981046,-0.666677415,1,0,0,rectangle_8,-91.33331698,-62.00001258,1,0,0,3.333393196,9.333322883,1,0,0,0,1,1,1,1,60fe0193128d5101aada7200,61036722e74451882cc127cd,2021-07-29_22h44.18.125,Simcolourproject_2stim_asymm_v5,2020.2.10,Win32,60,61025ae37ef11b136ea224fe,response5disk_7,2,2.6314,2,"[2,5]",rectangle_4,,,,,,,,,,,,,,,,,,,,,,,,,,,,,,,,,,,,,,,,
,,,,,,,,,,,,23,FF,34.66668677,100.6666589,1,0,0,response1disk_5,7,2.9018,-3.999981046,-1.07288E-05,1,0,0,rectangle_8,-3.999981046,-1.07288E-05,1,0,0,-3.999981046,-1.07288E-05,1,0,0,0,2,2,5,1,60fe0193128d5101aada7200,61036722e74451882cc127cd,2021-07-29_22h44.18.125,Simcolourproject_2stim_asymm_v5,2020.2.10,Win32,60,61025ae37ef11b136ea224fe,,,,,,,,,,,,,,,,,,,,,,,,,,,,,,,,,,,,,,,,,,,,,,
,,,,,,,,,,,,83,PF,85.33335495,54.66665757,1,0,0,response1disk_5,6,3.6174,2.000019133,-2.000010788,1,0,0,rectangle_8,2.000019133,-2.000010788,1,0,0,2.000019133,-2.000010788,1,0,0,0,3,3,4,1,60fe0193128d5101aada7200,61036722e74451882cc127cd,2021-07-29_22h44.18.125,Simcolourproject_2stim_asymm_v5,2020.2.10,Win32,60,61025ae37ef11b136ea224fe,,,,,,,,,,,,,,,,,,,,,,,,,,,,,,,,,,,,,,,,,,,,,,
,,,,,,,,,,,,112,FF,42.66668701,78.66665828,1,0,0,response1disk_5,7,2.6334,5.333393256,-2.000010788,1,0,0,rectangle_8,-59.33331603,-28.66667825,1,0,0,-5.999981105,-5.333344221,1,0,0,0,4,4,0,1,60fe0193128d5101aada7200,61036722e74451882cc127cd,2021-07-29_22h44.18.125,Simcolourproject_2stim_asymm_v5,2020.2.10,Win32,60,61025ae37ef11b136ea224fe,response5disk_7,2,1.8198,2,"[2,5]",rectangle_4,,,,,,,,,,,,,,,,,,,,,,,,,,,,,,,,,,,,,,,,
,,,,,,,,,,,,67,FF,-81.33331668,-26.66667819,1,0,0,response5disk_5,2,2.9842,-13.99998134,-4.000010848,1,0,0,rectangle_8,-13.99998134,-4.000010848,1,0,0,-13.99998134,-4.000010848,1,0,0,0,5,5,3,1,60fe0193128d5101aada7200,61036722e74451882cc127cd,2021-07-29_22h44.18.125,Simcolourproject_2stim_asymm_v5,2020.2.10,Win32,60,61025ae37ef11b136ea224fe,,,,,,,,,,,,,,,,,,,,,,,,,,,,,,,,,,,,,,,,,,,,,,
,,,,,,,,,,,,119,PF,93.33335519,59.99999106,1,0,0,response1disk_5,6,2.1541,24.00001979,13.333323,1,0,0,rectangle_8,24.00001979,13.333323,1,0,0,24.00001979,13.333323,1,0,0,0,6,6,2,1,60fe0193128d5101aada7200,61036722e74451882cc127cd,2021-07-29_22h44.18.125,Simcolourproject_2stim_asymm_v5,2020.2.10,Win32,60,61025ae37ef11b136ea224fe,,,,,,,,,,,,,,,,,,,,,,,,,,,,,,,,,,,,,,,,,,,,,,
,,,,,,,,,,,,,FF,,,,,,,,2.3476,,,,,,,,,,,,,,,,,,,,,,60fe0193128d5101aada7200,61036722e74451882cc127cd,2021-07-29_22h44.18.125,Simcolourproject_2stim_asymm_v5,2020.2.10,Win32,60,61025ae37ef11b136ea224fe,,,,,,,space,2.7544,2191,68.66668779,60.66665775,1,0,0,response1disk,,6,12.00001943,-4.000010848,1,0,0,rectangle,12.00001943,-4.000010848,1,0,0,12.00001943,-4.000010848,1,0,0,0,0,0,146,1,,,,,,,,
,,,,,,,,,,,,,FF,,,,,,,,4.0046,,,,,,,,,,,,,,,,,,,,,,60fe0193128d5101aada7200,61036722e74451882cc127cd,2021-07-29_22h44.18.125,Simcolourproject_2stim_asymm_v5,2020.2.10,Win32,60,61025ae37ef11b136ea224fe,,,,,,,,,19,62.00002092,47.9999907,1,0,0,response1disk,,6,-12.66660728,-2.000010788,1,0,0,rectangle,-12.66660728,-2.000010788,1,0,0,-12.66660728,-2.000010788,1,0,0,0,1,1,2,1,,,,,,,,
,,,,,,,,,,,,,FF,,,,,,,,2.0543,,,,,,,,,,,,,,,,,,,,,,60fe0193128d5101aada7200,61036722e74451882cc127cd,2021-07-29_22h44.18.125,Simcolourproject_2stim_asymm_v5,2020.2.10,Win32,60,61025ae37ef11b136ea224fe,,,,,,,,,591,40.00002027,73.99999148,1,0,0,response1disk,,7,2.66668582,9.999989569,1,0,0,rectangle,2.66668582,9.999989569,1,0,0,2.66668582,9.999989569,1,0,0,0,2,2,5,1,,,,,,,,
,,,,,,,,,,,,,FF,,,,,,,,2.0208,,,,,,,,,,,,,,,,,,,,,,60fe0193128d5101aada7200,61036722e74451882cc127cd,2021-07-29_22h44.18.125,Simcolourproject_2stim_asymm_v5,2020.2.10,Win32,60,61025ae37ef11b136ea224fe,,,,,,,,,2727,23.33339379,-42.66667867,1,0,0,response3disk,,4,-9.333314538,4.666656077,1,0,0,rectangle,-9.333314538,4.666656077,1,0,0,-9.333314538,4.666656077,1,0,0,0,3,3,138,1,,,,,,,,
,,,,,,,,,,,,,FF,,,,,,,,2.1006,,,,,,,,,,,,,,,,,,,,,,60fe0193128d5101aada7200,61036722e74451882cc127cd,2021-07-29_22h44.18.125,Simcolourproject_2stim_asymm_v5,2020.2.10,Win32,60,61025ae37ef11b136ea224fe,,,,,,,,,2093,-53.99998254,86.66665852,1,0,0,response7disk,,0,3.333393196,-9.33334434,1,0,0,rectangle,99.33335537,51.99999082,1,0,0,-14.66660734,8.666656196,1,0,0,0,4,4,104,1,,response1disk_3,TRUE,6,6,"[132,240,299,291,140,61,170,323,178,157,308,174,234,47,174,198,5,306,137,24]",2.0304,rectangle
,,,,,,,,,,,,,FF,,,,,,,,1.1869,,,,,,,,,,,,,,,,,,,,,,60fe0193128d5101aada7200,61036722e74451882cc127cd,2021-07-29_22h44.18.125,Simcolourproject_2stim_asymm_v5,2020.2.10,Win32,60,61025ae37ef11b136ea224fe,,,,,,,,,2733,43.3333537,-20.00001132,1,0,0,response3disk,,5,-1.999980986,12.66665632,1,0,0,rectangle,-1.999980986,12.66665632,1,0,0,-1.999980986,12.66665632,1,0,0,0,5,5,153,1,,,,,,,,
,,,,,,,,,,,,,FF,,,,,,,,1.7507,,,,,,,,,,,,,,,,,,,,,,60fe0193128d5101aada7200,61036722e74451882cc127cd,2021-07-29_22h44.18.125,Simcolourproject_2stim_asymm_v5,2020.2.10,Win32,60,61025ae37ef11b136ea224fe,,,,,,,,,2859,66.00002104,29.33330313,1,0,0,response1disk,,6,-8.666607161,-1.07288E-05,1,0,0,rectangle,-8.666607161,-1.07288E-05,1,0,0,-8.666607161,-1.07288E-05,1,0,0,0,6,6,118,1,,,,,,,,
,,,,,,,,,,,,,FF,,,,,,,,1.5374,,,,,,,,,,,,,,,,,,,,,,60fe0193128d5101aada7200,61036722e74451882cc127cd,2021-07-29_22h44.18.125,Simcolourproject_2stim_asymm_v5,2020.2.10,Win32,60,61025ae37ef11b136ea224fe,,,,,,,,,1339,46.66668713,92.6666587,1,0,0,response1disk,,7,-10.66660722,7.333322823,1,0,0,rectangle,-10.66660722,7.333322823,1,0,0,-10.66660722,7.333322823,1,0,0,0,7,7,90,1,,,,,,,,
,,,,,,,,,,,,,FF,,,,,,,,1.1808,,,,,,,,,,,,,,,,,,,,,,60fe0193128d5101aada7200,61036722e74451882cc127cd,2021-07-29_22h44.18.125,Simcolourproject_2stim_asymm_v5,2020.2.10,Win32,60,61025ae37ef11b136ea224fe,,,,,,,,,1028,27.33339391,73.99999148,1,0,0,response1disk,,7,-13.33331466,5.99998945,1,0,0,rectangle,-13.33331466,5.99998945,1,0,0,-13.33331466,5.99998945,1,0,0,0,8,8,111,1,,,,,,,,
,,,,,,,,,,,,,FF,,,,,,,,1.1485,,,,,,,,,,,,,,,,,,,,,,60fe0193128d5101aada7200,61036722e74451882cc127cd,2021-07-29_22h44.18.125,Simcolourproject_2stim_asymm_v5,2020.2.10,Win32,60,61025ae37ef11b136ea224fe,,,,,,,,,3043,73.33335459,53.99999088,1,0,0,response1disk,,6,-11.99998128,-8.666677654,1,0,0,rectangle,-11.99998128,-8.666677654,1,0,0,-11.99998128,-8.666677654,1,0,0,0,9,9,22,1,,,,,,,,
,,,,,,,,,,,,,FF,,,,,,,,1.2678,,,,,,,,,,,,,,,,,,,,,,60fe0193128d5101aada7200,61036722e74451882cc127cd,2021-07-29_22h44.18.125,Simcolourproject_2stim_asymm_v5,2020.2.10,Win32,60,61025ae37ef11b136ea224fe,,,,,,,,,3136,40.00002027,85.99999183,1,0,0,response1disk,,7,0.66668576,-5.333344221,1,0,0,rectangle,0.66668576,-5.333344221,1,0,0,0.66668576,-5.333344221,1,0,0,0,10,10,86,1,,,,,,,,
,,,,,,,,,,,,,FF,,,,,,,,1.4309,,,,,,,,,,,,,,,,,,,,,,60fe0193128d5101aada7200,61036722e74451882cc127cd,2021-07-29_22h44.18.125,Simcolourproject_2stim_asymm_v5,2020.2.10,Win32,60,61025ae37ef11b136ea224fe,,,,,,,,,1174,60.66668755,34.66665697,1,0,0,response1disk,,6,-16.6666074,3.333322704,1,0,0,rectangle,-16.6666074,3.333322704,1,0,0,-16.6666074,3.333322704,1,0,0,0,11,11,143,1,,,,,,,,
,,,,,,,,,,,,,FF,,,,,,,,1.4503,,,,,,,,,,,,,,,,,,,,,,60fe0193128d5101aada7200,61036722e74451882cc127cd,2021-07-29_22h44.18.125,Simcolourproject_2stim_asymm_v5,2020.2.10,Win32,60,61025ae37ef11b136ea224fe,,,,,,,,,1979,87.33335501,-48.66667885,1,0,0,response3disk,,5,2.000019133,6.666656137,1,0,0,rectangle,2.000019133,6.666656137,1,0,0,2.000019133,6.666656137,1,0,0,0,12,12,54,1,,,,,,,,
,,,,,,,,,,,,,FF,,,,,,,,0.917,,,,,,,,,,,,,,,,,,,,,,60fe0193128d5101aada7200,61036722e74451882cc127cd,2021-07-29_22h44.18.125,Simcolourproject_2stim_asymm_v5,2020.2.10,Win32,60,61025ae37ef11b136ea224fe,,,,,,,,,3956,39.33339427,109.9999925,1,0,0,response1disk,,7,-1.999980986,11.99998963,1,0,0,rectangle,-1.999980986,11.99998963,1,0,0,-1.999980986,11.99998963,1,0,0,0,13,13,53,1,,,,,,,,
,,,,,,,,,,,,,FF,,,,,,,,0.7982,,,,,,,,,,,,,,,,,,,,,,60fe0193128d5101aada7200,61036722e74451882cc127cd,2021-07-29_22h44.18.125,Simcolourproject_2stim_asymm_v5,2020.2.10,Win32,60,61025ae37ef11b136ea224fe,,,,,,,,,1489,33.33339409,62.66665781,1,0,0,response1disk,,7,14.66668618,3.99998939,1,0,0,rectangle,14.66668618,3.99998939,1,0,0,14.66668618,3.99998939,1,0,0,0,14,14,145,1,,,,,,,,
,,,,,,,,,,,,,FF,,,,,,,,1.4367,,,,,,,,,,,,,,,,,,,,,,60fe0193128d5101aada7200,61036722e74451882cc127cd,2021-07-29_22h44.18.125,Simcolourproject_2stim_asymm_v5,2020.2.10,Win32,60,61025ae37ef11b136ea224fe,,,,,,,,,842,58.66668749,21.99998993,1,0,0,response1disk,,6,23.33339379,3.333322704,1,0,0,rectangle,23.33339379,3.333322704,1,0,0,23.33339379,3.333322704,1,0,0,0,15,15,7,1,,,,,,,,
,,,,,,,,,,,,,FF,,,,,,,,2.784,,,,,,,,,,,,,,,,,,,,,,60fe0193128d5101aada7200,61036722e74451882cc127cd,2021-07-29_22h44.18.125,Simcolourproject_2stim_asymm_v5,2020.2.10,Win32,60,61025ae37ef11b136ea224fe,,,,,,,,,4282,-69.99998301,-32.66667837,1,0,0,response5disk,,2,-19.99998152,-4.666677535,1,0,0,rectangle,-19.99998152,-4.666677535,1,0,0,-19.99998152,-4.666677535,1,0,0,0,16,16,95,1,,,,,,,,
,,,,,,,,,,,,,FF,,,,,,,,0.7879,,,,,,,,,,,,,,,,,,,,,,60fe0193128d5101aada7200,61036722e74451882cc127cd,2021-07-29_22h44.18.125,Simcolourproject_2stim_asymm_v5,2020.2.10,Win32,60,61025ae37ef11b136ea224fe,,,,,,,,,4134,44.00002038,83.33330474,1,0,0,response1disk,,7,2.000019133,3.99998939,1,0,0,rectangle,2.000019133,3.99998939,1,0,0,2.000019133,3.99998939,1,0,0,0,17,17,16,1,,,,,,,,
,,,,,,,,,,,,,FF,,,,,,,,0.8311,,,,,,,,,,,,,,,,,,,,,,60fe0193128d5101aada7200,61036722e74451882cc127cd,2021-07-29_22h44.18.125,Simcolourproject_2stim_asymm_v5,2020.2.10,Win32,60,61025ae37ef11b136ea224fe,,,,,,,,,471,18.6666863,34.66665697,1,0,0,response1disk,,7,7.333393315,13.99998969,1,0,0,rectangle,7.333393315,13.99998969,1,0,0,7.333393315,13.99998969,1,0,0,0,18,18,89,1,,,,,,,,
,,,,,,,,,,,,,FF,,,,,,,,0.7832,,,,,,,,,,,,,,,,,,,,,,60fe0193128d5101aada7200,61036722e74451882cc127cd,2021-07-29_22h44.18.125,Simcolourproject_2stim_asymm_v5,2020.2.10,Win32,60,61025ae37ef11b136ea224fe,,,,,,,,,2458,38.00002021,67.33330427,1,0,0,response1disk,,7,18.00001961,8.666656196,1,0,0,rectangle,18.00001961,8.666656196,1,0,0,18.00001961,8.666656196,1,0,0,0,19,19,63,1,,,,,,,,
,,,,,,,,,,,,,FF,,,,,,,,0.9839,,,,,,,,,,,,,,,,,,,,,,60fe0193128d5101aada7200,61036722e74451882cc127cd,2021-07-29_22h44.18.125,Simcolourproject_2stim_asymm_v5,2020.2.10,Win32,60,61025ae37ef11b136ea224fe,,,,,,,,,1936,34.00002009,77.33330456,1,0,0,response1disk,,7,-6.666607102,-7.333344281,1,0,0,rectangle,-6.666607102,-7.333344281,1,0,0,-6.666607102,-7.333344281,1,0,0,0,20,20,35,1,,,,,,,,
,,,,,,,,,,,,,FF,,,,,,,,0.67,,,,,,,,,,,,,,,,,,,,,,60fe0193128d5101aada7200,61036722e74451882cc127cd,2021-07-29_22h44.18.125,Simcolourproject_2stim_asymm_v5,2020.2.10,Win32,60,61025ae37ef11b136ea224fe,,,,,,,,,2627,19.33339367,51.33330379,1,0,0,response1disk,,7,4.666685879,-9.33334434,1,0,0,rectangle,4.666685879,-9.33334434,1,0,0,4.666685879,-9.33334434,1,0,0,0,21,21,108,1,,,,,,,,
,,,,,,,,,,,,,FF,,,,,,,,1.9313,,,,,,,,,,,,,,,,,,,,,,60fe0193128d5101aada7200,61036722e74451882cc127cd,2021-07-29_22h44.18.125,Simcolourproject_2stim_asymm_v5,2020.2.10,Win32,60,61025ae37ef11b136ea224fe,,,,,,,,,3026,37.33339421,43.99999058,1,0,0,response1disk,,7,12.00001943,-5.333344221,1,0,0,rectangle,12.00001943,-5.333344221,1,0,0,12.00001943,-5.333344221,1,0,0,0,22,22,41,1,,,,,,,,
,,,,,,,,,,,,,FF,,,,,,,,0.7149,,,,,,,,,,,,,,,,,,,,,,60fe0193128d5101aada7200,61036722e74451882cc127cd,2021-07-29_22h44.18.125,Simcolourproject_2stim_asymm_v5,2020.2.10,Win32,60,61025ae37ef11b136ea224fe,,,,,,,,,3629,33.33339409,88.66665858,1,0,0,response1disk,,7,-1.3333143,12.66665632,1,0,0,rectangle,-15.9999814,-95.3333469,1,0,0,10.66668606,-3.333344162,1,0,0,0,23,23,81,1,,response5disk_3,TRUE,3,3,"[132,240,299,291,140,61,170,323,178,157,308,174,234,47,174,198,5,306,137,24]",1.9011,rectangle
,,,,,,,,,,,,,FF,,,,,,,,1.3008,,,,,,,,,,,,,,,,,,,,,,60fe0193128d5101aada7200,61036722e74451882cc127cd,2021-07-29_22h44.18.125,Simcolourproject_2stim_asymm_v5,2020.2.10,Win32,60,61025ae37ef11b136ea224fe,,,,,,,,,3669,-35.33331531,-56.66667908,1,0,0,response5disk,,3,-14.66660734,-10.66667771,1,0,0,rectangle,-14.66660734,-10.66667771,1,0,0,-14.66660734,-10.66667771,1,0,0,0,24,24,66,1,,,,,,,,
,,,,,,,,,,,,,FF,,,,,,,,1.5678,,,,,,,,,,,,,,,,,,,,,,60fe0193128d5101aada7200,61036722e74451882cc127cd,2021-07-29_22h44.18.125,Simcolourproject_2stim_asymm_v5,2020.2.10,Win32,60,61025ae37ef11b136ea224fe,,,,,,,,,4305,-73.33331645,64.66665787,1,0,0,response7disk,,1,-9.333314538,6.666656137,1,0,0,rectangle,-9.333314538,6.666656137,1,0,0,-9.333314538,6.666656137,1,0,0,0,25,25,30,1,,,,,,,,
,,,,,,,,,,,,,FF,,,,,,,,2.1006,,,,,,,,,,,,,,,,,,,,,,60fe0193128d5101aada7200,61036722e74451882cc127cd,2021-07-29_22h44.18.125,Simcolourproject_2stim_asymm_v5,2020.2.10,Win32,60,61025ae37ef11b136ea224fe,,,,,,,,,1202,-39.99998212,-62.00001258,1,0,0,response5disk,,3,11.33339343,3.99998939,1,0,0,rectangle,11.33339343,3.99998939,1,0,0,11.33339343,3.99998939,1,0,0,0,26,26,10,1,,,,,,,,
,,,,,,,,,,,,,FF,,,,,,,,0.7508,,,,,,,,,,,,,,,,,,,,,,60fe0193128d5101aada7200,61036722e74451882cc127cd,2021-07-29_22h44.18.125,Simcolourproject_2stim_asymm_v5,2020.2.10,Win32,60,61025ae37ef11b136ea224fe,,,,,,,,,1106,42.00002033,74.66665816,1,0,0,response1disk,,7,-6.666607102,12.66665632,1,0,0,rectangle,-6.666607102,12.66665632,1,0,0,-6.666607102,12.66665632,1,0,0,0,27,27,70,1,,,,,,,,
,,,,,,,,,,,,,FF,,,,,,,,1.7648,,,,,,,,,,,,,,,,,,,,,,60fe0193128d5101aada7200,61036722e74451882cc127cd,2021-07-29_22h44.18.125,Simcolourproject_2stim_asymm_v5,2020.2.10,Win32,60,61025ae37ef11b136ea224fe,,,,,,,,,3102,34.66668677,-92.66668016,1,0,0,response3disk,,4,-5.999981105,3.99998939,1,0,0,rectangle,-5.999981105,3.99998939,1,0,0,-5.999981105,3.99998939,1,0,0,0,28,28,149,1,,,,,,,,
,,,,,,,,,,,,,FF,,,,,,,,1.3316,,,,,,,,,,,,,,,,,,,,,,60fe0193128d5101aada7200,61036722e74451882cc127cd,2021-07-29_22h44.18.125,Simcolourproject_2stim_asymm_v5,2020.2.10,Win32,60,61025ae37ef11b136ea224fe,,,,,,,,,1972,26.66668653,-82.66667986,1,0,0,response3disk,,4,22.66668642,13.333323,1,0,0,rectangle,22.66668642,13.333323,1,0,0,22.66668642,13.333323,1,0,0,0,29,29,139,1,,,,,,,,
,,,,,,,,,,,,,FF,,,,,,,,0.8491,,,,,,,,,,,,,,,,,,,,,,60fe0193128d5101aada7200,61036722e74451882cc127cd,2021-07-29_22h44.18.125,Simcolourproject_2stim_asymm_v5,2020.2.10,Win32,60,61025ae37ef11b136ea224fe,,,,,,,,,668,33.33339409,72.6666581,1,0,0,response1disk,,7,-17.33331478,9.999989569,1,0,0,rectangle,-17.33331478,9.999989569,1,0,0,-17.33331478,9.999989569,1,0,0,0,30,30,18,1,,,,,,,,
,,,,,,,,,,,,,FF,,,,,,,,0.6954,,,,,,,,,,,,,,,,,,,,,,60fe0193128d5101aada7200,61036722e74451882cc127cd,2021-07-29_22h44.18.125,Simcolourproject_2stim_asymm_v5,2020.2.10,Win32,60,61025ae37ef11b136ea224fe,,,,,,,,,2325,21.33339373,65.99999124,1,0,0,response1disk,,7,4.000019193,3.333322704,1,0,0,rectangle,4.000019193,3.333322704,1,0,0,4.000019193,3.333322704,1,0,0,0,31,31,116,1,,,,,,,,
,,,,,,,,,,,,,FF,,,,,,,,0.9182,,,,,,,,,,,,,,,,,,,,,,60fe0193128d5101aada7200,61036722e74451882cc127cd,2021-07-29_22h44.18.125,Simcolourproject_2stim_asymm_v5,2020.2.10,Win32,60,61025ae37ef11b136ea224fe,,,,,,,,,2521,28.00001991,62.66665781,1,0,0,response1disk,,7,-3.999981046,-1.07288E-05,1,0,0,rectangle,-3.999981046,-1.07288E-05,1,0,0,-3.999981046,-1.07288E-05,1,0,0,0,32,32,136,1,,,,,,,,
,,,,,,,,,,,,,FF,,,,,,,,1.9002,,,,,,,,,,,,,,,,,,,,,,60fe0193128d5101aada7200,61036722e74451882cc127cd,2021-07-29_22h44.18.125,Simcolourproject_2stim_asymm_v5,2020.2.10,Win32,60,61025ae37ef11b136ea224fe,,,,,,,,,3191,60.66668755,33.99999028,1,0,0,response1disk,,6,14.00001949,13.333323,1,0,0,rectangle,14.00001949,13.333323,1,0,0,14.00001949,13.333323,1,0,0,0,33,33,154,1,,,,,,,,
,,,,,,,,,,,,,FF,,,,,,,,1.1344,,,,,,,,,,,,,,,,,,,,,,60fe0193128d5101aada7200,61036722e74451882cc127cd,2021-07-29_22h44.18.125,Simcolourproject_2stim_asymm_v5,2020.2.10,Win32,60,61025ae37ef11b136ea224fe,,,,,,,,,2686,37.33339421,52.66665751,1,0,0,response1disk,,7,6.000019252,1.333322644,1,0,0,rectangle,6.000019252,1.333322644,1,0,0,6.000019252,1.333322644,1,0,0,0,34,34,130,1,,,,,,,,
,,,,,,,,,,,,,FF,,,,,,,,0.6542,,,,,,,,,,,,,,,,,,,,,,60fe0193128d5101aada7200,61036722e74451882cc127cd,2021-07-29_22h44.18.125,Simcolourproject_2stim_asymm_v5,2020.2.10,Win32,60,61025ae37ef11b136ea224fe,,,,,,,,,3874,24.66668648,68.66665798,1,0,0,response1disk,,7,-7.333314478,9.333322883,1,0,0,rectangle,-7.333314478,9.333322883,1,0,0,-7.333314478,9.333322883,1,0,0,0,35,35,122,1,,,,,,,,
,,,,,,,,,,,,,FF,,,,,,,,1.201,,,,,,,,,,,,,,,,,,,,,,60fe0193128d5101aada7200,61036722e74451882cc127cd,2021-07-29_22h44.18.125,Simcolourproject_2stim_asymm_v5,2020.2.10,Win32,60,61025ae37ef11b136ea224fe,,,,,,,,,2454,44.00002038,65.99999124,1,0,0,response1disk,,7,2.000019133,9.333322883,1,0,0,rectangle,2.000019133,9.333322883,1,0,0,2.000019133,9.333322883,1,0,0,0,36,36,1,1,,,,,,,,
,,,,,,,,,,,,,FF,,,,,,,,1.5039,,,,,,,,,,,,,,,,,,,,,,60fe0193128d5101aada7200,61036722e74451882cc127cd,2021-07-29_22h44.18.125,Simcolourproject_2stim_asymm_v5,2020.2.10,Win32,60,61025ae37ef11b136ea224fe,,,,,,,,,2998,41.33339433,29.99999017,1,0,0,response1disk,,6,4.000019193,-1.333344102,1,0,0,rectangle,4.000019193,-1.333344102,1,0,0,4.000019193,-1.333344102,1,0,0,0,37,37,107,1,,,,,,,,
,,,,,,,,,,,,,FF,,,,,,,,0.7006,,,,,,,,,,,,,,,,,,,,,,60fe0193128d5101aada7200,61036722e74451882cc127cd,2021-07-29_22h44.18.125,Simcolourproject_2stim_asymm_v5,2020.2.10,Win32,60,61025ae37ef11b136ea224fe,,,,,,,,,4153,38.00002021,68.66665798,1,0,0,response1disk,,7,-12.66660728,-4.000010848,1,0,0,rectangle,-12.66660728,-4.000010848,1,0,0,-12.66660728,-4.000010848,1,0,0,0,38,38,51,1,,,,,,,,
,,,,,,,,,,,,,FF,,,,,,,,0.551,,,,,,,,,,,,,,,,,,,,,,60fe0193128d5101aada7200,61036722e74451882cc127cd,2021-07-29_22h44.18.125,Simcolourproject_2stim_asymm_v5,2020.2.10,Win32,60,61025ae37ef11b136ea224fe,,,,,,,,,2954,41.33339433,78.66665828,1,0,0,response1disk,,7,4.666685879,3.99998939,1,0,0,rectangle,4.666685879,3.99998939,1,0,0,4.666685879,3.99998939,1,0,0,0,39,39,94,1,,,,,,,,
,,,,,,,,,,,,,FF,,,,,,,,2.551,,,,,,,,,,,,,,,,,,,,,,60fe0193128d5101aada7200,61036722e74451882cc127cd,2021-07-29_22h44.18.125,Simcolourproject_2stim_asymm_v5,2020.2.10,Win32,60,61025ae37ef11b136ea224fe,,,,,,,,,2483,73.33335459,-42.00001198,1,0,0,response3disk,,5,11.33339343,13.333323,1,0,0,rectangle,11.33339343,13.333323,1,0,0,11.33339343,13.333323,1,0,0,0,40,40,65,1,,,,,,,,
,,,,,,,,,,,,,FF,,,,,,,,0.8837,,,,,,,,,,,,,,,,,,,,,,60fe0193128d5101aada7200,61036722e74451882cc127cd,2021-07-29_22h44.18.125,Simcolourproject_2stim_asymm_v5,2020.2.10,Win32,60,61025ae37ef11b136ea224fe,,,,,,,,,1892,30.66668665,-76.00001299,1,0,0,response3disk,,4,10.00001937,-3.333344162,1,0,0,rectangle,10.00001937,-3.333344162,1,0,0,10.00001937,-3.333344162,1,0,0,0,41,41,8,1,,,,,,,,
,,,,,,,,,,,,,FF,,,,,,,,0.7535,,,,,,,,,,,,,,,,,,,,,,60fe0193128d5101aada7200,61036722e74451882cc127cd,2021-07-29_22h44.18.125,Simcolourproject_2stim_asymm_v5,2020.2.10,Win32,60,61025ae37ef11b136ea224fe,,,,,,,,,2659,47.33335382,79.33330462,1,0,0,response1disk,,7,-1.3333143,10.66665626,1,0,0,rectangle,-1.3333143,10.66665626,1,0,0,-1.3333143,10.66665626,1,0,0,0,42,42,0,1,,,,,,,,
,,,,,,,,,,,,,FF,,,,,,,,1.4679,,,,,,,,,,,,,,,,,,,,,,60fe0193128d5101aada7200,61036722e74451882cc127cd,2021-07-29_22h44.18.125,Simcolourproject_2stim_asymm_v5,2020.2.10,Win32,60,61025ae37ef11b136ea224fe,,,,,,,,,818,28.00001991,85.3333048,1,0,0,response1disk,,7,0.66668576,5.99998945,1,0,0,rectangle,0.66668576,5.99998945,1,0,0,0.66668576,5.99998945,1,0,0,0,43,43,127,1,,,,,,,,
,,,,,,,,,,,,,FF,,,,,,,,1.0302,,,,,,,,,,,,,,,,,,,,,,60fe0193128d5101aada7200,61036722e74451882cc127cd,2021-07-29_22h44.18.125,Simcolourproject_2stim_asymm_v5,2020.2.10,Win32,60,61025ae37ef11b136ea224fe,,,,,,,,,2795,47.33335382,94.66665876,1,0,0,response1disk,,7,-3.999981046,7.99998951,1,0,0,rectangle,-3.999981046,7.99998951,1,0,0,-3.999981046,7.99998951,1,0,0,0,44,44,57,1,,,,,,,,
,,,,,,,,,,,,,FF,,,,,,,,1.221,,,,,,,,,,,,,,,,,,,,,,60fe0193128d5101aada7200,61036722e74451882cc127cd,2021-07-29_22h44.18.125,Simcolourproject_2stim_asymm_v5,2020.2.10,Win32,60,61025ae37ef11b136ea224fe,,,,,,,,,1149,60.00002086,49.33330373,1,0,0,response1disk,,6,10.00001937,-1.333344102,1,0,0,rectangle,10.00001937,-1.333344102,1,0,0,10.00001937,-1.333344102,1,0,0,0,45,45,3,1,,,,,,,,
,,,,,,,,,,,,,FF,,,,,,,,0.5478,,,,,,,,,,,,,,,,,,,,,,60fe0193128d5101aada7200,61036722e74451882cc127cd,2021-07-29_22h44.18.125,Simcolourproject_2stim_asymm_v5,2020.2.10,Win32,60,61025ae37ef11b136ea224fe,,,,,,,,,2159,41.33339433,72.6666581,1,0,0,response1disk,,7,12.66668612,11.33332294,1,0,0,rectangle,-51.33331579,-17.33334458,1,0,0,-17.99998146,9.999989569,1,0,0,0,46,46,19,1,,response5disk_3,TRUE,2,2,"[132,240,299,291,140,61,170,323,178,157,308,174,234,47,174,198,5,306,137,24]",1.551,rectangle
,,,,,,,,,,,,,FF,,,,,,,,1.2806,,,,,,,,,,,,,,,,,,,,,,60fe0193128d5101aada7200,61036722e74451882cc127cd,2021-07-29_22h44.18.125,Simcolourproject_2stim_asymm_v5,2020.2.10,Win32,60,61025ae37ef11b136ea224fe,,,,,,,,,4168,64.00002098,-23.33334476,1,0,0,response3disk,,5,10.66668606,-3.333344162,1,0,0,rectangle,10.66668606,-3.333344162,1,0,0,10.66668606,-3.333344162,1,0,0,0,47,47,156,1,,,,,,,,
,,,,,,,,,,,,,FF,,,,,,,,1.1809,,,,,,,,,,,,,,,,,,,,,,60fe0193128d5101aada7200,61036722e74451882cc127cd,2021-07-29_22h44.18.125,Simcolourproject_2stim_asymm_v5,2020.2.10,Win32,60,61025ae37ef11b136ea224fe,,,,,,,,,723,78.0000214,-32.00001168,1,0,0,response3disk,,5,-5.999981105,-2.666677475,1,0,0,rectangle,-5.999981105,-2.666677475,1,0,0,-5.999981105,-2.666677475,1,0,0,0,48,48,56,1,,,,,,,,
,,,,,,,,,,,,,FF,,,,,,,,1.1214,,,,,,,,,,,,,,,,,,,,,,60fe0193128d5101aada7200,61036722e74451882cc127cd,2021-07-29_22h44.18.125,Simcolourproject_2stim_asymm_v5,2020.2.10,Win32,60,61025ae37ef11b136ea224fe,,,,,,,,,1336,68.66668779,70.66665804,1,0,0,response1disk,,7,-4.666607042,-1.333344102,1,0,0,rectangle,-4.666607042,-1.333344102,1,0,0,-4.666607042,-1.333344102,1,0,0,0,49,49,147,1,,,,,,,,
,,,,,,,,,,,,,FF,,,,,,,,0.9814,,,,,,,,,,,,,,,,,,,,,,60fe0193128d5101aada7200,61036722e74451882cc127cd,2021-07-29_22h44.18.125,Simcolourproject_2stim_asymm_v5,2020.2.10,Win32,60,61025ae37ef11b136ea224fe,,,,,,,,,4029,41.33339433,31.99999022,1,0,0,response1disk,,6,6.666685939,3.333322704,1,0,0,rectangle,6.666685939,3.333322704,1,0,0,6.666685939,3.333322704,1,0,0,0,50,50,93,1,,,,,,,,
,,,,,,,,,,,,,FF,,,,,,,,0.5506,,,,,,,,,,,,,,,,,,,,,,60fe0193128d5101aada7200,61036722e74451882cc127cd,2021-07-29_22h44.18.125,Simcolourproject_2stim_asymm_v5,2020.2.10,Win32,60,61025ae37ef11b136ea224fe,,,,,,,,,744,26.66668653,65.99999124,1,0,0,response1disk,,7,-2.666606983,3.333322704,1,0,0,rectangle,-2.666606983,3.333322704,1,0,0,-2.666606983,3.333322704,1,0,0,0,51,51,159,1,,,,,,,,
,,,,,,,,,,,,,FF,,,,,,,,1.2146,,,,,,,,,,,,,,,,,,,,,,60fe0193128d5101aada7200,61036722e74451882cc127cd,2021-07-29_22h44.18.125,Simcolourproject_2stim_asymm_v5,2020.2.10,Win32,60,61025ae37ef11b136ea224fe,,,,,,,,,4145,38.66668689,-70.00001281,1,0,0,response3disk,,4,4.666685879,1.333322644,1,0,0,rectangle,4.666685879,1.333322644,1,0,0,4.666685879,1.333322644,1,0,0,0,52,52,110,1,,,,,,,,
,,,,,,,,,,,,,FF,,,,,,,,0.6862,,,,,,,,,,,,,,,,,,,,,,60fe0193128d5101aada7200,61036722e74451882cc127cd,2021-07-29_22h44.18.125,Simcolourproject_2stim_asymm_v5,2020.2.10,Win32,60,61025ae37ef11b136ea224fe,,,,,,,,,3039,55.33335406,67.9999913,1,0,0,response1disk,,7,1.333393137,-3.333344162,1,0,0,rectangle,1.333393137,-3.333344162,1,0,0,1.333393137,-3.333344162,1,0,0,0,53,53,15,1,,,,,,,,
,,,,,,,,,,,,,FF,,,,,,,,1.017,,,,,,,,,,,,,,,,,,,,,,60fe0193128d5101aada7200,61036722e74451882cc127cd,2021-07-29_22h44.18.125,Simcolourproject_2stim_asymm_v5,2020.2.10,Win32,60,61025ae37ef11b136ea224fe,,,,,,,,,2864,58.0000208,102.666659,1,0,0,response1disk,,7,23.33339379,1.333322644,1,0,0,rectangle,23.33339379,1.333322644,1,0,0,23.33339379,1.333322644,1,0,0,0,54,54,59,1,,,,,,,,
,,,,,,,,,,,,,FF,,,,,,,,0.7017,,,,,,,,,,,,,,,,,,,,,,60fe0193128d5101aada7200,61036722e74451882cc127cd,2021-07-29_22h44.18.125,Simcolourproject_2stim_asymm_v5,2020.2.10,Win32,60,61025ae37ef11b136ea224fe,,,,,,,,,3690,20.00001967,95.3333051,1,0,0,response1disk,,7,-9.999981225,2.666656017,1,0,0,rectangle,-9.999981225,2.666656017,1,0,0,-9.999981225,2.666656017,1,0,0,0,55,55,151,1,,,,,,,,
,,,,,,,,,,,,,FF,,,,,,,,0.4702,,,,,,,,,,,,,,,,,,,,,,60fe0193128d5101aada7200,61036722e74451882cc127cd,2021-07-29_22h44.18.125,Simcolourproject_2stim_asymm_v5,2020.2.10,Win32,60,61025ae37ef11b136ea224fe,,,,,,,,,3318,20.66668636,89.33330492,1,0,0,response1disk,,7,-11.99998128,8.666656196,1,0,0,rectangle,-11.99998128,8.666656196,1,0,0,-11.99998128,8.666656196,1,0,0,0,56,56,106,1,,,,,,,,
,,,,,,,,,,,,,FF,,,,,,,,0.4504,,,,,,,,,,,,,,,,,,,,,,60fe0193128d5101aada7200,61036722e74451882cc127cd,2021-07-29_22h44.18.125,Simcolourproject_2stim_asymm_v5,2020.2.10,Win32,60,61025ae37ef11b136ea224fe,,,,,,,,,1097,42.66668701,86.66665852,1,0,0,response1disk,,7,3.333393196,-6.666677594,1,0,0,rectangle,3.333393196,-6.666677594,1,0,0,3.333393196,-6.666677594,1,0,0,0,57,57,97,1,,,,,,,,
,,,,,,,,,,,,,FF,,,,,,,,1.621,,,,,,,,,,,,,,,,,,,,,,60fe0193128d5101aada7200,61036722e74451882cc127cd,2021-07-29_22h44.18.125,Simcolourproject_2stim_asymm_v5,2020.2.10,Win32,60,61025ae37ef11b136ea224fe,,,,,,,,,2297,46.00002044,-85.33334661,1,0,0,response3disk,,4,-7.999981165,1.333322644,1,0,0,rectangle,-7.999981165,1.333322644,1,0,0,-7.999981165,1.333322644,1,0,0,0,58,58,26,1,,,,,,,,
,,,,,,,,,,,,,FF,,,,,,,,1.2179,,,,,,,,,,,,,,,,,,,,,,60fe0193128d5101aada7200,61036722e74451882cc127cd,2021-07-29_22h44.18.125,Simcolourproject_2stim_asymm_v5,2020.2.10,Win32,60,61025ae37ef11b136ea224fe,,,,,,,,,1989,59.33335418,81.33330468,1,0,0,response1disk,,7,9.333393375,9.333322883,1,0,0,rectangle,9.333393375,9.333322883,1,0,0,9.333393375,9.333322883,1,0,0,0,59,59,91,1,,,,,,,,
,,,,,,,,,,,,,FF,,,,,,,,0.5032,,,,,,,,,,,,,,,,,,,,,,60fe0193128d5101aada7200,61036722e74451882cc127cd,2021-07-29_22h44.18.125,Simcolourproject_2stim_asymm_v5,2020.2.10,Win32,60,61025ae37ef11b136ea224fe,,,,,,,,,3730,38.00002021,67.33330427,1,0,0,response1disk,,7,-5.999981105,-2.000010788,1,0,0,rectangle,40.00002027,79.99999166,1,0,0,10.00001937,10.66665626,1,0,0,0,60,60,109,1,,response1disk_3,TRUE,7,7,"[132,240,299,291,140,61,170,323,178,157,308,174,234,47,174,198,5,306,137,24]",0.9507,rectangle
,,,,,,,,,,,,,FF,,,,,,,,1.3652,,,,,,,,,,,,,,,,,,,,,,60fe0193128d5101aada7200,61036722e74451882cc127cd,2021-07-29_22h44.18.125,Simcolourproject_2stim_asymm_v5,2020.2.10,Win32,60,61025ae37ef11b136ea224fe,,,,,,,,,3078,38.00002021,88.66665858,1,0,0,response1disk,,7,-4.666607042,-6.666677594,1,0,0,rectangle,-4.666607042,-6.666677594,1,0,0,-4.666607042,-6.666677594,1,0,0,0,61,61,132,1,,,,,,,,
,,,,,,,,,,,,,FF,,,,,,,,0.6648,,,,,,,,,,,,,,,,,,,,,,60fe0193128d5101aada7200,61036722e74451882cc127cd,2021-07-29_22h44.18.125,Simcolourproject_2stim_asymm_v5,2020.2.10,Win32,60,61025ae37ef11b136ea224fe,,,,,,,,,4011,41.33339433,75.3333045,1,0,0,response1disk,,7,-5.333314419,-6.000010908,1,0,0,rectangle,-5.333314419,-6.000010908,1,0,0,-5.333314419,-6.000010908,1,0,0,0,62,62,117,1,,,,,,,,
,,,,,,,,,,,,,FF,,,,,,,,2.9007,,,,,,,,,,,,,,,,,,,,,,60fe0193128d5101aada7200,61036722e74451882cc127cd,2021-07-29_22h44.18.125,Simcolourproject_2stim_asymm_v5,2020.2.10,Win32,60,61025ae37ef11b136ea224fe,,,,,,,,,4143,-27.33331507,-77.33334637,1,0,0,response5disk,,3,1.9735E-05,10.66665626,1,0,0,rectangle,1.9735E-05,10.66665626,1,0,0,1.9735E-05,10.66665626,1,0,0,0,63,63,125,1,,,,,,,,
,,,,,,,,,,,,,FF,,,,,,,,1.0367,,,,,,,,,,,,,,,,,,,,,,60fe0193128d5101aada7200,61036722e74451882cc127cd,2021-07-29_22h44.18.125,Simcolourproject_2stim_asymm_v5,2020.2.10,Win32,60,61025ae37ef11b136ea224fe,,,,,,,,,2929,36.66668683,86.66665852,1,0,0,response1disk,,7,13.33339349,7.99998951,1,0,0,rectangle,13.33339349,7.99998951,1,0,0,13.33339349,7.99998951,1,0,0,0,64,64,158,1,,,,,,,,
,,,,,,,,,,,,,FF,,,,,,,,0.8507,,,,,,,,,,,,,,,,,,,,,,60fe0193128d5101aada7200,61036722e74451882cc127cd,2021-07-29_22h44.18.125,Simcolourproject_2stim_asymm_v5,2020.2.10,Win32,60,61025ae37ef11b136ea224fe,,,,,,,,,4229,32.66668671,63.99999118,1,0,0,response1disk,,7,0.66668576,1.999989331,1,0,0,rectangle,0.66668576,1.999989331,1,0,0,0.66668576,1.999989331,1,0,0,0,65,65,45,1,,,,,,,,
,,,,,,,,,,,,,FF,,,,,,,,0.581,,,,,,,,,,,,,,,,,,,,,,60fe0193128d5101aada7200,61036722e74451882cc127cd,2021-07-29_22h44.18.125,Simcolourproject_2stim_asymm_v5,2020.2.10,Win32,60,61025ae37ef11b136ea224fe,,,,,,,,,3301,36.66668683,59.99999106,1,0,0,response1disk,,7,10.00001937,7.99998951,1,0,0,rectangle,10.00001937,7.99998951,1,0,0,10.00001937,7.99998951,1,0,0,0,66,66,96,1,,,,,,,,
,,,,,,,,,,,,,FF,,,,,,,,0.9343,,,,,,,,,,,,,,,,,,,,,,60fe0193128d5101aada7200,61036722e74451882cc127cd,2021-07-29_22h44.18.125,Simcolourproject_2stim_asymm_v5,2020.2.10,Win32,60,61025ae37ef11b136ea224fe,,,,,,,,,4166,-39.33331543,-71.33334619,1,0,0,response5disk,,3,9.333393375,5.333322763,1,0,0,rectangle,9.333393375,5.333322763,1,0,0,9.333393375,5.333322763,1,0,0,0,67,67,44,1,,,,,,,,
,,,,,,,,,,,,,FF,,,,,,,,1.1853,,,,,,,,,,,,,,,,,,,,,,60fe0193128d5101aada7200,61036722e74451882cc127cd,2021-07-29_22h44.18.125,Simcolourproject_2stim_asymm_v5,2020.2.10,Win32,60,61025ae37ef11b136ea224fe,,,,,,,,,4185,28.66668659,-83.33334655,1,0,0,response3disk,,4,8.000019312,-6.666677594,1,0,0,rectangle,8.000019312,-6.666677594,1,0,0,8.000019312,-6.666677594,1,0,0,0,68,68,67,1,,,,,,,,
,,,,,,,,,,,,,FF,,,,,,,,0.6328,,,,,,,,,,,,,,,,,,,,,,60fe0193128d5101aada7200,61036722e74451882cc127cd,2021-07-29_22h44.18.125,Simcolourproject_2stim_asymm_v5,2020.2.10,Win32,60,61025ae37ef11b136ea224fe,,,,,,,,,3066,39.33339427,77.9999916,1,0,0,response1disk,,7,1.9735E-05,8.666656196,1,0,0,rectangle,1.9735E-05,8.666656196,1,0,0,1.9735E-05,8.666656196,1,0,0,0,69,69,9,1,,,,,,,,
,,,,,,,,,,,,,FF,,,,,,,,0.5176,,,,,,,,,,,,,,,,,,,,,,60fe0193128d5101aada7200,61036722e74451882cc127cd,2021-07-29_22h44.18.125,Simcolourproject_2stim_asymm_v5,2020.2.10,Win32,60,61025ae37ef11b136ea224fe,,,,,,,,,1189,20.00001967,67.9999913,1,0,0,response1disk,,7,-2.666606983,8.666656196,1,0,0,rectangle,-2.666606983,8.666656196,1,0,0,-2.666606983,8.666656196,1,0,0,0,70,70,52,1,,,,,,,,
,,,,,,,,,,,,,FF,,,,,,,,1.4034,,,,,,,,,,,,,,,,,,,,,,60fe0193128d5101aada7200,61036722e74451882cc127cd,2021-07-29_22h44.18.125,Simcolourproject_2stim_asymm_v5,2020.2.10,Win32,60,61025ae37ef11b136ea224fe,,,,,,,,,3882,-85.99998349,64.66665787,1,0,0,response7disk,,1,12.00001943,-2.666677475,1,0,0,rectangle,12.00001943,-2.666677475,1,0,0,12.00001943,-2.666677475,1,0,0,0,71,71,123,1,,,,,,,,
,,,,,,,,,,,,,FF,,,,,,,,1.2141,,,,,,,,,,,,,,,,,,,,,,60fe0193128d5101aada7200,61036722e74451882cc127cd,2021-07-29_22h44.18.125,Simcolourproject_2stim_asymm_v5,2020.2.10,Win32,60,61025ae37ef11b136ea224fe,,,,,,,,,1032,25.33339385,50.66665745,1,0,0,response1disk,,7,8.000019312,7.333322823,1,0,0,rectangle,8.000019312,7.333322823,1,0,0,8.000019312,7.333322823,1,0,0,0,72,72,69,1,,,,,,,,
,,,,,,,,,,,,,FF,,,,,,,,0.5479,,,,,,,,,,,,,,,,,,,,,,60fe0193128d5101aada7200,61036722e74451882cc127cd,2021-07-29_22h44.18.125,Simcolourproject_2stim_asymm_v5,2020.2.10,Win32,60,61025ae37ef11b136ea224fe,,,,,,,,,2598,38.66668689,73.33330444,1,0,0,response1disk,,7,3.333393196,6.666656137,1,0,0,rectangle,3.333393196,6.666656137,1,0,0,3.333393196,6.666656137,1,0,0,0,73,73,47,1,,,,,,,,
,,,,,,,,,,,,,FF,,,,,,,,1.4534,,,,,,,,,,,,,,,,,,,,,,60fe0193128d5101aada7200,61036722e74451882cc127cd,2021-07-29_22h44.18.125,Simcolourproject_2stim_asymm_v5,2020.2.10,Win32,60,61025ae37ef11b136ea224fe,,,,,,,,,1529,68.0000211,-57.33334577,1,0,0,response3disk,,5,22.00001973,-3.333344162,1,0,0,rectangle,22.00001973,-3.333344162,1,0,0,22.00001973,-3.333344162,1,0,0,0,74,74,105,1,,,,,,,,
,,,,,,,,,,,,,FF,,,,,,,,0.7866,,,,,,,,,,,,,,,,,,,,,,60fe0193128d5101aada7200,61036722e74451882cc127cd,2021-07-29_22h44.18.125,Simcolourproject_2stim_asymm_v5,2020.2.10,Win32,60,61025ae37ef11b136ea224fe,,,,,,,,,1589,26.66668653,81.99999171,1,0,0,response1disk,,7,-4.666607042,9.999989569,1,0,0,rectangle,-4.666607042,9.999989569,1,0,0,-4.666607042,9.999989569,1,0,0,0,75,75,141,1,,,,,,,,
,,,,,,,,,,,,,FF,,,,,,,,1.2379,,,,,,,,,,,,,,,,,,,,,,60fe0193128d5101aada7200,61036722e74451882cc127cd,2021-07-29_22h44.18.125,Simcolourproject_2stim_asymm_v5,2020.2.10,Win32,60,61025ae37ef11b136ea224fe,,,,,,,,,613,48.0000205,41.99999052,1,0,0,response1disk,,6,-7.999981165,-8.000010967,1,0,0,rectangle,-7.999981165,-8.000010967,1,0,0,-7.999981165,-8.000010967,1,0,0,0,76,76,124,1,,,,,,,,
,,,,,,,,,,,,,FF,,,,,,,,0.5999,,,,,,,,,,,,,,,,,,,,,,60fe0193128d5101aada7200,61036722e74451882cc127cd,2021-07-29_22h44.18.125,Simcolourproject_2stim_asymm_v5,2020.2.10,Win32,60,61025ae37ef11b136ea224fe,,,,,,,,,1486,50.00002056,78.66665828,1,0,0,response1disk,,7,6.000019252,5.333322763,1,0,0,rectangle,6.000019252,5.333322763,1,0,0,6.000019252,5.333322763,1,0,0,0,77,77,11,1,,,,,,,,
,,,,,,,,,,,,,FF,,,,,,,,0.5844,,,,,,,,,,,,,,,,,,,,,,60fe0193128d5101aada7200,61036722e74451882cc127cd,2021-07-29_22h44.18.125,Simcolourproject_2stim_asymm_v5,2020.2.10,Win32,60,61025ae37ef11b136ea224fe,,,,,,,,,691,33.33339409,68.66665798,1,0,0,response1disk,,7,-1.999980986,-1.07288E-05,1,0,0,rectangle,-1.999980986,-1.07288E-05,1,0,0,-1.999980986,-1.07288E-05,1,0,0,0,78,78,27,1,,,,,,,,
,,,,,,,,,,,,,FF,,,,,,,,0.6817,,,,,,,,,,,,,,,,,,,,,,60fe0193128d5101aada7200,61036722e74451882cc127cd,2021-07-29_22h44.18.125,Simcolourproject_2stim_asymm_v5,2020.2.10,Win32,60,61025ae37ef11b136ea224fe,,,,,,,,,1576,26.66668653,68.66665798,1,0,0,response1disk,,7,-1.999980986,0.666655958,1,0,0,rectangle,-1.999980986,0.666655958,1,0,0,-1.999980986,0.666655958,1,0,0,0,79,79,77,1,,,,,,,,
,,,,,,,,,,,,,FF,,,,,,,,0.667,,,,,,,,,,,,,,,,,,,,,,60fe0193128d5101aada7200,61036722e74451882cc127cd,2021-07-29_22h44.18.125,Simcolourproject_2stim_asymm_v5,2020.2.10,Win32,60,61025ae37ef11b136ea224fe,,,,,,,,,4233,32.00002003,64.66665787,1,0,0,response1disk,,7,-2.666606983,6.666656137,1,0,0,rectangle,-2.666606983,6.666656137,1,0,0,-2.666606983,6.666656137,1,0,0,0,80,80,100,1,,,,,,,,
,,,,,,,,,,,,,FF,,,,,,,,0.5339,,,,,,,,,,,,,,,,,,,,,,60fe0193128d5101aada7200,61036722e74451882cc127cd,2021-07-29_22h44.18.125,Simcolourproject_2stim_asymm_v5,2020.2.10,Win32,60,61025ae37ef11b136ea224fe,,,,,,,,,770,30.66668665,58.66665769,1,0,0,response1disk,,7,4.666685879,6.666656137,1,0,0,rectangle,4.666685879,6.666656137,1,0,0,4.666685879,6.666656137,1,0,0,0,81,81,74,1,,,,,,,,
,,,,,,,,,,,,,FF,,,,,,,,0.5147,,,,,,,,,,,,,,,,,,,,,,60fe0193128d5101aada7200,61036722e74451882cc127cd,2021-07-29_22h44.18.125,Simcolourproject_2stim_asymm_v5,2020.2.10,Win32,60,61025ae37ef11b136ea224fe,,,,,,,,,3534,32.66668671,60.66665775,1,0,0,response1disk,,7,-9.999981225,-13.33334446,1,0,0,rectangle,-9.999981225,-13.33334446,1,0,0,-9.999981225,-13.33334446,1,0,0,0,82,82,129,1,,,,,,,,
,,,,,,,,,,,,,FF,,,,,,,,0.8203,,,,,,,,,,,,,,,,,,,,,,60fe0193128d5101aada7200,61036722e74451882cc127cd,2021-07-29_22h44.18.125,Simcolourproject_2stim_asymm_v5,2020.2.10,Win32,60,61025ae37ef11b136ea224fe,,,,,,,,,3209,18.6666863,56.66665763,1,0,0,response1disk,,7,1.333393137,13.99998969,1,0,0,rectangle,1.333393137,13.99998969,1,0,0,1.333393137,13.99998969,1,0,0,0,83,83,29,1,,,,,,,,
,,,,,,,,,,,,,FF,,,,,,,,0.6341,,,,,,,,,,,,,,,,,,,,,,60fe0193128d5101aada7200,61036722e74451882cc127cd,2021-07-29_22h44.18.125,Simcolourproject_2stim_asymm_v5,2020.2.10,Win32,60,61025ae37ef11b136ea224fe,,,,,,,,,1655,16.00001955,39.33330343,1,0,0,response1disk,,7,4.000019193,4.666656077,1,0,0,rectangle,4.000019193,4.666656077,1,0,0,4.000019193,4.666656077,1,0,0,0,84,84,102,1,,,,,,,,
,,,,,,,,,,,,,FF,,,,,,,,0.6675,,,,,,,,,,,,,,,,,,,,,,60fe0193128d5101aada7200,61036722e74451882cc127cd,2021-07-29_22h44.18.125,Simcolourproject_2stim_asymm_v5,2020.2.10,Win32,60,61025ae37ef11b136ea224fe,,,,,,,,,1112,21.33339373,58.66665769,1,0,0,response1disk,,7,-2.666606983,6.666656137,1,0,0,rectangle,-2.666606983,6.666656137,1,0,0,-2.666606983,6.666656137,1,0,0,0,85,85,115,1,,,,,,,,
,,,,,,,,,,,,,FF,,,,,,,,0.6202,,,,,,,,,,,,,,,,,,,,,,60fe0193128d5101aada7200,61036722e74451882cc127cd,2021-07-29_22h44.18.125,Simcolourproject_2stim_asymm_v5,2020.2.10,Win32,60,61025ae37ef11b136ea224fe,,,,,,,,,3525,25.33339385,67.33330427,1,0,0,response1disk,,7,3.333393196,7.99998951,1,0,0,rectangle,3.333393196,7.99998951,1,0,0,3.333393196,7.99998951,1,0,0,0,86,86,20,1,,,,,,,,
,,,,,,,,,,,,,FF,,,,,,,,1.3499,,,,,,,,,,,,,,,,,,,,,,60fe0193128d5101aada7200,61036722e74451882cc127cd,2021-07-29_22h44.18.125,Simcolourproject_2stim_asymm_v5,2020.2.10,Win32,60,61025ae37ef11b136ea224fe,,,,,,,,,1502,37.33339421,75.99999154,1,0,0,response1disk,,7,-18.66660746,-4.000010848,1,0,0,rectangle,-18.66660746,-4.000010848,1,0,0,-18.66660746,-4.000010848,1,0,0,0,87,87,79,1,,,,,,,,
,,,,,,,,,,,,,FF,,,,,,,,0.6005,,,,,,,,,,,,,,,,,,,,,,60fe0193128d5101aada7200,61036722e74451882cc127cd,2021-07-29_22h44.18.125,Simcolourproject_2stim_asymm_v5,2020.2.10,Win32,60,61025ae37ef11b136ea224fe,,,,,,,,,479,34.00002009,71.99999142,1,0,0,response1disk,,7,10.66668606,-3.333344162,1,0,0,rectangle,10.66668606,-3.333344162,1,0,0,10.66668606,-3.333344162,1,0,0,0,88,88,38,1,,,,,,,,
,,,,,,,,,,,,,FF,,,,,,,,0.5846,,,,,,,,,,,,,,,,,,,,,,60fe0193128d5101aada7200,61036722e74451882cc127cd,2021-07-29_22h44.18.125,Simcolourproject_2stim_asymm_v5,2020.2.10,Win32,60,61025ae37ef11b136ea224fe,,,,,,,,,2092,29.33339397,88.66665858,1,0,0,response1disk,,7,-1.999980986,5.333322763,1,0,0,rectangle,-1.999980986,5.333322763,1,0,0,-1.999980986,5.333322763,1,0,0,0,89,89,60,1,,,,,,,,
,,,,,,,,,,,,,FF,,,,,,,,0.434,,,,,,,,,,,,,,,,,,,,,,60fe0193128d5101aada7200,61036722e74451882cc127cd,2021-07-29_22h44.18.125,Simcolourproject_2stim_asymm_v5,2020.2.10,Win32,60,61025ae37ef11b136ea224fe,,,,,,,,,1700,32.00002003,65.99999124,1,0,0,response1disk,,7,-5.999981105,3.333322704,1,0,0,rectangle,-5.999981105,3.333322704,1,0,0,-5.999981105,3.333322704,1,0,0,0,90,90,88,1,,,,,,,,
,,,,,,,,,,,,,FF,,,,,,,,0.9172,,,,,,,,,,,,,,,,,,,,,,60fe0193128d5101aada7200,61036722e74451882cc127cd,2021-07-29_22h44.18.125,Simcolourproject_2stim_asymm_v5,2020.2.10,Win32,60,61025ae37ef11b136ea224fe,,,,,,,,,3775,16.66668624,38.66665709,1,0,0,response1disk,,7,1.333393137,-2.000010788,1,0,0,rectangle,1.333393137,-2.000010788,1,0,0,1.333393137,-2.000010788,1,0,0,0,91,91,87,1,,,,,,,,
,,,,,,,,,,,,,FF,,,,,,,,0.5204,,,,,,,,,,,,,,,,,,,,,,60fe0193128d5101aada7200,61036722e74451882cc127cd,2021-07-29_22h44.18.125,Simcolourproject_2stim_asymm_v5,2020.2.10,Win32,60,61025ae37ef11b136ea224fe,,,,,,,,,1340,52.66668731,74.66665816,1,0,0,response1disk,,7,10.66668606,1.333322644,1,0,0,rectangle,10.66668606,1.333322644,1,0,0,10.66668606,1.333322644,1,0,0,0,92,92,49,1,,,,,,,,
,,,,,,,,,,,,,FF,,,,,,,,1.2366,,,,,,,,,,,,,,,,,,,,,,60fe0193128d5101aada7200,61036722e74451882cc127cd,2021-07-29_22h44.18.125,Simcolourproject_2stim_asymm_v5,2020.2.10,Win32,60,61025ae37ef11b136ea224fe,,,,,,,,,3056,80.00002146,-21.3333447,1,0,0,response3disk,,5,3.333393196,-5.333344221,1,0,0,rectangle,3.333393196,-5.333344221,1,0,0,3.333393196,-5.333344221,1,0,0,0,93,93,72,1,,,,,,,,
,,,,,,,,,,,,,FF,,,,,,,,0.5343,,,,,,,,,,,,,,,,,,,,,,60fe0193128d5101aada7200,61036722e74451882cc127cd,2021-07-29_22h44.18.125,Simcolourproject_2stim_asymm_v5,2020.2.10,Win32,60,61025ae37ef11b136ea224fe,,,,,,,,,2282,32.66668671,65.33330421,1,0,0,response1disk,,7,-1.999980986,11.33332294,1,0,0,rectangle,-1.999980986,11.33332294,1,0,0,-1.999980986,11.33332294,1,0,0,0,94,94,140,1,,,,,,,,
,,,,,,,,,,,,,FF,,,,,,,,0.8169,,,,,,,,,,,,,,,,,,,,,,60fe0193128d5101aada7200,61036722e74451882cc127cd,2021-07-29_22h44.18.125,Simcolourproject_2stim_asymm_v5,2020.2.10,Win32,60,61025ae37ef11b136ea224fe,,,,,,,,,2836,69.33335447,-48.00001216,1,0,0,response3disk,,5,1.9735E-05,-1.333344102,1,0,0,rectangle,1.9735E-05,-1.333344102,1,0,0,1.9735E-05,-1.333344102,1,0,0,0,95,95,55,1,,,,,,,,
,,,,,,,,,,,,,FF,,,,,,,,0.9669,,,,,,,,,,,,,,,,,,,,,,60fe0193128d5101aada7200,61036722e74451882cc127cd,2021-07-29_22h44.18.125,Simcolourproject_2stim_asymm_v5,2020.2.10,Win32,60,61025ae37ef11b136ea224fe,,,,,,,,,3020,47.33335382,62.66665781,1,0,0,response1disk,,7,13.33339349,9.333322883,1,0,0,rectangle,13.33339349,9.333322883,1,0,0,13.33339349,9.333322883,1,0,0,0,96,96,50,1,,,,,,,,
,,,,,,,,,,,,,FF,,,,,,,,1.3675,,,,,,,,,,,,,,,,,,,,,,60fe0193128d5101aada7200,61036722e74451882cc127cd,2021-07-29_22h44.18.125,Simcolourproject_2stim_asymm_v5,2020.2.10,Win32,60,61025ae37ef11b136ea224fe,,,,,,,,,2945,60.66668755,-51.33334559,1,0,0,response3disk,,5,14.66668618,-6.000010908,1,0,0,rectangle,14.66668618,-6.000010908,1,0,0,14.66668618,-6.000010908,1,0,0,0,97,97,142,1,,,,,,,,
,,,,,,,,,,,,,FF,,,,,,,,2.531,,,,,,,,,,,,,,,,,,,,,,60fe0193128d5101aada7200,61036722e74451882cc127cd,2021-07-29_22h44.18.125,Simcolourproject_2stim_asymm_v5,2020.2.10,Win32,60,61025ae37ef11b136ea224fe,,,,,,,,,3097,-30.66660782,-85.33334661,1,0,0,response5disk,,3,-6.666607102,-6.666677594,1,0,0,rectangle,-6.666607102,-6.666677594,1,0,0,-6.666607102,-6.666677594,1,0,0,0,98,98,76,1,,,,,,,,
,,,,,,,,,,,,,FF,,,,,,,,0.6204,,,,,,,,,,,,,,,,,,,,,,60fe0193128d5101aada7200,61036722e74451882cc127cd,2021-07-29_22h44.18.125,Simcolourproject_2stim_asymm_v5,2020.2.10,Win32,60,61025ae37ef11b136ea224fe,,,,,,,,,1090,42.00002033,85.99999183,1,0,0,response1disk,,7,-1.3333143,-1.07288E-05,1,0,0,rectangle,-1.3333143,-1.07288E-05,1,0,0,-1.3333143,-1.07288E-05,1,0,0,0,99,99,36,1,,,,,,,,
,,,,,,,,,,,,,FF,,,,,,,,1.1838,,,,,,,,,,,,,,,,,,,,,,60fe0193128d5101aada7200,61036722e74451882cc127cd,2021-07-29_22h44.18.125,Simcolourproject_2stim_asymm_v5,2020.2.10,Win32,60,61025ae37ef11b136ea224fe,,,,,,,,,700,28.00001991,-80.6666798,1,0,0,response3disk,,4,0.66668576,6.666656137,1,0,0,rectangle,0.66668576,6.666656137,1,0,0,0.66668576,6.666656137,1,0,0,0,100,100,33,1,,,,,,,,
,,,,,,,,,,,,,FF,,,,,,,,0.8012,,,,,,,,,,,,,,,,,,,,,,60fe0193128d5101aada7200,61036722e74451882cc127cd,2021-07-29_22h44.18.125,Simcolourproject_2stim_asymm_v5,2020.2.10,Win32,60,61025ae37ef11b136ea224fe,,,,,,,,,2485,29.33339397,-90.00001341,1,0,0,response3disk,,4,14.00001949,7.99998951,1,0,0,rectangle,14.00001949,7.99998951,1,0,0,14.00001949,7.99998951,1,0,0,0,101,101,144,1,,,,,,,,
,,,,,,,,,,,,,FF,,,,,,,,1.0843,,,,,,,,,,,,,,,,,,,,,,60fe0193128d5101aada7200,61036722e74451882cc127cd,2021-07-29_22h44.18.125,Simcolourproject_2stim_asymm_v5,2020.2.10,Win32,60,61025ae37ef11b136ea224fe,,,,,,,,,970,-51.33331579,-62.00001258,1,0,0,response5disk,,3,-6.666607102,4.666656077,1,0,0,rectangle,-6.666607102,4.666656077,1,0,0,-6.666607102,4.666656077,1,0,0,0,102,102,34,1,,,,,,,,
,,,,,,,,,,,,,FF,,,,,,,,1.2814,,,,,,,,,,,,,,,,,,,,,,60fe0193128d5101aada7200,61036722e74451882cc127cd,2021-07-29_22h44.18.125,Simcolourproject_2stim_asymm_v5,2020.2.10,Win32,60,61025ae37ef11b136ea224fe,,,,,,,,,1257,33.33339409,105.3333257,1,0,0,response1disk,,7,4.000019193,11.33332294,1,0,0,rectangle,4.000019193,11.33332294,1,0,0,4.000019193,11.33332294,1,0,0,0,103,103,126,1,,,,,,,,
,,,,,,,,,,,,,FF,,,,,,,,1.9671,,,,,,,,,,,,,,,,,,,,,,60fe0193128d5101aada7200,61036722e74451882cc127cd,2021-07-29_22h44.18.125,Simcolourproject_2stim_asymm_v5,2020.2.10,Win32,60,61025ae37ef11b136ea224fe,,,,,,,,,1148,70.00002116,42.66665721,1,0,0,response1disk,,6,10.66668606,6.666656137,1,0,0,rectangle,10.66668606,6.666656137,1,0,0,10.66668606,6.666656137,1,0,0,0,104,104,73,1,,,,,,,,
,,,,,,,,,,,,,FF,,,,,,,,1.3535,,,,,,,,,,,,,,,,,,,,,,60fe0193128d5101aada7200,61036722e74451882cc127cd,2021-07-29_22h44.18.125,Simcolourproject_2stim_asymm_v5,2020.2.10,Win32,60,61025ae37ef11b136ea224fe,,,,,,,,,3436,-27.33331507,-66.66667938,1,0,0,response5disk,,3,5.333393256,13.333323,1,0,0,rectangle,5.333393256,13.333323,1,0,0,5.333393256,13.333323,1,0,0,0,105,105,99,1,,,,,,,,
,,,,,,,,,,,,,FF,,,,,,,,2.8213,,,,,,,,,,,,,,,,,,,,,,60fe0193128d5101aada7200,61036722e74451882cc127cd,2021-07-29_22h44.18.125,Simcolourproject_2stim_asymm_v5,2020.2.10,Win32,60,61025ae37ef11b136ea224fe,,,,,,,,,1961,40.00002027,-92.66668016,1,0,0,response3disk,,4,8.666685998,-1.333344102,1,0,0,rectangle,8.666685998,-1.333344102,1,0,0,8.666685998,-1.333344102,1,0,0,0,106,106,61,1,,,,,,,,
,,,,,,,,,,,,,FF,,,,,,,,0.8176,,,,,,,,,,,,,,,,,,,,,,60fe0193128d5101aada7200,61036722e74451882cc127cd,2021-07-29_22h44.18.125,Simcolourproject_2stim_asymm_v5,2020.2.10,Win32,60,61025ae37ef11b136ea224fe,,,,,,,,,2020,34.66668677,101.9999923,1,0,0,response1disk,,7,-10.66660722,-0.666677415,1,0,0,rectangle,-10.66660722,-0.666677415,1,0,0,-10.66660722,-0.666677415,1,0,0,0,107,107,78,1,,,,,,,,
,,,,,,,,,,,,,FF,,,,,,,,0.7138,,,,,,,,,,,,,,,,,,,,,,60fe0193128d5101aada7200,61036722e74451882cc127cd,2021-07-29_22h44.18.125,Simcolourproject_2stim_asymm_v5,2020.2.10,Win32,60,61025ae37ef11b136ea224fe,,,,,,,,,2310,35.33339415,63.33330415,1,0,0,response1disk,,7,10.66668606,2.666656017,1,0,0,rectangle,10.66668606,2.666656017,1,0,0,10.66668606,2.666656017,1,0,0,0,108,108,32,1,,,,,,,,
,,,,,,,,,,,,,FF,,,,,,,,1.3672,,,,,,,,,,,,,,,,,,,,,,60fe0193128d5101aada7200,61036722e74451882cc127cd,2021-07-29_22h44.18.125,Simcolourproject_2stim_asymm_v5,2020.2.10,Win32,60,61025ae37ef11b136ea224fe,,,,,,,,,833,44.66668707,85.3333048,1,0,0,response1disk,,7,6.666685939,3.333322704,1,0,0,rectangle,6.666685939,3.333322704,1,0,0,6.666685939,3.333322704,1,0,0,0,109,109,31,1,,,,,,,,
,,,,,,,,,,,,,FF,,,,,,,,0.5539,,,,,,,,,,,,,,,,,,,,,,60fe0193128d5101aada7200,61036722e74451882cc127cd,2021-07-29_22h44.18.125,Simcolourproject_2stim_asymm_v5,2020.2.10,Win32,60,61025ae37ef11b136ea224fe,,,,,,,,,2003,34.00002009,43.33330355,1,0,0,response1disk,,7,13.33339349,1.333322644,1,0,0,rectangle,13.33339349,1.333322644,1,0,0,13.33339349,1.333322644,1,0,0,0,110,110,48,1,,,,,,,,
,,,,,,,,,,,,,FF,,,,,,,,0.4713,,,,,,,,,,,,,,,,,,,,,,60fe0193128d5101aada7200,61036722e74451882cc127cd,2021-07-29_22h44.18.125,Simcolourproject_2stim_asymm_v5,2020.2.10,Win32,60,61025ae37ef11b136ea224fe,,,,,,,,,2538,44.66668707,75.99999154,1,0,0,response1disk,,7,-2.666606983,12.66665632,1,0,0,rectangle,-2.666606983,12.66665632,1,0,0,-2.666606983,12.66665632,1,0,0,0,111,111,114,1,,,,,,,,
,,,,,,,,,,,,,FF,,,,,,,,1.4708,,,,,,,,,,,,,,,,,,,,,,60fe0193128d5101aada7200,61036722e74451882cc127cd,2021-07-29_22h44.18.125,Simcolourproject_2stim_asymm_v5,2020.2.10,Win32,60,61025ae37ef11b136ea224fe,,,,,,,,,2764,27.33339391,57.33330397,1,0,0,response1disk,,7,4.666685879,10.66665626,1,0,0,rectangle,4.666685879,10.66665626,1,0,0,4.666685879,10.66665626,1,0,0,0,112,112,4,1,,,,,,,,
,,,,,,,,,,,,,FF,,,,,,,,0.4837,,,,,,,,,,,,,,,,,,,,,,60fe0193128d5101aada7200,61036722e74451882cc127cd,2021-07-29_22h44.18.125,Simcolourproject_2stim_asymm_v5,2020.2.10,Win32,60,61025ae37ef11b136ea224fe,,,,,,,,,2330,28.00001991,55.99999094,1,0,0,response1disk,,7,4.000019193,11.99998963,1,0,0,rectangle,4.000019193,11.99998963,1,0,0,4.000019193,11.99998963,1,0,0,0,113,113,37,1,,,,,,,,
,,,,,,,,,,,,,FF,,,,,,,,1.7059,,,,,,,,,,,,,,,,,,,,,,60fe0193128d5101aada7200,61036722e74451882cc127cd,2021-07-29_22h44.18.125,Simcolourproject_2stim_asymm_v5,2020.2.10,Win32,60,61025ae37ef11b136ea224fe,,,,,,,,,2487,66.66668773,-32.00001168,1,0,0,response3disk,,5,13.33339349,1.333322644,1,0,0,rectangle,13.33339349,1.333322644,1,0,0,13.33339349,1.333322644,1,0,0,0,114,114,119,1,,,,,,,,
,,,,,,,,,,,,,FF,,,,,,,,1.7841,,,,,,,,,,,,,,,,,,,,,,60fe0193128d5101aada7200,61036722e74451882cc127cd,2021-07-29_22h44.18.125,Simcolourproject_2stim_asymm_v5,2020.2.10,Win32,60,61025ae37ef11b136ea224fe,,,,,,,,,563,82.6666882,60.66665775,1,0,0,response1disk,,6,3.333393196,-4.000010848,1,0,0,rectangle,3.333393196,-4.000010848,1,0,0,3.333393196,-4.000010848,1,0,0,0,115,115,64,1,,,,,,,,
,,,,,,,,,,,,,FF,,,,,,,,0.9345,,,,,,,,,,,,,,,,,,,,,,60fe0193128d5101aada7200,61036722e74451882cc127cd,2021-07-29_22h44.18.125,Simcolourproject_2stim_asymm_v5,2020.2.10,Win32,60,61025ae37ef11b136ea224fe,,,,,,,,,2857,34.00002009,67.9999913,1,0,0,response1disk,,7,-3.333314359,9.333322883,1,0,0,rectangle,-3.333314359,9.333322883,1,0,0,-3.333314359,9.333322883,1,0,0,0,116,116,152,1,,,,,,,,
,,,,,,,,,,,,,FF,,,,,,,,0.7141,,,,,,,,,,,,,,,,,,,,,,60fe0193128d5101aada7200,61036722e74451882cc127cd,2021-07-29_22h44.18.125,Simcolourproject_2stim_asymm_v5,2020.2.10,Win32,60,61025ae37ef11b136ea224fe,,,,,,,,,2909,24.66668648,57.33330397,1,0,0,response1disk,,7,4.666685879,6.666656137,1,0,0,rectangle,4.666685879,6.666656137,1,0,0,4.666685879,6.666656137,1,0,0,0,117,117,13,1,,,,,,,,
,,,,,,,,,,,,,FF,,,,,,,,1.6336,,,,,,,,,,,,,,,,,,,,,,60fe0193128d5101aada7200,61036722e74451882cc127cd,2021-07-29_22h44.18.125,Simcolourproject_2stim_asymm_v5,2020.2.10,Win32,60,61025ae37ef11b136ea224fe,,,,,,,,,3338,56.00002074,-54.66667902,1,0,0,response3disk,,5,-5.999981105,4.666656077,1,0,0,rectangle,-5.999981105,4.666656077,1,0,0,-5.999981105,4.666656077,1,0,0,0,118,118,21,1,,,,,,,,
,,,,,,,,,,,,,FF,,,,,,,,0.6009,,,,,,,,,,,,,,,,,,,,,,60fe0193128d5101aada7200,61036722e74451882cc127cd,2021-07-29_22h44.18.125,Simcolourproject_2stim_asymm_v5,2020.2.10,Win32,60,61025ae37ef11b136ea224fe,,,,,,,,,4068,26.00001985,65.33330421,1,0,0,response1disk,,7,1.333393137,-5.333344221,1,0,0,rectangle,1.333393137,-5.333344221,1,0,0,1.333393137,-5.333344221,1,0,0,0,119,119,14,1,,,,,,,,
,,,,,,,,,,,,,FF,,,,,,,,0.8176,,,,,,,,,,,,,,,,,,,,,,60fe0193128d5101aada7200,61036722e74451882cc127cd,2021-07-29_22h44.18.125,Simcolourproject_2stim_asymm_v5,2020.2.10,Win32,60,61025ae37ef11b136ea224fe,,,,,,,,,2490,60.66668755,-33.33334506,1,0,0,response3disk,,5,20.00001967,-3.333344162,1,0,0,rectangle,20.00001967,-3.333344162,1,0,0,20.00001967,-3.333344162,1,0,0,0,120,120,6,1,,,,,,,,
,,,,,,,,,,,,,FF,,,,,,,,6.2817,,,,,,,,,,,,,,,,,,,,,,60fe0193128d5101aada7200,61036722e74451882cc127cd,2021-07-29_22h44.18.125,Simcolourproject_2stim_asymm_v5,2020.2.10,Win32,60,61025ae37ef11b136ea224fe,,,,,,,,,1923,37.33339421,60.66665775,1,0,0,response1disk,,7,28.66668659,4.666656077,1,0,0,rectangle,28.66668659,4.666656077,1,0,0,28.66668659,4.666656077,1,0,0,0,121,121,39,1,,,,,,,,
,,,,,,,,,,,,,FF,,,,,,,,0.5677,,,,,,,,,,,,,,,,,,,,,,60fe0193128d5101aada7200,61036722e74451882cc127cd,2021-07-29_22h44.18.125,Simcolourproject_2stim_asymm_v5,2020.2.10,Win32,60,61025ae37ef11b136ea224fe,,,,,,,,,3963,34.00002009,65.99999124,1,0,0,response1disk,,7,-14.66660734,-2.000010788,1,0,0,rectangle,-14.66660734,-2.000010788,1,0,0,-14.66660734,-2.000010788,1,0,0,0,122,122,101,1,,,,,,,,
,,,,,,,,,,,,,FF,,,,,,,,1.101,,,,,,,,,,,,,,,,,,,,,,60fe0193128d5101aada7200,61036722e74451882cc127cd,2021-07-29_22h44.18.125,Simcolourproject_2stim_asymm_v5,2020.2.10,Win32,60,61025ae37ef11b136ea224fe,,,,,,,,,3141,18.00001961,61.33330409,1,0,0,response1disk,,7,-9.333314538,7.333322823,1,0,0,rectangle,-9.333314538,7.333322823,1,0,0,-9.333314538,7.333322823,1,0,0,0,123,123,42,1,,,,,,,,
,,,,,,,,,,,,,FF,,,,,,,,1.8536,,,,,,,,,,,,,,,,,,,,,,60fe0193128d5101aada7200,61036722e74451882cc127cd,2021-07-29_22h44.18.125,Simcolourproject_2stim_asymm_v5,2020.2.10,Win32,60,61025ae37ef11b136ea224fe,,,,,,,,,4345,-39.99998212,-75.33334631,1,0,0,response5disk,,3,-8.666607161,5.99998945,1,0,0,rectangle,-8.666607161,5.99998945,1,0,0,-8.666607161,5.99998945,1,0,0,0,124,124,84,1,,,,,,,,
,,,,,,,,,,,,,FF,,,,,,,,0.6039,,,,,,,,,,,,,,,,,,,,,,60fe0193128d5101aada7200,61036722e74451882cc127cd,2021-07-29_22h44.18.125,Simcolourproject_2stim_asymm_v5,2020.2.10,Win32,60,61025ae37ef11b136ea224fe,,,,,,,,,800,34.66668677,91.99999201,1,0,0,response1disk,,7,-1.999980986,6.666656137,1,0,0,rectangle,-1.999980986,6.666656137,1,0,0,-1.999980986,6.666656137,1,0,0,0,125,125,128,1,,,,,,,,
,,,,,,,,,,,,,FF,,,,,,,,0.8504,,,,,,,,,,,,,,,,,,,,,,60fe0193128d5101aada7200,61036722e74451882cc127cd,2021-07-29_22h44.18.125,Simcolourproject_2stim_asymm_v5,2020.2.10,Win32,60,61025ae37ef11b136ea224fe,,,,,,,,,203,30.00001997,35.99999034,1,0,0,response1disk,,7,8.666685998,13.99998969,1,0,0,rectangle,8.666685998,13.99998969,1,0,0,8.666685998,13.99998969,1,0,0,0,126,126,82,1,,,,,,,,
,,,,,,,,,,,,,FF,,,,,,,,0.7046,,,,,,,,,,,,,,,,,,,,,,60fe0193128d5101aada7200,61036722e74451882cc127cd,2021-07-29_22h44.18.125,Simcolourproject_2stim_asymm_v5,2020.2.10,Win32,60,61025ae37ef11b136ea224fe,,,,,,,,,4231,30.00001997,51.99999082,1,0,0,response1disk,,7,2.000019133,5.99998945,1,0,0,rectangle,2.000019133,5.99998945,1,0,0,2.000019133,5.99998945,1,0,0,0,127,127,43,1,,,,,,,,
,,,,,,,,,,,,,FF,,,,,,,,1.2213,,,,,,,,,,,,,,,,,,,,,,60fe0193128d5101aada7200,61036722e74451882cc127cd,2021-07-29_22h44.18.125,Simcolourproject_2stim_asymm_v5,2020.2.10,Win32,60,61025ae37ef11b136ea224fe,,,,,,,,,2719,-49.33331573,79.33330462,1,0,0,response7disk,,0,6.000019252,3.333322704,1,0,0,rectangle,6.000019252,3.333322704,1,0,0,6.000019252,3.333322704,1,0,0,0,128,128,155,1,,,,,,,,
,,,,,,,,,,,,,FF,,,,,,,,1.3831,,,,,,,,,,,,,,,,,,,,,,60fe0193128d5101aada7200,61036722e74451882cc127cd,2021-07-29_22h44.18.125,Simcolourproject_2stim_asymm_v5,2020.2.10,Win32,60,61025ae37ef11b136ea224fe,,,,,,,,,2950,30.66668665,-71.33334619,1,0,0,response3disk,,4,-3.999981046,1.333322644,1,0,0,rectangle,-3.999981046,1.333322644,1,0,0,-3.999981046,1.333322644,1,0,0,0,129,129,112,1,,,,,,,,
,,,,,,,,,,,,,FF,,,,,,,,0.804,,,,,,,,,,,,,,,,,,,,,,60fe0193128d5101aada7200,61036722e74451882cc127cd,2021-07-29_22h44.18.125,Simcolourproject_2stim_asymm_v5,2020.2.10,Win32,60,61025ae37ef11b136ea224fe,,,,,,,,,3886,33.33339409,55.99999094,1,0,0,response1disk,,7,6.000019252,-0.666677415,1,0,0,rectangle,6.000019252,-0.666677415,1,0,0,6.000019252,-0.666677415,1,0,0,0,130,130,120,1,,,,,,,,
,,,,,,,,,,,,,FF,,,,,,,,0.9503,,,,,,,,,,,,,,,,,,,,,,60fe0193128d5101aada7200,61036722e74451882cc127cd,2021-07-29_22h44.18.125,Simcolourproject_2stim_asymm_v5,2020.2.10,Win32,60,61025ae37ef11b136ea224fe,,,,,,,,,3065,39.33339427,39.99999046,1,0,0,response1disk,,7,19.33339367,-9.33334434,1,0,0,rectangle,67.33335441,-38.00001186,1,0,0,19.33339367,-8.000010967,1,0,0,0,131,131,131,1,,response3disk_3,TRUE,5,5,"[132,240,299,291,140,61,170,323,178,157,308,174,234,47,174,198,5,306,137,24]",1.9968,rectangle
,,,,,,,,,,,,,FF,,,,,,,,0.868,,,,,,,,,,,,,,,,,,,,,,60fe0193128d5101aada7200,61036722e74451882cc127cd,2021-07-29_22h44.18.125,Simcolourproject_2stim_asymm_v5,2020.2.10,Win32,60,61025ae37ef11b136ea224fe,,,,,,,,,4326,-47.99998236,91.33330498,1,0,0,response7disk,,0,18.6666863,3.99998939,1,0,0,rectangle,18.6666863,3.99998939,1,0,0,18.6666863,3.99998939,1,0,0,0,132,132,24,1,,,,,,,,
,,,,,,,,,,,,,FF,,,,,,,,1.0299,,,,,,,,,,,,,,,,,,,,,,60fe0193128d5101aada7200,61036722e74451882cc127cd,2021-07-29_22h44.18.125,Simcolourproject_2stim_asymm_v5,2020.2.10,Win32,60,61025ae37ef11b136ea224fe,,,,,,,,,1686,62.00002092,31.99999022,1,0,0,response1disk,,6,4.000019193,-2.666677475,1,0,0,rectangle,4.000019193,-2.666677475,1,0,0,4.000019193,-2.666677475,1,0,0,0,133,133,150,1,,,,,,,,
,,,,,,,,,,,,,FF,,,,,,,,0.6336,,,,,,,,,,,,,,,,,,,,,,60fe0193128d5101aada7200,61036722e74451882cc127cd,2021-07-29_22h44.18.125,Simcolourproject_2stim_asymm_v5,2020.2.10,Win32,60,61025ae37ef11b136ea224fe,,,,,,,,,290,39.33339427,61.99999112,1,0,0,response1disk,,7,0.66668576,-1.07288E-05,1,0,0,rectangle,0.66668576,-1.07288E-05,1,0,0,0.66668576,-1.07288E-05,1,0,0,0,134,134,148,1,,,,,,,,
,,,,,,,,,,,,,FF,,,,,,,,0.75,,,,,,,,,,,,,,,,,,,,,,60fe0193128d5101aada7200,61036722e74451882cc127cd,2021-07-29_22h44.18.125,Simcolourproject_2stim_asymm_v5,2020.2.10,Win32,60,61025ae37ef11b136ea224fe,,,,,,,,,135,34.00002009,49.33330373,1,0,0,response1disk,,7,-0.666606923,-1.07288E-05,1,0,0,rectangle,-0.666606923,-1.07288E-05,1,0,0,-0.666606923,-1.07288E-05,1,0,0,0,135,135,58,1,,,,,,,,
,,,,,,,,,,,,,FF,,,,,,,,0.7004,,,,,,,,,,,,,,,,,,,,,,60fe0193128d5101aada7200,61036722e74451882cc127cd,2021-07-29_22h44.18.125,Simcolourproject_2stim_asymm_v5,2020.2.10,Win32,60,61025ae37ef11b136ea224fe,,,,,,,,,3456,35.33339415,81.33330468,1,0,0,response1disk,,7,-8.666607161,10.66665626,1,0,0,rectangle,-37.33331537,-71.33334619,1,0,0,-0.666606923,-0.666677415,1,0,0,0,136,136,83,1,,response5disk_3,TRUE,3,3,"[132,240,299,291,140,61,170,323,178,157,308,174,234,47,174,198,5,306,137,24]",1.9999,rectangle
,,,,,,,,,,,,,FF,,,,,,,,0.6838,,,,,,,,,,,,,,,,,,,,,,60fe0193128d5101aada7200,61036722e74451882cc127cd,2021-07-29_22h44.18.125,Simcolourproject_2stim_asymm_v5,2020.2.10,Win32,60,61025ae37ef11b136ea224fe,,,,,,,,,2059,42.00002033,81.33330468,1,0,0,response1disk,,7,16.66668624,11.99998963,1,0,0,rectangle,16.66668624,11.99998963,1,0,0,16.66668624,11.99998963,1,0,0,0,137,137,17,1,,,,,,,,
,,,,,,,,,,,,,FF,,,,,,,,0.5667,,,,,,,,,,,,,,,,,,,,,,60fe0193128d5101aada7200,61036722e74451882cc127cd,2021-07-29_22h44.18.125,Simcolourproject_2stim_asymm_v5,2020.2.10,Win32,60,61025ae37ef11b136ea224fe,,,,,,,,,3619,28.00001991,41.33330349,1,0,0,response1disk,,7,12.66668612,-0.666677415,1,0,0,rectangle,12.66668612,-0.666677415,1,0,0,12.66668612,-0.666677415,1,0,0,0,138,138,71,1,,,,,,,,
,,,,,,,,,,,,,FF,,,,,,,,0.5671,,,,,,,,,,,,,,,,,,,,,,60fe0193128d5101aada7200,61036722e74451882cc127cd,2021-07-29_22h44.18.125,Simcolourproject_2stim_asymm_v5,2020.2.10,Win32,60,61025ae37ef11b136ea224fe,,,,,,,,,64,27.33339391,59.99999106,1,0,0,response1disk,,7,2.66668582,2.666656017,1,0,0,rectangle,22.00001973,-94.66668022,1,0,0,16.66668624,1.333322644,1,0,0,0,139,139,23,1,,response3disk_3,TRUE,4,4,"[132,240,299,291,140,61,170,323,178,157,308,174,234,47,174,198,5,306,137,24]",1.7835,rectangle
,,,,,,,,,,,,,FF,,,,,,,,1.3512,,,,,,,,,,,,,,,,,,,,,,60fe0193128d5101aada7200,61036722e74451882cc127cd,2021-07-29_22h44.18.125,Simcolourproject_2stim_asymm_v5,2020.2.10,Win32,60,61025ae37ef11b136ea224fe,,,,,,,,,1500,36.00002015,92.6666587,1,0,0,response1disk,,7,0.66668576,-5.333344221,1,0,0,rectangle,0.66668576,-5.333344221,1,0,0,0.66668576,-5.333344221,1,0,0,0,140,140,137,1,,,,,,,,
,,,,,,,,,,,,,FF,,,,,,,,1.186,,,,,,,,,,,,,,,,,,,,,,60fe0193128d5101aada7200,61036722e74451882cc127cd,2021-07-29_22h44.18.125,Simcolourproject_2stim_asymm_v5,2020.2.10,Win32,60,61025ae37ef11b136ea224fe,,,,,,,,,1982,29.33339397,89.33330492,1,0,0,response1disk,,7,-7.999981165,-0.666677415,1,0,0,rectangle,-7.999981165,-0.666677415,1,0,0,-7.999981165,-0.666677415,1,0,0,0,141,141,80,1,,,,,,,,
,,,,,,,,,,,,,FF,,,,,,,,0.9839,,,,,,,,,,,,,,,,,,,,,,60fe0193128d5101aada7200,61036722e74451882cc127cd,2021-07-29_22h44.18.125,Simcolourproject_2stim_asymm_v5,2020.2.10,Win32,60,61025ae37ef11b136ea224fe,,,,,,,,,2931,25.33339385,63.33330415,1,0,0,response1disk,,7,8.000019312,9.333322883,1,0,0,rectangle,8.000019312,9.333322883,1,0,0,8.000019312,9.333322883,1,0,0,0,142,142,157,1,,,,,,,,
,,,,,,,,,,,,,FF,,,,,,,,1.3483,,,,,,,,,,,,,,,,,,,,,,60fe0193128d5101aada7200,61036722e74451882cc127cd,2021-07-29_22h44.18.125,Simcolourproject_2stim_asymm_v5,2020.2.10,Win32,60,61025ae37ef11b136ea224fe,,,,,,,,,1807,25.33339385,72.6666581,1,0,0,response1disk,,7,13.33339349,11.99998963,1,0,0,rectangle,13.33339349,11.99998963,1,0,0,13.33339349,11.99998963,1,0,0,0,143,143,113,1,,,,,,,,
,,,,,,,,,,,,,FF,,,,,,,,0.6319,,,,,,,,,,,,,,,,,,,,,,60fe0193128d5101aada7200,61036722e74451882cc127cd,2021-07-29_22h44.18.125,Simcolourproject_2stim_asymm_v5,2020.2.10,Win32,60,61025ae37ef11b136ea224fe,,,,,,,,,2337,41.33339433,54.66665757,1,0,0,response1disk,,7,12.00001943,11.33332294,1,0,0,rectangle,12.00001943,11.33332294,1,0,0,12.00001943,11.33332294,1,0,0,0,144,144,40,1,,,,,,,,
,,,,,,,,,,,,,FF,,,,,,,,0.6332,,,,,,,,,,,,,,,,,,,,,,60fe0193128d5101aada7200,61036722e74451882cc127cd,2021-07-29_22h44.18.125,Simcolourproject_2stim_asymm_v5,2020.2.10,Win32,60,61025ae37ef11b136ea224fe,,,,,,,,,3587,24.00001979,52.66665751,1,0,0,response1disk,,7,-5.333314419,1.999989331,1,0,0,rectangle,-5.333314419,1.999989331,1,0,0,-5.333314419,1.999989331,1,0,0,0,145,145,46,1,,,,,,,,
,,,,,,,,,,,,,FF,,,,,,,,1.5677,,,,,,,,,,,,,,,,,,,,,,60fe0193128d5101aada7200,61036722e74451882cc127cd,2021-07-29_22h44.18.125,Simcolourproject_2stim_asymm_v5,2020.2.10,Win32,60,61025ae37ef11b136ea224fe,,,,,,,,,3155,77.33335471,-34.00001174,1,0,0,response3disk,,5,1.333393137,9.333322883,1,0,0,rectangle,1.333393137,9.333322883,1,0,0,1.333393137,9.333322883,1,0,0,0,146,146,103,1,,,,,,,,
,,,,,,,,,,,,,FF,,,,,,,,1.3345,,,,,,,,,,,,,,,,,,,,,,60fe0193128d5101aada7200,61036722e74451882cc127cd,2021-07-29_22h44.18.125,Simcolourproject_2stim_asymm_v5,2020.2.10,Win32,60,61025ae37ef11b136ea224fe,,,,,,,,,607,74.00002128,26.66665673,1,0,0,response1disk,,6,16.00001955,-0.666677415,1,0,0,rectangle,16.00001955,-0.666677415,1,0,0,16.00001955,-0.666677415,1,0,0,0,147,147,12,1,,,,,,,,
,,,,,,,,,,,,,FF,,,,,,,,0.8652,,,,,,,,,,,,,,,,,,,,,,60fe0193128d5101aada7200,61036722e74451882cc127cd,2021-07-29_22h44.18.125,Simcolourproject_2stim_asymm_v5,2020.2.10,Win32,60,61025ae37ef11b136ea224fe,,,,,,,,,641,26.66668653,-57.33334577,1,0,0,response3disk,,4,13.33339349,-11.3333444,1,0,0,rectangle,13.33339349,-11.3333444,1,0,0,13.33339349,-11.3333444,1,0,0,0,148,148,28,1,,,,,,,,
,,,,,,,,,,,,,FF,,,,,,,,0.6531,,,,,,,,,,,,,,,,,,,,,,60fe0193128d5101aada7200,61036722e74451882cc127cd,2021-07-29_22h44.18.125,Simcolourproject_2stim_asymm_v5,2020.2.10,Win32,60,61025ae37ef11b136ea224fe,,,,,,,,,2973,16.66668624,41.99999052,1,0,0,response1disk,,7,9.333393375,-6.666677594,1,0,0,rectangle,9.333393375,-6.666677594,1,0,0,9.333393375,-6.666677594,1,0,0,0,149,149,85,1,,,,,,,,
,,,,,,,,,,,,,FF,,,,,,,,0.8671,,,,,,,,,,,,,,,,,,,,,,60fe0193128d5101aada7200,61036722e74451882cc127cd,2021-07-29_22h44.18.125,Simcolourproject_2stim_asymm_v5,2020.2.10,Win32,60,61025ae37ef11b136ea224fe,,,,,,,,,815,43.3333537,-27.33334488,1,0,0,response3disk,,5,5.333393256,13.99998969,1,0,0,rectangle,5.333393256,13.99998969,1,0,0,5.333393256,13.99998969,1,0,0,0,150,150,134,1,,,,,,,,
,,,,,,,,,,,,,FF,,,,,,,,0.8645,,,,,,,,,,,,,,,,,,,,,,60fe0193128d5101aada7200,61036722e74451882cc127cd,2021-07-29_22h44.18.125,Simcolourproject_2stim_asymm_v5,2020.2.10,Win32,60,61025ae37ef11b136ea224fe,,,,,,,,,2249,23.33339379,46.66665733,1,0,0,response1disk,,7,11.33339343,13.333323,1,0,0,rectangle,11.33339343,13.333323,1,0,0,11.33339343,13.333323,1,0,0,0,151,151,92,1,,,,,,,,
,,,,,,,,,,,,,FF,,,,,,,,0.7201,,,,,,,,,,,,,,,,,,,,,,60fe0193128d5101aada7200,61036722e74451882cc127cd,2021-07-29_22h44.18.125,Simcolourproject_2stim_asymm_v5,2020.2.10,Win32,60,61025ae37ef11b136ea224fe,,,,,,,,,2550,20.00001967,53.99999088,1,0,0,response1disk,,7,20.00001967,-14.00001115,1,0,0,rectangle,20.00001967,-14.00001115,1,0,0,20.00001967,-14.00001115,1,0,0,0,152,152,133,1,,,,,,,,
,,,,,,,,,,,,,FF,,,,,,,,1.0501,,,,,,,,,,,,,,,,,,,,,,60fe0193128d5101aada7200,61036722e74451882cc127cd,2021-07-29_22h44.18.125,Simcolourproject_2stim_asymm_v5,2020.2.10,Win32,60,61025ae37ef11b136ea224fe,,,,,,,,,2543,22.00001973,-33.33334506,1,0,0,response3disk,,4,13.33339349,-1.333344102,1,0,0,rectangle,13.33339349,-1.333344102,1,0,0,13.33339349,-1.333344102,1,0,0,0,153,153,135,1,,,,,,,,
,,,,,,,,,,,,,FF,,,,,,,,0.6514,,,,,,,,,,,,,,,,,,,,,,60fe0193128d5101aada7200,61036722e74451882cc127cd,2021-07-29_22h44.18.125,Simcolourproject_2stim_asymm_v5,2020.2.10,Win32,60,61025ae37ef11b136ea224fe,,,,,,,,,3132,18.00001961,59.99999106,1,0,0,response1disk,,7,8.666685998,7.333322823,1,0,0,rectangle,8.666685998,7.333322823,1,0,0,8.666685998,7.333322823,1,0,0,0,154,154,98,1,,,,,,,,
,,,,,,,,,,,,,FF,,,,,,,,0.9651,,,,,,,,,,,,,,,,,,,,,,60fe0193128d5101aada7200,61036722e74451882cc127cd,2021-07-29_22h44.18.125,Simcolourproject_2stim_asymm_v5,2020.2.10,Win32,60,61025ae37ef11b136ea224fe,,,,,,,,,3485,30.00001997,51.33330379,1,0,0,response1disk,,7,16.00001955,1.333322644,1,0,0,rectangle,16.00001955,1.333322644,1,0,0,16.00001955,1.333322644,1,0,0,0,155,155,62,1,,,,,,,,
,,,,,,,,,,,,,FF,,,,,,,,0.5005,,,,,,,,,,,,,,,,,,,,,,60fe0193128d5101aada7200,61036722e74451882cc127cd,2021-07-29_22h44.18.125,Simcolourproject_2stim_asymm_v5,2020.2.10,Win32,60,61025ae37ef11b136ea224fe,,,,,,,,,2213,32.00002003,68.66665798,1,0,0,response1disk,,7,1.9735E-05,9.333322883,1,0,0,rectangle,-102.66661,17.33332312,1,0,0,-15.9999814,-8.000010967,1,0,0,0,156,156,75,1,,response7disk_3,TRUE,1,1,"[132,240,299,291,140,61,170,323,178,157,308,174,234,47,174,198,5,306,137,24]",1.6167,rectangle
,,,,,,,,,,,,,FF,,,,,,,,0.7311,,,,,,,,,,,,,,,,,,,,,,60fe0193128d5101aada7200,61036722e74451882cc127cd,2021-07-29_22h44.18.125,Simcolourproject_2stim_asymm_v5,2020.2.10,Win32,60,61025ae37ef11b136ea224fe,,,,,,,,,2567,44.00002038,80.66665834,1,0,0,response1disk,,7,1.9735E-05,1.333322644,1,0,0,rectangle,1.9735E-05,1.333322644,1,0,0,1.9735E-05,1.333322644,1,0,0,0,157,157,25,1,,,,,,,,
,,,,,,,,,,,,,FF,,,,,,,,0.6537,,,,,,,,,,,,,,,,,,,,,,60fe0193128d5101aada7200,61036722e74451882cc127cd,2021-07-29_22h44.18.125,Simcolourproject_2stim_asymm_v5,2020.2.10,Win32,60,61025ae37ef11b136ea224fe,,,,,,,,,58,34.00002009,57.33330397,1,0,0,response1disk,,7,-2.666606983,-11.3333444,1,0,0,rectangle,-2.666606983,-11.3333444,1,0,0,-2.666606983,-11.3333444,1,0,0,0,158,158,121,1,,,,,,,,
,,,,,,,,,,,,,FF,,,,,,,,0.568,,,,,,,,,,,,,,,,,,,,,,60fe0193128d5101aada7200,61036722e74451882cc127cd,2021-07-29_22h44.18.125,Simcolourproject_2stim_asymm_v5,2020.2.10,Win32,60,61025ae37ef11b136ea224fe,,,,,,,,,3308,52.00002062,53.33330385,1,0,0,response1disk,,7,12.66668612,5.99998945,1,0,0,rectangle,12.66668612,5.99998945,1,0,0,12.66668612,5.99998945,1,0,0,0,159,159,68,1,,,,,,,,
,,,,,,,,,,,,,FF,,,,,,,,0.6504,,,,,,,,,,,,,,,,,,,,,,60fe0193128d5101aada7200,61036722e74451882cc127cd,2021-07-29_22h44.18.125,Simcolourproject_2stim_asymm_v5,2020.2.10,Win32,60,61025ae37ef11b136ea224fe,,,,,,,,,2191,48.66668719,73.33330444,1,0,0,response1disk,,7,1.333393137,13.333323,1,0,0,rectangle,1.333393137,13.333323,1,0,0,1.333393137,13.333323,1,0,0,1,0,160,152,1,,,,,,,,
,,,,,,,,,,,,,FF,,,,,,,,0.548,,,,,,,,,,,,,,,,,,,,,,60fe0193128d5101aada7200,61036722e74451882cc127cd,2021-07-29_22h44.18.125,Simcolourproject_2stim_asymm_v5,2020.2.10,Win32,60,61025ae37ef11b136ea224fe,,,,,,,,,19,34.00002009,49.33330373,1,0,0,response1disk,,7,1.333393137,3.99998939,1,0,0,rectangle,1.333393137,3.99998939,1,0,0,1.333393137,3.99998939,1,0,0,1,1,161,150,1,,,,,,,,
,,,,,,,,,,,,,FF,,,,,,,,0.6371,,,,,,,,,,,,,,,,,,,,,,60fe0193128d5101aada7200,61036722e74451882cc127cd,2021-07-29_22h44.18.125,Simcolourproject_2stim_asymm_v5,2020.2.10,Win32,60,61025ae37ef11b136ea224fe,,,,,,,,,591,41.33339433,52.66665751,1,0,0,response1disk,,7,-3.999981046,-1.07288E-05,1,0,0,rectangle,-3.999981046,-1.07288E-05,1,0,0,-3.999981046,-1.07288E-05,1,0,0,1,2,162,109,1,,,,,,,,
,,,,,,,,,,,,,FF,,,,,,,,1.1837,,,,,,,,,,,,,,,,,,,,,,60fe0193128d5101aada7200,61036722e74451882cc127cd,2021-07-29_22h44.18.125,Simcolourproject_2stim_asymm_v5,2020.2.10,Win32,60,61025ae37ef11b136ea224fe,,,,,,,,,2727,75.33335465,27.99999011,1,0,0,response1disk,,6,-4.666607042,3.333322704,1,0,0,rectangle,-4.666607042,3.333322704,1,0,0,-4.666607042,3.333322704,1,0,0,1,3,163,77,1,,,,,,,,
,,,,,,,,,,,,,FF,,,,,,,,1.0681,,,,,,,,,,,,,,,,,,,,,,60fe0193128d5101aada7200,61036722e74451882cc127cd,2021-07-29_22h44.18.125,Simcolourproject_2stim_asymm_v5,2020.2.10,Win32,60,61025ae37ef11b136ea224fe,,,,,,,,,2093,-36.666608,53.99999088,1,0,0,response7disk,,0,-19.99998152,-5.333344221,1,0,0,rectangle,-19.99998152,-5.333344221,1,0,0,-19.99998152,-5.333344221,1,0,0,1,4,164,65,1,,,,,,,,
,,,,,,,,,,,,,FF,,,,,,,,1.6314,,,,,,,,,,,,,,,,,,,,,,60fe0193128d5101aada7200,61036722e74451882cc127cd,2021-07-29_22h44.18.125,Simcolourproject_2stim_asymm_v5,2020.2.10,Win32,60,61025ae37ef11b136ea224fe,,,,,,,,,2733,76.00002134,54.66665757,1,0,0,response1disk,,6,-10.66660722,-8.666677654,1,0,0,rectangle,-10.66660722,-8.666677654,1,0,0,-10.66660722,-8.666677654,1,0,0,1,5,165,135,1,,,,,,,,
,,,,,,,,,,,,,FF,,,,,,,,0.8326,,,,,,,,,,,,,,,,,,,,,,60fe0193128d5101aada7200,61036722e74451882cc127cd,2021-07-29_22h44.18.125,Simcolourproject_2stim_asymm_v5,2020.2.10,Win32,60,61025ae37ef11b136ea224fe,,,,,,,,,2859,74.66668797,26.66665673,1,0,0,response1disk,,6,7.333393315,9.333322883,1,0,0,rectangle,7.333393315,9.333322883,1,0,0,7.333393315,9.333322883,1,0,0,1,6,166,29,1,,,,,,,,
,,,,,,,,,,,,,FF,,,,,,,,0.4167,,,,,,,,,,,,,,,,,,,,,,60fe0193128d5101aada7200,61036722e74451882cc127cd,2021-07-29_22h44.18.125,Simcolourproject_2stim_asymm_v5,2020.2.10,Win32,60,61025ae37ef11b136ea224fe,,,,,,,,,1339,75.33335465,81.99999171,1,0,0,response1disk,,7,21.33339373,5.99998945,1,0,0,rectangle,21.33339373,5.99998945,1,0,0,21.33339373,5.99998945,1,0,0,1,7,167,127,1,,,,,,,,
,,,,,,,,,,,,,FF,,,,,,,,0.4336,,,,,,,,,,,,,,,,,,,,,,60fe0193128d5101aada7200,61036722e74451882cc127cd,2021-07-29_22h44.18.125,Simcolourproject_2stim_asymm_v5,2020.2.10,Win32,60,61025ae37ef11b136ea224fe,,,,,,,,,1028,49.33335388,92.6666587,1,0,0,response1disk,,7,-5.333314419,11.99998963,1,0,0,rectangle,-5.333314419,11.99998963,1,0,0,-5.333314419,11.99998963,1,0,0,1,8,168,41,1,,,,,,,,
,,,,,,,,,,,,,FF,,,,,,,,0.4313,,,,,,,,,,,,,,,,,,,,,,60fe0193128d5101aada7200,61036722e74451882cc127cd,2021-07-29_22h44.18.125,Simcolourproject_2stim_asymm_v5,2020.2.10,Win32,60,61025ae37ef11b136ea224fe,,,,,,,,,3043,35.33339415,62.66665781,1,0,0,response1disk,,7,5.333393256,5.99998945,1,0,0,rectangle,-63.33331615,-26.66667819,1,0,0,-1.999980986,13.333323,1,0,0,1,9,169,159,1,,response5disk_3,TRUE,2,2,"[132,240,299,291,140,61,170,323,178,157,308,174,234,47,174,198,5,306,137,24]",1.298,rectangle
,,,,,,,,,,,,,FF,,,,,,,,1.5535,,,,,,,,,,,,,,,,,,,,,,60fe0193128d5101aada7200,61036722e74451882cc127cd,2021-07-29_22h44.18.125,Simcolourproject_2stim_asymm_v5,2020.2.10,Win32,60,61025ae37ef11b136ea224fe,,,,,,,,,3136,24.00001979,52.66665751,1,0,0,response1disk,,7,2.000019133,11.33332294,1,0,0,rectangle,2.000019133,11.33332294,1,0,0,2.000019133,11.33332294,1,0,0,1,10,170,137,1,,,,,,,,
,,,,,,,,,,,,,FF,,,,,,,,0.6844,,,,,,,,,,,,,,,,,,,,,,60fe0193128d5101aada7200,61036722e74451882cc127cd,2021-07-29_22h44.18.125,Simcolourproject_2stim_asymm_v5,2020.2.10,Win32,60,61025ae37ef11b136ea224fe,,,,,,,,,1174,20.00001967,45.33330361,1,0,0,response1disk,,7,2.000019133,4.666656077,1,0,0,rectangle,2.000019133,4.666656077,1,0,0,2.000019133,4.666656077,1,0,0,1,11,171,44,1,,,,,,,,
,,,,,,,,,,,,,FF,,,,,,,,0.8833,,,,,,,,,,,,,,,,,,,,,,60fe0193128d5101aada7200,61036722e74451882cc127cd,2021-07-29_22h44.18.125,Simcolourproject_2stim_asymm_v5,2020.2.10,Win32,60,61025ae37ef11b136ea224fe,,,,,,,,,1979,67.33335441,17.99998981,1,0,0,response1disk,,6,11.33339343,13.99998969,1,0,0,rectangle,11.33339343,13.99998969,1,0,0,11.33339343,13.99998969,1,0,0,1,12,172,130,1,,,,,,,,
,,,,,,,,,,,,,FF,,,,,,,,0.52,,,,,,,,,,,,,,,,,,,,,,60fe0193128d5101aada7200,61036722e74451882cc127cd,2021-07-29_22h44.18.125,Simcolourproject_2stim_asymm_v5,2020.2.10,Win32,60,61025ae37ef11b136ea224fe,,,,,,,,,3956,25.33339385,103.9999924,1,0,0,response1disk,,7,-6.666607102,9.999989569,1,0,0,rectangle,-41.99998218,-68.66667944,1,0,0,-1.999980986,5.99998945,1,0,0,1,13,173,128,1,,response5disk_3,TRUE,3,3,"[132,240,299,291,140,61,170,323,178,157,308,174,234,47,174,198,5,306,137,24]",1.4002,rectangle
,,,,,,,,,,,,,FF,,,,,,,,2.5503,,,,,,,,,,,,,,,,,,,,,,60fe0193128d5101aada7200,61036722e74451882cc127cd,2021-07-29_22h44.18.125,Simcolourproject_2stim_asymm_v5,2020.2.10,Win32,60,61025ae37ef11b136ea224fe,,,,,,,,,1489,26.00001985,47.33330367,1,0,0,response1disk,,7,1.333393137,3.99998939,1,0,0,rectangle,1.333393137,3.99998939,1,0,0,1.333393137,3.99998939,1,0,0,1,14,174,22,1,,,,,,,,
,,,,,,,,,,,,,FF,,,,,,,,0.7003,,,,,,,,,,,,,,,,,,,,,,60fe0193128d5101aada7200,61036722e74451882cc127cd,2021-07-29_22h44.18.125,Simcolourproject_2stim_asymm_v5,2020.2.10,Win32,60,61025ae37ef11b136ea224fe,,,,,,,,,842,26.66668653,54.66665757,1,0,0,response1disk,,7,-4.666607042,7.333322823,1,0,0,rectangle,-4.666607042,7.333322823,1,0,0,-4.666607042,7.333322823,1,0,0,1,15,175,17,1,,,,,,,,
,,,,,,,,,,,,,FF,,,,,,,,1.2014,,,,,,,,,,,,,,,,,,,,,,60fe0193128d5101aada7200,61036722e74451882cc127cd,2021-07-29_22h44.18.125,Simcolourproject_2stim_asymm_v5,2020.2.10,Win32,60,61025ae37ef11b136ea224fe,,,,,,,,,4282,-67.99998295,-34.66667843,1,0,0,response5disk,,2,-6.666607102,5.333322763,1,0,0,rectangle,-6.666607102,5.333322763,1,0,0,-6.666607102,5.333322763,1,0,0,1,16,176,126,1,,,,,,,,
,,,,,,,,,,,,,FF,,,,,,,,0.6368,,,,,,,,,,,,,,,,,,,,,,60fe0193128d5101aada7200,61036722e74451882cc127cd,2021-07-29_22h44.18.125,Simcolourproject_2stim_asymm_v5,2020.2.10,Win32,60,61025ae37ef11b136ea224fe,,,,,,,,,4134,30.66668665,69.33330433,1,0,0,response1disk,,7,12.00001943,3.333322704,1,0,0,rectangle,82.6666882,49.99999076,1,0,0,19.33339367,0.666655958,1,0,0,1,17,177,56,1,,response1disk_3,TRUE,6,6,"[132,240,299,291,140,61,170,323,178,157,308,174,234,47,174,198,5,306,137,24]",1.7524,rectangle
,,,,,,,,,,,,,FF,,,,,,,,0.6848,,,,,,,,,,,,,,,,,,,,,,60fe0193128d5101aada7200,61036722e74451882cc127cd,2021-07-29_22h44.18.125,Simcolourproject_2stim_asymm_v5,2020.2.10,Win32,60,61025ae37ef11b136ea224fe,,,,,,,,,471,40.00002027,47.9999907,1,0,0,response1disk,,7,28.66668659,9.999989569,1,0,0,rectangle,28.66668659,9.999989569,1,0,0,28.66668659,9.999989569,1,0,0,1,18,178,59,1,,,,,,,,
,,,,,,,,,,,,,FF,,,,,,,,0.5664,,,,,,,,,,,,,,,,,,,,,,60fe0193128d5101aada7200,61036722e74451882cc127cd,2021-07-29_22h44.18.125,Simcolourproject_2stim_asymm_v5,2020.2.10,Win32,60,61025ae37ef11b136ea224fe,,,,,,,,,2458,32.66668671,67.9999913,1,0,0,response1disk,,7,-9.333314538,11.99998963,1,0,0,rectangle,-9.333314538,11.99998963,1,0,0,-9.333314538,11.99998963,1,0,0,1,19,179,83,1,,,,,,,,
,,,,,,,,,,,,,FF,,,,,,,,0.5643,,,,,,,,,,,,,,,,,,,,,,60fe0193128d5101aada7200,61036722e74451882cc127cd,2021-07-29_22h44.18.125,Simcolourproject_2stim_asymm_v5,2020.2.10,Win32,60,61025ae37ef11b136ea224fe,,,,,,,,,1936,32.66668671,61.99999112,1,0,0,response1disk,,7,-10.66660722,6.666656137,1,0,0,rectangle,-10.66660722,6.666656137,1,0,0,-10.66660722,6.666656137,1,0,0,1,20,180,129,1,,,,,,,,
,,,,,,,,,,,,,FF,,,,,,,,0.4203,,,,,,,,,,,,,,,,,,,,,,60fe0193128d5101aada7200,61036722e74451882cc127cd,2021-07-29_22h44.18.125,Simcolourproject_2stim_asymm_v5,2020.2.10,Win32,60,61025ae37ef11b136ea224fe,,,,,,,,,2627,25.33339385,41.99999052,1,0,0,response1disk,,7,5.333393256,8.666656196,1,0,0,rectangle,5.333393256,8.666656196,1,0,0,5.333393256,8.666656196,1,0,0,1,21,181,155,1,,,,,,,,
,,,,,,,,,,,,,FF,,,,,,,,0.3847,,,,,,,,,,,,,,,,,,,,,,60fe0193128d5101aada7200,61036722e74451882cc127cd,2021-07-29_22h44.18.125,Simcolourproject_2stim_asymm_v5,2020.2.10,Win32,60,61025ae37ef11b136ea224fe,,,,,,,,,3026,27.33339391,35.33330331,1,0,0,response1disk,,7,4.666685879,-1.333344102,1,0,0,rectangle,4.666685879,-1.333344102,1,0,0,4.666685879,-1.333344102,1,0,0,1,22,182,18,1,,,,,,,,
,,,,,,,,,,,,,FF,,,,,,,,0.4197,,,,,,,,,,,,,,,,,,,,,,60fe0193128d5101aada7200,61036722e74451882cc127cd,2021-07-29_22h44.18.125,Simcolourproject_2stim_asymm_v5,2020.2.10,Win32,60,61025ae37ef11b136ea224fe,,,,,,,,,3629,38.66668689,71.99999142,1,0,0,response1disk,,7,-15.9999814,-10.00001103,1,0,0,rectangle,-15.9999814,-10.00001103,1,0,0,-15.9999814,-10.00001103,1,0,0,1,23,183,97,1,,,,,,,,
,,,,,,,,,,,,,FF,,,,,,,,2.1846,,,,,,,,,,,,,,,,,,,,,,60fe0193128d5101aada7200,61036722e74451882cc127cd,2021-07-29_22h44.18.125,Simcolourproject_2stim_asymm_v5,2020.2.10,Win32,60,61025ae37ef11b136ea224fe,,,,,,,,,3669,-83.33331674,-34.66667843,1,0,0,response5disk,,2,9.333393375,-1.07288E-05,1,0,0,rectangle,9.333393375,-1.07288E-05,1,0,0,9.333393375,-1.07288E-05,1,0,0,1,24,184,54,1,,,,,,,,
,,,,,,,,,,,,,FF,,,,,,,,0.8668,,,,,,,,,,,,,,,,,,,,,,60fe0193128d5101aada7200,61036722e74451882cc127cd,2021-07-29_22h44.18.125,Simcolourproject_2stim_asymm_v5,2020.2.10,Win32,60,61025ae37ef11b136ea224fe,,,,,,,,,4305,-45.9999823,-30.66667831,1,0,0,response5disk,,2,-8.666607161,0.666655958,1,0,0,rectangle,-8.666607161,0.666655958,1,0,0,-8.666607161,0.666655958,1,0,0,1,25,185,113,1,,,,,,,,
,,,,,,,,,,,,,FF,,,,,,,,1.6204,,,,,,,,,,,,,,,,,,,,,,60fe0193128d5101aada7200,61036722e74451882cc127cd,2021-07-29_22h44.18.125,Simcolourproject_2stim_asymm_v5,2020.2.10,Win32,60,61025ae37ef11b136ea224fe,,,,,,,,,1202,15.33339355,-82.66667986,1,0,0,response3disk,,4,-6.666607102,-2.000010788,1,0,0,rectangle,-6.666607102,-2.000010788,1,0,0,-6.666607102,-2.000010788,1,0,0,1,26,186,141,1,,,,,,,,
,,,,,,,,,,,,,FF,,,,,,,,0.5838,,,,,,,,,,,,,,,,,,,,,,60fe0193128d5101aada7200,61036722e74451882cc127cd,2021-07-29_22h44.18.125,Simcolourproject_2stim_asymm_v5,2020.2.10,Win32,60,61025ae37ef11b136ea224fe,,,,,,,,,1106,44.66668707,76.66665822,1,0,0,response1disk,,7,8.666685998,1.999989331,1,0,0,rectangle,8.666685998,1.999989331,1,0,0,8.666685998,1.999989331,1,0,0,1,27,187,117,1,,,,,,,,
,,,,,,,,,,,,,FF,,,,,,,,1.8169,,,,,,,,,,,,,,,,,,,,,,60fe0193128d5101aada7200,61036722e74451882cc127cd,2021-07-29_22h44.18.125,Simcolourproject_2stim_asymm_v5,2020.2.10,Win32,60,61025ae37ef11b136ea224fe,,,,,,,,,3102,44.00002038,-70.6666795,1,0,0,response3disk,,4,22.66668642,-8.666677654,1,0,0,rectangle,22.66668642,-8.666677654,1,0,0,22.66668642,-8.666677654,1,0,0,1,28,188,60,1,,,,,,,,
,,,,,,,,,,,,,FF,,,,,,,,0.9371,,,,,,,,,,,,,,,,,,,,,,60fe0193128d5101aada7200,61036722e74451882cc127cd,2021-07-29_22h44.18.125,Simcolourproject_2stim_asymm_v5,2020.2.10,Win32,60,61025ae37ef11b136ea224fe,,,,,,,,,1972,86.00002164,-40.66667861,1,0,0,response3disk,,5,8.000019312,-1.07288E-05,1,0,0,rectangle,8.000019312,-1.07288E-05,1,0,0,8.000019312,-1.07288E-05,1,0,0,1,29,189,116,1,,,,,,,,
,,,,,,,,,,,,,FF,,,,,,,,0.8846,,,,,,,,,,,,,,,,,,,,,,60fe0193128d5101aada7200,61036722e74451882cc127cd,2021-07-29_22h44.18.125,Simcolourproject_2stim_asymm_v5,2020.2.10,Win32,60,61025ae37ef11b136ea224fe,,,,,,,,,668,72.00002122,46.66665733,1,0,0,response1disk,,6,0.66668576,-4.000010848,1,0,0,rectangle,0.66668576,-4.000010848,1,0,0,0.66668576,-4.000010848,1,0,0,1,30,190,102,1,,,,,,,,
,,,,,,,,,,,,,FF,,,,,,,,0.7838,,,,,,,,,,,,,,,,,,,,,,60fe0193128d5101aada7200,61036722e74451882cc127cd,2021-07-29_22h44.18.125,Simcolourproject_2stim_asymm_v5,2020.2.10,Win32,60,61025ae37ef11b136ea224fe,,,,,,,,,2325,24.00001979,50.66665745,1,0,0,response1disk,,7,-4.666607042,-1.333344102,1,0,0,rectangle,-4.666607042,-1.333344102,1,0,0,-4.666607042,-1.333344102,1,0,0,1,31,191,31,1,,,,,,,,
,,,,,,,,,,,,,FF,,,,,,,,0.5334,,,,,,,,,,,,,,,,,,,,,,60fe0193128d5101aada7200,61036722e74451882cc127cd,2021-07-29_22h44.18.125,Simcolourproject_2stim_asymm_v5,2020.2.10,Win32,60,61025ae37ef11b136ea224fe,,,,,,,,,2521,16.66668624,40.66665715,1,0,0,response1disk,,7,6.000019252,11.33332294,1,0,0,rectangle,6.000019252,11.33332294,1,0,0,6.000019252,11.33332294,1,0,0,1,32,192,75,1,,,,,,,,
,,,,,,,,,,,,,FF,,,,,,,,1.1875,,,,,,,,,,,,,,,,,,,,,,60fe0193128d5101aada7200,61036722e74451882cc127cd,2021-07-29_22h44.18.125,Simcolourproject_2stim_asymm_v5,2020.2.10,Win32,60,61025ae37ef11b136ea224fe,,,,,,,,,3191,54.66668737,23.99998999,1,0,0,response1disk,,6,-0.666606923,-9.33334434,1,0,0,rectangle,-0.666606923,-9.33334434,1,0,0,-0.666606923,-9.33334434,1,0,0,1,33,193,37,1,,,,,,,,
,,,,,,,,,,,,,FF,,,,,,,,0.5989,,,,,,,,,,,,,,,,,,,,,,60fe0193128d5101aada7200,61036722e74451882cc127cd,2021-07-29_22h44.18.125,Simcolourproject_2stim_asymm_v5,2020.2.10,Win32,60,61025ae37ef11b136ea224fe,,,,,,,,,2686,26.00001985,35.33330331,1,0,0,response1disk,,7,21.33339373,-0.666677415,1,0,0,rectangle,21.33339373,-0.666677415,1,0,0,21.33339373,-0.666677415,1,0,0,1,34,194,99,1,,,,,,,,
,,,,,,,,,,,,,FF,,,,,,,,0.6146,,,,,,,,,,,,,,,,,,,,,,60fe0193128d5101aada7200,61036722e74451882cc127cd,2021-07-29_22h44.18.125,Simcolourproject_2stim_asymm_v5,2020.2.10,Win32,60,61025ae37ef11b136ea224fe,,,,,,,,,3874,34.00002009,57.33330397,1,0,0,response1disk,,7,-4.666607042,1.333322644,1,0,0,rectangle,-4.666607042,1.333322644,1,0,0,-4.666607042,1.333322644,1,0,0,1,35,195,19,1,,,,,,,,
,,,,,,,,,,,,,FF,,,,,,,,0.5176,,,,,,,,,,,,,,,,,,,,,,60fe0193128d5101aada7200,61036722e74451882cc127cd,2021-07-29_22h44.18.125,Simcolourproject_2stim_asymm_v5,2020.2.10,Win32,60,61025ae37ef11b136ea224fe,,,,,,,,,2454,28.00001991,49.99999076,1,0,0,response1disk,,7,6.666685939,1.999989331,1,0,0,rectangle,6.666685939,1.999989331,1,0,0,6.666685939,1.999989331,1,0,0,1,36,196,23,1,,,,,,,,
,,,,,,,,,,,,,FF,,,,,,,,0.9676,,,,,,,,,,,,,,,,,,,,,,60fe0193128d5101aada7200,61036722e74451882cc127cd,2021-07-29_22h44.18.125,Simcolourproject_2stim_asymm_v5,2020.2.10,Win32,60,61025ae37ef11b136ea224fe,,,,,,,,,2998,78.0000214,-40.00001192,1,0,0,response3disk,,5,-12.66660728,0.666655958,1,0,0,rectangle,46.00002044,111.9999926,1,0,0,6.000019252,11.99998963,1,0,0,1,37,197,106,1,,response1disk_3,TRUE,7,7,"[132,240,299,291,140,61,170,323,178,157,308,174,234,47,174,198,5,306,137,24]",2.0836,rectangle
,,,,,,,,,,,,,FF,,,,,,,,0.6645,,,,,,,,,,,,,,,,,,,,,,60fe0193128d5101aada7200,61036722e74451882cc127cd,2021-07-29_22h44.18.125,Simcolourproject_2stim_asymm_v5,2020.2.10,Win32,60,61025ae37ef11b136ea224fe,,,,,,,,,4153,20.00001967,51.33330379,1,0,0,response1disk,,7,-1.999980986,12.66665632,1,0,0,rectangle,-1.999980986,12.66665632,1,0,0,-1.999980986,12.66665632,1,0,0,1,38,198,103,1,,,,,,,,
,,,,,,,,,,,,,FF,,,,,,,,0.8005,,,,,,,,,,,,,,,,,,,,,,60fe0193128d5101aada7200,61036722e74451882cc127cd,2021-07-29_22h44.18.125,Simcolourproject_2stim_asymm_v5,2020.2.10,Win32,60,61025ae37ef11b136ea224fe,,,,,,,,,2954,52.00002062,-27.33334488,1,0,0,response3disk,,5,13.33339349,4.666656077,1,0,0,rectangle,13.33339349,4.666656077,1,0,0,13.33339349,4.666656077,1,0,0,1,39,199,81,1,,,,,,,,
,,,,,,,,,,,,,FF,,,,,,,,0.7503,,,,,,,,,,,,,,,,,,,,,,60fe0193128d5101aada7200,61036722e74451882cc127cd,2021-07-29_22h44.18.125,Simcolourproject_2stim_asymm_v5,2020.2.10,Win32,60,61025ae37ef11b136ea224fe,,,,,,,,,2483,54.00002068,-36.0000118,1,0,0,response3disk,,5,11.33339343,-2.666677475,1,0,0,rectangle,11.33339343,-2.666677475,1,0,0,11.33339343,-2.666677475,1,0,0,1,40,200,94,1,,,,,,,,
,,,,,,,,,,,,,FF,,,,,,,,1.5667,,,,,,,,,,,,,,,,,,,,,,60fe0193128d5101aada7200,61036722e74451882cc127cd,2021-07-29_22h44.18.125,Simcolourproject_2stim_asymm_v5,2020.2.10,Win32,60,61025ae37ef11b136ea224fe,,,,,,,,,1892,68.0000211,27.99999011,1,0,0,response1disk,,6,10.00001937,9.999989569,1,0,0,rectangle,10.00001937,9.999989569,1,0,0,10.00001937,9.999989569,1,0,0,1,41,201,20,1,,,,,,,,
,,,,,,,,,,,,,FF,,,,,,,,1.0811,,,,,,,,,,,,,,,,,,,,,,60fe0193128d5101aada7200,61036722e74451882cc127cd,2021-07-29_22h44.18.125,Simcolourproject_2stim_asymm_v5,2020.2.10,Win32,60,61025ae37ef11b136ea224fe,,,,,,,,,2659,33.33339409,101.3333053,1,0,0,response1disk,,7,-5.999981105,11.33332294,1,0,0,rectangle,-5.999981105,11.33332294,1,0,0,-5.999981105,11.33332294,1,0,0,1,42,202,21,1,,,,,,,,
,,,,,,,,,,,,,FF,,,,,,,,2.867,,,,,,,,,,,,,,,,,,,,,,60fe0193128d5101aada7200,61036722e74451882cc127cd,2021-07-29_22h44.18.125,Simcolourproject_2stim_asymm_v5,2020.2.10,Win32,60,61025ae37ef11b136ea224fe,,,,,,,,,818,84.00002158,45.33330361,1,0,0,response1disk,,6,16.66668624,-6.666677594,1,0,0,rectangle,16.66668624,-6.666677594,1,0,0,16.66668624,-6.666677594,1,0,0,1,43,203,62,1,,,,,,,,
,,,,,,,,,,,,,FF,,,,,,,,1.5365,,,,,,,,,,,,,,,,,,,,,,60fe0193128d5101aada7200,61036722e74451882cc127cd,2021-07-29_22h44.18.125,Simcolourproject_2stim_asymm_v5,2020.2.10,Win32,60,61025ae37ef11b136ea224fe,,,,,,,,,2795,21.33339373,47.33330367,1,0,0,response1disk,,7,1.9735E-05,0.666655958,1,0,0,rectangle,1.9735E-05,0.666655958,1,0,0,1.9735E-05,0.666655958,1,0,0,1,44,204,158,1,,,,,,,,
,,,,,,,,,,,,,FF,,,,,,,,2.6869,,,,,,,,,,,,,,,,,,,,,,60fe0193128d5101aada7200,61036722e74451882cc127cd,2021-07-29_22h44.18.125,Simcolourproject_2stim_asymm_v5,2020.2.10,Win32,60,61025ae37ef11b136ea224fe,,,,,,,,,1149,70.00002116,21.3333029,1,0,0,response1disk,,6,3.333393196,-2.000010788,1,0,0,rectangle,3.333393196,-2.000010788,1,0,0,3.333393196,-2.000010788,1,0,0,1,45,205,85,1,,,,,,,,
,,,,,,,,,,,,,FF,,,,,,,,0.553,,,,,,,,,,,,,,,,,,,,,,60fe0193128d5101aada7200,61036722e74451882cc127cd,2021-07-29_22h44.18.125,Simcolourproject_2stim_asymm_v5,2020.2.10,Win32,60,61025ae37ef11b136ea224fe,,,,,,,,,2159,19.33339367,55.33330391,1,0,0,response1disk,,7,9.333393375,5.99998945,1,0,0,rectangle,9.333393375,5.99998945,1,0,0,9.333393375,5.99998945,1,0,0,1,46,206,7,1,,,,,,,,
,,,,,,,,,,,,,FF,,,,,,,,1.2174,,,,,,,,,,,,,,,,,,,,,,60fe0193128d5101aada7200,61036722e74451882cc127cd,2021-07-29_22h44.18.125,Simcolourproject_2stim_asymm_v5,2020.2.10,Win32,60,61025ae37ef11b136ea224fe,,,,,,,,,4168,-36.666608,-53.33334565,1,0,0,response5disk,,3,-6.666607102,1.999989331,1,0,0,rectangle,-6.666607102,1.999989331,1,0,0,-6.666607102,1.999989331,1,0,0,1,47,207,93,1,,,,,,,,
,,,,,,,,,,,,,FF,,,,,,,,1.4534,,,,,,,,,,,,,,,,,,,,,,60fe0193128d5101aada7200,61036722e74451882cc127cd,2021-07-29_22h44.18.125,Simcolourproject_2stim_asymm_v5,2020.2.10,Win32,60,61025ae37ef11b136ea224fe,,,,,,,,,723,36.00002015,-76.00001299,1,0,0,response3disk,,4,8.000019312,-8.000010967,1,0,0,rectangle,8.000019312,-8.000010967,1,0,0,8.000019312,-8.000010967,1,0,0,1,48,208,42,1,,,,,,,,
,,,,,,,,,,,,,FF,,,,,,,,0.9834,,,,,,,,,,,,,,,,,,,,,,60fe0193128d5101aada7200,61036722e74451882cc127cd,2021-07-29_22h44.18.125,Simcolourproject_2stim_asymm_v5,2020.2.10,Win32,60,61025ae37ef11b136ea224fe,,,,,,,,,1336,18.00001961,73.33330444,1,0,0,response1disk,,7,8.000019312,-6.666677594,1,0,0,rectangle,8.000019312,-6.666677594,1,0,0,8.000019312,-6.666677594,1,0,0,1,49,209,104,1,,,,,,,,
,,,,,,,,,,,,,FF,,,,,,,,1.1668,,,,,,,,,,,,,,,,,,,,,,60fe0193128d5101aada7200,61036722e74451882cc127cd,2021-07-29_22h44.18.125,Simcolourproject_2stim_asymm_v5,2020.2.10,Win32,60,61025ae37ef11b136ea224fe,,,,,,,,,4029,30.00001997,36.66665703,1,0,0,response1disk,,7,8.000019312,-10.66667771,1,0,0,rectangle,8.000019312,-10.66667771,1,0,0,8.000019312,-10.66667771,1,0,0,1,50,210,55,1,,,,,,,,
,,,,,,,,,,,,,FF,,,,,,,,0.6697,,,,,,,,,,,,,,,,,,,,,,60fe0193128d5101aada7200,61036722e74451882cc127cd,2021-07-29_22h44.18.125,Simcolourproject_2stim_asymm_v5,2020.2.10,Win32,60,61025ae37ef11b136ea224fe,,,,,,,,,744,52.66668731,19.99998987,1,0,0,response1disk,,6,18.00001961,-8.000010967,1,0,0,rectangle,18.00001961,-8.000010967,1,0,0,18.00001961,-8.000010967,1,0,0,1,51,211,108,1,,,,,,,,
,,,,,,,,,,,,,FF,,,,,,,,0.8349,,,,,,,,,,,,,,,,,,,,,,60fe0193128d5101aada7200,61036722e74451882cc127cd,2021-07-29_22h44.18.125,Simcolourproject_2stim_asymm_v5,2020.2.10,Win32,60,61025ae37ef11b136ea224fe,,,,,,,,,4145,-27.33331507,-62.66667926,1,0,0,response5disk,,3,-15.33331472,-11.3333444,1,0,0,rectangle,-15.33331472,-11.3333444,1,0,0,-15.33331472,-11.3333444,1,0,0,1,52,212,76,1,,,,,,,,
,,,,,,,,,,,,,FF,,,,,,,,0.7874,,,,,,,,,,,,,,,,,,,,,,60fe0193128d5101aada7200,61036722e74451882cc127cd,2021-07-29_22h44.18.125,Simcolourproject_2stim_asymm_v5,2020.2.10,Win32,60,61025ae37ef11b136ea224fe,,,,,,,,,3039,36.00002015,84.66665846,1,0,0,response1disk,,7,9.333393375,11.33332294,1,0,0,rectangle,9.333393375,11.33332294,1,0,0,9.333393375,11.33332294,1,0,0,1,53,213,47,1,,,,,,,,
,,,,,,,,,,,,,FF,,,,,,,,0.5981,,,,,,,,,,,,,,,,,,,,,,60fe0193128d5101aada7200,61036722e74451882cc127cd,2021-07-29_22h44.18.125,Simcolourproject_2stim_asymm_v5,2020.2.10,Win32,60,61025ae37ef11b136ea224fe,,,,,,,,,2864,35.33339415,78.66665828,1,0,0,response1disk,,7,-6.666607102,2.666656017,1,0,0,rectangle,-6.666607102,2.666656017,1,0,0,-6.666607102,2.666656017,1,0,0,1,54,214,110,1,,,,,,,,
,,,,,,,,,,,,,FF,,,,,,,,1.5203,,,,,,,,,,,,,,,,,,,,,,60fe0193128d5101aada7200,61036722e74451882cc127cd,2021-07-29_22h44.18.125,Simcolourproject_2stim_asymm_v5,2020.2.10,Win32,60,61025ae37ef11b136ea224fe,,,,,,,,,3690,29.33339397,90.66665864,1,0,0,response1disk,,7,-25.9999817,-9.33334434,1,0,0,rectangle,-25.9999817,-9.33334434,1,0,0,-25.9999817,-9.33334434,1,0,0,1,55,215,24,1,,,,,,,,
,,,,,,,,,,,,,FF,,,,,,,,0.5038,,,,,,,,,,,,,,,,,,,,,,60fe0193128d5101aada7200,61036722e74451882cc127cd,2021-07-29_22h44.18.125,Simcolourproject_2stim_asymm_v5,2020.2.10,Win32,60,61025ae37ef11b136ea224fe,,,,,,,,,3318,30.66668665,48.66665739,1,0,0,response1disk,,7,-4.666607042,-5.333344221,1,0,0,rectangle,-4.666607042,-5.333344221,1,0,0,-4.666607042,-5.333344221,1,0,0,1,56,216,138,1,,,,,,,,
,,,,,,,,,,,,,FF,,,,,,,,0.4843,,,,,,,,,,,,,,,,,,,,,,60fe0193128d5101aada7200,61036722e74451882cc127cd,2021-07-29_22h44.18.125,Simcolourproject_2stim_asymm_v5,2020.2.10,Win32,60,61025ae37ef11b136ea224fe,,,,,,,,,1097,32.66668671,61.33330409,1,0,0,response1disk,,7,-8.666607161,4.666656077,1,0,0,rectangle,-8.666607161,4.666656077,1,0,0,-8.666607161,4.666656077,1,0,0,1,57,217,32,1,,,,,,,,
,,,,,,,,,,,,,FF,,,,,,,,2.1343,,,,,,,,,,,,,,,,,,,,,,60fe0193128d5101aada7200,61036722e74451882cc127cd,2021-07-29_22h44.18.125,Simcolourproject_2stim_asymm_v5,2020.2.10,Win32,60,61025ae37ef11b136ea224fe,,,,,,,,,2297,63.33335429,33.33330325,1,0,0,response1disk,,6,10.66668606,-4.666677535,1,0,0,rectangle,10.66668606,-4.666677535,1,0,0,10.66668606,-4.666677535,1,0,0,1,58,218,144,1,,,,,,,,
,,,,,,,,,,,,,FF,,,,,,,,0.6366,,,,,,,,,,,,,,,,,,,,,,60fe0193128d5101aada7200,61036722e74451882cc127cd,2021-07-29_22h44.18.125,Simcolourproject_2stim_asymm_v5,2020.2.10,Win32,60,61025ae37ef11b136ea224fe,,,,,,,,,1989,24.66668648,48.66665739,1,0,0,response1disk,,7,-6.666607102,5.99998945,1,0,0,rectangle,-6.666607102,5.99998945,1,0,0,-6.666607102,5.99998945,1,0,0,1,59,219,53,1,,,,,,,,
,,,,,,,,,,,,,FF,,,,,,,,0.9329,,,,,,,,,,,,,,,,,,,,,,60fe0193128d5101aada7200,61036722e74451882cc127cd,2021-07-29_22h44.18.125,Simcolourproject_2stim_asymm_v5,2020.2.10,Win32,60,61025ae37ef11b136ea224fe,,,,,,,,,3730,22.00001973,69.33330433,1,0,0,response1disk,,7,-12.66660728,13.333323,1,0,0,rectangle,-12.66660728,13.333323,1,0,0,-12.66660728,13.333323,1,0,0,1,60,220,139,1,,,,,,,,
,,,,,,,,,,,,,FF,,,,,,,,0.4337,,,,,,,,,,,,,,,,,,,,,,60fe0193128d5101aada7200,61036722e74451882cc127cd,2021-07-29_22h44.18.125,Simcolourproject_2stim_asymm_v5,2020.2.10,Win32,60,61025ae37ef11b136ea224fe,,,,,,,,,3078,16.00001955,55.99999094,1,0,0,response1disk,,7,1.333393137,11.99998963,1,0,0,rectangle,1.333393137,11.99998963,1,0,0,1.333393137,11.99998963,1,0,0,1,61,221,43,1,,,,,,,,
,,,,,,,,,,,,,FF,,,,,,,,0.415,,,,,,,,,,,,,,,,,,,,,,60fe0193128d5101aada7200,61036722e74451882cc127cd,2021-07-29_22h44.18.125,Simcolourproject_2stim_asymm_v5,2020.2.10,Win32,60,61025ae37ef11b136ea224fe,,,,,,,,,4011,50.66668725,65.33330421,1,0,0,response1disk,,7,16.00001955,5.333322763,1,0,0,rectangle,16.00001955,5.333322763,1,0,0,16.00001955,5.333322763,1,0,0,1,62,222,96,1,,,,,,,,
,,,,,,,,,,,,,FF,,,,,,,,0.8857,,,,,,,,,,,,,,,,,,,,,,60fe0193128d5101aada7200,61036722e74451882cc127cd,2021-07-29_22h44.18.125,Simcolourproject_2stim_asymm_v5,2020.2.10,Win32,60,61025ae37ef11b136ea224fe,,,,,,,,,4143,-30.66660782,-48.66667885,1,0,0,response5disk,,3,-12.66660728,-0.666677415,1,0,0,rectangle,-12.66660728,-0.666677415,1,0,0,-12.66660728,-0.666677415,1,0,0,1,63,223,25,1,,,,,,,,
,,,,,,,,,,,,,FF,,,,,,,,0.77,,,,,,,,,,,,,,,,,,,,,,60fe0193128d5101aada7200,61036722e74451882cc127cd,2021-07-29_22h44.18.125,Simcolourproject_2stim_asymm_v5,2020.2.10,Win32,60,61025ae37ef11b136ea224fe,,,,,,,,,2929,38.00002021,67.9999913,1,0,0,response1disk,,7,4.000019193,-2.666677475,1,0,0,rectangle,4.000019193,-2.666677475,1,0,0,4.000019193,-2.666677475,1,0,0,1,64,224,36,1,,,,,,,,
,,,,,,,,,,,,,FF,,,,,,,,1.1003,,,,,,,,,,,,,,,,,,,,,,60fe0193128d5101aada7200,61036722e74451882cc127cd,2021-07-29_22h44.18.125,Simcolourproject_2stim_asymm_v5,2020.2.10,Win32,60,61025ae37ef11b136ea224fe,,,,,,,,,4229,23.33339379,66.66665792,1,0,0,response1disk,,7,-1.999980986,-0.666677415,1,0,0,rectangle,-1.999980986,-0.666677415,1,0,0,-1.999980986,-0.666677415,1,0,0,1,65,225,112,1,,,,,,,,
,,,,,,,,,,,,,FF,,,,,,,,0.5173,,,,,,,,,,,,,,,,,,,,,,60fe0193128d5101aada7200,61036722e74451882cc127cd,2021-07-29_22h44.18.125,Simcolourproject_2stim_asymm_v5,2020.2.10,Win32,60,61025ae37ef11b136ea224fe,,,,,,,,,3301,41.33339433,77.9999916,1,0,0,response1disk,,7,12.66668612,2.666656017,1,0,0,rectangle,12.66668612,2.666656017,1,0,0,12.66668612,2.666656017,1,0,0,1,66,226,84,1,,,,,,,,
,,,,,,,,,,,,,FF,,,,,,,,0.9865,,,,,,,,,,,,,,,,,,,,,,60fe0193128d5101aada7200,61036722e74451882cc127cd,2021-07-29_22h44.18.125,Simcolourproject_2stim_asymm_v5,2020.2.10,Win32,60,61025ae37ef11b136ea224fe,,,,,,,,,4166,-95.99998379,-30.00001162,1,0,0,response5disk,,2,-4.666607042,-10.00001103,1,0,0,rectangle,-4.666607042,-10.00001103,1,0,0,-4.666607042,-10.00001103,1,0,0,1,67,227,90,1,,,,,,,,
,,,,,,,,,,,,,FF,,,,,,,,2.668,,,,,,,,,,,,,,,,,,,,,,60fe0193128d5101aada7200,61036722e74451882cc127cd,2021-07-29_22h44.18.125,Simcolourproject_2stim_asymm_v5,2020.2.10,Win32,60,61025ae37ef11b136ea224fe,,,,,,,,,4185,62.00002092,21.99998993,1,0,0,response1disk,,6,17.33339361,-0.666677415,1,0,0,rectangle,17.33339361,-0.666677415,1,0,0,17.33339361,-0.666677415,1,0,0,1,68,228,118,1,,,,,,,,
,,,,,,,,,,,,,FF,,,,,,,,0.717,,,,,,,,,,,,,,,,,,,,,,60fe0193128d5101aada7200,61036722e74451882cc127cd,2021-07-29_22h44.18.125,Simcolourproject_2stim_asymm_v5,2020.2.10,Win32,60,61025ae37ef11b136ea224fe,,,,,,,,,3066,70.66668785,85.3333048,1,0,0,response1disk,,7,16.00001955,13.333323,1,0,0,rectangle,16.00001955,13.333323,1,0,0,16.00001955,13.333323,1,0,0,1,69,229,146,1,,,,,,,,
,,,,,,,,,,,,,FF,,,,,,,,0.567,,,,,,,,,,,,,,,,,,,,,,60fe0193128d5101aada7200,61036722e74451882cc127cd,2021-07-29_22h44.18.125,Simcolourproject_2stim_asymm_v5,2020.2.10,Win32,60,61025ae37ef11b136ea224fe,,,,,,,,,1189,33.33339409,53.33330385,1,0,0,response1disk,,7,-3.333314359,-6.666677594,1,0,0,rectangle,-3.333314359,-6.666677594,1,0,0,-3.333314359,-6.666677594,1,0,0,1,70,230,124,1,,,,,,,,
,,,,,,,,,,,,,FF,,,,,,,,1.3674,,,,,,,,,,,,,,,,,,,,,,60fe0193128d5101aada7200,61036722e74451882cc127cd,2021-07-29_22h44.18.125,Simcolourproject_2stim_asymm_v5,2020.2.10,Win32,60,61025ae37ef11b136ea224fe,,,,,,,,,3882,-49.33331573,61.33330409,1,0,0,response7disk,,0,-8.666607161,-2.000010788,1,0,0,rectangle,-8.666607161,-2.000010788,1,0,0,-8.666607161,-2.000010788,1,0,0,1,71,231,151,1,,,,,,,,
,,,,,,,,,,,,,FF,,,,,,,,0.587,,,,,,,,,,,,,,,,,,,,,,60fe0193128d5101aada7200,61036722e74451882cc127cd,2021-07-29_22h44.18.125,Simcolourproject_2stim_asymm_v5,2020.2.10,Win32,60,61025ae37ef11b136ea224fe,,,,,,,,,1032,28.66668659,47.33330367,1,0,0,response1disk,,7,-6.666607102,5.99998945,1,0,0,rectangle,-6.666607102,5.99998945,1,0,0,-6.666607102,5.99998945,1,0,0,1,72,232,149,1,,,,,,,,
,,,,,,,,,,,,,FF,,,,,,,,0.6147,,,,,,,,,,,,,,,,,,,,,,60fe0193128d5101aada7200,61036722e74451882cc127cd,2021-07-29_22h44.18.125,Simcolourproject_2stim_asymm_v5,2020.2.10,Win32,60,61025ae37ef11b136ea224fe,,,,,,,,,2598,25.33339385,104.6666591,1,0,0,response1disk,,7,-13.33331466,13.99998969,1,0,0,rectangle,95.33335525,81.99999171,1,0,0,7.333393315,7.99998951,1,0,0,1,73,233,125,1,,response1disk_3,TRUE,6,6,"[132,240,299,291,140,61,170,323,178,157,308,174,234,47,174,198,5,306,137,24]",1.6511,rectangle
,,,,,,,,,,,,,FF,,,,,,,,0.7181,,,,,,,,,,,,,,,,,,,,,,60fe0193128d5101aada7200,61036722e74451882cc127cd,2021-07-29_22h44.18.125,Simcolourproject_2stim_asymm_v5,2020.2.10,Win32,60,61025ae37ef11b136ea224fe,,,,,,,,,1529,44.66668707,-32.00001168,1,0,0,response3disk,,5,-7.999981165,2.666656017,1,0,0,rectangle,-7.999981165,2.666656017,1,0,0,-7.999981165,2.666656017,1,0,0,1,74,234,156,1,,,,,,,,
,,,,,,,,,,,,,FF,,,,,,,,0.9003,,,,,,,,,,,,,,,,,,,,,,60fe0193128d5101aada7200,61036722e74451882cc127cd,2021-07-29_22h44.18.125,Simcolourproject_2stim_asymm_v5,2020.2.10,Win32,60,61025ae37ef11b136ea224fe,,,,,,,,,1589,33.33339409,51.33330379,1,0,0,response1disk,,7,1.9735E-05,-4.000010848,1,0,0,rectangle,1.9735E-05,-4.000010848,1,0,0,1.9735E-05,-4.000010848,1,0,0,1,75,235,70,1,,,,,,,,
,,,,,,,,,,,,,FF,,,,,,,,0.5365,,,,,,,,,,,,,,,,,,,,,,60fe0193128d5101aada7200,61036722e74451882cc127cd,2021-07-29_22h44.18.125,Simcolourproject_2stim_asymm_v5,2020.2.10,Win32,60,61025ae37ef11b136ea224fe,,,,,,,,,613,26.00001985,35.99999034,1,0,0,response1disk,,7,10.66668606,8.666656196,1,0,0,rectangle,10.66668606,8.666656196,1,0,0,10.66668606,8.666656196,1,0,0,1,76,236,40,1,,,,,,,,
,,,,,,,,,,,,,FF,,,,,,,,0.8824,,,,,,,,,,,,,,,,,,,,,,60fe0193128d5101aada7200,61036722e74451882cc127cd,2021-07-29_22h44.18.125,Simcolourproject_2stim_asymm_v5,2020.2.10,Win32,60,61025ae37ef11b136ea224fe,,,,,,,,,1486,46.00002044,23.33330295,1,0,0,response1disk,,6,15.33339355,3.333322704,1,0,0,rectangle,15.33339355,3.333322704,1,0,0,15.33339355,3.333322704,1,0,0,1,77,237,101,1,,,,,,,,
,,,,,,,,,,,,,FF,,,,,,,,0.8009,,,,,,,,,,,,,,,,,,,,,,60fe0193128d5101aada7200,61036722e74451882cc127cd,2021-07-29_22h44.18.125,Simcolourproject_2stim_asymm_v5,2020.2.10,Win32,60,61025ae37ef11b136ea224fe,,,,,,,,,691,38.00002021,43.99999058,1,0,0,response1disk,,7,12.00001943,-0.666677415,1,0,0,rectangle,12.00001943,-0.666677415,1,0,0,12.00001943,-0.666677415,1,0,0,1,78,238,148,1,,,,,,,,
,,,,,,,,,,,,,FF,,,,,,,,0.6007,,,,,,,,,,,,,,,,,,,,,,60fe0193128d5101aada7200,61036722e74451882cc127cd,2021-07-29_22h44.18.125,Simcolourproject_2stim_asymm_v5,2020.2.10,Win32,60,61025ae37ef11b136ea224fe,,,,,,,,,1576,43.3333537,67.33330427,1,0,0,response1disk,,7,11.33339343,13.333323,1,0,0,rectangle,30.00001997,-80.00001311,1,0,0,12.66668612,-14.00001115,1,0,0,1,79,239,131,1,,response3disk_3,TRUE,4,4,"[132,240,299,291,140,61,170,323,178,157,308,174,234,47,174,198,5,306,137,24]",1.2842,rectangle
,,,,,,,,,,,,,FF,,,,,,,,0.6172,,,,,,,,,,,,,,,,,,,,,,60fe0193128d5101aada7200,61036722e74451882cc127cd,2021-07-29_22h44.18.125,Simcolourproject_2stim_asymm_v5,2020.2.10,Win32,60,61025ae37ef11b136ea224fe,,,,,,,,,4233,34.66668677,72.6666581,1,0,0,response1disk,,7,-19.99998152,2.666656017,1,0,0,rectangle,-19.99998152,2.666656017,1,0,0,-19.99998152,2.666656017,1,0,0,1,80,240,26,1,,,,,,,,
,,,,,,,,,,,,,FF,,,,,,,,0.9147,,,,,,,,,,,,,,,,,,,,,,60fe0193128d5101aada7200,61036722e74451882cc127cd,2021-07-29_22h44.18.125,Simcolourproject_2stim_asymm_v5,2020.2.10,Win32,60,61025ae37ef11b136ea224fe,,,,,,,,,770,45.33335376,71.99999142,1,0,0,response1disk,,7,2.000019133,11.99998963,1,0,0,rectangle,2.000019133,11.99998963,1,0,0,2.000019133,11.99998963,1,0,0,1,81,241,89,1,,,,,,,,
,,,,,,,,,,,,,FF,,,,,,,,0.4876,,,,,,,,,,,,,,,,,,,,,,60fe0193128d5101aada7200,61036722e74451882cc127cd,2021-07-29_22h44.18.125,Simcolourproject_2stim_asymm_v5,2020.2.10,Win32,60,61025ae37ef11b136ea224fe,,,,,,,,,3534,22.66668642,55.33330391,1,0,0,response1disk,,7,-13.99998134,3.99998939,1,0,0,rectangle,-13.99998134,3.99998939,1,0,0,-13.99998134,3.99998939,1,0,0,1,82,242,12,1,,,,,,,,
,,,,,,,,,,,,,FF,,,,,,,,0.6038,,,,,,,,,,,,,,,,,,,,,,60fe0193128d5101aada7200,61036722e74451882cc127cd,2021-07-29_22h44.18.125,Simcolourproject_2stim_asymm_v5,2020.2.10,Win32,60,61025ae37ef11b136ea224fe,,,,,,,,,3209,17.33339361,42.66665721,1,0,0,response1disk,,7,-1.3333143,10.66665626,1,0,0,rectangle,-1.3333143,10.66665626,1,0,0,-1.3333143,10.66665626,1,0,0,1,83,243,122,1,,,,,,,,
