key_resp.keys,key_resp.rt,key_resp_14.keys,key_resp_14.rt,key_resp_15.keys,key_resp_15.rt,key_resp_17.keys,key_resp_17.rt,key_resp_9.keys,key_resp_9.rt,key_resp_10.keys,key_resp_10.rt,practice_comparison,Ecc,mouse_5.x,mouse_5.y,mouse_5.leftButton,mouse_5.midButton,mouse_5.rightButton,mouse_5.clicked_name,pracsimilarity,response_time,mouse_10.x,mouse_10.y,mouse_10.leftButton,mouse_10.midButton,mouse_10.rightButton,mouse_10.clicked_name,mouse_7.x,mouse_7.y,mouse_7.leftButton,mouse_7.midButton,mouse_7.rightButton,mouse_6.x,mouse_6.y,mouse_6.leftButton,mouse_6.midButton,mouse_6.rightButton,duringprac.thisRepN,duringprac.thisTrialN,duringprac.thisN,duringprac.thisIndex,duringprac.ran,participant,session,date,expName,psychopyVersion,OS,frameRate,study_id,mouse_7.clicked_name,catchpracsimilarity,catch_response_time,catchnumberprac,catchtrialorderprac,mouse_6.clicked_name,key_resp_22.keys,key_resp_22.rt,realcomparison,mouse.x,mouse.y,mouse.leftButton,mouse.midButton,mouse.rightButton,mouse.clicked_name,Colour2,similarity,mouse_2.x,mouse_2.y,mouse_2.leftButton,mouse_2.midButton,mouse_2.rightButton,mouse_2.clicked_name,mouse_3.x,mouse_3.y,mouse_3.leftButton,mouse_3.midButton,mouse_3.rightButton,mouse_11.x,mouse_11.y,mouse_11.leftButton,mouse_11.midButton,mouse_11.rightButton,trials_2.thisRepN,trials_2.thisTrialN,trials_2.thisN,trials_2.thisIndex,trials_2.ran,Colour1,mouse_3.clicked_name,catchornah,catchsimilarity,catchnumber,catchtrialorder,catchRT,mouse_11.clicked_name
space,1.475,space,41.7972,space,31.9255,space,12.3789,space,8.8394,space,7.9338,87,FF,97,-41,1,0,0,response3disk_5,5,9.3702,1,1,1,0,0,rectangle_8,1,1,1,0,0,1,1,1,0,0,0,0,0,3,1,60fe39803b9a5a11674a9e9c,61036ded606dd7586d939d0f,2021-07-29_21h17.25.520,Simcolourproject_2stim_asymm_v5,2020.2.10,Win32,60,61025ae37ef11b136ea224fe,,,,,,,,,,,,,,,,,,,,,,,,,,,,,,,,,,,,,,,,,,,,,,
,,,,,,,,,,,,19,PF,-82,45,1,0,0,response7disk_5,1,5.8218,-8,-2,1,0,0,rectangle_8,87,-33,1,0,0,2,-10,1,0,0,0,1,1,6,1,60fe39803b9a5a11674a9e9c,61036ded606dd7586d939d0f,2021-07-29_21h17.25.520,Simcolourproject_2stim_asymm_v5,2020.2.10,Win32,60,61025ae37ef11b136ea224fe,response3disk_7,5,4.0641,5,"[2,5]",rectangle_4,,,,,,,,,,,,,,,,,,,,,,,,,,,,,,,,,,,,,,,,
,,,,,,,,,,,,92,PF,-97,-66,1,0,0,response5disk_5,2,4.0366,-7,-4,1,0,0,rectangle_8,-7,-4,1,0,0,-7,-4,1,0,0,0,2,2,4,1,60fe39803b9a5a11674a9e9c,61036ded606dd7586d939d0f,2021-07-29_21h17.25.520,Simcolourproject_2stim_asymm_v5,2020.2.10,Win32,60,61025ae37ef11b136ea224fe,,,,,,,,,,,,,,,,,,,,,,,,,,,,,,,,,,,,,,,,,,,,,,
,,,,,,,,,,,,103,FF,-28,-74,1,0,0,response5disk_5,3,4.7253,-16,2,1,0,0,rectangle_8,-16,2,1,0,0,-16,2,1,0,0,0,3,3,5,1,60fe39803b9a5a11674a9e9c,61036ded606dd7586d939d0f,2021-07-29_21h17.25.520,Simcolourproject_2stim_asymm_v5,2020.2.10,Win32,60,61025ae37ef11b136ea224fe,,,,,,,,,,,,,,,,,,,,,,,,,,,,,,,,,,,,,,,,,,,,,,
,,,,,,,,,,,,74,FF,43,-53,1,0,0,response3disk_5,4,4.9703,-21,5,1,0,0,rectangle_8,79,-24,1,0,0,-9,5,1,0,0,0,4,4,0,1,60fe39803b9a5a11674a9e9c,61036ded606dd7586d939d0f,2021-07-29_21h17.25.520,Simcolourproject_2stim_asymm_v5,2020.2.10,Win32,60,61025ae37ef11b136ea224fe,response3disk_7,5,3.05,5,"[2,5]",rectangle_4,,,,,,,,,,,,,,,,,,,,,,,,,,,,,,,,,,,,,,,,
,,,,,,,,,,,,117,PF,57,-103,1,0,0,response3disk_5,4,13.8912,-1,10,1,0,0,rectangle_8,-1,10,1,0,0,-1,10,1,0,0,0,5,5,1,1,60fe39803b9a5a11674a9e9c,61036ded606dd7586d939d0f,2021-07-29_21h17.25.520,Simcolourproject_2stim_asymm_v5,2020.2.10,Win32,60,61025ae37ef11b136ea224fe,,,,,,,,,,,,,,,,,,,,,,,,,,,,,,,,,,,,,,,,,,,,,,
,,,,,,,,,,,,46,PF,-81,-34,1,0,0,response5disk_5,2,4.0073,-10,9,1,0,0,rectangle_8,-10,9,1,0,0,-10,9,1,0,0,0,6,6,2,1,60fe39803b9a5a11674a9e9c,61036ded606dd7586d939d0f,2021-07-29_21h17.25.520,Simcolourproject_2stim_asymm_v5,2020.2.10,Win32,60,61025ae37ef11b136ea224fe,,,,,,,,,,,,,,,,,,,,,,,,,,,,,,,,,,,,,,,,,,,,,,
,,,,,,,,,,,,,FF,,,,,,,,6.1004,,,,,,,,,,,,,,,,,,,,,,60fe39803b9a5a11674a9e9c,61036ded606dd7586d939d0f,2021-07-29_21h17.25.520,Simcolourproject_2stim_asymm_v5,2020.2.10,Win32,60,61025ae37ef11b136ea224fe,,,,,,,space,81.2296,1222,-95,35,1,0,0,response7disk,,1,1,-1,1,0,0,rectangle,1,-1,1,0,0,1,-1,1,0,0,0,0,0,4,1,,,,,,,,
,,,,,,,,,,,,,FF,,,,,,,,8.3881,,,,,,,,,,,,,,,,,,,,,,60fe39803b9a5a11674a9e9c,61036ded606dd7586d939d0f,2021-07-29_21h17.25.520,Simcolourproject_2stim_asymm_v5,2020.2.10,Win32,60,61025ae37ef11b136ea224fe,,,,,,,,,82,-90,-65,1,0,0,response5disk,,2,-9,7,1,0,0,rectangle,-9,7,1,0,0,-9,7,1,0,0,0,1,1,34,1,,,,,,,,
,,,,,,,,,,,,,FF,,,,,,,,8.4549,,,,,,,,,,,,,,,,,,,,,,60fe39803b9a5a11674a9e9c,61036ded606dd7586d939d0f,2021-07-29_21h17.25.520,Simcolourproject_2stim_asymm_v5,2020.2.10,Win32,60,61025ae37ef11b136ea224fe,,,,,,,,,1939,78,31,1,0,0,response1disk,,6,6,0,1,0,0,rectangle,6,0,1,0,0,6,0,1,0,0,0,2,2,29,1,,,,,,,,
,,,,,,,,,,,,,FF,,,,,,,,4.8102,,,,,,,,,,,,,,,,,,,,,,60fe39803b9a5a11674a9e9c,61036ded606dd7586d939d0f,2021-07-29_21h17.25.520,Simcolourproject_2stim_asymm_v5,2020.2.10,Win32,60,61025ae37ef11b136ea224fe,,,,,,,,,1451,-77,49,1,0,0,response7disk,,1,-6,8,1,0,0,rectangle,-6,8,1,0,0,-6,8,1,0,0,0,3,3,38,1,,,,,,,,
,,,,,,,,,,,,,FF,,,,,,,,4.7759,,,,,,,,,,,,,,,,,,,,,,60fe39803b9a5a11674a9e9c,61036ded606dd7586d939d0f,2021-07-29_21h17.25.520,Simcolourproject_2stim_asymm_v5,2020.2.10,Win32,60,61025ae37ef11b136ea224fe,,,,,,,,,1659,78,34,1,0,0,response1disk,,6,5,0,1,0,0,rectangle,5,0,1,0,0,5,0,1,0,0,0,4,4,115,1,,,,,,,,
,,,,,,,,,,,,,FF,,,,,,,,7.3115,,,,,,,,,,,,,,,,,,,,,,60fe39803b9a5a11674a9e9c,61036ded606dd7586d939d0f,2021-07-29_21h17.25.520,Simcolourproject_2stim_asymm_v5,2020.2.10,Win32,60,61025ae37ef11b136ea224fe,,,,,,,,,1717,98,25,1,0,0,response1disk,,6,-15,-7,1,0,0,rectangle,-15,-7,1,0,0,-15,-7,1,0,0,0,5,5,122,1,,,,,,,,
,,,,,,,,,,,,,FF,,,,,,,,4.9091,,,,,,,,,,,,,,,,,,,,,,60fe39803b9a5a11674a9e9c,61036ded606dd7586d939d0f,2021-07-29_21h17.25.520,Simcolourproject_2stim_asymm_v5,2020.2.10,Win32,60,61025ae37ef11b136ea224fe,,,,,,,,,1165,95,-65,1,0,0,response3disk,,5,9,0,1,0,0,rectangle,-41,93,1,0,0,-1,6,1,0,0,0,6,6,134,1,,response7disk_3,TRUE,0,0,"[164,123,309,156,299,97,7,156,116,138,298,260,171,210,108,190,317,271,323,166]",2.5869,rectangle
,,,,,,,,,,,,,FF,,,,,,,,3.435,,,,,,,,,,,,,,,,,,,,,,60fe39803b9a5a11674a9e9c,61036ded606dd7586d939d0f,2021-07-29_21h17.25.520,Simcolourproject_2stim_asymm_v5,2020.2.10,Win32,60,61025ae37ef11b136ea224fe,,,,,,,,,1769,-74,-92,1,0,0,response5disk,,3,-11,5,1,0,0,rectangle,-11,5,1,0,0,-11,5,1,0,0,0,7,7,86,1,,,,,,,,
,,,,,,,,,,,,,FF,,,,,,,,1.1555,,,,,,,,,,,,,,,,,,,,,,60fe39803b9a5a11674a9e9c,61036ded606dd7586d939d0f,2021-07-29_21h17.25.520,Simcolourproject_2stim_asymm_v5,2020.2.10,Win32,60,61025ae37ef11b136ea224fe,,,,,,,,,559,71,35,1,0,0,response1disk,,6,-4,-1,1,0,0,rectangle,-4,-1,1,0,0,-4,-1,1,0,0,0,8,8,71,1,,,,,,,,
,,,,,,,,,,,,,FF,,,,,,,,5.7527,,,,,,,,,,,,,,,,,,,,,,60fe39803b9a5a11674a9e9c,61036ded606dd7586d939d0f,2021-07-29_21h17.25.520,Simcolourproject_2stim_asymm_v5,2020.2.10,Win32,60,61025ae37ef11b136ea224fe,,,,,,,,,624,86,-32,1,0,0,response3disk,,5,9,3,1,0,0,rectangle,9,3,1,0,0,9,3,1,0,0,0,9,9,138,1,,,,,,,,
,,,,,,,,,,,,,FF,,,,,,,,22.4452,,,,,,,,,,,,,,,,,,,,,,60fe39803b9a5a11674a9e9c,61036ded606dd7586d939d0f,2021-07-29_21h17.25.520,Simcolourproject_2stim_asymm_v5,2020.2.10,Win32,60,61025ae37ef11b136ea224fe,,,,,,,,,3504,91,36,1,0,0,response1disk,,6,-4,4,1,0,0,rectangle,-4,4,1,0,0,-4,4,1,0,0,0,10,10,14,1,,,,,,,,
,,,,,,,,,,,,,FF,,,,,,,,7.4063,,,,,,,,,,,,,,,,,,,,,,60fe39803b9a5a11674a9e9c,61036ded606dd7586d939d0f,2021-07-29_21h17.25.520,Simcolourproject_2stim_asymm_v5,2020.2.10,Win32,60,61025ae37ef11b136ea224fe,,,,,,,,,352,-97,25,1,0,0,response7disk,,1,4,4,1,0,0,rectangle,4,4,1,0,0,4,4,1,0,0,0,11,11,105,1,,,,,,,,
,,,,,,,,,,,,,FF,,,,,,,,5.57,,,,,,,,,,,,,,,,,,,,,,60fe39803b9a5a11674a9e9c,61036ded606dd7586d939d0f,2021-07-29_21h17.25.520,Simcolourproject_2stim_asymm_v5,2020.2.10,Win32,60,61025ae37ef11b136ea224fe,,,,,,,,,3841,102,-19,1,0,0,response3disk,,5,-10,7,1,0,0,rectangle,-10,7,1,0,0,-10,7,1,0,0,0,12,12,22,1,,,,,,,,
,,,,,,,,,,,,,FF,,,,,,,,2.2408,,,,,,,,,,,,,,,,,,,,,,60fe39803b9a5a11674a9e9c,61036ded606dd7586d939d0f,2021-07-29_21h17.25.520,Simcolourproject_2stim_asymm_v5,2020.2.10,Win32,60,61025ae37ef11b136ea224fe,,,,,,,,,4043,87,-25,1,0,0,response3disk,,5,10,-3,1,0,0,rectangle,10,-3,1,0,0,10,-3,1,0,0,0,13,13,41,1,,,,,,,,
,,,,,,,,,,,,,FF,,,,,,,,3.4743,,,,,,,,,,,,,,,,,,,,,,60fe39803b9a5a11674a9e9c,61036ded606dd7586d939d0f,2021-07-29_21h17.25.520,Simcolourproject_2stim_asymm_v5,2020.2.10,Win32,60,61025ae37ef11b136ea224fe,,,,,,,,,2975,96,78,1,0,0,response1disk,,6,9,7,1,0,0,rectangle,9,7,1,0,0,9,7,1,0,0,0,14,14,81,1,,,,,,,,
,,,,,,,,,,,,,FF,,,,,,,,6.5065,,,,,,,,,,,,,,,,,,,,,,60fe39803b9a5a11674a9e9c,61036ded606dd7586d939d0f,2021-07-29_21h17.25.520,Simcolourproject_2stim_asymm_v5,2020.2.10,Win32,60,61025ae37ef11b136ea224fe,,,,,,,,,1908,-30,-94,1,0,0,response5disk,,3,-7,6,1,0,0,rectangle,-7,6,1,0,0,-7,6,1,0,0,0,15,15,125,1,,,,,,,,
,,,,,,,,,,,,,FF,,,,,,,,4.7547,,,,,,,,,,,,,,,,,,,,,,60fe39803b9a5a11674a9e9c,61036ded606dd7586d939d0f,2021-07-29_21h17.25.520,Simcolourproject_2stim_asymm_v5,2020.2.10,Win32,60,61025ae37ef11b136ea224fe,,,,,,,,,2270,76,-29,1,0,0,response3disk,,5,12,-2,1,0,0,rectangle,12,-2,1,0,0,12,-2,1,0,0,0,16,16,146,1,,,,,,,,
,,,,,,,,,,,,,FF,,,,,,,,7.6539,,,,,,,,,,,,,,,,,,,,,,60fe39803b9a5a11674a9e9c,61036ded606dd7586d939d0f,2021-07-29_21h17.25.520,Simcolourproject_2stim_asymm_v5,2020.2.10,Win32,60,61025ae37ef11b136ea224fe,,,,,,,,,2986,-45,60,1,0,0,response7disk,,0,-6,0,1,0,0,rectangle,-6,0,1,0,0,-6,0,1,0,0,0,17,17,62,1,,,,,,,,
,,,,,,,,,,,,,FF,,,,,,,,5.1887,,,,,,,,,,,,,,,,,,,,,,60fe39803b9a5a11674a9e9c,61036ded606dd7586d939d0f,2021-07-29_21h17.25.520,Simcolourproject_2stim_asymm_v5,2020.2.10,Win32,60,61025ae37ef11b136ea224fe,,,,,,,,,3184,39,68,1,0,0,response1disk,,7,-2,3,1,0,0,rectangle,-2,3,1,0,0,-2,3,1,0,0,0,18,18,84,1,,,,,,,,
,,,,,,,,,,,,,FF,,,,,,,,2.2528,,,,,,,,,,,,,,,,,,,,,,60fe39803b9a5a11674a9e9c,61036ded606dd7586d939d0f,2021-07-29_21h17.25.520,Simcolourproject_2stim_asymm_v5,2020.2.10,Win32,60,61025ae37ef11b136ea224fe,,,,,,,,,3781,-32,58,1,0,0,response7disk,,0,-4,2,1,0,0,rectangle,-4,2,1,0,0,-4,2,1,0,0,0,19,19,157,1,,,,,,,,
,,,,,,,,,,,,,FF,,,,,,,,4.9362,,,,,,,,,,,,,,,,,,,,,,60fe39803b9a5a11674a9e9c,61036ded606dd7586d939d0f,2021-07-29_21h17.25.520,Simcolourproject_2stim_asymm_v5,2020.2.10,Win32,60,61025ae37ef11b136ea224fe,,,,,,,,,3663,-78,32,1,0,0,response7disk,,1,-13,6,1,0,0,rectangle,-13,6,1,0,0,-13,6,1,0,0,0,20,20,133,1,,,,,,,,
,,,,,,,,,,,,,FF,,,,,,,,3.1013,,,,,,,,,,,,,,,,,,,,,,60fe39803b9a5a11674a9e9c,61036ded606dd7586d939d0f,2021-07-29_21h17.25.520,Simcolourproject_2stim_asymm_v5,2020.2.10,Win32,60,61025ae37ef11b136ea224fe,,,,,,,,,193,-81,-44,1,0,0,response5disk,,2,-2,7,1,0,0,rectangle,-2,7,1,0,0,-2,7,1,0,0,0,21,21,49,1,,,,,,,,
,,,,,,,,,,,,,FF,,,,,,,,3.7677,,,,,,,,,,,,,,,,,,,,,,60fe39803b9a5a11674a9e9c,61036ded606dd7586d939d0f,2021-07-29_21h17.25.520,Simcolourproject_2stim_asymm_v5,2020.2.10,Win32,60,61025ae37ef11b136ea224fe,,,,,,,,,2525,66,37,1,0,0,response1disk,,6,1,0,1,0,0,rectangle,1,0,1,0,0,1,0,1,0,0,0,22,22,99,1,,,,,,,,
,,,,,,,,,,,,,FF,,,,,,,,2.0372,,,,,,,,,,,,,,,,,,,,,,60fe39803b9a5a11674a9e9c,61036ded606dd7586d939d0f,2021-07-29_21h17.25.520,Simcolourproject_2stim_asymm_v5,2020.2.10,Win32,60,61025ae37ef11b136ea224fe,,,,,,,,,3939,-75,30,1,0,0,response7disk,,1,-13,7,1,0,0,rectangle,-13,7,1,0,0,-13,7,1,0,0,0,23,23,144,1,,,,,,,,
,,,,,,,,,,,,,FF,,,,,,,,4.3039,,,,,,,,,,,,,,,,,,,,,,60fe39803b9a5a11674a9e9c,61036ded606dd7586d939d0f,2021-07-29_21h17.25.520,Simcolourproject_2stim_asymm_v5,2020.2.10,Win32,60,61025ae37ef11b136ea224fe,,,,,,,,,3604,-91,-36,1,0,0,response5disk,,2,-13,11,1,0,0,rectangle,-13,11,1,0,0,-13,11,1,0,0,0,24,24,91,1,,,,,,,,
,,,,,,,,,,,,,FF,,,,,,,,6.6449,,,,,,,,,,,,,,,,,,,,,,60fe39803b9a5a11674a9e9c,61036ded606dd7586d939d0f,2021-07-29_21h17.25.520,Simcolourproject_2stim_asymm_v5,2020.2.10,Win32,60,61025ae37ef11b136ea224fe,,,,,,,,,2739,88,35,1,0,0,response1disk,,6,-3,5,1,0,0,rectangle,-3,5,1,0,0,-3,5,1,0,0,0,25,25,44,1,,,,,,,,
,,,,,,,,,,,,,FF,,,,,,,,6.803,,,,,,,,,,,,,,,,,,,,,,60fe39803b9a5a11674a9e9c,61036ded606dd7586d939d0f,2021-07-29_21h17.25.520,Simcolourproject_2stim_asymm_v5,2020.2.10,Win32,60,61025ae37ef11b136ea224fe,,,,,,,,,676,80,56,1,0,0,response1disk,,6,12,1,1,0,0,rectangle,12,1,1,0,0,12,1,1,0,0,0,26,26,1,1,,,,,,,,
,,,,,,,,,,,,,FF,,,,,,,,3.6376,,,,,,,,,,,,,,,,,,,,,,60fe39803b9a5a11674a9e9c,61036ded606dd7586d939d0f,2021-07-29_21h17.25.520,Simcolourproject_2stim_asymm_v5,2020.2.10,Win32,60,61025ae37ef11b136ea224fe,,,,,,,,,2135,68,60,1,0,0,response1disk,,6,-5,9,1,0,0,rectangle,-5,9,1,0,0,-5,9,1,0,0,0,27,27,102,1,,,,,,,,
,,,,,,,,,,,,,FF,,,,,,,,2.4348,,,,,,,,,,,,,,,,,,,,,,60fe39803b9a5a11674a9e9c,61036ded606dd7586d939d0f,2021-07-29_21h17.25.520,Simcolourproject_2stim_asymm_v5,2020.2.10,Win32,60,61025ae37ef11b136ea224fe,,,,,,,,,4144,-90,38,1,0,0,response7disk,,1,13,5,1,0,0,rectangle,13,5,1,0,0,13,5,1,0,0,0,28,28,121,1,,,,,,,,
,,,,,,,,,,,,,FF,,,,,,,,5.1198,,,,,,,,,,,,,,,,,,,,,,60fe39803b9a5a11674a9e9c,61036ded606dd7586d939d0f,2021-07-29_21h17.25.520,Simcolourproject_2stim_asymm_v5,2020.2.10,Win32,60,61025ae37ef11b136ea224fe,,,,,,,,,1426,76,32,1,0,0,response1disk,,6,4,5,1,0,0,rectangle,4,5,1,0,0,4,5,1,0,0,0,29,29,79,1,,,,,,,,
,,,,,,,,,,,,,FF,,,,,,,,3.6637,,,,,,,,,,,,,,,,,,,,,,60fe39803b9a5a11674a9e9c,61036ded606dd7586d939d0f,2021-07-29_21h17.25.520,Simcolourproject_2stim_asymm_v5,2020.2.10,Win32,60,61025ae37ef11b136ea224fe,,,,,,,,,2396,33,62,1,0,0,response1disk,,7,-2,3,1,0,0,rectangle,-2,3,1,0,0,-2,3,1,0,0,0,30,30,46,1,,,,,,,,
,,,,,,,,,,,,,FF,,,,,,,,4.7018,,,,,,,,,,,,,,,,,,,,,,60fe39803b9a5a11674a9e9c,61036ded606dd7586d939d0f,2021-07-29_21h17.25.520,Simcolourproject_2stim_asymm_v5,2020.2.10,Win32,60,61025ae37ef11b136ea224fe,,,,,,,,,3632,28,-92,1,0,0,response3disk,,4,9,6,1,0,0,rectangle,9,6,1,0,0,9,6,1,0,0,0,31,31,82,1,,,,,,,,
,,,,,,,,,,,,,FF,,,,,,,,5.6376,,,,,,,,,,,,,,,,,,,,,,60fe39803b9a5a11674a9e9c,61036ded606dd7586d939d0f,2021-07-29_21h17.25.520,Simcolourproject_2stim_asymm_v5,2020.2.10,Win32,60,61025ae37ef11b136ea224fe,,,,,,,,,967,69,44,1,0,0,response1disk,,6,1,3,1,0,0,rectangle,1,3,1,0,0,1,3,1,0,0,0,32,32,16,1,,,,,,,,
,,,,,,,,,,,,,FF,,,,,,,,8.4051,,,,,,,,,,,,,,,,,,,,,,60fe39803b9a5a11674a9e9c,61036ded606dd7586d939d0f,2021-07-29_21h17.25.520,Simcolourproject_2stim_asymm_v5,2020.2.10,Win32,60,61025ae37ef11b136ea224fe,,,,,,,,,1193,76,-59,1,0,0,response3disk,,5,-14,3,1,0,0,rectangle,-14,3,1,0,0,-14,3,1,0,0,0,33,33,145,1,,,,,,,,
,,,,,,,,,,,,,FF,,,,,,,,6.3729,,,,,,,,,,,,,,,,,,,,,,60fe39803b9a5a11674a9e9c,61036ded606dd7586d939d0f,2021-07-29_21h17.25.520,Simcolourproject_2stim_asymm_v5,2020.2.10,Win32,60,61025ae37ef11b136ea224fe,,,,,,,,,3056,-99,-51,1,0,0,response5disk,,2,-5,2,1,0,0,rectangle,-5,2,1,0,0,-5,2,1,0,0,0,34,34,63,1,,,,,,,,
,,,,,,,,,,,,,FF,,,,,,,,3.5361,,,,,,,,,,,,,,,,,,,,,,60fe39803b9a5a11674a9e9c,61036ded606dd7586d939d0f,2021-07-29_21h17.25.520,Simcolourproject_2stim_asymm_v5,2020.2.10,Win32,60,61025ae37ef11b136ea224fe,,,,,,,,,643,-97,22,1,0,0,response7disk,,1,-2,4,1,0,0,rectangle,-2,4,1,0,0,-2,4,1,0,0,0,35,35,75,1,,,,,,,,
,,,,,,,,,,,,,FF,,,,,,,,5.7537,,,,,,,,,,,,,,,,,,,,,,60fe39803b9a5a11674a9e9c,61036ded606dd7586d939d0f,2021-07-29_21h17.25.520,Simcolourproject_2stim_asymm_v5,2020.2.10,Win32,60,61025ae37ef11b136ea224fe,,,,,,,,,4309,53,67,1,0,0,response1disk,,7,3,-2,1,0,0,rectangle,3,-2,1,0,0,3,-2,1,0,0,0,36,36,51,1,,,,,,,,
,,,,,,,,,,,,,FF,,,,,,,,5.0873,,,,,,,,,,,,,,,,,,,,,,60fe39803b9a5a11674a9e9c,61036ded606dd7586d939d0f,2021-07-29_21h17.25.520,Simcolourproject_2stim_asymm_v5,2020.2.10,Win32,60,61025ae37ef11b136ea224fe,,,,,,,,,2863,78,53,1,0,0,response1disk,,6,6,1,1,0,0,rectangle,6,1,1,0,0,6,1,1,0,0,0,37,37,50,1,,,,,,,,
,,,,,,,,,,,,,FF,,,,,,,,3.4896,,,,,,,,,,,,,,,,,,,,,,60fe39803b9a5a11674a9e9c,61036ded606dd7586d939d0f,2021-07-29_21h17.25.520,Simcolourproject_2stim_asymm_v5,2020.2.10,Win32,60,61025ae37ef11b136ea224fe,,,,,,,,,627,84,36,1,0,0,response1disk,,6,7,-4,1,0,0,rectangle,7,-4,1,0,0,7,-4,1,0,0,0,38,38,70,1,,,,,,,,
,,,,,,,,,,,,,FF,,,,,,,,1.8521,,,,,,,,,,,,,,,,,,,,,,60fe39803b9a5a11674a9e9c,61036ded606dd7586d939d0f,2021-07-29_21h17.25.520,Simcolourproject_2stim_asymm_v5,2020.2.10,Win32,60,61025ae37ef11b136ea224fe,,,,,,,,,20,52,28,1,0,0,response1disk,,6,7,1,1,0,0,rectangle,7,1,1,0,0,7,1,1,0,0,0,39,39,135,1,,,,,,,,
,,,,,,,,,,,,,FF,,,,,,,,3.706,,,,,,,,,,,,,,,,,,,,,,60fe39803b9a5a11674a9e9c,61036ded606dd7586d939d0f,2021-07-29_21h17.25.520,Simcolourproject_2stim_asymm_v5,2020.2.10,Win32,60,61025ae37ef11b136ea224fe,,,,,,,,,3840,86,28,1,0,0,response1disk,,6,4,0,1,0,0,rectangle,4,0,1,0,0,4,0,1,0,0,0,40,40,12,1,,,,,,,,
,,,,,,,,,,,,,FF,,,,,,,,2.0681,,,,,,,,,,,,,,,,,,,,,,60fe39803b9a5a11674a9e9c,61036ded606dd7586d939d0f,2021-07-29_21h17.25.520,Simcolourproject_2stim_asymm_v5,2020.2.10,Win32,60,61025ae37ef11b136ea224fe,,,,,,,,,2051,56,27,1,0,0,response1disk,,6,-4,4,1,0,0,rectangle,-4,4,1,0,0,-4,4,1,0,0,0,41,41,149,1,,,,,,,,
,,,,,,,,,,,,,FF,,,,,,,,6.8366,,,,,,,,,,,,,,,,,,,,,,60fe39803b9a5a11674a9e9c,61036ded606dd7586d939d0f,2021-07-29_21h17.25.520,Simcolourproject_2stim_asymm_v5,2020.2.10,Win32,60,61025ae37ef11b136ea224fe,,,,,,,,,592,73,51,1,0,0,response1disk,,6,-1,5,1,0,0,rectangle,-1,5,1,0,0,-1,5,1,0,0,0,42,42,127,1,,,,,,,,
,,,,,,,,,,,,,FF,,,,,,,,1.4683,,,,,,,,,,,,,,,,,,,,,,60fe39803b9a5a11674a9e9c,61036ded606dd7586d939d0f,2021-07-29_21h17.25.520,Simcolourproject_2stim_asymm_v5,2020.2.10,Win32,60,61025ae37ef11b136ea224fe,,,,,,,,,2369,-44,-70,1,0,0,response5disk,,3,-5,1,1,0,0,rectangle,-5,1,1,0,0,-5,1,1,0,0,0,43,43,104,1,,,,,,,,
,,,,,,,,,,,,,FF,,,,,,,,2.2677,,,,,,,,,,,,,,,,,,,,,,60fe39803b9a5a11674a9e9c,61036ded606dd7586d939d0f,2021-07-29_21h17.25.520,Simcolourproject_2stim_asymm_v5,2020.2.10,Win32,60,61025ae37ef11b136ea224fe,,,,,,,,,2033,-36,64,1,0,0,response7disk,,0,-9,3,1,0,0,rectangle,-9,3,1,0,0,-9,3,1,0,0,0,44,44,66,1,,,,,,,,
,,,,,,,,,,,,,FF,,,,,,,,1.7184,,,,,,,,,,,,,,,,,,,,,,60fe39803b9a5a11674a9e9c,61036ded606dd7586d939d0f,2021-07-29_21h17.25.520,Simcolourproject_2stim_asymm_v5,2020.2.10,Win32,60,61025ae37ef11b136ea224fe,,,,,,,,,1046,-78,-41,1,0,0,response5disk,,2,9,0,1,0,0,rectangle,9,0,1,0,0,9,0,1,0,0,0,45,45,118,1,,,,,,,,
,,,,,,,,,,,,,FF,,,,,,,,2.6681,,,,,,,,,,,,,,,,,,,,,,60fe39803b9a5a11674a9e9c,61036ded606dd7586d939d0f,2021-07-29_21h17.25.520,Simcolourproject_2stim_asymm_v5,2020.2.10,Win32,60,61025ae37ef11b136ea224fe,,,,,,,,,3430,-90,35,1,0,0,response7disk,,1,-9,-2,1,0,0,rectangle,-9,-2,1,0,0,-9,-2,1,0,0,0,46,46,148,1,,,,,,,,
,,,,,,,,,,,,,FF,,,,,,,,1.438,,,,,,,,,,,,,,,,,,,,,,60fe39803b9a5a11674a9e9c,61036ded606dd7586d939d0f,2021-07-29_21h17.25.520,Simcolourproject_2stim_asymm_v5,2020.2.10,Win32,60,61025ae37ef11b136ea224fe,,,,,,,,,3243,-40,62,1,0,0,response7disk,,0,-1,-3,1,0,0,rectangle,-1,-3,1,0,0,-1,-3,1,0,0,0,47,47,94,1,,,,,,,,
,,,,,,,,,,,,,FF,,,,,,,,1.7514,,,,,,,,,,,,,,,,,,,,,,60fe39803b9a5a11674a9e9c,61036ded606dd7586d939d0f,2021-07-29_21h17.25.520,Simcolourproject_2stim_asymm_v5,2020.2.10,Win32,60,61025ae37ef11b136ea224fe,,,,,,,,,1374,-97,26,1,0,0,response7disk,,1,-13,1,1,0,0,rectangle,-13,1,1,0,0,-13,1,1,0,0,0,48,48,13,1,,,,,,,,
,,,,,,,,,,,,,FF,,,,,,,,6.8769,,,,,,,,,,,,,,,,,,,,,,60fe39803b9a5a11674a9e9c,61036ded606dd7586d939d0f,2021-07-29_21h17.25.520,Simcolourproject_2stim_asymm_v5,2020.2.10,Win32,60,61025ae37ef11b136ea224fe,,,,,,,,,3827,45,-76,1,0,0,response3disk,,4,6,-4,1,0,0,rectangle,6,-4,1,0,0,6,-4,1,0,0,0,49,49,6,1,,,,,,,,
,,,,,,,,,,,,,FF,,,,,,,,4.5547,,,,,,,,,,,,,,,,,,,,,,60fe39803b9a5a11674a9e9c,61036ded606dd7586d939d0f,2021-07-29_21h17.25.520,Simcolourproject_2stim_asymm_v5,2020.2.10,Win32,60,61025ae37ef11b136ea224fe,,,,,,,,,4048,-95,-43,1,0,0,response5disk,,2,1,-3,1,0,0,rectangle,1,-3,1,0,0,1,-3,1,0,0,0,50,50,85,1,,,,,,,,
,,,,,,,,,,,,,FF,,,,,,,,1.7186,,,,,,,,,,,,,,,,,,,,,,60fe39803b9a5a11674a9e9c,61036ded606dd7586d939d0f,2021-07-29_21h17.25.520,Simcolourproject_2stim_asymm_v5,2020.2.10,Win32,60,61025ae37ef11b136ea224fe,,,,,,,,,3708,-65,43,1,0,0,response7disk,,1,-23,7,1,0,0,rectangle,-23,7,1,0,0,-23,7,1,0,0,0,51,51,108,1,,,,,,,,
,,,,,,,,,,,,,FF,,,,,,,,2.635,,,,,,,,,,,,,,,,,,,,,,60fe39803b9a5a11674a9e9c,61036ded606dd7586d939d0f,2021-07-29_21h17.25.520,Simcolourproject_2stim_asymm_v5,2020.2.10,Win32,60,61025ae37ef11b136ea224fe,,,,,,,,,3821,-90,-32,1,0,0,response5disk,,2,-14,7,1,0,0,rectangle,-14,7,1,0,0,-14,7,1,0,0,0,52,52,130,1,,,,,,,,
,,,,,,,,,,,,,FF,,,,,,,,2.3845,,,,,,,,,,,,,,,,,,,,,,60fe39803b9a5a11674a9e9c,61036ded606dd7586d939d0f,2021-07-29_21h17.25.520,Simcolourproject_2stim_asymm_v5,2020.2.10,Win32,60,61025ae37ef11b136ea224fe,,,,,,,,,2679,26,-84,1,0,0,response3disk,,4,-7,-3,1,0,0,rectangle,-7,-3,1,0,0,-7,-3,1,0,0,0,53,53,80,1,,,,,,,,
,,,,,,,,,,,,,FF,,,,,,,,3.4308,,,,,,,,,,,,,,,,,,,,,,60fe39803b9a5a11674a9e9c,61036ded606dd7586d939d0f,2021-07-29_21h17.25.520,Simcolourproject_2stim_asymm_v5,2020.2.10,Win32,60,61025ae37ef11b136ea224fe,,,,,,,,,4088,46,-66,1,0,0,response3disk,,4,7,1,1,0,0,rectangle,7,1,1,0,0,7,1,1,0,0,0,54,54,72,1,,,,,,,,
,,,,,,,,,,,,,FF,,,,,,,,1.4514,,,,,,,,,,,,,,,,,,,,,,60fe39803b9a5a11674a9e9c,61036ded606dd7586d939d0f,2021-07-29_21h17.25.520,Simcolourproject_2stim_asymm_v5,2020.2.10,Win32,60,61025ae37ef11b136ea224fe,,,,,,,,,3298,-107,24,1,0,0,response7disk,,1,-7,-3,1,0,0,rectangle,-7,-3,1,0,0,-7,-3,1,0,0,0,55,55,68,1,,,,,,,,
,,,,,,,,,,,,,FF,,,,,,,,3.1391,,,,,,,,,,,,,,,,,,,,,,60fe39803b9a5a11674a9e9c,61036ded606dd7586d939d0f,2021-07-29_21h17.25.520,Simcolourproject_2stim_asymm_v5,2020.2.10,Win32,60,61025ae37ef11b136ea224fe,,,,,,,,,3006,-86,27,1,0,0,response7disk,,1,-15,5,1,0,0,rectangle,-15,5,1,0,0,-15,5,1,0,0,0,56,56,129,1,,,,,,,,
,,,,,,,,,,,,,FF,,,,,,,,5.4205,,,,,,,,,,,,,,,,,,,,,,60fe39803b9a5a11674a9e9c,61036ded606dd7586d939d0f,2021-07-29_21h17.25.520,Simcolourproject_2stim_asymm_v5,2020.2.10,Win32,60,61025ae37ef11b136ea224fe,,,,,,,,,2704,77,-26,1,0,0,response3disk,,5,5,-2,1,0,0,rectangle,5,-2,1,0,0,5,-2,1,0,0,0,57,57,93,1,,,,,,,,
,,,,,,,,,,,,,FF,,,,,,,,3.4025,,,,,,,,,,,,,,,,,,,,,,60fe39803b9a5a11674a9e9c,61036ded606dd7586d939d0f,2021-07-29_21h17.25.520,Simcolourproject_2stim_asymm_v5,2020.2.10,Win32,60,61025ae37ef11b136ea224fe,,,,,,,,,4275,53,-37,1,0,0,response3disk,,5,-4,-2,1,0,0,rectangle,-4,-2,1,0,0,-4,-2,1,0,0,0,58,58,101,1,,,,,,,,
,,,,,,,,,,,,,FF,,,,,,,,1.4399,,,,,,,,,,,,,,,,,,,,,,60fe39803b9a5a11674a9e9c,61036ded606dd7586d939d0f,2021-07-29_21h17.25.520,Simcolourproject_2stim_asymm_v5,2020.2.10,Win32,60,61025ae37ef11b136ea224fe,,,,,,,,,2895,-78,30,1,0,0,response7disk,,1,-2,0,1,0,0,rectangle,-2,0,1,0,0,-2,0,1,0,0,0,59,59,120,1,,,,,,,,
,,,,,,,,,,,,,FF,,,,,,,,1.7178,,,,,,,,,,,,,,,,,,,,,,60fe39803b9a5a11674a9e9c,61036ded606dd7586d939d0f,2021-07-29_21h17.25.520,Simcolourproject_2stim_asymm_v5,2020.2.10,Win32,60,61025ae37ef11b136ea224fe,,,,,,,,,1811,-104,-35,1,0,0,response5disk,,2,-4,-4,1,0,0,rectangle,-4,-4,1,0,0,-4,-4,1,0,0,0,60,60,65,1,,,,,,,,
,,,,,,,,,,,,,FF,,,,,,,,2.7693,,,,,,,,,,,,,,,,,,,,,,60fe39803b9a5a11674a9e9c,61036ded606dd7586d939d0f,2021-07-29_21h17.25.520,Simcolourproject_2stim_asymm_v5,2020.2.10,Win32,60,61025ae37ef11b136ea224fe,,,,,,,,,125,78,34,1,0,0,response1disk,,6,3,-2,1,0,0,rectangle,3,-2,1,0,0,3,-2,1,0,0,0,61,61,77,1,,,,,,,,
,,,,,,,,,,,,,FF,,,,,,,,2.6022,,,,,,,,,,,,,,,,,,,,,,60fe39803b9a5a11674a9e9c,61036ded606dd7586d939d0f,2021-07-29_21h17.25.520,Simcolourproject_2stim_asymm_v5,2020.2.10,Win32,60,61025ae37ef11b136ea224fe,,,,,,,,,4073,-84,-23,1,0,0,response5disk,,2,11,-6,1,0,0,rectangle,11,-6,1,0,0,11,-6,1,0,0,0,62,62,88,1,,,,,,,,
,,,,,,,,,,,,,FF,,,,,,,,4.7359,,,,,,,,,,,,,,,,,,,,,,60fe39803b9a5a11674a9e9c,61036ded606dd7586d939d0f,2021-07-29_21h17.25.520,Simcolourproject_2stim_asymm_v5,2020.2.10,Win32,60,61025ae37ef11b136ea224fe,,,,,,,,,1170,87,-20,1,0,0,response3disk,,5,16,-1,1,0,0,rectangle,16,-1,1,0,0,16,-1,1,0,0,0,63,63,11,1,,,,,,,,
,,,,,,,,,,,,,FF,,,,,,,,8.5565,,,,,,,,,,,,,,,,,,,,,,60fe39803b9a5a11674a9e9c,61036ded606dd7586d939d0f,2021-07-29_21h17.25.520,Simcolourproject_2stim_asymm_v5,2020.2.10,Win32,60,61025ae37ef11b136ea224fe,,,,,,,,,4242,97,-26,1,0,0,response3disk,,5,2,2,1,0,0,rectangle,2,2,1,0,0,2,2,1,0,0,0,64,64,54,1,,,,,,,,
,,,,,,,,,,,,,FF,,,,,,,,1.5352,,,,,,,,,,,,,,,,,,,,,,60fe39803b9a5a11674a9e9c,61036ded606dd7586d939d0f,2021-07-29_21h17.25.520,Simcolourproject_2stim_asymm_v5,2020.2.10,Win32,60,61025ae37ef11b136ea224fe,,,,,,,,,1267,69,-32,1,0,0,response3disk,,5,-13,5,1,0,0,rectangle,-13,5,1,0,0,-13,5,1,0,0,0,65,65,37,1,,,,,,,,
,,,,,,,,,,,,,FF,,,,,,,,1.267,,,,,,,,,,,,,,,,,,,,,,60fe39803b9a5a11674a9e9c,61036ded606dd7586d939d0f,2021-07-29_21h17.25.520,Simcolourproject_2stim_asymm_v5,2020.2.10,Win32,60,61025ae37ef11b136ea224fe,,,,,,,,,740,-88,20,1,0,0,response7disk,,1,-20,7,1,0,0,rectangle,-20,7,1,0,0,-20,7,1,0,0,0,66,66,153,1,,,,,,,,
,,,,,,,,,,,,,FF,,,,,,,,3.57,,,,,,,,,,,,,,,,,,,,,,60fe39803b9a5a11674a9e9c,61036ded606dd7586d939d0f,2021-07-29_21h17.25.520,Simcolourproject_2stim_asymm_v5,2020.2.10,Win32,60,61025ae37ef11b136ea224fe,,,,,,,,,1265,24,-78,1,0,0,response3disk,,4,-6,0,1,0,0,rectangle,-6,0,1,0,0,-6,0,1,0,0,0,67,67,131,1,,,,,,,,
,,,,,,,,,,,,,FF,,,,,,,,2.9047,,,,,,,,,,,,,,,,,,,,,,60fe39803b9a5a11674a9e9c,61036ded606dd7586d939d0f,2021-07-29_21h17.25.520,Simcolourproject_2stim_asymm_v5,2020.2.10,Win32,60,61025ae37ef11b136ea224fe,,,,,,,,,2379,-54,-66,1,0,0,response5disk,,3,-25,1,1,0,0,rectangle,-25,1,1,0,0,-25,1,1,0,0,0,68,68,142,1,,,,,,,,
,,,,,,,,,,,,,FF,,,,,,,,3.8219,,,,,,,,,,,,,,,,,,,,,,60fe39803b9a5a11674a9e9c,61036ded606dd7586d939d0f,2021-07-29_21h17.25.520,Simcolourproject_2stim_asymm_v5,2020.2.10,Win32,60,61025ae37ef11b136ea224fe,,,,,,,,,337,-58,-70,1,0,0,response5disk,,3,-17,-3,1,0,0,rectangle,-17,-3,1,0,0,-17,-3,1,0,0,0,69,69,151,1,,,,,,,,
,,,,,,,,,,,,,FF,,,,,,,,3.7436,,,,,,,,,,,,,,,,,,,,,,60fe39803b9a5a11674a9e9c,61036ded606dd7586d939d0f,2021-07-29_21h17.25.520,Simcolourproject_2stim_asymm_v5,2020.2.10,Win32,60,61025ae37ef11b136ea224fe,,,,,,,,,1871,55,-31,1,0,0,response3disk,,5,6,-4,1,0,0,rectangle,6,-4,1,0,0,6,-4,1,0,0,0,70,70,123,1,,,,,,,,
,,,,,,,,,,,,,FF,,,,,,,,5.4379,,,,,,,,,,,,,,,,,,,,,,60fe39803b9a5a11674a9e9c,61036ded606dd7586d939d0f,2021-07-29_21h17.25.520,Simcolourproject_2stim_asymm_v5,2020.2.10,Win32,60,61025ae37ef11b136ea224fe,,,,,,,,,1349,73,-51,1,0,0,response3disk,,5,10,-6,1,0,0,rectangle,10,-6,1,0,0,10,-6,1,0,0,0,71,71,5,1,,,,,,,,
,,,,,,,,,,,,,FF,,,,,,,,2.8583,,,,,,,,,,,,,,,,,,,,,,60fe39803b9a5a11674a9e9c,61036ded606dd7586d939d0f,2021-07-29_21h17.25.520,Simcolourproject_2stim_asymm_v5,2020.2.10,Win32,60,61025ae37ef11b136ea224fe,,,,,,,,,3060,-25,-71,1,0,0,response5disk,,3,-11,8,1,0,0,rectangle,-11,8,1,0,0,-11,8,1,0,0,0,72,72,141,1,,,,,,,,
,,,,,,,,,,,,,FF,,,,,,,,2.8681,,,,,,,,,,,,,,,,,,,,,,60fe39803b9a5a11674a9e9c,61036ded606dd7586d939d0f,2021-07-29_21h17.25.520,Simcolourproject_2stim_asymm_v5,2020.2.10,Win32,60,61025ae37ef11b136ea224fe,,,,,,,,,3642,-53,-38,1,0,0,response5disk,,2,-10,1,1,0,0,rectangle,-10,1,1,0,0,-10,1,1,0,0,0,73,73,103,1,,,,,,,,
,,,,,,,,,,,,,FF,,,,,,,,2.4539,,,,,,,,,,,,,,,,,,,,,,60fe39803b9a5a11674a9e9c,61036ded606dd7586d939d0f,2021-07-29_21h17.25.520,Simcolourproject_2stim_asymm_v5,2020.2.10,Win32,60,61025ae37ef11b136ea224fe,,,,,,,,,1693,34,-68,1,0,0,response3disk,,4,-8,0,1,0,0,rectangle,-8,0,1,0,0,-8,0,1,0,0,0,74,74,60,1,,,,,,,,
,,,,,,,,,,,,,FF,,,,,,,,1.0728,,,,,,,,,,,,,,,,,,,,,,60fe39803b9a5a11674a9e9c,61036ded606dd7586d939d0f,2021-07-29_21h17.25.520,Simcolourproject_2stim_asymm_v5,2020.2.10,Win32,60,61025ae37ef11b136ea224fe,,,,,,,,,533,-70,34,1,0,0,response7disk,,1,-6,-2,1,0,0,rectangle,-6,-2,1,0,0,-6,-2,1,0,0,0,75,75,67,1,,,,,,,,
,,,,,,,,,,,,,FF,,,,,,,,2.6238,,,,,,,,,,,,,,,,,,,,,,60fe39803b9a5a11674a9e9c,61036ded606dd7586d939d0f,2021-07-29_21h17.25.520,Simcolourproject_2stim_asymm_v5,2020.2.10,Win32,60,61025ae37ef11b136ea224fe,,,,,,,,,2798,58,-82,1,0,0,response3disk,,4,-8,5,1,0,0,rectangle,-8,5,1,0,0,-8,5,1,0,0,0,76,76,47,1,,,,,,,,
,,,,,,,,,,,,,FF,,,,,,,,1.5821,,,,,,,,,,,,,,,,,,,,,,60fe39803b9a5a11674a9e9c,61036ded606dd7586d939d0f,2021-07-29_21h17.25.520,Simcolourproject_2stim_asymm_v5,2020.2.10,Win32,60,61025ae37ef11b136ea224fe,,,,,,,,,517,-35,-64,1,0,0,response5disk,,3,-20,6,1,0,0,rectangle,-20,6,1,0,0,-20,6,1,0,0,0,77,77,113,1,,,,,,,,
,,,,,,,,,,,,,FF,,,,,,,,1.6507,,,,,,,,,,,,,,,,,,,,,,60fe39803b9a5a11674a9e9c,61036ded606dd7586d939d0f,2021-07-29_21h17.25.520,Simcolourproject_2stim_asymm_v5,2020.2.10,Win32,60,61025ae37ef11b136ea224fe,,,,,,,,,4167,-95,-29,1,0,0,response5disk,,2,-19,-1,1,0,0,rectangle,-19,-1,1,0,0,-19,-1,1,0,0,0,78,78,43,1,,,,,,,,
,,,,,,,,,,,,,FF,,,,,,,,0.9672,,,,,,,,,,,,,,,,,,,,,,60fe39803b9a5a11674a9e9c,61036ded606dd7586d939d0f,2021-07-29_21h17.25.520,Simcolourproject_2stim_asymm_v5,2020.2.10,Win32,60,61025ae37ef11b136ea224fe,,,,,,,,,1460,-74,34,1,0,0,response7disk,,1,13,-2,1,0,0,rectangle,13,-2,1,0,0,13,-2,1,0,0,0,79,79,69,1,,,,,,,,
,,,,,,,,,,,,,FF,,,,,,,,2.9355,,,,,,,,,,,,,,,,,,,,,,60fe39803b9a5a11674a9e9c,61036ded606dd7586d939d0f,2021-07-29_21h17.25.520,Simcolourproject_2stim_asymm_v5,2020.2.10,Win32,60,61025ae37ef11b136ea224fe,,,,,,,,,2760,77,-38,1,0,0,response3disk,,5,11,-1,1,0,0,rectangle,11,-1,1,0,0,11,-1,1,0,0,0,80,80,154,1,,,,,,,,
,,,,,,,,,,,,,FF,,,,,,,,4.1263,,,,,,,,,,,,,,,,,,,,,,60fe39803b9a5a11674a9e9c,61036ded606dd7586d939d0f,2021-07-29_21h17.25.520,Simcolourproject_2stim_asymm_v5,2020.2.10,Win32,60,61025ae37ef11b136ea224fe,,,,,,,,,1031,43,-64,1,0,0,response3disk,,4,-3,-4,1,0,0,rectangle,-3,-4,1,0,0,-3,-4,1,0,0,0,81,81,150,1,,,,,,,,
,,,,,,,,,,,,,FF,,,,,,,,5.1012,,,,,,,,,,,,,,,,,,,,,,60fe39803b9a5a11674a9e9c,61036ded606dd7586d939d0f,2021-07-29_21h17.25.520,Simcolourproject_2stim_asymm_v5,2020.2.10,Win32,60,61025ae37ef11b136ea224fe,,,,,,,,,2596,82,36,1,0,0,response1disk,,6,1,-4,1,0,0,rectangle,1,-4,1,0,0,1,-4,1,0,0,0,82,82,17,1,,,,,,,,
,,,,,,,,,,,,,FF,,,,,,,,4.2476,,,,,,,,,,,,,,,,,,,,,,60fe39803b9a5a11674a9e9c,61036ded606dd7586d939d0f,2021-07-29_21h17.25.520,Simcolourproject_2stim_asymm_v5,2020.2.10,Win32,60,61025ae37ef11b136ea224fe,,,,,,,,,206,79,-53,1,0,0,response3disk,,5,5,2,1,0,0,rectangle,5,2,1,0,0,5,2,1,0,0,0,83,83,116,1,,,,,,,,
,,,,,,,,,,,,,FF,,,,,,,,2.2977,,,,,,,,,,,,,,,,,,,,,,60fe39803b9a5a11674a9e9c,61036ded606dd7586d939d0f,2021-07-29_21h17.25.520,Simcolourproject_2stim_asymm_v5,2020.2.10,Win32,60,61025ae37ef11b136ea224fe,,,,,,,,,3031,89,52,1,0,0,response1disk,,6,6,3,1,0,0,rectangle,6,3,1,0,0,6,3,1,0,0,0,84,84,42,1,,,,,,,,
,,,,,,,,,,,,,FF,,,,,,,,2.6232,,,,,,,,,,,,,,,,,,,,,,60fe39803b9a5a11674a9e9c,61036ded606dd7586d939d0f,2021-07-29_21h17.25.520,Simcolourproject_2stim_asymm_v5,2020.2.10,Win32,60,61025ae37ef11b136ea224fe,,,,,,,,,3447,96,41,1,0,0,response1disk,,6,-5,-10,1,0,0,rectangle,-5,-10,1,0,0,-5,-10,1,0,0,0,85,85,28,1,,,,,,,,
,,,,,,,,,,,,,FF,,,,,,,,2.2037,,,,,,,,,,,,,,,,,,,,,,60fe39803b9a5a11674a9e9c,61036ded606dd7586d939d0f,2021-07-29_21h17.25.520,Simcolourproject_2stim_asymm_v5,2020.2.10,Win32,60,61025ae37ef11b136ea224fe,,,,,,,,,3883,67,52,1,0,0,response1disk,,6,-12,0,1,0,0,rectangle,-12,0,1,0,0,-12,0,1,0,0,0,86,86,27,1,,,,,,,,
,,,,,,,,,,,,,FF,,,,,,,,4.3366,,,,,,,,,,,,,,,,,,,,,,60fe39803b9a5a11674a9e9c,61036ded606dd7586d939d0f,2021-07-29_21h17.25.520,Simcolourproject_2stim_asymm_v5,2020.2.10,Win32,60,61025ae37ef11b136ea224fe,,,,,,,,,1138,44,-57,1,0,0,response3disk,,4,1,2,1,0,0,rectangle,1,2,1,0,0,1,2,1,0,0,0,87,87,158,1,,,,,,,,
,,,,,,,,,,,,,FF,,,,,,,,3.0844,,,,,,,,,,,,,,,,,,,,,,60fe39803b9a5a11674a9e9c,61036ded606dd7586d939d0f,2021-07-29_21h17.25.520,Simcolourproject_2stim_asymm_v5,2020.2.10,Win32,60,61025ae37ef11b136ea224fe,,,,,,,,,487,85,-42,1,0,0,response3disk,,5,-15,-7,1,0,0,rectangle,-15,-7,1,0,0,-15,-7,1,0,0,0,88,88,24,1,,,,,,,,
,,,,,,,,,,,,,FF,,,,,,,,1.7262,,,,,,,,,,,,,,,,,,,,,,60fe39803b9a5a11674a9e9c,61036ded606dd7586d939d0f,2021-07-29_21h17.25.520,Simcolourproject_2stim_asymm_v5,2020.2.10,Win32,60,61025ae37ef11b136ea224fe,,,,,,,,,1765,-36,-53,1,0,0,response5disk,,3,-22,-2,1,0,0,rectangle,-22,-2,1,0,0,-22,-2,1,0,0,0,89,89,58,1,,,,,,,,
,,,,,,,,,,,,,FF,,,,,,,,1.489,,,,,,,,,,,,,,,,,,,,,,60fe39803b9a5a11674a9e9c,61036ded606dd7586d939d0f,2021-07-29_21h17.25.520,Simcolourproject_2stim_asymm_v5,2020.2.10,Win32,60,61025ae37ef11b136ea224fe,,,,,,,,,1615,-86,34,1,0,0,response7disk,,1,-1,1,1,0,0,rectangle,-1,1,1,0,0,-1,1,1,0,0,0,90,90,35,1,,,,,,,,
,,,,,,,,,,,,,FF,,,,,,,,2.3049,,,,,,,,,,,,,,,,,,,,,,60fe39803b9a5a11674a9e9c,61036ded606dd7586d939d0f,2021-07-29_21h17.25.520,Simcolourproject_2stim_asymm_v5,2020.2.10,Win32,60,61025ae37ef11b136ea224fe,,,,,,,,,4176,-61,-31,1,0,0,response5disk,,2,-2,-2,1,0,0,rectangle,-2,-2,1,0,0,-2,-2,1,0,0,0,91,91,124,1,,,,,,,,
,,,,,,,,,,,,,FF,,,,,,,,2.4852,,,,,,,,,,,,,,,,,,,,,,60fe39803b9a5a11674a9e9c,61036ded606dd7586d939d0f,2021-07-29_21h17.25.520,Simcolourproject_2stim_asymm_v5,2020.2.10,Win32,60,61025ae37ef11b136ea224fe,,,,,,,,,1074,-76,41,1,0,0,response7disk,,1,7,2,1,0,0,rectangle,7,2,1,0,0,7,2,1,0,0,0,92,92,55,1,,,,,,,,
,,,,,,,,,,,,,FF,,,,,,,,1.3312,,,,,,,,,,,,,,,,,,,,,,60fe39803b9a5a11674a9e9c,61036ded606dd7586d939d0f,2021-07-29_21h17.25.520,Simcolourproject_2stim_asymm_v5,2020.2.10,Win32,60,61025ae37ef11b136ea224fe,,,,,,,,,2034,-58,31,1,0,0,response7disk,,1,-3,-3,1,0,0,rectangle,-3,-3,1,0,0,-3,-3,1,0,0,0,93,93,74,1,,,,,,,,
,,,,,,,,,,,,,FF,,,,,,,,3.5685,,,,,,,,,,,,,,,,,,,,,,60fe39803b9a5a11674a9e9c,61036ded606dd7586d939d0f,2021-07-29_21h17.25.520,Simcolourproject_2stim_asymm_v5,2020.2.10,Win32,60,61025ae37ef11b136ea224fe,,,,,,,,,2123,96,-53,1,0,0,response3disk,,5,8,-6,1,0,0,rectangle,8,-6,1,0,0,8,-6,1,0,0,0,94,94,139,1,,,,,,,,
,,,,,,,,,,,,,FF,,,,,,,,3.1879,,,,,,,,,,,,,,,,,,,,,,60fe39803b9a5a11674a9e9c,61036ded606dd7586d939d0f,2021-07-29_21h17.25.520,Simcolourproject_2stim_asymm_v5,2020.2.10,Win32,60,61025ae37ef11b136ea224fe,,,,,,,,,4339,-68,45,1,0,0,response7disk,,1,2,-3,1,0,0,rectangle,2,-3,1,0,0,2,-3,1,0,0,0,95,95,78,1,,,,,,,,
,,,,,,,,,,,,,FF,,,,,,,,3.636,,,,,,,,,,,,,,,,,,,,,,60fe39803b9a5a11674a9e9c,61036ded606dd7586d939d0f,2021-07-29_21h17.25.520,Simcolourproject_2stim_asymm_v5,2020.2.10,Win32,60,61025ae37ef11b136ea224fe,,,,,,,,,1117,-34,-81,1,0,0,response5disk,,3,1,-3,1,0,0,rectangle,85,-38,1,0,0,-4,4,1,0,0,0,96,96,156,1,,response3disk_3,TRUE,5,5,"[164,123,309,156,299,97,7,156,116,138,298,260,171,210,108,190,317,271,323,166]",2.8642,rectangle
,,,,,,,,,,,,,FF,,,,,,,,4.0528,,,,,,,,,,,,,,,,,,,,,,60fe39803b9a5a11674a9e9c,61036ded606dd7586d939d0f,2021-07-29_21h17.25.520,Simcolourproject_2stim_asymm_v5,2020.2.10,Win32,60,61025ae37ef11b136ea224fe,,,,,,,,,1011,81,46,1,0,0,response1disk,,6,-2,-2,1,0,0,rectangle,-2,-2,1,0,0,-2,-2,1,0,0,0,97,97,95,1,,,,,,,,
,,,,,,,,,,,,,FF,,,,,,,,2.4684,,,,,,,,,,,,,,,,,,,,,,60fe39803b9a5a11674a9e9c,61036ded606dd7586d939d0f,2021-07-29_21h17.25.520,Simcolourproject_2stim_asymm_v5,2020.2.10,Win32,60,61025ae37ef11b136ea224fe,,,,,,,,,1806,38,-77,1,0,0,response3disk,,4,-5,-5,1,0,0,rectangle,-5,-5,1,0,0,-5,-5,1,0,0,0,98,98,32,1,,,,,,,,
,,,,,,,,,,,,,FF,,,,,,,,4.0101,,,,,,,,,,,,,,,,,,,,,,60fe39803b9a5a11674a9e9c,61036ded606dd7586d939d0f,2021-07-29_21h17.25.520,Simcolourproject_2stim_asymm_v5,2020.2.10,Win32,60,61025ae37ef11b136ea224fe,,,,,,,,,1259,81,37,1,0,0,response1disk,,6,-15,-5,1,0,0,rectangle,-15,-5,1,0,0,-15,-5,1,0,0,0,99,99,33,1,,,,,,,,
,,,,,,,,,,,,,FF,,,,,,,,2.1191,,,,,,,,,,,,,,,,,,,,,,60fe39803b9a5a11674a9e9c,61036ded606dd7586d939d0f,2021-07-29_21h17.25.520,Simcolourproject_2stim_asymm_v5,2020.2.10,Win32,60,61025ae37ef11b136ea224fe,,,,,,,,,2611,-53,-73,1,0,0,response5disk,,3,-15,5,1,0,0,rectangle,-15,5,1,0,0,-15,5,1,0,0,0,100,100,92,1,,,,,,,,
,,,,,,,,,,,,,FF,,,,,,,,1.5529,,,,,,,,,,,,,,,,,,,,,,60fe39803b9a5a11674a9e9c,61036ded606dd7586d939d0f,2021-07-29_21h17.25.520,Simcolourproject_2stim_asymm_v5,2020.2.10,Win32,60,61025ae37ef11b136ea224fe,,,,,,,,,1352,61,-41,1,0,0,response3disk,,5,6,3,1,0,0,rectangle,6,3,1,0,0,6,3,1,0,0,0,101,101,106,1,,,,,,,,
,,,,,,,,,,,,,FF,,,,,,,,1.2675,,,,,,,,,,,,,,,,,,,,,,60fe39803b9a5a11674a9e9c,61036ded606dd7586d939d0f,2021-07-29_21h17.25.520,Simcolourproject_2stim_asymm_v5,2020.2.10,Win32,60,61025ae37ef11b136ea224fe,,,,,,,,,1708,68,36,1,0,0,response1disk,,6,-10,5,1,0,0,rectangle,-10,5,1,0,0,-10,5,1,0,0,0,102,102,90,1,,,,,,,,
,,,,,,,,,,,,,FF,,,,,,,,1.8848,,,,,,,,,,,,,,,,,,,,,,60fe39803b9a5a11674a9e9c,61036ded606dd7586d939d0f,2021-07-29_21h17.25.520,Simcolourproject_2stim_asymm_v5,2020.2.10,Win32,60,61025ae37ef11b136ea224fe,,,,,,,,,2090,-99,-26,1,0,0,response5disk,,2,-26,4,1,0,0,rectangle,-26,4,1,0,0,-26,4,1,0,0,0,103,103,0,1,,,,,,,,
,,,,,,,,,,,,,FF,,,,,,,,4.2854,,,,,,,,,,,,,,,,,,,,,,60fe39803b9a5a11674a9e9c,61036ded606dd7586d939d0f,2021-07-29_21h17.25.520,Simcolourproject_2stim_asymm_v5,2020.2.10,Win32,60,61025ae37ef11b136ea224fe,,,,,,,,,2555,-22,-75,1,0,0,response5disk,,3,-7,0,1,0,0,rectangle,-7,0,1,0,0,-7,0,1,0,0,0,104,104,132,1,,,,,,,,
,,,,,,,,,,,,,FF,,,,,,,,3.9023,,,,,,,,,,,,,,,,,,,,,,60fe39803b9a5a11674a9e9c,61036ded606dd7586d939d0f,2021-07-29_21h17.25.520,Simcolourproject_2stim_asymm_v5,2020.2.10,Win32,60,61025ae37ef11b136ea224fe,,,,,,,,,2376,32,-87,1,0,0,response3disk,,4,0,-3,1,0,0,rectangle,0,-3,1,0,0,0,-3,1,0,0,0,105,105,25,1,,,,,,,,
,,,,,,,,,,,,,FF,,,,,,,,1.1517,,,,,,,,,,,,,,,,,,,,,,60fe39803b9a5a11674a9e9c,61036ded606dd7586d939d0f,2021-07-29_21h17.25.520,Simcolourproject_2stim_asymm_v5,2020.2.10,Win32,60,61025ae37ef11b136ea224fe,,,,,,,,,3149,-87,32,1,0,0,response7disk,,1,-9,3,1,0,0,rectangle,-9,3,1,0,0,-9,3,1,0,0,0,106,106,117,1,,,,,,,,
,,,,,,,,,,,,,FF,,,,,,,,2.2836,,,,,,,,,,,,,,,,,,,,,,60fe39803b9a5a11674a9e9c,61036ded606dd7586d939d0f,2021-07-29_21h17.25.520,Simcolourproject_2stim_asymm_v5,2020.2.10,Win32,60,61025ae37ef11b136ea224fe,,,,,,,,,1139,25,-72,1,0,0,response3disk,,4,-6,-5,1,0,0,rectangle,38,87,1,0,0,-1,7,1,0,0,0,107,107,61,1,,response1disk_3,TRUE,7,7,"[164,123,309,156,299,97,7,156,116,138,298,260,171,210,108,190,317,271,323,166]",2.3028,rectangle
,,,,,,,,,,,,,FF,,,,,,,,4.7377,,,,,,,,,,,,,,,,,,,,,,60fe39803b9a5a11674a9e9c,61036ded606dd7586d939d0f,2021-07-29_21h17.25.520,Simcolourproject_2stim_asymm_v5,2020.2.10,Win32,60,61025ae37ef11b136ea224fe,,,,,,,,,769,85,-29,1,0,0,response3disk,,5,6,-4,1,0,0,rectangle,6,-4,1,0,0,6,-4,1,0,0,0,108,108,96,1,,,,,,,,
,,,,,,,,,,,,,FF,,,,,,,,1.4998,,,,,,,,,,,,,,,,,,,,,,60fe39803b9a5a11674a9e9c,61036ded606dd7586d939d0f,2021-07-29_21h17.25.520,Simcolourproject_2stim_asymm_v5,2020.2.10,Win32,60,61025ae37ef11b136ea224fe,,,,,,,,,4316,-40,79,1,0,0,response7disk,,0,-4,3,1,0,0,rectangle,-4,3,1,0,0,-4,3,1,0,0,0,109,109,26,1,,,,,,,,
,,,,,,,,,,,,,FF,,,,,,,,1.4353,,,,,,,,,,,,,,,,,,,,,,60fe39803b9a5a11674a9e9c,61036ded606dd7586d939d0f,2021-07-29_21h17.25.520,Simcolourproject_2stim_asymm_v5,2020.2.10,Win32,60,61025ae37ef11b136ea224fe,,,,,,,,,887,-95,62,1,0,0,response7disk,,1,-8,-7,1,0,0,rectangle,-8,-7,1,0,0,-8,-7,1,0,0,0,110,110,52,1,,,,,,,,
,,,,,,,,,,,,,FF,,,,,,,,2.8014,,,,,,,,,,,,,,,,,,,,,,60fe39803b9a5a11674a9e9c,61036ded606dd7586d939d0f,2021-07-29_21h17.25.520,Simcolourproject_2stim_asymm_v5,2020.2.10,Win32,60,61025ae37ef11b136ea224fe,,,,,,,,,2141,76,27,1,0,0,response1disk,,6,-5,1,1,0,0,rectangle,-5,1,1,0,0,-5,1,1,0,0,0,111,111,109,1,,,,,,,,
,,,,,,,,,,,,,FF,,,,,,,,2.818,,,,,,,,,,,,,,,,,,,,,,60fe39803b9a5a11674a9e9c,61036ded606dd7586d939d0f,2021-07-29_21h17.25.520,Simcolourproject_2stim_asymm_v5,2020.2.10,Win32,60,61025ae37ef11b136ea224fe,,,,,,,,,2227,-82,58,1,0,0,response7disk,,1,7,2,1,0,0,rectangle,7,2,1,0,0,7,2,1,0,0,0,112,112,36,1,,,,,,,,
,,,,,,,,,,,,,FF,,,,,,,,1.6515,,,,,,,,,,,,,,,,,,,,,,60fe39803b9a5a11674a9e9c,61036ded606dd7586d939d0f,2021-07-29_21h17.25.520,Simcolourproject_2stim_asymm_v5,2020.2.10,Win32,60,61025ae37ef11b136ea224fe,,,,,,,,,1896,-91,32,1,0,0,response7disk,,1,-3,5,1,0,0,rectangle,-3,5,1,0,0,-3,5,1,0,0,0,113,113,119,1,,,,,,,,
,,,,,,,,,,,,,FF,,,,,,,,4.1026,,,,,,,,,,,,,,,,,,,,,,60fe39803b9a5a11674a9e9c,61036ded606dd7586d939d0f,2021-07-29_21h17.25.520,Simcolourproject_2stim_asymm_v5,2020.2.10,Win32,60,61025ae37ef11b136ea224fe,,,,,,,,,4245,88,27,1,0,0,response1disk,,6,-10,2,1,0,0,rectangle,-10,2,1,0,0,-10,2,1,0,0,0,114,114,136,1,,,,,,,,
,,,,,,,,,,,,,FF,,,,,,,,2.3424,,,,,,,,,,,,,,,,,,,,,,60fe39803b9a5a11674a9e9c,61036ded606dd7586d939d0f,2021-07-29_21h17.25.520,Simcolourproject_2stim_asymm_v5,2020.2.10,Win32,60,61025ae37ef11b136ea224fe,,,,,,,,,3702,76,43,1,0,0,response1disk,,6,-1,5,1,0,0,rectangle,-43,107,1,0,0,-2,5,1,0,0,0,115,115,2,1,,response7disk_3,TRUE,0,0,"[164,123,309,156,299,97,7,156,116,138,298,260,171,210,108,190,317,271,323,166]",2.3698,rectangle
,,,,,,,,,,,,,FF,,,,,,,,2.419,,,,,,,,,,,,,,,,,,,,,,60fe39803b9a5a11674a9e9c,61036ded606dd7586d939d0f,2021-07-29_21h17.25.520,Simcolourproject_2stim_asymm_v5,2020.2.10,Win32,60,61025ae37ef11b136ea224fe,,,,,,,,,2844,40,-67,1,0,0,response3disk,,4,4,0,1,0,0,rectangle,4,0,1,0,0,4,0,1,0,0,0,116,116,18,1,,,,,,,,
,,,,,,,,,,,,,FF,,,,,,,,2.3011,,,,,,,,,,,,,,,,,,,,,,60fe39803b9a5a11674a9e9c,61036ded606dd7586d939d0f,2021-07-29_21h17.25.520,Simcolourproject_2stim_asymm_v5,2020.2.10,Win32,60,61025ae37ef11b136ea224fe,,,,,,,,,2241,-40,-71,1,0,0,response5disk,,3,-2,5,1,0,0,rectangle,-2,5,1,0,0,-2,5,1,0,0,0,117,117,152,1,,,,,,,,
,,,,,,,,,,,,,FF,,,,,,,,1.3847,,,,,,,,,,,,,,,,,,,,,,60fe39803b9a5a11674a9e9c,61036ded606dd7586d939d0f,2021-07-29_21h17.25.520,Simcolourproject_2stim_asymm_v5,2020.2.10,Win32,60,61025ae37ef11b136ea224fe,,,,,,,,,4221,-81,-36,1,0,0,response5disk,,2,-1,2,1,0,0,rectangle,-1,2,1,0,0,-1,2,1,0,0,0,118,118,30,1,,,,,,,,
,,,,,,,,,,,,,FF,,,,,,,,2.7712,,,,,,,,,,,,,,,,,,,,,,60fe39803b9a5a11674a9e9c,61036ded606dd7586d939d0f,2021-07-29_21h17.25.520,Simcolourproject_2stim_asymm_v5,2020.2.10,Win32,60,61025ae37ef11b136ea224fe,,,,,,,,,2637,67,-94,1,0,0,response3disk,,4,0,5,1,0,0,rectangle,0,5,1,0,0,0,5,1,0,0,0,119,119,147,1,,,,,,,,
,,,,,,,,,,,,,FF,,,,,,,,1.8179,,,,,,,,,,,,,,,,,,,,,,60fe39803b9a5a11674a9e9c,61036ded606dd7586d939d0f,2021-07-29_21h17.25.520,Simcolourproject_2stim_asymm_v5,2020.2.10,Win32,60,61025ae37ef11b136ea224fe,,,,,,,,,2738,89,-26,1,0,0,response3disk,,5,-5,10,1,0,0,rectangle,-5,10,1,0,0,-5,10,1,0,0,0,120,120,21,1,,,,,,,,
,,,,,,,,,,,,,FF,,,,,,,,1.9851,,,,,,,,,,,,,,,,,,,,,,60fe39803b9a5a11674a9e9c,61036ded606dd7586d939d0f,2021-07-29_21h17.25.520,Simcolourproject_2stim_asymm_v5,2020.2.10,Win32,60,61025ae37ef11b136ea224fe,,,,,,,,,1399,52,22,1,0,0,response1disk,,6,-14,2,1,0,0,rectangle,-14,2,1,0,0,-14,2,1,0,0,0,121,121,64,1,,,,,,,,
,,,,,,,,,,,,,FF,,,,,,,,1.7018,,,,,,,,,,,,,,,,,,,,,,60fe39803b9a5a11674a9e9c,61036ded606dd7586d939d0f,2021-07-29_21h17.25.520,Simcolourproject_2stim_asymm_v5,2020.2.10,Win32,60,61025ae37ef11b136ea224fe,,,,,,,,,415,75,25,1,0,0,response1disk,,6,-2,9,1,0,0,rectangle,-41,-78,1,0,0,-7,5,1,0,0,0,122,122,107,1,,response5disk_3,TRUE,3,3,"[164,123,309,156,299,97,7,156,116,138,298,260,171,210,108,190,317,271,323,166]",2.3843,rectangle
,,,,,,,,,,,,,FF,,,,,,,,1.1735,,,,,,,,,,,,,,,,,,,,,,60fe39803b9a5a11674a9e9c,61036ded606dd7586d939d0f,2021-07-29_21h17.25.520,Simcolourproject_2stim_asymm_v5,2020.2.10,Win32,60,61025ae37ef11b136ea224fe,,,,,,,,,3210,-79,-27,1,0,0,response5disk,,2,-6,6,1,0,0,rectangle,-6,6,1,0,0,-6,6,1,0,0,0,123,123,59,1,,,,,,,,
,,,,,,,,,,,,,FF,,,,,,,,2.0347,,,,,,,,,,,,,,,,,,,,,,60fe39803b9a5a11674a9e9c,61036ded606dd7586d939d0f,2021-07-29_21h17.25.520,Simcolourproject_2stim_asymm_v5,2020.2.10,Win32,60,61025ae37ef11b136ea224fe,,,,,,,,,667,27,-88,1,0,0,response3disk,,4,0,9,1,0,0,rectangle,0,9,1,0,0,0,9,1,0,0,0,124,124,3,1,,,,,,,,
,,,,,,,,,,,,,FF,,,,,,,,3.3022,,,,,,,,,,,,,,,,,,,,,,60fe39803b9a5a11674a9e9c,61036ded606dd7586d939d0f,2021-07-29_21h17.25.520,Simcolourproject_2stim_asymm_v5,2020.2.10,Win32,60,61025ae37ef11b136ea224fe,,,,,,,,,1636,84,-20,1,0,0,response3disk,,5,2,-3,1,0,0,rectangle,2,-3,1,0,0,2,-3,1,0,0,0,125,125,23,1,,,,,,,,
,,,,,,,,,,,,,FF,,,,,,,,3.8532,,,,,,,,,,,,,,,,,,,,,,60fe39803b9a5a11674a9e9c,61036ded606dd7586d939d0f,2021-07-29_21h17.25.520,Simcolourproject_2stim_asymm_v5,2020.2.10,Win32,60,61025ae37ef11b136ea224fe,,,,,,,,,4129,-79,-45,1,0,0,response5disk,,2,-7,3,1,0,0,rectangle,-7,3,1,0,0,-7,3,1,0,0,0,126,126,7,1,,,,,,,,
,,,,,,,,,,,,,FF,,,,,,,,1.2673,,,,,,,,,,,,,,,,,,,,,,60fe39803b9a5a11674a9e9c,61036ded606dd7586d939d0f,2021-07-29_21h17.25.520,Simcolourproject_2stim_asymm_v5,2020.2.10,Win32,60,61025ae37ef11b136ea224fe,,,,,,,,,2412,-62,-39,1,0,0,response5disk,,2,0,1,1,0,0,rectangle,0,1,1,0,0,0,1,1,0,0,0,127,127,19,1,,,,,,,,
,,,,,,,,,,,,,FF,,,,,,,,2.6857,,,,,,,,,,,,,,,,,,,,,,60fe39803b9a5a11674a9e9c,61036ded606dd7586d939d0f,2021-07-29_21h17.25.520,Simcolourproject_2stim_asymm_v5,2020.2.10,Win32,60,61025ae37ef11b136ea224fe,,,,,,,,,2501,55,-74,1,0,0,response3disk,,4,-5,10,1,0,0,rectangle,-5,10,1,0,0,-5,10,1,0,0,0,128,128,112,1,,,,,,,,
,,,,,,,,,,,,,FF,,,,,,,,1.0336,,,,,,,,,,,,,,,,,,,,,,60fe39803b9a5a11674a9e9c,61036ded606dd7586d939d0f,2021-07-29_21h17.25.520,Simcolourproject_2stim_asymm_v5,2020.2.10,Win32,60,61025ae37ef11b136ea224fe,,,,,,,,,1474,-65,-34,1,0,0,response5disk,,2,-16,5,1,0,0,rectangle,-16,5,1,0,0,-16,5,1,0,0,0,129,129,15,1,,,,,,,,
,,,,,,,,,,,,,FF,,,,,,,,1.6847,,,,,,,,,,,,,,,,,,,,,,60fe39803b9a5a11674a9e9c,61036ded606dd7586d939d0f,2021-07-29_21h17.25.520,Simcolourproject_2stim_asymm_v5,2020.2.10,Win32,60,61025ae37ef11b136ea224fe,,,,,,,,,452,-32,-56,1,0,0,response5disk,,3,-6,9,1,0,0,rectangle,-6,9,1,0,0,-6,9,1,0,0,0,130,130,83,1,,,,,,,,
,,,,,,,,,,,,,FF,,,,,,,,2.4354,,,,,,,,,,,,,,,,,,,,,,60fe39803b9a5a11674a9e9c,61036ded606dd7586d939d0f,2021-07-29_21h17.25.520,Simcolourproject_2stim_asymm_v5,2020.2.10,Win32,60,61025ae37ef11b136ea224fe,,,,,,,,,4356,-71,38,1,0,0,response7disk,,1,-12,11,1,0,0,rectangle,-12,11,1,0,0,-12,11,1,0,0,0,131,131,98,1,,,,,,,,
,,,,,,,,,,,,,FF,,,,,,,,1.7014,,,,,,,,,,,,,,,,,,,,,,60fe39803b9a5a11674a9e9c,61036ded606dd7586d939d0f,2021-07-29_21h17.25.520,Simcolourproject_2stim_asymm_v5,2020.2.10,Win32,60,61025ae37ef11b136ea224fe,,,,,,,,,702,-54,-32,1,0,0,response5disk,,2,8,-1,1,0,0,rectangle,8,-1,1,0,0,8,-1,1,0,0,0,132,132,137,1,,,,,,,,
,,,,,,,,,,,,,FF,,,,,,,,4.1428,,,,,,,,,,,,,,,,,,,,,,60fe39803b9a5a11674a9e9c,61036ded606dd7586d939d0f,2021-07-29_21h17.25.520,Simcolourproject_2stim_asymm_v5,2020.2.10,Win32,60,61025ae37ef11b136ea224fe,,,,,,,,,683,90,-29,1,0,0,response3disk,,5,-12,4,1,0,0,rectangle,-12,4,1,0,0,-12,4,1,0,0,0,133,133,126,1,,,,,,,,
,,,,,,,,,,,,,FF,,,,,,,,2.7581,,,,,,,,,,,,,,,,,,,,,,60fe39803b9a5a11674a9e9c,61036ded606dd7586d939d0f,2021-07-29_21h17.25.520,Simcolourproject_2stim_asymm_v5,2020.2.10,Win32,60,61025ae37ef11b136ea224fe,,,,,,,,,3646,50,67,1,0,0,response1disk,,7,0,2,1,0,0,rectangle,0,2,1,0,0,0,2,1,0,0,0,134,134,155,1,,,,,,,,
,,,,,,,,,,,,,FF,,,,,,,,2.1302,,,,,,,,,,,,,,,,,,,,,,60fe39803b9a5a11674a9e9c,61036ded606dd7586d939d0f,2021-07-29_21h17.25.520,Simcolourproject_2stim_asymm_v5,2020.2.10,Win32,60,61025ae37ef11b136ea224fe,,,,,,,,,1124,41,-61,1,0,0,response3disk,,4,4,-1,1,0,0,rectangle,4,-1,1,0,0,4,-1,1,0,0,0,135,135,100,1,,,,,,,,
,,,,,,,,,,,,,FF,,,,,,,,1.7656,,,,,,,,,,,,,,,,,,,,,,60fe39803b9a5a11674a9e9c,61036ded606dd7586d939d0f,2021-07-29_21h17.25.520,Simcolourproject_2stim_asymm_v5,2020.2.10,Win32,60,61025ae37ef11b136ea224fe,,,,,,,,,3099,-71,-42,1,0,0,response5disk,,2,-21,-4,1,0,0,rectangle,-21,-4,1,0,0,-21,-4,1,0,0,0,136,136,110,1,,,,,,,,
,,,,,,,,,,,,,FF,,,,,,,,1.5232,,,,,,,,,,,,,,,,,,,,,,60fe39803b9a5a11674a9e9c,61036ded606dd7586d939d0f,2021-07-29_21h17.25.520,Simcolourproject_2stim_asymm_v5,2020.2.10,Win32,60,61025ae37ef11b136ea224fe,,,,,,,,,4229,93,40,1,0,0,response1disk,,6,-7,0,1,0,0,rectangle,86,37,1,0,0,-6,2,1,0,0,0,137,137,31,1,,response1disk_3,TRUE,6,6,"[164,123,309,156,299,97,7,156,116,138,298,260,171,210,108,190,317,271,323,166]",2.0546,rectangle
,,,,,,,,,,,,,FF,,,,,,,,2.1007,,,,,,,,,,,,,,,,,,,,,,60fe39803b9a5a11674a9e9c,61036ded606dd7586d939d0f,2021-07-29_21h17.25.520,Simcolourproject_2stim_asymm_v5,2020.2.10,Win32,60,61025ae37ef11b136ea224fe,,,,,,,,,1099,95,-36,1,0,0,response3disk,,5,-7,-3,1,0,0,rectangle,-7,-3,1,0,0,-7,-3,1,0,0,0,138,138,111,1,,,,,,,,
,,,,,,,,,,,,,FF,,,,,,,,2.4196,,,,,,,,,,,,,,,,,,,,,,60fe39803b9a5a11674a9e9c,61036ded606dd7586d939d0f,2021-07-29_21h17.25.520,Simcolourproject_2stim_asymm_v5,2020.2.10,Win32,60,61025ae37ef11b136ea224fe,,,,,,,,,4302,44,-60,1,0,0,response3disk,,4,-1,0,1,0,0,rectangle,-1,0,1,0,0,-1,0,1,0,0,0,139,139,20,1,,,,,,,,
,,,,,,,,,,,,,FF,,,,,,,,2.8018,,,,,,,,,,,,,,,,,,,,,,60fe39803b9a5a11674a9e9c,61036ded606dd7586d939d0f,2021-07-29_21h17.25.520,Simcolourproject_2stim_asymm_v5,2020.2.10,Win32,60,61025ae37ef11b136ea224fe,,,,,,,,,2762,84,27,1,0,0,response1disk,,6,-12,1,1,0,0,rectangle,-12,1,1,0,0,-12,1,1,0,0,0,140,140,48,1,,,,,,,,
,,,,,,,,,,,,,FF,,,,,,,,1.2112,,,,,,,,,,,,,,,,,,,,,,60fe39803b9a5a11674a9e9c,61036ded606dd7586d939d0f,2021-07-29_21h17.25.520,Simcolourproject_2stim_asymm_v5,2020.2.10,Win32,60,61025ae37ef11b136ea224fe,,,,,,,,,2196,96,-36,1,0,0,response3disk,,5,-7,8,1,0,0,rectangle,-7,8,1,0,0,-7,8,1,0,0,0,141,141,45,1,,,,,,,,
,,,,,,,,,,,,,FF,,,,,,,,1.8674,,,,,,,,,,,,,,,,,,,,,,60fe39803b9a5a11674a9e9c,61036ded606dd7586d939d0f,2021-07-29_21h17.25.520,Simcolourproject_2stim_asymm_v5,2020.2.10,Win32,60,61025ae37ef11b136ea224fe,,,,,,,,,1357,81,43,1,0,0,response1disk,,6,-1,-3,1,0,0,rectangle,-1,-3,1,0,0,-1,-3,1,0,0,0,142,142,8,1,,,,,,,,
,,,,,,,,,,,,,FF,,,,,,,,1.9195,,,,,,,,,,,,,,,,,,,,,,60fe39803b9a5a11674a9e9c,61036ded606dd7586d939d0f,2021-07-29_21h17.25.520,Simcolourproject_2stim_asymm_v5,2020.2.10,Win32,60,61025ae37ef11b136ea224fe,,,,,,,,,2731,90,42,1,0,0,response1disk,,6,-6,-1,1,0,0,rectangle,-6,-1,1,0,0,-6,-1,1,0,0,0,143,143,40,1,,,,,,,,
,,,,,,,,,,,,,FF,,,,,,,,1.6659,,,,,,,,,,,,,,,,,,,,,,60fe39803b9a5a11674a9e9c,61036ded606dd7586d939d0f,2021-07-29_21h17.25.520,Simcolourproject_2stim_asymm_v5,2020.2.10,Win32,60,61025ae37ef11b136ea224fe,,,,,,,,,2381,94,-49,1,0,0,response3disk,,5,-14,7,1,0,0,rectangle,-14,7,1,0,0,-14,7,1,0,0,0,144,144,89,1,,,,,,,,
,,,,,,,,,,,,,FF,,,,,,,,1.6892,,,,,,,,,,,,,,,,,,,,,,60fe39803b9a5a11674a9e9c,61036ded606dd7586d939d0f,2021-07-29_21h17.25.520,Simcolourproject_2stim_asymm_v5,2020.2.10,Win32,60,61025ae37ef11b136ea224fe,,,,,,,,,2474,-21,-58,1,0,0,response5disk,,3,-10,-10,1,0,0,rectangle,-10,-10,1,0,0,-10,-10,1,0,0,0,145,145,128,1,,,,,,,,
,,,,,,,,,,,,,FF,,,,,,,,3.0847,,,,,,,,,,,,,,,,,,,,,,60fe39803b9a5a11674a9e9c,61036ded606dd7586d939d0f,2021-07-29_21h17.25.520,Simcolourproject_2stim_asymm_v5,2020.2.10,Win32,60,61025ae37ef11b136ea224fe,,,,,,,,,3522,23,-68,1,0,0,response3disk,,4,-10,0,1,0,0,rectangle,-10,0,1,0,0,-10,0,1,0,0,0,146,146,97,1,,,,,,,,
,,,,,,,,,,,,,FF,,,,,,,,2.0681,,,,,,,,,,,,,,,,,,,,,,60fe39803b9a5a11674a9e9c,61036ded606dd7586d939d0f,2021-07-29_21h17.25.520,Simcolourproject_2stim_asymm_v5,2020.2.10,Win32,60,61025ae37ef11b136ea224fe,,,,,,,,,1793,78,74,1,0,0,response1disk,,6,-1,2,1,0,0,rectangle,-1,2,1,0,0,-1,2,1,0,0,0,147,147,159,1,,,,,,,,
,,,,,,,,,,,,,FF,,,,,,,,1.9525,,,,,,,,,,,,,,,,,,,,,,60fe39803b9a5a11674a9e9c,61036ded606dd7586d939d0f,2021-07-29_21h17.25.520,Simcolourproject_2stim_asymm_v5,2020.2.10,Win32,60,61025ae37ef11b136ea224fe,,,,,,,,,3437,-78,-58,1,0,0,response5disk,,2,-4,2,1,0,0,rectangle,-4,2,1,0,0,-4,2,1,0,0,0,148,148,9,1,,,,,,,,
,,,,,,,,,,,,,FF,,,,,,,,1.7848,,,,,,,,,,,,,,,,,,,,,,60fe39803b9a5a11674a9e9c,61036ded606dd7586d939d0f,2021-07-29_21h17.25.520,Simcolourproject_2stim_asymm_v5,2020.2.10,Win32,60,61025ae37ef11b136ea224fe,,,,,,,,,3080,-35,-58,1,0,0,response5disk,,3,-14,2,1,0,0,rectangle,-14,2,1,0,0,-14,2,1,0,0,0,149,149,53,1,,,,,,,,
,,,,,,,,,,,,,FF,,,,,,,,4.3697,,,,,,,,,,,,,,,,,,,,,,60fe39803b9a5a11674a9e9c,61036ded606dd7586d939d0f,2021-07-29_21h17.25.520,Simcolourproject_2stim_asymm_v5,2020.2.10,Win32,60,61025ae37ef11b136ea224fe,,,,,,,,,1158,-33,-75,1,0,0,response5disk,,3,-6,14,1,0,0,rectangle,-6,14,1,0,0,-6,14,1,0,0,0,150,150,56,1,,,,,,,,
,,,,,,,,,,,,,FF,,,,,,,,1.1007,,,,,,,,,,,,,,,,,,,,,,60fe39803b9a5a11674a9e9c,61036ded606dd7586d939d0f,2021-07-29_21h17.25.520,Simcolourproject_2stim_asymm_v5,2020.2.10,Win32,60,61025ae37ef11b136ea224fe,,,,,,,,,17,60,-34,1,0,0,response3disk,,5,16,1,1,0,0,rectangle,16,1,1,0,0,16,1,1,0,0,0,151,151,76,1,,,,,,,,
,,,,,,,,,,,,,FF,,,,,,,,0.9346,,,,,,,,,,,,,,,,,,,,,,60fe39803b9a5a11674a9e9c,61036ded606dd7586d939d0f,2021-07-29_21h17.25.520,Simcolourproject_2stim_asymm_v5,2020.2.10,Win32,60,61025ae37ef11b136ea224fe,,,,,,,,,2298,-87,33,1,0,0,response7disk,,1,-6,8,1,0,0,rectangle,-6,8,1,0,0,-6,8,1,0,0,0,152,152,10,1,,,,,,,,
,,,,,,,,,,,,,FF,,,,,,,,0.6844,,,,,,,,,,,,,,,,,,,,,,60fe39803b9a5a11674a9e9c,61036ded606dd7586d939d0f,2021-07-29_21h17.25.520,Simcolourproject_2stim_asymm_v5,2020.2.10,Win32,60,61025ae37ef11b136ea224fe,,,,,,,,,1759,-53,26,1,0,0,response7disk,,1,7,2,1,0,0,rectangle,7,2,1,0,0,7,2,1,0,0,0,153,153,114,1,,,,,,,,
,,,,,,,,,,,,,FF,,,,,,,,2.4011,,,,,,,,,,,,,,,,,,,,,,60fe39803b9a5a11674a9e9c,61036ded606dd7586d939d0f,2021-07-29_21h17.25.520,Simcolourproject_2stim_asymm_v5,2020.2.10,Win32,60,61025ae37ef11b136ea224fe,,,,,,,,,1996,76,-37,1,0,0,response3disk,,5,-4,7,1,0,0,rectangle,-4,7,1,0,0,-4,7,1,0,0,0,154,154,143,1,,,,,,,,
,,,,,,,,,,,,,FF,,,,,,,,1.1213,,,,,,,,,,,,,,,,,,,,,,60fe39803b9a5a11674a9e9c,61036ded606dd7586d939d0f,2021-07-29_21h17.25.520,Simcolourproject_2stim_asymm_v5,2020.2.10,Win32,60,61025ae37ef11b136ea224fe,,,,,,,,,3270,40,71,1,0,0,response1disk,,7,7,0,1,0,0,rectangle,-40,-83,1,0,0,-7,-2,1,0,0,0,155,155,140,1,,response5disk_3,TRUE,3,3,"[164,123,309,156,299,97,7,156,116,138,298,260,171,210,108,190,317,271,323,166]",2.207,rectangle
,,,,,,,,,,,,,FF,,,,,,,,2.0602,,,,,,,,,,,,,,,,,,,,,,60fe39803b9a5a11674a9e9c,61036ded606dd7586d939d0f,2021-07-29_21h17.25.520,Simcolourproject_2stim_asymm_v5,2020.2.10,Win32,60,61025ae37ef11b136ea224fe,,,,,,,,,2748,60,23,1,0,0,response1disk,,6,11,-1,1,0,0,rectangle,11,-1,1,0,0,11,-1,1,0,0,0,156,156,39,1,,,,,,,,
,,,,,,,,,,,,,FF,,,,,,,,3.6196,,,,,,,,,,,,,,,,,,,,,,60fe39803b9a5a11674a9e9c,61036ded606dd7586d939d0f,2021-07-29_21h17.25.520,Simcolourproject_2stim_asymm_v5,2020.2.10,Win32,60,61025ae37ef11b136ea224fe,,,,,,,,,3402,53,-96,1,0,0,response3disk,,4,-10,12,1,0,0,rectangle,-10,12,1,0,0,-10,12,1,0,0,0,157,157,57,1,,,,,,,,
,,,,,,,,,,,,,FF,,,,,,,,1.2824,,,,,,,,,,,,,,,,,,,,,,60fe39803b9a5a11674a9e9c,61036ded606dd7586d939d0f,2021-07-29_21h17.25.520,Simcolourproject_2stim_asymm_v5,2020.2.10,Win32,60,61025ae37ef11b136ea224fe,,,,,,,,,2823,31,-57,1,0,0,response3disk,,4,4,-4,1,0,0,rectangle,4,-4,1,0,0,4,-4,1,0,0,0,158,158,87,1,,,,,,,,
,,,,,,,,,,,,,FF,,,,,,,,1.0511,,,,,,,,,,,,,,,,,,,,,,60fe39803b9a5a11674a9e9c,61036ded606dd7586d939d0f,2021-07-29_21h17.25.520,Simcolourproject_2stim_asymm_v5,2020.2.10,Win32,60,61025ae37ef11b136ea224fe,,,,,,,,,3973,-70,-35,1,0,0,response5disk,,2,13,4,1,0,0,rectangle,13,4,1,0,0,13,4,1,0,0,0,159,159,73,1,,,,,,,,
,,,,,,,,,,,,,FF,,,,,,,,1.0519,,,,,,,,,,,,,,,,,,,,,,60fe39803b9a5a11674a9e9c,61036ded606dd7586d939d0f,2021-07-29_21h17.25.520,Simcolourproject_2stim_asymm_v5,2020.2.10,Win32,60,61025ae37ef11b136ea224fe,,,,,,,,,1222,-81,-36,1,0,0,response5disk,,2,-15,-2,1,0,0,rectangle,-15,-2,1,0,0,-15,-2,1,0,0,1,0,160,40,1,,,,,,,,
,,,,,,,,,,,,,FF,,,,,,,,1.3088,,,,,,,,,,,,,,,,,,,,,,60fe39803b9a5a11674a9e9c,61036ded606dd7586d939d0f,2021-07-29_21h17.25.520,Simcolourproject_2stim_asymm_v5,2020.2.10,Win32,60,61025ae37ef11b136ea224fe,,,,,,,,,82,-70,-26,1,0,0,response5disk,,2,3,7,1,0,0,rectangle,3,7,1,0,0,3,7,1,0,0,1,1,161,147,1,,,,,,,,
,,,,,,,,,,,,,FF,,,,,,,,1.3181,,,,,,,,,,,,,,,,,,,,,,60fe39803b9a5a11674a9e9c,61036ded606dd7586d939d0f,2021-07-29_21h17.25.520,Simcolourproject_2stim_asymm_v5,2020.2.10,Win32,60,61025ae37ef11b136ea224fe,,,,,,,,,1939,81,-34,1,0,0,response3disk,,5,-8,7,1,0,0,rectangle,-8,7,1,0,0,-8,7,1,0,0,1,2,162,108,1,,,,,,,,
,,,,,,,,,,,,,FF,,,,,,,,1.1546,,,,,,,,,,,,,,,,,,,,,,60fe39803b9a5a11674a9e9c,61036ded606dd7586d939d0f,2021-07-29_21h17.25.520,Simcolourproject_2stim_asymm_v5,2020.2.10,Win32,60,61025ae37ef11b136ea224fe,,,,,,,,,1451,-103,28,1,0,0,response7disk,,1,-1,6,1,0,0,rectangle,-86,-30,1,0,0,-8,-4,1,0,0,1,3,163,30,1,,response5disk_3,TRUE,2,2,"[164,123,309,156,299,97,7,156,116,138,298,260,171,210,108,190,317,271,323,166]",1.9012,rectangle
,,,,,,,,,,,,,FF,,,,,,,,1.6683,,,,,,,,,,,,,,,,,,,,,,60fe39803b9a5a11674a9e9c,61036ded606dd7586d939d0f,2021-07-29_21h17.25.520,Simcolourproject_2stim_asymm_v5,2020.2.10,Win32,60,61025ae37ef11b136ea224fe,,,,,,,,,1659,33,-82,1,0,0,response3disk,,4,0,1,1,0,0,rectangle,0,1,1,0,0,0,1,1,0,0,1,4,164,97,1,,,,,,,,
,,,,,,,,,,,,,FF,,,,,,,,3.5055,,,,,,,,,,,,,,,,,,,,,,60fe39803b9a5a11674a9e9c,61036ded606dd7586d939d0f,2021-07-29_21h17.25.520,Simcolourproject_2stim_asymm_v5,2020.2.10,Win32,60,61025ae37ef11b136ea224fe,,,,,,,,,1717,68,-43,1,0,0,response3disk,,5,6,3,1,0,0,rectangle,-44,-86,1,0,0,-10,5,1,0,0,1,5,165,103,1,,response5disk_3,TRUE,3,3,"[164,123,309,156,299,97,7,156,116,138,298,260,171,210,108,190,317,271,323,166]",2.1566,rectangle
,,,,,,,,,,,,,FF,,,,,,,,1.5383,,,,,,,,,,,,,,,,,,,,,,60fe39803b9a5a11674a9e9c,61036ded606dd7586d939d0f,2021-07-29_21h17.25.520,Simcolourproject_2stim_asymm_v5,2020.2.10,Win32,60,61025ae37ef11b136ea224fe,,,,,,,,,1165,34,-71,1,0,0,response3disk,,4,-8,5,1,0,0,rectangle,-8,5,1,0,0,-8,5,1,0,0,1,6,166,101,1,,,,,,,,
,,,,,,,,,,,,,FF,,,,,,,,2.2185,,,,,,,,,,,,,,,,,,,,,,60fe39803b9a5a11674a9e9c,61036ded606dd7586d939d0f,2021-07-29_21h17.25.520,Simcolourproject_2stim_asymm_v5,2020.2.10,Win32,60,61025ae37ef11b136ea224fe,,,,,,,,,1769,-30,-74,1,0,0,response5disk,,3,-12,1,1,0,0,rectangle,-12,1,1,0,0,-12,1,1,0,0,1,7,167,22,1,,,,,,,,
,,,,,,,,,,,,,FF,,,,,,,,4.2859,,,,,,,,,,,,,,,,,,,,,,60fe39803b9a5a11674a9e9c,61036ded606dd7586d939d0f,2021-07-29_21h17.25.520,Simcolourproject_2stim_asymm_v5,2020.2.10,Win32,60,61025ae37ef11b136ea224fe,,,,,,,,,559,47,-77,1,0,0,response3disk,,4,-2,1,1,0,0,rectangle,-2,1,1,0,0,-2,1,1,0,0,1,8,168,62,1,,,,,,,,
,,,,,,,,,,,,,FF,,,,,,,,2.4849,,,,,,,,,,,,,,,,,,,,,,60fe39803b9a5a11674a9e9c,61036ded606dd7586d939d0f,2021-07-29_21h17.25.520,Simcolourproject_2stim_asymm_v5,2020.2.10,Win32,60,61025ae37ef11b136ea224fe,,,,,,,,,624,51,-74,1,0,0,response3disk,,4,0,-3,1,0,0,rectangle,0,-3,1,0,0,0,-3,1,0,0,1,9,169,68,1,,,,,,,,
,,,,,,,,,,,,,FF,,,,,,,,1.1852,,,,,,,,,,,,,,,,,,,,,,60fe39803b9a5a11674a9e9c,61036ded606dd7586d939d0f,2021-07-29_21h17.25.520,Simcolourproject_2stim_asymm_v5,2020.2.10,Win32,60,61025ae37ef11b136ea224fe,,,,,,,,,3504,-72,-59,1,0,0,response5disk,,2,-5,-3,1,0,0,rectangle,44,97,1,0,0,0,0,1,0,0,1,10,170,135,1,,response1disk_3,TRUE,7,7,"[164,123,309,156,299,97,7,156,116,138,298,260,171,210,108,190,317,271,323,166]",2.0351,rectangle
,,,,,,,,,,,,,FF,,,,,,,,1.5011,,,,,,,,,,,,,,,,,,,,,,60fe39803b9a5a11674a9e9c,61036ded606dd7586d939d0f,2021-07-29_21h17.25.520,Simcolourproject_2stim_asymm_v5,2020.2.10,Win32,60,61025ae37ef11b136ea224fe,,,,,,,,,352,-68,-28,1,0,0,response5disk,,2,-16,7,1,0,0,rectangle,-16,7,1,0,0,-16,7,1,0,0,1,11,171,38,1,,,,,,,,
,,,,,,,,,,,,,FF,,,,,,,,2.5863,,,,,,,,,,,,,,,,,,,,,,60fe39803b9a5a11674a9e9c,61036ded606dd7586d939d0f,2021-07-29_21h17.25.520,Simcolourproject_2stim_asymm_v5,2020.2.10,Win32,60,61025ae37ef11b136ea224fe,,,,,,,,,3841,62,-36,1,0,0,response3disk,,5,-15,8,1,0,0,rectangle,-15,8,1,0,0,-15,8,1,0,0,1,12,172,27,1,,,,,,,,
,,,,,,,,,,,,,FF,,,,,,,,2.2024,,,,,,,,,,,,,,,,,,,,,,60fe39803b9a5a11674a9e9c,61036ded606dd7586d939d0f,2021-07-29_21h17.25.520,Simcolourproject_2stim_asymm_v5,2020.2.10,Win32,60,61025ae37ef11b136ea224fe,,,,,,,,,4043,73,-43,1,0,0,response3disk,,5,9,2,1,0,0,rectangle,9,2,1,0,0,9,2,1,0,0,1,13,173,143,1,,,,,,,,
,,,,,,,,,,,,,FF,,,,,,,,2.4016,,,,,,,,,,,,,,,,,,,,,,60fe39803b9a5a11674a9e9c,61036ded606dd7586d939d0f,2021-07-29_21h17.25.520,Simcolourproject_2stim_asymm_v5,2020.2.10,Win32,60,61025ae37ef11b136ea224fe,,,,,,,,,2975,62,29,1,0,0,response1disk,,6,-10,3,1,0,0,rectangle,-10,3,1,0,0,-10,3,1,0,0,1,14,174,15,1,,,,,,,,
,,,,,,,,,,,,,FF,,,,,,,,2.1516,,,,,,,,,,,,,,,,,,,,,,60fe39803b9a5a11674a9e9c,61036ded606dd7586d939d0f,2021-07-29_21h17.25.520,Simcolourproject_2stim_asymm_v5,2020.2.10,Win32,60,61025ae37ef11b136ea224fe,,,,,,,,,1908,-39,-57,1,0,0,response5disk,,3,-19,-6,1,0,0,rectangle,-19,-6,1,0,0,-19,-6,1,0,0,1,15,175,152,1,,,,,,,,
,,,,,,,,,,,,,FF,,,,,,,,2.2874,,,,,,,,,,,,,,,,,,,,,,60fe39803b9a5a11674a9e9c,61036ded606dd7586d939d0f,2021-07-29_21h17.25.520,Simcolourproject_2stim_asymm_v5,2020.2.10,Win32,60,61025ae37ef11b136ea224fe,,,,,,,,,2270,26,-65,1,0,0,response3disk,,4,-2,0,1,0,0,rectangle,-2,0,1,0,0,-2,0,1,0,0,1,16,176,125,1,,,,,,,,
,,,,,,,,,,,,,FF,,,,,,,,1.4351,,,,,,,,,,,,,,,,,,,,,,60fe39803b9a5a11674a9e9c,61036ded606dd7586d939d0f,2021-07-29_21h17.25.520,Simcolourproject_2stim_asymm_v5,2020.2.10,Win32,60,61025ae37ef11b136ea224fe,,,,,,,,,2986,-93,37,1,0,0,response7disk,,1,-18,2,1,0,0,rectangle,-18,2,1,0,0,-18,2,1,0,0,1,17,177,131,1,,,,,,,,
,,,,,,,,,,,,,FF,,,,,,,,1.8858,,,,,,,,,,,,,,,,,,,,,,60fe39803b9a5a11674a9e9c,61036ded606dd7586d939d0f,2021-07-29_21h17.25.520,Simcolourproject_2stim_asymm_v5,2020.2.10,Win32,60,61025ae37ef11b136ea224fe,,,,,,,,,3184,82,40,1,0,0,response1disk,,6,-3,2,1,0,0,rectangle,-3,2,1,0,0,-3,2,1,0,0,1,18,178,26,1,,,,,,,,
,,,,,,,,,,,,,FF,,,,,,,,1.0344,,,,,,,,,,,,,,,,,,,,,,60fe39803b9a5a11674a9e9c,61036ded606dd7586d939d0f,2021-07-29_21h17.25.520,Simcolourproject_2stim_asymm_v5,2020.2.10,Win32,60,61025ae37ef11b136ea224fe,,,,,,,,,3781,-69,96,1,0,0,response7disk,,0,-14,-1,1,0,0,rectangle,-14,-1,1,0,0,-14,-1,1,0,0,1,19,179,31,1,,,,,,,,
,,,,,,,,,,,,,FF,,,,,,,,1.8847,,,,,,,,,,,,,,,,,,,,,,60fe39803b9a5a11674a9e9c,61036ded606dd7586d939d0f,2021-07-29_21h17.25.520,Simcolourproject_2stim_asymm_v5,2020.2.10,Win32,60,61025ae37ef11b136ea224fe,,,,,,,,,3663,-80,29,1,0,0,response7disk,,1,-5,-9,1,0,0,rectangle,-5,-9,1,0,0,-5,-9,1,0,0,1,20,180,102,1,,,,,,,,
,,,,,,,,,,,,,FF,,,,,,,,1.3171,,,,,,,,,,,,,,,,,,,,,,60fe39803b9a5a11674a9e9c,61036ded606dd7586d939d0f,2021-07-29_21h17.25.520,Simcolourproject_2stim_asymm_v5,2020.2.10,Win32,60,61025ae37ef11b136ea224fe,,,,,,,,,193,42,-46,1,0,0,response3disk,,4,7,3,1,0,0,rectangle,7,3,1,0,0,7,3,1,0,0,1,21,181,28,1,,,,,,,,
,,,,,,,,,,,,,FF,,,,,,,,5.0539,,,,,,,,,,,,,,,,,,,,,,60fe39803b9a5a11674a9e9c,61036ded606dd7586d939d0f,2021-07-29_21h17.25.520,Simcolourproject_2stim_asymm_v5,2020.2.10,Win32,60,61025ae37ef11b136ea224fe,,,,,,,,,2525,59,-87,1,0,0,response3disk,,4,-5,-3,1,0,0,rectangle,-5,-3,1,0,0,-5,-3,1,0,0,1,22,182,74,1,,,,,,,,
,,,,,,,,,,,,,FF,,,,,,,,1.0338,,,,,,,,,,,,,,,,,,,,,,60fe39803b9a5a11674a9e9c,61036ded606dd7586d939d0f,2021-07-29_21h17.25.520,Simcolourproject_2stim_asymm_v5,2020.2.10,Win32,60,61025ae37ef11b136ea224fe,,,,,,,,,3939,-69,28,1,0,0,response7disk,,1,10,0,1,0,0,rectangle,10,0,1,0,0,10,0,1,0,0,1,23,183,158,1,,,,,,,,
,,,,,,,,,,,,,FF,,,,,,,,3.4697,,,,,,,,,,,,,,,,,,,,,,60fe39803b9a5a11674a9e9c,61036ded606dd7586d939d0f,2021-07-29_21h17.25.520,Simcolourproject_2stim_asymm_v5,2020.2.10,Win32,60,61025ae37ef11b136ea224fe,,,,,,,,,3604,40,-82,1,0,0,response3disk,,4,7,0,1,0,0,rectangle,7,0,1,0,0,7,0,1,0,0,1,24,184,47,1,,,,,,,,
,,,,,,,,,,,,,FF,,,,,,,,2.9692,,,,,,,,,,,,,,,,,,,,,,60fe39803b9a5a11674a9e9c,61036ded606dd7586d939d0f,2021-07-29_21h17.25.520,Simcolourproject_2stim_asymm_v5,2020.2.10,Win32,60,61025ae37ef11b136ea224fe,,,,,,,,,2739,89,32,1,0,0,response1disk,,6,3,1,1,0,0,rectangle,3,1,1,0,0,3,1,1,0,0,1,25,185,66,1,,,,,,,,
,,,,,,,,,,,,,FF,,,,,,,,2.301,,,,,,,,,,,,,,,,,,,,,,60fe39803b9a5a11674a9e9c,61036ded606dd7586d939d0f,2021-07-29_21h17.25.520,Simcolourproject_2stim_asymm_v5,2020.2.10,Win32,60,61025ae37ef11b136ea224fe,,,,,,,,,676,100,49,1,0,0,response1disk,,6,-13,3,1,0,0,rectangle,-13,3,1,0,0,-13,3,1,0,0,1,26,186,150,1,,,,,,,,
,,,,,,,,,,,,,FF,,,,,,,,3.4013,,,,,,,,,,,,,,,,,,,,,,60fe39803b9a5a11674a9e9c,61036ded606dd7586d939d0f,2021-07-29_21h17.25.520,Simcolourproject_2stim_asymm_v5,2020.2.10,Win32,60,61025ae37ef11b136ea224fe,,,,,,,,,2135,74,34,1,0,0,response1disk,,6,7,0,1,0,0,rectangle,7,0,1,0,0,7,0,1,0,0,1,27,187,139,1,,,,,,,,
,,,,,,,,,,,,,FF,,,,,,,,1.2175,,,,,,,,,,,,,,,,,,,,,,60fe39803b9a5a11674a9e9c,61036ded606dd7586d939d0f,2021-07-29_21h17.25.520,Simcolourproject_2stim_asymm_v5,2020.2.10,Win32,60,61025ae37ef11b136ea224fe,,,,,,,,,4144,-93,26,1,0,0,response7disk,,1,-6,-8,1,0,0,rectangle,-6,-8,1,0,0,-6,-8,1,0,0,1,28,188,34,1,,,,,,,,
,,,,,,,,,,,,,FF,,,,,,,,1.6517,,,,,,,,,,,,,,,,,,,,,,60fe39803b9a5a11674a9e9c,61036ded606dd7586d939d0f,2021-07-29_21h17.25.520,Simcolourproject_2stim_asymm_v5,2020.2.10,Win32,60,61025ae37ef11b136ea224fe,,,,,,,,,1426,88,32,1,0,0,response1disk,,6,1,-4,1,0,0,rectangle,72,-29,1,0,0,10,4,1,0,0,1,29,189,94,1,,response3disk_3,TRUE,5,5,"[164,123,309,156,299,97,7,156,116,138,298,260,171,210,108,190,317,271,323,166]",1.6527,rectangle
,,,,,,,,,,,,,FF,,,,,,,,1.218,,,,,,,,,,,,,,,,,,,,,,60fe39803b9a5a11674a9e9c,61036ded606dd7586d939d0f,2021-07-29_21h17.25.520,Simcolourproject_2stim_asymm_v5,2020.2.10,Win32,60,61025ae37ef11b136ea224fe,,,,,,,,,2396,54,45,1,0,0,response1disk,,6,-5,-2,1,0,0,rectangle,-5,-2,1,0,0,-5,-2,1,0,0,1,30,190,49,1,,,,,,,,
,,,,,,,,,,,,,FF,,,,,,,,2.9522,,,,,,,,,,,,,,,,,,,,,,60fe39803b9a5a11674a9e9c,61036ded606dd7586d939d0f,2021-07-29_21h17.25.520,Simcolourproject_2stim_asymm_v5,2020.2.10,Win32,60,61025ae37ef11b136ea224fe,,,,,,,,,3632,49,82,1,0,0,response1disk,,7,4,-2,1,0,0,rectangle,4,-2,1,0,0,4,-2,1,0,0,1,31,191,6,1,,,,,,,,
,,,,,,,,,,,,,FF,,,,,,,,1.4333,,,,,,,,,,,,,,,,,,,,,,60fe39803b9a5a11674a9e9c,61036ded606dd7586d939d0f,2021-07-29_21h17.25.520,Simcolourproject_2stim_asymm_v5,2020.2.10,Win32,60,61025ae37ef11b136ea224fe,,,,,,,,,967,-72,-36,1,0,0,response5disk,,2,-14,4,1,0,0,rectangle,-14,4,1,0,0,-14,4,1,0,0,1,32,192,90,1,,,,,,,,
,,,,,,,,,,,,,FF,,,,,,,,1.6408,,,,,,,,,,,,,,,,,,,,,,60fe39803b9a5a11674a9e9c,61036ded606dd7586d939d0f,2021-07-29_21h17.25.520,Simcolourproject_2stim_asymm_v5,2020.2.10,Win32,60,61025ae37ef11b136ea224fe,,,,,,,,,1193,-33,-86,1,0,0,response5disk,,3,-5,7,1,0,0,rectangle,-5,7,1,0,0,-5,7,1,0,0,1,33,193,71,1,,,,,,,,
,,,,,,,,,,,,,FF,,,,,,,,2.3849,,,,,,,,,,,,,,,,,,,,,,60fe39803b9a5a11674a9e9c,61036ded606dd7586d939d0f,2021-07-29_21h17.25.520,Simcolourproject_2stim_asymm_v5,2020.2.10,Win32,60,61025ae37ef11b136ea224fe,,,,,,,,,3056,28,-60,1,0,0,response3disk,,4,1,-6,1,0,0,rectangle,1,-6,1,0,0,1,-6,1,0,0,1,34,194,141,1,,,,,,,,
,,,,,,,,,,,,,FF,,,,,,,,1.9173,,,,,,,,,,,,,,,,,,,,,,60fe39803b9a5a11674a9e9c,61036ded606dd7586d939d0f,2021-07-29_21h17.25.520,Simcolourproject_2stim_asymm_v5,2020.2.10,Win32,60,61025ae37ef11b136ea224fe,,,,,,,,,643,-100,41,1,0,0,response7disk,,1,-9,4,1,0,0,rectangle,-9,4,1,0,0,-9,4,1,0,0,1,35,195,7,1,,,,,,,,
,,,,,,,,,,,,,FF,,,,,,,,3.4701,,,,,,,,,,,,,,,,,,,,,,60fe39803b9a5a11674a9e9c,61036ded606dd7586d939d0f,2021-07-29_21h17.25.520,Simcolourproject_2stim_asymm_v5,2020.2.10,Win32,60,61025ae37ef11b136ea224fe,,,,,,,,,4309,54,32,1,0,0,response1disk,,6,5,5,1,0,0,rectangle,5,5,1,0,0,5,5,1,0,0,1,36,196,70,1,,,,,,,,
,,,,,,,,,,,,,FF,,,,,,,,2.0211,,,,,,,,,,,,,,,,,,,,,,60fe39803b9a5a11674a9e9c,61036ded606dd7586d939d0f,2021-07-29_21h17.25.520,Simcolourproject_2stim_asymm_v5,2020.2.10,Win32,60,61025ae37ef11b136ea224fe,,,,,,,,,2863,69,-43,1,0,0,response3disk,,5,4,1,1,0,0,rectangle,4,1,1,0,0,4,1,1,0,0,1,37,197,14,1,,,,,,,,
,,,,,,,,,,,,,FF,,,,,,,,1.5193,,,,,,,,,,,,,,,,,,,,,,60fe39803b9a5a11674a9e9c,61036ded606dd7586d939d0f,2021-07-29_21h17.25.520,Simcolourproject_2stim_asymm_v5,2020.2.10,Win32,60,61025ae37ef11b136ea224fe,,,,,,,,,627,-82,-35,1,0,0,response5disk,,2,-10,4,1,0,0,rectangle,-10,4,1,0,0,-10,4,1,0,0,1,38,198,145,1,,,,,,,,
,,,,,,,,,,,,,FF,,,,,,,,1.3664,,,,,,,,,,,,,,,,,,,,,,60fe39803b9a5a11674a9e9c,61036ded606dd7586d939d0f,2021-07-29_21h17.25.520,Simcolourproject_2stim_asymm_v5,2020.2.10,Win32,60,61025ae37ef11b136ea224fe,,,,,,,,,20,39,-74,1,0,0,response3disk,,4,-4,11,1,0,0,rectangle,-4,11,1,0,0,-4,11,1,0,0,1,39,199,67,1,,,,,,,,
,,,,,,,,,,,,,FF,,,,,,,,1.3013,,,,,,,,,,,,,,,,,,,,,,60fe39803b9a5a11674a9e9c,61036ded606dd7586d939d0f,2021-07-29_21h17.25.520,Simcolourproject_2stim_asymm_v5,2020.2.10,Win32,60,61025ae37ef11b136ea224fe,,,,,,,,,3840,65,35,1,0,0,response1disk,,6,3,0,1,0,0,rectangle,3,0,1,0,0,3,0,1,0,0,1,40,200,96,1,,,,,,,,
,,,,,,,,,,,,,FF,,,,,,,,2.3177,,,,,,,,,,,,,,,,,,,,,,60fe39803b9a5a11674a9e9c,61036ded606dd7586d939d0f,2021-07-29_21h17.25.520,Simcolourproject_2stim_asymm_v5,2020.2.10,Win32,60,61025ae37ef11b136ea224fe,,,,,,,,,2051,70,-93,1,0,0,response3disk,,4,5,-1,1,0,0,rectangle,5,-1,1,0,0,5,-1,1,0,0,1,41,201,146,1,,,,,,,,
,,,,,,,,,,,,,FF,,,,,,,,1.8393,,,,,,,,,,,,,,,,,,,,,,60fe39803b9a5a11674a9e9c,61036ded606dd7586d939d0f,2021-07-29_21h17.25.520,Simcolourproject_2stim_asymm_v5,2020.2.10,Win32,60,61025ae37ef11b136ea224fe,,,,,,,,,592,71,47,1,0,0,response1disk,,6,-15,7,1,0,0,rectangle,-15,7,1,0,0,-15,7,1,0,0,1,42,202,46,1,,,,,,,,
,,,,,,,,,,,,,FF,,,,,,,,1.1344,,,,,,,,,,,,,,,,,,,,,,60fe39803b9a5a11674a9e9c,61036ded606dd7586d939d0f,2021-07-29_21h17.25.520,Simcolourproject_2stim_asymm_v5,2020.2.10,Win32,60,61025ae37ef11b136ea224fe,,,,,,,,,2369,-74,-36,1,0,0,response5disk,,2,-9,5,1,0,0,rectangle,-9,5,1,0,0,-9,5,1,0,0,1,43,203,144,1,,,,,,,,
,,,,,,,,,,,,,FF,,,,,,,,2.2344,,,,,,,,,,,,,,,,,,,,,,60fe39803b9a5a11674a9e9c,61036ded606dd7586d939d0f,2021-07-29_21h17.25.520,Simcolourproject_2stim_asymm_v5,2020.2.10,Win32,60,61025ae37ef11b136ea224fe,,,,,,,,,2033,-83,50,1,0,0,response7disk,,1,4,7,1,0,0,rectangle,4,7,1,0,0,4,7,1,0,0,1,44,204,72,1,,,,,,,,
,,,,,,,,,,,,,FF,,,,,,,,1.7352,,,,,,,,,,,,,,,,,,,,,,60fe39803b9a5a11674a9e9c,61036ded606dd7586d939d0f,2021-07-29_21h17.25.520,Simcolourproject_2stim_asymm_v5,2020.2.10,Win32,60,61025ae37ef11b136ea224fe,,,,,,,,,1046,-40,-61,1,0,0,response5disk,,3,-6,1,1,0,0,rectangle,-6,1,1,0,0,-6,1,1,0,0,1,45,205,54,1,,,,,,,,
,,,,,,,,,,,,,FF,,,,,,,,1.8021,,,,,,,,,,,,,,,,,,,,,,60fe39803b9a5a11674a9e9c,61036ded606dd7586d939d0f,2021-07-29_21h17.25.520,Simcolourproject_2stim_asymm_v5,2020.2.10,Win32,60,61025ae37ef11b136ea224fe,,,,,,,,,3430,-68,-43,1,0,0,response5disk,,2,3,-6,1,0,0,rectangle,3,-6,1,0,0,3,-6,1,0,0,1,46,206,17,1,,,,,,,,
,,,,,,,,,,,,,FF,,,,,,,,0.9184,,,,,,,,,,,,,,,,,,,,,,60fe39803b9a5a11674a9e9c,61036ded606dd7586d939d0f,2021-07-29_21h17.25.520,Simcolourproject_2stim_asymm_v5,2020.2.10,Win32,60,61025ae37ef11b136ea224fe,,,,,,,,,3243,-91,54,1,0,0,response7disk,,1,6,0,1,0,0,rectangle,6,0,1,0,0,6,0,1,0,0,1,47,207,137,1,,,,,,,,
,,,,,,,,,,,,,FF,,,,,,,,1.3851,,,,,,,,,,,,,,,,,,,,,,60fe39803b9a5a11674a9e9c,61036ded606dd7586d939d0f,2021-07-29_21h17.25.520,Simcolourproject_2stim_asymm_v5,2020.2.10,Win32,60,61025ae37ef11b136ea224fe,,,,,,,,,1374,-69,-44,1,0,0,response5disk,,2,-10,3,1,0,0,rectangle,-10,3,1,0,0,-10,3,1,0,0,1,48,208,149,1,,,,,,,,
,,,,,,,,,,,,,FF,,,,,,,,1.1178,,,,,,,,,,,,,,,,,,,,,,60fe39803b9a5a11674a9e9c,61036ded606dd7586d939d0f,2021-07-29_21h17.25.520,Simcolourproject_2stim_asymm_v5,2020.2.10,Win32,60,61025ae37ef11b136ea224fe,,,,,,,,,3827,69,37,1,0,0,response1disk,,6,15,6,1,0,0,rectangle,38,90,1,0,0,4,2,1,0,0,1,49,209,48,1,,response1disk_3,TRUE,7,7,"[164,123,309,156,299,97,7,156,116,138,298,260,171,210,108,190,317,271,323,166]",2.1824,rectangle
,,,,,,,,,,,,,FF,,,,,,,,1.0174,,,,,,,,,,,,,,,,,,,,,,60fe39803b9a5a11674a9e9c,61036ded606dd7586d939d0f,2021-07-29_21h17.25.520,Simcolourproject_2stim_asymm_v5,2020.2.10,Win32,60,61025ae37ef11b136ea224fe,,,,,,,,,4048,-76,-33,1,0,0,response5disk,,2,3,5,1,0,0,rectangle,3,5,1,0,0,3,5,1,0,0,1,50,210,29,1,,,,,,,,
,,,,,,,,,,,,,FF,,,,,,,,1.2855,,,,,,,,,,,,,,,,,,,,,,60fe39803b9a5a11674a9e9c,61036ded606dd7586d939d0f,2021-07-29_21h17.25.520,Simcolourproject_2stim_asymm_v5,2020.2.10,Win32,60,61025ae37ef11b136ea224fe,,,,,,,,,3708,-82,-38,1,0,0,response5disk,,2,14,5,1,0,0,rectangle,14,5,1,0,0,14,5,1,0,0,1,51,211,117,1,,,,,,,,
,,,,,,,,,,,,,FF,,,,,,,,1.9845,,,,,,,,,,,,,,,,,,,,,,60fe39803b9a5a11674a9e9c,61036ded606dd7586d939d0f,2021-07-29_21h17.25.520,Simcolourproject_2stim_asymm_v5,2020.2.10,Win32,60,61025ae37ef11b136ea224fe,,,,,,,,,3821,85,-39,1,0,0,response3disk,,5,-5,4,1,0,0,rectangle,-5,4,1,0,0,-5,4,1,0,0,1,52,212,153,1,,,,,,,,
,,,,,,,,,,,,,FF,,,,,,,,1.4368,,,,,,,,,,,,,,,,,,,,,,60fe39803b9a5a11674a9e9c,61036ded606dd7586d939d0f,2021-07-29_21h17.25.520,Simcolourproject_2stim_asymm_v5,2020.2.10,Win32,60,61025ae37ef11b136ea224fe,,,,,,,,,2679,53,-72,1,0,0,response3disk,,4,1,-7,1,0,0,rectangle,1,-7,1,0,0,1,-7,1,0,0,1,53,213,16,1,,,,,,,,
,,,,,,,,,,,,,FF,,,,,,,,2.0189,,,,,,,,,,,,,,,,,,,,,,60fe39803b9a5a11674a9e9c,61036ded606dd7586d939d0f,2021-07-29_21h17.25.520,Simcolourproject_2stim_asymm_v5,2020.2.10,Win32,60,61025ae37ef11b136ea224fe,,,,,,,,,4088,75,-45,1,0,0,response3disk,,5,-6,-4,1,0,0,rectangle,-6,-4,1,0,0,-6,-4,1,0,0,1,54,214,4,1,,,,,,,,
,,,,,,,,,,,,,FF,,,,,,,,0.983,,,,,,,,,,,,,,,,,,,,,,60fe39803b9a5a11674a9e9c,61036ded606dd7586d939d0f,2021-07-29_21h17.25.520,Simcolourproject_2stim_asymm_v5,2020.2.10,Win32,60,61025ae37ef11b136ea224fe,,,,,,,,,3298,-104,30,1,0,0,response7disk,,1,-16,-3,1,0,0,rectangle,-16,-3,1,0,0,-16,-3,1,0,0,1,55,215,8,1,,,,,,,,
,,,,,,,,,,,,,FF,,,,,,,,1.2348,,,,,,,,,,,,,,,,,,,,,,60fe39803b9a5a11674a9e9c,61036ded606dd7586d939d0f,2021-07-29_21h17.25.520,Simcolourproject_2stim_asymm_v5,2020.2.10,Win32,60,61025ae37ef11b136ea224fe,,,,,,,,,3006,-79,-40,1,0,0,response5disk,,2,-14,-9,1,0,0,rectangle,-14,-9,1,0,0,-14,-9,1,0,0,1,56,216,63,1,,,,,,,,
,,,,,,,,,,,,,FF,,,,,,,,1.1587,,,,,,,,,,,,,,,,,,,,,,60fe39803b9a5a11674a9e9c,61036ded606dd7586d939d0f,2021-07-29_21h17.25.520,Simcolourproject_2stim_asymm_v5,2020.2.10,Win32,60,61025ae37ef11b136ea224fe,,,,,,,,,2704,64,-47,1,0,0,response3disk,,5,-12,-5,1,0,0,rectangle,-12,-5,1,0,0,-12,-5,1,0,0,1,57,217,136,1,,,,,,,,
,,,,,,,,,,,,,FF,,,,,,,,2.2488,,,,,,,,,,,,,,,,,,,,,,60fe39803b9a5a11674a9e9c,61036ded606dd7586d939d0f,2021-07-29_21h17.25.520,Simcolourproject_2stim_asymm_v5,2020.2.10,Win32,60,61025ae37ef11b136ea224fe,,,,,,,,,4275,83,-22,1,0,0,response3disk,,5,5,9,1,0,0,rectangle,5,9,1,0,0,5,9,1,0,0,1,58,218,57,1,,,,,,,,
,,,,,,,,,,,,,FF,,,,,,,,1.9184,,,,,,,,,,,,,,,,,,,,,,60fe39803b9a5a11674a9e9c,61036ded606dd7586d939d0f,2021-07-29_21h17.25.520,Simcolourproject_2stim_asymm_v5,2020.2.10,Win32,60,61025ae37ef11b136ea224fe,,,,,,,,,2895,-76,-36,1,0,0,response5disk,,2,-9,-4,1,0,0,rectangle,-9,-4,1,0,0,-9,-4,1,0,0,1,59,219,35,1,,,,,,,,
,,,,,,,,,,,,,FF,,,,,,,,1.6184,,,,,,,,,,,,,,,,,,,,,,60fe39803b9a5a11674a9e9c,61036ded606dd7586d939d0f,2021-07-29_21h17.25.520,Simcolourproject_2stim_asymm_v5,2020.2.10,Win32,60,61025ae37ef11b136ea224fe,,,,,,,,,1811,-37,-49,1,0,0,response5disk,,3,2,-2,1,0,0,rectangle,2,-2,1,0,0,2,-2,1,0,0,1,60,220,51,1,,,,,,,,
,,,,,,,,,,,,,FF,,,,,,,,1.5846,,,,,,,,,,,,,,,,,,,,,,60fe39803b9a5a11674a9e9c,61036ded606dd7586d939d0f,2021-07-29_21h17.25.520,Simcolourproject_2stim_asymm_v5,2020.2.10,Win32,60,61025ae37ef11b136ea224fe,,,,,,,,,125,94,-40,1,0,0,response3disk,,5,-2,2,1,0,0,rectangle,-2,2,1,0,0,-2,2,1,0,0,1,61,221,39,1,,,,,,,,
,,,,,,,,,,,,,FF,,,,,,,,1.4407,,,,,,,,,,,,,,,,,,,,,,60fe39803b9a5a11674a9e9c,61036ded606dd7586d939d0f,2021-07-29_21h17.25.520,Simcolourproject_2stim_asymm_v5,2020.2.10,Win32,60,61025ae37ef11b136ea224fe,,,,,,,,,4073,-83,-41,1,0,0,response5disk,,2,-10,0,1,0,0,rectangle,-10,0,1,0,0,-10,0,1,0,0,1,62,222,119,1,,,,,,,,
,,,,,,,,,,,,,FF,,,,,,,,1.2179,,,,,,,,,,,,,,,,,,,,,,60fe39803b9a5a11674a9e9c,61036ded606dd7586d939d0f,2021-07-29_21h17.25.520,Simcolourproject_2stim_asymm_v5,2020.2.10,Win32,60,61025ae37ef11b136ea224fe,,,,,,,,,1170,58,42,1,0,0,response1disk,,6,2,4,1,0,0,rectangle,2,4,1,0,0,2,4,1,0,0,1,63,223,55,1,,,,,,,,
,,,,,,,,,,,,,FF,,,,,,,,1.6345,,,,,,,,,,,,,,,,,,,,,,60fe39803b9a5a11674a9e9c,61036ded606dd7586d939d0f,2021-07-29_21h17.25.520,Simcolourproject_2stim_asymm_v5,2020.2.10,Win32,60,61025ae37ef11b136ea224fe,,,,,,,,,4242,73,-50,1,0,0,response3disk,,5,11,-1,1,0,0,rectangle,11,-1,1,0,0,11,-1,1,0,0,1,64,224,23,1,,,,,,,,
,,,,,,,,,,,,,FF,,,,,,,,2.5866,,,,,,,,,,,,,,,,,,,,,,60fe39803b9a5a11674a9e9c,61036ded606dd7586d939d0f,2021-07-29_21h17.25.520,Simcolourproject_2stim_asymm_v5,2020.2.10,Win32,60,61025ae37ef11b136ea224fe,,,,,,,,,1267,31,-66,1,0,0,response3disk,,4,-2,-3,1,0,0,rectangle,-2,-3,1,0,0,-2,-3,1,0,0,1,65,225,76,1,,,,,,,,
,,,,,,,,,,,,,FF,,,,,,,,2.3768,,,,,,,,,,,,,,,,,,,,,,60fe39803b9a5a11674a9e9c,61036ded606dd7586d939d0f,2021-07-29_21h17.25.520,Simcolourproject_2stim_asymm_v5,2020.2.10,Win32,60,61025ae37ef11b136ea224fe,,,,,,,,,740,-91,27,1,0,0,response7disk,,1,-11,10,1,0,0,rectangle,-11,10,1,0,0,-11,10,1,0,0,1,66,226,121,1,,,,,,,,
,,,,,,,,,,,,,FF,,,,,,,,1.1671,,,,,,,,,,,,,,,,,,,,,,60fe39803b9a5a11674a9e9c,61036ded606dd7586d939d0f,2021-07-29_21h17.25.520,Simcolourproject_2stim_asymm_v5,2020.2.10,Win32,60,61025ae37ef11b136ea224fe,,,,,,,,,1265,74,25,1,0,0,response1disk,,6,2,10,1,0,0,rectangle,2,10,1,0,0,2,10,1,0,0,1,67,227,52,1,,,,,,,,
,,,,,,,,,,,,,FF,,,,,,,,1.351,,,,,,,,,,,,,,,,,,,,,,60fe39803b9a5a11674a9e9c,61036ded606dd7586d939d0f,2021-07-29_21h17.25.520,Simcolourproject_2stim_asymm_v5,2020.2.10,Win32,60,61025ae37ef11b136ea224fe,,,,,,,,,2379,23,-63,1,0,0,response3disk,,4,-8,-5,1,0,0,rectangle,-8,-5,1,0,0,-8,-5,1,0,0,1,68,228,107,1,,,,,,,,
,,,,,,,,,,,,,FF,,,,,,,,1.45,,,,,,,,,,,,,,,,,,,,,,60fe39803b9a5a11674a9e9c,61036ded606dd7586d939d0f,2021-07-29_21h17.25.520,Simcolourproject_2stim_asymm_v5,2020.2.10,Win32,60,61025ae37ef11b136ea224fe,,,,,,,,,337,92,-30,1,0,0,response3disk,,5,5,3,1,0,0,rectangle,5,3,1,0,0,5,3,1,0,0,1,69,229,85,1,,,,,,,,
,,,,,,,,,,,,,FF,,,,,,,,1.9344,,,,,,,,,,,,,,,,,,,,,,60fe39803b9a5a11674a9e9c,61036ded606dd7586d939d0f,2021-07-29_21h17.25.520,Simcolourproject_2stim_asymm_v5,2020.2.10,Win32,60,61025ae37ef11b136ea224fe,,,,,,,,,1871,82,26,1,0,0,response1disk,,6,-13,7,1,0,0,rectangle,-13,7,1,0,0,-13,7,1,0,0,1,70,230,73,1,,,,,,,,
,,,,,,,,,,,,,FF,,,,,,,,2.8851,,,,,,,,,,,,,,,,,,,,,,60fe39803b9a5a11674a9e9c,61036ded606dd7586d939d0f,2021-07-29_21h17.25.520,Simcolourproject_2stim_asymm_v5,2020.2.10,Win32,60,61025ae37ef11b136ea224fe,,,,,,,,,1349,80,30,1,0,0,response1disk,,6,-14,11,1,0,0,rectangle,-14,11,1,0,0,-14,11,1,0,0,1,71,231,124,1,,,,,,,,
,,,,,,,,,,,,,FF,,,,,,,,1.5681,,,,,,,,,,,,,,,,,,,,,,60fe39803b9a5a11674a9e9c,61036ded606dd7586d939d0f,2021-07-29_21h17.25.520,Simcolourproject_2stim_asymm_v5,2020.2.10,Win32,60,61025ae37ef11b136ea224fe,,,,,,,,,3060,45,-60,1,0,0,response3disk,,4,3,12,1,0,0,rectangle,3,12,1,0,0,3,12,1,0,0,1,72,232,87,1,,,,,,,,
,,,,,,,,,,,,,FF,,,,,,,,2.0183,,,,,,,,,,,,,,,,,,,,,,60fe39803b9a5a11674a9e9c,61036ded606dd7586d939d0f,2021-07-29_21h17.25.520,Simcolourproject_2stim_asymm_v5,2020.2.10,Win32,60,61025ae37ef11b136ea224fe,,,,,,,,,3642,-49,-64,1,0,0,response5disk,,3,-18,4,1,0,0,rectangle,-18,4,1,0,0,-18,4,1,0,0,1,73,233,0,1,,,,,,,,
,,,,,,,,,,,,,FF,,,,,,,,1.4842,,,,,,,,,,,,,,,,,,,,,,60fe39803b9a5a11674a9e9c,61036ded606dd7586d939d0f,2021-07-29_21h17.25.520,Simcolourproject_2stim_asymm_v5,2020.2.10,Win32,60,61025ae37ef11b136ea224fe,,,,,,,,,1693,25,-67,1,0,0,response3disk,,4,0,-2,1,0,0,rectangle,0,-2,1,0,0,0,-2,1,0,0,1,74,234,33,1,,,,,,,,
,,,,,,,,,,,,,FF,,,,,,,,1.2311,,,,,,,,,,,,,,,,,,,,,,60fe39803b9a5a11674a9e9c,61036ded606dd7586d939d0f,2021-07-29_21h17.25.520,Simcolourproject_2stim_asymm_v5,2020.2.10,Win32,60,61025ae37ef11b136ea224fe,,,,,,,,,533,-79,56,1,0,0,response7disk,,1,-11,15,1,0,0,rectangle,-11,15,1,0,0,-11,15,1,0,0,1,75,235,99,1,,,,,,,,
,,,,,,,,,,,,,FF,,,,,,,,2.3348,,,,,,,,,,,,,,,,,,,,,,60fe39803b9a5a11674a9e9c,61036ded606dd7586d939d0f,2021-07-29_21h17.25.520,Simcolourproject_2stim_asymm_v5,2020.2.10,Win32,60,61025ae37ef11b136ea224fe,,,,,,,,,2798,52,-61,1,0,0,response3disk,,4,2,10,1,0,0,rectangle,2,10,1,0,0,2,10,1,0,0,1,76,236,116,1,,,,,,,,
,,,,,,,,,,,,,FF,,,,,,,,1.285,,,,,,,,,,,,,,,,,,,,,,60fe39803b9a5a11674a9e9c,61036ded606dd7586d939d0f,2021-07-29_21h17.25.520,Simcolourproject_2stim_asymm_v5,2020.2.10,Win32,60,61025ae37ef11b136ea224fe,,,,,,,,,517,-87,-30,1,0,0,response5disk,,2,-5,12,1,0,0,rectangle,-5,12,1,0,0,-5,12,1,0,0,1,77,237,83,1,,,,,,,,
,,,,,,,,,,,,,FF,,,,,,,,1.0349,,,,,,,,,,,,,,,,,,,,,,60fe39803b9a5a11674a9e9c,61036ded606dd7586d939d0f,2021-07-29_21h17.25.520,Simcolourproject_2stim_asymm_v5,2020.2.10,Win32,60,61025ae37ef11b136ea224fe,,,,,,,,,4167,-90,-28,1,0,0,response5disk,,2,-5,9,1,0,0,rectangle,-5,9,1,0,0,-5,9,1,0,0,1,78,238,89,1,,,,,,,,
,,,,,,,,,,,,,FF,,,,,,,,1.4914,,,,,,,,,,,,,,,,,,,,,,60fe39803b9a5a11674a9e9c,61036ded606dd7586d939d0f,2021-07-29_21h17.25.520,Simcolourproject_2stim_asymm_v5,2020.2.10,Win32,60,61025ae37ef11b136ea224fe,,,,,,,,,1460,-38,85,1,0,0,response7disk,,0,7,-1,1,0,0,rectangle,7,-1,1,0,0,7,-1,1,0,0,1,79,239,104,1,,,,,,,,
,,,,,,,,,,,,,FF,,,,,,,,2.3517,,,,,,,,,,,,,,,,,,,,,,60fe39803b9a5a11674a9e9c,61036ded606dd7586d939d0f,2021-07-29_21h17.25.520,Simcolourproject_2stim_asymm_v5,2020.2.10,Win32,60,61025ae37ef11b136ea224fe,,,,,,,,,2760,89,-36,1,0,0,response3disk,,5,11,-3,1,0,0,rectangle,11,-3,1,0,0,11,-3,1,0,0,1,80,240,129,1,,,,,,,,
,,,,,,,,,,,,,FF,,,,,,,,2.6495,,,,,,,,,,,,,,,,,,,,,,60fe39803b9a5a11674a9e9c,61036ded606dd7586d939d0f,2021-07-29_21h17.25.520,Simcolourproject_2stim_asymm_v5,2020.2.10,Win32,60,61025ae37ef11b136ea224fe,,,,,,,,,1031,35,-62,1,0,0,response3disk,,4,14,0,1,0,0,rectangle,14,0,1,0,0,14,0,1,0,0,1,81,241,50,1,,,,,,,,
,,,,,,,,,,,,,FF,,,,,,,,1.7888,,,,,,,,,,,,,,,,,,,,,,60fe39803b9a5a11674a9e9c,61036ded606dd7586d939d0f,2021-07-29_21h17.25.520,Simcolourproject_2stim_asymm_v5,2020.2.10,Win32,60,61025ae37ef11b136ea224fe,,,,,,,,,2596,59,-30,1,0,0,response3disk,,5,10,4,1,0,0,rectangle,10,4,1,0,0,10,4,1,0,0,1,82,242,105,1,,,,,,,,
,,,,,,,,,,,,,FF,,,,,,,,2.033,,,,,,,,,,,,,,,,,,,,,,60fe39803b9a5a11674a9e9c,61036ded606dd7586d939d0f,2021-07-29_21h17.25.520,Simcolourproject_2stim_asymm_v5,2020.2.10,Win32,60,61025ae37ef11b136ea224fe,,,,,,,,,206,53,-72,1,0,0,response3disk,,4,-3,10,1,0,0,rectangle,-3,10,1,0,0,-3,10,1,0,0,1,83,243,111,1,,,,,,,,
,,,,,,,,,,,,,FF,,,,,,,,4.205,,,,,,,,,,,,,,,,,,,,,,60fe39803b9a5a11674a9e9c,61036ded606dd7586d939d0f,2021-07-29_21h17.25.520,Simcolourproject_2stim_asymm_v5,2020.2.10,Win32,60,61025ae37ef11b136ea224fe,,,,,,,,,3031,83,35,1,0,0,response1disk,,6,-2,-2,1,0,0,rectangle,-2,-2,1,0,0,-2,-2,1,0,0,1,84,244,112,1,,,,,,,,
,,,,,,,,,,,,,FF,,,,,,,,3.1527,,,,,,,,,,,,,,,,,,,,,,60fe39803b9a5a11674a9e9c,61036ded606dd7586d939d0f,2021-07-29_21h17.25.520,Simcolourproject_2stim_asymm_v5,2020.2.10,Win32,60,61025ae37ef11b136ea224fe,,,,,,,,,3447,79,35,1,0,0,response1disk,,6,5,5,1,0,0,rectangle,5,5,1,0,0,5,5,1,0,0,1,85,245,32,1,,,,,,,,
,,,,,,,,,,,,,FF,,,,,,,,3.6885,,,,,,,,,,,,,,,,,,,,,,60fe39803b9a5a11674a9e9c,61036ded606dd7586d939d0f,2021-07-29_21h17.25.520,Simcolourproject_2stim_asymm_v5,2020.2.10,Win32,60,61025ae37ef11b136ea224fe,,,,,,,,,3883,88,41,1,0,0,response1disk,,6,7,4,1,0,0,rectangle,7,4,1,0,0,7,4,1,0,0,1,86,246,123,1,,,,,,,,
,,,,,,,,,,,,,FF,,,,,,,,0.8014,,,,,,,,,,,,,,,,,,,,,,60fe39803b9a5a11674a9e9c,61036ded606dd7586d939d0f,2021-07-29_21h17.25.520,Simcolourproject_2stim_asymm_v5,2020.2.10,Win32,60,61025ae37ef11b136ea224fe,,,,,,,,,1138,-51,67,1,0,0,response7disk,,0,-2,-2,1,0,0,rectangle,-2,-2,1,0,0,-2,-2,1,0,0,1,87,247,79,1,,,,,,,,
,,,,,,,,,,,,,FF,,,,,,,,2.1519,,,,,,,,,,,,,,,,,,,,,,60fe39803b9a5a11674a9e9c,61036ded606dd7586d939d0f,2021-07-29_21h17.25.520,Simcolourproject_2stim_asymm_v5,2020.2.10,Win32,60,61025ae37ef11b136ea224fe,,,,,,,,,487,-43,-57,1,0,0,response5disk,,3,-10,-4,1,0,0,rectangle,-10,-4,1,0,0,-10,-4,1,0,0,1,88,248,120,1,,,,,,,,
,,,,,,,,,,,,,FF,,,,,,,,1.8509,,,,,,,,,,,,,,,,,,,,,,60fe39803b9a5a11674a9e9c,61036ded606dd7586d939d0f,2021-07-29_21h17.25.520,Simcolourproject_2stim_asymm_v5,2020.2.10,Win32,60,61025ae37ef11b136ea224fe,,,,,,,,,1765,-44,-81,1,0,0,response5disk,,3,-3,7,1,0,0,rectangle,-3,7,1,0,0,-3,7,1,0,0,1,89,249,3,1,,,,,,,,
,,,,,,,,,,,,,FF,,,,,,,,0.9024,,,,,,,,,,,,,,,,,,,,,,60fe39803b9a5a11674a9e9c,61036ded606dd7586d939d0f,2021-07-29_21h17.25.520,Simcolourproject_2stim_asymm_v5,2020.2.10,Win32,60,61025ae37ef11b136ea224fe,,,,,,,,,1615,-80,48,1,0,0,response7disk,,1,-19,3,1,0,0,rectangle,-19,3,1,0,0,-19,3,1,0,0,1,90,250,20,1,,,,,,,,
,,,,,,,,,,,,,FF,,,,,,,,1.6355,,,,,,,,,,,,,,,,,,,,,,60fe39803b9a5a11674a9e9c,61036ded606dd7586d939d0f,2021-07-29_21h17.25.520,Simcolourproject_2stim_asymm_v5,2020.2.10,Win32,60,61025ae37ef11b136ea224fe,,,,,,,,,4176,71,41,1,0,0,response1disk,,6,11,4,1,0,0,rectangle,11,4,1,0,0,11,4,1,0,0,1,91,251,18,1,,,,,,,,
,,,,,,,,,,,,,FF,,,,,,,,2.1029,,,,,,,,,,,,,,,,,,,,,,60fe39803b9a5a11674a9e9c,61036ded606dd7586d939d0f,2021-07-29_21h17.25.520,Simcolourproject_2stim_asymm_v5,2020.2.10,Win32,60,61025ae37ef11b136ea224fe,,,,,,,,,1074,-71,-26,1,0,0,response5disk,,2,5,5,1,0,0,rectangle,5,5,1,0,0,5,5,1,0,0,1,92,252,114,1,,,,,,,,
,,,,,,,,,,,,,FF,,,,,,,,1.1843,,,,,,,,,,,,,,,,,,,,,,60fe39803b9a5a11674a9e9c,61036ded606dd7586d939d0f,2021-07-29_21h17.25.520,Simcolourproject_2stim_asymm_v5,2020.2.10,Win32,60,61025ae37ef11b136ea224fe,,,,,,,,,2034,-81,52,1,0,0,response7disk,,1,1,0,1,0,0,rectangle,1,0,1,0,0,1,0,1,0,0,1,93,253,127,1,,,,,,,,
,,,,,,,,,,,,,FF,,,,,,,,2.6937,,,,,,,,,,,,,,,,,,,,,,60fe39803b9a5a11674a9e9c,61036ded606dd7586d939d0f,2021-07-29_21h17.25.520,Simcolourproject_2stim_asymm_v5,2020.2.10,Win32,60,61025ae37ef11b136ea224fe,,,,,,,,,2123,82,-26,1,0,0,response3disk,,5,5,1,1,0,0,rectangle,5,1,1,0,0,5,1,1,0,0,1,94,254,53,1,,,,,,,,
,,,,,,,,,,,,,FF,,,,,,,,1.6017,,,,,,,,,,,,,,,,,,,,,,60fe39803b9a5a11674a9e9c,61036ded606dd7586d939d0f,2021-07-29_21h17.25.520,Simcolourproject_2stim_asymm_v5,2020.2.10,Win32,60,61025ae37ef11b136ea224fe,,,,,,,,,4339,-66,46,1,0,0,response7disk,,1,5,-3,1,0,0,rectangle,5,-3,1,0,0,5,-3,1,0,0,1,95,255,36,1,,,,,,,,
,,,,,,,,,,,,,FF,,,,,,,,1.8759,,,,,,,,,,,,,,,,,,,,,,60fe39803b9a5a11674a9e9c,61036ded606dd7586d939d0f,2021-07-29_21h17.25.520,Simcolourproject_2stim_asymm_v5,2020.2.10,Win32,60,61025ae37ef11b136ea224fe,,,,,,,,,1117,-79,-48,1,0,0,response5disk,,2,1,0,1,0,0,rectangle,1,0,1,0,0,1,0,1,0,0,1,96,256,132,1,,,,,,,,
,,,,,,,,,,,,,FF,,,,,,,,1.3917,,,,,,,,,,,,,,,,,,,,,,60fe39803b9a5a11674a9e9c,61036ded606dd7586d939d0f,2021-07-29_21h17.25.520,Simcolourproject_2stim_asymm_v5,2020.2.10,Win32,60,61025ae37ef11b136ea224fe,,,,,,,,,1011,61,32,1,0,0,response1disk,,6,-3,-2,1,0,0,rectangle,-3,-2,1,0,0,-3,-2,1,0,0,1,97,257,59,1,,,,,,,,
,,,,,,,,,,,,,FF,,,,,,,,1.9349,,,,,,,,,,,,,,,,,,,,,,60fe39803b9a5a11674a9e9c,61036ded606dd7586d939d0f,2021-07-29_21h17.25.520,Simcolourproject_2stim_asymm_v5,2020.2.10,Win32,60,61025ae37ef11b136ea224fe,,,,,,,,,1806,-32,-75,1,0,0,response5disk,,3,1,-1,1,0,0,rectangle,1,-1,1,0,0,1,-1,1,0,0,1,98,258,37,1,,,,,,,,
,,,,,,,,,,,,,FF,,,,,,,,1.2678,,,,,,,,,,,,,,,,,,,,,,60fe39803b9a5a11674a9e9c,61036ded606dd7586d939d0f,2021-07-29_21h17.25.520,Simcolourproject_2stim_asymm_v5,2020.2.10,Win32,60,61025ae37ef11b136ea224fe,,,,,,,,,1259,66,20,1,0,0,response1disk,,6,13,-2,1,0,0,rectangle,-78,35,1,0,0,-3,-4,1,0,0,1,99,259,151,1,,response7disk_3,TRUE,1,1,"[164,123,309,156,299,97,7,156,116,138,298,260,171,210,108,190,317,271,323,166]",1.8017,rectangle
,,,,,,,,,,,,,FF,,,,,,,,1.6508,,,,,,,,,,,,,,,,,,,,,,60fe39803b9a5a11674a9e9c,61036ded606dd7586d939d0f,2021-07-29_21h17.25.520,Simcolourproject_2stim_asymm_v5,2020.2.10,Win32,60,61025ae37ef11b136ea224fe,,,,,,,,,2611,-39,-75,1,0,0,response5disk,,3,-11,-2,1,0,0,rectangle,-11,-2,1,0,0,-11,-2,1,0,0,1,100,260,45,1,,,,,,,,
,,,,,,,,,,,,,FF,,,,,,,,1.5372,,,,,,,,,,,,,,,,,,,,,,60fe39803b9a5a11674a9e9c,61036ded606dd7586d939d0f,2021-07-29_21h17.25.520,Simcolourproject_2stim_asymm_v5,2020.2.10,Win32,60,61025ae37ef11b136ea224fe,,,,,,,,,1352,91,-28,1,0,0,response3disk,,5,-2,-1,1,0,0,rectangle,-2,-1,1,0,0,-2,-1,1,0,0,1,101,261,25,1,,,,,,,,
,,,,,,,,,,,,,FF,,,,,,,,1.614,,,,,,,,,,,,,,,,,,,,,,60fe39803b9a5a11674a9e9c,61036ded606dd7586d939d0f,2021-07-29_21h17.25.520,Simcolourproject_2stim_asymm_v5,2020.2.10,Win32,60,61025ae37ef11b136ea224fe,,,,,,,,,1708,75,38,1,0,0,response1disk,,6,-12,7,1,0,0,rectangle,-12,7,1,0,0,-12,7,1,0,0,1,102,262,24,1,,,,,,,,
,,,,,,,,,,,,,FF,,,,,,,,1.1035,,,,,,,,,,,,,,,,,,,,,,60fe39803b9a5a11674a9e9c,61036ded606dd7586d939d0f,2021-07-29_21h17.25.520,Simcolourproject_2stim_asymm_v5,2020.2.10,Win32,60,61025ae37ef11b136ea224fe,,,,,,,,,2090,-89,-43,1,0,0,response5disk,,2,-12,3,1,0,0,rectangle,-12,3,1,0,0,-12,3,1,0,0,1,103,263,2,1,,,,,,,,
,,,,,,,,,,,,,FF,,,,,,,,1.2849,,,,,,,,,,,,,,,,,,,,,,60fe39803b9a5a11674a9e9c,61036ded606dd7586d939d0f,2021-07-29_21h17.25.520,Simcolourproject_2stim_asymm_v5,2020.2.10,Win32,60,61025ae37ef11b136ea224fe,,,,,,,,,2555,-65,-38,1,0,0,response5disk,,2,7,2,1,0,0,rectangle,7,2,1,0,0,7,2,1,0,0,1,104,264,106,1,,,,,,,,
,,,,,,,,,,,,,FF,,,,,,,,1.4682,,,,,,,,,,,,,,,,,,,,,,60fe39803b9a5a11674a9e9c,61036ded606dd7586d939d0f,2021-07-29_21h17.25.520,Simcolourproject_2stim_asymm_v5,2020.2.10,Win32,60,61025ae37ef11b136ea224fe,,,,,,,,,2376,-84,-32,1,0,0,response5disk,,2,-5,9,1,0,0,rectangle,-5,9,1,0,0,-5,9,1,0,0,1,105,265,75,1,,,,,,,,
,,,,,,,,,,,,,FF,,,,,,,,1.2341,,,,,,,,,,,,,,,,,,,,,,60fe39803b9a5a11674a9e9c,61036ded606dd7586d939d0f,2021-07-29_21h17.25.520,Simcolourproject_2stim_asymm_v5,2020.2.10,Win32,60,61025ae37ef11b136ea224fe,,,,,,,,,3149,-87,42,1,0,0,response7disk,,1,12,10,1,0,0,rectangle,12,10,1,0,0,12,10,1,0,0,1,106,266,148,1,,,,,,,,
,,,,,,,,,,,,,FF,,,,,,,,1.2739,,,,,,,,,,,,,,,,,,,,,,60fe39803b9a5a11674a9e9c,61036ded606dd7586d939d0f,2021-07-29_21h17.25.520,Simcolourproject_2stim_asymm_v5,2020.2.10,Win32,60,61025ae37ef11b136ea224fe,,,,,,,,,1139,32,-73,1,0,0,response3disk,,4,-3,-2,1,0,0,rectangle,-3,-2,1,0,0,-3,-2,1,0,0,1,107,267,56,1,,,,,,,,
,,,,,,,,,,,,,FF,,,,,,,,1.133,,,,,,,,,,,,,,,,,,,,,,60fe39803b9a5a11674a9e9c,61036ded606dd7586d939d0f,2021-07-29_21h17.25.520,Simcolourproject_2stim_asymm_v5,2020.2.10,Win32,60,61025ae37ef11b136ea224fe,,,,,,,,,769,62,34,1,0,0,response1disk,,6,-5,4,1,0,0,rectangle,-5,4,1,0,0,-5,4,1,0,0,1,108,268,91,1,,,,,,,,
,,,,,,,,,,,,,FF,,,,,,,,0.8843,,,,,,,,,,,,,,,,,,,,,,60fe39803b9a5a11674a9e9c,61036ded606dd7586d939d0f,2021-07-29_21h17.25.520,Simcolourproject_2stim_asymm_v5,2020.2.10,Win32,60,61025ae37ef11b136ea224fe,,,,,,,,,4316,-70,80,1,0,0,response7disk,,0,-24,5,1,0,0,rectangle,-24,5,1,0,0,-24,5,1,0,0,1,109,269,128,1,,,,,,,,
,,,,,,,,,,,,,FF,,,,,,,,0.9175,,,,,,,,,,,,,,,,,,,,,,60fe39803b9a5a11674a9e9c,61036ded606dd7586d939d0f,2021-07-29_21h17.25.520,Simcolourproject_2stim_asymm_v5,2020.2.10,Win32,60,61025ae37ef11b136ea224fe,,,,,,,,,887,-73,38,1,0,0,response7disk,,1,-30,5,1,0,0,rectangle,-85,-37,1,0,0,-11,-3,1,0,0,1,110,270,93,1,,response5disk_3,TRUE,2,2,"[164,123,309,156,299,97,7,156,116,138,298,260,171,210,108,190,317,271,323,166]",1.8506,rectangle
,,,,,,,,,,,,,FF,,,,,,,,2.5349,,,,,,,,,,,,,,,,,,,,,,60fe39803b9a5a11674a9e9c,61036ded606dd7586d939d0f,2021-07-29_21h17.25.520,Simcolourproject_2stim_asymm_v5,2020.2.10,Win32,60,61025ae37ef11b136ea224fe,,,,,,,,,2141,76,-29,1,0,0,response3disk,,5,5,5,1,0,0,rectangle,5,5,1,0,0,5,5,1,0,0,1,111,271,19,1,,,,,,,,
,,,,,,,,,,,,,FF,,,,,,,,0.9682,,,,,,,,,,,,,,,,,,,,,,60fe39803b9a5a11674a9e9c,61036ded606dd7586d939d0f,2021-07-29_21h17.25.520,Simcolourproject_2stim_asymm_v5,2020.2.10,Win32,60,61025ae37ef11b136ea224fe,,,,,,,,,2227,-70,29,1,0,0,response7disk,,1,-4,5,1,0,0,rectangle,-4,5,1,0,0,-4,5,1,0,0,1,112,272,133,1,,,,,,,,
,,,,,,,,,,,,,FF,,,,,,,,1.185,,,,,,,,,,,,,,,,,,,,,,60fe39803b9a5a11674a9e9c,61036ded606dd7586d939d0f,2021-07-29_21h17.25.520,Simcolourproject_2stim_asymm_v5,2020.2.10,Win32,60,61025ae37ef11b136ea224fe,,,,,,,,,1896,-81,-27,1,0,0,response5disk,,2,-21,-4,1,0,0,rectangle,-21,-4,1,0,0,-21,-4,1,0,0,1,113,273,11,1,,,,,,,,
,,,,,,,,,,,,,FF,,,,,,,,1.7345,,,,,,,,,,,,,,,,,,,,,,60fe39803b9a5a11674a9e9c,61036ded606dd7586d939d0f,2021-07-29_21h17.25.520,Simcolourproject_2stim_asymm_v5,2020.2.10,Win32,60,61025ae37ef11b136ea224fe,,,,,,,,,4245,83,30,1,0,0,response1disk,,6,0,-4,1,0,0,rectangle,0,-4,1,0,0,0,-4,1,0,0,1,114,274,42,1,,,,,,,,
,,,,,,,,,,,,,FF,,,,,,,,2.4847,,,,,,,,,,,,,,,,,,,,,,60fe39803b9a5a11674a9e9c,61036ded606dd7586d939d0f,2021-07-29_21h17.25.520,Simcolourproject_2stim_asymm_v5,2020.2.10,Win32,60,61025ae37ef11b136ea224fe,,,,,,,,,3702,89,-39,1,0,0,response3disk,,5,4,5,1,0,0,rectangle,4,5,1,0,0,4,5,1,0,0,1,115,275,10,1,,,,,,,,
,,,,,,,,,,,,,FF,,,,,,,,1.2177,,,,,,,,,,,,,,,,,,,,,,60fe39803b9a5a11674a9e9c,61036ded606dd7586d939d0f,2021-07-29_21h17.25.520,Simcolourproject_2stim_asymm_v5,2020.2.10,Win32,60,61025ae37ef11b136ea224fe,,,,,,,,,2844,-37,-67,1,0,0,response5disk,,3,-7,4,1,0,0,rectangle,-7,4,1,0,0,-7,4,1,0,0,1,116,276,154,1,,,,,,,,
,,,,,,,,,,,,,FF,,,,,,,,1.2344,,,,,,,,,,,,,,,,,,,,,,60fe39803b9a5a11674a9e9c,61036ded606dd7586d939d0f,2021-07-29_21h17.25.520,Simcolourproject_2stim_asymm_v5,2020.2.10,Win32,60,61025ae37ef11b136ea224fe,,,,,,,,,2241,-41,-79,1,0,0,response5disk,,3,8,3,1,0,0,rectangle,8,3,1,0,0,8,3,1,0,0,1,117,277,88,1,,,,,,,,
,,,,,,,,,,,,,FF,,,,,,,,2.3683,,,,,,,,,,,,,,,,,,,,,,60fe39803b9a5a11674a9e9c,61036ded606dd7586d939d0f,2021-07-29_21h17.25.520,Simcolourproject_2stim_asymm_v5,2020.2.10,Win32,60,61025ae37ef11b136ea224fe,,,,,,,,,4221,-26,-77,1,0,0,response5disk,,3,1,-2,1,0,0,rectangle,1,-2,1,0,0,1,-2,1,0,0,1,118,278,86,1,,,,,,,,
,,,,,,,,,,,,,FF,,,,,,,,1.7173,,,,,,,,,,,,,,,,,,,,,,60fe39803b9a5a11674a9e9c,61036ded606dd7586d939d0f,2021-07-29_21h17.25.520,Simcolourproject_2stim_asymm_v5,2020.2.10,Win32,60,61025ae37ef11b136ea224fe,,,,,,,,,2637,61,-76,1,0,0,response3disk,,4,-12,9,1,0,0,rectangle,-12,9,1,0,0,-12,9,1,0,0,1,119,279,78,1,,,,,,,,
,,,,,,,,,,,,,FF,,,,,,,,1.2346,,,,,,,,,,,,,,,,,,,,,,60fe39803b9a5a11674a9e9c,61036ded606dd7586d939d0f,2021-07-29_21h17.25.520,Simcolourproject_2stim_asymm_v5,2020.2.10,Win32,60,61025ae37ef11b136ea224fe,,,,,,,,,2738,71,-37,1,0,0,response3disk,,5,10,1,1,0,0,rectangle,10,1,1,0,0,10,1,1,0,0,1,120,280,109,1,,,,,,,,
,,,,,,,,,,,,,FF,,,,,,,,1.5866,,,,,,,,,,,,,,,,,,,,,,60fe39803b9a5a11674a9e9c,61036ded606dd7586d939d0f,2021-07-29_21h17.25.520,Simcolourproject_2stim_asymm_v5,2020.2.10,Win32,60,61025ae37ef11b136ea224fe,,,,,,,,,1399,65,22,1,0,0,response1disk,,6,2,3,1,0,0,rectangle,2,3,1,0,0,2,3,1,0,0,1,121,281,130,1,,,,,,,,
,,,,,,,,,,,,,FF,,,,,,,,1.2672,,,,,,,,,,,,,,,,,,,,,,60fe39803b9a5a11674a9e9c,61036ded606dd7586d939d0f,2021-07-29_21h17.25.520,Simcolourproject_2stim_asymm_v5,2020.2.10,Win32,60,61025ae37ef11b136ea224fe,,,,,,,,,415,79,31,1,0,0,response1disk,,6,-5,4,1,0,0,rectangle,-5,4,1,0,0,-5,4,1,0,0,1,122,282,44,1,,,,,,,,
,,,,,,,,,,,,,FF,,,,,,,,2.2851,,,,,,,,,,,,,,,,,,,,,,60fe39803b9a5a11674a9e9c,61036ded606dd7586d939d0f,2021-07-29_21h17.25.520,Simcolourproject_2stim_asymm_v5,2020.2.10,Win32,60,61025ae37ef11b136ea224fe,,,,,,,,,3210,82,57,1,0,0,response1disk,,6,12,9,1,0,0,rectangle,12,9,1,0,0,12,9,1,0,0,1,123,283,61,1,,,,,,,,
,,,,,,,,,,,,,FF,,,,,,,,3.1204,,,,,,,,,,,,,,,,,,,,,,60fe39803b9a5a11674a9e9c,61036ded606dd7586d939d0f,2021-07-29_21h17.25.520,Simcolourproject_2stim_asymm_v5,2020.2.10,Win32,60,61025ae37ef11b136ea224fe,,,,,,,,,667,71,35,1,0,0,response1disk,,6,2,1,1,0,0,rectangle,2,1,1,0,0,2,1,1,0,0,1,124,284,122,1,,,,,,,,
,,,,,,,,,,,,,FF,,,,,,,,1.6678,,,,,,,,,,,,,,,,,,,,,,60fe39803b9a5a11674a9e9c,61036ded606dd7586d939d0f,2021-07-29_21h17.25.520,Simcolourproject_2stim_asymm_v5,2020.2.10,Win32,60,61025ae37ef11b136ea224fe,,,,,,,,,1636,96,28,1,0,0,response1disk,,6,-8,2,1,0,0,rectangle,-8,2,1,0,0,-8,2,1,0,0,1,125,285,82,1,,,,,,,,
,,,,,,,,,,,,,FF,,,,,,,,2.4347,,,,,,,,,,,,,,,,,,,,,,60fe39803b9a5a11674a9e9c,61036ded606dd7586d939d0f,2021-07-29_21h17.25.520,Simcolourproject_2stim_asymm_v5,2020.2.10,Win32,60,61025ae37ef11b136ea224fe,,,,,,,,,4129,-92,-28,1,0,0,response5disk,,2,24,4,1,0,0,rectangle,24,4,1,0,0,24,4,1,0,0,1,126,286,155,1,,,,,,,,
,,,,,,,,,,,,,FF,,,,,,,,1.0543,,,,,,,,,,,,,,,,,,,,,,60fe39803b9a5a11674a9e9c,61036ded606dd7586d939d0f,2021-07-29_21h17.25.520,Simcolourproject_2stim_asymm_v5,2020.2.10,Win32,60,61025ae37ef11b136ea224fe,,,,,,,,,2412,-92,-39,1,0,0,response5disk,,2,-20,-2,1,0,0,rectangle,-20,-2,1,0,0,-20,-2,1,0,0,1,127,287,43,1,,,,,,,,
,,,,,,,,,,,,,FF,,,,,,,,3.7184,,,,,,,,,,,,,,,,,,,,,,60fe39803b9a5a11674a9e9c,61036ded606dd7586d939d0f,2021-07-29_21h17.25.520,Simcolourproject_2stim_asymm_v5,2020.2.10,Win32,60,61025ae37ef11b136ea224fe,,,,,,,,,2501,49,-73,1,0,0,response3disk,,4,1,1,1,0,0,rectangle,1,1,1,0,0,1,1,1,0,0,1,128,288,5,1,,,,,,,,
,,,,,,,,,,,,,FF,,,,,,,,2.1684,,,,,,,,,,,,,,,,,,,,,,60fe39803b9a5a11674a9e9c,61036ded606dd7586d939d0f,2021-07-29_21h17.25.520,Simcolourproject_2stim_asymm_v5,2020.2.10,Win32,60,61025ae37ef11b136ea224fe,,,,,,,,,1474,77,-49,1,0,0,response3disk,,5,7,-2,1,0,0,rectangle,7,-2,1,0,0,7,-2,1,0,0,1,129,289,84,1,,,,,,,,
,,,,,,,,,,,,,FF,,,,,,,,2.2909,,,,,,,,,,,,,,,,,,,,,,60fe39803b9a5a11674a9e9c,61036ded606dd7586d939d0f,2021-07-29_21h17.25.520,Simcolourproject_2stim_asymm_v5,2020.2.10,Win32,60,61025ae37ef11b136ea224fe,,,,,,,,,452,41,-54,1,0,0,response3disk,,4,12,-7,1,0,0,rectangle,12,-7,1,0,0,12,-7,1,0,0,1,130,290,157,1,,,,,,,,
,,,,,,,,,,,,,FF,,,,,,,,2.4032,,,,,,,,,,,,,,,,,,,,,,60fe39803b9a5a11674a9e9c,61036ded606dd7586d939d0f,2021-07-29_21h17.25.520,Simcolourproject_2stim_asymm_v5,2020.2.10,Win32,60,61025ae37ef11b136ea224fe,,,,,,,,,4356,-85,67,1,0,0,response7disk,,1,-13,7,1,0,0,rectangle,-13,7,1,0,0,-13,7,1,0,0,1,131,291,142,1,,,,,,,,
,,,,,,,,,,,,,FF,,,,,,,,1.2481,,,,,,,,,,,,,,,,,,,,,,60fe39803b9a5a11674a9e9c,61036ded606dd7586d939d0f,2021-07-29_21h17.25.520,Simcolourproject_2stim_asymm_v5,2020.2.10,Win32,60,61025ae37ef11b136ea224fe,,,,,,,,,702,-71,-55,1,0,0,response5disk,,2,9,4,1,0,0,rectangle,9,4,1,0,0,9,4,1,0,0,1,132,292,110,1,,,,,,,,
,,,,,,,,,,,,,FF,,,,,,,,2.7351,,,,,,,,,,,,,,,,,,,,,,60fe39803b9a5a11674a9e9c,61036ded606dd7586d939d0f,2021-07-29_21h17.25.520,Simcolourproject_2stim_asymm_v5,2020.2.10,Win32,60,61025ae37ef11b136ea224fe,,,,,,,,,683,89,-55,1,0,0,response3disk,,5,2,6,1,0,0,rectangle,2,6,1,0,0,2,6,1,0,0,1,133,293,80,1,,,,,,,,
,,,,,,,,,,,,,FF,,,,,,,,1.5504,,,,,,,,,,,,,,,,,,,,,,60fe39803b9a5a11674a9e9c,61036ded606dd7586d939d0f,2021-07-29_21h17.25.520,Simcolourproject_2stim_asymm_v5,2020.2.10,Win32,60,61025ae37ef11b136ea224fe,,,,,,,,,3646,47,75,1,0,0,response1disk,,7,-5,2,1,0,0,rectangle,-5,2,1,0,0,-5,2,1,0,0,1,134,294,134,1,,,,,,,,
,,,,,,,,,,,,,FF,,,,,,,,1.468,,,,,,,,,,,,,,,,,,,,,,60fe39803b9a5a11674a9e9c,61036ded606dd7586d939d0f,2021-07-29_21h17.25.520,Simcolourproject_2stim_asymm_v5,2020.2.10,Win32,60,61025ae37ef11b136ea224fe,,,,,,,,,1124,35,-70,1,0,0,response3disk,,4,-1,0,1,0,0,rectangle,-1,0,1,0,0,-1,0,1,0,0,1,135,295,9,1,,,,,,,,
,,,,,,,,,,,,,FF,,,,,,,,1.0167,,,,,,,,,,,,,,,,,,,,,,60fe39803b9a5a11674a9e9c,61036ded606dd7586d939d0f,2021-07-29_21h17.25.520,Simcolourproject_2stim_asymm_v5,2020.2.10,Win32,60,61025ae37ef11b136ea224fe,,,,,,,,,3099,-68,-44,1,0,0,response5disk,,2,-6,10,1,0,0,rectangle,-6,10,1,0,0,-6,10,1,0,0,1,136,296,113,1,,,,,,,,
,,,,,,,,,,,,,FF,,,,,,,,1.3204,,,,,,,,,,,,,,,,,,,,,,60fe39803b9a5a11674a9e9c,61036ded606dd7586d939d0f,2021-07-29_21h17.25.520,Simcolourproject_2stim_asymm_v5,2020.2.10,Win32,60,61025ae37ef11b136ea224fe,,,,,,,,,4229,66,-25,1,0,0,response3disk,,5,6,8,1,0,0,rectangle,-44,98,1,0,0,-13,7,1,0,0,1,137,297,64,1,,response7disk_3,TRUE,0,0,"[164,123,309,156,299,97,7,156,116,138,298,260,171,210,108,190,317,271,323,166]",2.2363,rectangle
,,,,,,,,,,,,,FF,,,,,,,,1.6584,,,,,,,,,,,,,,,,,,,,,,60fe39803b9a5a11674a9e9c,61036ded606dd7586d939d0f,2021-07-29_21h17.25.520,Simcolourproject_2stim_asymm_v5,2020.2.10,Win32,60,61025ae37ef11b136ea224fe,,,,,,,,,1099,94,55,1,0,0,response1disk,,6,-8,-4,1,0,0,rectangle,78,-36,1,0,0,-3,2,1,0,0,1,138,298,21,1,,response3disk_3,TRUE,5,5,"[164,123,309,156,299,97,7,156,116,138,298,260,171,210,108,190,317,271,323,166]",1.5906,rectangle
,,,,,,,,,,,,,FF,,,,,,,,1.9681,,,,,,,,,,,,,,,,,,,,,,60fe39803b9a5a11674a9e9c,61036ded606dd7586d939d0f,2021-07-29_21h17.25.520,Simcolourproject_2stim_asymm_v5,2020.2.10,Win32,60,61025ae37ef11b136ea224fe,,,,,,,,,4302,53,-72,1,0,0,response3disk,,4,-15,5,1,0,0,rectangle,-15,5,1,0,0,-15,5,1,0,0,1,139,299,12,1,,,,,,,,
,,,,,,,,,,,,,FF,,,,,,,,2.4689,,,,,,,,,,,,,,,,,,,,,,60fe39803b9a5a11674a9e9c,61036ded606dd7586d939d0f,2021-07-29_21h17.25.520,Simcolourproject_2stim_asymm_v5,2020.2.10,Win32,60,61025ae37ef11b136ea224fe,,,,,,,,,2762,85,-36,1,0,0,response3disk,,5,10,-7,1,0,0,rectangle,10,-7,1,0,0,10,-7,1,0,0,1,140,300,98,1,,,,,,,,
,,,,,,,,,,,,,FF,,,,,,,,1.8172,,,,,,,,,,,,,,,,,,,,,,60fe39803b9a5a11674a9e9c,61036ded606dd7586d939d0f,2021-07-29_21h17.25.520,Simcolourproject_2stim_asymm_v5,2020.2.10,Win32,60,61025ae37ef11b136ea224fe,,,,,,,,,2196,90,-23,1,0,0,response3disk,,5,-8,9,1,0,0,rectangle,-8,9,1,0,0,-8,9,1,0,0,1,141,301,41,1,,,,,,,,
,,,,,,,,,,,,,FF,,,,,,,,1.3014,,,,,,,,,,,,,,,,,,,,,,60fe39803b9a5a11674a9e9c,61036ded606dd7586d939d0f,2021-07-29_21h17.25.520,Simcolourproject_2stim_asymm_v5,2020.2.10,Win32,60,61025ae37ef11b136ea224fe,,,,,,,,,1357,85,58,1,0,0,response1disk,,6,-24,2,1,0,0,rectangle,-24,2,1,0,0,-24,2,1,0,0,1,142,302,126,1,,,,,,,,
,,,,,,,,,,,,,FF,,,,,,,,1.514,,,,,,,,,,,,,,,,,,,,,,60fe39803b9a5a11674a9e9c,61036ded606dd7586d939d0f,2021-07-29_21h17.25.520,Simcolourproject_2stim_asymm_v5,2020.2.10,Win32,60,61025ae37ef11b136ea224fe,,,,,,,,,2731,29,-77,1,0,0,response3disk,,4,-6,0,1,0,0,rectangle,-6,0,1,0,0,-6,0,1,0,0,1,143,303,95,1,,,,,,,,
