key_resp.keys,key_resp.rt,key_resp_14.keys,key_resp_14.rt,key_resp_15.keys,key_resp_15.rt,key_resp_17.keys,key_resp_17.rt,key_resp_9.keys,key_resp_9.rt,key_resp_10.keys,key_resp_10.rt,practice_comparison,Ecc,mouse_5.x,mouse_5.y,mouse_5.leftButton,mouse_5.midButton,mouse_5.rightButton,mouse_5.clicked_name,pracsimilarity,response_time,mouse_10.x,mouse_10.y,mouse_10.leftButton,mouse_10.midButton,mouse_10.rightButton,mouse_10.clicked_name,mouse_7.x,mouse_7.y,mouse_7.leftButton,mouse_7.midButton,mouse_7.rightButton,mouse_6.x,mouse_6.y,mouse_6.leftButton,mouse_6.midButton,mouse_6.rightButton,duringprac.thisRepN,duringprac.thisTrialN,duringprac.thisN,duringprac.thisIndex,duringprac.ran,participant,session,date,expName,psychopyVersion,OS,frameRate,study_id,mouse_7.clicked_name,catchpracsimilarity,catch_response_time,catchnumberprac,catchtrialorderprac,mouse_6.clicked_name,key_resp_22.keys,key_resp_22.rt,realcomparison,mouse.x,mouse.y,mouse.leftButton,mouse.midButton,mouse.rightButton,mouse.clicked_name,Colour2,similarity,mouse_2.x,mouse_2.y,mouse_2.leftButton,mouse_2.midButton,mouse_2.rightButton,mouse_2.clicked_name,mouse_3.x,mouse_3.y,mouse_3.leftButton,mouse_3.midButton,mouse_3.rightButton,mouse_11.x,mouse_11.y,mouse_11.leftButton,mouse_11.midButton,mouse_11.rightButton,trials_2.thisRepN,trials_2.thisTrialN,trials_2.thisN,trials_2.thisIndex,trials_2.ran,Colour1,mouse_3.clicked_name,catchornah,catchsimilarity,catchnumber,catchtrialorder,catchRT,mouse_11.clicked_name
space,0.12,space,4.077,space,17.868,space,20.12,space,0.756,space,4.125,83,FF,-46,-62,1,0,0,response5disk_5,3,12.669,0,13,1,0,0,rectangle_8,0,13,1,0,0,0,13,1,0,0,0,0,0,5,1,60fe5a238ab86b516164f360,61036d2f19cdf417d42a8778,2021-07-29_20h11.10.879,Simcolourproject_2stim_asymm_v5,2020.2.10,MacIntel,60,61025ae37ef11b136ea224fe,,,,,,,,,,,,,,,,,,,,,,,,,,,,,,,,,,,,,,,,,,,,,,
,,,,,,,,,,,,46,PF,74,-32,1,0,0,response3disk_5,5,6.485,-2,-14,1,0,0,rectangle_8,-77,-26,1,0,0,0,-4,1,0,0,0,1,1,2,1,60fe5a238ab86b516164f360,61036d2f19cdf417d42a8778,2021-07-29_20h11.10.879,Simcolourproject_2stim_asymm_v5,2020.2.10,MacIntel,60,61025ae37ef11b136ea224fe,response5disk_7,2,3.545,2,"[2,5]",rectangle_4,,,,,,,,,,,,,,,,,,,,,,,,,,,,,,,,,,,,,,,,
,,,,,,,,,,,,61,FF,50,-65,1,0,0,response3disk_5,4,2.34,1,-7,1,0,0,rectangle_8,1,-7,1,0,0,1,-7,1,0,0,0,2,2,3,1,60fe5a238ab86b516164f360,61036d2f19cdf417d42a8778,2021-07-29_20h11.10.879,Simcolourproject_2stim_asymm_v5,2020.2.10,MacIntel,60,61025ae37ef11b136ea224fe,,,,,,,,,,,,,,,,,,,,,,,,,,,,,,,,,,,,,,,,,,,,,,
,,,,,,,,,,,,71,PF,-60,41,1,0,0,response7disk_5,1,4.713,-11,-7,1,0,0,rectangle_8,-11,-7,1,0,0,-11,-7,1,0,0,0,3,3,4,1,60fe5a238ab86b516164f360,61036d2f19cdf417d42a8778,2021-07-29_20h11.10.879,Simcolourproject_2stim_asymm_v5,2020.2.10,MacIntel,60,61025ae37ef11b136ea224fe,,,,,,,,,,,,,,,,,,,,,,,,,,,,,,,,,,,,,,,,,,,,,,
,,,,,,,,,,,,90,PF,-45,-68,1,0,0,response5disk_5,3,2.038,-8,-9,1,0,0,rectangle_8,-72,-23,1,0,0,0,-1,1,0,0,0,4,4,1,1,60fe5a238ab86b516164f360,61036d2f19cdf417d42a8778,2021-07-29_20h11.10.879,Simcolourproject_2stim_asymm_v5,2020.2.10,MacIntel,60,61025ae37ef11b136ea224fe,response5disk_7,2,1.921,2,"[2,5]",rectangle_4,,,,,,,,,,,,,,,,,,,,,,,,,,,,,,,,,,,,,,,,
,,,,,,,,,,,,20,PF,-66,33,1,0,0,response7disk_5,1,1.269,-13,-15,1,0,0,rectangle_8,-13,-15,1,0,0,-13,-15,1,0,0,0,5,5,6,1,60fe5a238ab86b516164f360,61036d2f19cdf417d42a8778,2021-07-29_20h11.10.879,Simcolourproject_2stim_asymm_v5,2020.2.10,MacIntel,60,61025ae37ef11b136ea224fe,,,,,,,,,,,,,,,,,,,,,,,,,,,,,,,,,,,,,,,,,,,,,,
,,,,,,,,,,,,110,FF,36,-58,1,0,0,response3disk_5,4,1.471,-8,7,1,0,0,rectangle_8,-8,7,1,0,0,-8,7,1,0,0,0,6,6,0,1,60fe5a238ab86b516164f360,61036d2f19cdf417d42a8778,2021-07-29_20h11.10.879,Simcolourproject_2stim_asymm_v5,2020.2.10,MacIntel,60,61025ae37ef11b136ea224fe,,,,,,,,,,,,,,,,,,,,,,,,,,,,,,,,,,,,,,,,,,,,,,
,,,,,,,,,,,,,FF,,,,,,,,2.892,,,,,,,,,,,,,,,,,,,,,,60fe5a238ab86b516164f360,61036d2f19cdf417d42a8778,2021-07-29_20h11.10.879,Simcolourproject_2stim_asymm_v5,2020.2.10,MacIntel,60,61025ae37ef11b136ea224fe,,,,,,,space,2.396,865,58,69,1,0,0,response1disk,,7,15,-2,1,0,0,rectangle,15,-2,1,0,0,15,-2,1,0,0,0,0,0,157,1,,,,,,,,
,,,,,,,,,,,,,FF,,,,,,,,1.387,,,,,,,,,,,,,,,,,,,,,,60fe5a238ab86b516164f360,61036d2f19cdf417d42a8778,2021-07-29_20h11.10.879,Simcolourproject_2stim_asymm_v5,2020.2.10,MacIntel,60,61025ae37ef11b136ea224fe,,,,,,,,,3360,26,-57,1,0,0,response3disk,,4,7,-6,1,0,0,rectangle,7,-6,1,0,0,7,-6,1,0,0,0,1,1,15,1,,,,,,,,
,,,,,,,,,,,,,FF,,,,,,,,1.621,,,,,,,,,,,,,,,,,,,,,,60fe5a238ab86b516164f360,61036d2f19cdf417d42a8778,2021-07-29_20h11.10.879,Simcolourproject_2stim_asymm_v5,2020.2.10,MacIntel,60,61025ae37ef11b136ea224fe,,,,,,,,,1616,-63,-43,1,0,0,response5disk,,2,-7,1,1,0,0,rectangle,-7,1,1,0,0,-7,1,1,0,0,0,2,2,39,1,,,,,,,,
,,,,,,,,,,,,,FF,,,,,,,,1.02,,,,,,,,,,,,,,,,,,,,,,60fe5a238ab86b516164f360,61036d2f19cdf417d42a8778,2021-07-29_20h11.10.879,Simcolourproject_2stim_asymm_v5,2020.2.10,MacIntel,60,61025ae37ef11b136ea224fe,,,,,,,,,4273,-58,-37,1,0,0,response5disk,,2,-24,1,1,0,0,rectangle,-44,76,1,0,0,-1,-8,1,0,0,0,3,3,66,1,,response7disk_3,TRUE,0,0,"[182,287,104,4,115,34,290,141,15,38,309,174,73,267,88,23,223,139,242,125]",2.691,rectangle
,,,,,,,,,,,,,FF,,,,,,,,1.354,,,,,,,,,,,,,,,,,,,,,,60fe5a238ab86b516164f360,61036d2f19cdf417d42a8778,2021-07-29_20h11.10.879,Simcolourproject_2stim_asymm_v5,2020.2.10,MacIntel,60,61025ae37ef11b136ea224fe,,,,,,,,,3186,35,83,1,0,0,response1disk,,7,-15,2,1,0,0,rectangle,-15,2,1,0,0,-15,2,1,0,0,0,4,4,87,1,,,,,,,,
,,,,,,,,,,,,,FF,,,,,,,,1.186,,,,,,,,,,,,,,,,,,,,,,60fe5a238ab86b516164f360,61036d2f19cdf417d42a8778,2021-07-29_20h11.10.879,Simcolourproject_2stim_asymm_v5,2020.2.10,MacIntel,60,61025ae37ef11b136ea224fe,,,,,,,,,2191,66,-84,1,0,0,response3disk,,4,-7,-11,1,0,0,rectangle,-7,-11,1,0,0,-7,-11,1,0,0,0,5,5,125,1,,,,,,,,
,,,,,,,,,,,,,FF,,,,,,,,1.487,,,,,,,,,,,,,,,,,,,,,,60fe5a238ab86b516164f360,61036d2f19cdf417d42a8778,2021-07-29_20h11.10.879,Simcolourproject_2stim_asymm_v5,2020.2.10,MacIntel,60,61025ae37ef11b136ea224fe,,,,,,,,,1690,-70,-37,1,0,0,response5disk,,2,-12,-10,1,0,0,rectangle,-12,-10,1,0,0,-12,-10,1,0,0,0,6,6,73,1,,,,,,,,
,,,,,,,,,,,,,FF,,,,,,,,1.203,,,,,,,,,,,,,,,,,,,,,,60fe5a238ab86b516164f360,61036d2f19cdf417d42a8778,2021-07-29_20h11.10.879,Simcolourproject_2stim_asymm_v5,2020.2.10,MacIntel,60,61025ae37ef11b136ea224fe,,,,,,,,,2243,-30,-69,1,0,0,response5disk,,3,2,2,1,0,0,rectangle,2,2,1,0,0,2,2,1,0,0,0,7,7,8,1,,,,,,,,
,,,,,,,,,,,,,FF,,,,,,,,1.153,,,,,,,,,,,,,,,,,,,,,,60fe5a238ab86b516164f360,61036d2f19cdf417d42a8778,2021-07-29_20h11.10.879,Simcolourproject_2stim_asymm_v5,2020.2.10,MacIntel,60,61025ae37ef11b136ea224fe,,,,,,,,,2932,-30,67,1,0,0,response7disk,,0,-10,-6,1,0,0,rectangle,-10,-6,1,0,0,-10,-6,1,0,0,0,8,8,81,1,,,,,,,,
,,,,,,,,,,,,,FF,,,,,,,,1.588,,,,,,,,,,,,,,,,,,,,,,60fe5a238ab86b516164f360,61036d2f19cdf417d42a8778,2021-07-29_20h11.10.879,Simcolourproject_2stim_asymm_v5,2020.2.10,MacIntel,60,61025ae37ef11b136ea224fe,,,,,,,,,2672,36,-75,1,0,0,response3disk,,4,8,7,1,0,0,rectangle,8,7,1,0,0,8,7,1,0,0,0,9,9,59,1,,,,,,,,
,,,,,,,,,,,,,FF,,,,,,,,1.42,,,,,,,,,,,,,,,,,,,,,,60fe5a238ab86b516164f360,61036d2f19cdf417d42a8778,2021-07-29_20h11.10.879,Simcolourproject_2stim_asymm_v5,2020.2.10,MacIntel,60,61025ae37ef11b136ea224fe,,,,,,,,,345,-52,28,1,0,0,response7disk,,1,-7,3,1,0,0,rectangle,-7,3,1,0,0,-7,3,1,0,0,0,10,10,107,1,,,,,,,,
,,,,,,,,,,,,,FF,,,,,,,,0.735,,,,,,,,,,,,,,,,,,,,,,60fe5a238ab86b516164f360,61036d2f19cdf417d42a8778,2021-07-29_20h11.10.879,Simcolourproject_2stim_asymm_v5,2020.2.10,MacIntel,60,61025ae37ef11b136ea224fe,,,,,,,,,1826,-34,48,1,0,0,response7disk,,0,-6,-5,1,0,0,rectangle,-6,-5,1,0,0,-6,-5,1,0,0,0,11,11,145,1,,,,,,,,
,,,,,,,,,,,,,FF,,,,,,,,0.836,,,,,,,,,,,,,,,,,,,,,,60fe5a238ab86b516164f360,61036d2f19cdf417d42a8778,2021-07-29_20h11.10.879,Simcolourproject_2stim_asymm_v5,2020.2.10,MacIntel,60,61025ae37ef11b136ea224fe,,,,,,,,,3750,-42,48,1,0,0,response7disk,,0,-19,-5,1,0,0,rectangle,-19,-5,1,0,0,-19,-5,1,0,0,0,12,12,111,1,,,,,,,,
,,,,,,,,,,,,,FF,,,,,,,,1.671,,,,,,,,,,,,,,,,,,,,,,60fe5a238ab86b516164f360,61036d2f19cdf417d42a8778,2021-07-29_20h11.10.879,Simcolourproject_2stim_asymm_v5,2020.2.10,MacIntel,60,61025ae37ef11b136ea224fe,,,,,,,,,2441,-35,-66,1,0,0,response5disk,,3,4,0,1,0,0,rectangle,4,0,1,0,0,4,0,1,0,0,0,13,13,96,1,,,,,,,,
,,,,,,,,,,,,,FF,,,,,,,,1.287,,,,,,,,,,,,,,,,,,,,,,60fe5a238ab86b516164f360,61036d2f19cdf417d42a8778,2021-07-29_20h11.10.879,Simcolourproject_2stim_asymm_v5,2020.2.10,MacIntel,60,61025ae37ef11b136ea224fe,,,,,,,,,3587,-18,-63,1,0,0,response5disk,,3,-2,0,1,0,0,rectangle,39,90,1,0,0,13,4,1,0,0,0,14,14,108,1,,response1disk_3,TRUE,7,7,"[182,287,104,4,115,34,290,141,15,38,309,174,73,267,88,23,223,139,242,125]",2.473,rectangle
,,,,,,,,,,,,,FF,,,,,,,,1.254,,,,,,,,,,,,,,,,,,,,,,60fe5a238ab86b516164f360,61036d2f19cdf417d42a8778,2021-07-29_20h11.10.879,Simcolourproject_2stim_asymm_v5,2020.2.10,MacIntel,60,61025ae37ef11b136ea224fe,,,,,,,,,386,27,-59,1,0,0,response3disk,,4,11,-16,1,0,0,rectangle,11,-16,1,0,0,11,-16,1,0,0,0,15,15,150,1,,,,,,,,
,,,,,,,,,,,,,FF,,,,,,,,1.254,,,,,,,,,,,,,,,,,,,,,,60fe5a238ab86b516164f360,61036d2f19cdf417d42a8778,2021-07-29_20h11.10.879,Simcolourproject_2stim_asymm_v5,2020.2.10,MacIntel,60,61025ae37ef11b136ea224fe,,,,,,,,,1094,97,-39,1,0,0,response3disk,,5,27,-3,1,0,0,rectangle,27,-3,1,0,0,27,-3,1,0,0,0,16,16,79,1,,,,,,,,
,,,,,,,,,,,,,FF,,,,,,,,1.337,,,,,,,,,,,,,,,,,,,,,,60fe5a238ab86b516164f360,61036d2f19cdf417d42a8778,2021-07-29_20h11.10.879,Simcolourproject_2stim_asymm_v5,2020.2.10,MacIntel,60,61025ae37ef11b136ea224fe,,,,,,,,,1659,-64,26,1,0,0,response7disk,,1,-19,-9,1,0,0,rectangle,-19,-9,1,0,0,-19,-9,1,0,0,0,17,17,86,1,,,,,,,,
,,,,,,,,,,,,,FF,,,,,,,,0.886,,,,,,,,,,,,,,,,,,,,,,60fe5a238ab86b516164f360,61036d2f19cdf417d42a8778,2021-07-29_20h11.10.879,Simcolourproject_2stim_asymm_v5,2020.2.10,MacIntel,60,61025ae37ef11b136ea224fe,,,,,,,,,4017,-26,-97,1,0,0,response5disk,,3,-13,-4,1,0,0,rectangle,-13,-4,1,0,0,-13,-4,1,0,0,0,18,18,30,1,,,,,,,,
,,,,,,,,,,,,,FF,,,,,,,,1.487,,,,,,,,,,,,,,,,,,,,,,60fe5a238ab86b516164f360,61036d2f19cdf417d42a8778,2021-07-29_20h11.10.879,Simcolourproject_2stim_asymm_v5,2020.2.10,MacIntel,60,61025ae37ef11b136ea224fe,,,,,,,,,2930,-38,-53,1,0,0,response5disk,,3,-20,-17,1,0,0,rectangle,-20,-17,1,0,0,-20,-17,1,0,0,0,19,19,69,1,,,,,,,,
,,,,,,,,,,,,,FF,,,,,,,,0.769,,,,,,,,,,,,,,,,,,,,,,60fe5a238ab86b516164f360,61036d2f19cdf417d42a8778,2021-07-29_20h11.10.879,Simcolourproject_2stim_asymm_v5,2020.2.10,MacIntel,60,61025ae37ef11b136ea224fe,,,,,,,,,1811,-66,87,1,0,0,response7disk,,0,-6,4,1,0,0,rectangle,-6,4,1,0,0,-6,4,1,0,0,0,20,20,88,1,,,,,,,,
,,,,,,,,,,,,,FF,,,,,,,,1.12,,,,,,,,,,,,,,,,,,,,,,60fe5a238ab86b516164f360,61036d2f19cdf417d42a8778,2021-07-29_20h11.10.879,Simcolourproject_2stim_asymm_v5,2020.2.10,MacIntel,60,61025ae37ef11b136ea224fe,,,,,,,,,3672,-65,45,1,0,0,response7disk,,1,-1,-11,1,0,0,rectangle,-1,-11,1,0,0,-1,-11,1,0,0,0,21,21,92,1,,,,,,,,
,,,,,,,,,,,,,FF,,,,,,,,1.304,,,,,,,,,,,,,,,,,,,,,,60fe5a238ab86b516164f360,61036d2f19cdf417d42a8778,2021-07-29_20h11.10.879,Simcolourproject_2stim_asymm_v5,2020.2.10,MacIntel,60,61025ae37ef11b136ea224fe,,,,,,,,,1137,46,-74,1,0,0,response3disk,,4,-3,6,1,0,0,rectangle,83,37,1,0,0,-22,-2,1,0,0,0,22,22,115,1,,response1disk_3,TRUE,6,6,"[182,287,104,4,115,34,290,141,15,38,309,174,73,267,88,23,223,139,242,125]",1.905,rectangle
,,,,,,,,,,,,,FF,,,,,,,,1.003,,,,,,,,,,,,,,,,,,,,,,60fe5a238ab86b516164f360,61036d2f19cdf417d42a8778,2021-07-29_20h11.10.879,Simcolourproject_2stim_asymm_v5,2020.2.10,MacIntel,60,61025ae37ef11b136ea224fe,,,,,,,,,4106,-80,32,1,0,0,response7disk,,1,-29,1,1,0,0,rectangle,-29,1,1,0,0,-29,1,1,0,0,0,23,23,129,1,,,,,,,,
,,,,,,,,,,,,,FF,,,,,,,,1.52,,,,,,,,,,,,,,,,,,,,,,60fe5a238ab86b516164f360,61036d2f19cdf417d42a8778,2021-07-29_20h11.10.879,Simcolourproject_2stim_asymm_v5,2020.2.10,MacIntel,60,61025ae37ef11b136ea224fe,,,,,,,,,3102,-88,-46,1,0,0,response5disk,,2,-6,-3,1,0,0,rectangle,-6,-3,1,0,0,-6,-3,1,0,0,0,24,24,151,1,,,,,,,,
,,,,,,,,,,,,,FF,,,,,,,,0.968,,,,,,,,,,,,,,,,,,,,,,60fe5a238ab86b516164f360,61036d2f19cdf417d42a8778,2021-07-29_20h11.10.879,Simcolourproject_2stim_asymm_v5,2020.2.10,MacIntel,60,61025ae37ef11b136ea224fe,,,,,,,,,2636,-34,-93,1,0,0,response5disk,,3,-4,-1,1,0,0,rectangle,-4,-1,1,0,0,-4,-1,1,0,0,0,25,25,147,1,,,,,,,,
,,,,,,,,,,,,,FF,,,,,,,,1.286,,,,,,,,,,,,,,,,,,,,,,60fe5a238ab86b516164f360,61036d2f19cdf417d42a8778,2021-07-29_20h11.10.879,Simcolourproject_2stim_asymm_v5,2020.2.10,MacIntel,60,61025ae37ef11b136ea224fe,,,,,,,,,703,75,39,1,0,0,response1disk,,6,10,-11,1,0,0,rectangle,10,-11,1,0,0,10,-11,1,0,0,0,26,26,19,1,,,,,,,,
,,,,,,,,,,,,,FF,,,,,,,,1.119,,,,,,,,,,,,,,,,,,,,,,60fe5a238ab86b516164f360,61036d2f19cdf417d42a8778,2021-07-29_20h11.10.879,Simcolourproject_2stim_asymm_v5,2020.2.10,MacIntel,60,61025ae37ef11b136ea224fe,,,,,,,,,1114,-46,35,1,0,0,response7disk,,1,-2,-9,1,0,0,rectangle,-2,-9,1,0,0,-2,-9,1,0,0,0,27,27,113,1,,,,,,,,
,,,,,,,,,,,,,FF,,,,,,,,0.786,,,,,,,,,,,,,,,,,,,,,,60fe5a238ab86b516164f360,61036d2f19cdf417d42a8778,2021-07-29_20h11.10.879,Simcolourproject_2stim_asymm_v5,2020.2.10,MacIntel,60,61025ae37ef11b136ea224fe,,,,,,,,,712,-71,27,1,0,0,response7disk,,1,-35,-2,1,0,0,rectangle,-35,-2,1,0,0,-35,-2,1,0,0,0,28,28,53,1,,,,,,,,
,,,,,,,,,,,,,FF,,,,,,,,0.904,,,,,,,,,,,,,,,,,,,,,,60fe5a238ab86b516164f360,61036d2f19cdf417d42a8778,2021-07-29_20h11.10.879,Simcolourproject_2stim_asymm_v5,2020.2.10,MacIntel,60,61025ae37ef11b136ea224fe,,,,,,,,,1112,49,-63,1,0,0,response3disk,,4,19,3,1,0,0,rectangle,19,3,1,0,0,19,3,1,0,0,0,29,29,20,1,,,,,,,,
,,,,,,,,,,,,,FF,,,,,,,,1.17,,,,,,,,,,,,,,,,,,,,,,60fe5a238ab86b516164f360,61036d2f19cdf417d42a8778,2021-07-29_20h11.10.879,Simcolourproject_2stim_asymm_v5,2020.2.10,MacIntel,60,61025ae37ef11b136ea224fe,,,,,,,,,1352,-37,-55,1,0,0,response5disk,,3,-7,8,1,0,0,rectangle,-7,8,1,0,0,-7,8,1,0,0,0,30,30,98,1,,,,,,,,
,,,,,,,,,,,,,FF,,,,,,,,1.488,,,,,,,,,,,,,,,,,,,,,,60fe5a238ab86b516164f360,61036d2f19cdf417d42a8778,2021-07-29_20h11.10.879,Simcolourproject_2stim_asymm_v5,2020.2.10,MacIntel,60,61025ae37ef11b136ea224fe,,,,,,,,,3570,-27,-68,1,0,0,response5disk,,3,-25,14,1,0,0,rectangle,-25,14,1,0,0,-25,14,1,0,0,0,31,31,156,1,,,,,,,,
,,,,,,,,,,,,,FF,,,,,,,,1.002,,,,,,,,,,,,,,,,,,,,,,60fe5a238ab86b516164f360,61036d2f19cdf417d42a8778,2021-07-29_20h11.10.879,Simcolourproject_2stim_asymm_v5,2020.2.10,MacIntel,60,61025ae37ef11b136ea224fe,,,,,,,,,1402,51,22,1,0,0,response1disk,,6,-24,6,1,0,0,rectangle,-24,6,1,0,0,-24,6,1,0,0,0,32,32,138,1,,,,,,,,
,,,,,,,,,,,,,FF,,,,,,,,0.802,,,,,,,,,,,,,,,,,,,,,,60fe5a238ab86b516164f360,61036d2f19cdf417d42a8778,2021-07-29_20h11.10.879,Simcolourproject_2stim_asymm_v5,2020.2.10,MacIntel,60,61025ae37ef11b136ea224fe,,,,,,,,,2338,71,31,1,0,0,response1disk,,6,0,8,1,0,0,rectangle,-87,42,1,0,0,-5,-2,1,0,0,0,33,33,13,1,,response7disk_3,TRUE,1,1,"[182,287,104,4,115,34,290,141,15,38,309,174,73,267,88,23,223,139,242,125]",1.638,rectangle
,,,,,,,,,,,,,FF,,,,,,,,1.454,,,,,,,,,,,,,,,,,,,,,,60fe5a238ab86b516164f360,61036d2f19cdf417d42a8778,2021-07-29_20h11.10.879,Simcolourproject_2stim_asymm_v5,2020.2.10,MacIntel,60,61025ae37ef11b136ea224fe,,,,,,,,,2641,-47,-37,1,0,0,response5disk,,2,-3,-14,1,0,0,rectangle,-3,-14,1,0,0,-3,-14,1,0,0,0,34,34,35,1,,,,,,,,
,,,,,,,,,,,,,FF,,,,,,,,0.802,,,,,,,,,,,,,,,,,,,,,,60fe5a238ab86b516164f360,61036d2f19cdf417d42a8778,2021-07-29_20h11.10.879,Simcolourproject_2stim_asymm_v5,2020.2.10,MacIntel,60,61025ae37ef11b136ea224fe,,,,,,,,,1505,35,-72,1,0,0,response3disk,,4,17,-10,1,0,0,rectangle,17,-10,1,0,0,17,-10,1,0,0,0,35,35,143,1,,,,,,,,
,,,,,,,,,,,,,FF,,,,,,,,0.903,,,,,,,,,,,,,,,,,,,,,,60fe5a238ab86b516164f360,61036d2f19cdf417d42a8778,2021-07-29_20h11.10.879,Simcolourproject_2stim_asymm_v5,2020.2.10,MacIntel,60,61025ae37ef11b136ea224fe,,,,,,,,,3160,-69,-25,1,0,0,response5disk,,2,-11,6,1,0,0,rectangle,-11,6,1,0,0,-11,6,1,0,0,0,36,36,17,1,,,,,,,,
,,,,,,,,,,,,,FF,,,,,,,,1.587,,,,,,,,,,,,,,,,,,,,,,60fe5a238ab86b516164f360,61036d2f19cdf417d42a8778,2021-07-29_20h11.10.879,Simcolourproject_2stim_asymm_v5,2020.2.10,MacIntel,60,61025ae37ef11b136ea224fe,,,,,,,,,2928,-29,-56,1,0,0,response5disk,,3,-11,-4,1,0,0,rectangle,-74,48,1,0,0,-5,0,1,0,0,0,37,37,99,1,,response7disk_3,TRUE,1,1,"[182,287,104,4,115,34,290,141,15,38,309,174,73,267,88,23,223,139,242,125]",1.504,rectangle
,,,,,,,,,,,,,FF,,,,,,,,37.952,,,,,,,,,,,,,,,,,,,,,,60fe5a238ab86b516164f360,61036d2f19cdf417d42a8778,2021-07-29_20h11.10.879,Simcolourproject_2stim_asymm_v5,2020.2.10,MacIntel,60,61025ae37ef11b136ea224fe,,,,,,,,,933,-34,-70,1,0,0,response5disk,,3,19,-3,1,0,0,rectangle,19,-3,1,0,0,19,-3,1,0,0,0,38,38,36,1,,,,,,,,
,,,,,,,,,,,,,FF,,,,,,,,1.487,,,,,,,,,,,,,,,,,,,,,,60fe5a238ab86b516164f360,61036d2f19cdf417d42a8778,2021-07-29_20h11.10.879,Simcolourproject_2stim_asymm_v5,2020.2.10,MacIntel,60,61025ae37ef11b136ea224fe,,,,,,,,,2793,86,-43,1,0,0,response3disk,,5,-3,-1,1,0,0,rectangle,-3,-1,1,0,0,-3,-1,1,0,0,0,39,39,0,1,,,,,,,,
,,,,,,,,,,,,,FF,,,,,,,,0.802,,,,,,,,,,,,,,,,,,,,,,60fe5a238ab86b516164f360,61036d2f19cdf417d42a8778,2021-07-29_20h11.10.879,Simcolourproject_2stim_asymm_v5,2020.2.10,MacIntel,60,61025ae37ef11b136ea224fe,,,,,,,,,3941,37,-64,1,0,0,response3disk,,4,13,-14,1,0,0,rectangle,13,-14,1,0,0,13,-14,1,0,0,0,40,40,7,1,,,,,,,,
,,,,,,,,,,,,,FF,,,,,,,,10.344,,,,,,,,,,,,,,,,,,,,,,60fe5a238ab86b516164f360,61036d2f19cdf417d42a8778,2021-07-29_20h11.10.879,Simcolourproject_2stim_asymm_v5,2020.2.10,MacIntel,60,61025ae37ef11b136ea224fe,,,,,,,,,2400,18,-45,1,0,0,response3disk,,4,1,-3,1,0,0,rectangle,1,-3,1,0,0,1,-3,1,0,0,0,41,41,146,1,,,,,,,,
,,,,,,,,,,,,,FF,,,,,,,,1.655,,,,,,,,,,,,,,,,,,,,,,60fe5a238ab86b516164f360,61036d2f19cdf417d42a8778,2021-07-29_20h11.10.879,Simcolourproject_2stim_asymm_v5,2020.2.10,MacIntel,60,61025ae37ef11b136ea224fe,,,,,,,,,4220,50,-35,1,0,0,response3disk,,5,3,15,1,0,0,rectangle,3,15,1,0,0,3,15,1,0,0,0,42,42,41,1,,,,,,,,
,,,,,,,,,,,,,FF,,,,,,,,0.869,,,,,,,,,,,,,,,,,,,,,,60fe5a238ab86b516164f360,61036d2f19cdf417d42a8778,2021-07-29_20h11.10.879,Simcolourproject_2stim_asymm_v5,2020.2.10,MacIntel,60,61025ae37ef11b136ea224fe,,,,,,,,,2386,-32,-59,1,0,0,response5disk,,3,-7,-17,1,0,0,rectangle,-7,-17,1,0,0,-7,-17,1,0,0,0,43,43,28,1,,,,,,,,
,,,,,,,,,,,,,FF,,,,,,,,0.619,,,,,,,,,,,,,,,,,,,,,,60fe5a238ab86b516164f360,61036d2f19cdf417d42a8778,2021-07-29_20h11.10.879,Simcolourproject_2stim_asymm_v5,2020.2.10,MacIntel,60,61025ae37ef11b136ea224fe,,,,,,,,,3502,-63,-35,1,0,0,response5disk,,2,-20,-12,1,0,0,rectangle,-20,-12,1,0,0,-20,-12,1,0,0,0,44,44,119,1,,,,,,,,
,,,,,,,,,,,,,FF,,,,,,,,0.936,,,,,,,,,,,,,,,,,,,,,,60fe5a238ab86b516164f360,61036d2f19cdf417d42a8778,2021-07-29_20h11.10.879,Simcolourproject_2stim_asymm_v5,2020.2.10,MacIntel,60,61025ae37ef11b136ea224fe,,,,,,,,,2773,-39,-48,1,0,0,response5disk,,3,-12,-4,1,0,0,rectangle,-12,-4,1,0,0,-12,-4,1,0,0,0,45,45,117,1,,,,,,,,
,,,,,,,,,,,,,FF,,,,,,,,2.356,,,,,,,,,,,,,,,,,,,,,,60fe5a238ab86b516164f360,61036d2f19cdf417d42a8778,2021-07-29_20h11.10.879,Simcolourproject_2stim_asymm_v5,2020.2.10,MacIntel,60,61025ae37ef11b136ea224fe,,,,,,,,,2747,-47,-74,1,0,0,response5disk,,3,-13,-1,1,0,0,rectangle,-13,-1,1,0,0,-13,-1,1,0,0,0,46,46,124,1,,,,,,,,
,,,,,,,,,,,,,FF,,,,,,,,1.822,,,,,,,,,,,,,,,,,,,,,,60fe5a238ab86b516164f360,61036d2f19cdf417d42a8778,2021-07-29_20h11.10.879,Simcolourproject_2stim_asymm_v5,2020.2.10,MacIntel,60,61025ae37ef11b136ea224fe,,,,,,,,,2126,38,-63,1,0,0,response3disk,,4,23,-17,1,0,0,rectangle,23,-17,1,0,0,23,-17,1,0,0,0,47,47,126,1,,,,,,,,
,,,,,,,,,,,,,FF,,,,,,,,1.57,,,,,,,,,,,,,,,,,,,,,,60fe5a238ab86b516164f360,61036d2f19cdf417d42a8778,2021-07-29_20h11.10.879,Simcolourproject_2stim_asymm_v5,2020.2.10,MacIntel,60,61025ae37ef11b136ea224fe,,,,,,,,,4072,-33,-74,1,0,0,response5disk,,3,-5,2,1,0,0,rectangle,-5,2,1,0,0,-5,2,1,0,0,0,48,48,48,1,,,,,,,,
,,,,,,,,,,,,,FF,,,,,,,,4.644,,,,,,,,,,,,,,,,,,,,,,60fe5a238ab86b516164f360,61036d2f19cdf417d42a8778,2021-07-29_20h11.10.879,Simcolourproject_2stim_asymm_v5,2020.2.10,MacIntel,60,61025ae37ef11b136ea224fe,,,,,,,,,1631,-29,-76,1,0,0,response5disk,,3,-11,-5,1,0,0,rectangle,-11,-5,1,0,0,-11,-5,1,0,0,0,49,49,104,1,,,,,,,,
,,,,,,,,,,,,,FF,,,,,,,,1.037,,,,,,,,,,,,,,,,,,,,,,60fe5a238ab86b516164f360,61036d2f19cdf417d42a8778,2021-07-29_20h11.10.879,Simcolourproject_2stim_asymm_v5,2020.2.10,MacIntel,60,61025ae37ef11b136ea224fe,,,,,,,,,2714,-56,34,1,0,0,response7disk,,1,-27,5,1,0,0,rectangle,-27,5,1,0,0,-27,5,1,0,0,0,50,50,26,1,,,,,,,,
,,,,,,,,,,,,,FF,,,,,,,,0.719,,,,,,,,,,,,,,,,,,,,,,60fe5a238ab86b516164f360,61036d2f19cdf417d42a8778,2021-07-29_20h11.10.879,Simcolourproject_2stim_asymm_v5,2020.2.10,MacIntel,60,61025ae37ef11b136ea224fe,,,,,,,,,3680,-63,35,1,0,0,response7disk,,1,-15,-15,1,0,0,rectangle,-15,-15,1,0,0,-15,-15,1,0,0,0,51,51,139,1,,,,,,,,
,,,,,,,,,,,,,FF,,,,,,,,1.571,,,,,,,,,,,,,,,,,,,,,,60fe5a238ab86b516164f360,61036d2f19cdf417d42a8778,2021-07-29_20h11.10.879,Simcolourproject_2stim_asymm_v5,2020.2.10,MacIntel,60,61025ae37ef11b136ea224fe,,,,,,,,,4041,-35,-53,1,0,0,response5disk,,3,-3,-1,1,0,0,rectangle,-3,-1,1,0,0,-3,-1,1,0,0,0,52,52,62,1,,,,,,,,
,,,,,,,,,,,,,FF,,,,,,,,1.17,,,,,,,,,,,,,,,,,,,,,,60fe5a238ab86b516164f360,61036d2f19cdf417d42a8778,2021-07-29_20h11.10.879,Simcolourproject_2stim_asymm_v5,2020.2.10,MacIntel,60,61025ae37ef11b136ea224fe,,,,,,,,,2753,34,-78,1,0,0,response3disk,,4,8,-7,1,0,0,rectangle,8,-7,1,0,0,8,-7,1,0,0,0,53,53,24,1,,,,,,,,
,,,,,,,,,,,,,FF,,,,,,,,1.871,,,,,,,,,,,,,,,,,,,,,,60fe5a238ab86b516164f360,61036d2f19cdf417d42a8778,2021-07-29_20h11.10.879,Simcolourproject_2stim_asymm_v5,2020.2.10,MacIntel,60,61025ae37ef11b136ea224fe,,,,,,,,,2887,-31,73,1,0,0,response7disk,,0,-22,-4,1,0,0,rectangle,-22,-4,1,0,0,-22,-4,1,0,0,0,54,54,49,1,,,,,,,,
,,,,,,,,,,,,,FF,,,,,,,,0.802,,,,,,,,,,,,,,,,,,,,,,60fe5a238ab86b516164f360,61036d2f19cdf417d42a8778,2021-07-29_20h11.10.879,Simcolourproject_2stim_asymm_v5,2020.2.10,MacIntel,60,61025ae37ef11b136ea224fe,,,,,,,,,885,-38,82,1,0,0,response7disk,,0,-20,4,1,0,0,rectangle,-20,4,1,0,0,-20,4,1,0,0,0,55,55,34,1,,,,,,,,
,,,,,,,,,,,,,FF,,,,,,,,0.851,,,,,,,,,,,,,,,,,,,,,,60fe5a238ab86b516164f360,61036d2f19cdf417d42a8778,2021-07-29_20h11.10.879,Simcolourproject_2stim_asymm_v5,2020.2.10,MacIntel,60,61025ae37ef11b136ea224fe,,,,,,,,,3047,-83,31,1,0,0,response7disk,,1,-20,0,1,0,0,rectangle,-20,0,1,0,0,-20,0,1,0,0,0,56,56,50,1,,,,,,,,
,,,,,,,,,,,,,FF,,,,,,,,1.052,,,,,,,,,,,,,,,,,,,,,,60fe5a238ab86b516164f360,61036d2f19cdf417d42a8778,2021-07-29_20h11.10.879,Simcolourproject_2stim_asymm_v5,2020.2.10,MacIntel,60,61025ae37ef11b136ea224fe,,,,,,,,,2202,27,-44,1,0,0,response3disk,,4,0,9,1,0,0,rectangle,0,9,1,0,0,0,9,1,0,0,0,57,57,63,1,,,,,,,,
,,,,,,,,,,,,,FF,,,,,,,,0.853,,,,,,,,,,,,,,,,,,,,,,60fe5a238ab86b516164f360,61036d2f19cdf417d42a8778,2021-07-29_20h11.10.879,Simcolourproject_2stim_asymm_v5,2020.2.10,MacIntel,60,61025ae37ef11b136ea224fe,,,,,,,,,515,46,-66,1,0,0,response3disk,,4,17,-5,1,0,0,rectangle,17,-5,1,0,0,17,-5,1,0,0,0,58,58,61,1,,,,,,,,
,,,,,,,,,,,,,FF,,,,,,,,0.769,,,,,,,,,,,,,,,,,,,,,,60fe5a238ab86b516164f360,61036d2f19cdf417d42a8778,2021-07-29_20h11.10.879,Simcolourproject_2stim_asymm_v5,2020.2.10,MacIntel,60,61025ae37ef11b136ea224fe,,,,,,,,,146,27,-55,1,0,0,response3disk,,4,10,7,1,0,0,rectangle,10,7,1,0,0,10,7,1,0,0,0,59,59,9,1,,,,,,,,
,,,,,,,,,,,,,FF,,,,,,,,0.935,,,,,,,,,,,,,,,,,,,,,,60fe5a238ab86b516164f360,61036d2f19cdf417d42a8778,2021-07-29_20h11.10.879,Simcolourproject_2stim_asymm_v5,2020.2.10,MacIntel,60,61025ae37ef11b136ea224fe,,,,,,,,,2700,93,36,1,0,0,response1disk,,6,-3,-3,1,0,0,rectangle,-3,-3,1,0,0,-3,-3,1,0,0,0,60,60,76,1,,,,,,,,
,,,,,,,,,,,,,FF,,,,,,,,1.119,,,,,,,,,,,,,,,,,,,,,,60fe5a238ab86b516164f360,61036d2f19cdf417d42a8778,2021-07-29_20h11.10.879,Simcolourproject_2stim_asymm_v5,2020.2.10,MacIntel,60,61025ae37ef11b136ea224fe,,,,,,,,,2383,27,-60,1,0,0,response3disk,,4,5,-4,1,0,0,rectangle,5,-4,1,0,0,5,-4,1,0,0,0,61,61,110,1,,,,,,,,
,,,,,,,,,,,,,FF,,,,,,,,1.135,,,,,,,,,,,,,,,,,,,,,,60fe5a238ab86b516164f360,61036d2f19cdf417d42a8778,2021-07-29_20h11.10.879,Simcolourproject_2stim_asymm_v5,2020.2.10,MacIntel,60,61025ae37ef11b136ea224fe,,,,,,,,,1323,-39,-50,1,0,0,response5disk,,3,-14,-12,1,0,0,rectangle,-14,-12,1,0,0,-14,-12,1,0,0,0,62,62,159,1,,,,,,,,
,,,,,,,,,,,,,FF,,,,,,,,1.053,,,,,,,,,,,,,,,,,,,,,,60fe5a238ab86b516164f360,61036d2f19cdf417d42a8778,2021-07-29_20h11.10.879,Simcolourproject_2stim_asymm_v5,2020.2.10,MacIntel,60,61025ae37ef11b136ea224fe,,,,,,,,,2600,52,-60,1,0,0,response3disk,,4,19,-3,1,0,0,rectangle,19,-3,1,0,0,19,-3,1,0,0,0,63,63,40,1,,,,,,,,
,,,,,,,,,,,,,FF,,,,,,,,0.668,,,,,,,,,,,,,,,,,,,,,,60fe5a238ab86b516164f360,61036d2f19cdf417d42a8778,2021-07-29_20h11.10.879,Simcolourproject_2stim_asymm_v5,2020.2.10,MacIntel,60,61025ae37ef11b136ea224fe,,,,,,,,,0,-53,79,1,0,0,response7disk,,0,-8,3,1,0,0,rectangle,-8,3,1,0,0,-8,3,1,0,0,0,64,64,153,1,,,,,,,,
,,,,,,,,,,,,,FF,,,,,,,,8.271,,,,,,,,,,,,,,,,,,,,,,60fe5a238ab86b516164f360,61036d2f19cdf417d42a8778,2021-07-29_20h11.10.879,Simcolourproject_2stim_asymm_v5,2020.2.10,MacIntel,60,61025ae37ef11b136ea224fe,,,,,,,,,2118,17,-72,1,0,0,response3disk,,4,-9,9,1,0,0,rectangle,-9,9,1,0,0,-9,9,1,0,0,0,65,65,57,1,,,,,,,,
,,,,,,,,,,,,,FF,,,,,,,,0.786,,,,,,,,,,,,,,,,,,,,,,60fe5a238ab86b516164f360,61036d2f19cdf417d42a8778,2021-07-29_20h11.10.879,Simcolourproject_2stim_asymm_v5,2020.2.10,MacIntel,60,61025ae37ef11b136ea224fe,,,,,,,,,2690,40,-89,1,0,0,response3disk,,4,6,-6,1,0,0,rectangle,6,-6,1,0,0,6,-6,1,0,0,0,66,66,83,1,,,,,,,,
,,,,,,,,,,,,,FF,,,,,,,,0.685,,,,,,,,,,,,,,,,,,,,,,60fe5a238ab86b516164f360,61036d2f19cdf417d42a8778,2021-07-29_20h11.10.879,Simcolourproject_2stim_asymm_v5,2020.2.10,MacIntel,60,61025ae37ef11b136ea224fe,,,,,,,,,3478,-40,47,1,0,0,response7disk,,0,-1,-17,1,0,0,rectangle,-1,-17,1,0,0,-1,-17,1,0,0,0,67,67,148,1,,,,,,,,
,,,,,,,,,,,,,FF,,,,,,,,0.919,,,,,,,,,,,,,,,,,,,,,,60fe5a238ab86b516164f360,61036d2f19cdf417d42a8778,2021-07-29_20h11.10.879,Simcolourproject_2stim_asymm_v5,2020.2.10,MacIntel,60,61025ae37ef11b136ea224fe,,,,,,,,,4296,57,66,1,0,0,response1disk,,7,7,-6,1,0,0,rectangle,7,-6,1,0,0,7,-6,1,0,0,0,68,68,5,1,,,,,,,,
,,,,,,,,,,,,,FF,,,,,,,,1.371,,,,,,,,,,,,,,,,,,,,,,60fe5a238ab86b516164f360,61036d2f19cdf417d42a8778,2021-07-29_20h11.10.879,Simcolourproject_2stim_asymm_v5,2020.2.10,MacIntel,60,61025ae37ef11b136ea224fe,,,,,,,,,1121,-58,-29,1,0,0,response5disk,,2,-1,-4,1,0,0,rectangle,-1,-4,1,0,0,-1,-4,1,0,0,0,69,69,12,1,,,,,,,,
,,,,,,,,,,,,,FF,,,,,,,,0.618,,,,,,,,,,,,,,,,,,,,,,60fe5a238ab86b516164f360,61036d2f19cdf417d42a8778,2021-07-29_20h11.10.879,Simcolourproject_2stim_asymm_v5,2020.2.10,MacIntel,60,61025ae37ef11b136ea224fe,,,,,,,,,1107,35,-72,1,0,0,response3disk,,4,12,-13,1,0,0,rectangle,12,-13,1,0,0,12,-13,1,0,0,0,70,70,21,1,,,,,,,,
,,,,,,,,,,,,,FF,,,,,,,,0.736,,,,,,,,,,,,,,,,,,,,,,60fe5a238ab86b516164f360,61036d2f19cdf417d42a8778,2021-07-29_20h11.10.879,Simcolourproject_2stim_asymm_v5,2020.2.10,MacIntel,60,61025ae37ef11b136ea224fe,,,,,,,,,1313,-21,-63,1,0,0,response5disk,,3,-16,6,1,0,0,rectangle,-16,6,1,0,0,-16,6,1,0,0,0,71,71,109,1,,,,,,,,
,,,,,,,,,,,,,FF,,,,,,,,0.653,,,,,,,,,,,,,,,,,,,,,,60fe5a238ab86b516164f360,61036d2f19cdf417d42a8778,2021-07-29_20h11.10.879,Simcolourproject_2stim_asymm_v5,2020.2.10,MacIntel,60,61025ae37ef11b136ea224fe,,,,,,,,,4364,-38,69,1,0,0,response7disk,,0,-6,-15,1,0,0,rectangle,-23,73,1,0,0,-8,-12,1,0,0,0,72,72,122,1,,response7disk_3,TRUE,0,0,"[182,287,104,4,115,34,290,141,15,38,309,174,73,267,88,23,223,139,242,125]",1.437,rectangle
,,,,,,,,,,,,,FF,,,,,,,,0.952,,,,,,,,,,,,,,,,,,,,,,60fe5a238ab86b516164f360,61036d2f19cdf417d42a8778,2021-07-29_20h11.10.879,Simcolourproject_2stim_asymm_v5,2020.2.10,MacIntel,60,61025ae37ef11b136ea224fe,,,,,,,,,1421,22,-64,1,0,0,response3disk,,4,-4,12,1,0,0,rectangle,-4,12,1,0,0,-4,12,1,0,0,0,73,73,84,1,,,,,,,,
,,,,,,,,,,,,,FF,,,,,,,,0.852,,,,,,,,,,,,,,,,,,,,,,60fe5a238ab86b516164f360,61036d2f19cdf417d42a8778,2021-07-29_20h11.10.879,Simcolourproject_2stim_asymm_v5,2020.2.10,MacIntel,60,61025ae37ef11b136ea224fe,,,,,,,,,3318,99,-54,1,0,0,response3disk,,5,23,-5,1,0,0,rectangle,23,-5,1,0,0,23,-5,1,0,0,0,74,74,114,1,,,,,,,,
,,,,,,,,,,,,,FF,,,,,,,,0.687,,,,,,,,,,,,,,,,,,,,,,60fe5a238ab86b516164f360,61036d2f19cdf417d42a8778,2021-07-29_20h11.10.879,Simcolourproject_2stim_asymm_v5,2020.2.10,MacIntel,60,61025ae37ef11b136ea224fe,,,,,,,,,1161,60,-43,1,0,0,response3disk,,5,-16,1,1,0,0,rectangle,-16,1,1,0,0,-16,1,1,0,0,0,75,75,132,1,,,,,,,,
,,,,,,,,,,,,,FF,,,,,,,,1.655,,,,,,,,,,,,,,,,,,,,,,60fe5a238ab86b516164f360,61036d2f19cdf417d42a8778,2021-07-29_20h11.10.879,Simcolourproject_2stim_asymm_v5,2020.2.10,MacIntel,60,61025ae37ef11b136ea224fe,,,,,,,,,3874,-75,-34,1,0,0,response5disk,,2,2,-8,1,0,0,rectangle,2,-8,1,0,0,2,-8,1,0,0,0,76,76,85,1,,,,,,,,
,,,,,,,,,,,,,FF,,,,,,,,1.504,,,,,,,,,,,,,,,,,,,,,,60fe5a238ab86b516164f360,61036d2f19cdf417d42a8778,2021-07-29_20h11.10.879,Simcolourproject_2stim_asymm_v5,2020.2.10,MacIntel,60,61025ae37ef11b136ea224fe,,,,,,,,,3448,23,-56,1,0,0,response3disk,,4,20,-6,1,0,0,rectangle,20,-6,1,0,0,20,-6,1,0,0,0,77,77,3,1,,,,,,,,
,,,,,,,,,,,,,FF,,,,,,,,0.953,,,,,,,,,,,,,,,,,,,,,,60fe5a238ab86b516164f360,61036d2f19cdf417d42a8778,2021-07-29_20h11.10.879,Simcolourproject_2stim_asymm_v5,2020.2.10,MacIntel,60,61025ae37ef11b136ea224fe,,,,,,,,,2157,41,70,1,0,0,response1disk,,7,5,7,1,0,0,rectangle,5,7,1,0,0,5,7,1,0,0,0,78,78,27,1,,,,,,,,
,,,,,,,,,,,,,FF,,,,,,,,1.153,,,,,,,,,,,,,,,,,,,,,,60fe5a238ab86b516164f360,61036d2f19cdf417d42a8778,2021-07-29_20h11.10.879,Simcolourproject_2stim_asymm_v5,2020.2.10,MacIntel,60,61025ae37ef11b136ea224fe,,,,,,,,,2916,57,32,1,0,0,response1disk,,6,5,7,1,0,0,rectangle,5,7,1,0,0,5,7,1,0,0,0,79,79,1,1,,,,,,,,
,,,,,,,,,,,,,FF,,,,,,,,0.585,,,,,,,,,,,,,,,,,,,,,,60fe5a238ab86b516164f360,61036d2f19cdf417d42a8778,2021-07-29_20h11.10.879,Simcolourproject_2stim_asymm_v5,2020.2.10,MacIntel,60,61025ae37ef11b136ea224fe,,,,,,,,,3468,-53,90,1,0,0,response7disk,,0,-23,15,1,0,0,rectangle,-23,15,1,0,0,-23,15,1,0,0,0,80,80,72,1,,,,,,,,
,,,,,,,,,,,,,FF,,,,,,,,0.936,,,,,,,,,,,,,,,,,,,,,,60fe5a238ab86b516164f360,61036d2f19cdf417d42a8778,2021-07-29_20h11.10.879,Simcolourproject_2stim_asymm_v5,2020.2.10,MacIntel,60,61025ae37ef11b136ea224fe,,,,,,,,,2196,44,-76,1,0,0,response3disk,,4,19,-9,1,0,0,rectangle,19,-9,1,0,0,19,-9,1,0,0,0,81,81,144,1,,,,,,,,
,,,,,,,,,,,,,FF,,,,,,,,0.986,,,,,,,,,,,,,,,,,,,,,,60fe5a238ab86b516164f360,61036d2f19cdf417d42a8778,2021-07-29_20h11.10.879,Simcolourproject_2stim_asymm_v5,2020.2.10,MacIntel,60,61025ae37ef11b136ea224fe,,,,,,,,,1267,-45,-46,1,0,0,response5disk,,3,-20,-6,1,0,0,rectangle,-20,-6,1,0,0,-20,-6,1,0,0,0,82,82,4,1,,,,,,,,
,,,,,,,,,,,,,FF,,,,,,,,0.919,,,,,,,,,,,,,,,,,,,,,,60fe5a238ab86b516164f360,61036d2f19cdf417d42a8778,2021-07-29_20h11.10.879,Simcolourproject_2stim_asymm_v5,2020.2.10,MacIntel,60,61025ae37ef11b136ea224fe,,,,,,,,,3671,-74,47,1,0,0,response7disk,,1,-14,9,1,0,0,rectangle,-14,9,1,0,0,-14,9,1,0,0,0,83,83,140,1,,,,,,,,
,,,,,,,,,,,,,FF,,,,,,,,0.869,,,,,,,,,,,,,,,,,,,,,,60fe5a238ab86b516164f360,61036d2f19cdf417d42a8778,2021-07-29_20h11.10.879,Simcolourproject_2stim_asymm_v5,2020.2.10,MacIntel,60,61025ae37ef11b136ea224fe,,,,,,,,,881,18,-81,1,0,0,response3disk,,4,2,12,1,0,0,rectangle,2,12,1,0,0,2,12,1,0,0,0,84,84,2,1,,,,,,,,
,,,,,,,,,,,,,FF,,,,,,,,0.885,,,,,,,,,,,,,,,,,,,,,,60fe5a238ab86b516164f360,61036d2f19cdf417d42a8778,2021-07-29_20h11.10.879,Simcolourproject_2stim_asymm_v5,2020.2.10,MacIntel,60,61025ae37ef11b136ea224fe,,,,,,,,,252,74,35,1,0,0,response1disk,,6,30,6,1,0,0,rectangle,30,6,1,0,0,30,6,1,0,0,0,85,85,47,1,,,,,,,,
,,,,,,,,,,,,,FF,,,,,,,,2.206,,,,,,,,,,,,,,,,,,,,,,60fe5a238ab86b516164f360,61036d2f19cdf417d42a8778,2021-07-29_20h11.10.879,Simcolourproject_2stim_asymm_v5,2020.2.10,MacIntel,60,61025ae37ef11b136ea224fe,,,,,,,,,710,-33,-62,1,0,0,response5disk,,3,6,9,1,0,0,rectangle,6,9,1,0,0,6,9,1,0,0,0,86,86,43,1,,,,,,,,
,,,,,,,,,,,,,FF,,,,,,,,1.019,,,,,,,,,,,,,,,,,,,,,,60fe5a238ab86b516164f360,61036d2f19cdf417d42a8778,2021-07-29_20h11.10.879,Simcolourproject_2stim_asymm_v5,2020.2.10,MacIntel,60,61025ae37ef11b136ea224fe,,,,,,,,,1278,26,-85,1,0,0,response3disk,,4,-3,6,1,0,0,rectangle,-36,78,1,0,0,-20,-3,1,0,0,0,87,87,11,1,,response7disk_3,TRUE,0,0,"[182,287,104,4,115,34,290,141,15,38,309,174,73,267,88,23,223,139,242,125]",1.42,rectangle
,,,,,,,,,,,,,FF,,,,,,,,0.852,,,,,,,,,,,,,,,,,,,,,,60fe5a238ab86b516164f360,61036d2f19cdf417d42a8778,2021-07-29_20h11.10.879,Simcolourproject_2stim_asymm_v5,2020.2.10,MacIntel,60,61025ae37ef11b136ea224fe,,,,,,,,,3191,-42,-67,1,0,0,response5disk,,3,-5,-8,1,0,0,rectangle,-5,-8,1,0,0,-5,-8,1,0,0,0,88,88,155,1,,,,,,,,
,,,,,,,,,,,,,FF,,,,,,,,0.769,,,,,,,,,,,,,,,,,,,,,,60fe5a238ab86b516164f360,61036d2f19cdf417d42a8778,2021-07-29_20h11.10.879,Simcolourproject_2stim_asymm_v5,2020.2.10,MacIntel,60,61025ae37ef11b136ea224fe,,,,,,,,,1116,105,-58,1,0,0,response3disk,,5,18,10,1,0,0,rectangle,18,10,1,0,0,18,10,1,0,0,0,89,89,60,1,,,,,,,,
,,,,,,,,,,,,,FF,,,,,,,,0.635,,,,,,,,,,,,,,,,,,,,,,60fe5a238ab86b516164f360,61036d2f19cdf417d42a8778,2021-07-29_20h11.10.879,Simcolourproject_2stim_asymm_v5,2020.2.10,MacIntel,60,61025ae37ef11b136ea224fe,,,,,,,,,847,78,23,1,0,0,response1disk,,6,6,2,1,0,0,rectangle,6,2,1,0,0,6,2,1,0,0,0,90,90,64,1,,,,,,,,
,,,,,,,,,,,,,FF,,,,,,,,1.571,,,,,,,,,,,,,,,,,,,,,,60fe5a238ab86b516164f360,61036d2f19cdf417d42a8778,2021-07-29_20h11.10.879,Simcolourproject_2stim_asymm_v5,2020.2.10,MacIntel,60,61025ae37ef11b136ea224fe,,,,,,,,,3496,-48,-69,1,0,0,response5disk,,3,-16,-1,1,0,0,rectangle,-16,-1,1,0,0,-16,-1,1,0,0,0,91,91,74,1,,,,,,,,
,,,,,,,,,,,,,FF,,,,,,,,0.936,,,,,,,,,,,,,,,,,,,,,,60fe5a238ab86b516164f360,61036d2f19cdf417d42a8778,2021-07-29_20h11.10.879,Simcolourproject_2stim_asymm_v5,2020.2.10,MacIntel,60,61025ae37ef11b136ea224fe,,,,,,,,,3765,76,-48,1,0,0,response3disk,,5,23,-7,1,0,0,rectangle,23,-7,1,0,0,23,-7,1,0,0,0,92,92,54,1,,,,,,,,
,,,,,,,,,,,,,FF,,,,,,,,0.635,,,,,,,,,,,,,,,,,,,,,,60fe5a238ab86b516164f360,61036d2f19cdf417d42a8778,2021-07-29_20h11.10.879,Simcolourproject_2stim_asymm_v5,2020.2.10,MacIntel,60,61025ae37ef11b136ea224fe,,,,,,,,,2673,65,-48,1,0,0,response3disk,,5,29,-1,1,0,0,rectangle,29,-1,1,0,0,29,-1,1,0,0,0,93,93,131,1,,,,,,,,
,,,,,,,,,,,,,FF,,,,,,,,1.103,,,,,,,,,,,,,,,,,,,,,,60fe5a238ab86b516164f360,61036d2f19cdf417d42a8778,2021-07-29_20h11.10.879,Simcolourproject_2stim_asymm_v5,2020.2.10,MacIntel,60,61025ae37ef11b136ea224fe,,,,,,,,,4081,41,63,1,0,0,response1disk,,7,3,6,1,0,0,rectangle,3,6,1,0,0,3,6,1,0,0,0,94,94,80,1,,,,,,,,
,,,,,,,,,,,,,FF,,,,,,,,0.585,,,,,,,,,,,,,,,,,,,,,,60fe5a238ab86b516164f360,61036d2f19cdf417d42a8778,2021-07-29_20h11.10.879,Simcolourproject_2stim_asymm_v5,2020.2.10,MacIntel,60,61025ae37ef11b136ea224fe,,,,,,,,,2831,-40,71,1,0,0,response7disk,,0,3,-11,1,0,0,rectangle,3,-11,1,0,0,3,-11,1,0,0,0,95,95,32,1,,,,,,,,
,,,,,,,,,,,,,FF,,,,,,,,0.752,,,,,,,,,,,,,,,,,,,,,,60fe5a238ab86b516164f360,61036d2f19cdf417d42a8778,2021-07-29_20h11.10.879,Simcolourproject_2stim_asymm_v5,2020.2.10,MacIntel,60,61025ae37ef11b136ea224fe,,,,,,,,,3821,-39,-55,1,0,0,response5disk,,3,-5,-15,1,0,0,rectangle,-5,-15,1,0,0,-5,-15,1,0,0,0,96,96,46,1,,,,,,,,
,,,,,,,,,,,,,FF,,,,,,,,0.685,,,,,,,,,,,,,,,,,,,,,,60fe5a238ab86b516164f360,61036d2f19cdf417d42a8778,2021-07-29_20h11.10.879,Simcolourproject_2stim_asymm_v5,2020.2.10,MacIntel,60,61025ae37ef11b136ea224fe,,,,,,,,,1647,40,79,1,0,0,response1disk,,7,-6,6,1,0,0,rectangle,-6,6,1,0,0,-6,6,1,0,0,0,97,97,22,1,,,,,,,,
,,,,,,,,,,,,,FF,,,,,,,,0.902,,,,,,,,,,,,,,,,,,,,,,60fe5a238ab86b516164f360,61036d2f19cdf417d42a8778,2021-07-29_20h11.10.879,Simcolourproject_2stim_asymm_v5,2020.2.10,MacIntel,60,61025ae37ef11b136ea224fe,,,,,,,,,2799,84,-37,1,0,0,response3disk,,5,27,5,1,0,0,rectangle,27,5,1,0,0,27,5,1,0,0,0,98,98,102,1,,,,,,,,
,,,,,,,,,,,,,FF,,,,,,,,2.573,,,,,,,,,,,,,,,,,,,,,,60fe5a238ab86b516164f360,61036d2f19cdf417d42a8778,2021-07-29_20h11.10.879,Simcolourproject_2stim_asymm_v5,2020.2.10,MacIntel,60,61025ae37ef11b136ea224fe,,,,,,,,,2784,-31,-69,1,0,0,response5disk,,3,-11,1,1,0,0,rectangle,-11,1,1,0,0,-11,1,1,0,0,0,99,99,78,1,,,,,,,,
,,,,,,,,,,,,,FF,,,,,,,,1.27,,,,,,,,,,,,,,,,,,,,,,60fe5a238ab86b516164f360,61036d2f19cdf417d42a8778,2021-07-29_20h11.10.879,Simcolourproject_2stim_asymm_v5,2020.2.10,MacIntel,60,61025ae37ef11b136ea224fe,,,,,,,,,1376,-30,-70,1,0,0,response5disk,,3,-7,11,1,0,0,rectangle,-7,11,1,0,0,-7,11,1,0,0,0,100,100,70,1,,,,,,,,
,,,,,,,,,,,,,FF,,,,,,,,1.069,,,,,,,,,,,,,,,,,,,,,,60fe5a238ab86b516164f360,61036d2f19cdf417d42a8778,2021-07-29_20h11.10.879,Simcolourproject_2stim_asymm_v5,2020.2.10,MacIntel,60,61025ae37ef11b136ea224fe,,,,,,,,,1268,77,35,1,0,0,response1disk,,6,25,4,1,0,0,rectangle,25,4,1,0,0,25,4,1,0,0,0,101,101,55,1,,,,,,,,
,,,,,,,,,,,,,FF,,,,,,,,0.852,,,,,,,,,,,,,,,,,,,,,,60fe5a238ab86b516164f360,61036d2f19cdf417d42a8778,2021-07-29_20h11.10.879,Simcolourproject_2stim_asymm_v5,2020.2.10,MacIntel,60,61025ae37ef11b136ea224fe,,,,,,,,,1413,25,-50,1,0,0,response3disk,,4,19,-12,1,0,0,rectangle,19,-12,1,0,0,19,-12,1,0,0,0,102,102,33,1,,,,,,,,
,,,,,,,,,,,,,FF,,,,,,,,1.421,,,,,,,,,,,,,,,,,,,,,,60fe5a238ab86b516164f360,61036d2f19cdf417d42a8778,2021-07-29_20h11.10.879,Simcolourproject_2stim_asymm_v5,2020.2.10,MacIntel,60,61025ae37ef11b136ea224fe,,,,,,,,,1286,-41,-71,1,0,0,response5disk,,3,-13,1,1,0,0,rectangle,-21,-71,1,0,0,3,11,1,0,0,0,103,103,118,1,,response5disk_3,TRUE,3,3,"[182,287,104,4,115,34,290,141,15,38,309,174,73,267,88,23,223,139,242,125]",1.421,rectangle
,,,,,,,,,,,,,FF,,,,,,,,0.936,,,,,,,,,,,,,,,,,,,,,,60fe5a238ab86b516164f360,61036d2f19cdf417d42a8778,2021-07-29_20h11.10.879,Simcolourproject_2stim_asymm_v5,2020.2.10,MacIntel,60,61025ae37ef11b136ea224fe,,,,,,,,,1779,62,41,1,0,0,response1disk,,6,4,0,1,0,0,rectangle,4,0,1,0,0,4,0,1,0,0,0,104,104,91,1,,,,,,,,
,,,,,,,,,,,,,FF,,,,,,,,1.137,,,,,,,,,,,,,,,,,,,,,,60fe5a238ab86b516164f360,61036d2f19cdf417d42a8778,2021-07-29_20h11.10.879,Simcolourproject_2stim_asymm_v5,2020.2.10,MacIntel,60,61025ae37ef11b136ea224fe,,,,,,,,,914,53,-21,1,0,0,response3disk,,5,11,3,1,0,0,rectangle,11,3,1,0,0,11,3,1,0,0,0,105,105,112,1,,,,,,,,
,,,,,,,,,,,,,FF,,,,,,,,0.952,,,,,,,,,,,,,,,,,,,,,,60fe5a238ab86b516164f360,61036d2f19cdf417d42a8778,2021-07-29_20h11.10.879,Simcolourproject_2stim_asymm_v5,2020.2.10,MacIntel,60,61025ae37ef11b136ea224fe,,,,,,,,,3549,69,32,1,0,0,response1disk,,6,18,-3,1,0,0,rectangle,18,-3,1,0,0,18,-3,1,0,0,0,106,106,44,1,,,,,,,,
,,,,,,,,,,,,,FF,,,,,,,,0.668,,,,,,,,,,,,,,,,,,,,,,60fe5a238ab86b516164f360,61036d2f19cdf417d42a8778,2021-07-29_20h11.10.879,Simcolourproject_2stim_asymm_v5,2020.2.10,MacIntel,60,61025ae37ef11b136ea224fe,,,,,,,,,1130,79,37,1,0,0,response1disk,,6,10,8,1,0,0,rectangle,10,8,1,0,0,10,8,1,0,0,0,107,107,82,1,,,,,,,,
,,,,,,,,,,,,,FF,,,,,,,,1.637,,,,,,,,,,,,,,,,,,,,,,60fe5a238ab86b516164f360,61036d2f19cdf417d42a8778,2021-07-29_20h11.10.879,Simcolourproject_2stim_asymm_v5,2020.2.10,MacIntel,60,61025ae37ef11b136ea224fe,,,,,,,,,692,63,-30,1,0,0,response3disk,,5,12,-1,1,0,0,rectangle,12,-1,1,0,0,12,-1,1,0,0,0,108,108,100,1,,,,,,,,
,,,,,,,,,,,,,FF,,,,,,,,1.07,,,,,,,,,,,,,,,,,,,,,,60fe5a238ab86b516164f360,61036d2f19cdf417d42a8778,2021-07-29_20h11.10.879,Simcolourproject_2stim_asymm_v5,2020.2.10,MacIntel,60,61025ae37ef11b136ea224fe,,,,,,,,,2728,-41,-70,1,0,0,response5disk,,3,1,-10,1,0,0,rectangle,1,-10,1,0,0,1,-10,1,0,0,0,109,109,89,1,,,,,,,,
,,,,,,,,,,,,,FF,,,,,,,,1.621,,,,,,,,,,,,,,,,,,,,,,60fe5a238ab86b516164f360,61036d2f19cdf417d42a8778,2021-07-29_20h11.10.879,Simcolourproject_2stim_asymm_v5,2020.2.10,MacIntel,60,61025ae37ef11b136ea224fe,,,,,,,,,1083,49,-69,1,0,0,response3disk,,4,17,-12,1,0,0,rectangle,17,-12,1,0,0,17,-12,1,0,0,0,110,110,135,1,,,,,,,,
,,,,,,,,,,,,,FF,,,,,,,,0.903,,,,,,,,,,,,,,,,,,,,,,60fe5a238ab86b516164f360,61036d2f19cdf417d42a8778,2021-07-29_20h11.10.879,Simcolourproject_2stim_asymm_v5,2020.2.10,MacIntel,60,61025ae37ef11b136ea224fe,,,,,,,,,3312,30,56,1,0,0,response1disk,,7,6,-3,1,0,0,rectangle,6,-3,1,0,0,6,-3,1,0,0,0,111,111,10,1,,,,,,,,
,,,,,,,,,,,,,FF,,,,,,,,0.734,,,,,,,,,,,,,,,,,,,,,,60fe5a238ab86b516164f360,61036d2f19cdf417d42a8778,2021-07-29_20h11.10.879,Simcolourproject_2stim_asymm_v5,2020.2.10,MacIntel,60,61025ae37ef11b136ea224fe,,,,,,,,,4136,26,67,1,0,0,response1disk,,7,-7,3,1,0,0,rectangle,-7,3,1,0,0,-7,3,1,0,0,0,112,112,133,1,,,,,,,,
,,,,,,,,,,,,,FF,,,,,,,,0.785,,,,,,,,,,,,,,,,,,,,,,60fe5a238ab86b516164f360,61036d2f19cdf417d42a8778,2021-07-29_20h11.10.879,Simcolourproject_2stim_asymm_v5,2020.2.10,MacIntel,60,61025ae37ef11b136ea224fe,,,,,,,,,763,56,36,1,0,0,response1disk,,6,10,4,1,0,0,rectangle,10,4,1,0,0,10,4,1,0,0,0,113,113,68,1,,,,,,,,
,,,,,,,,,,,,,FF,,,,,,,,0.768,,,,,,,,,,,,,,,,,,,,,,60fe5a238ab86b516164f360,61036d2f19cdf417d42a8778,2021-07-29_20h11.10.879,Simcolourproject_2stim_asymm_v5,2020.2.10,MacIntel,60,61025ae37ef11b136ea224fe,,,,,,,,,1169,48,74,1,0,0,response1disk,,7,8,6,1,0,0,rectangle,38,79,1,0,0,-18,-15,1,0,0,0,114,114,38,1,,response1disk_3,TRUE,7,7,"[182,287,104,4,115,34,290,141,15,38,309,174,73,267,88,23,223,139,242,125]",1.437,rectangle
,,,,,,,,,,,,,FF,,,,,,,,1.772,,,,,,,,,,,,,,,,,,,,,,60fe5a238ab86b516164f360,61036d2f19cdf417d42a8778,2021-07-29_20h11.10.879,Simcolourproject_2stim_asymm_v5,2020.2.10,MacIntel,60,61025ae37ef11b136ea224fe,,,,,,,,,3070,53,29,1,0,0,response1disk,,6,-5,13,1,0,0,rectangle,-5,13,1,0,0,-5,13,1,0,0,0,115,115,106,1,,,,,,,,
,,,,,,,,,,,,,FF,,,,,,,,1.187,,,,,,,,,,,,,,,,,,,,,,60fe5a238ab86b516164f360,61036d2f19cdf417d42a8778,2021-07-29_20h11.10.879,Simcolourproject_2stim_asymm_v5,2020.2.10,MacIntel,60,61025ae37ef11b136ea224fe,,,,,,,,,1660,31,-66,1,0,0,response3disk,,4,14,-3,1,0,0,rectangle,14,-3,1,0,0,14,-3,1,0,0,0,116,116,136,1,,,,,,,,
,,,,,,,,,,,,,FF,,,,,,,,1.035,,,,,,,,,,,,,,,,,,,,,,60fe5a238ab86b516164f360,61036d2f19cdf417d42a8778,2021-07-29_20h11.10.879,Simcolourproject_2stim_asymm_v5,2020.2.10,MacIntel,60,61025ae37ef11b136ea224fe,,,,,,,,,3688,63,-45,1,0,0,response3disk,,5,17,-13,1,0,0,rectangle,17,-13,1,0,0,17,-13,1,0,0,0,117,117,71,1,,,,,,,,
,,,,,,,,,,,,,FF,,,,,,,,1.053,,,,,,,,,,,,,,,,,,,,,,60fe5a238ab86b516164f360,61036d2f19cdf417d42a8778,2021-07-29_20h11.10.879,Simcolourproject_2stim_asymm_v5,2020.2.10,MacIntel,60,61025ae37ef11b136ea224fe,,,,,,,,,2166,-89,-31,1,0,0,response5disk,,2,-24,6,1,0,0,rectangle,-24,6,1,0,0,-24,6,1,0,0,0,118,118,16,1,,,,,,,,
,,,,,,,,,,,,,FF,,,,,,,,0.635,,,,,,,,,,,,,,,,,,,,,,60fe5a238ab86b516164f360,61036d2f19cdf417d42a8778,2021-07-29_20h11.10.879,Simcolourproject_2stim_asymm_v5,2020.2.10,MacIntel,60,61025ae37ef11b136ea224fe,,,,,,,,,534,46,81,1,0,0,response1disk,,7,-8,5,1,0,0,rectangle,-8,5,1,0,0,-8,5,1,0,0,0,119,119,56,1,,,,,,,,
,,,,,,,,,,,,,FF,,,,,,,,0.619,,,,,,,,,,,,,,,,,,,,,,60fe5a238ab86b516164f360,61036d2f19cdf417d42a8778,2021-07-29_20h11.10.879,Simcolourproject_2stim_asymm_v5,2020.2.10,MacIntel,60,61025ae37ef11b136ea224fe,,,,,,,,,4231,41,72,1,0,0,response1disk,,7,-5,-2,1,0,0,rectangle,-5,-2,1,0,0,-5,-2,1,0,0,0,120,120,101,1,,,,,,,,
,,,,,,,,,,,,,FF,,,,,,,,0.902,,,,,,,,,,,,,,,,,,,,,,60fe5a238ab86b516164f360,61036d2f19cdf417d42a8778,2021-07-29_20h11.10.879,Simcolourproject_2stim_asymm_v5,2020.2.10,MacIntel,60,61025ae37ef11b136ea224fe,,,,,,,,,3013,57,37,1,0,0,response1disk,,6,11,5,1,0,0,rectangle,11,5,1,0,0,11,5,1,0,0,0,121,121,142,1,,,,,,,,
,,,,,,,,,,,,,FF,,,,,,,,0.953,,,,,,,,,,,,,,,,,,,,,,60fe5a238ab86b516164f360,61036d2f19cdf417d42a8778,2021-07-29_20h11.10.879,Simcolourproject_2stim_asymm_v5,2020.2.10,MacIntel,60,61025ae37ef11b136ea224fe,,,,,,,,,2083,23,-57,1,0,0,response3disk,,4,-2,-18,1,0,0,rectangle,-2,-18,1,0,0,-2,-18,1,0,0,0,122,122,121,1,,,,,,,,
,,,,,,,,,,,,,FF,,,,,,,,1.506,,,,,,,,,,,,,,,,,,,,,,60fe5a238ab86b516164f360,61036d2f19cdf417d42a8778,2021-07-29_20h11.10.879,Simcolourproject_2stim_asymm_v5,2020.2.10,MacIntel,60,61025ae37ef11b136ea224fe,,,,,,,,,2943,-33,-50,1,0,0,response5disk,,3,3,-8,1,0,0,rectangle,3,-8,1,0,0,3,-8,1,0,0,0,123,123,23,1,,,,,,,,
,,,,,,,,,,,,,FF,,,,,,,,1.169,,,,,,,,,,,,,,,,,,,,,,60fe5a238ab86b516164f360,61036d2f19cdf417d42a8778,2021-07-29_20h11.10.879,Simcolourproject_2stim_asymm_v5,2020.2.10,MacIntel,60,61025ae37ef11b136ea224fe,,,,,,,,,915,30,-53,1,0,0,response3disk,,4,15,-14,1,0,0,rectangle,30,-93,1,0,0,12,-3,1,0,0,0,124,124,75,1,,response3disk_3,TRUE,4,4,"[182,287,104,4,115,34,290,141,15,38,309,174,73,267,88,23,223,139,242,125]",1.455,rectangle
,,,,,,,,,,,,,FF,,,,,,,,1.805,,,,,,,,,,,,,,,,,,,,,,60fe5a238ab86b516164f360,61036d2f19cdf417d42a8778,2021-07-29_20h11.10.879,Simcolourproject_2stim_asymm_v5,2020.2.10,MacIntel,60,61025ae37ef11b136ea224fe,,,,,,,,,2035,23,-65,1,0,0,response3disk,,4,9,-4,1,0,0,rectangle,9,-4,1,0,0,9,-4,1,0,0,0,125,125,116,1,,,,,,,,
,,,,,,,,,,,,,FF,,,,,,,,1.136,,,,,,,,,,,,,,,,,,,,,,60fe5a238ab86b516164f360,61036d2f19cdf417d42a8778,2021-07-29_20h11.10.879,Simcolourproject_2stim_asymm_v5,2020.2.10,MacIntel,60,61025ae37ef11b136ea224fe,,,,,,,,,2171,-89,-30,1,0,0,response5disk,,2,10,-2,1,0,0,rectangle,10,-2,1,0,0,10,-2,1,0,0,0,126,126,77,1,,,,,,,,
,,,,,,,,,,,,,FF,,,,,,,,1.254,,,,,,,,,,,,,,,,,,,,,,60fe5a238ab86b516164f360,61036d2f19cdf417d42a8778,2021-07-29_20h11.10.879,Simcolourproject_2stim_asymm_v5,2020.2.10,MacIntel,60,61025ae37ef11b136ea224fe,,,,,,,,,1429,-26,-50,1,0,0,response5disk,,3,-24,-14,1,0,0,rectangle,-24,-14,1,0,0,-24,-14,1,0,0,0,127,127,149,1,,,,,,,,
,,,,,,,,,,,,,FF,,,,,,,,1.007,,,,,,,,,,,,,,,,,,,,,,60fe5a238ab86b516164f360,61036d2f19cdf417d42a8778,2021-07-29_20h11.10.879,Simcolourproject_2stim_asymm_v5,2020.2.10,MacIntel,60,61025ae37ef11b136ea224fe,,,,,,,,,3599,-90,-46,1,0,0,response5disk,,2,-9,-13,1,0,0,rectangle,-9,-13,1,0,0,-9,-13,1,0,0,0,128,128,14,1,,,,,,,,
,,,,,,,,,,,,,FF,,,,,,,,0.618,,,,,,,,,,,,,,,,,,,,,,60fe5a238ab86b516164f360,61036d2f19cdf417d42a8778,2021-07-29_20h11.10.879,Simcolourproject_2stim_asymm_v5,2020.2.10,MacIntel,60,61025ae37ef11b136ea224fe,,,,,,,,,1713,46,101,1,0,0,response1disk,,7,0,7,1,0,0,rectangle,0,7,1,0,0,0,7,1,0,0,0,129,129,65,1,,,,,,,,
,,,,,,,,,,,,,FF,,,,,,,,0.548,,,,,,,,,,,,,,,,,,,,,,60fe5a238ab86b516164f360,61036d2f19cdf417d42a8778,2021-07-29_20h11.10.879,Simcolourproject_2stim_asymm_v5,2020.2.10,MacIntel,60,61025ae37ef11b136ea224fe,,,,,,,,,876,45,59,1,0,0,response1disk,,7,5,9,1,0,0,rectangle,5,9,1,0,0,5,9,1,0,0,0,130,130,123,1,,,,,,,,
,,,,,,,,,,,,,FF,,,,,,,,0.652,,,,,,,,,,,,,,,,,,,,,,60fe5a238ab86b516164f360,61036d2f19cdf417d42a8778,2021-07-29_20h11.10.879,Simcolourproject_2stim_asymm_v5,2020.2.10,MacIntel,60,61025ae37ef11b136ea224fe,,,,,,,,,2192,77,31,1,0,0,response1disk,,6,-2,-15,1,0,0,rectangle,-2,-15,1,0,0,-2,-15,1,0,0,0,131,131,6,1,,,,,,,,
,,,,,,,,,,,,,FF,,,,,,,,0.969,,,,,,,,,,,,,,,,,,,,,,60fe5a238ab86b516164f360,61036d2f19cdf417d42a8778,2021-07-29_20h11.10.879,Simcolourproject_2stim_asymm_v5,2020.2.10,MacIntel,60,61025ae37ef11b136ea224fe,,,,,,,,,1710,55,-27,1,0,0,response3disk,,5,20,-7,1,0,0,rectangle,20,-7,1,0,0,20,-7,1,0,0,0,132,132,128,1,,,,,,,,
,,,,,,,,,,,,,FF,,,,,,,,1.37,,,,,,,,,,,,,,,,,,,,,,60fe5a238ab86b516164f360,61036d2f19cdf417d42a8778,2021-07-29_20h11.10.879,Simcolourproject_2stim_asymm_v5,2020.2.10,MacIntel,60,61025ae37ef11b136ea224fe,,,,,,,,,3213,26,-63,1,0,0,response3disk,,4,-10,10,1,0,0,rectangle,-10,10,1,0,0,-10,10,1,0,0,0,133,133,130,1,,,,,,,,
,,,,,,,,,,,,,FF,,,,,,,,0.667,,,,,,,,,,,,,,,,,,,,,,60fe5a238ab86b516164f360,61036d2f19cdf417d42a8778,2021-07-29_20h11.10.879,Simcolourproject_2stim_asymm_v5,2020.2.10,MacIntel,60,61025ae37ef11b136ea224fe,,,,,,,,,470,55,57,1,0,0,response1disk,,7,9,6,1,0,0,rectangle,9,6,1,0,0,9,6,1,0,0,0,134,134,42,1,,,,,,,,
,,,,,,,,,,,,,FF,,,,,,,,0.986,,,,,,,,,,,,,,,,,,,,,,60fe5a238ab86b516164f360,61036d2f19cdf417d42a8778,2021-07-29_20h11.10.879,Simcolourproject_2stim_asymm_v5,2020.2.10,MacIntel,60,61025ae37ef11b136ea224fe,,,,,,,,,3210,-40,-57,1,0,0,response5disk,,3,-28,-17,1,0,0,rectangle,-28,-17,1,0,0,-28,-17,1,0,0,0,135,135,95,1,,,,,,,,
,,,,,,,,,,,,,FF,,,,,,,,0.819,,,,,,,,,,,,,,,,,,,,,,60fe5a238ab86b516164f360,61036d2f19cdf417d42a8778,2021-07-29_20h11.10.879,Simcolourproject_2stim_asymm_v5,2020.2.10,MacIntel,60,61025ae37ef11b136ea224fe,,,,,,,,,1547,-63,-50,1,0,0,response5disk,,2,-13,-7,1,0,0,rectangle,-13,-7,1,0,0,-13,-7,1,0,0,0,136,136,31,1,,,,,,,,
,,,,,,,,,,,,,FF,,,,,,,,0.818,,,,,,,,,,,,,,,,,,,,,,60fe5a238ab86b516164f360,61036d2f19cdf417d42a8778,2021-07-29_20h11.10.879,Simcolourproject_2stim_asymm_v5,2020.2.10,MacIntel,60,61025ae37ef11b136ea224fe,,,,,,,,,3292,32,-74,1,0,0,response3disk,,4,20,-13,1,0,0,rectangle,20,-13,1,0,0,20,-13,1,0,0,0,137,137,29,1,,,,,,,,
,,,,,,,,,,,,,FF,,,,,,,,0.618,,,,,,,,,,,,,,,,,,,,,,60fe5a238ab86b516164f360,61036d2f19cdf417d42a8778,2021-07-29_20h11.10.879,Simcolourproject_2stim_asymm_v5,2020.2.10,MacIntel,60,61025ae37ef11b136ea224fe,,,,,,,,,1873,35,-55,1,0,0,response3disk,,4,15,0,1,0,0,rectangle,27,-74,1,0,0,2,13,1,0,0,0,138,138,94,1,,response3disk_3,TRUE,4,4,"[182,287,104,4,115,34,290,141,15,38,309,174,73,267,88,23,223,139,242,125]",1.136,rectangle
,,,,,,,,,,,,,FF,,,,,,,,1.738,,,,,,,,,,,,,,,,,,,,,,60fe5a238ab86b516164f360,61036d2f19cdf417d42a8778,2021-07-29_20h11.10.879,Simcolourproject_2stim_asymm_v5,2020.2.10,MacIntel,60,61025ae37ef11b136ea224fe,,,,,,,,,1551,72,-28,1,0,0,response3disk,,5,20,-7,1,0,0,rectangle,20,-7,1,0,0,20,-7,1,0,0,0,139,139,45,1,,,,,,,,
,,,,,,,,,,,,,FF,,,,,,,,0.668,,,,,,,,,,,,,,,,,,,,,,60fe5a238ab86b516164f360,61036d2f19cdf417d42a8778,2021-07-29_20h11.10.879,Simcolourproject_2stim_asymm_v5,2020.2.10,MacIntel,60,61025ae37ef11b136ea224fe,,,,,,,,,4350,-47,62,1,0,0,response7disk,,0,-11,-7,1,0,0,rectangle,-73,-47,1,0,0,-16,-8,1,0,0,0,140,140,105,1,,response5disk_3,TRUE,2,2,"[182,287,104,4,115,34,290,141,15,38,309,174,73,267,88,23,223,139,242,125]",4.228,rectangle
,,,,,,,,,,,,,FF,,,,,,,,1.535,,,,,,,,,,,,,,,,,,,,,,60fe5a238ab86b516164f360,61036d2f19cdf417d42a8778,2021-07-29_20h11.10.879,Simcolourproject_2stim_asymm_v5,2020.2.10,MacIntel,60,61025ae37ef11b136ea224fe,,,,,,,,,883,-26,-82,1,0,0,response5disk,,3,3,9,1,0,0,rectangle,3,9,1,0,0,3,9,1,0,0,0,141,141,137,1,,,,,,,,
,,,,,,,,,,,,,FF,,,,,,,,1.019,,,,,,,,,,,,,,,,,,,,,,60fe5a238ab86b516164f360,61036d2f19cdf417d42a8778,2021-07-29_20h11.10.879,Simcolourproject_2stim_asymm_v5,2020.2.10,MacIntel,60,61025ae37ef11b136ea224fe,,,,,,,,,596,61,-36,1,0,0,response3disk,,5,22,-2,1,0,0,rectangle,22,-2,1,0,0,22,-2,1,0,0,0,142,142,152,1,,,,,,,,
,,,,,,,,,,,,,FF,,,,,,,,0.986,,,,,,,,,,,,,,,,,,,,,,60fe5a238ab86b516164f360,61036d2f19cdf417d42a8778,2021-07-29_20h11.10.879,Simcolourproject_2stim_asymm_v5,2020.2.10,MacIntel,60,61025ae37ef11b136ea224fe,,,,,,,,,3345,44,58,1,0,0,response1disk,,7,12,-9,1,0,0,rectangle,12,-9,1,0,0,12,-9,1,0,0,0,143,143,67,1,,,,,,,,
,,,,,,,,,,,,,FF,,,,,,,,0.718,,,,,,,,,,,,,,,,,,,,,,60fe5a238ab86b516164f360,61036d2f19cdf417d42a8778,2021-07-29_20h11.10.879,Simcolourproject_2stim_asymm_v5,2020.2.10,MacIntel,60,61025ae37ef11b136ea224fe,,,,,,,,,2050,93,-63,1,0,0,response3disk,,5,15,0,1,0,0,rectangle,15,0,1,0,0,15,0,1,0,0,0,144,144,141,1,,,,,,,,
,,,,,,,,,,,,,FF,,,,,,,,0.936,,,,,,,,,,,,,,,,,,,,,,60fe5a238ab86b516164f360,61036d2f19cdf417d42a8778,2021-07-29_20h11.10.879,Simcolourproject_2stim_asymm_v5,2020.2.10,MacIntel,60,61025ae37ef11b136ea224fe,,,,,,,,,289,38,-56,1,0,0,response3disk,,4,15,-12,1,0,0,rectangle,15,-12,1,0,0,15,-12,1,0,0,0,145,145,58,1,,,,,,,,
,,,,,,,,,,,,,FF,,,,,,,,1.003,,,,,,,,,,,,,,,,,,,,,,60fe5a238ab86b516164f360,61036d2f19cdf417d42a8778,2021-07-29_20h11.10.879,Simcolourproject_2stim_asymm_v5,2020.2.10,MacIntel,60,61025ae37ef11b136ea224fe,,,,,,,,,1053,66,-39,1,0,0,response3disk,,5,13,-1,1,0,0,rectangle,13,-1,1,0,0,13,-1,1,0,0,0,146,146,51,1,,,,,,,,
,,,,,,,,,,,,,FF,,,,,,,,1.186,,,,,,,,,,,,,,,,,,,,,,60fe5a238ab86b516164f360,61036d2f19cdf417d42a8778,2021-07-29_20h11.10.879,Simcolourproject_2stim_asymm_v5,2020.2.10,MacIntel,60,61025ae37ef11b136ea224fe,,,,,,,,,1158,-43,-76,1,0,0,response5disk,,3,-19,-3,1,0,0,rectangle,-19,-3,1,0,0,-19,-3,1,0,0,0,147,147,158,1,,,,,,,,
,,,,,,,,,,,,,FF,,,,,,,,0.835,,,,,,,,,,,,,,,,,,,,,,60fe5a238ab86b516164f360,61036d2f19cdf417d42a8778,2021-07-29_20h11.10.879,Simcolourproject_2stim_asymm_v5,2020.2.10,MacIntel,60,61025ae37ef11b136ea224fe,,,,,,,,,1953,-23,-112,1,0,0,response5disk,,3,-7,-9,1,0,0,rectangle,-7,-9,1,0,0,-7,-9,1,0,0,0,148,148,37,1,,,,,,,,
,,,,,,,,,,,,,FF,,,,,,,,1.454,,,,,,,,,,,,,,,,,,,,,,60fe5a238ab86b516164f360,61036d2f19cdf417d42a8778,2021-07-29_20h11.10.879,Simcolourproject_2stim_asymm_v5,2020.2.10,MacIntel,60,61025ae37ef11b136ea224fe,,,,,,,,,2942,61,-45,1,0,0,response3disk,,5,21,-6,1,0,0,rectangle,21,-6,1,0,0,21,-6,1,0,0,0,149,149,25,1,,,,,,,,
,,,,,,,,,,,,,FF,,,,,,,,0.902,,,,,,,,,,,,,,,,,,,,,,60fe5a238ab86b516164f360,61036d2f19cdf417d42a8778,2021-07-29_20h11.10.879,Simcolourproject_2stim_asymm_v5,2020.2.10,MacIntel,60,61025ae37ef11b136ea224fe,,,,,,,,,1009,20,-39,1,0,0,response3disk,,4,19,-10,1,0,0,rectangle,19,-10,1,0,0,19,-10,1,0,0,0,150,150,120,1,,,,,,,,
,,,,,,,,,,,,,FF,,,,,,,,1.171,,,,,,,,,,,,,,,,,,,,,,60fe5a238ab86b516164f360,61036d2f19cdf417d42a8778,2021-07-29_20h11.10.879,Simcolourproject_2stim_asymm_v5,2020.2.10,MacIntel,60,61025ae37ef11b136ea224fe,,,,,,,,,2034,-43,-87,1,0,0,response5disk,,3,6,-4,1,0,0,rectangle,6,-4,1,0,0,6,-4,1,0,0,0,151,151,127,1,,,,,,,,
,,,,,,,,,,,,,FF,,,,,,,,1.053,,,,,,,,,,,,,,,,,,,,,,60fe5a238ab86b516164f360,61036d2f19cdf417d42a8778,2021-07-29_20h11.10.879,Simcolourproject_2stim_asymm_v5,2020.2.10,MacIntel,60,61025ae37ef11b136ea224fe,,,,,,,,,1155,-41,-59,1,0,0,response5disk,,3,-4,8,1,0,0,rectangle,-4,8,1,0,0,-4,8,1,0,0,0,152,152,90,1,,,,,,,,
,,,,,,,,,,,,,FF,,,,,,,,0.986,,,,,,,,,,,,,,,,,,,,,,60fe5a238ab86b516164f360,61036d2f19cdf417d42a8778,2021-07-29_20h11.10.879,Simcolourproject_2stim_asymm_v5,2020.2.10,MacIntel,60,61025ae37ef11b136ea224fe,,,,,,,,,3156,-28,-66,1,0,0,response5disk,,3,-20,-16,1,0,0,rectangle,-20,-16,1,0,0,-20,-16,1,0,0,0,153,153,97,1,,,,,,,,
,,,,,,,,,,,,,FF,,,,,,,,0.802,,,,,,,,,,,,,,,,,,,,,,60fe5a238ab86b516164f360,61036d2f19cdf417d42a8778,2021-07-29_20h11.10.879,Simcolourproject_2stim_asymm_v5,2020.2.10,MacIntel,60,61025ae37ef11b136ea224fe,,,,,,,,,3922,-76,-35,1,0,0,response5disk,,2,-3,11,1,0,0,rectangle,-3,11,1,0,0,-3,11,1,0,0,0,154,154,134,1,,,,,,,,
,,,,,,,,,,,,,FF,,,,,,,,4.963,,,,,,,,,,,,,,,,,,,,,,60fe5a238ab86b516164f360,61036d2f19cdf417d42a8778,2021-07-29_20h11.10.879,Simcolourproject_2stim_asymm_v5,2020.2.10,MacIntel,60,61025ae37ef11b136ea224fe,,,,,,,,,2060,-38,-47,1,0,0,response5disk,,3,-9,1,1,0,0,rectangle,-9,1,1,0,0,-9,1,1,0,0,0,155,155,93,1,,,,,,,,
,,,,,,,,,,,,,FF,,,,,,,,1.035,,,,,,,,,,,,,,,,,,,,,,60fe5a238ab86b516164f360,61036d2f19cdf417d42a8778,2021-07-29_20h11.10.879,Simcolourproject_2stim_asymm_v5,2020.2.10,MacIntel,60,61025ae37ef11b136ea224fe,,,,,,,,,4084,-21,-51,1,0,0,response5disk,,3,-10,-5,1,0,0,rectangle,-10,-5,1,0,0,-10,-5,1,0,0,0,156,156,154,1,,,,,,,,
,,,,,,,,,,,,,FF,,,,,,,,2.005,,,,,,,,,,,,,,,,,,,,,,60fe5a238ab86b516164f360,61036d2f19cdf417d42a8778,2021-07-29_20h11.10.879,Simcolourproject_2stim_asymm_v5,2020.2.10,MacIntel,60,61025ae37ef11b136ea224fe,,,,,,,,,1810,-56,-33,1,0,0,response5disk,,2,-1,7,1,0,0,rectangle,-1,7,1,0,0,-1,7,1,0,0,0,157,157,18,1,,,,,,,,
,,,,,,,,,,,,,FF,,,,,,,,1.22,,,,,,,,,,,,,,,,,,,,,,60fe5a238ab86b516164f360,61036d2f19cdf417d42a8778,2021-07-29_20h11.10.879,Simcolourproject_2stim_asymm_v5,2020.2.10,MacIntel,60,61025ae37ef11b136ea224fe,,,,,,,,,1266,43,-77,1,0,0,response3disk,,4,14,-7,1,0,0,rectangle,14,-7,1,0,0,14,-7,1,0,0,0,158,158,52,1,,,,,,,,
,,,,,,,,,,,,,FF,,,,,,,,0.635,,,,,,,,,,,,,,,,,,,,,,60fe5a238ab86b516164f360,61036d2f19cdf417d42a8778,2021-07-29_20h11.10.879,Simcolourproject_2stim_asymm_v5,2020.2.10,MacIntel,60,61025ae37ef11b136ea224fe,,,,,,,,,4312,87,-41,1,0,0,response3disk,,5,17,-12,1,0,0,rectangle,17,-12,1,0,0,17,-12,1,0,0,0,159,159,103,1,,,,,,,,
,,,,,,,,,,,,,FF,,,,,,,,0.801,,,,,,,,,,,,,,,,,,,,,,60fe5a238ab86b516164f360,61036d2f19cdf417d42a8778,2021-07-29_20h11.10.879,Simcolourproject_2stim_asymm_v5,2020.2.10,MacIntel,60,61025ae37ef11b136ea224fe,,,,,,,,,865,-29,-68,1,0,0,response5disk,,3,-2,-4,1,0,0,rectangle,-2,-4,1,0,0,-2,-4,1,0,0,1,0,160,48,1,,,,,,,,
,,,,,,,,,,,,,FF,,,,,,,,0.869,,,,,,,,,,,,,,,,,,,,,,60fe5a238ab86b516164f360,61036d2f19cdf417d42a8778,2021-07-29_20h11.10.879,Simcolourproject_2stim_asymm_v5,2020.2.10,MacIntel,60,61025ae37ef11b136ea224fe,,,,,,,,,3360,39,57,1,0,0,response1disk,,7,-4,-8,1,0,0,rectangle,-4,-8,1,0,0,-4,-8,1,0,0,1,1,161,98,1,,,,,,,,
,,,,,,,,,,,,,FF,,,,,,,,1.036,,,,,,,,,,,,,,,,,,,,,,60fe5a238ab86b516164f360,61036d2f19cdf417d42a8778,2021-07-29_20h11.10.879,Simcolourproject_2stim_asymm_v5,2020.2.10,MacIntel,60,61025ae37ef11b136ea224fe,,,,,,,,,1616,-32,-45,1,0,0,response5disk,,3,-30,-8,1,0,0,rectangle,-30,-8,1,0,0,-30,-8,1,0,0,1,2,162,1,1,,,,,,,,
,,,,,,,,,,,,,FF,,,,,,,,0.869,,,,,,,,,,,,,,,,,,,,,,60fe5a238ab86b516164f360,61036d2f19cdf417d42a8778,2021-07-29_20h11.10.879,Simcolourproject_2stim_asymm_v5,2020.2.10,MacIntel,60,61025ae37ef11b136ea224fe,,,,,,,,,4273,-50,-28,1,0,0,response5disk,,2,-9,0,1,0,0,rectangle,-9,0,1,0,0,-9,0,1,0,0,1,3,163,145,1,,,,,,,,
,,,,,,,,,,,,,FF,,,,,,,,0.836,,,,,,,,,,,,,,,,,,,,,,60fe5a238ab86b516164f360,61036d2f19cdf417d42a8778,2021-07-29_20h11.10.879,Simcolourproject_2stim_asymm_v5,2020.2.10,MacIntel,60,61025ae37ef11b136ea224fe,,,,,,,,,3186,54,67,1,0,0,response1disk,,7,5,4,1,0,0,rectangle,5,4,1,0,0,5,4,1,0,0,1,4,164,134,1,,,,,,,,
,,,,,,,,,,,,,FF,,,,,,,,0.801,,,,,,,,,,,,,,,,,,,,,,60fe5a238ab86b516164f360,61036d2f19cdf417d42a8778,2021-07-29_20h11.10.879,Simcolourproject_2stim_asymm_v5,2020.2.10,MacIntel,60,61025ae37ef11b136ea224fe,,,,,,,,,2191,58,28,1,0,0,response1disk,,6,7,17,1,0,0,rectangle,7,17,1,0,0,7,17,1,0,0,1,5,165,139,1,,,,,,,,
,,,,,,,,,,,,,FF,,,,,,,,1.204,,,,,,,,,,,,,,,,,,,,,,60fe5a238ab86b516164f360,61036d2f19cdf417d42a8778,2021-07-29_20h11.10.879,Simcolourproject_2stim_asymm_v5,2020.2.10,MacIntel,60,61025ae37ef11b136ea224fe,,,,,,,,,1690,65,-30,1,0,0,response3disk,,5,32,-13,1,0,0,rectangle,32,-13,1,0,0,32,-13,1,0,0,1,6,166,157,1,,,,,,,,
,,,,,,,,,,,,,FF,,,,,,,,1.253,,,,,,,,,,,,,,,,,,,,,,60fe5a238ab86b516164f360,61036d2f19cdf417d42a8778,2021-07-29_20h11.10.879,Simcolourproject_2stim_asymm_v5,2020.2.10,MacIntel,60,61025ae37ef11b136ea224fe,,,,,,,,,2243,27,-52,1,0,0,response3disk,,4,23,-18,1,0,0,rectangle,23,-18,1,0,0,23,-18,1,0,0,1,7,167,15,1,,,,,,,,
,,,,,,,,,,,,,FF,,,,,,,,1.27,,,,,,,,,,,,,,,,,,,,,,60fe5a238ab86b516164f360,61036d2f19cdf417d42a8778,2021-07-29_20h11.10.879,Simcolourproject_2stim_asymm_v5,2020.2.10,MacIntel,60,61025ae37ef11b136ea224fe,,,,,,,,,2932,-33,-45,1,0,0,response5disk,,3,-13,-11,1,0,0,rectangle,-13,-11,1,0,0,-13,-11,1,0,0,1,8,168,115,1,,,,,,,,
,,,,,,,,,,,,,FF,,,,,,,,0.634,,,,,,,,,,,,,,,,,,,,,,60fe5a238ab86b516164f360,61036d2f19cdf417d42a8778,2021-07-29_20h11.10.879,Simcolourproject_2stim_asymm_v5,2020.2.10,MacIntel,60,61025ae37ef11b136ea224fe,,,,,,,,,2672,38,-50,1,0,0,response3disk,,4,9,-5,1,0,0,rectangle,9,-5,1,0,0,9,-5,1,0,0,1,9,169,36,1,,,,,,,,
,,,,,,,,,,,,,FF,,,,,,,,0.718,,,,,,,,,,,,,,,,,,,,,,60fe5a238ab86b516164f360,61036d2f19cdf417d42a8778,2021-07-29_20h11.10.879,Simcolourproject_2stim_asymm_v5,2020.2.10,MacIntel,60,61025ae37ef11b136ea224fe,,,,,,,,,345,34,-66,1,0,0,response3disk,,4,14,-3,1,0,0,rectangle,14,-3,1,0,0,14,-3,1,0,0,1,10,170,0,1,,,,,,,,
,,,,,,,,,,,,,FF,,,,,,,,3.492,,,,,,,,,,,,,,,,,,,,,,60fe5a238ab86b516164f360,61036d2f19cdf417d42a8778,2021-07-29_20h11.10.879,Simcolourproject_2stim_asymm_v5,2020.2.10,MacIntel,60,61025ae37ef11b136ea224fe,,,,,,,,,1826,-32,-79,1,0,0,response5disk,,3,-10,-6,1,0,0,rectangle,-10,-6,1,0,0,-10,-6,1,0,0,1,11,171,30,1,,,,,,,,
,,,,,,,,,,,,,FF,,,,,,,,0.919,,,,,,,,,,,,,,,,,,,,,,60fe5a238ab86b516164f360,61036d2f19cdf417d42a8778,2021-07-29_20h11.10.879,Simcolourproject_2stim_asymm_v5,2020.2.10,MacIntel,60,61025ae37ef11b136ea224fe,,,,,,,,,3750,-59,-24,1,0,0,response5disk,,2,7,-1,1,0,0,rectangle,7,-1,1,0,0,7,-1,1,0,0,1,12,172,99,1,,,,,,,,
,,,,,,,,,,,,,FF,,,,,,,,0.585,,,,,,,,,,,,,,,,,,,,,,60fe5a238ab86b516164f360,61036d2f19cdf417d42a8778,2021-07-29_20h11.10.879,Simcolourproject_2stim_asymm_v5,2020.2.10,MacIntel,60,61025ae37ef11b136ea224fe,,,,,,,,,2441,28,-83,1,0,0,response3disk,,4,24,-9,1,0,0,rectangle,75,-49,1,0,0,8,-4,1,0,0,1,13,173,14,1,,response3disk_3,TRUE,5,5,"[182,287,104,4,115,34,290,141,15,38,309,174,73,267,88,23,223,139,242,125]",1.471,rectangle
,,,,,,,,,,,,,FF,,,,,,,,0.819,,,,,,,,,,,,,,,,,,,,,,60fe5a238ab86b516164f360,61036d2f19cdf417d42a8778,2021-07-29_20h11.10.879,Simcolourproject_2stim_asymm_v5,2020.2.10,MacIntel,60,61025ae37ef11b136ea224fe,,,,,,,,,3587,-29,-81,1,0,0,response5disk,,3,1,-3,1,0,0,rectangle,1,-3,1,0,0,1,-3,1,0,0,1,14,174,144,1,,,,,,,,
,,,,,,,,,,,,,FF,,,,,,,,1.188,,,,,,,,,,,,,,,,,,,,,,60fe5a238ab86b516164f360,61036d2f19cdf417d42a8778,2021-07-29_20h11.10.879,Simcolourproject_2stim_asymm_v5,2020.2.10,MacIntel,60,61025ae37ef11b136ea224fe,,,,,,,,,386,63,50,1,0,0,response1disk,,6,3,0,1,0,0,rectangle,3,0,1,0,0,3,0,1,0,0,1,15,175,12,1,,,,,,,,
,,,,,,,,,,,,,FF,,,,,,,,0.634,,,,,,,,,,,,,,,,,,,,,,60fe5a238ab86b516164f360,61036d2f19cdf417d42a8778,2021-07-29_20h11.10.879,Simcolourproject_2stim_asymm_v5,2020.2.10,MacIntel,60,61025ae37ef11b136ea224fe,,,,,,,,,1094,51,55,1,0,0,response1disk,,7,14,-4,1,0,0,rectangle,14,-4,1,0,0,14,-4,1,0,0,1,16,176,152,1,,,,,,,,
,,,,,,,,,,,,,FF,,,,,,,,0.718,,,,,,,,,,,,,,,,,,,,,,60fe5a238ab86b516164f360,61036d2f19cdf417d42a8778,2021-07-29_20h11.10.879,Simcolourproject_2stim_asymm_v5,2020.2.10,MacIntel,60,61025ae37ef11b136ea224fe,,,,,,,,,1659,42,-61,1,0,0,response3disk,,4,8,-8,1,0,0,rectangle,8,-8,1,0,0,8,-8,1,0,0,1,17,177,6,1,,,,,,,,
,,,,,,,,,,,,,FF,,,,,,,,1.253,,,,,,,,,,,,,,,,,,,,,,60fe5a238ab86b516164f360,61036d2f19cdf417d42a8778,2021-07-29_20h11.10.879,Simcolourproject_2stim_asymm_v5,2020.2.10,MacIntel,60,61025ae37ef11b136ea224fe,,,,,,,,,4017,32,-88,1,0,0,response3disk,,4,6,-9,1,0,0,rectangle,6,-9,1,0,0,6,-9,1,0,0,1,18,178,64,1,,,,,,,,
,,,,,,,,,,,,,FF,,,,,,,,1.169,,,,,,,,,,,,,,,,,,,,,,60fe5a238ab86b516164f360,61036d2f19cdf417d42a8778,2021-07-29_20h11.10.879,Simcolourproject_2stim_asymm_v5,2020.2.10,MacIntel,60,61025ae37ef11b136ea224fe,,,,,,,,,2930,61,-31,1,0,0,response3disk,,5,7,-6,1,0,0,rectangle,7,-6,1,0,0,7,-6,1,0,0,1,19,179,81,1,,,,,,,,
,,,,,,,,,,,,,FF,,,,,,,,0.802,,,,,,,,,,,,,,,,,,,,,,60fe5a238ab86b516164f360,61036d2f19cdf417d42a8778,2021-07-29_20h11.10.879,Simcolourproject_2stim_asymm_v5,2020.2.10,MacIntel,60,61025ae37ef11b136ea224fe,,,,,,,,,1811,-69,-51,1,0,0,response5disk,,2,-11,-8,1,0,0,rectangle,-11,-8,1,0,0,-11,-8,1,0,0,1,20,180,26,1,,,,,,,,
,,,,,,,,,,,,,FF,,,,,,,,0.902,,,,,,,,,,,,,,,,,,,,,,60fe5a238ab86b516164f360,61036d2f19cdf417d42a8778,2021-07-29_20h11.10.879,Simcolourproject_2stim_asymm_v5,2020.2.10,MacIntel,60,61025ae37ef11b136ea224fe,,,,,,,,,3672,-70,29,1,0,0,response7disk,,1,-15,5,1,0,0,rectangle,-57,-46,1,0,0,7,2,1,0,0,1,21,181,131,1,,response5disk_3,TRUE,2,2,"[182,287,104,4,115,34,290,141,15,38,309,174,73,267,88,23,223,139,242,125]",1.704,rectangle
,,,,,,,,,,,,,FF,,,,,,,,1.086,,,,,,,,,,,,,,,,,,,,,,60fe5a238ab86b516164f360,61036d2f19cdf417d42a8778,2021-07-29_20h11.10.879,Simcolourproject_2stim_asymm_v5,2020.2.10,MacIntel,60,61025ae37ef11b136ea224fe,,,,,,,,,1137,-92,17,1,0,0,response7disk,,1,6,-9,1,0,0,rectangle,6,-9,1,0,0,6,-9,1,0,0,1,22,182,84,1,,,,,,,,
,,,,,,,,,,,,,FF,,,,,,,,0.936,,,,,,,,,,,,,,,,,,,,,,60fe5a238ab86b516164f360,61036d2f19cdf417d42a8778,2021-07-29_20h11.10.879,Simcolourproject_2stim_asymm_v5,2020.2.10,MacIntel,60,61025ae37ef11b136ea224fe,,,,,,,,,4106,-79,-26,1,0,0,response5disk,,2,-21,-16,1,0,0,rectangle,-21,-16,1,0,0,-21,-16,1,0,0,1,23,183,138,1,,,,,,,,
,,,,,,,,,,,,,FF,,,,,,,,0.919,,,,,,,,,,,,,,,,,,,,,,60fe5a238ab86b516164f360,61036d2f19cdf417d42a8778,2021-07-29_20h11.10.879,Simcolourproject_2stim_asymm_v5,2020.2.10,MacIntel,60,61025ae37ef11b136ea224fe,,,,,,,,,3102,-30,-59,1,0,0,response5disk,,3,-7,-8,1,0,0,rectangle,-7,-8,1,0,0,-7,-8,1,0,0,1,24,184,72,1,,,,,,,,
,,,,,,,,,,,,,FF,,,,,,,,0.869,,,,,,,,,,,,,,,,,,,,,,60fe5a238ab86b516164f360,61036d2f19cdf417d42a8778,2021-07-29_20h11.10.879,Simcolourproject_2stim_asymm_v5,2020.2.10,MacIntel,60,61025ae37ef11b136ea224fe,,,,,,,,,2636,65,-30,1,0,0,response3disk,,5,8,-13,1,0,0,rectangle,8,-13,1,0,0,8,-13,1,0,0,1,25,185,68,1,,,,,,,,
,,,,,,,,,,,,,FF,,,,,,,,1.103,,,,,,,,,,,,,,,,,,,,,,60fe5a238ab86b516164f360,61036d2f19cdf417d42a8778,2021-07-29_20h11.10.879,Simcolourproject_2stim_asymm_v5,2020.2.10,MacIntel,60,61025ae37ef11b136ea224fe,,,,,,,,,703,76,-27,1,0,0,response3disk,,5,9,-5,1,0,0,rectangle,9,-5,1,0,0,9,-5,1,0,0,1,26,186,97,1,,,,,,,,
,,,,,,,,,,,,,FF,,,,,,,,1.604,,,,,,,,,,,,,,,,,,,,,,60fe5a238ab86b516164f360,61036d2f19cdf417d42a8778,2021-07-29_20h11.10.879,Simcolourproject_2stim_asymm_v5,2020.2.10,MacIntel,60,61025ae37ef11b136ea224fe,,,,,,,,,1114,29,-45,1,0,0,response3disk,,4,16,9,1,0,0,rectangle,16,9,1,0,0,16,9,1,0,0,1,27,187,141,1,,,,,,,,
,,,,,,,,,,,,,FF,,,,,,,,1.052,,,,,,,,,,,,,,,,,,,,,,60fe5a238ab86b516164f360,61036d2f19cdf417d42a8778,2021-07-29_20h11.10.879,Simcolourproject_2stim_asymm_v5,2020.2.10,MacIntel,60,61025ae37ef11b136ea224fe,,,,,,,,,712,-62,-24,1,0,0,response5disk,,2,10,2,1,0,0,rectangle,10,2,1,0,0,10,2,1,0,0,1,28,188,20,1,,,,,,,,
,,,,,,,,,,,,,FF,,,,,,,,0.836,,,,,,,,,,,,,,,,,,,,,,60fe5a238ab86b516164f360,61036d2f19cdf417d42a8778,2021-07-29_20h11.10.879,Simcolourproject_2stim_asymm_v5,2020.2.10,MacIntel,60,61025ae37ef11b136ea224fe,,,,,,,,,1112,47,58,1,0,0,response1disk,,7,-5,2,1,0,0,rectangle,-5,2,1,0,0,-5,2,1,0,0,1,29,189,158,1,,,,,,,,
,,,,,,,,,,,,,FF,,,,,,,,0.902,,,,,,,,,,,,,,,,,,,,,,60fe5a238ab86b516164f360,61036d2f19cdf417d42a8778,2021-07-29_20h11.10.879,Simcolourproject_2stim_asymm_v5,2020.2.10,MacIntel,60,61025ae37ef11b136ea224fe,,,,,,,,,1352,27,-45,1,0,0,response3disk,,4,-10,3,1,0,0,rectangle,-10,3,1,0,0,-10,3,1,0,0,1,30,190,8,1,,,,,,,,
,,,,,,,,,,,,,FF,,,,,,,,1.035,,,,,,,,,,,,,,,,,,,,,,60fe5a238ab86b516164f360,61036d2f19cdf417d42a8778,2021-07-29_20h11.10.879,Simcolourproject_2stim_asymm_v5,2020.2.10,MacIntel,60,61025ae37ef11b136ea224fe,,,,,,,,,3570,-30,-62,1,0,0,response5disk,,3,6,9,1,0,0,rectangle,6,9,1,0,0,6,9,1,0,0,1,31,191,120,1,,,,,,,,
,,,,,,,,,,,,,FF,,,,,,,,1.704,,,,,,,,,,,,,,,,,,,,,,60fe5a238ab86b516164f360,61036d2f19cdf417d42a8778,2021-07-29_20h11.10.879,Simcolourproject_2stim_asymm_v5,2020.2.10,MacIntel,60,61025ae37ef11b136ea224fe,,,,,,,,,1402,48,-28,1,0,0,response3disk,,5,33,-10,1,0,0,rectangle,33,-10,1,0,0,33,-10,1,0,0,1,32,192,41,1,,,,,,,,
,,,,,,,,,,,,,FF,,,,,,,,0.702,,,,,,,,,,,,,,,,,,,,,,60fe5a238ab86b516164f360,61036d2f19cdf417d42a8778,2021-07-29_20h11.10.879,Simcolourproject_2stim_asymm_v5,2020.2.10,MacIntel,60,61025ae37ef11b136ea224fe,,,,,,,,,2338,32,-61,1,0,0,response3disk,,4,20,-9,1,0,0,rectangle,20,-9,1,0,0,20,-9,1,0,0,1,33,193,100,1,,,,,,,,
,,,,,,,,,,,,,FF,,,,,,,,6.552,,,,,,,,,,,,,,,,,,,,,,60fe5a238ab86b516164f360,61036d2f19cdf417d42a8778,2021-07-29_20h11.10.879,Simcolourproject_2stim_asymm_v5,2020.2.10,MacIntel,60,61025ae37ef11b136ea224fe,,,,,,,,,2641,-24,-68,1,0,0,response5disk,,3,-3,-5,1,0,0,rectangle,-3,-5,1,0,0,-3,-5,1,0,0,1,34,194,80,1,,,,,,,,
,,,,,,,,,,,,,FF,,,,,,,,1.654,,,,,,,,,,,,,,,,,,,,,,60fe5a238ab86b516164f360,61036d2f19cdf417d42a8778,2021-07-29_20h11.10.879,Simcolourproject_2stim_asymm_v5,2020.2.10,MacIntel,60,61025ae37ef11b136ea224fe,,,,,,,,,1505,38,-55,1,0,0,response3disk,,4,7,3,1,0,0,rectangle,7,3,1,0,0,7,3,1,0,0,1,35,195,110,1,,,,,,,,
,,,,,,,,,,,,,FF,,,,,,,,0.668,,,,,,,,,,,,,,,,,,,,,,60fe5a238ab86b516164f360,61036d2f19cdf417d42a8778,2021-07-29_20h11.10.879,Simcolourproject_2stim_asymm_v5,2020.2.10,MacIntel,60,61025ae37ef11b136ea224fe,,,,,,,,,3160,-28,-69,1,0,0,response5disk,,3,0,-10,1,0,0,rectangle,0,-10,1,0,0,0,-10,1,0,0,1,36,196,83,1,,,,,,,,
,,,,,,,,,,,,,FF,,,,,,,,1.002,,,,,,,,,,,,,,,,,,,,,,60fe5a238ab86b516164f360,61036d2f19cdf417d42a8778,2021-07-29_20h11.10.879,Simcolourproject_2stim_asymm_v5,2020.2.10,MacIntel,60,61025ae37ef11b136ea224fe,,,,,,,,,2928,39,-52,1,0,0,response3disk,,4,30,-4,1,0,0,rectangle,30,-4,1,0,0,30,-4,1,0,0,1,37,197,31,1,,,,,,,,
,,,,,,,,,,,,,FF,,,,,,,,0.919,,,,,,,,,,,,,,,,,,,,,,60fe5a238ab86b516164f360,61036d2f19cdf417d42a8778,2021-07-29_20h11.10.879,Simcolourproject_2stim_asymm_v5,2020.2.10,MacIntel,60,61025ae37ef11b136ea224fe,,,,,,,,,933,74,35,1,0,0,response1disk,,6,2,-8,1,0,0,rectangle,2,-8,1,0,0,2,-8,1,0,0,1,38,198,19,1,,,,,,,,
,,,,,,,,,,,,,FF,,,,,,,,1.688,,,,,,,,,,,,,,,,,,,,,,60fe5a238ab86b516164f360,61036d2f19cdf417d42a8778,2021-07-29_20h11.10.879,Simcolourproject_2stim_asymm_v5,2020.2.10,MacIntel,60,61025ae37ef11b136ea224fe,,,,,,,,,2793,51,-67,1,0,0,response3disk,,4,14,-12,1,0,0,rectangle,14,-12,1,0,0,14,-12,1,0,0,1,39,199,85,1,,,,,,,,
,,,,,,,,,,,,,FF,,,,,,,,1.872,,,,,,,,,,,,,,,,,,,,,,60fe5a238ab86b516164f360,61036d2f19cdf417d42a8778,2021-07-29_20h11.10.879,Simcolourproject_2stim_asymm_v5,2020.2.10,MacIntel,60,61025ae37ef11b136ea224fe,,,,,,,,,3941,-33,-66,1,0,0,response5disk,,3,15,4,1,0,0,rectangle,15,4,1,0,0,15,4,1,0,0,1,40,200,116,1,,,,,,,,
,,,,,,,,,,,,,FF,,,,,,,,0.868,,,,,,,,,,,,,,,,,,,,,,60fe5a238ab86b516164f360,61036d2f19cdf417d42a8778,2021-07-29_20h11.10.879,Simcolourproject_2stim_asymm_v5,2020.2.10,MacIntel,60,61025ae37ef11b136ea224fe,,,,,,,,,2400,53,-31,1,0,0,response3disk,,5,-8,-3,1,0,0,rectangle,-8,-3,1,0,0,-8,-3,1,0,0,1,41,201,126,1,,,,,,,,
,,,,,,,,,,,,,FF,,,,,,,,1.119,,,,,,,,,,,,,,,,,,,,,,60fe5a238ab86b516164f360,61036d2f19cdf417d42a8778,2021-07-29_20h11.10.879,Simcolourproject_2stim_asymm_v5,2020.2.10,MacIntel,60,61025ae37ef11b136ea224fe,,,,,,,,,4220,71,-43,1,0,0,response3disk,,5,-1,-18,1,0,0,rectangle,-1,-18,1,0,0,-1,-18,1,0,0,1,42,202,29,1,,,,,,,,
,,,,,,,,,,,,,FF,,,,,,,,0.752,,,,,,,,,,,,,,,,,,,,,,60fe5a238ab86b516164f360,61036d2f19cdf417d42a8778,2021-07-29_20h11.10.879,Simcolourproject_2stim_asymm_v5,2020.2.10,MacIntel,60,61025ae37ef11b136ea224fe,,,,,,,,,2386,-36,-80,1,0,0,response5disk,,3,-7,8,1,0,0,rectangle,-7,8,1,0,0,-7,8,1,0,0,1,43,203,142,1,,,,,,,,
,,,,,,,,,,,,,FF,,,,,,,,1.087,,,,,,,,,,,,,,,,,,,,,,60fe5a238ab86b516164f360,61036d2f19cdf417d42a8778,2021-07-29_20h11.10.879,Simcolourproject_2stim_asymm_v5,2020.2.10,MacIntel,60,61025ae37ef11b136ea224fe,,,,,,,,,3502,70,-26,1,0,0,response3disk,,5,17,-8,1,0,0,rectangle,17,-8,1,0,0,17,-8,1,0,0,1,44,204,153,1,,,,,,,,
,,,,,,,,,,,,,FF,,,,,,,,0.736,,,,,,,,,,,,,,,,,,,,,,60fe5a238ab86b516164f360,61036d2f19cdf417d42a8778,2021-07-29_20h11.10.879,Simcolourproject_2stim_asymm_v5,2020.2.10,MacIntel,60,61025ae37ef11b136ea224fe,,,,,,,,,2773,75,-34,1,0,0,response3disk,,5,9,-6,1,0,0,rectangle,9,-6,1,0,0,9,-6,1,0,0,1,45,205,34,1,,,,,,,,
,,,,,,,,,,,,,FF,,,,,,,,0.735,,,,,,,,,,,,,,,,,,,,,,60fe5a238ab86b516164f360,61036d2f19cdf417d42a8778,2021-07-29_20h11.10.879,Simcolourproject_2stim_asymm_v5,2020.2.10,MacIntel,60,61025ae37ef11b136ea224fe,,,,,,,,,2747,-37,-67,1,0,0,response5disk,,3,-13,-5,1,0,0,rectangle,-13,-5,1,0,0,-13,-5,1,0,0,1,46,206,156,1,,,,,,,,
,,,,,,,,,,,,,FF,,,,,,,,1.003,,,,,,,,,,,,,,,,,,,,,,60fe5a238ab86b516164f360,61036d2f19cdf417d42a8778,2021-07-29_20h11.10.879,Simcolourproject_2stim_asymm_v5,2020.2.10,MacIntel,60,61025ae37ef11b136ea224fe,,,,,,,,,2126,51,31,1,0,0,response1disk,,6,-9,2,1,0,0,rectangle,-9,2,1,0,0,-9,2,1,0,0,1,47,207,18,1,,,,,,,,
,,,,,,,,,,,,,FF,,,,,,,,1.972,,,,,,,,,,,,,,,,,,,,,,60fe5a238ab86b516164f360,61036d2f19cdf417d42a8778,2021-07-29_20h11.10.879,Simcolourproject_2stim_asymm_v5,2020.2.10,MacIntel,60,61025ae37ef11b136ea224fe,,,,,,,,,4072,55,-33,1,0,0,response3disk,,5,-3,-4,1,0,0,rectangle,-3,-4,1,0,0,-3,-4,1,0,0,1,48,208,37,1,,,,,,,,
,,,,,,,,,,,,,FF,,,,,,,,1.003,,,,,,,,,,,,,,,,,,,,,,60fe5a238ab86b516164f360,61036d2f19cdf417d42a8778,2021-07-29_20h11.10.879,Simcolourproject_2stim_asymm_v5,2020.2.10,MacIntel,60,61025ae37ef11b136ea224fe,,,,,,,,,1631,37,56,1,0,0,response1disk,,7,13,-1,1,0,0,rectangle,13,-1,1,0,0,13,-1,1,0,0,1,49,209,62,1,,,,,,,,
,,,,,,,,,,,,,FF,,,,,,,,1.42,,,,,,,,,,,,,,,,,,,,,,60fe5a238ab86b516164f360,61036d2f19cdf417d42a8778,2021-07-29_20h11.10.879,Simcolourproject_2stim_asymm_v5,2020.2.10,MacIntel,60,61025ae37ef11b136ea224fe,,,,,,,,,2714,-38,-52,1,0,0,response5disk,,3,-12,-13,1,0,0,rectangle,-12,-13,1,0,0,-12,-13,1,0,0,1,50,210,132,1,,,,,,,,
,,,,,,,,,,,,,FF,,,,,,,,0.736,,,,,,,,,,,,,,,,,,,,,,60fe5a238ab86b516164f360,61036d2f19cdf417d42a8778,2021-07-29_20h11.10.879,Simcolourproject_2stim_asymm_v5,2020.2.10,MacIntel,60,61025ae37ef11b136ea224fe,,,,,,,,,3680,-29,-58,1,0,0,response5disk,,3,-17,-9,1,0,0,rectangle,-17,-9,1,0,0,-17,-9,1,0,0,1,51,211,113,1,,,,,,,,
,,,,,,,,,,,,,FF,,,,,,,,1.521,,,,,,,,,,,,,,,,,,,,,,60fe5a238ab86b516164f360,61036d2f19cdf417d42a8778,2021-07-29_20h11.10.879,Simcolourproject_2stim_asymm_v5,2020.2.10,MacIntel,60,61025ae37ef11b136ea224fe,,,,,,,,,4041,25,-31,1,0,0,response3disk,,4,-2,17,1,0,0,rectangle,-2,17,1,0,0,-2,17,1,0,0,1,52,212,127,1,,,,,,,,
,,,,,,,,,,,,,FF,,,,,,,,1.053,,,,,,,,,,,,,,,,,,,,,,60fe5a238ab86b516164f360,61036d2f19cdf417d42a8778,2021-07-29_20h11.10.879,Simcolourproject_2stim_asymm_v5,2020.2.10,MacIntel,60,61025ae37ef11b136ea224fe,,,,,,,,,2753,78,46,1,0,0,response1disk,,6,19,6,1,0,0,rectangle,19,6,1,0,0,19,6,1,0,0,1,53,213,151,1,,,,,,,,
,,,,,,,,,,,,,FF,,,,,,,,0.97,,,,,,,,,,,,,,,,,,,,,,60fe5a238ab86b516164f360,61036d2f19cdf417d42a8778,2021-07-29_20h11.10.879,Simcolourproject_2stim_asymm_v5,2020.2.10,MacIntel,60,61025ae37ef11b136ea224fe,,,,,,,,,2887,-39,63,1,0,0,response7disk,,0,-18,1,1,0,0,rectangle,-18,1,1,0,0,-18,1,1,0,0,1,54,214,52,1,,,,,,,,
,,,,,,,,,,,,,FF,,,,,,,,2.24,,,,,,,,,,,,,,,,,,,,,,60fe5a238ab86b516164f360,61036d2f19cdf417d42a8778,2021-07-29_20h11.10.879,Simcolourproject_2stim_asymm_v5,2020.2.10,MacIntel,60,61025ae37ef11b136ea224fe,,,,,,,,,885,-26,-47,1,0,0,response5disk,,3,-8,-6,1,0,0,rectangle,-8,-6,1,0,0,-8,-6,1,0,0,1,55,215,65,1,,,,,,,,
,,,,,,,,,,,,,FF,,,,,,,,0.852,,,,,,,,,,,,,,,,,,,,,,60fe5a238ab86b516164f360,61036d2f19cdf417d42a8778,2021-07-29_20h11.10.879,Simcolourproject_2stim_asymm_v5,2020.2.10,MacIntel,60,61025ae37ef11b136ea224fe,,,,,,,,,3047,-43,14,1,0,0,response7disk,,1,7,-8,1,0,0,rectangle,7,-8,1,0,0,7,-8,1,0,0,1,56,216,75,1,,,,,,,,
,,,,,,,,,,,,,FF,,,,,,,,0.585,,,,,,,,,,,,,,,,,,,,,,60fe5a238ab86b516164f360,61036d2f19cdf417d42a8778,2021-07-29_20h11.10.879,Simcolourproject_2stim_asymm_v5,2020.2.10,MacIntel,60,61025ae37ef11b136ea224fe,,,,,,,,,2202,50,48,1,0,0,response1disk,,6,21,-1,1,0,0,rectangle,21,-1,1,0,0,21,-1,1,0,0,1,57,217,91,1,,,,,,,,
,,,,,,,,,,,,,FF,,,,,,,,1.203,,,,,,,,,,,,,,,,,,,,,,60fe5a238ab86b516164f360,61036d2f19cdf417d42a8778,2021-07-29_20h11.10.879,Simcolourproject_2stim_asymm_v5,2020.2.10,MacIntel,60,61025ae37ef11b136ea224fe,,,,,,,,,515,70,-30,1,0,0,response3disk,,5,17,-2,1,0,0,rectangle,17,-2,1,0,0,17,-2,1,0,0,1,58,218,70,1,,,,,,,,
,,,,,,,,,,,,,FF,,,,,,,,15.224,,,,,,,,,,,,,,,,,,,,,,60fe5a238ab86b516164f360,61036d2f19cdf417d42a8778,2021-07-29_20h11.10.879,Simcolourproject_2stim_asymm_v5,2020.2.10,MacIntel,60,61025ae37ef11b136ea224fe,,,,,,,,,146,-23,-60,1,0,0,response5disk,,3,3,8,1,0,0,rectangle,3,8,1,0,0,3,8,1,0,0,1,59,219,73,1,,,,,,,,
,,,,,,,,,,,,,FF,,,,,,,,0.835,,,,,,,,,,,,,,,,,,,,,,60fe5a238ab86b516164f360,61036d2f19cdf417d42a8778,2021-07-29_20h11.10.879,Simcolourproject_2stim_asymm_v5,2020.2.10,MacIntel,60,61025ae37ef11b136ea224fe,,,,,,,,,2700,78,47,1,0,0,response1disk,,6,3,4,1,0,0,rectangle,3,4,1,0,0,3,4,1,0,0,1,60,220,24,1,,,,,,,,
,,,,,,,,,,,,,FF,,,,,,,,0.852,,,,,,,,,,,,,,,,,,,,,,60fe5a238ab86b516164f360,61036d2f19cdf417d42a8778,2021-07-29_20h11.10.879,Simcolourproject_2stim_asymm_v5,2020.2.10,MacIntel,60,61025ae37ef11b136ea224fe,,,,,,,,,2383,-23,-65,1,0,0,response5disk,,3,-19,-7,1,0,0,rectangle,-19,-7,1,0,0,-19,-7,1,0,0,1,61,221,3,1,,,,,,,,
,,,,,,,,,,,,,FF,,,,,,,,1.438,,,,,,,,,,,,,,,,,,,,,,60fe5a238ab86b516164f360,61036d2f19cdf417d42a8778,2021-07-29_20h11.10.879,Simcolourproject_2stim_asymm_v5,2020.2.10,MacIntel,60,61025ae37ef11b136ea224fe,,,,,,,,,1323,37,67,1,0,0,response1disk,,7,6,-3,1,0,0,rectangle,80,-36,1,0,0,6,-4,1,0,0,1,62,222,150,1,,response3disk_3,TRUE,5,5,"[182,287,104,4,115,34,290,141,15,38,309,174,73,267,88,23,223,139,242,125]",2.172,rectangle
,,,,,,,,,,,,,FF,,,,,,,,0.936,,,,,,,,,,,,,,,,,,,,,,60fe5a238ab86b516164f360,61036d2f19cdf417d42a8778,2021-07-29_20h11.10.879,Simcolourproject_2stim_asymm_v5,2020.2.10,MacIntel,60,61025ae37ef11b136ea224fe,,,,,,,,,2600,35,59,1,0,0,response1disk,,7,10,0,1,0,0,rectangle,10,0,1,0,0,10,0,1,0,0,1,63,223,47,1,,,,,,,,
,,,,,,,,,,,,,FF,,,,,,,,0.668,,,,,,,,,,,,,,,,,,,,,,60fe5a238ab86b516164f360,61036d2f19cdf417d42a8778,2021-07-29_20h11.10.879,Simcolourproject_2stim_asymm_v5,2020.2.10,MacIntel,60,61025ae37ef11b136ea224fe,,,,,,,,,0,-35,75,1,0,0,response7disk,,0,-19,6,1,0,0,rectangle,-19,6,1,0,0,-19,6,1,0,0,1,64,224,137,1,,,,,,,,
,,,,,,,,,,,,,FF,,,,,,,,0.752,,,,,,,,,,,,,,,,,,,,,,60fe5a238ab86b516164f360,61036d2f19cdf417d42a8778,2021-07-29_20h11.10.879,Simcolourproject_2stim_asymm_v5,2020.2.10,MacIntel,60,61025ae37ef11b136ea224fe,,,,,,,,,2118,26,38,1,0,0,response1disk,,7,15,-1,1,0,0,rectangle,15,-1,1,0,0,15,-1,1,0,0,1,65,225,128,1,,,,,,,,
,,,,,,,,,,,,,FF,,,,,,,,0.819,,,,,,,,,,,,,,,,,,,,,,60fe5a238ab86b516164f360,61036d2f19cdf417d42a8778,2021-07-29_20h11.10.879,Simcolourproject_2stim_asymm_v5,2020.2.10,MacIntel,60,61025ae37ef11b136ea224fe,,,,,,,,,2690,-34,-70,1,0,0,response5disk,,3,-14,-11,1,0,0,rectangle,-14,-11,1,0,0,-14,-11,1,0,0,1,66,226,114,1,,,,,,,,
,,,,,,,,,,,,,FF,,,,,,,,0.701,,,,,,,,,,,,,,,,,,,,,,60fe5a238ab86b516164f360,61036d2f19cdf417d42a8778,2021-07-29_20h11.10.879,Simcolourproject_2stim_asymm_v5,2020.2.10,MacIntel,60,61025ae37ef11b136ea224fe,,,,,,,,,3478,-71,-43,1,0,0,response5disk,,2,-3,-3,1,0,0,rectangle,-3,-3,1,0,0,-3,-3,1,0,0,1,67,227,25,1,,,,,,,,
,,,,,,,,,,,,,FF,,,,,,,,0.602,,,,,,,,,,,,,,,,,,,,,,60fe5a238ab86b516164f360,61036d2f19cdf417d42a8778,2021-07-29_20h11.10.879,Simcolourproject_2stim_asymm_v5,2020.2.10,MacIntel,60,61025ae37ef11b136ea224fe,,,,,,,,,4296,68,106,1,0,0,response1disk,,7,9,1,1,0,0,rectangle,9,1,1,0,0,9,1,1,0,0,1,68,228,13,1,,,,,,,,
,,,,,,,,,,,,,FF,,,,,,,,1.32,,,,,,,,,,,,,,,,,,,,,,60fe5a238ab86b516164f360,61036d2f19cdf417d42a8778,2021-07-29_20h11.10.879,Simcolourproject_2stim_asymm_v5,2020.2.10,MacIntel,60,61025ae37ef11b136ea224fe,,,,,,,,,1121,36,-52,1,0,0,response3disk,,4,0,14,1,0,0,rectangle,0,14,1,0,0,0,14,1,0,0,1,69,229,54,1,,,,,,,,
,,,,,,,,,,,,,FF,,,,,,,,1.136,,,,,,,,,,,,,,,,,,,,,,60fe5a238ab86b516164f360,61036d2f19cdf417d42a8778,2021-07-29_20h11.10.879,Simcolourproject_2stim_asymm_v5,2020.2.10,MacIntel,60,61025ae37ef11b136ea224fe,,,,,,,,,1107,69,34,1,0,0,response1disk,,6,14,11,1,0,0,rectangle,14,11,1,0,0,14,11,1,0,0,1,70,230,42,1,,,,,,,,
,,,,,,,,,,,,,FF,,,,,,,,1.07,,,,,,,,,,,,,,,,,,,,,,60fe5a238ab86b516164f360,61036d2f19cdf417d42a8778,2021-07-29_20h11.10.879,Simcolourproject_2stim_asymm_v5,2020.2.10,MacIntel,60,61025ae37ef11b136ea224fe,,,,,,,,,1313,31,-58,1,0,0,response3disk,,4,-5,3,1,0,0,rectangle,-5,3,1,0,0,-5,3,1,0,0,1,71,231,66,1,,,,,,,,
,,,,,,,,,,,,,FF,,,,,,,,0.736,,,,,,,,,,,,,,,,,,,,,,60fe5a238ab86b516164f360,61036d2f19cdf417d42a8778,2021-07-29_20h11.10.879,Simcolourproject_2stim_asymm_v5,2020.2.10,MacIntel,60,61025ae37ef11b136ea224fe,,,,,,,,,4364,-40,47,1,0,0,response7disk,,0,-13,-17,1,0,0,rectangle,-13,-17,1,0,0,-13,-17,1,0,0,1,72,232,89,1,,,,,,,,
,,,,,,,,,,,,,FF,,,,,,,,1.152,,,,,,,,,,,,,,,,,,,,,,60fe5a238ab86b516164f360,61036d2f19cdf417d42a8778,2021-07-29_20h11.10.879,Simcolourproject_2stim_asymm_v5,2020.2.10,MacIntel,60,61025ae37ef11b136ea224fe,,,,,,,,,1421,34,-59,1,0,0,response3disk,,4,5,-3,1,0,0,rectangle,5,-3,1,0,0,5,-3,1,0,0,1,73,233,119,1,,,,,,,,
,,,,,,,,,,,,,FF,,,,,,,,1.286,,,,,,,,,,,,,,,,,,,,,,60fe5a238ab86b516164f360,61036d2f19cdf417d42a8778,2021-07-29_20h11.10.879,Simcolourproject_2stim_asymm_v5,2020.2.10,MacIntel,60,61025ae37ef11b136ea224fe,,,,,,,,,3318,69,39,1,0,0,response1disk,,6,-12,-11,1,0,0,rectangle,-12,-11,1,0,0,-12,-11,1,0,0,1,74,234,38,1,,,,,,,,
,,,,,,,,,,,,,FF,,,,,,,,4.061,,,,,,,,,,,,,,,,,,,,,,60fe5a238ab86b516164f360,61036d2f19cdf417d42a8778,2021-07-29_20h11.10.879,Simcolourproject_2stim_asymm_v5,2020.2.10,MacIntel,60,61025ae37ef11b136ea224fe,,,,,,,,,1161,41,-39,1,0,0,response3disk,,5,17,-10,1,0,0,rectangle,17,-10,1,0,0,17,-10,1,0,0,1,75,235,71,1,,,,,,,,
,,,,,,,,,,,,,FF,,,,,,,,0.802,,,,,,,,,,,,,,,,,,,,,,60fe5a238ab86b516164f360,61036d2f19cdf417d42a8778,2021-07-29_20h11.10.879,Simcolourproject_2stim_asymm_v5,2020.2.10,MacIntel,60,61025ae37ef11b136ea224fe,,,,,,,,,3874,-36,-42,1,0,0,response5disk,,3,-23,-7,1,0,0,rectangle,-23,-7,1,0,0,-23,-7,1,0,0,1,76,236,78,1,,,,,,,,
,,,,,,,,,,,,,FF,,,,,,,,1.086,,,,,,,,,,,,,,,,,,,,,,60fe5a238ab86b516164f360,61036d2f19cdf417d42a8778,2021-07-29_20h11.10.879,Simcolourproject_2stim_asymm_v5,2020.2.10,MacIntel,60,61025ae37ef11b136ea224fe,,,,,,,,,3448,30,-53,1,0,0,response3disk,,4,27,-5,1,0,0,rectangle,27,-5,1,0,0,27,-5,1,0,0,1,77,237,77,1,,,,,,,,
,,,,,,,,,,,,,FF,,,,,,,,0.703,,,,,,,,,,,,,,,,,,,,,,60fe5a238ab86b516164f360,61036d2f19cdf417d42a8778,2021-07-29_20h11.10.879,Simcolourproject_2stim_asymm_v5,2020.2.10,MacIntel,60,61025ae37ef11b136ea224fe,,,,,,,,,2157,24,58,1,0,0,response1disk,,7,-7,-16,1,0,0,rectangle,-7,-16,1,0,0,-7,-16,1,0,0,1,78,238,7,1,,,,,,,,
,,,,,,,,,,,,,FF,,,,,,,,2.256,,,,,,,,,,,,,,,,,,,,,,60fe5a238ab86b516164f360,61036d2f19cdf417d42a8778,2021-07-29_20h11.10.879,Simcolourproject_2stim_asymm_v5,2020.2.10,MacIntel,60,61025ae37ef11b136ea224fe,,,,,,,,,2916,-20,-56,1,0,0,response5disk,,3,-12,-18,1,0,0,rectangle,-12,-18,1,0,0,-12,-18,1,0,0,1,79,239,101,1,,,,,,,,
,,,,,,,,,,,,,FF,,,,,,,,0.669,,,,,,,,,,,,,,,,,,,,,,60fe5a238ab86b516164f360,61036d2f19cdf417d42a8778,2021-07-29_20h11.10.879,Simcolourproject_2stim_asymm_v5,2020.2.10,MacIntel,60,61025ae37ef11b136ea224fe,,,,,,,,,3468,-31,64,1,0,0,response7disk,,0,-3,-8,1,0,0,rectangle,-3,-8,1,0,0,-3,-8,1,0,0,1,80,240,118,1,,,,,,,,
,,,,,,,,,,,,,FF,,,,,,,,1.052,,,,,,,,,,,,,,,,,,,,,,60fe5a238ab86b516164f360,61036d2f19cdf417d42a8778,2021-07-29_20h11.10.879,Simcolourproject_2stim_asymm_v5,2020.2.10,MacIntel,60,61025ae37ef11b136ea224fe,,,,,,,,,2196,42,-58,1,0,0,response3disk,,4,28,-14,1,0,0,rectangle,24,-76,1,0,0,-1,11,1,0,0,1,81,241,129,1,,response3disk_3,TRUE,4,4,"[182,287,104,4,115,34,290,141,15,38,309,174,73,267,88,23,223,139,242,125]",3.192,rectangle
,,,,,,,,,,,,,FF,,,,,,,,0.819,,,,,,,,,,,,,,,,,,,,,,60fe5a238ab86b516164f360,61036d2f19cdf417d42a8778,2021-07-29_20h11.10.879,Simcolourproject_2stim_asymm_v5,2020.2.10,MacIntel,60,61025ae37ef11b136ea224fe,,,,,,,,,1267,-29,-62,1,0,0,response5disk,,3,-4,4,1,0,0,rectangle,-4,4,1,0,0,-4,4,1,0,0,1,82,242,50,1,,,,,,,,
,,,,,,,,,,,,,FF,,,,,,,,0.886,,,,,,,,,,,,,,,,,,,,,,60fe5a238ab86b516164f360,61036d2f19cdf417d42a8778,2021-07-29_20h11.10.879,Simcolourproject_2stim_asymm_v5,2020.2.10,MacIntel,60,61025ae37ef11b136ea224fe,,,,,,,,,3671,-59,-34,1,0,0,response5disk,,2,0,-5,1,0,0,rectangle,0,-5,1,0,0,0,-5,1,0,0,1,83,243,149,1,,,,,,,,
,,,,,,,,,,,,,FF,,,,,,,,0.902,,,,,,,,,,,,,,,,,,,,,,60fe5a238ab86b516164f360,61036d2f19cdf417d42a8778,2021-07-29_20h11.10.879,Simcolourproject_2stim_asymm_v5,2020.2.10,MacIntel,60,61025ae37ef11b136ea224fe,,,,,,,,,881,28,-41,1,0,0,response3disk,,4,11,-11,1,0,0,rectangle,11,-11,1,0,0,11,-11,1,0,0,1,84,244,58,1,,,,,,,,
,,,,,,,,,,,,,FF,,,,,,,,0.82,,,,,,,,,,,,,,,,,,,,,,60fe5a238ab86b516164f360,61036d2f19cdf417d42a8778,2021-07-29_20h11.10.879,Simcolourproject_2stim_asymm_v5,2020.2.10,MacIntel,60,61025ae37ef11b136ea224fe,,,,,,,,,252,73,42,1,0,0,response1disk,,6,5,-8,1,0,0,rectangle,5,-8,1,0,0,5,-8,1,0,0,1,85,245,53,1,,,,,,,,
,,,,,,,,,,,,,FF,,,,,,,,0.835,,,,,,,,,,,,,,,,,,,,,,60fe5a238ab86b516164f360,61036d2f19cdf417d42a8778,2021-07-29_20h11.10.879,Simcolourproject_2stim_asymm_v5,2020.2.10,MacIntel,60,61025ae37ef11b136ea224fe,,,,,,,,,710,-23,-68,1,0,0,response5disk,,3,-10,-12,1,0,0,rectangle,-10,-12,1,0,0,-10,-12,1,0,0,1,86,246,117,1,,,,,,,,
,,,,,,,,,,,,,FF,,,,,,,,1.22,,,,,,,,,,,,,,,,,,,,,,60fe5a238ab86b516164f360,61036d2f19cdf417d42a8778,2021-07-29_20h11.10.879,Simcolourproject_2stim_asymm_v5,2020.2.10,MacIntel,60,61025ae37ef11b136ea224fe,,,,,,,,,1278,-22,-54,1,0,0,response5disk,,3,2,6,1,0,0,rectangle,2,6,1,0,0,2,6,1,0,0,1,87,247,44,1,,,,,,,,
,,,,,,,,,,,,,FF,,,,,,,,1.102,,,,,,,,,,,,,,,,,,,,,,60fe5a238ab86b516164f360,61036d2f19cdf417d42a8778,2021-07-29_20h11.10.879,Simcolourproject_2stim_asymm_v5,2020.2.10,MacIntel,60,61025ae37ef11b136ea224fe,,,,,,,,,3191,21,-27,1,0,0,response3disk,,4,21,-15,1,0,0,rectangle,21,-15,1,0,0,21,-15,1,0,0,1,88,248,155,1,,,,,,,,
,,,,,,,,,,,,,FF,,,,,,,,1.136,,,,,,,,,,,,,,,,,,,,,,60fe5a238ab86b516164f360,61036d2f19cdf417d42a8778,2021-07-29_20h11.10.879,Simcolourproject_2stim_asymm_v5,2020.2.10,MacIntel,60,61025ae37ef11b136ea224fe,,,,,,,,,1116,41,-35,1,0,0,response3disk,,5,26,-16,1,0,0,rectangle,26,-16,1,0,0,26,-16,1,0,0,1,89,249,59,1,,,,,,,,
,,,,,,,,,,,,,FF,,,,,,,,0.802,,,,,,,,,,,,,,,,,,,,,,60fe5a238ab86b516164f360,61036d2f19cdf417d42a8778,2021-07-29_20h11.10.879,Simcolourproject_2stim_asymm_v5,2020.2.10,MacIntel,60,61025ae37ef11b136ea224fe,,,,,,,,,847,53,17,1,0,0,response1disk,,6,-8,1,1,0,0,rectangle,-8,1,1,0,0,-8,1,1,0,0,1,90,250,143,1,,,,,,,,
,,,,,,,,,,,,,FF,,,,,,,,1.036,,,,,,,,,,,,,,,,,,,,,,60fe5a238ab86b516164f360,61036d2f19cdf417d42a8778,2021-07-29_20h11.10.879,Simcolourproject_2stim_asymm_v5,2020.2.10,MacIntel,60,61025ae37ef11b136ea224fe,,,,,,,,,3496,23,-54,1,0,0,response3disk,,4,8,-11,1,0,0,rectangle,8,-11,1,0,0,8,-11,1,0,0,1,91,251,11,1,,,,,,,,
,,,,,,,,,,,,,FF,,,,,,,,0.852,,,,,,,,,,,,,,,,,,,,,,60fe5a238ab86b516164f360,61036d2f19cdf417d42a8778,2021-07-29_20h11.10.879,Simcolourproject_2stim_asymm_v5,2020.2.10,MacIntel,60,61025ae37ef11b136ea224fe,,,,,,,,,3765,72,-35,1,0,0,response3disk,,5,9,-4,1,0,0,rectangle,9,-4,1,0,0,9,-4,1,0,0,1,92,252,67,1,,,,,,,,
,,,,,,,,,,,,,FF,,,,,,,,1.202,,,,,,,,,,,,,,,,,,,,,,60fe5a238ab86b516164f360,61036d2f19cdf417d42a8778,2021-07-29_20h11.10.879,Simcolourproject_2stim_asymm_v5,2020.2.10,MacIntel,60,61025ae37ef11b136ea224fe,,,,,,,,,2673,72,-16,1,0,0,response3disk,,5,9,1,1,0,0,rectangle,9,1,1,0,0,9,1,1,0,0,1,93,253,45,1,,,,,,,,
,,,,,,,,,,,,,FF,,,,,,,,0.902,,,,,,,,,,,,,,,,,,,,,,60fe5a238ab86b516164f360,61036d2f19cdf417d42a8778,2021-07-29_20h11.10.879,Simcolourproject_2stim_asymm_v5,2020.2.10,MacIntel,60,61025ae37ef11b136ea224fe,,,,,,,,,4081,61,27,1,0,0,response1disk,,6,-1,-2,1,0,0,rectangle,-1,-2,1,0,0,-1,-2,1,0,0,1,94,254,4,1,,,,,,,,
,,,,,,,,,,,,,FF,,,,,,,,0.668,,,,,,,,,,,,,,,,,,,,,,60fe5a238ab86b516164f360,61036d2f19cdf417d42a8778,2021-07-29_20h11.10.879,Simcolourproject_2stim_asymm_v5,2020.2.10,MacIntel,60,61025ae37ef11b136ea224fe,,,,,,,,,2831,-27,55,1,0,0,response7disk,,0,-2,-4,1,0,0,rectangle,-2,-4,1,0,0,-2,-4,1,0,0,1,95,255,22,1,,,,,,,,
,,,,,,,,,,,,,FF,,,,,,,,1.153,,,,,,,,,,,,,,,,,,,,,,60fe5a238ab86b516164f360,61036d2f19cdf417d42a8778,2021-07-29_20h11.10.879,Simcolourproject_2stim_asymm_v5,2020.2.10,MacIntel,60,61025ae37ef11b136ea224fe,,,,,,,,,3821,-29,-58,1,0,0,response5disk,,3,-7,-13,1,0,0,rectangle,-7,-13,1,0,0,-7,-13,1,0,0,1,96,256,95,1,,,,,,,,
,,,,,,,,,,,,,FF,,,,,,,,0.685,,,,,,,,,,,,,,,,,,,,,,60fe5a238ab86b516164f360,61036d2f19cdf417d42a8778,2021-07-29_20h11.10.879,Simcolourproject_2stim_asymm_v5,2020.2.10,MacIntel,60,61025ae37ef11b136ea224fe,,,,,,,,,1647,39,55,1,0,0,response1disk,,7,17,4,1,0,0,rectangle,17,4,1,0,0,17,4,1,0,0,1,97,257,154,1,,,,,,,,
,,,,,,,,,,,,,FF,,,,,,,,0.886,,,,,,,,,,,,,,,,,,,,,,60fe5a238ab86b516164f360,61036d2f19cdf417d42a8778,2021-07-29_20h11.10.879,Simcolourproject_2stim_asymm_v5,2020.2.10,MacIntel,60,61025ae37ef11b136ea224fe,,,,,,,,,2799,23,-44,1,0,0,response3disk,,4,11,-11,1,0,0,rectangle,11,-11,1,0,0,11,-11,1,0,0,1,98,258,124,1,,,,,,,,
,,,,,,,,,,,,,FF,,,,,,,,2.689,,,,,,,,,,,,,,,,,,,,,,60fe5a238ab86b516164f360,61036d2f19cdf417d42a8778,2021-07-29_20h11.10.879,Simcolourproject_2stim_asymm_v5,2020.2.10,MacIntel,60,61025ae37ef11b136ea224fe,,,,,,,,,2784,-25,-74,1,0,0,response5disk,,3,-3,-4,1,0,0,rectangle,-3,-4,1,0,0,-3,-4,1,0,0,1,99,259,27,1,,,,,,,,
,,,,,,,,,,,,,FF,,,,,,,,1.069,,,,,,,,,,,,,,,,,,,,,,60fe5a238ab86b516164f360,61036d2f19cdf417d42a8778,2021-07-29_20h11.10.879,Simcolourproject_2stim_asymm_v5,2020.2.10,MacIntel,60,61025ae37ef11b136ea224fe,,,,,,,,,1376,31,38,1,0,0,response1disk,,7,13,2,1,0,0,rectangle,13,2,1,0,0,13,2,1,0,0,1,100,260,147,1,,,,,,,,
,,,,,,,,,,,,,FF,,,,,,,,0.751,,,,,,,,,,,,,,,,,,,,,,60fe5a238ab86b516164f360,61036d2f19cdf417d42a8778,2021-07-29_20h11.10.879,Simcolourproject_2stim_asymm_v5,2020.2.10,MacIntel,60,61025ae37ef11b136ea224fe,,,,,,,,,1268,39,-53,1,0,0,response3disk,,4,9,-10,1,0,0,rectangle,9,-10,1,0,0,9,-10,1,0,0,1,101,261,23,1,,,,,,,,
,,,,,,,,,,,,,FF,,,,,,,,0.818,,,,,,,,,,,,,,,,,,,,,,60fe5a238ab86b516164f360,61036d2f19cdf417d42a8778,2021-07-29_20h11.10.879,Simcolourproject_2stim_asymm_v5,2020.2.10,MacIntel,60,61025ae37ef11b136ea224fe,,,,,,,,,1413,-19,-60,1,0,0,response5disk,,3,0,-11,1,0,0,rectangle,0,-11,1,0,0,0,-11,1,0,0,1,102,262,102,1,,,,,,,,
,,,,,,,,,,,,,FF,,,,,,,,1.053,,,,,,,,,,,,,,,,,,,,,,60fe5a238ab86b516164f360,61036d2f19cdf417d42a8778,2021-07-29_20h11.10.879,Simcolourproject_2stim_asymm_v5,2020.2.10,MacIntel,60,61025ae37ef11b136ea224fe,,,,,,,,,1286,-59,28,1,0,0,response7disk,,1,10,-12,1,0,0,rectangle,10,-12,1,0,0,10,-12,1,0,0,1,103,263,57,1,,,,,,,,
,,,,,,,,,,,,,FF,,,,,,,,2.189,,,,,,,,,,,,,,,,,,,,,,60fe5a238ab86b516164f360,61036d2f19cdf417d42a8778,2021-07-29_20h11.10.879,Simcolourproject_2stim_asymm_v5,2020.2.10,MacIntel,60,61025ae37ef11b136ea224fe,,,,,,,,,1779,-40,-53,1,0,0,response5disk,,3,-14,-2,1,0,0,rectangle,-14,-2,1,0,0,-14,-2,1,0,0,1,104,264,136,1,,,,,,,,
,,,,,,,,,,,,,FF,,,,,,,,1.454,,,,,,,,,,,,,,,,,,,,,,60fe5a238ab86b516164f360,61036d2f19cdf417d42a8778,2021-07-29_20h11.10.879,Simcolourproject_2stim_asymm_v5,2020.2.10,MacIntel,60,61025ae37ef11b136ea224fe,,,,,,,,,914,30,-44,1,0,0,response3disk,,4,1,6,1,0,0,rectangle,1,6,1,0,0,1,6,1,0,0,1,105,265,2,1,,,,,,,,
,,,,,,,,,,,,,FF,,,,,,,,0.919,,,,,,,,,,,,,,,,,,,,,,60fe5a238ab86b516164f360,61036d2f19cdf417d42a8778,2021-07-29_20h11.10.879,Simcolourproject_2stim_asymm_v5,2020.2.10,MacIntel,60,61025ae37ef11b136ea224fe,,,,,,,,,3549,27,-44,1,0,0,response3disk,,4,26,5,1,0,0,rectangle,76,31,1,0,0,-8,-9,1,0,0,1,106,266,79,1,,response1disk_3,TRUE,6,6,"[182,287,104,4,115,34,290,141,15,38,309,174,73,267,88,23,223,139,242,125]",1.72,rectangle
,,,,,,,,,,,,,FF,,,,,,,,0.635,,,,,,,,,,,,,,,,,,,,,,60fe5a238ab86b516164f360,61036d2f19cdf417d42a8778,2021-07-29_20h11.10.879,Simcolourproject_2stim_asymm_v5,2020.2.10,MacIntel,60,61025ae37ef11b136ea224fe,,,,,,,,,1130,29,62,1,0,0,response1disk,,7,-12,-17,1,0,0,rectangle,-12,-17,1,0,0,-12,-17,1,0,0,1,107,267,146,1,,,,,,,,
,,,,,,,,,,,,,FF,,,,,,,,0.886,,,,,,,,,,,,,,,,,,,,,,60fe5a238ab86b516164f360,61036d2f19cdf417d42a8778,2021-07-29_20h11.10.879,Simcolourproject_2stim_asymm_v5,2020.2.10,MacIntel,60,61025ae37ef11b136ea224fe,,,,,,,,,692,34,-53,1,0,0,response3disk,,4,22,-6,1,0,0,rectangle,22,-6,1,0,0,22,-6,1,0,0,1,108,268,121,1,,,,,,,,
,,,,,,,,,,,,,FF,,,,,,,,0.936,,,,,,,,,,,,,,,,,,,,,,60fe5a238ab86b516164f360,61036d2f19cdf417d42a8778,2021-07-29_20h11.10.879,Simcolourproject_2stim_asymm_v5,2020.2.10,MacIntel,60,61025ae37ef11b136ea224fe,,,,,,,,,2728,-18,-56,1,0,0,response5disk,,3,-12,2,1,0,0,rectangle,-12,2,1,0,0,-12,2,1,0,0,1,109,269,123,1,,,,,,,,
,,,,,,,,,,,,,FF,,,,,,,,1.37,,,,,,,,,,,,,,,,,,,,,,60fe5a238ab86b516164f360,61036d2f19cdf417d42a8778,2021-07-29_20h11.10.879,Simcolourproject_2stim_asymm_v5,2020.2.10,MacIntel,60,61025ae37ef11b136ea224fe,,,,,,,,,1083,75,-39,1,0,0,response3disk,,5,-10,-7,1,0,0,rectangle,-10,-7,1,0,0,-10,-7,1,0,0,1,110,270,103,1,,,,,,,,
,,,,,,,,,,,,,FF,,,,,,,,0.819,,,,,,,,,,,,,,,,,,,,,,60fe5a238ab86b516164f360,61036d2f19cdf417d42a8778,2021-07-29_20h11.10.879,Simcolourproject_2stim_asymm_v5,2020.2.10,MacIntel,60,61025ae37ef11b136ea224fe,,,,,,,,,3312,54,-33,1,0,0,response3disk,,5,10,-2,1,0,0,rectangle,10,-2,1,0,0,10,-2,1,0,0,1,111,271,69,1,,,,,,,,
,,,,,,,,,,,,,FF,,,,,,,,1.437,,,,,,,,,,,,,,,,,,,,,,60fe5a238ab86b516164f360,61036d2f19cdf417d42a8778,2021-07-29_20h11.10.879,Simcolourproject_2stim_asymm_v5,2020.2.10,MacIntel,60,61025ae37ef11b136ea224fe,,,,,,,,,4136,72,-20,1,0,0,response3disk,,5,15,-14,1,0,0,rectangle,15,-14,1,0,0,15,-14,1,0,0,1,112,272,40,1,,,,,,,,
,,,,,,,,,,,,,FF,,,,,,,,1.253,,,,,,,,,,,,,,,,,,,,,,60fe5a238ab86b516164f360,61036d2f19cdf417d42a8778,2021-07-29_20h11.10.879,Simcolourproject_2stim_asymm_v5,2020.2.10,MacIntel,60,61025ae37ef11b136ea224fe,,,,,,,,,763,66,37,1,0,0,response1disk,,6,20,7,1,0,0,rectangle,20,7,1,0,0,20,7,1,0,0,1,113,273,9,1,,,,,,,,
,,,,,,,,,,,,,FF,,,,,,,,0.669,,,,,,,,,,,,,,,,,,,,,,60fe5a238ab86b516164f360,61036d2f19cdf417d42a8778,2021-07-29_20h11.10.879,Simcolourproject_2stim_asymm_v5,2020.2.10,MacIntel,60,61025ae37ef11b136ea224fe,,,,,,,,,1169,35,76,1,0,0,response1disk,,7,-10,-6,1,0,0,rectangle,-10,-6,1,0,0,-10,-6,1,0,0,1,114,274,125,1,,,,,,,,
,,,,,,,,,,,,,FF,,,,,,,,1.069,,,,,,,,,,,,,,,,,,,,,,60fe5a238ab86b516164f360,61036d2f19cdf417d42a8778,2021-07-29_20h11.10.879,Simcolourproject_2stim_asymm_v5,2020.2.10,MacIntel,60,61025ae37ef11b136ea224fe,,,,,,,,,3070,52,-27,1,0,0,response3disk,,5,12,-18,1,0,0,rectangle,12,-18,1,0,0,12,-18,1,0,0,1,115,275,35,1,,,,,,,,
,,,,,,,,,,,,,FF,,,,,,,,1.219,,,,,,,,,,,,,,,,,,,,,,60fe5a238ab86b516164f360,61036d2f19cdf417d42a8778,2021-07-29_20h11.10.879,Simcolourproject_2stim_asymm_v5,2020.2.10,MacIntel,60,61025ae37ef11b136ea224fe,,,,,,,,,1660,-29,-58,1,0,0,response5disk,,3,-1,2,1,0,0,rectangle,-1,2,1,0,0,-1,2,1,0,0,1,116,276,86,1,,,,,,,,
,,,,,,,,,,,,,FF,,,,,,,,1.521,,,,,,,,,,,,,,,,,,,,,,60fe5a238ab86b516164f360,61036d2f19cdf417d42a8778,2021-07-29_20h11.10.879,Simcolourproject_2stim_asymm_v5,2020.2.10,MacIntel,60,61025ae37ef11b136ea224fe,,,,,,,,,3688,-25,-55,1,0,0,response5disk,,3,8,10,1,0,0,rectangle,8,10,1,0,0,8,10,1,0,0,1,117,277,61,1,,,,,,,,
,,,,,,,,,,,,,FF,,,,,,,,1.002,,,,,,,,,,,,,,,,,,,,,,60fe5a238ab86b516164f360,61036d2f19cdf417d42a8778,2021-07-29_20h11.10.879,Simcolourproject_2stim_asymm_v5,2020.2.10,MacIntel,60,61025ae37ef11b136ea224fe,,,,,,,,,2166,-61,30,1,0,0,response7disk,,1,-14,-6,1,0,0,rectangle,-14,-6,1,0,0,-14,-6,1,0,0,1,118,278,21,1,,,,,,,,
,,,,,,,,,,,,,FF,,,,,,,,0.601,,,,,,,,,,,,,,,,,,,,,,60fe5a238ab86b516164f360,61036d2f19cdf417d42a8778,2021-07-29_20h11.10.879,Simcolourproject_2stim_asymm_v5,2020.2.10,MacIntel,60,61025ae37ef11b136ea224fe,,,,,,,,,534,48,95,1,0,0,response1disk,,7,-4,-6,1,0,0,rectangle,-4,-6,1,0,0,-4,-6,1,0,0,1,119,279,104,1,,,,,,,,
,,,,,,,,,,,,,FF,,,,,,,,0.735,,,,,,,,,,,,,,,,,,,,,,60fe5a238ab86b516164f360,61036d2f19cdf417d42a8778,2021-07-29_20h11.10.879,Simcolourproject_2stim_asymm_v5,2020.2.10,MacIntel,60,61025ae37ef11b136ea224fe,,,,,,,,,4231,65,-47,1,0,0,response3disk,,5,-3,-14,1,0,0,rectangle,-3,-14,1,0,0,-3,-14,1,0,0,1,120,280,93,1,,,,,,,,
,,,,,,,,,,,,,FF,,,,,,,,1.822,,,,,,,,,,,,,,,,,,,,,,60fe5a238ab86b516164f360,61036d2f19cdf417d42a8778,2021-07-29_20h11.10.879,Simcolourproject_2stim_asymm_v5,2020.2.10,MacIntel,60,61025ae37ef11b136ea224fe,,,,,,,,,3013,21,-67,1,0,0,response3disk,,4,8,-4,1,0,0,rectangle,8,-4,1,0,0,8,-4,1,0,0,1,121,281,28,1,,,,,,,,
,,,,,,,,,,,,,FF,,,,,,,,0.819,,,,,,,,,,,,,,,,,,,,,,60fe5a238ab86b516164f360,61036d2f19cdf417d42a8778,2021-07-29_20h11.10.879,Simcolourproject_2stim_asymm_v5,2020.2.10,MacIntel,60,61025ae37ef11b136ea224fe,,,,,,,,,2083,-26,-73,1,0,0,response5disk,,3,-10,-11,1,0,0,rectangle,-10,-11,1,0,0,-10,-11,1,0,0,1,122,282,63,1,,,,,,,,
,,,,,,,,,,,,,FF,,,,,,,,1.036,,,,,,,,,,,,,,,,,,,,,,60fe5a238ab86b516164f360,61036d2f19cdf417d42a8778,2021-07-29_20h11.10.879,Simcolourproject_2stim_asymm_v5,2020.2.10,MacIntel,60,61025ae37ef11b136ea224fe,,,,,,,,,2943,-58,-24,1,0,0,response5disk,,2,8,10,1,0,0,rectangle,8,10,1,0,0,8,10,1,0,0,1,123,283,107,1,,,,,,,,
,,,,,,,,,,,,,FF,,,,,,,,1.019,,,,,,,,,,,,,,,,,,,,,,60fe5a238ab86b516164f360,61036d2f19cdf417d42a8778,2021-07-29_20h11.10.879,Simcolourproject_2stim_asymm_v5,2020.2.10,MacIntel,60,61025ae37ef11b136ea224fe,,,,,,,,,915,-22,-67,1,0,0,response5disk,,3,-2,-6,1,0,0,rectangle,-2,-6,1,0,0,-2,-6,1,0,0,1,124,284,148,1,,,,,,,,
,,,,,,,,,,,,,FF,,,,,,,,5.214,,,,,,,,,,,,,,,,,,,,,,60fe5a238ab86b516164f360,61036d2f19cdf417d42a8778,2021-07-29_20h11.10.879,Simcolourproject_2stim_asymm_v5,2020.2.10,MacIntel,60,61025ae37ef11b136ea224fe,,,,,,,,,2035,-54,-22,1,0,0,response5disk,,2,-21,-11,1,0,0,rectangle,-21,-11,1,0,0,-21,-11,1,0,0,1,125,285,33,1,,,,,,,,
,,,,,,,,,,,,,FF,,,,,,,,0.769,,,,,,,,,,,,,,,,,,,,,,60fe5a238ab86b516164f360,61036d2f19cdf417d42a8778,2021-07-29_20h11.10.879,Simcolourproject_2stim_asymm_v5,2020.2.10,MacIntel,60,61025ae37ef11b136ea224fe,,,,,,,,,2171,-47,27,1,0,0,response7disk,,1,-17,4,1,0,0,rectangle,-56,-32,1,0,0,-4,-7,1,0,0,1,126,286,10,1,,response5disk_3,TRUE,2,2,"[182,287,104,4,115,34,290,141,15,38,309,174,73,267,88,23,223,139,242,125]",1.521,rectangle
,,,,,,,,,,,,,FF,,,,,,,,0.853,,,,,,,,,,,,,,,,,,,,,,60fe5a238ab86b516164f360,61036d2f19cdf417d42a8778,2021-07-29_20h11.10.879,Simcolourproject_2stim_asymm_v5,2020.2.10,MacIntel,60,61025ae37ef11b136ea224fe,,,,,,,,,1429,-51,24,1,0,0,response7disk,,1,-14,-13,1,0,0,rectangle,-14,-13,1,0,0,-14,-13,1,0,0,1,127,287,39,1,,,,,,,,
,,,,,,,,,,,,,FF,,,,,,,,3.994,,,,,,,,,,,,,,,,,,,,,,60fe5a238ab86b516164f360,61036d2f19cdf417d42a8778,2021-07-29_20h11.10.879,Simcolourproject_2stim_asymm_v5,2020.2.10,MacIntel,60,61025ae37ef11b136ea224fe,,,,,,,,,3599,-34,-58,1,0,0,response5disk,,3,-13,-12,1,0,0,rectangle,-13,-12,1,0,0,-13,-12,1,0,0,1,128,288,32,1,,,,,,,,
,,,,,,,,,,,,,FF,,,,,,,,0.819,,,,,,,,,,,,,,,,,,,,,,60fe5a238ab86b516164f360,61036d2f19cdf417d42a8778,2021-07-29_20h11.10.879,Simcolourproject_2stim_asymm_v5,2020.2.10,MacIntel,60,61025ae37ef11b136ea224fe,,,,,,,,,1713,31,65,1,0,0,response1disk,,7,4,3,1,0,0,rectangle,80,-47,1,0,0,20,-10,1,0,0,1,129,289,51,1,,response3disk_3,TRUE,5,5,"[182,287,104,4,115,34,290,141,15,38,309,174,73,267,88,23,223,139,242,125]",1.437,rectangle
,,,,,,,,,,,,,FF,,,,,,,,0.985,,,,,,,,,,,,,,,,,,,,,,60fe5a238ab86b516164f360,61036d2f19cdf417d42a8778,2021-07-29_20h11.10.879,Simcolourproject_2stim_asymm_v5,2020.2.10,MacIntel,60,61025ae37ef11b136ea224fe,,,,,,,,,876,40,80,1,0,0,response1disk,,7,3,-2,1,0,0,rectangle,3,-2,1,0,0,3,-2,1,0,0,1,130,290,122,1,,,,,,,,
,,,,,,,,,,,,,FF,,,,,,,,0.735,,,,,,,,,,,,,,,,,,,,,,60fe5a238ab86b516164f360,61036d2f19cdf417d42a8778,2021-07-29_20h11.10.879,Simcolourproject_2stim_asymm_v5,2020.2.10,MacIntel,60,61025ae37ef11b136ea224fe,,,,,,,,,2192,17,40,1,0,0,response1disk,,7,0,-7,1,0,0,rectangle,0,-7,1,0,0,0,-7,1,0,0,1,131,291,159,1,,,,,,,,
,,,,,,,,,,,,,FF,,,,,,,,0.785,,,,,,,,,,,,,,,,,,,,,,60fe5a238ab86b516164f360,61036d2f19cdf417d42a8778,2021-07-29_20h11.10.879,Simcolourproject_2stim_asymm_v5,2020.2.10,MacIntel,60,61025ae37ef11b136ea224fe,,,,,,,,,1710,37,46,1,0,0,response1disk,,7,13,-7,1,0,0,rectangle,13,-7,1,0,0,13,-7,1,0,0,1,132,292,133,1,,,,,,,,
,,,,,,,,,,,,,FF,,,,,,,,0.718,,,,,,,,,,,,,,,,,,,,,,60fe5a238ab86b516164f360,61036d2f19cdf417d42a8778,2021-07-29_20h11.10.879,Simcolourproject_2stim_asymm_v5,2020.2.10,MacIntel,60,61025ae37ef11b136ea224fe,,,,,,,,,3213,50,-37,1,0,0,response3disk,,5,20,-17,1,0,0,rectangle,20,-17,1,0,0,20,-17,1,0,0,1,133,293,111,1,,,,,,,,
,,,,,,,,,,,,,FF,,,,,,,,1.037,,,,,,,,,,,,,,,,,,,,,,60fe5a238ab86b516164f360,61036d2f19cdf417d42a8778,2021-07-29_20h11.10.879,Simcolourproject_2stim_asymm_v5,2020.2.10,MacIntel,60,61025ae37ef11b136ea224fe,,,,,,,,,470,-47,-54,1,0,0,response5disk,,3,-17,-5,1,0,0,rectangle,-17,-5,1,0,0,-17,-5,1,0,0,1,134,294,60,1,,,,,,,,
,,,,,,,,,,,,,FF,,,,,,,,0.769,,,,,,,,,,,,,,,,,,,,,,60fe5a238ab86b516164f360,61036d2f19cdf417d42a8778,2021-07-29_20h11.10.879,Simcolourproject_2stim_asymm_v5,2020.2.10,MacIntel,60,61025ae37ef11b136ea224fe,,,,,,,,,3210,27,-41,1,0,0,response3disk,,4,23,-11,1,0,0,rectangle,23,-11,1,0,0,23,-11,1,0,0,1,135,295,74,1,,,,,,,,
,,,,,,,,,,,,,FF,,,,,,,,1.688,,,,,,,,,,,,,,,,,,,,,,60fe5a238ab86b516164f360,61036d2f19cdf417d42a8778,2021-07-29_20h11.10.879,Simcolourproject_2stim_asymm_v5,2020.2.10,MacIntel,60,61025ae37ef11b136ea224fe,,,,,,,,,1547,-51,-34,1,0,0,response5disk,,2,0,-9,1,0,0,rectangle,0,-9,1,0,0,0,-9,1,0,0,1,136,296,130,1,,,,,,,,
,,,,,,,,,,,,,FF,,,,,,,,0.702,,,,,,,,,,,,,,,,,,,,,,60fe5a238ab86b516164f360,61036d2f19cdf417d42a8778,2021-07-29_20h11.10.879,Simcolourproject_2stim_asymm_v5,2020.2.10,MacIntel,60,61025ae37ef11b136ea224fe,,,,,,,,,3292,29,-47,1,0,0,response3disk,,4,17,-15,1,0,0,rectangle,17,-15,1,0,0,17,-15,1,0,0,1,137,297,94,1,,,,,,,,
,,,,,,,,,,,,,FF,,,,,,,,0.669,,,,,,,,,,,,,,,,,,,,,,60fe5a238ab86b516164f360,61036d2f19cdf417d42a8778,2021-07-29_20h11.10.879,Simcolourproject_2stim_asymm_v5,2020.2.10,MacIntel,60,61025ae37ef11b136ea224fe,,,,,,,,,1873,51,-26,1,0,0,response3disk,,5,20,-16,1,0,0,rectangle,20,-16,1,0,0,20,-16,1,0,0,1,138,298,106,1,,,,,,,,
