key_resp.keys,key_resp.rt,key_resp_14.keys,key_resp_14.rt,key_resp_15.keys,key_resp_15.rt,key_resp_17.keys,key_resp_17.rt,key_resp_9.keys,key_resp_9.rt,key_resp_10.keys,key_resp_10.rt,practice_comparison,Ecc,mouse_5.x,mouse_5.y,mouse_5.leftButton,mouse_5.midButton,mouse_5.rightButton,mouse_5.clicked_name,pracsimilarity,response_time,mouse_10.x,mouse_10.y,mouse_10.leftButton,mouse_10.midButton,mouse_10.rightButton,mouse_10.clicked_name,mouse_7.x,mouse_7.y,mouse_7.leftButton,mouse_7.midButton,mouse_7.rightButton,mouse_6.x,mouse_6.y,mouse_6.leftButton,mouse_6.midButton,mouse_6.rightButton,duringprac.thisRepN,duringprac.thisTrialN,duringprac.thisN,duringprac.thisIndex,duringprac.ran,participant,session,date,expName,psychopyVersion,OS,frameRate,study_id,mouse_7.clicked_name,catchpracsimilarity,catch_response_time,catchnumberprac,catchtrialorderprac,mouse_6.clicked_name,key_resp_22.keys,key_resp_22.rt,realcomparison,mouse.x,mouse.y,mouse.leftButton,mouse.midButton,mouse.rightButton,mouse.clicked_name,Colour2,similarity,mouse_2.x,mouse_2.y,mouse_2.leftButton,mouse_2.midButton,mouse_2.rightButton,mouse_2.clicked_name,mouse_3.x,mouse_3.y,mouse_3.leftButton,mouse_3.midButton,mouse_3.rightButton,mouse_11.x,mouse_11.y,mouse_11.leftButton,mouse_11.midButton,mouse_11.rightButton,trials_2.thisRepN,trials_2.thisTrialN,trials_2.thisN,trials_2.thisIndex,trials_2.ran,Colour1,mouse_3.clicked_name,catchornah,catchsimilarity,catchnumber,catchtrialorder,catchRT,mouse_11.clicked_name
space,2.633900001,space,5.8868,space,15.83,space,4.3016,space,1.281,space,4.523,63,FF,-64,-88,1,0,0,response5disk_5,3,24.035,-12,3,1,0,0,rectangle_8,-12,3,1,0,0,-12,3,1,0,0,0,0,0,0,1,60fe2fed581d95673bd181af,61036abcc1555c65405eddeb,2021-07-29_22h00.29.403,Simcolourproject_2stim_asymm_v5,2020.2.10,Win32,60,61025ae37ef11b136ea224fe,,,,,,,,,,,,,,,,,,,,,,,,,,,,,,,,,,,,,,,,,,,,,,
,,,,,,,,,,,,138,PF,44,-141,1,0,0,response3disk_5,4,6.465,4,-10,1,0,0,rectangle_8,-50,-119,1,0,0,12,18,1,0,0,0,1,1,6,1,60fe2fed581d95673bd181af,61036abcc1555c65405eddeb,2021-07-29_22h00.29.403,Simcolourproject_2stim_asymm_v5,2020.2.10,Win32,60,61025ae37ef11b136ea224fe,response5disk_7,3,3.866400001,3,"[2,5]",rectangle_4,,,,,,,,,,,,,,,,,,,,,,,,,,,,,,,,,,,,,,,,
,,,,,,,,,,,,24,PF,95,-46,1,0,0,response3disk_5,5,3.933099999,29,-7,1,0,0,rectangle_8,29,-7,1,0,0,29,-7,1,0,0,0,2,2,1,1,60fe2fed581d95673bd181af,61036abcc1555c65405eddeb,2021-07-29_22h00.29.403,Simcolourproject_2stim_asymm_v5,2020.2.10,Win32,60,61025ae37ef11b136ea224fe,,,,,,,,,,,,,,,,,,,,,,,,,,,,,,,,,,,,,,,,,,,,,,
,,,,,,,,,,,,34,PF,53,114,1,0,0,response1disk_5,7,4.8838,12,-5,1,0,0,rectangle_8,12,-5,1,0,0,12,-5,1,0,0,0,3,3,4,1,60fe2fed581d95673bd181af,61036abcc1555c65405eddeb,2021-07-29_22h00.29.403,Simcolourproject_2stim_asymm_v5,2020.2.10,Win32,60,61025ae37ef11b136ea224fe,,,,,,,,,,,,,,,,,,,,,,,,,,,,,,,,,,,,,,,,,,,,,,
,,,,,,,,,,,,132,FF,109,-42,1,0,0,response3disk_5,5,4.1493,12,2,1,0,0,rectangle_8,-50,-124,1,0,0,2,1,1,0,0,0,4,4,5,1,60fe2fed581d95673bd181af,61036abcc1555c65405eddeb,2021-07-29_22h00.29.403,Simcolourproject_2stim_asymm_v5,2020.2.10,Win32,60,61025ae37ef11b136ea224fe,response5disk_7,3,2.4664,3,"[2,5]",rectangle_4,,,,,,,,,,,,,,,,,,,,,,,,,,,,,,,,,,,,,,,,
,,,,,,,,,,,,119,PF,36,69,1,0,0,response1disk_5,7,2.1008,12,-7,1,0,0,rectangle_8,12,-7,1,0,0,12,-7,1,0,0,0,5,5,2,1,60fe2fed581d95673bd181af,61036abcc1555c65405eddeb,2021-07-29_22h00.29.403,Simcolourproject_2stim_asymm_v5,2020.2.10,Win32,60,61025ae37ef11b136ea224fe,,,,,,,,,,,,,,,,,,,,,,,,,,,,,,,,,,,,,,,,,,,,,,
,,,,,,,,,,,,51,FF,45,66,1,0,0,response1disk_5,7,2.55,14,3,1,0,0,rectangle_8,14,3,1,0,0,14,3,1,0,0,0,6,6,3,1,60fe2fed581d95673bd181af,61036abcc1555c65405eddeb,2021-07-29_22h00.29.403,Simcolourproject_2stim_asymm_v5,2020.2.10,Win32,60,61025ae37ef11b136ea224fe,,,,,,,,,,,,,,,,,,,,,,,,,,,,,,,,,,,,,,,,,,,,,,
,,,,,,,,,,,,,FF,,,,,,,,3.7518,,,,,,,,,,,,,,,,,,,,,,60fe2fed581d95673bd181af,61036abcc1555c65405eddeb,2021-07-29_22h00.29.403,Simcolourproject_2stim_asymm_v5,2020.2.10,Win32,60,61025ae37ef11b136ea224fe,,,,,,,space,4.1416,830,47,91,1,0,0,response1disk,,7,18,-7,1,0,0,rectangle,18,-7,1,0,0,18,-7,1,0,0,0,0,0,83,1,,,,,,,,
,,,,,,,,,,,,,FF,,,,,,,,2.750599999,,,,,,,,,,,,,,,,,,,,,,60fe2fed581d95673bd181af,61036abcc1555c65405eddeb,2021-07-29_22h00.29.403,Simcolourproject_2stim_asymm_v5,2020.2.10,Win32,60,61025ae37ef11b136ea224fe,,,,,,,,,211,109,73,1,0,0,response1disk,,6,7,-9,1,0,0,rectangle,7,-9,1,0,0,7,-9,1,0,0,0,1,1,137,1,,,,,,,,
,,,,,,,,,,,,,FF,,,,,,,,1.4996,,,,,,,,,,,,,,,,,,,,,,60fe2fed581d95673bd181af,61036abcc1555c65405eddeb,2021-07-29_22h00.29.403,Simcolourproject_2stim_asymm_v5,2020.2.10,Win32,60,61025ae37ef11b136ea224fe,,,,,,,,,1311,108,62,1,0,0,response1disk,,6,15,8,1,0,0,rectangle,15,8,1,0,0,15,8,1,0,0,0,2,2,16,1,,,,,,,,
,,,,,,,,,,,,,FF,,,,,,,,3.466599999,,,,,,,,,,,,,,,,,,,,,,60fe2fed581d95673bd181af,61036abcc1555c65405eddeb,2021-07-29_22h00.29.403,Simcolourproject_2stim_asymm_v5,2020.2.10,Win32,60,61025ae37ef11b136ea224fe,,,,,,,,,4289,64,111,1,0,0,response1disk,,7,15,10,1,0,0,rectangle,15,10,1,0,0,15,10,1,0,0,0,3,3,135,1,,,,,,,,
,,,,,,,,,,,,,FF,,,,,,,,2.4319,,,,,,,,,,,,,,,,,,,,,,60fe2fed581d95673bd181af,61036abcc1555c65405eddeb,2021-07-29_22h00.29.403,Simcolourproject_2stim_asymm_v5,2020.2.10,Win32,60,61025ae37ef11b136ea224fe,,,,,,,,,427,52,53,1,0,0,response1disk,,7,24,8,1,0,0,rectangle,24,8,1,0,0,24,8,1,0,0,0,4,4,38,1,,,,,,,,
,,,,,,,,,,,,,FF,,,,,,,,2.5162,,,,,,,,,,,,,,,,,,,,,,60fe2fed581d95673bd181af,61036abcc1555c65405eddeb,2021-07-29_22h00.29.403,Simcolourproject_2stim_asymm_v5,2020.2.10,Win32,60,61025ae37ef11b136ea224fe,,,,,,,,,23,44,97,1,0,0,response1disk,,7,-3,7,1,0,0,rectangle,-3,7,1,0,0,-3,7,1,0,0,0,5,5,36,1,,,,,,,,
,,,,,,,,,,,,,FF,,,,,,,,3.6319,,,,,,,,,,,,,,,,,,,,,,60fe2fed581d95673bd181af,61036abcc1555c65405eddeb,2021-07-29_22h00.29.403,Simcolourproject_2stim_asymm_v5,2020.2.10,Win32,60,61025ae37ef11b136ea224fe,,,,,,,,,2908,132,86,1,0,0,response1disk,,6,38,6,1,0,0,rectangle,54,-116,1,0,0,19,1,1,0,0,0,6,6,138,1,,response3disk_3,TRUE,4,4,"[215,180,29,235,278,255,243,11,20,65,136,213,64,236,94,233,273,52,297,7]",2.400400001,rectangle
,,,,,,,,,,,,,FF,,,,,,,,2.199900001,,,,,,,,,,,,,,,,,,,,,,60fe2fed581d95673bd181af,61036abcc1555c65405eddeb,2021-07-29_22h00.29.403,Simcolourproject_2stim_asymm_v5,2020.2.10,Win32,60,61025ae37ef11b136ea224fe,,,,,,,,,2759,34,70,1,0,0,response1disk,,7,15,13,1,0,0,rectangle,15,13,1,0,0,15,13,1,0,0,0,7,7,134,1,,,,,,,,
,,,,,,,,,,,,,FF,,,,,,,,2.0669,,,,,,,,,,,,,,,,,,,,,,60fe2fed581d95673bd181af,61036abcc1555c65405eddeb,2021-07-29_22h00.29.403,Simcolourproject_2stim_asymm_v5,2020.2.10,Win32,60,61025ae37ef11b136ea224fe,,,,,,,,,3629,57,87,1,0,0,response1disk,,7,30,10,1,0,0,rectangle,30,10,1,0,0,30,10,1,0,0,0,8,8,126,1,,,,,,,,
,,,,,,,,,,,,,FF,,,,,,,,1.3166,,,,,,,,,,,,,,,,,,,,,,60fe2fed581d95673bd181af,61036abcc1555c65405eddeb,2021-07-29_22h00.29.403,Simcolourproject_2stim_asymm_v5,2020.2.10,Win32,60,61025ae37ef11b136ea224fe,,,,,,,,,912,51,92,1,0,0,response1disk,,7,27,9,1,0,0,rectangle,27,9,1,0,0,27,9,1,0,0,0,9,9,70,1,,,,,,,,
,,,,,,,,,,,,,FF,,,,,,,,1.184200001,,,,,,,,,,,,,,,,,,,,,,60fe2fed581d95673bd181af,61036abcc1555c65405eddeb,2021-07-29_22h00.29.403,Simcolourproject_2stim_asymm_v5,2020.2.10,Win32,60,61025ae37ef11b136ea224fe,,,,,,,,,7,48,91,1,0,0,response1disk,,7,23,14,1,0,0,rectangle,71,142,1,0,0,18,2,1,0,0,0,10,10,152,1,,response1disk_3,TRUE,7,7,"[215,180,29,235,278,255,243,11,20,65,136,213,64,236,94,233,273,52,297,7]",2.2332,rectangle
,,,,,,,,,,,,,FF,,,,,,,,1.332900001,,,,,,,,,,,,,,,,,,,,,,60fe2fed581d95673bd181af,61036abcc1555c65405eddeb,2021-07-29_22h00.29.403,Simcolourproject_2stim_asymm_v5,2020.2.10,Win32,60,61025ae37ef11b136ea224fe,,,,,,,,,2663,47,106,1,0,0,response1disk,,7,21,6,1,0,0,rectangle,21,6,1,0,0,21,6,1,0,0,0,11,11,82,1,,,,,,,,
,,,,,,,,,,,,,FF,,,,,,,,1.149900001,,,,,,,,,,,,,,,,,,,,,,60fe2fed581d95673bd181af,61036abcc1555c65405eddeb,2021-07-29_22h00.29.403,Simcolourproject_2stim_asymm_v5,2020.2.10,Win32,60,61025ae37ef11b136ea224fe,,,,,,,,,2874,62,108,1,0,0,response1disk,,7,12,10,1,0,0,rectangle,12,10,1,0,0,12,10,1,0,0,0,12,12,1,1,,,,,,,,
,,,,,,,,,,,,,FF,,,,,,,,0.95,,,,,,,,,,,,,,,,,,,,,,60fe2fed581d95673bd181af,61036abcc1555c65405eddeb,2021-07-29_22h00.29.403,Simcolourproject_2stim_asymm_v5,2020.2.10,Win32,60,61025ae37ef11b136ea224fe,,,,,,,,,1944,51,123,1,0,0,response1disk,,7,16,14,1,0,0,rectangle,16,14,1,0,0,16,14,1,0,0,0,13,13,6,1,,,,,,,,
,,,,,,,,,,,,,FF,,,,,,,,1.2998,,,,,,,,,,,,,,,,,,,,,,60fe2fed581d95673bd181af,61036abcc1555c65405eddeb,2021-07-29_22h00.29.403,Simcolourproject_2stim_asymm_v5,2020.2.10,Win32,60,61025ae37ef11b136ea224fe,,,,,,,,,2465,45,71,1,0,0,response1disk,,7,24,-1,1,0,0,rectangle,24,-1,1,0,0,24,-1,1,0,0,0,14,14,110,1,,,,,,,,
,,,,,,,,,,,,,FF,,,,,,,,1.017,,,,,,,,,,,,,,,,,,,,,,60fe2fed581d95673bd181af,61036abcc1555c65405eddeb,2021-07-29_22h00.29.403,Simcolourproject_2stim_asymm_v5,2020.2.10,Win32,60,61025ae37ef11b136ea224fe,,,,,,,,,2504,72,88,1,0,0,response1disk,,7,30,5,1,0,0,rectangle,30,5,1,0,0,30,5,1,0,0,0,15,15,86,1,,,,,,,,
,,,,,,,,,,,,,FF,,,,,,,,11.8823,,,,,,,,,,,,,,,,,,,,,,60fe2fed581d95673bd181af,61036abcc1555c65405eddeb,2021-07-29_22h00.29.403,Simcolourproject_2stim_asymm_v5,2020.2.10,Win32,60,61025ae37ef11b136ea224fe,,,,,,,,,1144,-54,94,1,0,0,response7disk,,0,-23,2,1,0,0,rectangle,-23,2,1,0,0,-23,2,1,0,0,0,16,16,47,1,,,,,,,,
,,,,,,,,,,,,,FF,,,,,,,,1.599400001,,,,,,,,,,,,,,,,,,,,,,60fe2fed581d95673bd181af,61036abcc1555c65405eddeb,2021-07-29_22h00.29.403,Simcolourproject_2stim_asymm_v5,2020.2.10,Win32,60,61025ae37ef11b136ea224fe,,,,,,,,,4190,-48,97,1,0,0,response7disk,,0,-5,1,1,0,0,rectangle,-5,1,1,0,0,-5,1,1,0,0,0,17,17,125,1,,,,,,,,
,,,,,,,,,,,,,FF,,,,,,,,1.5817,,,,,,,,,,,,,,,,,,,,,,60fe2fed581d95673bd181af,61036abcc1555c65405eddeb,2021-07-29_22h00.29.403,Simcolourproject_2stim_asymm_v5,2020.2.10,Win32,60,61025ae37ef11b136ea224fe,,,,,,,,,924,-38,96,1,0,0,response7disk,,0,-8,-8,1,0,0,rectangle,-8,-8,1,0,0,-8,-8,1,0,0,0,18,18,120,1,,,,,,,,
,,,,,,,,,,,,,FF,,,,,,,,1.5668,,,,,,,,,,,,,,,,,,,,,,60fe2fed581d95673bd181af,61036abcc1555c65405eddeb,2021-07-29_22h00.29.403,Simcolourproject_2stim_asymm_v5,2020.2.10,Win32,60,61025ae37ef11b136ea224fe,,,,,,,,,9,-54,120,1,0,0,response7disk,,0,-5,11,1,0,0,rectangle,109,53,1,0,0,15,10,1,0,0,0,19,19,67,1,,response1disk_3,TRUE,6,6,"[215,180,29,235,278,255,243,11,20,65,136,213,64,236,94,233,273,52,297,7]",2.2157,rectangle
,,,,,,,,,,,,,FF,,,,,,,,3.4335,,,,,,,,,,,,,,,,,,,,,,60fe2fed581d95673bd181af,61036abcc1555c65405eddeb,2021-07-29_22h00.29.403,Simcolourproject_2stim_asymm_v5,2020.2.10,Win32,60,61025ae37ef11b136ea224fe,,,,,,,,,2269,-34,126,1,0,0,response7disk,,0,-9,-3,1,0,0,rectangle,-9,-3,1,0,0,-9,-3,1,0,0,0,20,20,139,1,,,,,,,,
,,,,,,,,,,,,,FF,,,,,,,,1.550599999,,,,,,,,,,,,,,,,,,,,,,60fe2fed581d95673bd181af,61036abcc1555c65405eddeb,2021-07-29_22h00.29.403,Simcolourproject_2stim_asymm_v5,2020.2.10,Win32,60,61025ae37ef11b136ea224fe,,,,,,,,,1328,-67,134,1,0,0,response7disk,,0,-26,14,1,0,0,rectangle,-26,14,1,0,0,-26,14,1,0,0,0,21,21,144,1,,,,,,,,
,,,,,,,,,,,,,FF,,,,,,,,2.2995,,,,,,,,,,,,,,,,,,,,,,60fe2fed581d95673bd181af,61036abcc1555c65405eddeb,2021-07-29_22h00.29.403,Simcolourproject_2stim_asymm_v5,2020.2.10,Win32,60,61025ae37ef11b136ea224fe,,,,,,,,,715,-42,100,1,0,0,response7disk,,0,-27,2,1,0,0,rectangle,-27,2,1,0,0,-27,2,1,0,0,0,22,22,58,1,,,,,,,,
,,,,,,,,,,,,,FF,,,,,,,,1.383,,,,,,,,,,,,,,,,,,,,,,60fe2fed581d95673bd181af,61036abcc1555c65405eddeb,2021-07-29_22h00.29.403,Simcolourproject_2stim_asymm_v5,2020.2.10,Win32,60,61025ae37ef11b136ea224fe,,,,,,,,,3399,-57,91,1,0,0,response7disk,,0,-19,10,1,0,0,rectangle,-19,10,1,0,0,-19,10,1,0,0,0,23,23,69,1,,,,,,,,
,,,,,,,,,,,,,FF,,,,,,,,1.249799999,,,,,,,,,,,,,,,,,,,,,,60fe2fed581d95673bd181af,61036abcc1555c65405eddeb,2021-07-29_22h00.29.403,Simcolourproject_2stim_asymm_v5,2020.2.10,Win32,60,61025ae37ef11b136ea224fe,,,,,,,,,1721,-61,93,1,0,0,response7disk,,0,-16,13,1,0,0,rectangle,-16,13,1,0,0,-16,13,1,0,0,0,24,24,31,1,,,,,,,,
,,,,,,,,,,,,,FF,,,,,,,,1.550099999,,,,,,,,,,,,,,,,,,,,,,60fe2fed581d95673bd181af,61036abcc1555c65405eddeb,2021-07-29_22h00.29.403,Simcolourproject_2stim_asymm_v5,2020.2.10,Win32,60,61025ae37ef11b136ea224fe,,,,,,,,,394,-52,111,1,0,0,response7disk,,0,5,6,1,0,0,rectangle,5,6,1,0,0,5,6,1,0,0,0,25,25,30,1,,,,,,,,
,,,,,,,,,,,,,FF,,,,,,,,1.6167,,,,,,,,,,,,,,,,,,,,,,60fe2fed581d95673bd181af,61036abcc1555c65405eddeb,2021-07-29_22h00.29.403,Simcolourproject_2stim_asymm_v5,2020.2.10,Win32,60,61025ae37ef11b136ea224fe,,,,,,,,,946,-40,88,1,0,0,response7disk,,0,11,6,1,0,0,rectangle,11,6,1,0,0,11,6,1,0,0,0,26,26,88,1,,,,,,,,
,,,,,,,,,,,,,FF,,,,,,,,2.0999,,,,,,,,,,,,,,,,,,,,,,60fe2fed581d95673bd181af,61036abcc1555c65405eddeb,2021-07-29_22h00.29.403,Simcolourproject_2stim_asymm_v5,2020.2.10,Win32,60,61025ae37ef11b136ea224fe,,,,,,,,,4271,-35,58,1,0,0,response7disk,,0,-2,-16,1,0,0,rectangle,-2,-16,1,0,0,-2,-16,1,0,0,0,27,27,57,1,,,,,,,,
,,,,,,,,,,,,,FF,,,,,,,,2.065,,,,,,,,,,,,,,,,,,,,,,60fe2fed581d95673bd181af,61036abcc1555c65405eddeb,2021-07-29_22h00.29.403,Simcolourproject_2stim_asymm_v5,2020.2.10,Win32,60,61025ae37ef11b136ea224fe,,,,,,,,,998,-38,75,1,0,0,response7disk,,0,-7,-4,1,0,0,rectangle,-101,-33,1,0,0,-9,-6,1,0,0,0,28,28,157,1,,response5disk_3,TRUE,2,2,"[215,180,29,235,278,255,243,11,20,65,136,213,64,236,94,233,273,52,297,7]",2.682599999,rectangle
,,,,,,,,,,,,,FF,,,,,,,,3.0004,,,,,,,,,,,,,,,,,,,,,,60fe2fed581d95673bd181af,61036abcc1555c65405eddeb,2021-07-29_22h00.29.403,Simcolourproject_2stim_asymm_v5,2020.2.10,Win32,60,61025ae37ef11b136ea224fe,,,,,,,,,1057,-39,114,1,0,0,response7disk,,0,-8,15,1,0,0,rectangle,-8,15,1,0,0,-8,15,1,0,0,0,29,29,22,1,,,,,,,,
,,,,,,,,,,,,,FF,,,,,,,,1.734,,,,,,,,,,,,,,,,,,,,,,60fe2fed581d95673bd181af,61036abcc1555c65405eddeb,2021-07-29_22h00.29.403,Simcolourproject_2stim_asymm_v5,2020.2.10,Win32,60,61025ae37ef11b136ea224fe,,,,,,,,,2873,-43,83,1,0,0,response7disk,,0,-15,8,1,0,0,rectangle,-15,8,1,0,0,-15,8,1,0,0,0,30,30,111,1,,,,,,,,
,,,,,,,,,,,,,FF,,,,,,,,1.1996,,,,,,,,,,,,,,,,,,,,,,60fe2fed581d95673bd181af,61036abcc1555c65405eddeb,2021-07-29_22h00.29.403,Simcolourproject_2stim_asymm_v5,2020.2.10,Win32,60,61025ae37ef11b136ea224fe,,,,,,,,,319,-50,67,1,0,0,response7disk,,0,-9,12,1,0,0,rectangle,-9,12,1,0,0,-9,12,1,0,0,0,31,31,61,1,,,,,,,,
,,,,,,,,,,,,,FF,,,,,,,,1.1669,,,,,,,,,,,,,,,,,,,,,,60fe2fed581d95673bd181af,61036abcc1555c65405eddeb,2021-07-29_22h00.29.403,Simcolourproject_2stim_asymm_v5,2020.2.10,Win32,60,61025ae37ef11b136ea224fe,,,,,,,,,2046,-43,70,1,0,0,response7disk,,0,-8,-2,1,0,0,rectangle,-8,-2,1,0,0,-8,-2,1,0,0,0,32,32,20,1,,,,,,,,
,,,,,,,,,,,,,FF,,,,,,,,0.8836,,,,,,,,,,,,,,,,,,,,,,60fe2fed581d95673bd181af,61036abcc1555c65405eddeb,2021-07-29_22h00.29.403,Simcolourproject_2stim_asymm_v5,2020.2.10,Win32,60,61025ae37ef11b136ea224fe,,,,,,,,,222,-35,56,1,0,0,response7disk,,0,-13,17,1,0,0,rectangle,-13,17,1,0,0,-13,17,1,0,0,0,33,33,80,1,,,,,,,,
,,,,,,,,,,,,,FF,,,,,,,,2.1995,,,,,,,,,,,,,,,,,,,,,,60fe2fed581d95673bd181af,61036abcc1555c65405eddeb,2021-07-29_22h00.29.403,Simcolourproject_2stim_asymm_v5,2020.2.10,Win32,60,61025ae37ef11b136ea224fe,,,,,,,,,3338,-41,83,1,0,0,response7disk,,0,-10,7,1,0,0,rectangle,-10,7,1,0,0,-10,7,1,0,0,0,34,34,118,1,,,,,,,,
,,,,,,,,,,,,,FF,,,,,,,,1.3168,,,,,,,,,,,,,,,,,,,,,,60fe2fed581d95673bd181af,61036abcc1555c65405eddeb,2021-07-29_22h00.29.403,Simcolourproject_2stim_asymm_v5,2020.2.10,Win32,60,61025ae37ef11b136ea224fe,,,,,,,,,2835,-50,81,1,0,0,response7disk,,0,-22,8,1,0,0,rectangle,-22,8,1,0,0,-22,8,1,0,0,0,35,35,8,1,,,,,,,,
,,,,,,,,,,,,,FF,,,,,,,,1.333400001,,,,,,,,,,,,,,,,,,,,,,60fe2fed581d95673bd181af,61036abcc1555c65405eddeb,2021-07-29_22h00.29.403,Simcolourproject_2stim_asymm_v5,2020.2.10,Win32,60,61025ae37ef11b136ea224fe,,,,,,,,,1277,-59,88,1,0,0,response7disk,,0,-16,11,1,0,0,rectangle,-16,11,1,0,0,-16,11,1,0,0,0,36,36,15,1,,,,,,,,
,,,,,,,,,,,,,FF,,,,,,,,1.666599999,,,,,,,,,,,,,,,,,,,,,,60fe2fed581d95673bd181af,61036abcc1555c65405eddeb,2021-07-29_22h00.29.403,Simcolourproject_2stim_asymm_v5,2020.2.10,Win32,60,61025ae37ef11b136ea224fe,,,,,,,,,1622,-54,96,1,0,0,response7disk,,0,-23,3,1,0,0,rectangle,-23,3,1,0,0,-23,3,1,0,0,0,37,37,45,1,,,,,,,,
,,,,,,,,,,,,,FF,,,,,,,,1.0835,,,,,,,,,,,,,,,,,,,,,,60fe2fed581d95673bd181af,61036abcc1555c65405eddeb,2021-07-29_22h00.29.403,Simcolourproject_2stim_asymm_v5,2020.2.10,Win32,60,61025ae37ef11b136ea224fe,,,,,,,,,219,-49,82,1,0,0,response7disk,,0,-27,14,1,0,0,rectangle,-27,14,1,0,0,-27,14,1,0,0,0,38,38,66,1,,,,,,,,
,,,,,,,,,,,,,FF,,,,,,,,0.85,,,,,,,,,,,,,,,,,,,,,,60fe2fed581d95673bd181af,61036abcc1555c65405eddeb,2021-07-29_22h00.29.403,Simcolourproject_2stim_asymm_v5,2020.2.10,Win32,60,61025ae37ef11b136ea224fe,,,,,,,,,1158,-56,94,1,0,0,response7disk,,0,-31,8,1,0,0,rectangle,-31,8,1,0,0,-31,8,1,0,0,0,39,39,44,1,,,,,,,,
,,,,,,,,,,,,,FF,,,,,,,,0.751799999,,,,,,,,,,,,,,,,,,,,,,60fe2fed581d95673bd181af,61036abcc1555c65405eddeb,2021-07-29_22h00.29.403,Simcolourproject_2stim_asymm_v5,2020.2.10,Win32,60,61025ae37ef11b136ea224fe,,,,,,,,,2729,-59,95,1,0,0,response7disk,,0,-23,9,1,0,0,rectangle,-23,9,1,0,0,-23,9,1,0,0,0,40,40,14,1,,,,,,,,
,,,,,,,,,,,,,FF,,,,,,,,1.4501,,,,,,,,,,,,,,,,,,,,,,60fe2fed581d95673bd181af,61036abcc1555c65405eddeb,2021-07-29_22h00.29.403,Simcolourproject_2stim_asymm_v5,2020.2.10,Win32,60,61025ae37ef11b136ea224fe,,,,,,,,,2329,-29,77,1,0,0,response7disk,,0,-9,13,1,0,0,rectangle,-9,13,1,0,0,-9,13,1,0,0,0,41,41,133,1,,,,,,,,
,,,,,,,,,,,,,FF,,,,,,,,0.9338,,,,,,,,,,,,,,,,,,,,,,60fe2fed581d95673bd181af,61036abcc1555c65405eddeb,2021-07-29_22h00.29.403,Simcolourproject_2stim_asymm_v5,2020.2.10,Win32,60,61025ae37ef11b136ea224fe,,,,,,,,,1835,-47,97,1,0,0,response7disk,,0,3,6,1,0,0,rectangle,3,6,1,0,0,3,6,1,0,0,0,42,42,71,1,,,,,,,,
,,,,,,,,,,,,,FF,,,,,,,,5.4155,,,,,,,,,,,,,,,,,,,,,,60fe2fed581d95673bd181af,61036abcc1555c65405eddeb,2021-07-29_22h00.29.403,Simcolourproject_2stim_asymm_v5,2020.2.10,Win32,60,61025ae37ef11b136ea224fe,,,,,,,,,2572,-47,115,1,0,0,response7disk,,0,-7,5,1,0,0,rectangle,-7,5,1,0,0,-7,5,1,0,0,0,43,43,24,1,,,,,,,,
,,,,,,,,,,,,,FF,,,,,,,,1.700200001,,,,,,,,,,,,,,,,,,,,,,60fe2fed581d95673bd181af,61036abcc1555c65405eddeb,2021-07-29_22h00.29.403,Simcolourproject_2stim_asymm_v5,2020.2.10,Win32,60,61025ae37ef11b136ea224fe,,,,,,,,,4093,-44,89,1,0,0,response7disk,,0,-15,-3,1,0,0,rectangle,-15,-3,1,0,0,-15,-3,1,0,0,0,44,44,21,1,,,,,,,,
,,,,,,,,,,,,,FF,,,,,,,,1.0505,,,,,,,,,,,,,,,,,,,,,,60fe2fed581d95673bd181af,61036abcc1555c65405eddeb,2021-07-29_22h00.29.403,Simcolourproject_2stim_asymm_v5,2020.2.10,Win32,60,61025ae37ef11b136ea224fe,,,,,,,,,2448,-55,65,1,0,0,response7disk,,0,-12,-15,1,0,0,rectangle,-12,-15,1,0,0,-12,-15,1,0,0,0,45,45,100,1,,,,,,,,
,,,,,,,,,,,,,FF,,,,,,,,1.167200001,,,,,,,,,,,,,,,,,,,,,,60fe2fed581d95673bd181af,61036abcc1555c65405eddeb,2021-07-29_22h00.29.403,Simcolourproject_2stim_asymm_v5,2020.2.10,Win32,60,61025ae37ef11b136ea224fe,,,,,,,,,1714,-37,62,1,0,0,response7disk,,0,-17,6,1,0,0,rectangle,-17,6,1,0,0,-17,6,1,0,0,0,46,46,121,1,,,,,,,,
,,,,,,,,,,,,,FF,,,,,,,,1.0994,,,,,,,,,,,,,,,,,,,,,,60fe2fed581d95673bd181af,61036abcc1555c65405eddeb,2021-07-29_22h00.29.403,Simcolourproject_2stim_asymm_v5,2020.2.10,Win32,60,61025ae37ef11b136ea224fe,,,,,,,,,375,-63,97,1,0,0,response7disk,,0,-19,21,1,0,0,rectangle,-19,21,1,0,0,-19,21,1,0,0,0,47,47,119,1,,,,,,,,
,,,,,,,,,,,,,FF,,,,,,,,1.567400001,,,,,,,,,,,,,,,,,,,,,,60fe2fed581d95673bd181af,61036abcc1555c65405eddeb,2021-07-29_22h00.29.403,Simcolourproject_2stim_asymm_v5,2020.2.10,Win32,60,61025ae37ef11b136ea224fe,,,,,,,,,1524,-52,91,1,0,0,response7disk,,0,-3,-1,1,0,0,rectangle,-3,-1,1,0,0,-3,-1,1,0,0,0,48,48,96,1,,,,,,,,
,,,,,,,,,,,,,FF,,,,,,,,1.1332,,,,,,,,,,,,,,,,,,,,,,60fe2fed581d95673bd181af,61036abcc1555c65405eddeb,2021-07-29_22h00.29.403,Simcolourproject_2stim_asymm_v5,2020.2.10,Win32,60,61025ae37ef11b136ea224fe,,,,,,,,,1294,-52,98,1,0,0,response7disk,,0,-19,20,1,0,0,rectangle,-19,20,1,0,0,-19,20,1,0,0,0,49,49,129,1,,,,,,,,
,,,,,,,,,,,,,FF,,,,,,,,3.2004,,,,,,,,,,,,,,,,,,,,,,60fe2fed581d95673bd181af,61036abcc1555c65405eddeb,2021-07-29_22h00.29.403,Simcolourproject_2stim_asymm_v5,2020.2.10,Win32,60,61025ae37ef11b136ea224fe,,,,,,,,,1737,-36,63,1,0,0,response7disk,,0,5,-4,1,0,0,rectangle,5,-4,1,0,0,5,-4,1,0,0,0,50,50,102,1,,,,,,,,
,,,,,,,,,,,,,FF,,,,,,,,0.966599999,,,,,,,,,,,,,,,,,,,,,,60fe2fed581d95673bd181af,61036abcc1555c65405eddeb,2021-07-29_22h00.29.403,Simcolourproject_2stim_asymm_v5,2020.2.10,Win32,60,61025ae37ef11b136ea224fe,,,,,,,,,500,-38,69,1,0,0,response7disk,,0,-8,2,1,0,0,rectangle,-101,38,1,0,0,-8,-11,1,0,0,0,51,51,75,1,,response7disk_3,TRUE,1,1,"[215,180,29,235,278,255,243,11,20,65,136,213,64,236,94,233,273,52,297,7]",2.2688,rectangle
,,,,,,,,,,,,,FF,,,,,,,,2.8571,,,,,,,,,,,,,,,,,,,,,,60fe2fed581d95673bd181af,61036abcc1555c65405eddeb,2021-07-29_22h00.29.403,Simcolourproject_2stim_asymm_v5,2020.2.10,Win32,60,61025ae37ef11b136ea224fe,,,,,,,,,3895,-62,96,1,0,0,response7disk,,0,25,-7,1,0,0,rectangle,25,-7,1,0,0,25,-7,1,0,0,0,52,52,155,1,,,,,,,,
,,,,,,,,,,,,,FF,,,,,,,,2.2663,,,,,,,,,,,,,,,,,,,,,,60fe2fed581d95673bd181af,61036abcc1555c65405eddeb,2021-07-29_22h00.29.403,Simcolourproject_2stim_asymm_v5,2020.2.10,Win32,60,61025ae37ef11b136ea224fe,,,,,,,,,646,-52,117,1,0,0,response7disk,,0,11,-19,1,0,0,rectangle,11,-19,1,0,0,11,-19,1,0,0,0,53,53,93,1,,,,,,,,
,,,,,,,,,,,,,FF,,,,,,,,1.9665,,,,,,,,,,,,,,,,,,,,,,60fe2fed581d95673bd181af,61036abcc1555c65405eddeb,2021-07-29_22h00.29.403,Simcolourproject_2stim_asymm_v5,2020.2.10,Win32,60,61025ae37ef11b136ea224fe,,,,,,,,,4024,-43,89,1,0,0,response7disk,,0,-9,-3,1,0,0,rectangle,-9,-3,1,0,0,-9,-3,1,0,0,0,54,54,13,1,,,,,,,,
,,,,,,,,,,,,,FF,,,,,,,,0.9667,,,,,,,,,,,,,,,,,,,,,,60fe2fed581d95673bd181af,61036abcc1555c65405eddeb,2021-07-29_22h00.29.403,Simcolourproject_2stim_asymm_v5,2020.2.10,Win32,60,61025ae37ef11b136ea224fe,,,,,,,,,4048,-53,67,1,0,0,response7disk,,0,-26,1,1,0,0,rectangle,-26,1,1,0,0,-26,1,1,0,0,0,55,55,130,1,,,,,,,,
,,,,,,,,,,,,,FF,,,,,,,,1.2169,,,,,,,,,,,,,,,,,,,,,,60fe2fed581d95673bd181af,61036abcc1555c65405eddeb,2021-07-29_22h00.29.403,Simcolourproject_2stim_asymm_v5,2020.2.10,Win32,60,61025ae37ef11b136ea224fe,,,,,,,,,3638,-34,78,1,0,0,response7disk,,0,-17,7,1,0,0,rectangle,-17,7,1,0,0,-17,7,1,0,0,0,56,56,95,1,,,,,,,,
,,,,,,,,,,,,,FF,,,,,,,,1.5669,,,,,,,,,,,,,,,,,,,,,,60fe2fed581d95673bd181af,61036abcc1555c65405eddeb,2021-07-29_22h00.29.403,Simcolourproject_2stim_asymm_v5,2020.2.10,Win32,60,61025ae37ef11b136ea224fe,,,,,,,,,1643,-65,102,1,0,0,response7disk,,0,-14,-9,1,0,0,rectangle,-14,-9,1,0,0,-14,-9,1,0,0,0,57,57,85,1,,,,,,,,
,,,,,,,,,,,,,FF,,,,,,,,0.934,,,,,,,,,,,,,,,,,,,,,,60fe2fed581d95673bd181af,61036abcc1555c65405eddeb,2021-07-29_22h00.29.403,Simcolourproject_2stim_asymm_v5,2020.2.10,Win32,60,61025ae37ef11b136ea224fe,,,,,,,,,1419,-51,82,1,0,0,response7disk,,0,-9,0,1,0,0,rectangle,-9,0,1,0,0,-9,0,1,0,0,0,58,58,127,1,,,,,,,,
,,,,,,,,,,,,,FF,,,,,,,,1.05,,,,,,,,,,,,,,,,,,,,,,60fe2fed581d95673bd181af,61036abcc1555c65405eddeb,2021-07-29_22h00.29.403,Simcolourproject_2stim_asymm_v5,2020.2.10,Win32,60,61025ae37ef11b136ea224fe,,,,,,,,,143,-37,74,1,0,0,response7disk,,0,-28,16,1,0,0,rectangle,-28,16,1,0,0,-28,16,1,0,0,0,59,59,158,1,,,,,,,,
,,,,,,,,,,,,,FF,,,,,,,,1.3836,,,,,,,,,,,,,,,,,,,,,,60fe2fed581d95673bd181af,61036abcc1555c65405eddeb,2021-07-29_22h00.29.403,Simcolourproject_2stim_asymm_v5,2020.2.10,Win32,60,61025ae37ef11b136ea224fe,,,,,,,,,2557,-35,81,1,0,0,response7disk,,0,-8,21,1,0,0,rectangle,-8,21,1,0,0,-8,21,1,0,0,0,60,60,68,1,,,,,,,,
,,,,,,,,,,,,,FF,,,,,,,,1.8833,,,,,,,,,,,,,,,,,,,,,,60fe2fed581d95673bd181af,61036abcc1555c65405eddeb,2021-07-29_22h00.29.403,Simcolourproject_2stim_asymm_v5,2020.2.10,Win32,60,61025ae37ef11b136ea224fe,,,,,,,,,228,-47,103,1,0,0,response7disk,,0,-7,20,1,0,0,rectangle,-7,20,1,0,0,-7,20,1,0,0,0,61,61,52,1,,,,,,,,
,,,,,,,,,,,,,FF,,,,,,,,1.1169,,,,,,,,,,,,,,,,,,,,,,60fe2fed581d95673bd181af,61036abcc1555c65405eddeb,2021-07-29_22h00.29.403,Simcolourproject_2stim_asymm_v5,2020.2.10,Win32,60,61025ae37ef11b136ea224fe,,,,,,,,,3740,-38,87,1,0,0,response7disk,,0,-15,-3,1,0,0,rectangle,-15,-3,1,0,0,-15,-3,1,0,0,0,62,62,154,1,,,,,,,,
,,,,,,,,,,,,,FF,,,,,,,,1.616400001,,,,,,,,,,,,,,,,,,,,,,60fe2fed581d95673bd181af,61036abcc1555c65405eddeb,2021-07-29_22h00.29.403,Simcolourproject_2stim_asymm_v5,2020.2.10,Win32,60,61025ae37ef11b136ea224fe,,,,,,,,,900,-60,107,1,0,0,response7disk,,0,-27,8,1,0,0,rectangle,-46,-116,1,0,0,3,5,1,0,0,0,63,63,104,1,,response5disk_3,TRUE,3,3,"[215,180,29,235,278,255,243,11,20,65,136,213,64,236,94,233,273,52,297,7]",2.716900001,rectangle
,,,,,,,,,,,,,FF,,,,,,,,3.3994,,,,,,,,,,,,,,,,,,,,,,60fe2fed581d95673bd181af,61036abcc1555c65405eddeb,2021-07-29_22h00.29.403,Simcolourproject_2stim_asymm_v5,2020.2.10,Win32,60,61025ae37ef11b136ea224fe,,,,,,,,,2225,-35,96,1,0,0,response7disk,,0,-12,11,1,0,0,rectangle,-43,119,1,0,0,5,4,1,0,0,0,64,64,136,1,,response7disk_3,TRUE,0,0,"[215,180,29,235,278,255,243,11,20,65,136,213,64,236,94,233,273,52,297,7]",2.716,rectangle
,,,,,,,,,,,,,FF,,,,,,,,1.7661,,,,,,,,,,,,,,,,,,,,,,60fe2fed581d95673bd181af,61036abcc1555c65405eddeb,2021-07-29_22h00.29.403,Simcolourproject_2stim_asymm_v5,2020.2.10,Win32,60,61025ae37ef11b136ea224fe,,,,,,,,,2297,-44,87,1,0,0,response7disk,,0,-6,-1,1,0,0,rectangle,-6,-1,1,0,0,-6,-1,1,0,0,0,65,65,4,1,,,,,,,,
,,,,,,,,,,,,,FF,,,,,,,,4.8497,,,,,,,,,,,,,,,,,,,,,,60fe2fed581d95673bd181af,61036abcc1555c65405eddeb,2021-07-29_22h00.29.403,Simcolourproject_2stim_asymm_v5,2020.2.10,Win32,60,61025ae37ef11b136ea224fe,,,,,,,,,2104,-37,70,1,0,0,response7disk,,0,0,-8,1,0,0,rectangle,0,-8,1,0,0,0,-8,1,0,0,0,66,66,54,1,,,,,,,,
,,,,,,,,,,,,,FF,,,,,,,,0.8829,,,,,,,,,,,,,,,,,,,,,,60fe2fed581d95673bd181af,61036abcc1555c65405eddeb,2021-07-29_22h00.29.403,Simcolourproject_2stim_asymm_v5,2020.2.10,Win32,60,61025ae37ef11b136ea224fe,,,,,,,,,3350,-49,79,1,0,0,response7disk,,0,-3,-9,1,0,0,rectangle,-3,-9,1,0,0,-3,-9,1,0,0,0,67,67,142,1,,,,,,,,
,,,,,,,,,,,,,FF,,,,,,,,1.0998,,,,,,,,,,,,,,,,,,,,,,60fe2fed581d95673bd181af,61036abcc1555c65405eddeb,2021-07-29_22h00.29.403,Simcolourproject_2stim_asymm_v5,2020.2.10,Win32,60,61025ae37ef11b136ea224fe,,,,,,,,,2959,-31,71,1,0,0,response7disk,,0,-16,13,1,0,0,rectangle,-16,13,1,0,0,-16,13,1,0,0,0,68,68,41,1,,,,,,,,
,,,,,,,,,,,,,FF,,,,,,,,1.0154,,,,,,,,,,,,,,,,,,,,,,60fe2fed581d95673bd181af,61036abcc1555c65405eddeb,2021-07-29_22h00.29.403,Simcolourproject_2stim_asymm_v5,2020.2.10,Win32,60,61025ae37ef11b136ea224fe,,,,,,,,,1014,-49,88,1,0,0,response7disk,,0,-13,-13,1,0,0,rectangle,-13,-13,1,0,0,-13,-13,1,0,0,0,69,69,132,1,,,,,,,,
,,,,,,,,,,,,,FF,,,,,,,,1.0168,,,,,,,,,,,,,,,,,,,,,,60fe2fed581d95673bd181af,61036abcc1555c65405eddeb,2021-07-29_22h00.29.403,Simcolourproject_2stim_asymm_v5,2020.2.10,Win32,60,61025ae37ef11b136ea224fe,,,,,,,,,3476,-54,99,1,0,0,response7disk,,0,-19,0,1,0,0,rectangle,-19,0,1,0,0,-19,0,1,0,0,0,70,70,59,1,,,,,,,,
,,,,,,,,,,,,,FF,,,,,,,,0.9835,,,,,,,,,,,,,,,,,,,,,,60fe2fed581d95673bd181af,61036abcc1555c65405eddeb,2021-07-29_22h00.29.403,Simcolourproject_2stim_asymm_v5,2020.2.10,Win32,60,61025ae37ef11b136ea224fe,,,,,,,,,1127,-55,66,1,0,0,response7disk,,0,-25,-12,1,0,0,rectangle,-25,-12,1,0,0,-25,-12,1,0,0,0,71,71,27,1,,,,,,,,
,,,,,,,,,,,,,FF,,,,,,,,1.0001,,,,,,,,,,,,,,,,,,,,,,60fe2fed581d95673bd181af,61036abcc1555c65405eddeb,2021-07-29_22h00.29.403,Simcolourproject_2stim_asymm_v5,2020.2.10,Win32,60,61025ae37ef11b136ea224fe,,,,,,,,,901,-46,107,1,0,0,response7disk,,0,-15,8,1,0,0,rectangle,-15,8,1,0,0,-15,8,1,0,0,0,72,72,39,1,,,,,,,,
,,,,,,,,,,,,,FF,,,,,,,,0.983299999,,,,,,,,,,,,,,,,,,,,,,60fe2fed581d95673bd181af,61036abcc1555c65405eddeb,2021-07-29_22h00.29.403,Simcolourproject_2stim_asymm_v5,2020.2.10,Win32,60,61025ae37ef11b136ea224fe,,,,,,,,,3212,-42,68,1,0,0,response7disk,,0,-20,-8,1,0,0,rectangle,-20,-8,1,0,0,-20,-8,1,0,0,0,73,73,112,1,,,,,,,,
,,,,,,,,,,,,,FF,,,,,,,,1.9162,,,,,,,,,,,,,,,,,,,,,,60fe2fed581d95673bd181af,61036abcc1555c65405eddeb,2021-07-29_22h00.29.403,Simcolourproject_2stim_asymm_v5,2020.2.10,Win32,60,61025ae37ef11b136ea224fe,,,,,,,,,4348,-46,71,1,0,0,response7disk,,0,-18,1,1,0,0,rectangle,-18,1,1,0,0,-18,1,1,0,0,0,74,74,128,1,,,,,,,,
,,,,,,,,,,,,,FF,,,,,,,,8.4327,,,,,,,,,,,,,,,,,,,,,,60fe2fed581d95673bd181af,61036abcc1555c65405eddeb,2021-07-29_22h00.29.403,Simcolourproject_2stim_asymm_v5,2020.2.10,Win32,60,61025ae37ef11b136ea224fe,,,,,,,,,2587,-44,81,1,0,0,response7disk,,0,-6,7,1,0,0,rectangle,-6,7,1,0,0,-6,7,1,0,0,0,75,75,145,1,,,,,,,,
,,,,,,,,,,,,,FF,,,,,,,,1.2834,,,,,,,,,,,,,,,,,,,,,,60fe2fed581d95673bd181af,61036abcc1555c65405eddeb,2021-07-29_22h00.29.403,Simcolourproject_2stim_asymm_v5,2020.2.10,Win32,60,61025ae37ef11b136ea224fe,,,,,,,,,3244,-30,59,1,0,0,response7disk,,0,-13,2,1,0,0,rectangle,-13,2,1,0,0,-13,2,1,0,0,0,76,76,63,1,,,,,,,,
,,,,,,,,,,,,,FF,,,,,,,,1.8834,,,,,,,,,,,,,,,,,,,,,,60fe2fed581d95673bd181af,61036abcc1555c65405eddeb,2021-07-29_22h00.29.403,Simcolourproject_2stim_asymm_v5,2020.2.10,Win32,60,61025ae37ef11b136ea224fe,,,,,,,,,294,-36,77,1,0,0,response7disk,,0,-12,3,1,0,0,rectangle,-12,3,1,0,0,-12,3,1,0,0,0,77,77,2,1,,,,,,,,
,,,,,,,,,,,,,FF,,,,,,,,1.449700001,,,,,,,,,,,,,,,,,,,,,,60fe2fed581d95673bd181af,61036abcc1555c65405eddeb,2021-07-29_22h00.29.403,Simcolourproject_2stim_asymm_v5,2020.2.10,Win32,60,61025ae37ef11b136ea224fe,,,,,,,,,3407,-45,90,1,0,0,response7disk,,0,-18,9,1,0,0,rectangle,-18,9,1,0,0,-18,9,1,0,0,0,78,78,98,1,,,,,,,,
,,,,,,,,,,,,,FF,,,,,,,,1.633099999,,,,,,,,,,,,,,,,,,,,,,60fe2fed581d95673bd181af,61036abcc1555c65405eddeb,2021-07-29_22h00.29.403,Simcolourproject_2stim_asymm_v5,2020.2.10,Win32,60,61025ae37ef11b136ea224fe,,,,,,,,,1914,-44,92,1,0,0,response7disk,,0,-14,8,1,0,0,rectangle,-14,8,1,0,0,-14,8,1,0,0,0,79,79,90,1,,,,,,,,
,,,,,,,,,,,,,FF,,,,,,,,1.5498,,,,,,,,,,,,,,,,,,,,,,60fe2fed581d95673bd181af,61036abcc1555c65405eddeb,2021-07-29_22h00.29.403,Simcolourproject_2stim_asymm_v5,2020.2.10,Win32,60,61025ae37ef11b136ea224fe,,,,,,,,,2673,-33,60,1,0,0,response7disk,,0,-7,-3,1,0,0,rectangle,-7,-3,1,0,0,-7,-3,1,0,0,0,80,80,103,1,,,,,,,,
,,,,,,,,,,,,,FF,,,,,,,,1.133599999,,,,,,,,,,,,,,,,,,,,,,60fe2fed581d95673bd181af,61036abcc1555c65405eddeb,2021-07-29_22h00.29.403,Simcolourproject_2stim_asymm_v5,2020.2.10,Win32,60,61025ae37ef11b136ea224fe,,,,,,,,,4277,-38,101,1,0,0,response7disk,,0,-9,13,1,0,0,rectangle,-9,13,1,0,0,-9,13,1,0,0,0,81,81,74,1,,,,,,,,
,,,,,,,,,,,,,FF,,,,,,,,1.2837,,,,,,,,,,,,,,,,,,,,,,60fe2fed581d95673bd181af,61036abcc1555c65405eddeb,2021-07-29_22h00.29.403,Simcolourproject_2stim_asymm_v5,2020.2.10,Win32,60,61025ae37ef11b136ea224fe,,,,,,,,,1243,-46,110,1,0,0,response7disk,,0,-11,12,1,0,0,rectangle,-11,12,1,0,0,-11,12,1,0,0,0,82,82,10,1,,,,,,,,
,,,,,,,,,,,,,FF,,,,,,,,1.0498,,,,,,,,,,,,,,,,,,,,,,60fe2fed581d95673bd181af,61036abcc1555c65405eddeb,2021-07-29_22h00.29.403,Simcolourproject_2stim_asymm_v5,2020.2.10,Win32,60,61025ae37ef11b136ea224fe,,,,,,,,,1445,-39,101,1,0,0,response7disk,,0,-17,2,1,0,0,rectangle,-17,2,1,0,0,-17,2,1,0,0,0,83,83,91,1,,,,,,,,
,,,,,,,,,,,,,FF,,,,,,,,0.7837,,,,,,,,,,,,,,,,,,,,,,60fe2fed581d95673bd181af,61036abcc1555c65405eddeb,2021-07-29_22h00.29.403,Simcolourproject_2stim_asymm_v5,2020.2.10,Win32,60,61025ae37ef11b136ea224fe,,,,,,,,,327,-46,116,1,0,0,response7disk,,0,13,-10,1,0,0,rectangle,13,-10,1,0,0,13,-10,1,0,0,0,84,84,81,1,,,,,,,,
,,,,,,,,,,,,,FF,,,,,,,,1.6669,,,,,,,,,,,,,,,,,,,,,,60fe2fed581d95673bd181af,61036abcc1555c65405eddeb,2021-07-29_22h00.29.403,Simcolourproject_2stim_asymm_v5,2020.2.10,Win32,60,61025ae37ef11b136ea224fe,,,,,,,,,3041,-27,90,1,0,0,response7disk,,0,-4,-6,1,0,0,rectangle,-4,-6,1,0,0,-4,-6,1,0,0,0,85,85,26,1,,,,,,,,
,,,,,,,,,,,,,FF,,,,,,,,1.383400001,,,,,,,,,,,,,,,,,,,,,,60fe2fed581d95673bd181af,61036abcc1555c65405eddeb,2021-07-29_22h00.29.403,Simcolourproject_2stim_asymm_v5,2020.2.10,Win32,60,61025ae37ef11b136ea224fe,,,,,,,,,4076,-46,100,1,0,0,response7disk,,0,-39,12,1,0,0,rectangle,-39,12,1,0,0,-39,12,1,0,0,0,86,86,123,1,,,,,,,,
,,,,,,,,,,,,,FF,,,,,,,,0.6503,,,,,,,,,,,,,,,,,,,,,,60fe2fed581d95673bd181af,61036abcc1555c65405eddeb,2021-07-29_22h00.29.403,Simcolourproject_2stim_asymm_v5,2020.2.10,Win32,60,61025ae37ef11b136ea224fe,,,,,,,,,3521,-62,91,1,0,0,response7disk,,0,-25,-13,1,0,0,rectangle,-25,-13,1,0,0,-25,-13,1,0,0,0,87,87,3,1,,,,,,,,
,,,,,,,,,,,,,FF,,,,,,,,0.600700001,,,,,,,,,,,,,,,,,,,,,,60fe2fed581d95673bd181af,61036abcc1555c65405eddeb,2021-07-29_22h00.29.403,Simcolourproject_2stim_asymm_v5,2020.2.10,Win32,60,61025ae37ef11b136ea224fe,,,,,,,,,1723,-60,129,1,0,0,response7disk,,0,-27,4,1,0,0,rectangle,-27,4,1,0,0,-27,4,1,0,0,0,88,88,5,1,,,,,,,,
,,,,,,,,,,,,,FF,,,,,,,,0.9998,,,,,,,,,,,,,,,,,,,,,,60fe2fed581d95673bd181af,61036abcc1555c65405eddeb,2021-07-29_22h00.29.403,Simcolourproject_2stim_asymm_v5,2020.2.10,Win32,60,61025ae37ef11b136ea224fe,,,,,,,,,2363,-52,106,1,0,0,response7disk,,0,-6,-1,1,0,0,rectangle,-6,-1,1,0,0,-6,-1,1,0,0,0,89,89,77,1,,,,,,,,
,,,,,,,,,,,,,FF,,,,,,,,1.6999,,,,,,,,,,,,,,,,,,,,,,60fe2fed581d95673bd181af,61036abcc1555c65405eddeb,2021-07-29_22h00.29.403,Simcolourproject_2stim_asymm_v5,2020.2.10,Win32,60,61025ae37ef11b136ea224fe,,,,,,,,,203,-47,95,1,0,0,response7disk,,0,-26,-3,1,0,0,rectangle,-26,-3,1,0,0,-26,-3,1,0,0,0,90,90,122,1,,,,,,,,
,,,,,,,,,,,,,FF,,,,,,,,1.1833,,,,,,,,,,,,,,,,,,,,,,60fe2fed581d95673bd181af,61036abcc1555c65405eddeb,2021-07-29_22h00.29.403,Simcolourproject_2stim_asymm_v5,2020.2.10,Win32,60,61025ae37ef11b136ea224fe,,,,,,,,,262,-35,67,1,0,0,response7disk,,0,-9,-7,1,0,0,rectangle,-9,-7,1,0,0,-9,-7,1,0,0,0,91,91,146,1,,,,,,,,
,,,,,,,,,,,,,FF,,,,,,,,1.3834,,,,,,,,,,,,,,,,,,,,,,60fe2fed581d95673bd181af,61036abcc1555c65405eddeb,2021-07-29_22h00.29.403,Simcolourproject_2stim_asymm_v5,2020.2.10,Win32,60,61025ae37ef11b136ea224fe,,,,,,,,,473,-36,73,1,0,0,response7disk,,0,-7,7,1,0,0,rectangle,-7,7,1,0,0,-7,7,1,0,0,0,92,92,116,1,,,,,,,,
,,,,,,,,,,,,,FF,,,,,,,,0.9835,,,,,,,,,,,,,,,,,,,,,,60fe2fed581d95673bd181af,61036abcc1555c65405eddeb,2021-07-29_22h00.29.403,Simcolourproject_2stim_asymm_v5,2020.2.10,Win32,60,61025ae37ef11b136ea224fe,,,,,,,,,2045,-49,109,1,0,0,response7disk,,0,-20,-5,1,0,0,rectangle,95,-49,1,0,0,38,19,1,0,0,0,93,93,149,1,,response3disk_3,TRUE,5,5,"[215,180,29,235,278,255,243,11,20,65,136,213,64,236,94,233,273,52,297,7]",2.765700001,rectangle
,,,,,,,,,,,,,FF,,,,,,,,5.2658,,,,,,,,,,,,,,,,,,,,,,60fe2fed581d95673bd181af,61036abcc1555c65405eddeb,2021-07-29_22h00.29.403,Simcolourproject_2stim_asymm_v5,2020.2.10,Win32,60,61025ae37ef11b136ea224fe,,,,,,,,,174,-25,118,1,0,0,response7disk,,0,7,4,1,0,0,rectangle,7,4,1,0,0,7,4,1,0,0,0,94,94,124,1,,,,,,,,
,,,,,,,,,,,,,FF,,,,,,,,1.7831,,,,,,,,,,,,,,,,,,,,,,60fe2fed581d95673bd181af,61036abcc1555c65405eddeb,2021-07-29_22h00.29.403,Simcolourproject_2stim_asymm_v5,2020.2.10,Win32,60,61025ae37ef11b136ea224fe,,,,,,,,,1948,-46,109,1,0,0,response7disk,,0,-16,5,1,0,0,rectangle,-16,5,1,0,0,-16,5,1,0,0,0,95,95,7,1,,,,,,,,
,,,,,,,,,,,,,FF,,,,,,,,0.9835,,,,,,,,,,,,,,,,,,,,,,60fe2fed581d95673bd181af,61036abcc1555c65405eddeb,2021-07-29_22h00.29.403,Simcolourproject_2stim_asymm_v5,2020.2.10,Win32,60,61025ae37ef11b136ea224fe,,,,,,,,,3730,-42,125,1,0,0,response7disk,,0,-20,11,1,0,0,rectangle,-20,11,1,0,0,-20,11,1,0,0,0,96,96,11,1,,,,,,,,
,,,,,,,,,,,,,FF,,,,,,,,1.0335,,,,,,,,,,,,,,,,,,,,,,60fe2fed581d95673bd181af,61036abcc1555c65405eddeb,2021-07-29_22h00.29.403,Simcolourproject_2stim_asymm_v5,2020.2.10,Win32,60,61025ae37ef11b136ea224fe,,,,,,,,,0,-27,60,1,0,0,response7disk,,0,2,-14,1,0,0,rectangle,2,-14,1,0,0,2,-14,1,0,0,0,97,97,108,1,,,,,,,,
,,,,,,,,,,,,,FF,,,,,,,,1.5835,,,,,,,,,,,,,,,,,,,,,,60fe2fed581d95673bd181af,61036abcc1555c65405eddeb,2021-07-29_22h00.29.403,Simcolourproject_2stim_asymm_v5,2020.2.10,Win32,60,61025ae37ef11b136ea224fe,,,,,,,,,2652,-36,109,1,0,0,response7disk,,0,-9,5,1,0,0,rectangle,-9,5,1,0,0,-9,5,1,0,0,0,98,98,147,1,,,,,,,,
,,,,,,,,,,,,,FF,,,,,,,,1.033,,,,,,,,,,,,,,,,,,,,,,60fe2fed581d95673bd181af,61036abcc1555c65405eddeb,2021-07-29_22h00.29.403,Simcolourproject_2stim_asymm_v5,2020.2.10,Win32,60,61025ae37ef11b136ea224fe,,,,,,,,,1649,-37,74,1,0,0,response7disk,,0,-27,6,1,0,0,rectangle,-27,6,1,0,0,-27,6,1,0,0,0,99,99,12,1,,,,,,,,
,,,,,,,,,,,,,FF,,,,,,,,1.0339,,,,,,,,,,,,,,,,,,,,,,60fe2fed581d95673bd181af,61036abcc1555c65405eddeb,2021-07-29_22h00.29.403,Simcolourproject_2stim_asymm_v5,2020.2.10,Win32,60,61025ae37ef11b136ea224fe,,,,,,,,,1418,-38,79,1,0,0,response7disk,,0,-31,13,1,0,0,rectangle,-31,13,1,0,0,-31,13,1,0,0,0,100,100,156,1,,,,,,,,
,,,,,,,,,,,,,FF,,,,,,,,1.3343,,,,,,,,,,,,,,,,,,,,,,60fe2fed581d95673bd181af,61036abcc1555c65405eddeb,2021-07-29_22h00.29.403,Simcolourproject_2stim_asymm_v5,2020.2.10,Win32,60,61025ae37ef11b136ea224fe,,,,,,,,,2779,-40,103,1,0,0,response7disk,,0,-16,3,1,0,0,rectangle,-16,3,1,0,0,-16,3,1,0,0,0,101,101,114,1,,,,,,,,
,,,,,,,,,,,,,FF,,,,,,,,1.583299999,,,,,,,,,,,,,,,,,,,,,,60fe2fed581d95673bd181af,61036abcc1555c65405eddeb,2021-07-29_22h00.29.403,Simcolourproject_2stim_asymm_v5,2020.2.10,Win32,60,61025ae37ef11b136ea224fe,,,,,,,,,3059,-29,75,1,0,0,response7disk,,0,2,5,1,0,0,rectangle,2,5,1,0,0,2,5,1,0,0,0,102,102,51,1,,,,,,,,
,,,,,,,,,,,,,FF,,,,,,,,0.7167,,,,,,,,,,,,,,,,,,,,,,60fe2fed581d95673bd181af,61036abcc1555c65405eddeb,2021-07-29_22h00.29.403,Simcolourproject_2stim_asymm_v5,2020.2.10,Win32,60,61025ae37ef11b136ea224fe,,,,,,,,,2683,-40,66,1,0,0,response7disk,,0,-13,-5,1,0,0,rectangle,-13,-5,1,0,0,-13,-5,1,0,0,0,103,103,105,1,,,,,,,,
,,,,,,,,,,,,,FF,,,,,,,,0.9168,,,,,,,,,,,,,,,,,,,,,,60fe2fed581d95673bd181af,61036abcc1555c65405eddeb,2021-07-29_22h00.29.403,Simcolourproject_2stim_asymm_v5,2020.2.10,Win32,60,61025ae37ef11b136ea224fe,,,,,,,,,2943,-43,105,1,0,0,response7disk,,0,-22,-12,1,0,0,rectangle,-22,-12,1,0,0,-22,-12,1,0,0,0,104,104,148,1,,,,,,,,
,,,,,,,,,,,,,FF,,,,,,,,1.6832,,,,,,,,,,,,,,,,,,,,,,60fe2fed581d95673bd181af,61036abcc1555c65405eddeb,2021-07-29_22h00.29.403,Simcolourproject_2stim_asymm_v5,2020.2.10,Win32,60,61025ae37ef11b136ea224fe,,,,,,,,,10,-39,114,1,0,0,response7disk,,0,5,-11,1,0,0,rectangle,5,-11,1,0,0,5,-11,1,0,0,0,105,105,78,1,,,,,,,,
,,,,,,,,,,,,,FF,,,,,,,,1.867,,,,,,,,,,,,,,,,,,,,,,60fe2fed581d95673bd181af,61036abcc1555c65405eddeb,2021-07-29_22h00.29.403,Simcolourproject_2stim_asymm_v5,2020.2.10,Win32,60,61025ae37ef11b136ea224fe,,,,,,,,,1945,-59,118,1,0,0,response7disk,,0,-1,7,1,0,0,rectangle,-1,7,1,0,0,-1,7,1,0,0,0,106,106,48,1,,,,,,,,
,,,,,,,,,,,,,FF,,,,,,,,3.1335,,,,,,,,,,,,,,,,,,,,,,60fe2fed581d95673bd181af,61036abcc1555c65405eddeb,2021-07-29_22h00.29.403,Simcolourproject_2stim_asymm_v5,2020.2.10,Win32,60,61025ae37ef11b136ea224fe,,,,,,,,,3759,-47,112,1,0,0,response7disk,,0,16,-3,1,0,0,rectangle,16,-3,1,0,0,16,-3,1,0,0,0,107,107,107,1,,,,,,,,
,,,,,,,,,,,,,FF,,,,,,,,2.0332,,,,,,,,,,,,,,,,,,,,,,60fe2fed581d95673bd181af,61036abcc1555c65405eddeb,2021-07-29_22h00.29.403,Simcolourproject_2stim_asymm_v5,2020.2.10,Win32,60,61025ae37ef11b136ea224fe,,,,,,,,,813,-27,98,1,0,0,response7disk,,0,-12,16,1,0,0,rectangle,-12,16,1,0,0,-12,16,1,0,0,0,108,108,115,1,,,,,,,,
,,,,,,,,,,,,,FF,,,,,,,,1.266700001,,,,,,,,,,,,,,,,,,,,,,60fe2fed581d95673bd181af,61036abcc1555c65405eddeb,2021-07-29_22h00.29.403,Simcolourproject_2stim_asymm_v5,2020.2.10,Win32,60,61025ae37ef11b136ea224fe,,,,,,,,,3419,-59,100,1,0,0,response7disk,,0,-20,-15,1,0,0,rectangle,-20,-15,1,0,0,-20,-15,1,0,0,0,109,109,29,1,,,,,,,,
,,,,,,,,,,,,,FF,,,,,,,,1.333599999,,,,,,,,,,,,,,,,,,,,,,60fe2fed581d95673bd181af,61036abcc1555c65405eddeb,2021-07-29_22h00.29.403,Simcolourproject_2stim_asymm_v5,2020.2.10,Win32,60,61025ae37ef11b136ea224fe,,,,,,,,,1892,-45,107,1,0,0,response7disk,,0,-21,20,1,0,0,rectangle,-21,20,1,0,0,-21,20,1,0,0,0,110,110,65,1,,,,,,,,
,,,,,,,,,,,,,FF,,,,,,,,1.250099999,,,,,,,,,,,,,,,,,,,,,,60fe2fed581d95673bd181af,61036abcc1555c65405eddeb,2021-07-29_22h00.29.403,Simcolourproject_2stim_asymm_v5,2020.2.10,Win32,60,61025ae37ef11b136ea224fe,,,,,,,,,4032,-62,104,1,0,0,response7disk,,0,-8,-2,1,0,0,rectangle,-8,-2,1,0,0,-8,-2,1,0,0,0,111,111,117,1,,,,,,,,
,,,,,,,,,,,,,FF,,,,,,,,4.165799999,,,,,,,,,,,,,,,,,,,,,,60fe2fed581d95673bd181af,61036abcc1555c65405eddeb,2021-07-29_22h00.29.403,Simcolourproject_2stim_asymm_v5,2020.2.10,Win32,60,61025ae37ef11b136ea224fe,,,,,,,,,2824,-32,90,1,0,0,response7disk,,0,-6,-6,1,0,0,rectangle,-6,-6,1,0,0,-6,-6,1,0,0,0,112,112,109,1,,,,,,,,
,,,,,,,,,,,,,FF,,,,,,,,1.45,,,,,,,,,,,,,,,,,,,,,,60fe2fed581d95673bd181af,61036abcc1555c65405eddeb,2021-07-29_22h00.29.403,Simcolourproject_2stim_asymm_v5,2020.2.10,Win32,60,61025ae37ef11b136ea224fe,,,,,,,,,3803,-40,74,1,0,0,response7disk,,0,-16,15,1,0,0,rectangle,-16,15,1,0,0,-16,15,1,0,0,0,113,113,64,1,,,,,,,,
,,,,,,,,,,,,,FF,,,,,,,,1.0503,,,,,,,,,,,,,,,,,,,,,,60fe2fed581d95673bd181af,61036abcc1555c65405eddeb,2021-07-29_22h00.29.403,Simcolourproject_2stim_asymm_v5,2020.2.10,Win32,60,61025ae37ef11b136ea224fe,,,,,,,,,3128,-27,63,1,0,0,response7disk,,0,-4,10,1,0,0,rectangle,-4,10,1,0,0,-4,10,1,0,0,0,114,114,33,1,,,,,,,,
,,,,,,,,,,,,,FF,,,,,,,,1.666799999,,,,,,,,,,,,,,,,,,,,,,60fe2fed581d95673bd181af,61036abcc1555c65405eddeb,2021-07-29_22h00.29.403,Simcolourproject_2stim_asymm_v5,2020.2.10,Win32,60,61025ae37ef11b136ea224fe,,,,,,,,,2551,-37,61,1,0,0,response7disk,,0,-15,15,1,0,0,rectangle,-15,15,1,0,0,-15,15,1,0,0,0,115,115,28,1,,,,,,,,
,,,,,,,,,,,,,FF,,,,,,,,1.2166,,,,,,,,,,,,,,,,,,,,,,60fe2fed581d95673bd181af,61036abcc1555c65405eddeb,2021-07-29_22h00.29.403,Simcolourproject_2stim_asymm_v5,2020.2.10,Win32,60,61025ae37ef11b136ea224fe,,,,,,,,,2681,-51,98,1,0,0,response7disk,,0,-18,17,1,0,0,rectangle,-18,17,1,0,0,-18,17,1,0,0,0,116,116,150,1,,,,,,,,
,,,,,,,,,,,,,FF,,,,,,,,1.049900001,,,,,,,,,,,,,,,,,,,,,,60fe2fed581d95673bd181af,61036abcc1555c65405eddeb,2021-07-29_22h00.29.403,Simcolourproject_2stim_asymm_v5,2020.2.10,Win32,60,61025ae37ef11b136ea224fe,,,,,,,,,3673,-54,82,1,0,0,response7disk,,0,-5,-9,1,0,0,rectangle,-5,-9,1,0,0,-5,-9,1,0,0,0,117,117,79,1,,,,,,,,
,,,,,,,,,,,,,FF,,,,,,,,1.0337,,,,,,,,,,,,,,,,,,,,,,60fe2fed581d95673bd181af,61036abcc1555c65405eddeb,2021-07-29_22h00.29.403,Simcolourproject_2stim_asymm_v5,2020.2.10,Win32,60,61025ae37ef11b136ea224fe,,,,,,,,,742,-37,89,1,0,0,response7disk,,0,-7,7,1,0,0,rectangle,-7,7,1,0,0,-7,7,1,0,0,0,118,118,19,1,,,,,,,,
,,,,,,,,,,,,,FF,,,,,,,,0.932,,,,,,,,,,,,,,,,,,,,,,60fe2fed581d95673bd181af,61036abcc1555c65405eddeb,2021-07-29_22h00.29.403,Simcolourproject_2stim_asymm_v5,2020.2.10,Win32,60,61025ae37ef11b136ea224fe,,,,,,,,,3572,-32,67,1,0,0,response7disk,,0,-17,1,1,0,0,rectangle,-17,1,1,0,0,-17,1,1,0,0,0,119,119,0,1,,,,,,,,
,,,,,,,,,,,,,FF,,,,,,,,0.9002,,,,,,,,,,,,,,,,,,,,,,60fe2fed581d95673bd181af,61036abcc1555c65405eddeb,2021-07-29_22h00.29.403,Simcolourproject_2stim_asymm_v5,2020.2.10,Win32,60,61025ae37ef11b136ea224fe,,,,,,,,,1358,-36,64,1,0,0,response7disk,,0,-25,7,1,0,0,rectangle,-25,7,1,0,0,-25,7,1,0,0,0,120,120,46,1,,,,,,,,
,,,,,,,,,,,,,FF,,,,,,,,1.3003,,,,,,,,,,,,,,,,,,,,,,60fe2fed581d95673bd181af,61036abcc1555c65405eddeb,2021-07-29_22h00.29.403,Simcolourproject_2stim_asymm_v5,2020.2.10,Win32,60,61025ae37ef11b136ea224fe,,,,,,,,,2975,-44,89,1,0,0,response7disk,,0,-28,19,1,0,0,rectangle,-28,19,1,0,0,-28,19,1,0,0,0,121,121,94,1,,,,,,,,
,,,,,,,,,,,,,FF,,,,,,,,0.7503,,,,,,,,,,,,,,,,,,,,,,60fe2fed581d95673bd181af,61036abcc1555c65405eddeb,2021-07-29_22h00.29.403,Simcolourproject_2stim_asymm_v5,2020.2.10,Win32,60,61025ae37ef11b136ea224fe,,,,,,,,,2899,-36,64,1,0,0,response7disk,,0,-13,17,1,0,0,rectangle,-13,17,1,0,0,-13,17,1,0,0,0,122,122,141,1,,,,,,,,
,,,,,,,,,,,,,FF,,,,,,,,0.7335,,,,,,,,,,,,,,,,,,,,,,60fe2fed581d95673bd181af,61036abcc1555c65405eddeb,2021-07-29_22h00.29.403,Simcolourproject_2stim_asymm_v5,2020.2.10,Win32,60,61025ae37ef11b136ea224fe,,,,,,,,,55,-29,66,1,0,0,response7disk,,0,-7,-2,1,0,0,rectangle,-7,-2,1,0,0,-7,-2,1,0,0,0,123,123,55,1,,,,,,,,
,,,,,,,,,,,,,FF,,,,,,,,0.7507,,,,,,,,,,,,,,,,,,,,,,60fe2fed581d95673bd181af,61036abcc1555c65405eddeb,2021-07-29_22h00.29.403,Simcolourproject_2stim_asymm_v5,2020.2.10,Win32,60,61025ae37ef11b136ea224fe,,,,,,,,,3113,-28,52,1,0,0,response7disk,,0,-6,1,1,0,0,rectangle,-6,1,1,0,0,-6,1,1,0,0,0,124,124,23,1,,,,,,,,
,,,,,,,,,,,,,FF,,,,,,,,1.5995,,,,,,,,,,,,,,,,,,,,,,60fe2fed581d95673bd181af,61036abcc1555c65405eddeb,2021-07-29_22h00.29.403,Simcolourproject_2stim_asymm_v5,2020.2.10,Win32,60,61025ae37ef11b136ea224fe,,,,,,,,,1745,-37,70,1,0,0,response7disk,,0,-28,11,1,0,0,rectangle,-28,11,1,0,0,-28,11,1,0,0,0,125,125,113,1,,,,,,,,
,,,,,,,,,,,,,FF,,,,,,,,0.967,,,,,,,,,,,,,,,,,,,,,,60fe2fed581d95673bd181af,61036abcc1555c65405eddeb,2021-07-29_22h00.29.403,Simcolourproject_2stim_asymm_v5,2020.2.10,Win32,60,61025ae37ef11b136ea224fe,,,,,,,,,1392,-42,56,1,0,0,response7disk,,0,-29,-20,1,0,0,rectangle,-29,-20,1,0,0,-29,-20,1,0,0,0,126,126,50,1,,,,,,,,
,,,,,,,,,,,,,FF,,,,,,,,0.7667,,,,,,,,,,,,,,,,,,,,,,60fe2fed581d95673bd181af,61036abcc1555c65405eddeb,2021-07-29_22h00.29.403,Simcolourproject_2stim_asymm_v5,2020.2.10,Win32,60,61025ae37ef11b136ea224fe,,,,,,,,,2194,-34,62,1,0,0,response7disk,,0,-19,7,1,0,0,rectangle,-19,7,1,0,0,-19,7,1,0,0,0,127,127,53,1,,,,,,,,
,,,,,,,,,,,,,FF,,,,,,,,0.6502,,,,,,,,,,,,,,,,,,,,,,60fe2fed581d95673bd181af,61036abcc1555c65405eddeb,2021-07-29_22h00.29.403,Simcolourproject_2stim_asymm_v5,2020.2.10,Win32,60,61025ae37ef11b136ea224fe,,,,,,,,,1491,-33,63,1,0,0,response7disk,,0,-16,6,1,0,0,rectangle,-16,6,1,0,0,-16,6,1,0,0,0,128,128,35,1,,,,,,,,
,,,,,,,,,,,,,FF,,,,,,,,0.9835,,,,,,,,,,,,,,,,,,,,,,60fe2fed581d95673bd181af,61036abcc1555c65405eddeb,2021-07-29_22h00.29.403,Simcolourproject_2stim_asymm_v5,2020.2.10,Win32,60,61025ae37ef11b136ea224fe,,,,,,,,,3146,-50,119,1,0,0,response7disk,,0,-13,3,1,0,0,rectangle,-13,3,1,0,0,-13,3,1,0,0,0,129,129,43,1,,,,,,,,
,,,,,,,,,,,,,FF,,,,,,,,0.9332,,,,,,,,,,,,,,,,,,,,,,60fe2fed581d95673bd181af,61036abcc1555c65405eddeb,2021-07-29_22h00.29.403,Simcolourproject_2stim_asymm_v5,2020.2.10,Win32,60,61025ae37ef11b136ea224fe,,,,,,,,,1599,-25,36,1,0,0,response7disk,,0,-13,2,1,0,0,rectangle,-13,2,1,0,0,-13,2,1,0,0,0,130,130,18,1,,,,,,,,
,,,,,,,,,,,,,FF,,,,,,,,0.8336,,,,,,,,,,,,,,,,,,,,,,60fe2fed581d95673bd181af,61036abcc1555c65405eddeb,2021-07-29_22h00.29.403,Simcolourproject_2stim_asymm_v5,2020.2.10,Win32,60,61025ae37ef11b136ea224fe,,,,,,,,,385,-36,56,1,0,0,response7disk,,0,-13,-2,1,0,0,rectangle,-13,-2,1,0,0,-13,-2,1,0,0,0,131,131,151,1,,,,,,,,
,,,,,,,,,,,,,FF,,,,,,,,0.6663,,,,,,,,,,,,,,,,,,,,,,60fe2fed581d95673bd181af,61036abcc1555c65405eddeb,2021-07-29_22h00.29.403,Simcolourproject_2stim_asymm_v5,2020.2.10,Win32,60,61025ae37ef11b136ea224fe,,,,,,,,,1189,-25,38,1,0,0,response7disk,,0,-15,11,1,0,0,rectangle,-15,11,1,0,0,-15,11,1,0,0,0,132,132,49,1,,,,,,,,
,,,,,,,,,,,,,FF,,,,,,,,0.6335,,,,,,,,,,,,,,,,,,,,,,60fe2fed581d95673bd181af,61036abcc1555c65405eddeb,2021-07-29_22h00.29.403,Simcolourproject_2stim_asymm_v5,2020.2.10,Win32,60,61025ae37ef11b136ea224fe,,,,,,,,,2021,-36,84,1,0,0,response7disk,,0,-4,1,1,0,0,rectangle,-4,1,1,0,0,-4,1,1,0,0,0,133,133,73,1,,,,,,,,
,,,,,,,,,,,,,FF,,,,,,,,0.7002,,,,,,,,,,,,,,,,,,,,,,60fe2fed581d95673bd181af,61036abcc1555c65405eddeb,2021-07-29_22h00.29.403,Simcolourproject_2stim_asymm_v5,2020.2.10,Win32,60,61025ae37ef11b136ea224fe,,,,,,,,,189,-26,44,1,0,0,response7disk,,0,-8,-3,1,0,0,rectangle,-8,-3,1,0,0,-8,-3,1,0,0,0,134,134,72,1,,,,,,,,
,,,,,,,,,,,,,FF,,,,,,,,0.683700001,,,,,,,,,,,,,,,,,,,,,,60fe2fed581d95673bd181af,61036abcc1555c65405eddeb,2021-07-29_22h00.29.403,Simcolourproject_2stim_asymm_v5,2020.2.10,Win32,60,61025ae37ef11b136ea224fe,,,,,,,,,3906,-37,64,1,0,0,response7disk,,0,-8,7,1,0,0,rectangle,-92,-34,1,0,0,-3,-6,1,0,0,0,135,135,32,1,,response5disk_3,TRUE,2,2,"[215,180,29,235,278,255,243,11,20,65,136,213,64,236,94,233,273,52,297,7]",2.3187,rectangle
,,,,,,,,,,,,,FF,,,,,,,,2.549599999,,,,,,,,,,,,,,,,,,,,,,60fe2fed581d95673bd181af,61036abcc1555c65405eddeb,2021-07-29_22h00.29.403,Simcolourproject_2stim_asymm_v5,2020.2.10,Win32,60,61025ae37ef11b136ea224fe,,,,,,,,,509,-34,75,1,0,0,response7disk,,0,-18,13,1,0,0,rectangle,-18,13,1,0,0,-18,13,1,0,0,0,136,136,84,1,,,,,,,,
,,,,,,,,,,,,,FF,,,,,,,,1.6003,,,,,,,,,,,,,,,,,,,,,,60fe2fed581d95673bd181af,61036abcc1555c65405eddeb,2021-07-29_22h00.29.403,Simcolourproject_2stim_asymm_v5,2020.2.10,Win32,60,61025ae37ef11b136ea224fe,,,,,,,,,1832,-39,75,1,0,0,response7disk,,0,-4,-16,1,0,0,rectangle,-4,-16,1,0,0,-4,-16,1,0,0,0,137,137,99,1,,,,,,,,
,,,,,,,,,,,,,FF,,,,,,,,1.933299999,,,,,,,,,,,,,,,,,,,,,,60fe2fed581d95673bd181af,61036abcc1555c65405eddeb,2021-07-29_22h00.29.403,Simcolourproject_2stim_asymm_v5,2020.2.10,Win32,60,61025ae37ef11b136ea224fe,,,,,,,,,3071,-37,59,1,0,0,response7disk,,0,-20,9,1,0,0,rectangle,-20,9,1,0,0,-20,9,1,0,0,0,138,138,34,1,,,,,,,,
,,,,,,,,,,,,,FF,,,,,,,,0.7836,,,,,,,,,,,,,,,,,,,,,,60fe2fed581d95673bd181af,61036abcc1555c65405eddeb,2021-07-29_22h00.29.403,Simcolourproject_2stim_asymm_v5,2020.2.10,Win32,60,61025ae37ef11b136ea224fe,,,,,,,,,1918,-28,68,1,0,0,response7disk,,0,-8,11,1,0,0,rectangle,-8,11,1,0,0,-8,11,1,0,0,0,139,139,56,1,,,,,,,,
,,,,,,,,,,,,,FF,,,,,,,,1.0002,,,,,,,,,,,,,,,,,,,,,,60fe2fed581d95673bd181af,61036abcc1555c65405eddeb,2021-07-29_22h00.29.403,Simcolourproject_2stim_asymm_v5,2020.2.10,Win32,60,61025ae37ef11b136ea224fe,,,,,,,,,3352,-54,94,1,0,0,response7disk,,0,-20,4,1,0,0,rectangle,-20,4,1,0,0,-20,4,1,0,0,0,140,140,106,1,,,,,,,,
,,,,,,,,,,,,,FF,,,,,,,,0.9338,,,,,,,,,,,,,,,,,,,,,,60fe2fed581d95673bd181af,61036abcc1555c65405eddeb,2021-07-29_22h00.29.403,Simcolourproject_2stim_asymm_v5,2020.2.10,Win32,60,61025ae37ef11b136ea224fe,,,,,,,,,1853,-56,84,1,0,0,response7disk,,0,-27,12,1,0,0,rectangle,-27,12,1,0,0,-27,12,1,0,0,0,141,141,62,1,,,,,,,,
,,,,,,,,,,,,,FF,,,,,,,,1.199700001,,,,,,,,,,,,,,,,,,,,,,60fe2fed581d95673bd181af,61036abcc1555c65405eddeb,2021-07-29_22h00.29.403,Simcolourproject_2stim_asymm_v5,2020.2.10,Win32,60,61025ae37ef11b136ea224fe,,,,,,,,,663,-52,91,1,0,0,response7disk,,0,-8,-2,1,0,0,rectangle,-8,-2,1,0,0,-8,-2,1,0,0,0,142,142,140,1,,,,,,,,
,,,,,,,,,,,,,FF,,,,,,,,0.9499,,,,,,,,,,,,,,,,,,,,,,60fe2fed581d95673bd181af,61036abcc1555c65405eddeb,2021-07-29_22h00.29.403,Simcolourproject_2stim_asymm_v5,2020.2.10,Win32,60,61025ae37ef11b136ea224fe,,,,,,,,,889,-45,72,1,0,0,response7disk,,0,-14,8,1,0,0,rectangle,-14,8,1,0,0,-14,8,1,0,0,0,143,143,17,1,,,,,,,,
,,,,,,,,,,,,,FF,,,,,,,,0.933900001,,,,,,,,,,,,,,,,,,,,,,60fe2fed581d95673bd181af,61036abcc1555c65405eddeb,2021-07-29_22h00.29.403,Simcolourproject_2stim_asymm_v5,2020.2.10,Win32,60,61025ae37ef11b136ea224fe,,,,,,,,,2950,-41,68,1,0,0,response7disk,,0,-11,-3,1,0,0,rectangle,-11,-3,1,0,0,-11,-3,1,0,0,0,144,144,76,1,,,,,,,,
,,,,,,,,,,,,,FF,,,,,,,,0.933599999,,,,,,,,,,,,,,,,,,,,,,60fe2fed581d95673bd181af,61036abcc1555c65405eddeb,2021-07-29_22h00.29.403,Simcolourproject_2stim_asymm_v5,2020.2.10,Win32,60,61025ae37ef11b136ea224fe,,,,,,,,,93,-36,62,1,0,0,response7disk,,0,-11,1,1,0,0,rectangle,-11,1,1,0,0,-11,1,1,0,0,0,145,145,60,1,,,,,,,,
,,,,,,,,,,,,,FF,,,,,,,,0.9003,,,,,,,,,,,,,,,,,,,,,,60fe2fed581d95673bd181af,61036abcc1555c65405eddeb,2021-07-29_22h00.29.403,Simcolourproject_2stim_asymm_v5,2020.2.10,Win32,60,61025ae37ef11b136ea224fe,,,,,,,,,733,-35,55,1,0,0,response7disk,,0,-17,4,1,0,0,rectangle,-17,4,1,0,0,-17,4,1,0,0,0,146,146,89,1,,,,,,,,
,,,,,,,,,,,,,FF,,,,,,,,0.966400001,,,,,,,,,,,,,,,,,,,,,,60fe2fed581d95673bd181af,61036abcc1555c65405eddeb,2021-07-29_22h00.29.403,Simcolourproject_2stim_asymm_v5,2020.2.10,Win32,60,61025ae37ef11b136ea224fe,,,,,,,,,1256,-35,59,1,0,0,response7disk,,0,-15,5,1,0,0,rectangle,-15,5,1,0,0,-15,5,1,0,0,0,147,147,37,1,,,,,,,,
,,,,,,,,,,,,,FF,,,,,,,,1.000099999,,,,,,,,,,,,,,,,,,,,,,60fe2fed581d95673bd181af,61036abcc1555c65405eddeb,2021-07-29_22h00.29.403,Simcolourproject_2stim_asymm_v5,2020.2.10,Win32,60,61025ae37ef11b136ea224fe,,,,,,,,,2547,-38,41,1,0,0,response7disk,,0,-4,-5,1,0,0,rectangle,-4,-5,1,0,0,-4,-5,1,0,0,0,148,148,153,1,,,,,,,,
,,,,,,,,,,,,,FF,,,,,,,,1.4161,,,,,,,,,,,,,,,,,,,,,,60fe2fed581d95673bd181af,61036abcc1555c65405eddeb,2021-07-29_22h00.29.403,Simcolourproject_2stim_asymm_v5,2020.2.10,Win32,60,61025ae37ef11b136ea224fe,,,,,,,,,337,-36,69,1,0,0,response7disk,,0,1,-10,1,0,0,rectangle,1,-10,1,0,0,1,-10,1,0,0,0,149,149,143,1,,,,,,,,
,,,,,,,,,,,,,FF,,,,,,,,0.8163,,,,,,,,,,,,,,,,,,,,,,60fe2fed581d95673bd181af,61036abcc1555c65405eddeb,2021-07-29_22h00.29.403,Simcolourproject_2stim_asymm_v5,2020.2.10,Win32,60,61025ae37ef11b136ea224fe,,,,,,,,,1977,-44,64,1,0,0,response7disk,,0,-9,8,1,0,0,rectangle,-9,8,1,0,0,-9,8,1,0,0,0,150,150,159,1,,,,,,,,
,,,,,,,,,,,,,FF,,,,,,,,0.9165,,,,,,,,,,,,,,,,,,,,,,60fe2fed581d95673bd181af,61036abcc1555c65405eddeb,2021-07-29_22h00.29.403,Simcolourproject_2stim_asymm_v5,2020.2.10,Win32,60,61025ae37ef11b136ea224fe,,,,,,,,,4364,-35,78,1,0,0,response7disk,,0,-1,5,1,0,0,rectangle,-1,5,1,0,0,-1,5,1,0,0,0,151,151,42,1,,,,,,,,
,,,,,,,,,,,,,FF,,,,,,,,0.7837,,,,,,,,,,,,,,,,,,,,,,60fe2fed581d95673bd181af,61036abcc1555c65405eddeb,2021-07-29_22h00.29.403,Simcolourproject_2stim_asymm_v5,2020.2.10,Win32,60,61025ae37ef11b136ea224fe,,,,,,,,,872,-39,87,1,0,0,response7disk,,0,-14,14,1,0,0,rectangle,-14,14,1,0,0,-14,14,1,0,0,0,152,152,9,1,,,,,,,,
,,,,,,,,,,,,,FF,,,,,,,,0.6171,,,,,,,,,,,,,,,,,,,,,,60fe2fed581d95673bd181af,61036abcc1555c65405eddeb,2021-07-29_22h00.29.403,Simcolourproject_2stim_asymm_v5,2020.2.10,Win32,60,61025ae37ef11b136ea224fe,,,,,,,,,3044,-56,106,1,0,0,response7disk,,0,-4,0,1,0,0,rectangle,-4,0,1,0,0,-4,0,1,0,0,0,153,153,25,1,,,,,,,,
,,,,,,,,,,,,,FF,,,,,,,,2.3666,,,,,,,,,,,,,,,,,,,,,,60fe2fed581d95673bd181af,61036abcc1555c65405eddeb,2021-07-29_22h00.29.403,Simcolourproject_2stim_asymm_v5,2020.2.10,Win32,60,61025ae37ef11b136ea224fe,,,,,,,,,3736,-38,70,1,0,0,response7disk,,0,11,-19,1,0,0,rectangle,11,-19,1,0,0,11,-19,1,0,0,0,154,154,101,1,,,,,,,,
,,,,,,,,,,,,,FF,,,,,,,,1.5834,,,,,,,,,,,,,,,,,,,,,,60fe2fed581d95673bd181af,61036abcc1555c65405eddeb,2021-07-29_22h00.29.403,Simcolourproject_2stim_asymm_v5,2020.2.10,Win32,60,61025ae37ef11b136ea224fe,,,,,,,,,137,-43,52,1,0,0,response7disk,,0,-14,0,1,0,0,rectangle,-14,0,1,0,0,-14,0,1,0,0,0,155,155,131,1,,,,,,,,
,,,,,,,,,,,,,FF,,,,,,,,0.9161,,,,,,,,,,,,,,,,,,,,,,60fe2fed581d95673bd181af,61036abcc1555c65405eddeb,2021-07-29_22h00.29.403,Simcolourproject_2stim_asymm_v5,2020.2.10,Win32,60,61025ae37ef11b136ea224fe,,,,,,,,,1153,-52,70,1,0,0,response7disk,,0,-23,14,1,0,0,rectangle,-23,14,1,0,0,-23,14,1,0,0,0,156,156,97,1,,,,,,,,
,,,,,,,,,,,,,FF,,,,,,,,0.8996,,,,,,,,,,,,,,,,,,,,,,60fe2fed581d95673bd181af,61036abcc1555c65405eddeb,2021-07-29_22h00.29.403,Simcolourproject_2stim_asymm_v5,2020.2.10,Win32,60,61025ae37ef11b136ea224fe,,,,,,,,,2475,-40,70,1,0,0,response7disk,,0,-21,4,1,0,0,rectangle,-21,4,1,0,0,-21,4,1,0,0,0,157,157,87,1,,,,,,,,
,,,,,,,,,,,,,FF,,,,,,,,0.850099999,,,,,,,,,,,,,,,,,,,,,,60fe2fed581d95673bd181af,61036abcc1555c65405eddeb,2021-07-29_22h00.29.403,Simcolourproject_2stim_asymm_v5,2020.2.10,Win32,60,61025ae37ef11b136ea224fe,,,,,,,,,3330,-45,67,1,0,0,response7disk,,0,-16,0,1,0,0,rectangle,-16,0,1,0,0,-16,0,1,0,0,0,158,158,92,1,,,,,,,,
,,,,,,,,,,,,,FF,,,,,,,,1.033200001,,,,,,,,,,,,,,,,,,,,,,60fe2fed581d95673bd181af,61036abcc1555c65405eddeb,2021-07-29_22h00.29.403,Simcolourproject_2stim_asymm_v5,2020.2.10,Win32,60,61025ae37ef11b136ea224fe,,,,,,,,,4276,-33,46,1,0,0,response7disk,,0,-15,-4,1,0,0,rectangle,-15,-4,1,0,0,-15,-4,1,0,0,0,159,159,40,1,,,,,,,,
,,,,,,,,,,,,,FF,,,,,,,,1.0672,,,,,,,,,,,,,,,,,,,,,,60fe2fed581d95673bd181af,61036abcc1555c65405eddeb,2021-07-29_22h00.29.403,Simcolourproject_2stim_asymm_v5,2020.2.10,Win32,60,61025ae37ef11b136ea224fe,,,,,,,,,830,-43,70,1,0,0,response7disk,,0,-15,-13,1,0,0,rectangle,-15,-13,1,0,0,-15,-13,1,0,0,1,0,160,39,1,,,,,,,,
,,,,,,,,,,,,,FF,,,,,,,,0.9673,,,,,,,,,,,,,,,,,,,,,,60fe2fed581d95673bd181af,61036abcc1555c65405eddeb,2021-07-29_22h00.29.403,Simcolourproject_2stim_asymm_v5,2020.2.10,Win32,60,61025ae37ef11b136ea224fe,,,,,,,,,211,-49,76,1,0,0,response7disk,,0,-21,0,1,0,0,rectangle,-21,0,1,0,0,-21,0,1,0,0,1,1,161,146,1,,,,,,,,
,,,,,,,,,,,,,FF,,,,,,,,0.9001,,,,,,,,,,,,,,,,,,,,,,60fe2fed581d95673bd181af,61036abcc1555c65405eddeb,2021-07-29_22h00.29.403,Simcolourproject_2stim_asymm_v5,2020.2.10,Win32,60,61025ae37ef11b136ea224fe,,,,,,,,,1311,-35,64,1,0,0,response7disk,,0,-24,8,1,0,0,rectangle,-24,8,1,0,0,-24,8,1,0,0,1,2,162,157,1,,,,,,,,
,,,,,,,,,,,,,FF,,,,,,,,0.666700001,,,,,,,,,,,,,,,,,,,,,,60fe2fed581d95673bd181af,61036abcc1555c65405eddeb,2021-07-29_22h00.29.403,Simcolourproject_2stim_asymm_v5,2020.2.10,Win32,60,61025ae37ef11b136ea224fe,,,,,,,,,4289,-25,36,1,0,0,response7disk,,0,0,-18,1,0,0,rectangle,0,-18,1,0,0,0,-18,1,0,0,1,3,163,21,1,,,,,,,,
,,,,,,,,,,,,,FF,,,,,,,,0.7,,,,,,,,,,,,,,,,,,,,,,60fe2fed581d95673bd181af,61036abcc1555c65405eddeb,2021-07-29_22h00.29.403,Simcolourproject_2stim_asymm_v5,2020.2.10,Win32,60,61025ae37ef11b136ea224fe,,,,,,,,,427,-42,54,1,0,0,response7disk,,0,-22,-5,1,0,0,rectangle,-22,-5,1,0,0,-22,-5,1,0,0,1,4,164,16,1,,,,,,,,
,,,,,,,,,,,,,FF,,,,,,,,0.682900001,,,,,,,,,,,,,,,,,,,,,,60fe2fed581d95673bd181af,61036abcc1555c65405eddeb,2021-07-29_22h00.29.403,Simcolourproject_2stim_asymm_v5,2020.2.10,Win32,60,61025ae37ef11b136ea224fe,,,,,,,,,23,-29,56,1,0,0,response7disk,,0,-10,-2,1,0,0,rectangle,-10,-2,1,0,0,-10,-2,1,0,0,1,5,165,29,1,,,,,,,,
,,,,,,,,,,,,,FF,,,,,,,,0.75,,,,,,,,,,,,,,,,,,,,,,60fe2fed581d95673bd181af,61036abcc1555c65405eddeb,2021-07-29_22h00.29.403,Simcolourproject_2stim_asymm_v5,2020.2.10,Win32,60,61025ae37ef11b136ea224fe,,,,,,,,,2908,-25,39,1,0,0,response7disk,,0,-20,3,1,0,0,rectangle,-20,3,1,0,0,-20,3,1,0,0,1,6,166,109,1,,,,,,,,
,,,,,,,,,,,,,FF,,,,,,,,0.850400001,,,,,,,,,,,,,,,,,,,,,,60fe2fed581d95673bd181af,61036abcc1555c65405eddeb,2021-07-29_22h00.29.403,Simcolourproject_2stim_asymm_v5,2020.2.10,Win32,60,61025ae37ef11b136ea224fe,,,,,,,,,2759,-40,77,1,0,0,response7disk,,0,-21,8,1,0,0,rectangle,-21,8,1,0,0,-21,8,1,0,0,1,7,167,100,1,,,,,,,,
,,,,,,,,,,,,,FF,,,,,,,,0.8999,,,,,,,,,,,,,,,,,,,,,,60fe2fed581d95673bd181af,61036abcc1555c65405eddeb,2021-07-29_22h00.29.403,Simcolourproject_2stim_asymm_v5,2020.2.10,Win32,60,61025ae37ef11b136ea224fe,,,,,,,,,3629,-48,82,1,0,0,response7disk,,0,-27,12,1,0,0,rectangle,-27,12,1,0,0,-27,12,1,0,0,1,8,168,106,1,,,,,,,,
,,,,,,,,,,,,,FF,,,,,,,,0.733099999,,,,,,,,,,,,,,,,,,,,,,60fe2fed581d95673bd181af,61036abcc1555c65405eddeb,2021-07-29_22h00.29.403,Simcolourproject_2stim_asymm_v5,2020.2.10,Win32,60,61025ae37ef11b136ea224fe,,,,,,,,,912,-54,77,1,0,0,response7disk,,0,-24,-2,1,0,0,rectangle,-24,-2,1,0,0,-24,-2,1,0,0,1,9,169,22,1,,,,,,,,
,,,,,,,,,,,,,FF,,,,,,,,0.633200001,,,,,,,,,,,,,,,,,,,,,,60fe2fed581d95673bd181af,61036abcc1555c65405eddeb,2021-07-29_22h00.29.403,Simcolourproject_2stim_asymm_v5,2020.2.10,Win32,60,61025ae37ef11b136ea224fe,,,,,,,,,7,-40,60,1,0,0,response7disk,,0,-24,9,1,0,0,rectangle,-24,9,1,0,0,-24,9,1,0,0,1,10,170,28,1,,,,,,,,
,,,,,,,,,,,,,FF,,,,,,,,0.6505,,,,,,,,,,,,,,,,,,,,,,60fe2fed581d95673bd181af,61036abcc1555c65405eddeb,2021-07-29_22h00.29.403,Simcolourproject_2stim_asymm_v5,2020.2.10,Win32,60,61025ae37ef11b136ea224fe,,,,,,,,,2663,-32,57,1,0,0,response7disk,,0,-8,-10,1,0,0,rectangle,-8,-10,1,0,0,-8,-10,1,0,0,1,11,171,158,1,,,,,,,,
,,,,,,,,,,,,,FF,,,,,,,,0.9997,,,,,,,,,,,,,,,,,,,,,,60fe2fed581d95673bd181af,61036abcc1555c65405eddeb,2021-07-29_22h00.29.403,Simcolourproject_2stim_asymm_v5,2020.2.10,Win32,60,61025ae37ef11b136ea224fe,,,,,,,,,2874,-54,77,1,0,0,response7disk,,0,-5,-6,1,0,0,rectangle,-5,-6,1,0,0,-5,-6,1,0,0,1,12,172,150,1,,,,,,,,
,,,,,,,,,,,,,FF,,,,,,,,0.8336,,,,,,,,,,,,,,,,,,,,,,60fe2fed581d95673bd181af,61036abcc1555c65405eddeb,2021-07-29_22h00.29.403,Simcolourproject_2stim_asymm_v5,2020.2.10,Win32,60,61025ae37ef11b136ea224fe,,,,,,,,,1944,-28,45,1,0,0,response7disk,,0,-19,-6,1,0,0,rectangle,-19,-6,1,0,0,-19,-6,1,0,0,1,13,173,139,1,,,,,,,,
,,,,,,,,,,,,,FF,,,,,,,,0.9664,,,,,,,,,,,,,,,,,,,,,,60fe2fed581d95673bd181af,61036abcc1555c65405eddeb,2021-07-29_22h00.29.403,Simcolourproject_2stim_asymm_v5,2020.2.10,Win32,60,61025ae37ef11b136ea224fe,,,,,,,,,2465,-31,40,1,0,0,response7disk,,0,-29,7,1,0,0,rectangle,-29,7,1,0,0,-29,7,1,0,0,1,14,174,23,1,,,,,,,,
,,,,,,,,,,,,,FF,,,,,,,,1.0334,,,,,,,,,,,,,,,,,,,,,,60fe2fed581d95673bd181af,61036abcc1555c65405eddeb,2021-07-29_22h00.29.403,Simcolourproject_2stim_asymm_v5,2020.2.10,Win32,60,61025ae37ef11b136ea224fe,,,,,,,,,2504,-34,73,1,0,0,response7disk,,0,-12,10,1,0,0,rectangle,-12,10,1,0,0,-12,10,1,0,0,1,15,175,125,1,,,,,,,,
,,,,,,,,,,,,,FF,,,,,,,,1.6504,,,,,,,,,,,,,,,,,,,,,,60fe2fed581d95673bd181af,61036abcc1555c65405eddeb,2021-07-29_22h00.29.403,Simcolourproject_2stim_asymm_v5,2020.2.10,Win32,60,61025ae37ef11b136ea224fe,,,,,,,,,1144,-28,65,1,0,0,response7disk,,0,-8,3,1,0,0,rectangle,-8,3,1,0,0,-8,3,1,0,0,1,16,176,80,1,,,,,,,,
,,,,,,,,,,,,,FF,,,,,,,,0.882299999,,,,,,,,,,,,,,,,,,,,,,60fe2fed581d95673bd181af,61036abcc1555c65405eddeb,2021-07-29_22h00.29.403,Simcolourproject_2stim_asymm_v5,2020.2.10,Win32,60,61025ae37ef11b136ea224fe,,,,,,,,,4190,-26,60,1,0,0,response7disk,,0,-8,1,1,0,0,rectangle,-8,1,1,0,0,-8,1,1,0,0,1,17,177,133,1,,,,,,,,
,,,,,,,,,,,,,FF,,,,,,,,0.7662,,,,,,,,,,,,,,,,,,,,,,60fe2fed581d95673bd181af,61036abcc1555c65405eddeb,2021-07-29_22h00.29.403,Simcolourproject_2stim_asymm_v5,2020.2.10,Win32,60,61025ae37ef11b136ea224fe,,,,,,,,,924,-39,68,1,0,0,response7disk,,0,-27,18,1,0,0,rectangle,-27,18,1,0,0,-27,18,1,0,0,1,18,178,78,1,,,,,,,,
,,,,,,,,,,,,,FF,,,,,,,,0.766299999,,,,,,,,,,,,,,,,,,,,,,60fe2fed581d95673bd181af,61036abcc1555c65405eddeb,2021-07-29_22h00.29.403,Simcolourproject_2stim_asymm_v5,2020.2.10,Win32,60,61025ae37ef11b136ea224fe,,,,,,,,,9,-38,55,1,0,0,response7disk,,0,-25,1,1,0,0,rectangle,35,-103,1,0,0,14,-21,1,0,0,1,19,179,47,1,,response3disk_3,TRUE,4,4,"[215,180,29,235,278,255,243,11,20,65,136,213,64,236,94,233,273,52,297,7]",2.052200001,rectangle
,,,,,,,,,,,,,FF,,,,,,,,2.9643,,,,,,,,,,,,,,,,,,,,,,60fe2fed581d95673bd181af,61036abcc1555c65405eddeb,2021-07-29_22h00.29.403,Simcolourproject_2stim_asymm_v5,2020.2.10,Win32,60,61025ae37ef11b136ea224fe,,,,,,,,,2269,-44,94,1,0,0,response7disk,,0,9,-9,1,0,0,rectangle,9,-9,1,0,0,9,-9,1,0,0,1,20,180,69,1,,,,,,,,
,,,,,,,,,,,,,FF,,,,,,,,0.925,,,,,,,,,,,,,,,,,,,,,,60fe2fed581d95673bd181af,61036abcc1555c65405eddeb,2021-07-29_22h00.29.403,Simcolourproject_2stim_asymm_v5,2020.2.10,Win32,60,61025ae37ef11b136ea224fe,,,,,,,,,1328,-21,91,1,0,0,response7disk,,0,-10,-7,1,0,0,rectangle,-10,-7,1,0,0,-10,-7,1,0,0,1,21,181,30,1,,,,,,,,
,,,,,,,,,,,,,FF,,,,,,,,1,,,,,,,,,,,,,,,,,,,,,,60fe2fed581d95673bd181af,61036abcc1555c65405eddeb,2021-07-29_22h00.29.403,Simcolourproject_2stim_asymm_v5,2020.2.10,Win32,60,61025ae37ef11b136ea224fe,,,,,,,,,715,-44,74,1,0,0,response7disk,,0,-1,-13,1,0,0,rectangle,-1,-13,1,0,0,-1,-13,1,0,0,1,22,182,114,1,,,,,,,,
,,,,,,,,,,,,,FF,,,,,,,,1.950099999,,,,,,,,,,,,,,,,,,,,,,60fe2fed581d95673bd181af,61036abcc1555c65405eddeb,2021-07-29_22h00.29.403,Simcolourproject_2stim_asymm_v5,2020.2.10,Win32,60,61025ae37ef11b136ea224fe,,,,,,,,,3399,-40,53,1,0,0,response7disk,,0,10,-19,1,0,0,rectangle,10,-19,1,0,0,10,-19,1,0,0,1,23,183,129,1,,,,,,,,
,,,,,,,,,,,,,FF,,,,,,,,1.5328,,,,,,,,,,,,,,,,,,,,,,60fe2fed581d95673bd181af,61036abcc1555c65405eddeb,2021-07-29_22h00.29.403,Simcolourproject_2stim_asymm_v5,2020.2.10,Win32,60,61025ae37ef11b136ea224fe,,,,,,,,,1721,-21,68,1,0,0,response7disk,,0,-10,18,1,0,0,rectangle,-10,18,1,0,0,-10,18,1,0,0,1,24,184,95,1,,,,,,,,
,,,,,,,,,,,,,FF,,,,,,,,1.2,,,,,,,,,,,,,,,,,,,,,,60fe2fed581d95673bd181af,61036abcc1555c65405eddeb,2021-07-29_22h00.29.403,Simcolourproject_2stim_asymm_v5,2020.2.10,Win32,60,61025ae37ef11b136ea224fe,,,,,,,,,394,-29,63,1,0,0,response7disk,,0,4,-2,1,0,0,rectangle,4,-2,1,0,0,4,-2,1,0,0,1,25,185,43,1,,,,,,,,
,,,,,,,,,,,,,FF,,,,,,,,1.3498,,,,,,,,,,,,,,,,,,,,,,60fe2fed581d95673bd181af,61036abcc1555c65405eddeb,2021-07-29_22h00.29.403,Simcolourproject_2stim_asymm_v5,2020.2.10,Win32,60,61025ae37ef11b136ea224fe,,,,,,,,,946,-24,58,1,0,0,response7disk,,0,-6,-4,1,0,0,rectangle,-6,-4,1,0,0,-6,-4,1,0,0,1,26,186,105,1,,,,,,,,
,,,,,,,,,,,,,FF,,,,,,,,1.0667,,,,,,,,,,,,,,,,,,,,,,60fe2fed581d95673bd181af,61036abcc1555c65405eddeb,2021-07-29_22h00.29.403,Simcolourproject_2stim_asymm_v5,2020.2.10,Win32,60,61025ae37ef11b136ea224fe,,,,,,,,,4271,-60,81,1,0,0,response7disk,,0,-15,1,1,0,0,rectangle,-15,1,1,0,0,-15,1,1,0,0,1,27,187,127,1,,,,,,,,
,,,,,,,,,,,,,FF,,,,,,,,0.867,,,,,,,,,,,,,,,,,,,,,,60fe2fed581d95673bd181af,61036abcc1555c65405eddeb,2021-07-29_22h00.29.403,Simcolourproject_2stim_asymm_v5,2020.2.10,Win32,60,61025ae37ef11b136ea224fe,,,,,,,,,998,-42,81,1,0,0,response7disk,,0,-11,-3,1,0,0,rectangle,-11,-3,1,0,0,-11,-3,1,0,0,1,28,188,86,1,,,,,,,,
,,,,,,,,,,,,,FF,,,,,,,,0.6835,,,,,,,,,,,,,,,,,,,,,,60fe2fed581d95673bd181af,61036abcc1555c65405eddeb,2021-07-29_22h00.29.403,Simcolourproject_2stim_asymm_v5,2020.2.10,Win32,60,61025ae37ef11b136ea224fe,,,,,,,,,1057,-63,63,1,0,0,response7disk,,0,-25,11,1,0,0,rectangle,-25,11,1,0,0,-25,11,1,0,0,1,29,189,110,1,,,,,,,,
,,,,,,,,,,,,,FF,,,,,,,,1.033400001,,,,,,,,,,,,,,,,,,,,,,60fe2fed581d95673bd181af,61036abcc1555c65405eddeb,2021-07-29_22h00.29.403,Simcolourproject_2stim_asymm_v5,2020.2.10,Win32,60,61025ae37ef11b136ea224fe,,,,,,,,,2873,-35,45,1,0,0,response7disk,,0,-23,20,1,0,0,rectangle,-23,20,1,0,0,-23,20,1,0,0,1,30,190,92,1,,,,,,,,
,,,,,,,,,,,,,FF,,,,,,,,0.933400001,,,,,,,,,,,,,,,,,,,,,,60fe2fed581d95673bd181af,61036abcc1555c65405eddeb,2021-07-29_22h00.29.403,Simcolourproject_2stim_asymm_v5,2020.2.10,Win32,60,61025ae37ef11b136ea224fe,,,,,,,,,319,-49,95,1,0,0,response7disk,,0,-2,17,1,0,0,rectangle,-2,17,1,0,0,-2,17,1,0,0,1,31,191,12,1,,,,,,,,
,,,,,,,,,,,,,FF,,,,,,,,0.6504,,,,,,,,,,,,,,,,,,,,,,60fe2fed581d95673bd181af,61036abcc1555c65405eddeb,2021-07-29_22h00.29.403,Simcolourproject_2stim_asymm_v5,2020.2.10,Win32,60,61025ae37ef11b136ea224fe,,,,,,,,,2046,-29,66,1,0,0,response7disk,,0,-6,21,1,0,0,rectangle,-6,21,1,0,0,-6,21,1,0,0,1,32,192,25,1,,,,,,,,
,,,,,,,,,,,,,FF,,,,,,,,0.7836,,,,,,,,,,,,,,,,,,,,,,60fe2fed581d95673bd181af,61036abcc1555c65405eddeb,2021-07-29_22h00.29.403,Simcolourproject_2stim_asymm_v5,2020.2.10,Win32,60,61025ae37ef11b136ea224fe,,,,,,,,,222,-47,101,1,0,0,response7disk,,0,-9,4,1,0,0,rectangle,-9,4,1,0,0,-9,4,1,0,0,1,33,193,36,1,,,,,,,,
,,,,,,,,,,,,,FF,,,,,,,,0.800099999,,,,,,,,,,,,,,,,,,,,,,60fe2fed581d95673bd181af,61036abcc1555c65405eddeb,2021-07-29_22h00.29.403,Simcolourproject_2stim_asymm_v5,2020.2.10,Win32,60,61025ae37ef11b136ea224fe,,,,,,,,,3338,-27,70,1,0,0,response7disk,,0,-7,-11,1,0,0,rectangle,-7,-11,1,0,0,-7,-11,1,0,0,1,34,194,84,1,,,,,,,,
,,,,,,,,,,,,,FF,,,,,,,,0.8657,,,,,,,,,,,,,,,,,,,,,,60fe2fed581d95673bd181af,61036abcc1555c65405eddeb,2021-07-29_22h00.29.403,Simcolourproject_2stim_asymm_v5,2020.2.10,Win32,60,61025ae37ef11b136ea224fe,,,,,,,,,2835,-55,70,1,0,0,response7disk,,0,-35,21,1,0,0,rectangle,-35,21,1,0,0,-35,21,1,0,0,1,35,195,83,1,,,,,,,,
,,,,,,,,,,,,,FF,,,,,,,,1.0838,,,,,,,,,,,,,,,,,,,,,,60fe2fed581d95673bd181af,61036abcc1555c65405eddeb,2021-07-29_22h00.29.403,Simcolourproject_2stim_asymm_v5,2020.2.10,Win32,60,61025ae37ef11b136ea224fe,,,,,,,,,1277,-62,100,1,0,0,response7disk,,0,-4,14,1,0,0,rectangle,-4,14,1,0,0,-4,14,1,0,0,1,36,196,97,1,,,,,,,,
,,,,,,,,,,,,,FF,,,,,,,,0.9502,,,,,,,,,,,,,,,,,,,,,,60fe2fed581d95673bd181af,61036abcc1555c65405eddeb,2021-07-29_22h00.29.403,Simcolourproject_2stim_asymm_v5,2020.2.10,Win32,60,61025ae37ef11b136ea224fe,,,,,,,,,1622,-64,119,1,0,0,response7disk,,0,-4,13,1,0,0,rectangle,-4,13,1,0,0,-4,13,1,0,0,1,37,197,138,1,,,,,,,,
,,,,,,,,,,,,,FF,,,,,,,,0.8502,,,,,,,,,,,,,,,,,,,,,,60fe2fed581d95673bd181af,61036abcc1555c65405eddeb,2021-07-29_22h00.29.403,Simcolourproject_2stim_asymm_v5,2020.2.10,Win32,60,61025ae37ef11b136ea224fe,,,,,,,,,219,-47,86,1,0,0,response7disk,,0,8,-3,1,0,0,rectangle,8,-3,1,0,0,8,-3,1,0,0,1,38,198,142,1,,,,,,,,
,,,,,,,,,,,,,FF,,,,,,,,1.083400001,,,,,,,,,,,,,,,,,,,,,,60fe2fed581d95673bd181af,61036abcc1555c65405eddeb,2021-07-29_22h00.29.403,Simcolourproject_2stim_asymm_v5,2020.2.10,Win32,60,61025ae37ef11b136ea224fe,,,,,,,,,1158,-33,75,1,0,0,response7disk,,0,-7,12,1,0,0,rectangle,-7,12,1,0,0,-7,12,1,0,0,1,39,199,132,1,,,,,,,,
,,,,,,,,,,,,,FF,,,,,,,,0.933,,,,,,,,,,,,,,,,,,,,,,60fe2fed581d95673bd181af,61036abcc1555c65405eddeb,2021-07-29_22h00.29.403,Simcolourproject_2stim_asymm_v5,2020.2.10,Win32,60,61025ae37ef11b136ea224fe,,,,,,,,,2729,-36,71,1,0,0,response7disk,,0,-3,-4,1,0,0,rectangle,-3,-4,1,0,0,-3,-4,1,0,0,1,40,200,115,1,,,,,,,,
,,,,,,,,,,,,,FF,,,,,,,,1.566299999,,,,,,,,,,,,,,,,,,,,,,60fe2fed581d95673bd181af,61036abcc1555c65405eddeb,2021-07-29_22h00.29.403,Simcolourproject_2stim_asymm_v5,2020.2.10,Win32,60,61025ae37ef11b136ea224fe,,,,,,,,,2329,-34,61,1,0,0,response7disk,,0,1,3,1,0,0,rectangle,1,3,1,0,0,1,3,1,0,0,1,41,201,153,1,,,,,,,,
,,,,,,,,,,,,,FF,,,,,,,,1.033299999,,,,,,,,,,,,,,,,,,,,,,60fe2fed581d95673bd181af,61036abcc1555c65405eddeb,2021-07-29_22h00.29.403,Simcolourproject_2stim_asymm_v5,2020.2.10,Win32,60,61025ae37ef11b136ea224fe,,,,,,,,,1835,-38,55,1,0,0,response7disk,,0,6,-2,1,0,0,rectangle,6,-2,1,0,0,6,-2,1,0,0,1,42,202,27,1,,,,,,,,
,,,,,,,,,,,,,FF,,,,,,,,1.2336,,,,,,,,,,,,,,,,,,,,,,60fe2fed581d95673bd181af,61036abcc1555c65405eddeb,2021-07-29_22h00.29.403,Simcolourproject_2stim_asymm_v5,2020.2.10,Win32,60,61025ae37ef11b136ea224fe,,,,,,,,,2572,-41,62,1,0,0,response7disk,,0,-12,6,1,0,0,rectangle,-12,6,1,0,0,-12,6,1,0,0,1,43,203,35,1,,,,,,,,
,,,,,,,,,,,,,FF,,,,,,,,0.8672,,,,,,,,,,,,,,,,,,,,,,60fe2fed581d95673bd181af,61036abcc1555c65405eddeb,2021-07-29_22h00.29.403,Simcolourproject_2stim_asymm_v5,2020.2.10,Win32,60,61025ae37ef11b136ea224fe,,,,,,,,,4093,-39,76,1,0,0,response7disk,,0,-18,2,1,0,0,rectangle,-18,2,1,0,0,-18,2,1,0,0,1,44,204,145,1,,,,,,,,
,,,,,,,,,,,,,FF,,,,,,,,0.6496,,,,,,,,,,,,,,,,,,,,,,60fe2fed581d95673bd181af,61036abcc1555c65405eddeb,2021-07-29_22h00.29.403,Simcolourproject_2stim_asymm_v5,2020.2.10,Win32,60,61025ae37ef11b136ea224fe,,,,,,,,,2448,-40,58,1,0,0,response7disk,,0,-10,3,1,0,0,rectangle,-10,3,1,0,0,-10,3,1,0,0,1,45,205,59,1,,,,,,,,
,,,,,,,,,,,,,FF,,,,,,,,1.1497,,,,,,,,,,,,,,,,,,,,,,60fe2fed581d95673bd181af,61036abcc1555c65405eddeb,2021-07-29_22h00.29.403,Simcolourproject_2stim_asymm_v5,2020.2.10,Win32,60,61025ae37ef11b136ea224fe,,,,,,,,,1714,-48,72,1,0,0,response7disk,,0,-27,11,1,0,0,rectangle,-27,11,1,0,0,-27,11,1,0,0,1,46,206,144,1,,,,,,,,
,,,,,,,,,,,,,FF,,,,,,,,1.0503,,,,,,,,,,,,,,,,,,,,,,60fe2fed581d95673bd181af,61036abcc1555c65405eddeb,2021-07-29_22h00.29.403,Simcolourproject_2stim_asymm_v5,2020.2.10,Win32,60,61025ae37ef11b136ea224fe,,,,,,,,,375,-53,84,1,0,0,response7disk,,0,-5,-7,1,0,0,rectangle,-5,-7,1,0,0,-5,-7,1,0,0,1,47,207,89,1,,,,,,,,
,,,,,,,,,,,,,FF,,,,,,,,1.4667,,,,,,,,,,,,,,,,,,,,,,60fe2fed581d95673bd181af,61036abcc1555c65405eddeb,2021-07-29_22h00.29.403,Simcolourproject_2stim_asymm_v5,2020.2.10,Win32,60,61025ae37ef11b136ea224fe,,,,,,,,,1524,-52,30,1,0,0,response7disk,,1,12,0,1,0,0,rectangle,12,0,1,0,0,12,0,1,0,0,1,48,208,33,1,,,,,,,,
,,,,,,,,,,,,,FF,,,,,,,,1.1009,,,,,,,,,,,,,,,,,,,,,,60fe2fed581d95673bd181af,61036abcc1555c65405eddeb,2021-07-29_22h00.29.403,Simcolourproject_2stim_asymm_v5,2020.2.10,Win32,60,61025ae37ef11b136ea224fe,,,,,,,,,1294,-33,-33,1,0,0,response5disk,,2,17,-12,1,0,0,rectangle,17,-12,1,0,0,17,-12,1,0,0,1,49,209,0,1,,,,,,,,
,,,,,,,,,,,,,FF,,,,,,,,1.4503,,,,,,,,,,,,,,,,,,,,,,60fe2fed581d95673bd181af,61036abcc1555c65405eddeb,2021-07-29_22h00.29.403,Simcolourproject_2stim_asymm_v5,2020.2.10,Win32,60,61025ae37ef11b136ea224fe,,,,,,,,,1737,-44,32,1,0,0,response7disk,,1,-8,2,1,0,0,rectangle,-8,2,1,0,0,-8,2,1,0,0,1,50,210,48,1,,,,,,,,
,,,,,,,,,,,,,FF,,,,,,,,1.5336,,,,,,,,,,,,,,,,,,,,,,60fe2fed581d95673bd181af,61036abcc1555c65405eddeb,2021-07-29_22h00.29.403,Simcolourproject_2stim_asymm_v5,2020.2.10,Win32,60,61025ae37ef11b136ea224fe,,,,,,,,,500,-51,42,1,0,0,response7disk,,1,-30,7,1,0,0,rectangle,-30,7,1,0,0,-30,7,1,0,0,1,51,211,45,1,,,,,,,,
,,,,,,,,,,,,,FF,,,,,,,,0.9004,,,,,,,,,,,,,,,,,,,,,,60fe2fed581d95673bd181af,61036abcc1555c65405eddeb,2021-07-29_22h00.29.403,Simcolourproject_2stim_asymm_v5,2020.2.10,Win32,60,61025ae37ef11b136ea224fe,,,,,,,,,3895,-61,63,1,0,0,response7disk,,0,-6,8,1,0,0,rectangle,128,-82,1,0,0,10,8,1,0,0,1,52,212,87,1,,response3disk_3,TRUE,5,5,"[215,180,29,235,278,255,243,11,20,65,136,213,64,236,94,233,273,52,297,7]",1.932,rectangle
,,,,,,,,,,,,,FF,,,,,,,,5.966099999,,,,,,,,,,,,,,,,,,,,,,60fe2fed581d95673bd181af,61036abcc1555c65405eddeb,2021-07-29_22h00.29.403,Simcolourproject_2stim_asymm_v5,2020.2.10,Win32,60,61025ae37ef11b136ea224fe,,,,,,,,,646,-75,58,1,0,0,response7disk,,1,40,0,1,0,0,rectangle,40,0,1,0,0,40,0,1,0,0,1,53,213,60,1,,,,,,,,
,,,,,,,,,,,,,FF,,,,,,,,1.599900001,,,,,,,,,,,,,,,,,,,,,,60fe2fed581d95673bd181af,61036abcc1555c65405eddeb,2021-07-29_22h00.29.403,Simcolourproject_2stim_asymm_v5,2020.2.10,Win32,60,61025ae37ef11b136ea224fe,,,,,,,,,4024,-75,-50,1,0,0,response5disk,,2,22,5,1,0,0,rectangle,54,-106,1,0,0,25,4,1,0,0,1,54,214,66,1,,response3disk_3,TRUE,4,4,"[215,180,29,235,278,255,243,11,20,65,136,213,64,236,94,233,273,52,297,7]",1.6163,rectangle
,,,,,,,,,,,,,FF,,,,,,,,3.3166,,,,,,,,,,,,,,,,,,,,,,60fe2fed581d95673bd181af,61036abcc1555c65405eddeb,2021-07-29_22h00.29.403,Simcolourproject_2stim_asymm_v5,2020.2.10,Win32,60,61025ae37ef11b136ea224fe,,,,,,,,,4048,-145,-47,1,0,0,response5disk,,2,7,-10,1,0,0,rectangle,7,-10,1,0,0,7,-10,1,0,0,1,55,215,104,1,,,,,,,,
,,,,,,,,,,,,,FF,,,,,,,,3.4826,,,,,,,,,,,,,,,,,,,,,,60fe2fed581d95673bd181af,61036abcc1555c65405eddeb,2021-07-29_22h00.29.403,Simcolourproject_2stim_asymm_v5,2020.2.10,Win32,60,61025ae37ef11b136ea224fe,,,,,,,,,3638,-39,-67,1,0,0,response5disk,,3,17,-6,1,0,0,rectangle,17,-6,1,0,0,17,-6,1,0,0,1,56,216,147,1,,,,,,,,
,,,,,,,,,,,,,FF,,,,,,,,1.2838,,,,,,,,,,,,,,,,,,,,,,60fe2fed581d95673bd181af,61036abcc1555c65405eddeb,2021-07-29_22h00.29.403,Simcolourproject_2stim_asymm_v5,2020.2.10,Win32,60,61025ae37ef11b136ea224fe,,,,,,,,,1643,-128,-39,1,0,0,response5disk,,2,0,4,1,0,0,rectangle,0,4,1,0,0,0,4,1,0,0,1,57,217,79,1,,,,,,,,
,,,,,,,,,,,,,FF,,,,,,,,1.783599999,,,,,,,,,,,,,,,,,,,,,,60fe2fed581d95673bd181af,61036abcc1555c65405eddeb,2021-07-29_22h00.29.403,Simcolourproject_2stim_asymm_v5,2020.2.10,Win32,60,61025ae37ef11b136ea224fe,,,,,,,,,1419,71,-33,1,0,0,response3disk,,5,28,4,1,0,0,rectangle,28,4,1,0,0,28,4,1,0,0,1,58,218,90,1,,,,,,,,
,,,,,,,,,,,,,FF,,,,,,,,4.032900001,,,,,,,,,,,,,,,,,,,,,,60fe2fed581d95673bd181af,61036abcc1555c65405eddeb,2021-07-29_22h00.29.403,Simcolourproject_2stim_asymm_v5,2020.2.10,Win32,60,61025ae37ef11b136ea224fe,,,,,,,,,143,107,-39,1,0,0,response3disk,,5,33,-7,1,0,0,rectangle,33,-7,1,0,0,33,-7,1,0,0,1,59,219,8,1,,,,,,,,
,,,,,,,,,,,,,FF,,,,,,,,0.9999,,,,,,,,,,,,,,,,,,,,,,60fe2fed581d95673bd181af,61036abcc1555c65405eddeb,2021-07-29_22h00.29.403,Simcolourproject_2stim_asymm_v5,2020.2.10,Win32,60,61025ae37ef11b136ea224fe,,,,,,,,,2557,-55,-97,1,0,0,response5disk,,3,19,7,1,0,0,rectangle,19,7,1,0,0,19,7,1,0,0,1,60,220,73,1,,,,,,,,
,,,,,,,,,,,,,FF,,,,,,,,2.3321,,,,,,,,,,,,,,,,,,,,,,60fe2fed581d95673bd181af,61036abcc1555c65405eddeb,2021-07-29_22h00.29.403,Simcolourproject_2stim_asymm_v5,2020.2.10,Win32,60,61025ae37ef11b136ea224fe,,,,,,,,,228,100,-40,1,0,0,response3disk,,5,10,9,1,0,0,rectangle,10,9,1,0,0,10,9,1,0,0,1,61,221,111,1,,,,,,,,
,,,,,,,,,,,,,FF,,,,,,,,2.1495,,,,,,,,,,,,,,,,,,,,,,60fe2fed581d95673bd181af,61036abcc1555c65405eddeb,2021-07-29_22h00.29.403,Simcolourproject_2stim_asymm_v5,2020.2.10,Win32,60,61025ae37ef11b136ea224fe,,,,,,,,,3740,140,41,1,0,0,response1disk,,6,47,16,1,0,0,rectangle,47,16,1,0,0,47,16,1,0,0,1,62,222,24,1,,,,,,,,
,,,,,,,,,,,,,FF,,,,,,,,1.4336,,,,,,,,,,,,,,,,,,,,,,60fe2fed581d95673bd181af,61036abcc1555c65405eddeb,2021-07-29_22h00.29.403,Simcolourproject_2stim_asymm_v5,2020.2.10,Win32,60,61025ae37ef11b136ea224fe,,,,,,,,,900,111,33,1,0,0,response1disk,,6,29,5,1,0,0,rectangle,29,5,1,0,0,29,5,1,0,0,1,63,223,77,1,,,,,,,,
,,,,,,,,,,,,,FF,,,,,,,,1.1502,,,,,,,,,,,,,,,,,,,,,,60fe2fed581d95673bd181af,61036abcc1555c65405eddeb,2021-07-29_22h00.29.403,Simcolourproject_2stim_asymm_v5,2020.2.10,Win32,60,61025ae37ef11b136ea224fe,,,,,,,,,2225,-83,41,1,0,0,response7disk,,1,-7,0,1,0,0,rectangle,-7,0,1,0,0,-7,0,1,0,0,1,64,224,67,1,,,,,,,,
,,,,,,,,,,,,,FF,,,,,,,,2.2167,,,,,,,,,,,,,,,,,,,,,,60fe2fed581d95673bd181af,61036abcc1555c65405eddeb,2021-07-29_22h00.29.403,Simcolourproject_2stim_asymm_v5,2020.2.10,Win32,60,61025ae37ef11b136ea224fe,,,,,,,,,2297,-31,-43,1,0,0,response5disk,,3,1,-7,1,0,0,rectangle,1,-7,1,0,0,1,-7,1,0,0,1,65,225,152,1,,,,,,,,
,,,,,,,,,,,,,FF,,,,,,,,0.9176,,,,,,,,,,,,,,,,,,,,,,60fe2fed581d95673bd181af,61036abcc1555c65405eddeb,2021-07-29_22h00.29.403,Simcolourproject_2stim_asymm_v5,2020.2.10,Win32,60,61025ae37ef11b136ea224fe,,,,,,,,,2104,-52,-29,1,0,0,response5disk,,2,23,-7,1,0,0,rectangle,23,-7,1,0,0,23,-7,1,0,0,1,66,226,148,1,,,,,,,,
,,,,,,,,,,,,,FF,,,,,,,,1.150200001,,,,,,,,,,,,,,,,,,,,,,60fe2fed581d95673bd181af,61036abcc1555c65405eddeb,2021-07-29_22h00.29.403,Simcolourproject_2stim_asymm_v5,2020.2.10,Win32,60,61025ae37ef11b136ea224fe,,,,,,,,,3350,-81,-66,1,0,0,response5disk,,2,6,2,1,0,0,rectangle,6,2,1,0,0,6,2,1,0,0,1,67,227,128,1,,,,,,,,
,,,,,,,,,,,,,FF,,,,,,,,2.1164,,,,,,,,,,,,,,,,,,,,,,60fe2fed581d95673bd181af,61036abcc1555c65405eddeb,2021-07-29_22h00.29.403,Simcolourproject_2stim_asymm_v5,2020.2.10,Win32,60,61025ae37ef11b136ea224fe,,,,,,,,,2959,-40,-105,1,0,0,response5disk,,3,9,-20,1,0,0,rectangle,9,-20,1,0,0,9,-20,1,0,0,1,68,228,71,1,,,,,,,,
,,,,,,,,,,,,,FF,,,,,,,,4.4157,,,,,,,,,,,,,,,,,,,,,,60fe2fed581d95673bd181af,61036abcc1555c65405eddeb,2021-07-29_22h00.29.403,Simcolourproject_2stim_asymm_v5,2020.2.10,Win32,60,61025ae37ef11b136ea224fe,,,,,,,,,1014,-81,-26,1,0,0,response5disk,,2,-29,-17,1,0,0,rectangle,-29,-17,1,0,0,-29,-17,1,0,0,1,69,229,121,1,,,,,,,,
,,,,,,,,,,,,,FF,,,,,,,,0.883,,,,,,,,,,,,,,,,,,,,,,60fe2fed581d95673bd181af,61036abcc1555c65405eddeb,2021-07-29_22h00.29.403,Simcolourproject_2stim_asymm_v5,2020.2.10,Win32,60,61025ae37ef11b136ea224fe,,,,,,,,,3476,-75,-41,1,0,0,response5disk,,2,12,17,1,0,0,rectangle,12,17,1,0,0,12,17,1,0,0,1,70,230,98,1,,,,,,,,
,,,,,,,,,,,,,FF,,,,,,,,1.2996,,,,,,,,,,,,,,,,,,,,,,60fe2fed581d95673bd181af,61036abcc1555c65405eddeb,2021-07-29_22h00.29.403,Simcolourproject_2stim_asymm_v5,2020.2.10,Win32,60,61025ae37ef11b136ea224fe,,,,,,,,,1127,-55,-102,1,0,0,response5disk,,3,6,5,1,0,0,rectangle,6,5,1,0,0,6,5,1,0,0,1,71,231,120,1,,,,,,,,
,,,,,,,,,,,,,FF,,,,,,,,0.8169,,,,,,,,,,,,,,,,,,,,,,60fe2fed581d95673bd181af,61036abcc1555c65405eddeb,2021-07-29_22h00.29.403,Simcolourproject_2stim_asymm_v5,2020.2.10,Win32,60,61025ae37ef11b136ea224fe,,,,,,,,,901,-83,-51,1,0,0,response5disk,,2,6,0,1,0,0,rectangle,122,-56,1,0,0,23,0,1,0,0,1,72,232,2,1,,response3disk_3,TRUE,5,5,"[215,180,29,235,278,255,243,11,20,65,136,213,64,236,94,233,273,52,297,7]",1.4508,rectangle
,,,,,,,,,,,,,FF,,,,,,,,4.632900001,,,,,,,,,,,,,,,,,,,,,,60fe2fed581d95673bd181af,61036abcc1555c65405eddeb,2021-07-29_22h00.29.403,Simcolourproject_2stim_asymm_v5,2020.2.10,Win32,60,61025ae37ef11b136ea224fe,,,,,,,,,3212,-70,-25,1,0,0,response5disk,,2,-7,0,1,0,0,rectangle,-7,0,1,0,0,-7,0,1,0,0,1,73,233,155,1,,,,,,,,
,,,,,,,,,,,,,FF,,,,,,,,2.3163,,,,,,,,,,,,,,,,,,,,,,60fe2fed581d95673bd181af,61036abcc1555c65405eddeb,2021-07-29_22h00.29.403,Simcolourproject_2stim_asymm_v5,2020.2.10,Win32,60,61025ae37ef11b136ea224fe,,,,,,,,,4348,71,-101,1,0,0,response3disk,,4,23,-2,1,0,0,rectangle,-30,111,1,0,0,12,14,1,0,0,1,74,234,52,1,,response7disk_3,TRUE,0,0,"[215,180,29,235,278,255,243,11,20,65,136,213,64,236,94,233,273,52,297,7]",2.316200001,rectangle
,,,,,,,,,,,,,FF,,,,,,,,3.799599999,,,,,,,,,,,,,,,,,,,,,,60fe2fed581d95673bd181af,61036abcc1555c65405eddeb,2021-07-29_22h00.29.403,Simcolourproject_2stim_asymm_v5,2020.2.10,Win32,60,61025ae37ef11b136ea224fe,,,,,,,,,2587,95,-86,1,0,0,response3disk,,5,-32,9,1,0,0,rectangle,-47,-130,1,0,0,9,-4,1,0,0,1,75,235,11,1,,response5disk_3,TRUE,3,3,"[215,180,29,235,278,255,243,11,20,65,136,213,64,236,94,233,273,52,297,7]",2.066,rectangle
,,,,,,,,,,,,,FF,,,,,,,,6.3827,,,,,,,,,,,,,,,,,,,,,,60fe2fed581d95673bd181af,61036abcc1555c65405eddeb,2021-07-29_22h00.29.403,Simcolourproject_2stim_asymm_v5,2020.2.10,Win32,60,61025ae37ef11b136ea224fe,,,,,,,,,3244,-41,-65,1,0,0,response5disk,,3,-5,9,1,0,0,rectangle,-5,9,1,0,0,-5,9,1,0,0,1,76,236,124,1,,,,,,,,
,,,,,,,,,,,,,FF,,,,,,,,2.6492,,,,,,,,,,,,,,,,,,,,,,60fe2fed581d95673bd181af,61036abcc1555c65405eddeb,2021-07-29_22h00.29.403,Simcolourproject_2stim_asymm_v5,2020.2.10,Win32,60,61025ae37ef11b136ea224fe,,,,,,,,,294,-43,-119,1,0,0,response5disk,,3,6,4,1,0,0,rectangle,6,4,1,0,0,6,4,1,0,0,1,77,237,46,1,,,,,,,,
,,,,,,,,,,,,,FF,,,,,,,,2.217400001,,,,,,,,,,,,,,,,,,,,,,60fe2fed581d95673bd181af,61036abcc1555c65405eddeb,2021-07-29_22h00.29.403,Simcolourproject_2stim_asymm_v5,2020.2.10,Win32,60,61025ae37ef11b136ea224fe,,,,,,,,,3407,-34,-91,1,0,0,response5disk,,3,9,-1,1,0,0,rectangle,9,-1,1,0,0,9,-1,1,0,0,1,78,238,130,1,,,,,,,,
,,,,,,,,,,,,,FF,,,,,,,,5.999700001,,,,,,,,,,,,,,,,,,,,,,60fe2fed581d95673bd181af,61036abcc1555c65405eddeb,2021-07-29_22h00.29.403,Simcolourproject_2stim_asymm_v5,2020.2.10,Win32,60,61025ae37ef11b136ea224fe,,,,,,,,,1914,-47,-69,1,0,0,response5disk,,3,-24,-2,1,0,0,rectangle,-24,-2,1,0,0,-24,-2,1,0,0,1,79,239,94,1,,,,,,,,
,,,,,,,,,,,,,FF,,,,,,,,1.3333,,,,,,,,,,,,,,,,,,,,,,60fe2fed581d95673bd181af,61036abcc1555c65405eddeb,2021-07-29_22h00.29.403,Simcolourproject_2stim_asymm_v5,2020.2.10,Win32,60,61025ae37ef11b136ea224fe,,,,,,,,,2673,-53,-64,1,0,0,response5disk,,3,5,11,1,0,0,rectangle,5,11,1,0,0,5,11,1,0,0,1,80,240,63,1,,,,,,,,
,,,,,,,,,,,,,FF,,,,,,,,9.8152,,,,,,,,,,,,,,,,,,,,,,60fe2fed581d95673bd181af,61036abcc1555c65405eddeb,2021-07-29_22h00.29.403,Simcolourproject_2stim_asymm_v5,2020.2.10,Win32,60,61025ae37ef11b136ea224fe,,,,,,,,,4277,131,-53,1,0,0,response3disk,,5,39,8,1,0,0,rectangle,39,8,1,0,0,39,8,1,0,0,1,81,241,103,1,,,,,,,,
,,,,,,,,,,,,,FF,,,,,,,,2.3667,,,,,,,,,,,,,,,,,,,,,,60fe2fed581d95673bd181af,61036abcc1555c65405eddeb,2021-07-29_22h00.29.403,Simcolourproject_2stim_asymm_v5,2020.2.10,Win32,60,61025ae37ef11b136ea224fe,,,,,,,,,1243,-48,-145,1,0,0,response5disk,,3,20,0,1,0,0,rectangle,119,29,1,0,0,13,-3,1,0,0,1,82,242,14,1,,response1disk_3,TRUE,6,6,"[215,180,29,235,278,255,243,11,20,65,136,213,64,236,94,233,273,52,297,7]",2.2504,rectangle
,,,,,,,,,,,,,FF,,,,,,,,4.3998,,,,,,,,,,,,,,,,,,,,,,60fe2fed581d95673bd181af,61036abcc1555c65405eddeb,2021-07-29_22h00.29.403,Simcolourproject_2stim_asymm_v5,2020.2.10,Win32,60,61025ae37ef11b136ea224fe,,,,,,,,,1445,-82,150,1,0,0,response7disk,,0,15,-18,1,0,0,rectangle,15,-18,1,0,0,15,-18,1,0,0,1,83,243,17,1,,,,,,,,
,,,,,,,,,,,,,FF,,,,,,,,1.5169,,,,,,,,,,,,,,,,,,,,,,60fe2fed581d95673bd181af,61036abcc1555c65405eddeb,2021-07-29_22h00.29.403,Simcolourproject_2stim_asymm_v5,2020.2.10,Win32,60,61025ae37ef11b136ea224fe,,,,,,,,,327,58,-114,1,0,0,response3disk,,4,20,-2,1,0,0,rectangle,20,-2,1,0,0,20,-2,1,0,0,1,84,244,6,1,,,,,,,,
,,,,,,,,,,,,,FF,,,,,,,,1.2995,,,,,,,,,,,,,,,,,,,,,,60fe2fed581d95673bd181af,61036abcc1555c65405eddeb,2021-07-29_22h00.29.403,Simcolourproject_2stim_asymm_v5,2020.2.10,Win32,60,61025ae37ef11b136ea224fe,,,,,,,,,3041,-80,-106,1,0,0,response5disk,,3,3,-4,1,0,0,rectangle,3,-4,1,0,0,3,-4,1,0,0,1,85,245,13,1,,,,,,,,
,,,,,,,,,,,,,FF,,,,,,,,4.283,,,,,,,,,,,,,,,,,,,,,,60fe2fed581d95673bd181af,61036abcc1555c65405eddeb,2021-07-29_22h00.29.403,Simcolourproject_2stim_asymm_v5,2020.2.10,Win32,60,61025ae37ef11b136ea224fe,,,,,,,,,4076,-87,36,1,0,0,response7disk,,1,-7,-4,1,0,0,rectangle,-7,-4,1,0,0,-7,-4,1,0,0,1,86,246,136,1,,,,,,,,
,,,,,,,,,,,,,FF,,,,,,,,1.1668,,,,,,,,,,,,,,,,,,,,,,60fe2fed581d95673bd181af,61036abcc1555c65405eddeb,2021-07-29_22h00.29.403,Simcolourproject_2stim_asymm_v5,2020.2.10,Win32,60,61025ae37ef11b136ea224fe,,,,,,,,,3521,-84,-33,1,0,0,response5disk,,2,10,-6,1,0,0,rectangle,10,-6,1,0,0,10,-6,1,0,0,1,87,247,57,1,,,,,,,,
,,,,,,,,,,,,,FF,,,,,,,,1.4832,,,,,,,,,,,,,,,,,,,,,,60fe2fed581d95673bd181af,61036abcc1555c65405eddeb,2021-07-29_22h00.29.403,Simcolourproject_2stim_asymm_v5,2020.2.10,Win32,60,61025ae37ef11b136ea224fe,,,,,,,,,1723,37,-72,1,0,0,response3disk,,4,27,-2,1,0,0,rectangle,27,-2,1,0,0,27,-2,1,0,0,1,88,248,159,1,,,,,,,,
,,,,,,,,,,,,,FF,,,,,,,,1.5501,,,,,,,,,,,,,,,,,,,,,,60fe2fed581d95673bd181af,61036abcc1555c65405eddeb,2021-07-29_22h00.29.403,Simcolourproject_2stim_asymm_v5,2020.2.10,Win32,60,61025ae37ef11b136ea224fe,,,,,,,,,2363,-47,-81,1,0,0,response5disk,,3,-5,-17,1,0,0,rectangle,-5,-17,1,0,0,-5,-17,1,0,0,1,89,249,112,1,,,,,,,,
,,,,,,,,,,,,,FF,,,,,,,,1.283599999,,,,,,,,,,,,,,,,,,,,,,60fe2fed581d95673bd181af,61036abcc1555c65405eddeb,2021-07-29_22h00.29.403,Simcolourproject_2stim_asymm_v5,2020.2.10,Win32,60,61025ae37ef11b136ea224fe,,,,,,,,,203,78,-59,1,0,0,response3disk,,5,26,0,1,0,0,rectangle,26,0,1,0,0,26,0,1,0,0,1,90,250,107,1,,,,,,,,
,,,,,,,,,,,,,FF,,,,,,,,1.4672,,,,,,,,,,,,,,,,,,,,,,60fe2fed581d95673bd181af,61036abcc1555c65405eddeb,2021-07-29_22h00.29.403,Simcolourproject_2stim_asymm_v5,2020.2.10,Win32,60,61025ae37ef11b136ea224fe,,,,,,,,,262,80,-48,1,0,0,response3disk,,5,24,-2,1,0,0,rectangle,24,-2,1,0,0,24,-2,1,0,0,1,91,251,50,1,,,,,,,,
,,,,,,,,,,,,,FF,,,,,,,,1.0166,,,,,,,,,,,,,,,,,,,,,,60fe2fed581d95673bd181af,61036abcc1555c65405eddeb,2021-07-29_22h00.29.403,Simcolourproject_2stim_asymm_v5,2020.2.10,Win32,60,61025ae37ef11b136ea224fe,,,,,,,,,473,61,-67,1,0,0,response3disk,,4,21,0,1,0,0,rectangle,21,0,1,0,0,21,0,1,0,0,1,92,252,37,1,,,,,,,,
,,,,,,,,,,,,,FF,,,,,,,,0.9505,,,,,,,,,,,,,,,,,,,,,,60fe2fed581d95673bd181af,61036abcc1555c65405eddeb,2021-07-29_22h00.29.403,Simcolourproject_2stim_asymm_v5,2020.2.10,Win32,60,61025ae37ef11b136ea224fe,,,,,,,,,2045,57,-74,1,0,0,response3disk,,4,34,-1,1,0,0,rectangle,34,-1,1,0,0,34,-1,1,0,0,1,93,253,99,1,,,,,,,,
,,,,,,,,,,,,,FF,,,,,,,,2.55,,,,,,,,,,,,,,,,,,,,,,60fe2fed581d95673bd181af,61036abcc1555c65405eddeb,2021-07-29_22h00.29.403,Simcolourproject_2stim_asymm_v5,2020.2.10,Win32,60,61025ae37ef11b136ea224fe,,,,,,,,,174,-40,-89,1,0,0,response5disk,,3,16,-16,1,0,0,rectangle,89,-120,1,0,0,28,11,1,0,0,1,94,254,55,1,,response3disk_3,TRUE,4,4,"[215,180,29,235,278,255,243,11,20,65,136,213,64,236,94,233,273,52,297,7]",1.965900001,rectangle
,,,,,,,,,,,,,FF,,,,,,,,3.766599999,,,,,,,,,,,,,,,,,,,,,,60fe2fed581d95673bd181af,61036abcc1555c65405eddeb,2021-07-29_22h00.29.403,Simcolourproject_2stim_asymm_v5,2020.2.10,Win32,60,61025ae37ef11b136ea224fe,,,,,,,,,1948,-40,-96,1,0,0,response5disk,,3,5,-10,1,0,0,rectangle,5,-10,1,0,0,5,-10,1,0,0,1,95,255,149,1,,,,,,,,
,,,,,,,,,,,,,FF,,,,,,,,2.6168,,,,,,,,,,,,,,,,,,,,,,60fe2fed581d95673bd181af,61036abcc1555c65405eddeb,2021-07-29_22h00.29.403,Simcolourproject_2stim_asymm_v5,2020.2.10,Win32,60,61025ae37ef11b136ea224fe,,,,,,,,,3730,86,-67,1,0,0,response3disk,,5,16,10,1,0,0,rectangle,16,10,1,0,0,16,10,1,0,0,1,96,256,101,1,,,,,,,,
,,,,,,,,,,,,,FF,,,,,,,,2.3165,,,,,,,,,,,,,,,,,,,,,,60fe2fed581d95673bd181af,61036abcc1555c65405eddeb,2021-07-29_22h00.29.403,Simcolourproject_2stim_asymm_v5,2020.2.10,Win32,60,61025ae37ef11b136ea224fe,,,,,,,,,0,-82,-36,1,0,0,response5disk,,2,-11,-3,1,0,0,rectangle,-11,-3,1,0,0,-11,-3,1,0,0,1,97,257,116,1,,,,,,,,
,,,,,,,,,,,,,FF,,,,,,,,2.783099999,,,,,,,,,,,,,,,,,,,,,,60fe2fed581d95673bd181af,61036abcc1555c65405eddeb,2021-07-29_22h00.29.403,Simcolourproject_2stim_asymm_v5,2020.2.10,Win32,60,61025ae37ef11b136ea224fe,,,,,,,,,2652,56,-90,1,0,0,response3disk,,4,23,17,1,0,0,rectangle,23,17,1,0,0,23,17,1,0,0,1,98,258,74,1,,,,,,,,
,,,,,,,,,,,,,FF,,,,,,,,11.4483,,,,,,,,,,,,,,,,,,,,,,60fe2fed581d95673bd181af,61036abcc1555c65405eddeb,2021-07-29_22h00.29.403,Simcolourproject_2stim_asymm_v5,2020.2.10,Win32,60,61025ae37ef11b136ea224fe,,,,,,,,,1649,-90,-37,1,0,0,response5disk,,2,11,14,1,0,0,rectangle,11,14,1,0,0,11,14,1,0,0,1,99,259,70,1,,,,,,,,
,,,,,,,,,,,,,FF,,,,,,,,1.233299999,,,,,,,,,,,,,,,,,,,,,,60fe2fed581d95673bd181af,61036abcc1555c65405eddeb,2021-07-29_22h00.29.403,Simcolourproject_2stim_asymm_v5,2020.2.10,Win32,60,61025ae37ef11b136ea224fe,,,,,,,,,1418,-51,-121,1,0,0,response5disk,,3,10,-2,1,0,0,rectangle,10,-2,1,0,0,10,-2,1,0,0,1,100,260,141,1,,,,,,,,
,,,,,,,,,,,,,FF,,,,,,,,4.3502,,,,,,,,,,,,,,,,,,,,,,60fe2fed581d95673bd181af,61036abcc1555c65405eddeb,2021-07-29_22h00.29.403,Simcolourproject_2stim_asymm_v5,2020.2.10,Win32,60,61025ae37ef11b136ea224fe,,,,,,,,,2779,63,-122,1,0,0,response3disk,,4,27,-16,1,0,0,rectangle,27,-16,1,0,0,27,-16,1,0,0,1,101,261,40,1,,,,,,,,
,,,,,,,,,,,,,FF,,,,,,,,1.8499,,,,,,,,,,,,,,,,,,,,,,60fe2fed581d95673bd181af,61036abcc1555c65405eddeb,2021-07-29_22h00.29.403,Simcolourproject_2stim_asymm_v5,2020.2.10,Win32,60,61025ae37ef11b136ea224fe,,,,,,,,,3059,-68,-112,1,0,0,response5disk,,3,28,6,1,0,0,rectangle,28,6,1,0,0,28,6,1,0,0,1,102,262,137,1,,,,,,,,
,,,,,,,,,,,,,FF,,,,,,,,1.05,,,,,,,,,,,,,,,,,,,,,,60fe2fed581d95673bd181af,61036abcc1555c65405eddeb,2021-07-29_22h00.29.403,Simcolourproject_2stim_asymm_v5,2020.2.10,Win32,60,61025ae37ef11b136ea224fe,,,,,,,,,2683,40,-76,1,0,0,response3disk,,4,36,15,1,0,0,rectangle,36,15,1,0,0,36,15,1,0,0,1,103,263,58,1,,,,,,,,
,,,,,,,,,,,,,FF,,,,,,,,1.2833,,,,,,,,,,,,,,,,,,,,,,60fe2fed581d95673bd181af,61036abcc1555c65405eddeb,2021-07-29_22h00.29.403,Simcolourproject_2stim_asymm_v5,2020.2.10,Win32,60,61025ae37ef11b136ea224fe,,,,,,,,,2943,-78,-106,1,0,0,response5disk,,3,-19,-4,1,0,0,rectangle,-19,-4,1,0,0,-19,-4,1,0,0,1,104,264,1,1,,,,,,,,
,,,,,,,,,,,,,FF,,,,,,,,1.266400001,,,,,,,,,,,,,,,,,,,,,,60fe2fed581d95673bd181af,61036abcc1555c65405eddeb,2021-07-29_22h00.29.403,Simcolourproject_2stim_asymm_v5,2020.2.10,Win32,60,61025ae37ef11b136ea224fe,,,,,,,,,10,-97,-66,1,0,0,response5disk,,2,-15,16,1,0,0,rectangle,-15,16,1,0,0,-15,16,1,0,0,1,105,265,154,1,,,,,,,,
,,,,,,,,,,,,,FF,,,,,,,,0.866900001,,,,,,,,,,,,,,,,,,,,,,60fe2fed581d95673bd181af,61036abcc1555c65405eddeb,2021-07-29_22h00.29.403,Simcolourproject_2stim_asymm_v5,2020.2.10,Win32,60,61025ae37ef11b136ea224fe,,,,,,,,,1945,-89,-44,1,0,0,response5disk,,2,-9,9,1,0,0,rectangle,-9,9,1,0,0,-9,9,1,0,0,1,106,266,34,1,,,,,,,,
,,,,,,,,,,,,,FF,,,,,,,,1.4665,,,,,,,,,,,,,,,,,,,,,,60fe2fed581d95673bd181af,61036abcc1555c65405eddeb,2021-07-29_22h00.29.403,Simcolourproject_2stim_asymm_v5,2020.2.10,Win32,60,61025ae37ef11b136ea224fe,,,,,,,,,3759,-87,-56,1,0,0,response5disk,,2,-6,13,1,0,0,rectangle,-6,13,1,0,0,-6,13,1,0,0,1,107,267,49,1,,,,,,,,
,,,,,,,,,,,,,FF,,,,,,,,1.0175,,,,,,,,,,,,,,,,,,,,,,60fe2fed581d95673bd181af,61036abcc1555c65405eddeb,2021-07-29_22h00.29.403,Simcolourproject_2stim_asymm_v5,2020.2.10,Win32,60,61025ae37ef11b136ea224fe,,,,,,,,,813,-90,-68,1,0,0,response5disk,,2,-2,-1,1,0,0,rectangle,-2,-1,1,0,0,-2,-1,1,0,0,1,108,268,26,1,,,,,,,,
,,,,,,,,,,,,,FF,,,,,,,,2.4993,,,,,,,,,,,,,,,,,,,,,,60fe2fed581d95673bd181af,61036abcc1555c65405eddeb,2021-07-29_22h00.29.403,Simcolourproject_2stim_asymm_v5,2020.2.10,Win32,60,61025ae37ef11b136ea224fe,,,,,,,,,3419,47,-106,1,0,0,response3disk,,4,34,-1,1,0,0,rectangle,34,-1,1,0,0,34,-1,1,0,0,1,109,269,91,1,,,,,,,,
,,,,,,,,,,,,,FF,,,,,,,,2.216400001,,,,,,,,,,,,,,,,,,,,,,60fe2fed581d95673bd181af,61036abcc1555c65405eddeb,2021-07-29_22h00.29.403,Simcolourproject_2stim_asymm_v5,2020.2.10,Win32,60,61025ae37ef11b136ea224fe,,,,,,,,,1892,-108,-75,1,0,0,response5disk,,2,-13,-19,1,0,0,rectangle,-13,-19,1,0,0,-13,-19,1,0,0,1,110,270,5,1,,,,,,,,
,,,,,,,,,,,,,FF,,,,,,,,2.3331,,,,,,,,,,,,,,,,,,,,,,60fe2fed581d95673bd181af,61036abcc1555c65405eddeb,2021-07-29_22h00.29.403,Simcolourproject_2stim_asymm_v5,2020.2.10,Win32,60,61025ae37ef11b136ea224fe,,,,,,,,,4032,-48,-78,1,0,0,response5disk,,3,-3,4,1,0,0,rectangle,-3,4,1,0,0,-3,4,1,0,0,1,111,271,85,1,,,,,,,,
,,,,,,,,,,,,,FF,,,,,,,,0.8999,,,,,,,,,,,,,,,,,,,,,,60fe2fed581d95673bd181af,61036abcc1555c65405eddeb,2021-07-29_22h00.29.403,Simcolourproject_2stim_asymm_v5,2020.2.10,Win32,60,61025ae37ef11b136ea224fe,,,,,,,,,2824,32,-68,1,0,0,response3disk,,4,28,13,1,0,0,rectangle,-117,-42,1,0,0,-27,-9,1,0,0,1,112,272,135,1,,response5disk_3,TRUE,2,2,"[215,180,29,235,278,255,243,11,20,65,136,213,64,236,94,233,273,52,297,7]",2.1157,rectangle
,,,,,,,,,,,,,FF,,,,,,,,1.983,,,,,,,,,,,,,,,,,,,,,,60fe2fed581d95673bd181af,61036abcc1555c65405eddeb,2021-07-29_22h00.29.403,Simcolourproject_2stim_asymm_v5,2020.2.10,Win32,60,61025ae37ef11b136ea224fe,,,,,,,,,3803,37,-62,1,0,0,response3disk,,4,7,17,1,0,0,rectangle,7,17,1,0,0,7,17,1,0,0,1,113,273,140,1,,,,,,,,
,,,,,,,,,,,,,FF,,,,,,,,2.282099999,,,,,,,,,,,,,,,,,,,,,,60fe2fed581d95673bd181af,61036abcc1555c65405eddeb,2021-07-29_22h00.29.403,Simcolourproject_2stim_asymm_v5,2020.2.10,Win32,60,61025ae37ef11b136ea224fe,,,,,,,,,3128,-41,-83,1,0,0,response5disk,,3,15,-1,1,0,0,rectangle,15,-1,1,0,0,15,-1,1,0,0,1,114,274,53,1,,,,,,,,
,,,,,,,,,,,,,FF,,,,,,,,2.617299999,,,,,,,,,,,,,,,,,,,,,,60fe2fed581d95673bd181af,61036abcc1555c65405eddeb,2021-07-29_22h00.29.403,Simcolourproject_2stim_asymm_v5,2020.2.10,Win32,60,61025ae37ef11b136ea224fe,,,,,,,,,2551,104,-147,1,0,0,response3disk,,4,22,-12,1,0,0,rectangle,22,-12,1,0,0,22,-12,1,0,0,1,115,275,76,1,,,,,,,,
,,,,,,,,,,,,,FF,,,,,,,,1.366599999,,,,,,,,,,,,,,,,,,,,,,60fe2fed581d95673bd181af,61036abcc1555c65405eddeb,2021-07-29_22h00.29.403,Simcolourproject_2stim_asymm_v5,2020.2.10,Win32,60,61025ae37ef11b136ea224fe,,,,,,,,,2681,-42,-84,1,0,0,response5disk,,3,-7,-20,1,0,0,rectangle,-7,-20,1,0,0,-7,-20,1,0,0,1,116,276,75,1,,,,,,,,
,,,,,,,,,,,,,FF,,,,,,,,1.5995,,,,,,,,,,,,,,,,,,,,,,60fe2fed581d95673bd181af,61036abcc1555c65405eddeb,2021-07-29_22h00.29.403,Simcolourproject_2stim_asymm_v5,2020.2.10,Win32,60,61025ae37ef11b136ea224fe,,,,,,,,,3673,-66,-86,1,0,0,response5disk,,3,-14,-1,1,0,0,rectangle,-80,-127,1,0,0,6,-5,1,0,0,1,117,277,151,1,,response5disk_3,TRUE,3,3,"[215,180,29,235,278,255,243,11,20,65,136,213,64,236,94,233,273,52,297,7]",1.9171,rectangle
,,,,,,,,,,,,,FF,,,,,,,,2.6165,,,,,,,,,,,,,,,,,,,,,,60fe2fed581d95673bd181af,61036abcc1555c65405eddeb,2021-07-29_22h00.29.403,Simcolourproject_2stim_asymm_v5,2020.2.10,Win32,60,61025ae37ef11b136ea224fe,,,,,,,,,742,-49,-74,1,0,0,response5disk,,3,8,13,1,0,0,rectangle,8,13,1,0,0,8,13,1,0,0,1,118,278,9,1,,,,,,,,
,,,,,,,,,,,,,FF,,,,,,,,1.0833,,,,,,,,,,,,,,,,,,,,,,60fe2fed581d95673bd181af,61036abcc1555c65405eddeb,2021-07-29_22h00.29.403,Simcolourproject_2stim_asymm_v5,2020.2.10,Win32,60,61025ae37ef11b136ea224fe,,,,,,,,,3572,-47,-93,1,0,0,response5disk,,3,2,-5,1,0,0,rectangle,2,-5,1,0,0,2,-5,1,0,0,1,119,279,119,1,,,,,,,,
,,,,,,,,,,,,,FF,,,,,,,,2.999799999,,,,,,,,,,,,,,,,,,,,,,60fe2fed581d95673bd181af,61036abcc1555c65405eddeb,2021-07-29_22h00.29.403,Simcolourproject_2stim_asymm_v5,2020.2.10,Win32,60,61025ae37ef11b136ea224fe,,,,,,,,,1358,42,-98,1,0,0,response3disk,,4,22,-18,1,0,0,rectangle,22,-18,1,0,0,22,-18,1,0,0,1,120,280,61,1,,,,,,,,
,,,,,,,,,,,,,FF,,,,,,,,4.8159,,,,,,,,,,,,,,,,,,,,,,60fe2fed581d95673bd181af,61036abcc1555c65405eddeb,2021-07-29_22h00.29.403,Simcolourproject_2stim_asymm_v5,2020.2.10,Win32,60,61025ae37ef11b136ea224fe,,,,,,,,,2975,-57,-102,1,0,0,response5disk,,3,21,-7,1,0,0,rectangle,21,-7,1,0,0,21,-7,1,0,0,1,121,281,41,1,,,,,,,,
,,,,,,,,,,,,,FF,,,,,,,,1.3835,,,,,,,,,,,,,,,,,,,,,,60fe2fed581d95673bd181af,61036abcc1555c65405eddeb,2021-07-29_22h00.29.403,Simcolourproject_2stim_asymm_v5,2020.2.10,Win32,60,61025ae37ef11b136ea224fe,,,,,,,,,2899,-49,-123,1,0,0,response5disk,,3,5,-4,1,0,0,rectangle,5,-4,1,0,0,5,-4,1,0,0,1,122,282,31,1,,,,,,,,
,,,,,,,,,,,,,FF,,,,,,,,1.5497,,,,,,,,,,,,,,,,,,,,,,60fe2fed581d95673bd181af,61036abcc1555c65405eddeb,2021-07-29_22h00.29.403,Simcolourproject_2stim_asymm_v5,2020.2.10,Win32,60,61025ae37ef11b136ea224fe,,,,,,,,,55,37,-105,1,0,0,response3disk,,4,14,2,1,0,0,rectangle,14,2,1,0,0,14,2,1,0,0,1,123,283,82,1,,,,,,,,
,,,,,,,,,,,,,FF,,,,,,,,2.182799999,,,,,,,,,,,,,,,,,,,,,,60fe2fed581d95673bd181af,61036abcc1555c65405eddeb,2021-07-29_22h00.29.403,Simcolourproject_2stim_asymm_v5,2020.2.10,Win32,60,61025ae37ef11b136ea224fe,,,,,,,,,3113,87,-57,1,0,0,response3disk,,5,4,14,1,0,0,rectangle,4,14,1,0,0,4,14,1,0,0,1,124,284,68,1,,,,,,,,
,,,,,,,,,,,,,FF,,,,,,,,2.5169,,,,,,,,,,,,,,,,,,,,,,60fe2fed581d95673bd181af,61036abcc1555c65405eddeb,2021-07-29_22h00.29.403,Simcolourproject_2stim_asymm_v5,2020.2.10,Win32,60,61025ae37ef11b136ea224fe,,,,,,,,,1745,-53,44,1,0,0,response7disk,,1,19,12,1,0,0,rectangle,19,12,1,0,0,19,12,1,0,0,1,125,285,7,1,,,,,,,,
,,,,,,,,,,,,,FF,,,,,,,,1.549900001,,,,,,,,,,,,,,,,,,,,,,60fe2fed581d95673bd181af,61036abcc1555c65405eddeb,2021-07-29_22h00.29.403,Simcolourproject_2stim_asymm_v5,2020.2.10,Win32,60,61025ae37ef11b136ea224fe,,,,,,,,,1392,-61,-110,1,0,0,response5disk,,3,-22,7,1,0,0,rectangle,-22,7,1,0,0,-22,7,1,0,0,1,126,286,56,1,,,,,,,,
,,,,,,,,,,,,,FF,,,,,,,,1.8163,,,,,,,,,,,,,,,,,,,,,,60fe2fed581d95673bd181af,61036abcc1555c65405eddeb,2021-07-29_22h00.29.403,Simcolourproject_2stim_asymm_v5,2020.2.10,Win32,60,61025ae37ef11b136ea224fe,,,,,,,,,2194,40,63,1,0,0,response1disk,,7,1,8,1,0,0,rectangle,1,8,1,0,0,1,8,1,0,0,1,127,287,134,1,,,,,,,,
,,,,,,,,,,,,,FF,,,,,,,,1.0668,,,,,,,,,,,,,,,,,,,,,,60fe2fed581d95673bd181af,61036abcc1555c65405eddeb,2021-07-29_22h00.29.403,Simcolourproject_2stim_asymm_v5,2020.2.10,Win32,60,61025ae37ef11b136ea224fe,,,,,,,,,1491,30,57,1,0,0,response1disk,,7,37,3,1,0,0,rectangle,37,3,1,0,0,37,3,1,0,0,1,128,288,64,1,,,,,,,,
,,,,,,,,,,,,,FF,,,,,,,,1.583,,,,,,,,,,,,,,,,,,,,,,60fe2fed581d95673bd181af,61036abcc1555c65405eddeb,2021-07-29_22h00.29.403,Simcolourproject_2stim_asymm_v5,2020.2.10,Win32,60,61025ae37ef11b136ea224fe,,,,,,,,,3146,-67,27,1,0,0,response7disk,,1,10,-5,1,0,0,rectangle,10,-5,1,0,0,10,-5,1,0,0,1,129,289,18,1,,,,,,,,
,,,,,,,,,,,,,FF,,,,,,,,0.917,,,,,,,,,,,,,,,,,,,,,,60fe2fed581d95673bd181af,61036abcc1555c65405eddeb,2021-07-29_22h00.29.403,Simcolourproject_2stim_asymm_v5,2020.2.10,Win32,60,61025ae37ef11b136ea224fe,,,,,,,,,1599,-54,-111,1,0,0,response5disk,,3,-7,6,1,0,0,rectangle,-7,6,1,0,0,-7,6,1,0,0,1,130,290,102,1,,,,,,,,
,,,,,,,,,,,,,FF,,,,,,,,1.1669,,,,,,,,,,,,,,,,,,,,,,60fe2fed581d95673bd181af,61036abcc1555c65405eddeb,2021-07-29_22h00.29.403,Simcolourproject_2stim_asymm_v5,2020.2.10,Win32,60,61025ae37ef11b136ea224fe,,,,,,,,,385,72,-107,1,0,0,response3disk,,4,28,14,1,0,0,rectangle,28,14,1,0,0,28,14,1,0,0,1,131,291,15,1,,,,,,,,
,,,,,,,,,,,,,FF,,,,,,,,1.6335,,,,,,,,,,,,,,,,,,,,,,60fe2fed581d95673bd181af,61036abcc1555c65405eddeb,2021-07-29_22h00.29.403,Simcolourproject_2stim_asymm_v5,2020.2.10,Win32,60,61025ae37ef11b136ea224fe,,,,,,,,,1189,60,70,1,0,0,response1disk,,7,31,8,1,0,0,rectangle,31,8,1,0,0,31,8,1,0,0,1,132,292,62,1,,,,,,,,
,,,,,,,,,,,,,FF,,,,,,,,1.0522,,,,,,,,,,,,,,,,,,,,,,60fe2fed581d95673bd181af,61036abcc1555c65405eddeb,2021-07-29_22h00.29.403,Simcolourproject_2stim_asymm_v5,2020.2.10,Win32,60,61025ae37ef11b136ea224fe,,,,,,,,,2021,-39,-61,1,0,0,response5disk,,3,9,12,1,0,0,rectangle,9,12,1,0,0,9,12,1,0,0,1,133,293,117,1,,,,,,,,
,,,,,,,,,,,,,FF,,,,,,,,1.5835,,,,,,,,,,,,,,,,,,,,,,60fe2fed581d95673bd181af,61036abcc1555c65405eddeb,2021-07-29_22h00.29.403,Simcolourproject_2stim_asymm_v5,2020.2.10,Win32,60,61025ae37ef11b136ea224fe,,,,,,,,,189,-69,-101,1,0,0,response5disk,,3,-7,-21,1,0,0,rectangle,-7,-21,1,0,0,-7,-21,1,0,0,1,134,294,51,1,,,,,,,,
,,,,,,,,,,,,,FF,,,,,,,,3.132700001,,,,,,,,,,,,,,,,,,,,,,60fe2fed581d95673bd181af,61036abcc1555c65405eddeb,2021-07-29_22h00.29.403,Simcolourproject_2stim_asymm_v5,2020.2.10,Win32,60,61025ae37ef11b136ea224fe,,,,,,,,,3906,101,70,1,0,0,response1disk,,6,1,12,1,0,0,rectangle,1,12,1,0,0,1,12,1,0,0,1,135,295,19,1,,,,,,,,
,,,,,,,,,,,,,FF,,,,,,,,1,,,,,,,,,,,,,,,,,,,,,,60fe2fed581d95673bd181af,61036abcc1555c65405eddeb,2021-07-29_22h00.29.403,Simcolourproject_2stim_asymm_v5,2020.2.10,Win32,60,61025ae37ef11b136ea224fe,,,,,,,,,509,-92,70,1,0,0,response7disk,,1,1,8,1,0,0,rectangle,120,-64,1,0,0,30,8,1,0,0,1,136,296,88,1,,response3disk_3,TRUE,5,5,"[215,180,29,235,278,255,243,11,20,65,136,213,64,236,94,233,273,52,297,7]",2.599299999,rectangle
,,,,,,,,,,,,,FF,,,,,,,,2.1172,,,,,,,,,,,,,,,,,,,,,,60fe2fed581d95673bd181af,61036abcc1555c65405eddeb,2021-07-29_22h00.29.403,Simcolourproject_2stim_asymm_v5,2020.2.10,Win32,60,61025ae37ef11b136ea224fe,,,,,,,,,1832,26,97,1,0,0,response1disk,,7,6,1,1,0,0,rectangle,6,1,1,0,0,6,1,1,0,0,1,137,297,72,1,,,,,,,,
,,,,,,,,,,,,,FF,,,,,,,,2.616400001,,,,,,,,,,,,,,,,,,,,,,60fe2fed581d95673bd181af,61036abcc1555c65405eddeb,2021-07-29_22h00.29.403,Simcolourproject_2stim_asymm_v5,2020.2.10,Win32,60,61025ae37ef11b136ea224fe,,,,,,,,,3071,63,90,1,0,0,response1disk,,7,32,15,1,0,0,rectangle,32,15,1,0,0,32,15,1,0,0,1,138,298,4,1,,,,,,,,
