key_resp.keys,key_resp.rt,key_resp_14.keys,key_resp_14.rt,key_resp_15.keys,key_resp_15.rt,key_resp_17.keys,key_resp_17.rt,key_resp_9.keys,key_resp_9.rt,key_resp_10.keys,key_resp_10.rt,practice_comparison,Ecc,mouse_5.x,mouse_5.y,mouse_5.leftButton,mouse_5.midButton,mouse_5.rightButton,mouse_5.clicked_name,pracsimilarity,response_time,mouse_10.x,mouse_10.y,mouse_10.leftButton,mouse_10.midButton,mouse_10.rightButton,mouse_10.clicked_name,mouse_7.x,mouse_7.y,mouse_7.leftButton,mouse_7.midButton,mouse_7.rightButton,mouse_6.x,mouse_6.y,mouse_6.leftButton,mouse_6.midButton,mouse_6.rightButton,duringprac.thisRepN,duringprac.thisTrialN,duringprac.thisN,duringprac.thisIndex,duringprac.ran,participant,session,date,expName,psychopyVersion,OS,frameRate,study_id,mouse_7.clicked_name,catchpracsimilarity,catch_response_time,catchnumberprac,catchtrialorderprac,mouse_6.clicked_name,key_resp_22.keys,key_resp_22.rt,realcomparison,mouse.x,mouse.y,mouse.leftButton,mouse.midButton,mouse.rightButton,mouse.clicked_name,Colour2,similarity,mouse_2.x,mouse_2.y,mouse_2.leftButton,mouse_2.midButton,mouse_2.rightButton,mouse_2.clicked_name,mouse_3.x,mouse_3.y,mouse_3.leftButton,mouse_3.midButton,mouse_3.rightButton,mouse_11.x,mouse_11.y,mouse_11.leftButton,mouse_11.midButton,mouse_11.rightButton,trials_2.thisRepN,trials_2.thisTrialN,trials_2.thisN,trials_2.thisIndex,trials_2.ran,Colour1,mouse_3.clicked_name,catchornah,catchsimilarity,catchnumber,catchtrialorder,catchRT,mouse_11.clicked_name
space,2.104155,space,31.262245,space,40.89396,space,9.44575,space,3.576435,space,9.078435,91,PF,-34.08087158,-81.92504883,1,0,0,response5disk_5,3,45.43948,4.374023438,-11.98947144,1,0,0,rectangle_8,4.374023438,-11.98947144,1,0,0,4.374023438,-11.98947144,1,0,0,0,0,0,1,1,60fe141b6ea6b56a60f5064d,61036964bc3d8dca65f5a60f,2021-07-29_22h55.21.656,Simcolourproject_2stim_asymm_v5,2020.2.10,Linux x86_64,60,61025ae37ef11b136ea224fe,,,,,,,,,,,,,,,,,,,,,,,,,,,,,,,,,,,,,,,,,,,,,,
,,,,,,,,,,,,101,PF,-44.40722656,82.71795654,1,0,0,response7disk_5,0,15.31894,-7.491516113,3.924530029,1,0,0,rectangle_8,84.47344971,-46.93356323,1,0,0,-12.25927734,-8.845825195,1,0,0,0,1,1,6,1,60fe141b6ea6b56a60f5064d,61036964bc3d8dca65f5a60f,2021-07-29_22h55.21.656,Simcolourproject_2stim_asymm_v5,2020.2.10,Linux x86_64,60,61025ae37ef11b136ea224fe,response3disk_7,5,3.90265,5,"[2,5]",rectangle_4,,,,,,,,,,,,,,,,,,,,,,,,,,,,,,,,,,,,,,,,
,,,,,,,,,,,,53,FF,36.11218262,92.49798584,1,0,0,response1disk_5,7,4.833235,1.548950195,-1.004272461,1,0,0,rectangle_8,1.548950195,-1.004272461,1,0,0,1.548950195,-1.004272461,1,0,0,0,2,2,0,1,60fe141b6ea6b56a60f5064d,61036964bc3d8dca65f5a60f,2021-07-29_22h55.21.656,Simcolourproject_2stim_asymm_v5,2020.2.10,Linux x86_64,60,61025ae37ef11b136ea224fe,,,,,,,,,,,,,,,,,,,,,,,,,,,,,,,,,,,,,,,,,,,,,,
,,,,,,,,,,,,74,PF,-36.69805908,77.70373535,1,0,0,response7disk_5,0,2.78357,9.375061035,2.731781006,1,0,0,rectangle_8,9.375061035,2.731781006,1,0,0,9.375061035,2.731781006,1,0,0,0,3,3,4,1,60fe141b6ea6b56a60f5064d,61036964bc3d8dca65f5a60f,2021-07-29_22h55.21.656,Simcolourproject_2stim_asymm_v5,2020.2.10,Linux x86_64,60,61025ae37ef11b136ea224fe,,,,,,,,,,,,,,,,,,,,,,,,,,,,,,,,,,,,,,,,,,,,,,
,,,,,,,,,,,,8,FF,36.50848389,70.91705322,1,0,0,response1disk_5,7,7.100435,0.624572754,-3.45703125,1,0,0,rectangle_8,80.01513672,-41.0461731,1,0,0,0.296142578,-2.992889404,1,0,0,0,4,4,5,1,60fe141b6ea6b56a60f5064d,61036964bc3d8dca65f5a60f,2021-07-29_22h55.21.656,Simcolourproject_2stim_asymm_v5,2020.2.10,Linux x86_64,60,61025ae37ef11b136ea224fe,response3disk_7,5,2.734835,5,"[2,5]",rectangle_4,,,,,,,,,,,,,,,,,,,,,,,,,,,,,,,,,,,,,,,,
,,,,,,,,,,,,155,FF,-23.34912109,-92.50756836,1,0,0,response5disk_5,3,6.65026,11.89501953,-0.378570557,1,0,0,rectangle_8,11.89501953,-0.378570557,1,0,0,11.89501953,-0.378570557,1,0,0,0,5,5,3,1,60fe141b6ea6b56a60f5064d,61036964bc3d8dca65f5a60f,2021-07-29_22h55.21.656,Simcolourproject_2stim_asymm_v5,2020.2.10,Linux x86_64,60,61025ae37ef11b136ea224fe,,,,,,,,,,,,,,,,,,,,,,,,,,,,,,,,,,,,,,,,,,,,,,
,,,,,,,,,,,,40,PF,85.46813965,38.78140259,1,0,0,response1disk_5,6,11.96608,4.343811035,-4.895599365,1,0,0,rectangle_8,4.343811035,-4.895599365,1,0,0,4.343811035,-4.895599365,1,0,0,0,6,6,2,1,60fe141b6ea6b56a60f5064d,61036964bc3d8dca65f5a60f,2021-07-29_22h55.21.656,Simcolourproject_2stim_asymm_v5,2020.2.10,Linux x86_64,60,61025ae37ef11b136ea224fe,,,,,,,,,,,,,,,,,,,,,,,,,,,,,,,,,,,,,,,,,,,,,,
,,,,,,,,,,,,,FF,,,,,,,,12.516625,,,,,,,,,,,,,,,,,,,,,,60fe141b6ea6b56a60f5064d,61036964bc3d8dca65f5a60f,2021-07-29_22h55.21.656,Simcolourproject_2stim_asymm_v5,2020.2.10,Linux x86_64,60,61025ae37ef11b136ea224fe,,,,,,,space,7.354135,164,-79.14916992,-40.97665405,1,0,0,response5disk,,2,-12.81695557,0.318664551,1,0,0,rectangle,-12.81695557,0.318664551,1,0,0,-12.81695557,0.318664551,1,0,0,0,0,0,124,1,,,,,,,,
,,,,,,,,,,,,,FF,,,,,,,,5.40099,,,,,,,,,,,,,,,,,,,,,,60fe141b6ea6b56a60f5064d,61036964bc3d8dca65f5a60f,2021-07-29_22h55.21.656,Simcolourproject_2stim_asymm_v5,2020.2.10,Linux x86_64,60,61025ae37ef11b136ea224fe,,,,,,,,,1682,43.61004639,-94.0105896,1,0,0,response3disk,,4,-8.505859375,-3.010986328,1,0,0,rectangle,-77.69299316,34.63684082,1,0,0,-12.9152832,5.076507568,1,0,0,0,1,1,55,1,,response7disk_3,TRUE,1,1,"[9,186,180,17,81,36,295,170,321,298,19,164,118,192,241,171,2,36,271,42]",2.750955,rectangle
,,,,,,,,,,,,,FF,,,,,,,,1.71766,,,,,,,,,,,,,,,,,,,,,,60fe141b6ea6b56a60f5064d,61036964bc3d8dca65f5a60f,2021-07-29_22h55.21.656,Simcolourproject_2stim_asymm_v5,2020.2.10,Linux x86_64,60,61025ae37ef11b136ea224fe,,,,,,,,,2093,-42.79498291,108.8108215,1,0,0,response7disk,,0,-0.067382813,-5.316833496,1,0,0,rectangle,-0.067382813,-5.316833496,1,0,0,-0.067382813,-5.316833496,1,0,0,0,2,2,66,1,,,,,,,,
,,,,,,,,,,,,,FF,,,,,,,,2.03348,,,,,,,,,,,,,,,,,,,,,,60fe141b6ea6b56a60f5064d,61036964bc3d8dca65f5a60f,2021-07-29_22h55.21.656,Simcolourproject_2stim_asymm_v5,2020.2.10,Linux x86_64,60,61025ae37ef11b136ea224fe,,,,,,,,,476,35.12634277,92.52694702,1,0,0,response1disk,,7,-2.507141113,4.183837891,1,0,0,rectangle,-2.507141113,4.183837891,1,0,0,-2.507141113,4.183837891,1,0,0,0,3,3,139,1,,,,,,,,
,,,,,,,,,,,,,FF,,,,,,,,2.816695,,,,,,,,,,,,,,,,,,,,,,60fe141b6ea6b56a60f5064d,61036964bc3d8dca65f5a60f,2021-07-29_22h55.21.656,Simcolourproject_2stim_asymm_v5,2020.2.10,Linux x86_64,60,61025ae37ef11b136ea224fe,,,,,,,,,2094,-35.42858887,-76.16842651,1,0,0,response5disk,,3,0.472167969,1.278961182,1,0,0,rectangle,0.472167969,1.278961182,1,0,0,0.472167969,1.278961182,1,0,0,0,4,4,125,1,,,,,,,,
,,,,,,,,,,,,,FF,,,,,,,,3.0511,,,,,,,,,,,,,,,,,,,,,,60fe141b6ea6b56a60f5064d,61036964bc3d8dca65f5a60f,2021-07-29_22h55.21.656,Simcolourproject_2stim_asymm_v5,2020.2.10,Linux x86_64,60,61025ae37ef11b136ea224fe,,,,,,,,,3611,81.18188477,58.73779297,1,0,0,response1disk,,6,7.772155762,1.236358643,1,0,0,rectangle,7.772155762,1.236358643,1,0,0,7.772155762,1.236358643,1,0,0,0,5,5,99,1,,,,,,,,
,,,,,,,,,,,,,FF,,,,,,,,1.36705,,,,,,,,,,,,,,,,,,,,,,60fe141b6ea6b56a60f5064d,61036964bc3d8dca65f5a60f,2021-07-29_22h55.21.656,Simcolourproject_2stim_asymm_v5,2020.2.10,Linux x86_64,60,61025ae37ef11b136ea224fe,,,,,,,,,3346,32.2598877,78.52545166,1,0,0,response1disk,,7,3.090148926,1.984924316,1,0,0,rectangle,3.090148926,1.984924316,1,0,0,3.090148926,1.984924316,1,0,0,0,6,6,15,1,,,,,,,,
,,,,,,,,,,,,,FF,,,,,,,,4.66679,,,,,,,,,,,,,,,,,,,,,,60fe141b6ea6b56a60f5064d,61036964bc3d8dca65f5a60f,2021-07-29_22h55.21.656,Simcolourproject_2stim_asymm_v5,2020.2.10,Linux x86_64,60,61025ae37ef11b136ea224fe,,,,,,,,,2423,-35.02722168,-90.52264404,1,0,0,response5disk,,3,3.157714844,2.059692383,1,0,0,rectangle,3.157714844,2.059692383,1,0,0,3.157714844,2.059692383,1,0,0,0,7,7,9,1,,,,,,,,
,,,,,,,,,,,,,FF,,,,,,,,1.6667,,,,,,,,,,,,,,,,,,,,,,60fe141b6ea6b56a60f5064d,61036964bc3d8dca65f5a60f,2021-07-29_22h55.21.656,Simcolourproject_2stim_asymm_v5,2020.2.10,Linux x86_64,60,61025ae37ef11b136ea224fe,,,,,,,,,2374,52.90930176,90.40634155,1,0,0,response1disk,,7,-2.883605957,11.73062134,1,0,0,rectangle,-42.09082031,87.65176392,1,0,0,-4.32244873,1.059265137,1,0,0,0,8,8,155,1,,response7disk_3,TRUE,0,0,"[9,186,180,17,81,36,295,170,321,298,19,164,118,192,241,171,2,36,271,42]",2.449625,rectangle
,,,,,,,,,,,,,FF,,,,,,,,1.56719,,,,,,,,,,,,,,,,,,,,,,60fe141b6ea6b56a60f5064d,61036964bc3d8dca65f5a60f,2021-07-29_22h55.21.656,Simcolourproject_2stim_asymm_v5,2020.2.10,Linux x86_64,60,61025ae37ef11b136ea224fe,,,,,,,,,3414,36.24926758,94.00515747,1,0,0,response1disk,,7,-2.422241211,2.26852417,1,0,0,rectangle,-2.422241211,2.26852417,1,0,0,-2.422241211,2.26852417,1,0,0,0,9,9,115,1,,,,,,,,
,,,,,,,,,,,,,FF,,,,,,,,0.95089,,,,,,,,,,,,,,,,,,,,,,60fe141b6ea6b56a60f5064d,61036964bc3d8dca65f5a60f,2021-07-29_22h55.21.656,Simcolourproject_2stim_asymm_v5,2020.2.10,Linux x86_64,60,61025ae37ef11b136ea224fe,,,,,,,,,363,49.60083008,93.74890137,1,0,0,response1disk,,7,0.031677246,10.52896118,1,0,0,rectangle,0.031677246,10.52896118,1,0,0,0.031677246,10.52896118,1,0,0,0,10,10,0,1,,,,,,,,
,,,,,,,,,,,,,FF,,,,,,,,2.162945,,,,,,,,,,,,,,,,,,,,,,60fe141b6ea6b56a60f5064d,61036964bc3d8dca65f5a60f,2021-07-29_22h55.21.656,Simcolourproject_2stim_asymm_v5,2020.2.10,Linux x86_64,60,61025ae37ef11b136ea224fe,,,,,,,,,2767,43.52697754,83.75219727,1,0,0,response1disk,,7,3.430419922,-1.983703613,1,0,0,rectangle,3.430419922,-1.983703613,1,0,0,3.430419922,-1.983703613,1,0,0,0,11,11,88,1,,,,,,,,
,,,,,,,,,,,,,FF,,,,,,,,1.116685,,,,,,,,,,,,,,,,,,,,,,60fe141b6ea6b56a60f5064d,61036964bc3d8dca65f5a60f,2021-07-29_22h55.21.656,Simcolourproject_2stim_asymm_v5,2020.2.10,Linux x86_64,60,61025ae37ef11b136ea224fe,,,,,,,,,4365,-39.12554932,87.59039307,1,0,0,response7disk,,0,4.328491211,5.577392578,1,0,0,rectangle,4.328491211,5.577392578,1,0,0,4.328491211,5.577392578,1,0,0,0,12,12,71,1,,,,,,,,
,,,,,,,,,,,,,FF,,,,,,,,0.916865,,,,,,,,,,,,,,,,,,,,,,60fe141b6ea6b56a60f5064d,61036964bc3d8dca65f5a60f,2021-07-29_22h55.21.656,Simcolourproject_2stim_asymm_v5,2020.2.10,Linux x86_64,60,61025ae37ef11b136ea224fe,,,,,,,,,2372,54.76300049,106.1874695,1,0,0,response1disk,,7,8.204589844,-1.337493896,1,0,0,rectangle,8.204589844,-1.337493896,1,0,0,8.204589844,-1.337493896,1,0,0,0,13,13,58,1,,,,,,,,
,,,,,,,,,,,,,FF,,,,,,,,3.049965,,,,,,,,,,,,,,,,,,,,,,60fe141b6ea6b56a60f5064d,61036964bc3d8dca65f5a60f,2021-07-29_22h55.21.656,Simcolourproject_2stim_asymm_v5,2020.2.10,Linux x86_64,60,61025ae37ef11b136ea224fe,,,,,,,,,3273,28.68475342,78.18951416,1,0,0,response1disk,,7,-4.211120605,8.295257568,1,0,0,rectangle,-4.211120605,8.295257568,1,0,0,-4.211120605,8.295257568,1,0,0,0,14,14,116,1,,,,,,,,
,,,,,,,,,,,,,FF,,,,,,,,19.01605,,,,,,,,,,,,,,,,,,,,,,60fe141b6ea6b56a60f5064d,61036964bc3d8dca65f5a60f,2021-07-29_22h55.21.656,Simcolourproject_2stim_asymm_v5,2020.2.10,Linux x86_64,60,61025ae37ef11b136ea224fe,,,,,,,,,3088,36.34893799,72.33068848,1,0,0,response1disk,,7,-3.717224121,2.466369629,1,0,0,rectangle,-3.717224121,2.466369629,1,0,0,-3.717224121,2.466369629,1,0,0,0,15,15,100,1,,,,,,,,
,,,,,,,,,,,,,FF,,,,,,,,2.233415,,,,,,,,,,,,,,,,,,,,,,60fe141b6ea6b56a60f5064d,61036964bc3d8dca65f5a60f,2021-07-29_22h55.21.656,Simcolourproject_2stim_asymm_v5,2020.2.10,Linux x86_64,60,61025ae37ef11b136ea224fe,,,,,,,,,820,102.6216431,40.52862549,1,0,0,response1disk,,6,-12.90966797,-5.610839844,1,0,0,rectangle,73.26104736,44.08694458,1,0,0,-7.514892578,-4.719482422,1,0,0,0,16,16,121,1,,response1disk_3,TRUE,6,6,"[9,186,180,17,81,36,295,170,321,298,19,164,118,192,241,171,2,36,271,42]",4.23266,rectangle
,,,,,,,,,,,,,FF,,,,,,,,2.85001,,,,,,,,,,,,,,,,,,,,,,60fe141b6ea6b56a60f5064d,61036964bc3d8dca65f5a60f,2021-07-29_22h55.21.656,Simcolourproject_2stim_asymm_v5,2020.2.10,Linux x86_64,60,61025ae37ef11b136ea224fe,,,,,,,,,171,-27.40545654,-86.74493408,1,0,0,response5disk,,3,0.584289551,-3.104705811,1,0,0,rectangle,0.584289551,-3.104705811,1,0,0,0.584289551,-3.104705811,1,0,0,0,17,17,60,1,,,,,,,,
,,,,,,,,,,,,,FF,,,,,,,,1.500225,,,,,,,,,,,,,,,,,,,,,,60fe141b6ea6b56a60f5064d,61036964bc3d8dca65f5a60f,2021-07-29_22h55.21.656,Simcolourproject_2stim_asymm_v5,2020.2.10,Linux x86_64,60,61025ae37ef11b136ea224fe,,,,,,,,,4093,44.42871094,90.21261597,1,0,0,response1disk,,7,-0.097351074,-4.25479126,1,0,0,rectangle,68.15588379,-38.89541626,1,0,0,1.220092773,-1.33291626,1,0,0,0,18,18,147,1,,response3disk_3,TRUE,5,5,"[9,186,180,17,81,36,295,170,321,298,19,164,118,192,241,171,2,36,271,42]",2.28572,rectangle
,,,,,,,,,,,,,FF,,,,,,,,9.066255,,,,,,,,,,,,,,,,,,,,,,60fe141b6ea6b56a60f5064d,61036964bc3d8dca65f5a60f,2021-07-29_22h55.21.656,Simcolourproject_2stim_asymm_v5,2020.2.10,Linux x86_64,60,61025ae37ef11b136ea224fe,,,,,,,,,4333,27.54315186,-84.38287354,1,0,0,response3disk,,4,7.236328125,-2.785003662,1,0,0,rectangle,7.236328125,-2.785003662,1,0,0,7.236328125,-2.785003662,1,0,0,0,19,19,75,1,,,,,,,,
,,,,,,,,,,,,,FF,,,,,,,,1.36735,,,,,,,,,,,,,,,,,,,,,,60fe141b6ea6b56a60f5064d,61036964bc3d8dca65f5a60f,2021-07-29_22h55.21.656,Simcolourproject_2stim_asymm_v5,2020.2.10,Linux x86_64,60,61025ae37ef11b136ea224fe,,,,,,,,,939,56.37255859,92.65911865,1,0,0,response1disk,,7,-2.020019531,0.922851563,1,0,0,rectangle,-2.020019531,0.922851563,1,0,0,-2.020019531,0.922851563,1,0,0,0,20,20,136,1,,,,,,,,
,,,,,,,,,,,,,FF,,,,,,,,1.050205,,,,,,,,,,,,,,,,,,,,,,60fe141b6ea6b56a60f5064d,61036964bc3d8dca65f5a60f,2021-07-29_22h55.21.656,Simcolourproject_2stim_asymm_v5,2020.2.10,Linux x86_64,60,61025ae37ef11b136ea224fe,,,,,,,,,2461,47.84893799,97.89907837,1,0,0,response1disk,,7,-0.676635742,2.702697754,1,0,0,rectangle,-0.676635742,2.702697754,1,0,0,-0.676635742,2.702697754,1,0,0,0,21,21,134,1,,,,,,,,
,,,,,,,,,,,,,FF,,,,,,,,2.932975,,,,,,,,,,,,,,,,,,,,,,60fe141b6ea6b56a60f5064d,61036964bc3d8dca65f5a60f,2021-07-29_22h55.21.656,Simcolourproject_2stim_asymm_v5,2020.2.10,Linux x86_64,60,61025ae37ef11b136ea224fe,,,,,,,,,549,45.08843994,62.39245605,1,0,0,response1disk,,7,8.504760742,-4.616607666,1,0,0,rectangle,8.504760742,-4.616607666,1,0,0,8.504760742,-4.616607666,1,0,0,0,22,22,106,1,,,,,,,,
,,,,,,,,,,,,,FF,,,,,,,,1.01794,,,,,,,,,,,,,,,,,,,,,,60fe141b6ea6b56a60f5064d,61036964bc3d8dca65f5a60f,2021-07-29_22h55.21.656,Simcolourproject_2stim_asymm_v5,2020.2.10,Linux x86_64,60,61025ae37ef11b136ea224fe,,,,,,,,,3702,36.99890137,58.99630737,1,0,0,response1disk,,7,17.44781494,-1.361663818,1,0,0,rectangle,17.44781494,-1.361663818,1,0,0,17.44781494,-1.361663818,1,0,0,0,23,23,36,1,,,,,,,,
,,,,,,,,,,,,,FF,,,,,,,,2.450815,,,,,,,,,,,,,,,,,,,,,,60fe141b6ea6b56a60f5064d,61036964bc3d8dca65f5a60f,2021-07-29_22h55.21.656,Simcolourproject_2stim_asymm_v5,2020.2.10,Linux x86_64,60,61025ae37ef11b136ea224fe,,,,,,,,,1619,98.16253662,-39.81079102,1,0,0,response3disk,,5,11.72137451,-4.683929443,1,0,0,rectangle,11.72137451,-4.683929443,1,0,0,11.72137451,-4.683929443,1,0,0,0,24,24,70,1,,,,,,,,
,,,,,,,,,,,,,FF,,,,,,,,1.885075,,,,,,,,,,,,,,,,,,,,,,60fe141b6ea6b56a60f5064d,61036964bc3d8dca65f5a60f,2021-07-29_22h55.21.656,Simcolourproject_2stim_asymm_v5,2020.2.10,Linux x86_64,60,61025ae37ef11b136ea224fe,,,,,,,,,612,39.35778809,54.92346191,1,0,0,response1disk,,7,11.19750977,-12.06289673,1,0,0,rectangle,11.19750977,-12.06289673,1,0,0,11.19750977,-12.06289673,1,0,0,0,25,25,43,1,,,,,,,,
,,,,,,,,,,,,,FF,,,,,,,,1.26817,,,,,,,,,,,,,,,,,,,,,,60fe141b6ea6b56a60f5064d,61036964bc3d8dca65f5a60f,2021-07-29_22h55.21.656,Simcolourproject_2stim_asymm_v5,2020.2.10,Linux x86_64,60,61025ae37ef11b136ea224fe,,,,,,,,,1404,31.55316162,63.66140747,1,0,0,response1disk,,7,-2.623718262,0.993377686,1,0,0,rectangle,-2.623718262,0.993377686,1,0,0,-2.623718262,0.993377686,1,0,0,0,26,26,64,1,,,,,,,,
,,,,,,,,,,,,,FF,,,,,,,,4.700105,,,,,,,,,,,,,,,,,,,,,,60fe141b6ea6b56a60f5064d,61036964bc3d8dca65f5a60f,2021-07-29_22h55.21.656,Simcolourproject_2stim_asymm_v5,2020.2.10,Linux x86_64,60,61025ae37ef11b136ea224fe,,,,,,,,,3124,48.06213379,80.10076904,1,0,0,response1disk,,7,3.480529785,-8.427429199,1,0,0,rectangle,3.480529785,-8.427429199,1,0,0,3.480529785,-8.427429199,1,0,0,0,27,27,38,1,,,,,,,,
,,,,,,,,,,,,,FF,,,,,,,,2.53486,,,,,,,,,,,,,,,,,,,,,,60fe141b6ea6b56a60f5064d,61036964bc3d8dca65f5a60f,2021-07-29_22h55.21.656,Simcolourproject_2stim_asymm_v5,2020.2.10,Linux x86_64,60,61025ae37ef11b136ea224fe,,,,,,,,,1043,28.71832275,69.91564941,1,0,0,response1disk,,7,-4.501098633,-0.44909668,1,0,0,rectangle,-4.501098633,-0.44909668,1,0,0,-4.501098633,-0.44909668,1,0,0,0,28,28,133,1,,,,,,,,
,,,,,,,,,,,,,FF,,,,,,,,3.78367,,,,,,,,,,,,,,,,,,,,,,60fe141b6ea6b56a60f5064d,61036964bc3d8dca65f5a60f,2021-07-29_22h55.21.656,Simcolourproject_2stim_asymm_v5,2020.2.10,Linux x86_64,60,61025ae37ef11b136ea224fe,,,,,,,,,2621,36.55218506,67.10925293,1,0,0,response1disk,,7,1.138793945,4.257659912,1,0,0,rectangle,1.138793945,4.257659912,1,0,0,1.138793945,4.257659912,1,0,0,0,29,29,142,1,,,,,,,,
,,,,,,,,,,,,,FF,,,,,,,,2.30027,,,,,,,,,,,,,,,,,,,,,,60fe141b6ea6b56a60f5064d,61036964bc3d8dca65f5a60f,2021-07-29_22h55.21.656,Simcolourproject_2stim_asymm_v5,2020.2.10,Linux x86_64,60,61025ae37ef11b136ea224fe,,,,,,,,,1686,63.31274414,-37.57977295,1,0,0,response3disk,,5,1.868652344,7.064147949,1,0,0,rectangle,1.868652344,7.064147949,1,0,0,1.868652344,7.064147949,1,0,0,0,30,30,78,1,,,,,,,,
,,,,,,,,,,,,,FF,,,,,,,,1.766575,,,,,,,,,,,,,,,,,,,,,,60fe141b6ea6b56a60f5064d,61036964bc3d8dca65f5a60f,2021-07-29_22h55.21.656,Simcolourproject_2stim_asymm_v5,2020.2.10,Linux x86_64,60,61025ae37ef11b136ea224fe,,,,,,,,,3142,32.14715576,71.11749268,1,0,0,response1disk,,7,15.17254639,1.470184326,1,0,0,rectangle,15.17254639,1.470184326,1,0,0,15.17254639,1.470184326,1,0,0,0,31,31,138,1,,,,,,,,
,,,,,,,,,,,,,FF,,,,,,,,2.083495,,,,,,,,,,,,,,,,,,,,,,60fe141b6ea6b56a60f5064d,61036964bc3d8dca65f5a60f,2021-07-29_22h55.21.656,Simcolourproject_2stim_asymm_v5,2020.2.10,Linux x86_64,60,61025ae37ef11b136ea224fe,,,,,,,,,2070,49.16864014,79.76025391,1,0,0,response1disk,,7,-1.623657227,-9.817749023,1,0,0,rectangle,-1.623657227,-9.817749023,1,0,0,-1.623657227,-9.817749023,1,0,0,0,32,32,61,1,,,,,,,,
,,,,,,,,,,,,,FF,,,,,,,,3.133895,,,,,,,,,,,,,,,,,,,,,,60fe141b6ea6b56a60f5064d,61036964bc3d8dca65f5a60f,2021-07-29_22h55.21.656,Simcolourproject_2stim_asymm_v5,2020.2.10,Linux x86_64,60,61025ae37ef11b136ea224fe,,,,,,,,,1824,40.1362915,71.73873901,1,0,0,response1disk,,7,-0.307006836,-7.273773193,1,0,0,rectangle,-0.307006836,-7.273773193,1,0,0,-0.307006836,-7.273773193,1,0,0,0,33,33,89,1,,,,,,,,
,,,,,,,,,,,,,FF,,,,,,,,1.0839,,,,,,,,,,,,,,,,,,,,,,60fe141b6ea6b56a60f5064d,61036964bc3d8dca65f5a60f,2021-07-29_22h55.21.656,Simcolourproject_2stim_asymm_v5,2020.2.10,Linux x86_64,60,61025ae37ef11b136ea224fe,,,,,,,,,1623,47.74835205,85.57739258,1,0,0,response1disk,,7,7.247253418,7.872711182,1,0,0,rectangle,7.247253418,7.872711182,1,0,0,7.247253418,7.872711182,1,0,0,0,34,34,33,1,,,,,,,,
,,,,,,,,,,,,,FF,,,,,,,,1.83398,,,,,,,,,,,,,,,,,,,,,,60fe141b6ea6b56a60f5064d,61036964bc3d8dca65f5a60f,2021-07-29_22h55.21.656,Simcolourproject_2stim_asymm_v5,2020.2.10,Linux x86_64,60,61025ae37ef11b136ea224fe,,,,,,,,,4058,46.62017822,95.91275024,1,0,0,response1disk,,7,-2.630371094,0.546722412,1,0,0,rectangle,-69.13116455,33.07345581,1,0,0,-4.766052246,1.59942627,1,0,0,0,35,35,149,1,,response7disk_3,TRUE,1,1,"[9,186,180,17,81,36,295,170,321,298,19,164,118,192,241,171,2,36,271,42]",1.88479,rectangle
,,,,,,,,,,,,,FF,,,,,,,,3.20219,,,,,,,,,,,,,,,,,,,,,,60fe141b6ea6b56a60f5064d,61036964bc3d8dca65f5a60f,2021-07-29_22h55.21.656,Simcolourproject_2stim_asymm_v5,2020.2.10,Linux x86_64,60,61025ae37ef11b136ea224fe,,,,,,,,,3001,29.88964844,70.36935425,1,0,0,response1disk,,7,4.038330078,1.614227295,1,0,0,rectangle,4.038330078,1.614227295,1,0,0,4.038330078,1.614227295,1,0,0,0,36,36,110,1,,,,,,,,
,,,,,,,,,,,,,FF,,,,,,,,1.00048,,,,,,,,,,,,,,,,,,,,,,60fe141b6ea6b56a60f5064d,61036964bc3d8dca65f5a60f,2021-07-29_22h55.21.656,Simcolourproject_2stim_asymm_v5,2020.2.10,Linux x86_64,60,61025ae37ef11b136ea224fe,,,,,,,,,925,47.49023438,94.49926758,1,0,0,response1disk,,7,-0.059753418,3.654663086,1,0,0,rectangle,-0.059753418,3.654663086,1,0,0,-0.059753418,3.654663086,1,0,0,0,37,37,20,1,,,,,,,,
,,,,,,,,,,,,,FF,,,,,,,,6.799815,,,,,,,,,,,,,,,,,,,,,,60fe141b6ea6b56a60f5064d,61036964bc3d8dca65f5a60f,2021-07-29_22h55.21.656,Simcolourproject_2stim_asymm_v5,2020.2.10,Linux x86_64,60,61025ae37ef11b136ea224fe,,,,,,,,,1434,42.53271484,78.22827148,1,0,0,response1disk,,7,4.443786621,1.646392822,1,0,0,rectangle,4.443786621,1.646392822,1,0,0,4.443786621,1.646392822,1,0,0,0,38,38,141,1,,,,,,,,
,,,,,,,,,,,,,FF,,,,,,,,1.433485,,,,,,,,,,,,,,,,,,,,,,60fe141b6ea6b56a60f5064d,61036964bc3d8dca65f5a60f,2021-07-29_22h55.21.656,Simcolourproject_2stim_asymm_v5,2020.2.10,Linux x86_64,60,61025ae37ef11b136ea224fe,,,,,,,,,2176,75.65240479,32.10586548,1,0,0,response1disk,,6,15.98419189,-2.2605896,1,0,0,rectangle,15.98419189,-2.2605896,1,0,0,15.98419189,-2.2605896,1,0,0,0,39,39,122,1,,,,,,,,
,,,,,,,,,,,,,FF,,,,,,,,2.816715,,,,,,,,,,,,,,,,,,,,,,60fe141b6ea6b56a60f5064d,61036964bc3d8dca65f5a60f,2021-07-29_22h55.21.656,Simcolourproject_2stim_asymm_v5,2020.2.10,Linux x86_64,60,61025ae37ef11b136ea224fe,,,,,,,,,955,93.06719971,-48.21697998,1,0,0,response3disk,,5,1.097412109,4.544647217,1,0,0,rectangle,1.097412109,4.544647217,1,0,0,1.097412109,4.544647217,1,0,0,0,40,40,32,1,,,,,,,,
,,,,,,,,,,,,,FF,,,,,,,,0.966725,,,,,,,,,,,,,,,,,,,,,,60fe141b6ea6b56a60f5064d,61036964bc3d8dca65f5a60f,2021-07-29_22h55.21.656,Simcolourproject_2stim_asymm_v5,2020.2.10,Linux x86_64,60,61025ae37ef11b136ea224fe,,,,,,,,,848,50.8762207,85.16220093,1,0,0,response1disk,,7,-9.260864258,-7.110229492,1,0,0,rectangle,-38.97174072,84.34463501,1,0,0,11.24194336,-10.31115723,1,0,0,0,41,41,34,1,,response7disk_3,TRUE,0,0,"[9,186,180,17,81,36,295,170,321,298,19,164,118,192,241,171,2,36,271,42]",2.01668,rectangle
,,,,,,,,,,,,,FF,,,,,,,,3.14992,,,,,,,,,,,,,,,,,,,,,,60fe141b6ea6b56a60f5064d,61036964bc3d8dca65f5a60f,2021-07-29_22h55.21.656,Simcolourproject_2stim_asymm_v5,2020.2.10,Linux x86_64,60,61025ae37ef11b136ea224fe,,,,,,,,,1769,66.53985596,96.48931885,1,0,0,response1disk,,7,9.034790039,0.375335693,1,0,0,rectangle,9.034790039,0.375335693,1,0,0,9.034790039,0.375335693,1,0,0,0,42,42,123,1,,,,,,,,
,,,,,,,,,,,,,FF,,,,,,,,4.00192,,,,,,,,,,,,,,,,,,,,,,60fe141b6ea6b56a60f5064d,61036964bc3d8dca65f5a60f,2021-07-29_22h55.21.656,Simcolourproject_2stim_asymm_v5,2020.2.10,Linux x86_64,60,61025ae37ef11b136ea224fe,,,,,,,,,1647,47.88885498,98.91720581,1,0,0,response1disk,,7,9.749145508,2.112091064,1,0,0,rectangle,9.749145508,2.112091064,1,0,0,9.749145508,2.112091064,1,0,0,0,43,43,113,1,,,,,,,,
,,,,,,,,,,,,,FF,,,,,,,,2.90065,,,,,,,,,,,,,,,,,,,,,,60fe141b6ea6b56a60f5064d,61036964bc3d8dca65f5a60f,2021-07-29_22h55.21.656,Simcolourproject_2stim_asymm_v5,2020.2.10,Linux x86_64,60,61025ae37ef11b136ea224fe,,,,,,,,,742,58.31286621,84.77825928,1,0,0,response1disk,,7,0.551940918,-9.613677979,1,0,0,rectangle,0.551940918,-9.613677979,1,0,0,0.551940918,-9.613677979,1,0,0,0,44,44,146,1,,,,,,,,
,,,,,,,,,,,,,FF,,,,,,,,1.283465,,,,,,,,,,,,,,,,,,,,,,60fe141b6ea6b56a60f5064d,61036964bc3d8dca65f5a60f,2021-07-29_22h55.21.656,Simcolourproject_2stim_asymm_v5,2020.2.10,Linux x86_64,60,61025ae37ef11b136ea224fe,,,,,,,,,1368,-39.60229492,73.67019653,1,0,0,response7disk,,0,0.463806152,0.405944824,1,0,0,rectangle,0.463806152,0.405944824,1,0,0,0.463806152,0.405944824,1,0,0,0,45,45,91,1,,,,,,,,
,,,,,,,,,,,,,FF,,,,,,,,0.93358,,,,,,,,,,,,,,,,,,,,,,60fe141b6ea6b56a60f5064d,61036964bc3d8dca65f5a60f,2021-07-29_22h55.21.656,Simcolourproject_2stim_asymm_v5,2020.2.10,Linux x86_64,60,61025ae37ef11b136ea224fe,,,,,,,,,3268,31.30963135,88.26635742,1,0,0,response1disk,,7,3.645812988,-6.906799316,1,0,0,rectangle,3.645812988,-6.906799316,1,0,0,3.645812988,-6.906799316,1,0,0,0,46,46,42,1,,,,,,,,
,,,,,,,,,,,,,FF,,,,,,,,2.999955,,,,,,,,,,,,,,,,,,,,,,60fe141b6ea6b56a60f5064d,61036964bc3d8dca65f5a60f,2021-07-29_22h55.21.656,Simcolourproject_2stim_asymm_v5,2020.2.10,Linux x86_64,60,61025ae37ef11b136ea224fe,,,,,,,,,1147,56.1484375,69.33148193,1,0,0,response1disk,,7,6.051025391,-1.655090332,1,0,0,rectangle,6.051025391,-1.655090332,1,0,0,6.051025391,-1.655090332,1,0,0,0,47,47,48,1,,,,,,,,
,,,,,,,,,,,,,FF,,,,,,,,1.45013,,,,,,,,,,,,,,,,,,,,,,60fe141b6ea6b56a60f5064d,61036964bc3d8dca65f5a60f,2021-07-29_22h55.21.656,Simcolourproject_2stim_asymm_v5,2020.2.10,Linux x86_64,60,61025ae37ef11b136ea224fe,,,,,,,,,1163,55.30432129,96.64279175,1,0,0,response1disk,,7,8.514526367,-2.09463501,1,0,0,rectangle,8.514526367,-2.09463501,1,0,0,8.514526367,-2.09463501,1,0,0,0,48,48,96,1,,,,,,,,
,,,,,,,,,,,,,FF,,,,,,,,1.001455,,,,,,,,,,,,,,,,,,,,,,60fe141b6ea6b56a60f5064d,61036964bc3d8dca65f5a60f,2021-07-29_22h55.21.656,Simcolourproject_2stim_asymm_v5,2020.2.10,Linux x86_64,60,61025ae37ef11b136ea224fe,,,,,,,,,3388,-34.69445801,79.99279785,1,0,0,response7disk,,0,-0.148254395,-1.422088623,1,0,0,rectangle,-0.148254395,-1.422088623,1,0,0,-0.148254395,-1.422088623,1,0,0,0,49,49,87,1,,,,,,,,
,,,,,,,,,,,,,FF,,,,,,,,3.300375,,,,,,,,,,,,,,,,,,,,,,60fe141b6ea6b56a60f5064d,61036964bc3d8dca65f5a60f,2021-07-29_22h55.21.656,Simcolourproject_2stim_asymm_v5,2020.2.10,Linux x86_64,60,61025ae37ef11b136ea224fe,,,,,,,,,8,38.9274292,72.54568481,1,0,0,response1disk,,7,-3.395874023,-4.506835938,1,0,0,rectangle,-3.395874023,-4.506835938,1,0,0,-3.395874023,-4.506835938,1,0,0,0,50,50,31,1,,,,,,,,
,,,,,,,,,,,,,FF,,,,,,,,2.884345,,,,,,,,,,,,,,,,,,,,,,60fe141b6ea6b56a60f5064d,61036964bc3d8dca65f5a60f,2021-07-29_22h55.21.656,Simcolourproject_2stim_asymm_v5,2020.2.10,Linux x86_64,60,61025ae37ef11b136ea224fe,,,,,,,,,4101,84.79449463,-38.65264893,1,0,0,response3disk,,5,-4.103881836,5.464660645,1,0,0,rectangle,-4.103881836,5.464660645,1,0,0,-4.103881836,5.464660645,1,0,0,0,51,51,153,1,,,,,,,,
,,,,,,,,,,,,,FF,,,,,,,,2.500185,,,,,,,,,,,,,,,,,,,,,,60fe141b6ea6b56a60f5064d,61036964bc3d8dca65f5a60f,2021-07-29_22h55.21.656,Simcolourproject_2stim_asymm_v5,2020.2.10,Linux x86_64,60,61025ae37ef11b136ea224fe,,,,,,,,,1732,50.54382324,95.79528809,1,0,0,response1disk,,7,6.097717285,-1.472686768,1,0,0,rectangle,6.097717285,-1.472686768,1,0,0,6.097717285,-1.472686768,1,0,0,0,52,52,154,1,,,,,,,,
,,,,,,,,,,,,,FF,,,,,,,,1.13351,,,,,,,,,,,,,,,,,,,,,,60fe141b6ea6b56a60f5064d,61036964bc3d8dca65f5a60f,2021-07-29_22h55.21.656,Simcolourproject_2stim_asymm_v5,2020.2.10,Linux x86_64,60,61025ae37ef11b136ea224fe,,,,,,,,,2432,53.08605957,84.09347534,1,0,0,response1disk,,7,1.119873047,-4.932434082,1,0,0,rectangle,1.119873047,-4.932434082,1,0,0,1.119873047,-4.932434082,1,0,0,0,53,53,21,1,,,,,,,,
,,,,,,,,,,,,,FF,,,,,,,,1.450175,,,,,,,,,,,,,,,,,,,,,,60fe141b6ea6b56a60f5064d,61036964bc3d8dca65f5a60f,2021-07-29_22h55.21.656,Simcolourproject_2stim_asymm_v5,2020.2.10,Linux x86_64,60,61025ae37ef11b136ea224fe,,,,,,,,,198,63.94470215,80.78582764,1,0,0,response1disk,,7,1.86706543,3.86907959,1,0,0,rectangle,1.86706543,3.86907959,1,0,0,1.86706543,3.86907959,1,0,0,0,54,54,72,1,,,,,,,,
,,,,,,,,,,,,,FF,,,,,,,,0.80056,,,,,,,,,,,,,,,,,,,,,,60fe141b6ea6b56a60f5064d,61036964bc3d8dca65f5a60f,2021-07-29_22h55.21.656,Simcolourproject_2stim_asymm_v5,2020.2.10,Linux x86_64,60,61025ae37ef11b136ea224fe,,,,,,,,,125,45.92486572,80.95941162,1,0,0,response1disk,,7,6.426330566,3.749603271,1,0,0,rectangle,6.426330566,3.749603271,1,0,0,6.426330566,3.749603271,1,0,0,0,55,55,18,1,,,,,,,,
,,,,,,,,,,,,,FF,,,,,,,,0.783535,,,,,,,,,,,,,,,,,,,,,,60fe141b6ea6b56a60f5064d,61036964bc3d8dca65f5a60f,2021-07-29_22h55.21.656,Simcolourproject_2stim_asymm_v5,2020.2.10,Linux x86_64,60,61025ae37ef11b136ea224fe,,,,,,,,,2918,42.93310547,81.04650879,1,0,0,response1disk,,7,-2.026794434,5.41519165,1,0,0,rectangle,-2.026794434,5.41519165,1,0,0,-2.026794434,5.41519165,1,0,0,0,56,56,47,1,,,,,,,,
,,,,,,,,,,,,,FF,,,,,,,,0.833555,,,,,,,,,,,,,,,,,,,,,,60fe141b6ea6b56a60f5064d,61036964bc3d8dca65f5a60f,2021-07-29_22h55.21.656,Simcolourproject_2stim_asymm_v5,2020.2.10,Linux x86_64,60,61025ae37ef11b136ea224fe,,,,,,,,,2194,52.38317871,89.83587646,1,0,0,response1disk,,7,13.27166748,7.90713501,1,0,0,rectangle,13.27166748,7.90713501,1,0,0,13.27166748,7.90713501,1,0,0,0,57,57,10,1,,,,,,,,
,,,,,,,,,,,,,FF,,,,,,,,0.816675,,,,,,,,,,,,,,,,,,,,,,60fe141b6ea6b56a60f5064d,61036964bc3d8dca65f5a60f,2021-07-29_22h55.21.656,Simcolourproject_2stim_asymm_v5,2020.2.10,Linux x86_64,60,61025ae37ef11b136ea224fe,,,,,,,,,2215,43.50488281,88.8611145,1,0,0,response1disk,,7,8.846679688,-2.786346436,1,0,0,rectangle,8.846679688,-2.786346436,1,0,0,8.846679688,-2.786346436,1,0,0,0,58,58,12,1,,,,,,,,
,,,,,,,,,,,,,FF,,,,,,,,0.650365,,,,,,,,,,,,,,,,,,,,,,60fe141b6ea6b56a60f5064d,61036964bc3d8dca65f5a60f,2021-07-29_22h55.21.656,Simcolourproject_2stim_asymm_v5,2020.2.10,Linux x86_64,60,61025ae37ef11b136ea224fe,,,,,,,,,1932,41.59765625,68.95513916,1,0,0,response1disk,,7,15.94573975,-0.029266357,1,0,0,rectangle,15.94573975,-0.029266357,1,0,0,15.94573975,-0.029266357,1,0,0,0,59,59,157,1,,,,,,,,
,,,,,,,,,,,,,FF,,,,,,,,0.91706,,,,,,,,,,,,,,,,,,,,,,60fe141b6ea6b56a60f5064d,61036964bc3d8dca65f5a60f,2021-07-29_22h55.21.656,Simcolourproject_2stim_asymm_v5,2020.2.10,Linux x86_64,60,61025ae37ef11b136ea224fe,,,,,,,,,2778,43.4576416,81.41259766,1,0,0,response1disk,,7,10.82647705,1.341217041,1,0,0,rectangle,10.82647705,1.341217041,1,0,0,10.82647705,1.341217041,1,0,0,0,60,60,44,1,,,,,,,,
,,,,,,,,,,,,,FF,,,,,,,,3.98337,,,,,,,,,,,,,,,,,,,,,,60fe141b6ea6b56a60f5064d,61036964bc3d8dca65f5a60f,2021-07-29_22h55.21.656,Simcolourproject_2stim_asymm_v5,2020.2.10,Linux x86_64,60,61025ae37ef11b136ea224fe,,,,,,,,,2239,43.45697021,-97.90518188,1,0,0,response3disk,,4,10.08514404,8.552886963,1,0,0,rectangle,10.08514404,8.552886963,1,0,0,10.08514404,8.552886963,1,0,0,0,61,61,16,1,,,,,,,,
,,,,,,,,,,,,,FF,,,,,,,,1.649955,,,,,,,,,,,,,,,,,,,,,,60fe141b6ea6b56a60f5064d,61036964bc3d8dca65f5a60f,2021-07-29_22h55.21.656,Simcolourproject_2stim_asymm_v5,2020.2.10,Linux x86_64,60,61025ae37ef11b136ea224fe,,,,,,,,,830,42.72039795,64.33190918,1,0,0,response1disk,,7,10.38818359,5.080291748,1,0,0,rectangle,10.38818359,5.080291748,1,0,0,10.38818359,5.080291748,1,0,0,0,62,62,108,1,,,,,,,,
,,,,,,,,,,,,,FF,,,,,,,,1.7838,,,,,,,,,,,,,,,,,,,,,,60fe141b6ea6b56a60f5064d,61036964bc3d8dca65f5a60f,2021-07-29_22h55.21.656,Simcolourproject_2stim_asymm_v5,2020.2.10,Linux x86_64,60,61025ae37ef11b136ea224fe,,,,,,,,,3602,54.55981445,85.97775269,1,0,0,response1disk,,7,6.342834473,-5.899902344,1,0,0,rectangle,6.342834473,-5.899902344,1,0,0,6.342834473,-5.899902344,1,0,0,0,63,63,92,1,,,,,,,,
,,,,,,,,,,,,,FF,,,,,,,,2.38392,,,,,,,,,,,,,,,,,,,,,,60fe141b6ea6b56a60f5064d,61036964bc3d8dca65f5a60f,2021-07-29_22h55.21.656,Simcolourproject_2stim_asymm_v5,2020.2.10,Linux x86_64,60,61025ae37ef11b136ea224fe,,,,,,,,,466,52.09503174,-79.26123047,1,0,0,response3disk,,4,1.819152832,1.680603027,1,0,0,rectangle,1.819152832,1.680603027,1,0,0,1.819152832,1.680603027,1,0,0,0,64,64,41,1,,,,,,,,
,,,,,,,,,,,,,FF,,,,,,,,1.43295,,,,,,,,,,,,,,,,,,,,,,60fe141b6ea6b56a60f5064d,61036964bc3d8dca65f5a60f,2021-07-29_22h55.21.656,Simcolourproject_2stim_asymm_v5,2020.2.10,Linux x86_64,60,61025ae37ef11b136ea224fe,,,,,,,,,819,47.3258667,88.18835449,1,0,0,response1disk,,7,8.084411621,3.239868164,1,0,0,rectangle,8.084411621,3.239868164,1,0,0,8.084411621,3.239868164,1,0,0,0,65,65,148,1,,,,,,,,
,,,,,,,,,,,,,FF,,,,,,,,0.983635,,,,,,,,,,,,,,,,,,,,,,60fe141b6ea6b56a60f5064d,61036964bc3d8dca65f5a60f,2021-07-29_22h55.21.656,Simcolourproject_2stim_asymm_v5,2020.2.10,Linux x86_64,60,61025ae37ef11b136ea224fe,,,,,,,,,1406,48.47399902,93.33627319,1,0,0,response1disk,,7,6.000671387,2.294219971,1,0,0,rectangle,6.000671387,2.294219971,1,0,0,6.000671387,2.294219971,1,0,0,0,66,66,29,1,,,,,,,,
,,,,,,,,,,,,,FF,,,,,,,,1.050095,,,,,,,,,,,,,,,,,,,,,,60fe141b6ea6b56a60f5064d,61036964bc3d8dca65f5a60f,2021-07-29_22h55.21.656,Simcolourproject_2stim_asymm_v5,2020.2.10,Linux x86_64,60,61025ae37ef11b136ea224fe,,,,,,,,,420,43.95123291,72.88061523,1,0,0,response1disk,,7,5.181213379,1.849182129,1,0,0,rectangle,5.181213379,1.849182129,1,0,0,5.181213379,1.849182129,1,0,0,0,67,67,22,1,,,,,,,,
,,,,,,,,,,,,,FF,,,,,,,,2.516655,,,,,,,,,,,,,,,,,,,,,,60fe141b6ea6b56a60f5064d,61036964bc3d8dca65f5a60f,2021-07-29_22h55.21.656,Simcolourproject_2stim_asymm_v5,2020.2.10,Linux x86_64,60,61025ae37ef11b136ea224fe,,,,,,,,,4176,51.30224609,92.40060425,1,0,0,response1disk,,7,-1.747131348,6.721954346,1,0,0,rectangle,-1.747131348,6.721954346,1,0,0,-1.747131348,6.721954346,1,0,0,0,68,68,53,1,,,,,,,,
,,,,,,,,,,,,,FF,,,,,,,,2.03358,,,,,,,,,,,,,,,,,,,,,,60fe141b6ea6b56a60f5064d,61036964bc3d8dca65f5a60f,2021-07-29_22h55.21.656,Simcolourproject_2stim_asymm_v5,2020.2.10,Linux x86_64,60,61025ae37ef11b136ea224fe,,,,,,,,,4022,-24.59075928,-100.8059082,1,0,0,response5disk,,3,12.65374756,1.324859619,1,0,0,rectangle,12.65374756,1.324859619,1,0,0,12.65374756,1.324859619,1,0,0,0,69,69,112,1,,,,,,,,
,,,,,,,,,,,,,FF,,,,,,,,1.499505,,,,,,,,,,,,,,,,,,,,,,60fe141b6ea6b56a60f5064d,61036964bc3d8dca65f5a60f,2021-07-29_22h55.21.656,Simcolourproject_2stim_asymm_v5,2020.2.10,Linux x86_64,60,61025ae37ef11b136ea224fe,,,,,,,,,192,-47.07525635,-96.82684326,1,0,0,response5disk,,3,-1.209594727,-6.880462646,1,0,0,rectangle,-1.209594727,-6.880462646,1,0,0,-1.209594727,-6.880462646,1,0,0,0,70,70,68,1,,,,,,,,
,,,,,,,,,,,,,FF,,,,,,,,2.73357,,,,,,,,,,,,,,,,,,,,,,60fe141b6ea6b56a60f5064d,61036964bc3d8dca65f5a60f,2021-07-29_22h55.21.656,Simcolourproject_2stim_asymm_v5,2020.2.10,Linux x86_64,60,61025ae37ef11b136ea224fe,,,,,,,,,888,-35.0078125,-96.83868408,1,0,0,response5disk,,3,-2.149780273,-5.4453125,1,0,0,rectangle,-2.149780273,-5.4453125,1,0,0,-2.149780273,-5.4453125,1,0,0,0,71,71,63,1,,,,,,,,
,,,,,,,,,,,,,FF,,,,,,,,2.217005,,,,,,,,,,,,,,,,,,,,,,60fe141b6ea6b56a60f5064d,61036964bc3d8dca65f5a60f,2021-07-29_22h55.21.656,Simcolourproject_2stim_asymm_v5,2020.2.10,Linux x86_64,60,61025ae37ef11b136ea224fe,,,,,,,,,2217,54.29553223,40.03015137,1,0,0,response1disk,,6,-0.148376465,-5.975616455,1,0,0,rectangle,-0.148376465,-5.975616455,1,0,0,-0.148376465,-5.975616455,1,0,0,0,72,72,107,1,,,,,,,,
,,,,,,,,,,,,,FF,,,,,,,,1.550095,,,,,,,,,,,,,,,,,,,,,,60fe141b6ea6b56a60f5064d,61036964bc3d8dca65f5a60f,2021-07-29_22h55.21.656,Simcolourproject_2stim_asymm_v5,2020.2.10,Linux x86_64,60,61025ae37ef11b136ea224fe,,,,,,,,,1890,-40.96014404,-82.14660645,1,0,0,response5disk,,3,2.518554688,-7.309448242,1,0,0,rectangle,2.518554688,-7.309448242,1,0,0,2.518554688,-7.309448242,1,0,0,0,73,73,45,1,,,,,,,,
,,,,,,,,,,,,,FF,,,,,,,,1.050425,,,,,,,,,,,,,,,,,,,,,,60fe141b6ea6b56a60f5064d,61036964bc3d8dca65f5a60f,2021-07-29_22h55.21.656,Simcolourproject_2stim_asymm_v5,2020.2.10,Linux x86_64,60,61025ae37ef11b136ea224fe,,,,,,,,,1963,-29.37426758,57.5090332,1,0,0,response7disk,,0,-7.725158691,2.408203125,1,0,0,rectangle,-7.725158691,2.408203125,1,0,0,-7.725158691,2.408203125,1,0,0,0,74,74,19,1,,,,,,,,
,,,,,,,,,,,,,FF,,,,,,,,0.817925,,,,,,,,,,,,,,,,,,,,,,60fe141b6ea6b56a60f5064d,61036964bc3d8dca65f5a60f,2021-07-29_22h55.21.656,Simcolourproject_2stim_asymm_v5,2020.2.10,Linux x86_64,60,61025ae37ef11b136ea224fe,,,,,,,,,310,54.48809814,105.1561279,1,0,0,response1disk,,7,3.813049316,2.481201172,1,0,0,rectangle,3.813049316,2.481201172,1,0,0,3.813049316,2.481201172,1,0,0,0,75,75,105,1,,,,,,,,
,,,,,,,,,,,,,FF,,,,,,,,1.068015,,,,,,,,,,,,,,,,,,,,,,60fe141b6ea6b56a60f5064d,61036964bc3d8dca65f5a60f,2021-07-29_22h55.21.656,Simcolourproject_2stim_asymm_v5,2020.2.10,Linux x86_64,60,61025ae37ef11b136ea224fe,,,,,,,,,3936,-35.21105957,69.62347412,1,0,0,response7disk,,0,2.815612793,-8.408477783,1,0,0,rectangle,2.815612793,-8.408477783,1,0,0,2.815612793,-8.408477783,1,0,0,0,76,76,2,1,,,,,,,,
,,,,,,,,,,,,,FF,,,,,,,,1.23326,,,,,,,,,,,,,,,,,,,,,,60fe141b6ea6b56a60f5064d,61036964bc3d8dca65f5a60f,2021-07-29_22h55.21.656,Simcolourproject_2stim_asymm_v5,2020.2.10,Linux x86_64,60,61025ae37ef11b136ea224fe,,,,,,,,,243,45.69683838,59.11935425,1,0,0,response1disk,,7,-0.277648926,-1.921569824,1,0,0,rectangle,-0.277648926,-1.921569824,1,0,0,-0.277648926,-1.921569824,1,0,0,0,77,77,104,1,,,,,,,,
,,,,,,,,,,,,,FF,,,,,,,,2.23347,,,,,,,,,,,,,,,,,,,,,,60fe141b6ea6b56a60f5064d,61036964bc3d8dca65f5a60f,2021-07-29_22h55.21.656,Simcolourproject_2stim_asymm_v5,2020.2.10,Linux x86_64,60,61025ae37ef11b136ea224fe,,,,,,,,,983,43.7835083,91.27923584,1,0,0,response1disk,,7,-0.626708984,0.30645752,1,0,0,rectangle,-0.626708984,0.30645752,1,0,0,-0.626708984,0.30645752,1,0,0,0,78,78,3,1,,,,,,,,
,,,,,,,,,,,,,FF,,,,,,,,0.882805,,,,,,,,,,,,,,,,,,,,,,60fe141b6ea6b56a60f5064d,61036964bc3d8dca65f5a60f,2021-07-29_22h55.21.656,Simcolourproject_2stim_asymm_v5,2020.2.10,Linux x86_64,60,61025ae37ef11b136ea224fe,,,,,,,,,1315,50.45477295,100.2633057,1,0,0,response1disk,,7,2.721130371,-0.100372314,1,0,0,rectangle,2.721130371,-0.100372314,1,0,0,2.721130371,-0.100372314,1,0,0,0,79,79,152,1,,,,,,,,
,,,,,,,,,,,,,FF,,,,,,,,2.284595,,,,,,,,,,,,,,,,,,,,,,60fe141b6ea6b56a60f5064d,61036964bc3d8dca65f5a60f,2021-07-29_22h55.21.656,Simcolourproject_2stim_asymm_v5,2020.2.10,Linux x86_64,60,61025ae37ef11b136ea224fe,,,,,,,,,257,55.90692139,99.76565552,1,0,0,response1disk,,7,3.33581543,5.095336914,1,0,0,rectangle,41.99554443,-81.34622192,1,0,0,3.896484375,3.449615479,1,0,0,0,80,80,23,1,,response3disk_3,TRUE,4,4,"[9,186,180,17,81,36,295,170,321,298,19,164,118,192,241,171,2,36,271,42]",2.81636,rectangle
,,,,,,,,,,,,,FF,,,,,,,,0.966995,,,,,,,,,,,,,,,,,,,,,,60fe141b6ea6b56a60f5064d,61036964bc3d8dca65f5a60f,2021-07-29_22h55.21.656,Simcolourproject_2stim_asymm_v5,2020.2.10,Linux x86_64,60,61025ae37ef11b136ea224fe,,,,,,,,,234,43.49414063,74.86239624,1,0,0,response1disk,,7,-0.393127441,1.648254395,1,0,0,rectangle,-0.393127441,1.648254395,1,0,0,-0.393127441,1.648254395,1,0,0,0,81,81,159,1,,,,,,,,
,,,,,,,,,,,,,FF,,,,,,,,0.7504,,,,,,,,,,,,,,,,,,,,,,60fe141b6ea6b56a60f5064d,61036964bc3d8dca65f5a60f,2021-07-29_22h55.21.656,Simcolourproject_2stim_asymm_v5,2020.2.10,Linux x86_64,60,61025ae37ef11b136ea224fe,,,,,,,,,2729,42.37231445,78.6697998,1,0,0,response1disk,,7,5.366699219,4.667297363,1,0,0,rectangle,5.366699219,4.667297363,1,0,0,5.366699219,4.667297363,1,0,0,0,82,82,140,1,,,,,,,,
,,,,,,,,,,,,,FF,,,,,,,,1.183575,,,,,,,,,,,,,,,,,,,,,,60fe141b6ea6b56a60f5064d,61036964bc3d8dca65f5a60f,2021-07-29_22h55.21.656,Simcolourproject_2stim_asymm_v5,2020.2.10,Linux x86_64,60,61025ae37ef11b136ea224fe,,,,,,,,,761,46.35961914,80.59332275,1,0,0,response1disk,,7,7.713562012,1.376831055,1,0,0,rectangle,7.713562012,1.376831055,1,0,0,7.713562012,1.376831055,1,0,0,0,83,83,57,1,,,,,,,,
,,,,,,,,,,,,,FF,,,,,,,,2.3499,,,,,,,,,,,,,,,,,,,,,,60fe141b6ea6b56a60f5064d,61036964bc3d8dca65f5a60f,2021-07-29_22h55.21.656,Simcolourproject_2stim_asymm_v5,2020.2.10,Linux x86_64,60,61025ae37ef11b136ea224fe,,,,,,,,,1364,38.1149292,92.94515991,1,0,0,response1disk,,7,7.362854004,5.573425293,1,0,0,rectangle,7.362854004,5.573425293,1,0,0,7.362854004,5.573425293,1,0,0,0,84,84,81,1,,,,,,,,
,,,,,,,,,,,,,FF,,,,,,,,4.3836,,,,,,,,,,,,,,,,,,,,,,60fe141b6ea6b56a60f5064d,61036964bc3d8dca65f5a60f,2021-07-29_22h55.21.656,Simcolourproject_2stim_asymm_v5,2020.2.10,Linux x86_64,60,61025ae37ef11b136ea224fe,,,,,,,,,3537,55.84619141,103.1440735,1,0,0,response1disk,,7,4.802978516,-2.157806396,1,0,0,rectangle,4.802978516,-2.157806396,1,0,0,4.802978516,-2.157806396,1,0,0,0,85,85,77,1,,,,,,,,
,,,,,,,,,,,,,FF,,,,,,,,0.85,,,,,,,,,,,,,,,,,,,,,,60fe141b6ea6b56a60f5064d,61036964bc3d8dca65f5a60f,2021-07-29_22h55.21.656,Simcolourproject_2stim_asymm_v5,2020.2.10,Linux x86_64,60,61025ae37ef11b136ea224fe,,,,,,,,,366,-42.50915527,64.58660889,1,0,0,response7disk,,0,-15.08746338,3.220825195,1,0,0,rectangle,-15.08746338,3.220825195,1,0,0,-15.08746338,3.220825195,1,0,0,0,86,86,67,1,,,,,,,,
,,,,,,,,,,,,,FF,,,,,,,,1.7501,,,,,,,,,,,,,,,,,,,,,,60fe141b6ea6b56a60f5064d,61036964bc3d8dca65f5a60f,2021-07-29_22h55.21.656,Simcolourproject_2stim_asymm_v5,2020.2.10,Linux x86_64,60,61025ae37ef11b136ea224fe,,,,,,,,,201,-37.42700195,-74.14801025,1,0,0,response5disk,,3,-6.419067383,-3.097381592,1,0,0,rectangle,-6.419067383,-3.097381592,1,0,0,-6.419067383,-3.097381592,1,0,0,0,87,87,126,1,,,,,,,,
,,,,,,,,,,,,,FF,,,,,,,,1.86675,,,,,,,,,,,,,,,,,,,,,,60fe141b6ea6b56a60f5064d,61036964bc3d8dca65f5a60f,2021-07-29_22h55.21.656,Simcolourproject_2stim_asymm_v5,2020.2.10,Linux x86_64,60,61025ae37ef11b136ea224fe,,,,,,,,,3337,39.16387939,67.63745117,1,0,0,response1disk,,7,2.996704102,-0.462310791,1,0,0,rectangle,2.996704102,-0.462310791,1,0,0,2.996704102,-0.462310791,1,0,0,0,88,88,51,1,,,,,,,,
,,,,,,,,,,,,,FF,,,,,,,,0.866755,,,,,,,,,,,,,,,,,,,,,,60fe141b6ea6b56a60f5064d,61036964bc3d8dca65f5a60f,2021-07-29_22h55.21.656,Simcolourproject_2stim_asymm_v5,2020.2.10,Linux x86_64,60,61025ae37ef11b136ea224fe,,,,,,,,,329,42.58953857,77.47311401,1,0,0,response1disk,,7,3.020568848,-1.098175049,1,0,0,rectangle,3.020568848,-1.098175049,1,0,0,3.020568848,-1.098175049,1,0,0,0,89,89,158,1,,,,,,,,
,,,,,,,,,,,,,FF,,,,,,,,0.84919,,,,,,,,,,,,,,,,,,,,,,60fe141b6ea6b56a60f5064d,61036964bc3d8dca65f5a60f,2021-07-29_22h55.21.656,Simcolourproject_2stim_asymm_v5,2020.2.10,Linux x86_64,60,61025ae37ef11b136ea224fe,,,,,,,,,3762,54.15032959,87.19723511,1,0,0,response1disk,,7,9.771850586,9.181854248,1,0,0,rectangle,9.771850586,9.181854248,1,0,0,9.771850586,9.181854248,1,0,0,0,90,90,144,1,,,,,,,,
,,,,,,,,,,,,,FF,,,,,,,,1.333305,,,,,,,,,,,,,,,,,,,,,,60fe141b6ea6b56a60f5064d,61036964bc3d8dca65f5a60f,2021-07-29_22h55.21.656,Simcolourproject_2stim_asymm_v5,2020.2.10,Linux x86_64,60,61025ae37ef11b136ea224fe,,,,,,,,,1282,46.10058594,84.63864136,1,0,0,response1disk,,7,4.681640625,-3.347869873,1,0,0,rectangle,4.681640625,-3.347869873,1,0,0,4.681640625,-3.347869873,1,0,0,0,91,91,73,1,,,,,,,,
,,,,,,,,,,,,,FF,,,,,,,,0.901055,,,,,,,,,,,,,,,,,,,,,,60fe141b6ea6b56a60f5064d,61036964bc3d8dca65f5a60f,2021-07-29_22h55.21.656,Simcolourproject_2stim_asymm_v5,2020.2.10,Linux x86_64,60,61025ae37ef11b136ea224fe,,,,,,,,,3617,33.52868652,82.09164429,1,0,0,response1disk,,7,2.071777344,-5.403564453,1,0,0,rectangle,2.071777344,-5.403564453,1,0,0,2.071777344,-5.403564453,1,0,0,0,92,92,145,1,,,,,,,,
,,,,,,,,,,,,,FF,,,,,,,,1.150405,,,,,,,,,,,,,,,,,,,,,,60fe141b6ea6b56a60f5064d,61036964bc3d8dca65f5a60f,2021-07-29_22h55.21.656,Simcolourproject_2stim_asymm_v5,2020.2.10,Linux x86_64,60,61025ae37ef11b136ea224fe,,,,,,,,,3536,46.79278564,101.8095398,1,0,0,response1disk,,7,7.019958496,0.797576904,1,0,0,rectangle,7.019958496,0.797576904,1,0,0,7.019958496,0.797576904,1,0,0,0,93,93,118,1,,,,,,,,
,,,,,,,,,,,,,FF,,,,,,,,3.81666,,,,,,,,,,,,,,,,,,,,,,60fe141b6ea6b56a60f5064d,61036964bc3d8dca65f5a60f,2021-07-29_22h55.21.656,Simcolourproject_2stim_asymm_v5,2020.2.10,Linux x86_64,60,61025ae37ef11b136ea224fe,,,,,,,,,2083,38.62030029,79.51828003,1,0,0,response1disk,,7,8.627197266,1.419921875,1,0,0,rectangle,8.627197266,1.419921875,1,0,0,8.627197266,1.419921875,1,0,0,0,94,94,119,1,,,,,,,,
,,,,,,,,,,,,,FF,,,,,,,,1.300225,,,,,,,,,,,,,,,,,,,,,,60fe141b6ea6b56a60f5064d,61036964bc3d8dca65f5a60f,2021-07-29_22h55.21.656,Simcolourproject_2stim_asymm_v5,2020.2.10,Linux x86_64,60,61025ae37ef11b136ea224fe,,,,,,,,,1673,-37.8270874,-97.23916626,1,0,0,response5disk,,3,-1.878356934,-1.325653076,1,0,0,rectangle,-1.878356934,-1.325653076,1,0,0,-1.878356934,-1.325653076,1,0,0,0,95,95,114,1,,,,,,,,
,,,,,,,,,,,,,FF,,,,,,,,1.91676,,,,,,,,,,,,,,,,,,,,,,60fe141b6ea6b56a60f5064d,61036964bc3d8dca65f5a60f,2021-07-29_22h55.21.656,Simcolourproject_2stim_asymm_v5,2020.2.10,Linux x86_64,60,61025ae37ef11b136ea224fe,,,,,,,,,3220,48.70556641,92.1473999,1,0,0,response1disk,,7,7.914306641,1.845031738,1,0,0,rectangle,7.914306641,1.845031738,1,0,0,7.914306641,1.845031738,1,0,0,0,96,96,127,1,,,,,,,,
,,,,,,,,,,,,,FF,,,,,,,,0.785075,,,,,,,,,,,,,,,,,,,,,,60fe141b6ea6b56a60f5064d,61036964bc3d8dca65f5a60f,2021-07-29_22h55.21.656,Simcolourproject_2stim_asymm_v5,2020.2.10,Linux x86_64,60,61025ae37ef11b136ea224fe,,,,,,,,,509,44.20288086,77.20031738,1,0,0,response1disk,,7,4.326782227,6.554870605,1,0,0,rectangle,4.326782227,6.554870605,1,0,0,4.326782227,6.554870605,1,0,0,0,97,97,130,1,,,,,,,,
,,,,,,,,,,,,,FF,,,,,,,,1.31666,,,,,,,,,,,,,,,,,,,,,,60fe141b6ea6b56a60f5064d,61036964bc3d8dca65f5a60f,2021-07-29_22h55.21.656,Simcolourproject_2stim_asymm_v5,2020.2.10,Linux x86_64,60,61025ae37ef11b136ea224fe,,,,,,,,,829,48.9854126,93.95236206,1,0,0,response1disk,,7,0.992858887,-3.28414917,1,0,0,rectangle,0.992858887,-3.28414917,1,0,0,0.992858887,-3.28414917,1,0,0,0,98,98,17,1,,,,,,,,
,,,,,,,,,,,,,FF,,,,,,,,0.90044,,,,,,,,,,,,,,,,,,,,,,60fe141b6ea6b56a60f5064d,61036964bc3d8dca65f5a60f,2021-07-29_22h55.21.656,Simcolourproject_2stim_asymm_v5,2020.2.10,Linux x86_64,60,61025ae37ef11b136ea224fe,,,,,,,,,3666,44.27667236,94.86526489,1,0,0,response1disk,,7,-1.881103516,1.996002197,1,0,0,rectangle,-1.881103516,1.996002197,1,0,0,-1.881103516,1.996002197,1,0,0,0,99,99,120,1,,,,,,,,
,,,,,,,,,,,,,FF,,,,,,,,3.301715,,,,,,,,,,,,,,,,,,,,,,60fe141b6ea6b56a60f5064d,61036964bc3d8dca65f5a60f,2021-07-29_22h55.21.656,Simcolourproject_2stim_asymm_v5,2020.2.10,Linux x86_64,60,61025ae37ef11b136ea224fe,,,,,,,,,3513,63.38446045,106.0563049,1,0,0,response1disk,,7,7.07635498,-2.070861816,1,0,0,rectangle,7.07635498,-2.070861816,1,0,0,7.07635498,-2.070861816,1,0,0,0,100,100,8,1,,,,,,,,
,,,,,,,,,,,,,FF,,,,,,,,1.68441,,,,,,,,,,,,,,,,,,,,,,60fe141b6ea6b56a60f5064d,61036964bc3d8dca65f5a60f,2021-07-29_22h55.21.656,Simcolourproject_2stim_asymm_v5,2020.2.10,Linux x86_64,60,61025ae37ef11b136ea224fe,,,,,,,,,2029,-50.67785645,-82.83520508,1,0,0,response5disk,,3,-5.752319336,-4.933654785,1,0,0,rectangle,-5.752319336,-4.933654785,1,0,0,-5.752319336,-4.933654785,1,0,0,0,101,101,102,1,,,,,,,,
,,,,,,,,,,,,,FF,,,,,,,,0.98343,,,,,,,,,,,,,,,,,,,,,,60fe141b6ea6b56a60f5064d,61036964bc3d8dca65f5a60f,2021-07-29_22h55.21.656,Simcolourproject_2stim_asymm_v5,2020.2.10,Linux x86_64,60,61025ae37ef11b136ea224fe,,,,,,,,,3117,49.88195801,76.08789063,1,0,0,response1disk,,7,4.983215332,3.67364502,1,0,0,rectangle,4.983215332,3.67364502,1,0,0,4.983215332,3.67364502,1,0,0,0,102,102,84,1,,,,,,,,
,,,,,,,,,,,,,FF,,,,,,,,1.516775,,,,,,,,,,,,,,,,,,,,,,60fe141b6ea6b56a60f5064d,61036964bc3d8dca65f5a60f,2021-07-29_22h55.21.656,Simcolourproject_2stim_asymm_v5,2020.2.10,Linux x86_64,60,61025ae37ef11b136ea224fe,,,,,,,,,2625,50.16790771,95.35021973,1,0,0,response1disk,,7,10.9586792,-4.154998779,1,0,0,rectangle,10.9586792,-4.154998779,1,0,0,10.9586792,-4.154998779,1,0,0,0,103,103,14,1,,,,,,,,
,,,,,,,,,,,,,FF,,,,,,,,0.90016,,,,,,,,,,,,,,,,,,,,,,60fe141b6ea6b56a60f5064d,61036964bc3d8dca65f5a60f,2021-07-29_22h55.21.656,Simcolourproject_2stim_asymm_v5,2020.2.10,Linux x86_64,60,61025ae37ef11b136ea224fe,,,,,,,,,2600,43.18505859,74.93432617,1,0,0,response1disk,,7,7.879516602,0.391174316,1,0,0,rectangle,7.879516602,0.391174316,1,0,0,7.879516602,0.391174316,1,0,0,0,104,104,97,1,,,,,,,,
,,,,,,,,,,,,,FF,,,,,,,,0.800075,,,,,,,,,,,,,,,,,,,,,,60fe141b6ea6b56a60f5064d,61036964bc3d8dca65f5a60f,2021-07-29_22h55.21.656,Simcolourproject_2stim_asymm_v5,2020.2.10,Linux x86_64,60,61025ae37ef11b136ea224fe,,,,,,,,,1264,36.54272461,79.87789917,1,0,0,response1disk,,7,6.215820313,-2.709991455,1,0,0,rectangle,6.215820313,-2.709991455,1,0,0,6.215820313,-2.709991455,1,0,0,0,105,105,90,1,,,,,,,,
,,,,,,,,,,,,,FF,,,,,,,,0.73363,,,,,,,,,,,,,,,,,,,,,,60fe141b6ea6b56a60f5064d,61036964bc3d8dca65f5a60f,2021-07-29_22h55.21.656,Simcolourproject_2stim_asymm_v5,2020.2.10,Linux x86_64,60,61025ae37ef11b136ea224fe,,,,,,,,,4110,51.00164795,97.0723877,1,0,0,response1disk,,7,9.382019043,-0.347900391,1,0,0,rectangle,9.382019043,-0.347900391,1,0,0,9.382019043,-0.347900391,1,0,0,0,106,106,129,1,,,,,,,,
,,,,,,,,,,,,,FF,,,,,,,,0.834325,,,,,,,,,,,,,,,,,,,,,,60fe141b6ea6b56a60f5064d,61036964bc3d8dca65f5a60f,2021-07-29_22h55.21.656,Simcolourproject_2stim_asymm_v5,2020.2.10,Linux x86_64,60,61025ae37ef11b136ea224fe,,,,,,,,,1528,47.88873291,110.432312,1,0,0,response1disk,,7,3.07434082,-0.085693359,1,0,0,rectangle,3.07434082,-0.085693359,1,0,0,3.07434082,-0.085693359,1,0,0,0,107,107,49,1,,,,,,,,
,,,,,,,,,,,,,FF,,,,,,,,1.117035,,,,,,,,,,,,,,,,,,,,,,60fe141b6ea6b56a60f5064d,61036964bc3d8dca65f5a60f,2021-07-29_22h55.21.656,Simcolourproject_2stim_asymm_v5,2020.2.10,Linux x86_64,60,61025ae37ef11b136ea224fe,,,,,,,,,1844,53.90246582,97.63809204,1,0,0,response1disk,,7,9.683044434,-2.503753662,1,0,0,rectangle,9.683044434,-2.503753662,1,0,0,9.683044434,-2.503753662,1,0,0,0,108,108,131,1,,,,,,,,
,,,,,,,,,,,,,FF,,,,,,,,2.017065,,,,,,,,,,,,,,,,,,,,,,60fe141b6ea6b56a60f5064d,61036964bc3d8dca65f5a60f,2021-07-29_22h55.21.656,Simcolourproject_2stim_asymm_v5,2020.2.10,Linux x86_64,60,61025ae37ef11b136ea224fe,,,,,,,,,2060,59.12115479,81.37631226,1,0,0,response1disk,,7,6.712402344,1.213867188,1,0,0,rectangle,6.712402344,1.213867188,1,0,0,6.712402344,1.213867188,1,0,0,0,109,109,111,1,,,,,,,,
,,,,,,,,,,,,,FF,,,,,,,,0.76681,,,,,,,,,,,,,,,,,,,,,,60fe141b6ea6b56a60f5064d,61036964bc3d8dca65f5a60f,2021-07-29_22h55.21.656,Simcolourproject_2stim_asymm_v5,2020.2.10,Linux x86_64,60,61025ae37ef11b136ea224fe,,,,,,,,,1649,65.03582764,93.534729,1,0,0,response1disk,,7,11.09484863,-5.635253906,1,0,0,rectangle,11.09484863,-5.635253906,1,0,0,11.09484863,-5.635253906,1,0,0,0,110,110,128,1,,,,,,,,
,,,,,,,,,,,,,FF,,,,,,,,0.83349,,,,,,,,,,,,,,,,,,,,,,60fe141b6ea6b56a60f5064d,61036964bc3d8dca65f5a60f,2021-07-29_22h55.21.656,Simcolourproject_2stim_asymm_v5,2020.2.10,Linux x86_64,60,61025ae37ef11b136ea224fe,,,,,,,,,1977,36.99835205,87.39907837,1,0,0,response1disk,,7,6.60534668,-4.743103027,1,0,0,rectangle,6.60534668,-4.743103027,1,0,0,6.60534668,-4.743103027,1,0,0,0,111,111,26,1,,,,,,,,
,,,,,,,,,,,,,FF,,,,,,,,1.018075,,,,,,,,,,,,,,,,,,,,,,60fe141b6ea6b56a60f5064d,61036964bc3d8dca65f5a60f,2021-07-29_22h55.21.656,Simcolourproject_2stim_asymm_v5,2020.2.10,Linux x86_64,60,61025ae37ef11b136ea224fe,,,,,,,,,2086,47.73327637,56.73190308,1,0,0,response1disk,,7,-0.787963867,-6.926422119,1,0,0,rectangle,-0.787963867,-6.926422119,1,0,0,-0.787963867,-6.926422119,1,0,0,0,112,112,93,1,,,,,,,,
,,,,,,,,,,,,,FF,,,,,,,,1.98342,,,,,,,,,,,,,,,,,,,,,,60fe141b6ea6b56a60f5064d,61036964bc3d8dca65f5a60f,2021-07-29_22h55.21.656,Simcolourproject_2stim_asymm_v5,2020.2.10,Linux x86_64,60,61025ae37ef11b136ea224fe,,,,,,,,,3781,39.29492188,77.01437378,1,0,0,response1disk,,7,-3.257629395,-5.404754639,1,0,0,rectangle,-3.257629395,-5.404754639,1,0,0,-3.257629395,-5.404754639,1,0,0,0,113,113,50,1,,,,,,,,
,,,,,,,,,,,,,FF,,,,,,,,0.78392,,,,,,,,,,,,,,,,,,,,,,60fe141b6ea6b56a60f5064d,61036964bc3d8dca65f5a60f,2021-07-29_22h55.21.656,Simcolourproject_2stim_asymm_v5,2020.2.10,Linux x86_64,60,61025ae37ef11b136ea224fe,,,,,,,,,3438,53.46832275,104.9715576,1,0,0,response1disk,,7,8.817504883,2.453369141,1,0,0,rectangle,8.817504883,2.453369141,1,0,0,8.817504883,2.453369141,1,0,0,0,114,114,54,1,,,,,,,,
,,,,,,,,,,,,,FF,,,,,,,,1.2668,,,,,,,,,,,,,,,,,,,,,,60fe141b6ea6b56a60f5064d,61036964bc3d8dca65f5a60f,2021-07-29_22h55.21.656,Simcolourproject_2stim_asymm_v5,2020.2.10,Linux x86_64,60,61025ae37ef11b136ea224fe,,,,,,,,,836,37.80151367,71.64074707,1,0,0,response1disk,,7,3.346435547,-7.414581299,1,0,0,rectangle,3.346435547,-7.414581299,1,0,0,3.346435547,-7.414581299,1,0,0,0,115,115,85,1,,,,,,,,
,,,,,,,,,,,,,FF,,,,,,,,1.951275,,,,,,,,,,,,,,,,,,,,,,60fe141b6ea6b56a60f5064d,61036964bc3d8dca65f5a60f,2021-07-29_22h55.21.656,Simcolourproject_2stim_asymm_v5,2020.2.10,Linux x86_64,60,61025ae37ef11b136ea224fe,,,,,,,,,3708,37.71618652,-75.11950684,1,0,0,response3disk,,4,-5.697509766,-1.203063965,1,0,0,rectangle,-5.697509766,-1.203063965,1,0,0,-5.697509766,-1.203063965,1,0,0,0,116,116,101,1,,,,,,,,
,,,,,,,,,,,,,FF,,,,,,,,1.11818,,,,,,,,,,,,,,,,,,,,,,60fe141b6ea6b56a60f5064d,61036964bc3d8dca65f5a60f,2021-07-29_22h55.21.656,Simcolourproject_2stim_asymm_v5,2020.2.10,Linux x86_64,60,61025ae37ef11b136ea224fe,,,,,,,,,3686,46.42669678,66.71618652,1,0,0,response1disk,,7,0.184753418,1.790100098,1,0,0,rectangle,-37.74243164,-91.67218018,1,0,0,2.553649902,2.068786621,1,0,0,0,117,117,52,1,,response5disk_3,TRUE,3,3,"[9,186,180,17,81,36,295,170,321,298,19,164,118,192,241,171,2,36,271,42]",4.01594,rectangle
,,,,,,,,,,,,,FF,,,,,,,,1.600435,,,,,,,,,,,,,,,,,,,,,,60fe141b6ea6b56a60f5064d,61036964bc3d8dca65f5a60f,2021-07-29_22h55.21.656,Simcolourproject_2stim_asymm_v5,2020.2.10,Linux x86_64,60,61025ae37ef11b136ea224fe,,,,,,,,,1181,55.26159668,91.53485107,1,0,0,response1disk,,7,0.508178711,-9.200408936,1,0,0,rectangle,0.508178711,-9.200408936,1,0,0,0.508178711,-9.200408936,1,0,0,0,118,118,35,1,,,,,,,,
,,,,,,,,,,,,,FF,,,,,,,,1.95031,,,,,,,,,,,,,,,,,,,,,,60fe141b6ea6b56a60f5064d,61036964bc3d8dca65f5a60f,2021-07-29_22h55.21.656,Simcolourproject_2stim_asymm_v5,2020.2.10,Linux x86_64,60,61025ae37ef11b136ea224fe,,,,,,,,,617,96.52166748,-40.59902954,1,0,0,response3disk,,5,14.51898193,3.74609375,1,0,0,rectangle,14.51898193,3.74609375,1,0,0,14.51898193,3.74609375,1,0,0,0,119,119,151,1,,,,,,,,
,,,,,,,,,,,,,FF,,,,,,,,1.4003,,,,,,,,,,,,,,,,,,,,,,60fe141b6ea6b56a60f5064d,61036964bc3d8dca65f5a60f,2021-07-29_22h55.21.656,Simcolourproject_2stim_asymm_v5,2020.2.10,Linux x86_64,60,61025ae37ef11b136ea224fe,,,,,,,,,225,51.38415527,103.802948,1,0,0,response1disk,,7,10.36358643,-3.08505249,1,0,0,rectangle,10.36358643,-3.08505249,1,0,0,10.36358643,-3.08505249,1,0,0,0,120,120,65,1,,,,,,,,
,,,,,,,,,,,,,FF,,,,,,,,2.54992,,,,,,,,,,,,,,,,,,,,,,60fe141b6ea6b56a60f5064d,61036964bc3d8dca65f5a60f,2021-07-29_22h55.21.656,Simcolourproject_2stim_asymm_v5,2020.2.10,Linux x86_64,60,61025ae37ef11b136ea224fe,,,,,,,,,2311,49.31384277,88.79992676,1,0,0,response1disk,,7,-2.146057129,5.73614502,1,0,0,rectangle,-2.146057129,5.73614502,1,0,0,-2.146057129,5.73614502,1,0,0,0,121,121,135,1,,,,,,,,
,,,,,,,,,,,,,FF,,,,,,,,1.06628,,,,,,,,,,,,,,,,,,,,,,60fe141b6ea6b56a60f5064d,61036964bc3d8dca65f5a60f,2021-07-29_22h55.21.656,Simcolourproject_2stim_asymm_v5,2020.2.10,Linux x86_64,60,61025ae37ef11b136ea224fe,,,,,,,,,3583,56.61474609,99.5836792,1,0,0,response1disk,,7,1.715393066,-1.031677246,1,0,0,rectangle,1.715393066,-1.031677246,1,0,0,1.715393066,-1.031677246,1,0,0,0,122,122,76,1,,,,,,,,
,,,,,,,,,,,,,FF,,,,,,,,1.71738,,,,,,,,,,,,,,,,,,,,,,60fe141b6ea6b56a60f5064d,61036964bc3d8dca65f5a60f,2021-07-29_22h55.21.656,Simcolourproject_2stim_asymm_v5,2020.2.10,Linux x86_64,60,61025ae37ef11b136ea224fe,,,,,,,,,3386,44.16937256,76.01040649,1,0,0,response1disk,,7,-2.556396484,-3.183044434,1,0,0,rectangle,-2.556396484,-3.183044434,1,0,0,-2.556396484,-3.183044434,1,0,0,0,123,123,59,1,,,,,,,,
,,,,,,,,,,,,,FF,,,,,,,,2.40206,,,,,,,,,,,,,,,,,,,,,,60fe141b6ea6b56a60f5064d,61036964bc3d8dca65f5a60f,2021-07-29_22h55.21.656,Simcolourproject_2stim_asymm_v5,2020.2.10,Linux x86_64,60,61025ae37ef11b136ea224fe,,,,,,,,,1654,67.86993408,33.63421631,1,0,0,response1disk,,6,-4.050354004,-9.73638916,1,0,0,rectangle,-4.050354004,-9.73638916,1,0,0,-4.050354004,-9.73638916,1,0,0,0,124,124,4,1,,,,,,,,
,,,,,,,,,,,,,FF,,,,,,,,2.78313,,,,,,,,,,,,,,,,,,,,,,60fe141b6ea6b56a60f5064d,61036964bc3d8dca65f5a60f,2021-07-29_22h55.21.656,Simcolourproject_2stim_asymm_v5,2020.2.10,Linux x86_64,60,61025ae37ef11b136ea224fe,,,,,,,,,1187,42.16589355,74.43225098,1,0,0,response1disk,,7,8.678527832,-4.171020508,1,0,0,rectangle,8.678527832,-4.171020508,1,0,0,8.678527832,-4.171020508,1,0,0,0,125,125,62,1,,,,,,,,
,,,,,,,,,,,,,FF,,,,,,,,2.700145,,,,,,,,,,,,,,,,,,,,,,60fe141b6ea6b56a60f5064d,61036964bc3d8dca65f5a60f,2021-07-29_22h55.21.656,Simcolourproject_2stim_asymm_v5,2020.2.10,Linux x86_64,60,61025ae37ef11b136ea224fe,,,,,,,,,436,-77.730896,-36.78411865,1,0,0,response5disk,,2,-5.640197754,2.999542236,1,0,0,rectangle,-5.640197754,2.999542236,1,0,0,-5.640197754,2.999542236,1,0,0,0,126,126,132,1,,,,,,,,
,,,,,,,,,,,,,FF,,,,,,,,1.60088,,,,,,,,,,,,,,,,,,,,,,60fe141b6ea6b56a60f5064d,61036964bc3d8dca65f5a60f,2021-07-29_22h55.21.656,Simcolourproject_2stim_asymm_v5,2020.2.10,Linux x86_64,60,61025ae37ef11b136ea224fe,,,,,,,,,2455,58.94866943,90.91384888,1,0,0,response1disk,,7,-2.875549316,-4.65737915,1,0,0,rectangle,-2.875549316,-4.65737915,1,0,0,-2.875549316,-4.65737915,1,0,0,0,127,127,46,1,,,,,,,,
,,,,,,,,,,,,,FF,,,,,,,,0.96731,,,,,,,,,,,,,,,,,,,,,,60fe141b6ea6b56a60f5064d,61036964bc3d8dca65f5a60f,2021-07-29_22h55.21.656,Simcolourproject_2stim_asymm_v5,2020.2.10,Linux x86_64,60,61025ae37ef11b136ea224fe,,,,,,,,,750,59.10498047,107.1514893,1,0,0,response1disk,,7,6.557678223,4.120239258,1,0,0,rectangle,6.557678223,4.120239258,1,0,0,6.557678223,4.120239258,1,0,0,0,128,128,117,1,,,,,,,,
,,,,,,,,,,,,,FF,,,,,,,,0.68372,,,,,,,,,,,,,,,,,,,,,,60fe141b6ea6b56a60f5064d,61036964bc3d8dca65f5a60f,2021-07-29_22h55.21.656,Simcolourproject_2stim_asymm_v5,2020.2.10,Linux x86_64,60,61025ae37ef11b136ea224fe,,,,,,,,,2706,32.94372559,80.66540527,1,0,0,response1disk,,7,2.77545166,1.065704346,1,0,0,rectangle,2.77545166,1.065704346,1,0,0,2.77545166,1.065704346,1,0,0,0,129,129,1,1,,,,,,,,
,,,,,,,,,,,,,FF,,,,,,,,0.61689,,,,,,,,,,,,,,,,,,,,,,60fe141b6ea6b56a60f5064d,61036964bc3d8dca65f5a60f,2021-07-29_22h55.21.656,Simcolourproject_2stim_asymm_v5,2020.2.10,Linux x86_64,60,61025ae37ef11b136ea224fe,,,,,,,,,774,43.45806885,77.55953979,1,0,0,response1disk,,7,5.312438965,1.503112793,1,0,0,rectangle,5.312438965,1.503112793,1,0,0,5.312438965,1.503112793,1,0,0,0,130,130,28,1,,,,,,,,
,,,,,,,,,,,,,FF,,,,,,,,2.36684,,,,,,,,,,,,,,,,,,,,,,60fe141b6ea6b56a60f5064d,61036964bc3d8dca65f5a60f,2021-07-29_22h55.21.656,Simcolourproject_2stim_asymm_v5,2020.2.10,Linux x86_64,60,61025ae37ef11b136ea224fe,,,,,,,,,2421,-26.71606445,-82.53546143,1,0,0,response5disk,,3,1.010925293,-0.235656738,1,0,0,rectangle,1.010925293,-0.235656738,1,0,0,1.010925293,-0.235656738,1,0,0,0,131,131,74,1,,,,,,,,
,,,,,,,,,,,,,FF,,,,,,,,1.25028,,,,,,,,,,,,,,,,,,,,,,60fe141b6ea6b56a60f5064d,61036964bc3d8dca65f5a60f,2021-07-29_22h55.21.656,Simcolourproject_2stim_asymm_v5,2020.2.10,Linux x86_64,60,61025ae37ef11b136ea224fe,,,,,,,,,1360,38.78625488,72.14508057,1,0,0,response1disk,,7,1.647827148,-2.232116699,1,0,0,rectangle,1.647827148,-2.232116699,1,0,0,1.647827148,-2.232116699,1,0,0,0,132,132,109,1,,,,,,,,
,,,,,,,,,,,,,FF,,,,,,,,0.867675,,,,,,,,,,,,,,,,,,,,,,60fe141b6ea6b56a60f5064d,61036964bc3d8dca65f5a60f,2021-07-29_22h55.21.656,Simcolourproject_2stim_asymm_v5,2020.2.10,Linux x86_64,60,61025ae37ef11b136ea224fe,,,,,,,,,732,31.74737549,64.42849731,1,0,0,response1disk,,7,-1.598083496,-5.716552734,1,0,0,rectangle,-1.598083496,-5.716552734,1,0,0,-1.598083496,-5.716552734,1,0,0,0,133,133,11,1,,,,,,,,
,,,,,,,,,,,,,FF,,,,,,,,1.50009,,,,,,,,,,,,,,,,,,,,,,60fe141b6ea6b56a60f5064d,61036964bc3d8dca65f5a60f,2021-07-29_22h55.21.656,Simcolourproject_2stim_asymm_v5,2020.2.10,Linux x86_64,60,61025ae37ef11b136ea224fe,,,,,,,,,1217,46.1015625,96.79116821,1,0,0,response1disk,,7,2.412109375,6.336242676,1,0,0,rectangle,2.412109375,6.336242676,1,0,0,2.412109375,6.336242676,1,0,0,0,134,134,156,1,,,,,,,,
,,,,,,,,,,,,,FF,,,,,,,,1.272195,,,,,,,,,,,,,,,,,,,,,,60fe141b6ea6b56a60f5064d,61036964bc3d8dca65f5a60f,2021-07-29_22h55.21.656,Simcolourproject_2stim_asymm_v5,2020.2.10,Linux x86_64,60,61025ae37ef11b136ea224fe,,,,,,,,,3676,66.34973145,34.85183716,1,0,0,response1disk,,6,16.73394775,0.984771729,1,0,0,rectangle,16.73394775,0.984771729,1,0,0,16.73394775,0.984771729,1,0,0,0,135,135,56,1,,,,,,,,
,,,,,,,,,,,,,FF,,,,,,,,1.966485,,,,,,,,,,,,,,,,,,,,,,60fe141b6ea6b56a60f5064d,61036964bc3d8dca65f5a60f,2021-07-29_22h55.21.656,Simcolourproject_2stim_asymm_v5,2020.2.10,Linux x86_64,60,61025ae37ef11b136ea224fe,,,,,,,,,4168,83.60644531,39.15881348,1,0,0,response1disk,,6,5.82824707,-0.939727783,1,0,0,rectangle,5.82824707,-0.939727783,1,0,0,5.82824707,-0.939727783,1,0,0,0,136,136,83,1,,,,,,,,
,,,,,,,,,,,,,FF,,,,,,,,1.66685,,,,,,,,,,,,,,,,,,,,,,60fe141b6ea6b56a60f5064d,61036964bc3d8dca65f5a60f,2021-07-29_22h55.21.656,Simcolourproject_2stim_asymm_v5,2020.2.10,Linux x86_64,60,61025ae37ef11b136ea224fe,,,,,,,,,103,32.11779785,-85.17367554,1,0,0,response3disk,,4,5.124938965,-0.65826416,1,0,0,rectangle,5.124938965,-0.65826416,1,0,0,5.124938965,-0.65826416,1,0,0,0,137,137,27,1,,,,,,,,
,,,,,,,,,,,,,FF,,,,,,,,1.616975,,,,,,,,,,,,,,,,,,,,,,60fe141b6ea6b56a60f5064d,61036964bc3d8dca65f5a60f,2021-07-29_22h55.21.656,Simcolourproject_2stim_asymm_v5,2020.2.10,Linux x86_64,60,61025ae37ef11b136ea224fe,,,,,,,,,1045,51.32702637,95.97323608,1,0,0,response1disk,,7,9.552124023,-2.26348877,1,0,0,rectangle,9.552124023,-2.26348877,1,0,0,9.552124023,-2.26348877,1,0,0,0,138,138,40,1,,,,,,,,
,,,,,,,,,,,,,FF,,,,,,,,0.91754,,,,,,,,,,,,,,,,,,,,,,60fe141b6ea6b56a60f5064d,61036964bc3d8dca65f5a60f,2021-07-29_22h55.21.656,Simcolourproject_2stim_asymm_v5,2020.2.10,Linux x86_64,60,61025ae37ef11b136ea224fe,,,,,,,,,4095,-39.2600708,75.4380188,1,0,0,response7disk,,0,7.358520508,0.332366943,1,0,0,rectangle,7.358520508,0.332366943,1,0,0,7.358520508,0.332366943,1,0,0,0,139,139,24,1,,,,,,,,
,,,,,,,,,,,,,FF,,,,,,,,1.450235,,,,,,,,,,,,,,,,,,,,,,60fe141b6ea6b56a60f5064d,61036964bc3d8dca65f5a60f,2021-07-29_22h55.21.656,Simcolourproject_2stim_asymm_v5,2020.2.10,Linux x86_64,60,61025ae37ef11b136ea224fe,,,,,,,,,4276,45.24377441,74.26281738,1,0,0,response1disk,,7,3.808227539,4.653625488,1,0,0,rectangle,3.808227539,4.653625488,1,0,0,3.808227539,4.653625488,1,0,0,0,140,140,103,1,,,,,,,,
,,,,,,,,,,,,,FF,,,,,,,,1.101165,,,,,,,,,,,,,,,,,,,,,,60fe141b6ea6b56a60f5064d,61036964bc3d8dca65f5a60f,2021-07-29_22h55.21.656,Simcolourproject_2stim_asymm_v5,2020.2.10,Linux x86_64,60,61025ae37ef11b136ea224fe,,,,,,,,,1694,48.59399414,84.36392212,1,0,0,response1disk,,7,10.70220947,-0.763000488,1,0,0,rectangle,10.70220947,-0.763000488,1,0,0,10.70220947,-0.763000488,1,0,0,0,141,141,82,1,,,,,,,,
,,,,,,,,,,,,,FF,,,,,,,,2.45151,,,,,,,,,,,,,,,,,,,,,,60fe141b6ea6b56a60f5064d,61036964bc3d8dca65f5a60f,2021-07-29_22h55.21.656,Simcolourproject_2stim_asymm_v5,2020.2.10,Linux x86_64,60,61025ae37ef11b136ea224fe,,,,,,,,,292,52.13897705,100.635498,1,0,0,response1disk,,7,3.090576172,-3.3777771,1,0,0,rectangle,3.090576172,-3.3777771,1,0,0,3.090576172,-3.3777771,1,0,0,0,142,142,98,1,,,,,,,,
,,,,,,,,,,,,,FF,,,,,,,,0.75034,,,,,,,,,,,,,,,,,,,,,,60fe141b6ea6b56a60f5064d,61036964bc3d8dca65f5a60f,2021-07-29_22h55.21.656,Simcolourproject_2stim_asymm_v5,2020.2.10,Linux x86_64,60,61025ae37ef11b136ea224fe,,,,,,,,,2315,50.86517334,83.01672363,1,0,0,response1disk,,7,4.984375,-1.971282959,1,0,0,rectangle,4.984375,-1.971282959,1,0,0,4.984375,-1.971282959,1,0,0,0,143,143,80,1,,,,,,,,
,,,,,,,,,,,,,FF,,,,,,,,1.63424,,,,,,,,,,,,,,,,,,,,,,60fe141b6ea6b56a60f5064d,61036964bc3d8dca65f5a60f,2021-07-29_22h55.21.656,Simcolourproject_2stim_asymm_v5,2020.2.10,Linux x86_64,60,61025ae37ef11b136ea224fe,,,,,,,,,1672,35.90466309,-83.63592529,1,0,0,response3disk,,4,2.584533691,2.70300293,1,0,0,rectangle,2.584533691,2.70300293,1,0,0,2.584533691,2.70300293,1,0,0,0,144,144,79,1,,,,,,,,
,,,,,,,,,,,,,FF,,,,,,,,1.68341,,,,,,,,,,,,,,,,,,,,,,60fe141b6ea6b56a60f5064d,61036964bc3d8dca65f5a60f,2021-07-29_22h55.21.656,Simcolourproject_2stim_asymm_v5,2020.2.10,Linux x86_64,60,61025ae37ef11b136ea224fe,,,,,,,,,2487,87.38153076,33.88580322,1,0,0,response1disk,,6,11.99859619,-1.734588623,1,0,0,rectangle,11.99859619,-1.734588623,1,0,0,11.99859619,-1.734588623,1,0,0,0,145,145,6,1,,,,,,,,
,,,,,,,,,,,,,FF,,,,,,,,1.74994,,,,,,,,,,,,,,,,,,,,,,60fe141b6ea6b56a60f5064d,61036964bc3d8dca65f5a60f,2021-07-29_22h55.21.656,Simcolourproject_2stim_asymm_v5,2020.2.10,Linux x86_64,60,61025ae37ef11b136ea224fe,,,,,,,,,986,38.43103027,71.56307983,1,0,0,response1disk,,7,4.680053711,6.798797607,1,0,0,rectangle,4.680053711,6.798797607,1,0,0,4.680053711,6.798797607,1,0,0,0,146,146,86,1,,,,,,,,
,,,,,,,,,,,,,FF,,,,,,,,1.166215,,,,,,,,,,,,,,,,,,,,,,60fe141b6ea6b56a60f5064d,61036964bc3d8dca65f5a60f,2021-07-29_22h55.21.656,Simcolourproject_2stim_asymm_v5,2020.2.10,Linux x86_64,60,61025ae37ef11b136ea224fe,,,,,,,,,526,29.25445557,50.26580811,1,0,0,response1disk,,7,7.430358887,2.40612793,1,0,0,rectangle,7.430358887,2.40612793,1,0,0,7.430358887,2.40612793,1,0,0,0,147,147,7,1,,,,,,,,
,,,,,,,,,,,,,FF,,,,,,,,0.88372,,,,,,,,,,,,,,,,,,,,,,60fe141b6ea6b56a60f5064d,61036964bc3d8dca65f5a60f,2021-07-29_22h55.21.656,Simcolourproject_2stim_asymm_v5,2020.2.10,Linux x86_64,60,61025ae37ef11b136ea224fe,,,,,,,,,2847,50.78692627,109.9630737,1,0,0,response1disk,,7,6.26574707,-3.922027588,1,0,0,rectangle,6.26574707,-3.922027588,1,0,0,6.26574707,-3.922027588,1,0,0,0,148,148,37,1,,,,,,,,
,,,,,,,,,,,,,FF,,,,,,,,1.533315,,,,,,,,,,,,,,,,,,,,,,60fe141b6ea6b56a60f5064d,61036964bc3d8dca65f5a60f,2021-07-29_22h55.21.656,Simcolourproject_2stim_asymm_v5,2020.2.10,Linux x86_64,60,61025ae37ef11b136ea224fe,,,,,,,,,1600,51.8394165,-91.35409546,1,0,0,response3disk,,4,0.160522461,0.669891357,1,0,0,rectangle,0.160522461,0.669891357,1,0,0,0.160522461,0.669891357,1,0,0,0,149,149,143,1,,,,,,,,
,,,,,,,,,,,,,FF,,,,,,,,3.60008,,,,,,,,,,,,,,,,,,,,,,60fe141b6ea6b56a60f5064d,61036964bc3d8dca65f5a60f,2021-07-29_22h55.21.656,Simcolourproject_2stim_asymm_v5,2020.2.10,Linux x86_64,60,61025ae37ef11b136ea224fe,,,,,,,,,4167,37.8069458,80.83999634,1,0,0,response1disk,,7,1.037597656,-10.39447021,1,0,0,rectangle,1.037597656,-10.39447021,1,0,0,1.037597656,-10.39447021,1,0,0,0,150,150,39,1,,,,,,,,
,,,,,,,,,,,,,FF,,,,,,,,1.466835,,,,,,,,,,,,,,,,,,,,,,60fe141b6ea6b56a60f5064d,61036964bc3d8dca65f5a60f,2021-07-29_22h55.21.656,Simcolourproject_2stim_asymm_v5,2020.2.10,Linux x86_64,60,61025ae37ef11b136ea224fe,,,,,,,,,1119,82.06140137,55.55236816,1,0,0,response1disk,,6,12.74359131,10.21820068,1,0,0,rectangle,12.74359131,10.21820068,1,0,0,12.74359131,10.21820068,1,0,0,0,151,151,94,1,,,,,,,,
,,,,,,,,,,,,,FF,,,,,,,,1.050635,,,,,,,,,,,,,,,,,,,,,,60fe141b6ea6b56a60f5064d,61036964bc3d8dca65f5a60f,2021-07-29_22h55.21.656,Simcolourproject_2stim_asymm_v5,2020.2.10,Linux x86_64,60,61025ae37ef11b136ea224fe,,,,,,,,,3434,-58.18310547,86.83041382,1,0,0,response7disk,,0,12.50396729,-1.427734375,1,0,0,rectangle,12.50396729,-1.427734375,1,0,0,12.50396729,-1.427734375,1,0,0,0,152,152,30,1,,,,,,,,
,,,,,,,,,,,,,FF,,,,,,,,0.85037,,,,,,,,,,,,,,,,,,,,,,60fe141b6ea6b56a60f5064d,61036964bc3d8dca65f5a60f,2021-07-29_22h55.21.656,Simcolourproject_2stim_asymm_v5,2020.2.10,Linux x86_64,60,61025ae37ef11b136ea224fe,,,,,,,,,1693,55.0645752,72.3883667,1,0,0,response1disk,,7,4.104370117,-8.538116455,1,0,0,rectangle,4.104370117,-8.538116455,1,0,0,4.104370117,-8.538116455,1,0,0,0,153,153,13,1,,,,,,,,
,,,,,,,,,,,,,FF,,,,,,,,0.968115,,,,,,,,,,,,,,,,,,,,,,60fe141b6ea6b56a60f5064d,61036964bc3d8dca65f5a60f,2021-07-29_22h55.21.656,Simcolourproject_2stim_asymm_v5,2020.2.10,Linux x86_64,60,61025ae37ef11b136ea224fe,,,,,,,,,4129,38.00128174,80.06759644,1,0,0,response1disk,,7,7.081481934,1.400390625,1,0,0,rectangle,7.081481934,1.400390625,1,0,0,7.081481934,1.400390625,1,0,0,0,154,154,95,1,,,,,,,,
,,,,,,,,,,,,,FF,,,,,,,,2.434445,,,,,,,,,,,,,,,,,,,,,,60fe141b6ea6b56a60f5064d,61036964bc3d8dca65f5a60f,2021-07-29_22h55.21.656,Simcolourproject_2stim_asymm_v5,2020.2.10,Linux x86_64,60,61025ae37ef11b136ea224fe,,,,,,,,,369,45.74682617,78.53723145,1,0,0,response1disk,,7,7.331604004,-3.296478271,1,0,0,rectangle,7.331604004,-3.296478271,1,0,0,7.331604004,-3.296478271,1,0,0,0,155,155,137,1,,,,,,,,
,,,,,,,,,,,,,FF,,,,,,,,1.44986,,,,,,,,,,,,,,,,,,,,,,60fe141b6ea6b56a60f5064d,61036964bc3d8dca65f5a60f,2021-07-29_22h55.21.656,Simcolourproject_2stim_asymm_v5,2020.2.10,Linux x86_64,60,61025ae37ef11b136ea224fe,,,,,,,,,2603,48.5010376,-68.35461426,1,0,0,response3disk,,4,12.4453125,-2.76461792,1,0,0,rectangle,12.4453125,-2.76461792,1,0,0,12.4453125,-2.76461792,1,0,0,0,156,156,69,1,,,,,,,,
,,,,,,,,,,,,,FF,,,,,,,,1.400135,,,,,,,,,,,,,,,,,,,,,,60fe141b6ea6b56a60f5064d,61036964bc3d8dca65f5a60f,2021-07-29_22h55.21.656,Simcolourproject_2stim_asymm_v5,2020.2.10,Linux x86_64,60,61025ae37ef11b136ea224fe,,,,,,,,,622,32.27856445,66.12713623,1,0,0,response1disk,,7,5.172485352,-5.593109131,1,0,0,rectangle,5.172485352,-5.593109131,1,0,0,5.172485352,-5.593109131,1,0,0,0,157,157,150,1,,,,,,,,
,,,,,,,,,,,,,FF,,,,,,,,0.8168,,,,,,,,,,,,,,,,,,,,,,60fe141b6ea6b56a60f5064d,61036964bc3d8dca65f5a60f,2021-07-29_22h55.21.656,Simcolourproject_2stim_asymm_v5,2020.2.10,Linux x86_64,60,61025ae37ef11b136ea224fe,,,,,,,,,3836,31.66796875,70.3637085,1,0,0,response1disk,,7,11.29736328,-0.183776855,1,0,0,rectangle,11.29736328,-0.183776855,1,0,0,11.29736328,-0.183776855,1,0,0,0,158,158,5,1,,,,,,,,
,,,,,,,,,,,,,FF,,,,,,,,0.70022,,,,,,,,,,,,,,,,,,,,,,60fe141b6ea6b56a60f5064d,61036964bc3d8dca65f5a60f,2021-07-29_22h55.21.656,Simcolourproject_2stim_asymm_v5,2020.2.10,Linux x86_64,60,61025ae37ef11b136ea224fe,,,,,,,,,2846,37.85864258,79.85119629,1,0,0,response1disk,,7,2.81451416,10.62133789,1,0,0,rectangle,2.81451416,10.62133789,1,0,0,2.81451416,10.62133789,1,0,0,0,159,159,25,1,,,,,,,,
,,,,,,,,,,,,,FF,,,,,,,,1.550035,,,,,,,,,,,,,,,,,,,,,,60fe141b6ea6b56a60f5064d,61036964bc3d8dca65f5a60f,2021-07-29_22h55.21.656,Simcolourproject_2stim_asymm_v5,2020.2.10,Linux x86_64,60,61025ae37ef11b136ea224fe,,,,,,,,,164,-38.73236084,-103.4497986,1,0,0,response5disk,,3,12.55828857,-3.860992432,1,0,0,rectangle,12.55828857,-3.860992432,1,0,0,12.55828857,-3.860992432,1,0,0,1,0,160,33,1,,,,,,,,
,,,,,,,,,,,,,FF,,,,,,,,1.450245,,,,,,,,,,,,,,,,,,,,,,60fe141b6ea6b56a60f5064d,61036964bc3d8dca65f5a60f,2021-07-29_22h55.21.656,Simcolourproject_2stim_asymm_v5,2020.2.10,Linux x86_64,60,61025ae37ef11b136ea224fe,,,,,,,,,1682,24.65759277,-53.76519775,1,0,0,response3disk,,4,7.31036377,-2.528015137,1,0,0,rectangle,7.31036377,-2.528015137,1,0,0,7.31036377,-2.528015137,1,0,0,1,1,161,147,1,,,,,,,,
,,,,,,,,,,,,,FF,,,,,,,,0.983355,,,,,,,,,,,,,,,,,,,,,,60fe141b6ea6b56a60f5064d,61036964bc3d8dca65f5a60f,2021-07-29_22h55.21.656,Simcolourproject_2stim_asymm_v5,2020.2.10,Linux x86_64,60,61025ae37ef11b136ea224fe,,,,,,,,,2093,-30.75866699,77.72979736,1,0,0,response7disk,,0,12.42687988,-11.88366699,1,0,0,rectangle,12.42687988,-11.88366699,1,0,0,12.42687988,-11.88366699,1,0,0,1,2,162,108,1,,,,,,,,
,,,,,,,,,,,,,FF,,,,,,,,1.0004,,,,,,,,,,,,,,,,,,,,,,60fe141b6ea6b56a60f5064d,61036964bc3d8dca65f5a60f,2021-07-29_22h55.21.656,Simcolourproject_2stim_asymm_v5,2020.2.10,Linux x86_64,60,61025ae37ef11b136ea224fe,,,,,,,,,476,41.60461426,74.93615723,1,0,0,response1disk,,7,6.381530762,-6.758056641,1,0,0,rectangle,-68.56158447,46.07092285,1,0,0,-4.777770996,3.450469971,1,0,0,1,3,163,59,1,,response7disk_3,TRUE,1,1,"[9,186,180,17,81,36,295,170,321,298,19,164,118,192,241,171,2,36,271,42]",1.834415,rectangle
,,,,,,,,,,,,,FF,,,,,,,,2.033945,,,,,,,,,,,,,,,,,,,,,,60fe141b6ea6b56a60f5064d,61036964bc3d8dca65f5a60f,2021-07-29_22h55.21.656,Simcolourproject_2stim_asymm_v5,2020.2.10,Linux x86_64,60,61025ae37ef11b136ea224fe,,,,,,,,,2094,91.3772583,45.03076172,1,0,0,response1disk,,6,16.99456787,2.882263184,1,0,0,rectangle,16.99456787,2.882263184,1,0,0,16.99456787,2.882263184,1,0,0,1,4,164,100,1,,,,,,,,
,,,,,,,,,,,,,FF,,,,,,,,1.366845,,,,,,,,,,,,,,,,,,,,,,60fe141b6ea6b56a60f5064d,61036964bc3d8dca65f5a60f,2021-07-29_22h55.21.656,Simcolourproject_2stim_asymm_v5,2020.2.10,Linux x86_64,60,61025ae37ef11b136ea224fe,,,,,,,,,3611,27.50256348,72.25930786,1,0,0,response1disk,,7,8.164916992,2.380157471,1,0,0,rectangle,8.164916992,2.380157471,1,0,0,8.164916992,2.380157471,1,0,0,1,5,165,104,1,,,,,,,,
,,,,,,,,,,,,,FF,,,,,,,,0.750295,,,,,,,,,,,,,,,,,,,,,,60fe141b6ea6b56a60f5064d,61036964bc3d8dca65f5a60f,2021-07-29_22h55.21.656,Simcolourproject_2stim_asymm_v5,2020.2.10,Linux x86_64,60,61025ae37ef11b136ea224fe,,,,,,,,,3346,57.10839844,87.18231201,1,0,0,response1disk,,7,6.578369141,-7.031524658,1,0,0,rectangle,6.578369141,-7.031524658,1,0,0,6.578369141,-7.031524658,1,0,0,1,6,166,99,1,,,,,,,,
,,,,,,,,,,,,,FF,,,,,,,,1.316995,,,,,,,,,,,,,,,,,,,,,,60fe141b6ea6b56a60f5064d,61036964bc3d8dca65f5a60f,2021-07-29_22h55.21.656,Simcolourproject_2stim_asymm_v5,2020.2.10,Linux x86_64,60,61025ae37ef11b136ea224fe,,,,,,,,,2423,68.92730713,27.82324219,1,0,0,response1disk,,6,20.3772583,1.960174561,1,0,0,rectangle,20.3772583,1.960174561,1,0,0,20.3772583,1.960174561,1,0,0,1,7,167,44,1,,,,,,,,
,,,,,,,,,,,,,FF,,,,,,,,1.584575,,,,,,,,,,,,,,,,,,,,,,60fe141b6ea6b56a60f5064d,61036964bc3d8dca65f5a60f,2021-07-29_22h55.21.656,Simcolourproject_2stim_asymm_v5,2020.2.10,Linux x86_64,60,61025ae37ef11b136ea224fe,,,,,,,,,2374,53.86132813,104.9740601,1,0,0,response1disk,,7,17.07745361,-4.536346436,1,0,0,rectangle,17.07745361,-4.536346436,1,0,0,17.07745361,-4.536346436,1,0,0,1,8,168,76,1,,,,,,,,
,,,,,,,,,,,,,FF,,,,,,,,0.683545,,,,,,,,,,,,,,,,,,,,,,60fe141b6ea6b56a60f5064d,61036964bc3d8dca65f5a60f,2021-07-29_22h55.21.656,Simcolourproject_2stim_asymm_v5,2020.2.10,Linux x86_64,60,61025ae37ef11b136ea224fe,,,,,,,,,3414,33.29821777,82.5267334,1,0,0,response1disk,,7,11.97607422,-7.116760254,1,0,0,rectangle,-65.78027344,37.31835938,1,0,0,-1.178649902,-4.856933594,1,0,0,1,9,169,14,1,,response7disk_3,TRUE,1,1,"[9,186,180,17,81,36,295,170,321,298,19,164,118,192,241,171,2,36,271,42]",1.43467,rectangle
,,,,,,,,,,,,,FF,,,,,,,,1.033755,,,,,,,,,,,,,,,,,,,,,,60fe141b6ea6b56a60f5064d,61036964bc3d8dca65f5a60f,2021-07-29_22h55.21.656,Simcolourproject_2stim_asymm_v5,2020.2.10,Linux x86_64,60,61025ae37ef11b136ea224fe,,,,,,,,,363,47.46118164,80.28161621,1,0,0,response1disk,,7,5.70123291,-0.997924805,1,0,0,rectangle,73.87670898,40.2638855,1,0,0,-2.680908203,6.237365723,1,0,0,1,10,170,87,1,,response1disk_3,TRUE,6,6,"[9,186,180,17,81,36,295,170,321,298,19,164,118,192,241,171,2,36,271,42]",2.6997,rectangle
,,,,,,,,,,,,,FF,,,,,,,,1.25355,,,,,,,,,,,,,,,,,,,,,,60fe141b6ea6b56a60f5064d,61036964bc3d8dca65f5a60f,2021-07-29_22h55.21.656,Simcolourproject_2stim_asymm_v5,2020.2.10,Linux x86_64,60,61025ae37ef11b136ea224fe,,,,,,,,,2767,68.59442139,88.64920044,1,0,0,response1disk,,7,4.515686035,-11.17749023,1,0,0,rectangle,4.515686035,-11.17749023,1,0,0,4.515686035,-11.17749023,1,0,0,1,11,171,30,1,,,,,,,,
,,,,,,,,,,,,,FF,,,,,,,,1.08359,,,,,,,,,,,,,,,,,,,,,,60fe141b6ea6b56a60f5064d,61036964bc3d8dca65f5a60f,2021-07-29_22h55.21.656,Simcolourproject_2stim_asymm_v5,2020.2.10,Linux x86_64,60,61025ae37ef11b136ea224fe,,,,,,,,,4365,-47.51702881,75.69854736,1,0,0,response7disk,,0,4.052490234,-2.790130615,1,0,0,rectangle,4.052490234,-2.790130615,1,0,0,4.052490234,-2.790130615,1,0,0,1,12,172,52,1,,,,,,,,
,,,,,,,,,,,,,FF,,,,,,,,9.18221,,,,,,,,,,,,,,,,,,,,,,60fe141b6ea6b56a60f5064d,61036964bc3d8dca65f5a60f,2021-07-29_22h55.21.656,Simcolourproject_2stim_asymm_v5,2020.2.10,Linux x86_64,60,61025ae37ef11b136ea224fe,,,,,,,,,2372,56.93737793,86.83181763,1,0,0,response1disk,,7,-20.71191406,-13.0345459,1,0,0,rectangle,-20.71191406,-13.0345459,1,0,0,-20.71191406,-13.0345459,1,0,0,1,13,173,126,1,,,,,,,,
,,,,,,,,,,,,,FF,,,,,,,,1.25129,,,,,,,,,,,,,,,,,,,,,,60fe141b6ea6b56a60f5064d,61036964bc3d8dca65f5a60f,2021-07-29_22h55.21.656,Simcolourproject_2stim_asymm_v5,2020.2.10,Linux x86_64,60,61025ae37ef11b136ea224fe,,,,,,,,,3273,48.29418945,84.72180176,1,0,0,response1disk,,7,-15.2532959,-5.559997559,1,0,0,rectangle,-15.2532959,-5.559997559,1,0,0,-15.2532959,-5.559997559,1,0,0,1,14,174,130,1,,,,,,,,
,,,,,,,,,,,,,FF,,,,,,,,1.21646,,,,,,,,,,,,,,,,,,,,,,60fe141b6ea6b56a60f5064d,61036964bc3d8dca65f5a60f,2021-07-29_22h55.21.656,Simcolourproject_2stim_asymm_v5,2020.2.10,Linux x86_64,60,61025ae37ef11b136ea224fe,,,,,,,,,3088,35.83587646,77.55401611,1,0,0,response1disk,,7,9.825927734,2.585174561,1,0,0,rectangle,9.825927734,2.585174561,1,0,0,9.825927734,2.585174561,1,0,0,1,15,175,69,1,,,,,,,,
,,,,,,,,,,,,,FF,,,,,,,,2.48295,,,,,,,,,,,,,,,,,,,,,,60fe141b6ea6b56a60f5064d,61036964bc3d8dca65f5a60f,2021-07-29_22h55.21.656,Simcolourproject_2stim_asymm_v5,2020.2.10,Linux x86_64,60,61025ae37ef11b136ea224fe,,,,,,,,,820,41.46600342,74.56402588,1,0,0,response1disk,,7,-6.865600586,-1.90435791,1,0,0,rectangle,-6.865600586,-1.90435791,1,0,0,-6.865600586,-1.90435791,1,0,0,1,16,176,82,1,,,,,,,,
,,,,,,,,,,,,,FF,,,,,,,,1.31707,,,,,,,,,,,,,,,,,,,,,,60fe141b6ea6b56a60f5064d,61036964bc3d8dca65f5a60f,2021-07-29_22h55.21.656,Simcolourproject_2stim_asymm_v5,2020.2.10,Linux x86_64,60,61025ae37ef11b136ea224fe,,,,,,,,,171,-38.12689209,-80.51693726,1,0,0,response5disk,,3,-2.368103027,-6.332336426,1,0,0,rectangle,-2.368103027,-6.332336426,1,0,0,-2.368103027,-6.332336426,1,0,0,1,17,177,10,1,,,,,,,,
,,,,,,,,,,,,,FF,,,,,,,,2.53496,,,,,,,,,,,,,,,,,,,,,,60fe141b6ea6b56a60f5064d,61036964bc3d8dca65f5a60f,2021-07-29_22h55.21.656,Simcolourproject_2stim_asymm_v5,2020.2.10,Linux x86_64,60,61025ae37ef11b136ea224fe,,,,,,,,,4093,56.0869751,86.54473877,1,0,0,response1disk,,7,0.860046387,-2.82019043,1,0,0,rectangle,0.860046387,-2.82019043,1,0,0,0.860046387,-2.82019043,1,0,0,1,18,178,132,1,,,,,,,,
,,,,,,,,,,,,,FF,,,,,,,,2.26801,,,,,,,,,,,,,,,,,,,,,,60fe141b6ea6b56a60f5064d,61036964bc3d8dca65f5a60f,2021-07-29_22h55.21.656,Simcolourproject_2stim_asymm_v5,2020.2.10,Linux x86_64,60,61025ae37ef11b136ea224fe,,,,,,,,,4333,62.53924561,-30.48040771,1,0,0,response3disk,,5,14.39642334,-3.530700684,1,0,0,rectangle,99.85522461,-52.54470825,1,0,0,1.472229004,-4.419494629,1,0,0,1,19,179,19,1,,response3disk_3,TRUE,5,5,"[9,186,180,17,81,36,295,170,321,298,19,164,118,192,241,171,2,36,271,42]",4.54964,rectangle
,,,,,,,,,,,,,FF,,,,,,,,1.08398,,,,,,,,,,,,,,,,,,,,,,60fe141b6ea6b56a60f5064d,61036964bc3d8dca65f5a60f,2021-07-29_22h55.21.656,Simcolourproject_2stim_asymm_v5,2020.2.10,Linux x86_64,60,61025ae37ef11b136ea224fe,,,,,,,,,939,29.40252686,47.80447388,1,0,0,response1disk,,7,-3.674194336,-1.418273926,1,0,0,rectangle,-3.674194336,-1.418273926,1,0,0,-3.674194336,-1.418273926,1,0,0,1,20,180,60,1,,,,,,,,
,,,,,,,,,,,,,FF,,,,,,,,0.750215,,,,,,,,,,,,,,,,,,,,,,60fe141b6ea6b56a60f5064d,61036964bc3d8dca65f5a60f,2021-07-29_22h55.21.656,Simcolourproject_2stim_asymm_v5,2020.2.10,Linux x86_64,60,61025ae37ef11b136ea224fe,,,,,,,,,2461,37.19842529,72.57409668,1,0,0,response1disk,,7,1.929748535,-6.583007813,1,0,0,rectangle,1.929748535,-6.583007813,1,0,0,1.929748535,-6.583007813,1,0,0,1,21,181,38,1,,,,,,,,
,,,,,,,,,,,,,FF,,,,,,,,2.283545,,,,,,,,,,,,,,,,,,,,,,60fe141b6ea6b56a60f5064d,61036964bc3d8dca65f5a60f,2021-07-29_22h55.21.656,Simcolourproject_2stim_asymm_v5,2020.2.10,Linux x86_64,60,61025ae37ef11b136ea224fe,,,,,,,,,549,33.82965088,-89.25482178,1,0,0,response3disk,,4,-8.504577637,-6.66998291,1,0,0,rectangle,-8.504577637,-6.66998291,1,0,0,-8.504577637,-6.66998291,1,0,0,1,22,182,142,1,,,,,,,,
,,,,,,,,,,,,,FF,,,,,,,,1.10019,,,,,,,,,,,,,,,,,,,,,,60fe141b6ea6b56a60f5064d,61036964bc3d8dca65f5a60f,2021-07-29_22h55.21.656,Simcolourproject_2stim_asymm_v5,2020.2.10,Linux x86_64,60,61025ae37ef11b136ea224fe,,,,,,,,,3702,54.7701416,83.67340088,1,0,0,response1disk,,7,7.263244629,-3.326965332,1,0,0,rectangle,7.263244629,-3.326965332,1,0,0,7.263244629,-3.326965332,1,0,0,1,23,183,138,1,,,,,,,,
,,,,,,,,,,,,,FF,,,,,,,,1.95141,,,,,,,,,,,,,,,,,,,,,,60fe141b6ea6b56a60f5064d,61036964bc3d8dca65f5a60f,2021-07-29_22h55.21.656,Simcolourproject_2stim_asymm_v5,2020.2.10,Linux x86_64,60,61025ae37ef11b136ea224fe,,,,,,,,,1619,36.04046631,86.81784058,1,0,0,response1disk,,7,9.451293945,-0.043609619,1,0,0,rectangle,9.451293945,-0.043609619,1,0,0,9.451293945,-0.043609619,1,0,0,1,24,184,105,1,,,,,,,,
,,,,,,,,,,,,,FF,,,,,,,,1.48368,,,,,,,,,,,,,,,,,,,,,,60fe141b6ea6b56a60f5064d,61036964bc3d8dca65f5a60f,2021-07-29_22h55.21.656,Simcolourproject_2stim_asymm_v5,2020.2.10,Linux x86_64,60,61025ae37ef11b136ea224fe,,,,,,,,,612,53.4876709,105.8859863,1,0,0,response1disk,,7,9.738830566,-2.450469971,1,0,0,rectangle,60.32287598,109.6640625,1,0,0,10.36279297,-8.08984375,1,0,0,1,25,185,143,1,,response1disk_3,TRUE,7,7,"[9,186,180,17,81,36,295,170,321,298,19,164,118,192,241,171,2,36,271,42]",1.8503,rectangle
,,,,,,,,,,,,,FF,,,,,,,,0.90026,,,,,,,,,,,,,,,,,,,,,,60fe141b6ea6b56a60f5064d,61036964bc3d8dca65f5a60f,2021-07-29_22h55.21.656,Simcolourproject_2stim_asymm_v5,2020.2.10,Linux x86_64,60,61025ae37ef11b136ea224fe,,,,,,,,,1404,46.53881836,73.52386475,1,0,0,response1disk,,7,11.92169189,-1.726959229,1,0,0,rectangle,11.92169189,-1.726959229,1,0,0,11.92169189,-1.726959229,1,0,0,1,26,186,157,1,,,,,,,,
,,,,,,,,,,,,,FF,,,,,,,,2.39966,,,,,,,,,,,,,,,,,,,,,,60fe141b6ea6b56a60f5064d,61036964bc3d8dca65f5a60f,2021-07-29_22h55.21.656,Simcolourproject_2stim_asymm_v5,2020.2.10,Linux x86_64,60,61025ae37ef11b136ea224fe,,,,,,,,,3124,35.76403809,81.56613159,1,0,0,response1disk,,7,4.252319336,-2.297119141,1,0,0,rectangle,4.252319336,-2.297119141,1,0,0,4.252319336,-2.297119141,1,0,0,1,27,187,4,1,,,,,,,,
,,,,,,,,,,,,,FF,,,,,,,,0.950025,,,,,,,,,,,,,,,,,,,,,,60fe141b6ea6b56a60f5064d,61036964bc3d8dca65f5a60f,2021-07-29_22h55.21.656,Simcolourproject_2stim_asymm_v5,2020.2.10,Linux x86_64,60,61025ae37ef11b136ea224fe,,,,,,,,,1043,36.12353516,99.48190308,1,0,0,response1disk,,7,7.139587402,9.212341309,1,0,0,rectangle,7.139587402,9.212341309,1,0,0,7.139587402,9.212341309,1,0,0,1,28,188,21,1,,,,,,,,
,,,,,,,,,,,,,FF,,,,,,,,1.566395,,,,,,,,,,,,,,,,,,,,,,60fe141b6ea6b56a60f5064d,61036964bc3d8dca65f5a60f,2021-07-29_22h55.21.656,Simcolourproject_2stim_asymm_v5,2020.2.10,Linux x86_64,60,61025ae37ef11b136ea224fe,,,,,,,,,2621,30.88903809,84.07022095,1,0,0,response1disk,,7,5.616210938,-3.062011719,1,0,0,rectangle,5.616210938,-3.062011719,1,0,0,5.616210938,-3.062011719,1,0,0,1,29,189,58,1,,,,,,,,
,,,,,,,,,,,,,FF,,,,,,,,2.88329,,,,,,,,,,,,,,,,,,,,,,60fe141b6ea6b56a60f5064d,61036964bc3d8dca65f5a60f,2021-07-29_22h55.21.656,Simcolourproject_2stim_asymm_v5,2020.2.10,Linux x86_64,60,61025ae37ef11b136ea224fe,,,,,,,,,1686,41.3626709,101.312561,1,0,0,response1disk,,7,-1.13293457,-10.39926147,1,0,0,rectangle,-1.13293457,-10.39926147,1,0,0,-1.13293457,-10.39926147,1,0,0,1,30,190,72,1,,,,,,,,
,,,,,,,,,,,,,FF,,,,,,,,1.000015,,,,,,,,,,,,,,,,,,,,,,60fe141b6ea6b56a60f5064d,61036964bc3d8dca65f5a60f,2021-07-29_22h55.21.656,Simcolourproject_2stim_asymm_v5,2020.2.10,Linux x86_64,60,61025ae37ef11b136ea224fe,,,,,,,,,3142,34.32849121,73.4486084,1,0,0,response1disk,,7,0.291442871,-5.069580078,1,0,0,rectangle,-33.81567383,60.41409302,1,0,0,16.8414917,-2.5496521,1,0,0,1,31,191,140,1,,response7disk_3,TRUE,0,0,"[9,186,180,17,81,36,295,170,321,298,19,164,118,192,241,171,2,36,271,42]",2.03525,rectangle
,,,,,,,,,,,,,FF,,,,,,,,2.999975,,,,,,,,,,,,,,,,,,,,,,60fe141b6ea6b56a60f5064d,61036964bc3d8dca65f5a60f,2021-07-29_22h55.21.656,Simcolourproject_2stim_asymm_v5,2020.2.10,Linux x86_64,60,61025ae37ef11b136ea224fe,,,,,,,,,2070,36.18463135,74.20297241,1,0,0,response1disk,,7,7.039367676,-9.18963623,1,0,0,rectangle,7.039367676,-9.18963623,1,0,0,7.039367676,-9.18963623,1,0,0,1,32,192,134,1,,,,,,,,
,,,,,,,,,,,,,FF,,,,,,,,2.233765,,,,,,,,,,,,,,,,,,,,,,60fe141b6ea6b56a60f5064d,61036964bc3d8dca65f5a60f,2021-07-29_22h55.21.656,Simcolourproject_2stim_asymm_v5,2020.2.10,Linux x86_64,60,61025ae37ef11b136ea224fe,,,,,,,,,1824,66.64447021,-94.677948,1,0,0,response3disk,,4,0.03704834,-4.638153076,1,0,0,rectangle,0.03704834,-4.638153076,1,0,0,0.03704834,-4.638153076,1,0,0,1,33,193,135,1,,,,,,,,
,,,,,,,,,,,,,FF,,,,,,,,1.15142,,,,,,,,,,,,,,,,,,,,,,60fe141b6ea6b56a60f5064d,61036964bc3d8dca65f5a60f,2021-07-29_22h55.21.656,Simcolourproject_2stim_asymm_v5,2020.2.10,Linux x86_64,60,61025ae37ef11b136ea224fe,,,,,,,,,1623,41.92126465,100.3639832,1,0,0,response1disk,,7,9.561645508,0.943603516,1,0,0,rectangle,9.561645508,0.943603516,1,0,0,9.561645508,0.943603516,1,0,0,1,34,194,78,1,,,,,,,,
,,,,,,,,,,,,,FF,,,,,,,,0.88419,,,,,,,,,,,,,,,,,,,,,,60fe141b6ea6b56a60f5064d,61036964bc3d8dca65f5a60f,2021-07-29_22h55.21.656,Simcolourproject_2stim_asymm_v5,2020.2.10,Linux x86_64,60,61025ae37ef11b136ea224fe,,,,,,,,,4058,52.16021729,89.43832397,1,0,0,response1disk,,7,6.666687012,1.98425293,1,0,0,rectangle,6.666687012,1.98425293,1,0,0,6.666687012,1.98425293,1,0,0,1,35,195,8,1,,,,,,,,
,,,,,,,,,,,,,FF,,,,,,,,0.88303,,,,,,,,,,,,,,,,,,,,,,60fe141b6ea6b56a60f5064d,61036964bc3d8dca65f5a60f,2021-07-29_22h55.21.656,Simcolourproject_2stim_asymm_v5,2020.2.10,Linux x86_64,60,61025ae37ef11b136ea224fe,,,,,,,,,3001,49.17327881,92.75378418,1,0,0,response1disk,,7,6.669250488,-3.359924316,1,0,0,rectangle,6.669250488,-3.359924316,1,0,0,6.669250488,-3.359924316,1,0,0,1,36,196,67,1,,,,,,,,
,,,,,,,,,,,,,FF,,,,,,,,0.81847,,,,,,,,,,,,,,,,,,,,,,60fe141b6ea6b56a60f5064d,61036964bc3d8dca65f5a60f,2021-07-29_22h55.21.656,Simcolourproject_2stim_asymm_v5,2020.2.10,Linux x86_64,60,61025ae37ef11b136ea224fe,,,,,,,,,925,53.65893555,105.5169373,1,0,0,response1disk,,7,2.647827148,3.772918701,1,0,0,rectangle,2.647827148,3.772918701,1,0,0,2.647827148,3.772918701,1,0,0,1,37,197,90,1,,,,,,,,
,,,,,,,,,,,,,FF,,,,,,,,0.767135,,,,,,,,,,,,,,,,,,,,,,60fe141b6ea6b56a60f5064d,61036964bc3d8dca65f5a60f,2021-07-29_22h55.21.656,Simcolourproject_2stim_asymm_v5,2020.2.10,Linux x86_64,60,61025ae37ef11b136ea224fe,,,,,,,,,1434,36.50335693,70.09307861,1,0,0,response1disk,,7,4.125061035,11.58795166,1,0,0,rectangle,4.125061035,11.58795166,1,0,0,4.125061035,11.58795166,1,0,0,1,38,198,155,1,,,,,,,,
,,,,,,,,,,,,,FF,,,,,,,,0.96626,,,,,,,,,,,,,,,,,,,,,,60fe141b6ea6b56a60f5064d,61036964bc3d8dca65f5a60f,2021-07-29_22h55.21.656,Simcolourproject_2stim_asymm_v5,2020.2.10,Linux x86_64,60,61025ae37ef11b136ea224fe,,,,,,,,,2176,43.14129639,89.36495972,1,0,0,response1disk,,7,-3.202941895,-0.735687256,1,0,0,rectangle,-3.202941895,-0.735687256,1,0,0,-3.202941895,-0.735687256,1,0,0,1,39,199,53,1,,,,,,,,
,,,,,,,,,,,,,FF,,,,,,,,0.85096,,,,,,,,,,,,,,,,,,,,,,60fe141b6ea6b56a60f5064d,61036964bc3d8dca65f5a60f,2021-07-29_22h55.21.656,Simcolourproject_2stim_asymm_v5,2020.2.10,Linux x86_64,60,61025ae37ef11b136ea224fe,,,,,,,,,955,54.6572876,96.18759155,1,0,0,response1disk,,7,11.69360352,1.885467529,1,0,0,rectangle,11.69360352,1.885467529,1,0,0,11.69360352,1.885467529,1,0,0,1,40,200,113,1,,,,,,,,
,,,,,,,,,,,,,FF,,,,,,,,0.91707,,,,,,,,,,,,,,,,,,,,,,60fe141b6ea6b56a60f5064d,61036964bc3d8dca65f5a60f,2021-07-29_22h55.21.656,Simcolourproject_2stim_asymm_v5,2020.2.10,Linux x86_64,60,61025ae37ef11b136ea224fe,,,,,,,,,848,51.081604,84.75854492,1,0,0,response1disk,,7,8.819396973,-6.32232666,1,0,0,rectangle,8.819396973,-6.32232666,1,0,0,8.819396973,-6.32232666,1,0,0,1,41,201,56,1,,,,,,,,
,,,,,,,,,,,,,FF,,,,,,,,0.933365,,,,,,,,,,,,,,,,,,,,,,60fe141b6ea6b56a60f5064d,61036964bc3d8dca65f5a60f,2021-07-29_22h55.21.656,Simcolourproject_2stim_asymm_v5,2020.2.10,Linux x86_64,60,61025ae37ef11b136ea224fe,,,,,,,,,1769,42.48468018,86.35958862,1,0,0,response1disk,,7,2.318054199,-1.738189697,1,0,0,rectangle,2.318054199,-1.738189697,1,0,0,2.318054199,-1.738189697,1,0,0,1,42,202,110,1,,,,,,,,
,,,,,,,,,,,,,FF,,,,,,,,0.79969,,,,,,,,,,,,,,,,,,,,,,60fe141b6ea6b56a60f5064d,61036964bc3d8dca65f5a60f,2021-07-29_22h55.21.656,Simcolourproject_2stim_asymm_v5,2020.2.10,Linux x86_64,60,61025ae37ef11b136ea224fe,,,,,,,,,1647,42.62841797,78.76373291,1,0,0,response1disk,,7,2.033508301,11.54281616,1,0,0,rectangle,2.033508301,11.54281616,1,0,0,2.033508301,11.54281616,1,0,0,1,43,203,24,1,,,,,,,,
,,,,,,,,,,,,,FF,,,,,,,,0.96619,,,,,,,,,,,,,,,,,,,,,,60fe141b6ea6b56a60f5064d,61036964bc3d8dca65f5a60f,2021-07-29_22h55.21.656,Simcolourproject_2stim_asymm_v5,2020.2.10,Linux x86_64,60,61025ae37ef11b136ea224fe,,,,,,,,,742,45.78161621,95.60342407,1,0,0,response1disk,,7,10.39221191,-3.713012695,1,0,0,rectangle,10.39221191,-3.713012695,1,0,0,10.39221191,-3.713012695,1,0,0,1,44,204,146,1,,,,,,,,
,,,,,,,,,,,,,FF,,,,,,,,0.76755,,,,,,,,,,,,,,,,,,,,,,60fe141b6ea6b56a60f5064d,61036964bc3d8dca65f5a60f,2021-07-29_22h55.21.656,Simcolourproject_2stim_asymm_v5,2020.2.10,Linux x86_64,60,61025ae37ef11b136ea224fe,,,,,,,,,1368,-42.06689453,77.45092773,1,0,0,response7disk,,0,6.72668457,-5.848632813,1,0,0,rectangle,6.72668457,-5.848632813,1,0,0,6.72668457,-5.848632813,1,0,0,1,45,205,139,1,,,,,,,,
,,,,,,,,,,,,,FF,,,,,,,,0.716825,,,,,,,,,,,,,,,,,,,,,,60fe141b6ea6b56a60f5064d,61036964bc3d8dca65f5a60f,2021-07-29_22h55.21.656,Simcolourproject_2stim_asymm_v5,2020.2.10,Linux x86_64,60,61025ae37ef11b136ea224fe,,,,,,,,,3268,36.83081055,79.36608887,1,0,0,response1disk,,7,8.448791504,0.856506348,1,0,0,rectangle,8.448791504,0.856506348,1,0,0,8.448791504,0.856506348,1,0,0,1,46,206,16,1,,,,,,,,
,,,,,,,,,,,,,FF,,,,,,,,0.94997,,,,,,,,,,,,,,,,,,,,,,60fe141b6ea6b56a60f5064d,61036964bc3d8dca65f5a60f,2021-07-29_22h55.21.656,Simcolourproject_2stim_asymm_v5,2020.2.10,Linux x86_64,60,61025ae37ef11b136ea224fe,,,,,,,,,1147,43.83502197,85.71893311,1,0,0,response1disk,,7,-1.651733398,4.08581543,1,0,0,rectangle,-1.651733398,4.08581543,1,0,0,-1.651733398,4.08581543,1,0,0,1,47,207,102,1,,,,,,,,
,,,,,,,,,,,,,FF,,,,,,,,0.700505,,,,,,,,,,,,,,,,,,,,,,60fe141b6ea6b56a60f5064d,61036964bc3d8dca65f5a60f,2021-07-29_22h55.21.656,Simcolourproject_2stim_asymm_v5,2020.2.10,Linux x86_64,60,61025ae37ef11b136ea224fe,,,,,,,,,1163,47.98358154,90.36254883,1,0,0,response1disk,,7,3.565612793,4.703948975,1,0,0,rectangle,3.565612793,4.703948975,1,0,0,3.565612793,4.703948975,1,0,0,1,48,208,118,1,,,,,,,,
,,,,,,,,,,,,,FF,,,,,,,,1.01702,,,,,,,,,,,,,,,,,,,,,,60fe141b6ea6b56a60f5064d,61036964bc3d8dca65f5a60f,2021-07-29_22h55.21.656,Simcolourproject_2stim_asymm_v5,2020.2.10,Linux x86_64,60,61025ae37ef11b136ea224fe,,,,,,,,,3388,-61.39221191,104.1898499,1,0,0,response7disk,,0,8.514160156,-1.040435791,1,0,0,rectangle,8.514160156,-1.040435791,1,0,0,8.514160156,-1.040435791,1,0,0,1,49,209,25,1,,,,,,,,
,,,,,,,,,,,,,FF,,,,,,,,1.650085,,,,,,,,,,,,,,,,,,,,,,60fe141b6ea6b56a60f5064d,61036964bc3d8dca65f5a60f,2021-07-29_22h55.21.656,Simcolourproject_2stim_asymm_v5,2020.2.10,Linux x86_64,60,61025ae37ef11b136ea224fe,,,,,,,,,8,36.67492676,-78.74035645,1,0,0,response3disk,,4,3.295471191,-12.1625061,1,0,0,rectangle,3.295471191,-12.1625061,1,0,0,3.295471191,-12.1625061,1,0,0,1,50,210,50,1,,,,,,,,
,,,,,,,,,,,,,FF,,,,,,,,1.16691,,,,,,,,,,,,,,,,,,,,,,60fe141b6ea6b56a60f5064d,61036964bc3d8dca65f5a60f,2021-07-29_22h55.21.656,Simcolourproject_2stim_asymm_v5,2020.2.10,Linux x86_64,60,61025ae37ef11b136ea224fe,,,,,,,,,4101,64.01208496,92.59909058,1,0,0,response1disk,,7,6.197509766,4.749389648,1,0,0,rectangle,6.197509766,4.749389648,1,0,0,6.197509766,4.749389648,1,0,0,1,51,211,64,1,,,,,,,,
,,,,,,,,,,,,,FF,,,,,,,,1.83347,,,,,,,,,,,,,,,,,,,,,,60fe141b6ea6b56a60f5064d,61036964bc3d8dca65f5a60f,2021-07-29_22h55.21.656,Simcolourproject_2stim_asymm_v5,2020.2.10,Linux x86_64,60,61025ae37ef11b136ea224fe,,,,,,,,,1732,85.1083374,48.98797607,1,0,0,response1disk,,6,15.61700439,-2.879638672,1,0,0,rectangle,15.61700439,-2.879638672,1,0,0,15.61700439,-2.879638672,1,0,0,1,52,212,35,1,,,,,,,,
,,,,,,,,,,,,,FF,,,,,,,,1.100085,,,,,,,,,,,,,,,,,,,,,,60fe141b6ea6b56a60f5064d,61036964bc3d8dca65f5a60f,2021-07-29_22h55.21.656,Simcolourproject_2stim_asymm_v5,2020.2.10,Linux x86_64,60,61025ae37ef11b136ea224fe,,,,,,,,,2432,42.2434082,99.43450928,1,0,0,response1disk,,7,-1.240844727,-0.480529785,1,0,0,rectangle,-1.240844727,-0.480529785,1,0,0,-1.240844727,-0.480529785,1,0,0,1,53,213,148,1,,,,,,,,
,,,,,,,,,,,,,FF,,,,,,,,1.14941,,,,,,,,,,,,,,,,,,,,,,60fe141b6ea6b56a60f5064d,61036964bc3d8dca65f5a60f,2021-07-29_22h55.21.656,Simcolourproject_2stim_asymm_v5,2020.2.10,Linux x86_64,60,61025ae37ef11b136ea224fe,,,,,,,,,198,46.26593018,96.48052979,1,0,0,response1disk,,7,-3.140014648,5.958190918,1,0,0,rectangle,-3.140014648,5.958190918,1,0,0,-3.140014648,5.958190918,1,0,0,1,54,214,88,1,,,,,,,,
,,,,,,,,,,,,,FF,,,,,,,,0.78313,,,,,,,,,,,,,,,,,,,,,,60fe141b6ea6b56a60f5064d,61036964bc3d8dca65f5a60f,2021-07-29_22h55.21.656,Simcolourproject_2stim_asymm_v5,2020.2.10,Linux x86_64,60,61025ae37ef11b136ea224fe,,,,,,,,,125,42.1104126,61.85614014,1,0,0,response1disk,,7,7.117980957,-5.111022949,1,0,0,rectangle,7.117980957,-5.111022949,1,0,0,7.117980957,-5.111022949,1,0,0,1,55,215,79,1,,,,,,,,
,,,,,,,,,,,,,FF,,,,,,,,0.749635,,,,,,,,,,,,,,,,,,,,,,60fe141b6ea6b56a60f5064d,61036964bc3d8dca65f5a60f,2021-07-29_22h55.21.656,Simcolourproject_2stim_asymm_v5,2020.2.10,Linux x86_64,60,61025ae37ef11b136ea224fe,,,,,,,,,2918,38.89080811,82.01263428,1,0,0,response1disk,,7,1.187011719,-6.082336426,1,0,0,rectangle,1.187011719,-6.082336426,1,0,0,1.187011719,-6.082336426,1,0,0,1,56,216,45,1,,,,,,,,
,,,,,,,,,,,,,FF,,,,,,,,1.933385,,,,,,,,,,,,,,,,,,,,,,60fe141b6ea6b56a60f5064d,61036964bc3d8dca65f5a60f,2021-07-29_22h55.21.656,Simcolourproject_2stim_asymm_v5,2020.2.10,Linux x86_64,60,61025ae37ef11b136ea224fe,,,,,,,,,2194,37.40283203,74.01416016,1,0,0,response1disk,,7,11.91906738,6.065155029,1,0,0,rectangle,11.91906738,6.065155029,1,0,0,11.91906738,6.065155029,1,0,0,1,57,217,23,1,,,,,,,,
,,,,,,,,,,,,,FF,,,,,,,,1.95133,,,,,,,,,,,,,,,,,,,,,,60fe141b6ea6b56a60f5064d,61036964bc3d8dca65f5a60f,2021-07-29_22h55.21.656,Simcolourproject_2stim_asymm_v5,2020.2.10,Linux x86_64,60,61025ae37ef11b136ea224fe,,,,,,,,,2215,48.71337891,77.50839233,1,0,0,response1disk,,7,5.830688477,1.630554199,1,0,0,rectangle,5.830688477,1.630554199,1,0,0,5.830688477,1.630554199,1,0,0,1,58,218,51,1,,,,,,,,
,,,,,,,,,,,,,FF,,,,,,,,1.216925,,,,,,,,,,,,,,,,,,,,,,60fe141b6ea6b56a60f5064d,61036964bc3d8dca65f5a60f,2021-07-29_22h55.21.656,Simcolourproject_2stim_asymm_v5,2020.2.10,Linux x86_64,60,61025ae37ef11b136ea224fe,,,,,,,,,1932,45.48596191,83.94668579,1,0,0,response1disk,,7,1.729736328,3.604614258,1,0,0,rectangle,1.729736328,3.604614258,1,0,0,1.729736328,3.604614258,1,0,0,1,59,219,97,1,,,,,,,,
,,,,,,,,,,,,,FF,,,,,,,,2.74998,,,,,,,,,,,,,,,,,,,,,,60fe141b6ea6b56a60f5064d,61036964bc3d8dca65f5a60f,2021-07-29_22h55.21.656,Simcolourproject_2stim_asymm_v5,2020.2.10,Linux x86_64,60,61025ae37ef11b136ea224fe,,,,,,,,,2778,38.18756104,-98.82559204,1,0,0,response3disk,,4,3.586181641,-3.396453857,1,0,0,rectangle,3.586181641,-3.396453857,1,0,0,3.586181641,-3.396453857,1,0,0,1,60,220,18,1,,,,,,,,
,,,,,,,,,,,,,FF,,,,,,,,0.983645,,,,,,,,,,,,,,,,,,,,,,60fe141b6ea6b56a60f5064d,61036964bc3d8dca65f5a60f,2021-07-29_22h55.21.656,Simcolourproject_2stim_asymm_v5,2020.2.10,Linux x86_64,60,61025ae37ef11b136ea224fe,,,,,,,,,2239,34.87091064,-69.22543335,1,0,0,response3disk,,4,0.858154297,-11.61444092,1,0,0,rectangle,0.858154297,-11.61444092,1,0,0,0.858154297,-11.61444092,1,0,0,1,61,221,159,1,,,,,,,,
,,,,,,,,,,,,,FF,,,,,,,,1.23432,,,,,,,,,,,,,,,,,,,,,,60fe141b6ea6b56a60f5064d,61036964bc3d8dca65f5a60f,2021-07-29_22h55.21.656,Simcolourproject_2stim_asymm_v5,2020.2.10,Linux x86_64,60,61025ae37ef11b136ea224fe,,,,,,,,,830,64.40966797,104.4092102,1,0,0,response1disk,,7,3.983764648,3.310272217,1,0,0,rectangle,3.983764648,3.310272217,1,0,0,3.983764648,3.310272217,1,0,0,1,62,222,57,1,,,,,,,,
,,,,,,,,,,,,,FF,,,,,,,,0.78392,,,,,,,,,,,,,,,,,,,,,,60fe141b6ea6b56a60f5064d,61036964bc3d8dca65f5a60f,2021-07-29_22h55.21.656,Simcolourproject_2stim_asymm_v5,2020.2.10,Linux x86_64,60,61025ae37ef11b136ea224fe,,,,,,,,,3602,59.0357666,112.8999939,1,0,0,response1disk,,7,9.627502441,1.387359619,1,0,0,rectangle,9.627502441,1.387359619,1,0,0,9.627502441,1.387359619,1,0,0,1,63,223,2,1,,,,,,,,
,,,,,,,,,,,,,FF,,,,,,,,1.72474,,,,,,,,,,,,,,,,,,,,,,60fe141b6ea6b56a60f5064d,61036964bc3d8dca65f5a60f,2021-07-29_22h55.21.656,Simcolourproject_2stim_asymm_v5,2020.2.10,Linux x86_64,60,61025ae37ef11b136ea224fe,,,,,,,,,466,74.87213135,54.50674438,1,0,0,response1disk,,6,9.555908203,-2.877441406,1,0,0,rectangle,9.555908203,-2.877441406,1,0,0,9.555908203,-2.877441406,1,0,0,1,64,224,32,1,,,,,,,,
,,,,,,,,,,,,,FF,,,,,,,,0.950515,,,,,,,,,,,,,,,,,,,,,,60fe141b6ea6b56a60f5064d,61036964bc3d8dca65f5a60f,2021-07-29_22h55.21.656,Simcolourproject_2stim_asymm_v5,2020.2.10,Linux x86_64,60,61025ae37ef11b136ea224fe,,,,,,,,,819,44.45446777,82.40280151,1,0,0,response1disk,,7,-2.311218262,-3.250244141,1,0,0,rectangle,-2.311218262,-3.250244141,1,0,0,-2.311218262,-3.250244141,1,0,0,1,65,225,65,1,,,,,,,,
,,,,,,,,,,,,,FF,,,,,,,,1.16755,,,,,,,,,,,,,,,,,,,,,,60fe141b6ea6b56a60f5064d,61036964bc3d8dca65f5a60f,2021-07-29_22h55.21.656,Simcolourproject_2stim_asymm_v5,2020.2.10,Linux x86_64,60,61025ae37ef11b136ea224fe,,,,,,,,,1406,40.74053955,66.98669434,1,0,0,response1disk,,7,-1.221923828,4.511535645,1,0,0,rectangle,-1.221923828,4.511535645,1,0,0,-1.221923828,4.511535645,1,0,0,1,66,226,107,1,,,,,,,,
,,,,,,,,,,,,,FF,,,,,,,,0.93466,,,,,,,,,,,,,,,,,,,,,,60fe141b6ea6b56a60f5064d,61036964bc3d8dca65f5a60f,2021-07-29_22h55.21.656,Simcolourproject_2stim_asymm_v5,2020.2.10,Linux x86_64,60,61025ae37ef11b136ea224fe,,,,,,,,,420,43.48638916,97.39572144,1,0,0,response1disk,,7,4.017333984,-10.04281616,1,0,0,rectangle,4.017333984,-10.04281616,1,0,0,4.017333984,-10.04281616,1,0,0,1,67,227,47,1,,,,,,,,
,,,,,,,,,,,,,FF,,,,,,,,0.88306,,,,,,,,,,,,,,,,,,,,,,60fe141b6ea6b56a60f5064d,61036964bc3d8dca65f5a60f,2021-07-29_22h55.21.656,Simcolourproject_2stim_asymm_v5,2020.2.10,Linux x86_64,60,61025ae37ef11b136ea224fe,,,,,,,,,4176,28.72064209,54.56298828,1,0,0,response1disk,,7,5.732910156,2.032165527,1,0,0,rectangle,5.732910156,2.032165527,1,0,0,5.732910156,2.032165527,1,0,0,1,68,228,112,1,,,,,,,,
,,,,,,,,,,,,,FF,,,,,,,,0.70053,,,,,,,,,,,,,,,,,,,,,,60fe141b6ea6b56a60f5064d,61036964bc3d8dca65f5a60f,2021-07-29_22h55.21.656,Simcolourproject_2stim_asymm_v5,2020.2.10,Linux x86_64,60,61025ae37ef11b136ea224fe,,,,,,,,,4022,45.08746338,88.81134033,1,0,0,response1disk,,7,4.476745605,-1.624694824,1,0,0,rectangle,4.476745605,-1.624694824,1,0,0,4.476745605,-1.624694824,1,0,0,1,69,229,37,1,,,,,,,,
,,,,,,,,,,,,,FF,,,,,,,,2.93331,,,,,,,,,,,,,,,,,,,,,,60fe141b6ea6b56a60f5064d,61036964bc3d8dca65f5a60f,2021-07-29_22h55.21.656,Simcolourproject_2stim_asymm_v5,2020.2.10,Linux x86_64,60,61025ae37ef11b136ea224fe,,,,,,,,,192,32.42773438,-89.08032227,1,0,0,response3disk,,4,0.301330566,1.670898438,1,0,0,rectangle,0.301330566,1.670898438,1,0,0,0.301330566,1.670898438,1,0,0,1,70,230,61,1,,,,,,,,
,,,,,,,,,,,,,FF,,,,,,,,2.116775,,,,,,,,,,,,,,,,,,,,,,60fe141b6ea6b56a60f5064d,61036964bc3d8dca65f5a60f,2021-07-29_22h55.21.656,Simcolourproject_2stim_asymm_v5,2020.2.10,Linux x86_64,60,61025ae37ef11b136ea224fe,,,,,,,,,888,-34.16326904,-83.7795105,1,0,0,response5disk,,3,-10.10955811,-3.171112061,1,0,0,rectangle,-10.10955811,-3.171112061,1,0,0,-10.10955811,-3.171112061,1,0,0,1,71,231,158,1,,,,,,,,
,,,,,,,,,,,,,FF,,,,,,,,2.20128,,,,,,,,,,,,,,,,,,,,,,60fe141b6ea6b56a60f5064d,61036964bc3d8dca65f5a60f,2021-07-29_22h55.21.656,Simcolourproject_2stim_asymm_v5,2020.2.10,Linux x86_64,60,61025ae37ef11b136ea224fe,,,,,,,,,2217,68.67681885,-44.05963135,1,0,0,response3disk,,5,4.603881836,3.791381836,1,0,0,rectangle,4.603881836,3.791381836,1,0,0,4.603881836,3.791381836,1,0,0,1,72,232,154,1,,,,,,,,
,,,,,,,,,,,,,FF,,,,,,,,1.468,,,,,,,,,,,,,,,,,,,,,,60fe141b6ea6b56a60f5064d,61036964bc3d8dca65f5a60f,2021-07-29_22h55.21.656,Simcolourproject_2stim_asymm_v5,2020.2.10,Linux x86_64,60,61025ae37ef11b136ea224fe,,,,,,,,,1890,48.12493896,-94.32510376,1,0,0,response3disk,,4,7.411010742,-0.19241333,1,0,0,rectangle,7.411010742,-0.19241333,1,0,0,7.411010742,-0.19241333,1,0,0,1,73,233,128,1,,,,,,,,
,,,,,,,,,,,,,FF,,,,,,,,0.950595,,,,,,,,,,,,,,,,,,,,,,60fe141b6ea6b56a60f5064d,61036964bc3d8dca65f5a60f,2021-07-29_22h55.21.656,Simcolourproject_2stim_asymm_v5,2020.2.10,Linux x86_64,60,61025ae37ef11b136ea224fe,,,,,,,,,1963,-43.82525635,87.95996094,1,0,0,response7disk,,0,6.236633301,-1.737335205,1,0,0,rectangle,6.236633301,-1.737335205,1,0,0,6.236633301,-1.737335205,1,0,0,1,74,234,11,1,,,,,,,,
,,,,,,,,,,,,,FF,,,,,,,,1.000335,,,,,,,,,,,,,,,,,,,,,,60fe141b6ea6b56a60f5064d,61036964bc3d8dca65f5a60f,2021-07-29_22h55.21.656,Simcolourproject_2stim_asymm_v5,2020.2.10,Linux x86_64,60,61025ae37ef11b136ea224fe,,,,,,,,,310,38.76300049,68.12329102,1,0,0,response1disk,,7,1.34564209,4.330383301,1,0,0,rectangle,1.34564209,4.330383301,1,0,0,1.34564209,4.330383301,1,0,0,1,75,235,17,1,,,,,,,,
,,,,,,,,,,,,,FF,,,,,,,,0.81758,,,,,,,,,,,,,,,,,,,,,,60fe141b6ea6b56a60f5064d,61036964bc3d8dca65f5a60f,2021-07-29_22h55.21.656,Simcolourproject_2stim_asymm_v5,2020.2.10,Linux x86_64,60,61025ae37ef11b136ea224fe,,,,,,,,,3936,-38.59216309,70.0007019,1,0,0,response7disk,,0,6.961730957,-7.57913208,1,0,0,rectangle,6.961730957,-7.57913208,1,0,0,6.961730957,-7.57913208,1,0,0,1,76,236,119,1,,,,,,,,
,,,,,,,,,,,,,FF,,,,,,,,0.849995,,,,,,,,,,,,,,,,,,,,,,60fe141b6ea6b56a60f5064d,61036964bc3d8dca65f5a60f,2021-07-29_22h55.21.656,Simcolourproject_2stim_asymm_v5,2020.2.10,Linux x86_64,60,61025ae37ef11b136ea224fe,,,,,,,,,243,42.39819336,77.59979248,1,0,0,response1disk,,7,0.896972656,-2.471038818,1,0,0,rectangle,0.896972656,-2.471038818,1,0,0,0.896972656,-2.471038818,1,0,0,1,77,237,123,1,,,,,,,,
,,,,,,,,,,,,,FF,,,,,,,,1.233975,,,,,,,,,,,,,,,,,,,,,,60fe141b6ea6b56a60f5064d,61036964bc3d8dca65f5a60f,2021-07-29_22h55.21.656,Simcolourproject_2stim_asymm_v5,2020.2.10,Linux x86_64,60,61025ae37ef11b136ea224fe,,,,,,,,,983,53.30712891,93.33956909,1,0,0,response1disk,,7,0.338256836,-2.04498291,1,0,0,rectangle,0.338256836,-2.04498291,1,0,0,0.338256836,-2.04498291,1,0,0,1,78,238,71,1,,,,,,,,
