key_resp.keys,key_resp.rt,key_resp_14.keys,key_resp_14.rt,key_resp_15.keys,key_resp_15.rt,key_resp_17.keys,key_resp_17.rt,key_resp_9.keys,key_resp_9.rt,key_resp_10.keys,key_resp_10.rt,practice_comparison,Ecc,mouse_5.x,mouse_5.y,mouse_5.leftButton,mouse_5.midButton,mouse_5.rightButton,mouse_5.clicked_name,pracsimilarity,response_time,mouse_10.x,mouse_10.y,mouse_10.leftButton,mouse_10.midButton,mouse_10.rightButton,mouse_10.clicked_name,mouse_7.x,mouse_7.y,mouse_7.leftButton,mouse_7.midButton,mouse_7.rightButton,mouse_6.x,mouse_6.y,mouse_6.leftButton,mouse_6.midButton,mouse_6.rightButton,duringprac.thisRepN,duringprac.thisTrialN,duringprac.thisN,duringprac.thisIndex,duringprac.ran,participant,session,date,expName,psychopyVersion,OS,frameRate,study_id,mouse_7.clicked_name,catchpracsimilarity,catch_response_time,catchnumberprac,catchtrialorderprac,mouse_6.clicked_name,key_resp_22.keys,key_resp_22.rt,realcomparison,mouse.x,mouse.y,mouse.leftButton,mouse.midButton,mouse.rightButton,mouse.clicked_name,Colour2,similarity,mouse_2.x,mouse_2.y,mouse_2.leftButton,mouse_2.midButton,mouse_2.rightButton,mouse_2.clicked_name,mouse_3.x,mouse_3.y,mouse_3.leftButton,mouse_3.midButton,mouse_3.rightButton,mouse_11.x,mouse_11.y,mouse_11.leftButton,mouse_11.midButton,mouse_11.rightButton,trials_2.thisRepN,trials_2.thisTrialN,trials_2.thisN,trials_2.thisIndex,trials_2.ran,Colour1,mouse_3.clicked_name,catchornah,catchsimilarity,catchnumber,catchtrialorder,catchRT,mouse_11.clicked_name
space,27.1462,space,10.0644,space,12.3738,space,7.2731,space,5.7034,space,60.0177,118,FF,69,-46,1,0,0,response3disk_5,5,10.4016,13,0,1,0,0,rectangle_8,13,0,1,0,0,13,0,1,0,0,0,0,0,0,1,60fe1a7271f4d1a459e0fd5e,61036d1894c7d8bd8f5eab71,2021-07-29_22h09.17.227,Simcolourproject_2stim_asymm_v5,2020.2.10,Win32,60,61025ae37ef11b136ea224fe,,,,,,,,,,,,,,,,,,,,,,,,,,,,,,,,,,,,,,,,,,,,,,
,,,,,,,,,,,,121,PF,28,69,1,0,0,response1disk_5,7,3.2471,10,6,1,0,0,rectangle_8,-90,38,1,0,0,9,-4,1,0,0,0,1,1,2,1,60fe1a7271f4d1a459e0fd5e,61036d1894c7d8bd8f5eab71,2021-07-29_22h09.17.227,Simcolourproject_2stim_asymm_v5,2020.2.10,Win32,60,61025ae37ef11b136ea224fe,response7disk_7,1,4.3613,1,"[2,5]",rectangle_4,,,,,,,,,,,,,,,,,,,,,,,,,,,,,,,,,,,,,,,,
,,,,,,,,,,,,99,FF,30,73,1,0,0,response1disk_5,7,3.2972,-3,3,1,0,0,rectangle_8,-3,3,1,0,0,-3,3,1,0,0,0,2,2,3,1,60fe1a7271f4d1a459e0fd5e,61036d1894c7d8bd8f5eab71,2021-07-29_22h09.17.227,Simcolourproject_2stim_asymm_v5,2020.2.10,Win32,60,61025ae37ef11b136ea224fe,,,,,,,,,,,,,,,,,,,,,,,,,,,,,,,,,,,,,,,,,,,,,,
,,,,,,,,,,,,65,FF,21,82,1,0,0,response1disk_5,7,1.6324,4,7,1,0,0,rectangle_8,4,7,1,0,0,4,7,1,0,0,0,3,3,5,1,60fe1a7271f4d1a459e0fd5e,61036d1894c7d8bd8f5eab71,2021-07-29_22h09.17.227,Simcolourproject_2stim_asymm_v5,2020.2.10,Win32,60,61025ae37ef11b136ea224fe,,,,,,,,,,,,,,,,,,,,,,,,,,,,,,,,,,,,,,,,,,,,,,
,,,,,,,,,,,,100,PF,42,86,1,0,0,response1disk_5,7,1.2653,-12,-4,1,0,0,rectangle_8,-71,31,1,0,0,-4,-9,1,0,0,0,4,4,6,1,60fe1a7271f4d1a459e0fd5e,61036d1894c7d8bd8f5eab71,2021-07-29_22h09.17.227,Simcolourproject_2stim_asymm_v5,2020.2.10,Win32,60,61025ae37ef11b136ea224fe,response7disk_7,1,3.5309,1,"[2,5]",rectangle_4,,,,,,,,,,,,,,,,,,,,,,,,,,,,,,,,,,,,,,,,
,,,,,,,,,,,,130,PF,66,-38,1,0,0,response3disk_5,5,3.6455,10,-3,1,0,0,rectangle_8,10,-3,1,0,0,10,-3,1,0,0,0,5,5,1,1,60fe1a7271f4d1a459e0fd5e,61036d1894c7d8bd8f5eab71,2021-07-29_22h09.17.227,Simcolourproject_2stim_asymm_v5,2020.2.10,Win32,60,61025ae37ef11b136ea224fe,,,,,,,,,,,,,,,,,,,,,,,,,,,,,,,,,,,,,,,,,,,,,,
,,,,,,,,,,,,102,PF,26,70,1,0,0,response1disk_5,7,2.6148,7,1,1,0,0,rectangle_8,7,1,1,0,0,7,1,1,0,0,0,6,6,4,1,60fe1a7271f4d1a459e0fd5e,61036d1894c7d8bd8f5eab71,2021-07-29_22h09.17.227,Simcolourproject_2stim_asymm_v5,2020.2.10,Win32,60,61025ae37ef11b136ea224fe,,,,,,,,,,,,,,,,,,,,,,,,,,,,,,,,,,,,,,,,,,,,,,
,,,,,,,,,,,,,FF,,,,,,,,3.0482,,,,,,,,,,,,,,,,,,,,,,60fe1a7271f4d1a459e0fd5e,61036d1894c7d8bd8f5eab71,2021-07-29_22h09.17.227,Simcolourproject_2stim_asymm_v5,2020.2.10,Win32,60,61025ae37ef11b136ea224fe,,,,,,,space,4.6868,4327,85,46,1,0,0,response1disk,,6,13,14,1,0,0,rectangle,13,14,1,0,0,13,14,1,0,0,0,0,0,1,1,,,,,,,,
,,,,,,,,,,,,,FF,,,,,,,,1.8317,,,,,,,,,,,,,,,,,,,,,,60fe1a7271f4d1a459e0fd5e,61036d1894c7d8bd8f5eab71,2021-07-29_22h09.17.227,Simcolourproject_2stim_asymm_v5,2020.2.10,Win32,60,61025ae37ef11b136ea224fe,,,,,,,,,1229,44,80,1,0,0,response1disk,,7,8,-1,1,0,0,rectangle,-37,90,1,0,0,-12,12,1,0,0,0,1,1,76,1,,response7disk_3,TRUE,0,0,"[42,194,315,282,280,198,176,2,181,242,15,144,49,229,306,176,147,170,76,235]",2.686,rectangle
,,,,,,,,,,,,,FF,,,,,,,,2.0154,,,,,,,,,,,,,,,,,,,,,,60fe1a7271f4d1a459e0fd5e,61036d1894c7d8bd8f5eab71,2021-07-29_22h09.17.227,Simcolourproject_2stim_asymm_v5,2020.2.10,Win32,60,61025ae37ef11b136ea224fe,,,,,,,,,4362,-39,-69,1,0,0,response5disk,,3,-3,-2,1,0,0,rectangle,-3,-2,1,0,0,-3,-2,1,0,0,0,2,2,6,1,,,,,,,,
,,,,,,,,,,,,,FF,,,,,,,,1.2822,,,,,,,,,,,,,,,,,,,,,,60fe1a7271f4d1a459e0fd5e,61036d1894c7d8bd8f5eab71,2021-07-29_22h09.17.227,Simcolourproject_2stim_asymm_v5,2020.2.10,Win32,60,61025ae37ef11b136ea224fe,,,,,,,,,1479,46,84,1,0,0,response1disk,,7,-4,6,1,0,0,rectangle,-4,6,1,0,0,-4,6,1,0,0,0,3,3,150,1,,,,,,,,
,,,,,,,,,,,,,FF,,,,,,,,2.3982,,,,,,,,,,,,,,,,,,,,,,60fe1a7271f4d1a459e0fd5e,61036d1894c7d8bd8f5eab71,2021-07-29_22h09.17.227,Simcolourproject_2stim_asymm_v5,2020.2.10,Win32,60,61025ae37ef11b136ea224fe,,,,,,,,,1489,23,59,1,0,0,response1disk,,7,-1,1,1,0,0,rectangle,-1,1,1,0,0,-1,1,1,0,0,0,4,4,63,1,,,,,,,,
,,,,,,,,,,,,,FF,,,,,,,,1.199,,,,,,,,,,,,,,,,,,,,,,60fe1a7271f4d1a459e0fd5e,61036d1894c7d8bd8f5eab71,2021-07-29_22h09.17.227,Simcolourproject_2stim_asymm_v5,2020.2.10,Win32,60,61025ae37ef11b136ea224fe,,,,,,,,,570,50,91,1,0,0,response1disk,,7,13,7,1,0,0,rectangle,13,7,1,0,0,13,7,1,0,0,0,5,5,46,1,,,,,,,,
,,,,,,,,,,,,,FF,,,,,,,,1.7818,,,,,,,,,,,,,,,,,,,,,,60fe1a7271f4d1a459e0fd5e,61036d1894c7d8bd8f5eab71,2021-07-29_22h09.17.227,Simcolourproject_2stim_asymm_v5,2020.2.10,Win32,60,61025ae37ef11b136ea224fe,,,,,,,,,2300,46,-75,1,0,0,response3disk,,4,-5,-9,1,0,0,rectangle,-5,-9,1,0,0,-5,-9,1,0,0,0,6,6,124,1,,,,,,,,
,,,,,,,,,,,,,FF,,,,,,,,1.1495,,,,,,,,,,,,,,,,,,,,,,60fe1a7271f4d1a459e0fd5e,61036d1894c7d8bd8f5eab71,2021-07-29_22h09.17.227,Simcolourproject_2stim_asymm_v5,2020.2.10,Win32,60,61025ae37ef11b136ea224fe,,,,,,,,,624,39,78,1,0,0,response1disk,,7,6,4,1,0,0,rectangle,6,4,1,0,0,6,4,1,0,0,0,7,7,56,1,,,,,,,,
,,,,,,,,,,,,,FF,,,,,,,,1.2163,,,,,,,,,,,,,,,,,,,,,,60fe1a7271f4d1a459e0fd5e,61036d1894c7d8bd8f5eab71,2021-07-29_22h09.17.227,Simcolourproject_2stim_asymm_v5,2020.2.10,Win32,60,61025ae37ef11b136ea224fe,,,,,,,,,3430,47,92,1,0,0,response1disk,,7,7,5,1,0,0,rectangle,7,5,1,0,0,7,5,1,0,0,0,8,8,38,1,,,,,,,,
,,,,,,,,,,,,,FF,,,,,,,,1.2675,,,,,,,,,,,,,,,,,,,,,,60fe1a7271f4d1a459e0fd5e,61036d1894c7d8bd8f5eab71,2021-07-29_22h09.17.227,Simcolourproject_2stim_asymm_v5,2020.2.10,Win32,60,61025ae37ef11b136ea224fe,,,,,,,,,558,32,85,1,0,0,response1disk,,7,-1,-4,1,0,0,rectangle,-1,-4,1,0,0,-1,-4,1,0,0,0,9,9,84,1,,,,,,,,
,,,,,,,,,,,,,FF,,,,,,,,1.2814,,,,,,,,,,,,,,,,,,,,,,60fe1a7271f4d1a459e0fd5e,61036d1894c7d8bd8f5eab71,2021-07-29_22h09.17.227,Simcolourproject_2stim_asymm_v5,2020.2.10,Win32,60,61025ae37ef11b136ea224fe,,,,,,,,,3823,30,61,1,0,0,response1disk,,7,9,-2,1,0,0,rectangle,9,-2,1,0,0,9,-2,1,0,0,0,10,10,123,1,,,,,,,,
,,,,,,,,,,,,,FF,,,,,,,,1.1518,,,,,,,,,,,,,,,,,,,,,,60fe1a7271f4d1a459e0fd5e,61036d1894c7d8bd8f5eab71,2021-07-29_22h09.17.227,Simcolourproject_2stim_asymm_v5,2020.2.10,Win32,60,61025ae37ef11b136ea224fe,,,,,,,,,2114,23,68,1,0,0,response1disk,,7,-3,-3,1,0,0,rectangle,-3,-3,1,0,0,-3,-3,1,0,0,0,11,11,97,1,,,,,,,,
,,,,,,,,,,,,,FF,,,,,,,,1.4372,,,,,,,,,,,,,,,,,,,,,,60fe1a7271f4d1a459e0fd5e,61036d1894c7d8bd8f5eab71,2021-07-29_22h09.17.227,Simcolourproject_2stim_asymm_v5,2020.2.10,Win32,60,61025ae37ef11b136ea224fe,,,,,,,,,3566,34,87,1,0,0,response1disk,,7,-4,5,1,0,0,rectangle,-4,5,1,0,0,-4,5,1,0,0,0,12,12,5,1,,,,,,,,
,,,,,,,,,,,,,FF,,,,,,,,1.1705,,,,,,,,,,,,,,,,,,,,,,60fe1a7271f4d1a459e0fd5e,61036d1894c7d8bd8f5eab71,2021-07-29_22h09.17.227,Simcolourproject_2stim_asymm_v5,2020.2.10,Win32,60,61025ae37ef11b136ea224fe,,,,,,,,,2969,40,76,1,0,0,response1disk,,7,7,7,1,0,0,rectangle,7,7,1,0,0,7,7,1,0,0,0,13,13,9,1,,,,,,,,
,,,,,,,,,,,,,FF,,,,,,,,1.1664,,,,,,,,,,,,,,,,,,,,,,60fe1a7271f4d1a459e0fd5e,61036d1894c7d8bd8f5eab71,2021-07-29_22h09.17.227,Simcolourproject_2stim_asymm_v5,2020.2.10,Win32,60,61025ae37ef11b136ea224fe,,,,,,,,,2538,59,93,1,0,0,response1disk,,7,22,-7,1,0,0,rectangle,-85,50,1,0,0,5,-4,1,0,0,0,14,14,30,1,,response7disk_3,TRUE,1,1,"[42,194,315,282,280,198,176,2,181,242,15,144,49,229,306,176,147,170,76,235]",2.4811,rectangle
,,,,,,,,,,,,,FF,,,,,,,,4.266,,,,,,,,,,,,,,,,,,,,,,60fe1a7271f4d1a459e0fd5e,61036d1894c7d8bd8f5eab71,2021-07-29_22h09.17.227,Simcolourproject_2stim_asymm_v5,2020.2.10,Win32,60,61025ae37ef11b136ea224fe,,,,,,,,,4099,94,-34,1,0,0,response3disk,,5,19,5,1,0,0,rectangle,19,5,1,0,0,19,5,1,0,0,0,15,15,108,1,,,,,,,,
,,,,,,,,,,,,,FF,,,,,,,,1.9656,,,,,,,,,,,,,,,,,,,,,,60fe1a7271f4d1a459e0fd5e,61036d1894c7d8bd8f5eab71,2021-07-29_22h09.17.227,Simcolourproject_2stim_asymm_v5,2020.2.10,Win32,60,61025ae37ef11b136ea224fe,,,,,,,,,1151,37,65,1,0,0,response1disk,,7,5,-10,1,0,0,rectangle,5,-10,1,0,0,5,-10,1,0,0,0,16,16,87,1,,,,,,,,
,,,,,,,,,,,,,FF,,,,,,,,6.4451,,,,,,,,,,,,,,,,,,,,,,60fe1a7271f4d1a459e0fd5e,61036d1894c7d8bd8f5eab71,2021-07-29_22h09.17.227,Simcolourproject_2stim_asymm_v5,2020.2.10,Win32,60,61025ae37ef11b136ea224fe,,,,,,,,,291,30,91,1,0,0,response1disk,,7,-8,6,1,0,0,rectangle,-8,6,1,0,0,-8,6,1,0,0,0,17,17,39,1,,,,,,,,
,,,,,,,,,,,,,FF,,,,,,,,1.6491,,,,,,,,,,,,,,,,,,,,,,60fe1a7271f4d1a459e0fd5e,61036d1894c7d8bd8f5eab71,2021-07-29_22h09.17.227,Simcolourproject_2stim_asymm_v5,2020.2.10,Win32,60,61025ae37ef11b136ea224fe,,,,,,,,,482,22,64,1,0,0,response1disk,,7,-2,8,1,0,0,rectangle,-2,8,1,0,0,-2,8,1,0,0,0,18,18,96,1,,,,,,,,
,,,,,,,,,,,,,FF,,,,,,,,3.7965,,,,,,,,,,,,,,,,,,,,,,60fe1a7271f4d1a459e0fd5e,61036d1894c7d8bd8f5eab71,2021-07-29_22h09.17.227,Simcolourproject_2stim_asymm_v5,2020.2.10,Win32,60,61025ae37ef11b136ea224fe,,,,,,,,,1897,68,33,1,0,0,response1disk,,6,16,1,1,0,0,rectangle,16,1,1,0,0,16,1,1,0,0,0,19,19,125,1,,,,,,,,
,,,,,,,,,,,,,FF,,,,,,,,1.1661,,,,,,,,,,,,,,,,,,,,,,60fe1a7271f4d1a459e0fd5e,61036d1894c7d8bd8f5eab71,2021-07-29_22h09.17.227,Simcolourproject_2stim_asymm_v5,2020.2.10,Win32,60,61025ae37ef11b136ea224fe,,,,,,,,,2354,35,52,1,0,0,response1disk,,7,-5,6,1,0,0,rectangle,-5,6,1,0,0,-5,6,1,0,0,0,20,20,50,1,,,,,,,,
,,,,,,,,,,,,,FF,,,,,,,,1.9329,,,,,,,,,,,,,,,,,,,,,,60fe1a7271f4d1a459e0fd5e,61036d1894c7d8bd8f5eab71,2021-07-29_22h09.17.227,Simcolourproject_2stim_asymm_v5,2020.2.10,Win32,60,61025ae37ef11b136ea224fe,,,,,,,,,1678,28,88,1,0,0,response1disk,,7,8,10,1,0,0,rectangle,8,10,1,0,0,8,10,1,0,0,0,21,21,129,1,,,,,,,,
,,,,,,,,,,,,,FF,,,,,,,,1.7655,,,,,,,,,,,,,,,,,,,,,,60fe1a7271f4d1a459e0fd5e,61036d1894c7d8bd8f5eab71,2021-07-29_22h09.17.227,Simcolourproject_2stim_asymm_v5,2020.2.10,Win32,60,61025ae37ef11b136ea224fe,,,,,,,,,4040,25,59,1,0,0,response1disk,,7,-1,10,1,0,0,rectangle,-1,10,1,0,0,-1,10,1,0,0,0,22,22,86,1,,,,,,,,
,,,,,,,,,,,,,FF,,,,,,,,1.8985,,,,,,,,,,,,,,,,,,,,,,60fe1a7271f4d1a459e0fd5e,61036d1894c7d8bd8f5eab71,2021-07-29_22h09.17.227,Simcolourproject_2stim_asymm_v5,2020.2.10,Win32,60,61025ae37ef11b136ea224fe,,,,,,,,,612,25,87,1,0,0,response1disk,,7,-7,3,1,0,0,rectangle,-7,3,1,0,0,-7,3,1,0,0,0,23,23,47,1,,,,,,,,
,,,,,,,,,,,,,FF,,,,,,,,3.3975,,,,,,,,,,,,,,,,,,,,,,60fe1a7271f4d1a459e0fd5e,61036d1894c7d8bd8f5eab71,2021-07-29_22h09.17.227,Simcolourproject_2stim_asymm_v5,2020.2.10,Win32,60,61025ae37ef11b136ea224fe,,,,,,,,,2847,31,66,1,0,0,response1disk,,7,-4,9,1,0,0,rectangle,-4,9,1,0,0,-4,9,1,0,0,0,24,24,119,1,,,,,,,,
,,,,,,,,,,,,,FF,,,,,,,,1.2331,,,,,,,,,,,,,,,,,,,,,,60fe1a7271f4d1a459e0fd5e,61036d1894c7d8bd8f5eab71,2021-07-29_22h09.17.227,Simcolourproject_2stim_asymm_v5,2020.2.10,Win32,60,61025ae37ef11b136ea224fe,,,,,,,,,926,31,52,1,0,0,response1disk,,7,9,2,1,0,0,rectangle,9,2,1,0,0,9,2,1,0,0,0,25,25,137,1,,,,,,,,
,,,,,,,,,,,,,FF,,,,,,,,1.2984,,,,,,,,,,,,,,,,,,,,,,60fe1a7271f4d1a459e0fd5e,61036d1894c7d8bd8f5eab71,2021-07-29_22h09.17.227,Simcolourproject_2stim_asymm_v5,2020.2.10,Win32,60,61025ae37ef11b136ea224fe,,,,,,,,,1163,43,77,1,0,0,response1disk,,7,14,6,1,0,0,rectangle,14,6,1,0,0,14,6,1,0,0,0,26,26,122,1,,,,,,,,
,,,,,,,,,,,,,FF,,,,,,,,1.1138,,,,,,,,,,,,,,,,,,,,,,60fe1a7271f4d1a459e0fd5e,61036d1894c7d8bd8f5eab71,2021-07-29_22h09.17.227,Simcolourproject_2stim_asymm_v5,2020.2.10,Win32,60,61025ae37ef11b136ea224fe,,,,,,,,,1636,27,53,1,0,0,response1disk,,7,-2,6,1,0,0,rectangle,-2,6,1,0,0,-2,6,1,0,0,0,27,27,17,1,,,,,,,,
,,,,,,,,,,,,,FF,,,,,,,,3.6676,,,,,,,,,,,,,,,,,,,,,,60fe1a7271f4d1a459e0fd5e,61036d1894c7d8bd8f5eab71,2021-07-29_22h09.17.227,Simcolourproject_2stim_asymm_v5,2020.2.10,Win32,60,61025ae37ef11b136ea224fe,,,,,,,,,4142,38,-95,1,0,0,response3disk,,4,10,-2,1,0,0,rectangle,10,-2,1,0,0,10,-2,1,0,0,0,28,28,158,1,,,,,,,,
,,,,,,,,,,,,,FF,,,,,,,,1.5697,,,,,,,,,,,,,,,,,,,,,,60fe1a7271f4d1a459e0fd5e,61036d1894c7d8bd8f5eab71,2021-07-29_22h09.17.227,Simcolourproject_2stim_asymm_v5,2020.2.10,Win32,60,61025ae37ef11b136ea224fe,,,,,,,,,111,27,65,1,0,0,response1disk,,7,-2,11,1,0,0,rectangle,-2,11,1,0,0,-2,11,1,0,0,0,29,29,4,1,,,,,,,,
,,,,,,,,,,,,,FF,,,,,,,,2.1465,,,,,,,,,,,,,,,,,,,,,,60fe1a7271f4d1a459e0fd5e,61036d1894c7d8bd8f5eab71,2021-07-29_22h09.17.227,Simcolourproject_2stim_asymm_v5,2020.2.10,Win32,60,61025ae37ef11b136ea224fe,,,,,,,,,979,29,68,1,0,0,response1disk,,7,-3,11,1,0,0,rectangle,-3,11,1,0,0,-3,11,1,0,0,0,30,30,70,1,,,,,,,,
,,,,,,,,,,,,,FF,,,,,,,,1.2162,,,,,,,,,,,,,,,,,,,,,,60fe1a7271f4d1a459e0fd5e,61036d1894c7d8bd8f5eab71,2021-07-29_22h09.17.227,Simcolourproject_2stim_asymm_v5,2020.2.10,Win32,60,61025ae37ef11b136ea224fe,,,,,,,,,2190,39,109,1,0,0,response1disk,,7,-1,-7,1,0,0,rectangle,-1,-7,1,0,0,-1,-7,1,0,0,0,31,31,105,1,,,,,,,,
,,,,,,,,,,,,,FF,,,,,,,,1.6818,,,,,,,,,,,,,,,,,,,,,,60fe1a7271f4d1a459e0fd5e,61036d1894c7d8bd8f5eab71,2021-07-29_22h09.17.227,Simcolourproject_2stim_asymm_v5,2020.2.10,Win32,60,61025ae37ef11b136ea224fe,,,,,,,,,1501,27,81,1,0,0,response1disk,,7,14,0,1,0,0,rectangle,14,0,1,0,0,14,0,1,0,0,0,32,32,2,1,,,,,,,,
,,,,,,,,,,,,,FF,,,,,,,,1.517,,,,,,,,,,,,,,,,,,,,,,60fe1a7271f4d1a459e0fd5e,61036d1894c7d8bd8f5eab71,2021-07-29_22h09.17.227,Simcolourproject_2stim_asymm_v5,2020.2.10,Win32,60,61025ae37ef11b136ea224fe,,,,,,,,,3208,55,78,1,0,0,response1disk,,7,15,12,1,0,0,rectangle,15,12,1,0,0,15,12,1,0,0,0,33,33,111,1,,,,,,,,
,,,,,,,,,,,,,FF,,,,,,,,1.4864,,,,,,,,,,,,,,,,,,,,,,60fe1a7271f4d1a459e0fd5e,61036d1894c7d8bd8f5eab71,2021-07-29_22h09.17.227,Simcolourproject_2stim_asymm_v5,2020.2.10,Win32,60,61025ae37ef11b136ea224fe,,,,,,,,,2228,-45,-88,1,0,0,response5disk,,3,15,-6,1,0,0,rectangle,15,-6,1,0,0,15,-6,1,0,0,0,34,34,41,1,,,,,,,,
,,,,,,,,,,,,,FF,,,,,,,,1.2368,,,,,,,,,,,,,,,,,,,,,,60fe1a7271f4d1a459e0fd5e,61036d1894c7d8bd8f5eab71,2021-07-29_22h09.17.227,Simcolourproject_2stim_asymm_v5,2020.2.10,Win32,60,61025ae37ef11b136ea224fe,,,,,,,,,2764,38,66,1,0,0,response1disk,,7,10,-3,1,0,0,rectangle,10,-3,1,0,0,10,-3,1,0,0,0,35,35,12,1,,,,,,,,
,,,,,,,,,,,,,FF,,,,,,,,1.1815,,,,,,,,,,,,,,,,,,,,,,60fe1a7271f4d1a459e0fd5e,61036d1894c7d8bd8f5eab71,2021-07-29_22h09.17.227,Simcolourproject_2stim_asymm_v5,2020.2.10,Win32,60,61025ae37ef11b136ea224fe,,,,,,,,,2249,45,97,1,0,0,response1disk,,7,-2,0,1,0,0,rectangle,-2,0,1,0,0,-2,0,1,0,0,0,36,36,79,1,,,,,,,,
,,,,,,,,,,,,,FF,,,,,,,,1.5491,,,,,,,,,,,,,,,,,,,,,,60fe1a7271f4d1a459e0fd5e,61036d1894c7d8bd8f5eab71,2021-07-29_22h09.17.227,Simcolourproject_2stim_asymm_v5,2020.2.10,Win32,60,61025ae37ef11b136ea224fe,,,,,,,,,23,40,68,1,0,0,response1disk,,7,3,4,1,0,0,rectangle,3,4,1,0,0,3,4,1,0,0,0,37,37,149,1,,,,,,,,
,,,,,,,,,,,,,FF,,,,,,,,1.3035,,,,,,,,,,,,,,,,,,,,,,60fe1a7271f4d1a459e0fd5e,61036d1894c7d8bd8f5eab71,2021-07-29_22h09.17.227,Simcolourproject_2stim_asymm_v5,2020.2.10,Win32,60,61025ae37ef11b136ea224fe,,,,,,,,,4155,30,52,1,0,0,response1disk,,7,11,7,1,0,0,rectangle,11,7,1,0,0,11,7,1,0,0,0,38,38,102,1,,,,,,,,
,,,,,,,,,,,,,FF,,,,,,,,1.9974,,,,,,,,,,,,,,,,,,,,,,60fe1a7271f4d1a459e0fd5e,61036d1894c7d8bd8f5eab71,2021-07-29_22h09.17.227,Simcolourproject_2stim_asymm_v5,2020.2.10,Win32,60,61025ae37ef11b136ea224fe,,,,,,,,,633,65,-39,1,0,0,response3disk,,5,18,8,1,0,0,rectangle,18,8,1,0,0,18,8,1,0,0,0,39,39,14,1,,,,,,,,
,,,,,,,,,,,,,FF,,,,,,,,1.2813,,,,,,,,,,,,,,,,,,,,,,60fe1a7271f4d1a459e0fd5e,61036d1894c7d8bd8f5eab71,2021-07-29_22h09.17.227,Simcolourproject_2stim_asymm_v5,2020.2.10,Win32,60,61025ae37ef11b136ea224fe,,,,,,,,,2611,25,61,1,0,0,response1disk,,7,19,0,1,0,0,rectangle,19,0,1,0,0,19,0,1,0,0,0,40,40,71,1,,,,,,,,
,,,,,,,,,,,,,FF,,,,,,,,1.4173,,,,,,,,,,,,,,,,,,,,,,60fe1a7271f4d1a459e0fd5e,61036d1894c7d8bd8f5eab71,2021-07-29_22h09.17.227,Simcolourproject_2stim_asymm_v5,2020.2.10,Win32,60,61025ae37ef11b136ea224fe,,,,,,,,,3156,72,-23,1,0,0,response3disk,,5,25,-6,1,0,0,rectangle,38,-69,1,0,0,5,-3,1,0,0,0,41,41,28,1,,response3disk_3,TRUE,4,4,"[42,194,315,282,280,198,176,2,181,242,15,144,49,229,306,176,147,170,76,235]",2.4656,rectangle
,,,,,,,,,,,,,FF,,,,,,,,2.2815,,,,,,,,,,,,,,,,,,,,,,60fe1a7271f4d1a459e0fd5e,61036d1894c7d8bd8f5eab71,2021-07-29_22h09.17.227,Simcolourproject_2stim_asymm_v5,2020.2.10,Win32,60,61025ae37ef11b136ea224fe,,,,,,,,,892,37,53,1,0,0,response1disk,,7,4,-8,1,0,0,rectangle,4,-8,1,0,0,4,-8,1,0,0,0,42,42,131,1,,,,,,,,
,,,,,,,,,,,,,FF,,,,,,,,1.1985,,,,,,,,,,,,,,,,,,,,,,60fe1a7271f4d1a459e0fd5e,61036d1894c7d8bd8f5eab71,2021-07-29_22h09.17.227,Simcolourproject_2stim_asymm_v5,2020.2.10,Win32,60,61025ae37ef11b136ea224fe,,,,,,,,,1844,20,65,1,0,0,response1disk,,7,4,5,1,0,0,rectangle,4,5,1,0,0,4,5,1,0,0,0,43,43,117,1,,,,,,,,
,,,,,,,,,,,,,FF,,,,,,,,1.1492,,,,,,,,,,,,,,,,,,,,,,60fe1a7271f4d1a459e0fd5e,61036d1894c7d8bd8f5eab71,2021-07-29_22h09.17.227,Simcolourproject_2stim_asymm_v5,2020.2.10,Win32,60,61025ae37ef11b136ea224fe,,,,,,,,,3655,65,100,1,0,0,response1disk,,7,12,13,1,0,0,rectangle,12,13,1,0,0,12,13,1,0,0,0,44,44,13,1,,,,,,,,
,,,,,,,,,,,,,FF,,,,,,,,2.0313,,,,,,,,,,,,,,,,,,,,,,60fe1a7271f4d1a459e0fd5e,61036d1894c7d8bd8f5eab71,2021-07-29_22h09.17.227,Simcolourproject_2stim_asymm_v5,2020.2.10,Win32,60,61025ae37ef11b136ea224fe,,,,,,,,,1611,31,-96,1,0,0,response3disk,,4,-10,-4,1,0,0,rectangle,-10,-4,1,0,0,-10,-4,1,0,0,0,45,45,85,1,,,,,,,,
,,,,,,,,,,,,,FF,,,,,,,,1.1659,,,,,,,,,,,,,,,,,,,,,,60fe1a7271f4d1a459e0fd5e,61036d1894c7d8bd8f5eab71,2021-07-29_22h09.17.227,Simcolourproject_2stim_asymm_v5,2020.2.10,Win32,60,61025ae37ef11b136ea224fe,,,,,,,,,3574,43,59,1,0,0,response1disk,,7,11,-8,1,0,0,rectangle,11,-8,1,0,0,11,-8,1,0,0,0,46,46,33,1,,,,,,,,
,,,,,,,,,,,,,FF,,,,,,,,1.0329,,,,,,,,,,,,,,,,,,,,,,60fe1a7271f4d1a459e0fd5e,61036d1894c7d8bd8f5eab71,2021-07-29_22h09.17.227,Simcolourproject_2stim_asymm_v5,2020.2.10,Win32,60,61025ae37ef11b136ea224fe,,,,,,,,,608,42,69,1,0,0,response1disk,,7,22,0,1,0,0,rectangle,22,0,1,0,0,22,0,1,0,0,0,47,47,59,1,,,,,,,,
,,,,,,,,,,,,,FF,,,,,,,,1.0986,,,,,,,,,,,,,,,,,,,,,,60fe1a7271f4d1a459e0fd5e,61036d1894c7d8bd8f5eab71,2021-07-29_22h09.17.227,Simcolourproject_2stim_asymm_v5,2020.2.10,Win32,60,61025ae37ef11b136ea224fe,,,,,,,,,3956,26,56,1,0,0,response1disk,,7,5,1,1,0,0,rectangle,90,-51,1,0,0,19,-8,1,0,0,0,48,48,89,1,,response3disk_3,TRUE,5,5,"[42,194,315,282,280,198,176,2,181,242,15,144,49,229,306,176,147,170,76,235]",2.0488,rectangle
,,,,,,,,,,,,,FF,,,,,,,,1.8309,,,,,,,,,,,,,,,,,,,,,,60fe1a7271f4d1a459e0fd5e,61036d1894c7d8bd8f5eab71,2021-07-29_22h09.17.227,Simcolourproject_2stim_asymm_v5,2020.2.10,Win32,60,61025ae37ef11b136ea224fe,,,,,,,,,1317,39,54,1,0,0,response1disk,,7,12,-1,1,0,0,rectangle,12,-1,1,0,0,12,-1,1,0,0,0,49,49,53,1,,,,,,,,
,,,,,,,,,,,,,FF,,,,,,,,0.9668,,,,,,,,,,,,,,,,,,,,,,60fe1a7271f4d1a459e0fd5e,61036d1894c7d8bd8f5eab71,2021-07-29_22h09.17.227,Simcolourproject_2stim_asymm_v5,2020.2.10,Win32,60,61025ae37ef11b136ea224fe,,,,,,,,,2528,40,69,1,0,0,response1disk,,7,19,-5,1,0,0,rectangle,19,-5,1,0,0,19,-5,1,0,0,0,50,50,134,1,,,,,,,,
,,,,,,,,,,,,,FF,,,,,,,,2.536,,,,,,,,,,,,,,,,,,,,,,60fe1a7271f4d1a459e0fd5e,61036d1894c7d8bd8f5eab71,2021-07-29_22h09.17.227,Simcolourproject_2stim_asymm_v5,2020.2.10,Win32,60,61025ae37ef11b136ea224fe,,,,,,,,,4169,80,-63,1,0,0,response3disk,,5,-17,7,1,0,0,rectangle,-17,7,1,0,0,-17,7,1,0,0,0,51,51,109,1,,,,,,,,
,,,,,,,,,,,,,FF,,,,,,,,1.6155,,,,,,,,,,,,,,,,,,,,,,60fe1a7271f4d1a459e0fd5e,61036d1894c7d8bd8f5eab71,2021-07-29_22h09.17.227,Simcolourproject_2stim_asymm_v5,2020.2.10,Win32,60,61025ae37ef11b136ea224fe,,,,,,,,,224,41,90,1,0,0,response1disk,,7,13,-3,1,0,0,rectangle,13,-3,1,0,0,13,-3,1,0,0,0,52,52,24,1,,,,,,,,
,,,,,,,,,,,,,FF,,,,,,,,0.9829,,,,,,,,,,,,,,,,,,,,,,60fe1a7271f4d1a459e0fd5e,61036d1894c7d8bd8f5eab71,2021-07-29_22h09.17.227,Simcolourproject_2stim_asymm_v5,2020.2.10,Win32,60,61025ae37ef11b136ea224fe,,,,,,,,,3721,45,71,1,0,0,response1disk,,7,14,6,1,0,0,rectangle,14,6,1,0,0,14,6,1,0,0,0,53,53,148,1,,,,,,,,
,,,,,,,,,,,,,FF,,,,,,,,1.0829,,,,,,,,,,,,,,,,,,,,,,60fe1a7271f4d1a459e0fd5e,61036d1894c7d8bd8f5eab71,2021-07-29_22h09.17.227,Simcolourproject_2stim_asymm_v5,2020.2.10,Win32,60,61025ae37ef11b136ea224fe,,,,,,,,,989,50,82,1,0,0,response1disk,,7,14,0,1,0,0,rectangle,14,0,1,0,0,14,0,1,0,0,0,54,54,32,1,,,,,,,,
,,,,,,,,,,,,,FF,,,,,,,,0.9665,,,,,,,,,,,,,,,,,,,,,,60fe1a7271f4d1a459e0fd5e,61036d1894c7d8bd8f5eab71,2021-07-29_22h09.17.227,Simcolourproject_2stim_asymm_v5,2020.2.10,Win32,60,61025ae37ef11b136ea224fe,,,,,,,,,2451,43,60,1,0,0,response1disk,,7,11,-10,1,0,0,rectangle,11,-10,1,0,0,11,-10,1,0,0,0,55,55,52,1,,,,,,,,
,,,,,,,,,,,,,FF,,,,,,,,1.815,,,,,,,,,,,,,,,,,,,,,,60fe1a7271f4d1a459e0fd5e,61036d1894c7d8bd8f5eab71,2021-07-29_22h09.17.227,Simcolourproject_2stim_asymm_v5,2020.2.10,Win32,60,61025ae37ef11b136ea224fe,,,,,,,,,4256,65,49,1,0,0,response1disk,,6,-1,8,1,0,0,rectangle,-1,8,1,0,0,-1,8,1,0,0,0,56,56,27,1,,,,,,,,
,,,,,,,,,,,,,FF,,,,,,,,4.2306,,,,,,,,,,,,,,,,,,,,,,60fe1a7271f4d1a459e0fd5e,61036d1894c7d8bd8f5eab71,2021-07-29_22h09.17.227,Simcolourproject_2stim_asymm_v5,2020.2.10,Win32,60,61025ae37ef11b136ea224fe,,,,,,,,,891,103,27,1,0,0,response1disk,,6,-6,-9,1,0,0,rectangle,-6,-9,1,0,0,-6,-9,1,0,0,0,57,57,146,1,,,,,,,,
,,,,,,,,,,,,,FF,,,,,,,,1.0998,,,,,,,,,,,,,,,,,,,,,,60fe1a7271f4d1a459e0fd5e,61036d1894c7d8bd8f5eab71,2021-07-29_22h09.17.227,Simcolourproject_2stim_asymm_v5,2020.2.10,Win32,60,61025ae37ef11b136ea224fe,,,,,,,,,3492,26,70,1,0,0,response1disk,,7,9,2,1,0,0,rectangle,9,2,1,0,0,9,2,1,0,0,0,58,58,60,1,,,,,,,,
,,,,,,,,,,,,,FF,,,,,,,,1.0665,,,,,,,,,,,,,,,,,,,,,,60fe1a7271f4d1a459e0fd5e,61036d1894c7d8bd8f5eab71,2021-07-29_22h09.17.227,Simcolourproject_2stim_asymm_v5,2020.2.10,Win32,60,61025ae37ef11b136ea224fe,,,,,,,,,4175,23,48,1,0,0,response1disk,,7,6,8,1,0,0,rectangle,6,8,1,0,0,6,8,1,0,0,0,59,59,49,1,,,,,,,,
,,,,,,,,,,,,,FF,,,,,,,,0.9822,,,,,,,,,,,,,,,,,,,,,,60fe1a7271f4d1a459e0fd5e,61036d1894c7d8bd8f5eab71,2021-07-29_22h09.17.227,Simcolourproject_2stim_asymm_v5,2020.2.10,Win32,60,61025ae37ef11b136ea224fe,,,,,,,,,3095,39,62,1,0,0,response1disk,,7,21,9,1,0,0,rectangle,21,9,1,0,0,21,9,1,0,0,0,60,60,88,1,,,,,,,,
,,,,,,,,,,,,,FF,,,,,,,,1.6194,,,,,,,,,,,,,,,,,,,,,,60fe1a7271f4d1a459e0fd5e,61036d1894c7d8bd8f5eab71,2021-07-29_22h09.17.227,Simcolourproject_2stim_asymm_v5,2020.2.10,Win32,60,61025ae37ef11b136ea224fe,,,,,,,,,1214,40,59,1,0,0,response1disk,,7,18,-5,1,0,0,rectangle,18,-5,1,0,0,18,-5,1,0,0,0,61,61,54,1,,,,,,,,
,,,,,,,,,,,,,FF,,,,,,,,1.1998,,,,,,,,,,,,,,,,,,,,,,60fe1a7271f4d1a459e0fd5e,61036d1894c7d8bd8f5eab71,2021-07-29_22h09.17.227,Simcolourproject_2stim_asymm_v5,2020.2.10,Win32,60,61025ae37ef11b136ea224fe,,,,,,,,,2181,49,83,1,0,0,response1disk,,7,14,8,1,0,0,rectangle,14,8,1,0,0,14,8,1,0,0,0,62,62,40,1,,,,,,,,
,,,,,,,,,,,,,FF,,,,,,,,5.5667,,,,,,,,,,,,,,,,,,,,,,60fe1a7271f4d1a459e0fd5e,61036d1894c7d8bd8f5eab71,2021-07-29_22h09.17.227,Simcolourproject_2stim_asymm_v5,2020.2.10,Win32,60,61025ae37ef11b136ea224fe,,,,,,,,,1066,57,104,1,0,0,response1disk,,7,15,-3,1,0,0,rectangle,15,-3,1,0,0,15,-3,1,0,0,0,63,63,100,1,,,,,,,,
,,,,,,,,,,,,,FF,,,,,,,,1.4657,,,,,,,,,,,,,,,,,,,,,,60fe1a7271f4d1a459e0fd5e,61036d1894c7d8bd8f5eab71,2021-07-29_22h09.17.227,Simcolourproject_2stim_asymm_v5,2020.2.10,Win32,60,61025ae37ef11b136ea224fe,,,,,,,,,2093,-32,72,1,0,0,response7disk,,0,3,-5,1,0,0,rectangle,3,-5,1,0,0,3,-5,1,0,0,0,64,64,114,1,,,,,,,,
,,,,,,,,,,,,,FF,,,,,,,,1.2496,,,,,,,,,,,,,,,,,,,,,,60fe1a7271f4d1a459e0fd5e,61036d1894c7d8bd8f5eab71,2021-07-29_22h09.17.227,Simcolourproject_2stim_asymm_v5,2020.2.10,Win32,60,61025ae37ef11b136ea224fe,,,,,,,,,3508,49,92,1,0,0,response1disk,,7,9,6,1,0,0,rectangle,9,6,1,0,0,9,6,1,0,0,0,65,65,37,1,,,,,,,,
,,,,,,,,,,,,,FF,,,,,,,,1.4831,,,,,,,,,,,,,,,,,,,,,,60fe1a7271f4d1a459e0fd5e,61036d1894c7d8bd8f5eab71,2021-07-29_22h09.17.227,Simcolourproject_2stim_asymm_v5,2020.2.10,Win32,60,61025ae37ef11b136ea224fe,,,,,,,,,3746,74,-28,1,0,0,response3disk,,5,17,8,1,0,0,rectangle,17,8,1,0,0,17,8,1,0,0,0,66,66,90,1,,,,,,,,
,,,,,,,,,,,,,FF,,,,,,,,3.5638,,,,,,,,,,,,,,,,,,,,,,60fe1a7271f4d1a459e0fd5e,61036d1894c7d8bd8f5eab71,2021-07-29_22h09.17.227,Simcolourproject_2stim_asymm_v5,2020.2.10,Win32,60,61025ae37ef11b136ea224fe,,,,,,,,,4129,79,-49,1,0,0,response3disk,,5,14,-9,1,0,0,rectangle,14,-9,1,0,0,14,-9,1,0,0,0,67,67,62,1,,,,,,,,
,,,,,,,,,,,,,FF,,,,,,,,1.0829,,,,,,,,,,,,,,,,,,,,,,60fe1a7271f4d1a459e0fd5e,61036d1894c7d8bd8f5eab71,2021-07-29_22h09.17.227,Simcolourproject_2stim_asymm_v5,2020.2.10,Win32,60,61025ae37ef11b136ea224fe,,,,,,,,,2400,32,64,1,0,0,response1disk,,7,15,-3,1,0,0,rectangle,15,-3,1,0,0,15,-3,1,0,0,0,68,68,19,1,,,,,,,,
,,,,,,,,,,,,,FF,,,,,,,,1.3162,,,,,,,,,,,,,,,,,,,,,,60fe1a7271f4d1a459e0fd5e,61036d1894c7d8bd8f5eab71,2021-07-29_22h09.17.227,Simcolourproject_2stim_asymm_v5,2020.2.10,Win32,60,61025ae37ef11b136ea224fe,,,,,,,,,1202,61,30,1,0,0,response1disk,,6,19,1,1,0,0,rectangle,19,1,1,0,0,19,1,1,0,0,0,69,69,65,1,,,,,,,,
,,,,,,,,,,,,,FF,,,,,,,,1.7325,,,,,,,,,,,,,,,,,,,,,,60fe1a7271f4d1a459e0fd5e,61036d1894c7d8bd8f5eab71,2021-07-29_22h09.17.227,Simcolourproject_2stim_asymm_v5,2020.2.10,Win32,60,61025ae37ef11b136ea224fe,,,,,,,,,1306,20,61,1,0,0,response1disk,,7,13,-2,1,0,0,rectangle,13,-2,1,0,0,13,-2,1,0,0,0,70,70,153,1,,,,,,,,
,,,,,,,,,,,,,FF,,,,,,,,2.3314,,,,,,,,,,,,,,,,,,,,,,60fe1a7271f4d1a459e0fd5e,61036d1894c7d8bd8f5eab71,2021-07-29_22h09.17.227,Simcolourproject_2stim_asymm_v5,2020.2.10,Win32,60,61025ae37ef11b136ea224fe,,,,,,,,,2835,25,59,1,0,0,response1disk,,7,28,7,1,0,0,rectangle,28,7,1,0,0,28,7,1,0,0,0,71,71,34,1,,,,,,,,
,,,,,,,,,,,,,FF,,,,,,,,1.3491,,,,,,,,,,,,,,,,,,,,,,60fe1a7271f4d1a459e0fd5e,61036d1894c7d8bd8f5eab71,2021-07-29_22h09.17.227,Simcolourproject_2stim_asymm_v5,2020.2.10,Win32,60,61025ae37ef11b136ea224fe,,,,,,,,,177,53,97,1,0,0,response1disk,,7,1,8,1,0,0,rectangle,1,8,1,0,0,1,8,1,0,0,0,72,72,155,1,,,,,,,,
,,,,,,,,,,,,,FF,,,,,,,,1.6142,,,,,,,,,,,,,,,,,,,,,,60fe1a7271f4d1a459e0fd5e,61036d1894c7d8bd8f5eab71,2021-07-29_22h09.17.227,Simcolourproject_2stim_asymm_v5,2020.2.10,Win32,60,61025ae37ef11b136ea224fe,,,,,,,,,1374,42,67,1,0,0,response1disk,,7,12,-4,1,0,0,rectangle,12,-4,1,0,0,12,-4,1,0,0,0,73,73,23,1,,,,,,,,
,,,,,,,,,,,,,FF,,,,,,,,3.081,,,,,,,,,,,,,,,,,,,,,,60fe1a7271f4d1a459e0fd5e,61036d1894c7d8bd8f5eab71,2021-07-29_22h09.17.227,Simcolourproject_2stim_asymm_v5,2020.2.10,Win32,60,61025ae37ef11b136ea224fe,,,,,,,,,4309,28,55,1,0,0,response1disk,,7,-1,-9,1,0,0,rectangle,-1,-9,1,0,0,-1,-9,1,0,0,0,74,74,145,1,,,,,,,,
,,,,,,,,,,,,,FF,,,,,,,,1.366,,,,,,,,,,,,,,,,,,,,,,60fe1a7271f4d1a459e0fd5e,61036d1894c7d8bd8f5eab71,2021-07-29_22h09.17.227,Simcolourproject_2stim_asymm_v5,2020.2.10,Win32,60,61025ae37ef11b136ea224fe,,,,,,,,,2153,38,70,1,0,0,response1disk,,7,13,9,1,0,0,rectangle,27,64,1,0,0,-11,-11,1,0,0,0,75,75,128,1,,response1disk_3,TRUE,7,7,"[42,194,315,282,280,198,176,2,181,242,15,144,49,229,306,176,147,170,76,235]",2.1637,rectangle
,,,,,,,,,,,,,FF,,,,,,,,1.5826,,,,,,,,,,,,,,,,,,,,,,60fe1a7271f4d1a459e0fd5e,61036d1894c7d8bd8f5eab71,2021-07-29_22h09.17.227,Simcolourproject_2stim_asymm_v5,2020.2.10,Win32,60,61025ae37ef11b136ea224fe,,,,,,,,,1953,45,66,1,0,0,response1disk,,7,7,10,1,0,0,rectangle,7,10,1,0,0,7,10,1,0,0,0,76,76,77,1,,,,,,,,
,,,,,,,,,,,,,FF,,,,,,,,1.0329,,,,,,,,,,,,,,,,,,,,,,60fe1a7271f4d1a459e0fd5e,61036d1894c7d8bd8f5eab71,2021-07-29_22h09.17.227,Simcolourproject_2stim_asymm_v5,2020.2.10,Win32,60,61025ae37ef11b136ea224fe,,,,,,,,,2763,33,61,1,0,0,response1disk,,7,-17,-12,1,0,0,rectangle,-17,-12,1,0,0,-17,-12,1,0,0,0,77,77,130,1,,,,,,,,
,,,,,,,,,,,,,FF,,,,,,,,1.1492,,,,,,,,,,,,,,,,,,,,,,60fe1a7271f4d1a459e0fd5e,61036d1894c7d8bd8f5eab71,2021-07-29_22h09.17.227,Simcolourproject_2stim_asymm_v5,2020.2.10,Win32,60,61025ae37ef11b136ea224fe,,,,,,,,,727,50,24,1,0,0,response1disk,,6,-1,-1,1,0,0,rectangle,-1,-1,1,0,0,-1,-1,1,0,0,0,78,78,157,1,,,,,,,,
,,,,,,,,,,,,,FF,,,,,,,,1.432,,,,,,,,,,,,,,,,,,,,,,60fe1a7271f4d1a459e0fd5e,61036d1894c7d8bd8f5eab71,2021-07-29_22h09.17.227,Simcolourproject_2stim_asymm_v5,2020.2.10,Win32,60,61025ae37ef11b136ea224fe,,,,,,,,,3881,48,61,1,0,0,response1disk,,7,9,4,1,0,0,rectangle,9,4,1,0,0,9,4,1,0,0,0,79,79,58,1,,,,,,,,
,,,,,,,,,,,,,FF,,,,,,,,1.3161,,,,,,,,,,,,,,,,,,,,,,60fe1a7271f4d1a459e0fd5e,61036d1894c7d8bd8f5eab71,2021-07-29_22h09.17.227,Simcolourproject_2stim_asymm_v5,2020.2.10,Win32,60,61025ae37ef11b136ea224fe,,,,,,,,,1694,41,92,1,0,0,response1disk,,7,-4,0,1,0,0,rectangle,-4,0,1,0,0,-4,0,1,0,0,0,80,80,18,1,,,,,,,,
,,,,,,,,,,,,,FF,,,,,,,,1.0491,,,,,,,,,,,,,,,,,,,,,,60fe1a7271f4d1a459e0fd5e,61036d1894c7d8bd8f5eab71,2021-07-29_22h09.17.227,Simcolourproject_2stim_asymm_v5,2020.2.10,Win32,60,61025ae37ef11b136ea224fe,,,,,,,,,2141,68,105,1,0,0,response1disk,,7,13,5,1,0,0,rectangle,13,5,1,0,0,13,5,1,0,0,0,81,81,132,1,,,,,,,,
,,,,,,,,,,,,,FF,,,,,,,,1.5174,,,,,,,,,,,,,,,,,,,,,,60fe1a7271f4d1a459e0fd5e,61036d1894c7d8bd8f5eab71,2021-07-29_22h09.17.227,Simcolourproject_2stim_asymm_v5,2020.2.10,Win32,60,61025ae37ef11b136ea224fe,,,,,,,,,18,27,43,1,0,0,response1disk,,7,5,-1,1,0,0,rectangle,5,-1,1,0,0,5,-1,1,0,0,0,82,82,42,1,,,,,,,,
,,,,,,,,,,,,,FF,,,,,,,,1.2324,,,,,,,,,,,,,,,,,,,,,,60fe1a7271f4d1a459e0fd5e,61036d1894c7d8bd8f5eab71,2021-07-29_22h09.17.227,Simcolourproject_2stim_asymm_v5,2020.2.10,Win32,60,61025ae37ef11b136ea224fe,,,,,,,,,4209,26,39,1,0,0,response1disk,,7,8,7,1,0,0,rectangle,8,7,1,0,0,8,7,1,0,0,0,83,83,116,1,,,,,,,,
,,,,,,,,,,,,,FF,,,,,,,,1.0824,,,,,,,,,,,,,,,,,,,,,,60fe1a7271f4d1a459e0fd5e,61036d1894c7d8bd8f5eab71,2021-07-29_22h09.17.227,Simcolourproject_2stim_asymm_v5,2020.2.10,Win32,60,61025ae37ef11b136ea224fe,,,,,,,,,567,44,79,1,0,0,response1disk,,7,8,9,1,0,0,rectangle,8,9,1,0,0,8,9,1,0,0,0,84,84,45,1,,,,,,,,
,,,,,,,,,,,,,FF,,,,,,,,1.8981,,,,,,,,,,,,,,,,,,,,,,60fe1a7271f4d1a459e0fd5e,61036d1894c7d8bd8f5eab71,2021-07-29_22h09.17.227,Simcolourproject_2stim_asymm_v5,2020.2.10,Win32,60,61025ae37ef11b136ea224fe,,,,,,,,,1145,69,-15,1,0,0,response3disk,,5,11,9,1,0,0,rectangle,11,9,1,0,0,11,9,1,0,0,0,85,85,16,1,,,,,,,,
,,,,,,,,,,,,,FF,,,,,,,,1.0161,,,,,,,,,,,,,,,,,,,,,,60fe1a7271f4d1a459e0fd5e,61036d1894c7d8bd8f5eab71,2021-07-29_22h09.17.227,Simcolourproject_2stim_asymm_v5,2020.2.10,Win32,60,61025ae37ef11b136ea224fe,,,,,,,,,2496,67,99,1,0,0,response1disk,,7,8,-9,1,0,0,rectangle,8,-9,1,0,0,8,-9,1,0,0,0,86,86,74,1,,,,,,,,
,,,,,,,,,,,,,FF,,,,,,,,1.0827,,,,,,,,,,,,,,,,,,,,,,60fe1a7271f4d1a459e0fd5e,61036d1894c7d8bd8f5eab71,2021-07-29_22h09.17.227,Simcolourproject_2stim_asymm_v5,2020.2.10,Win32,60,61025ae37ef11b136ea224fe,,,,,,,,,3261,24,41,1,0,0,response1disk,,7,6,-4,1,0,0,rectangle,6,-4,1,0,0,6,-4,1,0,0,0,87,87,67,1,,,,,,,,
,,,,,,,,,,,,,FF,,,,,,,,1.183,,,,,,,,,,,,,,,,,,,,,,60fe1a7271f4d1a459e0fd5e,61036d1894c7d8bd8f5eab71,2021-07-29_22h09.17.227,Simcolourproject_2stim_asymm_v5,2020.2.10,Win32,60,61025ae37ef11b136ea224fe,,,,,,,,,2561,46,82,1,0,0,response1disk,,7,-4,6,1,0,0,rectangle,-4,6,1,0,0,-4,6,1,0,0,0,88,88,57,1,,,,,,,,
,,,,,,,,,,,,,FF,,,,,,,,1.2654,,,,,,,,,,,,,,,,,,,,,,60fe1a7271f4d1a459e0fd5e,61036d1894c7d8bd8f5eab71,2021-07-29_22h09.17.227,Simcolourproject_2stim_asymm_v5,2020.2.10,Win32,60,61025ae37ef11b136ea224fe,,,,,,,,,1355,32,77,1,0,0,response1disk,,7,1,-9,1,0,0,rectangle,1,-9,1,0,0,1,-9,1,0,0,0,89,89,29,1,,,,,,,,
,,,,,,,,,,,,,FF,,,,,,,,1.3327,,,,,,,,,,,,,,,,,,,,,,60fe1a7271f4d1a459e0fd5e,61036d1894c7d8bd8f5eab71,2021-07-29_22h09.17.227,Simcolourproject_2stim_asymm_v5,2020.2.10,Win32,60,61025ae37ef11b136ea224fe,,,,,,,,,1842,69,110,1,0,0,response1disk,,7,25,1,1,0,0,rectangle,25,1,1,0,0,25,1,1,0,0,0,90,90,48,1,,,,,,,,
,,,,,,,,,,,,,FF,,,,,,,,1.283,,,,,,,,,,,,,,,,,,,,,,60fe1a7271f4d1a459e0fd5e,61036d1894c7d8bd8f5eab71,2021-07-29_22h09.17.227,Simcolourproject_2stim_asymm_v5,2020.2.10,Win32,60,61025ae37ef11b136ea224fe,,,,,,,,,836,36,117,1,0,0,response1disk,,7,-4,11,1,0,0,rectangle,-4,11,1,0,0,-4,11,1,0,0,0,91,91,93,1,,,,,,,,
,,,,,,,,,,,,,FF,,,,,,,,2.4154,,,,,,,,,,,,,,,,,,,,,,60fe1a7271f4d1a459e0fd5e,61036d1894c7d8bd8f5eab71,2021-07-29_22h09.17.227,Simcolourproject_2stim_asymm_v5,2020.2.10,Win32,60,61025ae37ef11b136ea224fe,,,,,,,,,3197,-63,-73,1,0,0,response5disk,,3,-2,-2,1,0,0,rectangle,-2,-2,1,0,0,-2,-2,1,0,0,0,92,92,113,1,,,,,,,,
,,,,,,,,,,,,,FF,,,,,,,,1.249,,,,,,,,,,,,,,,,,,,,,,60fe1a7271f4d1a459e0fd5e,61036d1894c7d8bd8f5eab71,2021-07-29_22h09.17.227,Simcolourproject_2stim_asymm_v5,2020.2.10,Win32,60,61025ae37ef11b136ea224fe,,,,,,,,,447,16,41,1,0,0,response1disk,,7,-6,-4,1,0,0,rectangle,-6,-4,1,0,0,-6,-4,1,0,0,0,93,93,136,1,,,,,,,,
,,,,,,,,,,,,,FF,,,,,,,,1.1173,,,,,,,,,,,,,,,,,,,,,,60fe1a7271f4d1a459e0fd5e,61036d1894c7d8bd8f5eab71,2021-07-29_22h09.17.227,Simcolourproject_2stim_asymm_v5,2020.2.10,Win32,60,61025ae37ef11b136ea224fe,,,,,,,,,1076,28,53,1,0,0,response1disk,,7,-6,-11,1,0,0,rectangle,-6,-11,1,0,0,-6,-11,1,0,0,0,94,94,11,1,,,,,,,,
,,,,,,,,,,,,,FF,,,,,,,,3.4467,,,,,,,,,,,,,,,,,,,,,,60fe1a7271f4d1a459e0fd5e,61036d1894c7d8bd8f5eab71,2021-07-29_22h09.17.227,Simcolourproject_2stim_asymm_v5,2020.2.10,Win32,60,61025ae37ef11b136ea224fe,,,,,,,,,2789,53,23,1,0,0,response1disk,,6,16,-7,1,0,0,rectangle,16,-7,1,0,0,16,-7,1,0,0,0,95,95,139,1,,,,,,,,
,,,,,,,,,,,,,FF,,,,,,,,1.0324,,,,,,,,,,,,,,,,,,,,,,60fe1a7271f4d1a459e0fd5e,61036d1894c7d8bd8f5eab71,2021-07-29_22h09.17.227,Simcolourproject_2stim_asymm_v5,2020.2.10,Win32,60,61025ae37ef11b136ea224fe,,,,,,,,,1577,36,64,1,0,0,response1disk,,7,10,8,1,0,0,rectangle,10,8,1,0,0,10,8,1,0,0,0,96,96,31,1,,,,,,,,
,,,,,,,,,,,,,FF,,,,,,,,1.0829,,,,,,,,,,,,,,,,,,,,,,60fe1a7271f4d1a459e0fd5e,61036d1894c7d8bd8f5eab71,2021-07-29_22h09.17.227,Simcolourproject_2stim_asymm_v5,2020.2.10,Win32,60,61025ae37ef11b136ea224fe,,,,,,,,,1722,61,76,1,0,0,response1disk,,7,13,7,1,0,0,rectangle,13,7,1,0,0,13,7,1,0,0,0,97,97,64,1,,,,,,,,
,,,,,,,,,,,,,FF,,,,,,,,2.0487,,,,,,,,,,,,,,,,,,,,,,60fe1a7271f4d1a459e0fd5e,61036d1894c7d8bd8f5eab71,2021-07-29_22h09.17.227,Simcolourproject_2stim_asymm_v5,2020.2.10,Win32,60,61025ae37ef11b136ea224fe,,,,,,,,,3449,38,65,1,0,0,response1disk,,7,8,-3,1,0,0,rectangle,8,-3,1,0,0,8,-3,1,0,0,0,98,98,43,1,,,,,,,,
,,,,,,,,,,,,,FF,,,,,,,,1.0495,,,,,,,,,,,,,,,,,,,,,,60fe1a7271f4d1a459e0fd5e,61036d1894c7d8bd8f5eab71,2021-07-29_22h09.17.227,Simcolourproject_2stim_asymm_v5,2020.2.10,Win32,60,61025ae37ef11b136ea224fe,,,,,,,,,1879,27,38,1,0,0,response1disk,,7,11,7,1,0,0,rectangle,11,7,1,0,0,11,7,1,0,0,0,99,99,115,1,,,,,,,,
,,,,,,,,,,,,,FF,,,,,,,,0.9836,,,,,,,,,,,,,,,,,,,,,,60fe1a7271f4d1a459e0fd5e,61036d1894c7d8bd8f5eab71,2021-07-29_22h09.17.227,Simcolourproject_2stim_asymm_v5,2020.2.10,Win32,60,61025ae37ef11b136ea224fe,,,,,,,,,2683,29,39,1,0,0,response1disk,,7,8,-11,1,0,0,rectangle,8,-11,1,0,0,8,-11,1,0,0,0,100,100,44,1,,,,,,,,
,,,,,,,,,,,,,FF,,,,,,,,1.8807,,,,,,,,,,,,,,,,,,,,,,60fe1a7271f4d1a459e0fd5e,61036d1894c7d8bd8f5eab71,2021-07-29_22h09.17.227,Simcolourproject_2stim_asymm_v5,2020.2.10,Win32,60,61025ae37ef11b136ea224fe,,,,,,,,,1311,38,28,1,0,0,response1disk,,6,-8,5,1,0,0,rectangle,-8,5,1,0,0,-8,5,1,0,0,0,101,101,106,1,,,,,,,,
,,,,,,,,,,,,,FF,,,,,,,,1.7654,,,,,,,,,,,,,,,,,,,,,,60fe1a7271f4d1a459e0fd5e,61036d1894c7d8bd8f5eab71,2021-07-29_22h09.17.227,Simcolourproject_2stim_asymm_v5,2020.2.10,Win32,60,61025ae37ef11b136ea224fe,,,,,,,,,4100,39,59,1,0,0,response1disk,,7,1,7,1,0,0,rectangle,1,7,1,0,0,1,7,1,0,0,0,102,102,152,1,,,,,,,,
,,,,,,,,,,,,,FF,,,,,,,,1.0993,,,,,,,,,,,,,,,,,,,,,,60fe1a7271f4d1a459e0fd5e,61036d1894c7d8bd8f5eab71,2021-07-29_22h09.17.227,Simcolourproject_2stim_asymm_v5,2020.2.10,Win32,60,61025ae37ef11b136ea224fe,,,,,,,,,3504,27,55,1,0,0,response1disk,,7,6,7,1,0,0,rectangle,6,7,1,0,0,6,7,1,0,0,0,103,103,55,1,,,,,,,,
,,,,,,,,,,,,,FF,,,,,,,,1.1826,,,,,,,,,,,,,,,,,,,,,,60fe1a7271f4d1a459e0fd5e,61036d1894c7d8bd8f5eab71,2021-07-29_22h09.17.227,Simcolourproject_2stim_asymm_v5,2020.2.10,Win32,60,61025ae37ef11b136ea224fe,,,,,,,,,4336,30,56,1,0,0,response1disk,,7,-2,0,1,0,0,rectangle,-2,0,1,0,0,-2,0,1,0,0,0,104,104,8,1,,,,,,,,
,,,,,,,,,,,,,FF,,,,,,,,1.0663,,,,,,,,,,,,,,,,,,,,,,60fe1a7271f4d1a459e0fd5e,61036d1894c7d8bd8f5eab71,2021-07-29_22h09.17.227,Simcolourproject_2stim_asymm_v5,2020.2.10,Win32,60,61025ae37ef11b136ea224fe,,,,,,,,,2484,48,89,1,0,0,response1disk,,7,6,-1,1,0,0,rectangle,6,-1,1,0,0,6,-1,1,0,0,0,105,105,103,1,,,,,,,,
,,,,,,,,,,,,,FF,,,,,,,,1.3491,,,,,,,,,,,,,,,,,,,,,,60fe1a7271f4d1a459e0fd5e,61036d1894c7d8bd8f5eab71,2021-07-29_22h09.17.227,Simcolourproject_2stim_asymm_v5,2020.2.10,Win32,60,61025ae37ef11b136ea224fe,,,,,,,,,3425,-20,68,1,0,0,response7disk,,0,-9,6,1,0,0,rectangle,-9,6,1,0,0,-9,6,1,0,0,0,106,106,133,1,,,,,,,,
,,,,,,,,,,,,,FF,,,,,,,,1.4821,,,,,,,,,,,,,,,,,,,,,,60fe1a7271f4d1a459e0fd5e,61036d1894c7d8bd8f5eab71,2021-07-29_22h09.17.227,Simcolourproject_2stim_asymm_v5,2020.2.10,Win32,60,61025ae37ef11b136ea224fe,,,,,,,,,3312,28,44,1,0,0,response1disk,,7,8,3,1,0,0,rectangle,8,3,1,0,0,8,3,1,0,0,0,107,107,66,1,,,,,,,,
,,,,,,,,,,,,,FF,,,,,,,,1.6326,,,,,,,,,,,,,,,,,,,,,,60fe1a7271f4d1a459e0fd5e,61036d1894c7d8bd8f5eab71,2021-07-29_22h09.17.227,Simcolourproject_2stim_asymm_v5,2020.2.10,Win32,60,61025ae37ef11b136ea224fe,,,,,,,,,1307,77,21,1,0,0,response1disk,,6,26,-6,1,0,0,rectangle,26,-6,1,0,0,26,-6,1,0,0,0,108,108,26,1,,,,,,,,
,,,,,,,,,,,,,FF,,,,,,,,2.3799,,,,,,,,,,,,,,,,,,,,,,60fe1a7271f4d1a459e0fd5e,61036d1894c7d8bd8f5eab71,2021-07-29_22h09.17.227,Simcolourproject_2stim_asymm_v5,2020.2.10,Win32,60,61025ae37ef11b136ea224fe,,,,,,,,,3679,93,27,1,0,0,response1disk,,6,22,4,1,0,0,rectangle,22,4,1,0,0,22,4,1,0,0,0,109,109,118,1,,,,,,,,
,,,,,,,,,,,,,FF,,,,,,,,1.0491,,,,,,,,,,,,,,,,,,,,,,60fe1a7271f4d1a459e0fd5e,61036d1894c7d8bd8f5eab71,2021-07-29_22h09.17.227,Simcolourproject_2stim_asymm_v5,2020.2.10,Win32,60,61025ae37ef11b136ea224fe,,,,,,,,,3788,54,26,1,0,0,response1disk,,6,15,7,1,0,0,rectangle,15,7,1,0,0,15,7,1,0,0,0,110,110,141,1,,,,,,,,
,,,,,,,,,,,,,FF,,,,,,,,1.3158,,,,,,,,,,,,,,,,,,,,,,60fe1a7271f4d1a459e0fd5e,61036d1894c7d8bd8f5eab71,2021-07-29_22h09.17.227,Simcolourproject_2stim_asymm_v5,2020.2.10,Win32,60,61025ae37ef11b136ea224fe,,,,,,,,,2556,29,57,1,0,0,response1disk,,7,-3,2,1,0,0,rectangle,-3,2,1,0,0,-3,2,1,0,0,0,111,111,82,1,,,,,,,,
,,,,,,,,,,,,,FF,,,,,,,,1.1995,,,,,,,,,,,,,,,,,,,,,,60fe1a7271f4d1a459e0fd5e,61036d1894c7d8bd8f5eab71,2021-07-29_22h09.17.227,Simcolourproject_2stim_asymm_v5,2020.2.10,Win32,60,61025ae37ef11b136ea224fe,,,,,,,,,4140,-42,78,1,0,0,response7disk,,0,-21,5,1,0,0,rectangle,-21,5,1,0,0,-21,5,1,0,0,0,112,112,3,1,,,,,,,,
,,,,,,,,,,,,,FF,,,,,,,,1.7829,,,,,,,,,,,,,,,,,,,,,,60fe1a7271f4d1a459e0fd5e,61036d1894c7d8bd8f5eab71,2021-07-29_22h09.17.227,Simcolourproject_2stim_asymm_v5,2020.2.10,Win32,60,61025ae37ef11b136ea224fe,,,,,,,,,3058,39,35,1,0,0,response1disk,,6,-15,-4,1,0,0,rectangle,-15,-4,1,0,0,-15,-4,1,0,0,0,113,113,92,1,,,,,,,,
,,,,,,,,,,,,,FF,,,,,,,,1.2659,,,,,,,,,,,,,,,,,,,,,,60fe1a7271f4d1a459e0fd5e,61036d1894c7d8bd8f5eab71,2021-07-29_22h09.17.227,Simcolourproject_2stim_asymm_v5,2020.2.10,Win32,60,61025ae37ef11b136ea224fe,,,,,,,,,2299,43,22,1,0,0,response1disk,,6,-3,0,1,0,0,rectangle,-3,0,1,0,0,-3,0,1,0,0,0,114,114,61,1,,,,,,,,
,,,,,,,,,,,,,FF,,,,,,,,1.1662,,,,,,,,,,,,,,,,,,,,,,60fe1a7271f4d1a459e0fd5e,61036d1894c7d8bd8f5eab71,2021-07-29_22h09.17.227,Simcolourproject_2stim_asymm_v5,2020.2.10,Win32,60,61025ae37ef11b136ea224fe,,,,,,,,,3959,17,32,1,0,0,response1disk,,7,8,-6,1,0,0,rectangle,8,-6,1,0,0,8,-6,1,0,0,0,115,115,81,1,,,,,,,,
,,,,,,,,,,,,,FF,,,,,,,,1.0158,,,,,,,,,,,,,,,,,,,,,,60fe1a7271f4d1a459e0fd5e,61036d1894c7d8bd8f5eab71,2021-07-29_22h09.17.227,Simcolourproject_2stim_asymm_v5,2020.2.10,Win32,60,61025ae37ef11b136ea224fe,,,,,,,,,2235,56,24,1,0,0,response1disk,,6,25,1,1,0,0,rectangle,25,1,1,0,0,25,1,1,0,0,0,116,116,144,1,,,,,,,,
,,,,,,,,,,,,,FF,,,,,,,,1.1328,,,,,,,,,,,,,,,,,,,,,,60fe1a7271f4d1a459e0fd5e,61036d1894c7d8bd8f5eab71,2021-07-29_22h09.17.227,Simcolourproject_2stim_asymm_v5,2020.2.10,Win32,60,61025ae37ef11b136ea224fe,,,,,,,,,233,38,63,1,0,0,response1disk,,7,14,2,1,0,0,rectangle,14,2,1,0,0,14,2,1,0,0,0,117,117,140,1,,,,,,,,
,,,,,,,,,,,,,FF,,,,,,,,1.1155,,,,,,,,,,,,,,,,,,,,,,60fe1a7271f4d1a459e0fd5e,61036d1894c7d8bd8f5eab71,2021-07-29_22h09.17.227,Simcolourproject_2stim_asymm_v5,2020.2.10,Win32,60,61025ae37ef11b136ea224fe,,,,,,,,,3650,25,41,1,0,0,response1disk,,7,12,3,1,0,0,rectangle,12,3,1,0,0,12,3,1,0,0,0,118,118,69,1,,,,,,,,
,,,,,,,,,,,,,FF,,,,,,,,2.0151,,,,,,,,,,,,,,,,,,,,,,60fe1a7271f4d1a459e0fd5e,61036d1894c7d8bd8f5eab71,2021-07-29_22h09.17.227,Simcolourproject_2stim_asymm_v5,2020.2.10,Win32,60,61025ae37ef11b136ea224fe,,,,,,,,,1378,22,82,1,0,0,response1disk,,7,-3,-7,1,0,0,rectangle,-3,-7,1,0,0,-3,-7,1,0,0,0,119,119,101,1,,,,,,,,
,,,,,,,,,,,,,FF,,,,,,,,1.5808,,,,,,,,,,,,,,,,,,,,,,60fe1a7271f4d1a459e0fd5e,61036d1894c7d8bd8f5eab71,2021-07-29_22h09.17.227,Simcolourproject_2stim_asymm_v5,2020.2.10,Win32,60,61025ae37ef11b136ea224fe,,,,,,,,,3330,24,55,1,0,0,response1disk,,7,-3,-4,1,0,0,rectangle,-3,-4,1,0,0,-3,-4,1,0,0,0,120,120,78,1,,,,,,,,
,,,,,,,,,,,,,FF,,,,,,,,1.6833,,,,,,,,,,,,,,,,,,,,,,60fe1a7271f4d1a459e0fd5e,61036d1894c7d8bd8f5eab71,2021-07-29_22h09.17.227,Simcolourproject_2stim_asymm_v5,2020.2.10,Win32,60,61025ae37ef11b136ea224fe,,,,,,,,,45,31,88,1,0,0,response1disk,,7,5,10,1,0,0,rectangle,5,10,1,0,0,5,10,1,0,0,0,121,121,156,1,,,,,,,,
,,,,,,,,,,,,,FF,,,,,,,,1.1825,,,,,,,,,,,,,,,,,,,,,,60fe1a7271f4d1a459e0fd5e,61036d1894c7d8bd8f5eab71,2021-07-29_22h09.17.227,Simcolourproject_2stim_asymm_v5,2020.2.10,Win32,60,61025ae37ef11b136ea224fe,,,,,,,,,1462,118,37,1,0,0,response1disk,,6,21,1,1,0,0,rectangle,21,1,1,0,0,21,1,1,0,0,0,122,122,0,1,,,,,,,,
,,,,,,,,,,,,,FF,,,,,,,,0.8999,,,,,,,,,,,,,,,,,,,,,,60fe1a7271f4d1a459e0fd5e,61036d1894c7d8bd8f5eab71,2021-07-29_22h09.17.227,Simcolourproject_2stim_asymm_v5,2020.2.10,Win32,60,61025ae37ef11b136ea224fe,,,,,,,,,1085,57,68,1,0,0,response1disk,,7,28,6,1,0,0,rectangle,28,6,1,0,0,28,6,1,0,0,0,123,123,126,1,,,,,,,,
,,,,,,,,,,,,,FF,,,,,,,,2.3148,,,,,,,,,,,,,,,,,,,,,,60fe1a7271f4d1a459e0fd5e,61036d1894c7d8bd8f5eab71,2021-07-29_22h09.17.227,Simcolourproject_2stim_asymm_v5,2020.2.10,Win32,60,61025ae37ef11b136ea224fe,,,,,,,,,3943,-43,-74,1,0,0,response5disk,,3,3,-9,1,0,0,rectangle,3,-9,1,0,0,3,-9,1,0,0,0,124,124,68,1,,,,,,,,
,,,,,,,,,,,,,FF,,,,,,,,1.2159,,,,,,,,,,,,,,,,,,,,,,60fe1a7271f4d1a459e0fd5e,61036d1894c7d8bd8f5eab71,2021-07-29_22h09.17.227,Simcolourproject_2stim_asymm_v5,2020.2.10,Win32,60,61025ae37ef11b136ea224fe,,,,,,,,,2625,42,67,1,0,0,response1disk,,7,14,8,1,0,0,rectangle,14,8,1,0,0,14,8,1,0,0,0,125,125,95,1,,,,,,,,
,,,,,,,,,,,,,FF,,,,,,,,1.2659,,,,,,,,,,,,,,,,,,,,,,60fe1a7271f4d1a459e0fd5e,61036d1894c7d8bd8f5eab71,2021-07-29_22h09.17.227,Simcolourproject_2stim_asymm_v5,2020.2.10,Win32,60,61025ae37ef11b136ea224fe,,,,,,,,,4024,-41,-74,1,0,0,response5disk,,3,9,-3,1,0,0,rectangle,9,-3,1,0,0,9,-3,1,0,0,0,126,126,138,1,,,,,,,,
,,,,,,,,,,,,,FF,,,,,,,,0.9827,,,,,,,,,,,,,,,,,,,,,,60fe1a7271f4d1a459e0fd5e,61036d1894c7d8bd8f5eab71,2021-07-29_22h09.17.227,Simcolourproject_2stim_asymm_v5,2020.2.10,Win32,60,61025ae37ef11b136ea224fe,,,,,,,,,436,54,86,1,0,0,response1disk,,7,20,10,1,0,0,rectangle,20,10,1,0,0,20,10,1,0,0,0,127,127,83,1,,,,,,,,
,,,,,,,,,,,,,FF,,,,,,,,1.0495,,,,,,,,,,,,,,,,,,,,,,60fe1a7271f4d1a459e0fd5e,61036d1894c7d8bd8f5eab71,2021-07-29_22h09.17.227,Simcolourproject_2stim_asymm_v5,2020.2.10,Win32,60,61025ae37ef11b136ea224fe,,,,,,,,,687,27,38,1,0,0,response1disk,,7,0,1,1,0,0,rectangle,0,1,1,0,0,0,1,1,0,0,0,128,128,20,1,,,,,,,,
,,,,,,,,,,,,,FF,,,,,,,,1.1329,,,,,,,,,,,,,,,,,,,,,,60fe1a7271f4d1a459e0fd5e,61036d1894c7d8bd8f5eab71,2021-07-29_22h09.17.227,Simcolourproject_2stim_asymm_v5,2020.2.10,Win32,60,61025ae37ef11b136ea224fe,,,,,,,,,48,31,49,1,0,0,response1disk,,7,4,-5,1,0,0,rectangle,4,-5,1,0,0,4,-5,1,0,0,0,129,129,25,1,,,,,,,,
,,,,,,,,,,,,,FF,,,,,,,,1.083,,,,,,,,,,,,,,,,,,,,,,60fe1a7271f4d1a459e0fd5e,61036d1894c7d8bd8f5eab71,2021-07-29_22h09.17.227,Simcolourproject_2stim_asymm_v5,2020.2.10,Win32,60,61025ae37ef11b136ea224fe,,,,,,,,,3341,43,57,1,0,0,response1disk,,7,21,4,1,0,0,rectangle,21,4,1,0,0,21,4,1,0,0,0,130,130,10,1,,,,,,,,
,,,,,,,,,,,,,FF,,,,,,,,1.3322,,,,,,,,,,,,,,,,,,,,,,60fe1a7271f4d1a459e0fd5e,61036d1894c7d8bd8f5eab71,2021-07-29_22h09.17.227,Simcolourproject_2stim_asymm_v5,2020.2.10,Win32,60,61025ae37ef11b136ea224fe,,,,,,,,,1429,34,67,1,0,0,response1disk,,7,1,-8,1,0,0,rectangle,1,-8,1,0,0,1,-8,1,0,0,0,131,131,98,1,,,,,,,,
,,,,,,,,,,,,,FF,,,,,,,,1.732,,,,,,,,,,,,,,,,,,,,,,60fe1a7271f4d1a459e0fd5e,61036d1894c7d8bd8f5eab71,2021-07-29_22h09.17.227,Simcolourproject_2stim_asymm_v5,2020.2.10,Win32,60,61025ae37ef11b136ea224fe,,,,,,,,,1201,77,47,1,0,0,response1disk,,6,23,-3,1,0,0,rectangle,23,-3,1,0,0,23,-3,1,0,0,0,132,132,91,1,,,,,,,,
,,,,,,,,,,,,,FF,,,,,,,,1.0329,,,,,,,,,,,,,,,,,,,,,,60fe1a7271f4d1a459e0fd5e,61036d1894c7d8bd8f5eab71,2021-07-29_22h09.17.227,Simcolourproject_2stim_asymm_v5,2020.2.10,Win32,60,61025ae37ef11b136ea224fe,,,,,,,,,1850,84,107,1,0,0,response1disk,,7,17,0,1,0,0,rectangle,17,0,1,0,0,17,0,1,0,0,0,133,133,143,1,,,,,,,,
,,,,,,,,,,,,,FF,,,,,,,,1.1005,,,,,,,,,,,,,,,,,,,,,,60fe1a7271f4d1a459e0fd5e,61036d1894c7d8bd8f5eab71,2021-07-29_22h09.17.227,Simcolourproject_2stim_asymm_v5,2020.2.10,Win32,60,61025ae37ef11b136ea224fe,,,,,,,,,1998,50,74,1,0,0,response1disk,,7,13,6,1,0,0,rectangle,13,6,1,0,0,13,6,1,0,0,0,134,134,107,1,,,,,,,,
,,,,,,,,,,,,,FF,,,,,,,,1.2992,,,,,,,,,,,,,,,,,,,,,,60fe1a7271f4d1a459e0fd5e,61036d1894c7d8bd8f5eab71,2021-07-29_22h09.17.227,Simcolourproject_2stim_asymm_v5,2020.2.10,Win32,60,61025ae37ef11b136ea224fe,,,,,,,,,3998,-60,-43,1,0,0,response5disk,,2,14,-4,1,0,0,rectangle,14,-4,1,0,0,14,-4,1,0,0,0,135,135,121,1,,,,,,,,
,,,,,,,,,,,,,FF,,,,,,,,1.066,,,,,,,,,,,,,,,,,,,,,,60fe1a7271f4d1a459e0fd5e,61036d1894c7d8bd8f5eab71,2021-07-29_22h09.17.227,Simcolourproject_2stim_asymm_v5,2020.2.10,Win32,60,61025ae37ef11b136ea224fe,,,,,,,,,2503,65,77,1,0,0,response1disk,,7,28,1,1,0,0,rectangle,28,1,1,0,0,28,1,1,0,0,0,136,136,104,1,,,,,,,,
,,,,,,,,,,,,,FF,,,,,,,,1.0997,,,,,,,,,,,,,,,,,,,,,,60fe1a7271f4d1a459e0fd5e,61036d1894c7d8bd8f5eab71,2021-07-29_22h09.17.227,Simcolourproject_2stim_asymm_v5,2020.2.10,Win32,60,61025ae37ef11b136ea224fe,,,,,,,,,1463,49,56,1,0,0,response1disk,,7,23,-2,1,0,0,rectangle,23,-2,1,0,0,23,-2,1,0,0,0,137,137,147,1,,,,,,,,
,,,,,,,,,,,,,FF,,,,,,,,1.2991,,,,,,,,,,,,,,,,,,,,,,60fe1a7271f4d1a459e0fd5e,61036d1894c7d8bd8f5eab71,2021-07-29_22h09.17.227,Simcolourproject_2stim_asymm_v5,2020.2.10,Win32,60,61025ae37ef11b136ea224fe,,,,,,,,,3814,-30,-44,1,0,0,response5disk,,3,-2,-8,1,0,0,rectangle,-2,-8,1,0,0,-2,-8,1,0,0,0,138,138,142,1,,,,,,,,
,,,,,,,,,,,,,FF,,,,,,,,3.2479,,,,,,,,,,,,,,,,,,,,,,60fe1a7271f4d1a459e0fd5e,61036d1894c7d8bd8f5eab71,2021-07-29_22h09.17.227,Simcolourproject_2stim_asymm_v5,2020.2.10,Win32,60,61025ae37ef11b136ea224fe,,,,,,,,,3091,47,64,1,0,0,response1disk,,7,19,-1,1,0,0,rectangle,19,-1,1,0,0,19,-1,1,0,0,0,139,139,51,1,,,,,,,,
,,,,,,,,,,,,,FF,,,,,,,,1.9807,,,,,,,,,,,,,,,,,,,,,,60fe1a7271f4d1a459e0fd5e,61036d1894c7d8bd8f5eab71,2021-07-29_22h09.17.227,Simcolourproject_2stim_asymm_v5,2020.2.10,Win32,60,61025ae37ef11b136ea224fe,,,,,,,,,3979,34,73,1,0,0,response1disk,,7,13,-4,1,0,0,rectangle,13,-4,1,0,0,13,-4,1,0,0,0,140,140,75,1,,,,,,,,
,,,,,,,,,,,,,FF,,,,,,,,0.9662,,,,,,,,,,,,,,,,,,,,,,60fe1a7271f4d1a459e0fd5e,61036d1894c7d8bd8f5eab71,2021-07-29_22h09.17.227,Simcolourproject_2stim_asymm_v5,2020.2.10,Win32,60,61025ae37ef11b136ea224fe,,,,,,,,,3509,52,75,1,0,0,response1disk,,7,7,-3,1,0,0,rectangle,7,-3,1,0,0,7,-3,1,0,0,0,141,141,127,1,,,,,,,,
,,,,,,,,,,,,,FF,,,,,,,,1.6325,,,,,,,,,,,,,,,,,,,,,,60fe1a7271f4d1a459e0fd5e,61036d1894c7d8bd8f5eab71,2021-07-29_22h09.17.227,Simcolourproject_2stim_asymm_v5,2020.2.10,Win32,60,61025ae37ef11b136ea224fe,,,,,,,,,1218,67,-36,1,0,0,response3disk,,5,18,-2,1,0,0,rectangle,18,-2,1,0,0,18,-2,1,0,0,0,142,142,21,1,,,,,,,,
,,,,,,,,,,,,,FF,,,,,,,,2.1485,,,,,,,,,,,,,,,,,,,,,,60fe1a7271f4d1a459e0fd5e,61036d1894c7d8bd8f5eab71,2021-07-29_22h09.17.227,Simcolourproject_2stim_asymm_v5,2020.2.10,Win32,60,61025ae37ef11b136ea224fe,,,,,,,,,3593,33,57,1,0,0,response1disk,,7,-3,3,1,0,0,rectangle,101,-26,1,0,0,33,3,1,0,0,0,143,143,154,1,,response3disk_3,TRUE,5,5,"[42,194,315,282,280,198,176,2,181,242,15,144,49,229,306,176,147,170,76,235]",2.5494,rectangle
,,,,,,,,,,,,,FF,,,,,,,,2.2146,,,,,,,,,,,,,,,,,,,,,,60fe1a7271f4d1a459e0fd5e,61036d1894c7d8bd8f5eab71,2021-07-29_22h09.17.227,Simcolourproject_2stim_asymm_v5,2020.2.10,Win32,60,61025ae37ef11b136ea224fe,,,,,,,,,1286,57,-42,1,0,0,response3disk,,5,25,-3,1,0,0,rectangle,25,-3,1,0,0,25,-3,1,0,0,0,144,144,110,1,,,,,,,,
,,,,,,,,,,,,,FF,,,,,,,,0.9661,,,,,,,,,,,,,,,,,,,,,,60fe1a7271f4d1a459e0fd5e,61036d1894c7d8bd8f5eab71,2021-07-29_22h09.17.227,Simcolourproject_2stim_asymm_v5,2020.2.10,Win32,60,61025ae37ef11b136ea224fe,,,,,,,,,229,48,61,1,0,0,response1disk,,7,1,-2,1,0,0,rectangle,1,-2,1,0,0,1,-2,1,0,0,0,145,145,72,1,,,,,,,,
,,,,,,,,,,,,,FF,,,,,,,,0.9162,,,,,,,,,,,,,,,,,,,,,,60fe1a7271f4d1a459e0fd5e,61036d1894c7d8bd8f5eab71,2021-07-29_22h09.17.227,Simcolourproject_2stim_asymm_v5,2020.2.10,Win32,60,61025ae37ef11b136ea224fe,,,,,,,,,1956,-27,47,1,0,0,response7disk,,0,-11,-1,1,0,0,rectangle,-26,59,1,0,0,1,-7,1,0,0,0,146,146,22,1,,response7disk_3,TRUE,0,0,"[42,194,315,282,280,198,176,2,181,242,15,144,49,229,306,176,147,170,76,235]",2.0141,rectangle
,,,,,,,,,,,,,FF,,,,,,,,1.1988,,,,,,,,,,,,,,,,,,,,,,60fe1a7271f4d1a459e0fd5e,61036d1894c7d8bd8f5eab71,2021-07-29_22h09.17.227,Simcolourproject_2stim_asymm_v5,2020.2.10,Win32,60,61025ae37ef11b136ea224fe,,,,,,,,,3910,-30,-75,1,0,0,response5disk,,3,-6,-5,1,0,0,rectangle,-6,-5,1,0,0,-6,-5,1,0,0,0,147,147,120,1,,,,,,,,
,,,,,,,,,,,,,FF,,,,,,,,0.9997,,,,,,,,,,,,,,,,,,,,,,60fe1a7271f4d1a459e0fd5e,61036d1894c7d8bd8f5eab71,2021-07-29_22h09.17.227,Simcolourproject_2stim_asymm_v5,2020.2.10,Win32,60,61025ae37ef11b136ea224fe,,,,,,,,,2649,41,83,1,0,0,response1disk,,7,28,7,1,0,0,rectangle,28,7,1,0,0,28,7,1,0,0,0,148,148,7,1,,,,,,,,
,,,,,,,,,,,,,FF,,,,,,,,1.233,,,,,,,,,,,,,,,,,,,,,,60fe1a7271f4d1a459e0fd5e,61036d1894c7d8bd8f5eab71,2021-07-29_22h09.17.227,Simcolourproject_2stim_asymm_v5,2020.2.10,Win32,60,61025ae37ef11b136ea224fe,,,,,,,,,3298,55,29,1,0,0,response1disk,,6,18,-4,1,0,0,rectangle,18,-4,1,0,0,18,-4,1,0,0,0,149,149,35,1,,,,,,,,
,,,,,,,,,,,,,FF,,,,,,,,0.9498,,,,,,,,,,,,,,,,,,,,,,60fe1a7271f4d1a459e0fd5e,61036d1894c7d8bd8f5eab71,2021-07-29_22h09.17.227,Simcolourproject_2stim_asymm_v5,2020.2.10,Win32,60,61025ae37ef11b136ea224fe,,,,,,,,,2014,21,71,1,0,0,response1disk,,7,0,-2,1,0,0,rectangle,0,-2,1,0,0,0,-2,1,0,0,0,150,150,94,1,,,,,,,,
,,,,,,,,,,,,,FF,,,,,,,,1.8488,,,,,,,,,,,,,,,,,,,,,,60fe1a7271f4d1a459e0fd5e,61036d1894c7d8bd8f5eab71,2021-07-29_22h09.17.227,Simcolourproject_2stim_asymm_v5,2020.2.10,Win32,60,61025ae37ef11b136ea224fe,,,,,,,,,180,20,68,1,0,0,response1disk,,7,0,10,1,0,0,rectangle,0,10,1,0,0,0,10,1,0,0,0,151,151,73,1,,,,,,,,
,,,,,,,,,,,,,FF,,,,,,,,0.9831,,,,,,,,,,,,,,,,,,,,,,60fe1a7271f4d1a459e0fd5e,61036d1894c7d8bd8f5eab71,2021-07-29_22h09.17.227,Simcolourproject_2stim_asymm_v5,2020.2.10,Win32,60,61025ae37ef11b136ea224fe,,,,,,,,,1492,41,74,1,0,0,response1disk,,7,2,-4,1,0,0,rectangle,2,-4,1,0,0,2,-4,1,0,0,0,152,152,112,1,,,,,,,,
,,,,,,,,,,,,,FF,,,,,,,,1.4836,,,,,,,,,,,,,,,,,,,,,,60fe1a7271f4d1a459e0fd5e,61036d1894c7d8bd8f5eab71,2021-07-29_22h09.17.227,Simcolourproject_2stim_asymm_v5,2020.2.10,Win32,60,61025ae37ef11b136ea224fe,,,,,,,,,186,69,52,1,0,0,response1disk,,6,4,0,1,0,0,rectangle,4,0,1,0,0,4,0,1,0,0,0,153,153,135,1,,,,,,,,
,,,,,,,,,,,,,FF,,,,,,,,1.9154,,,,,,,,,,,,,,,,,,,,,,60fe1a7271f4d1a459e0fd5e,61036d1894c7d8bd8f5eab71,2021-07-29_22h09.17.227,Simcolourproject_2stim_asymm_v5,2020.2.10,Win32,60,61025ae37ef11b136ea224fe,,,,,,,,,1785,18,70,1,0,0,response1disk,,7,-5,8,1,0,0,rectangle,-5,8,1,0,0,-5,8,1,0,0,0,154,154,36,1,,,,,,,,
,,,,,,,,,,,,,FF,,,,,,,,1.0827,,,,,,,,,,,,,,,,,,,,,,60fe1a7271f4d1a459e0fd5e,61036d1894c7d8bd8f5eab71,2021-07-29_22h09.17.227,Simcolourproject_2stim_asymm_v5,2020.2.10,Win32,60,61025ae37ef11b136ea224fe,,,,,,,,,832,57,97,1,0,0,response1disk,,7,6,4,1,0,0,rectangle,6,4,1,0,0,6,4,1,0,0,0,155,155,80,1,,,,,,,,
,,,,,,,,,,,,,FF,,,,,,,,0.9337,,,,,,,,,,,,,,,,,,,,,,60fe1a7271f4d1a459e0fd5e,61036d1894c7d8bd8f5eab71,2021-07-29_22h09.17.227,Simcolourproject_2stim_asymm_v5,2020.2.10,Win32,60,61025ae37ef11b136ea224fe,,,,,,,,,2725,60,102,1,0,0,response1disk,,7,11,0,1,0,0,rectangle,11,0,1,0,0,11,0,1,0,0,0,156,156,151,1,,,,,,,,
,,,,,,,,,,,,,FF,,,,,,,,0.8819,,,,,,,,,,,,,,,,,,,,,,60fe1a7271f4d1a459e0fd5e,61036d1894c7d8bd8f5eab71,2021-07-29_22h09.17.227,Simcolourproject_2stim_asymm_v5,2020.2.10,Win32,60,61025ae37ef11b136ea224fe,,,,,,,,,2406,62,102,1,0,0,response1disk,,7,15,6,1,0,0,rectangle,15,6,1,0,0,15,6,1,0,0,0,157,157,15,1,,,,,,,,
,,,,,,,,,,,,,FF,,,,,,,,0.9836,,,,,,,,,,,,,,,,,,,,,,60fe1a7271f4d1a459e0fd5e,61036d1894c7d8bd8f5eab71,2021-07-29_22h09.17.227,Simcolourproject_2stim_asymm_v5,2020.2.10,Win32,60,61025ae37ef11b136ea224fe,,,,,,,,,2321,43,73,1,0,0,response1disk,,7,12,5,1,0,0,rectangle,12,5,1,0,0,12,5,1,0,0,0,158,158,159,1,,,,,,,,
,,,,,,,,,,,,,FF,,,,,,,,1.7498,,,,,,,,,,,,,,,,,,,,,,60fe1a7271f4d1a459e0fd5e,61036d1894c7d8bd8f5eab71,2021-07-29_22h09.17.227,Simcolourproject_2stim_asymm_v5,2020.2.10,Win32,60,61025ae37ef11b136ea224fe,,,,,,,,,2881,47,98,1,0,0,response1disk,,7,6,-10,1,0,0,rectangle,6,-10,1,0,0,6,-10,1,0,0,0,159,159,99,1,,,,,,,,
,,,,,,,,,,,,,FF,,,,,,,,1.2503,,,,,,,,,,,,,,,,,,,,,,60fe1a7271f4d1a459e0fd5e,61036d1894c7d8bd8f5eab71,2021-07-29_22h09.17.227,Simcolourproject_2stim_asymm_v5,2020.2.10,Win32,60,61025ae37ef11b136ea224fe,,,,,,,,,4327,20,39,1,0,0,response1disk,,7,-4,-5,1,0,0,rectangle,-4,-5,1,0,0,-4,-5,1,0,0,1,0,160,55,1,,,,,,,,
,,,,,,,,,,,,,FF,,,,,,,,0.9994,,,,,,,,,,,,,,,,,,,,,,60fe1a7271f4d1a459e0fd5e,61036d1894c7d8bd8f5eab71,2021-07-29_22h09.17.227,Simcolourproject_2stim_asymm_v5,2020.2.10,Win32,60,61025ae37ef11b136ea224fe,,,,,,,,,1229,29,78,1,0,0,response1disk,,7,-5,7,1,0,0,rectangle,-5,7,1,0,0,-5,7,1,0,0,1,1,161,105,1,,,,,,,,
,,,,,,,,,,,,,FF,,,,,,,,2.7307,,,,,,,,,,,,,,,,,,,,,,60fe1a7271f4d1a459e0fd5e,61036d1894c7d8bd8f5eab71,2021-07-29_22h09.17.227,Simcolourproject_2stim_asymm_v5,2020.2.10,Win32,60,61025ae37ef11b136ea224fe,,,,,,,,,4362,-60,-91,1,0,0,response5disk,,3,-21,2,1,0,0,rectangle,-21,2,1,0,0,-21,2,1,0,0,1,2,162,159,1,,,,,,,,
,,,,,,,,,,,,,FF,,,,,,,,0.9809,,,,,,,,,,,,,,,,,,,,,,60fe1a7271f4d1a459e0fd5e,61036d1894c7d8bd8f5eab71,2021-07-29_22h09.17.227,Simcolourproject_2stim_asymm_v5,2020.2.10,Win32,60,61025ae37ef11b136ea224fe,,,,,,,,,1479,25,77,1,0,0,response1disk,,7,-19,-14,1,0,0,rectangle,-19,-14,1,0,0,-19,-14,1,0,0,1,3,163,4,1,,,,,,,,
,,,,,,,,,,,,,FF,,,,,,,,1.0161,,,,,,,,,,,,,,,,,,,,,,60fe1a7271f4d1a459e0fd5e,61036d1894c7d8bd8f5eab71,2021-07-29_22h09.17.227,Simcolourproject_2stim_asymm_v5,2020.2.10,Win32,60,61025ae37ef11b136ea224fe,,,,,,,,,1489,16,53,1,0,0,response1disk,,7,-7,10,1,0,0,rectangle,-7,10,1,0,0,-7,10,1,0,0,1,4,164,115,1,,,,,,,,
,,,,,,,,,,,,,FF,,,,,,,,0.8826,,,,,,,,,,,,,,,,,,,,,,60fe1a7271f4d1a459e0fd5e,61036d1894c7d8bd8f5eab71,2021-07-29_22h09.17.227,Simcolourproject_2stim_asymm_v5,2020.2.10,Win32,60,61025ae37ef11b136ea224fe,,,,,,,,,570,38,87,1,0,0,response1disk,,7,10,1,1,0,0,rectangle,10,1,1,0,0,10,1,1,0,0,1,5,165,22,1,,,,,,,,
,,,,,,,,,,,,,FF,,,,,,,,1.0156,,,,,,,,,,,,,,,,,,,,,,60fe1a7271f4d1a459e0fd5e,61036d1894c7d8bd8f5eab71,2021-07-29_22h09.17.227,Simcolourproject_2stim_asymm_v5,2020.2.10,Win32,60,61025ae37ef11b136ea224fe,,,,,,,,,2300,36,54,1,0,0,response1disk,,7,4,10,1,0,0,rectangle,4,10,1,0,0,4,10,1,0,0,1,6,166,127,1,,,,,,,,
,,,,,,,,,,,,,FF,,,,,,,,0.9317,,,,,,,,,,,,,,,,,,,,,,60fe1a7271f4d1a459e0fd5e,61036d1894c7d8bd8f5eab71,2021-07-29_22h09.17.227,Simcolourproject_2stim_asymm_v5,2020.2.10,Win32,60,61025ae37ef11b136ea224fe,,,,,,,,,624,23,46,1,0,0,response1disk,,7,2,14,1,0,0,rectangle,2,14,1,0,0,2,14,1,0,0,1,7,167,70,1,,,,,,,,
,,,,,,,,,,,,,FF,,,,,,,,0.9661,,,,,,,,,,,,,,,,,,,,,,60fe1a7271f4d1a459e0fd5e,61036d1894c7d8bd8f5eab71,2021-07-29_22h09.17.227,Simcolourproject_2stim_asymm_v5,2020.2.10,Win32,60,61025ae37ef11b136ea224fe,,,,,,,,,3430,53,86,1,0,0,response1disk,,7,17,-4,1,0,0,rectangle,17,-4,1,0,0,17,-4,1,0,0,1,8,168,104,1,,,,,,,,
,,,,,,,,,,,,,FF,,,,,,,,1.0998,,,,,,,,,,,,,,,,,,,,,,60fe1a7271f4d1a459e0fd5e,61036d1894c7d8bd8f5eab71,2021-07-29_22h09.17.227,Simcolourproject_2stim_asymm_v5,2020.2.10,Win32,60,61025ae37ef11b136ea224fe,,,,,,,,,558,32,44,1,0,0,response1disk,,7,2,-7,1,0,0,rectangle,73,59,1,0,0,15,-5,1,0,0,1,9,169,85,1,,response1disk_3,TRUE,6,6,"[42,194,315,282,280,198,176,2,181,242,15,144,49,229,306,176,147,170,76,235]",2.2688,rectangle
,,,,,,,,,,,,,FF,,,,,,,,1.2657,,,,,,,,,,,,,,,,,,,,,,60fe1a7271f4d1a459e0fd5e,61036d1894c7d8bd8f5eab71,2021-07-29_22h09.17.227,Simcolourproject_2stim_asymm_v5,2020.2.10,Win32,60,61025ae37ef11b136ea224fe,,,,,,,,,3823,37,41,1,0,0,response1disk,,7,9,-10,1,0,0,rectangle,9,-10,1,0,0,9,-10,1,0,0,1,10,170,111,1,,,,,,,,
,,,,,,,,,,,,,FF,,,,,,,,0.8832,,,,,,,,,,,,,,,,,,,,,,60fe1a7271f4d1a459e0fd5e,61036d1894c7d8bd8f5eab71,2021-07-29_22h09.17.227,Simcolourproject_2stim_asymm_v5,2020.2.10,Win32,60,61025ae37ef11b136ea224fe,,,,,,,,,2114,18,31,1,0,0,response1disk,,7,1,3,1,0,0,rectangle,1,3,1,0,0,1,3,1,0,0,1,11,171,49,1,,,,,,,,
,,,,,,,,,,,,,FF,,,,,,,,1.0993,,,,,,,,,,,,,,,,,,,,,,60fe1a7271f4d1a459e0fd5e,61036d1894c7d8bd8f5eab71,2021-07-29_22h09.17.227,Simcolourproject_2stim_asymm_v5,2020.2.10,Win32,60,61025ae37ef11b136ea224fe,,,,,,,,,3566,27,62,1,0,0,response1disk,,7,1,5,1,0,0,rectangle,1,5,1,0,0,1,5,1,0,0,1,12,172,10,1,,,,,,,,
,,,,,,,,,,,,,FF,,,,,,,,1.0372,,,,,,,,,,,,,,,,,,,,,,60fe1a7271f4d1a459e0fd5e,61036d1894c7d8bd8f5eab71,2021-07-29_22h09.17.227,Simcolourproject_2stim_asymm_v5,2020.2.10,Win32,60,61025ae37ef11b136ea224fe,,,,,,,,,2969,19,45,1,0,0,response1disk,,7,2,7,1,0,0,rectangle,2,7,1,0,0,2,7,1,0,0,1,13,173,125,1,,,,,,,,
,,,,,,,,,,,,,FF,,,,,,,,0.9831,,,,,,,,,,,,,,,,,,,,,,60fe1a7271f4d1a459e0fd5e,61036d1894c7d8bd8f5eab71,2021-07-29_22h09.17.227,Simcolourproject_2stim_asymm_v5,2020.2.10,Win32,60,61025ae37ef11b136ea224fe,,,,,,,,,2538,39,67,1,0,0,response1disk,,7,17,0,1,0,0,rectangle,17,0,1,0,0,17,0,1,0,0,1,14,174,48,1,,,,,,,,
,,,,,,,,,,,,,FF,,,,,,,,1.3825,,,,,,,,,,,,,,,,,,,,,,60fe1a7271f4d1a459e0fd5e,61036d1894c7d8bd8f5eab71,2021-07-29_22h09.17.227,Simcolourproject_2stim_asymm_v5,2020.2.10,Win32,60,61025ae37ef11b136ea224fe,,,,,,,,,4099,51,35,1,0,0,response1disk,,6,-9,-14,1,0,0,rectangle,-86,-47,1,0,0,-30,-10,1,0,0,1,15,175,41,1,,response5disk_3,TRUE,2,2,"[42,194,315,282,280,198,176,2,181,242,15,144,49,229,306,176,147,170,76,235]",2.1463,rectangle
,,,,,,,,,,,,,FF,,,,,,,,1.1174,,,,,,,,,,,,,,,,,,,,,,60fe1a7271f4d1a459e0fd5e,61036d1894c7d8bd8f5eab71,2021-07-29_22h09.17.227,Simcolourproject_2stim_asymm_v5,2020.2.10,Win32,60,61025ae37ef11b136ea224fe,,,,,,,,,1151,18,65,1,0,0,response1disk,,7,2,4,1,0,0,rectangle,2,4,1,0,0,2,4,1,0,0,1,16,176,92,1,,,,,,,,
,,,,,,,,,,,,,FF,,,,,,,,1.0162,,,,,,,,,,,,,,,,,,,,,,60fe1a7271f4d1a459e0fd5e,61036d1894c7d8bd8f5eab71,2021-07-29_22h09.17.227,Simcolourproject_2stim_asymm_v5,2020.2.10,Win32,60,61025ae37ef11b136ea224fe,,,,,,,,,291,35,54,1,0,0,response1disk,,7,-6,-5,1,0,0,rectangle,-6,-5,1,0,0,-6,-5,1,0,0,1,17,177,63,1,,,,,,,,
,,,,,,,,,,,,,FF,,,,,,,,11.0069,,,,,,,,,,,,,,,,,,,,,,60fe1a7271f4d1a459e0fd5e,61036d1894c7d8bd8f5eab71,2021-07-29_22h09.17.227,Simcolourproject_2stim_asymm_v5,2020.2.10,Win32,60,61025ae37ef11b136ea224fe,,,,,,,,,482,52,115,1,0,0,response1disk,,7,6,11,1,0,0,rectangle,6,11,1,0,0,6,11,1,0,0,1,18,178,74,1,,,,,,,,
,,,,,,,,,,,,,FF,,,,,,,,1.0332,,,,,,,,,,,,,,,,,,,,,,60fe1a7271f4d1a459e0fd5e,61036d1894c7d8bd8f5eab71,2021-07-29_22h09.17.227,Simcolourproject_2stim_asymm_v5,2020.2.10,Win32,60,61025ae37ef11b136ea224fe,,,,,,,,,1897,63,108,1,0,0,response1disk,,7,5,4,1,0,0,rectangle,5,4,1,0,0,5,4,1,0,0,1,19,179,7,1,,,,,,,,
,,,,,,,,,,,,,FF,,,,,,,,1.4162,,,,,,,,,,,,,,,,,,,,,,60fe1a7271f4d1a459e0fd5e,61036d1894c7d8bd8f5eab71,2021-07-29_22h09.17.227,Simcolourproject_2stim_asymm_v5,2020.2.10,Win32,60,61025ae37ef11b136ea224fe,,,,,,,,,2354,36,59,1,0,0,response1disk,,7,15,9,1,0,0,rectangle,-33,96,1,0,0,-2,5,1,0,0,1,20,180,53,1,,response7disk_3,TRUE,0,0,"[42,194,315,282,280,198,176,2,181,242,15,144,49,229,306,176,147,170,76,235]",2.1008,rectangle
,,,,,,,,,,,,,FF,,,,,,,,1.2682,,,,,,,,,,,,,,,,,,,,,,60fe1a7271f4d1a459e0fd5e,61036d1894c7d8bd8f5eab71,2021-07-29_22h09.17.227,Simcolourproject_2stim_asymm_v5,2020.2.10,Win32,60,61025ae37ef11b136ea224fe,,,,,,,,,1678,24,52,1,0,0,response1disk,,7,4,3,1,0,0,rectangle,4,3,1,0,0,4,3,1,0,0,1,21,181,23,1,,,,,,,,
,,,,,,,,,,,,,FF,,,,,,,,0.9673,,,,,,,,,,,,,,,,,,,,,,60fe1a7271f4d1a459e0fd5e,61036d1894c7d8bd8f5eab71,2021-07-29_22h09.17.227,Simcolourproject_2stim_asymm_v5,2020.2.10,Win32,60,61025ae37ef11b136ea224fe,,,,,,,,,4040,29,60,1,0,0,response1disk,,7,7,3,1,0,0,rectangle,7,3,1,0,0,7,3,1,0,0,1,22,182,153,1,,,,,,,,
,,,,,,,,,,,,,FF,,,,,,,,0.9821,,,,,,,,,,,,,,,,,,,,,,60fe1a7271f4d1a459e0fd5e,61036d1894c7d8bd8f5eab71,2021-07-29_22h09.17.227,Simcolourproject_2stim_asymm_v5,2020.2.10,Win32,60,61025ae37ef11b136ea224fe,,,,,,,,,612,42,66,1,0,0,response1disk,,7,10,2,1,0,0,rectangle,10,2,1,0,0,10,2,1,0,0,1,23,183,108,1,,,,,,,,
,,,,,,,,,,,,,FF,,,,,,,,1.0162,,,,,,,,,,,,,,,,,,,,,,60fe1a7271f4d1a459e0fd5e,61036d1894c7d8bd8f5eab71,2021-07-29_22h09.17.227,Simcolourproject_2stim_asymm_v5,2020.2.10,Win32,60,61025ae37ef11b136ea224fe,,,,,,,,,2847,43,70,1,0,0,response1disk,,7,5,5,1,0,0,rectangle,5,5,1,0,0,5,5,1,0,0,1,24,184,47,1,,,,,,,,
,,,,,,,,,,,,,FF,,,,,,,,0.9663,,,,,,,,,,,,,,,,,,,,,,60fe1a7271f4d1a459e0fd5e,61036d1894c7d8bd8f5eab71,2021-07-29_22h09.17.227,Simcolourproject_2stim_asymm_v5,2020.2.10,Win32,60,61025ae37ef11b136ea224fe,,,,,,,,,926,43,81,1,0,0,response1disk,,7,12,1,1,0,0,rectangle,12,1,1,0,0,12,1,1,0,0,1,25,185,66,1,,,,,,,,
,,,,,,,,,,,,,FF,,,,,,,,1.083,,,,,,,,,,,,,,,,,,,,,,60fe1a7271f4d1a459e0fd5e,61036d1894c7d8bd8f5eab71,2021-07-29_22h09.17.227,Simcolourproject_2stim_asymm_v5,2020.2.10,Win32,60,61025ae37ef11b136ea224fe,,,,,,,,,1163,29,52,1,0,0,response1disk,,7,14,9,1,0,0,rectangle,14,9,1,0,0,14,9,1,0,0,1,26,186,51,1,,,,,,,,
,,,,,,,,,,,,,FF,,,,,,,,0.9488,,,,,,,,,,,,,,,,,,,,,,60fe1a7271f4d1a459e0fd5e,61036d1894c7d8bd8f5eab71,2021-07-29_22h09.17.227,Simcolourproject_2stim_asymm_v5,2020.2.10,Win32,60,61025ae37ef11b136ea224fe,,,,,,,,,1636,32,63,1,0,0,response1disk,,7,6,-1,1,0,0,rectangle,6,-1,1,0,0,6,-1,1,0,0,1,27,187,116,1,,,,,,,,
,,,,,,,,,,,,,FF,,,,,,,,1.8152,,,,,,,,,,,,,,,,,,,,,,60fe1a7271f4d1a459e0fd5e,61036d1894c7d8bd8f5eab71,2021-07-29_22h09.17.227,Simcolourproject_2stim_asymm_v5,2020.2.10,Win32,60,61025ae37ef11b136ea224fe,,,,,,,,,4142,80,39,1,0,0,response1disk,,6,6,-2,1,0,0,rectangle,6,-2,1,0,0,6,-2,1,0,0,1,28,188,87,1,,,,,,,,
,,,,,,,,,,,,,FF,,,,,,,,1.0164,,,,,,,,,,,,,,,,,,,,,,60fe1a7271f4d1a459e0fd5e,61036d1894c7d8bd8f5eab71,2021-07-29_22h09.17.227,Simcolourproject_2stim_asymm_v5,2020.2.10,Win32,60,61025ae37ef11b136ea224fe,,,,,,,,,111,34,59,1,0,0,response1disk,,7,3,-6,1,0,0,rectangle,3,-6,1,0,0,3,-6,1,0,0,1,29,189,17,1,,,,,,,,
,,,,,,,,,,,,,FF,,,,,,,,0.9496,,,,,,,,,,,,,,,,,,,,,,60fe1a7271f4d1a459e0fd5e,61036d1894c7d8bd8f5eab71,2021-07-29_22h09.17.227,Simcolourproject_2stim_asymm_v5,2020.2.10,Win32,60,61025ae37ef11b136ea224fe,,,,,,,,,979,43,100,1,0,0,response1disk,,7,9,7,1,0,0,rectangle,9,7,1,0,0,9,7,1,0,0,1,30,190,93,1,,,,,,,,
,,,,,,,,,,,,,FF,,,,,,,,0.9327,,,,,,,,,,,,,,,,,,,,,,60fe1a7271f4d1a459e0fd5e,61036d1894c7d8bd8f5eab71,2021-07-29_22h09.17.227,Simcolourproject_2stim_asymm_v5,2020.2.10,Win32,60,61025ae37ef11b136ea224fe,,,,,,,,,2190,32,59,1,0,0,response1disk,,7,10,6,1,0,0,rectangle,10,6,1,0,0,10,6,1,0,0,1,31,191,64,1,,,,,,,,
,,,,,,,,,,,,,FF,,,,,,,,0.9157,,,,,,,,,,,,,,,,,,,,,,60fe1a7271f4d1a459e0fd5e,61036d1894c7d8bd8f5eab71,2021-07-29_22h09.17.227,Simcolourproject_2stim_asymm_v5,2020.2.10,Win32,60,61025ae37ef11b136ea224fe,,,,,,,,,1501,39,81,1,0,0,response1disk,,7,15,10,1,0,0,rectangle,15,10,1,0,0,15,10,1,0,0,1,32,192,5,1,,,,,,,,
,,,,,,,,,,,,,FF,,,,,,,,0.999,,,,,,,,,,,,,,,,,,,,,,60fe1a7271f4d1a459e0fd5e,61036d1894c7d8bd8f5eab71,2021-07-29_22h09.17.227,Simcolourproject_2stim_asymm_v5,2020.2.10,Win32,60,61025ae37ef11b136ea224fe,,,,,,,,,3208,30,65,1,0,0,response1disk,,7,12,7,1,0,0,rectangle,33,65,1,0,0,9,1,1,0,0,1,33,193,67,1,,response1disk_3,TRUE,7,7,"[42,194,315,282,280,198,176,2,181,242,15,144,49,229,306,176,147,170,76,235]",1.5993,rectangle
,,,,,,,,,,,,,FF,,,,,,,,2.6146,,,,,,,,,,,,,,,,,,,,,,60fe1a7271f4d1a459e0fd5e,61036d1894c7d8bd8f5eab71,2021-07-29_22h09.17.227,Simcolourproject_2stim_asymm_v5,2020.2.10,Win32,60,61025ae37ef11b136ea224fe,,,,,,,,,2228,99,-50,1,0,0,response3disk,,5,9,-2,1,0,0,rectangle,9,-2,1,0,0,9,-2,1,0,0,1,34,194,79,1,,,,,,,,
,,,,,,,,,,,,,FF,,,,,,,,1.0328,,,,,,,,,,,,,,,,,,,,,,60fe1a7271f4d1a459e0fd5e,61036d1894c7d8bd8f5eab71,2021-07-29_22h09.17.227,Simcolourproject_2stim_asymm_v5,2020.2.10,Win32,60,61025ae37ef11b136ea224fe,,,,,,,,,2764,23,42,1,0,0,response1disk,,7,12,10,1,0,0,rectangle,12,10,1,0,0,12,10,1,0,0,1,35,195,57,1,,,,,,,,
,,,,,,,,,,,,,FF,,,,,,,,0.933,,,,,,,,,,,,,,,,,,,,,,60fe1a7271f4d1a459e0fd5e,61036d1894c7d8bd8f5eab71,2021-07-29_22h09.17.227,Simcolourproject_2stim_asymm_v5,2020.2.10,Win32,60,61025ae37ef11b136ea224fe,,,,,,,,,2249,28,56,1,0,0,response1disk,,7,9,4,1,0,0,rectangle,9,4,1,0,0,9,4,1,0,0,1,36,196,45,1,,,,,,,,
,,,,,,,,,,,,,FF,,,,,,,,1.0829,,,,,,,,,,,,,,,,,,,,,,60fe1a7271f4d1a459e0fd5e,61036d1894c7d8bd8f5eab71,2021-07-29_22h09.17.227,Simcolourproject_2stim_asymm_v5,2020.2.10,Win32,60,61025ae37ef11b136ea224fe,,,,,,,,,23,18,62,1,0,0,response1disk,,7,3,-1,1,0,0,rectangle,111,26,1,0,0,25,7,1,0,0,1,37,197,24,1,,response1disk_3,TRUE,6,6,"[42,194,315,282,280,198,176,2,181,242,15,144,49,229,306,176,147,170,76,235]",2.2132,rectangle
,,,,,,,,,,,,,FF,,,,,,,,1.1837,,,,,,,,,,,,,,,,,,,,,,60fe1a7271f4d1a459e0fd5e,61036d1894c7d8bd8f5eab71,2021-07-29_22h09.17.227,Simcolourproject_2stim_asymm_v5,2020.2.10,Win32,60,61025ae37ef11b136ea224fe,,,,,,,,,4155,45,69,1,0,0,response1disk,,7,11,-9,1,0,0,rectangle,11,-9,1,0,0,11,-9,1,0,0,1,38,198,77,1,,,,,,,,
,,,,,,,,,,,,,FF,,,,,,,,1.7323,,,,,,,,,,,,,,,,,,,,,,60fe1a7271f4d1a459e0fd5e,61036d1894c7d8bd8f5eab71,2021-07-29_22h09.17.227,Simcolourproject_2stim_asymm_v5,2020.2.10,Win32,60,61025ae37ef11b136ea224fe,,,,,,,,,633,95,-49,1,0,0,response3disk,,5,11,-10,1,0,0,rectangle,11,-10,1,0,0,11,-10,1,0,0,1,39,199,145,1,,,,,,,,
,,,,,,,,,,,,,FF,,,,,,,,2.0304,,,,,,,,,,,,,,,,,,,,,,60fe1a7271f4d1a459e0fd5e,61036d1894c7d8bd8f5eab71,2021-07-29_22h09.17.227,Simcolourproject_2stim_asymm_v5,2020.2.10,Win32,60,61025ae37ef11b136ea224fe,,,,,,,,,2611,50,82,1,0,0,response1disk,,7,10,7,1,0,0,rectangle,10,7,1,0,0,10,7,1,0,0,1,40,200,101,1,,,,,,,,
,,,,,,,,,,,,,FF,,,,,,,,2.4488,,,,,,,,,,,,,,,,,,,,,,60fe1a7271f4d1a459e0fd5e,61036d1894c7d8bd8f5eab71,2021-07-29_22h09.17.227,Simcolourproject_2stim_asymm_v5,2020.2.10,Win32,60,61025ae37ef11b136ea224fe,,,,,,,,,3156,78,50,1,0,0,response1disk,,6,7,-3,1,0,0,rectangle,7,-3,1,0,0,7,-3,1,0,0,1,41,201,119,1,,,,,,,,
,,,,,,,,,,,,,FF,,,,,,,,2.6475,,,,,,,,,,,,,,,,,,,,,,60fe1a7271f4d1a459e0fd5e,61036d1894c7d8bd8f5eab71,2021-07-29_22h09.17.227,Simcolourproject_2stim_asymm_v5,2020.2.10,Win32,60,61025ae37ef11b136ea224fe,,,,,,,,,892,68,117,1,0,0,response1disk,,7,10,-3,1,0,0,rectangle,10,-3,1,0,0,10,-3,1,0,0,1,42,202,103,1,,,,,,,,
,,,,,,,,,,,,,FF,,,,,,,,0.9162,,,,,,,,,,,,,,,,,,,,,,60fe1a7271f4d1a459e0fd5e,61036d1894c7d8bd8f5eab71,2021-07-29_22h09.17.227,Simcolourproject_2stim_asymm_v5,2020.2.10,Win32,60,61025ae37ef11b136ea224fe,,,,,,,,,1844,39,60,1,0,0,response1disk,,7,3,-14,1,0,0,rectangle,3,-14,1,0,0,3,-14,1,0,0,1,43,203,132,1,,,,,,,,
,,,,,,,,,,,,,FF,,,,,,,,0.883,,,,,,,,,,,,,,,,,,,,,,60fe1a7271f4d1a459e0fd5e,61036d1894c7d8bd8f5eab71,2021-07-29_22h09.17.227,Simcolourproject_2stim_asymm_v5,2020.2.10,Win32,60,61025ae37ef11b136ea224fe,,,,,,,,,3655,35,71,1,0,0,response1disk,,7,13,6,1,0,0,rectangle,13,6,1,0,0,13,6,1,0,0,1,44,204,2,1,,,,,,,,
,,,,,,,,,,,,,FF,,,,,,,,1.1657,,,,,,,,,,,,,,,,,,,,,,60fe1a7271f4d1a459e0fd5e,61036d1894c7d8bd8f5eab71,2021-07-29_22h09.17.227,Simcolourproject_2stim_asymm_v5,2020.2.10,Win32,60,61025ae37ef11b136ea224fe,,,,,,,,,1611,39,24,1,0,0,response1disk,,6,9,-9,1,0,0,rectangle,9,-9,1,0,0,9,-9,1,0,0,1,45,205,112,1,,,,,,,,
,,,,,,,,,,,,,FF,,,,,,,,0.9826,,,,,,,,,,,,,,,,,,,,,,60fe1a7271f4d1a459e0fd5e,61036d1894c7d8bd8f5eab71,2021-07-29_22h09.17.227,Simcolourproject_2stim_asymm_v5,2020.2.10,Win32,60,61025ae37ef11b136ea224fe,,,,,,,,,3574,21,52,1,0,0,response1disk,,7,10,8,1,0,0,rectangle,10,8,1,0,0,10,8,1,0,0,1,46,206,12,1,,,,,,,,
,,,,,,,,,,,,,FF,,,,,,,,0.8497,,,,,,,,,,,,,,,,,,,,,,60fe1a7271f4d1a459e0fd5e,61036d1894c7d8bd8f5eab71,2021-07-29_22h09.17.227,Simcolourproject_2stim_asymm_v5,2020.2.10,Win32,60,61025ae37ef11b136ea224fe,,,,,,,,,608,27,57,1,0,0,response1disk,,7,14,-11,1,0,0,rectangle,14,-11,1,0,0,14,-11,1,0,0,1,47,207,30,1,,,,,,,,
,,,,,,,,,,,,,FF,,,,,,,,1.0829,,,,,,,,,,,,,,,,,,,,,,60fe1a7271f4d1a459e0fd5e,61036d1894c7d8bd8f5eab71,2021-07-29_22h09.17.227,Simcolourproject_2stim_asymm_v5,2020.2.10,Win32,60,61025ae37ef11b136ea224fe,,,,,,,,,3956,34,50,1,0,0,response1disk,,7,23,-15,1,0,0,rectangle,23,-15,1,0,0,23,-15,1,0,0,1,48,208,16,1,,,,,,,,
,,,,,,,,,,,,,FF,,,,,,,,1.3828,,,,,,,,,,,,,,,,,,,,,,60fe1a7271f4d1a459e0fd5e,61036d1894c7d8bd8f5eab71,2021-07-29_22h09.17.227,Simcolourproject_2stim_asymm_v5,2020.2.10,Win32,60,61025ae37ef11b136ea224fe,,,,,,,,,1317,71,42,1,0,0,response1disk,,6,10,6,1,0,0,rectangle,10,6,1,0,0,10,6,1,0,0,1,49,209,11,1,,,,,,,,
,,,,,,,,,,,,,FF,,,,,,,,0.915,,,,,,,,,,,,,,,,,,,,,,60fe1a7271f4d1a459e0fd5e,61036d1894c7d8bd8f5eab71,2021-07-29_22h09.17.227,Simcolourproject_2stim_asymm_v5,2020.2.10,Win32,60,61025ae37ef11b136ea224fe,,,,,,,,,2528,34,80,1,0,0,response1disk,,7,14,8,1,0,0,rectangle,14,8,1,0,0,14,8,1,0,0,1,50,210,124,1,,,,,,,,
,,,,,,,,,,,,,FF,,,,,,,,0.917,,,,,,,,,,,,,,,,,,,,,,60fe1a7271f4d1a459e0fd5e,61036d1894c7d8bd8f5eab71,2021-07-29_22h09.17.227,Simcolourproject_2stim_asymm_v5,2020.2.10,Win32,60,61025ae37ef11b136ea224fe,,,,,,,,,4169,43,51,1,0,0,response1disk,,7,21,-2,1,0,0,rectangle,21,-2,1,0,0,21,-2,1,0,0,1,51,211,6,1,,,,,,,,
,,,,,,,,,,,,,FF,,,,,,,,0.8513,,,,,,,,,,,,,,,,,,,,,,60fe1a7271f4d1a459e0fd5e,61036d1894c7d8bd8f5eab71,2021-07-29_22h09.17.227,Simcolourproject_2stim_asymm_v5,2020.2.10,Win32,60,61025ae37ef11b136ea224fe,,,,,,,,,224,49,77,1,0,0,response1disk,,7,23,-8,1,0,0,rectangle,23,-8,1,0,0,23,-8,1,0,0,1,52,212,99,1,,,,,,,,
,,,,,,,,,,,,,FF,,,,,,,,1.0994,,,,,,,,,,,,,,,,,,,,,,60fe1a7271f4d1a459e0fd5e,61036d1894c7d8bd8f5eab71,2021-07-29_22h09.17.227,Simcolourproject_2stim_asymm_v5,2020.2.10,Win32,60,61025ae37ef11b136ea224fe,,,,,,,,,3721,41,74,1,0,0,response1disk,,7,12,13,1,0,0,rectangle,12,13,1,0,0,12,13,1,0,0,1,53,213,72,1,,,,,,,,
,,,,,,,,,,,,,FF,,,,,,,,1.116,,,,,,,,,,,,,,,,,,,,,,60fe1a7271f4d1a459e0fd5e,61036d1894c7d8bd8f5eab71,2021-07-29_22h09.17.227,Simcolourproject_2stim_asymm_v5,2020.2.10,Win32,60,61025ae37ef11b136ea224fe,,,,,,,,,989,41,83,1,0,0,response1disk,,7,16,8,1,0,0,rectangle,16,8,1,0,0,16,8,1,0,0,1,54,214,149,1,,,,,,,,
,,,,,,,,,,,,,FF,,,,,,,,0.8834,,,,,,,,,,,,,,,,,,,,,,60fe1a7271f4d1a459e0fd5e,61036d1894c7d8bd8f5eab71,2021-07-29_22h09.17.227,Simcolourproject_2stim_asymm_v5,2020.2.10,Win32,60,61025ae37ef11b136ea224fe,,,,,,,,,2451,38,61,1,0,0,response1disk,,7,18,6,1,0,0,rectangle,18,6,1,0,0,18,6,1,0,0,1,55,215,143,1,,,,,,,,
,,,,,,,,,,,,,FF,,,,,,,,1.1328,,,,,,,,,,,,,,,,,,,,,,60fe1a7271f4d1a459e0fd5e,61036d1894c7d8bd8f5eab71,2021-07-29_22h09.17.227,Simcolourproject_2stim_asymm_v5,2020.2.10,Win32,60,61025ae37ef11b136ea224fe,,,,,,,,,4256,30,50,1,0,0,response1disk,,7,8,4,1,0,0,rectangle,8,4,1,0,0,8,4,1,0,0,1,56,216,69,1,,,,,,,,
,,,,,,,,,,,,,FF,,,,,,,,1.1824,,,,,,,,,,,,,,,,,,,,,,60fe1a7271f4d1a459e0fd5e,61036d1894c7d8bd8f5eab71,2021-07-29_22h09.17.227,Simcolourproject_2stim_asymm_v5,2020.2.10,Win32,60,61025ae37ef11b136ea224fe,,,,,,,,,891,35,36,1,0,0,response1disk,,7,2,-9,1,0,0,rectangle,2,-9,1,0,0,2,-9,1,0,0,1,57,217,27,1,,,,,,,,
,,,,,,,,,,,,,FF,,,,,,,,0.9496,,,,,,,,,,,,,,,,,,,,,,60fe1a7271f4d1a459e0fd5e,61036d1894c7d8bd8f5eab71,2021-07-29_22h09.17.227,Simcolourproject_2stim_asymm_v5,2020.2.10,Win32,60,61025ae37ef11b136ea224fe,,,,,,,,,3492,15,27,1,0,0,response1disk,,7,6,-1,1,0,0,rectangle,6,-1,1,0,0,6,-1,1,0,0,1,58,218,3,1,,,,,,,,
,,,,,,,,,,,,,FF,,,,,,,,1.0157,,,,,,,,,,,,,,,,,,,,,,60fe1a7271f4d1a459e0fd5e,61036d1894c7d8bd8f5eab71,2021-07-29_22h09.17.227,Simcolourproject_2stim_asymm_v5,2020.2.10,Win32,60,61025ae37ef11b136ea224fe,,,,,,,,,4175,30,55,1,0,0,response1disk,,7,17,4,1,0,0,rectangle,17,4,1,0,0,17,4,1,0,0,1,59,219,21,1,,,,,,,,
,,,,,,,,,,,,,FF,,,,,,,,0.9327,,,,,,,,,,,,,,,,,,,,,,60fe1a7271f4d1a459e0fd5e,61036d1894c7d8bd8f5eab71,2021-07-29_22h09.17.227,Simcolourproject_2stim_asymm_v5,2020.2.10,Win32,60,61025ae37ef11b136ea224fe,,,,,,,,,3095,47,59,1,0,0,response1disk,,7,25,-8,1,0,0,rectangle,25,-8,1,0,0,25,-8,1,0,0,1,60,220,90,1,,,,,,,,
,,,,,,,,,,,,,FF,,,,,,,,1.316,,,,,,,,,,,,,,,,,,,,,,60fe1a7271f4d1a459e0fd5e,61036d1894c7d8bd8f5eab71,2021-07-29_22h09.17.227,Simcolourproject_2stim_asymm_v5,2020.2.10,Win32,60,61025ae37ef11b136ea224fe,,,,,,,,,1214,66,40,1,0,0,response1disk,,6,4,6,1,0,0,rectangle,4,6,1,0,0,4,6,1,0,0,1,61,221,97,1,,,,,,,,
,,,,,,,,,,,,,FF,,,,,,,,1.0322,,,,,,,,,,,,,,,,,,,,,,60fe1a7271f4d1a459e0fd5e,61036d1894c7d8bd8f5eab71,2021-07-29_22h09.17.227,Simcolourproject_2stim_asymm_v5,2020.2.10,Win32,60,61025ae37ef11b136ea224fe,,,,,,,,,2181,43,105,1,0,0,response1disk,,7,7,1,1,0,0,rectangle,7,1,1,0,0,7,1,1,0,0,1,62,222,146,1,,,,,,,,
,,,,,,,,,,,,,FF,,,,,,,,0.9332,,,,,,,,,,,,,,,,,,,,,,60fe1a7271f4d1a459e0fd5e,61036d1894c7d8bd8f5eab71,2021-07-29_22h09.17.227,Simcolourproject_2stim_asymm_v5,2020.2.10,Win32,60,61025ae37ef11b136ea224fe,,,,,,,,,1066,37,100,1,0,0,response1disk,,7,-4,11,1,0,0,rectangle,-4,11,1,0,0,-4,11,1,0,0,1,63,223,96,1,,,,,,,,
,,,,,,,,,,,,,FF,,,,,,,,1.0662,,,,,,,,,,,,,,,,,,,,,,60fe1a7271f4d1a459e0fd5e,61036d1894c7d8bd8f5eab71,2021-07-29_22h09.17.227,Simcolourproject_2stim_asymm_v5,2020.2.10,Win32,60,61025ae37ef11b136ea224fe,,,,,,,,,2093,-35,77,1,0,0,response7disk,,0,-12,2,1,0,0,rectangle,-12,2,1,0,0,-12,2,1,0,0,1,64,224,152,1,,,,,,,,
,,,,,,,,,,,,,FF,,,,,,,,1.0496,,,,,,,,,,,,,,,,,,,,,,60fe1a7271f4d1a459e0fd5e,61036d1894c7d8bd8f5eab71,2021-07-29_22h09.17.227,Simcolourproject_2stim_asymm_v5,2020.2.10,Win32,60,61025ae37ef11b136ea224fe,,,,,,,,,3508,15,57,1,0,0,response1disk,,7,-4,4,1,0,0,rectangle,-4,4,1,0,0,-4,4,1,0,0,1,65,225,109,1,,,,,,,,
,,,,,,,,,,,,,FF,,,,,,,,1.4151,,,,,,,,,,,,,,,,,,,,,,60fe1a7271f4d1a459e0fd5e,61036d1894c7d8bd8f5eab71,2021-07-29_22h09.17.227,Simcolourproject_2stim_asymm_v5,2020.2.10,Win32,60,61025ae37ef11b136ea224fe,,,,,,,,,3746,-77,-60,1,0,0,response5disk,,2,-11,-1,1,0,0,rectangle,-11,-1,1,0,0,-11,-1,1,0,0,1,66,226,94,1,,,,,,,,
,,,,,,,,,,,,,FF,,,,,,,,1.033,,,,,,,,,,,,,,,,,,,,,,60fe1a7271f4d1a459e0fd5e,61036d1894c7d8bd8f5eab71,2021-07-29_22h09.17.227,Simcolourproject_2stim_asymm_v5,2020.2.10,Win32,60,61025ae37ef11b136ea224fe,,,,,,,,,4129,29,73,1,0,0,response1disk,,7,5,4,1,0,0,rectangle,5,4,1,0,0,5,4,1,0,0,1,67,227,131,1,,,,,,,,
,,,,,,,,,,,,,FF,,,,,,,,3.4634,,,,,,,,,,,,,,,,,,,,,,60fe1a7271f4d1a459e0fd5e,61036d1894c7d8bd8f5eab71,2021-07-29_22h09.17.227,Simcolourproject_2stim_asymm_v5,2020.2.10,Win32,60,61025ae37ef11b136ea224fe,,,,,,,,,2400,33,67,1,0,0,response1disk,,7,5,-11,1,0,0,rectangle,-28,56,1,0,0,-13,13,1,0,0,1,68,228,36,1,,response7disk_3,TRUE,0,0,"[42,194,315,282,280,198,176,2,181,242,15,144,49,229,306,176,147,170,76,235]",1.7996,rectangle
,,,,,,,,,,,,,FF,,,,,,,,2.0816,,,,,,,,,,,,,,,,,,,,,,60fe1a7271f4d1a459e0fd5e,61036d1894c7d8bd8f5eab71,2021-07-29_22h09.17.227,Simcolourproject_2stim_asymm_v5,2020.2.10,Win32,60,61025ae37ef11b136ea224fe,,,,,,,,,1202,73,-39,1,0,0,response3disk,,5,7,0,1,0,0,rectangle,7,0,1,0,0,7,0,1,0,0,1,69,229,134,1,,,,,,,,
,,,,,,,,,,,,,FF,,,,,,,,2.3994,,,,,,,,,,,,,,,,,,,,,,60fe1a7271f4d1a459e0fd5e,61036d1894c7d8bd8f5eab71,2021-07-29_22h09.17.227,Simcolourproject_2stim_asymm_v5,2020.2.10,Win32,60,61025ae37ef11b136ea224fe,,,,,,,,,1306,45,-15,1,0,0,response3disk,,5,9,12,1,0,0,rectangle,9,12,1,0,0,9,12,1,0,0,1,70,230,95,1,,,,,,,,
,,,,,,,,,,,,,FF,,,,,,,,1.3823,,,,,,,,,,,,,,,,,,,,,,60fe1a7271f4d1a459e0fd5e,61036d1894c7d8bd8f5eab71,2021-07-29_22h09.17.227,Simcolourproject_2stim_asymm_v5,2020.2.10,Win32,60,61025ae37ef11b136ea224fe,,,,,,,,,2835,47,-27,1,0,0,response3disk,,5,20,-5,1,0,0,rectangle,20,-5,1,0,0,20,-5,1,0,0,1,71,231,15,1,,,,,,,,
,,,,,,,,,,,,,FF,,,,,,,,0.9869,,,,,,,,,,,,,,,,,,,,,,60fe1a7271f4d1a459e0fd5e,61036d1894c7d8bd8f5eab71,2021-07-29_22h09.17.227,Simcolourproject_2stim_asymm_v5,2020.2.10,Win32,60,61025ae37ef11b136ea224fe,,,,,,,,,177,37,50,1,0,0,response1disk,,7,7,-7,1,0,0,rectangle,7,-7,1,0,0,7,-7,1,0,0,1,72,232,38,1,,,,,,,,
,,,,,,,,,,,,,FF,,,,,,,,2.049,,,,,,,,,,,,,,,,,,,,,,60fe1a7271f4d1a459e0fd5e,61036d1894c7d8bd8f5eab71,2021-07-29_22h09.17.227,Simcolourproject_2stim_asymm_v5,2020.2.10,Win32,60,61025ae37ef11b136ea224fe,,,,,,,,,1374,50,-21,1,0,0,response3disk,,5,4,2,1,0,0,rectangle,4,2,1,0,0,4,2,1,0,0,1,73,233,150,1,,,,,,,,
,,,,,,,,,,,,,FF,,,,,,,,0.9387,,,,,,,,,,,,,,,,,,,,,,60fe1a7271f4d1a459e0fd5e,61036d1894c7d8bd8f5eab71,2021-07-29_22h09.17.227,Simcolourproject_2stim_asymm_v5,2020.2.10,Win32,60,61025ae37ef11b136ea224fe,,,,,,,,,4309,38,50,1,0,0,response1disk,,7,14,6,1,0,0,rectangle,45,-71,1,0,0,2,-2,1,0,0,1,74,234,18,1,,response3disk_3,TRUE,4,4,"[42,194,315,282,280,198,176,2,181,242,15,144,49,229,306,176,147,170,76,235]",2.6308,rectangle
,,,,,,,,,,,,,FF,,,,,,,,2.0358,,,,,,,,,,,,,,,,,,,,,,60fe1a7271f4d1a459e0fd5e,61036d1894c7d8bd8f5eab71,2021-07-29_22h09.17.227,Simcolourproject_2stim_asymm_v5,2020.2.10,Win32,60,61025ae37ef11b136ea224fe,,,,,,,,,2153,50,69,1,0,0,response1disk,,7,18,3,1,0,0,rectangle,18,3,1,0,0,18,3,1,0,0,1,75,235,8,1,,,,,,,,
,,,,,,,,,,,,,FF,,,,,,,,1.9315,,,,,,,,,,,,,,,,,,,,,,60fe1a7271f4d1a459e0fd5e,61036d1894c7d8bd8f5eab71,2021-07-29_22h09.17.227,Simcolourproject_2stim_asymm_v5,2020.2.10,Win32,60,61025ae37ef11b136ea224fe,,,,,,,,,1953,-38,-71,1,0,0,response5disk,,3,8,-5,1,0,0,rectangle,8,-5,1,0,0,8,-5,1,0,0,1,76,236,120,1,,,,,,,,
,,,,,,,,,,,,,FF,,,,,,,,0.9472,,,,,,,,,,,,,,,,,,,,,,60fe1a7271f4d1a459e0fd5e,61036d1894c7d8bd8f5eab71,2021-07-29_22h09.17.227,Simcolourproject_2stim_asymm_v5,2020.2.10,Win32,60,61025ae37ef11b136ea224fe,,,,,,,,,2763,48,96,1,0,0,response1disk,,7,6,-3,1,0,0,rectangle,6,-3,1,0,0,6,-3,1,0,0,1,77,237,83,1,,,,,,,,
,,,,,,,,,,,,,FF,,,,,,,,1.7319,,,,,,,,,,,,,,,,,,,,,,60fe1a7271f4d1a459e0fd5e,61036d1894c7d8bd8f5eab71,2021-07-29_22h09.17.227,Simcolourproject_2stim_asymm_v5,2020.2.10,Win32,60,61025ae37ef11b136ea224fe,,,,,,,,,727,54,39,1,0,0,response1disk,,6,5,1,1,0,0,rectangle,5,1,1,0,0,5,1,1,0,0,1,78,238,137,1,,,,,,,,
,,,,,,,,,,,,,FF,,,,,,,,1.3312,,,,,,,,,,,,,,,,,,,,,,60fe1a7271f4d1a459e0fd5e,61036d1894c7d8bd8f5eab71,2021-07-29_22h09.17.227,Simcolourproject_2stim_asymm_v5,2020.2.10,Win32,60,61025ae37ef11b136ea224fe,,,,,,,,,3881,47,30,1,0,0,response1disk,,6,16,-2,1,0,0,rectangle,16,-2,1,0,0,16,-2,1,0,0,1,79,239,19,1,,,,,,,,
,,,,,,,,,,,,,FF,,,,,,,,1.0366,,,,,,,,,,,,,,,,,,,,,,60fe1a7271f4d1a459e0fd5e,61036d1894c7d8bd8f5eab71,2021-07-29_22h09.17.227,Simcolourproject_2stim_asymm_v5,2020.2.10,Win32,60,61025ae37ef11b136ea224fe,,,,,,,,,1694,38,65,1,0,0,response1disk,,7,5,0,1,0,0,rectangle,5,0,1,0,0,5,0,1,0,0,1,80,240,121,1,,,,,,,,
,,,,,,,,,,,,,FF,,,,,,,,1.0032,,,,,,,,,,,,,,,,,,,,,,60fe1a7271f4d1a459e0fd5e,61036d1894c7d8bd8f5eab71,2021-07-29_22h09.17.227,Simcolourproject_2stim_asymm_v5,2020.2.10,Win32,60,61025ae37ef11b136ea224fe,,,,,,,,,2141,54,82,1,0,0,response1disk,,7,13,15,1,0,0,rectangle,-74,17,1,0,0,-10,-7,1,0,0,1,81,241,42,1,,response7disk_3,TRUE,1,1,"[42,194,315,282,280,198,176,2,181,242,15,144,49,229,306,176,147,170,76,235]",2.0647,rectangle
,,,,,,,,,,,,,FF,,,,,,,,1.8191,,,,,,,,,,,,,,,,,,,,,,60fe1a7271f4d1a459e0fd5e,61036d1894c7d8bd8f5eab71,2021-07-29_22h09.17.227,Simcolourproject_2stim_asymm_v5,2020.2.10,Win32,60,61025ae37ef11b136ea224fe,,,,,,,,,18,36,98,1,0,0,response1disk,,7,-11,3,1,0,0,rectangle,-11,3,1,0,0,-11,3,1,0,0,1,82,242,130,1,,,,,,,,
,,,,,,,,,,,,,FF,,,,,,,,0.9305,,,,,,,,,,,,,,,,,,,,,,60fe1a7271f4d1a459e0fd5e,61036d1894c7d8bd8f5eab71,2021-07-29_22h09.17.227,Simcolourproject_2stim_asymm_v5,2020.2.10,Win32,60,61025ae37ef11b136ea224fe,,,,,,,,,4209,39,75,1,0,0,response1disk,,7,-4,-1,1,0,0,rectangle,-4,-1,1,0,0,-4,-1,1,0,0,1,83,243,86,1,,,,,,,,
,,,,,,,,,,,,,FF,,,,,,,,1.1825,,,,,,,,,,,,,,,,,,,,,,60fe1a7271f4d1a459e0fd5e,61036d1894c7d8bd8f5eab71,2021-07-29_22h09.17.227,Simcolourproject_2stim_asymm_v5,2020.2.10,Win32,60,61025ae37ef11b136ea224fe,,,,,,,,,567,17,43,1,0,0,response1disk,,7,5,-5,1,0,0,rectangle,5,-5,1,0,0,5,-5,1,0,0,1,84,244,25,1,,,,,,,,
,,,,,,,,,,,,,FF,,,,,,,,1.4649,,,,,,,,,,,,,,,,,,,,,,60fe1a7271f4d1a459e0fd5e,61036d1894c7d8bd8f5eab71,2021-07-29_22h09.17.227,Simcolourproject_2stim_asymm_v5,2020.2.10,Win32,60,61025ae37ef11b136ea224fe,,,,,,,,,1145,42,88,1,0,0,response1disk,,7,5,10,1,0,0,rectangle,5,10,1,0,0,5,10,1,0,0,1,85,245,20,1,,,,,,,,
,,,,,,,,,,,,,FF,,,,,,,,0.899,,,,,,,,,,,,,,,,,,,,,,60fe1a7271f4d1a459e0fd5e,61036d1894c7d8bd8f5eab71,2021-07-29_22h09.17.227,Simcolourproject_2stim_asymm_v5,2020.2.10,Win32,60,61025ae37ef11b136ea224fe,,,,,,,,,2496,27,47,1,0,0,response1disk,,7,-1,-8,1,0,0,rectangle,-1,-8,1,0,0,-1,-8,1,0,0,1,86,246,88,1,,,,,,,,
,,,,,,,,,,,,,FF,,,,,,,,1.3659,,,,,,,,,,,,,,,,,,,,,,60fe1a7271f4d1a459e0fd5e,61036d1894c7d8bd8f5eab71,2021-07-29_22h09.17.227,Simcolourproject_2stim_asymm_v5,2020.2.10,Win32,60,61025ae37ef11b136ea224fe,,,,,,,,,3261,28,62,1,0,0,response1disk,,7,5,-13,1,0,0,rectangle,5,-13,1,0,0,5,-13,1,0,0,1,87,247,144,1,,,,,,,,
,,,,,,,,,,,,,FF,,,,,,,,0.9827,,,,,,,,,,,,,,,,,,,,,,60fe1a7271f4d1a459e0fd5e,61036d1894c7d8bd8f5eab71,2021-07-29_22h09.17.227,Simcolourproject_2stim_asymm_v5,2020.2.10,Win32,60,61025ae37ef11b136ea224fe,,,,,,,,,2561,36,70,1,0,0,response1disk,,7,10,-4,1,0,0,rectangle,10,-4,1,0,0,10,-4,1,0,0,1,88,248,138,1,,,,,,,,
,,,,,,,,,,,,,FF,,,,,,,,1.137,,,,,,,,,,,,,,,,,,,,,,60fe1a7271f4d1a459e0fd5e,61036d1894c7d8bd8f5eab71,2021-07-29_22h09.17.227,Simcolourproject_2stim_asymm_v5,2020.2.10,Win32,60,61025ae37ef11b136ea224fe,,,,,,,,,1355,26,70,1,0,0,response1disk,,7,5,5,1,0,0,rectangle,5,5,1,0,0,5,5,1,0,0,1,89,249,129,1,,,,,,,,
,,,,,,,,,,,,,FF,,,,,,,,0.9494,,,,,,,,,,,,,,,,,,,,,,60fe1a7271f4d1a459e0fd5e,61036d1894c7d8bd8f5eab71,2021-07-29_22h09.17.227,Simcolourproject_2stim_asymm_v5,2020.2.10,Win32,60,61025ae37ef11b136ea224fe,,,,,,,,,1842,25,52,1,0,0,response1disk,,7,6,4,1,0,0,rectangle,6,4,1,0,0,6,4,1,0,0,1,90,250,56,1,,,,,,,,
,,,,,,,,,,,,,FF,,,,,,,,1.0369,,,,,,,,,,,,,,,,,,,,,,60fe1a7271f4d1a459e0fd5e,61036d1894c7d8bd8f5eab71,2021-07-29_22h09.17.227,Simcolourproject_2stim_asymm_v5,2020.2.10,Win32,60,61025ae37ef11b136ea224fe,,,,,,,,,836,25,41,1,0,0,response1disk,,7,12,-5,1,0,0,rectangle,12,-5,1,0,0,12,-5,1,0,0,1,91,251,26,1,,,,,,,,
,,,,,,,,,,,,,FF,,,,,,,,1.7698,,,,,,,,,,,,,,,,,,,,,,60fe1a7271f4d1a459e0fd5e,61036d1894c7d8bd8f5eab71,2021-07-29_22h09.17.227,Simcolourproject_2stim_asymm_v5,2020.2.10,Win32,60,61025ae37ef11b136ea224fe,,,,,,,,,3197,53,-80,1,0,0,response3disk,,4,17,-3,1,0,0,rectangle,17,-3,1,0,0,17,-3,1,0,0,1,92,252,80,1,,,,,,,,
,,,,,,,,,,,,,FF,,,,,,,,0.9543,,,,,,,,,,,,,,,,,,,,,,60fe1a7271f4d1a459e0fd5e,61036d1894c7d8bd8f5eab71,2021-07-29_22h09.17.227,Simcolourproject_2stim_asymm_v5,2020.2.10,Win32,60,61025ae37ef11b136ea224fe,,,,,,,,,447,37,56,1,0,0,response1disk,,7,1,-13,1,0,0,rectangle,1,-13,1,0,0,1,-13,1,0,0,1,93,253,128,1,,,,,,,,
,,,,,,,,,,,,,FF,,,,,,,,1.4485,,,,,,,,,,,,,,,,,,,,,,60fe1a7271f4d1a459e0fd5e,61036d1894c7d8bd8f5eab71,2021-07-29_22h09.17.227,Simcolourproject_2stim_asymm_v5,2020.2.10,Win32,60,61025ae37ef11b136ea224fe,,,,,,,,,1076,58,94,1,0,0,response1disk,,7,10,-3,1,0,0,rectangle,10,-3,1,0,0,10,-3,1,0,0,1,94,254,32,1,,,,,,,,
,,,,,,,,,,,,,FF,,,,,,,,5.5818,,,,,,,,,,,,,,,,,,,,,,60fe1a7271f4d1a459e0fd5e,61036d1894c7d8bd8f5eab71,2021-07-29_22h09.17.227,Simcolourproject_2stim_asymm_v5,2020.2.10,Win32,60,61025ae37ef11b136ea224fe,,,,,,,,,2789,66,117,1,0,0,response1disk,,7,18,12,1,0,0,rectangle,18,12,1,0,0,18,12,1,0,0,1,95,255,54,1,,,,,,,,
,,,,,,,,,,,,,FF,,,,,,,,0.966,,,,,,,,,,,,,,,,,,,,,,60fe1a7271f4d1a459e0fd5e,61036d1894c7d8bd8f5eab71,2021-07-29_22h09.17.227,Simcolourproject_2stim_asymm_v5,2020.2.10,Win32,60,61025ae37ef11b136ea224fe,,,,,,,,,1577,57,62,1,0,0,response1disk,,7,14,1,1,0,0,rectangle,14,1,1,0,0,14,1,1,0,0,1,96,256,50,1,,,,,,,,
,,,,,,,,,,,,,FF,,,,,,,,1.2158,,,,,,,,,,,,,,,,,,,,,,60fe1a7271f4d1a459e0fd5e,61036d1894c7d8bd8f5eab71,2021-07-29_22h09.17.227,Simcolourproject_2stim_asymm_v5,2020.2.10,Win32,60,61025ae37ef11b136ea224fe,,,,,,,,,1722,55,73,1,0,0,response1disk,,7,-5,-3,1,0,0,rectangle,-5,-3,1,0,0,-5,-3,1,0,0,1,97,257,140,1,,,,,,,,
,,,,,,,,,,,,,FF,,,,,,,,0.9331,,,,,,,,,,,,,,,,,,,,,,60fe1a7271f4d1a459e0fd5e,61036d1894c7d8bd8f5eab71,2021-07-29_22h09.17.227,Simcolourproject_2stim_asymm_v5,2020.2.10,Win32,60,61025ae37ef11b136ea224fe,,,,,,,,,3449,47,55,1,0,0,response1disk,,7,7,10,1,0,0,rectangle,7,10,1,0,0,7,10,1,0,0,1,98,258,107,1,,,,,,,,
,,,,,,,,,,,,,FF,,,,,,,,1.0327,,,,,,,,,,,,,,,,,,,,,,60fe1a7271f4d1a459e0fd5e,61036d1894c7d8bd8f5eab71,2021-07-29_22h09.17.227,Simcolourproject_2stim_asymm_v5,2020.2.10,Win32,60,61025ae37ef11b136ea224fe,,,,,,,,,1879,68,102,1,0,0,response1disk,,7,17,5,1,0,0,rectangle,17,5,1,0,0,17,5,1,0,0,1,99,259,40,1,,,,,,,,
,,,,,,,,,,,,,FF,,,,,,,,0.9661,,,,,,,,,,,,,,,,,,,,,,60fe1a7271f4d1a459e0fd5e,61036d1894c7d8bd8f5eab71,2021-07-29_22h09.17.227,Simcolourproject_2stim_asymm_v5,2020.2.10,Win32,60,61025ae37ef11b136ea224fe,,,,,,,,,2683,38,70,1,0,0,response1disk,,7,-2,12,1,0,0,rectangle,-2,12,1,0,0,-2,12,1,0,0,1,100,260,0,1,,,,,,,,
,,,,,,,,,,,,,FF,,,,,,,,1.0328,,,,,,,,,,,,,,,,,,,,,,60fe1a7271f4d1a459e0fd5e,61036d1894c7d8bd8f5eab71,2021-07-29_22h09.17.227,Simcolourproject_2stim_asymm_v5,2020.2.10,Win32,60,61025ae37ef11b136ea224fe,,,,,,,,,1311,45,82,1,0,0,response1disk,,7,11,0,1,0,0,rectangle,11,0,1,0,0,11,0,1,0,0,1,101,261,73,1,,,,,,,,
,,,,,,,,,,,,,FF,,,,,,,,1.1661,,,,,,,,,,,,,,,,,,,,,,60fe1a7271f4d1a459e0fd5e,61036d1894c7d8bd8f5eab71,2021-07-29_22h09.17.227,Simcolourproject_2stim_asymm_v5,2020.2.10,Win32,60,61025ae37ef11b136ea224fe,,,,,,,,,4100,33,50,1,0,0,response1disk,,7,11,12,1,0,0,rectangle,11,12,1,0,0,11,12,1,0,0,1,102,262,148,1,,,,,,,,
,,,,,,,,,,,,,FF,,,,,,,,1.2828,,,,,,,,,,,,,,,,,,,,,,60fe1a7271f4d1a459e0fd5e,61036d1894c7d8bd8f5eab71,2021-07-29_22h09.17.227,Simcolourproject_2stim_asymm_v5,2020.2.10,Win32,60,61025ae37ef11b136ea224fe,,,,,,,,,3504,35,71,1,0,0,response1disk,,7,7,-2,1,0,0,rectangle,7,-2,1,0,0,7,-2,1,0,0,1,103,263,117,1,,,,,,,,
,,,,,,,,,,,,,FF,,,,,,,,0.9159,,,,,,,,,,,,,,,,,,,,,,60fe1a7271f4d1a459e0fd5e,61036d1894c7d8bd8f5eab71,2021-07-29_22h09.17.227,Simcolourproject_2stim_asymm_v5,2020.2.10,Win32,60,61025ae37ef11b136ea224fe,,,,,,,,,4336,34,57,1,0,0,response1disk,,7,16,9,1,0,0,rectangle,16,9,1,0,0,16,9,1,0,0,1,104,264,33,1,,,,,,,,
,,,,,,,,,,,,,FF,,,,,,,,0.8829,,,,,,,,,,,,,,,,,,,,,,60fe1a7271f4d1a459e0fd5e,61036d1894c7d8bd8f5eab71,2021-07-29_22h09.17.227,Simcolourproject_2stim_asymm_v5,2020.2.10,Win32,60,61025ae37ef11b136ea224fe,,,,,,,,,2484,36,44,1,0,0,response1disk,,7,9,4,1,0,0,rectangle,9,4,1,0,0,9,4,1,0,0,1,105,265,154,1,,,,,,,,
,,,,,,,,,,,,,FF,,,,,,,,1.0666,,,,,,,,,,,,,,,,,,,,,,60fe1a7271f4d1a459e0fd5e,61036d1894c7d8bd8f5eab71,2021-07-29_22h09.17.227,Simcolourproject_2stim_asymm_v5,2020.2.10,Win32,60,61025ae37ef11b136ea224fe,,,,,,,,,3425,-21,78,1,0,0,response7disk,,0,4,2,1,0,0,rectangle,4,2,1,0,0,4,2,1,0,0,1,106,266,71,1,,,,,,,,
,,,,,,,,,,,,,FF,,,,,,,,1.4192,,,,,,,,,,,,,,,,,,,,,,60fe1a7271f4d1a459e0fd5e,61036d1894c7d8bd8f5eab71,2021-07-29_22h09.17.227,Simcolourproject_2stim_asymm_v5,2020.2.10,Win32,60,61025ae37ef11b136ea224fe,,,,,,,,,3312,25,90,1,0,0,response1disk,,7,-12,5,1,0,0,rectangle,-12,5,1,0,0,-12,5,1,0,0,1,107,267,114,1,,,,,,,,
,,,,,,,,,,,,,FF,,,,,,,,1.6483,,,,,,,,,,,,,,,,,,,,,,60fe1a7271f4d1a459e0fd5e,61036d1894c7d8bd8f5eab71,2021-07-29_22h09.17.227,Simcolourproject_2stim_asymm_v5,2020.2.10,Win32,60,61025ae37ef11b136ea224fe,,,,,,,,,1307,53,35,1,0,0,response1disk,,6,22,11,1,0,0,rectangle,22,11,1,0,0,22,11,1,0,0,1,108,268,126,1,,,,,,,,
,,,,,,,,,,,,,FF,,,,,,,,1.6263,,,,,,,,,,,,,,,,,,,,,,60fe1a7271f4d1a459e0fd5e,61036d1894c7d8bd8f5eab71,2021-07-29_22h09.17.227,Simcolourproject_2stim_asymm_v5,2020.2.10,Win32,60,61025ae37ef11b136ea224fe,,,,,,,,,3679,74,60,1,0,0,response1disk,,6,-8,8,1,0,0,rectangle,-8,8,1,0,0,-8,8,1,0,0,1,109,269,76,1,,,,,,,,
,,,,,,,,,,,,,FF,,,,,,,,1.1988,,,,,,,,,,,,,,,,,,,,,,60fe1a7271f4d1a459e0fd5e,61036d1894c7d8bd8f5eab71,2021-07-29_22h09.17.227,Simcolourproject_2stim_asymm_v5,2020.2.10,Win32,60,61025ae37ef11b136ea224fe,,,,,,,,,3788,29,86,1,0,0,response1disk,,7,-3,-4,1,0,0,rectangle,-3,-4,1,0,0,-3,-4,1,0,0,1,110,270,158,1,,,,,,,,
,,,,,,,,,,,,,FF,,,,,,,,0.9826,,,,,,,,,,,,,,,,,,,,,,60fe1a7271f4d1a459e0fd5e,61036d1894c7d8bd8f5eab71,2021-07-29_22h09.17.227,Simcolourproject_2stim_asymm_v5,2020.2.10,Win32,60,61025ae37ef11b136ea224fe,,,,,,,,,2556,38,96,1,0,0,response1disk,,7,16,9,1,0,0,rectangle,16,9,1,0,0,16,9,1,0,0,1,111,271,84,1,,,,,,,,
,,,,,,,,,,,,,FF,,,,,,,,1.5489,,,,,,,,,,,,,,,,,,,,,,60fe1a7271f4d1a459e0fd5e,61036d1894c7d8bd8f5eab71,2021-07-29_22h09.17.227,Simcolourproject_2stim_asymm_v5,2020.2.10,Win32,60,61025ae37ef11b136ea224fe,,,,,,,,,4140,-64,-27,1,0,0,response5disk,,2,10,0,1,0,0,rectangle,10,0,1,0,0,10,0,1,0,0,1,112,272,1,1,,,,,,,,
,,,,,,,,,,,,,FF,,,,,,,,1.0659,,,,,,,,,,,,,,,,,,,,,,60fe1a7271f4d1a459e0fd5e,61036d1894c7d8bd8f5eab71,2021-07-29_22h09.17.227,Simcolourproject_2stim_asymm_v5,2020.2.10,Win32,60,61025ae37ef11b136ea224fe,,,,,,,,,3058,39,69,1,0,0,response1disk,,7,4,6,1,0,0,rectangle,4,6,1,0,0,4,6,1,0,0,1,113,273,59,1,,,,,,,,
,,,,,,,,,,,,,FF,,,,,,,,1.0993,,,,,,,,,,,,,,,,,,,,,,60fe1a7271f4d1a459e0fd5e,61036d1894c7d8bd8f5eab71,2021-07-29_22h09.17.227,Simcolourproject_2stim_asymm_v5,2020.2.10,Win32,60,61025ae37ef11b136ea224fe,,,,,,,,,2299,32,55,1,0,0,response1disk,,7,11,-3,1,0,0,rectangle,11,-3,1,0,0,11,-3,1,0,0,1,114,274,62,1,,,,,,,,
,,,,,,,,,,,,,FF,,,,,,,,0.9481,,,,,,,,,,,,,,,,,,,,,,60fe1a7271f4d1a459e0fd5e,61036d1894c7d8bd8f5eab71,2021-07-29_22h09.17.227,Simcolourproject_2stim_asymm_v5,2020.2.10,Win32,60,61025ae37ef11b136ea224fe,,,,,,,,,3959,66,113,1,0,0,response1disk,,7,15,7,1,0,0,rectangle,15,7,1,0,0,15,7,1,0,0,1,115,275,39,1,,,,,,,,
,,,,,,,,,,,,,FF,,,,,,,,1.0319,,,,,,,,,,,,,,,,,,,,,,60fe1a7271f4d1a459e0fd5e,61036d1894c7d8bd8f5eab71,2021-07-29_22h09.17.227,Simcolourproject_2stim_asymm_v5,2020.2.10,Win32,60,61025ae37ef11b136ea224fe,,,,,,,,,2235,41,53,1,0,0,response1disk,,7,19,2,1,0,0,rectangle,19,2,1,0,0,19,2,1,0,0,1,116,276,13,1,,,,,,,,
,,,,,,,,,,,,,FF,,,,,,,,1.5152,,,,,,,,,,,,,,,,,,,,,,60fe1a7271f4d1a459e0fd5e,61036d1894c7d8bd8f5eab71,2021-07-29_22h09.17.227,Simcolourproject_2stim_asymm_v5,2020.2.10,Win32,60,61025ae37ef11b136ea224fe,,,,,,,,,233,54,97,1,0,0,response1disk,,7,6,1,1,0,0,rectangle,6,1,1,0,0,6,1,1,0,0,1,117,277,110,1,,,,,,,,
,,,,,,,,,,,,,FF,,,,,,,,1.0994,,,,,,,,,,,,,,,,,,,,,,60fe1a7271f4d1a459e0fd5e,61036d1894c7d8bd8f5eab71,2021-07-29_22h09.17.227,Simcolourproject_2stim_asymm_v5,2020.2.10,Win32,60,61025ae37ef11b136ea224fe,,,,,,,,,3650,33,50,1,0,0,response1disk,,7,1,14,1,0,0,rectangle,1,14,1,0,0,1,14,1,0,0,1,118,278,136,1,,,,,,,,
,,,,,,,,,,,,,FF,,,,,,,,2.2153,,,,,,,,,,,,,,,,,,,,,,60fe1a7271f4d1a459e0fd5e,61036d1894c7d8bd8f5eab71,2021-07-29_22h09.17.227,Simcolourproject_2stim_asymm_v5,2020.2.10,Win32,60,61025ae37ef11b136ea224fe,,,,,,,,,1378,81,25,1,0,0,response1disk,,6,-7,5,1,0,0,rectangle,-73,-42,1,0,0,-16,11,1,0,0,1,119,279,43,1,,response5disk_3,TRUE,2,2,"[42,194,315,282,280,198,176,2,181,242,15,144,49,229,306,176,147,170,76,235]",1.9997,rectangle
,,,,,,,,,,,,,FF,,,,,,,,1.5824,,,,,,,,,,,,,,,,,,,,,,60fe1a7271f4d1a459e0fd5e,61036d1894c7d8bd8f5eab71,2021-07-29_22h09.17.227,Simcolourproject_2stim_asymm_v5,2020.2.10,Win32,60,61025ae37ef11b136ea224fe,,,,,,,,,3330,21,48,1,0,0,response1disk,,7,-6,5,1,0,0,rectangle,-6,5,1,0,0,-6,5,1,0,0,1,120,280,139,1,,,,,,,,
,,,,,,,,,,,,,FF,,,,,,,,0.9497,,,,,,,,,,,,,,,,,,,,,,60fe1a7271f4d1a459e0fd5e,61036d1894c7d8bd8f5eab71,2021-07-29_22h09.17.227,Simcolourproject_2stim_asymm_v5,2020.2.10,Win32,60,61025ae37ef11b136ea224fe,,,,,,,,,45,38,72,1,0,0,response1disk,,7,2,2,1,0,0,rectangle,-37,112,1,0,0,2,8,1,0,0,1,121,281,28,1,,response7disk_3,TRUE,0,0,"[42,194,315,282,280,198,176,2,181,242,15,144,49,229,306,176,147,170,76,235]",2.0644,rectangle
,,,,,,,,,,,,,FF,,,,,,,,1.083,,,,,,,,,,,,,,,,,,,,,,60fe1a7271f4d1a459e0fd5e,61036d1894c7d8bd8f5eab71,2021-07-29_22h09.17.227,Simcolourproject_2stim_asymm_v5,2020.2.10,Win32,60,61025ae37ef11b136ea224fe,,,,,,,,,1462,37,59,1,0,0,response1disk,,7,22,9,1,0,0,rectangle,22,9,1,0,0,22,9,1,0,0,1,122,282,118,1,,,,,,,,
,,,,,,,,,,,,,FF,,,,,,,,0.9656,,,,,,,,,,,,,,,,,,,,,,60fe1a7271f4d1a459e0fd5e,61036d1894c7d8bd8f5eab71,2021-07-29_22h09.17.227,Simcolourproject_2stim_asymm_v5,2020.2.10,Win32,60,61025ae37ef11b136ea224fe,,,,,,,,,1085,36,80,1,0,0,response1disk,,7,15,0,1,0,0,rectangle,15,0,1,0,0,15,0,1,0,0,1,123,283,102,1,,,,,,,,
,,,,,,,,,,,,,FF,,,,,,,,2.0492,,,,,,,,,,,,,,,,,,,,,,60fe1a7271f4d1a459e0fd5e,61036d1894c7d8bd8f5eab71,2021-07-29_22h09.17.227,Simcolourproject_2stim_asymm_v5,2020.2.10,Win32,60,61025ae37ef11b136ea224fe,,,,,,,,,3943,62,-22,1,0,0,response3disk,,5,19,-8,1,0,0,rectangle,19,-8,1,0,0,19,-8,1,0,0,1,124,284,91,1,,,,,,,,
,,,,,,,,,,,,,FF,,,,,,,,0.966,,,,,,,,,,,,,,,,,,,,,,60fe1a7271f4d1a459e0fd5e,61036d1894c7d8bd8f5eab71,2021-07-29_22h09.17.227,Simcolourproject_2stim_asymm_v5,2020.2.10,Win32,60,61025ae37ef11b136ea224fe,,,,,,,,,2625,49,91,1,0,0,response1disk,,7,17,11,1,0,0,rectangle,17,11,1,0,0,17,11,1,0,0,1,125,285,9,1,,,,,,,,
,,,,,,,,,,,,,FF,,,,,,,,1.1493,,,,,,,,,,,,,,,,,,,,,,60fe1a7271f4d1a459e0fd5e,61036d1894c7d8bd8f5eab71,2021-07-29_22h09.17.227,Simcolourproject_2stim_asymm_v5,2020.2.10,Win32,60,61025ae37ef11b136ea224fe,,,,,,,,,4024,64,22,1,0,0,response1disk,,6,-20,13,1,0,0,rectangle,-20,13,1,0,0,-20,13,1,0,0,1,126,286,78,1,,,,,,,,
,,,,,,,,,,,,,FF,,,,,,,,0.8853,,,,,,,,,,,,,,,,,,,,,,60fe1a7271f4d1a459e0fd5e,61036d1894c7d8bd8f5eab71,2021-07-29_22h09.17.227,Simcolourproject_2stim_asymm_v5,2020.2.10,Win32,60,61025ae37ef11b136ea224fe,,,,,,,,,436,35,60,1,0,0,response1disk,,7,15,10,1,0,0,rectangle,15,10,1,0,0,15,10,1,0,0,1,127,287,106,1,,,,,,,,
,,,,,,,,,,,,,FF,,,,,,,,0.8661,,,,,,,,,,,,,,,,,,,,,,60fe1a7271f4d1a459e0fd5e,61036d1894c7d8bd8f5eab71,2021-07-29_22h09.17.227,Simcolourproject_2stim_asymm_v5,2020.2.10,Win32,60,61025ae37ef11b136ea224fe,,,,,,,,,687,53,63,1,0,0,response1disk,,7,-7,-12,1,0,0,rectangle,-7,-12,1,0,0,-7,-12,1,0,0,1,128,288,52,1,,,,,,,,
,,,,,,,,,,,,,FF,,,,,,,,0.9989,,,,,,,,,,,,,,,,,,,,,,60fe1a7271f4d1a459e0fd5e,61036d1894c7d8bd8f5eab71,2021-07-29_22h09.17.227,Simcolourproject_2stim_asymm_v5,2020.2.10,Win32,60,61025ae37ef11b136ea224fe,,,,,,,,,48,58,103,1,0,0,response1disk,,7,2,13,1,0,0,rectangle,2,13,1,0,0,2,13,1,0,0,1,129,289,135,1,,,,,,,,
,,,,,,,,,,,,,FF,,,,,,,,1.8315,,,,,,,,,,,,,,,,,,,,,,60fe1a7271f4d1a459e0fd5e,61036d1894c7d8bd8f5eab71,2021-07-29_22h09.17.227,Simcolourproject_2stim_asymm_v5,2020.2.10,Win32,60,61025ae37ef11b136ea224fe,,,,,,,,,3341,24,41,1,0,0,response1disk,,7,-12,-10,1,0,0,rectangle,-12,-10,1,0,0,-12,-10,1,0,0,1,130,290,147,1,,,,,,,,
,,,,,,,,,,,,,FF,,,,,,,,0.9161,,,,,,,,,,,,,,,,,,,,,,60fe1a7271f4d1a459e0fd5e,61036d1894c7d8bd8f5eab71,2021-07-29_22h09.17.227,Simcolourproject_2stim_asymm_v5,2020.2.10,Win32,60,61025ae37ef11b136ea224fe,,,,,,,,,1429,22,51,1,0,0,response1disk,,7,16,7,1,0,0,rectangle,16,7,1,0,0,16,7,1,0,0,1,131,291,60,1,,,,,,,,
,,,,,,,,,,,,,FF,,,,,,,,3.2787,,,,,,,,,,,,,,,,,,,,,,60fe1a7271f4d1a459e0fd5e,61036d1894c7d8bd8f5eab71,2021-07-29_22h09.17.227,Simcolourproject_2stim_asymm_v5,2020.2.10,Win32,60,61025ae37ef11b136ea224fe,,,,,,,,,1201,73,-55,1,0,0,response3disk,,5,10,-5,1,0,0,rectangle,10,-5,1,0,0,10,-5,1,0,0,1,132,292,35,1,,,,,,,,
,,,,,,,,,,,,,FF,,,,,,,,1,,,,,,,,,,,,,,,,,,,,,,60fe1a7271f4d1a459e0fd5e,61036d1894c7d8bd8f5eab71,2021-07-29_22h09.17.227,Simcolourproject_2stim_asymm_v5,2020.2.10,Win32,60,61025ae37ef11b136ea224fe,,,,,,,,,1850,45,56,1,0,0,response1disk,,7,17,5,1,0,0,rectangle,17,5,1,0,0,17,5,1,0,0,1,133,293,58,1,,,,,,,,
,,,,,,,,,,,,,FF,,,,,,,,1.1536,,,,,,,,,,,,,,,,,,,,,,60fe1a7271f4d1a459e0fd5e,61036d1894c7d8bd8f5eab71,2021-07-29_22h09.17.227,Simcolourproject_2stim_asymm_v5,2020.2.10,Win32,60,61025ae37ef11b136ea224fe,,,,,,,,,1998,45,62,1,0,0,response1disk,,7,8,-13,1,0,0,rectangle,8,-13,1,0,0,8,-13,1,0,0,1,134,294,123,1,,,,,,,,
,,,,,,,,,,,,,FF,,,,,,,,1.965,,,,,,,,,,,,,,,,,,,,,,60fe1a7271f4d1a459e0fd5e,61036d1894c7d8bd8f5eab71,2021-07-29_22h09.17.227,Simcolourproject_2stim_asymm_v5,2020.2.10,Win32,60,61025ae37ef11b136ea224fe,,,,,,,,,3998,80,-20,1,0,0,response3disk,,5,20,-1,1,0,0,rectangle,20,-1,1,0,0,20,-1,1,0,0,1,135,295,34,1,,,,,,,,
,,,,,,,,,,,,,FF,,,,,,,,1.4028,,,,,,,,,,,,,,,,,,,,,,60fe1a7271f4d1a459e0fd5e,61036d1894c7d8bd8f5eab71,2021-07-29_22h09.17.227,Simcolourproject_2stim_asymm_v5,2020.2.10,Win32,60,61025ae37ef11b136ea224fe,,,,,,,,,2503,36,64,1,0,0,response1disk,,7,-5,-7,1,0,0,rectangle,-5,-7,1,0,0,-5,-7,1,0,0,1,136,296,46,1,,,,,,,,
,,,,,,,,,,,,,FF,,,,,,,,1.2992,,,,,,,,,,,,,,,,,,,,,,60fe1a7271f4d1a459e0fd5e,61036d1894c7d8bd8f5eab71,2021-07-29_22h09.17.227,Simcolourproject_2stim_asymm_v5,2020.2.10,Win32,60,61025ae37ef11b136ea224fe,,,,,,,,,1463,46,68,1,0,0,response1disk,,7,6,-6,1,0,0,rectangle,6,-6,1,0,0,6,-6,1,0,0,1,137,297,65,1,,,,,,,,
,,,,,,,,,,,,,FF,,,,,,,,1.5126,,,,,,,,,,,,,,,,,,,,,,60fe1a7271f4d1a459e0fd5e,61036d1894c7d8bd8f5eab71,2021-07-29_22h09.17.227,Simcolourproject_2stim_asymm_v5,2020.2.10,Win32,60,61025ae37ef11b136ea224fe,,,,,,,,,3814,84,-33,1,0,0,response3disk,,5,18,-6,1,0,0,rectangle,18,-6,1,0,0,18,-6,1,0,0,1,138,298,31,1,,,,,,,,
,,,,,,,,,,,,,FF,,,,,,,,1.8525,,,,,,,,,,,,,,,,,,,,,,60fe1a7271f4d1a459e0fd5e,61036d1894c7d8bd8f5eab71,2021-07-29_22h09.17.227,Simcolourproject_2stim_asymm_v5,2020.2.10,Win32,60,61025ae37ef11b136ea224fe,,,,,,,,,3091,39,81,1,0,0,response1disk,,7,14,11,1,0,0,rectangle,14,11,1,0,0,14,11,1,0,0,1,139,299,14,1,,,,,,,,
,,,,,,,,,,,,,FF,,,,,,,,0.9666,,,,,,,,,,,,,,,,,,,,,,60fe1a7271f4d1a459e0fd5e,61036d1894c7d8bd8f5eab71,2021-07-29_22h09.17.227,Simcolourproject_2stim_asymm_v5,2020.2.10,Win32,60,61025ae37ef11b136ea224fe,,,,,,,,,3979,59,96,1,0,0,response1disk,,7,20,10,1,0,0,rectangle,20,10,1,0,0,20,10,1,0,0,1,140,300,61,1,,,,,,,,
,,,,,,,,,,,,,FF,,,,,,,,0.9169,,,,,,,,,,,,,,,,,,,,,,60fe1a7271f4d1a459e0fd5e,61036d1894c7d8bd8f5eab71,2021-07-29_22h09.17.227,Simcolourproject_2stim_asymm_v5,2020.2.10,Win32,60,61025ae37ef11b136ea224fe,,,,,,,,,3509,60,99,1,0,0,response1disk,,7,11,9,1,0,0,rectangle,11,9,1,0,0,11,9,1,0,0,1,141,301,89,1,,,,,,,,
,,,,,,,,,,,,,FF,,,,,,,,1.4326,,,,,,,,,,,,,,,,,,,,,,60fe1a7271f4d1a459e0fd5e,61036d1894c7d8bd8f5eab71,2021-07-29_22h09.17.227,Simcolourproject_2stim_asymm_v5,2020.2.10,Win32,60,61025ae37ef11b136ea224fe,,,,,,,,,1218,68,-47,1,0,0,response3disk,,5,14,-12,1,0,0,rectangle,14,-12,1,0,0,14,-12,1,0,0,1,142,302,141,1,,,,,,,,
,,,,,,,,,,,,,FF,,,,,,,,1.7657,,,,,,,,,,,,,,,,,,,,,,60fe1a7271f4d1a459e0fd5e,61036d1894c7d8bd8f5eab71,2021-07-29_22h09.17.227,Simcolourproject_2stim_asymm_v5,2020.2.10,Win32,60,61025ae37ef11b136ea224fe,,,,,,,,,3593,37,91,1,0,0,response1disk,,7,-4,13,1,0,0,rectangle,-4,13,1,0,0,-4,13,1,0,0,1,143,303,142,1,,,,,,,,
