key_resp.keys,key_resp.rt,key_resp_14.keys,key_resp_14.rt,key_resp_15.keys,key_resp_15.rt,key_resp_17.keys,key_resp_17.rt,key_resp_9.keys,key_resp_9.rt,key_resp_10.keys,key_resp_10.rt,practice_comparison,Ecc,mouse_5.x,mouse_5.y,mouse_5.leftButton,mouse_5.midButton,mouse_5.rightButton,mouse_5.clicked_name,pracsimilarity,response_time,mouse_10.x,mouse_10.y,mouse_10.leftButton,mouse_10.midButton,mouse_10.rightButton,mouse_10.clicked_name,mouse_7.x,mouse_7.y,mouse_7.leftButton,mouse_7.midButton,mouse_7.rightButton,mouse_6.x,mouse_6.y,mouse_6.leftButton,mouse_6.midButton,mouse_6.rightButton,duringprac.thisRepN,duringprac.thisTrialN,duringprac.thisN,duringprac.thisIndex,duringprac.ran,participant,session,date,expName,psychopyVersion,OS,frameRate,study_id,mouse_7.clicked_name,catchpracsimilarity,catch_response_time,catchnumberprac,catchtrialorderprac,mouse_6.clicked_name,key_resp_22.keys,key_resp_22.rt,realcomparison,mouse.x,mouse.y,mouse.leftButton,mouse.midButton,mouse.rightButton,mouse.clicked_name,Colour2,similarity,mouse_2.x,mouse_2.y,mouse_2.leftButton,mouse_2.midButton,mouse_2.rightButton,mouse_2.clicked_name,mouse_3.x,mouse_3.y,mouse_3.leftButton,mouse_3.midButton,mouse_3.rightButton,mouse_11.x,mouse_11.y,mouse_11.leftButton,mouse_11.midButton,mouse_11.rightButton,trials_2.thisRepN,trials_2.thisTrialN,trials_2.thisN,trials_2.thisIndex,trials_2.ran,Colour1,mouse_3.clicked_name,catchornah,catchsimilarity,catchnumber,catchtrialorder,catchRT,mouse_11.clicked_name
space,1.853,space,2.413,space,21.564,space,7.624,space,1.923,space,7.409,26,FF,-98,-38,1,0,0,response5disk_5,2,13.878,17,5,1,0,0,rectangle_8,17,5,1,0,0,17,5,1,0,0,0,0,0,3,1,60fefae8e9544b4dc1f315dd,610378c67ffa09886f283d71,2021-07-29_23h58.23.690,Simcolourproject_2stim_asymm_v5,2020.2.10,MacIntel,60,61025ae37ef11b136ea224fe,,,,,,,,,,,,,,,,,,,,,,,,,,,,,,,,,,,,,,,,,,,,,,
,,,,,,,,,,,,74,PF,43,-95,1,0,0,response3disk_5,4,11.485,-10,1,1,0,0,rectangle_8,108,39,1,0,0,-4,-6,1,0,0,0,1,1,1,1,60fefae8e9544b4dc1f315dd,610378c67ffa09886f283d71,2021-07-29_23h58.23.690,Simcolourproject_2stim_asymm_v5,2020.2.10,MacIntel,60,61025ae37ef11b136ea224fe,response1disk_7,6,4.911,6,"[2,5]",rectangle_4,,,,,,,,,,,,,,,,,,,,,,,,,,,,,,,,,,,,,,,,
,,,,,,,,,,,,118,FF,83,-35,1,0,0,response3disk_5,5,2.478,-11,-5,1,0,0,rectangle_8,-11,-5,1,0,0,-11,-5,1,0,0,0,2,2,5,1,60fefae8e9544b4dc1f315dd,610378c67ffa09886f283d71,2021-07-29_23h58.23.690,Simcolourproject_2stim_asymm_v5,2020.2.10,MacIntel,60,61025ae37ef11b136ea224fe,,,,,,,,,,,,,,,,,,,,,,,,,,,,,,,,,,,,,,,,,,,,,,
,,,,,,,,,,,,2,PF,81,37,1,0,0,response1disk_5,6,4.812,6,-1,1,0,0,rectangle_8,6,-1,1,0,0,6,-1,1,0,0,0,3,3,6,1,60fefae8e9544b4dc1f315dd,610378c67ffa09886f283d71,2021-07-29_23h58.23.690,Simcolourproject_2stim_asymm_v5,2020.2.10,MacIntel,60,61025ae37ef11b136ea224fe,,,,,,,,,,,,,,,,,,,,,,,,,,,,,,,,,,,,,,,,,,,,,,
,,,,,,,,,,,,90,PF,-57,-85,1,0,0,response5disk_5,3,2.466,-10,4,1,0,0,rectangle_8,87,37,1,0,0,-6,7,1,0,0,0,4,4,4,1,60fefae8e9544b4dc1f315dd,610378c67ffa09886f283d71,2021-07-29_23h58.23.690,Simcolourproject_2stim_asymm_v5,2020.2.10,MacIntel,60,61025ae37ef11b136ea224fe,response1disk_7,6,3.226,6,"[2,5]",rectangle_4,,,,,,,,,,,,,,,,,,,,,,,,,,,,,,,,,,,,,,,,
,,,,,,,,,,,,16,PF,29,-79,1,0,0,response3disk_5,4,3.133,-5,1,1,0,0,rectangle_8,-5,1,1,0,0,-5,1,1,0,0,0,5,5,2,1,60fefae8e9544b4dc1f315dd,610378c67ffa09886f283d71,2021-07-29_23h58.23.690,Simcolourproject_2stim_asymm_v5,2020.2.10,MacIntel,60,61025ae37ef11b136ea224fe,,,,,,,,,,,,,,,,,,,,,,,,,,,,,,,,,,,,,,,,,,,,,,
,,,,,,,,,,,,33,FF,-88,-55,1,0,0,response5disk_5,2,3.859,-9,-3,1,0,0,rectangle_8,-9,-3,1,0,0,-9,-3,1,0,0,0,6,6,0,1,60fefae8e9544b4dc1f315dd,610378c67ffa09886f283d71,2021-07-29_23h58.23.690,Simcolourproject_2stim_asymm_v5,2020.2.10,MacIntel,60,61025ae37ef11b136ea224fe,,,,,,,,,,,,,,,,,,,,,,,,,,,,,,,,,,,,,,,,,,,,,,
,,,,,,,,,,,,,FF,,,,,,,,2.918,,,,,,,,,,,,,,,,,,,,,,60fefae8e9544b4dc1f315dd,610378c67ffa09886f283d71,2021-07-29_23h58.23.690,Simcolourproject_2stim_asymm_v5,2020.2.10,MacIntel,60,61025ae37ef11b136ea224fe,,,,,,,space,4.48,3775,-37,-102,1,0,0,response5disk,,3,1,7,1,0,0,rectangle,1,7,1,0,0,1,7,1,0,0,0,0,0,6,1,,,,,,,,
,,,,,,,,,,,,,FF,,,,,,,,2.035,,,,,,,,,,,,,,,,,,,,,,60fefae8e9544b4dc1f315dd,610378c67ffa09886f283d71,2021-07-29_23h58.23.690,Simcolourproject_2stim_asymm_v5,2020.2.10,MacIntel,60,61025ae37ef11b136ea224fe,,,,,,,,,2942,-84,-43,1,0,0,response5disk,,2,-8,-5,1,0,0,rectangle,-8,-5,1,0,0,-8,-5,1,0,0,0,1,1,58,1,,,,,,,,
,,,,,,,,,,,,,FF,,,,,,,,2.812,,,,,,,,,,,,,,,,,,,,,,60fefae8e9544b4dc1f315dd,610378c67ffa09886f283d71,2021-07-29_23h58.23.690,Simcolourproject_2stim_asymm_v5,2020.2.10,MacIntel,60,61025ae37ef11b136ea224fe,,,,,,,,,2333,85,29,1,0,0,response1disk,,6,4,6,1,0,0,rectangle,4,6,1,0,0,4,6,1,0,0,0,2,2,40,1,,,,,,,,
,,,,,,,,,,,,,FF,,,,,,,,5.324,,,,,,,,,,,,,,,,,,,,,,60fefae8e9544b4dc1f315dd,610378c67ffa09886f283d71,2021-07-29_23h58.23.690,Simcolourproject_2stim_asymm_v5,2020.2.10,MacIntel,60,61025ae37ef11b136ea224fe,,,,,,,,,4102,-89,35,1,0,0,response7disk,,1,-32,2,1,0,0,rectangle,-32,2,1,0,0,-32,2,1,0,0,0,3,3,123,1,,,,,,,,
,,,,,,,,,,,,,FF,,,,,,,,3.134,,,,,,,,,,,,,,,,,,,,,,60fefae8e9544b4dc1f315dd,610378c67ffa09886f283d71,2021-07-29_23h58.23.690,Simcolourproject_2stim_asymm_v5,2020.2.10,MacIntel,60,61025ae37ef11b136ea224fe,,,,,,,,,3397,-88,-46,1,0,0,response5disk,,2,-12,-19,1,0,0,rectangle,-12,-19,1,0,0,-12,-19,1,0,0,0,4,4,41,1,,,,,,,,
,,,,,,,,,,,,,FF,,,,,,,,1.622,,,,,,,,,,,,,,,,,,,,,,60fefae8e9544b4dc1f315dd,610378c67ffa09886f283d71,2021-07-29_23h58.23.690,Simcolourproject_2stim_asymm_v5,2020.2.10,MacIntel,60,61025ae37ef11b136ea224fe,,,,,,,,,2921,30,-84,1,0,0,response3disk,,4,-4,3,1,0,0,rectangle,-4,3,1,0,0,-4,3,1,0,0,0,5,5,62,1,,,,,,,,
,,,,,,,,,,,,,FF,,,,,,,,1.838,,,,,,,,,,,,,,,,,,,,,,60fefae8e9544b4dc1f315dd,610378c67ffa09886f283d71,2021-07-29_23h58.23.690,Simcolourproject_2stim_asymm_v5,2020.2.10,MacIntel,60,61025ae37ef11b136ea224fe,,,,,,,,,159,77,-36,1,0,0,response3disk,,5,2,-1,1,0,0,rectangle,38,79,1,0,0,-8,-7,1,0,0,0,6,6,130,1,,response1disk_3,TRUE,7,7,"[261,116,78,7,225,156,24,209,212,58,218,255,105,303,305,129,238,54,276,162]",2.576,rectangle
,,,,,,,,,,,,,FF,,,,,,,,1.612,,,,,,,,,,,,,,,,,,,,,,60fefae8e9544b4dc1f315dd,610378c67ffa09886f283d71,2021-07-29_23h58.23.690,Simcolourproject_2stim_asymm_v5,2020.2.10,MacIntel,60,61025ae37ef11b136ea224fe,,,,,,,,,4353,-79,-38,1,0,0,response5disk,,2,-7,0,1,0,0,rectangle,-7,0,1,0,0,-7,0,1,0,0,0,7,7,53,1,,,,,,,,
,,,,,,,,,,,,,FF,,,,,,,,3.252,,,,,,,,,,,,,,,,,,,,,,60fefae8e9544b4dc1f315dd,610378c67ffa09886f283d71,2021-07-29_23h58.23.690,Simcolourproject_2stim_asymm_v5,2020.2.10,MacIntel,60,61025ae37ef11b136ea224fe,,,,,,,,,1994,59,-39,1,0,0,response3disk,,5,-5,1,1,0,0,rectangle,-5,1,1,0,0,-5,1,1,0,0,0,8,8,61,1,,,,,,,,
,,,,,,,,,,,,,FF,,,,,,,,1.461,,,,,,,,,,,,,,,,,,,,,,60fefae8e9544b4dc1f315dd,610378c67ffa09886f283d71,2021-07-29_23h58.23.690,Simcolourproject_2stim_asymm_v5,2020.2.10,MacIntel,60,61025ae37ef11b136ea224fe,,,,,,,,,3796,-45,-76,1,0,0,response5disk,,3,-14,-5,1,0,0,rectangle,-14,-5,1,0,0,-14,-5,1,0,0,0,9,9,90,1,,,,,,,,
,,,,,,,,,,,,,FF,,,,,,,,4.326,,,,,,,,,,,,,,,,,,,,,,60fefae8e9544b4dc1f315dd,610378c67ffa09886f283d71,2021-07-29_23h58.23.690,Simcolourproject_2stim_asymm_v5,2020.2.10,MacIntel,60,61025ae37ef11b136ea224fe,,,,,,,,,1968,-87,-52,1,0,0,response5disk,,2,-10,-15,1,0,0,rectangle,-10,-15,1,0,0,-10,-15,1,0,0,0,10,10,37,1,,,,,,,,
,,,,,,,,,,,,,FF,,,,,,,,3.921,,,,,,,,,,,,,,,,,,,,,,60fefae8e9544b4dc1f315dd,610378c67ffa09886f283d71,2021-07-29_23h58.23.690,Simcolourproject_2stim_asymm_v5,2020.2.10,MacIntel,60,61025ae37ef11b136ea224fe,,,,,,,,,1158,80,-35,1,0,0,response3disk,,5,-5,13,1,0,0,rectangle,-5,13,1,0,0,-5,13,1,0,0,0,11,11,116,1,,,,,,,,
,,,,,,,,,,,,,FF,,,,,,,,1.642,,,,,,,,,,,,,,,,,,,,,,60fefae8e9544b4dc1f315dd,610378c67ffa09886f283d71,2021-07-29_23h58.23.690,Simcolourproject_2stim_asymm_v5,2020.2.10,MacIntel,60,61025ae37ef11b136ea224fe,,,,,,,,,3259,-83,-51,1,0,0,response5disk,,2,-14,-13,1,0,0,rectangle,-14,-13,1,0,0,-14,-13,1,0,0,0,12,12,52,1,,,,,,,,
,,,,,,,,,,,,,FF,,,,,,,,1.131,,,,,,,,,,,,,,,,,,,,,,60fefae8e9544b4dc1f315dd,610378c67ffa09886f283d71,2021-07-29_23h58.23.690,Simcolourproject_2stim_asymm_v5,2020.2.10,MacIntel,60,61025ae37ef11b136ea224fe,,,,,,,,,3355,66,-40,1,0,0,response3disk,,5,7,-1,1,0,0,rectangle,7,-1,1,0,0,7,-1,1,0,0,0,13,13,71,1,,,,,,,,
,,,,,,,,,,,,,FF,,,,,,,,2.022,,,,,,,,,,,,,,,,,,,,,,60fefae8e9544b4dc1f315dd,610378c67ffa09886f283d71,2021-07-29_23h58.23.690,Simcolourproject_2stim_asymm_v5,2020.2.10,MacIntel,60,61025ae37ef11b136ea224fe,,,,,,,,,3533,44,81,1,0,0,response1disk,,7,-14,3,1,0,0,rectangle,-14,3,1,0,0,-14,3,1,0,0,0,14,14,137,1,,,,,,,,
,,,,,,,,,,,,,FF,,,,,,,,1.693,,,,,,,,,,,,,,,,,,,,,,60fefae8e9544b4dc1f315dd,610378c67ffa09886f283d71,2021-07-29_23h58.23.690,Simcolourproject_2stim_asymm_v5,2020.2.10,MacIntel,60,61025ae37ef11b136ea224fe,,,,,,,,,289,-83,-41,1,0,0,response5disk,,2,-18,0,1,0,0,rectangle,-18,0,1,0,0,-18,0,1,0,0,0,15,15,131,1,,,,,,,,
,,,,,,,,,,,,,FF,,,,,,,,1.198,,,,,,,,,,,,,,,,,,,,,,60fefae8e9544b4dc1f315dd,610378c67ffa09886f283d71,2021-07-29_23h58.23.690,Simcolourproject_2stim_asymm_v5,2020.2.10,MacIntel,60,61025ae37ef11b136ea224fe,,,,,,,,,13,-66,-37,1,0,0,response5disk,,2,-18,-12,1,0,0,rectangle,-18,-12,1,0,0,-18,-12,1,0,0,0,16,16,65,1,,,,,,,,
,,,,,,,,,,,,,FF,,,,,,,,1.884,,,,,,,,,,,,,,,,,,,,,,60fefae8e9544b4dc1f315dd,610378c67ffa09886f283d71,2021-07-29_23h58.23.690,Simcolourproject_2stim_asymm_v5,2020.2.10,MacIntel,60,61025ae37ef11b136ea224fe,,,,,,,,,2175,68,27,1,0,0,response1disk,,6,8,6,1,0,0,rectangle,8,6,1,0,0,8,6,1,0,0,0,17,17,99,1,,,,,,,,
,,,,,,,,,,,,,FF,,,,,,,,1.629,,,,,,,,,,,,,,,,,,,,,,60fefae8e9544b4dc1f315dd,610378c67ffa09886f283d71,2021-07-29_23h58.23.690,Simcolourproject_2stim_asymm_v5,2020.2.10,MacIntel,60,61025ae37ef11b136ea224fe,,,,,,,,,3814,-95,22,1,0,0,response7disk,,1,-14,-10,1,0,0,rectangle,-14,-10,1,0,0,-14,-10,1,0,0,0,18,18,83,1,,,,,,,,
,,,,,,,,,,,,,FF,,,,,,,,1.752,,,,,,,,,,,,,,,,,,,,,,60fefae8e9544b4dc1f315dd,610378c67ffa09886f283d71,2021-07-29_23h58.23.690,Simcolourproject_2stim_asymm_v5,2020.2.10,MacIntel,60,61025ae37ef11b136ea224fe,,,,,,,,,3906,71,48,1,0,0,response1disk,,6,5,7,1,0,0,rectangle,5,7,1,0,0,5,7,1,0,0,0,19,19,104,1,,,,,,,,
,,,,,,,,,,,,,FF,,,,,,,,2.881,,,,,,,,,,,,,,,,,,,,,,60fefae8e9544b4dc1f315dd,610378c67ffa09886f283d71,2021-07-29_23h58.23.690,Simcolourproject_2stim_asymm_v5,2020.2.10,MacIntel,60,61025ae37ef11b136ea224fe,,,,,,,,,127,71,-38,1,0,0,response3disk,,5,20,-6,1,0,0,rectangle,20,-6,1,0,0,20,-6,1,0,0,0,20,20,102,1,,,,,,,,
,,,,,,,,,,,,,FF,,,,,,,,1.682,,,,,,,,,,,,,,,,,,,,,,60fefae8e9544b4dc1f315dd,610378c67ffa09886f283d71,2021-07-29_23h58.23.690,Simcolourproject_2stim_asymm_v5,2020.2.10,MacIntel,60,61025ae37ef11b136ea224fe,,,,,,,,,360,40,66,1,0,0,response1disk,,7,14,2,1,0,0,rectangle,14,2,1,0,0,14,2,1,0,0,0,21,21,9,1,,,,,,,,
,,,,,,,,,,,,,FF,,,,,,,,1.953,,,,,,,,,,,,,,,,,,,,,,60fefae8e9544b4dc1f315dd,610378c67ffa09886f283d71,2021-07-29_23h58.23.690,Simcolourproject_2stim_asymm_v5,2020.2.10,MacIntel,60,61025ae37ef11b136ea224fe,,,,,,,,,2981,46,67,1,0,0,response1disk,,7,6,2,1,0,0,rectangle,6,2,1,0,0,6,2,1,0,0,0,22,22,73,1,,,,,,,,
,,,,,,,,,,,,,FF,,,,,,,,2.039,,,,,,,,,,,,,,,,,,,,,,60fefae8e9544b4dc1f315dd,610378c67ffa09886f283d71,2021-07-29_23h58.23.690,Simcolourproject_2stim_asymm_v5,2020.2.10,MacIntel,60,61025ae37ef11b136ea224fe,,,,,,,,,1888,-91,-36,1,0,0,response5disk,,2,-14,-7,1,0,0,rectangle,94,-42,1,0,0,21,-9,1,0,0,0,23,23,20,1,,response3disk_3,TRUE,5,5,"[261,116,78,7,225,156,24,209,212,58,218,255,105,303,305,129,238,54,276,162]",2.609,rectangle
,,,,,,,,,,,,,FF,,,,,,,,0.909,,,,,,,,,,,,,,,,,,,,,,60fefae8e9544b4dc1f315dd,610378c67ffa09886f283d71,2021-07-29_23h58.23.690,Simcolourproject_2stim_asymm_v5,2020.2.10,MacIntel,60,61025ae37ef11b136ea224fe,,,,,,,,,1584,-84,-38,1,0,0,response5disk,,2,-1,-15,1,0,0,rectangle,-1,-15,1,0,0,-1,-15,1,0,0,0,24,24,97,1,,,,,,,,
,,,,,,,,,,,,,FF,,,,,,,,1.032,,,,,,,,,,,,,,,,,,,,,,60fefae8e9544b4dc1f315dd,610378c67ffa09886f283d71,2021-07-29_23h58.23.690,Simcolourproject_2stim_asymm_v5,2020.2.10,MacIntel,60,61025ae37ef11b136ea224fe,,,,,,,,,892,-86,-24,1,0,0,response5disk,,2,-2,-13,1,0,0,rectangle,-2,-13,1,0,0,-2,-13,1,0,0,0,25,25,57,1,,,,,,,,
,,,,,,,,,,,,,FF,,,,,,,,1.434,,,,,,,,,,,,,,,,,,,,,,60fefae8e9544b4dc1f315dd,610378c67ffa09886f283d71,2021-07-29_23h58.23.690,Simcolourproject_2stim_asymm_v5,2020.2.10,MacIntel,60,61025ae37ef11b136ea224fe,,,,,,,,,2490,69,-34,1,0,0,response3disk,,5,25,-12,1,0,0,rectangle,25,-12,1,0,0,25,-12,1,0,0,0,26,26,85,1,,,,,,,,
,,,,,,,,,,,,,FF,,,,,,,,1.328,,,,,,,,,,,,,,,,,,,,,,60fefae8e9544b4dc1f315dd,610378c67ffa09886f283d71,2021-07-29_23h58.23.690,Simcolourproject_2stim_asymm_v5,2020.2.10,MacIntel,60,61025ae37ef11b136ea224fe,,,,,,,,,948,59,-39,1,0,0,response3disk,,5,-4,-4,1,0,0,rectangle,-4,-4,1,0,0,-4,-4,1,0,0,0,27,27,39,1,,,,,,,,
,,,,,,,,,,,,,FF,,,,,,,,0.972,,,,,,,,,,,,,,,,,,,,,,60fefae8e9544b4dc1f315dd,610378c67ffa09886f283d71,2021-07-29_23h58.23.690,Simcolourproject_2stim_asymm_v5,2020.2.10,MacIntel,60,61025ae37ef11b136ea224fe,,,,,,,,,884,27,92,1,0,0,response1disk,,7,-12,4,1,0,0,rectangle,-12,4,1,0,0,-12,4,1,0,0,0,28,28,24,1,,,,,,,,
,,,,,,,,,,,,,FF,,,,,,,,1.375,,,,,,,,,,,,,,,,,,,,,,60fefae8e9544b4dc1f315dd,610378c67ffa09886f283d71,2021-07-29_23h58.23.690,Simcolourproject_2stim_asymm_v5,2020.2.10,MacIntel,60,61025ae37ef11b136ea224fe,,,,,,,,,4049,-83,-38,1,0,0,response5disk,,2,-21,-4,1,0,0,rectangle,-21,-4,1,0,0,-21,-4,1,0,0,0,29,29,75,1,,,,,,,,
,,,,,,,,,,,,,FF,,,,,,,,0.954,,,,,,,,,,,,,,,,,,,,,,60fefae8e9544b4dc1f315dd,610378c67ffa09886f283d71,2021-07-29_23h58.23.690,Simcolourproject_2stim_asymm_v5,2020.2.10,MacIntel,60,61025ae37ef11b136ea224fe,,,,,,,,,97,-83,25,1,0,0,response7disk,,1,-22,8,1,0,0,rectangle,-22,8,1,0,0,-22,8,1,0,0,0,30,30,108,1,,,,,,,,
,,,,,,,,,,,,,FF,,,,,,,,1.812,,,,,,,,,,,,,,,,,,,,,,60fefae8e9544b4dc1f315dd,610378c67ffa09886f283d71,2021-07-29_23h58.23.690,Simcolourproject_2stim_asymm_v5,2020.2.10,MacIntel,60,61025ae37ef11b136ea224fe,,,,,,,,,4273,61,-34,1,0,0,response3disk,,5,-2,-1,1,0,0,rectangle,-2,-1,1,0,0,-2,-1,1,0,0,0,31,31,91,1,,,,,,,,
,,,,,,,,,,,,,FF,,,,,,,,1.114,,,,,,,,,,,,,,,,,,,,,,60fefae8e9544b4dc1f315dd,610378c67ffa09886f283d71,2021-07-29_23h58.23.690,Simcolourproject_2stim_asymm_v5,2020.2.10,MacIntel,60,61025ae37ef11b136ea224fe,,,,,,,,,1976,66,32,1,0,0,response1disk,,6,8,16,1,0,0,rectangle,8,16,1,0,0,8,16,1,0,0,0,32,32,127,1,,,,,,,,
,,,,,,,,,,,,,FF,,,,,,,,1.949,,,,,,,,,,,,,,,,,,,,,,60fefae8e9544b4dc1f315dd,610378c67ffa09886f283d71,2021-07-29_23h58.23.690,Simcolourproject_2stim_asymm_v5,2020.2.10,MacIntel,60,61025ae37ef11b136ea224fe,,,,,,,,,2356,-68,-87,1,0,0,response5disk,,3,-22,-8,1,0,0,rectangle,-22,-8,1,0,0,-22,-8,1,0,0,0,33,33,100,1,,,,,,,,
,,,,,,,,,,,,,FF,,,,,,,,1.306,,,,,,,,,,,,,,,,,,,,,,60fefae8e9544b4dc1f315dd,610378c67ffa09886f283d71,2021-07-29_23h58.23.690,Simcolourproject_2stim_asymm_v5,2020.2.10,MacIntel,60,61025ae37ef11b136ea224fe,,,,,,,,,1053,-56,-79,1,0,0,response5disk,,3,-25,-3,1,0,0,rectangle,-25,-3,1,0,0,-25,-3,1,0,0,0,34,34,118,1,,,,,,,,
,,,,,,,,,,,,,FF,,,,,,,,1.013,,,,,,,,,,,,,,,,,,,,,,60fefae8e9544b4dc1f315dd,610378c67ffa09886f283d71,2021-07-29_23h58.23.690,Simcolourproject_2stim_asymm_v5,2020.2.10,MacIntel,60,61025ae37ef11b136ea224fe,,,,,,,,,3595,-81,25,1,0,0,response7disk,,1,-29,-5,1,0,0,rectangle,-29,-5,1,0,0,-29,-5,1,0,0,0,35,35,110,1,,,,,,,,
,,,,,,,,,,,,,FF,,,,,,,,2.702,,,,,,,,,,,,,,,,,,,,,,60fefae8e9544b4dc1f315dd,610378c67ffa09886f283d71,2021-07-29_23h58.23.690,Simcolourproject_2stim_asymm_v5,2020.2.10,MacIntel,60,61025ae37ef11b136ea224fe,,,,,,,,,1472,73,-33,1,0,0,response3disk,,5,13,-9,1,0,0,rectangle,13,-9,1,0,0,13,-9,1,0,0,0,36,36,2,1,,,,,,,,
,,,,,,,,,,,,,FF,,,,,,,,0.721,,,,,,,,,,,,,,,,,,,,,,60fefae8e9544b4dc1f315dd,610378c67ffa09886f283d71,2021-07-29_23h58.23.690,Simcolourproject_2stim_asymm_v5,2020.2.10,MacIntel,60,61025ae37ef11b136ea224fe,,,,,,,,,1076,64,-33,1,0,0,response3disk,,5,-19,5,1,0,0,rectangle,-19,5,1,0,0,-19,5,1,0,0,0,37,37,48,1,,,,,,,,
,,,,,,,,,,,,,FF,,,,,,,,1.094,,,,,,,,,,,,,,,,,,,,,,60fefae8e9544b4dc1f315dd,610378c67ffa09886f283d71,2021-07-29_23h58.23.690,Simcolourproject_2stim_asymm_v5,2020.2.10,MacIntel,60,61025ae37ef11b136ea224fe,,,,,,,,,2398,46,63,1,0,0,response1disk,,7,3,6,1,0,0,rectangle,3,6,1,0,0,3,6,1,0,0,0,38,38,1,1,,,,,,,,
,,,,,,,,,,,,,FF,,,,,,,,2.716,,,,,,,,,,,,,,,,,,,,,,60fefae8e9544b4dc1f315dd,610378c67ffa09886f283d71,2021-07-29_23h58.23.690,Simcolourproject_2stim_asymm_v5,2020.2.10,MacIntel,60,61025ae37ef11b136ea224fe,,,,,,,,,1530,31,-65,1,0,0,response3disk,,4,-10,3,1,0,0,rectangle,-10,3,1,0,0,-10,3,1,0,0,0,39,39,59,1,,,,,,,,
,,,,,,,,,,,,,FF,,,,,,,,2.365,,,,,,,,,,,,,,,,,,,,,,60fefae8e9544b4dc1f315dd,610378c67ffa09886f283d71,2021-07-29_23h58.23.690,Simcolourproject_2stim_asymm_v5,2020.2.10,MacIntel,60,61025ae37ef11b136ea224fe,,,,,,,,,3978,24,-74,1,0,0,response3disk,,4,-7,-13,1,0,0,rectangle,-7,-13,1,0,0,-7,-13,1,0,0,0,40,40,16,1,,,,,,,,
,,,,,,,,,,,,,FF,,,,,,,,0.827,,,,,,,,,,,,,,,,,,,,,,60fefae8e9544b4dc1f315dd,610378c67ffa09886f283d71,2021-07-29_23h58.23.690,Simcolourproject_2stim_asymm_v5,2020.2.10,MacIntel,60,61025ae37ef11b136ea224fe,,,,,,,,,623,40,62,1,0,0,response1disk,,7,13,9,1,0,0,rectangle,13,9,1,0,0,13,9,1,0,0,0,41,41,27,1,,,,,,,,
,,,,,,,,,,,,,FF,,,,,,,,1.397,,,,,,,,,,,,,,,,,,,,,,60fefae8e9544b4dc1f315dd,610378c67ffa09886f283d71,2021-07-29_23h58.23.690,Simcolourproject_2stim_asymm_v5,2020.2.10,MacIntel,60,61025ae37ef11b136ea224fe,,,,,,,,,1217,-54,-86,1,0,0,response5disk,,3,-22,-8,1,0,0,rectangle,-22,-8,1,0,0,-22,-8,1,0,0,0,42,42,128,1,,,,,,,,
,,,,,,,,,,,,,FF,,,,,,,,1.531,,,,,,,,,,,,,,,,,,,,,,60fefae8e9544b4dc1f315dd,610378c67ffa09886f283d71,2021-07-29_23h58.23.690,Simcolourproject_2stim_asymm_v5,2020.2.10,MacIntel,60,61025ae37ef11b136ea224fe,,,,,,,,,3916,46,69,1,0,0,response1disk,,7,22,1,1,0,0,rectangle,22,1,1,0,0,22,1,1,0,0,0,43,43,34,1,,,,,,,,
,,,,,,,,,,,,,FF,,,,,,,,1.176,,,,,,,,,,,,,,,,,,,,,,60fefae8e9544b4dc1f315dd,610378c67ffa09886f283d71,2021-07-29_23h58.23.690,Simcolourproject_2stim_asymm_v5,2020.2.10,MacIntel,60,61025ae37ef11b136ea224fe,,,,,,,,,1384,-37,-85,1,0,0,response5disk,,3,-23,-5,1,0,0,rectangle,-23,-5,1,0,0,-23,-5,1,0,0,0,44,44,68,1,,,,,,,,
,,,,,,,,,,,,,FF,,,,,,,,1.031,,,,,,,,,,,,,,,,,,,,,,60fefae8e9544b4dc1f315dd,610378c67ffa09886f283d71,2021-07-29_23h58.23.690,Simcolourproject_2stim_asymm_v5,2020.2.10,MacIntel,60,61025ae37ef11b136ea224fe,,,,,,,,,3089,-84,-33,1,0,0,response5disk,,2,-7,-13,1,0,0,rectangle,-7,-13,1,0,0,-7,-13,1,0,0,0,45,45,28,1,,,,,,,,
,,,,,,,,,,,,,FF,,,,,,,,1.155,,,,,,,,,,,,,,,,,,,,,,60fefae8e9544b4dc1f315dd,610378c67ffa09886f283d71,2021-07-29_23h58.23.690,Simcolourproject_2stim_asymm_v5,2020.2.10,MacIntel,60,61025ae37ef11b136ea224fe,,,,,,,,,1543,38,44,1,0,0,response1disk,,7,-2,-2,1,0,0,rectangle,-2,-2,1,0,0,-2,-2,1,0,0,0,46,46,80,1,,,,,,,,
,,,,,,,,,,,,,FF,,,,,,,,1.038,,,,,,,,,,,,,,,,,,,,,,60fefae8e9544b4dc1f315dd,610378c67ffa09886f283d71,2021-07-29_23h58.23.690,Simcolourproject_2stim_asymm_v5,2020.2.10,MacIntel,60,61025ae37ef11b136ea224fe,,,,,,,,,2163,-48,-82,1,0,0,response5disk,,3,-22,-10,1,0,0,rectangle,-22,-10,1,0,0,-22,-10,1,0,0,0,47,47,7,1,,,,,,,,
,,,,,,,,,,,,,FF,,,,,,,,0.722,,,,,,,,,,,,,,,,,,,,,,60fefae8e9544b4dc1f315dd,610378c67ffa09886f283d71,2021-07-29_23h58.23.690,Simcolourproject_2stim_asymm_v5,2020.2.10,MacIntel,60,61025ae37ef11b136ea224fe,,,,,,,,,3526,32,59,1,0,0,response1disk,,7,2,1,1,0,0,rectangle,2,1,1,0,0,2,1,1,0,0,0,48,48,147,1,,,,,,,,
,,,,,,,,,,,,,FF,,,,,,,,0.839,,,,,,,,,,,,,,,,,,,,,,60fefae8e9544b4dc1f315dd,610378c67ffa09886f283d71,2021-07-29_23h58.23.690,Simcolourproject_2stim_asymm_v5,2020.2.10,MacIntel,60,61025ae37ef11b136ea224fe,,,,,,,,,2553,24,88,1,0,0,response1disk,,7,-8,0,1,0,0,rectangle,-8,0,1,0,0,-8,0,1,0,0,0,49,49,88,1,,,,,,,,
,,,,,,,,,,,,,FF,,,,,,,,0.605,,,,,,,,,,,,,,,,,,,,,,60fefae8e9544b4dc1f315dd,610378c67ffa09886f283d71,2021-07-29_23h58.23.690,Simcolourproject_2stim_asymm_v5,2020.2.10,MacIntel,60,61025ae37ef11b136ea224fe,,,,,,,,,337,31,61,1,0,0,response1disk,,7,-2,-7,1,0,0,rectangle,-2,-7,1,0,0,-2,-7,1,0,0,0,50,50,72,1,,,,,,,,
,,,,,,,,,,,,,FF,,,,,,,,1.099,,,,,,,,,,,,,,,,,,,,,,60fefae8e9544b4dc1f315dd,610378c67ffa09886f283d71,2021-07-29_23h58.23.690,Simcolourproject_2stim_asymm_v5,2020.2.10,MacIntel,60,61025ae37ef11b136ea224fe,,,,,,,,,4356,-37,82,1,0,0,response7disk,,0,-21,-4,1,0,0,rectangle,-21,-4,1,0,0,-21,-4,1,0,0,0,51,51,109,1,,,,,,,,
,,,,,,,,,,,,,FF,,,,,,,,2.848,,,,,,,,,,,,,,,,,,,,,,60fefae8e9544b4dc1f315dd,610378c67ffa09886f283d71,2021-07-29_23h58.23.690,Simcolourproject_2stim_asymm_v5,2020.2.10,MacIntel,60,61025ae37ef11b136ea224fe,,,,,,,,,465,36,-85,1,0,0,response3disk,,4,6,-9,1,0,0,rectangle,6,-9,1,0,0,6,-9,1,0,0,0,52,52,117,1,,,,,,,,
,,,,,,,,,,,,,FF,,,,,,,,1.071,,,,,,,,,,,,,,,,,,,,,,60fefae8e9544b4dc1f315dd,610378c67ffa09886f283d71,2021-07-29_23h58.23.690,Simcolourproject_2stim_asymm_v5,2020.2.10,MacIntel,60,61025ae37ef11b136ea224fe,,,,,,,,,683,31,74,1,0,0,response1disk,,7,11,-3,1,0,0,rectangle,74,-39,1,0,0,10,2,1,0,0,0,53,53,38,1,,response3disk_3,TRUE,5,5,"[261,116,78,7,225,156,24,209,212,58,218,255,105,303,305,129,238,54,276,162]",1.642,rectangle
,,,,,,,,,,,,,FF,,,,,,,,0.958,,,,,,,,,,,,,,,,,,,,,,60fefae8e9544b4dc1f315dd,610378c67ffa09886f283d71,2021-07-29_23h58.23.690,Simcolourproject_2stim_asymm_v5,2020.2.10,MacIntel,60,61025ae37ef11b136ea224fe,,,,,,,,,2785,-51,-85,1,0,0,response5disk,,3,-22,-12,1,0,0,rectangle,-22,-12,1,0,0,-22,-12,1,0,0,0,54,54,124,1,,,,,,,,
,,,,,,,,,,,,,FF,,,,,,,,1.205,,,,,,,,,,,,,,,,,,,,,,60fefae8e9544b4dc1f315dd,610378c67ffa09886f283d71,2021-07-29_23h58.23.690,Simcolourproject_2stim_asymm_v5,2020.2.10,MacIntel,60,61025ae37ef11b136ea224fe,,,,,,,,,2367,28,-84,1,0,0,response3disk,,4,6,-16,1,0,0,rectangle,6,-16,1,0,0,6,-16,1,0,0,0,55,55,26,1,,,,,,,,
,,,,,,,,,,,,,FF,,,,,,,,0.793,,,,,,,,,,,,,,,,,,,,,,60fefae8e9544b4dc1f315dd,610378c67ffa09886f283d71,2021-07-29_23h58.23.690,Simcolourproject_2stim_asymm_v5,2020.2.10,MacIntel,60,61025ae37ef11b136ea224fe,,,,,,,,,1266,38,78,1,0,0,response1disk,,7,19,18,1,0,0,rectangle,19,18,1,0,0,19,18,1,0,0,0,56,56,10,1,,,,,,,,
,,,,,,,,,,,,,FF,,,,,,,,1.592,,,,,,,,,,,,,,,,,,,,,,60fefae8e9544b4dc1f315dd,610378c67ffa09886f283d71,2021-07-29_23h58.23.690,Simcolourproject_2stim_asymm_v5,2020.2.10,MacIntel,60,61025ae37ef11b136ea224fe,,,,,,,,,3880,-61,-87,1,0,0,response5disk,,3,-18,-12,1,0,0,rectangle,95,44,1,0,0,-1,-4,1,0,0,0,57,57,82,1,,response1disk_3,TRUE,6,6,"[261,116,78,7,225,156,24,209,212,58,218,255,105,303,305,129,238,54,276,162]",1.642,rectangle
,,,,,,,,,,,,,FF,,,,,,,,0.855,,,,,,,,,,,,,,,,,,,,,,60fefae8e9544b4dc1f315dd,610378c67ffa09886f283d71,2021-07-29_23h58.23.690,Simcolourproject_2stim_asymm_v5,2020.2.10,MacIntel,60,61025ae37ef11b136ea224fe,,,,,,,,,400,63,-25,1,0,0,response3disk,,5,16,-2,1,0,0,rectangle,16,-2,1,0,0,16,-2,1,0,0,0,58,58,32,1,,,,,,,,
,,,,,,,,,,,,,FF,,,,,,,,0.773,,,,,,,,,,,,,,,,,,,,,,60fefae8e9544b4dc1f315dd,610378c67ffa09886f283d71,2021-07-29_23h58.23.690,Simcolourproject_2stim_asymm_v5,2020.2.10,MacIntel,60,61025ae37ef11b136ea224fe,,,,,,,,,1778,63,-44,1,0,0,response3disk,,5,17,-8,1,0,0,rectangle,17,-8,1,0,0,17,-8,1,0,0,0,59,59,144,1,,,,,,,,
,,,,,,,,,,,,,FF,,,,,,,,0.617,,,,,,,,,,,,,,,,,,,,,,60fefae8e9544b4dc1f315dd,610378c67ffa09886f283d71,2021-07-29_23h58.23.690,Simcolourproject_2stim_asymm_v5,2020.2.10,MacIntel,60,61025ae37ef11b136ea224fe,,,,,,,,,2796,-49,-77,1,0,0,response5disk,,3,-17,-11,1,0,0,rectangle,-17,-11,1,0,0,-17,-11,1,0,0,0,60,60,142,1,,,,,,,,
,,,,,,,,,,,,,FF,,,,,,,,0.622,,,,,,,,,,,,,,,,,,,,,,60fefae8e9544b4dc1f315dd,610378c67ffa09886f283d71,2021-07-29_23h58.23.690,Simcolourproject_2stim_asymm_v5,2020.2.10,MacIntel,60,61025ae37ef11b136ea224fe,,,,,,,,,2702,32,74,1,0,0,response1disk,,7,0,-10,1,0,0,rectangle,0,-10,1,0,0,0,-10,1,0,0,0,61,61,146,1,,,,,,,,
,,,,,,,,,,,,,FF,,,,,,,,0.853,,,,,,,,,,,,,,,,,,,,,,60fefae8e9544b4dc1f315dd,610378c67ffa09886f283d71,2021-07-29_23h58.23.690,Simcolourproject_2stim_asymm_v5,2020.2.10,MacIntel,60,61025ae37ef11b136ea224fe,,,,,,,,,4143,-38,-75,1,0,0,response5disk,,3,-3,-9,1,0,0,rectangle,-3,-9,1,0,0,-3,-9,1,0,0,0,62,62,63,1,,,,,,,,
,,,,,,,,,,,,,FF,,,,,,,,0.972,,,,,,,,,,,,,,,,,,,,,,60fefae8e9544b4dc1f315dd,610378c67ffa09886f283d71,2021-07-29_23h58.23.690,Simcolourproject_2stim_asymm_v5,2020.2.10,MacIntel,60,61025ae37ef11b136ea224fe,,,,,,,,,2601,-81,48,1,0,0,response7disk,,1,-11,-9,1,0,0,rectangle,-11,-9,1,0,0,-11,-9,1,0,0,0,63,63,134,1,,,,,,,,
,,,,,,,,,,,,,FF,,,,,,,,1.208,,,,,,,,,,,,,,,,,,,,,,60fefae8e9544b4dc1f315dd,610378c67ffa09886f283d71,2021-07-29_23h58.23.690,Simcolourproject_2stim_asymm_v5,2020.2.10,MacIntel,60,61025ae37ef11b136ea224fe,,,,,,,,,4147,-84,-48,1,0,0,response5disk,,2,-4,-6,1,0,0,rectangle,-4,-6,1,0,0,-4,-6,1,0,0,0,64,64,67,1,,,,,,,,
,,,,,,,,,,,,,FF,,,,,,,,0.788,,,,,,,,,,,,,,,,,,,,,,60fefae8e9544b4dc1f315dd,610378c67ffa09886f283d71,2021-07-29_23h58.23.690,Simcolourproject_2stim_asymm_v5,2020.2.10,MacIntel,60,61025ae37ef11b136ea224fe,,,,,,,,,1783,43,84,1,0,0,response1disk,,7,16,4,1,0,0,rectangle,16,4,1,0,0,16,4,1,0,0,0,65,65,54,1,,,,,,,,
,,,,,,,,,,,,,FF,,,,,,,,0.589,,,,,,,,,,,,,,,,,,,,,,60fefae8e9544b4dc1f315dd,610378c67ffa09886f283d71,2021-07-29_23h58.23.690,Simcolourproject_2stim_asymm_v5,2020.2.10,MacIntel,60,61025ae37ef11b136ea224fe,,,,,,,,,1351,32,92,1,0,0,response1disk,,7,-12,-15,1,0,0,rectangle,-12,-15,1,0,0,-12,-15,1,0,0,0,66,66,148,1,,,,,,,,
,,,,,,,,,,,,,FF,,,,,,,,0.465,,,,,,,,,,,,,,,,,,,,,,60fefae8e9544b4dc1f315dd,610378c67ffa09886f283d71,2021-07-29_23h58.23.690,Simcolourproject_2stim_asymm_v5,2020.2.10,MacIntel,60,61025ae37ef11b136ea224fe,,,,,,,,,1884,35,61,1,0,0,response1disk,,7,3,2,1,0,0,rectangle,3,2,1,0,0,3,2,1,0,0,0,67,67,150,1,,,,,,,,
,,,,,,,,,,,,,FF,,,,,,,,0.615,,,,,,,,,,,,,,,,,,,,,,60fefae8e9544b4dc1f315dd,610378c67ffa09886f283d71,2021-07-29_23h58.23.690,Simcolourproject_2stim_asymm_v5,2020.2.10,MacIntel,60,61025ae37ef11b136ea224fe,,,,,,,,,3011,28,78,1,0,0,response1disk,,7,-2,-5,1,0,0,rectangle,-2,-5,1,0,0,-2,-5,1,0,0,0,68,68,119,1,,,,,,,,
,,,,,,,,,,,,,FF,,,,,,,,0.562,,,,,,,,,,,,,,,,,,,,,,60fefae8e9544b4dc1f315dd,610378c67ffa09886f283d71,2021-07-29_23h58.23.690,Simcolourproject_2stim_asymm_v5,2020.2.10,MacIntel,60,61025ae37ef11b136ea224fe,,,,,,,,,235,29,65,1,0,0,response1disk,,7,-3,-4,1,0,0,rectangle,-3,-4,1,0,0,-3,-4,1,0,0,0,69,69,138,1,,,,,,,,
,,,,,,,,,,,,,FF,,,,,,,,1.562,,,,,,,,,,,,,,,,,,,,,,60fefae8e9544b4dc1f315dd,610378c67ffa09886f283d71,2021-07-29_23h58.23.690,Simcolourproject_2stim_asymm_v5,2020.2.10,MacIntel,60,61025ae37ef11b136ea224fe,,,,,,,,,3500,39,95,1,0,0,response1disk,,7,-7,14,1,0,0,rectangle,-7,14,1,0,0,-7,14,1,0,0,0,70,70,17,1,,,,,,,,
,,,,,,,,,,,,,FF,,,,,,,,1.434,,,,,,,,,,,,,,,,,,,,,,60fefae8e9544b4dc1f315dd,610378c67ffa09886f283d71,2021-07-29_23h58.23.690,Simcolourproject_2stim_asymm_v5,2020.2.10,MacIntel,60,61025ae37ef11b136ea224fe,,,,,,,,,2999,53,-24,1,0,0,response3disk,,5,14,-5,1,0,0,rectangle,14,-5,1,0,0,14,-5,1,0,0,0,71,71,79,1,,,,,,,,
,,,,,,,,,,,,,FF,,,,,,,,1.597,,,,,,,,,,,,,,,,,,,,,,60fefae8e9544b4dc1f315dd,610378c67ffa09886f283d71,2021-07-29_23h58.23.690,Simcolourproject_2stim_asymm_v5,2020.2.10,MacIntel,60,61025ae37ef11b136ea224fe,,,,,,,,,3836,52,33,1,0,0,response1disk,,6,25,12,1,0,0,rectangle,25,12,1,0,0,25,12,1,0,0,0,72,72,111,1,,,,,,,,
,,,,,,,,,,,,,FF,,,,,,,,0.377,,,,,,,,,,,,,,,,,,,,,,60fefae8e9544b4dc1f315dd,610378c67ffa09886f283d71,2021-07-29_23h58.23.690,Simcolourproject_2stim_asymm_v5,2020.2.10,MacIntel,60,61025ae37ef11b136ea224fe,,,,,,,,,2375,42,76,1,0,0,response1disk,,7,-5,-18,1,0,0,rectangle,-5,-18,1,0,0,-5,-18,1,0,0,0,73,73,114,1,,,,,,,,
,,,,,,,,,,,,,FF,,,,,,,,0.532,,,,,,,,,,,,,,,,,,,,,,60fefae8e9544b4dc1f315dd,610378c67ffa09886f283d71,2021-07-29_23h58.23.690,Simcolourproject_2stim_asymm_v5,2020.2.10,MacIntel,60,61025ae37ef11b136ea224fe,,,,,,,,,3444,33,62,1,0,0,response1disk,,7,-2,2,1,0,0,rectangle,-2,2,1,0,0,-2,2,1,0,0,0,74,74,23,1,,,,,,,,
,,,,,,,,,,,,,FF,,,,,,,,0.458,,,,,,,,,,,,,,,,,,,,,,60fefae8e9544b4dc1f315dd,610378c67ffa09886f283d71,2021-07-29_23h58.23.690,Simcolourproject_2stim_asymm_v5,2020.2.10,MacIntel,60,61025ae37ef11b136ea224fe,,,,,,,,,280,27,78,1,0,0,response1disk,,7,-10,6,1,0,0,rectangle,-10,6,1,0,0,-10,6,1,0,0,0,75,75,18,1,,,,,,,,
,,,,,,,,,,,,,FF,,,,,,,,1.055,,,,,,,,,,,,,,,,,,,,,,60fefae8e9544b4dc1f315dd,610378c67ffa09886f283d71,2021-07-29_23h58.23.690,Simcolourproject_2stim_asymm_v5,2020.2.10,MacIntel,60,61025ae37ef11b136ea224fe,,,,,,,,,1502,31,77,1,0,0,response1disk,,7,5,13,1,0,0,rectangle,5,13,1,0,0,5,13,1,0,0,0,76,76,93,1,,,,,,,,
,,,,,,,,,,,,,FF,,,,,,,,0.748,,,,,,,,,,,,,,,,,,,,,,60fefae8e9544b4dc1f315dd,610378c67ffa09886f283d71,2021-07-29_23h58.23.690,Simcolourproject_2stim_asymm_v5,2020.2.10,MacIntel,60,61025ae37ef11b136ea224fe,,,,,,,,,3201,-35,-75,1,0,0,response5disk,,3,-14,-4,1,0,0,rectangle,-88,-47,1,0,0,-9,-8,1,0,0,0,77,77,94,1,,response5disk_3,TRUE,2,2,"[261,116,78,7,225,156,24,209,212,58,218,255,105,303,305,129,238,54,276,162]",2.596,rectangle
,,,,,,,,,,,,,FF,,,,,,,,0.923,,,,,,,,,,,,,,,,,,,,,,60fefae8e9544b4dc1f315dd,610378c67ffa09886f283d71,2021-07-29_23h58.23.690,Simcolourproject_2stim_asymm_v5,2020.2.10,MacIntel,60,61025ae37ef11b136ea224fe,,,,,,,,,3848,-43,-74,1,0,0,response5disk,,3,-25,-18,1,0,0,rectangle,-25,-18,1,0,0,-25,-18,1,0,0,0,78,78,136,1,,,,,,,,
,,,,,,,,,,,,,FF,,,,,,,,1.476,,,,,,,,,,,,,,,,,,,,,,60fefae8e9544b4dc1f315dd,610378c67ffa09886f283d71,2021-07-29_23h58.23.690,Simcolourproject_2stim_asymm_v5,2020.2.10,MacIntel,60,61025ae37ef11b136ea224fe,,,,,,,,,3431,-49,-98,1,0,0,response5disk,,3,-15,-1,1,0,0,rectangle,-15,-1,1,0,0,-15,-1,1,0,0,0,79,79,4,1,,,,,,,,
,,,,,,,,,,,,,FF,,,,,,,,0.631,,,,,,,,,,,,,,,,,,,,,,60fefae8e9544b4dc1f315dd,610378c67ffa09886f283d71,2021-07-29_23h58.23.690,Simcolourproject_2stim_asymm_v5,2020.2.10,MacIntel,60,61025ae37ef11b136ea224fe,,,,,,,,,1560,35,89,1,0,0,response1disk,,7,2,10,1,0,0,rectangle,2,10,1,0,0,2,10,1,0,0,0,80,80,55,1,,,,,,,,
,,,,,,,,,,,,,FF,,,,,,,,0.491,,,,,,,,,,,,,,,,,,,,,,60fefae8e9544b4dc1f315dd,610378c67ffa09886f283d71,2021-07-29_23h58.23.690,Simcolourproject_2stim_asymm_v5,2020.2.10,MacIntel,60,61025ae37ef11b136ea224fe,,,,,,,,,1485,35,73,1,0,0,response1disk,,7,7,3,1,0,0,rectangle,7,3,1,0,0,7,3,1,0,0,0,81,81,12,1,,,,,,,,
,,,,,,,,,,,,,FF,,,,,,,,0.439,,,,,,,,,,,,,,,,,,,,,,60fefae8e9544b4dc1f315dd,610378c67ffa09886f283d71,2021-07-29_23h58.23.690,Simcolourproject_2stim_asymm_v5,2020.2.10,MacIntel,60,61025ae37ef11b136ea224fe,,,,,,,,,594,35,67,1,0,0,response1disk,,7,5,2,1,0,0,rectangle,5,2,1,0,0,5,2,1,0,0,0,82,82,115,1,,,,,,,,
,,,,,,,,,,,,,FF,,,,,,,,0.949,,,,,,,,,,,,,,,,,,,,,,60fefae8e9544b4dc1f315dd,610378c67ffa09886f283d71,2021-07-29_23h58.23.690,Simcolourproject_2stim_asymm_v5,2020.2.10,MacIntel,60,61025ae37ef11b136ea224fe,,,,,,,,,887,-56,-84,1,0,0,response5disk,,3,-18,-6,1,0,0,rectangle,-18,-6,1,0,0,-18,-6,1,0,0,0,83,83,36,1,,,,,,,,
,,,,,,,,,,,,,FF,,,,,,,,1.364,,,,,,,,,,,,,,,,,,,,,,60fefae8e9544b4dc1f315dd,610378c67ffa09886f283d71,2021-07-29_23h58.23.690,Simcolourproject_2stim_asymm_v5,2020.2.10,MacIntel,60,61025ae37ef11b136ea224fe,,,,,,,,,3471,-93,-43,1,0,0,response5disk,,2,-13,-6,1,0,0,rectangle,-13,-6,1,0,0,-13,-6,1,0,0,0,84,84,135,1,,,,,,,,
,,,,,,,,,,,,,FF,,,,,,,,1.746,,,,,,,,,,,,,,,,,,,,,,60fefae8e9544b4dc1f315dd,610378c67ffa09886f283d71,2021-07-29_23h58.23.690,Simcolourproject_2stim_asymm_v5,2020.2.10,MacIntel,60,61025ae37ef11b136ea224fe,,,,,,,,,136,27,72,1,0,0,response1disk,,7,4,1,1,0,0,rectangle,4,1,1,0,0,4,1,1,0,0,0,85,85,64,1,,,,,,,,
,,,,,,,,,,,,,FF,,,,,,,,0.594,,,,,,,,,,,,,,,,,,,,,,60fefae8e9544b4dc1f315dd,610378c67ffa09886f283d71,2021-07-29_23h58.23.690,Simcolourproject_2stim_asymm_v5,2020.2.10,MacIntel,60,61025ae37ef11b136ea224fe,,,,,,,,,715,29,71,1,0,0,response1disk,,7,4,15,1,0,0,rectangle,4,15,1,0,0,4,15,1,0,0,0,86,86,21,1,,,,,,,,
,,,,,,,,,,,,,FF,,,,,,,,1.248,,,,,,,,,,,,,,,,,,,,,,60fefae8e9544b4dc1f315dd,610378c67ffa09886f283d71,2021-07-29_23h58.23.690,Simcolourproject_2stim_asymm_v5,2020.2.10,MacIntel,60,61025ae37ef11b136ea224fe,,,,,,,,,4357,-83,52,1,0,0,response7disk,,1,-16,15,1,0,0,rectangle,-16,15,1,0,0,-16,15,1,0,0,0,87,87,14,1,,,,,,,,
,,,,,,,,,,,,,FF,,,,,,,,0.681,,,,,,,,,,,,,,,,,,,,,,60fefae8e9544b4dc1f315dd,610378c67ffa09886f283d71,2021-07-29_23h58.23.690,Simcolourproject_2stim_asymm_v5,2020.2.10,MacIntel,60,61025ae37ef11b136ea224fe,,,,,,,,,778,33,73,1,0,0,response1disk,,7,-5,-2,1,0,0,rectangle,-5,-2,1,0,0,-5,-2,1,0,0,0,88,88,103,1,,,,,,,,
,,,,,,,,,,,,,FF,,,,,,,,0.572,,,,,,,,,,,,,,,,,,,,,,60fefae8e9544b4dc1f315dd,610378c67ffa09886f283d71,2021-07-29_23h58.23.690,Simcolourproject_2stim_asymm_v5,2020.2.10,MacIntel,60,61025ae37ef11b136ea224fe,,,,,,,,,698,33,65,1,0,0,response1disk,,7,11,4,1,0,0,rectangle,11,4,1,0,0,11,4,1,0,0,0,89,89,159,1,,,,,,,,
,,,,,,,,,,,,,FF,,,,,,,,0.577,,,,,,,,,,,,,,,,,,,,,,60fefae8e9544b4dc1f315dd,610378c67ffa09886f283d71,2021-07-29_23h58.23.690,Simcolourproject_2stim_asymm_v5,2020.2.10,MacIntel,60,61025ae37ef11b136ea224fe,,,,,,,,,789,32,69,1,0,0,response1disk,,7,9,11,1,0,0,rectangle,9,11,1,0,0,9,11,1,0,0,0,90,90,44,1,,,,,,,,
,,,,,,,,,,,,,FF,,,,,,,,1.908,,,,,,,,,,,,,,,,,,,,,,60fefae8e9544b4dc1f315dd,610378c67ffa09886f283d71,2021-07-29_23h58.23.690,Simcolourproject_2stim_asymm_v5,2020.2.10,MacIntel,60,61025ae37ef11b136ea224fe,,,,,,,,,3550,31,66,1,0,0,response1disk,,7,2,2,1,0,0,rectangle,2,2,1,0,0,2,2,1,0,0,0,91,91,76,1,,,,,,,,
,,,,,,,,,,,,,FF,,,,,,,,1.149,,,,,,,,,,,,,,,,,,,,,,60fefae8e9544b4dc1f315dd,610378c67ffa09886f283d71,2021-07-29_23h58.23.690,Simcolourproject_2stim_asymm_v5,2020.2.10,MacIntel,60,61025ae37ef11b136ea224fe,,,,,,,,,3000,-100,-45,1,0,0,response5disk,,2,-9,-8,1,0,0,rectangle,-9,-8,1,0,0,-9,-8,1,0,0,0,92,92,152,1,,,,,,,,
,,,,,,,,,,,,,FF,,,,,,,,0.761,,,,,,,,,,,,,,,,,,,,,,60fefae8e9544b4dc1f315dd,610378c67ffa09886f283d71,2021-07-29_23h58.23.690,Simcolourproject_2stim_asymm_v5,2020.2.10,MacIntel,60,61025ae37ef11b136ea224fe,,,,,,,,,1943,37,84,1,0,0,response1disk,,7,6,11,1,0,0,rectangle,6,11,1,0,0,6,11,1,0,0,0,93,93,0,1,,,,,,,,
,,,,,,,,,,,,,FF,,,,,,,,0.63,,,,,,,,,,,,,,,,,,,,,,60fefae8e9544b4dc1f315dd,610378c67ffa09886f283d71,2021-07-29_23h58.23.690,Simcolourproject_2stim_asymm_v5,2020.2.10,MacIntel,60,61025ae37ef11b136ea224fe,,,,,,,,,1509,23,83,1,0,0,response1disk,,7,-3,10,1,0,0,rectangle,-3,10,1,0,0,-3,10,1,0,0,0,94,94,86,1,,,,,,,,
,,,,,,,,,,,,,FF,,,,,,,,0.405,,,,,,,,,,,,,,,,,,,,,,60fefae8e9544b4dc1f315dd,610378c67ffa09886f283d71,2021-07-29_23h58.23.690,Simcolourproject_2stim_asymm_v5,2020.2.10,MacIntel,60,61025ae37ef11b136ea224fe,,,,,,,,,1463,31,73,1,0,0,response1disk,,7,-1,-1,1,0,0,rectangle,-1,-1,1,0,0,-1,-1,1,0,0,0,95,95,122,1,,,,,,,,
,,,,,,,,,,,,,FF,,,,,,,,1.029,,,,,,,,,,,,,,,,,,,,,,60fefae8e9544b4dc1f315dd,610378c67ffa09886f283d71,2021-07-29_23h58.23.690,Simcolourproject_2stim_asymm_v5,2020.2.10,MacIntel,60,61025ae37ef11b136ea224fe,,,,,,,,,1751,-42,-93,1,0,0,response5disk,,3,-10,-4,1,0,0,rectangle,-10,-4,1,0,0,-10,-4,1,0,0,0,96,96,151,1,,,,,,,,
,,,,,,,,,,,,,FF,,,,,,,,3.511,,,,,,,,,,,,,,,,,,,,,,60fefae8e9544b4dc1f315dd,610378c67ffa09886f283d71,2021-07-29_23h58.23.690,Simcolourproject_2stim_asymm_v5,2020.2.10,MacIntel,60,61025ae37ef11b136ea224fe,,,,,,,,,3604,28,-83,1,0,0,response3disk,,4,1,1,1,0,0,rectangle,1,1,1,0,0,1,1,1,0,0,0,97,97,107,1,,,,,,,,
,,,,,,,,,,,,,FF,,,,,,,,1.712,,,,,,,,,,,,,,,,,,,,,,60fefae8e9544b4dc1f315dd,610378c67ffa09886f283d71,2021-07-29_23h58.23.690,Simcolourproject_2stim_asymm_v5,2020.2.10,MacIntel,60,61025ae37ef11b136ea224fe,,,,,,,,,2596,32,75,1,0,0,response1disk,,7,-12,-2,1,0,0,rectangle,-12,-2,1,0,0,-12,-2,1,0,0,0,98,98,87,1,,,,,,,,
,,,,,,,,,,,,,FF,,,,,,,,0.792,,,,,,,,,,,,,,,,,,,,,,60fefae8e9544b4dc1f315dd,610378c67ffa09886f283d71,2021-07-29_23h58.23.690,Simcolourproject_2stim_asymm_v5,2020.2.10,MacIntel,60,61025ae37ef11b136ea224fe,,,,,,,,,1038,34,63,1,0,0,response1disk,,7,8,-3,1,0,0,rectangle,8,-3,1,0,0,8,-3,1,0,0,0,99,99,35,1,,,,,,,,
,,,,,,,,,,,,,FF,,,,,,,,0.459,,,,,,,,,,,,,,,,,,,,,,60fefae8e9544b4dc1f315dd,610378c67ffa09886f283d71,2021-07-29_23h58.23.690,Simcolourproject_2stim_asymm_v5,2020.2.10,MacIntel,60,61025ae37ef11b136ea224fe,,,,,,,,,1549,32,65,1,0,0,response1disk,,7,4,5,1,0,0,rectangle,4,5,1,0,0,4,5,1,0,0,0,100,100,132,1,,,,,,,,
,,,,,,,,,,,,,FF,,,,,,,,0.559,,,,,,,,,,,,,,,,,,,,,,60fefae8e9544b4dc1f315dd,610378c67ffa09886f283d71,2021-07-29_23h58.23.690,Simcolourproject_2stim_asymm_v5,2020.2.10,MacIntel,60,61025ae37ef11b136ea224fe,,,,,,,,,538,34,70,1,0,0,response1disk,,7,1,-3,1,0,0,rectangle,1,-3,1,0,0,1,-3,1,0,0,0,101,101,22,1,,,,,,,,
,,,,,,,,,,,,,FF,,,,,,,,1.257,,,,,,,,,,,,,,,,,,,,,,60fefae8e9544b4dc1f315dd,610378c67ffa09886f283d71,2021-07-29_23h58.23.690,Simcolourproject_2stim_asymm_v5,2020.2.10,MacIntel,60,61025ae37ef11b136ea224fe,,,,,,,,,3706,-44,-77,1,0,0,response5disk,,3,-16,-2,1,0,0,rectangle,-16,-2,1,0,0,-16,-2,1,0,0,0,102,102,158,1,,,,,,,,
,,,,,,,,,,,,,FF,,,,,,,,2.24,,,,,,,,,,,,,,,,,,,,,,60fefae8e9544b4dc1f315dd,610378c67ffa09886f283d71,2021-07-29_23h58.23.690,Simcolourproject_2stim_asymm_v5,2020.2.10,MacIntel,60,61025ae37ef11b136ea224fe,,,,,,,,,2710,54,-30,1,0,0,response3disk,,5,14,-1,1,0,0,rectangle,14,-1,1,0,0,14,-1,1,0,0,0,103,103,145,1,,,,,,,,
,,,,,,,,,,,,,FF,,,,,,,,1.493,,,,,,,,,,,,,,,,,,,,,,60fefae8e9544b4dc1f315dd,610378c67ffa09886f283d71,2021-07-29_23h58.23.690,Simcolourproject_2stim_asymm_v5,2020.2.10,MacIntel,60,61025ae37ef11b136ea224fe,,,,,,,,,2944,-100,-32,1,0,0,response5disk,,2,-13,-6,1,0,0,rectangle,27,-78,1,0,0,-7,-3,1,0,0,0,104,104,154,1,,response3disk_3,TRUE,4,4,"[261,116,78,7,225,156,24,209,212,58,218,255,105,303,305,129,238,54,276,162]",2.734,rectangle
,,,,,,,,,,,,,FF,,,,,,,,2.44,,,,,,,,,,,,,,,,,,,,,,60fefae8e9544b4dc1f315dd,610378c67ffa09886f283d71,2021-07-29_23h58.23.690,Simcolourproject_2stim_asymm_v5,2020.2.10,MacIntel,60,61025ae37ef11b136ea224fe,,,,,,,,,3176,84,29,1,0,0,response1disk,,6,32,6,1,0,0,rectangle,32,6,1,0,0,32,6,1,0,0,0,105,105,143,1,,,,,,,,
,,,,,,,,,,,,,FF,,,,,,,,1.111,,,,,,,,,,,,,,,,,,,,,,60fefae8e9544b4dc1f315dd,610378c67ffa09886f283d71,2021-07-29_23h58.23.690,Simcolourproject_2stim_asymm_v5,2020.2.10,MacIntel,60,61025ae37ef11b136ea224fe,,,,,,,,,3910,33,-71,1,0,0,response3disk,,4,-3,2,1,0,0,rectangle,-3,2,1,0,0,-3,2,1,0,0,0,106,106,153,1,,,,,,,,
,,,,,,,,,,,,,FF,,,,,,,,1.556,,,,,,,,,,,,,,,,,,,,,,60fefae8e9544b4dc1f315dd,610378c67ffa09886f283d71,2021-07-29_23h58.23.690,Simcolourproject_2stim_asymm_v5,2020.2.10,MacIntel,60,61025ae37ef11b136ea224fe,,,,,,,,,1405,32,81,1,0,0,response1disk,,7,24,11,1,0,0,rectangle,24,11,1,0,0,24,11,1,0,0,0,107,107,56,1,,,,,,,,
,,,,,,,,,,,,,FF,,,,,,,,0.346,,,,,,,,,,,,,,,,,,,,,,60fefae8e9544b4dc1f315dd,610378c67ffa09886f283d71,2021-07-29_23h58.23.690,Simcolourproject_2stim_asymm_v5,2020.2.10,MacIntel,60,61025ae37ef11b136ea224fe,,,,,,,,,3027,55,66,1,0,0,response1disk,,7,4,-2,1,0,0,rectangle,4,-2,1,0,0,4,-2,1,0,0,0,108,108,69,1,,,,,,,,
,,,,,,,,,,,,,FF,,,,,,,,0.381,,,,,,,,,,,,,,,,,,,,,,60fefae8e9544b4dc1f315dd,610378c67ffa09886f283d71,2021-07-29_23h58.23.690,Simcolourproject_2stim_asymm_v5,2020.2.10,MacIntel,60,61025ae37ef11b136ea224fe,,,,,,,,,1014,37,79,1,0,0,response1disk,,7,3,15,1,0,0,rectangle,3,15,1,0,0,3,15,1,0,0,0,109,109,46,1,,,,,,,,
,,,,,,,,,,,,,FF,,,,,,,,0.538,,,,,,,,,,,,,,,,,,,,,,60fefae8e9544b4dc1f315dd,610378c67ffa09886f283d71,2021-07-29_23h58.23.690,Simcolourproject_2stim_asymm_v5,2020.2.10,MacIntel,60,61025ae37ef11b136ea224fe,,,,,,,,,857,33,76,1,0,0,response1disk,,7,7,7,1,0,0,rectangle,7,7,1,0,0,7,7,1,0,0,0,110,110,45,1,,,,,,,,
,,,,,,,,,,,,,FF,,,,,,,,0.341,,,,,,,,,,,,,,,,,,,,,,60fefae8e9544b4dc1f315dd,610378c67ffa09886f283d71,2021-07-29_23h58.23.690,Simcolourproject_2stim_asymm_v5,2020.2.10,MacIntel,60,61025ae37ef11b136ea224fe,,,,,,,,,1335,45,74,1,0,0,response1disk,,7,14,3,1,0,0,rectangle,14,3,1,0,0,14,3,1,0,0,0,111,111,13,1,,,,,,,,
,,,,,,,,,,,,,FF,,,,,,,,3.096,,,,,,,,,,,,,,,,,,,,,,60fefae8e9544b4dc1f315dd,610378c67ffa09886f283d71,2021-07-29_23h58.23.690,Simcolourproject_2stim_asymm_v5,2020.2.10,MacIntel,60,61025ae37ef11b136ea224fe,,,,,,,,,1508,42,80,1,0,0,response1disk,,7,24,6,1,0,0,rectangle,24,6,1,0,0,24,6,1,0,0,0,112,112,98,1,,,,,,,,
,,,,,,,,,,,,,FF,,,,,,,,1.584,,,,,,,,,,,,,,,,,,,,,,60fefae8e9544b4dc1f315dd,610378c67ffa09886f283d71,2021-07-29_23h58.23.690,Simcolourproject_2stim_asymm_v5,2020.2.10,MacIntel,60,61025ae37ef11b136ea224fe,,,,,,,,,1507,33,53,1,0,0,response1disk,,7,14,2,1,0,0,rectangle,14,2,1,0,0,14,2,1,0,0,0,113,113,60,1,,,,,,,,
,,,,,,,,,,,,,FF,,,,,,,,0.794,,,,,,,,,,,,,,,,,,,,,,60fefae8e9544b4dc1f315dd,610378c67ffa09886f283d71,2021-07-29_23h58.23.690,Simcolourproject_2stim_asymm_v5,2020.2.10,MacIntel,60,61025ae37ef11b136ea224fe,,,,,,,,,350,-36,-88,1,0,0,response5disk,,3,8,5,1,0,0,rectangle,8,5,1,0,0,8,5,1,0,0,0,114,114,11,1,,,,,,,,
,,,,,,,,,,,,,FF,,,,,,,,1.089,,,,,,,,,,,,,,,,,,,,,,60fefae8e9544b4dc1f315dd,610378c67ffa09886f283d71,2021-07-29_23h58.23.690,Simcolourproject_2stim_asymm_v5,2020.2.10,MacIntel,60,61025ae37ef11b136ea224fe,,,,,,,,,761,46,80,1,0,0,response1disk,,7,21,1,1,0,0,rectangle,-99,-47,1,0,0,-15,-1,1,0,0,0,115,115,3,1,,response5disk_3,TRUE,2,2,"[261,116,78,7,225,156,24,209,212,58,218,255,105,303,305,129,238,54,276,162]",1.708,rectangle
,,,,,,,,,,,,,FF,,,,,,,,1.145,,,,,,,,,,,,,,,,,,,,,,60fefae8e9544b4dc1f315dd,610378c67ffa09886f283d71,2021-07-29_23h58.23.690,Simcolourproject_2stim_asymm_v5,2020.2.10,MacIntel,60,61025ae37ef11b136ea224fe,,,,,,,,,2562,32,-73,1,0,0,response3disk,,4,1,3,1,0,0,rectangle,1,3,1,0,0,1,3,1,0,0,0,116,116,140,1,,,,,,,,
,,,,,,,,,,,,,FF,,,,,,,,1.503,,,,,,,,,,,,,,,,,,,,,,60fefae8e9544b4dc1f315dd,610378c67ffa09886f283d71,2021-07-29_23h58.23.690,Simcolourproject_2stim_asymm_v5,2020.2.10,MacIntel,60,61025ae37ef11b136ea224fe,,,,,,,,,3091,-46,-87,1,0,0,response5disk,,3,-14,4,1,0,0,rectangle,-14,4,1,0,0,-14,4,1,0,0,0,117,117,8,1,,,,,,,,
,,,,,,,,,,,,,FF,,,,,,,,0.703,,,,,,,,,,,,,,,,,,,,,,60fefae8e9544b4dc1f315dd,610378c67ffa09886f283d71,2021-07-29_23h58.23.690,Simcolourproject_2stim_asymm_v5,2020.2.10,MacIntel,60,61025ae37ef11b136ea224fe,,,,,,,,,3220,25,78,1,0,0,response1disk,,7,-3,7,1,0,0,rectangle,-3,7,1,0,0,-3,7,1,0,0,0,118,118,112,1,,,,,,,,
,,,,,,,,,,,,,FF,,,,,,,,0.65,,,,,,,,,,,,,,,,,,,,,,60fefae8e9544b4dc1f315dd,610378c67ffa09886f283d71,2021-07-29_23h58.23.690,Simcolourproject_2stim_asymm_v5,2020.2.10,MacIntel,60,61025ae37ef11b136ea224fe,,,,,,,,,2408,27,60,1,0,0,response1disk,,7,5,4,1,0,0,rectangle,5,4,1,0,0,5,4,1,0,0,0,119,119,47,1,,,,,,,,
,,,,,,,,,,,,,FF,,,,,,,,0.378,,,,,,,,,,,,,,,,,,,,,,60fefae8e9544b4dc1f315dd,610378c67ffa09886f283d71,2021-07-29_23h58.23.690,Simcolourproject_2stim_asymm_v5,2020.2.10,MacIntel,60,61025ae37ef11b136ea224fe,,,,,,,,,2855,36,56,1,0,0,response1disk,,7,9,-1,1,0,0,rectangle,9,-1,1,0,0,9,-1,1,0,0,0,120,120,156,1,,,,,,,,
,,,,,,,,,,,,,FF,,,,,,,,1.261,,,,,,,,,,,,,,,,,,,,,,60fefae8e9544b4dc1f315dd,610378c67ffa09886f283d71,2021-07-29_23h58.23.690,Simcolourproject_2stim_asymm_v5,2020.2.10,MacIntel,60,61025ae37ef11b136ea224fe,,,,,,,,,1691,-40,-80,1,0,0,response5disk,,3,-10,-8,1,0,0,rectangle,-10,-8,1,0,0,-10,-8,1,0,0,0,121,121,125,1,,,,,,,,
,,,,,,,,,,,,,FF,,,,,,,,0.664,,,,,,,,,,,,,,,,,,,,,,60fefae8e9544b4dc1f315dd,610378c67ffa09886f283d71,2021-07-29_23h58.23.690,Simcolourproject_2stim_asymm_v5,2020.2.10,MacIntel,60,61025ae37ef11b136ea224fe,,,,,,,,,567,22,69,1,0,0,response1disk,,7,-5,9,1,0,0,rectangle,-5,9,1,0,0,-5,9,1,0,0,0,122,122,74,1,,,,,,,,
,,,,,,,,,,,,,FF,,,,,,,,2.712,,,,,,,,,,,,,,,,,,,,,,60fefae8e9544b4dc1f315dd,610378c67ffa09886f283d71,2021-07-29_23h58.23.690,Simcolourproject_2stim_asymm_v5,2020.2.10,MacIntel,60,61025ae37ef11b136ea224fe,,,,,,,,,1564,42,77,1,0,0,response1disk,,7,15,20,1,0,0,rectangle,15,20,1,0,0,15,20,1,0,0,0,123,123,30,1,,,,,,,,
,,,,,,,,,,,,,FF,,,,,,,,0.545,,,,,,,,,,,,,,,,,,,,,,60fefae8e9544b4dc1f315dd,610378c67ffa09886f283d71,2021-07-29_23h58.23.690,Simcolourproject_2stim_asymm_v5,2020.2.10,MacIntel,60,61025ae37ef11b136ea224fe,,,,,,,,,4174,32,68,1,0,0,response1disk,,7,8,6,1,0,0,rectangle,8,6,1,0,0,8,6,1,0,0,0,124,124,29,1,,,,,,,,
,,,,,,,,,,,,,FF,,,,,,,,0.705,,,,,,,,,,,,,,,,,,,,,,60fefae8e9544b4dc1f315dd,610378c67ffa09886f283d71,2021-07-29_23h58.23.690,Simcolourproject_2stim_asymm_v5,2020.2.10,MacIntel,60,61025ae37ef11b136ea224fe,,,,,,,,,2001,34,75,1,0,0,response1disk,,7,9,8,1,0,0,rectangle,9,8,1,0,0,9,8,1,0,0,0,125,125,92,1,,,,,,,,
,,,,,,,,,,,,,FF,,,,,,,,0.655,,,,,,,,,,,,,,,,,,,,,,60fefae8e9544b4dc1f315dd,610378c67ffa09886f283d71,2021-07-29_23h58.23.690,Simcolourproject_2stim_asymm_v5,2020.2.10,MacIntel,60,61025ae37ef11b136ea224fe,,,,,,,,,699,34,77,1,0,0,response1disk,,7,10,20,1,0,0,rectangle,10,20,1,0,0,10,20,1,0,0,0,126,126,121,1,,,,,,,,
,,,,,,,,,,,,,FF,,,,,,,,0.475,,,,,,,,,,,,,,,,,,,,,,60fefae8e9544b4dc1f315dd,610378c67ffa09886f283d71,2021-07-29_23h58.23.690,Simcolourproject_2stim_asymm_v5,2020.2.10,MacIntel,60,61025ae37ef11b136ea224fe,,,,,,,,,1039,38,68,1,0,0,response1disk,,7,10,18,1,0,0,rectangle,10,18,1,0,0,10,18,1,0,0,0,127,127,101,1,,,,,,,,
,,,,,,,,,,,,,FF,,,,,,,,0.681,,,,,,,,,,,,,,,,,,,,,,60fefae8e9544b4dc1f315dd,610378c67ffa09886f283d71,2021-07-29_23h58.23.690,Simcolourproject_2stim_asymm_v5,2020.2.10,MacIntel,60,61025ae37ef11b136ea224fe,,,,,,,,,406,33,83,1,0,0,response1disk,,7,3,9,1,0,0,rectangle,-44,94,1,0,0,-5,8,1,0,0,0,128,128,15,1,,response7disk_3,TRUE,0,0,"[261,116,78,7,225,156,24,209,212,58,218,255,105,303,305,129,238,54,276,162]",1.458,rectangle
,,,,,,,,,,,,,FF,,,,,,,,1.448,,,,,,,,,,,,,,,,,,,,,,60fefae8e9544b4dc1f315dd,610378c67ffa09886f283d71,2021-07-29_23h58.23.690,Simcolourproject_2stim_asymm_v5,2020.2.10,MacIntel,60,61025ae37ef11b136ea224fe,,,,,,,,,72,-91,-39,1,0,0,response5disk,,2,-19,0,1,0,0,rectangle,-19,0,1,0,0,-19,0,1,0,0,0,129,129,5,1,,,,,,,,
,,,,,,,,,,,,,FF,,,,,,,,0.695,,,,,,,,,,,,,,,,,,,,,,60fefae8e9544b4dc1f315dd,610378c67ffa09886f283d71,2021-07-29_23h58.23.690,Simcolourproject_2stim_asymm_v5,2020.2.10,MacIntel,60,61025ae37ef11b136ea224fe,,,,,,,,,1079,29,69,1,0,0,response1disk,,7,-8,2,1,0,0,rectangle,-8,2,1,0,0,-8,2,1,0,0,0,130,130,77,1,,,,,,,,
,,,,,,,,,,,,,FF,,,,,,,,1.206,,,,,,,,,,,,,,,,,,,,,,60fefae8e9544b4dc1f315dd,610378c67ffa09886f283d71,2021-07-29_23h58.23.690,Simcolourproject_2stim_asymm_v5,2020.2.10,MacIntel,60,61025ae37ef11b136ea224fe,,,,,,,,,524,59,36,1,0,0,response1disk,,6,11,4,1,0,0,rectangle,11,4,1,0,0,11,4,1,0,0,0,131,131,149,1,,,,,,,,
,,,,,,,,,,,,,FF,,,,,,,,0.606,,,,,,,,,,,,,,,,,,,,,,60fefae8e9544b4dc1f315dd,610378c67ffa09886f283d71,2021-07-29_23h58.23.690,Simcolourproject_2stim_asymm_v5,2020.2.10,MacIntel,60,61025ae37ef11b136ea224fe,,,,,,,,,3698,25,63,1,0,0,response1disk,,7,-2,2,1,0,0,rectangle,-2,2,1,0,0,-2,2,1,0,0,0,132,132,105,1,,,,,,,,
,,,,,,,,,,,,,FF,,,,,,,,1.998,,,,,,,,,,,,,,,,,,,,,,60fefae8e9544b4dc1f315dd,610378c67ffa09886f283d71,2021-07-29_23h58.23.690,Simcolourproject_2stim_asymm_v5,2020.2.10,MacIntel,60,61025ae37ef11b136ea224fe,,,,,,,,,3372,38,-68,1,0,0,response3disk,,4,15,0,1,0,0,rectangle,15,0,1,0,0,15,0,1,0,0,0,133,133,139,1,,,,,,,,
,,,,,,,,,,,,,FF,,,,,,,,2.045,,,,,,,,,,,,,,,,,,,,,,60fefae8e9544b4dc1f315dd,610378c67ffa09886f283d71,2021-07-29_23h58.23.690,Simcolourproject_2stim_asymm_v5,2020.2.10,MacIntel,60,61025ae37ef11b136ea224fe,,,,,,,,,10,67,45,1,0,0,response1disk,,6,20,12,1,0,0,rectangle,20,12,1,0,0,20,12,1,0,0,0,134,134,89,1,,,,,,,,
,,,,,,,,,,,,,FF,,,,,,,,1.622,,,,,,,,,,,,,,,,,,,,,,60fefae8e9544b4dc1f315dd,610378c67ffa09886f283d71,2021-07-29_23h58.23.690,Simcolourproject_2stim_asymm_v5,2020.2.10,MacIntel,60,61025ae37ef11b136ea224fe,,,,,,,,,2730,35,-67,1,0,0,response3disk,,4,17,-11,1,0,0,rectangle,17,-11,1,0,0,17,-11,1,0,0,0,135,135,51,1,,,,,,,,
,,,,,,,,,,,,,FF,,,,,,,,1.145,,,,,,,,,,,,,,,,,,,,,,60fefae8e9544b4dc1f315dd,610378c67ffa09886f283d71,2021-07-29_23h58.23.690,Simcolourproject_2stim_asymm_v5,2020.2.10,MacIntel,60,61025ae37ef11b136ea224fe,,,,,,,,,1239,41,73,1,0,0,response1disk,,7,20,3,1,0,0,rectangle,20,3,1,0,0,20,3,1,0,0,0,136,136,129,1,,,,,,,,
,,,,,,,,,,,,,FF,,,,,,,,0.623,,,,,,,,,,,,,,,,,,,,,,60fefae8e9544b4dc1f315dd,610378c67ffa09886f283d71,2021-07-29_23h58.23.690,Simcolourproject_2stim_asymm_v5,2020.2.10,MacIntel,60,61025ae37ef11b136ea224fe,,,,,,,,,4162,42,86,1,0,0,response1disk,,7,8,19,1,0,0,rectangle,8,19,1,0,0,8,19,1,0,0,0,137,137,84,1,,,,,,,,
,,,,,,,,,,,,,FF,,,,,,,,0.98,,,,,,,,,,,,,,,,,,,,,,60fefae8e9544b4dc1f315dd,610378c67ffa09886f283d71,2021-07-29_23h58.23.690,Simcolourproject_2stim_asymm_v5,2020.2.10,MacIntel,60,61025ae37ef11b136ea224fe,,,,,,,,,3162,-28,-84,1,0,0,response5disk,,3,-9,-3,1,0,0,rectangle,-9,-3,1,0,0,-9,-3,1,0,0,0,138,138,113,1,,,,,,,,
,,,,,,,,,,,,,FF,,,,,,,,1.295,,,,,,,,,,,,,,,,,,,,,,60fefae8e9544b4dc1f315dd,610378c67ffa09886f283d71,2021-07-29_23h58.23.690,Simcolourproject_2stim_asymm_v5,2020.2.10,MacIntel,60,61025ae37ef11b136ea224fe,,,,,,,,,2890,-87,-37,1,0,0,response5disk,,2,-8,-6,1,0,0,rectangle,-8,-6,1,0,0,-8,-6,1,0,0,0,139,139,141,1,,,,,,,,
,,,,,,,,,,,,,FF,,,,,,,,0.711,,,,,,,,,,,,,,,,,,,,,,60fefae8e9544b4dc1f315dd,610378c67ffa09886f283d71,2021-07-29_23h58.23.690,Simcolourproject_2stim_asymm_v5,2020.2.10,MacIntel,60,61025ae37ef11b136ea224fe,,,,,,,,,3886,33,65,1,0,0,response1disk,,7,3,-3,1,0,0,rectangle,3,-3,1,0,0,3,-3,1,0,0,0,140,140,106,1,,,,,,,,
,,,,,,,,,,,,,FF,,,,,,,,0.405,,,,,,,,,,,,,,,,,,,,,,60fefae8e9544b4dc1f315dd,610378c67ffa09886f283d71,2021-07-29_23h58.23.690,Simcolourproject_2stim_asymm_v5,2020.2.10,MacIntel,60,61025ae37ef11b136ea224fe,,,,,,,,,3414,40,63,1,0,0,response1disk,,7,11,-1,1,0,0,rectangle,11,-1,1,0,0,11,-1,1,0,0,0,141,141,31,1,,,,,,,,
,,,,,,,,,,,,,FF,,,,,,,,0.455,,,,,,,,,,,,,,,,,,,,,,60fefae8e9544b4dc1f315dd,610378c67ffa09886f283d71,2021-07-29_23h58.23.690,Simcolourproject_2stim_asymm_v5,2020.2.10,MacIntel,60,61025ae37ef11b136ea224fe,,,,,,,,,396,34,80,1,0,0,response1disk,,7,1,16,1,0,0,rectangle,1,16,1,0,0,1,16,1,0,0,0,142,142,66,1,,,,,,,,
,,,,,,,,,,,,,FF,,,,,,,,0.816,,,,,,,,,,,,,,,,,,,,,,60fefae8e9544b4dc1f315dd,610378c67ffa09886f283d71,2021-07-29_23h58.23.690,Simcolourproject_2stim_asymm_v5,2020.2.10,MacIntel,60,61025ae37ef11b136ea224fe,,,,,,,,,2289,32,60,1,0,0,response1disk,,7,6,-9,1,0,0,rectangle,6,-9,1,0,0,6,-9,1,0,0,0,143,143,95,1,,,,,,,,
,,,,,,,,,,,,,FF,,,,,,,,4.461,,,,,,,,,,,,,,,,,,,,,,60fefae8e9544b4dc1f315dd,610378c67ffa09886f283d71,2021-07-29_23h58.23.690,Simcolourproject_2stim_asymm_v5,2020.2.10,MacIntel,60,61025ae37ef11b136ea224fe,,,,,,,,,1891,50,80,1,0,0,response1disk,,7,-4,-13,1,0,0,rectangle,-4,-13,1,0,0,-4,-13,1,0,0,0,144,144,78,1,,,,,,,,
,,,,,,,,,,,,,FF,,,,,,,,0.44,,,,,,,,,,,,,,,,,,,,,,60fefae8e9544b4dc1f315dd,610378c67ffa09886f283d71,2021-07-29_23h58.23.690,Simcolourproject_2stim_asymm_v5,2020.2.10,MacIntel,60,61025ae37ef11b136ea224fe,,,,,,,,,1433,30,90,1,0,0,response1disk,,7,-2,5,1,0,0,rectangle,-2,5,1,0,0,-2,5,1,0,0,0,145,145,33,1,,,,,,,,
,,,,,,,,,,,,,FF,,,,,,,,0.312,,,,,,,,,,,,,,,,,,,,,,60fefae8e9544b4dc1f315dd,610378c67ffa09886f283d71,2021-07-29_23h58.23.690,Simcolourproject_2stim_asymm_v5,2020.2.10,MacIntel,60,61025ae37ef11b136ea224fe,,,,,,,,,1835,41,75,1,0,0,response1disk,,7,6,-1,1,0,0,rectangle,6,-1,1,0,0,6,-1,1,0,0,0,146,146,70,1,,,,,,,,
,,,,,,,,,,,,,FF,,,,,,,,0.54,,,,,,,,,,,,,,,,,,,,,,60fefae8e9544b4dc1f315dd,610378c67ffa09886f283d71,2021-07-29_23h58.23.690,Simcolourproject_2stim_asymm_v5,2020.2.10,MacIntel,60,61025ae37ef11b136ea224fe,,,,,,,,,1032,40,69,1,0,0,response1disk,,7,9,2,1,0,0,rectangle,9,2,1,0,0,9,2,1,0,0,0,147,147,42,1,,,,,,,,
,,,,,,,,,,,,,FF,,,,,,,,0.932,,,,,,,,,,,,,,,,,,,,,,60fefae8e9544b4dc1f315dd,610378c67ffa09886f283d71,2021-07-29_23h58.23.690,Simcolourproject_2stim_asymm_v5,2020.2.10,MacIntel,60,61025ae37ef11b136ea224fe,,,,,,,,,3972,48,-79,1,0,0,response3disk,,4,15,-10,1,0,0,rectangle,15,-10,1,0,0,15,-10,1,0,0,0,148,148,49,1,,,,,,,,
,,,,,,,,,,,,,FF,,,,,,,,0.5,,,,,,,,,,,,,,,,,,,,,,60fefae8e9544b4dc1f315dd,610378c67ffa09886f283d71,2021-07-29_23h58.23.690,Simcolourproject_2stim_asymm_v5,2020.2.10,MacIntel,60,61025ae37ef11b136ea224fe,,,,,,,,,3143,39,-87,1,0,0,response3disk,,4,-2,9,1,0,0,rectangle,-2,9,1,0,0,-2,9,1,0,0,0,149,149,157,1,,,,,,,,
,,,,,,,,,,,,,FF,,,,,,,,0.574,,,,,,,,,,,,,,,,,,,,,,60fefae8e9544b4dc1f315dd,610378c67ffa09886f283d71,2021-07-29_23h58.23.690,Simcolourproject_2stim_asymm_v5,2020.2.10,MacIntel,60,61025ae37ef11b136ea224fe,,,,,,,,,4197,41,-72,1,0,0,response3disk,,4,0,3,1,0,0,rectangle,0,3,1,0,0,0,3,1,0,0,0,150,150,81,1,,,,,,,,
,,,,,,,,,,,,,FF,,,,,,,,1.195,,,,,,,,,,,,,,,,,,,,,,60fefae8e9544b4dc1f315dd,610378c67ffa09886f283d71,2021-07-29_23h58.23.690,Simcolourproject_2stim_asymm_v5,2020.2.10,MacIntel,60,61025ae37ef11b136ea224fe,,,,,,,,,2893,-105,47,1,0,0,response7disk,,1,-14,11,1,0,0,rectangle,-14,11,1,0,0,-14,11,1,0,0,0,151,151,133,1,,,,,,,,
,,,,,,,,,,,,,FF,,,,,,,,0.76,,,,,,,,,,,,,,,,,,,,,,60fefae8e9544b4dc1f315dd,610378c67ffa09886f283d71,2021-07-29_23h58.23.690,Simcolourproject_2stim_asymm_v5,2020.2.10,MacIntel,60,61025ae37ef11b136ea224fe,,,,,,,,,2074,-75,-44,1,0,0,response5disk,,2,-9,3,1,0,0,rectangle,-9,3,1,0,0,-9,3,1,0,0,0,152,152,19,1,,,,,,,,
,,,,,,,,,,,,,FF,,,,,,,,0.83,,,,,,,,,,,,,,,,,,,,,,60fefae8e9544b4dc1f315dd,610378c67ffa09886f283d71,2021-07-29_23h58.23.690,Simcolourproject_2stim_asymm_v5,2020.2.10,MacIntel,60,61025ae37ef11b136ea224fe,,,,,,,,,4154,42,-67,1,0,0,response3disk,,4,11,-2,1,0,0,rectangle,11,-2,1,0,0,11,-2,1,0,0,0,153,153,50,1,,,,,,,,
,,,,,,,,,,,,,FF,,,,,,,,0.278,,,,,,,,,,,,,,,,,,,,,,60fefae8e9544b4dc1f315dd,610378c67ffa09886f283d71,2021-07-29_23h58.23.690,Simcolourproject_2stim_asymm_v5,2020.2.10,MacIntel,60,61025ae37ef11b136ea224fe,,,,,,,,,290,34,67,1,0,0,response1disk,,7,7,6,1,0,0,rectangle,7,6,1,0,0,7,6,1,0,0,0,154,154,43,1,,,,,,,,
,,,,,,,,,,,,,FF,,,,,,,,0.351,,,,,,,,,,,,,,,,,,,,,,60fefae8e9544b4dc1f315dd,610378c67ffa09886f283d71,2021-07-29_23h58.23.690,Simcolourproject_2stim_asymm_v5,2020.2.10,MacIntel,60,61025ae37ef11b136ea224fe,,,,,,,,,1583,31,57,1,0,0,response1disk,,7,5,6,1,0,0,rectangle,95,-44,1,0,0,19,2,1,0,0,0,155,155,96,1,,response3disk_3,TRUE,5,5,"[261,116,78,7,225,156,24,209,212,58,218,255,105,303,305,129,238,54,276,162]",1.5,rectangle
,,,,,,,,,,,,,FF,,,,,,,,1.363,,,,,,,,,,,,,,,,,,,,,,60fefae8e9544b4dc1f315dd,610378c67ffa09886f283d71,2021-07-29_23h58.23.690,Simcolourproject_2stim_asymm_v5,2020.2.10,MacIntel,60,61025ae37ef11b136ea224fe,,,,,,,,,809,33,-73,1,0,0,response3disk,,4,6,-10,1,0,0,rectangle,6,-10,1,0,0,6,-10,1,0,0,0,156,156,155,1,,,,,,,,
,,,,,,,,,,,,,FF,,,,,,,,0.597,,,,,,,,,,,,,,,,,,,,,,60fefae8e9544b4dc1f315dd,610378c67ffa09886f283d71,2021-07-29_23h58.23.690,Simcolourproject_2stim_asymm_v5,2020.2.10,MacIntel,60,61025ae37ef11b136ea224fe,,,,,,,,,2974,35,-72,1,0,0,response3disk,,4,-5,8,1,0,0,rectangle,-5,8,1,0,0,-5,8,1,0,0,0,157,157,120,1,,,,,,,,
,,,,,,,,,,,,,FF,,,,,,,,2.408,,,,,,,,,,,,,,,,,,,,,,60fefae8e9544b4dc1f315dd,610378c67ffa09886f283d71,2021-07-29_23h58.23.690,Simcolourproject_2stim_asymm_v5,2020.2.10,MacIntel,60,61025ae37ef11b136ea224fe,,,,,,,,,204,45,31,1,0,0,response1disk,,6,16,8,1,0,0,rectangle,16,8,1,0,0,16,8,1,0,0,0,158,158,126,1,,,,,,,,
,,,,,,,,,,,,,FF,,,,,,,,0.941,,,,,,,,,,,,,,,,,,,,,,60fefae8e9544b4dc1f315dd,610378c67ffa09886f283d71,2021-07-29_23h58.23.690,Simcolourproject_2stim_asymm_v5,2020.2.10,MacIntel,60,61025ae37ef11b136ea224fe,,,,,,,,,1758,-53,-77,1,0,0,response5disk,,3,-12,-15,1,0,0,rectangle,-12,-15,1,0,0,-12,-15,1,0,0,0,159,159,25,1,,,,,,,,
,,,,,,,,,,,,,FF,,,,,,,,0.731,,,,,,,,,,,,,,,,,,,,,,60fefae8e9544b4dc1f315dd,610378c67ffa09886f283d71,2021-07-29_23h58.23.690,Simcolourproject_2stim_asymm_v5,2020.2.10,MacIntel,60,61025ae37ef11b136ea224fe,,,,,,,,,3775,33,68,1,0,0,response1disk,,7,6,-8,1,0,0,rectangle,6,-8,1,0,0,6,-8,1,0,0,1,0,160,1,1,,,,,,,,
,,,,,,,,,,,,,FF,,,,,,,,1.106,,,,,,,,,,,,,,,,,,,,,,60fefae8e9544b4dc1f315dd,610378c67ffa09886f283d71,2021-07-29_23h58.23.690,Simcolourproject_2stim_asymm_v5,2020.2.10,MacIntel,60,61025ae37ef11b136ea224fe,,,,,,,,,2942,-80,-30,1,0,0,response5disk,,2,-3,12,1,0,0,rectangle,31,-85,1,0,0,0,-13,1,0,0,1,1,161,33,1,,response3disk_3,TRUE,4,4,"[261,116,78,7,225,156,24,209,212,58,218,255,105,303,305,129,238,54,276,162]",2.366,rectangle
,,,,,,,,,,,,,FF,,,,,,,,0.837,,,,,,,,,,,,,,,,,,,,,,60fefae8e9544b4dc1f315dd,610378c67ffa09886f283d71,2021-07-29_23h58.23.690,Simcolourproject_2stim_asymm_v5,2020.2.10,MacIntel,60,61025ae37ef11b136ea224fe,,,,,,,,,2333,37,84,1,0,0,response1disk,,7,7,1,1,0,0,rectangle,7,1,1,0,0,7,1,1,0,0,1,2,162,13,1,,,,,,,,
,,,,,,,,,,,,,FF,,,,,,,,0.914,,,,,,,,,,,,,,,,,,,,,,60fefae8e9544b4dc1f315dd,610378c67ffa09886f283d71,2021-07-29_23h58.23.690,Simcolourproject_2stim_asymm_v5,2020.2.10,MacIntel,60,61025ae37ef11b136ea224fe,,,,,,,,,4102,-49,-78,1,0,0,response5disk,,3,0,0,1,0,0,rectangle,0,0,1,0,0,0,0,1,0,0,1,3,163,63,1,,,,,,,,
,,,,,,,,,,,,,FF,,,,,,,,0.939,,,,,,,,,,,,,,,,,,,,,,60fefae8e9544b4dc1f315dd,610378c67ffa09886f283d71,2021-07-29_23h58.23.690,Simcolourproject_2stim_asymm_v5,2020.2.10,MacIntel,60,61025ae37ef11b136ea224fe,,,,,,,,,3397,55,33,1,0,0,response1disk,,6,1,7,1,0,0,rectangle,1,7,1,0,0,1,7,1,0,0,1,4,164,70,1,,,,,,,,
,,,,,,,,,,,,,FF,,,,,,,,0.377,,,,,,,,,,,,,,,,,,,,,,60fefae8e9544b4dc1f315dd,610378c67ffa09886f283d71,2021-07-29_23h58.23.690,Simcolourproject_2stim_asymm_v5,2020.2.10,MacIntel,60,61025ae37ef11b136ea224fe,,,,,,,,,2921,31,66,1,0,0,response1disk,,7,-1,2,1,0,0,rectangle,-1,2,1,0,0,-1,2,1,0,0,1,5,165,31,1,,,,,,,,
,,,,,,,,,,,,,FF,,,,,,,,0.431,,,,,,,,,,,,,,,,,,,,,,60fefae8e9544b4dc1f315dd,610378c67ffa09886f283d71,2021-07-29_23h58.23.690,Simcolourproject_2stim_asymm_v5,2020.2.10,MacIntel,60,61025ae37ef11b136ea224fe,,,,,,,,,159,32,78,1,0,0,response1disk,,7,13,8,1,0,0,rectangle,13,8,1,0,0,13,8,1,0,0,1,6,166,78,1,,,,,,,,
,,,,,,,,,,,,,FF,,,,,,,,0.977,,,,,,,,,,,,,,,,,,,,,,60fefae8e9544b4dc1f315dd,610378c67ffa09886f283d71,2021-07-29_23h58.23.690,Simcolourproject_2stim_asymm_v5,2020.2.10,MacIntel,60,61025ae37ef11b136ea224fe,,,,,,,,,4353,23,73,1,0,0,response1disk,,7,11,10,1,0,0,rectangle,11,10,1,0,0,11,10,1,0,0,1,7,167,26,1,,,,,,,,
,,,,,,,,,,,,,FF,,,,,,,,0.967,,,,,,,,,,,,,,,,,,,,,,60fefae8e9544b4dc1f315dd,610378c67ffa09886f283d71,2021-07-29_23h58.23.690,Simcolourproject_2stim_asymm_v5,2020.2.10,MacIntel,60,61025ae37ef11b136ea224fe,,,,,,,,,1994,30,64,1,0,0,response1disk,,7,12,6,1,0,0,rectangle,12,6,1,0,0,12,6,1,0,0,1,8,168,71,1,,,,,,,,
,,,,,,,,,,,,,FF,,,,,,,,0.893,,,,,,,,,,,,,,,,,,,,,,60fefae8e9544b4dc1f315dd,610378c67ffa09886f283d71,2021-07-29_23h58.23.690,Simcolourproject_2stim_asymm_v5,2020.2.10,MacIntel,60,61025ae37ef11b136ea224fe,,,,,,,,,3796,41,70,1,0,0,response1disk,,7,14,11,1,0,0,rectangle,14,11,1,0,0,14,11,1,0,0,1,9,169,99,1,,,,,,,,
,,,,,,,,,,,,,FF,,,,,,,,0.805,,,,,,,,,,,,,,,,,,,,,,60fefae8e9544b4dc1f315dd,610378c67ffa09886f283d71,2021-07-29_23h58.23.690,Simcolourproject_2stim_asymm_v5,2020.2.10,MacIntel,60,61025ae37ef11b136ea224fe,,,,,,,,,1968,34,66,1,0,0,response1disk,,7,5,0,1,0,0,rectangle,5,0,1,0,0,5,0,1,0,0,1,10,170,119,1,,,,,,,,
,,,,,,,,,,,,,FF,,,,,,,,1.071,,,,,,,,,,,,,,,,,,,,,,60fefae8e9544b4dc1f315dd,610378c67ffa09886f283d71,2021-07-29_23h58.23.690,Simcolourproject_2stim_asymm_v5,2020.2.10,MacIntel,60,61025ae37ef11b136ea224fe,,,,,,,,,1158,48,-87,1,0,0,response3disk,,4,11,-8,1,0,0,rectangle,11,-8,1,0,0,11,-8,1,0,0,1,11,171,120,1,,,,,,,,
,,,,,,,,,,,,,FF,,,,,,,,1.032,,,,,,,,,,,,,,,,,,,,,,60fefae8e9544b4dc1f315dd,610378c67ffa09886f283d71,2021-07-29_23h58.23.690,Simcolourproject_2stim_asymm_v5,2020.2.10,MacIntel,60,61025ae37ef11b136ea224fe,,,,,,,,,3259,46,-89,1,0,0,response3disk,,4,9,-16,1,0,0,rectangle,9,-16,1,0,0,9,-16,1,0,0,1,12,172,109,1,,,,,,,,
,,,,,,,,,,,,,FF,,,,,,,,0.505,,,,,,,,,,,,,,,,,,,,,,60fefae8e9544b4dc1f315dd,610378c67ffa09886f283d71,2021-07-29_23h58.23.690,Simcolourproject_2stim_asymm_v5,2020.2.10,MacIntel,60,61025ae37ef11b136ea224fe,,,,,,,,,3355,40,106,1,0,0,response1disk,,7,8,19,1,0,0,rectangle,8,19,1,0,0,8,19,1,0,0,1,13,173,83,1,,,,,,,,
,,,,,,,,,,,,,FF,,,,,,,,0.655,,,,,,,,,,,,,,,,,,,,,,60fefae8e9544b4dc1f315dd,610378c67ffa09886f283d71,2021-07-29_23h58.23.690,Simcolourproject_2stim_asymm_v5,2020.2.10,MacIntel,60,61025ae37ef11b136ea224fe,,,,,,,,,3533,33,67,1,0,0,response1disk,,7,8,15,1,0,0,rectangle,8,15,1,0,0,8,15,1,0,0,1,14,174,34,1,,,,,,,,
,,,,,,,,,,,,,FF,,,,,,,,0.505,,,,,,,,,,,,,,,,,,,,,,60fefae8e9544b4dc1f315dd,610378c67ffa09886f283d71,2021-07-29_23h58.23.690,Simcolourproject_2stim_asymm_v5,2020.2.10,MacIntel,60,61025ae37ef11b136ea224fe,,,,,,,,,289,35,64,1,0,0,response1disk,,7,9,1,1,0,0,rectangle,9,1,1,0,0,9,1,1,0,0,1,15,175,142,1,,,,,,,,
,,,,,,,,,,,,,FF,,,,,,,,1.513,,,,,,,,,,,,,,,,,,,,,,60fefae8e9544b4dc1f315dd,610378c67ffa09886f283d71,2021-07-29_23h58.23.690,Simcolourproject_2stim_asymm_v5,2020.2.10,MacIntel,60,61025ae37ef11b136ea224fe,,,,,,,,,13,32,87,1,0,0,response1disk,,7,4,-6,1,0,0,rectangle,4,-6,1,0,0,4,-6,1,0,0,1,16,176,143,1,,,,,,,,
,,,,,,,,,,,,,FF,,,,,,,,1.539,,,,,,,,,,,,,,,,,,,,,,60fefae8e9544b4dc1f315dd,610378c67ffa09886f283d71,2021-07-29_23h58.23.690,Simcolourproject_2stim_asymm_v5,2020.2.10,MacIntel,60,61025ae37ef11b136ea224fe,,,,,,,,,2175,31,57,1,0,0,response1disk,,7,8,-5,1,0,0,rectangle,8,-5,1,0,0,8,-5,1,0,0,1,17,177,100,1,,,,,,,,
,,,,,,,,,,,,,FF,,,,,,,,0.832,,,,,,,,,,,,,,,,,,,,,,60fefae8e9544b4dc1f315dd,610378c67ffa09886f283d71,2021-07-29_23h58.23.690,Simcolourproject_2stim_asymm_v5,2020.2.10,MacIntel,60,61025ae37ef11b136ea224fe,,,,,,,,,3814,-51,-80,1,0,0,response5disk,,3,-11,-4,1,0,0,rectangle,-11,-4,1,0,0,-11,-4,1,0,0,1,18,178,28,1,,,,,,,,
,,,,,,,,,,,,,FF,,,,,,,,1.022,,,,,,,,,,,,,,,,,,,,,,60fefae8e9544b4dc1f315dd,610378c67ffa09886f283d71,2021-07-29_23h58.23.690,Simcolourproject_2stim_asymm_v5,2020.2.10,MacIntel,60,61025ae37ef11b136ea224fe,,,,,,,,,3906,-39,92,1,0,0,response7disk,,0,-12,-7,1,0,0,rectangle,-12,-7,1,0,0,-12,-7,1,0,0,1,19,179,42,1,,,,,,,,
,,,,,,,,,,,,,FF,,,,,,,,1.547,,,,,,,,,,,,,,,,,,,,,,60fefae8e9544b4dc1f315dd,610378c67ffa09886f283d71,2021-07-29_23h58.23.690,Simcolourproject_2stim_asymm_v5,2020.2.10,MacIntel,60,61025ae37ef11b136ea224fe,,,,,,,,,127,-82,29,1,0,0,response7disk,,1,-11,-2,1,0,0,rectangle,-11,-2,1,0,0,-11,-2,1,0,0,1,20,180,146,1,,,,,,,,
,,,,,,,,,,,,,FF,,,,,,,,0.591,,,,,,,,,,,,,,,,,,,,,,60fefae8e9544b4dc1f315dd,610378c67ffa09886f283d71,2021-07-29_23h58.23.690,Simcolourproject_2stim_asymm_v5,2020.2.10,MacIntel,60,61025ae37ef11b136ea224fe,,,,,,,,,360,-65,-36,1,0,0,response5disk,,2,-22,-2,1,0,0,rectangle,-22,-2,1,0,0,-22,-2,1,0,0,1,21,181,76,1,,,,,,,,
,,,,,,,,,,,,,FF,,,,,,,,0.431,,,,,,,,,,,,,,,,,,,,,,60fefae8e9544b4dc1f315dd,610378c67ffa09886f283d71,2021-07-29_23h58.23.690,Simcolourproject_2stim_asymm_v5,2020.2.10,MacIntel,60,61025ae37ef11b136ea224fe,,,,,,,,,2981,32,80,1,0,0,response1disk,,7,8,11,1,0,0,rectangle,8,11,1,0,0,8,11,1,0,0,1,22,182,86,1,,,,,,,,
,,,,,,,,,,,,,FF,,,,,,,,1.325,,,,,,,,,,,,,,,,,,,,,,60fefae8e9544b4dc1f315dd,610378c67ffa09886f283d71,2021-07-29_23h58.23.690,Simcolourproject_2stim_asymm_v5,2020.2.10,MacIntel,60,61025ae37ef11b136ea224fe,,,,,,,,,1888,-74,-47,1,0,0,response5disk,,2,2,-12,1,0,0,rectangle,2,-12,1,0,0,2,-12,1,0,0,1,23,183,68,1,,,,,,,,
,,,,,,,,,,,,,FF,,,,,,,,0.497,,,,,,,,,,,,,,,,,,,,,,60fefae8e9544b4dc1f315dd,610378c67ffa09886f283d71,2021-07-29_23h58.23.690,Simcolourproject_2stim_asymm_v5,2020.2.10,MacIntel,60,61025ae37ef11b136ea224fe,,,,,,,,,1584,33,71,1,0,0,response1disk,,7,-3,3,1,0,0,rectangle,-3,3,1,0,0,-3,3,1,0,0,1,24,184,87,1,,,,,,,,
,,,,,,,,,,,,,FF,,,,,,,,0.751,,,,,,,,,,,,,,,,,,,,,,60fefae8e9544b4dc1f315dd,610378c67ffa09886f283d71,2021-07-29_23h58.23.690,Simcolourproject_2stim_asymm_v5,2020.2.10,MacIntel,60,61025ae37ef11b136ea224fe,,,,,,,,,892,-44,-73,1,0,0,response5disk,,3,-12,-2,1,0,0,rectangle,-12,-2,1,0,0,-12,-2,1,0,0,1,25,185,105,1,,,,,,,,
,,,,,,,,,,,,,FF,,,,,,,,0.795,,,,,,,,,,,,,,,,,,,,,,60fefae8e9544b4dc1f315dd,610378c67ffa09886f283d71,2021-07-29_23h58.23.690,Simcolourproject_2stim_asymm_v5,2020.2.10,MacIntel,60,61025ae37ef11b136ea224fe,,,,,,,,,2490,30,83,1,0,0,response1disk,,7,3,18,1,0,0,rectangle,3,18,1,0,0,3,18,1,0,0,1,26,186,82,1,,,,,,,,
,,,,,,,,,,,,,FF,,,,,,,,0.692,,,,,,,,,,,,,,,,,,,,,,60fefae8e9544b4dc1f315dd,610378c67ffa09886f283d71,2021-07-29_23h58.23.690,Simcolourproject_2stim_asymm_v5,2020.2.10,MacIntel,60,61025ae37ef11b136ea224fe,,,,,,,,,948,40,80,1,0,0,response1disk,,7,6,5,1,0,0,rectangle,6,5,1,0,0,6,5,1,0,0,1,27,187,56,1,,,,,,,,
,,,,,,,,,,,,,FF,,,,,,,,0.516,,,,,,,,,,,,,,,,,,,,,,60fefae8e9544b4dc1f315dd,610378c67ffa09886f283d71,2021-07-29_23h58.23.690,Simcolourproject_2stim_asymm_v5,2020.2.10,MacIntel,60,61025ae37ef11b136ea224fe,,,,,,,,,884,32,67,1,0,0,response1disk,,7,7,8,1,0,0,rectangle,7,8,1,0,0,7,8,1,0,0,1,28,188,24,1,,,,,,,,
,,,,,,,,,,,,,FF,,,,,,,,1.037,,,,,,,,,,,,,,,,,,,,,,60fefae8e9544b4dc1f315dd,610378c67ffa09886f283d71,2021-07-29_23h58.23.690,Simcolourproject_2stim_asymm_v5,2020.2.10,MacIntel,60,61025ae37ef11b136ea224fe,,,,,,,,,4049,39,-68,1,0,0,response3disk,,4,11,-4,1,0,0,rectangle,11,-4,1,0,0,11,-4,1,0,0,1,29,189,0,1,,,,,,,,
,,,,,,,,,,,,,FF,,,,,,,,0.548,,,,,,,,,,,,,,,,,,,,,,60fefae8e9544b4dc1f315dd,610378c67ffa09886f283d71,2021-07-29_23h58.23.690,Simcolourproject_2stim_asymm_v5,2020.2.10,MacIntel,60,61025ae37ef11b136ea224fe,,,,,,,,,97,33,78,1,0,0,response1disk,,7,8,15,1,0,0,rectangle,8,15,1,0,0,8,15,1,0,0,1,30,190,96,1,,,,,,,,
,,,,,,,,,,,,,FF,,,,,,,,0.727,,,,,,,,,,,,,,,,,,,,,,60fefae8e9544b4dc1f315dd,610378c67ffa09886f283d71,2021-07-29_23h58.23.690,Simcolourproject_2stim_asymm_v5,2020.2.10,MacIntel,60,61025ae37ef11b136ea224fe,,,,,,,,,4273,34,80,1,0,0,response1disk,,7,11,15,1,0,0,rectangle,11,15,1,0,0,11,15,1,0,0,1,31,191,55,1,,,,,,,,
,,,,,,,,,,,,,FF,,,,,,,,0.608,,,,,,,,,,,,,,,,,,,,,,60fefae8e9544b4dc1f315dd,610378c67ffa09886f283d71,2021-07-29_23h58.23.690,Simcolourproject_2stim_asymm_v5,2020.2.10,MacIntel,60,61025ae37ef11b136ea224fe,,,,,,,,,1976,38,82,1,0,0,response1disk,,7,4,18,1,0,0,rectangle,4,18,1,0,0,4,18,1,0,0,1,32,192,40,1,,,,,,,,
,,,,,,,,,,,,,FF,,,,,,,,2.225,,,,,,,,,,,,,,,,,,,,,,60fefae8e9544b4dc1f315dd,610378c67ffa09886f283d71,2021-07-29_23h58.23.690,Simcolourproject_2stim_asymm_v5,2020.2.10,MacIntel,60,61025ae37ef11b136ea224fe,,,,,,,,,2356,-53,-87,1,0,0,response5disk,,3,-13,-2,1,0,0,rectangle,-13,-2,1,0,0,-13,-2,1,0,0,1,33,193,38,1,,,,,,,,
,,,,,,,,,,,,,FF,,,,,,,,0.478,,,,,,,,,,,,,,,,,,,,,,60fefae8e9544b4dc1f315dd,610378c67ffa09886f283d71,2021-07-29_23h58.23.690,Simcolourproject_2stim_asymm_v5,2020.2.10,MacIntel,60,61025ae37ef11b136ea224fe,,,,,,,,,1053,30,82,1,0,0,response1disk,,7,-1,8,1,0,0,rectangle,-1,8,1,0,0,-1,8,1,0,0,1,34,194,133,1,,,,,,,,
,,,,,,,,,,,,,FF,,,,,,,,1.89,,,,,,,,,,,,,,,,,,,,,,60fefae8e9544b4dc1f315dd,610378c67ffa09886f283d71,2021-07-29_23h58.23.690,Simcolourproject_2stim_asymm_v5,2020.2.10,MacIntel,60,61025ae37ef11b136ea224fe,,,,,,,,,3595,48,-69,1,0,0,response3disk,,4,11,9,1,0,0,rectangle,11,9,1,0,0,11,9,1,0,0,1,35,195,11,1,,,,,,,,
,,,,,,,,,,,,,FF,,,,,,,,0.599,,,,,,,,,,,,,,,,,,,,,,60fefae8e9544b4dc1f315dd,610378c67ffa09886f283d71,2021-07-29_23h58.23.690,Simcolourproject_2stim_asymm_v5,2020.2.10,MacIntel,60,61025ae37ef11b136ea224fe,,,,,,,,,1472,24,61,1,0,0,response1disk,,7,-2,-7,1,0,0,rectangle,-2,-7,1,0,0,-2,-7,1,0,0,1,36,196,158,1,,,,,,,,
,,,,,,,,,,,,,FF,,,,,,,,0.454,,,,,,,,,,,,,,,,,,,,,,60fefae8e9544b4dc1f315dd,610378c67ffa09886f283d71,2021-07-29_23h58.23.690,Simcolourproject_2stim_asymm_v5,2020.2.10,MacIntel,60,61025ae37ef11b136ea224fe,,,,,,,,,1076,30,72,1,0,0,response1disk,,7,4,20,1,0,0,rectangle,4,20,1,0,0,4,20,1,0,0,1,37,197,14,1,,,,,,,,
,,,,,,,,,,,,,FF,,,,,,,,0.387,,,,,,,,,,,,,,,,,,,,,,60fefae8e9544b4dc1f315dd,610378c67ffa09886f283d71,2021-07-29_23h58.23.690,Simcolourproject_2stim_asymm_v5,2020.2.10,MacIntel,60,61025ae37ef11b136ea224fe,,,,,,,,,2398,47,72,1,0,0,response1disk,,7,-1,17,1,0,0,rectangle,-1,17,1,0,0,-1,17,1,0,0,1,38,198,75,1,,,,,,,,
,,,,,,,,,,,,,FF,,,,,,,,1.099,,,,,,,,,,,,,,,,,,,,,,60fefae8e9544b4dc1f315dd,610378c67ffa09886f283d71,2021-07-29_23h58.23.690,Simcolourproject_2stim_asymm_v5,2020.2.10,MacIntel,60,61025ae37ef11b136ea224fe,,,,,,,,,1530,28,-63,1,0,0,response3disk,,4,1,-11,1,0,0,rectangle,1,-11,1,0,0,1,-11,1,0,0,1,39,199,65,1,,,,,,,,
,,,,,,,,,,,,,FF,,,,,,,,0.823,,,,,,,,,,,,,,,,,,,,,,60fefae8e9544b4dc1f315dd,610378c67ffa09886f283d71,2021-07-29_23h58.23.690,Simcolourproject_2stim_asymm_v5,2020.2.10,MacIntel,60,61025ae37ef11b136ea224fe,,,,,,,,,3978,29,79,1,0,0,response1disk,,7,4,16,1,0,0,rectangle,4,16,1,0,0,4,16,1,0,0,1,40,200,98,1,,,,,,,,
,,,,,,,,,,,,,FF,,,,,,,,1.186,,,,,,,,,,,,,,,,,,,,,,60fefae8e9544b4dc1f315dd,610378c67ffa09886f283d71,2021-07-29_23h58.23.690,Simcolourproject_2stim_asymm_v5,2020.2.10,MacIntel,60,61025ae37ef11b136ea224fe,,,,,,,,,623,28,79,1,0,0,response1disk,,7,2,11,1,0,0,rectangle,2,11,1,0,0,2,11,1,0,0,1,41,201,30,1,,,,,,,,
,,,,,,,,,,,,,FF,,,,,,,,2.237,,,,,,,,,,,,,,,,,,,,,,60fefae8e9544b4dc1f315dd,610378c67ffa09886f283d71,2021-07-29_23h58.23.690,Simcolourproject_2stim_asymm_v5,2020.2.10,MacIntel,60,61025ae37ef11b136ea224fe,,,,,,,,,1217,43,-85,1,0,0,response3disk,,4,-1,0,1,0,0,rectangle,-1,0,1,0,0,-1,0,1,0,0,1,42,202,114,1,,,,,,,,
,,,,,,,,,,,,,FF,,,,,,,,1.784,,,,,,,,,,,,,,,,,,,,,,60fefae8e9544b4dc1f315dd,610378c67ffa09886f283d71,2021-07-29_23h58.23.690,Simcolourproject_2stim_asymm_v5,2020.2.10,MacIntel,60,61025ae37ef11b136ea224fe,,,,,,,,,3916,24,-73,1,0,0,response3disk,,4,4,0,1,0,0,rectangle,4,0,1,0,0,4,0,1,0,0,1,43,203,12,1,,,,,,,,
,,,,,,,,,,,,,FF,,,,,,,,0.815,,,,,,,,,,,,,,,,,,,,,,60fefae8e9544b4dc1f315dd,610378c67ffa09886f283d71,2021-07-29_23h58.23.690,Simcolourproject_2stim_asymm_v5,2020.2.10,MacIntel,60,61025ae37ef11b136ea224fe,,,,,,,,,1384,-28,-74,1,0,0,response5disk,,3,-10,-3,1,0,0,rectangle,-10,-3,1,0,0,-10,-3,1,0,0,1,44,204,62,1,,,,,,,,
,,,,,,,,,,,,,FF,,,,,,,,1.333,,,,,,,,,,,,,,,,,,,,,,60fefae8e9544b4dc1f315dd,610378c67ffa09886f283d71,2021-07-29_23h58.23.690,Simcolourproject_2stim_asymm_v5,2020.2.10,MacIntel,60,61025ae37ef11b136ea224fe,,,,,,,,,3089,-39,-66,1,0,0,response5disk,,3,-20,-17,1,0,0,rectangle,-20,-17,1,0,0,-20,-17,1,0,0,1,45,205,74,1,,,,,,,,
,,,,,,,,,,,,,FF,,,,,,,,2.499,,,,,,,,,,,,,,,,,,,,,,60fefae8e9544b4dc1f315dd,610378c67ffa09886f283d71,2021-07-29_23h58.23.690,Simcolourproject_2stim_asymm_v5,2020.2.10,MacIntel,60,61025ae37ef11b136ea224fe,,,,,,,,,1543,31,61,1,0,0,response1disk,,7,-5,2,1,0,0,rectangle,-5,2,1,0,0,-5,2,1,0,0,1,46,206,153,1,,,,,,,,
,,,,,,,,,,,,,FF,,,,,,,,0.965,,,,,,,,,,,,,,,,,,,,,,60fefae8e9544b4dc1f315dd,610378c67ffa09886f283d71,2021-07-29_23h58.23.690,Simcolourproject_2stim_asymm_v5,2020.2.10,MacIntel,60,61025ae37ef11b136ea224fe,,,,,,,,,2163,-27,-69,1,0,0,response5disk,,3,-12,-7,1,0,0,rectangle,-12,-7,1,0,0,-12,-7,1,0,0,1,47,207,103,1,,,,,,,,
,,,,,,,,,,,,,FF,,,,,,,,0.872,,,,,,,,,,,,,,,,,,,,,,60fefae8e9544b4dc1f315dd,610378c67ffa09886f283d71,2021-07-29_23h58.23.690,Simcolourproject_2stim_asymm_v5,2020.2.10,MacIntel,60,61025ae37ef11b136ea224fe,,,,,,,,,3526,38,-71,1,0,0,response3disk,,4,7,-8,1,0,0,rectangle,-42,-84,1,0,0,-15,10,1,0,0,1,48,208,47,1,,response5disk_3,TRUE,3,3,"[261,116,78,7,225,156,24,209,212,58,218,255,105,303,305,129,238,54,276,162]",2.115,rectangle
,,,,,,,,,,,,,FF,,,,,,,,0.629,,,,,,,,,,,,,,,,,,,,,,60fefae8e9544b4dc1f315dd,610378c67ffa09886f283d71,2021-07-29_23h58.23.690,Simcolourproject_2stim_asymm_v5,2020.2.10,MacIntel,60,61025ae37ef11b136ea224fe,,,,,,,,,2553,-38,-70,1,0,0,response5disk,,3,-14,11,1,0,0,rectangle,-14,11,1,0,0,-14,11,1,0,0,1,49,209,44,1,,,,,,,,
,,,,,,,,,,,,,FF,,,,,,,,0.428,,,,,,,,,,,,,,,,,,,,,,60fefae8e9544b4dc1f315dd,610378c67ffa09886f283d71,2021-07-29_23h58.23.690,Simcolourproject_2stim_asymm_v5,2020.2.10,MacIntel,60,61025ae37ef11b136ea224fe,,,,,,,,,337,35,63,1,0,0,response1disk,,7,2,-11,1,0,0,rectangle,2,-11,1,0,0,2,-11,1,0,0,1,50,210,37,1,,,,,,,,
,,,,,,,,,,,,,FF,,,,,,,,1.059,,,,,,,,,,,,,,,,,,,,,,60fefae8e9544b4dc1f315dd,610378c67ffa09886f283d71,2021-07-29_23h58.23.690,Simcolourproject_2stim_asymm_v5,2020.2.10,MacIntel,60,61025ae37ef11b136ea224fe,,,,,,,,,4356,-43,98,1,0,0,response7disk,,0,-5,3,1,0,0,rectangle,-87,51,1,0,0,-7,-4,1,0,0,1,51,211,5,1,,response7disk_3,TRUE,1,1,"[261,116,78,7,225,156,24,209,212,58,218,255,105,303,305,129,238,54,276,162]",1.505,rectangle
,,,,,,,,,,,,,FF,,,,,,,,0.848,,,,,,,,,,,,,,,,,,,,,,60fefae8e9544b4dc1f315dd,610378c67ffa09886f283d71,2021-07-29_23h58.23.690,Simcolourproject_2stim_asymm_v5,2020.2.10,MacIntel,60,61025ae37ef11b136ea224fe,,,,,,,,,465,22,74,1,0,0,response1disk,,7,0,-2,1,0,0,rectangle,0,-2,1,0,0,0,-2,1,0,0,1,52,212,137,1,,,,,,,,
,,,,,,,,,,,,,FF,,,,,,,,0.428,,,,,,,,,,,,,,,,,,,,,,60fefae8e9544b4dc1f315dd,610378c67ffa09886f283d71,2021-07-29_23h58.23.690,Simcolourproject_2stim_asymm_v5,2020.2.10,MacIntel,60,61025ae37ef11b136ea224fe,,,,,,,,,683,30,70,1,0,0,response1disk,,7,0,2,1,0,0,rectangle,0,2,1,0,0,0,2,1,0,0,1,53,213,80,1,,,,,,,,
,,,,,,,,,,,,,FF,,,,,,,,1.244,,,,,,,,,,,,,,,,,,,,,,60fefae8e9544b4dc1f315dd,610378c67ffa09886f283d71,2021-07-29_23h58.23.690,Simcolourproject_2stim_asymm_v5,2020.2.10,MacIntel,60,61025ae37ef11b136ea224fe,,,,,,,,,2785,-39,-89,1,0,0,response5disk,,3,-14,3,1,0,0,rectangle,-14,3,1,0,0,-14,3,1,0,0,1,54,214,150,1,,,,,,,,
,,,,,,,,,,,,,FF,,,,,,,,0.976,,,,,,,,,,,,,,,,,,,,,,60fefae8e9544b4dc1f315dd,610378c67ffa09886f283d71,2021-07-29_23h58.23.690,Simcolourproject_2stim_asymm_v5,2020.2.10,MacIntel,60,61025ae37ef11b136ea224fe,,,,,,,,,2367,36,-81,1,0,0,response3disk,,4,-2,-3,1,0,0,rectangle,-2,-3,1,0,0,-2,-3,1,0,0,1,55,215,140,1,,,,,,,,
,,,,,,,,,,,,,FF,,,,,,,,0.573,,,,,,,,,,,,,,,,,,,,,,60fefae8e9544b4dc1f315dd,610378c67ffa09886f283d71,2021-07-29_23h58.23.690,Simcolourproject_2stim_asymm_v5,2020.2.10,MacIntel,60,61025ae37ef11b136ea224fe,,,,,,,,,1266,30,75,1,0,0,response1disk,,7,9,2,1,0,0,rectangle,9,2,1,0,0,9,2,1,0,0,1,56,216,122,1,,,,,,,,
,,,,,,,,,,,,,FF,,,,,,,,1.291,,,,,,,,,,,,,,,,,,,,,,60fefae8e9544b4dc1f315dd,610378c67ffa09886f283d71,2021-07-29_23h58.23.690,Simcolourproject_2stim_asymm_v5,2020.2.10,MacIntel,60,61025ae37ef11b136ea224fe,,,,,,,,,3880,44,-79,1,0,0,response3disk,,4,6,-9,1,0,0,rectangle,-87,41,1,0,0,1,-5,1,0,0,1,57,217,69,1,,response7disk_3,TRUE,1,1,"[261,116,78,7,225,156,24,209,212,58,218,255,105,303,305,129,238,54,276,162]",1.359,rectangle
,,,,,,,,,,,,,FF,,,,,,,,0.858,,,,,,,,,,,,,,,,,,,,,,60fefae8e9544b4dc1f315dd,610378c67ffa09886f283d71,2021-07-29_23h58.23.690,Simcolourproject_2stim_asymm_v5,2020.2.10,MacIntel,60,61025ae37ef11b136ea224fe,,,,,,,,,400,29,61,1,0,0,response1disk,,7,7,-4,1,0,0,rectangle,7,-4,1,0,0,7,-4,1,0,0,1,58,218,36,1,,,,,,,,
,,,,,,,,,,,,,FF,,,,,,,,1.18,,,,,,,,,,,,,,,,,,,,,,60fefae8e9544b4dc1f315dd,610378c67ffa09886f283d71,2021-07-29_23h58.23.690,Simcolourproject_2stim_asymm_v5,2020.2.10,MacIntel,60,61025ae37ef11b136ea224fe,,,,,,,,,1778,37,-82,1,0,0,response3disk,,4,-4,-4,1,0,0,rectangle,-4,-4,1,0,0,-4,-4,1,0,0,1,59,219,130,1,,,,,,,,
,,,,,,,,,,,,,FF,,,,,,,,1.382,,,,,,,,,,,,,,,,,,,,,,60fefae8e9544b4dc1f315dd,610378c67ffa09886f283d71,2021-07-29_23h58.23.690,Simcolourproject_2stim_asymm_v5,2020.2.10,MacIntel,60,61025ae37ef11b136ea224fe,,,,,,,,,2796,41,-77,1,0,0,response3disk,,4,7,-2,1,0,0,rectangle,7,-2,1,0,0,7,-2,1,0,0,1,60,220,46,1,,,,,,,,
,,,,,,,,,,,,,FF,,,,,,,,0.908,,,,,,,,,,,,,,,,,,,,,,60fefae8e9544b4dc1f315dd,610378c67ffa09886f283d71,2021-07-29_23h58.23.690,Simcolourproject_2stim_asymm_v5,2020.2.10,MacIntel,60,61025ae37ef11b136ea224fe,,,,,,,,,2702,54,-34,1,0,0,response3disk,,5,7,8,1,0,0,rectangle,7,8,1,0,0,7,8,1,0,0,1,61,221,15,1,,,,,,,,
,,,,,,,,,,,,,FF,,,,,,,,0.906,,,,,,,,,,,,,,,,,,,,,,60fefae8e9544b4dc1f315dd,610378c67ffa09886f283d71,2021-07-29_23h58.23.690,Simcolourproject_2stim_asymm_v5,2020.2.10,MacIntel,60,61025ae37ef11b136ea224fe,,,,,,,,,4143,33,64,1,0,0,response1disk,,7,16,7,1,0,0,rectangle,16,7,1,0,0,16,7,1,0,0,1,62,222,145,1,,,,,,,,
,,,,,,,,,,,,,FF,,,,,,,,1.073,,,,,,,,,,,,,,,,,,,,,,60fefae8e9544b4dc1f315dd,610378c67ffa09886f283d71,2021-07-29_23h58.23.690,Simcolourproject_2stim_asymm_v5,2020.2.10,MacIntel,60,61025ae37ef11b136ea224fe,,,,,,,,,2601,-85,30,1,0,0,response7disk,,1,10,0,1,0,0,rectangle,10,0,1,0,0,10,0,1,0,0,1,63,223,139,1,,,,,,,,
,,,,,,,,,,,,,FF,,,,,,,,1.477,,,,,,,,,,,,,,,,,,,,,,60fefae8e9544b4dc1f315dd,610378c67ffa09886f283d71,2021-07-29_23h58.23.690,Simcolourproject_2stim_asymm_v5,2020.2.10,MacIntel,60,61025ae37ef11b136ea224fe,,,,,,,,,4147,31,63,1,0,0,response1disk,,7,12,0,1,0,0,rectangle,92,-33,1,0,0,22,0,1,0,0,1,64,224,116,1,,response3disk_3,TRUE,5,5,"[261,116,78,7,225,156,24,209,212,58,218,255,105,303,305,129,238,54,276,162]",1.531,rectangle
,,,,,,,,,,,,,FF,,,,,,,,1.1,,,,,,,,,,,,,,,,,,,,,,60fefae8e9544b4dc1f315dd,610378c67ffa09886f283d71,2021-07-29_23h58.23.690,Simcolourproject_2stim_asymm_v5,2020.2.10,MacIntel,60,61025ae37ef11b136ea224fe,,,,,,,,,1783,29,74,1,0,0,response1disk,,7,0,9,1,0,0,rectangle,0,9,1,0,0,0,9,1,0,0,1,65,225,155,1,,,,,,,,
,,,,,,,,,,,,,FF,,,,,,,,0.509,,,,,,,,,,,,,,,,,,,,,,60fefae8e9544b4dc1f315dd,610378c67ffa09886f283d71,2021-07-29_23h58.23.690,Simcolourproject_2stim_asymm_v5,2020.2.10,MacIntel,60,61025ae37ef11b136ea224fe,,,,,,,,,1351,38,52,1,0,0,response1disk,,7,13,-5,1,0,0,rectangle,13,-5,1,0,0,13,-5,1,0,0,1,66,226,121,1,,,,,,,,
,,,,,,,,,,,,,FF,,,,,,,,0.591,,,,,,,,,,,,,,,,,,,,,,60fefae8e9544b4dc1f315dd,610378c67ffa09886f283d71,2021-07-29_23h58.23.690,Simcolourproject_2stim_asymm_v5,2020.2.10,MacIntel,60,61025ae37ef11b136ea224fe,,,,,,,,,1884,36,70,1,0,0,response1disk,,7,14,10,1,0,0,rectangle,14,10,1,0,0,14,10,1,0,0,1,67,227,18,1,,,,,,,,
,,,,,,,,,,,,,FF,,,,,,,,0.392,,,,,,,,,,,,,,,,,,,,,,60fefae8e9544b4dc1f315dd,610378c67ffa09886f283d71,2021-07-29_23h58.23.690,Simcolourproject_2stim_asymm_v5,2020.2.10,MacIntel,60,61025ae37ef11b136ea224fe,,,,,,,,,3011,34,78,1,0,0,response1disk,,7,11,3,1,0,0,rectangle,11,3,1,0,0,11,3,1,0,0,1,68,228,2,1,,,,,,,,
,,,,,,,,,,,,,FF,,,,,,,,0.38,,,,,,,,,,,,,,,,,,,,,,60fefae8e9544b4dc1f315dd,610378c67ffa09886f283d71,2021-07-29_23h58.23.690,Simcolourproject_2stim_asymm_v5,2020.2.10,MacIntel,60,61025ae37ef11b136ea224fe,,,,,,,,,235,36,75,1,0,0,response1disk,,7,9,3,1,0,0,rectangle,9,3,1,0,0,9,3,1,0,0,1,69,229,156,1,,,,,,,,
,,,,,,,,,,,,,FF,,,,,,,,0.382,,,,,,,,,,,,,,,,,,,,,,60fefae8e9544b4dc1f315dd,610378c67ffa09886f283d71,2021-07-29_23h58.23.690,Simcolourproject_2stim_asymm_v5,2020.2.10,MacIntel,60,61025ae37ef11b136ea224fe,,,,,,,,,3500,34,78,1,0,0,response1disk,,7,4,6,1,0,0,rectangle,4,6,1,0,0,4,6,1,0,0,1,70,230,132,1,,,,,,,,
,,,,,,,,,,,,,FF,,,,,,,,1.007,,,,,,,,,,,,,,,,,,,,,,60fefae8e9544b4dc1f315dd,610378c67ffa09886f283d71,2021-07-29_23h58.23.690,Simcolourproject_2stim_asymm_v5,2020.2.10,MacIntel,60,61025ae37ef11b136ea224fe,,,,,,,,,2999,-37,-87,1,0,0,response5disk,,3,-23,3,1,0,0,rectangle,-23,3,1,0,0,-23,3,1,0,0,1,71,231,57,1,,,,,,,,
,,,,,,,,,,,,,FF,,,,,,,,1.666,,,,,,,,,,,,,,,,,,,,,,60fefae8e9544b4dc1f315dd,610378c67ffa09886f283d71,2021-07-29_23h58.23.690,Simcolourproject_2stim_asymm_v5,2020.2.10,MacIntel,60,61025ae37ef11b136ea224fe,,,,,,,,,3836,44,-77,1,0,0,response3disk,,4,0,-1,1,0,0,rectangle,0,-1,1,0,0,0,-1,1,0,0,1,72,232,64,1,,,,,,,,
,,,,,,,,,,,,,FF,,,,,,,,1.426,,,,,,,,,,,,,,,,,,,,,,60fefae8e9544b4dc1f315dd,610378c67ffa09886f283d71,2021-07-29_23h58.23.690,Simcolourproject_2stim_asymm_v5,2020.2.10,MacIntel,60,61025ae37ef11b136ea224fe,,,,,,,,,2375,28,70,1,0,0,response1disk,,7,9,12,1,0,0,rectangle,9,12,1,0,0,9,12,1,0,0,1,73,233,53,1,,,,,,,,
,,,,,,,,,,,,,FF,,,,,,,,0.328,,,,,,,,,,,,,,,,,,,,,,60fefae8e9544b4dc1f315dd,610378c67ffa09886f283d71,2021-07-29_23h58.23.690,Simcolourproject_2stim_asymm_v5,2020.2.10,MacIntel,60,61025ae37ef11b136ea224fe,,,,,,,,,3444,41,69,1,0,0,response1disk,,7,15,12,1,0,0,rectangle,15,12,1,0,0,15,12,1,0,0,1,74,234,144,1,,,,,,,,
,,,,,,,,,,,,,FF,,,,,,,,0.79,,,,,,,,,,,,,,,,,,,,,,60fefae8e9544b4dc1f315dd,610378c67ffa09886f283d71,2021-07-29_23h58.23.690,Simcolourproject_2stim_asymm_v5,2020.2.10,MacIntel,60,61025ae37ef11b136ea224fe,,,,,,,,,280,33,70,1,0,0,response1disk,,7,14,8,1,0,0,rectangle,14,8,1,0,0,14,8,1,0,0,1,75,235,91,1,,,,,,,,
,,,,,,,,,,,,,FF,,,,,,,,0.456,,,,,,,,,,,,,,,,,,,,,,60fefae8e9544b4dc1f315dd,610378c67ffa09886f283d71,2021-07-29_23h58.23.690,Simcolourproject_2stim_asymm_v5,2020.2.10,MacIntel,60,61025ae37ef11b136ea224fe,,,,,,,,,1502,31,73,1,0,0,response1disk,,7,2,6,1,0,0,rectangle,2,6,1,0,0,2,6,1,0,0,1,76,236,129,1,,,,,,,,
,,,,,,,,,,,,,FF,,,,,,,,0.732,,,,,,,,,,,,,,,,,,,,,,60fefae8e9544b4dc1f315dd,610378c67ffa09886f283d71,2021-07-29_23h58.23.690,Simcolourproject_2stim_asymm_v5,2020.2.10,MacIntel,60,61025ae37ef11b136ea224fe,,,,,,,,,3201,-36,-88,1,0,0,response5disk,,3,-14,-12,1,0,0,rectangle,36,85,1,0,0,-3,-2,1,0,0,1,77,237,52,1,,response1disk_3,TRUE,7,7,"[261,116,78,7,225,156,24,209,212,58,218,255,105,303,305,129,238,54,276,162]",4.206,rectangle
,,,,,,,,,,,,,FF,,,,,,,,0.832,,,,,,,,,,,,,,,,,,,,,,60fefae8e9544b4dc1f315dd,610378c67ffa09886f283d71,2021-07-29_23h58.23.690,Simcolourproject_2stim_asymm_v5,2020.2.10,MacIntel,60,61025ae37ef11b136ea224fe,,,,,,,,,3848,51,20,1,0,0,response1disk,,6,12,-4,1,0,0,rectangle,12,-4,1,0,0,12,-4,1,0,0,1,78,238,118,1,,,,,,,,
,,,,,,,,,,,,,FF,,,,,,,,1.262,,,,,,,,,,,,,,,,,,,,,,60fefae8e9544b4dc1f315dd,610378c67ffa09886f283d71,2021-07-29_23h58.23.690,Simcolourproject_2stim_asymm_v5,2020.2.10,MacIntel,60,61025ae37ef11b136ea224fe,,,,,,,,,3431,38,-64,1,0,0,response3disk,,4,0,-3,1,0,0,rectangle,0,-3,1,0,0,0,-3,1,0,0,1,79,239,48,1,,,,,,,,
,,,,,,,,,,,,,FF,,,,,,,,1.355,,,,,,,,,,,,,,,,,,,,,,60fefae8e9544b4dc1f315dd,610378c67ffa09886f283d71,2021-07-29_23h58.23.690,Simcolourproject_2stim_asymm_v5,2020.2.10,MacIntel,60,61025ae37ef11b136ea224fe,,,,,,,,,1560,36,52,1,0,0,response1disk,,7,18,8,1,0,0,rectangle,18,8,1,0,0,18,8,1,0,0,1,80,240,25,1,,,,,,,,
,,,,,,,,,,,,,FF,,,,,,,,0.425,,,,,,,,,,,,,,,,,,,,,,60fefae8e9544b4dc1f315dd,610378c67ffa09886f283d71,2021-07-29_23h58.23.690,Simcolourproject_2stim_asymm_v5,2020.2.10,MacIntel,60,61025ae37ef11b136ea224fe,,,,,,,,,1485,35,71,1,0,0,response1disk,,7,3,10,1,0,0,rectangle,3,10,1,0,0,3,10,1,0,0,1,81,241,94,1,,,,,,,,
,,,,,,,,,,,,,FF,,,,,,,,0.861,,,,,,,,,,,,,,,,,,,,,,60fefae8e9544b4dc1f315dd,610378c67ffa09886f283d71,2021-07-29_23h58.23.690,Simcolourproject_2stim_asymm_v5,2020.2.10,MacIntel,60,61025ae37ef11b136ea224fe,,,,,,,,,594,31,67,1,0,0,response1disk,,7,3,-3,1,0,0,rectangle,3,-3,1,0,0,3,-3,1,0,0,1,82,242,123,1,,,,,,,,
,,,,,,,,,,,,,FF,,,,,,,,1.006,,,,,,,,,,,,,,,,,,,,,,60fefae8e9544b4dc1f315dd,610378c67ffa09886f283d71,2021-07-29_23h58.23.690,Simcolourproject_2stim_asymm_v5,2020.2.10,MacIntel,60,61025ae37ef11b136ea224fe,,,,,,,,,887,-57,-85,1,0,0,response5disk,,3,-22,1,1,0,0,rectangle,-22,1,1,0,0,-22,1,1,0,0,1,83,243,6,1,,,,,,,,
,,,,,,,,,,,,,FF,,,,,,,,2.209,,,,,,,,,,,,,,,,,,,,,,60fefae8e9544b4dc1f315dd,610378c67ffa09886f283d71,2021-07-29_23h58.23.690,Simcolourproject_2stim_asymm_v5,2020.2.10,MacIntel,60,61025ae37ef11b136ea224fe,,,,,,,,,3471,-95,-17,1,0,0,response5disk,,2,-20,11,1,0,0,rectangle,-20,11,1,0,0,-20,11,1,0,0,1,84,244,79,1,,,,,,,,
,,,,,,,,,,,,,FF,,,,,,,,0.789,,,,,,,,,,,,,,,,,,,,,,60fefae8e9544b4dc1f315dd,610378c67ffa09886f283d71,2021-07-29_23h58.23.690,Simcolourproject_2stim_asymm_v5,2020.2.10,MacIntel,60,61025ae37ef11b136ea224fe,,,,,,,,,136,44,79,1,0,0,response1disk,,7,7,1,1,0,0,rectangle,7,1,1,0,0,7,1,1,0,0,1,85,245,131,1,,,,,,,,
,,,,,,,,,,,,,FF,,,,,,,,0.603,,,,,,,,,,,,,,,,,,,,,,60fefae8e9544b4dc1f315dd,610378c67ffa09886f283d71,2021-07-29_23h58.23.690,Simcolourproject_2stim_asymm_v5,2020.2.10,MacIntel,60,61025ae37ef11b136ea224fe,,,,,,,,,715,26,82,1,0,0,response1disk,,7,-12,1,1,0,0,rectangle,-12,1,1,0,0,-12,1,1,0,0,1,86,246,45,1,,,,,,,,
,,,,,,,,,,,,,FF,,,,,,,,1.035,,,,,,,,,,,,,,,,,,,,,,60fefae8e9544b4dc1f315dd,610378c67ffa09886f283d71,2021-07-29_23h58.23.690,Simcolourproject_2stim_asymm_v5,2020.2.10,MacIntel,60,61025ae37ef11b136ea224fe,,,,,,,,,4357,-96,45,1,0,0,response7disk,,1,-14,4,1,0,0,rectangle,-14,4,1,0,0,-14,4,1,0,0,1,87,247,88,1,,,,,,,,
,,,,,,,,,,,,,FF,,,,,,,,0.528,,,,,,,,,,,,,,,,,,,,,,60fefae8e9544b4dc1f315dd,610378c67ffa09886f283d71,2021-07-29_23h58.23.690,Simcolourproject_2stim_asymm_v5,2020.2.10,MacIntel,60,61025ae37ef11b136ea224fe,,,,,,,,,778,37,80,1,0,0,response1disk,,7,-17,8,1,0,0,rectangle,-17,8,1,0,0,-17,8,1,0,0,1,88,248,8,1,,,,,,,,
,,,,,,,,,,,,,FF,,,,,,,,0.928,,,,,,,,,,,,,,,,,,,,,,60fefae8e9544b4dc1f315dd,610378c67ffa09886f283d71,2021-07-29_23h58.23.690,Simcolourproject_2stim_asymm_v5,2020.2.10,MacIntel,60,61025ae37ef11b136ea224fe,,,,,,,,,698,37,63,1,0,0,response1disk,,7,-14,15,1,0,0,rectangle,-14,15,1,0,0,-14,15,1,0,0,1,89,249,157,1,,,,,,,,
,,,,,,,,,,,,,FF,,,,,,,,1.488,,,,,,,,,,,,,,,,,,,,,,60fefae8e9544b4dc1f315dd,610378c67ffa09886f283d71,2021-07-29_23h58.23.690,Simcolourproject_2stim_asymm_v5,2020.2.10,MacIntel,60,61025ae37ef11b136ea224fe,,,,,,,,,789,75,-30,1,0,0,response3disk,,5,6,5,1,0,0,rectangle,6,5,1,0,0,6,5,1,0,0,1,90,250,135,1,,,,,,,,
,,,,,,,,,,,,,FF,,,,,,,,0.821,,,,,,,,,,,,,,,,,,,,,,60fefae8e9544b4dc1f315dd,610378c67ffa09886f283d71,2021-07-29_23h58.23.690,Simcolourproject_2stim_asymm_v5,2020.2.10,MacIntel,60,61025ae37ef11b136ea224fe,,,,,,,,,3550,18,84,1,0,0,response1disk,,7,-9,14,1,0,0,rectangle,-9,14,1,0,0,-9,14,1,0,0,1,91,251,92,1,,,,,,,,
,,,,,,,,,,,,,FF,,,,,,,,1,,,,,,,,,,,,,,,,,,,,,,60fefae8e9544b4dc1f315dd,610378c67ffa09886f283d71,2021-07-29_23h58.23.690,Simcolourproject_2stim_asymm_v5,2020.2.10,MacIntel,60,61025ae37ef11b136ea224fe,,,,,,,,,3000,-90,-45,1,0,0,response5disk,,2,-20,-3,1,0,0,rectangle,-20,-3,1,0,0,-20,-3,1,0,0,1,92,252,102,1,,,,,,,,
,,,,,,,,,,,,,FF,,,,,,,,0.591,,,,,,,,,,,,,,,,,,,,,,60fefae8e9544b4dc1f315dd,610378c67ffa09886f283d71,2021-07-29_23h58.23.690,Simcolourproject_2stim_asymm_v5,2020.2.10,MacIntel,60,61025ae37ef11b136ea224fe,,,,,,,,,1943,32,60,1,0,0,response1disk,,7,2,-7,1,0,0,rectangle,2,-7,1,0,0,2,-7,1,0,0,1,93,253,126,1,,,,,,,,
,,,,,,,,,,,,,FF,,,,,,,,0.498,,,,,,,,,,,,,,,,,,,,,,60fefae8e9544b4dc1f315dd,610378c67ffa09886f283d71,2021-07-29_23h58.23.690,Simcolourproject_2stim_asymm_v5,2020.2.10,MacIntel,60,61025ae37ef11b136ea224fe,,,,,,,,,1509,31,63,1,0,0,response1disk,,7,3,6,1,0,0,rectangle,-101,-50,1,0,0,-11,-5,1,0,0,1,94,254,60,1,,response5disk_3,TRUE,2,2,"[261,116,78,7,225,156,24,209,212,58,218,255,105,303,305,129,238,54,276,162]",1.534,rectangle
,,,,,,,,,,,,,FF,,,,,,,,8.437,,,,,,,,,,,,,,,,,,,,,,60fefae8e9544b4dc1f315dd,610378c67ffa09886f283d71,2021-07-29_23h58.23.690,Simcolourproject_2stim_asymm_v5,2020.2.10,MacIntel,60,61025ae37ef11b136ea224fe,,,,,,,,,1463,39,93,1,0,0,response1disk,,7,9,8,1,0,0,rectangle,9,8,1,0,0,9,8,1,0,0,1,95,255,7,1,,,,,,,,
,,,,,,,,,,,,,FF,,,,,,,,1.084,,,,,,,,,,,,,,,,,,,,,,60fefae8e9544b4dc1f315dd,610378c67ffa09886f283d71,2021-07-29_23h58.23.690,Simcolourproject_2stim_asymm_v5,2020.2.10,MacIntel,60,61025ae37ef11b136ea224fe,,,,,,,,,1751,-53,-86,1,0,0,response5disk,,3,-2,14,1,0,0,rectangle,-2,14,1,0,0,-2,14,1,0,0,1,96,256,134,1,,,,,,,,
,,,,,,,,,,,,,FF,,,,,,,,0.887,,,,,,,,,,,,,,,,,,,,,,60fefae8e9544b4dc1f315dd,610378c67ffa09886f283d71,2021-07-29_23h58.23.690,Simcolourproject_2stim_asymm_v5,2020.2.10,MacIntel,60,61025ae37ef11b136ea224fe,,,,,,,,,3604,-42,-88,1,0,0,response5disk,,3,-27,-1,1,0,0,rectangle,-27,-1,1,0,0,-27,-1,1,0,0,1,97,257,58,1,,,,,,,,
,,,,,,,,,,,,,FF,,,,,,,,1.458,,,,,,,,,,,,,,,,,,,,,,60fefae8e9544b4dc1f315dd,610378c67ffa09886f283d71,2021-07-29_23h58.23.690,Simcolourproject_2stim_asymm_v5,2020.2.10,MacIntel,60,61025ae37ef11b136ea224fe,,,,,,,,,2596,37,67,1,0,0,response1disk,,7,13,-6,1,0,0,rectangle,13,-6,1,0,0,13,-6,1,0,0,1,98,258,152,1,,,,,,,,
,,,,,,,,,,,,,FF,,,,,,,,1.396,,,,,,,,,,,,,,,,,,,,,,60fefae8e9544b4dc1f315dd,610378c67ffa09886f283d71,2021-07-29_23h58.23.690,Simcolourproject_2stim_asymm_v5,2020.2.10,MacIntel,60,61025ae37ef11b136ea224fe,,,,,,,,,1038,-27,-73,1,0,0,response5disk,,3,-11,2,1,0,0,rectangle,-11,2,1,0,0,-11,2,1,0,0,1,99,259,117,1,,,,,,,,
,,,,,,,,,,,,,FF,,,,,,,,0.403,,,,,,,,,,,,,,,,,,,,,,60fefae8e9544b4dc1f315dd,610378c67ffa09886f283d71,2021-07-29_23h58.23.690,Simcolourproject_2stim_asymm_v5,2020.2.10,MacIntel,60,61025ae37ef11b136ea224fe,,,,,,,,,1549,39,67,1,0,0,response1disk,,7,-6,0,1,0,0,rectangle,-100,-44,1,0,0,-2,4,1,0,0,1,100,260,90,1,,response5disk_3,TRUE,2,2,"[261,116,78,7,225,156,24,209,212,58,218,255,105,303,305,129,238,54,276,162]",1.382,rectangle
,,,,,,,,,,,,,FF,,,,,,,,1.104,,,,,,,,,,,,,,,,,,,,,,60fefae8e9544b4dc1f315dd,610378c67ffa09886f283d71,2021-07-29_23h58.23.690,Simcolourproject_2stim_asymm_v5,2020.2.10,MacIntel,60,61025ae37ef11b136ea224fe,,,,,,,,,538,27,65,1,0,0,response1disk,,7,-2,5,1,0,0,rectangle,-2,5,1,0,0,-2,5,1,0,0,1,101,261,112,1,,,,,,,,
,,,,,,,,,,,,,FF,,,,,,,,1.121,,,,,,,,,,,,,,,,,,,,,,60fefae8e9544b4dc1f315dd,610378c67ffa09886f283d71,2021-07-29_23h58.23.690,Simcolourproject_2stim_asymm_v5,2020.2.10,MacIntel,60,61025ae37ef11b136ea224fe,,,,,,,,,3706,-73,-44,1,0,0,response5disk,,2,-32,19,1,0,0,rectangle,-32,19,1,0,0,-32,19,1,0,0,1,102,262,138,1,,,,,,,,
,,,,,,,,,,,,,FF,,,,,,,,2.349,,,,,,,,,,,,,,,,,,,,,,60fefae8e9544b4dc1f315dd,610378c67ffa09886f283d71,2021-07-29_23h58.23.690,Simcolourproject_2stim_asymm_v5,2020.2.10,MacIntel,60,61025ae37ef11b136ea224fe,,,,,,,,,2710,41,-84,1,0,0,response3disk,,4,5,3,1,0,0,rectangle,5,3,1,0,0,5,3,1,0,0,1,103,263,159,1,,,,,,,,
,,,,,,,,,,,,,FF,,,,,,,,0.615,,,,,,,,,,,,,,,,,,,,,,60fefae8e9544b4dc1f315dd,610378c67ffa09886f283d71,2021-07-29_23h58.23.690,Simcolourproject_2stim_asymm_v5,2020.2.10,MacIntel,60,61025ae37ef11b136ea224fe,,,,,,,,,2944,23,-66,1,0,0,response3disk,,4,3,-3,1,0,0,rectangle,3,-3,1,0,0,3,-3,1,0,0,1,104,264,95,1,,,,,,,,
,,,,,,,,,,,,,FF,,,,,,,,1.737,,,,,,,,,,,,,,,,,,,,,,60fefae8e9544b4dc1f315dd,610378c67ffa09886f283d71,2021-07-29_23h58.23.690,Simcolourproject_2stim_asymm_v5,2020.2.10,MacIntel,60,61025ae37ef11b136ea224fe,,,,,,,,,3176,28,77,1,0,0,response1disk,,7,-4,10,1,0,0,rectangle,-4,10,1,0,0,-4,10,1,0,0,1,105,265,151,1,,,,,,,,
,,,,,,,,,,,,,FF,,,,,,,,0.813,,,,,,,,,,,,,,,,,,,,,,60fefae8e9544b4dc1f315dd,610378c67ffa09886f283d71,2021-07-29_23h58.23.690,Simcolourproject_2stim_asymm_v5,2020.2.10,MacIntel,60,61025ae37ef11b136ea224fe,,,,,,,,,3910,-29,-81,1,0,0,response5disk,,3,-2,-6,1,0,0,rectangle,-2,-6,1,0,0,-2,-6,1,0,0,1,106,266,35,1,,,,,,,,
,,,,,,,,,,,,,FF,,,,,,,,0.726,,,,,,,,,,,,,,,,,,,,,,60fefae8e9544b4dc1f315dd,610378c67ffa09886f283d71,2021-07-29_23h58.23.690,Simcolourproject_2stim_asymm_v5,2020.2.10,MacIntel,60,61025ae37ef11b136ea224fe,,,,,,,,,1405,28,73,1,0,0,response1disk,,7,12,15,1,0,0,rectangle,12,15,1,0,0,12,15,1,0,0,1,107,267,41,1,,,,,,,,
,,,,,,,,,,,,,FF,,,,,,,,0.671,,,,,,,,,,,,,,,,,,,,,,60fefae8e9544b4dc1f315dd,610378c67ffa09886f283d71,2021-07-29_23h58.23.690,Simcolourproject_2stim_asymm_v5,2020.2.10,MacIntel,60,61025ae37ef11b136ea224fe,,,,,,,,,3027,30,54,1,0,0,response1disk,,7,15,0,1,0,0,rectangle,15,0,1,0,0,15,0,1,0,0,1,108,268,72,1,,,,,,,,
,,,,,,,,,,,,,FF,,,,,,,,0.469,,,,,,,,,,,,,,,,,,,,,,60fefae8e9544b4dc1f315dd,610378c67ffa09886f283d71,2021-07-29_23h58.23.690,Simcolourproject_2stim_asymm_v5,2020.2.10,MacIntel,60,61025ae37ef11b136ea224fe,,,,,,,,,1014,34,70,1,0,0,response1disk,,7,4,10,1,0,0,rectangle,4,10,1,0,0,4,10,1,0,0,1,109,269,20,1,,,,,,,,
,,,,,,,,,,,,,FF,,,,,,,,0.315,,,,,,,,,,,,,,,,,,,,,,60fefae8e9544b4dc1f315dd,610378c67ffa09886f283d71,2021-07-29_23h58.23.690,Simcolourproject_2stim_asymm_v5,2020.2.10,MacIntel,60,61025ae37ef11b136ea224fe,,,,,,,,,857,34,71,1,0,0,response1disk,,7,14,14,1,0,0,rectangle,14,14,1,0,0,14,14,1,0,0,1,110,270,54,1,,,,,,,,
,,,,,,,,,,,,,FF,,,,,,,,0.675,,,,,,,,,,,,,,,,,,,,,,60fefae8e9544b4dc1f315dd,610378c67ffa09886f283d71,2021-07-29_23h58.23.690,Simcolourproject_2stim_asymm_v5,2020.2.10,MacIntel,60,61025ae37ef11b136ea224fe,,,,,,,,,1335,29,68,1,0,0,response1disk,,7,6,9,1,0,0,rectangle,6,9,1,0,0,6,9,1,0,0,1,111,271,10,1,,,,,,,,
,,,,,,,,,,,,,FF,,,,,,,,0.375,,,,,,,,,,,,,,,,,,,,,,60fefae8e9544b4dc1f315dd,610378c67ffa09886f283d71,2021-07-29_23h58.23.690,Simcolourproject_2stim_asymm_v5,2020.2.10,MacIntel,60,61025ae37ef11b136ea224fe,,,,,,,,,1508,35,74,1,0,0,response1disk,,7,14,7,1,0,0,rectangle,14,7,1,0,0,14,7,1,0,0,1,112,272,59,1,,,,,,,,
,,,,,,,,,,,,,FF,,,,,,,,0.383,,,,,,,,,,,,,,,,,,,,,,60fefae8e9544b4dc1f315dd,610378c67ffa09886f283d71,2021-07-29_23h58.23.690,Simcolourproject_2stim_asymm_v5,2020.2.10,MacIntel,60,61025ae37ef11b136ea224fe,,,,,,,,,1507,35,76,1,0,0,response1disk,,7,11,19,1,0,0,rectangle,11,19,1,0,0,11,19,1,0,0,1,113,273,66,1,,,,,,,,
,,,,,,,,,,,,,FF,,,,,,,,1.293,,,,,,,,,,,,,,,,,,,,,,60fefae8e9544b4dc1f315dd,610378c67ffa09886f283d71,2021-07-29_23h58.23.690,Simcolourproject_2stim_asymm_v5,2020.2.10,MacIntel,60,61025ae37ef11b136ea224fe,,,,,,,,,350,-32,-84,1,0,0,response5disk,,3,0,-2,1,0,0,rectangle,0,-2,1,0,0,0,-2,1,0,0,1,114,274,115,1,,,,,,,,
,,,,,,,,,,,,,FF,,,,,,,,0.509,,,,,,,,,,,,,,,,,,,,,,60fefae8e9544b4dc1f315dd,610378c67ffa09886f283d71,2021-07-29_23h58.23.690,Simcolourproject_2stim_asymm_v5,2020.2.10,MacIntel,60,61025ae37ef11b136ea224fe,,,,,,,,,761,40,78,1,0,0,response1disk,,7,5,15,1,0,0,rectangle,105,42,1,0,0,17,7,1,0,0,1,115,275,147,1,,response1disk_3,TRUE,6,6,"[261,116,78,7,225,156,24,209,212,58,218,255,105,303,305,129,238,54,276,162]",1.404,rectangle
,,,,,,,,,,,,,FF,,,,,,,,1.299,,,,,,,,,,,,,,,,,,,,,,60fefae8e9544b4dc1f315dd,610378c67ffa09886f283d71,2021-07-29_23h58.23.690,Simcolourproject_2stim_asymm_v5,2020.2.10,MacIntel,60,61025ae37ef11b136ea224fe,,,,,,,,,2562,25,73,1,0,0,response1disk,,7,2,3,1,0,0,rectangle,2,3,1,0,0,2,3,1,0,0,1,116,276,49,1,,,,,,,,
,,,,,,,,,,,,,FF,,,,,,,,1.721,,,,,,,,,,,,,,,,,,,,,,60fefae8e9544b4dc1f315dd,610378c67ffa09886f283d71,2021-07-29_23h58.23.690,Simcolourproject_2stim_asymm_v5,2020.2.10,MacIntel,60,61025ae37ef11b136ea224fe,,,,,,,,,3091,67,-29,1,0,0,response3disk,,5,7,2,1,0,0,rectangle,7,2,1,0,0,7,2,1,0,0,1,117,277,124,1,,,,,,,,
,,,,,,,,,,,,,FF,,,,,,,,0.779,,,,,,,,,,,,,,,,,,,,,,60fefae8e9544b4dc1f315dd,610378c67ffa09886f283d71,2021-07-29_23h58.23.690,Simcolourproject_2stim_asymm_v5,2020.2.10,MacIntel,60,61025ae37ef11b136ea224fe,,,,,,,,,3220,39,70,1,0,0,response1disk,,7,9,5,1,0,0,rectangle,9,5,1,0,0,9,5,1,0,0,1,118,278,148,1,,,,,,,,
,,,,,,,,,,,,,FF,,,,,,,,1.076,,,,,,,,,,,,,,,,,,,,,,60fefae8e9544b4dc1f315dd,610378c67ffa09886f283d71,2021-07-29_23h58.23.690,Simcolourproject_2stim_asymm_v5,2020.2.10,MacIntel,60,61025ae37ef11b136ea224fe,,,,,,,,,2408,25,77,1,0,0,response1disk,,7,6,2,1,0,0,rectangle,6,2,1,0,0,6,2,1,0,0,1,119,279,104,1,,,,,,,,
,,,,,,,,,,,,,FF,,,,,,,,0.706,,,,,,,,,,,,,,,,,,,,,,60fefae8e9544b4dc1f315dd,610378c67ffa09886f283d71,2021-07-29_23h58.23.690,Simcolourproject_2stim_asymm_v5,2020.2.10,MacIntel,60,61025ae37ef11b136ea224fe,,,,,,,,,2855,57,34,1,0,0,response1disk,,6,26,0,1,0,0,rectangle,26,0,1,0,0,26,0,1,0,0,1,120,280,29,1,,,,,,,,
,,,,,,,,,,,,,FF,,,,,,,,1.334,,,,,,,,,,,,,,,,,,,,,,60fefae8e9544b4dc1f315dd,610378c67ffa09886f283d71,2021-07-29_23h58.23.690,Simcolourproject_2stim_asymm_v5,2020.2.10,MacIntel,60,61025ae37ef11b136ea224fe,,,,,,,,,1691,45,-86,1,0,0,response3disk,,4,2,-11,1,0,0,rectangle,2,-11,1,0,0,2,-11,1,0,0,1,121,281,141,1,,,,,,,,
,,,,,,,,,,,,,FF,,,,,,,,0.659,,,,,,,,,,,,,,,,,,,,,,60fefae8e9544b4dc1f315dd,610378c67ffa09886f283d71,2021-07-29_23h58.23.690,Simcolourproject_2stim_asymm_v5,2020.2.10,MacIntel,60,61025ae37ef11b136ea224fe,,,,,,,,,567,33,90,1,0,0,response1disk,,7,2,6,1,0,0,rectangle,2,6,1,0,0,2,6,1,0,0,1,122,282,108,1,,,,,,,,
,,,,,,,,,,,,,FF,,,,,,,,0.549,,,,,,,,,,,,,,,,,,,,,,60fefae8e9544b4dc1f315dd,610378c67ffa09886f283d71,2021-07-29_23h58.23.690,Simcolourproject_2stim_asymm_v5,2020.2.10,MacIntel,60,61025ae37ef11b136ea224fe,,,,,,,,,1564,25,57,1,0,0,response1disk,,7,4,3,1,0,0,rectangle,4,3,1,0,0,4,3,1,0,0,1,123,283,127,1,,,,,,,,
,,,,,,,,,,,,,FF,,,,,,,,0.442,,,,,,,,,,,,,,,,,,,,,,60fefae8e9544b4dc1f315dd,610378c67ffa09886f283d71,2021-07-29_23h58.23.690,Simcolourproject_2stim_asymm_v5,2020.2.10,MacIntel,60,61025ae37ef11b136ea224fe,,,,,,,,,4174,39,61,1,0,0,response1disk,,7,3,0,1,0,0,rectangle,3,0,1,0,0,3,0,1,0,0,1,124,284,128,1,,,,,,,,
,,,,,,,,,,,,,FF,,,,,,,,0.653,,,,,,,,,,,,,,,,,,,,,,60fefae8e9544b4dc1f315dd,610378c67ffa09886f283d71,2021-07-29_23h58.23.690,Simcolourproject_2stim_asymm_v5,2020.2.10,MacIntel,60,61025ae37ef11b136ea224fe,,,,,,,,,2001,38,82,1,0,0,response1disk,,7,3,16,1,0,0,rectangle,3,16,1,0,0,3,16,1,0,0,1,125,285,101,1,,,,,,,,
,,,,,,,,,,,,,FF,,,,,,,,0.378,,,,,,,,,,,,,,,,,,,,,,60fefae8e9544b4dc1f315dd,610378c67ffa09886f283d71,2021-07-29_23h58.23.690,Simcolourproject_2stim_asymm_v5,2020.2.10,MacIntel,60,61025ae37ef11b136ea224fe,,,,,,,,,699,36,74,1,0,0,response1disk,,7,3,11,1,0,0,rectangle,3,11,1,0,0,3,11,1,0,0,1,126,286,113,1,,,,,,,,
,,,,,,,,,,,,,FF,,,,,,,,0.466,,,,,,,,,,,,,,,,,,,,,,60fefae8e9544b4dc1f315dd,610378c67ffa09886f283d71,2021-07-29_23h58.23.690,Simcolourproject_2stim_asymm_v5,2020.2.10,MacIntel,60,61025ae37ef11b136ea224fe,,,,,,,,,1039,30,69,1,0,0,response1disk,,7,2,6,1,0,0,rectangle,2,6,1,0,0,2,6,1,0,0,1,127,287,136,1,,,,,,,,
,,,,,,,,,,,,,FF,,,,,,,,0.463,,,,,,,,,,,,,,,,,,,,,,60fefae8e9544b4dc1f315dd,610378c67ffa09886f283d71,2021-07-29_23h58.23.690,Simcolourproject_2stim_asymm_v5,2020.2.10,MacIntel,60,61025ae37ef11b136ea224fe,,,,,,,,,406,35,69,1,0,0,response1disk,,7,8,16,1,0,0,rectangle,8,16,1,0,0,8,16,1,0,0,1,128,288,4,1,,,,,,,,
,,,,,,,,,,,,,FF,,,,,,,,1.113,,,,,,,,,,,,,,,,,,,,,,60fefae8e9544b4dc1f315dd,610378c67ffa09886f283d71,2021-07-29_23h58.23.690,Simcolourproject_2stim_asymm_v5,2020.2.10,MacIntel,60,61025ae37ef11b136ea224fe,,,,,,,,,72,-79,-48,1,0,0,response5disk,,2,-21,1,1,0,0,rectangle,-21,1,1,0,0,-21,1,1,0,0,1,129,289,43,1,,,,,,,,
,,,,,,,,,,,,,FF,,,,,,,,0.549,,,,,,,,,,,,,,,,,,,,,,60fefae8e9544b4dc1f315dd,610378c67ffa09886f283d71,2021-07-29_23h58.23.690,Simcolourproject_2stim_asymm_v5,2020.2.10,MacIntel,60,61025ae37ef11b136ea224fe,,,,,,,,,1079,44,73,1,0,0,response1disk,,7,14,12,1,0,0,rectangle,14,12,1,0,0,14,12,1,0,0,1,130,290,107,1,,,,,,,,
,,,,,,,,,,,,,FF,,,,,,,,1.647,,,,,,,,,,,,,,,,,,,,,,60fefae8e9544b4dc1f315dd,610378c67ffa09886f283d71,2021-07-29_23h58.23.690,Simcolourproject_2stim_asymm_v5,2020.2.10,MacIntel,60,61025ae37ef11b136ea224fe,,,,,,,,,524,-47,-74,1,0,0,response5disk,,3,-10,7,1,0,0,rectangle,-10,7,1,0,0,-10,7,1,0,0,1,131,291,106,1,,,,,,,,
,,,,,,,,,,,,,FF,,,,,,,,2.321,,,,,,,,,,,,,,,,,,,,,,60fefae8e9544b4dc1f315dd,610378c67ffa09886f283d71,2021-07-29_23h58.23.690,Simcolourproject_2stim_asymm_v5,2020.2.10,MacIntel,60,61025ae37ef11b136ea224fe,,,,,,,,,3698,26,79,1,0,0,response1disk,,7,14,1,1,0,0,rectangle,14,1,1,0,0,14,1,1,0,0,1,132,292,17,1,,,,,,,,
,,,,,,,,,,,,,FF,,,,,,,,0.931,,,,,,,,,,,,,,,,,,,,,,60fefae8e9544b4dc1f315dd,610378c67ffa09886f283d71,2021-07-29_23h58.23.690,Simcolourproject_2stim_asymm_v5,2020.2.10,MacIntel,60,61025ae37ef11b136ea224fe,,,,,,,,,3372,38,-65,1,0,0,response3disk,,4,-5,3,1,0,0,rectangle,-5,3,1,0,0,-5,3,1,0,0,1,133,293,77,1,,,,,,,,
,,,,,,,,,,,,,FF,,,,,,,,0.748,,,,,,,,,,,,,,,,,,,,,,60fefae8e9544b4dc1f315dd,610378c67ffa09886f283d71,2021-07-29_23h58.23.690,Simcolourproject_2stim_asymm_v5,2020.2.10,MacIntel,60,61025ae37ef11b136ea224fe,,,,,,,,,10,29,-71,1,0,0,response3disk,,4,15,-1,1,0,0,rectangle,15,-1,1,0,0,15,-1,1,0,0,1,134,294,73,1,,,,,,,,
,,,,,,,,,,,,,FF,,,,,,,,0.644,,,,,,,,,,,,,,,,,,,,,,60fefae8e9544b4dc1f315dd,610378c67ffa09886f283d71,2021-07-29_23h58.23.690,Simcolourproject_2stim_asymm_v5,2020.2.10,MacIntel,60,61025ae37ef11b136ea224fe,,,,,,,,,2730,44,-79,1,0,0,response3disk,,4,5,-3,1,0,0,rectangle,5,-3,1,0,0,5,-3,1,0,0,1,135,295,85,1,,,,,,,,
,,,,,,,,,,,,,FF,,,,,,,,2.028,,,,,,,,,,,,,,,,,,,,,,60fefae8e9544b4dc1f315dd,610378c67ffa09886f283d71,2021-07-29_23h58.23.690,Simcolourproject_2stim_asymm_v5,2020.2.10,MacIntel,60,61025ae37ef11b136ea224fe,,,,,,,,,1239,61,-43,1,0,0,response3disk,,5,19,-4,1,0,0,rectangle,19,-4,1,0,0,19,-4,1,0,0,1,136,296,125,1,,,,,,,,
,,,,,,,,,,,,,FF,,,,,,,,1.02,,,,,,,,,,,,,,,,,,,,,,60fefae8e9544b4dc1f315dd,610378c67ffa09886f283d71,2021-07-29_23h58.23.690,Simcolourproject_2stim_asymm_v5,2020.2.10,MacIntel,60,61025ae37ef11b136ea224fe,,,,,,,,,4162,61,-34,1,0,0,response3disk,,5,8,12,1,0,0,rectangle,8,12,1,0,0,8,12,1,0,0,1,137,297,67,1,,,,,,,,
,,,,,,,,,,,,,FF,,,,,,,,0.677,,,,,,,,,,,,,,,,,,,,,,60fefae8e9544b4dc1f315dd,610378c67ffa09886f283d71,2021-07-29_23h58.23.690,Simcolourproject_2stim_asymm_v5,2020.2.10,MacIntel,60,61025ae37ef11b136ea224fe,,,,,,,,,3162,56,30,1,0,0,response1disk,,6,11,16,1,0,0,rectangle,11,16,1,0,0,11,16,1,0,0,1,138,298,23,1,,,,,,,,
,,,,,,,,,,,,,FF,,,,,,,,0.593,,,,,,,,,,,,,,,,,,,,,,60fefae8e9544b4dc1f315dd,610378c67ffa09886f283d71,2021-07-29_23h58.23.690,Simcolourproject_2stim_asymm_v5,2020.2.10,MacIntel,60,61025ae37ef11b136ea224fe,,,,,,,,,2890,60,28,1,0,0,response1disk,,6,11,10,1,0,0,rectangle,11,10,1,0,0,11,10,1,0,0,1,139,299,84,1,,,,,,,,
,,,,,,,,,,,,,FF,,,,,,,,2.38,,,,,,,,,,,,,,,,,,,,,,60fefae8e9544b4dc1f315dd,610378c67ffa09886f283d71,2021-07-29_23h58.23.690,Simcolourproject_2stim_asymm_v5,2020.2.10,MacIntel,60,61025ae37ef11b136ea224fe,,,,,,,,,3886,30,92,1,0,0,response1disk,,7,-4,10,1,0,0,rectangle,-4,10,1,0,0,-4,10,1,0,0,1,140,300,89,1,,,,,,,,
