key_resp.keys,key_resp.rt,key_resp_14.keys,key_resp_14.rt,key_resp_15.keys,key_resp_15.rt,key_resp_17.keys,key_resp_17.rt,key_resp_9.keys,key_resp_9.rt,key_resp_10.keys,key_resp_10.rt,practice_comparison,Ecc,mouse_5.x,mouse_5.y,mouse_5.leftButton,mouse_5.midButton,mouse_5.rightButton,mouse_5.clicked_name,pracsimilarity,response_time,mouse_10.x,mouse_10.y,mouse_10.leftButton,mouse_10.midButton,mouse_10.rightButton,mouse_10.clicked_name,mouse_7.x,mouse_7.y,mouse_7.leftButton,mouse_7.midButton,mouse_7.rightButton,mouse_6.x,mouse_6.y,mouse_6.leftButton,mouse_6.midButton,mouse_6.rightButton,duringprac.thisRepN,duringprac.thisTrialN,duringprac.thisN,duringprac.thisIndex,duringprac.ran,participant,session,date,expName,psychopyVersion,OS,frameRate,study_id,mouse_7.clicked_name,catchpracsimilarity,catch_response_time,catchnumberprac,catchtrialorderprac,mouse_6.clicked_name,key_resp_22.keys,key_resp_22.rt,realcomparison,mouse.x,mouse.y,mouse.leftButton,mouse.midButton,mouse.rightButton,mouse.clicked_name,Colour2,similarity,mouse_2.x,mouse_2.y,mouse_2.leftButton,mouse_2.midButton,mouse_2.rightButton,mouse_2.clicked_name,mouse_3.x,mouse_3.y,mouse_3.leftButton,mouse_3.midButton,mouse_3.rightButton,mouse_11.x,mouse_11.y,mouse_11.leftButton,mouse_11.midButton,mouse_11.rightButton,trials_2.thisRepN,trials_2.thisTrialN,trials_2.thisN,trials_2.thisIndex,trials_2.ran,Colour1,mouse_3.clicked_name,catchornah,catchsimilarity,catchnumber,catchtrialorder,catchRT,mouse_11.clicked_name
space,1.5578,space,7.6433,space,24.9914,space,3.0166,space,6.416,space,8.9967,47,FF,57.44793701,92.42687988,1,0,0,response1disk_5,7,6.2761,11.48968506,-8.77041626,1,0,0,rectangle_8,11.48968506,-8.77041626,1,0,0,11.48968506,-8.77041626,1,0,0,0,0,0,5,1,60fee7e8473d54816d17c7b7,61036de3cf576104d41a107d,2021-07-29_22h14.41.846,Simcolourproject_2stim_asymm_v5,2020.2.10,Linux aarch64,60,61025ae37ef11b136ea224fe,,,,,,,,,,,,,,,,,,,,,,,,,,,,,,,,,,,,,,,,,,,,,,
,,,,,,,,,,,,126,PF,105.2086182,-36.65591431,1,0,0,response3disk_5,5,4.7531,6.983886719,-11.46899414,1,0,0,rectangle_8,-39.87554932,-87.47943115,1,0,0,12.84130859,-16.41647339,1,0,0,0,1,1,2,1,60fee7e8473d54816d17c7b7,61036de3cf576104d41a107d,2021-07-29_22h14.41.846,Simcolourproject_2stim_asymm_v5,2020.2.10,Linux aarch64,60,61025ae37ef11b136ea224fe,response5disk_7,3,3.0505,3,"[2,5]",rectangle_4,,,,,,,,,,,,,,,,,,,,,,,,,,,,,,,,,,,,,,,,
,,,,,,,,,,,,16,PF,-75.02026367,31.25872803,1,0,0,response7disk_5,1,5.3008,5.632141113,11.91879272,1,0,0,rectangle_8,5.632141113,11.91879272,1,0,0,5.632141113,11.91879272,1,0,0,0,2,2,6,1,60fee7e8473d54816d17c7b7,61036de3cf576104d41a107d,2021-07-29_22h14.41.846,Simcolourproject_2stim_asymm_v5,2020.2.10,Linux aarch64,60,61025ae37ef11b136ea224fe,,,,,,,,,,,,,,,,,,,,,,,,,,,,,,,,,,,,,,,,,,,,,,
,,,,,,,,,,,,24,FF,-49.78814697,-117.6137085,1,0,0,response5disk_5,3,2.9179,24.55615234,1.57421875,1,0,0,rectangle_8,24.55615234,1.57421875,1,0,0,24.55615234,1.57421875,1,0,0,0,3,3,0,1,60fee7e8473d54816d17c7b7,61036de3cf576104d41a107d,2021-07-29_22h14.41.846,Simcolourproject_2stim_asymm_v5,2020.2.10,Linux aarch64,60,61025ae37ef11b136ea224fe,,,,,,,,,,,,,,,,,,,,,,,,,,,,,,,,,,,,,,,,,,,,,,
,,,,,,,,,,,,100,PF,98.45001221,35.75637817,1,0,0,response1disk_5,6,1.9662,12.39074707,-9.220184326,1,0,0,rectangle_8,-61.95367432,-105.9198608,1,0,0,6.533325195,-9.220184326,1,0,0,0,4,4,4,1,60fee7e8473d54816d17c7b7,61036de3cf576104d41a107d,2021-07-29_22h14.41.846,Simcolourproject_2stim_asymm_v5,2020.2.10,Linux aarch64,60,61025ae37ef11b136ea224fe,response5disk_7,3,1.667,3,"[2,5]",rectangle_4,,,,,,,,,,,,,,,,,,,,,,,,,,,,,,,,,,,,,,,,
,,,,,,,,,,,,108,FF,-88.53741455,-58.69442749,1,0,0,response5disk_5,2,1.6153,1.577087402,-6.071838379,1,0,0,rectangle_8,1.577087402,-6.071838379,1,0,0,1.577087402,-6.071838379,1,0,0,0,5,5,3,1,60fee7e8473d54816d17c7b7,61036de3cf576104d41a107d,2021-07-29_22h14.41.846,Simcolourproject_2stim_asymm_v5,2020.2.10,Linux aarch64,60,61025ae37ef11b136ea224fe,,,,,,,,,,,,,,,,,,,,,,,,,,,,,,,,,,,,,,,,,,,,,,
,,,,,,,,,,,,130,PF,-44.83190918,-115.3649292,1,0,0,response5disk_5,3,2.0498,3.379333496,9.220214844,1,0,0,rectangle_8,3.379333496,9.220214844,1,0,0,3.379333496,9.220214844,1,0,0,0,6,6,1,1,60fee7e8473d54816d17c7b7,61036de3cf576104d41a107d,2021-07-29_22h14.41.846,Simcolourproject_2stim_asymm_v5,2020.2.10,Linux aarch64,60,61025ae37ef11b136ea224fe,,,,,,,,,,,,,,,,,,,,,,,,,,,,,,,,,,,,,,,,,,,,,,
,,,,,,,,,,,,,FF,,,,,,,,1.7853,,,,,,,,,,,,,,,,,,,,,,60fee7e8473d54816d17c7b7,61036de3cf576104d41a107d,2021-07-29_22h14.41.846,Simcolourproject_2stim_asymm_v5,2020.2.10,Linux aarch64,60,61025ae37ef11b136ea224fe,,,,,,,space,28.6311,614,62.40423584,-99.17333984,1,0,0,response3disk,,4,4.731018066,2.023956299,1,0,0,rectangle,4.731018066,2.023956299,1,0,0,4.731018066,2.023956299,1,0,0,0,0,0,35,1,,,,,,,,
,,,,,,,,,,,,,FF,,,,,,,,1.1993,,,,,,,,,,,,,,,,,,,,,,60fee7e8473d54816d17c7b7,61036de3cf576104d41a107d,2021-07-29_22h14.41.846,Simcolourproject_2stim_asymm_v5,2020.2.10,Linux aarch64,60,61025ae37ef11b136ea224fe,,,,,,,,,2886,-39.42504883,106.8193665,1,0,0,response7disk,,0,7.434509277,-14.61740112,1,0,0,rectangle,7.434509277,-14.61740112,1,0,0,7.434509277,-14.61740112,1,0,0,0,1,1,136,1,,,,,,,,
,,,,,,,,,,,,,FF,,,,,,,,1.7177,,,,,,,,,,,,,,,,,,,,,,60fee7e8473d54816d17c7b7,61036de3cf576104d41a107d,2021-07-29_22h14.41.846,Simcolourproject_2stim_asymm_v5,2020.2.10,Linux aarch64,60,61025ae37ef11b136ea224fe,,,,,,,,,2470,46.18365479,-103.6710205,1,0,0,response3disk,,4,-3.82989502,-0.674621582,1,0,0,rectangle,-3.82989502,-0.674621582,1,0,0,-3.82989502,-0.674621582,1,0,0,0,2,2,58,1,,,,,,,,
,,,,,,,,,,,,,FF,,,,,,,,1.2668,,,,,,,,,,,,,,,,,,,,,,60fee7e8473d54816d17c7b7,61036de3cf576104d41a107d,2021-07-29_22h14.41.846,Simcolourproject_2stim_asymm_v5,2020.2.10,Linux aarch64,60,61025ae37ef11b136ea224fe,,,,,,,,,867,-59.70074463,-104.5704956,1,0,0,response5disk,,3,6.533325195,2.473724365,1,0,0,rectangle,6.533325195,2.473724365,1,0,0,6.533325195,2.473724365,1,0,0,0,3,3,90,1,,,,,,,,
,,,,,,,,,,,,,FF,,,,,,,,1.6813,,,,,,,,,,,,,,,,,,,,,,60fee7e8473d54816d17c7b7,61036de3cf576104d41a107d,2021-07-29_22h14.41.846,Simcolourproject_2stim_asymm_v5,2020.2.10,Linux aarch64,60,61025ae37ef11b136ea224fe,,,,,,,,,1702,97.54882813,-42.50283813,1,0,0,response3disk,,5,12.84130859,4.272796631,1,0,0,rectangle,12.84130859,4.272796631,1,0,0,12.84130859,4.272796631,1,0,0,0,4,4,118,1,,,,,,,,
,,,,,,,,,,,,,FF,,,,,,,,2.8173,,,,,,,,,,,,,,,,,,,,,,60fee7e8473d54816d17c7b7,61036de3cf576104d41a107d,2021-07-29_22h14.41.846,Simcolourproject_2stim_asymm_v5,2020.2.10,Linux aarch64,60,61025ae37ef11b136ea224fe,,,,,,,,,3311,-80.42706299,-49.6991272,1,0,0,response5disk,,2,28.61132813,3.823028564,1,0,0,rectangle,28.61132813,3.823028564,1,0,0,28.61132813,3.823028564,1,0,0,0,5,5,117,1,,,,,,,,
,,,,,,,,,,,,,FF,,,,,,,,3.4335,,,,,,,,,,,,,,,,,,,,,,60fee7e8473d54816d17c7b7,61036de3cf576104d41a107d,2021-07-29_22h14.41.846,Simcolourproject_2stim_asymm_v5,2020.2.10,Linux aarch64,60,61025ae37ef11b136ea224fe,,,,,,,,,2057,-75.47076416,-51.04840088,1,0,0,response5disk,,2,11.48968506,-9.220184326,1,0,0,rectangle,11.48968506,-9.220184326,1,0,0,11.48968506,-9.220184326,1,0,0,0,6,6,127,1,,,,,,,,
,,,,,,,,,,,,,FF,,,,,,,,3.0158,,,,,,,,,,,,,,,,,,,,,,60fee7e8473d54816d17c7b7,61036de3cf576104d41a107d,2021-07-29_22h14.41.846,Simcolourproject_2stim_asymm_v5,2020.2.10,Linux aarch64,60,61025ae37ef11b136ea224fe,,,,,,,,,4325,97.0982666,32.15823364,1,0,0,response1disk,,6,15.09417725,-6.971343994,1,0,0,rectangle,115.5717163,42.50286865,1,0,0,19.59991455,-12.81832886,1,0,0,0,7,7,45,1,,response1disk_3,TRUE,6,6,"[241,8,123,100,78,97,163,254,155,189,263,247,135,299,167,249,36,191,288,224]",2.034,rectangle
,,,,,,,,,,,,,FF,,,,,,,,3.1842,,,,,,,,,,,,,,,,,,,,,,60fee7e8473d54816d17c7b7,61036de3cf576104d41a107d,2021-07-29_22h14.41.846,Simcolourproject_2stim_asymm_v5,2020.2.10,Linux aarch64,60,61025ae37ef11b136ea224fe,,,,,,,,,3534,70.06396484,-96.47479248,1,0,0,response3disk,,4,27.71014404,-6.971343994,1,0,0,rectangle,27.71014404,-6.971343994,1,0,0,27.71014404,-6.971343994,1,0,0,0,8,8,74,1,,,,,,,,
,,,,,,,,,,,,,FF,,,,,,,,3.1008,,,,,,,,,,,,,,,,,,,,,,60fee7e8473d54816d17c7b7,61036de3cf576104d41a107d,2021-07-29_22h14.41.846,Simcolourproject_2stim_asymm_v5,2020.2.10,Linux aarch64,60,61025ae37ef11b136ea224fe,,,,,,,,,295,108.3626099,-70.83810425,1,0,0,response3disk,,5,19.59991455,-13.71783447,1,0,0,rectangle,19.59991455,-13.71783447,1,0,0,19.59991455,-13.71783447,1,0,0,0,9,9,49,1,,,,,,,,
,,,,,,,,,,,,,FF,,,,,,,,2.0995,,,,,,,,,,,,,,,,,,,,,,60fee7e8473d54816d17c7b7,61036de3cf576104d41a107d,2021-07-29_22h14.41.846,Simcolourproject_2stim_asymm_v5,2020.2.10,Linux aarch64,60,61025ae37ef11b136ea224fe,,,,,,,,,3366,97.99945068,35.75637817,1,0,0,response1disk,,6,25.90789795,-10.11972046,1,0,0,rectangle,25.90789795,-10.11972046,1,0,0,25.90789795,-10.11972046,1,0,0,0,10,10,60,1,,,,,,,,
,,,,,,,,,,,,,FF,,,,,,,,2.1866,,,,,,,,,,,,,,,,,,,,,,60fee7e8473d54816d17c7b7,61036de3cf576104d41a107d,2021-07-29_22h14.41.846,Simcolourproject_2stim_asymm_v5,2020.2.10,Linux aarch64,60,61025ae37ef11b136ea224fe,,,,,,,,,2316,-42.128479,-105.0202637,1,0,0,response5disk,,3,23.20452881,-13.71783447,1,0,0,rectangle,23.20452881,-13.71783447,1,0,0,23.20452881,-13.71783447,1,0,0,0,11,11,1,1,,,,,,,,
,,,,,,,,,,,,,FF,,,,,,,,3.1172,,,,,,,,,,,,,,,,,,,,,,60fee7e8473d54816d17c7b7,61036de3cf576104d41a107d,2021-07-29_22h14.41.846,Simcolourproject_2stim_asymm_v5,2020.2.10,Linux aarch64,60,61025ae37ef11b136ea224fe,,,,,,,,,681,102.505188,-50.59863281,1,0,0,response3disk,,5,-12.39068604,-2.923431396,1,0,0,rectangle,-12.39068604,-2.923431396,1,0,0,-12.39068604,-2.923431396,1,0,0,0,12,12,129,1,,,,,,,,
,,,,,,,,,,,,,FF,,,,,,,,3.3664,,,,,,,,,,,,,,,,,,,,,,60fee7e8473d54816d17c7b7,61036de3cf576104d41a107d,2021-07-29_22h14.41.846,Simcolourproject_2stim_asymm_v5,2020.2.10,Linux aarch64,60,61025ae37ef11b136ea224fe,,,,,,,,,2035,101.1534424,42.95263672,1,0,0,response1disk,,6,2.928710938,1.124420166,1,0,0,rectangle,2.928710938,1.124420166,1,0,0,2.928710938,1.124420166,1,0,0,0,13,13,158,1,,,,,,,,
,,,,,,,,,,,,,FF,,,,,,,,1.2168,,,,,,,,,,,,,,,,,,,,,,60fee7e8473d54816d17c7b7,61036de3cf576104d41a107d,2021-07-29_22h14.41.846,Simcolourproject_2stim_asymm_v5,2020.2.10,Linux aarch64,60,61025ae37ef11b136ea224fe,,,,,,,,,4366,-24.10552979,80.28320313,1,0,0,response7disk,,0,-17.34698486,-6.521575928,1,0,0,rectangle,-17.34698486,-6.521575928,1,0,0,-17.34698486,-6.521575928,1,0,0,0,14,14,25,1,,,,,,,,
,,,,,,,,,,,,,FF,,,,,,,,1.3331,,,,,,,,,,,,,,,,,,,,,,60fee7e8473d54816d17c7b7,61036de3cf576104d41a107d,2021-07-29_22h14.41.846,Simcolourproject_2stim_asymm_v5,2020.2.10,Linux aarch64,60,61025ae37ef11b136ea224fe,,,,,,,,,4295,-96.19708252,-49.24932861,1,0,0,response5disk,,2,7.885009766,-1.124420166,1,0,0,rectangle,7.885009766,-1.124420166,1,0,0,7.885009766,-1.124420166,1,0,0,0,15,15,151,1,,,,,,,,
,,,,,,,,,,,,,FF,,,,,,,,2.2831,,,,,,,,,,,,,,,,,,,,,,60fee7e8473d54816d17c7b7,61036de3cf576104d41a107d,2021-07-29_22h14.41.846,Simcolourproject_2stim_asymm_v5,2020.2.10,Linux aarch64,60,61025ae37ef11b136ea224fe,,,,,,,,,2231,-71.86627197,29.90945435,1,0,0,response7disk,,1,-2.928710938,-9.66998291,1,0,0,rectangle,-2.928710938,-9.66998291,1,0,0,-2.928710938,-9.66998291,1,0,0,0,16,16,44,1,,,,,,,,
,,,,,,,,,,,,,FF,,,,,,,,0.949,,,,,,,,,,,,,,,,,,,,,,60fee7e8473d54816d17c7b7,61036de3cf576104d41a107d,2021-07-29_22h14.41.846,Simcolourproject_2stim_asymm_v5,2020.2.10,Linux aarch64,60,61025ae37ef11b136ea224fe,,,,,,,,,1293,-88.53741455,-63.6418457,1,0,0,response5disk,,2,8.786132813,2.923492432,1,0,0,rectangle,8.786132813,2.923492432,1,0,0,8.786132813,2.923492432,1,0,0,0,17,17,138,1,,,,,,,,
,,,,,,,,,,,,,FF,,,,,,,,0.8306,,,,,,,,,,,,,,,,,,,,,,60fee7e8473d54816d17c7b7,61036de3cf576104d41a107d,2021-07-29_22h14.41.846,Simcolourproject_2stim_asymm_v5,2020.2.10,Linux aarch64,60,61025ae37ef11b136ea224fe,,,,,,,,,2591,-64.20648193,33.05776978,1,0,0,response7disk,,1,9.236755371,-8.320648193,1,0,0,rectangle,9.236755371,-8.320648193,1,0,0,9.236755371,-8.320648193,1,0,0,0,18,18,61,1,,,,,,,,
,,,,,,,,,,,,,FF,,,,,,,,1.5498,,,,,,,,,,,,,,,,,,,,,,60fee7e8473d54816d17c7b7,61036de3cf576104d41a107d,2021-07-29_22h14.41.846,Simcolourproject_2stim_asymm_v5,2020.2.10,Linux aarch64,60,61025ae37ef11b136ea224fe,,,,,,,,,3937,-72.31677246,22.26342773,1,0,0,response7disk,,1,-1.126403809,-9.220184326,1,0,0,rectangle,-1.126403809,-9.220184326,1,0,0,-1.126403809,-9.220184326,1,0,0,0,19,19,110,1,,,,,,,,
,,,,,,,,,,,,,FF,,,,,,,,1.0157,,,,,,,,,,,,,,,,,,,,,,60fee7e8473d54816d17c7b7,61036de3cf576104d41a107d,2021-07-29_22h14.41.846,Simcolourproject_2stim_asymm_v5,2020.2.10,Linux aarch64,60,61025ae37ef11b136ea224fe,,,,,,,,,2555,-52.49163818,-113.1161499,1,0,0,response5disk,,3,19.14935303,-6.971343994,1,0,0,rectangle,19.14935303,-6.971343994,1,0,0,19.14935303,-6.971343994,1,0,0,0,20,20,6,1,,,,,,,,
,,,,,,,,,,,,,FF,,,,,,,,1.3007,,,,,,,,,,,,,,,,,,,,,,60fee7e8473d54816d17c7b7,61036de3cf576104d41a107d,2021-07-29_22h14.41.846,Simcolourproject_2stim_asymm_v5,2020.2.10,Linux aarch64,60,61025ae37ef11b136ea224fe,,,,,,,,,2763,101.6040039,-53.29721069,1,0,0,response3disk,,5,-26.35845947,-15.06713867,1,0,0,rectangle,-26.35845947,-15.06713867,1,0,0,-26.35845947,-15.06713867,1,0,0,0,21,21,51,1,,,,,,,,
,,,,,,,,,,,,,FF,,,,,,,,2.8681,,,,,,,,,,,,,,,,,,,,,,60fee7e8473d54816d17c7b7,61036de3cf576104d41a107d,2021-07-29_22h14.41.846,Simcolourproject_2stim_asymm_v5,2020.2.10,Linux aarch64,60,61025ae37ef11b136ea224fe,,,,,,,,,4262,77.72363281,-58.69442749,1,0,0,response3disk,,5,29.06195068,2.923492432,1,0,0,rectangle,29.06195068,2.923492432,1,0,0,29.06195068,2.923492432,1,0,0,0,22,22,91,1,,,,,,,,
,,,,,,,,,,,,,FF,,,,,,,,4.6338,,,,,,,,,,,,,,,,,,,,,,60fee7e8473d54816d17c7b7,61036de3cf576104d41a107d,2021-07-29_22h14.41.846,Simcolourproject_2stim_asymm_v5,2020.2.10,Linux aarch64,60,61025ae37ef11b136ea224fe,,,,,,,,,1260,59.25018311,-101.4221802,1,0,0,response3disk,,4,12.84130859,-13.26806641,1,0,0,rectangle,12.84130859,-13.26806641,1,0,0,12.84130859,-13.26806641,1,0,0,0,23,23,114,1,,,,,,,,
,,,,,,,,,,,,,FF,,,,,,,,1.3162,,,,,,,,,,,,,,,,,,,,,,60fee7e8473d54816d17c7b7,61036de3cf576104d41a107d,2021-07-29_22h14.41.846,Simcolourproject_2stim_asymm_v5,2020.2.10,Linux aarch64,60,61025ae37ef11b136ea224fe,,,,,,,,,4132,93.9442749,23.16293335,1,0,0,response1disk,,6,11.03900146,-1.574188232,1,0,0,rectangle,11.03900146,-1.574188232,1,0,0,11.03900146,-1.574188232,1,0,0,0,24,24,31,1,,,,,,,,
,,,,,,,,,,,,,FF,,,,,,,,1.2624,,,,,,,,,,,,,,,,,,,,,,60fee7e8473d54816d17c7b7,61036de3cf576104d41a107d,2021-07-29_22h14.41.846,Simcolourproject_2stim_asymm_v5,2020.2.10,Linux aarch64,60,61025ae37ef11b136ea224fe,,,,,,,,,1223,-99.80169678,-44.75167847,1,0,0,response5disk,,2,-2.027587891,-6.971343994,1,0,0,rectangle,-2.027587891,-6.971343994,1,0,0,-2.027587891,-6.971343994,1,0,0,0,25,25,2,1,,,,,,,,
,,,,,,,,,,,,,FF,,,,,,,,1.3485,,,,,,,,,,,,,,,,,,,,,,60fee7e8473d54816d17c7b7,61036de3cf576104d41a107d,2021-07-29_22h14.41.846,Simcolourproject_2stim_asymm_v5,2020.2.10,Linux aarch64,60,61025ae37ef11b136ea224fe,,,,,,,,,2199,95.74658203,50.59866333,1,0,0,response1disk,,6,19.14935303,-12.81832886,1,0,0,rectangle,19.14935303,-12.81832886,1,0,0,19.14935303,-12.81832886,1,0,0,0,26,26,9,1,,,,,,,,
,,,,,,,,,,,,,FF,,,,,,,,0.9333,,,,,,,,,,,,,,,,,,,,,,60fee7e8473d54816d17c7b7,61036de3cf576104d41a107d,2021-07-29_22h14.41.846,Simcolourproject_2stim_asymm_v5,2020.2.10,Linux aarch64,60,61025ae37ef11b136ea224fe,,,,,,,,,2225,35.36993408,71.73764038,1,0,0,response1disk,,7,18.24816895,-1.124420166,1,0,0,rectangle,18.24816895,-1.124420166,1,0,0,18.24816895,-1.124420166,1,0,0,0,27,27,141,1,,,,,,,,
,,,,,,,,,,,,,FF,,,,,,,,1.4332,,,,,,,,,,,,,,,,,,,,,,60fee7e8473d54816d17c7b7,61036de3cf576104d41a107d,2021-07-29_22h14.41.846,Simcolourproject_2stim_asymm_v5,2020.2.10,Linux aarch64,60,61025ae37ef11b136ea224fe,,,,,,,,,296,44.83197021,-114.9151611,1,0,0,response3disk,,4,17.34710693,-6.071838379,1,0,0,rectangle,17.34710693,-6.071838379,1,0,0,17.34710693,-6.071838379,1,0,0,0,28,28,93,1,,,,,,,,
,,,,,,,,,,,,,FF,,,,,,,,1.3012,,,,,,,,,,,,,,,,,,,,,,60fee7e8473d54816d17c7b7,61036de3cf576104d41a107d,2021-07-29_22h14.41.846,Simcolourproject_2stim_asymm_v5,2020.2.10,Linux aarch64,60,61025ae37ef11b136ea224fe,,,,,,,,,3064,-56.09625244,-99.62310791,1,0,0,response5disk,,3,16.44592285,-7.421112061,1,0,0,rectangle,16.44592285,-7.421112061,1,0,0,16.44592285,-7.421112061,1,0,0,0,29,29,63,1,,,,,,,,
,,,,,,,,,,,,,FF,,,,,,,,1.2389,,,,,,,,,,,,,,,,,,,,,,60fee7e8473d54816d17c7b7,61036de3cf576104d41a107d,2021-07-29_22h14.41.846,Simcolourproject_2stim_asymm_v5,2020.2.10,Linux aarch64,60,61025ae37ef11b136ea224fe,,,,,,,,,2016,100.2522583,-56.44561768,1,0,0,response3disk,,5,13.29193115,-15.06713867,1,0,0,rectangle,13.29193115,-15.06713867,1,0,0,13.29193115,-15.06713867,1,0,0,0,30,30,148,1,,,,,,,,
,,,,,,,,,,,,,FF,,,,,,,,2.2662,,,,,,,,,,,,,,,,,,,,,,60fee7e8473d54816d17c7b7,61036de3cf576104d41a107d,2021-07-29_22h14.41.846,Simcolourproject_2stim_asymm_v5,2020.2.10,Linux aarch64,60,61025ae37ef11b136ea224fe,,,,,,,,,3832,43.93078613,-100.522644,1,0,0,response3disk,,4,-3.379272461,-15.06713867,1,0,0,rectangle,-3.379272461,-15.06713867,1,0,0,-3.379272461,-15.06713867,1,0,0,0,31,31,71,1,,,,,,,,
,,,,,,,,,,,,,FF,,,,,,,,1.4027,,,,,,,,,,,,,,,,,,,,,,60fee7e8473d54816d17c7b7,61036de3cf576104d41a107d,2021-07-29_22h14.41.846,Simcolourproject_2stim_asymm_v5,2020.2.10,Linux aarch64,60,61025ae37ef11b136ea224fe,,,,,,,,,3744,-54.7444458,31.70849609,1,0,0,response7disk,,1,5.18157959,3.37322998,1,0,0,rectangle,5.18157959,3.37322998,1,0,0,5.18157959,3.37322998,1,0,0,0,32,32,80,1,,,,,,,,
,,,,,,,,,,,,,FF,,,,,,,,0.9669,,,,,,,,,,,,,,,,,,,,,,60fee7e8473d54816d17c7b7,61036de3cf576104d41a107d,2021-07-29_22h14.41.846,Simcolourproject_2stim_asymm_v5,2020.2.10,Linux aarch64,60,61025ae37ef11b136ea224fe,,,,,,,,,1529,-65.5581665,24.96200562,1,0,0,response7disk,,1,2.928710938,-3.822998047,1,0,0,rectangle,2.928710938,-3.822998047,1,0,0,2.928710938,-3.822998047,1,0,0,0,33,33,154,1,,,,,,,,
,,,,,,,,,,,,,FF,,,,,,,,1.5993,,,,,,,,,,,,,,,,,,,,,,60fee7e8473d54816d17c7b7,61036de3cf576104d41a107d,2021-07-29_22h14.41.846,Simcolourproject_2stim_asymm_v5,2020.2.10,Linux aarch64,60,61025ae37ef11b136ea224fe,,,,,,,,,1261,109.7142944,-53.74697876,1,0,0,response3disk,,5,13.74243164,-6.521575928,1,0,0,rectangle,13.74243164,-6.521575928,1,0,0,13.74243164,-6.521575928,1,0,0,0,34,34,120,1,,,,,,,,
,,,,,,,,,,,,,FF,,,,,,,,0.8669,,,,,,,,,,,,,,,,,,,,,,60fee7e8473d54816d17c7b7,61036de3cf576104d41a107d,2021-07-29_22h14.41.846,Simcolourproject_2stim_asymm_v5,2020.2.10,Linux aarch64,60,61025ae37ef11b136ea224fe,,,,,,,,,2228,-59.70074463,34.40710449,1,0,0,response7disk,,1,17.34710693,-2.473693848,1,0,0,rectangle,-71.41558838,30.35916138,1,0,0,15.54473877,4.272796631,1,0,0,0,35,35,82,1,,response7disk_3,TRUE,1,1,"[241,8,123,100,78,97,163,254,155,189,263,247,135,299,167,249,36,191,288,224]",5.4003,rectangle
,,,,,,,,,,,,,FF,,,,,,,,1.0156,,,,,,,,,,,,,,,,,,,,,,60fee7e8473d54816d17c7b7,61036de3cf576104d41a107d,2021-07-29_22h14.41.846,Simcolourproject_2stim_asymm_v5,2020.2.10,Linux aarch64,60,61025ae37ef11b136ea224fe,,,,,,,,,4255,-67.81109619,24.96200562,1,0,0,response7disk,,1,21.85272217,-10.56948853,1,0,0,rectangle,21.85272217,-10.56948853,1,0,0,21.85272217,-10.56948853,1,0,0,0,36,36,5,1,,,,,,,,
,,,,,,,,,,,,,FF,,,,,,,,1.9859,,,,,,,,,,,,,,,,,,,,,,60fee7e8473d54816d17c7b7,61036de3cf576104d41a107d,2021-07-29_22h14.41.846,Simcolourproject_2stim_asymm_v5,2020.2.10,Linux aarch64,60,61025ae37ef11b136ea224fe,,,,,,,,,850,106.1096802,-53.74697876,1,0,0,response3disk,,5,0.67590332,-16.41647339,1,0,0,rectangle,0.67590332,-16.41647339,1,0,0,0.67590332,-16.41647339,1,0,0,0,37,37,107,1,,,,,,,,
,,,,,,,,,,,,,FF,,,,,,,,1.417,,,,,,,,,,,,,,,,,,,,,,60fee7e8473d54816d17c7b7,61036de3cf576104d41a107d,2021-07-29_22h14.41.846,Simcolourproject_2stim_asymm_v5,2020.2.10,Linux aarch64,60,61025ae37ef11b136ea224fe,,,,,,,,,4078,-47.98590088,-95.57519531,1,0,0,response5disk,,3,2.478149414,-6.971343994,1,0,0,rectangle,2.478149414,-6.971343994,1,0,0,2.478149414,-6.971343994,1,0,0,0,38,38,66,1,,,,,,,,
,,,,,,,,,,,,,FF,,,,,,,,0.7668,,,,,,,,,,,,,,,,,,,,,,60fee7e8473d54816d17c7b7,61036de3cf576104d41a107d,2021-07-29_22h14.41.846,Simcolourproject_2stim_asymm_v5,2020.2.10,Linux aarch64,60,61025ae37ef11b136ea224fe,,,,,,,,,630,-31.76531982,62.29257202,1,0,0,response7disk,,0,15.54473877,-6.071838379,1,0,0,rectangle,15.54473877,-6.071838379,1,0,0,15.54473877,-6.071838379,1,0,0,0,39,39,99,1,,,,,,,,
,,,,,,,,,,,,,FF,,,,,,,,3.0179,,,,,,,,,,,,,,,,,,,,,,60fee7e8473d54816d17c7b7,61036de3cf576104d41a107d,2021-07-29_22h14.41.846,Simcolourproject_2stim_asymm_v5,2020.2.10,Linux aarch64,60,61025ae37ef11b136ea224fe,,,,,,,,,608,66.00878906,-108.1686401,1,0,0,response3disk,,4,11.03900146,-14.16763306,1,0,0,rectangle,11.03900146,-14.16763306,1,0,0,11.03900146,-14.16763306,1,0,0,0,40,40,143,1,,,,,,,,
,,,,,,,,,,,,,FF,,,,,,,,1.4998,,,,,,,,,,,,,,,,,,,,,,60fee7e8473d54816d17c7b7,61036de3cf576104d41a107d,2021-07-29_22h14.41.846,Simcolourproject_2stim_asymm_v5,2020.2.10,Linux aarch64,60,61025ae37ef11b136ea224fe,,,,,,,,,879,94.39483643,-47.00048828,1,0,0,response3disk,,5,6.533325195,-9.66998291,1,0,0,rectangle,6.533325195,-9.66998291,1,0,0,6.533325195,-9.66998291,1,0,0,0,41,41,19,1,,,,,,,,
,,,,,,,,,,,,,FF,,,,,,,,1.4003,,,,,,,,,,,,,,,,,,,,,,60fee7e8473d54816d17c7b7,61036de3cf576104d41a107d,2021-07-29_22h14.41.846,Simcolourproject_2stim_asymm_v5,2020.2.10,Linux aarch64,60,61025ae37ef11b136ea224fe,,,,,,,,,1391,-52.04107666,-95.12542725,1,0,0,response5disk,,3,4.280456543,-10.56948853,1,0,0,rectangle,4.280456543,-10.56948853,1,0,0,4.280456543,-10.56948853,1,0,0,0,42,42,95,1,,,,,,,,
,,,,,,,,,,,,,FF,,,,,,,,0.9317,,,,,,,,,,,,,,,,,,,,,,60fee7e8473d54816d17c7b7,61036de3cf576104d41a107d,2021-07-29_22h14.41.846,Simcolourproject_2stim_asymm_v5,2020.2.10,Linux aarch64,60,61025ae37ef11b136ea224fe,,,,,,,,,461,-42.128479,-90.17803955,1,0,0,response5disk,,3,11.03900146,-6.971343994,1,0,0,rectangle,11.03900146,-6.971343994,1,0,0,11.03900146,-6.971343994,1,0,0,0,43,43,64,1,,,,,,,,
,,,,,,,,,,,,,FF,,,,,,,,0.9333,,,,,,,,,,,,,,,,,,,,,,60fee7e8473d54816d17c7b7,61036de3cf576104d41a107d,2021-07-29_22h14.41.846,Simcolourproject_2stim_asymm_v5,2020.2.10,Linux aarch64,60,61025ae37ef11b136ea224fe,,,,,,,,,3010,-39.42504883,-92.87664795,1,0,0,response5disk,,3,15.54473877,-6.071838379,1,0,0,rectangle,15.54473877,-6.071838379,1,0,0,15.54473877,-6.071838379,1,0,0,0,44,44,156,1,,,,,,,,
,,,,,,,,,,,,,FF,,,,,,,,1.0652,,,,,,,,,,,,,,,,,,,,,,60fee7e8473d54816d17c7b7,61036de3cf576104d41a107d,2021-07-29_22h14.41.846,Simcolourproject_2stim_asymm_v5,2020.2.10,Linux aarch64,60,61025ae37ef11b136ea224fe,,,,,,,,,183,98.45001221,27.66061401,1,0,0,response1disk,,6,27.71014404,-6.521575928,1,0,0,rectangle,27.71014404,-6.521575928,1,0,0,27.71014404,-6.521575928,1,0,0,0,45,45,132,1,,,,,,,,
,,,,,,,,,,,,,FF,,,,,,,,2.1368,,,,,,,,,,,,,,,,,,,,,,60fee7e8473d54816d17c7b7,61036de3cf576104d41a107d,2021-07-29_22h14.41.846,Simcolourproject_2stim_asymm_v5,2020.2.10,Linux aarch64,60,61025ae37ef11b136ea224fe,,,,,,,,,1009,105.6591797,-60.94326782,1,0,0,response3disk,,5,20.5010376,-1.124420166,1,0,0,rectangle,20.5010376,-1.124420166,1,0,0,20.5010376,-1.124420166,1,0,0,0,46,46,86,1,,,,,,,,
,,,,,,,,,,,,,FF,,,,,,,,2.7512,,,,,,,,,,,,,,,,,,,,,,60fee7e8473d54816d17c7b7,61036de3cf576104d41a107d,2021-07-29_22h14.41.846,Simcolourproject_2stim_asymm_v5,2020.2.10,Linux aarch64,60,61025ae37ef11b136ea224fe,,,,,,,,,2447,104.7579956,-44.3019104,1,0,0,response3disk,,5,17.34710693,-7.421112061,1,0,0,rectangle,17.34710693,-7.421112061,1,0,0,17.34710693,-7.421112061,1,0,0,0,47,47,103,1,,,,,,,,
,,,,,,,,,,,,,FF,,,,,,,,1.0979,,,,,,,,,,,,,,,,,,,,,,60fee7e8473d54816d17c7b7,61036de3cf576104d41a107d,2021-07-29_22h14.41.846,Simcolourproject_2stim_asymm_v5,2020.2.10,Linux aarch64,60,61025ae37ef11b136ea224fe,,,,,,,,,4098,-40.32623291,-108.1686401,1,0,0,response5disk,,3,20.5010376,-2.473693848,1,0,0,rectangle,20.5010376,-2.473693848,1,0,0,20.5010376,-2.473693848,1,0,0,0,48,48,62,1,,,,,,,,
,,,,,,,,,,,,,FF,,,,,,,,0.8284,,,,,,,,,,,,,,,,,,,,,,60fee7e8473d54816d17c7b7,61036de3cf576104d41a107d,2021-07-29_22h14.41.846,Simcolourproject_2stim_asymm_v5,2020.2.10,Linux aarch64,60,61025ae37ef11b136ea224fe,,,,,,,,,1305,-83.58111572,-56.89535522,1,0,0,response5disk,,2,7.885009766,4.272796631,1,0,0,rectangle,7.885009766,4.272796631,1,0,0,7.885009766,4.272796631,1,0,0,0,49,49,123,1,,,,,,,,
,,,,,,,,,,,,,FF,,,,,,,,0.7828,,,,,,,,,,,,,,,,,,,,,,60fee7e8473d54816d17c7b7,61036de3cf576104d41a107d,2021-07-29_22h14.41.846,Simcolourproject_2stim_asymm_v5,2020.2.10,Linux aarch64,60,61025ae37ef11b136ea224fe,,,,,,,,,3237,-87.6362915,-53.74697876,1,0,0,response5disk,,2,7.434509277,-8.320648193,1,0,0,rectangle,7.434509277,-8.320648193,1,0,0,7.434509277,-8.320648193,1,0,0,0,50,50,27,1,,,,,,,,
,,,,,,,,,,,,,FF,,,,,,,,1.2492,,,,,,,,,,,,,,,,,,,,,,60fee7e8473d54816d17c7b7,61036de3cf576104d41a107d,2021-07-29_22h14.41.846,Simcolourproject_2stim_asymm_v5,2020.2.10,Linux aarch64,60,61025ae37ef11b136ea224fe,,,,,,,,,1738,100.2522583,-51.94796753,1,0,0,response3disk,,5,15.09417725,-0.674621582,1,0,0,rectangle,15.09417725,-0.674621582,1,0,0,15.09417725,-0.674621582,1,0,0,0,51,51,41,1,,,,,,,,
,,,,,,,,,,,,,FF,,,,,,,,1.2061,,,,,,,,,,,,,,,,,,,,,,60fee7e8473d54816d17c7b7,61036de3cf576104d41a107d,2021-07-29_22h14.41.846,Simcolourproject_2stim_asymm_v5,2020.2.10,Linux aarch64,60,61025ae37ef11b136ea224fe,,,,,,,,,4003,43.48016357,-111.7667847,1,0,0,response3disk,,4,15.09417725,-6.521575928,1,0,0,rectangle,15.09417725,-6.521575928,1,0,0,15.09417725,-6.521575928,1,0,0,0,52,52,130,1,,,,,,,,
,,,,,,,,,,,,,FF,,,,,,,,1.817,,,,,,,,,,,,,,,,,,,,,,60fee7e8473d54816d17c7b7,61036de3cf576104d41a107d,2021-07-29_22h14.41.846,Simcolourproject_2stim_asymm_v5,2020.2.10,Linux aarch64,60,61025ae37ef11b136ea224fe,,,,,,,,,3046,-90.33966064,-59.14419556,1,0,0,response5disk,,2,5.632141113,-7.870910645,1,0,0,rectangle,5.632141113,-7.870910645,1,0,0,5.632141113,-7.870910645,1,0,0,0,53,53,75,1,,,,,,,,
,,,,,,,,,,,,,FF,,,,,,,,1.2504,,,,,,,,,,,,,,,,,,,,,,60fee7e8473d54816d17c7b7,61036de3cf576104d41a107d,2021-07-29_22h14.41.846,Simcolourproject_2stim_asymm_v5,2020.2.10,Linux aarch64,60,61025ae37ef11b136ea224fe,,,,,,,,,3172,99.80169678,33.05776978,1,0,0,response1disk,,6,19.14935303,-2.473693848,1,0,0,rectangle,19.14935303,-2.473693848,1,0,0,19.14935303,-2.473693848,1,0,0,0,54,54,84,1,,,,,,,,
,,,,,,,,,,,,,FF,,,,,,,,1.9327,,,,,,,,,,,,,,,,,,,,,,60fee7e8473d54816d17c7b7,61036de3cf576104d41a107d,2021-07-29_22h14.41.846,Simcolourproject_2stim_asymm_v5,2020.2.10,Linux aarch64,60,61025ae37ef11b136ea224fe,,,,,,,,,1669,30.86419678,72.63717651,1,0,0,response1disk,,7,10.58843994,-1.574188232,1,0,0,rectangle,10.58843994,-1.574188232,1,0,0,10.58843994,-1.574188232,1,0,0,0,55,55,97,1,,,,,,,,
,,,,,,,,,,,,,FF,,,,,,,,1.8504,,,,,,,,,,,,,,,,,,,,,,60fee7e8473d54816d17c7b7,61036de3cf576104d41a107d,2021-07-29_22h14.41.846,Simcolourproject_2stim_asymm_v5,2020.2.10,Linux aarch64,60,61025ae37ef11b136ea224fe,,,,,,,,,1739,87.63623047,27.66061401,1,0,0,response1disk,,6,17.34710693,-3.822998047,1,0,0,rectangle,17.34710693,-3.822998047,1,0,0,17.34710693,-3.822998047,1,0,0,0,56,56,89,1,,,,,,,,
,,,,,,,,,,,,,FF,,,,,,,,0.8162,,,,,,,,,,,,,,,,,,,,,,60fee7e8473d54816d17c7b7,61036de3cf576104d41a107d,2021-07-29_22h14.41.846,Simcolourproject_2stim_asymm_v5,2020.2.10,Linux aarch64,60,61025ae37ef11b136ea224fe,,,,,,,,,716,-36.27105713,55.54608154,1,0,0,response7disk,,0,9.687316895,2.023956299,1,0,0,rectangle,9.687316895,2.023956299,1,0,0,9.687316895,2.023956299,1,0,0,0,57,57,119,1,,,,,,,,
,,,,,,,,,,,,,FF,,,,,,,,0.7186,,,,,,,,,,,,,,,,,,,,,,60fee7e8473d54816d17c7b7,61036de3cf576104d41a107d,2021-07-29_22h14.41.846,Simcolourproject_2stim_asymm_v5,2020.2.10,Linux aarch64,60,61025ae37ef11b136ea224fe,,,,,,,,,3743,-80.42706299,40.25405884,1,0,0,response7disk,,1,1.577087402,-4.722503662,1,0,0,rectangle,1.577087402,-4.722503662,1,0,0,1.577087402,-4.722503662,1,0,0,0,58,58,133,1,,,,,,,,
,,,,,,,,,,,,,FF,,,,,,,,0.9825,,,,,,,,,,,,,,,,,,,,,,60fee7e8473d54816d17c7b7,61036de3cf576104d41a107d,2021-07-29_22h14.41.846,Simcolourproject_2stim_asymm_v5,2020.2.10,Linux aarch64,60,61025ae37ef11b136ea224fe,,,,,,,,,3017,103.8568726,-56.44561768,1,0,0,response3disk,,5,21.40216064,-0.674621582,1,0,0,rectangle,21.40216064,-0.674621582,1,0,0,21.40216064,-0.674621582,1,0,0,0,59,59,40,1,,,,,,,,
,,,,,,,,,,,,,FF,,,,,,,,1.1318,,,,,,,,,,,,,,,,,,,,,,60fee7e8473d54816d17c7b7,61036de3cf576104d41a107d,2021-07-29_22h14.41.846,Simcolourproject_2stim_asymm_v5,2020.2.10,Linux aarch64,60,61025ae37ef11b136ea224fe,,,,,,,,,2480,-37.17218018,78.93386841,1,0,0,response7disk,,0,10.13787842,-11.01925659,1,0,0,rectangle,10.13787842,-11.01925659,1,0,0,10.13787842,-11.01925659,1,0,0,0,60,60,34,1,,,,,,,,
,,,,,,,,,,,,,FF,,,,,,,,0.7989,,,,,,,,,,,,,,,,,,,,,,60fee7e8473d54816d17c7b7,61036de3cf576104d41a107d,2021-07-29_22h14.41.846,Simcolourproject_2stim_asymm_v5,2020.2.10,Linux aarch64,60,61025ae37ef11b136ea224fe,,,,,,,,,2212,107.0108643,-46.55075073,1,0,0,response3disk,,5,20.05047607,-13.26806641,1,0,0,rectangle,20.05047607,-13.26806641,1,0,0,20.05047607,-13.26806641,1,0,0,0,61,61,11,1,,,,,,,,
,,,,,,,,,,,,,FF,,,,,,,,1.3496,,,,,,,,,,,,,,,,,,,,,,60fee7e8473d54816d17c7b7,61036de3cf576104d41a107d,2021-07-29_22h14.41.846,Simcolourproject_2stim_asymm_v5,2020.2.10,Linux aarch64,60,61025ae37ef11b136ea224fe,,,,,,,,,4250,99.35119629,36.20614624,1,0,0,response1disk,,6,20.95159912,-2.473693848,1,0,0,rectangle,20.95159912,-2.473693848,1,0,0,20.95159912,-2.473693848,1,0,0,0,62,62,69,1,,,,,,,,
,,,,,,,,,,,,,FF,,,,,,,,1.4162,,,,,,,,,,,,,,,,,,,,,,60fee7e8473d54816d17c7b7,61036de3cf576104d41a107d,2021-07-29_22h14.41.846,Simcolourproject_2stim_asymm_v5,2020.2.10,Linux aarch64,60,61025ae37ef11b136ea224fe,,,,,,,,,2530,88.08685303,-53.29721069,1,0,0,response3disk,,5,24.55615234,-5.622070313,1,0,0,rectangle,24.55615234,-5.622070313,1,0,0,24.55615234,-5.622070313,1,0,0,0,63,63,100,1,,,,,,,,
,,,,,,,,,,,,,FF,,,,,,,,1.2488,,,,,,,,,,,,,,,,,,,,,,60fee7e8473d54816d17c7b7,61036de3cf576104d41a107d,2021-07-29_22h14.41.846,Simcolourproject_2stim_asymm_v5,2020.2.10,Linux aarch64,60,61025ae37ef11b136ea224fe,,,,,,,,,2931,30.86419678,82.08224487,1,0,0,response1disk,,7,9.236755371,-5.172271729,1,0,0,rectangle,9.236755371,-5.172271729,1,0,0,9.236755371,-5.172271729,1,0,0,0,64,64,73,1,,,,,,,,
,,,,,,,,,,,,,FF,,,,,,,,0.9157,,,,,,,,,,,,,,,,,,,,,,60fee7e8473d54816d17c7b7,61036de3cf576104d41a107d,2021-07-29_22h14.41.846,Simcolourproject_2stim_asymm_v5,2020.2.10,Linux aarch64,60,61025ae37ef11b136ea224fe,,,,,,,,,2568,94.84539795,-50.59863281,1,0,0,response3disk,,5,26.35845947,0.224884033,1,0,0,rectangle,26.35845947,0.224884033,1,0,0,26.35845947,0.224884033,1,0,0,0,65,65,33,1,,,,,,,,
,,,,,,,,,,,,,FF,,,,,,,,1.6992,,,,,,,,,,,,,,,,,,,,,,60fee7e8473d54816d17c7b7,61036de3cf576104d41a107d,2021-07-29_22h14.41.846,Simcolourproject_2stim_asymm_v5,2020.2.10,Linux aarch64,60,61025ae37ef11b136ea224fe,,,,,,,,,613,-80.42706299,-41.15356445,1,0,0,response5disk,,2,6.983886719,-4.722503662,1,0,0,rectangle,6.983886719,-4.722503662,1,0,0,6.983886719,-4.722503662,1,0,0,0,66,66,72,1,,,,,,,,
,,,,,,,,,,,,,FF,,,,,,,,1.933,,,,,,,,,,,,,,,,,,,,,,60fee7e8473d54816d17c7b7,61036de3cf576104d41a107d,2021-07-29_22h14.41.846,Simcolourproject_2stim_asymm_v5,2020.2.10,Linux aarch64,60,61025ae37ef11b136ea224fe,,,,,,,,,149,69.16278076,-90.62786865,1,0,0,response3disk,,4,6.983886719,-6.971343994,1,0,0,rectangle,6.983886719,-6.971343994,1,0,0,6.983886719,-6.971343994,1,0,0,0,67,67,157,1,,,,,,,,
,,,,,,,,,,,,,FF,,,,,,,,0.8349,,,,,,,,,,,,,,,,,,,,,,60fee7e8473d54816d17c7b7,61036de3cf576104d41a107d,2021-07-29_22h14.41.846,Simcolourproject_2stim_asymm_v5,2020.2.10,Linux aarch64,60,61025ae37ef11b136ea224fe,,,,,,,,,363,96.64764404,-50.14889526,1,0,0,response3disk,,5,18.69873047,-7.870910645,1,0,0,rectangle,18.69873047,-7.870910645,1,0,0,18.69873047,-7.870910645,1,0,0,0,68,68,14,1,,,,,,,,
,,,,,,,,,,,,,FF,,,,,,,,2.0001,,,,,,,,,,,,,,,,,,,,,,60fee7e8473d54816d17c7b7,61036de3cf576104d41a107d,2021-07-29_22h14.41.846,Simcolourproject_2stim_asymm_v5,2020.2.10,Linux aarch64,60,61025ae37ef11b136ea224fe,,,,,,,,,2681,-36.27105713,-79.38363647,1,0,0,response5disk,,3,6.533325195,-9.220184326,1,0,0,rectangle,6.533325195,-9.220184326,1,0,0,6.533325195,-9.220184326,1,0,0,0,69,69,146,1,,,,,,,,
,,,,,,,,,,,,,FF,,,,,,,,1.5157,,,,,,,,,,,,,,,,,,,,,,60fee7e8473d54816d17c7b7,61036de3cf576104d41a107d,2021-07-29_22h14.41.846,Simcolourproject_2stim_asymm_v5,2020.2.10,Linux aarch64,60,61025ae37ef11b136ea224fe,,,,,,,,,3091,-82.22937012,-47.45025635,1,0,0,response5disk,,2,5.18157959,-5.172271729,1,0,0,rectangle,5.18157959,-5.172271729,1,0,0,5.18157959,-5.172271729,1,0,0,0,70,70,152,1,,,,,,,,
,,,,,,,,,,,,,FF,,,,,,,,0.9997,,,,,,,,,,,,,,,,,,,,,,60fee7e8473d54816d17c7b7,61036de3cf576104d41a107d,2021-07-29_22h14.41.846,Simcolourproject_2stim_asymm_v5,2020.2.10,Linux aarch64,60,61025ae37ef11b136ea224fe,,,,,,,,,1094,106.1096802,34.40710449,1,0,0,response1disk,,6,14.64361572,-5.172271729,1,0,0,rectangle,14.64361572,-5.172271729,1,0,0,14.64361572,-5.172271729,1,0,0,0,71,71,124,1,,,,,,,,
,,,,,,,,,,,,,FF,,,,,,,,1.0663,,,,,,,,,,,,,,,,,,,,,,60fee7e8473d54816d17c7b7,61036de3cf576104d41a107d,2021-07-29_22h14.41.846,Simcolourproject_2stim_asymm_v5,2020.2.10,Linux aarch64,60,61025ae37ef11b136ea224fe,,,,,,,,,4227,116.9234619,35.75637817,1,0,0,response1disk,,6,15.09417725,-4.272766113,1,0,0,rectangle,15.09417725,-4.272766113,1,0,0,15.09417725,-4.272766113,1,0,0,0,72,72,92,1,,,,,,,,
,,,,,,,,,,,,,FF,,,,,,,,1.0152,,,,,,,,,,,,,,,,,,,,,,60fee7e8473d54816d17c7b7,61036de3cf576104d41a107d,2021-07-29_22h14.41.846,Simcolourproject_2stim_asymm_v5,2020.2.10,Linux aarch64,60,61025ae37ef11b136ea224fe,,,,,,,,,3118,107.0108643,32.60803223,1,0,0,response1disk,,6,32.21594238,-6.971343994,1,0,0,rectangle,32.21594238,-6.971343994,1,0,0,32.21594238,-6.971343994,1,0,0,0,73,73,65,1,,,,,,,,
,,,,,,,,,,,,,FF,,,,,,,,1.1998,,,,,,,,,,,,,,,,,,,,,,60fee7e8473d54816d17c7b7,61036de3cf576104d41a107d,2021-07-29_22h14.41.846,Simcolourproject_2stim_asymm_v5,2020.2.10,Linux aarch64,60,61025ae37ef11b136ea224fe,,,,,,,,,1793,101.1534424,-41.60333252,1,0,0,response3disk,,5,15.09417725,-12.81832886,1,0,0,rectangle,15.09417725,-12.81832886,1,0,0,15.09417725,-12.81832886,1,0,0,0,74,74,0,1,,,,,,,,
,,,,,,,,,,,,,FF,,,,,,,,1.0833,,,,,,,,,,,,,,,,,,,,,,60fee7e8473d54816d17c7b7,61036de3cf576104d41a107d,2021-07-29_22h14.41.846,Simcolourproject_2stim_asymm_v5,2020.2.10,Linux aarch64,60,61025ae37ef11b136ea224fe,,,,,,,,,3376,-79.97650146,-42.05307007,1,0,0,response5disk,,2,3.379333496,-8.320648193,1,0,0,rectangle,3.379333496,-8.320648193,1,0,0,3.379333496,-8.320648193,1,0,0,0,75,75,76,1,,,,,,,,
,,,,,,,,,,,,,FF,,,,,,,,1.0009,,,,,,,,,,,,,,,,,,,,,,60fee7e8473d54816d17c7b7,61036de3cf576104d41a107d,2021-07-29_22h14.41.846,Simcolourproject_2stim_asymm_v5,2020.2.10,Linux aarch64,60,61025ae37ef11b136ea224fe,,,,,,,,,3639,113.3188477,42.95263672,1,0,0,response1disk,,6,0.225280762,-16.41647339,1,0,0,rectangle,0.225280762,-16.41647339,1,0,0,0.225280762,-16.41647339,1,0,0,0,76,76,128,1,,,,,,,,
,,,,,,,,,,,,,FF,,,,,,,,1.1663,,,,,,,,,,,,,,,,,,,,,,60fee7e8473d54816d17c7b7,61036de3cf576104d41a107d,2021-07-29_22h14.41.846,Simcolourproject_2stim_asymm_v5,2020.2.10,Linux aarch64,60,61025ae37ef11b136ea224fe,,,,,,,,,3999,-36.72161865,-87.47943115,1,0,0,response5disk,,3,14.1930542,-6.971343994,1,0,0,rectangle,118.2752075,-33.95727539,1,0,0,4.731018066,-10.56948853,1,0,0,0,77,77,57,1,,response3disk_3,TRUE,5,5,"[241,8,123,100,78,97,163,254,155,189,263,247,135,299,167,249,36,191,288,224]",1.7169,rectangle
,,,,,,,,,,,,,FF,,,,,,,,1.4158,,,,,,,,,,,,,,,,,,,,,,60fee7e8473d54816d17c7b7,61036de3cf576104d41a107d,2021-07-29_22h14.41.846,Simcolourproject_2stim_asymm_v5,2020.2.10,Linux aarch64,60,61025ae37ef11b136ea224fe,,,,,,,,,332,99.80169678,-55.99581909,1,0,0,response3disk,,5,30.41363525,-6.071838379,1,0,0,rectangle,30.41363525,-6.071838379,1,0,0,30.41363525,-6.071838379,1,0,0,0,78,78,54,1,,,,,,,,
,,,,,,,,,,,,,FF,,,,,,,,1.3349,,,,,,,,,,,,,,,,,,,,,,60fee7e8473d54816d17c7b7,61036de3cf576104d41a107d,2021-07-29_22h14.41.846,Simcolourproject_2stim_asymm_v5,2020.2.10,Linux aarch64,60,61025ae37ef11b136ea224fe,,,,,,,,,3934,-27.25958252,-89.72821045,1,0,0,response5disk,,3,23.20452881,0.6746521,1,0,0,rectangle,23.20452881,0.6746521,1,0,0,23.20452881,0.6746521,1,0,0,0,79,79,102,1,,,,,,,,
,,,,,,,,,,,,,FF,,,,,,,,1.2164,,,,,,,,,,,,,,,,,,,,,,60fee7e8473d54816d17c7b7,61036de3cf576104d41a107d,2021-07-29_22h14.41.846,Simcolourproject_2stim_asymm_v5,2020.2.10,Linux aarch64,60,61025ae37ef11b136ea224fe,,,,,,,,,3502,-72.76739502,-41.60333252,1,0,0,response5disk,,2,19.14935303,-8.320648193,1,0,0,rectangle,19.14935303,-8.320648193,1,0,0,19.14935303,-8.320648193,1,0,0,0,80,80,59,1,,,,,,,,
,,,,,,,,,,,,,FF,,,,,,,,0.9315,,,,,,,,,,,,,,,,,,,,,,60fee7e8473d54816d17c7b7,61036de3cf576104d41a107d,2021-07-29_22h14.41.846,Simcolourproject_2stim_asymm_v5,2020.2.10,Linux aarch64,60,61025ae37ef11b136ea224fe,,,,,,,,,1403,114.6705933,24.51223755,1,0,0,response1disk,,6,23.6550293,-11.01925659,1,0,0,rectangle,23.6550293,-11.01925659,1,0,0,23.6550293,-11.01925659,1,0,0,0,81,81,8,1,,,,,,,,
,,,,,,,,,,,,,FF,,,,,,,,1.3668,,,,,,,,,,,,,,,,,,,,,,60fee7e8473d54816d17c7b7,61036de3cf576104d41a107d,2021-07-29_22h14.41.846,Simcolourproject_2stim_asymm_v5,2020.2.10,Linux aarch64,60,61025ae37ef11b136ea224fe,,,,,,,,,213,71.86621094,-49.24932861,1,0,0,response3disk,,5,11.94012451,1.124420166,1,0,0,rectangle,11.94012451,1.124420166,1,0,0,11.94012451,1.124420166,1,0,0,0,82,82,4,1,,,,,,,,
,,,,,,,,,,,,,FF,,,,,,,,3.1168,,,,,,,,,,,,,,,,,,,,,,60fee7e8473d54816d17c7b7,61036de3cf576104d41a107d,2021-07-29_22h14.41.846,Simcolourproject_2stim_asymm_v5,2020.2.10,Linux aarch64,60,61025ae37ef11b136ea224fe,,,,,,,,,3900,93.9442749,-47.00048828,1,0,0,response3disk,,5,16.44592285,-11.46899414,1,0,0,rectangle,16.44592285,-11.46899414,1,0,0,16.44592285,-11.46899414,1,0,0,0,83,83,56,1,,,,,,,,
,,,,,,,,,,,,,FF,,,,,,,,1.4157,,,,,,,,,,,,,,,,,,,,,,60fee7e8473d54816d17c7b7,61036de3cf576104d41a107d,2021-07-29_22h14.41.846,Simcolourproject_2stim_asymm_v5,2020.2.10,Linux aarch64,60,61025ae37ef11b136ea224fe,,,,,,,,,1119,50.23876953,-88.82873535,1,0,0,response3disk,,4,17.79760742,-11.91879272,1,0,0,rectangle,17.79760742,-11.91879272,1,0,0,17.79760742,-11.91879272,1,0,0,0,84,84,85,1,,,,,,,,
,,,,,,,,,,,,,FF,,,,,,,,2.5506,,,,,,,,,,,,,,,,,,,,,,60fee7e8473d54816d17c7b7,61036de3cf576104d41a107d,2021-07-29_22h14.41.846,Simcolourproject_2stim_asymm_v5,2020.2.10,Linux aarch64,60,61025ae37ef11b136ea224fe,,,,,,,,,2427,108.3626099,-57.79489136,1,0,0,response3disk,,5,18.24816895,-10.11972046,1,0,0,rectangle,18.24816895,-10.11972046,1,0,0,18.24816895,-10.11972046,1,0,0,0,85,85,32,1,,,,,,,,
,,,,,,,,,,,,,FF,,,,,,,,0.7163,,,,,,,,,,,,,,,,,,,,,,60fee7e8473d54816d17c7b7,61036de3cf576104d41a107d,2021-07-29_22h14.41.846,Simcolourproject_2stim_asymm_v5,2020.2.10,Linux aarch64,60,61025ae37ef11b136ea224fe,,,,,,,,,3993,-40.7767334,76.23529053,1,0,0,response7disk,,0,14.1930542,-9.220184326,1,0,0,rectangle,14.1930542,-9.220184326,1,0,0,14.1930542,-9.220184326,1,0,0,0,86,86,83,1,,,,,,,,
,,,,,,,,,,,,,FF,,,,,,,,0.8975,,,,,,,,,,,,,,,,,,,,,,60fee7e8473d54816d17c7b7,61036de3cf576104d41a107d,2021-07-29_22h14.41.846,Simcolourproject_2stim_asymm_v5,2020.2.10,Linux aarch64,60,61025ae37ef11b136ea224fe,,,,,,,,,4016,130.4406128,-27.21078491,1,0,0,response3disk,,5,1.577087402,-2.023925781,1,0,0,rectangle,1.577087402,-2.023925781,1,0,0,1.577087402,-2.023925781,1,0,0,0,87,87,115,1,,,,,,,,
,,,,,,,,,,,,,FF,,,,,,,,0.9824,,,,,,,,,,,,,,,,,,,,,,60fee7e8473d54816d17c7b7,61036de3cf576104d41a107d,2021-07-29_22h14.41.846,Simcolourproject_2stim_asymm_v5,2020.2.10,Linux aarch64,60,61025ae37ef11b136ea224fe,,,,,,,,,2946,-90.7902832,41.603302,1,0,0,response7disk,,1,-10.58843994,-10.56948853,1,0,0,rectangle,-10.58843994,-10.56948853,1,0,0,-10.58843994,-10.56948853,1,0,0,0,88,88,18,1,,,,,,,,
,,,,,,,,,,,,,FF,,,,,,,,1.4014,,,,,,,,,,,,,,,,,,,,,,60fee7e8473d54816d17c7b7,61036de3cf576104d41a107d,2021-07-29_22h14.41.846,Simcolourproject_2stim_asymm_v5,2020.2.10,Linux aarch64,60,61025ae37ef11b136ea224fe,,,,,,,,,1226,-71.41558838,-53.29721069,1,0,0,response5disk,,2,5.632141113,-12.36856079,1,0,0,rectangle,5.632141113,-12.36856079,1,0,0,5.632141113,-12.36856079,1,0,0,0,89,89,108,1,,,,,,,,
,,,,,,,,,,,,,FF,,,,,,,,2.6837,,,,,,,,,,,,,,,,,,,,,,60fee7e8473d54816d17c7b7,61036de3cf576104d41a107d,2021-07-29_22h14.41.846,Simcolourproject_2stim_asymm_v5,2020.2.10,Linux aarch64,60,61025ae37ef11b136ea224fe,,,,,,,,,342,84.93280029,-54.19677734,1,0,0,response3disk,,5,21.85272217,-3.822998047,1,0,0,rectangle,21.85272217,-3.822998047,1,0,0,21.85272217,-3.822998047,1,0,0,0,90,90,159,1,,,,,,,,
,,,,,,,,,,,,,FF,,,,,,,,1.6823,,,,,,,,,,,,,,,,,,,,,,60fee7e8473d54816d17c7b7,61036de3cf576104d41a107d,2021-07-29_22h14.41.846,Simcolourproject_2stim_asymm_v5,2020.2.10,Linux aarch64,60,61025ae37ef11b136ea224fe,,,,,,,,,2216,105.2086182,26.76107788,1,0,0,response1disk,,6,13.29193115,-11.91879272,1,0,0,rectangle,13.29193115,-11.91879272,1,0,0,13.29193115,-11.91879272,1,0,0,0,91,91,81,1,,,,,,,,
,,,,,,,,,,,,,FF,,,,,,,,1.0493,,,,,,,,,,,,,,,,,,,,,,60fee7e8473d54816d17c7b7,61036de3cf576104d41a107d,2021-07-29_22h14.41.846,Simcolourproject_2stim_asymm_v5,2020.2.10,Linux aarch64,60,61025ae37ef11b136ea224fe,,,,,,,,,1362,55.64562988,-85.23059082,1,0,0,response3disk,,4,13.74243164,2.023956299,1,0,0,rectangle,13.74243164,2.023956299,1,0,0,13.74243164,2.023956299,1,0,0,0,92,92,101,1,,,,,,,,
,,,,,,,,,,,,,FF,,,,,,,,0.6493,,,,,,,,,,,,,,,,,,,,,,60fee7e8473d54816d17c7b7,61036de3cf576104d41a107d,2021-07-29_22h14.41.846,Simcolourproject_2stim_asymm_v5,2020.2.10,Linux aarch64,60,61025ae37ef11b136ea224fe,,,,,,,,,733,40.77679443,-83.88128662,1,0,0,response3disk,,4,13.74243164,-5.622070313,1,0,0,rectangle,13.74243164,-5.622070313,1,0,0,13.74243164,-5.622070313,1,0,0,0,93,93,137,1,,,,,,,,
,,,,,,,,,,,,,FF,,,,,,,,0.9161,,,,,,,,,,,,,,,,,,,,,,60fee7e8473d54816d17c7b7,61036de3cf576104d41a107d,2021-07-29_22h14.41.846,Simcolourproject_2stim_asymm_v5,2020.2.10,Linux aarch64,60,61025ae37ef11b136ea224fe,,,,,,,,,2192,70.06396484,118.0635071,1,0,0,response1disk,,7,10.58843994,4.722564697,1,0,0,rectangle,10.58843994,4.722564697,1,0,0,10.58843994,4.722564697,1,0,0,0,94,94,79,1,,,,,,,,
,,,,,,,,,,,,,FF,,,,,,,,1.2345,,,,,,,,,,,,,,,,,,,,,,60fee7e8473d54816d17c7b7,61036de3cf576104d41a107d,2021-07-29_22h14.41.846,Simcolourproject_2stim_asymm_v5,2020.2.10,Linux aarch64,60,61025ae37ef11b136ea224fe,,,,,,,,,1276,96.64764404,-47.90005493,1,0,0,response3disk,,5,31.3147583,-10.11972046,1,0,0,rectangle,31.3147583,-10.11972046,1,0,0,31.3147583,-10.11972046,1,0,0,0,95,95,116,1,,,,,,,,
,,,,,,,,,,,,,FF,,,,,,,,1.2837,,,,,,,,,,,,,,,,,,,,,,60fee7e8473d54816d17c7b7,61036de3cf576104d41a107d,2021-07-29_22h14.41.846,Simcolourproject_2stim_asymm_v5,2020.2.10,Linux aarch64,60,61025ae37ef11b136ea224fe,,,,,,,,,964,98.45001221,-44.3019104,1,0,0,response3disk,,5,32.21594238,0.224884033,1,0,0,rectangle,-83.13043213,-43.85214233,1,0,0,-2.928710938,3.37322998,1,0,0,0,96,96,21,1,,response5disk_3,TRUE,2,2,"[241,8,123,100,78,97,163,254,155,189,263,247,135,299,167,249,36,191,288,224]",1.6155,rectangle
,,,,,,,,,,,,,FF,,,,,,,,0.716,,,,,,,,,,,,,,,,,,,,,,60fee7e8473d54816d17c7b7,61036de3cf576104d41a107d,2021-07-29_22h14.41.846,Simcolourproject_2stim_asymm_v5,2020.2.10,Linux aarch64,60,61025ae37ef11b136ea224fe,,,,,,,,,3810,-23.20440674,81.18273926,1,0,0,response7disk,,0,6.082702637,1.124420166,1,0,0,rectangle,6.082702637,1.124420166,1,0,0,6.082702637,1.124420166,1,0,0,0,97,97,153,1,,,,,,,,
,,,,,,,,,,,,,FF,,,,,,,,0.8489,,,,,,,,,,,,,,,,,,,,,,60fee7e8473d54816d17c7b7,61036de3cf576104d41a107d,2021-07-29_22h14.41.846,Simcolourproject_2stim_asymm_v5,2020.2.10,Linux aarch64,60,61025ae37ef11b136ea224fe,,,,,,,,,1744,-81.77880859,32.60803223,1,0,0,response7disk,,1,-7.434387207,-1.124420166,1,0,0,rectangle,-7.434387207,-1.124420166,1,0,0,-7.434387207,-1.124420166,1,0,0,0,98,98,39,1,,,,,,,,
,,,,,,,,,,,,,FF,,,,,,,,0.8824,,,,,,,,,,,,,,,,,,,,,,60fee7e8473d54816d17c7b7,61036de3cf576104d41a107d,2021-07-29_22h14.41.846,Simcolourproject_2stim_asymm_v5,2020.2.10,Linux aarch64,60,61025ae37ef11b136ea224fe,,,,,,,,,3830,95.74658203,-52.39770508,1,0,0,response3disk,,5,11.48968506,-9.220184326,1,0,0,rectangle,-46.63421631,-114.9151611,1,0,0,14.64361572,-14.61740112,1,0,0,0,99,99,109,1,,response5disk_3,TRUE,3,3,"[241,8,123,100,78,97,163,254,155,189,263,247,135,299,167,249,36,191,288,224]",1.6144,rectangle
,,,,,,,,,,,,,FF,,,,,,,,4.0012,,,,,,,,,,,,,,,,,,,,,,60fee7e8473d54816d17c7b7,61036de3cf576104d41a107d,2021-07-29_22h14.41.846,Simcolourproject_2stim_asymm_v5,2020.2.10,Linux aarch64,60,61025ae37ef11b136ea224fe,,,,,,,,,1716,110.164856,-57.79489136,1,0,0,response3disk,,5,16.89642334,-6.071838379,1,0,0,rectangle,16.89642334,-6.071838379,1,0,0,16.89642334,-6.071838379,1,0,0,0,100,100,111,1,,,,,,,,
,,,,,,,,,,,,,FF,,,,,,,,1.1324,,,,,,,,,,,,,,,,,,,,,,60fee7e8473d54816d17c7b7,61036de3cf576104d41a107d,2021-07-29_22h14.41.846,Simcolourproject_2stim_asymm_v5,2020.2.10,Linux aarch64,60,61025ae37ef11b136ea224fe,,,,,,,,,90,102.505188,-59.59396362,1,0,0,response3disk,,5,19.59991455,-0.674621582,1,0,0,rectangle,19.59991455,-0.674621582,1,0,0,19.59991455,-0.674621582,1,0,0,0,101,101,38,1,,,,,,,,
,,,,,,,,,,,,,FF,,,,,,,,0.95,,,,,,,,,,,,,,,,,,,,,,60fee7e8473d54816d17c7b7,61036de3cf576104d41a107d,2021-07-29_22h14.41.846,Simcolourproject_2stim_asymm_v5,2020.2.10,Linux aarch64,60,61025ae37ef11b136ea224fe,,,,,,,,,3329,-89.88909912,-57.34512329,1,0,0,response5disk,,2,10.58843994,-5.622070313,1,0,0,rectangle,10.58843994,-5.622070313,1,0,0,10.58843994,-5.622070313,1,0,0,0,102,102,23,1,,,,,,,,
,,,,,,,,,,,,,FF,,,,,,,,0.9001,,,,,,,,,,,,,,,,,,,,,,60fee7e8473d54816d17c7b7,61036de3cf576104d41a107d,2021-07-29_22h14.41.846,Simcolourproject_2stim_asymm_v5,2020.2.10,Linux aarch64,60,61025ae37ef11b136ea224fe,,,,,,,,,3861,102.0546265,-52.84747314,1,0,0,response3disk,,5,20.05047607,-10.56948853,1,0,0,rectangle,20.05047607,-10.56948853,1,0,0,20.05047607,-10.56948853,1,0,0,0,103,103,121,1,,,,,,,,
,,,,,,,,,,,,,FF,,,,,,,,1.0331,,,,,,,,,,,,,,,,,,,,,,60fee7e8473d54816d17c7b7,61036de3cf576104d41a107d,2021-07-29_22h14.41.846,Simcolourproject_2stim_asymm_v5,2020.2.10,Linux aarch64,60,61025ae37ef11b136ea224fe,,,,,,,,,641,-80.42706299,-42.9526062,1,0,0,response5disk,,2,6.983886719,-3.822998047,1,0,0,rectangle,6.983886719,-3.822998047,1,0,0,6.983886719,-3.822998047,1,0,0,0,104,104,13,1,,,,,,,,
,,,,,,,,,,,,,FF,,,,,,,,1.6501,,,,,,,,,,,,,,,,,,,,,,60fee7e8473d54816d17c7b7,61036de3cf576104d41a107d,2021-07-29_22h14.41.846,Simcolourproject_2stim_asymm_v5,2020.2.10,Linux aarch64,60,61025ae37ef11b136ea224fe,,,,,,,,,4151,103.40625,-42.05307007,1,0,0,response3disk,,5,4.280456543,-8.77041626,1,0,0,rectangle,4.280456543,-8.77041626,1,0,0,4.280456543,-8.77041626,1,0,0,0,105,105,3,1,,,,,,,,
,,,,,,,,,,,,,FF,,,,,,,,2.902,,,,,,,,,,,,,,,,,,,,,,60fee7e8473d54816d17c7b7,61036de3cf576104d41a107d,2021-07-29_22h14.41.846,Simcolourproject_2stim_asymm_v5,2020.2.10,Linux aarch64,60,61025ae37ef11b136ea224fe,,,,,,,,,852,94.84539795,33.05776978,1,0,0,response1disk,,6,16.89642334,-2.023925781,1,0,0,rectangle,16.89642334,-2.023925781,1,0,0,16.89642334,-2.023925781,1,0,0,0,106,106,52,1,,,,,,,,
,,,,,,,,,,,,,FF,,,,,,,,1.0162,,,,,,,,,,,,,,,,,,,,,,60fee7e8473d54816d17c7b7,61036de3cf576104d41a107d,2021-07-29_22h14.41.846,Simcolourproject_2stim_asymm_v5,2020.2.10,Linux aarch64,60,61025ae37ef11b136ea224fe,,,,,,,,,2388,113.7694702,47.90005493,1,0,0,response1disk,,6,17.79760742,0.224884033,1,0,0,rectangle,17.79760742,0.224884033,1,0,0,17.79760742,0.224884033,1,0,0,0,107,107,125,1,,,,,,,,
,,,,,,,,,,,,,FF,,,,,,,,1.0829,,,,,,,,,,,,,,,,,,,,,,60fee7e8473d54816d17c7b7,61036de3cf576104d41a107d,2021-07-29_22h14.41.846,Simcolourproject_2stim_asymm_v5,2020.2.10,Linux aarch64,60,61025ae37ef11b136ea224fe,,,,,,,,,809,-44.38134766,-78.48410034,1,0,0,response5disk,,3,-5.18157959,-15.96664429,1,0,0,rectangle,-5.18157959,-15.96664429,1,0,0,-5.18157959,-15.96664429,1,0,0,0,108,108,46,1,,,,,,,,
,,,,,,,,,,,,,FF,,,,,,,,0.9155,,,,,,,,,,,,,,,,,,,,,,60fee7e8473d54816d17c7b7,61036de3cf576104d41a107d,2021-07-29_22h14.41.846,Simcolourproject_2stim_asymm_v5,2020.2.10,Linux aarch64,60,61025ae37ef11b136ea224fe,,,,,,,,,1167,74.56964111,38.90475464,1,0,0,response1disk,,6,19.59991455,-7.870910645,1,0,0,rectangle,19.59991455,-7.870910645,1,0,0,19.59991455,-7.870910645,1,0,0,0,109,109,26,1,,,,,,,,
,,,,,,,,,,,,,FF,,,,,,,,1.7501,,,,,,,,,,,,,,,,,,,,,,60fee7e8473d54816d17c7b7,61036de3cf576104d41a107d,2021-07-29_22h14.41.846,Simcolourproject_2stim_asymm_v5,2020.2.10,Linux aarch64,60,61025ae37ef11b136ea224fe,,,,,,,,,2288,-79.52593994,-60.49346924,1,0,0,response5disk,,2,10.13787842,-7.870910645,1,0,0,rectangle,10.13787842,-7.870910645,1,0,0,10.13787842,-7.870910645,1,0,0,0,110,110,43,1,,,,,,,,
,,,,,,,,,,,,,FF,,,,,,,,2.3178,,,,,,,,,,,,,,,,,,,,,,60fee7e8473d54816d17c7b7,61036de3cf576104d41a107d,2021-07-29_22h14.41.846,Simcolourproject_2stim_asymm_v5,2020.2.10,Linux aarch64,60,61025ae37ef11b136ea224fe,,,,,,,,,1129,33.56762695,68.13952637,1,0,0,response1disk,,7,2.928710938,3.37322998,1,0,0,rectangle,2.928710938,3.37322998,1,0,0,2.928710938,3.37322998,1,0,0,0,111,111,104,1,,,,,,,,
,,,,,,,,,,,,,FF,,,,,,,,0.8994,,,,,,,,,,,,,,,,,,,,,,60fee7e8473d54816d17c7b7,61036de3cf576104d41a107d,2021-07-29_22h14.41.846,Simcolourproject_2stim_asymm_v5,2020.2.10,Linux aarch64,60,61025ae37ef11b136ea224fe,,,,,,,,,27,33.56762695,100.0729065,1,0,0,response1disk,,7,6.082702637,-6.521575928,1,0,0,rectangle,6.082702637,-6.521575928,1,0,0,6.082702637,-6.521575928,1,0,0,0,112,112,16,1,,,,,,,,
,,,,,,,,,,,,,FF,,,,,,,,1.2334,,,,,,,,,,,,,,,,,,,,,,60fee7e8473d54816d17c7b7,61036de3cf576104d41a107d,2021-07-29_22h14.41.846,Simcolourproject_2stim_asymm_v5,2020.2.10,Linux aarch64,60,61025ae37ef11b136ea224fe,,,,,,,,,2875,93.9442749,29.90945435,1,0,0,response1disk,,6,1.126403809,-11.01925659,1,0,0,rectangle,1.126403809,-11.01925659,1,0,0,1.126403809,-11.01925659,1,0,0,0,113,113,37,1,,,,,,,,
,,,,,,,,,,,,,FF,,,,,,,,3.1178,,,,,,,,,,,,,,,,,,,,,,60fee7e8473d54816d17c7b7,61036de3cf576104d41a107d,2021-07-29_22h14.41.846,Simcolourproject_2stim_asymm_v5,2020.2.10,Linux aarch64,60,61025ae37ef11b136ea224fe,,,,,,,,,4322,42.57904053,95.12545776,1,0,0,response1disk,,7,-8.335510254,-9.220184326,1,0,0,rectangle,-8.335510254,-9.220184326,1,0,0,-8.335510254,-9.220184326,1,0,0,0,114,114,112,1,,,,,,,,
,,,,,,,,,,,,,FF,,,,,,,,0.934,,,,,,,,,,,,,,,,,,,,,,60fee7e8473d54816d17c7b7,61036de3cf576104d41a107d,2021-07-29_22h14.41.846,Simcolourproject_2stim_asymm_v5,2020.2.10,Linux aarch64,60,61025ae37ef11b136ea224fe,,,,,,,,,2804,87.18566895,36.65591431,1,0,0,response1disk,,6,6.533325195,-13.71783447,1,0,0,rectangle,6.533325195,-13.71783447,1,0,0,6.533325195,-13.71783447,1,0,0,0,115,115,36,1,,,,,,,,
,,,,,,,,,,,,,FF,,,,,,,,1.3995,,,,,,,,,,,,,,,,,,,,,,60fee7e8473d54816d17c7b7,61036de3cf576104d41a107d,2021-07-29_22h14.41.846,Simcolourproject_2stim_asymm_v5,2020.2.10,Linux aarch64,60,61025ae37ef11b136ea224fe,,,,,,,,,1723,92.59259033,41.15359497,1,0,0,response1disk,,6,7.434509277,-10.56948853,1,0,0,rectangle,7.434509277,-10.56948853,1,0,0,7.434509277,-10.56948853,1,0,0,0,116,116,42,1,,,,,,,,
,,,,,,,,,,,,,FF,,,,,,,,1.517,,,,,,,,,,,,,,,,,,,,,,60fee7e8473d54816d17c7b7,61036de3cf576104d41a107d,2021-07-29_22h14.41.846,Simcolourproject_2stim_asymm_v5,2020.2.10,Linux aarch64,60,61025ae37ef11b136ea224fe,,,,,,,,,854,100.7028198,33.05776978,1,0,0,response1disk,,6,22.30334473,-8.320648193,1,0,0,rectangle,22.30334473,-8.320648193,1,0,0,22.30334473,-8.320648193,1,0,0,0,117,117,50,1,,,,,,,,
,,,,,,,,,,,,,FF,,,,,,,,1.45,,,,,,,,,,,,,,,,,,,,,,60fee7e8473d54816d17c7b7,61036de3cf576104d41a107d,2021-07-29_22h14.41.846,Simcolourproject_2stim_asymm_v5,2020.2.10,Linux aarch64,60,61025ae37ef11b136ea224fe,,,,,,,,,2983,93.9442749,-40.2539978,1,0,0,response3disk,,5,8.786132813,-2.473693848,1,0,0,rectangle,8.786132813,-2.473693848,1,0,0,8.786132813,-2.473693848,1,0,0,0,118,118,87,1,,,,,,,,
,,,,,,,,,,,,,FF,,,,,,,,2.5691,,,,,,,,,,,,,,,,,,,,,,60fee7e8473d54816d17c7b7,61036de3cf576104d41a107d,2021-07-29_22h14.41.846,Simcolourproject_2stim_asymm_v5,2020.2.10,Linux aarch64,60,61025ae37ef11b136ea224fe,,,,,,,,,111,119.6268921,-51.04840088,1,0,0,response3disk,,5,24.10565186,-6.521575928,1,0,0,rectangle,24.10565186,-6.521575928,1,0,0,24.10565186,-6.521575928,1,0,0,0,119,119,94,1,,,,,,,,
,,,,,,,,,,,,,FF,,,,,,,,0.9499,,,,,,,,,,,,,,,,,,,,,,60fee7e8473d54816d17c7b7,61036de3cf576104d41a107d,2021-07-29_22h14.41.846,Simcolourproject_2stim_asymm_v5,2020.2.10,Linux aarch64,60,61025ae37ef11b136ea224fe,,,,,,,,,2420,-63.30535889,27.21084595,1,0,0,response7disk,,1,-4.731018066,-13.26806641,1,0,0,rectangle,-4.731018066,-13.26806641,1,0,0,-4.731018066,-13.26806641,1,0,0,0,120,120,122,1,,,,,,,,
,,,,,,,,,,,,,FF,,,,,,,,1.1835,,,,,,,,,,,,,,,,,,,,,,60fee7e8473d54816d17c7b7,61036de3cf576104d41a107d,2021-07-29_22h14.41.846,Simcolourproject_2stim_asymm_v5,2020.2.10,Linux aarch64,60,61025ae37ef11b136ea224fe,,,,,,,,,3702,-100.7028198,-60.49346924,1,0,0,response5disk,,2,6.082702637,-14.16763306,1,0,0,rectangle,6.082702637,-14.16763306,1,0,0,6.082702637,-14.16763306,1,0,0,0,121,121,12,1,,,,,,,,
,,,,,,,,,,,,,FF,,,,,,,,2.0314,,,,,,,,,,,,,,,,,,,,,,60fee7e8473d54816d17c7b7,61036de3cf576104d41a107d,2021-07-29_22h14.41.846,Simcolourproject_2stim_asymm_v5,2020.2.10,Linux aarch64,60,61025ae37ef11b136ea224fe,,,,,,,,,452,94.84539795,38.90475464,1,0,0,response1disk,,6,15.99530029,-2.923431396,1,0,0,rectangle,46.18365479,-99.62310791,1,0,0,5.18157959,-0.674621582,1,0,0,0,122,122,155,1,,response3disk_3,TRUE,4,4,"[241,8,123,100,78,97,163,254,155,189,263,247,135,299,167,249,36,191,288,224]",1.6821,rectangle
,,,,,,,,,,,,,FF,,,,,,,,0.8665,,,,,,,,,,,,,,,,,,,,,,60fee7e8473d54816d17c7b7,61036de3cf576104d41a107d,2021-07-29_22h14.41.846,Simcolourproject_2stim_asymm_v5,2020.2.10,Linux aarch64,60,61025ae37ef11b136ea224fe,,,,,,,,,917,95.29602051,-47.00048828,1,0,0,response3disk,,5,3.82989502,-15.06713867,1,0,0,rectangle,3.82989502,-15.06713867,1,0,0,3.82989502,-15.06713867,1,0,0,0,123,123,147,1,,,,,,,,
,,,,,,,,,,,,,FF,,,,,,,,0.9837,,,,,,,,,,,,,,,,,,,,,,60fee7e8473d54816d17c7b7,61036de3cf576104d41a107d,2021-07-29_22h14.41.846,Simcolourproject_2stim_asymm_v5,2020.2.10,Linux aarch64,60,61025ae37ef11b136ea224fe,,,,,,,,,1257,61.50311279,-91.52728271,1,0,0,response3disk,,4,20.05047607,-2.023925781,1,0,0,rectangle,20.05047607,-2.023925781,1,0,0,20.05047607,-2.023925781,1,0,0,0,124,124,149,1,,,,,,,,
,,,,,,,,,,,,,FF,,,,,,,,0.7996,,,,,,,,,,,,,,,,,,,,,,60fee7e8473d54816d17c7b7,61036de3cf576104d41a107d,2021-07-29_22h14.41.846,Simcolourproject_2stim_asymm_v5,2020.2.10,Linux aarch64,60,61025ae37ef11b136ea224fe,,,,,,,,,1408,98.90057373,44.3019104,1,0,0,response1disk,,6,12.39074707,-0.224853516,1,0,0,rectangle,12.39074707,-0.224853516,1,0,0,12.39074707,-0.224853516,1,0,0,0,125,125,15,1,,,,,,,,
,,,,,,,,,,,,,FF,,,,,,,,1.5997,,,,,,,,,,,,,,,,,,,,,,60fee7e8473d54816d17c7b7,61036de3cf576104d41a107d,2021-07-29_22h14.41.846,Simcolourproject_2stim_asymm_v5,2020.2.10,Linux aarch64,60,61025ae37ef11b136ea224fe,,,,,,,,,311,89.88916016,34.40710449,1,0,0,response1disk,,6,14.64361572,2.923492432,1,0,0,rectangle,14.64361572,2.923492432,1,0,0,14.64361572,2.923492432,1,0,0,0,126,126,88,1,,,,,,,,
,,,,,,,,,,,,,FF,,,,,,,,1.5159,,,,,,,,,,,,,,,,,,,,,,60fee7e8473d54816d17c7b7,61036de3cf576104d41a107d,2021-07-29_22h14.41.846,Simcolourproject_2stim_asymm_v5,2020.2.10,Linux aarch64,60,61025ae37ef11b136ea224fe,,,,,,,,,3185,55.19512939,92.87661743,1,0,0,response1disk,,7,16.44592285,-4.272766113,1,0,0,rectangle,16.44592285,-4.272766113,1,0,0,16.44592285,-4.272766113,1,0,0,0,127,127,29,1,,,,,,,,
,,,,,,,,,,,,,FF,,,,,,,,1.7997,,,,,,,,,,,,,,,,,,,,,,60fee7e8473d54816d17c7b7,61036de3cf576104d41a107d,2021-07-29_22h14.41.846,Simcolourproject_2stim_asymm_v5,2020.2.10,Linux aarch64,60,61025ae37ef11b136ea224fe,,,,,,,,,807,103.40625,37.55545044,1,0,0,response1disk,,6,16.89642334,-6.971343994,1,0,0,rectangle,16.89642334,-6.971343994,1,0,0,16.89642334,-6.971343994,1,0,0,0,128,128,77,1,,,,,,,,
,,,,,,,,,,,,,FF,,,,,,,,0.8827,,,,,,,,,,,,,,,,,,,,,,60fee7e8473d54816d17c7b7,61036de3cf576104d41a107d,2021-07-29_22h14.41.846,Simcolourproject_2stim_asymm_v5,2020.2.10,Linux aarch64,60,61025ae37ef11b136ea224fe,,,,,,,,,2331,62.85479736,106.3695984,1,0,0,response1disk,,7,7.434509277,-10.56948853,1,0,0,rectangle,7.434509277,-10.56948853,1,0,0,7.434509277,-10.56948853,1,0,0,0,129,129,24,1,,,,,,,,
,,,,,,,,,,,,,FF,,,,,,,,1.5501,,,,,,,,,,,,,,,,,,,,,,60fee7e8473d54816d17c7b7,61036de3cf576104d41a107d,2021-07-29_22h14.41.846,Simcolourproject_2stim_asymm_v5,2020.2.10,Linux aarch64,60,61025ae37ef11b136ea224fe,,,,,,,,,4061,43.93078613,-85.68035889,1,0,0,response3disk,,4,17.79760742,2.923492432,1,0,0,rectangle,17.79760742,2.923492432,1,0,0,17.79760742,2.923492432,1,0,0,0,130,130,144,1,,,,,,,,
,,,,,,,,,,,,,FF,,,,,,,,2.1503,,,,,,,,,,,,,,,,,,,,,,60fee7e8473d54816d17c7b7,61036de3cf576104d41a107d,2021-07-29_22h14.41.846,Simcolourproject_2stim_asymm_v5,2020.2.10,Linux aarch64,60,61025ae37ef11b136ea224fe,,,,,,,,,615,31.76531982,-71.2878418,1,0,0,response3disk,,4,12.39074707,6.071868896,1,0,0,rectangle,12.39074707,6.071868896,1,0,0,12.39074707,6.071868896,1,0,0,0,131,131,96,1,,,,,,,,
,,,,,,,,,,,,,FF,,,,,,,,1.4823,,,,,,,,,,,,,,,,,,,,,,60fee7e8473d54816d17c7b7,61036de3cf576104d41a107d,2021-07-29_22h14.41.846,Simcolourproject_2stim_asymm_v5,2020.2.10,Linux aarch64,60,61025ae37ef11b136ea224fe,,,,,,,,,1826,-78.62481689,-58.69442749,1,0,0,response5disk,,2,12.39074707,11.46902466,1,0,0,rectangle,12.39074707,11.46902466,1,0,0,12.39074707,11.46902466,1,0,0,0,132,132,28,1,,,,,,,,
,,,,,,,,,,,,,FF,,,,,,,,0.9,,,,,,,,,,,,,,,,,,,,,,60fee7e8473d54816d17c7b7,61036de3cf576104d41a107d,2021-07-29_22h14.41.846,Simcolourproject_2stim_asymm_v5,2020.2.10,Linux aarch64,60,61025ae37ef11b136ea224fe,,,,,,,,,530,-76.37194824,-49.24932861,1,0,0,response5disk,,2,5.632141113,-11.46899414,1,0,0,rectangle,5.632141113,-11.46899414,1,0,0,5.632141113,-11.46899414,1,0,0,0,133,133,30,1,,,,,,,,
,,,,,,,,,,,,,FF,,,,,,,,0.9654,,,,,,,,,,,,,,,,,,,,,,60fee7e8473d54816d17c7b7,61036de3cf576104d41a107d,2021-07-29_22h14.41.846,Simcolourproject_2stim_asymm_v5,2020.2.10,Linux aarch64,60,61025ae37ef11b136ea224fe,,,,,,,,,3948,114.6705933,25.86154175,1,0,0,response1disk,,6,26.809021,-12.81832886,1,0,0,rectangle,51.13995361,-103.6710205,1,0,0,4.731018066,-7.870910645,1,0,0,0,134,134,20,1,,response3disk_3,TRUE,4,4,"[241,8,123,100,78,97,163,254,155,189,263,247,135,299,167,249,36,191,288,224]",1.2149,rectangle
,,,,,,,,,,,,,FF,,,,,,,,1.483,,,,,,,,,,,,,,,,,,,,,,60fee7e8473d54816d17c7b7,61036de3cf576104d41a107d,2021-07-29_22h14.41.846,Simcolourproject_2stim_asymm_v5,2020.2.10,Linux aarch64,60,61025ae37ef11b136ea224fe,,,,,,,,,1715,111.5166016,-51.04840088,1,0,0,response3disk,,5,24.10565186,-8.77041626,1,0,0,rectangle,24.10565186,-8.77041626,1,0,0,24.10565186,-8.77041626,1,0,0,0,135,135,140,1,,,,,,,,
,,,,,,,,,,,,,FF,,,,,,,,1.7967,,,,,,,,,,,,,,,,,,,,,,60fee7e8473d54816d17c7b7,61036de3cf576104d41a107d,2021-07-29_22h14.41.846,Simcolourproject_2stim_asymm_v5,2020.2.10,Linux aarch64,60,61025ae37ef11b136ea224fe,,,,,,,,,1867,96.64764404,34.85684204,1,0,0,response1disk,,6,18.69873047,-13.26806641,1,0,0,rectangle,18.69873047,-13.26806641,1,0,0,18.69873047,-13.26806641,1,0,0,0,136,136,70,1,,,,,,,,
,,,,,,,,,,,,,FF,,,,,,,,1.0999,,,,,,,,,,,,,,,,,,,,,,60fee7e8473d54816d17c7b7,61036de3cf576104d41a107d,2021-07-29_22h14.41.846,Simcolourproject_2stim_asymm_v5,2020.2.10,Linux aarch64,60,61025ae37ef11b136ea224fe,,,,,,,,,981,-91.69140625,-46.10098267,1,0,0,response5disk,,2,-2.478088379,-10.56948853,1,0,0,rectangle,-2.478088379,-10.56948853,1,0,0,-2.478088379,-10.56948853,1,0,0,0,137,137,150,1,,,,,,,,
,,,,,,,,,,,,,FF,,,,,,,,1.0007,,,,,,,,,,,,,,,,,,,,,,60fee7e8473d54816d17c7b7,61036de3cf576104d41a107d,2021-07-29_22h14.41.846,Simcolourproject_2stim_asymm_v5,2020.2.10,Linux aarch64,60,61025ae37ef11b136ea224fe,,,,,,,,,76,-63.75592041,32.60803223,1,0,0,response7disk,,1,3.82989502,-6.071838379,1,0,0,rectangle,3.82989502,-6.071838379,1,0,0,3.82989502,-6.071838379,1,0,0,0,138,138,53,1,,,,,,,,
,,,,,,,,,,,,,FF,,,,,,,,0.8843,,,,,,,,,,,,,,,,,,,,,,60fee7e8473d54816d17c7b7,61036de3cf576104d41a107d,2021-07-29_22h14.41.846,Simcolourproject_2stim_asymm_v5,2020.2.10,Linux aarch64,60,61025ae37ef11b136ea224fe,,,,,,,,,2451,98.90057373,-44.75167847,1,0,0,response3disk,,5,20.05047607,-7.421112061,1,0,0,rectangle,20.05047607,-7.421112061,1,0,0,20.05047607,-7.421112061,1,0,0,0,139,139,55,1,,,,,,,,
,,,,,,,,,,,,,FF,,,,,,,,1.8011,,,,,,,,,,,,,,,,,,,,,,60fee7e8473d54816d17c7b7,61036de3cf576104d41a107d,2021-07-29_22h14.41.846,Simcolourproject_2stim_asymm_v5,2020.2.10,Linux aarch64,60,61025ae37ef11b136ea224fe,,,,,,,,,1954,69.61340332,-50.14889526,1,0,0,response3disk,,5,10.58843994,-6.071838379,1,0,0,rectangle,10.58843994,-6.071838379,1,0,0,10.58843994,-6.071838379,1,0,0,0,140,140,126,1,,,,,,,,
,,,,,,,,,,,,,FF,,,,,,,,0.9665,,,,,,,,,,,,,,,,,,,,,,60fee7e8473d54816d17c7b7,61036de3cf576104d41a107d,2021-07-29_22h14.41.846,Simcolourproject_2stim_asymm_v5,2020.2.10,Linux aarch64,60,61025ae37ef11b136ea224fe,,,,,,,,,1342,97.54882813,61.39303589,1,0,0,response1disk,,6,12.84130859,-7.421112061,1,0,0,rectangle,12.84130859,-7.421112061,1,0,0,12.84130859,-7.421112061,1,0,0,0,141,141,145,1,,,,,,,,
,,,,,,,,,,,,,FF,,,,,,,,0.7664,,,,,,,,,,,,,,,,,,,,,,60fee7e8473d54816d17c7b7,61036de3cf576104d41a107d,2021-07-29_22h14.41.846,Simcolourproject_2stim_asymm_v5,2020.2.10,Linux aarch64,60,61025ae37ef11b136ea224fe,,,,,,,,,3260,58.34912109,36.20614624,1,0,0,response1disk,,6,7.885009766,-3.373260498,1,0,0,rectangle,7.885009766,-3.373260498,1,0,0,7.885009766,-3.373260498,1,0,0,0,142,142,134,1,,,,,,,,
,,,,,,,,,,,,,FF,,,,,,,,1.6337,,,,,,,,,,,,,,,,,,,,,,60fee7e8473d54816d17c7b7,61036de3cf576104d41a107d,2021-07-29_22h14.41.846,Simcolourproject_2stim_asymm_v5,2020.2.10,Linux aarch64,60,61025ae37ef11b136ea224fe,,,,,,,,,4264,28.1607666,-80.73291016,1,0,0,response3disk,,4,8.786132813,-2.023925781,1,0,0,rectangle,8.786132813,-2.023925781,1,0,0,8.786132813,-2.023925781,1,0,0,0,143,143,10,1,,,,,,,,
,,,,,,,,,,,,,FF,,,,,,,,1.4828,,,,,,,,,,,,,,,,,,,,,,60fee7e8473d54816d17c7b7,61036de3cf576104d41a107d,2021-07-29_22h14.41.846,Simcolourproject_2stim_asymm_v5,2020.2.10,Linux aarch64,60,61025ae37ef11b136ea224fe,,,,,,,,,1366,86.73516846,33.95730591,1,0,0,response1disk,,6,10.58843994,5.172302246,1,0,0,rectangle,10.58843994,5.172302246,1,0,0,10.58843994,5.172302246,1,0,0,0,144,144,113,1,,,,,,,,
,,,,,,,,,,,,,FF,,,,,,,,1.1343,,,,,,,,,,,,,,,,,,,,,,60fee7e8473d54816d17c7b7,61036de3cf576104d41a107d,2021-07-29_22h14.41.846,Simcolourproject_2stim_asymm_v5,2020.2.10,Linux aarch64,60,61025ae37ef11b136ea224fe,,,,,,,,,3571,52.0411377,93.32641602,1,0,0,response1disk,,7,2.478149414,1.124420166,1,0,0,rectangle,2.478149414,1.124420166,1,0,0,2.478149414,1.124420166,1,0,0,0,145,145,22,1,,,,,,,,
,,,,,,,,,,,,,FF,,,,,,,,0.7994,,,,,,,,,,,,,,,,,,,,,,60fee7e8473d54816d17c7b7,61036de3cf576104d41a107d,2021-07-29_22h14.41.846,Simcolourproject_2stim_asymm_v5,2020.2.10,Linux aarch64,60,61025ae37ef11b136ea224fe,,,,,,,,,3928,45.2824707,76.68508911,1,0,0,response1disk,,7,-1.576965332,-15.06713867,1,0,0,rectangle,-1.576965332,-15.06713867,1,0,0,-1.576965332,-15.06713867,1,0,0,0,146,146,106,1,,,,,,,,
,,,,,,,,,,,,,FF,,,,,,,,0.7331,,,,,,,,,,,,,,,,,,,,,,60fee7e8473d54816d17c7b7,61036de3cf576104d41a107d,2021-07-29_22h14.41.846,Simcolourproject_2stim_asymm_v5,2020.2.10,Linux aarch64,60,61025ae37ef11b136ea224fe,,,,,,,,,3327,53.84338379,81.63247681,1,0,0,response1disk,,7,7.434509277,-5.622070313,1,0,0,rectangle,7.434509277,-5.622070313,1,0,0,7.434509277,-5.622070313,1,0,0,0,147,147,7,1,,,,,,,,
,,,,,,,,,,,,,FF,,,,,,,,0.7157,,,,,,,,,,,,,,,,,,,,,,60fee7e8473d54816d17c7b7,61036de3cf576104d41a107d,2021-07-29_22h14.41.846,Simcolourproject_2stim_asymm_v5,2020.2.10,Linux aarch64,60,61025ae37ef11b136ea224fe,,,,,,,,,923,104.7579956,56.89538574,1,0,0,response1disk,,6,17.34710693,-5.172271729,1,0,0,rectangle,17.34710693,-5.172271729,1,0,0,17.34710693,-5.172271729,1,0,0,0,148,148,142,1,,,,,,,,
,,,,,,,,,,,,,FF,,,,,,,,1.3004,,,,,,,,,,,,,,,,,,,,,,60fee7e8473d54816d17c7b7,61036de3cf576104d41a107d,2021-07-29_22h14.41.846,Simcolourproject_2stim_asymm_v5,2020.2.10,Linux aarch64,60,61025ae37ef11b136ea224fe,,,,,,,,,2481,-70.06396484,34.85684204,1,0,0,response7disk,,1,20.95159912,-11.46899414,1,0,0,rectangle,20.95159912,-11.46899414,1,0,0,20.95159912,-11.46899414,1,0,0,0,149,149,78,1,,,,,,,,
,,,,,,,,,,,,,FF,,,,,,,,1.4316,,,,,,,,,,,,,,,,,,,,,,60fee7e8473d54816d17c7b7,61036de3cf576104d41a107d,2021-07-29_22h14.41.846,Simcolourproject_2stim_asymm_v5,2020.2.10,Linux aarch64,60,61025ae37ef11b136ea224fe,,,,,,,,,1511,32.21594238,-95.12542725,1,0,0,response3disk,,4,11.94012451,-14.16763306,1,0,0,rectangle,11.94012451,-14.16763306,1,0,0,11.94012451,-14.16763306,1,0,0,0,150,150,105,1,,,,,,,,
,,,,,,,,,,,,,FF,,,,,,,,2.1996,,,,,,,,,,,,,,,,,,,,,,60fee7e8473d54816d17c7b7,61036de3cf576104d41a107d,2021-07-29_22h14.41.846,Simcolourproject_2stim_asymm_v5,2020.2.10,Linux aarch64,60,61025ae37ef11b136ea224fe,,,,,,,,,1483,88.98797607,-51.04840088,1,0,0,response3disk,,5,16.89642334,-0.674621582,1,0,0,rectangle,16.89642334,-0.674621582,1,0,0,16.89642334,-0.674621582,1,0,0,0,151,151,47,1,,,,,,,,
,,,,,,,,,,,,,FF,,,,,,,,0.9148,,,,,,,,,,,,,,,,,,,,,,60fee7e8473d54816d17c7b7,61036de3cf576104d41a107d,2021-07-29_22h14.41.846,Simcolourproject_2stim_asymm_v5,2020.2.10,Linux aarch64,60,61025ae37ef11b136ea224fe,,,,,,,,,4091,104.7579956,47.45028687,1,0,0,response1disk,,6,15.54473877,-7.421112061,1,0,0,rectangle,15.54473877,-7.421112061,1,0,0,15.54473877,-7.421112061,1,0,0,0,152,152,17,1,,,,,,,,
,,,,,,,,,,,,,FF,,,,,,,,1.9006,,,,,,,,,,,,,,,,,,,,,,60fee7e8473d54816d17c7b7,61036de3cf576104d41a107d,2021-07-29_22h14.41.846,Simcolourproject_2stim_asymm_v5,2020.2.10,Linux aarch64,60,61025ae37ef11b136ea224fe,,,,,,,,,3584,-74.56964111,-43.40240479,1,0,0,response5disk,,2,6.983886719,-9.66998291,1,0,0,rectangle,6.983886719,-9.66998291,1,0,0,6.983886719,-9.66998291,1,0,0,0,153,153,98,1,,,,,,,,
,,,,,,,,,,,,,FF,,,,,,,,0.8999,,,,,,,,,,,,,,,,,,,,,,60fee7e8473d54816d17c7b7,61036de3cf576104d41a107d,2021-07-29_22h14.41.846,Simcolourproject_2stim_asymm_v5,2020.2.10,Linux aarch64,60,61025ae37ef11b136ea224fe,,,,,,,,,3345,54.29394531,-91.52728271,1,0,0,response3disk,,4,21.40216064,-6.971343994,1,0,0,rectangle,102.505188,33.95730591,1,0,0,13.74243164,-2.923431396,1,0,0,0,154,154,68,1,,response1disk_3,TRUE,6,6,"[241,8,123,100,78,97,163,254,155,189,263,247,135,299,167,249,36,191,288,224]",1.4332,rectangle
,,,,,,,,,,,,,FF,,,,,,,,1.0321,,,,,,,,,,,,,,,,,,,,,,60fee7e8473d54816d17c7b7,61036de3cf576104d41a107d,2021-07-29_22h14.41.846,Simcolourproject_2stim_asymm_v5,2020.2.10,Linux aarch64,60,61025ae37ef11b136ea224fe,,,,,,,,,1463,-83.13043213,-55.54605103,1,0,0,response5disk,,2,19.14935303,-4.722503662,1,0,0,rectangle,19.14935303,-4.722503662,1,0,0,19.14935303,-4.722503662,1,0,0,0,155,155,139,1,,,,,,,,
,,,,,,,,,,,,,FF,,,,,,,,1.368,,,,,,,,,,,,,,,,,,,,,,60fee7e8473d54816d17c7b7,61036de3cf576104d41a107d,2021-07-29_22h14.41.846,Simcolourproject_2stim_asymm_v5,2020.2.10,Linux aarch64,60,61025ae37ef11b136ea224fe,,,,,,,,,381,-32.66644287,-96.02496338,1,0,0,response5disk,,3,20.95159912,-6.521575928,1,0,0,rectangle,20.95159912,-6.521575928,1,0,0,20.95159912,-6.521575928,1,0,0,0,156,156,67,1,,,,,,,,
,,,,,,,,,,,,,FF,,,,,,,,1.6337,,,,,,,,,,,,,,,,,,,,,,60fee7e8473d54816d17c7b7,61036de3cf576104d41a107d,2021-07-29_22h14.41.846,Simcolourproject_2stim_asymm_v5,2020.2.10,Linux aarch64,60,61025ae37ef11b136ea224fe,,,,,,,,,601,116.9234619,52.3977356,1,0,0,response1disk,,6,22.75390625,-6.521575928,1,0,0,rectangle,22.75390625,-6.521575928,1,0,0,22.75390625,-6.521575928,1,0,0,0,157,157,135,1,,,,,,,,
,,,,,,,,,,,,,FF,,,,,,,,0.7162,,,,,,,,,,,,,,,,,,,,,,60fee7e8473d54816d17c7b7,61036de3cf576104d41a107d,2021-07-29_22h14.41.846,Simcolourproject_2stim_asymm_v5,2020.2.10,Linux aarch64,60,61025ae37ef11b136ea224fe,,,,,,,,,1292,-72.76739502,-42.05307007,1,0,0,response5disk,,2,12.39074707,-11.01925659,1,0,0,rectangle,12.39074707,-11.01925659,1,0,0,12.39074707,-11.01925659,1,0,0,0,158,158,48,1,,,,,,,,
,,,,,,,,,,,,,FF,,,,,,,,0.9995,,,,,,,,,,,,,,,,,,,,,,60fee7e8473d54816d17c7b7,61036de3cf576104d41a107d,2021-07-29_22h14.41.846,Simcolourproject_2stim_asymm_v5,2020.2.10,Linux aarch64,60,61025ae37ef11b136ea224fe,,,,,,,,,3224,97.54882813,-57.34512329,1,0,0,response3disk,,5,19.14935303,-3.822998047,1,0,0,rectangle,19.14935303,-3.822998047,1,0,0,19.14935303,-3.822998047,1,0,0,0,159,159,131,1,,,,,,,,
,,,,,,,,,,,,,FF,,,,,,,,0.9166,,,,,,,,,,,,,,,,,,,,,,60fee7e8473d54816d17c7b7,61036de3cf576104d41a107d,2021-07-29_22h14.41.846,Simcolourproject_2stim_asymm_v5,2020.2.10,Linux aarch64,60,61025ae37ef11b136ea224fe,,,,,,,,,614,-71.86627197,-47.90005493,1,0,0,response5disk,,2,-3.379272461,-15.51690674,1,0,0,rectangle,-3.379272461,-15.51690674,1,0,0,-3.379272461,-15.51690674,1,0,0,1,0,160,32,1,,,,,,,,
,,,,,,,,,,,,,FF,,,,,,,,0.7994,,,,,,,,,,,,,,,,,,,,,,60fee7e8473d54816d17c7b7,61036de3cf576104d41a107d,2021-07-29_22h14.41.846,Simcolourproject_2stim_asymm_v5,2020.2.10,Linux aarch64,60,61025ae37ef11b136ea224fe,,,,,,,,,2886,-29.96295166,79.83340454,1,0,0,response7disk,,0,-18.69873047,-6.521575928,1,0,0,rectangle,-18.69873047,-6.521575928,1,0,0,-18.69873047,-6.521575928,1,0,0,1,1,161,62,1,,,,,,,,
,,,,,,,,,,,,,FF,,,,,,,,1.1323,,,,,,,,,,,,,,,,,,,,,,60fee7e8473d54816d17c7b7,61036de3cf576104d41a107d,2021-07-29_22h14.41.846,Simcolourproject_2stim_asymm_v5,2020.2.10,Linux aarch64,60,61025ae37ef11b136ea224fe,,,,,,,,,2470,85.38342285,-55.09628296,1,0,0,response3disk,,5,6.082702637,-11.01925659,1,0,0,rectangle,39.87567139,69.48880005,1,0,0,-9.687316895,-10.11972046,1,0,0,1,2,162,10,1,,response1disk_3,TRUE,7,7,"[241,8,123,100,78,97,163,254,155,189,263,247,135,299,167,249,36,191,288,224]",1.1655,rectangle
,,,,,,,,,,,,,FF,,,,,,,,1.4159,,,,,,,,,,,,,,,,,,,,,,60fee7e8473d54816d17c7b7,61036de3cf576104d41a107d,2021-07-29_22h14.41.846,Simcolourproject_2stim_asymm_v5,2020.2.10,Linux aarch64,60,61025ae37ef11b136ea224fe,,,,,,,,,867,-43.9307251,-88.37896729,1,0,0,response5disk,,3,4.280456543,-3.822998047,1,0,0,rectangle,4.280456543,-3.822998047,1,0,0,4.280456543,-3.822998047,1,0,0,1,3,163,110,1,,,,,,,,
,,,,,,,,,,,,,FF,,,,,,,,0.9165,,,,,,,,,,,,,,,,,,,,,,60fee7e8473d54816d17c7b7,61036de3cf576104d41a107d,2021-07-29_22h14.41.846,Simcolourproject_2stim_asymm_v5,2020.2.10,Linux aarch64,60,61025ae37ef11b136ea224fe,,,,,,,,,1702,97.54882813,62.29257202,1,0,0,response1disk,,6,11.48968506,-11.91879272,1,0,0,rectangle,11.48968506,-11.91879272,1,0,0,11.48968506,-11.91879272,1,0,0,1,4,164,79,1,,,,,,,,
,,,,,,,,,,,,,FF,,,,,,,,1.6665,,,,,,,,,,,,,,,,,,,,,,60fee7e8473d54816d17c7b7,61036de3cf576104d41a107d,2021-07-29_22h14.41.846,Simcolourproject_2stim_asymm_v5,2020.2.10,Linux aarch64,60,61025ae37ef11b136ea224fe,,,,,,,,,3311,61.95361328,82.53201294,1,0,0,response1disk,,7,8.335632324,-8.77041626,1,0,0,rectangle,8.335632324,-8.77041626,1,0,0,8.335632324,-8.77041626,1,0,0,1,5,165,129,1,,,,,,,,
,,,,,,,,,,,,,FF,,,,,,,,0.8824,,,,,,,,,,,,,,,,,,,,,,60fee7e8473d54816d17c7b7,61036de3cf576104d41a107d,2021-07-29_22h14.41.846,Simcolourproject_2stim_asymm_v5,2020.2.10,Linux aarch64,60,61025ae37ef11b136ea224fe,,,,,,,,,2057,107.4614258,49.6991272,1,0,0,response1disk,,6,14.1930542,-6.071838379,1,0,0,rectangle,45.2824707,-96.02496338,1,0,0,15.54473877,-11.01925659,1,0,0,1,6,166,9,1,,response3disk_3,TRUE,4,4,"[241,8,123,100,78,97,163,254,155,189,263,247,135,299,167,249,36,191,288,224]",1.8323,rectangle
,,,,,,,,,,,,,FF,,,,,,,,0.9492,,,,,,,,,,,,,,,,,,,,,,60fee7e8473d54816d17c7b7,61036de3cf576104d41a107d,2021-07-29_22h14.41.846,Simcolourproject_2stim_asymm_v5,2020.2.10,Linux aarch64,60,61025ae37ef11b136ea224fe,,,,,,,,,4325,110.6154175,34.85684204,1,0,0,response1disk,,6,17.34710693,-10.56948853,1,0,0,rectangle,17.34710693,-10.56948853,1,0,0,17.34710693,-10.56948853,1,0,0,1,7,167,67,1,,,,,,,,
,,,,,,,,,,,,,FF,,,,,,,,0.5994,,,,,,,,,,,,,,,,,,,,,,60fee7e8473d54816d17c7b7,61036de3cf576104d41a107d,2021-07-29_22h14.41.846,Simcolourproject_2stim_asymm_v5,2020.2.10,Linux aarch64,60,61025ae37ef11b136ea224fe,,,,,,,,,3534,56.99737549,94.22592163,1,0,0,response1disk,,7,19.59991455,8.320709229,1,0,0,rectangle,19.59991455,8.320709229,1,0,0,19.59991455,8.320709229,1,0,0,1,8,168,140,1,,,,,,,,
,,,,,,,,,,,,,FF,,,,,,,,1.5164,,,,,,,,,,,,,,,,,,,,,,60fee7e8473d54816d17c7b7,61036de3cf576104d41a107d,2021-07-29_22h14.41.846,Simcolourproject_2stim_asymm_v5,2020.2.10,Linux aarch64,60,61025ae37ef11b136ea224fe,,,,,,,,,295,79.07537842,-55.09628296,1,0,0,response3disk,,5,1.126403809,-9.220184326,1,0,0,rectangle,1.126403809,-9.220184326,1,0,0,1.126403809,-9.220184326,1,0,0,1,9,169,33,1,,,,,,,,
,,,,,,,,,,,,,FF,,,,,,,,0.9002,,,,,,,,,,,,,,,,,,,,,,60fee7e8473d54816d17c7b7,61036de3cf576104d41a107d,2021-07-29_22h14.41.846,Simcolourproject_2stim_asymm_v5,2020.2.10,Linux aarch64,60,61025ae37ef11b136ea224fe,,,,,,,,,3366,93.9442749,-33.50753784,1,0,0,response3disk,,5,14.64361572,-6.971343994,1,0,0,rectangle,14.64361572,-6.971343994,1,0,0,14.64361572,-6.971343994,1,0,0,1,10,170,78,1,,,,,,,,
,,,,,,,,,,,,,FF,,,,,,,,1.15,,,,,,,,,,,,,,,,,,,,,,60fee7e8473d54816d17c7b7,61036de3cf576104d41a107d,2021-07-29_22h14.41.846,Simcolourproject_2stim_asymm_v5,2020.2.10,Linux aarch64,60,61025ae37ef11b136ea224fe,,,,,,,,,2316,38.97454834,-101.4221802,1,0,0,response3disk,,4,10.13787842,-6.071838379,1,0,0,rectangle,10.13787842,-6.071838379,1,0,0,10.13787842,-6.071838379,1,0,0,1,11,171,69,1,,,,,,,,
,,,,,,,,,,,,,FF,,,,,,,,1.4164,,,,,,,,,,,,,,,,,,,,,,60fee7e8473d54816d17c7b7,61036de3cf576104d41a107d,2021-07-29_22h14.41.846,Simcolourproject_2stim_asymm_v5,2020.2.10,Linux aarch64,60,61025ae37ef11b136ea224fe,,,,,,,,,681,119.1762695,51.49819946,1,0,0,response1disk,,6,29.06195068,2.473724365,1,0,0,rectangle,29.06195068,2.473724365,1,0,0,29.06195068,2.473724365,1,0,0,1,12,172,84,1,,,,,,,,
,,,,,,,,,,,,,FF,,,,,,,,1.5158,,,,,,,,,,,,,,,,,,,,,,60fee7e8473d54816d17c7b7,61036de3cf576104d41a107d,2021-07-29_22h14.41.846,Simcolourproject_2stim_asymm_v5,2020.2.10,Linux aarch64,60,61025ae37ef11b136ea224fe,,,,,,,,,2035,-43.02960205,-80.28314209,1,0,0,response5disk,,3,7.434509277,-3.373260498,1,0,0,rectangle,7.434509277,-3.373260498,1,0,0,7.434509277,-3.373260498,1,0,0,1,13,173,158,1,,,,,,,,
,,,,,,,,,,,,,FF,,,,,,,,0.6327,,,,,,,,,,,,,,,,,,,,,,60fee7e8473d54816d17c7b7,61036de3cf576104d41a107d,2021-07-29_22h14.41.846,Simcolourproject_2stim_asymm_v5,2020.2.10,Linux aarch64,60,61025ae37ef11b136ea224fe,,,,,,,,,4366,-26.809021,81.18273926,1,0,0,response7disk,,0,3.82989502,-9.66998291,1,0,0,rectangle,3.82989502,-9.66998291,1,0,0,3.82989502,-9.66998291,1,0,0,1,14,174,44,1,,,,,,,,
,,,,,,,,,,,,,FF,,,,,,,,0.8847,,,,,,,,,,,,,,,,,,,,,,60fee7e8473d54816d17c7b7,61036de3cf576104d41a107d,2021-07-29_22h14.41.846,Simcolourproject_2stim_asymm_v5,2020.2.10,Linux aarch64,60,61025ae37ef11b136ea224fe,,,,,,,,,4295,-65.5581665,30.35916138,1,0,0,response7disk,,1,-18.24810791,-8.77041626,1,0,0,rectangle,-18.24810791,-8.77041626,1,0,0,-18.24810791,-8.77041626,1,0,0,1,15,175,128,1,,,,,,,,
,,,,,,,,,,,,,FF,,,,,,,,0.8832,,,,,,,,,,,,,,,,,,,,,,60fee7e8473d54816d17c7b7,61036de3cf576104d41a107d,2021-07-29_22h14.41.846,Simcolourproject_2stim_asymm_v5,2020.2.10,Linux aarch64,60,61025ae37ef11b136ea224fe,,,,,,,,,2231,-75.47076416,31.25872803,1,0,0,response7disk,,1,2.928710938,-7.421112061,1,0,0,rectangle,2.928710938,-7.421112061,1,0,0,2.928710938,-7.421112061,1,0,0,1,16,176,29,1,,,,,,,,
,,,,,,,,,,,,,FF,,,,,,,,0.7825,,,,,,,,,,,,,,,,,,,,,,60fee7e8473d54816d17c7b7,61036de3cf576104d41a107d,2021-07-29_22h14.41.846,Simcolourproject_2stim_asymm_v5,2020.2.10,Linux aarch64,60,61025ae37ef11b136ea224fe,,,,,,,,,1293,-67.81109619,33.95730591,1,0,0,response7disk,,1,10.13787842,-8.320648193,1,0,0,rectangle,10.13787842,-8.320648193,1,0,0,10.13787842,-8.320648193,1,0,0,1,17,177,71,1,,,,,,,,
,,,,,,,,,,,,,FF,,,,,,,,1.5002,,,,,,,,,,,,,,,,,,,,,,60fee7e8473d54816d17c7b7,61036de3cf576104d41a107d,2021-07-29_22h14.41.846,Simcolourproject_2stim_asymm_v5,2020.2.10,Linux aarch64,60,61025ae37ef11b136ea224fe,,,,,,,,,2591,-43.02960205,-96.92449951,1,0,0,response5disk,,3,8.786132813,6.071868896,1,0,0,rectangle,8.786132813,6.071868896,1,0,0,8.786132813,6.071868896,1,0,0,1,18,178,15,1,,,,,,,,
,,,,,,,,,,,,,FF,,,,,,,,0.7823,,,,,,,,,,,,,,,,,,,,,,60fee7e8473d54816d17c7b7,61036de3cf576104d41a107d,2021-07-29_22h14.41.846,Simcolourproject_2stim_asymm_v5,2020.2.10,Linux aarch64,60,61025ae37ef11b136ea224fe,,,,,,,,,3937,-93.49371338,26.31130981,1,0,0,response7disk,,1,5.18157959,-5.172271729,1,0,0,rectangle,5.18157959,-5.172271729,1,0,0,5.18157959,-5.172271729,1,0,0,1,19,179,23,1,,,,,,,,
,,,,,,,,,,,,,FF,,,,,,,,1.383,,,,,,,,,,,,,,,,,,,,,,60fee7e8473d54816d17c7b7,61036de3cf576104d41a107d,2021-07-29_22h14.41.846,Simcolourproject_2stim_asymm_v5,2020.2.10,Linux aarch64,60,61025ae37ef11b136ea224fe,,,,,,,,,2555,-36.27105713,-90.62786865,1,0,0,response5disk,,3,12.84130859,1.57421875,1,0,0,rectangle,12.84130859,1.57421875,1,0,0,12.84130859,1.57421875,1,0,0,1,20,180,152,1,,,,,,,,
,,,,,,,,,,,,,FF,,,,,,,,1.3337,,,,,,,,,,,,,,,,,,,,,,60fee7e8473d54816d17c7b7,61036de3cf576104d41a107d,2021-07-29_22h14.41.846,Simcolourproject_2stim_asymm_v5,2020.2.10,Linux aarch64,60,61025ae37ef11b136ea224fe,,,,,,,,,2763,96.19720459,-57.79489136,1,0,0,response3disk,,5,11.48968506,-0.674621582,1,0,0,rectangle,11.48968506,-0.674621582,1,0,0,11.48968506,-0.674621582,1,0,0,1,21,181,12,1,,,,,,,,
,,,,,,,,,,,,,FF,,,,,,,,0.8994,,,,,,,,,,,,,,,,,,,,,,60fee7e8473d54816d17c7b7,61036de3cf576104d41a107d,2021-07-29_22h14.41.846,Simcolourproject_2stim_asymm_v5,2020.2.10,Linux aarch64,60,61025ae37ef11b136ea224fe,,,,,,,,,4262,97.0982666,-48.349823,1,0,0,response3disk,,5,18.24816895,-5.622070313,1,0,0,rectangle,18.24816895,-5.622070313,1,0,0,18.24816895,-5.622070313,1,0,0,1,22,182,105,1,,,,,,,,
,,,,,,,,,,,,,FF,,,,,,,,0.9833,,,,,,,,,,,,,,,,,,,,,,60fee7e8473d54816d17c7b7,61036de3cf576104d41a107d,2021-07-29_22h14.41.846,Simcolourproject_2stim_asymm_v5,2020.2.10,Linux aarch64,60,61025ae37ef11b136ea224fe,,,,,,,,,1260,100.7028198,48.349823,1,0,0,response1disk,,6,10.58843994,-7.870910645,1,0,0,rectangle,10.58843994,-7.870910645,1,0,0,10.58843994,-7.870910645,1,0,0,1,23,183,107,1,,,,,,,,
,,,,,,,,,,,,,FF,,,,,,,,0.6996,,,,,,,,,,,,,,,,,,,,,,60fee7e8473d54816d17c7b7,61036de3cf576104d41a107d,2021-07-29_22h14.41.846,Simcolourproject_2stim_asymm_v5,2020.2.10,Linux aarch64,60,61025ae37ef11b136ea224fe,,,,,,,,,4132,85.38342285,35.30661011,1,0,0,response1disk,,6,-4.280334473,0.224884033,1,0,0,rectangle,-4.280334473,0.224884033,1,0,0,-4.280334473,0.224884033,1,0,0,1,24,184,49,1,,,,,,,,
,,,,,,,,,,,,,FF,,,,,,,,0.8669,,,,,,,,,,,,,,,,,,,,,,60fee7e8473d54816d17c7b7,61036de3cf576104d41a107d,2021-07-29_22h14.41.846,Simcolourproject_2stim_asymm_v5,2020.2.10,Linux aarch64,60,61025ae37ef11b136ea224fe,,,,,,,,,1223,-83.13043213,-49.6991272,1,0,0,response5disk,,2,-3.379272461,-10.56948853,1,0,0,rectangle,-3.379272461,-10.56948853,1,0,0,-3.379272461,-10.56948853,1,0,0,1,25,185,153,1,,,,,,,,
,,,,,,,,,,,,,FF,,,,,,,,0.6997,,,,,,,,,,,,,,,,,,,,,,60fee7e8473d54816d17c7b7,61036de3cf576104d41a107d,2021-07-29_22h14.41.846,Simcolourproject_2stim_asymm_v5,2020.2.10,Linux aarch64,60,61025ae37ef11b136ea224fe,,,,,,,,,2199,54.29394531,88.37893677,1,0,0,response1disk,,7,-3.379272461,-13.71783447,1,0,0,rectangle,-3.379272461,-13.71783447,1,0,0,-3.379272461,-13.71783447,1,0,0,1,26,186,100,1,,,,,,,,
,,,,,,,,,,,,,FF,,,,,,,,2.4841,,,,,,,,,,,,,,,,,,,,,,60fee7e8473d54816d17c7b7,61036de3cf576104d41a107d,2021-07-29_22h14.41.846,Simcolourproject_2stim_asymm_v5,2020.2.10,Linux aarch64,60,61025ae37ef11b136ea224fe,,,,,,,,,2225,37.17218018,90.62780762,1,0,0,response1disk,,7,-3.379272461,0.6746521,1,0,0,rectangle,-3.379272461,0.6746521,1,0,0,-3.379272461,0.6746521,1,0,0,1,27,187,101,1,,,,,,,,
,,,,,,,,,,,,,FF,,,,,,,,0.7661,,,,,,,,,,,,,,,,,,,,,,60fee7e8473d54816d17c7b7,61036de3cf576104d41a107d,2021-07-29_22h14.41.846,Simcolourproject_2stim_asymm_v5,2020.2.10,Linux aarch64,60,61025ae37ef11b136ea224fe,,,,,,,,,296,97.99945068,38.90475464,1,0,0,response1disk,,6,15.99530029,-13.26806641,1,0,0,rectangle,57.44793701,97.3742981,1,0,0,6.082702637,-11.46899414,1,0,0,1,28,188,40,1,,response1disk_3,TRUE,7,7,"[241,8,123,100,78,97,163,254,155,189,263,247,135,299,167,249,36,191,288,224]",1.3147,rectangle
,,,,,,,,,,,,,FF,,,,,,,,1.2168,,,,,,,,,,,,,,,,,,,,,,60fee7e8473d54816d17c7b7,61036de3cf576104d41a107d,2021-07-29_22h14.41.846,Simcolourproject_2stim_asymm_v5,2020.2.10,Linux aarch64,60,61025ae37ef11b136ea224fe,,,,,,,,,3064,-81.77880859,-50.14889526,1,0,0,response5disk,,2,-3.82989502,-6.521575928,1,0,0,rectangle,-3.82989502,-6.521575928,1,0,0,-3.82989502,-6.521575928,1,0,0,1,29,189,149,1,,,,,,,,
,,,,,,,,,,,,,FF,,,,,,,,1.0495,,,,,,,,,,,,,,,,,,,,,,60fee7e8473d54816d17c7b7,61036de3cf576104d41a107d,2021-07-29_22h14.41.846,Simcolourproject_2stim_asymm_v5,2020.2.10,Linux aarch64,60,61025ae37ef11b136ea224fe,,,,,,,,,2016,95.74658203,32.15823364,1,0,0,response1disk,,6,14.64361572,-15.96664429,1,0,0,rectangle,40.77679443,-107.7189331,1,0,0,14.64361572,-4.722503662,1,0,0,1,30,190,159,1,,response3disk_3,TRUE,4,4,"[241,8,123,100,78,97,163,254,155,189,263,247,135,299,167,249,36,191,288,224]",1.5,rectangle
,,,,,,,,,,,,,FF,,,,,,,,0.8837,,,,,,,,,,,,,,,,,,,,,,60fee7e8473d54816d17c7b7,61036de3cf576104d41a107d,2021-07-29_22h14.41.846,Simcolourproject_2stim_asymm_v5,2020.2.10,Linux aarch64,60,61025ae37ef11b136ea224fe,,,,,,,,,3832,108.8131714,32.60803223,1,0,0,response1disk,,6,30.86419678,-5.172271729,1,0,0,rectangle,30.86419678,-5.172271729,1,0,0,30.86419678,-5.172271729,1,0,0,1,31,191,11,1,,,,,,,,
,,,,,,,,,,,,,FF,,,,,,,,0.917,,,,,,,,,,,,,,,,,,,,,,60fee7e8473d54816d17c7b7,61036de3cf576104d41a107d,2021-07-29_22h14.41.846,Simcolourproject_2stim_asymm_v5,2020.2.10,Linux aarch64,60,61025ae37ef11b136ea224fe,,,,,,,,,3744,-80.42706299,-54.19677734,1,0,0,response5disk,,2,-1.126403809,-8.320648193,1,0,0,rectangle,-1.126403809,-8.320648193,1,0,0,-1.126403809,-8.320648193,1,0,0,1,32,192,13,1,,,,,,,,
,,,,,,,,,,,,,FF,,,,,,,,1.1167,,,,,,,,,,,,,,,,,,,,,,60fee7e8473d54816d17c7b7,61036de3cf576104d41a107d,2021-07-29_22h14.41.846,Simcolourproject_2stim_asymm_v5,2020.2.10,Linux aarch64,60,61025ae37ef11b136ea224fe,,,,,,,,,1529,-80.87768555,-46.55075073,1,0,0,response5disk,,2,-5.18157959,-5.622070313,1,0,0,rectangle,-5.18157959,-5.622070313,1,0,0,-5.18157959,-5.622070313,1,0,0,1,33,193,24,1,,,,,,,,
,,,,,,,,,,,,,FF,,,,,,,,0.9657,,,,,,,,,,,,,,,,,,,,,,60fee7e8473d54816d17c7b7,61036de3cf576104d41a107d,2021-07-29_22h14.41.846,Simcolourproject_2stim_asymm_v5,2020.2.10,Linux aarch64,60,61025ae37ef11b136ea224fe,,,,,,,,,1261,93.49365234,-54.19677734,1,0,0,response3disk,,5,11.03900146,-2.473693848,1,0,0,rectangle,11.03900146,-2.473693848,1,0,0,11.03900146,-2.473693848,1,0,0,1,34,194,93,1,,,,,,,,
,,,,,,,,,,,,,FF,,,,,,,,0.6831,,,,,,,,,,,,,,,,,,,,,,60fee7e8473d54816d17c7b7,61036de3cf576104d41a107d,2021-07-29_22h14.41.846,Simcolourproject_2stim_asymm_v5,2020.2.10,Linux aarch64,60,61025ae37ef11b136ea224fe,,,,,,,,,2228,-73.66851807,-46.10098267,1,0,0,response5disk,,2,4.280456543,-9.220184326,1,0,0,rectangle,4.280456543,-9.220184326,1,0,0,4.280456543,-9.220184326,1,0,0,1,35,195,91,1,,,,,,,,
,,,,,,,,,,,,,FF,,,,,,,,1.2166,,,,,,,,,,,,,,,,,,,,,,60fee7e8473d54816d17c7b7,61036de3cf576104d41a107d,2021-07-29_22h14.41.846,Simcolourproject_2stim_asymm_v5,2020.2.10,Linux aarch64,60,61025ae37ef11b136ea224fe,,,,,,,,,4255,-66.00878906,29.45965576,1,0,0,response7disk,,1,6.533325195,-10.56948853,1,0,0,rectangle,6.533325195,-10.56948853,1,0,0,6.533325195,-10.56948853,1,0,0,1,36,196,117,1,,,,,,,,
,,,,,,,,,,,,,FF,,,,,,,,0.8008,,,,,,,,,,,,,,,,,,,,,,60fee7e8473d54816d17c7b7,61036de3cf576104d41a107d,2021-07-29_22h14.41.846,Simcolourproject_2stim_asymm_v5,2020.2.10,Linux aarch64,60,61025ae37ef11b136ea224fe,,,,,,,,,850,97.99945068,48.79959106,1,0,0,response1disk,,6,6.983886719,-4.722503662,1,0,0,rectangle,6.983886719,-4.722503662,1,0,0,6.983886719,-4.722503662,1,0,0,1,37,197,130,1,,,,,,,,
,,,,,,,,,,,,,FF,,,,,,,,1.2987,,,,,,,,,,,,,,,,,,,,,,60fee7e8473d54816d17c7b7,61036de3cf576104d41a107d,2021-07-29_22h14.41.846,Simcolourproject_2stim_asymm_v5,2020.2.10,Linux aarch64,60,61025ae37ef11b136ea224fe,,,,,,,,,4078,-87.6362915,-64.54135132,1,0,0,response5disk,,2,-0.225280762,-8.77041626,1,0,0,rectangle,-0.225280762,-8.77041626,1,0,0,-0.225280762,-8.77041626,1,0,0,1,38,198,2,1,,,,,,,,
,,,,,,,,,,,,,FF,,,,,,,,0.6988,,,,,,,,,,,,,,,,,,,,,,60fee7e8473d54816d17c7b7,61036de3cf576104d41a107d,2021-07-29_22h14.41.846,Simcolourproject_2stim_asymm_v5,2020.2.10,Linux aarch64,60,61025ae37ef11b136ea224fe,,,,,,,,,630,-30.86419678,78.48413086,1,0,0,response7disk,,0,-11.03900146,-0.224853516,1,0,0,rectangle,-11.03900146,-0.224853516,1,0,0,-11.03900146,-0.224853516,1,0,0,1,39,199,83,1,,,,,,,,
,,,,,,,,,,,,,FF,,,,,,,,1.7502,,,,,,,,,,,,,,,,,,,,,,60fee7e8473d54816d17c7b7,61036de3cf576104d41a107d,2021-07-29_22h14.41.846,Simcolourproject_2stim_asymm_v5,2020.2.10,Linux aarch64,60,61025ae37ef11b136ea224fe,,,,,,,,,608,-75.02026367,-53.29721069,1,0,0,response5disk,,2,-5.632141113,-14.16763306,1,0,0,rectangle,-5.632141113,-14.16763306,1,0,0,-5.632141113,-14.16763306,1,0,0,1,40,200,132,1,,,,,,,,
,,,,,,,,,,,,,FF,,,,,,,,1.7168,,,,,,,,,,,,,,,,,,,,,,60fee7e8473d54816d17c7b7,61036de3cf576104d41a107d,2021-07-29_22h14.41.846,Simcolourproject_2stim_asymm_v5,2020.2.10,Linux aarch64,60,61025ae37ef11b136ea224fe,,,,,,,,,879,-32.21588135,-87.47943115,1,0,0,response5disk,,3,6.082702637,-10.56948853,1,0,0,rectangle,6.082702637,-10.56948853,1,0,0,6.082702637,-10.56948853,1,0,0,1,41,201,120,1,,,,,,,,
,,,,,,,,,,,,,FF,,,,,,,,0.8824,,,,,,,,,,,,,,,,,,,,,,60fee7e8473d54816d17c7b7,61036de3cf576104d41a107d,2021-07-29_22h14.41.846,Simcolourproject_2stim_asymm_v5,2020.2.10,Linux aarch64,60,61025ae37ef11b136ea224fe,,,,,,,,,1391,-38.97442627,-83.88128662,1,0,0,response5disk,,3,-8.786132813,0.224884033,1,0,0,rectangle,-8.786132813,0.224884033,1,0,0,-8.786132813,0.224884033,1,0,0,1,42,202,125,1,,,,,,,,
,,,,,,,,,,,,,FF,,,,,,,,0.7986,,,,,,,,,,,,,,,,,,,,,,60fee7e8473d54816d17c7b7,61036de3cf576104d41a107d,2021-07-29_22h14.41.846,Simcolourproject_2stim_asymm_v5,2020.2.10,Linux aarch64,60,61025ae37ef11b136ea224fe,,,,,,,,,461,-46.63421631,-77.58456421,1,0,0,response5disk,,3,3.379333496,-3.822998047,1,0,0,rectangle,3.379333496,-3.822998047,1,0,0,3.379333496,-3.822998047,1,0,0,1,43,203,92,1,,,,,,,,
,,,,,,,,,,,,,FF,,,,,,,,0.9164,,,,,,,,,,,,,,,,,,,,,,60fee7e8473d54816d17c7b7,61036de3cf576104d41a107d,2021-07-29_22h14.41.846,Simcolourproject_2stim_asymm_v5,2020.2.10,Linux aarch64,60,61025ae37ef11b136ea224fe,,,,,,,,,3010,109.2636719,-54.64654541,1,0,0,response3disk,,5,10.58843994,-8.77041626,1,0,0,rectangle,10.58843994,-8.77041626,1,0,0,10.58843994,-8.77041626,1,0,0,1,44,204,146,1,,,,,,,,
,,,,,,,,,,,,,FF,,,,,,,,0.9166,,,,,,,,,,,,,,,,,,,,,,60fee7e8473d54816d17c7b7,61036de3cf576104d41a107d,2021-07-29_22h14.41.846,Simcolourproject_2stim_asymm_v5,2020.2.10,Linux aarch64,60,61025ae37ef11b136ea224fe,,,,,,,,,183,73.21795654,99.62307739,1,0,0,response1disk,,7,8.335632324,-2.473693848,1,0,0,rectangle,8.335632324,-2.473693848,1,0,0,8.335632324,-2.473693848,1,0,0,1,45,205,77,1,,,,,,,,
,,,,,,,,,,,,,FF,,,,,,,,0.5671,,,,,,,,,,,,,,,,,,,,,,60fee7e8473d54816d17c7b7,61036de3cf576104d41a107d,2021-07-29_22h14.41.846,Simcolourproject_2stim_asymm_v5,2020.2.10,Linux aarch64,60,61025ae37ef11b136ea224fe,,,,,,,,,1009,43.48016357,85.23062134,1,0,0,response1disk,,7,-8.786132813,-2.923431396,1,0,0,rectangle,-8.786132813,-2.923431396,1,0,0,-8.786132813,-2.923431396,1,0,0,1,46,206,88,1,,,,,,,,
,,,,,,,,,,,,,FF,,,,,,,,0.6998,,,,,,,,,,,,,,,,,,,,,,60fee7e8473d54816d17c7b7,61036de3cf576104d41a107d,2021-07-29_22h14.41.846,Simcolourproject_2stim_asymm_v5,2020.2.10,Linux aarch64,60,61025ae37ef11b136ea224fe,,,,,,,,,2447,91.69140625,49.24935913,1,0,0,response1disk,,6,1.577087402,-13.71783447,1,0,0,rectangle,1.577087402,-13.71783447,1,0,0,1.577087402,-13.71783447,1,0,0,1,47,207,50,1,,,,,,,,
,,,,,,,,,,,,,FF,,,,,,,,1.006,,,,,,,,,,,,,,,,,,,,,,60fee7e8473d54816d17c7b7,61036de3cf576104d41a107d,2021-07-29_22h14.41.846,Simcolourproject_2stim_asymm_v5,2020.2.10,Linux aarch64,60,61025ae37ef11b136ea224fe,,,,,,,,,4098,-49.33764648,-94.22601318,1,0,0,response5disk,,3,11.03900146,10.11972046,1,0,0,rectangle,11.03900146,10.11972046,1,0,0,11.03900146,10.11972046,1,0,0,1,48,208,65,1,,,,,,,,
,,,,,,,,,,,,,FF,,,,,,,,1.1827,,,,,,,,,,,,,,,,,,,,,,60fee7e8473d54816d17c7b7,61036de3cf576104d41a107d,2021-07-29_22h14.41.846,Simcolourproject_2stim_asymm_v5,2020.2.10,Linux aarch64,60,61025ae37ef11b136ea224fe,,,,,,,,,1305,-82.22937012,-41.60333252,1,0,0,response5disk,,2,-2.478088379,1.57421875,1,0,0,rectangle,-2.478088379,1.57421875,1,0,0,-2.478088379,1.57421875,1,0,0,1,49,209,108,1,,,,,,,,
,,,,,,,,,,,,,FF,,,,,,,,0.7308,,,,,,,,,,,,,,,,,,,,,,60fee7e8473d54816d17c7b7,61036de3cf576104d41a107d,2021-07-29_22h14.41.846,Simcolourproject_2stim_asymm_v5,2020.2.10,Linux aarch64,60,61025ae37ef11b136ea224fe,,,,,,,,,3237,-75.92138672,-43.85214233,1,0,0,response5disk,,2,-4.731018066,-8.320648193,1,0,0,rectangle,-4.731018066,-8.320648193,1,0,0,-4.731018066,-8.320648193,1,0,0,1,50,210,118,1,,,,,,,,
,,,,,,,,,,,,,FF,,,,,,,,1.3826,,,,,,,,,,,,,,,,,,,,,,60fee7e8473d54816d17c7b7,61036de3cf576104d41a107d,2021-07-29_22h14.41.846,Simcolourproject_2stim_asymm_v5,2020.2.10,Linux aarch64,60,61025ae37ef11b136ea224fe,,,,,,,,,1738,43.02972412,78.93386841,1,0,0,response1disk,,7,4.731018066,-10.56948853,1,0,0,rectangle,4.731018066,-10.56948853,1,0,0,4.731018066,-10.56948853,1,0,0,1,51,211,38,1,,,,,,,,
,,,,,,,,,,,,,FF,,,,,,,,2.6181,,,,,,,,,,,,,,,,,,,,,,60fee7e8473d54816d17c7b7,61036de3cf576104d41a107d,2021-07-29_22h14.41.846,Simcolourproject_2stim_asymm_v5,2020.2.10,Linux aarch64,60,61025ae37ef11b136ea224fe,,,,,,,,,4003,-45.73297119,-118.0634766,1,0,0,response5disk,,3,4.280456543,-2.023925781,1,0,0,rectangle,4.280456543,-2.023925781,1,0,0,4.280456543,-2.023925781,1,0,0,1,52,212,95,1,,,,,,,,
,,,,,,,,,,,,,FF,,,,,,,,0.8672,,,,,,,,,,,,,,,,,,,,,,60fee7e8473d54816d17c7b7,61036de3cf576104d41a107d,2021-07-29_22h14.41.846,Simcolourproject_2stim_asymm_v5,2020.2.10,Linux aarch64,60,61025ae37ef11b136ea224fe,,,,,,,,,3046,-66.90997314,26.31130981,1,0,0,response7disk,,1,22.75390625,0.224884033,1,0,0,rectangle,22.75390625,0.224884033,1,0,0,22.75390625,0.224884033,1,0,0,1,53,213,90,1,,,,,,,,
,,,,,,,,,,,,,FF,,,,,,,,1.532,,,,,,,,,,,,,,,,,,,,,,60fee7e8473d54816d17c7b7,61036de3cf576104d41a107d,2021-07-29_22h14.41.846,Simcolourproject_2stim_asymm_v5,2020.2.10,Linux aarch64,60,61025ae37ef11b136ea224fe,,,,,,,,,3172,96.19720459,-60.04370117,1,0,0,response3disk,,5,7.434509277,-13.26806641,1,0,0,rectangle,7.434509277,-13.26806641,1,0,0,7.434509277,-13.26806641,1,0,0,1,54,214,151,1,,,,,,,,
,,,,,,,,,,,,,FF,,,,,,,,0.6987,,,,,,,,,,,,,,,,,,,,,,60fee7e8473d54816d17c7b7,61036de3cf576104d41a107d,2021-07-29_22h14.41.846,Simcolourproject_2stim_asymm_v5,2020.2.10,Linux aarch64,60,61025ae37ef11b136ea224fe,,,,,,,,,1669,59.70080566,78.03436279,1,0,0,response1disk,,7,17.34710693,-12.36856079,1,0,0,rectangle,17.34710693,-12.36856079,1,0,0,17.34710693,-12.36856079,1,0,0,1,55,215,148,1,,,,,,,,
,,,,,,,,,,,,,FF,,,,,,,,0.6328,,,,,,,,,,,,,,,,,,,,,,60fee7e8473d54816d17c7b7,61036de3cf576104d41a107d,2021-07-29_22h14.41.846,Simcolourproject_2stim_asymm_v5,2020.2.10,Linux aarch64,60,61025ae37ef11b136ea224fe,,,,,,,,,1739,51.13995361,75.78555298,1,0,0,response1disk,,7,24.55615234,-2.473693848,1,0,0,rectangle,24.55615234,-2.473693848,1,0,0,24.55615234,-2.473693848,1,0,0,1,56,216,122,1,,,,,,,,
,,,,,,,,,,,,,FF,,,,,,,,0.6329,,,,,,,,,,,,,,,,,,,,,,60fee7e8473d54816d17c7b7,61036de3cf576104d41a107d,2021-07-29_22h14.41.846,Simcolourproject_2stim_asymm_v5,2020.2.10,Linux aarch64,60,61025ae37ef11b136ea224fe,,,,,,,,,716,-21.40216064,71.73764038,1,0,0,response7disk,,0,6.082702637,-9.220184326,1,0,0,rectangle,6.082702637,-9.220184326,1,0,0,6.082702637,-9.220184326,1,0,0,1,57,217,144,1,,,,,,,,
,,,,,,,,,,,,,FF,,,,,,,,0.6497,,,,,,,,,,,,,,,,,,,,,,60fee7e8473d54816d17c7b7,61036de3cf576104d41a107d,2021-07-29_22h14.41.846,Simcolourproject_2stim_asymm_v5,2020.2.10,Linux aarch64,60,61025ae37ef11b136ea224fe,,,,,,,,,3743,-78.62481689,33.50756836,1,0,0,response7disk,,1,9.687316895,-14.61740112,1,0,0,rectangle,9.687316895,-14.61740112,1,0,0,9.687316895,-14.61740112,1,0,0,1,58,218,6,1,,,,,,,,
,,,,,,,,,,,,,FF,,,,,,,,0.7164,,,,,,,,,,,,,,,,,,,,,,60fee7e8473d54816d17c7b7,61036de3cf576104d41a107d,2021-07-29_22h14.41.846,Simcolourproject_2stim_asymm_v5,2020.2.10,Linux aarch64,60,61025ae37ef11b136ea224fe,,,,,,,,,3017,117.3740234,48.349823,1,0,0,response1disk,,6,17.34710693,-9.66998291,1,0,0,rectangle,17.34710693,-9.66998291,1,0,0,17.34710693,-9.66998291,1,0,0,1,59,219,86,1,,,,,,,,
,,,,,,,,,,,,,FF,,,,,,,,0.6827,,,,,,,,,,,,,,,,,,,,,,60fee7e8473d54816d17c7b7,61036de3cf576104d41a107d,2021-07-29_22h14.41.846,Simcolourproject_2stim_asymm_v5,2020.2.10,Linux aarch64,60,61025ae37ef11b136ea224fe,,,,,,,,,2480,-28.16070557,65.89065552,1,0,0,response7disk,,0,8.786132813,-9.66998291,1,0,0,rectangle,8.786132813,-9.66998291,1,0,0,8.786132813,-9.66998291,1,0,0,1,60,220,17,1,,,,,,,,
,,,,,,,,,,,,,FF,,,,,,,,1.7692,,,,,,,,,,,,,,,,,,,,,,60fee7e8473d54816d17c7b7,61036de3cf576104d41a107d,2021-07-29_22h14.41.846,Simcolourproject_2stim_asymm_v5,2020.2.10,Linux aarch64,60,61025ae37ef11b136ea224fe,,,,,,,,,2212,101.1534424,41.603302,1,0,0,response1disk,,6,17.79760742,-2.923431396,1,0,0,rectangle,17.79760742,-2.923431396,1,0,0,17.79760742,-2.923431396,1,0,0,1,61,221,8,1,,,,,,,,
,,,,,,,,,,,,,FF,,,,,,,,1.333,,,,,,,,,,,,,,,,,,,,,,60fee7e8473d54816d17c7b7,61036de3cf576104d41a107d,2021-07-29_22h14.41.846,Simcolourproject_2stim_asymm_v5,2020.2.10,Linux aarch64,60,61025ae37ef11b136ea224fe,,,,,,,,,4250,94.84539795,-44.3019104,1,0,0,response3disk,,5,14.1930542,-6.521575928,1,0,0,rectangle,14.1930542,-6.521575928,1,0,0,14.1930542,-6.521575928,1,0,0,1,62,222,89,1,,,,,,,,
,,,,,,,,,,,,,FF,,,,,,,,1.8504,,,,,,,,,,,,,,,,,,,,,,60fee7e8473d54816d17c7b7,61036de3cf576104d41a107d,2021-07-29_22h14.41.846,Simcolourproject_2stim_asymm_v5,2020.2.10,Linux aarch64,60,61025ae37ef11b136ea224fe,,,,,,,,,2530,97.99945068,-49.24932861,1,0,0,response3disk,,5,10.58843994,2.473724365,1,0,0,rectangle,-79.97650146,-53.29721069,1,0,0,10.13787842,-6.971343994,1,0,0,1,63,223,96,1,,response5disk_3,TRUE,2,2,"[241,8,123,100,78,97,163,254,155,189,263,247,135,299,167,249,36,191,288,224]",1.4349,rectangle
,,,,,,,,,,,,,FF,,,,,,,,1.2991,,,,,,,,,,,,,,,,,,,,,,60fee7e8473d54816d17c7b7,61036de3cf576104d41a107d,2021-07-29_22h14.41.846,Simcolourproject_2stim_asymm_v5,2020.2.10,Linux aarch64,60,61025ae37ef11b136ea224fe,,,,,,,,,2931,50.23876953,99.62307739,1,0,0,response1disk,,7,-1.126403809,-15.96664429,1,0,0,rectangle,-1.126403809,-15.96664429,1,0,0,-1.126403809,-15.96664429,1,0,0,1,64,224,30,1,,,,,,,,
,,,,,,,,,,,,,FF,,,,,,,,0.9835,,,,,,,,,,,,,,,,,,,,,,60fee7e8473d54816d17c7b7,61036de3cf576104d41a107d,2021-07-29_22h14.41.846,Simcolourproject_2stim_asymm_v5,2020.2.10,Linux aarch64,60,61025ae37ef11b136ea224fe,,,,,,,,,2568,118.725708,-57.34512329,1,0,0,response3disk,,5,15.99530029,0.6746521,1,0,0,rectangle,15.99530029,0.6746521,1,0,0,15.99530029,0.6746521,1,0,0,1,65,225,66,1,,,,,,,,
,,,,,,,,,,,,,FF,,,,,,,,0.8504,,,,,,,,,,,,,,,,,,,,,,60fee7e8473d54816d17c7b7,61036de3cf576104d41a107d,2021-07-29_22h14.41.846,Simcolourproject_2stim_asymm_v5,2020.2.10,Linux aarch64,60,61025ae37ef11b136ea224fe,,,,,,,,,613,-72.31677246,-43.85214233,1,0,0,response5disk,,2,17.34710693,-1.574188232,1,0,0,rectangle,17.34710693,-1.574188232,1,0,0,17.34710693,-1.574188232,1,0,0,1,66,226,137,1,,,,,,,,
,,,,,,,,,,,,,FF,,,,,,,,1.0332,,,,,,,,,,,,,,,,,,,,,,60fee7e8473d54816d17c7b7,61036de3cf576104d41a107d,2021-07-29_22h14.41.846,Simcolourproject_2stim_asymm_v5,2020.2.10,Linux aarch64,60,61025ae37ef11b136ea224fe,,,,,,,,,149,111.5166016,47.0005188,1,0,0,response1disk,,6,34.01818848,-3.373260498,1,0,0,rectangle,34.01818848,-3.373260498,1,0,0,34.01818848,-3.373260498,1,0,0,1,67,227,27,1,,,,,,,,
,,,,,,,,,,,,,FF,,,,,,,,1.3671,,,,,,,,,,,,,,,,,,,,,,60fee7e8473d54816d17c7b7,61036de3cf576104d41a107d,2021-07-29_22h14.41.846,Simcolourproject_2stim_asymm_v5,2020.2.10,Linux aarch64,60,61025ae37ef11b136ea224fe,,,,,,,,,363,92.59259033,-48.349823,1,0,0,response3disk,,5,14.64361572,-4.722503662,1,0,0,rectangle,14.64361572,-4.722503662,1,0,0,14.64361572,-4.722503662,1,0,0,1,68,228,75,1,,,,,,,,
,,,,,,,,,,,,,FF,,,,,,,,1.4323,,,,,,,,,,,,,,,,,,,,,,60fee7e8473d54816d17c7b7,61036de3cf576104d41a107d,2021-07-29_22h14.41.846,Simcolourproject_2stim_asymm_v5,2020.2.10,Linux aarch64,60,61025ae37ef11b136ea224fe,,,,,,,,,2681,49.33764648,-114.4653931,1,0,0,response3disk,,4,21.85272217,6.071868896,1,0,0,rectangle,21.85272217,6.071868896,1,0,0,21.85272217,6.071868896,1,0,0,1,69,229,127,1,,,,,,,,
,,,,,,,,,,,,,FF,,,,,,,,1.0675,,,,,,,,,,,,,,,,,,,,,,60fee7e8473d54816d17c7b7,61036de3cf576104d41a107d,2021-07-29_22h14.41.846,Simcolourproject_2stim_asymm_v5,2020.2.10,Linux aarch64,60,61025ae37ef11b136ea224fe,,,,,,,,,3091,45.2824707,-101.4221802,1,0,0,response3disk,,4,15.09417725,-5.622070313,1,0,0,rectangle,15.09417725,-5.622070313,1,0,0,15.09417725,-5.622070313,1,0,0,1,70,230,37,1,,,,,,,,
,,,,,,,,,,,,,FF,,,,,,,,0.7489,,,,,,,,,,,,,,,,,,,,,,60fee7e8473d54816d17c7b7,61036de3cf576104d41a107d,2021-07-29_22h14.41.846,Simcolourproject_2stim_asymm_v5,2020.2.10,Linux aarch64,60,61025ae37ef11b136ea224fe,,,,,,,,,1094,93.49365234,46.55078125,1,0,0,response1disk,,6,19.59991455,-10.11972046,1,0,0,rectangle,19.59991455,-10.11972046,1,0,0,19.59991455,-10.11972046,1,0,0,1,71,231,124,1,,,,,,,,
,,,,,,,,,,,,,FF,,,,,,,,0.7494,,,,,,,,,,,,,,,,,,,,,,60fee7e8473d54816d17c7b7,61036de3cf576104d41a107d,2021-07-29_22h14.41.846,Simcolourproject_2stim_asymm_v5,2020.2.10,Linux aarch64,60,61025ae37ef11b136ea224fe,,,,,,,,,4227,62.85479736,104.5705566,1,0,0,response1disk,,7,9.687316895,-9.220184326,1,0,0,rectangle,9.687316895,-9.220184326,1,0,0,9.687316895,-9.220184326,1,0,0,1,72,232,74,1,,,,,,,,
,,,,,,,,,,,,,FF,,,,,,,,0.9801,,,,,,,,,,,,,,,,,,,,,,60fee7e8473d54816d17c7b7,61036de3cf576104d41a107d,2021-07-29_22h14.41.846,Simcolourproject_2stim_asymm_v5,2020.2.10,Linux aarch64,60,61025ae37ef11b136ea224fe,,,,,,,,,3118,116.0222778,57.79492188,1,0,0,response1disk,,6,18.24816895,-3.373260498,1,0,0,rectangle,18.24816895,-3.373260498,1,0,0,18.24816895,-3.373260498,1,0,0,1,73,233,3,1,,,,,,,,
,,,,,,,,,,,,,FF,,,,,,,,0.8139,,,,,,,,,,,,,,,,,,,,,,60fee7e8473d54816d17c7b7,61036de3cf576104d41a107d,2021-07-29_22h14.41.846,Simcolourproject_2stim_asymm_v5,2020.2.10,Linux aarch64,60,61025ae37ef11b136ea224fe,,,,,,,,,1793,98.90057373,-46.55075073,1,0,0,response3disk,,5,15.54473877,-2.923431396,1,0,0,rectangle,15.54473877,-2.923431396,1,0,0,15.54473877,-2.923431396,1,0,0,1,74,234,113,1,,,,,,,,
,,,,,,,,,,,,,FF,,,,,,,,1.4501,,,,,,,,,,,,,,,,,,,,,,60fee7e8473d54816d17c7b7,61036de3cf576104d41a107d,2021-07-29_22h14.41.846,Simcolourproject_2stim_asymm_v5,2020.2.10,Linux aarch64,60,61025ae37ef11b136ea224fe,,,,,,,,,3376,-39.87554932,-93.77612305,1,0,0,response5disk,,3,21.85272217,1.124420166,1,0,0,rectangle,21.85272217,1.124420166,1,0,0,21.85272217,1.124420166,1,0,0,1,75,235,126,1,,,,,,,,
,,,,,,,,,,,,,FF,,,,,,,,0.9,,,,,,,,,,,,,,,,,,,,,,60fee7e8473d54816d17c7b7,61036de3cf576104d41a107d,2021-07-29_22h14.41.846,Simcolourproject_2stim_asymm_v5,2020.2.10,Linux aarch64,60,61025ae37ef11b136ea224fe,,,,,,,,,3639,103.8568726,-44.75167847,1,0,0,response3disk,,5,17.79760742,-8.77041626,1,0,0,rectangle,17.79760742,-8.77041626,1,0,0,17.79760742,-8.77041626,1,0,0,1,76,236,51,1,,,,,,,,
,,,,,,,,,,,,,FF,,,,,,,,2.0161,,,,,,,,,,,,,,,,,,,,,,60fee7e8473d54816d17c7b7,61036de3cf576104d41a107d,2021-07-29_22h14.41.846,Simcolourproject_2stim_asymm_v5,2020.2.10,Linux aarch64,60,61025ae37ef11b136ea224fe,,,,,,,,,3999,113.3188477,-53.74697876,1,0,0,response3disk,,5,20.95159912,-7.421112061,1,0,0,rectangle,20.95159912,-7.421112061,1,0,0,20.95159912,-7.421112061,1,0,0,1,77,237,103,1,,,,,,,,
,,,,,,,,,,,,,FF,,,,,,,,0.8157,,,,,,,,,,,,,,,,,,,,,,60fee7e8473d54816d17c7b7,61036de3cf576104d41a107d,2021-07-29_22h14.41.846,Simcolourproject_2stim_asymm_v5,2020.2.10,Linux aarch64,60,61025ae37ef11b136ea224fe,,,,,,,,,332,114.2200317,-49.24932861,1,0,0,response3disk,,5,21.85272217,-10.11972046,1,0,0,rectangle,21.85272217,-10.11972046,1,0,0,21.85272217,-10.11972046,1,0,0,1,78,238,18,1,,,,,,,,
