key_resp.keys,key_resp.rt,key_resp_14.keys,key_resp_14.rt,key_resp_15.keys,key_resp_15.rt,key_resp_17.keys,key_resp_17.rt,key_resp_9.keys,key_resp_9.rt,key_resp_10.keys,key_resp_10.rt,practice_comparison,Ecc,mouse_5.x,mouse_5.y,mouse_5.leftButton,mouse_5.midButton,mouse_5.rightButton,mouse_5.clicked_name,pracsimilarity,response_time,mouse_10.x,mouse_10.y,mouse_10.leftButton,mouse_10.midButton,mouse_10.rightButton,mouse_10.clicked_name,mouse_7.x,mouse_7.y,mouse_7.leftButton,mouse_7.midButton,mouse_7.rightButton,mouse_6.x,mouse_6.y,mouse_6.leftButton,mouse_6.midButton,mouse_6.rightButton,duringprac.thisRepN,duringprac.thisTrialN,duringprac.thisN,duringprac.thisIndex,duringprac.ran,participant,session,date,expName,psychopyVersion,OS,frameRate,study_id,mouse_7.clicked_name,catchpracsimilarity,catch_response_time,catchnumberprac,catchtrialorderprac,mouse_6.clicked_name,key_resp_22.keys,key_resp_22.rt,realcomparison,mouse.x,mouse.y,mouse.leftButton,mouse.midButton,mouse.rightButton,mouse.clicked_name,Colour2,similarity,mouse_2.x,mouse_2.y,mouse_2.leftButton,mouse_2.midButton,mouse_2.rightButton,mouse_2.clicked_name,mouse_3.x,mouse_3.y,mouse_3.leftButton,mouse_3.midButton,mouse_3.rightButton,mouse_11.x,mouse_11.y,mouse_11.leftButton,mouse_11.midButton,mouse_11.rightButton,trials_2.thisRepN,trials_2.thisTrialN,trials_2.thisN,trials_2.thisIndex,trials_2.ran,Colour1,mouse_3.clicked_name,catchornah,catchsimilarity,catchnumber,catchtrialorder,catchRT,mouse_11.clicked_name
space,1.085,space,2.005,space,11.298,space,4.589,space,0.206,space,2.01,151,PF,50,92,1,0,0,response1disk_5,7,6.873,13,-4,1,0,0,rectangle_8,13,-4,1,0,0,13,-4,1,0,0,0,0,0,6,1,60feedf44e7fa5131ac6597f,61036f136c80f4089f7f115b,2021-07-29_22h17.14.915,Simcolourproject_2stim_asymm_v5,2020.2.10,Win32,60,61025ae37ef11b136ea224fe,,,,,,,,,,,,,,,,,,,,,,,,,,,,,,,,,,,,,,,,,,,,,,
,,,,,,,,,,,,43,FF,92,45,1,0,0,response1disk_5,6,5.605,-8,-7,1,0,0,rectangle_8,37,67,1,0,0,1,2,1,0,0,0,1,1,5,1,60feedf44e7fa5131ac6597f,61036f136c80f4089f7f115b,2021-07-29_22h17.14.915,Simcolourproject_2stim_asymm_v5,2020.2.10,Win32,60,61025ae37ef11b136ea224fe,response1disk_7,7,1.977,7,"[2,5]",rectangle_4,,,,,,,,,,,,,,,,,,,,,,,,,,,,,,,,,,,,,,,,
,,,,,,,,,,,,36,FF,70,37,1,0,0,response1disk_5,6,7.822,2,-1,1,0,0,rectangle_8,2,-1,1,0,0,2,-1,1,0,0,0,2,2,0,1,60feedf44e7fa5131ac6597f,61036f136c80f4089f7f115b,2021-07-29_22h17.14.915,Simcolourproject_2stim_asymm_v5,2020.2.10,Win32,60,61025ae37ef11b136ea224fe,,,,,,,,,,,,,,,,,,,,,,,,,,,,,,,,,,,,,,,,,,,,,,
,,,,,,,,,,,,49,PF,-98,-34,1,0,0,response5disk_5,2,3.359,14,10,1,0,0,rectangle_8,14,10,1,0,0,14,10,1,0,0,0,3,3,2,1,60feedf44e7fa5131ac6597f,61036f136c80f4089f7f115b,2021-07-29_22h17.14.915,Simcolourproject_2stim_asymm_v5,2020.2.10,Win32,60,61025ae37ef11b136ea224fe,,,,,,,,,,,,,,,,,,,,,,,,,,,,,,,,,,,,,,,,,,,,,,
,,,,,,,,,,,,5,PF,113,41,1,0,0,response1disk_5,6,2.614,2,-8,1,0,0,rectangle_8,38,86,1,0,0,-1,-5,1,0,0,0,4,4,1,1,60feedf44e7fa5131ac6597f,61036f136c80f4089f7f115b,2021-07-29_22h17.14.915,Simcolourproject_2stim_asymm_v5,2020.2.10,Win32,60,61025ae37ef11b136ea224fe,response1disk_7,7,1.77,7,"[2,5]",rectangle_4,,,,,,,,,,,,,,,,,,,,,,,,,,,,,,,,,,,,,,,,
,,,,,,,,,,,,26,FF,-41,-100,1,0,0,response5disk_5,3,4.542,15,-10,1,0,0,rectangle_8,15,-10,1,0,0,15,-10,1,0,0,0,5,5,3,1,60feedf44e7fa5131ac6597f,61036f136c80f4089f7f115b,2021-07-29_22h17.14.915,Simcolourproject_2stim_asymm_v5,2020.2.10,Win32,60,61025ae37ef11b136ea224fe,,,,,,,,,,,,,,,,,,,,,,,,,,,,,,,,,,,,,,,,,,,,,,
,,,,,,,,,,,,4,PF,-29,-81,1,0,0,response5disk_5,3,1.8,-1,2,1,0,0,rectangle_8,-1,2,1,0,0,-1,2,1,0,0,0,6,6,4,1,60feedf44e7fa5131ac6597f,61036f136c80f4089f7f115b,2021-07-29_22h17.14.915,Simcolourproject_2stim_asymm_v5,2020.2.10,Win32,60,61025ae37ef11b136ea224fe,,,,,,,,,,,,,,,,,,,,,,,,,,,,,,,,,,,,,,,,,,,,,,
,,,,,,,,,,,,,FF,,,,,,,,2.989,,,,,,,,,,,,,,,,,,,,,,60feedf44e7fa5131ac6597f,61036f136c80f4089f7f115b,2021-07-29_22h17.14.915,Simcolourproject_2stim_asymm_v5,2020.2.10,Win32,60,61025ae37ef11b136ea224fe,,,,,,,space,1.401,1069,-55,-92,1,0,0,response5disk,,3,-5,-2,1,0,0,rectangle,-5,-2,1,0,0,-5,-2,1,0,0,0,0,0,105,1,,,,,,,,
,,,,,,,,,,,,,FF,,,,,,,,2.115,,,,,,,,,,,,,,,,,,,,,,60feedf44e7fa5131ac6597f,61036f136c80f4089f7f115b,2021-07-29_22h17.14.915,Simcolourproject_2stim_asymm_v5,2020.2.10,Win32,60,61025ae37ef11b136ea224fe,,,,,,,,,1843,42,84,1,0,0,response1disk,,7,-2,-2,1,0,0,rectangle,-2,-2,1,0,0,-2,-2,1,0,0,0,1,1,63,1,,,,,,,,
,,,,,,,,,,,,,FF,,,,,,,,4.32,,,,,,,,,,,,,,,,,,,,,,60feedf44e7fa5131ac6597f,61036f136c80f4089f7f115b,2021-07-29_22h17.14.915,Simcolourproject_2stim_asymm_v5,2020.2.10,Win32,60,61025ae37ef11b136ea224fe,,,,,,,,,4013,86,-30,1,0,0,response3disk,,5,-3,-6,1,0,0,rectangle,82,-50,1,0,0,-15,10,1,0,0,0,2,2,60,1,,response3disk_3,TRUE,5,5,"[153,203,161,33,135,47,300,252,215,72,174,143,88,3,322,289,143,130,154,246]",1.827,rectangle
,,,,,,,,,,,,,FF,,,,,,,,3.547,,,,,,,,,,,,,,,,,,,,,,60feedf44e7fa5131ac6597f,61036f136c80f4089f7f115b,2021-07-29_22h17.14.915,Simcolourproject_2stim_asymm_v5,2020.2.10,Win32,60,61025ae37ef11b136ea224fe,,,,,,,,,3566,60,-34,1,0,0,response3disk,,5,1,-6,1,0,0,rectangle,1,-6,1,0,0,1,-6,1,0,0,0,3,3,107,1,,,,,,,,
,,,,,,,,,,,,,FF,,,,,,,,5.926,,,,,,,,,,,,,,,,,,,,,,60feedf44e7fa5131ac6597f,61036f136c80f4089f7f115b,2021-07-29_22h17.14.915,Simcolourproject_2stim_asymm_v5,2020.2.10,Win32,60,61025ae37ef11b136ea224fe,,,,,,,,,3899,-28,-61,1,0,0,response5disk,,3,2,2,1,0,0,rectangle,2,2,1,0,0,2,2,1,0,0,0,4,4,74,1,,,,,,,,
,,,,,,,,,,,,,FF,,,,,,,,2.25,,,,,,,,,,,,,,,,,,,,,,60feedf44e7fa5131ac6597f,61036f136c80f4089f7f115b,2021-07-29_22h17.14.915,Simcolourproject_2stim_asymm_v5,2020.2.10,Win32,60,61025ae37ef11b136ea224fe,,,,,,,,,4211,98,49,1,0,0,response1disk,,6,2,-6,1,0,0,rectangle,2,-6,1,0,0,2,-6,1,0,0,0,5,5,15,1,,,,,,,,
,,,,,,,,,,,,,FF,,,,,,,,2.042,,,,,,,,,,,,,,,,,,,,,,60feedf44e7fa5131ac6597f,61036f136c80f4089f7f115b,2021-07-29_22h17.14.915,Simcolourproject_2stim_asymm_v5,2020.2.10,Win32,60,61025ae37ef11b136ea224fe,,,,,,,,,3392,-47,-38,1,0,0,response5disk,,2,-7,-10,1,0,0,rectangle,-7,-10,1,0,0,-7,-10,1,0,0,0,6,6,75,1,,,,,,,,
,,,,,,,,,,,,,FF,,,,,,,,2.751,,,,,,,,,,,,,,,,,,,,,,60feedf44e7fa5131ac6597f,61036f136c80f4089f7f115b,2021-07-29_22h17.14.915,Simcolourproject_2stim_asymm_v5,2020.2.10,Win32,60,61025ae37ef11b136ea224fe,,,,,,,,,3199,-30,-67,1,0,0,response5disk,,3,9,-10,1,0,0,rectangle,9,-10,1,0,0,9,-10,1,0,0,0,7,7,144,1,,,,,,,,
,,,,,,,,,,,,,FF,,,,,,,,1.421,,,,,,,,,,,,,,,,,,,,,,60feedf44e7fa5131ac6597f,61036f136c80f4089f7f115b,2021-07-29_22h17.14.915,Simcolourproject_2stim_asymm_v5,2020.2.10,Win32,60,61025ae37ef11b136ea224fe,,,,,,,,,3232,28,82,1,0,0,response1disk,,7,3,7,1,0,0,rectangle,3,7,1,0,0,3,7,1,0,0,0,8,8,68,1,,,,,,,,
,,,,,,,,,,,,,FF,,,,,,,,3.16,,,,,,,,,,,,,,,,,,,,,,60feedf44e7fa5131ac6597f,61036f136c80f4089f7f115b,2021-07-29_22h17.14.915,Simcolourproject_2stim_asymm_v5,2020.2.10,Win32,60,61025ae37ef11b136ea224fe,,,,,,,,,3493,70,-46,1,0,0,response3disk,,5,-3,-12,1,0,0,rectangle,-3,-12,1,0,0,-3,-12,1,0,0,0,9,9,39,1,,,,,,,,
,,,,,,,,,,,,,FF,,,,,,,,2.002,,,,,,,,,,,,,,,,,,,,,,60feedf44e7fa5131ac6597f,61036f136c80f4089f7f115b,2021-07-29_22h17.14.915,Simcolourproject_2stim_asymm_v5,2020.2.10,Win32,60,61025ae37ef11b136ea224fe,,,,,,,,,545,-81,-59,1,0,0,response5disk,,2,-6,2,1,0,0,rectangle,-6,2,1,0,0,-6,2,1,0,0,0,10,10,76,1,,,,,,,,
,,,,,,,,,,,,,FF,,,,,,,,5.189,,,,,,,,,,,,,,,,,,,,,,60feedf44e7fa5131ac6597f,61036f136c80f4089f7f115b,2021-07-29_22h17.14.915,Simcolourproject_2stim_asymm_v5,2020.2.10,Win32,60,61025ae37ef11b136ea224fe,,,,,,,,,4258,106,36,1,0,0,response1disk,,6,2,-6,1,0,0,rectangle,2,-6,1,0,0,2,-6,1,0,0,0,11,11,80,1,,,,,,,,
,,,,,,,,,,,,,FF,,,,,,,,3.631,,,,,,,,,,,,,,,,,,,,,,60feedf44e7fa5131ac6597f,61036f136c80f4089f7f115b,2021-07-29_22h17.14.915,Simcolourproject_2stim_asymm_v5,2020.2.10,Win32,60,61025ae37ef11b136ea224fe,,,,,,,,,4240,-96,30,1,0,0,response7disk,,1,-4,7,1,0,0,rectangle,-4,7,1,0,0,-4,7,1,0,0,0,12,12,25,1,,,,,,,,
,,,,,,,,,,,,,FF,,,,,,,,3.931,,,,,,,,,,,,,,,,,,,,,,60feedf44e7fa5131ac6597f,61036f136c80f4089f7f115b,2021-07-29_22h17.14.915,Simcolourproject_2stim_asymm_v5,2020.2.10,Win32,60,61025ae37ef11b136ea224fe,,,,,,,,,3798,48,-27,1,0,0,response3disk,,5,-2,-9,1,0,0,rectangle,-2,-9,1,0,0,-2,-9,1,0,0,0,13,13,131,1,,,,,,,,
,,,,,,,,,,,,,FF,,,,,,,,1.263,,,,,,,,,,,,,,,,,,,,,,60feedf44e7fa5131ac6597f,61036f136c80f4089f7f115b,2021-07-29_22h17.14.915,Simcolourproject_2stim_asymm_v5,2020.2.10,Win32,60,61025ae37ef11b136ea224fe,,,,,,,,,588,73,-22,1,0,0,response3disk,,5,13,0,1,0,0,rectangle,13,0,1,0,0,13,0,1,0,0,0,14,14,28,1,,,,,,,,
,,,,,,,,,,,,,FF,,,,,,,,1.649,,,,,,,,,,,,,,,,,,,,,,60feedf44e7fa5131ac6597f,61036f136c80f4089f7f115b,2021-07-29_22h17.14.915,Simcolourproject_2stim_asymm_v5,2020.2.10,Win32,60,61025ae37ef11b136ea224fe,,,,,,,,,1593,74,-48,1,0,0,response3disk,,5,3,-16,1,0,0,rectangle,3,-16,1,0,0,3,-16,1,0,0,0,15,15,77,1,,,,,,,,
,,,,,,,,,,,,,FF,,,,,,,,1.372,,,,,,,,,,,,,,,,,,,,,,60feedf44e7fa5131ac6597f,61036f136c80f4089f7f115b,2021-07-29_22h17.14.915,Simcolourproject_2stim_asymm_v5,2020.2.10,Win32,60,61025ae37ef11b136ea224fe,,,,,,,,,3610,99,51,1,0,0,response1disk,,6,-5,2,1,0,0,rectangle,-5,2,1,0,0,-5,2,1,0,0,0,16,16,33,1,,,,,,,,
,,,,,,,,,,,,,FF,,,,,,,,3.169,,,,,,,,,,,,,,,,,,,,,,60feedf44e7fa5131ac6597f,61036f136c80f4089f7f115b,2021-07-29_22h17.14.915,Simcolourproject_2stim_asymm_v5,2020.2.10,Win32,60,61025ae37ef11b136ea224fe,,,,,,,,,1658,68,-38,1,0,0,response3disk,,5,6,2,1,0,0,rectangle,6,2,1,0,0,6,2,1,0,0,0,17,17,97,1,,,,,,,,
,,,,,,,,,,,,,FF,,,,,,,,1.634,,,,,,,,,,,,,,,,,,,,,,60feedf44e7fa5131ac6597f,61036f136c80f4089f7f115b,2021-07-29_22h17.14.915,Simcolourproject_2stim_asymm_v5,2020.2.10,Win32,60,61025ae37ef11b136ea224fe,,,,,,,,,1859,42,114,1,0,0,response1disk,,7,3,10,1,0,0,rectangle,3,10,1,0,0,3,10,1,0,0,0,18,18,50,1,,,,,,,,
,,,,,,,,,,,,,FF,,,,,,,,1.926,,,,,,,,,,,,,,,,,,,,,,60feedf44e7fa5131ac6597f,61036f136c80f4089f7f115b,2021-07-29_22h17.14.915,Simcolourproject_2stim_asymm_v5,2020.2.10,Win32,60,61025ae37ef11b136ea224fe,,,,,,,,,347,-27,-58,1,0,0,response5disk,,3,-3,-2,1,0,0,rectangle,-3,-2,1,0,0,-3,-2,1,0,0,0,19,19,153,1,,,,,,,,
,,,,,,,,,,,,,FF,,,,,,,,1.582,,,,,,,,,,,,,,,,,,,,,,60feedf44e7fa5131ac6597f,61036f136c80f4089f7f115b,2021-07-29_22h17.14.915,Simcolourproject_2stim_asymm_v5,2020.2.10,Win32,60,61025ae37ef11b136ea224fe,,,,,,,,,2438,34,77,1,0,0,response1disk,,7,8,6,1,0,0,rectangle,8,6,1,0,0,8,6,1,0,0,0,20,20,152,1,,,,,,,,
,,,,,,,,,,,,,FF,,,,,,,,1.505,,,,,,,,,,,,,,,,,,,,,,60feedf44e7fa5131ac6597f,61036f136c80f4089f7f115b,2021-07-29_22h17.14.915,Simcolourproject_2stim_asymm_v5,2020.2.10,Win32,60,61025ae37ef11b136ea224fe,,,,,,,,,1754,-106,46,1,0,0,response7disk,,1,-8,-2,1,0,0,rectangle,-8,-2,1,0,0,-8,-2,1,0,0,0,21,21,159,1,,,,,,,,
,,,,,,,,,,,,,FF,,,,,,,,2.02,,,,,,,,,,,,,,,,,,,,,,60feedf44e7fa5131ac6597f,61036f136c80f4089f7f115b,2021-07-29_22h17.14.915,Simcolourproject_2stim_asymm_v5,2020.2.10,Win32,60,61025ae37ef11b136ea224fe,,,,,,,,,3407,34,-65,1,0,0,response3disk,,4,-9,-10,1,0,0,rectangle,-9,-10,1,0,0,-9,-10,1,0,0,0,22,22,102,1,,,,,,,,
,,,,,,,,,,,,,FF,,,,,,,,2.674,,,,,,,,,,,,,,,,,,,,,,60feedf44e7fa5131ac6597f,61036f136c80f4089f7f115b,2021-07-29_22h17.14.915,Simcolourproject_2stim_asymm_v5,2020.2.10,Win32,60,61025ae37ef11b136ea224fe,,,,,,,,,3755,46,-83,1,0,0,response3disk,,4,-2,8,1,0,0,rectangle,-2,8,1,0,0,-2,8,1,0,0,0,23,23,14,1,,,,,,,,
,,,,,,,,,,,,,FF,,,,,,,,1.339,,,,,,,,,,,,,,,,,,,,,,60feedf44e7fa5131ac6597f,61036f136c80f4089f7f115b,2021-07-29_22h17.14.915,Simcolourproject_2stim_asymm_v5,2020.2.10,Win32,60,61025ae37ef11b136ea224fe,,,,,,,,,1439,-38,-74,1,0,0,response5disk,,3,2,10,1,0,0,rectangle,2,10,1,0,0,2,10,1,0,0,0,24,24,51,1,,,,,,,,
,,,,,,,,,,,,,FF,,,,,,,,2.315,,,,,,,,,,,,,,,,,,,,,,60feedf44e7fa5131ac6597f,61036f136c80f4089f7f115b,2021-07-29_22h17.14.915,Simcolourproject_2stim_asymm_v5,2020.2.10,Win32,60,61025ae37ef11b136ea224fe,,,,,,,,,859,78,-33,1,0,0,response3disk,,5,10,-3,1,0,0,rectangle,10,-3,1,0,0,10,-3,1,0,0,0,25,25,149,1,,,,,,,,
,,,,,,,,,,,,,FF,,,,,,,,1.188,,,,,,,,,,,,,,,,,,,,,,60feedf44e7fa5131ac6597f,61036f136c80f4089f7f115b,2021-07-29_22h17.14.915,Simcolourproject_2stim_asymm_v5,2020.2.10,Win32,60,61025ae37ef11b136ea224fe,,,,,,,,,1313,-67,-42,1,0,0,response5disk,,2,-3,-3,1,0,0,rectangle,-3,-3,1,0,0,-3,-3,1,0,0,0,26,26,67,1,,,,,,,,
,,,,,,,,,,,,,FF,,,,,,,,1.582,,,,,,,,,,,,,,,,,,,,,,60feedf44e7fa5131ac6597f,61036f136c80f4089f7f115b,2021-07-29_22h17.14.915,Simcolourproject_2stim_asymm_v5,2020.2.10,Win32,60,61025ae37ef11b136ea224fe,,,,,,,,,1241,61,-30,1,0,0,response3disk,,5,7,-10,1,0,0,rectangle,7,-10,1,0,0,7,-10,1,0,0,0,27,27,73,1,,,,,,,,
,,,,,,,,,,,,,FF,,,,,,,,1.353,,,,,,,,,,,,,,,,,,,,,,60feedf44e7fa5131ac6597f,61036f136c80f4089f7f115b,2021-07-29_22h17.14.915,Simcolourproject_2stim_asymm_v5,2020.2.10,Win32,60,61025ae37ef11b136ea224fe,,,,,,,,,4046,-50,109,1,0,0,response7disk,,0,6,-5,1,0,0,rectangle,6,-5,1,0,0,6,-5,1,0,0,0,28,28,121,1,,,,,,,,
,,,,,,,,,,,,,FF,,,,,,,,1.868,,,,,,,,,,,,,,,,,,,,,,60feedf44e7fa5131ac6597f,61036f136c80f4089f7f115b,2021-07-29_22h17.14.915,Simcolourproject_2stim_asymm_v5,2020.2.10,Win32,60,61025ae37ef11b136ea224fe,,,,,,,,,2371,-30,-94,1,0,0,response5disk,,3,2,-9,1,0,0,rectangle,2,-9,1,0,0,2,-9,1,0,0,0,29,29,38,1,,,,,,,,
,,,,,,,,,,,,,FF,,,,,,,,1.412,,,,,,,,,,,,,,,,,,,,,,60feedf44e7fa5131ac6597f,61036f136c80f4089f7f115b,2021-07-29_22h17.14.915,Simcolourproject_2stim_asymm_v5,2020.2.10,Win32,60,61025ae37ef11b136ea224fe,,,,,,,,,3892,34,-60,1,0,0,response3disk,,4,1,-7,1,0,0,rectangle,1,-7,1,0,0,1,-7,1,0,0,0,30,30,58,1,,,,,,,,
,,,,,,,,,,,,,FF,,,,,,,,1.197,,,,,,,,,,,,,,,,,,,,,,60feedf44e7fa5131ac6597f,61036f136c80f4089f7f115b,2021-07-29_22h17.14.915,Simcolourproject_2stim_asymm_v5,2020.2.10,Win32,60,61025ae37ef11b136ea224fe,,,,,,,,,333,86,62,1,0,0,response1disk,,6,-1,3,1,0,0,rectangle,-1,3,1,0,0,-1,3,1,0,0,0,31,31,89,1,,,,,,,,
,,,,,,,,,,,,,FF,,,,,,,,1.43,,,,,,,,,,,,,,,,,,,,,,60feedf44e7fa5131ac6597f,61036f136c80f4089f7f115b,2021-07-29_22h17.14.915,Simcolourproject_2stim_asymm_v5,2020.2.10,Win32,60,61025ae37ef11b136ea224fe,,,,,,,,,4356,-51,100,1,0,0,response7disk,,0,5,-5,1,0,0,rectangle,-56,-114,1,0,0,-1,-8,1,0,0,0,32,32,99,1,,response5disk_3,TRUE,3,3,"[153,203,161,33,135,47,300,252,215,72,174,143,88,3,322,289,143,130,154,246]",2.371,rectangle
,,,,,,,,,,,,,FF,,,,,,,,3.263,,,,,,,,,,,,,,,,,,,,,,60feedf44e7fa5131ac6597f,61036f136c80f4089f7f115b,2021-07-29_22h17.14.915,Simcolourproject_2stim_asymm_v5,2020.2.10,Win32,60,61025ae37ef11b136ea224fe,,,,,,,,,2458,41,79,1,0,0,response1disk,,7,-10,-4,1,0,0,rectangle,-10,-4,1,0,0,-10,-4,1,0,0,0,33,33,4,1,,,,,,,,
,,,,,,,,,,,,,FF,,,,,,,,1.816,,,,,,,,,,,,,,,,,,,,,,60feedf44e7fa5131ac6597f,61036f136c80f4089f7f115b,2021-07-29_22h17.14.915,Simcolourproject_2stim_asymm_v5,2020.2.10,Win32,60,61025ae37ef11b136ea224fe,,,,,,,,,2594,-32,-81,1,0,0,response5disk,,3,-2,-6,1,0,0,rectangle,-2,-6,1,0,0,-2,-6,1,0,0,0,34,34,46,1,,,,,,,,
,,,,,,,,,,,,,FF,,,,,,,,2.812,,,,,,,,,,,,,,,,,,,,,,60feedf44e7fa5131ac6597f,61036f136c80f4089f7f115b,2021-07-29_22h17.14.915,Simcolourproject_2stim_asymm_v5,2020.2.10,Win32,60,61025ae37ef11b136ea224fe,,,,,,,,,3501,80,58,1,0,0,response1disk,,6,-1,-5,1,0,0,rectangle,-1,-5,1,0,0,-1,-5,1,0,0,0,35,35,43,1,,,,,,,,
,,,,,,,,,,,,,FF,,,,,,,,1.553,,,,,,,,,,,,,,,,,,,,,,60feedf44e7fa5131ac6597f,61036f136c80f4089f7f115b,2021-07-29_22h17.14.915,Simcolourproject_2stim_asymm_v5,2020.2.10,Win32,60,61025ae37ef11b136ea224fe,,,,,,,,,697,84,30,1,0,0,response1disk,,6,6,-4,1,0,0,rectangle,6,-4,1,0,0,6,-4,1,0,0,0,36,36,90,1,,,,,,,,
,,,,,,,,,,,,,FF,,,,,,,,1.164,,,,,,,,,,,,,,,,,,,,,,60feedf44e7fa5131ac6597f,61036f136c80f4089f7f115b,2021-07-29_22h17.14.915,Simcolourproject_2stim_asymm_v5,2020.2.10,Win32,60,61025ae37ef11b136ea224fe,,,,,,,,,900,-33,-62,1,0,0,response5disk,,3,-6,-7,1,0,0,rectangle,-6,-7,1,0,0,-6,-7,1,0,0,0,37,37,147,1,,,,,,,,
,,,,,,,,,,,,,FF,,,,,,,,1.421,,,,,,,,,,,,,,,,,,,,,,60feedf44e7fa5131ac6597f,61036f136c80f4089f7f115b,2021-07-29_22h17.14.915,Simcolourproject_2stim_asymm_v5,2020.2.10,Win32,60,61025ae37ef11b136ea224fe,,,,,,,,,160,-44,-73,1,0,0,response5disk,,3,-11,5,1,0,0,rectangle,-11,5,1,0,0,-11,5,1,0,0,0,38,38,137,1,,,,,,,,
,,,,,,,,,,,,,FF,,,,,,,,1.344,,,,,,,,,,,,,,,,,,,,,,60feedf44e7fa5131ac6597f,61036f136c80f4089f7f115b,2021-07-29_22h17.14.915,Simcolourproject_2stim_asymm_v5,2020.2.10,Win32,60,61025ae37ef11b136ea224fe,,,,,,,,,363,90,-36,1,0,0,response3disk,,5,2,-11,1,0,0,rectangle,2,-11,1,0,0,2,-11,1,0,0,0,39,39,128,1,,,,,,,,
,,,,,,,,,,,,,FF,,,,,,,,1.527,,,,,,,,,,,,,,,,,,,,,,60feedf44e7fa5131ac6597f,61036f136c80f4089f7f115b,2021-07-29_22h17.14.915,Simcolourproject_2stim_asymm_v5,2020.2.10,Win32,60,61025ae37ef11b136ea224fe,,,,,,,,,4179,94,40,1,0,0,response1disk,,6,10,6,1,0,0,rectangle,10,6,1,0,0,10,6,1,0,0,0,40,40,57,1,,,,,,,,
,,,,,,,,,,,,,FF,,,,,,,,1.185,,,,,,,,,,,,,,,,,,,,,,60feedf44e7fa5131ac6597f,61036f136c80f4089f7f115b,2021-07-29_22h17.14.915,Simcolourproject_2stim_asymm_v5,2020.2.10,Win32,60,61025ae37ef11b136ea224fe,,,,,,,,,2412,-30,-69,1,0,0,response5disk,,3,-6,17,1,0,0,rectangle,-6,17,1,0,0,-6,17,1,0,0,0,41,41,2,1,,,,,,,,
,,,,,,,,,,,,,FF,,,,,,,,1.167,,,,,,,,,,,,,,,,,,,,,,60feedf44e7fa5131ac6597f,61036f136c80f4089f7f115b,2021-07-29_22h17.14.915,Simcolourproject_2stim_asymm_v5,2020.2.10,Win32,60,61025ae37ef11b136ea224fe,,,,,,,,,1943,69,36,1,0,0,response1disk,,6,9,6,1,0,0,rectangle,9,6,1,0,0,9,6,1,0,0,0,42,42,29,1,,,,,,,,
,,,,,,,,,,,,,FF,,,,,,,,1.915,,,,,,,,,,,,,,,,,,,,,,60feedf44e7fa5131ac6597f,61036f136c80f4089f7f115b,2021-07-29_22h17.14.915,Simcolourproject_2stim_asymm_v5,2020.2.10,Win32,60,61025ae37ef11b136ea224fe,,,,,,,,,536,70,38,1,0,0,response1disk,,6,-10,4,1,0,0,rectangle,-10,4,1,0,0,-10,4,1,0,0,0,43,43,12,1,,,,,,,,
,,,,,,,,,,,,,FF,,,,,,,,1.107,,,,,,,,,,,,,,,,,,,,,,60feedf44e7fa5131ac6597f,61036f136c80f4089f7f115b,2021-07-29_22h17.14.915,Simcolourproject_2stim_asymm_v5,2020.2.10,Win32,60,61025ae37ef11b136ea224fe,,,,,,,,,2913,31,89,1,0,0,response1disk,,7,10,-6,1,0,0,rectangle,10,-6,1,0,0,10,-6,1,0,0,0,44,44,31,1,,,,,,,,
,,,,,,,,,,,,,FF,,,,,,,,3.73,,,,,,,,,,,,,,,,,,,,,,60feedf44e7fa5131ac6597f,61036f136c80f4089f7f115b,2021-07-29_22h17.14.915,Simcolourproject_2stim_asymm_v5,2020.2.10,Win32,60,61025ae37ef11b136ea224fe,,,,,,,,,568,63,27,1,0,0,response1disk,,6,-5,-7,1,0,0,rectangle,-5,-7,1,0,0,-5,-7,1,0,0,0,45,45,79,1,,,,,,,,
,,,,,,,,,,,,,FF,,,,,,,,1.289,,,,,,,,,,,,,,,,,,,,,,60feedf44e7fa5131ac6597f,61036f136c80f4089f7f115b,2021-07-29_22h17.14.915,Simcolourproject_2stim_asymm_v5,2020.2.10,Win32,60,61025ae37ef11b136ea224fe,,,,,,,,,2322,82,52,1,0,0,response1disk,,6,6,2,1,0,0,rectangle,-36,109,1,0,0,-6,-14,1,0,0,0,46,46,115,1,,response7disk_3,TRUE,0,0,"[153,203,161,33,135,47,300,252,215,72,174,143,88,3,322,289,143,130,154,246]",1.529,rectangle
,,,,,,,,,,,,,FF,,,,,,,,1.464,,,,,,,,,,,,,,,,,,,,,,60feedf44e7fa5131ac6597f,61036f136c80f4089f7f115b,2021-07-29_22h17.14.915,Simcolourproject_2stim_asymm_v5,2020.2.10,Win32,60,61025ae37ef11b136ea224fe,,,,,,,,,3284,-78,46,1,0,0,response7disk,,1,-24,10,1,0,0,rectangle,-24,10,1,0,0,-24,10,1,0,0,0,47,47,36,1,,,,,,,,
,,,,,,,,,,,,,FF,,,,,,,,1.131,,,,,,,,,,,,,,,,,,,,,,60feedf44e7fa5131ac6597f,61036f136c80f4089f7f115b,2021-07-29_22h17.14.915,Simcolourproject_2stim_asymm_v5,2020.2.10,Win32,60,61025ae37ef11b136ea224fe,,,,,,,,,311,75,42,1,0,0,response1disk,,6,6,9,1,0,0,rectangle,6,9,1,0,0,6,9,1,0,0,0,48,48,118,1,,,,,,,,
,,,,,,,,,,,,,FF,,,,,,,,1.399,,,,,,,,,,,,,,,,,,,,,,60feedf44e7fa5131ac6597f,61036f136c80f4089f7f115b,2021-07-29_22h17.14.915,Simcolourproject_2stim_asymm_v5,2020.2.10,Win32,60,61025ae37ef11b136ea224fe,,,,,,,,,2362,-33,-76,1,0,0,response5disk,,3,4,-2,1,0,0,rectangle,4,-2,1,0,0,4,-2,1,0,0,0,49,49,101,1,,,,,,,,
,,,,,,,,,,,,,FF,,,,,,,,3.245,,,,,,,,,,,,,,,,,,,,,,60feedf44e7fa5131ac6597f,61036f136c80f4089f7f115b,2021-07-29_22h17.14.915,Simcolourproject_2stim_asymm_v5,2020.2.10,Win32,60,61025ae37ef11b136ea224fe,,,,,,,,,1908,-47,-86,1,0,0,response5disk,,3,3,2,1,0,0,rectangle,3,2,1,0,0,3,2,1,0,0,0,50,50,20,1,,,,,,,,
,,,,,,,,,,,,,FF,,,,,,,,1.06,,,,,,,,,,,,,,,,,,,,,,60feedf44e7fa5131ac6597f,61036f136c80f4089f7f115b,2021-07-29_22h17.14.915,Simcolourproject_2stim_asymm_v5,2020.2.10,Win32,60,61025ae37ef11b136ea224fe,,,,,,,,,3633,64,-26,1,0,0,response3disk,,5,-9,-4,1,0,0,rectangle,-9,-4,1,0,0,-9,-4,1,0,0,0,51,51,40,1,,,,,,,,
,,,,,,,,,,,,,FF,,,,,,,,1.399,,,,,,,,,,,,,,,,,,,,,,60feedf44e7fa5131ac6597f,61036f136c80f4089f7f115b,2021-07-29_22h17.14.915,Simcolourproject_2stim_asymm_v5,2020.2.10,Win32,60,61025ae37ef11b136ea224fe,,,,,,,,,3544,-42,-114,1,0,0,response5disk,,3,-6,15,1,0,0,rectangle,-6,15,1,0,0,-6,15,1,0,0,0,52,52,65,1,,,,,,,,
,,,,,,,,,,,,,FF,,,,,,,,1.858,,,,,,,,,,,,,,,,,,,,,,60feedf44e7fa5131ac6597f,61036f136c80f4089f7f115b,2021-07-29_22h17.14.915,Simcolourproject_2stim_asymm_v5,2020.2.10,Win32,60,61025ae37ef11b136ea224fe,,,,,,,,,1690,-96,-29,1,0,0,response5disk,,2,-22,-6,1,0,0,rectangle,-22,-6,1,0,0,-22,-6,1,0,0,0,53,53,62,1,,,,,,,,
,,,,,,,,,,,,,FF,,,,,,,,1.218,,,,,,,,,,,,,,,,,,,,,,60feedf44e7fa5131ac6597f,61036f136c80f4089f7f115b,2021-07-29_22h17.14.915,Simcolourproject_2stim_asymm_v5,2020.2.10,Win32,60,61025ae37ef11b136ea224fe,,,,,,,,,1162,106,64,1,0,0,response1disk,,6,-4,6,1,0,0,rectangle,-4,6,1,0,0,-4,6,1,0,0,0,54,54,69,1,,,,,,,,
,,,,,,,,,,,,,FF,,,,,,,,1.79,,,,,,,,,,,,,,,,,,,,,,60feedf44e7fa5131ac6597f,61036f136c80f4089f7f115b,2021-07-29_22h17.14.915,Simcolourproject_2stim_asymm_v5,2020.2.10,Win32,60,61025ae37ef11b136ea224fe,,,,,,,,,3167,112,47,1,0,0,response1disk,,6,-20,0,1,0,0,rectangle,-20,0,1,0,0,-20,0,1,0,0,0,55,55,86,1,,,,,,,,
,,,,,,,,,,,,,FF,,,,,,,,1.511,,,,,,,,,,,,,,,,,,,,,,60feedf44e7fa5131ac6597f,61036f136c80f4089f7f115b,2021-07-29_22h17.14.915,Simcolourproject_2stim_asymm_v5,2020.2.10,Win32,60,61025ae37ef11b136ea224fe,,,,,,,,,3503,90,52,1,0,0,response1disk,,6,21,4,1,0,0,rectangle,21,4,1,0,0,21,4,1,0,0,0,56,56,72,1,,,,,,,,
,,,,,,,,,,,,,FF,,,,,,,,1.107,,,,,,,,,,,,,,,,,,,,,,60feedf44e7fa5131ac6597f,61036f136c80f4089f7f115b,2021-07-29_22h17.14.915,Simcolourproject_2stim_asymm_v5,2020.2.10,Win32,60,61025ae37ef11b136ea224fe,,,,,,,,,3813,-51,-96,1,0,0,response5disk,,3,3,-1,1,0,0,rectangle,3,-1,1,0,0,3,-1,1,0,0,0,57,57,142,1,,,,,,,,
,,,,,,,,,,,,,FF,,,,,,,,1.128,,,,,,,,,,,,,,,,,,,,,,60feedf44e7fa5131ac6597f,61036f136c80f4089f7f115b,2021-07-29_22h17.14.915,Simcolourproject_2stim_asymm_v5,2020.2.10,Win32,60,61025ae37ef11b136ea224fe,,,,,,,,,1967,-37,-74,1,0,0,response5disk,,3,-6,2,1,0,0,rectangle,-6,2,1,0,0,-6,2,1,0,0,0,58,58,150,1,,,,,,,,
,,,,,,,,,,,,,FF,,,,,,,,1.327,,,,,,,,,,,,,,,,,,,,,,60feedf44e7fa5131ac6597f,61036f136c80f4089f7f115b,2021-07-29_22h17.14.915,Simcolourproject_2stim_asymm_v5,2020.2.10,Win32,60,61025ae37ef11b136ea224fe,,,,,,,,,2364,-40,-66,1,0,0,response5disk,,3,0,-14,1,0,0,rectangle,0,-14,1,0,0,0,-14,1,0,0,0,59,59,123,1,,,,,,,,
,,,,,,,,,,,,,FF,,,,,,,,2.177,,,,,,,,,,,,,,,,,,,,,,60feedf44e7fa5131ac6597f,61036f136c80f4089f7f115b,2021-07-29_22h17.14.915,Simcolourproject_2stim_asymm_v5,2020.2.10,Win32,60,61025ae37ef11b136ea224fe,,,,,,,,,1465,34,-82,1,0,0,response3disk,,4,-3,-4,1,0,0,rectangle,-3,-4,1,0,0,-3,-4,1,0,0,0,60,60,70,1,,,,,,,,
,,,,,,,,,,,,,FF,,,,,,,,1.33,,,,,,,,,,,,,,,,,,,,,,60feedf44e7fa5131ac6597f,61036f136c80f4089f7f115b,2021-07-29_22h17.14.915,Simcolourproject_2stim_asymm_v5,2020.2.10,Win32,60,61025ae37ef11b136ea224fe,,,,,,,,,858,100,34,1,0,0,response1disk,,6,13,-3,1,0,0,rectangle,13,-3,1,0,0,13,-3,1,0,0,0,61,61,49,1,,,,,,,,
,,,,,,,,,,,,,FF,,,,,,,,1.111,,,,,,,,,,,,,,,,,,,,,,60feedf44e7fa5131ac6597f,61036f136c80f4089f7f115b,2021-07-29_22h17.14.915,Simcolourproject_2stim_asymm_v5,2020.2.10,Win32,60,61025ae37ef11b136ea224fe,,,,,,,,,345,-37,-87,1,0,0,response5disk,,3,-14,11,1,0,0,rectangle,-14,11,1,0,0,-14,11,1,0,0,0,62,62,93,1,,,,,,,,
,,,,,,,,,,,,,FF,,,,,,,,1.211,,,,,,,,,,,,,,,,,,,,,,60feedf44e7fa5131ac6597f,61036f136c80f4089f7f115b,2021-07-29_22h17.14.915,Simcolourproject_2stim_asymm_v5,2020.2.10,Win32,60,61025ae37ef11b136ea224fe,,,,,,,,,4345,-66,-59,1,0,0,response5disk,,2,4,-5,1,0,0,rectangle,4,-5,1,0,0,4,-5,1,0,0,0,63,63,19,1,,,,,,,,
,,,,,,,,,,,,,FF,,,,,,,,2.067,,,,,,,,,,,,,,,,,,,,,,60feedf44e7fa5131ac6597f,61036f136c80f4089f7f115b,2021-07-29_22h17.14.915,Simcolourproject_2stim_asymm_v5,2020.2.10,Win32,60,61025ae37ef11b136ea224fe,,,,,,,,,2746,94,50,1,0,0,response1disk,,6,-8,-6,1,0,0,rectangle,-8,-6,1,0,0,-8,-6,1,0,0,0,64,64,61,1,,,,,,,,
,,,,,,,,,,,,,FF,,,,,,,,1.269,,,,,,,,,,,,,,,,,,,,,,60feedf44e7fa5131ac6597f,61036f136c80f4089f7f115b,2021-07-29_22h17.14.915,Simcolourproject_2stim_asymm_v5,2020.2.10,Win32,60,61025ae37ef11b136ea224fe,,,,,,,,,1028,44,103,1,0,0,response1disk,,7,-9,-11,1,0,0,rectangle,-9,-11,1,0,0,-9,-11,1,0,0,0,65,65,6,1,,,,,,,,
,,,,,,,,,,,,,FF,,,,,,,,2.045,,,,,,,,,,,,,,,,,,,,,,60feedf44e7fa5131ac6597f,61036f136c80f4089f7f115b,2021-07-29_22h17.14.915,Simcolourproject_2stim_asymm_v5,2020.2.10,Win32,60,61025ae37ef11b136ea224fe,,,,,,,,,4243,31,107,1,0,0,response1disk,,7,5,-7,1,0,0,rectangle,5,-7,1,0,0,5,-7,1,0,0,0,66,66,32,1,,,,,,,,
,,,,,,,,,,,,,FF,,,,,,,,2.097,,,,,,,,,,,,,,,,,,,,,,60feedf44e7fa5131ac6597f,61036f136c80f4089f7f115b,2021-07-29_22h17.14.915,Simcolourproject_2stim_asymm_v5,2020.2.10,Win32,60,61025ae37ef11b136ea224fe,,,,,,,,,2074,83,50,1,0,0,response1disk,,6,18,8,1,0,0,rectangle,18,8,1,0,0,18,8,1,0,0,0,67,67,155,1,,,,,,,,
,,,,,,,,,,,,,FF,,,,,,,,2.75,,,,,,,,,,,,,,,,,,,,,,60feedf44e7fa5131ac6597f,61036f136c80f4089f7f115b,2021-07-29_22h17.14.915,Simcolourproject_2stim_asymm_v5,2020.2.10,Win32,60,61025ae37ef11b136ea224fe,,,,,,,,,3622,116,-71,1,0,0,response3disk,,5,4,-6,1,0,0,rectangle,4,-6,1,0,0,4,-6,1,0,0,0,68,68,94,1,,,,,,,,
,,,,,,,,,,,,,FF,,,,,,,,1.16,,,,,,,,,,,,,,,,,,,,,,60feedf44e7fa5131ac6597f,61036f136c80f4089f7f115b,2021-07-29_22h17.14.915,Simcolourproject_2stim_asymm_v5,2020.2.10,Win32,60,61025ae37ef11b136ea224fe,,,,,,,,,3050,-82,-50,1,0,0,response5disk,,2,-4,-3,1,0,0,rectangle,-4,-3,1,0,0,-4,-3,1,0,0,0,69,69,129,1,,,,,,,,
,,,,,,,,,,,,,FF,,,,,,,,1.215,,,,,,,,,,,,,,,,,,,,,,60feedf44e7fa5131ac6597f,61036f136c80f4089f7f115b,2021-07-29_22h17.14.915,Simcolourproject_2stim_asymm_v5,2020.2.10,Win32,60,61025ae37ef11b136ea224fe,,,,,,,,,159,38,-83,1,0,0,response3disk,,4,-6,-4,1,0,0,rectangle,-6,-4,1,0,0,-6,-4,1,0,0,0,70,70,71,1,,,,,,,,
,,,,,,,,,,,,,FF,,,,,,,,1.327,,,,,,,,,,,,,,,,,,,,,,60feedf44e7fa5131ac6597f,61036f136c80f4089f7f115b,2021-07-29_22h17.14.915,Simcolourproject_2stim_asymm_v5,2020.2.10,Win32,60,61025ae37ef11b136ea224fe,,,,,,,,,1014,78,34,1,0,0,response1disk,,6,-6,9,1,0,0,rectangle,-33,86,1,0,0,-2,10,1,0,0,0,71,71,42,1,,response7disk_3,TRUE,0,0,"[153,203,161,33,135,47,300,252,215,72,174,143,88,3,322,289,143,130,154,246]",1.564,rectangle
,,,,,,,,,,,,,FF,,,,,,,,2.18,,,,,,,,,,,,,,,,,,,,,,60feedf44e7fa5131ac6597f,61036f136c80f4089f7f115b,2021-07-29_22h17.14.915,Simcolourproject_2stim_asymm_v5,2020.2.10,Win32,60,61025ae37ef11b136ea224fe,,,,,,,,,865,42,-81,1,0,0,response3disk,,4,-9,4,1,0,0,rectangle,-9,4,1,0,0,-9,4,1,0,0,0,72,72,103,1,,,,,,,,
,,,,,,,,,,,,,FF,,,,,,,,2.031,,,,,,,,,,,,,,,,,,,,,,60feedf44e7fa5131ac6597f,61036f136c80f4089f7f115b,2021-07-29_22h17.14.915,Simcolourproject_2stim_asymm_v5,2020.2.10,Win32,60,61025ae37ef11b136ea224fe,,,,,,,,,2072,68,35,1,0,0,response1disk,,6,10,8,1,0,0,rectangle,10,8,1,0,0,10,8,1,0,0,0,73,73,138,1,,,,,,,,
,,,,,,,,,,,,,FF,,,,,,,,0.999,,,,,,,,,,,,,,,,,,,,,,60feedf44e7fa5131ac6597f,61036f136c80f4089f7f115b,2021-07-29_22h17.14.915,Simcolourproject_2stim_asymm_v5,2020.2.10,Win32,60,61025ae37ef11b136ea224fe,,,,,,,,,1858,46,90,1,0,0,response1disk,,7,22,14,1,0,0,rectangle,22,14,1,0,0,22,14,1,0,0,0,74,74,8,1,,,,,,,,
,,,,,,,,,,,,,FF,,,,,,,,1.782,,,,,,,,,,,,,,,,,,,,,,60feedf44e7fa5131ac6597f,61036f136c80f4089f7f115b,2021-07-29_22h17.14.915,Simcolourproject_2stim_asymm_v5,2020.2.10,Win32,60,61025ae37ef11b136ea224fe,,,,,,,,,1317,32,-80,1,0,0,response3disk,,4,2,-3,1,0,0,rectangle,2,-3,1,0,0,2,-3,1,0,0,0,75,75,126,1,,,,,,,,
,,,,,,,,,,,,,FF,,,,,,,,1.267,,,,,,,,,,,,,,,,,,,,,,60feedf44e7fa5131ac6597f,61036f136c80f4089f7f115b,2021-07-29_22h17.14.915,Simcolourproject_2stim_asymm_v5,2020.2.10,Win32,60,61025ae37ef11b136ea224fe,,,,,,,,,2457,82,-39,1,0,0,response3disk,,5,24,0,1,0,0,rectangle,24,0,1,0,0,24,0,1,0,0,0,76,76,23,1,,,,,,,,
,,,,,,,,,,,,,FF,,,,,,,,1.244,,,,,,,,,,,,,,,,,,,,,,60feedf44e7fa5131ac6597f,61036f136c80f4089f7f115b,2021-07-29_22h17.14.915,Simcolourproject_2stim_asymm_v5,2020.2.10,Win32,60,61025ae37ef11b136ea224fe,,,,,,,,,1312,-58,-96,1,0,0,response5disk,,3,-10,-2,1,0,0,rectangle,-10,-2,1,0,0,-10,-2,1,0,0,0,77,77,119,1,,,,,,,,
,,,,,,,,,,,,,FF,,,,,,,,1.135,,,,,,,,,,,,,,,,,,,,,,60feedf44e7fa5131ac6597f,61036f136c80f4089f7f115b,2021-07-29_22h17.14.915,Simcolourproject_2stim_asymm_v5,2020.2.10,Win32,60,61025ae37ef11b136ea224fe,,,,,,,,,1261,63,-43,1,0,0,response3disk,,5,10,-15,1,0,0,rectangle,10,-15,1,0,0,10,-15,1,0,0,0,78,78,27,1,,,,,,,,
,,,,,,,,,,,,,FF,,,,,,,,1.074,,,,,,,,,,,,,,,,,,,,,,60feedf44e7fa5131ac6597f,61036f136c80f4089f7f115b,2021-07-29_22h17.14.915,Simcolourproject_2stim_asymm_v5,2020.2.10,Win32,60,61025ae37ef11b136ea224fe,,,,,,,,,4148,-66,-33,1,0,0,response5disk,,2,-10,-4,1,0,0,rectangle,-10,-4,1,0,0,-10,-4,1,0,0,0,79,79,132,1,,,,,,,,
,,,,,,,,,,,,,FF,,,,,,,,1.909,,,,,,,,,,,,,,,,,,,,,,60feedf44e7fa5131ac6597f,61036f136c80f4089f7f115b,2021-07-29_22h17.14.915,Simcolourproject_2stim_asymm_v5,2020.2.10,Win32,60,61025ae37ef11b136ea224fe,,,,,,,,,1111,84,57,1,0,0,response1disk,,6,2,8,1,0,0,rectangle,2,8,1,0,0,2,8,1,0,0,0,80,80,78,1,,,,,,,,
,,,,,,,,,,,,,FF,,,,,,,,1.934,,,,,,,,,,,,,,,,,,,,,,60feedf44e7fa5131ac6597f,61036f136c80f4089f7f115b,2021-07-29_22h17.14.915,Simcolourproject_2stim_asymm_v5,2020.2.10,Win32,60,61025ae37ef11b136ea224fe,,,,,,,,,2223,70,37,1,0,0,response1disk,,6,2,-12,1,0,0,rectangle,2,-12,1,0,0,2,-12,1,0,0,0,81,81,88,1,,,,,,,,
,,,,,,,,,,,,,FF,,,,,,,,1.525,,,,,,,,,,,,,,,,,,,,,,60feedf44e7fa5131ac6597f,61036f136c80f4089f7f115b,2021-07-29_22h17.14.915,Simcolourproject_2stim_asymm_v5,2020.2.10,Win32,60,61025ae37ef11b136ea224fe,,,,,,,,,1580,84,-47,1,0,0,response3disk,,5,-5,3,1,0,0,rectangle,-5,3,1,0,0,-5,3,1,0,0,0,82,82,18,1,,,,,,,,
,,,,,,,,,,,,,FF,,,,,,,,1.341,,,,,,,,,,,,,,,,,,,,,,60feedf44e7fa5131ac6597f,61036f136c80f4089f7f115b,2021-07-29_22h17.14.915,Simcolourproject_2stim_asymm_v5,2020.2.10,Win32,60,61025ae37ef11b136ea224fe,,,,,,,,,1984,79,39,1,0,0,response1disk,,6,9,-3,1,0,0,rectangle,9,-3,1,0,0,9,-3,1,0,0,0,83,83,120,1,,,,,,,,
,,,,,,,,,,,,,FF,,,,,,,,1.212,,,,,,,,,,,,,,,,,,,,,,60feedf44e7fa5131ac6597f,61036f136c80f4089f7f115b,2021-07-29_22h17.14.915,Simcolourproject_2stim_asymm_v5,2020.2.10,Win32,60,61025ae37ef11b136ea224fe,,,,,,,,,3101,-29,-75,1,0,0,response5disk,,3,-6,-2,1,0,0,rectangle,-6,-2,1,0,0,-6,-2,1,0,0,0,84,84,5,1,,,,,,,,
,,,,,,,,,,,,,FF,,,,,,,,1.904,,,,,,,,,,,,,,,,,,,,,,60feedf44e7fa5131ac6597f,61036f136c80f4089f7f115b,2021-07-29_22h17.14.915,Simcolourproject_2stim_asymm_v5,2020.2.10,Win32,60,61025ae37ef11b136ea224fe,,,,,,,,,2335,107,34,1,0,0,response1disk,,6,-15,-5,1,0,0,rectangle,-15,-5,1,0,0,-15,-5,1,0,0,0,85,85,95,1,,,,,,,,
,,,,,,,,,,,,,FF,,,,,,,,3.082,,,,,,,,,,,,,,,,,,,,,,60feedf44e7fa5131ac6597f,61036f136c80f4089f7f115b,2021-07-29_22h17.14.915,Simcolourproject_2stim_asymm_v5,2020.2.10,Win32,60,61025ae37ef11b136ea224fe,,,,,,,,,949,-58,-85,1,0,0,response5disk,,3,-10,10,1,0,0,rectangle,-10,10,1,0,0,-10,10,1,0,0,0,86,86,140,1,,,,,,,,
,,,,,,,,,,,,,FF,,,,,,,,1.373,,,,,,,,,,,,,,,,,,,,,,60feedf44e7fa5131ac6597f,61036f136c80f4089f7f115b,2021-07-29_22h17.14.915,Simcolourproject_2stim_asymm_v5,2020.2.10,Win32,60,61025ae37ef11b136ea224fe,,,,,,,,,3143,-52,-108,1,0,0,response5disk,,3,13,5,1,0,0,rectangle,30,-96,1,0,0,1,-9,1,0,0,0,87,87,13,1,,response3disk_3,TRUE,4,4,"[153,203,161,33,135,47,300,252,215,72,174,143,88,3,322,289,143,130,154,246]",2.03,rectangle
,,,,,,,,,,,,,FF,,,,,,,,1.425,,,,,,,,,,,,,,,,,,,,,,60feedf44e7fa5131ac6597f,61036f136c80f4089f7f115b,2021-07-29_22h17.14.915,Simcolourproject_2stim_asymm_v5,2020.2.10,Win32,60,61025ae37ef11b136ea224fe,,,,,,,,,2835,-55,-65,1,0,0,response5disk,,3,-3,6,1,0,0,rectangle,-3,6,1,0,0,-3,6,1,0,0,0,88,88,7,1,,,,,,,,
,,,,,,,,,,,,,FF,,,,,,,,1.031,,,,,,,,,,,,,,,,,,,,,,60feedf44e7fa5131ac6597f,61036f136c80f4089f7f115b,2021-07-29_22h17.14.915,Simcolourproject_2stim_asymm_v5,2020.2.10,Win32,60,61025ae37ef11b136ea224fe,,,,,,,,,1970,-77,34,1,0,0,response7disk,,1,-20,8,1,0,0,rectangle,-20,8,1,0,0,-20,8,1,0,0,0,89,89,55,1,,,,,,,,
,,,,,,,,,,,,,FF,,,,,,,,1.066,,,,,,,,,,,,,,,,,,,,,,60feedf44e7fa5131ac6597f,61036f136c80f4089f7f115b,2021-07-29_22h17.14.915,Simcolourproject_2stim_asymm_v5,2020.2.10,Win32,60,61025ae37ef11b136ea224fe,,,,,,,,,4186,-80,-60,1,0,0,response5disk,,2,0,-4,1,0,0,rectangle,0,-4,1,0,0,0,-4,1,0,0,0,90,90,114,1,,,,,,,,
,,,,,,,,,,,,,FF,,,,,,,,3.288,,,,,,,,,,,,,,,,,,,,,,60feedf44e7fa5131ac6597f,61036f136c80f4089f7f115b,2021-07-29_22h17.14.915,Simcolourproject_2stim_asymm_v5,2020.2.10,Win32,60,61025ae37ef11b136ea224fe,,,,,,,,,1454,-63,-51,1,0,0,response5disk,,2,-9,-7,1,0,0,rectangle,-9,-7,1,0,0,-9,-7,1,0,0,0,91,91,41,1,,,,,,,,
,,,,,,,,,,,,,FF,,,,,,,,1.083,,,,,,,,,,,,,,,,,,,,,,60feedf44e7fa5131ac6597f,61036f136c80f4089f7f115b,2021-07-29_22h17.14.915,Simcolourproject_2stim_asymm_v5,2020.2.10,Win32,60,61025ae37ef11b136ea224fe,,,,,,,,,1286,-81,-36,1,0,0,response5disk,,2,-10,-9,1,0,0,rectangle,-10,-9,1,0,0,-10,-9,1,0,0,0,92,92,56,1,,,,,,,,
,,,,,,,,,,,,,FF,,,,,,,,1.772,,,,,,,,,,,,,,,,,,,,,,60feedf44e7fa5131ac6597f,61036f136c80f4089f7f115b,2021-07-29_22h17.14.915,Simcolourproject_2stim_asymm_v5,2020.2.10,Win32,60,61025ae37ef11b136ea224fe,,,,,,,,,636,98,54,1,0,0,response1disk,,6,7,-7,1,0,0,rectangle,7,-7,1,0,0,7,-7,1,0,0,0,93,93,37,1,,,,,,,,
,,,,,,,,,,,,,FF,,,,,,,,1.537,,,,,,,,,,,,,,,,,,,,,,60feedf44e7fa5131ac6597f,61036f136c80f4089f7f115b,2021-07-29_22h17.14.915,Simcolourproject_2stim_asymm_v5,2020.2.10,Win32,60,61025ae37ef11b136ea224fe,,,,,,,,,1101,33,57,1,0,0,response1disk,,7,1,1,1,0,0,rectangle,1,1,1,0,0,1,1,1,0,0,0,94,94,81,1,,,,,,,,
,,,,,,,,,,,,,FF,,,,,,,,1.961,,,,,,,,,,,,,,,,,,,,,,60feedf44e7fa5131ac6597f,61036f136c80f4089f7f115b,2021-07-29_22h17.14.915,Simcolourproject_2stim_asymm_v5,2020.2.10,Win32,60,61025ae37ef11b136ea224fe,,,,,,,,,4257,110,44,1,0,0,response1disk,,6,10,-10,1,0,0,rectangle,10,-10,1,0,0,10,-10,1,0,0,0,95,95,116,1,,,,,,,,
,,,,,,,,,,,,,FF,,,,,,,,1.183,,,,,,,,,,,,,,,,,,,,,,60feedf44e7fa5131ac6597f,61036f136c80f4089f7f115b,2021-07-29_22h17.14.915,Simcolourproject_2stim_asymm_v5,2020.2.10,Win32,60,61025ae37ef11b136ea224fe,,,,,,,,,1218,-81,53,1,0,0,response7disk,,1,-19,-12,1,0,0,rectangle,-19,-12,1,0,0,-19,-12,1,0,0,0,96,96,17,1,,,,,,,,
,,,,,,,,,,,,,FF,,,,,,,,1.267,,,,,,,,,,,,,,,,,,,,,,60feedf44e7fa5131ac6597f,61036f136c80f4089f7f115b,2021-07-29_22h17.14.915,Simcolourproject_2stim_asymm_v5,2020.2.10,Win32,60,61025ae37ef11b136ea224fe,,,,,,,,,566,88,30,1,0,0,response1disk,,6,2,2,1,0,0,rectangle,2,2,1,0,0,2,2,1,0,0,0,97,97,3,1,,,,,,,,
,,,,,,,,,,,,,FF,,,,,,,,1.409,,,,,,,,,,,,,,,,,,,,,,60feedf44e7fa5131ac6597f,61036f136c80f4089f7f115b,2021-07-29_22h17.14.915,Simcolourproject_2stim_asymm_v5,2020.2.10,Win32,60,61025ae37ef11b136ea224fe,,,,,,,,,3757,-59,-94,1,0,0,response5disk,,3,1,-10,1,0,0,rectangle,1,-10,1,0,0,1,-10,1,0,0,0,98,98,87,1,,,,,,,,
,,,,,,,,,,,,,FF,,,,,,,,1.083,,,,,,,,,,,,,,,,,,,,,,60feedf44e7fa5131ac6597f,61036f136c80f4089f7f115b,2021-07-29_22h17.14.915,Simcolourproject_2stim_asymm_v5,2020.2.10,Win32,60,61025ae37ef11b136ea224fe,,,,,,,,,4119,-68,-28,1,0,0,response5disk,,2,-26,-6,1,0,0,rectangle,-26,-6,1,0,0,-26,-6,1,0,0,0,99,99,64,1,,,,,,,,
,,,,,,,,,,,,,FF,,,,,,,,3.698,,,,,,,,,,,,,,,,,,,,,,60feedf44e7fa5131ac6597f,61036f136c80f4089f7f115b,2021-07-29_22h17.14.915,Simcolourproject_2stim_asymm_v5,2020.2.10,Win32,60,61025ae37ef11b136ea224fe,,,,,,,,,1059,-50,-18,1,0,0,response5disk,,2,-18,-15,1,0,0,rectangle,-18,-15,1,0,0,-18,-15,1,0,0,0,100,100,154,1,,,,,,,,
,,,,,,,,,,,,,FF,,,,,,,,7.391,,,,,,,,,,,,,,,,,,,,,,60feedf44e7fa5131ac6597f,61036f136c80f4089f7f115b,2021-07-29_22h17.14.915,Simcolourproject_2stim_asymm_v5,2020.2.10,Win32,60,61025ae37ef11b136ea224fe,,,,,,,,,1426,36,-74,1,0,0,response3disk,,4,-1,0,1,0,0,rectangle,-1,0,1,0,0,-1,0,1,0,0,0,101,101,122,1,,,,,,,,
,,,,,,,,,,,,,FF,,,,,,,,1.014,,,,,,,,,,,,,,,,,,,,,,60feedf44e7fa5131ac6597f,61036f136c80f4089f7f115b,2021-07-29_22h17.14.915,Simcolourproject_2stim_asymm_v5,2020.2.10,Win32,60,61025ae37ef11b136ea224fe,,,,,,,,,996,86,-35,1,0,0,response3disk,,5,10,13,1,0,0,rectangle,10,13,1,0,0,10,13,1,0,0,0,102,102,0,1,,,,,,,,
,,,,,,,,,,,,,FF,,,,,,,,1.668,,,,,,,,,,,,,,,,,,,,,,60feedf44e7fa5131ac6597f,61036f136c80f4089f7f115b,2021-07-29_22h17.14.915,Simcolourproject_2stim_asymm_v5,2020.2.10,Win32,60,61025ae37ef11b136ea224fe,,,,,,,,,3409,74,40,1,0,0,response1disk,,6,-2,10,1,0,0,rectangle,-2,10,1,0,0,-2,10,1,0,0,0,103,103,151,1,,,,,,,,
,,,,,,,,,,,,,FF,,,,,,,,1.42,,,,,,,,,,,,,,,,,,,,,,60feedf44e7fa5131ac6597f,61036f136c80f4089f7f115b,2021-07-29_22h17.14.915,Simcolourproject_2stim_asymm_v5,2020.2.10,Win32,60,61025ae37ef11b136ea224fe,,,,,,,,,3156,-46,-114,1,0,0,response5disk,,3,3,-5,1,0,0,rectangle,3,-5,1,0,0,3,-5,1,0,0,0,104,104,91,1,,,,,,,,
,,,,,,,,,,,,,FF,,,,,,,,0.933,,,,,,,,,,,,,,,,,,,,,,60feedf44e7fa5131ac6597f,61036f136c80f4089f7f115b,2021-07-29_22h17.14.915,Simcolourproject_2stim_asymm_v5,2020.2.10,Win32,60,61025ae37ef11b136ea224fe,,,,,,,,,2574,87,43,1,0,0,response1disk,,6,12,-2,1,0,0,rectangle,12,-2,1,0,0,12,-2,1,0,0,0,105,105,106,1,,,,,,,,
,,,,,,,,,,,,,FF,,,,,,,,1.078,,,,,,,,,,,,,,,,,,,,,,60feedf44e7fa5131ac6597f,61036f136c80f4089f7f115b,2021-07-29_22h17.14.915,Simcolourproject_2stim_asymm_v5,2020.2.10,Win32,60,61025ae37ef11b136ea224fe,,,,,,,,,2943,-36,-92,1,0,0,response5disk,,3,14,-12,1,0,0,rectangle,14,-12,1,0,0,14,-12,1,0,0,0,106,106,11,1,,,,,,,,
,,,,,,,,,,,,,FF,,,,,,,,0.873,,,,,,,,,,,,,,,,,,,,,,60feedf44e7fa5131ac6597f,61036f136c80f4089f7f115b,2021-07-29_22h17.14.915,Simcolourproject_2stim_asymm_v5,2020.2.10,Win32,60,61025ae37ef11b136ea224fe,,,,,,,,,357,69,-40,1,0,0,response3disk,,5,8,-3,1,0,0,rectangle,8,-3,1,0,0,8,-3,1,0,0,0,107,107,146,1,,,,,,,,
,,,,,,,,,,,,,FF,,,,,,,,1.763,,,,,,,,,,,,,,,,,,,,,,60feedf44e7fa5131ac6597f,61036f136c80f4089f7f115b,2021-07-29_22h17.14.915,Simcolourproject_2stim_asymm_v5,2020.2.10,Win32,60,61025ae37ef11b136ea224fe,,,,,,,,,1806,100,31,1,0,0,response1disk,,6,-3,0,1,0,0,rectangle,-3,0,1,0,0,-3,0,1,0,0,0,108,108,10,1,,,,,,,,
,,,,,,,,,,,,,FF,,,,,,,,1.258,,,,,,,,,,,,,,,,,,,,,,60feedf44e7fa5131ac6597f,61036f136c80f4089f7f115b,2021-07-29_22h17.14.915,Simcolourproject_2stim_asymm_v5,2020.2.10,Win32,60,61025ae37ef11b136ea224fe,,,,,,,,,935,87,44,1,0,0,response1disk,,6,0,6,1,0,0,rectangle,0,6,1,0,0,0,6,1,0,0,0,109,109,127,1,,,,,,,,
,,,,,,,,,,,,,FF,,,,,,,,2.138,,,,,,,,,,,,,,,,,,,,,,60feedf44e7fa5131ac6597f,61036f136c80f4089f7f115b,2021-07-29_22h17.14.915,Simcolourproject_2stim_asymm_v5,2020.2.10,Win32,60,61025ae37ef11b136ea224fe,,,,,,,,,3925,25,-98,1,0,0,response3disk,,4,-4,-8,1,0,0,rectangle,-4,-8,1,0,0,-4,-8,1,0,0,0,110,110,22,1,,,,,,,,
,,,,,,,,,,,,,FF,,,,,,,,1.128,,,,,,,,,,,,,,,,,,,,,,60feedf44e7fa5131ac6597f,61036f136c80f4089f7f115b,2021-07-29_22h17.14.915,Simcolourproject_2stim_asymm_v5,2020.2.10,Win32,60,61025ae37ef11b136ea224fe,,,,,,,,,3776,-57,110,1,0,0,response7disk,,0,-17,8,1,0,0,rectangle,-17,8,1,0,0,-17,8,1,0,0,0,111,111,143,1,,,,,,,,
,,,,,,,,,,,,,FF,,,,,,,,1.635,,,,,,,,,,,,,,,,,,,,,,60feedf44e7fa5131ac6597f,61036f136c80f4089f7f115b,2021-07-29_22h17.14.915,Simcolourproject_2stim_asymm_v5,2020.2.10,Win32,60,61025ae37ef11b136ea224fe,,,,,,,,,3909,-104,-42,1,0,0,response5disk,,2,-2,-11,1,0,0,rectangle,-2,-11,1,0,0,-2,-11,1,0,0,0,112,112,24,1,,,,,,,,
,,,,,,,,,,,,,FF,,,,,,,,1.377,,,,,,,,,,,,,,,,,,,,,,60feedf44e7fa5131ac6597f,61036f136c80f4089f7f115b,2021-07-29_22h17.14.915,Simcolourproject_2stim_asymm_v5,2020.2.10,Win32,60,61025ae37ef11b136ea224fe,,,,,,,,,3128,46,86,1,0,0,response1disk,,7,-28,-3,1,0,0,rectangle,-28,-3,1,0,0,-28,-3,1,0,0,0,113,113,141,1,,,,,,,,
,,,,,,,,,,,,,FF,,,,,,,,1.31,,,,,,,,,,,,,,,,,,,,,,60feedf44e7fa5131ac6597f,61036f136c80f4089f7f115b,2021-07-29_22h17.14.915,Simcolourproject_2stim_asymm_v5,2020.2.10,Win32,60,61025ae37ef11b136ea224fe,,,,,,,,,3298,-78,-38,1,0,0,response5disk,,2,12,10,1,0,0,rectangle,12,10,1,0,0,12,10,1,0,0,0,114,114,83,1,,,,,,,,
,,,,,,,,,,,,,FF,,,,,,,,1.133,,,,,,,,,,,,,,,,,,,,,,60feedf44e7fa5131ac6597f,61036f136c80f4089f7f115b,2021-07-29_22h17.14.915,Simcolourproject_2stim_asymm_v5,2020.2.10,Win32,60,61025ae37ef11b136ea224fe,,,,,,,,,3276,90,-47,1,0,0,response3disk,,5,-4,5,1,0,0,rectangle,-4,5,1,0,0,-4,5,1,0,0,0,115,115,110,1,,,,,,,,
,,,,,,,,,,,,,FF,,,,,,,,1.106,,,,,,,,,,,,,,,,,,,,,,60feedf44e7fa5131ac6597f,61036f136c80f4089f7f115b,2021-07-29_22h17.14.915,Simcolourproject_2stim_asymm_v5,2020.2.10,Win32,60,61025ae37ef11b136ea224fe,,,,,,,,,2978,33,24,1,0,0,response1disk,,6,10,12,1,0,0,rectangle,10,12,1,0,0,10,12,1,0,0,0,116,116,54,1,,,,,,,,
,,,,,,,,,,,,,FF,,,,,,,,1.464,,,,,,,,,,,,,,,,,,,,,,60feedf44e7fa5131ac6597f,61036f136c80f4089f7f115b,2021-07-29_22h17.14.915,Simcolourproject_2stim_asymm_v5,2020.2.10,Win32,60,61025ae37ef11b136ea224fe,,,,,,,,,472,62,38,1,0,0,response1disk,,6,2,6,1,0,0,rectangle,2,6,1,0,0,2,6,1,0,0,0,117,117,134,1,,,,,,,,
,,,,,,,,,,,,,FF,,,,,,,,1.756,,,,,,,,,,,,,,,,,,,,,,60feedf44e7fa5131ac6597f,61036f136c80f4089f7f115b,2021-07-29_22h17.14.915,Simcolourproject_2stim_asymm_v5,2020.2.10,Win32,60,61025ae37ef11b136ea224fe,,,,,,,,,3463,-46,-78,1,0,0,response5disk,,3,0,-6,1,0,0,rectangle,0,-6,1,0,0,0,-6,1,0,0,0,118,118,1,1,,,,,,,,
,,,,,,,,,,,,,FF,,,,,,,,1.102,,,,,,,,,,,,,,,,,,,,,,60feedf44e7fa5131ac6597f,61036f136c80f4089f7f115b,2021-07-29_22h17.14.915,Simcolourproject_2stim_asymm_v5,2020.2.10,Win32,60,61025ae37ef11b136ea224fe,,,,,,,,,1379,-54,-80,1,0,0,response5disk,,3,7,-14,1,0,0,rectangle,7,-14,1,0,0,7,-14,1,0,0,0,119,119,156,1,,,,,,,,
,,,,,,,,,,,,,FF,,,,,,,,1.39,,,,,,,,,,,,,,,,,,,,,,60feedf44e7fa5131ac6597f,61036f136c80f4089f7f115b,2021-07-29_22h17.14.915,Simcolourproject_2stim_asymm_v5,2020.2.10,Win32,60,61025ae37ef11b136ea224fe,,,,,,,,,187,-84,-54,1,0,0,response5disk,,2,-4,15,1,0,0,rectangle,-4,15,1,0,0,-4,15,1,0,0,0,120,120,66,1,,,,,,,,
,,,,,,,,,,,,,FF,,,,,,,,1.779,,,,,,,,,,,,,,,,,,,,,,60feedf44e7fa5131ac6597f,61036f136c80f4089f7f115b,2021-07-29_22h17.14.915,Simcolourproject_2stim_asymm_v5,2020.2.10,Win32,60,61025ae37ef11b136ea224fe,,,,,,,,,1626,56,76,1,0,0,response1disk,,7,4,-2,1,0,0,rectangle,4,-2,1,0,0,4,-2,1,0,0,0,121,121,111,1,,,,,,,,
,,,,,,,,,,,,,FF,,,,,,,,1.636,,,,,,,,,,,,,,,,,,,,,,60feedf44e7fa5131ac6597f,61036f136c80f4089f7f115b,2021-07-29_22h17.14.915,Simcolourproject_2stim_asymm_v5,2020.2.10,Win32,60,61025ae37ef11b136ea224fe,,,,,,,,,378,-38,-68,1,0,0,response5disk,,3,-5,13,1,0,0,rectangle,-5,13,1,0,0,-5,13,1,0,0,0,122,122,26,1,,,,,,,,
,,,,,,,,,,,,,FF,,,,,,,,1.823,,,,,,,,,,,,,,,,,,,,,,60feedf44e7fa5131ac6597f,61036f136c80f4089f7f115b,2021-07-29_22h17.14.915,Simcolourproject_2stim_asymm_v5,2020.2.10,Win32,60,61025ae37ef11b136ea224fe,,,,,,,,,3165,85,-45,1,0,0,response3disk,,5,5,-2,1,0,0,rectangle,5,-2,1,0,0,5,-2,1,0,0,0,123,123,34,1,,,,,,,,
,,,,,,,,,,,,,FF,,,,,,,,1.436,,,,,,,,,,,,,,,,,,,,,,60feedf44e7fa5131ac6597f,61036f136c80f4089f7f115b,2021-07-29_22h17.14.915,Simcolourproject_2stim_asymm_v5,2020.2.10,Win32,60,61025ae37ef11b136ea224fe,,,,,,,,,1031,48,73,1,0,0,response1disk,,7,16,2,1,0,0,rectangle,16,2,1,0,0,16,2,1,0,0,0,124,124,109,1,,,,,,,,
,,,,,,,,,,,,,FF,,,,,,,,2.048,,,,,,,,,,,,,,,,,,,,,,60feedf44e7fa5131ac6597f,61036f136c80f4089f7f115b,2021-07-29_22h17.14.915,Simcolourproject_2stim_asymm_v5,2020.2.10,Win32,60,61025ae37ef11b136ea224fe,,,,,,,,,2644,61,46,1,0,0,response1disk,,6,-1,-3,1,0,0,rectangle,-1,-3,1,0,0,-1,-3,1,0,0,0,125,125,82,1,,,,,,,,
,,,,,,,,,,,,,FF,,,,,,,,1.545,,,,,,,,,,,,,,,,,,,,,,60feedf44e7fa5131ac6597f,61036f136c80f4089f7f115b,2021-07-29_22h17.14.915,Simcolourproject_2stim_asymm_v5,2020.2.10,Win32,60,61025ae37ef11b136ea224fe,,,,,,,,,1632,-46,-81,1,0,0,response5disk,,3,11,6,1,0,0,rectangle,11,6,1,0,0,11,6,1,0,0,0,126,126,157,1,,,,,,,,
,,,,,,,,,,,,,FF,,,,,,,,1.267,,,,,,,,,,,,,,,,,,,,,,60feedf44e7fa5131ac6597f,61036f136c80f4089f7f115b,2021-07-29_22h17.14.915,Simcolourproject_2stim_asymm_v5,2020.2.10,Win32,60,61025ae37ef11b136ea224fe,,,,,,,,,1699,54,84,1,0,0,response1disk,,7,8,12,1,0,0,rectangle,8,12,1,0,0,8,12,1,0,0,0,127,127,85,1,,,,,,,,
,,,,,,,,,,,,,FF,,,,,,,,3.422,,,,,,,,,,,,,,,,,,,,,,60feedf44e7fa5131ac6597f,61036f136c80f4089f7f115b,2021-07-29_22h17.14.915,Simcolourproject_2stim_asymm_v5,2020.2.10,Win32,60,61025ae37ef11b136ea224fe,,,,,,,,,1273,83,58,1,0,0,response1disk,,6,10,1,1,0,0,rectangle,10,1,1,0,0,10,1,1,0,0,0,128,128,139,1,,,,,,,,
,,,,,,,,,,,,,FF,,,,,,,,1.367,,,,,,,,,,,,,,,,,,,,,,60feedf44e7fa5131ac6597f,61036f136c80f4089f7f115b,2021-07-29_22h17.14.915,Simcolourproject_2stim_asymm_v5,2020.2.10,Win32,60,61025ae37ef11b136ea224fe,,,,,,,,,986,-66,-23,1,0,0,response5disk,,2,-9,6,1,0,0,rectangle,54,-115,1,0,0,-3,-6,1,0,0,0,129,129,9,1,,response3disk_3,TRUE,4,4,"[153,203,161,33,135,47,300,252,215,72,174,143,88,3,322,289,143,130,154,246]",1.98,rectangle
,,,,,,,,,,,,,FF,,,,,,,,1.188,,,,,,,,,,,,,,,,,,,,,,60feedf44e7fa5131ac6597f,61036f136c80f4089f7f115b,2021-07-29_22h17.14.915,Simcolourproject_2stim_asymm_v5,2020.2.10,Win32,60,61025ae37ef11b136ea224fe,,,,,,,,,3065,-74,-43,1,0,0,response5disk,,2,-4,-7,1,0,0,rectangle,-4,-7,1,0,0,-4,-7,1,0,0,0,130,130,125,1,,,,,,,,
,,,,,,,,,,,,,FF,,,,,,,,1.219,,,,,,,,,,,,,,,,,,,,,,60feedf44e7fa5131ac6597f,61036f136c80f4089f7f115b,2021-07-29_22h17.14.915,Simcolourproject_2stim_asymm_v5,2020.2.10,Win32,60,61025ae37ef11b136ea224fe,,,,,,,,,3576,85,-35,1,0,0,response3disk,,5,14,6,1,0,0,rectangle,14,6,1,0,0,14,6,1,0,0,0,131,131,35,1,,,,,,,,
,,,,,,,,,,,,,FF,,,,,,,,1.682,,,,,,,,,,,,,,,,,,,,,,60feedf44e7fa5131ac6597f,61036f136c80f4089f7f115b,2021-07-29_22h17.14.915,Simcolourproject_2stim_asymm_v5,2020.2.10,Win32,60,61025ae37ef11b136ea224fe,,,,,,,,,899,-75,-39,1,0,0,response5disk,,2,-2,16,1,0,0,rectangle,-2,16,1,0,0,-2,16,1,0,0,0,132,132,124,1,,,,,,,,
,,,,,,,,,,,,,FF,,,,,,,,1.101,,,,,,,,,,,,,,,,,,,,,,60feedf44e7fa5131ac6597f,61036f136c80f4089f7f115b,2021-07-29_22h17.14.915,Simcolourproject_2stim_asymm_v5,2020.2.10,Win32,60,61025ae37ef11b136ea224fe,,,,,,,,,2509,85,58,1,0,0,response1disk,,6,9,2,1,0,0,rectangle,9,2,1,0,0,9,2,1,0,0,0,133,133,16,1,,,,,,,,
,,,,,,,,,,,,,FF,,,,,,,,1.619,,,,,,,,,,,,,,,,,,,,,,60feedf44e7fa5131ac6597f,61036f136c80f4089f7f115b,2021-07-29_22h17.14.915,Simcolourproject_2stim_asymm_v5,2020.2.10,Win32,60,61025ae37ef11b136ea224fe,,,,,,,,,4064,110,62,1,0,0,response1disk,,6,10,-17,1,0,0,rectangle,-46,-87,1,0,0,-6,-11,1,0,0,0,134,134,133,1,,response5disk_3,TRUE,3,3,"[153,203,161,33,135,47,300,252,215,72,174,143,88,3,322,289,143,130,154,246]",1.717,rectangle
,,,,,,,,,,,,,FF,,,,,,,,1.091,,,,,,,,,,,,,,,,,,,,,,60feedf44e7fa5131ac6597f,61036f136c80f4089f7f115b,2021-07-29_22h17.14.915,Simcolourproject_2stim_asymm_v5,2020.2.10,Win32,60,61025ae37ef11b136ea224fe,,,,,,,,,483,69,34,1,0,0,response1disk,,6,4,-2,1,0,0,rectangle,4,-2,1,0,0,4,-2,1,0,0,0,135,135,48,1,,,,,,,,
,,,,,,,,,,,,,FF,,,,,,,,1.634,,,,,,,,,,,,,,,,,,,,,,60feedf44e7fa5131ac6597f,61036f136c80f4089f7f115b,2021-07-29_22h17.14.915,Simcolourproject_2stim_asymm_v5,2020.2.10,Win32,60,61025ae37ef11b136ea224fe,,,,,,,,,2258,63,40,1,0,0,response1disk,,6,-5,9,1,0,0,rectangle,-5,9,1,0,0,-5,9,1,0,0,0,136,136,44,1,,,,,,,,
,,,,,,,,,,,,,FF,,,,,,,,1.224,,,,,,,,,,,,,,,,,,,,,,60feedf44e7fa5131ac6597f,61036f136c80f4089f7f115b,2021-07-29_22h17.14.915,Simcolourproject_2stim_asymm_v5,2020.2.10,Win32,60,61025ae37ef11b136ea224fe,,,,,,,,,1049,81,41,1,0,0,response1disk,,6,-14,3,1,0,0,rectangle,-14,3,1,0,0,-14,3,1,0,0,0,137,137,92,1,,,,,,,,
,,,,,,,,,,,,,FF,,,,,,,,1.214,,,,,,,,,,,,,,,,,,,,,,60feedf44e7fa5131ac6597f,61036f136c80f4089f7f115b,2021-07-29_22h17.14.915,Simcolourproject_2stim_asymm_v5,2020.2.10,Win32,60,61025ae37ef11b136ea224fe,,,,,,,,,4149,-66,-92,1,0,0,response5disk,,3,12,-4,1,0,0,rectangle,12,-4,1,0,0,12,-4,1,0,0,0,138,138,158,1,,,,,,,,
,,,,,,,,,,,,,FF,,,,,,,,0.965,,,,,,,,,,,,,,,,,,,,,,60feedf44e7fa5131ac6597f,61036f136c80f4089f7f115b,2021-07-29_22h17.14.915,Simcolourproject_2stim_asymm_v5,2020.2.10,Win32,60,61025ae37ef11b136ea224fe,,,,,,,,,2103,-42,-102,1,0,0,response5disk,,3,-1,-8,1,0,0,rectangle,-1,-8,1,0,0,-1,-8,1,0,0,0,139,139,117,1,,,,,,,,
,,,,,,,,,,,,,FF,,,,,,,,1.014,,,,,,,,,,,,,,,,,,,,,,60feedf44e7fa5131ac6597f,61036f136c80f4089f7f115b,2021-07-29_22h17.14.915,Simcolourproject_2stim_asymm_v5,2020.2.10,Win32,60,61025ae37ef11b136ea224fe,,,,,,,,,418,78,42,1,0,0,response1disk,,6,21,2,1,0,0,rectangle,21,2,1,0,0,21,2,1,0,0,0,140,140,98,1,,,,,,,,
,,,,,,,,,,,,,FF,,,,,,,,2.43,,,,,,,,,,,,,,,,,,,,,,60feedf44e7fa5131ac6597f,61036f136c80f4089f7f115b,2021-07-29_22h17.14.915,Simcolourproject_2stim_asymm_v5,2020.2.10,Win32,60,61025ae37ef11b136ea224fe,,,,,,,,,4154,42,95,1,0,0,response1disk,,7,14,-13,1,0,0,rectangle,14,-13,1,0,0,14,-13,1,0,0,0,141,141,136,1,,,,,,,,
,,,,,,,,,,,,,FF,,,,,,,,1.549,,,,,,,,,,,,,,,,,,,,,,60feedf44e7fa5131ac6597f,61036f136c80f4089f7f115b,2021-07-29_22h17.14.915,Simcolourproject_2stim_asymm_v5,2020.2.10,Win32,60,61025ae37ef11b136ea224fe,,,,,,,,,2465,51,82,1,0,0,response1disk,,7,7,3,1,0,0,rectangle,78,-41,1,0,0,11,-2,1,0,0,0,142,142,47,1,,response3disk_3,TRUE,5,5,"[153,203,161,33,135,47,300,252,215,72,174,143,88,3,322,289,143,130,154,246]",1.603,rectangle
,,,,,,,,,,,,,FF,,,,,,,,1.329,,,,,,,,,,,,,,,,,,,,,,60feedf44e7fa5131ac6597f,61036f136c80f4089f7f115b,2021-07-29_22h17.14.915,Simcolourproject_2stim_asymm_v5,2020.2.10,Win32,60,61025ae37ef11b136ea224fe,,,,,,,,,3778,-74,30,1,0,0,response7disk,,1,-3,-10,1,0,0,rectangle,-3,-10,1,0,0,-3,-10,1,0,0,0,143,143,45,1,,,,,,,,
,,,,,,,,,,,,,FF,,,,,,,,1.96,,,,,,,,,,,,,,,,,,,,,,60feedf44e7fa5131ac6597f,61036f136c80f4089f7f115b,2021-07-29_22h17.14.915,Simcolourproject_2stim_asymm_v5,2020.2.10,Win32,60,61025ae37ef11b136ea224fe,,,,,,,,,4172,114,30,1,0,0,response1disk,,6,-14,-10,1,0,0,rectangle,-14,-10,1,0,0,-14,-10,1,0,0,0,144,144,53,1,,,,,,,,
,,,,,,,,,,,,,FF,,,,,,,,1.718,,,,,,,,,,,,,,,,,,,,,,60feedf44e7fa5131ac6597f,61036f136c80f4089f7f115b,2021-07-29_22h17.14.915,Simcolourproject_2stim_asymm_v5,2020.2.10,Win32,60,61025ae37ef11b136ea224fe,,,,,,,,,4039,-18,-70,1,0,0,response5disk,,3,1,-13,1,0,0,rectangle,1,-13,1,0,0,1,-13,1,0,0,0,145,145,30,1,,,,,,,,
,,,,,,,,,,,,,FF,,,,,,,,1.142,,,,,,,,,,,,,,,,,,,,,,60feedf44e7fa5131ac6597f,61036f136c80f4089f7f115b,2021-07-29_22h17.14.915,Simcolourproject_2stim_asymm_v5,2020.2.10,Win32,60,61025ae37ef11b136ea224fe,,,,,,,,,3150,-60,-28,1,0,0,response5disk,,2,-4,-4,1,0,0,rectangle,-4,-4,1,0,0,-4,-4,1,0,0,0,146,146,84,1,,,,,,,,
,,,,,,,,,,,,,FF,,,,,,,,1.302,,,,,,,,,,,,,,,,,,,,,,60feedf44e7fa5131ac6597f,61036f136c80f4089f7f115b,2021-07-29_22h17.14.915,Simcolourproject_2stim_asymm_v5,2020.2.10,Win32,60,61025ae37ef11b136ea224fe,,,,,,,,,4090,42,-61,1,0,0,response3disk,,4,0,-2,1,0,0,rectangle,0,-2,1,0,0,0,-2,1,0,0,0,147,147,52,1,,,,,,,,
,,,,,,,,,,,,,FF,,,,,,,,1.542,,,,,,,,,,,,,,,,,,,,,,60feedf44e7fa5131ac6597f,61036f136c80f4089f7f115b,2021-07-29_22h17.14.915,Simcolourproject_2stim_asymm_v5,2020.2.10,Win32,60,61025ae37ef11b136ea224fe,,,,,,,,,219,87,-49,1,0,0,response3disk,,5,18,-8,1,0,0,rectangle,18,-8,1,0,0,18,-8,1,0,0,0,148,148,108,1,,,,,,,,
,,,,,,,,,,,,,FF,,,,,,,,1.225,,,,,,,,,,,,,,,,,,,,,,60feedf44e7fa5131ac6597f,61036f136c80f4089f7f115b,2021-07-29_22h17.14.915,Simcolourproject_2stim_asymm_v5,2020.2.10,Win32,60,61025ae37ef11b136ea224fe,,,,,,,,,845,90,38,1,0,0,response1disk,,6,4,-7,1,0,0,rectangle,4,-7,1,0,0,4,-7,1,0,0,0,149,149,112,1,,,,,,,,
,,,,,,,,,,,,,FF,,,,,,,,1.201,,,,,,,,,,,,,,,,,,,,,,60feedf44e7fa5131ac6597f,61036f136c80f4089f7f115b,2021-07-29_22h17.14.915,Simcolourproject_2stim_asymm_v5,2020.2.10,Win32,60,61025ae37ef11b136ea224fe,,,,,,,,,2288,-38,-70,1,0,0,response5disk,,3,5,7,1,0,0,rectangle,5,7,1,0,0,5,7,1,0,0,0,150,150,21,1,,,,,,,,
,,,,,,,,,,,,,FF,,,,,,,,1.225,,,,,,,,,,,,,,,,,,,,,,60feedf44e7fa5131ac6597f,61036f136c80f4089f7f115b,2021-07-29_22h17.14.915,Simcolourproject_2stim_asymm_v5,2020.2.10,Win32,60,61025ae37ef11b136ea224fe,,,,,,,,,3764,76,-45,1,0,0,response3disk,,5,2,-6,1,0,0,rectangle,2,-6,1,0,0,2,-6,1,0,0,0,151,151,96,1,,,,,,,,
,,,,,,,,,,,,,FF,,,,,,,,1.357,,,,,,,,,,,,,,,,,,,,,,60feedf44e7fa5131ac6597f,61036f136c80f4089f7f115b,2021-07-29_22h17.14.915,Simcolourproject_2stim_asymm_v5,2020.2.10,Win32,60,61025ae37ef11b136ea224fe,,,,,,,,,2991,48,71,1,0,0,response1disk,,7,-10,-3,1,0,0,rectangle,-92,44,1,0,0,-19,2,1,0,0,0,152,152,113,1,,response7disk_3,TRUE,1,1,"[153,203,161,33,135,47,300,252,215,72,174,143,88,3,322,289,143,130,154,246]",1.401,rectangle
,,,,,,,,,,,,,FF,,,,,,,,1.154,,,,,,,,,,,,,,,,,,,,,,60feedf44e7fa5131ac6597f,61036f136c80f4089f7f115b,2021-07-29_22h17.14.915,Simcolourproject_2stim_asymm_v5,2020.2.10,Win32,60,61025ae37ef11b136ea224fe,,,,,,,,,2971,56,97,1,0,0,response1disk,,7,-2,6,1,0,0,rectangle,38,-85,1,0,0,-4,-7,1,0,0,0,153,153,104,1,,response3disk_3,TRUE,4,4,"[153,203,161,33,135,47,300,252,215,72,174,143,88,3,322,289,143,130,154,246]",1.679,rectangle
,,,,,,,,,,,,,FF,,,,,,,,1.13,,,,,,,,,,,,,,,,,,,,,,60feedf44e7fa5131ac6597f,61036f136c80f4089f7f115b,2021-07-29_22h17.14.915,Simcolourproject_2stim_asymm_v5,2020.2.10,Win32,60,61025ae37ef11b136ea224fe,,,,,,,,,1963,-51,78,1,0,0,response7disk,,0,-1,-15,1,0,0,rectangle,-1,-15,1,0,0,-1,-15,1,0,0,0,154,154,59,1,,,,,,,,
,,,,,,,,,,,,,FF,,,,,,,,1.225,,,,,,,,,,,,,,,,,,,,,,60feedf44e7fa5131ac6597f,61036f136c80f4089f7f115b,2021-07-29_22h17.14.915,Simcolourproject_2stim_asymm_v5,2020.2.10,Win32,60,61025ae37ef11b136ea224fe,,,,,,,,,1561,94,41,1,0,0,response1disk,,6,6,-1,1,0,0,rectangle,6,-1,1,0,0,6,-1,1,0,0,0,155,155,145,1,,,,,,,,
,,,,,,,,,,,,,FF,,,,,,,,2.388,,,,,,,,,,,,,,,,,,,,,,60feedf44e7fa5131ac6597f,61036f136c80f4089f7f115b,2021-07-29_22h17.14.915,Simcolourproject_2stim_asymm_v5,2020.2.10,Win32,60,61025ae37ef11b136ea224fe,,,,,,,,,3171,87,46,1,0,0,response1disk,,6,6,7,1,0,0,rectangle,6,7,1,0,0,6,7,1,0,0,0,156,156,100,1,,,,,,,,
,,,,,,,,,,,,,FF,,,,,,,,1.119,,,,,,,,,,,,,,,,,,,,,,60feedf44e7fa5131ac6597f,61036f136c80f4089f7f115b,2021-07-29_22h17.14.915,Simcolourproject_2stim_asymm_v5,2020.2.10,Win32,60,61025ae37ef11b136ea224fe,,,,,,,,,2624,42,106,1,0,0,response1disk,,7,-8,-6,1,0,0,rectangle,-8,-6,1,0,0,-8,-6,1,0,0,0,157,157,130,1,,,,,,,,
,,,,,,,,,,,,,FF,,,,,,,,1,,,,,,,,,,,,,,,,,,,,,,60feedf44e7fa5131ac6597f,61036f136c80f4089f7f115b,2021-07-29_22h17.14.915,Simcolourproject_2stim_asymm_v5,2020.2.10,Win32,60,61025ae37ef11b136ea224fe,,,,,,,,,3459,25,88,1,0,0,response1disk,,7,6,-1,1,0,0,rectangle,6,-1,1,0,0,6,-1,1,0,0,0,158,158,135,1,,,,,,,,
,,,,,,,,,,,,,FF,,,,,,,,1.246,,,,,,,,,,,,,,,,,,,,,,60feedf44e7fa5131ac6597f,61036f136c80f4089f7f115b,2021-07-29_22h17.14.915,Simcolourproject_2stim_asymm_v5,2020.2.10,Win32,60,61025ae37ef11b136ea224fe,,,,,,,,,3026,90,53,1,0,0,response1disk,,6,-6,2,1,0,0,rectangle,-6,2,1,0,0,-6,2,1,0,0,0,159,159,148,1,,,,,,,,
,,,,,,,,,,,,,FF,,,,,,,,1.181,,,,,,,,,,,,,,,,,,,,,,60feedf44e7fa5131ac6597f,61036f136c80f4089f7f115b,2021-07-29_22h17.14.915,Simcolourproject_2stim_asymm_v5,2020.2.10,Win32,60,61025ae37ef11b136ea224fe,,,,,,,,,1069,-30,-99,1,0,0,response5disk,,3,7,-3,1,0,0,rectangle,98,38,1,0,0,14,4,1,0,0,1,0,160,22,1,,response1disk_3,TRUE,6,6,"[153,203,161,33,135,47,300,252,215,72,174,143,88,3,322,289,143,130,154,246]",1.525,rectangle
,,,,,,,,,,,,,FF,,,,,,,,1.131,,,,,,,,,,,,,,,,,,,,,,60feedf44e7fa5131ac6597f,61036f136c80f4089f7f115b,2021-07-29_22h17.14.915,Simcolourproject_2stim_asymm_v5,2020.2.10,Win32,60,61025ae37ef11b136ea224fe,,,,,,,,,1843,31,84,1,0,0,response1disk,,7,-2,0,1,0,0,rectangle,-2,0,1,0,0,-2,0,1,0,0,1,1,161,73,1,,,,,,,,
,,,,,,,,,,,,,FF,,,,,,,,2.347,,,,,,,,,,,,,,,,,,,,,,60feedf44e7fa5131ac6597f,61036f136c80f4089f7f115b,2021-07-29_22h17.14.915,Simcolourproject_2stim_asymm_v5,2020.2.10,Win32,60,61025ae37ef11b136ea224fe,,,,,,,,,4013,90,41,1,0,0,response1disk,,6,6,-3,1,0,0,rectangle,6,-3,1,0,0,6,-3,1,0,0,1,2,162,113,1,,,,,,,,
,,,,,,,,,,,,,FF,,,,,,,,1.254,,,,,,,,,,,,,,,,,,,,,,60feedf44e7fa5131ac6597f,61036f136c80f4089f7f115b,2021-07-29_22h17.14.915,Simcolourproject_2stim_asymm_v5,2020.2.10,Win32,60,61025ae37ef11b136ea224fe,,,,,,,,,3566,-32,-83,1,0,0,response5disk,,3,4,3,1,0,0,rectangle,4,3,1,0,0,4,3,1,0,0,1,3,163,109,1,,,,,,,,
,,,,,,,,,,,,,FF,,,,,,,,1.204,,,,,,,,,,,,,,,,,,,,,,60feedf44e7fa5131ac6597f,61036f136c80f4089f7f115b,2021-07-29_22h17.14.915,Simcolourproject_2stim_asymm_v5,2020.2.10,Win32,60,61025ae37ef11b136ea224fe,,,,,,,,,3899,-70,-42,1,0,0,response5disk,,2,-6,4,1,0,0,rectangle,-6,4,1,0,0,-6,4,1,0,0,1,4,164,49,1,,,,,,,,
,,,,,,,,,,,,,FF,,,,,,,,1.367,,,,,,,,,,,,,,,,,,,,,,60feedf44e7fa5131ac6597f,61036f136c80f4089f7f115b,2021-07-29_22h17.14.915,Simcolourproject_2stim_asymm_v5,2020.2.10,Win32,60,61025ae37ef11b136ea224fe,,,,,,,,,4211,97,54,1,0,0,response1disk,,6,-4,-2,1,0,0,rectangle,-4,-2,1,0,0,-4,-2,1,0,0,1,5,165,13,1,,,,,,,,
,,,,,,,,,,,,,FF,,,,,,,,1.017,,,,,,,,,,,,,,,,,,,,,,60feedf44e7fa5131ac6597f,61036f136c80f4089f7f115b,2021-07-29_22h17.14.915,Simcolourproject_2stim_asymm_v5,2020.2.10,Win32,60,61025ae37ef11b136ea224fe,,,,,,,,,3392,-75,-31,1,0,0,response5disk,,2,2,8,1,0,0,rectangle,2,8,1,0,0,2,8,1,0,0,1,6,166,34,1,,,,,,,,
,,,,,,,,,,,,,FF,,,,,,,,0.988,,,,,,,,,,,,,,,,,,,,,,60feedf44e7fa5131ac6597f,61036f136c80f4089f7f115b,2021-07-29_22h17.14.915,Simcolourproject_2stim_asymm_v5,2020.2.10,Win32,60,61025ae37ef11b136ea224fe,,,,,,,,,3199,72,-41,1,0,0,response3disk,,5,2,3,1,0,0,rectangle,2,3,1,0,0,2,3,1,0,0,1,7,167,68,1,,,,,,,,
,,,,,,,,,,,,,FF,,,,,,,,0.948,,,,,,,,,,,,,,,,,,,,,,60feedf44e7fa5131ac6597f,61036f136c80f4089f7f115b,2021-07-29_22h17.14.915,Simcolourproject_2stim_asymm_v5,2020.2.10,Win32,60,61025ae37ef11b136ea224fe,,,,,,,,,3232,70,43,1,0,0,response1disk,,6,5,11,1,0,0,rectangle,5,11,1,0,0,5,11,1,0,0,1,8,168,81,1,,,,,,,,
,,,,,,,,,,,,,FF,,,,,,,,1.115,,,,,,,,,,,,,,,,,,,,,,60feedf44e7fa5131ac6597f,61036f136c80f4089f7f115b,2021-07-29_22h17.14.915,Simcolourproject_2stim_asymm_v5,2020.2.10,Win32,60,61025ae37ef11b136ea224fe,,,,,,,,,3493,77,24,1,0,0,response1disk,,6,-1,-13,1,0,0,rectangle,-1,-13,1,0,0,-1,-13,1,0,0,1,9,169,44,1,,,,,,,,
,,,,,,,,,,,,,FF,,,,,,,,1.357,,,,,,,,,,,,,,,,,,,,,,60feedf44e7fa5131ac6597f,61036f136c80f4089f7f115b,2021-07-29_22h17.14.915,Simcolourproject_2stim_asymm_v5,2020.2.10,Win32,60,61025ae37ef11b136ea224fe,,,,,,,,,545,-69,-40,1,0,0,response5disk,,2,8,2,1,0,0,rectangle,8,2,1,0,0,8,2,1,0,0,1,10,170,89,1,,,,,,,,
,,,,,,,,,,,,,FF,,,,,,,,1.7,,,,,,,,,,,,,,,,,,,,,,60feedf44e7fa5131ac6597f,61036f136c80f4089f7f115b,2021-07-29_22h17.14.915,Simcolourproject_2stim_asymm_v5,2020.2.10,Win32,60,61025ae37ef11b136ea224fe,,,,,,,,,4258,63,99,1,0,0,response1disk,,7,-9,-10,1,0,0,rectangle,-9,-10,1,0,0,-9,-10,1,0,0,1,11,171,61,1,,,,,,,,
,,,,,,,,,,,,,FF,,,,,,,,1.024,,,,,,,,,,,,,,,,,,,,,,60feedf44e7fa5131ac6597f,61036f136c80f4089f7f115b,2021-07-29_22h17.14.915,Simcolourproject_2stim_asymm_v5,2020.2.10,Win32,60,61025ae37ef11b136ea224fe,,,,,,,,,4240,-48,-85,1,0,0,response5disk,,3,3,-9,1,0,0,rectangle,3,-9,1,0,0,3,-9,1,0,0,1,12,172,24,1,,,,,,,,
,,,,,,,,,,,,,FF,,,,,,,,1.074,,,,,,,,,,,,,,,,,,,,,,60feedf44e7fa5131ac6597f,61036f136c80f4089f7f115b,2021-07-29_22h17.14.915,Simcolourproject_2stim_asymm_v5,2020.2.10,Win32,60,61025ae37ef11b136ea224fe,,,,,,,,,3798,73,36,1,0,0,response1disk,,6,-6,-2,1,0,0,rectangle,94,-46,1,0,0,4,-2,1,0,0,1,13,173,152,1,,response3disk_3,TRUE,5,5,"[153,203,161,33,135,47,300,252,215,72,174,143,88,3,322,289,143,130,154,246]",1.327,rectangle
,,,,,,,,,,,,,FF,,,,,,,,2.377,,,,,,,,,,,,,,,,,,,,,,60feedf44e7fa5131ac6597f,61036f136c80f4089f7f115b,2021-07-29_22h17.14.915,Simcolourproject_2stim_asymm_v5,2020.2.10,Win32,60,61025ae37ef11b136ea224fe,,,,,,,,,588,98,59,1,0,0,response1disk,,6,0,10,1,0,0,rectangle,0,10,1,0,0,0,10,1,0,0,1,14,174,15,1,,,,,,,,
,,,,,,,,,,,,,FF,,,,,,,,1.242,,,,,,,,,,,,,,,,,,,,,,60feedf44e7fa5131ac6597f,61036f136c80f4089f7f115b,2021-07-29_22h17.14.915,Simcolourproject_2stim_asymm_v5,2020.2.10,Win32,60,61025ae37ef11b136ea224fe,,,,,,,,,1593,-26,-70,1,0,0,response5disk,,3,6,5,1,0,0,rectangle,6,5,1,0,0,6,5,1,0,0,1,15,175,76,1,,,,,,,,
,,,,,,,,,,,,,FF,,,,,,,,1.174,,,,,,,,,,,,,,,,,,,,,,60feedf44e7fa5131ac6597f,61036f136c80f4089f7f115b,2021-07-29_22h17.14.915,Simcolourproject_2stim_asymm_v5,2020.2.10,Win32,60,61025ae37ef11b136ea224fe,,,,,,,,,3610,78,36,1,0,0,response1disk,,6,1,-8,1,0,0,rectangle,1,-8,1,0,0,1,-8,1,0,0,1,16,176,106,1,,,,,,,,
,,,,,,,,,,,,,FF,,,,,,,,2.924,,,,,,,,,,,,,,,,,,,,,,60feedf44e7fa5131ac6597f,61036f136c80f4089f7f115b,2021-07-29_22h17.14.915,Simcolourproject_2stim_asymm_v5,2020.2.10,Win32,60,61025ae37ef11b136ea224fe,,,,,,,,,1658,62,-38,1,0,0,response3disk,,5,23,-9,1,0,0,rectangle,23,-9,1,0,0,23,-9,1,0,0,1,17,177,79,1,,,,,,,,
,,,,,,,,,,,,,FF,,,,,,,,0.932,,,,,,,,,,,,,,,,,,,,,,60feedf44e7fa5131ac6597f,61036f136c80f4089f7f115b,2021-07-29_22h17.14.915,Simcolourproject_2stim_asymm_v5,2020.2.10,Win32,60,61025ae37ef11b136ea224fe,,,,,,,,,1859,42,96,1,0,0,response1disk,,7,-5,3,1,0,0,rectangle,-5,3,1,0,0,-5,3,1,0,0,1,18,178,46,1,,,,,,,,
,,,,,,,,,,,,,FF,,,,,,,,2.314,,,,,,,,,,,,,,,,,,,,,,60feedf44e7fa5131ac6597f,61036f136c80f4089f7f115b,2021-07-29_22h17.14.915,Simcolourproject_2stim_asymm_v5,2020.2.10,Win32,60,61025ae37ef11b136ea224fe,,,,,,,,,347,-120,64,1,0,0,response7disk,,1,2,-5,1,0,0,rectangle,2,-5,1,0,0,2,-5,1,0,0,1,19,179,38,1,,,,,,,,
,,,,,,,,,,,,,FF,,,,,,,,1.264,,,,,,,,,,,,,,,,,,,,,,60feedf44e7fa5131ac6597f,61036f136c80f4089f7f115b,2021-07-29_22h17.14.915,Simcolourproject_2stim_asymm_v5,2020.2.10,Win32,60,61025ae37ef11b136ea224fe,,,,,,,,,2438,45,75,1,0,0,response1disk,,7,-12,5,1,0,0,rectangle,-12,5,1,0,0,-12,5,1,0,0,1,20,180,150,1,,,,,,,,
,,,,,,,,,,,,,FF,,,,,,,,1.027,,,,,,,,,,,,,,,,,,,,,,60feedf44e7fa5131ac6597f,61036f136c80f4089f7f115b,2021-07-29_22h17.14.915,Simcolourproject_2stim_asymm_v5,2020.2.10,Win32,60,61025ae37ef11b136ea224fe,,,,,,,,,1754,-78,38,1,0,0,response7disk,,1,-22,1,1,0,0,rectangle,-22,1,1,0,0,-22,1,1,0,0,1,21,181,157,1,,,,,,,,
,,,,,,,,,,,,,FF,,,,,,,,2.441,,,,,,,,,,,,,,,,,,,,,,60feedf44e7fa5131ac6597f,61036f136c80f4089f7f115b,2021-07-29_22h17.14.915,Simcolourproject_2stim_asymm_v5,2020.2.10,Win32,60,61025ae37ef11b136ea224fe,,,,,,,,,3407,82,-57,1,0,0,response3disk,,5,4,-6,1,0,0,rectangle,4,-6,1,0,0,4,-6,1,0,0,1,22,182,94,1,,,,,,,,
,,,,,,,,,,,,,FF,,,,,,,,1.446,,,,,,,,,,,,,,,,,,,,,,60feedf44e7fa5131ac6597f,61036f136c80f4089f7f115b,2021-07-29_22h17.14.915,Simcolourproject_2stim_asymm_v5,2020.2.10,Win32,60,61025ae37ef11b136ea224fe,,,,,,,,,3755,-57,-94,1,0,0,response5disk,,3,5,13,1,0,0,rectangle,5,13,1,0,0,5,13,1,0,0,1,23,183,100,1,,,,,,,,
,,,,,,,,,,,,,FF,,,,,,,,1.329,,,,,,,,,,,,,,,,,,,,,,60feedf44e7fa5131ac6597f,61036f136c80f4089f7f115b,2021-07-29_22h17.14.915,Simcolourproject_2stim_asymm_v5,2020.2.10,Win32,60,61025ae37ef11b136ea224fe,,,,,,,,,1439,-43,-48,1,0,0,response5disk,,3,-13,-14,1,0,0,rectangle,-13,-14,1,0,0,-13,-14,1,0,0,1,24,184,45,1,,,,,,,,
,,,,,,,,,,,,,FF,,,,,,,,1.17,,,,,,,,,,,,,,,,,,,,,,60feedf44e7fa5131ac6597f,61036f136c80f4089f7f115b,2021-07-29_22h17.14.915,Simcolourproject_2stim_asymm_v5,2020.2.10,Win32,60,61025ae37ef11b136ea224fe,,,,,,,,,859,48,-38,1,0,0,response3disk,,5,8,-6,1,0,0,rectangle,8,-6,1,0,0,8,-6,1,0,0,1,25,185,66,1,,,,,,,,
,,,,,,,,,,,,,FF,,,,,,,,1.932,,,,,,,,,,,,,,,,,,,,,,60feedf44e7fa5131ac6597f,61036f136c80f4089f7f115b,2021-07-29_22h17.14.915,Simcolourproject_2stim_asymm_v5,2020.2.10,Win32,60,61025ae37ef11b136ea224fe,,,,,,,,,1313,-44,-106,1,0,0,response5disk,,3,10,2,1,0,0,rectangle,10,2,1,0,0,10,2,1,0,0,1,26,186,39,1,,,,,,,,
,,,,,,,,,,,,,FF,,,,,,,,1.423,,,,,,,,,,,,,,,,,,,,,,60feedf44e7fa5131ac6597f,61036f136c80f4089f7f115b,2021-07-29_22h17.14.915,Simcolourproject_2stim_asymm_v5,2020.2.10,Win32,60,61025ae37ef11b136ea224fe,,,,,,,,,1241,-26,-86,1,0,0,response5disk,,3,4,0,1,0,0,rectangle,4,0,1,0,0,4,0,1,0,0,1,27,187,95,1,,,,,,,,
,,,,,,,,,,,,,FF,,,,,,,,0.98,,,,,,,,,,,,,,,,,,,,,,60feedf44e7fa5131ac6597f,61036f136c80f4089f7f115b,2021-07-29_22h17.14.915,Simcolourproject_2stim_asymm_v5,2020.2.10,Win32,60,61025ae37ef11b136ea224fe,,,,,,,,,4046,-64,121,1,0,0,response7disk,,0,1,-2,1,0,0,rectangle,1,-2,1,0,0,1,-2,1,0,0,1,28,188,51,1,,,,,,,,
,,,,,,,,,,,,,FF,,,,,,,,1.141,,,,,,,,,,,,,,,,,,,,,,60feedf44e7fa5131ac6597f,61036f136c80f4089f7f115b,2021-07-29_22h17.14.915,Simcolourproject_2stim_asymm_v5,2020.2.10,Win32,60,61025ae37ef11b136ea224fe,,,,,,,,,2371,-70,-31,1,0,0,response5disk,,2,-18,0,1,0,0,rectangle,-18,0,1,0,0,-18,0,1,0,0,1,29,189,107,1,,,,,,,,
,,,,,,,,,,,,,FF,,,,,,,,1.097,,,,,,,,,,,,,,,,,,,,,,60feedf44e7fa5131ac6597f,61036f136c80f4089f7f115b,2021-07-29_22h17.14.915,Simcolourproject_2stim_asymm_v5,2020.2.10,Win32,60,61025ae37ef11b136ea224fe,,,,,,,,,3892,74,-30,1,0,0,response3disk,,5,8,-2,1,0,0,rectangle,8,-2,1,0,0,8,-2,1,0,0,1,30,190,14,1,,,,,,,,
,,,,,,,,,,,,,FF,,,,,,,,1.359,,,,,,,,,,,,,,,,,,,,,,60feedf44e7fa5131ac6597f,61036f136c80f4089f7f115b,2021-07-29_22h17.14.915,Simcolourproject_2stim_asymm_v5,2020.2.10,Win32,60,61025ae37ef11b136ea224fe,,,,,,,,,333,92,58,1,0,0,response1disk,,6,-2,-13,1,0,0,rectangle,-2,-13,1,0,0,-2,-13,1,0,0,1,31,191,146,1,,,,,,,,
,,,,,,,,,,,,,FF,,,,,,,,0.953,,,,,,,,,,,,,,,,,,,,,,60feedf44e7fa5131ac6597f,61036f136c80f4089f7f115b,2021-07-29_22h17.14.915,Simcolourproject_2stim_asymm_v5,2020.2.10,Win32,60,61025ae37ef11b136ea224fe,,,,,,,,,4356,-45,103,1,0,0,response7disk,,0,-6,4,1,0,0,rectangle,-6,4,1,0,0,-6,4,1,0,0,1,32,192,153,1,,,,,,,,
,,,,,,,,,,,,,FF,,,,,,,,1.062,,,,,,,,,,,,,,,,,,,,,,60feedf44e7fa5131ac6597f,61036f136c80f4089f7f115b,2021-07-29_22h17.14.915,Simcolourproject_2stim_asymm_v5,2020.2.10,Win32,60,61025ae37ef11b136ea224fe,,,,,,,,,2458,30,92,1,0,0,response1disk,,7,-10,-3,1,0,0,rectangle,-10,-3,1,0,0,-10,-3,1,0,0,1,33,193,11,1,,,,,,,,
,,,,,,,,,,,,,FF,,,,,,,,1.178,,,,,,,,,,,,,,,,,,,,,,60feedf44e7fa5131ac6597f,61036f136c80f4089f7f115b,2021-07-29_22h17.14.915,Simcolourproject_2stim_asymm_v5,2020.2.10,Win32,60,61025ae37ef11b136ea224fe,,,,,,,,,2594,-73,-48,1,0,0,response5disk,,2,-4,-10,1,0,0,rectangle,-4,-10,1,0,0,-4,-10,1,0,0,1,34,194,9,1,,,,,,,,
,,,,,,,,,,,,,FF,,,,,,,,1.08,,,,,,,,,,,,,,,,,,,,,,60feedf44e7fa5131ac6597f,61036f136c80f4089f7f115b,2021-07-29_22h17.14.915,Simcolourproject_2stim_asymm_v5,2020.2.10,Win32,60,61025ae37ef11b136ea224fe,,,,,,,,,3501,96,27,1,0,0,response1disk,,6,-3,-13,1,0,0,rectangle,-3,-13,1,0,0,-3,-13,1,0,0,1,35,195,133,1,,,,,,,,
,,,,,,,,,,,,,FF,,,,,,,,1.425,,,,,,,,,,,,,,,,,,,,,,60feedf44e7fa5131ac6597f,61036f136c80f4089f7f115b,2021-07-29_22h17.14.915,Simcolourproject_2stim_asymm_v5,2020.2.10,Win32,60,61025ae37ef11b136ea224fe,,,,,,,,,697,50,101,1,0,0,response1disk,,7,-21,-12,1,0,0,rectangle,-21,-12,1,0,0,-21,-12,1,0,0,1,36,196,112,1,,,,,,,,
,,,,,,,,,,,,,FF,,,,,,,,1.17,,,,,,,,,,,,,,,,,,,,,,60feedf44e7fa5131ac6597f,61036f136c80f4089f7f115b,2021-07-29_22h17.14.915,Simcolourproject_2stim_asymm_v5,2020.2.10,Win32,60,61025ae37ef11b136ea224fe,,,,,,,,,900,-81,-31,1,0,0,response5disk,,2,-9,0,1,0,0,rectangle,-9,0,1,0,0,-9,0,1,0,0,1,37,197,29,1,,,,,,,,
,,,,,,,,,,,,,FF,,,,,,,,1.412,,,,,,,,,,,,,,,,,,,,,,60feedf44e7fa5131ac6597f,61036f136c80f4089f7f115b,2021-07-29_22h17.14.915,Simcolourproject_2stim_asymm_v5,2020.2.10,Win32,60,61025ae37ef11b136ea224fe,,,,,,,,,160,-63,-35,1,0,0,response5disk,,2,-2,2,1,0,0,rectangle,-2,2,1,0,0,-2,2,1,0,0,1,38,198,42,1,,,,,,,,
,,,,,,,,,,,,,FF,,,,,,,,1.613,,,,,,,,,,,,,,,,,,,,,,60feedf44e7fa5131ac6597f,61036f136c80f4089f7f115b,2021-07-29_22h17.14.915,Simcolourproject_2stim_asymm_v5,2020.2.10,Win32,60,61025ae37ef11b136ea224fe,,,,,,,,,363,102,-41,1,0,0,response3disk,,5,6,5,1,0,0,rectangle,6,5,1,0,0,6,5,1,0,0,1,39,199,123,1,,,,,,,,
,,,,,,,,,,,,,FF,,,,,,,,1.306,,,,,,,,,,,,,,,,,,,,,,60feedf44e7fa5131ac6597f,61036f136c80f4089f7f115b,2021-07-29_22h17.14.915,Simcolourproject_2stim_asymm_v5,2020.2.10,Win32,60,61025ae37ef11b136ea224fe,,,,,,,,,4179,90,46,1,0,0,response1disk,,6,19,9,1,0,0,rectangle,19,9,1,0,0,19,9,1,0,0,1,40,200,148,1,,,,,,,,
,,,,,,,,,,,,,FF,,,,,,,,1.206,,,,,,,,,,,,,,,,,,,,,,60feedf44e7fa5131ac6597f,61036f136c80f4089f7f115b,2021-07-29_22h17.14.915,Simcolourproject_2stim_asymm_v5,2020.2.10,Win32,60,61025ae37ef11b136ea224fe,,,,,,,,,2412,-42,-84,1,0,0,response5disk,,3,5,-10,1,0,0,rectangle,5,-10,1,0,0,5,-10,1,0,0,1,41,201,134,1,,,,,,,,
,,,,,,,,,,,,,FF,,,,,,,,1.026,,,,,,,,,,,,,,,,,,,,,,60feedf44e7fa5131ac6597f,61036f136c80f4089f7f115b,2021-07-29_22h17.14.915,Simcolourproject_2stim_asymm_v5,2020.2.10,Win32,60,61025ae37ef11b136ea224fe,,,,,,,,,1943,83,-28,1,0,0,response3disk,,5,2,-16,1,0,0,rectangle,-90,31,1,0,0,-15,2,1,0,0,1,42,202,140,1,,response7disk_3,TRUE,1,1,"[153,203,161,33,135,47,300,252,215,72,174,143,88,3,322,289,143,130,154,246]",1.425,rectangle
,,,,,,,,,,,,,FF,,,,,,,,2.796,,,,,,,,,,,,,,,,,,,,,,60feedf44e7fa5131ac6597f,61036f136c80f4089f7f115b,2021-07-29_22h17.14.915,Simcolourproject_2stim_asymm_v5,2020.2.10,Win32,60,61025ae37ef11b136ea224fe,,,,,,,,,536,49,77,1,0,0,response1disk,,7,6,6,1,0,0,rectangle,6,6,1,0,0,6,6,1,0,0,1,43,203,120,1,,,,,,,,
,,,,,,,,,,,,,FF,,,,,,,,1.285,,,,,,,,,,,,,,,,,,,,,,60feedf44e7fa5131ac6597f,61036f136c80f4089f7f115b,2021-07-29_22h17.14.915,Simcolourproject_2stim_asymm_v5,2020.2.10,Win32,60,61025ae37ef11b136ea224fe,,,,,,,,,2913,43,101,1,0,0,response1disk,,7,8,5,1,0,0,rectangle,8,5,1,0,0,8,5,1,0,0,1,44,204,110,1,,,,,,,,
,,,,,,,,,,,,,FF,,,,,,,,1.455,,,,,,,,,,,,,,,,,,,,,,60feedf44e7fa5131ac6597f,61036f136c80f4089f7f115b,2021-07-29_22h17.14.915,Simcolourproject_2stim_asymm_v5,2020.2.10,Win32,60,61025ae37ef11b136ea224fe,,,,,,,,,568,-34,-78,1,0,0,response5disk,,3,3,-10,1,0,0,rectangle,3,-10,1,0,0,3,-10,1,0,0,1,45,205,98,1,,,,,,,,
,,,,,,,,,,,,,FF,,,,,,,,1.824,,,,,,,,,,,,,,,,,,,,,,60feedf44e7fa5131ac6597f,61036f136c80f4089f7f115b,2021-07-29_22h17.14.915,Simcolourproject_2stim_asymm_v5,2020.2.10,Win32,60,61025ae37ef11b136ea224fe,,,,,,,,,2322,106,-53,1,0,0,response3disk,,5,3,-2,1,0,0,rectangle,3,-2,1,0,0,3,-2,1,0,0,1,46,206,121,1,,,,,,,,
,,,,,,,,,,,,,FF,,,,,,,,1.123,,,,,,,,,,,,,,,,,,,,,,60feedf44e7fa5131ac6597f,61036f136c80f4089f7f115b,2021-07-29_22h17.14.915,Simcolourproject_2stim_asymm_v5,2020.2.10,Win32,60,61025ae37ef11b136ea224fe,,,,,,,,,3284,-96,33,1,0,0,response7disk,,1,-18,-8,1,0,0,rectangle,-18,-8,1,0,0,-18,-8,1,0,0,1,47,207,111,1,,,,,,,,
,,,,,,,,,,,,,FF,,,,,,,,1.332,,,,,,,,,,,,,,,,,,,,,,60feedf44e7fa5131ac6597f,61036f136c80f4089f7f115b,2021-07-29_22h17.14.915,Simcolourproject_2stim_asymm_v5,2020.2.10,Win32,60,61025ae37ef11b136ea224fe,,,,,,,,,311,86,41,1,0,0,response1disk,,6,6,-9,1,0,0,rectangle,6,-9,1,0,0,6,-9,1,0,0,1,48,208,48,1,,,,,,,,
,,,,,,,,,,,,,FF,,,,,,,,2.506,,,,,,,,,,,,,,,,,,,,,,60feedf44e7fa5131ac6597f,61036f136c80f4089f7f115b,2021-07-29_22h17.14.915,Simcolourproject_2stim_asymm_v5,2020.2.10,Win32,60,61025ae37ef11b136ea224fe,,,,,,,,,2362,-111,50,1,0,0,response7disk,,1,-2,-6,1,0,0,rectangle,-2,-6,1,0,0,-2,-6,1,0,0,1,49,209,102,1,,,,,,,,
,,,,,,,,,,,,,FF,,,,,,,,1.246,,,,,,,,,,,,,,,,,,,,,,60feedf44e7fa5131ac6597f,61036f136c80f4089f7f115b,2021-07-29_22h17.14.915,Simcolourproject_2stim_asymm_v5,2020.2.10,Win32,60,61025ae37ef11b136ea224fe,,,,,,,,,1908,-73,-41,1,0,0,response5disk,,2,11,6,1,0,0,rectangle,11,6,1,0,0,11,6,1,0,0,1,50,210,1,1,,,,,,,,
,,,,,,,,,,,,,FF,,,,,,,,0.989,,,,,,,,,,,,,,,,,,,,,,60feedf44e7fa5131ac6597f,61036f136c80f4089f7f115b,2021-07-29_22h17.14.915,Simcolourproject_2stim_asymm_v5,2020.2.10,Win32,60,61025ae37ef11b136ea224fe,,,,,,,,,3633,91,-35,1,0,0,response3disk,,5,-5,8,1,0,0,rectangle,-5,8,1,0,0,-5,8,1,0,0,1,51,211,27,1,,,,,,,,
,,,,,,,,,,,,,FF,,,,,,,,1.45,,,,,,,,,,,,,,,,,,,,,,60feedf44e7fa5131ac6597f,61036f136c80f4089f7f115b,2021-07-29_22h17.14.915,Simcolourproject_2stim_asymm_v5,2020.2.10,Win32,60,61025ae37ef11b136ea224fe,,,,,,,,,3544,53,-89,1,0,0,response3disk,,4,-5,-6,1,0,0,rectangle,-5,-6,1,0,0,-5,-6,1,0,0,1,52,212,124,1,,,,,,,,
,,,,,,,,,,,,,FF,,,,,,,,1.658,,,,,,,,,,,,,,,,,,,,,,60feedf44e7fa5131ac6597f,61036f136c80f4089f7f115b,2021-07-29_22h17.14.915,Simcolourproject_2stim_asymm_v5,2020.2.10,Win32,60,61025ae37ef11b136ea224fe,,,,,,,,,1690,-89,-48,1,0,0,response5disk,,2,10,-17,1,0,0,rectangle,10,-17,1,0,0,10,-17,1,0,0,1,53,213,8,1,,,,,,,,
,,,,,,,,,,,,,FF,,,,,,,,1.349,,,,,,,,,,,,,,,,,,,,,,60feedf44e7fa5131ac6597f,61036f136c80f4089f7f115b,2021-07-29_22h17.14.915,Simcolourproject_2stim_asymm_v5,2020.2.10,Win32,60,61025ae37ef11b136ea224fe,,,,,,,,,1162,94,49,1,0,0,response1disk,,6,5,-12,1,0,0,rectangle,60,-98,1,0,0,9,-14,1,0,0,1,54,214,33,1,,response3disk_3,TRUE,4,4,"[153,203,161,33,135,47,300,252,215,72,174,143,88,3,322,289,143,130,154,246]",2.08,rectangle
,,,,,,,,,,,,,FF,,,,,,,,1.295,,,,,,,,,,,,,,,,,,,,,,60feedf44e7fa5131ac6597f,61036f136c80f4089f7f115b,2021-07-29_22h17.14.915,Simcolourproject_2stim_asymm_v5,2020.2.10,Win32,60,61025ae37ef11b136ea224fe,,,,,,,,,3167,98,-48,1,0,0,response3disk,,5,-4,2,1,0,0,rectangle,-4,2,1,0,0,-4,2,1,0,0,1,55,215,20,1,,,,,,,,
,,,,,,,,,,,,,FF,,,,,,,,1.211,,,,,,,,,,,,,,,,,,,,,,60feedf44e7fa5131ac6597f,61036f136c80f4089f7f115b,2021-07-29_22h17.14.915,Simcolourproject_2stim_asymm_v5,2020.2.10,Win32,60,61025ae37ef11b136ea224fe,,,,,,,,,3503,-49,-57,1,0,0,response5disk,,3,-8,-10,1,0,0,rectangle,-8,-10,1,0,0,-8,-10,1,0,0,1,56,216,83,1,,,,,,,,
,,,,,,,,,,,,,FF,,,,,,,,1.204,,,,,,,,,,,,,,,,,,,,,,60feedf44e7fa5131ac6597f,61036f136c80f4089f7f115b,2021-07-29_22h17.14.915,Simcolourproject_2stim_asymm_v5,2020.2.10,Win32,60,61025ae37ef11b136ea224fe,,,,,,,,,3813,-90,-30,1,0,0,response5disk,,2,3,3,1,0,0,rectangle,3,3,1,0,0,3,3,1,0,0,1,57,217,5,1,,,,,,,,
,,,,,,,,,,,,,FF,,,,,,,,2.086,,,,,,,,,,,,,,,,,,,,,,60feedf44e7fa5131ac6597f,61036f136c80f4089f7f115b,2021-07-29_22h17.14.915,Simcolourproject_2stim_asymm_v5,2020.2.10,Win32,60,61025ae37ef11b136ea224fe,,,,,,,,,1967,48,-108,1,0,0,response3disk,,4,3,14,1,0,0,rectangle,3,14,1,0,0,3,14,1,0,0,1,58,218,97,1,,,,,,,,
,,,,,,,,,,,,,FF,,,,,,,,1.114,,,,,,,,,,,,,,,,,,,,,,60feedf44e7fa5131ac6597f,61036f136c80f4089f7f115b,2021-07-29_22h17.14.915,Simcolourproject_2stim_asymm_v5,2020.2.10,Win32,60,61025ae37ef11b136ea224fe,,,,,,,,,2364,-37,-54,1,0,0,response5disk,,3,-2,-9,1,0,0,rectangle,-2,-9,1,0,0,-2,-9,1,0,0,1,59,219,84,1,,,,,,,,
,,,,,,,,,,,,,FF,,,,,,,,1.203,,,,,,,,,,,,,,,,,,,,,,60feedf44e7fa5131ac6597f,61036f136c80f4089f7f115b,2021-07-29_22h17.14.915,Simcolourproject_2stim_asymm_v5,2020.2.10,Win32,60,61025ae37ef11b136ea224fe,,,,,,,,,1465,66,-37,1,0,0,response3disk,,5,7,-14,1,0,0,rectangle,7,-14,1,0,0,7,-14,1,0,0,1,60,220,26,1,,,,,,,,
,,,,,,,,,,,,,FF,,,,,,,,1.814,,,,,,,,,,,,,,,,,,,,,,60feedf44e7fa5131ac6597f,61036f136c80f4089f7f115b,2021-07-29_22h17.14.915,Simcolourproject_2stim_asymm_v5,2020.2.10,Win32,60,61025ae37ef11b136ea224fe,,,,,,,,,858,37,73,1,0,0,response1disk,,7,1,-10,1,0,0,rectangle,1,-10,1,0,0,1,-10,1,0,0,1,61,221,108,1,,,,,,,,
,,,,,,,,,,,,,FF,,,,,,,,1.366,,,,,,,,,,,,,,,,,,,,,,60feedf44e7fa5131ac6597f,61036f136c80f4089f7f115b,2021-07-29_22h17.14.915,Simcolourproject_2stim_asymm_v5,2020.2.10,Win32,60,61025ae37ef11b136ea224fe,,,,,,,,,345,-58,-90,1,0,0,response5disk,,3,-8,6,1,0,0,rectangle,-8,6,1,0,0,-8,6,1,0,0,1,62,222,131,1,,,,,,,,
,,,,,,,,,,,,,FF,,,,,,,,0.924,,,,,,,,,,,,,,,,,,,,,,60feedf44e7fa5131ac6597f,61036f136c80f4089f7f115b,2021-07-29_22h17.14.915,Simcolourproject_2stim_asymm_v5,2020.2.10,Win32,60,61025ae37ef11b136ea224fe,,,,,,,,,4345,-77,-35,1,0,0,response5disk,,2,10,9,1,0,0,rectangle,10,9,1,0,0,10,9,1,0,0,1,63,223,65,1,,,,,,,,
,,,,,,,,,,,,,FF,,,,,,,,1.194,,,,,,,,,,,,,,,,,,,,,,60feedf44e7fa5131ac6597f,61036f136c80f4089f7f115b,2021-07-29_22h17.14.915,Simcolourproject_2stim_asymm_v5,2020.2.10,Win32,60,61025ae37ef11b136ea224fe,,,,,,,,,2746,66,36,1,0,0,response1disk,,6,-15,-15,1,0,0,rectangle,-15,-15,1,0,0,-15,-15,1,0,0,1,64,224,117,1,,,,,,,,
,,,,,,,,,,,,,FF,,,,,,,,0.955,,,,,,,,,,,,,,,,,,,,,,60feedf44e7fa5131ac6597f,61036f136c80f4089f7f115b,2021-07-29_22h17.14.915,Simcolourproject_2stim_asymm_v5,2020.2.10,Win32,60,61025ae37ef11b136ea224fe,,,,,,,,,1028,38,83,1,0,0,response1disk,,7,8,2,1,0,0,rectangle,8,2,1,0,0,8,2,1,0,0,1,65,225,137,1,,,,,,,,
,,,,,,,,,,,,,FF,,,,,,,,1.008,,,,,,,,,,,,,,,,,,,,,,60feedf44e7fa5131ac6597f,61036f136c80f4089f7f115b,2021-07-29_22h17.14.915,Simcolourproject_2stim_asymm_v5,2020.2.10,Win32,60,61025ae37ef11b136ea224fe,,,,,,,,,4243,42,90,1,0,0,response1disk,,7,7,-14,1,0,0,rectangle,7,-14,1,0,0,7,-14,1,0,0,1,66,226,54,1,,,,,,,,
,,,,,,,,,,,,,FF,,,,,,,,1.196,,,,,,,,,,,,,,,,,,,,,,60feedf44e7fa5131ac6597f,61036f136c80f4089f7f115b,2021-07-29_22h17.14.915,Simcolourproject_2stim_asymm_v5,2020.2.10,Win32,60,61025ae37ef11b136ea224fe,,,,,,,,,2074,43,-73,1,0,0,response3disk,,4,-1,1,1,0,0,rectangle,-1,1,1,0,0,-1,1,1,0,0,1,67,227,127,1,,,,,,,,
,,,,,,,,,,,,,FF,,,,,,,,1.168,,,,,,,,,,,,,,,,,,,,,,60feedf44e7fa5131ac6597f,61036f136c80f4089f7f115b,2021-07-29_22h17.14.915,Simcolourproject_2stim_asymm_v5,2020.2.10,Win32,60,61025ae37ef11b136ea224fe,,,,,,,,,3622,-35,-85,1,0,0,response5disk,,3,10,-7,1,0,0,rectangle,10,-7,1,0,0,10,-7,1,0,0,1,68,228,21,1,,,,,,,,
,,,,,,,,,,,,,FF,,,,,,,,1.087,,,,,,,,,,,,,,,,,,,,,,60feedf44e7fa5131ac6597f,61036f136c80f4089f7f115b,2021-07-29_22h17.14.915,Simcolourproject_2stim_asymm_v5,2020.2.10,Win32,60,61025ae37ef11b136ea224fe,,,,,,,,,3050,-28,-65,1,0,0,response5disk,,3,-1,3,1,0,0,rectangle,-1,3,1,0,0,-1,3,1,0,0,1,69,229,57,1,,,,,,,,
,,,,,,,,,,,,,FF,,,,,,,,1.626,,,,,,,,,,,,,,,,,,,,,,60feedf44e7fa5131ac6597f,61036f136c80f4089f7f115b,2021-07-29_22h17.14.915,Simcolourproject_2stim_asymm_v5,2020.2.10,Win32,60,61025ae37ef11b136ea224fe,,,,,,,,,159,-52,-80,1,0,0,response5disk,,3,-6,-10,1,0,0,rectangle,-6,-10,1,0,0,-6,-10,1,0,0,1,70,230,155,1,,,,,,,,
,,,,,,,,,,,,,FF,,,,,,,,0.964,,,,,,,,,,,,,,,,,,,,,,60feedf44e7fa5131ac6597f,61036f136c80f4089f7f115b,2021-07-29_22h17.14.915,Simcolourproject_2stim_asymm_v5,2020.2.10,Win32,60,61025ae37ef11b136ea224fe,,,,,,,,,1014,51,98,1,0,0,response1disk,,7,-6,-9,1,0,0,rectangle,-6,-9,1,0,0,-6,-9,1,0,0,1,71,231,116,1,,,,,,,,
,,,,,,,,,,,,,FF,,,,,,,,2.614,,,,,,,,,,,,,,,,,,,,,,60feedf44e7fa5131ac6597f,61036f136c80f4089f7f115b,2021-07-29_22h17.14.915,Simcolourproject_2stim_asymm_v5,2020.2.10,Win32,60,61025ae37ef11b136ea224fe,,,,,,,,,865,83,-62,1,0,0,response3disk,,5,4,-14,1,0,0,rectangle,4,-14,1,0,0,4,-14,1,0,0,1,72,232,114,1,,,,,,,,
,,,,,,,,,,,,,FF,,,,,,,,1.614,,,,,,,,,,,,,,,,,,,,,,60feedf44e7fa5131ac6597f,61036f136c80f4089f7f115b,2021-07-29_22h17.14.915,Simcolourproject_2stim_asymm_v5,2020.2.10,Win32,60,61025ae37ef11b136ea224fe,,,,,,,,,2072,43,94,1,0,0,response1disk,,7,-6,13,1,0,0,rectangle,-6,13,1,0,0,-6,13,1,0,0,1,73,233,125,1,,,,,,,,
,,,,,,,,,,,,,FF,,,,,,,,1.093,,,,,,,,,,,,,,,,,,,,,,60feedf44e7fa5131ac6597f,61036f136c80f4089f7f115b,2021-07-29_22h17.14.915,Simcolourproject_2stim_asymm_v5,2020.2.10,Win32,60,61025ae37ef11b136ea224fe,,,,,,,,,1858,38,110,1,0,0,response1disk,,7,8,1,1,0,0,rectangle,8,1,1,0,0,8,1,1,0,0,1,74,234,18,1,,,,,,,,
,,,,,,,,,,,,,FF,,,,,,,,1.513,,,,,,,,,,,,,,,,,,,,,,60feedf44e7fa5131ac6597f,61036f136c80f4089f7f115b,2021-07-29_22h17.14.915,Simcolourproject_2stim_asymm_v5,2020.2.10,Win32,60,61025ae37ef11b136ea224fe,,,,,,,,,1317,70,-38,1,0,0,response3disk,,5,2,-3,1,0,0,rectangle,2,-3,1,0,0,2,-3,1,0,0,1,75,235,16,1,,,,,,,,
,,,,,,,,,,,,,FF,,,,,,,,1.584,,,,,,,,,,,,,,,,,,,,,,60feedf44e7fa5131ac6597f,61036f136c80f4089f7f115b,2021-07-29_22h17.14.915,Simcolourproject_2stim_asymm_v5,2020.2.10,Win32,60,61025ae37ef11b136ea224fe,,,,,,,,,2457,39,85,1,0,0,response1disk,,7,-7,-7,1,0,0,rectangle,-7,-7,1,0,0,-7,-7,1,0,0,1,76,236,158,1,,,,,,,,
,,,,,,,,,,,,,FF,,,,,,,,1.183,,,,,,,,,,,,,,,,,,,,,,60feedf44e7fa5131ac6597f,61036f136c80f4089f7f115b,2021-07-29_22h17.14.915,Simcolourproject_2stim_asymm_v5,2020.2.10,Win32,60,61025ae37ef11b136ea224fe,,,,,,,,,1312,-70,-42,1,0,0,response5disk,,2,-4,0,1,0,0,rectangle,-4,0,1,0,0,-4,0,1,0,0,1,77,237,64,1,,,,,,,,
,,,,,,,,,,,,,FF,,,,,,,,2.384,,,,,,,,,,,,,,,,,,,,,,60feedf44e7fa5131ac6597f,61036f136c80f4089f7f115b,2021-07-29_22h17.14.915,Simcolourproject_2stim_asymm_v5,2020.2.10,Win32,60,61025ae37ef11b136ea224fe,,,,,,,,,1261,59,78,1,0,0,response1disk,,7,10,-2,1,0,0,rectangle,10,-2,1,0,0,10,-2,1,0,0,1,78,238,40,1,,,,,,,,
,,,,,,,,,,,,,FF,,,,,,,,1.157,,,,,,,,,,,,,,,,,,,,,,60feedf44e7fa5131ac6597f,61036f136c80f4089f7f115b,2021-07-29_22h17.14.915,Simcolourproject_2stim_asymm_v5,2020.2.10,Win32,60,61025ae37ef11b136ea224fe,,,,,,,,,4148,-79,60,1,0,0,response7disk,,1,-2,-3,1,0,0,rectangle,-2,-3,1,0,0,-2,-3,1,0,0,1,79,239,37,1,,,,,,,,
,,,,,,,,,,,,,FF,,,,,,,,1.565,,,,,,,,,,,,,,,,,,,,,,60feedf44e7fa5131ac6597f,61036f136c80f4089f7f115b,2021-07-29_22h17.14.915,Simcolourproject_2stim_asymm_v5,2020.2.10,Win32,60,61025ae37ef11b136ea224fe,,,,,,,,,1111,93,60,1,0,0,response1disk,,6,6,-1,1,0,0,rectangle,6,-1,1,0,0,6,-1,1,0,0,1,80,240,151,1,,,,,,,,
,,,,,,,,,,,,,FF,,,,,,,,1.64,,,,,,,,,,,,,,,,,,,,,,60feedf44e7fa5131ac6597f,61036f136c80f4089f7f115b,2021-07-29_22h17.14.915,Simcolourproject_2stim_asymm_v5,2020.2.10,Win32,60,61025ae37ef11b136ea224fe,,,,,,,,,2223,27,89,1,0,0,response1disk,,7,-15,-3,1,0,0,rectangle,-15,-3,1,0,0,-15,-3,1,0,0,1,81,241,85,1,,,,,,,,
,,,,,,,,,,,,,FF,,,,,,,,2.278,,,,,,,,,,,,,,,,,,,,,,60feedf44e7fa5131ac6597f,61036f136c80f4089f7f115b,2021-07-29_22h17.14.915,Simcolourproject_2stim_asymm_v5,2020.2.10,Win32,60,61025ae37ef11b136ea224fe,,,,,,,,,1580,100,18,1,0,0,response1disk,,6,11,-17,1,0,0,rectangle,11,-17,1,0,0,11,-17,1,0,0,1,82,242,145,1,,,,,,,,
,,,,,,,,,,,,,FF,,,,,,,,1.413,,,,,,,,,,,,,,,,,,,,,,60feedf44e7fa5131ac6597f,61036f136c80f4089f7f115b,2021-07-29_22h17.14.915,Simcolourproject_2stim_asymm_v5,2020.2.10,Win32,60,61025ae37ef11b136ea224fe,,,,,,,,,1984,48,98,1,0,0,response1disk,,7,4,3,1,0,0,rectangle,4,3,1,0,0,4,3,1,0,0,1,83,243,92,1,,,,,,,,
,,,,,,,,,,,,,FF,,,,,,,,1.116,,,,,,,,,,,,,,,,,,,,,,60feedf44e7fa5131ac6597f,61036f136c80f4089f7f115b,2021-07-29_22h17.14.915,Simcolourproject_2stim_asymm_v5,2020.2.10,Win32,60,61025ae37ef11b136ea224fe,,,,,,,,,3101,-35,-66,1,0,0,response5disk,,3,-2,-2,1,0,0,rectangle,-2,-2,1,0,0,-2,-2,1,0,0,1,84,244,30,1,,,,,,,,
,,,,,,,,,,,,,FF,,,,,,,,1.046,,,,,,,,,,,,,,,,,,,,,,60feedf44e7fa5131ac6597f,61036f136c80f4089f7f115b,2021-07-29_22h17.14.915,Simcolourproject_2stim_asymm_v5,2020.2.10,Win32,60,61025ae37ef11b136ea224fe,,,,,,,,,2335,54,121,1,0,0,response1disk,,7,-5,-6,1,0,0,rectangle,-95,32,1,0,0,-30,2,1,0,0,1,85,245,75,1,,response7disk_3,TRUE,1,1,"[153,203,161,33,135,47,300,252,215,72,174,143,88,3,322,289,143,130,154,246]",1.51,rectangle
,,,,,,,,,,,,,FF,,,,,,,,1.348,,,,,,,,,,,,,,,,,,,,,,60feedf44e7fa5131ac6597f,61036f136c80f4089f7f115b,2021-07-29_22h17.14.915,Simcolourproject_2stim_asymm_v5,2020.2.10,Win32,60,61025ae37ef11b136ea224fe,,,,,,,,,949,-46,-94,1,0,0,response5disk,,3,7,12,1,0,0,rectangle,7,12,1,0,0,7,12,1,0,0,1,86,246,129,1,,,,,,,,
,,,,,,,,,,,,,FF,,,,,,,,1.24,,,,,,,,,,,,,,,,,,,,,,60feedf44e7fa5131ac6597f,61036f136c80f4089f7f115b,2021-07-29_22h17.14.915,Simcolourproject_2stim_asymm_v5,2020.2.10,Win32,60,61025ae37ef11b136ea224fe,,,,,,,,,3143,-84,-39,1,0,0,response5disk,,2,-7,14,1,0,0,rectangle,-7,14,1,0,0,-7,14,1,0,0,1,87,247,80,1,,,,,,,,
,,,,,,,,,,,,,FF,,,,,,,,1.45,,,,,,,,,,,,,,,,,,,,,,60feedf44e7fa5131ac6597f,61036f136c80f4089f7f115b,2021-07-29_22h17.14.915,Simcolourproject_2stim_asymm_v5,2020.2.10,Win32,60,61025ae37ef11b136ea224fe,,,,,,,,,2835,-89,47,1,0,0,response7disk,,1,-19,3,1,0,0,rectangle,-19,3,1,0,0,-19,3,1,0,0,1,88,248,86,1,,,,,,,,
,,,,,,,,,,,,,FF,,,,,,,,0.883,,,,,,,,,,,,,,,,,,,,,,60feedf44e7fa5131ac6597f,61036f136c80f4089f7f115b,2021-07-29_22h17.14.915,Simcolourproject_2stim_asymm_v5,2020.2.10,Win32,60,61025ae37ef11b136ea224fe,,,,,,,,,1970,-90,30,1,0,0,response7disk,,1,-21,1,1,0,0,rectangle,-21,1,1,0,0,-21,1,1,0,0,1,89,249,143,1,,,,,,,,
,,,,,,,,,,,,,FF,,,,,,,,1.927,,,,,,,,,,,,,,,,,,,,,,60feedf44e7fa5131ac6597f,61036f136c80f4089f7f115b,2021-07-29_22h17.14.915,Simcolourproject_2stim_asymm_v5,2020.2.10,Win32,60,61025ae37ef11b136ea224fe,,,,,,,,,4186,-110,66,1,0,0,response7disk,,1,-7,-7,1,0,0,rectangle,-7,-7,1,0,0,-7,-7,1,0,0,1,90,250,58,1,,,,,,,,
,,,,,,,,,,,,,FF,,,,,,,,0.832,,,,,,,,,,,,,,,,,,,,,,60feedf44e7fa5131ac6597f,61036f136c80f4089f7f115b,2021-07-29_22h17.14.915,Simcolourproject_2stim_asymm_v5,2020.2.10,Win32,60,61025ae37ef11b136ea224fe,,,,,,,,,1454,-71,99,1,0,0,response7disk,,0,-2,6,1,0,0,rectangle,-38,-82,1,0,0,-3,-8,1,0,0,1,91,251,90,1,,response5disk_3,TRUE,3,3,"[153,203,161,33,135,47,300,252,215,72,174,143,88,3,322,289,143,130,154,246]",1.795,rectangle
,,,,,,,,,,,,,FF,,,,,,,,2.062,,,,,,,,,,,,,,,,,,,,,,60feedf44e7fa5131ac6597f,61036f136c80f4089f7f115b,2021-07-29_22h17.14.915,Simcolourproject_2stim_asymm_v5,2020.2.10,Win32,60,61025ae37ef11b136ea224fe,,,,,,,,,1286,-30,-85,1,0,0,response5disk,,3,3,0,1,0,0,rectangle,3,0,1,0,0,3,0,1,0,0,1,92,252,93,1,,,,,,,,
,,,,,,,,,,,,,FF,,,,,,,,1.157,,,,,,,,,,,,,,,,,,,,,,60feedf44e7fa5131ac6597f,61036f136c80f4089f7f115b,2021-07-29_22h17.14.915,Simcolourproject_2stim_asymm_v5,2020.2.10,Win32,60,61025ae37ef11b136ea224fe,,,,,,,,,636,102,28,1,0,0,response1disk,,6,9,5,1,0,0,rectangle,9,5,1,0,0,9,5,1,0,0,1,93,253,59,1,,,,,,,,
,,,,,,,,,,,,,FF,,,,,,,,1.093,,,,,,,,,,,,,,,,,,,,,,60feedf44e7fa5131ac6597f,61036f136c80f4089f7f115b,2021-07-29_22h17.14.915,Simcolourproject_2stim_asymm_v5,2020.2.10,Win32,60,61025ae37ef11b136ea224fe,,,,,,,,,1101,46,82,1,0,0,response1disk,,7,0,10,1,0,0,rectangle,0,10,1,0,0,0,10,1,0,0,1,94,254,19,1,,,,,,,,
,,,,,,,,,,,,,FF,,,,,,,,1.605,,,,,,,,,,,,,,,,,,,,,,60feedf44e7fa5131ac6597f,61036f136c80f4089f7f115b,2021-07-29_22h17.14.915,Simcolourproject_2stim_asymm_v5,2020.2.10,Win32,60,61025ae37ef11b136ea224fe,,,,,,,,,4257,56,-74,1,0,0,response3disk,,4,-4,7,1,0,0,rectangle,-4,7,1,0,0,-4,7,1,0,0,1,95,255,50,1,,,,,,,,
,,,,,,,,,,,,,FF,,,,,,,,0.98,,,,,,,,,,,,,,,,,,,,,,60feedf44e7fa5131ac6597f,61036f136c80f4089f7f115b,2021-07-29_22h17.14.915,Simcolourproject_2stim_asymm_v5,2020.2.10,Win32,60,61025ae37ef11b136ea224fe,,,,,,,,,1218,-99,38,1,0,0,response7disk,,1,-10,-2,1,0,0,rectangle,-10,-2,1,0,0,-10,-2,1,0,0,1,96,256,139,1,,,,,,,,
,,,,,,,,,,,,,FF,,,,,,,,1.751,,,,,,,,,,,,,,,,,,,,,,60feedf44e7fa5131ac6597f,61036f136c80f4089f7f115b,2021-07-29_22h17.14.915,Simcolourproject_2stim_asymm_v5,2020.2.10,Win32,60,61025ae37ef11b136ea224fe,,,,,,,,,566,88,34,1,0,0,response1disk,,6,-1,2,1,0,0,rectangle,-1,2,1,0,0,-1,2,1,0,0,1,97,257,56,1,,,,,,,,
,,,,,,,,,,,,,FF,,,,,,,,1.228,,,,,,,,,,,,,,,,,,,,,,60feedf44e7fa5131ac6597f,61036f136c80f4089f7f115b,2021-07-29_22h17.14.915,Simcolourproject_2stim_asymm_v5,2020.2.10,Win32,60,61025ae37ef11b136ea224fe,,,,,,,,,3757,-37,-78,1,0,0,response5disk,,3,8,5,1,0,0,rectangle,8,5,1,0,0,8,5,1,0,0,1,98,258,141,1,,,,,,,,
,,,,,,,,,,,,,FF,,,,,,,,1.132,,,,,,,,,,,,,,,,,,,,,,60feedf44e7fa5131ac6597f,61036f136c80f4089f7f115b,2021-07-29_22h17.14.915,Simcolourproject_2stim_asymm_v5,2020.2.10,Win32,60,61025ae37ef11b136ea224fe,,,,,,,,,4119,-89,27,1,0,0,response7disk,,1,5,7,1,0,0,rectangle,5,7,1,0,0,5,7,1,0,0,1,99,259,159,1,,,,,,,,
,,,,,,,,,,,,,FF,,,,,,,,1.425,,,,,,,,,,,,,,,,,,,,,,60feedf44e7fa5131ac6597f,61036f136c80f4089f7f115b,2021-07-29_22h17.14.915,Simcolourproject_2stim_asymm_v5,2020.2.10,Win32,60,61025ae37ef11b136ea224fe,,,,,,,,,1059,70,-106,1,0,0,response3disk,,4,-6,-4,1,0,0,rectangle,-6,-4,1,0,0,-6,-4,1,0,0,1,100,260,28,1,,,,,,,,
,,,,,,,,,,,,,FF,,,,,,,,1.428,,,,,,,,,,,,,,,,,,,,,,60feedf44e7fa5131ac6597f,61036f136c80f4089f7f115b,2021-07-29_22h17.14.915,Simcolourproject_2stim_asymm_v5,2020.2.10,Win32,60,61025ae37ef11b136ea224fe,,,,,,,,,1426,82,40,1,0,0,response1disk,,6,4,8,1,0,0,rectangle,4,8,1,0,0,4,8,1,0,0,1,101,261,6,1,,,,,,,,
,,,,,,,,,,,,,FF,,,,,,,,2.462,,,,,,,,,,,,,,,,,,,,,,60feedf44e7fa5131ac6597f,61036f136c80f4089f7f115b,2021-07-29_22h17.14.915,Simcolourproject_2stim_asymm_v5,2020.2.10,Win32,60,61025ae37ef11b136ea224fe,,,,,,,,,996,46,-93,1,0,0,response3disk,,4,3,-8,1,0,0,rectangle,3,-8,1,0,0,3,-8,1,0,0,1,102,262,128,1,,,,,,,,
,,,,,,,,,,,,,FF,,,,,,,,1.179,,,,,,,,,,,,,,,,,,,,,,60feedf44e7fa5131ac6597f,61036f136c80f4089f7f115b,2021-07-29_22h17.14.915,Simcolourproject_2stim_asymm_v5,2020.2.10,Win32,60,61025ae37ef11b136ea224fe,,,,,,,,,3409,99,54,1,0,0,response1disk,,6,-15,-6,1,0,0,rectangle,-15,-6,1,0,0,-15,-6,1,0,0,1,103,263,138,1,,,,,,,,
,,,,,,,,,,,,,FF,,,,,,,,0.998,,,,,,,,,,,,,,,,,,,,,,60feedf44e7fa5131ac6597f,61036f136c80f4089f7f115b,2021-07-29_22h17.14.915,Simcolourproject_2stim_asymm_v5,2020.2.10,Win32,60,61025ae37ef11b136ea224fe,,,,,,,,,3156,-63,-41,1,0,0,response5disk,,2,-6,-6,1,0,0,rectangle,-6,-6,1,0,0,-6,-6,1,0,0,1,104,264,82,1,,,,,,,,
,,,,,,,,,,,,,FF,,,,,,,,0.916,,,,,,,,,,,,,,,,,,,,,,60feedf44e7fa5131ac6597f,61036f136c80f4089f7f115b,2021-07-29_22h17.14.915,Simcolourproject_2stim_asymm_v5,2020.2.10,Win32,60,61025ae37ef11b136ea224fe,,,,,,,,,2574,54,101,1,0,0,response1disk,,7,-2,4,1,0,0,rectangle,-2,4,1,0,0,-2,4,1,0,0,1,105,265,118,1,,,,,,,,
,,,,,,,,,,,,,FF,,,,,,,,0.979,,,,,,,,,,,,,,,,,,,,,,60feedf44e7fa5131ac6597f,61036f136c80f4089f7f115b,2021-07-29_22h17.14.915,Simcolourproject_2stim_asymm_v5,2020.2.10,Win32,60,61025ae37ef11b136ea224fe,,,,,,,,,2943,-24,-94,1,0,0,response5disk,,3,16,0,1,0,0,rectangle,16,0,1,0,0,16,0,1,0,0,1,106,266,115,1,,,,,,,,
,,,,,,,,,,,,,FF,,,,,,,,1.316,,,,,,,,,,,,,,,,,,,,,,60feedf44e7fa5131ac6597f,61036f136c80f4089f7f115b,2021-07-29_22h17.14.915,Simcolourproject_2stim_asymm_v5,2020.2.10,Win32,60,61025ae37ef11b136ea224fe,,,,,,,,,357,66,-46,1,0,0,response3disk,,5,-10,6,1,0,0,rectangle,-10,6,1,0,0,-10,6,1,0,0,1,107,267,74,1,,,,,,,,
,,,,,,,,,,,,,FF,,,,,,,,1.145,,,,,,,,,,,,,,,,,,,,,,60feedf44e7fa5131ac6597f,61036f136c80f4089f7f115b,2021-07-29_22h17.14.915,Simcolourproject_2stim_asymm_v5,2020.2.10,Win32,60,61025ae37ef11b136ea224fe,,,,,,,,,1806,83,41,1,0,0,response1disk,,6,5,-4,1,0,0,rectangle,5,-4,1,0,0,5,-4,1,0,0,1,108,268,122,1,,,,,,,,
,,,,,,,,,,,,,FF,,,,,,,,0.967,,,,,,,,,,,,,,,,,,,,,,60feedf44e7fa5131ac6597f,61036f136c80f4089f7f115b,2021-07-29_22h17.14.915,Simcolourproject_2stim_asymm_v5,2020.2.10,Win32,60,61025ae37ef11b136ea224fe,,,,,,,,,935,30,74,1,0,0,response1disk,,7,6,-5,1,0,0,rectangle,6,-5,1,0,0,6,-5,1,0,0,1,109,269,70,1,,,,,,,,
,,,,,,,,,,,,,FF,,,,,,,,1.163,,,,,,,,,,,,,,,,,,,,,,60feedf44e7fa5131ac6597f,61036f136c80f4089f7f115b,2021-07-29_22h17.14.915,Simcolourproject_2stim_asymm_v5,2020.2.10,Win32,60,61025ae37ef11b136ea224fe,,,,,,,,,3925,83,-114,1,0,0,response3disk,,4,-2,-10,1,0,0,rectangle,-2,-10,1,0,0,-2,-10,1,0,0,1,110,270,62,1,,,,,,,,
,,,,,,,,,,,,,FF,,,,,,,,0.85,,,,,,,,,,,,,,,,,,,,,,60feedf44e7fa5131ac6597f,61036f136c80f4089f7f115b,2021-07-29_22h17.14.915,Simcolourproject_2stim_asymm_v5,2020.2.10,Win32,60,61025ae37ef11b136ea224fe,,,,,,,,,3776,-70,110,1,0,0,response7disk,,0,5,-14,1,0,0,rectangle,5,-14,1,0,0,5,-14,1,0,0,1,111,271,12,1,,,,,,,,
,,,,,,,,,,,,,FF,,,,,,,,1.389,,,,,,,,,,,,,,,,,,,,,,60feedf44e7fa5131ac6597f,61036f136c80f4089f7f115b,2021-07-29_22h17.14.915,Simcolourproject_2stim_asymm_v5,2020.2.10,Win32,60,61025ae37ef11b136ea224fe,,,,,,,,,3909,-84,-46,1,0,0,response5disk,,2,1,-2,1,0,0,rectangle,1,-2,1,0,0,1,-2,1,0,0,1,112,272,32,1,,,,,,,,
,,,,,,,,,,,,,FF,,,,,,,,1.174,,,,,,,,,,,,,,,,,,,,,,60feedf44e7fa5131ac6597f,61036f136c80f4089f7f115b,2021-07-29_22h17.14.915,Simcolourproject_2stim_asymm_v5,2020.2.10,Win32,60,61025ae37ef11b136ea224fe,,,,,,,,,3128,44,102,1,0,0,response1disk,,7,-2,3,1,0,0,rectangle,-2,3,1,0,0,-2,3,1,0,0,1,113,273,60,1,,,,,,,,
,,,,,,,,,,,,,FF,,,,,,,,1.038,,,,,,,,,,,,,,,,,,,,,,60feedf44e7fa5131ac6597f,61036f136c80f4089f7f115b,2021-07-29_22h17.14.915,Simcolourproject_2stim_asymm_v5,2020.2.10,Win32,60,61025ae37ef11b136ea224fe,,,,,,,,,3298,-71,42,1,0,0,response7disk,,1,5,-4,1,0,0,rectangle,5,-4,1,0,0,5,-4,1,0,0,1,114,274,52,1,,,,,,,,
,,,,,,,,,,,,,FF,,,,,,,,1.477,,,,,,,,,,,,,,,,,,,,,,60feedf44e7fa5131ac6597f,61036f136c80f4089f7f115b,2021-07-29_22h17.14.915,Simcolourproject_2stim_asymm_v5,2020.2.10,Win32,60,61025ae37ef11b136ea224fe,,,,,,,,,3276,48,78,1,0,0,response1disk,,7,2,12,1,0,0,rectangle,2,12,1,0,0,2,12,1,0,0,1,115,275,101,1,,,,,,,,
,,,,,,,,,,,,,FF,,,,,,,,0.969,,,,,,,,,,,,,,,,,,,,,,60feedf44e7fa5131ac6597f,61036f136c80f4089f7f115b,2021-07-29_22h17.14.915,Simcolourproject_2stim_asymm_v5,2020.2.10,Win32,60,61025ae37ef11b136ea224fe,,,,,,,,,2978,50,105,1,0,0,response1disk,,7,7,2,1,0,0,rectangle,7,2,1,0,0,7,2,1,0,0,1,116,276,105,1,,,,,,,,
,,,,,,,,,,,,,FF,,,,,,,,1.062,,,,,,,,,,,,,,,,,,,,,,60feedf44e7fa5131ac6597f,61036f136c80f4089f7f115b,2021-07-29_22h17.14.915,Simcolourproject_2stim_asymm_v5,2020.2.10,Win32,60,61025ae37ef11b136ea224fe,,,,,,,,,472,72,46,1,0,0,response1disk,,6,10,-1,1,0,0,rectangle,10,-1,1,0,0,10,-1,1,0,0,1,117,277,104,1,,,,,,,,
,,,,,,,,,,,,,FF,,,,,,,,1.155,,,,,,,,,,,,,,,,,,,,,,60feedf44e7fa5131ac6597f,61036f136c80f4089f7f115b,2021-07-29_22h17.14.915,Simcolourproject_2stim_asymm_v5,2020.2.10,Win32,60,61025ae37ef11b136ea224fe,,,,,,,,,3463,-29,-96,1,0,0,response5disk,,3,-6,0,1,0,0,rectangle,-6,0,1,0,0,-6,0,1,0,0,1,118,278,43,1,,,,,,,,
,,,,,,,,,,,,,FF,,,,,,,,1.081,,,,,,,,,,,,,,,,,,,,,,60feedf44e7fa5131ac6597f,61036f136c80f4089f7f115b,2021-07-29_22h17.14.915,Simcolourproject_2stim_asymm_v5,2020.2.10,Win32,60,61025ae37ef11b136ea224fe,,,,,,,,,1379,-68,-38,1,0,0,response5disk,,2,-2,1,1,0,0,rectangle,-2,1,1,0,0,-2,1,1,0,0,1,119,279,55,1,,,,,,,,
,,,,,,,,,,,,,FF,,,,,,,,1.019,,,,,,,,,,,,,,,,,,,,,,60feedf44e7fa5131ac6597f,61036f136c80f4089f7f115b,2021-07-29_22h17.14.915,Simcolourproject_2stim_asymm_v5,2020.2.10,Win32,60,61025ae37ef11b136ea224fe,,,,,,,,,187,-85,35,1,0,0,response7disk,,1,-16,15,1,0,0,rectangle,-16,15,1,0,0,-16,15,1,0,0,1,120,280,87,1,,,,,,,,
,,,,,,,,,,,,,FF,,,,,,,,1.138,,,,,,,,,,,,,,,,,,,,,,60feedf44e7fa5131ac6597f,61036f136c80f4089f7f115b,2021-07-29_22h17.14.915,Simcolourproject_2stim_asymm_v5,2020.2.10,Win32,60,61025ae37ef11b136ea224fe,,,,,,,,,1626,91,53,1,0,0,response1disk,,6,-6,-2,1,0,0,rectangle,-6,-2,1,0,0,-6,-2,1,0,0,1,121,281,91,1,,,,,,,,
,,,,,,,,,,,,,FF,,,,,,,,1.208,,,,,,,,,,,,,,,,,,,,,,60feedf44e7fa5131ac6597f,61036f136c80f4089f7f115b,2021-07-29_22h17.14.915,Simcolourproject_2stim_asymm_v5,2020.2.10,Win32,60,61025ae37ef11b136ea224fe,,,,,,,,,378,-44,-54,1,0,0,response5disk,,3,6,5,1,0,0,rectangle,6,5,1,0,0,6,5,1,0,0,1,122,282,156,1,,,,,,,,
,,,,,,,,,,,,,FF,,,,,,,,1.268,,,,,,,,,,,,,,,,,,,,,,60feedf44e7fa5131ac6597f,61036f136c80f4089f7f115b,2021-07-29_22h17.14.915,Simcolourproject_2stim_asymm_v5,2020.2.10,Win32,60,61025ae37ef11b136ea224fe,,,,,,,,,3165,21,-84,1,0,0,response3disk,,4,2,2,1,0,0,rectangle,2,2,1,0,0,2,2,1,0,0,1,123,283,71,1,,,,,,,,
,,,,,,,,,,,,,FF,,,,,,,,2.069,,,,,,,,,,,,,,,,,,,,,,60feedf44e7fa5131ac6597f,61036f136c80f4089f7f115b,2021-07-29_22h17.14.915,Simcolourproject_2stim_asymm_v5,2020.2.10,Win32,60,61025ae37ef11b136ea224fe,,,,,,,,,1031,78,-42,1,0,0,response3disk,,5,1,-10,1,0,0,rectangle,1,-10,1,0,0,1,-10,1,0,0,1,124,284,10,1,,,,,,,,
,,,,,,,,,,,,,FF,,,,,,,,1.628,,,,,,,,,,,,,,,,,,,,,,60feedf44e7fa5131ac6597f,61036f136c80f4089f7f115b,2021-07-29_22h17.14.915,Simcolourproject_2stim_asymm_v5,2020.2.10,Win32,60,61025ae37ef11b136ea224fe,,,,,,,,,2644,94,41,1,0,0,response1disk,,6,5,4,1,0,0,rectangle,5,4,1,0,0,5,4,1,0,0,1,125,285,67,1,,,,,,,,
,,,,,,,,,,,,,FF,,,,,,,,1.865,,,,,,,,,,,,,,,,,,,,,,60feedf44e7fa5131ac6597f,61036f136c80f4089f7f115b,2021-07-29_22h17.14.915,Simcolourproject_2stim_asymm_v5,2020.2.10,Win32,60,61025ae37ef11b136ea224fe,,,,,,,,,1632,-26,-78,1,0,0,response5disk,,3,-14,8,1,0,0,rectangle,-14,8,1,0,0,-14,8,1,0,0,1,126,286,63,1,,,,,,,,
,,,,,,,,,,,,,FF,,,,,,,,0.929,,,,,,,,,,,,,,,,,,,,,,60feedf44e7fa5131ac6597f,61036f136c80f4089f7f115b,2021-07-29_22h17.14.915,Simcolourproject_2stim_asymm_v5,2020.2.10,Win32,60,61025ae37ef11b136ea224fe,,,,,,,,,1699,58,94,1,0,0,response1disk,,7,2,5,1,0,0,rectangle,2,5,1,0,0,2,5,1,0,0,1,127,287,135,1,,,,,,,,
,,,,,,,,,,,,,FF,,,,,,,,1.256,,,,,,,,,,,,,,,,,,,,,,60feedf44e7fa5131ac6597f,61036f136c80f4089f7f115b,2021-07-29_22h17.14.915,Simcolourproject_2stim_asymm_v5,2020.2.10,Win32,60,61025ae37ef11b136ea224fe,,,,,,,,,1273,41,82,1,0,0,response1disk,,7,6,2,1,0,0,rectangle,-29,-75,1,0,0,9,-2,1,0,0,1,128,288,25,1,,response5disk_3,TRUE,3,3,"[153,203,161,33,135,47,300,252,215,72,174,143,88,3,322,289,143,130,154,246]",2.101,rectangle
,,,,,,,,,,,,,FF,,,,,,,,1.107,,,,,,,,,,,,,,,,,,,,,,60feedf44e7fa5131ac6597f,61036f136c80f4089f7f115b,2021-07-29_22h17.14.915,Simcolourproject_2stim_asymm_v5,2020.2.10,Win32,60,61025ae37ef11b136ea224fe,,,,,,,,,986,-31,-76,1,0,0,response5disk,,3,0,-9,1,0,0,rectangle,0,-9,1,0,0,0,-9,1,0,0,1,129,289,78,1,,,,,,,,
,,,,,,,,,,,,,FF,,,,,,,,0.89,,,,,,,,,,,,,,,,,,,,,,60feedf44e7fa5131ac6597f,61036f136c80f4089f7f115b,2021-07-29_22h17.14.915,Simcolourproject_2stim_asymm_v5,2020.2.10,Win32,60,61025ae37ef11b136ea224fe,,,,,,,,,3065,-66,-47,1,0,0,response5disk,,2,-7,-7,1,0,0,rectangle,-7,-7,1,0,0,-7,-7,1,0,0,1,130,290,53,1,,,,,,,,
,,,,,,,,,,,,,FF,,,,,,,,1.016,,,,,,,,,,,,,,,,,,,,,,60feedf44e7fa5131ac6597f,61036f136c80f4089f7f115b,2021-07-29_22h17.14.915,Simcolourproject_2stim_asymm_v5,2020.2.10,Win32,60,61025ae37ef11b136ea224fe,,,,,,,,,3576,83,-46,1,0,0,response3disk,,5,-14,-10,1,0,0,rectangle,-14,-10,1,0,0,-14,-10,1,0,0,1,131,291,0,1,,,,,,,,
,,,,,,,,,,,,,FF,,,,,,,,1.167,,,,,,,,,,,,,,,,,,,,,,60feedf44e7fa5131ac6597f,61036f136c80f4089f7f115b,2021-07-29_22h17.14.915,Simcolourproject_2stim_asymm_v5,2020.2.10,Win32,60,61025ae37ef11b136ea224fe,,,,,,,,,899,-106,-54,1,0,0,response5disk,,2,-20,-13,1,0,0,rectangle,-20,-13,1,0,0,-20,-13,1,0,0,1,132,292,132,1,,,,,,,,
,,,,,,,,,,,,,FF,,,,,,,,1.049,,,,,,,,,,,,,,,,,,,,,,60feedf44e7fa5131ac6597f,61036f136c80f4089f7f115b,2021-07-29_22h17.14.915,Simcolourproject_2stim_asymm_v5,2020.2.10,Win32,60,61025ae37ef11b136ea224fe,,,,,,,,,2509,93,43,1,0,0,response1disk,,6,7,6,1,0,0,rectangle,7,6,1,0,0,7,6,1,0,0,1,133,293,149,1,,,,,,,,
,,,,,,,,,,,,,FF,,,,,,,,1.384,,,,,,,,,,,,,,,,,,,,,,60feedf44e7fa5131ac6597f,61036f136c80f4089f7f115b,2021-07-29_22h17.14.915,Simcolourproject_2stim_asymm_v5,2020.2.10,Win32,60,61025ae37ef11b136ea224fe,,,,,,,,,4064,72,44,1,0,0,response1disk,,6,-6,12,1,0,0,rectangle,-6,12,1,0,0,-6,12,1,0,0,1,134,294,69,1,,,,,,,,
,,,,,,,,,,,,,FF,,,,,,,,1.227,,,,,,,,,,,,,,,,,,,,,,60feedf44e7fa5131ac6597f,61036f136c80f4089f7f115b,2021-07-29_22h17.14.915,Simcolourproject_2stim_asymm_v5,2020.2.10,Win32,60,61025ae37ef11b136ea224fe,,,,,,,,,483,-35,-91,1,0,0,response5disk,,3,-2,2,1,0,0,rectangle,-2,2,1,0,0,-2,2,1,0,0,1,135,295,142,1,,,,,,,,
,,,,,,,,,,,,,FF,,,,,,,,1.311,,,,,,,,,,,,,,,,,,,,,,60feedf44e7fa5131ac6597f,61036f136c80f4089f7f115b,2021-07-29_22h17.14.915,Simcolourproject_2stim_asymm_v5,2020.2.10,Win32,60,61025ae37ef11b136ea224fe,,,,,,,,,2258,97,48,1,0,0,response1disk,,6,7,6,1,0,0,rectangle,7,6,1,0,0,7,6,1,0,0,1,136,296,119,1,,,,,,,,
,,,,,,,,,,,,,FF,,,,,,,,0.957,,,,,,,,,,,,,,,,,,,,,,60feedf44e7fa5131ac6597f,61036f136c80f4089f7f115b,2021-07-29_22h17.14.915,Simcolourproject_2stim_asymm_v5,2020.2.10,Win32,60,61025ae37ef11b136ea224fe,,,,,,,,,1049,43,103,1,0,0,response1disk,,7,-14,-12,1,0,0,rectangle,-14,-12,1,0,0,-14,-12,1,0,0,1,137,297,36,1,,,,,,,,
,,,,,,,,,,,,,FF,,,,,,,,1.12,,,,,,,,,,,,,,,,,,,,,,60feedf44e7fa5131ac6597f,61036f136c80f4089f7f115b,2021-07-29_22h17.14.915,Simcolourproject_2stim_asymm_v5,2020.2.10,Win32,60,61025ae37ef11b136ea224fe,,,,,,,,,4149,-61,-32,1,0,0,response5disk,,2,-16,3,1,0,0,rectangle,-16,3,1,0,0,-16,3,1,0,0,1,138,298,77,1,,,,,,,,
,,,,,,,,,,,,,FF,,,,,,,,1.034,,,,,,,,,,,,,,,,,,,,,,60feedf44e7fa5131ac6597f,61036f136c80f4089f7f115b,2021-07-29_22h17.14.915,Simcolourproject_2stim_asymm_v5,2020.2.10,Win32,60,61025ae37ef11b136ea224fe,,,,,,,,,2103,-36,-108,1,0,0,response5disk,,3,10,-6,1,0,0,rectangle,56,108,1,0,0,4,14,1,0,0,1,139,299,136,1,,response1disk_3,TRUE,7,7,"[153,203,161,33,135,47,300,252,215,72,174,143,88,3,322,289,143,130,154,246]",1.816,rectangle
,,,,,,,,,,,,,FF,,,,,,,,1.379,,,,,,,,,,,,,,,,,,,,,,60feedf44e7fa5131ac6597f,61036f136c80f4089f7f115b,2021-07-29_22h17.14.915,Simcolourproject_2stim_asymm_v5,2020.2.10,Win32,60,61025ae37ef11b136ea224fe,,,,,,,,,418,62,-34,1,0,0,response3disk,,5,6,-10,1,0,0,rectangle,6,-10,1,0,0,6,-10,1,0,0,1,140,300,126,1,,,,,,,,
,,,,,,,,,,,,,FF,,,,,,,,1.17,,,,,,,,,,,,,,,,,,,,,,60feedf44e7fa5131ac6597f,61036f136c80f4089f7f115b,2021-07-29_22h17.14.915,Simcolourproject_2stim_asymm_v5,2020.2.10,Win32,60,61025ae37ef11b136ea224fe,,,,,,,,,4154,78,50,1,0,0,response1disk,,6,1,13,1,0,0,rectangle,1,13,1,0,0,1,13,1,0,0,1,141,301,88,1,,,,,,,,
,,,,,,,,,,,,,FF,,,,,,,,0.962,,,,,,,,,,,,,,,,,,,,,,60feedf44e7fa5131ac6597f,61036f136c80f4089f7f115b,2021-07-29_22h17.14.915,Simcolourproject_2stim_asymm_v5,2020.2.10,Win32,60,61025ae37ef11b136ea224fe,,,,,,,,,2465,47,98,1,0,0,response1disk,,7,12,-1,1,0,0,rectangle,12,-1,1,0,0,12,-1,1,0,0,1,142,302,72,1,,,,,,,,
,,,,,,,,,,,,,FF,,,,,,,,1.387,,,,,,,,,,,,,,,,,,,,,,60feedf44e7fa5131ac6597f,61036f136c80f4089f7f115b,2021-07-29_22h17.14.915,Simcolourproject_2stim_asymm_v5,2020.2.10,Win32,60,61025ae37ef11b136ea224fe,,,,,,,,,3778,-90,26,1,0,0,response7disk,,1,-12,6,1,0,0,rectangle,-12,6,1,0,0,-12,6,1,0,0,1,143,303,154,1,,,,,,,,
