key_resp.keys,key_resp.rt,key_resp_14.keys,key_resp_14.rt,key_resp_15.keys,key_resp_15.rt,key_resp_17.keys,key_resp_17.rt,key_resp_9.keys,key_resp_9.rt,key_resp_10.keys,key_resp_10.rt,practice_comparison,Ecc,mouse_5.x,mouse_5.y,mouse_5.leftButton,mouse_5.midButton,mouse_5.rightButton,mouse_5.clicked_name,pracsimilarity,response_time,mouse_10.x,mouse_10.y,mouse_10.leftButton,mouse_10.midButton,mouse_10.rightButton,mouse_10.clicked_name,mouse_7.x,mouse_7.y,mouse_7.leftButton,mouse_7.midButton,mouse_7.rightButton,mouse_6.x,mouse_6.y,mouse_6.leftButton,mouse_6.midButton,mouse_6.rightButton,duringprac.thisRepN,duringprac.thisTrialN,duringprac.thisN,duringprac.thisIndex,duringprac.ran,participant,session,date,expName,psychopyVersion,OS,frameRate,study_id,mouse_7.clicked_name,catchpracsimilarity,catch_response_time,catchnumberprac,catchtrialorderprac,mouse_6.clicked_name,key_resp_22.keys,key_resp_22.rt,realcomparison,mouse.x,mouse.y,mouse.leftButton,mouse.midButton,mouse.rightButton,mouse.clicked_name,Colour2,similarity,mouse_2.x,mouse_2.y,mouse_2.leftButton,mouse_2.midButton,mouse_2.rightButton,mouse_2.clicked_name,mouse_3.x,mouse_3.y,mouse_3.leftButton,mouse_3.midButton,mouse_3.rightButton,mouse_11.x,mouse_11.y,mouse_11.leftButton,mouse_11.midButton,mouse_11.rightButton,trials_2.thisRepN,trials_2.thisTrialN,trials_2.thisN,trials_2.thisIndex,trials_2.ran,Colour1,mouse_3.clicked_name,catchornah,catchsimilarity,catchnumber,catchtrialorder,catchRT,mouse_11.clicked_name
space,3.132,space,33.817,space,53.962,space,12.624,space,9.819,space,6.497,108,PF,-61,-129,1,0,0,response5disk_5,3,5.351,12,1,1,0,0,rectangle_8,12,1,1,0,0,12,1,1,0,0,0,0,0,2,1,60fe0d742728a7c4f364d357,610375171fa4f9a1ea28ba7f,2021-07-29_23h58.07.506,Simcolourproject_2stim_asymm_v5,2020.2.10,Win32,60,61025ae37ef11b136ea224fe,,,,,,,,,,,,,,,,,,,,,,,,,,,,,,,,,,,,,,,,,,,,,,
,,,,,,,,,,,,31,PF,-58,143,1,0,0,response7disk_5,0,4.834,-1,0,1,0,0,rectangle_8,74,148,1,0,0,2,5,1,0,0,0,1,1,4,1,60fe0d742728a7c4f364d357,610375171fa4f9a1ea28ba7f,2021-07-29_23h58.07.506,Simcolourproject_2stim_asymm_v5,2020.2.10,Win32,60,61025ae37ef11b136ea224fe,response1disk_7,7,5.45,7,"[2,5]",rectangle_4,,,,,,,,,,,,,,,,,,,,,,,,,,,,,,,,,,,,,,,,
,,,,,,,,,,,,21,FF,-123,-67,1,0,0,response5disk_5,2,3.401,4,-7,1,0,0,rectangle_8,4,-7,1,0,0,4,-7,1,0,0,0,2,2,0,1,60fe0d742728a7c4f364d357,610375171fa4f9a1ea28ba7f,2021-07-29_23h58.07.506,Simcolourproject_2stim_asymm_v5,2020.2.10,Win32,60,61025ae37ef11b136ea224fe,,,,,,,,,,,,,,,,,,,,,,,,,,,,,,,,,,,,,,,,,,,,,,
,,,,,,,,,,,,157,PF,-58,-139,1,0,0,response5disk_5,3,4.6,0,-2,1,0,0,rectangle_8,0,-2,1,0,0,0,-2,1,0,0,0,3,3,6,1,60fe0d742728a7c4f364d357,610375171fa4f9a1ea28ba7f,2021-07-29_23h58.07.506,Simcolourproject_2stim_asymm_v5,2020.2.10,Win32,60,61025ae37ef11b136ea224fe,,,,,,,,,,,,,,,,,,,,,,,,,,,,,,,,,,,,,,,,,,,,,,
,,,,,,,,,,,,37,FF,42,-139,1,0,0,response3disk_5,4,14.268,5,1,1,0,0,rectangle_8,52,148,1,0,0,-10,-7,1,0,0,0,4,4,3,1,60fe0d742728a7c4f364d357,610375171fa4f9a1ea28ba7f,2021-07-29_23h58.07.506,Simcolourproject_2stim_asymm_v5,2020.2.10,Win32,60,61025ae37ef11b136ea224fe,response1disk_7,7,2.017,7,"[2,5]",rectangle_4,,,,,,,,,,,,,,,,,,,,,,,,,,,,,,,,,,,,,,,,
,,,,,,,,,,,,49,FF,-68,148,1,0,0,response7disk_5,0,2.434,-1,-9,1,0,0,rectangle_8,-1,-9,1,0,0,-1,-9,1,0,0,0,5,5,5,1,60fe0d742728a7c4f364d357,610375171fa4f9a1ea28ba7f,2021-07-29_23h58.07.506,Simcolourproject_2stim_asymm_v5,2020.2.10,Win32,60,61025ae37ef11b136ea224fe,,,,,,,,,,,,,,,,,,,,,,,,,,,,,,,,,,,,,,,,,,,,,,
,,,,,,,,,,,,61,PF,149,60,1,0,0,response1disk_5,6,4.899,7,1,1,0,0,rectangle_8,7,1,1,0,0,7,1,1,0,0,0,6,6,1,1,60fe0d742728a7c4f364d357,610375171fa4f9a1ea28ba7f,2021-07-29_23h58.07.506,Simcolourproject_2stim_asymm_v5,2020.2.10,Win32,60,61025ae37ef11b136ea224fe,,,,,,,,,,,,,,,,,,,,,,,,,,,,,,,,,,,,,,,,,,,,,,
,,,,,,,,,,,,,FF,,,,,,,,4.701,,,,,,,,,,,,,,,,,,,,,,60fe0d742728a7c4f364d357,610375171fa4f9a1ea28ba7f,2021-07-29_23h58.07.506,Simcolourproject_2stim_asymm_v5,2020.2.10,Win32,60,61025ae37ef11b136ea224fe,,,,,,,space,7.645,85,119,-62,1,0,0,response3disk,,5,2,5,1,0,0,rectangle,2,5,1,0,0,2,5,1,0,0,0,0,0,74,1,,,,,,,,
,,,,,,,,,,,,,FF,,,,,,,,3.334,,,,,,,,,,,,,,,,,,,,,,60fe0d742728a7c4f364d357,610375171fa4f9a1ea28ba7f,2021-07-29_23h58.07.506,Simcolourproject_2stim_asymm_v5,2020.2.10,Win32,60,61025ae37ef11b136ea224fe,,,,,,,,,3283,-131,-59,1,0,0,response5disk,,2,2,8,1,0,0,rectangle,2,8,1,0,0,2,8,1,0,0,0,1,1,152,1,,,,,,,,
,,,,,,,,,,,,,FF,,,,,,,,3.483,,,,,,,,,,,,,,,,,,,,,,60fe0d742728a7c4f364d357,610375171fa4f9a1ea28ba7f,2021-07-29_23h58.07.506,Simcolourproject_2stim_asymm_v5,2020.2.10,Win32,60,61025ae37ef11b136ea224fe,,,,,,,,,573,67,-140,1,0,0,response3disk,,4,-5,-2,1,0,0,rectangle,-5,-2,1,0,0,-5,-2,1,0,0,0,2,2,96,1,,,,,,,,
,,,,,,,,,,,,,FF,,,,,,,,8.316,,,,,,,,,,,,,,,,,,,,,,60fe0d742728a7c4f364d357,610375171fa4f9a1ea28ba7f,2021-07-29_23h58.07.506,Simcolourproject_2stim_asymm_v5,2020.2.10,Win32,60,61025ae37ef11b136ea224fe,,,,,,,,,1997,132,60,1,0,0,response1disk,,6,-20,8,1,0,0,rectangle,-20,8,1,0,0,-20,8,1,0,0,0,3,3,133,1,,,,,,,,
,,,,,,,,,,,,,FF,,,,,,,,2.484,,,,,,,,,,,,,,,,,,,,,,60fe0d742728a7c4f364d357,610375171fa4f9a1ea28ba7f,2021-07-29_23h58.07.506,Simcolourproject_2stim_asymm_v5,2020.2.10,Win32,60,61025ae37ef11b136ea224fe,,,,,,,,,3517,-130,50,1,0,0,response7disk,,1,10,-2,1,0,0,rectangle,10,-2,1,0,0,10,-2,1,0,0,0,4,4,122,1,,,,,,,,
,,,,,,,,,,,,,FF,,,,,,,,3.9,,,,,,,,,,,,,,,,,,,,,,60fe0d742728a7c4f364d357,610375171fa4f9a1ea28ba7f,2021-07-29_23h58.07.506,Simcolourproject_2stim_asymm_v5,2020.2.10,Win32,60,61025ae37ef11b136ea224fe,,,,,,,,,161,-128,-67,1,0,0,response5disk,,2,-1,-5,1,0,0,rectangle,-1,-5,1,0,0,-1,-5,1,0,0,0,5,5,17,1,,,,,,,,
,,,,,,,,,,,,,FF,,,,,,,,3.633,,,,,,,,,,,,,,,,,,,,,,60fe0d742728a7c4f364d357,610375171fa4f9a1ea28ba7f,2021-07-29_23h58.07.506,Simcolourproject_2stim_asymm_v5,2020.2.10,Win32,60,61025ae37ef11b136ea224fe,,,,,,,,,2794,-46,-139,1,0,0,response5disk,,3,-10,15,1,0,0,rectangle,-10,15,1,0,0,-10,15,1,0,0,0,6,6,29,1,,,,,,,,
,,,,,,,,,,,,,FF,,,,,,,,5.933,,,,,,,,,,,,,,,,,,,,,,60fe0d742728a7c4f364d357,610375171fa4f9a1ea28ba7f,2021-07-29_23h58.07.506,Simcolourproject_2stim_asymm_v5,2020.2.10,Win32,60,61025ae37ef11b136ea224fe,,,,,,,,,3074,142,53,1,0,0,response1disk,,6,-10,-14,1,0,0,rectangle,-10,-14,1,0,0,-10,-14,1,0,0,0,7,7,6,1,,,,,,,,
,,,,,,,,,,,,,FF,,,,,,,,3.317,,,,,,,,,,,,,,,,,,,,,,60fe0d742728a7c4f364d357,610375171fa4f9a1ea28ba7f,2021-07-29_23h58.07.506,Simcolourproject_2stim_asymm_v5,2020.2.10,Win32,60,61025ae37ef11b136ea224fe,,,,,,,,,497,129,-47,1,0,0,response3disk,,5,7,8,1,0,0,rectangle,7,8,1,0,0,7,8,1,0,0,0,8,8,156,1,,,,,,,,
,,,,,,,,,,,,,FF,,,,,,,,2.099,,,,,,,,,,,,,,,,,,,,,,60fe0d742728a7c4f364d357,610375171fa4f9a1ea28ba7f,2021-07-29_23h58.07.506,Simcolourproject_2stim_asymm_v5,2020.2.10,Win32,60,61025ae37ef11b136ea224fe,,,,,,,,,3621,144,53,1,0,0,response1disk,,6,-3,-7,1,0,0,rectangle,-3,-7,1,0,0,-3,-7,1,0,0,0,9,9,35,1,,,,,,,,
,,,,,,,,,,,,,FF,,,,,,,,2.601,,,,,,,,,,,,,,,,,,,,,,60fe0d742728a7c4f364d357,610375171fa4f9a1ea28ba7f,2021-07-29_23h58.07.506,Simcolourproject_2stim_asymm_v5,2020.2.10,Win32,60,61025ae37ef11b136ea224fe,,,,,,,,,3143,144,58,1,0,0,response1disk,,6,2,1,1,0,0,rectangle,2,1,1,0,0,2,1,1,0,0,0,10,10,100,1,,,,,,,,
,,,,,,,,,,,,,FF,,,,,,,,2.633,,,,,,,,,,,,,,,,,,,,,,60fe0d742728a7c4f364d357,610375171fa4f9a1ea28ba7f,2021-07-29_23h58.07.506,Simcolourproject_2stim_asymm_v5,2020.2.10,Win32,60,61025ae37ef11b136ea224fe,,,,,,,,,4356,-46,145,1,0,0,response7disk,,0,-11,6,1,0,0,rectangle,-11,6,1,0,0,-11,6,1,0,0,0,11,11,98,1,,,,,,,,
,,,,,,,,,,,,,FF,,,,,,,,1.567,,,,,,,,,,,,,,,,,,,,,,60fe0d742728a7c4f364d357,610375171fa4f9a1ea28ba7f,2021-07-29_23h58.07.506,Simcolourproject_2stim_asymm_v5,2020.2.10,Win32,60,61025ae37ef11b136ea224fe,,,,,,,,,4051,-130,-72,1,0,0,response5disk,,2,-6,0,1,0,0,rectangle,-6,0,1,0,0,-6,0,1,0,0,0,12,12,10,1,,,,,,,,
,,,,,,,,,,,,,FF,,,,,,,,1.55,,,,,,,,,,,,,,,,,,,,,,60fe0d742728a7c4f364d357,610375171fa4f9a1ea28ba7f,2021-07-29_23h58.07.506,Simcolourproject_2stim_asymm_v5,2020.2.10,Win32,60,61025ae37ef11b136ea224fe,,,,,,,,,129,67,-149,1,0,0,response3disk,,4,-5,18,1,0,0,rectangle,-5,18,1,0,0,-5,18,1,0,0,0,13,13,39,1,,,,,,,,
,,,,,,,,,,,,,FF,,,,,,,,1.2,,,,,,,,,,,,,,,,,,,,,,60fe0d742728a7c4f364d357,610375171fa4f9a1ea28ba7f,2021-07-29_23h58.07.506,Simcolourproject_2stim_asymm_v5,2020.2.10,Win32,60,61025ae37ef11b136ea224fe,,,,,,,,,333,62,-129,1,0,0,response3disk,,4,12,-5,1,0,0,rectangle,12,-5,1,0,0,12,-5,1,0,0,0,14,14,140,1,,,,,,,,
,,,,,,,,,,,,,FF,,,,,,,,2.515,,,,,,,,,,,,,,,,,,,,,,60fe0d742728a7c4f364d357,610375171fa4f9a1ea28ba7f,2021-07-29_23h58.07.506,Simcolourproject_2stim_asymm_v5,2020.2.10,Win32,60,61025ae37ef11b136ea224fe,,,,,,,,,1713,134,53,1,0,0,response1disk,,6,2,-7,1,0,0,rectangle,2,-7,1,0,0,2,-7,1,0,0,0,15,15,126,1,,,,,,,,
,,,,,,,,,,,,,FF,,,,,,,,1.267,,,,,,,,,,,,,,,,,,,,,,60fe0d742728a7c4f364d357,610375171fa4f9a1ea28ba7f,2021-07-29_23h58.07.506,Simcolourproject_2stim_asymm_v5,2020.2.10,Win32,60,61025ae37ef11b136ea224fe,,,,,,,,,2144,132,-62,1,0,0,response3disk,,5,-5,-2,1,0,0,rectangle,42,120,1,0,0,-3,1,1,0,0,0,16,16,111,1,,response1disk_3,TRUE,7,7,"[154,210,310,59,86,172,17,120,60,172,122,180,241,303,137,218,150,84,149,126]",1.683,rectangle
,,,,,,,,,,,,,FF,,,,,,,,1.851,,,,,,,,,,,,,,,,,,,,,,60fe0d742728a7c4f364d357,610375171fa4f9a1ea28ba7f,2021-07-29_23h58.07.506,Simcolourproject_2stim_asymm_v5,2020.2.10,Win32,60,61025ae37ef11b136ea224fe,,,,,,,,,198,77,-114,1,0,0,response3disk,,4,5,0,1,0,0,rectangle,5,0,1,0,0,5,0,1,0,0,0,17,17,26,1,,,,,,,,
,,,,,,,,,,,,,FF,,,,,,,,1.45,,,,,,,,,,,,,,,,,,,,,,60fe0d742728a7c4f364d357,610375171fa4f9a1ea28ba7f,2021-07-29_23h58.07.506,Simcolourproject_2stim_asymm_v5,2020.2.10,Win32,60,61025ae37ef11b136ea224fe,,,,,,,,,4084,-70,-157,1,0,0,response5disk,,3,7,3,1,0,0,rectangle,7,3,1,0,0,7,3,1,0,0,0,18,18,42,1,,,,,,,,
,,,,,,,,,,,,,FF,,,,,,,,2.267,,,,,,,,,,,,,,,,,,,,,,60fe0d742728a7c4f364d357,610375171fa4f9a1ea28ba7f,2021-07-29_23h58.07.506,Simcolourproject_2stim_asymm_v5,2020.2.10,Win32,60,61025ae37ef11b136ea224fe,,,,,,,,,3988,44,-162,1,0,0,response3disk,,4,2,-10,1,0,0,rectangle,2,-10,1,0,0,2,-10,1,0,0,0,19,19,123,1,,,,,,,,
,,,,,,,,,,,,,FF,,,,,,,,1.75,,,,,,,,,,,,,,,,,,,,,,60fe0d742728a7c4f364d357,610375171fa4f9a1ea28ba7f,2021-07-29_23h58.07.506,Simcolourproject_2stim_asymm_v5,2020.2.10,Win32,60,61025ae37ef11b136ea224fe,,,,,,,,,2505,152,58,1,0,0,response1disk,,6,-10,11,1,0,0,rectangle,-10,11,1,0,0,-10,11,1,0,0,0,20,20,45,1,,,,,,,,
,,,,,,,,,,,,,FF,,,,,,,,3.867,,,,,,,,,,,,,,,,,,,,,,60fe0d742728a7c4f364d357,610375171fa4f9a1ea28ba7f,2021-07-29_23h58.07.506,Simcolourproject_2stim_asymm_v5,2020.2.10,Win32,60,61025ae37ef11b136ea224fe,,,,,,,,,3138,-133,-65,1,0,0,response5disk,,2,14,0,1,0,0,rectangle,14,0,1,0,0,14,0,1,0,0,0,21,21,7,1,,,,,,,,
,,,,,,,,,,,,,FF,,,,,,,,1.399,,,,,,,,,,,,,,,,,,,,,,60fe0d742728a7c4f364d357,610375171fa4f9a1ea28ba7f,2021-07-29_23h58.07.506,Simcolourproject_2stim_asymm_v5,2020.2.10,Win32,60,61025ae37ef11b136ea224fe,,,,,,,,,2680,-48,-154,1,0,0,response5disk,,3,-1,-5,1,0,0,rectangle,-1,-5,1,0,0,-1,-5,1,0,0,0,22,22,33,1,,,,,,,,
,,,,,,,,,,,,,FF,,,,,,,,2.849,,,,,,,,,,,,,,,,,,,,,,60fe0d742728a7c4f364d357,610375171fa4f9a1ea28ba7f,2021-07-29_23h58.07.506,Simcolourproject_2stim_asymm_v5,2020.2.10,Win32,60,61025ae37ef11b136ea224fe,,,,,,,,,1013,107,-49,1,0,0,response3disk,,5,2,-2,1,0,0,rectangle,2,-2,1,0,0,2,-2,1,0,0,0,23,23,87,1,,,,,,,,
,,,,,,,,,,,,,FF,,,,,,,,1.883,,,,,,,,,,,,,,,,,,,,,,60fe0d742728a7c4f364d357,610375171fa4f9a1ea28ba7f,2021-07-29_23h58.07.506,Simcolourproject_2stim_asymm_v5,2020.2.10,Win32,60,61025ae37ef11b136ea224fe,,,,,,,,,290,74,-157,1,0,0,response3disk,,4,-23,10,1,0,0,rectangle,-23,10,1,0,0,-23,10,1,0,0,0,24,24,107,1,,,,,,,,
,,,,,,,,,,,,,FF,,,,,,,,3.3,,,,,,,,,,,,,,,,,,,,,,60fe0d742728a7c4f364d357,610375171fa4f9a1ea28ba7f,2021-07-29_23h58.07.506,Simcolourproject_2stim_asymm_v5,2020.2.10,Win32,60,61025ae37ef11b136ea224fe,,,,,,,,,4266,-136,-54,1,0,0,response5disk,,2,2,8,1,0,0,rectangle,2,8,1,0,0,2,8,1,0,0,0,25,25,34,1,,,,,,,,
,,,,,,,,,,,,,FF,,,,,,,,1.251,,,,,,,,,,,,,,,,,,,,,,60fe0d742728a7c4f364d357,610375171fa4f9a1ea28ba7f,2021-07-29_23h58.07.506,Simcolourproject_2stim_asymm_v5,2020.2.10,Win32,60,61025ae37ef11b136ea224fe,,,,,,,,,2678,-55,-144,1,0,0,response5disk,,3,-8,-2,1,0,0,rectangle,-8,-2,1,0,0,-8,-2,1,0,0,0,26,26,118,1,,,,,,,,
,,,,,,,,,,,,,FF,,,,,,,,1.567,,,,,,,,,,,,,,,,,,,,,,60fe0d742728a7c4f364d357,610375171fa4f9a1ea28ba7f,2021-07-29_23h58.07.506,Simcolourproject_2stim_asymm_v5,2020.2.10,Win32,60,61025ae37ef11b136ea224fe,,,,,,,,,1782,47,-124,1,0,0,response3disk,,4,-10,13,1,0,0,rectangle,-10,13,1,0,0,-10,13,1,0,0,0,27,27,120,1,,,,,,,,
,,,,,,,,,,,,,FF,,,,,,,,1.95,,,,,,,,,,,,,,,,,,,,,,60fe0d742728a7c4f364d357,610375171fa4f9a1ea28ba7f,2021-07-29_23h58.07.506,Simcolourproject_2stim_asymm_v5,2020.2.10,Win32,60,61025ae37ef11b136ea224fe,,,,,,,,,3291,-128,-62,1,0,0,response5disk,,2,22,15,1,0,0,rectangle,22,15,1,0,0,22,15,1,0,0,0,28,28,32,1,,,,,,,,
,,,,,,,,,,,,,FF,,,,,,,,4.5,,,,,,,,,,,,,,,,,,,,,,60fe0d742728a7c4f364d357,610375171fa4f9a1ea28ba7f,2021-07-29_23h58.07.506,Simcolourproject_2stim_asymm_v5,2020.2.10,Win32,60,61025ae37ef11b136ea224fe,,,,,,,,,275,137,58,1,0,0,response1disk,,6,22,-4,1,0,0,rectangle,22,-4,1,0,0,22,-4,1,0,0,0,29,29,99,1,,,,,,,,
,,,,,,,,,,,,,FF,,,,,,,,2.583,,,,,,,,,,,,,,,,,,,,,,60fe0d742728a7c4f364d357,610375171fa4f9a1ea28ba7f,2021-07-29_23h58.07.506,Simcolourproject_2stim_asymm_v5,2020.2.10,Win32,60,61025ae37ef11b136ea224fe,,,,,,,,,2039,-60,-135,1,0,0,response5disk,,3,12,15,1,0,0,rectangle,12,15,1,0,0,12,15,1,0,0,0,30,30,115,1,,,,,,,,
,,,,,,,,,,,,,FF,,,,,,,,1.633,,,,,,,,,,,,,,,,,,,,,,60fe0d742728a7c4f364d357,610375171fa4f9a1ea28ba7f,2021-07-29_23h58.07.506,Simcolourproject_2stim_asymm_v5,2020.2.10,Win32,60,61025ae37ef11b136ea224fe,,,,,,,,,2718,-78,130,1,0,0,response7disk,,0,-3,8,1,0,0,rectangle,-3,8,1,0,0,-3,8,1,0,0,0,31,31,63,1,,,,,,,,
,,,,,,,,,,,,,FF,,,,,,,,3.183,,,,,,,,,,,,,,,,,,,,,,60fe0d742728a7c4f364d357,610375171fa4f9a1ea28ba7f,2021-07-29_23h58.07.506,Simcolourproject_2stim_asymm_v5,2020.2.10,Win32,60,61025ae37ef11b136ea224fe,,,,,,,,,3840,159,53,1,0,0,response1disk,,6,-8,0,1,0,0,rectangle,-8,0,1,0,0,-8,0,1,0,0,0,32,32,148,1,,,,,,,,
,,,,,,,,,,,,,FF,,,,,,,,1.434,,,,,,,,,,,,,,,,,,,,,,60fe0d742728a7c4f364d357,610375171fa4f9a1ea28ba7f,2021-07-29_23h58.07.506,Simcolourproject_2stim_asymm_v5,2020.2.10,Win32,60,61025ae37ef11b136ea224fe,,,,,,,,,4101,-60,-124,1,0,0,response5disk,,3,-18,18,1,0,0,rectangle,-18,18,1,0,0,-18,18,1,0,0,0,33,33,61,1,,,,,,,,
,,,,,,,,,,,,,FF,,,,,,,,2.251,,,,,,,,,,,,,,,,,,,,,,60fe0d742728a7c4f364d357,610375171fa4f9a1ea28ba7f,2021-07-29_23h58.07.506,Simcolourproject_2stim_asymm_v5,2020.2.10,Win32,60,61025ae37ef11b136ea224fe,,,,,,,,,2622,-48,-149,1,0,0,response5disk,,3,15,0,1,0,0,rectangle,15,0,1,0,0,15,0,1,0,0,0,34,34,1,1,,,,,,,,
,,,,,,,,,,,,,FF,,,,,,,,1.518,,,,,,,,,,,,,,,,,,,,,,60fe0d742728a7c4f364d357,610375171fa4f9a1ea28ba7f,2021-07-29_23h58.07.506,Simcolourproject_2stim_asymm_v5,2020.2.10,Win32,60,61025ae37ef11b136ea224fe,,,,,,,,,658,-125,-49,1,0,0,response5disk,,2,9,18,1,0,0,rectangle,9,18,1,0,0,9,18,1,0,0,0,35,35,40,1,,,,,,,,
,,,,,,,,,,,,,FF,,,,,,,,2.333,,,,,,,,,,,,,,,,,,,,,,60fe0d742728a7c4f364d357,610375171fa4f9a1ea28ba7f,2021-07-29_23h58.07.506,Simcolourproject_2stim_asymm_v5,2020.2.10,Win32,60,61025ae37ef11b136ea224fe,,,,,,,,,856,119,-37,1,0,0,response3disk,,5,0,5,1,0,0,rectangle,0,5,1,0,0,0,5,1,0,0,0,36,36,44,1,,,,,,,,
,,,,,,,,,,,,,FF,,,,,,,,1.1,,,,,,,,,,,,,,,,,,,,,,60fe0d742728a7c4f364d357,610375171fa4f9a1ea28ba7f,2021-07-29_23h58.07.506,Simcolourproject_2stim_asymm_v5,2020.2.10,Win32,60,61025ae37ef11b136ea224fe,,,,,,,,,2791,-63,-157,1,0,0,response5disk,,3,2,-2,1,0,0,rectangle,2,-2,1,0,0,2,-2,1,0,0,0,37,37,81,1,,,,,,,,
,,,,,,,,,,,,,FF,,,,,,,,2.65,,,,,,,,,,,,,,,,,,,,,,60fe0d742728a7c4f364d357,610375171fa4f9a1ea28ba7f,2021-07-29_23h58.07.506,Simcolourproject_2stim_asymm_v5,2020.2.10,Win32,60,61025ae37ef11b136ea224fe,,,,,,,,,3655,162,50,1,0,0,response1disk,,6,-23,-2,1,0,0,rectangle,-23,-2,1,0,0,-23,-2,1,0,0,0,38,38,36,1,,,,,,,,
,,,,,,,,,,,,,FF,,,,,,,,2.65,,,,,,,,,,,,,,,,,,,,,,60fe0d742728a7c4f364d357,610375171fa4f9a1ea28ba7f,2021-07-29_23h58.07.506,Simcolourproject_2stim_asymm_v5,2020.2.10,Win32,60,61025ae37ef11b136ea224fe,,,,,,,,,2799,-58,-149,1,0,0,response5disk,,3,-11,3,1,0,0,rectangle,-11,3,1,0,0,-11,3,1,0,0,0,39,39,147,1,,,,,,,,
,,,,,,,,,,,,,FF,,,,,,,,1.366,,,,,,,,,,,,,,,,,,,,,,60fe0d742728a7c4f364d357,610375171fa4f9a1ea28ba7f,2021-07-29_23h58.07.506,Simcolourproject_2stim_asymm_v5,2020.2.10,Win32,60,61025ae37ef11b136ea224fe,,,,,,,,,1320,72,-144,1,0,0,response3disk,,4,-3,-5,1,0,0,rectangle,-3,-5,1,0,0,-3,-5,1,0,0,0,40,40,158,1,,,,,,,,
,,,,,,,,,,,,,FF,,,,,,,,1.117,,,,,,,,,,,,,,,,,,,,,,60fe0d742728a7c4f364d357,610375171fa4f9a1ea28ba7f,2021-07-29_23h58.07.506,Simcolourproject_2stim_asymm_v5,2020.2.10,Win32,60,61025ae37ef11b136ea224fe,,,,,,,,,1303,-63,-144,1,0,0,response5disk,,3,-3,0,1,0,0,rectangle,-3,0,1,0,0,-3,0,1,0,0,0,41,41,30,1,,,,,,,,
,,,,,,,,,,,,,FF,,,,,,,,1.967,,,,,,,,,,,,,,,,,,,,,,60fe0d742728a7c4f364d357,610375171fa4f9a1ea28ba7f,2021-07-29_23h58.07.506,Simcolourproject_2stim_asymm_v5,2020.2.10,Win32,60,61025ae37ef11b136ea224fe,,,,,,,,,3822,77,-152,1,0,0,response3disk,,4,2,-17,1,0,0,rectangle,2,-17,1,0,0,2,-17,1,0,0,0,42,42,153,1,,,,,,,,
,,,,,,,,,,,,,FF,,,,,,,,2.65,,,,,,,,,,,,,,,,,,,,,,60fe0d742728a7c4f364d357,610375171fa4f9a1ea28ba7f,2021-07-29_23h58.07.506,Simcolourproject_2stim_asymm_v5,2020.2.10,Win32,60,61025ae37ef11b136ea224fe,,,,,,,,,3788,-53,-129,1,0,0,response5disk,,3,-3,8,1,0,0,rectangle,-3,8,1,0,0,-3,8,1,0,0,0,43,43,80,1,,,,,,,,
,,,,,,,,,,,,,FF,,,,,,,,1.601,,,,,,,,,,,,,,,,,,,,,,60fe0d742728a7c4f364d357,610375171fa4f9a1ea28ba7f,2021-07-29_23h58.07.506,Simcolourproject_2stim_asymm_v5,2020.2.10,Win32,60,61025ae37ef11b136ea224fe,,,,,,,,,1419,104,-45,1,0,0,response3disk,,5,17,-17,1,0,0,rectangle,17,-17,1,0,0,17,-17,1,0,0,0,44,44,2,1,,,,,,,,
,,,,,,,,,,,,,FF,,,,,,,,1.368,,,,,,,,,,,,,,,,,,,,,,60fe0d742728a7c4f364d357,610375171fa4f9a1ea28ba7f,2021-07-29_23h58.07.506,Simcolourproject_2stim_asymm_v5,2020.2.10,Win32,60,61025ae37ef11b136ea224fe,,,,,,,,,2662,-128,-49,1,0,0,response5disk,,2,-11,20,1,0,0,rectangle,-11,20,1,0,0,-11,20,1,0,0,0,45,45,112,1,,,,,,,,
,,,,,,,,,,,,,FF,,,,,,,,1.166,,,,,,,,,,,,,,,,,,,,,,60fe0d742728a7c4f364d357,610375171fa4f9a1ea28ba7f,2021-07-29_23h58.07.506,Simcolourproject_2stim_asymm_v5,2020.2.10,Win32,60,61025ae37ef11b136ea224fe,,,,,,,,,4027,-95,50,1,0,0,response7disk,,1,7,-2,1,0,0,rectangle,7,-2,1,0,0,7,-2,1,0,0,0,46,46,116,1,,,,,,,,
,,,,,,,,,,,,,FF,,,,,,,,2.116,,,,,,,,,,,,,,,,,,,,,,60fe0d742728a7c4f364d357,610375171fa4f9a1ea28ba7f,2021-07-29_23h58.07.506,Simcolourproject_2stim_asymm_v5,2020.2.10,Win32,60,61025ae37ef11b136ea224fe,,,,,,,,,2380,54,-137,1,0,0,response3disk,,4,-3,-2,1,0,0,rectangle,-3,-2,1,0,0,-3,-2,1,0,0,0,47,47,124,1,,,,,,,,
,,,,,,,,,,,,,FF,,,,,,,,2.283,,,,,,,,,,,,,,,,,,,,,,60fe0d742728a7c4f364d357,610375171fa4f9a1ea28ba7f,2021-07-29_23h58.07.506,Simcolourproject_2stim_asymm_v5,2020.2.10,Win32,60,61025ae37ef11b136ea224fe,,,,,,,,,2084,142,46,1,0,0,response1disk,,6,-28,10,1,0,0,rectangle,-28,10,1,0,0,-28,10,1,0,0,0,48,48,155,1,,,,,,,,
,,,,,,,,,,,,,FF,,,,,,,,4.8,,,,,,,,,,,,,,,,,,,,,,60fe0d742728a7c4f364d357,610375171fa4f9a1ea28ba7f,2021-07-29_23h58.07.506,Simcolourproject_2stim_asymm_v5,2020.2.10,Win32,60,61025ae37ef11b136ea224fe,,,,,,,,,3936,-46,136,1,0,0,response7disk,,0,7,3,1,0,0,rectangle,7,3,1,0,0,7,3,1,0,0,0,49,49,37,1,,,,,,,,
,,,,,,,,,,,,,FF,,,,,,,,1.767,,,,,,,,,,,,,,,,,,,,,,60fe0d742728a7c4f364d357,610375171fa4f9a1ea28ba7f,2021-07-29_23h58.07.506,Simcolourproject_2stim_asymm_v5,2020.2.10,Win32,60,61025ae37ef11b136ea224fe,,,,,,,,,4196,57,-137,1,0,0,response3disk,,4,12,3,1,0,0,rectangle,12,3,1,0,0,12,3,1,0,0,0,50,50,52,1,,,,,,,,
,,,,,,,,,,,,,FF,,,,,,,,1.483,,,,,,,,,,,,,,,,,,,,,,60fe0d742728a7c4f364d357,610375171fa4f9a1ea28ba7f,2021-07-29_23h58.07.506,Simcolourproject_2stim_asymm_v5,2020.2.10,Win32,60,61025ae37ef11b136ea224fe,,,,,,,,,2439,135,-55,1,0,0,response3disk,,5,5,15,1,0,0,rectangle,5,15,1,0,0,5,15,1,0,0,0,51,51,95,1,,,,,,,,
,,,,,,,,,,,,,FF,,,,,,,,1.683,,,,,,,,,,,,,,,,,,,,,,60fe0d742728a7c4f364d357,610375171fa4f9a1ea28ba7f,2021-07-29_23h58.07.506,Simcolourproject_2stim_asymm_v5,2020.2.10,Win32,60,61025ae37ef11b136ea224fe,,,,,,,,,1110,-70,-149,1,0,0,response5disk,,3,7,5,1,0,0,rectangle,7,5,1,0,0,7,5,1,0,0,0,52,52,38,1,,,,,,,,
,,,,,,,,,,,,,FF,,,,,,,,1.284,,,,,,,,,,,,,,,,,,,,,,60fe0d742728a7c4f364d357,610375171fa4f9a1ea28ba7f,2021-07-29_23h58.07.506,Simcolourproject_2stim_asymm_v5,2020.2.10,Win32,60,61025ae37ef11b136ea224fe,,,,,,,,,3515,-125,-57,1,0,0,response5disk,,2,-3,10,1,0,0,rectangle,-3,10,1,0,0,-3,10,1,0,0,0,53,53,8,1,,,,,,,,
,,,,,,,,,,,,,FF,,,,,,,,3.25,,,,,,,,,,,,,,,,,,,,,,60fe0d742728a7c4f364d357,610375171fa4f9a1ea28ba7f,2021-07-29_23h58.07.506,Simcolourproject_2stim_asymm_v5,2020.2.10,Win32,60,61025ae37ef11b136ea224fe,,,,,,,,,977,47,-139,1,0,0,response3disk,,4,-15,-7,1,0,0,rectangle,-15,-7,1,0,0,-15,-7,1,0,0,0,54,54,55,1,,,,,,,,
,,,,,,,,,,,,,FF,,,,,,,,2.749,,,,,,,,,,,,,,,,,,,,,,60fe0d742728a7c4f364d357,610375171fa4f9a1ea28ba7f,2021-07-29_23h58.07.506,Simcolourproject_2stim_asymm_v5,2020.2.10,Win32,60,61025ae37ef11b136ea224fe,,,,,,,,,1541,82,-139,1,0,0,response3disk,,4,7,0,1,0,0,rectangle,7,0,1,0,0,7,0,1,0,0,0,55,55,60,1,,,,,,,,
,,,,,,,,,,,,,FF,,,,,,,,1.4,,,,,,,,,,,,,,,,,,,,,,60fe0d742728a7c4f364d357,610375171fa4f9a1ea28ba7f,2021-07-29_23h58.07.506,Simcolourproject_2stim_asymm_v5,2020.2.10,Win32,60,61025ae37ef11b136ea224fe,,,,,,,,,1377,-68,-149,1,0,0,response5disk,,3,2,3,1,0,0,rectangle,2,3,1,0,0,2,3,1,0,0,0,56,56,9,1,,,,,,,,
,,,,,,,,,,,,,FF,,,,,,,,1.15,,,,,,,,,,,,,,,,,,,,,,60fe0d742728a7c4f364d357,610375171fa4f9a1ea28ba7f,2021-07-29_23h58.07.506,Simcolourproject_2stim_asymm_v5,2020.2.10,Win32,60,61025ae37ef11b136ea224fe,,,,,,,,,1347,114,-44,1,0,0,response3disk,,5,20,8,1,0,0,rectangle,20,8,1,0,0,20,8,1,0,0,0,57,57,19,1,,,,,,,,
,,,,,,,,,,,,,FF,,,,,,,,1.718,,,,,,,,,,,,,,,,,,,,,,60fe0d742728a7c4f364d357,610375171fa4f9a1ea28ba7f,2021-07-29_23h58.07.506,Simcolourproject_2stim_asymm_v5,2020.2.10,Win32,60,61025ae37ef11b136ea224fe,,,,,,,,,478,137,53,1,0,0,response1disk,,6,17,-2,1,0,0,rectangle,55,145,1,0,0,20,-4,1,0,0,0,58,58,141,1,,response1disk_3,TRUE,7,7,"[154,210,310,59,86,172,17,120,60,172,122,180,241,303,137,218,150,84,149,126]",1.317,rectangle
,,,,,,,,,,,,,FF,,,,,,,,2.434,,,,,,,,,,,,,,,,,,,,,,60fe0d742728a7c4f364d357,610375171fa4f9a1ea28ba7f,2021-07-29_23h58.07.506,Simcolourproject_2stim_asymm_v5,2020.2.10,Win32,60,61025ae37ef11b136ea224fe,,,,,,,,,1043,-60,-139,1,0,0,response5disk,,3,9,20,1,0,0,rectangle,67,123,1,0,0,-8,-12,1,0,0,0,59,59,4,1,,response1disk_3,TRUE,7,7,"[154,210,310,59,86,172,17,120,60,172,122,180,241,303,137,218,150,84,149,126]",1.449,rectangle
,,,,,,,,,,,,,FF,,,,,,,,4.134,,,,,,,,,,,,,,,,,,,,,,60fe0d742728a7c4f364d357,610375171fa4f9a1ea28ba7f,2021-07-29_23h58.07.506,Simcolourproject_2stim_asymm_v5,2020.2.10,Win32,60,61025ae37ef11b136ea224fe,,,,,,,,,3079,117,-62,1,0,0,response3disk,,5,-13,16,1,0,0,rectangle,-13,16,1,0,0,-13,16,1,0,0,0,60,60,83,1,,,,,,,,
,,,,,,,,,,,,,FF,,,,,,,,1.317,,,,,,,,,,,,,,,,,,,,,,60fe0d742728a7c4f364d357,610375171fa4f9a1ea28ba7f,2021-07-29_23h58.07.506,Simcolourproject_2stim_asymm_v5,2020.2.10,Win32,60,61025ae37ef11b136ea224fe,,,,,,,,,1359,67,141,1,0,0,response1disk,,7,5,16,1,0,0,rectangle,5,16,1,0,0,5,16,1,0,0,0,61,61,113,1,,,,,,,,
,,,,,,,,,,,,,FF,,,,,,,,1.434,,,,,,,,,,,,,,,,,,,,,,60fe0d742728a7c4f364d357,610375171fa4f9a1ea28ba7f,2021-07-29_23h58.07.506,Simcolourproject_2stim_asymm_v5,2020.2.10,Win32,60,61025ae37ef11b136ea224fe,,,,,,,,,251,-60,-129,1,0,0,response5disk,,3,4,-5,1,0,0,rectangle,4,-5,1,0,0,4,-5,1,0,0,0,62,62,132,1,,,,,,,,
,,,,,,,,,,,,,FF,,,,,,,,0.817,,,,,,,,,,,,,,,,,,,,,,60fe0d742728a7c4f364d357,610375171fa4f9a1ea28ba7f,2021-07-29_23h58.07.506,Simcolourproject_2stim_asymm_v5,2020.2.10,Win32,60,61025ae37ef11b136ea224fe,,,,,,,,,2839,-65,-144,1,0,0,response5disk,,3,-3,-5,1,0,0,rectangle,-3,-5,1,0,0,-3,-5,1,0,0,0,63,63,21,1,,,,,,,,
,,,,,,,,,,,,,FF,,,,,,,,1.384,,,,,,,,,,,,,,,,,,,,,,60fe0d742728a7c4f364d357,610375171fa4f9a1ea28ba7f,2021-07-29_23h58.07.506,Simcolourproject_2stim_asymm_v5,2020.2.10,Win32,60,61025ae37ef11b136ea224fe,,,,,,,,,3658,132,-57,1,0,0,response3disk,,5,5,8,1,0,0,rectangle,5,8,1,0,0,5,8,1,0,0,0,64,64,130,1,,,,,,,,
,,,,,,,,,,,,,FF,,,,,,,,1.582,,,,,,,,,,,,,,,,,,,,,,60fe0d742728a7c4f364d357,610375171fa4f9a1ea28ba7f,2021-07-29_23h58.07.506,Simcolourproject_2stim_asymm_v5,2020.2.10,Win32,60,61025ae37ef11b136ea224fe,,,,,,,,,1953,132,48,1,0,0,response1disk,,6,20,13,1,0,0,rectangle,20,13,1,0,0,20,13,1,0,0,0,65,65,69,1,,,,,,,,
,,,,,,,,,,,,,FF,,,,,,,,1.35,,,,,,,,,,,,,,,,,,,,,,60fe0d742728a7c4f364d357,610375171fa4f9a1ea28ba7f,2021-07-29_23h58.07.506,Simcolourproject_2stim_asymm_v5,2020.2.10,Win32,60,61025ae37ef11b136ea224fe,,,,,,,,,265,-78,-132,1,0,0,response5disk,,3,2,-5,1,0,0,rectangle,2,-5,1,0,0,2,-5,1,0,0,0,66,66,15,1,,,,,,,,
,,,,,,,,,,,,,FF,,,,,,,,1.134,,,,,,,,,,,,,,,,,,,,,,60fe0d742728a7c4f364d357,610375171fa4f9a1ea28ba7f,2021-07-29_23h58.07.506,Simcolourproject_2stim_asymm_v5,2020.2.10,Win32,60,61025ae37ef11b136ea224fe,,,,,,,,,2721,-63,-129,1,0,0,response5disk,,3,12,13,1,0,0,rectangle,12,13,1,0,0,12,13,1,0,0,0,67,67,110,1,,,,,,,,
,,,,,,,,,,,,,FF,,,,,,,,1.55,,,,,,,,,,,,,,,,,,,,,,60fe0d742728a7c4f364d357,610375171fa4f9a1ea28ba7f,2021-07-29_23h58.07.506,Simcolourproject_2stim_asymm_v5,2020.2.10,Win32,60,61025ae37ef11b136ea224fe,,,,,,,,,672,77,-129,1,0,0,response3disk,,4,5,-5,1,0,0,rectangle,5,-5,1,0,0,5,-5,1,0,0,0,68,68,129,1,,,,,,,,
,,,,,,,,,,,,,FF,,,,,,,,1.367,,,,,,,,,,,,,,,,,,,,,,60fe0d742728a7c4f364d357,610375171fa4f9a1ea28ba7f,2021-07-29_23h58.07.506,Simcolourproject_2stim_asymm_v5,2020.2.10,Win32,60,61025ae37ef11b136ea224fe,,,,,,,,,1095,122,-49,1,0,0,response3disk,,5,7,-7,1,0,0,rectangle,7,-7,1,0,0,7,-7,1,0,0,0,69,69,62,1,,,,,,,,
,,,,,,,,,,,,,FF,,,,,,,,1.333,,,,,,,,,,,,,,,,,,,,,,60fe0d742728a7c4f364d357,610375171fa4f9a1ea28ba7f,2021-07-29_23h58.07.506,Simcolourproject_2stim_asymm_v5,2020.2.10,Win32,60,61025ae37ef11b136ea224fe,,,,,,,,,1745,-125,-59,1,0,0,response5disk,,2,-13,-7,1,0,0,rectangle,-13,-7,1,0,0,-13,-7,1,0,0,0,70,70,65,1,,,,,,,,
,,,,,,,,,,,,,FF,,,,,,,,0.983,,,,,,,,,,,,,,,,,,,,,,60fe0d742728a7c4f364d357,610375171fa4f9a1ea28ba7f,2021-07-29_23h58.07.506,Simcolourproject_2stim_asymm_v5,2020.2.10,Win32,60,61025ae37ef11b136ea224fe,,,,,,,,,4147,-123,50,1,0,0,response7disk,,1,4,11,1,0,0,rectangle,4,11,1,0,0,4,11,1,0,0,0,71,71,101,1,,,,,,,,
,,,,,,,,,,,,,FF,,,,,,,,2.434,,,,,,,,,,,,,,,,,,,,,,60fe0d742728a7c4f364d357,610375171fa4f9a1ea28ba7f,2021-07-29_23h58.07.506,Simcolourproject_2stim_asymm_v5,2020.2.10,Win32,60,61025ae37ef11b136ea224fe,,,,,,,,,1941,59,-134,1,0,0,response3disk,,4,0,5,1,0,0,rectangle,0,5,1,0,0,0,5,1,0,0,0,72,72,125,1,,,,,,,,
,,,,,,,,,,,,,FF,,,,,,,,1.417,,,,,,,,,,,,,,,,,,,,,,60fe0d742728a7c4f364d357,610375171fa4f9a1ea28ba7f,2021-07-29_23h58.07.506,Simcolourproject_2stim_asymm_v5,2020.2.10,Win32,60,61025ae37ef11b136ea224fe,,,,,,,,,299,122,-52,1,0,0,response3disk,,5,-23,3,1,0,0,rectangle,-23,3,1,0,0,-23,3,1,0,0,0,73,73,43,1,,,,,,,,
,,,,,,,,,,,,,FF,,,,,,,,1.884,,,,,,,,,,,,,,,,,,,,,,60fe0d742728a7c4f364d357,610375171fa4f9a1ea28ba7f,2021-07-29_23h58.07.506,Simcolourproject_2stim_asymm_v5,2020.2.10,Win32,60,61025ae37ef11b136ea224fe,,,,,,,,,2413,57,-147,1,0,0,response3disk,,4,-18,5,1,0,0,rectangle,-18,5,1,0,0,-18,5,1,0,0,0,74,74,82,1,,,,,,,,
,,,,,,,,,,,,,FF,,,,,,,,1.95,,,,,,,,,,,,,,,,,,,,,,60fe0d742728a7c4f364d357,610375171fa4f9a1ea28ba7f,2021-07-29_23h58.07.506,Simcolourproject_2stim_asymm_v5,2020.2.10,Win32,60,61025ae37ef11b136ea224fe,,,,,,,,,1143,-58,-137,1,0,0,response5disk,,3,-16,8,1,0,0,rectangle,-16,8,1,0,0,-16,8,1,0,0,0,75,75,106,1,,,,,,,,
,,,,,,,,,,,,,FF,,,,,,,,4.067,,,,,,,,,,,,,,,,,,,,,,60fe0d742728a7c4f364d357,610375171fa4f9a1ea28ba7f,2021-07-29_23h58.07.506,Simcolourproject_2stim_asymm_v5,2020.2.10,Win32,60,61025ae37ef11b136ea224fe,,,,,,,,,2850,127,-39,1,0,0,response3disk,,5,-38,8,1,0,0,rectangle,-38,8,1,0,0,-38,8,1,0,0,0,76,76,102,1,,,,,,,,
,,,,,,,,,,,,,FF,,,,,,,,1.617,,,,,,,,,,,,,,,,,,,,,,60fe0d742728a7c4f364d357,610375171fa4f9a1ea28ba7f,2021-07-29_23h58.07.506,Simcolourproject_2stim_asymm_v5,2020.2.10,Win32,60,61025ae37ef11b136ea224fe,,,,,,,,,1062,122,-42,1,0,0,response3disk,,5,7,3,1,0,0,rectangle,7,3,1,0,0,7,3,1,0,0,0,77,77,67,1,,,,,,,,
,,,,,,,,,,,,,FF,,,,,,,,1.899,,,,,,,,,,,,,,,,,,,,,,60fe0d742728a7c4f364d357,610375171fa4f9a1ea28ba7f,2021-07-29_23h58.07.506,Simcolourproject_2stim_asymm_v5,2020.2.10,Win32,60,61025ae37ef11b136ea224fe,,,,,,,,,588,134,40,1,0,0,response1disk,,6,-15,-7,1,0,0,rectangle,-15,-7,1,0,0,-15,-7,1,0,0,0,78,78,143,1,,,,,,,,
,,,,,,,,,,,,,FF,,,,,,,,1.384,,,,,,,,,,,,,,,,,,,,,,60fe0d742728a7c4f364d357,610375171fa4f9a1ea28ba7f,2021-07-29_23h58.07.506,Simcolourproject_2stim_asymm_v5,2020.2.10,Win32,60,61025ae37ef11b136ea224fe,,,,,,,,,1273,119,-49,1,0,0,response3disk,,5,0,-2,1,0,0,rectangle,0,-2,1,0,0,0,-2,1,0,0,0,79,79,31,1,,,,,,,,
,,,,,,,,,,,,,FF,,,,,,,,1.001,,,,,,,,,,,,,,,,,,,,,,60fe0d742728a7c4f364d357,610375171fa4f9a1ea28ba7f,2021-07-29_23h58.07.506,Simcolourproject_2stim_asymm_v5,2020.2.10,Win32,60,61025ae37ef11b136ea224fe,,,,,,,,,3003,-60,-134,1,0,0,response5disk,,3,-1,-2,1,0,0,rectangle,-1,-2,1,0,0,-1,-2,1,0,0,0,80,80,134,1,,,,,,,,
,,,,,,,,,,,,,FF,,,,,,,,0.966,,,,,,,,,,,,,,,,,,,,,,60fe0d742728a7c4f364d357,610375171fa4f9a1ea28ba7f,2021-07-29_23h58.07.506,Simcolourproject_2stim_asymm_v5,2020.2.10,Win32,60,61025ae37ef11b136ea224fe,,,,,,,,,759,147,-54,1,0,0,response3disk,,5,12,-10,1,0,0,rectangle,12,-10,1,0,0,12,-10,1,0,0,0,81,81,51,1,,,,,,,,
,,,,,,,,,,,,,FF,,,,,,,,1.133,,,,,,,,,,,,,,,,,,,,,,60fe0d742728a7c4f364d357,610375171fa4f9a1ea28ba7f,2021-07-29_23h58.07.506,Simcolourproject_2stim_asymm_v5,2020.2.10,Win32,60,61025ae37ef11b136ea224fe,,,,,,,,,1731,59,-119,1,0,0,response3disk,,4,5,8,1,0,0,rectangle,5,8,1,0,0,5,8,1,0,0,0,82,82,128,1,,,,,,,,
,,,,,,,,,,,,,FF,,,,,,,,1.117,,,,,,,,,,,,,,,,,,,,,,60fe0d742728a7c4f364d357,610375171fa4f9a1ea28ba7f,2021-07-29_23h58.07.506,Simcolourproject_2stim_asymm_v5,2020.2.10,Win32,60,61025ae37ef11b136ea224fe,,,,,,,,,873,49,-127,1,0,0,response3disk,,4,12,-10,1,0,0,rectangle,-130,-37,1,0,0,-8,16,1,0,0,0,83,83,135,1,,response5disk_3,TRUE,2,2,"[154,210,310,59,86,172,17,120,60,172,122,180,241,303,137,218,150,84,149,126]",2.399,rectangle
,,,,,,,,,,,,,FF,,,,,,,,2.217,,,,,,,,,,,,,,,,,,,,,,60fe0d742728a7c4f364d357,610375171fa4f9a1ea28ba7f,2021-07-29_23h58.07.506,Simcolourproject_2stim_asymm_v5,2020.2.10,Win32,60,61025ae37ef11b136ea224fe,,,,,,,,,2115,124,-60,1,0,0,response3disk,,5,-5,-10,1,0,0,rectangle,-5,-10,1,0,0,-5,-10,1,0,0,0,84,84,66,1,,,,,,,,
,,,,,,,,,,,,,FF,,,,,,,,1.58,,,,,,,,,,,,,,,,,,,,,,60fe0d742728a7c4f364d357,610375171fa4f9a1ea28ba7f,2021-07-29_23h58.07.506,Simcolourproject_2stim_asymm_v5,2020.2.10,Win32,60,61025ae37ef11b136ea224fe,,,,,,,,,1690,134,-47,1,0,0,response3disk,,5,7,8,1,0,0,rectangle,49,125,1,0,0,12,-9,1,0,0,0,85,85,86,1,,response1disk_3,TRUE,7,7,"[154,210,310,59,86,172,17,120,60,172,122,180,241,303,137,218,150,84,149,126]",1.4,rectangle
,,,,,,,,,,,,,FF,,,,,,,,1.434,,,,,,,,,,,,,,,,,,,,,,60fe0d742728a7c4f364d357,610375171fa4f9a1ea28ba7f,2021-07-29_23h58.07.506,Simcolourproject_2stim_asymm_v5,2020.2.10,Win32,60,61025ae37ef11b136ea224fe,,,,,,,,,2474,109,-47,1,0,0,response3disk,,5,2,-5,1,0,0,rectangle,2,-5,1,0,0,2,-5,1,0,0,0,86,86,139,1,,,,,,,,
,,,,,,,,,,,,,FF,,,,,,,,1.016,,,,,,,,,,,,,,,,,,,,,,60fe0d742728a7c4f364d357,610375171fa4f9a1ea28ba7f,2021-07-29_23h58.07.506,Simcolourproject_2stim_asymm_v5,2020.2.10,Win32,60,61025ae37ef11b136ea224fe,,,,,,,,,173,-43,-139,1,0,0,response5disk,,3,4,0,1,0,0,rectangle,4,0,1,0,0,4,0,1,0,0,0,87,87,93,1,,,,,,,,
,,,,,,,,,,,,,FF,,,,,,,,0.967,,,,,,,,,,,,,,,,,,,,,,60fe0d742728a7c4f364d357,610375171fa4f9a1ea28ba7f,2021-07-29_23h58.07.506,Simcolourproject_2stim_asymm_v5,2020.2.10,Win32,60,61025ae37ef11b136ea224fe,,,,,,,,,2484,59,-127,1,0,0,response3disk,,4,-3,0,1,0,0,rectangle,-3,0,1,0,0,-3,0,1,0,0,0,88,88,154,1,,,,,,,,
,,,,,,,,,,,,,FF,,,,,,,,1.517,,,,,,,,,,,,,,,,,,,,,,60fe0d742728a7c4f364d357,610375171fa4f9a1ea28ba7f,2021-07-29_23h58.07.506,Simcolourproject_2stim_asymm_v5,2020.2.10,Win32,60,61025ae37ef11b136ea224fe,,,,,,,,,2030,-70,-159,1,0,0,response5disk,,3,-11,-2,1,0,0,rectangle,-11,-2,1,0,0,-11,-2,1,0,0,0,89,89,131,1,,,,,,,,
,,,,,,,,,,,,,FF,,,,,,,,1.55,,,,,,,,,,,,,,,,,,,,,,60fe0d742728a7c4f364d357,610375171fa4f9a1ea28ba7f,2021-07-29_23h58.07.506,Simcolourproject_2stim_asymm_v5,2020.2.10,Win32,60,61025ae37ef11b136ea224fe,,,,,,,,,305,70,-119,1,0,0,response3disk,,4,17,-10,1,0,0,rectangle,17,-10,1,0,0,17,-10,1,0,0,0,90,90,137,1,,,,,,,,
,,,,,,,,,,,,,FF,,,,,,,,1.101,,,,,,,,,,,,,,,,,,,,,,60fe0d742728a7c4f364d357,610375171fa4f9a1ea28ba7f,2021-07-29_23h58.07.506,Simcolourproject_2stim_asymm_v5,2020.2.10,Win32,60,61025ae37ef11b136ea224fe,,,,,,,,,2021,129,73,1,0,0,response1disk,,6,22,1,1,0,0,rectangle,22,1,1,0,0,22,1,1,0,0,0,91,91,71,1,,,,,,,,
,,,,,,,,,,,,,FF,,,,,,,,1.816,,,,,,,,,,,,,,,,,,,,,,60fe0d742728a7c4f364d357,610375171fa4f9a1ea28ba7f,2021-07-29_23h58.07.506,Simcolourproject_2stim_asymm_v5,2020.2.10,Win32,60,61025ae37ef11b136ea224fe,,,,,,,,,1034,57,-134,1,0,0,response3disk,,4,-3,8,1,0,0,rectangle,-3,8,1,0,0,-3,8,1,0,0,0,92,92,84,1,,,,,,,,
,,,,,,,,,,,,,FF,,,,,,,,0.817,,,,,,,,,,,,,,,,,,,,,,60fe0d742728a7c4f364d357,610375171fa4f9a1ea28ba7f,2021-07-29_23h58.07.506,Simcolourproject_2stim_asymm_v5,2020.2.10,Win32,60,61025ae37ef11b136ea224fe,,,,,,,,,4076,-58,-129,1,0,0,response5disk,,3,7,-7,1,0,0,rectangle,7,-7,1,0,0,7,-7,1,0,0,0,93,93,13,1,,,,,,,,
,,,,,,,,,,,,,FF,,,,,,,,0.917,,,,,,,,,,,,,,,,,,,,,,60fe0d742728a7c4f364d357,610375171fa4f9a1ea28ba7f,2021-07-29_23h58.07.506,Simcolourproject_2stim_asymm_v5,2020.2.10,Win32,60,61025ae37ef11b136ea224fe,,,,,,,,,44,59,-132,1,0,0,response3disk,,4,2,20,1,0,0,rectangle,2,20,1,0,0,2,20,1,0,0,0,94,94,72,1,,,,,,,,
,,,,,,,,,,,,,FF,,,,,,,,0.833,,,,,,,,,,,,,,,,,,,,,,60fe0d742728a7c4f364d357,610375171fa4f9a1ea28ba7f,2021-07-29_23h58.07.506,Simcolourproject_2stim_asymm_v5,2020.2.10,Win32,60,61025ae37ef11b136ea224fe,,,,,,,,,1645,104,-54,1,0,0,response3disk,,5,17,0,1,0,0,rectangle,17,0,1,0,0,17,0,1,0,0,0,95,95,77,1,,,,,,,,
,,,,,,,,,,,,,FF,,,,,,,,2.533,,,,,,,,,,,,,,,,,,,,,,60fe0d742728a7c4f364d357,610375171fa4f9a1ea28ba7f,2021-07-29_23h58.07.506,Simcolourproject_2stim_asymm_v5,2020.2.10,Win32,60,61025ae37ef11b136ea224fe,,,,,,,,,1556,135,43,1,0,0,response1disk,,6,-3,-19,1,0,0,rectangle,-3,-19,1,0,0,-3,-19,1,0,0,0,96,96,25,1,,,,,,,,
,,,,,,,,,,,,,FF,,,,,,,,1.717,,,,,,,,,,,,,,,,,,,,,,60fe0d742728a7c4f364d357,610375171fa4f9a1ea28ba7f,2021-07-29_23h58.07.506,Simcolourproject_2stim_asymm_v5,2020.2.10,Win32,60,61025ae37ef11b136ea224fe,,,,,,,,,4320,114,-42,1,0,0,response3disk,,5,15,8,1,0,0,rectangle,15,8,1,0,0,15,8,1,0,0,0,97,97,0,1,,,,,,,,
,,,,,,,,,,,,,FF,,,,,,,,1.183,,,,,,,,,,,,,,,,,,,,,,60fe0d742728a7c4f364d357,610375171fa4f9a1ea28ba7f,2021-07-29_23h58.07.506,Simcolourproject_2stim_asymm_v5,2020.2.10,Win32,60,61025ae37ef11b136ea224fe,,,,,,,,,3532,107,-52,1,0,0,response3disk,,5,-33,10,1,0,0,rectangle,-33,10,1,0,0,-33,10,1,0,0,0,98,98,97,1,,,,,,,,
,,,,,,,,,,,,,FF,,,,,,,,2.233,,,,,,,,,,,,,,,,,,,,,,60fe0d742728a7c4f364d357,610375171fa4f9a1ea28ba7f,2021-07-29_23h58.07.506,Simcolourproject_2stim_asymm_v5,2020.2.10,Win32,60,61025ae37ef11b136ea224fe,,,,,,,,,2171,-35,-122,1,0,0,response5disk,,3,-1,0,1,0,0,rectangle,-1,0,1,0,0,-1,0,1,0,0,0,99,99,22,1,,,,,,,,
,,,,,,,,,,,,,FF,,,,,,,,3.966,,,,,,,,,,,,,,,,,,,,,,60fe0d742728a7c4f364d357,610375171fa4f9a1ea28ba7f,2021-07-29_23h58.07.506,Simcolourproject_2stim_asymm_v5,2020.2.10,Win32,60,61025ae37ef11b136ea224fe,,,,,,,,,2514,129,55,1,0,0,response1disk,,6,5,-9,1,0,0,rectangle,5,-9,1,0,0,5,-9,1,0,0,0,100,100,136,1,,,,,,,,
,,,,,,,,,,,,,FF,,,,,,,,3.033,,,,,,,,,,,,,,,,,,,,,,60fe0d742728a7c4f364d357,610375171fa4f9a1ea28ba7f,2021-07-29_23h58.07.506,Simcolourproject_2stim_asymm_v5,2020.2.10,Win32,60,61025ae37ef11b136ea224fe,,,,,,,,,496,112,-45,1,0,0,response3disk,,5,5,10,1,0,0,rectangle,5,10,1,0,0,5,10,1,0,0,0,101,101,114,1,,,,,,,,
,,,,,,,,,,,,,FF,,,,,,,,1.349,,,,,,,,,,,,,,,,,,,,,,60fe0d742728a7c4f364d357,610375171fa4f9a1ea28ba7f,2021-07-29_23h58.07.506,Simcolourproject_2stim_asymm_v5,2020.2.10,Win32,60,61025ae37ef11b136ea224fe,,,,,,,,,4212,112,-55,1,0,0,response3disk,,5,-5,-5,1,0,0,rectangle,-5,-5,1,0,0,-5,-5,1,0,0,0,102,102,59,1,,,,,,,,
,,,,,,,,,,,,,FF,,,,,,,,1.15,,,,,,,,,,,,,,,,,,,,,,60fe0d742728a7c4f364d357,610375171fa4f9a1ea28ba7f,2021-07-29_23h58.07.506,Simcolourproject_2stim_asymm_v5,2020.2.10,Win32,60,61025ae37ef11b136ea224fe,,,,,,,,,1763,52,-119,1,0,0,response3disk,,4,-3,5,1,0,0,rectangle,-3,5,1,0,0,-3,5,1,0,0,0,103,103,5,1,,,,,,,,
,,,,,,,,,,,,,FF,,,,,,,,1.217,,,,,,,,,,,,,,,,,,,,,,60fe0d742728a7c4f364d357,610375171fa4f9a1ea28ba7f,2021-07-29_23h58.07.506,Simcolourproject_2stim_asymm_v5,2020.2.10,Win32,60,61025ae37ef11b136ea224fe,,,,,,,,,2828,134,53,1,0,0,response1disk,,6,20,-4,1,0,0,rectangle,20,-4,1,0,0,20,-4,1,0,0,0,104,104,79,1,,,,,,,,
,,,,,,,,,,,,,FF,,,,,,,,2.567,,,,,,,,,,,,,,,,,,,,,,60fe0d742728a7c4f364d357,610375171fa4f9a1ea28ba7f,2021-07-29_23h58.07.506,Simcolourproject_2stim_asymm_v5,2020.2.10,Win32,60,61025ae37ef11b136ea224fe,,,,,,,,,2973,109,45,1,0,0,response1disk,,6,-15,-4,1,0,0,rectangle,-15,-4,1,0,0,-15,-4,1,0,0,0,105,105,11,1,,,,,,,,
,,,,,,,,,,,,,FF,,,,,,,,1.033,,,,,,,,,,,,,,,,,,,,,,60fe0d742728a7c4f364d357,610375171fa4f9a1ea28ba7f,2021-07-29_23h58.07.506,Simcolourproject_2stim_asymm_v5,2020.2.10,Win32,60,61025ae37ef11b136ea224fe,,,,,,,,,783,134,-49,1,0,0,response3disk,,5,-8,-2,1,0,0,rectangle,-8,-2,1,0,0,-8,-2,1,0,0,0,106,106,73,1,,,,,,,,
,,,,,,,,,,,,,FF,,,,,,,,1.066,,,,,,,,,,,,,,,,,,,,,,60fe0d742728a7c4f364d357,610375171fa4f9a1ea28ba7f,2021-07-29_23h58.07.506,Simcolourproject_2stim_asymm_v5,2020.2.10,Win32,60,61025ae37ef11b136ea224fe,,,,,,,,,40,102,-49,1,0,0,response3disk,,5,-5,-7,1,0,0,rectangle,-5,-7,1,0,0,-5,-7,1,0,0,0,107,107,121,1,,,,,,,,
,,,,,,,,,,,,,FF,,,,,,,,1.133,,,,,,,,,,,,,,,,,,,,,,60fe0d742728a7c4f364d357,610375171fa4f9a1ea28ba7f,2021-07-29_23h58.07.506,Simcolourproject_2stim_asymm_v5,2020.2.10,Win32,60,61025ae37ef11b136ea224fe,,,,,,,,,2621,64,-137,1,0,0,response3disk,,4,-23,5,1,0,0,rectangle,-23,5,1,0,0,-23,5,1,0,0,0,108,108,64,1,,,,,,,,
,,,,,,,,,,,,,FF,,,,,,,,0.983,,,,,,,,,,,,,,,,,,,,,,60fe0d742728a7c4f364d357,610375171fa4f9a1ea28ba7f,2021-07-29_23h58.07.506,Simcolourproject_2stim_asymm_v5,2020.2.10,Win32,60,61025ae37ef11b136ea224fe,,,,,,,,,2143,112,-57,1,0,0,response3disk,,5,15,-5,1,0,0,rectangle,15,-5,1,0,0,15,-5,1,0,0,0,109,109,94,1,,,,,,,,
,,,,,,,,,,,,,FF,,,,,,,,3.566,,,,,,,,,,,,,,,,,,,,,,60fe0d742728a7c4f364d357,610375171fa4f9a1ea28ba7f,2021-07-29_23h58.07.506,Simcolourproject_2stim_asymm_v5,2020.2.10,Win32,60,61025ae37ef11b136ea224fe,,,,,,,,,2098,-123,-52,1,0,0,response5disk,,2,-13,6,1,0,0,rectangle,-13,6,1,0,0,-13,6,1,0,0,0,110,110,127,1,,,,,,,,
,,,,,,,,,,,,,FF,,,,,,,,0.934,,,,,,,,,,,,,,,,,,,,,,60fe0d742728a7c4f364d357,610375171fa4f9a1ea28ba7f,2021-07-29_23h58.07.506,Simcolourproject_2stim_asymm_v5,2020.2.10,Win32,60,61025ae37ef11b136ea224fe,,,,,,,,,1806,67,158,1,0,0,response1disk,,7,-3,3,1,0,0,rectangle,-3,3,1,0,0,-3,3,1,0,0,0,111,111,78,1,,,,,,,,
,,,,,,,,,,,,,FF,,,,,,,,4.651,,,,,,,,,,,,,,,,,,,,,,60fe0d742728a7c4f364d357,610375171fa4f9a1ea28ba7f,2021-07-29_23h58.07.506,Simcolourproject_2stim_asymm_v5,2020.2.10,Win32,60,61025ae37ef11b136ea224fe,,,,,,,,,4088,65,-137,1,0,0,response3disk,,4,2,-2,1,0,0,rectangle,2,-2,1,0,0,2,-2,1,0,0,0,112,112,119,1,,,,,,,,
,,,,,,,,,,,,,FF,,,,,,,,1.867,,,,,,,,,,,,,,,,,,,,,,60fe0d742728a7c4f364d357,610375171fa4f9a1ea28ba7f,2021-07-29_23h58.07.506,Simcolourproject_2stim_asymm_v5,2020.2.10,Win32,60,61025ae37ef11b136ea224fe,,,,,,,,,131,119,-49,1,0,0,response3disk,,5,-20,0,1,0,0,rectangle,-20,0,1,0,0,-20,0,1,0,0,0,113,113,48,1,,,,,,,,
,,,,,,,,,,,,,FF,,,,,,,,1.533,,,,,,,,,,,,,,,,,,,,,,60fe0d742728a7c4f364d357,610375171fa4f9a1ea28ba7f,2021-07-29_23h58.07.506,Simcolourproject_2stim_asymm_v5,2020.2.10,Win32,60,61025ae37ef11b136ea224fe,,,,,,,,,3637,-145,-77,1,0,0,response5disk,,2,-16,3,1,0,0,rectangle,-16,3,1,0,0,-16,3,1,0,0,0,114,114,104,1,,,,,,,,
,,,,,,,,,,,,,FF,,,,,,,,2.4,,,,,,,,,,,,,,,,,,,,,,60fe0d742728a7c4f364d357,610375171fa4f9a1ea28ba7f,2021-07-29_23h58.07.506,Simcolourproject_2stim_asymm_v5,2020.2.10,Win32,60,61025ae37ef11b136ea224fe,,,,,,,,,2452,97,-42,1,0,0,response3disk,,5,7,-2,1,0,0,rectangle,7,-2,1,0,0,7,-2,1,0,0,0,115,115,68,1,,,,,,,,
,,,,,,,,,,,,,FF,,,,,,,,1.534,,,,,,,,,,,,,,,,,,,,,,60fe0d742728a7c4f364d357,610375171fa4f9a1ea28ba7f,2021-07-29_23h58.07.506,Simcolourproject_2stim_asymm_v5,2020.2.10,Win32,60,61025ae37ef11b136ea224fe,,,,,,,,,1217,-115,-57,1,0,0,response5disk,,2,-23,5,1,0,0,rectangle,-23,5,1,0,0,-23,5,1,0,0,0,116,116,85,1,,,,,,,,
,,,,,,,,,,,,,FF,,,,,,,,1.25,,,,,,,,,,,,,,,,,,,,,,60fe0d742728a7c4f364d357,610375171fa4f9a1ea28ba7f,2021-07-29_23h58.07.506,Simcolourproject_2stim_asymm_v5,2020.2.10,Win32,60,61025ae37ef11b136ea224fe,,,,,,,,,2023,137,63,1,0,0,response1disk,,6,-3,-4,1,0,0,rectangle,-3,-4,1,0,0,-3,-4,1,0,0,0,117,117,18,1,,,,,,,,
,,,,,,,,,,,,,FF,,,,,,,,2.133,,,,,,,,,,,,,,,,,,,,,,60fe0d742728a7c4f364d357,610375171fa4f9a1ea28ba7f,2021-07-29_23h58.07.506,Simcolourproject_2stim_asymm_v5,2020.2.10,Win32,60,61025ae37ef11b136ea224fe,,,,,,,,,1408,99,-64,1,0,0,response3disk,,5,-23,8,1,0,0,rectangle,-23,8,1,0,0,-23,8,1,0,0,0,118,118,28,1,,,,,,,,
,,,,,,,,,,,,,FF,,,,,,,,1.134,,,,,,,,,,,,,,,,,,,,,,60fe0d742728a7c4f364d357,610375171fa4f9a1ea28ba7f,2021-07-29_23h58.07.506,Simcolourproject_2stim_asymm_v5,2020.2.10,Win32,60,61025ae37ef11b136ea224fe,,,,,,,,,2361,-125,-57,1,0,0,response5disk,,2,22,-5,1,0,0,rectangle,127,63,1,0,0,0,-9,1,0,0,0,119,119,159,1,,response1disk_3,TRUE,6,6,"[154,210,310,59,86,172,17,120,60,172,122,180,241,303,137,218,150,84,149,126]",1.551,rectangle
,,,,,,,,,,,,,FF,,,,,,,,3.117,,,,,,,,,,,,,,,,,,,,,,60fe0d742728a7c4f364d357,610375171fa4f9a1ea28ba7f,2021-07-29_23h58.07.506,Simcolourproject_2stim_asymm_v5,2020.2.10,Win32,60,61025ae37ef11b136ea224fe,,,,,,,,,1938,119,-49,1,0,0,response3disk,,5,15,-7,1,0,0,rectangle,15,-7,1,0,0,15,-7,1,0,0,0,120,120,108,1,,,,,,,,
,,,,,,,,,,,,,FF,,,,,,,,1.867,,,,,,,,,,,,,,,,,,,,,,60fe0d742728a7c4f364d357,610375171fa4f9a1ea28ba7f,2021-07-29_23h58.07.506,Simcolourproject_2stim_asymm_v5,2020.2.10,Win32,60,61025ae37ef11b136ea224fe,,,,,,,,,1807,39,-127,1,0,0,response3disk,,4,-8,-5,1,0,0,rectangle,-130,-60,1,0,0,7,-12,1,0,0,0,121,121,54,1,,response5disk_3,TRUE,2,2,"[154,210,310,59,86,172,17,120,60,172,122,180,241,303,137,218,150,84,149,126]",2.634,rectangle
,,,,,,,,,,,,,FF,,,,,,,,1.884,,,,,,,,,,,,,,,,,,,,,,60fe0d742728a7c4f364d357,610375171fa4f9a1ea28ba7f,2021-07-29_23h58.07.506,Simcolourproject_2stim_asymm_v5,2020.2.10,Win32,60,61025ae37ef11b136ea224fe,,,,,,,,,268,124,-54,1,0,0,response3disk,,5,-13,-5,1,0,0,rectangle,-13,-5,1,0,0,-13,-5,1,0,0,0,122,122,144,1,,,,,,,,
,,,,,,,,,,,,,FF,,,,,,,,1.216,,,,,,,,,,,,,,,,,,,,,,60fe0d742728a7c4f364d357,610375171fa4f9a1ea28ba7f,2021-07-29_23h58.07.506,Simcolourproject_2stim_asymm_v5,2020.2.10,Win32,60,61025ae37ef11b136ea224fe,,,,,,,,,327,127,-42,1,0,0,response3disk,,5,0,-12,1,0,0,rectangle,0,-12,1,0,0,0,-12,1,0,0,0,123,123,12,1,,,,,,,,
,,,,,,,,,,,,,FF,,,,,,,,3,,,,,,,,,,,,,,,,,,,,,,60fe0d742728a7c4f364d357,610375171fa4f9a1ea28ba7f,2021-07-29_23h58.07.506,Simcolourproject_2stim_asymm_v5,2020.2.10,Win32,60,61025ae37ef11b136ea224fe,,,,,,,,,554,62,-129,1,0,0,response3disk,,4,20,-15,1,0,0,rectangle,20,-15,1,0,0,20,-15,1,0,0,0,124,124,142,1,,,,,,,,
,,,,,,,,,,,,,FF,,,,,,,,1.55,,,,,,,,,,,,,,,,,,,,,,60fe0d742728a7c4f364d357,610375171fa4f9a1ea28ba7f,2021-07-29_23h58.07.506,Simcolourproject_2stim_asymm_v5,2020.2.10,Win32,60,61025ae37ef11b136ea224fe,,,,,,,,,3086,122,48,1,0,0,response1disk,,6,-23,6,1,0,0,rectangle,54,125,1,0,0,17,-5,1,0,0,0,125,125,75,1,,response1disk_3,TRUE,7,7,"[154,210,310,59,86,172,17,120,60,172,122,180,241,303,137,218,150,84,149,126]",1.334,rectangle
,,,,,,,,,,,,,FF,,,,,,,,1.6,,,,,,,,,,,,,,,,,,,,,,60fe0d742728a7c4f364d357,610375171fa4f9a1ea28ba7f,2021-07-29_23h58.07.506,Simcolourproject_2stim_asymm_v5,2020.2.10,Win32,60,61025ae37ef11b136ea224fe,,,,,,,,,108,69,-157,1,0,0,response3disk,,4,22,-7,1,0,0,rectangle,22,-7,1,0,0,22,-7,1,0,0,0,126,126,150,1,,,,,,,,
,,,,,,,,,,,,,FF,,,,,,,,0.766,,,,,,,,,,,,,,,,,,,,,,60fe0d742728a7c4f364d357,610375171fa4f9a1ea28ba7f,2021-07-29_23h58.07.506,Simcolourproject_2stim_asymm_v5,2020.2.10,Win32,60,61025ae37ef11b136ea224fe,,,,,,,,,3501,77,150,1,0,0,response1disk,,7,0,1,1,0,0,rectangle,0,1,1,0,0,0,1,1,0,0,0,127,127,27,1,,,,,,,,
,,,,,,,,,,,,,FF,,,,,,,,1.184,,,,,,,,,,,,,,,,,,,,,,60fe0d742728a7c4f364d357,610375171fa4f9a1ea28ba7f,2021-07-29_23h58.07.506,Simcolourproject_2stim_asymm_v5,2020.2.10,Win32,60,61025ae37ef11b136ea224fe,,,,,,,,,2472,99,55,1,0,0,response1disk,,6,-3,-7,1,0,0,rectangle,-3,-7,1,0,0,-3,-7,1,0,0,0,128,128,3,1,,,,,,,,
,,,,,,,,,,,,,FF,,,,,,,,1.034,,,,,,,,,,,,,,,,,,,,,,60fe0d742728a7c4f364d357,610375171fa4f9a1ea28ba7f,2021-07-29_23h58.07.506,Simcolourproject_2stim_asymm_v5,2020.2.10,Win32,60,61025ae37ef11b136ea224fe,,,,,,,,,1598,119,-59,1,0,0,response3disk,,5,2,5,1,0,0,rectangle,2,5,1,0,0,2,5,1,0,0,0,129,129,149,1,,,,,,,,
,,,,,,,,,,,,,FF,,,,,,,,1.799,,,,,,,,,,,,,,,,,,,,,,60fe0d742728a7c4f364d357,610375171fa4f9a1ea28ba7f,2021-07-29_23h58.07.506,Simcolourproject_2stim_asymm_v5,2020.2.10,Win32,60,61025ae37ef11b136ea224fe,,,,,,,,,4102,-128,-45,1,0,0,response5disk,,2,-3,18,1,0,0,rectangle,-3,18,1,0,0,-3,18,1,0,0,0,130,130,146,1,,,,,,,,
,,,,,,,,,,,,,FF,,,,,,,,2.183,,,,,,,,,,,,,,,,,,,,,,60fe0d742728a7c4f364d357,610375171fa4f9a1ea28ba7f,2021-07-29_23h58.07.506,Simcolourproject_2stim_asymm_v5,2020.2.10,Win32,60,61025ae37ef11b136ea224fe,,,,,,,,,3568,122,-57,1,0,0,response3disk,,5,27,-7,1,0,0,rectangle,27,-7,1,0,0,27,-7,1,0,0,0,131,131,91,1,,,,,,,,
,,,,,,,,,,,,,FF,,,,,,,,2,,,,,,,,,,,,,,,,,,,,,,60fe0d742728a7c4f364d357,610375171fa4f9a1ea28ba7f,2021-07-29_23h58.07.506,Simcolourproject_2stim_asymm_v5,2020.2.10,Win32,60,61025ae37ef11b136ea224fe,,,,,,,,,271,47,-134,1,0,0,response3disk,,4,2,-15,1,0,0,rectangle,2,-15,1,0,0,2,-15,1,0,0,0,132,132,57,1,,,,,,,,
,,,,,,,,,,,,,FF,,,,,,,,1.034,,,,,,,,,,,,,,,,,,,,,,60fe0d742728a7c4f364d357,610375171fa4f9a1ea28ba7f,2021-07-29_23h58.07.506,Simcolourproject_2stim_asymm_v5,2020.2.10,Win32,60,61025ae37ef11b136ea224fe,,,,,,,,,3190,-65,-122,1,0,0,response5disk,,3,-18,-7,1,0,0,rectangle,-18,-7,1,0,0,-18,-7,1,0,0,0,133,133,24,1,,,,,,,,
,,,,,,,,,,,,,FF,,,,,,,,1.317,,,,,,,,,,,,,,,,,,,,,,60fe0d742728a7c4f364d357,610375171fa4f9a1ea28ba7f,2021-07-29_23h58.07.506,Simcolourproject_2stim_asymm_v5,2020.2.10,Win32,60,61025ae37ef11b136ea224fe,,,,,,,,,3982,137,-57,1,0,0,response3disk,,5,-15,3,1,0,0,rectangle,-15,3,1,0,0,-15,3,1,0,0,0,134,134,88,1,,,,,,,,
,,,,,,,,,,,,,FF,,,,,,,,1.366,,,,,,,,,,,,,,,,,,,,,,60fe0d742728a7c4f364d357,610375171fa4f9a1ea28ba7f,2021-07-29_23h58.07.506,Simcolourproject_2stim_asymm_v5,2020.2.10,Win32,60,61025ae37ef11b136ea224fe,,,,,,,,,3705,-55,133,1,0,0,response7disk,,0,-13,-4,1,0,0,rectangle,-13,-4,1,0,0,-13,-4,1,0,0,0,135,135,47,1,,,,,,,,
,,,,,,,,,,,,,FF,,,,,,,,3.833,,,,,,,,,,,,,,,,,,,,,,60fe0d742728a7c4f364d357,610375171fa4f9a1ea28ba7f,2021-07-29_23h58.07.506,Simcolourproject_2stim_asymm_v5,2020.2.10,Win32,60,61025ae37ef11b136ea224fe,,,,,,,,,3958,145,50,1,0,0,response1disk,,6,7,3,1,0,0,rectangle,-108,-47,1,0,0,9,-5,1,0,0,0,136,136,92,1,,response5disk_3,TRUE,2,2,"[154,210,310,59,86,172,17,120,60,172,122,180,241,303,137,218,150,84,149,126]",1.966,rectangle
,,,,,,,,,,,,,FF,,,,,,,,3.951,,,,,,,,,,,,,,,,,,,,,,60fe0d742728a7c4f364d357,610375171fa4f9a1ea28ba7f,2021-07-29_23h58.07.506,Simcolourproject_2stim_asymm_v5,2020.2.10,Win32,60,61025ae37ef11b136ea224fe,,,,,,,,,2323,102,-42,1,0,0,response3disk,,5,35,-12,1,0,0,rectangle,35,-12,1,0,0,35,-12,1,0,0,0,137,137,76,1,,,,,,,,
,,,,,,,,,,,,,FF,,,,,,,,1.883,,,,,,,,,,,,,,,,,,,,,,60fe0d742728a7c4f364d357,610375171fa4f9a1ea28ba7f,2021-07-29_23h58.07.506,Simcolourproject_2stim_asymm_v5,2020.2.10,Win32,60,61025ae37ef11b136ea224fe,,,,,,,,,1972,62,-142,1,0,0,response3disk,,4,2,-10,1,0,0,rectangle,2,-10,1,0,0,2,-10,1,0,0,0,138,138,70,1,,,,,,,,
,,,,,,,,,,,,,FF,,,,,,,,1.367,,,,,,,,,,,,,,,,,,,,,,60fe0d742728a7c4f364d357,610375171fa4f9a1ea28ba7f,2021-07-29_23h58.07.506,Simcolourproject_2stim_asymm_v5,2020.2.10,Win32,60,61025ae37ef11b136ea224fe,,,,,,,,,2453,132,-52,1,0,0,response3disk,,5,12,10,1,0,0,rectangle,12,10,1,0,0,12,10,1,0,0,0,139,139,50,1,,,,,,,,
,,,,,,,,,,,,,FF,,,,,,,,1.284,,,,,,,,,,,,,,,,,,,,,,60fe0d742728a7c4f364d357,610375171fa4f9a1ea28ba7f,2021-07-29_23h58.07.506,Simcolourproject_2stim_asymm_v5,2020.2.10,Win32,60,61025ae37ef11b136ea224fe,,,,,,,,,3680,-73,-134,1,0,0,response5disk,,3,12,15,1,0,0,rectangle,12,15,1,0,0,12,15,1,0,0,0,140,140,49,1,,,,,,,,
,,,,,,,,,,,,,FF,,,,,,,,1.499,,,,,,,,,,,,,,,,,,,,,,60fe0d742728a7c4f364d357,610375171fa4f9a1ea28ba7f,2021-07-29_23h58.07.506,Simcolourproject_2stim_asymm_v5,2020.2.10,Win32,60,61025ae37ef11b136ea224fe,,,,,,,,,1922,70,-129,1,0,0,response3disk,,4,25,-12,1,0,0,rectangle,25,-12,1,0,0,25,-12,1,0,0,0,141,141,109,1,,,,,,,,
,,,,,,,,,,,,,FF,,,,,,,,1.15,,,,,,,,,,,,,,,,,,,,,,60fe0d742728a7c4f364d357,610375171fa4f9a1ea28ba7f,2021-07-29_23h58.07.506,Simcolourproject_2stim_asymm_v5,2020.2.10,Win32,60,61025ae37ef11b136ea224fe,,,,,,,,,3633,57,-109,1,0,0,response3disk,,4,10,-7,1,0,0,rectangle,10,-7,1,0,0,10,-7,1,0,0,0,142,142,90,1,,,,,,,,
,,,,,,,,,,,,,FF,,,,,,,,1.118,,,,,,,,,,,,,,,,,,,,,,60fe0d742728a7c4f364d357,610375171fa4f9a1ea28ba7f,2021-07-29_23h58.07.506,Simcolourproject_2stim_asymm_v5,2020.2.10,Win32,60,61025ae37ef11b136ea224fe,,,,,,,,,2376,132,-64,1,0,0,response3disk,,5,-3,-10,1,0,0,rectangle,-3,-10,1,0,0,-3,-10,1,0,0,0,143,143,157,1,,,,,,,,
,,,,,,,,,,,,,FF,,,,,,,,1.833,,,,,,,,,,,,,,,,,,,,,,60fe0d742728a7c4f364d357,610375171fa4f9a1ea28ba7f,2021-07-29_23h58.07.506,Simcolourproject_2stim_asymm_v5,2020.2.10,Win32,60,61025ae37ef11b136ea224fe,,,,,,,,,4368,-113,58,1,0,0,response7disk,,1,9,-17,1,0,0,rectangle,9,-17,1,0,0,9,-17,1,0,0,0,144,144,117,1,,,,,,,,
,,,,,,,,,,,,,FF,,,,,,,,1.851,,,,,,,,,,,,,,,,,,,,,,60fe0d742728a7c4f364d357,610375171fa4f9a1ea28ba7f,2021-07-29_23h58.07.506,Simcolourproject_2stim_asymm_v5,2020.2.10,Win32,60,61025ae37ef11b136ea224fe,,,,,,,,,664,72,-114,1,0,0,response3disk,,4,-20,-2,1,0,0,rectangle,-20,-2,1,0,0,-20,-2,1,0,0,0,145,145,103,1,,,,,,,,
,,,,,,,,,,,,,FF,,,,,,,,1.316,,,,,,,,,,,,,,,,,,,,,,60fe0d742728a7c4f364d357,610375171fa4f9a1ea28ba7f,2021-07-29_23h58.07.506,Simcolourproject_2stim_asymm_v5,2020.2.10,Win32,60,61025ae37ef11b136ea224fe,,,,,,,,,511,67,-119,1,0,0,response3disk,,4,-15,-2,1,0,0,rectangle,-15,-2,1,0,0,-15,-2,1,0,0,0,146,146,53,1,,,,,,,,
,,,,,,,,,,,,,FF,,,,,,,,1.266,,,,,,,,,,,,,,,,,,,,,,60fe0d742728a7c4f364d357,610375171fa4f9a1ea28ba7f,2021-07-29_23h58.07.506,Simcolourproject_2stim_asymm_v5,2020.2.10,Win32,60,61025ae37ef11b136ea224fe,,,,,,,,,619,-60,-114,1,0,0,response5disk,,3,-11,0,1,0,0,rectangle,-11,0,1,0,0,-11,0,1,0,0,0,147,147,16,1,,,,,,,,
,,,,,,,,,,,,,FF,,,,,,,,1.2,,,,,,,,,,,,,,,,,,,,,,60fe0d742728a7c4f364d357,610375171fa4f9a1ea28ba7f,2021-07-29_23h58.07.506,Simcolourproject_2stim_asymm_v5,2020.2.10,Win32,60,61025ae37ef11b136ea224fe,,,,,,,,,642,-58,-112,1,0,0,response5disk,,3,-16,-5,1,0,0,rectangle,-40,-132,1,0,0,17,-5,1,0,0,0,148,148,89,1,,response5disk_3,TRUE,3,3,"[154,210,310,59,86,172,17,120,60,172,122,180,241,303,137,218,150,84,149,126]",1.8,rectangle
,,,,,,,,,,,,,FF,,,,,,,,1.384,,,,,,,,,,,,,,,,,,,,,,60fe0d742728a7c4f364d357,610375171fa4f9a1ea28ba7f,2021-07-29_23h58.07.506,Simcolourproject_2stim_asymm_v5,2020.2.10,Win32,60,61025ae37ef11b136ea224fe,,,,,,,,,2906,112,-52,1,0,0,response3disk,,5,20,-5,1,0,0,rectangle,-118,-40,1,0,0,-3,10,1,0,0,0,149,149,14,1,,response5disk_3,TRUE,2,2,"[154,210,310,59,86,172,17,120,60,172,122,180,241,303,137,218,150,84,149,126]",2.285,rectangle
,,,,,,,,,,,,,FF,,,,,,,,4.301,,,,,,,,,,,,,,,,,,,,,,60fe0d742728a7c4f364d357,610375171fa4f9a1ea28ba7f,2021-07-29_23h58.07.506,Simcolourproject_2stim_asymm_v5,2020.2.10,Win32,60,61025ae37ef11b136ea224fe,,,,,,,,,1462,85,-124,1,0,0,response3disk,,4,7,-2,1,0,0,rectangle,7,-2,1,0,0,7,-2,1,0,0,0,150,150,20,1,,,,,,,,
,,,,,,,,,,,,,FF,,,,,,,,0.933,,,,,,,,,,,,,,,,,,,,,,60fe0d742728a7c4f364d357,610375171fa4f9a1ea28ba7f,2021-07-29_23h58.07.506,Simcolourproject_2stim_asymm_v5,2020.2.10,Win32,60,61025ae37ef11b136ea224fe,,,,,,,,,2537,104,60,1,0,0,response1disk,,6,-16,-2,1,0,0,rectangle,-16,-2,1,0,0,-16,-2,1,0,0,0,151,151,56,1,,,,,,,,
,,,,,,,,,,,,,FF,,,,,,,,1.751,,,,,,,,,,,,,,,,,,,,,,60fe0d742728a7c4f364d357,610375171fa4f9a1ea28ba7f,2021-07-29_23h58.07.506,Simcolourproject_2stim_asymm_v5,2020.2.10,Win32,60,61025ae37ef11b136ea224fe,,,,,,,,,1781,114,-57,1,0,0,response3disk,,5,10,8,1,0,0,rectangle,10,8,1,0,0,10,8,1,0,0,0,152,152,105,1,,,,,,,,
,,,,,,,,,,,,,FF,,,,,,,,0.967,,,,,,,,,,,,,,,,,,,,,,60fe0d742728a7c4f364d357,610375171fa4f9a1ea28ba7f,2021-07-29_23h58.07.506,Simcolourproject_2stim_asymm_v5,2020.2.10,Win32,60,61025ae37ef11b136ea224fe,,,,,,,,,617,72,-137,1,0,0,response3disk,,4,-8,13,1,0,0,rectangle,34,113,1,0,0,12,1,1,0,0,0,153,153,151,1,,response1disk_3,TRUE,7,7,"[154,210,310,59,86,172,17,120,60,172,122,180,241,303,137,218,150,84,149,126]",1.634,rectangle
,,,,,,,,,,,,,FF,,,,,,,,1.617,,,,,,,,,,,,,,,,,,,,,,60fe0d742728a7c4f364d357,610375171fa4f9a1ea28ba7f,2021-07-29_23h58.07.506,Simcolourproject_2stim_asymm_v5,2020.2.10,Win32,60,61025ae37ef11b136ea224fe,,,,,,,,,417,114,-49,1,0,0,response3disk,,5,25,11,1,0,0,rectangle,25,11,1,0,0,25,11,1,0,0,0,154,154,41,1,,,,,,,,
,,,,,,,,,,,,,FF,,,,,,,,2.267,,,,,,,,,,,,,,,,,,,,,,60fe0d742728a7c4f364d357,610375171fa4f9a1ea28ba7f,2021-07-29_23h58.07.506,Simcolourproject_2stim_asymm_v5,2020.2.10,Win32,60,61025ae37ef11b136ea224fe,,,,,,,,,2788,52,-139,1,0,0,response3disk,,4,-8,13,1,0,0,rectangle,-8,13,1,0,0,-8,13,1,0,0,0,155,155,46,1,,,,,,,,
,,,,,,,,,,,,,FF,,,,,,,,1.25,,,,,,,,,,,,,,,,,,,,,,60fe0d742728a7c4f364d357,610375171fa4f9a1ea28ba7f,2021-07-29_23h58.07.506,Simcolourproject_2stim_asymm_v5,2020.2.10,Win32,60,61025ae37ef11b136ea224fe,,,,,,,,,2228,-100,-75,1,0,0,response5disk,,2,-11,0,1,0,0,rectangle,-11,0,1,0,0,-11,0,1,0,0,0,156,156,138,1,,,,,,,,
,,,,,,,,,,,,,FF,,,,,,,,0.95,,,,,,,,,,,,,,,,,,,,,,60fe0d742728a7c4f364d357,610375171fa4f9a1ea28ba7f,2021-07-29_23h58.07.506,Simcolourproject_2stim_asymm_v5,2020.2.10,Win32,60,61025ae37ef11b136ea224fe,,,,,,,,,2611,-55,-149,1,0,0,response5disk,,3,12,3,1,0,0,rectangle,12,3,1,0,0,12,3,1,0,0,0,157,157,23,1,,,,,,,,
,,,,,,,,,,,,,FF,,,,,,,,1.816,,,,,,,,,,,,,,,,,,,,,,60fe0d742728a7c4f364d357,610375171fa4f9a1ea28ba7f,2021-07-29_23h58.07.506,Simcolourproject_2stim_asymm_v5,2020.2.10,Win32,60,61025ae37ef11b136ea224fe,,,,,,,,,3933,47,-129,1,0,0,response3disk,,4,22,3,1,0,0,rectangle,22,3,1,0,0,22,3,1,0,0,0,158,158,58,1,,,,,,,,
,,,,,,,,,,,,,FF,,,,,,,,2.6,,,,,,,,,,,,,,,,,,,,,,60fe0d742728a7c4f364d357,610375171fa4f9a1ea28ba7f,2021-07-29_23h58.07.506,Simcolourproject_2stim_asymm_v5,2020.2.10,Win32,60,61025ae37ef11b136ea224fe,,,,,,,,,4228,119,-52,1,0,0,response3disk,,5,-10,3,1,0,0,rectangle,-10,3,1,0,0,-10,3,1,0,0,0,159,159,145,1,,,,,,,,
,,,,,,,,,,,,,FF,,,,,,,,0.85,,,,,,,,,,,,,,,,,,,,,,60fe0d742728a7c4f364d357,610375171fa4f9a1ea28ba7f,2021-07-29_23h58.07.506,Simcolourproject_2stim_asymm_v5,2020.2.10,Win32,60,61025ae37ef11b136ea224fe,,,,,,,,,85,124,55,1,0,0,response1disk,,6,10,-2,1,0,0,rectangle,10,-2,1,0,0,10,-2,1,0,0,1,0,160,18,1,,,,,,,,
,,,,,,,,,,,,,FF,,,,,,,,1.501,,,,,,,,,,,,,,,,,,,,,,60fe0d742728a7c4f364d357,610375171fa4f9a1ea28ba7f,2021-07-29_23h58.07.506,Simcolourproject_2stim_asymm_v5,2020.2.10,Win32,60,61025ae37ef11b136ea224fe,,,,,,,,,3283,-63,-132,1,0,0,response5disk,,3,25,-7,1,0,0,rectangle,25,-7,1,0,0,25,-7,1,0,0,1,1,161,11,1,,,,,,,,
,,,,,,,,,,,,,FF,,,,,,,,1.65,,,,,,,,,,,,,,,,,,,,,,60fe0d742728a7c4f364d357,610375171fa4f9a1ea28ba7f,2021-07-29_23h58.07.506,Simcolourproject_2stim_asymm_v5,2020.2.10,Win32,60,61025ae37ef11b136ea224fe,,,,,,,,,573,114,-62,1,0,0,response3disk,,5,7,-15,1,0,0,rectangle,7,-15,1,0,0,7,-15,1,0,0,1,2,162,9,1,,,,,,,,
,,,,,,,,,,,,,FF,,,,,,,,2.25,,,,,,,,,,,,,,,,,,,,,,60fe0d742728a7c4f364d357,610375171fa4f9a1ea28ba7f,2021-07-29_23h58.07.506,Simcolourproject_2stim_asymm_v5,2020.2.10,Win32,60,61025ae37ef11b136ea224fe,,,,,,,,,1997,140,-49,1,0,0,response3disk,,5,0,-2,1,0,0,rectangle,0,-2,1,0,0,0,-2,1,0,0,1,3,163,96,1,,,,,,,,
,,,,,,,,,,,,,FF,,,,,,,,0.917,,,,,,,,,,,,,,,,,,,,,,60fe0d742728a7c4f364d357,610375171fa4f9a1ea28ba7f,2021-07-29_23h58.07.506,Simcolourproject_2stim_asymm_v5,2020.2.10,Win32,60,61025ae37ef11b136ea224fe,,,,,,,,,3517,-65,-129,1,0,0,response5disk,,3,-3,10,1,0,0,rectangle,-3,10,1,0,0,-3,10,1,0,0,1,4,164,65,1,,,,,,,,
,,,,,,,,,,,,,FF,,,,,,,,3.45,,,,,,,,,,,,,,,,,,,,,,60fe0d742728a7c4f364d357,610375171fa4f9a1ea28ba7f,2021-07-29_23h58.07.506,Simcolourproject_2stim_asymm_v5,2020.2.10,Win32,60,61025ae37ef11b136ea224fe,,,,,,,,,161,109,-42,1,0,0,response3disk,,5,17,5,1,0,0,rectangle,17,5,1,0,0,17,5,1,0,0,1,5,165,113,1,,,,,,,,
,,,,,,,,,,,,,FF,,,,,,,,0.933,,,,,,,,,,,,,,,,,,,,,,60fe0d742728a7c4f364d357,610375171fa4f9a1ea28ba7f,2021-07-29_23h58.07.506,Simcolourproject_2stim_asymm_v5,2020.2.10,Win32,60,61025ae37ef11b136ea224fe,,,,,,,,,2794,54,-89,1,0,0,response3disk,,4,5,-5,1,0,0,rectangle,5,-5,1,0,0,5,-5,1,0,0,1,6,166,79,1,,,,,,,,
,,,,,,,,,,,,,FF,,,,,,,,1.217,,,,,,,,,,,,,,,,,,,,,,60fe0d742728a7c4f364d357,610375171fa4f9a1ea28ba7f,2021-07-29_23h58.07.506,Simcolourproject_2stim_asymm_v5,2020.2.10,Win32,60,61025ae37ef11b136ea224fe,,,,,,,,,3074,109,-59,1,0,0,response3disk,,5,30,15,1,0,0,rectangle,30,15,1,0,0,30,15,1,0,0,1,7,167,111,1,,,,,,,,
,,,,,,,,,,,,,FF,,,,,,,,0.816,,,,,,,,,,,,,,,,,,,,,,60fe0d742728a7c4f364d357,610375171fa4f9a1ea28ba7f,2021-07-29_23h58.07.506,Simcolourproject_2stim_asymm_v5,2020.2.10,Win32,60,61025ae37ef11b136ea224fe,,,,,,,,,497,104,-49,1,0,0,response3disk,,5,5,8,1,0,0,rectangle,5,8,1,0,0,5,8,1,0,0,1,8,168,45,1,,,,,,,,
,,,,,,,,,,,,,FF,,,,,,,,0.767,,,,,,,,,,,,,,,,,,,,,,60fe0d742728a7c4f364d357,610375171fa4f9a1ea28ba7f,2021-07-29_23h58.07.506,Simcolourproject_2stim_asymm_v5,2020.2.10,Win32,60,61025ae37ef11b136ea224fe,,,,,,,,,3621,74,130,1,0,0,response1disk,,7,32,-12,1,0,0,rectangle,32,-12,1,0,0,32,-12,1,0,0,1,9,169,128,1,,,,,,,,
,,,,,,,,,,,,,FF,,,,,,,,1.55,,,,,,,,,,,,,,,,,,,,,,60fe0d742728a7c4f364d357,610375171fa4f9a1ea28ba7f,2021-07-29_23h58.07.506,Simcolourproject_2stim_asymm_v5,2020.2.10,Win32,60,61025ae37ef11b136ea224fe,,,,,,,,,3143,104,60,1,0,0,response1disk,,6,-8,-14,1,0,0,rectangle,-8,-14,1,0,0,-8,-14,1,0,0,1,10,170,59,1,,,,,,,,
,,,,,,,,,,,,,FF,,,,,,,,2.049,,,,,,,,,,,,,,,,,,,,,,60fe0d742728a7c4f364d357,610375171fa4f9a1ea28ba7f,2021-07-29_23h58.07.506,Simcolourproject_2stim_asymm_v5,2020.2.10,Win32,60,61025ae37ef11b136ea224fe,,,,,,,,,4356,-68,133,1,0,0,response7disk,,0,-11,-9,1,0,0,rectangle,-108,36,1,0,0,-31,1,1,0,0,1,11,171,70,1,,response7disk_3,TRUE,1,1,"[154,210,310,59,86,172,17,120,60,172,122,180,241,303,137,218,150,84,149,126]",1.499,rectangle
,,,,,,,,,,,,,FF,,,,,,,,1.516,,,,,,,,,,,,,,,,,,,,,,60fe0d742728a7c4f364d357,610375171fa4f9a1ea28ba7f,2021-07-29_23h58.07.506,Simcolourproject_2stim_asymm_v5,2020.2.10,Win32,60,61025ae37ef11b136ea224fe,,,,,,,,,4051,67,-122,1,0,0,response3disk,,4,12,10,1,0,0,rectangle,12,10,1,0,0,12,10,1,0,0,1,12,172,139,1,,,,,,,,
,,,,,,,,,,,,,FF,,,,,,,,1.75,,,,,,,,,,,,,,,,,,,,,,60fe0d742728a7c4f364d357,610375171fa4f9a1ea28ba7f,2021-07-29_23h58.07.506,Simcolourproject_2stim_asymm_v5,2020.2.10,Win32,60,61025ae37ef11b136ea224fe,,,,,,,,,129,137,-55,1,0,0,response3disk,,5,-5,-7,1,0,0,rectangle,-5,-7,1,0,0,-5,-7,1,0,0,1,13,173,32,1,,,,,,,,
,,,,,,,,,,,,,FF,,,,,,,,0.9,,,,,,,,,,,,,,,,,,,,,,60fe0d742728a7c4f364d357,610375171fa4f9a1ea28ba7f,2021-07-29_23h58.07.506,Simcolourproject_2stim_asymm_v5,2020.2.10,Win32,60,61025ae37ef11b136ea224fe,,,,,,,,,333,69,-119,1,0,0,response3disk,,4,-10,-2,1,0,0,rectangle,-10,-2,1,0,0,-10,-2,1,0,0,1,14,174,20,1,,,,,,,,
,,,,,,,,,,,,,FF,,,,,,,,1.616,,,,,,,,,,,,,,,,,,,,,,60fe0d742728a7c4f364d357,610375171fa4f9a1ea28ba7f,2021-07-29_23h58.07.506,Simcolourproject_2stim_asymm_v5,2020.2.10,Win32,60,61025ae37ef11b136ea224fe,,,,,,,,,1713,145,58,1,0,0,response1disk,,6,2,-9,1,0,0,rectangle,2,-9,1,0,0,2,-9,1,0,0,1,15,175,91,1,,,,,,,,
,,,,,,,,,,,,,FF,,,,,,,,2.749,,,,,,,,,,,,,,,,,,,,,,60fe0d742728a7c4f364d357,610375171fa4f9a1ea28ba7f,2021-07-29_23h58.07.506,Simcolourproject_2stim_asymm_v5,2020.2.10,Win32,60,61025ae37ef11b136ea224fe,,,,,,,,,2144,99,-55,1,0,0,response3disk,,5,2,8,1,0,0,rectangle,2,8,1,0,0,2,8,1,0,0,1,16,176,71,1,,,,,,,,
,,,,,,,,,,,,,FF,,,,,,,,0.968,,,,,,,,,,,,,,,,,,,,,,60fe0d742728a7c4f364d357,610375171fa4f9a1ea28ba7f,2021-07-29_23h58.07.506,Simcolourproject_2stim_asymm_v5,2020.2.10,Win32,60,61025ae37ef11b136ea224fe,,,,,,,,,198,54,-124,1,0,0,response3disk,,4,-23,20,1,0,0,rectangle,-23,20,1,0,0,-23,20,1,0,0,1,17,177,151,1,,,,,,,,
,,,,,,,,,,,,,FF,,,,,,,,0.884,,,,,,,,,,,,,,,,,,,,,,60fe0d742728a7c4f364d357,610375171fa4f9a1ea28ba7f,2021-07-29_23h58.07.506,Simcolourproject_2stim_asymm_v5,2020.2.10,Win32,60,61025ae37ef11b136ea224fe,,,,,,,,,4084,127,-54,1,0,0,response3disk,,5,-10,13,1,0,0,rectangle,-10,13,1,0,0,-10,13,1,0,0,1,18,178,28,1,,,,,,,,
,,,,,,,,,,,,,FF,,,,,,,,3.084,,,,,,,,,,,,,,,,,,,,,,60fe0d742728a7c4f364d357,610375171fa4f9a1ea28ba7f,2021-07-29_23h58.07.506,Simcolourproject_2stim_asymm_v5,2020.2.10,Win32,60,61025ae37ef11b136ea224fe,,,,,,,,,3988,129,-45,1,0,0,response3disk,,5,-10,3,1,0,0,rectangle,-45,140,1,0,0,2,3,1,0,0,1,19,179,154,1,,response7disk_3,TRUE,0,0,"[154,210,310,59,86,172,17,120,60,172,122,180,241,303,137,218,150,84,149,126]",1.767,rectangle
,,,,,,,,,,,,,FF,,,,,,,,3.851,,,,,,,,,,,,,,,,,,,,,,60fe0d742728a7c4f364d357,610375171fa4f9a1ea28ba7f,2021-07-29_23h58.07.506,Simcolourproject_2stim_asymm_v5,2020.2.10,Win32,60,61025ae37ef11b136ea224fe,,,,,,,,,2505,99,40,1,0,0,response1disk,,6,-5,-7,1,0,0,rectangle,-5,-7,1,0,0,-5,-7,1,0,0,1,20,180,64,1,,,,,,,,
,,,,,,,,,,,,,FF,,,,,,,,1.534,,,,,,,,,,,,,,,,,,,,,,60fe0d742728a7c4f364d357,610375171fa4f9a1ea28ba7f,2021-07-29_23h58.07.506,Simcolourproject_2stim_asymm_v5,2020.2.10,Win32,60,61025ae37ef11b136ea224fe,,,,,,,,,3138,-75,-132,1,0,0,response5disk,,3,-11,-2,1,0,0,rectangle,-11,-2,1,0,0,-11,-2,1,0,0,1,21,181,39,1,,,,,,,,
,,,,,,,,,,,,,FF,,,,,,,,0.833,,,,,,,,,,,,,,,,,,,,,,60fe0d742728a7c4f364d357,610375171fa4f9a1ea28ba7f,2021-07-29_23h58.07.506,Simcolourproject_2stim_asymm_v5,2020.2.10,Win32,60,61025ae37ef11b136ea224fe,,,,,,,,,2680,-65,-134,1,0,0,response5disk,,3,-16,20,1,0,0,rectangle,-16,20,1,0,0,-16,20,1,0,0,1,22,182,31,1,,,,,,,,
,,,,,,,,,,,,,FF,,,,,,,,1.166,,,,,,,,,,,,,,,,,,,,,,60fe0d742728a7c4f364d357,610375171fa4f9a1ea28ba7f,2021-07-29_23h58.07.506,Simcolourproject_2stim_asymm_v5,2020.2.10,Win32,60,61025ae37ef11b136ea224fe,,,,,,,,,1013,67,-132,1,0,0,response3disk,,4,-13,10,1,0,0,rectangle,-13,10,1,0,0,-13,10,1,0,0,1,23,183,98,1,,,,,,,,
,,,,,,,,,,,,,FF,,,,,,,,1.083,,,,,,,,,,,,,,,,,,,,,,60fe0d742728a7c4f364d357,610375171fa4f9a1ea28ba7f,2021-07-29_23h58.07.506,Simcolourproject_2stim_asymm_v5,2020.2.10,Win32,60,61025ae37ef11b136ea224fe,,,,,,,,,290,124,-72,1,0,0,response3disk,,5,-18,0,1,0,0,rectangle,-18,0,1,0,0,-18,0,1,0,0,1,24,184,3,1,,,,,,,,
,,,,,,,,,,,,,FF,,,,,,,,1.15,,,,,,,,,,,,,,,,,,,,,,60fe0d742728a7c4f364d357,610375171fa4f9a1ea28ba7f,2021-07-29_23h58.07.506,Simcolourproject_2stim_asymm_v5,2020.2.10,Win32,60,61025ae37ef11b136ea224fe,,,,,,,,,4266,-98,48,1,0,0,response7disk,,1,-5,13,1,0,0,rectangle,-5,13,1,0,0,-5,13,1,0,0,1,25,185,90,1,,,,,,,,
,,,,,,,,,,,,,FF,,,,,,,,1.067,,,,,,,,,,,,,,,,,,,,,,60fe0d742728a7c4f364d357,610375171fa4f9a1ea28ba7f,2021-07-29_23h58.07.506,Simcolourproject_2stim_asymm_v5,2020.2.10,Win32,60,61025ae37ef11b136ea224fe,,,,,,,,,2678,-90,-72,1,0,0,response5disk,,2,-8,3,1,0,0,rectangle,-8,3,1,0,0,-8,3,1,0,0,1,26,186,38,1,,,,,,,,
,,,,,,,,,,,,,FF,,,,,,,,0.833,,,,,,,,,,,,,,,,,,,,,,60fe0d742728a7c4f364d357,610375171fa4f9a1ea28ba7f,2021-07-29_23h58.07.506,Simcolourproject_2stim_asymm_v5,2020.2.10,Win32,60,61025ae37ef11b136ea224fe,,,,,,,,,1782,57,-154,1,0,0,response3disk,,4,-3,-5,1,0,0,rectangle,-3,-5,1,0,0,-3,-5,1,0,0,1,27,187,76,1,,,,,,,,
,,,,,,,,,,,,,FF,,,,,,,,0.751,,,,,,,,,,,,,,,,,,,,,,60fe0d742728a7c4f364d357,610375171fa4f9a1ea28ba7f,2021-07-29_23h58.07.506,Simcolourproject_2stim_asymm_v5,2020.2.10,Win32,60,61025ae37ef11b136ea224fe,,,,,,,,,3291,-45,-119,1,0,0,response5disk,,3,-21,5,1,0,0,rectangle,-21,5,1,0,0,-21,5,1,0,0,1,28,188,50,1,,,,,,,,
,,,,,,,,,,,,,FF,,,,,,,,3.084,,,,,,,,,,,,,,,,,,,,,,60fe0d742728a7c4f364d357,610375171fa4f9a1ea28ba7f,2021-07-29_23h58.07.506,Simcolourproject_2stim_asymm_v5,2020.2.10,Win32,60,61025ae37ef11b136ea224fe,,,,,,,,,275,119,-47,1,0,0,response3disk,,5,2,0,1,0,0,rectangle,2,0,1,0,0,2,0,1,0,0,1,29,189,124,1,,,,,,,,
,,,,,,,,,,,,,FF,,,,,,,,1.084,,,,,,,,,,,,,,,,,,,,,,60fe0d742728a7c4f364d357,610375171fa4f9a1ea28ba7f,2021-07-29_23h58.07.506,Simcolourproject_2stim_asymm_v5,2020.2.10,Win32,60,61025ae37ef11b136ea224fe,,,,,,,,,2039,54,-129,1,0,0,response3disk,,4,-33,-2,1,0,0,rectangle,-33,-2,1,0,0,-33,-2,1,0,0,1,30,190,67,1,,,,,,,,
,,,,,,,,,,,,,FF,,,,,,,,1.783,,,,,,,,,,,,,,,,,,,,,,60fe0d742728a7c4f364d357,610375171fa4f9a1ea28ba7f,2021-07-29_23h58.07.506,Simcolourproject_2stim_asymm_v5,2020.2.10,Win32,60,61025ae37ef11b136ea224fe,,,,,,,,,2718,-123,38,1,0,0,response7disk,,1,-36,-7,1,0,0,rectangle,-36,-7,1,0,0,-36,-7,1,0,0,1,31,191,62,1,,,,,,,,
,,,,,,,,,,,,,FF,,,,,,,,1.6,,,,,,,,,,,,,,,,,,,,,,60fe0d742728a7c4f364d357,610375171fa4f9a1ea28ba7f,2021-07-29_23h58.07.506,Simcolourproject_2stim_asymm_v5,2020.2.10,Win32,60,61025ae37ef11b136ea224fe,,,,,,,,,3840,72,-122,1,0,0,response3disk,,4,-3,-7,1,0,0,rectangle,-3,-7,1,0,0,-3,-7,1,0,0,1,32,192,140,1,,,,,,,,
,,,,,,,,,,,,,FF,,,,,,,,0.916,,,,,,,,,,,,,,,,,,,,,,60fe0d742728a7c4f364d357,610375171fa4f9a1ea28ba7f,2021-07-29_23h58.07.506,Simcolourproject_2stim_asymm_v5,2020.2.10,Win32,60,61025ae37ef11b136ea224fe,,,,,,,,,4101,-68,-122,1,0,0,response5disk,,3,7,-2,1,0,0,rectangle,7,-2,1,0,0,7,-2,1,0,0,1,33,193,46,1,,,,,,,,
,,,,,,,,,,,,,FF,,,,,,,,1.767,,,,,,,,,,,,,,,,,,,,,,60fe0d742728a7c4f364d357,610375171fa4f9a1ea28ba7f,2021-07-29_23h58.07.506,Simcolourproject_2stim_asymm_v5,2020.2.10,Win32,60,61025ae37ef11b136ea224fe,,,,,,,,,2622,62,-112,1,0,0,response3disk,,4,-11,1,1,0,0,rectangle,-11,1,1,0,0,-11,1,1,0,0,1,34,194,12,1,,,,,,,,
,,,,,,,,,,,,,FF,,,,,,,,3.467,,,,,,,,,,,,,,,,,,,,,,60fe0d742728a7c4f364d357,610375171fa4f9a1ea28ba7f,2021-07-29_23h58.07.506,Simcolourproject_2stim_asymm_v5,2020.2.10,Win32,60,61025ae37ef11b136ea224fe,,,,,,,,,658,-71,-122,1,0,0,response5disk,,3,-26,-5,1,0,0,rectangle,-26,-5,1,0,0,-26,-5,1,0,0,1,35,195,13,1,,,,,,,,
,,,,,,,,,,,,,FF,,,,,,,,1.284,,,,,,,,,,,,,,,,,,,,,,60fe0d742728a7c4f364d357,610375171fa4f9a1ea28ba7f,2021-07-29_23h58.07.506,Simcolourproject_2stim_asymm_v5,2020.2.10,Win32,60,61025ae37ef11b136ea224fe,,,,,,,,,856,55,-94,1,0,0,response3disk,,4,-5,-10,1,0,0,rectangle,-5,-10,1,0,0,-5,-10,1,0,0,1,36,196,152,1,,,,,,,,
,,,,,,,,,,,,,FF,,,,,,,,2.333,,,,,,,,,,,,,,,,,,,,,,60fe0d742728a7c4f364d357,610375171fa4f9a1ea28ba7f,2021-07-29_23h58.07.506,Simcolourproject_2stim_asymm_v5,2020.2.10,Win32,60,61025ae37ef11b136ea224fe,,,,,,,,,2791,49,-149,1,0,0,response3disk,,4,-13,-5,1,0,0,rectangle,-13,-5,1,0,0,-13,-5,1,0,0,1,37,197,82,1,,,,,,,,
,,,,,,,,,,,,,FF,,,,,,,,0.884,,,,,,,,,,,,,,,,,,,,,,60fe0d742728a7c4f364d357,610375171fa4f9a1ea28ba7f,2021-07-29_23h58.07.506,Simcolourproject_2stim_asymm_v5,2020.2.10,Win32,60,61025ae37ef11b136ea224fe,,,,,,,,,3655,127,-62,1,0,0,response3disk,,5,-23,10,1,0,0,rectangle,-23,10,1,0,0,-23,10,1,0,0,1,38,198,10,1,,,,,,,,
,,,,,,,,,,,,,FF,,,,,,,,1.216,,,,,,,,,,,,,,,,,,,,,,60fe0d742728a7c4f364d357,610375171fa4f9a1ea28ba7f,2021-07-29_23h58.07.506,Simcolourproject_2stim_asymm_v5,2020.2.10,Win32,60,61025ae37ef11b136ea224fe,,,,,,,,,2799,-55,-129,1,0,0,response5disk,,3,-16,-2,1,0,0,rectangle,-16,-2,1,0,0,-16,-2,1,0,0,1,39,199,158,1,,,,,,,,
,,,,,,,,,,,,,FF,,,,,,,,2.566,,,,,,,,,,,,,,,,,,,,,,60fe0d742728a7c4f364d357,610375171fa4f9a1ea28ba7f,2021-07-29_23h58.07.506,Simcolourproject_2stim_asymm_v5,2020.2.10,Win32,60,61025ae37ef11b136ea224fe,,,,,,,,,1320,55,-129,1,0,0,response3disk,,4,5,-2,1,0,0,rectangle,5,-2,1,0,0,5,-2,1,0,0,1,40,200,119,1,,,,,,,,
,,,,,,,,,,,,,FF,,,,,,,,1.05,,,,,,,,,,,,,,,,,,,,,,60fe0d742728a7c4f364d357,610375171fa4f9a1ea28ba7f,2021-07-29_23h58.07.506,Simcolourproject_2stim_asymm_v5,2020.2.10,Win32,60,61025ae37ef11b136ea224fe,,,,,,,,,1303,57,-134,1,0,0,response3disk,,4,-18,-2,1,0,0,rectangle,-18,-2,1,0,0,-18,-2,1,0,0,1,41,201,23,1,,,,,,,,
,,,,,,,,,,,,,FF,,,,,,,,2.233,,,,,,,,,,,,,,,,,,,,,,60fe0d742728a7c4f364d357,610375171fa4f9a1ea28ba7f,2021-07-29_23h58.07.506,Simcolourproject_2stim_asymm_v5,2020.2.10,Win32,60,61025ae37ef11b136ea224fe,,,,,,,,,3822,114,-67,1,0,0,response3disk,,5,-18,-2,1,0,0,rectangle,-18,-2,1,0,0,-18,-2,1,0,0,1,42,202,53,1,,,,,,,,
,,,,,,,,,,,,,FF,,,,,,,,2.651,,,,,,,,,,,,,,,,,,,,,,60fe0d742728a7c4f364d357,610375171fa4f9a1ea28ba7f,2021-07-29_23h58.07.506,Simcolourproject_2stim_asymm_v5,2020.2.10,Win32,60,61025ae37ef11b136ea224fe,,,,,,,,,3788,-46,-117,1,0,0,response5disk,,3,19,8,1,0,0,rectangle,19,8,1,0,0,19,8,1,0,0,1,43,203,66,1,,,,,,,,
,,,,,,,,,,,,,FF,,,,,,,,2.933,,,,,,,,,,,,,,,,,,,,,,60fe0d742728a7c4f364d357,610375171fa4f9a1ea28ba7f,2021-07-29_23h58.07.506,Simcolourproject_2stim_asymm_v5,2020.2.10,Win32,60,61025ae37ef11b136ea224fe,,,,,,,,,1419,109,-62,1,0,0,response3disk,,5,35,-10,1,0,0,rectangle,35,-10,1,0,0,35,-10,1,0,0,1,44,204,4,1,,,,,,,,
,,,,,,,,,,,,,FF,,,,,,,,1.266,,,,,,,,,,,,,,,,,,,,,,60fe0d742728a7c4f364d357,610375171fa4f9a1ea28ba7f,2021-07-29_23h58.07.506,Simcolourproject_2stim_asymm_v5,2020.2.10,Win32,60,61025ae37ef11b136ea224fe,,,,,,,,,2662,-133,-42,1,0,0,response5disk,,2,10,1,1,0,0,rectangle,10,1,1,0,0,10,1,1,0,0,1,45,205,118,1,,,,,,,,
,,,,,,,,,,,,,FF,,,,,,,,0.783,,,,,,,,,,,,,,,,,,,,,,60fe0d742728a7c4f364d357,610375171fa4f9a1ea28ba7f,2021-07-29_23h58.07.506,Simcolourproject_2stim_asymm_v5,2020.2.10,Win32,60,61025ae37ef11b136ea224fe,,,,,,,,,4027,-98,-59,1,0,0,response5disk,,2,-6,0,1,0,0,rectangle,-6,0,1,0,0,-6,0,1,0,0,1,46,206,133,1,,,,,,,,
,,,,,,,,,,,,,FF,,,,,,,,1.283,,,,,,,,,,,,,,,,,,,,,,60fe0d742728a7c4f364d357,610375171fa4f9a1ea28ba7f,2021-07-29_23h58.07.506,Simcolourproject_2stim_asymm_v5,2020.2.10,Win32,60,61025ae37ef11b136ea224fe,,,,,,,,,2380,52,-119,1,0,0,response3disk,,4,2,-10,1,0,0,rectangle,2,-10,1,0,0,2,-10,1,0,0,1,47,207,83,1,,,,,,,,
,,,,,,,,,,,,,FF,,,,,,,,0.783,,,,,,,,,,,,,,,,,,,,,,60fe0d742728a7c4f364d357,610375171fa4f9a1ea28ba7f,2021-07-29_23h58.07.506,Simcolourproject_2stim_asymm_v5,2020.2.10,Win32,60,61025ae37ef11b136ea224fe,,,,,,,,,2084,67,125,1,0,0,response1disk,,7,22,-5,1,0,0,rectangle,22,-5,1,0,0,22,-5,1,0,0,1,48,208,159,1,,,,,,,,
,,,,,,,,,,,,,FF,,,,,,,,1.066,,,,,,,,,,,,,,,,,,,,,,60fe0d742728a7c4f364d357,610375171fa4f9a1ea28ba7f,2021-07-29_23h58.07.506,Simcolourproject_2stim_asymm_v5,2020.2.10,Win32,60,61025ae37ef11b136ea224fe,,,,,,,,,3936,-123,61,1,0,0,response7disk,,1,-23,8,1,0,0,rectangle,-68,145,1,0,0,-1,-9,1,0,0,1,49,209,19,1,,response7disk_3,TRUE,0,0,"[154,210,310,59,86,172,17,120,60,172,122,180,241,303,137,218,150,84,149,126]",1.683,rectangle
,,,,,,,,,,,,,FF,,,,,,,,1.616,,,,,,,,,,,,,,,,,,,,,,60fe0d742728a7c4f364d357,610375171fa4f9a1ea28ba7f,2021-07-29_23h58.07.506,Simcolourproject_2stim_asymm_v5,2020.2.10,Win32,60,61025ae37ef11b136ea224fe,,,,,,,,,4196,62,-104,1,0,0,response3disk,,4,15,15,1,0,0,rectangle,15,15,1,0,0,15,15,1,0,0,1,50,210,61,1,,,,,,,,
,,,,,,,,,,,,,FF,,,,,,,,0.983,,,,,,,,,,,,,,,,,,,,,,60fe0d742728a7c4f364d357,610375171fa4f9a1ea28ba7f,2021-07-29_23h58.07.506,Simcolourproject_2stim_asymm_v5,2020.2.10,Win32,60,61025ae37ef11b136ea224fe,,,,,,,,,2439,42,-117,1,0,0,response3disk,,4,-25,15,1,0,0,rectangle,-25,15,1,0,0,-25,15,1,0,0,1,51,211,149,1,,,,,,,,
,,,,,,,,,,,,,FF,,,,,,,,0.851,,,,,,,,,,,,,,,,,,,,,,60fe0d742728a7c4f364d357,610375171fa4f9a1ea28ba7f,2021-07-29_23h58.07.506,Simcolourproject_2stim_asymm_v5,2020.2.10,Win32,60,61025ae37ef11b136ea224fe,,,,,,,,,1110,-38,-117,1,0,0,response5disk,,3,-28,-7,1,0,0,rectangle,-28,-7,1,0,0,-28,-7,1,0,0,1,52,212,69,1,,,,,,,,
,,,,,,,,,,,,,FF,,,,,,,,0.983,,,,,,,,,,,,,,,,,,,,,,60fe0d742728a7c4f364d357,610375171fa4f9a1ea28ba7f,2021-07-29_23h58.07.506,Simcolourproject_2stim_asymm_v5,2020.2.10,Win32,60,61025ae37ef11b136ea224fe,,,,,,,,,3515,-83,-54,1,0,0,response5disk,,2,2,13,1,0,0,rectangle,2,13,1,0,0,2,13,1,0,0,1,53,213,72,1,,,,,,,,
,,,,,,,,,,,,,FF,,,,,,,,1.117,,,,,,,,,,,,,,,,,,,,,,60fe0d742728a7c4f364d357,610375171fa4f9a1ea28ba7f,2021-07-29_23h58.07.506,Simcolourproject_2stim_asymm_v5,2020.2.10,Win32,60,61025ae37ef11b136ea224fe,,,,,,,,,977,-48,-104,1,0,0,response5disk,,3,-23,-7,1,0,0,rectangle,-23,-7,1,0,0,-23,-7,1,0,0,1,54,214,68,1,,,,,,,,
,,,,,,,,,,,,,FF,,,,,,,,2.501,,,,,,,,,,,,,,,,,,,,,,60fe0d742728a7c4f364d357,610375171fa4f9a1ea28ba7f,2021-07-29_23h58.07.506,Simcolourproject_2stim_asymm_v5,2020.2.10,Win32,60,61025ae37ef11b136ea224fe,,,,,,,,,1541,-63,-124,1,0,0,response5disk,,3,-13,18,1,0,0,rectangle,-13,18,1,0,0,-13,18,1,0,0,1,55,215,48,1,,,,,,,,
,,,,,,,,,,,,,FF,,,,,,,,0.784,,,,,,,,,,,,,,,,,,,,,,60fe0d742728a7c4f364d357,610375171fa4f9a1ea28ba7f,2021-07-29_23h58.07.506,Simcolourproject_2stim_asymm_v5,2020.2.10,Win32,60,61025ae37ef11b136ea224fe,,,,,,,,,1377,-133,-64,1,0,0,response5disk,,2,-18,18,1,0,0,rectangle,-18,18,1,0,0,-18,18,1,0,0,1,56,216,40,1,,,,,,,,
,,,,,,,,,,,,,FF,,,,,,,,1.783,,,,,,,,,,,,,,,,,,,,,,60fe0d742728a7c4f364d357,610375171fa4f9a1ea28ba7f,2021-07-29_23h58.07.506,Simcolourproject_2stim_asymm_v5,2020.2.10,Win32,60,61025ae37ef11b136ea224fe,,,,,,,,,1347,39,-132,1,0,0,response3disk,,4,-5,13,1,0,0,rectangle,-110,-55,1,0,0,7,8,1,0,0,1,57,217,147,1,,response5disk_3,TRUE,2,2,"[154,210,310,59,86,172,17,120,60,172,122,180,241,303,137,218,150,84,149,126]",1.916,rectangle
,,,,,,,,,,,,,FF,,,,,,,,1.966,,,,,,,,,,,,,,,,,,,,,,60fe0d742728a7c4f364d357,610375171fa4f9a1ea28ba7f,2021-07-29_23h58.07.506,Simcolourproject_2stim_asymm_v5,2020.2.10,Win32,60,61025ae37ef11b136ea224fe,,,,,,,,,478,54,-117,1,0,0,response3disk,,4,2,20,1,0,0,rectangle,2,20,1,0,0,2,20,1,0,0,1,58,218,27,1,,,,,,,,
,,,,,,,,,,,,,FF,,,,,,,,1.383,,,,,,,,,,,,,,,,,,,,,,60fe0d742728a7c4f364d357,610375171fa4f9a1ea28ba7f,2021-07-29_23h58.07.506,Simcolourproject_2stim_asymm_v5,2020.2.10,Win32,60,61025ae37ef11b136ea224fe,,,,,,,,,1043,59,-134,1,0,0,response3disk,,4,20,-7,1,0,0,rectangle,20,-7,1,0,0,20,-7,1,0,0,1,59,219,129,1,,,,,,,,
,,,,,,,,,,,,,FF,,,,,,,,5.167,,,,,,,,,,,,,,,,,,,,,,60fe0d742728a7c4f364d357,610375171fa4f9a1ea28ba7f,2021-07-29_23h58.07.506,Simcolourproject_2stim_asymm_v5,2020.2.10,Win32,60,61025ae37ef11b136ea224fe,,,,,,,,,3079,112,-62,1,0,0,response3disk,,5,25,18,1,0,0,rectangle,25,18,1,0,0,25,18,1,0,0,1,60,220,112,1,,,,,,,,
,,,,,,,,,,,,,FF,,,,,,,,0.868,,,,,,,,,,,,,,,,,,,,,,60fe0d742728a7c4f364d357,610375171fa4f9a1ea28ba7f,2021-07-29_23h58.07.506,Simcolourproject_2stim_asymm_v5,2020.2.10,Win32,60,61025ae37ef11b136ea224fe,,,,,,,,,1359,52,100,1,0,0,response1disk,,7,22,16,1,0,0,rectangle,22,16,1,0,0,22,16,1,0,0,1,61,221,153,1,,,,,,,,
,,,,,,,,,,,,,FF,,,,,,,,1.084,,,,,,,,,,,,,,,,,,,,,,60fe0d742728a7c4f364d357,610375171fa4f9a1ea28ba7f,2021-07-29_23h58.07.506,Simcolourproject_2stim_asymm_v5,2020.2.10,Win32,60,61025ae37ef11b136ea224fe,,,,,,,,,251,52,-112,1,0,0,response3disk,,4,17,-17,1,0,0,rectangle,17,-17,1,0,0,17,-17,1,0,0,1,62,222,155,1,,,,,,,,
,,,,,,,,,,,,,FF,,,,,,,,1.034,,,,,,,,,,,,,,,,,,,,,,60fe0d742728a7c4f364d357,610375171fa4f9a1ea28ba7f,2021-07-29_23h58.07.506,Simcolourproject_2stim_asymm_v5,2020.2.10,Win32,60,61025ae37ef11b136ea224fe,,,,,,,,,2839,-50,-107,1,0,0,response5disk,,3,12,-17,1,0,0,rectangle,12,-17,1,0,0,12,-17,1,0,0,1,63,223,15,1,,,,,,,,
,,,,,,,,,,,,,FF,,,,,,,,3.766,,,,,,,,,,,,,,,,,,,,,,60fe0d742728a7c4f364d357,610375171fa4f9a1ea28ba7f,2021-07-29_23h58.07.506,Simcolourproject_2stim_asymm_v5,2020.2.10,Win32,60,61025ae37ef11b136ea224fe,,,,,,,,,3658,134,-67,1,0,0,response3disk,,5,7,-10,1,0,0,rectangle,7,-10,1,0,0,7,-10,1,0,0,1,64,224,125,1,,,,,,,,
,,,,,,,,,,,,,FF,,,,,,,,1.483,,,,,,,,,,,,,,,,,,,,,,60fe0d742728a7c4f364d357,610375171fa4f9a1ea28ba7f,2021-07-29_23h58.07.506,Simcolourproject_2stim_asymm_v5,2020.2.10,Win32,60,61025ae37ef11b136ea224fe,,,,,,,,,1953,62,-127,1,0,0,response3disk,,4,10,8,1,0,0,rectangle,10,8,1,0,0,10,8,1,0,0,1,65,225,103,1,,,,,,,,
,,,,,,,,,,,,,FF,,,,,,,,0.95,,,,,,,,,,,,,,,,,,,,,,60fe0d742728a7c4f364d357,610375171fa4f9a1ea28ba7f,2021-07-29_23h58.07.506,Simcolourproject_2stim_asymm_v5,2020.2.10,Win32,60,61025ae37ef11b136ea224fe,,,,,,,,,265,-68,-124,1,0,0,response5disk,,3,17,0,1,0,0,rectangle,17,0,1,0,0,17,0,1,0,0,1,66,226,114,1,,,,,,,,
,,,,,,,,,,,,,FF,,,,,,,,0.734,,,,,,,,,,,,,,,,,,,,,,60fe0d742728a7c4f364d357,610375171fa4f9a1ea28ba7f,2021-07-29_23h58.07.506,Simcolourproject_2stim_asymm_v5,2020.2.10,Win32,60,61025ae37ef11b136ea224fe,,,,,,,,,2721,-75,-129,1,0,0,response5disk,,3,17,-7,1,0,0,rectangle,17,-7,1,0,0,17,-7,1,0,0,1,67,227,100,1,,,,,,,,
,,,,,,,,,,,,,FF,,,,,,,,1.783,,,,,,,,,,,,,,,,,,,,,,60fe0d742728a7c4f364d357,610375171fa4f9a1ea28ba7f,2021-07-29_23h58.07.506,Simcolourproject_2stim_asymm_v5,2020.2.10,Win32,60,61025ae37ef11b136ea224fe,,,,,,,,,672,70,-127,1,0,0,response3disk,,4,12,13,1,0,0,rectangle,12,13,1,0,0,12,13,1,0,0,1,68,228,6,1,,,,,,,,
,,,,,,,,,,,,,FF,,,,,,,,0.716,,,,,,,,,,,,,,,,,,,,,,60fe0d742728a7c4f364d357,610375171fa4f9a1ea28ba7f,2021-07-29_23h58.07.506,Simcolourproject_2stim_asymm_v5,2020.2.10,Win32,60,61025ae37ef11b136ea224fe,,,,,,,,,1095,109,-69,1,0,0,response3disk,,5,12,-2,1,0,0,rectangle,12,-2,1,0,0,12,-2,1,0,0,1,69,229,93,1,,,,,,,,
,,,,,,,,,,,,,FF,,,,,,,,0.933,,,,,,,,,,,,,,,,,,,,,,60fe0d742728a7c4f364d357,610375171fa4f9a1ea28ba7f,2021-07-29_23h58.07.506,Simcolourproject_2stim_asymm_v5,2020.2.10,Win32,60,61025ae37ef11b136ea224fe,,,,,,,,,1745,-43,-124,1,0,0,response5disk,,3,-13,3,1,0,0,rectangle,-13,3,1,0,0,-13,3,1,0,0,1,70,230,141,1,,,,,,,,
,,,,,,,,,,,,,FF,,,,,,,,1.117,,,,,,,,,,,,,,,,,,,,,,60fe0d742728a7c4f364d357,610375171fa4f9a1ea28ba7f,2021-07-29_23h58.07.506,Simcolourproject_2stim_asymm_v5,2020.2.10,Win32,60,61025ae37ef11b136ea224fe,,,,,,,,,4147,-118,-54,1,0,0,response5disk,,2,-1,5,1,0,0,rectangle,-1,5,1,0,0,-1,5,1,0,0,1,71,231,2,1,,,,,,,,
,,,,,,,,,,,,,FF,,,,,,,,0.951,,,,,,,,,,,,,,,,,,,,,,60fe0d742728a7c4f364d357,610375171fa4f9a1ea28ba7f,2021-07-29_23h58.07.506,Simcolourproject_2stim_asymm_v5,2020.2.10,Win32,60,61025ae37ef11b136ea224fe,,,,,,,,,1941,70,-139,1,0,0,response3disk,,4,0,-7,1,0,0,rectangle,0,-7,1,0,0,0,-7,1,0,0,1,72,232,110,1,,,,,,,,
,,,,,,,,,,,,,FF,,,,,,,,0.817,,,,,,,,,,,,,,,,,,,,,,60fe0d742728a7c4f364d357,610375171fa4f9a1ea28ba7f,2021-07-29_23h58.07.506,Simcolourproject_2stim_asymm_v5,2020.2.10,Win32,60,61025ae37ef11b136ea224fe,,,,,,,,,299,114,-62,1,0,0,response3disk,,5,0,8,1,0,0,rectangle,0,8,1,0,0,0,8,1,0,0,1,73,233,145,1,,,,,,,,
,,,,,,,,,,,,,FF,,,,,,,,0.966,,,,,,,,,,,,,,,,,,,,,,60fe0d742728a7c4f364d357,610375171fa4f9a1ea28ba7f,2021-07-29_23h58.07.506,Simcolourproject_2stim_asymm_v5,2020.2.10,Win32,60,61025ae37ef11b136ea224fe,,,,,,,,,2413,59,-129,1,0,0,response3disk,,4,7,-10,1,0,0,rectangle,7,-10,1,0,0,7,-10,1,0,0,1,74,234,29,1,,,,,,,,
,,,,,,,,,,,,,FF,,,,,,,,1.017,,,,,,,,,,,,,,,,,,,,,,60fe0d742728a7c4f364d357,610375171fa4f9a1ea28ba7f,2021-07-29_23h58.07.506,Simcolourproject_2stim_asymm_v5,2020.2.10,Win32,60,61025ae37ef11b136ea224fe,,,,,,,,,1143,44,-137,1,0,0,response3disk,,4,-23,5,1,0,0,rectangle,-23,5,1,0,0,-23,5,1,0,0,1,75,235,7,1,,,,,,,,
,,,,,,,,,,,,,FF,,,,,,,,0.8,,,,,,,,,,,,,,,,,,,,,,60fe0d742728a7c4f364d357,610375171fa4f9a1ea28ba7f,2021-07-29_23h58.07.506,Simcolourproject_2stim_asymm_v5,2020.2.10,Win32,60,61025ae37ef11b136ea224fe,,,,,,,,,2850,112,-62,1,0,0,response3disk,,5,-13,13,1,0,0,rectangle,-13,13,1,0,0,-13,13,1,0,0,1,76,236,117,1,,,,,,,,
,,,,,,,,,,,,,FF,,,,,,,,0.9,,,,,,,,,,,,,,,,,,,,,,60fe0d742728a7c4f364d357,610375171fa4f9a1ea28ba7f,2021-07-29_23h58.07.506,Simcolourproject_2stim_asymm_v5,2020.2.10,Win32,60,61025ae37ef11b136ea224fe,,,,,,,,,1062,142,-72,1,0,0,response3disk,,5,5,18,1,0,0,rectangle,5,18,1,0,0,5,18,1,0,0,1,77,237,131,1,,,,,,,,
,,,,,,,,,,,,,FF,,,,,,,,0.767,,,,,,,,,,,,,,,,,,,,,,60fe0d742728a7c4f364d357,610375171fa4f9a1ea28ba7f,2021-07-29_23h58.07.506,Simcolourproject_2stim_asymm_v5,2020.2.10,Win32,60,61025ae37ef11b136ea224fe,,,,,,,,,588,117,-67,1,0,0,response3disk,,5,5,-7,1,0,0,rectangle,5,-7,1,0,0,5,-7,1,0,0,1,78,238,80,1,,,,,,,,
,,,,,,,,,,,,,FF,,,,,,,,0.817,,,,,,,,,,,,,,,,,,,,,,60fe0d742728a7c4f364d357,610375171fa4f9a1ea28ba7f,2021-07-29_23h58.07.506,Simcolourproject_2stim_asymm_v5,2020.2.10,Win32,60,61025ae37ef11b136ea224fe,,,,,,,,,1273,134,-74,1,0,0,response3disk,,5,7,-12,1,0,0,rectangle,7,-12,1,0,0,7,-12,1,0,0,1,79,239,33,1,,,,,,,,
,,,,,,,,,,,,,FF,,,,,,,,1.534,,,,,,,,,,,,,,,,,,,,,,60fe0d742728a7c4f364d357,610375171fa4f9a1ea28ba7f,2021-07-29_23h58.07.506,Simcolourproject_2stim_asymm_v5,2020.2.10,Win32,60,61025ae37ef11b136ea224fe,,,,,,,,,3003,-65,-134,1,0,0,response5disk,,3,-8,3,1,0,0,rectangle,129,-47,1,0,0,7,-10,1,0,0,1,80,240,5,1,,response3disk_3,TRUE,5,5,"[154,210,310,59,86,172,17,120,60,172,122,180,241,303,137,218,150,84,149,126]",1.849,rectangle
,,,,,,,,,,,,,FF,,,,,,,,2.433,,,,,,,,,,,,,,,,,,,,,,60fe0d742728a7c4f364d357,610375171fa4f9a1ea28ba7f,2021-07-29_23h58.07.506,Simcolourproject_2stim_asymm_v5,2020.2.10,Win32,60,61025ae37ef11b136ea224fe,,,,,,,,,759,92,-40,1,0,0,response3disk,,5,22,5,1,0,0,rectangle,22,5,1,0,0,22,5,1,0,0,1,81,241,16,1,,,,,,,,
,,,,,,,,,,,,,FF,,,,,,,,6.084,,,,,,,,,,,,,,,,,,,,,,60fe0d742728a7c4f364d357,610375171fa4f9a1ea28ba7f,2021-07-29_23h58.07.506,Simcolourproject_2stim_asymm_v5,2020.2.10,Win32,60,61025ae37ef11b136ea224fe,,,,,,,,,1731,64,-137,1,0,0,response3disk,,4,-13,-12,1,0,0,rectangle,-13,-12,1,0,0,-13,-12,1,0,0,1,82,242,24,1,,,,,,,,
,,,,,,,,,,,,,FF,,,,,,,,0.867,,,,,,,,,,,,,,,,,,,,,,60fe0d742728a7c4f364d357,610375171fa4f9a1ea28ba7f,2021-07-29_23h58.07.506,Simcolourproject_2stim_asymm_v5,2020.2.10,Win32,60,61025ae37ef11b136ea224fe,,,,,,,,,873,-63,-117,1,0,0,response5disk,,3,-1,-10,1,0,0,rectangle,-1,-10,1,0,0,-1,-10,1,0,0,1,83,243,84,1,,,,,,,,
,,,,,,,,,,,,,FF,,,,,,,,1.167,,,,,,,,,,,,,,,,,,,,,,60fe0d742728a7c4f364d357,610375171fa4f9a1ea28ba7f,2021-07-29_23h58.07.506,Simcolourproject_2stim_asymm_v5,2020.2.10,Win32,60,61025ae37ef11b136ea224fe,,,,,,,,,2115,132,-62,1,0,0,response3disk,,5,-23,0,1,0,0,rectangle,-23,0,1,0,0,-23,0,1,0,0,1,84,244,60,1,,,,,,,,
,,,,,,,,,,,,,FF,,,,,,,,0.918,,,,,,,,,,,,,,,,,,,,,,60fe0d742728a7c4f364d357,610375171fa4f9a1ea28ba7f,2021-07-29_23h58.07.506,Simcolourproject_2stim_asymm_v5,2020.2.10,Win32,60,61025ae37ef11b136ea224fe,,,,,,,,,1690,72,-129,1,0,0,response3disk,,4,-3,0,1,0,0,rectangle,-3,0,1,0,0,-3,0,1,0,0,1,85,245,109,1,,,,,,,,
,,,,,,,,,,,,,FF,,,,,,,,1.083,,,,,,,,,,,,,,,,,,,,,,60fe0d742728a7c4f364d357,610375171fa4f9a1ea28ba7f,2021-07-29_23h58.07.506,Simcolourproject_2stim_asymm_v5,2020.2.10,Win32,60,61025ae37ef11b136ea224fe,,,,,,,,,2474,99,-54,1,0,0,response3disk,,5,-13,-2,1,0,0,rectangle,-13,-2,1,0,0,-13,-2,1,0,0,1,86,246,120,1,,,,,,,,
,,,,,,,,,,,,,FF,,,,,,,,1.633,,,,,,,,,,,,,,,,,,,,,,60fe0d742728a7c4f364d357,610375171fa4f9a1ea28ba7f,2021-07-29_23h58.07.506,Simcolourproject_2stim_asymm_v5,2020.2.10,Win32,60,61025ae37ef11b136ea224fe,,,,,,,,,173,-70,-142,1,0,0,response5disk,,3,-13,-2,1,0,0,rectangle,-13,-2,1,0,0,-13,-2,1,0,0,1,87,247,127,1,,,,,,,,
,,,,,,,,,,,,,FF,,,,,,,,1.234,,,,,,,,,,,,,,,,,,,,,,60fe0d742728a7c4f364d357,610375171fa4f9a1ea28ba7f,2021-07-29_23h58.07.506,Simcolourproject_2stim_asymm_v5,2020.2.10,Win32,60,61025ae37ef11b136ea224fe,,,,,,,,,2484,137,-69,1,0,0,response3disk,,5,-18,18,1,0,0,rectangle,-18,18,1,0,0,-18,18,1,0,0,1,88,248,102,1,,,,,,,,
,,,,,,,,,,,,,FF,,,,,,,,1.2,,,,,,,,,,,,,,,,,,,,,,60fe0d742728a7c4f364d357,610375171fa4f9a1ea28ba7f,2021-07-29_23h58.07.506,Simcolourproject_2stim_asymm_v5,2020.2.10,Win32,60,61025ae37ef11b136ea224fe,,,,,,,,,2030,44,-107,1,0,0,response3disk,,4,15,10,1,0,0,rectangle,15,10,1,0,0,15,10,1,0,0,1,89,249,107,1,,,,,,,,
,,,,,,,,,,,,,FF,,,,,,,,1.15,,,,,,,,,,,,,,,,,,,,,,60fe0d742728a7c4f364d357,610375171fa4f9a1ea28ba7f,2021-07-29_23h58.07.506,Simcolourproject_2stim_asymm_v5,2020.2.10,Win32,60,61025ae37ef11b136ea224fe,,,,,,,,,305,122,-54,1,0,0,response3disk,,5,5,15,1,0,0,rectangle,5,15,1,0,0,5,15,1,0,0,1,90,250,41,1,,,,,,,,
,,,,,,,,,,,,,FF,,,,,,,,0.884,,,,,,,,,,,,,,,,,,,,,,60fe0d742728a7c4f364d357,610375171fa4f9a1ea28ba7f,2021-07-29_23h58.07.506,Simcolourproject_2stim_asymm_v5,2020.2.10,Win32,60,61025ae37ef11b136ea224fe,,,,,,,,,2021,142,58,1,0,0,response1disk,,6,-25,1,1,0,0,rectangle,-25,1,1,0,0,-25,1,1,0,0,1,91,251,56,1,,,,,,,,
,,,,,,,,,,,,,FF,,,,,,,,2.334,,,,,,,,,,,,,,,,,,,,,,60fe0d742728a7c4f364d357,610375171fa4f9a1ea28ba7f,2021-07-29_23h58.07.506,Simcolourproject_2stim_asymm_v5,2020.2.10,Win32,60,61025ae37ef11b136ea224fe,,,,,,,,,1034,112,-55,1,0,0,response3disk,,5,2,0,1,0,0,rectangle,2,0,1,0,0,2,0,1,0,0,1,92,252,35,1,,,,,,,,
,,,,,,,,,,,,,FF,,,,,,,,1.767,,,,,,,,,,,,,,,,,,,,,,60fe0d742728a7c4f364d357,610375171fa4f9a1ea28ba7f,2021-07-29_23h58.07.506,Simcolourproject_2stim_asymm_v5,2020.2.10,Win32,60,61025ae37ef11b136ea224fe,,,,,,,,,4076,-38,-134,1,0,0,response5disk,,3,32,0,1,0,0,rectangle,32,0,1,0,0,32,0,1,0,0,1,93,253,52,1,,,,,,,,
,,,,,,,,,,,,,FF,,,,,,,,2.166,,,,,,,,,,,,,,,,,,,,,,60fe0d742728a7c4f364d357,610375171fa4f9a1ea28ba7f,2021-07-29_23h58.07.506,Simcolourproject_2stim_asymm_v5,2020.2.10,Win32,60,61025ae37ef11b136ea224fe,,,,,,,,,44,87,-122,1,0,0,response3disk,,4,12,-5,1,0,0,rectangle,12,-5,1,0,0,12,-5,1,0,0,1,94,254,121,1,,,,,,,,
,,,,,,,,,,,,,FF,,,,,,,,0.933,,,,,,,,,,,,,,,,,,,,,,60fe0d742728a7c4f364d357,610375171fa4f9a1ea28ba7f,2021-07-29_23h58.07.506,Simcolourproject_2stim_asymm_v5,2020.2.10,Win32,60,61025ae37ef11b136ea224fe,,,,,,,,,1645,114,-49,1,0,0,response3disk,,5,-5,5,1,0,0,rectangle,-5,5,1,0,0,-5,5,1,0,0,1,95,255,132,1,,,,,,,,
,,,,,,,,,,,,,FF,,,,,,,,0.883,,,,,,,,,,,,,,,,,,,,,,60fe0d742728a7c4f364d357,610375171fa4f9a1ea28ba7f,2021-07-29_23h58.07.506,Simcolourproject_2stim_asymm_v5,2020.2.10,Win32,60,61025ae37ef11b136ea224fe,,,,,,,,,1556,119,-67,1,0,0,response3disk,,5,-18,-12,1,0,0,rectangle,-18,-12,1,0,0,-18,-12,1,0,0,1,96,256,97,1,,,,,,,,
,,,,,,,,,,,,,FF,,,,,,,,1.499,,,,,,,,,,,,,,,,,,,,,,60fe0d742728a7c4f364d357,610375171fa4f9a1ea28ba7f,2021-07-29_23h58.07.506,Simcolourproject_2stim_asymm_v5,2020.2.10,Win32,60,61025ae37ef11b136ea224fe,,,,,,,,,4320,119,38,1,0,0,response1disk,,6,0,13,1,0,0,rectangle,0,13,1,0,0,0,13,1,0,0,1,97,257,78,1,,,,,,,,
,,,,,,,,,,,,,FF,,,,,,,,2.2,,,,,,,,,,,,,,,,,,,,,,60fe0d742728a7c4f364d357,610375171fa4f9a1ea28ba7f,2021-07-29_23h58.07.506,Simcolourproject_2stim_asymm_v5,2020.2.10,Win32,60,61025ae37ef11b136ea224fe,,,,,,,,,3532,122,-52,1,0,0,response3disk,,5,7,-5,1,0,0,rectangle,7,-5,1,0,0,7,-5,1,0,0,1,98,258,143,1,,,,,,,,
,,,,,,,,,,,,,FF,,,,,,,,2.233,,,,,,,,,,,,,,,,,,,,,,60fe0d742728a7c4f364d357,610375171fa4f9a1ea28ba7f,2021-07-29_23h58.07.506,Simcolourproject_2stim_asymm_v5,2020.2.10,Win32,60,61025ae37ef11b136ea224fe,,,,,,,,,2171,44,-139,1,0,0,response3disk,,4,7,5,1,0,0,rectangle,7,5,1,0,0,7,5,1,0,0,1,99,259,106,1,,,,,,,,
,,,,,,,,,,,,,FF,,,,,,,,1.05,,,,,,,,,,,,,,,,,,,,,,60fe0d742728a7c4f364d357,610375171fa4f9a1ea28ba7f,2021-07-29_23h58.07.506,Simcolourproject_2stim_asymm_v5,2020.2.10,Win32,60,61025ae37ef11b136ea224fe,,,,,,,,,2514,127,60,1,0,0,response1disk,,6,-30,3,1,0,0,rectangle,-30,3,1,0,0,-30,3,1,0,0,1,100,260,0,1,,,,,,,,
,,,,,,,,,,,,,FF,,,,,,,,0.784,,,,,,,,,,,,,,,,,,,,,,60fe0d742728a7c4f364d357,610375171fa4f9a1ea28ba7f,2021-07-29_23h58.07.506,Simcolourproject_2stim_asymm_v5,2020.2.10,Win32,60,61025ae37ef11b136ea224fe,,,,,,,,,496,109,-57,1,0,0,response3disk,,5,5,10,1,0,0,rectangle,5,10,1,0,0,5,10,1,0,0,1,101,261,130,1,,,,,,,,
,,,,,,,,,,,,,FF,,,,,,,,0.9,,,,,,,,,,,,,,,,,,,,,,60fe0d742728a7c4f364d357,610375171fa4f9a1ea28ba7f,2021-07-29_23h58.07.506,Simcolourproject_2stim_asymm_v5,2020.2.10,Win32,60,61025ae37ef11b136ea224fe,,,,,,,,,4212,109,-59,1,0,0,response3disk,,5,2,3,1,0,0,rectangle,2,3,1,0,0,2,3,1,0,0,1,102,262,157,1,,,,,,,,
,,,,,,,,,,,,,FF,,,,,,,,1.234,,,,,,,,,,,,,,,,,,,,,,60fe0d742728a7c4f364d357,610375171fa4f9a1ea28ba7f,2021-07-29_23h58.07.506,Simcolourproject_2stim_asymm_v5,2020.2.10,Win32,60,61025ae37ef11b136ea224fe,,,,,,,,,1763,49,-114,1,0,0,response3disk,,4,-10,8,1,0,0,rectangle,-10,8,1,0,0,-10,8,1,0,0,1,103,263,49,1,,,,,,,,
,,,,,,,,,,,,,FF,,,,,,,,1.4,,,,,,,,,,,,,,,,,,,,,,60fe0d742728a7c4f364d357,610375171fa4f9a1ea28ba7f,2021-07-29_23h58.07.506,Simcolourproject_2stim_asymm_v5,2020.2.10,Win32,60,61025ae37ef11b136ea224fe,,,,,,,,,2828,112,-49,1,0,0,response3disk,,5,-8,8,1,0,0,rectangle,-8,8,1,0,0,-8,8,1,0,0,1,104,264,104,1,,,,,,,,
,,,,,,,,,,,,,FF,,,,,,,,0.883,,,,,,,,,,,,,,,,,,,,,,60fe0d742728a7c4f364d357,610375171fa4f9a1ea28ba7f,2021-07-29_23h58.07.506,Simcolourproject_2stim_asymm_v5,2020.2.10,Win32,60,61025ae37ef11b136ea224fe,,,,,,,,,2973,112,43,1,0,0,response1disk,,6,-3,-4,1,0,0,rectangle,-3,-4,1,0,0,-3,-4,1,0,0,1,105,265,122,1,,,,,,,,
,,,,,,,,,,,,,FF,,,,,,,,1.051,,,,,,,,,,,,,,,,,,,,,,60fe0d742728a7c4f364d357,610375171fa4f9a1ea28ba7f,2021-07-29_23h58.07.506,Simcolourproject_2stim_asymm_v5,2020.2.10,Win32,60,61025ae37ef11b136ea224fe,,,,,,,,,783,122,-37,1,0,0,response3disk,,5,5,13,1,0,0,rectangle,5,13,1,0,0,5,13,1,0,0,1,106,266,51,1,,,,,,,,
,,,,,,,,,,,,,FF,,,,,,,,1.201,,,,,,,,,,,,,,,,,,,,,,60fe0d742728a7c4f364d357,610375171fa4f9a1ea28ba7f,2021-07-29_23h58.07.506,Simcolourproject_2stim_asymm_v5,2020.2.10,Win32,60,61025ae37ef11b136ea224fe,,,,,,,,,40,129,55,1,0,0,response1disk,,6,-3,3,1,0,0,rectangle,-3,3,1,0,0,-3,3,1,0,0,1,107,267,73,1,,,,,,,,
,,,,,,,,,,,,,FF,,,,,,,,1.651,,,,,,,,,,,,,,,,,,,,,,60fe0d742728a7c4f364d357,610375171fa4f9a1ea28ba7f,2021-07-29_23h58.07.506,Simcolourproject_2stim_asymm_v5,2020.2.10,Win32,60,61025ae37ef11b136ea224fe,,,,,,,,,2621,52,-134,1,0,0,response3disk,,4,-10,-10,1,0,0,rectangle,-10,-10,1,0,0,-10,-10,1,0,0,1,108,268,58,1,,,,,,,,
,,,,,,,,,,,,,FF,,,,,,,,2.5,,,,,,,,,,,,,,,,,,,,,,60fe0d742728a7c4f364d357,610375171fa4f9a1ea28ba7f,2021-07-29_23h58.07.506,Simcolourproject_2stim_asymm_v5,2020.2.10,Win32,60,61025ae37ef11b136ea224fe,,,,,,,,,2143,127,-59,1,0,0,response3disk,,5,-10,-7,1,0,0,rectangle,-10,-7,1,0,0,-10,-7,1,0,0,1,109,269,116,1,,,,,,,,
,,,,,,,,,,,,,FF,,,,,,,,2.084,,,,,,,,,,,,,,,,,,,,,,60fe0d742728a7c4f364d357,610375171fa4f9a1ea28ba7f,2021-07-29_23h58.07.506,Simcolourproject_2stim_asymm_v5,2020.2.10,Win32,60,61025ae37ef11b136ea224fe,,,,,,,,,2098,-143,-45,1,0,0,response5disk,,2,7,8,1,0,0,rectangle,7,8,1,0,0,7,8,1,0,0,1,110,270,135,1,,,,,,,,
,,,,,,,,,,,,,FF,,,,,,,,0.783,,,,,,,,,,,,,,,,,,,,,,60fe0d742728a7c4f364d357,610375171fa4f9a1ea28ba7f,2021-07-29_23h58.07.506,Simcolourproject_2stim_asymm_v5,2020.2.10,Win32,60,61025ae37ef11b136ea224fe,,,,,,,,,1806,87,113,1,0,0,response1disk,,7,-20,16,1,0,0,rectangle,-20,16,1,0,0,-20,16,1,0,0,1,111,271,42,1,,,,,,,,
,,,,,,,,,,,,,FF,,,,,,,,1.6,,,,,,,,,,,,,,,,,,,,,,60fe0d742728a7c4f364d357,610375171fa4f9a1ea28ba7f,2021-07-29_23h58.07.506,Simcolourproject_2stim_asymm_v5,2020.2.10,Win32,60,61025ae37ef11b136ea224fe,,,,,,,,,4088,-43,-129,1,0,0,response5disk,,3,-6,18,1,0,0,rectangle,-6,18,1,0,0,-6,18,1,0,0,1,112,272,75,1,,,,,,,,
,,,,,,,,,,,,,FF,,,,,,,,2.1,,,,,,,,,,,,,,,,,,,,,,60fe0d742728a7c4f364d357,610375171fa4f9a1ea28ba7f,2021-07-29_23h58.07.506,Simcolourproject_2stim_asymm_v5,2020.2.10,Win32,60,61025ae37ef11b136ea224fe,,,,,,,,,131,50,-120,1,0,0,response3disk,,4,-8,0,1,0,0,rectangle,-8,0,1,0,0,-8,0,1,0,0,1,113,273,47,1,,,,,,,,
,,,,,,,,,,,,,FF,,,,,,,,1.75,,,,,,,,,,,,,,,,,,,,,,60fe0d742728a7c4f364d357,610375171fa4f9a1ea28ba7f,2021-07-29_23h58.07.506,Simcolourproject_2stim_asymm_v5,2020.2.10,Win32,60,61025ae37ef11b136ea224fe,,,,,,,,,3637,-66,-117,1,0,0,response5disk,,3,-3,-7,1,0,0,rectangle,-3,-7,1,0,0,-3,-7,1,0,0,1,114,274,85,1,,,,,,,,
,,,,,,,,,,,,,FF,,,,,,,,1.651,,,,,,,,,,,,,,,,,,,,,,60fe0d742728a7c4f364d357,610375171fa4f9a1ea28ba7f,2021-07-29_23h58.07.506,Simcolourproject_2stim_asymm_v5,2020.2.10,Win32,60,61025ae37ef11b136ea224fe,,,,,,,,,2452,122,-69,1,0,0,response3disk,,5,5,-2,1,0,0,rectangle,5,-2,1,0,0,5,-2,1,0,0,1,115,275,21,1,,,,,,,,
,,,,,,,,,,,,,FF,,,,,,,,3.267,,,,,,,,,,,,,,,,,,,,,,60fe0d742728a7c4f364d357,610375171fa4f9a1ea28ba7f,2021-07-29_23h58.07.506,Simcolourproject_2stim_asymm_v5,2020.2.10,Win32,60,61025ae37ef11b136ea224fe,,,,,,,,,1217,-70,-127,1,0,0,response5disk,,3,14,15,1,0,0,rectangle,14,15,1,0,0,14,15,1,0,0,1,116,276,94,1,,,,,,,,
,,,,,,,,,,,,,FF,,,,,,,,1.7,,,,,,,,,,,,,,,,,,,,,,60fe0d742728a7c4f364d357,610375171fa4f9a1ea28ba7f,2021-07-29_23h58.07.506,Simcolourproject_2stim_asymm_v5,2020.2.10,Win32,60,61025ae37ef11b136ea224fe,,,,,,,,,2023,134,60,1,0,0,response1disk,,6,20,-4,1,0,0,rectangle,20,-4,1,0,0,20,-4,1,0,0,1,117,277,30,1,,,,,,,,
,,,,,,,,,,,,,FF,,,,,,,,1.749,,,,,,,,,,,,,,,,,,,,,,60fe0d742728a7c4f364d357,610375171fa4f9a1ea28ba7f,2021-07-29_23h58.07.506,Simcolourproject_2stim_asymm_v5,2020.2.10,Win32,60,61025ae37ef11b136ea224fe,,,,,,,,,1408,69,-122,1,0,0,response3disk,,4,-3,10,1,0,0,rectangle,-3,10,1,0,0,-3,10,1,0,0,1,118,278,134,1,,,,,,,,
,,,,,,,,,,,,,FF,,,,,,,,1.867,,,,,,,,,,,,,,,,,,,,,,60fe0d742728a7c4f364d357,610375171fa4f9a1ea28ba7f,2021-07-29_23h58.07.506,Simcolourproject_2stim_asymm_v5,2020.2.10,Win32,60,61025ae37ef11b136ea224fe,,,,,,,,,2361,-113,-72,1,0,0,response5disk,,2,12,8,1,0,0,rectangle,12,8,1,0,0,12,8,1,0,0,1,119,279,95,1,,,,,,,,
,,,,,,,,,,,,,FF,,,,,,,,0.85,,,,,,,,,,,,,,,,,,,,,,60fe0d742728a7c4f364d357,610375171fa4f9a1ea28ba7f,2021-07-29_23h58.07.506,Simcolourproject_2stim_asymm_v5,2020.2.10,Win32,60,61025ae37ef11b136ea224fe,,,,,,,,,1938,109,-59,1,0,0,response3disk,,5,2,3,1,0,0,rectangle,2,3,1,0,0,2,3,1,0,0,1,120,280,115,1,,,,,,,,
,,,,,,,,,,,,,FF,,,,,,,,1.318,,,,,,,,,,,,,,,,,,,,,,60fe0d742728a7c4f364d357,610375171fa4f9a1ea28ba7f,2021-07-29_23h58.07.506,Simcolourproject_2stim_asymm_v5,2020.2.10,Win32,60,61025ae37ef11b136ea224fe,,,,,,,,,1807,57,-97,1,0,0,response3disk,,4,2,-2,1,0,0,rectangle,2,-2,1,0,0,2,-2,1,0,0,1,121,281,34,1,,,,,,,,
,,,,,,,,,,,,,FF,,,,,,,,1.551,,,,,,,,,,,,,,,,,,,,,,60fe0d742728a7c4f364d357,610375171fa4f9a1ea28ba7f,2021-07-29_23h58.07.506,Simcolourproject_2stim_asymm_v5,2020.2.10,Win32,60,61025ae37ef11b136ea224fe,,,,,,,,,268,127,43,1,0,0,response1disk,,6,5,1,1,0,0,rectangle,5,1,1,0,0,5,1,1,0,0,1,122,282,1,1,,,,,,,,
,,,,,,,,,,,,,FF,,,,,,,,1.067,,,,,,,,,,,,,,,,,,,,,,60fe0d742728a7c4f364d357,610375171fa4f9a1ea28ba7f,2021-07-29_23h58.07.506,Simcolourproject_2stim_asymm_v5,2020.2.10,Win32,60,61025ae37ef11b136ea224fe,,,,,,,,,327,129,-57,1,0,0,response3disk,,5,0,-17,1,0,0,rectangle,0,-17,1,0,0,0,-17,1,0,0,1,123,283,63,1,,,,,,,,
,,,,,,,,,,,,,FF,,,,,,,,1.334,,,,,,,,,,,,,,,,,,,,,,60fe0d742728a7c4f364d357,610375171fa4f9a1ea28ba7f,2021-07-29_23h58.07.506,Simcolourproject_2stim_asymm_v5,2020.2.10,Win32,60,61025ae37ef11b136ea224fe,,,,,,,,,554,124,-57,1,0,0,response3disk,,5,-8,-2,1,0,0,rectangle,-8,-2,1,0,0,-8,-2,1,0,0,1,124,284,87,1,,,,,,,,
,,,,,,,,,,,,,FF,,,,,,,,2.101,,,,,,,,,,,,,,,,,,,,,,60fe0d742728a7c4f364d357,610375171fa4f9a1ea28ba7f,2021-07-29_23h58.07.506,Simcolourproject_2stim_asymm_v5,2020.2.10,Win32,60,61025ae37ef11b136ea224fe,,,,,,,,,3086,142,53,1,0,0,response1disk,,6,-8,-9,1,0,0,rectangle,-8,-9,1,0,0,-8,-9,1,0,0,1,125,285,77,1,,,,,,,,
,,,,,,,,,,,,,FF,,,,,,,,1.616,,,,,,,,,,,,,,,,,,,,,,60fe0d742728a7c4f364d357,610375171fa4f9a1ea28ba7f,2021-07-29_23h58.07.506,Simcolourproject_2stim_asymm_v5,2020.2.10,Win32,60,61025ae37ef11b136ea224fe,,,,,,,,,108,114,-59,1,0,0,response3disk,,5,5,-5,1,0,0,rectangle,5,-5,1,0,0,5,-5,1,0,0,1,126,286,25,1,,,,,,,,
,,,,,,,,,,,,,FF,,,,,,,,0.85,,,,,,,,,,,,,,,,,,,,,,60fe0d742728a7c4f364d357,610375171fa4f9a1ea28ba7f,2021-07-29_23h58.07.506,Simcolourproject_2stim_asymm_v5,2020.2.10,Win32,60,61025ae37ef11b136ea224fe,,,,,,,,,3501,62,143,1,0,0,response1disk,,7,20,-2,1,0,0,rectangle,20,-2,1,0,0,20,-2,1,0,0,1,127,287,88,1,,,,,,,,
,,,,,,,,,,,,,FF,,,,,,,,2.984,,,,,,,,,,,,,,,,,,,,,,60fe0d742728a7c4f364d357,610375171fa4f9a1ea28ba7f,2021-07-29_23h58.07.506,Simcolourproject_2stim_asymm_v5,2020.2.10,Win32,60,61025ae37ef11b136ea224fe,,,,,,,,,2472,72,-124,1,0,0,response3disk,,4,-3,8,1,0,0,rectangle,-3,8,1,0,0,-3,8,1,0,0,1,128,288,150,1,,,,,,,,
,,,,,,,,,,,,,FF,,,,,,,,1.75,,,,,,,,,,,,,,,,,,,,,,60fe0d742728a7c4f364d357,610375171fa4f9a1ea28ba7f,2021-07-29_23h58.07.506,Simcolourproject_2stim_asymm_v5,2020.2.10,Win32,60,61025ae37ef11b136ea224fe,,,,,,,,,1598,-50,-139,1,0,0,response5disk,,3,2,0,1,0,0,rectangle,2,0,1,0,0,2,0,1,0,0,1,129,289,92,1,,,,,,,,
,,,,,,,,,,,,,FF,,,,,,,,2.134,,,,,,,,,,,,,,,,,,,,,,60fe0d742728a7c4f364d357,610375171fa4f9a1ea28ba7f,2021-07-29_23h58.07.506,Simcolourproject_2stim_asymm_v5,2020.2.10,Win32,60,61025ae37ef11b136ea224fe,,,,,,,,,4102,-130,-72,1,0,0,response5disk,,2,-28,0,1,0,0,rectangle,-28,0,1,0,0,-28,0,1,0,0,1,130,290,44,1,,,,,,,,
,,,,,,,,,,,,,FF,,,,,,,,0.8,,,,,,,,,,,,,,,,,,,,,,60fe0d742728a7c4f364d357,610375171fa4f9a1ea28ba7f,2021-07-29_23h58.07.506,Simcolourproject_2stim_asymm_v5,2020.2.10,Win32,60,61025ae37ef11b136ea224fe,,,,,,,,,3568,124,-45,1,0,0,response3disk,,5,-18,0,1,0,0,rectangle,-18,0,1,0,0,-18,0,1,0,0,1,131,291,57,1,,,,,,,,
,,,,,,,,,,,,,FF,,,,,,,,2.968,,,,,,,,,,,,,,,,,,,,,,60fe0d742728a7c4f364d357,610375171fa4f9a1ea28ba7f,2021-07-29_23h58.07.506,Simcolourproject_2stim_asymm_v5,2020.2.10,Win32,60,61025ae37ef11b136ea224fe,,,,,,,,,271,72,-114,1,0,0,response3disk,,4,5,-20,1,0,0,rectangle,5,-20,1,0,0,5,-20,1,0,0,1,132,292,108,1,,,,,,,,
,,,,,,,,,,,,,FF,,,,,,,,0.966,,,,,,,,,,,,,,,,,,,,,,60fe0d742728a7c4f364d357,610375171fa4f9a1ea28ba7f,2021-07-29_23h58.07.506,Simcolourproject_2stim_asymm_v5,2020.2.10,Win32,60,61025ae37ef11b136ea224fe,,,,,,,,,3190,-75,-129,1,0,0,response5disk,,3,14,5,1,0,0,rectangle,14,5,1,0,0,14,5,1,0,0,1,133,293,156,1,,,,,,,,
,,,,,,,,,,,,,FF,,,,,,,,1.234,,,,,,,,,,,,,,,,,,,,,,60fe0d742728a7c4f364d357,610375171fa4f9a1ea28ba7f,2021-07-29_23h58.07.506,Simcolourproject_2stim_asymm_v5,2020.2.10,Win32,60,61025ae37ef11b136ea224fe,,,,,,,,,3982,42,-122,1,0,0,response3disk,,4,2,-5,1,0,0,rectangle,2,-5,1,0,0,2,-5,1,0,0,1,134,294,138,1,,,,,,,,
,,,,,,,,,,,,,FF,,,,,,,,2.066,,,,,,,,,,,,,,,,,,,,,,60fe0d742728a7c4f364d357,610375171fa4f9a1ea28ba7f,2021-07-29_23h58.07.506,Simcolourproject_2stim_asymm_v5,2020.2.10,Win32,60,61025ae37ef11b136ea224fe,,,,,,,,,3705,-73,130,1,0,0,response7disk,,0,-3,-7,1,0,0,rectangle,-3,-7,1,0,0,-3,-7,1,0,0,1,135,295,22,1,,,,,,,,
,,,,,,,,,,,,,FF,,,,,,,,2.85,,,,,,,,,,,,,,,,,,,,,,60fe0d742728a7c4f364d357,610375171fa4f9a1ea28ba7f,2021-07-29_23h58.07.506,Simcolourproject_2stim_asymm_v5,2020.2.10,Win32,60,61025ae37ef11b136ea224fe,,,,,,,,,3958,142,53,1,0,0,response1disk,,6,22,18,1,0,0,rectangle,22,18,1,0,0,22,18,1,0,0,1,136,296,126,1,,,,,,,,
,,,,,,,,,,,,,FF,,,,,,,,6.116,,,,,,,,,,,,,,,,,,,,,,60fe0d742728a7c4f364d357,610375171fa4f9a1ea28ba7f,2021-07-29_23h58.07.506,Simcolourproject_2stim_asymm_v5,2020.2.10,Win32,60,61025ae37ef11b136ea224fe,,,,,,,,,2323,52,-134,1,0,0,response3disk,,4,20,5,1,0,0,rectangle,20,5,1,0,0,20,5,1,0,0,1,137,297,54,1,,,,,,,,
,,,,,,,,,,,,,FF,,,,,,,,1.85,,,,,,,,,,,,,,,,,,,,,,60fe0d742728a7c4f364d357,610375171fa4f9a1ea28ba7f,2021-07-29_23h58.07.506,Simcolourproject_2stim_asymm_v5,2020.2.10,Win32,60,61025ae37ef11b136ea224fe,,,,,,,,,1972,74,-137,1,0,0,response3disk,,4,15,-5,1,0,0,rectangle,15,-5,1,0,0,15,-5,1,0,0,1,138,298,99,1,,,,,,,,
,,,,,,,,,,,,,FF,,,,,,,,0.783,,,,,,,,,,,,,,,,,,,,,,60fe0d742728a7c4f364d357,610375171fa4f9a1ea28ba7f,2021-07-29_23h58.07.506,Simcolourproject_2stim_asymm_v5,2020.2.10,Win32,60,61025ae37ef11b136ea224fe,,,,,,,,,2453,139,-65,1,0,0,response3disk,,5,-5,3,1,0,0,rectangle,-5,3,1,0,0,-5,3,1,0,0,1,139,299,26,1,,,,,,,,
,,,,,,,,,,,,,FF,,,,,,,,1,,,,,,,,,,,,,,,,,,,,,,60fe0d742728a7c4f364d357,610375171fa4f9a1ea28ba7f,2021-07-29_23h58.07.506,Simcolourproject_2stim_asymm_v5,2020.2.10,Win32,60,61025ae37ef11b136ea224fe,,,,,,,,,3680,132,-49,1,0,0,response3disk,,5,-5,3,1,0,0,rectangle,-5,3,1,0,0,-5,3,1,0,0,1,140,300,55,1,,,,,,,,
,,,,,,,,,,,,,FF,,,,,,,,1.068,,,,,,,,,,,,,,,,,,,,,,60fe0d742728a7c4f364d357,610375171fa4f9a1ea28ba7f,2021-07-29_23h58.07.506,Simcolourproject_2stim_asymm_v5,2020.2.10,Win32,60,61025ae37ef11b136ea224fe,,,,,,,,,1922,117,-39,1,0,0,response3disk,,5,-5,0,1,0,0,rectangle,-5,0,1,0,0,-5,0,1,0,0,1,141,301,36,1,,,,,,,,
