key_resp.keys,key_resp.rt,key_resp_14.keys,key_resp_14.rt,key_resp_15.keys,key_resp_15.rt,key_resp_17.keys,key_resp_17.rt,key_resp_9.keys,key_resp_9.rt,key_resp_10.keys,key_resp_10.rt,practice_comparison,Ecc,mouse_5.x,mouse_5.y,mouse_5.leftButton,mouse_5.midButton,mouse_5.rightButton,mouse_5.clicked_name,pracsimilarity,response_time,mouse_10.x,mouse_10.y,mouse_10.leftButton,mouse_10.midButton,mouse_10.rightButton,mouse_10.clicked_name,mouse_7.x,mouse_7.y,mouse_7.leftButton,mouse_7.midButton,mouse_7.rightButton,mouse_6.x,mouse_6.y,mouse_6.leftButton,mouse_6.midButton,mouse_6.rightButton,duringprac.thisRepN,duringprac.thisTrialN,duringprac.thisN,duringprac.thisIndex,duringprac.ran,participant,session,date,expName,psychopyVersion,OS,frameRate,study_id,mouse_7.clicked_name,catchpracsimilarity,catch_response_time,catchnumberprac,catchtrialorderprac,mouse_6.clicked_name,key_resp_22.keys,key_resp_22.rt,realcomparison,mouse.x,mouse.y,mouse.leftButton,mouse.midButton,mouse.rightButton,mouse.clicked_name,Colour2,similarity,mouse_2.x,mouse_2.y,mouse_2.leftButton,mouse_2.midButton,mouse_2.rightButton,mouse_2.clicked_name,mouse_3.x,mouse_3.y,mouse_3.leftButton,mouse_3.midButton,mouse_3.rightButton,mouse_3.clicked_name,catchornah,catchsimilarity,catchnumber,catchtrialorder,catchRT,mouse_11.x,mouse_11.y,mouse_11.leftButton,mouse_11.midButton,mouse_11.rightButton,mouse_11.clicked_name,trials_2.thisRepN,trials_2.thisTrialN,trials_2.thisN,trials_2.thisIndex,trials_2.ran,Colour1
space,8.167765,space,1.479515,space,19.47101,space,6.54957,space,1.338825,space,3.316825,121,FF,-30.62109375,-96.9453125,1,0,0,response5disk_5,3,7.702825,8.015625,-2.90625,1,0,0,rectangle_8,8.015625,-2.90625,1,0,0,8.015625,-2.90625,1,0,0,0,0,0,3,1,60fe258a910eeef6399a574d,61036fef11bc5a6b8b2646ca,2021-07-29_22h24.18.857,Simcolourproject_2stim_asymm_v5,2020.2.10,MacIntel,60,61025ae37ef11b136ea224fe,,,,,,,,,,,,,,,,,,,,,,,,,,,,,,,,,,,,,,,,,,,,,,
,,,,,,,,,,,,84,PF,96.98046875,31.39453125,1,0,0,response1disk_5,6,1.398385,5.88671875,-6.99609375,1,0,0,rectangle_8,-83.64453125,42.07421875,1,0,0,3.8671875,-2.9609375,1,0,0,0,1,1,4,1,60fe258a910eeef6399a574d,61036fef11bc5a6b8b2646ca,2021-07-29_22h24.18.857,Simcolourproject_2stim_asymm_v5,2020.2.10,MacIntel,60,61025ae37ef11b136ea224fe,response7disk_7,1,2.27295,1,"[2,5]",rectangle_4,,,,,,,,,,,,,,,,,,,,,,,,,,,,,,,,,,,,,,,,
,,,,,,,,,,,,73,PF,79.23046875,-96.7421875,1,0,0,response3disk_5,4,1.58307,4.09375,0,1,0,0,rectangle_8,4.09375,0,1,0,0,4.09375,0,1,0,0,0,2,2,1,1,60fe258a910eeef6399a574d,61036fef11bc5a6b8b2646ca,2021-07-29_22h24.18.857,Simcolourproject_2stim_asymm_v5,2020.2.10,MacIntel,60,61025ae37ef11b136ea224fe,,,,,,,,,,,,,,,,,,,,,,,,,,,,,,,,,,,,,,,,,,,,,,
,,,,,,,,,,,,146,FF,-76.8828125,37.00390625,1,0,0,response7disk_5,1,1.516055,2.32421875,-0.109375,1,0,0,rectangle_8,2.32421875,-0.109375,1,0,0,2.32421875,-0.109375,1,0,0,0,3,3,0,1,60fe258a910eeef6399a574d,61036fef11bc5a6b8b2646ca,2021-07-29_22h24.18.857,Simcolourproject_2stim_asymm_v5,2020.2.10,MacIntel,60,61025ae37ef11b136ea224fe,,,,,,,,,,,,,,,,,,,,,,,,,,,,,,,,,,,,,,,,,,,,,,
,,,,,,,,,,,,72,PF,82.01953125,45.2734375,1,0,0,response1disk_5,6,1.034175,-0.27734375,-3.765625,1,0,0,rectangle_8,-69.59375,36.4609375,1,0,0,6.58984375,-1.84375,1,0,0,0,4,4,2,1,60fe258a910eeef6399a574d,61036fef11bc5a6b8b2646ca,2021-07-29_22h24.18.857,Simcolourproject_2stim_asymm_v5,2020.2.10,MacIntel,60,61025ae37ef11b136ea224fe,response7disk_7,1,1.76745,1,"[2,5]",rectangle_4,,,,,,,,,,,,,,,,,,,,,,,,,,,,,,,,,,,,,,,,
,,,,,,,,,,,,15,FF,45.80859375,90.8203125,1,0,0,response1disk_5,7,1.05015,-6.6171875,-6.0390625,1,0,0,rectangle_8,-6.6171875,-6.0390625,1,0,0,-6.6171875,-6.0390625,1,0,0,0,5,5,5,1,60fe258a910eeef6399a574d,61036fef11bc5a6b8b2646ca,2021-07-29_22h24.18.857,Simcolourproject_2stim_asymm_v5,2020.2.10,MacIntel,60,61025ae37ef11b136ea224fe,,,,,,,,,,,,,,,,,,,,,,,,,,,,,,,,,,,,,,,,,,,,,,
,,,,,,,,,,,,123,PF,-41.88671875,-82.6015625,1,0,0,response5disk_5,3,1.632875,1.9921875,2.86328125,1,0,0,rectangle_8,1.9921875,2.86328125,1,0,0,1.9921875,2.86328125,1,0,0,0,6,6,6,1,60fe258a910eeef6399a574d,61036fef11bc5a6b8b2646ca,2021-07-29_22h24.18.857,Simcolourproject_2stim_asymm_v5,2020.2.10,MacIntel,60,61025ae37ef11b136ea224fe,,,,,,,,,,,,,,,,,,,,,,,,,,,,,,,,,,,,,,,,,,,,,,
,,,,,,,,,,,,,FF,,,,,,,,0.880995,,,,,,,,,,,,,,,,,,,,,,60fe258a910eeef6399a574d,61036fef11bc5a6b8b2646ca,2021-07-29_22h24.18.857,Simcolourproject_2stim_asymm_v5,2020.2.10,MacIntel,60,61025ae37ef11b136ea224fe,,,,,,,space,2.670085,2204,96.03515625,36.30078125,1,0,0,response1disk,,6,2.5625,-1.3203125,1,0,0,rectangle,98.421875,-50.49609375,1,0,0,response3disk_3,TRUE,5,5,"[178,186,150,192,61,256,121,85,123,230,236,195,171,201,1,170,37,16,306,144]",1.78411,-1.08984375,-5.5078125,1,0,0,rectangle,0,0,0,89,1,
,,,,,,,,,,,,,FF,,,,,,,,2.883285,,,,,,,,,,,,,,,,,,,,,,60fe258a910eeef6399a574d,61036fef11bc5a6b8b2646ca,2021-07-29_22h24.18.857,Simcolourproject_2stim_asymm_v5,2020.2.10,MacIntel,60,61025ae37ef11b136ea224fe,,,,,,,,,1937,93,-50.29296875,1,0,0,response3disk,,5,-0.71484375,-7.57421875,1,0,0,rectangle,-0.71484375,-7.57421875,1,0,0,,,,,,,-0.71484375,-7.57421875,1,0,0,,0,1,1,35,1,
,,,,,,,,,,,,,FF,,,,,,,,0.818355,,,,,,,,,,,,,,,,,,,,,,60fe258a910eeef6399a574d,61036fef11bc5a6b8b2646ca,2021-07-29_22h24.18.857,Simcolourproject_2stim_asymm_v5,2020.2.10,MacIntel,60,61025ae37ef11b136ea224fe,,,,,,,,,3129,125.3554688,59.80078125,1,0,0,response1disk,,6,5.8046875,-3.89453125,1,0,0,rectangle,5.8046875,-3.89453125,1,0,0,,,,,,,5.8046875,-3.89453125,1,0,0,,0,2,2,115,1,
,,,,,,,,,,,,,FF,,,,,,,,1.21504,,,,,,,,,,,,,,,,,,,,,,60fe258a910eeef6399a574d,61036fef11bc5a6b8b2646ca,2021-07-29_22h24.18.857,Simcolourproject_2stim_asymm_v5,2020.2.10,MacIntel,60,61025ae37ef11b136ea224fe,,,,,,,,,585,73.72265625,24.4140625,1,0,0,response1disk,,6,5.19921875,3.53515625,1,0,0,rectangle,5.19921875,3.53515625,1,0,0,,,,,,,5.19921875,3.53515625,1,0,0,,0,3,3,121,1,
,,,,,,,,,,,,,FF,,,,,,,,1.550655,,,,,,,,,,,,,,,,,,,,,,60fe258a910eeef6399a574d,61036fef11bc5a6b8b2646ca,2021-07-29_22h24.18.857,Simcolourproject_2stim_asymm_v5,2020.2.10,MacIntel,60,61025ae37ef11b136ea224fe,,,,,,,,,125,41.7734375,73.6484375,1,0,0,response1disk,,7,0.30078125,-2.52734375,1,0,0,rectangle,0.30078125,-2.52734375,1,0,0,,,,,,,0.30078125,-2.52734375,1,0,0,,0,4,4,62,1,
,,,,,,,,,,,,,FF,,,,,,,,1.53335,,,,,,,,,,,,,,,,,,,,,,60fe258a910eeef6399a574d,61036fef11bc5a6b8b2646ca,2021-07-29_22h24.18.857,Simcolourproject_2stim_asymm_v5,2020.2.10,MacIntel,60,61025ae37ef11b136ea224fe,,,,,,,,,3095,35.52734375,-100.6328125,1,0,0,response3disk,,4,-3.84765625,13.90625,1,0,0,rectangle,-3.84765625,13.90625,1,0,0,,,,,,,-3.84765625,13.90625,1,0,0,,0,5,5,18,1,
,,,,,,,,,,,,,FF,,,,,,,,0.801615,,,,,,,,,,,,,,,,,,,,,,60fe258a910eeef6399a574d,61036fef11bc5a6b8b2646ca,2021-07-29_22h24.18.857,Simcolourproject_2stim_asymm_v5,2020.2.10,MacIntel,60,61025ae37ef11b136ea224fe,,,,,,,,,993,83.83203125,-35.765625,1,0,0,response3disk,,5,8.1171875,2.2734375,1,0,0,rectangle,8.1171875,2.2734375,1,0,0,,,,,,,8.1171875,2.2734375,1,0,0,,0,6,6,32,1,
,,,,,,,,,,,,,FF,,,,,,,,1.367325,,,,,,,,,,,,,,,,,,,,,,60fe258a910eeef6399a574d,61036fef11bc5a6b8b2646ca,2021-07-29_22h24.18.857,Simcolourproject_2stim_asymm_v5,2020.2.10,MacIntel,60,61025ae37ef11b136ea224fe,,,,,,,,,831,45.41015625,-112.078125,1,0,0,response3disk,,4,-1.3359375,-9.62109375,1,0,0,rectangle,-1.3359375,-9.62109375,1,0,0,,,,,,,-1.3359375,-9.62109375,1,0,0,,0,7,7,136,1,
,,,,,,,,,,,,,FF,,,,,,,,0.967595,,,,,,,,,,,,,,,,,,,,,,60fe258a910eeef6399a574d,61036fef11bc5a6b8b2646ca,2021-07-29_22h24.18.857,Simcolourproject_2stim_asymm_v5,2020.2.10,MacIntel,60,61025ae37ef11b136ea224fe,,,,,,,,,3551,-74.51171875,33.9140625,1,0,0,response7disk,,1,8.30078125,3.20703125,1,0,0,rectangle,8.30078125,3.20703125,1,0,0,,,,,,,8.30078125,3.20703125,1,0,0,,0,8,8,105,1,
,,,,,,,,,,,,,FF,,,,,,,,2.066,,,,,,,,,,,,,,,,,,,,,,60fe258a910eeef6399a574d,61036fef11bc5a6b8b2646ca,2021-07-29_22h24.18.857,Simcolourproject_2stim_asymm_v5,2020.2.10,MacIntel,60,61025ae37ef11b136ea224fe,,,,,,,,,1910,62.01171875,-91.6015625,1,0,0,response3disk,,4,-3.87109375,0.1015625,1,0,0,rectangle,-3.87109375,0.1015625,1,0,0,,,,,,,-3.87109375,0.1015625,1,0,0,,0,9,9,70,1,
,,,,,,,,,,,,,FF,,,,,,,,1.634205,,,,,,,,,,,,,,,,,,,,,,60fe258a910eeef6399a574d,61036fef11bc5a6b8b2646ca,2021-07-29_22h24.18.857,Simcolourproject_2stim_asymm_v5,2020.2.10,MacIntel,60,61025ae37ef11b136ea224fe,,,,,,,,,3439,-77.703125,-55.5390625,1,0,0,response5disk,,2,2.953125,-4.73828125,1,0,0,rectangle,2.953125,-4.73828125,1,0,0,,,,,,,2.953125,-4.73828125,1,0,0,,0,10,10,42,1,
,,,,,,,,,,,,,FF,,,,,,,,2.200035,,,,,,,,,,,,,,,,,,,,,,60fe258a910eeef6399a574d,61036fef11bc5a6b8b2646ca,2021-07-29_22h24.18.857,Simcolourproject_2stim_asymm_v5,2020.2.10,MacIntel,60,61025ae37ef11b136ea224fe,,,,,,,,,1214,-44.58203125,-87.69921875,1,0,0,response5disk,,3,-8.41796875,6.5078125,1,0,0,rectangle,-8.41796875,6.5078125,1,0,0,,,,,,,-8.41796875,6.5078125,1,0,0,,0,11,11,55,1,
,,,,,,,,,,,,,FF,,,,,,,,0.86695,,,,,,,,,,,,,,,,,,,,,,60fe258a910eeef6399a574d,61036fef11bc5a6b8b2646ca,2021-07-29_22h24.18.857,Simcolourproject_2stim_asymm_v5,2020.2.10,MacIntel,60,61025ae37ef11b136ea224fe,,,,,,,,,3889,39.8203125,-90.08203125,1,0,0,response3disk,,4,1.52734375,-0.3046875,1,0,0,rectangle,1.52734375,-0.3046875,1,0,0,,,,,,,1.52734375,-0.3046875,1,0,0,,0,12,12,87,1,
,,,,,,,,,,,,,FF,,,,,,,,1.082945,,,,,,,,,,,,,,,,,,,,,,60fe258a910eeef6399a574d,61036fef11bc5a6b8b2646ca,2021-07-29_22h24.18.857,Simcolourproject_2stim_asymm_v5,2020.2.10,MacIntel,60,61025ae37ef11b136ea224fe,,,,,,,,,2864,50.78125,94.35546875,1,0,0,response1disk,,7,4.828125,-8.3203125,1,0,0,rectangle,4.828125,-8.3203125,1,0,0,,,,,,,4.828125,-8.3203125,1,0,0,,0,13,13,64,1,
,,,,,,,,,,,,,FF,,,,,,,,0.883475,,,,,,,,,,,,,,,,,,,,,,60fe258a910eeef6399a574d,61036fef11bc5a6b8b2646ca,2021-07-29_22h24.18.857,Simcolourproject_2stim_asymm_v5,2020.2.10,MacIntel,60,61025ae37ef11b136ea224fe,,,,,,,,,1173,79.234375,-41.10546875,1,0,0,response3disk,,5,10.20703125,-2.66015625,1,0,0,rectangle,10.20703125,-2.66015625,1,0,0,,,,,,,10.20703125,-2.66015625,1,0,0,,0,14,14,97,1,
,,,,,,,,,,,,,FF,,,,,,,,1.068385,,,,,,,,,,,,,,,,,,,,,,60fe258a910eeef6399a574d,61036fef11bc5a6b8b2646ca,2021-07-29_22h24.18.857,Simcolourproject_2stim_asymm_v5,2020.2.10,MacIntel,60,61025ae37ef11b136ea224fe,,,,,,,,,4312,52.13671875,73.4296875,1,0,0,response1disk,,7,6.390625,1.3125,1,0,0,rectangle,38.9765625,-104.7539063,1,0,0,response3disk_3,TRUE,4,4,"[178,186,150,192,61,256,121,85,123,230,236,195,171,201,1,170,37,16,306,144]",1.64825,-1.78515625,2.359375,1,0,0,rectangle,0,15,15,100,1,
,,,,,,,,,,,,,FF,,,,,,,,0.885105,,,,,,,,,,,,,,,,,,,,,,60fe258a910eeef6399a574d,61036fef11bc5a6b8b2646ca,2021-07-29_22h24.18.857,Simcolourproject_2stim_asymm_v5,2020.2.10,MacIntel,60,61025ae37ef11b136ea224fe,,,,,,,,,2505,42.1875,72.421875,1,0,0,response1disk,,7,5.27734375,0.6640625,1,0,0,rectangle,5.27734375,0.6640625,1,0,0,,,,,,,5.27734375,0.6640625,1,0,0,,0,16,16,146,1,
,,,,,,,,,,,,,FF,,,,,,,,1.450305,,,,,,,,,,,,,,,,,,,,,,60fe258a910eeef6399a574d,61036fef11bc5a6b8b2646ca,2021-07-29_22h24.18.857,Simcolourproject_2stim_asymm_v5,2020.2.10,MacIntel,60,61025ae37ef11b136ea224fe,,,,,,,,,3881,-36.82421875,-104.5546875,1,0,0,response5disk,,3,-4.2890625,0.76171875,1,0,0,rectangle,-4.2890625,0.76171875,1,0,0,,,,,,,-4.2890625,0.76171875,1,0,0,,0,17,17,31,1,
,,,,,,,,,,,,,FF,,,,,,,,1.08459,,,,,,,,,,,,,,,,,,,,,,60fe258a910eeef6399a574d,61036fef11bc5a6b8b2646ca,2021-07-29_22h24.18.857,Simcolourproject_2stim_asymm_v5,2020.2.10,MacIntel,60,61025ae37ef11b136ea224fe,,,,,,,,,3607,53.7578125,-82.05859375,1,0,0,response3disk,,4,8.37109375,-3.33203125,1,0,0,rectangle,8.37109375,-3.33203125,1,0,0,,,,,,,8.37109375,-3.33203125,1,0,0,,0,18,18,10,1,
,,,,,,,,,,,,,FF,,,,,,,,1.000525,,,,,,,,,,,,,,,,,,,,,,60fe258a910eeef6399a574d,61036fef11bc5a6b8b2646ca,2021-07-29_22h24.18.857,Simcolourproject_2stim_asymm_v5,2020.2.10,MacIntel,60,61025ae37ef11b136ea224fe,,,,,,,,,3753,-46.9609375,-93.12109375,1,0,0,response5disk,,3,-2.3125,0.265625,1,0,0,rectangle,-2.3125,0.265625,1,0,0,,,,,,,-2.3125,0.265625,1,0,0,,0,19,19,8,1,
,,,,,,,,,,,,,FF,,,,,,,,0.783365,,,,,,,,,,,,,,,,,,,,,,60fe258a910eeef6399a574d,61036fef11bc5a6b8b2646ca,2021-07-29_22h24.18.857,Simcolourproject_2stim_asymm_v5,2020.2.10,MacIntel,60,61025ae37ef11b136ea224fe,,,,,,,,,1956,-75.24609375,46.90625,1,0,0,response7disk,,1,25.5703125,-0.0078125,1,0,0,rectangle,25.5703125,-0.0078125,1,0,0,,,,,,,25.5703125,-0.0078125,1,0,0,,0,20,20,107,1,
,,,,,,,,,,,,,FF,,,,,,,,1.501295,,,,,,,,,,,,,,,,,,,,,,60fe258a910eeef6399a574d,61036fef11bc5a6b8b2646ca,2021-07-29_22h24.18.857,Simcolourproject_2stim_asymm_v5,2020.2.10,MacIntel,60,61025ae37ef11b136ea224fe,,,,,,,,,1245,80.34375,-44.54296875,1,0,0,response3disk,,5,3.5,-6.26171875,1,0,0,rectangle,3.5,-6.26171875,1,0,0,,,,,,,3.5,-6.26171875,1,0,0,,0,21,21,119,1,
,,,,,,,,,,,,,FF,,,,,,,,0.801315,,,,,,,,,,,,,,,,,,,,,,60fe258a910eeef6399a574d,61036fef11bc5a6b8b2646ca,2021-07-29_22h24.18.857,Simcolourproject_2stim_asymm_v5,2020.2.10,MacIntel,60,61025ae37ef11b136ea224fe,,,,,,,,,357,66.32421875,100.7304688,1,0,0,response1disk,,7,0.90234375,1.3671875,1,0,0,rectangle,0.90234375,1.3671875,1,0,0,,,,,,,0.90234375,1.3671875,1,0,0,,0,22,22,16,1,
,,,,,,,,,,,,,FF,,,,,,,,0.85094,,,,,,,,,,,,,,,,,,,,,,60fe258a910eeef6399a574d,61036fef11bc5a6b8b2646ca,2021-07-29_22h24.18.857,Simcolourproject_2stim_asymm_v5,2020.2.10,MacIntel,60,61025ae37ef11b136ea224fe,,,,,,,,,3738,84.6328125,40.421875,1,0,0,response1disk,,6,2.3671875,-3.265625,1,0,0,rectangle,2.3671875,-3.265625,1,0,0,,,,,,,2.3671875,-3.265625,1,0,0,,0,23,23,91,1,
,,,,,,,,,,,,,FF,,,,,,,,1.250535,,,,,,,,,,,,,,,,,,,,,,60fe258a910eeef6399a574d,61036fef11bc5a6b8b2646ca,2021-07-29_22h24.18.857,Simcolourproject_2stim_asymm_v5,2020.2.10,MacIntel,60,61025ae37ef11b136ea224fe,,,,,,,,,710,104.3085938,-29.40625,1,0,0,response3disk,,5,0.18359375,2.7890625,1,0,0,rectangle,0.18359375,2.7890625,1,0,0,,,,,,,0.18359375,2.7890625,1,0,0,,0,24,24,14,1,
,,,,,,,,,,,,,FF,,,,,,,,1.116615,,,,,,,,,,,,,,,,,,,,,,60fe258a910eeef6399a574d,61036fef11bc5a6b8b2646ca,2021-07-29_22h24.18.857,Simcolourproject_2stim_asymm_v5,2020.2.10,MacIntel,60,61025ae37ef11b136ea224fe,,,,,,,,,3820,-46.36328125,-97.86328125,1,0,0,response5disk,,3,-3.46484375,-1.578125,1,0,0,rectangle,-3.46484375,-1.578125,1,0,0,,,,,,,-3.46484375,-1.578125,1,0,0,,0,25,25,41,1,
,,,,,,,,,,,,,FF,,,,,,,,0.79943,,,,,,,,,,,,,,,,,,,,,,60fe258a910eeef6399a574d,61036fef11bc5a6b8b2646ca,2021-07-29_22h24.18.857,Simcolourproject_2stim_asymm_v5,2020.2.10,MacIntel,60,61025ae37ef11b136ea224fe,,,,,,,,,2237,-83.44140625,-44.71484375,1,0,0,response5disk,,2,-5.21875,3.53125,1,0,0,rectangle,-5.21875,3.53125,1,0,0,,,,,,,-5.21875,3.53125,1,0,0,,0,26,26,108,1,
,,,,,,,,,,,,,FF,,,,,,,,1.00028,,,,,,,,,,,,,,,,,,,,,,60fe258a910eeef6399a574d,61036fef11bc5a6b8b2646ca,2021-07-29_22h24.18.857,Simcolourproject_2stim_asymm_v5,2020.2.10,MacIntel,60,61025ae37ef11b136ea224fe,,,,,,,,,771,84.4765625,38.05078125,1,0,0,response1disk,,6,-3.2265625,2.3984375,1,0,0,rectangle,-3.2265625,2.3984375,1,0,0,,,,,,,-3.2265625,2.3984375,1,0,0,,0,27,27,76,1,
,,,,,,,,,,,,,FF,,,,,,,,1.01661,,,,,,,,,,,,,,,,,,,,,,60fe258a910eeef6399a574d,61036fef11bc5a6b8b2646ca,2021-07-29_22h24.18.857,Simcolourproject_2stim_asymm_v5,2020.2.10,MacIntel,60,61025ae37ef11b136ea224fe,,,,,,,,,2031,-93.31640625,-45.75,1,0,0,response5disk,,2,-10.84765625,-1.296875,1,0,0,rectangle,-10.84765625,-1.296875,1,0,0,,,,,,,-10.84765625,-1.296875,1,0,0,,0,28,28,45,1,
,,,,,,,,,,,,,FF,,,,,,,,1.016225,,,,,,,,,,,,,,,,,,,,,,60fe258a910eeef6399a574d,61036fef11bc5a6b8b2646ca,2021-07-29_22h24.18.857,Simcolourproject_2stim_asymm_v5,2020.2.10,MacIntel,60,61025ae37ef11b136ea224fe,,,,,,,,,2725,-41.54296875,-81.96484375,1,0,0,response5disk,,3,3.140625,4.16796875,1,0,0,rectangle,3.140625,4.16796875,1,0,0,,,,,,,3.140625,4.16796875,1,0,0,,0,29,29,4,1,
,,,,,,,,,,,,,FF,,,,,,,,0.96528,,,,,,,,,,,,,,,,,,,,,,60fe258a910eeef6399a574d,61036fef11bc5a6b8b2646ca,2021-07-29_22h24.18.857,Simcolourproject_2stim_asymm_v5,2020.2.10,MacIntel,60,61025ae37ef11b136ea224fe,,,,,,,,,762,62.72265625,88.12109375,1,0,0,response1disk,,7,0.671875,-3.171875,1,0,0,rectangle,0.671875,-3.171875,1,0,0,,,,,,,0.671875,-3.171875,1,0,0,,0,30,30,140,1,
,,,,,,,,,,,,,FF,,,,,,,,0.816855,,,,,,,,,,,,,,,,,,,,,,60fe258a910eeef6399a574d,61036fef11bc5a6b8b2646ca,2021-07-29_22h24.18.857,Simcolourproject_2stim_asymm_v5,2020.2.10,MacIntel,60,61025ae37ef11b136ea224fe,,,,,,,,,2699,45.02734375,84.6015625,1,0,0,response1disk,,7,0.484375,5.53515625,1,0,0,rectangle,0.484375,5.53515625,1,0,0,,,,,,,0.484375,5.53515625,1,0,0,,0,31,31,6,1,
,,,,,,,,,,,,,FF,,,,,,,,0.85018,,,,,,,,,,,,,,,,,,,,,,60fe258a910eeef6399a574d,61036fef11bc5a6b8b2646ca,2021-07-29_22h24.18.857,Simcolourproject_2stim_asymm_v5,2020.2.10,MacIntel,60,61025ae37ef11b136ea224fe,,,,,,,,,4014,44.44140625,91.171875,1,0,0,response1disk,,7,-1.765625,2.109375,1,0,0,rectangle,-1.765625,2.109375,1,0,0,,,,,,,-1.765625,2.109375,1,0,0,,0,32,32,25,1,
,,,,,,,,,,,,,FF,,,,,,,,0.883235,,,,,,,,,,,,,,,,,,,,,,60fe258a910eeef6399a574d,61036fef11bc5a6b8b2646ca,2021-07-29_22h24.18.857,Simcolourproject_2stim_asymm_v5,2020.2.10,MacIntel,60,61025ae37ef11b136ea224fe,,,,,,,,,863,86.59375,35.98828125,1,0,0,response1disk,,6,2.73828125,5.59765625,1,0,0,rectangle,2.73828125,5.59765625,1,0,0,,,,,,,2.73828125,5.59765625,1,0,0,,0,33,33,58,1,
,,,,,,,,,,,,,FF,,,,,,,,0.931705,,,,,,,,,,,,,,,,,,,,,,60fe258a910eeef6399a574d,61036fef11bc5a6b8b2646ca,2021-07-29_22h24.18.857,Simcolourproject_2stim_asymm_v5,2020.2.10,MacIntel,60,61025ae37ef11b136ea224fe,,,,,,,,,1808,85.6328125,-44.1953125,1,0,0,response3disk,,5,1.8125,0.765625,1,0,0,rectangle,1.8125,0.765625,1,0,0,,,,,,,1.8125,0.765625,1,0,0,,0,34,34,15,1,
,,,,,,,,,,,,,FF,,,,,,,,1.264845,,,,,,,,,,,,,,,,,,,,,,60fe258a910eeef6399a574d,61036fef11bc5a6b8b2646ca,2021-07-29_22h24.18.857,Simcolourproject_2stim_asymm_v5,2020.2.10,MacIntel,60,61025ae37ef11b136ea224fe,,,,,,,,,4294,-91.24609375,-43.98828125,1,0,0,response5disk,,2,3.1015625,-2.7734375,1,0,0,rectangle,3.1015625,-2.7734375,1,0,0,,,,,,,3.1015625,-2.7734375,1,0,0,,0,35,35,28,1,
,,,,,,,,,,,,,FF,,,,,,,,1.20104,,,,,,,,,,,,,,,,,,,,,,60fe258a910eeef6399a574d,61036fef11bc5a6b8b2646ca,2021-07-29_22h24.18.857,Simcolourproject_2stim_asymm_v5,2020.2.10,MacIntel,60,61025ae37ef11b136ea224fe,,,,,,,,,3102,-89.63671875,-51.8671875,1,0,0,response5disk,,2,12.1171875,-3.21875,1,0,0,rectangle,-84.40234375,48.01953125,1,0,0,response7disk_3,TRUE,1,1,"[178,186,150,192,61,256,121,85,123,230,236,195,171,201,1,170,37,16,306,144]",1.38462,6.0703125,-2.765625,1,0,0,rectangle,0,36,36,27,1,
,,,,,,,,,,,,,FF,,,,,,,,1.08135,,,,,,,,,,,,,,,,,,,,,,60fe258a910eeef6399a574d,61036fef11bc5a6b8b2646ca,2021-07-29_22h24.18.857,Simcolourproject_2stim_asymm_v5,2020.2.10,MacIntel,60,61025ae37ef11b136ea224fe,,,,,,,,,4083,-82.51953125,-31.640625,1,0,0,response5disk,,2,1.83203125,5.4140625,1,0,0,rectangle,1.83203125,5.4140625,1,0,0,,,,,,,1.83203125,5.4140625,1,0,0,,0,37,37,143,1,
,,,,,,,,,,,,,FF,,,,,,,,0.81736,,,,,,,,,,,,,,,,,,,,,,60fe258a910eeef6399a574d,61036fef11bc5a6b8b2646ca,2021-07-29_22h24.18.857,Simcolourproject_2stim_asymm_v5,2020.2.10,MacIntel,60,61025ae37ef11b136ea224fe,,,,,,,,,3770,-32.5,-88.21484375,1,0,0,response5disk,,3,11.21484375,-2.7734375,1,0,0,rectangle,11.21484375,-2.7734375,1,0,0,,,,,,,11.21484375,-2.7734375,1,0,0,,0,38,38,80,1,
,,,,,,,,,,,,,FF,,,,,,,,0.88362,,,,,,,,,,,,,,,,,,,,,,60fe258a910eeef6399a574d,61036fef11bc5a6b8b2646ca,2021-07-29_22h24.18.857,Simcolourproject_2stim_asymm_v5,2020.2.10,MacIntel,60,61025ae37ef11b136ea224fe,,,,,,,,,3682,34.80859375,-94.40625,1,0,0,response3disk,,4,3.5390625,-5.578125,1,0,0,rectangle,3.5390625,-5.578125,1,0,0,,,,,,,3.5390625,-5.578125,1,0,0,,0,39,39,120,1,
,,,,,,,,,,,,,FF,,,,,,,,1.33326,,,,,,,,,,,,,,,,,,,,,,60fe258a910eeef6399a574d,61036fef11bc5a6b8b2646ca,2021-07-29_22h24.18.857,Simcolourproject_2stim_asymm_v5,2020.2.10,MacIntel,60,61025ae37ef11b136ea224fe,,,,,,,,,2354,57.4453125,25.3359375,1,0,0,response1disk,,6,2.5703125,-3.0234375,1,0,0,rectangle,2.5703125,-3.0234375,1,0,0,,,,,,,2.5703125,-3.0234375,1,0,0,,0,40,40,26,1,
,,,,,,,,,,,,,FF,,,,,,,,1.03347,,,,,,,,,,,,,,,,,,,,,,60fe258a910eeef6399a574d,61036fef11bc5a6b8b2646ca,2021-07-29_22h24.18.857,Simcolourproject_2stim_asymm_v5,2020.2.10,MacIntel,60,61025ae37ef11b136ea224fe,,,,,,,,,4299,74.578125,-52.1328125,1,0,0,response3disk,,5,1.90625,-0.296875,1,0,0,rectangle,1.90625,-0.296875,1,0,0,,,,,,,1.90625,-0.296875,1,0,0,,0,41,41,125,1,
,,,,,,,,,,,,,FF,,,,,,,,1.01653,,,,,,,,,,,,,,,,,,,,,,60fe258a910eeef6399a574d,61036fef11bc5a6b8b2646ca,2021-07-29_22h24.18.857,Simcolourproject_2stim_asymm_v5,2020.2.10,MacIntel,60,61025ae37ef11b136ea224fe,,,,,,,,,4240,-35.9765625,-86.45703125,1,0,0,response5disk,,3,-7.92578125,-4.41015625,1,0,0,rectangle,-7.92578125,-4.41015625,1,0,0,,,,,,,-7.92578125,-4.41015625,1,0,0,,0,42,42,38,1,
,,,,,,,,,,,,,FF,,,,,,,,1.068445,,,,,,,,,,,,,,,,,,,,,,60fe258a910eeef6399a574d,61036fef11bc5a6b8b2646ca,2021-07-29_22h24.18.857,Simcolourproject_2stim_asymm_v5,2020.2.10,MacIntel,60,61025ae37ef11b136ea224fe,,,,,,,,,1329,34.20703125,-83.4375,1,0,0,response3disk,,4,10.16015625,-1.30859375,1,0,0,rectangle,10.16015625,-1.30859375,1,0,0,,,,,,,10.16015625,-1.30859375,1,0,0,,0,43,43,110,1,
,,,,,,,,,,,,,FF,,,,,,,,0.83251,,,,,,,,,,,,,,,,,,,,,,60fe258a910eeef6399a574d,61036fef11bc5a6b8b2646ca,2021-07-29_22h24.18.857,Simcolourproject_2stim_asymm_v5,2020.2.10,MacIntel,60,61025ae37ef11b136ea224fe,,,,,,,,,3708,-81.7109375,-39.05078125,1,0,0,response5disk,,2,8.265625,7.69140625,1,0,0,rectangle,8.265625,7.69140625,1,0,0,,,,,,,8.265625,7.69140625,1,0,0,,0,44,44,11,1,
,,,,,,,,,,,,,FF,,,,,,,,0.898975,,,,,,,,,,,,,,,,,,,,,,60fe258a910eeef6399a574d,61036fef11bc5a6b8b2646ca,2021-07-29_22h24.18.857,Simcolourproject_2stim_asymm_v5,2020.2.10,MacIntel,60,61025ae37ef11b136ea224fe,,,,,,,,,3276,98.76171875,46.69140625,1,0,0,response1disk,,6,12.92578125,1.36328125,1,0,0,rectangle,12.92578125,1.36328125,1,0,0,,,,,,,12.92578125,1.36328125,1,0,0,,0,45,45,54,1,
,,,,,,,,,,,,,FF,,,,,,,,0.73243,,,,,,,,,,,,,,,,,,,,,,60fe258a910eeef6399a574d,61036fef11bc5a6b8b2646ca,2021-07-29_22h24.18.857,Simcolourproject_2stim_asymm_v5,2020.2.10,MacIntel,60,61025ae37ef11b136ea224fe,,,,,,,,,2585,59.12109375,96.98046875,1,0,0,response1disk,,7,2.93359375,1.53125,1,0,0,rectangle,2.93359375,1.53125,1,0,0,,,,,,,2.93359375,1.53125,1,0,0,,0,46,46,59,1,
,,,,,,,,,,,,,FF,,,,,,,,1.01475,,,,,,,,,,,,,,,,,,,,,,60fe258a910eeef6399a574d,61036fef11bc5a6b8b2646ca,2021-07-29_22h24.18.857,Simcolourproject_2stim_asymm_v5,2020.2.10,MacIntel,60,61025ae37ef11b136ea224fe,,,,,,,,,528,-43.49609375,-91.125,1,0,0,response5disk,,3,-13.56640625,-3.48046875,1,0,0,rectangle,-13.56640625,-3.48046875,1,0,0,,,,,,,-13.56640625,-3.48046875,1,0,0,,0,47,47,34,1,
,,,,,,,,,,,,,FF,,,,,,,,1.16634,,,,,,,,,,,,,,,,,,,,,,60fe258a910eeef6399a574d,61036fef11bc5a6b8b2646ca,2021-07-29_22h24.18.857,Simcolourproject_2stim_asymm_v5,2020.2.10,MacIntel,60,61025ae37ef11b136ea224fe,,,,,,,,,4277,40.46875,-92.0390625,1,0,0,response3disk,,4,13.125,-4.734375,1,0,0,rectangle,13.125,-4.734375,1,0,0,,,,,,,13.125,-4.734375,1,0,0,,0,48,48,116,1,
,,,,,,,,,,,,,FF,,,,,,,,0.899935,,,,,,,,,,,,,,,,,,,,,,60fe258a910eeef6399a574d,61036fef11bc5a6b8b2646ca,2021-07-29_22h24.18.857,Simcolourproject_2stim_asymm_v5,2020.2.10,MacIntel,60,61025ae37ef11b136ea224fe,,,,,,,,,1765,43.16015625,-88.44921875,1,0,0,response3disk,,4,5.640625,-0.625,1,0,0,rectangle,5.640625,-0.625,1,0,0,,,,,,,5.640625,-0.625,1,0,0,,0,49,49,151,1,
,,,,,,,,,,,,,FF,,,,,,,,0.785435,,,,,,,,,,,,,,,,,,,,,,60fe258a910eeef6399a574d,61036fef11bc5a6b8b2646ca,2021-07-29_22h24.18.857,Simcolourproject_2stim_asymm_v5,2020.2.10,MacIntel,60,61025ae37ef11b136ea224fe,,,,,,,,,3156,-27.69921875,-86.421875,1,0,0,response5disk,,3,0.16796875,7.84375,1,0,0,rectangle,0.16796875,7.84375,1,0,0,,,,,,,0.16796875,7.84375,1,0,0,,0,50,50,114,1,
,,,,,,,,,,,,,FF,,,,,,,,2.950115,,,,,,,,,,,,,,,,,,,,,,60fe258a910eeef6399a574d,61036fef11bc5a6b8b2646ca,2021-07-29_22h24.18.857,Simcolourproject_2stim_asymm_v5,2020.2.10,MacIntel,60,61025ae37ef11b136ea224fe,,,,,,,,,473,59.53125,-85.30078125,1,0,0,response3disk,,4,12.53125,-2.45703125,1,0,0,rectangle,12.53125,-2.45703125,1,0,0,,,,,,,12.53125,-2.45703125,1,0,0,,0,51,51,53,1,
,,,,,,,,,,,,,FF,,,,,,,,1.31596,,,,,,,,,,,,,,,,,,,,,,60fe258a910eeef6399a574d,61036fef11bc5a6b8b2646ca,2021-07-29_22h24.18.857,Simcolourproject_2stim_asymm_v5,2020.2.10,MacIntel,60,61025ae37ef11b136ea224fe,,,,,,,,,1063,41.36328125,-81.55859375,1,0,0,response3disk,,4,11.13671875,-1.796875,1,0,0,rectangle,11.13671875,-1.796875,1,0,0,,,,,,,11.13671875,-1.796875,1,0,0,,0,52,52,20,1,
,,,,,,,,,,,,,FF,,,,,,,,1.033935,,,,,,,,,,,,,,,,,,,,,,60fe258a910eeef6399a574d,61036fef11bc5a6b8b2646ca,2021-07-29_22h24.18.857,Simcolourproject_2stim_asymm_v5,2020.2.10,MacIntel,60,61025ae37ef11b136ea224fe,,,,,,,,,3337,-36.3125,-82.14453125,1,0,0,response5disk,,3,0.76953125,-8.50390625,1,0,0,rectangle,0.76953125,-8.50390625,1,0,0,,,,,,,0.76953125,-8.50390625,1,0,0,,0,53,53,88,1,
,,,,,,,,,,,,,FF,,,,,,,,1.09949,,,,,,,,,,,,,,,,,,,,,,60fe258a910eeef6399a574d,61036fef11bc5a6b8b2646ca,2021-07-29_22h24.18.857,Simcolourproject_2stim_asymm_v5,2020.2.10,MacIntel,60,61025ae37ef11b136ea224fe,,,,,,,,,2625,94.0234375,50.55078125,1,0,0,response1disk,,6,13.73828125,6.42578125,1,0,0,rectangle,13.73828125,6.42578125,1,0,0,,,,,,,13.73828125,6.42578125,1,0,0,,0,54,54,56,1,
,,,,,,,,,,,,,FF,,,,,,,,1.167465,,,,,,,,,,,,,,,,,,,,,,60fe258a910eeef6399a574d,61036fef11bc5a6b8b2646ca,2021-07-29_22h24.18.857,Simcolourproject_2stim_asymm_v5,2020.2.10,MacIntel,60,61025ae37ef11b136ea224fe,,,,,,,,,4298,-30.0859375,-85.3515625,1,0,0,response5disk,,3,1.82421875,-0.99609375,1,0,0,rectangle,1.82421875,-0.99609375,1,0,0,,,,,,,1.82421875,-0.99609375,1,0,0,,0,55,55,75,1,
,,,,,,,,,,,,,FF,,,,,,,,1.70013,,,,,,,,,,,,,,,,,,,,,,60fe258a910eeef6399a574d,61036fef11bc5a6b8b2646ca,2021-07-29_22h24.18.857,Simcolourproject_2stim_asymm_v5,2020.2.10,MacIntel,60,61025ae37ef11b136ea224fe,,,,,,,,,1763,50.46484375,-108.4296875,1,0,0,response3disk,,4,1.20703125,2.69921875,1,0,0,rectangle,1.20703125,2.69921875,1,0,0,,,,,,,1.20703125,2.69921875,1,0,0,,0,56,56,77,1,
,,,,,,,,,,,,,FF,,,,,,,,0.73284,,,,,,,,,,,,,,,,,,,,,,60fe258a910eeef6399a574d,61036fef11bc5a6b8b2646ca,2021-07-29_22h24.18.857,Simcolourproject_2stim_asymm_v5,2020.2.10,MacIntel,60,61025ae37ef11b136ea224fe,,,,,,,,,4184,38.19921875,-75.625,1,0,0,response3disk,,4,1.3671875,11.5625,1,0,0,rectangle,1.3671875,11.5625,1,0,0,,,,,,,1.3671875,11.5625,1,0,0,,0,57,57,150,1,
,,,,,,,,,,,,,FF,,,,,,,,0.98321,,,,,,,,,,,,,,,,,,,,,,60fe258a910eeef6399a574d,61036fef11bc5a6b8b2646ca,2021-07-29_22h24.18.857,Simcolourproject_2stim_asymm_v5,2020.2.10,MacIntel,60,61025ae37ef11b136ea224fe,,,,,,,,,2141,99.8046875,-34.7890625,1,0,0,response3disk,,5,6.87890625,-3.65234375,1,0,0,rectangle,6.87890625,-3.65234375,1,0,0,,,,,,,6.87890625,-3.65234375,1,0,0,,0,58,58,30,1,
,,,,,,,,,,,,,FF,,,,,,,,0.731075,,,,,,,,,,,,,,,,,,,,,,60fe258a910eeef6399a574d,61036fef11bc5a6b8b2646ca,2021-07-29_22h24.18.857,Simcolourproject_2stim_asymm_v5,2020.2.10,MacIntel,60,61025ae37ef11b136ea224fe,,,,,,,,,3445,-39.6875,-97.73828125,1,0,0,response5disk,,3,5.78125,-1.5703125,1,0,0,rectangle,5.78125,-1.5703125,1,0,0,,,,,,,5.78125,-1.5703125,1,0,0,,0,59,59,156,1,
,,,,,,,,,,,,,FF,,,,,,,,0.733735,,,,,,,,,,,,,,,,,,,,,,60fe258a910eeef6399a574d,61036fef11bc5a6b8b2646ca,2021-07-29_22h24.18.857,Simcolourproject_2stim_asymm_v5,2020.2.10,MacIntel,60,61025ae37ef11b136ea224fe,,,,,,,,,3930,40.015625,-97.859375,1,0,0,response3disk,,4,1.1953125,-17.80859375,1,0,0,rectangle,94.25,43.453125,1,0,0,response1disk_3,TRUE,6,6,"[178,186,150,192,61,256,121,85,123,230,236,195,171,201,1,170,37,16,306,144]",1.949895,-2.23828125,-6.0625,1,0,0,rectangle,0,60,60,17,1,
,,,,,,,,,,,,,FF,,,,,,,,1.133785,,,,,,,,,,,,,,,,,,,,,,60fe258a910eeef6399a574d,61036fef11bc5a6b8b2646ca,2021-07-29_22h24.18.857,Simcolourproject_2stim_asymm_v5,2020.2.10,MacIntel,60,61025ae37ef11b136ea224fe,,,,,,,,,3176,46.4453125,-79.68359375,1,0,0,response3disk,,4,8.21484375,-3.8125,1,0,0,rectangle,8.21484375,-3.8125,1,0,0,,,,,,,8.21484375,-3.8125,1,0,0,,0,61,61,84,1,
,,,,,,,,,,,,,FF,,,,,,,,0.88345,,,,,,,,,,,,,,,,,,,,,,60fe258a910eeef6399a574d,61036fef11bc5a6b8b2646ca,2021-07-29_22h24.18.857,Simcolourproject_2stim_asymm_v5,2020.2.10,MacIntel,60,61025ae37ef11b136ea224fe,,,,,,,,,3920,-69.47265625,-28.23046875,1,0,0,response5disk,,2,-3.4921875,-6.73046875,1,0,0,rectangle,-3.4921875,-6.73046875,1,0,0,,,,,,,-3.4921875,-6.73046875,1,0,0,,0,62,62,109,1,
,,,,,,,,,,,,,FF,,,,,,,,0.89861,,,,,,,,,,,,,,,,,,,,,,60fe258a910eeef6399a574d,61036fef11bc5a6b8b2646ca,2021-07-29_22h24.18.857,Simcolourproject_2stim_asymm_v5,2020.2.10,MacIntel,60,61025ae37ef11b136ea224fe,,,,,,,,,1559,66.8203125,-39.234375,1,0,0,response3disk,,5,10.66015625,10.2265625,1,0,0,rectangle,10.66015625,10.2265625,1,0,0,,,,,,,10.66015625,10.2265625,1,0,0,,0,63,63,29,1,
,,,,,,,,,,,,,FF,,,,,,,,1.018895,,,,,,,,,,,,,,,,,,,,,,60fe258a910eeef6399a574d,61036fef11bc5a6b8b2646ca,2021-07-29_22h24.18.857,Simcolourproject_2stim_asymm_v5,2020.2.10,MacIntel,60,61025ae37ef11b136ea224fe,,,,,,,,,2181,-70.3515625,-32.60546875,1,0,0,response5disk,,2,-6.234375,12.21875,1,0,0,rectangle,-6.234375,12.21875,1,0,0,,,,,,,-6.234375,12.21875,1,0,0,,0,64,64,113,1,
,,,,,,,,,,,,,FF,,,,,,,,0.900535,,,,,,,,,,,,,,,,,,,,,,60fe258a910eeef6399a574d,61036fef11bc5a6b8b2646ca,2021-07-29_22h24.18.857,Simcolourproject_2stim_asymm_v5,2020.2.10,MacIntel,60,61025ae37ef11b136ea224fe,,,,,,,,,2009,72.49609375,49.67578125,1,0,0,response1disk,,6,-8.125,-2.23046875,1,0,0,rectangle,-8.125,-2.23046875,1,0,0,,,,,,,-8.125,-2.23046875,1,0,0,,0,65,65,48,1,
,,,,,,,,,,,,,FF,,,,,,,,0.967875,,,,,,,,,,,,,,,,,,,,,,60fe258a910eeef6399a574d,61036fef11bc5a6b8b2646ca,2021-07-29_22h24.18.857,Simcolourproject_2stim_asymm_v5,2020.2.10,MacIntel,60,61025ae37ef11b136ea224fe,,,,,,,,,1008,92.49609375,-49.19140625,1,0,0,response3disk,,5,1.4296875,-2.6171875,1,0,0,rectangle,1.4296875,-2.6171875,1,0,0,,,,,,,1.4296875,-2.6171875,1,0,0,,0,66,66,43,1,
,,,,,,,,,,,,,FF,,,,,,,,4.18342,,,,,,,,,,,,,,,,,,,,,,60fe258a910eeef6399a574d,61036fef11bc5a6b8b2646ca,2021-07-29_22h24.18.857,Simcolourproject_2stim_asymm_v5,2020.2.10,MacIntel,60,61025ae37ef11b136ea224fe,,,,,,,,,3371,99.5546875,-49.25390625,1,0,0,response3disk,,5,24.0859375,-8.140625,1,0,0,rectangle,24.0859375,-8.140625,1,0,0,,,,,,,24.0859375,-8.140625,1,0,0,,0,67,67,145,1,
,,,,,,,,,,,,,FF,,,,,,,,0.89994,,,,,,,,,,,,,,,,,,,,,,60fe258a910eeef6399a574d,61036fef11bc5a6b8b2646ca,2021-07-29_22h24.18.857,Simcolourproject_2stim_asymm_v5,2020.2.10,MacIntel,60,61025ae37ef11b136ea224fe,,,,,,,,,2229,-38.84765625,-110.375,1,0,0,response5disk,,3,2.83984375,-0.5078125,1,0,0,rectangle,2.83984375,-0.5078125,1,0,0,,,,,,,2.83984375,-0.5078125,1,0,0,,0,68,68,157,1,
,,,,,,,,,,,,,FF,,,,,,,,1.366345,,,,,,,,,,,,,,,,,,,,,,60fe258a910eeef6399a574d,61036fef11bc5a6b8b2646ca,2021-07-29_22h24.18.857,Simcolourproject_2stim_asymm_v5,2020.2.10,MacIntel,60,61025ae37ef11b136ea224fe,,,,,,,,,216,84.51953125,31.09375,1,0,0,response1disk,,6,10.328125,-1.984375,1,0,0,rectangle,10.328125,-1.984375,1,0,0,,,,,,,10.328125,-1.984375,1,0,0,,0,69,69,3,1,
,,,,,,,,,,,,,FF,,,,,,,,1.018625,,,,,,,,,,,,,,,,,,,,,,60fe258a910eeef6399a574d,61036fef11bc5a6b8b2646ca,2021-07-29_22h24.18.857,Simcolourproject_2stim_asymm_v5,2020.2.10,MacIntel,60,61025ae37ef11b136ea224fe,,,,,,,,,3388,-85.3046875,30.89453125,1,0,0,response7disk,,1,7.8359375,7.37890625,1,0,0,rectangle,7.8359375,7.37890625,1,0,0,,,,,,,7.8359375,7.37890625,1,0,0,,0,70,70,129,1,
,,,,,,,,,,,,,FF,,,,,,,,1.800855,,,,,,,,,,,,,,,,,,,,,,60fe258a910eeef6399a574d,61036fef11bc5a6b8b2646ca,2021-07-29_22h24.18.857,Simcolourproject_2stim_asymm_v5,2020.2.10,MacIntel,60,61025ae37ef11b136ea224fe,,,,,,,,,1552,97.7421875,50.75,1,0,0,response1disk,,6,-5.31640625,-9.0078125,1,0,0,rectangle,-5.31640625,-9.0078125,1,0,0,,,,,,,-5.31640625,-9.0078125,1,0,0,,0,71,71,103,1,
,,,,,,,,,,,,,FF,,,,,,,,0.866615,,,,,,,,,,,,,,,,,,,,,,60fe258a910eeef6399a574d,61036fef11bc5a6b8b2646ca,2021-07-29_22h24.18.857,Simcolourproject_2stim_asymm_v5,2020.2.10,MacIntel,60,61025ae37ef11b136ea224fe,,,,,,,,,2588,55.37109375,94.08984375,1,0,0,response1disk,,7,10.55859375,-3.5859375,1,0,0,rectangle,10.55859375,-3.5859375,1,0,0,,,,,,,10.55859375,-3.5859375,1,0,0,,0,72,72,118,1,
,,,,,,,,,,,,,FF,,,,,,,,1.49866,,,,,,,,,,,,,,,,,,,,,,60fe258a910eeef6399a574d,61036fef11bc5a6b8b2646ca,2021-07-29_22h24.18.857,Simcolourproject_2stim_asymm_v5,2020.2.10,MacIntel,60,61025ae37ef11b136ea224fe,,,,,,,,,3462,52.3203125,-92.171875,1,0,0,response3disk,,4,7.93359375,-5.765625,1,0,0,rectangle,7.93359375,-5.765625,1,0,0,,,,,,,7.93359375,-5.765625,1,0,0,,0,73,73,95,1,
,,,,,,,,,,,,,FF,,,,,,,,1.38204,,,,,,,,,,,,,,,,,,,,,,60fe258a910eeef6399a574d,61036fef11bc5a6b8b2646ca,2021-07-29_22h24.18.857,Simcolourproject_2stim_asymm_v5,2020.2.10,MacIntel,60,61025ae37ef11b136ea224fe,,,,,,,,,2813,68.31640625,-29.51953125,1,0,0,response3disk,,5,16.0859375,-0.23046875,1,0,0,rectangle,16.0859375,-0.23046875,1,0,0,,,,,,,16.0859375,-0.23046875,1,0,0,,0,74,74,57,1,
,,,,,,,,,,,,,FF,,,,,,,,0.818165,,,,,,,,,,,,,,,,,,,,,,60fe258a910eeef6399a574d,61036fef11bc5a6b8b2646ca,2021-07-29_22h24.18.857,Simcolourproject_2stim_asymm_v5,2020.2.10,MacIntel,60,61025ae37ef11b136ea224fe,,,,,,,,,3375,-33.6875,-97.18359375,1,0,0,response5disk,,3,0.4921875,-6.59375,1,0,0,rectangle,0.4921875,-6.59375,1,0,0,,,,,,,0.4921875,-6.59375,1,0,0,,0,75,75,137,1,
,,,,,,,,,,,,,FF,,,,,,,,1.13494,,,,,,,,,,,,,,,,,,,,,,60fe258a910eeef6399a574d,61036fef11bc5a6b8b2646ca,2021-07-29_22h24.18.857,Simcolourproject_2stim_asymm_v5,2020.2.10,MacIntel,60,61025ae37ef11b136ea224fe,,,,,,,,,698,-32.734375,-91.49609375,1,0,0,response5disk,,3,15.30078125,1.390625,1,0,0,rectangle,15.30078125,1.390625,1,0,0,,,,,,,15.30078125,1.390625,1,0,0,,0,76,76,155,1,
,,,,,,,,,,,,,FF,,,,,,,,0.93247,,,,,,,,,,,,,,,,,,,,,,60fe258a910eeef6399a574d,61036fef11bc5a6b8b2646ca,2021-07-29_22h24.18.857,Simcolourproject_2stim_asymm_v5,2020.2.10,MacIntel,60,61025ae37ef11b136ea224fe,,,,,,,,,379,58.9140625,78.73046875,1,0,0,response1disk,,7,9.734375,-1.609375,1,0,0,rectangle,9.734375,-1.609375,1,0,0,,,,,,,9.734375,-1.609375,1,0,0,,0,77,77,152,1,
,,,,,,,,,,,,,FF,,,,,,,,14.31418,,,,,,,,,,,,,,,,,,,,,,60fe258a910eeef6399a574d,61036fef11bc5a6b8b2646ca,2021-07-29_22h24.18.857,Simcolourproject_2stim_asymm_v5,2020.2.10,MacIntel,60,61025ae37ef11b136ea224fe,,,,,,,,,2400,100.0195313,30.0703125,1,0,0,response1disk,,6,5.18359375,3.53125,1,0,0,rectangle,5.18359375,3.53125,1,0,0,,,,,,,5.18359375,3.53125,1,0,0,,0,78,78,21,1,
,,,,,,,,,,,,,FF,,,,,,,,0.900855,,,,,,,,,,,,,,,,,,,,,,60fe258a910eeef6399a574d,61036fef11bc5a6b8b2646ca,2021-07-29_22h24.18.857,Simcolourproject_2stim_asymm_v5,2020.2.10,MacIntel,60,61025ae37ef11b136ea224fe,,,,,,,,,360,34.3671875,-84.95703125,1,0,0,response3disk,,4,1.1875,-6.64453125,1,0,0,rectangle,1.1875,-6.64453125,1,0,0,,,,,,,1.1875,-6.64453125,1,0,0,,0,79,79,50,1,
,,,,,,,,,,,,,FF,,,,,,,,1.58515,,,,,,,,,,,,,,,,,,,,,,60fe258a910eeef6399a574d,61036fef11bc5a6b8b2646ca,2021-07-29_22h24.18.857,Simcolourproject_2stim_asymm_v5,2020.2.10,MacIntel,60,61025ae37ef11b136ea224fe,,,,,,,,,1275,-30.8515625,-75.89453125,1,0,0,response5disk,,3,0.45703125,-8.87890625,1,0,0,rectangle,0.45703125,-8.87890625,1,0,0,,,,,,,0.45703125,-8.87890625,1,0,0,,0,80,80,102,1,
,,,,,,,,,,,,,FF,,,,,,,,1.33336,,,,,,,,,,,,,,,,,,,,,,60fe258a910eeef6399a574d,61036fef11bc5a6b8b2646ca,2021-07-29_22h24.18.857,Simcolourproject_2stim_asymm_v5,2020.2.10,MacIntel,60,61025ae37ef11b136ea224fe,,,,,,,,,3278,70.49609375,-32.73828125,1,0,0,response3disk,,5,8.94921875,-3.43359375,1,0,0,rectangle,8.94921875,-3.43359375,1,0,0,,,,,,,8.94921875,-3.43359375,1,0,0,,0,81,81,153,1,
,,,,,,,,,,,,,FF,,,,,,,,1.715375,,,,,,,,,,,,,,,,,,,,,,60fe258a910eeef6399a574d,61036fef11bc5a6b8b2646ca,2021-07-29_22h24.18.857,Simcolourproject_2stim_asymm_v5,2020.2.10,MacIntel,60,61025ae37ef11b136ea224fe,,,,,,,,,971,-78.88671875,-38.7734375,1,0,0,response5disk,,2,-4.703125,-5.375,1,0,0,rectangle,-4.703125,-5.375,1,0,0,,,,,,,-4.703125,-5.375,1,0,0,,0,82,82,131,1,
,,,,,,,,,,,,,FF,,,,,,,,1.032645,,,,,,,,,,,,,,,,,,,,,,60fe258a910eeef6399a574d,61036fef11bc5a6b8b2646ca,2021-07-29_22h24.18.857,Simcolourproject_2stim_asymm_v5,2020.2.10,MacIntel,60,61025ae37ef11b136ea224fe,,,,,,,,,3639,-38.390625,-88.8984375,1,0,0,response5disk,,3,3.45703125,-8.25,1,0,0,rectangle,3.45703125,-8.25,1,0,0,,,,,,,3.45703125,-8.25,1,0,0,,0,83,83,138,1,
,,,,,,,,,,,,,FF,,,,,,,,1.035255,,,,,,,,,,,,,,,,,,,,,,60fe258a910eeef6399a574d,61036fef11bc5a6b8b2646ca,2021-07-29_22h24.18.857,Simcolourproject_2stim_asymm_v5,2020.2.10,MacIntel,60,61025ae37ef11b136ea224fe,,,,,,,,,2203,89.91796875,43.9921875,1,0,0,response1disk,,6,13.32421875,-2.93359375,1,0,0,rectangle,53.42578125,-80.0390625,1,0,0,response3disk_3,TRUE,4,4,"[178,186,150,192,61,256,121,85,123,230,236,195,171,201,1,170,37,16,306,144]",1.54984,-4.25390625,1.046875,1,0,0,rectangle,0,84,84,68,1,
,,,,,,,,,,,,,FF,,,,,,,,1.14885,,,,,,,,,,,,,,,,,,,,,,60fe258a910eeef6399a574d,61036fef11bc5a6b8b2646ca,2021-07-29_22h24.18.857,Simcolourproject_2stim_asymm_v5,2020.2.10,MacIntel,60,61025ae37ef11b136ea224fe,,,,,,,,,4336,-86.765625,-48.2265625,1,0,0,response5disk,,2,1.67578125,-2.75390625,1,0,0,rectangle,1.67578125,-2.75390625,1,0,0,,,,,,,1.67578125,-2.75390625,1,0,0,,0,85,85,78,1,
,,,,,,,,,,,,,FF,,,,,,,,1.231985,,,,,,,,,,,,,,,,,,,,,,60fe258a910eeef6399a574d,61036fef11bc5a6b8b2646ca,2021-07-29_22h24.18.857,Simcolourproject_2stim_asymm_v5,2020.2.10,MacIntel,60,61025ae37ef11b136ea224fe,,,,,,,,,3756,32.6328125,-105.6015625,1,0,0,response3disk,,4,-0.7890625,4.953125,1,0,0,rectangle,-0.7890625,4.953125,1,0,0,,,,,,,-0.7890625,4.953125,1,0,0,,0,86,86,154,1,
,,,,,,,,,,,,,FF,,,,,,,,0.91544,,,,,,,,,,,,,,,,,,,,,,60fe258a910eeef6399a574d,61036fef11bc5a6b8b2646ca,2021-07-29_22h24.18.857,Simcolourproject_2stim_asymm_v5,2020.2.10,MacIntel,60,61025ae37ef11b136ea224fe,,,,,,,,,2480,-29.23828125,53.5,1,0,0,response7disk,,0,4,1.65234375,1,0,0,rectangle,4,1.65234375,1,0,0,,,,,,,4,1.65234375,1,0,0,,0,87,87,5,1,
,,,,,,,,,,,,,FF,,,,,,,,0.98415,,,,,,,,,,,,,,,,,,,,,,60fe258a910eeef6399a574d,61036fef11bc5a6b8b2646ca,2021-07-29_22h24.18.857,Simcolourproject_2stim_asymm_v5,2020.2.10,MacIntel,60,61025ae37ef11b136ea224fe,,,,,,,,,1274,-29.7578125,-81.22265625,1,0,0,response5disk,,3,-1.3828125,-1.796875,1,0,0,rectangle,-1.3828125,-1.796875,1,0,0,,,,,,,-1.3828125,-1.796875,1,0,0,,0,88,88,1,1,
,,,,,,,,,,,,,FF,,,,,,,,1.365805,,,,,,,,,,,,,,,,,,,,,,60fe258a910eeef6399a574d,61036fef11bc5a6b8b2646ca,2021-07-29_22h24.18.857,Simcolourproject_2stim_asymm_v5,2020.2.10,MacIntel,60,61025ae37ef11b136ea224fe,,,,,,,,,126,48.58203125,-82.34765625,1,0,0,response3disk,,4,-0.57421875,4.9375,1,0,0,rectangle,-0.57421875,4.9375,1,0,0,,,,,,,-0.57421875,4.9375,1,0,0,,0,89,89,128,1,
,,,,,,,,,,,,,FF,,,,,,,,1.766595,,,,,,,,,,,,,,,,,,,,,,60fe258a910eeef6399a574d,61036fef11bc5a6b8b2646ca,2021-07-29_22h24.18.857,Simcolourproject_2stim_asymm_v5,2020.2.10,MacIntel,60,61025ae37ef11b136ea224fe,,,,,,,,,982,-39.3203125,-94.1796875,1,0,0,response5disk,,3,-0.68359375,-3.16015625,1,0,0,rectangle,-0.68359375,-3.16015625,1,0,0,,,,,,,-0.68359375,-3.16015625,1,0,0,,0,90,90,2,1,
,,,,,,,,,,,,,FF,,,,,,,,1.06864,,,,,,,,,,,,,,,,,,,,,,60fe258a910eeef6399a574d,61036fef11bc5a6b8b2646ca,2021-07-29_22h24.18.857,Simcolourproject_2stim_asymm_v5,2020.2.10,MacIntel,60,61025ae37ef11b136ea224fe,,,,,,,,,644,43.578125,-82.38671875,1,0,0,response3disk,,4,8.078125,-8.81640625,1,0,0,rectangle,8.078125,-8.81640625,1,0,0,,,,,,,8.078125,-8.81640625,1,0,0,,0,91,91,147,1,
,,,,,,,,,,,,,FF,,,,,,,,0.83296,,,,,,,,,,,,,,,,,,,,,,60fe258a910eeef6399a574d,61036fef11bc5a6b8b2646ca,2021-07-29_22h24.18.857,Simcolourproject_2stim_asymm_v5,2020.2.10,MacIntel,60,61025ae37ef11b136ea224fe,,,,,,,,,601,58.07421875,86.98046875,1,0,0,response1disk,,7,6.82421875,-0.6953125,1,0,0,rectangle,6.82421875,-0.6953125,1,0,0,,,,,,,6.82421875,-0.6953125,1,0,0,,0,92,92,94,1,
,,,,,,,,,,,,,FF,,,,,,,,1.249215,,,,,,,,,,,,,,,,,,,,,,60fe258a910eeef6399a574d,61036fef11bc5a6b8b2646ca,2021-07-29_22h24.18.857,Simcolourproject_2stim_asymm_v5,2020.2.10,MacIntel,60,61025ae37ef11b136ea224fe,,,,,,,,,3839,-52.58984375,-110.8632813,1,0,0,response5disk,,3,12.42578125,3.51171875,1,0,0,rectangle,12.42578125,3.51171875,1,0,0,,,,,,,12.42578125,3.51171875,1,0,0,,0,93,93,81,1,
,,,,,,,,,,,,,FF,,,,,,,,0.98408,,,,,,,,,,,,,,,,,,,,,,60fe258a910eeef6399a574d,61036fef11bc5a6b8b2646ca,2021-07-29_22h24.18.857,Simcolourproject_2stim_asymm_v5,2020.2.10,MacIntel,60,61025ae37ef11b136ea224fe,,,,,,,,,1873,46.296875,87.1015625,1,0,0,response1disk,,7,4.09765625,-2.9375,1,0,0,rectangle,4.09765625,-2.9375,1,0,0,,,,,,,4.09765625,-2.9375,1,0,0,,0,94,94,149,1,
,,,,,,,,,,,,,FF,,,,,,,,1.434295,,,,,,,,,,,,,,,,,,,,,,60fe258a910eeef6399a574d,61036fef11bc5a6b8b2646ca,2021-07-29_22h24.18.857,Simcolourproject_2stim_asymm_v5,2020.2.10,MacIntel,60,61025ae37ef11b136ea224fe,,,,,,,,,3565,-37.41015625,-92.6796875,1,0,0,response5disk,,3,-4.0234375,-2.921875,1,0,0,rectangle,-4.0234375,-2.921875,1,0,0,,,,,,,-4.0234375,-2.921875,1,0,0,,0,95,95,36,1,
,,,,,,,,,,,,,FF,,,,,,,,2.3347,,,,,,,,,,,,,,,,,,,,,,60fe258a910eeef6399a574d,61036fef11bc5a6b8b2646ca,2021-07-29_22h24.18.857,Simcolourproject_2stim_asymm_v5,2020.2.10,MacIntel,60,61025ae37ef11b136ea224fe,,,,,,,,,3305,43.6328125,-93.4921875,1,0,0,response3disk,,4,4.59765625,-4.15625,1,0,0,rectangle,4.59765625,-4.15625,1,0,0,,,,,,,4.59765625,-4.15625,1,0,0,,0,96,96,52,1,
,,,,,,,,,,,,,FF,,,,,,,,2.017295,,,,,,,,,,,,,,,,,,,,,,60fe258a910eeef6399a574d,61036fef11bc5a6b8b2646ca,2021-07-29_22h24.18.857,Simcolourproject_2stim_asymm_v5,2020.2.10,MacIntel,60,61025ae37ef11b136ea224fe,,,,,,,,,1321,-30.84375,-97.80859375,1,0,0,response5disk,,3,3.86328125,-2.890625,1,0,0,rectangle,3.86328125,-2.890625,1,0,0,,,,,,,3.86328125,-2.890625,1,0,0,,0,97,97,106,1,
,,,,,,,,,,,,,FF,,,,,,,,1.616155,,,,,,,,,,,,,,,,,,,,,,60fe258a910eeef6399a574d,61036fef11bc5a6b8b2646ca,2021-07-29_22h24.18.857,Simcolourproject_2stim_asymm_v5,2020.2.10,MacIntel,60,61025ae37ef11b136ea224fe,,,,,,,,,2595,50.5625,-97.80859375,1,0,0,response3disk,,4,6.734375,9.73046875,1,0,0,rectangle,6.734375,9.73046875,1,0,0,,,,,,,6.734375,9.73046875,1,0,0,,0,98,98,112,1,
,,,,,,,,,,,,,FF,,,,,,,,1.032335,,,,,,,,,,,,,,,,,,,,,,60fe258a910eeef6399a574d,61036fef11bc5a6b8b2646ca,2021-07-29_22h24.18.857,Simcolourproject_2stim_asymm_v5,2020.2.10,MacIntel,60,61025ae37ef11b136ea224fe,,,,,,,,,252,-43.80859375,-91.6875,1,0,0,response5disk,,3,-11.0546875,-6.63671875,1,0,0,rectangle,-11.0546875,-6.63671875,1,0,0,,,,,,,-11.0546875,-6.63671875,1,0,0,,0,99,99,65,1,
,,,,,,,,,,,,,FF,,,,,,,,1.10052,,,,,,,,,,,,,,,,,,,,,,60fe258a910eeef6399a574d,61036fef11bc5a6b8b2646ca,2021-07-29_22h24.18.857,Simcolourproject_2stim_asymm_v5,2020.2.10,MacIntel,60,61025ae37ef11b136ea224fe,,,,,,,,,4204,-87.6328125,-36.16015625,1,0,0,response5disk,,2,-1.08203125,-4.58984375,1,0,0,rectangle,-1.08203125,-4.58984375,1,0,0,,,,,,,-1.08203125,-4.58984375,1,0,0,,0,100,100,9,1,
,,,,,,,,,,,,,FF,,,,,,,,1.684205,,,,,,,,,,,,,,,,,,,,,,60fe258a910eeef6399a574d,61036fef11bc5a6b8b2646ca,2021-07-29_22h24.18.857,Simcolourproject_2stim_asymm_v5,2020.2.10,MacIntel,60,61025ae37ef11b136ea224fe,,,,,,,,,18,47.92578125,-87.3359375,1,0,0,response3disk,,4,9.65234375,1.98046875,1,0,0,rectangle,9.65234375,1.98046875,1,0,0,,,,,,,9.65234375,1.98046875,1,0,0,,0,101,101,51,1,
,,,,,,,,,,,,,FF,,,,,,,,0.81748,,,,,,,,,,,,,,,,,,,,,,60fe258a910eeef6399a574d,61036fef11bc5a6b8b2646ca,2021-07-29_22h24.18.857,Simcolourproject_2stim_asymm_v5,2020.2.10,MacIntel,60,61025ae37ef11b136ea224fe,,,,,,,,,466,-37.80859375,-90.796875,1,0,0,response5disk,,3,0.109375,-8.85546875,1,0,0,rectangle,0.109375,-8.85546875,1,0,0,,,,,,,0.109375,-8.85546875,1,0,0,,0,102,102,124,1,
,,,,,,,,,,,,,FF,,,,,,,,0.748955,,,,,,,,,,,,,,,,,,,,,,60fe258a910eeef6399a574d,61036fef11bc5a6b8b2646ca,2021-07-29_22h24.18.857,Simcolourproject_2stim_asymm_v5,2020.2.10,MacIntel,60,61025ae37ef11b136ea224fe,,,,,,,,,2249,-48.78515625,-104.7148438,1,0,0,response5disk,,3,15.31640625,9.796875,1,0,0,rectangle,15.31640625,9.796875,1,0,0,,,,,,,15.31640625,9.796875,1,0,0,,0,103,103,134,1,
,,,,,,,,,,,,,FF,,,,,,,,0.735195,,,,,,,,,,,,,,,,,,,,,,60fe258a910eeef6399a574d,61036fef11bc5a6b8b2646ca,2021-07-29_22h24.18.857,Simcolourproject_2stim_asymm_v5,2020.2.10,MacIntel,60,61025ae37ef11b136ea224fe,,,,,,,,,2473,-41.80859375,-86.640625,1,0,0,response5disk,,3,2.84765625,3.0703125,1,0,0,rectangle,2.84765625,3.0703125,1,0,0,,,,,,,2.84765625,3.0703125,1,0,0,,0,104,104,39,1,
,,,,,,,,,,,,,FF,,,,,,,,0.950095,,,,,,,,,,,,,,,,,,,,,,60fe258a910eeef6399a574d,61036fef11bc5a6b8b2646ca,2021-07-29_22h24.18.857,Simcolourproject_2stim_asymm_v5,2020.2.10,MacIntel,60,61025ae37ef11b136ea224fe,,,,,,,,,653,-94.26953125,-37.03125,1,0,0,response5disk,,2,-11.28125,-4.27734375,1,0,0,rectangle,-11.28125,-4.27734375,1,0,0,,,,,,,-11.28125,-4.27734375,1,0,0,,0,105,105,63,1,
,,,,,,,,,,,,,FF,,,,,,,,1.434225,,,,,,,,,,,,,,,,,,,,,,60fe258a910eeef6399a574d,61036fef11bc5a6b8b2646ca,2021-07-29_22h24.18.857,Simcolourproject_2stim_asymm_v5,2020.2.10,MacIntel,60,61025ae37ef11b136ea224fe,,,,,,,,,3258,37.17578125,-78.7890625,1,0,0,response3disk,,4,6.99609375,2.3828125,1,0,0,rectangle,6.99609375,2.3828125,1,0,0,,,,,,,6.99609375,2.3828125,1,0,0,,0,106,106,37,1,
,,,,,,,,,,,,,FF,,,,,,,,1.016345,,,,,,,,,,,,,,,,,,,,,,60fe258a910eeef6399a574d,61036fef11bc5a6b8b2646ca,2021-07-29_22h24.18.857,Simcolourproject_2stim_asymm_v5,2020.2.10,MacIntel,60,61025ae37ef11b136ea224fe,,,,,,,,,2785,48.9609375,-78.0546875,1,0,0,response3disk,,4,13.36328125,0.55078125,1,0,0,rectangle,13.36328125,0.55078125,1,0,0,,,,,,,13.36328125,0.55078125,1,0,0,,0,107,107,47,1,
,,,,,,,,,,,,,FF,,,,,,,,4.268375,,,,,,,,,,,,,,,,,,,,,,60fe258a910eeef6399a574d,61036fef11bc5a6b8b2646ca,2021-07-29_22h24.18.857,Simcolourproject_2stim_asymm_v5,2020.2.10,MacIntel,60,61025ae37ef11b136ea224fe,,,,,,,,,3840,36.39453125,-84.19140625,1,0,0,response3disk,,4,5.484375,2.0859375,1,0,0,rectangle,5.484375,2.0859375,1,0,0,,,,,,,5.484375,2.0859375,1,0,0,,0,108,108,117,1,
,,,,,,,,,,,,,FF,,,,,,,,1.533005,,,,,,,,,,,,,,,,,,,,,,60fe258a910eeef6399a574d,61036fef11bc5a6b8b2646ca,2021-07-29_22h24.18.857,Simcolourproject_2stim_asymm_v5,2020.2.10,MacIntel,60,61025ae37ef11b136ea224fe,,,,,,,,,1948,91.078125,34.57421875,1,0,0,response1disk,,6,7.0390625,-3.7109375,1,0,0,rectangle,7.0390625,-3.7109375,1,0,0,,,,,,,7.0390625,-3.7109375,1,0,0,,0,109,109,123,1,
,,,,,,,,,,,,,FF,,,,,,,,1.66616,,,,,,,,,,,,,,,,,,,,,,60fe258a910eeef6399a574d,61036fef11bc5a6b8b2646ca,2021-07-29_22h24.18.857,Simcolourproject_2stim_asymm_v5,2020.2.10,MacIntel,60,61025ae37ef11b136ea224fe,,,,,,,,,2020,98.0078125,48.14453125,1,0,0,response1disk,,6,12.5859375,-5.1953125,1,0,0,rectangle,12.5859375,-5.1953125,1,0,0,,,,,,,12.5859375,-5.1953125,1,0,0,,0,110,110,7,1,
,,,,,,,,,,,,,FF,,,,,,,,2.26527,,,,,,,,,,,,,,,,,,,,,,60fe258a910eeef6399a574d,61036fef11bc5a6b8b2646ca,2021-07-29_22h24.18.857,Simcolourproject_2stim_asymm_v5,2020.2.10,MacIntel,60,61025ae37ef11b136ea224fe,,,,,,,,,933,72.8671875,32.94921875,1,0,0,response1disk,,6,9.875,-7.25,1,0,0,rectangle,9.875,-7.25,1,0,0,,,,,,,9.875,-7.25,1,0,0,,0,111,111,148,1,
,,,,,,,,,,,,,FF,,,,,,,,0.701615,,,,,,,,,,,,,,,,,,,,,,60fe258a910eeef6399a574d,61036fef11bc5a6b8b2646ca,2021-07-29_22h24.18.857,Simcolourproject_2stim_asymm_v5,2020.2.10,MacIntel,60,61025ae37ef11b136ea224fe,,,,,,,,,2504,32.68359375,77.8046875,1,0,0,response1disk,,7,-0.06640625,2.21484375,1,0,0,rectangle,-0.06640625,2.21484375,1,0,0,,,,,,,-0.06640625,2.21484375,1,0,0,,0,112,112,0,1,
,,,,,,,,,,,,,FF,,,,,,,,5.34938,,,,,,,,,,,,,,,,,,,,,,60fe258a910eeef6399a574d,61036fef11bc5a6b8b2646ca,2021-07-29_22h24.18.857,Simcolourproject_2stim_asymm_v5,2020.2.10,MacIntel,60,61025ae37ef11b136ea224fe,,,,,,,,,1023,114.2773438,38.26953125,1,0,0,response1disk,,6,5.57421875,-3.43359375,1,0,0,rectangle,5.57421875,-3.43359375,1,0,0,,,,,,,5.57421875,-3.43359375,1,0,0,,0,113,113,71,1,
,,,,,,,,,,,,,FF,,,,,,,,0.815335,,,,,,,,,,,,,,,,,,,,,,60fe258a910eeef6399a574d,61036fef11bc5a6b8b2646ca,2021-07-29_22h24.18.857,Simcolourproject_2stim_asymm_v5,2020.2.10,MacIntel,60,61025ae37ef11b136ea224fe,,,,,,,,,3950,-30.2421875,-76.41015625,1,0,0,response5disk,,3,2.54296875,0.6171875,1,0,0,rectangle,2.54296875,0.6171875,1,0,0,,,,,,,2.54296875,0.6171875,1,0,0,,0,114,114,133,1,
,,,,,,,,,,,,,FF,,,,,,,,1.11516,,,,,,,,,,,,,,,,,,,,,,60fe258a910eeef6399a574d,61036fef11bc5a6b8b2646ca,2021-07-29_22h24.18.857,Simcolourproject_2stim_asymm_v5,2020.2.10,MacIntel,60,61025ae37ef11b136ea224fe,,,,,,,,,4194,-40.3046875,-73.4609375,1,0,0,response5disk,,3,-5.01953125,10.4609375,1,0,0,rectangle,-5.01953125,10.4609375,1,0,0,,,,,,,-5.01953125,10.4609375,1,0,0,,0,115,115,126,1,
,,,,,,,,,,,,,FF,,,,,,,,0.850845,,,,,,,,,,,,,,,,,,,,,,60fe258a910eeef6399a574d,61036fef11bc5a6b8b2646ca,2021-07-29_22h24.18.857,Simcolourproject_2stim_asymm_v5,2020.2.10,MacIntel,60,61025ae37ef11b136ea224fe,,,,,,,,,4058,-38.96875,-67.57421875,1,0,0,response5disk,,3,-12.99609375,-4.42578125,1,0,0,rectangle,-12.99609375,-4.42578125,1,0,0,,,,,,,-12.99609375,-4.42578125,1,0,0,,0,116,116,13,1,
,,,,,,,,,,,,,FF,,,,,,,,0.96726,,,,,,,,,,,,,,,,,,,,,,60fe258a910eeef6399a574d,61036fef11bc5a6b8b2646ca,2021-07-29_22h24.18.857,Simcolourproject_2stim_asymm_v5,2020.2.10,MacIntel,60,61025ae37ef11b136ea224fe,,,,,,,,,1269,61.37890625,-87.453125,1,0,0,response3disk,,4,10.70703125,3.87890625,1,0,0,rectangle,10.70703125,3.87890625,1,0,0,,,,,,,10.70703125,3.87890625,1,0,0,,0,117,117,73,1,
,,,,,,,,,,,,,FF,,,,,,,,0.967445,,,,,,,,,,,,,,,,,,,,,,60fe258a910eeef6399a574d,61036fef11bc5a6b8b2646ca,2021-07-29_22h24.18.857,Simcolourproject_2stim_asymm_v5,2020.2.10,MacIntel,60,61025ae37ef11b136ea224fe,,,,,,,,,4120,-92.19140625,-46.40625,1,0,0,response5disk,,2,-0.49609375,-4.7109375,1,0,0,rectangle,-0.49609375,-4.7109375,1,0,0,,,,,,,-0.49609375,-4.7109375,1,0,0,,0,118,118,79,1,
,,,,,,,,,,,,,FF,,,,,,,,10.100755,,,,,,,,,,,,,,,,,,,,,,60fe258a910eeef6399a574d,61036fef11bc5a6b8b2646ca,2021-07-29_22h24.18.857,Simcolourproject_2stim_asymm_v5,2020.2.10,MacIntel,60,61025ae37ef11b136ea224fe,,,,,,,,,130,36.6171875,-80.74609375,1,0,0,response3disk,,4,5.125,-3.48046875,1,0,0,rectangle,5.125,-3.48046875,1,0,0,,,,,,,5.125,-3.48046875,1,0,0,,0,119,119,67,1,
,,,,,,,,,,,,,FF,,,,,,,,0.883065,,,,,,,,,,,,,,,,,,,,,,60fe258a910eeef6399a574d,61036fef11bc5a6b8b2646ca,2021-07-29_22h24.18.857,Simcolourproject_2stim_asymm_v5,2020.2.10,MacIntel,60,61025ae37ef11b136ea224fe,,,,,,,,,1350,90.26953125,-39.6796875,1,0,0,response3disk,,5,6.2109375,9.14453125,1,0,0,rectangle,-21.4921875,88.9375,1,0,0,response7disk_3,TRUE,0,0,"[178,186,150,192,61,256,121,85,123,230,236,195,171,201,1,170,37,16,306,144]",1.40184,-2.4921875,-3.2734375,1,0,0,rectangle,0,120,120,92,1,
,,,,,,,,,,,,,FF,,,,,,,,1.015465,,,,,,,,,,,,,,,,,,,,,,60fe258a910eeef6399a574d,61036fef11bc5a6b8b2646ca,2021-07-29_22h24.18.857,Simcolourproject_2stim_asymm_v5,2020.2.10,MacIntel,60,61025ae37ef11b136ea224fe,,,,,,,,,65,-70.66796875,-46.00390625,1,0,0,response5disk,,2,-0.58203125,-14.48046875,1,0,0,rectangle,-0.58203125,-14.48046875,1,0,0,,,,,,,-0.58203125,-14.48046875,1,0,0,,0,121,121,144,1,
,,,,,,,,,,,,,FF,,,,,,,,0.934565,,,,,,,,,,,,,,,,,,,,,,60fe258a910eeef6399a574d,61036fef11bc5a6b8b2646ca,2021-07-29_22h24.18.857,Simcolourproject_2stim_asymm_v5,2020.2.10,MacIntel,60,61025ae37ef11b136ea224fe,,,,,,,,,3941,48.375,-75.7109375,1,0,0,response3disk,,4,15.27734375,-4.234375,1,0,0,rectangle,-32.70703125,-94.53515625,1,0,0,response5disk_3,TRUE,3,3,"[178,186,150,192,61,256,121,85,123,230,236,195,171,201,1,170,37,16,306,144]",2.3324,2.484375,5,1,0,0,rectangle,0,122,122,158,1,
,,,,,,,,,,,,,FF,,,,,,,,1.116795,,,,,,,,,,,,,,,,,,,,,,60fe258a910eeef6399a574d,61036fef11bc5a6b8b2646ca,2021-07-29_22h24.18.857,Simcolourproject_2stim_asymm_v5,2020.2.10,MacIntel,60,61025ae37ef11b136ea224fe,,,,,,,,,1895,-80.58984375,-58.3671875,1,0,0,response5disk,,2,-2.9765625,2.609375,1,0,0,rectangle,-2.9765625,2.609375,1,0,0,,,,,,,-2.9765625,2.609375,1,0,0,,0,123,123,104,1,
,,,,,,,,,,,,,FF,,,,,,,,0.98556,,,,,,,,,,,,,,,,,,,,,,60fe258a910eeef6399a574d,61036fef11bc5a6b8b2646ca,2021-07-29_22h24.18.857,Simcolourproject_2stim_asymm_v5,2020.2.10,MacIntel,60,61025ae37ef11b136ea224fe,,,,,,,,,62,66.734375,-36.82421875,1,0,0,response3disk,,5,9.5859375,1.8828125,1,0,0,rectangle,9.5859375,1.8828125,1,0,0,,,,,,,9.5859375,1.8828125,1,0,0,,0,124,124,85,1,
,,,,,,,,,,,,,FF,,,,,,,,1.21637,,,,,,,,,,,,,,,,,,,,,,60fe258a910eeef6399a574d,61036fef11bc5a6b8b2646ca,2021-07-29_22h24.18.857,Simcolourproject_2stim_asymm_v5,2020.2.10,MacIntel,60,61025ae37ef11b136ea224fe,,,,,,,,,4121,53.41015625,-92.46484375,1,0,0,response3disk,,4,-4.36328125,-4.94921875,1,0,0,rectangle,-4.36328125,-4.94921875,1,0,0,,,,,,,-4.36328125,-4.94921875,1,0,0,,0,125,125,19,1,
,,,,,,,,,,,,,FF,,,,,,,,1.97201,,,,,,,,,,,,,,,,,,,,,,60fe258a910eeef6399a574d,61036fef11bc5a6b8b2646ca,2021-07-29_22h24.18.857,Simcolourproject_2stim_asymm_v5,2020.2.10,MacIntel,60,61025ae37ef11b136ea224fe,,,,,,,,,2673,91.296875,-49.6015625,1,0,0,response3disk,,5,10.90625,-4.50390625,1,0,0,rectangle,10.90625,-4.50390625,1,0,0,,,,,,,10.90625,-4.50390625,1,0,0,,0,126,126,159,1,
,,,,,,,,,,,,,FF,,,,,,,,1.33319,,,,,,,,,,,,,,,,,,,,,,60fe258a910eeef6399a574d,61036fef11bc5a6b8b2646ca,2021-07-29_22h24.18.857,Simcolourproject_2stim_asymm_v5,2020.2.10,MacIntel,60,61025ae37ef11b136ea224fe,,,,,,,,,327,43.5859375,95.55078125,1,0,0,response1disk,,7,2.734375,-1.52734375,1,0,0,rectangle,2.734375,-1.52734375,1,0,0,,,,,,,2.734375,-1.52734375,1,0,0,,0,127,127,72,1,
,,,,,,,,,,,,,FF,,,,,,,,1.0836,,,,,,,,,,,,,,,,,,,,,,60fe258a910eeef6399a574d,61036fef11bc5a6b8b2646ca,2021-07-29_22h24.18.857,Simcolourproject_2stim_asymm_v5,2020.2.10,MacIntel,60,61025ae37ef11b136ea224fe,,,,,,,,,1881,52.9375,120.1289063,1,0,0,response1disk,,7,8.6875,-12.84375,1,0,0,rectangle,8.6875,-12.84375,1,0,0,,,,,,,8.6875,-12.84375,1,0,0,,0,128,128,49,1,
,,,,,,,,,,,,,FF,,,,,,,,1.648525,,,,,,,,,,,,,,,,,,,,,,60fe258a910eeef6399a574d,61036fef11bc5a6b8b2646ca,2021-07-29_22h24.18.857,Simcolourproject_2stim_asymm_v5,2020.2.10,MacIntel,60,61025ae37ef11b136ea224fe,,,,,,,,,1078,87.53125,-37.19921875,1,0,0,response3disk,,5,-3.6015625,-1.92578125,1,0,0,rectangle,-3.6015625,-1.92578125,1,0,0,,,,,,,-3.6015625,-1.92578125,1,0,0,,0,129,129,98,1,
,,,,,,,,,,,,,FF,,,,,,,,1.352305,,,,,,,,,,,,,,,,,,,,,,60fe258a910eeef6399a574d,61036fef11bc5a6b8b2646ca,2021-07-29_22h24.18.857,Simcolourproject_2stim_asymm_v5,2020.2.10,MacIntel,60,61025ae37ef11b136ea224fe,,,,,,,,,2532,77.21484375,-24.859375,1,0,0,response3disk,,5,11.58984375,2.06640625,1,0,0,rectangle,11.58984375,2.06640625,1,0,0,,,,,,,11.58984375,2.06640625,1,0,0,,0,130,130,82,1,
,,,,,,,,,,,,,FF,,,,,,,,1.06556,,,,,,,,,,,,,,,,,,,,,,60fe258a910eeef6399a574d,61036fef11bc5a6b8b2646ca,2021-07-29_22h24.18.857,Simcolourproject_2stim_asymm_v5,2020.2.10,MacIntel,60,61025ae37ef11b136ea224fe,,,,,,,,,1770,43.83984375,82.3125,1,0,0,response1disk,,7,17.703125,2.08984375,1,0,0,rectangle,17.703125,2.08984375,1,0,0,,,,,,,17.703125,2.08984375,1,0,0,,0,131,131,24,1,
,,,,,,,,,,,,,FF,,,,,,,,0.785095,,,,,,,,,,,,,,,,,,,,,,60fe258a910eeef6399a574d,61036fef11bc5a6b8b2646ca,2021-07-29_22h24.18.857,Simcolourproject_2stim_asymm_v5,2020.2.10,MacIntel,60,61025ae37ef11b136ea224fe,,,,,,,,,3730,40.08984375,61.875,1,0,0,response1disk,,7,-1.78125,-7.3984375,1,0,0,rectangle,-1.78125,-7.3984375,1,0,0,,,,,,,-1.78125,-7.3984375,1,0,0,,0,132,132,74,1,
,,,,,,,,,,,,,FF,,,,,,,,1.08238,,,,,,,,,,,,,,,,,,,,,,60fe258a910eeef6399a574d,61036fef11bc5a6b8b2646ca,2021-07-29_22h24.18.857,Simcolourproject_2stim_asymm_v5,2020.2.10,MacIntel,60,61025ae37ef11b136ea224fe,,,,,,,,,505,74.53125,26.52734375,1,0,0,response1disk,,6,-4.109375,0.62890625,1,0,0,rectangle,-4.109375,0.62890625,1,0,0,,,,,,,-4.109375,0.62890625,1,0,0,,0,133,133,66,1,
,,,,,,,,,,,,,FF,,,,,,,,1.133375,,,,,,,,,,,,,,,,,,,,,,60fe258a910eeef6399a574d,61036fef11bc5a6b8b2646ca,2021-07-29_22h24.18.857,Simcolourproject_2stim_asymm_v5,2020.2.10,MacIntel,60,61025ae37ef11b136ea224fe,,,,,,,,,3227,35.11328125,92.671875,1,0,0,response1disk,,7,-5.9140625,-7.63671875,1,0,0,rectangle,-5.9140625,-7.63671875,1,0,0,,,,,,,-5.9140625,-7.63671875,1,0,0,,0,134,134,130,1,
,,,,,,,,,,,,,FF,,,,,,,,1.552225,,,,,,,,,,,,,,,,,,,,,,60fe258a910eeef6399a574d,61036fef11bc5a6b8b2646ca,2021-07-29_22h24.18.857,Simcolourproject_2stim_asymm_v5,2020.2.10,MacIntel,60,61025ae37ef11b136ea224fe,,,,,,,,,1272,85.453125,29.265625,1,0,0,response1disk,,6,10.47265625,5.19140625,1,0,0,rectangle,10.47265625,5.19140625,1,0,0,,,,,,,10.47265625,5.19140625,1,0,0,,0,135,135,12,1,
,,,,,,,,,,,,,FF,,,,,,,,1.48362,,,,,,,,,,,,,,,,,,,,,,60fe258a910eeef6399a574d,61036fef11bc5a6b8b2646ca,2021-07-29_22h24.18.857,Simcolourproject_2stim_asymm_v5,2020.2.10,MacIntel,60,61025ae37ef11b136ea224fe,,,,,,,,,4274,49.6796875,-87.33203125,1,0,0,response3disk,,4,-1.765625,3.95703125,1,0,0,rectangle,-1.765625,3.95703125,1,0,0,,,,,,,-1.765625,3.95703125,1,0,0,,0,136,136,23,1,
,,,,,,,,,,,,,FF,,,,,,,,1.135145,,,,,,,,,,,,,,,,,,,,,,60fe258a910eeef6399a574d,61036fef11bc5a6b8b2646ca,2021-07-29_22h24.18.857,Simcolourproject_2stim_asymm_v5,2020.2.10,MacIntel,60,61025ae37ef11b136ea224fe,,,,,,,,,4283,-34.890625,-94.9453125,1,0,0,response5disk,,3,-6.6640625,-2.73046875,1,0,0,rectangle,-6.6640625,-2.73046875,1,0,0,,,,,,,-6.6640625,-2.73046875,1,0,0,,0,137,137,96,1,
,,,,,,,,,,,,,FF,,,,,,,,1.16583,,,,,,,,,,,,,,,,,,,,,,60fe258a910eeef6399a574d,61036fef11bc5a6b8b2646ca,2021-07-29_22h24.18.857,Simcolourproject_2stim_asymm_v5,2020.2.10,MacIntel,60,61025ae37ef11b136ea224fe,,,,,,,,,4049,-81.6484375,-52.90625,1,0,0,response5disk,,2,-3.921875,-8.4296875,1,0,0,rectangle,-3.921875,-8.4296875,1,0,0,,,,,,,-3.921875,-8.4296875,1,0,0,,0,138,138,33,1,
,,,,,,,,,,,,,FF,,,,,,,,0.866895,,,,,,,,,,,,,,,,,,,,,,60fe258a910eeef6399a574d,61036fef11bc5a6b8b2646ca,2021-07-29_22h24.18.857,Simcolourproject_2stim_asymm_v5,2020.2.10,MacIntel,60,61025ae37ef11b136ea224fe,,,,,,,,,3953,39.2890625,-90.10546875,1,0,0,response3disk,,4,2.0078125,4.41796875,1,0,0,rectangle,2.0078125,4.41796875,1,0,0,,,,,,,2.0078125,4.41796875,1,0,0,,0,139,139,90,1,
,,,,,,,,,,,,,FF,,,,,,,,0.949155,,,,,,,,,,,,,,,,,,,,,,60fe258a910eeef6399a574d,61036fef11bc5a6b8b2646ca,2021-07-29_22h24.18.857,Simcolourproject_2stim_asymm_v5,2020.2.10,MacIntel,60,61025ae37ef11b136ea224fe,,,,,,,,,2045,31.88671875,-95.546875,1,0,0,response3disk,,4,3.828125,-13.39453125,1,0,0,rectangle,3.828125,-13.39453125,1,0,0,,,,,,,3.828125,-13.39453125,1,0,0,,0,140,140,141,1,
,,,,,,,,,,,,,FF,,,,,,,,0.78498,,,,,,,,,,,,,,,,,,,,,,60fe258a910eeef6399a574d,61036fef11bc5a6b8b2646ca,2021-07-29_22h24.18.857,Simcolourproject_2stim_asymm_v5,2020.2.10,MacIntel,60,61025ae37ef11b136ea224fe,,,,,,,,,1167,85.38671875,-39.94921875,1,0,0,response3disk,,5,10.0546875,0.2578125,1,0,0,rectangle,10.0546875,0.2578125,1,0,0,,,,,,,10.0546875,0.2578125,1,0,0,,0,141,141,69,1,
,,,,,,,,,,,,,FF,,,,,,,,0.999925,,,,,,,,,,,,,,,,,,,,,,60fe258a910eeef6399a574d,61036fef11bc5a6b8b2646ca,2021-07-29_22h24.18.857,Simcolourproject_2stim_asymm_v5,2020.2.10,MacIntel,60,61025ae37ef11b136ea224fe,,,,,,,,,4052,-84.26171875,-57.125,1,0,0,response5disk,,2,-4.31640625,-14.828125,1,0,0,rectangle,-4.31640625,-14.828125,1,0,0,,,,,,,-4.31640625,-14.828125,1,0,0,,0,142,142,61,1,
,,,,,,,,,,,,,FF,,,,,,,,0.818095,,,,,,,,,,,,,,,,,,,,,,60fe258a910eeef6399a574d,61036fef11bc5a6b8b2646ca,2021-07-29_22h24.18.857,Simcolourproject_2stim_asymm_v5,2020.2.10,MacIntel,60,61025ae37ef11b136ea224fe,,,,,,,,,2775,-38.71875,73.09375,1,0,0,response7disk,,0,7.3515625,-0.546875,1,0,0,rectangle,106.2109375,43.8046875,1,0,0,response1disk_3,TRUE,6,6,"[178,186,150,192,61,256,121,85,123,230,236,195,171,201,1,170,37,16,306,144]",1.9346,3.63671875,-2.37109375,1,0,0,rectangle,0,143,143,101,1,
,,,,,,,,,,,,,FF,,,,,,,,1.482225,,,,,,,,,,,,,,,,,,,,,,60fe258a910eeef6399a574d,61036fef11bc5a6b8b2646ca,2021-07-29_22h24.18.857,Simcolourproject_2stim_asymm_v5,2020.2.10,MacIntel,60,61025ae37ef11b136ea224fe,,,,,,,,,1530,-82.421875,-45.19140625,1,0,0,response5disk,,2,3.0859375,-4.15625,1,0,0,rectangle,3.0859375,-4.15625,1,0,0,,,,,,,3.0859375,-4.15625,1,0,0,,0,144,144,46,1,
,,,,,,,,,,,,,FF,,,,,,,,0.915345,,,,,,,,,,,,,,,,,,,,,,60fe258a910eeef6399a574d,61036fef11bc5a6b8b2646ca,2021-07-29_22h24.18.857,Simcolourproject_2stim_asymm_v5,2020.2.10,MacIntel,60,61025ae37ef11b136ea224fe,,,,,,,,,2425,-86.796875,-46.4375,1,0,0,response5disk,,2,-2.50390625,-9.6953125,1,0,0,rectangle,-2.50390625,-9.6953125,1,0,0,,,,,,,-2.50390625,-9.6953125,1,0,0,,0,145,145,86,1,
,,,,,,,,,,,,,FF,,,,,,,,1.216845,,,,,,,,,,,,,,,,,,,,,,60fe258a910eeef6399a574d,61036fef11bc5a6b8b2646ca,2021-07-29_22h24.18.857,Simcolourproject_2stim_asymm_v5,2020.2.10,MacIntel,60,61025ae37ef11b136ea224fe,,,,,,,,,1822,-76.54296875,23.1875,1,0,0,response7disk,,1,10.36328125,-5.18359375,1,0,0,rectangle,10.36328125,-5.18359375,1,0,0,,,,,,,10.36328125,-5.18359375,1,0,0,,0,146,146,99,1,
,,,,,,,,,,,,,FF,,,,,,,,0.7321,,,,,,,,,,,,,,,,,,,,,,60fe258a910eeef6399a574d,61036fef11bc5a6b8b2646ca,2021-07-29_22h24.18.857,Simcolourproject_2stim_asymm_v5,2020.2.10,MacIntel,60,61025ae37ef11b136ea224fe,,,,,,,,,1131,-31.171875,94.7265625,1,0,0,response7disk,,0,0.92578125,5.484375,1,0,0,rectangle,0.92578125,5.484375,1,0,0,,,,,,,0.92578125,5.484375,1,0,0,,0,147,147,83,1,
,,,,,,,,,,,,,FF,,,,,,,,1.098625,,,,,,,,,,,,,,,,,,,,,,60fe258a910eeef6399a574d,61036fef11bc5a6b8b2646ca,2021-07-29_22h24.18.857,Simcolourproject_2stim_asymm_v5,2020.2.10,MacIntel,60,61025ae37ef11b136ea224fe,,,,,,,,,1855,40.234375,-86.26171875,1,0,0,response3disk,,4,4.02734375,-5.55859375,1,0,0,rectangle,4.02734375,-5.55859375,1,0,0,,,,,,,4.02734375,-5.55859375,1,0,0,,0,148,148,139,1,
,,,,,,,,,,,,,FF,,,,,,,,0.78338,,,,,,,,,,,,,,,,,,,,,,60fe258a910eeef6399a574d,61036fef11bc5a6b8b2646ca,2021-07-29_22h24.18.857,Simcolourproject_2stim_asymm_v5,2020.2.10,MacIntel,60,61025ae37ef11b136ea224fe,,,,,,,,,4337,-34.48828125,-89.33203125,1,0,0,response5disk,,3,1.015625,5.26953125,1,0,0,rectangle,51.953125,96.43359375,1,0,0,response1disk_3,TRUE,7,7,"[178,186,150,192,61,256,121,85,123,230,236,195,171,201,1,170,37,16,306,144]",2.13307,2.84375,-4.796875,1,0,0,rectangle,0,149,149,127,1,
,,,,,,,,,,,,,FF,,,,,,,,1.1834,,,,,,,,,,,,,,,,,,,,,,60fe258a910eeef6399a574d,61036fef11bc5a6b8b2646ca,2021-07-29_22h24.18.857,Simcolourproject_2stim_asymm_v5,2020.2.10,MacIntel,60,61025ae37ef11b136ea224fe,,,,,,,,,3104,-31.1328125,-86.62890625,1,0,0,response5disk,,3,5.578125,-5.5078125,1,0,0,rectangle,5.578125,-5.5078125,1,0,0,,,,,,,5.578125,-5.5078125,1,0,0,,0,150,150,93,1,
,,,,,,,,,,,,,FF,,,,,,,,1.900935,,,,,,,,,,,,,,,,,,,,,,60fe258a910eeef6399a574d,61036fef11bc5a6b8b2646ca,2021-07-29_22h24.18.857,Simcolourproject_2stim_asymm_v5,2020.2.10,MacIntel,60,61025ae37ef11b136ea224fe,,,,,,,,,2194,58.41015625,-88.3203125,1,0,0,response3disk,,4,5.28125,0.12109375,1,0,0,rectangle,5.28125,0.12109375,1,0,0,,,,,,,5.28125,0.12109375,1,0,0,,0,151,151,132,1,
,,,,,,,,,,,,,FF,,,,,,,,0.949435,,,,,,,,,,,,,,,,,,,,,,60fe258a910eeef6399a574d,61036fef11bc5a6b8b2646ca,2021-07-29_22h24.18.857,Simcolourproject_2stim_asymm_v5,2020.2.10,MacIntel,60,61025ae37ef11b136ea224fe,,,,,,,,,2418,-83.4765625,38.94921875,1,0,0,response7disk,,1,14.0859375,-3.453125,1,0,0,rectangle,14.0859375,-3.453125,1,0,0,,,,,,,14.0859375,-3.453125,1,0,0,,0,152,152,40,1,
,,,,,,,,,,,,,FF,,,,,,,,1.01532,,,,,,,,,,,,,,,,,,,,,,60fe258a910eeef6399a574d,61036fef11bc5a6b8b2646ca,2021-07-29_22h24.18.857,Simcolourproject_2stim_asymm_v5,2020.2.10,MacIntel,60,61025ae37ef11b136ea224fe,,,,,,,,,3981,-39.08984375,-76.94921875,1,0,0,response5disk,,3,1.15625,3.7265625,1,0,0,rectangle,1.15625,3.7265625,1,0,0,,,,,,,1.15625,3.7265625,1,0,0,,0,153,153,135,1,
,,,,,,,,,,,,,FF,,,,,,,,1.368425,,,,,,,,,,,,,,,,,,,,,,60fe258a910eeef6399a574d,61036fef11bc5a6b8b2646ca,2021-07-29_22h24.18.857,Simcolourproject_2stim_asymm_v5,2020.2.10,MacIntel,60,61025ae37ef11b136ea224fe,,,,,,,,,2288,-82.22265625,-44.671875,1,0,0,response5disk,,2,4.82421875,-4.22265625,1,0,0,rectangle,4.82421875,-4.22265625,1,0,0,,,,,,,4.82421875,-4.22265625,1,0,0,,0,154,154,142,1,
,,,,,,,,,,,,,FF,,,,,,,,0.8851,,,,,,,,,,,,,,,,,,,,,,60fe258a910eeef6399a574d,61036fef11bc5a6b8b2646ca,2021-07-29_22h24.18.857,Simcolourproject_2stim_asymm_v5,2020.2.10,MacIntel,60,61025ae37ef11b136ea224fe,,,,,,,,,3557,-31.33984375,-78.06640625,1,0,0,response5disk,,3,4.84765625,2.6875,1,0,0,rectangle,4.84765625,2.6875,1,0,0,,,,,,,4.84765625,2.6875,1,0,0,,0,155,155,111,1,
,,,,,,,,,,,,,FF,,,,,,,,1.200345,,,,,,,,,,,,,,,,,,,,,,60fe258a910eeef6399a574d,61036fef11bc5a6b8b2646ca,2021-07-29_22h24.18.857,Simcolourproject_2stim_asymm_v5,2020.2.10,MacIntel,60,61025ae37ef11b136ea224fe,,,,,,,,,1027,84.81640625,-54.9609375,1,0,0,response3disk,,5,7.51953125,-4.13671875,1,0,0,rectangle,7.51953125,-4.13671875,1,0,0,,,,,,,7.51953125,-4.13671875,1,0,0,,0,156,156,22,1,
,,,,,,,,,,,,,FF,,,,,,,,0.8652,,,,,,,,,,,,,,,,,,,,,,60fe258a910eeef6399a574d,61036fef11bc5a6b8b2646ca,2021-07-29_22h24.18.857,Simcolourproject_2stim_asymm_v5,2020.2.10,MacIntel,60,61025ae37ef11b136ea224fe,,,,,,,,,80,39.4609375,-90.0390625,1,0,0,response3disk,,4,-3.03515625,8.8828125,1,0,0,rectangle,-3.03515625,8.8828125,1,0,0,,,,,,,-3.03515625,8.8828125,1,0,0,,0,157,157,60,1,
,,,,,,,,,,,,,FF,,,,,,,,1.000045,,,,,,,,,,,,,,,,,,,,,,60fe258a910eeef6399a574d,61036fef11bc5a6b8b2646ca,2021-07-29_22h24.18.857,Simcolourproject_2stim_asymm_v5,2020.2.10,MacIntel,60,61025ae37ef11b136ea224fe,,,,,,,,,1226,-43.9296875,-88.94921875,1,0,0,response5disk,,3,1.59765625,5.78125,1,0,0,rectangle,1.59765625,5.78125,1,0,0,,,,,,,1.59765625,5.78125,1,0,0,,0,158,158,122,1,
,,,,,,,,,,,,,FF,,,,,,,,1.23299,,,,,,,,,,,,,,,,,,,,,,60fe258a910eeef6399a574d,61036fef11bc5a6b8b2646ca,2021-07-29_22h24.18.857,Simcolourproject_2stim_asymm_v5,2020.2.10,MacIntel,60,61025ae37ef11b136ea224fe,,,,,,,,,2829,47.79296875,-104.5859375,1,0,0,response3disk,,4,-2.828125,-8.9140625,1,0,0,rectangle,-2.828125,-8.9140625,1,0,0,,,,,,,-2.828125,-8.9140625,1,0,0,,0,159,159,44,1,
,,,,,,,,,,,,,FF,,,,,,,,0.932325,,,,,,,,,,,,,,,,,,,,,,60fe258a910eeef6399a574d,61036fef11bc5a6b8b2646ca,2021-07-29_22h24.18.857,Simcolourproject_2stim_asymm_v5,2020.2.10,MacIntel,60,61025ae37ef11b136ea224fe,,,,,,,,,2204,54.19140625,79.06640625,1,0,0,response1disk,,7,6.4375,-1.515625,1,0,0,rectangle,6.4375,-1.515625,1,0,0,,,,,,,6.4375,-1.515625,1,0,0,,1,0,160,77,1,
,,,,,,,,,,,,,FF,,,,,,,,0.899925,,,,,,,,,,,,,,,,,,,,,,60fe258a910eeef6399a574d,61036fef11bc5a6b8b2646ca,2021-07-29_22h24.18.857,Simcolourproject_2stim_asymm_v5,2020.2.10,MacIntel,60,61025ae37ef11b136ea224fe,,,,,,,,,1937,75.84765625,34.515625,1,0,0,response1disk,,6,-4.5390625,-1.13671875,1,0,0,rectangle,-4.5390625,-1.13671875,1,0,0,,,,,,,-4.5390625,-1.13671875,1,0,0,,1,1,161,146,1,
,,,,,,,,,,,,,FF,,,,,,,,0.782805,,,,,,,,,,,,,,,,,,,,,,60fe258a910eeef6399a574d,61036fef11bc5a6b8b2646ca,2021-07-29_22h24.18.857,Simcolourproject_2stim_asymm_v5,2020.2.10,MacIntel,60,61025ae37ef11b136ea224fe,,,,,,,,,3129,50.51171875,90.06640625,1,0,0,response1disk,,7,10.68359375,7.2578125,1,0,0,rectangle,10.68359375,7.2578125,1,0,0,,,,,,,10.68359375,7.2578125,1,0,0,,1,2,162,44,1,
,,,,,,,,,,,,,FF,,,,,,,,0.91742,,,,,,,,,,,,,,,,,,,,,,60fe258a910eeef6399a574d,61036fef11bc5a6b8b2646ca,2021-07-29_22h24.18.857,Simcolourproject_2stim_asymm_v5,2020.2.10,MacIntel,60,61025ae37ef11b136ea224fe,,,,,,,,,585,76.0703125,-49.85546875,1,0,0,response3disk,,5,5.91015625,-0.5078125,1,0,0,rectangle,5.91015625,-0.5078125,1,0,0,,,,,,,5.91015625,-0.5078125,1,0,0,,1,3,163,25,1,
,,,,,,,,,,,,,FF,,,,,,,,1.6659,,,,,,,,,,,,,,,,,,,,,,60fe258a910eeef6399a574d,61036fef11bc5a6b8b2646ca,2021-07-29_22h24.18.857,Simcolourproject_2stim_asymm_v5,2020.2.10,MacIntel,60,61025ae37ef11b136ea224fe,,,,,,,,,125,75.3828125,39.859375,1,0,0,response1disk,,6,-13.4921875,-7.67578125,1,0,0,rectangle,-13.4921875,-7.67578125,1,0,0,,,,,,,-13.4921875,-7.67578125,1,0,0,,1,4,164,81,1,
,,,,,,,,,,,,,FF,,,,,,,,1.0819,,,,,,,,,,,,,,,,,,,,,,60fe258a910eeef6399a574d,61036fef11bc5a6b8b2646ca,2021-07-29_22h24.18.857,Simcolourproject_2stim_asymm_v5,2020.2.10,MacIntel,60,61025ae37ef11b136ea224fe,,,,,,,,,3095,-44.015625,-95.75390625,1,0,0,response5disk,,3,2.89453125,5.32421875,1,0,0,rectangle,2.89453125,5.32421875,1,0,0,,,,,,,2.89453125,5.32421875,1,0,0,,1,5,165,30,1,
,,,,,,,,,,,,,FF,,,,,,,,0.76661,,,,,,,,,,,,,,,,,,,,,,60fe258a910eeef6399a574d,61036fef11bc5a6b8b2646ca,2021-07-29_22h24.18.857,Simcolourproject_2stim_asymm_v5,2020.2.10,MacIntel,60,61025ae37ef11b136ea224fe,,,,,,,,,993,83.359375,-36.109375,1,0,0,response3disk,,5,4.59375,10.0625,1,0,0,rectangle,4.59375,10.0625,1,0,0,,,,,,,4.59375,10.0625,1,0,0,,1,6,166,124,1,
,,,,,,,,,,,,,FF,,,,,,,,0.70021,,,,,,,,,,,,,,,,,,,,,,60fe258a910eeef6399a574d,61036fef11bc5a6b8b2646ca,2021-07-29_22h24.18.857,Simcolourproject_2stim_asymm_v5,2020.2.10,MacIntel,60,61025ae37ef11b136ea224fe,,,,,,,,,831,48.17578125,-72.8203125,1,0,0,response3disk,,4,9.57421875,-3.3125,1,0,0,rectangle,9.57421875,-3.3125,1,0,0,,,,,,,9.57421875,-3.3125,1,0,0,,1,7,167,155,1,
,,,,,,,,,,,,,FF,,,,,,,,0.818045,,,,,,,,,,,,,,,,,,,,,,60fe258a910eeef6399a574d,61036fef11bc5a6b8b2646ca,2021-07-29_22h24.18.857,Simcolourproject_2stim_asymm_v5,2020.2.10,MacIntel,60,61025ae37ef11b136ea224fe,,,,,,,,,3551,-39.36328125,80.28515625,1,0,0,response7disk,,0,-5.3359375,4.30859375,1,0,0,rectangle,-5.3359375,4.30859375,1,0,0,,,,,,,-5.3359375,4.30859375,1,0,0,,1,8,168,53,1,
,,,,,,,,,,,,,FF,,,,,,,,1.0503,,,,,,,,,,,,,,,,,,,,,,60fe258a910eeef6399a574d,61036fef11bc5a6b8b2646ca,2021-07-29_22h24.18.857,Simcolourproject_2stim_asymm_v5,2020.2.10,MacIntel,60,61025ae37ef11b136ea224fe,,,,,,,,,1910,41.1796875,-82.1875,1,0,0,response3disk,,4,7.8515625,3.375,1,0,0,rectangle,43.95703125,-91.26171875,1,0,0,response3disk_3,TRUE,4,4,"[178,186,150,192,61,256,121,85,123,230,236,195,171,201,1,170,37,16,306,144]",2.04951,-0.85546875,3.671875,1,0,0,rectangle,1,9,169,149,1,
,,,,,,,,,,,,,FF,,,,,,,,0.98473,,,,,,,,,,,,,,,,,,,,,,60fe258a910eeef6399a574d,61036fef11bc5a6b8b2646ca,2021-07-29_22h24.18.857,Simcolourproject_2stim_asymm_v5,2020.2.10,MacIntel,60,61025ae37ef11b136ea224fe,,,,,,,,,3439,-22.578125,-77.77734375,1,0,0,response5disk,,3,0.453125,-2.50390625,1,0,0,rectangle,-85.34375,-39.77734375,1,0,0,response5disk_3,TRUE,2,2,"[178,186,150,192,61,256,121,85,123,230,236,195,171,201,1,170,37,16,306,144]",2.234265,3.48046875,-3.7734375,1,0,0,rectangle,1,10,170,129,1,
,,,,,,,,,,,,,FF,,,,,,,,0.832785,,,,,,,,,,,,,,,,,,,,,,60fe258a910eeef6399a574d,61036fef11bc5a6b8b2646ca,2021-07-29_22h24.18.857,Simcolourproject_2stim_asymm_v5,2020.2.10,MacIntel,60,61025ae37ef11b136ea224fe,,,,,,,,,1214,-40.68359375,-98.9453125,1,0,0,response5disk,,3,-3.57421875,3.96484375,1,0,0,rectangle,-3.57421875,3.96484375,1,0,0,,,,,,,-3.57421875,3.96484375,1,0,0,,1,11,171,83,1,
,,,,,,,,,,,,,FF,,,,,,,,1.10002,,,,,,,,,,,,,,,,,,,,,,60fe258a910eeef6399a574d,61036fef11bc5a6b8b2646ca,2021-07-29_22h24.18.857,Simcolourproject_2stim_asymm_v5,2020.2.10,MacIntel,60,61025ae37ef11b136ea224fe,,,,,,,,,3889,-35.99609375,-86.65234375,1,0,0,response5disk,,3,-5.72265625,-2.87890625,1,0,0,rectangle,-5.72265625,-2.87890625,1,0,0,,,,,,,-5.72265625,-2.87890625,1,0,0,,1,12,172,76,1,
,,,,,,,,,,,,,FF,,,,,,,,0.85005,,,,,,,,,,,,,,,,,,,,,,60fe258a910eeef6399a574d,61036fef11bc5a6b8b2646ca,2021-07-29_22h24.18.857,Simcolourproject_2stim_asymm_v5,2020.2.10,MacIntel,60,61025ae37ef11b136ea224fe,,,,,,,,,2864,86.26171875,29.234375,1,0,0,response1disk,,6,7.23046875,-6.49609375,1,0,0,rectangle,7.23046875,-6.49609375,1,0,0,,,,,,,7.23046875,-6.49609375,1,0,0,,1,13,173,75,1,
,,,,,,,,,,,,,FF,,,,,,,,0.83528,,,,,,,,,,,,,,,,,,,,,,60fe258a910eeef6399a574d,61036fef11bc5a6b8b2646ca,2021-07-29_22h24.18.857,Simcolourproject_2stim_asymm_v5,2020.2.10,MacIntel,60,61025ae37ef11b136ea224fe,,,,,,,,,1173,81.3046875,-40.83203125,1,0,0,response3disk,,5,-5.921875,-4.25390625,1,0,0,rectangle,-5.921875,-4.25390625,1,0,0,,,,,,,-5.921875,-4.25390625,1,0,0,,1,14,174,85,1,
,,,,,,,,,,,,,FF,,,,,,,,0.917035,,,,,,,,,,,,,,,,,,,,,,60fe258a910eeef6399a574d,61036fef11bc5a6b8b2646ca,2021-07-29_22h24.18.857,Simcolourproject_2stim_asymm_v5,2020.2.10,MacIntel,60,61025ae37ef11b136ea224fe,,,,,,,,,4312,53.78125,76.90234375,1,0,0,response1disk,,7,4.9140625,4.58984375,1,0,0,rectangle,4.9140625,4.58984375,1,0,0,,,,,,,4.9140625,4.58984375,1,0,0,,1,15,175,89,1,
,,,,,,,,,,,,,FF,,,,,,,,0.85019,,,,,,,,,,,,,,,,,,,,,,60fe258a910eeef6399a574d,61036fef11bc5a6b8b2646ca,2021-07-29_22h24.18.857,Simcolourproject_2stim_asymm_v5,2020.2.10,MacIntel,60,61025ae37ef11b136ea224fe,,,,,,,,,2505,43.21875,98.25390625,1,0,0,response1disk,,7,-1.796875,-7.3046875,1,0,0,rectangle,-1.796875,-7.3046875,1,0,0,,,,,,,-1.796875,-7.3046875,1,0,0,,1,16,176,14,1,
,,,,,,,,,,,,,FF,,,,,,,,1.234535,,,,,,,,,,,,,,,,,,,,,,60fe258a910eeef6399a574d,61036fef11bc5a6b8b2646ca,2021-07-29_22h24.18.857,Simcolourproject_2stim_asymm_v5,2020.2.10,MacIntel,60,61025ae37ef11b136ea224fe,,,,,,,,,3881,43.39453125,-96.59375,1,0,0,response3disk,,4,9.421875,-8.140625,1,0,0,rectangle,-35.0546875,-99.60546875,1,0,0,response5disk_3,TRUE,3,3,"[178,186,150,192,61,256,121,85,123,230,236,195,171,201,1,170,37,16,306,144]",2.850515,4.3984375,0.2265625,1,0,0,rectangle,1,17,177,135,1,
,,,,,,,,,,,,,FF,,,,,,,,1.0339,,,,,,,,,,,,,,,,,,,,,,60fe258a910eeef6399a574d,61036fef11bc5a6b8b2646ca,2021-07-29_22h24.18.857,Simcolourproject_2stim_asymm_v5,2020.2.10,MacIntel,60,61025ae37ef11b136ea224fe,,,,,,,,,3607,46.67578125,-70.03125,1,0,0,response3disk,,4,8.25,-10.734375,1,0,0,rectangle,8.25,-10.734375,1,0,0,,,,,,,8.25,-10.734375,1,0,0,,1,18,178,64,1,
,,,,,,,,,,,,,FF,,,,,,,,1.09844,,,,,,,,,,,,,,,,,,,,,,60fe258a910eeef6399a574d,61036fef11bc5a6b8b2646ca,2021-07-29_22h24.18.857,Simcolourproject_2stim_asymm_v5,2020.2.10,MacIntel,60,61025ae37ef11b136ea224fe,,,,,,,,,3753,-21.44921875,-94.46484375,1,0,0,response5disk,,3,11.96875,3.23046875,1,0,0,rectangle,11.96875,3.23046875,1,0,0,,,,,,,11.96875,3.23046875,1,0,0,,1,19,179,92,1,
,,,,,,,,,,,,,FF,,,,,,,,0.69973,,,,,,,,,,,,,,,,,,,,,,60fe258a910eeef6399a574d,61036fef11bc5a6b8b2646ca,2021-07-29_22h24.18.857,Simcolourproject_2stim_asymm_v5,2020.2.10,MacIntel,60,61025ae37ef11b136ea224fe,,,,,,,,,1956,-29.94921875,90.7734375,1,0,0,response7disk,,0,-10.28515625,7.78515625,1,0,0,rectangle,-10.28515625,7.78515625,1,0,0,,,,,,,-10.28515625,7.78515625,1,0,0,,1,20,180,98,1,
,,,,,,,,,,,,,FF,,,,,,,,0.834555,,,,,,,,,,,,,,,,,,,,,,60fe258a910eeef6399a574d,61036fef11bc5a6b8b2646ca,2021-07-29_22h24.18.857,Simcolourproject_2stim_asymm_v5,2020.2.10,MacIntel,60,61025ae37ef11b136ea224fe,,,,,,,,,1245,-27.77734375,-74.14453125,1,0,0,response5disk,,3,-2.17578125,2.3984375,1,0,0,rectangle,-2.17578125,2.3984375,1,0,0,,,,,,,-2.17578125,2.3984375,1,0,0,,1,21,181,156,1,
,,,,,,,,,,,,,FF,,,,,,,,0.90002,,,,,,,,,,,,,,,,,,,,,,60fe258a910eeef6399a574d,61036fef11bc5a6b8b2646ca,2021-07-29_22h24.18.857,Simcolourproject_2stim_asymm_v5,2020.2.10,MacIntel,60,61025ae37ef11b136ea224fe,,,,,,,,,357,50.6015625,89.2734375,1,0,0,response1disk,,7,4.89453125,1.65234375,1,0,0,rectangle,4.89453125,1.65234375,1,0,0,,,,,,,4.89453125,1.65234375,1,0,0,,1,22,182,122,1,
,,,,,,,,,,,,,FF,,,,,,,,1.049885,,,,,,,,,,,,,,,,,,,,,,60fe258a910eeef6399a574d,61036fef11bc5a6b8b2646ca,2021-07-29_22h24.18.857,Simcolourproject_2stim_asymm_v5,2020.2.10,MacIntel,60,61025ae37ef11b136ea224fe,,,,,,,,,3738,33.62890625,-72.703125,1,0,0,response3disk,,4,3.8203125,-3.88671875,1,0,0,rectangle,3.8203125,-3.88671875,1,0,0,,,,,,,3.8203125,-3.88671875,1,0,0,,1,23,183,78,1,
,,,,,,,,,,,,,FF,,,,,,,,0.76857,,,,,,,,,,,,,,,,,,,,,,60fe258a910eeef6399a574d,61036fef11bc5a6b8b2646ca,2021-07-29_22h24.18.857,Simcolourproject_2stim_asymm_v5,2020.2.10,MacIntel,60,61025ae37ef11b136ea224fe,,,,,,,,,710,41.4609375,-81.6640625,1,0,0,response3disk,,4,3.4765625,-5.66015625,1,0,0,rectangle,3.4765625,-5.66015625,1,0,0,,,,,,,3.4765625,-5.66015625,1,0,0,,1,24,184,99,1,
,,,,,,,,,,,,,FF,,,,,,,,0.818185,,,,,,,,,,,,,,,,,,,,,,60fe258a910eeef6399a574d,61036fef11bc5a6b8b2646ca,2021-07-29_22h24.18.857,Simcolourproject_2stim_asymm_v5,2020.2.10,MacIntel,60,61025ae37ef11b136ea224fe,,,,,,,,,3820,-31.62890625,-73.0625,1,0,0,response5disk,,3,-3.97265625,5.63671875,1,0,0,rectangle,30.74609375,98.4765625,1,0,0,response1disk_3,TRUE,7,7,"[178,186,150,192,61,256,121,85,123,230,236,195,171,201,1,170,37,16,306,144]",1.76728,-2.17578125,-1.55078125,1,0,0,rectangle,1,25,185,59,1,
,,,,,,,,,,,,,FF,,,,,,,,0.965245,,,,,,,,,,,,,,,,,,,,,,60fe258a910eeef6399a574d,61036fef11bc5a6b8b2646ca,2021-07-29_22h24.18.857,Simcolourproject_2stim_asymm_v5,2020.2.10,MacIntel,60,61025ae37ef11b136ea224fe,,,,,,,,,2237,-39.57421875,-90.04296875,1,0,0,response5disk,,3,4.24609375,2.91015625,1,0,0,rectangle,4.24609375,2.91015625,1,0,0,,,,,,,4.24609375,2.91015625,1,0,0,,1,26,186,157,1,
,,,,,,,,,,,,,FF,,,,,,,,0.81497,,,,,,,,,,,,,,,,,,,,,,60fe258a910eeef6399a574d,61036fef11bc5a6b8b2646ca,2021-07-29_22h24.18.857,Simcolourproject_2stim_asymm_v5,2020.2.10,MacIntel,60,61025ae37ef11b136ea224fe,,,,,,,,,771,90.390625,-45.48828125,1,0,0,response3disk,,5,5.16015625,-6.8671875,1,0,0,rectangle,5.16015625,-6.8671875,1,0,0,,,,,,,5.16015625,-6.8671875,1,0,0,,1,27,187,147,1,
,,,,,,,,,,,,,FF,,,,,,,,0.865105,,,,,,,,,,,,,,,,,,,,,,60fe258a910eeef6399a574d,61036fef11bc5a6b8b2646ca,2021-07-29_22h24.18.857,Simcolourproject_2stim_asymm_v5,2020.2.10,MacIntel,60,61025ae37ef11b136ea224fe,,,,,,,,,2031,-62.41796875,-42.6640625,1,0,0,response5disk,,2,0.4453125,-1.42578125,1,0,0,rectangle,0.4453125,-1.42578125,1,0,0,,,,,,,0.4453125,-1.42578125,1,0,0,,1,28,188,134,1,
,,,,,,,,,,,,,FF,,,,,,,,1.383165,,,,,,,,,,,,,,,,,,,,,,60fe258a910eeef6399a574d,61036fef11bc5a6b8b2646ca,2021-07-29_22h24.18.857,Simcolourproject_2stim_asymm_v5,2020.2.10,MacIntel,60,61025ae37ef11b136ea224fe,,,,,,,,,2725,-36.26171875,-81.609375,1,0,0,response5disk,,3,-0.140625,-6.06640625,1,0,0,rectangle,-0.140625,-6.06640625,1,0,0,,,,,,,-0.140625,-6.06640625,1,0,0,,1,29,189,72,1,
,,,,,,,,,,,,,FF,,,,,,,,1.4657,,,,,,,,,,,,,,,,,,,,,,60fe258a910eeef6399a574d,61036fef11bc5a6b8b2646ca,2021-07-29_22h24.18.857,Simcolourproject_2stim_asymm_v5,2020.2.10,MacIntel,60,61025ae37ef11b136ea224fe,,,,,,,,,762,60.43359375,-31.30078125,1,0,0,response3disk,,5,6.6015625,-0.92578125,1,0,0,rectangle,6.6015625,-0.92578125,1,0,0,,,,,,,6.6015625,-0.92578125,1,0,0,,1,30,190,106,1,
,,,,,,,,,,,,,FF,,,,,,,,1.001115,,,,,,,,,,,,,,,,,,,,,,60fe258a910eeef6399a574d,61036fef11bc5a6b8b2646ca,2021-07-29_22h24.18.857,Simcolourproject_2stim_asymm_v5,2020.2.10,MacIntel,60,61025ae37ef11b136ea224fe,,,,,,,,,2699,78.48046875,38.28515625,1,0,0,response1disk,,6,-4.76171875,-2.7578125,1,0,0,rectangle,-36.890625,-88.63671875,1,0,0,response5disk_3,TRUE,3,3,"[178,186,150,192,61,256,121,85,123,230,236,195,171,201,1,170,37,16,306,144]",2.36603,-3.9375,-2.7890625,1,0,0,rectangle,1,31,191,105,1,
,,,,,,,,,,,,,FF,,,,,,,,3.21668,,,,,,,,,,,,,,,,,,,,,,60fe258a910eeef6399a574d,61036fef11bc5a6b8b2646ca,2021-07-29_22h24.18.857,Simcolourproject_2stim_asymm_v5,2020.2.10,MacIntel,60,61025ae37ef11b136ea224fe,,,,,,,,,4014,82.51171875,-34.44921875,1,0,0,response3disk,,5,4.91015625,1.3515625,1,0,0,rectangle,4.91015625,1.3515625,1,0,0,,,,,,,4.91015625,1.3515625,1,0,0,,1,32,192,6,1,
,,,,,,,,,,,,,FF,,,,,,,,0.91533,,,,,,,,,,,,,,,,,,,,,,60fe258a910eeef6399a574d,61036fef11bc5a6b8b2646ca,2021-07-29_22h24.18.857,Simcolourproject_2stim_asymm_v5,2020.2.10,MacIntel,60,61025ae37ef11b136ea224fe,,,,,,,,,863,96.90625,39.92578125,1,0,0,response1disk,,6,8.4765625,-5.53125,1,0,0,rectangle,8.4765625,-5.53125,1,0,0,,,,,,,8.4765625,-5.53125,1,0,0,,1,33,193,69,1,
,,,,,,,,,,,,,FF,,,,,,,,4.08296,,,,,,,,,,,,,,,,,,,,,,60fe258a910eeef6399a574d,61036fef11bc5a6b8b2646ca,2021-07-29_22h24.18.857,Simcolourproject_2stim_asymm_v5,2020.2.10,MacIntel,60,61025ae37ef11b136ea224fe,,,,,,,,,1808,89.63671875,40.8671875,1,0,0,response1disk,,6,8.37109375,-1.66796875,1,0,0,rectangle,-42.9375,90.74609375,1,0,0,response7disk_3,TRUE,0,0,"[178,186,150,192,61,256,121,85,123,230,236,195,171,201,1,170,37,16,306,144]",1.68217,4.51171875,0.04296875,1,0,0,rectangle,1,34,194,131,1,
,,,,,,,,,,,,,FF,,,,,,,,1.13402,,,,,,,,,,,,,,,,,,,,,,60fe258a910eeef6399a574d,61036fef11bc5a6b8b2646ca,2021-07-29_22h24.18.857,Simcolourproject_2stim_asymm_v5,2020.2.10,MacIntel,60,61025ae37ef11b136ea224fe,,,,,,,,,4294,-84.2578125,-49.7421875,1,0,0,response5disk,,2,11.3359375,3.2265625,1,0,0,rectangle,11.3359375,3.2265625,1,0,0,,,,,,,11.3359375,3.2265625,1,0,0,,1,35,195,55,1,
,,,,,,,,,,,,,FF,,,,,,,,0.816435,,,,,,,,,,,,,,,,,,,,,,60fe258a910eeef6399a574d,61036fef11bc5a6b8b2646ca,2021-07-29_22h24.18.857,Simcolourproject_2stim_asymm_v5,2020.2.10,MacIntel,60,61025ae37ef11b136ea224fe,,,,,,,,,3102,-37,-85.875,1,0,0,response5disk,,3,-2.83203125,-13.9140625,1,0,0,rectangle,-2.83203125,-13.9140625,1,0,0,,,,,,,-2.83203125,-13.9140625,1,0,0,,1,36,196,39,1,
,,,,,,,,,,,,,FF,,,,,,,,1.16487,,,,,,,,,,,,,,,,,,,,,,60fe258a910eeef6399a574d,61036fef11bc5a6b8b2646ca,2021-07-29_22h24.18.857,Simcolourproject_2stim_asymm_v5,2020.2.10,MacIntel,60,61025ae37ef11b136ea224fe,,,,,,,,,4083,-30.0234375,-94.41796875,1,0,0,response5disk,,3,5.2421875,-2.44921875,1,0,0,rectangle,5.2421875,-2.44921875,1,0,0,,,,,,,5.2421875,-2.44921875,1,0,0,,1,37,197,68,1,
,,,,,,,,,,,,,FF,,,,,,,,0.716755,,,,,,,,,,,,,,,,,,,,,,60fe258a910eeef6399a574d,61036fef11bc5a6b8b2646ca,2021-07-29_22h24.18.857,Simcolourproject_2stim_asymm_v5,2020.2.10,MacIntel,60,61025ae37ef11b136ea224fe,,,,,,,,,3770,-53.12890625,-89.8203125,1,0,0,response5disk,,3,-4.06640625,-5.2421875,1,0,0,rectangle,-4.06640625,-5.2421875,1,0,0,,,,,,,-4.06640625,-5.2421875,1,0,0,,1,38,198,26,1,
,,,,,,,,,,,,,FF,,,,,,,,0.78229,,,,,,,,,,,,,,,,,,,,,,60fe258a910eeef6399a574d,61036fef11bc5a6b8b2646ca,2021-07-29_22h24.18.857,Simcolourproject_2stim_asymm_v5,2020.2.10,MacIntel,60,61025ae37ef11b136ea224fe,,,,,,,,,3682,-38.765625,-84.47265625,1,0,0,response5disk,,3,-2.40234375,1.5703125,1,0,0,rectangle,-2.40234375,1.5703125,1,0,0,,,,,,,-2.40234375,1.5703125,1,0,0,,1,39,199,139,1,
,,,,,,,,,,,,,FF,,,,,,,,0.949385,,,,,,,,,,,,,,,,,,,,,,60fe258a910eeef6399a574d,61036fef11bc5a6b8b2646ca,2021-07-29_22h24.18.857,Simcolourproject_2stim_asymm_v5,2020.2.10,MacIntel,60,61025ae37ef11b136ea224fe,,,,,,,,,2354,47.9609375,-95.83203125,1,0,0,response3disk,,4,7.76171875,4.29296875,1,0,0,rectangle,-34.19140625,-90.93359375,1,0,0,response5disk_3,TRUE,3,3,"[178,186,150,192,61,256,121,85,123,230,236,195,171,201,1,170,37,16,306,144]",1.76638,5.546875,0.40234375,1,0,0,rectangle,1,40,200,114,1,
,,,,,,,,,,,,,FF,,,,,,,,0.81549,,,,,,,,,,,,,,,,,,,,,,60fe258a910eeef6399a574d,61036fef11bc5a6b8b2646ca,2021-07-29_22h24.18.857,Simcolourproject_2stim_asymm_v5,2020.2.10,MacIntel,60,61025ae37ef11b136ea224fe,,,,,,,,,4299,34.8984375,-78.76953125,1,0,0,response3disk,,4,3.5859375,-5.69140625,1,0,0,rectangle,3.5859375,-5.69140625,1,0,0,,,,,,,3.5859375,-5.69140625,1,0,0,,1,41,201,8,1,
,,,,,,,,,,,,,FF,,,,,,,,1.49922,,,,,,,,,,,,,,,,,,,,,,60fe258a910eeef6399a574d,61036fef11bc5a6b8b2646ca,2021-07-29_22h24.18.857,Simcolourproject_2stim_asymm_v5,2020.2.10,MacIntel,60,61025ae37ef11b136ea224fe,,,,,,,,,4240,-26.74609375,-61.55078125,1,0,0,response5disk,,3,5.453125,-1.5625,1,0,0,rectangle,5.453125,-1.5625,1,0,0,,,,,,,5.453125,-1.5625,1,0,0,,1,42,202,132,1,
,,,,,,,,,,,,,FF,,,,,,,,1.785305,,,,,,,,,,,,,,,,,,,,,,60fe258a910eeef6399a574d,61036fef11bc5a6b8b2646ca,2021-07-29_22h24.18.857,Simcolourproject_2stim_asymm_v5,2020.2.10,MacIntel,60,61025ae37ef11b136ea224fe,,,,,,,,,1329,51.05078125,-92.5703125,1,0,0,response3disk,,4,3.11328125,-7.1875,1,0,0,rectangle,3.11328125,-7.1875,1,0,0,,,,,,,3.11328125,-7.1875,1,0,0,,1,43,203,100,1,
,,,,,,,,,,,,,FF,,,,,,,,1.49949,,,,,,,,,,,,,,,,,,,,,,60fe258a910eeef6399a574d,61036fef11bc5a6b8b2646ca,2021-07-29_22h24.18.857,Simcolourproject_2stim_asymm_v5,2020.2.10,MacIntel,60,61025ae37ef11b136ea224fe,,,,,,,,,3708,-80.41796875,-27.1640625,1,0,0,response5disk,,2,-10.33984375,-0.2265625,1,0,0,rectangle,-10.33984375,-0.2265625,1,0,0,,,,,,,-10.33984375,-0.2265625,1,0,0,,1,44,204,153,1,
,,,,,,,,,,,,,FF,,,,,,,,0.835565,,,,,,,,,,,,,,,,,,,,,,60fe258a910eeef6399a574d,61036fef11bc5a6b8b2646ca,2021-07-29_22h24.18.857,Simcolourproject_2stim_asymm_v5,2020.2.10,MacIntel,60,61025ae37ef11b136ea224fe,,,,,,,,,3276,88.5078125,-35.58984375,1,0,0,response3disk,,5,13.56640625,1.296875,1,0,0,rectangle,13.56640625,1.296875,1,0,0,,,,,,,13.56640625,1.296875,1,0,0,,1,45,205,20,1,
,,,,,,,,,,,,,FF,,,,,,,,0.801465,,,,,,,,,,,,,,,,,,,,,,60fe258a910eeef6399a574d,61036fef11bc5a6b8b2646ca,2021-07-29_22h24.18.857,Simcolourproject_2stim_asymm_v5,2020.2.10,MacIntel,60,61025ae37ef11b136ea224fe,,,,,,,,,2585,88.62109375,49.546875,1,0,0,response1disk,,6,2.6015625,0.31640625,1,0,0,rectangle,2.6015625,0.31640625,1,0,0,,,,,,,2.6015625,0.31640625,1,0,0,,1,46,206,48,1,
,,,,,,,,,,,,,FF,,,,,,,,0.88287,,,,,,,,,,,,,,,,,,,,,,60fe258a910eeef6399a574d,61036fef11bc5a6b8b2646ca,2021-07-29_22h24.18.857,Simcolourproject_2stim_asymm_v5,2020.2.10,MacIntel,60,61025ae37ef11b136ea224fe,,,,,,,,,528,-41.6640625,-97.4375,1,0,0,response5disk,,3,0.234375,-0.58203125,1,0,0,rectangle,0.234375,-0.58203125,1,0,0,,,,,,,0.234375,-0.58203125,1,0,0,,1,47,207,74,1,
,,,,,,,,,,,,,FF,,,,,,,,1.018195,,,,,,,,,,,,,,,,,,,,,,60fe258a910eeef6399a574d,61036fef11bc5a6b8b2646ca,2021-07-29_22h24.18.857,Simcolourproject_2stim_asymm_v5,2020.2.10,MacIntel,60,61025ae37ef11b136ea224fe,,,,,,,,,4277,43,-88.32421875,1,0,0,response3disk,,4,7.9296875,-4.83984375,1,0,0,rectangle,7.9296875,-4.83984375,1,0,0,,,,,,,7.9296875,-4.83984375,1,0,0,,1,48,208,137,1,
,,,,,,,,,,,,,FF,,,,,,,,1.15022,,,,,,,,,,,,,,,,,,,,,,60fe258a910eeef6399a574d,61036fef11bc5a6b8b2646ca,2021-07-29_22h24.18.857,Simcolourproject_2stim_asymm_v5,2020.2.10,MacIntel,60,61025ae37ef11b136ea224fe,,,,,,,,,1765,29.96875,-80.703125,1,0,0,response3disk,,4,-2.07421875,-9.23828125,1,0,0,rectangle,-2.07421875,-9.23828125,1,0,0,,,,,,,-2.07421875,-9.23828125,1,0,0,,1,49,209,144,1,
,,,,,,,,,,,,,FF,,,,,,,,0.897835,,,,,,,,,,,,,,,,,,,,,,60fe258a910eeef6399a574d,61036fef11bc5a6b8b2646ca,2021-07-29_22h24.18.857,Simcolourproject_2stim_asymm_v5,2020.2.10,MacIntel,60,61025ae37ef11b136ea224fe,,,,,,,,,3156,-52.6015625,-95.34375,1,0,0,response5disk,,3,2.82421875,0.64453125,1,0,0,rectangle,2.82421875,0.64453125,1,0,0,,,,,,,2.82421875,0.64453125,1,0,0,,1,50,210,19,1,
,,,,,,,,,,,,,FF,,,,,,,,0.933665,,,,,,,,,,,,,,,,,,,,,,60fe258a910eeef6399a574d,61036fef11bc5a6b8b2646ca,2021-07-29_22h24.18.857,Simcolourproject_2stim_asymm_v5,2020.2.10,MacIntel,60,61025ae37ef11b136ea224fe,,,,,,,,,473,83.921875,-44.1328125,1,0,0,response3disk,,5,4.27734375,-3.21875,1,0,0,rectangle,4.27734375,-3.21875,1,0,0,,,,,,,4.27734375,-3.21875,1,0,0,,1,51,211,119,1,
,,,,,,,,,,,,,FF,,,,,,,,1.08436,,,,,,,,,,,,,,,,,,,,,,60fe258a910eeef6399a574d,61036fef11bc5a6b8b2646ca,2021-07-29_22h24.18.857,Simcolourproject_2stim_asymm_v5,2020.2.10,MacIntel,60,61025ae37ef11b136ea224fe,,,,,,,,,1063,38.70703125,-76.24609375,1,0,0,response3disk,,4,-0.5625,2.921875,1,0,0,rectangle,-0.5625,2.921875,1,0,0,,,,,,,-0.5625,2.921875,1,0,0,,1,52,212,150,1,
,,,,,,,,,,,,,FF,,,,,,,,1.283065,,,,,,,,,,,,,,,,,,,,,,60fe258a910eeef6399a574d,61036fef11bc5a6b8b2646ca,2021-07-29_22h24.18.857,Simcolourproject_2stim_asymm_v5,2020.2.10,MacIntel,60,61025ae37ef11b136ea224fe,,,,,,,,,3337,53.8671875,-88.2421875,1,0,0,response3disk,,4,12.16015625,-5.48046875,1,0,0,rectangle,12.16015625,-5.48046875,1,0,0,,,,,,,12.16015625,-5.48046875,1,0,0,,1,53,213,154,1,
,,,,,,,,,,,,,FF,,,,,,,,0.882525,,,,,,,,,,,,,,,,,,,,,,60fe258a910eeef6399a574d,61036fef11bc5a6b8b2646ca,2021-07-29_22h24.18.857,Simcolourproject_2stim_asymm_v5,2020.2.10,MacIntel,60,61025ae37ef11b136ea224fe,,,,,,,,,2625,43.57421875,-88.7890625,1,0,0,response3disk,,4,3.6875,9.875,1,0,0,rectangle,3.6875,9.875,1,0,0,,,,,,,3.6875,9.875,1,0,0,,1,54,214,115,1,
,,,,,,,,,,,,,FF,,,,,,,,1.033535,,,,,,,,,,,,,,,,,,,,,,60fe258a910eeef6399a574d,61036fef11bc5a6b8b2646ca,2021-07-29_22h24.18.857,Simcolourproject_2stim_asymm_v5,2020.2.10,MacIntel,60,61025ae37ef11b136ea224fe,,,,,,,,,4298,-36.2109375,-89.14453125,1,0,0,response5disk,,3,0.25,1.01953125,1,0,0,rectangle,0.25,1.01953125,1,0,0,,,,,,,0.25,1.01953125,1,0,0,,1,55,215,9,1,
,,,,,,,,,,,,,FF,,,,,,,,0.985615,,,,,,,,,,,,,,,,,,,,,,60fe258a910eeef6399a574d,61036fef11bc5a6b8b2646ca,2021-07-29_22h24.18.857,Simcolourproject_2stim_asymm_v5,2020.2.10,MacIntel,60,61025ae37ef11b136ea224fe,,,,,,,,,1763,47.4453125,-72.2890625,1,0,0,response3disk,,4,8.3828125,-6.5078125,1,0,0,rectangle,8.3828125,-6.5078125,1,0,0,,,,,,,8.3828125,-6.5078125,1,0,0,,1,56,216,56,1,
,,,,,,,,,,,,,FF,,,,,,,,0.949155,,,,,,,,,,,,,,,,,,,,,,60fe258a910eeef6399a574d,61036fef11bc5a6b8b2646ca,2021-07-29_22h24.18.857,Simcolourproject_2stim_asymm_v5,2020.2.10,MacIntel,60,61025ae37ef11b136ea224fe,,,,,,,,,4184,-32.60546875,-85.17578125,1,0,0,response5disk,,3,7.91015625,6.44921875,1,0,0,rectangle,7.91015625,6.44921875,1,0,0,,,,,,,7.91015625,6.44921875,1,0,0,,1,57,217,7,1,
,,,,,,,,,,,,,FF,,,,,,,,1.00075,,,,,,,,,,,,,,,,,,,,,,60fe258a910eeef6399a574d,61036fef11bc5a6b8b2646ca,2021-07-29_22h24.18.857,Simcolourproject_2stim_asymm_v5,2020.2.10,MacIntel,60,61025ae37ef11b136ea224fe,,,,,,,,,2141,96.06640625,45.18359375,1,0,0,response1disk,,6,-4.67578125,-3.515625,1,0,0,rectangle,-4.67578125,-3.515625,1,0,0,,,,,,,-4.67578125,-3.515625,1,0,0,,1,58,218,70,1,
,,,,,,,,,,,,,FF,,,,,,,,1.251435,,,,,,,,,,,,,,,,,,,,,,60fe258a910eeef6399a574d,61036fef11bc5a6b8b2646ca,2021-07-29_22h24.18.857,Simcolourproject_2stim_asymm_v5,2020.2.10,MacIntel,60,61025ae37ef11b136ea224fe,,,,,,,,,3445,87.1171875,-47.90234375,1,0,0,response3disk,,5,13.9921875,0.4921875,1,0,0,rectangle,13.9921875,0.4921875,1,0,0,,,,,,,13.9921875,0.4921875,1,0,0,,1,59,219,4,1,
,,,,,,,,,,,,,FF,,,,,,,,1.03324,,,,,,,,,,,,,,,,,,,,,,60fe258a910eeef6399a574d,61036fef11bc5a6b8b2646ca,2021-07-29_22h24.18.857,Simcolourproject_2stim_asymm_v5,2020.2.10,MacIntel,60,61025ae37ef11b136ea224fe,,,,,,,,,3930,107.8984375,-41.8359375,1,0,0,response3disk,,5,2.63671875,-6.86328125,1,0,0,rectangle,2.63671875,-6.86328125,1,0,0,,,,,,,2.63671875,-6.86328125,1,0,0,,1,60,220,31,1,
,,,,,,,,,,,,,FF,,,,,,,,0.985065,,,,,,,,,,,,,,,,,,,,,,60fe258a910eeef6399a574d,61036fef11bc5a6b8b2646ca,2021-07-29_22h24.18.857,Simcolourproject_2stim_asymm_v5,2020.2.10,MacIntel,60,61025ae37ef11b136ea224fe,,,,,,,,,3176,94.1640625,-27.21484375,1,0,0,response3disk,,5,17.33203125,1.97265625,1,0,0,rectangle,17.33203125,1.97265625,1,0,0,,,,,,,17.33203125,1.97265625,1,0,0,,1,61,221,111,1,
,,,,,,,,,,,,,FF,,,,,,,,0.93218,,,,,,,,,,,,,,,,,,,,,,60fe258a910eeef6399a574d,61036fef11bc5a6b8b2646ca,2021-07-29_22h24.18.857,Simcolourproject_2stim_asymm_v5,2020.2.10,MacIntel,60,61025ae37ef11b136ea224fe,,,,,,,,,3920,-78.5390625,-52.734375,1,0,0,response5disk,,2,16.140625,1.12890625,1,0,0,rectangle,16.140625,1.12890625,1,0,0,,,,,,,16.140625,1.12890625,1,0,0,,1,62,222,42,1,
,,,,,,,,,,,,,FF,,,,,,,,1.016745,,,,,,,,,,,,,,,,,,,,,,60fe258a910eeef6399a574d,61036fef11bc5a6b8b2646ca,2021-07-29_22h24.18.857,Simcolourproject_2stim_asymm_v5,2020.2.10,MacIntel,60,61025ae37ef11b136ea224fe,,,,,,,,,1559,92.60546875,34.265625,1,0,0,response1disk,,6,0.8046875,-0.4765625,1,0,0,rectangle,0.8046875,-0.4765625,1,0,0,,,,,,,0.8046875,-0.4765625,1,0,0,,1,63,223,66,1,
,,,,,,,,,,,,,FF,,,,,,,,1.33446,,,,,,,,,,,,,,,,,,,,,,60fe258a910eeef6399a574d,61036fef11bc5a6b8b2646ca,2021-07-29_22h24.18.857,Simcolourproject_2stim_asymm_v5,2020.2.10,MacIntel,60,61025ae37ef11b136ea224fe,,,,,,,,,2181,-60.57421875,-31.1328125,1,0,0,response5disk,,2,16.08984375,2.33984375,1,0,0,rectangle,16.08984375,2.33984375,1,0,0,,,,,,,16.08984375,2.33984375,1,0,0,,1,64,224,112,1,
,,,,,,,,,,,,,FF,,,,,,,,0.898735,,,,,,,,,,,,,,,,,,,,,,60fe258a910eeef6399a574d,61036fef11bc5a6b8b2646ca,2021-07-29_22h24.18.857,Simcolourproject_2stim_asymm_v5,2020.2.10,MacIntel,60,61025ae37ef11b136ea224fe,,,,,,,,,2009,88.58984375,29.79296875,1,0,0,response1disk,,6,8.91796875,3,1,0,0,rectangle,8.91796875,3,1,0,0,,,,,,,8.91796875,3,1,0,0,,1,65,225,136,1,
,,,,,,,,,,,,,FF,,,,,,,,0.684265,,,,,,,,,,,,,,,,,,,,,,60fe258a910eeef6399a574d,61036fef11bc5a6b8b2646ca,2021-07-29_22h24.18.857,Simcolourproject_2stim_asymm_v5,2020.2.10,MacIntel,60,61025ae37ef11b136ea224fe,,,,,,,,,1008,53.30859375,78.78125,1,0,0,response1disk,,7,7.4609375,14.7265625,1,0,0,rectangle,7.4609375,14.7265625,1,0,0,,,,,,,7.4609375,14.7265625,1,0,0,,1,66,226,40,1,
,,,,,,,,,,,,,FF,,,,,,,,0.93485,,,,,,,,,,,,,,,,,,,,,,60fe258a910eeef6399a574d,61036fef11bc5a6b8b2646ca,2021-07-29_22h24.18.857,Simcolourproject_2stim_asymm_v5,2020.2.10,MacIntel,60,61025ae37ef11b136ea224fe,,,,,,,,,3371,80.21875,-55.359375,1,0,0,response3disk,,5,1.3671875,-1.56640625,1,0,0,rectangle,1.3671875,-1.56640625,1,0,0,,,,,,,1.3671875,-1.56640625,1,0,0,,1,67,227,3,1,
,,,,,,,,,,,,,FF,,,,,,,,1.08579,,,,,,,,,,,,,,,,,,,,,,60fe258a910eeef6399a574d,61036fef11bc5a6b8b2646ca,2021-07-29_22h24.18.857,Simcolourproject_2stim_asymm_v5,2020.2.10,MacIntel,60,61025ae37ef11b136ea224fe,,,,,,,,,2229,33.1640625,-78.9296875,1,0,0,response3disk,,4,4.6015625,-10.42578125,1,0,0,rectangle,4.6015625,-10.42578125,1,0,0,,,,,,,4.6015625,-10.42578125,1,0,0,,1,68,228,23,1,
,,,,,,,,,,,,,FF,,,,,,,,0.766155,,,,,,,,,,,,,,,,,,,,,,60fe258a910eeef6399a574d,61036fef11bc5a6b8b2646ca,2021-07-29_22h24.18.857,Simcolourproject_2stim_asymm_v5,2020.2.10,MacIntel,60,61025ae37ef11b136ea224fe,,,,,,,,,216,83.53515625,-37.04296875,1,0,0,response3disk,,5,18.7109375,2.390625,1,0,0,rectangle,-98.7578125,37.6484375,1,0,0,response7disk_3,TRUE,1,1,"[178,186,150,192,61,256,121,85,123,230,236,195,171,201,1,170,37,16,306,144]",1.415235,6.88671875,-4.640625,1,0,0,rectangle,1,69,229,52,1,
,,,,,,,,,,,,,FF,,,,,,,,0.848705,,,,,,,,,,,,,,,,,,,,,,60fe258a910eeef6399a574d,61036fef11bc5a6b8b2646ca,2021-07-29_22h24.18.857,Simcolourproject_2stim_asymm_v5,2020.2.10,MacIntel,60,61025ae37ef11b136ea224fe,,,,,,,,,3388,-31.8828125,77.05078125,1,0,0,response7disk,,0,4.18359375,-8.1796875,1,0,0,rectangle,4.18359375,-8.1796875,1,0,0,,,,,,,4.18359375,-8.1796875,1,0,0,,1,70,230,49,1,
,,,,,,,,,,,,,FF,,,,,,,,1.01629,,,,,,,,,,,,,,,,,,,,,,60fe258a910eeef6399a574d,61036fef11bc5a6b8b2646ca,2021-07-29_22h24.18.857,Simcolourproject_2stim_asymm_v5,2020.2.10,MacIntel,60,61025ae37ef11b136ea224fe,,,,,,,,,1552,49.9765625,-74.171875,1,0,0,response3disk,,4,7.41796875,-4.75,1,0,0,rectangle,7.41796875,-4.75,1,0,0,,,,,,,7.41796875,-4.75,1,0,0,,1,71,231,102,1,
,,,,,,,,,,,,,FF,,,,,,,,0.735125,,,,,,,,,,,,,,,,,,,,,,60fe258a910eeef6399a574d,61036fef11bc5a6b8b2646ca,2021-07-29_22h24.18.857,Simcolourproject_2stim_asymm_v5,2020.2.10,MacIntel,60,61025ae37ef11b136ea224fe,,,,,,,,,2588,87.26953125,27.953125,1,0,0,response1disk,,6,-0.19140625,0.0234375,1,0,0,rectangle,-0.19140625,0.0234375,1,0,0,,,,,,,-0.19140625,0.0234375,1,0,0,,1,72,232,93,1,
,,,,,,,,,,,,,FF,,,,,,,,0.948775,,,,,,,,,,,,,,,,,,,,,,60fe258a910eeef6399a574d,61036fef11bc5a6b8b2646ca,2021-07-29_22h24.18.857,Simcolourproject_2stim_asymm_v5,2020.2.10,MacIntel,60,61025ae37ef11b136ea224fe,,,,,,,,,3462,33.9296875,-73.859375,1,0,0,response3disk,,4,-8.0625,2.6640625,1,0,0,rectangle,-8.0625,2.6640625,1,0,0,,,,,,,-8.0625,2.6640625,1,0,0,,1,73,233,121,1,
,,,,,,,,,,,,,FF,,,,,,,,0.714825,,,,,,,,,,,,,,,,,,,,,,60fe258a910eeef6399a574d,61036fef11bc5a6b8b2646ca,2021-07-29_22h24.18.857,Simcolourproject_2stim_asymm_v5,2020.2.10,MacIntel,60,61025ae37ef11b136ea224fe,,,,,,,,,2813,73.97265625,-33.7265625,1,0,0,response3disk,,5,13.68359375,1.6640625,1,0,0,rectangle,13.68359375,1.6640625,1,0,0,,,,,,,13.68359375,1.6640625,1,0,0,,1,74,234,16,1,
,,,,,,,,,,,,,FF,,,,,,,,1.01535,,,,,,,,,,,,,,,,,,,,,,60fe258a910eeef6399a574d,61036fef11bc5a6b8b2646ca,2021-07-29_22h24.18.857,Simcolourproject_2stim_asymm_v5,2020.2.10,MacIntel,60,61025ae37ef11b136ea224fe,,,,,,,,,3375,44.16796875,-65.796875,1,0,0,response3disk,,4,7.70703125,-6.39453125,1,0,0,rectangle,-88.21484375,-39.140625,1,0,0,response5disk_3,TRUE,2,2,"[178,186,150,192,61,256,121,85,123,230,236,195,171,201,1,170,37,16,306,144]",1.999505,5.57421875,0.453125,1,0,0,rectangle,1,75,235,58,1,
,,,,,,,,,,,,,FF,,,,,,,,0.91647,,,,,,,,,,,,,,,,,,,,,,60fe258a910eeef6399a574d,61036fef11bc5a6b8b2646ca,2021-07-29_22h24.18.857,Simcolourproject_2stim_asymm_v5,2020.2.10,MacIntel,60,61025ae37ef11b136ea224fe,,,,,,,,,698,69.18359375,-39.39453125,1,0,0,response3disk,,5,6.15625,-6.05859375,1,0,0,rectangle,6.15625,-6.05859375,1,0,0,,,,,,,6.15625,-6.05859375,1,0,0,,1,76,236,140,1,
,,,,,,,,,,,,,FF,,,,,,,,0.799535,,,,,,,,,,,,,,,,,,,,,,60fe258a910eeef6399a574d,61036fef11bc5a6b8b2646ca,2021-07-29_22h24.18.857,Simcolourproject_2stim_asymm_v5,2020.2.10,MacIntel,60,61025ae37ef11b136ea224fe,,,,,,,,,379,99.609375,35.48046875,1,0,0,response1disk,,6,5.97265625,-7.2890625,1,0,0,rectangle,5.97265625,-7.2890625,1,0,0,,,,,,,5.97265625,-7.2890625,1,0,0,,1,77,237,86,1,
,,,,,,,,,,,,,FF,,,,,,,,0.850785,,,,,,,,,,,,,,,,,,,,,,60fe258a910eeef6399a574d,61036fef11bc5a6b8b2646ca,2021-07-29_22h24.18.857,Simcolourproject_2stim_asymm_v5,2020.2.10,MacIntel,60,61025ae37ef11b136ea224fe,,,,,,,,,2400,78.04296875,56.2109375,1,0,0,response1disk,,6,7.296875,6.28125,1,0,0,rectangle,7.296875,6.28125,1,0,0,,,,,,,7.296875,6.28125,1,0,0,,1,78,238,22,1,
,,,,,,,,,,,,,FF,,,,,,,,0.785435,,,,,,,,,,,,,,,,,,,,,,60fe258a910eeef6399a574d,61036fef11bc5a6b8b2646ca,2021-07-29_22h24.18.857,Simcolourproject_2stim_asymm_v5,2020.2.10,MacIntel,60,61025ae37ef11b136ea224fe,,,,,,,,,360,79.19140625,-34.5390625,1,0,0,response3disk,,5,6.015625,-1.5078125,1,0,0,rectangle,6.015625,-1.5078125,1,0,0,,,,,,,6.015625,-1.5078125,1,0,0,,1,79,239,65,1,
,,,,,,,,,,,,,FF,,,,,,,,0.733825,,,,,,,,,,,,,,,,,,,,,,60fe258a910eeef6399a574d,61036fef11bc5a6b8b2646ca,2021-07-29_22h24.18.857,Simcolourproject_2stim_asymm_v5,2020.2.10,MacIntel,60,61025ae37ef11b136ea224fe,,,,,,,,,1275,38.5390625,-97.28125,1,0,0,response3disk,,4,-2.15234375,7.0390625,1,0,0,rectangle,-2.15234375,7.0390625,1,0,0,,,,,,,-2.15234375,7.0390625,1,0,0,,1,80,240,107,1,
,,,,,,,,,,,,,FF,,,,,,,,0.961615,,,,,,,,,,,,,,,,,,,,,,60fe258a910eeef6399a574d,61036fef11bc5a6b8b2646ca,2021-07-29_22h24.18.857,Simcolourproject_2stim_asymm_v5,2020.2.10,MacIntel,60,61025ae37ef11b136ea224fe,,,,,,,,,3278,86.984375,42.3046875,1,0,0,response1disk,,6,-0.3359375,0.2265625,1,0,0,rectangle,-0.3359375,0.2265625,1,0,0,,,,,,,-0.3359375,0.2265625,1,0,0,,1,81,241,15,1,
,,,,,,,,,,,,,FF,,,,,,,,1.265945,,,,,,,,,,,,,,,,,,,,,,60fe258a910eeef6399a574d,61036fef11bc5a6b8b2646ca,2021-07-29_22h24.18.857,Simcolourproject_2stim_asymm_v5,2020.2.10,MacIntel,60,61025ae37ef11b136ea224fe,,,,,,,,,971,-38.46484375,-100.5429688,1,0,0,response5disk,,3,-4.07421875,4.08203125,1,0,0,rectangle,-4.07421875,4.08203125,1,0,0,,,,,,,-4.07421875,4.08203125,1,0,0,,1,82,242,123,1,
,,,,,,,,,,,,,FF,,,,,,,,1.01646,,,,,,,,,,,,,,,,,,,,,,60fe258a910eeef6399a574d,61036fef11bc5a6b8b2646ca,2021-07-29_22h24.18.857,Simcolourproject_2stim_asymm_v5,2020.2.10,MacIntel,60,61025ae37ef11b136ea224fe,,,,,,,,,3639,44.73828125,-93.35546875,1,0,0,response3disk,,4,6.0234375,6.2890625,1,0,0,rectangle,6.0234375,6.2890625,1,0,0,,,,,,,6.0234375,6.2890625,1,0,0,,1,83,243,152,1,
,,,,,,,,,,,,,FF,,,,,,,,0.900895,,,,,,,,,,,,,,,,,,,,,,60fe258a910eeef6399a574d,61036fef11bc5a6b8b2646ca,2021-07-29_22h24.18.857,Simcolourproject_2stim_asymm_v5,2020.2.10,MacIntel,60,61025ae37ef11b136ea224fe,,,,,,,,,2203,83.2734375,42.8828125,1,0,0,response1disk,,6,-8.14453125,-1.63671875,1,0,0,rectangle,-8.14453125,-1.63671875,1,0,0,,,,,,,-8.14453125,-1.63671875,1,0,0,,1,84,244,116,1,
,,,,,,,,,,,,,FF,,,,,,,,1.117735,,,,,,,,,,,,,,,,,,,,,,60fe258a910eeef6399a574d,61036fef11bc5a6b8b2646ca,2021-07-29_22h24.18.857,Simcolourproject_2stim_asymm_v5,2020.2.10,MacIntel,60,61025ae37ef11b136ea224fe,,,,,,,,,4336,37.375,-84.0390625,1,0,0,response3disk,,4,-8.8203125,4.84765625,1,0,0,rectangle,-8.8203125,4.84765625,1,0,0,,,,,,,-8.8203125,4.84765625,1,0,0,,1,85,245,34,1,
,,,,,,,,,,,,,FF,,,,,,,,1.59831,,,,,,,,,,,,,,,,,,,,,,60fe258a910eeef6399a574d,61036fef11bc5a6b8b2646ca,2021-07-29_22h24.18.857,Simcolourproject_2stim_asymm_v5,2020.2.10,MacIntel,60,61025ae37ef11b136ea224fe,,,,,,,,,3756,45.109375,-89.578125,1,0,0,response3disk,,4,4.4453125,-6.91015625,1,0,0,rectangle,4.4453125,-6.91015625,1,0,0,,,,,,,4.4453125,-6.91015625,1,0,0,,1,86,246,5,1,
,,,,,,,,,,,,,FF,,,,,,,,0.68295,,,,,,,,,,,,,,,,,,,,,,60fe258a910eeef6399a574d,61036fef11bc5a6b8b2646ca,2021-07-29_22h24.18.857,Simcolourproject_2stim_asymm_v5,2020.2.10,MacIntel,60,61025ae37ef11b136ea224fe,,,,,,,,,2480,-37.58203125,100.421875,1,0,0,response7disk,,0,3.8125,-2.75390625,1,0,0,rectangle,3.8125,-2.75390625,1,0,0,,,,,,,3.8125,-2.75390625,1,0,0,,1,87,247,54,1,
