key_resp.keys,key_resp.rt,key_resp_14.keys,key_resp_14.rt,key_resp_15.keys,key_resp_15.rt,key_resp_17.keys,key_resp_17.rt,key_resp_9.keys,key_resp_9.rt,key_resp_10.keys,key_resp_10.rt,practice_comparison,Ecc,mouse_5.x,mouse_5.y,mouse_5.leftButton,mouse_5.midButton,mouse_5.rightButton,mouse_5.clicked_name,pracsimilarity,response_time,mouse_10.x,mouse_10.y,mouse_10.leftButton,mouse_10.midButton,mouse_10.rightButton,mouse_10.clicked_name,mouse_7.x,mouse_7.y,mouse_7.leftButton,mouse_7.midButton,mouse_7.rightButton,mouse_6.x,mouse_6.y,mouse_6.leftButton,mouse_6.midButton,mouse_6.rightButton,duringprac.thisRepN,duringprac.thisTrialN,duringprac.thisN,duringprac.thisIndex,duringprac.ran,participant,session,date,expName,psychopyVersion,OS,frameRate,study_id,mouse_7.clicked_name,catchpracsimilarity,catch_response_time,catchnumberprac,catchtrialorderprac,mouse_6.clicked_name,key_resp_22.keys,key_resp_22.rt,realcomparison,mouse.x,mouse.y,mouse.leftButton,mouse.midButton,mouse.rightButton,mouse.clicked_name,Colour2,similarity,mouse_2.x,mouse_2.y,mouse_2.leftButton,mouse_2.midButton,mouse_2.rightButton,mouse_2.clicked_name,mouse_3.x,mouse_3.y,mouse_3.leftButton,mouse_3.midButton,mouse_3.rightButton,mouse_11.x,mouse_11.y,mouse_11.leftButton,mouse_11.midButton,mouse_11.rightButton,trials_2.thisRepN,trials_2.thisTrialN,trials_2.thisN,trials_2.thisIndex,trials_2.ran,Colour1,mouse_3.clicked_name,catchornah,catchsimilarity,catchnumber,catchtrialorder,catchRT,mouse_11.clicked_name
space,1.3296,space,10.0313,space,15.4572,space,9.9986,space,4.4681,space,4.0078,105,PF,-89,21,1,0,0,response7disk_5,1,3.9026,-5,-4,1,0,0,rectangle_8,-5,-4,1,0,0,-5,-4,1,0,0,0,0,0,2,1,60fe137ad0e87625d04c7ebc,61036fcea573cd22ff9f452b,2021-07-30_13h23.33.484,Simcolourproject_2stim_asymm_v5,2020.2.10,Win32,60,61025ae37ef11b136ea224fe,,,,,,,,,,,,,,,,,,,,,,,,,,,,,,,,,,,,,,,,,,,,,,
,,,,,,,,,,,,141,PF,39,55,1,0,0,response1disk_5,7,2.7643,-5,-2,1,0,0,rectangle_8,-85,38,1,0,0,-12,2,1,0,0,0,1,1,6,1,60fe137ad0e87625d04c7ebc,61036fcea573cd22ff9f452b,2021-07-30_13h23.33.484,Simcolourproject_2stim_asymm_v5,2020.2.10,Win32,60,61025ae37ef11b136ea224fe,response7disk_7,1,2.6513,1,"[2,5]",rectangle_4,,,,,,,,,,,,,,,,,,,,,,,,,,,,,,,,,,,,,,,,
,,,,,,,,,,,,115,PF,35,56,1,0,0,response1disk_5,7,1.9,8,10,1,0,0,rectangle_8,8,10,1,0,0,8,10,1,0,0,0,2,2,4,1,60fe137ad0e87625d04c7ebc,61036fcea573cd22ff9f452b,2021-07-30_13h23.33.484,Simcolourproject_2stim_asymm_v5,2020.2.10,Win32,60,61025ae37ef11b136ea224fe,,,,,,,,,,,,,,,,,,,,,,,,,,,,,,,,,,,,,,,,,,,,,,
,,,,,,,,,,,,63,PF,28,35,1,0,0,response1disk_5,7,2.5002,4,1,1,0,0,rectangle_8,4,1,1,0,0,4,1,1,0,0,0,3,3,1,1,60fe137ad0e87625d04c7ebc,61036fcea573cd22ff9f452b,2021-07-30_13h23.33.484,Simcolourproject_2stim_asymm_v5,2020.2.10,Win32,60,61025ae37ef11b136ea224fe,,,,,,,,,,,,,,,,,,,,,,,,,,,,,,,,,,,,,,,,,,,,,,
,,,,,,,,,,,,123,FF,22,34,1,0,0,response1disk_5,7,1.6841,-5,0,1,0,0,rectangle_8,-82,40,1,0,0,-29,7,1,0,0,0,4,4,5,1,60fe137ad0e87625d04c7ebc,61036fcea573cd22ff9f452b,2021-07-30_13h23.33.484,Simcolourproject_2stim_asymm_v5,2020.2.10,Win32,60,61025ae37ef11b136ea224fe,response7disk_7,1,1.8168,1,"[2,5]",rectangle_4,,,,,,,,,,,,,,,,,,,,,,,,,,,,,,,,,,,,,,,,
,,,,,,,,,,,,61,FF,50,26,1,0,0,response1disk_5,6,1.5835,15,1,1,0,0,rectangle_8,15,1,1,0,0,15,1,1,0,0,0,5,5,3,1,60fe137ad0e87625d04c7ebc,61036fcea573cd22ff9f452b,2021-07-30_13h23.33.484,Simcolourproject_2stim_asymm_v5,2020.2.10,Win32,60,61025ae37ef11b136ea224fe,,,,,,,,,,,,,,,,,,,,,,,,,,,,,,,,,,,,,,,,,,,,,,
,,,,,,,,,,,,148,FF,36,33,1,0,0,response1disk_5,6,1.2342,8,7,1,0,0,rectangle_8,8,7,1,0,0,8,7,1,0,0,0,6,6,0,1,60fe137ad0e87625d04c7ebc,61036fcea573cd22ff9f452b,2021-07-30_13h23.33.484,Simcolourproject_2stim_asymm_v5,2020.2.10,Win32,60,61025ae37ef11b136ea224fe,,,,,,,,,,,,,,,,,,,,,,,,,,,,,,,,,,,,,,,,,,,,,,
,,,,,,,,,,,,,FF,,,,,,,,2.2684,,,,,,,,,,,,,,,,,,,,,,60fe137ad0e87625d04c7ebc,61036fcea573cd22ff9f452b,2021-07-30_13h23.33.484,Simcolourproject_2stim_asymm_v5,2020.2.10,Win32,60,61025ae37ef11b136ea224fe,,,,,,,space,2.4417,2492,45,30,1,0,0,response1disk,,6,7,-2,1,0,0,rectangle,7,-2,1,0,0,7,-2,1,0,0,0,0,0,110,1,,,,,,,,
,,,,,,,,,,,,,FF,,,,,,,,2.133,,,,,,,,,,,,,,,,,,,,,,60fe137ad0e87625d04c7ebc,61036fcea573cd22ff9f452b,2021-07-30_13h23.33.484,Simcolourproject_2stim_asymm_v5,2020.2.10,Win32,60,61025ae37ef11b136ea224fe,,,,,,,,,279,42,-15,1,0,0,response3disk,,5,5,-9,1,0,0,rectangle,5,-9,1,0,0,5,-9,1,0,0,0,1,1,11,1,,,,,,,,
,,,,,,,,,,,,,FF,,,,,,,,1.2366,,,,,,,,,,,,,,,,,,,,,,60fe137ad0e87625d04c7ebc,61036fcea573cd22ff9f452b,2021-07-30_13h23.33.484,Simcolourproject_2stim_asymm_v5,2020.2.10,Win32,60,61025ae37ef11b136ea224fe,,,,,,,,,1583,26,66,1,0,0,response1disk,,7,-6,5,1,0,0,rectangle,-6,5,1,0,0,-6,5,1,0,0,0,2,2,60,1,,,,,,,,
,,,,,,,,,,,,,FF,,,,,,,,1.4198,,,,,,,,,,,,,,,,,,,,,,60fe137ad0e87625d04c7ebc,61036fcea573cd22ff9f452b,2021-07-30_13h23.33.484,Simcolourproject_2stim_asymm_v5,2020.2.10,Win32,60,61025ae37ef11b136ea224fe,,,,,,,,,3346,38,22,1,0,0,response1disk,,6,10,1,1,0,0,rectangle,10,1,1,0,0,10,1,1,0,0,0,3,3,72,1,,,,,,,,
,,,,,,,,,,,,,FF,,,,,,,,1.7356,,,,,,,,,,,,,,,,,,,,,,60fe137ad0e87625d04c7ebc,61036fcea573cd22ff9f452b,2021-07-30_13h23.33.484,Simcolourproject_2stim_asymm_v5,2020.2.10,Win32,60,61025ae37ef11b136ea224fe,,,,,,,,,4078,23,-30,1,0,0,response3disk,,4,-4,8,1,0,0,rectangle,-4,8,1,0,0,-4,8,1,0,0,0,4,4,46,1,,,,,,,,
,,,,,,,,,,,,,FF,,,,,,,,1.0345,,,,,,,,,,,,,,,,,,,,,,60fe137ad0e87625d04c7ebc,61036fcea573cd22ff9f452b,2021-07-30_13h23.33.484,Simcolourproject_2stim_asymm_v5,2020.2.10,Win32,60,61025ae37ef11b136ea224fe,,,,,,,,,2798,36,20,1,0,0,response1disk,,6,-8,-2,1,0,0,rectangle,-8,-2,1,0,0,-8,-2,1,0,0,0,5,5,35,1,,,,,,,,
,,,,,,,,,,,,,FF,,,,,,,,1.697,,,,,,,,,,,,,,,,,,,,,,60fe137ad0e87625d04c7ebc,61036fcea573cd22ff9f452b,2021-07-30_13h23.33.484,Simcolourproject_2stim_asymm_v5,2020.2.10,Win32,60,61025ae37ef11b136ea224fe,,,,,,,,,3853,37,-19,1,0,0,response3disk,,5,5,-1,1,0,0,rectangle,5,-1,1,0,0,5,-1,1,0,0,0,6,6,8,1,,,,,,,,
,,,,,,,,,,,,,FF,,,,,,,,1.7853,,,,,,,,,,,,,,,,,,,,,,60fe137ad0e87625d04c7ebc,61036fcea573cd22ff9f452b,2021-07-30_13h23.33.484,Simcolourproject_2stim_asymm_v5,2020.2.10,Win32,60,61025ae37ef11b136ea224fe,,,,,,,,,607,26,58,1,0,0,response1disk,,7,-4,9,1,0,0,rectangle,-4,9,1,0,0,-4,9,1,0,0,0,7,7,86,1,,,,,,,,
,,,,,,,,,,,,,FF,,,,,,,,1.8513,,,,,,,,,,,,,,,,,,,,,,60fe137ad0e87625d04c7ebc,61036fcea573cd22ff9f452b,2021-07-30_13h23.33.484,Simcolourproject_2stim_asymm_v5,2020.2.10,Win32,60,61025ae37ef11b136ea224fe,,,,,,,,,2916,25,46,1,0,0,response1disk,,7,-4,1,1,0,0,rectangle,-4,1,1,0,0,-4,1,1,0,0,0,8,8,61,1,,,,,,,,
,,,,,,,,,,,,,FF,,,,,,,,1.1643,,,,,,,,,,,,,,,,,,,,,,60fe137ad0e87625d04c7ebc,61036fcea573cd22ff9f452b,2021-07-30_13h23.33.484,Simcolourproject_2stim_asymm_v5,2020.2.10,Win32,60,61025ae37ef11b136ea224fe,,,,,,,,,3008,50,64,1,0,0,response1disk,,7,9,9,1,0,0,rectangle,9,9,1,0,0,9,9,1,0,0,0,9,9,1,1,,,,,,,,
,,,,,,,,,,,,,FF,,,,,,,,1.2541,,,,,,,,,,,,,,,,,,,,,,60fe137ad0e87625d04c7ebc,61036fcea573cd22ff9f452b,2021-07-30_13h23.33.484,Simcolourproject_2stim_asymm_v5,2020.2.10,Win32,60,61025ae37ef11b136ea224fe,,,,,,,,,404,21,36,1,0,0,response1disk,,7,-3,-3,1,0,0,rectangle,-77,-29,1,0,0,-11,-5,1,0,0,0,10,10,6,1,,response5disk_3,TRUE,2,2,"[154,215,149,107,150,322,11,36,141,181,123,267,294,61,146,11,235,196,233,173]",2.5505,rectangle
,,,,,,,,,,,,,FF,,,,,,,,1.1832,,,,,,,,,,,,,,,,,,,,,,60fe137ad0e87625d04c7ebc,61036fcea573cd22ff9f452b,2021-07-30_13h23.33.484,Simcolourproject_2stim_asymm_v5,2020.2.10,Win32,60,61025ae37ef11b136ea224fe,,,,,,,,,1265,80,50,1,0,0,response1disk,,6,2,-2,1,0,0,rectangle,2,-2,1,0,0,2,-2,1,0,0,0,11,11,146,1,,,,,,,,
,,,,,,,,,,,,,FF,,,,,,,,1.5482,,,,,,,,,,,,,,,,,,,,,,60fe137ad0e87625d04c7ebc,61036fcea573cd22ff9f452b,2021-07-30_13h23.33.484,Simcolourproject_2stim_asymm_v5,2020.2.10,Win32,60,61025ae37ef11b136ea224fe,,,,,,,,,406,23,36,1,0,0,response1disk,,7,3,10,1,0,0,rectangle,3,10,1,0,0,3,10,1,0,0,0,12,12,85,1,,,,,,,,
,,,,,,,,,,,,,FF,,,,,,,,0.9701,,,,,,,,,,,,,,,,,,,,,,60fe137ad0e87625d04c7ebc,61036fcea573cd22ff9f452b,2021-07-30_13h23.33.484,Simcolourproject_2stim_asymm_v5,2020.2.10,Win32,60,61025ae37ef11b136ea224fe,,,,,,,,,3952,28,38,1,0,0,response1disk,,7,8,12,1,0,0,rectangle,8,12,1,0,0,8,12,1,0,0,0,13,13,49,1,,,,,,,,
,,,,,,,,,,,,,FF,,,,,,,,1.1501,,,,,,,,,,,,,,,,,,,,,,60fe137ad0e87625d04c7ebc,61036fcea573cd22ff9f452b,2021-07-30_13h23.33.484,Simcolourproject_2stim_asymm_v5,2020.2.10,Win32,60,61025ae37ef11b136ea224fe,,,,,,,,,637,47,-18,1,0,0,response3disk,,5,-22,9,1,0,0,rectangle,-22,9,1,0,0,-22,9,1,0,0,0,14,14,120,1,,,,,,,,
,,,,,,,,,,,,,FF,,,,,,,,1.4509,,,,,,,,,,,,,,,,,,,,,,60fe137ad0e87625d04c7ebc,61036fcea573cd22ff9f452b,2021-07-30_13h23.33.484,Simcolourproject_2stim_asymm_v5,2020.2.10,Win32,60,61025ae37ef11b136ea224fe,,,,,,,,,1942,57,42,1,0,0,response1disk,,6,17,15,1,0,0,rectangle,17,15,1,0,0,17,15,1,0,0,0,15,15,69,1,,,,,,,,
,,,,,,,,,,,,,FF,,,,,,,,1.0502,,,,,,,,,,,,,,,,,,,,,,60fe137ad0e87625d04c7ebc,61036fcea573cd22ff9f452b,2021-07-30_13h23.33.484,Simcolourproject_2stim_asymm_v5,2020.2.10,Win32,60,61025ae37ef11b136ea224fe,,,,,,,,,511,31,45,1,0,0,response1disk,,7,-13,-2,1,0,0,rectangle,-13,-2,1,0,0,-13,-2,1,0,0,0,16,16,2,1,,,,,,,,
,,,,,,,,,,,,,FF,,,,,,,,1.317,,,,,,,,,,,,,,,,,,,,,,60fe137ad0e87625d04c7ebc,61036fcea573cd22ff9f452b,2021-07-30_13h23.33.484,Simcolourproject_2stim_asymm_v5,2020.2.10,Win32,60,61025ae37ef11b136ea224fe,,,,,,,,,3502,42,17,1,0,0,response1disk,,6,17,4,1,0,0,rectangle,17,4,1,0,0,17,4,1,0,0,0,17,17,102,1,,,,,,,,
,,,,,,,,,,,,,FF,,,,,,,,1.1503,,,,,,,,,,,,,,,,,,,,,,60fe137ad0e87625d04c7ebc,61036fcea573cd22ff9f452b,2021-07-30_13h23.33.484,Simcolourproject_2stim_asymm_v5,2020.2.10,Win32,60,61025ae37ef11b136ea224fe,,,,,,,,,1685,60,26,1,0,0,response1disk,,6,9,-12,1,0,0,rectangle,9,-12,1,0,0,9,-12,1,0,0,0,18,18,108,1,,,,,,,,
,,,,,,,,,,,,,FF,,,,,,,,0.9166,,,,,,,,,,,,,,,,,,,,,,60fe137ad0e87625d04c7ebc,61036fcea573cd22ff9f452b,2021-07-30_13h23.33.484,Simcolourproject_2stim_asymm_v5,2020.2.10,Win32,60,61025ae37ef11b136ea224fe,,,,,,,,,2117,33,42,1,0,0,response1disk,,7,8,14,1,0,0,rectangle,8,14,1,0,0,8,14,1,0,0,0,19,19,125,1,,,,,,,,
,,,,,,,,,,,,,FF,,,,,,,,0.9166,,,,,,,,,,,,,,,,,,,,,,60fe137ad0e87625d04c7ebc,61036fcea573cd22ff9f452b,2021-07-30_13h23.33.484,Simcolourproject_2stim_asymm_v5,2020.2.10,Win32,60,61025ae37ef11b136ea224fe,,,,,,,,,3727,30,46,1,0,0,response1disk,,7,1,10,1,0,0,rectangle,1,10,1,0,0,1,10,1,0,0,0,20,20,91,1,,,,,,,,
,,,,,,,,,,,,,FF,,,,,,,,1.317,,,,,,,,,,,,,,,,,,,,,,60fe137ad0e87625d04c7ebc,61036fcea573cd22ff9f452b,2021-07-30_13h23.33.484,Simcolourproject_2stim_asymm_v5,2020.2.10,Win32,60,61025ae37ef11b136ea224fe,,,,,,,,,1158,58,-20,1,0,0,response3disk,,5,-23,-3,1,0,0,rectangle,-23,-3,1,0,0,-23,-3,1,0,0,0,21,21,139,1,,,,,,,,
,,,,,,,,,,,,,FF,,,,,,,,1.4997,,,,,,,,,,,,,,,,,,,,,,60fe137ad0e87625d04c7ebc,61036fcea573cd22ff9f452b,2021-07-30_13h23.33.484,Simcolourproject_2stim_asymm_v5,2020.2.10,Win32,60,61025ae37ef11b136ea224fe,,,,,,,,,3823,64,29,1,0,0,response1disk,,6,0,-4,1,0,0,rectangle,0,-4,1,0,0,0,-4,1,0,0,0,22,22,101,1,,,,,,,,
,,,,,,,,,,,,,FF,,,,,,,,1.201,,,,,,,,,,,,,,,,,,,,,,60fe137ad0e87625d04c7ebc,61036fcea573cd22ff9f452b,2021-07-30_13h23.33.484,Simcolourproject_2stim_asymm_v5,2020.2.10,Win32,60,61025ae37ef11b136ea224fe,,,,,,,,,3255,37,25,1,0,0,response1disk,,6,8,5,1,0,0,rectangle,8,5,1,0,0,8,5,1,0,0,0,23,23,159,1,,,,,,,,
,,,,,,,,,,,,,FF,,,,,,,,0.9334,,,,,,,,,,,,,,,,,,,,,,60fe137ad0e87625d04c7ebc,61036fcea573cd22ff9f452b,2021-07-30_13h23.33.484,Simcolourproject_2stim_asymm_v5,2020.2.10,Win32,60,61025ae37ef11b136ea224fe,,,,,,,,,1699,29,39,1,0,0,response1disk,,7,-1,4,1,0,0,rectangle,-1,4,1,0,0,-1,4,1,0,0,0,24,24,118,1,,,,,,,,
,,,,,,,,,,,,,FF,,,,,,,,0.801,,,,,,,,,,,,,,,,,,,,,,60fe137ad0e87625d04c7ebc,61036fcea573cd22ff9f452b,2021-07-30_13h23.33.484,Simcolourproject_2stim_asymm_v5,2020.2.10,Win32,60,61025ae37ef11b136ea224fe,,,,,,,,,4016,30,54,1,0,0,response1disk,,7,-3,3,1,0,0,rectangle,-3,3,1,0,0,-3,3,1,0,0,0,25,25,150,1,,,,,,,,
,,,,,,,,,,,,,FF,,,,,,,,1.0002,,,,,,,,,,,,,,,,,,,,,,60fe137ad0e87625d04c7ebc,61036fcea573cd22ff9f452b,2021-07-30_13h23.33.484,Simcolourproject_2stim_asymm_v5,2020.2.10,Win32,60,61025ae37ef11b136ea224fe,,,,,,,,,578,34,-20,1,0,0,response3disk,,5,6,-6,1,0,0,rectangle,6,-6,1,0,0,6,-6,1,0,0,0,26,26,94,1,,,,,,,,
,,,,,,,,,,,,,FF,,,,,,,,2.0507,,,,,,,,,,,,,,,,,,,,,,60fe137ad0e87625d04c7ebc,61036fcea573cd22ff9f452b,2021-07-30_13h23.33.484,Simcolourproject_2stim_asymm_v5,2020.2.10,Win32,60,61025ae37ef11b136ea224fe,,,,,,,,,4201,45,-33,1,0,0,response3disk,,5,12,0,1,0,0,rectangle,12,0,1,0,0,12,0,1,0,0,0,27,27,130,1,,,,,,,,
,,,,,,,,,,,,,FF,,,,,,,,0.967,,,,,,,,,,,,,,,,,,,,,,60fe137ad0e87625d04c7ebc,61036fcea573cd22ff9f452b,2021-07-30_13h23.33.484,Simcolourproject_2stim_asymm_v5,2020.2.10,Win32,60,61025ae37ef11b136ea224fe,,,,,,,,,2669,24,-42,1,0,0,response3disk,,4,11,12,1,0,0,rectangle,11,12,1,0,0,11,12,1,0,0,0,28,28,158,1,,,,,,,,
,,,,,,,,,,,,,FF,,,,,,,,0.9168,,,,,,,,,,,,,,,,,,,,,,60fe137ad0e87625d04c7ebc,61036fcea573cd22ff9f452b,2021-07-30_13h23.33.484,Simcolourproject_2stim_asymm_v5,2020.2.10,Win32,60,61025ae37ef11b136ea224fe,,,,,,,,,2249,41,43,1,0,0,response1disk,,7,-3,1,1,0,0,rectangle,-3,1,1,0,0,-3,1,1,0,0,0,29,29,21,1,,,,,,,,
,,,,,,,,,,,,,FF,,,,,,,,0.9333,,,,,,,,,,,,,,,,,,,,,,60fe137ad0e87625d04c7ebc,61036fcea573cd22ff9f452b,2021-07-30_13h23.33.484,Simcolourproject_2stim_asymm_v5,2020.2.10,Win32,60,61025ae37ef11b136ea224fe,,,,,,,,,2732,29,51,1,0,0,response1disk,,7,5,6,1,0,0,rectangle,5,6,1,0,0,5,6,1,0,0,0,30,30,62,1,,,,,,,,
,,,,,,,,,,,,,FF,,,,,,,,1.1834,,,,,,,,,,,,,,,,,,,,,,60fe137ad0e87625d04c7ebc,61036fcea573cd22ff9f452b,2021-07-30_13h23.33.484,Simcolourproject_2stim_asymm_v5,2020.2.10,Win32,60,61025ae37ef11b136ea224fe,,,,,,,,,349,66,17,1,0,0,response1disk,,6,1,0,1,0,0,rectangle,1,0,1,0,0,1,0,1,0,0,0,31,31,84,1,,,,,,,,
,,,,,,,,,,,,,FF,,,,,,,,0.8504,,,,,,,,,,,,,,,,,,,,,,60fe137ad0e87625d04c7ebc,61036fcea573cd22ff9f452b,2021-07-30_13h23.33.484,Simcolourproject_2stim_asymm_v5,2020.2.10,Win32,60,61025ae37ef11b136ea224fe,,,,,,,,,2256,29,58,1,0,0,response1disk,,7,-2,3,1,0,0,rectangle,-2,3,1,0,0,-2,3,1,0,0,0,32,32,13,1,,,,,,,,
,,,,,,,,,,,,,FF,,,,,,,,1.0167,,,,,,,,,,,,,,,,,,,,,,60fe137ad0e87625d04c7ebc,61036fcea573cd22ff9f452b,2021-07-30_13h23.33.484,Simcolourproject_2stim_asymm_v5,2020.2.10,Win32,60,61025ae37ef11b136ea224fe,,,,,,,,,2169,37,-18,1,0,0,response3disk,,5,11,-1,1,0,0,rectangle,11,-1,1,0,0,11,-1,1,0,0,0,33,33,131,1,,,,,,,,
,,,,,,,,,,,,,FF,,,,,,,,1.2666,,,,,,,,,,,,,,,,,,,,,,60fe137ad0e87625d04c7ebc,61036fcea573cd22ff9f452b,2021-07-30_13h23.33.484,Simcolourproject_2stim_asymm_v5,2020.2.10,Win32,60,61025ae37ef11b136ea224fe,,,,,,,,,3719,23,-42,1,0,0,response3disk,,4,8,-4,1,0,0,rectangle,8,-4,1,0,0,8,-4,1,0,0,0,34,34,138,1,,,,,,,,
,,,,,,,,,,,,,FF,,,,,,,,0.7669,,,,,,,,,,,,,,,,,,,,,,60fe137ad0e87625d04c7ebc,61036fcea573cd22ff9f452b,2021-07-30_13h23.33.484,Simcolourproject_2stim_asymm_v5,2020.2.10,Win32,60,61025ae37ef11b136ea224fe,,,,,,,,,1999,32,49,1,0,0,response1disk,,7,0,4,1,0,0,rectangle,67,47,1,0,0,24,7,1,0,0,0,35,35,97,1,,response1disk_3,TRUE,6,6,"[154,215,149,107,150,322,11,36,141,181,123,267,294,61,146,11,235,196,233,173]",2.3672,rectangle
,,,,,,,,,,,,,FF,,,,,,,,1.1168,,,,,,,,,,,,,,,,,,,,,,60fe137ad0e87625d04c7ebc,61036fcea573cd22ff9f452b,2021-07-30_13h23.33.484,Simcolourproject_2stim_asymm_v5,2020.2.10,Win32,60,61025ae37ef11b136ea224fe,,,,,,,,,1244,27,18,1,0,0,response1disk,,6,2,-3,1,0,0,rectangle,2,-3,1,0,0,2,-3,1,0,0,0,36,36,29,1,,,,,,,,
,,,,,,,,,,,,,FF,,,,,,,,0.7837,,,,,,,,,,,,,,,,,,,,,,60fe137ad0e87625d04c7ebc,61036fcea573cd22ff9f452b,2021-07-30_13h23.33.484,Simcolourproject_2stim_asymm_v5,2020.2.10,Win32,60,61025ae37ef11b136ea224fe,,,,,,,,,2455,35,60,1,0,0,response1disk,,7,6,15,1,0,0,rectangle,6,15,1,0,0,6,15,1,0,0,0,37,37,25,1,,,,,,,,
,,,,,,,,,,,,,FF,,,,,,,,0.817,,,,,,,,,,,,,,,,,,,,,,60fe137ad0e87625d04c7ebc,61036fcea573cd22ff9f452b,2021-07-30_13h23.33.484,Simcolourproject_2stim_asymm_v5,2020.2.10,Win32,60,61025ae37ef11b136ea224fe,,,,,,,,,4014,26,53,1,0,0,response1disk,,7,3,11,1,0,0,rectangle,3,11,1,0,0,3,11,1,0,0,0,38,38,42,1,,,,,,,,
,,,,,,,,,,,,,FF,,,,,,,,1,,,,,,,,,,,,,,,,,,,,,,60fe137ad0e87625d04c7ebc,61036fcea573cd22ff9f452b,2021-07-30_13h23.33.484,Simcolourproject_2stim_asymm_v5,2020.2.10,Win32,60,61025ae37ef11b136ea224fe,,,,,,,,,2852,30,48,1,0,0,response1disk,,7,4,5,1,0,0,rectangle,4,5,1,0,0,4,5,1,0,0,0,39,39,147,1,,,,,,,,
,,,,,,,,,,,,,FF,,,,,,,,0.9335,,,,,,,,,,,,,,,,,,,,,,60fe137ad0e87625d04c7ebc,61036fcea573cd22ff9f452b,2021-07-30_13h23.33.484,Simcolourproject_2stim_asymm_v5,2020.2.10,Win32,60,61025ae37ef11b136ea224fe,,,,,,,,,473,33,21,1,0,0,response1disk,,6,1,2,1,0,0,rectangle,1,2,1,0,0,1,2,1,0,0,0,40,40,82,1,,,,,,,,
,,,,,,,,,,,,,FF,,,,,,,,1.0001,,,,,,,,,,,,,,,,,,,,,,60fe137ad0e87625d04c7ebc,61036fcea573cd22ff9f452b,2021-07-30_13h23.33.484,Simcolourproject_2stim_asymm_v5,2020.2.10,Win32,60,61025ae37ef11b136ea224fe,,,,,,,,,1801,37,-31,1,0,0,response3disk,,5,16,-9,1,0,0,rectangle,16,-9,1,0,0,16,-9,1,0,0,0,41,41,104,1,,,,,,,,
,,,,,,,,,,,,,FF,,,,,,,,0.8163,,,,,,,,,,,,,,,,,,,,,,60fe137ad0e87625d04c7ebc,61036fcea573cd22ff9f452b,2021-07-30_13h23.33.484,Simcolourproject_2stim_asymm_v5,2020.2.10,Win32,60,61025ae37ef11b136ea224fe,,,,,,,,,1563,28,66,1,0,0,response1disk,,7,-6,6,1,0,0,rectangle,-6,6,1,0,0,-6,6,1,0,0,0,42,42,143,1,,,,,,,,
,,,,,,,,,,,,,FF,,,,,,,,0.9334,,,,,,,,,,,,,,,,,,,,,,60fe137ad0e87625d04c7ebc,61036fcea573cd22ff9f452b,2021-07-30_13h23.33.484,Simcolourproject_2stim_asymm_v5,2020.2.10,Win32,60,61025ae37ef11b136ea224fe,,,,,,,,,2156,34,57,1,0,0,response1disk,,7,4,11,1,0,0,rectangle,4,11,1,0,0,4,11,1,0,0,0,43,43,17,1,,,,,,,,
,,,,,,,,,,,,,FF,,,,,,,,1.3351,,,,,,,,,,,,,,,,,,,,,,60fe137ad0e87625d04c7ebc,61036fcea573cd22ff9f452b,2021-07-30_13h23.33.484,Simcolourproject_2stim_asymm_v5,2020.2.10,Win32,60,61025ae37ef11b136ea224fe,,,,,,,,,616,28,48,1,0,0,response1disk,,7,1,3,1,0,0,rectangle,1,3,1,0,0,1,3,1,0,0,0,44,44,16,1,,,,,,,,
,,,,,,,,,,,,,FF,,,,,,,,0.6831,,,,,,,,,,,,,,,,,,,,,,60fe137ad0e87625d04c7ebc,61036fcea573cd22ff9f452b,2021-07-30_13h23.33.484,Simcolourproject_2stim_asymm_v5,2020.2.10,Win32,60,61025ae37ef11b136ea224fe,,,,,,,,,2847,34,48,1,0,0,response1disk,,7,4,5,1,0,0,rectangle,4,5,1,0,0,4,5,1,0,0,0,45,45,113,1,,,,,,,,
,,,,,,,,,,,,,FF,,,,,,,,1.1333,,,,,,,,,,,,,,,,,,,,,,60fe137ad0e87625d04c7ebc,61036fcea573cd22ff9f452b,2021-07-30_13h23.33.484,Simcolourproject_2stim_asymm_v5,2020.2.10,Win32,60,61025ae37ef11b136ea224fe,,,,,,,,,3330,30,46,1,0,0,response1disk,,7,6,7,1,0,0,rectangle,6,7,1,0,0,6,7,1,0,0,0,46,46,116,1,,,,,,,,
,,,,,,,,,,,,,FF,,,,,,,,0.8853,,,,,,,,,,,,,,,,,,,,,,60fe137ad0e87625d04c7ebc,61036fcea573cd22ff9f452b,2021-07-30_13h23.33.484,Simcolourproject_2stim_asymm_v5,2020.2.10,Win32,60,61025ae37ef11b136ea224fe,,,,,,,,,4325,32,63,1,0,0,response1disk,,7,0,3,1,0,0,rectangle,0,3,1,0,0,0,3,1,0,0,0,47,47,117,1,,,,,,,,
,,,,,,,,,,,,,FF,,,,,,,,1.8498,,,,,,,,,,,,,,,,,,,,,,60fe137ad0e87625d04c7ebc,61036fcea573cd22ff9f452b,2021-07-30_13h23.33.484,Simcolourproject_2stim_asymm_v5,2020.2.10,Win32,60,61025ae37ef11b136ea224fe,,,,,,,,,3119,31,66,1,0,0,response1disk,,7,-5,1,1,0,0,rectangle,-5,1,1,0,0,-5,1,1,0,0,0,48,48,58,1,,,,,,,,
,,,,,,,,,,,,,FF,,,,,,,,1.1336,,,,,,,,,,,,,,,,,,,,,,60fe137ad0e87625d04c7ebc,61036fcea573cd22ff9f452b,2021-07-30_13h23.33.484,Simcolourproject_2stim_asymm_v5,2020.2.10,Win32,60,61025ae37ef11b136ea224fe,,,,,,,,,1896,47,31,1,0,0,response1disk,,6,4,6,1,0,0,rectangle,4,6,1,0,0,4,6,1,0,0,0,49,49,156,1,,,,,,,,
,,,,,,,,,,,,,FF,,,,,,,,0.6338,,,,,,,,,,,,,,,,,,,,,,60fe137ad0e87625d04c7ebc,61036fcea573cd22ff9f452b,2021-07-30_13h23.33.484,Simcolourproject_2stim_asymm_v5,2020.2.10,Win32,60,61025ae37ef11b136ea224fe,,,,,,,,,3136,22,43,1,0,0,response1disk,,7,4,8,1,0,0,rectangle,4,8,1,0,0,4,8,1,0,0,0,50,50,157,1,,,,,,,,
,,,,,,,,,,,,,FF,,,,,,,,1.2166,,,,,,,,,,,,,,,,,,,,,,60fe137ad0e87625d04c7ebc,61036fcea573cd22ff9f452b,2021-07-30_13h23.33.484,Simcolourproject_2stim_asymm_v5,2020.2.10,Win32,60,61025ae37ef11b136ea224fe,,,,,,,,,2166,-30,-53,1,0,0,response5disk,,3,-11,3,1,0,0,rectangle,-11,3,1,0,0,-11,3,1,0,0,0,51,51,83,1,,,,,,,,
,,,,,,,,,,,,,FF,,,,,,,,1.0999,,,,,,,,,,,,,,,,,,,,,,60fe137ad0e87625d04c7ebc,61036fcea573cd22ff9f452b,2021-07-30_13h23.33.484,Simcolourproject_2stim_asymm_v5,2020.2.10,Win32,60,61025ae37ef11b136ea224fe,,,,,,,,,2286,18,46,1,0,0,response1disk,,7,-5,12,1,0,0,rectangle,-5,12,1,0,0,-5,12,1,0,0,0,52,52,88,1,,,,,,,,
,,,,,,,,,,,,,FF,,,,,,,,0.8837,,,,,,,,,,,,,,,,,,,,,,60fe137ad0e87625d04c7ebc,61036fcea573cd22ff9f452b,2021-07-30_13h23.33.484,Simcolourproject_2stim_asymm_v5,2020.2.10,Win32,60,61025ae37ef11b136ea224fe,,,,,,,,,362,24,51,1,0,0,response1disk,,7,-4,8,1,0,0,rectangle,-4,8,1,0,0,-4,8,1,0,0,0,53,53,90,1,,,,,,,,
,,,,,,,,,,,,,FF,,,,,,,,1.3,,,,,,,,,,,,,,,,,,,,,,60fe137ad0e87625d04c7ebc,61036fcea573cd22ff9f452b,2021-07-30_13h23.33.484,Simcolourproject_2stim_asymm_v5,2020.2.10,Win32,60,61025ae37ef11b136ea224fe,,,,,,,,,1750,-54,-35,1,0,0,response5disk,,2,-2,12,1,0,0,rectangle,-2,12,1,0,0,-2,12,1,0,0,0,54,54,119,1,,,,,,,,
,,,,,,,,,,,,,FF,,,,,,,,1.4331,,,,,,,,,,,,,,,,,,,,,,60fe137ad0e87625d04c7ebc,61036fcea573cd22ff9f452b,2021-07-30_13h23.33.484,Simcolourproject_2stim_asymm_v5,2020.2.10,Win32,60,61025ae37ef11b136ea224fe,,,,,,,,,3788,20,-18,1,0,0,response3disk,,5,10,-14,1,0,0,rectangle,10,-14,1,0,0,10,-14,1,0,0,0,55,55,135,1,,,,,,,,
,,,,,,,,,,,,,FF,,,,,,,,1.0001,,,,,,,,,,,,,,,,,,,,,,60fe137ad0e87625d04c7ebc,61036fcea573cd22ff9f452b,2021-07-30_13h23.33.484,Simcolourproject_2stim_asymm_v5,2020.2.10,Win32,60,61025ae37ef11b136ea224fe,,,,,,,,,187,43,-20,1,0,0,response3disk,,5,-30,-5,1,0,0,rectangle,-30,-5,1,0,0,-30,-5,1,0,0,0,56,56,18,1,,,,,,,,
,,,,,,,,,,,,,FF,,,,,,,,1.0503,,,,,,,,,,,,,,,,,,,,,,60fe137ad0e87625d04c7ebc,61036fcea573cd22ff9f452b,2021-07-30_13h23.33.484,Simcolourproject_2stim_asymm_v5,2020.2.10,Win32,60,61025ae37ef11b136ea224fe,,,,,,,,,653,53,49,1,0,0,response1disk,,6,-2,6,1,0,0,rectangle,-2,6,1,0,0,-2,6,1,0,0,0,57,57,19,1,,,,,,,,
,,,,,,,,,,,,,FF,,,,,,,,1.4836,,,,,,,,,,,,,,,,,,,,,,60fe137ad0e87625d04c7ebc,61036fcea573cd22ff9f452b,2021-07-30_13h23.33.484,Simcolourproject_2stim_asymm_v5,2020.2.10,Win32,60,61025ae37ef11b136ea224fe,,,,,,,,,2934,56,30,1,0,0,response1disk,,6,4,-1,1,0,0,rectangle,4,-1,1,0,0,4,-1,1,0,0,0,58,58,121,1,,,,,,,,
,,,,,,,,,,,,,FF,,,,,,,,0.7162,,,,,,,,,,,,,,,,,,,,,,60fe137ad0e87625d04c7ebc,61036fcea573cd22ff9f452b,2021-07-30_13h23.33.484,Simcolourproject_2stim_asymm_v5,2020.2.10,Win32,60,61025ae37ef11b136ea224fe,,,,,,,,,3499,32,71,1,0,0,response1disk,,7,2,9,1,0,0,rectangle,2,9,1,0,0,2,9,1,0,0,0,59,59,28,1,,,,,,,,
,,,,,,,,,,,,,FF,,,,,,,,0.8169,,,,,,,,,,,,,,,,,,,,,,60fe137ad0e87625d04c7ebc,61036fcea573cd22ff9f452b,2021-07-30_13h23.33.484,Simcolourproject_2stim_asymm_v5,2020.2.10,Win32,60,61025ae37ef11b136ea224fe,,,,,,,,,2207,26,45,1,0,0,response1disk,,7,8,13,1,0,0,rectangle,31,58,1,0,0,8,4,1,0,0,0,60,60,109,1,,response1disk_3,TRUE,7,7,"[154,215,149,107,150,322,11,36,141,181,123,267,294,61,146,11,235,196,233,173]",1.9149,rectangle
,,,,,,,,,,,,,FF,,,,,,,,0.8663,,,,,,,,,,,,,,,,,,,,,,60fe137ad0e87625d04c7ebc,61036fcea573cd22ff9f452b,2021-07-30_13h23.33.484,Simcolourproject_2stim_asymm_v5,2020.2.10,Win32,60,61025ae37ef11b136ea224fe,,,,,,,,,391,33,54,1,0,0,response1disk,,7,0,9,1,0,0,rectangle,0,9,1,0,0,0,9,1,0,0,0,61,61,31,1,,,,,,,,
,,,,,,,,,,,,,FF,,,,,,,,1.8007,,,,,,,,,,,,,,,,,,,,,,60fe137ad0e87625d04c7ebc,61036fcea573cd22ff9f452b,2021-07-30_13h23.33.484,Simcolourproject_2stim_asymm_v5,2020.2.10,Win32,60,61025ae37ef11b136ea224fe,,,,,,,,,881,64,38,1,0,0,response1disk,,6,14,7,1,0,0,rectangle,14,7,1,0,0,14,7,1,0,0,0,62,62,80,1,,,,,,,,
,,,,,,,,,,,,,FF,,,,,,,,0.5502,,,,,,,,,,,,,,,,,,,,,,60fe137ad0e87625d04c7ebc,61036fcea573cd22ff9f452b,2021-07-30_13h23.33.484,Simcolourproject_2stim_asymm_v5,2020.2.10,Win32,60,61025ae37ef11b136ea224fe,,,,,,,,,2438,28,52,1,0,0,response1disk,,7,3,12,1,0,0,rectangle,3,12,1,0,0,3,12,1,0,0,0,63,63,63,1,,,,,,,,
,,,,,,,,,,,,,FF,,,,,,,,0.9334,,,,,,,,,,,,,,,,,,,,,,60fe137ad0e87625d04c7ebc,61036fcea573cd22ff9f452b,2021-07-30_13h23.33.484,Simcolourproject_2stim_asymm_v5,2020.2.10,Win32,60,61025ae37ef11b136ea224fe,,,,,,,,,3392,43,-30,1,0,0,response3disk,,5,5,0,1,0,0,rectangle,5,0,1,0,0,5,0,1,0,0,0,64,64,123,1,,,,,,,,
,,,,,,,,,,,,,FF,,,,,,,,0.7174,,,,,,,,,,,,,,,,,,,,,,60fe137ad0e87625d04c7ebc,61036fcea573cd22ff9f452b,2021-07-30_13h23.33.484,Simcolourproject_2stim_asymm_v5,2020.2.10,Win32,60,61025ae37ef11b136ea224fe,,,,,,,,,2460,41,66,1,0,0,response1disk,,7,8,7,1,0,0,rectangle,8,7,1,0,0,8,7,1,0,0,0,65,65,73,1,,,,,,,,
,,,,,,,,,,,,,FF,,,,,,,,1.6335,,,,,,,,,,,,,,,,,,,,,,60fe137ad0e87625d04c7ebc,61036fcea573cd22ff9f452b,2021-07-30_13h23.33.484,Simcolourproject_2stim_asymm_v5,2020.2.10,Win32,60,61025ae37ef11b136ea224fe,,,,,,,,,2094,-25,-52,1,0,0,response5disk,,3,-2,5,1,0,0,rectangle,-2,5,1,0,0,-2,5,1,0,0,0,66,66,100,1,,,,,,,,
,,,,,,,,,,,,,FF,,,,,,,,0.8836,,,,,,,,,,,,,,,,,,,,,,60fe137ad0e87625d04c7ebc,61036fcea573cd22ff9f452b,2021-07-30_13h23.33.484,Simcolourproject_2stim_asymm_v5,2020.2.10,Win32,60,61025ae37ef11b136ea224fe,,,,,,,,,43,26,45,1,0,0,response1disk,,7,4,14,1,0,0,rectangle,4,14,1,0,0,4,14,1,0,0,0,67,67,23,1,,,,,,,,
,,,,,,,,,,,,,FF,,,,,,,,0.7502,,,,,,,,,,,,,,,,,,,,,,60fe137ad0e87625d04c7ebc,61036fcea573cd22ff9f452b,2021-07-30_13h23.33.484,Simcolourproject_2stim_asymm_v5,2020.2.10,Win32,60,61025ae37ef11b136ea224fe,,,,,,,,,4215,26,51,1,0,0,response1disk,,7,1,10,1,0,0,rectangle,1,10,1,0,0,1,10,1,0,0,0,68,68,15,1,,,,,,,,
,,,,,,,,,,,,,FF,,,,,,,,0.8334,,,,,,,,,,,,,,,,,,,,,,60fe137ad0e87625d04c7ebc,61036fcea573cd22ff9f452b,2021-07-30_13h23.33.484,Simcolourproject_2stim_asymm_v5,2020.2.10,Win32,60,61025ae37ef11b136ea224fe,,,,,,,,,176,57,85,1,0,0,response1disk,,7,-10,-3,1,0,0,rectangle,-10,-3,1,0,0,-10,-3,1,0,0,0,69,69,148,1,,,,,,,,
,,,,,,,,,,,,,FF,,,,,,,,0.817,,,,,,,,,,,,,,,,,,,,,,60fe137ad0e87625d04c7ebc,61036fcea573cd22ff9f452b,2021-07-30_13h23.33.484,Simcolourproject_2stim_asymm_v5,2020.2.10,Win32,60,61025ae37ef11b136ea224fe,,,,,,,,,3619,41,72,1,0,0,response1disk,,7,-2,7,1,0,0,rectangle,-2,7,1,0,0,-2,7,1,0,0,0,70,70,68,1,,,,,,,,
,,,,,,,,,,,,,FF,,,,,,,,1.8664,,,,,,,,,,,,,,,,,,,,,,60fe137ad0e87625d04c7ebc,61036fcea573cd22ff9f452b,2021-07-30_13h23.33.484,Simcolourproject_2stim_asymm_v5,2020.2.10,Win32,60,61025ae37ef11b136ea224fe,,,,,,,,,3399,-21,47,1,0,0,response7disk,,0,0,12,1,0,0,rectangle,0,12,1,0,0,0,12,1,0,0,0,71,71,43,1,,,,,,,,
,,,,,,,,,,,,,FF,,,,,,,,1.2998,,,,,,,,,,,,,,,,,,,,,,60fe137ad0e87625d04c7ebc,61036fcea573cd22ff9f452b,2021-07-30_13h23.33.484,Simcolourproject_2stim_asymm_v5,2020.2.10,Win32,60,61025ae37ef11b136ea224fe,,,,,,,,,675,-16,43,1,0,0,response7disk,,0,0,8,1,0,0,rectangle,0,8,1,0,0,0,8,1,0,0,0,72,72,128,1,,,,,,,,
,,,,,,,,,,,,,FF,,,,,,,,0.7524,,,,,,,,,,,,,,,,,,,,,,60fe137ad0e87625d04c7ebc,61036fcea573cd22ff9f452b,2021-07-30_13h23.33.484,Simcolourproject_2stim_asymm_v5,2020.2.10,Win32,60,61025ae37ef11b136ea224fe,,,,,,,,,1706,20,38,1,0,0,response1disk,,7,-1,9,1,0,0,rectangle,-1,9,1,0,0,-1,9,1,0,0,0,73,73,89,1,,,,,,,,
,,,,,,,,,,,,,FF,,,,,,,,1.5004,,,,,,,,,,,,,,,,,,,,,,60fe137ad0e87625d04c7ebc,61036fcea573cd22ff9f452b,2021-07-30_13h23.33.484,Simcolourproject_2stim_asymm_v5,2020.2.10,Win32,60,61025ae37ef11b136ea224fe,,,,,,,,,694,23,40,1,0,0,response1disk,,7,-1,3,1,0,0,rectangle,-1,3,1,0,0,-1,3,1,0,0,0,74,74,105,1,,,,,,,,
,,,,,,,,,,,,,FF,,,,,,,,1.3006,,,,,,,,,,,,,,,,,,,,,,60fe137ad0e87625d04c7ebc,61036fcea573cd22ff9f452b,2021-07-30_13h23.33.484,Simcolourproject_2stim_asymm_v5,2020.2.10,Win32,60,61025ae37ef11b136ea224fe,,,,,,,,,1792,64,31,1,0,0,response1disk,,6,-17,-1,1,0,0,rectangle,-17,-1,1,0,0,-17,-1,1,0,0,0,75,75,40,1,,,,,,,,
,,,,,,,,,,,,,FF,,,,,,,,0.6833,,,,,,,,,,,,,,,,,,,,,,60fe137ad0e87625d04c7ebc,61036fcea573cd22ff9f452b,2021-07-30_13h23.33.484,Simcolourproject_2stim_asymm_v5,2020.2.10,Win32,60,61025ae37ef11b136ea224fe,,,,,,,,,3152,-21,51,1,0,0,response7disk,,0,-4,3,1,0,0,rectangle,-4,3,1,0,0,-4,3,1,0,0,0,76,76,7,1,,,,,,,,
,,,,,,,,,,,,,FF,,,,,,,,1.017,,,,,,,,,,,,,,,,,,,,,,60fe137ad0e87625d04c7ebc,61036fcea573cd22ff9f452b,2021-07-30_13h23.33.484,Simcolourproject_2stim_asymm_v5,2020.2.10,Win32,60,61025ae37ef11b136ea224fe,,,,,,,,,834,54,88,1,0,0,response1disk,,7,1,9,1,0,0,rectangle,1,9,1,0,0,1,9,1,0,0,0,77,77,55,1,,,,,,,,
,,,,,,,,,,,,,FF,,,,,,,,1.3505,,,,,,,,,,,,,,,,,,,,,,60fe137ad0e87625d04c7ebc,61036fcea573cd22ff9f452b,2021-07-30_13h23.33.484,Simcolourproject_2stim_asymm_v5,2020.2.10,Win32,60,61025ae37ef11b136ea224fe,,,,,,,,,1395,65,34,1,0,0,response1disk,,6,2,-1,1,0,0,rectangle,2,-1,1,0,0,2,-1,1,0,0,0,78,78,107,1,,,,,,,,
,,,,,,,,,,,,,FF,,,,,,,,2.5336,,,,,,,,,,,,,,,,,,,,,,60fe137ad0e87625d04c7ebc,61036fcea573cd22ff9f452b,2021-07-30_13h23.33.484,Simcolourproject_2stim_asymm_v5,2020.2.10,Win32,60,61025ae37ef11b136ea224fe,,,,,,,,,2993,-48,-25,1,0,0,response5disk,,2,11,-3,1,0,0,rectangle,11,-3,1,0,0,11,-3,1,0,0,0,79,79,144,1,,,,,,,,
,,,,,,,,,,,,,FF,,,,,,,,0.733,,,,,,,,,,,,,,,,,,,,,,60fe137ad0e87625d04c7ebc,61036fcea573cd22ff9f452b,2021-07-30_13h23.33.484,Simcolourproject_2stim_asymm_v5,2020.2.10,Win32,60,61025ae37ef11b136ea224fe,,,,,,,,,1867,35,50,1,0,0,response1disk,,7,-8,-14,1,0,0,rectangle,-8,-14,1,0,0,-8,-14,1,0,0,0,80,80,136,1,,,,,,,,
,,,,,,,,,,,,,FF,,,,,,,,0.5507,,,,,,,,,,,,,,,,,,,,,,60fe137ad0e87625d04c7ebc,61036fcea573cd22ff9f452b,2021-07-30_13h23.33.484,Simcolourproject_2stim_asymm_v5,2020.2.10,Win32,60,61025ae37ef11b136ea224fe,,,,,,,,,1019,30,40,1,0,0,response1disk,,7,12,14,1,0,0,rectangle,12,14,1,0,0,12,14,1,0,0,0,81,81,78,1,,,,,,,,
,,,,,,,,,,,,,FF,,,,,,,,0.517,,,,,,,,,,,,,,,,,,,,,,60fe137ad0e87625d04c7ebc,61036fcea573cd22ff9f452b,2021-07-30_13h23.33.484,Simcolourproject_2stim_asymm_v5,2020.2.10,Win32,60,61025ae37ef11b136ea224fe,,,,,,,,,3228,27,37,1,0,0,response1disk,,7,4,0,1,0,0,rectangle,4,0,1,0,0,4,0,1,0,0,0,82,82,70,1,,,,,,,,
,,,,,,,,,,,,,FF,,,,,,,,0.5175,,,,,,,,,,,,,,,,,,,,,,60fe137ad0e87625d04c7ebc,61036fcea573cd22ff9f452b,2021-07-30_13h23.33.484,Simcolourproject_2stim_asymm_v5,2020.2.10,Win32,60,61025ae37ef11b136ea224fe,,,,,,,,,1472,32,48,1,0,0,response1disk,,7,5,5,1,0,0,rectangle,5,5,1,0,0,5,5,1,0,0,0,83,83,59,1,,,,,,,,
,,,,,,,,,,,,,FF,,,,,,,,1.1671,,,,,,,,,,,,,,,,,,,,,,60fe137ad0e87625d04c7ebc,61036fcea573cd22ff9f452b,2021-07-30_13h23.33.484,Simcolourproject_2stim_asymm_v5,2020.2.10,Win32,60,61025ae37ef11b136ea224fe,,,,,,,,,2350,-42,63,1,0,0,response7disk,,0,-15,11,1,0,0,rectangle,-15,11,1,0,0,-15,11,1,0,0,0,84,84,98,1,,,,,,,,
,,,,,,,,,,,,,FF,,,,,,,,0.3667,,,,,,,,,,,,,,,,,,,,,,60fe137ad0e87625d04c7ebc,61036fcea573cd22ff9f452b,2021-07-30_13h23.33.484,Simcolourproject_2stim_asymm_v5,2020.2.10,Win32,60,61025ae37ef11b136ea224fe,,,,,,,,,1482,45,29,1,0,0,response1disk,,6,16,11,1,0,0,rectangle,16,11,1,0,0,16,11,1,0,0,0,85,85,41,1,,,,,,,,
,,,,,,,,,,,,,FF,,,,,,,,0.45,,,,,,,,,,,,,,,,,,,,,,60fe137ad0e87625d04c7ebc,61036fcea573cd22ff9f452b,2021-07-30_13h23.33.484,Simcolourproject_2stim_asymm_v5,2020.2.10,Win32,60,61025ae37ef11b136ea224fe,,,,,,,,,4241,27,47,1,0,0,response1disk,,7,4,10,1,0,0,rectangle,4,10,1,0,0,4,10,1,0,0,0,86,86,52,1,,,,,,,,
,,,,,,,,,,,,,FF,,,,,,,,0.3834,,,,,,,,,,,,,,,,,,,,,,60fe137ad0e87625d04c7ebc,61036fcea573cd22ff9f452b,2021-07-30_13h23.33.484,Simcolourproject_2stim_asymm_v5,2020.2.10,Win32,60,61025ae37ef11b136ea224fe,,,,,,,,,3876,21,40,1,0,0,response1disk,,7,2,10,1,0,0,rectangle,2,10,1,0,0,2,10,1,0,0,0,87,87,57,1,,,,,,,,
,,,,,,,,,,,,,FF,,,,,,,,0.4675,,,,,,,,,,,,,,,,,,,,,,60fe137ad0e87625d04c7ebc,61036fcea573cd22ff9f452b,2021-07-30_13h23.33.484,Simcolourproject_2stim_asymm_v5,2020.2.10,Win32,60,61025ae37ef11b136ea224fe,,,,,,,,,3572,18,33,1,0,0,response1disk,,7,2,2,1,0,0,rectangle,2,2,1,0,0,2,2,1,0,0,0,88,88,39,1,,,,,,,,
,,,,,,,,,,,,,FF,,,,,,,,0.5838,,,,,,,,,,,,,,,,,,,,,,60fe137ad0e87625d04c7ebc,61036fcea573cd22ff9f452b,2021-07-30_13h23.33.484,Simcolourproject_2stim_asymm_v5,2020.2.10,Win32,60,61025ae37ef11b136ea224fe,,,,,,,,,3323,24,33,1,0,0,response1disk,,7,7,3,1,0,0,rectangle,7,3,1,0,0,7,3,1,0,0,0,89,89,154,1,,,,,,,,
,,,,,,,,,,,,,FF,,,,,,,,0.5171,,,,,,,,,,,,,,,,,,,,,,60fe137ad0e87625d04c7ebc,61036fcea573cd22ff9f452b,2021-07-30_13h23.33.484,Simcolourproject_2stim_asymm_v5,2020.2.10,Win32,60,61025ae37ef11b136ea224fe,,,,,,,,,124,18,31,1,0,0,response1disk,,7,5,5,1,0,0,rectangle,5,5,1,0,0,5,5,1,0,0,0,90,90,47,1,,,,,,,,
,,,,,,,,,,,,,FF,,,,,,,,0.5507,,,,,,,,,,,,,,,,,,,,,,60fe137ad0e87625d04c7ebc,61036fcea573cd22ff9f452b,2021-07-30_13h23.33.484,Simcolourproject_2stim_asymm_v5,2020.2.10,Win32,60,61025ae37ef11b136ea224fe,,,,,,,,,3840,19,40,1,0,0,response1disk,,7,4,11,1,0,0,rectangle,4,11,1,0,0,4,11,1,0,0,0,91,91,76,1,,,,,,,,
,,,,,,,,,,,,,FF,,,,,,,,0.5339,,,,,,,,,,,,,,,,,,,,,,60fe137ad0e87625d04c7ebc,61036fcea573cd22ff9f452b,2021-07-30_13h23.33.484,Simcolourproject_2stim_asymm_v5,2020.2.10,Win32,60,61025ae37ef11b136ea224fe,,,,,,,,,865,16,36,1,0,0,response1disk,,7,3,7,1,0,0,rectangle,3,7,1,0,0,3,7,1,0,0,0,92,92,32,1,,,,,,,,
,,,,,,,,,,,,,FF,,,,,,,,0.4836,,,,,,,,,,,,,,,,,,,,,,60fe137ad0e87625d04c7ebc,61036fcea573cd22ff9f452b,2021-07-30_13h23.33.484,Simcolourproject_2stim_asymm_v5,2020.2.10,Win32,60,61025ae37ef11b136ea224fe,,,,,,,,,3932,19,39,1,0,0,response1disk,,7,-1,9,1,0,0,rectangle,-1,9,1,0,0,-1,9,1,0,0,0,93,93,155,1,,,,,,,,
,,,,,,,,,,,,,FF,,,,,,,,0.8168,,,,,,,,,,,,,,,,,,,,,,60fe137ad0e87625d04c7ebc,61036fcea573cd22ff9f452b,2021-07-30_13h23.33.484,Simcolourproject_2stim_asymm_v5,2020.2.10,Win32,60,61025ae37ef11b136ea224fe,,,,,,,,,1901,52,25,1,0,0,response1disk,,6,-4,-11,1,0,0,rectangle,-4,-11,1,0,0,-4,-11,1,0,0,0,94,94,134,1,,,,,,,,
,,,,,,,,,,,,,FF,,,,,,,,0.5336,,,,,,,,,,,,,,,,,,,,,,60fe137ad0e87625d04c7ebc,61036fcea573cd22ff9f452b,2021-07-30_13h23.33.484,Simcolourproject_2stim_asymm_v5,2020.2.10,Win32,60,61025ae37ef11b136ea224fe,,,,,,,,,3234,20,42,1,0,0,response1disk,,7,0,3,1,0,0,rectangle,0,3,1,0,0,0,3,1,0,0,0,95,95,9,1,,,,,,,,
,,,,,,,,,,,,,FF,,,,,,,,0.484,,,,,,,,,,,,,,,,,,,,,,60fe137ad0e87625d04c7ebc,61036fcea573cd22ff9f452b,2021-07-30_13h23.33.484,Simcolourproject_2stim_asymm_v5,2020.2.10,Win32,60,61025ae37ef11b136ea224fe,,,,,,,,,1641,34,50,1,0,0,response1disk,,7,10,14,1,0,0,rectangle,10,14,1,0,0,10,14,1,0,0,0,96,96,132,1,,,,,,,,
,,,,,,,,,,,,,FF,,,,,,,,0.8499,,,,,,,,,,,,,,,,,,,,,,60fe137ad0e87625d04c7ebc,61036fcea573cd22ff9f452b,2021-07-30_13h23.33.484,Simcolourproject_2stim_asymm_v5,2020.2.10,Win32,60,61025ae37ef11b136ea224fe,,,,,,,,,1828,64,-22,1,0,0,response3disk,,5,4,-9,1,0,0,rectangle,4,-9,1,0,0,4,-9,1,0,0,0,97,97,14,1,,,,,,,,
,,,,,,,,,,,,,FF,,,,,,,,0.5334,,,,,,,,,,,,,,,,,,,,,,60fe137ad0e87625d04c7ebc,61036fcea573cd22ff9f452b,2021-07-30_13h23.33.484,Simcolourproject_2stim_asymm_v5,2020.2.10,Win32,60,61025ae37ef11b136ea224fe,,,,,,,,,859,18,42,1,0,0,response1disk,,7,4,14,1,0,0,rectangle,4,14,1,0,0,4,14,1,0,0,0,98,98,77,1,,,,,,,,
,,,,,,,,,,,,,FF,,,,,,,,0.4347,,,,,,,,,,,,,,,,,,,,,,60fe137ad0e87625d04c7ebc,61036fcea573cd22ff9f452b,2021-07-30_13h23.33.484,Simcolourproject_2stim_asymm_v5,2020.2.10,Win32,60,61025ae37ef11b136ea224fe,,,,,,,,,747,29,51,1,0,0,response1disk,,7,-2,7,1,0,0,rectangle,-2,7,1,0,0,-2,7,1,0,0,0,99,99,106,1,,,,,,,,
,,,,,,,,,,,,,FF,,,,,,,,1.2692,,,,,,,,,,,,,,,,,,,,,,60fe137ad0e87625d04c7ebc,61036fcea573cd22ff9f452b,2021-07-30_13h23.33.484,Simcolourproject_2stim_asymm_v5,2020.2.10,Win32,60,61025ae37ef11b136ea224fe,,,,,,,,,2998,69,-27,1,0,0,response3disk,,5,3,-13,1,0,0,rectangle,3,-13,1,0,0,3,-13,1,0,0,0,100,100,33,1,,,,,,,,
,,,,,,,,,,,,,FF,,,,,,,,0.7163,,,,,,,,,,,,,,,,,,,,,,60fe137ad0e87625d04c7ebc,61036fcea573cd22ff9f452b,2021-07-30_13h23.33.484,Simcolourproject_2stim_asymm_v5,2020.2.10,Win32,60,61025ae37ef11b136ea224fe,,,,,,,,,1809,25,41,1,0,0,response1disk,,7,3,-2,1,0,0,rectangle,3,-2,1,0,0,3,-2,1,0,0,0,101,101,74,1,,,,,,,,
,,,,,,,,,,,,,FF,,,,,,,,0.8167,,,,,,,,,,,,,,,,,,,,,,60fe137ad0e87625d04c7ebc,61036fcea573cd22ff9f452b,2021-07-30_13h23.33.484,Simcolourproject_2stim_asymm_v5,2020.2.10,Win32,60,61025ae37ef11b136ea224fe,,,,,,,,,2986,20,62,1,0,0,response1disk,,7,-1,4,1,0,0,rectangle,-1,4,1,0,0,-1,4,1,0,0,0,102,102,45,1,,,,,,,,
,,,,,,,,,,,,,FF,,,,,,,,0.4837,,,,,,,,,,,,,,,,,,,,,,60fe137ad0e87625d04c7ebc,61036fcea573cd22ff9f452b,2021-07-30_13h23.33.484,Simcolourproject_2stim_asymm_v5,2020.2.10,Win32,60,61025ae37ef11b136ea224fe,,,,,,,,,1664,35,47,1,0,0,response1disk,,7,15,15,1,0,0,rectangle,15,15,1,0,0,15,15,1,0,0,0,103,103,126,1,,,,,,,,
,,,,,,,,,,,,,FF,,,,,,,,0.7172,,,,,,,,,,,,,,,,,,,,,,60fe137ad0e87625d04c7ebc,61036fcea573cd22ff9f452b,2021-07-30_13h23.33.484,Simcolourproject_2stim_asymm_v5,2020.2.10,Win32,60,61025ae37ef11b136ea224fe,,,,,,,,,2223,18,33,1,0,0,response1disk,,7,5,13,1,0,0,rectangle,5,13,1,0,0,5,13,1,0,0,0,104,104,4,1,,,,,,,,
,,,,,,,,,,,,,FF,,,,,,,,0.7168,,,,,,,,,,,,,,,,,,,,,,60fe137ad0e87625d04c7ebc,61036fcea573cd22ff9f452b,2021-07-30_13h23.33.484,Simcolourproject_2stim_asymm_v5,2020.2.10,Win32,60,61025ae37ef11b136ea224fe,,,,,,,,,4059,29,53,1,0,0,response1disk,,7,-5,-4,1,0,0,rectangle,-5,-4,1,0,0,-5,-4,1,0,0,0,105,105,36,1,,,,,,,,
,,,,,,,,,,,,,FF,,,,,,,,0.4334,,,,,,,,,,,,,,,,,,,,,,60fe137ad0e87625d04c7ebc,61036fcea573cd22ff9f452b,2021-07-30_13h23.33.484,Simcolourproject_2stim_asymm_v5,2020.2.10,Win32,60,61025ae37ef11b136ea224fe,,,,,,,,,3135,26,54,1,0,0,response1disk,,7,-3,-2,1,0,0,rectangle,-22,-24,1,0,0,-3,12,1,0,0,0,106,106,44,1,,response5disk_3,TRUE,3,3,"[154,215,149,107,150,322,11,36,141,181,123,267,294,61,146,11,235,196,233,173]",1.7509,rectangle
,,,,,,,,,,,,,FF,,,,,,,,0.9041,,,,,,,,,,,,,,,,,,,,,,60fe137ad0e87625d04c7ebc,61036fcea573cd22ff9f452b,2021-07-30_13h23.33.484,Simcolourproject_2stim_asymm_v5,2020.2.10,Win32,60,61025ae37ef11b136ea224fe,,,,,,,,,3634,21,44,1,0,0,response1disk,,7,2,5,1,0,0,rectangle,2,5,1,0,0,2,5,1,0,0,0,107,107,151,1,,,,,,,,
,,,,,,,,,,,,,FF,,,,,,,,0.8979,,,,,,,,,,,,,,,,,,,,,,60fe137ad0e87625d04c7ebc,61036fcea573cd22ff9f452b,2021-07-30_13h23.33.484,Simcolourproject_2stim_asymm_v5,2020.2.10,Win32,60,61025ae37ef11b136ea224fe,,,,,,,,,1544,51,39,1,0,0,response1disk,,6,-2,5,1,0,0,rectangle,-2,5,1,0,0,-2,5,1,0,0,0,108,108,129,1,,,,,,,,
,,,,,,,,,,,,,FF,,,,,,,,0.4377,,,,,,,,,,,,,,,,,,,,,,60fe137ad0e87625d04c7ebc,61036fcea573cd22ff9f452b,2021-07-30_13h23.33.484,Simcolourproject_2stim_asymm_v5,2020.2.10,Win32,60,61025ae37ef11b136ea224fe,,,,,,,,,1730,33,54,1,0,0,response1disk,,7,-9,6,1,0,0,rectangle,-9,6,1,0,0,-9,6,1,0,0,0,109,109,149,1,,,,,,,,
,,,,,,,,,,,,,FF,,,,,,,,0.616,,,,,,,,,,,,,,,,,,,,,,60fe137ad0e87625d04c7ebc,61036fcea573cd22ff9f452b,2021-07-30_13h23.33.484,Simcolourproject_2stim_asymm_v5,2020.2.10,Win32,60,61025ae37ef11b136ea224fe,,,,,,,,,394,43,59,1,0,0,response1disk,,7,0,-14,1,0,0,rectangle,0,-14,1,0,0,0,-14,1,0,0,0,110,110,93,1,,,,,,,,
,,,,,,,,,,,,,FF,,,,,,,,0.7208,,,,,,,,,,,,,,,,,,,,,,60fe137ad0e87625d04c7ebc,61036fcea573cd22ff9f452b,2021-07-30_13h23.33.484,Simcolourproject_2stim_asymm_v5,2020.2.10,Win32,60,61025ae37ef11b136ea224fe,,,,,,,,,4153,27,34,1,0,0,response1disk,,7,4,1,1,0,0,rectangle,4,1,1,0,0,4,1,1,0,0,0,111,111,142,1,,,,,,,,
,,,,,,,,,,,,,FF,,,,,,,,0.7372,,,,,,,,,,,,,,,,,,,,,,60fe137ad0e87625d04c7ebc,61036fcea573cd22ff9f452b,2021-07-30_13h23.33.484,Simcolourproject_2stim_asymm_v5,2020.2.10,Win32,60,61025ae37ef11b136ea224fe,,,,,,,,,2422,41,-36,1,0,0,response3disk,,5,18,-14,1,0,0,rectangle,18,-14,1,0,0,18,-14,1,0,0,0,112,112,140,1,,,,,,,,
,,,,,,,,,,,,,FF,,,,,,,,0.6023,,,,,,,,,,,,,,,,,,,,,,60fe137ad0e87625d04c7ebc,61036fcea573cd22ff9f452b,2021-07-30_13h23.33.484,Simcolourproject_2stim_asymm_v5,2020.2.10,Win32,60,61025ae37ef11b136ea224fe,,,,,,,,,181,20,31,1,0,0,response1disk,,7,-2,0,1,0,0,rectangle,-2,0,1,0,0,-2,0,1,0,0,0,113,113,3,1,,,,,,,,
,,,,,,,,,,,,,FF,,,,,,,,0.622,,,,,,,,,,,,,,,,,,,,,,60fe137ad0e87625d04c7ebc,61036fcea573cd22ff9f452b,2021-07-30_13h23.33.484,Simcolourproject_2stim_asymm_v5,2020.2.10,Win32,60,61025ae37ef11b136ea224fe,,,,,,,,,1529,51,24,1,0,0,response1disk,,6,7,-8,1,0,0,rectangle,7,-8,1,0,0,7,-8,1,0,0,0,114,114,26,1,,,,,,,,
,,,,,,,,,,,,,FF,,,,,,,,0.371,,,,,,,,,,,,,,,,,,,,,,60fe137ad0e87625d04c7ebc,61036fcea573cd22ff9f452b,2021-07-30_13h23.33.484,Simcolourproject_2stim_asymm_v5,2020.2.10,Win32,60,61025ae37ef11b136ea224fe,,,,,,,,,3533,20,39,1,0,0,response1disk,,7,1,9,1,0,0,rectangle,1,9,1,0,0,1,9,1,0,0,0,115,115,145,1,,,,,,,,
,,,,,,,,,,,,,FF,,,,,,,,1.1,,,,,,,,,,,,,,,,,,,,,,60fe137ad0e87625d04c7ebc,61036fcea573cd22ff9f452b,2021-07-30_13h23.33.484,Simcolourproject_2stim_asymm_v5,2020.2.10,Win32,60,61025ae37ef11b136ea224fe,,,,,,,,,459,84,20,1,0,0,response1disk,,6,24,4,1,0,0,rectangle,24,4,1,0,0,24,4,1,0,0,0,116,116,27,1,,,,,,,,
,,,,,,,,,,,,,FF,,,,,,,,0.4386,,,,,,,,,,,,,,,,,,,,,,60fe137ad0e87625d04c7ebc,61036fcea573cd22ff9f452b,2021-07-30_13h23.33.484,Simcolourproject_2stim_asymm_v5,2020.2.10,Win32,60,61025ae37ef11b136ea224fe,,,,,,,,,1984,38,58,1,0,0,response1disk,,7,-3,-1,1,0,0,rectangle,-3,-1,1,0,0,-3,-1,1,0,0,0,117,117,22,1,,,,,,,,
,,,,,,,,,,,,,FF,,,,,,,,7.5544,,,,,,,,,,,,,,,,,,,,,,60fe137ad0e87625d04c7ebc,61036fcea573cd22ff9f452b,2021-07-30_13h23.33.484,Simcolourproject_2stim_asymm_v5,2020.2.10,Win32,60,61025ae37ef11b136ea224fe,,,,,,,,,3216,38,58,1,0,0,response1disk,,7,6,14,1,0,0,rectangle,6,14,1,0,0,6,14,1,0,0,0,118,118,96,1,,,,,,,,
,,,,,,,,,,,,,FF,,,,,,,,0.5384,,,,,,,,,,,,,,,,,,,,,,60fe137ad0e87625d04c7ebc,61036fcea573cd22ff9f452b,2021-07-30_13h23.33.484,Simcolourproject_2stim_asymm_v5,2020.2.10,Win32,60,61025ae37ef11b136ea224fe,,,,,,,,,2389,36,57,1,0,0,response1disk,,7,3,10,1,0,0,rectangle,3,10,1,0,0,3,10,1,0,0,0,119,119,111,1,,,,,,,,
,,,,,,,,,,,,,FF,,,,,,,,0.4022,,,,,,,,,,,,,,,,,,,,,,60fe137ad0e87625d04c7ebc,61036fcea573cd22ff9f452b,2021-07-30_13h23.33.484,Simcolourproject_2stim_asymm_v5,2020.2.10,Win32,60,61025ae37ef11b136ea224fe,,,,,,,,,582,30,46,1,0,0,response1disk,,7,-2,-1,1,0,0,rectangle,-2,-1,1,0,0,-2,-1,1,0,0,0,120,120,103,1,,,,,,,,
,,,,,,,,,,,,,FF,,,,,,,,1.4669,,,,,,,,,,,,,,,,,,,,,,60fe137ad0e87625d04c7ebc,61036fcea573cd22ff9f452b,2021-07-30_13h23.33.484,Simcolourproject_2stim_asymm_v5,2020.2.10,Win32,60,61025ae37ef11b136ea224fe,,,,,,,,,4263,35,46,1,0,0,response1disk,,7,-2,-2,1,0,0,rectangle,-2,-2,1,0,0,-2,-2,1,0,0,0,121,121,54,1,,,,,,,,
,,,,,,,,,,,,,FF,,,,,,,,2.8708,,,,,,,,,,,,,,,,,,,,,,60fe137ad0e87625d04c7ebc,61036fcea573cd22ff9f452b,2021-07-30_13h23.33.484,Simcolourproject_2stim_asymm_v5,2020.2.10,Win32,60,61025ae37ef11b136ea224fe,,,,,,,,,2404,24,42,1,0,0,response1disk,,7,4,8,1,0,0,rectangle,-28,43,1,0,0,-13,6,1,0,0,0,122,122,124,1,,response7disk_3,TRUE,0,0,"[154,215,149,107,150,322,11,36,141,181,123,267,294,61,146,11,235,196,233,173]",1.632,rectangle
,,,,,,,,,,,,,FF,,,,,,,,0.7021,,,,,,,,,,,,,,,,,,,,,,60fe137ad0e87625d04c7ebc,61036fcea573cd22ff9f452b,2021-07-30_13h23.33.484,Simcolourproject_2stim_asymm_v5,2020.2.10,Win32,60,61025ae37ef11b136ea224fe,,,,,,,,,2143,17,54,1,0,0,response1disk,,7,-8,13,1,0,0,rectangle,-8,13,1,0,0,-8,13,1,0,0,0,123,123,0,1,,,,,,,,
,,,,,,,,,,,,,FF,,,,,,,,1.0532,,,,,,,,,,,,,,,,,,,,,,60fe137ad0e87625d04c7ebc,61036fcea573cd22ff9f452b,2021-07-30_13h23.33.484,Simcolourproject_2stim_asymm_v5,2020.2.10,Win32,60,61025ae37ef11b136ea224fe,,,,,,,,,1415,64,46,1,0,0,response1disk,,6,10,8,1,0,0,rectangle,10,8,1,0,0,10,8,1,0,0,0,124,124,71,1,,,,,,,,
,,,,,,,,,,,,,FF,,,,,,,,0.5693,,,,,,,,,,,,,,,,,,,,,,60fe137ad0e87625d04c7ebc,61036fcea573cd22ff9f452b,2021-07-30_13h23.33.484,Simcolourproject_2stim_asymm_v5,2020.2.10,Win32,60,61025ae37ef11b136ea224fe,,,,,,,,,1189,23,35,1,0,0,response1disk,,7,-4,-3,1,0,0,rectangle,-4,-3,1,0,0,-4,-3,1,0,0,0,125,125,133,1,,,,,,,,
,,,,,,,,,,,,,FF,,,,,,,,1.8003,,,,,,,,,,,,,,,,,,,,,,60fe137ad0e87625d04c7ebc,61036fcea573cd22ff9f452b,2021-07-30_13h23.33.484,Simcolourproject_2stim_asymm_v5,2020.2.10,Win32,60,61025ae37ef11b136ea224fe,,,,,,,,,3017,33,80,1,0,0,response1disk,,7,1,3,1,0,0,rectangle,1,3,1,0,0,1,3,1,0,0,0,126,126,92,1,,,,,,,,
,,,,,,,,,,,,,FF,,,,,,,,0.5541,,,,,,,,,,,,,,,,,,,,,,60fe137ad0e87625d04c7ebc,61036fcea573cd22ff9f452b,2021-07-30_13h23.33.484,Simcolourproject_2stim_asymm_v5,2020.2.10,Win32,60,61025ae37ef11b136ea224fe,,,,,,,,,1489,42,47,1,0,0,response1disk,,7,11,7,1,0,0,rectangle,11,7,1,0,0,11,7,1,0,0,0,127,127,81,1,,,,,,,,
,,,,,,,,,,,,,FF,,,,,,,,1.1206,,,,,,,,,,,,,,,,,,,,,,60fe137ad0e87625d04c7ebc,61036fcea573cd22ff9f452b,2021-07-30_13h23.33.484,Simcolourproject_2stim_asymm_v5,2020.2.10,Win32,60,61025ae37ef11b136ea224fe,,,,,,,,,1301,31,-45,1,0,0,response3disk,,4,-6,7,1,0,0,rectangle,-6,7,1,0,0,-6,7,1,0,0,0,128,128,152,1,,,,,,,,
,,,,,,,,,,,,,FF,,,,,,,,1.3853,,,,,,,,,,,,,,,,,,,,,,60fe137ad0e87625d04c7ebc,61036fcea573cd22ff9f452b,2021-07-30_13h23.33.484,Simcolourproject_2stim_asymm_v5,2020.2.10,Win32,60,61025ae37ef11b136ea224fe,,,,,,,,,547,-24,-54,1,0,0,response5disk,,3,6,5,1,0,0,rectangle,6,5,1,0,0,6,5,1,0,0,0,129,129,67,1,,,,,,,,
,,,,,,,,,,,,,FF,,,,,,,,0.9669,,,,,,,,,,,,,,,,,,,,,,60fe137ad0e87625d04c7ebc,61036fcea573cd22ff9f452b,2021-07-30_13h23.33.484,Simcolourproject_2stim_asymm_v5,2020.2.10,Win32,60,61025ae37ef11b136ea224fe,,,,,,,,,3821,36,-22,1,0,0,response3disk,,5,10,-3,1,0,0,rectangle,10,-3,1,0,0,10,-3,1,0,0,0,130,130,53,1,,,,,,,,
,,,,,,,,,,,,,FF,,,,,,,,0.5196,,,,,,,,,,,,,,,,,,,,,,60fe137ad0e87625d04c7ebc,61036fcea573cd22ff9f452b,2021-07-30_13h23.33.484,Simcolourproject_2stim_asymm_v5,2020.2.10,Win32,60,61025ae37ef11b136ea224fe,,,,,,,,,2465,35,49,1,0,0,response1disk,,7,-4,-8,1,0,0,rectangle,-4,-8,1,0,0,-4,-8,1,0,0,0,131,131,34,1,,,,,,,,
,,,,,,,,,,,,,FF,,,,,,,,2.9147,,,,,,,,,,,,,,,,,,,,,,60fe137ad0e87625d04c7ebc,61036fcea573cd22ff9f452b,2021-07-30_13h23.33.484,Simcolourproject_2stim_asymm_v5,2020.2.10,Win32,60,61025ae37ef11b136ea224fe,,,,,,,,,3226,42,61,1,0,0,response1disk,,7,-1,-1,1,0,0,rectangle,-1,-1,1,0,0,-1,-1,1,0,0,0,132,132,79,1,,,,,,,,
,,,,,,,,,,,,,FF,,,,,,,,0.6853,,,,,,,,,,,,,,,,,,,,,,60fe137ad0e87625d04c7ebc,61036fcea573cd22ff9f452b,2021-07-30_13h23.33.484,Simcolourproject_2stim_asymm_v5,2020.2.10,Win32,60,61025ae37ef11b136ea224fe,,,,,,,,,1207,16,31,1,0,0,response1disk,,7,-3,0,1,0,0,rectangle,-3,0,1,0,0,-3,0,1,0,0,0,133,133,137,1,,,,,,,,
,,,,,,,,,,,,,FF,,,,,,,,15.7869,,,,,,,,,,,,,,,,,,,,,,60fe137ad0e87625d04c7ebc,61036fcea573cd22ff9f452b,2021-07-30_13h23.33.484,Simcolourproject_2stim_asymm_v5,2020.2.10,Win32,60,61025ae37ef11b136ea224fe,,,,,,,,,148,47,67,1,0,0,response1disk,,7,0,0,1,0,0,rectangle,0,0,1,0,0,0,0,1,0,0,0,134,134,141,1,,,,,,,,
,,,,,,,,,,,,,FF,,,,,,,,0.6544,,,,,,,,,,,,,,,,,,,,,,60fe137ad0e87625d04c7ebc,61036fcea573cd22ff9f452b,2021-07-30_13h23.33.484,Simcolourproject_2stim_asymm_v5,2020.2.10,Win32,60,61025ae37ef11b136ea224fe,,,,,,,,,3520,52,22,1,0,0,response1disk,,6,3,3,1,0,0,rectangle,3,3,1,0,0,3,3,1,0,0,0,135,135,10,1,,,,,,,,
,,,,,,,,,,,,,FF,,,,,,,,0.6219,,,,,,,,,,,,,,,,,,,,,,60fe137ad0e87625d04c7ebc,61036fcea573cd22ff9f452b,2021-07-30_13h23.33.484,Simcolourproject_2stim_asymm_v5,2020.2.10,Win32,60,61025ae37ef11b136ea224fe,,,,,,,,,3394,59,31,1,0,0,response1disk,,6,-2,7,1,0,0,rectangle,-2,7,1,0,0,-2,7,1,0,0,0,136,136,122,1,,,,,,,,
,,,,,,,,,,,,,FF,,,,,,,,0.617,,,,,,,,,,,,,,,,,,,,,,60fe137ad0e87625d04c7ebc,61036fcea573cd22ff9f452b,2021-07-30_13h23.33.484,Simcolourproject_2stim_asymm_v5,2020.2.10,Win32,60,61025ae37ef11b136ea224fe,,,,,,,,,3131,15,30,1,0,0,response1disk,,7,1,9,1,0,0,rectangle,1,9,1,0,0,1,9,1,0,0,0,137,137,99,1,,,,,,,,
,,,,,,,,,,,,,FF,,,,,,,,1.1371,,,,,,,,,,,,,,,,,,,,,,60fe137ad0e87625d04c7ebc,61036fcea573cd22ff9f452b,2021-07-30_13h23.33.484,Simcolourproject_2stim_asymm_v5,2020.2.10,Win32,60,61025ae37ef11b136ea224fe,,,,,,,,,2886,-42,-31,1,0,0,response5disk,,2,-13,-7,1,0,0,rectangle,-13,-7,1,0,0,-13,-7,1,0,0,0,138,138,64,1,,,,,,,,
,,,,,,,,,,,,,FF,,,,,,,,0.5886,,,,,,,,,,,,,,,,,,,,,,60fe137ad0e87625d04c7ebc,61036fcea573cd22ff9f452b,2021-07-30_13h23.33.484,Simcolourproject_2stim_asymm_v5,2020.2.10,Win32,60,61025ae37ef11b136ea224fe,,,,,,,,,1410,31,44,1,0,0,response1disk,,7,-10,-2,1,0,0,rectangle,-10,-2,1,0,0,-10,-2,1,0,0,0,139,139,87,1,,,,,,,,
,,,,,,,,,,,,,FF,,,,,,,,1.5042,,,,,,,,,,,,,,,,,,,,,,60fe137ad0e87625d04c7ebc,61036fcea573cd22ff9f452b,2021-07-30_13h23.33.484,Simcolourproject_2stim_asymm_v5,2020.2.10,Win32,60,61025ae37ef11b136ea224fe,,,,,,,,,1539,79,23,1,0,0,response1disk,,6,-2,-4,1,0,0,rectangle,-23,48,1,0,0,-7,10,1,0,0,0,140,140,24,1,,response7disk_3,TRUE,0,0,"[154,215,149,107,150,322,11,36,141,181,123,267,294,61,146,11,235,196,233,173]",1.2994,rectangle
,,,,,,,,,,,,,FF,,,,,,,,0.7211,,,,,,,,,,,,,,,,,,,,,,60fe137ad0e87625d04c7ebc,61036fcea573cd22ff9f452b,2021-07-30_13h23.33.484,Simcolourproject_2stim_asymm_v5,2020.2.10,Win32,60,61025ae37ef11b136ea224fe,,,,,,,,,714,33,40,1,0,0,response1disk,,7,-10,-14,1,0,0,rectangle,-10,-14,1,0,0,-10,-14,1,0,0,0,141,141,12,1,,,,,,,,
,,,,,,,,,,,,,FF,,,,,,,,0.6708,,,,,,,,,,,,,,,,,,,,,,60fe137ad0e87625d04c7ebc,61036fcea573cd22ff9f452b,2021-07-30_13h23.33.484,Simcolourproject_2stim_asymm_v5,2020.2.10,Win32,60,61025ae37ef11b136ea224fe,,,,,,,,,1310,60,-31,1,0,0,response3disk,,5,9,-5,1,0,0,rectangle,9,-5,1,0,0,9,-5,1,0,0,0,142,142,56,1,,,,,,,,
,,,,,,,,,,,,,FF,,,,,,,,0.6209,,,,,,,,,,,,,,,,,,,,,,60fe137ad0e87625d04c7ebc,61036fcea573cd22ff9f452b,2021-07-30_13h23.33.484,Simcolourproject_2stim_asymm_v5,2020.2.10,Win32,60,61025ae37ef11b136ea224fe,,,,,,,,,1616,48,35,1,0,0,response1disk,,6,-2,1,1,0,0,rectangle,-2,1,1,0,0,-2,1,1,0,0,0,143,143,127,1,,,,,,,,
,,,,,,,,,,,,,FF,,,,,,,,1.4687,,,,,,,,,,,,,,,,,,,,,,60fe137ad0e87625d04c7ebc,61036fcea573cd22ff9f452b,2021-07-30_13h23.33.484,Simcolourproject_2stim_asymm_v5,2020.2.10,Win32,60,61025ae37ef11b136ea224fe,,,,,,,,,2040,48,-52,1,0,0,response3disk,,4,16,15,1,0,0,rectangle,16,15,1,0,0,16,15,1,0,0,0,144,144,114,1,,,,,,,,
,,,,,,,,,,,,,FF,,,,,,,,0.6683,,,,,,,,,,,,,,,,,,,,,,60fe137ad0e87625d04c7ebc,61036fcea573cd22ff9f452b,2021-07-30_13h23.33.484,Simcolourproject_2stim_asymm_v5,2020.2.10,Win32,60,61025ae37ef11b136ea224fe,,,,,,,,,2352,41,25,1,0,0,response1disk,,6,17,10,1,0,0,rectangle,-47,48,1,0,0,-13,-14,1,0,0,0,145,145,95,1,,response7disk_3,TRUE,0,1,"[154,215,149,107,150,322,11,36,141,181,123,267,294,61,146,11,235,196,233,173]",1.1183,rectangle
,,,,,,,,,,,,,FF,,,,,,,,6.57,,,,,,,,,,,,,,,,,,,,,,60fe137ad0e87625d04c7ebc,61036fcea573cd22ff9f452b,2021-07-30_13h23.33.484,Simcolourproject_2stim_asymm_v5,2020.2.10,Win32,60,61025ae37ef11b136ea224fe,,,,,,,,,114,15,35,1,0,0,response1disk,,7,-10,-2,1,0,0,rectangle,-10,-2,1,0,0,-10,-2,1,0,0,0,146,146,5,1,,,,,,,,
,,,,,,,,,,,,,FF,,,,,,,,0.8038,,,,,,,,,,,,,,,,,,,,,,60fe137ad0e87625d04c7ebc,61036fcea573cd22ff9f452b,2021-07-30_13h23.33.484,Simcolourproject_2stim_asymm_v5,2020.2.10,Win32,60,61025ae37ef11b136ea224fe,,,,,,,,,178,15,34,1,0,0,response1disk,,7,-5,-4,1,0,0,rectangle,-5,-4,1,0,0,-5,-4,1,0,0,0,147,147,38,1,,,,,,,,
,,,,,,,,,,,,,FF,,,,,,,,3.5378,,,,,,,,,,,,,,,,,,,,,,60fe137ad0e87625d04c7ebc,61036fcea573cd22ff9f452b,2021-07-30_13h23.33.484,Simcolourproject_2stim_asymm_v5,2020.2.10,Win32,60,61025ae37ef11b136ea224fe,,,,,,,,,243,21,36,1,0,0,response1disk,,7,1,9,1,0,0,rectangle,-16,-57,1,0,0,-1,-6,1,0,0,0,148,148,66,1,,response5disk_3,TRUE,3,3,"[154,215,149,107,150,322,11,36,141,181,123,267,294,61,146,11,235,196,233,173]",2.3523,rectangle
,,,,,,,,,,,,,FF,,,,,,,,0.7876,,,,,,,,,,,,,,,,,,,,,,60fe137ad0e87625d04c7ebc,61036fcea573cd22ff9f452b,2021-07-30_13h23.33.484,Simcolourproject_2stim_asymm_v5,2020.2.10,Win32,60,61025ae37ef11b136ea224fe,,,,,,,,,246,57,21,1,0,0,response1disk,,6,12,-1,1,0,0,rectangle,-29,57,1,0,0,-22,-13,1,0,0,0,149,149,37,1,,response7disk_3,TRUE,0,0,"[154,215,149,107,150,322,11,36,141,181,123,267,294,61,146,11,235,196,233,173]",1.7868,rectangle
,,,,,,,,,,,,,FF,,,,,,,,0.8885,,,,,,,,,,,,,,,,,,,,,,60fe137ad0e87625d04c7ebc,61036fcea573cd22ff9f452b,2021-07-30_13h23.33.484,Simcolourproject_2stim_asymm_v5,2020.2.10,Win32,60,61025ae37ef11b136ea224fe,,,,,,,,,1181,37,47,1,0,0,response1disk,,7,2,-4,1,0,0,rectangle,2,-4,1,0,0,2,-4,1,0,0,0,150,150,65,1,,,,,,,,
,,,,,,,,,,,,,FF,,,,,,,,1.0841,,,,,,,,,,,,,,,,,,,,,,60fe137ad0e87625d04c7ebc,61036fcea573cd22ff9f452b,2021-07-30_13h23.33.484,Simcolourproject_2stim_asymm_v5,2020.2.10,Win32,60,61025ae37ef11b136ea224fe,,,,,,,,,2302,89,-40,1,0,0,response3disk,,5,8,13,1,0,0,rectangle,8,13,1,0,0,8,13,1,0,0,0,151,151,75,1,,,,,,,,
,,,,,,,,,,,,,FF,,,,,,,,1.2141,,,,,,,,,,,,,,,,,,,,,,60fe137ad0e87625d04c7ebc,61036fcea573cd22ff9f452b,2021-07-30_13h23.33.484,Simcolourproject_2stim_asymm_v5,2020.2.10,Win32,60,61025ae37ef11b136ea224fe,,,,,,,,,3100,58,-16,1,0,0,response3disk,,5,19,3,1,0,0,rectangle,19,3,1,0,0,19,3,1,0,0,0,152,152,51,1,,,,,,,,
,,,,,,,,,,,,,FF,,,,,,,,0.7174,,,,,,,,,,,,,,,,,,,,,,60fe137ad0e87625d04c7ebc,61036fcea573cd22ff9f452b,2021-07-30_13h23.33.484,Simcolourproject_2stim_asymm_v5,2020.2.10,Win32,60,61025ae37ef11b136ea224fe,,,,,,,,,688,31,62,1,0,0,response1disk,,7,2,1,1,0,0,rectangle,-46,-27,1,0,0,-4,-6,1,0,0,0,153,153,20,1,,response5disk_3,TRUE,2,2,"[154,215,149,107,150,322,11,36,141,181,123,267,294,61,146,11,235,196,233,173]",2.0839,rectangle
,,,,,,,,,,,,,FF,,,,,,,,0.567,,,,,,,,,,,,,,,,,,,,,,60fe137ad0e87625d04c7ebc,61036fcea573cd22ff9f452b,2021-07-30_13h23.33.484,Simcolourproject_2stim_asymm_v5,2020.2.10,Win32,60,61025ae37ef11b136ea224fe,,,,,,,,,1938,28,40,1,0,0,response1disk,,7,6,5,1,0,0,rectangle,6,5,1,0,0,6,5,1,0,0,0,154,154,50,1,,,,,,,,
,,,,,,,,,,,,,FF,,,,,,,,0.6512,,,,,,,,,,,,,,,,,,,,,,60fe137ad0e87625d04c7ebc,61036fcea573cd22ff9f452b,2021-07-30_13h23.33.484,Simcolourproject_2stim_asymm_v5,2020.2.10,Win32,60,61025ae37ef11b136ea224fe,,,,,,,,,1625,70,29,1,0,0,response1disk,,6,17,7,1,0,0,rectangle,17,7,1,0,0,17,7,1,0,0,0,155,155,153,1,,,,,,,,
,,,,,,,,,,,,,FF,,,,,,,,0.5359,,,,,,,,,,,,,,,,,,,,,,60fe137ad0e87625d04c7ebc,61036fcea573cd22ff9f452b,2021-07-30_13h23.33.484,Simcolourproject_2stim_asymm_v5,2020.2.10,Win32,60,61025ae37ef11b136ea224fe,,,,,,,,,2267,25,40,1,0,0,response1disk,,7,-1,-8,1,0,0,rectangle,-1,-8,1,0,0,-1,-8,1,0,0,0,156,156,30,1,,,,,,,,
,,,,,,,,,,,,,FF,,,,,,,,0.6866,,,,,,,,,,,,,,,,,,,,,,60fe137ad0e87625d04c7ebc,61036fcea573cd22ff9f452b,2021-07-30_13h23.33.484,Simcolourproject_2stim_asymm_v5,2020.2.10,Win32,60,61025ae37ef11b136ea224fe,,,,,,,,,1397,33,53,1,0,0,response1disk,,7,10,13,1,0,0,rectangle,10,13,1,0,0,10,13,1,0,0,0,157,157,48,1,,,,,,,,
,,,,,,,,,,,,,FF,,,,,,,,0.5713,,,,,,,,,,,,,,,,,,,,,,60fe137ad0e87625d04c7ebc,61036fcea573cd22ff9f452b,2021-07-30_13h23.33.484,Simcolourproject_2stim_asymm_v5,2020.2.10,Win32,60,61025ae37ef11b136ea224fe,,,,,,,,,3223,30,43,1,0,0,response1disk,,7,7,6,1,0,0,rectangle,7,6,1,0,0,7,6,1,0,0,0,158,158,112,1,,,,,,,,
,,,,,,,,,,,,,FF,,,,,,,,0.6536,,,,,,,,,,,,,,,,,,,,,,60fe137ad0e87625d04c7ebc,61036fcea573cd22ff9f452b,2021-07-30_13h23.33.484,Simcolourproject_2stim_asymm_v5,2020.2.10,Win32,60,61025ae37ef11b136ea224fe,,,,,,,,,1586,71,24,1,0,0,response1disk,,6,4,1,1,0,0,rectangle,4,1,1,0,0,4,1,1,0,0,0,159,159,115,1,,,,,,,,
,,,,,,,,,,,,,FF,,,,,,,,0.8322,,,,,,,,,,,,,,,,,,,,,,60fe137ad0e87625d04c7ebc,61036fcea573cd22ff9f452b,2021-07-30_13h23.33.484,Simcolourproject_2stim_asymm_v5,2020.2.10,Win32,60,61025ae37ef11b136ea224fe,,,,,,,,,2492,70,26,1,0,0,response1disk,,6,14,10,1,0,0,rectangle,14,10,1,0,0,14,10,1,0,0,1,0,160,6,1,,,,,,,,
,,,,,,,,,,,,,FF,,,,,,,,1.0192,,,,,,,,,,,,,,,,,,,,,,60fe137ad0e87625d04c7ebc,61036fcea573cd22ff9f452b,2021-07-30_13h23.33.484,Simcolourproject_2stim_asymm_v5,2020.2.10,Win32,60,61025ae37ef11b136ea224fe,,,,,,,,,279,84,-29,1,0,0,response3disk,,5,10,-8,1,0,0,rectangle,10,-8,1,0,0,10,-8,1,0,0,1,1,161,27,1,,,,,,,,
,,,,,,,,,,,,,FF,,,,,,,,0.6344,,,,,,,,,,,,,,,,,,,,,,60fe137ad0e87625d04c7ebc,61036fcea573cd22ff9f452b,2021-07-30_13h23.33.484,Simcolourproject_2stim_asymm_v5,2020.2.10,Win32,60,61025ae37ef11b136ea224fe,,,,,,,,,1583,32,78,1,0,0,response1disk,,7,1,4,1,0,0,rectangle,1,4,1,0,0,1,4,1,0,0,1,2,162,128,1,,,,,,,,
,,,,,,,,,,,,,FF,,,,,,,,0.6329,,,,,,,,,,,,,,,,,,,,,,60fe137ad0e87625d04c7ebc,61036fcea573cd22ff9f452b,2021-07-30_13h23.33.484,Simcolourproject_2stim_asymm_v5,2020.2.10,Win32,60,61025ae37ef11b136ea224fe,,,,,,,,,3346,41,62,1,0,0,response1disk,,7,3,2,1,0,0,rectangle,3,2,1,0,0,3,2,1,0,0,1,3,163,141,1,,,,,,,,
,,,,,,,,,,,,,FF,,,,,,,,1.0373,,,,,,,,,,,,,,,,,,,,,,60fe137ad0e87625d04c7ebc,61036fcea573cd22ff9f452b,2021-07-30_13h23.33.484,Simcolourproject_2stim_asymm_v5,2020.2.10,Win32,60,61025ae37ef11b136ea224fe,,,,,,,,,4078,87,-16,1,0,0,response3disk,,5,33,0,1,0,0,rectangle,33,0,1,0,0,33,0,1,0,0,1,4,164,85,1,,,,,,,,
,,,,,,,,,,,,,FF,,,,,,,,0.5397,,,,,,,,,,,,,,,,,,,,,,60fe137ad0e87625d04c7ebc,61036fcea573cd22ff9f452b,2021-07-30_13h23.33.484,Simcolourproject_2stim_asymm_v5,2020.2.10,Win32,60,61025ae37ef11b136ea224fe,,,,,,,,,2798,35,55,1,0,0,response1disk,,7,-2,-13,1,0,0,rectangle,-2,-13,1,0,0,-2,-13,1,0,0,1,5,165,154,1,,,,,,,,
,,,,,,,,,,,,,FF,,,,,,,,0.7878,,,,,,,,,,,,,,,,,,,,,,60fe137ad0e87625d04c7ebc,61036fcea573cd22ff9f452b,2021-07-30_13h23.33.484,Simcolourproject_2stim_asymm_v5,2020.2.10,Win32,60,61025ae37ef11b136ea224fe,,,,,,,,,3853,69,39,1,0,0,response1disk,,6,-4,-3,1,0,0,rectangle,-4,-3,1,0,0,-4,-3,1,0,0,1,6,166,111,1,,,,,,,,
,,,,,,,,,,,,,FF,,,,,,,,0.637,,,,,,,,,,,,,,,,,,,,,,60fe137ad0e87625d04c7ebc,61036fcea573cd22ff9f452b,2021-07-30_13h23.33.484,Simcolourproject_2stim_asymm_v5,2020.2.10,Win32,60,61025ae37ef11b136ea224fe,,,,,,,,,607,52,24,1,0,0,response1disk,,6,18,6,1,0,0,rectangle,18,6,1,0,0,18,6,1,0,0,1,7,167,7,1,,,,,,,,
,,,,,,,,,,,,,FF,,,,,,,,0.5814,,,,,,,,,,,,,,,,,,,,,,60fe137ad0e87625d04c7ebc,61036fcea573cd22ff9f452b,2021-07-30_13h23.33.484,Simcolourproject_2stim_asymm_v5,2020.2.10,Win32,60,61025ae37ef11b136ea224fe,,,,,,,,,2916,26,38,1,0,0,response1disk,,7,0,-10,1,0,0,rectangle,0,-10,1,0,0,0,-10,1,0,0,1,8,168,61,1,,,,,,,,
,,,,,,,,,,,,,FF,,,,,,,,0.5538,,,,,,,,,,,,,,,,,,,,,,60fe137ad0e87625d04c7ebc,61036fcea573cd22ff9f452b,2021-07-30_13h23.33.484,Simcolourproject_2stim_asymm_v5,2020.2.10,Win32,60,61025ae37ef11b136ea224fe,,,,,,,,,3008,30,45,1,0,0,response1disk,,7,10,6,1,0,0,rectangle,10,6,1,0,0,10,6,1,0,0,1,9,169,112,1,,,,,,,,
,,,,,,,,,,,,,FF,,,,,,,,0.4707,,,,,,,,,,,,,,,,,,,,,,60fe137ad0e87625d04c7ebc,61036fcea573cd22ff9f452b,2021-07-30_13h23.33.484,Simcolourproject_2stim_asymm_v5,2020.2.10,Win32,60,61025ae37ef11b136ea224fe,,,,,,,,,404,26,42,1,0,0,response1disk,,7,9,5,1,0,0,rectangle,9,5,1,0,0,9,5,1,0,0,1,10,170,146,1,,,,,,,,
,,,,,,,,,,,,,FF,,,,,,,,0.5537,,,,,,,,,,,,,,,,,,,,,,60fe137ad0e87625d04c7ebc,61036fcea573cd22ff9f452b,2021-07-30_13h23.33.484,Simcolourproject_2stim_asymm_v5,2020.2.10,Win32,60,61025ae37ef11b136ea224fe,,,,,,,,,1265,26,39,1,0,0,response1disk,,7,10,11,1,0,0,rectangle,10,11,1,0,0,10,11,1,0,0,1,11,171,80,1,,,,,,,,
,,,,,,,,,,,,,FF,,,,,,,,0.4365,,,,,,,,,,,,,,,,,,,,,,60fe137ad0e87625d04c7ebc,61036fcea573cd22ff9f452b,2021-07-30_13h23.33.484,Simcolourproject_2stim_asymm_v5,2020.2.10,Win32,60,61025ae37ef11b136ea224fe,,,,,,,,,406,40,64,1,0,0,response1disk,,7,7,9,1,0,0,rectangle,-60,-43,1,0,0,-30,-12,1,0,0,1,12,172,96,1,,response5disk_3,TRUE,2,2,"[154,215,149,107,150,322,11,36,141,181,123,267,294,61,146,11,235,196,233,173]",1.2404,rectangle
,,,,,,,,,,,,,FF,,,,,,,,0.5717,,,,,,,,,,,,,,,,,,,,,,60fe137ad0e87625d04c7ebc,61036fcea573cd22ff9f452b,2021-07-30_13h23.33.484,Simcolourproject_2stim_asymm_v5,2020.2.10,Win32,60,61025ae37ef11b136ea224fe,,,,,,,,,3952,28,67,1,0,0,response1disk,,7,-7,3,1,0,0,rectangle,-7,3,1,0,0,-7,3,1,0,0,1,13,173,11,1,,,,,,,,
,,,,,,,,,,,,,FF,,,,,,,,0.5375,,,,,,,,,,,,,,,,,,,,,,60fe137ad0e87625d04c7ebc,61036fcea573cd22ff9f452b,2021-07-30_13h23.33.484,Simcolourproject_2stim_asymm_v5,2020.2.10,Win32,60,61025ae37ef11b136ea224fe,,,,,,,,,637,71,29,1,0,0,response1disk,,6,-3,3,1,0,0,rectangle,-3,3,1,0,0,-3,3,1,0,0,1,14,174,122,1,,,,,,,,
,,,,,,,,,,,,,FF,,,,,,,,0.7016,,,,,,,,,,,,,,,,,,,,,,60fe137ad0e87625d04c7ebc,61036fcea573cd22ff9f452b,2021-07-30_13h23.33.484,Simcolourproject_2stim_asymm_v5,2020.2.10,Win32,60,61025ae37ef11b136ea224fe,,,,,,,,,1942,55,22,1,0,0,response1disk,,6,7,-7,1,0,0,rectangle,7,-7,1,0,0,7,-7,1,0,0,1,15,175,70,1,,,,,,,,
,,,,,,,,,,,,,FF,,,,,,,,0.5207,,,,,,,,,,,,,,,,,,,,,,60fe137ad0e87625d04c7ebc,61036fcea573cd22ff9f452b,2021-07-30_13h23.33.484,Simcolourproject_2stim_asymm_v5,2020.2.10,Win32,60,61025ae37ef11b136ea224fe,,,,,,,,,511,18,32,1,0,0,response1disk,,7,6,4,1,0,0,rectangle,6,4,1,0,0,6,4,1,0,0,1,16,176,69,1,,,,,,,,
,,,,,,,,,,,,,FF,,,,,,,,0.5052,,,,,,,,,,,,,,,,,,,,,,60fe137ad0e87625d04c7ebc,61036fcea573cd22ff9f452b,2021-07-30_13h23.33.484,Simcolourproject_2stim_asymm_v5,2020.2.10,Win32,60,61025ae37ef11b136ea224fe,,,,,,,,,3502,21,34,1,0,0,response1disk,,7,4,-2,1,0,0,rectangle,4,-2,1,0,0,4,-2,1,0,0,1,17,177,91,1,,,,,,,,
,,,,,,,,,,,,,FF,,,,,,,,0.4858,,,,,,,,,,,,,,,,,,,,,,60fe137ad0e87625d04c7ebc,61036fcea573cd22ff9f452b,2021-07-30_13h23.33.484,Simcolourproject_2stim_asymm_v5,2020.2.10,Win32,60,61025ae37ef11b136ea224fe,,,,,,,,,1685,102,22,1,0,0,response1disk,,6,22,3,1,0,0,rectangle,22,3,1,0,0,22,3,1,0,0,1,18,178,101,1,,,,,,,,
,,,,,,,,,,,,,FF,,,,,,,,0.6171,,,,,,,,,,,,,,,,,,,,,,60fe137ad0e87625d04c7ebc,61036fcea573cd22ff9f452b,2021-07-30_13h23.33.484,Simcolourproject_2stim_asymm_v5,2020.2.10,Win32,60,61025ae37ef11b136ea224fe,,,,,,,,,2117,36,58,1,0,0,response1disk,,7,10,6,1,0,0,rectangle,10,6,1,0,0,10,6,1,0,0,1,19,179,52,1,,,,,,,,
,,,,,,,,,,,,,FF,,,,,,,,0.4211,,,,,,,,,,,,,,,,,,,,,,60fe137ad0e87625d04c7ebc,61036fcea573cd22ff9f452b,2021-07-30_13h23.33.484,Simcolourproject_2stim_asymm_v5,2020.2.10,Win32,60,61025ae37ef11b136ea224fe,,,,,,,,,3727,70,20,1,0,0,response1disk,,6,16,5,1,0,0,rectangle,-44,26,1,0,0,-11,4,1,0,0,1,20,180,88,1,,response7disk_3,TRUE,1,1,"[154,215,149,107,150,322,11,36,141,181,123,267,294,61,146,11,235,196,233,173]",1.7705,rectangle
,,,,,,,,,,,,,FF,,,,,,,,1.0044,,,,,,,,,,,,,,,,,,,,,,60fe137ad0e87625d04c7ebc,61036fcea573cd22ff9f452b,2021-07-30_13h23.33.484,Simcolourproject_2stim_asymm_v5,2020.2.10,Win32,60,61025ae37ef11b136ea224fe,,,,,,,,,1158,96,-33,1,0,0,response3disk,,5,-1,-13,1,0,0,rectangle,-1,-13,1,0,0,-1,-13,1,0,0,1,21,181,124,1,,,,,,,,
,,,,,,,,,,,,,FF,,,,,,,,0.438,,,,,,,,,,,,,,,,,,,,,,60fe137ad0e87625d04c7ebc,61036fcea573cd22ff9f452b,2021-07-30_13h23.33.484,Simcolourproject_2stim_asymm_v5,2020.2.10,Win32,60,61025ae37ef11b136ea224fe,,,,,,,,,3823,23,48,1,0,0,response1disk,,7,-1,11,1,0,0,rectangle,-1,11,1,0,0,-1,11,1,0,0,1,22,182,62,1,,,,,,,,
,,,,,,,,,,,,,FF,,,,,,,,0.3692,,,,,,,,,,,,,,,,,,,,,,60fe137ad0e87625d04c7ebc,61036fcea573cd22ff9f452b,2021-07-30_13h23.33.484,Simcolourproject_2stim_asymm_v5,2020.2.10,Win32,60,61025ae37ef11b136ea224fe,,,,,,,,,3255,32,56,1,0,0,response1disk,,7,-9,0,1,0,0,rectangle,-9,0,1,0,0,-9,0,1,0,0,1,23,183,55,1,,,,,,,,
,,,,,,,,,,,,,FF,,,,,,,,0.4037,,,,,,,,,,,,,,,,,,,,,,60fe137ad0e87625d04c7ebc,61036fcea573cd22ff9f452b,2021-07-30_13h23.33.484,Simcolourproject_2stim_asymm_v5,2020.2.10,Win32,60,61025ae37ef11b136ea224fe,,,,,,,,,1699,19,49,1,0,0,response1disk,,7,-10,-5,1,0,0,rectangle,-10,-5,1,0,0,-10,-5,1,0,0,1,24,184,90,1,,,,,,,,
,,,,,,,,,,,,,FF,,,,,,,,0.4031,,,,,,,,,,,,,,,,,,,,,,60fe137ad0e87625d04c7ebc,61036fcea573cd22ff9f452b,2021-07-30_13h23.33.484,Simcolourproject_2stim_asymm_v5,2020.2.10,Win32,60,61025ae37ef11b136ea224fe,,,,,,,,,4016,29,48,1,0,0,response1disk,,7,-1,-4,1,0,0,rectangle,-1,-4,1,0,0,-1,-4,1,0,0,1,25,185,137,1,,,,,,,,
,,,,,,,,,,,,,FF,,,,,,,,0.6213,,,,,,,,,,,,,,,,,,,,,,60fe137ad0e87625d04c7ebc,61036fcea573cd22ff9f452b,2021-07-30_13h23.33.484,Simcolourproject_2stim_asymm_v5,2020.2.10,Win32,60,61025ae37ef11b136ea224fe,,,,,,,,,578,58,-22,1,0,0,response3disk,,5,24,1,1,0,0,rectangle,24,1,1,0,0,24,1,1,0,0,1,26,186,134,1,,,,,,,,
,,,,,,,,,,,,,FF,,,,,,,,1.0038,,,,,,,,,,,,,,,,,,,,,,60fe137ad0e87625d04c7ebc,61036fcea573cd22ff9f452b,2021-07-30_13h23.33.484,Simcolourproject_2stim_asymm_v5,2020.2.10,Win32,60,61025ae37ef11b136ea224fe,,,,,,,,,4201,26,-28,1,0,0,response3disk,,4,19,-14,1,0,0,rectangle,19,-14,1,0,0,19,-14,1,0,0,1,27,187,114,1,,,,,,,,
,,,,,,,,,,,,,FF,,,,,,,,0.6178,,,,,,,,,,,,,,,,,,,,,,60fe137ad0e87625d04c7ebc,61036fcea573cd22ff9f452b,2021-07-30_13h23.33.484,Simcolourproject_2stim_asymm_v5,2020.2.10,Win32,60,61025ae37ef11b136ea224fe,,,,,,,,,2669,26,-29,1,0,0,response3disk,,4,17,1,1,0,0,rectangle,17,1,1,0,0,17,1,1,0,0,1,28,188,59,1,,,,,,,,
,,,,,,,,,,,,,FF,,,,,,,,0.4532,,,,,,,,,,,,,,,,,,,,,,60fe137ad0e87625d04c7ebc,61036fcea573cd22ff9f452b,2021-07-30_13h23.33.484,Simcolourproject_2stim_asymm_v5,2020.2.10,Win32,60,61025ae37ef11b136ea224fe,,,,,,,,,2249,28,38,1,0,0,response1disk,,7,6,0,1,0,0,rectangle,6,0,1,0,0,6,0,1,0,0,1,29,189,139,1,,,,,,,,
,,,,,,,,,,,,,FF,,,,,,,,0.4877,,,,,,,,,,,,,,,,,,,,,,60fe137ad0e87625d04c7ebc,61036fcea573cd22ff9f452b,2021-07-30_13h23.33.484,Simcolourproject_2stim_asymm_v5,2020.2.10,Win32,60,61025ae37ef11b136ea224fe,,,,,,,,,2732,23,55,1,0,0,response1disk,,7,-1,1,1,0,0,rectangle,-1,1,1,0,0,-1,1,1,0,0,1,30,190,115,1,,,,,,,,
,,,,,,,,,,,,,FF,,,,,,,,0.5703,,,,,,,,,,,,,,,,,,,,,,60fe137ad0e87625d04c7ebc,61036fcea573cd22ff9f452b,2021-07-30_13h23.33.484,Simcolourproject_2stim_asymm_v5,2020.2.10,Win32,60,61025ae37ef11b136ea224fe,,,,,,,,,349,20,35,1,0,0,response1disk,,7,1,1,1,0,0,rectangle,1,1,1,0,0,1,1,1,0,0,1,31,191,63,1,,,,,,,,
,,,,,,,,,,,,,FF,,,,,,,,0.5206,,,,,,,,,,,,,,,,,,,,,,60fe137ad0e87625d04c7ebc,61036fcea573cd22ff9f452b,2021-07-30_13h23.33.484,Simcolourproject_2stim_asymm_v5,2020.2.10,Win32,60,61025ae37ef11b136ea224fe,,,,,,,,,2256,19,33,1,0,0,response1disk,,7,1,-1,1,0,0,rectangle,1,-1,1,0,0,1,-1,1,0,0,1,32,192,79,1,,,,,,,,
,,,,,,,,,,,,,FF,,,,,,,,1.8003,,,,,,,,,,,,,,,,,,,,,,60fe137ad0e87625d04c7ebc,61036fcea573cd22ff9f452b,2021-07-30_13h23.33.484,Simcolourproject_2stim_asymm_v5,2020.2.10,Win32,60,61025ae37ef11b136ea224fe,,,,,,,,,2169,28,49,1,0,0,response1disk,,7,8,11,1,0,0,rectangle,8,11,1,0,0,8,11,1,0,0,1,33,193,107,1,,,,,,,,
,,,,,,,,,,,,,FF,,,,,,,,0.7849,,,,,,,,,,,,,,,,,,,,,,60fe137ad0e87625d04c7ebc,61036fcea573cd22ff9f452b,2021-07-30_13h23.33.484,Simcolourproject_2stim_asymm_v5,2020.2.10,Win32,60,61025ae37ef11b136ea224fe,,,,,,,,,3719,65,26,1,0,0,response1disk,,6,1,9,1,0,0,rectangle,1,9,1,0,0,1,9,1,0,0,1,34,194,135,1,,,,,,,,
,,,,,,,,,,,,,FF,,,,,,,,0.4379,,,,,,,,,,,,,,,,,,,,,,60fe137ad0e87625d04c7ebc,61036fcea573cd22ff9f452b,2021-07-30_13h23.33.484,Simcolourproject_2stim_asymm_v5,2020.2.10,Win32,60,61025ae37ef11b136ea224fe,,,,,,,,,1999,20,42,1,0,0,response1disk,,7,-11,-10,1,0,0,rectangle,32,-59,1,0,0,13,-4,1,0,0,1,35,195,155,1,,response3disk_3,TRUE,4,4,"[154,215,149,107,150,322,11,36,141,181,123,267,294,61,146,11,235,196,233,173]",1.5993,rectangle
,,,,,,,,,,,,,FF,,,,,,,,0.5545,,,,,,,,,,,,,,,,,,,,,,60fe137ad0e87625d04c7ebc,61036fcea573cd22ff9f452b,2021-07-30_13h23.33.484,Simcolourproject_2stim_asymm_v5,2020.2.10,Win32,60,61025ae37ef11b136ea224fe,,,,,,,,,1244,27,50,1,0,0,response1disk,,7,-6,-5,1,0,0,rectangle,-6,-5,1,0,0,-6,-5,1,0,0,1,36,196,152,1,,,,,,,,
,,,,,,,,,,,,,FF,,,,,,,,0.5212,,,,,,,,,,,,,,,,,,,,,,60fe137ad0e87625d04c7ebc,61036fcea573cd22ff9f452b,2021-07-30_13h23.33.484,Simcolourproject_2stim_asymm_v5,2020.2.10,Win32,60,61025ae37ef11b136ea224fe,,,,,,,,,2455,24,40,1,0,0,response1disk,,7,-6,-6,1,0,0,rectangle,-6,-6,1,0,0,-6,-6,1,0,0,1,37,197,118,1,,,,,,,,
,,,,,,,,,,,,,FF,,,,,,,,0.5708,,,,,,,,,,,,,,,,,,,,,,60fe137ad0e87625d04c7ebc,61036fcea573cd22ff9f452b,2021-07-30_13h23.33.484,Simcolourproject_2stim_asymm_v5,2020.2.10,Win32,60,61025ae37ef11b136ea224fe,,,,,,,,,4014,24,35,1,0,0,response1disk,,7,-3,-2,1,0,0,rectangle,-3,-2,1,0,0,-3,-2,1,0,0,1,38,198,93,1,,,,,,,,
,,,,,,,,,,,,,FF,,,,,,,,0.5868,,,,,,,,,,,,,,,,,,,,,,60fe137ad0e87625d04c7ebc,61036fcea573cd22ff9f452b,2021-07-30_13h23.33.484,Simcolourproject_2stim_asymm_v5,2020.2.10,Win32,60,61025ae37ef11b136ea224fe,,,,,,,,,2852,19,31,1,0,0,response1disk,,7,-11,-15,1,0,0,rectangle,-11,-15,1,0,0,-11,-15,1,0,0,1,39,199,120,1,,,,,,,,
,,,,,,,,,,,,,FF,,,,,,,,0.5161,,,,,,,,,,,,,,,,,,,,,,60fe137ad0e87625d04c7ebc,61036fcea573cd22ff9f452b,2021-07-30_13h23.33.484,Simcolourproject_2stim_asymm_v5,2020.2.10,Win32,60,61025ae37ef11b136ea224fe,,,,,,,,,473,51,-21,1,0,0,response3disk,,5,8,3,1,0,0,rectangle,8,3,1,0,0,8,3,1,0,0,1,40,200,68,1,,,,,,,,
,,,,,,,,,,,,,FF,,,,,,,,0.8885,,,,,,,,,,,,,,,,,,,,,,60fe137ad0e87625d04c7ebc,61036fcea573cd22ff9f452b,2021-07-30_13h23.33.484,Simcolourproject_2stim_asymm_v5,2020.2.10,Win32,60,61025ae37ef11b136ea224fe,,,,,,,,,1801,45,-28,1,0,0,response3disk,,5,9,4,1,0,0,rectangle,9,4,1,0,0,9,4,1,0,0,1,41,201,21,1,,,,,,,,
,,,,,,,,,,,,,FF,,,,,,,,0.37,,,,,,,,,,,,,,,,,,,,,,60fe137ad0e87625d04c7ebc,61036fcea573cd22ff9f452b,2021-07-30_13h23.33.484,Simcolourproject_2stim_asymm_v5,2020.2.10,Win32,60,61025ae37ef11b136ea224fe,,,,,,,,,1563,25,42,1,0,0,response1disk,,7,-4,3,1,0,0,rectangle,-4,3,1,0,0,-4,3,1,0,0,1,42,202,98,1,,,,,,,,
,,,,,,,,,,,,,FF,,,,,,,,0.3894,,,,,,,,,,,,,,,,,,,,,,60fe137ad0e87625d04c7ebc,61036fcea573cd22ff9f452b,2021-07-30_13h23.33.484,Simcolourproject_2stim_asymm_v5,2020.2.10,Win32,60,61025ae37ef11b136ea224fe,,,,,,,,,2156,26,51,1,0,0,response1disk,,7,3,11,1,0,0,rectangle,3,11,1,0,0,3,11,1,0,0,1,43,203,82,1,,,,,,,,
,,,,,,,,,,,,,FF,,,,,,,,0.5047,,,,,,,,,,,,,,,,,,,,,,60fe137ad0e87625d04c7ebc,61036fcea573cd22ff9f452b,2021-07-30_13h23.33.484,Simcolourproject_2stim_asymm_v5,2020.2.10,Win32,60,61025ae37ef11b136ea224fe,,,,,,,,,616,54,27,1,0,0,response1disk,,6,2,13,1,0,0,rectangle,2,13,1,0,0,2,13,1,0,0,1,44,204,145,1,,,,,,,,
,,,,,,,,,,,,,FF,,,,,,,,0.3198,,,,,,,,,,,,,,,,,,,,,,60fe137ad0e87625d04c7ebc,61036fcea573cd22ff9f452b,2021-07-30_13h23.33.484,Simcolourproject_2stim_asymm_v5,2020.2.10,Win32,60,61025ae37ef11b136ea224fe,,,,,,,,,2847,18,38,1,0,0,response1disk,,7,3,11,1,0,0,rectangle,3,11,1,0,0,3,11,1,0,0,1,45,205,17,1,,,,,,,,
,,,,,,,,,,,,,FF,,,,,,,,0.6046,,,,,,,,,,,,,,,,,,,,,,60fe137ad0e87625d04c7ebc,61036fcea573cd22ff9f452b,2021-07-30_13h23.33.484,Simcolourproject_2stim_asymm_v5,2020.2.10,Win32,60,61025ae37ef11b136ea224fe,,,,,,,,,3330,64,-30,1,0,0,response3disk,,5,4,8,1,0,0,rectangle,4,8,1,0,0,4,8,1,0,0,1,46,206,130,1,,,,,,,,
,,,,,,,,,,,,,FF,,,,,,,,0.4042,,,,,,,,,,,,,,,,,,,,,,60fe137ad0e87625d04c7ebc,61036fcea573cd22ff9f452b,2021-07-30_13h23.33.484,Simcolourproject_2stim_asymm_v5,2020.2.10,Win32,60,61025ae37ef11b136ea224fe,,,,,,,,,4325,19,32,1,0,0,response1disk,,7,0,-3,1,0,0,rectangle,0,-3,1,0,0,0,-3,1,0,0,1,47,207,83,1,,,,,,,,
,,,,,,,,,,,,,FF,,,,,,,,1.02,,,,,,,,,,,,,,,,,,,,,,60fe137ad0e87625d04c7ebc,61036fcea573cd22ff9f452b,2021-07-30_13h23.33.484,Simcolourproject_2stim_asymm_v5,2020.2.10,Win32,60,61025ae37ef11b136ea224fe,,,,,,,,,3119,20,28,1,0,0,response1disk,,7,1,2,1,0,0,rectangle,1,2,1,0,0,1,2,1,0,0,1,48,208,95,1,,,,,,,,
,,,,,,,,,,,,,FF,,,,,,,,1.104,,,,,,,,,,,,,,,,,,,,,,60fe137ad0e87625d04c7ebc,61036fcea573cd22ff9f452b,2021-07-30_13h23.33.484,Simcolourproject_2stim_asymm_v5,2020.2.10,Win32,60,61025ae37ef11b136ea224fe,,,,,,,,,1896,-16,-53,1,0,0,response5disk,,3,3,-11,1,0,0,rectangle,3,-11,1,0,0,3,-11,1,0,0,1,49,209,5,1,,,,,,,,
,,,,,,,,,,,,,FF,,,,,,,,0.4546,,,,,,,,,,,,,,,,,,,,,,60fe137ad0e87625d04c7ebc,61036fcea573cd22ff9f452b,2021-07-30_13h23.33.484,Simcolourproject_2stim_asymm_v5,2020.2.10,Win32,60,61025ae37ef11b136ea224fe,,,,,,,,,3136,18,35,1,0,0,response1disk,,7,8,9,1,0,0,rectangle,8,9,1,0,0,8,9,1,0,0,1,50,210,46,1,,,,,,,,
,,,,,,,,,,,,,FF,,,,,,,,0.7808,,,,,,,,,,,,,,,,,,,,,,60fe137ad0e87625d04c7ebc,61036fcea573cd22ff9f452b,2021-07-30_13h23.33.484,Simcolourproject_2stim_asymm_v5,2020.2.10,Win32,60,61025ae37ef11b136ea224fe,,,,,,,,,2166,-20,-25,1,0,0,response5disk,,3,-2,4,1,0,0,rectangle,-2,4,1,0,0,-2,4,1,0,0,1,51,211,39,1,,,,,,,,
,,,,,,,,,,,,,FF,,,,,,,,0.5085,,,,,,,,,,,,,,,,,,,,,,60fe137ad0e87625d04c7ebc,61036fcea573cd22ff9f452b,2021-07-30_13h23.33.484,Simcolourproject_2stim_asymm_v5,2020.2.10,Win32,60,61025ae37ef11b136ea224fe,,,,,,,,,2286,39,59,1,0,0,response1disk,,7,4,5,1,0,0,rectangle,4,5,1,0,0,4,5,1,0,0,1,52,212,66,1,,,,,,,,
,,,,,,,,,,,,,FF,,,,,,,,0.4848,,,,,,,,,,,,,,,,,,,,,,60fe137ad0e87625d04c7ebc,61036fcea573cd22ff9f452b,2021-07-30_13h23.33.484,Simcolourproject_2stim_asymm_v5,2020.2.10,Win32,60,61025ae37ef11b136ea224fe,,,,,,,,,362,22,35,1,0,0,response1disk,,7,2,2,1,0,0,rectangle,2,2,1,0,0,2,2,1,0,0,1,53,213,41,1,,,,,,,,
,,,,,,,,,,,,,FF,,,,,,,,1.651,,,,,,,,,,,,,,,,,,,,,,60fe137ad0e87625d04c7ebc,61036fcea573cd22ff9f452b,2021-07-30_13h23.33.484,Simcolourproject_2stim_asymm_v5,2020.2.10,Win32,60,61025ae37ef11b136ea224fe,,,,,,,,,1750,26,-33,1,0,0,response3disk,,4,17,-3,1,0,0,rectangle,15,-40,1,0,0,4,-13,1,0,0,1,54,214,22,1,,response3disk_3,TRUE,4,4,"[154,215,149,107,150,322,11,36,141,181,123,267,294,61,146,11,235,196,233,173]",1.5814,rectangle
,,,,,,,,,,,,,FF,,,,,,,,0.8194,,,,,,,,,,,,,,,,,,,,,,60fe137ad0e87625d04c7ebc,61036fcea573cd22ff9f452b,2021-07-30_13h23.33.484,Simcolourproject_2stim_asymm_v5,2020.2.10,Win32,60,61025ae37ef11b136ea224fe,,,,,,,,,3788,59,-32,1,0,0,response3disk,,5,8,0,1,0,0,rectangle,8,0,1,0,0,8,0,1,0,0,1,55,215,89,1,,,,,,,,
,,,,,,,,,,,,,FF,,,,,,,,0.7505,,,,,,,,,,,,,,,,,,,,,,60fe137ad0e87625d04c7ebc,61036fcea573cd22ff9f452b,2021-07-30_13h23.33.484,Simcolourproject_2stim_asymm_v5,2020.2.10,Win32,60,61025ae37ef11b136ea224fe,,,,,,,,,187,64,-30,1,0,0,response3disk,,5,2,-1,1,0,0,rectangle,2,-1,1,0,0,2,-1,1,0,0,1,56,216,32,1,,,,,,,,
,,,,,,,,,,,,,FF,,,,,,,,0.8555,,,,,,,,,,,,,,,,,,,,,,60fe137ad0e87625d04c7ebc,61036fcea573cd22ff9f452b,2021-07-30_13h23.33.484,Simcolourproject_2stim_asymm_v5,2020.2.10,Win32,60,61025ae37ef11b136ea224fe,,,,,,,,,653,66,-31,1,0,0,response3disk,,5,15,-6,1,0,0,rectangle,15,-6,1,0,0,15,-6,1,0,0,1,57,217,113,1,,,,,,,,
,,,,,,,,,,,,,FF,,,,,,,,0.6374,,,,,,,,,,,,,,,,,,,,,,60fe137ad0e87625d04c7ebc,61036fcea573cd22ff9f452b,2021-07-30_13h23.33.484,Simcolourproject_2stim_asymm_v5,2020.2.10,Win32,60,61025ae37ef11b136ea224fe,,,,,,,,,2934,68,-31,1,0,0,response3disk,,5,6,-7,1,0,0,rectangle,6,-7,1,0,0,6,-7,1,0,0,1,58,218,133,1,,,,,,,,
,,,,,,,,,,,,,FF,,,,,,,,0.537,,,,,,,,,,,,,,,,,,,,,,60fe137ad0e87625d04c7ebc,61036fcea573cd22ff9f452b,2021-07-30_13h23.33.484,Simcolourproject_2stim_asymm_v5,2020.2.10,Win32,60,61025ae37ef11b136ea224fe,,,,,,,,,3499,22,35,1,0,0,response1disk,,7,0,3,1,0,0,rectangle,0,3,1,0,0,0,3,1,0,0,1,59,219,35,1,,,,,,,,
,,,,,,,,,,,,,FF,,,,,,,,0.5491,,,,,,,,,,,,,,,,,,,,,,60fe137ad0e87625d04c7ebc,61036fcea573cd22ff9f452b,2021-07-30_13h23.33.484,Simcolourproject_2stim_asymm_v5,2020.2.10,Win32,60,61025ae37ef11b136ea224fe,,,,,,,,,2207,38,62,1,0,0,response1disk,,7,0,6,1,0,0,rectangle,0,6,1,0,0,0,6,1,0,0,1,60,220,31,1,,,,,,,,
,,,,,,,,,,,,,FF,,,,,,,,0.5537,,,,,,,,,,,,,,,,,,,,,,60fe137ad0e87625d04c7ebc,61036fcea573cd22ff9f452b,2021-07-30_13h23.33.484,Simcolourproject_2stim_asymm_v5,2020.2.10,Win32,60,61025ae37ef11b136ea224fe,,,,,,,,,391,29,46,1,0,0,response1disk,,7,-7,-10,1,0,0,rectangle,-7,-10,1,0,0,-7,-10,1,0,0,1,61,221,117,1,,,,,,,,
,,,,,,,,,,,,,FF,,,,,,,,0.9365,,,,,,,,,,,,,,,,,,,,,,60fe137ad0e87625d04c7ebc,61036fcea573cd22ff9f452b,2021-07-30_13h23.33.484,Simcolourproject_2stim_asymm_v5,2020.2.10,Win32,60,61025ae37ef11b136ea224fe,,,,,,,,,881,35,57,1,0,0,response1disk,,7,2,-9,1,0,0,rectangle,2,-9,1,0,0,2,-9,1,0,0,1,62,222,136,1,,,,,,,,
,,,,,,,,,,,,,FF,,,,,,,,0.454,,,,,,,,,,,,,,,,,,,,,,60fe137ad0e87625d04c7ebc,61036fcea573cd22ff9f452b,2021-07-30_13h23.33.484,Simcolourproject_2stim_asymm_v5,2020.2.10,Win32,60,61025ae37ef11b136ea224fe,,,,,,,,,2438,22,38,1,0,0,response1disk,,7,5,1,1,0,0,rectangle,5,1,1,0,0,5,1,1,0,0,1,63,223,86,1,,,,,,,,
,,,,,,,,,,,,,FF,,,,,,,,0.7714,,,,,,,,,,,,,,,,,,,,,,60fe137ad0e87625d04c7ebc,61036fcea573cd22ff9f452b,2021-07-30_13h23.33.484,Simcolourproject_2stim_asymm_v5,2020.2.10,Win32,60,61025ae37ef11b136ea224fe,,,,,,,,,3392,48,-21,1,0,0,response3disk,,5,9,-11,1,0,0,rectangle,9,-11,1,0,0,9,-11,1,0,0,1,64,224,25,1,,,,,,,,
,,,,,,,,,,,,,FF,,,,,,,,0.3703,,,,,,,,,,,,,,,,,,,,,,60fe137ad0e87625d04c7ebc,61036fcea573cd22ff9f452b,2021-07-30_13h23.33.484,Simcolourproject_2stim_asymm_v5,2020.2.10,Win32,60,61025ae37ef11b136ea224fe,,,,,,,,,2460,37,52,1,0,0,response1disk,,7,13,14,1,0,0,rectangle,13,14,1,0,0,13,14,1,0,0,1,65,225,56,1,,,,,,,,
,,,,,,,,,,,,,FF,,,,,,,,1.1378,,,,,,,,,,,,,,,,,,,,,,60fe137ad0e87625d04c7ebc,61036fcea573cd22ff9f452b,2021-07-30_13h23.33.484,Simcolourproject_2stim_asymm_v5,2020.2.10,Win32,60,61025ae37ef11b136ea224fe,,,,,,,,,2094,-34,-43,1,0,0,response5disk,,3,-16,-9,1,0,0,rectangle,-16,-9,1,0,0,-16,-9,1,0,0,1,66,226,26,1,,,,,,,,
,,,,,,,,,,,,,FF,,,,,,,,0.5869,,,,,,,,,,,,,,,,,,,,,,60fe137ad0e87625d04c7ebc,61036fcea573cd22ff9f452b,2021-07-30_13h23.33.484,Simcolourproject_2stim_asymm_v5,2020.2.10,Win32,60,61025ae37ef11b136ea224fe,,,,,,,,,43,32,63,1,0,0,response1disk,,7,2,14,1,0,0,rectangle,2,14,1,0,0,2,14,1,0,0,1,67,227,1,1,,,,,,,,
,,,,,,,,,,,,,FF,,,,,,,,1.0208,,,,,,,,,,,,,,,,,,,,,,60fe137ad0e87625d04c7ebc,61036fcea573cd22ff9f452b,2021-07-30_13h23.33.484,Simcolourproject_2stim_asymm_v5,2020.2.10,Win32,60,61025ae37ef11b136ea224fe,,,,,,,,,4215,20,43,1,0,0,response1disk,,7,0,4,1,0,0,rectangle,0,4,1,0,0,0,4,1,0,0,1,68,228,87,1,,,,,,,,
,,,,,,,,,,,,,FF,,,,,,,,0.4203,,,,,,,,,,,,,,,,,,,,,,60fe137ad0e87625d04c7ebc,61036fcea573cd22ff9f452b,2021-07-30_13h23.33.484,Simcolourproject_2stim_asymm_v5,2020.2.10,Win32,60,61025ae37ef11b136ea224fe,,,,,,,,,176,30,57,1,0,0,response1disk,,7,-4,-3,1,0,0,rectangle,-4,-3,1,0,0,-4,-3,1,0,0,1,69,229,24,1,,,,,,,,
,,,,,,,,,,,,,FF,,,,,,,,0.3382,,,,,,,,,,,,,,,,,,,,,,60fe137ad0e87625d04c7ebc,61036fcea573cd22ff9f452b,2021-07-30_13h23.33.484,Simcolourproject_2stim_asymm_v5,2020.2.10,Win32,60,61025ae37ef11b136ea224fe,,,,,,,,,3619,34,50,1,0,0,response1disk,,7,0,-2,1,0,0,rectangle,0,-2,1,0,0,0,-2,1,0,0,1,70,230,140,1,,,,,,,,
,,,,,,,,,,,,,FF,,,,,,,,0.6149,,,,,,,,,,,,,,,,,,,,,,60fe137ad0e87625d04c7ebc,61036fcea573cd22ff9f452b,2021-07-30_13h23.33.484,Simcolourproject_2stim_asymm_v5,2020.2.10,Win32,60,61025ae37ef11b136ea224fe,,,,,,,,,3399,62,36,1,0,0,response1disk,,6,-1,-3,1,0,0,rectangle,-1,-3,1,0,0,-1,-3,1,0,0,1,71,231,28,1,,,,,,,,
,,,,,,,,,,,,,FF,,,,,,,,0.2859,,,,,,,,,,,,,,,,,,,,,,60fe137ad0e87625d04c7ebc,61036fcea573cd22ff9f452b,2021-07-30_13h23.33.484,Simcolourproject_2stim_asymm_v5,2020.2.10,Win32,60,61025ae37ef11b136ea224fe,,,,,,,,,675,23,42,1,0,0,response1disk,,7,-1,-3,1,0,0,rectangle,-20,50,1,0,0,-14,14,1,0,0,1,72,232,131,1,,response7disk_3,TRUE,0,0,"[154,215,149,107,150,322,11,36,141,181,123,267,294,61,146,11,235,196,233,173]",1.2545,rectangle
,,,,,,,,,,,,,FF,,,,,,,,0.872,,,,,,,,,,,,,,,,,,,,,,60fe137ad0e87625d04c7ebc,61036fcea573cd22ff9f452b,2021-07-30_13h23.33.484,Simcolourproject_2stim_asymm_v5,2020.2.10,Win32,60,61025ae37ef11b136ea224fe,,,,,,,,,1706,25,43,1,0,0,response1disk,,7,5,11,1,0,0,rectangle,5,11,1,0,0,5,11,1,0,0,1,73,233,99,1,,,,,,,,
,,,,,,,,,,,,,FF,,,,,,,,0.4211,,,,,,,,,,,,,,,,,,,,,,60fe137ad0e87625d04c7ebc,61036fcea573cd22ff9f452b,2021-07-30_13h23.33.484,Simcolourproject_2stim_asymm_v5,2020.2.10,Win32,60,61025ae37ef11b136ea224fe,,,,,,,,,694,26,48,1,0,0,response1disk,,7,5,9,1,0,0,rectangle,51,33,1,0,0,-23,-11,1,0,0,1,74,234,18,1,,response1disk_3,TRUE,6,6,"[154,215,149,107,150,322,11,36,141,181,123,267,294,61,146,11,235,196,233,173]",1.4208,rectangle
,,,,,,,,,,,,,FF,,,,,,,,0.9173,,,,,,,,,,,,,,,,,,,,,,60fe137ad0e87625d04c7ebc,61036fcea573cd22ff9f452b,2021-07-30_13h23.33.484,Simcolourproject_2stim_asymm_v5,2020.2.10,Win32,60,61025ae37ef11b136ea224fe,,,,,,,,,1792,71,29,1,0,0,response1disk,,6,-7,1,1,0,0,rectangle,-7,1,1,0,0,-7,1,1,0,0,1,75,235,20,1,,,,,,,,
,,,,,,,,,,,,,FF,,,,,,,,0.3711,,,,,,,,,,,,,,,,,,,,,,60fe137ad0e87625d04c7ebc,61036fcea573cd22ff9f452b,2021-07-30_13h23.33.484,Simcolourproject_2stim_asymm_v5,2020.2.10,Win32,60,61025ae37ef11b136ea224fe,,,,,,,,,3152,16,37,1,0,0,response1disk,,7,7,14,1,0,0,rectangle,7,14,1,0,0,7,14,1,0,0,1,76,236,159,1,,,,,,,,
,,,,,,,,,,,,,FF,,,,,,,,0.5875,,,,,,,,,,,,,,,,,,,,,,60fe137ad0e87625d04c7ebc,61036fcea573cd22ff9f452b,2021-07-30_13h23.33.484,Simcolourproject_2stim_asymm_v5,2020.2.10,Win32,60,61025ae37ef11b136ea224fe,,,,,,,,,834,20,33,1,0,0,response1disk,,7,-5,-12,1,0,0,rectangle,-5,-12,1,0,0,-5,-12,1,0,0,1,77,237,60,1,,,,,,,,
,,,,,,,,,,,,,FF,,,,,,,,0.6875,,,,,,,,,,,,,,,,,,,,,,60fe137ad0e87625d04c7ebc,61036fcea573cd22ff9f452b,2021-07-30_13h23.33.484,Simcolourproject_2stim_asymm_v5,2020.2.10,Win32,60,61025ae37ef11b136ea224fe,,,,,,,,,1395,24,32,1,0,0,response1disk,,7,7,10,1,0,0,rectangle,7,10,1,0,0,7,10,1,0,0,1,78,238,44,1,,,,,,,,
,,,,,,,,,,,,,FF,,,,,,,,1.7368,,,,,,,,,,,,,,,,,,,,,,60fe137ad0e87625d04c7ebc,61036fcea573cd22ff9f452b,2021-07-30_13h23.33.484,Simcolourproject_2stim_asymm_v5,2020.2.10,Win32,60,61025ae37ef11b136ea224fe,,,,,,,,,2993,-59,22,1,0,0,response7disk,,1,-7,15,1,0,0,rectangle,-7,15,1,0,0,-7,15,1,0,0,1,79,239,74,1,,,,,,,,
,,,,,,,,,,,,,FF,,,,,,,,0.6344,,,,,,,,,,,,,,,,,,,,,,60fe137ad0e87625d04c7ebc,61036fcea573cd22ff9f452b,2021-07-30_13h23.33.484,Simcolourproject_2stim_asymm_v5,2020.2.10,Win32,60,61025ae37ef11b136ea224fe,,,,,,,,,1867,26,47,1,0,0,response1disk,,7,-11,4,1,0,0,rectangle,-11,4,1,0,0,-11,4,1,0,0,1,80,240,10,1,,,,,,,,
,,,,,,,,,,,,,FF,,,,,,,,0.368,,,,,,,,,,,,,,,,,,,,,,60fe137ad0e87625d04c7ebc,61036fcea573cd22ff9f452b,2021-07-30_13h23.33.484,Simcolourproject_2stim_asymm_v5,2020.2.10,Win32,60,61025ae37ef11b136ea224fe,,,,,,,,,1019,15,31,1,0,0,response1disk,,7,-5,-1,1,0,0,rectangle,-5,-1,1,0,0,-5,-1,1,0,0,1,81,241,13,1,,,,,,,,
,,,,,,,,,,,,,FF,,,,,,,,0.4541,,,,,,,,,,,,,,,,,,,,,,60fe137ad0e87625d04c7ebc,61036fcea573cd22ff9f452b,2021-07-30_13h23.33.484,Simcolourproject_2stim_asymm_v5,2020.2.10,Win32,60,61025ae37ef11b136ea224fe,,,,,,,,,3228,21,26,1,0,0,response1disk,,7,-8,-12,1,0,0,rectangle,-8,-12,1,0,0,-8,-12,1,0,0,1,82,242,158,1,,,,,,,,
,,,,,,,,,,,,,FF,,,,,,,,0.3669,,,,,,,,,,,,,,,,,,,,,,60fe137ad0e87625d04c7ebc,61036fcea573cd22ff9f452b,2021-07-30_13h23.33.484,Simcolourproject_2stim_asymm_v5,2020.2.10,Win32,60,61025ae37ef11b136ea224fe,,,,,,,,,1472,33,32,1,0,0,response1disk,,6,-4,-5,1,0,0,rectangle,-4,-5,1,0,0,-4,-5,1,0,0,1,83,243,30,1,,,,,,,,
,,,,,,,,,,,,,FF,,,,,,,,0.4045,,,,,,,,,,,,,,,,,,,,,,60fe137ad0e87625d04c7ebc,61036fcea573cd22ff9f452b,2021-07-30_13h23.33.484,Simcolourproject_2stim_asymm_v5,2020.2.10,Win32,60,61025ae37ef11b136ea224fe,,,,,,,,,2350,28,41,1,0,0,response1disk,,7,8,8,1,0,0,rectangle,8,8,1,0,0,8,8,1,0,0,1,84,244,78,1,,,,,,,,
,,,,,,,,,,,,,FF,,,,,,,,0.4539,,,,,,,,,,,,,,,,,,,,,,60fe137ad0e87625d04c7ebc,61036fcea573cd22ff9f452b,2021-07-30_13h23.33.484,Simcolourproject_2stim_asymm_v5,2020.2.10,Win32,60,61025ae37ef11b136ea224fe,,,,,,,,,1482,22,28,1,0,0,response1disk,,7,4,-1,1,0,0,rectangle,4,-1,1,0,0,4,-1,1,0,0,1,85,245,42,1,,,,,,,,
,,,,,,,,,,,,,FF,,,,,,,,0.5855,,,,,,,,,,,,,,,,,,,,,,60fe137ad0e87625d04c7ebc,61036fcea573cd22ff9f452b,2021-07-30_13h23.33.484,Simcolourproject_2stim_asymm_v5,2020.2.10,Win32,60,61025ae37ef11b136ea224fe,,,,,,,,,4241,40,23,1,0,0,response1disk,,6,13,8,1,0,0,rectangle,13,8,1,0,0,13,8,1,0,0,1,86,246,15,1,,,,,,,,
,,,,,,,,,,,,,FF,,,,,,,,0.3046,,,,,,,,,,,,,,,,,,,,,,60fe137ad0e87625d04c7ebc,61036fcea573cd22ff9f452b,2021-07-30_13h23.33.484,Simcolourproject_2stim_asymm_v5,2020.2.10,Win32,60,61025ae37ef11b136ea224fe,,,,,,,,,3876,25,40,1,0,0,response1disk,,7,6,1,1,0,0,rectangle,6,1,1,0,0,6,1,1,0,0,1,87,247,12,1,,,,,,,,
,,,,,,,,,,,,,FF,,,,,,,,0.5163,,,,,,,,,,,,,,,,,,,,,,60fe137ad0e87625d04c7ebc,61036fcea573cd22ff9f452b,2021-07-30_13h23.33.484,Simcolourproject_2stim_asymm_v5,2020.2.10,Win32,60,61025ae37ef11b136ea224fe,,,,,,,,,3572,26,31,1,0,0,response1disk,,7,3,-6,1,0,0,rectangle,3,-6,1,0,0,3,-6,1,0,0,1,88,248,151,1,,,,,,,,
,,,,,,,,,,,,,FF,,,,,,,,0.4046,,,,,,,,,,,,,,,,,,,,,,60fe137ad0e87625d04c7ebc,61036fcea573cd22ff9f452b,2021-07-30_13h23.33.484,Simcolourproject_2stim_asymm_v5,2020.2.10,Win32,60,61025ae37ef11b136ea224fe,,,,,,,,,3323,18,23,1,0,0,response1disk,,7,0,-6,1,0,0,rectangle,0,-6,1,0,0,0,-6,1,0,0,1,89,249,100,1,,,,,,,,
,,,,,,,,,,,,,FF,,,,,,,,0.3537,,,,,,,,,,,,,,,,,,,,,,60fe137ad0e87625d04c7ebc,61036fcea573cd22ff9f452b,2021-07-30_13h23.33.484,Simcolourproject_2stim_asymm_v5,2020.2.10,Win32,60,61025ae37ef11b136ea224fe,,,,,,,,,124,22,31,1,0,0,response1disk,,7,-1,-9,1,0,0,rectangle,-1,-9,1,0,0,-1,-9,1,0,0,1,90,250,54,1,,,,,,,,
,,,,,,,,,,,,,FF,,,,,,,,0.3364,,,,,,,,,,,,,,,,,,,,,,60fe137ad0e87625d04c7ebc,61036fcea573cd22ff9f452b,2021-07-30_13h23.33.484,Simcolourproject_2stim_asymm_v5,2020.2.10,Win32,60,61025ae37ef11b136ea224fe,,,,,,,,,3840,21,27,1,0,0,response1disk,,7,6,4,1,0,0,rectangle,6,4,1,0,0,6,4,1,0,0,1,91,251,77,1,,,,,,,,
,,,,,,,,,,,,,FF,,,,,,,,0.3381,,,,,,,,,,,,,,,,,,,,,,60fe137ad0e87625d04c7ebc,61036fcea573cd22ff9f452b,2021-07-30_13h23.33.484,Simcolourproject_2stim_asymm_v5,2020.2.10,Win32,60,61025ae37ef11b136ea224fe,,,,,,,,,865,43,65,1,0,0,response1disk,,7,9,6,1,0,0,rectangle,9,6,1,0,0,9,6,1,0,0,1,92,252,34,1,,,,,,,,
,,,,,,,,,,,,,FF,,,,,,,,0.3869,,,,,,,,,,,,,,,,,,,,,,60fe137ad0e87625d04c7ebc,61036fcea573cd22ff9f452b,2021-07-30_13h23.33.484,Simcolourproject_2stim_asymm_v5,2020.2.10,Win32,60,61025ae37ef11b136ea224fe,,,,,,,,,3932,32,36,1,0,0,response1disk,,7,1,-14,1,0,0,rectangle,1,-14,1,0,0,1,-14,1,0,0,1,93,253,94,1,,,,,,,,
,,,,,,,,,,,,,FF,,,,,,,,0.9343,,,,,,,,,,,,,,,,,,,,,,60fe137ad0e87625d04c7ebc,61036fcea573cd22ff9f452b,2021-07-30_13h23.33.484,Simcolourproject_2stim_asymm_v5,2020.2.10,Win32,60,61025ae37ef11b136ea224fe,,,,,,,,,1901,66,-26,1,0,0,response3disk,,5,23,-5,1,0,0,rectangle,23,-5,1,0,0,23,-5,1,0,0,1,94,254,29,1,,,,,,,,
,,,,,,,,,,,,,FF,,,,,,,,0.3882,,,,,,,,,,,,,,,,,,,,,,60fe137ad0e87625d04c7ebc,61036fcea573cd22ff9f452b,2021-07-30_13h23.33.484,Simcolourproject_2stim_asymm_v5,2020.2.10,Win32,60,61025ae37ef11b136ea224fe,,,,,,,,,3234,36,49,1,0,0,response1disk,,7,6,-2,1,0,0,rectangle,6,-2,1,0,0,6,-2,1,0,0,1,95,255,81,1,,,,,,,,
,,,,,,,,,,,,,FF,,,,,,,,0.3699,,,,,,,,,,,,,,,,,,,,,,60fe137ad0e87625d04c7ebc,61036fcea573cd22ff9f452b,2021-07-30_13h23.33.484,Simcolourproject_2stim_asymm_v5,2020.2.10,Win32,60,61025ae37ef11b136ea224fe,,,,,,,,,1641,28,48,1,0,0,response1disk,,7,10,14,1,0,0,rectangle,10,14,1,0,0,10,14,1,0,0,1,96,256,4,1,,,,,,,,
,,,,,,,,,,,,,FF,,,,,,,,0.6511,,,,,,,,,,,,,,,,,,,,,,60fe137ad0e87625d04c7ebc,61036fcea573cd22ff9f452b,2021-07-30_13h23.33.484,Simcolourproject_2stim_asymm_v5,2020.2.10,Win32,60,61025ae37ef11b136ea224fe,,,,,,,,,1828,38,25,1,0,0,response1disk,,6,-13,4,1,0,0,rectangle,-13,4,1,0,0,-13,4,1,0,0,1,97,257,58,1,,,,,,,,
,,,,,,,,,,,,,FF,,,,,,,,1.1011,,,,,,,,,,,,,,,,,,,,,,60fe137ad0e87625d04c7ebc,61036fcea573cd22ff9f452b,2021-07-30_13h23.33.484,Simcolourproject_2stim_asymm_v5,2020.2.10,Win32,60,61025ae37ef11b136ea224fe,,,,,,,,,859,20,50,1,0,0,response1disk,,7,-6,2,1,0,0,rectangle,-6,2,1,0,0,-6,2,1,0,0,1,98,258,72,1,,,,,,,,
,,,,,,,,,,,,,FF,,,,,,,,0.438,,,,,,,,,,,,,,,,,,,,,,60fe137ad0e87625d04c7ebc,61036fcea573cd22ff9f452b,2021-07-30_13h23.33.484,Simcolourproject_2stim_asymm_v5,2020.2.10,Win32,60,61025ae37ef11b136ea224fe,,,,,,,,,747,17,37,1,0,0,response1disk,,7,-12,-11,1,0,0,rectangle,-12,-11,1,0,0,-12,-11,1,0,0,1,99,259,106,1,,,,,,,,
,,,,,,,,,,,,,FF,,,,,,,,1.1035,,,,,,,,,,,,,,,,,,,,,,60fe137ad0e87625d04c7ebc,61036fcea573cd22ff9f452b,2021-07-30_13h23.33.484,Simcolourproject_2stim_asymm_v5,2020.2.10,Win32,60,61025ae37ef11b136ea224fe,,,,,,,,,2998,71,31,1,0,0,response1disk,,6,0,-14,1,0,0,rectangle,0,-14,1,0,0,0,-14,1,0,0,1,100,260,33,1,,,,,,,,
,,,,,,,,,,,,,FF,,,,,,,,0.3349,,,,,,,,,,,,,,,,,,,,,,60fe137ad0e87625d04c7ebc,61036fcea573cd22ff9f452b,2021-07-30_13h23.33.484,Simcolourproject_2stim_asymm_v5,2020.2.10,Win32,60,61025ae37ef11b136ea224fe,,,,,,,,,1809,15,29,1,0,0,response1disk,,7,7,7,1,0,0,rectangle,7,7,1,0,0,7,7,1,0,0,1,101,261,109,1,,,,,,,,
,,,,,,,,,,,,,FF,,,,,,,,0.5874,,,,,,,,,,,,,,,,,,,,,,60fe137ad0e87625d04c7ebc,61036fcea573cd22ff9f452b,2021-07-30_13h23.33.484,Simcolourproject_2stim_asymm_v5,2020.2.10,Win32,60,61025ae37ef11b136ea224fe,,,,,,,,,2986,97,-23,1,0,0,response3disk,,5,15,3,1,0,0,rectangle,15,3,1,0,0,15,3,1,0,0,1,102,262,142,1,,,,,,,,
,,,,,,,,,,,,,FF,,,,,,,,0.3187,,,,,,,,,,,,,,,,,,,,,,60fe137ad0e87625d04c7ebc,61036fcea573cd22ff9f452b,2021-07-30_13h23.33.484,Simcolourproject_2stim_asymm_v5,2020.2.10,Win32,60,61025ae37ef11b136ea224fe,,,,,,,,,1664,33,38,1,0,0,response1disk,,7,12,1,1,0,0,rectangle,12,1,1,0,0,12,1,1,0,0,1,103,263,43,1,,,,,,,,
,,,,,,,,,,,,,FF,,,,,,,,0.4217,,,,,,,,,,,,,,,,,,,,,,60fe137ad0e87625d04c7ebc,61036fcea573cd22ff9f452b,2021-07-30_13h23.33.484,Simcolourproject_2stim_asymm_v5,2020.2.10,Win32,60,61025ae37ef11b136ea224fe,,,,,,,,,2223,27,46,1,0,0,response1disk,,7,1,-9,1,0,0,rectangle,1,-9,1,0,0,1,-9,1,0,0,1,104,264,40,1,,,,,,,,
,,,,,,,,,,,,,FF,,,,,,,,0.4378,,,,,,,,,,,,,,,,,,,,,,60fe137ad0e87625d04c7ebc,61036fcea573cd22ff9f452b,2021-07-30_13h23.33.484,Simcolourproject_2stim_asymm_v5,2020.2.10,Win32,60,61025ae37ef11b136ea224fe,,,,,,,,,4059,26,35,1,0,0,response1disk,,7,8,4,1,0,0,rectangle,8,4,1,0,0,8,4,1,0,0,1,105,265,19,1,,,,,,,,
,,,,,,,,,,,,,FF,,,,,,,,0.5214,,,,,,,,,,,,,,,,,,,,,,60fe137ad0e87625d04c7ebc,61036fcea573cd22ff9f452b,2021-07-30_13h23.33.484,Simcolourproject_2stim_asymm_v5,2020.2.10,Win32,60,61025ae37ef11b136ea224fe,,,,,,,,,3135,17,22,1,0,0,response1disk,,7,8,3,1,0,0,rectangle,-33,38,1,0,0,-8,3,1,0,0,1,106,266,73,1,,response7disk_3,TRUE,0,0,"[154,215,149,107,150,322,11,36,141,181,123,267,294,61,146,11,235,196,233,173]",1.3365,rectangle
,,,,,,,,,,,,,FF,,,,,,,,0.6028,,,,,,,,,,,,,,,,,,,,,,60fe137ad0e87625d04c7ebc,61036fcea573cd22ff9f452b,2021-07-30_13h23.33.484,Simcolourproject_2stim_asymm_v5,2020.2.10,Win32,60,61025ae37ef11b136ea224fe,,,,,,,,,3634,21,27,1,0,0,response1disk,,7,0,-4,1,0,0,rectangle,0,-4,1,0,0,0,-4,1,0,0,1,107,267,119,1,,,,,,,,
,,,,,,,,,,,,,FF,,,,,,,,0.4974,,,,,,,,,,,,,,,,,,,,,,60fe137ad0e87625d04c7ebc,61036fcea573cd22ff9f452b,2021-07-30_13h23.33.484,Simcolourproject_2stim_asymm_v5,2020.2.10,Win32,60,61025ae37ef11b136ea224fe,,,,,,,,,1544,51,18,1,0,0,response1disk,,6,-3,-7,1,0,0,rectangle,-3,-7,1,0,0,-3,-7,1,0,0,1,108,268,65,1,,,,,,,,
,,,,,,,,,,,,,FF,,,,,,,,0.5351,,,,,,,,,,,,,,,,,,,,,,60fe137ad0e87625d04c7ebc,61036fcea573cd22ff9f452b,2021-07-30_13h23.33.484,Simcolourproject_2stim_asymm_v5,2020.2.10,Win32,60,61025ae37ef11b136ea224fe,,,,,,,,,1730,29,51,1,0,0,response1disk,,7,-9,-11,1,0,0,rectangle,-9,-11,1,0,0,-9,-11,1,0,0,1,109,269,36,1,,,,,,,,
,,,,,,,,,,,,,FF,,,,,,,,0.535,,,,,,,,,,,,,,,,,,,,,,60fe137ad0e87625d04c7ebc,61036fcea573cd22ff9f452b,2021-07-30_13h23.33.484,Simcolourproject_2stim_asymm_v5,2020.2.10,Win32,60,61025ae37ef11b136ea224fe,,,,,,,,,394,52,-30,1,0,0,response3disk,,5,21,-10,1,0,0,rectangle,21,-10,1,0,0,21,-10,1,0,0,1,110,270,138,1,,,,,,,,
,,,,,,,,,,,,,FF,,,,,,,,0.433,,,,,,,,,,,,,,,,,,,,,,60fe137ad0e87625d04c7ebc,61036fcea573cd22ff9f452b,2021-07-30_13h23.33.484,Simcolourproject_2stim_asymm_v5,2020.2.10,Win32,60,61025ae37ef11b136ea224fe,,,,,,,,,4153,30,26,1,0,0,response1disk,,6,17,14,1,0,0,rectangle,17,14,1,0,0,17,14,1,0,0,1,111,271,129,1,,,,,,,,
,,,,,,,,,,,,,FF,,,,,,,,0.3705,,,,,,,,,,,,,,,,,,,,,,60fe137ad0e87625d04c7ebc,61036fcea573cd22ff9f452b,2021-07-30_13h23.33.484,Simcolourproject_2stim_asymm_v5,2020.2.10,Win32,60,61025ae37ef11b136ea224fe,,,,,,,,,2422,32,41,1,0,0,response1disk,,7,15,13,1,0,0,rectangle,15,13,1,0,0,15,13,1,0,0,1,112,272,127,1,,,,,,,,
,,,,,,,,,,,,,FF,,,,,,,,0.5508,,,,,,,,,,,,,,,,,,,,,,60fe137ad0e87625d04c7ebc,61036fcea573cd22ff9f452b,2021-07-30_13h23.33.484,Simcolourproject_2stim_asymm_v5,2020.2.10,Win32,60,61025ae37ef11b136ea224fe,,,,,,,,,181,23,27,1,0,0,response1disk,,7,7,-2,1,0,0,rectangle,7,-2,1,0,0,7,-2,1,0,0,1,113,273,57,1,,,,,,,,
,,,,,,,,,,,,,FF,,,,,,,,0.6886,,,,,,,,,,,,,,,,,,,,,,60fe137ad0e87625d04c7ebc,61036fcea573cd22ff9f452b,2021-07-30_13h23.33.484,Simcolourproject_2stim_asymm_v5,2020.2.10,Win32,60,61025ae37ef11b136ea224fe,,,,,,,,,1529,65,24,1,0,0,response1disk,,6,16,-7,1,0,0,rectangle,16,-7,1,0,0,16,-7,1,0,0,1,114,274,103,1,,,,,,,,
,,,,,,,,,,,,,FF,,,,,,,,0.4852,,,,,,,,,,,,,,,,,,,,,,60fe137ad0e87625d04c7ebc,61036fcea573cd22ff9f452b,2021-07-30_13h23.33.484,Simcolourproject_2stim_asymm_v5,2020.2.10,Win32,60,61025ae37ef11b136ea224fe,,,,,,,,,3533,16,23,1,0,0,response1disk,,7,8,-1,1,0,0,rectangle,8,-1,1,0,0,8,-1,1,0,0,1,115,275,14,1,,,,,,,,
,,,,,,,,,,,,,FF,,,,,,,,0.6546,,,,,,,,,,,,,,,,,,,,,,60fe137ad0e87625d04c7ebc,61036fcea573cd22ff9f452b,2021-07-30_13h23.33.484,Simcolourproject_2stim_asymm_v5,2020.2.10,Win32,60,61025ae37ef11b136ea224fe,,,,,,,,,459,77,28,1,0,0,response1disk,,6,26,7,1,0,0,rectangle,26,7,1,0,0,26,7,1,0,0,1,116,276,84,1,,,,,,,,
,,,,,,,,,,,,,FF,,,,,,,,0.504,,,,,,,,,,,,,,,,,,,,,,60fe137ad0e87625d04c7ebc,61036fcea573cd22ff9f452b,2021-07-30_13h23.33.484,Simcolourproject_2stim_asymm_v5,2020.2.10,Win32,60,61025ae37ef11b136ea224fe,,,,,,,,,1984,38,61,1,0,0,response1disk,,7,18,9,1,0,0,rectangle,18,9,1,0,0,18,9,1,0,0,1,117,277,116,1,,,,,,,,
,,,,,,,,,,,,,FF,,,,,,,,0.5651,,,,,,,,,,,,,,,,,,,,,,60fe137ad0e87625d04c7ebc,61036fcea573cd22ff9f452b,2021-07-30_13h23.33.484,Simcolourproject_2stim_asymm_v5,2020.2.10,Win32,60,61025ae37ef11b136ea224fe,,,,,,,,,3216,40,57,1,0,0,response1disk,,7,16,-3,1,0,0,rectangle,16,-3,1,0,0,16,-3,1,0,0,1,118,278,105,1,,,,,,,,
,,,,,,,,,,,,,FF,,,,,,,,0.5035,,,,,,,,,,,,,,,,,,,,,,60fe137ad0e87625d04c7ebc,61036fcea573cd22ff9f452b,2021-07-30_13h23.33.484,Simcolourproject_2stim_asymm_v5,2020.2.10,Win32,60,61025ae37ef11b136ea224fe,,,,,,,,,2389,37,59,1,0,0,response1disk,,7,20,11,1,0,0,rectangle,20,11,1,0,0,20,11,1,0,0,1,119,279,156,1,,,,,,,,
,,,,,,,,,,,,,FF,,,,,,,,0.3355,,,,,,,,,,,,,,,,,,,,,,60fe137ad0e87625d04c7ebc,61036fcea573cd22ff9f452b,2021-07-30_13h23.33.484,Simcolourproject_2stim_asymm_v5,2020.2.10,Win32,60,61025ae37ef11b136ea224fe,,,,,,,,,582,31,46,1,0,0,response1disk,,7,19,13,1,0,0,rectangle,19,13,1,0,0,19,13,1,0,0,1,120,280,48,1,,,,,,,,
,,,,,,,,,,,,,FF,,,,,,,,0.5701,,,,,,,,,,,,,,,,,,,,,,60fe137ad0e87625d04c7ebc,61036fcea573cd22ff9f452b,2021-07-30_13h23.33.484,Simcolourproject_2stim_asymm_v5,2020.2.10,Win32,60,61025ae37ef11b136ea224fe,,,,,,,,,4263,36,62,1,0,0,response1disk,,7,-4,-15,1,0,0,rectangle,-4,-15,1,0,0,-4,-15,1,0,0,1,121,281,49,1,,,,,,,,
,,,,,,,,,,,,,FF,,,,,,,,0.7024,,,,,,,,,,,,,,,,,,,,,,60fe137ad0e87625d04c7ebc,61036fcea573cd22ff9f452b,2021-07-30_13h23.33.484,Simcolourproject_2stim_asymm_v5,2020.2.10,Win32,60,61025ae37ef11b136ea224fe,,,,,,,,,2404,66,30,1,0,0,response1disk,,6,13,5,1,0,0,rectangle,13,5,1,0,0,13,5,1,0,0,1,122,282,144,1,,,,,,,,
,,,,,,,,,,,,,FF,,,,,,,,0.4885,,,,,,,,,,,,,,,,,,,,,,60fe137ad0e87625d04c7ebc,61036fcea573cd22ff9f452b,2021-07-30_13h23.33.484,Simcolourproject_2stim_asymm_v5,2020.2.10,Win32,60,61025ae37ef11b136ea224fe,,,,,,,,,2143,18,29,1,0,0,response1disk,,7,7,-1,1,0,0,rectangle,7,-1,1,0,0,7,-1,1,0,0,1,123,283,149,1,,,,,,,,
,,,,,,,,,,,,,FF,,,,,,,,0.7191,,,,,,,,,,,,,,,,,,,,,,60fe137ad0e87625d04c7ebc,61036fcea573cd22ff9f452b,2021-07-30_13h23.33.484,Simcolourproject_2stim_asymm_v5,2020.2.10,Win32,60,61025ae37ef11b136ea224fe,,,,,,,,,1415,31,65,1,0,0,response1disk,,7,7,-5,1,0,0,rectangle,7,-5,1,0,0,7,-5,1,0,0,1,124,284,147,1,,,,,,,,
,,,,,,,,,,,,,FF,,,,,,,,0.3168,,,,,,,,,,,,,,,,,,,,,,60fe137ad0e87625d04c7ebc,61036fcea573cd22ff9f452b,2021-07-30_13h23.33.484,Simcolourproject_2stim_asymm_v5,2020.2.10,Win32,60,61025ae37ef11b136ea224fe,,,,,,,,,1189,27,34,1,0,0,response1disk,,7,6,-7,1,0,0,rectangle,6,-7,1,0,0,6,-7,1,0,0,1,125,285,2,1,,,,,,,,
,,,,,,,,,,,,,FF,,,,,,,,0.2852,,,,,,,,,,,,,,,,,,,,,,60fe137ad0e87625d04c7ebc,61036fcea573cd22ff9f452b,2021-07-30_13h23.33.484,Simcolourproject_2stim_asymm_v5,2020.2.10,Win32,60,61025ae37ef11b136ea224fe,,,,,,,,,3017,30,28,1,0,0,response1disk,,6,18,8,1,0,0,rectangle,18,8,1,0,0,18,8,1,0,0,1,126,286,23,1,,,,,,,,
,,,,,,,,,,,,,FF,,,,,,,,0.3711,,,,,,,,,,,,,,,,,,,,,,60fe137ad0e87625d04c7ebc,61036fcea573cd22ff9f452b,2021-07-30_13h23.33.484,Simcolourproject_2stim_asymm_v5,2020.2.10,Win32,60,61025ae37ef11b136ea224fe,,,,,,,,,1489,42,73,1,0,0,response1disk,,7,14,11,1,0,0,rectangle,14,11,1,0,0,14,11,1,0,0,1,127,287,110,1,,,,,,,,
,,,,,,,,,,,,,FF,,,,,,,,1.405,,,,,,,,,,,,,,,,,,,,,,60fe137ad0e87625d04c7ebc,61036fcea573cd22ff9f452b,2021-07-30_13h23.33.484,Simcolourproject_2stim_asymm_v5,2020.2.10,Win32,60,61025ae37ef11b136ea224fe,,,,,,,,,1301,59,-23,1,0,0,response3disk,,5,20,-1,1,0,0,rectangle,20,-1,1,0,0,20,-1,1,0,0,1,128,288,3,1,,,,,,,,
,,,,,,,,,,,,,FF,,,,,,,,1.3519,,,,,,,,,,,,,,,,,,,,,,60fe137ad0e87625d04c7ebc,61036fcea573cd22ff9f452b,2021-07-30_13h23.33.484,Simcolourproject_2stim_asymm_v5,2020.2.10,Win32,60,61025ae37ef11b136ea224fe,,,,,,,,,547,51,-23,1,0,0,response3disk,,5,4,9,1,0,0,rectangle,4,9,1,0,0,4,9,1,0,0,1,129,289,38,1,,,,,,,,
,,,,,,,,,,,,,FF,,,,,,,,0.6368,,,,,,,,,,,,,,,,,,,,,,60fe137ad0e87625d04c7ebc,61036fcea573cd22ff9f452b,2021-07-30_13h23.33.484,Simcolourproject_2stim_asymm_v5,2020.2.10,Win32,60,61025ae37ef11b136ea224fe,,,,,,,,,3821,55,46,1,0,0,response1disk,,6,-16,4,1,0,0,rectangle,-16,4,1,0,0,-16,4,1,0,0,1,130,290,37,1,,,,,,,,
,,,,,,,,,,,,,FF,,,,,,,,0.4062,,,,,,,,,,,,,,,,,,,,,,60fe137ad0e87625d04c7ebc,61036fcea573cd22ff9f452b,2021-07-30_13h23.33.484,Simcolourproject_2stim_asymm_v5,2020.2.10,Win32,60,61025ae37ef11b136ea224fe,,,,,,,,,2465,16,60,1,0,0,response1disk,,7,-18,-13,1,0,0,rectangle,-18,-13,1,0,0,-18,-13,1,0,0,1,131,291,50,1,,,,,,,,
,,,,,,,,,,,,,FF,,,,,,,,0.6676,,,,,,,,,,,,,,,,,,,,,,60fe137ad0e87625d04c7ebc,61036fcea573cd22ff9f452b,2021-07-30_13h23.33.484,Simcolourproject_2stim_asymm_v5,2020.2.10,Win32,60,61025ae37ef11b136ea224fe,,,,,,,,,3226,29,78,1,0,0,response1disk,,7,15,4,1,0,0,rectangle,15,4,1,0,0,15,4,1,0,0,1,132,292,102,1,,,,,,,,
,,,,,,,,,,,,,FF,,,,,,,,0.4367,,,,,,,,,,,,,,,,,,,,,,60fe137ad0e87625d04c7ebc,61036fcea573cd22ff9f452b,2021-07-30_13h23.33.484,Simcolourproject_2stim_asymm_v5,2020.2.10,Win32,60,61025ae37ef11b136ea224fe,,,,,,,,,1207,53,67,1,0,0,response1disk,,7,17,1,1,0,0,rectangle,-30,-34,1,0,0,2,5,1,0,0,1,133,293,51,1,,response5disk_3,TRUE,3,3,"[154,215,149,107,150,322,11,36,141,181,123,267,294,61,146,11,235,196,233,173]",2.4198,rectangle
,,,,,,,,,,,,,FF,,,,,,,,0.502,,,,,,,,,,,,,,,,,,,,,,60fe137ad0e87625d04c7ebc,61036fcea573cd22ff9f452b,2021-07-30_13h23.33.484,Simcolourproject_2stim_asymm_v5,2020.2.10,Win32,60,61025ae37ef11b136ea224fe,,,,,,,,,148,32,53,1,0,0,response1disk,,7,9,-8,1,0,0,rectangle,9,-8,1,0,0,9,-8,1,0,0,1,134,294,123,1,,,,,,,,
,,,,,,,,,,,,,FF,,,,,,,,0.668,,,,,,,,,,,,,,,,,,,,,,60fe137ad0e87625d04c7ebc,61036fcea573cd22ff9f452b,2021-07-30_13h23.33.484,Simcolourproject_2stim_asymm_v5,2020.2.10,Win32,60,61025ae37ef11b136ea224fe,,,,,,,,,3520,89,49,1,0,0,response1disk,,6,12,3,1,0,0,rectangle,12,3,1,0,0,12,3,1,0,0,1,135,295,53,1,,,,,,,,
,,,,,,,,,,,,,FF,,,,,,,,0.6554,,,,,,,,,,,,,,,,,,,,,,60fe137ad0e87625d04c7ebc,61036fcea573cd22ff9f452b,2021-07-30_13h23.33.484,Simcolourproject_2stim_asymm_v5,2020.2.10,Win32,60,61025ae37ef11b136ea224fe,,,,,,,,,3394,97,38,1,0,0,response1disk,,6,7,-2,1,0,0,rectangle,7,-2,1,0,0,7,-2,1,0,0,1,136,296,45,1,,,,,,,,
,,,,,,,,,,,,,FF,,,,,,,,0.3872,,,,,,,,,,,,,,,,,,,,,,60fe137ad0e87625d04c7ebc,61036fcea573cd22ff9f452b,2021-07-30_13h23.33.484,Simcolourproject_2stim_asymm_v5,2020.2.10,Win32,60,61025ae37ef11b136ea224fe,,,,,,,,,3131,38,52,1,0,0,response1disk,,7,6,-3,1,0,0,rectangle,6,-3,1,0,0,6,-3,1,0,0,1,137,297,64,1,,,,,,,,
,,,,,,,,,,,,,FF,,,,,,,,1.0041,,,,,,,,,,,,,,,,,,,,,,60fe137ad0e87625d04c7ebc,61036fcea573cd22ff9f452b,2021-07-30_13h23.33.484,Simcolourproject_2stim_asymm_v5,2020.2.10,Win32,60,61025ae37ef11b136ea224fe,,,,,,,,,2886,-37,19,1,0,0,response7disk,,1,-13,10,1,0,0,rectangle,-13,10,1,0,0,-13,10,1,0,0,1,138,298,16,1,,,,,,,,
,,,,,,,,,,,,,FF,,,,,,,,0.8835,,,,,,,,,,,,,,,,,,,,,,60fe137ad0e87625d04c7ebc,61036fcea573cd22ff9f452b,2021-07-30_13h23.33.484,Simcolourproject_2stim_asymm_v5,2020.2.10,Win32,60,61025ae37ef11b136ea224fe,,,,,,,,,1410,107,66,1,0,0,response1disk,,6,5,-6,1,0,0,rectangle,5,-6,1,0,0,5,-6,1,0,0,1,139,299,108,1,,,,,,,,
,,,,,,,,,,,,,FF,,,,,,,,0.6018,,,,,,,,,,,,,,,,,,,,,,60fe137ad0e87625d04c7ebc,61036fcea573cd22ff9f452b,2021-07-30_13h23.33.484,Simcolourproject_2stim_asymm_v5,2020.2.10,Win32,60,61025ae37ef11b136ea224fe,,,,,,,,,1539,99,45,1,0,0,response1disk,,6,-10,-8,1,0,0,rectangle,-10,-8,1,0,0,-10,-8,1,0,0,1,140,300,126,1,,,,,,,,
,,,,,,,,,,,,,FF,,,,,,,,0.537,,,,,,,,,,,,,,,,,,,,,,60fe137ad0e87625d04c7ebc,61036fcea573cd22ff9f452b,2021-07-30_13h23.33.484,Simcolourproject_2stim_asymm_v5,2020.2.10,Win32,60,61025ae37ef11b136ea224fe,,,,,,,,,714,78,24,1,0,0,response1disk,,6,5,-7,1,0,0,rectangle,5,-7,1,0,0,5,-7,1,0,0,1,141,301,104,1,,,,,,,,
,,,,,,,,,,,,,FF,,,,,,,,1.12,,,,,,,,,,,,,,,,,,,,,,60fe137ad0e87625d04c7ebc,61036fcea573cd22ff9f452b,2021-07-30_13h23.33.484,Simcolourproject_2stim_asymm_v5,2020.2.10,Win32,60,61025ae37ef11b136ea224fe,,,,,,,,,1310,89,41,1,0,0,response1disk,,6,20,-1,1,0,0,rectangle,20,-1,1,0,0,20,-1,1,0,0,1,142,302,143,1,,,,,,,,
,,,,,,,,,,,,,FF,,,,,,,,0.6354,,,,,,,,,,,,,,,,,,,,,,60fe137ad0e87625d04c7ebc,61036fcea573cd22ff9f452b,2021-07-30_13h23.33.484,Simcolourproject_2stim_asymm_v5,2020.2.10,Win32,60,61025ae37ef11b136ea224fe,,,,,,,,,1616,76,34,1,0,0,response1disk,,6,20,9,1,0,0,rectangle,20,9,1,0,0,20,9,1,0,0,1,143,303,148,1,,,,,,,,
