key_resp.keys,key_resp.rt,key_resp_14.keys,key_resp_14.rt,key_resp_15.keys,key_resp_15.rt,key_resp_17.keys,key_resp_17.rt,key_resp_9.keys,key_resp_9.rt,key_resp_10.keys,key_resp_10.rt,practice_comparison,Ecc,mouse_5.x,mouse_5.y,mouse_5.leftButton,mouse_5.midButton,mouse_5.rightButton,mouse_5.clicked_name,pracsimilarity,response_time,mouse_10.x,mouse_10.y,mouse_10.leftButton,mouse_10.midButton,mouse_10.rightButton,mouse_10.clicked_name,mouse_7.x,mouse_7.y,mouse_7.leftButton,mouse_7.midButton,mouse_7.rightButton,mouse_6.x,mouse_6.y,mouse_6.leftButton,mouse_6.midButton,mouse_6.rightButton,duringprac.thisRepN,duringprac.thisTrialN,duringprac.thisN,duringprac.thisIndex,duringprac.ran,participant,session,date,expName,psychopyVersion,OS,frameRate,study_id,mouse_7.clicked_name,catchpracsimilarity,catch_response_time,catchnumberprac,catchtrialorderprac,mouse_6.clicked_name,key_resp_22.keys,key_resp_22.rt,realcomparison,mouse.x,mouse.y,mouse.leftButton,mouse.midButton,mouse.rightButton,mouse.clicked_name,Colour2,similarity,mouse_2.x,mouse_2.y,mouse_2.leftButton,mouse_2.midButton,mouse_2.rightButton,mouse_2.clicked_name,mouse_3.x,mouse_3.y,mouse_3.leftButton,mouse_3.midButton,mouse_3.rightButton,mouse_11.x,mouse_11.y,mouse_11.leftButton,mouse_11.midButton,mouse_11.rightButton,trials_2.thisRepN,trials_2.thisTrialN,trials_2.thisN,trials_2.thisIndex,trials_2.ran,Colour1,mouse_3.clicked_name,catchornah,catchsimilarity,catchnumber,catchtrialorder,catchRT,mouse_11.clicked_name
space,1.1762,space,9.0515,space,10.2702,space,4.5882,space,1.2009,space,3.1485,156,PF,74.43762207,-31.52032471,1,0,0,response3disk_5,5,8.5091,0.672302246,-1.746704102,1,0,0,rectangle_8,0.672302246,-1.746704102,1,0,0,0.672302246,-1.746704102,1,0,0,0,0,0,4,1,60fe4775e9193e65f3742ed5,61037945e53483625331ac8c,2021-07-29_21h00.35.558,Simcolourproject_2stim_asymm_v5,2020.2.10,MacIntel,60,61025ae37ef11b136ea224fe,,,,,,,,,,,,,,,,,,,,,,,,,,,,,,,,,,,,,,,,,,,,,,
,,,,,,,,,,,,37,PF,34.08764648,-86.19360352,1,0,0,response3disk_5,4,8.1156,-0.726318359,1.799743652,1,0,0,rectangle_8,-73.39404297,36.70755005,1,0,0,-0.529663086,-2.665893555,1,0,0,0,1,1,1,1,60fe4775e9193e65f3742ed5,61037945e53483625331ac8c,2021-07-29_21h00.35.558,Simcolourproject_2stim_asymm_v5,2020.2.10,MacIntel,60,61025ae37ef11b136ea224fe,response7disk_7,1,2.5357,1,"[2,5]",rectangle_4,,,,,,,,,,,,,,,,,,,,,,,,,,,,,,,,,,,,,,,,
,,,,,,,,,,,,92,PF,52.62573242,79.82006836,1,0,0,response1disk_5,7,4.6396,4.185424805,-1.436889648,1,0,0,rectangle_8,4.185424805,-1.436889648,1,0,0,4.185424805,-1.436889648,1,0,0,0,2,2,2,1,60fe4775e9193e65f3742ed5,61037945e53483625331ac8c,2021-07-29_21h00.35.558,Simcolourproject_2stim_asymm_v5,2020.2.10,MacIntel,60,61025ae37ef11b136ea224fe,,,,,,,,,,,,,,,,,,,,,,,,,,,,,,,,,,,,,,,,,,,,,,
,,,,,,,,,,,,78,FF,57.96832275,-70.65264893,1,0,0,response3disk_5,4,2.5116,5.404968262,-3.587768555,1,0,0,rectangle_8,5.404968262,-3.587768555,1,0,0,5.404968262,-3.587768555,1,0,0,0,3,3,0,1,60fe4775e9193e65f3742ed5,61037945e53483625331ac8c,2021-07-29_21h00.35.558,Simcolourproject_2stim_asymm_v5,2020.2.10,MacIntel,60,61025ae37ef11b136ea224fe,,,,,,,,,,,,,,,,,,,,,,,,,,,,,,,,,,,,,,,,,,,,,,
,,,,,,,,,,,,60,FF,32.76422119,-88.26574707,1,0,0,response3disk_5,4,1.6131,3.813842773,-9.886169434,1,0,0,rectangle_8,-86.64233398,37.28900146,1,0,0,4.773132324,-1.289978027,1,0,0,0,4,4,3,1,60fe4775e9193e65f3742ed5,61037945e53483625331ac8c,2021-07-29_21h00.35.558,Simcolourproject_2stim_asymm_v5,2020.2.10,MacIntel,60,61025ae37ef11b136ea224fe,response7disk_7,1,2.0362,1,"[2,5]",rectangle_4,,,,,,,,,,,,,,,,,,,,,,,,,,,,,,,,,,,,,,,,
,,,,,,,,,,,,15,PF,37.31781006,-95.55151367,1,0,0,response3disk_5,4,1.7579,4.807006836,-7.55480957,1,0,0,rectangle_8,4.807006836,-7.55480957,1,0,0,4.807006836,-7.55480957,1,0,0,0,5,5,6,1,60fe4775e9193e65f3742ed5,61037945e53483625331ac8c,2021-07-29_21h00.35.558,Simcolourproject_2stim_asymm_v5,2020.2.10,MacIntel,60,61025ae37ef11b136ea224fe,,,,,,,,,,,,,,,,,,,,,,,,,,,,,,,,,,,,,,,,,,,,,,
,,,,,,,,,,,,85,FF,77.95599365,-44.35443115,1,0,0,response3disk_5,5,1.9472,0.361816406,-2.047729492,1,0,0,rectangle_8,0.361816406,-2.047729492,1,0,0,0.361816406,-2.047729492,1,0,0,0,6,6,5,1,60fe4775e9193e65f3742ed5,61037945e53483625331ac8c,2021-07-29_21h00.35.558,Simcolourproject_2stim_asymm_v5,2020.2.10,MacIntel,60,61025ae37ef11b136ea224fe,,,,,,,,,,,,,,,,,,,,,,,,,,,,,,,,,,,,,,,,,,,,,,
,,,,,,,,,,,,,FF,,,,,,,,1.2524,,,,,,,,,,,,,,,,,,,,,,60fe4775e9193e65f3742ed5,61037945e53483625331ac8c,2021-07-29_21h00.35.558,Simcolourproject_2stim_asymm_v5,2020.2.10,MacIntel,60,61025ae37ef11b136ea224fe,,,,,,,space,2.9427,2328,40.06549072,-75.84106445,1,0,0,response3disk,,4,1.208129883,-2.990234375,1,0,0,rectangle,1.208129883,-2.990234375,1,0,0,1.208129883,-2.990234375,1,0,0,0,0,0,63,1,,,,,,,,
,,,,,,,,,,,,,FF,,,,,,,,2.616,,,,,,,,,,,,,,,,,,,,,,60fe4775e9193e65f3742ed5,61037945e53483625331ac8c,2021-07-29_21h00.35.558,Simcolourproject_2stim_asymm_v5,2020.2.10,MacIntel,60,61025ae37ef11b136ea224fe,,,,,,,,,2733,-32.53076172,-72.66229248,1,0,0,response5disk,,3,3.445922852,-2.737121582,1,0,0,rectangle,3.445922852,-2.737121582,1,0,0,3.445922852,-2.737121582,1,0,0,0,1,1,57,1,,,,,,,,
,,,,,,,,,,,,,FF,,,,,,,,1.5909,,,,,,,,,,,,,,,,,,,,,,60fe4775e9193e65f3742ed5,61037945e53483625331ac8c,2021-07-29_21h00.35.558,Simcolourproject_2stim_asymm_v5,2020.2.10,MacIntel,60,61025ae37ef11b136ea224fe,,,,,,,,,3120,89.90380859,-45.57342529,1,0,0,response3disk,,5,-1.808959961,-5.781799316,1,0,0,rectangle,-1.808959961,-5.781799316,1,0,0,-1.808959961,-5.781799316,1,0,0,0,2,2,86,1,,,,,,,,
,,,,,,,,,,,,,FF,,,,,,,,3.1916,,,,,,,,,,,,,,,,,,,,,,60fe4775e9193e65f3742ed5,61037945e53483625331ac8c,2021-07-29_21h00.35.558,Simcolourproject_2stim_asymm_v5,2020.2.10,MacIntel,60,61025ae37ef11b136ea224fe,,,,,,,,,1404,88.52966309,41.67462158,1,0,0,response1disk,,6,-1.90423584,-4.078125,1,0,0,rectangle,-1.90423584,-4.078125,1,0,0,-1.90423584,-4.078125,1,0,0,0,3,3,40,1,,,,,,,,
,,,,,,,,,,,,,FF,,,,,,,,1.4459,,,,,,,,,,,,,,,,,,,,,,60fe4775e9193e65f3742ed5,61037945e53483625331ac8c,2021-07-29_21h00.35.558,Simcolourproject_2stim_asymm_v5,2020.2.10,MacIntel,60,61025ae37ef11b136ea224fe,,,,,,,,,626,56.48022461,72.50250244,1,0,0,response1disk,,7,-5.104736328,0.579528809,1,0,0,rectangle,-5.104736328,0.579528809,1,0,0,-5.104736328,0.579528809,1,0,0,0,4,4,101,1,,,,,,,,
,,,,,,,,,,,,,FF,,,,,,,,4.7465,,,,,,,,,,,,,,,,,,,,,,60fe4775e9193e65f3742ed5,61037945e53483625331ac8c,2021-07-29_21h00.35.558,Simcolourproject_2stim_asymm_v5,2020.2.10,MacIntel,60,61025ae37ef11b136ea224fe,,,,,,,,,2231,-81.67156982,-41.0760498,1,0,0,response5disk,,2,1.081726074,-2.922851563,1,0,0,rectangle,1.081726074,-2.922851563,1,0,0,1.081726074,-2.922851563,1,0,0,0,5,5,102,1,,,,,,,,
,,,,,,,,,,,,,FF,,,,,,,,2.5966,,,,,,,,,,,,,,,,,,,,,,60fe4775e9193e65f3742ed5,61037945e53483625331ac8c,2021-07-29_21h00.35.558,Simcolourproject_2stim_asymm_v5,2020.2.10,MacIntel,60,61025ae37ef11b136ea224fe,,,,,,,,,2789,44.80084229,-97.04736328,1,0,0,response3disk,,4,-0.114440918,0.368286133,1,0,0,rectangle,-0.114440918,0.368286133,1,0,0,-0.114440918,0.368286133,1,0,0,0,6,6,45,1,,,,,,,,
,,,,,,,,,,,,,FF,,,,,,,,1.1405,,,,,,,,,,,,,,,,,,,,,,60fe4775e9193e65f3742ed5,61037945e53483625331ac8c,2021-07-29_21h00.35.558,Simcolourproject_2stim_asymm_v5,2020.2.10,MacIntel,60,61025ae37ef11b136ea224fe,,,,,,,,,2635,48.16278076,87.08590698,1,0,0,response1disk,,7,-1.08392334,-3.562988281,1,0,0,rectangle,-1.08392334,-3.562988281,1,0,0,-1.08392334,-3.562988281,1,0,0,0,7,7,158,1,,,,,,,,
,,,,,,,,,,,,,FF,,,,,,,,1.7033,,,,,,,,,,,,,,,,,,,,,,60fe4775e9193e65f3742ed5,61037945e53483625331ac8c,2021-07-29_21h00.35.558,Simcolourproject_2stim_asymm_v5,2020.2.10,MacIntel,60,61025ae37ef11b136ea224fe,,,,,,,,,1506,29.88562012,-90.90222168,1,0,0,response3disk,,4,-0.759155273,-3.481445313,1,0,0,rectangle,-0.759155273,-3.481445313,1,0,0,-0.759155273,-3.481445313,1,0,0,0,8,8,13,1,,,,,,,,
,,,,,,,,,,,,,FF,,,,,,,,1.3239,,,,,,,,,,,,,,,,,,,,,,60fe4775e9193e65f3742ed5,61037945e53483625331ac8c,2021-07-29_21h00.35.558,Simcolourproject_2stim_asymm_v5,2020.2.10,MacIntel,60,61025ae37ef11b136ea224fe,,,,,,,,,721,-76.78741455,38.8081665,1,0,0,response7disk,,1,-1.807312012,3.132324219,1,0,0,rectangle,-1.807312012,3.132324219,1,0,0,-1.807312012,3.132324219,1,0,0,0,9,9,8,1,,,,,,,,
,,,,,,,,,,,,,FF,,,,,,,,2.3609,,,,,,,,,,,,,,,,,,,,,,60fe4775e9193e65f3742ed5,61037945e53483625331ac8c,2021-07-29_21h00.35.558,Simcolourproject_2stim_asymm_v5,2020.2.10,MacIntel,60,61025ae37ef11b136ea224fe,,,,,,,,,1465,-34.98187256,-98.80743408,1,0,0,response5disk,,3,-0.63684082,-3.411743164,1,0,0,rectangle,-0.63684082,-3.411743164,1,0,0,-0.63684082,-3.411743164,1,0,0,0,10,10,124,1,,,,,,,,
,,,,,,,,,,,,,FF,,,,,,,,2.2264,,,,,,,,,,,,,,,,,,,,,,60fe4775e9193e65f3742ed5,61037945e53483625331ac8c,2021-07-29_21h00.35.558,Simcolourproject_2stim_asymm_v5,2020.2.10,MacIntel,60,61025ae37ef11b136ea224fe,,,,,,,,,2039,-81.23822021,32.07363892,1,0,0,response7disk,,1,-6.484008789,2.916931152,1,0,0,rectangle,-6.484008789,2.916931152,1,0,0,-6.484008789,2.916931152,1,0,0,0,11,11,6,1,,,,,,,,
,,,,,,,,,,,,,FF,,,,,,,,1.1505,,,,,,,,,,,,,,,,,,,,,,60fe4775e9193e65f3742ed5,61037945e53483625331ac8c,2021-07-29_21h00.35.558,Simcolourproject_2stim_asymm_v5,2020.2.10,MacIntel,60,61025ae37ef11b136ea224fe,,,,,,,,,4204,-75.71075439,41.14685059,1,0,0,response7disk,,1,0.077880859,2.534790039,1,0,0,rectangle,0.077880859,2.534790039,1,0,0,0.077880859,2.534790039,1,0,0,0,12,12,62,1,,,,,,,,
,,,,,,,,,,,,,FF,,,,,,,,4.4532,,,,,,,,,,,,,,,,,,,,,,60fe4775e9193e65f3742ed5,61037945e53483625331ac8c,2021-07-29_21h00.35.558,Simcolourproject_2stim_asymm_v5,2020.2.10,MacIntel,60,61025ae37ef11b136ea224fe,,,,,,,,,711,-42.50366211,-83.52746582,1,0,0,response5disk,,3,1.070861816,-3.460632324,1,0,0,rectangle,1.070861816,-3.460632324,1,0,0,1.070861816,-3.460632324,1,0,0,0,13,13,128,1,,,,,,,,
,,,,,,,,,,,,,FF,,,,,,,,2.321,,,,,,,,,,,,,,,,,,,,,,60fe4775e9193e65f3742ed5,61037945e53483625331ac8c,2021-07-29_21h00.35.558,Simcolourproject_2stim_asymm_v5,2020.2.10,MacIntel,60,61025ae37ef11b136ea224fe,,,,,,,,,236,81.12432861,36.48757935,1,0,0,response1disk,,6,3.161010742,-3.532104492,1,0,0,rectangle,3.161010742,-3.532104492,1,0,0,3.161010742,-3.532104492,1,0,0,0,14,14,88,1,,,,,,,,
,,,,,,,,,,,,,FF,,,,,,,,1.9122,,,,,,,,,,,,,,,,,,,,,,60fe4775e9193e65f3742ed5,61037945e53483625331ac8c,2021-07-29_21h00.35.558,Simcolourproject_2stim_asymm_v5,2020.2.10,MacIntel,60,61025ae37ef11b136ea224fe,,,,,,,,,1656,93.57751465,-34.32501221,1,0,0,response3disk,,5,5.19342041,-2.910766602,1,0,0,rectangle,5.19342041,-2.910766602,1,0,0,5.19342041,-2.910766602,1,0,0,0,15,15,91,1,,,,,,,,
,,,,,,,,,,,,,FF,,,,,,,,2.1289,,,,,,,,,,,,,,,,,,,,,,60fe4775e9193e65f3742ed5,61037945e53483625331ac8c,2021-07-29_21h00.35.558,Simcolourproject_2stim_asymm_v5,2020.2.10,MacIntel,60,61025ae37ef11b136ea224fe,,,,,,,,,2788,-50.21594238,-85.45983887,1,0,0,response5disk,,3,4.688903809,-4.757507324,1,0,0,rectangle,4.688903809,-4.757507324,1,0,0,4.688903809,-4.757507324,1,0,0,0,16,16,56,1,,,,,,,,
,,,,,,,,,,,,,FF,,,,,,,,1.4854,,,,,,,,,,,,,,,,,,,,,,60fe4775e9193e65f3742ed5,61037945e53483625331ac8c,2021-07-29_21h00.35.558,Simcolourproject_2stim_asymm_v5,2020.2.10,MacIntel,60,61025ae37ef11b136ea224fe,,,,,,,,,321,48.87310791,93.2649231,1,0,0,response1disk,,7,0.091125488,2.982421875,1,0,0,rectangle,0.091125488,2.982421875,1,0,0,0.091125488,2.982421875,1,0,0,0,17,17,137,1,,,,,,,,
,,,,,,,,,,,,,FF,,,,,,,,1.6925,,,,,,,,,,,,,,,,,,,,,,60fe4775e9193e65f3742ed5,61037945e53483625331ac8c,2021-07-29_21h00.35.558,Simcolourproject_2stim_asymm_v5,2020.2.10,MacIntel,60,61025ae37ef11b136ea224fe,,,,,,,,,3235,-26.30322266,-86.64782715,1,0,0,response5disk,,3,8.101318359,-9.084960938,1,0,0,rectangle,8.101318359,-9.084960938,1,0,0,8.101318359,-9.084960938,1,0,0,0,18,18,156,1,,,,,,,,
,,,,,,,,,,,,,FF,,,,,,,,1.5941,,,,,,,,,,,,,,,,,,,,,,60fe4775e9193e65f3742ed5,61037945e53483625331ac8c,2021-07-29_21h00.35.558,Simcolourproject_2stim_asymm_v5,2020.2.10,MacIntel,60,61025ae37ef11b136ea224fe,,,,,,,,,645,-30.66217041,-79.99658203,1,0,0,response5disk,,3,0.571228027,-0.262512207,1,0,0,rectangle,0.571228027,-0.262512207,1,0,0,0.571228027,-0.262512207,1,0,0,0,19,19,21,1,,,,,,,,
,,,,,,,,,,,,,FF,,,,,,,,1.1808,,,,,,,,,,,,,,,,,,,,,,60fe4775e9193e65f3742ed5,61037945e53483625331ac8c,2021-07-29_21h00.35.558,Simcolourproject_2stim_asymm_v5,2020.2.10,MacIntel,60,61025ae37ef11b136ea224fe,,,,,,,,,1855,41.55737305,65.32183838,1,0,0,response1disk,,7,3.75,4.798461914,1,0,0,rectangle,3.75,4.798461914,1,0,0,3.75,4.798461914,1,0,0,0,20,20,140,1,,,,,,,,
,,,,,,,,,,,,,FF,,,,,,,,1.1205,,,,,,,,,,,,,,,,,,,,,,60fe4775e9193e65f3742ed5,61037945e53483625331ac8c,2021-07-29_21h00.35.558,Simcolourproject_2stim_asymm_v5,2020.2.10,MacIntel,60,61025ae37ef11b136ea224fe,,,,,,,,,393,49.0145874,-85.10400391,1,0,0,response3disk,,4,0.079223633,-6.782104492,1,0,0,rectangle,0.079223633,-6.782104492,1,0,0,0.079223633,-6.782104492,1,0,0,0,21,21,130,1,,,,,,,,
,,,,,,,,,,,,,FF,,,,,,,,1.7326,,,,,,,,,,,,,,,,,,,,,,60fe4775e9193e65f3742ed5,61037945e53483625331ac8c,2021-07-29_21h00.35.558,Simcolourproject_2stim_asymm_v5,2020.2.10,MacIntel,60,61025ae37ef11b136ea224fe,,,,,,,,,571,68.83856201,-44.86730957,1,0,0,response3disk,,5,8.536987305,-2.212097168,1,0,0,rectangle,8.536987305,-2.212097168,1,0,0,8.536987305,-2.212097168,1,0,0,0,22,22,125,1,,,,,,,,
,,,,,,,,,,,,,FF,,,,,,,,1.0988,,,,,,,,,,,,,,,,,,,,,,60fe4775e9193e65f3742ed5,61037945e53483625331ac8c,2021-07-29_21h00.35.558,Simcolourproject_2stim_asymm_v5,2020.2.10,MacIntel,60,61025ae37ef11b136ea224fe,,,,,,,,,1073,39.71179199,97.38726807,1,0,0,response1disk,,7,-1.917053223,16.18365479,1,0,0,rectangle,-1.917053223,16.18365479,1,0,0,-1.917053223,16.18365479,1,0,0,0,23,23,71,1,,,,,,,,
,,,,,,,,,,,,,FF,,,,,,,,1.2039,,,,,,,,,,,,,,,,,,,,,,60fe4775e9193e65f3742ed5,61037945e53483625331ac8c,2021-07-29_21h00.35.558,Simcolourproject_2stim_asymm_v5,2020.2.10,MacIntel,60,61025ae37ef11b136ea224fe,,,,,,,,,4226,91.11480713,34.2673645,1,0,0,response1disk,,6,3.416931152,-1.968505859,1,0,0,rectangle,3.416931152,-1.968505859,1,0,0,3.416931152,-1.968505859,1,0,0,0,24,24,148,1,,,,,,,,
,,,,,,,,,,,,,FF,,,,,,,,1.0664,,,,,,,,,,,,,,,,,,,,,,60fe4775e9193e65f3742ed5,61037945e53483625331ac8c,2021-07-29_21h00.35.558,Simcolourproject_2stim_asymm_v5,2020.2.10,MacIntel,60,61025ae37ef11b136ea224fe,,,,,,,,,355,-81.2479248,46.37124634,1,0,0,response7disk,,1,3.023193359,-1.081176758,1,0,0,rectangle,3.023193359,-1.081176758,1,0,0,3.023193359,-1.081176758,1,0,0,0,25,25,37,1,,,,,,,,
,,,,,,,,,,,,,FF,,,,,,,,1.1912,,,,,,,,,,,,,,,,,,,,,,60fe4775e9193e65f3742ed5,61037945e53483625331ac8c,2021-07-29_21h00.35.558,Simcolourproject_2stim_asymm_v5,2020.2.10,MacIntel,60,61025ae37ef11b136ea224fe,,,,,,,,,1748,-83.4621582,40.61682129,1,0,0,response7disk,,1,-1.746765137,-6.495605469,1,0,0,rectangle,-1.746765137,-6.495605469,1,0,0,-1.746765137,-6.495605469,1,0,0,0,26,26,74,1,,,,,,,,
,,,,,,,,,,,,,FF,,,,,,,,1.0922,,,,,,,,,,,,,,,,,,,,,,60fe4775e9193e65f3742ed5,61037945e53483625331ac8c,2021-07-29_21h00.35.558,Simcolourproject_2stim_asymm_v5,2020.2.10,MacIntel,60,61025ae37ef11b136ea224fe,,,,,,,,,311,53.05303955,76.17193604,1,0,0,response1disk,,7,0.973083496,-4.699829102,1,0,0,rectangle,0.973083496,-4.699829102,1,0,0,0.973083496,-4.699829102,1,0,0,0,27,27,143,1,,,,,,,,
,,,,,,,,,,,,,FF,,,,,,,,0.9886,,,,,,,,,,,,,,,,,,,,,,60fe4775e9193e65f3742ed5,61037945e53483625331ac8c,2021-07-29_21h00.35.558,Simcolourproject_2stim_asymm_v5,2020.2.10,MacIntel,60,61025ae37ef11b136ea224fe,,,,,,,,,1863,33.98413086,65.39038086,1,0,0,response1disk,,7,-2.734680176,4.792419434,1,0,0,rectangle,-2.734680176,4.792419434,1,0,0,-2.734680176,4.792419434,1,0,0,0,28,28,119,1,,,,,,,,
,,,,,,,,,,,,,FF,,,,,,,,1.2573,,,,,,,,,,,,,,,,,,,,,,60fe4775e9193e65f3742ed5,61037945e53483625331ac8c,2021-07-29_21h00.35.558,Simcolourproject_2stim_asymm_v5,2020.2.10,MacIntel,60,61025ae37ef11b136ea224fe,,,,,,,,,3776,-29.75805664,80.16238403,1,0,0,response7disk,,0,4.747619629,5.612304688,1,0,0,rectangle,4.747619629,5.612304688,1,0,0,4.747619629,5.612304688,1,0,0,0,29,29,154,1,,,,,,,,
,,,,,,,,,,,,,FF,,,,,,,,1.0153,,,,,,,,,,,,,,,,,,,,,,60fe4775e9193e65f3742ed5,61037945e53483625331ac8c,2021-07-29_21h00.35.558,Simcolourproject_2stim_asymm_v5,2020.2.10,MacIntel,60,61025ae37ef11b136ea224fe,,,,,,,,,2491,53.49353027,91.36245728,1,0,0,response1disk,,7,-0.319824219,-5.057312012,1,0,0,rectangle,-0.319824219,-5.057312012,1,0,0,-0.319824219,-5.057312012,1,0,0,0,30,30,48,1,,,,,,,,
,,,,,,,,,,,,,FF,,,,,,,,0.7862,,,,,,,,,,,,,,,,,,,,,,60fe4775e9193e65f3742ed5,61037945e53483625331ac8c,2021-07-29_21h00.35.558,Simcolourproject_2stim_asymm_v5,2020.2.10,MacIntel,60,61025ae37ef11b136ea224fe,,,,,,,,,2780,-71.89941406,39.09060669,1,0,0,response7disk,,1,-2.467346191,-2.650512695,1,0,0,rectangle,-2.467346191,-2.650512695,1,0,0,-2.467346191,-2.650512695,1,0,0,0,31,31,113,1,,,,,,,,
,,,,,,,,,,,,,FF,,,,,,,,0.8414,,,,,,,,,,,,,,,,,,,,,,60fe4775e9193e65f3742ed5,61037945e53483625331ac8c,2021-07-29_21h00.35.558,Simcolourproject_2stim_asymm_v5,2020.2.10,MacIntel,60,61025ae37ef11b136ea224fe,,,,,,,,,165,-77.88769531,38.76922607,1,0,0,response7disk,,1,-13.13641357,-0.398803711,1,0,0,rectangle,-13.13641357,-0.398803711,1,0,0,-13.13641357,-0.398803711,1,0,0,0,32,32,145,1,,,,,,,,
,,,,,,,,,,,,,FF,,,,,,,,1.4225,,,,,,,,,,,,,,,,,,,,,,60fe4775e9193e65f3742ed5,61037945e53483625331ac8c,2021-07-29_21h00.35.558,Simcolourproject_2stim_asymm_v5,2020.2.10,MacIntel,60,61025ae37ef11b136ea224fe,,,,,,,,,21,91.203125,-71.93554688,1,0,0,response3disk,,5,0.623718262,1.750244141,1,0,0,rectangle,0.623718262,1.750244141,1,0,0,0.623718262,1.750244141,1,0,0,0,33,33,29,1,,,,,,,,
,,,,,,,,,,,,,FF,,,,,,,,1.0551,,,,,,,,,,,,,,,,,,,,,,60fe4775e9193e65f3742ed5,61037945e53483625331ac8c,2021-07-29_21h00.35.558,Simcolourproject_2stim_asymm_v5,2020.2.10,MacIntel,60,61025ae37ef11b136ea224fe,,,,,,,,,2204,41.01690674,61.14355469,1,0,0,response1disk,,7,5.171264648,-8.635742188,1,0,0,rectangle,5.171264648,-8.635742188,1,0,0,5.171264648,-8.635742188,1,0,0,0,34,34,75,1,,,,,,,,
,,,,,,,,,,,,,FF,,,,,,,,0.8921,,,,,,,,,,,,,,,,,,,,,,60fe4775e9193e65f3742ed5,61037945e53483625331ac8c,2021-07-29_21h00.35.558,Simcolourproject_2stim_asymm_v5,2020.2.10,MacIntel,60,61025ae37ef11b136ea224fe,,,,,,,,,418,66.47686768,-57.73565674,1,0,0,response3disk,,5,2.711730957,-8.32800293,1,0,0,rectangle,2.711730957,-8.32800293,1,0,0,2.711730957,-8.32800293,1,0,0,0,35,35,81,1,,,,,,,,
,,,,,,,,,,,,,FF,,,,,,,,0.9058,,,,,,,,,,,,,,,,,,,,,,60fe4775e9193e65f3742ed5,61037945e53483625331ac8c,2021-07-29_21h00.35.558,Simcolourproject_2stim_asymm_v5,2020.2.10,MacIntel,60,61025ae37ef11b136ea224fe,,,,,,,,,1847,-40.97021484,-79.67791748,1,0,0,response5disk,,3,-3.085693359,-0.094665527,1,0,0,rectangle,-3.085693359,-0.094665527,1,0,0,-3.085693359,-0.094665527,1,0,0,0,36,36,43,1,,,,,,,,
,,,,,,,,,,,,,FF,,,,,,,,1.3391,,,,,,,,,,,,,,,,,,,,,,60fe4775e9193e65f3742ed5,61037945e53483625331ac8c,2021-07-29_21h00.35.558,Simcolourproject_2stim_asymm_v5,2020.2.10,MacIntel,60,61025ae37ef11b136ea224fe,,,,,,,,,3432,-79.62402344,-28.91491699,1,0,0,response5disk,,2,0.179931641,1.072570801,1,0,0,rectangle,0.179931641,1.072570801,1,0,0,0.179931641,1.072570801,1,0,0,0,37,37,146,1,,,,,,,,
,,,,,,,,,,,,,FF,,,,,,,,0.8728,,,,,,,,,,,,,,,,,,,,,,60fe4775e9193e65f3742ed5,61037945e53483625331ac8c,2021-07-29_21h00.35.558,Simcolourproject_2stim_asymm_v5,2020.2.10,MacIntel,60,61025ae37ef11b136ea224fe,,,,,,,,,1596,-38.39367676,78.81213379,1,0,0,response7disk,,0,4.609741211,11.23999023,1,0,0,rectangle,4.609741211,11.23999023,1,0,0,4.609741211,11.23999023,1,0,0,0,38,38,111,1,,,,,,,,
,,,,,,,,,,,,,FF,,,,,,,,0.8588,,,,,,,,,,,,,,,,,,,,,,60fe4775e9193e65f3742ed5,61037945e53483625331ac8c,2021-07-29_21h00.35.558,Simcolourproject_2stim_asymm_v5,2020.2.10,MacIntel,60,61025ae37ef11b136ea224fe,,,,,,,,,2659,51.1328125,84.37652588,1,0,0,response1disk,,7,-0.374816895,8.629089355,1,0,0,rectangle,-0.374816895,8.629089355,1,0,0,-0.374816895,8.629089355,1,0,0,0,39,39,155,1,,,,,,,,
,,,,,,,,,,,,,FF,,,,,,,,0.9549,,,,,,,,,,,,,,,,,,,,,,60fe4775e9193e65f3742ed5,61037945e53483625331ac8c,2021-07-29_21h00.35.558,Simcolourproject_2stim_asymm_v5,2020.2.10,MacIntel,60,61025ae37ef11b136ea224fe,,,,,,,,,2029,-72.92089844,-30.8961792,1,0,0,response5disk,,2,0.288513184,1.210693359,1,0,0,rectangle,-37.44146729,-90.03155518,1,0,0,8.362121582,-3.619628906,1,0,0,0,40,40,76,1,,response5disk_3,TRUE,3,3,"[300,142,240,159,67,41,189,139,48,269,242,237,105,212,259,70,57,163,246,123]",2.8698,rectangle
,,,,,,,,,,,,,FF,,,,,,,,1.2683,,,,,,,,,,,,,,,,,,,,,,60fe4775e9193e65f3742ed5,61037945e53483625331ac8c,2021-07-29_21h00.35.558,Simcolourproject_2stim_asymm_v5,2020.2.10,MacIntel,60,61025ae37ef11b136ea224fe,,,,,,,,,3140,-37.95343018,-102.3962402,1,0,0,response5disk,,3,3.15020752,1.359375,1,0,0,rectangle,3.15020752,1.359375,1,0,0,3.15020752,1.359375,1,0,0,0,41,41,136,1,,,,,,,,
,,,,,,,,,,,,,FF,,,,,,,,0.855,,,,,,,,,,,,,,,,,,,,,,60fe4775e9193e65f3742ed5,61037945e53483625331ac8c,2021-07-29_21h00.35.558,Simcolourproject_2stim_asymm_v5,2020.2.10,MacIntel,60,61025ae37ef11b136ea224fe,,,,,,,,,1165,70.04174805,-32.57000732,1,0,0,response3disk,,5,1.282226563,-9.055114746,1,0,0,rectangle,1.282226563,-9.055114746,1,0,0,1.282226563,-9.055114746,1,0,0,0,42,42,69,1,,,,,,,,
,,,,,,,,,,,,,FF,,,,,,,,0.6882,,,,,,,,,,,,,,,,,,,,,,60fe4775e9193e65f3742ed5,61037945e53483625331ac8c,2021-07-29_21h00.35.558,Simcolourproject_2stim_asymm_v5,2020.2.10,MacIntel,60,61025ae37ef11b136ea224fe,,,,,,,,,3310,89.24639893,35.94802856,1,0,0,response1disk,,6,3.058166504,9.619567871,1,0,0,rectangle,3.058166504,9.619567871,1,0,0,3.058166504,9.619567871,1,0,0,0,43,43,100,1,,,,,,,,
,,,,,,,,,,,,,FF,,,,,,,,0.7887,,,,,,,,,,,,,,,,,,,,,,60fe4775e9193e65f3742ed5,61037945e53483625331ac8c,2021-07-29_21h00.35.558,Simcolourproject_2stim_asymm_v5,2020.2.10,MacIntel,60,61025ae37ef11b136ea224fe,,,,,,,,,3411,-49.52246094,-71.43371582,1,0,0,response5disk,,3,-15.88739014,4.571350098,1,0,0,rectangle,-15.88739014,4.571350098,1,0,0,-15.88739014,4.571350098,1,0,0,0,44,44,39,1,,,,,,,,
,,,,,,,,,,,,,FF,,,,,,,,0.7705,,,,,,,,,,,,,,,,,,,,,,60fe4775e9193e65f3742ed5,61037945e53483625331ac8c,2021-07-29_21h00.35.558,Simcolourproject_2stim_asymm_v5,2020.2.10,MacIntel,60,61025ae37ef11b136ea224fe,,,,,,,,,2270,81.60980225,-46.69830322,1,0,0,response3disk,,5,5.962341309,1.428344727,1,0,0,rectangle,5.962341309,1.428344727,1,0,0,5.962341309,1.428344727,1,0,0,0,45,45,139,1,,,,,,,,
,,,,,,,,,,,,,FF,,,,,,,,1.043,,,,,,,,,,,,,,,,,,,,,,60fe4775e9193e65f3742ed5,61037945e53483625331ac8c,2021-07-29_21h00.35.558,Simcolourproject_2stim_asymm_v5,2020.2.10,MacIntel,60,61025ae37ef11b136ea224fe,,,,,,,,,1236,74.68572998,50.8550415,1,0,0,response1disk,,6,-10.25567627,3.870483398,1,0,0,rectangle,-10.25567627,3.870483398,1,0,0,-10.25567627,3.870483398,1,0,0,0,46,46,44,1,,,,,,,,
,,,,,,,,,,,,,FF,,,,,,,,0.904,,,,,,,,,,,,,,,,,,,,,,60fe4775e9193e65f3742ed5,61037945e53483625331ac8c,2021-07-29_21h00.35.558,Simcolourproject_2stim_asymm_v5,2020.2.10,MacIntel,60,61025ae37ef11b136ea224fe,,,,,,,,,4247,85.60083008,-42.09136963,1,0,0,response3disk,,5,-3.191345215,2.517700195,1,0,0,rectangle,-35.71655273,92.43890381,1,0,0,-0.864929199,-3.56652832,1,0,0,0,47,47,47,1,,response7disk_3,TRUE,0,0,"[300,142,240,159,67,41,189,139,48,269,242,237,105,212,259,70,57,163,246,123]",2.0843,rectangle
,,,,,,,,,,,,,FF,,,,,,,,3.3612,,,,,,,,,,,,,,,,,,,,,,60fe4775e9193e65f3742ed5,61037945e53483625331ac8c,2021-07-29_21h00.35.558,Simcolourproject_2stim_asymm_v5,2020.2.10,MacIntel,60,61025ae37ef11b136ea224fe,,,,,,,,,2121,96.74755859,-30.94006348,1,0,0,response3disk,,5,2.017150879,3.56048584,1,0,0,rectangle,2.017150879,3.56048584,1,0,0,2.017150879,3.56048584,1,0,0,0,48,48,11,1,,,,,,,,
,,,,,,,,,,,,,FF,,,,,,,,0.8192,,,,,,,,,,,,,,,,,,,,,,60fe4775e9193e65f3742ed5,61037945e53483625331ac8c,2021-07-29_21h00.35.558,Simcolourproject_2stim_asymm_v5,2020.2.10,MacIntel,60,61025ae37ef11b136ea224fe,,,,,,,,,852,81.08447266,-37.42163086,1,0,0,response3disk,,5,-1.050231934,-2.861572266,1,0,0,rectangle,-1.050231934,-2.861572266,1,0,0,-1.050231934,-2.861572266,1,0,0,0,49,49,142,1,,,,,,,,
,,,,,,,,,,,,,FF,,,,,,,,0.7797,,,,,,,,,,,,,,,,,,,,,,60fe4775e9193e65f3742ed5,61037945e53483625331ac8c,2021-07-29_21h00.35.558,Simcolourproject_2stim_asymm_v5,2020.2.10,MacIntel,60,61025ae37ef11b136ea224fe,,,,,,,,,2065,47.01904297,81.63098145,1,0,0,response1disk,,7,-9.492614746,-4.087158203,1,0,0,rectangle,-9.492614746,-4.087158203,1,0,0,-9.492614746,-4.087158203,1,0,0,0,50,50,97,1,,,,,,,,
,,,,,,,,,,,,,FF,,,,,,,,0.8722,,,,,,,,,,,,,,,,,,,,,,60fe4775e9193e65f3742ed5,61037945e53483625331ac8c,2021-07-29_21h00.35.558,Simcolourproject_2stim_asymm_v5,2020.2.10,MacIntel,60,61025ae37ef11b136ea224fe,,,,,,,,,1108,-42.0425415,-62.97979736,1,0,0,response5disk,,3,-1.856201172,9.780273438,1,0,0,rectangle,-1.856201172,9.780273438,1,0,0,-1.856201172,9.780273438,1,0,0,0,51,51,122,1,,,,,,,,
,,,,,,,,,,,,,FF,,,,,,,,0.8566,,,,,,,,,,,,,,,,,,,,,,60fe4775e9193e65f3742ed5,61037945e53483625331ac8c,2021-07-29_21h00.35.558,Simcolourproject_2stim_asymm_v5,2020.2.10,MacIntel,60,61025ae37ef11b136ea224fe,,,,,,,,,450,65.2722168,-36.22949219,1,0,0,response3disk,,5,6.118103027,0.69329834,1,0,0,rectangle,6.118103027,0.69329834,1,0,0,6.118103027,0.69329834,1,0,0,0,52,52,31,1,,,,,,,,
,,,,,,,,,,,,,FF,,,,,,,,0.8962,,,,,,,,,,,,,,,,,,,,,,60fe4775e9193e65f3742ed5,61037945e53483625331ac8c,2021-07-29_21h00.35.558,Simcolourproject_2stim_asymm_v5,2020.2.10,MacIntel,60,61025ae37ef11b136ea224fe,,,,,,,,,2437,34.06164551,-79.41992188,1,0,0,response3disk,,4,2.100891113,-2.787109375,1,0,0,rectangle,2.100891113,-2.787109375,1,0,0,2.100891113,-2.787109375,1,0,0,0,53,53,7,1,,,,,,,,
,,,,,,,,,,,,,FF,,,,,,,,0.8045,,,,,,,,,,,,,,,,,,,,,,60fe4775e9193e65f3742ed5,61037945e53483625331ac8c,2021-07-29_21h00.35.558,Simcolourproject_2stim_asymm_v5,2020.2.10,MacIntel,60,61025ae37ef11b136ea224fe,,,,,,,,,4271,40.2979126,80.67102051,1,0,0,response1disk,,7,-2.021728516,7.906982422,1,0,0,rectangle,-2.021728516,7.906982422,1,0,0,-2.021728516,7.906982422,1,0,0,0,54,54,36,1,,,,,,,,
,,,,,,,,,,,,,FF,,,,,,,,1.1095,,,,,,,,,,,,,,,,,,,,,,60fe4775e9193e65f3742ed5,61037945e53483625331ac8c,2021-07-29_21h00.35.558,Simcolourproject_2stim_asymm_v5,2020.2.10,MacIntel,60,61025ae37ef11b136ea224fe,,,,,,,,,2642,38.42993164,82.95263672,1,0,0,response1disk,,7,-11.45892334,9.538085938,1,0,0,rectangle,-11.45892334,9.538085938,1,0,0,-11.45892334,9.538085938,1,0,0,0,55,55,12,1,,,,,,,,
,,,,,,,,,,,,,FF,,,,,,,,0.772,,,,,,,,,,,,,,,,,,,,,,60fe4775e9193e65f3742ed5,61037945e53483625331ac8c,2021-07-29_21h00.35.558,Simcolourproject_2stim_asymm_v5,2020.2.10,MacIntel,60,61025ae37ef11b136ea224fe,,,,,,,,,2669,-72.70007324,32.31878662,1,0,0,response7disk,,1,4.82623291,5.193664551,1,0,0,rectangle,94.71081543,30.62197876,1,0,0,12.69110107,4.149108887,1,0,0,0,56,56,159,1,,response1disk_3,TRUE,6,6,"[300,142,240,159,67,41,189,139,48,269,242,237,105,212,259,70,57,163,246,123]",1.981,rectangle
,,,,,,,,,,,,,FF,,,,,,,,0.6708,,,,,,,,,,,,,,,,,,,,,,60fe4775e9193e65f3742ed5,61037945e53483625331ac8c,2021-07-29_21h00.35.558,Simcolourproject_2stim_asymm_v5,2020.2.10,MacIntel,60,61025ae37ef11b136ea224fe,,,,,,,,,3656,93.14788818,35.80734253,1,0,0,response1disk,,6,-6.046508789,-1.592712402,1,0,0,rectangle,-6.046508789,-1.592712402,1,0,0,-6.046508789,-1.592712402,1,0,0,0,57,57,0,1,,,,,,,,
,,,,,,,,,,,,,FF,,,,,,,,0.9091,,,,,,,,,,,,,,,,,,,,,,60fe4775e9193e65f3742ed5,61037945e53483625331ac8c,2021-07-29_21h00.35.558,Simcolourproject_2stim_asymm_v5,2020.2.10,MacIntel,60,61025ae37ef11b136ea224fe,,,,,,,,,3609,91.29986572,36.82537842,1,0,0,response1disk,,6,-0.843383789,-1.675476074,1,0,0,rectangle,-0.843383789,-1.675476074,1,0,0,-0.843383789,-1.675476074,1,0,0,0,58,58,18,1,,,,,,,,
,,,,,,,,,,,,,FF,,,,,,,,1.0227,,,,,,,,,,,,,,,,,,,,,,60fe4775e9193e65f3742ed5,61037945e53483625331ac8c,2021-07-29_21h00.35.558,Simcolourproject_2stim_asymm_v5,2020.2.10,MacIntel,60,61025ae37ef11b136ea224fe,,,,,,,,,1833,-42.8145752,-77.47875977,1,0,0,response5disk,,3,-1.649353027,9.77520752,1,0,0,rectangle,-1.649353027,9.77520752,1,0,0,-1.649353027,9.77520752,1,0,0,0,59,59,24,1,,,,,,,,
,,,,,,,,,,,,,FF,,,,,,,,1.2126,,,,,,,,,,,,,,,,,,,,,,60fe4775e9193e65f3742ed5,61037945e53483625331ac8c,2021-07-29_21h00.35.558,Simcolourproject_2stim_asymm_v5,2020.2.10,MacIntel,60,61025ae37ef11b136ea224fe,,,,,,,,,3160,31.07250977,-86.02026367,1,0,0,response3disk,,4,-1.441833496,1.412719727,1,0,0,rectangle,-1.441833496,1.412719727,1,0,0,-1.441833496,1.412719727,1,0,0,0,60,60,35,1,,,,,,,,
,,,,,,,,,,,,,FF,,,,,,,,0.8044,,,,,,,,,,,,,,,,,,,,,,60fe4775e9193e65f3742ed5,61037945e53483625331ac8c,2021-07-29_21h00.35.558,Simcolourproject_2stim_asymm_v5,2020.2.10,MacIntel,60,61025ae37ef11b136ea224fe,,,,,,,,,2665,-83.84185791,-41.59716797,1,0,0,response5disk,,2,-6.343322754,8.186462402,1,0,0,rectangle,-6.343322754,8.186462402,1,0,0,-6.343322754,8.186462402,1,0,0,0,61,61,78,1,,,,,,,,
,,,,,,,,,,,,,FF,,,,,,,,0.9885,,,,,,,,,,,,,,,,,,,,,,60fe4775e9193e65f3742ed5,61037945e53483625331ac8c,2021-07-29_21h00.35.558,Simcolourproject_2stim_asymm_v5,2020.2.10,MacIntel,60,61025ae37ef11b136ea224fe,,,,,,,,,1042,43.31945801,76.4239502,1,0,0,response1disk,,7,5.909729004,10.38134766,1,0,0,rectangle,5.909729004,10.38134766,1,0,0,5.909729004,10.38134766,1,0,0,0,62,62,54,1,,,,,,,,
,,,,,,,,,,,,,FF,,,,,,,,0.9896,,,,,,,,,,,,,,,,,,,,,,60fe4775e9193e65f3742ed5,61037945e53483625331ac8c,2021-07-29_21h00.35.558,Simcolourproject_2stim_asymm_v5,2020.2.10,MacIntel,60,61025ae37ef11b136ea224fe,,,,,,,,,332,82.35900879,47.47076416,1,0,0,response1disk,,6,2.496276855,6.38293457,1,0,0,rectangle,2.496276855,6.38293457,1,0,0,2.496276855,6.38293457,1,0,0,0,63,63,150,1,,,,,,,,
,,,,,,,,,,,,,FF,,,,,,,,0.6951,,,,,,,,,,,,,,,,,,,,,,60fe4775e9193e65f3742ed5,61037945e53483625331ac8c,2021-07-29_21h00.35.558,Simcolourproject_2stim_asymm_v5,2020.2.10,MacIntel,60,61025ae37ef11b136ea224fe,,,,,,,,,3028,86.39367676,40.48852539,1,0,0,response1disk,,6,0.948303223,-3.618530273,1,0,0,rectangle,0.948303223,-3.618530273,1,0,0,0.948303223,-3.618530273,1,0,0,0,64,64,121,1,,,,,,,,
,,,,,,,,,,,,,FF,,,,,,,,0.6884,,,,,,,,,,,,,,,,,,,,,,60fe4775e9193e65f3742ed5,61037945e53483625331ac8c,2021-07-29_21h00.35.558,Simcolourproject_2stim_asymm_v5,2020.2.10,MacIntel,60,61025ae37ef11b136ea224fe,,,,,,,,,3897,42.70672607,80.29290771,1,0,0,response1disk,,7,-18.79650879,-5.649414063,1,0,0,rectangle,-18.79650879,-5.649414063,1,0,0,-18.79650879,-5.649414063,1,0,0,0,65,65,3,1,,,,,,,,
,,,,,,,,,,,,,FF,,,,,,,,0.8703,,,,,,,,,,,,,,,,,,,,,,60fe4775e9193e65f3742ed5,61037945e53483625331ac8c,2021-07-29_21h00.35.558,Simcolourproject_2stim_asymm_v5,2020.2.10,MacIntel,60,61025ae37ef11b136ea224fe,,,,,,,,,4252,-81.23681641,42.9019165,1,0,0,response7disk,,1,-10.96838379,8.526794434,1,0,0,rectangle,-41.03466797,67.68200684,1,0,0,-2.414611816,2.522705078,1,0,0,0,66,66,53,1,,response7disk_3,TRUE,0,0,"[300,142,240,159,67,41,189,139,48,269,242,237,105,212,259,70,57,163,246,123]",1.5307,rectangle
,,,,,,,,,,,,,FF,,,,,,,,0.7702,,,,,,,,,,,,,,,,,,,,,,60fe4775e9193e65f3742ed5,61037945e53483625331ac8c,2021-07-29_21h00.35.558,Simcolourproject_2stim_asymm_v5,2020.2.10,MacIntel,60,61025ae37ef11b136ea224fe,,,,,,,,,3237,-67.12994385,-35.71374512,1,0,0,response5disk,,2,8.956665039,-14.75585938,1,0,0,rectangle,8.956665039,-14.75585938,1,0,0,8.956665039,-14.75585938,1,0,0,0,67,67,99,1,,,,,,,,
,,,,,,,,,,,,,FF,,,,,,,,0.8059,,,,,,,,,,,,,,,,,,,,,,60fe4775e9193e65f3742ed5,61037945e53483625331ac8c,2021-07-29_21h00.35.558,Simcolourproject_2stim_asymm_v5,2020.2.10,MacIntel,60,61025ae37ef11b136ea224fe,,,,,,,,,3838,-37.63439941,-69.78564453,1,0,0,response5disk,,3,-0.61138916,1.712524414,1,0,0,rectangle,-0.61138916,1.712524414,1,0,0,-0.61138916,1.712524414,1,0,0,0,68,68,10,1,,,,,,,,
,,,,,,,,,,,,,FF,,,,,,,,0.9755,,,,,,,,,,,,,,,,,,,,,,60fe4775e9193e65f3742ed5,61037945e53483625331ac8c,2021-07-29_21h00.35.558,Simcolourproject_2stim_asymm_v5,2020.2.10,MacIntel,60,61025ae37ef11b136ea224fe,,,,,,,,,2990,37.26306152,-76.95043945,1,0,0,response3disk,,4,2.044677734,-0.669677734,1,0,0,rectangle,-43.61193848,-88.36004639,1,0,0,-11.4956665,-3.832763672,1,0,0,0,69,69,95,1,,response5disk_3,TRUE,3,3,"[300,142,240,159,67,41,189,139,48,269,242,237,105,212,259,70,57,163,246,123]",1.6337,rectangle
,,,,,,,,,,,,,FF,,,,,,,,0.7532,,,,,,,,,,,,,,,,,,,,,,60fe4775e9193e65f3742ed5,61037945e53483625331ac8c,2021-07-29_21h00.35.558,Simcolourproject_2stim_asymm_v5,2020.2.10,MacIntel,60,61025ae37ef11b136ea224fe,,,,,,,,,2506,40.94940186,75.61077881,1,0,0,response1disk,,7,-12.30450439,-20.41894531,1,0,0,rectangle,-12.30450439,-20.41894531,1,0,0,-12.30450439,-20.41894531,1,0,0,0,70,70,107,1,,,,,,,,
,,,,,,,,,,,,,FF,,,,,,,,0.588,,,,,,,,,,,,,,,,,,,,,,60fe4775e9193e65f3742ed5,61037945e53483625331ac8c,2021-07-29_21h00.35.558,Simcolourproject_2stim_asymm_v5,2020.2.10,MacIntel,60,61025ae37ef11b136ea224fe,,,,,,,,,3954,53.11791992,70.91314697,1,0,0,response1disk,,7,2.718994141,-5.260009766,1,0,0,rectangle,2.718994141,-5.260009766,1,0,0,2.718994141,-5.260009766,1,0,0,0,71,71,34,1,,,,,,,,
,,,,,,,,,,,,,FF,,,,,,,,0.7572,,,,,,,,,,,,,,,,,,,,,,60fe4775e9193e65f3742ed5,61037945e53483625331ac8c,2021-07-29_21h00.35.558,Simcolourproject_2stim_asymm_v5,2020.2.10,MacIntel,60,61025ae37ef11b136ea224fe,,,,,,,,,3336,-73.762146,40.71417236,1,0,0,response7disk,,1,-10.18829346,6.451416016,1,0,0,rectangle,-10.18829346,6.451416016,1,0,0,-10.18829346,6.451416016,1,0,0,0,72,72,103,1,,,,,,,,
,,,,,,,,,,,,,FF,,,,,,,,0.7056,,,,,,,,,,,,,,,,,,,,,,60fe4775e9193e65f3742ed5,61037945e53483625331ac8c,2021-07-29_21h00.35.558,Simcolourproject_2stim_asymm_v5,2020.2.10,MacIntel,60,61025ae37ef11b136ea224fe,,,,,,,,,2740,75.92498779,42.480896,1,0,0,response1disk,,6,4.069580078,3.10534668,1,0,0,rectangle,4.069580078,3.10534668,1,0,0,4.069580078,3.10534668,1,0,0,0,73,73,118,1,,,,,,,,
,,,,,,,,,,,,,FF,,,,,,,,0.7257,,,,,,,,,,,,,,,,,,,,,,60fe4775e9193e65f3742ed5,61037945e53483625331ac8c,2021-07-29_21h00.35.558,Simcolourproject_2stim_asymm_v5,2020.2.10,MacIntel,60,61025ae37ef11b136ea224fe,,,,,,,,,3128,41.90985107,90.41433716,1,0,0,response1disk,,7,4.236755371,11.51403809,1,0,0,rectangle,4.236755371,11.51403809,1,0,0,4.236755371,11.51403809,1,0,0,0,74,74,134,1,,,,,,,,
,,,,,,,,,,,,,FF,,,,,,,,1.2413,,,,,,,,,,,,,,,,,,,,,,60fe4775e9193e65f3742ed5,61037945e53483625331ac8c,2021-07-29_21h00.35.558,Simcolourproject_2stim_asymm_v5,2020.2.10,MacIntel,60,61025ae37ef11b136ea224fe,,,,,,,,,533,-77.16906738,43.45071411,1,0,0,response7disk,,1,-7.991577148,4.705688477,1,0,0,rectangle,-7.991577148,4.705688477,1,0,0,-7.991577148,4.705688477,1,0,0,0,75,75,157,1,,,,,,,,
,,,,,,,,,,,,,FF,,,,,,,,0.922,,,,,,,,,,,,,,,,,,,,,,60fe4775e9193e65f3742ed5,61037945e53483625331ac8c,2021-07-29_21h00.35.558,Simcolourproject_2stim_asymm_v5,2020.2.10,MacIntel,60,61025ae37ef11b136ea224fe,,,,,,,,,907,-78.41931152,34.90621948,1,0,0,response7disk,,1,-9.53704834,-1.07244873,1,0,0,rectangle,-9.53704834,-1.07244873,1,0,0,-9.53704834,-1.07244873,1,0,0,0,76,76,147,1,,,,,,,,
,,,,,,,,,,,,,FF,,,,,,,,0.6883,,,,,,,,,,,,,,,,,,,,,,60fe4775e9193e65f3742ed5,61037945e53483625331ac8c,2021-07-29_21h00.35.558,Simcolourproject_2stim_asymm_v5,2020.2.10,MacIntel,60,61025ae37ef11b136ea224fe,,,,,,,,,1832,-80.88562012,32.68951416,1,0,0,response7disk,,1,-7.925720215,10.12438965,1,0,0,rectangle,-7.925720215,10.12438965,1,0,0,-7.925720215,10.12438965,1,0,0,0,77,77,42,1,,,,,,,,
,,,,,,,,,,,,,FF,,,,,,,,0.8508,,,,,,,,,,,,,,,,,,,,,,60fe4775e9193e65f3742ed5,61037945e53483625331ac8c,2021-07-29_21h00.35.558,Simcolourproject_2stim_asymm_v5,2020.2.10,MacIntel,60,61025ae37ef11b136ea224fe,,,,,,,,,2933,-59.71130371,-28.08361816,1,0,0,response5disk,,2,0.911865234,-12.27825928,1,0,0,rectangle,0.911865234,-12.27825928,1,0,0,0.911865234,-12.27825928,1,0,0,0,78,78,92,1,,,,,,,,
,,,,,,,,,,,,,FF,,,,,,,,0.638,,,,,,,,,,,,,,,,,,,,,,60fe4775e9193e65f3742ed5,61037945e53483625331ac8c,2021-07-29_21h00.35.558,Simcolourproject_2stim_asymm_v5,2020.2.10,MacIntel,60,61025ae37ef11b136ea224fe,,,,,,,,,267,38.90087891,76.45397949,1,0,0,response1disk,,7,13.74981689,-2.527648926,1,0,0,rectangle,13.74981689,-2.527648926,1,0,0,13.74981689,-2.527648926,1,0,0,0,79,79,60,1,,,,,,,,
,,,,,,,,,,,,,FF,,,,,,,,2.6764,,,,,,,,,,,,,,,,,,,,,,60fe4775e9193e65f3742ed5,61037945e53483625331ac8c,2021-07-29_21h00.35.558,Simcolourproject_2stim_asymm_v5,2020.2.10,MacIntel,60,61025ae37ef11b136ea224fe,,,,,,,,,4344,-46.70343018,74.99313354,1,0,0,response7disk,,0,-6.320129395,5.90411377,1,0,0,rectangle,-6.320129395,5.90411377,1,0,0,-6.320129395,5.90411377,1,0,0,0,80,80,123,1,,,,,,,,
,,,,,,,,,,,,,FF,,,,,,,,1.2198,,,,,,,,,,,,,,,,,,,,,,60fe4775e9193e65f3742ed5,61037945e53483625331ac8c,2021-07-29_21h00.35.558,Simcolourproject_2stim_asymm_v5,2020.2.10,MacIntel,60,61025ae37ef11b136ea224fe,,,,,,,,,3088,-44.38500977,-67.92297363,1,0,0,response5disk,,3,-1.537719727,-5.926757813,1,0,0,rectangle,-1.537719727,-5.926757813,1,0,0,-1.537719727,-5.926757813,1,0,0,0,81,81,87,1,,,,,,,,
,,,,,,,,,,,,,FF,,,,,,,,0.6361,,,,,,,,,,,,,,,,,,,,,,60fe4775e9193e65f3742ed5,61037945e53483625331ac8c,2021-07-29_21h00.35.558,Simcolourproject_2stim_asymm_v5,2020.2.10,MacIntel,60,61025ae37ef11b136ea224fe,,,,,,,,,116,75.48339844,34.60479736,1,0,0,response1disk,,6,4.171264648,4.541870117,1,0,0,rectangle,4.171264648,4.541870117,1,0,0,4.171264648,4.541870117,1,0,0,0,82,82,19,1,,,,,,,,
,,,,,,,,,,,,,FF,,,,,,,,0.9362,,,,,,,,,,,,,,,,,,,,,,60fe4775e9193e65f3742ed5,61037945e53483625331ac8c,2021-07-29_21h00.35.558,Simcolourproject_2stim_asymm_v5,2020.2.10,MacIntel,60,61025ae37ef11b136ea224fe,,,,,,,,,554,-52.90905762,-74.09350586,1,0,0,response5disk,,3,6.383239746,2.261047363,1,0,0,rectangle,6.383239746,2.261047363,1,0,0,6.383239746,2.261047363,1,0,0,0,83,83,28,1,,,,,,,,
,,,,,,,,,,,,,FF,,,,,,,,0.7878,,,,,,,,,,,,,,,,,,,,,,60fe4775e9193e65f3742ed5,61037945e53483625331ac8c,2021-07-29_21h00.35.558,Simcolourproject_2stim_asymm_v5,2020.2.10,MacIntel,60,61025ae37ef11b136ea224fe,,,,,,,,,1341,35.0713501,78.99368286,1,0,0,response1disk,,7,-10.63568115,4.403930664,1,0,0,rectangle,-10.63568115,4.403930664,1,0,0,-10.63568115,4.403930664,1,0,0,0,84,84,9,1,,,,,,,,
,,,,,,,,,,,,,FF,,,,,,,,0.7365,,,,,,,,,,,,,,,,,,,,,,60fe4775e9193e65f3742ed5,61037945e53483625331ac8c,2021-07-29_21h00.35.558,Simcolourproject_2stim_asymm_v5,2020.2.10,MacIntel,60,61025ae37ef11b136ea224fe,,,,,,,,,3356,37.25738525,68.621521,1,0,0,response1disk,,7,0.92590332,-1.780212402,1,0,0,rectangle,0.92590332,-1.780212402,1,0,0,0.92590332,-1.780212402,1,0,0,0,85,85,120,1,,,,,,,,
,,,,,,,,,,,,,FF,,,,,,,,0.804,,,,,,,,,,,,,,,,,,,,,,60fe4775e9193e65f3742ed5,61037945e53483625331ac8c,2021-07-29_21h00.35.558,Simcolourproject_2stim_asymm_v5,2020.2.10,MacIntel,60,61025ae37ef11b136ea224fe,,,,,,,,,1865,88.40405273,44.03512573,1,0,0,response1disk,,6,-9.440551758,3.684387207,1,0,0,rectangle,-9.440551758,3.684387207,1,0,0,-9.440551758,3.684387207,1,0,0,0,86,86,67,1,,,,,,,,
,,,,,,,,,,,,,FF,,,,,,,,1.0247,,,,,,,,,,,,,,,,,,,,,,60fe4775e9193e65f3742ed5,61037945e53483625331ac8c,2021-07-29_21h00.35.558,Simcolourproject_2stim_asymm_v5,2020.2.10,MacIntel,60,61025ae37ef11b136ea224fe,,,,,,,,,4001,-74.78674316,37.92602539,1,0,0,response7disk,,1,-5.013793945,3.967590332,1,0,0,rectangle,-5.013793945,3.967590332,1,0,0,-5.013793945,3.967590332,1,0,0,0,87,87,20,1,,,,,,,,
,,,,,,,,,,,,,FF,,,,,,,,0.8699,,,,,,,,,,,,,,,,,,,,,,60fe4775e9193e65f3742ed5,61037945e53483625331ac8c,2021-07-29_21h00.35.558,Simcolourproject_2stim_asymm_v5,2020.2.10,MacIntel,60,61025ae37ef11b136ea224fe,,,,,,,,,1029,-80.11914063,-40.52282715,1,0,0,response5disk,,2,-12.30212402,1.36138916,1,0,0,rectangle,-12.30212402,1.36138916,1,0,0,-12.30212402,1.36138916,1,0,0,0,88,88,1,1,,,,,,,,
,,,,,,,,,,,,,FF,,,,,,,,1.1063,,,,,,,,,,,,,,,,,,,,,,60fe4775e9193e65f3742ed5,61037945e53483625331ac8c,2021-07-29_21h00.35.558,Simcolourproject_2stim_asymm_v5,2020.2.10,MacIntel,60,61025ae37ef11b136ea224fe,,,,,,,,,834,79.98120117,-29.5435791,1,0,0,response3disk,,5,-9.462585449,7.319824219,1,0,0,rectangle,-9.462585449,7.319824219,1,0,0,-9.462585449,7.319824219,1,0,0,0,89,89,79,1,,,,,,,,
,,,,,,,,,,,,,FF,,,,,,,,0.6053,,,,,,,,,,,,,,,,,,,,,,60fe4775e9193e65f3742ed5,61037945e53483625331ac8c,2021-07-29_21h00.35.558,Simcolourproject_2stim_asymm_v5,2020.2.10,MacIntel,60,61025ae37ef11b136ea224fe,,,,,,,,,216,31.41821289,73.20501709,1,0,0,response1disk,,7,-10.80279541,-7.673583984,1,0,0,rectangle,-10.80279541,-7.673583984,1,0,0,-10.80279541,-7.673583984,1,0,0,0,90,90,51,1,,,,,,,,
,,,,,,,,,,,,,FF,,,,,,,,0.7666,,,,,,,,,,,,,,,,,,,,,,60fe4775e9193e65f3742ed5,61037945e53483625331ac8c,2021-07-29_21h00.35.558,Simcolourproject_2stim_asymm_v5,2020.2.10,MacIntel,60,61025ae37ef11b136ea224fe,,,,,,,,,3284,-75.40759277,-39.25537109,1,0,0,response5disk,,2,-9.862182617,1.937744141,1,0,0,rectangle,-9.862182617,1.937744141,1,0,0,-9.862182617,1.937744141,1,0,0,0,91,91,110,1,,,,,,,,
,,,,,,,,,,,,,FF,,,,,,,,0.903,,,,,,,,,,,,,,,,,,,,,,60fe4775e9193e65f3742ed5,61037945e53483625331ac8c,2021-07-29_21h00.35.558,Simcolourproject_2stim_asymm_v5,2020.2.10,MacIntel,60,61025ae37ef11b136ea224fe,,,,,,,,,1592,51.12390137,86.12878418,1,0,0,response1disk,,7,19.06542969,10.06567383,1,0,0,rectangle,19.06542969,10.06567383,1,0,0,19.06542969,10.06567383,1,0,0,0,92,92,116,1,,,,,,,,
,,,,,,,,,,,,,FF,,,,,,,,0.7526,,,,,,,,,,,,,,,,,,,,,,60fe4775e9193e65f3742ed5,61037945e53483625331ac8c,2021-07-29_21h00.35.558,Simcolourproject_2stim_asymm_v5,2020.2.10,MacIntel,60,61025ae37ef11b136ea224fe,,,,,,,,,2741,62.46191406,-65.28845215,1,0,0,response3disk,,4,9.890319824,-14.84191895,1,0,0,rectangle,9.890319824,-14.84191895,1,0,0,9.890319824,-14.84191895,1,0,0,0,93,93,98,1,,,,,,,,
,,,,,,,,,,,,,FF,,,,,,,,0.8994,,,,,,,,,,,,,,,,,,,,,,60fe4775e9193e65f3742ed5,61037945e53483625331ac8c,2021-07-29_21h00.35.558,Simcolourproject_2stim_asymm_v5,2020.2.10,MacIntel,60,61025ae37ef11b136ea224fe,,,,,,,,,742,-27.81671143,-91.87835693,1,0,0,response5disk,,3,11.28973389,12.90484619,1,0,0,rectangle,11.28973389,12.90484619,1,0,0,11.28973389,12.90484619,1,0,0,0,94,94,80,1,,,,,,,,
,,,,,,,,,,,,,FF,,,,,,,,0.7548,,,,,,,,,,,,,,,,,,,,,,60fe4775e9193e65f3742ed5,61037945e53483625331ac8c,2021-07-29_21h00.35.558,Simcolourproject_2stim_asymm_v5,2020.2.10,MacIntel,60,61025ae37ef11b136ea224fe,,,,,,,,,3013,80.27160645,-34.84570313,1,0,0,response3disk,,5,12.29516602,-5.326904297,1,0,0,rectangle,12.29516602,-5.326904297,1,0,0,12.29516602,-5.326904297,1,0,0,0,95,95,22,1,,,,,,,,
,,,,,,,,,,,,,FF,,,,,,,,0.6699,,,,,,,,,,,,,,,,,,,,,,60fe4775e9193e65f3742ed5,61037945e53483625331ac8c,2021-07-29_21h00.35.558,Simcolourproject_2stim_asymm_v5,2020.2.10,MacIntel,60,61025ae37ef11b136ea224fe,,,,,,,,,1014,87.93243408,-36.7520752,1,0,0,response3disk,,5,8.024108887,-4.215087891,1,0,0,rectangle,8.024108887,-4.215087891,1,0,0,8.024108887,-4.215087891,1,0,0,0,96,96,65,1,,,,,,,,
,,,,,,,,,,,,,FF,,,,,,,,0.8854,,,,,,,,,,,,,,,,,,,,,,60fe4775e9193e65f3742ed5,61037945e53483625331ac8c,2021-07-29_21h00.35.558,Simcolourproject_2stim_asymm_v5,2020.2.10,MacIntel,60,61025ae37ef11b136ea224fe,,,,,,,,,622,-87.84112549,-45.92773438,1,0,0,response5disk,,2,-3.915649414,18.64251709,1,0,0,rectangle,-3.915649414,18.64251709,1,0,0,-3.915649414,18.64251709,1,0,0,0,97,97,153,1,,,,,,,,
,,,,,,,,,,,,,FF,,,,,,,,1.7234,,,,,,,,,,,,,,,,,,,,,,60fe4775e9193e65f3742ed5,61037945e53483625331ac8c,2021-07-29_21h00.35.558,Simcolourproject_2stim_asymm_v5,2020.2.10,MacIntel,60,61025ae37ef11b136ea224fe,,,,,,,,,846,36.98748779,-84.94335938,1,0,0,response3disk,,4,-4.560058594,-8.550109863,1,0,0,rectangle,-4.560058594,-8.550109863,1,0,0,-4.560058594,-8.550109863,1,0,0,0,98,98,127,1,,,,,,,,
,,,,,,,,,,,,,FF,,,,,,,,0.8743,,,,,,,,,,,,,,,,,,,,,,60fe4775e9193e65f3742ed5,61037945e53483625331ac8c,2021-07-29_21h00.35.558,Simcolourproject_2stim_asymm_v5,2020.2.10,MacIntel,60,61025ae37ef11b136ea224fe,,,,,,,,,2926,84.17565918,45.46920776,1,0,0,response1disk,,6,15.58795166,-7.828735352,1,0,0,rectangle,15.58795166,-7.828735352,1,0,0,15.58795166,-7.828735352,1,0,0,0,99,99,83,1,,,,,,,,
,,,,,,,,,,,,,FF,,,,,,,,1.6165,,,,,,,,,,,,,,,,,,,,,,60fe4775e9193e65f3742ed5,61037945e53483625331ac8c,2021-07-29_21h00.35.558,Simcolourproject_2stim_asymm_v5,2020.2.10,MacIntel,60,61025ae37ef11b136ea224fe,,,,,,,,,2828,-78.58081055,-58.5458374,1,0,0,response5disk,,2,-2.629943848,-4.975830078,1,0,0,rectangle,-2.629943848,-4.975830078,1,0,0,-2.629943848,-4.975830078,1,0,0,0,100,100,117,1,,,,,,,,
,,,,,,,,,,,,,FF,,,,,,,,2.1986,,,,,,,,,,,,,,,,,,,,,,60fe4775e9193e65f3742ed5,61037945e53483625331ac8c,2021-07-29_21h00.35.558,Simcolourproject_2stim_asymm_v5,2020.2.10,MacIntel,60,61025ae37ef11b136ea224fe,,,,,,,,,3243,-42.72229004,97.06686401,1,0,0,response7disk,,0,-2.234619141,9.126403809,1,0,0,rectangle,-2.234619141,9.126403809,1,0,0,-2.234619141,9.126403809,1,0,0,0,101,101,70,1,,,,,,,,
,,,,,,,,,,,,,FF,,,,,,,,4.129,,,,,,,,,,,,,,,,,,,,,,60fe4775e9193e65f3742ed5,61037945e53483625331ac8c,2021-07-29_21h00.35.558,Simcolourproject_2stim_asymm_v5,2020.2.10,MacIntel,60,61025ae37ef11b136ea224fe,,,,,,,,,2754,89.85009766,-42.34686279,1,0,0,response3disk,,5,14.55963135,10.19348145,1,0,0,rectangle,14.55963135,10.19348145,1,0,0,14.55963135,10.19348145,1,0,0,0,102,102,108,1,,,,,,,,
,,,,,,,,,,,,,FF,,,,,,,,0.921,,,,,,,,,,,,,,,,,,,,,,60fe4775e9193e65f3742ed5,61037945e53483625331ac8c,2021-07-29_21h00.35.558,Simcolourproject_2stim_asymm_v5,2020.2.10,MacIntel,60,61025ae37ef11b136ea224fe,,,,,,,,,3944,-92.13702393,-46.90411377,1,0,0,response5disk,,2,0.675109863,-3.490600586,1,0,0,rectangle,0.675109863,-3.490600586,1,0,0,0.675109863,-3.490600586,1,0,0,0,103,103,135,1,,,,,,,,
,,,,,,,,,,,,,FF,,,,,,,,1.0337,,,,,,,,,,,,,,,,,,,,,,60fe4775e9193e65f3742ed5,61037945e53483625331ac8c,2021-07-29_21h00.35.558,Simcolourproject_2stim_asymm_v5,2020.2.10,MacIntel,60,61025ae37ef11b136ea224fe,,,,,,,,,30,83.27709961,-42.74645996,1,0,0,response3disk,,5,-0.05267334,-1.948242188,1,0,0,rectangle,-66.29089355,-40.77478027,1,0,0,-8.530334473,-1.648254395,1,0,0,0,104,104,82,1,,response5disk_3,TRUE,2,2,"[300,142,240,159,67,41,189,139,48,269,242,237,105,212,259,70,57,163,246,123]",1.6107,rectangle
,,,,,,,,,,,,,FF,,,,,,,,0.8256,,,,,,,,,,,,,,,,,,,,,,60fe4775e9193e65f3742ed5,61037945e53483625331ac8c,2021-07-29_21h00.35.558,Simcolourproject_2stim_asymm_v5,2020.2.10,MacIntel,60,61025ae37ef11b136ea224fe,,,,,,,,,1129,94.00250244,-24.70355225,1,0,0,response3disk,,5,9.538635254,4.678222656,1,0,0,rectangle,9.538635254,4.678222656,1,0,0,9.538635254,4.678222656,1,0,0,0,105,105,94,1,,,,,,,,
,,,,,,,,,,,,,FF,,,,,,,,0.9675,,,,,,,,,,,,,,,,,,,,,,60fe4775e9193e65f3742ed5,61037945e53483625331ac8c,2021-07-29_21h00.35.558,Simcolourproject_2stim_asymm_v5,2020.2.10,MacIntel,60,61025ae37ef11b136ea224fe,,,,,,,,,1968,-62.12384033,-41.20410156,1,0,0,response5disk,,2,-15.88067627,-4.838806152,1,0,0,rectangle,-15.88067627,-4.838806152,1,0,0,-15.88067627,-4.838806152,1,0,0,0,106,106,90,1,,,,,,,,
,,,,,,,,,,,,,FF,,,,,,,,1.758,,,,,,,,,,,,,,,,,,,,,,60fe4775e9193e65f3742ed5,61037945e53483625331ac8c,2021-07-29_21h00.35.558,Simcolourproject_2stim_asymm_v5,2020.2.10,MacIntel,60,61025ae37ef11b136ea224fe,,,,,,,,,3303,78.99285889,-30.74365234,1,0,0,response3disk,,5,4.407043457,-12.63134766,1,0,0,rectangle,4.407043457,-12.63134766,1,0,0,4.407043457,-12.63134766,1,0,0,0,107,107,55,1,,,,,,,,
,,,,,,,,,,,,,FF,,,,,,,,1.4922,,,,,,,,,,,,,,,,,,,,,,60fe4775e9193e65f3742ed5,61037945e53483625331ac8c,2021-07-29_21h00.35.558,Simcolourproject_2stim_asymm_v5,2020.2.10,MacIntel,60,61025ae37ef11b136ea224fe,,,,,,,,,1246,29.08959961,-79.32019043,1,0,0,response3disk,,4,-2.542419434,12.11181641,1,0,0,rectangle,-2.542419434,12.11181641,1,0,0,-2.542419434,12.11181641,1,0,0,0,108,108,85,1,,,,,,,,
,,,,,,,,,,,,,FF,,,,,,,,1.4862,,,,,,,,,,,,,,,,,,,,,,60fe4775e9193e65f3742ed5,61037945e53483625331ac8c,2021-07-29_21h00.35.558,Simcolourproject_2stim_asymm_v5,2020.2.10,MacIntel,60,61025ae37ef11b136ea224fe,,,,,,,,,3592,-88.88824463,-47.59075928,1,0,0,response5disk,,2,-29.3815918,-6.69543457,1,0,0,rectangle,-29.3815918,-6.69543457,1,0,0,-29.3815918,-6.69543457,1,0,0,0,109,109,89,1,,,,,,,,
,,,,,,,,,,,,,FF,,,,,,,,0.9639,,,,,,,,,,,,,,,,,,,,,,60fe4775e9193e65f3742ed5,61037945e53483625331ac8c,2021-07-29_21h00.35.558,Simcolourproject_2stim_asymm_v5,2020.2.10,MacIntel,60,61025ae37ef11b136ea224fe,,,,,,,,,2590,23.11047363,83.96765137,1,0,0,response1disk,,7,3.392578125,11.78729248,1,0,0,rectangle,3.392578125,11.78729248,1,0,0,3.392578125,11.78729248,1,0,0,0,110,110,17,1,,,,,,,,
,,,,,,,,,,,,,FF,,,,,,,,0.9938,,,,,,,,,,,,,,,,,,,,,,60fe4775e9193e65f3742ed5,61037945e53483625331ac8c,2021-07-29_21h00.35.558,Simcolourproject_2stim_asymm_v5,2020.2.10,MacIntel,60,61025ae37ef11b136ea224fe,,,,,,,,,1007,105.3778687,39.08932495,1,0,0,response1disk,,6,13.31469727,6.508239746,1,0,0,rectangle,13.31469727,6.508239746,1,0,0,13.31469727,6.508239746,1,0,0,0,111,111,152,1,,,,,,,,
,,,,,,,,,,,,,FF,,,,,,,,1.2064,,,,,,,,,,,,,,,,,,,,,,60fe4775e9193e65f3742ed5,61037945e53483625331ac8c,2021-07-29_21h00.35.558,Simcolourproject_2stim_asymm_v5,2020.2.10,MacIntel,60,61025ae37ef11b136ea224fe,,,,,,,,,3341,-91.36444092,-34.76385498,1,0,0,response5disk,,2,-5.843200684,-7.440429688,1,0,0,rectangle,-5.843200684,-7.440429688,1,0,0,-5.843200684,-7.440429688,1,0,0,0,112,112,141,1,,,,,,,,
,,,,,,,,,,,,,FF,,,,,,,,1.1391,,,,,,,,,,,,,,,,,,,,,,60fe4775e9193e65f3742ed5,61037945e53483625331ac8c,2021-07-29_21h00.35.558,Simcolourproject_2stim_asymm_v5,2020.2.10,MacIntel,60,61025ae37ef11b136ea224fe,,,,,,,,,1247,56.81506348,-91.44744873,1,0,0,response3disk,,4,-3.636413574,-11.13378906,1,0,0,rectangle,-3.636413574,-11.13378906,1,0,0,-3.636413574,-11.13378906,1,0,0,0,113,113,68,1,,,,,,,,
,,,,,,,,,,,,,FF,,,,,,,,0.6711,,,,,,,,,,,,,,,,,,,,,,60fe4775e9193e65f3742ed5,61037945e53483625331ac8c,2021-07-29_21h00.35.558,Simcolourproject_2stim_asymm_v5,2020.2.10,MacIntel,60,61025ae37ef11b136ea224fe,,,,,,,,,98,-80.92138672,-46.63458252,1,0,0,response5disk,,2,-20.84173584,7.604125977,1,0,0,rectangle,-20.84173584,7.604125977,1,0,0,-20.84173584,7.604125977,1,0,0,0,114,114,27,1,,,,,,,,
,,,,,,,,,,,,,FF,,,,,,,,0.8034,,,,,,,,,,,,,,,,,,,,,,60fe4775e9193e65f3742ed5,61037945e53483625331ac8c,2021-07-29_21h00.35.558,Simcolourproject_2stim_asymm_v5,2020.2.10,MacIntel,60,61025ae37ef11b136ea224fe,,,,,,,,,4042,93.71429443,-43.97277832,1,0,0,response3disk,,5,9.904174805,-10.0246582,1,0,0,rectangle,9.904174805,-10.0246582,1,0,0,9.904174805,-10.0246582,1,0,0,0,115,115,73,1,,,,,,,,
,,,,,,,,,,,,,FF,,,,,,,,0.554,,,,,,,,,,,,,,,,,,,,,,60fe4775e9193e65f3742ed5,61037945e53483625331ac8c,2021-07-29_21h00.35.558,Simcolourproject_2stim_asymm_v5,2020.2.10,MacIntel,60,61025ae37ef11b136ea224fe,,,,,,,,,3528,57.74145508,74.01489258,1,0,0,response1disk,,7,8.41809082,-9.062988281,1,0,0,rectangle,8.41809082,-9.062988281,1,0,0,8.41809082,-9.062988281,1,0,0,0,116,116,144,1,,,,,,,,
,,,,,,,,,,,,,FF,,,,,,,,0.7547,,,,,,,,,,,,,,,,,,,,,,60fe4775e9193e65f3742ed5,61037945e53483625331ac8c,2021-07-29_21h00.35.558,Simcolourproject_2stim_asymm_v5,2020.2.10,MacIntel,60,61025ae37ef11b136ea224fe,,,,,,,,,52,53.47125244,38.06005859,1,0,0,response1disk,,6,0.902709961,-6.46105957,1,0,0,rectangle,0.902709961,-6.46105957,1,0,0,0.902709961,-6.46105957,1,0,0,0,117,117,129,1,,,,,,,,
,,,,,,,,,,,,,FF,,,,,,,,0.8365,,,,,,,,,,,,,,,,,,,,,,60fe4775e9193e65f3742ed5,61037945e53483625331ac8c,2021-07-29_21h00.35.558,Simcolourproject_2stim_asymm_v5,2020.2.10,MacIntel,60,61025ae37ef11b136ea224fe,,,,,,,,,4168,-69.43774414,34.0635376,1,0,0,response7disk,,1,-9.496826172,-1.505859375,1,0,0,rectangle,-9.496826172,-1.505859375,1,0,0,-9.496826172,-1.505859375,1,0,0,0,118,118,77,1,,,,,,,,
,,,,,,,,,,,,,FF,,,,,,,,0.7716,,,,,,,,,,,,,,,,,,,,,,60fe4775e9193e65f3742ed5,61037945e53483625331ac8c,2021-07-29_21h00.35.558,Simcolourproject_2stim_asymm_v5,2020.2.10,MacIntel,60,61025ae37ef11b136ea224fe,,,,,,,,,1477,83.62866211,45.01867676,1,0,0,response1disk,,6,-9.119750977,-13.2255249,1,0,0,rectangle,-9.119750977,-13.2255249,1,0,0,-9.119750977,-13.2255249,1,0,0,0,119,119,46,1,,,,,,,,
,,,,,,,,,,,,,FF,,,,,,,,0.735,,,,,,,,,,,,,,,,,,,,,,60fe4775e9193e65f3742ed5,61037945e53483625331ac8c,2021-07-29_21h00.35.558,Simcolourproject_2stim_asymm_v5,2020.2.10,MacIntel,60,61025ae37ef11b136ea224fe,,,,,,,,,723,-107.3113403,28.92675781,1,0,0,response7disk,,1,-11.4420166,0.677368164,1,0,0,rectangle,-11.4420166,0.677368164,1,0,0,-11.4420166,0.677368164,1,0,0,0,120,120,49,1,,,,,,,,
,,,,,,,,,,,,,FF,,,,,,,,0.6558,,,,,,,,,,,,,,,,,,,,,,60fe4775e9193e65f3742ed5,61037945e53483625331ac8c,2021-07-29_21h00.35.558,Simcolourproject_2stim_asymm_v5,2020.2.10,MacIntel,60,61025ae37ef11b136ea224fe,,,,,,,,,3098,-90.84490967,36.73239136,1,0,0,response7disk,,1,0.447265625,3.994995117,1,0,0,rectangle,0.447265625,3.994995117,1,0,0,0.447265625,3.994995117,1,0,0,0,121,121,52,1,,,,,,,,
,,,,,,,,,,,,,FF,,,,,,,,0.5536,,,,,,,,,,,,,,,,,,,,,,60fe4775e9193e65f3742ed5,61037945e53483625331ac8c,2021-07-29_21h00.35.558,Simcolourproject_2stim_asymm_v5,2020.2.10,MacIntel,60,61025ae37ef11b136ea224fe,,,,,,,,,2023,43.6661377,88.58123779,1,0,0,response1disk,,7,5.826599121,10.73706055,1,0,0,rectangle,80.16235352,45.66363525,1,0,0,-2.053588867,1.741455078,1,0,0,0,122,122,138,1,,response1disk_3,TRUE,6,6,"[300,142,240,159,67,41,189,139,48,269,242,237,105,212,259,70,57,163,246,123]",1.5344,rectangle
,,,,,,,,,,,,,FF,,,,,,,,0.7085,,,,,,,,,,,,,,,,,,,,,,60fe4775e9193e65f3742ed5,61037945e53483625331ac8c,2021-07-29_21h00.35.558,Simcolourproject_2stim_asymm_v5,2020.2.10,MacIntel,60,61025ae37ef11b136ea224fe,,,,,,,,,4230,87.78930664,56.0559082,1,0,0,response1disk,,6,0.516174316,0.288574219,1,0,0,rectangle,0.516174316,0.288574219,1,0,0,0.516174316,0.288574219,1,0,0,0,123,123,132,1,,,,,,,,
,,,,,,,,,,,,,FF,,,,,,,,0.7208,,,,,,,,,,,,,,,,,,,,,,60fe4775e9193e65f3742ed5,61037945e53483625331ac8c,2021-07-29_21h00.35.558,Simcolourproject_2stim_asymm_v5,2020.2.10,MacIntel,60,61025ae37ef11b136ea224fe,,,,,,,,,4007,-77.33258057,-53.23736572,1,0,0,response5disk,,2,-7.315246582,-7.27923584,1,0,0,rectangle,-7.315246582,-7.27923584,1,0,0,-7.315246582,-7.27923584,1,0,0,0,124,124,30,1,,,,,,,,
,,,,,,,,,,,,,FF,,,,,,,,0.5876,,,,,,,,,,,,,,,,,,,,,,60fe4775e9193e65f3742ed5,61037945e53483625331ac8c,2021-07-29_21h00.35.558,Simcolourproject_2stim_asymm_v5,2020.2.10,MacIntel,60,61025ae37ef11b136ea224fe,,,,,,,,,1938,39.17956543,69.84692383,1,0,0,response1disk,,7,-26.93908691,-17.93688965,1,0,0,rectangle,-26.93908691,-17.93688965,1,0,0,-26.93908691,-17.93688965,1,0,0,0,125,125,61,1,,,,,,,,
,,,,,,,,,,,,,FF,,,,,,,,1.3249,,,,,,,,,,,,,,,,,,,,,,60fe4775e9193e65f3742ed5,61037945e53483625331ac8c,2021-07-29_21h00.35.558,Simcolourproject_2stim_asymm_v5,2020.2.10,MacIntel,60,61025ae37ef11b136ea224fe,,,,,,,,,3929,50.01727295,82.15869141,1,0,0,response1disk,,7,-7.511169434,6.654907227,1,0,0,rectangle,-7.511169434,6.654907227,1,0,0,-7.511169434,6.654907227,1,0,0,0,126,126,114,1,,,,,,,,
,,,,,,,,,,,,,FF,,,,,,,,0.4996,,,,,,,,,,,,,,,,,,,,,,60fe4775e9193e65f3742ed5,61037945e53483625331ac8c,2021-07-29_21h00.35.558,Simcolourproject_2stim_asymm_v5,2020.2.10,MacIntel,60,61025ae37ef11b136ea224fe,,,,,,,,,1470,32.45843506,54.51144409,1,0,0,response1disk,,7,10.63165283,-11.23742676,1,0,0,rectangle,10.63165283,-11.23742676,1,0,0,10.63165283,-11.23742676,1,0,0,0,127,127,16,1,,,,,,,,
,,,,,,,,,,,,,FF,,,,,,,,0.7054,,,,,,,,,,,,,,,,,,,,,,60fe4775e9193e65f3742ed5,61037945e53483625331ac8c,2021-07-29_21h00.35.558,Simcolourproject_2stim_asymm_v5,2020.2.10,MacIntel,60,61025ae37ef11b136ea224fe,,,,,,,,,4255,-63.45477295,30.47994995,1,0,0,response7disk,,1,9.923828125,1.617004395,1,0,0,rectangle,9.923828125,1.617004395,1,0,0,9.923828125,1.617004395,1,0,0,0,128,128,106,1,,,,,,,,
,,,,,,,,,,,,,FF,,,,,,,,0.5212,,,,,,,,,,,,,,,,,,,,,,60fe4775e9193e65f3742ed5,61037945e53483625331ac8c,2021-07-29_21h00.35.558,Simcolourproject_2stim_asymm_v5,2020.2.10,MacIntel,60,61025ae37ef11b136ea224fe,,,,,,,,,1557,49.21075439,57.41796875,1,0,0,response1disk,,7,23.66217041,9.205932617,1,0,0,rectangle,23.66217041,9.205932617,1,0,0,23.66217041,9.205932617,1,0,0,0,129,129,64,1,,,,,,,,
,,,,,,,,,,,,,FF,,,,,,,,0.6212,,,,,,,,,,,,,,,,,,,,,,60fe4775e9193e65f3742ed5,61037945e53483625331ac8c,2021-07-29_21h00.35.558,Simcolourproject_2stim_asymm_v5,2020.2.10,MacIntel,60,61025ae37ef11b136ea224fe,,,,,,,,,2707,45.80517578,76.49588013,1,0,0,response1disk,,7,16.93768311,8.729431152,1,0,0,rectangle,16.93768311,8.729431152,1,0,0,16.93768311,8.729431152,1,0,0,0,130,130,50,1,,,,,,,,
,,,,,,,,,,,,,FF,,,,,,,,0.6514,,,,,,,,,,,,,,,,,,,,,,60fe4775e9193e65f3742ed5,61037945e53483625331ac8c,2021-07-29_21h00.35.558,Simcolourproject_2stim_asymm_v5,2020.2.10,MacIntel,60,61025ae37ef11b136ea224fe,,,,,,,,,960,34.44561768,58.18179321,1,0,0,response1disk,,7,2.563293457,-5.919311523,1,0,0,rectangle,2.563293457,-5.919311523,1,0,0,2.563293457,-5.919311523,1,0,0,0,131,131,2,1,,,,,,,,
,,,,,,,,,,,,,FF,,,,,,,,0.7378,,,,,,,,,,,,,,,,,,,,,,60fe4775e9193e65f3742ed5,61037945e53483625331ac8c,2021-07-29_21h00.35.558,Simcolourproject_2stim_asymm_v5,2020.2.10,MacIntel,60,61025ae37ef11b136ea224fe,,,,,,,,,196,34.22875977,73.18179321,1,0,0,response1disk,,7,10.04675293,12.3112793,1,0,0,rectangle,10.04675293,12.3112793,1,0,0,10.04675293,12.3112793,1,0,0,0,132,132,32,1,,,,,,,,
,,,,,,,,,,,,,FF,,,,,,,,0.7812,,,,,,,,,,,,,,,,,,,,,,60fe4775e9193e65f3742ed5,61037945e53483625331ac8c,2021-07-29_21h00.35.558,Simcolourproject_2stim_asymm_v5,2020.2.10,MacIntel,60,61025ae37ef11b136ea224fe,,,,,,,,,2487,74.26763916,24.19250488,1,0,0,response1disk,,6,-3.013122559,-3.235168457,1,0,0,rectangle,-3.013122559,-3.235168457,1,0,0,-3.013122559,-3.235168457,1,0,0,0,133,133,112,1,,,,,,,,
,,,,,,,,,,,,,FF,,,,,,,,0.8407,,,,,,,,,,,,,,,,,,,,,,60fe4775e9193e65f3742ed5,61037945e53483625331ac8c,2021-07-29_21h00.35.558,Simcolourproject_2stim_asymm_v5,2020.2.10,MacIntel,60,61025ae37ef11b136ea224fe,,,,,,,,,3415,103.2731323,44.40075684,1,0,0,response1disk,,6,3.494140625,-4.531860352,1,0,0,rectangle,3.494140625,-4.531860352,1,0,0,3.494140625,-4.531860352,1,0,0,0,134,134,72,1,,,,,,,,
,,,,,,,,,,,,,FF,,,,,,,,0.6916,,,,,,,,,,,,,,,,,,,,,,60fe4775e9193e65f3742ed5,61037945e53483625331ac8c,2021-07-29_21h00.35.558,Simcolourproject_2stim_asymm_v5,2020.2.10,MacIntel,60,61025ae37ef11b136ea224fe,,,,,,,,,4127,-69.8001709,-50.79370117,1,0,0,response5disk,,2,9.956115723,4.977050781,1,0,0,rectangle,9.956115723,4.977050781,1,0,0,9.956115723,4.977050781,1,0,0,0,135,135,105,1,,,,,,,,
,,,,,,,,,,,,,FF,,,,,,,,0.5532,,,,,,,,,,,,,,,,,,,,,,60fe4775e9193e65f3742ed5,61037945e53483625331ac8c,2021-07-29_21h00.35.558,Simcolourproject_2stim_asymm_v5,2020.2.10,MacIntel,60,61025ae37ef11b136ea224fe,,,,,,,,,3193,77.49450684,22.0355835,1,0,0,response1disk,,6,0.229614258,-5.851135254,1,0,0,rectangle,0.229614258,-5.851135254,1,0,0,0.229614258,-5.851135254,1,0,0,0,136,136,84,1,,,,,,,,
,,,,,,,,,,,,,FF,,,,,,,,0.8065,,,,,,,,,,,,,,,,,,,,,,60fe4775e9193e65f3742ed5,61037945e53483625331ac8c,2021-07-29_21h00.35.558,Simcolourproject_2stim_asymm_v5,2020.2.10,MacIntel,60,61025ae37ef11b136ea224fe,,,,,,,,,1379,-43.79772949,-76.75463867,1,0,0,response5disk,,3,-2.294555664,1.136779785,1,0,0,rectangle,-2.294555664,1.136779785,1,0,0,-2.294555664,1.136779785,1,0,0,0,137,137,59,1,,,,,,,,
,,,,,,,,,,,,,FF,,,,,,,,0.9531,,,,,,,,,,,,,,,,,,,,,,60fe4775e9193e65f3742ed5,61037945e53483625331ac8c,2021-07-29_21h00.35.558,Simcolourproject_2stim_asymm_v5,2020.2.10,MacIntel,60,61025ae37ef11b136ea224fe,,,,,,,,,2984,46.25640869,-73.20233154,1,0,0,response3disk,,4,7.674804688,0.519836426,1,0,0,rectangle,-48.01196289,80.17730713,1,0,0,-10.64733887,5.97869873,1,0,0,0,138,138,38,1,,response7disk_3,TRUE,0,0,"[300,142,240,159,67,41,189,139,48,269,242,237,105,212,259,70,57,163,246,123]",1.6658,rectangle
,,,,,,,,,,,,,FF,,,,,,,,0.6559,,,,,,,,,,,,,,,,,,,,,,60fe4775e9193e65f3742ed5,61037945e53483625331ac8c,2021-07-29_21h00.35.558,Simcolourproject_2stim_asymm_v5,2020.2.10,MacIntel,60,61025ae37ef11b136ea224fe,,,,,,,,,3866,78.82489014,45.47634888,1,0,0,response1disk,,6,1.454467773,5.660461426,1,0,0,rectangle,1.454467773,5.660461426,1,0,0,1.454467773,5.660461426,1,0,0,0,139,139,149,1,,,,,,,,
,,,,,,,,,,,,,FF,,,,,,,,0.7373,,,,,,,,,,,,,,,,,,,,,,60fe4775e9193e65f3742ed5,61037945e53483625331ac8c,2021-07-29_21h00.35.558,Simcolourproject_2stim_asymm_v5,2020.2.10,MacIntel,60,61025ae37ef11b136ea224fe,,,,,,,,,1975,34.03045654,79.98059082,1,0,0,response1disk,,7,5.853088379,8.144226074,1,0,0,rectangle,5.853088379,8.144226074,1,0,0,5.853088379,8.144226074,1,0,0,0,140,140,15,1,,,,,,,,
,,,,,,,,,,,,,FF,,,,,,,,0.7556,,,,,,,,,,,,,,,,,,,,,,60fe4775e9193e65f3742ed5,61037945e53483625331ac8c,2021-07-29_21h00.35.558,Simcolourproject_2stim_asymm_v5,2020.2.10,MacIntel,60,61025ae37ef11b136ea224fe,,,,,,,,,1635,45.89984131,-66.8873291,1,0,0,response3disk,,4,7.614990234,-14.0925293,1,0,0,rectangle,87.04272461,-30.56494141,1,0,0,-0.47277832,-9.327697754,1,0,0,0,141,141,25,1,,response3disk_3,TRUE,5,5,"[300,142,240,159,67,41,189,139,48,269,242,237,105,212,259,70,57,163,246,123]",1.6378,rectangle
,,,,,,,,,,,,,FF,,,,,,,,0.8406,,,,,,,,,,,,,,,,,,,,,,60fe4775e9193e65f3742ed5,61037945e53483625331ac8c,2021-07-29_21h00.35.558,Simcolourproject_2stim_asymm_v5,2020.2.10,MacIntel,60,61025ae37ef11b136ea224fe,,,,,,,,,75,-74.20941162,-45.28411865,1,0,0,response5disk,,2,-1.541625977,-0.679443359,1,0,0,rectangle,-1.541625977,-0.679443359,1,0,0,-1.541625977,-0.679443359,1,0,0,0,142,142,151,1,,,,,,,,
,,,,,,,,,,,,,FF,,,,,,,,0.939,,,,,,,,,,,,,,,,,,,,,,60fe4775e9193e65f3742ed5,61037945e53483625331ac8c,2021-07-29_21h00.35.558,Simcolourproject_2stim_asymm_v5,2020.2.10,MacIntel,60,61025ae37ef11b136ea224fe,,,,,,,,,3078,33.01800537,82.61581421,1,0,0,response1disk,,7,-9.23223877,-11.78222656,1,0,0,rectangle,-9.23223877,-11.78222656,1,0,0,-9.23223877,-11.78222656,1,0,0,0,143,143,104,1,,,,,,,,
,,,,,,,,,,,,,FF,,,,,,,,0.6377,,,,,,,,,,,,,,,,,,,,,,60fe4775e9193e65f3742ed5,61037945e53483625331ac8c,2021-07-29_21h00.35.558,Simcolourproject_2stim_asymm_v5,2020.2.10,MacIntel,60,61025ae37ef11b136ea224fe,,,,,,,,,2063,48.92663574,93.44534302,1,0,0,response1disk,,7,7.628540039,10.43139648,1,0,0,rectangle,7.628540039,10.43139648,1,0,0,7.628540039,10.43139648,1,0,0,0,144,144,93,1,,,,,,,,
,,,,,,,,,,,,,FF,,,,,,,,0.5782,,,,,,,,,,,,,,,,,,,,,,60fe4775e9193e65f3742ed5,61037945e53483625331ac8c,2021-07-29_21h00.35.558,Simcolourproject_2stim_asymm_v5,2020.2.10,MacIntel,60,61025ae37ef11b136ea224fe,,,,,,,,,1919,28.94342041,52.72650146,1,0,0,response1disk,,7,-6.914123535,-8.209350586,1,0,0,rectangle,-6.914123535,-8.209350586,1,0,0,-6.914123535,-8.209350586,1,0,0,0,145,145,4,1,,,,,,,,
,,,,,,,,,,,,,FF,,,,,,,,0.7234,,,,,,,,,,,,,,,,,,,,,,60fe4775e9193e65f3742ed5,61037945e53483625331ac8c,2021-07-29_21h00.35.558,Simcolourproject_2stim_asymm_v5,2020.2.10,MacIntel,60,61025ae37ef11b136ea224fe,,,,,,,,,4030,-41.26190186,-78.1373291,1,0,0,response5disk,,3,-9.980773926,-2.484619141,1,0,0,rectangle,-9.980773926,-2.484619141,1,0,0,-9.980773926,-2.484619141,1,0,0,0,146,146,115,1,,,,,,,,
,,,,,,,,,,,,,FF,,,,,,,,0.8361,,,,,,,,,,,,,,,,,,,,,,60fe4775e9193e65f3742ed5,61037945e53483625331ac8c,2021-07-29_21h00.35.558,Simcolourproject_2stim_asymm_v5,2020.2.10,MacIntel,60,61025ae37ef11b136ea224fe,,,,,,,,,1889,-87.35101318,37.2699585,1,0,0,response7disk,,1,-23.74316406,8.586425781,1,0,0,rectangle,-23.74316406,8.586425781,1,0,0,-23.74316406,8.586425781,1,0,0,0,147,147,5,1,,,,,,,,
,,,,,,,,,,,,,FF,,,,,,,,0.6694,,,,,,,,,,,,,,,,,,,,,,60fe4775e9193e65f3742ed5,61037945e53483625331ac8c,2021-07-29_21h00.35.558,Simcolourproject_2stim_asymm_v5,2020.2.10,MacIntel,60,61025ae37ef11b136ea224fe,,,,,,,,,86,72.59484863,-32.7746582,1,0,0,response3disk,,5,6.443969727,0.284790039,1,0,0,rectangle,6.443969727,0.284790039,1,0,0,6.443969727,0.284790039,1,0,0,0,148,148,96,1,,,,,,,,
,,,,,,,,,,,,,FF,,,,,,,,0.5213,,,,,,,,,,,,,,,,,,,,,,60fe4775e9193e65f3742ed5,61037945e53483625331ac8c,2021-07-29_21h00.35.558,Simcolourproject_2stim_asymm_v5,2020.2.10,MacIntel,60,61025ae37ef11b136ea224fe,,,,,,,,,2267,41.28833008,60.34692383,1,0,0,response1disk,,7,-2.748413086,4.360961914,1,0,0,rectangle,-2.748413086,4.360961914,1,0,0,-2.748413086,4.360961914,1,0,0,0,149,149,33,1,,,,,,,,
,,,,,,,,,,,,,FF,,,,,,,,0.4871,,,,,,,,,,,,,,,,,,,,,,60fe4775e9193e65f3742ed5,61037945e53483625331ac8c,2021-07-29_21h00.35.558,Simcolourproject_2stim_asymm_v5,2020.2.10,MacIntel,60,61025ae37ef11b136ea224fe,,,,,,,,,1074,26.60540771,61.06048584,1,0,0,response1disk,,7,-1.08782959,-13.64624023,1,0,0,rectangle,-1.08782959,-13.64624023,1,0,0,-1.08782959,-13.64624023,1,0,0,0,150,150,26,1,,,,,,,,
,,,,,,,,,,,,,FF,,,,,,,,0.5024,,,,,,,,,,,,,,,,,,,,,,60fe4775e9193e65f3742ed5,61037945e53483625331ac8c,2021-07-29_21h00.35.558,Simcolourproject_2stim_asymm_v5,2020.2.10,MacIntel,60,61025ae37ef11b136ea224fe,,,,,,,,,228,45.04888916,60.83688354,1,0,0,response1disk,,7,10.91143799,-9.050109863,1,0,0,rectangle,10.91143799,-9.050109863,1,0,0,10.91143799,-9.050109863,1,0,0,0,151,151,109,1,,,,,,,,
,,,,,,,,,,,,,FF,,,,,,,,0.5859,,,,,,,,,,,,,,,,,,,,,,60fe4775e9193e65f3742ed5,61037945e53483625331ac8c,2021-07-29_21h00.35.558,Simcolourproject_2stim_asymm_v5,2020.2.10,MacIntel,60,61025ae37ef11b136ea224fe,,,,,,,,,2803,30.3793335,50.85717773,1,0,0,response1disk,,7,1.511047363,3.462524414,1,0,0,rectangle,1.511047363,3.462524414,1,0,0,1.511047363,3.462524414,1,0,0,0,152,152,58,1,,,,,,,,
,,,,,,,,,,,,,FF,,,,,,,,0.9075,,,,,,,,,,,,,,,,,,,,,,60fe4775e9193e65f3742ed5,61037945e53483625331ac8c,2021-07-29_21h00.35.558,Simcolourproject_2stim_asymm_v5,2020.2.10,MacIntel,60,61025ae37ef11b136ea224fe,,,,,,,,,3157,-71.13769531,-48.21472168,1,0,0,response5disk,,2,3.269470215,-3.677185059,1,0,0,rectangle,3.269470215,-3.677185059,1,0,0,3.269470215,-3.677185059,1,0,0,0,153,153,66,1,,,,,,,,
,,,,,,,,,,,,,FF,,,,,,,,0.5683,,,,,,,,,,,,,,,,,,,,,,60fe4775e9193e65f3742ed5,61037945e53483625331ac8c,2021-07-29_21h00.35.558,Simcolourproject_2stim_asymm_v5,2020.2.10,MacIntel,60,61025ae37ef11b136ea224fe,,,,,,,,,2692,38.48950195,71.30059814,1,0,0,response1disk,,7,-2.693359375,3.312561035,1,0,0,rectangle,-2.693359375,3.312561035,1,0,0,-2.693359375,3.312561035,1,0,0,0,154,154,41,1,,,,,,,,
,,,,,,,,,,,,,FF,,,,,,,,0.5373,,,,,,,,,,,,,,,,,,,,,,60fe4775e9193e65f3742ed5,61037945e53483625331ac8c,2021-07-29_21h00.35.558,Simcolourproject_2stim_asymm_v5,2020.2.10,MacIntel,60,61025ae37ef11b136ea224fe,,,,,,,,,3768,34.38024902,52.86303711,1,0,0,response1disk,,7,0.555847168,-8.359985352,1,0,0,rectangle,0.555847168,-8.359985352,1,0,0,0.555847168,-8.359985352,1,0,0,0,155,155,14,1,,,,,,,,
,,,,,,,,,,,,,FF,,,,,,,,0.8063,,,,,,,,,,,,,,,,,,,,,,60fe4775e9193e65f3742ed5,61037945e53483625331ac8c,2021-07-29_21h00.35.558,Simcolourproject_2stim_asymm_v5,2020.2.10,MacIntel,60,61025ae37ef11b136ea224fe,,,,,,,,,1765,-72.52178955,-42.40594482,1,0,0,response5disk,,2,-11.06433105,-3.652648926,1,0,0,rectangle,-11.06433105,-3.652648926,1,0,0,-11.06433105,-3.652648926,1,0,0,0,156,156,131,1,,,,,,,,
,,,,,,,,,,,,,FF,,,,,,,,0.553,,,,,,,,,,,,,,,,,,,,,,60fe4775e9193e65f3742ed5,61037945e53483625331ac8c,2021-07-29_21h00.35.558,Simcolourproject_2stim_asymm_v5,2020.2.10,MacIntel,60,61025ae37ef11b136ea224fe,,,,,,,,,1728,38.06201172,67.84533691,1,0,0,response1disk,,7,2.317138672,13.1796875,1,0,0,rectangle,2.317138672,13.1796875,1,0,0,2.317138672,13.1796875,1,0,0,0,157,157,23,1,,,,,,,,
,,,,,,,,,,,,,FF,,,,,,,,0.639,,,,,,,,,,,,,,,,,,,,,,60fe4775e9193e65f3742ed5,61037945e53483625331ac8c,2021-07-29_21h00.35.558,Simcolourproject_2stim_asymm_v5,2020.2.10,MacIntel,60,61025ae37ef11b136ea224fe,,,,,,,,,1375,-48.36566162,-65.11993408,1,0,0,response5disk,,3,-3.809753418,19.45715332,1,0,0,rectangle,75.65344238,-34.15405273,1,0,0,14.04803467,-9.64074707,1,0,0,0,158,158,133,1,,response3disk_3,TRUE,5,5,"[300,142,240,159,67,41,189,139,48,269,242,237,105,212,259,70,57,163,246,123]",1.3835,rectangle
,,,,,,,,,,,,,FF,,,,,,,,1.1066,,,,,,,,,,,,,,,,,,,,,,60fe4775e9193e65f3742ed5,61037945e53483625331ac8c,2021-07-29_21h00.35.558,Simcolourproject_2stim_asymm_v5,2020.2.10,MacIntel,60,61025ae37ef11b136ea224fe,,,,,,,,,3780,-91.42852783,47.0423584,1,0,0,response7disk,,1,-12.17095947,-7.525634766,1,0,0,rectangle,-12.17095947,-7.525634766,1,0,0,-12.17095947,-7.525634766,1,0,0,0,159,159,126,1,,,,,,,,
,,,,,,,,,,,,,FF,,,,,,,,0.5575,,,,,,,,,,,,,,,,,,,,,,60fe4775e9193e65f3742ed5,61037945e53483625331ac8c,2021-07-29_21h00.35.558,Simcolourproject_2stim_asymm_v5,2020.2.10,MacIntel,60,61025ae37ef11b136ea224fe,,,,,,,,,2328,26.15722656,50.837677,1,0,0,response1disk,,7,-3.387145996,1.288574219,1,0,0,rectangle,-3.387145996,1.288574219,1,0,0,-3.387145996,1.288574219,1,0,0,1,0,160,138,1,,,,,,,,
,,,,,,,,,,,,,FF,,,,,,,,0.772,,,,,,,,,,,,,,,,,,,,,,60fe4775e9193e65f3742ed5,61037945e53483625331ac8c,2021-07-29_21h00.35.558,Simcolourproject_2stim_asymm_v5,2020.2.10,MacIntel,60,61025ae37ef11b136ea224fe,,,,,,,,,2733,-63.16607666,-29.48815918,1,0,0,response5disk,,2,-2.525817871,-3.300170898,1,0,0,rectangle,-2.525817871,-3.300170898,1,0,0,-2.525817871,-3.300170898,1,0,0,1,1,161,139,1,,,,,,,,
,,,,,,,,,,,,,FF,,,,,,,,0.4879,,,,,,,,,,,,,,,,,,,,,,60fe4775e9193e65f3742ed5,61037945e53483625331ac8c,2021-07-29_21h00.35.558,Simcolourproject_2stim_asymm_v5,2020.2.10,MacIntel,60,61025ae37ef11b136ea224fe,,,,,,,,,3120,32.46234131,51.65179443,1,0,0,response1disk,,7,2.116760254,-19.81158447,1,0,0,rectangle,37.71673584,-76.63049316,1,0,0,14.0645752,-9.440795898,1,0,0,1,2,162,31,1,,response3disk_3,TRUE,4,4,"[300,142,240,159,67,41,189,139,48,269,242,237,105,212,259,70,57,163,246,123]",1.3032,rectangle
,,,,,,,,,,,,,FF,,,,,,,,0.6056,,,,,,,,,,,,,,,,,,,,,,60fe4775e9193e65f3742ed5,61037945e53483625331ac8c,2021-07-29_21h00.35.558,Simcolourproject_2stim_asymm_v5,2020.2.10,MacIntel,60,61025ae37ef11b136ea224fe,,,,,,,,,1404,43.07250977,61.63641357,1,0,0,response1disk,,7,8.42364502,7.147705078,1,0,0,rectangle,8.42364502,7.147705078,1,0,0,8.42364502,7.147705078,1,0,0,1,3,163,127,1,,,,,,,,
,,,,,,,,,,,,,FF,,,,,,,,0.5707,,,,,,,,,,,,,,,,,,,,,,60fe4775e9193e65f3742ed5,61037945e53483625331ac8c,2021-07-29_21h00.35.558,Simcolourproject_2stim_asymm_v5,2020.2.10,MacIntel,60,61025ae37ef11b136ea224fe,,,,,,,,,626,22.85009766,49.16549683,1,0,0,response1disk,,7,-1.979919434,10.46911621,1,0,0,rectangle,-1.979919434,10.46911621,1,0,0,-1.979919434,10.46911621,1,0,0,1,4,164,52,1,,,,,,,,
,,,,,,,,,,,,,FF,,,,,,,,0.75,,,,,,,,,,,,,,,,,,,,,,60fe4775e9193e65f3742ed5,61037945e53483625331ac8c,2021-07-29_21h00.35.558,Simcolourproject_2stim_asymm_v5,2020.2.10,MacIntel,60,61025ae37ef11b136ea224fe,,,,,,,,,2231,-74.44299316,45.20269775,1,0,0,response7disk,,1,18.66723633,6.606567383,1,0,0,rectangle,18.66723633,6.606567383,1,0,0,18.66723633,6.606567383,1,0,0,1,5,165,123,1,,,,,,,,
,,,,,,,,,,,,,FF,,,,,,,,0.7064,,,,,,,,,,,,,,,,,,,,,,60fe4775e9193e65f3742ed5,61037945e53483625331ac8c,2021-07-29_21h00.35.558,Simcolourproject_2stim_asymm_v5,2020.2.10,MacIntel,60,61025ae37ef11b136ea224fe,,,,,,,,,2789,-70.15112305,-28.41693115,1,0,0,response5disk,,2,-5.562988281,-3.278442383,1,0,0,rectangle,-5.562988281,-3.278442383,1,0,0,-5.562988281,-3.278442383,1,0,0,1,6,166,57,1,,,,,,,,
,,,,,,,,,,,,,FF,,,,,,,,0.4878,,,,,,,,,,,,,,,,,,,,,,60fe4775e9193e65f3742ed5,61037945e53483625331ac8c,2021-07-29_21h00.35.558,Simcolourproject_2stim_asymm_v5,2020.2.10,MacIntel,60,61025ae37ef11b136ea224fe,,,,,,,,,2635,24.87469482,42.33825684,1,0,0,response1disk,,7,-4.471801758,-20.46118164,1,0,0,rectangle,-4.471801758,-20.46118164,1,0,0,-4.471801758,-20.46118164,1,0,0,1,7,167,78,1,,,,,,,,
,,,,,,,,,,,,,FF,,,,,,,,0.8672,,,,,,,,,,,,,,,,,,,,,,60fe4775e9193e65f3742ed5,61037945e53483625331ac8c,2021-07-29_21h00.35.558,Simcolourproject_2stim_asymm_v5,2020.2.10,MacIntel,60,61025ae37ef11b136ea224fe,,,,,,,,,1506,31.81121826,51.62030029,1,0,0,response1disk,,7,11.55444336,17.39599609,1,0,0,rectangle,11.55444336,17.39599609,1,0,0,11.55444336,17.39599609,1,0,0,1,8,168,0,1,,,,,,,,
,,,,,,,,,,,,,FF,,,,,,,,0.8884,,,,,,,,,,,,,,,,,,,,,,60fe4775e9193e65f3742ed5,61037945e53483625331ac8c,2021-07-29_21h00.35.558,Simcolourproject_2stim_asymm_v5,2020.2.10,MacIntel,60,61025ae37ef11b136ea224fe,,,,,,,,,721,-79.64630127,-45.31433105,1,0,0,response5disk,,2,3.897766113,-6.780944824,1,0,0,rectangle,3.897766113,-6.780944824,1,0,0,3.897766113,-6.780944824,1,0,0,1,9,169,72,1,,,,,,,,
,,,,,,,,,,,,,FF,,,,,,,,0.518,,,,,,,,,,,,,,,,,,,,,,60fe4775e9193e65f3742ed5,61037945e53483625331ac8c,2021-07-29_21h00.35.558,Simcolourproject_2stim_asymm_v5,2020.2.10,MacIntel,60,61025ae37ef11b136ea224fe,,,,,,,,,1465,27.13562012,49.02844238,1,0,0,response1disk,,7,7.504699707,4.29699707,1,0,0,rectangle,7.504699707,4.29699707,1,0,0,7.504699707,4.29699707,1,0,0,1,10,170,103,1,,,,,,,,
,,,,,,,,,,,,,FF,,,,,,,,0.5992,,,,,,,,,,,,,,,,,,,,,,60fe4775e9193e65f3742ed5,61037945e53483625331ac8c,2021-07-29_21h00.35.558,Simcolourproject_2stim_asymm_v5,2020.2.10,MacIntel,60,61025ae37ef11b136ea224fe,,,,,,,,,2039,-57.96630859,28.49920654,1,0,0,response7disk,,1,6.548095703,3.989746094,1,0,0,rectangle,6.548095703,3.989746094,1,0,0,6.548095703,3.989746094,1,0,0,1,11,171,99,1,,,,,,,,
,,,,,,,,,,,,,FF,,,,,,,,0.5903,,,,,,,,,,,,,,,,,,,,,,60fe4775e9193e65f3742ed5,61037945e53483625331ac8c,2021-07-29_21h00.35.558,Simcolourproject_2stim_asymm_v5,2020.2.10,MacIntel,60,61025ae37ef11b136ea224fe,,,,,,,,,4204,-70.53967285,27.11010742,1,0,0,response7disk,,1,-0.519897461,13.30929565,1,0,0,rectangle,-0.519897461,13.30929565,1,0,0,-0.519897461,13.30929565,1,0,0,1,12,172,13,1,,,,,,,,
,,,,,,,,,,,,,FF,,,,,,,,0.6388,,,,,,,,,,,,,,,,,,,,,,60fe4775e9193e65f3742ed5,61037945e53483625331ac8c,2021-07-29_21h00.35.558,Simcolourproject_2stim_asymm_v5,2020.2.10,MacIntel,60,61025ae37ef11b136ea224fe,,,,,,,,,711,20.84527588,52.04748535,1,0,0,response1disk,,7,3.319030762,11.58758545,1,0,0,rectangle,3.319030762,11.58758545,1,0,0,3.319030762,11.58758545,1,0,0,1,13,173,124,1,,,,,,,,
,,,,,,,,,,,,,FF,,,,,,,,0.6893,,,,,,,,,,,,,,,,,,,,,,60fe4775e9193e65f3742ed5,61037945e53483625331ac8c,2021-07-29_21h00.35.558,Simcolourproject_2stim_asymm_v5,2020.2.10,MacIntel,60,61025ae37ef11b136ea224fe,,,,,,,,,236,26.27490234,55.77978516,1,0,0,response1disk,,7,1.531311035,0.48828125,1,0,0,rectangle,1.531311035,0.48828125,1,0,0,1.531311035,0.48828125,1,0,0,1,14,174,119,1,,,,,,,,
,,,,,,,,,,,,,FF,,,,,,,,0.5364,,,,,,,,,,,,,,,,,,,,,,60fe4775e9193e65f3742ed5,61037945e53483625331ac8c,2021-07-29_21h00.35.558,Simcolourproject_2stim_asymm_v5,2020.2.10,MacIntel,60,61025ae37ef11b136ea224fe,,,,,,,,,1656,38.47418213,57.94488525,1,0,0,response1disk,,7,-1.882568359,1.848876953,1,0,0,rectangle,-1.882568359,1.848876953,1,0,0,-1.882568359,1.848876953,1,0,0,1,15,175,140,1,,,,,,,,
,,,,,,,,,,,,,FF,,,,,,,,0.8353,,,,,,,,,,,,,,,,,,,,,,60fe4775e9193e65f3742ed5,61037945e53483625331ac8c,2021-07-29_21h00.35.558,Simcolourproject_2stim_asymm_v5,2020.2.10,MacIntel,60,61025ae37ef11b136ea224fe,,,,,,,,,2788,-63.20336914,26.03460693,1,0,0,response7disk,,1,-15.67498779,-15.28674316,1,0,0,rectangle,-15.67498779,-15.28674316,1,0,0,-15.67498779,-15.28674316,1,0,0,1,16,176,91,1,,,,,,,,
,,,,,,,,,,,,,FF,,,,,,,,0.5537,,,,,,,,,,,,,,,,,,,,,,60fe4775e9193e65f3742ed5,61037945e53483625331ac8c,2021-07-29_21h00.35.558,Simcolourproject_2stim_asymm_v5,2020.2.10,MacIntel,60,61025ae37ef11b136ea224fe,,,,,,,,,321,18.42492676,46.37005615,1,0,0,response1disk,,7,2.475891113,7.559448242,1,0,0,rectangle,2.475891113,7.559448242,1,0,0,2.475891113,7.559448242,1,0,0,1,17,177,59,1,,,,,,,,
,,,,,,,,,,,,,FF,,,,,,,,0.6051,,,,,,,,,,,,,,,,,,,,,,60fe4775e9193e65f3742ed5,61037945e53483625331ac8c,2021-07-29_21h00.35.558,Simcolourproject_2stim_asymm_v5,2020.2.10,MacIntel,60,61025ae37ef11b136ea224fe,,,,,,,,,3235,-63.79058838,20.00720215,1,0,0,response7disk,,1,2.148620605,-2.438171387,1,0,0,rectangle,2.148620605,-2.438171387,1,0,0,2.148620605,-2.438171387,1,0,0,1,18,178,22,1,,,,,,,,
,,,,,,,,,,,,,FF,,,,,,,,0.8373,,,,,,,,,,,,,,,,,,,,,,60fe4775e9193e65f3742ed5,61037945e53483625331ac8c,2021-07-29_21h00.35.558,Simcolourproject_2stim_asymm_v5,2020.2.10,MacIntel,60,61025ae37ef11b136ea224fe,,,,,,,,,645,-75.77282715,30.87365723,1,0,0,response7disk,,1,-17.11004639,5.760498047,1,0,0,rectangle,-17.11004639,5.760498047,1,0,0,-17.11004639,5.760498047,1,0,0,1,19,179,35,1,,,,,,,,
,,,,,,,,,,,,,FF,,,,,,,,0.5739,,,,,,,,,,,,,,,,,,,,,,60fe4775e9193e65f3742ed5,61037945e53483625331ac8c,2021-07-29_21h00.35.558,Simcolourproject_2stim_asymm_v5,2020.2.10,MacIntel,60,61025ae37ef11b136ea224fe,,,,,,,,,1855,26.9385376,61.95370483,1,0,0,response1disk,,7,11.34429932,-9.23260498,1,0,0,rectangle,11.34429932,-9.23260498,1,0,0,11.34429932,-9.23260498,1,0,0,1,20,180,80,1,,,,,,,,
,,,,,,,,,,,,,FF,,,,,,,,0.5376,,,,,,,,,,,,,,,,,,,,,,60fe4775e9193e65f3742ed5,61037945e53483625331ac8c,2021-07-29_21h00.35.558,Simcolourproject_2stim_asymm_v5,2020.2.10,MacIntel,60,61025ae37ef11b136ea224fe,,,,,,,,,393,51.55322266,47.67407227,1,0,0,response1disk,,6,5.381164551,-8.358215332,1,0,0,rectangle,5.381164551,-8.358215332,1,0,0,5.381164551,-8.358215332,1,0,0,1,21,181,75,1,,,,,,,,
,,,,,,,,,,,,,FF,,,,,,,,0.5879,,,,,,,,,,,,,,,,,,,,,,60fe4775e9193e65f3742ed5,61037945e53483625331ac8c,2021-07-29_21h00.35.558,Simcolourproject_2stim_asymm_v5,2020.2.10,MacIntel,60,61025ae37ef11b136ea224fe,,,,,,,,,571,38.7857666,63.0100708,1,0,0,response1disk,,7,13.53479004,6.949890137,1,0,0,rectangle,13.53479004,6.949890137,1,0,0,13.53479004,6.949890137,1,0,0,1,22,182,11,1,,,,,,,,
,,,,,,,,,,,,,FF,,,,,,,,0.5886,,,,,,,,,,,,,,,,,,,,,,60fe4775e9193e65f3742ed5,61037945e53483625331ac8c,2021-07-29_21h00.35.558,Simcolourproject_2stim_asymm_v5,2020.2.10,MacIntel,60,61025ae37ef11b136ea224fe,,,,,,,,,1073,32.53186035,52.144104,1,0,0,response1disk,,7,10.41082764,1.911254883,1,0,0,rectangle,10.41082764,1.911254883,1,0,0,10.41082764,1.911254883,1,0,0,1,23,183,46,1,,,,,,,,
,,,,,,,,,,,,,FF,,,,,,,,0.4875,,,,,,,,,,,,,,,,,,,,,,60fe4775e9193e65f3742ed5,61037945e53483625331ac8c,2021-07-29_21h00.35.558,Simcolourproject_2stim_asymm_v5,2020.2.10,MacIntel,60,61025ae37ef11b136ea224fe,,,,,,,,,4226,48.49755859,52.43060303,1,0,0,response1disk,,7,12.20324707,9.891845703,1,0,0,rectangle,12.20324707,9.891845703,1,0,0,12.20324707,9.891845703,1,0,0,1,24,184,107,1,,,,,,,,
,,,,,,,,,,,,,FF,,,,,,,,0.7035,,,,,,,,,,,,,,,,,,,,,,60fe4775e9193e65f3742ed5,61037945e53483625331ac8c,2021-07-29_21h00.35.558,Simcolourproject_2stim_asymm_v5,2020.2.10,MacIntel,60,61025ae37ef11b136ea224fe,,,,,,,,,355,-66.46972656,32.22583008,1,0,0,response7disk,,1,37.33044434,3.091186523,1,0,0,rectangle,37.33044434,3.091186523,1,0,0,37.33044434,3.091186523,1,0,0,1,25,185,122,1,,,,,,,,
,,,,,,,,,,,,,FF,,,,,,,,0.639,,,,,,,,,,,,,,,,,,,,,,60fe4775e9193e65f3742ed5,61037945e53483625331ac8c,2021-07-29_21h00.35.558,Simcolourproject_2stim_asymm_v5,2020.2.10,MacIntel,60,61025ae37ef11b136ea224fe,,,,,,,,,1748,-49.30151367,28.88922119,1,0,0,response7disk,,1,3.080810547,16.36404419,1,0,0,rectangle,3.080810547,16.36404419,1,0,0,3.080810547,16.36404419,1,0,0,1,26,186,49,1,,,,,,,,
,,,,,,,,,,,,,FF,,,,,,,,0.5382,,,,,,,,,,,,,,,,,,,,,,60fe4775e9193e65f3742ed5,61037945e53483625331ac8c,2021-07-29_21h00.35.558,Simcolourproject_2stim_asymm_v5,2020.2.10,MacIntel,60,61025ae37ef11b136ea224fe,,,,,,,,,311,24.04290771,53.53100586,1,0,0,response1disk,,7,3.782775879,11.67456055,1,0,0,rectangle,3.782775879,11.67456055,1,0,0,3.782775879,11.67456055,1,0,0,1,27,187,117,1,,,,,,,,
,,,,,,,,,,,,,FF,,,,,,,,0.6878,,,,,,,,,,,,,,,,,,,,,,60fe4775e9193e65f3742ed5,61037945e53483625331ac8c,2021-07-29_21h00.35.558,Simcolourproject_2stim_asymm_v5,2020.2.10,MacIntel,60,61025ae37ef11b136ea224fe,,,,,,,,,1863,37.03222656,59.87640381,1,0,0,response1disk,,7,17.12365723,3.01385498,1,0,0,rectangle,88.96166992,-34.33135986,1,0,0,16.85784912,-18.44903564,1,0,0,1,28,188,23,1,,response3disk_3,TRUE,5,5,"[300,142,240,159,67,41,189,139,48,269,242,237,105,212,259,70,57,163,246,123]",1.3451,rectangle
,,,,,,,,,,,,,FF,,,,,,,,0.9106,,,,,,,,,,,,,,,,,,,,,,60fe4775e9193e65f3742ed5,61037945e53483625331ac8c,2021-07-29_21h00.35.558,Simcolourproject_2stim_asymm_v5,2020.2.10,MacIntel,60,61025ae37ef11b136ea224fe,,,,,,,,,3776,-48.67779541,28.70233154,1,0,0,response7disk,,1,6.086303711,-2.057678223,1,0,0,rectangle,6.086303711,-2.057678223,1,0,0,6.086303711,-2.057678223,1,0,0,1,29,189,4,1,,,,,,,,
,,,,,,,,,,,,,FF,,,,,,,,0.8222,,,,,,,,,,,,,,,,,,,,,,60fe4775e9193e65f3742ed5,61037945e53483625331ac8c,2021-07-29_21h00.35.558,Simcolourproject_2stim_asymm_v5,2020.2.10,MacIntel,60,61025ae37ef11b136ea224fe,,,,,,,,,2491,23.85827637,53.60488892,1,0,0,response1disk,,7,-5.062683105,6.962768555,1,0,0,rectangle,-5.062683105,6.962768555,1,0,0,-5.062683105,6.962768555,1,0,0,1,30,190,66,1,,,,,,,,
,,,,,,,,,,,,,FF,,,,,,,,0.5514,,,,,,,,,,,,,,,,,,,,,,60fe4775e9193e65f3742ed5,61037945e53483625331ac8c,2021-07-29_21h00.35.558,Simcolourproject_2stim_asymm_v5,2020.2.10,MacIntel,60,61025ae37ef11b136ea224fe,,,,,,,,,2780,-70.1729126,23.63446045,1,0,0,response7disk,,1,11.21679688,8.071899414,1,0,0,rectangle,11.21679688,8.071899414,1,0,0,11.21679688,8.071899414,1,0,0,1,31,191,77,1,,,,,,,,
,,,,,,,,,,,,,FF,,,,,,,,0.9412,,,,,,,,,,,,,,,,,,,,,,60fe4775e9193e65f3742ed5,61037945e53483625331ac8c,2021-07-29_21h00.35.558,Simcolourproject_2stim_asymm_v5,2020.2.10,MacIntel,60,61025ae37ef11b136ea224fe,,,,,,,,,165,-65.60858154,32.44232178,1,0,0,response7disk,,1,-15.27935791,-20.38562012,1,0,0,rectangle,-15.27935791,-20.38562012,1,0,0,-15.27935791,-20.38562012,1,0,0,1,32,192,147,1,,,,,,,,
,,,,,,,,,,,,,FF,,,,,,,,0.6028,,,,,,,,,,,,,,,,,,,,,,60fe4775e9193e65f3742ed5,61037945e53483625331ac8c,2021-07-29_21h00.35.558,Simcolourproject_2stim_asymm_v5,2020.2.10,MacIntel,60,61025ae37ef11b136ea224fe,,,,,,,,,21,47.97161865,37.27813721,1,0,0,response1disk,,6,-0.778259277,-6.425537109,1,0,0,rectangle,-0.778259277,-6.425537109,1,0,0,-0.778259277,-6.425537109,1,0,0,1,33,193,109,1,,,,,,,,
,,,,,,,,,,,,,FF,,,,,,,,0.5529,,,,,,,,,,,,,,,,,,,,,,60fe4775e9193e65f3742ed5,61037945e53483625331ac8c,2021-07-29_21h00.35.558,Simcolourproject_2stim_asymm_v5,2020.2.10,MacIntel,60,61025ae37ef11b136ea224fe,,,,,,,,,2204,28.31140137,56.00082397,1,0,0,response1disk,,7,-2.44317627,-0.513061523,1,0,0,rectangle,-2.44317627,-0.513061523,1,0,0,-2.44317627,-0.513061523,1,0,0,1,34,194,67,1,,,,,,,,
,,,,,,,,,,,,,FF,,,,,,,,0.6204,,,,,,,,,,,,,,,,,,,,,,60fe4775e9193e65f3742ed5,61037945e53483625331ac8c,2021-07-29_21h00.35.558,Simcolourproject_2stim_asymm_v5,2020.2.10,MacIntel,60,61025ae37ef11b136ea224fe,,,,,,,,,418,-67.87438965,24.75360107,1,0,0,response7disk,,1,-7.166992188,10.86621094,1,0,0,rectangle,-7.166992188,10.86621094,1,0,0,-7.166992188,10.86621094,1,0,0,1,35,195,2,1,,,,,,,,
,,,,,,,,,,,,,FF,,,,,,,,0.5029,,,,,,,,,,,,,,,,,,,,,,60fe4775e9193e65f3742ed5,61037945e53483625331ac8c,2021-07-29_21h00.35.558,Simcolourproject_2stim_asymm_v5,2020.2.10,MacIntel,60,61025ae37ef11b136ea224fe,,,,,,,,,1847,28.29614258,37.79394531,1,0,0,response1disk,,7,3.27154541,0.60748291,1,0,0,rectangle,3.27154541,0.60748291,1,0,0,3.27154541,0.60748291,1,0,0,1,36,196,88,1,,,,,,,,
,,,,,,,,,,,,,FF,,,,,,,,0.7863,,,,,,,,,,,,,,,,,,,,,,60fe4775e9193e65f3742ed5,61037945e53483625331ac8c,2021-07-29_21h00.35.558,Simcolourproject_2stim_asymm_v5,2020.2.10,MacIntel,60,61025ae37ef11b136ea224fe,,,,,,,,,3432,-79.16766357,20.0111084,1,0,0,response7disk,,1,-9.873596191,5.424804688,1,0,0,rectangle,-9.873596191,5.424804688,1,0,0,-9.873596191,5.424804688,1,0,0,1,37,197,89,1,,,,,,,,
,,,,,,,,,,,,,FF,,,,,,,,0.5524,,,,,,,,,,,,,,,,,,,,,,60fe4775e9193e65f3742ed5,61037945e53483625331ac8c,2021-07-29_21h00.35.558,Simcolourproject_2stim_asymm_v5,2020.2.10,MacIntel,60,61025ae37ef11b136ea224fe,,,,,,,,,1596,-74.53979492,34.7298584,1,0,0,response7disk,,1,-7.661437988,12.56121826,1,0,0,rectangle,-7.661437988,12.56121826,1,0,0,-7.661437988,12.56121826,1,0,0,1,38,198,125,1,,,,,,,,
,,,,,,,,,,,,,FF,,,,,,,,0.5387,,,,,,,,,,,,,,,,,,,,,,60fe4775e9193e65f3742ed5,61037945e53483625331ac8c,2021-07-29_21h00.35.558,Simcolourproject_2stim_asymm_v5,2020.2.10,MacIntel,60,61025ae37ef11b136ea224fe,,,,,,,,,2659,24.22540283,45.9956665,1,0,0,response1disk,,7,1.029968262,5.485290527,1,0,0,rectangle,1.029968262,5.485290527,1,0,0,1.029968262,5.485290527,1,0,0,1,39,199,68,1,,,,,,,,
,,,,,,,,,,,,,FF,,,,,,,,0.9293,,,,,,,,,,,,,,,,,,,,,,60fe4775e9193e65f3742ed5,61037945e53483625331ac8c,2021-07-29_21h00.35.558,Simcolourproject_2stim_asymm_v5,2020.2.10,MacIntel,60,61025ae37ef11b136ea224fe,,,,,,,,,2029,-68.20697021,36.12493896,1,0,0,response7disk,,1,-7.058837891,8.056091309,1,0,0,rectangle,-7.058837891,8.056091309,1,0,0,-7.058837891,8.056091309,1,0,0,1,40,200,12,1,,,,,,,,
,,,,,,,,,,,,,FF,,,,,,,,0.5901,,,,,,,,,,,,,,,,,,,,,,60fe4775e9193e65f3742ed5,61037945e53483625331ac8c,2021-07-29_21h00.35.558,Simcolourproject_2stim_asymm_v5,2020.2.10,MacIntel,60,61025ae37ef11b136ea224fe,,,,,,,,,3140,-74.90509033,27.80450439,1,0,0,response7disk,,1,6.75567627,2.406982422,1,0,0,rectangle,6.75567627,2.406982422,1,0,0,6.75567627,2.406982422,1,0,0,1,41,201,40,1,,,,,,,,
,,,,,,,,,,,,,FF,,,,,,,,0.7057,,,,,,,,,,,,,,,,,,,,,,60fe4775e9193e65f3742ed5,61037945e53483625331ac8c,2021-07-29_21h00.35.558,Simcolourproject_2stim_asymm_v5,2020.2.10,MacIntel,60,61025ae37ef11b136ea224fe,,,,,,,,,1165,53.72619629,29.73352051,1,0,0,response1disk,,6,16.35943604,9.40411377,1,0,0,rectangle,16.35943604,9.40411377,1,0,0,16.35943604,9.40411377,1,0,0,1,42,202,29,1,,,,,,,,
,,,,,,,,,,,,,FF,,,,,,,,0.5205,,,,,,,,,,,,,,,,,,,,,,60fe4775e9193e65f3742ed5,61037945e53483625331ac8c,2021-07-29_21h00.35.558,Simcolourproject_2stim_asymm_v5,2020.2.10,MacIntel,60,61025ae37ef11b136ea224fe,,,,,,,,,3310,33.01525879,41.68139648,1,0,0,response1disk,,7,19.77874756,-8.646057129,1,0,0,rectangle,19.77874756,-8.646057129,1,0,0,19.77874756,-8.646057129,1,0,0,1,43,203,112,1,,,,,,,,
,,,,,,,,,,,,,FF,,,,,,,,0.5715,,,,,,,,,,,,,,,,,,,,,,60fe4775e9193e65f3742ed5,61037945e53483625331ac8c,2021-07-29_21h00.35.558,Simcolourproject_2stim_asymm_v5,2020.2.10,MacIntel,60,61025ae37ef11b136ea224fe,,,,,,,,,3411,31.65197754,37.95874023,1,0,0,response1disk,,7,8.858703613,-3.026611328,1,0,0,rectangle,8.858703613,-3.026611328,1,0,0,8.858703613,-3.026611328,1,0,0,1,44,204,6,1,,,,,,,,
,,,,,,,,,,,,,FF,,,,,,,,0.9794,,,,,,,,,,,,,,,,,,,,,,60fe4775e9193e65f3742ed5,61037945e53483625331ac8c,2021-07-29_21h00.35.558,Simcolourproject_2stim_asymm_v5,2020.2.10,MacIntel,60,61025ae37ef11b136ea224fe,,,,,,,,,2270,44.5357666,67.8036499,1,0,0,response1disk,,7,2.231140137,-11.57611084,1,0,0,rectangle,2.231140137,-11.57611084,1,0,0,2.231140137,-11.57611084,1,0,0,1,45,205,126,1,,,,,,,,
,,,,,,,,,,,,,FF,,,,,,,,0.554,,,,,,,,,,,,,,,,,,,,,,60fe4775e9193e65f3742ed5,61037945e53483625331ac8c,2021-07-29_21h00.35.558,Simcolourproject_2stim_asymm_v5,2020.2.10,MacIntel,60,61025ae37ef11b136ea224fe,,,,,,,,,1236,51.15228271,46.56604004,1,0,0,response1disk,,6,-1.204650879,-10.01263428,1,0,0,rectangle,-1.204650879,-10.01263428,1,0,0,-1.204650879,-10.01263428,1,0,0,1,46,206,18,1,,,,,,,,
,,,,,,,,,,,,,FF,,,,,,,,0.5879,,,,,,,,,,,,,,,,,,,,,,60fe4775e9193e65f3742ed5,61037945e53483625331ac8c,2021-07-29_21h00.35.558,Simcolourproject_2stim_asymm_v5,2020.2.10,MacIntel,60,61025ae37ef11b136ea224fe,,,,,,,,,4247,14.61590576,47.46203613,1,0,0,response1disk,,7,5.099487305,2.960144043,1,0,0,rectangle,5.099487305,2.960144043,1,0,0,5.099487305,2.960144043,1,0,0,1,47,207,85,1,,,,,,,,
,,,,,,,,,,,,,FF,,,,,,,,0.5532,,,,,,,,,,,,,,,,,,,,,,60fe4775e9193e65f3742ed5,61037945e53483625331ac8c,2021-07-29_21h00.35.558,Simcolourproject_2stim_asymm_v5,2020.2.10,MacIntel,60,61025ae37ef11b136ea224fe,,,,,,,,,2121,39.00860596,45.9486084,1,0,0,response1disk,,7,15.32092285,12.9197998,1,0,0,rectangle,15.32092285,12.9197998,1,0,0,15.32092285,12.9197998,1,0,0,1,48,208,156,1,,,,,,,,
,,,,,,,,,,,,,FF,,,,,,,,0.4357,,,,,,,,,,,,,,,,,,,,,,60fe4775e9193e65f3742ed5,61037945e53483625331ac8c,2021-07-29_21h00.35.558,Simcolourproject_2stim_asymm_v5,2020.2.10,MacIntel,60,61025ae37ef11b136ea224fe,,,,,,,,,852,37.7354126,51.63607788,1,0,0,response1disk,,7,19.67840576,0.238037109,1,0,0,rectangle,19.67840576,0.238037109,1,0,0,19.67840576,0.238037109,1,0,0,1,49,209,144,1,,,,,,,,
,,,,,,,,,,,,,FF,,,,,,,,0.4999,,,,,,,,,,,,,,,,,,,,,,60fe4775e9193e65f3742ed5,61037945e53483625331ac8c,2021-07-29_21h00.35.558,Simcolourproject_2stim_asymm_v5,2020.2.10,MacIntel,60,61025ae37ef11b136ea224fe,,,,,,,,,2065,27.49285889,43.98007202,1,0,0,response1disk,,7,12.74346924,-16.67523193,1,0,0,rectangle,12.74346924,-16.67523193,1,0,0,12.74346924,-16.67523193,1,0,0,1,50,210,115,1,,,,,,,,
,,,,,,,,,,,,,FF,,,,,,,,0.6708,,,,,,,,,,,,,,,,,,,,,,60fe4775e9193e65f3742ed5,61037945e53483625331ac8c,2021-07-29_21h00.35.558,Simcolourproject_2stim_asymm_v5,2020.2.10,MacIntel,60,61025ae37ef11b136ea224fe,,,,,,,,,1108,-87.34710693,14.4095459,1,0,0,response7disk,,1,-20.35162354,-1.581298828,1,0,0,rectangle,44.1685791,79.05337524,1,0,0,19.83306885,-10.2088623,1,0,0,1,51,211,51,1,,response1disk_3,TRUE,7,7,"[300,142,240,159,67,41,189,139,48,269,242,237,105,212,259,70,57,163,246,123]",1.2591,rectangle
,,,,,,,,,,,,,FF,,,,,,,,0.5704,,,,,,,,,,,,,,,,,,,,,,60fe4775e9193e65f3742ed5,61037945e53483625331ac8c,2021-07-29_21h00.35.558,Simcolourproject_2stim_asymm_v5,2020.2.10,MacIntel,60,61025ae37ef11b136ea224fe,,,,,,,,,450,46.59771729,45.99664307,1,0,0,response1disk,,6,10.9666748,-6.012451172,1,0,0,rectangle,10.9666748,-6.012451172,1,0,0,10.9666748,-6.012451172,1,0,0,1,52,212,104,1,,,,,,,,
,,,,,,,,,,,,,FF,,,,,,,,0.5036,,,,,,,,,,,,,,,,,,,,,,60fe4775e9193e65f3742ed5,61037945e53483625331ac8c,2021-07-29_21h00.35.558,Simcolourproject_2stim_asymm_v5,2020.2.10,MacIntel,60,61025ae37ef11b136ea224fe,,,,,,,,,2437,35.40240479,53.54858398,1,0,0,response1disk,,7,18.32672119,0.357727051,1,0,0,rectangle,18.32672119,0.357727051,1,0,0,18.32672119,0.357727051,1,0,0,1,53,213,151,1,,,,,,,,
,,,,,,,,,,,,,FF,,,,,,,,0.4506,,,,,,,,,,,,,,,,,,,,,,60fe4775e9193e65f3742ed5,61037945e53483625331ac8c,2021-07-29_21h00.35.558,Simcolourproject_2stim_asymm_v5,2020.2.10,MacIntel,60,61025ae37ef11b136ea224fe,,,,,,,,,4271,44.78991699,52.38641357,1,0,0,response1disk,,7,20.46594238,-6.875244141,1,0,0,rectangle,20.46594238,-6.875244141,1,0,0,20.46594238,-6.875244141,1,0,0,1,54,214,102,1,,,,,,,,
,,,,,,,,,,,,,FF,,,,,,,,0.4896,,,,,,,,,,,,,,,,,,,,,,60fe4775e9193e65f3742ed5,61037945e53483625331ac8c,2021-07-29_21h00.35.558,Simcolourproject_2stim_asymm_v5,2020.2.10,MacIntel,60,61025ae37ef11b136ea224fe,,,,,,,,,2642,35.21948242,41.31072998,1,0,0,response1disk,,7,13.53894043,-11.67956543,1,0,0,rectangle,13.53894043,-11.67956543,1,0,0,13.53894043,-11.67956543,1,0,0,1,55,215,83,1,,,,,,,,
,,,,,,,,,,,,,FF,,,,,,,,0.5682,,,,,,,,,,,,,,,,,,,,,,60fe4775e9193e65f3742ed5,61037945e53483625331ac8c,2021-07-29_21h00.35.558,Simcolourproject_2stim_asymm_v5,2020.2.10,MacIntel,60,61025ae37ef11b136ea224fe,,,,,,,,,2669,-64.44091797,27.56854248,1,0,0,response7disk,,1,-9.155822754,17.7668457,1,0,0,rectangle,-9.155822754,17.7668457,1,0,0,-9.155822754,17.7668457,1,0,0,1,56,216,16,1,,,,,,,,
,,,,,,,,,,,,,FF,,,,,,,,0.4354,,,,,,,,,,,,,,,,,,,,,,60fe4775e9193e65f3742ed5,61037945e53483625331ac8c,2021-07-29_21h00.35.558,Simcolourproject_2stim_asymm_v5,2020.2.10,MacIntel,60,61025ae37ef11b136ea224fe,,,,,,,,,3656,29.74377441,61.30438232,1,0,0,response1disk,,7,8.607666016,-7.379943848,1,0,0,rectangle,8.607666016,-7.379943848,1,0,0,8.607666016,-7.379943848,1,0,0,1,57,217,130,1,,,,,,,,
,,,,,,,,,,,,,FF,,,,,,,,0.6032,,,,,,,,,,,,,,,,,,,,,,60fe4775e9193e65f3742ed5,61037945e53483625331ac8c,2021-07-29_21h00.35.558,Simcolourproject_2stim_asymm_v5,2020.2.10,MacIntel,60,61025ae37ef11b136ea224fe,,,,,,,,,3609,20.67614746,31.08938599,1,0,0,response1disk,,7,11.42803955,5.254089355,1,0,0,rectangle,11.42803955,5.254089355,1,0,0,11.42803955,5.254089355,1,0,0,1,58,218,15,1,,,,,,,,
,,,,,,,,,,,,,FF,,,,,,,,0.6029,,,,,,,,,,,,,,,,,,,,,,60fe4775e9193e65f3742ed5,61037945e53483625331ac8c,2021-07-29_21h00.35.558,Simcolourproject_2stim_asymm_v5,2020.2.10,MacIntel,60,61025ae37ef11b136ea224fe,,,,,,,,,1833,-56.62213135,25.8034668,1,0,0,response7disk,,1,-4.285400391,9.236206055,1,0,0,rectangle,-4.285400391,9.236206055,1,0,0,-4.285400391,9.236206055,1,0,0,1,59,219,135,1,,,,,,,,
,,,,,,,,,,,,,FF,,,,,,,,0.9375,,,,,,,,,,,,,,,,,,,,,,60fe4775e9193e65f3742ed5,61037945e53483625331ac8c,2021-07-29_21h00.35.558,Simcolourproject_2stim_asymm_v5,2020.2.10,MacIntel,60,61025ae37ef11b136ea224fe,,,,,,,,,3160,-62.85845947,-40.65380859,1,0,0,response5disk,,2,-0.202575684,-2.451293945,1,0,0,rectangle,-0.202575684,-2.451293945,1,0,0,-0.202575684,-2.451293945,1,0,0,1,60,220,20,1,,,,,,,,
,,,,,,,,,,,,,FF,,,,,,,,0.6526,,,,,,,,,,,,,,,,,,,,,,60fe4775e9193e65f3742ed5,61037945e53483625331ac8c,2021-07-29_21h00.35.558,Simcolourproject_2stim_asymm_v5,2020.2.10,MacIntel,60,61025ae37ef11b136ea224fe,,,,,,,,,2665,-56.92529297,-41.15045166,1,0,0,response5disk,,2,10.83673096,17.05670166,1,0,0,rectangle,10.83673096,17.05670166,1,0,0,10.83673096,17.05670166,1,0,0,1,61,221,143,1,,,,,,,,
,,,,,,,,,,,,,FF,,,,,,,,0.6,,,,,,,,,,,,,,,,,,,,,,60fe4775e9193e65f3742ed5,61037945e53483625331ac8c,2021-07-29_21h00.35.558,Simcolourproject_2stim_asymm_v5,2020.2.10,MacIntel,60,61025ae37ef11b136ea224fe,,,,,,,,,1042,30.45336914,42.63916016,1,0,0,response1disk,,7,11.58093262,-14.20056152,1,0,0,rectangle,11.58093262,-14.20056152,1,0,0,11.58093262,-14.20056152,1,0,0,1,62,222,152,1,,,,,,,,
,,,,,,,,,,,,,FF,,,,,,,,0.518,,,,,,,,,,,,,,,,,,,,,,60fe4775e9193e65f3742ed5,61037945e53483625331ac8c,2021-07-29_21h00.35.558,Simcolourproject_2stim_asymm_v5,2020.2.10,MacIntel,60,61025ae37ef11b136ea224fe,,,,,,,,,332,33.47784424,41.37786865,1,0,0,response1disk,,7,16.95782471,6.411376953,1,0,0,rectangle,16.95782471,6.411376953,1,0,0,16.95782471,6.411376953,1,0,0,1,63,223,155,1,,,,,,,,
,,,,,,,,,,,,,FF,,,,,,,,0.5189,,,,,,,,,,,,,,,,,,,,,,60fe4775e9193e65f3742ed5,61037945e53483625331ac8c,2021-07-29_21h00.35.558,Simcolourproject_2stim_asymm_v5,2020.2.10,MacIntel,60,61025ae37ef11b136ea224fe,,,,,,,,,3028,34.14532471,46.13848877,1,0,0,response1disk,,7,24.32598877,1.475830078,1,0,0,rectangle,24.32598877,1.475830078,1,0,0,24.32598877,1.475830078,1,0,0,1,64,224,134,1,,,,,,,,
,,,,,,,,,,,,,FF,,,,,,,,0.5663,,,,,,,,,,,,,,,,,,,,,,60fe4775e9193e65f3742ed5,61037945e53483625331ac8c,2021-07-29_21h00.35.558,Simcolourproject_2stim_asymm_v5,2020.2.10,MacIntel,60,61025ae37ef11b136ea224fe,,,,,,,,,3897,29.61578369,30.51794434,1,0,0,response1disk,,7,1.332580566,6.634033203,1,0,0,rectangle,1.332580566,6.634033203,1,0,0,1.332580566,6.634033203,1,0,0,1,65,225,118,1,,,,,,,,
,,,,,,,,,,,,,FF,,,,,,,,0.8836,,,,,,,,,,,,,,,,,,,,,,60fe4775e9193e65f3742ed5,61037945e53483625331ac8c,2021-07-29_21h00.35.558,Simcolourproject_2stim_asymm_v5,2020.2.10,MacIntel,60,61025ae37ef11b136ea224fe,,,,,,,,,4252,-85.57861328,29.15570068,1,0,0,response7disk,,1,-7.388427734,5.662963867,1,0,0,rectangle,-7.388427734,5.662963867,1,0,0,-7.388427734,5.662963867,1,0,0,1,66,226,28,1,,,,,,,,
,,,,,,,,,,,,,FF,,,,,,,,0.9373,,,,,,,,,,,,,,,,,,,,,,60fe4775e9193e65f3742ed5,61037945e53483625331ac8c,2021-07-29_21h00.35.558,Simcolourproject_2stim_asymm_v5,2020.2.10,MacIntel,60,61025ae37ef11b136ea224fe,,,,,,,,,3237,-93.22888184,-22.38439941,1,0,0,response5disk,,2,-13.47570801,-16.41992188,1,0,0,rectangle,-13.47570801,-16.41992188,1,0,0,-13.47570801,-16.41992188,1,0,0,1,67,227,56,1,,,,,,,,
,,,,,,,,,,,,,FF,,,,,,,,0.901,,,,,,,,,,,,,,,,,,,,,,60fe4775e9193e65f3742ed5,61037945e53483625331ac8c,2021-07-29_21h00.35.558,Simcolourproject_2stim_asymm_v5,2020.2.10,MacIntel,60,61025ae37ef11b136ea224fe,,,,,,,,,3838,-75.36254883,-46.59106445,1,0,0,response5disk,,2,-5.533630371,-17.57366943,1,0,0,rectangle,-5.533630371,-17.57366943,1,0,0,-5.533630371,-17.57366943,1,0,0,1,68,228,154,1,,,,,,,,
,,,,,,,,,,,,,FF,,,,,,,,0.8386,,,,,,,,,,,,,,,,,,,,,,60fe4775e9193e65f3742ed5,61037945e53483625331ac8c,2021-07-29_21h00.35.558,Simcolourproject_2stim_asymm_v5,2020.2.10,MacIntel,60,61025ae37ef11b136ea224fe,,,,,,,,,2990,-41.72167969,-78.58239746,1,0,0,response5disk,,3,-6.514648438,-15.39141846,1,0,0,rectangle,-6.514648438,-15.39141846,1,0,0,-6.514648438,-15.39141846,1,0,0,1,69,229,86,1,,,,,,,,
,,,,,,,,,,,,,FF,,,,,,,,0.4883,,,,,,,,,,,,,,,,,,,,,,60fe4775e9193e65f3742ed5,61037945e53483625331ac8c,2021-07-29_21h00.35.558,Simcolourproject_2stim_asymm_v5,2020.2.10,MacIntel,60,61025ae37ef11b136ea224fe,,,,,,,,,2506,20.50531006,51.50369263,1,0,0,response1disk,,7,6.98223877,-6.079528809,1,0,0,rectangle,6.98223877,-6.079528809,1,0,0,6.98223877,-6.079528809,1,0,0,1,70,230,42,1,,,,,,,,
,,,,,,,,,,,,,FF,,,,,,,,1.0359,,,,,,,,,,,,,,,,,,,,,,60fe4775e9193e65f3742ed5,61037945e53483625331ac8c,2021-07-29_21h00.35.558,Simcolourproject_2stim_asymm_v5,2020.2.10,MacIntel,60,61025ae37ef11b136ea224fe,,,,,,,,,3954,33.46386719,-84.37207031,1,0,0,response3disk,,4,-0.610473633,-8.130004883,1,0,0,rectangle,-0.610473633,-8.130004883,1,0,0,-0.610473633,-8.130004883,1,0,0,1,71,231,69,1,,,,,,,,
,,,,,,,,,,,,,FF,,,,,,,,0.6679,,,,,,,,,,,,,,,,,,,,,,60fe4775e9193e65f3742ed5,61037945e53483625331ac8c,2021-07-29_21h00.35.558,Simcolourproject_2stim_asymm_v5,2020.2.10,MacIntel,60,61025ae37ef11b136ea224fe,,,,,,,,,3336,-72.95172119,34.36785889,1,0,0,response7disk,,1,-1.489013672,1.846679688,1,0,0,rectangle,-1.489013672,1.846679688,1,0,0,-1.489013672,1.846679688,1,0,0,1,72,232,108,1,,,,,,,,
,,,,,,,,,,,,,FF,,,,,,,,1.3744,,,,,,,,,,,,,,,,,,,,,,60fe4775e9193e65f3742ed5,61037945e53483625331ac8c,2021-07-29_21h00.35.558,Simcolourproject_2stim_asymm_v5,2020.2.10,MacIntel,60,61025ae37ef11b136ea224fe,,,,,,,,,2740,88.74023438,-48.20959473,1,0,0,response3disk,,5,-6.693908691,-9.072509766,1,0,0,rectangle,-6.693908691,-9.072509766,1,0,0,-6.693908691,-9.072509766,1,0,0,1,73,233,41,1,,,,,,,,
,,,,,,,,,,,,,FF,,,,,,,,0.6372,,,,,,,,,,,,,,,,,,,,,,60fe4775e9193e65f3742ed5,61037945e53483625331ac8c,2021-07-29_21h00.35.558,Simcolourproject_2stim_asymm_v5,2020.2.10,MacIntel,60,61025ae37ef11b136ea224fe,,,,,,,,,3128,25.84100342,62.5930481,1,0,0,response1disk,,7,-8.024353027,7.282043457,1,0,0,rectangle,-8.024353027,7.282043457,1,0,0,-8.024353027,7.282043457,1,0,0,1,74,234,120,1,,,,,,,,
,,,,,,,,,,,,,FF,,,,,,,,0.7031,,,,,,,,,,,,,,,,,,,,,,60fe4775e9193e65f3742ed5,61037945e53483625331ac8c,2021-07-29_21h00.35.558,Simcolourproject_2stim_asymm_v5,2020.2.10,MacIntel,60,61025ae37ef11b136ea224fe,,,,,,,,,533,-63.55303955,21.44549561,1,0,0,response7disk,,1,8.780456543,18.5546875,1,0,0,rectangle,8.780456543,18.5546875,1,0,0,8.780456543,18.5546875,1,0,0,1,75,235,1,1,,,,,,,,
,,,,,,,,,,,,,FF,,,,,,,,0.6543,,,,,,,,,,,,,,,,,,,,,,60fe4775e9193e65f3742ed5,61037945e53483625331ac8c,2021-07-29_21h00.35.558,Simcolourproject_2stim_asymm_v5,2020.2.10,MacIntel,60,61025ae37ef11b136ea224fe,,,,,,,,,907,-74.33270264,18.43994141,1,0,0,response7disk,,1,4.66204834,-5.446899414,1,0,0,rectangle,97.28887939,36.82128906,1,0,0,-1.781555176,0.797912598,1,0,0,1,76,236,19,1,,response1disk_3,TRUE,6,6,"[300,142,240,159,67,41,189,139,48,269,242,237,105,212,259,70,57,163,246,123]",1.4211,rectangle
,,,,,,,,,,,,,FF,,,,,,,,0.8573,,,,,,,,,,,,,,,,,,,,,,60fe4775e9193e65f3742ed5,61037945e53483625331ac8c,2021-07-29_21h00.35.558,Simcolourproject_2stim_asymm_v5,2020.2.10,MacIntel,60,61025ae37ef11b136ea224fe,,,,,,,,,1832,-91.19177246,26.71148682,1,0,0,response7disk,,1,-1.858886719,-3.799682617,1,0,0,rectangle,-1.858886719,-3.799682617,1,0,0,-1.858886719,-3.799682617,1,0,0,1,77,237,47,1,,,,,,,,
,,,,,,,,,,,,,FF,,,,,,,,0.7387,,,,,,,,,,,,,,,,,,,,,,60fe4775e9193e65f3742ed5,61037945e53483625331ac8c,2021-07-29_21h00.35.558,Simcolourproject_2stim_asymm_v5,2020.2.10,MacIntel,60,61025ae37ef11b136ea224fe,,,,,,,,,2933,-78.19177246,33.39959717,1,0,0,response7disk,,1,-3.383056641,5.637329102,1,0,0,rectangle,-3.383056641,5.637329102,1,0,0,-3.383056641,5.637329102,1,0,0,1,78,238,95,1,,,,,,,,
,,,,,,,,,,,,,FF,,,,,,,,0.7196,,,,,,,,,,,,,,,,,,,,,,60fe4775e9193e65f3742ed5,61037945e53483625331ac8c,2021-07-29_21h00.35.558,Simcolourproject_2stim_asymm_v5,2020.2.10,MacIntel,60,61025ae37ef11b136ea224fe,,,,,,,,,267,25.13439941,43.32672119,1,0,0,response1disk,,7,9.203186035,-0.733825684,1,0,0,rectangle,-49.39916992,65.15142822,1,0,0,-14.36633301,-2.570678711,1,0,0,1,79,239,105,1,,response7disk_3,TRUE,0,0,"[300,142,240,159,67,41,189,139,48,269,242,237,105,212,259,70,57,163,246,123]",1.499,rectangle
,,,,,,,,,,,,,FF,,,,,,,,0.6539,,,,,,,,,,,,,,,,,,,,,,60fe4775e9193e65f3742ed5,61037945e53483625331ac8c,2021-07-29_21h00.35.558,Simcolourproject_2stim_asymm_v5,2020.2.10,MacIntel,60,61025ae37ef11b136ea224fe,,,,,,,,,4344,-63.1204834,33.20788574,1,0,0,response7disk,,1,-16.61328125,20.80856323,1,0,0,rectangle,-16.61328125,20.80856323,1,0,0,-16.61328125,20.80856323,1,0,0,1,80,240,97,1,,,,,,,,
