key_resp.keys,key_resp.rt,key_resp_14.keys,key_resp_14.rt,key_resp_15.keys,key_resp_15.rt,key_resp_17.keys,key_resp_17.rt,key_resp_9.keys,key_resp_9.rt,key_resp_10.keys,key_resp_10.rt,practice_comparison,Ecc,mouse_5.x,mouse_5.y,mouse_5.leftButton,mouse_5.midButton,mouse_5.rightButton,mouse_5.clicked_name,pracsimilarity,response_time,mouse_10.x,mouse_10.y,mouse_10.leftButton,mouse_10.midButton,mouse_10.rightButton,mouse_10.clicked_name,mouse_7.x,mouse_7.y,mouse_7.leftButton,mouse_7.midButton,mouse_7.rightButton,mouse_6.x,mouse_6.y,mouse_6.leftButton,mouse_6.midButton,mouse_6.rightButton,duringprac.thisRepN,duringprac.thisTrialN,duringprac.thisN,duringprac.thisIndex,duringprac.ran,participant,session,date,expName,psychopyVersion,OS,frameRate,study_id,mouse_7.clicked_name,catchpracsimilarity,catch_response_time,catchnumberprac,catchtrialorderprac,mouse_6.clicked_name,key_resp_22.keys,key_resp_22.rt,realcomparison,mouse.x,mouse.y,mouse.leftButton,mouse.midButton,mouse.rightButton,mouse.clicked_name,Colour2,similarity,mouse_2.x,mouse_2.y,mouse_2.leftButton,mouse_2.midButton,mouse_2.rightButton,mouse_2.clicked_name,mouse_3.x,mouse_3.y,mouse_3.leftButton,mouse_3.midButton,mouse_3.rightButton,mouse_11.x,mouse_11.y,mouse_11.leftButton,mouse_11.midButton,mouse_11.rightButton,trials_2.thisRepN,trials_2.thisTrialN,trials_2.thisN,trials_2.thisIndex,trials_2.ran,Colour1,mouse_3.clicked_name,catchornah,catchsimilarity,catchnumber,catchtrialorder,catchRT,mouse_11.clicked_name
space,1.4026,space,19.1562,space,13.1821,space,4.8845,space,1.2009,space,4.5377,14,PF,-89.92626953,39.21240234,1,0,0,response7disk_5,1,8.0377,-4.845397949,-6.022155762,1,0,0,rectangle_8,-4.845397949,-6.022155762,1,0,0,-4.845397949,-6.022155762,1,0,0,0,0,0,4,1,60fed8cce19b6feaef94c4c5,61036fa68edf5797ea8d68ce,2021-07-29_23h22.09.036,Simcolourproject_2stim_asymm_v5,2020.2.10,MacIntel,60,61025ae37ef11b136ea224fe,,,,,,,,,,,,,,,,,,,,,,,,,,,,,,,,,,,,,,,,,,,,,,
,,,,,,,,,,,,7,PF,-95.93060303,57.54437256,1,0,0,response7disk_5,1,4.3815,15.40490723,10.58370972,1,0,0,rectangle_8,95.75769043,39.96966553,1,0,0,7.688232422,-9.958679199,1,0,0,0,1,1,6,1,60fed8cce19b6feaef94c4c5,61036fa68edf5797ea8d68ce,2021-07-29_23h22.09.036,Simcolourproject_2stim_asymm_v5,2020.2.10,MacIntel,60,61025ae37ef11b136ea224fe,response1disk_7,6,2.3665,6,"[2,5]",rectangle_4,,,,,,,,,,,,,,,,,,,,,,,,,,,,,,,,,,,,,,,,
,,,,,,,,,,,,73,FF,81.93969727,-20.41741943,1,0,0,response3disk_5,5,9.2661,9.371398926,0.382995605,1,0,0,rectangle_8,9.371398926,0.382995605,1,0,0,9.371398926,0.382995605,1,0,0,0,2,2,0,1,60fed8cce19b6feaef94c4c5,61036fa68edf5797ea8d68ce,2021-07-29_23h22.09.036,Simcolourproject_2stim_asymm_v5,2020.2.10,MacIntel,60,61025ae37ef11b136ea224fe,,,,,,,,,,,,,,,,,,,,,,,,,,,,,,,,,,,,,,,,,,,,,,
,,,,,,,,,,,,18,FF,-76.93371582,-48.98709106,1,0,0,response5disk_5,2,8.5016,-2.47644043,0.683013916,1,0,0,rectangle_8,-2.47644043,0.683013916,1,0,0,-2.47644043,0.683013916,1,0,0,0,3,3,3,1,60fed8cce19b6feaef94c4c5,61036fa68edf5797ea8d68ce,2021-07-29_23h22.09.036,Simcolourproject_2stim_asymm_v5,2020.2.10,MacIntel,60,61025ae37ef11b136ea224fe,,,,,,,,,,,,,,,,,,,,,,,,,,,,,,,,,,,,,,,,,,,,,,
,,,,,,,,,,,,19,PF,92.50805664,-35.63830566,1,0,0,response3disk_5,5,8.4006,10.66320801,-9.019989014,1,0,0,rectangle_8,93.40826416,34.94659424,1,0,0,10.46087646,-6.615936279,1,0,0,0,4,4,1,1,60fed8cce19b6feaef94c4c5,61036fa68edf5797ea8d68ce,2021-07-29_23h22.09.036,Simcolourproject_2stim_asymm_v5,2020.2.10,MacIntel,60,61025ae37ef11b136ea224fe,response1disk_7,6,2.1994,6,"[2,5]",rectangle_4,,,,,,,,,,,,,,,,,,,,,,,,,,,,,,,,,,,,,,,,
,,,,,,,,,,,,100,FF,28.35491943,-101.6542969,1,0,0,response3disk_5,4,4.652,3.801330566,11.43847656,1,0,0,rectangle_8,3.801330566,11.43847656,1,0,0,3.801330566,11.43847656,1,0,0,0,5,5,5,1,60fed8cce19b6feaef94c4c5,61036fa68edf5797ea8d68ce,2021-07-29_23h22.09.036,Simcolourproject_2stim_asymm_v5,2020.2.10,MacIntel,60,61025ae37ef11b136ea224fe,,,,,,,,,,,,,,,,,,,,,,,,,,,,,,,,,,,,,,,,,,,,,,
,,,,,,,,,,,,28,PF,42.22735596,-79.23626709,1,0,0,response3disk_5,4,5.6864,-0.340698242,1.880218506,1,0,0,rectangle_8,-0.340698242,1.880218506,1,0,0,-0.340698242,1.880218506,1,0,0,0,6,6,2,1,60fed8cce19b6feaef94c4c5,61036fa68edf5797ea8d68ce,2021-07-29_23h22.09.036,Simcolourproject_2stim_asymm_v5,2020.2.10,MacIntel,60,61025ae37ef11b136ea224fe,,,,,,,,,,,,,,,,,,,,,,,,,,,,,,,,,,,,,,,,,,,,,,
,,,,,,,,,,,,,FF,,,,,,,,5.5179,,,,,,,,,,,,,,,,,,,,,,60fed8cce19b6feaef94c4c5,61036fa68edf5797ea8d68ce,2021-07-29_23h22.09.036,Simcolourproject_2stim_asymm_v5,2020.2.10,MacIntel,60,61025ae37ef11b136ea224fe,,,,,,,space,3.2409,4211,42.08538818,81.53939819,1,0,0,response1disk,,7,4.957641602,-7.626953125,1,0,0,rectangle,4.957641602,-7.626953125,1,0,0,4.957641602,-7.626953125,1,0,0,0,0,0,79,1,,,,,,,,
,,,,,,,,,,,,,FF,,,,,,,,3.0505,,,,,,,,,,,,,,,,,,,,,,60fed8cce19b6feaef94c4c5,61036fa68edf5797ea8d68ce,2021-07-29_23h22.09.036,Simcolourproject_2stim_asymm_v5,2020.2.10,MacIntel,60,61025ae37ef11b136ea224fe,,,,,,,,,1742,21.61431885,59.4604187,1,0,0,response1disk,,7,6.736572266,-12.98059082,1,0,0,rectangle,6.736572266,-12.98059082,1,0,0,6.736572266,-12.98059082,1,0,0,0,1,1,90,1,,,,,,,,
,,,,,,,,,,,,,FF,,,,,,,,7.1647,,,,,,,,,,,,,,,,,,,,,,60fed8cce19b6feaef94c4c5,61036fa68edf5797ea8d68ce,2021-07-29_23h22.09.036,Simcolourproject_2stim_asymm_v5,2020.2.10,MacIntel,60,61025ae37ef11b136ea224fe,,,,,,,,,1715,54.27386475,81.8354187,1,0,0,response1disk,,7,-0.719360352,-0.857727051,1,0,0,rectangle,-0.719360352,-0.857727051,1,0,0,-0.719360352,-0.857727051,1,0,0,0,2,2,14,1,,,,,,,,
,,,,,,,,,,,,,FF,,,,,,,,2.8849,,,,,,,,,,,,,,,,,,,,,,60fed8cce19b6feaef94c4c5,61036fa68edf5797ea8d68ce,2021-07-29_23h22.09.036,Simcolourproject_2stim_asymm_v5,2020.2.10,MacIntel,60,61025ae37ef11b136ea224fe,,,,,,,,,3827,29.62390137,-82.26959229,1,0,0,response3disk,,4,6.357666016,0.31463623,1,0,0,rectangle,6.357666016,0.31463623,1,0,0,6.357666016,0.31463623,1,0,0,0,3,3,150,1,,,,,,,,
,,,,,,,,,,,,,FF,,,,,,,,2.0161,,,,,,,,,,,,,,,,,,,,,,60fed8cce19b6feaef94c4c5,61036fa68edf5797ea8d68ce,2021-07-29_23h22.09.036,Simcolourproject_2stim_asymm_v5,2020.2.10,MacIntel,60,61025ae37ef11b136ea224fe,,,,,,,,,2831,-38.20074463,119.956543,1,0,0,response7disk,,0,-2.195495605,-12.9515686,1,0,0,rectangle,-2.195495605,-12.9515686,1,0,0,-2.195495605,-12.9515686,1,0,0,0,4,4,101,1,,,,,,,,
,,,,,,,,,,,,,FF,,,,,,,,5.6028,,,,,,,,,,,,,,,,,,,,,,60fed8cce19b6feaef94c4c5,61036fa68edf5797ea8d68ce,2021-07-29_23h22.09.036,Simcolourproject_2stim_asymm_v5,2020.2.10,MacIntel,60,61025ae37ef11b136ea224fe,,,,,,,,,1820,46.85321045,-83.57971191,1,0,0,response3disk,,4,-8.161499023,-9.316253662,1,0,0,rectangle,-8.161499023,-9.316253662,1,0,0,-8.161499023,-9.316253662,1,0,0,0,5,5,42,1,,,,,,,,
,,,,,,,,,,,,,FF,,,,,,,,4.2666,,,,,,,,,,,,,,,,,,,,,,60fed8cce19b6feaef94c4c5,61036fa68edf5797ea8d68ce,2021-07-29_23h22.09.036,Simcolourproject_2stim_asymm_v5,2020.2.10,MacIntel,60,61025ae37ef11b136ea224fe,,,,,,,,,3613,39.63757324,-109.5779419,1,0,0,response3disk,,4,-2.044311523,8.17175293,1,0,0,rectangle,-2.044311523,8.17175293,1,0,0,-2.044311523,8.17175293,1,0,0,0,6,6,72,1,,,,,,,,
,,,,,,,,,,,,,FF,,,,,,,,1.8161,,,,,,,,,,,,,,,,,,,,,,60fed8cce19b6feaef94c4c5,61036fa68edf5797ea8d68ce,2021-07-29_23h22.09.036,Simcolourproject_2stim_asymm_v5,2020.2.10,MacIntel,60,61025ae37ef11b136ea224fe,,,,,,,,,3652,31.41674805,79.88378906,1,0,0,response1disk,,7,15.4317627,-13.74481201,1,0,0,rectangle,15.4317627,-13.74481201,1,0,0,15.4317627,-13.74481201,1,0,0,0,7,7,4,1,,,,,,,,
,,,,,,,,,,,,,FF,,,,,,,,2.3998,,,,,,,,,,,,,,,,,,,,,,60fed8cce19b6feaef94c4c5,61036fa68edf5797ea8d68ce,2021-07-29_23h22.09.036,Simcolourproject_2stim_asymm_v5,2020.2.10,MacIntel,60,61025ae37ef11b136ea224fe,,,,,,,,,1891,-79.2421875,-34.58758545,1,0,0,response5disk,,2,-9.658325195,-10.24737549,1,0,0,rectangle,-9.658325195,-10.24737549,1,0,0,-9.658325195,-10.24737549,1,0,0,0,8,8,126,1,,,,,,,,
,,,,,,,,,,,,,FF,,,,,,,,2.083,,,,,,,,,,,,,,,,,,,,,,60fed8cce19b6feaef94c4c5,61036fa68edf5797ea8d68ce,2021-07-29_23h22.09.036,Simcolourproject_2stim_asymm_v5,2020.2.10,MacIntel,60,61025ae37ef11b136ea224fe,,,,,,,,,3224,56.83459473,80.43200684,1,0,0,response1disk,,7,14.33435059,-10.74932861,1,0,0,rectangle,14.33435059,-10.74932861,1,0,0,14.33435059,-10.74932861,1,0,0,0,9,9,74,1,,,,,,,,
,,,,,,,,,,,,,FF,,,,,,,,4.1998,,,,,,,,,,,,,,,,,,,,,,60fed8cce19b6feaef94c4c5,61036fa68edf5797ea8d68ce,2021-07-29_23h22.09.036,Simcolourproject_2stim_asymm_v5,2020.2.10,MacIntel,60,61025ae37ef11b136ea224fe,,,,,,,,,3670,-75.56225586,-34.14874268,1,0,0,response5disk,,2,5.428466797,7.264221191,1,0,0,rectangle,5.428466797,7.264221191,1,0,0,5.428466797,7.264221191,1,0,0,0,10,10,69,1,,,,,,,,
,,,,,,,,,,,,,FF,,,,,,,,1.3009,,,,,,,,,,,,,,,,,,,,,,60fed8cce19b6feaef94c4c5,61036fa68edf5797ea8d68ce,2021-07-29_23h22.09.036,Simcolourproject_2stim_asymm_v5,2020.2.10,MacIntel,60,61025ae37ef11b136ea224fe,,,,,,,,,3475,-96.35998535,54.87524414,1,0,0,response7disk,,1,15.21520996,-15.91665649,1,0,0,rectangle,15.21520996,-15.91665649,1,0,0,15.21520996,-15.91665649,1,0,0,0,11,11,25,1,,,,,,,,
,,,,,,,,,,,,,FF,,,,,,,,1.8176,,,,,,,,,,,,,,,,,,,,,,60fed8cce19b6feaef94c4c5,61036fa68edf5797ea8d68ce,2021-07-29_23h22.09.036,Simcolourproject_2stim_asymm_v5,2020.2.10,MacIntel,60,61025ae37ef11b136ea224fe,,,,,,,,,413,35.79187012,112.9955139,1,0,0,response1disk,,7,-0.834350586,17.73608398,1,0,0,rectangle,-0.834350586,17.73608398,1,0,0,-0.834350586,17.73608398,1,0,0,0,12,12,47,1,,,,,,,,
,,,,,,,,,,,,,FF,,,,,,,,1.7994,,,,,,,,,,,,,,,,,,,,,,60fed8cce19b6feaef94c4c5,61036fa68edf5797ea8d68ce,2021-07-29_23h22.09.036,Simcolourproject_2stim_asymm_v5,2020.2.10,MacIntel,60,61025ae37ef11b136ea224fe,,,,,,,,,2586,32.01611328,64.07122803,1,0,0,response1disk,,7,14.60662842,-6.203948975,1,0,0,rectangle,14.60662842,-6.203948975,1,0,0,14.60662842,-6.203948975,1,0,0,0,13,13,109,1,,,,,,,,
,,,,,,,,,,,,,FF,,,,,,,,0.766,,,,,,,,,,,,,,,,,,,,,,60fed8cce19b6feaef94c4c5,61036fa68edf5797ea8d68ce,2021-07-29_23h22.09.036,Simcolourproject_2stim_asymm_v5,2020.2.10,MacIntel,60,61025ae37ef11b136ea224fe,,,,,,,,,2211,29.90661621,60.71032715,1,0,0,response1disk,,7,23.83947754,11.08514404,1,0,0,rectangle,23.83947754,11.08514404,1,0,0,23.83947754,11.08514404,1,0,0,0,14,14,64,1,,,,,,,,
,,,,,,,,,,,,,FF,,,,,,,,1.617,,,,,,,,,,,,,,,,,,,,,,60fed8cce19b6feaef94c4c5,61036fa68edf5797ea8d68ce,2021-07-29_23h22.09.036,Simcolourproject_2stim_asymm_v5,2020.2.10,MacIntel,60,61025ae37ef11b136ea224fe,,,,,,,,,882,39.90344238,59.55438232,1,0,0,response1disk,,7,23.38800049,-0.90234375,1,0,0,rectangle,23.38800049,-0.90234375,1,0,0,23.38800049,-0.90234375,1,0,0,0,15,15,66,1,,,,,,,,
,,,,,,,,,,,,,FF,,,,,,,,1.117,,,,,,,,,,,,,,,,,,,,,,60fed8cce19b6feaef94c4c5,61036fa68edf5797ea8d68ce,2021-07-29_23h22.09.036,Simcolourproject_2stim_asymm_v5,2020.2.10,MacIntel,60,61025ae37ef11b136ea224fe,,,,,,,,,2632,66.5425415,48.78015137,1,0,0,response1disk,,6,28.69042969,11.2277832,1,0,0,rectangle,28.69042969,11.2277832,1,0,0,28.69042969,11.2277832,1,0,0,0,16,16,12,1,,,,,,,,
,,,,,,,,,,,,,FF,,,,,,,,3.2533,,,,,,,,,,,,,,,,,,,,,,60fed8cce19b6feaef94c4c5,61036fa68edf5797ea8d68ce,2021-07-29_23h22.09.036,Simcolourproject_2stim_asymm_v5,2020.2.10,MacIntel,60,61025ae37ef11b136ea224fe,,,,,,,,,2853,64.81085205,50.59619141,1,0,0,response1disk,,6,0.18359375,1.767272949,1,0,0,rectangle,0.18359375,1.767272949,1,0,0,0.18359375,1.767272949,1,0,0,0,17,17,71,1,,,,,,,,
,,,,,,,,,,,,,FF,,,,,,,,0.8666,,,,,,,,,,,,,,,,,,,,,,60fed8cce19b6feaef94c4c5,61036fa68edf5797ea8d68ce,2021-07-29_23h22.09.036,Simcolourproject_2stim_asymm_v5,2020.2.10,MacIntel,60,61025ae37ef11b136ea224fe,,,,,,,,,3776,-50.62359619,85.59298706,1,0,0,response7disk,,0,-9.268432617,-8.440124512,1,0,0,rectangle,-9.268432617,-8.440124512,1,0,0,-9.268432617,-8.440124512,1,0,0,0,18,18,136,1,,,,,,,,
,,,,,,,,,,,,,FF,,,,,,,,2.4151,,,,,,,,,,,,,,,,,,,,,,60fed8cce19b6feaef94c4c5,61036fa68edf5797ea8d68ce,2021-07-29_23h22.09.036,Simcolourproject_2stim_asymm_v5,2020.2.10,MacIntel,60,61025ae37ef11b136ea224fe,,,,,,,,,857,73.22869873,54.1831665,1,0,0,response1disk,,6,11.94122314,12.49157715,1,0,0,rectangle,11.94122314,12.49157715,1,0,0,11.94122314,12.49157715,1,0,0,0,19,19,36,1,,,,,,,,
,,,,,,,,,,,,,FF,,,,,,,,1.4819,,,,,,,,,,,,,,,,,,,,,,60fed8cce19b6feaef94c4c5,61036fa68edf5797ea8d68ce,2021-07-29_23h22.09.036,Simcolourproject_2stim_asymm_v5,2020.2.10,MacIntel,60,61025ae37ef11b136ea224fe,,,,,,,,,4148,-35.35406494,-81.4609375,1,0,0,response5disk,,3,-5.951599121,5.497558594,1,0,0,rectangle,-5.951599121,5.497558594,1,0,0,-5.951599121,5.497558594,1,0,0,0,20,20,92,1,,,,,,,,
,,,,,,,,,,,,,FF,,,,,,,,2.9161,,,,,,,,,,,,,,,,,,,,,,60fed8cce19b6feaef94c4c5,61036fa68edf5797ea8d68ce,2021-07-29_23h22.09.036,Simcolourproject_2stim_asymm_v5,2020.2.10,MacIntel,60,61025ae37ef11b136ea224fe,,,,,,,,,196,30.11737061,-88.52319336,1,0,0,response3disk,,4,7.237426758,-7.091186523,1,0,0,rectangle,7.237426758,-7.091186523,1,0,0,7.237426758,-7.091186523,1,0,0,0,21,21,45,1,,,,,,,,
,,,,,,,,,,,,,FF,,,,,,,,1.4331,,,,,,,,,,,,,,,,,,,,,,60fed8cce19b6feaef94c4c5,61036fa68edf5797ea8d68ce,2021-07-29_23h22.09.036,Simcolourproject_2stim_asymm_v5,2020.2.10,MacIntel,60,61025ae37ef11b136ea224fe,,,,,,,,,4104,40.35040283,-58.08856201,1,0,0,response3disk,,4,0.991943359,10.9067688,1,0,0,rectangle,0.991943359,10.9067688,1,0,0,0.991943359,10.9067688,1,0,0,0,22,22,56,1,,,,,,,,
,,,,,,,,,,,,,FF,,,,,,,,1.1154,,,,,,,,,,,,,,,,,,,,,,60fed8cce19b6feaef94c4c5,61036fa68edf5797ea8d68ce,2021-07-29_23h22.09.036,Simcolourproject_2stim_asymm_v5,2020.2.10,MacIntel,60,61025ae37ef11b136ea224fe,,,,,,,,,521,29.79351807,57.69314575,1,0,0,response1disk,,7,13.50720215,-10.43505859,1,0,0,rectangle,13.50720215,-10.43505859,1,0,0,13.50720215,-10.43505859,1,0,0,0,23,23,37,1,,,,,,,,
,,,,,,,,,,,,,FF,,,,,,,,1.3999,,,,,,,,,,,,,,,,,,,,,,60fed8cce19b6feaef94c4c5,61036fa68edf5797ea8d68ce,2021-07-29_23h22.09.036,Simcolourproject_2stim_asymm_v5,2020.2.10,MacIntel,60,61025ae37ef11b136ea224fe,,,,,,,,,738,35.0368042,74.72253418,1,0,0,response1disk,,7,23.61096191,8.847351074,1,0,0,rectangle,23.61096191,8.847351074,1,0,0,23.61096191,8.847351074,1,0,0,0,24,24,83,1,,,,,,,,
,,,,,,,,,,,,,FF,,,,,,,,1.3996,,,,,,,,,,,,,,,,,,,,,,60fed8cce19b6feaef94c4c5,61036fa68edf5797ea8d68ce,2021-07-29_23h22.09.036,Simcolourproject_2stim_asymm_v5,2020.2.10,MacIntel,60,61025ae37ef11b136ea224fe,,,,,,,,,3910,50.5534668,-47.62585449,1,0,0,response3disk,,5,4.844787598,-16.58789063,1,0,0,rectangle,4.844787598,-16.58789063,1,0,0,4.844787598,-16.58789063,1,0,0,0,25,25,58,1,,,,,,,,
,,,,,,,,,,,,,FF,,,,,,,,1.299,,,,,,,,,,,,,,,,,,,,,,60fed8cce19b6feaef94c4c5,61036fa68edf5797ea8d68ce,2021-07-29_23h22.09.036,Simcolourproject_2stim_asymm_v5,2020.2.10,MacIntel,60,61025ae37ef11b136ea224fe,,,,,,,,,4035,30.30108643,104.5151062,1,0,0,response1disk,,7,24.20556641,6.698120117,1,0,0,rectangle,24.20556641,6.698120117,1,0,0,24.20556641,6.698120117,1,0,0,0,26,26,146,1,,,,,,,,
,,,,,,,,,,,,,FF,,,,,,,,1.967,,,,,,,,,,,,,,,,,,,,,,60fed8cce19b6feaef94c4c5,61036fa68edf5797ea8d68ce,2021-07-29_23h22.09.036,Simcolourproject_2stim_asymm_v5,2020.2.10,MacIntel,60,61025ae37ef11b136ea224fe,,,,,,,,,1682,-49.28778076,-89.05487061,1,0,0,response5disk,,3,3.82232666,-11.71612549,1,0,0,rectangle,3.82232666,-11.71612549,1,0,0,3.82232666,-11.71612549,1,0,0,0,27,27,122,1,,,,,,,,
,,,,,,,,,,,,,FF,,,,,,,,2.1497,,,,,,,,,,,,,,,,,,,,,,60fed8cce19b6feaef94c4c5,61036fa68edf5797ea8d68ce,2021-07-29_23h22.09.036,Simcolourproject_2stim_asymm_v5,2020.2.10,MacIntel,60,61025ae37ef11b136ea224fe,,,,,,,,,649,104.6413574,16.58685303,1,0,0,response1disk,,6,-7.741943359,-4.336730957,1,0,0,rectangle,-7.741943359,-4.336730957,1,0,0,-7.741943359,-4.336730957,1,0,0,0,28,28,38,1,,,,,,,,
,,,,,,,,,,,,,FF,,,,,,,,1.5164,,,,,,,,,,,,,,,,,,,,,,60fed8cce19b6feaef94c4c5,61036fa68edf5797ea8d68ce,2021-07-29_23h22.09.036,Simcolourproject_2stim_asymm_v5,2020.2.10,MacIntel,60,61025ae37ef11b136ea224fe,,,,,,,,,1375,30.31787109,-89.79211426,1,0,0,response3disk,,4,19.02526855,-8.843444824,1,0,0,rectangle,19.02526855,-8.843444824,1,0,0,19.02526855,-8.843444824,1,0,0,0,29,29,94,1,,,,,,,,
,,,,,,,,,,,,,FF,,,,,,,,1.2834,,,,,,,,,,,,,,,,,,,,,,60fed8cce19b6feaef94c4c5,61036fa68edf5797ea8d68ce,2021-07-29_23h22.09.036,Simcolourproject_2stim_asymm_v5,2020.2.10,MacIntel,60,61025ae37ef11b136ea224fe,,,,,,,,,988,31.171875,-56.69439697,1,0,0,response3disk,,4,18.31018066,-6.587768555,1,0,0,rectangle,18.31018066,-6.587768555,1,0,0,18.31018066,-6.587768555,1,0,0,0,30,30,44,1,,,,,,,,
,,,,,,,,,,,,,FF,,,,,,,,0.9516,,,,,,,,,,,,,,,,,,,,,,60fed8cce19b6feaef94c4c5,61036fa68edf5797ea8d68ce,2021-07-29_23h22.09.036,Simcolourproject_2stim_asymm_v5,2020.2.10,MacIntel,60,61025ae37ef11b136ea224fe,,,,,,,,,2213,28.48181152,58.35247803,1,0,0,response1disk,,7,20.47485352,-10.62872314,1,0,0,rectangle,20.47485352,-10.62872314,1,0,0,20.47485352,-10.62872314,1,0,0,0,31,31,128,1,,,,,,,,
,,,,,,,,,,,,,FF,,,,,,,,1.5827,,,,,,,,,,,,,,,,,,,,,,60fed8cce19b6feaef94c4c5,61036fa68edf5797ea8d68ce,2021-07-29_23h22.09.036,Simcolourproject_2stim_asymm_v5,2020.2.10,MacIntel,60,61025ae37ef11b136ea224fe,,,,,,,,,974,53.05975342,-21.31555176,1,0,0,response3disk,,5,12.78430176,3.086730957,1,0,0,rectangle,12.78430176,3.086730957,1,0,0,12.78430176,3.086730957,1,0,0,0,32,32,51,1,,,,,,,,
,,,,,,,,,,,,,FF,,,,,,,,1.2874,,,,,,,,,,,,,,,,,,,,,,60fed8cce19b6feaef94c4c5,61036fa68edf5797ea8d68ce,2021-07-29_23h22.09.036,Simcolourproject_2stim_asymm_v5,2020.2.10,MacIntel,60,61025ae37ef11b136ea224fe,,,,,,,,,2528,28.8302002,66.79693604,1,0,0,response1disk,,7,6.961791992,-1.314208984,1,0,0,rectangle,6.961791992,-1.314208984,1,0,0,6.961791992,-1.314208984,1,0,0,0,33,33,62,1,,,,,,,,
,,,,,,,,,,,,,FF,,,,,,,,1.2996,,,,,,,,,,,,,,,,,,,,,,60fed8cce19b6feaef94c4c5,61036fa68edf5797ea8d68ce,2021-07-29_23h22.09.036,Simcolourproject_2stim_asymm_v5,2020.2.10,MacIntel,60,61025ae37ef11b136ea224fe,,,,,,,,,549,83.09680176,69.06945801,1,0,0,response1disk,,6,21.16400146,-2.405761719,1,0,0,rectangle,21.16400146,-2.405761719,1,0,0,21.16400146,-2.405761719,1,0,0,0,34,34,152,1,,,,,,,,
,,,,,,,,,,,,,FF,,,,,,,,1.6831,,,,,,,,,,,,,,,,,,,,,,60fed8cce19b6feaef94c4c5,61036fa68edf5797ea8d68ce,2021-07-29_23h22.09.036,Simcolourproject_2stim_asymm_v5,2020.2.10,MacIntel,60,61025ae37ef11b136ea224fe,,,,,,,,,2987,27.40997314,-84.72119141,1,0,0,response3disk,,4,9.033935547,-2.961273193,1,0,0,rectangle,56.64813232,89.43029785,1,0,0,15.6237793,3.339233398,1,0,0,0,35,35,22,1,,response1disk_3,TRUE,7,7,"[36,298,217,147,112,92,258,60,137,206,277,103,224,164,149,52,276,142,188,211]",3.4346,rectangle
,,,,,,,,,,,,,FF,,,,,,,,6.0324,,,,,,,,,,,,,,,,,,,,,,60fed8cce19b6feaef94c4c5,61036fa68edf5797ea8d68ce,2021-07-29_23h22.09.036,Simcolourproject_2stim_asymm_v5,2020.2.10,MacIntel,60,61025ae37ef11b136ea224fe,,,,,,,,,4196,98.81665039,41.75402832,1,0,0,response1disk,,6,28.61340332,9.629760742,1,0,0,rectangle,28.61340332,9.629760742,1,0,0,28.61340332,9.629760742,1,0,0,0,36,36,24,1,,,,,,,,
,,,,,,,,,,,,,FF,,,,,,,,0.8659,,,,,,,,,,,,,,,,,,,,,,60fed8cce19b6feaef94c4c5,61036fa68edf5797ea8d68ce,2021-07-29_23h22.09.036,Simcolourproject_2stim_asymm_v5,2020.2.10,MacIntel,60,61025ae37ef11b136ea224fe,,,,,,,,,364,33.94128418,44.95770264,1,0,0,response1disk,,7,22.39453125,-5.906677246,1,0,0,rectangle,22.39453125,-5.906677246,1,0,0,22.39453125,-5.906677246,1,0,0,0,37,37,91,1,,,,,,,,
,,,,,,,,,,,,,FF,,,,,,,,1.3675,,,,,,,,,,,,,,,,,,,,,,60fed8cce19b6feaef94c4c5,61036fa68edf5797ea8d68ce,2021-07-29_23h22.09.036,Simcolourproject_2stim_asymm_v5,2020.2.10,MacIntel,60,61025ae37ef11b136ea224fe,,,,,,,,,174,28.53015137,57.99761963,1,0,0,response1disk,,7,12.41125488,-8.756652832,1,0,0,rectangle,12.41125488,-8.756652832,1,0,0,12.41125488,-8.756652832,1,0,0,0,38,38,21,1,,,,,,,,
,,,,,,,,,,,,,FF,,,,,,,,2.9996,,,,,,,,,,,,,,,,,,,,,,60fed8cce19b6feaef94c4c5,61036fa68edf5797ea8d68ce,2021-07-29_23h22.09.036,Simcolourproject_2stim_asymm_v5,2020.2.10,MacIntel,60,61025ae37ef11b136ea224fe,,,,,,,,,368,-28.57598877,-86.21911621,1,0,0,response5disk,,3,-12.30725098,-3.84161377,1,0,0,rectangle,-12.30725098,-3.84161377,1,0,0,-12.30725098,-3.84161377,1,0,0,0,39,39,125,1,,,,,,,,
,,,,,,,,,,,,,FF,,,,,,,,0.7679,,,,,,,,,,,,,,,,,,,,,,60fed8cce19b6feaef94c4c5,61036fa68edf5797ea8d68ce,2021-07-29_23h22.09.036,Simcolourproject_2stim_asymm_v5,2020.2.10,MacIntel,60,61025ae37ef11b136ea224fe,,,,,,,,,1836,79.64263916,36.41760254,1,0,0,response1disk,,6,21.35186768,2.888244629,1,0,0,rectangle,21.35186768,2.888244629,1,0,0,21.35186768,2.888244629,1,0,0,0,40,40,113,1,,,,,,,,
,,,,,,,,,,,,,FF,,,,,,,,0.6988,,,,,,,,,,,,,,,,,,,,,,60fed8cce19b6feaef94c4c5,61036fa68edf5797ea8d68ce,2021-07-29_23h22.09.036,Simcolourproject_2stim_asymm_v5,2020.2.10,MacIntel,60,61025ae37ef11b136ea224fe,,,,,,,,,3753,30.87835693,63.40545654,1,0,0,response1disk,,7,16.19616699,9.354492188,1,0,0,rectangle,16.19616699,9.354492188,1,0,0,16.19616699,9.354492188,1,0,0,0,41,41,11,1,,,,,,,,
,,,,,,,,,,,,,FF,,,,,,,,0.7318,,,,,,,,,,,,,,,,,,,,,,60fed8cce19b6feaef94c4c5,61036fa68edf5797ea8d68ce,2021-07-29_23h22.09.036,Simcolourproject_2stim_asymm_v5,2020.2.10,MacIntel,60,61025ae37ef11b136ea224fe,,,,,,,,,505,39.87780762,64.82788086,1,0,0,response1disk,,7,20.51434326,15.32299805,1,0,0,rectangle,20.51434326,15.32299805,1,0,0,20.51434326,15.32299805,1,0,0,0,42,42,52,1,,,,,,,,
,,,,,,,,,,,,,FF,,,,,,,,1.184,,,,,,,,,,,,,,,,,,,,,,60fed8cce19b6feaef94c4c5,61036fa68edf5797ea8d68ce,2021-07-29_23h22.09.036,Simcolourproject_2stim_asymm_v5,2020.2.10,MacIntel,60,61025ae37ef11b136ea224fe,,,,,,,,,3461,26.80950928,-46.54949951,1,0,0,response3disk,,4,19.43139648,-7.45010376,1,0,0,rectangle,19.43139648,-7.45010376,1,0,0,19.43139648,-7.45010376,1,0,0,0,43,43,148,1,,,,,,,,
,,,,,,,,,,,,,FF,,,,,,,,1.0997,,,,,,,,,,,,,,,,,,,,,,60fed8cce19b6feaef94c4c5,61036fa68edf5797ea8d68ce,2021-07-29_23h22.09.036,Simcolourproject_2stim_asymm_v5,2020.2.10,MacIntel,60,61025ae37ef11b136ea224fe,,,,,,,,,1018,31.18725586,70.82806396,1,0,0,response1disk,,7,14.51287842,-5.54498291,1,0,0,rectangle,14.51287842,-5.54498291,1,0,0,14.51287842,-5.54498291,1,0,0,0,44,44,82,1,,,,,,,,
,,,,,,,,,,,,,FF,,,,,,,,0.9834,,,,,,,,,,,,,,,,,,,,,,60fed8cce19b6feaef94c4c5,61036fa68edf5797ea8d68ce,2021-07-29_23h22.09.036,Simcolourproject_2stim_asymm_v5,2020.2.10,MacIntel,60,61025ae37ef11b136ea224fe,,,,,,,,,179,29.42041016,48.29699707,1,0,0,response1disk,,7,16.0423584,3.310028076,1,0,0,rectangle,16.0423584,3.310028076,1,0,0,16.0423584,3.310028076,1,0,0,0,45,45,156,1,,,,,,,,
,,,,,,,,,,,,,FF,,,,,,,,3.2159,,,,,,,,,,,,,,,,,,,,,,60fed8cce19b6feaef94c4c5,61036fa68edf5797ea8d68ce,2021-07-29_23h22.09.036,Simcolourproject_2stim_asymm_v5,2020.2.10,MacIntel,60,61025ae37ef11b136ea224fe,,,,,,,,,511,66.23309326,-27.18591309,1,0,0,response3disk,,5,26.1171875,4.15838623,1,0,0,rectangle,26.1171875,4.15838623,1,0,0,26.1171875,4.15838623,1,0,0,0,46,46,10,1,,,,,,,,
,,,,,,,,,,,,,FF,,,,,,,,1.4495,,,,,,,,,,,,,,,,,,,,,,60fed8cce19b6feaef94c4c5,61036fa68edf5797ea8d68ce,2021-07-29_23h22.09.036,Simcolourproject_2stim_asymm_v5,2020.2.10,MacIntel,60,61025ae37ef11b136ea224fe,,,,,,,,,1122,70.63543701,-47.52282715,1,0,0,response3disk,,5,11.62750244,-5.364746094,1,0,0,rectangle,11.62750244,-5.364746094,1,0,0,11.62750244,-5.364746094,1,0,0,0,47,47,34,1,,,,,,,,
,,,,,,,,,,,,,FF,,,,,,,,1.083,,,,,,,,,,,,,,,,,,,,,,60fed8cce19b6feaef94c4c5,61036fa68edf5797ea8d68ce,2021-07-29_23h22.09.036,Simcolourproject_2stim_asymm_v5,2020.2.10,MacIntel,60,61025ae37ef11b136ea224fe,,,,,,,,,3896,52.24609375,27.20993042,1,0,0,response1disk,,6,9.984436035,-1.752563477,1,0,0,rectangle,9.984436035,-1.752563477,1,0,0,9.984436035,-1.752563477,1,0,0,0,48,48,144,1,,,,,,,,
,,,,,,,,,,,,,FF,,,,,,,,1.102,,,,,,,,,,,,,,,,,,,,,,60fed8cce19b6feaef94c4c5,61036fa68edf5797ea8d68ce,2021-07-29_23h22.09.036,Simcolourproject_2stim_asymm_v5,2020.2.10,MacIntel,60,61025ae37ef11b136ea224fe,,,,,,,,,2509,30.18389893,61.75024414,1,0,0,response1disk,,7,6.243774414,-14.31695557,1,0,0,rectangle,6.243774414,-14.31695557,1,0,0,6.243774414,-14.31695557,1,0,0,0,49,49,29,1,,,,,,,,
,,,,,,,,,,,,,FF,,,,,,,,2.334,,,,,,,,,,,,,,,,,,,,,,60fed8cce19b6feaef94c4c5,61036fa68edf5797ea8d68ce,2021-07-29_23h22.09.036,Simcolourproject_2stim_asymm_v5,2020.2.10,MacIntel,60,61025ae37ef11b136ea224fe,,,,,,,,,1270,27.67956543,65.20556641,1,0,0,response1disk,,7,27.67956543,-11.42944336,1,0,0,rectangle,27.67956543,-11.42944336,1,0,0,27.67956543,-11.42944336,1,0,0,0,50,50,65,1,,,,,,,,
,,,,,,,,,,,,,FF,,,,,,,,1.0669,,,,,,,,,,,,,,,,,,,,,,60fed8cce19b6feaef94c4c5,61036fa68edf5797ea8d68ce,2021-07-29_23h22.09.036,Simcolourproject_2stim_asymm_v5,2020.2.10,MacIntel,60,61025ae37ef11b136ea224fe,,,,,,,,,4116,17.82440186,-66.10852051,1,0,0,response3disk,,4,10.88891602,-7.003723145,1,0,0,rectangle,-71.10296631,52.00515747,1,0,0,-23.331604,15.25567627,1,0,0,0,51,51,145,1,,response7disk_3,TRUE,1,1,"[36,298,217,147,112,92,258,60,137,206,277,103,224,164,149,52,276,142,188,211]",1.7166,rectangle
,,,,,,,,,,,,,FF,,,,,,,,1.4999,,,,,,,,,,,,,,,,,,,,,,60fed8cce19b6feaef94c4c5,61036fa68edf5797ea8d68ce,2021-07-29_23h22.09.036,Simcolourproject_2stim_asymm_v5,2020.2.10,MacIntel,60,61025ae37ef11b136ea224fe,,,,,,,,,2286,32.39953613,55.87988281,1,0,0,response1disk,,7,11.08404541,-5.589385986,1,0,0,rectangle,11.08404541,-5.589385986,1,0,0,11.08404541,-5.589385986,1,0,0,0,52,52,139,1,,,,,,,,
,,,,,,,,,,,,,FF,,,,,,,,1.7001,,,,,,,,,,,,,,,,,,,,,,60fed8cce19b6feaef94c4c5,61036fa68edf5797ea8d68ce,2021-07-29_23h22.09.036,Simcolourproject_2stim_asymm_v5,2020.2.10,MacIntel,60,61025ae37ef11b136ea224fe,,,,,,,,,1853,62.09960938,33.753479,1,0,0,response1disk,,6,12.19494629,11.05587769,1,0,0,rectangle,12.19494629,11.05587769,1,0,0,12.19494629,11.05587769,1,0,0,0,53,53,16,1,,,,,,,,
,,,,,,,,,,,,,FF,,,,,,,,0.6492,,,,,,,,,,,,,,,,,,,,,,60fed8cce19b6feaef94c4c5,61036fa68edf5797ea8d68ce,2021-07-29_23h22.09.036,Simcolourproject_2stim_asymm_v5,2020.2.10,MacIntel,60,61025ae37ef11b136ea224fe,,,,,,,,,2959,18.06201172,47.13485718,1,0,0,response1disk,,7,11.69177246,5.447418213,1,0,0,rectangle,11.69177246,5.447418213,1,0,0,11.69177246,5.447418213,1,0,0,0,54,54,116,1,,,,,,,,
,,,,,,,,,,,,,FF,,,,,,,,1.3998,,,,,,,,,,,,,,,,,,,,,,60fed8cce19b6feaef94c4c5,61036fa68edf5797ea8d68ce,2021-07-29_23h22.09.036,Simcolourproject_2stim_asymm_v5,2020.2.10,MacIntel,60,61025ae37ef11b136ea224fe,,,,,,,,,2947,90.72741699,31.06005859,1,0,0,response1disk,,6,6.005004883,-1.217346191,1,0,0,rectangle,6.005004883,-1.217346191,1,0,0,6.005004883,-1.217346191,1,0,0,0,55,55,2,1,,,,,,,,
,,,,,,,,,,,,,FF,,,,,,,,2.0159,,,,,,,,,,,,,,,,,,,,,,60fed8cce19b6feaef94c4c5,61036fa68edf5797ea8d68ce,2021-07-29_23h22.09.036,Simcolourproject_2stim_asymm_v5,2020.2.10,MacIntel,60,61025ae37ef11b136ea224fe,,,,,,,,,2768,28.19799805,59.3739624,1,0,0,response1disk,,7,4.850463867,1.188598633,1,0,0,rectangle,4.850463867,1.188598633,1,0,0,4.850463867,1.188598633,1,0,0,0,56,56,142,1,,,,,,,,
,,,,,,,,,,,,,FF,,,,,,,,1.2823,,,,,,,,,,,,,,,,,,,,,,60fed8cce19b6feaef94c4c5,61036fa68edf5797ea8d68ce,2021-07-29_23h22.09.036,Simcolourproject_2stim_asymm_v5,2020.2.10,MacIntel,60,61025ae37ef11b136ea224fe,,,,,,,,,4228,26.23944092,53.39926147,1,0,0,response1disk,,7,4.501403809,-15.51800537,1,0,0,rectangle,4.501403809,-15.51800537,1,0,0,4.501403809,-15.51800537,1,0,0,0,57,57,40,1,,,,,,,,
,,,,,,,,,,,,,FF,,,,,,,,0.7024,,,,,,,,,,,,,,,,,,,,,,60fed8cce19b6feaef94c4c5,61036fa68edf5797ea8d68ce,2021-07-29_23h22.09.036,Simcolourproject_2stim_asymm_v5,2020.2.10,MacIntel,60,61025ae37ef11b136ea224fe,,,,,,,,,3688,32.28674316,54.35955811,1,0,0,response1disk,,7,12.70556641,-9.4296875,1,0,0,rectangle,12.70556641,-9.4296875,1,0,0,12.70556641,-9.4296875,1,0,0,0,58,58,127,1,,,,,,,,
,,,,,,,,,,,,,FF,,,,,,,,0.7824,,,,,,,,,,,,,,,,,,,,,,60fed8cce19b6feaef94c4c5,61036fa68edf5797ea8d68ce,2021-07-29_23h22.09.036,Simcolourproject_2stim_asymm_v5,2020.2.10,MacIntel,60,61025ae37ef11b136ea224fe,,,,,,,,,124,30.38452148,57.96603394,1,0,0,response1disk,,7,25.0413208,0.905456543,1,0,0,rectangle,81.89746094,51.88269043,1,0,0,7.171142578,6.230224609,1,0,0,0,59,59,98,1,,response1disk_3,TRUE,6,6,"[36,298,217,147,112,92,258,60,137,206,277,103,224,164,149,52,276,142,188,211]",1.9629,rectangle
,,,,,,,,,,,,,FF,,,,,,,,1.7667,,,,,,,,,,,,,,,,,,,,,,60fed8cce19b6feaef94c4c5,61036fa68edf5797ea8d68ce,2021-07-29_23h22.09.036,Simcolourproject_2stim_asymm_v5,2020.2.10,MacIntel,60,61025ae37ef11b136ea224fe,,,,,,,,,3384,-78.7144165,-36.16375732,1,0,0,response5disk,,2,-0.693481445,-3.514831543,1,0,0,rectangle,-0.693481445,-3.514831543,1,0,0,-0.693481445,-3.514831543,1,0,0,0,60,60,43,1,,,,,,,,
,,,,,,,,,,,,,FF,,,,,,,,1.532,,,,,,,,,,,,,,,,,,,,,,60fed8cce19b6feaef94c4c5,61036fa68edf5797ea8d68ce,2021-07-29_23h22.09.036,Simcolourproject_2stim_asymm_v5,2020.2.10,MacIntel,60,61025ae37ef11b136ea224fe,,,,,,,,,2936,37.3671875,76.90292358,1,0,0,response1disk,,7,20.45526123,6.933258057,1,0,0,rectangle,20.45526123,6.933258057,1,0,0,20.45526123,6.933258057,1,0,0,0,61,61,129,1,,,,,,,,
,,,,,,,,,,,,,FF,,,,,,,,1.7002,,,,,,,,,,,,,,,,,,,,,,60fed8cce19b6feaef94c4c5,61036fa68edf5797ea8d68ce,2021-07-29_23h22.09.036,Simcolourproject_2stim_asymm_v5,2020.2.10,MacIntel,60,61025ae37ef11b136ea224fe,,,,,,,,,802,-41.90869141,-74.15563965,1,0,0,response5disk,,3,-6.982910156,-1.427429199,1,0,0,rectangle,-6.982910156,-1.427429199,1,0,0,-6.982910156,-1.427429199,1,0,0,0,62,62,114,1,,,,,,,,
,,,,,,,,,,,,,FF,,,,,,,,2.3825,,,,,,,,,,,,,,,,,,,,,,60fed8cce19b6feaef94c4c5,61036fa68edf5797ea8d68ce,2021-07-29_23h22.09.036,Simcolourproject_2stim_asymm_v5,2020.2.10,MacIntel,60,61025ae37ef11b136ea224fe,,,,,,,,,2628,28.44824219,43.7532959,1,0,0,response1disk,,7,12.85797119,-4.553894043,1,0,0,rectangle,12.85797119,-4.553894043,1,0,0,12.85797119,-4.553894043,1,0,0,0,63,63,100,1,,,,,,,,
,,,,,,,,,,,,,FF,,,,,,,,1.4987,,,,,,,,,,,,,,,,,,,,,,60fed8cce19b6feaef94c4c5,61036fa68edf5797ea8d68ce,2021-07-29_23h22.09.036,Simcolourproject_2stim_asymm_v5,2020.2.10,MacIntel,60,61025ae37ef11b136ea224fe,,,,,,,,,2786,46.84698486,-91.69396973,1,0,0,response3disk,,4,7.042236328,-14.90563965,1,0,0,rectangle,7.042236328,-14.90563965,1,0,0,7.042236328,-14.90563965,1,0,0,0,64,64,54,1,,,,,,,,
,,,,,,,,,,,,,FF,,,,,,,,1.0167,,,,,,,,,,,,,,,,,,,,,,60fed8cce19b6feaef94c4c5,61036fa68edf5797ea8d68ce,2021-07-29_23h22.09.036,Simcolourproject_2stim_asymm_v5,2020.2.10,MacIntel,60,61025ae37ef11b136ea224fe,,,,,,,,,2412,34.16247559,60.69836426,1,0,0,response1disk,,7,16.46514893,-5.404937744,1,0,0,rectangle,16.46514893,-5.404937744,1,0,0,16.46514893,-5.404937744,1,0,0,0,65,65,23,1,,,,,,,,
,,,,,,,,,,,,,FF,,,,,,,,0.7278,,,,,,,,,,,,,,,,,,,,,,60fed8cce19b6feaef94c4c5,61036fa68edf5797ea8d68ce,2021-07-29_23h22.09.036,Simcolourproject_2stim_asymm_v5,2020.2.10,MacIntel,60,61025ae37ef11b136ea224fe,,,,,,,,,3581,32.6463623,54.63952637,1,0,0,response1disk,,7,22.12011719,-14.6078186,1,0,0,rectangle,22.12011719,-14.6078186,1,0,0,22.12011719,-14.6078186,1,0,0,0,66,66,95,1,,,,,,,,
,,,,,,,,,,,,,FF,,,,,,,,0.8306,,,,,,,,,,,,,,,,,,,,,,60fed8cce19b6feaef94c4c5,61036fa68edf5797ea8d68ce,2021-07-29_23h22.09.036,Simcolourproject_2stim_asymm_v5,2020.2.10,MacIntel,60,61025ae37ef11b136ea224fe,,,,,,,,,2913,33.97265625,50.9039917,1,0,0,response1disk,,7,23.51300049,5.287841797,1,0,0,rectangle,23.51300049,5.287841797,1,0,0,23.51300049,5.287841797,1,0,0,0,67,67,59,1,,,,,,,,
,,,,,,,,,,,,,FF,,,,,,,,0.6827,,,,,,,,,,,,,,,,,,,,,,60fed8cce19b6feaef94c4c5,61036fa68edf5797ea8d68ce,2021-07-29_23h22.09.036,Simcolourproject_2stim_asymm_v5,2020.2.10,MacIntel,60,61025ae37ef11b136ea224fe,,,,,,,,,1086,27.1529541,43.82632446,1,0,0,response1disk,,7,18.30889893,9.261199951,1,0,0,rectangle,18.30889893,9.261199951,1,0,0,18.30889893,9.261199951,1,0,0,0,68,68,124,1,,,,,,,,
,,,,,,,,,,,,,FF,,,,,,,,1.2185,,,,,,,,,,,,,,,,,,,,,,60fed8cce19b6feaef94c4c5,61036fa68edf5797ea8d68ce,2021-07-29_23h22.09.036,Simcolourproject_2stim_asymm_v5,2020.2.10,MacIntel,60,61025ae37ef11b136ea224fe,,,,,,,,,2829,56.63623047,31.7734375,1,0,0,response1disk,,6,-17.71325684,5.358581543,1,0,0,rectangle,-17.71325684,5.358581543,1,0,0,-17.71325684,5.358581543,1,0,0,0,69,69,20,1,,,,,,,,
,,,,,,,,,,,,,FF,,,,,,,,0.8149,,,,,,,,,,,,,,,,,,,,,,60fed8cce19b6feaef94c4c5,61036fa68edf5797ea8d68ce,2021-07-29_23h22.09.036,Simcolourproject_2stim_asymm_v5,2020.2.10,MacIntel,60,61025ae37ef11b136ea224fe,,,,,,,,,323,39.56427002,70.36486816,1,0,0,response1disk,,7,-3.526733398,-6.345947266,1,0,0,rectangle,-3.526733398,-6.345947266,1,0,0,-3.526733398,-6.345947266,1,0,0,0,70,70,55,1,,,,,,,,
,,,,,,,,,,,,,FF,,,,,,,,2.1343,,,,,,,,,,,,,,,,,,,,,,60fed8cce19b6feaef94c4c5,61036fa68edf5797ea8d68ce,2021-07-29_23h22.09.036,Simcolourproject_2stim_asymm_v5,2020.2.10,MacIntel,60,61025ae37ef11b136ea224fe,,,,,,,,,188,59.81396484,-95.7689209,1,0,0,response3disk,,4,9.407287598,-6.352600098,1,0,0,rectangle,9.407287598,-6.352600098,1,0,0,9.407287598,-6.352600098,1,0,0,0,71,71,33,1,,,,,,,,
,,,,,,,,,,,,,FF,,,,,,,,1.8323,,,,,,,,,,,,,,,,,,,,,,60fed8cce19b6feaef94c4c5,61036fa68edf5797ea8d68ce,2021-07-29_23h22.09.036,Simcolourproject_2stim_asymm_v5,2020.2.10,MacIntel,60,61025ae37ef11b136ea224fe,,,,,,,,,3699,27.86730957,50.67956543,1,0,0,response1disk,,7,16.59069824,-5.23828125,1,0,0,rectangle,16.59069824,-5.23828125,1,0,0,16.59069824,-5.23828125,1,0,0,0,72,72,119,1,,,,,,,,
,,,,,,,,,,,,,FF,,,,,,,,0.6325,,,,,,,,,,,,,,,,,,,,,,60fed8cce19b6feaef94c4c5,61036fa68edf5797ea8d68ce,2021-07-29_23h22.09.036,Simcolourproject_2stim_asymm_v5,2020.2.10,MacIntel,60,61025ae37ef11b136ea224fe,,,,,,,,,749,28.54968262,46.23284912,1,0,0,response1disk,,7,13.84954834,-6.031005859,1,0,0,rectangle,13.84954834,-6.031005859,1,0,0,13.84954834,-6.031005859,1,0,0,0,73,73,132,1,,,,,,,,
,,,,,,,,,,,,,FF,,,,,,,,0.7333,,,,,,,,,,,,,,,,,,,,,,60fed8cce19b6feaef94c4c5,61036fa68edf5797ea8d68ce,2021-07-29_23h22.09.036,Simcolourproject_2stim_asymm_v5,2020.2.10,MacIntel,60,61025ae37ef11b136ea224fe,,,,,,,,,1701,34.0880127,64.30096436,1,0,0,response1disk,,7,17.77258301,16.40118408,1,0,0,rectangle,17.77258301,16.40118408,1,0,0,17.77258301,16.40118408,1,0,0,0,74,74,35,1,,,,,,,,
,,,,,,,,,,,,,FF,,,,,,,,1.7488,,,,,,,,,,,,,,,,,,,,,,60fed8cce19b6feaef94c4c5,61036fa68edf5797ea8d68ce,2021-07-29_23h22.09.036,Simcolourproject_2stim_asymm_v5,2020.2.10,MacIntel,60,61025ae37ef11b136ea224fe,,,,,,,,,3235,74.40576172,36.09411621,1,0,0,response1disk,,6,12.8213501,6.797119141,1,0,0,rectangle,12.8213501,6.797119141,1,0,0,12.8213501,6.797119141,1,0,0,0,75,75,75,1,,,,,,,,
,,,,,,,,,,,,,FF,,,,,,,,1.0666,,,,,,,,,,,,,,,,,,,,,,60fed8cce19b6feaef94c4c5,61036fa68edf5797ea8d68ce,2021-07-29_23h22.09.036,Simcolourproject_2stim_asymm_v5,2020.2.10,MacIntel,60,61025ae37ef11b136ea224fe,,,,,,,,,3653,26.46154785,40.79272461,1,0,0,response1disk,,7,18.41418457,10.08551025,1,0,0,rectangle,18.41418457,10.08551025,1,0,0,18.41418457,10.08551025,1,0,0,0,76,76,97,1,,,,,,,,
,,,,,,,,,,,,,FF,,,,,,,,0.6666,,,,,,,,,,,,,,,,,,,,,,60fed8cce19b6feaef94c4c5,61036fa68edf5797ea8d68ce,2021-07-29_23h22.09.036,Simcolourproject_2stim_asymm_v5,2020.2.10,MacIntel,60,61025ae37ef11b136ea224fe,,,,,,,,,1975,26.68237305,46.49713135,1,0,0,response1disk,,7,11.56152344,11.97821045,1,0,0,rectangle,11.56152344,11.97821045,1,0,0,11.56152344,11.97821045,1,0,0,0,77,77,77,1,,,,,,,,
,,,,,,,,,,,,,FF,,,,,,,,1.3157,,,,,,,,,,,,,,,,,,,,,,60fed8cce19b6feaef94c4c5,61036fa68edf5797ea8d68ce,2021-07-29_23h22.09.036,Simcolourproject_2stim_asymm_v5,2020.2.10,MacIntel,60,61025ae37ef11b136ea224fe,,,,,,,,,219,19.70397949,43.20565796,1,0,0,response1disk,,7,3.837646484,6.078918457,1,0,0,rectangle,3.837646484,6.078918457,1,0,0,3.837646484,6.078918457,1,0,0,0,78,78,120,1,,,,,,,,
,,,,,,,,,,,,,FF,,,,,,,,0.9829,,,,,,,,,,,,,,,,,,,,,,60fed8cce19b6feaef94c4c5,61036fa68edf5797ea8d68ce,2021-07-29_23h22.09.036,Simcolourproject_2stim_asymm_v5,2020.2.10,MacIntel,60,61025ae37ef11b136ea224fe,,,,,,,,,4316,-56.33984375,91.23684692,1,0,0,response7disk,,0,-22.24975586,-10.11193848,1,0,0,rectangle,-22.24975586,-10.11193848,1,0,0,-22.24975586,-10.11193848,1,0,0,0,79,79,48,1,,,,,,,,
,,,,,,,,,,,,,FF,,,,,,,,1.349,,,,,,,,,,,,,,,,,,,,,,60fed8cce19b6feaef94c4c5,61036fa68edf5797ea8d68ce,2021-07-29_23h22.09.036,Simcolourproject_2stim_asymm_v5,2020.2.10,MacIntel,60,61025ae37ef11b136ea224fe,,,,,,,,,3584,-38.0760498,-92.73535156,1,0,0,response5disk,,3,-23.8392334,0.401702881,1,0,0,rectangle,-23.8392334,0.401702881,1,0,0,-23.8392334,0.401702881,1,0,0,0,80,80,60,1,,,,,,,,
,,,,,,,,,,,,,FF,,,,,,,,2.1497,,,,,,,,,,,,,,,,,,,,,,60fed8cce19b6feaef94c4c5,61036fa68edf5797ea8d68ce,2021-07-29_23h22.09.036,Simcolourproject_2stim_asymm_v5,2020.2.10,MacIntel,60,61025ae37ef11b136ea224fe,,,,,,,,,2930,23.25726318,60.06536865,1,0,0,response1disk,,7,7.00402832,-11.31973267,1,0,0,rectangle,7.00402832,-11.31973267,1,0,0,7.00402832,-11.31973267,1,0,0,0,81,81,57,1,,,,,,,,
,,,,,,,,,,,,,FF,,,,,,,,1.1328,,,,,,,,,,,,,,,,,,,,,,60fed8cce19b6feaef94c4c5,61036fa68edf5797ea8d68ce,2021-07-29_23h22.09.036,Simcolourproject_2stim_asymm_v5,2020.2.10,MacIntel,60,61025ae37ef11b136ea224fe,,,,,,,,,4149,25.78155518,-45.32189941,1,0,0,response3disk,,4,22.43859863,-8.119873047,1,0,0,rectangle,22.43859863,-8.119873047,1,0,0,22.43859863,-8.119873047,1,0,0,0,82,82,49,1,,,,,,,,
,,,,,,,,,,,,,FF,,,,,,,,0.9592,,,,,,,,,,,,,,,,,,,,,,60fed8cce19b6feaef94c4c5,61036fa68edf5797ea8d68ce,2021-07-29_23h22.09.036,Simcolourproject_2stim_asymm_v5,2020.2.10,MacIntel,60,61025ae37ef11b136ea224fe,,,,,,,,,362,20.64819336,50.05352783,1,0,0,response1disk,,7,8.800598145,-2.540100098,1,0,0,rectangle,8.800598145,-2.540100098,1,0,0,8.800598145,-2.540100098,1,0,0,0,83,83,80,1,,,,,,,,
,,,,,,,,,,,,,FF,,,,,,,,0.866,,,,,,,,,,,,,,,,,,,,,,60fed8cce19b6feaef94c4c5,61036fa68edf5797ea8d68ce,2021-07-29_23h22.09.036,Simcolourproject_2stim_asymm_v5,2020.2.10,MacIntel,60,61025ae37ef11b136ea224fe,,,,,,,,,3566,28.07928467,53.34393311,1,0,0,response1disk,,7,18.12994385,-4.157653809,1,0,0,rectangle,18.12994385,-4.157653809,1,0,0,18.12994385,-4.157653809,1,0,0,0,84,84,138,1,,,,,,,,
,,,,,,,,,,,,,FF,,,,,,,,0.5156,,,,,,,,,,,,,,,,,,,,,,60fed8cce19b6feaef94c4c5,61036fa68edf5797ea8d68ce,2021-07-29_23h22.09.036,Simcolourproject_2stim_asymm_v5,2020.2.10,MacIntel,60,61025ae37ef11b136ea224fe,,,,,,,,,3497,30.99597168,44.96740723,1,0,0,response1disk,,7,19.41394043,15.82769775,1,0,0,rectangle,19.41394043,15.82769775,1,0,0,19.41394043,15.82769775,1,0,0,0,85,85,157,1,,,,,,,,
,,,,,,,,,,,,,FF,,,,,,,,1.8012,,,,,,,,,,,,,,,,,,,,,,60fed8cce19b6feaef94c4c5,61036fa68edf5797ea8d68ce,2021-07-29_23h22.09.036,Simcolourproject_2stim_asymm_v5,2020.2.10,MacIntel,60,61025ae37ef11b136ea224fe,,,,,,,,,1911,92.87280273,-45.69763184,1,0,0,response3disk,,5,11.43896484,-9.670166016,1,0,0,rectangle,11.43896484,-9.670166016,1,0,0,11.43896484,-9.670166016,1,0,0,0,86,86,78,1,,,,,,,,
,,,,,,,,,,,,,FF,,,,,,,,1.8002,,,,,,,,,,,,,,,,,,,,,,60fed8cce19b6feaef94c4c5,61036fa68edf5797ea8d68ce,2021-07-29_23h22.09.036,Simcolourproject_2stim_asymm_v5,2020.2.10,MacIntel,60,61025ae37ef11b136ea224fe,,,,,,,,,3304,18.17504883,59.86291504,1,0,0,response1disk,,7,-16.61083984,2.797790527,1,0,0,rectangle,-16.61083984,2.797790527,1,0,0,-16.61083984,2.797790527,1,0,0,0,87,87,96,1,,,,,,,,
,,,,,,,,,,,,,FF,,,,,,,,0.7324,,,,,,,,,,,,,,,,,,,,,,60fed8cce19b6feaef94c4c5,61036fa68edf5797ea8d68ce,2021-07-29_23h22.09.036,Simcolourproject_2stim_asymm_v5,2020.2.10,MacIntel,60,61025ae37ef11b136ea224fe,,,,,,,,,2453,21.26745605,54.8793335,1,0,0,response1disk,,7,-0.091491699,-7.295715332,1,0,0,rectangle,-0.091491699,-7.295715332,1,0,0,-0.091491699,-7.295715332,1,0,0,0,88,88,102,1,,,,,,,,
,,,,,,,,,,,,,FF,,,,,,,,1.6822,,,,,,,,,,,,,,,,,,,,,,60fed8cce19b6feaef94c4c5,61036fa68edf5797ea8d68ce,2021-07-29_23h22.09.036,Simcolourproject_2stim_asymm_v5,2020.2.10,MacIntel,60,61025ae37ef11b136ea224fe,,,,,,,,,2402,83.52478027,28.96377563,1,0,0,response1disk,,6,21.01483154,-8.798583984,1,0,0,rectangle,21.01483154,-8.798583984,1,0,0,21.01483154,-8.798583984,1,0,0,0,89,89,141,1,,,,,,,,
,,,,,,,,,,,,,FF,,,,,,,,0.8322,,,,,,,,,,,,,,,,,,,,,,60fed8cce19b6feaef94c4c5,61036fa68edf5797ea8d68ce,2021-07-29_23h22.09.036,Simcolourproject_2stim_asymm_v5,2020.2.10,MacIntel,60,61025ae37ef11b136ea224fe,,,,,,,,,3320,31.21777344,59.47106934,1,0,0,response1disk,,7,7.389526367,2.766784668,1,0,0,rectangle,7.389526367,2.766784668,1,0,0,7.389526367,2.766784668,1,0,0,0,90,90,88,1,,,,,,,,
,,,,,,,,,,,,,FF,,,,,,,,0.8988,,,,,,,,,,,,,,,,,,,,,,60fed8cce19b6feaef94c4c5,61036fa68edf5797ea8d68ce,2021-07-29_23h22.09.036,Simcolourproject_2stim_asymm_v5,2020.2.10,MacIntel,60,61025ae37ef11b136ea224fe,,,,,,,,,901,61.87463379,28.41082764,1,0,0,response1disk,,6,13.15466309,-6.50402832,1,0,0,rectangle,-73.80578613,-37.70797729,1,0,0,-8.114868164,-1.038635254,1,0,0,0,91,91,147,1,,response5disk_3,TRUE,2,2,"[36,298,217,147,112,92,258,60,137,206,277,103,224,164,149,52,276,142,188,211]",2.1816,rectangle
,,,,,,,,,,,,,FF,,,,,,,,2.4009,,,,,,,,,,,,,,,,,,,,,,60fed8cce19b6feaef94c4c5,61036fa68edf5797ea8d68ce,2021-07-29_23h22.09.036,Simcolourproject_2stim_asymm_v5,2020.2.10,MacIntel,60,61025ae37ef11b136ea224fe,,,,,,,,,3062,62.21710205,-36.03857422,1,0,0,response3disk,,5,-0.107055664,0.618225098,1,0,0,rectangle,-0.107055664,0.618225098,1,0,0,-0.107055664,0.618225098,1,0,0,0,92,92,18,1,,,,,,,,
,,,,,,,,,,,,,FF,,,,,,,,1.683,,,,,,,,,,,,,,,,,,,,,,60fed8cce19b6feaef94c4c5,61036fa68edf5797ea8d68ce,2021-07-29_23h22.09.036,Simcolourproject_2stim_asymm_v5,2020.2.10,MacIntel,60,61025ae37ef11b136ea224fe,,,,,,,,,1467,55.99682617,30.87701416,1,0,0,response1disk,,6,11.89196777,-11.41088867,1,0,0,rectangle,11.89196777,-11.41088867,1,0,0,11.89196777,-11.41088867,1,0,0,0,93,93,133,1,,,,,,,,
,,,,,,,,,,,,,FF,,,,,,,,0.7172,,,,,,,,,,,,,,,,,,,,,,60fed8cce19b6feaef94c4c5,61036fa68edf5797ea8d68ce,2021-07-29_23h22.09.036,Simcolourproject_2stim_asymm_v5,2020.2.10,MacIntel,60,61025ae37ef11b136ea224fe,,,,,,,,,1571,32.95300293,79.62155151,1,0,0,response1disk,,7,14.44116211,-3.082763672,1,0,0,rectangle,14.44116211,-3.082763672,1,0,0,14.44116211,-3.082763672,1,0,0,0,94,94,26,1,,,,,,,,
,,,,,,,,,,,,,FF,,,,,,,,1.2656,,,,,,,,,,,,,,,,,,,,,,60fed8cce19b6feaef94c4c5,61036fa68edf5797ea8d68ce,2021-07-29_23h22.09.036,Simcolourproject_2stim_asymm_v5,2020.2.10,MacIntel,60,61025ae37ef11b136ea224fe,,,,,,,,,952,91.1986084,40.23974609,1,0,0,response1disk,,6,14.95458984,1.805175781,1,0,0,rectangle,14.95458984,1.805175781,1,0,0,14.95458984,1.805175781,1,0,0,0,95,95,135,1,,,,,,,,
,,,,,,,,,,,,,FF,,,,,,,,0.9659,,,,,,,,,,,,,,,,,,,,,,60fed8cce19b6feaef94c4c5,61036fa68edf5797ea8d68ce,2021-07-29_23h22.09.036,Simcolourproject_2stim_asymm_v5,2020.2.10,MacIntel,60,61025ae37ef11b136ea224fe,,,,,,,,,3654,31.58044434,66.51611328,1,0,0,response1disk,,7,7.623474121,12.81375122,1,0,0,rectangle,7.623474121,12.81375122,1,0,0,7.623474121,12.81375122,1,0,0,0,96,96,32,1,,,,,,,,
,,,,,,,,,,,,,FF,,,,,,,,1.1334,,,,,,,,,,,,,,,,,,,,,,60fed8cce19b6feaef94c4c5,61036fa68edf5797ea8d68ce,2021-07-29_23h22.09.036,Simcolourproject_2stim_asymm_v5,2020.2.10,MacIntel,60,61025ae37ef11b136ea224fe,,,,,,,,,996,28.97351074,59.55725098,1,0,0,response1disk,,7,7.688903809,6.119262695,1,0,0,rectangle,7.688903809,6.119262695,1,0,0,7.688903809,6.119262695,1,0,0,0,97,97,131,1,,,,,,,,
,,,,,,,,,,,,,FF,,,,,,,,5.0007,,,,,,,,,,,,,,,,,,,,,,60fed8cce19b6feaef94c4c5,61036fa68edf5797ea8d68ce,2021-07-29_23h22.09.036,Simcolourproject_2stim_asymm_v5,2020.2.10,MacIntel,60,61025ae37ef11b136ea224fe,,,,,,,,,3944,28.47747803,66.74206543,1,0,0,response1disk,,7,-7.43927002,-2.76071167,1,0,0,rectangle,-7.43927002,-2.76071167,1,0,0,-7.43927002,-2.76071167,1,0,0,0,98,98,115,1,,,,,,,,
,,,,,,,,,,,,,FF,,,,,,,,2.4665,,,,,,,,,,,,,,,,,,,,,,60fed8cce19b6feaef94c4c5,61036fa68edf5797ea8d68ce,2021-07-29_23h22.09.036,Simcolourproject_2stim_asymm_v5,2020.2.10,MacIntel,60,61025ae37ef11b136ea224fe,,,,,,,,,4080,89.22619629,45.92633057,1,0,0,response1disk,,6,3.9453125,0.908203125,1,0,0,rectangle,3.9453125,0.908203125,1,0,0,3.9453125,0.908203125,1,0,0,0,99,99,27,1,,,,,,,,
,,,,,,,,,,,,,FF,,,,,,,,1.8015,,,,,,,,,,,,,,,,,,,,,,60fed8cce19b6feaef94c4c5,61036fa68edf5797ea8d68ce,2021-07-29_23h22.09.036,Simcolourproject_2stim_asymm_v5,2020.2.10,MacIntel,60,61025ae37ef11b136ea224fe,,,,,,,,,961,28.02252197,64.0345459,1,0,0,response1disk,,7,6.890441895,5.702209473,1,0,0,rectangle,6.890441895,5.702209473,1,0,0,6.890441895,5.702209473,1,0,0,0,100,100,149,1,,,,,,,,
,,,,,,,,,,,,,FF,,,,,,,,2.0335,,,,,,,,,,,,,,,,,,,,,,60fed8cce19b6feaef94c4c5,61036fa68edf5797ea8d68ce,2021-07-29_23h22.09.036,Simcolourproject_2stim_asymm_v5,2020.2.10,MacIntel,60,61025ae37ef11b136ea224fe,,,,,,,,,1454,90.16131592,-42.47558594,1,0,0,response3disk,,5,16.671875,-12.40820313,1,0,0,rectangle,16.671875,-12.40820313,1,0,0,16.671875,-12.40820313,1,0,0,0,101,101,19,1,,,,,,,,
,,,,,,,,,,,,,FF,,,,,,,,1.7006,,,,,,,,,,,,,,,,,,,,,,60fed8cce19b6feaef94c4c5,61036fa68edf5797ea8d68ce,2021-07-29_23h22.09.036,Simcolourproject_2stim_asymm_v5,2020.2.10,MacIntel,60,61025ae37ef11b136ea224fe,,,,,,,,,850,40.6842041,48.46032715,1,0,0,response1disk,,7,17.79345703,9.602600098,1,0,0,rectangle,74.45153809,43.28460693,1,0,0,27.05419922,14.66491699,1,0,0,0,102,102,130,1,,response1disk_3,TRUE,6,6,"[36,298,217,147,112,92,258,60,137,206,277,103,224,164,149,52,276,142,188,211]",1.4475,rectangle
,,,,,,,,,,,,,FF,,,,,,,,1.5831,,,,,,,,,,,,,,,,,,,,,,60fed8cce19b6feaef94c4c5,61036fa68edf5797ea8d68ce,2021-07-29_23h22.09.036,Simcolourproject_2stim_asymm_v5,2020.2.10,MacIntel,60,61025ae37ef11b136ea224fe,,,,,,,,,2254,31.59069824,63.44564819,1,0,0,response1disk,,7,16.05090332,11.26654053,1,0,0,rectangle,16.05090332,11.26654053,1,0,0,16.05090332,11.26654053,1,0,0,0,103,103,118,1,,,,,,,,
,,,,,,,,,,,,,FF,,,,,,,,0.5001,,,,,,,,,,,,,,,,,,,,,,60fed8cce19b6feaef94c4c5,61036fa68edf5797ea8d68ce,2021-07-29_23h22.09.036,Simcolourproject_2stim_asymm_v5,2020.2.10,MacIntel,60,61025ae37ef11b136ea224fe,,,,,,,,,508,24.61694336,47.25836182,1,0,0,response1disk,,7,15.86590576,4.990783691,1,0,0,rectangle,15.86590576,4.990783691,1,0,0,15.86590576,4.990783691,1,0,0,0,104,104,53,1,,,,,,,,
,,,,,,,,,,,,,FF,,,,,,,,1.5857,,,,,,,,,,,,,,,,,,,,,,60fed8cce19b6feaef94c4c5,61036fa68edf5797ea8d68ce,2021-07-29_23h22.09.036,Simcolourproject_2stim_asymm_v5,2020.2.10,MacIntel,60,61025ae37ef11b136ea224fe,,,,,,,,,3559,31.11096191,-90.98724365,1,0,0,response3disk,,4,10.30578613,-8.168884277,1,0,0,rectangle,10.30578613,-8.168884277,1,0,0,10.30578613,-8.168884277,1,0,0,0,105,105,81,1,,,,,,,,
,,,,,,,,,,,,,FF,,,,,,,,1.3997,,,,,,,,,,,,,,,,,,,,,,60fed8cce19b6feaef94c4c5,61036fa68edf5797ea8d68ce,2021-07-29_23h22.09.036,Simcolourproject_2stim_asymm_v5,2020.2.10,MacIntel,60,61025ae37ef11b136ea224fe,,,,,,,,,3899,62.82971191,-34.87145996,1,0,0,response3disk,,5,-2.089782715,-6.428619385,1,0,0,rectangle,-2.089782715,-6.428619385,1,0,0,-2.089782715,-6.428619385,1,0,0,0,106,106,63,1,,,,,,,,
,,,,,,,,,,,,,FF,,,,,,,,0.9623,,,,,,,,,,,,,,,,,,,,,,60fed8cce19b6feaef94c4c5,61036fa68edf5797ea8d68ce,2021-07-29_23h22.09.036,Simcolourproject_2stim_asymm_v5,2020.2.10,MacIntel,60,61025ae37ef11b136ea224fe,,,,,,,,,2487,45.98626709,-48.76086426,1,0,0,response3disk,,4,13.1751709,-9.441589355,1,0,0,rectangle,13.1751709,-9.441589355,1,0,0,13.1751709,-9.441589355,1,0,0,0,107,107,107,1,,,,,,,,
,,,,,,,,,,,,,FF,,,,,,,,1.3159,,,,,,,,,,,,,,,,,,,,,,60fed8cce19b6feaef94c4c5,61036fa68edf5797ea8d68ce,2021-07-29_23h22.09.036,Simcolourproject_2stim_asymm_v5,2020.2.10,MacIntel,60,61025ae37ef11b136ea224fe,,,,,,,,,1034,48.90313721,25.25946045,1,0,0,response1disk,,6,6.619873047,15.48730469,1,0,0,rectangle,6.619873047,15.48730469,1,0,0,6.619873047,15.48730469,1,0,0,0,108,108,111,1,,,,,,,,
,,,,,,,,,,,,,FF,,,,,,,,0.8337,,,,,,,,,,,,,,,,,,,,,,60fed8cce19b6feaef94c4c5,61036fa68edf5797ea8d68ce,2021-07-29_23h22.09.036,Simcolourproject_2stim_asymm_v5,2020.2.10,MacIntel,60,61025ae37ef11b136ea224fe,,,,,,,,,1398,55.30859375,36.53482056,1,0,0,response1disk,,6,13.76586914,-0.436950684,1,0,0,rectangle,13.76586914,-0.436950684,1,0,0,13.76586914,-0.436950684,1,0,0,0,109,109,39,1,,,,,,,,
,,,,,,,,,,,,,FF,,,,,,,,0.7658,,,,,,,,,,,,,,,,,,,,,,60fed8cce19b6feaef94c4c5,61036fa68edf5797ea8d68ce,2021-07-29_23h22.09.036,Simcolourproject_2stim_asymm_v5,2020.2.10,MacIntel,60,61025ae37ef11b136ea224fe,,,,,,,,,1924,52.48760986,28.01742554,1,0,0,response1disk,,6,18.87078857,-0.557647705,1,0,0,rectangle,18.87078857,-0.557647705,1,0,0,18.87078857,-0.557647705,1,0,0,0,110,110,7,1,,,,,,,,
,,,,,,,,,,,,,FF,,,,,,,,1.1998,,,,,,,,,,,,,,,,,,,,,,60fed8cce19b6feaef94c4c5,61036fa68edf5797ea8d68ce,2021-07-29_23h22.09.036,Simcolourproject_2stim_asymm_v5,2020.2.10,MacIntel,60,61025ae37ef11b136ea224fe,,,,,,,,,1592,57.26171875,36.38616943,1,0,0,response1disk,,6,11.95007324,7.850830078,1,0,0,rectangle,43.02478027,-81.39263916,1,0,0,28.00958252,-1.501159668,1,0,0,0,111,111,105,1,,response3disk_3,TRUE,4,4,"[36,298,217,147,112,92,258,60,137,206,277,103,224,164,149,52,276,142,188,211]",1.4833,rectangle
,,,,,,,,,,,,,FF,,,,,,,,1.2335,,,,,,,,,,,,,,,,,,,,,,60fed8cce19b6feaef94c4c5,61036fa68edf5797ea8d68ce,2021-07-29_23h22.09.036,Simcolourproject_2stim_asymm_v5,2020.2.10,MacIntel,60,61025ae37ef11b136ea224fe,,,,,,,,,1459,-42.35339355,-81.5088501,1,0,0,response5disk,,3,-27.86236572,-9.805236816,1,0,0,rectangle,-27.86236572,-9.805236816,1,0,0,-27.86236572,-9.805236816,1,0,0,0,112,112,50,1,,,,,,,,
,,,,,,,,,,,,,FF,,,,,,,,1.5179,,,,,,,,,,,,,,,,,,,,,,60fed8cce19b6feaef94c4c5,61036fa68edf5797ea8d68ce,2021-07-29_23h22.09.036,Simcolourproject_2stim_asymm_v5,2020.2.10,MacIntel,60,61025ae37ef11b136ea224fe,,,,,,,,,3915,43.48248291,71.5703125,1,0,0,response1disk,,7,7.1015625,0.565826416,1,0,0,rectangle,7.1015625,0.565826416,1,0,0,7.1015625,0.565826416,1,0,0,0,113,113,143,1,,,,,,,,
,,,,,,,,,,,,,FF,,,,,,,,1.2754,,,,,,,,,,,,,,,,,,,,,,60fed8cce19b6feaef94c4c5,61036fa68edf5797ea8d68ce,2021-07-29_23h22.09.036,Simcolourproject_2stim_asymm_v5,2020.2.10,MacIntel,60,61025ae37ef11b136ea224fe,,,,,,,,,1553,84.4942627,41.40161133,1,0,0,response1disk,,6,23.87542725,11.4442749,1,0,0,rectangle,23.87542725,11.4442749,1,0,0,23.87542725,11.4442749,1,0,0,0,114,114,134,1,,,,,,,,
,,,,,,,,,,,,,FF,,,,,,,,1.267,,,,,,,,,,,,,,,,,,,,,,60fed8cce19b6feaef94c4c5,61036fa68edf5797ea8d68ce,2021-07-29_23h22.09.036,Simcolourproject_2stim_asymm_v5,2020.2.10,MacIntel,60,61025ae37ef11b136ea224fe,,,,,,,,,3488,25.80480957,47.10571289,1,0,0,response1disk,,7,2.911376953,-7.327880859,1,0,0,rectangle,2.911376953,-7.327880859,1,0,0,2.911376953,-7.327880859,1,0,0,0,115,115,9,1,,,,,,,,
,,,,,,,,,,,,,FF,,,,,,,,0.6659,,,,,,,,,,,,,,,,,,,,,,60fed8cce19b6feaef94c4c5,61036fa68edf5797ea8d68ce,2021-07-29_23h22.09.036,Simcolourproject_2stim_asymm_v5,2020.2.10,MacIntel,60,61025ae37ef11b136ea224fe,,,,,,,,,1259,21.66064453,79.76818848,1,0,0,response1disk,,7,-2.936096191,-10.02178955,1,0,0,rectangle,-2.936096191,-10.02178955,1,0,0,-2.936096191,-10.02178955,1,0,0,0,116,116,108,1,,,,,,,,
,,,,,,,,,,,,,FF,,,,,,,,3.0495,,,,,,,,,,,,,,,,,,,,,,60fed8cce19b6feaef94c4c5,61036fa68edf5797ea8d68ce,2021-07-29_23h22.09.036,Simcolourproject_2stim_asymm_v5,2020.2.10,MacIntel,60,61025ae37ef11b136ea224fe,,,,,,,,,2920,28.50280762,57.58233643,1,0,0,response1disk,,7,3.372070313,8.200286865,1,0,0,rectangle,3.372070313,8.200286865,1,0,0,3.372070313,8.200286865,1,0,0,0,117,117,87,1,,,,,,,,
,,,,,,,,,,,,,FF,,,,,,,,1.2481,,,,,,,,,,,,,,,,,,,,,,60fed8cce19b6feaef94c4c5,61036fa68edf5797ea8d68ce,2021-07-29_23h22.09.036,Simcolourproject_2stim_asymm_v5,2020.2.10,MacIntel,60,61025ae37ef11b136ea224fe,,,,,,,,,3940,-36.04431152,-72.3494873,1,0,0,response5disk,,3,-14.79016113,-0.594604492,1,0,0,rectangle,-14.79016113,-0.594604492,1,0,0,-14.79016113,-0.594604492,1,0,0,0,118,118,103,1,,,,,,,,
,,,,,,,,,,,,,FF,,,,,,,,2.7847,,,,,,,,,,,,,,,,,,,,,,60fed8cce19b6feaef94c4c5,61036fa68edf5797ea8d68ce,2021-07-29_23h22.09.036,Simcolourproject_2stim_asymm_v5,2020.2.10,MacIntel,60,61025ae37ef11b136ea224fe,,,,,,,,,3645,-24.52844238,55.8012085,1,0,0,response7disk,,0,12.13061523,3.032775879,1,0,0,rectangle,12.13061523,3.032775879,1,0,0,12.13061523,3.032775879,1,0,0,0,119,119,68,1,,,,,,,,
,,,,,,,,,,,,,FF,,,,,,,,0.7,,,,,,,,,,,,,,,,,,,,,,60fed8cce19b6feaef94c4c5,61036fa68edf5797ea8d68ce,2021-07-29_23h22.09.036,Simcolourproject_2stim_asymm_v5,2020.2.10,MacIntel,60,61025ae37ef11b136ea224fe,,,,,,,,,764,23.42156982,45.43994141,1,0,0,response1disk,,7,1.352172852,-0.685058594,1,0,0,rectangle,1.352172852,-0.685058594,1,0,0,1.352172852,-0.685058594,1,0,0,0,120,120,28,1,,,,,,,,
,,,,,,,,,,,,,FF,,,,,,,,1.3999,,,,,,,,,,,,,,,,,,,,,,60fed8cce19b6feaef94c4c5,61036fa68edf5797ea8d68ce,2021-07-29_23h22.09.036,Simcolourproject_2stim_asymm_v5,2020.2.10,MacIntel,60,61025ae37ef11b136ea224fe,,,,,,,,,1124,-38.17492676,-61.48266602,1,0,0,response5disk,,3,-1.381286621,15.27288818,1,0,0,rectangle,-1.381286621,15.27288818,1,0,0,-1.381286621,15.27288818,1,0,0,0,121,121,5,1,,,,,,,,
,,,,,,,,,,,,,FF,,,,,,,,0.7846,,,,,,,,,,,,,,,,,,,,,,60fed8cce19b6feaef94c4c5,61036fa68edf5797ea8d68ce,2021-07-29_23h22.09.036,Simcolourproject_2stim_asymm_v5,2020.2.10,MacIntel,60,61025ae37ef11b136ea224fe,,,,,,,,,389,27.14520264,68.71875,1,0,0,response1disk,,7,11.62243652,-8.139709473,1,0,0,rectangle,11.62243652,-8.139709473,1,0,0,11.62243652,-8.139709473,1,0,0,0,122,122,99,1,,,,,,,,
,,,,,,,,,,,,,FF,,,,,,,,1.0493,,,,,,,,,,,,,,,,,,,,,,60fed8cce19b6feaef94c4c5,61036fa68edf5797ea8d68ce,2021-07-29_23h22.09.036,Simcolourproject_2stim_asymm_v5,2020.2.10,MacIntel,60,61025ae37ef11b136ea224fe,,,,,,,,,1363,35.24499512,47.77209473,1,0,0,response1disk,,7,15.65625,0.964263916,1,0,0,rectangle,15.65625,0.964263916,1,0,0,15.65625,0.964263916,1,0,0,0,123,123,158,1,,,,,,,,
,,,,,,,,,,,,,FF,,,,,,,,1.3687,,,,,,,,,,,,,,,,,,,,,,60fed8cce19b6feaef94c4c5,61036fa68edf5797ea8d68ce,2021-07-29_23h22.09.036,Simcolourproject_2stim_asymm_v5,2020.2.10,MacIntel,60,61025ae37ef11b136ea224fe,,,,,,,,,2654,67.54644775,-33.25073242,1,0,0,response3disk,,5,3.408752441,-11.57244873,1,0,0,rectangle,3.408752441,-11.57244873,1,0,0,3.408752441,-11.57244873,1,0,0,0,124,124,110,1,,,,,,,,
,,,,,,,,,,,,,FF,,,,,,,,1.5987,,,,,,,,,,,,,,,,,,,,,,60fed8cce19b6feaef94c4c5,61036fa68edf5797ea8d68ce,2021-07-29_23h22.09.036,Simcolourproject_2stim_asymm_v5,2020.2.10,MacIntel,60,61025ae37ef11b136ea224fe,,,,,,,,,865,37.6862793,70.98596191,1,0,0,response1disk,,7,8.888549805,-3.928985596,1,0,0,rectangle,8.888549805,-3.928985596,1,0,0,8.888549805,-3.928985596,1,0,0,0,125,125,31,1,,,,,,,,
,,,,,,,,,,,,,FF,,,,,,,,0.8983,,,,,,,,,,,,,,,,,,,,,,60fed8cce19b6feaef94c4c5,61036fa68edf5797ea8d68ce,2021-07-29_23h22.09.036,Simcolourproject_2stim_asymm_v5,2020.2.10,MacIntel,60,61025ae37ef11b136ea224fe,,,,,,,,,761,36.24243164,39.57925415,1,0,0,response1disk,,7,16.46850586,2.636413574,1,0,0,rectangle,16.46850586,2.636413574,1,0,0,16.46850586,2.636413574,1,0,0,0,126,126,13,1,,,,,,,,
,,,,,,,,,,,,,FF,,,,,,,,1.2328,,,,,,,,,,,,,,,,,,,,,,60fed8cce19b6feaef94c4c5,61036fa68edf5797ea8d68ce,2021-07-29_23h22.09.036,Simcolourproject_2stim_asymm_v5,2020.2.10,MacIntel,60,61025ae37ef11b136ea224fe,,,,,,,,,906,61.38092041,33.17523193,1,0,0,response1disk,,6,17.99121094,5.117797852,1,0,0,rectangle,17.99121094,5.117797852,1,0,0,17.99121094,5.117797852,1,0,0,0,127,127,159,1,,,,,,,,
,,,,,,,,,,,,,FF,,,,,,,,1.1825,,,,,,,,,,,,,,,,,,,,,,60fed8cce19b6feaef94c4c5,61036fa68edf5797ea8d68ce,2021-07-29_23h22.09.036,Simcolourproject_2stim_asymm_v5,2020.2.10,MacIntel,60,61025ae37ef11b136ea224fe,,,,,,,,,1372,56.24597168,-32.50793457,1,0,0,response3disk,,5,4.628295898,-4.372558594,1,0,0,rectangle,4.628295898,-4.372558594,1,0,0,4.628295898,-4.372558594,1,0,0,0,128,128,121,1,,,,,,,,
,,,,,,,,,,,,,FF,,,,,,,,1.0832,,,,,,,,,,,,,,,,,,,,,,60fed8cce19b6feaef94c4c5,61036fa68edf5797ea8d68ce,2021-07-29_23h22.09.036,Simcolourproject_2stim_asymm_v5,2020.2.10,MacIntel,60,61025ae37ef11b136ea224fe,,,,,,,,,3012,83.83459473,43.19363403,1,0,0,response1disk,,6,19.9553833,6.971435547,1,0,0,rectangle,19.9553833,6.971435547,1,0,0,19.9553833,6.971435547,1,0,0,0,129,129,6,1,,,,,,,,
,,,,,,,,,,,,,FF,,,,,,,,0.984,,,,,,,,,,,,,,,,,,,,,,60fed8cce19b6feaef94c4c5,61036fa68edf5797ea8d68ce,2021-07-29_23h22.09.036,Simcolourproject_2stim_asymm_v5,2020.2.10,MacIntel,60,61025ae37ef11b136ea224fe,,,,,,,,,2666,43.65270996,-60.51501465,1,0,0,response3disk,,4,28.84118652,-6.946838379,1,0,0,rectangle,28.84118652,-6.946838379,1,0,0,28.84118652,-6.946838379,1,0,0,0,130,130,123,1,,,,,,,,
,,,,,,,,,,,,,FF,,,,,,,,0.6158,,,,,,,,,,,,,,,,,,,,,,60fed8cce19b6feaef94c4c5,61036fa68edf5797ea8d68ce,2021-07-29_23h22.09.036,Simcolourproject_2stim_asymm_v5,2020.2.10,MacIntel,60,61025ae37ef11b136ea224fe,,,,,,,,,3315,51.54931641,89.59197998,1,0,0,response1disk,,7,10.19763184,6.783325195,1,0,0,rectangle,10.19763184,6.783325195,1,0,0,10.19763184,6.783325195,1,0,0,0,131,131,140,1,,,,,,,,
,,,,,,,,,,,,,FF,,,,,,,,1.1666,,,,,,,,,,,,,,,,,,,,,,60fed8cce19b6feaef94c4c5,61036fa68edf5797ea8d68ce,2021-07-29_23h22.09.036,Simcolourproject_2stim_asymm_v5,2020.2.10,MacIntel,60,61025ae37ef11b136ea224fe,,,,,,,,,3763,19.28851318,71.1578064,1,0,0,response1disk,,7,-11.38903809,7.371063232,1,0,0,rectangle,-11.38903809,7.371063232,1,0,0,-11.38903809,7.371063232,1,0,0,0,132,132,112,1,,,,,,,,
,,,,,,,,,,,,,FF,,,,,,,,0.8988,,,,,,,,,,,,,,,,,,,,,,60fed8cce19b6feaef94c4c5,61036fa68edf5797ea8d68ce,2021-07-29_23h22.09.036,Simcolourproject_2stim_asymm_v5,2020.2.10,MacIntel,60,61025ae37ef11b136ea224fe,,,,,,,,,1545,26.6305542,45.78704834,1,0,0,response1disk,,7,16.9418335,11.25668335,1,0,0,rectangle,16.9418335,11.25668335,1,0,0,16.9418335,11.25668335,1,0,0,0,133,133,85,1,,,,,,,,
,,,,,,,,,,,,,FF,,,,,,,,0.4822,,,,,,,,,,,,,,,,,,,,,,60fed8cce19b6feaef94c4c5,61036fa68edf5797ea8d68ce,2021-07-29_23h22.09.036,Simcolourproject_2stim_asymm_v5,2020.2.10,MacIntel,60,61025ae37ef11b136ea224fe,,,,,,,,,133,29.12817383,47.83312988,1,0,0,response1disk,,7,8.063171387,1.932922363,1,0,0,rectangle,8.063171387,1.932922363,1,0,0,8.063171387,1.932922363,1,0,0,0,134,134,117,1,,,,,,,,
,,,,,,,,,,,,,FF,,,,,,,,0.4673,,,,,,,,,,,,,,,,,,,,,,60fed8cce19b6feaef94c4c5,61036fa68edf5797ea8d68ce,2021-07-29_23h22.09.036,Simcolourproject_2stim_asymm_v5,2020.2.10,MacIntel,60,61025ae37ef11b136ea224fe,,,,,,,,,52,30.71154785,46.54370117,1,0,0,response1disk,,7,12.62878418,12.58944702,1,0,0,rectangle,12.62878418,12.58944702,1,0,0,12.62878418,12.58944702,1,0,0,0,135,135,0,1,,,,,,,,
,,,,,,,,,,,,,FF,,,,,,,,0.4665,,,,,,,,,,,,,,,,,,,,,,60fed8cce19b6feaef94c4c5,61036fa68edf5797ea8d68ce,2021-07-29_23h22.09.036,Simcolourproject_2stim_asymm_v5,2020.2.10,MacIntel,60,61025ae37ef11b136ea224fe,,,,,,,,,2633,28.89276123,63.76202393,1,0,0,response1disk,,7,15.90356445,6.278503418,1,0,0,rectangle,86.85894775,43.28689575,1,0,0,18.60913086,5.50402832,1,0,0,0,136,136,153,1,,response1disk_3,TRUE,6,6,"[36,298,217,147,112,92,258,60,137,206,277,103,224,164,149,52,276,142,188,211]",1.4994,rectangle
,,,,,,,,,,,,,FF,,,,,,,,1.1159,,,,,,,,,,,,,,,,,,,,,,60fed8cce19b6feaef94c4c5,61036fa68edf5797ea8d68ce,2021-07-29_23h22.09.036,Simcolourproject_2stim_asymm_v5,2020.2.10,MacIntel,60,61025ae37ef11b136ea224fe,,,,,,,,,3432,-87.2421875,-33.14691162,1,0,0,response5disk,,2,-14.2800293,2.11328125,1,0,0,rectangle,-14.2800293,2.11328125,1,0,0,-14.2800293,2.11328125,1,0,0,0,137,137,30,1,,,,,,,,
,,,,,,,,,,,,,FF,,,,,,,,0.5325,,,,,,,,,,,,,,,,,,,,,,60fed8cce19b6feaef94c4c5,61036fa68edf5797ea8d68ce,2021-07-29_23h22.09.036,Simcolourproject_2stim_asymm_v5,2020.2.10,MacIntel,60,61025ae37ef11b136ea224fe,,,,,,,,,3431,-59.72119141,-25.91809082,1,0,0,response5disk,,2,13.24584961,8.772949219,1,0,0,rectangle,13.24584961,8.772949219,1,0,0,13.24584961,8.772949219,1,0,0,0,138,138,154,1,,,,,,,,
,,,,,,,,,,,,,FF,,,,,,,,1.6011,,,,,,,,,,,,,,,,,,,,,,60fed8cce19b6feaef94c4c5,61036fa68edf5797ea8d68ce,2021-07-29_23h22.09.036,Simcolourproject_2stim_asymm_v5,2020.2.10,MacIntel,60,61025ae37ef11b136ea224fe,,,,,,,,,4203,-38.64764404,-71.75494385,1,0,0,response5disk,,3,-14.20324707,9.430541992,1,0,0,rectangle,-14.20324707,9.430541992,1,0,0,-14.20324707,9.430541992,1,0,0,0,139,139,73,1,,,,,,,,
,,,,,,,,,,,,,FF,,,,,,,,0.9843,,,,,,,,,,,,,,,,,,,,,,60fed8cce19b6feaef94c4c5,61036fa68edf5797ea8d68ce,2021-07-29_23h22.09.036,Simcolourproject_2stim_asymm_v5,2020.2.10,MacIntel,60,61025ae37ef11b136ea224fe,,,,,,,,,3054,-39.74713135,-68.64227295,1,0,0,response5disk,,3,0.819030762,8.74105835,1,0,0,rectangle,0.819030762,8.74105835,1,0,0,0.819030762,8.74105835,1,0,0,0,140,140,89,1,,,,,,,,
,,,,,,,,,,,,,FF,,,,,,,,1.4002,,,,,,,,,,,,,,,,,,,,,,60fed8cce19b6feaef94c4c5,61036fa68edf5797ea8d68ce,2021-07-29_23h22.09.036,Simcolourproject_2stim_asymm_v5,2020.2.10,MacIntel,60,61025ae37ef11b136ea224fe,,,,,,,,,1280,26.4050293,35.47546387,1,0,0,response1disk,,7,10.71820068,2.421325684,1,0,0,rectangle,33.59838867,74.36602783,1,0,0,18.73449707,15.58776855,1,0,0,0,141,141,1,1,,response1disk_3,TRUE,7,7,"[36,298,217,147,112,92,258,60,137,206,277,103,224,164,149,52,276,142,188,211]",1.6438,rectangle
,,,,,,,,,,,,,FF,,,,,,,,0.584,,,,,,,,,,,,,,,,,,,,,,60fed8cce19b6feaef94c4c5,61036fa68edf5797ea8d68ce,2021-07-29_23h22.09.036,Simcolourproject_2stim_asymm_v5,2020.2.10,MacIntel,60,61025ae37ef11b136ea224fe,,,,,,,,,56,21.793396,44.46575928,1,0,0,response1disk,,7,10.09130859,5.952209473,1,0,0,rectangle,10.09130859,5.952209473,1,0,0,10.09130859,5.952209473,1,0,0,0,142,142,84,1,,,,,,,,
,,,,,,,,,,,,,FF,,,,,,,,1.1666,,,,,,,,,,,,,,,,,,,,,,60fed8cce19b6feaef94c4c5,61036fa68edf5797ea8d68ce,2021-07-29_23h22.09.036,Simcolourproject_2stim_asymm_v5,2020.2.10,MacIntel,60,61025ae37ef11b136ea224fe,,,,,,,,,618,-75.67315674,-52.81256104,1,0,0,response5disk,,2,-9.697021484,-5.702789307,1,0,0,rectangle,-9.697021484,-5.702789307,1,0,0,-9.697021484,-5.702789307,1,0,0,0,143,143,46,1,,,,,,,,
,,,,,,,,,,,,,FF,,,,,,,,0.8337,,,,,,,,,,,,,,,,,,,,,,60fed8cce19b6feaef94c4c5,61036fa68edf5797ea8d68ce,2021-07-29_23h22.09.036,Simcolourproject_2stim_asymm_v5,2020.2.10,MacIntel,60,61025ae37ef11b136ea224fe,,,,,,,,,1558,19.8939209,-55.5177002,1,0,0,response3disk,,4,-1.991149902,3.942321777,1,0,0,rectangle,-1.991149902,3.942321777,1,0,0,-1.991149902,3.942321777,1,0,0,0,144,144,15,1,,,,,,,,
,,,,,,,,,,,,,FF,,,,,,,,0.5832,,,,,,,,,,,,,,,,,,,,,,60fed8cce19b6feaef94c4c5,61036fa68edf5797ea8d68ce,2021-07-29_23h22.09.036,Simcolourproject_2stim_asymm_v5,2020.2.10,MacIntel,60,61025ae37ef11b136ea224fe,,,,,,,,,3232,15.72039795,66.15344238,1,0,0,response1disk,,7,7.88293457,-0.950195313,1,0,0,rectangle,7.88293457,-0.950195313,1,0,0,7.88293457,-0.950195313,1,0,0,0,145,145,17,1,,,,,,,,
,,,,,,,,,,,,,FF,,,,,,,,0.8497,,,,,,,,,,,,,,,,,,,,,,60fed8cce19b6feaef94c4c5,61036fa68edf5797ea8d68ce,2021-07-29_23h22.09.036,Simcolourproject_2stim_asymm_v5,2020.2.10,MacIntel,60,61025ae37ef11b136ea224fe,,,,,,,,,2060,38.90466309,57.3442688,1,0,0,response1disk,,7,23.06872559,6.839050293,1,0,0,rectangle,42.49371338,66.40899658,1,0,0,23.79315186,-3.896881104,1,0,0,0,146,146,155,1,,response1disk_3,TRUE,7,7,"[36,298,217,147,112,92,258,60,137,206,277,103,224,164,149,52,276,142,188,211]",1.377,rectangle
,,,,,,,,,,,,,FF,,,,,,,,2.25,,,,,,,,,,,,,,,,,,,,,,60fed8cce19b6feaef94c4c5,61036fa68edf5797ea8d68ce,2021-07-29_23h22.09.036,Simcolourproject_2stim_asymm_v5,2020.2.10,MacIntel,60,61025ae37ef11b136ea224fe,,,,,,,,,3650,38.26257324,76.25271606,1,0,0,response1disk,,7,5.533813477,-4.206085205,1,0,0,rectangle,5.533813477,-4.206085205,1,0,0,5.533813477,-4.206085205,1,0,0,0,147,147,93,1,,,,,,,,
,,,,,,,,,,,,,FF,,,,,,,,0.9998,,,,,,,,,,,,,,,,,,,,,,60fed8cce19b6feaef94c4c5,61036fa68edf5797ea8d68ce,2021-07-29_23h22.09.036,Simcolourproject_2stim_asymm_v5,2020.2.10,MacIntel,60,61025ae37ef11b136ea224fe,,,,,,,,,1429,65.25512695,23.15533447,1,0,0,response1disk,,6,-5.867675781,-8.260650635,1,0,0,rectangle,-34.08105469,87.53033447,1,0,0,-9.89831543,-4.557495117,1,0,0,0,148,148,8,1,,response7disk_3,TRUE,0,0,"[36,298,217,147,112,92,258,60,137,206,277,103,224,164,149,52,276,142,188,211]",1.4329,rectangle
,,,,,,,,,,,,,FF,,,,,,,,1.1008,,,,,,,,,,,,,,,,,,,,,,60fed8cce19b6feaef94c4c5,61036fa68edf5797ea8d68ce,2021-07-29_23h22.09.036,Simcolourproject_2stim_asymm_v5,2020.2.10,MacIntel,60,61025ae37ef11b136ea224fe,,,,,,,,,3930,35.61334229,-78.60906982,1,0,0,response3disk,,4,29.05786133,9.062255859,1,0,0,rectangle,29.05786133,9.062255859,1,0,0,29.05786133,9.062255859,1,0,0,0,149,149,86,1,,,,,,,,
,,,,,,,,,,,,,FF,,,,,,,,1.0328,,,,,,,,,,,,,,,,,,,,,,60fed8cce19b6feaef94c4c5,61036fa68edf5797ea8d68ce,2021-07-29_23h22.09.036,Simcolourproject_2stim_asymm_v5,2020.2.10,MacIntel,60,61025ae37ef11b136ea224fe,,,,,,,,,3367,22.19927979,63.62158203,1,0,0,response1disk,,7,9.987121582,-6.043701172,1,0,0,rectangle,9.987121582,-6.043701172,1,0,0,9.987121582,-6.043701172,1,0,0,0,150,150,61,1,,,,,,,,
,,,,,,,,,,,,,FF,,,,,,,,1.1998,,,,,,,,,,,,,,,,,,,,,,60fed8cce19b6feaef94c4c5,61036fa68edf5797ea8d68ce,2021-07-29_23h22.09.036,Simcolourproject_2stim_asymm_v5,2020.2.10,MacIntel,60,61025ae37ef11b136ea224fe,,,,,,,,,878,29.57104492,51.17279053,1,0,0,response1disk,,7,-1.273925781,-12.37536621,1,0,0,rectangle,-1.273925781,-12.37536621,1,0,0,-1.273925781,-12.37536621,1,0,0,0,151,151,137,1,,,,,,,,
,,,,,,,,,,,,,FF,,,,,,,,0.5316,,,,,,,,,,,,,,,,,,,,,,60fed8cce19b6feaef94c4c5,61036fa68edf5797ea8d68ce,2021-07-29_23h22.09.036,Simcolourproject_2stim_asymm_v5,2020.2.10,MacIntel,60,61025ae37ef11b136ea224fe,,,,,,,,,3735,24.99499512,41.43762207,1,0,0,response1disk,,7,12.47625732,0.899108887,1,0,0,rectangle,12.47625732,0.899108887,1,0,0,12.47625732,0.899108887,1,0,0,0,152,152,70,1,,,,,,,,
,,,,,,,,,,,,,FF,,,,,,,,0.4992,,,,,,,,,,,,,,,,,,,,,,60fed8cce19b6feaef94c4c5,61036fa68edf5797ea8d68ce,2021-07-29_23h22.09.036,Simcolourproject_2stim_asymm_v5,2020.2.10,MacIntel,60,61025ae37ef11b136ea224fe,,,,,,,,,920,25.2276001,36.47766113,1,0,0,response1disk,,7,13.71984863,0.642028809,1,0,0,rectangle,13.71984863,0.642028809,1,0,0,13.71984863,0.642028809,1,0,0,0,153,153,67,1,,,,,,,,
,,,,,,,,,,,,,FF,,,,,,,,0.4326,,,,,,,,,,,,,,,,,,,,,,60fed8cce19b6feaef94c4c5,61036fa68edf5797ea8d68ce,2021-07-29_23h22.09.036,Simcolourproject_2stim_asymm_v5,2020.2.10,MacIntel,60,61025ae37ef11b136ea224fe,,,,,,,,,1347,29.08508301,44.41677856,1,0,0,response1disk,,7,16.93634033,11.06799316,1,0,0,rectangle,16.93634033,11.06799316,1,0,0,16.93634033,11.06799316,1,0,0,0,154,154,41,1,,,,,,,,
,,,,,,,,,,,,,FF,,,,,,,,0.3825,,,,,,,,,,,,,,,,,,,,,,60fed8cce19b6feaef94c4c5,61036fa68edf5797ea8d68ce,2021-07-29_23h22.09.036,Simcolourproject_2stim_asymm_v5,2020.2.10,MacIntel,60,61025ae37ef11b136ea224fe,,,,,,,,,4259,27.81066895,44.4029541,1,0,0,response1disk,,7,18.51593018,0.899597168,1,0,0,rectangle,18.51593018,0.899597168,1,0,0,18.51593018,0.899597168,1,0,0,0,155,155,104,1,,,,,,,,
,,,,,,,,,,,,,FF,,,,,,,,0.4833,,,,,,,,,,,,,,,,,,,,,,60fed8cce19b6feaef94c4c5,61036fa68edf5797ea8d68ce,2021-07-29_23h22.09.036,Simcolourproject_2stim_asymm_v5,2020.2.10,MacIntel,60,61025ae37ef11b136ea224fe,,,,,,,,,2529,29.44329834,40.59710693,1,0,0,response1disk,,7,8.908203125,-2.626251221,1,0,0,rectangle,8.908203125,-2.626251221,1,0,0,8.908203125,-2.626251221,1,0,0,0,156,156,151,1,,,,,,,,
,,,,,,,,,,,,,FF,,,,,,,,0.4483,,,,,,,,,,,,,,,,,,,,,,60fed8cce19b6feaef94c4c5,61036fa68edf5797ea8d68ce,2021-07-29_23h22.09.036,Simcolourproject_2stim_asymm_v5,2020.2.10,MacIntel,60,61025ae37ef11b136ea224fe,,,,,,,,,4154,25.30401611,42.50405884,1,0,0,response1disk,,7,16.50708008,0.61026001,1,0,0,rectangle,16.50708008,0.61026001,1,0,0,16.50708008,0.61026001,1,0,0,0,157,157,106,1,,,,,,,,
,,,,,,,,,,,,,FF,,,,,,,,0.9494,,,,,,,,,,,,,,,,,,,,,,60fed8cce19b6feaef94c4c5,61036fa68edf5797ea8d68ce,2021-07-29_23h22.09.036,Simcolourproject_2stim_asymm_v5,2020.2.10,MacIntel,60,61025ae37ef11b136ea224fe,,,,,,,,,3980,48.22961426,26.31417847,1,0,0,response1disk,,6,26.27258301,14.11032104,1,0,0,rectangle,26.27258301,14.11032104,1,0,0,26.27258301,14.11032104,1,0,0,0,158,158,76,1,,,,,,,,
,,,,,,,,,,,,,FF,,,,,,,,1.3995,,,,,,,,,,,,,,,,,,,,,,60fed8cce19b6feaef94c4c5,61036fa68edf5797ea8d68ce,2021-07-29_23h22.09.036,Simcolourproject_2stim_asymm_v5,2020.2.10,MacIntel,60,61025ae37ef11b136ea224fe,,,,,,,,,1535,35.59643555,-82.17523193,1,0,0,response3disk,,4,23.0112915,-8.136352539,1,0,0,rectangle,23.0112915,-8.136352539,1,0,0,23.0112915,-8.136352539,1,0,0,0,159,159,3,1,,,,,,,,
,,,,,,,,,,,,,FF,,,,,,,,1.1158,,,,,,,,,,,,,,,,,,,,,,60fed8cce19b6feaef94c4c5,61036fa68edf5797ea8d68ce,2021-07-29_23h22.09.036,Simcolourproject_2stim_asymm_v5,2020.2.10,MacIntel,60,61025ae37ef11b136ea224fe,,,,,,,,,4211,17.8684082,43.54266357,1,0,0,response1disk,,7,14.87213135,14.78851318,1,0,0,rectangle,14.87213135,14.78851318,1,0,0,14.87213135,14.78851318,1,0,0,1,0,160,32,1,,,,,,,,
,,,,,,,,,,,,,FF,,,,,,,,1.1492,,,,,,,,,,,,,,,,,,,,,,60fed8cce19b6feaef94c4c5,61036fa68edf5797ea8d68ce,2021-07-29_23h22.09.036,Simcolourproject_2stim_asymm_v5,2020.2.10,MacIntel,60,61025ae37ef11b136ea224fe,,,,,,,,,1742,25.69799805,67.16482544,1,0,0,response1disk,,7,13.78100586,2.48840332,1,0,0,rectangle,13.78100586,2.48840332,1,0,0,13.78100586,2.48840332,1,0,0,1,1,161,29,1,,,,,,,,
,,,,,,,,,,,,,FF,,,,,,,,0.4833,,,,,,,,,,,,,,,,,,,,,,60fed8cce19b6feaef94c4c5,61036fa68edf5797ea8d68ce,2021-07-29_23h22.09.036,Simcolourproject_2stim_asymm_v5,2020.2.10,MacIntel,60,61025ae37ef11b136ea224fe,,,,,,,,,1715,32.49035645,47.59570313,1,0,0,response1disk,,7,11.88623047,7.182678223,1,0,0,rectangle,11.88623047,7.182678223,1,0,0,11.88623047,7.182678223,1,0,0,1,2,162,86,1,,,,,,,,
,,,,,,,,,,,,,FF,,,,,,,,0.9663,,,,,,,,,,,,,,,,,,,,,,60fed8cce19b6feaef94c4c5,61036fa68edf5797ea8d68ce,2021-07-29_23h22.09.036,Simcolourproject_2stim_asymm_v5,2020.2.10,MacIntel,60,61025ae37ef11b136ea224fe,,,,,,,,,3827,98.75653076,29.34765625,1,0,0,response1disk,,6,14.25549316,-2.620300293,1,0,0,rectangle,-39.14996338,-90.28417969,1,0,0,-15.92346191,-6.759246826,1,0,0,1,3,163,9,1,,response5disk_3,TRUE,3,3,"[36,298,217,147,112,92,258,60,137,206,277,103,224,164,149,52,276,142,188,211]",2.3019,rectangle
,,,,,,,,,,,,,FF,,,,,,,,0.7504,,,,,,,,,,,,,,,,,,,,,,60fed8cce19b6feaef94c4c5,61036fa68edf5797ea8d68ce,2021-07-29_23h22.09.036,Simcolourproject_2stim_asymm_v5,2020.2.10,MacIntel,60,61025ae37ef11b136ea224fe,,,,,,,,,2831,-28.76879883,59.92126465,1,0,0,response7disk,,0,-17.9385376,3.746459961,1,0,0,rectangle,-17.9385376,3.746459961,1,0,0,-17.9385376,3.746459961,1,0,0,1,4,164,16,1,,,,,,,,
,,,,,,,,,,,,,FF,,,,,,,,1.1664,,,,,,,,,,,,,,,,,,,,,,60fed8cce19b6feaef94c4c5,61036fa68edf5797ea8d68ce,2021-07-29_23h22.09.036,Simcolourproject_2stim_asymm_v5,2020.2.10,MacIntel,60,61025ae37ef11b136ea224fe,,,,,,,,,1820,48.55023193,-82.64135742,1,0,0,response3disk,,4,20.28045654,-9.729217529,1,0,0,rectangle,20.28045654,-9.729217529,1,0,0,20.28045654,-9.729217529,1,0,0,1,5,165,69,1,,,,,,,,
,,,,,,,,,,,,,FF,,,,,,,,1.1831,,,,,,,,,,,,,,,,,,,,,,60fed8cce19b6feaef94c4c5,61036fa68edf5797ea8d68ce,2021-07-29_23h22.09.036,Simcolourproject_2stim_asymm_v5,2020.2.10,MacIntel,60,61025ae37ef11b136ea224fe,,,,,,,,,3613,42.74536133,71.34942627,1,0,0,response1disk,,7,12.86517334,0.29901123,1,0,0,rectangle,12.86517334,0.29901123,1,0,0,12.86517334,0.29901123,1,0,0,1,6,166,19,1,,,,,,,,
,,,,,,,,,,,,,FF,,,,,,,,0.635,,,,,,,,,,,,,,,,,,,,,,60fed8cce19b6feaef94c4c5,61036fa68edf5797ea8d68ce,2021-07-29_23h22.09.036,Simcolourproject_2stim_asymm_v5,2020.2.10,MacIntel,60,61025ae37ef11b136ea224fe,,,,,,,,,3652,15.54992676,39.5045166,1,0,0,response1disk,,7,10.01696777,13.92004395,1,0,0,rectangle,10.01696777,13.92004395,1,0,0,10.01696777,13.92004395,1,0,0,1,7,167,117,1,,,,,,,,
,,,,,,,,,,,,,FF,,,,,,,,1.0659,,,,,,,,,,,,,,,,,,,,,,60fed8cce19b6feaef94c4c5,61036fa68edf5797ea8d68ce,2021-07-29_23h22.09.036,Simcolourproject_2stim_asymm_v5,2020.2.10,MacIntel,60,61025ae37ef11b136ea224fe,,,,,,,,,1891,-46.16271973,-87.19818115,1,0,0,response5disk,,3,-6.455810547,3.518920898,1,0,0,rectangle,-6.455810547,3.518920898,1,0,0,-6.455810547,3.518920898,1,0,0,1,8,168,93,1,,,,,,,,
,,,,,,,,,,,,,FF,,,,,,,,1.7825,,,,,,,,,,,,,,,,,,,,,,60fed8cce19b6feaef94c4c5,61036fa68edf5797ea8d68ce,2021-07-29_23h22.09.036,Simcolourproject_2stim_asymm_v5,2020.2.10,MacIntel,60,61025ae37ef11b136ea224fe,,,,,,,,,3224,33.76312256,64.68295288,1,0,0,response1disk,,7,17.27294922,-2.249084473,1,0,0,rectangle,17.27294922,-2.249084473,1,0,0,17.27294922,-2.249084473,1,0,0,1,9,169,21,1,,,,,,,,
,,,,,,,,,,,,,FF,,,,,,,,1.0013,,,,,,,,,,,,,,,,,,,,,,60fed8cce19b6feaef94c4c5,61036fa68edf5797ea8d68ce,2021-07-29_23h22.09.036,Simcolourproject_2stim_asymm_v5,2020.2.10,MacIntel,60,61025ae37ef11b136ea224fe,,,,,,,,,3670,-69.10461426,-33.01599121,1,0,0,response5disk,,2,-21.64282227,-14.02435303,1,0,0,rectangle,-21.64282227,-14.02435303,1,0,0,-21.64282227,-14.02435303,1,0,0,1,10,170,91,1,,,,,,,,
,,,,,,,,,,,,,FF,,,,,,,,1.2167,,,,,,,,,,,,,,,,,,,,,,60fed8cce19b6feaef94c4c5,61036fa68edf5797ea8d68ce,2021-07-29_23h22.09.036,Simcolourproject_2stim_asymm_v5,2020.2.10,MacIntel,60,61025ae37ef11b136ea224fe,,,,,,,,,3475,-37.72412109,-70.5592041,1,0,0,response5disk,,3,-17.40032959,4.602294922,1,0,0,rectangle,-17.40032959,4.602294922,1,0,0,-17.40032959,4.602294922,1,0,0,1,11,171,25,1,,,,,,,,
,,,,,,,,,,,,,FF,,,,,,,,1.1827,,,,,,,,,,,,,,,,,,,,,,60fed8cce19b6feaef94c4c5,61036fa68edf5797ea8d68ce,2021-07-29_23h22.09.036,Simcolourproject_2stim_asymm_v5,2020.2.10,MacIntel,60,61025ae37ef11b136ea224fe,,,,,,,,,413,24.22186279,52.63171387,1,0,0,response1disk,,7,10.45428467,8.780975342,1,0,0,rectangle,10.45428467,8.780975342,1,0,0,10.45428467,8.780975342,1,0,0,1,12,172,88,1,,,,,,,,
,,,,,,,,,,,,,FF,,,,,,,,0.6187,,,,,,,,,,,,,,,,,,,,,,60fed8cce19b6feaef94c4c5,61036fa68edf5797ea8d68ce,2021-07-29_23h22.09.036,Simcolourproject_2stim_asymm_v5,2020.2.10,MacIntel,60,61025ae37ef11b136ea224fe,,,,,,,,,2586,22.3682251,59.97958374,1,0,0,response1disk,,7,16.32409668,4.961639404,1,0,0,rectangle,16.32409668,4.961639404,1,0,0,16.32409668,4.961639404,1,0,0,1,13,173,35,1,,,,,,,,
,,,,,,,,,,,,,FF,,,,,,,,0.6822,,,,,,,,,,,,,,,,,,,,,,60fed8cce19b6feaef94c4c5,61036fa68edf5797ea8d68ce,2021-07-29_23h22.09.036,Simcolourproject_2stim_asymm_v5,2020.2.10,MacIntel,60,61025ae37ef11b136ea224fe,,,,,,,,,2211,40.95397949,57.51312256,1,0,0,response1disk,,7,23.57080078,15.59310913,1,0,0,rectangle,23.57080078,15.59310913,1,0,0,23.57080078,15.59310913,1,0,0,1,14,174,131,1,,,,,,,,
,,,,,,,,,,,,,FF,,,,,,,,0.8842,,,,,,,,,,,,,,,,,,,,,,60fed8cce19b6feaef94c4c5,61036fa68edf5797ea8d68ce,2021-07-29_23h22.09.036,Simcolourproject_2stim_asymm_v5,2020.2.10,MacIntel,60,61025ae37ef11b136ea224fe,,,,,,,,,882,62.77166748,28.95532227,1,0,0,response1disk,,6,4.33972168,-8.06918335,1,0,0,rectangle,4.33972168,-8.06918335,1,0,0,4.33972168,-8.06918335,1,0,0,1,15,175,113,1,,,,,,,,
,,,,,,,,,,,,,FF,,,,,,,,0.5838,,,,,,,,,,,,,,,,,,,,,,60fed8cce19b6feaef94c4c5,61036fa68edf5797ea8d68ce,2021-07-29_23h22.09.036,Simcolourproject_2stim_asymm_v5,2020.2.10,MacIntel,60,61025ae37ef11b136ea224fe,,,,,,,,,2632,20.8737793,64.63769531,1,0,0,response1disk,,7,14.64080811,7.629943848,1,0,0,rectangle,14.64080811,7.629943848,1,0,0,14.64080811,7.629943848,1,0,0,1,16,176,101,1,,,,,,,,
,,,,,,,,,,,,,FF,,,,,,,,1.0509,,,,,,,,,,,,,,,,,,,,,,60fed8cce19b6feaef94c4c5,61036fa68edf5797ea8d68ce,2021-07-29_23h22.09.036,Simcolourproject_2stim_asymm_v5,2020.2.10,MacIntel,60,61025ae37ef11b136ea224fe,,,,,,,,,2853,75.56243896,44.35400391,1,0,0,response1disk,,6,8.521118164,-8.134063721,1,0,0,rectangle,8.521118164,-8.134063721,1,0,0,8.521118164,-8.134063721,1,0,0,1,17,177,28,1,,,,,,,,
,,,,,,,,,,,,,FF,,,,,,,,1.5018,,,,,,,,,,,,,,,,,,,,,,60fed8cce19b6feaef94c4c5,61036fa68edf5797ea8d68ce,2021-07-29_23h22.09.036,Simcolourproject_2stim_asymm_v5,2020.2.10,MacIntel,60,61025ae37ef11b136ea224fe,,,,,,,,,3776,-69.9465332,44.38677979,1,0,0,response7disk,,1,-23.81317139,13.35559082,1,0,0,rectangle,-23.81317139,13.35559082,1,0,0,-23.81317139,13.35559082,1,0,0,1,18,178,155,1,,,,,,,,
,,,,,,,,,,,,,FF,,,,,,,,1.3328,,,,,,,,,,,,,,,,,,,,,,60fed8cce19b6feaef94c4c5,61036fa68edf5797ea8d68ce,2021-07-29_23h22.09.036,Simcolourproject_2stim_asymm_v5,2020.2.10,MacIntel,60,61025ae37ef11b136ea224fe,,,,,,,,,857,35.26751709,71.44818115,1,0,0,response1disk,,7,15.66308594,1.670410156,1,0,0,rectangle,15.66308594,1.670410156,1,0,0,15.66308594,1.670410156,1,0,0,1,19,179,62,1,,,,,,,,
,,,,,,,,,,,,,FF,,,,,,,,1.9006,,,,,,,,,,,,,,,,,,,,,,60fed8cce19b6feaef94c4c5,61036fa68edf5797ea8d68ce,2021-07-29_23h22.09.036,Simcolourproject_2stim_asymm_v5,2020.2.10,MacIntel,60,61025ae37ef11b136ea224fe,,,,,,,,,4148,47.23272705,-83.21618652,1,0,0,response3disk,,4,18.06549072,13.73101807,1,0,0,rectangle,18.06549072,13.73101807,1,0,0,18.06549072,13.73101807,1,0,0,1,20,180,82,1,,,,,,,,
,,,,,,,,,,,,,FF,,,,,,,,1.3824,,,,,,,,,,,,,,,,,,,,,,60fed8cce19b6feaef94c4c5,61036fa68edf5797ea8d68ce,2021-07-29_23h22.09.036,Simcolourproject_2stim_asymm_v5,2020.2.10,MacIntel,60,61025ae37ef11b136ea224fe,,,,,,,,,196,66.64129639,33.23071289,1,0,0,response1disk,,6,-2.224304199,-9.645263672,1,0,0,rectangle,-2.224304199,-9.645263672,1,0,0,-2.224304199,-9.645263672,1,0,0,1,21,181,20,1,,,,,,,,
,,,,,,,,,,,,,FF,,,,,,,,0.8996,,,,,,,,,,,,,,,,,,,,,,60fed8cce19b6feaef94c4c5,61036fa68edf5797ea8d68ce,2021-07-29_23h22.09.036,Simcolourproject_2stim_asymm_v5,2020.2.10,MacIntel,60,61025ae37ef11b136ea224fe,,,,,,,,,4104,61.40979004,-25.50003052,1,0,0,response3disk,,5,13.21270752,-8.075927734,1,0,0,rectangle,13.21270752,-8.075927734,1,0,0,13.21270752,-8.075927734,1,0,0,1,22,182,111,1,,,,,,,,
,,,,,,,,,,,,,FF,,,,,,,,0.7009,,,,,,,,,,,,,,,,,,,,,,60fed8cce19b6feaef94c4c5,61036fa68edf5797ea8d68ce,2021-07-29_23h22.09.036,Simcolourproject_2stim_asymm_v5,2020.2.10,MacIntel,60,61025ae37ef11b136ea224fe,,,,,,,,,521,45.98303223,89.95336914,1,0,0,response1disk,,7,8.524475098,-17.61743164,1,0,0,rectangle,8.524475098,-17.61743164,1,0,0,8.524475098,-17.61743164,1,0,0,1,23,183,92,1,,,,,,,,
,,,,,,,,,,,,,FF,,,,,,,,0.9167,,,,,,,,,,,,,,,,,,,,,,60fed8cce19b6feaef94c4c5,61036fa68edf5797ea8d68ce,2021-07-29_23h22.09.036,Simcolourproject_2stim_asymm_v5,2020.2.10,MacIntel,60,61025ae37ef11b136ea224fe,,,,,,,,,738,52.23150635,65.62786865,1,0,0,response1disk,,7,6.711486816,13.42233276,1,0,0,rectangle,6.711486816,13.42233276,1,0,0,6.711486816,13.42233276,1,0,0,1,24,184,116,1,,,,,,,,
,,,,,,,,,,,,,FF,,,,,,,,1.5673,,,,,,,,,,,,,,,,,,,,,,60fed8cce19b6feaef94c4c5,61036fa68edf5797ea8d68ce,2021-07-29_23h22.09.036,Simcolourproject_2stim_asymm_v5,2020.2.10,MacIntel,60,61025ae37ef11b136ea224fe,,,,,,,,,3910,66.57977295,-36.45831299,1,0,0,response3disk,,5,9.128356934,-3.371948242,1,0,0,rectangle,9.128356934,-3.371948242,1,0,0,9.128356934,-3.371948242,1,0,0,1,25,185,4,1,,,,,,,,
,,,,,,,,,,,,,FF,,,,,,,,0.7666,,,,,,,,,,,,,,,,,,,,,,60fed8cce19b6feaef94c4c5,61036fa68edf5797ea8d68ce,2021-07-29_23h22.09.036,Simcolourproject_2stim_asymm_v5,2020.2.10,MacIntel,60,61025ae37ef11b136ea224fe,,,,,,,,,4035,63.078125,37.59616089,1,0,0,response1disk,,6,13.81414795,10.49081421,1,0,0,rectangle,13.81414795,10.49081421,1,0,0,13.81414795,10.49081421,1,0,0,1,26,186,72,1,,,,,,,,
,,,,,,,,,,,,,FF,,,,,,,,1.5833,,,,,,,,,,,,,,,,,,,,,,60fed8cce19b6feaef94c4c5,61036fa68edf5797ea8d68ce,2021-07-29_23h22.09.036,Simcolourproject_2stim_asymm_v5,2020.2.10,MacIntel,60,61025ae37ef11b136ea224fe,,,,,,,,,1682,22.66741943,-72.16723633,1,0,0,response3disk,,4,9.880371094,-8.05758667,1,0,0,rectangle,-89.32611084,-32.82452393,1,0,0,-15.56951904,-13.50286865,1,0,0,1,27,187,27,1,,response5disk_3,TRUE,2,2,"[36,298,217,147,112,92,258,60,137,206,277,103,224,164,149,52,276,142,188,211]",1.8326,rectangle
,,,,,,,,,,,,,FF,,,,,,,,1.2016,,,,,,,,,,,,,,,,,,,,,,60fed8cce19b6feaef94c4c5,61036fa68edf5797ea8d68ce,2021-07-29_23h22.09.036,Simcolourproject_2stim_asymm_v5,2020.2.10,MacIntel,60,61025ae37ef11b136ea224fe,,,,,,,,,649,70.28460693,22.89135742,1,0,0,response1disk,,6,16.08508301,10.48516846,1,0,0,rectangle,16.08508301,10.48516846,1,0,0,16.08508301,10.48516846,1,0,0,1,28,188,3,1,,,,,,,,
,,,,,,,,,,,,,FF,,,,,,,,1.2828,,,,,,,,,,,,,,,,,,,,,,60fed8cce19b6feaef94c4c5,61036fa68edf5797ea8d68ce,2021-07-29_23h22.09.036,Simcolourproject_2stim_asymm_v5,2020.2.10,MacIntel,60,61025ae37ef11b136ea224fe,,,,,,,,,1375,61.00604248,-32.12799072,1,0,0,response3disk,,5,32.27838135,-11.70214844,1,0,0,rectangle,32.27838135,-11.70214844,1,0,0,32.27838135,-11.70214844,1,0,0,1,29,189,79,1,,,,,,,,
,,,,,,,,,,,,,FF,,,,,,,,1.0662,,,,,,,,,,,,,,,,,,,,,,60fed8cce19b6feaef94c4c5,61036fa68edf5797ea8d68ce,2021-07-29_23h22.09.036,Simcolourproject_2stim_asymm_v5,2020.2.10,MacIntel,60,61025ae37ef11b136ea224fe,,,,,,,,,988,25.94360352,60.42205811,1,0,0,response1disk,,7,11.60369873,8.578063965,1,0,0,rectangle,11.60369873,8.578063965,1,0,0,11.60369873,8.578063965,1,0,0,1,30,190,46,1,,,,,,,,
,,,,,,,,,,,,,FF,,,,,,,,0.532,,,,,,,,,,,,,,,,,,,,,,60fed8cce19b6feaef94c4c5,61036fa68edf5797ea8d68ce,2021-07-29_23h22.09.036,Simcolourproject_2stim_asymm_v5,2020.2.10,MacIntel,60,61025ae37ef11b136ea224fe,,,,,,,,,2213,30.85577393,50.51593018,1,0,0,response1disk,,7,13.85253906,16.78500366,1,0,0,rectangle,13.85253906,16.78500366,1,0,0,13.85253906,16.78500366,1,0,0,1,31,191,125,1,,,,,,,,
,,,,,,,,,,,,,FF,,,,,,,,1.0997,,,,,,,,,,,,,,,,,,,,,,60fed8cce19b6feaef94c4c5,61036fa68edf5797ea8d68ce,2021-07-29_23h22.09.036,Simcolourproject_2stim_asymm_v5,2020.2.10,MacIntel,60,61025ae37ef11b136ea224fe,,,,,,,,,974,31.29864502,62.93719482,1,0,0,response1disk,,7,7.808166504,1.829956055,1,0,0,rectangle,7.808166504,1.829956055,1,0,0,7.808166504,1.829956055,1,0,0,1,32,192,14,1,,,,,,,,
,,,,,,,,,,,,,FF,,,,,,,,0.9658,,,,,,,,,,,,,,,,,,,,,,60fed8cce19b6feaef94c4c5,61036fa68edf5797ea8d68ce,2021-07-29_23h22.09.036,Simcolourproject_2stim_asymm_v5,2020.2.10,MacIntel,60,61025ae37ef11b136ea224fe,,,,,,,,,2528,28.1864624,42.96466064,1,0,0,response1disk,,7,19.6439209,8.186523438,1,0,0,rectangle,19.6439209,8.186523438,1,0,0,19.6439209,8.186523438,1,0,0,1,33,193,132,1,,,,,,,,
,,,,,,,,,,,,,FF,,,,,,,,0.6158,,,,,,,,,,,,,,,,,,,,,,60fed8cce19b6feaef94c4c5,61036fa68edf5797ea8d68ce,2021-07-29_23h22.09.036,Simcolourproject_2stim_asymm_v5,2020.2.10,MacIntel,60,61025ae37ef11b136ea224fe,,,,,,,,,549,55.65808105,28.59024048,1,0,0,response1disk,,6,19.50402832,4.580078125,1,0,0,rectangle,19.50402832,4.580078125,1,0,0,19.50402832,4.580078125,1,0,0,1,34,194,45,1,,,,,,,,
,,,,,,,,,,,,,FF,,,,,,,,0.8679,,,,,,,,,,,,,,,,,,,,,,60fed8cce19b6feaef94c4c5,61036fa68edf5797ea8d68ce,2021-07-29_23h22.09.036,Simcolourproject_2stim_asymm_v5,2020.2.10,MacIntel,60,61025ae37ef11b136ea224fe,,,,,,,,,2987,56.73474121,-28.7612915,1,0,0,response3disk,,5,22.51446533,-12.29187012,1,0,0,rectangle,22.51446533,-12.29187012,1,0,0,22.51446533,-12.29187012,1,0,0,1,35,195,123,1,,,,,,,,
,,,,,,,,,,,,,FF,,,,,,,,0.6497,,,,,,,,,,,,,,,,,,,,,,60fed8cce19b6feaef94c4c5,61036fa68edf5797ea8d68ce,2021-07-29_23h22.09.036,Simcolourproject_2stim_asymm_v5,2020.2.10,MacIntel,60,61025ae37ef11b136ea224fe,,,,,,,,,4196,35.41351318,46.60800171,1,0,0,response1disk,,7,0.217407227,-7.915618896,1,0,0,rectangle,0.217407227,-7.915618896,1,0,0,0.217407227,-7.915618896,1,0,0,1,36,196,140,1,,,,,,,,
,,,,,,,,,,,,,FF,,,,,,,,0.9506,,,,,,,,,,,,,,,,,,,,,,60fed8cce19b6feaef94c4c5,61036fa68edf5797ea8d68ce,2021-07-29_23h22.09.036,Simcolourproject_2stim_asymm_v5,2020.2.10,MacIntel,60,61025ae37ef11b136ea224fe,,,,,,,,,364,33.48590088,55.99493408,1,0,0,response1disk,,7,18.92181396,3.905761719,1,0,0,rectangle,18.92181396,3.905761719,1,0,0,18.92181396,3.905761719,1,0,0,1,37,197,71,1,,,,,,,,
,,,,,,,,,,,,,FF,,,,,,,,1.1241,,,,,,,,,,,,,,,,,,,,,,60fed8cce19b6feaef94c4c5,61036fa68edf5797ea8d68ce,2021-07-29_23h22.09.036,Simcolourproject_2stim_asymm_v5,2020.2.10,MacIntel,60,61025ae37ef11b136ea224fe,,,,,,,,,174,29.38342285,-78.22271729,1,0,0,response3disk,,4,3.460571289,-9.383239746,1,0,0,rectangle,3.460571289,-9.383239746,1,0,0,3.460571289,-9.383239746,1,0,0,1,38,198,39,1,,,,,,,,
,,,,,,,,,,,,,FF,,,,,,,,1.0991,,,,,,,,,,,,,,,,,,,,,,60fed8cce19b6feaef94c4c5,61036fa68edf5797ea8d68ce,2021-07-29_23h22.09.036,Simcolourproject_2stim_asymm_v5,2020.2.10,MacIntel,60,61025ae37ef11b136ea224fe,,,,,,,,,368,72.03582764,-40.5446167,1,0,0,response3disk,,5,6.284240723,-5.54510498,1,0,0,rectangle,6.284240723,-5.54510498,1,0,0,6.284240723,-5.54510498,1,0,0,1,39,199,37,1,,,,,,,,
,,,,,,,,,,,,,FF,,,,,,,,0.75,,,,,,,,,,,,,,,,,,,,,,60fed8cce19b6feaef94c4c5,61036fa68edf5797ea8d68ce,2021-07-29_23h22.09.036,Simcolourproject_2stim_asymm_v5,2020.2.10,MacIntel,60,61025ae37ef11b136ea224fe,,,,,,,,,1836,19.5770874,40.90643311,1,0,0,response1disk,,7,9.574157715,-2.131164551,1,0,0,rectangle,9.574157715,-2.131164551,1,0,0,9.574157715,-2.131164551,1,0,0,1,40,200,36,1,,,,,,,,
,,,,,,,,,,,,,FF,,,,,,,,1.9497,,,,,,,,,,,,,,,,,,,,,,60fed8cce19b6feaef94c4c5,61036fa68edf5797ea8d68ce,2021-07-29_23h22.09.036,Simcolourproject_2stim_asymm_v5,2020.2.10,MacIntel,60,61025ae37ef11b136ea224fe,,,,,,,,,3753,80.43371582,30.53457642,1,0,0,response1disk,,6,-10.45385742,-7.616210938,1,0,0,rectangle,-10.45385742,-7.616210938,1,0,0,-10.45385742,-7.616210938,1,0,0,1,41,201,109,1,,,,,,,,
,,,,,,,,,,,,,FF,,,,,,,,0.8671,,,,,,,,,,,,,,,,,,,,,,60fed8cce19b6feaef94c4c5,61036fa68edf5797ea8d68ce,2021-07-29_23h22.09.036,Simcolourproject_2stim_asymm_v5,2020.2.10,MacIntel,60,61025ae37ef11b136ea224fe,,,,,,,,,505,22.80548096,44.01837158,1,0,0,response1disk,,7,4.463256836,8.206542969,1,0,0,rectangle,4.463256836,8.206542969,1,0,0,4.463256836,8.206542969,1,0,0,1,42,202,157,1,,,,,,,,
,,,,,,,,,,,,,FF,,,,,,,,0.9352,,,,,,,,,,,,,,,,,,,,,,60fed8cce19b6feaef94c4c5,61036fa68edf5797ea8d68ce,2021-07-29_23h22.09.036,Simcolourproject_2stim_asymm_v5,2020.2.10,MacIntel,60,61025ae37ef11b136ea224fe,,,,,,,,,3461,34.98895264,45.67095947,1,0,0,response1disk,,7,15.68890381,6.989868164,1,0,0,rectangle,15.68890381,6.989868164,1,0,0,15.68890381,6.989868164,1,0,0,1,43,203,13,1,,,,,,,,
,,,,,,,,,,,,,FF,,,,,,,,0.6663,,,,,,,,,,,,,,,,,,,,,,60fed8cce19b6feaef94c4c5,61036fa68edf5797ea8d68ce,2021-07-29_23h22.09.036,Simcolourproject_2stim_asymm_v5,2020.2.10,MacIntel,60,61025ae37ef11b136ea224fe,,,,,,,,,1018,26.12243652,40.16372681,1,0,0,response1disk,,7,4.481506348,-2.783935547,1,0,0,rectangle,4.481506348,-2.783935547,1,0,0,4.481506348,-2.783935547,1,0,0,1,44,204,106,1,,,,,,,,
,,,,,,,,,,,,,FF,,,,,,,,0.4828,,,,,,,,,,,,,,,,,,,,,,60fed8cce19b6feaef94c4c5,61036fa68edf5797ea8d68ce,2021-07-29_23h22.09.036,Simcolourproject_2stim_asymm_v5,2020.2.10,MacIntel,60,61025ae37ef11b136ea224fe,,,,,,,,,179,25.49279785,44.80407715,1,0,0,response1disk,,7,12.71716309,-2.962341309,1,0,0,rectangle,68.76434326,-40.13851929,1,0,0,13.83068848,-7.040893555,1,0,0,1,45,205,5,1,,response3disk_3,TRUE,5,5,"[36,298,217,147,112,92,258,60,137,206,277,103,224,164,149,52,276,142,188,211]",1.567,rectangle
,,,,,,,,,,,,,FF,,,,,,,,0.966,,,,,,,,,,,,,,,,,,,,,,60fed8cce19b6feaef94c4c5,61036fa68edf5797ea8d68ce,2021-07-29_23h22.09.036,Simcolourproject_2stim_asymm_v5,2020.2.10,MacIntel,60,61025ae37ef11b136ea224fe,,,,,,,,,511,29.78662109,53.67379761,1,0,0,response1disk,,7,13.65698242,7.985321045,1,0,0,rectangle,13.65698242,7.985321045,1,0,0,13.65698242,7.985321045,1,0,0,1,46,206,105,1,,,,,,,,
,,,,,,,,,,,,,FF,,,,,,,,0.6669,,,,,,,,,,,,,,,,,,,,,,60fed8cce19b6feaef94c4c5,61036fa68edf5797ea8d68ce,2021-07-29_23h22.09.036,Simcolourproject_2stim_asymm_v5,2020.2.10,MacIntel,60,61025ae37ef11b136ea224fe,,,,,,,,,1122,24.19873047,53.09729004,1,0,0,response1disk,,7,10.9564209,9.659240723,1,0,0,rectangle,10.9564209,9.659240723,1,0,0,10.9564209,9.659240723,1,0,0,1,47,207,47,1,,,,,,,,
,,,,,,,,,,,,,FF,,,,,,,,1.883,,,,,,,,,,,,,,,,,,,,,,60fed8cce19b6feaef94c4c5,61036fa68edf5797ea8d68ce,2021-07-29_23h22.09.036,Simcolourproject_2stim_asymm_v5,2020.2.10,MacIntel,60,61025ae37ef11b136ea224fe,,,,,,,,,3896,48.13378906,21.822052,1,0,0,response1disk,,6,8.626098633,-9.713500977,1,0,0,rectangle,8.626098633,-9.713500977,1,0,0,8.626098633,-9.713500977,1,0,0,1,48,208,15,1,,,,,,,,
,,,,,,,,,,,,,FF,,,,,,,,0.4823,,,,,,,,,,,,,,,,,,,,,,60fed8cce19b6feaef94c4c5,61036fa68edf5797ea8d68ce,2021-07-29_23h22.09.036,Simcolourproject_2stim_asymm_v5,2020.2.10,MacIntel,60,61025ae37ef11b136ea224fe,,,,,,,,,2509,22.16461182,77.56079102,1,0,0,response1disk,,7,17.40631104,-9.116271973,1,0,0,rectangle,17.40631104,-9.116271973,1,0,0,17.40631104,-9.116271973,1,0,0,1,49,209,135,1,,,,,,,,
,,,,,,,,,,,,,FF,,,,,,,,0.7661,,,,,,,,,,,,,,,,,,,,,,60fed8cce19b6feaef94c4c5,61036fa68edf5797ea8d68ce,2021-07-29_23h22.09.036,Simcolourproject_2stim_asymm_v5,2020.2.10,MacIntel,60,61025ae37ef11b136ea224fe,,,,,,,,,1270,42.27880859,46.54135132,1,0,0,response1disk,,7,23.61437988,9.596466064,1,0,0,rectangle,-85.38696289,-49.39031982,1,0,0,-5.875305176,-5.399749756,1,0,0,1,50,210,102,1,,response5disk_3,TRUE,2,2,"[36,298,217,147,112,92,258,60,137,206,277,103,224,164,149,52,276,142,188,211]",1.9172,rectangle
,,,,,,,,,,,,,FF,,,,,,,,3.0342,,,,,,,,,,,,,,,,,,,,,,60fed8cce19b6feaef94c4c5,61036fa68edf5797ea8d68ce,2021-07-29_23h22.09.036,Simcolourproject_2stim_asymm_v5,2020.2.10,MacIntel,60,61025ae37ef11b136ea224fe,,,,,,,,,4116,44.08453369,79.25891113,1,0,0,response1disk,,7,8.885498047,1.909912109,1,0,0,rectangle,8.885498047,1.909912109,1,0,0,8.885498047,1.909912109,1,0,0,1,51,211,41,1,,,,,,,,
,,,,,,,,,,,,,FF,,,,,,,,1.5667,,,,,,,,,,,,,,,,,,,,,,60fed8cce19b6feaef94c4c5,61036fa68edf5797ea8d68ce,2021-07-29_23h22.09.036,Simcolourproject_2stim_asymm_v5,2020.2.10,MacIntel,60,61025ae37ef11b136ea224fe,,,,,,,,,2286,49.74755859,-89.73468018,1,0,0,response3disk,,4,28.08557129,-3.130462646,1,0,0,rectangle,28.08557129,-3.130462646,1,0,0,28.08557129,-3.130462646,1,0,0,1,52,212,129,1,,,,,,,,
,,,,,,,,,,,,,FF,,,,,,,,0.6356,,,,,,,,,,,,,,,,,,,,,,60fed8cce19b6feaef94c4c5,61036fa68edf5797ea8d68ce,2021-07-29_23h22.09.036,Simcolourproject_2stim_asymm_v5,2020.2.10,MacIntel,60,61025ae37ef11b136ea224fe,,,,,,,,,1853,25.71624756,54.69784546,1,0,0,response1disk,,7,10.50024414,14.18731689,1,0,0,rectangle,10.50024414,14.18731689,1,0,0,10.50024414,14.18731689,1,0,0,1,53,213,85,1,,,,,,,,
,,,,,,,,,,,,,FF,,,,,,,,0.5498,,,,,,,,,,,,,,,,,,,,,,60fed8cce19b6feaef94c4c5,61036fa68edf5797ea8d68ce,2021-07-29_23h22.09.036,Simcolourproject_2stim_asymm_v5,2020.2.10,MacIntel,60,61025ae37ef11b136ea224fe,,,,,,,,,2959,24.44342041,40.42221069,1,0,0,response1disk,,7,14.30236816,-1.937835693,1,0,0,rectangle,14.30236816,-1.937835693,1,0,0,14.30236816,-1.937835693,1,0,0,1,54,214,18,1,,,,,,,,
,,,,,,,,,,,,,FF,,,,,,,,1.4325,,,,,,,,,,,,,,,,,,,,,,60fed8cce19b6feaef94c4c5,61036fa68edf5797ea8d68ce,2021-07-29_23h22.09.036,Simcolourproject_2stim_asymm_v5,2020.2.10,MacIntel,60,61025ae37ef11b136ea224fe,,,,,,,,,2947,40.67077637,-92.17645264,1,0,0,response3disk,,4,21.49755859,-13.51623535,1,0,0,rectangle,21.49755859,-13.51623535,1,0,0,21.49755859,-13.51623535,1,0,0,1,55,215,153,1,,,,,,,,
,,,,,,,,,,,,,FF,,,,,,,,0.8176,,,,,,,,,,,,,,,,,,,,,,60fed8cce19b6feaef94c4c5,61036fa68edf5797ea8d68ce,2021-07-29_23h22.09.036,Simcolourproject_2stim_asymm_v5,2020.2.10,MacIntel,60,61025ae37ef11b136ea224fe,,,,,,,,,2768,33.08850098,54.88131714,1,0,0,response1disk,,7,6.924377441,-15.2868042,1,0,0,rectangle,85.57794189,-37.31237793,1,0,0,20.10095215,-9.674377441,1,0,0,1,56,216,110,1,,response3disk_3,TRUE,5,5,"[36,298,217,147,112,92,258,60,137,206,277,103,224,164,149,52,276,142,188,211]",1.383,rectangle
,,,,,,,,,,,,,FF,,,,,,,,0.8656,,,,,,,,,,,,,,,,,,,,,,60fed8cce19b6feaef94c4c5,61036fa68edf5797ea8d68ce,2021-07-29_23h22.09.036,Simcolourproject_2stim_asymm_v5,2020.2.10,MacIntel,60,61025ae37ef11b136ea224fe,,,,,,,,,4228,19.82562256,51.10351563,1,0,0,response1disk,,7,-16.30334473,-12.41549683,1,0,0,rectangle,-16.30334473,-12.41549683,1,0,0,-16.30334473,-12.41549683,1,0,0,1,57,217,130,1,,,,,,,,
,,,,,,,,,,,,,FF,,,,,,,,0.7826,,,,,,,,,,,,,,,,,,,,,,60fed8cce19b6feaef94c4c5,61036fa68edf5797ea8d68ce,2021-07-29_23h22.09.036,Simcolourproject_2stim_asymm_v5,2020.2.10,MacIntel,60,61025ae37ef11b136ea224fe,,,,,,,,,3688,17.8381958,40.06719971,1,0,0,response1disk,,7,5.895751953,-0.534423828,1,0,0,rectangle,5.895751953,-0.534423828,1,0,0,5.895751953,-0.534423828,1,0,0,1,58,218,107,1,,,,,,,,
,,,,,,,,,,,,,FF,,,,,,,,0.6486,,,,,,,,,,,,,,,,,,,,,,60fed8cce19b6feaef94c4c5,61036fa68edf5797ea8d68ce,2021-07-29_23h22.09.036,Simcolourproject_2stim_asymm_v5,2020.2.10,MacIntel,60,61025ae37ef11b136ea224fe,,,,,,,,,124,56.66925049,28.45025635,1,0,0,response1disk,,6,-16.58740234,-4.886047363,1,0,0,rectangle,-16.58740234,-4.886047363,1,0,0,-16.58740234,-4.886047363,1,0,0,1,59,219,149,1,,,,,,,,
,,,,,,,,,,,,,FF,,,,,,,,1.0493,,,,,,,,,,,,,,,,,,,,,,60fed8cce19b6feaef94c4c5,61036fa68edf5797ea8d68ce,2021-07-29_23h22.09.036,Simcolourproject_2stim_asymm_v5,2020.2.10,MacIntel,60,61025ae37ef11b136ea224fe,,,,,,,,,3384,-28.4564209,-83.07556152,1,0,0,response5disk,,3,-13.43774414,-8.236938477,1,0,0,rectangle,-13.43774414,-8.236938477,1,0,0,-13.43774414,-8.236938477,1,0,0,1,60,220,22,1,,,,,,,,
,,,,,,,,,,,,,FF,,,,,,,,1.4513,,,,,,,,,,,,,,,,,,,,,,60fed8cce19b6feaef94c4c5,61036fa68edf5797ea8d68ce,2021-07-29_23h22.09.036,Simcolourproject_2stim_asymm_v5,2020.2.10,MacIntel,60,61025ae37ef11b136ea224fe,,,,,,,,,2936,42.87567139,-82.59069824,1,0,0,response3disk,,4,32.02667236,-2.281921387,1,0,0,rectangle,32.02667236,-2.281921387,1,0,0,32.02667236,-2.281921387,1,0,0,1,61,221,31,1,,,,,,,,
,,,,,,,,,,,,,FF,,,,,,,,1.1686,,,,,,,,,,,,,,,,,,,,,,60fed8cce19b6feaef94c4c5,61036fa68edf5797ea8d68ce,2021-07-29_23h22.09.036,Simcolourproject_2stim_asymm_v5,2020.2.10,MacIntel,60,61025ae37ef11b136ea224fe,,,,,,,,,802,-42.39916992,-65.84246826,1,0,0,response5disk,,3,-12.13574219,-5.752868652,1,0,0,rectangle,-12.13574219,-5.752868652,1,0,0,-12.13574219,-5.752868652,1,0,0,1,62,222,84,1,,,,,,,,
,,,,,,,,,,,,,FF,,,,,,,,0.6495,,,,,,,,,,,,,,,,,,,,,,60fed8cce19b6feaef94c4c5,61036fa68edf5797ea8d68ce,2021-07-29_23h22.09.036,Simcolourproject_2stim_asymm_v5,2020.2.10,MacIntel,60,61025ae37ef11b136ea224fe,,,,,,,,,2628,21.5838623,72.32897949,1,0,0,response1disk,,7,11.80236816,-1.522766113,1,0,0,rectangle,-35.36761475,-69.83135986,1,0,0,-17.60614014,-4.969299316,1,0,0,1,63,223,152,1,,response5disk_3,TRUE,3,3,"[36,298,217,147,112,92,258,60,137,206,277,103,224,164,149,52,276,142,188,211]",2.1168,rectangle
,,,,,,,,,,,,,FF,,,,,,,,2.5161,,,,,,,,,,,,,,,,,,,,,,60fed8cce19b6feaef94c4c5,61036fa68edf5797ea8d68ce,2021-07-29_23h22.09.036,Simcolourproject_2stim_asymm_v5,2020.2.10,MacIntel,60,61025ae37ef11b136ea224fe,,,,,,,,,2786,-48.52655029,-89.04406738,1,0,0,response5disk,,3,-9.971435547,-6.442626953,1,0,0,rectangle,-9.971435547,-6.442626953,1,0,0,-9.971435547,-6.442626953,1,0,0,1,64,224,124,1,,,,,,,,
,,,,,,,,,,,,,FF,,,,,,,,0.718,,,,,,,,,,,,,,,,,,,,,,60fed8cce19b6feaef94c4c5,61036fa68edf5797ea8d68ce,2021-07-29_23h22.09.036,Simcolourproject_2stim_asymm_v5,2020.2.10,MacIntel,60,61025ae37ef11b136ea224fe,,,,,,,,,2412,24.25610352,51.72839355,1,0,0,response1disk,,7,5.82434082,-4.487670898,1,0,0,rectangle,5.82434082,-4.487670898,1,0,0,5.82434082,-4.487670898,1,0,0,1,65,225,151,1,,,,,,,,
,,,,,,,,,,,,,FF,,,,,,,,0.4001,,,,,,,,,,,,,,,,,,,,,,60fed8cce19b6feaef94c4c5,61036fa68edf5797ea8d68ce,2021-07-29_23h22.09.036,Simcolourproject_2stim_asymm_v5,2020.2.10,MacIntel,60,61025ae37ef11b136ea224fe,,,,,,,,,3581,38.42407227,64.79547119,1,0,0,response1disk,,7,26.01037598,-1.831329346,1,0,0,rectangle,26.01037598,-1.831329346,1,0,0,26.01037598,-1.831329346,1,0,0,1,66,226,87,1,,,,,,,,
,,,,,,,,,,,,,FF,,,,,,,,0.7156,,,,,,,,,,,,,,,,,,,,,,60fed8cce19b6feaef94c4c5,61036fa68edf5797ea8d68ce,2021-07-29_23h22.09.036,Simcolourproject_2stim_asymm_v5,2020.2.10,MacIntel,60,61025ae37ef11b136ea224fe,,,,,,,,,2913,30.00195313,49.10461426,1,0,0,response1disk,,7,19.56481934,12.40344238,1,0,0,rectangle,19.56481934,12.40344238,1,0,0,19.56481934,12.40344238,1,0,0,1,67,227,78,1,,,,,,,,
,,,,,,,,,,,,,FF,,,,,,,,0.5156,,,,,,,,,,,,,,,,,,,,,,60fed8cce19b6feaef94c4c5,61036fa68edf5797ea8d68ce,2021-07-29_23h22.09.036,Simcolourproject_2stim_asymm_v5,2020.2.10,MacIntel,60,61025ae37ef11b136ea224fe,,,,,,,,,1086,29.37890625,48.77929688,1,0,0,response1disk,,7,22.60656738,14.84356689,1,0,0,rectangle,22.60656738,14.84356689,1,0,0,22.60656738,14.84356689,1,0,0,1,68,228,67,1,,,,,,,,
,,,,,,,,,,,,,FF,,,,,,,,0.6503,,,,,,,,,,,,,,,,,,,,,,60fed8cce19b6feaef94c4c5,61036fa68edf5797ea8d68ce,2021-07-29_23h22.09.036,Simcolourproject_2stim_asymm_v5,2020.2.10,MacIntel,60,61025ae37ef11b136ea224fe,,,,,,,,,2829,29.67895508,49.35113525,1,0,0,response1disk,,7,19.76159668,6.192779541,1,0,0,rectangle,19.76159668,6.192779541,1,0,0,19.76159668,6.192779541,1,0,0,1,69,229,118,1,,,,,,,,
,,,,,,,,,,,,,FF,,,,,,,,0.5834,,,,,,,,,,,,,,,,,,,,,,60fed8cce19b6feaef94c4c5,61036fa68edf5797ea8d68ce,2021-07-29_23h22.09.036,Simcolourproject_2stim_asymm_v5,2020.2.10,MacIntel,60,61025ae37ef11b136ea224fe,,,,,,,,,323,23.3862915,35.5307312,1,0,0,response1disk,,7,14.9239502,-14.34564209,1,0,0,rectangle,14.9239502,-14.34564209,1,0,0,14.9239502,-14.34564209,1,0,0,1,70,230,6,1,,,,,,,,
,,,,,,,,,,,,,FF,,,,,,,,0.8165,,,,,,,,,,,,,,,,,,,,,,60fed8cce19b6feaef94c4c5,61036fa68edf5797ea8d68ce,2021-07-29_23h22.09.036,Simcolourproject_2stim_asymm_v5,2020.2.10,MacIntel,60,61025ae37ef11b136ea224fe,,,,,,,,,188,-33.01446533,-77.94750977,1,0,0,response5disk,,3,-8.875671387,-15.3458252,1,0,0,rectangle,-8.875671387,-15.3458252,1,0,0,-8.875671387,-15.3458252,1,0,0,1,71,231,142,1,,,,,,,,
,,,,,,,,,,,,,FF,,,,,,,,1.0506,,,,,,,,,,,,,,,,,,,,,,60fed8cce19b6feaef94c4c5,61036fa68edf5797ea8d68ce,2021-07-29_23h22.09.036,Simcolourproject_2stim_asymm_v5,2020.2.10,MacIntel,60,61025ae37ef11b136ea224fe,,,,,,,,,3699,34.41345215,51.34500122,1,0,0,response1disk,,7,5.425537109,-2.901611328,1,0,0,rectangle,5.425537109,-2.901611328,1,0,0,5.425537109,-2.901611328,1,0,0,1,72,232,70,1,,,,,,,,
,,,,,,,,,,,,,FF,,,,,,,,1.5886,,,,,,,,,,,,,,,,,,,,,,60fed8cce19b6feaef94c4c5,61036fa68edf5797ea8d68ce,2021-07-29_23h22.09.036,Simcolourproject_2stim_asymm_v5,2020.2.10,MacIntel,60,61025ae37ef11b136ea224fe,,,,,,,,,749,27.05389404,36.18304443,1,0,0,response1disk,,7,10.64276123,-9.611206055,1,0,0,rectangle,10.64276123,-9.611206055,1,0,0,10.64276123,-9.611206055,1,0,0,1,73,233,63,1,,,,,,,,
,,,,,,,,,,,,,FF,,,,,,,,0.6502,,,,,,,,,,,,,,,,,,,,,,60fed8cce19b6feaef94c4c5,61036fa68edf5797ea8d68ce,2021-07-29_23h22.09.036,Simcolourproject_2stim_asymm_v5,2020.2.10,MacIntel,60,61025ae37ef11b136ea224fe,,,,,,,,,1701,28.69573975,42.06097412,1,0,0,response1disk,,7,18.47839355,8.846252441,1,0,0,rectangle,18.47839355,8.846252441,1,0,0,18.47839355,8.846252441,1,0,0,1,74,234,2,1,,,,,,,,
,,,,,,,,,,,,,FF,,,,,,,,1.2328,,,,,,,,,,,,,,,,,,,,,,60fed8cce19b6feaef94c4c5,61036fa68edf5797ea8d68ce,2021-07-29_23h22.09.036,Simcolourproject_2stim_asymm_v5,2020.2.10,MacIntel,60,61025ae37ef11b136ea224fe,,,,,,,,,3235,72.80517578,-42.79162598,1,0,0,response3disk,,5,16.59503174,-5.056854248,1,0,0,rectangle,16.59503174,-5.056854248,1,0,0,16.59503174,-5.056854248,1,0,0,1,75,235,127,1,,,,,,,,
,,,,,,,,,,,,,FF,,,,,,,,1.0831,,,,,,,,,,,,,,,,,,,,,,60fed8cce19b6feaef94c4c5,61036fa68edf5797ea8d68ce,2021-07-29_23h22.09.036,Simcolourproject_2stim_asymm_v5,2020.2.10,MacIntel,60,61025ae37ef11b136ea224fe,,,,,,,,,3653,29.17858887,57.1628418,1,0,0,response1disk,,7,9.188720703,-6.669769287,1,0,0,rectangle,9.188720703,-6.669769287,1,0,0,9.188720703,-6.669769287,1,0,0,1,76,236,96,1,,,,,,,,
,,,,,,,,,,,,,FF,,,,,,,,0.9173,,,,,,,,,,,,,,,,,,,,,,60fed8cce19b6feaef94c4c5,61036fa68edf5797ea8d68ce,2021-07-29_23h22.09.036,Simcolourproject_2stim_asymm_v5,2020.2.10,MacIntel,60,61025ae37ef11b136ea224fe,,,,,,,,,1975,57.16394043,56.68493652,1,0,0,response1disk,,6,-3.73626709,-12.58526611,1,0,0,rectangle,-3.73626709,-12.58526611,1,0,0,-3.73626709,-12.58526611,1,0,0,1,77,237,148,1,,,,,,,,
,,,,,,,,,,,,,FF,,,,,,,,0.8664,,,,,,,,,,,,,,,,,,,,,,60fed8cce19b6feaef94c4c5,61036fa68edf5797ea8d68ce,2021-07-29_23h22.09.036,Simcolourproject_2stim_asymm_v5,2020.2.10,MacIntel,60,61025ae37ef11b136ea224fe,,,,,,,,,219,27.1217041,48.68231201,1,0,0,response1disk,,7,3.936096191,7.61907959,1,0,0,rectangle,3.936096191,7.61907959,1,0,0,3.936096191,7.61907959,1,0,0,1,78,238,0,1,,,,,,,,
,,,,,,,,,,,,,FF,,,,,,,,0.8668,,,,,,,,,,,,,,,,,,,,,,60fed8cce19b6feaef94c4c5,61036fa68edf5797ea8d68ce,2021-07-29_23h22.09.036,Simcolourproject_2stim_asymm_v5,2020.2.10,MacIntel,60,61025ae37ef11b136ea224fe,,,,,,,,,4316,-44.9564209,81.62945557,1,0,0,response7disk,,0,-21.83959961,5.242980957,1,0,0,rectangle,-21.83959961,5.242980957,1,0,0,-21.83959961,5.242980957,1,0,0,1,79,239,115,1,,,,,,,,
,,,,,,,,,,,,,FF,,,,,,,,1.1336,,,,,,,,,,,,,,,,,,,,,,60fed8cce19b6feaef94c4c5,61036fa68edf5797ea8d68ce,2021-07-29_23h22.09.036,Simcolourproject_2stim_asymm_v5,2020.2.10,MacIntel,60,61025ae37ef11b136ea224fe,,,,,,,,,3584,-56.13214111,-34.45822144,1,0,0,response5disk,,2,-18.45214844,-13.49261475,1,0,0,rectangle,-18.45214844,-13.49261475,1,0,0,-18.45214844,-13.49261475,1,0,0,1,80,240,137,1,,,,,,,,
,,,,,,,,,,,,,FF,,,,,,,,0.6683,,,,,,,,,,,,,,,,,,,,,,60fed8cce19b6feaef94c4c5,61036fa68edf5797ea8d68ce,2021-07-29_23h22.09.036,Simcolourproject_2stim_asymm_v5,2020.2.10,MacIntel,60,61025ae37ef11b136ea224fe,,,,,,,,,2930,46.17059326,78.83084106,1,0,0,response1disk,,7,13.84790039,9.14050293,1,0,0,rectangle,13.84790039,9.14050293,1,0,0,13.84790039,9.14050293,1,0,0,1,81,241,138,1,,,,,,,,
