key_resp.keys,key_resp.rt,key_resp_14.keys,key_resp_14.rt,key_resp_15.keys,key_resp_15.rt,key_resp_17.keys,key_resp_17.rt,key_resp_9.keys,key_resp_9.rt,key_resp_10.keys,key_resp_10.rt,practice_comparison,Ecc,mouse_5.x,mouse_5.y,mouse_5.leftButton,mouse_5.midButton,mouse_5.rightButton,mouse_5.clicked_name,pracsimilarity,response_time,mouse_10.x,mouse_10.y,mouse_10.leftButton,mouse_10.midButton,mouse_10.rightButton,mouse_10.clicked_name,mouse_7.x,mouse_7.y,mouse_7.leftButton,mouse_7.midButton,mouse_7.rightButton,mouse_6.x,mouse_6.y,mouse_6.leftButton,mouse_6.midButton,mouse_6.rightButton,duringprac.thisRepN,duringprac.thisTrialN,duringprac.thisN,duringprac.thisIndex,duringprac.ran,participant,session,date,expName,psychopyVersion,OS,frameRate,study_id,mouse_7.clicked_name,catchpracsimilarity,catch_response_time,catchnumberprac,catchtrialorderprac,mouse_6.clicked_name,key_resp_22.keys,key_resp_22.rt,realcomparison,mouse.x,mouse.y,mouse.leftButton,mouse.midButton,mouse.rightButton,mouse.clicked_name,Colour2,similarity,mouse_2.x,mouse_2.y,mouse_2.leftButton,mouse_2.midButton,mouse_2.rightButton,mouse_2.clicked_name,mouse_3.x,mouse_3.y,mouse_3.leftButton,mouse_3.midButton,mouse_3.rightButton,mouse_11.x,mouse_11.y,mouse_11.leftButton,mouse_11.midButton,mouse_11.rightButton,trials_2.thisRepN,trials_2.thisTrialN,trials_2.thisN,trials_2.thisIndex,trials_2.ran,Colour1,mouse_3.clicked_name,catchornah,catchsimilarity,catchnumber,catchtrialorder,catchRT,mouse_11.clicked_name
space,0.984,space,2.958,space,17.751,space,10.669,space,1.462,space,5.193,2,PF,-47,85,1,0,0,response7disk_5,0,8.551,19,2,1,0,0,rectangle_8,19,2,1,0,0,19,2,1,0,0,0,0,0,4,1,60fe3f65d1ef0e848acb56a9,61036adf1c694e0cea5f1142,2021-07-30_12h59.47.827,Simcolourproject_2stim_asymm_v5,2020.2.10,MacIntel,60,61025ae37ef11b136ea224fe,,,,,,,,,,,,,,,,,,,,,,,,,,,,,,,,,,,,,,,,,,,,,,
,,,,,,,,,,,,16,FF,30,65,1,0,0,response1disk_5,7,2.45,2,-10,1,0,0,rectangle_8,18,-87,1,0,0,-2,-3,1,0,0,0,1,1,0,1,60fe3f65d1ef0e848acb56a9,61036adf1c694e0cea5f1142,2021-07-30_12h59.47.827,Simcolourproject_2stim_asymm_v5,2020.2.10,MacIntel,60,61025ae37ef11b136ea224fe,response3disk_7,4,3.751,4,"[2,5]",rectangle_4,,,,,,,,,,,,,,,,,,,,,,,,,,,,,,,,,,,,,,,,
,,,,,,,,,,,,57,FF,54,97,1,0,0,response1disk_5,7,1.517,7,7,1,0,0,rectangle_8,7,7,1,0,0,7,7,1,0,0,0,2,2,3,1,60fe3f65d1ef0e848acb56a9,61036adf1c694e0cea5f1142,2021-07-30_12h59.47.827,Simcolourproject_2stim_asymm_v5,2020.2.10,MacIntel,60,61025ae37ef11b136ea224fe,,,,,,,,,,,,,,,,,,,,,,,,,,,,,,,,,,,,,,,,,,,,,,
,,,,,,,,,,,,75,PF,-62,-78,1,0,0,response5disk_5,3,3.083,0,2,1,0,0,rectangle_8,0,2,1,0,0,0,2,1,0,0,0,3,3,2,1,60fe3f65d1ef0e848acb56a9,61036adf1c694e0cea5f1142,2021-07-30_12h59.47.827,Simcolourproject_2stim_asymm_v5,2020.2.10,MacIntel,60,61025ae37ef11b136ea224fe,,,,,,,,,,,,,,,,,,,,,,,,,,,,,,,,,,,,,,,,,,,,,,
,,,,,,,,,,,,105,PF,38,77,1,0,0,response1disk_5,7,1.366,-3,6,1,0,0,rectangle_8,55,-72,1,0,0,-4,-3,1,0,0,0,4,4,6,1,60fe3f65d1ef0e848acb56a9,61036adf1c694e0cea5f1142,2021-07-30_12h59.47.827,Simcolourproject_2stim_asymm_v5,2020.2.10,MacIntel,60,61025ae37ef11b136ea224fe,response3disk_7,4,2.701,4,"[2,5]",rectangle_4,,,,,,,,,,,,,,,,,,,,,,,,,,,,,,,,,,,,,,,,
,,,,,,,,,,,,79,PF,81,-40,1,0,0,response3disk_5,5,1.85,-10,0,1,0,0,rectangle_8,-10,0,1,0,0,-10,0,1,0,0,0,5,5,1,1,60fe3f65d1ef0e848acb56a9,61036adf1c694e0cea5f1142,2021-07-30_12h59.47.827,Simcolourproject_2stim_asymm_v5,2020.2.10,MacIntel,60,61025ae37ef11b136ea224fe,,,,,,,,,,,,,,,,,,,,,,,,,,,,,,,,,,,,,,,,,,,,,,
,,,,,,,,,,,,117,FF,28,89,1,0,0,response1disk_5,7,2.833,11,8,1,0,0,rectangle_8,11,8,1,0,0,11,8,1,0,0,0,6,6,5,1,60fe3f65d1ef0e848acb56a9,61036adf1c694e0cea5f1142,2021-07-30_12h59.47.827,Simcolourproject_2stim_asymm_v5,2020.2.10,MacIntel,60,61025ae37ef11b136ea224fe,,,,,,,,,,,,,,,,,,,,,,,,,,,,,,,,,,,,,,,,,,,,,,
,,,,,,,,,,,,,FF,,,,,,,,3.584,,,,,,,,,,,,,,,,,,,,,,60fe3f65d1ef0e848acb56a9,61036adf1c694e0cea5f1142,2021-07-30_12h59.47.827,Simcolourproject_2stim_asymm_v5,2020.2.10,MacIntel,60,61025ae37ef11b136ea224fe,,,,,,,space,3.562,3064,41,86,1,0,0,response1disk,,7,21,12,1,0,0,rectangle,21,12,1,0,0,21,12,1,0,0,0,0,0,101,1,,,,,,,,
,,,,,,,,,,,,,FF,,,,,,,,2.633,,,,,,,,,,,,,,,,,,,,,,60fe3f65d1ef0e848acb56a9,61036adf1c694e0cea5f1142,2021-07-30_12h59.47.827,Simcolourproject_2stim_asymm_v5,2020.2.10,MacIntel,60,61025ae37ef11b136ea224fe,,,,,,,,,1775,72,29,1,0,0,response1disk,,6,-8,-1,1,0,0,rectangle,-8,-1,1,0,0,-8,-1,1,0,0,0,1,1,158,1,,,,,,,,
,,,,,,,,,,,,,FF,,,,,,,,1.283,,,,,,,,,,,,,,,,,,,,,,60fe3f65d1ef0e848acb56a9,61036adf1c694e0cea5f1142,2021-07-30_12h59.47.827,Simcolourproject_2stim_asymm_v5,2020.2.10,MacIntel,60,61025ae37ef11b136ea224fe,,,,,,,,,3875,-40,73,1,0,0,response7disk,,0,-3,6,1,0,0,rectangle,-3,6,1,0,0,-3,6,1,0,0,0,2,2,137,1,,,,,,,,
,,,,,,,,,,,,,FF,,,,,,,,1.417,,,,,,,,,,,,,,,,,,,,,,60fe3f65d1ef0e848acb56a9,61036adf1c694e0cea5f1142,2021-07-30_12h59.47.827,Simcolourproject_2stim_asymm_v5,2020.2.10,MacIntel,60,61025ae37ef11b136ea224fe,,,,,,,,,442,37,-71,1,0,0,response3disk,,4,4,-3,1,0,0,rectangle,4,-3,1,0,0,4,-3,1,0,0,0,3,3,152,1,,,,,,,,
,,,,,,,,,,,,,FF,,,,,,,,1.383,,,,,,,,,,,,,,,,,,,,,,60fe3f65d1ef0e848acb56a9,61036adf1c694e0cea5f1142,2021-07-30_12h59.47.827,Simcolourproject_2stim_asymm_v5,2020.2.10,MacIntel,60,61025ae37ef11b136ea224fe,,,,,,,,,1089,40,70,1,0,0,response1disk,,7,-3,7,1,0,0,rectangle,-3,7,1,0,0,-3,7,1,0,0,0,4,4,102,1,,,,,,,,
,,,,,,,,,,,,,FF,,,,,,,,1.35,,,,,,,,,,,,,,,,,,,,,,60fe3f65d1ef0e848acb56a9,61036adf1c694e0cea5f1142,2021-07-30_12h59.47.827,Simcolourproject_2stim_asymm_v5,2020.2.10,MacIntel,60,61025ae37ef11b136ea224fe,,,,,,,,,323,33,68,1,0,0,response1disk,,7,2,8,1,0,0,rectangle,2,8,1,0,0,2,8,1,0,0,0,5,5,97,1,,,,,,,,
,,,,,,,,,,,,,FF,,,,,,,,0.867,,,,,,,,,,,,,,,,,,,,,,60fe3f65d1ef0e848acb56a9,61036adf1c694e0cea5f1142,2021-07-30_12h59.47.827,Simcolourproject_2stim_asymm_v5,2020.2.10,MacIntel,60,61025ae37ef11b136ea224fe,,,,,,,,,592,36,80,1,0,0,response1disk,,7,0,-4,1,0,0,rectangle,0,-4,1,0,0,0,-4,1,0,0,0,6,6,95,1,,,,,,,,
,,,,,,,,,,,,,FF,,,,,,,,1.066,,,,,,,,,,,,,,,,,,,,,,60fe3f65d1ef0e848acb56a9,61036adf1c694e0cea5f1142,2021-07-30_12h59.47.827,Simcolourproject_2stim_asymm_v5,2020.2.10,MacIntel,60,61025ae37ef11b136ea224fe,,,,,,,,,335,38,72,1,0,0,response1disk,,7,-7,6,1,0,0,rectangle,-7,6,1,0,0,-7,6,1,0,0,0,7,7,88,1,,,,,,,,
,,,,,,,,,,,,,FF,,,,,,,,2.466,,,,,,,,,,,,,,,,,,,,,,60fe3f65d1ef0e848acb56a9,61036adf1c694e0cea5f1142,2021-07-30_12h59.47.827,Simcolourproject_2stim_asymm_v5,2020.2.10,MacIntel,60,61025ae37ef11b136ea224fe,,,,,,,,,4281,-85,-47,1,0,0,response5disk,,2,3,1,1,0,0,rectangle,3,1,1,0,0,3,1,1,0,0,0,8,8,4,1,,,,,,,,
,,,,,,,,,,,,,FF,,,,,,,,0.983,,,,,,,,,,,,,,,,,,,,,,60fe3f65d1ef0e848acb56a9,61036adf1c694e0cea5f1142,2021-07-30_12h59.47.827,Simcolourproject_2stim_asymm_v5,2020.2.10,MacIntel,60,61025ae37ef11b136ea224fe,,,,,,,,,3426,-86,-39,1,0,0,response5disk,,2,-2,0,1,0,0,rectangle,-2,0,1,0,0,-2,0,1,0,0,0,9,9,1,1,,,,,,,,
,,,,,,,,,,,,,FF,,,,,,,,1.517,,,,,,,,,,,,,,,,,,,,,,60fe3f65d1ef0e848acb56a9,61036adf1c694e0cea5f1142,2021-07-30_12h59.47.827,Simcolourproject_2stim_asymm_v5,2020.2.10,MacIntel,60,61025ae37ef11b136ea224fe,,,,,,,,,3711,-41,-79,1,0,0,response5disk,,3,10,-3,1,0,0,rectangle,10,-3,1,0,0,10,-3,1,0,0,0,10,10,155,1,,,,,,,,
,,,,,,,,,,,,,FF,,,,,,,,1.699,,,,,,,,,,,,,,,,,,,,,,60fe3f65d1ef0e848acb56a9,61036adf1c694e0cea5f1142,2021-07-30_12h59.47.827,Simcolourproject_2stim_asymm_v5,2020.2.10,MacIntel,60,61025ae37ef11b136ea224fe,,,,,,,,,480,66,42,1,0,0,response1disk,,6,11,8,1,0,0,rectangle,11,8,1,0,0,11,8,1,0,0,0,11,11,23,1,,,,,,,,
,,,,,,,,,,,,,FF,,,,,,,,1.917,,,,,,,,,,,,,,,,,,,,,,60fe3f65d1ef0e848acb56a9,61036adf1c694e0cea5f1142,2021-07-30_12h59.47.827,Simcolourproject_2stim_asymm_v5,2020.2.10,MacIntel,60,61025ae37ef11b136ea224fe,,,,,,,,,1507,36,69,1,0,0,response1disk,,7,3,3,1,0,0,rectangle,3,3,1,0,0,3,3,1,0,0,0,12,12,46,1,,,,,,,,
,,,,,,,,,,,,,FF,,,,,,,,1.2,,,,,,,,,,,,,,,,,,,,,,60fe3f65d1ef0e848acb56a9,61036adf1c694e0cea5f1142,2021-07-30_12h59.47.827,Simcolourproject_2stim_asymm_v5,2020.2.10,MacIntel,60,61025ae37ef11b136ea224fe,,,,,,,,,4363,-68,36,1,0,0,response7disk,,1,13,2,1,0,0,rectangle,13,2,1,0,0,13,2,1,0,0,0,13,13,26,1,,,,,,,,
,,,,,,,,,,,,,FF,,,,,,,,1.519,,,,,,,,,,,,,,,,,,,,,,60fe3f65d1ef0e848acb56a9,61036adf1c694e0cea5f1142,2021-07-30_12h59.47.827,Simcolourproject_2stim_asymm_v5,2020.2.10,MacIntel,60,61025ae37ef11b136ea224fe,,,,,,,,,1536,-51,-90,1,0,0,response5disk,,3,-2,-2,1,0,0,rectangle,-2,-2,1,0,0,-2,-2,1,0,0,0,14,14,5,1,,,,,,,,
,,,,,,,,,,,,,FF,,,,,,,,1.417,,,,,,,,,,,,,,,,,,,,,,60fe3f65d1ef0e848acb56a9,61036adf1c694e0cea5f1142,2021-07-30_12h59.47.827,Simcolourproject_2stim_asymm_v5,2020.2.10,MacIntel,60,61025ae37ef11b136ea224fe,,,,,,,,,4048,52,70,1,0,0,response1disk,,7,13,11,1,0,0,rectangle,13,11,1,0,0,13,11,1,0,0,0,15,15,127,1,,,,,,,,
,,,,,,,,,,,,,FF,,,,,,,,2.316,,,,,,,,,,,,,,,,,,,,,,60fe3f65d1ef0e848acb56a9,61036adf1c694e0cea5f1142,2021-07-30_12h59.47.827,Simcolourproject_2stim_asymm_v5,2020.2.10,MacIntel,60,61025ae37ef11b136ea224fe,,,,,,,,,1813,-36,-86,1,0,0,response5disk,,3,4,5,1,0,0,rectangle,4,5,1,0,0,4,5,1,0,0,0,16,16,83,1,,,,,,,,
,,,,,,,,,,,,,FF,,,,,,,,2,,,,,,,,,,,,,,,,,,,,,,60fe3f65d1ef0e848acb56a9,61036adf1c694e0cea5f1142,2021-07-30_12h59.47.827,Simcolourproject_2stim_asymm_v5,2020.2.10,MacIntel,60,61025ae37ef11b136ea224fe,,,,,,,,,1016,43,87,1,0,0,response1disk,,7,-12,-4,1,0,0,rectangle,-12,-4,1,0,0,-12,-4,1,0,0,0,17,17,57,1,,,,,,,,
,,,,,,,,,,,,,FF,,,,,,,,2.667,,,,,,,,,,,,,,,,,,,,,,60fe3f65d1ef0e848acb56a9,61036adf1c694e0cea5f1142,2021-07-30_12h59.47.827,Simcolourproject_2stim_asymm_v5,2020.2.10,MacIntel,60,61025ae37ef11b136ea224fe,,,,,,,,,3447,37,47,1,0,0,response1disk,,7,-2,-13,1,0,0,rectangle,-2,-13,1,0,0,-2,-13,1,0,0,0,18,18,104,1,,,,,,,,
,,,,,,,,,,,,,FF,,,,,,,,1.6,,,,,,,,,,,,,,,,,,,,,,60fe3f65d1ef0e848acb56a9,61036adf1c694e0cea5f1142,2021-07-30_12h59.47.827,Simcolourproject_2stim_asymm_v5,2020.2.10,MacIntel,60,61025ae37ef11b136ea224fe,,,,,,,,,1675,-84,-25,1,0,0,response5disk,,2,-18,-17,1,0,0,rectangle,-18,-17,1,0,0,-18,-17,1,0,0,0,19,19,121,1,,,,,,,,
,,,,,,,,,,,,,FF,,,,,,,,2.167,,,,,,,,,,,,,,,,,,,,,,60fe3f65d1ef0e848acb56a9,61036adf1c694e0cea5f1142,2021-07-30_12h59.47.827,Simcolourproject_2stim_asymm_v5,2020.2.10,MacIntel,60,61025ae37ef11b136ea224fe,,,,,,,,,830,75,-20,1,0,0,response3disk,,5,3,-3,1,0,0,rectangle,3,-3,1,0,0,3,-3,1,0,0,0,20,20,139,1,,,,,,,,
,,,,,,,,,,,,,FF,,,,,,,,2.167,,,,,,,,,,,,,,,,,,,,,,60fe3f65d1ef0e848acb56a9,61036adf1c694e0cea5f1142,2021-07-30_12h59.47.827,Simcolourproject_2stim_asymm_v5,2020.2.10,MacIntel,60,61025ae37ef11b136ea224fe,,,,,,,,,4301,103,-50,1,0,0,response3disk,,5,-3,-3,1,0,0,rectangle,-3,-3,1,0,0,-3,-3,1,0,0,0,21,21,148,1,,,,,,,,
,,,,,,,,,,,,,FF,,,,,,,,1.55,,,,,,,,,,,,,,,,,,,,,,60fe3f65d1ef0e848acb56a9,61036adf1c694e0cea5f1142,2021-07-30_12h59.47.827,Simcolourproject_2stim_asymm_v5,2020.2.10,MacIntel,60,61025ae37ef11b136ea224fe,,,,,,,,,963,44,92,1,0,0,response1disk,,7,-8,-5,1,0,0,rectangle,-8,-5,1,0,0,-8,-5,1,0,0,0,22,22,75,1,,,,,,,,
,,,,,,,,,,,,,FF,,,,,,,,0.783,,,,,,,,,,,,,,,,,,,,,,60fe3f65d1ef0e848acb56a9,61036adf1c694e0cea5f1142,2021-07-30_12h59.47.827,Simcolourproject_2stim_asymm_v5,2020.2.10,MacIntel,60,61025ae37ef11b136ea224fe,,,,,,,,,2226,-48,79,1,0,0,response7disk,,0,-7,-2,1,0,0,rectangle,-7,-2,1,0,0,-7,-2,1,0,0,0,23,23,39,1,,,,,,,,
,,,,,,,,,,,,,FF,,,,,,,,1.884,,,,,,,,,,,,,,,,,,,,,,60fe3f65d1ef0e848acb56a9,61036adf1c694e0cea5f1142,2021-07-30_12h59.47.827,Simcolourproject_2stim_asymm_v5,2020.2.10,MacIntel,60,61025ae37ef11b136ea224fe,,,,,,,,,1196,-37,-108,1,0,0,response5disk,,3,7,-6,1,0,0,rectangle,7,-6,1,0,0,7,-6,1,0,0,0,24,24,29,1,,,,,,,,
,,,,,,,,,,,,,FF,,,,,,,,1.484,,,,,,,,,,,,,,,,,,,,,,60fe3f65d1ef0e848acb56a9,61036adf1c694e0cea5f1142,2021-07-30_12h59.47.827,Simcolourproject_2stim_asymm_v5,2020.2.10,MacIntel,60,61025ae37ef11b136ea224fe,,,,,,,,,567,41,73,1,0,0,response1disk,,7,-10,-8,1,0,0,rectangle,39,-90,1,0,0,7,-3,1,0,0,0,25,25,153,1,,response3disk_3,TRUE,4,4,"[204,310,197,102,56,190,276,271,91,182,97,26,49,51,132,71,107,113,128,230]",1.649,rectangle
,,,,,,,,,,,,,FF,,,,,,,,1.1,,,,,,,,,,,,,,,,,,,,,,60fe3f65d1ef0e848acb56a9,61036adf1c694e0cea5f1142,2021-07-30_12h59.47.827,Simcolourproject_2stim_asymm_v5,2020.2.10,MacIntel,60,61025ae37ef11b136ea224fe,,,,,,,,,437,-54,-81,1,0,0,response5disk,,3,-12,-7,1,0,0,rectangle,-12,-7,1,0,0,-12,-7,1,0,0,0,26,26,129,1,,,,,,,,
,,,,,,,,,,,,,FF,,,,,,,,1.85,,,,,,,,,,,,,,,,,,,,,,60fe3f65d1ef0e848acb56a9,61036adf1c694e0cea5f1142,2021-07-30_12h59.47.827,Simcolourproject_2stim_asymm_v5,2020.2.10,MacIntel,60,61025ae37ef11b136ea224fe,,,,,,,,,3936,-59,78,1,0,0,response7disk,,0,7,-16,1,0,0,rectangle,7,-16,1,0,0,7,-16,1,0,0,0,27,27,84,1,,,,,,,,
,,,,,,,,,,,,,FF,,,,,,,,2,,,,,,,,,,,,,,,,,,,,,,60fe3f65d1ef0e848acb56a9,61036adf1c694e0cea5f1142,2021-07-30_12h59.47.827,Simcolourproject_2stim_asymm_v5,2020.2.10,MacIntel,60,61025ae37ef11b136ea224fe,,,,,,,,,1919,81,39,1,0,0,response1disk,,6,-34,5,1,0,0,rectangle,-34,5,1,0,0,-34,5,1,0,0,0,28,28,27,1,,,,,,,,
,,,,,,,,,,,,,FF,,,,,,,,0.868,,,,,,,,,,,,,,,,,,,,,,60fe3f65d1ef0e848acb56a9,61036adf1c694e0cea5f1142,2021-07-30_12h59.47.827,Simcolourproject_2stim_asymm_v5,2020.2.10,MacIntel,60,61025ae37ef11b136ea224fe,,,,,,,,,1067,38,70,1,0,0,response1disk,,7,-9,-8,1,0,0,rectangle,-9,-8,1,0,0,-9,-8,1,0,0,0,29,29,45,1,,,,,,,,
,,,,,,,,,,,,,FF,,,,,,,,1.8,,,,,,,,,,,,,,,,,,,,,,60fe3f65d1ef0e848acb56a9,61036adf1c694e0cea5f1142,2021-07-30_12h59.47.827,Simcolourproject_2stim_asymm_v5,2020.2.10,MacIntel,60,61025ae37ef11b136ea224fe,,,,,,,,,956,49,76,1,0,0,response1disk,,7,10,13,1,0,0,rectangle,10,13,1,0,0,10,13,1,0,0,0,30,30,31,1,,,,,,,,
,,,,,,,,,,,,,FF,,,,,,,,1.316,,,,,,,,,,,,,,,,,,,,,,60fe3f65d1ef0e848acb56a9,61036adf1c694e0cea5f1142,2021-07-30_12h59.47.827,Simcolourproject_2stim_asymm_v5,2020.2.10,MacIntel,60,61025ae37ef11b136ea224fe,,,,,,,,,1328,89,44,1,0,0,response1disk,,6,10,17,1,0,0,rectangle,10,17,1,0,0,10,17,1,0,0,0,31,31,48,1,,,,,,,,
,,,,,,,,,,,,,FF,,,,,,,,1.467,,,,,,,,,,,,,,,,,,,,,,60fe3f65d1ef0e848acb56a9,61036adf1c694e0cea5f1142,2021-07-30_12h59.47.827,Simcolourproject_2stim_asymm_v5,2020.2.10,MacIntel,60,61025ae37ef11b136ea224fe,,,,,,,,,317,36,74,1,0,0,response1disk,,7,-25,-11,1,0,0,rectangle,-25,-11,1,0,0,-25,-11,1,0,0,0,32,32,118,1,,,,,,,,
,,,,,,,,,,,,,FF,,,,,,,,1.699,,,,,,,,,,,,,,,,,,,,,,60fe3f65d1ef0e848acb56a9,61036adf1c694e0cea5f1142,2021-07-30_12h59.47.827,Simcolourproject_2stim_asymm_v5,2020.2.10,MacIntel,60,61025ae37ef11b136ea224fe,,,,,,,,,1460,-87,-46,1,0,0,response5disk,,2,-10,-5,1,0,0,rectangle,-10,-5,1,0,0,-10,-5,1,0,0,0,33,33,59,1,,,,,,,,
,,,,,,,,,,,,,FF,,,,,,,,1.084,,,,,,,,,,,,,,,,,,,,,,60fe3f65d1ef0e848acb56a9,61036adf1c694e0cea5f1142,2021-07-30_12h59.47.827,Simcolourproject_2stim_asymm_v5,2020.2.10,MacIntel,60,61025ae37ef11b136ea224fe,,,,,,,,,843,70,37,1,0,0,response1disk,,6,7,5,1,0,0,rectangle,7,5,1,0,0,7,5,1,0,0,0,34,34,98,1,,,,,,,,
,,,,,,,,,,,,,FF,,,,,,,,1.185,,,,,,,,,,,,,,,,,,,,,,60fe3f65d1ef0e848acb56a9,61036adf1c694e0cea5f1142,2021-07-30_12h59.47.827,Simcolourproject_2stim_asymm_v5,2020.2.10,MacIntel,60,61025ae37ef11b136ea224fe,,,,,,,,,3006,-54,-71,1,0,0,response5disk,,3,-9,5,1,0,0,rectangle,-9,5,1,0,0,-9,5,1,0,0,0,35,35,130,1,,,,,,,,
,,,,,,,,,,,,,FF,,,,,,,,0.883,,,,,,,,,,,,,,,,,,,,,,60fe3f65d1ef0e848acb56a9,61036adf1c694e0cea5f1142,2021-07-30_12h59.47.827,Simcolourproject_2stim_asymm_v5,2020.2.10,MacIntel,60,61025ae37ef11b136ea224fe,,,,,,,,,720,-40,-97,1,0,0,response5disk,,3,-16,-10,1,0,0,rectangle,-16,-10,1,0,0,-16,-10,1,0,0,0,36,36,14,1,,,,,,,,
,,,,,,,,,,,,,FF,,,,,,,,1.182,,,,,,,,,,,,,,,,,,,,,,60fe3f65d1ef0e848acb56a9,61036adf1c694e0cea5f1142,2021-07-30_12h59.47.827,Simcolourproject_2stim_asymm_v5,2020.2.10,MacIntel,60,61025ae37ef11b136ea224fe,,,,,,,,,287,77,-49,1,0,0,response3disk,,5,8,-2,1,0,0,rectangle,8,-2,1,0,0,8,-2,1,0,0,0,37,37,30,1,,,,,,,,
,,,,,,,,,,,,,FF,,,,,,,,0.65,,,,,,,,,,,,,,,,,,,,,,60fe3f65d1ef0e848acb56a9,61036adf1c694e0cea5f1142,2021-07-30_12h59.47.827,Simcolourproject_2stim_asymm_v5,2020.2.10,MacIntel,60,61025ae37ef11b136ea224fe,,,,,,,,,457,62,-38,1,0,0,response3disk,,5,14,-13,1,0,0,rectangle,14,-13,1,0,0,14,-13,1,0,0,0,38,38,24,1,,,,,,,,
,,,,,,,,,,,,,FF,,,,,,,,1.55,,,,,,,,,,,,,,,,,,,,,,60fe3f65d1ef0e848acb56a9,61036adf1c694e0cea5f1142,2021-07-30_12h59.47.827,Simcolourproject_2stim_asymm_v5,2020.2.10,MacIntel,60,61025ae37ef11b136ea224fe,,,,,,,,,447,45,82,1,0,0,response1disk,,7,8,3,1,0,0,rectangle,8,3,1,0,0,8,3,1,0,0,0,39,39,89,1,,,,,,,,
,,,,,,,,,,,,,FF,,,,,,,,1.934,,,,,,,,,,,,,,,,,,,,,,60fe3f65d1ef0e848acb56a9,61036adf1c694e0cea5f1142,2021-07-30_12h59.47.827,Simcolourproject_2stim_asymm_v5,2020.2.10,MacIntel,60,61025ae37ef11b136ea224fe,,,,,,,,,3209,34,62,1,0,0,response1disk,,7,2,-4,1,0,0,rectangle,2,-4,1,0,0,2,-4,1,0,0,0,40,40,103,1,,,,,,,,
,,,,,,,,,,,,,FF,,,,,,,,1.199,,,,,,,,,,,,,,,,,,,,,,60fe3f65d1ef0e848acb56a9,61036adf1c694e0cea5f1142,2021-07-30_12h59.47.827,Simcolourproject_2stim_asymm_v5,2020.2.10,MacIntel,60,61025ae37ef11b136ea224fe,,,,,,,,,518,69,59,1,0,0,response1disk,,6,-10,0,1,0,0,rectangle,-10,0,1,0,0,-10,0,1,0,0,0,41,41,85,1,,,,,,,,
,,,,,,,,,,,,,FF,,,,,,,,1.466,,,,,,,,,,,,,,,,,,,,,,60fe3f65d1ef0e848acb56a9,61036adf1c694e0cea5f1142,2021-07-30_12h59.47.827,Simcolourproject_2stim_asymm_v5,2020.2.10,MacIntel,60,61025ae37ef11b136ea224fe,,,,,,,,,2342,46,84,1,0,0,response1disk,,7,1,-8,1,0,0,rectangle,1,-8,1,0,0,1,-8,1,0,0,0,42,42,43,1,,,,,,,,
,,,,,,,,,,,,,FF,,,,,,,,1.151,,,,,,,,,,,,,,,,,,,,,,60fe3f65d1ef0e848acb56a9,61036adf1c694e0cea5f1142,2021-07-30_12h59.47.827,Simcolourproject_2stim_asymm_v5,2020.2.10,MacIntel,60,61025ae37ef11b136ea224fe,,,,,,,,,4339,-49,-84,1,0,0,response5disk,,3,-2,7,1,0,0,rectangle,-2,7,1,0,0,-2,7,1,0,0,0,43,43,35,1,,,,,,,,
,,,,,,,,,,,,,FF,,,,,,,,1.284,,,,,,,,,,,,,,,,,,,,,,60fe3f65d1ef0e848acb56a9,61036adf1c694e0cea5f1142,2021-07-30_12h59.47.827,Simcolourproject_2stim_asymm_v5,2020.2.10,MacIntel,60,61025ae37ef11b136ea224fe,,,,,,,,,141,92,-53,1,0,0,response3disk,,5,1,-2,1,0,0,rectangle,1,-2,1,0,0,1,-2,1,0,0,0,44,44,125,1,,,,,,,,
,,,,,,,,,,,,,FF,,,,,,,,0.966,,,,,,,,,,,,,,,,,,,,,,60fe3f65d1ef0e848acb56a9,61036adf1c694e0cea5f1142,2021-07-30_12h59.47.827,Simcolourproject_2stim_asymm_v5,2020.2.10,MacIntel,60,61025ae37ef11b136ea224fe,,,,,,,,,3407,44,69,1,0,0,response1disk,,7,-5,7,1,0,0,rectangle,-5,7,1,0,0,-5,7,1,0,0,0,45,45,76,1,,,,,,,,
,,,,,,,,,,,,,FF,,,,,,,,0.867,,,,,,,,,,,,,,,,,,,,,,60fe3f65d1ef0e848acb56a9,61036adf1c694e0cea5f1142,2021-07-30_12h59.47.827,Simcolourproject_2stim_asymm_v5,2020.2.10,MacIntel,60,61025ae37ef11b136ea224fe,,,,,,,,,1449,-39,-80,1,0,0,response5disk,,3,2,9,1,0,0,rectangle,2,9,1,0,0,2,9,1,0,0,0,46,46,128,1,,,,,,,,
,,,,,,,,,,,,,FF,,,,,,,,0.701,,,,,,,,,,,,,,,,,,,,,,60fe3f65d1ef0e848acb56a9,61036adf1c694e0cea5f1142,2021-07-30_12h59.47.827,Simcolourproject_2stim_asymm_v5,2020.2.10,MacIntel,60,61025ae37ef11b136ea224fe,,,,,,,,,3993,-40,75,1,0,0,response7disk,,0,8,7,1,0,0,rectangle,8,7,1,0,0,8,7,1,0,0,0,47,47,123,1,,,,,,,,
,,,,,,,,,,,,,FF,,,,,,,,1.633,,,,,,,,,,,,,,,,,,,,,,60fe3f65d1ef0e848acb56a9,61036adf1c694e0cea5f1142,2021-07-30_12h59.47.827,Simcolourproject_2stim_asymm_v5,2020.2.10,MacIntel,60,61025ae37ef11b136ea224fe,,,,,,,,,640,51,75,1,0,0,response1disk,,7,-5,1,1,0,0,rectangle,40,-72,1,0,0,22,-7,1,0,0,0,48,48,8,1,,response3disk_3,TRUE,4,7,"[204,310,197,102,56,190,276,271,91,182,97,26,49,51,132,71,107,113,128,230]",0.767,rectangle
,,,,,,,,,,,,,FF,,,,,,,,0.9,,,,,,,,,,,,,,,,,,,,,,60fe3f65d1ef0e848acb56a9,61036adf1c694e0cea5f1142,2021-07-30_12h59.47.827,Simcolourproject_2stim_asymm_v5,2020.2.10,MacIntel,60,61025ae37ef11b136ea224fe,,,,,,,,,1029,105,46,1,0,0,response1disk,,6,15,0,1,0,0,rectangle,15,0,1,0,0,15,0,1,0,0,0,49,49,132,1,,,,,,,,
,,,,,,,,,,,,,FF,,,,,,,,1.234,,,,,,,,,,,,,,,,,,,,,,60fe3f65d1ef0e848acb56a9,61036adf1c694e0cea5f1142,2021-07-30_12h59.47.827,Simcolourproject_2stim_asymm_v5,2020.2.10,MacIntel,60,61025ae37ef11b136ea224fe,,,,,,,,,2513,38,55,1,0,0,response1disk,,7,12,-1,1,0,0,rectangle,55,-97,1,0,0,21,-5,1,0,0,0,50,50,81,1,,response3disk_3,TRUE,4,4,"[204,310,197,102,56,190,276,271,91,182,97,26,49,51,132,71,107,113,128,230]",0.983,rectangle
,,,,,,,,,,,,,FF,,,,,,,,2.566,,,,,,,,,,,,,,,,,,,,,,60fe3f65d1ef0e848acb56a9,61036adf1c694e0cea5f1142,2021-07-30_12h59.47.827,Simcolourproject_2stim_asymm_v5,2020.2.10,MacIntel,60,61025ae37ef11b136ea224fe,,,,,,,,,3424,51,92,1,0,0,response1disk,,7,1,-5,1,0,0,rectangle,1,-5,1,0,0,1,-5,1,0,0,0,51,51,65,1,,,,,,,,
,,,,,,,,,,,,,FF,,,,,,,,2.734,,,,,,,,,,,,,,,,,,,,,,60fe3f65d1ef0e848acb56a9,61036adf1c694e0cea5f1142,2021-07-30_12h59.47.827,Simcolourproject_2stim_asymm_v5,2020.2.10,MacIntel,60,61025ae37ef11b136ea224fe,,,,,,,,,1846,50,82,1,0,0,response1disk,,7,-1,-2,1,0,0,rectangle,-1,-2,1,0,0,-1,-2,1,0,0,0,52,52,82,1,,,,,,,,
,,,,,,,,,,,,,FF,,,,,,,,1.233,,,,,,,,,,,,,,,,,,,,,,60fe3f65d1ef0e848acb56a9,61036adf1c694e0cea5f1142,2021-07-30_12h59.47.827,Simcolourproject_2stim_asymm_v5,2020.2.10,MacIntel,60,61025ae37ef11b136ea224fe,,,,,,,,,3636,83,-60,1,0,0,response3disk,,5,1,-11,1,0,0,rectangle,1,-11,1,0,0,1,-11,1,0,0,0,53,53,17,1,,,,,,,,
,,,,,,,,,,,,,FF,,,,,,,,1.568,,,,,,,,,,,,,,,,,,,,,,60fe3f65d1ef0e848acb56a9,61036adf1c694e0cea5f1142,2021-07-30_12h59.47.827,Simcolourproject_2stim_asymm_v5,2020.2.10,MacIntel,60,61025ae37ef11b136ea224fe,,,,,,,,,3436,32,-81,1,0,0,response3disk,,4,17,-12,1,0,0,rectangle,17,-12,1,0,0,17,-12,1,0,0,0,54,54,134,1,,,,,,,,
,,,,,,,,,,,,,FF,,,,,,,,1.933,,,,,,,,,,,,,,,,,,,,,,60fe3f65d1ef0e848acb56a9,61036adf1c694e0cea5f1142,2021-07-30_12h59.47.827,Simcolourproject_2stim_asymm_v5,2020.2.10,MacIntel,60,61025ae37ef11b136ea224fe,,,,,,,,,588,37,74,1,0,0,response1disk,,7,-9,-13,1,0,0,rectangle,60,-83,1,0,0,1,-6,1,0,0,0,55,55,92,1,,response3disk_3,TRUE,4,2,"[204,310,197,102,56,190,276,271,91,182,97,26,49,51,132,71,107,113,128,230]",0.983,rectangle
,,,,,,,,,,,,,FF,,,,,,,,1.384,,,,,,,,,,,,,,,,,,,,,,60fe3f65d1ef0e848acb56a9,61036adf1c694e0cea5f1142,2021-07-30_12h59.47.827,Simcolourproject_2stim_asymm_v5,2020.2.10,MacIntel,60,61025ae37ef11b136ea224fe,,,,,,,,,1573,107,-32,1,0,0,response3disk,,5,-12,-1,1,0,0,rectangle,-12,-1,1,0,0,-12,-1,1,0,0,0,56,56,42,1,,,,,,,,
,,,,,,,,,,,,,FF,,,,,,,,0.982,,,,,,,,,,,,,,,,,,,,,,60fe3f65d1ef0e848acb56a9,61036adf1c694e0cea5f1142,2021-07-30_12h59.47.827,Simcolourproject_2stim_asymm_v5,2020.2.10,MacIntel,60,61025ae37ef11b136ea224fe,,,,,,,,,4290,45,76,1,0,0,response1disk,,7,-2,5,1,0,0,rectangle,-2,5,1,0,0,-2,5,1,0,0,0,57,57,69,1,,,,,,,,
,,,,,,,,,,,,,FF,,,,,,,,0.784,,,,,,,,,,,,,,,,,,,,,,60fe3f65d1ef0e848acb56a9,61036adf1c694e0cea5f1142,2021-07-30_12h59.47.827,Simcolourproject_2stim_asymm_v5,2020.2.10,MacIntel,60,61025ae37ef11b136ea224fe,,,,,,,,,582,33,61,1,0,0,response1disk,,7,18,3,1,0,0,rectangle,18,3,1,0,0,18,3,1,0,0,0,58,58,28,1,,,,,,,,
,,,,,,,,,,,,,FF,,,,,,,,0.816,,,,,,,,,,,,,,,,,,,,,,60fe3f65d1ef0e848acb56a9,61036adf1c694e0cea5f1142,2021-07-30_12h59.47.827,Simcolourproject_2stim_asymm_v5,2020.2.10,MacIntel,60,61025ae37ef11b136ea224fe,,,,,,,,,3486,32,58,1,0,0,response1disk,,7,11,-7,1,0,0,rectangle,11,-7,1,0,0,11,-7,1,0,0,0,59,59,111,1,,,,,,,,
,,,,,,,,,,,,,FF,,,,,,,,1.167,,,,,,,,,,,,,,,,,,,,,,60fe3f65d1ef0e848acb56a9,61036adf1c694e0cea5f1142,2021-07-30_12h59.47.827,Simcolourproject_2stim_asymm_v5,2020.2.10,MacIntel,60,61025ae37ef11b136ea224fe,,,,,,,,,1750,-69,-37,1,0,0,response5disk,,2,-1,-9,1,0,0,rectangle,-1,-9,1,0,0,-1,-9,1,0,0,0,60,60,113,1,,,,,,,,
,,,,,,,,,,,,,FF,,,,,,,,0.901,,,,,,,,,,,,,,,,,,,,,,60fe3f65d1ef0e848acb56a9,61036adf1c694e0cea5f1142,2021-07-30_12h59.47.827,Simcolourproject_2stim_asymm_v5,2020.2.10,MacIntel,60,61025ae37ef11b136ea224fe,,,,,,,,,3615,80,45,1,0,0,response1disk,,6,16,8,1,0,0,rectangle,16,8,1,0,0,16,8,1,0,0,0,61,61,122,1,,,,,,,,
,,,,,,,,,,,,,FF,,,,,,,,1.334,,,,,,,,,,,,,,,,,,,,,,60fe3f65d1ef0e848acb56a9,61036adf1c694e0cea5f1142,2021-07-30_12h59.47.827,Simcolourproject_2stim_asymm_v5,2020.2.10,MacIntel,60,61025ae37ef11b136ea224fe,,,,,,,,,2472,52,15,1,0,0,response1disk,,6,-1,-8,1,0,0,rectangle,-1,-8,1,0,0,-1,-8,1,0,0,0,62,62,16,1,,,,,,,,
,,,,,,,,,,,,,FF,,,,,,,,0.767,,,,,,,,,,,,,,,,,,,,,,60fe3f65d1ef0e848acb56a9,61036adf1c694e0cea5f1142,2021-07-30_12h59.47.827,Simcolourproject_2stim_asymm_v5,2020.2.10,MacIntel,60,61025ae37ef11b136ea224fe,,,,,,,,,3416,26,60,1,0,0,response1disk,,7,-2,-5,1,0,0,rectangle,-2,-5,1,0,0,-2,-5,1,0,0,0,63,63,68,1,,,,,,,,
,,,,,,,,,,,,,FF,,,,,,,,1.25,,,,,,,,,,,,,,,,,,,,,,60fe3f65d1ef0e848acb56a9,61036adf1c694e0cea5f1142,2021-07-30_12h59.47.827,Simcolourproject_2stim_asymm_v5,2020.2.10,MacIntel,60,61025ae37ef11b136ea224fe,,,,,,,,,2403,107,-45,1,0,0,response3disk,,5,-8,-5,1,0,0,rectangle,-8,-5,1,0,0,-8,-5,1,0,0,0,64,64,94,1,,,,,,,,
,,,,,,,,,,,,,FF,,,,,,,,0.75,,,,,,,,,,,,,,,,,,,,,,60fe3f65d1ef0e848acb56a9,61036adf1c694e0cea5f1142,2021-07-30_12h59.47.827,Simcolourproject_2stim_asymm_v5,2020.2.10,MacIntel,60,61025ae37ef11b136ea224fe,,,,,,,,,4132,30,68,1,0,0,response1disk,,7,9,5,1,0,0,rectangle,9,5,1,0,0,9,5,1,0,0,0,65,65,19,1,,,,,,,,
,,,,,,,,,,,,,FF,,,,,,,,1.2,,,,,,,,,,,,,,,,,,,,,,60fe3f65d1ef0e848acb56a9,61036adf1c694e0cea5f1142,2021-07-30_12h59.47.827,Simcolourproject_2stim_asymm_v5,2020.2.10,MacIntel,60,61025ae37ef11b136ea224fe,,,,,,,,,2748,86,41,1,0,0,response1disk,,6,-11,-14,1,0,0,rectangle,-11,-14,1,0,0,-11,-14,1,0,0,0,66,66,87,1,,,,,,,,
,,,,,,,,,,,,,FF,,,,,,,,0.885,,,,,,,,,,,,,,,,,,,,,,60fe3f65d1ef0e848acb56a9,61036adf1c694e0cea5f1142,2021-07-30_12h59.47.827,Simcolourproject_2stim_asymm_v5,2020.2.10,MacIntel,60,61025ae37ef11b136ea224fe,,,,,,,,,4058,20,50,1,0,0,response1disk,,7,0,3,1,0,0,rectangle,0,3,1,0,0,0,3,1,0,0,0,67,67,80,1,,,,,,,,
,,,,,,,,,,,,,FF,,,,,,,,1.349,,,,,,,,,,,,,,,,,,,,,,60fe3f65d1ef0e848acb56a9,61036adf1c694e0cea5f1142,2021-07-30_12h59.47.827,Simcolourproject_2stim_asymm_v5,2020.2.10,MacIntel,60,61025ae37ef11b136ea224fe,,,,,,,,,2795,78,-50,1,0,0,response3disk,,5,13,-10,1,0,0,rectangle,13,-10,1,0,0,13,-10,1,0,0,0,68,68,141,1,,,,,,,,
,,,,,,,,,,,,,FF,,,,,,,,1.45,,,,,,,,,,,,,,,,,,,,,,60fe3f65d1ef0e848acb56a9,61036adf1c694e0cea5f1142,2021-07-30_12h59.47.827,Simcolourproject_2stim_asymm_v5,2020.2.10,MacIntel,60,61025ae37ef11b136ea224fe,,,,,,,,,3854,70,32,1,0,0,response1disk,,6,2,10,1,0,0,rectangle,2,10,1,0,0,2,10,1,0,0,0,69,69,91,1,,,,,,,,
,,,,,,,,,,,,,FF,,,,,,,,1.101,,,,,,,,,,,,,,,,,,,,,,60fe3f65d1ef0e848acb56a9,61036adf1c694e0cea5f1142,2021-07-30_12h59.47.827,Simcolourproject_2stim_asymm_v5,2020.2.10,MacIntel,60,61025ae37ef11b136ea224fe,,,,,,,,,3114,35,57,1,0,0,response1disk,,7,7,0,1,0,0,rectangle,31,-76,1,0,0,19,-3,1,0,0,0,70,70,73,1,,response3disk_3,TRUE,4,1,"[204,310,197,102,56,190,276,271,91,182,97,26,49,51,132,71,107,113,128,230]",0.816,rectangle
,,,,,,,,,,,,,FF,,,,,,,,1.401,,,,,,,,,,,,,,,,,,,,,,60fe3f65d1ef0e848acb56a9,61036adf1c694e0cea5f1142,2021-07-30_12h59.47.827,Simcolourproject_2stim_asymm_v5,2020.2.10,MacIntel,60,61025ae37ef11b136ea224fe,,,,,,,,,25,38,61,1,0,0,response1disk,,7,15,8,1,0,0,rectangle,15,8,1,0,0,15,8,1,0,0,0,71,71,138,1,,,,,,,,
,,,,,,,,,,,,,FF,,,,,,,,0.933,,,,,,,,,,,,,,,,,,,,,,60fe3f65d1ef0e848acb56a9,61036adf1c694e0cea5f1142,2021-07-30_12h59.47.827,Simcolourproject_2stim_asymm_v5,2020.2.10,MacIntel,60,61025ae37ef11b136ea224fe,,,,,,,,,485,40,66,1,0,0,response1disk,,7,15,0,1,0,0,rectangle,15,0,1,0,0,15,0,1,0,0,0,72,72,52,1,,,,,,,,
,,,,,,,,,,,,,FF,,,,,,,,1.334,,,,,,,,,,,,,,,,,,,,,,60fe3f65d1ef0e848acb56a9,61036adf1c694e0cea5f1142,2021-07-30_12h59.47.827,Simcolourproject_2stim_asymm_v5,2020.2.10,MacIntel,60,61025ae37ef11b136ea224fe,,,,,,,,,1735,-45,-117,1,0,0,response5disk,,3,14,7,1,0,0,rectangle,14,7,1,0,0,14,7,1,0,0,0,73,73,159,1,,,,,,,,
,,,,,,,,,,,,,FF,,,,,,,,0.968,,,,,,,,,,,,,,,,,,,,,,60fe3f65d1ef0e848acb56a9,61036adf1c694e0cea5f1142,2021-07-30_12h59.47.827,Simcolourproject_2stim_asymm_v5,2020.2.10,MacIntel,60,61025ae37ef11b136ea224fe,,,,,,,,,2941,-39,60,1,0,0,response7disk,,0,4,10,1,0,0,rectangle,4,10,1,0,0,4,10,1,0,0,0,74,74,11,1,,,,,,,,
,,,,,,,,,,,,,FF,,,,,,,,0.934,,,,,,,,,,,,,,,,,,,,,,60fe3f65d1ef0e848acb56a9,61036adf1c694e0cea5f1142,2021-07-30_12h59.47.827,Simcolourproject_2stim_asymm_v5,2020.2.10,MacIntel,60,61025ae37ef11b136ea224fe,,,,,,,,,3750,52,89,1,0,0,response1disk,,7,19,16,1,0,0,rectangle,19,16,1,0,0,19,16,1,0,0,0,75,75,140,1,,,,,,,,
,,,,,,,,,,,,,FF,,,,,,,,1.117,,,,,,,,,,,,,,,,,,,,,,60fe3f65d1ef0e848acb56a9,61036adf1c694e0cea5f1142,2021-07-30_12h59.47.827,Simcolourproject_2stim_asymm_v5,2020.2.10,MacIntel,60,61025ae37ef11b136ea224fe,,,,,,,,,3900,72,39,1,0,0,response1disk,,6,12,7,1,0,0,rectangle,12,7,1,0,0,12,7,1,0,0,0,76,76,47,1,,,,,,,,
,,,,,,,,,,,,,FF,,,,,,,,0.984,,,,,,,,,,,,,,,,,,,,,,60fe3f65d1ef0e848acb56a9,61036adf1c694e0cea5f1142,2021-07-30_12h59.47.827,Simcolourproject_2stim_asymm_v5,2020.2.10,MacIntel,60,61025ae37ef11b136ea224fe,,,,,,,,,1954,64,46,1,0,0,response1disk,,6,10,-14,1,0,0,rectangle,10,-14,1,0,0,10,-14,1,0,0,0,77,77,25,1,,,,,,,,
,,,,,,,,,,,,,FF,,,,,,,,1.299,,,,,,,,,,,,,,,,,,,,,,60fe3f65d1ef0e848acb56a9,61036adf1c694e0cea5f1142,2021-07-30_12h59.47.827,Simcolourproject_2stim_asymm_v5,2020.2.10,MacIntel,60,61025ae37ef11b136ea224fe,,,,,,,,,2938,51,88,1,0,0,response1disk,,7,17,9,1,0,0,rectangle,17,9,1,0,0,17,9,1,0,0,0,78,78,33,1,,,,,,,,
,,,,,,,,,,,,,FF,,,,,,,,0.917,,,,,,,,,,,,,,,,,,,,,,60fe3f65d1ef0e848acb56a9,61036adf1c694e0cea5f1142,2021-07-30_12h59.47.827,Simcolourproject_2stim_asymm_v5,2020.2.10,MacIntel,60,61025ae37ef11b136ea224fe,,,,,,,,,2356,-41,-59,1,0,0,response5disk,,3,4,0,1,0,0,rectangle,4,0,1,0,0,4,0,1,0,0,0,79,79,78,1,,,,,,,,
,,,,,,,,,,,,,FF,,,,,,,,1.884,,,,,,,,,,,,,,,,,,,,,,60fe3f65d1ef0e848acb56a9,61036adf1c694e0cea5f1142,2021-07-30_12h59.47.827,Simcolourproject_2stim_asymm_v5,2020.2.10,MacIntel,60,61025ae37ef11b136ea224fe,,,,,,,,,3193,-90,-32,1,0,0,response5disk,,2,-20,5,1,0,0,rectangle,-20,5,1,0,0,-20,5,1,0,0,0,80,80,60,1,,,,,,,,
,,,,,,,,,,,,,FF,,,,,,,,1.484,,,,,,,,,,,,,,,,,,,,,,60fe3f65d1ef0e848acb56a9,61036adf1c694e0cea5f1142,2021-07-30_12h59.47.827,Simcolourproject_2stim_asymm_v5,2020.2.10,MacIntel,60,61025ae37ef11b136ea224fe,,,,,,,,,1004,93,43,1,0,0,response1disk,,6,-20,-9,1,0,0,rectangle,-20,-9,1,0,0,-20,-9,1,0,0,0,81,81,154,1,,,,,,,,
,,,,,,,,,,,,,FF,,,,,,,,0.666,,,,,,,,,,,,,,,,,,,,,,60fe3f65d1ef0e848acb56a9,61036adf1c694e0cea5f1142,2021-07-30_12h59.47.827,Simcolourproject_2stim_asymm_v5,2020.2.10,MacIntel,60,61025ae37ef11b136ea224fe,,,,,,,,,1594,61,31,1,0,0,response1disk,,6,26,14,1,0,0,rectangle,26,14,1,0,0,26,14,1,0,0,0,82,82,49,1,,,,,,,,
,,,,,,,,,,,,,FF,,,,,,,,0.749,,,,,,,,,,,,,,,,,,,,,,60fe3f65d1ef0e848acb56a9,61036adf1c694e0cea5f1142,2021-07-30_12h59.47.827,Simcolourproject_2stim_asymm_v5,2020.2.10,MacIntel,60,61025ae37ef11b136ea224fe,,,,,,,,,3113,33,70,1,0,0,response1disk,,7,19,16,1,0,0,rectangle,19,16,1,0,0,19,16,1,0,0,0,83,83,124,1,,,,,,,,
,,,,,,,,,,,,,FF,,,,,,,,0.716,,,,,,,,,,,,,,,,,,,,,,60fe3f65d1ef0e848acb56a9,61036adf1c694e0cea5f1142,2021-07-30_12h59.47.827,Simcolourproject_2stim_asymm_v5,2020.2.10,MacIntel,60,61025ae37ef11b136ea224fe,,,,,,,,,971,67,35,1,0,0,response1disk,,6,26,7,1,0,0,rectangle,26,7,1,0,0,26,7,1,0,0,0,84,84,143,1,,,,,,,,
,,,,,,,,,,,,,FF,,,,,,,,0.984,,,,,,,,,,,,,,,,,,,,,,60fe3f65d1ef0e848acb56a9,61036adf1c694e0cea5f1142,2021-07-30_12h59.47.827,Simcolourproject_2stim_asymm_v5,2020.2.10,MacIntel,60,61025ae37ef11b136ea224fe,,,,,,,,,3229,33,77,1,0,0,response1disk,,7,11,-5,1,0,0,rectangle,11,-5,1,0,0,11,-5,1,0,0,0,85,85,61,1,,,,,,,,
,,,,,,,,,,,,,FF,,,,,,,,0.749,,,,,,,,,,,,,,,,,,,,,,60fe3f65d1ef0e848acb56a9,61036adf1c694e0cea5f1142,2021-07-30_12h59.47.827,Simcolourproject_2stim_asymm_v5,2020.2.10,MacIntel,60,61025ae37ef11b136ea224fe,,,,,,,,,2116,28,62,1,0,0,response1disk,,7,-11,-17,1,0,0,rectangle,-11,-17,1,0,0,-11,-17,1,0,0,0,86,86,58,1,,,,,,,,
,,,,,,,,,,,,,FF,,,,,,,,1.35,,,,,,,,,,,,,,,,,,,,,,60fe3f65d1ef0e848acb56a9,61036adf1c694e0cea5f1142,2021-07-30_12h59.47.827,Simcolourproject_2stim_asymm_v5,2020.2.10,MacIntel,60,61025ae37ef11b136ea224fe,,,,,,,,,1166,50,-81,1,0,0,response3disk,,4,-19,1,1,0,0,rectangle,-19,1,1,0,0,-19,1,1,0,0,0,87,87,116,1,,,,,,,,
,,,,,,,,,,,,,FF,,,,,,,,0.866,,,,,,,,,,,,,,,,,,,,,,60fe3f65d1ef0e848acb56a9,61036adf1c694e0cea5f1142,2021-07-30_12h59.47.827,Simcolourproject_2stim_asymm_v5,2020.2.10,MacIntel,60,61025ae37ef11b136ea224fe,,,,,,,,,1685,65,-29,1,0,0,response3disk,,5,5,-6,1,0,0,rectangle,5,-6,1,0,0,5,-6,1,0,0,0,88,88,131,1,,,,,,,,
,,,,,,,,,,,,,FF,,,,,,,,0.649,,,,,,,,,,,,,,,,,,,,,,60fe3f65d1ef0e848acb56a9,61036adf1c694e0cea5f1142,2021-07-30_12h59.47.827,Simcolourproject_2stim_asymm_v5,2020.2.10,MacIntel,60,61025ae37ef11b136ea224fe,,,,,,,,,2003,35,57,1,0,0,response1disk,,7,-10,-4,1,0,0,rectangle,-10,-4,1,0,0,-10,-4,1,0,0,0,89,89,36,1,,,,,,,,
,,,,,,,,,,,,,FF,,,,,,,,0.75,,,,,,,,,,,,,,,,,,,,,,60fe3f65d1ef0e848acb56a9,61036adf1c694e0cea5f1142,2021-07-30_12h59.47.827,Simcolourproject_2stim_asymm_v5,2020.2.10,MacIntel,60,61025ae37ef11b136ea224fe,,,,,,,,,2291,-72,41,1,0,0,response7disk,,1,8,1,1,0,0,rectangle,61,-87,1,0,0,22,-14,1,0,0,0,90,90,7,1,,response3disk_3,TRUE,4,6,"[204,310,197,102,56,190,276,271,91,182,97,26,49,51,132,71,107,113,128,230]",0.816,rectangle
,,,,,,,,,,,,,FF,,,,,,,,0.734,,,,,,,,,,,,,,,,,,,,,,60fe3f65d1ef0e848acb56a9,61036adf1c694e0cea5f1142,2021-07-30_12h59.47.827,Simcolourproject_2stim_asymm_v5,2020.2.10,MacIntel,60,61025ae37ef11b136ea224fe,,,,,,,,,1774,43,51,1,0,0,response1disk,,7,25,17,1,0,0,rectangle,25,17,1,0,0,25,17,1,0,0,0,91,91,62,1,,,,,,,,
,,,,,,,,,,,,,FF,,,,,,,,0.783,,,,,,,,,,,,,,,,,,,,,,60fe3f65d1ef0e848acb56a9,61036adf1c694e0cea5f1142,2021-07-30_12h59.47.827,Simcolourproject_2stim_asymm_v5,2020.2.10,MacIntel,60,61025ae37ef11b136ea224fe,,,,,,,,,2055,72,34,1,0,0,response1disk,,6,16,8,1,0,0,rectangle,16,8,1,0,0,16,8,1,0,0,0,92,92,126,1,,,,,,,,
,,,,,,,,,,,,,FF,,,,,,,,1.4,,,,,,,,,,,,,,,,,,,,,,60fe3f65d1ef0e848acb56a9,61036adf1c694e0cea5f1142,2021-07-30_12h59.47.827,Simcolourproject_2stim_asymm_v5,2020.2.10,MacIntel,60,61025ae37ef11b136ea224fe,,,,,,,,,3198,35,-81,1,0,0,response3disk,,4,-9,-16,1,0,0,rectangle,-9,-16,1,0,0,-9,-16,1,0,0,0,93,93,34,1,,,,,,,,
,,,,,,,,,,,,,FF,,,,,,,,1.533,,,,,,,,,,,,,,,,,,,,,,60fe3f65d1ef0e848acb56a9,61036adf1c694e0cea5f1142,2021-07-30_12h59.47.827,Simcolourproject_2stim_asymm_v5,2020.2.10,MacIntel,60,61025ae37ef11b136ea224fe,,,,,,,,,3883,23,70,1,0,0,response1disk,,7,3,14,1,0,0,rectangle,3,14,1,0,0,3,14,1,0,0,0,94,94,86,1,,,,,,,,
,,,,,,,,,,,,,FF,,,,,,,,0.9,,,,,,,,,,,,,,,,,,,,,,60fe3f65d1ef0e848acb56a9,61036adf1c694e0cea5f1142,2021-07-30_12h59.47.827,Simcolourproject_2stim_asymm_v5,2020.2.10,MacIntel,60,61025ae37ef11b136ea224fe,,,,,,,,,474,60,-39,1,0,0,response3disk,,5,17,-5,1,0,0,rectangle,17,-5,1,0,0,17,-5,1,0,0,0,95,95,156,1,,,,,,,,
,,,,,,,,,,,,,FF,,,,,,,,0.667,,,,,,,,,,,,,,,,,,,,,,60fe3f65d1ef0e848acb56a9,61036adf1c694e0cea5f1142,2021-07-30_12h59.47.827,Simcolourproject_2stim_asymm_v5,2020.2.10,MacIntel,60,61025ae37ef11b136ea224fe,,,,,,,,,2450,60,39,1,0,0,response1disk,,6,-2,11,1,0,0,rectangle,33,-61,1,0,0,20,-4,1,0,0,0,96,96,38,1,,response3disk_3,TRUE,4,3,"[204,310,197,102,56,190,276,271,91,182,97,26,49,51,132,71,107,113,128,230]",0.632,rectangle
,,,,,,,,,,,,,FF,,,,,,,,0.9,,,,,,,,,,,,,,,,,,,,,,60fe3f65d1ef0e848acb56a9,61036adf1c694e0cea5f1142,2021-07-30_12h59.47.827,Simcolourproject_2stim_asymm_v5,2020.2.10,MacIntel,60,61025ae37ef11b136ea224fe,,,,,,,,,2359,-69,-34,1,0,0,response5disk,,2,-2,-1,1,0,0,rectangle,-2,-1,1,0,0,-2,-1,1,0,0,0,97,97,144,1,,,,,,,,
,,,,,,,,,,,,,FF,,,,,,,,0.851,,,,,,,,,,,,,,,,,,,,,,60fe3f65d1ef0e848acb56a9,61036adf1c694e0cea5f1142,2021-07-30_12h59.47.827,Simcolourproject_2stim_asymm_v5,2020.2.10,MacIntel,60,61025ae37ef11b136ea224fe,,,,,,,,,2690,37,54,1,0,0,response1disk,,7,2,2,1,0,0,rectangle,2,2,1,0,0,2,2,1,0,0,0,98,98,136,1,,,,,,,,
,,,,,,,,,,,,,FF,,,,,,,,0.984,,,,,,,,,,,,,,,,,,,,,,60fe3f65d1ef0e848acb56a9,61036adf1c694e0cea5f1142,2021-07-30_12h59.47.827,Simcolourproject_2stim_asymm_v5,2020.2.10,MacIntel,60,61025ae37ef11b136ea224fe,,,,,,,,,402,87,33,1,0,0,response1disk,,6,3,0,1,0,0,rectangle,3,0,1,0,0,3,0,1,0,0,0,99,99,90,1,,,,,,,,
,,,,,,,,,,,,,FF,,,,,,,,0.734,,,,,,,,,,,,,,,,,,,,,,60fe3f65d1ef0e848acb56a9,61036adf1c694e0cea5f1142,2021-07-30_12h59.47.827,Simcolourproject_2stim_asymm_v5,2020.2.10,MacIntel,60,61025ae37ef11b136ea224fe,,,,,,,,,401,75,34,1,0,0,response1disk,,6,8,16,1,0,0,rectangle,8,16,1,0,0,8,16,1,0,0,0,100,100,120,1,,,,,,,,
,,,,,,,,,,,,,FF,,,,,,,,1.065,,,,,,,,,,,,,,,,,,,,,,60fe3f65d1ef0e848acb56a9,61036adf1c694e0cea5f1142,2021-07-30_12h59.47.827,Simcolourproject_2stim_asymm_v5,2020.2.10,MacIntel,60,61025ae37ef11b136ea224fe,,,,,,,,,1564,23,53,1,0,0,response1disk,,7,-6,1,1,0,0,rectangle,15,-55,1,0,0,9,-12,1,0,0,0,101,101,109,1,,response3disk_3,TRUE,4,4,"[204,310,197,102,56,190,276,271,91,182,97,26,49,51,132,71,107,113,128,230]",0.817,rectangle
,,,,,,,,,,,,,FF,,,,,,,,0.751,,,,,,,,,,,,,,,,,,,,,,60fe3f65d1ef0e848acb56a9,61036adf1c694e0cea5f1142,2021-07-30_12h59.47.827,Simcolourproject_2stim_asymm_v5,2020.2.10,MacIntel,60,61025ae37ef11b136ea224fe,,,,,,,,,2380,-53,-70,1,0,0,response5disk,,3,-24,-15,1,0,0,rectangle,-24,-15,1,0,0,-24,-15,1,0,0,0,102,102,77,1,,,,,,,,
,,,,,,,,,,,,,FF,,,,,,,,0.648,,,,,,,,,,,,,,,,,,,,,,60fe3f65d1ef0e848acb56a9,61036adf1c694e0cea5f1142,2021-07-30_12h59.47.827,Simcolourproject_2stim_asymm_v5,2020.2.10,MacIntel,60,61025ae37ef11b136ea224fe,,,,,,,,,1178,90,-36,1,0,0,response3disk,,5,14,-4,1,0,0,rectangle,14,-4,1,0,0,14,-4,1,0,0,0,103,103,22,1,,,,,,,,
,,,,,,,,,,,,,FF,,,,,,,,0.549,,,,,,,,,,,,,,,,,,,,,,60fe3f65d1ef0e848acb56a9,61036adf1c694e0cea5f1142,2021-07-30_12h59.47.827,Simcolourproject_2stim_asymm_v5,2020.2.10,MacIntel,60,61025ae37ef11b136ea224fe,,,,,,,,,127,26,48,1,0,0,response1disk,,7,14,8,1,0,0,rectangle,14,8,1,0,0,14,8,1,0,0,0,104,104,2,1,,,,,,,,
,,,,,,,,,,,,,FF,,,,,,,,0.518,,,,,,,,,,,,,,,,,,,,,,60fe3f65d1ef0e848acb56a9,61036adf1c694e0cea5f1142,2021-07-30_12h59.47.827,Simcolourproject_2stim_asymm_v5,2020.2.10,MacIntel,60,61025ae37ef11b136ea224fe,,,,,,,,,3262,69,36,1,0,0,response1disk,,6,2,-8,1,0,0,rectangle,2,-8,1,0,0,2,-8,1,0,0,0,105,105,114,1,,,,,,,,
,,,,,,,,,,,,,FF,,,,,,,,1.016,,,,,,,,,,,,,,,,,,,,,,60fe3f65d1ef0e848acb56a9,61036adf1c694e0cea5f1142,2021-07-30_12h59.47.827,Simcolourproject_2stim_asymm_v5,2020.2.10,MacIntel,60,61025ae37ef11b136ea224fe,,,,,,,,,1745,-58,23,1,0,0,response7disk,,1,-2,-11,1,0,0,rectangle,40,-62,1,0,0,12,3,1,0,0,0,106,106,32,1,,response3disk_3,TRUE,4,2,"[204,310,197,102,56,190,276,271,91,182,97,26,49,51,132,71,107,113,128,230]",0.701,rectangle
,,,,,,,,,,,,,FF,,,,,,,,0.851,,,,,,,,,,,,,,,,,,,,,,60fe3f65d1ef0e848acb56a9,61036adf1c694e0cea5f1142,2021-07-30_12h59.47.827,Simcolourproject_2stim_asymm_v5,2020.2.10,MacIntel,60,61025ae37ef11b136ea224fe,,,,,,,,,2779,-68,-35,1,0,0,response5disk,,2,33,-2,1,0,0,rectangle,33,-2,1,0,0,33,-2,1,0,0,0,107,107,64,1,,,,,,,,
,,,,,,,,,,,,,FF,,,,,,,,1,,,,,,,,,,,,,,,,,,,,,,60fe3f65d1ef0e848acb56a9,61036adf1c694e0cea5f1142,2021-07-30_12h59.47.827,Simcolourproject_2stim_asymm_v5,2020.2.10,MacIntel,60,61025ae37ef11b136ea224fe,,,,,,,,,3873,68,-46,1,0,0,response3disk,,5,14,-10,1,0,0,rectangle,14,-10,1,0,0,14,-10,1,0,0,0,108,108,12,1,,,,,,,,
,,,,,,,,,,,,,FF,,,,,,,,1.183,,,,,,,,,,,,,,,,,,,,,,60fe3f65d1ef0e848acb56a9,61036adf1c694e0cea5f1142,2021-07-30_12h59.47.827,Simcolourproject_2stim_asymm_v5,2020.2.10,MacIntel,60,61025ae37ef11b136ea224fe,,,,,,,,,271,29,80,1,0,0,response1disk,,7,-9,0,1,0,0,rectangle,-9,0,1,0,0,-9,0,1,0,0,0,109,109,99,1,,,,,,,,
,,,,,,,,,,,,,FF,,,,,,,,0.567,,,,,,,,,,,,,,,,,,,,,,60fe3f65d1ef0e848acb56a9,61036adf1c694e0cea5f1142,2021-07-30_12h59.47.827,Simcolourproject_2stim_asymm_v5,2020.2.10,MacIntel,60,61025ae37ef11b136ea224fe,,,,,,,,,1987,48,26,1,0,0,response1disk,,6,18,11,1,0,0,rectangle,18,11,1,0,0,18,11,1,0,0,0,110,110,133,1,,,,,,,,
,,,,,,,,,,,,,FF,,,,,,,,0.883,,,,,,,,,,,,,,,,,,,,,,60fe3f65d1ef0e848acb56a9,61036adf1c694e0cea5f1142,2021-07-30_12h59.47.827,Simcolourproject_2stim_asymm_v5,2020.2.10,MacIntel,60,61025ae37ef11b136ea224fe,,,,,,,,,4334,25,81,1,0,0,response1disk,,7,14,5,1,0,0,rectangle,14,5,1,0,0,14,5,1,0,0,0,111,111,106,1,,,,,,,,
,,,,,,,,,,,,,FF,,,,,,,,0.734,,,,,,,,,,,,,,,,,,,,,,60fe3f65d1ef0e848acb56a9,61036adf1c694e0cea5f1142,2021-07-30_12h59.47.827,Simcolourproject_2stim_asymm_v5,2020.2.10,MacIntel,60,61025ae37ef11b136ea224fe,,,,,,,,,3723,90,-49,1,0,0,response3disk,,5,13,-15,1,0,0,rectangle,51,-84,1,0,0,18,-2,1,0,0,0,112,112,105,1,,response3disk_3,TRUE,4,0,"[204,310,197,102,56,190,276,271,91,182,97,26,49,51,132,71,107,113,128,230]",0.784,rectangle
,,,,,,,,,,,,,FF,,,,,,,,1.183,,,,,,,,,,,,,,,,,,,,,,60fe3f65d1ef0e848acb56a9,61036adf1c694e0cea5f1142,2021-07-30_12h59.47.827,Simcolourproject_2stim_asymm_v5,2020.2.10,MacIntel,60,61025ae37ef11b136ea224fe,,,,,,,,,2784,-37,-58,1,0,0,response5disk,,3,8,2,1,0,0,rectangle,8,2,1,0,0,8,2,1,0,0,0,113,113,66,1,,,,,,,,
,,,,,,,,,,,,,FF,,,,,,,,0.582,,,,,,,,,,,,,,,,,,,,,,60fe3f65d1ef0e848acb56a9,61036adf1c694e0cea5f1142,2021-07-30_12h59.47.827,Simcolourproject_2stim_asymm_v5,2020.2.10,MacIntel,60,61025ae37ef11b136ea224fe,,,,,,,,,2244,-30,-69,1,0,0,response5disk,,3,-9,-2,1,0,0,rectangle,-9,-2,1,0,0,-9,-2,1,0,0,0,114,114,15,1,,,,,,,,
,,,,,,,,,,,,,FF,,,,,,,,1.3,,,,,,,,,,,,,,,,,,,,,,60fe3f65d1ef0e848acb56a9,61036adf1c694e0cea5f1142,2021-07-30_12h59.47.827,Simcolourproject_2stim_asymm_v5,2020.2.10,MacIntel,60,61025ae37ef11b136ea224fe,,,,,,,,,2348,-49,-26,1,0,0,response5disk,,2,8,-7,1,0,0,rectangle,8,-7,1,0,0,8,-7,1,0,0,0,115,115,50,1,,,,,,,,
,,,,,,,,,,,,,FF,,,,,,,,0.75,,,,,,,,,,,,,,,,,,,,,,60fe3f65d1ef0e848acb56a9,61036adf1c694e0cea5f1142,2021-07-30_12h59.47.827,Simcolourproject_2stim_asymm_v5,2020.2.10,MacIntel,60,61025ae37ef11b136ea224fe,,,,,,,,,796,32,45,1,0,0,response1disk,,7,6,-4,1,0,0,rectangle,6,-4,1,0,0,6,-4,1,0,0,0,116,116,44,1,,,,,,,,
,,,,,,,,,,,,,FF,,,,,,,,0.933,,,,,,,,,,,,,,,,,,,,,,60fe3f65d1ef0e848acb56a9,61036adf1c694e0cea5f1142,2021-07-30_12h59.47.827,Simcolourproject_2stim_asymm_v5,2020.2.10,MacIntel,60,61025ae37ef11b136ea224fe,,,,,,,,,2631,29,69,1,0,0,response1disk,,7,19,-4,1,0,0,rectangle,19,-4,1,0,0,19,-4,1,0,0,0,117,117,100,1,,,,,,,,
,,,,,,,,,,,,,FF,,,,,,,,1.334,,,,,,,,,,,,,,,,,,,,,,60fe3f65d1ef0e848acb56a9,61036adf1c694e0cea5f1142,2021-07-30_12h59.47.827,Simcolourproject_2stim_asymm_v5,2020.2.10,MacIntel,60,61025ae37ef11b136ea224fe,,,,,,,,,1276,-57,-83,1,0,0,response5disk,,3,-35,5,1,0,0,rectangle,-35,5,1,0,0,-35,5,1,0,0,0,118,118,107,1,,,,,,,,
,,,,,,,,,,,,,FF,,,,,,,,1.017,,,,,,,,,,,,,,,,,,,,,,60fe3f65d1ef0e848acb56a9,61036adf1c694e0cea5f1142,2021-07-30_12h59.47.827,Simcolourproject_2stim_asymm_v5,2020.2.10,MacIntel,60,61025ae37ef11b136ea224fe,,,,,,,,,4170,-76,-48,1,0,0,response5disk,,2,4,2,1,0,0,rectangle,4,2,1,0,0,4,2,1,0,0,0,119,119,112,1,,,,,,,,
,,,,,,,,,,,,,FF,,,,,,,,1.334,,,,,,,,,,,,,,,,,,,,,,60fe3f65d1ef0e848acb56a9,61036adf1c694e0cea5f1142,2021-07-30_12h59.47.827,Simcolourproject_2stim_asymm_v5,2020.2.10,MacIntel,60,61025ae37ef11b136ea224fe,,,,,,,,,1513,93,-37,1,0,0,response3disk,,5,12,-16,1,0,0,rectangle,12,-16,1,0,0,12,-16,1,0,0,0,120,120,53,1,,,,,,,,
,,,,,,,,,,,,,FF,,,,,,,,1.2,,,,,,,,,,,,,,,,,,,,,,60fe3f65d1ef0e848acb56a9,61036adf1c694e0cea5f1142,2021-07-30_12h59.47.827,Simcolourproject_2stim_asymm_v5,2020.2.10,MacIntel,60,61025ae37ef11b136ea224fe,,,,,,,,,2332,76,48,1,0,0,response1disk,,6,17,14,1,0,0,rectangle,17,14,1,0,0,17,14,1,0,0,0,121,121,119,1,,,,,,,,
,,,,,,,,,,,,,FF,,,,,,,,1.017,,,,,,,,,,,,,,,,,,,,,,60fe3f65d1ef0e848acb56a9,61036adf1c694e0cea5f1142,2021-07-30_12h59.47.827,Simcolourproject_2stim_asymm_v5,2020.2.10,MacIntel,60,61025ae37ef11b136ea224fe,,,,,,,,,3265,60,33,1,0,0,response1disk,,6,1,-5,1,0,0,rectangle,1,-5,1,0,0,1,-5,1,0,0,0,122,122,21,1,,,,,,,,
,,,,,,,,,,,,,FF,,,,,,,,0.619,,,,,,,,,,,,,,,,,,,,,,60fe3f65d1ef0e848acb56a9,61036adf1c694e0cea5f1142,2021-07-30_12h59.47.827,Simcolourproject_2stim_asymm_v5,2020.2.10,MacIntel,60,61025ae37ef11b136ea224fe,,,,,,,,,2422,92,45,1,0,0,response1disk,,6,-6,-1,1,0,0,rectangle,-6,-1,1,0,0,-6,-1,1,0,0,0,123,123,40,1,,,,,,,,
,,,,,,,,,,,,,FF,,,,,,,,0.611,,,,,,,,,,,,,,,,,,,,,,60fe3f65d1ef0e848acb56a9,61036adf1c694e0cea5f1142,2021-07-30_12h59.47.827,Simcolourproject_2stim_asymm_v5,2020.2.10,MacIntel,60,61025ae37ef11b136ea224fe,,,,,,,,,4044,31,63,1,0,0,response1disk,,7,10,8,1,0,0,rectangle,10,8,1,0,0,10,8,1,0,0,0,124,124,115,1,,,,,,,,
,,,,,,,,,,,,,FF,,,,,,,,0.883,,,,,,,,,,,,,,,,,,,,,,60fe3f65d1ef0e848acb56a9,61036adf1c694e0cea5f1142,2021-07-30_12h59.47.827,Simcolourproject_2stim_asymm_v5,2020.2.10,MacIntel,60,61025ae37ef11b136ea224fe,,,,,,,,,4105,81,-40,1,0,0,response3disk,,5,13,-2,1,0,0,rectangle,13,-2,1,0,0,13,-2,1,0,0,0,125,125,51,1,,,,,,,,
,,,,,,,,,,,,,FF,,,,,,,,0.667,,,,,,,,,,,,,,,,,,,,,,60fe3f65d1ef0e848acb56a9,61036adf1c694e0cea5f1142,2021-07-30_12h59.47.827,Simcolourproject_2stim_asymm_v5,2020.2.10,MacIntel,60,61025ae37ef11b136ea224fe,,,,,,,,,1591,78,43,1,0,0,response1disk,,6,17,9,1,0,0,rectangle,17,9,1,0,0,17,9,1,0,0,0,126,126,117,1,,,,,,,,
,,,,,,,,,,,,,FF,,,,,,,,3,,,,,,,,,,,,,,,,,,,,,,60fe3f65d1ef0e848acb56a9,61036adf1c694e0cea5f1142,2021-07-30_12h59.47.827,Simcolourproject_2stim_asymm_v5,2020.2.10,MacIntel,60,61025ae37ef11b136ea224fe,,,,,,,,,509,35,55,1,0,0,response1disk,,7,17,-12,1,0,0,rectangle,31,-66,1,0,0,3,13,1,0,0,0,127,127,147,1,,response3disk_3,TRUE,4,1,"[204,310,197,102,56,190,276,271,91,182,97,26,49,51,132,71,107,113,128,230]",0.682,rectangle
,,,,,,,,,,,,,FF,,,,,,,,0.849,,,,,,,,,,,,,,,,,,,,,,60fe3f65d1ef0e848acb56a9,61036adf1c694e0cea5f1142,2021-07-30_12h59.47.827,Simcolourproject_2stim_asymm_v5,2020.2.10,MacIntel,60,61025ae37ef11b136ea224fe,,,,,,,,,154,90,46,1,0,0,response1disk,,6,0,2,1,0,0,rectangle,0,2,1,0,0,0,2,1,0,0,0,128,128,63,1,,,,,,,,
,,,,,,,,,,,,,FF,,,,,,,,0.633,,,,,,,,,,,,,,,,,,,,,,60fe3f65d1ef0e848acb56a9,61036adf1c694e0cea5f1142,2021-07-30_12h59.47.827,Simcolourproject_2stim_asymm_v5,2020.2.10,MacIntel,60,61025ae37ef11b136ea224fe,,,,,,,,,4147,54,25,1,0,0,response1disk,,6,8,3,1,0,0,rectangle,8,3,1,0,0,8,3,1,0,0,0,129,129,37,1,,,,,,,,
,,,,,,,,,,,,,FF,,,,,,,,0.9,,,,,,,,,,,,,,,,,,,,,,60fe3f65d1ef0e848acb56a9,61036adf1c694e0cea5f1142,2021-07-30_12h59.47.827,Simcolourproject_2stim_asymm_v5,2020.2.10,MacIntel,60,61025ae37ef11b136ea224fe,,,,,,,,,2372,32,47,1,0,0,response1disk,,7,13,-2,1,0,0,rectangle,13,-2,1,0,0,13,-2,1,0,0,0,130,130,145,1,,,,,,,,
,,,,,,,,,,,,,FF,,,,,,,,0.883,,,,,,,,,,,,,,,,,,,,,,60fe3f65d1ef0e848acb56a9,61036adf1c694e0cea5f1142,2021-07-30_12h59.47.827,Simcolourproject_2stim_asymm_v5,2020.2.10,MacIntel,60,61025ae37ef11b136ea224fe,,,,,,,,,1293,-24,-65,1,0,0,response5disk,,3,-8,-9,1,0,0,rectangle,41,-75,1,0,0,-11,8,1,0,0,0,131,131,157,1,,response3disk_3,TRUE,4,5,"[204,310,197,102,56,190,276,271,91,182,97,26,49,51,132,71,107,113,128,230]",1.932,rectangle
,,,,,,,,,,,,,FF,,,,,,,,0.867,,,,,,,,,,,,,,,,,,,,,,60fe3f65d1ef0e848acb56a9,61036adf1c694e0cea5f1142,2021-07-30_12h59.47.827,Simcolourproject_2stim_asymm_v5,2020.2.10,MacIntel,60,61025ae37ef11b136ea224fe,,,,,,,,,4317,49,75,1,0,0,response1disk,,7,28,10,1,0,0,rectangle,28,10,1,0,0,28,10,1,0,0,0,132,132,3,1,,,,,,,,
,,,,,,,,,,,,,FF,,,,,,,,0.717,,,,,,,,,,,,,,,,,,,,,,60fe3f65d1ef0e848acb56a9,61036adf1c694e0cea5f1142,2021-07-30_12h59.47.827,Simcolourproject_2stim_asymm_v5,2020.2.10,MacIntel,60,61025ae37ef11b136ea224fe,,,,,,,,,4309,40,64,1,0,0,response1disk,,7,14,17,1,0,0,rectangle,14,17,1,0,0,14,17,1,0,0,0,133,133,13,1,,,,,,,,
,,,,,,,,,,,,,FF,,,,,,,,0.817,,,,,,,,,,,,,,,,,,,,,,60fe3f65d1ef0e848acb56a9,61036adf1c694e0cea5f1142,2021-07-30_12h59.47.827,Simcolourproject_2stim_asymm_v5,2020.2.10,MacIntel,60,61025ae37ef11b136ea224fe,,,,,,,,,1410,66,-38,1,0,0,response3disk,,5,-1,-13,1,0,0,rectangle,-1,-13,1,0,0,-1,-13,1,0,0,0,134,134,79,1,,,,,,,,
,,,,,,,,,,,,,FF,,,,,,,,0.7,,,,,,,,,,,,,,,,,,,,,,60fe3f65d1ef0e848acb56a9,61036adf1c694e0cea5f1142,2021-07-30_12h59.47.827,Simcolourproject_2stim_asymm_v5,2020.2.10,MacIntel,60,61025ae37ef11b136ea224fe,,,,,,,,,334,71,30,1,0,0,response1disk,,6,1,1,1,0,0,rectangle,1,1,1,0,0,1,1,1,0,0,0,135,135,9,1,,,,,,,,
,,,,,,,,,,,,,FF,,,,,,,,0.716,,,,,,,,,,,,,,,,,,,,,,60fe3f65d1ef0e848acb56a9,61036adf1c694e0cea5f1142,2021-07-30_12h59.47.827,Simcolourproject_2stim_asymm_v5,2020.2.10,MacIntel,60,61025ae37ef11b136ea224fe,,,,,,,,,568,28,68,1,0,0,response1disk,,7,4,13,1,0,0,rectangle,4,13,1,0,0,4,13,1,0,0,0,136,136,150,1,,,,,,,,
,,,,,,,,,,,,,FF,,,,,,,,1.067,,,,,,,,,,,,,,,,,,,,,,60fe3f65d1ef0e848acb56a9,61036adf1c694e0cea5f1142,2021-07-30_12h59.47.827,Simcolourproject_2stim_asymm_v5,2020.2.10,MacIntel,60,61025ae37ef11b136ea224fe,,,,,,,,,423,39,-87,1,0,0,response3disk,,4,2,-7,1,0,0,rectangle,2,-7,1,0,0,2,-7,1,0,0,0,137,137,71,1,,,,,,,,
,,,,,,,,,,,,,FF,,,,,,,,0.65,,,,,,,,,,,,,,,,,,,,,,60fe3f65d1ef0e848acb56a9,61036adf1c694e0cea5f1142,2021-07-30_12h59.47.827,Simcolourproject_2stim_asymm_v5,2020.2.10,MacIntel,60,61025ae37ef11b136ea224fe,,,,,,,,,1500,26,41,1,0,0,response1disk,,7,15,4,1,0,0,rectangle,15,4,1,0,0,15,4,1,0,0,0,138,138,18,1,,,,,,,,
,,,,,,,,,,,,,FF,,,,,,,,0.783,,,,,,,,,,,,,,,,,,,,,,60fe3f65d1ef0e848acb56a9,61036adf1c694e0cea5f1142,2021-07-30_12h59.47.827,Simcolourproject_2stim_asymm_v5,2020.2.10,MacIntel,60,61025ae37ef11b136ea224fe,,,,,,,,,1146,103,-56,1,0,0,response3disk,,5,-2,-4,1,0,0,rectangle,-2,-4,1,0,0,-2,-4,1,0,0,0,139,139,56,1,,,,,,,,
,,,,,,,,,,,,,FF,,,,,,,,0.733,,,,,,,,,,,,,,,,,,,,,,60fe3f65d1ef0e848acb56a9,61036adf1c694e0cea5f1142,2021-07-30_12h59.47.827,Simcolourproject_2stim_asymm_v5,2020.2.10,MacIntel,60,61025ae37ef11b136ea224fe,,,,,,,,,613,83,-33,1,0,0,response3disk,,5,-7,-3,1,0,0,rectangle,-7,-3,1,0,0,-7,-3,1,0,0,0,140,140,10,1,,,,,,,,
,,,,,,,,,,,,,FF,,,,,,,,1.6,,,,,,,,,,,,,,,,,,,,,,60fe3f65d1ef0e848acb56a9,61036adf1c694e0cea5f1142,2021-07-30_12h59.47.827,Simcolourproject_2stim_asymm_v5,2020.2.10,MacIntel,60,61025ae37ef11b136ea224fe,,,,,,,,,3665,40,-81,1,0,0,response3disk,,4,16,12,1,0,0,rectangle,16,12,1,0,0,16,12,1,0,0,0,141,141,0,1,,,,,,,,
,,,,,,,,,,,,,FF,,,,,,,,1.134,,,,,,,,,,,,,,,,,,,,,,60fe3f65d1ef0e848acb56a9,61036adf1c694e0cea5f1142,2021-07-30_12h59.47.827,Simcolourproject_2stim_asymm_v5,2020.2.10,MacIntel,60,61025ae37ef11b136ea224fe,,,,,,,,,3357,30,81,1,0,0,response1disk,,7,18,10,1,0,0,rectangle,18,10,1,0,0,18,10,1,0,0,0,142,142,74,1,,,,,,,,
,,,,,,,,,,,,,FF,,,,,,,,0.949,,,,,,,,,,,,,,,,,,,,,,60fe3f65d1ef0e848acb56a9,61036adf1c694e0cea5f1142,2021-07-30_12h59.47.827,Simcolourproject_2stim_asymm_v5,2020.2.10,MacIntel,60,61025ae37ef11b136ea224fe,,,,,,,,,255,48,-98,1,0,0,response3disk,,4,-10,-9,1,0,0,rectangle,-10,-9,1,0,0,-10,-9,1,0,0,0,143,143,146,1,,,,,,,,
,,,,,,,,,,,,,FF,,,,,,,,1.634,,,,,,,,,,,,,,,,,,,,,,60fe3f65d1ef0e848acb56a9,61036adf1c694e0cea5f1142,2021-07-30_12h59.47.827,Simcolourproject_2stim_asymm_v5,2020.2.10,MacIntel,60,61025ae37ef11b136ea224fe,,,,,,,,,184,78,-52,1,0,0,response3disk,,5,-9,4,1,0,0,rectangle,-9,4,1,0,0,-9,4,1,0,0,0,144,144,41,1,,,,,,,,
,,,,,,,,,,,,,FF,,,,,,,,1.001,,,,,,,,,,,,,,,,,,,,,,60fe3f65d1ef0e848acb56a9,61036adf1c694e0cea5f1142,2021-07-30_12h59.47.827,Simcolourproject_2stim_asymm_v5,2020.2.10,MacIntel,60,61025ae37ef11b136ea224fe,,,,,,,,,2279,53,25,1,0,0,response1disk,,6,17,17,1,0,0,rectangle,17,17,1,0,0,17,17,1,0,0,0,145,145,151,1,,,,,,,,
,,,,,,,,,,,,,FF,,,,,,,,0.534,,,,,,,,,,,,,,,,,,,,,,60fe3f65d1ef0e848acb56a9,61036adf1c694e0cea5f1142,2021-07-30_12h59.47.827,Simcolourproject_2stim_asymm_v5,2020.2.10,MacIntel,60,61025ae37ef11b136ea224fe,,,,,,,,,770,34,45,1,0,0,response1disk,,7,27,17,1,0,0,rectangle,27,17,1,0,0,27,17,1,0,0,0,146,146,110,1,,,,,,,,
,,,,,,,,,,,,,FF,,,,,,,,0.65,,,,,,,,,,,,,,,,,,,,,,60fe3f65d1ef0e848acb56a9,61036adf1c694e0cea5f1142,2021-07-30_12h59.47.827,Simcolourproject_2stim_asymm_v5,2020.2.10,MacIntel,60,61025ae37ef11b136ea224fe,,,,,,,,,3765,29,64,1,0,0,response1disk,,7,28,13,1,0,0,rectangle,28,13,1,0,0,28,13,1,0,0,0,147,147,54,1,,,,,,,,
,,,,,,,,,,,,,FF,,,,,,,,0.517,,,,,,,,,,,,,,,,,,,,,,60fe3f65d1ef0e848acb56a9,61036adf1c694e0cea5f1142,2021-07-30_12h59.47.827,Simcolourproject_2stim_asymm_v5,2020.2.10,MacIntel,60,61025ae37ef11b136ea224fe,,,,,,,,,3457,32,41,1,0,0,response1disk,,7,19,-2,1,0,0,rectangle,19,-2,1,0,0,19,-2,1,0,0,0,148,148,142,1,,,,,,,,
,,,,,,,,,,,,,FF,,,,,,,,0.749,,,,,,,,,,,,,,,,,,,,,,60fe3f65d1ef0e848acb56a9,61036adf1c694e0cea5f1142,2021-07-30_12h59.47.827,Simcolourproject_2stim_asymm_v5,2020.2.10,MacIntel,60,61025ae37ef11b136ea224fe,,,,,,,,,3563,45,-65,1,0,0,response3disk,,4,8,-9,1,0,0,rectangle,8,-9,1,0,0,8,-9,1,0,0,0,149,149,70,1,,,,,,,,
,,,,,,,,,,,,,FF,,,,,,,,0.6,,,,,,,,,,,,,,,,,,,,,,60fe3f65d1ef0e848acb56a9,61036adf1c694e0cea5f1142,2021-07-30_12h59.47.827,Simcolourproject_2stim_asymm_v5,2020.2.10,MacIntel,60,61025ae37ef11b136ea224fe,,,,,,,,,3491,80,24,1,0,0,response1disk,,6,-4,12,1,0,0,rectangle,-4,12,1,0,0,-4,12,1,0,0,0,150,150,93,1,,,,,,,,
,,,,,,,,,,,,,FF,,,,,,,,0.782,,,,,,,,,,,,,,,,,,,,,,60fe3f65d1ef0e848acb56a9,61036adf1c694e0cea5f1142,2021-07-30_12h59.47.827,Simcolourproject_2stim_asymm_v5,2020.2.10,MacIntel,60,61025ae37ef11b136ea224fe,,,,,,,,,2536,31,60,1,0,0,response1disk,,7,4,11,1,0,0,rectangle,4,11,1,0,0,4,11,1,0,0,0,151,151,55,1,,,,,,,,
,,,,,,,,,,,,,FF,,,,,,,,1.533,,,,,,,,,,,,,,,,,,,,,,60fe3f65d1ef0e848acb56a9,61036adf1c694e0cea5f1142,2021-07-30_12h59.47.827,Simcolourproject_2stim_asymm_v5,2020.2.10,MacIntel,60,61025ae37ef11b136ea224fe,,,,,,,,,3296,-69,-77,1,0,0,response5disk,,3,-10,-9,1,0,0,rectangle,-10,-9,1,0,0,-10,-9,1,0,0,0,152,152,149,1,,,,,,,,
,,,,,,,,,,,,,FF,,,,,,,,0.684,,,,,,,,,,,,,,,,,,,,,,60fe3f65d1ef0e848acb56a9,61036adf1c694e0cea5f1142,2021-07-30_12h59.47.827,Simcolourproject_2stim_asymm_v5,2020.2.10,MacIntel,60,61025ae37ef11b136ea224fe,,,,,,,,,4183,76,38,1,0,0,response1disk,,6,12,4,1,0,0,rectangle,12,4,1,0,0,12,4,1,0,0,0,153,153,20,1,,,,,,,,
,,,,,,,,,,,,,FF,,,,,,,,0.601,,,,,,,,,,,,,,,,,,,,,,60fe3f65d1ef0e848acb56a9,61036adf1c694e0cea5f1142,2021-07-30_12h59.47.827,Simcolourproject_2stim_asymm_v5,2020.2.10,MacIntel,60,61025ae37ef11b136ea224fe,,,,,,,,,253,34,69,1,0,0,response1disk,,7,17,6,1,0,0,rectangle,17,6,1,0,0,17,6,1,0,0,0,154,154,67,1,,,,,,,,
,,,,,,,,,,,,,FF,,,,,,,,0.95,,,,,,,,,,,,,,,,,,,,,,60fe3f65d1ef0e848acb56a9,61036adf1c694e0cea5f1142,2021-07-30_12h59.47.827,Simcolourproject_2stim_asymm_v5,2020.2.10,MacIntel,60,61025ae37ef11b136ea224fe,,,,,,,,,2361,-82,-34,1,0,0,response5disk,,2,-2,-14,1,0,0,rectangle,-2,-14,1,0,0,-2,-14,1,0,0,0,155,155,96,1,,,,,,,,
,,,,,,,,,,,,,FF,,,,,,,,0.566,,,,,,,,,,,,,,,,,,,,,,60fe3f65d1ef0e848acb56a9,61036adf1c694e0cea5f1142,2021-07-30_12h59.47.827,Simcolourproject_2stim_asymm_v5,2020.2.10,MacIntel,60,61025ae37ef11b136ea224fe,,,,,,,,,2725,-63,-43,1,0,0,response5disk,,2,18,-3,1,0,0,rectangle,18,-3,1,0,0,18,-3,1,0,0,0,156,156,6,1,,,,,,,,
,,,,,,,,,,,,,FF,,,,,,,,0.8,,,,,,,,,,,,,,,,,,,,,,60fe3f65d1ef0e848acb56a9,61036adf1c694e0cea5f1142,2021-07-30_12h59.47.827,Simcolourproject_2stim_asymm_v5,2020.2.10,MacIntel,60,61025ae37ef11b136ea224fe,,,,,,,,,2013,84,42,1,0,0,response1disk,,6,25,6,1,0,0,rectangle,25,6,1,0,0,25,6,1,0,0,0,157,157,135,1,,,,,,,,
,,,,,,,,,,,,,FF,,,,,,,,0.65,,,,,,,,,,,,,,,,,,,,,,60fe3f65d1ef0e848acb56a9,61036adf1c694e0cea5f1142,2021-07-30_12h59.47.827,Simcolourproject_2stim_asymm_v5,2020.2.10,MacIntel,60,61025ae37ef11b136ea224fe,,,,,,,,,4318,31,52,1,0,0,response1disk,,7,11,5,1,0,0,rectangle,11,5,1,0,0,11,5,1,0,0,0,158,158,72,1,,,,,,,,
,,,,,,,,,,,,,FF,,,,,,,,1.251,,,,,,,,,,,,,,,,,,,,,,60fe3f65d1ef0e848acb56a9,61036adf1c694e0cea5f1142,2021-07-30_12h59.47.827,Simcolourproject_2stim_asymm_v5,2020.2.10,MacIntel,60,61025ae37ef11b136ea224fe,,,,,,,,,4312,25,54,1,0,0,response1disk,,7,13,-3,1,0,0,rectangle,13,-3,1,0,0,13,-3,1,0,0,0,159,159,108,1,,,,,,,,
,,,,,,,,,,,,,FF,,,,,,,,0.635,,,,,,,,,,,,,,,,,,,,,,60fe3f65d1ef0e848acb56a9,61036adf1c694e0cea5f1142,2021-07-30_12h59.47.827,Simcolourproject_2stim_asymm_v5,2020.2.10,MacIntel,60,61025ae37ef11b136ea224fe,,,,,,,,,3064,61,-51,1,0,0,response3disk,,5,-4,-1,1,0,0,rectangle,-4,-1,1,0,0,-4,-1,1,0,0,1,0,160,123,1,,,,,,,,
,,,,,,,,,,,,,FF,,,,,,,,0.833,,,,,,,,,,,,,,,,,,,,,,60fe3f65d1ef0e848acb56a9,61036adf1c694e0cea5f1142,2021-07-30_12h59.47.827,Simcolourproject_2stim_asymm_v5,2020.2.10,MacIntel,60,61025ae37ef11b136ea224fe,,,,,,,,,1775,62,-25,1,0,0,response3disk,,5,14,-17,1,0,0,rectangle,14,-17,1,0,0,14,-17,1,0,0,1,1,161,88,1,,,,,,,,
,,,,,,,,,,,,,FF,,,,,,,,0.733,,,,,,,,,,,,,,,,,,,,,,60fe3f65d1ef0e848acb56a9,61036adf1c694e0cea5f1142,2021-07-30_12h59.47.827,Simcolourproject_2stim_asymm_v5,2020.2.10,MacIntel,60,61025ae37ef11b136ea224fe,,,,,,,,,3875,-32,53,1,0,0,response7disk,,0,-11,7,1,0,0,rectangle,-11,7,1,0,0,-11,7,1,0,0,1,2,162,13,1,,,,,,,,
,,,,,,,,,,,,,FF,,,,,,,,1.3,,,,,,,,,,,,,,,,,,,,,,60fe3f65d1ef0e848acb56a9,61036adf1c694e0cea5f1142,2021-07-30_12h59.47.827,Simcolourproject_2stim_asymm_v5,2020.2.10,MacIntel,60,61025ae37ef11b136ea224fe,,,,,,,,,442,-36,-91,1,0,0,response5disk,,3,6,-6,1,0,0,rectangle,6,-6,1,0,0,6,-6,1,0,0,1,3,163,93,1,,,,,,,,
,,,,,,,,,,,,,FF,,,,,,,,0.967,,,,,,,,,,,,,,,,,,,,,,60fe3f65d1ef0e848acb56a9,61036adf1c694e0cea5f1142,2021-07-30_12h59.47.827,Simcolourproject_2stim_asymm_v5,2020.2.10,MacIntel,60,61025ae37ef11b136ea224fe,,,,,,,,,1089,49,54,1,0,0,response1disk,,7,16,-12,1,0,0,rectangle,16,-12,1,0,0,16,-12,1,0,0,1,4,164,135,1,,,,,,,,
,,,,,,,,,,,,,FF,,,,,,,,0.584,,,,,,,,,,,,,,,,,,,,,,60fe3f65d1ef0e848acb56a9,61036adf1c694e0cea5f1142,2021-07-30_12h59.47.827,Simcolourproject_2stim_asymm_v5,2020.2.10,MacIntel,60,61025ae37ef11b136ea224fe,,,,,,,,,323,21,50,1,0,0,response1disk,,7,19,-2,1,0,0,rectangle,19,-2,1,0,0,19,-2,1,0,0,1,5,165,84,1,,,,,,,,
,,,,,,,,,,,,,FF,,,,,,,,0.884,,,,,,,,,,,,,,,,,,,,,,60fe3f65d1ef0e848acb56a9,61036adf1c694e0cea5f1142,2021-07-30_12h59.47.827,Simcolourproject_2stim_asymm_v5,2020.2.10,MacIntel,60,61025ae37ef11b136ea224fe,,,,,,,,,592,67,-34,1,0,0,response3disk,,5,6,-10,1,0,0,rectangle,6,-10,1,0,0,6,-10,1,0,0,1,6,166,131,1,,,,,,,,
,,,,,,,,,,,,,FF,,,,,,,,0.518,,,,,,,,,,,,,,,,,,,,,,60fe3f65d1ef0e848acb56a9,61036adf1c694e0cea5f1142,2021-07-30_12h59.47.827,Simcolourproject_2stim_asymm_v5,2020.2.10,MacIntel,60,61025ae37ef11b136ea224fe,,,,,,,,,335,21,33,1,0,0,response1disk,,7,20,12,1,0,0,rectangle,20,12,1,0,0,20,12,1,0,0,1,7,167,56,1,,,,,,,,
,,,,,,,,,,,,,FF,,,,,,,,0.951,,,,,,,,,,,,,,,,,,,,,,60fe3f65d1ef0e848acb56a9,61036adf1c694e0cea5f1142,2021-07-30_12h59.47.827,Simcolourproject_2stim_asymm_v5,2020.2.10,MacIntel,60,61025ae37ef11b136ea224fe,,,,,,,,,4281,-31,-82,1,0,0,response5disk,,3,-5,-6,1,0,0,rectangle,-5,-6,1,0,0,-5,-6,1,0,0,1,8,168,21,1,,,,,,,,
,,,,,,,,,,,,,FF,,,,,,,,1.567,,,,,,,,,,,,,,,,,,,,,,60fe3f65d1ef0e848acb56a9,61036adf1c694e0cea5f1142,2021-07-30_12h59.47.827,Simcolourproject_2stim_asymm_v5,2020.2.10,MacIntel,60,61025ae37ef11b136ea224fe,,,,,,,,,3426,-19,-72,1,0,0,response5disk,,3,-8,-2,1,0,0,rectangle,-8,-2,1,0,0,-8,-2,1,0,0,1,9,169,19,1,,,,,,,,
,,,,,,,,,,,,,FF,,,,,,,,0.699,,,,,,,,,,,,,,,,,,,,,,60fe3f65d1ef0e848acb56a9,61036adf1c694e0cea5f1142,2021-07-30_12h59.47.827,Simcolourproject_2stim_asymm_v5,2020.2.10,MacIntel,60,61025ae37ef11b136ea224fe,,,,,,,,,3711,-51,-71,1,0,0,response5disk,,3,-17,-13,1,0,0,rectangle,-17,-13,1,0,0,-17,-13,1,0,0,1,10,170,124,1,,,,,,,,
,,,,,,,,,,,,,FF,,,,,,,,0.933,,,,,,,,,,,,,,,,,,,,,,60fe3f65d1ef0e848acb56a9,61036adf1c694e0cea5f1142,2021-07-30_12h59.47.827,Simcolourproject_2stim_asymm_v5,2020.2.10,MacIntel,60,61025ae37ef11b136ea224fe,,,,,,,,,480,31,48,1,0,0,response1disk,,7,8,3,1,0,0,rectangle,8,3,1,0,0,8,3,1,0,0,1,11,171,139,1,,,,,,,,
,,,,,,,,,,,,,FF,,,,,,,,0.617,,,,,,,,,,,,,,,,,,,,,,60fe3f65d1ef0e848acb56a9,61036adf1c694e0cea5f1142,2021-07-30_12h59.47.827,Simcolourproject_2stim_asymm_v5,2020.2.10,MacIntel,60,61025ae37ef11b136ea224fe,,,,,,,,,1507,35,43,1,0,0,response1disk,,7,13,17,1,0,0,rectangle,13,17,1,0,0,13,17,1,0,0,1,12,172,141,1,,,,,,,,
,,,,,,,,,,,,,FF,,,,,,,,1.084,,,,,,,,,,,,,,,,,,,,,,60fe3f65d1ef0e848acb56a9,61036adf1c694e0cea5f1142,2021-07-30_12h59.47.827,Simcolourproject_2stim_asymm_v5,2020.2.10,MacIntel,60,61025ae37ef11b136ea224fe,,,,,,,,,4363,-77,46,1,0,0,response7disk,,1,-27,11,1,0,0,rectangle,-27,11,1,0,0,-27,11,1,0,0,1,13,173,58,1,,,,,,,,
,,,,,,,,,,,,,FF,,,,,,,,0.835,,,,,,,,,,,,,,,,,,,,,,60fe3f65d1ef0e848acb56a9,61036adf1c694e0cea5f1142,2021-07-30_12h59.47.827,Simcolourproject_2stim_asymm_v5,2020.2.10,MacIntel,60,61025ae37ef11b136ea224fe,,,,,,,,,1536,-74,-38,1,0,0,response5disk,,2,10,-3,1,0,0,rectangle,10,-3,1,0,0,10,-3,1,0,0,1,14,174,38,1,,,,,,,,
,,,,,,,,,,,,,FF,,,,,,,,0.835,,,,,,,,,,,,,,,,,,,,,,60fe3f65d1ef0e848acb56a9,61036adf1c694e0cea5f1142,2021-07-30_12h59.47.827,Simcolourproject_2stim_asymm_v5,2020.2.10,MacIntel,60,61025ae37ef11b136ea224fe,,,,,,,,,4048,49,44,1,0,0,response1disk,,6,8,-7,1,0,0,rectangle,8,-7,1,0,0,8,-7,1,0,0,1,15,175,90,1,,,,,,,,
,,,,,,,,,,,,,FF,,,,,,,,0.749,,,,,,,,,,,,,,,,,,,,,,60fe3f65d1ef0e848acb56a9,61036adf1c694e0cea5f1142,2021-07-30_12h59.47.827,Simcolourproject_2stim_asymm_v5,2020.2.10,MacIntel,60,61025ae37ef11b136ea224fe,,,,,,,,,1813,-41,-71,1,0,0,response5disk,,3,3,-2,1,0,0,rectangle,3,-2,1,0,0,3,-2,1,0,0,1,16,176,28,1,,,,,,,,
,,,,,,,,,,,,,FF,,,,,,,,0.766,,,,,,,,,,,,,,,,,,,,,,60fe3f65d1ef0e848acb56a9,61036adf1c694e0cea5f1142,2021-07-30_12h59.47.827,Simcolourproject_2stim_asymm_v5,2020.2.10,MacIntel,60,61025ae37ef11b136ea224fe,,,,,,,,,1016,40,73,1,0,0,response1disk,,7,29,5,1,0,0,rectangle,29,5,1,0,0,29,5,1,0,0,1,17,177,66,1,,,,,,,,
,,,,,,,,,,,,,FF,,,,,,,,0.782,,,,,,,,,,,,,,,,,,,,,,60fe3f65d1ef0e848acb56a9,61036adf1c694e0cea5f1142,2021-07-30_12h59.47.827,Simcolourproject_2stim_asymm_v5,2020.2.10,MacIntel,60,61025ae37ef11b136ea224fe,,,,,,,,,3447,67,-51,1,0,0,response3disk,,5,-15,-3,1,0,0,rectangle,-15,-3,1,0,0,-15,-3,1,0,0,1,18,178,10,1,,,,,,,,
,,,,,,,,,,,,,FF,,,,,,,,0.833,,,,,,,,,,,,,,,,,,,,,,60fe3f65d1ef0e848acb56a9,61036adf1c694e0cea5f1142,2021-07-30_12h59.47.827,Simcolourproject_2stim_asymm_v5,2020.2.10,MacIntel,60,61025ae37ef11b136ea224fe,,,,,,,,,1675,41,66,1,0,0,response1disk,,7,11,6,1,0,0,rectangle,11,6,1,0,0,11,6,1,0,0,1,19,179,115,1,,,,,,,,
,,,,,,,,,,,,,FF,,,,,,,,1.433,,,,,,,,,,,,,,,,,,,,,,60fe3f65d1ef0e848acb56a9,61036adf1c694e0cea5f1142,2021-07-30_12h59.47.827,Simcolourproject_2stim_asymm_v5,2020.2.10,MacIntel,60,61025ae37ef11b136ea224fe,,,,,,,,,830,58,77,1,0,0,response1disk,,7,33,10,1,0,0,rectangle,33,10,1,0,0,33,10,1,0,0,1,20,180,120,1,,,,,,,,
,,,,,,,,,,,,,FF,,,,,,,,1.116,,,,,,,,,,,,,,,,,,,,,,60fe3f65d1ef0e848acb56a9,61036adf1c694e0cea5f1142,2021-07-30_12h59.47.827,Simcolourproject_2stim_asymm_v5,2020.2.10,MacIntel,60,61025ae37ef11b136ea224fe,,,,,,,,,4301,14,-88,1,0,0,response3disk,,4,-3,1,1,0,0,rectangle,47,-83,1,0,0,7,3,1,0,0,1,21,181,126,1,,response3disk_3,TRUE,4,5,"[204,310,197,102,56,190,276,271,91,182,97,26,49,51,132,71,107,113,128,230]",4.868,rectangle
,,,,,,,,,,,,,FF,,,,,,,,1.549,,,,,,,,,,,,,,,,,,,,,,60fe3f65d1ef0e848acb56a9,61036adf1c694e0cea5f1142,2021-07-30_12h59.47.827,Simcolourproject_2stim_asymm_v5,2020.2.10,MacIntel,60,61025ae37ef11b136ea224fe,,,,,,,,,963,49,-71,1,0,0,response3disk,,4,-24,7,1,0,0,rectangle,-24,7,1,0,0,-24,7,1,0,0,1,22,182,43,1,,,,,,,,
,,,,,,,,,,,,,FF,,,,,,,,0.733,,,,,,,,,,,,,,,,,,,,,,60fe3f65d1ef0e848acb56a9,61036adf1c694e0cea5f1142,2021-07-30_12h59.47.827,Simcolourproject_2stim_asymm_v5,2020.2.10,MacIntel,60,61025ae37ef11b136ea224fe,,,,,,,,,2226,-62,42,1,0,0,response7disk,,1,13,4,1,0,0,rectangle,13,4,1,0,0,13,4,1,0,0,1,23,183,37,1,,,,,,,,
,,,,,,,,,,,,,FF,,,,,,,,0.733,,,,,,,,,,,,,,,,,,,,,,60fe3f65d1ef0e848acb56a9,61036adf1c694e0cea5f1142,2021-07-30_12h59.47.827,Simcolourproject_2stim_asymm_v5,2020.2.10,MacIntel,60,61025ae37ef11b136ea224fe,,,,,,,,,1196,47,61,1,0,0,response1disk,,7,15,7,1,0,0,rectangle,15,7,1,0,0,15,7,1,0,0,1,24,184,54,1,,,,,,,,
,,,,,,,,,,,,,FF,,,,,,,,1.635,,,,,,,,,,,,,,,,,,,,,,60fe3f65d1ef0e848acb56a9,61036adf1c694e0cea5f1142,2021-07-30_12h59.47.827,Simcolourproject_2stim_asymm_v5,2020.2.10,MacIntel,60,61025ae37ef11b136ea224fe,,,,,,,,,567,41,-87,1,0,0,response3disk,,4,-6,5,1,0,0,rectangle,-6,5,1,0,0,-6,5,1,0,0,1,25,185,130,1,,,,,,,,
,,,,,,,,,,,,,FF,,,,,,,,0.817,,,,,,,,,,,,,,,,,,,,,,60fe3f65d1ef0e848acb56a9,61036adf1c694e0cea5f1142,2021-07-30_12h59.47.827,Simcolourproject_2stim_asymm_v5,2020.2.10,MacIntel,60,61025ae37ef11b136ea224fe,,,,,,,,,437,-34,-87,1,0,0,response5disk,,3,-30,2,1,0,0,rectangle,-30,2,1,0,0,-30,2,1,0,0,1,26,186,55,1,,,,,,,,
,,,,,,,,,,,,,FF,,,,,,,,0.717,,,,,,,,,,,,,,,,,,,,,,60fe3f65d1ef0e848acb56a9,61036adf1c694e0cea5f1142,2021-07-30_12h59.47.827,Simcolourproject_2stim_asymm_v5,2020.2.10,MacIntel,60,61025ae37ef11b136ea224fe,,,,,,,,,3936,-46,84,1,0,0,response7disk,,0,-8,8,1,0,0,rectangle,-8,8,1,0,0,-8,8,1,0,0,1,27,187,107,1,,,,,,,,
,,,,,,,,,,,,,FF,,,,,,,,0.833,,,,,,,,,,,,,,,,,,,,,,60fe3f65d1ef0e848acb56a9,61036adf1c694e0cea5f1142,2021-07-30_12h59.47.827,Simcolourproject_2stim_asymm_v5,2020.2.10,MacIntel,60,61025ae37ef11b136ea224fe,,,,,,,,,1919,-57,26,1,0,0,response7disk,,1,3,-3,1,0,0,rectangle,3,-3,1,0,0,3,-3,1,0,0,1,28,188,67,1,,,,,,,,
,,,,,,,,,,,,,FF,,,,,,,,0.6,,,,,,,,,,,,,,,,,,,,,,60fe3f65d1ef0e848acb56a9,61036adf1c694e0cea5f1142,2021-07-30_12h59.47.827,Simcolourproject_2stim_asymm_v5,2020.2.10,MacIntel,60,61025ae37ef11b136ea224fe,,,,,,,,,1067,39,53,1,0,0,response1disk,,7,-2,7,1,0,0,rectangle,44,-55,1,0,0,-15,10,1,0,0,1,29,189,143,1,,response3disk_3,TRUE,4,6,"[204,310,197,102,56,190,276,271,91,182,97,26,49,51,132,71,107,113,128,230]",0.833,rectangle
,,,,,,,,,,,,,FF,,,,,,,,10.252,,,,,,,,,,,,,,,,,,,,,,60fe3f65d1ef0e848acb56a9,61036adf1c694e0cea5f1142,2021-07-30_12h59.47.827,Simcolourproject_2stim_asymm_v5,2020.2.10,MacIntel,60,61025ae37ef11b136ea224fe,,,,,,,,,956,41,-89,1,0,0,response3disk,,4,-24,8,1,0,0,rectangle,-24,8,1,0,0,-24,8,1,0,0,1,30,190,53,1,,,,,,,,
,,,,,,,,,,,,,FF,,,,,,,,1.034,,,,,,,,,,,,,,,,,,,,,,60fe3f65d1ef0e848acb56a9,61036adf1c694e0cea5f1142,2021-07-30_12h59.47.827,Simcolourproject_2stim_asymm_v5,2020.2.10,MacIntel,60,61025ae37ef11b136ea224fe,,,,,,,,,1328,85,-30,1,0,0,response3disk,,5,13,-2,1,0,0,rectangle,13,-2,1,0,0,13,-2,1,0,0,1,31,191,46,1,,,,,,,,
,,,,,,,,,,,,,FF,,,,,,,,0.783,,,,,,,,,,,,,,,,,,,,,,60fe3f65d1ef0e848acb56a9,61036adf1c694e0cea5f1142,2021-07-30_12h59.47.827,Simcolourproject_2stim_asymm_v5,2020.2.10,MacIntel,60,61025ae37ef11b136ea224fe,,,,,,,,,317,37,47,1,0,0,response1disk,,7,4,-8,1,0,0,rectangle,4,-8,1,0,0,4,-8,1,0,0,1,32,192,144,1,,,,,,,,
,,,,,,,,,,,,,FF,,,,,,,,0.999,,,,,,,,,,,,,,,,,,,,,,60fe3f65d1ef0e848acb56a9,61036adf1c694e0cea5f1142,2021-07-30_12h59.47.827,Simcolourproject_2stim_asymm_v5,2020.2.10,MacIntel,60,61025ae37ef11b136ea224fe,,,,,,,,,1460,-38,-65,1,0,0,response5disk,,3,-3,11,1,0,0,rectangle,-3,11,1,0,0,-3,11,1,0,0,1,33,193,104,1,,,,,,,,
,,,,,,,,,,,,,FF,,,,,,,,1.384,,,,,,,,,,,,,,,,,,,,,,60fe3f65d1ef0e848acb56a9,61036adf1c694e0cea5f1142,2021-07-30_12h59.47.827,Simcolourproject_2stim_asymm_v5,2020.2.10,MacIntel,60,61025ae37ef11b136ea224fe,,,,,,,,,843,33,88,1,0,0,response1disk,,7,13,-18,1,0,0,rectangle,13,-18,1,0,0,13,-18,1,0,0,1,34,194,1,1,,,,,,,,
,,,,,,,,,,,,,FF,,,,,,,,1.399,,,,,,,,,,,,,,,,,,,,,,60fe3f65d1ef0e848acb56a9,61036adf1c694e0cea5f1142,2021-07-30_12h59.47.827,Simcolourproject_2stim_asymm_v5,2020.2.10,MacIntel,60,61025ae37ef11b136ea224fe,,,,,,,,,3006,-31,-77,1,0,0,response5disk,,3,12,-8,1,0,0,rectangle,12,-8,1,0,0,12,-8,1,0,0,1,35,195,34,1,,,,,,,,
,,,,,,,,,,,,,FF,,,,,,,,1.166,,,,,,,,,,,,,,,,,,,,,,60fe3f65d1ef0e848acb56a9,61036adf1c694e0cea5f1142,2021-07-30_12h59.47.827,Simcolourproject_2stim_asymm_v5,2020.2.10,MacIntel,60,61025ae37ef11b136ea224fe,,,,,,,,,720,-31,-82,1,0,0,response5disk,,3,-6,-6,1,0,0,rectangle,52,-73,1,0,0,14,8,1,0,0,1,36,196,151,1,,response3disk_3,TRUE,4,1,"[204,310,197,102,56,190,276,271,91,182,97,26,49,51,132,71,107,113,128,230]",0.833,rectangle
,,,,,,,,,,,,,FF,,,,,,,,3.101,,,,,,,,,,,,,,,,,,,,,,60fe3f65d1ef0e848acb56a9,61036adf1c694e0cea5f1142,2021-07-30_12h59.47.827,Simcolourproject_2stim_asymm_v5,2020.2.10,MacIntel,60,61025ae37ef11b136ea224fe,,,,,,,,,287,93,19,1,0,0,response1disk,,6,-27,13,1,0,0,rectangle,-27,13,1,0,0,-27,13,1,0,0,1,37,197,4,1,,,,,,,,
,,,,,,,,,,,,,FF,,,,,,,,0.615,,,,,,,,,,,,,,,,,,,,,,60fe3f65d1ef0e848acb56a9,61036adf1c694e0cea5f1142,2021-07-30_12h59.47.827,Simcolourproject_2stim_asymm_v5,2020.2.10,MacIntel,60,61025ae37ef11b136ea224fe,,,,,,,,,457,78,54,1,0,0,response1disk,,6,7,5,1,0,0,rectangle,7,5,1,0,0,7,5,1,0,0,1,38,198,36,1,,,,,,,,
,,,,,,,,,,,,,FF,,,,,,,,0.75,,,,,,,,,,,,,,,,,,,,,,60fe3f65d1ef0e848acb56a9,61036adf1c694e0cea5f1142,2021-07-30_12h59.47.827,Simcolourproject_2stim_asymm_v5,2020.2.10,MacIntel,60,61025ae37ef11b136ea224fe,,,,,,,,,447,17,41,1,0,0,response1disk,,7,2,0,1,0,0,rectangle,2,0,1,0,0,2,0,1,0,0,1,39,199,48,1,,,,,,,,
,,,,,,,,,,,,,FF,,,,,,,,0.767,,,,,,,,,,,,,,,,,,,,,,60fe3f65d1ef0e848acb56a9,61036adf1c694e0cea5f1142,2021-07-30_12h59.47.827,Simcolourproject_2stim_asymm_v5,2020.2.10,MacIntel,60,61025ae37ef11b136ea224fe,,,,,,,,,3209,42,51,1,0,0,response1disk,,7,-5,-2,1,0,0,rectangle,-5,-2,1,0,0,-5,-2,1,0,0,1,40,200,85,1,,,,,,,,
,,,,,,,,,,,,,FF,,,,,,,,0.933,,,,,,,,,,,,,,,,,,,,,,60fe3f65d1ef0e848acb56a9,61036adf1c694e0cea5f1142,2021-07-30_12h59.47.827,Simcolourproject_2stim_asymm_v5,2020.2.10,MacIntel,60,61025ae37ef11b136ea224fe,,,,,,,,,518,59,-15,1,0,0,response3disk,,5,13,4,1,0,0,rectangle,13,4,1,0,0,13,4,1,0,0,1,41,201,99,1,,,,,,,,
,,,,,,,,,,,,,FF,,,,,,,,0.634,,,,,,,,,,,,,,,,,,,,,,60fe3f65d1ef0e848acb56a9,61036adf1c694e0cea5f1142,2021-07-30_12h59.47.827,Simcolourproject_2stim_asymm_v5,2020.2.10,MacIntel,60,61025ae37ef11b136ea224fe,,,,,,,,,2342,35,53,1,0,0,response1disk,,7,-6,-10,1,0,0,rectangle,-6,-10,1,0,0,-6,-10,1,0,0,1,42,202,94,1,,,,,,,,
,,,,,,,,,,,,,FF,,,,,,,,1.284,,,,,,,,,,,,,,,,,,,,,,60fe3f65d1ef0e848acb56a9,61036adf1c694e0cea5f1142,2021-07-30_12h59.47.827,Simcolourproject_2stim_asymm_v5,2020.2.10,MacIntel,60,61025ae37ef11b136ea224fe,,,,,,,,,4339,-46,-80,1,0,0,response5disk,,3,-6,2,1,0,0,rectangle,44,-76,1,0,0,2,-3,1,0,0,1,43,203,117,1,,response3disk_3,TRUE,4,7,"[204,310,197,102,56,190,276,271,91,182,97,26,49,51,132,71,107,113,128,230]",1.102,rectangle
,,,,,,,,,,,,,FF,,,,,,,,1.733,,,,,,,,,,,,,,,,,,,,,,60fe3f65d1ef0e848acb56a9,61036adf1c694e0cea5f1142,2021-07-30_12h59.47.827,Simcolourproject_2stim_asymm_v5,2020.2.10,MacIntel,60,61025ae37ef11b136ea224fe,,,,,,,,,141,28,47,1,0,0,response1disk,,7,-1,-14,1,0,0,rectangle,-1,-14,1,0,0,-1,-14,1,0,0,1,44,204,73,1,,,,,,,,
,,,,,,,,,,,,,FF,,,,,,,,3.049,,,,,,,,,,,,,,,,,,,,,,60fe3f65d1ef0e848acb56a9,61036adf1c694e0cea5f1142,2021-07-30_12h59.47.827,Simcolourproject_2stim_asymm_v5,2020.2.10,MacIntel,60,61025ae37ef11b136ea224fe,,,,,,,,,3407,73,-35,1,0,0,response3disk,,5,12,-4,1,0,0,rectangle,12,-4,1,0,0,12,-4,1,0,0,1,45,205,18,1,,,,,,,,
,,,,,,,,,,,,,FF,,,,,,,,9.232,,,,,,,,,,,,,,,,,,,,,,60fe3f65d1ef0e848acb56a9,61036adf1c694e0cea5f1142,2021-07-30_12h59.47.827,Simcolourproject_2stim_asymm_v5,2020.2.10,MacIntel,60,61025ae37ef11b136ea224fe,,,,,,,,,1449,27,53,1,0,0,response1disk,,7,13,7,1,0,0,rectangle,13,7,1,0,0,13,7,1,0,0,1,46,206,2,1,,,,,,,,
,,,,,,,,,,,,,FF,,,,,,,,0.601,,,,,,,,,,,,,,,,,,,,,,60fe3f65d1ef0e848acb56a9,61036adf1c694e0cea5f1142,2021-07-30_12h59.47.827,Simcolourproject_2stim_asymm_v5,2020.2.10,MacIntel,60,61025ae37ef11b136ea224fe,,,,,,,,,3993,-35,77,1,0,0,response7disk,,0,-13,2,1,0,0,rectangle,-13,2,1,0,0,-13,2,1,0,0,1,47,207,113,1,,,,,,,,
,,,,,,,,,,,,,FF,,,,,,,,1.632,,,,,,,,,,,,,,,,,,,,,,60fe3f65d1ef0e848acb56a9,61036adf1c694e0cea5f1142,2021-07-30_12h59.47.827,Simcolourproject_2stim_asymm_v5,2020.2.10,MacIntel,60,61025ae37ef11b136ea224fe,,,,,,,,,640,28,61,1,0,0,response1disk,,7,-2,3,1,0,0,rectangle,-2,3,1,0,0,-2,3,1,0,0,1,48,208,79,1,,,,,,,,
,,,,,,,,,,,,,FF,,,,,,,,1.299,,,,,,,,,,,,,,,,,,,,,,60fe3f65d1ef0e848acb56a9,61036adf1c694e0cea5f1142,2021-07-30_12h59.47.827,Simcolourproject_2stim_asymm_v5,2020.2.10,MacIntel,60,61025ae37ef11b136ea224fe,,,,,,,,,1029,48,-82,1,0,0,response3disk,,4,12,-6,1,0,0,rectangle,12,-6,1,0,0,12,-6,1,0,0,1,49,209,6,1,,,,,,,,
,,,,,,,,,,,,,FF,,,,,,,,0.832,,,,,,,,,,,,,,,,,,,,,,60fe3f65d1ef0e848acb56a9,61036adf1c694e0cea5f1142,2021-07-30_12h59.47.827,Simcolourproject_2stim_asymm_v5,2020.2.10,MacIntel,60,61025ae37ef11b136ea224fe,,,,,,,,,2513,32,53,1,0,0,response1disk,,7,23,16,1,0,0,rectangle,23,16,1,0,0,23,16,1,0,0,1,50,210,106,1,,,,,,,,
,,,,,,,,,,,,,FF,,,,,,,,1.117,,,,,,,,,,,,,,,,,,,,,,60fe3f65d1ef0e848acb56a9,61036adf1c694e0cea5f1142,2021-07-30_12h59.47.827,Simcolourproject_2stim_asymm_v5,2020.2.10,MacIntel,60,61025ae37ef11b136ea224fe,,,,,,,,,3424,-28,-61,1,0,0,response5disk,,3,-2,-10,1,0,0,rectangle,-2,-10,1,0,0,-2,-10,1,0,0,1,51,211,153,1,,,,,,,,
,,,,,,,,,,,,,FF,,,,,,,,2.167,,,,,,,,,,,,,,,,,,,,,,60fe3f65d1ef0e848acb56a9,61036adf1c694e0cea5f1142,2021-07-30_12h59.47.827,Simcolourproject_2stim_asymm_v5,2020.2.10,MacIntel,60,61025ae37ef11b136ea224fe,,,,,,,,,1846,47,50,1,0,0,response1disk,,7,25,4,1,0,0,rectangle,25,4,1,0,0,25,4,1,0,0,1,52,212,100,1,,,,,,,,
,,,,,,,,,,,,,FF,,,,,,,,0.917,,,,,,,,,,,,,,,,,,,,,,60fe3f65d1ef0e848acb56a9,61036adf1c694e0cea5f1142,2021-07-30_12h59.47.827,Simcolourproject_2stim_asymm_v5,2020.2.10,MacIntel,60,61025ae37ef11b136ea224fe,,,,,,,,,3636,78,-47,1,0,0,response3disk,,5,20,-14,1,0,0,rectangle,20,-14,1,0,0,20,-14,1,0,0,1,53,213,116,1,,,,,,,,
,,,,,,,,,,,,,FF,,,,,,,,0.65,,,,,,,,,,,,,,,,,,,,,,60fe3f65d1ef0e848acb56a9,61036adf1c694e0cea5f1142,2021-07-30_12h59.47.827,Simcolourproject_2stim_asymm_v5,2020.2.10,MacIntel,60,61025ae37ef11b136ea224fe,,,,,,,,,3436,54,-25,1,0,0,response3disk,,5,-11,10,1,0,0,rectangle,-11,10,1,0,0,-11,10,1,0,0,1,54,214,127,1,,,,,,,,
,,,,,,,,,,,,,FF,,,,,,,,0.718,,,,,,,,,,,,,,,,,,,,,,60fe3f65d1ef0e848acb56a9,61036adf1c694e0cea5f1142,2021-07-30_12h59.47.827,Simcolourproject_2stim_asymm_v5,2020.2.10,MacIntel,60,61025ae37ef11b136ea224fe,,,,,,,,,588,21,50,1,0,0,response1disk,,7,10,14,1,0,0,rectangle,10,14,1,0,0,10,14,1,0,0,1,55,215,146,1,,,,,,,,
,,,,,,,,,,,,,FF,,,,,,,,1.251,,,,,,,,,,,,,,,,,,,,,,60fe3f65d1ef0e848acb56a9,61036adf1c694e0cea5f1142,2021-07-30_12h59.47.827,Simcolourproject_2stim_asymm_v5,2020.2.10,MacIntel,60,61025ae37ef11b136ea224fe,,,,,,,,,1573,53,-93,1,0,0,response3disk,,4,16,-13,1,0,0,rectangle,16,-13,1,0,0,16,-13,1,0,0,1,56,216,8,1,,,,,,,,
,,,,,,,,,,,,,FF,,,,,,,,0.7,,,,,,,,,,,,,,,,,,,,,,60fe3f65d1ef0e848acb56a9,61036adf1c694e0cea5f1142,2021-07-30_12h59.47.827,Simcolourproject_2stim_asymm_v5,2020.2.10,MacIntel,60,61025ae37ef11b136ea224fe,,,,,,,,,4290,33,67,1,0,0,response1disk,,7,10,0,1,0,0,rectangle,10,0,1,0,0,10,0,1,0,0,1,57,217,63,1,,,,,,,,
,,,,,,,,,,,,,FF,,,,,,,,1.2,,,,,,,,,,,,,,,,,,,,,,60fe3f65d1ef0e848acb56a9,61036adf1c694e0cea5f1142,2021-07-30_12h59.47.827,Simcolourproject_2stim_asymm_v5,2020.2.10,MacIntel,60,61025ae37ef11b136ea224fe,,,,,,,,,582,33,59,1,0,0,response1disk,,7,25,-2,1,0,0,rectangle,25,-2,1,0,0,25,-2,1,0,0,1,58,218,152,1,,,,,,,,
,,,,,,,,,,,,,FF,,,,,,,,0.816,,,,,,,,,,,,,,,,,,,,,,60fe3f65d1ef0e848acb56a9,61036adf1c694e0cea5f1142,2021-07-30_12h59.47.827,Simcolourproject_2stim_asymm_v5,2020.2.10,MacIntel,60,61025ae37ef11b136ea224fe,,,,,,,,,3486,35,65,1,0,0,response1disk,,7,25,4,1,0,0,rectangle,25,4,1,0,0,25,4,1,0,0,1,59,219,39,1,,,,,,,,
,,,,,,,,,,,,,FF,,,,,,,,1.134,,,,,,,,,,,,,,,,,,,,,,60fe3f65d1ef0e848acb56a9,61036adf1c694e0cea5f1142,2021-07-30_12h59.47.827,Simcolourproject_2stim_asymm_v5,2020.2.10,MacIntel,60,61025ae37ef11b136ea224fe,,,,,,,,,1750,-39,-72,1,0,0,response5disk,,3,-7,-1,1,0,0,rectangle,-7,-1,1,0,0,-7,-1,1,0,0,1,60,220,42,1,,,,,,,,
,,,,,,,,,,,,,FF,,,,,,,,1.382,,,,,,,,,,,,,,,,,,,,,,60fe3f65d1ef0e848acb56a9,61036adf1c694e0cea5f1142,2021-07-30_12h59.47.827,Simcolourproject_2stim_asymm_v5,2020.2.10,MacIntel,60,61025ae37ef11b136ea224fe,,,,,,,,,3615,31,61,1,0,0,response1disk,,7,14,13,1,0,0,rectangle,14,13,1,0,0,14,13,1,0,0,1,61,221,25,1,,,,,,,,
,,,,,,,,,,,,,FF,,,,,,,,1.316,,,,,,,,,,,,,,,,,,,,,,60fe3f65d1ef0e848acb56a9,61036adf1c694e0cea5f1142,2021-07-30_12h59.47.827,Simcolourproject_2stim_asymm_v5,2020.2.10,MacIntel,60,61025ae37ef11b136ea224fe,,,,,,,,,2472,29,52,1,0,0,response1disk,,7,10,7,1,0,0,rectangle,10,7,1,0,0,10,7,1,0,0,1,62,222,3,1,,,,,,,,
,,,,,,,,,,,,,FF,,,,,,,,0.768,,,,,,,,,,,,,,,,,,,,,,60fe3f65d1ef0e848acb56a9,61036adf1c694e0cea5f1142,2021-07-30_12h59.47.827,Simcolourproject_2stim_asymm_v5,2020.2.10,MacIntel,60,61025ae37ef11b136ea224fe,,,,,,,,,3416,34,69,1,0,0,response1disk,,7,19,7,1,0,0,rectangle,19,7,1,0,0,19,7,1,0,0,1,63,223,15,1,,,,,,,,
,,,,,,,,,,,,,FF,,,,,,,,1.383,,,,,,,,,,,,,,,,,,,,,,60fe3f65d1ef0e848acb56a9,61036adf1c694e0cea5f1142,2021-07-30_12h59.47.827,Simcolourproject_2stim_asymm_v5,2020.2.10,MacIntel,60,61025ae37ef11b136ea224fe,,,,,,,,,2403,-30,-87,1,0,0,response5disk,,3,-7,5,1,0,0,rectangle,-7,5,1,0,0,-7,5,1,0,0,1,64,224,0,1,,,,,,,,
,,,,,,,,,,,,,FF,,,,,,,,1.416,,,,,,,,,,,,,,,,,,,,,,60fe3f65d1ef0e848acb56a9,61036adf1c694e0cea5f1142,2021-07-30_12h59.47.827,Simcolourproject_2stim_asymm_v5,2020.2.10,MacIntel,60,61025ae37ef11b136ea224fe,,,,,,,,,4132,31,61,1,0,0,response1disk,,7,12,6,1,0,0,rectangle,12,6,1,0,0,12,6,1,0,0,1,65,225,52,1,,,,,,,,
,,,,,,,,,,,,,FF,,,,,,,,0.684,,,,,,,,,,,,,,,,,,,,,,60fe3f65d1ef0e848acb56a9,61036adf1c694e0cea5f1142,2021-07-30_12h59.47.827,Simcolourproject_2stim_asymm_v5,2020.2.10,MacIntel,60,61025ae37ef11b136ea224fe,,,,,,,,,2748,28,52,1,0,0,response1disk,,7,16,11,1,0,0,rectangle,16,11,1,0,0,16,11,1,0,0,1,66,226,70,1,,,,,,,,
,,,,,,,,,,,,,FF,,,,,,,,0.651,,,,,,,,,,,,,,,,,,,,,,60fe3f65d1ef0e848acb56a9,61036adf1c694e0cea5f1142,2021-07-30_12h59.47.827,Simcolourproject_2stim_asymm_v5,2020.2.10,MacIntel,60,61025ae37ef11b136ea224fe,,,,,,,,,4058,34,50,1,0,0,response1disk,,7,30,10,1,0,0,rectangle,30,10,1,0,0,30,10,1,0,0,1,67,227,158,1,,,,,,,,
,,,,,,,,,,,,,FF,,,,,,,,0.734,,,,,,,,,,,,,,,,,,,,,,60fe3f65d1ef0e848acb56a9,61036adf1c694e0cea5f1142,2021-07-30_12h59.47.827,Simcolourproject_2stim_asymm_v5,2020.2.10,MacIntel,60,61025ae37ef11b136ea224fe,,,,,,,,,2795,35,52,1,0,0,response1disk,,7,32,5,1,0,0,rectangle,32,5,1,0,0,32,5,1,0,0,1,68,228,24,1,,,,,,,,
,,,,,,,,,,,,,FF,,,,,,,,2.218,,,,,,,,,,,,,,,,,,,,,,60fe3f65d1ef0e848acb56a9,61036adf1c694e0cea5f1142,2021-07-30_12h59.47.827,Simcolourproject_2stim_asymm_v5,2020.2.10,MacIntel,60,61025ae37ef11b136ea224fe,,,,,,,,,3854,24,53,1,0,0,response1disk,,7,18,-4,1,0,0,rectangle,36,-102,1,0,0,6,-2,1,0,0,1,69,229,133,1,,response3disk_3,TRUE,4,1,"[204,310,197,102,56,190,276,271,91,182,97,26,49,51,132,71,107,113,128,230]",0.851,rectangle
,,,,,,,,,,,,,FF,,,,,,,,10.699,,,,,,,,,,,,,,,,,,,,,,60fe3f65d1ef0e848acb56a9,61036adf1c694e0cea5f1142,2021-07-30_12h59.47.827,Simcolourproject_2stim_asymm_v5,2020.2.10,MacIntel,60,61025ae37ef11b136ea224fe,,,,,,,,,3114,49,85,1,0,0,response1disk,,7,21,5,1,0,0,rectangle,21,5,1,0,0,21,5,1,0,0,1,70,230,29,1,,,,,,,,
,,,,,,,,,,,,,FF,,,,,,,,0.984,,,,,,,,,,,,,,,,,,,,,,60fe3f65d1ef0e848acb56a9,61036adf1c694e0cea5f1142,2021-07-30_12h59.47.827,Simcolourproject_2stim_asymm_v5,2020.2.10,MacIntel,60,61025ae37ef11b136ea224fe,,,,,,,,,25,62,-37,1,0,0,response3disk,,5,4,8,1,0,0,rectangle,4,8,1,0,0,4,8,1,0,0,1,71,231,22,1,,,,,,,,
,,,,,,,,,,,,,FF,,,,,,,,1.367,,,,,,,,,,,,,,,,,,,,,,60fe3f65d1ef0e848acb56a9,61036adf1c694e0cea5f1142,2021-07-30_12h59.47.827,Simcolourproject_2stim_asymm_v5,2020.2.10,MacIntel,60,61025ae37ef11b136ea224fe,,,,,,,,,485,43,69,1,0,0,response1disk,,7,19,10,1,0,0,rectangle,19,10,1,0,0,19,10,1,0,0,1,72,232,40,1,,,,,,,,
,,,,,,,,,,,,,FF,,,,,,,,1.4,,,,,,,,,,,,,,,,,,,,,,60fe3f65d1ef0e848acb56a9,61036adf1c694e0cea5f1142,2021-07-30_12h59.47.827,Simcolourproject_2stim_asymm_v5,2020.2.10,MacIntel,60,61025ae37ef11b136ea224fe,,,,,,,,,1735,-56,-84,1,0,0,response5disk,,3,-10,1,1,0,0,rectangle,-10,1,1,0,0,-10,1,1,0,0,1,73,233,45,1,,,,,,,,
,,,,,,,,,,,,,FF,,,,,,,,0.983,,,,,,,,,,,,,,,,,,,,,,60fe3f65d1ef0e848acb56a9,61036adf1c694e0cea5f1142,2021-07-30_12h59.47.827,Simcolourproject_2stim_asymm_v5,2020.2.10,MacIntel,60,61025ae37ef11b136ea224fe,,,,,,,,,2941,-63,-57,1,0,0,response5disk,,2,10,5,1,0,0,rectangle,10,5,1,0,0,10,5,1,0,0,1,74,234,121,1,,,,,,,,
,,,,,,,,,,,,,FF,,,,,,,,0.984,,,,,,,,,,,,,,,,,,,,,,60fe3f65d1ef0e848acb56a9,61036adf1c694e0cea5f1142,2021-07-30_12h59.47.827,Simcolourproject_2stim_asymm_v5,2020.2.10,MacIntel,60,61025ae37ef11b136ea224fe,,,,,,,,,3750,34,-75,1,0,0,response3disk,,4,-11,-5,1,0,0,rectangle,-11,-5,1,0,0,-11,-5,1,0,0,1,75,235,71,1,,,,,,,,
,,,,,,,,,,,,,FF,,,,,,,,0.717,,,,,,,,,,,,,,,,,,,,,,60fe3f65d1ef0e848acb56a9,61036adf1c694e0cea5f1142,2021-07-30_12h59.47.827,Simcolourproject_2stim_asymm_v5,2020.2.10,MacIntel,60,61025ae37ef11b136ea224fe,,,,,,,,,3900,30,-65,1,0,0,response3disk,,4,-1,-1,1,0,0,rectangle,-1,-1,1,0,0,-1,-1,1,0,0,1,76,236,145,1,,,,,,,,
,,,,,,,,,,,,,FF,,,,,,,,1.118,,,,,,,,,,,,,,,,,,,,,,60fe3f65d1ef0e848acb56a9,61036adf1c694e0cea5f1142,2021-07-30_12h59.47.827,Simcolourproject_2stim_asymm_v5,2020.2.10,MacIntel,60,61025ae37ef11b136ea224fe,,,,,,,,,1954,-66,-37,1,0,0,response5disk,,2,5,-7,1,0,0,rectangle,5,-7,1,0,0,5,-7,1,0,0,1,77,237,156,1,,,,,,,,
,,,,,,,,,,,,,FF,,,,,,,,0.883,,,,,,,,,,,,,,,,,,,,,,60fe3f65d1ef0e848acb56a9,61036adf1c694e0cea5f1142,2021-07-30_12h59.47.827,Simcolourproject_2stim_asymm_v5,2020.2.10,MacIntel,60,61025ae37ef11b136ea224fe,,,,,,,,,2938,-35,-68,1,0,0,response5disk,,3,-18,-9,1,0,0,rectangle,-18,-9,1,0,0,-18,-9,1,0,0,1,78,238,103,1,,,,,,,,
,,,,,,,,,,,,,FF,,,,,,,,0.834,,,,,,,,,,,,,,,,,,,,,,60fe3f65d1ef0e848acb56a9,61036adf1c694e0cea5f1142,2021-07-30_12h59.47.827,Simcolourproject_2stim_asymm_v5,2020.2.10,MacIntel,60,61025ae37ef11b136ea224fe,,,,,,,,,2356,-62,-31,1,0,0,response5disk,,2,5,16,1,0,0,rectangle,5,16,1,0,0,5,16,1,0,0,1,79,239,47,1,,,,,,,,
,,,,,,,,,,,,,FF,,,,,,,,3.933,,,,,,,,,,,,,,,,,,,,,,60fe3f65d1ef0e848acb56a9,61036adf1c694e0cea5f1142,2021-07-30_12h59.47.827,Simcolourproject_2stim_asymm_v5,2020.2.10,MacIntel,60,61025ae37ef11b136ea224fe,,,,,,,,,3193,-52,-92,1,0,0,response5disk,,3,-2,-3,1,0,0,rectangle,-2,-3,1,0,0,-2,-3,1,0,0,1,80,240,149,1,,,,,,,,
,,,,,,,,,,,,,FF,,,,,,,,0.917,,,,,,,,,,,,,,,,,,,,,,60fe3f65d1ef0e848acb56a9,61036adf1c694e0cea5f1142,2021-07-30_12h59.47.827,Simcolourproject_2stim_asymm_v5,2020.2.10,MacIntel,60,61025ae37ef11b136ea224fe,,,,,,,,,1004,81,43,1,0,0,response1disk,,6,-15,-2,1,0,0,rectangle,-15,-2,1,0,0,-15,-2,1,0,0,1,81,241,78,1,,,,,,,,
,,,,,,,,,,,,,FF,,,,,,,,0.65,,,,,,,,,,,,,,,,,,,,,,60fe3f65d1ef0e848acb56a9,61036adf1c694e0cea5f1142,2021-07-30_12h59.47.827,Simcolourproject_2stim_asymm_v5,2020.2.10,MacIntel,60,61025ae37ef11b136ea224fe,,,,,,,,,1594,45,35,1,0,0,response1disk,,6,-4,12,1,0,0,rectangle,-4,12,1,0,0,-4,12,1,0,0,1,82,242,41,1,,,,,,,,
,,,,,,,,,,,,,FF,,,,,,,,0.601,,,,,,,,,,,,,,,,,,,,,,60fe3f65d1ef0e848acb56a9,61036adf1c694e0cea5f1142,2021-07-30_12h59.47.827,Simcolourproject_2stim_asymm_v5,2020.2.10,MacIntel,60,61025ae37ef11b136ea224fe,,,,,,,,,3113,18,52,1,0,0,response1disk,,7,7,3,1,0,0,rectangle,7,3,1,0,0,7,3,1,0,0,1,83,243,112,1,,,,,,,,
,,,,,,,,,,,,,FF,,,,,,,,0.816,,,,,,,,,,,,,,,,,,,,,,60fe3f65d1ef0e848acb56a9,61036adf1c694e0cea5f1142,2021-07-30_12h59.47.827,Simcolourproject_2stim_asymm_v5,2020.2.10,MacIntel,60,61025ae37ef11b136ea224fe,,,,,,,,,971,-76,-35,1,0,0,response5disk,,2,-15,-6,1,0,0,rectangle,-15,-6,1,0,0,-15,-6,1,0,0,1,84,244,82,1,,,,,,,,
,,,,,,,,,,,,,FF,,,,,,,,1.483,,,,,,,,,,,,,,,,,,,,,,60fe3f65d1ef0e848acb56a9,61036adf1c694e0cea5f1142,2021-07-30_12h59.47.827,Simcolourproject_2stim_asymm_v5,2020.2.10,MacIntel,60,61025ae37ef11b136ea224fe,,,,,,,,,3229,60,25,1,0,0,response1disk,,6,-7,0,1,0,0,rectangle,-7,0,1,0,0,-7,0,1,0,0,1,85,245,138,1,,,,,,,,
,,,,,,,,,,,,,FF,,,,,,,,1.2,,,,,,,,,,,,,,,,,,,,,,60fe3f65d1ef0e848acb56a9,61036adf1c694e0cea5f1142,2021-07-30_12h59.47.827,Simcolourproject_2stim_asymm_v5,2020.2.10,MacIntel,60,61025ae37ef11b136ea224fe,,,,,,,,,2116,30,60,1,0,0,response1disk,,7,-20,-5,1,0,0,rectangle,-20,-5,1,0,0,-20,-5,1,0,0,1,86,246,49,1,,,,,,,,
,,,,,,,,,,,,,FF,,,,,,,,1.417,,,,,,,,,,,,,,,,,,,,,,60fe3f65d1ef0e848acb56a9,61036adf1c694e0cea5f1142,2021-07-30_12h59.47.827,Simcolourproject_2stim_asymm_v5,2020.2.10,MacIntel,60,61025ae37ef11b136ea224fe,,,,,,,,,1166,69,-38,1,0,0,response3disk,,5,-1,4,1,0,0,rectangle,-1,4,1,0,0,-1,4,1,0,0,1,87,247,51,1,,,,,,,,
,,,,,,,,,,,,,FF,,,,,,,,1.184,,,,,,,,,,,,,,,,,,,,,,60fe3f65d1ef0e848acb56a9,61036adf1c694e0cea5f1142,2021-07-30_12h59.47.827,Simcolourproject_2stim_asymm_v5,2020.2.10,MacIntel,60,61025ae37ef11b136ea224fe,,,,,,,,,1685,32,61,1,0,0,response1disk,,7,-18,-16,1,0,0,rectangle,-18,-16,1,0,0,-18,-16,1,0,0,1,88,248,98,1,,,,,,,,
,,,,,,,,,,,,,FF,,,,,,,,1.485,,,,,,,,,,,,,,,,,,,,,,60fe3f65d1ef0e848acb56a9,61036adf1c694e0cea5f1142,2021-07-30_12h59.47.827,Simcolourproject_2stim_asymm_v5,2020.2.10,MacIntel,60,61025ae37ef11b136ea224fe,,,,,,,,,2003,34,60,1,0,0,response1disk,,7,0,-9,1,0,0,rectangle,0,-9,1,0,0,0,-9,1,0,0,1,89,249,9,1,,,,,,,,
,,,,,,,,,,,,,FF,,,,,,,,0.766,,,,,,,,,,,,,,,,,,,,,,60fe3f65d1ef0e848acb56a9,61036adf1c694e0cea5f1142,2021-07-30_12h59.47.827,Simcolourproject_2stim_asymm_v5,2020.2.10,MacIntel,60,61025ae37ef11b136ea224fe,,,,,,,,,2291,-31,67,1,0,0,response7disk,,0,-3,-7,1,0,0,rectangle,-3,-7,1,0,0,-3,-7,1,0,0,1,90,250,68,1,,,,,,,,
,,,,,,,,,,,,,FF,,,,,,,,1.334,,,,,,,,,,,,,,,,,,,,,,60fe3f65d1ef0e848acb56a9,61036adf1c694e0cea5f1142,2021-07-30_12h59.47.827,Simcolourproject_2stim_asymm_v5,2020.2.10,MacIntel,60,61025ae37ef11b136ea224fe,,,,,,,,,1774,39,58,1,0,0,response1disk,,7,-3,-10,1,0,0,rectangle,-3,-10,1,0,0,-3,-10,1,0,0,1,91,251,119,1,,,,,,,,
,,,,,,,,,,,,,FF,,,,,,,,1,,,,,,,,,,,,,,,,,,,,,,60fe3f65d1ef0e848acb56a9,61036adf1c694e0cea5f1142,2021-07-30_12h59.47.827,Simcolourproject_2stim_asymm_v5,2020.2.10,MacIntel,60,61025ae37ef11b136ea224fe,,,,,,,,,2055,68,-20,1,0,0,response3disk,,5,5,6,1,0,0,rectangle,5,6,1,0,0,5,6,1,0,0,1,92,252,20,1,,,,,,,,
,,,,,,,,,,,,,FF,,,,,,,,1.034,,,,,,,,,,,,,,,,,,,,,,60fe3f65d1ef0e848acb56a9,61036adf1c694e0cea5f1142,2021-07-30_12h59.47.827,Simcolourproject_2stim_asymm_v5,2020.2.10,MacIntel,60,61025ae37ef11b136ea224fe,,,,,,,,,3198,59,-44,1,0,0,response3disk,,5,11,-9,1,0,0,rectangle,11,-9,1,0,0,11,-9,1,0,0,1,93,253,5,1,,,,,,,,
,,,,,,,,,,,,,FF,,,,,,,,6.068,,,,,,,,,,,,,,,,,,,,,,60fe3f65d1ef0e848acb56a9,61036adf1c694e0cea5f1142,2021-07-30_12h59.47.827,Simcolourproject_2stim_asymm_v5,2020.2.10,MacIntel,60,61025ae37ef11b136ea224fe,,,,,,,,,3883,24,51,1,0,0,response1disk,,7,-10,-10,1,0,0,rectangle,-10,-10,1,0,0,-10,-10,1,0,0,1,94,254,150,1,,,,,,,,
,,,,,,,,,,,,,FF,,,,,,,,0.866,,,,,,,,,,,,,,,,,,,,,,60fe3f65d1ef0e848acb56a9,61036adf1c694e0cea5f1142,2021-07-30_12h59.47.827,Simcolourproject_2stim_asymm_v5,2020.2.10,MacIntel,60,61025ae37ef11b136ea224fe,,,,,,,,,474,18,54,1,0,0,response1disk,,7,6,12,1,0,0,rectangle,6,12,1,0,0,6,12,1,0,0,1,95,255,77,1,,,,,,,,
,,,,,,,,,,,,,FF,,,,,,,,1.232,,,,,,,,,,,,,,,,,,,,,,60fe3f65d1ef0e848acb56a9,61036adf1c694e0cea5f1142,2021-07-30_12h59.47.827,Simcolourproject_2stim_asymm_v5,2020.2.10,MacIntel,60,61025ae37ef11b136ea224fe,,,,,,,,,2450,18,35,1,0,0,response1disk,,7,1,0,1,0,0,rectangle,1,0,1,0,0,1,0,1,0,0,1,96,256,125,1,,,,,,,,
,,,,,,,,,,,,,FF,,,,,,,,1.666,,,,,,,,,,,,,,,,,,,,,,60fe3f65d1ef0e848acb56a9,61036adf1c694e0cea5f1142,2021-07-30_12h59.47.827,Simcolourproject_2stim_asymm_v5,2020.2.10,MacIntel,60,61025ae37ef11b136ea224fe,,,,,,,,,2359,-24,-65,1,0,0,response5disk,,3,-4,0,1,0,0,rectangle,-4,0,1,0,0,-4,0,1,0,0,1,97,257,80,1,,,,,,,,
,,,,,,,,,,,,,FF,,,,,,,,0.967,,,,,,,,,,,,,,,,,,,,,,60fe3f65d1ef0e848acb56a9,61036adf1c694e0cea5f1142,2021-07-30_12h59.47.827,Simcolourproject_2stim_asymm_v5,2020.2.10,MacIntel,60,61025ae37ef11b136ea224fe,,,,,,,,,2690,40,54,1,0,0,response1disk,,7,12,-7,1,0,0,rectangle,12,-7,1,0,0,12,-7,1,0,0,1,98,258,110,1,,,,,,,,
,,,,,,,,,,,,,FF,,,,,,,,1.25,,,,,,,,,,,,,,,,,,,,,,60fe3f65d1ef0e848acb56a9,61036adf1c694e0cea5f1142,2021-07-30_12h59.47.827,Simcolourproject_2stim_asymm_v5,2020.2.10,MacIntel,60,61025ae37ef11b136ea224fe,,,,,,,,,402,66,-27,1,0,0,response3disk,,5,17,-9,1,0,0,rectangle,17,-9,1,0,0,17,-9,1,0,0,1,99,259,83,1,,,,,,,,
,,,,,,,,,,,,,FF,,,,,,,,0.634,,,,,,,,,,,,,,,,,,,,,,60fe3f65d1ef0e848acb56a9,61036adf1c694e0cea5f1142,2021-07-30_12h59.47.827,Simcolourproject_2stim_asymm_v5,2020.2.10,MacIntel,60,61025ae37ef11b136ea224fe,,,,,,,,,401,53,-24,1,0,0,response3disk,,5,9,-8,1,0,0,rectangle,9,-8,1,0,0,9,-8,1,0,0,1,100,260,12,1,,,,,,,,
,,,,,,,,,,,,,FF,,,,,,,,1.3,,,,,,,,,,,,,,,,,,,,,,60fe3f65d1ef0e848acb56a9,61036adf1c694e0cea5f1142,2021-07-30_12h59.47.827,Simcolourproject_2stim_asymm_v5,2020.2.10,MacIntel,60,61025ae37ef11b136ea224fe,,,,,,,,,1564,71,-33,1,0,0,response3disk,,5,-1,-11,1,0,0,rectangle,-1,-11,1,0,0,-1,-11,1,0,0,1,101,261,62,1,,,,,,,,
,,,,,,,,,,,,,FF,,,,,,,,1.167,,,,,,,,,,,,,,,,,,,,,,60fe3f65d1ef0e848acb56a9,61036adf1c694e0cea5f1142,2021-07-30_12h59.47.827,Simcolourproject_2stim_asymm_v5,2020.2.10,MacIntel,60,61025ae37ef11b136ea224fe,,,,,,,,,2380,22,35,1,0,0,response1disk,,7,5,1,1,0,0,rectangle,5,1,1,0,0,5,1,1,0,0,1,102,262,109,1,,,,,,,,
,,,,,,,,,,,,,FF,,,,,,,,6.284,,,,,,,,,,,,,,,,,,,,,,60fe3f65d1ef0e848acb56a9,61036adf1c694e0cea5f1142,2021-07-30_12h59.47.827,Simcolourproject_2stim_asymm_v5,2020.2.10,MacIntel,60,61025ae37ef11b136ea224fe,,,,,,,,,1178,31,88,1,0,0,response1disk,,7,5,1,1,0,0,rectangle,5,1,1,0,0,5,1,1,0,0,1,103,263,148,1,,,,,,,,
,,,,,,,,,,,,,FF,,,,,,,,1.333,,,,,,,,,,,,,,,,,,,,,,60fe3f65d1ef0e848acb56a9,61036adf1c694e0cea5f1142,2021-07-30_12h59.47.827,Simcolourproject_2stim_asymm_v5,2020.2.10,MacIntel,60,61025ae37ef11b136ea224fe,,,,,,,,,127,65,33,1,0,0,response1disk,,6,10,8,1,0,0,rectangle,10,8,1,0,0,10,8,1,0,0,1,104,264,23,1,,,,,,,,
,,,,,,,,,,,,,FF,,,,,,,,1.15,,,,,,,,,,,,,,,,,,,,,,60fe3f65d1ef0e848acb56a9,61036adf1c694e0cea5f1142,2021-07-30_12h59.47.827,Simcolourproject_2stim_asymm_v5,2020.2.10,MacIntel,60,61025ae37ef11b136ea224fe,,,,,,,,,3262,51,29,1,0,0,response1disk,,6,22,-7,1,0,0,rectangle,22,-7,1,0,0,22,-7,1,0,0,1,105,265,137,1,,,,,,,,
,,,,,,,,,,,,,FF,,,,,,,,1.035,,,,,,,,,,,,,,,,,,,,,,60fe3f65d1ef0e848acb56a9,61036adf1c694e0cea5f1142,2021-07-30_12h59.47.827,Simcolourproject_2stim_asymm_v5,2020.2.10,MacIntel,60,61025ae37ef11b136ea224fe,,,,,,,,,1745,-88,-45,1,0,0,response5disk,,2,-20,-14,1,0,0,rectangle,-20,-14,1,0,0,-20,-14,1,0,0,1,106,266,65,1,,,,,,,,
,,,,,,,,,,,,,FF,,,,,,,,1.166,,,,,,,,,,,,,,,,,,,,,,60fe3f65d1ef0e848acb56a9,61036adf1c694e0cea5f1142,2021-07-30_12h59.47.827,Simcolourproject_2stim_asymm_v5,2020.2.10,MacIntel,60,61025ae37ef11b136ea224fe,,,,,,,,,2779,-27,-67,1,0,0,response5disk,,3,-8,0,1,0,0,rectangle,-8,0,1,0,0,-8,0,1,0,0,1,107,267,95,1,,,,,,,,
,,,,,,,,,,,,,FF,,,,,,,,0.85,,,,,,,,,,,,,,,,,,,,,,60fe3f65d1ef0e848acb56a9,61036adf1c694e0cea5f1142,2021-07-30_12h59.47.827,Simcolourproject_2stim_asymm_v5,2020.2.10,MacIntel,60,61025ae37ef11b136ea224fe,,,,,,,,,3873,-30,-76,1,0,0,response5disk,,3,1,-11,1,0,0,rectangle,1,-11,1,0,0,1,-11,1,0,0,1,108,268,91,1,,,,,,,,
,,,,,,,,,,,,,FF,,,,,,,,1.382,,,,,,,,,,,,,,,,,,,,,,60fe3f65d1ef0e848acb56a9,61036adf1c694e0cea5f1142,2021-07-30_12h59.47.827,Simcolourproject_2stim_asymm_v5,2020.2.10,MacIntel,60,61025ae37ef11b136ea224fe,,,,,,,,,271,63,-20,1,0,0,response3disk,,5,-5,2,1,0,0,rectangle,-5,2,1,0,0,-5,2,1,0,0,1,109,269,59,1,,,,,,,,
,,,,,,,,,,,,,FF,,,,,,,,1.017,,,,,,,,,,,,,,,,,,,,,,60fe3f65d1ef0e848acb56a9,61036adf1c694e0cea5f1142,2021-07-30_12h59.47.827,Simcolourproject_2stim_asymm_v5,2020.2.10,MacIntel,60,61025ae37ef11b136ea224fe,,,,,,,,,1987,31,50,1,0,0,response1disk,,7,2,-7,1,0,0,rectangle,30,-61,1,0,0,8,-3,1,0,0,1,110,270,154,1,,response3disk_3,TRUE,4,7,"[204,310,197,102,56,190,276,271,91,182,97,26,49,51,132,71,107,113,128,230]",0.849,rectangle
,,,,,,,,,,,,,FF,,,,,,,,0.584,,,,,,,,,,,,,,,,,,,,,,60fe3f65d1ef0e848acb56a9,61036adf1c694e0cea5f1142,2021-07-30_12h59.47.827,Simcolourproject_2stim_asymm_v5,2020.2.10,MacIntel,60,61025ae37ef11b136ea224fe,,,,,,,,,4334,20,58,1,0,0,response1disk,,7,5,-6,1,0,0,rectangle,5,-6,1,0,0,5,-6,1,0,0,1,111,271,61,1,,,,,,,,
,,,,,,,,,,,,,FF,,,,,,,,1.401,,,,,,,,,,,,,,,,,,,,,,60fe3f65d1ef0e848acb56a9,61036adf1c694e0cea5f1142,2021-07-30_12h59.47.827,Simcolourproject_2stim_asymm_v5,2020.2.10,MacIntel,60,61025ae37ef11b136ea224fe,,,,,,,,,3723,72,51,1,0,0,response1disk,,6,10,1,1,0,0,rectangle,10,1,1,0,0,10,1,1,0,0,1,112,272,157,1,,,,,,,,
,,,,,,,,,,,,,FF,,,,,,,,1.301,,,,,,,,,,,,,,,,,,,,,,60fe3f65d1ef0e848acb56a9,61036adf1c694e0cea5f1142,2021-07-30_12h59.47.827,Simcolourproject_2stim_asymm_v5,2020.2.10,MacIntel,60,61025ae37ef11b136ea224fe,,,,,,,,,2784,-21,-74,1,0,0,response5disk,,3,6,-12,1,0,0,rectangle,6,-12,1,0,0,6,-12,1,0,0,1,113,273,60,1,,,,,,,,
,,,,,,,,,,,,,FF,,,,,,,,0.867,,,,,,,,,,,,,,,,,,,,,,60fe3f65d1ef0e848acb56a9,61036adf1c694e0cea5f1142,2021-07-30_12h59.47.827,Simcolourproject_2stim_asymm_v5,2020.2.10,MacIntel,60,61025ae37ef11b136ea224fe,,,,,,,,,2244,-42,-81,1,0,0,response5disk,,3,-13,-9,1,0,0,rectangle,-13,-9,1,0,0,-13,-9,1,0,0,1,114,274,31,1,,,,,,,,
,,,,,,,,,,,,,FF,,,,,,,,0.851,,,,,,,,,,,,,,,,,,,,,,60fe3f65d1ef0e848acb56a9,61036adf1c694e0cea5f1142,2021-07-30_12h59.47.827,Simcolourproject_2stim_asymm_v5,2020.2.10,MacIntel,60,61025ae37ef11b136ea224fe,,,,,,,,,2348,-37,-84,1,0,0,response5disk,,3,12,15,1,0,0,rectangle,35,-48,1,0,0,29,-10,1,0,0,1,115,275,92,1,,response3disk_3,TRUE,4,1,"[204,310,197,102,56,190,276,271,91,182,97,26,49,51,132,71,107,113,128,230]",0.633,rectangle
,,,,,,,,,,,,,FF,,,,,,,,1.482,,,,,,,,,,,,,,,,,,,,,,60fe3f65d1ef0e848acb56a9,61036adf1c694e0cea5f1142,2021-07-30_12h59.47.827,Simcolourproject_2stim_asymm_v5,2020.2.10,MacIntel,60,61025ae37ef11b136ea224fe,,,,,,,,,796,36,61,1,0,0,response1disk,,7,0,-12,1,0,0,rectangle,0,-12,1,0,0,0,-12,1,0,0,1,116,276,7,1,,,,,,,,
,,,,,,,,,,,,,FF,,,,,,,,0.766,,,,,,,,,,,,,,,,,,,,,,60fe3f65d1ef0e848acb56a9,61036adf1c694e0cea5f1142,2021-07-30_12h59.47.827,Simcolourproject_2stim_asymm_v5,2020.2.10,MacIntel,60,61025ae37ef11b136ea224fe,,,,,,,,,2631,34,81,1,0,0,response1disk,,7,-7,-2,1,0,0,rectangle,-7,-2,1,0,0,-7,-2,1,0,0,1,117,277,14,1,,,,,,,,
,,,,,,,,,,,,,FF,,,,,,,,1.583,,,,,,,,,,,,,,,,,,,,,,60fe3f65d1ef0e848acb56a9,61036adf1c694e0cea5f1142,2021-07-30_12h59.47.827,Simcolourproject_2stim_asymm_v5,2020.2.10,MacIntel,60,61025ae37ef11b136ea224fe,,,,,,,,,1276,75,-54,1,0,0,response3disk,,5,15,1,1,0,0,rectangle,15,1,1,0,0,15,1,1,0,0,1,118,278,69,1,,,,,,,,
,,,,,,,,,,,,,FF,,,,,,,,1.982,,,,,,,,,,,,,,,,,,,,,,60fe3f65d1ef0e848acb56a9,61036adf1c694e0cea5f1142,2021-07-30_12h59.47.827,Simcolourproject_2stim_asymm_v5,2020.2.10,MacIntel,60,61025ae37ef11b136ea224fe,,,,,,,,,4170,49,-84,1,0,0,response3disk,,4,29,-9,1,0,0,rectangle,29,-9,1,0,0,29,-9,1,0,0,1,119,279,136,1,,,,,,,,
,,,,,,,,,,,,,FF,,,,,,,,0.833,,,,,,,,,,,,,,,,,,,,,,60fe3f65d1ef0e848acb56a9,61036adf1c694e0cea5f1142,2021-07-30_12h59.47.827,Simcolourproject_2stim_asymm_v5,2020.2.10,MacIntel,60,61025ae37ef11b136ea224fe,,,,,,,,,1513,34,72,1,0,0,response1disk,,7,7,2,1,0,0,rectangle,7,2,1,0,0,7,2,1,0,0,1,120,280,111,1,,,,,,,,
,,,,,,,,,,,,,FF,,,,,,,,0.95,,,,,,,,,,,,,,,,,,,,,,60fe3f65d1ef0e848acb56a9,61036adf1c694e0cea5f1142,2021-07-30_12h59.47.827,Simcolourproject_2stim_asymm_v5,2020.2.10,MacIntel,60,61025ae37ef11b136ea224fe,,,,,,,,,2332,28,69,1,0,0,response1disk,,7,13,-7,1,0,0,rectangle,13,-7,1,0,0,13,-7,1,0,0,1,121,281,27,1,,,,,,,,
,,,,,,,,,,,,,FF,,,,,,,,0.634,,,,,,,,,,,,,,,,,,,,,,60fe3f65d1ef0e848acb56a9,61036adf1c694e0cea5f1142,2021-07-30_12h59.47.827,Simcolourproject_2stim_asymm_v5,2020.2.10,MacIntel,60,61025ae37ef11b136ea224fe,,,,,,,,,3265,24,52,1,0,0,response1disk,,7,0,-8,1,0,0,rectangle,0,-8,1,0,0,0,-8,1,0,0,1,122,282,96,1,,,,,,,,
,,,,,,,,,,,,,FF,,,,,,,,1.066,,,,,,,,,,,,,,,,,,,,,,60fe3f65d1ef0e848acb56a9,61036adf1c694e0cea5f1142,2021-07-30_12h59.47.827,Simcolourproject_2stim_asymm_v5,2020.2.10,MacIntel,60,61025ae37ef11b136ea224fe,,,,,,,,,2422,-49,-84,1,0,0,response5disk,,3,-3,8,1,0,0,rectangle,-3,8,1,0,0,-3,8,1,0,0,1,123,283,50,1,,,,,,,,
,,,,,,,,,,,,,FF,,,,,,,,0.833,,,,,,,,,,,,,,,,,,,,,,60fe3f65d1ef0e848acb56a9,61036adf1c694e0cea5f1142,2021-07-30_12h59.47.827,Simcolourproject_2stim_asymm_v5,2020.2.10,MacIntel,60,61025ae37ef11b136ea224fe,,,,,,,,,4044,-38,-71,1,0,0,response5disk,,3,6,12,1,0,0,rectangle,6,12,1,0,0,6,12,1,0,0,1,124,284,140,1,,,,,,,,
,,,,,,,,,,,,,FF,,,,,,,,1.201,,,,,,,,,,,,,,,,,,,,,,60fe3f65d1ef0e848acb56a9,61036adf1c694e0cea5f1142,2021-07-30_12h59.47.827,Simcolourproject_2stim_asymm_v5,2020.2.10,MacIntel,60,61025ae37ef11b136ea224fe,,,,,,,,,4105,-36,-63,1,0,0,response5disk,,3,2,12,1,0,0,rectangle,2,12,1,0,0,2,12,1,0,0,1,125,285,30,1,,,,,,,,
,,,,,,,,,,,,,FF,,,,,,,,1.433,,,,,,,,,,,,,,,,,,,,,,60fe3f65d1ef0e848acb56a9,61036adf1c694e0cea5f1142,2021-07-30_12h59.47.827,Simcolourproject_2stim_asymm_v5,2020.2.10,MacIntel,60,61025ae37ef11b136ea224fe,,,,,,,,,1591,66,-40,1,0,0,response3disk,,5,7,-9,1,0,0,rectangle,7,-9,1,0,0,7,-9,1,0,0,1,126,286,17,1,,,,,,,,
,,,,,,,,,,,,,FF,,,,,,,,0.866,,,,,,,,,,,,,,,,,,,,,,60fe3f65d1ef0e848acb56a9,61036adf1c694e0cea5f1142,2021-07-30_12h59.47.827,Simcolourproject_2stim_asymm_v5,2020.2.10,MacIntel,60,61025ae37ef11b136ea224fe,,,,,,,,,509,37,68,1,0,0,response1disk,,7,-13,-8,1,0,0,rectangle,-13,-8,1,0,0,-13,-8,1,0,0,1,127,287,75,1,,,,,,,,
,,,,,,,,,,,,,FF,,,,,,,,3.101,,,,,,,,,,,,,,,,,,,,,,60fe3f65d1ef0e848acb56a9,61036adf1c694e0cea5f1142,2021-07-30_12h59.47.827,Simcolourproject_2stim_asymm_v5,2020.2.10,MacIntel,60,61025ae37ef11b136ea224fe,,,,,,,,,154,50,75,1,0,0,response1disk,,7,5,-15,1,0,0,rectangle,5,-15,1,0,0,5,-15,1,0,0,1,128,288,76,1,,,,,,,,
,,,,,,,,,,,,,FF,,,,,,,,0.933,,,,,,,,,,,,,,,,,,,,,,60fe3f65d1ef0e848acb56a9,61036adf1c694e0cea5f1142,2021-07-30_12h59.47.827,Simcolourproject_2stim_asymm_v5,2020.2.10,MacIntel,60,61025ae37ef11b136ea224fe,,,,,,,,,4147,-96,-29,1,0,0,response5disk,,2,-7,-9,1,0,0,rectangle,-7,-9,1,0,0,-7,-9,1,0,0,1,129,289,74,1,,,,,,,,
,,,,,,,,,,,,,FF,,,,,,,,1.066,,,,,,,,,,,,,,,,,,,,,,60fe3f65d1ef0e848acb56a9,61036adf1c694e0cea5f1142,2021-07-30_12h59.47.827,Simcolourproject_2stim_asymm_v5,2020.2.10,MacIntel,60,61025ae37ef11b136ea224fe,,,,,,,,,2372,41,-89,1,0,0,response3disk,,4,15,-15,1,0,0,rectangle,15,-15,1,0,0,15,-15,1,0,0,1,130,290,122,1,,,,,,,,
,,,,,,,,,,,,,FF,,,,,,,,0.983,,,,,,,,,,,,,,,,,,,,,,60fe3f65d1ef0e848acb56a9,61036adf1c694e0cea5f1142,2021-07-30_12h59.47.827,Simcolourproject_2stim_asymm_v5,2020.2.10,MacIntel,60,61025ae37ef11b136ea224fe,,,,,,,,,1293,32,-68,1,0,0,response3disk,,4,-1,-8,1,0,0,rectangle,-1,-8,1,0,0,-1,-8,1,0,0,1,131,291,26,1,,,,,,,,
,,,,,,,,,,,,,FF,,,,,,,,1.517,,,,,,,,,,,,,,,,,,,,,,60fe3f65d1ef0e848acb56a9,61036adf1c694e0cea5f1142,2021-07-30_12h59.47.827,Simcolourproject_2stim_asymm_v5,2020.2.10,MacIntel,60,61025ae37ef11b136ea224fe,,,,,,,,,4317,72,49,1,0,0,response1disk,,6,-14,2,1,0,0,rectangle,-14,2,1,0,0,-14,2,1,0,0,1,132,292,108,1,,,,,,,,
,,,,,,,,,,,,,FF,,,,,,,,2.117,,,,,,,,,,,,,,,,,,,,,,60fe3f65d1ef0e848acb56a9,61036adf1c694e0cea5f1142,2021-07-30_12h59.47.827,Simcolourproject_2stim_asymm_v5,2020.2.10,MacIntel,60,61025ae37ef11b136ea224fe,,,,,,,,,4309,40,78,1,0,0,response1disk,,7,15,8,1,0,0,rectangle,15,8,1,0,0,15,8,1,0,0,1,133,293,16,1,,,,,,,,
,,,,,,,,,,,,,FF,,,,,,,,1.634,,,,,,,,,,,,,,,,,,,,,,60fe3f65d1ef0e848acb56a9,61036adf1c694e0cea5f1142,2021-07-30_12h59.47.827,Simcolourproject_2stim_asymm_v5,2020.2.10,MacIntel,60,61025ae37ef11b136ea224fe,,,,,,,,,1410,-57,-110,1,0,0,response5disk,,3,-9,9,1,0,0,rectangle,-9,9,1,0,0,-9,9,1,0,0,1,134,294,155,1,,,,,,,,
,,,,,,,,,,,,,FF,,,,,,,,1.416,,,,,,,,,,,,,,,,,,,,,,60fe3f65d1ef0e848acb56a9,61036adf1c694e0cea5f1142,2021-07-30_12h59.47.827,Simcolourproject_2stim_asymm_v5,2020.2.10,MacIntel,60,61025ae37ef11b136ea224fe,,,,,,,,,334,38,70,1,0,0,response1disk,,7,8,-3,1,0,0,rectangle,8,-3,1,0,0,8,-3,1,0,0,1,135,295,11,1,,,,,,,,
,,,,,,,,,,,,,FF,,,,,,,,0.801,,,,,,,,,,,,,,,,,,,,,,60fe3f65d1ef0e848acb56a9,61036adf1c694e0cea5f1142,2021-07-30_12h59.47.827,Simcolourproject_2stim_asymm_v5,2020.2.10,MacIntel,60,61025ae37ef11b136ea224fe,,,,,,,,,568,31,56,1,0,0,response1disk,,7,21,5,1,0,0,rectangle,21,5,1,0,0,21,5,1,0,0,1,136,296,129,1,,,,,,,,
,,,,,,,,,,,,,FF,,,,,,,,0.8,,,,,,,,,,,,,,,,,,,,,,60fe3f65d1ef0e848acb56a9,61036adf1c694e0cea5f1142,2021-07-30_12h59.47.827,Simcolourproject_2stim_asymm_v5,2020.2.10,MacIntel,60,61025ae37ef11b136ea224fe,,,,,,,,,423,85,-57,1,0,0,response3disk,,5,15,-5,1,0,0,rectangle,15,-5,1,0,0,15,-5,1,0,0,1,137,297,128,1,,,,,,,,
,,,,,,,,,,,,,FF,,,,,,,,0.667,,,,,,,,,,,,,,,,,,,,,,60fe3f65d1ef0e848acb56a9,61036adf1c694e0cea5f1142,2021-07-30_12h59.47.827,Simcolourproject_2stim_asymm_v5,2020.2.10,MacIntel,60,61025ae37ef11b136ea224fe,,,,,,,,,1500,33,50,1,0,0,response1disk,,7,-11,-15,1,0,0,rectangle,-11,-15,1,0,0,-11,-15,1,0,0,1,138,298,33,1,,,,,,,,
,,,,,,,,,,,,,FF,,,,,,,,0.617,,,,,,,,,,,,,,,,,,,,,,60fe3f65d1ef0e848acb56a9,61036adf1c694e0cea5f1142,2021-07-30_12h59.47.827,Simcolourproject_2stim_asymm_v5,2020.2.10,MacIntel,60,61025ae37ef11b136ea224fe,,,,,,,,,1146,23,62,1,0,0,response1disk,,7,1,-2,1,0,0,rectangle,1,-2,1,0,0,1,-2,1,0,0,1,139,299,102,1,,,,,,,,
,,,,,,,,,,,,,FF,,,,,,,,1.15,,,,,,,,,,,,,,,,,,,,,,60fe3f65d1ef0e848acb56a9,61036adf1c694e0cea5f1142,2021-07-30_12h59.47.827,Simcolourproject_2stim_asymm_v5,2020.2.10,MacIntel,60,61025ae37ef11b136ea224fe,,,,,,,,,613,99,38,1,0,0,response1disk,,6,-16,-4,1,0,0,rectangle,-16,-4,1,0,0,-16,-4,1,0,0,1,140,300,114,1,,,,,,,,
