key_resp.keys,key_resp.rt,key_resp_14.keys,key_resp_14.rt,key_resp_15.keys,key_resp_15.rt,key_resp_17.keys,key_resp_17.rt,key_resp_9.keys,key_resp_9.rt,key_resp_10.keys,key_resp_10.rt,practice_comparison,Ecc,mouse_5.x,mouse_5.y,mouse_5.leftButton,mouse_5.midButton,mouse_5.rightButton,mouse_5.clicked_name,pracsimilarity,response_time,mouse_10.x,mouse_10.y,mouse_10.leftButton,mouse_10.midButton,mouse_10.rightButton,mouse_10.clicked_name,mouse_7.x,mouse_7.y,mouse_7.leftButton,mouse_7.midButton,mouse_7.rightButton,mouse_6.x,mouse_6.y,mouse_6.leftButton,mouse_6.midButton,mouse_6.rightButton,duringprac.thisRepN,duringprac.thisTrialN,duringprac.thisN,duringprac.thisIndex,duringprac.ran,participant,session,date,expName,psychopyVersion,OS,frameRate,study_id,mouse_7.clicked_name,catchpracsimilarity,catch_response_time,catchnumberprac,catchtrialorderprac,mouse_6.clicked_name,key_resp_22.keys,key_resp_22.rt,realcomparison,mouse.x,mouse.y,mouse.leftButton,mouse.midButton,mouse.rightButton,mouse.clicked_name,Colour2,similarity,mouse_2.x,mouse_2.y,mouse_2.leftButton,mouse_2.midButton,mouse_2.rightButton,mouse_2.clicked_name,mouse_3.x,mouse_3.y,mouse_3.leftButton,mouse_3.midButton,mouse_3.rightButton,mouse_11.x,mouse_11.y,mouse_11.leftButton,mouse_11.midButton,mouse_11.rightButton,trials_2.thisRepN,trials_2.thisTrialN,trials_2.thisN,trials_2.thisIndex,trials_2.ran,Colour1,mouse_3.clicked_name,catchornah,catchsimilarity,catchnumber,catchtrialorder,catchRT,mouse_11.clicked_name
space,1.1541,space,22.5668,space,39.5991,space,13.0552,space,2.4356,space,4.1995,46,FF,40.97662354,70.38787842,1,0,0,response1disk_5,7,5.2337,0.778808594,-5.389953613,1,0,0,rectangle_8,0.778808594,-5.389953613,1,0,0,0.778808594,-5.389953613,1,0,0,0,0,0,0,1,60fe550044e21068e47ec6e7,61036ca9db2ac39c1624df1a,2021-07-30_13h13.25.902,Simcolourproject_2stim_asymm_v5,2020.2.10,MacIntel,60,61025ae37ef11b136ea224fe,,,,,,,,,,,,,,,,,,,,,,,,,,,,,,,,,,,,,,,,,,,,,,
,,,,,,,,,,,,95,FF,43.5067749,-42.19561768,1,0,0,response3disk_5,5,8.1498,-6.612121582,-5.758483887,1,0,0,rectangle_8,-82.03125,-38.65765381,1,0,0,-6.866577148,-4.533813477,1,0,0,0,1,1,5,1,60fe550044e21068e47ec6e7,61036ca9db2ac39c1624df1a,2021-07-30_13h13.25.902,Simcolourproject_2stim_asymm_v5,2020.2.10,MacIntel,60,61025ae37ef11b136ea224fe,response5disk_7,2,3.0009,2,"[2,5]",rectangle_4,,,,,,,,,,,,,,,,,,,,,,,,,,,,,,,,,,,,,,,,
,,,,,,,,,,,,33,PF,28.84320068,65.54974365,1,0,0,response1disk_5,7,7.2167,-3.611206055,-7.904785156,1,0,0,rectangle_8,-3.611206055,-7.904785156,1,0,0,-3.611206055,-7.904785156,1,0,0,0,2,2,2,1,60fe550044e21068e47ec6e7,61036ca9db2ac39c1624df1a,2021-07-30_13h13.25.902,Simcolourproject_2stim_asymm_v5,2020.2.10,MacIntel,60,61025ae37ef11b136ea224fe,,,,,,,,,,,,,,,,,,,,,,,,,,,,,,,,,,,,,,,,,,,,,,
,,,,,,,,,,,,113,FF,34.73553467,40.79388428,1,0,0,response1disk_5,7,9.3998,3.877319336,-4.55166626,1,0,0,rectangle_8,3.877319336,-4.55166626,1,0,0,3.877319336,-4.55166626,1,0,0,0,3,3,3,1,60fe550044e21068e47ec6e7,61036ca9db2ac39c1624df1a,2021-07-30_13h13.25.902,Simcolourproject_2stim_asymm_v5,2020.2.10,MacIntel,60,61025ae37ef11b136ea224fe,,,,,,,,,,,,,,,,,,,,,,,,,,,,,,,,,,,,,,,,,,,,,,
,,,,,,,,,,,,99,PF,30.32989502,-65.75744629,1,0,0,response3disk_5,4,2.8509,-4.267089844,-4.388427734,1,0,0,rectangle_8,-70.61907959,-39.83081055,1,0,0,4.446350098,-3.085632324,1,0,0,0,4,4,6,1,60fe550044e21068e47ec6e7,61036ca9db2ac39c1624df1a,2021-07-30_13h13.25.902,Simcolourproject_2stim_asymm_v5,2020.2.10,MacIntel,60,61025ae37ef11b136ea224fe,response5disk_7,2,2.4143,2,"[2,5]",rectangle_4,,,,,,,,,,,,,,,,,,,,,,,,,,,,,,,,,,,,,,,,
,,,,,,,,,,,,27,PF,-30.58404541,-67.9352417,1,0,0,response5disk_5,3,3.5331,-4.380432129,0.994934082,1,0,0,rectangle_8,-4.380432129,0.994934082,1,0,0,-4.380432129,0.994934082,1,0,0,0,5,5,1,1,60fe550044e21068e47ec6e7,61036ca9db2ac39c1624df1a,2021-07-30_13h13.25.902,Simcolourproject_2stim_asymm_v5,2020.2.10,MacIntel,60,61025ae37ef11b136ea224fe,,,,,,,,,,,,,,,,,,,,,,,,,,,,,,,,,,,,,,,,,,,,,,
,,,,,,,,,,,,141,PF,42.62585449,-23.93261719,1,0,0,response3disk_5,5,2.7327,0.617370605,-7.455383301,1,0,0,rectangle_8,0.617370605,-7.455383301,1,0,0,0.617370605,-7.455383301,1,0,0,0,6,6,4,1,60fe550044e21068e47ec6e7,61036ca9db2ac39c1624df1a,2021-07-30_13h13.25.902,Simcolourproject_2stim_asymm_v5,2020.2.10,MacIntel,60,61025ae37ef11b136ea224fe,,,,,,,,,,,,,,,,,,,,,,,,,,,,,,,,,,,,,,,,,,,,,,
,,,,,,,,,,,,,FF,,,,,,,,3.1342,,,,,,,,,,,,,,,,,,,,,,60fe550044e21068e47ec6e7,61036ca9db2ac39c1624df1a,2021-07-30_13h13.25.902,Simcolourproject_2stim_asymm_v5,2020.2.10,MacIntel,60,61025ae37ef11b136ea224fe,,,,,,,space,3.0863,925,56.27484131,24.32019043,1,0,0,response1disk,,6,7.009521484,-2.809570313,1,0,0,rectangle,7.009521484,-2.809570313,1,0,0,7.009521484,-2.809570313,1,0,0,0,0,0,103,1,,,,,,,,
,,,,,,,,,,,,,FF,,,,,,,,3.7162,,,,,,,,,,,,,,,,,,,,,,60fe550044e21068e47ec6e7,61036ca9db2ac39c1624df1a,2021-07-30_13h13.25.902,Simcolourproject_2stim_asymm_v5,2020.2.10,MacIntel,60,61025ae37ef11b136ea224fe,,,,,,,,,1056,66.79992676,-29.95849609,1,0,0,response3disk,,5,2.662475586,-4.962097168,1,0,0,rectangle,2.662475586,-4.962097168,1,0,0,2.662475586,-4.962097168,1,0,0,0,1,1,109,1,,,,,,,,
,,,,,,,,,,,,,FF,,,,,,,,2.3173,,,,,,,,,,,,,,,,,,,,,,60fe550044e21068e47ec6e7,61036ca9db2ac39c1624df1a,2021-07-30_13h13.25.902,Simcolourproject_2stim_asymm_v5,2020.2.10,MacIntel,60,61025ae37ef11b136ea224fe,,,,,,,,,3654,74.59143066,18.496521,1,0,0,response1disk,,6,15.91693115,3.602966309,1,0,0,rectangle,38.25738525,79.91882324,1,0,0,10.96655273,9.03112793,1,0,0,0,2,2,151,1,,response1disk_3,TRUE,7,7,"[140,13,257,147,56,166,78,183,249,252,323,41,187,41,232,206,7,127,278,3]",1.8853,rectangle
,,,,,,,,,,,,,FF,,,,,,,,2.1328,,,,,,,,,,,,,,,,,,,,,,60fe550044e21068e47ec6e7,61036ca9db2ac39c1624df1a,2021-07-30_13h13.25.902,Simcolourproject_2stim_asymm_v5,2020.2.10,MacIntel,60,61025ae37ef11b136ea224fe,,,,,,,,,4061,-56.69824219,-28.77090454,1,0,0,response5disk,,2,1.39654541,-1.09564209,1,0,0,rectangle,1.39654541,-1.09564209,1,0,0,1.39654541,-1.09564209,1,0,0,0,3,3,10,1,,,,,,,,
,,,,,,,,,,,,,FF,,,,,,,,6.7503,,,,,,,,,,,,,,,,,,,,,,60fe550044e21068e47ec6e7,61036ca9db2ac39c1624df1a,2021-07-30_13h13.25.902,Simcolourproject_2stim_asymm_v5,2020.2.10,MacIntel,60,61025ae37ef11b136ea224fe,,,,,,,,,180,63.81573486,19.39578247,1,0,0,response1disk,,6,1.897827148,-1.789978027,1,0,0,rectangle,1.897827148,-1.789978027,1,0,0,1.897827148,-1.789978027,1,0,0,0,4,4,156,1,,,,,,,,
,,,,,,,,,,,,,FF,,,,,,,,1.9501,,,,,,,,,,,,,,,,,,,,,,60fe550044e21068e47ec6e7,61036ca9db2ac39c1624df1a,2021-07-30_13h13.25.902,Simcolourproject_2stim_asymm_v5,2020.2.10,MacIntel,60,61025ae37ef11b136ea224fe,,,,,,,,,3253,40.49530029,-89.65856934,1,0,0,response3disk,,4,-3.538879395,5.953735352,1,0,0,rectangle,-3.538879395,5.953735352,1,0,0,-3.538879395,5.953735352,1,0,0,0,5,5,159,1,,,,,,,,
,,,,,,,,,,,,,FF,,,,,,,,1.0329,,,,,,,,,,,,,,,,,,,,,,60fe550044e21068e47ec6e7,61036ca9db2ac39c1624df1a,2021-07-30_13h13.25.902,Simcolourproject_2stim_asymm_v5,2020.2.10,MacIntel,60,61025ae37ef11b136ea224fe,,,,,,,,,1961,-68.63452148,24.33303833,1,0,0,response7disk,,1,-8.653198242,5.834381104,1,0,0,rectangle,-63.08258057,46.17504883,1,0,0,8.898010254,2.160705566,1,0,0,0,6,6,37,1,,response7disk_3,TRUE,1,1,"[140,13,257,147,56,166,78,183,249,252,323,41,187,41,232,206,7,127,278,3]",1.4502,rectangle
,,,,,,,,,,,,,FF,,,,,,,,2.8827,,,,,,,,,,,,,,,,,,,,,,60fe550044e21068e47ec6e7,61036ca9db2ac39c1624df1a,2021-07-30_13h13.25.902,Simcolourproject_2stim_asymm_v5,2020.2.10,MacIntel,60,61025ae37ef11b136ea224fe,,,,,,,,,3577,44.90649414,19.5098877,1,0,0,response1disk,,6,-3.251586914,0.679931641,1,0,0,rectangle,-3.251586914,0.679931641,1,0,0,-3.251586914,0.679931641,1,0,0,0,7,7,41,1,,,,,,,,
,,,,,,,,,,,,,FF,,,,,,,,0.85,,,,,,,,,,,,,,,,,,,,,,60fe550044e21068e47ec6e7,61036ca9db2ac39c1624df1a,2021-07-30_13h13.25.902,Simcolourproject_2stim_asymm_v5,2020.2.10,MacIntel,60,61025ae37ef11b136ea224fe,,,,,,,,,4046,-40.13287354,60.73236084,1,0,0,response7disk,,0,-3.282897949,2.401733398,1,0,0,rectangle,-3.282897949,2.401733398,1,0,0,-3.282897949,2.401733398,1,0,0,0,8,8,46,1,,,,,,,,
,,,,,,,,,,,,,FF,,,,,,,,1.8507,,,,,,,,,,,,,,,,,,,,,,60fe550044e21068e47ec6e7,61036ca9db2ac39c1624df1a,2021-07-30_13h13.25.902,Simcolourproject_2stim_asymm_v5,2020.2.10,MacIntel,60,61025ae37ef11b136ea224fe,,,,,,,,,1133,-66.6673584,-34.4619751,1,0,0,response5disk,,2,3.893127441,-0.221496582,1,0,0,rectangle,3.893127441,-0.221496582,1,0,0,3.893127441,-0.221496582,1,0,0,0,9,9,145,1,,,,,,,,
,,,,,,,,,,,,,FF,,,,,,,,2.7,,,,,,,,,,,,,,,,,,,,,,60fe550044e21068e47ec6e7,61036ca9db2ac39c1624df1a,2021-07-30_13h13.25.902,Simcolourproject_2stim_asymm_v5,2020.2.10,MacIntel,60,61025ae37ef11b136ea224fe,,,,,,,,,904,50.27368164,-68.49902344,1,0,0,response3disk,,4,2.80291748,0.298858643,1,0,0,rectangle,2.80291748,0.298858643,1,0,0,2.80291748,0.298858643,1,0,0,0,10,10,49,1,,,,,,,,
,,,,,,,,,,,,,FF,,,,,,,,1.3832,,,,,,,,,,,,,,,,,,,,,,60fe550044e21068e47ec6e7,61036ca9db2ac39c1624df1a,2021-07-30_13h13.25.902,Simcolourproject_2stim_asymm_v5,2020.2.10,MacIntel,60,61025ae37ef11b136ea224fe,,,,,,,,,2671,-30.7958374,-61.41021729,1,0,0,response5disk,,3,-3.664428711,-14.66885376,1,0,0,rectangle,-3.664428711,-14.66885376,1,0,0,-3.664428711,-14.66885376,1,0,0,0,11,11,123,1,,,,,,,,
,,,,,,,,,,,,,FF,,,,,,,,1.0889,,,,,,,,,,,,,,,,,,,,,,60fe550044e21068e47ec6e7,61036ca9db2ac39c1624df1a,2021-07-30_13h13.25.902,Simcolourproject_2stim_asymm_v5,2020.2.10,MacIntel,60,61025ae37ef11b136ea224fe,,,,,,,,,1195,59.11779785,27.16241455,1,0,0,response1disk,,6,1.296875,5.929992676,1,0,0,rectangle,93.71588135,-30.16812134,1,0,0,-0.860168457,3.869934082,1,0,0,0,12,12,84,1,,response3disk_3,TRUE,5,5,"[140,13,257,147,56,166,78,183,249,252,323,41,187,41,232,206,7,127,278,3]",2.4171,rectangle
,,,,,,,,,,,,,FF,,,,,,,,1.5166,,,,,,,,,,,,,,,,,,,,,,60fe550044e21068e47ec6e7,61036ca9db2ac39c1624df1a,2021-07-30_13h13.25.902,Simcolourproject_2stim_asymm_v5,2020.2.10,MacIntel,60,61025ae37ef11b136ea224fe,,,,,,,,,3745,-23.1829834,-57.82354736,1,0,0,response5disk,,3,-1.124572754,-5.509338379,1,0,0,rectangle,-1.124572754,-5.509338379,1,0,0,-1.124572754,-5.509338379,1,0,0,0,13,13,21,1,,,,,,,,
,,,,,,,,,,,,,FF,,,,,,,,1.1503,,,,,,,,,,,,,,,,,,,,,,60fe550044e21068e47ec6e7,61036ca9db2ac39c1624df1a,2021-07-30_13h13.25.902,Simcolourproject_2stim_asymm_v5,2020.2.10,MacIntel,60,61025ae37ef11b136ea224fe,,,,,,,,,3927,25.29205322,44.5116272,1,0,0,response1disk,,7,11.40142822,2.437225342,1,0,0,rectangle,11.40142822,2.437225342,1,0,0,11.40142822,2.437225342,1,0,0,0,14,14,83,1,,,,,,,,
,,,,,,,,,,,,,FF,,,,,,,,1.1993,,,,,,,,,,,,,,,,,,,,,,60fe550044e21068e47ec6e7,61036ca9db2ac39c1624df1a,2021-07-30_13h13.25.902,Simcolourproject_2stim_asymm_v5,2020.2.10,MacIntel,60,61025ae37ef11b136ea224fe,,,,,,,,,370,-47.11761475,-33.83972168,1,0,0,response5disk,,2,-7.058959961,-10.01959229,1,0,0,rectangle,-7.058959961,-10.01959229,1,0,0,-7.058959961,-10.01959229,1,0,0,0,15,15,72,1,,,,,,,,
,,,,,,,,,,,,,FF,,,,,,,,1.2998,,,,,,,,,,,,,,,,,,,,,,60fe550044e21068e47ec6e7,61036ca9db2ac39c1624df1a,2021-07-30_13h13.25.902,Simcolourproject_2stim_asymm_v5,2020.2.10,MacIntel,60,61025ae37ef11b136ea224fe,,,,,,,,,1686,31.08526611,-84.64630127,1,0,0,response3disk,,4,-4.404602051,-12.70355225,1,0,0,rectangle,-4.404602051,-12.70355225,1,0,0,-4.404602051,-12.70355225,1,0,0,0,16,16,33,1,,,,,,,,
,,,,,,,,,,,,,FF,,,,,,,,3.249,,,,,,,,,,,,,,,,,,,,,,60fe550044e21068e47ec6e7,61036ca9db2ac39c1624df1a,2021-07-30_13h13.25.902,Simcolourproject_2stim_asymm_v5,2020.2.10,MacIntel,60,61025ae37ef11b136ea224fe,,,,,,,,,1624,32.06561279,-67.70373535,1,0,0,response3disk,,4,15.36486816,4.000732422,1,0,0,rectangle,15.36486816,4.000732422,1,0,0,15.36486816,4.000732422,1,0,0,0,17,17,71,1,,,,,,,,
,,,,,,,,,,,,,FF,,,,,,,,1.1662,,,,,,,,,,,,,,,,,,,,,,60fe550044e21068e47ec6e7,61036ca9db2ac39c1624df1a,2021-07-30_13h13.25.902,Simcolourproject_2stim_asymm_v5,2020.2.10,MacIntel,60,61025ae37ef11b136ea224fe,,,,,,,,,333,52.85186768,24.54257202,1,0,0,response1disk,,6,21.46081543,12.82385254,1,0,0,rectangle,21.46081543,12.82385254,1,0,0,21.46081543,12.82385254,1,0,0,0,18,18,99,1,,,,,,,,
,,,,,,,,,,,,,FF,,,,,,,,0.8579,,,,,,,,,,,,,,,,,,,,,,60fe550044e21068e47ec6e7,61036ca9db2ac39c1624df1a,2021-07-30_13h13.25.902,Simcolourproject_2stim_asymm_v5,2020.2.10,MacIntel,60,61025ae37ef11b136ea224fe,,,,,,,,,2974,60.59912109,35.95251465,1,0,0,response1disk,,6,0.180236816,-7.630737305,1,0,0,rectangle,0.180236816,-7.630737305,1,0,0,0.180236816,-7.630737305,1,0,0,0,19,19,31,1,,,,,,,,
,,,,,,,,,,,,,FF,,,,,,,,1.05,,,,,,,,,,,,,,,,,,,,,,60fe550044e21068e47ec6e7,61036ca9db2ac39c1624df1a,2021-07-30_13h13.25.902,Simcolourproject_2stim_asymm_v5,2020.2.10,MacIntel,60,61025ae37ef11b136ea224fe,,,,,,,,,3574,44.21850586,22.32952881,1,0,0,response1disk,,6,6.145507813,7.668395996,1,0,0,rectangle,6.145507813,7.668395996,1,0,0,6.145507813,7.668395996,1,0,0,0,20,20,85,1,,,,,,,,
,,,,,,,,,,,,,FF,,,,,,,,0.9331,,,,,,,,,,,,,,,,,,,,,,60fe550044e21068e47ec6e7,61036ca9db2ac39c1624df1a,2021-07-30_13h13.25.902,Simcolourproject_2stim_asymm_v5,2020.2.10,MacIntel,60,61025ae37ef11b136ea224fe,,,,,,,,,3117,27.39465332,-55.52804565,1,0,0,response3disk,,4,7.844238281,-5.538085938,1,0,0,rectangle,7.844238281,-5.538085938,1,0,0,7.844238281,-5.538085938,1,0,0,0,21,21,92,1,,,,,,,,
,,,,,,,,,,,,,FF,,,,,,,,2.033,,,,,,,,,,,,,,,,,,,,,,60fe550044e21068e47ec6e7,61036ca9db2ac39c1624df1a,2021-07-30_13h13.25.902,Simcolourproject_2stim_asymm_v5,2020.2.10,MacIntel,60,61025ae37ef11b136ea224fe,,,,,,,,,4257,33.89672852,69.59741211,1,0,0,response1disk,,7,11.03277588,3.16796875,1,0,0,rectangle,11.03277588,3.16796875,1,0,0,11.03277588,3.16796875,1,0,0,0,22,22,86,1,,,,,,,,
,,,,,,,,,,,,,FF,,,,,,,,1.4155,,,,,,,,,,,,,,,,,,,,,,60fe550044e21068e47ec6e7,61036ca9db2ac39c1624df1a,2021-07-30_13h13.25.902,Simcolourproject_2stim_asymm_v5,2020.2.10,MacIntel,60,61025ae37ef11b136ea224fe,,,,,,,,,2706,56.77478027,24.58972168,1,0,0,response1disk,,6,-24.57226563,-15.70446777,1,0,0,rectangle,-24.57226563,-15.70446777,1,0,0,-24.57226563,-15.70446777,1,0,0,0,23,23,81,1,,,,,,,,
,,,,,,,,,,,,,FF,,,,,,,,1.0664,,,,,,,,,,,,,,,,,,,,,,60fe550044e21068e47ec6e7,61036ca9db2ac39c1624df1a,2021-07-30_13h13.25.902,Simcolourproject_2stim_asymm_v5,2020.2.10,MacIntel,60,61025ae37ef11b136ea224fe,,,,,,,,,3544,-59.92425537,-34.47146606,1,0,0,response5disk,,2,-9.421020508,-0.935455322,1,0,0,rectangle,-9.421020508,-0.935455322,1,0,0,-9.421020508,-0.935455322,1,0,0,0,24,24,152,1,,,,,,,,
,,,,,,,,,,,,,FF,,,,,,,,2.2172,,,,,,,,,,,,,,,,,,,,,,60fe550044e21068e47ec6e7,61036ca9db2ac39c1624df1a,2021-07-30_13h13.25.902,Simcolourproject_2stim_asymm_v5,2020.2.10,MacIntel,60,61025ae37ef11b136ea224fe,,,,,,,,,3125,75.5881958,-32.97665405,1,0,0,response3disk,,5,1.748657227,-1.053222656,1,0,0,rectangle,1.748657227,-1.053222656,1,0,0,1.748657227,-1.053222656,1,0,0,0,25,25,18,1,,,,,,,,
,,,,,,,,,,,,,FF,,,,,,,,1.3837,,,,,,,,,,,,,,,,,,,,,,60fe550044e21068e47ec6e7,61036ca9db2ac39c1624df1a,2021-07-30_13h13.25.902,Simcolourproject_2stim_asymm_v5,2020.2.10,MacIntel,60,61025ae37ef11b136ea224fe,,,,,,,,,4264,62.69927979,31.37780762,1,0,0,response1disk,,6,12.00762939,-1.891540527,1,0,0,rectangle,12.00762939,-1.891540527,1,0,0,12.00762939,-1.891540527,1,0,0,0,26,26,129,1,,,,,,,,
,,,,,,,,,,,,,FF,,,,,,,,1.1179,,,,,,,,,,,,,,,,,,,,,,60fe550044e21068e47ec6e7,61036ca9db2ac39c1624df1a,2021-07-30_13h13.25.902,Simcolourproject_2stim_asymm_v5,2020.2.10,MacIntel,60,61025ae37ef11b136ea224fe,,,,,,,,,3953,21.17492676,-75.76403809,1,0,0,response3disk,,4,1.99230957,-11.14263916,1,0,0,rectangle,1.99230957,-11.14263916,1,0,0,1.99230957,-11.14263916,1,0,0,0,27,27,118,1,,,,,,,,
,,,,,,,,,,,,,FF,,,,,,,,1.565,,,,,,,,,,,,,,,,,,,,,,60fe550044e21068e47ec6e7,61036ca9db2ac39c1624df1a,2021-07-30_13h13.25.902,Simcolourproject_2stim_asymm_v5,2020.2.10,MacIntel,60,61025ae37ef11b136ea224fe,,,,,,,,,405,68.8494873,17.8057251,1,0,0,response1disk,,6,10.97412109,-9.273986816,1,0,0,rectangle,10.97412109,-9.273986816,1,0,0,10.97412109,-9.273986816,1,0,0,0,28,28,9,1,,,,,,,,
,,,,,,,,,,,,,FF,,,,,,,,1.5333,,,,,,,,,,,,,,,,,,,,,,60fe550044e21068e47ec6e7,61036ca9db2ac39c1624df1a,2021-07-30_13h13.25.902,Simcolourproject_2stim_asymm_v5,2020.2.10,MacIntel,60,61025ae37ef11b136ea224fe,,,,,,,,,3111,-68.29400635,-26.27081299,1,0,0,response5disk,,2,8.381225586,4.903564453,1,0,0,rectangle,8.381225586,4.903564453,1,0,0,8.381225586,4.903564453,1,0,0,0,29,29,2,1,,,,,,,,
,,,,,,,,,,,,,FF,,,,,,,,0.9007,,,,,,,,,,,,,,,,,,,,,,60fe550044e21068e47ec6e7,61036ca9db2ac39c1624df1a,2021-07-30_13h13.25.902,Simcolourproject_2stim_asymm_v5,2020.2.10,MacIntel,60,61025ae37ef11b136ea224fe,,,,,,,,,2426,-60.50195313,-30.66229248,1,0,0,response5disk,,2,7.971008301,-4.685791016,1,0,0,rectangle,7.971008301,-4.685791016,1,0,0,7.971008301,-4.685791016,1,0,0,0,30,30,19,1,,,,,,,,
,,,,,,,,,,,,,FF,,,,,,,,2.9004,,,,,,,,,,,,,,,,,,,,,,60fe550044e21068e47ec6e7,61036ca9db2ac39c1624df1a,2021-07-30_13h13.25.902,Simcolourproject_2stim_asymm_v5,2020.2.10,MacIntel,60,61025ae37ef11b136ea224fe,,,,,,,,,1710,50.84588623,29.32879639,1,0,0,response1disk,,6,-2.989257813,-11.46490479,1,0,0,rectangle,-2.989257813,-11.46490479,1,0,0,-2.989257813,-11.46490479,1,0,0,0,31,31,36,1,,,,,,,,
,,,,,,,,,,,,,FF,,,,,,,,1.517,,,,,,,,,,,,,,,,,,,,,,60fe550044e21068e47ec6e7,61036ca9db2ac39c1624df1a,2021-07-30_13h13.25.902,Simcolourproject_2stim_asymm_v5,2020.2.10,MacIntel,60,61025ae37ef11b136ea224fe,,,,,,,,,1641,24.89984131,67.71704102,1,0,0,response1disk,,7,18.24438477,12.90515137,1,0,0,rectangle,18.24438477,12.90515137,1,0,0,18.24438477,12.90515137,1,0,0,0,32,32,132,1,,,,,,,,
,,,,,,,,,,,,,FF,,,,,,,,1.3159,,,,,,,,,,,,,,,,,,,,,,60fe550044e21068e47ec6e7,61036ca9db2ac39c1624df1a,2021-07-30_13h13.25.902,Simcolourproject_2stim_asymm_v5,2020.2.10,MacIntel,60,61025ae37ef11b136ea224fe,,,,,,,,,2319,29.98095703,47.09152222,1,0,0,response1disk,,7,-6.095153809,-7.400970459,1,0,0,rectangle,-6.095153809,-7.400970459,1,0,0,-6.095153809,-7.400970459,1,0,0,0,33,33,52,1,,,,,,,,
,,,,,,,,,,,,,FF,,,,,,,,1.4007,,,,,,,,,,,,,,,,,,,,,,60fe550044e21068e47ec6e7,61036ca9db2ac39c1624df1a,2021-07-30_13h13.25.902,Simcolourproject_2stim_asymm_v5,2020.2.10,MacIntel,60,61025ae37ef11b136ea224fe,,,,,,,,,3887,-73.85736084,-21.57528687,1,0,0,response5disk,,2,-10.35638428,-4.805175781,1,0,0,rectangle,-10.35638428,-4.805175781,1,0,0,-10.35638428,-4.805175781,1,0,0,0,34,34,114,1,,,,,,,,
,,,,,,,,,,,,,FF,,,,,,,,1.1187,,,,,,,,,,,,,,,,,,,,,,60fe550044e21068e47ec6e7,61036ca9db2ac39c1624df1a,2021-07-30_13h13.25.902,Simcolourproject_2stim_asymm_v5,2020.2.10,MacIntel,60,61025ae37ef11b136ea224fe,,,,,,,,,3828,65.82983398,-21.89520264,1,0,0,response3disk,,5,19.68469238,-11.84527588,1,0,0,rectangle,19.68469238,-11.84527588,1,0,0,19.68469238,-11.84527588,1,0,0,0,35,35,155,1,,,,,,,,
,,,,,,,,,,,,,FF,,,,,,,,1.4677,,,,,,,,,,,,,,,,,,,,,,60fe550044e21068e47ec6e7,61036ca9db2ac39c1624df1a,2021-07-30_13h13.25.902,Simcolourproject_2stim_asymm_v5,2020.2.10,MacIntel,60,61025ae37ef11b136ea224fe,,,,,,,,,4102,-72.73242188,24.19445801,1,0,0,response7disk,,1,-1.388427734,-4.547058105,1,0,0,rectangle,-1.388427734,-4.547058105,1,0,0,-1.388427734,-4.547058105,1,0,0,0,36,36,63,1,,,,,,,,
,,,,,,,,,,,,,FF,,,,,,,,2.7996,,,,,,,,,,,,,,,,,,,,,,60fe550044e21068e47ec6e7,61036ca9db2ac39c1624df1a,2021-07-30_13h13.25.902,Simcolourproject_2stim_asymm_v5,2020.2.10,MacIntel,60,61025ae37ef11b136ea224fe,,,,,,,,,247,69.18994141,-36.21713257,1,0,0,response3disk,,5,5.224182129,-13.64685059,1,0,0,rectangle,5.224182129,-13.64685059,1,0,0,5.224182129,-13.64685059,1,0,0,0,37,37,135,1,,,,,,,,
,,,,,,,,,,,,,FF,,,,,,,,0.9683,,,,,,,,,,,,,,,,,,,,,,60fe550044e21068e47ec6e7,61036ca9db2ac39c1624df1a,2021-07-30_13h13.25.902,Simcolourproject_2stim_asymm_v5,2020.2.10,MacIntel,60,61025ae37ef11b136ea224fe,,,,,,,,,1183,26.66650391,55.36175537,1,0,0,response1disk,,7,5.656616211,6.641143799,1,0,0,rectangle,5.656616211,6.641143799,1,0,0,5.656616211,6.641143799,1,0,0,0,38,38,121,1,,,,,,,,
,,,,,,,,,,,,,FF,,,,,,,,2.9851,,,,,,,,,,,,,,,,,,,,,,60fe550044e21068e47ec6e7,61036ca9db2ac39c1624df1a,2021-07-30_13h13.25.902,Simcolourproject_2stim_asymm_v5,2020.2.10,MacIntel,60,61025ae37ef11b136ea224fe,,,,,,,,,2533,63.25146484,-23.50378418,1,0,0,response3disk,,5,-30.53100586,15.46151733,1,0,0,rectangle,-30.53100586,15.46151733,1,0,0,-30.53100586,15.46151733,1,0,0,0,39,39,131,1,,,,,,,,
,,,,,,,,,,,,,FF,,,,,,,,0.6835,,,,,,,,,,,,,,,,,,,,,,60fe550044e21068e47ec6e7,61036ca9db2ac39c1624df1a,2021-07-30_13h13.25.902,Simcolourproject_2stim_asymm_v5,2020.2.10,MacIntel,60,61025ae37ef11b136ea224fe,,,,,,,,,2887,-56.85919189,28.64147949,1,0,0,response7disk,,1,7.283935547,0.413024902,1,0,0,rectangle,41.23675537,81.87512207,1,0,0,1.187866211,17.56832886,1,0,0,0,40,40,97,1,,response1disk_3,TRUE,7,7,"[140,13,257,147,56,166,78,183,249,252,323,41,187,41,232,206,7,127,278,3]",2.1514,rectangle
,,,,,,,,,,,,,FF,,,,,,,,3.6997,,,,,,,,,,,,,,,,,,,,,,60fe550044e21068e47ec6e7,61036ca9db2ac39c1624df1a,2021-07-30_13h13.25.902,Simcolourproject_2stim_asymm_v5,2020.2.10,MacIntel,60,61025ae37ef11b136ea224fe,,,,,,,,,2121,59.44085693,-19.89831543,1,0,0,response3disk,,5,0.456298828,-2.544219971,1,0,0,rectangle,0.456298828,-2.544219971,1,0,0,0.456298828,-2.544219971,1,0,0,0,41,41,143,1,,,,,,,,
,,,,,,,,,,,,,FF,,,,,,,,0.9182,,,,,,,,,,,,,,,,,,,,,,60fe550044e21068e47ec6e7,61036ca9db2ac39c1624df1a,2021-07-30_13h13.25.902,Simcolourproject_2stim_asymm_v5,2020.2.10,MacIntel,60,61025ae37ef11b136ea224fe,,,,,,,,,3825,20.52307129,-74.37298584,1,0,0,response3disk,,4,5.966918945,-16.6907959,1,0,0,rectangle,5.966918945,-16.6907959,1,0,0,5.966918945,-16.6907959,1,0,0,0,42,42,64,1,,,,,,,,
,,,,,,,,,,,,,FF,,,,,,,,0.8003,,,,,,,,,,,,,,,,,,,,,,60fe550044e21068e47ec6e7,61036ca9db2ac39c1624df1a,2021-07-30_13h13.25.902,Simcolourproject_2stim_asymm_v5,2020.2.10,MacIntel,60,61025ae37ef11b136ea224fe,,,,,,,,,3902,-32.61962891,-63.96520996,1,0,0,response5disk,,3,-9.240478516,-14.94030762,1,0,0,rectangle,-9.240478516,-14.94030762,1,0,0,-9.240478516,-14.94030762,1,0,0,0,43,43,130,1,,,,,,,,
,,,,,,,,,,,,,FF,,,,,,,,1.1999,,,,,,,,,,,,,,,,,,,,,,60fe550044e21068e47ec6e7,61036ca9db2ac39c1624df1a,2021-07-30_13h13.25.902,Simcolourproject_2stim_asymm_v5,2020.2.10,MacIntel,60,61025ae37ef11b136ea224fe,,,,,,,,,3367,29.28100586,43.12924194,1,0,0,response1disk,,7,12.97894287,6.744445801,1,0,0,rectangle,12.97894287,6.744445801,1,0,0,12.97894287,6.744445801,1,0,0,0,44,44,32,1,,,,,,,,
,,,,,,,,,,,,,FF,,,,,,,,2.1507,,,,,,,,,,,,,,,,,,,,,,60fe550044e21068e47ec6e7,61036ca9db2ac39c1624df1a,2021-07-30_13h13.25.902,Simcolourproject_2stim_asymm_v5,2020.2.10,MacIntel,60,61025ae37ef11b136ea224fe,,,,,,,,,3135,24.29803467,39.96365356,1,0,0,response1disk,,7,-3.589782715,3.233581543,1,0,0,rectangle,-3.589782715,3.233581543,1,0,0,-3.589782715,3.233581543,1,0,0,0,45,45,14,1,,,,,,,,
,,,,,,,,,,,,,FF,,,,,,,,3.5007,,,,,,,,,,,,,,,,,,,,,,60fe550044e21068e47ec6e7,61036ca9db2ac39c1624df1a,2021-07-30_13h13.25.902,Simcolourproject_2stim_asymm_v5,2020.2.10,MacIntel,60,61025ae37ef11b136ea224fe,,,,,,,,,1854,57.45452881,-36.55871582,1,0,0,response3disk,,5,3.413879395,6.086883545,1,0,0,rectangle,3.413879395,6.086883545,1,0,0,3.413879395,6.086883545,1,0,0,0,46,46,57,1,,,,,,,,
,,,,,,,,,,,,,FF,,,,,,,,0.6836,,,,,,,,,,,,,,,,,,,,,,60fe550044e21068e47ec6e7,61036ca9db2ac39c1624df1a,2021-07-30_13h13.25.902,Simcolourproject_2stim_asymm_v5,2020.2.10,MacIntel,60,61025ae37ef11b136ea224fe,,,,,,,,,3327,18.76000977,56.23193359,1,0,0,response1disk,,7,5.222473145,0.239868164,1,0,0,rectangle,5.222473145,0.239868164,1,0,0,5.222473145,0.239868164,1,0,0,0,47,47,27,1,,,,,,,,
,,,,,,,,,,,,,FF,,,,,,,,1.75,,,,,,,,,,,,,,,,,,,,,,60fe550044e21068e47ec6e7,61036ca9db2ac39c1624df1a,2021-07-30_13h13.25.902,Simcolourproject_2stim_asymm_v5,2020.2.10,MacIntel,60,61025ae37ef11b136ea224fe,,,,,,,,,3886,53.72271729,-33.69818115,1,0,0,response3disk,,5,17.16467285,-12.92169189,1,0,0,rectangle,17.16467285,-12.92169189,1,0,0,17.16467285,-12.92169189,1,0,0,0,48,48,116,1,,,,,,,,
,,,,,,,,,,,,,FF,,,,,,,,0.7001,,,,,,,,,,,,,,,,,,,,,,60fe550044e21068e47ec6e7,61036ca9db2ac39c1624df1a,2021-07-30_13h13.25.902,Simcolourproject_2stim_asymm_v5,2020.2.10,MacIntel,60,61025ae37ef11b136ea224fe,,,,,,,,,1750,-52.5592041,25.96673584,1,0,0,response7disk,,1,-5.821228027,13.76098633,1,0,0,rectangle,-5.821228027,13.76098633,1,0,0,-5.821228027,13.76098633,1,0,0,0,49,49,60,1,,,,,,,,
,,,,,,,,,,,,,FF,,,,,,,,1.6166,,,,,,,,,,,,,,,,,,,,,,60fe550044e21068e47ec6e7,61036ca9db2ac39c1624df1a,2021-07-30_13h13.25.902,Simcolourproject_2stim_asymm_v5,2020.2.10,MacIntel,60,61025ae37ef11b136ea224fe,,,,,,,,,2793,18.26428223,-41.95352173,1,0,0,response3disk,,4,4.361999512,-3.569549561,1,0,0,rectangle,4.361999512,-3.569549561,1,0,0,4.361999512,-3.569549561,1,0,0,0,50,50,89,1,,,,,,,,
,,,,,,,,,,,,,FF,,,,,,,,0.8673,,,,,,,,,,,,,,,,,,,,,,60fe550044e21068e47ec6e7,61036ca9db2ac39c1624df1a,2021-07-30_13h13.25.902,Simcolourproject_2stim_asymm_v5,2020.2.10,MacIntel,60,61025ae37ef11b136ea224fe,,,,,,,,,3279,39.29626465,26.20288086,1,0,0,response1disk,,6,-3.600708008,2.456787109,1,0,0,rectangle,-3.600708008,2.456787109,1,0,0,-3.600708008,2.456787109,1,0,0,0,51,51,58,1,,,,,,,,
,,,,,,,,,,,,,FF,,,,,,,,1.0665,,,,,,,,,,,,,,,,,,,,,,60fe550044e21068e47ec6e7,61036ca9db2ac39c1624df1a,2021-07-30_13h13.25.902,Simcolourproject_2stim_asymm_v5,2020.2.10,MacIntel,60,61025ae37ef11b136ea224fe,,,,,,,,,1833,24.628479,-45.42922974,1,0,0,response3disk,,4,5.589111328,-15.58172607,1,0,0,rectangle,5.589111328,-15.58172607,1,0,0,5.589111328,-15.58172607,1,0,0,0,52,52,45,1,,,,,,,,
,,,,,,,,,,,,,FF,,,,,,,,1.6831,,,,,,,,,,,,,,,,,,,,,,60fe550044e21068e47ec6e7,61036ca9db2ac39c1624df1a,2021-07-30_13h13.25.902,Simcolourproject_2stim_asymm_v5,2020.2.10,MacIntel,60,61025ae37ef11b136ea224fe,,,,,,,,,529,-61.53625488,-22.66342163,1,0,0,response5disk,,2,-7.148010254,-1.796020508,1,0,0,rectangle,-7.148010254,-1.796020508,1,0,0,-7.148010254,-1.796020508,1,0,0,0,53,53,98,1,,,,,,,,
,,,,,,,,,,,,,FF,,,,,,,,1.4328,,,,,,,,,,,,,,,,,,,,,,60fe550044e21068e47ec6e7,61036ca9db2ac39c1624df1a,2021-07-30_13h13.25.902,Simcolourproject_2stim_asymm_v5,2020.2.10,MacIntel,60,61025ae37ef11b136ea224fe,,,,,,,,,1172,45.4833374,27.73721313,1,0,0,response1disk,,6,7.695373535,5.820373535,1,0,0,rectangle,7.695373535,5.820373535,1,0,0,7.695373535,5.820373535,1,0,0,0,54,54,138,1,,,,,,,,
,,,,,,,,,,,,,FF,,,,,,,,0.8493,,,,,,,,,,,,,,,,,,,,,,60fe550044e21068e47ec6e7,61036ca9db2ac39c1624df1a,2021-07-30_13h13.25.902,Simcolourproject_2stim_asymm_v5,2020.2.10,MacIntel,60,61025ae37ef11b136ea224fe,,,,,,,,,3804,25.45275879,39.41900635,1,0,0,response1disk,,7,7.468078613,3.653778076,1,0,0,rectangle,-95.82446289,53.09597778,1,0,0,3.281799316,5.554016113,1,0,0,0,55,55,61,1,,response7disk_3,TRUE,1,1,"[140,13,257,147,56,166,78,183,249,252,323,41,187,41,232,206,7,127,278,3]",1.5167,rectangle
,,,,,,,,,,,,,FF,,,,,,,,3.3505,,,,,,,,,,,,,,,,,,,,,,60fe550044e21068e47ec6e7,61036ca9db2ac39c1624df1a,2021-07-30_13h13.25.902,Simcolourproject_2stim_asymm_v5,2020.2.10,MacIntel,60,61025ae37ef11b136ea224fe,,,,,,,,,3494,19.50469971,-41.13806152,1,0,0,response3disk,,4,-7.746704102,12.14251709,1,0,0,rectangle,-7.746704102,12.14251709,1,0,0,-7.746704102,12.14251709,1,0,0,0,56,56,12,1,,,,,,,,
,,,,,,,,,,,,,FF,,,,,,,,1.0682,,,,,,,,,,,,,,,,,,,,,,60fe550044e21068e47ec6e7,61036ca9db2ac39c1624df1a,2021-07-30_13h13.25.902,Simcolourproject_2stim_asymm_v5,2020.2.10,MacIntel,60,61025ae37ef11b136ea224fe,,,,,,,,,1385,-61.90795898,-22.79418945,1,0,0,response5disk,,2,-2.83392334,5.387695313,1,0,0,rectangle,-2.83392334,5.387695313,1,0,0,-2.83392334,5.387695313,1,0,0,0,57,57,139,1,,,,,,,,
,,,,,,,,,,,,,FF,,,,,,,,0.8347,,,,,,,,,,,,,,,,,,,,,,60fe550044e21068e47ec6e7,61036ca9db2ac39c1624df1a,2021-07-30_13h13.25.902,Simcolourproject_2stim_asymm_v5,2020.2.10,MacIntel,60,61025ae37ef11b136ea224fe,,,,,,,,,3222,52.05700684,20.12329102,1,0,0,response1disk,,6,0.913269043,3.690673828,1,0,0,rectangle,0.913269043,3.690673828,1,0,0,0.913269043,3.690673828,1,0,0,0,58,58,157,1,,,,,,,,
,,,,,,,,,,,,,FF,,,,,,,,1.6992,,,,,,,,,,,,,,,,,,,,,,60fe550044e21068e47ec6e7,61036ca9db2ac39c1624df1a,2021-07-30_13h13.25.902,Simcolourproject_2stim_asymm_v5,2020.2.10,MacIntel,60,61025ae37ef11b136ea224fe,,,,,,,,,2680,66.65411377,-37.06546021,1,0,0,response3disk,,5,4.385314941,-6.047241211,1,0,0,rectangle,4.385314941,-6.047241211,1,0,0,4.385314941,-6.047241211,1,0,0,0,59,59,1,1,,,,,,,,
,,,,,,,,,,,,,FF,,,,,,,,1.0348,,,,,,,,,,,,,,,,,,,,,,60fe550044e21068e47ec6e7,61036ca9db2ac39c1624df1a,2021-07-30_13h13.25.902,Simcolourproject_2stim_asymm_v5,2020.2.10,MacIntel,60,61025ae37ef11b136ea224fe,,,,,,,,,2464,29.74255371,47.31304932,1,0,0,response1disk,,7,6.910095215,-4.53894043,1,0,0,rectangle,6.910095215,-4.53894043,1,0,0,6.910095215,-4.53894043,1,0,0,0,60,60,16,1,,,,,,,,
,,,,,,,,,,,,,FF,,,,,,,,1.1174,,,,,,,,,,,,,,,,,,,,,,60fe550044e21068e47ec6e7,61036ca9db2ac39c1624df1a,2021-07-30_13h13.25.902,Simcolourproject_2stim_asymm_v5,2020.2.10,MacIntel,60,61025ae37ef11b136ea224fe,,,,,,,,,3039,-45.14385986,-62.0199585,1,0,0,response5disk,,3,-23.5098877,-3.682373047,1,0,0,rectangle,-23.5098877,-3.682373047,1,0,0,-23.5098877,-3.682373047,1,0,0,0,61,61,39,1,,,,,,,,
,,,,,,,,,,,,,FF,,,,,,,,0.8181,,,,,,,,,,,,,,,,,,,,,,60fe550044e21068e47ec6e7,61036ca9db2ac39c1624df1a,2021-07-30_13h13.25.902,Simcolourproject_2stim_asymm_v5,2020.2.10,MacIntel,60,61025ae37ef11b136ea224fe,,,,,,,,,354,-63.54815674,-33.84216309,1,0,0,response5disk,,2,10.57818604,9.62677002,1,0,0,rectangle,10.57818604,9.62677002,1,0,0,10.57818604,9.62677002,1,0,0,0,62,62,126,1,,,,,,,,
,,,,,,,,,,,,,FF,,,,,,,,1.1162,,,,,,,,,,,,,,,,,,,,,,60fe550044e21068e47ec6e7,61036ca9db2ac39c1624df1a,2021-07-30_13h13.25.902,Simcolourproject_2stim_asymm_v5,2020.2.10,MacIntel,60,61025ae37ef11b136ea224fe,,,,,,,,,2206,68.60650635,34.44342041,1,0,0,response1disk,,6,6.164489746,-0.900756836,1,0,0,rectangle,6.164489746,-0.900756836,1,0,0,6.164489746,-0.900756836,1,0,0,0,63,63,69,1,,,,,,,,
,,,,,,,,,,,,,FF,,,,,,,,1.8846,,,,,,,,,,,,,,,,,,,,,,60fe550044e21068e47ec6e7,61036ca9db2ac39c1624df1a,2021-07-30_13h13.25.902,Simcolourproject_2stim_asymm_v5,2020.2.10,MacIntel,60,61025ae37ef11b136ea224fe,,,,,,,,,2141,41.83312988,22.47998047,1,0,0,response1disk,,6,-13.10150146,-0.312103271,1,0,0,rectangle,-13.10150146,-0.312103271,1,0,0,-13.10150146,-0.312103271,1,0,0,0,64,64,80,1,,,,,,,,
,,,,,,,,,,,,,FF,,,,,,,,0.8835,,,,,,,,,,,,,,,,,,,,,,60fe550044e21068e47ec6e7,61036ca9db2ac39c1624df1a,2021-07-30_13h13.25.902,Simcolourproject_2stim_asymm_v5,2020.2.10,MacIntel,60,61025ae37ef11b136ea224fe,,,,,,,,,3250,-70.78881836,29.46939087,1,0,0,response7disk,,1,-6.328979492,3.027099609,1,0,0,rectangle,-6.328979492,3.027099609,1,0,0,-6.328979492,3.027099609,1,0,0,0,65,65,90,1,,,,,,,,
,,,,,,,,,,,,,FF,,,,,,,,0.8339,,,,,,,,,,,,,,,,,,,,,,60fe550044e21068e47ec6e7,61036ca9db2ac39c1624df1a,2021-07-30_13h13.25.902,Simcolourproject_2stim_asymm_v5,2020.2.10,MacIntel,60,61025ae37ef11b136ea224fe,,,,,,,,,1170,29.07696533,53.94476318,1,0,0,response1disk,,7,3.890563965,2.831848145,1,0,0,rectangle,3.890563965,2.831848145,1,0,0,3.890563965,2.831848145,1,0,0,0,66,66,117,1,,,,,,,,
,,,,,,,,,,,,,FF,,,,,,,,0.8495,,,,,,,,,,,,,,,,,,,,,,60fe550044e21068e47ec6e7,61036ca9db2ac39c1624df1a,2021-07-30_13h13.25.902,Simcolourproject_2stim_asymm_v5,2020.2.10,MacIntel,60,61025ae37ef11b136ea224fe,,,,,,,,,3875,-33.88708496,52.67355347,1,0,0,response7disk,,0,-11.58856201,-7.296539307,1,0,0,rectangle,-11.58856201,-7.296539307,1,0,0,-11.58856201,-7.296539307,1,0,0,0,67,67,115,1,,,,,,,,
,,,,,,,,,,,,,FF,,,,,,,,0.6505,,,,,,,,,,,,,,,,,,,,,,60fe550044e21068e47ec6e7,61036ca9db2ac39c1624df1a,2021-07-30_13h13.25.902,Simcolourproject_2stim_asymm_v5,2020.2.10,MacIntel,60,61025ae37ef11b136ea224fe,,,,,,,,,4140,-21.32025146,59.9515686,1,0,0,response7disk,,0,-9.25177002,-4.662353516,1,0,0,rectangle,-9.25177002,-4.662353516,1,0,0,-9.25177002,-4.662353516,1,0,0,0,68,68,13,1,,,,,,,,
,,,,,,,,,,,,,FF,,,,,,,,3.2332,,,,,,,,,,,,,,,,,,,,,,60fe550044e21068e47ec6e7,61036ca9db2ac39c1624df1a,2021-07-30_13h13.25.902,Simcolourproject_2stim_asymm_v5,2020.2.10,MacIntel,60,61025ae37ef11b136ea224fe,,,,,,,,,4114,82.98303223,-33.12161255,1,0,0,response3disk,,5,5.680603027,14.98748779,1,0,0,rectangle,5.680603027,14.98748779,1,0,0,5.680603027,14.98748779,1,0,0,0,69,69,148,1,,,,,,,,
,,,,,,,,,,,,,FF,,,,,,,,0.9517,,,,,,,,,,,,,,,,,,,,,,60fe550044e21068e47ec6e7,61036ca9db2ac39c1624df1a,2021-07-30_13h13.25.902,Simcolourproject_2stim_asymm_v5,2020.2.10,MacIntel,60,61025ae37ef11b136ea224fe,,,,,,,,,1658,65.07342529,27.72680664,1,0,0,response1disk,,6,0.233886719,-8.480163574,1,0,0,rectangle,0.233886719,-8.480163574,1,0,0,0.233886719,-8.480163574,1,0,0,0,70,70,137,1,,,,,,,,
,,,,,,,,,,,,,FF,,,,,,,,2.4163,,,,,,,,,,,,,,,,,,,,,,60fe550044e21068e47ec6e7,61036ca9db2ac39c1624df1a,2021-07-30_13h13.25.902,Simcolourproject_2stim_asymm_v5,2020.2.10,MacIntel,60,61025ae37ef11b136ea224fe,,,,,,,,,2475,72.32751465,39.02584839,1,0,0,response1disk,,6,5.15814209,5.878845215,1,0,0,rectangle,5.15814209,5.878845215,1,0,0,5.15814209,5.878845215,1,0,0,0,71,71,106,1,,,,,,,,
,,,,,,,,,,,,,FF,,,,,,,,1.6005,,,,,,,,,,,,,,,,,,,,,,60fe550044e21068e47ec6e7,61036ca9db2ac39c1624df1a,2021-07-30_13h13.25.902,Simcolourproject_2stim_asymm_v5,2020.2.10,MacIntel,60,61025ae37ef11b136ea224fe,,,,,,,,,407,57.57403564,31.74713135,1,0,0,response1disk,,6,16.3012085,9.928588867,1,0,0,rectangle,16.3012085,9.928588867,1,0,0,16.3012085,9.928588867,1,0,0,0,72,72,105,1,,,,,,,,
,,,,,,,,,,,,,FF,,,,,,,,0.9162,,,,,,,,,,,,,,,,,,,,,,60fe550044e21068e47ec6e7,61036ca9db2ac39c1624df1a,2021-07-30_13h13.25.902,Simcolourproject_2stim_asymm_v5,2020.2.10,MacIntel,60,61025ae37ef11b136ea224fe,,,,,,,,,2608,-58.30584717,27.13458252,1,0,0,response7disk,,1,-16.98492432,7.134460449,1,0,0,rectangle,-16.98492432,7.134460449,1,0,0,-16.98492432,7.134460449,1,0,0,0,73,73,8,1,,,,,,,,
,,,,,,,,,,,,,FF,,,,,,,,0.7518,,,,,,,,,,,,,,,,,,,,,,60fe550044e21068e47ec6e7,61036ca9db2ac39c1624df1a,2021-07-30_13h13.25.902,Simcolourproject_2stim_asymm_v5,2020.2.10,MacIntel,60,61025ae37ef11b136ea224fe,,,,,,,,,949,58.57476807,24.67877197,1,0,0,response1disk,,6,17.95117188,1.505310059,1,0,0,rectangle,17.95117188,1.505310059,1,0,0,17.95117188,1.505310059,1,0,0,0,74,74,134,1,,,,,,,,
,,,,,,,,,,,,,FF,,,,,,,,1.1991,,,,,,,,,,,,,,,,,,,,,,60fe550044e21068e47ec6e7,61036ca9db2ac39c1624df1a,2021-07-30_13h13.25.902,Simcolourproject_2stim_asymm_v5,2020.2.10,MacIntel,60,61025ae37ef11b136ea224fe,,,,,,,,,4233,35.95959473,58.37420654,1,0,0,response1disk,,7,16.4161377,2.790313721,1,0,0,rectangle,16.4161377,2.790313721,1,0,0,16.4161377,2.790313721,1,0,0,0,75,75,38,1,,,,,,,,
,,,,,,,,,,,,,FF,,,,,,,,0.8503,,,,,,,,,,,,,,,,,,,,,,60fe550044e21068e47ec6e7,61036ca9db2ac39c1624df1a,2021-07-30_13h13.25.902,Simcolourproject_2stim_asymm_v5,2020.2.10,MacIntel,60,61025ae37ef11b136ea224fe,,,,,,,,,3548,59.65533447,-27.70648193,1,0,0,response3disk,,5,4.15246582,-2.502655029,1,0,0,rectangle,4.15246582,-2.502655029,1,0,0,4.15246582,-2.502655029,1,0,0,0,76,76,17,1,,,,,,,,
,,,,,,,,,,,,,FF,,,,,,,,2.6329,,,,,,,,,,,,,,,,,,,,,,60fe550044e21068e47ec6e7,61036ca9db2ac39c1624df1a,2021-07-30_13h13.25.902,Simcolourproject_2stim_asymm_v5,2020.2.10,MacIntel,60,61025ae37ef11b136ea224fe,,,,,,,,,2746,59.6137085,39.14520264,1,0,0,response1disk,,6,-4.137451172,-6.86517334,1,0,0,rectangle,79.63867188,-26.56103516,1,0,0,12.11346436,-2.420166016,1,0,0,0,77,77,11,1,,response3disk_3,TRUE,5,5,"[140,13,257,147,56,166,78,183,249,252,323,41,187,41,232,206,7,127,278,3]",2.4997,rectangle
,,,,,,,,,,,,,FF,,,,,,,,2.2332,,,,,,,,,,,,,,,,,,,,,,60fe550044e21068e47ec6e7,61036ca9db2ac39c1624df1a,2021-07-30_13h13.25.902,Simcolourproject_2stim_asymm_v5,2020.2.10,MacIntel,60,61025ae37ef11b136ea224fe,,,,,,,,,45,39.71081543,62.31256104,1,0,0,response1disk,,7,6.238830566,-5.854888916,1,0,0,rectangle,6.238830566,-5.854888916,1,0,0,6.238830566,-5.854888916,1,0,0,0,78,78,48,1,,,,,,,,
,,,,,,,,,,,,,FF,,,,,,,,1.4337,,,,,,,,,,,,,,,,,,,,,,60fe550044e21068e47ec6e7,61036ca9db2ac39c1624df1a,2021-07-30_13h13.25.902,Simcolourproject_2stim_asymm_v5,2020.2.10,MacIntel,60,61025ae37ef11b136ea224fe,,,,,,,,,1243,57.71466064,23.46221924,1,0,0,response1disk,,6,6.817749023,4.670776367,1,0,0,rectangle,6.817749023,4.670776367,1,0,0,6.817749023,4.670776367,1,0,0,0,79,79,54,1,,,,,,,,
,,,,,,,,,,,,,FF,,,,,,,,0.7004,,,,,,,,,,,,,,,,,,,,,,60fe550044e21068e47ec6e7,61036ca9db2ac39c1624df1a,2021-07-30_13h13.25.902,Simcolourproject_2stim_asymm_v5,2020.2.10,MacIntel,60,61025ae37ef11b136ea224fe,,,,,,,,,1333,51.04956055,18.22320557,1,0,0,response1disk,,6,9.394165039,-2.802978516,1,0,0,rectangle,9.394165039,-2.802978516,1,0,0,9.394165039,-2.802978516,1,0,0,0,80,80,34,1,,,,,,,,
,,,,,,,,,,,,,FF,,,,,,,,0.9671,,,,,,,,,,,,,,,,,,,,,,60fe550044e21068e47ec6e7,61036ca9db2ac39c1624df1a,2021-07-30_13h13.25.902,Simcolourproject_2stim_asymm_v5,2020.2.10,MacIntel,60,61025ae37ef11b136ea224fe,,,,,,,,,3112,38.46594238,-26.82745361,1,0,0,response3disk,,5,4.135314941,-3.63873291,1,0,0,rectangle,4.135314941,-3.63873291,1,0,0,4.135314941,-3.63873291,1,0,0,0,81,81,5,1,,,,,,,,
,,,,,,,,,,,,,FF,,,,,,,,1.3501,,,,,,,,,,,,,,,,,,,,,,60fe550044e21068e47ec6e7,61036ca9db2ac39c1624df1a,2021-07-30_13h13.25.902,Simcolourproject_2stim_asymm_v5,2020.2.10,MacIntel,60,61025ae37ef11b136ea224fe,,,,,,,,,4083,-76.90893555,-32.35784912,1,0,0,response5disk,,2,-12.97058105,1.064819336,1,0,0,rectangle,-12.97058105,1.064819336,1,0,0,-12.97058105,1.064819336,1,0,0,0,82,82,42,1,,,,,,,,
,,,,,,,,,,,,,FF,,,,,,,,1.6492,,,,,,,,,,,,,,,,,,,,,,60fe550044e21068e47ec6e7,61036ca9db2ac39c1624df1a,2021-07-30_13h13.25.902,Simcolourproject_2stim_asymm_v5,2020.2.10,MacIntel,60,61025ae37ef11b136ea224fe,,,,,,,,,1072,-35.01904297,-70.88000488,1,0,0,response5disk,,3,4.627868652,10.4887085,1,0,0,rectangle,4.627868652,10.4887085,1,0,0,4.627868652,10.4887085,1,0,0,0,83,83,96,1,,,,,,,,
,,,,,,,,,,,,,FF,,,,,,,,1.15,,,,,,,,,,,,,,,,,,,,,,60fe550044e21068e47ec6e7,61036ca9db2ac39c1624df1a,2021-07-30_13h13.25.902,Simcolourproject_2stim_asymm_v5,2020.2.10,MacIntel,60,61025ae37ef11b136ea224fe,,,,,,,,,4267,-27.496521,-63.86914063,1,0,0,response5disk,,3,-4.200622559,-7.10848999,1,0,0,rectangle,-4.200622559,-7.10848999,1,0,0,-4.200622559,-7.10848999,1,0,0,0,84,84,153,1,,,,,,,,
,,,,,,,,,,,,,FF,,,,,,,,0.9667,,,,,,,,,,,,,,,,,,,,,,60fe550044e21068e47ec6e7,61036ca9db2ac39c1624df1a,2021-07-30_13h13.25.902,Simcolourproject_2stim_asymm_v5,2020.2.10,MacIntel,60,61025ae37ef11b136ea224fe,,,,,,,,,3964,29.28479004,59.51760864,1,0,0,response1disk,,7,9.40057373,9.090332031,1,0,0,rectangle,9.40057373,9.090332031,1,0,0,9.40057373,9.090332031,1,0,0,0,85,85,4,1,,,,,,,,
,,,,,,,,,,,,,FF,,,,,,,,1.383,,,,,,,,,,,,,,,,,,,,,,60fe550044e21068e47ec6e7,61036ca9db2ac39c1624df1a,2021-07-30_13h13.25.902,Simcolourproject_2stim_asymm_v5,2020.2.10,MacIntel,60,61025ae37ef11b136ea224fe,,,,,,,,,2354,31.57788086,68.3638916,1,0,0,response1disk,,7,-8.065979004,-1.44430542,1,0,0,rectangle,-8.065979004,-1.44430542,1,0,0,-8.065979004,-1.44430542,1,0,0,0,86,86,140,1,,,,,,,,
,,,,,,,,,,,,,FF,,,,,,,,1.0177,,,,,,,,,,,,,,,,,,,,,,60fe550044e21068e47ec6e7,61036ca9db2ac39c1624df1a,2021-07-30_13h13.25.902,Simcolourproject_2stim_asymm_v5,2020.2.10,MacIntel,60,61025ae37ef11b136ea224fe,,,,,,,,,20,66.77209473,29.70254517,1,0,0,response1disk,,6,3.679443359,9.77835083,1,0,0,rectangle,3.679443359,9.77835083,1,0,0,3.679443359,9.77835083,1,0,0,0,87,87,75,1,,,,,,,,
,,,,,,,,,,,,,FF,,,,,,,,1.6836,,,,,,,,,,,,,,,,,,,,,,60fe550044e21068e47ec6e7,61036ca9db2ac39c1624df1a,2021-07-30_13h13.25.902,Simcolourproject_2stim_asymm_v5,2020.2.10,MacIntel,60,61025ae37ef11b136ea224fe,,,,,,,,,314,73.67999268,28.17077637,1,0,0,response1disk,,6,5.110107422,-6.520568848,1,0,0,rectangle,5.110107422,-6.520568848,1,0,0,5.110107422,-6.520568848,1,0,0,0,88,88,23,1,,,,,,,,
,,,,,,,,,,,,,FF,,,,,,,,1.0827,,,,,,,,,,,,,,,,,,,,,,60fe550044e21068e47ec6e7,61036ca9db2ac39c1624df1a,2021-07-30_13h13.25.902,Simcolourproject_2stim_asymm_v5,2020.2.10,MacIntel,60,61025ae37ef11b136ea224fe,,,,,,,,,858,62.50402832,29.60186768,1,0,0,response1disk,,6,5.45715332,3.779907227,1,0,0,rectangle,5.45715332,3.779907227,1,0,0,5.45715332,3.779907227,1,0,0,0,89,89,119,1,,,,,,,,
,,,,,,,,,,,,,FF,,,,,,,,0.817,,,,,,,,,,,,,,,,,,,,,,60fe550044e21068e47ec6e7,61036ca9db2ac39c1624df1a,2021-07-30_13h13.25.902,Simcolourproject_2stim_asymm_v5,2020.2.10,MacIntel,60,61025ae37ef11b136ea224fe,,,,,,,,,487,52.54541016,-37.36230469,1,0,0,response3disk,,5,3.18145752,-3.456115723,1,0,0,rectangle,3.18145752,-3.456115723,1,0,0,3.18145752,-3.456115723,1,0,0,0,90,90,107,1,,,,,,,,
,,,,,,,,,,,,,FF,,,,,,,,0.9508,,,,,,,,,,,,,,,,,,,,,,60fe550044e21068e47ec6e7,61036ca9db2ac39c1624df1a,2021-07-30_13h13.25.902,Simcolourproject_2stim_asymm_v5,2020.2.10,MacIntel,60,61025ae37ef11b136ea224fe,,,,,,,,,2612,-61.5657959,-21.23501587,1,0,0,response5disk,,2,-6.979614258,-11.29229736,1,0,0,rectangle,-6.979614258,-11.29229736,1,0,0,-6.979614258,-11.29229736,1,0,0,0,91,91,51,1,,,,,,,,
,,,,,,,,,,,,,FF,,,,,,,,1.2165,,,,,,,,,,,,,,,,,,,,,,60fe550044e21068e47ec6e7,61036ca9db2ac39c1624df1a,2021-07-30_13h13.25.902,Simcolourproject_2stim_asymm_v5,2020.2.10,MacIntel,60,61025ae37ef11b136ea224fe,,,,,,,,,1851,-71.72833252,-43.1473999,1,0,0,response5disk,,2,-3.708862305,-0.7449646,1,0,0,rectangle,-3.708862305,-0.7449646,1,0,0,-3.708862305,-0.7449646,1,0,0,0,92,92,29,1,,,,,,,,
,,,,,,,,,,,,,FF,,,,,,,,1.1833,,,,,,,,,,,,,,,,,,,,,,60fe550044e21068e47ec6e7,61036ca9db2ac39c1624df1a,2021-07-30_13h13.25.902,Simcolourproject_2stim_asymm_v5,2020.2.10,MacIntel,60,61025ae37ef11b136ea224fe,,,,,,,,,2456,59.52642822,-33.41946411,1,0,0,response3disk,,5,11.39630127,-2.006347656,1,0,0,rectangle,11.39630127,-2.006347656,1,0,0,11.39630127,-2.006347656,1,0,0,0,93,93,108,1,,,,,,,,
,,,,,,,,,,,,,FF,,,,,,,,1.3501,,,,,,,,,,,,,,,,,,,,,,60fe550044e21068e47ec6e7,61036ca9db2ac39c1624df1a,2021-07-30_13h13.25.902,Simcolourproject_2stim_asymm_v5,2020.2.10,MacIntel,60,61025ae37ef11b136ea224fe,,,,,,,,,1418,33.31091309,54.62567139,1,0,0,response1disk,,7,1.733642578,-3.12020874,1,0,0,rectangle,1.733642578,-3.12020874,1,0,0,1.733642578,-3.12020874,1,0,0,0,94,94,112,1,,,,,,,,
,,,,,,,,,,,,,FF,,,,,,,,1.0836,,,,,,,,,,,,,,,,,,,,,,60fe550044e21068e47ec6e7,61036ca9db2ac39c1624df1a,2021-07-30_13h13.25.902,Simcolourproject_2stim_asymm_v5,2020.2.10,MacIntel,60,61025ae37ef11b136ea224fe,,,,,,,,,1118,-37.5880127,-74.7958374,1,0,0,response5disk,,3,-12.76574707,-8.493347168,1,0,0,rectangle,-12.76574707,-8.493347168,1,0,0,-12.76574707,-8.493347168,1,0,0,0,95,95,22,1,,,,,,,,
,,,,,,,,,,,,,FF,,,,,,,,2.4333,,,,,,,,,,,,,,,,,,,,,,60fe550044e21068e47ec6e7,61036ca9db2ac39c1624df1a,2021-07-30_13h13.25.902,Simcolourproject_2stim_asymm_v5,2020.2.10,MacIntel,60,61025ae37ef11b136ea224fe,,,,,,,,,2075,-29.74255371,-60.70648193,1,0,0,response5disk,,3,-6.259521484,8.716064453,1,0,0,rectangle,-6.259521484,8.716064453,1,0,0,-6.259521484,8.716064453,1,0,0,0,96,96,95,1,,,,,,,,
,,,,,,,,,,,,,FF,,,,,,,,1.2007,,,,,,,,,,,,,,,,,,,,,,60fe550044e21068e47ec6e7,61036ca9db2ac39c1624df1a,2021-07-30_13h13.25.902,Simcolourproject_2stim_asymm_v5,2020.2.10,MacIntel,60,61025ae37ef11b136ea224fe,,,,,,,,,113,39.97894287,-64.68054199,1,0,0,response3disk,,4,13.38336182,-0.325561523,1,0,0,rectangle,13.38336182,-0.325561523,1,0,0,13.38336182,-0.325561523,1,0,0,0,97,97,79,1,,,,,,,,
,,,,,,,,,,,,,FF,,,,,,,,0.7667,,,,,,,,,,,,,,,,,,,,,,60fe550044e21068e47ec6e7,61036ca9db2ac39c1624df1a,2021-07-30_13h13.25.902,Simcolourproject_2stim_asymm_v5,2020.2.10,MacIntel,60,61025ae37ef11b136ea224fe,,,,,,,,,4070,35.50933838,55.68399048,1,0,0,response1disk,,7,12.35076904,14.03717041,1,0,0,rectangle,12.35076904,14.03717041,1,0,0,12.35076904,14.03717041,1,0,0,0,98,98,66,1,,,,,,,,
,,,,,,,,,,,,,FF,,,,,,,,1.1665,,,,,,,,,,,,,,,,,,,,,,60fe550044e21068e47ec6e7,61036ca9db2ac39c1624df1a,2021-07-30_13h13.25.902,Simcolourproject_2stim_asymm_v5,2020.2.10,MacIntel,60,61025ae37ef11b136ea224fe,,,,,,,,,3550,67.60089111,30.5791626,1,0,0,response1disk,,6,-0.920288086,4.264343262,1,0,0,rectangle,-0.920288086,4.264343262,1,0,0,-0.920288086,4.264343262,1,0,0,0,99,99,142,1,,,,,,,,
,,,,,,,,,,,,,FF,,,,,,,,0.9158,,,,,,,,,,,,,,,,,,,,,,60fe550044e21068e47ec6e7,61036ca9db2ac39c1624df1a,2021-07-30_13h13.25.902,Simcolourproject_2stim_asymm_v5,2020.2.10,MacIntel,60,61025ae37ef11b136ea224fe,,,,,,,,,3280,55.48083496,-26.1708374,1,0,0,response3disk,,5,18.25030518,-5.942932129,1,0,0,rectangle,18.25030518,-5.942932129,1,0,0,18.25030518,-5.942932129,1,0,0,0,100,100,82,1,,,,,,,,
,,,,,,,,,,,,,FF,,,,,,,,0.7172,,,,,,,,,,,,,,,,,,,,,,60fe550044e21068e47ec6e7,61036ca9db2ac39c1624df1a,2021-07-30_13h13.25.902,Simcolourproject_2stim_asymm_v5,2020.2.10,MacIntel,60,61025ae37ef11b136ea224fe,,,,,,,,,2469,63.55480957,39.97369385,1,0,0,response1disk,,6,2.534057617,-0.001983643,1,0,0,rectangle,2.534057617,-0.001983643,1,0,0,2.534057617,-0.001983643,1,0,0,0,101,101,100,1,,,,,,,,
,,,,,,,,,,,,,FF,,,,,,,,1.9498,,,,,,,,,,,,,,,,,,,,,,60fe550044e21068e47ec6e7,61036ca9db2ac39c1624df1a,2021-07-30_13h13.25.902,Simcolourproject_2stim_asymm_v5,2020.2.10,MacIntel,60,61025ae37ef11b136ea224fe,,,,,,,,,359,69.9453125,25.02972412,1,0,0,response1disk,,6,5.117797852,8.94732666,1,0,0,rectangle,5.117797852,8.94732666,1,0,0,5.117797852,8.94732666,1,0,0,0,102,102,7,1,,,,,,,,
,,,,,,,,,,,,,FF,,,,,,,,1.0331,,,,,,,,,,,,,,,,,,,,,,60fe550044e21068e47ec6e7,61036ca9db2ac39c1624df1a,2021-07-30_13h13.25.902,Simcolourproject_2stim_asymm_v5,2020.2.10,MacIntel,60,61025ae37ef11b136ea224fe,,,,,,,,,1612,-33.94165039,-69.23144531,1,0,0,response5disk,,3,-4.424133301,4.84274292,1,0,0,rectangle,-4.424133301,4.84274292,1,0,0,-4.424133301,4.84274292,1,0,0,0,103,103,76,1,,,,,,,,
,,,,,,,,,,,,,FF,,,,,,,,3.1333,,,,,,,,,,,,,,,,,,,,,,60fe550044e21068e47ec6e7,61036ca9db2ac39c1624df1a,2021-07-30_13h13.25.902,Simcolourproject_2stim_asymm_v5,2020.2.10,MacIntel,60,61025ae37ef11b136ea224fe,,,,,,,,,3603,65.07196045,-46.13983154,1,0,0,response3disk,,5,17.2824707,-3.018890381,1,0,0,rectangle,17.2824707,-3.018890381,1,0,0,17.2824707,-3.018890381,1,0,0,0,104,104,128,1,,,,,,,,
,,,,,,,,,,,,,FF,,,,,,,,1.0509,,,,,,,,,,,,,,,,,,,,,,60fe550044e21068e47ec6e7,61036ca9db2ac39c1624df1a,2021-07-30_13h13.25.902,Simcolourproject_2stim_asymm_v5,2020.2.10,MacIntel,60,61025ae37ef11b136ea224fe,,,,,,,,,1671,-65.26324463,-34.28759766,1,0,0,response5disk,,2,-1.317932129,3.551940918,1,0,0,rectangle,-1.317932129,3.551940918,1,0,0,-1.317932129,3.551940918,1,0,0,0,105,105,67,1,,,,,,,,
,,,,,,,,,,,,,FF,,,,,,,,0.8,,,,,,,,,,,,,,,,,,,,,,60fe550044e21068e47ec6e7,61036ca9db2ac39c1624df1a,2021-07-30_13h13.25.902,Simcolourproject_2stim_asymm_v5,2020.2.10,MacIntel,60,61025ae37ef11b136ea224fe,,,,,,,,,227,57.74401855,-28.25616455,1,0,0,response3disk,,5,17.85418701,-2.595581055,1,0,0,rectangle,17.85418701,-2.595581055,1,0,0,17.85418701,-2.595581055,1,0,0,0,106,106,78,1,,,,,,,,
,,,,,,,,,,,,,FF,,,,,,,,0.8507,,,,,,,,,,,,,,,,,,,,,,60fe550044e21068e47ec6e7,61036ca9db2ac39c1624df1a,2021-07-30_13h13.25.902,Simcolourproject_2stim_asymm_v5,2020.2.10,MacIntel,60,61025ae37ef11b136ea224fe,,,,,,,,,1967,-67.60778809,-34.25036621,1,0,0,response5disk,,2,-0.862915039,-3.581848145,1,0,0,rectangle,-0.862915039,-3.581848145,1,0,0,-0.862915039,-3.581848145,1,0,0,0,107,107,40,1,,,,,,,,
,,,,,,,,,,,,,FF,,,,,,,,0.6163,,,,,,,,,,,,,,,,,,,,,,60fe550044e21068e47ec6e7,61036ca9db2ac39c1624df1a,2021-07-30_13h13.25.902,Simcolourproject_2stim_asymm_v5,2020.2.10,MacIntel,60,61025ae37ef11b136ea224fe,,,,,,,,,110,62.00799561,-28.71572876,1,0,0,response3disk,,5,26.85577393,-6.274536133,1,0,0,rectangle,26.85577393,-6.274536133,1,0,0,26.85577393,-6.274536133,1,0,0,0,108,108,59,1,,,,,,,,
,,,,,,,,,,,,,FF,,,,,,,,1.3823,,,,,,,,,,,,,,,,,,,,,,60fe550044e21068e47ec6e7,61036ca9db2ac39c1624df1a,2021-07-30_13h13.25.902,Simcolourproject_2stim_asymm_v5,2020.2.10,MacIntel,60,61025ae37ef11b136ea224fe,,,,,,,,,2288,49.37567139,37.48672485,1,0,0,response1disk,,6,-2.884643555,-5.969116211,1,0,0,rectangle,-2.884643555,-5.969116211,1,0,0,-2.884643555,-5.969116211,1,0,0,0,109,109,146,1,,,,,,,,
,,,,,,,,,,,,,FF,,,,,,,,1.2505,,,,,,,,,,,,,,,,,,,,,,60fe550044e21068e47ec6e7,61036ca9db2ac39c1624df1a,2021-07-30_13h13.25.902,Simcolourproject_2stim_asymm_v5,2020.2.10,MacIntel,60,61025ae37ef11b136ea224fe,,,,,,,,,3458,29.26269531,63.14611816,1,0,0,response1disk,,7,10.87713623,2.417419434,1,0,0,rectangle,10.87713623,2.417419434,1,0,0,10.87713623,2.417419434,1,0,0,0,110,110,44,1,,,,,,,,
,,,,,,,,,,,,,FF,,,,,,,,4.9498,,,,,,,,,,,,,,,,,,,,,,60fe550044e21068e47ec6e7,61036ca9db2ac39c1624df1a,2021-07-30_13h13.25.902,Simcolourproject_2stim_asymm_v5,2020.2.10,MacIntel,60,61025ae37ef11b136ea224fe,,,,,,,,,3120,59.21466064,30.67254639,1,0,0,response1disk,,6,-4.397766113,0.95916748,1,0,0,rectangle,-4.397766113,0.95916748,1,0,0,-4.397766113,0.95916748,1,0,0,0,111,111,6,1,,,,,,,,
,,,,,,,,,,,,,FF,,,,,,,,1.251,,,,,,,,,,,,,,,,,,,,,,60fe550044e21068e47ec6e7,61036ca9db2ac39c1624df1a,2021-07-30_13h13.25.902,Simcolourproject_2stim_asymm_v5,2020.2.10,MacIntel,60,61025ae37ef11b136ea224fe,,,,,,,,,1399,73.8012085,29.85107422,1,0,0,response1disk,,6,10.41314697,-3.104431152,1,0,0,rectangle,10.41314697,-3.104431152,1,0,0,10.41314697,-3.104431152,1,0,0,0,112,112,50,1,,,,,,,,
,,,,,,,,,,,,,FF,,,,,,,,3.4665,,,,,,,,,,,,,,,,,,,,,,60fe550044e21068e47ec6e7,61036ca9db2ac39c1624df1a,2021-07-30_13h13.25.902,Simcolourproject_2stim_asymm_v5,2020.2.10,MacIntel,60,61025ae37ef11b136ea224fe,,,,,,,,,2977,73.02203369,28.85864258,1,0,0,response1disk,,6,-8.009338379,-7.559234619,1,0,0,rectangle,-8.009338379,-7.559234619,1,0,0,-8.009338379,-7.559234619,1,0,0,0,113,113,74,1,,,,,,,,
,,,,,,,,,,,,,FF,,,,,,,,0.9838,,,,,,,,,,,,,,,,,,,,,,60fe550044e21068e47ec6e7,61036ca9db2ac39c1624df1a,2021-07-30_13h13.25.902,Simcolourproject_2stim_asymm_v5,2020.2.10,MacIntel,60,61025ae37ef11b136ea224fe,,,,,,,,,184,17.94567871,45.64559937,1,0,0,response1disk,,7,7.946044922,0.372741699,1,0,0,rectangle,7.946044922,0.372741699,1,0,0,7.946044922,0.372741699,1,0,0,0,114,114,111,1,,,,,,,,
,,,,,,,,,,,,,FF,,,,,,,,1.9669,,,,,,,,,,,,,,,,,,,,,,60fe550044e21068e47ec6e7,61036ca9db2ac39c1624df1a,2021-07-30_13h13.25.902,Simcolourproject_2stim_asymm_v5,2020.2.10,MacIntel,60,61025ae37ef11b136ea224fe,,,,,,,,,3911,-47.84716797,48.23153687,1,0,0,response7disk,,0,29.61413574,-1.359039307,1,0,0,rectangle,29.61413574,-1.359039307,1,0,0,29.61413574,-1.359039307,1,0,0,0,115,115,122,1,,,,,,,,
,,,,,,,,,,,,,FF,,,,,,,,1.0169,,,,,,,,,,,,,,,,,,,,,,60fe550044e21068e47ec6e7,61036ca9db2ac39c1624df1a,2021-07-30_13h13.25.902,Simcolourproject_2stim_asymm_v5,2020.2.10,MacIntel,60,61025ae37ef11b136ea224fe,,,,,,,,,1447,-42.27923584,63.86676025,1,0,0,response7disk,,0,-5.714050293,2.105895996,1,0,0,rectangle,-5.714050293,2.105895996,1,0,0,-5.714050293,2.105895996,1,0,0,0,116,116,28,1,,,,,,,,
,,,,,,,,,,,,,FF,,,,,,,,2.1341,,,,,,,,,,,,,,,,,,,,,,60fe550044e21068e47ec6e7,61036ca9db2ac39c1624df1a,2021-07-30_13h13.25.902,Simcolourproject_2stim_asymm_v5,2020.2.10,MacIntel,60,61025ae37ef11b136ea224fe,,,,,,,,,2873,43.1237793,63.97491455,1,0,0,response1disk,,7,14.82366943,6.993469238,1,0,0,rectangle,14.82366943,6.993469238,1,0,0,14.82366943,6.993469238,1,0,0,0,117,117,26,1,,,,,,,,
,,,,,,,,,,,,,FF,,,,,,,,1.2998,,,,,,,,,,,,,,,,,,,,,,60fe550044e21068e47ec6e7,61036ca9db2ac39c1624df1a,2021-07-30_13h13.25.902,Simcolourproject_2stim_asymm_v5,2020.2.10,MacIntel,60,61025ae37ef11b136ea224fe,,,,,,,,,1541,-22.4309082,-67.22644043,1,0,0,response5disk,,3,-3.494140625,-1.134857178,1,0,0,rectangle,-3.494140625,-1.134857178,1,0,0,-3.494140625,-1.134857178,1,0,0,0,118,118,102,1,,,,,,,,
,,,,,,,,,,,,,FF,,,,,,,,1.1667,,,,,,,,,,,,,,,,,,,,,,60fe550044e21068e47ec6e7,61036ca9db2ac39c1624df1a,2021-07-30_13h13.25.902,Simcolourproject_2stim_asymm_v5,2020.2.10,MacIntel,60,61025ae37ef11b136ea224fe,,,,,,,,,3541,35.41796875,61.07897949,1,0,0,response1disk,,7,15.80792236,3.445373535,1,0,0,rectangle,15.80792236,3.445373535,1,0,0,15.80792236,3.445373535,1,0,0,0,119,119,24,1,,,,,,,,
,,,,,,,,,,,,,FF,,,,,,,,1.0502,,,,,,,,,,,,,,,,,,,,,,60fe550044e21068e47ec6e7,61036ca9db2ac39c1624df1a,2021-07-30_13h13.25.902,Simcolourproject_2stim_asymm_v5,2020.2.10,MacIntel,60,61025ae37ef11b136ea224fe,,,,,,,,,159,49.6975708,-32.79400635,1,0,0,response3disk,,5,-14.11181641,9.256988525,1,0,0,rectangle,-14.11181641,9.256988525,1,0,0,-14.11181641,9.256988525,1,0,0,0,120,120,158,1,,,,,,,,
,,,,,,,,,,,,,FF,,,,,,,,1.8007,,,,,,,,,,,,,,,,,,,,,,60fe550044e21068e47ec6e7,61036ca9db2ac39c1624df1a,2021-07-30_13h13.25.902,Simcolourproject_2stim_asymm_v5,2020.2.10,MacIntel,60,61025ae37ef11b136ea224fe,,,,,,,,,2478,20.45800781,75.25836182,1,0,0,response1disk,,7,14.35797119,1.477661133,1,0,0,rectangle,14.35797119,1.477661133,1,0,0,14.35797119,1.477661133,1,0,0,0,121,121,93,1,,,,,,,,
,,,,,,,,,,,,,FF,,,,,,,,1.9173,,,,,,,,,,,,,,,,,,,,,,60fe550044e21068e47ec6e7,61036ca9db2ac39c1624df1a,2021-07-30_13h13.25.902,Simcolourproject_2stim_asymm_v5,2020.2.10,MacIntel,60,61025ae37ef11b136ea224fe,,,,,,,,,1795,34.53894043,-60.98623657,1,0,0,response3disk,,4,11.81433105,-13.59844971,1,0,0,rectangle,11.81433105,-13.59844971,1,0,0,11.81433105,-13.59844971,1,0,0,0,122,122,47,1,,,,,,,,
,,,,,,,,,,,,,FF,,,,,,,,1.1677,,,,,,,,,,,,,,,,,,,,,,60fe550044e21068e47ec6e7,61036ca9db2ac39c1624df1a,2021-07-30_13h13.25.902,Simcolourproject_2stim_asymm_v5,2020.2.10,MacIntel,60,61025ae37ef11b136ea224fe,,,,,,,,,1222,-36.25805664,-63.71246338,1,0,0,response5disk,,3,-5.406188965,0.75,1,0,0,rectangle,-5.406188965,0.75,1,0,0,-5.406188965,0.75,1,0,0,0,123,123,136,1,,,,,,,,
,,,,,,,,,,,,,FF,,,,,,,,0.8841,,,,,,,,,,,,,,,,,,,,,,60fe550044e21068e47ec6e7,61036ca9db2ac39c1624df1a,2021-07-30_13h13.25.902,Simcolourproject_2stim_asymm_v5,2020.2.10,MacIntel,60,61025ae37ef11b136ea224fe,,,,,,,,,3371,79.57568359,40.17608643,1,0,0,response1disk,,6,4.795349121,9.696411133,1,0,0,rectangle,4.795349121,9.696411133,1,0,0,4.795349121,9.696411133,1,0,0,0,124,124,55,1,,,,,,,,
,,,,,,,,,,,,,FF,,,,,,,,0.7673,,,,,,,,,,,,,,,,,,,,,,60fe550044e21068e47ec6e7,61036ca9db2ac39c1624df1a,2021-07-30_13h13.25.902,Simcolourproject_2stim_asymm_v5,2020.2.10,MacIntel,60,61025ae37ef11b136ea224fe,,,,,,,,,1223,-76.09423828,-39.57974243,1,0,0,response5disk,,2,-2.412536621,-0.944274902,1,0,0,rectangle,-2.412536621,-0.944274902,1,0,0,-2.412536621,-0.944274902,1,0,0,0,125,125,113,1,,,,,,,,
,,,,,,,,,,,,,FF,,,,,,,,2.1178,,,,,,,,,,,,,,,,,,,,,,60fe550044e21068e47ec6e7,61036ca9db2ac39c1624df1a,2021-07-30_13h13.25.902,Simcolourproject_2stim_asymm_v5,2020.2.10,MacIntel,60,61025ae37ef11b136ea224fe,,,,,,,,,4036,-63.18945313,-39.56622314,1,0,0,response5disk,,2,3.115722656,-5.52722168,1,0,0,rectangle,-28.16711426,99.43121338,1,0,0,-3.202209473,5.213165283,1,0,0,0,126,126,62,1,,response7disk_3,TRUE,0,0,"[140,13,257,147,56,166,78,183,249,252,323,41,187,41,232,206,7,127,278,3]",1.6836,rectangle
,,,,,,,,,,,,,FF,,,,,,,,0.9346,,,,,,,,,,,,,,,,,,,,,,60fe550044e21068e47ec6e7,61036ca9db2ac39c1624df1a,2021-07-30_13h13.25.902,Simcolourproject_2stim_asymm_v5,2020.2.10,MacIntel,60,61025ae37ef11b136ea224fe,,,,,,,,,4293,-31.26422119,80.78491211,1,0,0,response7disk,,0,-1.817993164,6.205993652,1,0,0,rectangle,-1.817993164,6.205993652,1,0,0,-1.817993164,6.205993652,1,0,0,0,127,127,104,1,,,,,,,,
,,,,,,,,,,,,,FF,,,,,,,,1.3678,,,,,,,,,,,,,,,,,,,,,,60fe550044e21068e47ec6e7,61036ca9db2ac39c1624df1a,2021-07-30_13h13.25.902,Simcolourproject_2stim_asymm_v5,2020.2.10,MacIntel,60,61025ae37ef11b136ea224fe,,,,,,,,,71,-24.76959229,-59.77172852,1,0,0,response5disk,,3,-2.651306152,7.3828125,1,0,0,rectangle,-2.651306152,7.3828125,1,0,0,-2.651306152,7.3828125,1,0,0,0,128,128,73,1,,,,,,,,
,,,,,,,,,,,,,FF,,,,,,,,1.0766,,,,,,,,,,,,,,,,,,,,,,60fe550044e21068e47ec6e7,61036ca9db2ac39c1624df1a,2021-07-30_13h13.25.902,Simcolourproject_2stim_asymm_v5,2020.2.10,MacIntel,60,61025ae37ef11b136ea224fe,,,,,,,,,997,29.24438477,-44.84240723,1,0,0,response3disk,,4,16.11065674,1.948455811,1,0,0,rectangle,16.11065674,1.948455811,1,0,0,16.11065674,1.948455811,1,0,0,0,129,129,3,1,,,,,,,,
,,,,,,,,,,,,,FF,,,,,,,,1.1895,,,,,,,,,,,,,,,,,,,,,,60fe550044e21068e47ec6e7,61036ca9db2ac39c1624df1a,2021-07-30_13h13.25.902,Simcolourproject_2stim_asymm_v5,2020.2.10,MacIntel,60,61025ae37ef11b136ea224fe,,,,,,,,,948,56.65008545,24.25756836,1,0,0,response1disk,,6,-3.641784668,-14.17300415,1,0,0,rectangle,-3.641784668,-14.17300415,1,0,0,-3.641784668,-14.17300415,1,0,0,0,130,130,68,1,,,,,,,,
,,,,,,,,,,,,,FF,,,,,,,,0.7729,,,,,,,,,,,,,,,,,,,,,,60fe550044e21068e47ec6e7,61036ca9db2ac39c1624df1a,2021-07-30_13h13.25.902,Simcolourproject_2stim_asymm_v5,2020.2.10,MacIntel,60,61025ae37ef11b136ea224fe,,,,,,,,,1512,66.22271729,28.59442139,1,0,0,response1disk,,6,-3.585021973,-11.48791504,1,0,0,rectangle,-3.585021973,-11.48791504,1,0,0,-3.585021973,-11.48791504,1,0,0,0,131,131,43,1,,,,,,,,
,,,,,,,,,,,,,FF,,,,,,,,2.0637,,,,,,,,,,,,,,,,,,,,,,60fe550044e21068e47ec6e7,61036ca9db2ac39c1624df1a,2021-07-30_13h13.25.902,Simcolourproject_2stim_asymm_v5,2020.2.10,MacIntel,60,61025ae37ef11b136ea224fe,,,,,,,,,3175,61.8157959,29.77905273,1,0,0,response1disk,,6,12.49169922,-1.178894043,1,0,0,rectangle,12.49169922,-1.178894043,1,0,0,12.49169922,-1.178894043,1,0,0,0,132,132,101,1,,,,,,,,
,,,,,,,,,,,,,FF,,,,,,,,0.9993,,,,,,,,,,,,,,,,,,,,,,60fe550044e21068e47ec6e7,61036ca9db2ac39c1624df1a,2021-07-30_13h13.25.902,Simcolourproject_2stim_asymm_v5,2020.2.10,MacIntel,60,61025ae37ef11b136ea224fe,,,,,,,,,1705,-34.76599121,-67.34967041,1,0,0,response5disk,,3,0.913391113,4.072387695,1,0,0,rectangle,0.913391113,4.072387695,1,0,0,0.913391113,4.072387695,1,0,0,0,133,133,20,1,,,,,,,,
,,,,,,,,,,,,,FF,,,,,,,,1.4328,,,,,,,,,,,,,,,,,,,,,,60fe550044e21068e47ec6e7,61036ca9db2ac39c1624df1a,2021-07-30_13h13.25.902,Simcolourproject_2stim_asymm_v5,2020.2.10,MacIntel,60,61025ae37ef11b136ea224fe,,,,,,,,,376,50.72302246,-62.05438232,1,0,0,response3disk,,4,18.70178223,0.599121094,1,0,0,rectangle,18.70178223,0.599121094,1,0,0,18.70178223,0.599121094,1,0,0,0,134,134,144,1,,,,,,,,
,,,,,,,,,,,,,FF,,,,,,,,0.8504,,,,,,,,,,,,,,,,,,,,,,60fe550044e21068e47ec6e7,61036ca9db2ac39c1624df1a,2021-07-30_13h13.25.902,Simcolourproject_2stim_asymm_v5,2020.2.10,MacIntel,60,61025ae37ef11b136ea224fe,,,,,,,,,4034,45.61755371,-88.70861816,1,0,0,response3disk,,4,5.379699707,-1.218078613,1,0,0,rectangle,5.379699707,-1.218078613,1,0,0,5.379699707,-1.218078613,1,0,0,0,135,135,53,1,,,,,,,,
,,,,,,,,,,,,,FF,,,,,,,,1.2507,,,,,,,,,,,,,,,,,,,,,,60fe550044e21068e47ec6e7,61036ca9db2ac39c1624df1a,2021-07-30_13h13.25.902,Simcolourproject_2stim_asymm_v5,2020.2.10,MacIntel,60,61025ae37ef11b136ea224fe,,,,,,,,,424,40.82104492,-61.88967896,1,0,0,response3disk,,4,17.56427002,0.662200928,1,0,0,rectangle,17.56427002,0.662200928,1,0,0,17.56427002,0.662200928,1,0,0,0,136,136,149,1,,,,,,,,
,,,,,,,,,,,,,FF,,,,,,,,1.5508,,,,,,,,,,,,,,,,,,,,,,60fe550044e21068e47ec6e7,61036ca9db2ac39c1624df1a,2021-07-30_13h13.25.902,Simcolourproject_2stim_asymm_v5,2020.2.10,MacIntel,60,61025ae37ef11b136ea224fe,,,,,,,,,2275,35.27368164,-70.78222656,1,0,0,response3disk,,4,17.61859131,-2.475860596,1,0,0,rectangle,17.61859131,-2.475860596,1,0,0,17.61859131,-2.475860596,1,0,0,0,137,137,124,1,,,,,,,,
,,,,,,,,,,,,,FF,,,,,,,,1.9166,,,,,,,,,,,,,,,,,,,,,,60fe550044e21068e47ec6e7,61036ca9db2ac39c1624df1a,2021-07-30_13h13.25.902,Simcolourproject_2stim_asymm_v5,2020.2.10,MacIntel,60,61025ae37ef11b136ea224fe,,,,,,,,,935,73.64282227,30.12207031,1,0,0,response1disk,,6,10.05047607,3.129577637,1,0,0,rectangle,10.05047607,3.129577637,1,0,0,10.05047607,3.129577637,1,0,0,0,138,138,120,1,,,,,,,,
,,,,,,,,,,,,,FF,,,,,,,,1.5173,,,,,,,,,,,,,,,,,,,,,,60fe550044e21068e47ec6e7,61036ca9db2ac39c1624df1a,2021-07-30_13h13.25.902,Simcolourproject_2stim_asymm_v5,2020.2.10,MacIntel,60,61025ae37ef11b136ea224fe,,,,,,,,,1466,-81.9699707,-29.07177734,1,0,0,response5disk,,2,-21.01574707,-2.856811523,1,0,0,rectangle,-57.01708984,48.8772583,1,0,0,-11.19421387,2.187744141,1,0,0,0,139,139,110,1,,response7disk_3,TRUE,1,1,"[140,13,257,147,56,166,78,183,249,252,323,41,187,41,232,206,7,127,278,3]",1.4837,rectangle
,,,,,,,,,,,,,FF,,,,,,,,3.5503,,,,,,,,,,,,,,,,,,,,,,60fe550044e21068e47ec6e7,61036ca9db2ac39c1624df1a,2021-07-30_13h13.25.902,Simcolourproject_2stim_asymm_v5,2020.2.10,MacIntel,60,61025ae37ef11b136ea224fe,,,,,,,,,590,66.23443604,42.27001953,1,0,0,response1disk,,6,-3.761779785,-10.32666016,1,0,0,rectangle,-3.761779785,-10.32666016,1,0,0,-3.761779785,-10.32666016,1,0,0,0,140,140,133,1,,,,,,,,
,,,,,,,,,,,,,FF,,,,,,,,0.9506,,,,,,,,,,,,,,,,,,,,,,60fe550044e21068e47ec6e7,61036ca9db2ac39c1624df1a,2021-07-30_13h13.25.902,Simcolourproject_2stim_asymm_v5,2020.2.10,MacIntel,60,61025ae37ef11b136ea224fe,,,,,,,,,217,59.6784668,32.54244995,1,0,0,response1disk,,6,12.96813965,6.664215088,1,0,0,rectangle,12.96813965,6.664215088,1,0,0,12.96813965,6.664215088,1,0,0,0,141,141,150,1,,,,,,,,
,,,,,,,,,,,,,FF,,,,,,,,1.2274,,,,,,,,,,,,,,,,,,,,,,60fe550044e21068e47ec6e7,61036ca9db2ac39c1624df1a,2021-07-30_13h13.25.902,Simcolourproject_2stim_asymm_v5,2020.2.10,MacIntel,60,61025ae37ef11b136ea224fe,,,,,,,,,4011,39.39477539,68.73468018,1,0,0,response1disk,,7,15.72515869,2.181854248,1,0,0,rectangle,15.72515869,2.181854248,1,0,0,15.72515869,2.181854248,1,0,0,0,142,142,125,1,,,,,,,,
,,,,,,,,,,,,,FF,,,,,,,,1.134,,,,,,,,,,,,,,,,,,,,,,60fe550044e21068e47ec6e7,61036ca9db2ac39c1624df1a,2021-07-30_13h13.25.902,Simcolourproject_2stim_asymm_v5,2020.2.10,MacIntel,60,61025ae37ef11b136ea224fe,,,,,,,,,3929,67.05743408,-30.74279785,1,0,0,response3disk,,5,1.976013184,-7.170349121,1,0,0,rectangle,1.976013184,-7.170349121,1,0,0,1.976013184,-7.170349121,1,0,0,0,143,143,35,1,,,,,,,,
,,,,,,,,,,,,,FF,,,,,,,,1.2501,,,,,,,,,,,,,,,,,,,,,,60fe550044e21068e47ec6e7,61036ca9db2ac39c1624df1a,2021-07-30_13h13.25.902,Simcolourproject_2stim_asymm_v5,2020.2.10,MacIntel,60,61025ae37ef11b136ea224fe,,,,,,,,,165,-66.99993896,-30.68951416,1,0,0,response5disk,,2,-12.25299072,-9.677734375,1,0,0,rectangle,-12.25299072,-9.677734375,1,0,0,-12.25299072,-9.677734375,1,0,0,0,144,144,77,1,,,,,,,,
,,,,,,,,,,,,,FF,,,,,,,,0.8175,,,,,,,,,,,,,,,,,,,,,,60fe550044e21068e47ec6e7,61036ca9db2ac39c1624df1a,2021-07-30_13h13.25.902,Simcolourproject_2stim_asymm_v5,2020.2.10,MacIntel,60,61025ae37ef11b136ea224fe,,,,,,,,,3949,-26.91784668,-71.57635498,1,0,0,response5disk,,3,5.403747559,6.530578613,1,0,0,rectangle,5.403747559,6.530578613,1,0,0,5.403747559,6.530578613,1,0,0,0,145,145,127,1,,,,,,,,
,,,,,,,,,,,,,FF,,,,,,,,0.7175,,,,,,,,,,,,,,,,,,,,,,60fe550044e21068e47ec6e7,61036ca9db2ac39c1624df1a,2021-07-30_13h13.25.902,Simcolourproject_2stim_asymm_v5,2020.2.10,MacIntel,60,61025ae37ef11b136ea224fe,,,,,,,,,2241,-81.15673828,-40.44665527,1,0,0,response5disk,,2,-23.00030518,-14.82189941,1,0,0,rectangle,-37.65631104,90.24890137,1,0,0,0.274963379,0.855316162,1,0,0,0,146,146,56,1,,response7disk_3,TRUE,0,0,"[140,13,257,147,56,166,78,183,249,252,323,41,187,41,232,206,7,127,278,3]",1.4848,rectangle
,,,,,,,,,,,,,FF,,,,,,,,0.9499,,,,,,,,,,,,,,,,,,,,,,60fe550044e21068e47ec6e7,61036ca9db2ac39c1624df1a,2021-07-30_13h13.25.902,Simcolourproject_2stim_asymm_v5,2020.2.10,MacIntel,60,61025ae37ef11b136ea224fe,,,,,,,,,1467,-26.69372559,-56.27813721,1,0,0,response5disk,,3,-9.540893555,12.1171875,1,0,0,rectangle,-9.540893555,12.1171875,1,0,0,-9.540893555,12.1171875,1,0,0,0,147,147,141,1,,,,,,,,
,,,,,,,,,,,,,FF,,,,,,,,2.4003,,,,,,,,,,,,,,,,,,,,,,60fe550044e21068e47ec6e7,61036ca9db2ac39c1624df1a,2021-07-30_13h13.25.902,Simcolourproject_2stim_asymm_v5,2020.2.10,MacIntel,60,61025ae37ef11b136ea224fe,,,,,,,,,1204,62.15692139,-36.92800903,1,0,0,response3disk,,5,10.58575439,-11.74810791,1,0,0,rectangle,10.58575439,-11.74810791,1,0,0,10.58575439,-11.74810791,1,0,0,0,148,148,70,1,,,,,,,,
,,,,,,,,,,,,,FF,,,,,,,,0.7836,,,,,,,,,,,,,,,,,,,,,,60fe550044e21068e47ec6e7,61036ca9db2ac39c1624df1a,2021-07-30_13h13.25.902,Simcolourproject_2stim_asymm_v5,2020.2.10,MacIntel,60,61025ae37ef11b136ea224fe,,,,,,,,,279,-27.30871582,-84.44592285,1,0,0,response5disk,,3,-14.23266602,-4.586608887,1,0,0,rectangle,-14.23266602,-4.586608887,1,0,0,-14.23266602,-4.586608887,1,0,0,0,149,149,15,1,,,,,,,,
,,,,,,,,,,,,,FF,,,,,,,,1.1006,,,,,,,,,,,,,,,,,,,,,,60fe550044e21068e47ec6e7,61036ca9db2ac39c1624df1a,2021-07-30_13h13.25.902,Simcolourproject_2stim_asymm_v5,2020.2.10,MacIntel,60,61025ae37ef11b136ea224fe,,,,,,,,,1328,24.74664307,-49.23059082,1,0,0,response3disk,,4,-0.070800781,-10.62896729,1,0,0,rectangle,-0.070800781,-10.62896729,1,0,0,-0.070800781,-10.62896729,1,0,0,0,150,150,30,1,,,,,,,,
,,,,,,,,,,,,,FF,,,,,,,,1.0171,,,,,,,,,,,,,,,,,,,,,,60fe550044e21068e47ec6e7,61036ca9db2ac39c1624df1a,2021-07-30_13h13.25.902,Simcolourproject_2stim_asymm_v5,2020.2.10,MacIntel,60,61025ae37ef11b136ea224fe,,,,,,,,,2768,-45.63946533,-67.35058594,1,0,0,response5disk,,3,-10.43731689,-4.734710693,1,0,0,rectangle,-10.43731689,-4.734710693,1,0,0,-10.43731689,-4.734710693,1,0,0,0,151,151,154,1,,,,,,,,
,,,,,,,,,,,,,FF,,,,,,,,1.8174,,,,,,,,,,,,,,,,,,,,,,60fe550044e21068e47ec6e7,61036ca9db2ac39c1624df1a,2021-07-30_13h13.25.902,Simcolourproject_2stim_asymm_v5,2020.2.10,MacIntel,60,61025ae37ef11b136ea224fe,,,,,,,,,3267,57.57073975,-30.55212402,1,0,0,response3disk,,5,16.42584229,-12.27526855,1,0,0,rectangle,16.42584229,-12.27526855,1,0,0,16.42584229,-12.27526855,1,0,0,0,152,152,25,1,,,,,,,,
,,,,,,,,,,,,,FF,,,,,,,,1.717,,,,,,,,,,,,,,,,,,,,,,60fe550044e21068e47ec6e7,61036ca9db2ac39c1624df1a,2021-07-30_13h13.25.902,Simcolourproject_2stim_asymm_v5,2020.2.10,MacIntel,60,61025ae37ef11b136ea224fe,,,,,,,,,4171,-75.00561523,-27.46881104,1,0,0,response5disk,,2,1.058044434,15.53875732,1,0,0,rectangle,1.058044434,15.53875732,1,0,0,1.058044434,15.53875732,1,0,0,0,153,153,147,1,,,,,,,,
,,,,,,,,,,,,,FF,,,,,,,,0.7165,,,,,,,,,,,,,,,,,,,,,,60fe550044e21068e47ec6e7,61036ca9db2ac39c1624df1a,2021-07-30_13h13.25.902,Simcolourproject_2stim_asymm_v5,2020.2.10,MacIntel,60,61025ae37ef11b136ea224fe,,,,,,,,,4094,43.07940674,59.38555908,1,0,0,response1disk,,7,11.76135254,7.105712891,1,0,0,rectangle,11.76135254,7.105712891,1,0,0,11.76135254,7.105712891,1,0,0,0,154,154,0,1,,,,,,,,
,,,,,,,,,,,,,FF,,,,,,,,1.5827,,,,,,,,,,,,,,,,,,,,,,60fe550044e21068e47ec6e7,61036ca9db2ac39c1624df1a,2021-07-30_13h13.25.902,Simcolourproject_2stim_asymm_v5,2020.2.10,MacIntel,60,61025ae37ef11b136ea224fe,,,,,,,,,166,74.86975098,-30.79174805,1,0,0,response3disk,,5,-6.399780273,-8.263214111,1,0,0,rectangle,-6.399780273,-8.263214111,1,0,0,-6.399780273,-8.263214111,1,0,0,0,155,155,65,1,,,,,,,,
,,,,,,,,,,,,,FF,,,,,,,,1.0493,,,,,,,,,,,,,,,,,,,,,,60fe550044e21068e47ec6e7,61036ca9db2ac39c1624df1a,2021-07-30_13h13.25.902,Simcolourproject_2stim_asymm_v5,2020.2.10,MacIntel,60,61025ae37ef11b136ea224fe,,,,,,,,,1691,-30.57574463,-56.69885254,1,0,0,response5disk,,3,-8.188598633,-8.148010254,1,0,0,rectangle,-8.188598633,-8.148010254,1,0,0,-8.188598633,-8.148010254,1,0,0,0,156,156,94,1,,,,,,,,
,,,,,,,,,,,,,FF,,,,,,,,0.9339,,,,,,,,,,,,,,,,,,,,,,60fe550044e21068e47ec6e7,61036ca9db2ac39c1624df1a,2021-07-30_13h13.25.902,Simcolourproject_2stim_asymm_v5,2020.2.10,MacIntel,60,61025ae37ef11b136ea224fe,,,,,,,,,3781,-57.28204346,31.38476563,1,0,0,response7disk,,1,7.110961914,-2.515991211,1,0,0,rectangle,7.110961914,-2.515991211,1,0,0,7.110961914,-2.515991211,1,0,0,0,157,157,88,1,,,,,,,,
,,,,,,,,,,,,,FF,,,,,,,,1.5502,,,,,,,,,,,,,,,,,,,,,,60fe550044e21068e47ec6e7,61036ca9db2ac39c1624df1a,2021-07-30_13h13.25.902,Simcolourproject_2stim_asymm_v5,2020.2.10,MacIntel,60,61025ae37ef11b136ea224fe,,,,,,,,,3703,-53.76702881,-28.63592529,1,0,0,response5disk,,2,-7.713867188,-15.74505615,1,0,0,rectangle,-7.713867188,-15.74505615,1,0,0,-7.713867188,-15.74505615,1,0,0,0,158,158,87,1,,,,,,,,
,,,,,,,,,,,,,FF,,,,,,,,1.0346,,,,,,,,,,,,,,,,,,,,,,60fe550044e21068e47ec6e7,61036ca9db2ac39c1624df1a,2021-07-30_13h13.25.902,Simcolourproject_2stim_asymm_v5,2020.2.10,MacIntel,60,61025ae37ef11b136ea224fe,,,,,,,,,1000,23.38189697,-48.7074585,1,0,0,response3disk,,4,6.762817383,-12.83068848,1,0,0,rectangle,6.762817383,-12.83068848,1,0,0,6.762817383,-12.83068848,1,0,0,0,159,159,91,1,,,,,,,,
,,,,,,,,,,,,,FF,,,,,,,,1.2683,,,,,,,,,,,,,,,,,,,,,,60fe550044e21068e47ec6e7,61036ca9db2ac39c1624df1a,2021-07-30_13h13.25.902,Simcolourproject_2stim_asymm_v5,2020.2.10,MacIntel,60,61025ae37ef11b136ea224fe,,,,,,,,,925,62.42205811,25.49255371,1,0,0,response1disk,,6,6.141357422,6.861480713,1,0,0,rectangle,6.141357422,6.861480713,1,0,0,6.141357422,6.861480713,1,0,0,1,0,160,39,1,,,,,,,,
,,,,,,,,,,,,,FF,,,,,,,,1.0531,,,,,,,,,,,,,,,,,,,,,,60fe550044e21068e47ec6e7,61036ca9db2ac39c1624df1a,2021-07-30_13h13.25.902,Simcolourproject_2stim_asymm_v5,2020.2.10,MacIntel,60,61025ae37ef11b136ea224fe,,,,,,,,,1056,-79.32324219,33.87246704,1,0,0,response7disk,,1,-4.16027832,-9.675354004,1,0,0,rectangle,-4.16027832,-9.675354004,1,0,0,-4.16027832,-9.675354004,1,0,0,1,1,161,65,1,,,,,,,,
,,,,,,,,,,,,,FF,,,,,,,,2.6663,,,,,,,,,,,,,,,,,,,,,,60fe550044e21068e47ec6e7,61036ca9db2ac39c1624df1a,2021-07-30_13h13.25.902,Simcolourproject_2stim_asymm_v5,2020.2.10,MacIntel,60,61025ae37ef11b136ea224fe,,,,,,,,,3654,58.62347412,-26.00634766,1,0,0,response3disk,,5,16.61987305,-10.57519531,1,0,0,rectangle,16.61987305,-10.57519531,1,0,0,16.61987305,-10.57519531,1,0,0,1,2,162,44,1,,,,,,,,
,,,,,,,,,,,,,FF,,,,,,,,1.1179,,,,,,,,,,,,,,,,,,,,,,60fe550044e21068e47ec6e7,61036ca9db2ac39c1624df1a,2021-07-30_13h13.25.902,Simcolourproject_2stim_asymm_v5,2020.2.10,MacIntel,60,61025ae37ef11b136ea224fe,,,,,,,,,4061,-57.45941162,-32.62487793,1,0,0,response5disk,,2,1.892822266,-11.50286865,1,0,0,rectangle,1.892822266,-11.50286865,1,0,0,1.892822266,-11.50286865,1,0,0,1,3,163,41,1,,,,,,,,
,,,,,,,,,,,,,FF,,,,,,,,1.1667,,,,,,,,,,,,,,,,,,,,,,60fe550044e21068e47ec6e7,61036ca9db2ac39c1624df1a,2021-07-30_13h13.25.902,Simcolourproject_2stim_asymm_v5,2020.2.10,MacIntel,60,61025ae37ef11b136ea224fe,,,,,,,,,180,73.1083374,-43.43145752,1,0,0,response3disk,,5,10.55847168,2.076660156,1,0,0,rectangle,10.55847168,2.076660156,1,0,0,10.55847168,2.076660156,1,0,0,1,4,164,24,1,,,,,,,,
,,,,,,,,,,,,,FF,,,,,,,,0.8841,,,,,,,,,,,,,,,,,,,,,,60fe550044e21068e47ec6e7,61036ca9db2ac39c1624df1a,2021-07-30_13h13.25.902,Simcolourproject_2stim_asymm_v5,2020.2.10,MacIntel,60,61025ae37ef11b136ea224fe,,,,,,,,,3253,-26.24139404,-61.06893921,1,0,0,response5disk,,3,-10.86914063,-0.749420166,1,0,0,rectangle,30.84661865,62.61694336,1,0,0,1.809326172,4.549072266,1,0,0,1,5,165,16,1,,response1disk_3,TRUE,7,7,"[140,13,257,147,56,166,78,183,249,252,323,41,187,41,232,206,7,127,278,3]",1.3333,rectangle
,,,,,,,,,,,,,FF,,,,,,,,0.8336,,,,,,,,,,,,,,,,,,,,,,60fe550044e21068e47ec6e7,61036ca9db2ac39c1624df1a,2021-07-30_13h13.25.902,Simcolourproject_2stim_asymm_v5,2020.2.10,MacIntel,60,61025ae37ef11b136ea224fe,,,,,,,,,1961,-61.63928223,40.40496826,1,0,0,response7disk,,1,0.99810791,3.46081543,1,0,0,rectangle,0.99810791,3.46081543,1,0,0,0.99810791,3.46081543,1,0,0,1,6,166,146,1,,,,,,,,
,,,,,,,,,,,,,FF,,,,,,,,4.2335,,,,,,,,,,,,,,,,,,,,,,60fe550044e21068e47ec6e7,61036ca9db2ac39c1624df1a,2021-07-30_13h13.25.902,Simcolourproject_2stim_asymm_v5,2020.2.10,MacIntel,60,61025ae37ef11b136ea224fe,,,,,,,,,3577,68.29095459,-27.78948975,1,0,0,response3disk,,5,15.39611816,-13.07189941,1,0,0,rectangle,15.39611816,-13.07189941,1,0,0,15.39611816,-13.07189941,1,0,0,1,7,167,153,1,,,,,,,,
,,,,,,,,,,,,,FF,,,,,,,,0.8673,,,,,,,,,,,,,,,,,,,,,,60fe550044e21068e47ec6e7,61036ca9db2ac39c1624df1a,2021-07-30_13h13.25.902,Simcolourproject_2stim_asymm_v5,2020.2.10,MacIntel,60,61025ae37ef11b136ea224fe,,,,,,,,,4046,-40.222229,83.73382568,1,0,0,response7disk,,0,-8.541015625,1.273162842,1,0,0,rectangle,-8.541015625,1.273162842,1,0,0,-8.541015625,1.273162842,1,0,0,1,8,168,23,1,,,,,,,,
,,,,,,,,,,,,,FF,,,,,,,,1.8824,,,,,,,,,,,,,,,,,,,,,,60fe550044e21068e47ec6e7,61036ca9db2ac39c1624df1a,2021-07-30_13h13.25.902,Simcolourproject_2stim_asymm_v5,2020.2.10,MacIntel,60,61025ae37ef11b136ea224fe,,,,,,,,,1133,-68.79876709,-43.6083374,1,0,0,response5disk,,2,-2.265075684,-14.3913269,1,0,0,rectangle,-2.265075684,-14.3913269,1,0,0,-2.265075684,-14.3913269,1,0,0,1,9,169,55,1,,,,,,,,
,,,,,,,,,,,,,FF,,,,,,,,1.3002,,,,,,,,,,,,,,,,,,,,,,60fe550044e21068e47ec6e7,61036ca9db2ac39c1624df1a,2021-07-30_13h13.25.902,Simcolourproject_2stim_asymm_v5,2020.2.10,MacIntel,60,61025ae37ef11b136ea224fe,,,,,,,,,904,104.2387085,47.92663574,1,0,0,response1disk,,6,29.08209229,-8.780303955,1,0,0,rectangle,29.08209229,-8.780303955,1,0,0,29.08209229,-8.780303955,1,0,0,1,10,170,104,1,,,,,,,,
,,,,,,,,,,,,,FF,,,,,,,,1.0838,,,,,,,,,,,,,,,,,,,,,,60fe550044e21068e47ec6e7,61036ca9db2ac39c1624df1a,2021-07-30_13h13.25.902,Simcolourproject_2stim_asymm_v5,2020.2.10,MacIntel,60,61025ae37ef11b136ea224fe,,,,,,,,,2671,-21.37493896,-66.01727295,1,0,0,response5disk,,3,-6.374023438,-15.44638062,1,0,0,rectangle,-6.374023438,-15.44638062,1,0,0,-6.374023438,-15.44638062,1,0,0,1,11,171,115,1,,,,,,,,
,,,,,,,,,,,,,FF,,,,,,,,0.784,,,,,,,,,,,,,,,,,,,,,,60fe550044e21068e47ec6e7,61036ca9db2ac39c1624df1a,2021-07-30_13h13.25.902,Simcolourproject_2stim_asymm_v5,2020.2.10,MacIntel,60,61025ae37ef11b136ea224fe,,,,,,,,,1195,43.4864502,59.38903809,1,0,0,response1disk,,7,-7.057678223,-5.619232178,1,0,0,rectangle,-7.057678223,-5.619232178,1,0,0,-7.057678223,-5.619232178,1,0,0,1,12,172,4,1,,,,,,,,
,,,,,,,,,,,,,FF,,,,,,,,0.8833,,,,,,,,,,,,,,,,,,,,,,60fe550044e21068e47ec6e7,61036ca9db2ac39c1624df1a,2021-07-30_13h13.25.902,Simcolourproject_2stim_asymm_v5,2020.2.10,MacIntel,60,61025ae37ef11b136ea224fe,,,,,,,,,3745,-38.13726807,-63.90301514,1,0,0,response5disk,,3,-3.895935059,-4.383850098,1,0,0,rectangle,-3.895935059,-4.383850098,1,0,0,-3.895935059,-4.383850098,1,0,0,1,13,173,53,1,,,,,,,,
,,,,,,,,,,,,,FF,,,,,,,,0.6491,,,,,,,,,,,,,,,,,,,,,,60fe550044e21068e47ec6e7,61036ca9db2ac39c1624df1a,2021-07-30_13h13.25.902,Simcolourproject_2stim_asymm_v5,2020.2.10,MacIntel,60,61025ae37ef11b136ea224fe,,,,,,,,,3927,35.79602051,76.19689941,1,0,0,response1disk,,7,6.324951172,-7.731689453,1,0,0,rectangle,6.324951172,-7.731689453,1,0,0,6.324951172,-7.731689453,1,0,0,1,14,174,8,1,,,,,,,,
,,,,,,,,,,,,,FF,,,,,,,,0.9503,,,,,,,,,,,,,,,,,,,,,,60fe550044e21068e47ec6e7,61036ca9db2ac39c1624df1a,2021-07-30_13h13.25.902,Simcolourproject_2stim_asymm_v5,2020.2.10,MacIntel,60,61025ae37ef11b136ea224fe,,,,,,,,,370,28.74957275,-56.73937988,1,0,0,response3disk,,4,6.248657227,0.074249268,1,0,0,rectangle,6.248657227,0.074249268,1,0,0,6.248657227,0.074249268,1,0,0,1,15,175,25,1,,,,,,,,
,,,,,,,,,,,,,FF,,,,,,,,1.167,,,,,,,,,,,,,,,,,,,,,,60fe550044e21068e47ec6e7,61036ca9db2ac39c1624df1a,2021-07-30_13h13.25.902,Simcolourproject_2stim_asymm_v5,2020.2.10,MacIntel,60,61025ae37ef11b136ea224fe,,,,,,,,,1686,-60.76000977,-34.849823,1,0,0,response5disk,,2,7.284179688,-13.11120605,1,0,0,rectangle,7.284179688,-13.11120605,1,0,0,7.284179688,-13.11120605,1,0,0,1,16,176,1,1,,,,,,,,
,,,,,,,,,,,,,FF,,,,,,,,2.267,,,,,,,,,,,,,,,,,,,,,,60fe550044e21068e47ec6e7,61036ca9db2ac39c1624df1a,2021-07-30_13h13.25.902,Simcolourproject_2stim_asymm_v5,2020.2.10,MacIntel,60,61025ae37ef11b136ea224fe,,,,,,,,,1624,86.59820557,-28.63360596,1,0,0,response3disk,,5,16.52874756,0.985656738,1,0,0,rectangle,16.52874756,0.985656738,1,0,0,16.52874756,0.985656738,1,0,0,1,17,177,133,1,,,,,,,,
,,,,,,,,,,,,,FF,,,,,,,,1.1999,,,,,,,,,,,,,,,,,,,,,,60fe550044e21068e47ec6e7,61036ca9db2ac39c1624df1a,2021-07-30_13h13.25.902,Simcolourproject_2stim_asymm_v5,2020.2.10,MacIntel,60,61025ae37ef11b136ea224fe,,,,,,,,,333,63.11102295,29.89099121,1,0,0,response1disk,,6,0.602478027,7.238464355,1,0,0,rectangle,0.602478027,7.238464355,1,0,0,0.602478027,7.238464355,1,0,0,1,18,178,116,1,,,,,,,,
,,,,,,,,,,,,,FF,,,,,,,,0.7835,,,,,,,,,,,,,,,,,,,,,,60fe550044e21068e47ec6e7,61036ca9db2ac39c1624df1a,2021-07-30_13h13.25.902,Simcolourproject_2stim_asymm_v5,2020.2.10,MacIntel,60,61025ae37ef11b136ea224fe,,,,,,,,,2974,54.22821045,30.50292969,1,0,0,response1disk,,6,-6.789001465,2.150787354,1,0,0,rectangle,-6.789001465,2.150787354,1,0,0,-6.789001465,2.150787354,1,0,0,1,19,179,52,1,,,,,,,,
,,,,,,,,,,,,,FF,,,,,,,,0.9324,,,,,,,,,,,,,,,,,,,,,,60fe550044e21068e47ec6e7,61036ca9db2ac39c1624df1a,2021-07-30_13h13.25.902,Simcolourproject_2stim_asymm_v5,2020.2.10,MacIntel,60,61025ae37ef11b136ea224fe,,,,,,,,,3574,57.44940186,-19.35003662,1,0,0,response3disk,,5,-7.308349609,9.945678711,1,0,0,rectangle,-7.308349609,9.945678711,1,0,0,-7.308349609,9.945678711,1,0,0,1,20,180,71,1,,,,,,,,
,,,,,,,,,,,,,FF,,,,,,,,1.4829,,,,,,,,,,,,,,,,,,,,,,60fe550044e21068e47ec6e7,61036ca9db2ac39c1624df1a,2021-07-30_13h13.25.902,Simcolourproject_2stim_asymm_v5,2020.2.10,MacIntel,60,61025ae37ef11b136ea224fe,,,,,,,,,3117,81.51220703,49.94390869,1,0,0,response1disk,,6,-5.700378418,-10.76974487,1,0,0,rectangle,-5.700378418,-10.76974487,1,0,0,-5.700378418,-10.76974487,1,0,0,1,21,181,56,1,,,,,,,,
,,,,,,,,,,,,,FF,,,,,,,,0.7009,,,,,,,,,,,,,,,,,,,,,,60fe550044e21068e47ec6e7,61036ca9db2ac39c1624df1a,2021-07-30_13h13.25.902,Simcolourproject_2stim_asymm_v5,2020.2.10,MacIntel,60,61025ae37ef11b136ea224fe,,,,,,,,,4257,39.30218506,59.13046265,1,0,0,response1disk,,7,0.396911621,7.317443848,1,0,0,rectangle,-60.3092041,-40.20004272,1,0,0,-3.510437012,1.372741699,1,0,0,1,22,182,60,1,,response5disk_3,TRUE,2,2,"[140,13,257,147,56,166,78,183,249,252,323,41,187,41,232,206,7,127,278,3]",1.65,rectangle
,,,,,,,,,,,,,FF,,,,,,,,2.6499,,,,,,,,,,,,,,,,,,,,,,60fe550044e21068e47ec6e7,61036ca9db2ac39c1624df1a,2021-07-30_13h13.25.902,Simcolourproject_2stim_asymm_v5,2020.2.10,MacIntel,60,61025ae37ef11b136ea224fe,,,,,,,,,2706,74.44311523,28.53204346,1,0,0,response1disk,,6,1.299987793,-0.116149902,1,0,0,rectangle,1.299987793,-0.116149902,1,0,0,1.299987793,-0.116149902,1,0,0,1,23,183,10,1,,,,,,,,
,,,,,,,,,,,,,FF,,,,,,,,1.1675,,,,,,,,,,,,,,,,,,,,,,60fe550044e21068e47ec6e7,61036ca9db2ac39c1624df1a,2021-07-30_13h13.25.902,Simcolourproject_2stim_asymm_v5,2020.2.10,MacIntel,60,61025ae37ef11b136ea224fe,,,,,,,,,3544,-85.80072021,-36.52111816,1,0,0,response5disk,,2,-15.59173584,-6.153747559,1,0,0,rectangle,-15.59173584,-6.153747559,1,0,0,-15.59173584,-6.153747559,1,0,0,1,24,184,47,1,,,,,,,,
,,,,,,,,,,,,,FF,,,,,,,,0.8497,,,,,,,,,,,,,,,,,,,,,,60fe550044e21068e47ec6e7,61036ca9db2ac39c1624df1a,2021-07-30_13h13.25.902,Simcolourproject_2stim_asymm_v5,2020.2.10,MacIntel,60,61025ae37ef11b136ea224fe,,,,,,,,,3125,53.68267822,-28.11456299,1,0,0,response3disk,,5,12.00360107,-0.637908936,1,0,0,rectangle,12.00360107,-0.637908936,1,0,0,12.00360107,-0.637908936,1,0,0,1,25,185,102,1,,,,,,,,
,,,,,,,,,,,,,FF,,,,,,,,1.0494,,,,,,,,,,,,,,,,,,,,,,60fe550044e21068e47ec6e7,61036ca9db2ac39c1624df1a,2021-07-30_13h13.25.902,Simcolourproject_2stim_asymm_v5,2020.2.10,MacIntel,60,61025ae37ef11b136ea224fe,,,,,,,,,4264,60.78399658,25.72756958,1,0,0,response1disk,,6,-5.323425293,-8.368927002,1,0,0,rectangle,-44.58099365,-80.67840576,1,0,0,-10.32781982,-2.636993408,1,0,0,1,26,186,92,1,,response5disk_3,TRUE,3,3,"[140,13,257,147,56,166,78,183,249,252,323,41,187,41,232,206,7,127,278,3]",1.9002,rectangle
,,,,,,,,,,,,,FF,,,,,,,,2.9502,,,,,,,,,,,,,,,,,,,,,,60fe550044e21068e47ec6e7,61036ca9db2ac39c1624df1a,2021-07-30_13h13.25.902,Simcolourproject_2stim_asymm_v5,2020.2.10,MacIntel,60,61025ae37ef11b136ea224fe,,,,,,,,,3953,27.7053833,-84.68469238,1,0,0,response3disk,,4,14.53845215,3.345397949,1,0,0,rectangle,14.53845215,3.345397949,1,0,0,14.53845215,3.345397949,1,0,0,1,27,187,150,1,,,,,,,,
,,,,,,,,,,,,,FF,,,,,,,,1.4501,,,,,,,,,,,,,,,,,,,,,,60fe550044e21068e47ec6e7,61036ca9db2ac39c1624df1a,2021-07-30_13h13.25.902,Simcolourproject_2stim_asymm_v5,2020.2.10,MacIntel,60,61025ae37ef11b136ea224fe,,,,,,,,,405,79.06768799,26.13037109,1,0,0,response1disk,,6,6.445007324,-0.613647461,1,0,0,rectangle,6.445007324,-0.613647461,1,0,0,6.445007324,-0.613647461,1,0,0,1,28,188,154,1,,,,,,,,
,,,,,,,,,,,,,FF,,,,,,,,1.0842,,,,,,,,,,,,,,,,,,,,,,60fe550044e21068e47ec6e7,61036ca9db2ac39c1624df1a,2021-07-30_13h13.25.902,Simcolourproject_2stim_asymm_v5,2020.2.10,MacIntel,60,61025ae37ef11b136ea224fe,,,,,,,,,3111,-29.13360596,-73.64715576,1,0,0,response5disk,,3,1.261413574,10.29653931,1,0,0,rectangle,1.261413574,10.29653931,1,0,0,1.261413574,10.29653931,1,0,0,1,29,189,109,1,,,,,,,,
,,,,,,,,,,,,,FF,,,,,,,,0.9019,,,,,,,,,,,,,,,,,,,,,,60fe550044e21068e47ec6e7,61036ca9db2ac39c1624df1a,2021-07-30_13h13.25.902,Simcolourproject_2stim_asymm_v5,2020.2.10,MacIntel,60,61025ae37ef11b136ea224fe,,,,,,,,,2426,-59.3616333,-29.99368286,1,0,0,response5disk,,2,-17.25195313,-3.882568359,1,0,0,rectangle,-17.25195313,-3.882568359,1,0,0,-17.25195313,-3.882568359,1,0,0,1,30,190,62,1,,,,,,,,
,,,,,,,,,,,,,FF,,,,,,,,0.8834,,,,,,,,,,,,,,,,,,,,,,60fe550044e21068e47ec6e7,61036ca9db2ac39c1624df1a,2021-07-30_13h13.25.902,Simcolourproject_2stim_asymm_v5,2020.2.10,MacIntel,60,61025ae37ef11b136ea224fe,,,,,,,,,1710,61.10357666,-35.0461731,1,0,0,response3disk,,5,-0.854492188,2.282348633,1,0,0,rectangle,-0.854492188,2.282348633,1,0,0,-0.854492188,2.282348633,1,0,0,1,31,191,76,1,,,,,,,,
,,,,,,,,,,,,,FF,,,,,,,,1.0329,,,,,,,,,,,,,,,,,,,,,,60fe550044e21068e47ec6e7,61036ca9db2ac39c1624df1a,2021-07-30_13h13.25.902,Simcolourproject_2stim_asymm_v5,2020.2.10,MacIntel,60,61025ae37ef11b136ea224fe,,,,,,,,,1641,65.17810059,25.784729,1,0,0,response1disk,,6,4.765808105,-5.674560547,1,0,0,rectangle,4.765808105,-5.674560547,1,0,0,4.765808105,-5.674560547,1,0,0,1,32,192,131,1,,,,,,,,
,,,,,,,,,,,,,FF,,,,,,,,2.6331,,,,,,,,,,,,,,,,,,,,,,60fe550044e21068e47ec6e7,61036ca9db2ac39c1624df1a,2021-07-30_13h13.25.902,Simcolourproject_2stim_asymm_v5,2020.2.10,MacIntel,60,61025ae37ef11b136ea224fe,,,,,,,,,2319,60.68432617,-35.08996582,1,0,0,response3disk,,5,11.28863525,-1.421325684,1,0,0,rectangle,11.28863525,-1.421325684,1,0,0,11.28863525,-1.421325684,1,0,0,1,33,193,99,1,,,,,,,,
,,,,,,,,,,,,,FF,,,,,,,,1.0169,,,,,,,,,,,,,,,,,,,,,,60fe550044e21068e47ec6e7,61036ca9db2ac39c1624df1a,2021-07-30_13h13.25.902,Simcolourproject_2stim_asymm_v5,2020.2.10,MacIntel,60,61025ae37ef11b136ea224fe,,,,,,,,,3887,-63.65582275,-41.66619873,1,0,0,response5disk,,2,19.66168213,4.364868164,1,0,0,rectangle,19.66168213,4.364868164,1,0,0,19.66168213,4.364868164,1,0,0,1,34,194,132,1,,,,,,,,
,,,,,,,,,,,,,FF,,,,,,,,2.0676,,,,,,,,,,,,,,,,,,,,,,60fe550044e21068e47ec6e7,61036ca9db2ac39c1624df1a,2021-07-30_13h13.25.902,Simcolourproject_2stim_asymm_v5,2020.2.10,MacIntel,60,61025ae37ef11b136ea224fe,,,,,,,,,3828,70.84185791,-39.03564453,1,0,0,response3disk,,5,17.1272583,-4.803955078,1,0,0,rectangle,17.1272583,-4.803955078,1,0,0,17.1272583,-4.803955078,1,0,0,1,35,195,37,1,,,,,,,,
,,,,,,,,,,,,,FF,,,,,,,,0.8015,,,,,,,,,,,,,,,,,,,,,,60fe550044e21068e47ec6e7,61036ca9db2ac39c1624df1a,2021-07-30_13h13.25.902,Simcolourproject_2stim_asymm_v5,2020.2.10,MacIntel,60,61025ae37ef11b136ea224fe,,,,,,,,,4102,-54.82763672,37.05426025,1,0,0,response7disk,,1,9.161560059,14.07827759,1,0,0,rectangle,9.161560059,14.07827759,1,0,0,9.161560059,14.07827759,1,0,0,1,36,196,142,1,,,,,,,,
,,,,,,,,,,,,,FF,,,,,,,,1.3334,,,,,,,,,,,,,,,,,,,,,,60fe550044e21068e47ec6e7,61036ca9db2ac39c1624df1a,2021-07-30_13h13.25.902,Simcolourproject_2stim_asymm_v5,2020.2.10,MacIntel,60,61025ae37ef11b136ea224fe,,,,,,,,,247,23.14508057,-65.82055664,1,0,0,response3disk,,4,3.016540527,-0.087127686,1,0,0,rectangle,3.016540527,-0.087127686,1,0,0,3.016540527,-0.087127686,1,0,0,1,37,197,50,1,,,,,,,,
,,,,,,,,,,,,,FF,,,,,,,,0.7994,,,,,,,,,,,,,,,,,,,,,,60fe550044e21068e47ec6e7,61036ca9db2ac39c1624df1a,2021-07-30_13h13.25.902,Simcolourproject_2stim_asymm_v5,2020.2.10,MacIntel,60,61025ae37ef11b136ea224fe,,,,,,,,,1183,29.33843994,63.09936523,1,0,0,response1disk,,7,5.220275879,-6.813476563,1,0,0,rectangle,5.220275879,-6.813476563,1,0,0,5.220275879,-6.813476563,1,0,0,1,38,198,20,1,,,,,,,,
,,,,,,,,,,,,,FF,,,,,,,,1.5329,,,,,,,,,,,,,,,,,,,,,,60fe550044e21068e47ec6e7,61036ca9db2ac39c1624df1a,2021-07-30_13h13.25.902,Simcolourproject_2stim_asymm_v5,2020.2.10,MacIntel,60,61025ae37ef11b136ea224fe,,,,,,,,,2533,85.83123779,24.06539917,1,0,0,response1disk,,6,9.186096191,1.826202393,1,0,0,rectangle,9.186096191,1.826202393,1,0,0,9.186096191,1.826202393,1,0,0,1,39,199,22,1,,,,,,,,
,,,,,,,,,,,,,FF,,,,,,,,1.9344,,,,,,,,,,,,,,,,,,,,,,60fe550044e21068e47ec6e7,61036ca9db2ac39c1624df1a,2021-07-30_13h13.25.902,Simcolourproject_2stim_asymm_v5,2020.2.10,MacIntel,60,61025ae37ef11b136ea224fe,,,,,,,,,2887,-80.48193359,23.01794434,1,0,0,response7disk,,1,7.54498291,-6.008728027,1,0,0,rectangle,7.54498291,-6.008728027,1,0,0,7.54498291,-6.008728027,1,0,0,1,40,200,43,1,,,,,,,,
,,,,,,,,,,,,,FF,,,,,,,,2.9669,,,,,,,,,,,,,,,,,,,,,,60fe550044e21068e47ec6e7,61036ca9db2ac39c1624df1a,2021-07-30_13h13.25.902,Simcolourproject_2stim_asymm_v5,2020.2.10,MacIntel,60,61025ae37ef11b136ea224fe,,,,,,,,,2121,33.61468506,-46.32427979,1,0,0,response3disk,,4,9.423583984,9.324951172,1,0,0,rectangle,9.423583984,9.324951172,1,0,0,9.423583984,9.324951172,1,0,0,1,41,201,81,1,,,,,,,,
,,,,,,,,,,,,,FF,,,,,,,,1.967,,,,,,,,,,,,,,,,,,,,,,60fe550044e21068e47ec6e7,61036ca9db2ac39c1624df1a,2021-07-30_13h13.25.902,Simcolourproject_2stim_asymm_v5,2020.2.10,MacIntel,60,61025ae37ef11b136ea224fe,,,,,,,,,3825,-37.33984375,-62.80102539,1,0,0,response5disk,,3,-5.708129883,7.678314209,1,0,0,rectangle,-5.708129883,7.678314209,1,0,0,-5.708129883,7.678314209,1,0,0,1,42,202,5,1,,,,,,,,
,,,,,,,,,,,,,FF,,,,,,,,0.8011,,,,,,,,,,,,,,,,,,,,,,60fe550044e21068e47ec6e7,61036ca9db2ac39c1624df1a,2021-07-30_13h13.25.902,Simcolourproject_2stim_asymm_v5,2020.2.10,MacIntel,60,61025ae37ef11b136ea224fe,,,,,,,,,3902,-75.1887207,-33.11047363,1,0,0,response5disk,,2,-12.39593506,3.434997559,1,0,0,rectangle,-12.39593506,3.434997559,1,0,0,-12.39593506,3.434997559,1,0,0,1,43,203,159,1,,,,,,,,
,,,,,,,,,,,,,FF,,,,,,,,1.2,,,,,,,,,,,,,,,,,,,,,,60fe550044e21068e47ec6e7,61036ca9db2ac39c1624df1a,2021-07-30_13h13.25.902,Simcolourproject_2stim_asymm_v5,2020.2.10,MacIntel,60,61025ae37ef11b136ea224fe,,,,,,,,,3367,68.9864502,38.3861084,1,0,0,response1disk,,6,7.466003418,9.90133667,1,0,0,rectangle,7.466003418,9.90133667,1,0,0,7.466003418,9.90133667,1,0,0,1,44,204,113,1,,,,,,,,
,,,,,,,,,,,,,FF,,,,,,,,1.0837,,,,,,,,,,,,,,,,,,,,,,60fe550044e21068e47ec6e7,61036ca9db2ac39c1624df1a,2021-07-30_13h13.25.902,Simcolourproject_2stim_asymm_v5,2020.2.10,MacIntel,60,61025ae37ef11b136ea224fe,,,,,,,,,3135,67.03521729,20.60131836,1,0,0,response1disk,,6,1.909057617,-3.693817139,1,0,0,rectangle,82.59100342,49.46502686,1,0,0,-10.25256348,-13.35632324,1,0,0,1,45,205,108,1,,response1disk_3,TRUE,6,6,"[140,13,257,147,56,166,78,183,249,252,323,41,187,41,232,206,7,127,278,3]",1.2506,rectangle
,,,,,,,,,,,,,FF,,,,,,,,6.3995,,,,,,,,,,,,,,,,,,,,,,60fe550044e21068e47ec6e7,61036ca9db2ac39c1624df1a,2021-07-30_13h13.25.902,Simcolourproject_2stim_asymm_v5,2020.2.10,MacIntel,60,61025ae37ef11b136ea224fe,,,,,,,,,1854,64.50604248,-35.5871582,1,0,0,response3disk,,5,-15.3638916,8.339172363,1,0,0,rectangle,-15.3638916,8.339172363,1,0,0,-15.3638916,8.339172363,1,0,0,1,46,206,155,1,,,,,,,,
,,,,,,,,,,,,,FF,,,,,,,,1.3847,,,,,,,,,,,,,,,,,,,,,,60fe550044e21068e47ec6e7,61036ca9db2ac39c1624df1a,2021-07-30_13h13.25.902,Simcolourproject_2stim_asymm_v5,2020.2.10,MacIntel,60,61025ae37ef11b136ea224fe,,,,,,,,,3327,70.9487915,26.85025024,1,0,0,response1disk,,6,-0.472473145,-12.64916992,1,0,0,rectangle,-0.472473145,-12.64916992,1,0,0,-0.472473145,-12.64916992,1,0,0,1,47,207,28,1,,,,,,,,
,,,,,,,,,,,,,FF,,,,,,,,1.3663,,,,,,,,,,,,,,,,,,,,,,60fe550044e21068e47ec6e7,61036ca9db2ac39c1624df1a,2021-07-30_13h13.25.902,Simcolourproject_2stim_asymm_v5,2020.2.10,MacIntel,60,61025ae37ef11b136ea224fe,,,,,,,,,3886,70.8190918,-26.16021729,1,0,0,response3disk,,5,16.44128418,-1.571350098,1,0,0,rectangle,16.44128418,-1.571350098,1,0,0,16.44128418,-1.571350098,1,0,0,1,48,208,89,1,,,,,,,,
,,,,,,,,,,,,,FF,,,,,,,,1.4663,,,,,,,,,,,,,,,,,,,,,,60fe550044e21068e47ec6e7,61036ca9db2ac39c1624df1a,2021-07-30_13h13.25.902,Simcolourproject_2stim_asymm_v5,2020.2.10,MacIntel,60,61025ae37ef11b136ea224fe,,,,,,,,,1750,-45.60791016,62.93780518,1,0,0,response7disk,,0,-18.45489502,2.262817383,1,0,0,rectangle,-18.45489502,2.262817383,1,0,0,-18.45489502,2.262817383,1,0,0,1,49,209,152,1,,,,,,,,
,,,,,,,,,,,,,FF,,,,,,,,1.4833,,,,,,,,,,,,,,,,,,,,,,60fe550044e21068e47ec6e7,61036ca9db2ac39c1624df1a,2021-07-30_13h13.25.902,Simcolourproject_2stim_asymm_v5,2020.2.10,MacIntel,60,61025ae37ef11b136ea224fe,,,,,,,,,2793,-27.27941895,-56.60046387,1,0,0,response5disk,,3,-14.50512695,-9.396270752,1,0,0,rectangle,-14.50512695,-9.396270752,1,0,0,-14.50512695,-9.396270752,1,0,0,1,50,210,156,1,,,,,,,,
,,,,,,,,,,,,,FF,,,,,,,,4.0823,,,,,,,,,,,,,,,,,,,,,,60fe550044e21068e47ec6e7,61036ca9db2ac39c1624df1a,2021-07-30_13h13.25.902,Simcolourproject_2stim_asymm_v5,2020.2.10,MacIntel,60,61025ae37ef11b136ea224fe,,,,,,,,,3279,75.9786377,33.04760742,1,0,0,response1disk,,6,2.881530762,-0.390167236,1,0,0,rectangle,2.881530762,-0.390167236,1,0,0,2.881530762,-0.390167236,1,0,0,1,51,211,149,1,,,,,,,,
,,,,,,,,,,,,,FF,,,,,,,,0.9825,,,,,,,,,,,,,,,,,,,,,,60fe550044e21068e47ec6e7,61036ca9db2ac39c1624df1a,2021-07-30_13h13.25.902,Simcolourproject_2stim_asymm_v5,2020.2.10,MacIntel,60,61025ae37ef11b136ea224fe,,,,,,,,,1833,-30.73516846,-52.06634521,1,0,0,response5disk,,3,-19.80847168,-6.028381348,1,0,0,rectangle,-19.80847168,-6.028381348,1,0,0,-19.80847168,-6.028381348,1,0,0,1,52,212,117,1,,,,,,,,
,,,,,,,,,,,,,FF,,,,,,,,0.8494,,,,,,,,,,,,,,,,,,,,,,60fe550044e21068e47ec6e7,61036ca9db2ac39c1624df1a,2021-07-30_13h13.25.902,Simcolourproject_2stim_asymm_v5,2020.2.10,MacIntel,60,61025ae37ef11b136ea224fe,,,,,,,,,529,-37.55114746,-65.01202393,1,0,0,response5disk,,3,-13.56732178,-6.80645752,1,0,0,rectangle,-13.56732178,-6.80645752,1,0,0,-13.56732178,-6.80645752,1,0,0,1,53,213,91,1,,,,,,,,
,,,,,,,,,,,,,FF,,,,,,,,1.0185,,,,,,,,,,,,,,,,,,,,,,60fe550044e21068e47ec6e7,61036ca9db2ac39c1624df1a,2021-07-30_13h13.25.902,Simcolourproject_2stim_asymm_v5,2020.2.10,MacIntel,60,61025ae37ef11b136ea224fe,,,,,,,,,1172,30.86431885,48.2232666,1,0,0,response1disk,,7,2.147705078,6.069519043,1,0,0,rectangle,2.147705078,6.069519043,1,0,0,2.147705078,6.069519043,1,0,0,1,54,214,6,1,,,,,,,,
,,,,,,,,,,,,,FF,,,,,,,,1.2998,,,,,,,,,,,,,,,,,,,,,,60fe550044e21068e47ec6e7,61036ca9db2ac39c1624df1a,2021-07-30_13h13.25.902,Simcolourproject_2stim_asymm_v5,2020.2.10,MacIntel,60,61025ae37ef11b136ea224fe,,,,,,,,,3804,65.79156494,30.4286499,1,0,0,response1disk,,6,-2.118530273,0.144042969,1,0,0,rectangle,-2.118530273,0.144042969,1,0,0,-2.118530273,0.144042969,1,0,0,1,55,215,83,1,,,,,,,,
,,,,,,,,,,,,,FF,,,,,,,,0.9334,,,,,,,,,,,,,,,,,,,,,,60fe550044e21068e47ec6e7,61036ca9db2ac39c1624df1a,2021-07-30_13h13.25.902,Simcolourproject_2stim_asymm_v5,2020.2.10,MacIntel,60,61025ae37ef11b136ea224fe,,,,,,,,,3494,47.06774902,-30.47097778,1,0,0,response3disk,,5,-10.74719238,9.813354492,1,0,0,rectangle,-10.74719238,9.813354492,1,0,0,-10.74719238,9.813354492,1,0,0,1,56,216,73,1,,,,,,,,
,,,,,,,,,,,,,FF,,,,,,,,1.8665,,,,,,,,,,,,,,,,,,,,,,60fe550044e21068e47ec6e7,61036ca9db2ac39c1624df1a,2021-07-30_13h13.25.902,Simcolourproject_2stim_asymm_v5,2020.2.10,MacIntel,60,61025ae37ef11b136ea224fe,,,,,,,,,1385,-25.83343506,-72.85919189,1,0,0,response5disk,,3,-2.077087402,5.088867188,1,0,0,rectangle,-2.077087402,5.088867188,1,0,0,-2.077087402,5.088867188,1,0,0,1,57,217,77,1,,,,,,,,
,,,,,,,,,,,,,FF,,,,,,,,0.9175,,,,,,,,,,,,,,,,,,,,,,60fe550044e21068e47ec6e7,61036ca9db2ac39c1624df1a,2021-07-30_13h13.25.902,Simcolourproject_2stim_asymm_v5,2020.2.10,MacIntel,60,61025ae37ef11b136ea224fe,,,,,,,,,3222,74.82446289,31.13885498,1,0,0,response1disk,,6,-2.39642334,12.421875,1,0,0,rectangle,-2.39642334,12.421875,1,0,0,-2.39642334,12.421875,1,0,0,1,58,218,72,1,,,,,,,,
,,,,,,,,,,,,,FF,,,,,,,,5.482,,,,,,,,,,,,,,,,,,,,,,60fe550044e21068e47ec6e7,61036ca9db2ac39c1624df1a,2021-07-30_13h13.25.902,Simcolourproject_2stim_asymm_v5,2020.2.10,MacIntel,60,61025ae37ef11b136ea224fe,,,,,,,,,2680,35.54925537,-60.42706299,1,0,0,response3disk,,4,3.800109863,-4.415283203,1,0,0,rectangle,3.800109863,-4.415283203,1,0,0,3.800109863,-4.415283203,1,0,0,1,59,219,96,1,,,,,,,,
,,,,,,,,,,,,,FF,,,,,,,,0.767,,,,,,,,,,,,,,,,,,,,,,60fe550044e21068e47ec6e7,61036ca9db2ac39c1624df1a,2021-07-30_13h13.25.902,Simcolourproject_2stim_asymm_v5,2020.2.10,MacIntel,60,61025ae37ef11b136ea224fe,,,,,,,,,2464,72.8026123,40.86782837,1,0,0,response1disk,,6,10.22113037,6.393707275,1,0,0,rectangle,10.22113037,6.393707275,1,0,0,10.22113037,6.393707275,1,0,0,1,60,220,124,1,,,,,,,,
,,,,,,,,,,,,,FF,,,,,,,,0.9496,,,,,,,,,,,,,,,,,,,,,,60fe550044e21068e47ec6e7,61036ca9db2ac39c1624df1a,2021-07-30_13h13.25.902,Simcolourproject_2stim_asymm_v5,2020.2.10,MacIntel,60,61025ae37ef11b136ea224fe,,,,,,,,,3039,-42.67980957,-59.7713623,1,0,0,response5disk,,3,-5.44342041,3.944763184,1,0,0,rectangle,-5.44342041,3.944763184,1,0,0,-5.44342041,3.944763184,1,0,0,1,61,221,38,1,,,,,,,,
,,,,,,,,,,,,,FF,,,,,,,,0.7335,,,,,,,,,,,,,,,,,,,,,,60fe550044e21068e47ec6e7,61036ca9db2ac39c1624df1a,2021-07-30_13h13.25.902,Simcolourproject_2stim_asymm_v5,2020.2.10,MacIntel,60,61025ae37ef11b136ea224fe,,,,,,,,,354,-59.32513428,31.76568604,1,0,0,response7disk,,1,7.902954102,0.806945801,1,0,0,rectangle,7.902954102,0.806945801,1,0,0,7.902954102,0.806945801,1,0,0,1,62,222,57,1,,,,,,,,
,,,,,,,,,,,,,FF,,,,,,,,0.9168,,,,,,,,,,,,,,,,,,,,,,60fe550044e21068e47ec6e7,61036ca9db2ac39c1624df1a,2021-07-30_13h13.25.902,Simcolourproject_2stim_asymm_v5,2020.2.10,MacIntel,60,61025ae37ef11b136ea224fe,,,,,,,,,2206,18.42120361,47.82446289,1,0,0,response1disk,,7,1.128845215,-3.35333252,1,0,0,rectangle,1.128845215,-3.35333252,1,0,0,1.128845215,-3.35333252,1,0,0,1,63,223,14,1,,,,,,,,
,,,,,,,,,,,,,FF,,,,,,,,0.9682,,,,,,,,,,,,,,,,,,,,,,60fe550044e21068e47ec6e7,61036ca9db2ac39c1624df1a,2021-07-30_13h13.25.902,Simcolourproject_2stim_asymm_v5,2020.2.10,MacIntel,60,61025ae37ef11b136ea224fe,,,,,,,,,2141,63.48529053,-34.21231079,1,0,0,response3disk,,5,-2.201171875,2.07232666,1,0,0,rectangle,-2.201171875,2.07232666,1,0,0,-2.201171875,2.07232666,1,0,0,1,64,224,130,1,,,,,,,,
,,,,,,,,,,,,,FF,,,,,,,,1.1005,,,,,,,,,,,,,,,,,,,,,,60fe550044e21068e47ec6e7,61036ca9db2ac39c1624df1a,2021-07-30_13h13.25.902,Simcolourproject_2stim_asymm_v5,2020.2.10,MacIntel,60,61025ae37ef11b136ea224fe,,,,,,,,,3250,-56.55236816,27.29052734,1,0,0,response7disk,,1,-9.555908203,-4.696472168,1,0,0,rectangle,-9.555908203,-4.696472168,1,0,0,-9.555908203,-4.696472168,1,0,0,1,65,225,86,1,,,,,,,,
,,,,,,,,,,,,,FF,,,,,,,,0.9178,,,,,,,,,,,,,,,,,,,,,,60fe550044e21068e47ec6e7,61036ca9db2ac39c1624df1a,2021-07-30_13h13.25.902,Simcolourproject_2stim_asymm_v5,2020.2.10,MacIntel,60,61025ae37ef11b136ea224fe,,,,,,,,,1170,26.18103027,50.80703735,1,0,0,response1disk,,7,5.208068848,4.664428711,1,0,0,rectangle,5.208068848,4.664428711,1,0,0,5.208068848,4.664428711,1,0,0,1,66,226,103,1,,,,,,,,
,,,,,,,,,,,,,FF,,,,,,,,0.7845,,,,,,,,,,,,,,,,,,,,,,60fe550044e21068e47ec6e7,61036ca9db2ac39c1624df1a,2021-07-30_13h13.25.902,Simcolourproject_2stim_asymm_v5,2020.2.10,MacIntel,60,61025ae37ef11b136ea224fe,,,,,,,,,3875,-35.34429932,78.04418945,1,0,0,response7disk,,0,-11.54943848,-7.86315918,1,0,0,rectangle,-11.54943848,-7.86315918,1,0,0,-11.54943848,-7.86315918,1,0,0,1,67,227,112,1,,,,,,,,
,,,,,,,,,,,,,FF,,,,,,,,0.9,,,,,,,,,,,,,,,,,,,,,,60fe550044e21068e47ec6e7,61036ca9db2ac39c1624df1a,2021-07-30_13h13.25.902,Simcolourproject_2stim_asymm_v5,2020.2.10,MacIntel,60,61025ae37ef11b136ea224fe,,,,,,,,,4140,-33.55322266,77.59753418,1,0,0,response7disk,,0,-10.71166992,3.157958984,1,0,0,rectangle,-10.71166992,3.157958984,1,0,0,-10.71166992,3.157958984,1,0,0,1,68,228,138,1,,,,,,,,
,,,,,,,,,,,,,FF,,,,,,,,2.2333,,,,,,,,,,,,,,,,,,,,,,60fe550044e21068e47ec6e7,61036ca9db2ac39c1624df1a,2021-07-30_13h13.25.902,Simcolourproject_2stim_asymm_v5,2020.2.10,MacIntel,60,61025ae37ef11b136ea224fe,,,,,,,,,4114,-31.89910889,-63.78198242,1,0,0,response5disk,,3,-5.551025391,3.075805664,1,0,0,rectangle,-5.551025391,3.075805664,1,0,0,-5.551025391,3.075805664,1,0,0,1,69,229,100,1,,,,,,,,
,,,,,,,,,,,,,FF,,,,,,,,1.8504,,,,,,,,,,,,,,,,,,,,,,60fe550044e21068e47ec6e7,61036ca9db2ac39c1624df1a,2021-07-30_13h13.25.902,Simcolourproject_2stim_asymm_v5,2020.2.10,MacIntel,60,61025ae37ef11b136ea224fe,,,,,,,,,1658,58.77789307,25.01715088,1,0,0,response1disk,,6,-2.172180176,4.315917969,1,0,0,rectangle,-2.172180176,4.315917969,1,0,0,-2.172180176,4.315917969,1,0,0,1,70,230,63,1,,,,,,,,
,,,,,,,,,,,,,FF,,,,,,,,3.866,,,,,,,,,,,,,,,,,,,,,,60fe550044e21068e47ec6e7,61036ca9db2ac39c1624df1a,2021-07-30_13h13.25.902,Simcolourproject_2stim_asymm_v5,2020.2.10,MacIntel,60,61025ae37ef11b136ea224fe,,,,,,,,,2475,25.48266602,55.21234131,1,0,0,response1disk,,7,14.86053467,-0.818481445,1,0,0,rectangle,-72.37133789,-38.58508301,1,0,0,0.773986816,-16.02624512,1,0,0,1,71,231,98,1,,response5disk_3,TRUE,2,2,"[140,13,257,147,56,166,78,183,249,252,323,41,187,41,232,206,7,127,278,3]",1.6668,rectangle
,,,,,,,,,,,,,FF,,,,,,,,1.1828,,,,,,,,,,,,,,,,,,,,,,60fe550044e21068e47ec6e7,61036ca9db2ac39c1624df1a,2021-07-30_13h13.25.902,Simcolourproject_2stim_asymm_v5,2020.2.10,MacIntel,60,61025ae37ef11b136ea224fe,,,,,,,,,407,52.49713135,-50.09912109,1,0,0,response3disk,,5,8.04296875,-1.49987793,1,0,0,rectangle,8.04296875,-1.49987793,1,0,0,8.04296875,-1.49987793,1,0,0,1,72,232,136,1,,,,,,,,
,,,,,,,,,,,,,FF,,,,,,,,0.7335,,,,,,,,,,,,,,,,,,,,,,60fe550044e21068e47ec6e7,61036ca9db2ac39c1624df1a,2021-07-30_13h13.25.902,Simcolourproject_2stim_asymm_v5,2020.2.10,MacIntel,60,61025ae37ef11b136ea224fe,,,,,,,,,2608,-30.96533203,62.69940186,1,0,0,response7disk,,0,-12.90563965,-14.82901001,1,0,0,rectangle,-12.90563965,-14.82901001,1,0,0,-12.90563965,-14.82901001,1,0,0,1,73,233,40,1,,,,,,,,
,,,,,,,,,,,,,FF,,,,,,,,3.0494,,,,,,,,,,,,,,,,,,,,,,60fe550044e21068e47ec6e7,61036ca9db2ac39c1624df1a,2021-07-30_13h13.25.902,Simcolourproject_2stim_asymm_v5,2020.2.10,MacIntel,60,61025ae37ef11b136ea224fe,,,,,,,,,949,78.88482666,35.04718018,1,0,0,response1disk,,6,3.321838379,-5.773162842,1,0,0,rectangle,3.321838379,-5.773162842,1,0,0,3.321838379,-5.773162842,1,0,0,1,74,234,87,1,,,,,,,,
,,,,,,,,,,,,,FF,,,,,,,,0.9166,,,,,,,,,,,,,,,,,,,,,,60fe550044e21068e47ec6e7,61036ca9db2ac39c1624df1a,2021-07-30_13h13.25.902,Simcolourproject_2stim_asymm_v5,2020.2.10,MacIntel,60,61025ae37ef11b136ea224fe,,,,,,,,,4233,63.39880371,19.68066406,1,0,0,response1disk,,6,17.64929199,6.791931152,1,0,0,rectangle,17.64929199,6.791931152,1,0,0,17.64929199,6.791931152,1,0,0,1,75,235,74,1,,,,,,,,
,,,,,,,,,,,,,FF,,,,,,,,1.2001,,,,,,,,,,,,,,,,,,,,,,60fe550044e21068e47ec6e7,61036ca9db2ac39c1624df1a,2021-07-30_13h13.25.902,Simcolourproject_2stim_asymm_v5,2020.2.10,MacIntel,60,61025ae37ef11b136ea224fe,,,,,,,,,3548,62.63165283,34.9901123,1,0,0,response1disk,,6,5.83795166,3.028503418,1,0,0,rectangle,5.83795166,3.028503418,1,0,0,5.83795166,3.028503418,1,0,0,1,76,236,151,1,,,,,,,,
,,,,,,,,,,,,,FF,,,,,,,,1.3833,,,,,,,,,,,,,,,,,,,,,,60fe550044e21068e47ec6e7,61036ca9db2ac39c1624df1a,2021-07-30_13h13.25.902,Simcolourproject_2stim_asymm_v5,2020.2.10,MacIntel,60,61025ae37ef11b136ea224fe,,,,,,,,,2746,18.0022583,43.00787354,1,0,0,response1disk,,7,16.02801514,-2.99786377,1,0,0,rectangle,16.02801514,-2.99786377,1,0,0,16.02801514,-2.99786377,1,0,0,1,77,237,110,1,,,,,,,,
,,,,,,,,,,,,,FF,,,,,,,,0.7508,,,,,,,,,,,,,,,,,,,,,,60fe550044e21068e47ec6e7,61036ca9db2ac39c1624df1a,2021-07-30_13h13.25.902,Simcolourproject_2stim_asymm_v5,2020.2.10,MacIntel,60,61025ae37ef11b136ea224fe,,,,,,,,,45,19.64196777,74.14807129,1,0,0,response1disk,,7,9.510986328,-7.358856201,1,0,0,rectangle,9.510986328,-7.358856201,1,0,0,9.510986328,-7.358856201,1,0,0,1,78,238,70,1,,,,,,,,
,,,,,,,,,,,,,FF,,,,,,,,1.0175,,,,,,,,,,,,,,,,,,,,,,60fe550044e21068e47ec6e7,61036ca9db2ac39c1624df1a,2021-07-30_13h13.25.902,Simcolourproject_2stim_asymm_v5,2020.2.10,MacIntel,60,61025ae37ef11b136ea224fe,,,,,,,,,1243,68.49920654,-29.74362183,1,0,0,response3disk,,5,0.134643555,10.24475098,1,0,0,rectangle,0.134643555,10.24475098,1,0,0,0.134643555,10.24475098,1,0,0,1,79,239,118,1,,,,,,,,
,,,,,,,,,,,,,FF,,,,,,,,0.8666,,,,,,,,,,,,,,,,,,,,,,60fe550044e21068e47ec6e7,61036ca9db2ac39c1624df1a,2021-07-30_13h13.25.902,Simcolourproject_2stim_asymm_v5,2020.2.10,MacIntel,60,61025ae37ef11b136ea224fe,,,,,,,,,1333,71.69708252,-28.79351807,1,0,0,response3disk,,5,28.50024414,3.581695557,1,0,0,rectangle,28.50024414,3.581695557,1,0,0,28.50024414,3.581695557,1,0,0,1,80,240,27,1,,,,,,,,
,,,,,,,,,,,,,FF,,,,,,,,0.7824,,,,,,,,,,,,,,,,,,,,,,60fe550044e21068e47ec6e7,61036ca9db2ac39c1624df1a,2021-07-30_13h13.25.902,Simcolourproject_2stim_asymm_v5,2020.2.10,MacIntel,60,61025ae37ef11b136ea224fe,,,,,,,,,3112,55.378479,-31.86099243,1,0,0,response3disk,,5,16.51220703,8.708984375,1,0,0,rectangle,16.51220703,8.708984375,1,0,0,16.51220703,8.708984375,1,0,0,1,81,241,107,1,,,,,,,,
