key_resp.keys,key_resp.rt,key_resp_14.keys,key_resp_14.rt,key_resp_15.keys,key_resp_15.rt,key_resp_17.keys,key_resp_17.rt,key_resp_9.keys,key_resp_9.rt,key_resp_10.keys,key_resp_10.rt,practice_comparison,Ecc,mouse_5.x,mouse_5.y,mouse_5.leftButton,mouse_5.midButton,mouse_5.rightButton,mouse_5.clicked_name,pracsimilarity,response_time,mouse_10.x,mouse_10.y,mouse_10.leftButton,mouse_10.midButton,mouse_10.rightButton,mouse_10.clicked_name,mouse_7.x,mouse_7.y,mouse_7.leftButton,mouse_7.midButton,mouse_7.rightButton,mouse_6.x,mouse_6.y,mouse_6.leftButton,mouse_6.midButton,mouse_6.rightButton,duringprac.thisRepN,duringprac.thisTrialN,duringprac.thisN,duringprac.thisIndex,duringprac.ran,participant,session,date,expName,psychopyVersion,OS,frameRate,study_id,mouse_7.clicked_name,catchpracsimilarity,catch_response_time,catchnumberprac,catchtrialorderprac,mouse_6.clicked_name,key_resp_22.keys,key_resp_22.rt,realcomparison,mouse.x,mouse.y,mouse.leftButton,mouse.midButton,mouse.rightButton,mouse.clicked_name,Colour2,similarity,mouse_2.x,mouse_2.y,mouse_2.leftButton,mouse_2.midButton,mouse_2.rightButton,mouse_2.clicked_name,mouse_3.x,mouse_3.y,mouse_3.leftButton,mouse_3.midButton,mouse_3.rightButton,mouse_11.x,mouse_11.y,mouse_11.leftButton,mouse_11.midButton,mouse_11.rightButton,trials_2.thisRepN,trials_2.thisTrialN,trials_2.thisN,trials_2.thisIndex,trials_2.ran,Colour1,mouse_3.clicked_name,catchornah,catchsimilarity,catchnumber,catchtrialorder,catchRT,mouse_11.clicked_name
space,2.1888,space,8.9279,space,10.6119,space,4.2211,space,2.1797,space,3.0465,77,FF,30.66668665,80.66665834,1,0,0,response1disk_5,7,13.6516,1.9735E-05,-12.66667777,1,0,0,rectangle_8,1.9735E-05,-12.66667777,1,0,0,1.9735E-05,-12.66667777,1,0,0,0,0,0,3,1,60fe3d2570935a75dea9fb40,61036b54b33d786f994eba84,2021-07-29_22h01.14.308,Simcolourproject_2stim_asymm_v5,2020.2.10,Win32,60,61025ae37ef11b136ea224fe,,,,,,,,,,,,,,,,,,,,,,,,,,,,,,,,,,,,,,,,,,,,,,
,,,,,,,,,,,,10,PF,40.66668695,94.66665876,1,0,0,response1disk_5,7,4.1166,6.666685939,3.99998939,1,0,0,rectangle_8,32.00002003,107.3333258,1,0,0,10.66668606,-1.07288E-05,1,0,0,0,1,1,2,1,60fe3d2570935a75dea9fb40,61036b54b33d786f994eba84,2021-07-29_22h01.14.308,Simcolourproject_2stim_asymm_v5,2020.2.10,Win32,60,61025ae37ef11b136ea224fe,response1disk_7,7,2.5345,7,"[2,5]",rectangle_4,,,,,,,,,,,,,,,,,,,,,,,,,,,,,,,,,,,,,,,,
,,,,,,,,,,,,101,PF,31.33339403,74.66665816,1,0,0,response1disk_5,7,2.9,6.000019252,4.666656077,1,0,0,rectangle_8,6.000019252,4.666656077,1,0,0,6.000019252,4.666656077,1,0,0,0,2,2,4,1,60fe3d2570935a75dea9fb40,61036b54b33d786f994eba84,2021-07-29_22h01.14.308,Simcolourproject_2stim_asymm_v5,2020.2.10,Win32,60,61025ae37ef11b136ea224fe,,,,,,,,,,,,,,,,,,,,,,,,,,,,,,,,,,,,,,,,,,,,,,
,,,,,,,,,,,,12,PF,44.00002038,-28.00001156,1,0,0,response3disk_5,5,2.1834,6.000019252,10.66665626,1,0,0,rectangle_8,6.000019252,10.66665626,1,0,0,6.000019252,10.66665626,1,0,0,0,3,3,1,1,60fe3d2570935a75dea9fb40,61036b54b33d786f994eba84,2021-07-29_22h01.14.308,Simcolourproject_2stim_asymm_v5,2020.2.10,Win32,60,61025ae37ef11b136ea224fe,,,,,,,,,,,,,,,,,,,,,,,,,,,,,,,,,,,,,,,,,,,,,,
,,,,,,,,,,,,145,FF,66.66668773,34.66665697,1,0,0,response1disk_5,6,3.8502,4.000019193,-4.000010848,1,0,0,rectangle_8,20.00001967,63.33330415,1,0,0,4.000019193,1.333322644,1,0,0,0,4,4,5,1,60fe3d2570935a75dea9fb40,61036b54b33d786f994eba84,2021-07-29_22h01.14.308,Simcolourproject_2stim_asymm_v5,2020.2.10,Win32,60,61025ae37ef11b136ea224fe,response1disk_7,7,2.2333,7,"[2,5]",rectangle_4,,,,,,,,,,,,,,,,,,,,,,,,,,,,,,,,,,,,,,,,
,,,,,,,,,,,,39,PF,65.33335435,28.66665679,1,0,0,response1disk_5,6,4.5833,-3.999981046,-1.333344102,1,0,0,rectangle_8,-3.999981046,-1.333344102,1,0,0,-3.999981046,-1.333344102,1,0,0,0,5,5,6,1,60fe3d2570935a75dea9fb40,61036b54b33d786f994eba84,2021-07-29_22h01.14.308,Simcolourproject_2stim_asymm_v5,2020.2.10,Win32,60,61025ae37ef11b136ea224fe,,,,,,,,,,,,,,,,,,,,,,,,,,,,,,,,,,,,,,,,,,,,,,
,,,,,,,,,,,,48,FF,38.66668689,72.6666581,1,0,0,response1disk_5,7,4.1499,8.000019312,2.666656017,1,0,0,rectangle_8,8.000019312,2.666656017,1,0,0,8.000019312,2.666656017,1,0,0,0,6,6,0,1,60fe3d2570935a75dea9fb40,61036b54b33d786f994eba84,2021-07-29_22h01.14.308,Simcolourproject_2stim_asymm_v5,2020.2.10,Win32,60,61025ae37ef11b136ea224fe,,,,,,,,,,,,,,,,,,,,,,,,,,,,,,,,,,,,,,,,,,,,,,
,,,,,,,,,,,,,FF,,,,,,,,6.5682,,,,,,,,,,,,,,,,,,,,,,60fe3d2570935a75dea9fb40,61036b54b33d786f994eba84,2021-07-29_22h01.14.308,Simcolourproject_2stim_asymm_v5,2020.2.10,Win32,60,61025ae37ef11b136ea224fe,,,,,,,space,2.8864,2545,32.66668671,-70.6666795,1,0,0,response3disk,,4,2.66668582,-2.666677475,1,0,0,rectangle,2.66668582,-2.666677475,1,0,0,2.66668582,-2.666677475,1,0,0,0,0,0,66,1,,,,,,,,
,,,,,,,,,,,,,FF,,,,,,,,3.0834,,,,,,,,,,,,,,,,,,,,,,60fe3d2570935a75dea9fb40,61036b54b33d786f994eba84,2021-07-29_22h01.14.308,Simcolourproject_2stim_asymm_v5,2020.2.10,Win32,60,61025ae37ef11b136ea224fe,,,,,,,,,219,85.33335495,-36.0000118,1,0,0,response3disk,,5,6.666685939,-2.000010788,1,0,0,rectangle,6.666685939,-2.000010788,1,0,0,6.666685939,-2.000010788,1,0,0,0,1,1,6,1,,,,,,,,
,,,,,,,,,,,,,FF,,,,,,,,2.9334,,,,,,,,,,,,,,,,,,,,,,60fe3d2570935a75dea9fb40,61036b54b33d786f994eba84,2021-07-29_22h01.14.308,Simcolourproject_2stim_asymm_v5,2020.2.10,Win32,60,61025ae37ef11b136ea224fe,,,,,,,,,2680,72.66668791,59.33330403,1,0,0,response1disk,,6,3.333393196,-0.666677415,1,0,0,rectangle,3.333393196,-0.666677415,1,0,0,3.333393196,-0.666677415,1,0,0,0,2,2,14,1,,,,,,,,
,,,,,,,,,,,,,FF,,,,,,,,1.9502,,,,,,,,,,,,,,,,,,,,,,60fe3d2570935a75dea9fb40,61036b54b33d786f994eba84,2021-07-29_22h01.14.308,Simcolourproject_2stim_asymm_v5,2020.2.10,Win32,60,61025ae37ef11b136ea224fe,,,,,,,,,2360,-26.6666077,-66.0000127,1,0,0,response5disk,,3,7.333393315,8.666656196,1,0,0,rectangle,7.333393315,8.666656196,1,0,0,7.333393315,8.666656196,1,0,0,0,3,3,31,1,,,,,,,,
,,,,,,,,,,,,,FF,,,,,,,,1.4168,,,,,,,,,,,,,,,,,,,,,,60fe3d2570935a75dea9fb40,61036b54b33d786f994eba84,2021-07-29_22h01.14.308,Simcolourproject_2stim_asymm_v5,2020.2.10,Win32,60,61025ae37ef11b136ea224fe,,,,,,,,,2996,-23.33331496,-66.0000127,1,0,0,response5disk,,3,-1.3333143,6.666656137,1,0,0,rectangle,-1.3333143,6.666656137,1,0,0,-1.3333143,6.666656137,1,0,0,0,4,4,112,1,,,,,,,,
,,,,,,,,,,,,,FF,,,,,,,,1.4835,,,,,,,,,,,,,,,,,,,,,,60fe3d2570935a75dea9fb40,61036b54b33d786f994eba84,2021-07-29_22h01.14.308,Simcolourproject_2stim_asymm_v5,2020.2.10,Win32,60,61025ae37ef11b136ea224fe,,,,,,,,,1530,-20.66660752,-55.33334571,1,0,0,response5disk,,3,1.9735E-05,-1.333344102,1,0,0,rectangle,1.9735E-05,-1.333344102,1,0,0,1.9735E-05,-1.333344102,1,0,0,0,5,5,4,1,,,,,,,,
,,,,,,,,,,,,,FF,,,,,,,,1.6668,,,,,,,,,,,,,,,,,,,,,,60fe3d2570935a75dea9fb40,61036b54b33d786f994eba84,2021-07-29_22h01.14.308,Simcolourproject_2stim_asymm_v5,2020.2.10,Win32,60,61025ae37ef11b136ea224fe,,,,,,,,,330,26.00001985,53.33330385,1,0,0,response1disk,,7,5.333393256,-10.66667771,1,0,0,rectangle,5.333393256,-10.66667771,1,0,0,5.333393256,-10.66667771,1,0,0,0,6,6,46,1,,,,,,,,
,,,,,,,,,,,,,FF,,,,,,,,2.1834,,,,,,,,,,,,,,,,,,,,,,60fe3d2570935a75dea9fb40,61036b54b33d786f994eba84,2021-07-29_22h01.14.308,Simcolourproject_2stim_asymm_v5,2020.2.10,Win32,60,61025ae37ef11b136ea224fe,,,,,,,,,630,-45.33331561,73.99999148,1,0,0,response7disk,,0,-3.333314359,-6.666677594,1,0,0,rectangle,-3.333314359,-6.666677594,1,0,0,-3.333314359,-6.666677594,1,0,0,0,7,7,134,1,,,,,,,,
,,,,,,,,,,,,,FF,,,,,,,,1.8166,,,,,,,,,,,,,,,,,,,,,,60fe3d2570935a75dea9fb40,61036b54b33d786f994eba84,2021-07-29_22h01.14.308,Simcolourproject_2stim_asymm_v5,2020.2.10,Win32,60,61025ae37ef11b136ea224fe,,,,,,,,,4327,-42.66660817,-22.00001138,1,0,0,response5disk,,2,-13.33331466,5.333322763,1,0,0,rectangle,-13.33331466,5.333322763,1,0,0,-13.33331466,5.333322763,1,0,0,0,8,8,122,1,,,,,,,,
,,,,,,,,,,,,,FF,,,,,,,,1.8334,,,,,,,,,,,,,,,,,,,,,,60fe3d2570935a75dea9fb40,61036b54b33d786f994eba84,2021-07-29_22h01.14.308,Simcolourproject_2stim_asymm_v5,2020.2.10,Win32,60,61025ae37ef11b136ea224fe,,,,,,,,,669,50.66668725,36.66665703,1,0,0,response1disk,,6,10.00001937,-1.333344102,1,0,0,rectangle,10.00001937,-1.333344102,1,0,0,10.00001937,-1.333344102,1,0,0,0,9,9,94,1,,,,,,,,
,,,,,,,,,,,,,FF,,,,,,,,1.3335,,,,,,,,,,,,,,,,,,,,,,60fe3d2570935a75dea9fb40,61036b54b33d786f994eba84,2021-07-29_22h01.14.308,Simcolourproject_2stim_asymm_v5,2020.2.10,Win32,60,61025ae37ef11b136ea224fe,,,,,,,,,1939,32.00002003,85.99999183,1,0,0,response1disk,,7,14.00001949,4.666656077,1,0,0,rectangle,14.00001949,4.666656077,1,0,0,14.00001949,4.666656077,1,0,0,0,10,10,121,1,,,,,,,,
,,,,,,,,,,,,,FF,,,,,,,,1.4002,,,,,,,,,,,,,,,,,,,,,,60fe3d2570935a75dea9fb40,61036b54b33d786f994eba84,2021-07-29_22h01.14.308,Simcolourproject_2stim_asymm_v5,2020.2.10,Win32,60,61025ae37ef11b136ea224fe,,,,,,,,,3080,28.66668659,56.66665763,1,0,0,response1disk,,7,8.666685998,-0.666677415,1,0,0,rectangle,8.666685998,-0.666677415,1,0,0,8.666685998,-0.666677415,1,0,0,0,11,11,129,1,,,,,,,,
,,,,,,,,,,,,,FF,,,,,,,,1.7666,,,,,,,,,,,,,,,,,,,,,,60fe3d2570935a75dea9fb40,61036b54b33d786f994eba84,2021-07-29_22h01.14.308,Simcolourproject_2stim_asymm_v5,2020.2.10,Win32,60,61025ae37ef11b136ea224fe,,,,,,,,,2949,17.33339361,-47.33334547,1,0,0,response3disk,,4,-1.3333143,-2.666677475,1,0,0,rectangle,-1.3333143,-2.666677475,1,0,0,-1.3333143,-2.666677475,1,0,0,0,12,12,62,1,,,,,,,,
,,,,,,,,,,,,,FF,,,,,,,,2.5168,,,,,,,,,,,,,,,,,,,,,,60fe3d2570935a75dea9fb40,61036b54b33d786f994eba84,2021-07-29_22h01.14.308,Simcolourproject_2stim_asymm_v5,2020.2.10,Win32,60,61025ae37ef11b136ea224fe,,,,,,,,,1622,54.00002068,35.33330331,1,0,0,response1disk,,6,13.33339349,2.666656017,1,0,0,rectangle,13.33339349,2.666656017,1,0,0,13.33339349,2.666656017,1,0,0,0,13,13,84,1,,,,,,,,
,,,,,,,,,,,,,FF,,,,,,,,1.35,,,,,,,,,,,,,,,,,,,,,,60fe3d2570935a75dea9fb40,61036b54b33d786f994eba84,2021-07-29_22h01.14.308,Simcolourproject_2stim_asymm_v5,2020.2.10,Win32,60,61025ae37ef11b136ea224fe,,,,,,,,,1730,64.66668767,51.99999082,1,0,0,response1disk,,6,19.33339367,4.666656077,1,0,0,rectangle,19.33339367,4.666656077,1,0,0,19.33339367,4.666656077,1,0,0,0,14,14,26,1,,,,,,,,
,,,,,,,,,,,,,FF,,,,,,,,3.3499,,,,,,,,,,,,,,,,,,,,,,60fe3d2570935a75dea9fb40,61036b54b33d786f994eba84,2021-07-29_22h01.14.308,Simcolourproject_2stim_asymm_v5,2020.2.10,Win32,60,61025ae37ef11b136ea224fe,,,,,,,,,3373,47.33335382,-26.66667819,1,0,0,response3disk,,5,19.33339367,-4.666677535,1,0,0,rectangle,19.33339367,-4.666677535,1,0,0,19.33339367,-4.666677535,1,0,0,0,15,15,141,1,,,,,,,,
,,,,,,,,,,,,,FF,,,,,,,,2.1333,,,,,,,,,,,,,,,,,,,,,,60fe3d2570935a75dea9fb40,61036b54b33d786f994eba84,2021-07-29_22h01.14.308,Simcolourproject_2stim_asymm_v5,2020.2.10,Win32,60,61025ae37ef11b136ea224fe,,,,,,,,,3925,-28.66660776,-60.00001252,1,0,0,response5disk,,3,0.66668576,4.666656077,1,0,0,rectangle,0.66668576,4.666656077,1,0,0,0.66668576,4.666656077,1,0,0,0,16,16,151,1,,,,,,,,
,,,,,,,,,,,,,FF,,,,,,,,3.8,,,,,,,,,,,,,,,,,,,,,,60fe3d2570935a75dea9fb40,61036b54b33d786f994eba84,2021-07-29_22h01.14.308,Simcolourproject_2stim_asymm_v5,2020.2.10,Win32,60,61025ae37ef11b136ea224fe,,,,,,,,,2231,-49.33331573,-26.0000115,1,0,0,response5disk,,2,-15.33331472,7.99998951,1,0,0,rectangle,-15.33331472,7.99998951,1,0,0,-15.33331472,7.99998951,1,0,0,0,17,17,63,1,,,,,,,,
,,,,,,,,,,,,,FF,,,,,,,,3.4167,,,,,,,,,,,,,,,,,,,,,,60fe3d2570935a75dea9fb40,61036b54b33d786f994eba84,2021-07-29_22h01.14.308,Simcolourproject_2stim_asymm_v5,2020.2.10,Win32,60,61025ae37ef11b136ea224fe,,,,,,,,,570,52.66668731,20.66665655,1,0,0,response1disk,,6,10.00001937,0.666655958,1,0,0,rectangle,10.00001937,0.666655958,1,0,0,10.00001937,0.666655958,1,0,0,0,18,18,107,1,,,,,,,,
,,,,,,,,,,,,,FF,,,,,,,,3.75,,,,,,,,,,,,,,,,,,,,,,60fe3d2570935a75dea9fb40,61036b54b33d786f994eba84,2021-07-29_22h01.14.308,Simcolourproject_2stim_asymm_v5,2020.2.10,Win32,60,61025ae37ef11b136ea224fe,,,,,,,,,3140,26.00001985,-57.33334577,1,0,0,response3disk,,4,-3.333314359,-4.000010848,1,0,0,rectangle,-3.333314359,-4.000010848,1,0,0,-3.333314359,-4.000010848,1,0,0,0,19,19,139,1,,,,,,,,
,,,,,,,,,,,,,FF,,,,,,,,1.8502,,,,,,,,,,,,,,,,,,,,,,60fe3d2570935a75dea9fb40,61036b54b33d786f994eba84,2021-07-29_22h01.14.308,Simcolourproject_2stim_asymm_v5,2020.2.10,Win32,60,61025ae37ef11b136ea224fe,,,,,,,,,4286,73.33335459,61.33330409,1,0,0,response1disk,,6,0.66668576,-0.666677415,1,0,0,rectangle,0.66668576,-0.666677415,1,0,0,0.66668576,-0.666677415,1,0,0,0,20,20,85,1,,,,,,,,
,,,,,,,,,,,,,FF,,,,,,,,8.0496,,,,,,,,,,,,,,,,,,,,,,60fe3d2570935a75dea9fb40,61036b54b33d786f994eba84,2021-07-29_22h01.14.308,Simcolourproject_2stim_asymm_v5,2020.2.10,Win32,60,61025ae37ef11b136ea224fe,,,,,,,,,2595,-49.33331573,-86.00001329,1,0,0,response5disk,,3,-13.33331466,13.333323,1,0,0,rectangle,-13.33331466,13.333323,1,0,0,-13.33331466,13.333323,1,0,0,0,21,21,109,1,,,,,,,,
,,,,,,,,,,,,,FF,,,,,,,,6.2166,,,,,,,,,,,,,,,,,,,,,,60fe3d2570935a75dea9fb40,61036b54b33d786f994eba84,2021-07-29_22h01.14.308,Simcolourproject_2stim_asymm_v5,2020.2.10,Win32,60,61025ae37ef11b136ea224fe,,,,,,,,,2109,24.00001979,-62.00001258,1,0,0,response3disk,,4,-9.333314538,5.333322763,1,0,0,rectangle,-9.333314538,5.333322763,1,0,0,-9.333314538,5.333322763,1,0,0,0,22,22,100,1,,,,,,,,
,,,,,,,,,,,,,FF,,,,,,,,2.1168,,,,,,,,,,,,,,,,,,,,,,60fe3d2570935a75dea9fb40,61036b54b33d786f994eba84,2021-07-29_22h01.14.308,Simcolourproject_2stim_asymm_v5,2020.2.10,Win32,60,61025ae37ef11b136ea224fe,,,,,,,,,4167,69.33335447,36.66665703,1,0,0,response1disk,,6,-5.333314419,-6.666677594,1,0,0,rectangle,-5.333314419,-6.666677594,1,0,0,-5.333314419,-6.666677594,1,0,0,0,23,23,93,1,,,,,,,,
,,,,,,,,,,,,,FF,,,,,,,,5.5999,,,,,,,,,,,,,,,,,,,,,,60fe3d2570935a75dea9fb40,61036b54b33d786f994eba84,2021-07-29_22h01.14.308,Simcolourproject_2stim_asymm_v5,2020.2.10,Win32,60,61025ae37ef11b136ea224fe,,,,,,,,,2882,-46.66660829,-72.66667956,1,0,0,response5disk,,3,-3.999981046,2.666656017,1,0,0,rectangle,-3.999981046,2.666656017,1,0,0,-3.999981046,2.666656017,1,0,0,0,24,24,156,1,,,,,,,,
,,,,,,,,,,,,,FF,,,,,,,,1.4503,,,,,,,,,,,,,,,,,,,,,,60fe3d2570935a75dea9fb40,61036b54b33d786f994eba84,2021-07-29_22h01.14.308,Simcolourproject_2stim_asymm_v5,2020.2.10,Win32,60,61025ae37ef11b136ea224fe,,,,,,,,,1855,92.6666885,-34.66667843,1,0,0,response3disk,,5,0.66668576,-4.000010848,1,0,0,rectangle,0.66668576,-4.000010848,1,0,0,0.66668576,-4.000010848,1,0,0,0,25,25,71,1,,,,,,,,
,,,,,,,,,,,,,FF,,,,,,,,1.3834,,,,,,,,,,,,,,,,,,,,,,60fe3d2570935a75dea9fb40,61036b54b33d786f994eba84,2021-07-29_22h01.14.308,Simcolourproject_2stim_asymm_v5,2020.2.10,Win32,60,61025ae37ef11b136ea224fe,,,,,,,,,2905,52.00002062,27.33330307,1,0,0,response1disk,,6,15.33339355,7.99998951,1,0,0,rectangle,15.33339355,7.99998951,1,0,0,15.33339355,7.99998951,1,0,0,0,26,26,81,1,,,,,,,,
,,,,,,,,,,,,,FF,,,,,,,,2.1001,,,,,,,,,,,,,,,,,,,,,,60fe3d2570935a75dea9fb40,61036b54b33d786f994eba84,2021-07-29_22h01.14.308,Simcolourproject_2stim_asymm_v5,2020.2.10,Win32,60,61025ae37ef11b136ea224fe,,,,,,,,,3970,-23.33331496,-63.33334595,1,0,0,response5disk,,3,12.00001943,13.99998969,1,0,0,rectangle,12.00001943,13.99998969,1,0,0,12.00001943,13.99998969,1,0,0,0,27,27,3,1,,,,,,,,
,,,,,,,,,,,,,FF,,,,,,,,1.5834,,,,,,,,,,,,,,,,,,,,,,60fe3d2570935a75dea9fb40,61036b54b33d786f994eba84,2021-07-29_22h01.14.308,Simcolourproject_2stim_asymm_v5,2020.2.10,Win32,60,61025ae37ef11b136ea224fe,,,,,,,,,866,72.66668791,-32.66667837,1,0,0,response3disk,,5,18.00001961,-0.666677415,1,0,0,rectangle,-71.99998307,-37.33334517,1,0,0,-18.66660746,6.666656137,1,0,0,0,28,28,54,1,,response5disk_3,TRUE,2,2,"[81,282,90,175,124,131,29,184,131,226,316,158,35,67,315,250,274,88,106,41]",2.6339,rectangle
,,,,,,,,,,,,,FF,,,,,,,,3.7332,,,,,,,,,,,,,,,,,,,,,,60fe3d2570935a75dea9fb40,61036b54b33d786f994eba84,2021-07-29_22h01.14.308,Simcolourproject_2stim_asymm_v5,2020.2.10,Win32,60,61025ae37ef11b136ea224fe,,,,,,,,,2440,82.6666882,39.99999046,1,0,0,response1disk,,6,8.666685998,-5.333344221,1,0,0,rectangle,8.666685998,-5.333344221,1,0,0,8.666685998,-5.333344221,1,0,0,0,29,29,7,1,,,,,,,,
,,,,,,,,,,,,,FF,,,,,,,,1.2168,,,,,,,,,,,,,,,,,,,,,,60fe3d2570935a75dea9fb40,61036b54b33d786f994eba84,2021-07-29_22h01.14.308,Simcolourproject_2stim_asymm_v5,2020.2.10,Win32,60,61025ae37ef11b136ea224fe,,,,,,,,,2262,58.0000208,49.33330373,1,0,0,response1disk,,6,-6.666607102,5.333322763,1,0,0,rectangle,-6.666607102,5.333322763,1,0,0,-6.666607102,5.333322763,1,0,0,0,30,30,55,1,,,,,,,,
,,,,,,,,,,,,,FF,,,,,,,,3.7331,,,,,,,,,,,,,,,,,,,,,,60fe3d2570935a75dea9fb40,61036b54b33d786f994eba84,2021-07-29_22h01.14.308,Simcolourproject_2stim_asymm_v5,2020.2.10,Win32,60,61025ae37ef11b136ea224fe,,,,,,,,,1286,-61.99998277,34.66665697,1,0,0,response7disk,,1,-15.33331472,5.333322763,1,0,0,rectangle,-15.33331472,5.333322763,1,0,0,-15.33331472,5.333322763,1,0,0,0,31,31,36,1,,,,,,,,
,,,,,,,,,,,,,FF,,,,,,,,1.567,,,,,,,,,,,,,,,,,,,,,,60fe3d2570935a75dea9fb40,61036b54b33d786f994eba84,2021-07-29_22h01.14.308,Simcolourproject_2stim_asymm_v5,2020.2.10,Win32,60,61025ae37ef11b136ea224fe,,,,,,,,,2195,30.00001997,-68.00001276,1,0,0,response3disk,,4,8.666685998,-4.000010848,1,0,0,rectangle,8.666685998,-4.000010848,1,0,0,8.666685998,-4.000010848,1,0,0,0,32,32,52,1,,,,,,,,
,,,,,,,,,,,,,FF,,,,,,,,1.8302,,,,,,,,,,,,,,,,,,,,,,60fe3d2570935a75dea9fb40,61036b54b33d786f994eba84,2021-07-29_22h01.14.308,Simcolourproject_2stim_asymm_v5,2020.2.10,Win32,60,61025ae37ef11b136ea224fe,,,,,,,,,1970,-54.66660853,37.9999904,1,0,0,response7disk,,1,-14.66660734,12.66665632,1,0,0,rectangle,-14.66660734,12.66665632,1,0,0,-14.66660734,12.66665632,1,0,0,0,33,33,113,1,,,,,,,,
,,,,,,,,,,,,,FF,,,,,,,,1.3167,,,,,,,,,,,,,,,,,,,,,,60fe3d2570935a75dea9fb40,61036b54b33d786f994eba84,2021-07-29_22h01.14.308,Simcolourproject_2stim_asymm_v5,2020.2.10,Win32,60,61025ae37ef11b136ea224fe,,,,,,,,,3585,72.66668791,40.66665715,1,0,0,response1disk,,6,-7.333314478,-7.333344281,1,0,0,rectangle,-54.66660853,27.99999011,1,0,0,-10.66660722,7.99998951,1,0,0,0,34,34,131,1,,response7disk_3,TRUE,1,1,"[81,282,90,175,124,131,29,184,131,226,316,158,35,67,315,250,274,88,106,41]",2.1665,rectangle
,,,,,,,,,,,,,FF,,,,,,,,4.1801,,,,,,,,,,,,,,,,,,,,,,60fe3d2570935a75dea9fb40,61036b54b33d786f994eba84,2021-07-29_22h01.14.308,Simcolourproject_2stim_asymm_v5,2020.2.10,Win32,60,61025ae37ef11b136ea224fe,,,,,,,,,2730,87.33335501,-46.0000121,1,0,0,response3disk,,5,-3.999981046,-2.000010788,1,0,0,rectangle,-3.999981046,-2.000010788,1,0,0,-3.999981046,-2.000010788,1,0,0,0,35,35,88,1,,,,,,,,
,,,,,,,,,,,,,FF,,,,,,,,8.547,,,,,,,,,,,,,,,,,,,,,,60fe3d2570935a75dea9fb40,61036b54b33d786f994eba84,2021-07-29_22h01.14.308,Simcolourproject_2stim_asymm_v5,2020.2.10,Win32,60,61025ae37ef11b136ea224fe,,,,,,,,,1734,72.66668791,-37.33334517,1,0,0,response3disk,,5,-3.333314359,13.99998969,1,0,0,rectangle,-3.333314359,13.99998969,1,0,0,-3.333314359,13.99998969,1,0,0,0,36,36,150,1,,,,,,,,
,,,,,,,,,,,,,FF,,,,,,,,2.8297,,,,,,,,,,,,,,,,,,,,,,60fe3d2570935a75dea9fb40,61036b54b33d786f994eba84,2021-07-29_22h01.14.308,Simcolourproject_2stim_asymm_v5,2020.2.10,Win32,60,61025ae37ef11b136ea224fe,,,,,,,,,1189,88.66668838,34.66665697,1,0,0,response1disk,,6,-1.999980986,-10.66667771,1,0,0,rectangle,-1.999980986,-10.66667771,1,0,0,-1.999980986,-10.66667771,1,0,0,0,37,37,154,1,,,,,,,,
,,,,,,,,,,,,,FF,,,,,,,,1.285,,,,,,,,,,,,,,,,,,,,,,60fe3d2570935a75dea9fb40,61036b54b33d786f994eba84,2021-07-29_22h01.14.308,Simcolourproject_2stim_asymm_v5,2020.2.10,Win32,60,61025ae37ef11b136ea224fe,,,,,,,,,1585,75.33335465,53.33330385,1,0,0,response1disk,,6,5.333393256,2.666656017,1,0,0,rectangle,5.333393256,2.666656017,1,0,0,5.333393256,2.666656017,1,0,0,0,38,38,37,1,,,,,,,,
,,,,,,,,,,,,,FF,,,,,,,,1.5014,,,,,,,,,,,,,,,,,,,,,,60fe3d2570935a75dea9fb40,61036b54b33d786f994eba84,2021-07-29_22h01.14.308,Simcolourproject_2stim_asymm_v5,2020.2.10,Win32,60,61025ae37ef11b136ea224fe,,,,,,,,,3874,61.33335423,39.33330343,1,0,0,response1disk,,6,1.333393137,5.333322763,1,0,0,rectangle,1.333393137,5.333322763,1,0,0,1.333393137,5.333322763,1,0,0,0,39,39,158,1,,,,,,,,
,,,,,,,,,,,,,FF,,,,,,,,1.468,,,,,,,,,,,,,,,,,,,,,,60fe3d2570935a75dea9fb40,61036b54b33d786f994eba84,2021-07-29_22h01.14.308,Simcolourproject_2stim_asymm_v5,2020.2.10,Win32,60,61025ae37ef11b136ea224fe,,,,,,,,,3897,52.66668731,39.99999046,1,0,0,response1disk,,6,14.66668618,6.666656137,1,0,0,rectangle,-29.33331513,-58.66667914,1,0,0,2.000019133,4.666656077,1,0,0,0,40,40,16,1,,response5disk_3,TRUE,3,3,"[81,282,90,175,124,131,29,184,131,226,316,158,35,67,315,250,274,88,106,41]",3.0832,rectangle
,,,,,,,,,,,,,FF,,,,,,,,1.5348,,,,,,,,,,,,,,,,,,,,,,60fe3d2570935a75dea9fb40,61036b54b33d786f994eba84,2021-07-29_22h01.14.308,Simcolourproject_2stim_asymm_v5,2020.2.10,Win32,60,61025ae37ef11b136ea224fe,,,,,,,,,1772,59.33335418,31.99999022,1,0,0,response1disk,,6,17.33339361,-2.666677475,1,0,0,rectangle,17.33339361,-2.666677475,1,0,0,17.33339361,-2.666677475,1,0,0,0,41,41,90,1,,,,,,,,
,,,,,,,,,,,,,FF,,,,,,,,1.9347,,,,,,,,,,,,,,,,,,,,,,60fe3d2570935a75dea9fb40,61036b54b33d786f994eba84,2021-07-29_22h01.14.308,Simcolourproject_2stim_asymm_v5,2020.2.10,Win32,60,61025ae37ef11b136ea224fe,,,,,,,,,1107,68.0000211,41.99999052,1,0,0,response1disk,,6,10.66668606,-6.000010908,1,0,0,rectangle,10.66668606,-6.000010908,1,0,0,10.66668606,-6.000010908,1,0,0,0,42,42,53,1,,,,,,,,
,,,,,,,,,,,,,FF,,,,,,,,1.6708,,,,,,,,,,,,,,,,,,,,,,60fe3d2570935a75dea9fb40,61036b54b33d786f994eba84,2021-07-29_22h01.14.308,Simcolourproject_2stim_asymm_v5,2020.2.10,Win32,60,61025ae37ef11b136ea224fe,,,,,,,,,4089,48.0000205,26.66665673,1,0,0,response1disk,,6,11.33339343,-4.000010848,1,0,0,rectangle,11.33339343,-4.000010848,1,0,0,11.33339343,-4.000010848,1,0,0,0,43,43,83,1,,,,,,,,
,,,,,,,,,,,,,FF,,,,,,,,1.3002,,,,,,,,,,,,,,,,,,,,,,60fe3d2570935a75dea9fb40,61036b54b33d786f994eba84,2021-07-29_22h01.14.308,Simcolourproject_2stim_asymm_v5,2020.2.10,Win32,60,61025ae37ef11b136ea224fe,,,,,,,,,2379,68.66668779,38.66665709,1,0,0,response1disk,,6,20.66668636,-3.333344162,1,0,0,rectangle,20.66668636,-3.333344162,1,0,0,20.66668636,-3.333344162,1,0,0,0,44,44,48,1,,,,,,,,
,,,,,,,,,,,,,FF,,,,,,,,2.0804,,,,,,,,,,,,,,,,,,,,,,60fe3d2570935a75dea9fb40,61036b54b33d786f994eba84,2021-07-29_22h01.14.308,Simcolourproject_2stim_asymm_v5,2020.2.10,Win32,60,61025ae37ef11b136ea224fe,,,,,,,,,3468,-21.99998158,53.99999088,1,0,0,response7disk,,0,2.66668582,-4.000010848,1,0,0,rectangle,2.66668582,-4.000010848,1,0,0,2.66668582,-4.000010848,1,0,0,0,45,45,143,1,,,,,,,,
,,,,,,,,,,,,,FF,,,,,,,,32.7159,,,,,,,,,,,,,,,,,,,,,,60fe3d2570935a75dea9fb40,61036b54b33d786f994eba84,2021-07-29_22h01.14.308,Simcolourproject_2stim_asymm_v5,2020.2.10,Win32,60,61025ae37ef11b136ea224fe,,,,,,,,,3625,68.0000211,41.33330349,1,0,0,response1disk,,6,-3.333314359,5.99998945,1,0,0,rectangle,-3.333314359,5.99998945,1,0,0,-3.333314359,5.99998945,1,0,0,0,46,46,125,1,,,,,,,,
,,,,,,,,,,,,,FF,,,,,,,,1.2472,,,,,,,,,,,,,,,,,,,,,,60fe3d2570935a75dea9fb40,61036b54b33d786f994eba84,2021-07-29_22h01.14.308,Simcolourproject_2stim_asymm_v5,2020.2.10,Win32,60,61025ae37ef11b136ea224fe,,,,,,,,,3105,52.00002062,35.99999034,1,0,0,response1disk,,6,13.33339349,9.333322883,1,0,0,rectangle,13.33339349,9.333322883,1,0,0,13.33339349,9.333322883,1,0,0,0,47,47,44,1,,,,,,,,
,,,,,,,,,,,,,FF,,,,,,,,1.3009,,,,,,,,,,,,,,,,,,,,,,60fe3d2570935a75dea9fb40,61036b54b33d786f994eba84,2021-07-29_22h01.14.308,Simcolourproject_2stim_asymm_v5,2020.2.10,Win32,60,61025ae37ef11b136ea224fe,,,,,,,,,4042,62.00002092,45.99999064,1,0,0,response1disk,,6,7.333393315,3.333322704,1,0,0,rectangle,7.333393315,3.333322704,1,0,0,7.333393315,3.333322704,1,0,0,0,48,48,17,1,,,,,,,,
,,,,,,,,,,,,,FF,,,,,,,,1.6881,,,,,,,,,,,,,,,,,,,,,,60fe3d2570935a75dea9fb40,61036b54b33d786f994eba84,2021-07-29_22h01.14.308,Simcolourproject_2stim_asymm_v5,2020.2.10,Win32,60,61025ae37ef11b136ea224fe,,,,,,,,,2747,56.66668743,31.99999022,1,0,0,response1disk,,6,6.666685939,-1.333344102,1,0,0,rectangle,6.666685939,-1.333344102,1,0,0,6.666685939,-1.333344102,1,0,0,0,49,49,2,1,,,,,,,,
,,,,,,,,,,,,,FF,,,,,,,,2.0175,,,,,,,,,,,,,,,,,,,,,,60fe3d2570935a75dea9fb40,61036b54b33d786f994eba84,2021-07-29_22h01.14.308,Simcolourproject_2stim_asymm_v5,2020.2.10,Win32,60,61025ae37ef11b136ea224fe,,,,,,,,,3999,70.00002116,48.66665739,1,0,0,response1disk,,6,-5.999981105,-6.666677594,1,0,0,rectangle,-5.999981105,-6.666677594,1,0,0,-5.999981105,-6.666677594,1,0,0,0,50,50,67,1,,,,,,,,
,,,,,,,,,,,,,FF,,,,,,,,1.3522,,,,,,,,,,,,,,,,,,,,,,60fe3d2570935a75dea9fb40,61036b54b33d786f994eba84,2021-07-29_22h01.14.308,Simcolourproject_2stim_asymm_v5,2020.2.10,Win32,60,61025ae37ef11b136ea224fe,,,,,,,,,3336,-36.666608,51.99999082,1,0,0,response7disk,,0,-13.33331466,1.333322644,1,0,0,rectangle,-13.33331466,1.333322644,1,0,0,-13.33331466,1.333322644,1,0,0,0,51,51,20,1,,,,,,,,
,,,,,,,,,,,,,FF,,,,,,,,2.2639,,,,,,,,,,,,,,,,,,,,,,60fe3d2570935a75dea9fb40,61036b54b33d786f994eba84,2021-07-29_22h01.14.308,Simcolourproject_2stim_asymm_v5,2020.2.10,Win32,60,61025ae37ef11b136ea224fe,,,,,,,,,3518,-45.33331561,-56.66667908,1,0,0,response5disk,,3,-5.999981105,-1.333344102,1,0,0,rectangle,-5.999981105,-1.333344102,1,0,0,-5.999981105,-1.333344102,1,0,0,0,52,52,103,1,,,,,,,,
,,,,,,,,,,,,,FF,,,,,,,,1.6182,,,,,,,,,,,,,,,,,,,,,,60fe3d2570935a75dea9fb40,61036b54b33d786f994eba84,2021-07-29_22h01.14.308,Simcolourproject_2stim_asymm_v5,2020.2.10,Win32,60,61025ae37ef11b136ea224fe,,,,,,,,,3865,64.00002098,35.33330331,1,0,0,response1disk,,6,7.333393315,-6.666677594,1,0,0,rectangle,7.333393315,-6.666677594,1,0,0,7.333393315,-6.666677594,1,0,0,0,53,53,144,1,,,,,,,,
,,,,,,,,,,,,,FF,,,,,,,,2.1877,,,,,,,,,,,,,,,,,,,,,,60fe3d2570935a75dea9fb40,61036b54b33d786f994eba84,2021-07-29_22h01.14.308,Simcolourproject_2stim_asymm_v5,2020.2.10,Win32,60,61025ae37ef11b136ea224fe,,,,,,,,,3054,-44.66660823,-20.00001132,1,0,0,response5disk,,2,-18.66660746,-1.07288E-05,1,0,0,rectangle,-18.66660746,-1.07288E-05,1,0,0,-18.66660746,-1.07288E-05,1,0,0,0,54,54,5,1,,,,,,,,
,,,,,,,,,,,,,FF,,,,,,,,1.2343,,,,,,,,,,,,,,,,,,,,,,60fe3d2570935a75dea9fb40,61036b54b33d786f994eba84,2021-07-29_22h01.14.308,Simcolourproject_2stim_asymm_v5,2020.2.10,Win32,60,61025ae37ef11b136ea224fe,,,,,,,,,936,52.66668731,39.33330343,1,0,0,response1disk,,6,3.333393196,2.666656017,1,0,0,rectangle,3.333393196,2.666656017,1,0,0,3.333393196,2.666656017,1,0,0,0,55,55,140,1,,,,,,,,
,,,,,,,,,,,,,FF,,,,,,,,1.2972,,,,,,,,,,,,,,,,,,,,,,60fe3d2570935a75dea9fb40,61036b54b33d786f994eba84,2021-07-29_22h01.14.308,Simcolourproject_2stim_asymm_v5,2020.2.10,Win32,60,61025ae37ef11b136ea224fe,,,,,,,,,746,18.00001961,63.33330415,1,0,0,response1disk,,7,-0.666606923,-6.000010908,1,0,0,rectangle,-0.666606923,-6.000010908,1,0,0,-0.666606923,-6.000010908,1,0,0,0,56,56,105,1,,,,,,,,
,,,,,,,,,,,,,FF,,,,,,,,1.5709,,,,,,,,,,,,,,,,,,,,,,60fe3d2570935a75dea9fb40,61036b54b33d786f994eba84,2021-07-29_22h01.14.308,Simcolourproject_2stim_asymm_v5,2020.2.10,Win32,60,61025ae37ef11b136ea224fe,,,,,,,,,3804,34.66668677,64.66665787,1,0,0,response1disk,,7,4.000019193,-5.333344221,1,0,0,rectangle,4.000019193,-5.333344221,1,0,0,4.000019193,-5.333344221,1,0,0,0,57,57,79,1,,,,,,,,
,,,,,,,,,,,,,FF,,,,,,,,1.7009,,,,,,,,,,,,,,,,,,,,,,60fe3d2570935a75dea9fb40,61036b54b33d786f994eba84,2021-07-29_22h01.14.308,Simcolourproject_2stim_asymm_v5,2020.2.10,Win32,60,61025ae37ef11b136ea224fe,,,,,,,,,4035,59.33335418,47.33330367,1,0,0,response1disk,,6,-3.999981046,5.99998945,1,0,0,rectangle,-3.999981046,5.99998945,1,0,0,-3.999981046,5.99998945,1,0,0,0,58,58,57,1,,,,,,,,
,,,,,,,,,,,,,FF,,,,,,,,1.3015,,,,,,,,,,,,,,,,,,,,,,60fe3d2570935a75dea9fb40,61036b54b33d786f994eba84,2021-07-29_22h01.14.308,Simcolourproject_2stim_asymm_v5,2020.2.10,Win32,60,61025ae37ef11b136ea224fe,,,,,,,,,3290,-38.66660806,59.33330403,1,0,0,response7disk,,0,-11.3333146,-5.333344221,1,0,0,rectangle,-11.3333146,-5.333344221,1,0,0,-11.3333146,-5.333344221,1,0,0,0,59,59,102,1,,,,,,,,
,,,,,,,,,,,,,FF,,,,,,,,1.9512,,,,,,,,,,,,,,,,,,,,,,60fe3d2570935a75dea9fb40,61036b54b33d786f994eba84,2021-07-29_22h01.14.308,Simcolourproject_2stim_asymm_v5,2020.2.10,Win32,60,61025ae37ef11b136ea224fe,,,,,,,,,791,-53.33331585,-23.33334476,1,0,0,response5disk,,2,-12.66660728,5.99998945,1,0,0,rectangle,-12.66660728,5.99998945,1,0,0,-12.66660728,5.99998945,1,0,0,0,60,60,97,1,,,,,,,,
,,,,,,,,,,,,,FF,,,,,,,,1.2349,,,,,,,,,,,,,,,,,,,,,,60fe3d2570935a75dea9fb40,61036b54b33d786f994eba84,2021-07-29_22h01.14.308,Simcolourproject_2stim_asymm_v5,2020.2.10,Win32,60,61025ae37ef11b136ea224fe,,,,,,,,,3049,-66.66660889,-30.66667831,1,0,0,response5disk,,2,-21.3333149,-2.000010788,1,0,0,rectangle,-21.3333149,-2.000010788,1,0,0,-21.3333149,-2.000010788,1,0,0,0,61,61,61,1,,,,,,,,
,,,,,,,,,,,,,FF,,,,,,,,2.3514,,,,,,,,,,,,,,,,,,,,,,60fe3d2570935a75dea9fb40,61036b54b33d786f994eba84,2021-07-29_22h01.14.308,Simcolourproject_2stim_asymm_v5,2020.2.10,Win32,60,61025ae37ef11b136ea224fe,,,,,,,,,974,-33.33331525,-59.33334583,1,0,0,response5disk,,3,-5.333314419,-4.000010848,1,0,0,rectangle,-5.333314419,-4.000010848,1,0,0,-5.333314419,-4.000010848,1,0,0,0,62,62,47,1,,,,,,,,
,,,,,,,,,,,,,FF,,,,,,,,1.3507,,,,,,,,,,,,,,,,,,,,,,60fe3d2570935a75dea9fb40,61036b54b33d786f994eba84,2021-07-29_22h01.14.308,Simcolourproject_2stim_asymm_v5,2020.2.10,Win32,60,61025ae37ef11b136ea224fe,,,,,,,,,17,56.00002074,42.66665721,1,0,0,response1disk,,6,7.333393315,0.666655958,1,0,0,rectangle,7.333393315,0.666655958,1,0,0,7.333393315,0.666655958,1,0,0,0,63,63,142,1,,,,,,,,
,,,,,,,,,,,,,FF,,,,,,,,1.1379,,,,,,,,,,,,,,,,,,,,,,60fe3d2570935a75dea9fb40,61036b54b33d786f994eba84,2021-07-29_22h01.14.308,Simcolourproject_2stim_asymm_v5,2020.2.10,Win32,60,61025ae37ef11b136ea224fe,,,,,,,,,4084,56.00002074,42.66665721,1,0,0,response1disk,,6,14.00001949,6.666656137,1,0,0,rectangle,14.00001949,6.666656137,1,0,0,14.00001949,6.666656137,1,0,0,0,64,64,22,1,,,,,,,,
,,,,,,,,,,,,,FF,,,,,,,,3.7383,,,,,,,,,,,,,,,,,,,,,,60fe3d2570935a75dea9fb40,61036b54b33d786f994eba84,2021-07-29_22h01.14.308,Simcolourproject_2stim_asymm_v5,2020.2.10,Win32,60,61025ae37ef11b136ea224fe,,,,,,,,,3039,-57.99998266,-78.66667974,1,0,0,response5disk,,3,-20.66660752,1.999989331,1,0,0,rectangle,-20.66660752,1.999989331,1,0,0,-20.66660752,1.999989331,1,0,0,0,65,65,21,1,,,,,,,,
,,,,,,,,,,,,,FF,,,,,,,,2.2211,,,,,,,,,,,,,,,,,,,,,,60fe3d2570935a75dea9fb40,61036b54b33d786f994eba84,2021-07-29_22h01.14.308,Simcolourproject_2stim_asymm_v5,2020.2.10,Win32,60,61025ae37ef11b136ea224fe,,,,,,,,,761,38.00002021,-58.66667914,1,0,0,response3disk,,4,-4.666607042,-1.07288E-05,1,0,0,rectangle,-49.33331573,-76.66667968,1,0,0,-9.999981225,2.666656017,1,0,0,0,66,66,133,1,,response5disk_3,TRUE,3,3,"[81,282,90,175,124,131,29,184,131,226,316,158,35,67,315,250,274,88,106,41]",2.8499,rectangle
,,,,,,,,,,,,,FF,,,,,,,,1.868,,,,,,,,,,,,,,,,,,,,,,60fe3d2570935a75dea9fb40,61036b54b33d786f994eba84,2021-07-29_22h01.14.308,Simcolourproject_2stim_asymm_v5,2020.2.10,Win32,60,61025ae37ef11b136ea224fe,,,,,,,,,2734,66.00002104,-34.00001174,1,0,0,response3disk,,5,10.66668606,-5.333344221,1,0,0,rectangle,10.66668606,-5.333344221,1,0,0,10.66668606,-5.333344221,1,0,0,0,67,67,153,1,,,,,,,,
,,,,,,,,,,,,,FF,,,,,,,,2.2343,,,,,,,,,,,,,,,,,,,,,,60fe3d2570935a75dea9fb40,61036b54b33d786f994eba84,2021-07-29_22h01.14.308,Simcolourproject_2stim_asymm_v5,2020.2.10,Win32,60,61025ae37ef11b136ea224fe,,,,,,,,,3990,16.66668624,-53.33334565,1,0,0,response3disk,,4,6.000019252,9.999989569,1,0,0,rectangle,6.000019252,9.999989569,1,0,0,6.000019252,9.999989569,1,0,0,0,68,68,99,1,,,,,,,,
,,,,,,,,,,,,,FF,,,,,,,,1.297,,,,,,,,,,,,,,,,,,,,,,60fe3d2570935a75dea9fb40,61036b54b33d786f994eba84,2021-07-29_22h01.14.308,Simcolourproject_2stim_asymm_v5,2020.2.10,Win32,60,61025ae37ef11b136ea224fe,,,,,,,,,3841,57.33335412,38.66665709,1,0,0,response1disk,,6,4.000019193,-6.666677594,1,0,0,rectangle,4.000019193,-6.666677594,1,0,0,4.000019193,-6.666677594,1,0,0,0,69,69,128,1,,,,,,,,
,,,,,,,,,,,,,FF,,,,,,,,1.9497,,,,,,,,,,,,,,,,,,,,,,60fe3d2570935a75dea9fb40,61036b54b33d786f994eba84,2021-07-29_22h01.14.308,Simcolourproject_2stim_asymm_v5,2020.2.10,Win32,60,61025ae37ef11b136ea224fe,,,,,,,,,2184,58.66668749,42.66665721,1,0,0,response1disk,,6,3.333393196,-1.07288E-05,1,0,0,rectangle,3.333393196,-1.07288E-05,1,0,0,3.333393196,-1.07288E-05,1,0,0,0,70,70,80,1,,,,,,,,
,,,,,,,,,,,,,FF,,,,,,,,1.0847,,,,,,,,,,,,,,,,,,,,,,60fe3d2570935a75dea9fb40,61036b54b33d786f994eba84,2021-07-29_22h01.14.308,Simcolourproject_2stim_asymm_v5,2020.2.10,Win32,60,61025ae37ef11b136ea224fe,,,,,,,,,3178,68.66668779,38.66665709,1,0,0,response1disk,,6,12.00001943,3.99998939,1,0,0,rectangle,12.00001943,3.99998939,1,0,0,12.00001943,3.99998939,1,0,0,0,71,71,114,1,,,,,,,,
,,,,,,,,,,,,,FF,,,,,,,,2.4138,,,,,,,,,,,,,,,,,,,,,,60fe3d2570935a75dea9fb40,61036b54b33d786f994eba84,2021-07-29_22h01.14.308,Simcolourproject_2stim_asymm_v5,2020.2.10,Win32,60,61025ae37ef11b136ea224fe,,,,,,,,,2172,24.66668648,-61.33334589,1,0,0,response3disk,,4,-1.3333143,8.666656196,1,0,0,rectangle,-1.3333143,8.666656196,1,0,0,-1.3333143,8.666656196,1,0,0,0,72,72,38,1,,,,,,,,
,,,,,,,,,,,,,FF,,,,,,,,1.2173,,,,,,,,,,,,,,,,,,,,,,60fe3d2570935a75dea9fb40,61036b54b33d786f994eba84,2021-07-29_22h01.14.308,Simcolourproject_2stim_asymm_v5,2020.2.10,Win32,60,61025ae37ef11b136ea224fe,,,,,,,,,2825,30.66668665,-51.33334559,1,0,0,response3disk,,4,14.66668618,6.666656137,1,0,0,rectangle,14.66668618,6.666656137,1,0,0,14.66668618,6.666656137,1,0,0,0,73,73,49,1,,,,,,,,
,,,,,,,,,,,,,FF,,,,,,,,4.2464,,,,,,,,,,,,,,,,,,,,,,60fe3d2570935a75dea9fb40,61036b54b33d786f994eba84,2021-07-29_22h01.14.308,Simcolourproject_2stim_asymm_v5,2020.2.10,Win32,60,61025ae37ef11b136ea224fe,,,,,,,,,2655,20.00001967,-34.66667843,1,0,0,response3disk,,4,11.33339343,-4.666677535,1,0,0,rectangle,11.33339343,-4.666677535,1,0,0,11.33339343,-4.666677535,1,0,0,0,74,74,116,1,,,,,,,,
,,,,,,,,,,,,,FF,,,,,,,,2.0305,,,,,,,,,,,,,,,,,,,,,,60fe3d2570935a75dea9fb40,61036b54b33d786f994eba84,2021-07-29_22h01.14.308,Simcolourproject_2stim_asymm_v5,2020.2.10,Win32,60,61025ae37ef11b136ea224fe,,,,,,,,,2577,76.66668802,63.33330415,1,0,0,response1disk,,6,2.000019133,-1.07288E-05,1,0,0,rectangle,2.000019133,-1.07288E-05,1,0,0,2.000019133,-1.07288E-05,1,0,0,0,75,75,43,1,,,,,,,,
,,,,,,,,,,,,,FF,,,,,,,,1.2216,,,,,,,,,,,,,,,,,,,,,,60fe3d2570935a75dea9fb40,61036b54b33d786f994eba84,2021-07-29_22h01.14.308,Simcolourproject_2stim_asymm_v5,2020.2.10,Win32,60,61025ae37ef11b136ea224fe,,,,,,,,,2744,84.00002158,41.99999052,1,0,0,response1disk,,6,8.666685998,6.666656137,1,0,0,rectangle,8.666685998,6.666656137,1,0,0,8.666685998,6.666656137,1,0,0,0,76,76,75,1,,,,,,,,
,,,,,,,,,,,,,FF,,,,,,,,2.184,,,,,,,,,,,,,,,,,,,,,,60fe3d2570935a75dea9fb40,61036b54b33d786f994eba84,2021-07-29_22h01.14.308,Simcolourproject_2stim_asymm_v5,2020.2.10,Win32,60,61025ae37ef11b136ea224fe,,,,,,,,,2703,41.33339433,40.66665715,1,0,0,response1disk,,6,12.66668612,-0.666677415,1,0,0,rectangle,12.66668612,-0.666677415,1,0,0,12.66668612,-0.666677415,1,0,0,0,77,77,9,1,,,,,,,,
,,,,,,,,,,,,,FF,,,,,,,,1.8179,,,,,,,,,,,,,,,,,,,,,,60fe3d2570935a75dea9fb40,61036b54b33d786f994eba84,2021-07-29_22h01.14.308,Simcolourproject_2stim_asymm_v5,2020.2.10,Win32,60,61025ae37ef11b136ea224fe,,,,,,,,,2770,44.66668707,32.66665691,1,0,0,response1disk,,6,10.00001937,1.999989331,1,0,0,rectangle,10.00001937,1.999989331,1,0,0,10.00001937,1.999989331,1,0,0,0,78,78,34,1,,,,,,,,
,,,,,,,,,,,,,FF,,,,,,,,2.601,,,,,,,,,,,,,,,,,,,,,,60fe3d2570935a75dea9fb40,61036b54b33d786f994eba84,2021-07-29_22h01.14.308,Simcolourproject_2stim_asymm_v5,2020.2.10,Win32,60,61025ae37ef11b136ea224fe,,,,,,,,,3934,42.66668701,-14.66667783,1,0,0,response3disk,,5,1.333393137,-6.000010908,1,0,0,rectangle,1.333393137,-6.000010908,1,0,0,1.333393137,-6.000010908,1,0,0,0,79,79,155,1,,,,,,,,
,,,,,,,,,,,,,FF,,,,,,,,1.4012,,,,,,,,,,,,,,,,,,,,,,60fe3d2570935a75dea9fb40,61036b54b33d786f994eba84,2021-07-29_22h01.14.308,Simcolourproject_2stim_asymm_v5,2020.2.10,Win32,60,61025ae37ef11b136ea224fe,,,,,,,,,1750,-39.99998212,75.99999154,1,0,0,response7disk,,0,-6.666607102,1.333322644,1,0,0,rectangle,-56.66660859,18.66665649,1,0,0,-22.66660758,7.333322823,1,0,0,0,80,80,51,1,,response7disk_3,TRUE,1,1,"[81,282,90,175,124,131,29,184,131,226,316,158,35,67,315,250,274,88,106,41]",2.2162,rectangle
,,,,,,,,,,,,,FF,,,,,,,,1.9175,,,,,,,,,,,,,,,,,,,,,,60fe3d2570935a75dea9fb40,61036b54b33d786f994eba84,2021-07-29_22h01.14.308,Simcolourproject_2stim_asymm_v5,2020.2.10,Win32,60,61025ae37ef11b136ea224fe,,,,,,,,,1560,25.33339385,55.33330391,1,0,0,response1disk,,7,5.333393256,3.99998939,1,0,0,rectangle,5.333393256,3.99998939,1,0,0,5.333393256,3.99998939,1,0,0,0,81,81,119,1,,,,,,,,
,,,,,,,,,,,,,FF,,,,,,,,1.2331,,,,,,,,,,,,,,,,,,,,,,60fe3d2570935a75dea9fb40,61036b54b33d786f994eba84,2021-07-29_22h01.14.308,Simcolourproject_2stim_asymm_v5,2020.2.10,Win32,60,61025ae37ef11b136ea224fe,,,,,,,,,3045,-34.66660794,89.33330492,1,0,0,response7disk,,0,-11.3333146,4.666656077,1,0,0,rectangle,-11.3333146,4.666656077,1,0,0,-11.3333146,4.666656077,1,0,0,0,82,82,10,1,,,,,,,,
,,,,,,,,,,,,,FF,,,,,,,,1.7966,,,,,,,,,,,,,,,,,,,,,,60fe3d2570935a75dea9fb40,61036b54b33d786f994eba84,2021-07-29_22h01.14.308,Simcolourproject_2stim_asymm_v5,2020.2.10,Win32,60,61025ae37ef11b136ea224fe,,,,,,,,,3201,-45.9999823,-62.66667926,1,0,0,response5disk,,3,-5.999981105,5.333322763,1,0,0,rectangle,-5.999981105,5.333322763,1,0,0,-5.999981105,5.333322763,1,0,0,0,83,83,136,1,,,,,,,,
,,,,,,,,,,,,,FF,,,,,,,,1.485,,,,,,,,,,,,,,,,,,,,,,60fe3d2570935a75dea9fb40,61036b54b33d786f994eba84,2021-07-29_22h01.14.308,Simcolourproject_2stim_asymm_v5,2020.2.10,Win32,60,61025ae37ef11b136ea224fe,,,,,,,,,218,54.66668737,35.33330331,1,0,0,response1disk,,6,12.66668612,-0.666677415,1,0,0,rectangle,12.66668612,-0.666677415,1,0,0,12.66668612,-0.666677415,1,0,0,0,84,84,69,1,,,,,,,,
,,,,,,,,,,,,,FF,,,,,,,,1.1012,,,,,,,,,,,,,,,,,,,,,,60fe3d2570935a75dea9fb40,61036b54b33d786f994eba84,2021-07-29_22h01.14.308,Simcolourproject_2stim_asymm_v5,2020.2.10,Win32,60,61025ae37ef11b136ea224fe,,,,,,,,,206,59.33335418,35.99999034,1,0,0,response1disk,,6,2.000019133,-4.666677535,1,0,0,rectangle,2.000019133,-4.666677535,1,0,0,2.000019133,-4.666677535,1,0,0,0,85,85,120,1,,,,,,,,
,,,,,,,,,,,,,FF,,,,,,,,1.9515,,,,,,,,,,,,,,,,,,,,,,60fe3d2570935a75dea9fb40,61036b54b33d786f994eba84,2021-07-29_22h01.14.308,Simcolourproject_2stim_asymm_v5,2020.2.10,Win32,60,61025ae37ef11b136ea224fe,,,,,,,,,1064,70.00002116,-27.33334488,1,0,0,response3disk,,5,20.00001967,4.666656077,1,0,0,rectangle,20.00001967,4.666656077,1,0,0,20.00001967,4.666656077,1,0,0,0,86,86,138,1,,,,,,,,
,,,,,,,,,,,,,FF,,,,,,,,2.2842,,,,,,,,,,,,,,,,,,,,,,60fe3d2570935a75dea9fb40,61036b54b33d786f994eba84,2021-07-29_22h01.14.308,Simcolourproject_2stim_asymm_v5,2020.2.10,Win32,60,61025ae37ef11b136ea224fe,,,,,,,,,1905,-21.99998158,-62.66667926,1,0,0,response5disk,,3,14.66668618,13.99998969,1,0,0,rectangle,-25.33331501,-87.33334666,1,0,0,12.00001943,11.33332294,1,0,0,0,87,87,96,1,,response5disk_3,TRUE,3,3,"[81,282,90,175,124,131,29,184,131,226,316,158,35,67,315,250,274,88,106,41]",3.2669,rectangle
,,,,,,,,,,,,,FF,,,,,,,,1.2512,,,,,,,,,,,,,,,,,,,,,,60fe3d2570935a75dea9fb40,61036b54b33d786f994eba84,2021-07-29_22h01.14.308,Simcolourproject_2stim_asymm_v5,2020.2.10,Win32,60,61025ae37ef11b136ea224fe,,,,,,,,,2274,58.66668749,-27.33334488,1,0,0,response3disk,,5,4.666685879,-1.333344102,1,0,0,rectangle,4.666685879,-1.333344102,1,0,0,4.666685879,-1.333344102,1,0,0,0,88,88,65,1,,,,,,,,
,,,,,,,,,,,,,FF,,,,,,,,1.3181,,,,,,,,,,,,,,,,,,,,,,60fe3d2570935a75dea9fb40,61036b54b33d786f994eba84,2021-07-29_22h01.14.308,Simcolourproject_2stim_asymm_v5,2020.2.10,Win32,60,61025ae37ef11b136ea224fe,,,,,,,,,1725,59.33335418,47.9999907,1,0,0,response1disk,,6,-5.333314419,-3.333344162,1,0,0,rectangle,90.00002176,-41.33334529,1,0,0,6.666685939,-2.666677475,1,0,0,0,89,89,118,1,,response3disk_3,TRUE,5,5,"[81,282,90,175,124,131,29,184,131,226,316,158,35,67,315,250,274,88,106,41]",2.1666,rectangle
,,,,,,,,,,,,,FF,,,,,,,,1.8008,,,,,,,,,,,,,,,,,,,,,,60fe3d2570935a75dea9fb40,61036b54b33d786f994eba84,2021-07-29_22h01.14.308,Simcolourproject_2stim_asymm_v5,2020.2.10,Win32,60,61025ae37ef11b136ea224fe,,,,,,,,,3118,58.0000208,-29.33334494,1,0,0,response3disk,,5,-13.99998134,0.666655958,1,0,0,rectangle,-13.99998134,0.666655958,1,0,0,-13.99998134,0.666655958,1,0,0,0,90,90,159,1,,,,,,,,
,,,,,,,,,,,,,FF,,,,,,,,2.1512,,,,,,,,,,,,,,,,,,,,,,60fe3d2570935a75dea9fb40,61036b54b33d786f994eba84,2021-07-29_22h01.14.308,Simcolourproject_2stim_asymm_v5,2020.2.10,Win32,60,61025ae37ef11b136ea224fe,,,,,,,,,3908,-55.9999826,25.99999005,1,0,0,response7disk,,1,-4.666607042,-1.07288E-05,1,0,0,rectangle,-4.666607042,-1.07288E-05,1,0,0,-4.666607042,-1.07288E-05,1,0,0,0,91,91,39,1,,,,,,,,
,,,,,,,,,,,,,FF,,,,,,,,2.1681,,,,,,,,,,,,,,,,,,,,,,60fe3d2570935a75dea9fb40,61036b54b33d786f994eba84,2021-07-29_22h01.14.308,Simcolourproject_2stim_asymm_v5,2020.2.10,Win32,60,61025ae37ef11b136ea224fe,,,,,,,,,4006,33.33339409,53.99999088,1,0,0,response1disk,,7,8.666685998,-2.666677475,1,0,0,rectangle,8.666685998,-2.666677475,1,0,0,8.666685998,-2.666677475,1,0,0,0,92,92,126,1,,,,,,,,
,,,,,,,,,,,,,FF,,,,,,,,1.7207,,,,,,,,,,,,,,,,,,,,,,60fe3d2570935a75dea9fb40,61036b54b33d786f994eba84,2021-07-29_22h01.14.308,Simcolourproject_2stim_asymm_v5,2020.2.10,Win32,60,61025ae37ef11b136ea224fe,,,,,,,,,3739,50.00002056,31.99999022,1,0,0,response1disk,,6,3.333393196,0.666655958,1,0,0,rectangle,3.333393196,0.666655958,1,0,0,3.333393196,0.666655958,1,0,0,0,93,93,1,1,,,,,,,,
,,,,,,,,,,,,,FF,,,,,,,,1.2135,,,,,,,,,,,,,,,,,,,,,,60fe3d2570935a75dea9fb40,61036b54b33d786f994eba84,2021-07-29_22h01.14.308,Simcolourproject_2stim_asymm_v5,2020.2.10,Win32,60,61025ae37ef11b136ea224fe,,,,,,,,,125,64.66668767,55.33330391,1,0,0,response1disk,,6,2.000019133,3.99998939,1,0,0,rectangle,2.000019133,3.99998939,1,0,0,2.000019133,3.99998939,1,0,0,0,94,94,72,1,,,,,,,,
,,,,,,,,,,,,,FF,,,,,,,,1.08,,,,,,,,,,,,,,,,,,,,,,60fe3d2570935a75dea9fb40,61036b54b33d786f994eba84,2021-07-29_22h01.14.308,Simcolourproject_2stim_asymm_v5,2020.2.10,Win32,60,61025ae37ef11b136ea224fe,,,,,,,,,1081,61.33335423,48.66665739,1,0,0,response1disk,,6,6.666685939,-1.333344102,1,0,0,rectangle,6.666685939,-1.333344102,1,0,0,6.666685939,-1.333344102,1,0,0,0,95,95,145,1,,,,,,,,
,,,,,,,,,,,,,FF,,,,,,,,1.1676,,,,,,,,,,,,,,,,,,,,,,60fe3d2570935a75dea9fb40,61036b54b33d786f994eba84,2021-07-29_22h01.14.308,Simcolourproject_2stim_asymm_v5,2020.2.10,Win32,60,61025ae37ef11b136ea224fe,,,,,,,,,2973,66.00002104,45.99999064,1,0,0,response1disk,,6,8.000019312,1.333322644,1,0,0,rectangle,8.000019312,1.333322644,1,0,0,8.000019312,1.333322644,1,0,0,0,96,96,89,1,,,,,,,,
,,,,,,,,,,,,,FF,,,,,,,,1.6968,,,,,,,,,,,,,,,,,,,,,,60fe3d2570935a75dea9fb40,61036b54b33d786f994eba84,2021-07-29_22h01.14.308,Simcolourproject_2stim_asymm_v5,2020.2.10,Win32,60,61025ae37ef11b136ea224fe,,,,,,,,,521,58.66668749,53.99999088,1,0,0,response1disk,,6,-1.3333143,-1.07288E-05,1,0,0,rectangle,-1.3333143,-1.07288E-05,1,0,0,-1.3333143,-1.07288E-05,1,0,0,0,97,97,148,1,,,,,,,,
,,,,,,,,,,,,,FF,,,,,,,,2.2016,,,,,,,,,,,,,,,,,,,,,,60fe3d2570935a75dea9fb40,61036b54b33d786f994eba84,2021-07-29_22h01.14.308,Simcolourproject_2stim_asymm_v5,2020.2.10,Win32,60,61025ae37ef11b136ea224fe,,,,,,,,,3941,22.00001973,-48.66667885,1,0,0,response3disk,,4,4.000019193,0.666655958,1,0,0,rectangle,4.000019193,0.666655958,1,0,0,4.000019193,0.666655958,1,0,0,0,98,98,41,1,,,,,,,,
,,,,,,,,,,,,,FF,,,,,,,,1.4044,,,,,,,,,,,,,,,,,,,,,,60fe3d2570935a75dea9fb40,61036b54b33d786f994eba84,2021-07-29_22h01.14.308,Simcolourproject_2stim_asymm_v5,2020.2.10,Win32,60,61025ae37ef11b136ea224fe,,,,,,,,,2959,46.66668713,-20.00001132,1,0,0,response3disk,,5,21.33339373,7.99998951,1,0,0,rectangle,21.33339373,7.99998951,1,0,0,21.33339373,7.99998951,1,0,0,0,99,99,58,1,,,,,,,,
,,,,,,,,,,,,,FF,,,,,,,,2.1182,,,,,,,,,,,,,,,,,,,,,,60fe3d2570935a75dea9fb40,61036b54b33d786f994eba84,2021-07-29_22h01.14.308,Simcolourproject_2stim_asymm_v5,2020.2.10,Win32,60,61025ae37ef11b136ea224fe,,,,,,,,,2292,-32.66660788,71.33330439,1,0,0,response7disk,,0,-6.666607102,-3.333344162,1,0,0,rectangle,-6.666607102,-3.333344162,1,0,0,-6.666607102,-3.333344162,1,0,0,0,100,100,18,1,,,,,,,,
,,,,,,,,,,,,,FF,,,,,,,,1.8516,,,,,,,,,,,,,,,,,,,,,,60fe3d2570935a75dea9fb40,61036b54b33d786f994eba84,2021-07-29_22h01.14.308,Simcolourproject_2stim_asymm_v5,2020.2.10,Win32,60,61025ae37ef11b136ea224fe,,,,,,,,,3133,58.66668749,44.66665727,1,0,0,response1disk,,6,4.666685879,0.666655958,1,0,0,rectangle,4.666685879,0.666655958,1,0,0,4.666685879,0.666655958,1,0,0,0,101,101,64,1,,,,,,,,
,,,,,,,,,,,,,FF,,,,,,,,2.0014,,,,,,,,,,,,,,,,,,,,,,60fe3d2570935a75dea9fb40,61036b54b33d786f994eba84,2021-07-29_22h01.14.308,Simcolourproject_2stim_asymm_v5,2020.2.10,Win32,60,61025ae37ef11b136ea224fe,,,,,,,,,1592,-27.33331507,-63.33334595,1,0,0,response5disk,,3,10.66668606,3.99998939,1,0,0,rectangle,10.66668606,3.99998939,1,0,0,10.66668606,3.99998939,1,0,0,0,102,102,24,1,,,,,,,,
,,,,,,,,,,,,,FF,,,,,,,,2.1376,,,,,,,,,,,,,,,,,,,,,,60fe3d2570935a75dea9fb40,61036b54b33d786f994eba84,2021-07-29_22h01.14.308,Simcolourproject_2stim_asymm_v5,2020.2.10,Win32,60,61025ae37ef11b136ea224fe,,,,,,,,,3774,22.66668642,-55.33334571,1,0,0,response3disk,,4,-5.333314419,-4.000010848,1,0,0,rectangle,-5.333314419,-4.000010848,1,0,0,-5.333314419,-4.000010848,1,0,0,0,103,103,157,1,,,,,,,,
,,,,,,,,,,,,,FF,,,,,,,,1.8349,,,,,,,,,,,,,,,,,,,,,,60fe3d2570935a75dea9fb40,61036b54b33d786f994eba84,2021-07-29_22h01.14.308,Simcolourproject_2stim_asymm_v5,2020.2.10,Win32,60,61025ae37ef11b136ea224fe,,,,,,,,,1643,43.3333537,67.9999913,1,0,0,response1disk,,7,4.000019193,4.666656077,1,0,0,rectangle,4.000019193,4.666656077,1,0,0,4.000019193,4.666656077,1,0,0,0,104,104,130,1,,,,,,,,
,,,,,,,,,,,,,FF,,,,,,,,1.2174,,,,,,,,,,,,,,,,,,,,,,60fe3d2570935a75dea9fb40,61036b54b33d786f994eba84,2021-07-29_22h01.14.308,Simcolourproject_2stim_asymm_v5,2020.2.10,Win32,60,61025ae37ef11b136ea224fe,,,,,,,,,4094,49.33335388,35.99999034,1,0,0,response1disk,,6,12.66668612,5.333322763,1,0,0,rectangle,-49.99998242,46.66665733,1,0,0,-14.66660734,-6.666677594,1,0,0,0,105,105,12,1,,response7disk_3,TRUE,1,1,"[81,282,90,175,124,131,29,184,131,226,316,158,35,67,315,250,274,88,106,41]",2.3833,rectangle
,,,,,,,,,,,,,FF,,,,,,,,60.7347,,,,,,,,,,,,,,,,,,,,,,60fe3d2570935a75dea9fb40,61036b54b33d786f994eba84,2021-07-29_22h01.14.308,Simcolourproject_2stim_asymm_v5,2020.2.10,Win32,60,61025ae37ef11b136ea224fe,,,,,,,,,2576,77.33335471,71.33330439,1,0,0,response1disk,,6,1.9735E-05,-6.666677594,1,0,0,rectangle,1.9735E-05,-6.666677594,1,0,0,1.9735E-05,-6.666677594,1,0,0,0,106,106,8,1,,,,,,,,
,,,,,,,,,,,,,FF,,,,,,,,1.1665,,,,,,,,,,,,,,,,,,,,,,60fe3d2570935a75dea9fb40,61036b54b33d786f994eba84,2021-07-29_22h01.14.308,Simcolourproject_2stim_asymm_v5,2020.2.10,Win32,60,61025ae37ef11b136ea224fe,,,,,,,,,1172,38.00002021,31.33330319,1,0,0,response1disk,,6,4.666685879,-3.333344162,1,0,0,rectangle,4.666685879,-3.333344162,1,0,0,4.666685879,-3.333344162,1,0,0,0,107,107,23,1,,,,,,,,
,,,,,,,,,,,,,FF,,,,,,,,1.5677,,,,,,,,,,,,,,,,,,,,,,60fe3d2570935a75dea9fb40,61036b54b33d786f994eba84,2021-07-29_22h01.14.308,Simcolourproject_2stim_asymm_v5,2020.2.10,Win32,60,61025ae37ef11b136ea224fe,,,,,,,,,748,40.00002027,-28.00001156,1,0,0,response3disk,,5,4.000019193,-0.666677415,1,0,0,rectangle,4.000019193,-0.666677415,1,0,0,4.000019193,-0.666677415,1,0,0,0,108,108,28,1,,,,,,,,
,,,,,,,,,,,,,FF,,,,,,,,1.481,,,,,,,,,,,,,,,,,,,,,,60fe3d2570935a75dea9fb40,61036b54b33d786f994eba84,2021-07-29_22h01.14.308,Simcolourproject_2stim_asymm_v5,2020.2.10,Win32,60,61025ae37ef11b136ea224fe,,,,,,,,,2592,-21.3333149,-36.66667849,1,0,0,response5disk,,3,-3.333314359,-4.666677535,1,0,0,rectangle,-3.333314359,-4.666677535,1,0,0,-3.333314359,-4.666677535,1,0,0,0,109,109,77,1,,,,,,,,
,,,,,,,,,,,,,FF,,,,,,,,1.2849,,,,,,,,,,,,,,,,,,,,,,60fe3d2570935a75dea9fb40,61036b54b33d786f994eba84,2021-07-29_22h01.14.308,Simcolourproject_2stim_asymm_v5,2020.2.10,Win32,60,61025ae37ef11b136ea224fe,,,,,,,,,2533,-25.33331501,-55.33334571,1,0,0,response5disk,,3,7.333393315,11.99998963,1,0,0,rectangle,7.333393315,11.99998963,1,0,0,7.333393315,11.99998963,1,0,0,0,110,110,91,1,,,,,,,,
,,,,,,,,,,,,,FF,,,,,,,,1.3512,,,,,,,,,,,,,,,,,,,,,,60fe3d2570935a75dea9fb40,61036b54b33d786f994eba84,2021-07-29_22h01.14.308,Simcolourproject_2stim_asymm_v5,2020.2.10,Win32,60,61025ae37ef11b136ea224fe,,,,,,,,,3681,-25.33331501,-44.00001204,1,0,0,response5disk,,3,-3.333314359,-3.333344162,1,0,0,rectangle,-3.333314359,-3.333344162,1,0,0,-3.333314359,-3.333344162,1,0,0,0,111,111,127,1,,,,,,,,
,,,,,,,,,,,,,FF,,,,,,,,1.2335,,,,,,,,,,,,,,,,,,,,,,60fe3d2570935a75dea9fb40,61036b54b33d786f994eba84,2021-07-29_22h01.14.308,Simcolourproject_2stim_asymm_v5,2020.2.10,Win32,60,61025ae37ef11b136ea224fe,,,,,,,,,2741,64.00002098,-29.33334494,1,0,0,response3disk,,5,-5.999981105,8.666656196,1,0,0,rectangle,-5.999981105,8.666656196,1,0,0,-5.999981105,8.666656196,1,0,0,0,112,112,13,1,,,,,,,,
,,,,,,,,,,,,,FF,,,,,,,,1.485,,,,,,,,,,,,,,,,,,,,,,60fe3d2570935a75dea9fb40,61036b54b33d786f994eba84,2021-07-29_22h01.14.308,Simcolourproject_2stim_asymm_v5,2020.2.10,Win32,60,61025ae37ef11b136ea224fe,,,,,,,,,2555,70.66668785,-36.66667849,1,0,0,response3disk,,5,24.00001979,-2.000010788,1,0,0,rectangle,24.00001979,-2.000010788,1,0,0,24.00001979,-2.000010788,1,0,0,0,113,113,117,1,,,,,,,,
,,,,,,,,,,,,,FF,,,,,,,,1.7677,,,,,,,,,,,,,,,,,,,,,,60fe3d2570935a75dea9fb40,61036b54b33d786f994eba84,2021-07-29_22h01.14.308,Simcolourproject_2stim_asymm_v5,2020.2.10,Win32,60,61025ae37ef11b136ea224fe,,,,,,,,,4104,-46.66660829,23.33330295,1,0,0,response7disk,,1,-5.999981105,-1.07288E-05,1,0,0,rectangle,-5.999981105,-1.07288E-05,1,0,0,-5.999981105,-1.07288E-05,1,0,0,0,114,114,70,1,,,,,,,,
,,,,,,,,,,,,,FF,,,,,,,,1.5383,,,,,,,,,,,,,,,,,,,,,,60fe3d2570935a75dea9fb40,61036b54b33d786f994eba84,2021-07-29_22h01.14.308,Simcolourproject_2stim_asymm_v5,2020.2.10,Win32,60,61025ae37ef11b136ea224fe,,,,,,,,,2532,-35.999982,-63.33334595,1,0,0,response5disk,,3,-9.333314538,-8.666677654,1,0,0,rectangle,-9.333314538,-8.666677654,1,0,0,-9.333314538,-8.666677654,1,0,0,0,115,115,60,1,,,,,,,,
,,,,,,,,,,,,,FF,,,,,,,,1.2041,,,,,,,,,,,,,,,,,,,,,,60fe3d2570935a75dea9fb40,61036b54b33d786f994eba84,2021-07-29_22h01.14.308,Simcolourproject_2stim_asymm_v5,2020.2.10,Win32,60,61025ae37ef11b136ea224fe,,,,,,,,,2625,-31.33331519,-52.66667897,1,0,0,response5disk,,3,-2.666606983,7.99998951,1,0,0,rectangle,-2.666606983,7.99998951,1,0,0,-2.666606983,7.99998951,1,0,0,0,116,116,86,1,,,,,,,,
,,,,,,,,,,,,,FF,,,,,,,,2.6465,,,,,,,,,,,,,,,,,,,,,,60fe3d2570935a75dea9fb40,61036b54b33d786f994eba84,2021-07-29_22h01.14.308,Simcolourproject_2stim_asymm_v5,2020.2.10,Win32,60,61025ae37ef11b136ea224fe,,,,,,,,,1669,16.00001955,-32.66667837,1,0,0,response3disk,,4,-1.999980986,13.99998969,1,0,0,rectangle,-1.999980986,13.99998969,1,0,0,-1.999980986,13.99998969,1,0,0,0,117,117,132,1,,,,,,,,
,,,,,,,,,,,,,FF,,,,,,,,6.7994,,,,,,,,,,,,,,,,,,,,,,60fe3d2570935a75dea9fb40,61036b54b33d786f994eba84,2021-07-29_22h01.14.308,Simcolourproject_2stim_asymm_v5,2020.2.10,Win32,60,61025ae37ef11b136ea224fe,,,,,,,,,2808,-37.99998206,-66.66667938,1,0,0,response5disk,,3,-3.333314359,-4.000010848,1,0,0,rectangle,-3.333314359,-4.000010848,1,0,0,-3.333314359,-4.000010848,1,0,0,0,118,118,33,1,,,,,,,,
,,,,,,,,,,,,,FF,,,,,,,,2.2142,,,,,,,,,,,,,,,,,,,,,,60fe3d2570935a75dea9fb40,61036b54b33d786f994eba84,2021-07-29_22h01.14.308,Simcolourproject_2stim_asymm_v5,2020.2.10,Win32,60,61025ae37ef11b136ea224fe,,,,,,,,,242,85.33335495,-30.00001162,1,0,0,response3disk,,5,3.333393196,-7.333344281,1,0,0,rectangle,3.333393196,-7.333344281,1,0,0,3.333393196,-7.333344281,1,0,0,0,119,119,152,1,,,,,,,,
,,,,,,,,,,,,,FF,,,,,,,,1.3013,,,,,,,,,,,,,,,,,,,,,,60fe3d2570935a75dea9fb40,61036b54b33d786f994eba84,2021-07-29_22h01.14.308,Simcolourproject_2stim_asymm_v5,2020.2.10,Win32,60,61025ae37ef11b136ea224fe,,,,,,,,,3440,39.33339427,-21.3333447,1,0,0,response3disk,,5,4.666685879,-9.33334434,1,0,0,rectangle,4.666685879,-9.33334434,1,0,0,4.666685879,-9.33334434,1,0,0,0,120,120,147,1,,,,,,,,
,,,,,,,,,,,,,FF,,,,,,,,1.2873,,,,,,,,,,,,,,,,,,,,,,60fe3d2570935a75dea9fb40,61036b54b33d786f994eba84,2021-07-29_22h01.14.308,Simcolourproject_2stim_asymm_v5,2020.2.10,Win32,60,61025ae37ef11b136ea224fe,,,,,,,,,933,30.66668665,-16.66667789,1,0,0,response3disk,,5,2.000019133,6.666656137,1,0,0,rectangle,2.000019133,6.666656137,1,0,0,2.000019133,6.666656137,1,0,0,0,121,121,15,1,,,,,,,,
,,,,,,,,,,,,,FF,,,,,,,,1.0845,,,,,,,,,,,,,,,,,,,,,,60fe3d2570935a75dea9fb40,61036b54b33d786f994eba84,2021-07-29_22h01.14.308,Simcolourproject_2stim_asymm_v5,2020.2.10,Win32,60,61025ae37ef11b136ea224fe,,,,,,,,,2140,61.33335423,41.99999052,1,0,0,response1disk,,6,10.00001937,6.666656137,1,0,0,rectangle,10.00001937,6.666656137,1,0,0,10.00001937,6.666656137,1,0,0,0,122,122,149,1,,,,,,,,
,,,,,,,,,,,,,FF,,,,,,,,0.9878,,,,,,,,,,,,,,,,,,,,,,60fe3d2570935a75dea9fb40,61036b54b33d786f994eba84,2021-07-29_22h01.14.308,Simcolourproject_2stim_asymm_v5,2020.2.10,Win32,60,61025ae37ef11b136ea224fe,,,,,,,,,4152,48.0000205,28.66665679,1,0,0,response1disk,,6,11.33339343,3.99998939,1,0,0,rectangle,54.00002068,-22.00001138,1,0,0,4.666685879,-0.666677415,1,0,0,0,123,123,124,1,,response3disk_3,TRUE,5,5,"[81,282,90,175,124,131,29,184,131,226,316,158,35,67,315,250,274,88,106,41]",2.2345,rectangle
,,,,,,,,,,,,,FF,,,,,,,,1.5504,,,,,,,,,,,,,,,,,,,,,,60fe3d2570935a75dea9fb40,61036b54b33d786f994eba84,2021-07-29_22h01.14.308,Simcolourproject_2stim_asymm_v5,2020.2.10,Win32,60,61025ae37ef11b136ea224fe,,,,,,,,,1896,-33.33331525,-44.00001204,1,0,0,response5disk,,3,-6.666607102,2.666656017,1,0,0,rectangle,-6.666607102,2.666656017,1,0,0,-6.666607102,2.666656017,1,0,0,0,124,124,135,1,,,,,,,,
,,,,,,,,,,,,,FF,,,,,,,,1.1848,,,,,,,,,,,,,,,,,,,,,,60fe3d2570935a75dea9fb40,61036b54b33d786f994eba84,2021-07-29_22h01.14.308,Simcolourproject_2stim_asymm_v5,2020.2.10,Win32,60,61025ae37ef11b136ea224fe,,,,,,,,,1894,-42.66660817,-28.00001156,1,0,0,response5disk,,2,-11.3333146,-9.33334434,1,0,0,rectangle,-11.3333146,-9.33334434,1,0,0,-11.3333146,-9.33334434,1,0,0,0,125,125,56,1,,,,,,,,
,,,,,,,,,,,,,FF,,,,,,,,1.1181,,,,,,,,,,,,,,,,,,,,,,60fe3d2570935a75dea9fb40,61036b54b33d786f994eba84,2021-07-29_22h01.14.308,Simcolourproject_2stim_asymm_v5,2020.2.10,Win32,60,61025ae37ef11b136ea224fe,,,,,,,,,1014,48.0000205,29.99999017,1,0,0,response1disk,,6,18.00001961,6.666656137,1,0,0,rectangle,18.00001961,6.666656137,1,0,0,18.00001961,6.666656137,1,0,0,0,126,126,74,1,,,,,,,,
,,,,,,,,,,,,,FF,,,,,,,,1.3352,,,,,,,,,,,,,,,,,,,,,,60fe3d2570935a75dea9fb40,61036b54b33d786f994eba84,2021-07-29_22h01.14.308,Simcolourproject_2stim_asymm_v5,2020.2.10,Win32,60,61025ae37ef11b136ea224fe,,,,,,,,,2126,67.33335441,41.99999052,1,0,0,response1disk,,6,-1.3333143,-1.07288E-05,1,0,0,rectangle,-1.3333143,-1.07288E-05,1,0,0,-1.3333143,-1.07288E-05,1,0,0,0,127,127,87,1,,,,,,,,
,,,,,,,,,,,,,FF,,,,,,,,1.5005,,,,,,,,,,,,,,,,,,,,,,60fe3d2570935a75dea9fb40,61036b54b33d786f994eba84,2021-07-29_22h01.14.308,Simcolourproject_2stim_asymm_v5,2020.2.10,Win32,60,61025ae37ef11b136ea224fe,,,,,,,,,2369,-47.33331567,27.33330307,1,0,0,response7disk,,1,-6.666607102,0.666655958,1,0,0,rectangle,-6.666607102,0.666655958,1,0,0,-6.666607102,0.666655958,1,0,0,0,128,128,78,1,,,,,,,,
,,,,,,,,,,,,,FF,,,,,,,,1.3639,,,,,,,,,,,,,,,,,,,,,,60fe3d2570935a75dea9fb40,61036b54b33d786f994eba84,2021-07-29_22h01.14.308,Simcolourproject_2stim_asymm_v5,2020.2.10,Win32,60,61025ae37ef11b136ea224fe,,,,,,,,,1359,-51.33331579,-33.33334506,1,0,0,response5disk,,2,8.000019312,-1.07288E-05,1,0,0,rectangle,8.000019312,-1.07288E-05,1,0,0,8.000019312,-1.07288E-05,1,0,0,0,129,129,101,1,,,,,,,,
,,,,,,,,,,,,,FF,,,,,,,,1.6804,,,,,,,,,,,,,,,,,,,,,,60fe3d2570935a75dea9fb40,61036b54b33d786f994eba84,2021-07-29_22h01.14.308,Simcolourproject_2stim_asymm_v5,2020.2.10,Win32,60,61025ae37ef11b136ea224fe,,,,,,,,,3870,59.33335418,41.33330349,1,0,0,response1disk,,6,14.00001949,9.333322883,1,0,0,rectangle,66.00002104,38.66665709,1,0,0,6.000019252,-1.07288E-05,1,0,0,0,130,130,45,1,,response1disk_3,TRUE,6,6,"[81,282,90,175,124,131,29,184,131,226,316,158,35,67,315,250,274,88,106,41]",2.0502,rectangle
,,,,,,,,,,,,,FF,,,,,,,,3.0347,,,,,,,,,,,,,,,,,,,,,,60fe3d2570935a75dea9fb40,61036b54b33d786f994eba84,2021-07-29_22h01.14.308,Simcolourproject_2stim_asymm_v5,2020.2.10,Win32,60,61025ae37ef11b136ea224fe,,,,,,,,,598,60.00002086,40.66665715,1,0,0,response1disk,,6,20.00001967,0.666655958,1,0,0,rectangle,20.00001967,0.666655958,1,0,0,20.00001967,0.666655958,1,0,0,0,131,131,110,1,,,,,,,,
,,,,,,,,,,,,,FF,,,,,,,,1.7511,,,,,,,,,,,,,,,,,,,,,,60fe3d2570935a75dea9fb40,61036b54b33d786f994eba84,2021-07-29_22h01.14.308,Simcolourproject_2stim_asymm_v5,2020.2.10,Win32,60,61025ae37ef11b136ea224fe,,,,,,,,,1975,-47.99998236,-34.00001174,1,0,0,response5disk,,2,14.00001949,6.666656137,1,0,0,rectangle,14.00001949,6.666656137,1,0,0,14.00001949,6.666656137,1,0,0,0,132,132,19,1,,,,,,,,
,,,,,,,,,,,,,FF,,,,,,,,1.568,,,,,,,,,,,,,,,,,,,,,,60fe3d2570935a75dea9fb40,61036b54b33d786f994eba84,2021-07-29_22h01.14.308,Simcolourproject_2stim_asymm_v5,2020.2.10,Win32,60,61025ae37ef11b136ea224fe,,,,,,,,,273,-35.33331531,-72.66667956,1,0,0,response5disk,,3,1.9735E-05,-6.666677594,1,0,0,rectangle,1.9735E-05,-6.666677594,1,0,0,1.9735E-05,-6.666677594,1,0,0,0,133,133,40,1,,,,,,,,
,,,,,,,,,,,,,FF,,,,,,,,1.618,,,,,,,,,,,,,,,,,,,,,,60fe3d2570935a75dea9fb40,61036b54b33d786f994eba84,2021-07-29_22h01.14.308,Simcolourproject_2stim_asymm_v5,2020.2.10,Win32,60,61025ae37ef11b136ea224fe,,,,,,,,,2240,-33.99998194,43.33330355,1,0,0,response7disk,,0,-22.66660758,1.333322644,1,0,0,rectangle,-22.66660758,1.333322644,1,0,0,-22.66660758,1.333322644,1,0,0,0,134,134,25,1,,,,,,,,
,,,,,,,,,,,,,FF,,,,,,,,1.8508,,,,,,,,,,,,,,,,,,,,,,60fe3d2570935a75dea9fb40,61036b54b33d786f994eba84,2021-07-29_22h01.14.308,Simcolourproject_2stim_asymm_v5,2020.2.10,Win32,60,61025ae37ef11b136ea224fe,,,,,,,,,870,-38.66660806,-48.00001216,1,0,0,response5disk,,3,-6.666607102,-1.333344102,1,0,0,rectangle,-6.666607102,-1.333344102,1,0,0,-6.666607102,-1.333344102,1,0,0,0,135,135,50,1,,,,,,,,
,,,,,,,,,,,,,FF,,,,,,,,2.0345,,,,,,,,,,,,,,,,,,,,,,60fe3d2570935a75dea9fb40,61036b54b33d786f994eba84,2021-07-29_22h01.14.308,Simcolourproject_2stim_asymm_v5,2020.2.10,Win32,60,61025ae37ef11b136ea224fe,,,,,,,,,1550,-27.33331507,-58.66667914,1,0,0,response5disk,,3,12.00001943,-0.666677415,1,0,0,rectangle,12.00001943,-0.666677415,1,0,0,12.00001943,-0.666677415,1,0,0,0,136,136,92,1,,,,,,,,
,,,,,,,,,,,,,FF,,,,,,,,1.3338,,,,,,,,,,,,,,,,,,,,,,60fe3d2570935a75dea9fb40,61036b54b33d786f994eba84,2021-07-29_22h01.14.308,Simcolourproject_2stim_asymm_v5,2020.2.10,Win32,60,61025ae37ef11b136ea224fe,,,,,,,,,2233,-53.33331585,26.66665673,1,0,0,response7disk,,1,-18.66660746,6.666656137,1,0,0,rectangle,-18.66660746,6.666656137,1,0,0,-18.66660746,6.666656137,1,0,0,0,137,137,73,1,,,,,,,,
,,,,,,,,,,,,,FF,,,,,,,,1.7173,,,,,,,,,,,,,,,,,,,,,,60fe3d2570935a75dea9fb40,61036b54b33d786f994eba84,2021-07-29_22h01.14.308,Simcolourproject_2stim_asymm_v5,2020.2.10,Win32,60,61025ae37ef11b136ea224fe,,,,,,,,,1058,-95.3333171,-44.66667873,1,0,0,response5disk,,2,-19.33331484,0.666655958,1,0,0,rectangle,-19.33331484,0.666655958,1,0,0,-19.33331484,0.666655958,1,0,0,0,138,138,98,1,,,,,,,,
,,,,,,,,,,,,,FF,,,,,,,,1.7349,,,,,,,,,,,,,,,,,,,,,,60fe3d2570935a75dea9fb40,61036b54b33d786f994eba84,2021-07-29_22h01.14.308,Simcolourproject_2stim_asymm_v5,2020.2.10,Win32,60,61025ae37ef11b136ea224fe,,,,,,,,,3644,-22.66660758,-63.33334595,1,0,0,response5disk,,3,11.33339343,-2.666677475,1,0,0,rectangle,11.33339343,-2.666677475,1,0,0,11.33339343,-2.666677475,1,0,0,0,139,139,111,1,,,,,,,,
,,,,,,,,,,,,,FF,,,,,,,,1.4512,,,,,,,,,,,,,,,,,,,,,,60fe3d2570935a75dea9fb40,61036b54b33d786f994eba84,2021-07-29_22h01.14.308,Simcolourproject_2stim_asymm_v5,2020.2.10,Win32,60,61025ae37ef11b136ea224fe,,,,,,,,,1832,-42.66660817,-22.66667807,1,0,0,response5disk,,2,8.000019312,11.99998963,1,0,0,rectangle,8.000019312,11.99998963,1,0,0,8.000019312,11.99998963,1,0,0,0,140,140,11,1,,,,,,,,
,,,,,,,,,,,,,FF,,,,,,,,1.7338,,,,,,,,,,,,,,,,,,,,,,60fe3d2570935a75dea9fb40,61036b54b33d786f994eba84,2021-07-29_22h01.14.308,Simcolourproject_2stim_asymm_v5,2020.2.10,Win32,60,61025ae37ef11b136ea224fe,,,,,,,,,1850,50.00002056,23.99998999,1,0,0,response1disk,,6,20.66668636,1.333322644,1,0,0,rectangle,20.66668636,1.333322644,1,0,0,20.66668636,1.333322644,1,0,0,0,141,141,32,1,,,,,,,,
,,,,,,,,,,,,,FF,,,,,,,,1.484,,,,,,,,,,,,,,,,,,,,,,60fe3d2570935a75dea9fb40,61036b54b33d786f994eba84,2021-07-29_22h01.14.308,Simcolourproject_2stim_asymm_v5,2020.2.10,Win32,60,61025ae37ef11b136ea224fe,,,,,,,,,4127,18.6666863,-43.33334535,1,0,0,response3disk,,4,6.666685939,-6.000010908,1,0,0,rectangle,6.666685939,-6.000010908,1,0,0,6.666685939,-6.000010908,1,0,0,0,142,142,42,1,,,,,,,,
,,,,,,,,,,,,,FF,,,,,,,,1.2007,,,,,,,,,,,,,,,,,,,,,,60fe3d2570935a75dea9fb40,61036b54b33d786f994eba84,2021-07-29_22h01.14.308,Simcolourproject_2stim_asymm_v5,2020.2.10,Win32,60,61025ae37ef11b136ea224fe,,,,,,,,,770,62.00002092,25.99999005,1,0,0,response1disk,,6,8.666685998,-1.07288E-05,1,0,0,rectangle,8.666685998,-1.07288E-05,1,0,0,8.666685998,-1.07288E-05,1,0,0,0,143,143,104,1,,,,,,,,
,,,,,,,,,,,,,FF,,,,,,,,1.5845,,,,,,,,,,,,,,,,,,,,,,60fe3d2570935a75dea9fb40,61036b54b33d786f994eba84,2021-07-29_22h01.14.308,Simcolourproject_2stim_asymm_v5,2020.2.10,Win32,60,61025ae37ef11b136ea224fe,,,,,,,,,3046,-43.99998224,28.66665679,1,0,0,response7disk,,1,-9.999981225,5.333322763,1,0,0,rectangle,-9.999981225,5.333322763,1,0,0,-9.999981225,5.333322763,1,0,0,0,144,144,137,1,,,,,,,,
,,,,,,,,,,,,,FF,,,,,,,,1.3174,,,,,,,,,,,,,,,,,,,,,,60fe3d2570935a75dea9fb40,61036b54b33d786f994eba84,2021-07-29_22h01.14.308,Simcolourproject_2stim_asymm_v5,2020.2.10,Win32,60,61025ae37ef11b136ea224fe,,,,,,,,,1395,-50.66660841,-28.00001156,1,0,0,response5disk,,2,-3.333314359,9.999989569,1,0,0,rectangle,-3.333314359,9.999989569,1,0,0,-3.333314359,9.999989569,1,0,0,0,145,145,0,1,,,,,,,,
,,,,,,,,,,,,,FF,,,,,,,,1.2507,,,,,,,,,,,,,,,,,,,,,,60fe3d2570935a75dea9fb40,61036b54b33d786f994eba84,2021-07-29_22h01.14.308,Simcolourproject_2stim_asymm_v5,2020.2.10,Win32,60,61025ae37ef11b136ea224fe,,,,,,,,,2080,45.33335376,31.99999022,1,0,0,response1disk,,6,-3.333314359,0.666655958,1,0,0,rectangle,-3.333314359,0.666655958,1,0,0,-3.333314359,0.666655958,1,0,0,0,146,146,82,1,,,,,,,,
,,,,,,,,,,,,,FF,,,,,,,,2.2681,,,,,,,,,,,,,,,,,,,,,,60fe3d2570935a75dea9fb40,61036b54b33d786f994eba84,2021-07-29_22h01.14.308,Simcolourproject_2stim_asymm_v5,2020.2.10,Win32,60,61025ae37ef11b136ea224fe,,,,,,,,,4085,80.66668814,35.99999034,1,0,0,response1disk,,6,-2.666606983,0.666655958,1,0,0,rectangle,-2.666606983,0.666655958,1,0,0,-2.666606983,0.666655958,1,0,0,0,147,147,35,1,,,,,,,,
,,,,,,,,,,,,,FF,,,,,,,,1.2682,,,,,,,,,,,,,,,,,,,,,,60fe3d2570935a75dea9fb40,61036b54b33d786f994eba84,2021-07-29_22h01.14.308,Simcolourproject_2stim_asymm_v5,2020.2.10,Win32,60,61025ae37ef11b136ea224fe,,,,,,,,,2635,69.33335447,-30.00001162,1,0,0,response3disk,,5,-7.999981165,5.99998945,1,0,0,rectangle,-7.999981165,5.99998945,1,0,0,-7.999981165,5.99998945,1,0,0,0,148,148,123,1,,,,,,,,
,,,,,,,,,,,,,FF,,,,,,,,1.2513,,,,,,,,,,,,,,,,,,,,,,60fe3d2570935a75dea9fb40,61036b54b33d786f994eba84,2021-07-29_22h01.14.308,Simcolourproject_2stim_asymm_v5,2020.2.10,Win32,60,61025ae37ef11b136ea224fe,,,,,,,,,354,-66.66660889,-29.33334494,1,0,0,response5disk,,2,-12.66660728,6.666656137,1,0,0,rectangle,-12.66660728,6.666656137,1,0,0,-12.66660728,6.666656137,1,0,0,0,149,149,76,1,,,,,,,,
,,,,,,,,,,,,,FF,,,,,,,,1.5005,,,,,,,,,,,,,,,,,,,,,,60fe3d2570935a75dea9fb40,61036b54b33d786f994eba84,2021-07-29_22h01.14.308,Simcolourproject_2stim_asymm_v5,2020.2.10,Win32,60,61025ae37ef11b136ea224fe,,,,,,,,,3134,67.33335441,52.66665751,1,0,0,response1disk,,6,10.66668606,2.666656017,1,0,0,rectangle,10.66668606,2.666656017,1,0,0,10.66668606,2.666656017,1,0,0,0,150,150,68,1,,,,,,,,
,,,,,,,,,,,,,FF,,,,,,,,1.4344,,,,,,,,,,,,,,,,,,,,,,60fe3d2570935a75dea9fb40,61036b54b33d786f994eba84,2021-07-29_22h01.14.308,Simcolourproject_2stim_asymm_v5,2020.2.10,Win32,60,61025ae37ef11b136ea224fe,,,,,,,,,4111,71.33335453,47.9999907,1,0,0,response1disk,,6,-1.3333143,1.999989331,1,0,0,rectangle,-1.3333143,1.999989331,1,0,0,-1.3333143,1.999989331,1,0,0,0,151,151,29,1,,,,,,,,
,,,,,,,,,,,,,FF,,,,,,,,1.2176,,,,,,,,,,,,,,,,,,,,,,60fe3d2570935a75dea9fb40,61036b54b33d786f994eba84,2021-07-29_22h01.14.308,Simcolourproject_2stim_asymm_v5,2020.2.10,Win32,60,61025ae37ef11b136ea224fe,,,,,,,,,2123,58.0000208,31.33330319,1,0,0,response1disk,,6,8.000019312,3.333322704,1,0,0,rectangle,8.000019312,3.333322704,1,0,0,8.000019312,3.333322704,1,0,0,0,152,152,108,1,,,,,,,,
,,,,,,,,,,,,,FF,,,,,,,,1.7879,,,,,,,,,,,,,,,,,,,,,,60fe3d2570935a75dea9fb40,61036b54b33d786f994eba84,2021-07-29_22h01.14.308,Simcolourproject_2stim_asymm_v5,2020.2.10,Win32,60,61025ae37ef11b136ea224fe,,,,,,,,,1399,38.66668689,30.66665685,1,0,0,response1disk,,6,6.666685939,2.666656017,1,0,0,rectangle,6.666685939,2.666656017,1,0,0,6.666685939,2.666656017,1,0,0,0,153,153,115,1,,,,,,,,
,,,,,,,,,,,,,FF,,,,,,,,1.2832,,,,,,,,,,,,,,,,,,,,,,60fe3d2570935a75dea9fb40,61036b54b33d786f994eba84,2021-07-29_22h01.14.308,Simcolourproject_2stim_asymm_v5,2020.2.10,Win32,60,61025ae37ef11b136ea224fe,,,,,,,,,1218,-19.99998152,57.33330397,1,0,0,response7disk,,0,-7.999981165,5.99998945,1,0,0,rectangle,-7.999981165,5.99998945,1,0,0,-7.999981165,5.99998945,1,0,0,0,154,154,27,1,,,,,,,,
,,,,,,,,,,,,,FF,,,,,,,,1.521,,,,,,,,,,,,,,,,,,,,,,60fe3d2570935a75dea9fb40,61036b54b33d786f994eba84,2021-07-29_22h01.14.308,Simcolourproject_2stim_asymm_v5,2020.2.10,Win32,60,61025ae37ef11b136ea224fe,,,,,,,,,1299,-59.33331603,-27.33334488,1,0,0,response5disk,,2,-3.999981046,11.99998963,1,0,0,rectangle,-3.999981046,11.99998963,1,0,0,-3.999981046,11.99998963,1,0,0,0,155,155,146,1,,,,,,,,
,,,,,,,,,,,,,FF,,,,,,,,1.5683,,,,,,,,,,,,,,,,,,,,,,60fe3d2570935a75dea9fb40,61036b54b33d786f994eba84,2021-07-29_22h01.14.308,Simcolourproject_2stim_asymm_v5,2020.2.10,Win32,60,61025ae37ef11b136ea224fe,,,,,,,,,1802,44.00002038,69.99999136,1,0,0,response1disk,,7,5.333393256,-4.000010848,1,0,0,rectangle,5.333393256,-4.000010848,1,0,0,5.333393256,-4.000010848,1,0,0,0,156,156,30,1,,,,,,,,
,,,,,,,,,,,,,FF,,,,,,,,1.1672,,,,,,,,,,,,,,,,,,,,,,60fe3d2570935a75dea9fb40,61036b54b33d786f994eba84,2021-07-29_22h01.14.308,Simcolourproject_2stim_asymm_v5,2020.2.10,Win32,60,61025ae37ef11b136ea224fe,,,,,,,,,1341,52.66668731,29.99999017,1,0,0,response1disk,,6,-2.666606983,-6.666677594,1,0,0,rectangle,22.00001973,73.33330444,1,0,0,-2.666606983,-1.333344102,1,0,0,0,157,157,95,1,,response1disk_3,TRUE,7,7,"[81,282,90,175,124,131,29,184,131,226,316,158,35,67,315,250,274,88,106,41]",2.217,rectangle
,,,,,,,,,,,,,FF,,,,,,,,1.7173,,,,,,,,,,,,,,,,,,,,,,60fe3d2570935a75dea9fb40,61036b54b33d786f994eba84,2021-07-29_22h01.14.308,Simcolourproject_2stim_asymm_v5,2020.2.10,Win32,60,61025ae37ef11b136ea224fe,,,,,,,,,337,72.66668791,45.33330361,1,0,0,response1disk,,6,22.00001973,-4.000010848,1,0,0,rectangle,22.00001973,-4.000010848,1,0,0,22.00001973,-4.000010848,1,0,0,0,158,158,59,1,,,,,,,,
,,,,,,,,,,,,,FF,,,,,,,,1.1312,,,,,,,,,,,,,,,,,,,,,,60fe3d2570935a75dea9fb40,61036b54b33d786f994eba84,2021-07-29_22h01.14.308,Simcolourproject_2stim_asymm_v5,2020.2.10,Win32,60,61025ae37ef11b136ea224fe,,,,,,,,,2983,49.33335388,31.99999022,1,0,0,response1disk,,6,4.666685879,-2.000010788,1,0,0,rectangle,4.666685879,-2.000010788,1,0,0,4.666685879,-2.000010788,1,0,0,0,159,159,106,1,,,,,,,,
,,,,,,,,,,,,,FF,,,,,,,,1.4213,,,,,,,,,,,,,,,,,,,,,,60fe3d2570935a75dea9fb40,61036b54b33d786f994eba84,2021-07-29_22h01.14.308,Simcolourproject_2stim_asymm_v5,2020.2.10,Win32,60,61025ae37ef11b136ea224fe,,,,,,,,,2545,-38.66660806,-61.33334589,1,0,0,response5disk,,3,-6.666607102,2.666656017,1,0,0,rectangle,-6.666607102,2.666656017,1,0,0,-6.666607102,2.666656017,1,0,0,1,0,160,32,1,,,,,,,,
,,,,,,,,,,,,,FF,,,,,,,,1.8306,,,,,,,,,,,,,,,,,,,,,,60fe3d2570935a75dea9fb40,61036b54b33d786f994eba84,2021-07-29_22h01.14.308,Simcolourproject_2stim_asymm_v5,2020.2.10,Win32,60,61025ae37ef11b136ea224fe,,,,,,,,,219,46.00002044,-90.00001341,1,0,0,response3disk,,4,15.33339355,-2.000010788,1,0,0,rectangle,15.33339355,-2.000010788,1,0,0,15.33339355,-2.000010788,1,0,0,1,1,161,123,1,,,,,,,,
,,,,,,,,,,,,,FF,,,,,,,,2.4978,,,,,,,,,,,,,,,,,,,,,,60fe3d2570935a75dea9fb40,61036b54b33d786f994eba84,2021-07-29_22h01.14.308,Simcolourproject_2stim_asymm_v5,2020.2.10,Win32,60,61025ae37ef11b136ea224fe,,,,,,,,,2680,-22.66660758,-46.0000121,1,0,0,response5disk,,3,6.000019252,-2.000010788,1,0,0,rectangle,6.000019252,-2.000010788,1,0,0,6.000019252,-2.000010788,1,0,0,1,2,162,46,1,,,,,,,,
,,,,,,,,,,,,,FF,,,,,,,,1.1215,,,,,,,,,,,,,,,,,,,,,,60fe3d2570935a75dea9fb40,61036b54b33d786f994eba84,2021-07-29_22h01.14.308,Simcolourproject_2stim_asymm_v5,2020.2.10,Win32,60,61025ae37ef11b136ea224fe,,,,,,,,,2360,-47.99998236,-28.66667825,1,0,0,response5disk,,2,-6.666607102,1.999989331,1,0,0,rectangle,-6.666607102,1.999989331,1,0,0,-6.666607102,1.999989331,1,0,0,1,3,163,132,1,,,,,,,,
,,,,,,,,,,,,,FF,,,,,,,,1.2549,,,,,,,,,,,,,,,,,,,,,,60fe3d2570935a75dea9fb40,61036b54b33d786f994eba84,2021-07-29_22h01.14.308,Simcolourproject_2stim_asymm_v5,2020.2.10,Win32,60,61025ae37ef11b136ea224fe,,,,,,,,,2996,-41.99998218,-22.00001138,1,0,0,response5disk,,2,-13.99998134,-2.666677475,1,0,0,rectangle,-13.99998134,-2.666677475,1,0,0,-13.99998134,-2.666677475,1,0,0,1,4,164,154,1,,,,,,,,
,,,,,,,,,,,,,FF,,,,,,,,1.3145,,,,,,,,,,,,,,,,,,,,,,60fe3d2570935a75dea9fb40,61036b54b33d786f994eba84,2021-07-29_22h01.14.308,Simcolourproject_2stim_asymm_v5,2020.2.10,Win32,60,61025ae37ef11b136ea224fe,,,,,,,,,1530,-45.33331561,-26.66667819,1,0,0,response5disk,,2,-15.9999814,-7.333344281,1,0,0,rectangle,-15.9999814,-7.333344281,1,0,0,-15.9999814,-7.333344281,1,0,0,1,5,165,93,1,,,,,,,,
,,,,,,,,,,,,,FF,,,,,,,,1.5205,,,,,,,,,,,,,,,,,,,,,,60fe3d2570935a75dea9fb40,61036b54b33d786f994eba84,2021-07-29_22h01.14.308,Simcolourproject_2stim_asymm_v5,2020.2.10,Win32,60,61025ae37ef11b136ea224fe,,,,,,,,,330,46.66668713,32.66665691,1,0,0,response1disk,,6,8.666685998,1.333322644,1,0,0,rectangle,8.666685998,1.333322644,1,0,0,8.666685998,1.333322644,1,0,0,1,6,166,90,1,,,,,,,,
,,,,,,,,,,,,,FF,,,,,,,,1.6145,,,,,,,,,,,,,,,,,,,,,,60fe3d2570935a75dea9fb40,61036b54b33d786f994eba84,2021-07-29_22h01.14.308,Simcolourproject_2stim_asymm_v5,2020.2.10,Win32,60,61025ae37ef11b136ea224fe,,,,,,,,,630,-26.6666077,53.99999088,1,0,0,response7disk,,0,-7.333314478,7.333322823,1,0,0,rectangle,-7.333314478,7.333322823,1,0,0,-7.333314478,7.333322823,1,0,0,1,7,167,3,1,,,,,,,,
,,,,,,,,,,,,,FF,,,,,,,,1.2349,,,,,,,,,,,,,,,,,,,,,,60fe3d2570935a75dea9fb40,61036b54b33d786f994eba84,2021-07-29_22h01.14.308,Simcolourproject_2stim_asymm_v5,2020.2.10,Win32,60,61025ae37ef11b136ea224fe,,,,,,,,,4327,-63.99998283,30.66665685,1,0,0,response7disk,,1,-8.666607161,3.99998939,1,0,0,rectangle,-8.666607161,3.99998939,1,0,0,-8.666607161,3.99998939,1,0,0,1,8,168,53,1,,,,,,,,
,,,,,,,,,,,,,FF,,,,,,,,2.7679,,,,,,,,,,,,,,,,,,,,,,60fe3d2570935a75dea9fb40,61036b54b33d786f994eba84,2021-07-29_22h01.14.308,Simcolourproject_2stim_asymm_v5,2020.2.10,Win32,60,61025ae37ef11b136ea224fe,,,,,,,,,669,30.00001997,-60.00001252,1,0,0,response3disk,,4,1.9735E-05,-0.666677415,1,0,0,rectangle,1.9735E-05,-0.666677415,1,0,0,1.9735E-05,-0.666677415,1,0,0,1,9,169,134,1,,,,,,,,
,,,,,,,,,,,,,FF,,,,,,,,1.234,,,,,,,,,,,,,,,,,,,,,,60fe3d2570935a75dea9fb40,61036b54b33d786f994eba84,2021-07-29_22h01.14.308,Simcolourproject_2stim_asymm_v5,2020.2.10,Win32,60,61025ae37ef11b136ea224fe,,,,,,,,,1939,60.00002086,25.99999005,1,0,0,response1disk,,6,15.33339355,-5.333344221,1,0,0,rectangle,15.33339355,-5.333344221,1,0,0,15.33339355,-5.333344221,1,0,0,1,10,170,130,1,,,,,,,,
,,,,,,,,,,,,,FF,,,,,,,,1.4181,,,,,,,,,,,,,,,,,,,,,,60fe3d2570935a75dea9fb40,61036b54b33d786f994eba84,2021-07-29_22h01.14.308,Simcolourproject_2stim_asymm_v5,2020.2.10,Win32,60,61025ae37ef11b136ea224fe,,,,,,,,,3080,22.00001973,-38.66667855,1,0,0,response3disk,,4,10.00001937,4.666656077,1,0,0,rectangle,10.00001937,4.666656077,1,0,0,10.00001937,4.666656077,1,0,0,1,11,171,113,1,,,,,,,,
,,,,,,,,,,,,,FF,,,,,,,,1.1681,,,,,,,,,,,,,,,,,,,,,,60fe3d2570935a75dea9fb40,61036b54b33d786f994eba84,2021-07-29_22h01.14.308,Simcolourproject_2stim_asymm_v5,2020.2.10,Win32,60,61025ae37ef11b136ea224fe,,,,,,,,,2949,58.66668749,39.99999046,1,0,0,response1disk,,6,-3.999981046,-2.666677475,1,0,0,rectangle,-3.999981046,-2.666677475,1,0,0,-3.999981046,-2.666677475,1,0,0,1,12,172,139,1,,,,,,,,
,,,,,,,,,,,,,FF,,,,,,,,2.1506,,,,,,,,,,,,,,,,,,,,,,60fe3d2570935a75dea9fb40,61036b54b33d786f994eba84,2021-07-29_22h01.14.308,Simcolourproject_2stim_asymm_v5,2020.2.10,Win32,60,61025ae37ef11b136ea224fe,,,,,,,,,1622,50.00002056,-34.66667843,1,0,0,response3disk,,5,-2.666606983,-2.000010788,1,0,0,rectangle,-2.666606983,-2.000010788,1,0,0,-2.666606983,-2.000010788,1,0,0,1,13,173,15,1,,,,,,,,
,,,,,,,,,,,,,FF,,,,,,,,1.668,,,,,,,,,,,,,,,,,,,,,,60fe3d2570935a75dea9fb40,61036b54b33d786f994eba84,2021-07-29_22h01.14.308,Simcolourproject_2stim_asymm_v5,2020.2.10,Win32,60,61025ae37ef11b136ea224fe,,,,,,,,,1730,40.00002027,51.99999082,1,0,0,response1disk,,7,18.00001961,4.666656077,1,0,0,rectangle,24.00001979,-55.33334571,1,0,0,6.666685939,4.666656077,1,0,0,1,14,174,42,1,,response3disk_3,TRUE,4,4,"[81,282,90,175,124,131,29,184,131,226,316,158,35,67,315,250,274,88,106,41]",1.9831,rectangle
,,,,,,,,,,,,,FF,,,,,,,,1.4008,,,,,,,,,,,,,,,,,,,,,,60fe3d2570935a75dea9fb40,61036b54b33d786f994eba84,2021-07-29_22h01.14.308,Simcolourproject_2stim_asymm_v5,2020.2.10,Win32,60,61025ae37ef11b136ea224fe,,,,,,,,,3373,62.66668761,33.99999028,1,0,0,response1disk,,6,-0.666606923,-5.333344221,1,0,0,rectangle,-0.666606923,-5.333344221,1,0,0,-0.666606923,-5.333344221,1,0,0,1,15,175,157,1,,,,,,,,
,,,,,,,,,,,,,FF,,,,,,,,1.6015,,,,,,,,,,,,,,,,,,,,,,60fe3d2570935a75dea9fb40,61036b54b33d786f994eba84,2021-07-29_22h01.14.308,Simcolourproject_2stim_asymm_v5,2020.2.10,Win32,60,61025ae37ef11b136ea224fe,,,,,,,,,3925,29.33339397,-54.00001234,1,0,0,response3disk,,4,10.66668606,2.666656017,1,0,0,rectangle,10.66668606,2.666656017,1,0,0,10.66668606,2.666656017,1,0,0,1,16,176,148,1,,,,,,,,
,,,,,,,,,,,,,FF,,,,,,,,1.7172,,,,,,,,,,,,,,,,,,,,,,60fe3d2570935a75dea9fb40,61036b54b33d786f994eba84,2021-07-29_22h01.14.308,Simcolourproject_2stim_asymm_v5,2020.2.10,Win32,60,61025ae37ef11b136ea224fe,,,,,,,,,2231,25.33339385,-42.66667867,1,0,0,response3disk,,4,8.000019312,-4.666677535,1,0,0,rectangle,8.000019312,-4.666677535,1,0,0,8.000019312,-4.666677535,1,0,0,1,17,177,51,1,,,,,,,,
,,,,,,,,,,,,,FF,,,,,,,,1.2849,,,,,,,,,,,,,,,,,,,,,,60fe3d2570935a75dea9fb40,61036b54b33d786f994eba84,2021-07-29_22h01.14.308,Simcolourproject_2stim_asymm_v5,2020.2.10,Win32,60,61025ae37ef11b136ea224fe,,,,,,,,,570,20.66668636,-43.33334535,1,0,0,response3disk,,4,-4.666607042,0.666655958,1,0,0,rectangle,-4.666607042,0.666655958,1,0,0,-4.666607042,0.666655958,1,0,0,1,18,178,7,1,,,,,,,,
,,,,,,,,,,,,,FF,,,,,,,,2.5511,,,,,,,,,,,,,,,,,,,,,,60fe3d2570935a75dea9fb40,61036b54b33d786f994eba84,2021-07-29_22h01.14.308,Simcolourproject_2stim_asymm_v5,2020.2.10,Win32,60,61025ae37ef11b136ea224fe,,,,,,,,,3140,48.66668719,-20.00001132,1,0,0,response3disk,,5,17.33339361,1.333322644,1,0,0,rectangle,17.33339361,1.333322644,1,0,0,17.33339361,1.333322644,1,0,0,1,19,179,97,1,,,,,,,,
,,,,,,,,,,,,,FF,,,,,,,,1.5348,,,,,,,,,,,,,,,,,,,,,,60fe3d2570935a75dea9fb40,61036b54b33d786f994eba84,2021-07-29_22h01.14.308,Simcolourproject_2stim_asymm_v5,2020.2.10,Win32,60,61025ae37ef11b136ea224fe,,,,,,,,,4286,56.66668743,31.99999022,1,0,0,response1disk,,6,1.333393137,-5.333344221,1,0,0,rectangle,1.333393137,-5.333344221,1,0,0,1.333393137,-5.333344221,1,0,0,1,20,180,33,1,,,,,,,,
,,,,,,,,,,,,,FF,,,,,,,,1.8349,,,,,,,,,,,,,,,,,,,,,,60fe3d2570935a75dea9fb40,61036b54b33d786f994eba84,2021-07-29_22h01.14.308,Simcolourproject_2stim_asymm_v5,2020.2.10,Win32,60,61025ae37ef11b136ea224fe,,,,,,,,,2595,24.00001979,-61.33334589,1,0,0,response3disk,,4,-1.999980986,-1.333344102,1,0,0,rectangle,-1.999980986,-1.333344102,1,0,0,-1.999980986,-1.333344102,1,0,0,1,21,181,22,1,,,,,,,,
,,,,,,,,,,,,,FF,,,,,,,,1.3508,,,,,,,,,,,,,,,,,,,,,,60fe3d2570935a75dea9fb40,61036b54b33d786f994eba84,2021-07-29_22h01.14.308,Simcolourproject_2stim_asymm_v5,2020.2.10,Win32,60,61025ae37ef11b136ea224fe,,,,,,,,,2109,23.33339379,-46.0000121,1,0,0,response3disk,,4,8.666685998,5.333322763,1,0,0,rectangle,8.666685998,5.333322763,1,0,0,8.666685998,5.333322763,1,0,0,1,22,182,17,1,,,,,,,,
,,,,,,,,,,,,,FF,,,,,,,,1.238,,,,,,,,,,,,,,,,,,,,,,60fe3d2570935a75dea9fb40,61036b54b33d786f994eba84,2021-07-29_22h01.14.308,Simcolourproject_2stim_asymm_v5,2020.2.10,Win32,60,61025ae37ef11b136ea224fe,,,,,,,,,4167,50.66668725,27.99999011,1,0,0,response1disk,,6,13.33339349,7.333322823,1,0,0,rectangle,-60.66660871,44.66665727,1,0,0,-15.9999814,3.99998939,1,0,0,1,23,183,99,1,,response7disk_3,TRUE,1,1,"[81,282,90,175,124,131,29,184,131,226,316,158,35,67,315,250,274,88,106,41]",1.8503,rectangle
,,,,,,,,,,,,,FF,,,,,,,,1.5845,,,,,,,,,,,,,,,,,,,,,,60fe3d2570935a75dea9fb40,61036b54b33d786f994eba84,2021-07-29_22h01.14.308,Simcolourproject_2stim_asymm_v5,2020.2.10,Win32,60,61025ae37ef11b136ea224fe,,,,,,,,,2882,-28.66660776,-46.66667879,1,0,0,response5disk,,3,-2.666606983,-5.333344221,1,0,0,rectangle,-2.666606983,-5.333344221,1,0,0,-2.666606983,-5.333344221,1,0,0,1,24,184,92,1,,,,,,,,
,,,,,,,,,,,,,FF,,,,,,,,2.1717,,,,,,,,,,,,,,,,,,,,,,60fe3d2570935a75dea9fb40,61036b54b33d786f994eba84,2021-07-29_22h01.14.308,Simcolourproject_2stim_asymm_v5,2020.2.10,Win32,60,61025ae37ef11b136ea224fe,,,,,,,,,1855,72.00002122,-31.333345,1,0,0,response3disk,,5,8.666685998,-8.666677654,1,0,0,rectangle,8.666685998,-8.666677654,1,0,0,8.666685998,-8.666677654,1,0,0,1,25,185,71,1,,,,,,,,
,,,,,,,,,,,,,FF,,,,,,,,1.101,,,,,,,,,,,,,,,,,,,,,,60fe3d2570935a75dea9fb40,61036b54b33d786f994eba84,2021-07-29_22h01.14.308,Simcolourproject_2stim_asymm_v5,2020.2.10,Win32,60,61025ae37ef11b136ea224fe,,,,,,,,,2905,50.66668725,-22.66667807,1,0,0,response3disk,,5,6.666685939,-5.333344221,1,0,0,rectangle,6.666685939,-5.333344221,1,0,0,6.666685939,-5.333344221,1,0,0,1,26,186,124,1,,,,,,,,
,,,,,,,,,,,,,FF,,,,,,,,1.1346,,,,,,,,,,,,,,,,,,,,,,60fe3d2570935a75dea9fb40,61036b54b33d786f994eba84,2021-07-29_22h01.14.308,Simcolourproject_2stim_asymm_v5,2020.2.10,Win32,60,61025ae37ef11b136ea224fe,,,,,,,,,3970,48.0000205,-24.00001144,1,0,0,response3disk,,5,-5.999981105,7.99998951,1,0,0,rectangle,-5.999981105,7.99998951,1,0,0,-5.999981105,7.99998951,1,0,0,1,27,187,10,1,,,,,,,,
,,,,,,,,,,,,,FF,,,,,,,,1.9513,,,,,,,,,,,,,,,,,,,,,,60fe3d2570935a75dea9fb40,61036b54b33d786f994eba84,2021-07-29_22h01.14.308,Simcolourproject_2stim_asymm_v5,2020.2.10,Win32,60,61025ae37ef11b136ea224fe,,,,,,,,,866,58.66668749,32.66665691,1,0,0,response1disk,,6,10.00001937,1.333322644,1,0,0,rectangle,10.00001937,1.333322644,1,0,0,10.00001937,1.333322644,1,0,0,1,28,188,83,1,,,,,,,,
,,,,,,,,,,,,,FF,,,,,,,,1.0684,,,,,,,,,,,,,,,,,,,,,,60fe3d2570935a75dea9fb40,61036b54b33d786f994eba84,2021-07-29_22h01.14.308,Simcolourproject_2stim_asymm_v5,2020.2.10,Win32,60,61025ae37ef11b136ea224fe,,,,,,,,,2440,53.333354,31.99999022,1,0,0,response1disk,,6,4.666685879,8.666656196,1,0,0,rectangle,4.666685879,8.666656196,1,0,0,4.666685879,8.666656196,1,0,0,1,29,189,50,1,,,,,,,,
,,,,,,,,,,,,,FF,,,,,,,,1.1203,,,,,,,,,,,,,,,,,,,,,,60fe3d2570935a75dea9fb40,61036b54b33d786f994eba84,2021-07-29_22h01.14.308,Simcolourproject_2stim_asymm_v5,2020.2.10,Win32,60,61025ae37ef11b136ea224fe,,,,,,,,,2262,42.66668701,39.99999046,1,0,0,response1disk,,6,11.33339343,11.99998963,1,0,0,rectangle,11.33339343,11.99998963,1,0,0,11.33339343,11.99998963,1,0,0,1,30,190,84,1,,,,,,,,
,,,,,,,,,,,,,FF,,,,,,,,1.5532,,,,,,,,,,,,,,,,,,,,,,60fe3d2570935a75dea9fb40,61036b54b33d786f994eba84,2021-07-29_22h01.14.308,Simcolourproject_2stim_asymm_v5,2020.2.10,Win32,60,61025ae37ef11b136ea224fe,,,,,,,,,1286,-59.33331603,41.99999052,1,0,0,response7disk,,1,-14.66660734,3.333322704,1,0,0,rectangle,-14.66660734,3.333322704,1,0,0,-14.66660734,3.333322704,1,0,0,1,31,191,23,1,,,,,,,,
,,,,,,,,,,,,,FF,,,,,,,,1.7515,,,,,,,,,,,,,,,,,,,,,,60fe3d2570935a75dea9fb40,61036b54b33d786f994eba84,2021-07-29_22h01.14.308,Simcolourproject_2stim_asymm_v5,2020.2.10,Win32,60,61025ae37ef11b136ea224fe,,,,,,,,,2195,43.3333537,32.66665691,1,0,0,response1disk,,6,-1.3333143,-6.000010908,1,0,0,rectangle,-1.3333143,-6.000010908,1,0,0,-1.3333143,-6.000010908,1,0,0,1,32,192,68,1,,,,,,,,
,,,,,,,,,,,,,FF,,,,,,,,2.0701,,,,,,,,,,,,,,,,,,,,,,60fe3d2570935a75dea9fb40,61036b54b33d786f994eba84,2021-07-29_22h01.14.308,Simcolourproject_2stim_asymm_v5,2020.2.10,Win32,60,61025ae37ef11b136ea224fe,,,,,,,,,1970,-65.33331621,29.99999017,1,0,0,response7disk,,1,-6.666607102,-1.07288E-05,1,0,0,rectangle,-6.666607102,-1.07288E-05,1,0,0,-6.666607102,-1.07288E-05,1,0,0,1,33,193,45,1,,,,,,,,
,,,,,,,,,,,,,FF,,,,,,,,2.818,,,,,,,,,,,,,,,,,,,,,,60fe3d2570935a75dea9fb40,61036b54b33d786f994eba84,2021-07-29_22h01.14.308,Simcolourproject_2stim_asymm_v5,2020.2.10,Win32,60,61025ae37ef11b136ea224fe,,,,,,,,,3585,26.00001985,-51.33334559,1,0,0,response3disk,,4,6.666685939,5.99998945,1,0,0,rectangle,6.666685939,5.99998945,1,0,0,6.666685939,5.99998945,1,0,0,1,34,194,101,1,,,,,,,,
,,,,,,,,,,,,,FF,,,,,,,,1.2011,,,,,,,,,,,,,,,,,,,,,,60fe3d2570935a75dea9fb40,61036b54b33d786f994eba84,2021-07-29_22h01.14.308,Simcolourproject_2stim_asymm_v5,2020.2.10,Win32,60,61025ae37ef11b136ea224fe,,,,,,,,,2730,27.33339391,-43.33334535,1,0,0,response3disk,,4,11.33339343,1.333322644,1,0,0,rectangle,11.33339343,1.333322644,1,0,0,11.33339343,1.333322644,1,0,0,1,35,195,105,1,,,,,,,,
,,,,,,,,,,,,,FF,,,,,,,,3.2178,,,,,,,,,,,,,,,,,,,,,,60fe3d2570935a75dea9fb40,61036b54b33d786f994eba84,2021-07-29_22h01.14.308,Simcolourproject_2stim_asymm_v5,2020.2.10,Win32,60,61025ae37ef11b136ea224fe,,,,,,,,,1734,-75.99998319,40.66665715,1,0,0,response7disk,,1,-23.33331496,6.666656137,1,0,0,rectangle,-23.33331496,6.666656137,1,0,0,-23.33331496,6.666656137,1,0,0,1,36,196,86,1,,,,,,,,
,,,,,,,,,,,,,FF,,,,,,,,1.2841,,,,,,,,,,,,,,,,,,,,,,60fe3d2570935a75dea9fb40,61036b54b33d786f994eba84,2021-07-29_22h01.14.308,Simcolourproject_2stim_asymm_v5,2020.2.10,Win32,60,61025ae37ef11b136ea224fe,,,,,,,,,1189,31.33339403,53.99999088,1,0,0,response1disk,,7,4.000019193,5.333322763,1,0,0,rectangle,4.000019193,5.333322763,1,0,0,4.000019193,5.333322763,1,0,0,1,37,197,56,1,,,,,,,,
,,,,,,,,,,,,,FF,,,,,,,,1.7344,,,,,,,,,,,,,,,,,,,,,,60fe3d2570935a75dea9fb40,61036b54b33d786f994eba84,2021-07-29_22h01.14.308,Simcolourproject_2stim_asymm_v5,2020.2.10,Win32,60,61025ae37ef11b136ea224fe,,,,,,,,,1585,56.00002074,39.33330343,1,0,0,response1disk,,6,0.66668576,4.666656077,1,0,0,rectangle,0.66668576,4.666656077,1,0,0,0.66668576,4.666656077,1,0,0,1,38,198,60,1,,,,,,,,
,,,,,,,,,,,,,FF,,,,,,,,1.1549,,,,,,,,,,,,,,,,,,,,,,60fe3d2570935a75dea9fb40,61036b54b33d786f994eba84,2021-07-29_22h01.14.308,Simcolourproject_2stim_asymm_v5,2020.2.10,Win32,60,61025ae37ef11b136ea224fe,,,,,,,,,3874,54.00002068,36.66665703,1,0,0,response1disk,,6,7.333393315,4.666656077,1,0,0,rectangle,7.333393315,4.666656077,1,0,0,7.333393315,4.666656077,1,0,0,1,39,199,4,1,,,,,,,,
,,,,,,,,,,,,,FF,,,,,,,,1.2018,,,,,,,,,,,,,,,,,,,,,,60fe3d2570935a75dea9fb40,61036b54b33d786f994eba84,2021-07-29_22h01.14.308,Simcolourproject_2stim_asymm_v5,2020.2.10,Win32,60,61025ae37ef11b136ea224fe,,,,,,,,,3897,61.33335423,37.9999904,1,0,0,response1disk,,6,7.333393315,5.99998945,1,0,0,rectangle,7.333393315,5.99998945,1,0,0,7.333393315,5.99998945,1,0,0,1,40,200,142,1,,,,,,,,
,,,,,,,,,,,,,FF,,,,,,,,1.4175,,,,,,,,,,,,,,,,,,,,,,60fe3d2570935a75dea9fb40,61036b54b33d786f994eba84,2021-07-29_22h01.14.308,Simcolourproject_2stim_asymm_v5,2020.2.10,Win32,60,61025ae37ef11b136ea224fe,,,,,,,,,1772,38.00002021,-16.66667789,1,0,0,response3disk,,5,8.666685998,2.666656017,1,0,0,rectangle,8.666685998,2.666656017,1,0,0,8.666685998,2.666656017,1,0,0,1,41,201,153,1,,,,,,,,
,,,,,,,,,,,,,FF,,,,,,,,1.2173,,,,,,,,,,,,,,,,,,,,,,60fe3d2570935a75dea9fb40,61036b54b33d786f994eba84,2021-07-29_22h01.14.308,Simcolourproject_2stim_asymm_v5,2020.2.10,Win32,60,61025ae37ef11b136ea224fe,,,,,,,,,1107,53.333354,33.99999028,1,0,0,response1disk,,6,6.000019252,-3.333344162,1,0,0,rectangle,6.000019252,-3.333344162,1,0,0,6.000019252,-3.333344162,1,0,0,1,42,202,18,1,,,,,,,,
,,,,,,,,,,,,,FF,,,,,,,,1.0843,,,,,,,,,,,,,,,,,,,,,,60fe3d2570935a75dea9fb40,61036b54b33d786f994eba84,2021-07-29_22h01.14.308,Simcolourproject_2stim_asymm_v5,2020.2.10,Win32,60,61025ae37ef11b136ea224fe,,,,,,,,,4089,54.66668737,46.66665733,1,0,0,response1disk,,6,4.666685879,11.99998963,1,0,0,rectangle,4.666685879,11.99998963,1,0,0,4.666685879,11.99998963,1,0,0,1,43,203,128,1,,,,,,,,
,,,,,,,,,,,,,FF,,,,,,,,1.2017,,,,,,,,,,,,,,,,,,,,,,60fe3d2570935a75dea9fb40,61036b54b33d786f994eba84,2021-07-29_22h01.14.308,Simcolourproject_2stim_asymm_v5,2020.2.10,Win32,60,61025ae37ef11b136ea224fe,,,,,,,,,2379,37.33339421,25.99999005,1,0,0,response1disk,,6,8.666685998,-7.333344281,1,0,0,rectangle,8.666685998,-7.333344281,1,0,0,8.666685998,-7.333344281,1,0,0,1,44,204,11,1,,,,,,,,
,,,,,,,,,,,,,FF,,,,,,,,1.2707,,,,,,,,,,,,,,,,,,,,,,60fe3d2570935a75dea9fb40,61036b54b33d786f994eba84,2021-07-29_22h01.14.308,Simcolourproject_2stim_asymm_v5,2020.2.10,Win32,60,61025ae37ef11b136ea224fe,,,,,,,,,3468,-18.66660746,63.33330415,1,0,0,response7disk,,0,-4.666607042,5.333322763,1,0,0,rectangle,-4.666607042,5.333322763,1,0,0,-4.666607042,5.333322763,1,0,0,1,45,205,74,1,,,,,,,,
,,,,,,,,,,,,,FF,,,,,,,,2.8972,,,,,,,,,,,,,,,,,,,,,,60fe3d2570935a75dea9fb40,61036b54b33d786f994eba84,2021-07-29_22h01.14.308,Simcolourproject_2stim_asymm_v5,2020.2.10,Win32,60,61025ae37ef11b136ea224fe,,,,,,,,,3625,24.66668648,60.66665775,1,0,0,response1disk,,7,0.66668576,0.666655958,1,0,0,rectangle,0.66668576,0.666655958,1,0,0,0.66668576,0.666655958,1,0,0,1,46,206,63,1,,,,,,,,
,,,,,,,,,,,,,FF,,,,,,,,2.0678,,,,,,,,,,,,,,,,,,,,,,60fe3d2570935a75dea9fb40,61036b54b33d786f994eba84,2021-07-29_22h01.14.308,Simcolourproject_2stim_asymm_v5,2020.2.10,Win32,60,61025ae37ef11b136ea224fe,,,,,,,,,3105,-43.33331555,-57.33334577,1,0,0,response5disk,,3,-3.333314359,1.999989331,1,0,0,rectangle,-3.333314359,1.999989331,1,0,0,-3.333314359,1.999989331,1,0,0,1,47,207,135,1,,,,,,,,
,,,,,,,,,,,,,FF,,,,,,,,1.1838,,,,,,,,,,,,,,,,,,,,,,60fe3d2570935a75dea9fb40,61036b54b33d786f994eba84,2021-07-29_22h01.14.308,Simcolourproject_2stim_asymm_v5,2020.2.10,Win32,60,61025ae37ef11b136ea224fe,,,,,,,,,4042,55.33335406,28.66665679,1,0,0,response1disk,,6,15.33339355,3.333322704,1,0,0,rectangle,15.33339355,3.333322704,1,0,0,15.33339355,3.333322704,1,0,0,1,48,208,137,1,,,,,,,,
,,,,,,,,,,,,,FF,,,,,,,,1.1971,,,,,,,,,,,,,,,,,,,,,,60fe3d2570935a75dea9fb40,61036b54b33d786f994eba84,2021-07-29_22h01.14.308,Simcolourproject_2stim_asymm_v5,2020.2.10,Win32,60,61025ae37ef11b136ea224fe,,,,,,,,,2747,50.66668725,23.33330295,1,0,0,response1disk,,6,18.00001961,-4.000010848,1,0,0,rectangle,18.00001961,-4.000010848,1,0,0,18.00001961,-4.000010848,1,0,0,1,49,209,67,1,,,,,,,,
,,,,,,,,,,,,,FF,,,,,,,,1.3182,,,,,,,,,,,,,,,,,,,,,,60fe3d2570935a75dea9fb40,61036b54b33d786f994eba84,2021-07-29_22h01.14.308,Simcolourproject_2stim_asymm_v5,2020.2.10,Win32,60,61025ae37ef11b136ea224fe,,,,,,,,,3999,70.00002116,37.9999904,1,0,0,response1disk,,6,21.33339373,-1.07288E-05,1,0,0,rectangle,21.33339373,-1.07288E-05,1,0,0,21.33339373,-1.07288E-05,1,0,0,1,50,210,110,1,,,,,,,,
,,,,,,,,,,,,,FF,,,,,,,,1.2312,,,,,,,,,,,,,,,,,,,,,,60fe3d2570935a75dea9fb40,61036b54b33d786f994eba84,2021-07-29_22h01.14.308,Simcolourproject_2stim_asymm_v5,2020.2.10,Win32,60,61025ae37ef11b136ea224fe,,,,,,,,,3336,-36.666608,79.33330462,1,0,0,response7disk,,0,-11.99998128,1.999989331,1,0,0,rectangle,-11.99998128,1.999989331,1,0,0,-11.99998128,1.999989331,1,0,0,1,51,211,120,1,,,,,,,,
,,,,,,,,,,,,,FF,,,,,,,,1.3517,,,,,,,,,,,,,,,,,,,,,,60fe3d2570935a75dea9fb40,61036b54b33d786f994eba84,2021-07-29_22h01.14.308,Simcolourproject_2stim_asymm_v5,2020.2.10,Win32,60,61025ae37ef11b136ea224fe,,,,,,,,,3518,-35.999982,-51.33334559,1,0,0,response5disk,,3,2.000019133,5.99998945,1,0,0,rectangle,2.000019133,5.99998945,1,0,0,2.000019133,5.99998945,1,0,0,1,52,212,95,1,,,,,,,,
,,,,,,,,,,,,,FF,,,,,,,,1.4341,,,,,,,,,,,,,,,,,,,,,,60fe3d2570935a75dea9fb40,61036b54b33d786f994eba84,2021-07-29_22h01.14.308,Simcolourproject_2stim_asymm_v5,2020.2.10,Win32,60,61025ae37ef11b136ea224fe,,,,,,,,,3865,61.33335423,53.33330385,1,0,0,response1disk,,6,-7.333314478,5.99998945,1,0,0,rectangle,-7.333314478,5.99998945,1,0,0,-7.333314478,5.99998945,1,0,0,1,53,213,39,1,,,,,,,,
,,,,,,,,,,,,,FF,,,,,,,,1.5509,,,,,,,,,,,,,,,,,,,,,,60fe3d2570935a75dea9fb40,61036b54b33d786f994eba84,2021-07-29_22h01.14.308,Simcolourproject_2stim_asymm_v5,2020.2.10,Win32,60,61025ae37ef11b136ea224fe,,,,,,,,,3054,-61.99998277,47.9999907,1,0,0,response7disk,,1,-7.333314478,6.666656137,1,0,0,rectangle,-7.333314478,6.666656137,1,0,0,-7.333314478,6.666656137,1,0,0,1,54,214,2,1,,,,,,,,
,,,,,,,,,,,,,FF,,,,,,,,1.1004,,,,,,,,,,,,,,,,,,,,,,60fe3d2570935a75dea9fb40,61036b54b33d786f994eba84,2021-07-29_22h01.14.308,Simcolourproject_2stim_asymm_v5,2020.2.10,Win32,60,61025ae37ef11b136ea224fe,,,,,,,,,936,62.00002092,43.99999058,1,0,0,response1disk,,6,6.000019252,3.333322704,1,0,0,rectangle,6.000019252,3.333322704,1,0,0,6.000019252,3.333322704,1,0,0,1,55,215,14,1,,,,,,,,
,,,,,,,,,,,,,FF,,,,,,,,0.9668,,,,,,,,,,,,,,,,,,,,,,60fe3d2570935a75dea9fb40,61036b54b33d786f994eba84,2021-07-29_22h01.14.308,Simcolourproject_2stim_asymm_v5,2020.2.10,Win32,60,61025ae37ef11b136ea224fe,,,,,,,,,746,78.66668808,51.99999082,1,0,0,response1disk,,6,16.00001955,1.999989331,1,0,0,rectangle,16.00001955,1.999989331,1,0,0,16.00001955,1.999989331,1,0,0,1,56,216,70,1,,,,,,,,
,,,,,,,,,,,,,FF,,,,,,,,1.0343,,,,,,,,,,,,,,,,,,,,,,60fe3d2570935a75dea9fb40,61036b54b33d786f994eba84,2021-07-29_22h01.14.308,Simcolourproject_2stim_asymm_v5,2020.2.10,Win32,60,61025ae37ef11b136ea224fe,,,,,,,,,3804,59.33335418,40.66665715,1,0,0,response1disk,,6,12.66668612,7.333322823,1,0,0,rectangle,12.66668612,7.333322823,1,0,0,12.66668612,7.333322823,1,0,0,1,57,217,20,1,,,,,,,,
,,,,,,,,,,,,,FF,,,,,,,,0.9706,,,,,,,,,,,,,,,,,,,,,,60fe3d2570935a75dea9fb40,61036b54b33d786f994eba84,2021-07-29_22h01.14.308,Simcolourproject_2stim_asymm_v5,2020.2.10,Win32,60,61025ae37ef11b136ea224fe,,,,,,,,,4035,62.00002092,55.99999094,1,0,0,response1disk,,6,12.66668612,12.66665632,1,0,0,rectangle,12.66668612,12.66665632,1,0,0,12.66668612,12.66665632,1,0,0,1,58,218,141,1,,,,,,,,
,,,,,,,,,,,,,FF,,,,,,,,1.8182,,,,,,,,,,,,,,,,,,,,,,60fe3d2570935a75dea9fb40,61036b54b33d786f994eba84,2021-07-29_22h01.14.308,Simcolourproject_2stim_asymm_v5,2020.2.10,Win32,60,61025ae37ef11b136ea224fe,,,,,,,,,3290,-30.66660782,65.99999124,1,0,0,response7disk,,0,-14.66660734,2.666656017,1,0,0,rectangle,-14.66660734,2.666656017,1,0,0,-14.66660734,2.666656017,1,0,0,1,59,219,131,1,,,,,,,,
,,,,,,,,,,,,,FF,,,,,,,,1.3841,,,,,,,,,,,,,,,,,,,,,,60fe3d2570935a75dea9fb40,61036b54b33d786f994eba84,2021-07-29_22h01.14.308,Simcolourproject_2stim_asymm_v5,2020.2.10,Win32,60,61025ae37ef11b136ea224fe,,,,,,,,,791,-32.66660788,-48.66667885,1,0,0,response5disk,,3,-1.3333143,-6.666677594,1,0,0,rectangle,-1.3333143,-6.666677594,1,0,0,-1.3333143,-6.666677594,1,0,0,1,60,220,107,1,,,,,,,,
,,,,,,,,,,,,,FF,,,,,,,,1.0352,,,,,,,,,,,,,,,,,,,,,,60fe3d2570935a75dea9fb40,61036b54b33d786f994eba84,2021-07-29_22h01.14.308,Simcolourproject_2stim_asymm_v5,2020.2.10,Win32,60,61025ae37ef11b136ea224fe,,,,,,,,,3049,-23.33331496,-59.33334583,1,0,0,response5disk,,3,2.66668582,-9.33334434,1,0,0,rectangle,2.66668582,-9.33334434,1,0,0,2.66668582,-9.33334434,1,0,0,1,61,221,155,1,,,,,,,,
,,,,,,,,,,,,,FF,,,,,,,,1.4015,,,,,,,,,,,,,,,,,,,,,,60fe3d2570935a75dea9fb40,61036b54b33d786f994eba84,2021-07-29_22h01.14.308,Simcolourproject_2stim_asymm_v5,2020.2.10,Win32,60,61025ae37ef11b136ea224fe,,,,,,,,,974,25.33339385,-51.33334559,1,0,0,response3disk,,4,5.333393256,2.666656017,1,0,0,rectangle,5.333393256,2.666656017,1,0,0,5.333393256,2.666656017,1,0,0,1,62,222,138,1,,,,,,,,
,,,,,,,,,,,,,FF,,,,,,,,1.3332,,,,,,,,,,,,,,,,,,,,,,60fe3d2570935a75dea9fb40,61036b54b33d786f994eba84,2021-07-29_22h01.14.308,Simcolourproject_2stim_asymm_v5,2020.2.10,Win32,60,61025ae37ef11b136ea224fe,,,,,,,,,17,45.33335376,22.66665661,1,0,0,response1disk,,6,9.333393375,-5.333344221,1,0,0,rectangle,9.333393375,-5.333344221,1,0,0,9.333393375,-5.333344221,1,0,0,1,63,223,75,1,,,,,,,,
,,,,,,,,,,,,,FF,,,,,,,,1.1023,,,,,,,,,,,,,,,,,,,,,,60fe3d2570935a75dea9fb40,61036b54b33d786f994eba84,2021-07-29_22h01.14.308,Simcolourproject_2stim_asymm_v5,2020.2.10,Win32,60,61025ae37ef11b136ea224fe,,,,,,,,,4084,56.66668743,25.99999005,1,0,0,response1disk,,6,24.00001979,-4.666677535,1,0,0,rectangle,24.00001979,-4.666677535,1,0,0,24.00001979,-4.666677535,1,0,0,1,64,224,61,1,,,,,,,,
,,,,,,,,,,,,,FF,,,,,,,,1.4175,,,,,,,,,,,,,,,,,,,,,,60fe3d2570935a75dea9fb40,61036b54b33d786f994eba84,2021-07-29_22h01.14.308,Simcolourproject_2stim_asymm_v5,2020.2.10,Win32,60,61025ae37ef11b136ea224fe,,,,,,,,,3039,-41.33331549,-20.00001132,1,0,0,response5disk,,2,0.66668576,5.333322763,1,0,0,rectangle,62.00002092,-26.66667819,1,0,0,20.66668636,-7.333344281,1,0,0,1,65,225,0,1,,response3disk_3,TRUE,5,5,"[81,282,90,175,124,131,29,184,131,226,316,158,35,67,315,250,274,88,106,41]",2.3339,rectangle
,,,,,,,,,,,,,FF,,,,,,,,1.3177,,,,,,,,,,,,,,,,,,,,,,60fe3d2570935a75dea9fb40,61036b54b33d786f994eba84,2021-07-29_22h01.14.308,Simcolourproject_2stim_asymm_v5,2020.2.10,Win32,60,61025ae37ef11b136ea224fe,,,,,,,,,761,60.66668755,39.33330343,1,0,0,response1disk,,6,10.00001937,1.999989331,1,0,0,rectangle,10.00001937,1.999989331,1,0,0,10.00001937,1.999989331,1,0,0,1,66,226,129,1,,,,,,,,
,,,,,,,,,,,,,FF,,,,,,,,1.084,,,,,,,,,,,,,,,,,,,,,,60fe3d2570935a75dea9fb40,61036b54b33d786f994eba84,2021-07-29_22h01.14.308,Simcolourproject_2stim_asymm_v5,2020.2.10,Win32,60,61025ae37ef11b136ea224fe,,,,,,,,,2734,44.66668707,34.66665697,1,0,0,response1disk,,6,8.666685998,6.666656137,1,0,0,rectangle,8.666685998,6.666656137,1,0,0,8.666685998,6.666656137,1,0,0,1,67,227,147,1,,,,,,,,
,,,,,,,,,,,,,FF,,,,,,,,1.7014,,,,,,,,,,,,,,,,,,,,,,60fe3d2570935a75dea9fb40,61036b54b33d786f994eba84,2021-07-29_22h01.14.308,Simcolourproject_2stim_asymm_v5,2020.2.10,Win32,60,61025ae37ef11b136ea224fe,,,,,,,,,3990,-35.33331531,-54.66667902,1,0,0,response5disk,,3,1.333393137,-4.666677535,1,0,0,rectangle,1.333393137,-4.666677535,1,0,0,1.333393137,-4.666677535,1,0,0,1,68,228,47,1,,,,,,,,
,,,,,,,,,,,,,FF,,,,,,,,1.2012,,,,,,,,,,,,,,,,,,,,,,60fe3d2570935a75dea9fb40,61036b54b33d786f994eba84,2021-07-29_22h01.14.308,Simcolourproject_2stim_asymm_v5,2020.2.10,Win32,60,61025ae37ef11b136ea224fe,,,,,,,,,3841,36.00002015,26.66665673,1,0,0,response1disk,,6,4.000019193,-2.000010788,1,0,0,rectangle,4.000019193,-2.000010788,1,0,0,4.000019193,-2.000010788,1,0,0,1,69,229,104,1,,,,,,,,
,,,,,,,,,,,,,FF,,,,,,,,1.0471,,,,,,,,,,,,,,,,,,,,,,60fe3d2570935a75dea9fb40,61036b54b33d786f994eba84,2021-07-29_22h01.14.308,Simcolourproject_2stim_asymm_v5,2020.2.10,Win32,60,61025ae37ef11b136ea224fe,,,,,,,,,2184,43.3333537,32.66665691,1,0,0,response1disk,,6,13.33339349,11.33332294,1,0,0,rectangle,13.33339349,11.33332294,1,0,0,13.33339349,11.33332294,1,0,0,1,70,230,65,1,,,,,,,,
,,,,,,,,,,,,,FF,,,,,,,,1.8177,,,,,,,,,,,,,,,,,,,,,,60fe3d2570935a75dea9fb40,61036b54b33d786f994eba84,2021-07-29_22h01.14.308,Simcolourproject_2stim_asymm_v5,2020.2.10,Win32,60,61025ae37ef11b136ea224fe,,,,,,,,,3178,47.33335382,40.66665715,1,0,0,response1disk,,6,1.9735E-05,-5.333344221,1,0,0,rectangle,1.9735E-05,-5.333344221,1,0,0,1.9735E-05,-5.333344221,1,0,0,1,71,231,88,1,,,,,,,,
,,,,,,,,,,,,,FF,,,,,,,,2.2849,,,,,,,,,,,,,,,,,,,,,,60fe3d2570935a75dea9fb40,61036b54b33d786f994eba84,2021-07-29_22h01.14.308,Simcolourproject_2stim_asymm_v5,2020.2.10,Win32,60,61025ae37ef11b136ea224fe,,,,,,,,,2172,-55.33331591,-28.66667825,1,0,0,response5disk,,2,1.9735E-05,5.333322763,1,0,0,rectangle,1.9735E-05,5.333322763,1,0,0,1.9735E-05,5.333322763,1,0,0,1,72,232,89,1,,,,,,,,
,,,,,,,,,,,,,FF,,,,,,,,2.3005,,,,,,,,,,,,,,,,,,,,,,60fe3d2570935a75dea9fb40,61036b54b33d786f994eba84,2021-07-29_22h01.14.308,Simcolourproject_2stim_asymm_v5,2020.2.10,Win32,60,61025ae37ef11b136ea224fe,,,,,,,,,2825,-28.66660776,-57.33334577,1,0,0,response5disk,,3,4.666685879,2.666656017,1,0,0,rectangle,4.666685879,2.666656017,1,0,0,4.666685879,2.666656017,1,0,0,1,73,233,150,1,,,,,,,,
,,,,,,,,,,,,,FF,,,,,,,,1.5508,,,,,,,,,,,,,,,,,,,,,,60fe3d2570935a75dea9fb40,61036b54b33d786f994eba84,2021-07-29_22h01.14.308,Simcolourproject_2stim_asymm_v5,2020.2.10,Win32,60,61025ae37ef11b136ea224fe,,,,,,,,,2655,46.66668713,74.66665816,1,0,0,response1disk,,7,3.333393196,-2.666677475,1,0,0,rectangle,3.333393196,-2.666677475,1,0,0,3.333393196,-2.666677475,1,0,0,1,74,234,140,1,,,,,,,,
,,,,,,,,,,,,,FF,,,,,,,,1.3849,,,,,,,,,,,,,,,,,,,,,,60fe3d2570935a75dea9fb40,61036b54b33d786f994eba84,2021-07-29_22h01.14.308,Simcolourproject_2stim_asymm_v5,2020.2.10,Win32,60,61025ae37ef11b136ea224fe,,,,,,,,,2577,60.66668755,33.99999028,1,0,0,response1disk,,6,11.33339343,7.333322823,1,0,0,rectangle,11.33339343,7.333322823,1,0,0,11.33339343,7.333322823,1,0,0,1,75,235,118,1,,,,,,,,
,,,,,,,,,,,,,FF,,,,,,,,1.1332,,,,,,,,,,,,,,,,,,,,,,60fe3d2570935a75dea9fb40,61036b54b33d786f994eba84,2021-07-29_22h01.14.308,Simcolourproject_2stim_asymm_v5,2020.2.10,Win32,60,61025ae37ef11b136ea224fe,,,,,,,,,2744,42.66668701,26.66665673,1,0,0,response1disk,,6,7.333393315,-1.333344102,1,0,0,rectangle,7.333393315,-1.333344102,1,0,0,7.333393315,-1.333344102,1,0,0,1,76,236,143,1,,,,,,,,
,,,,,,,,,,,,,FF,,,,,,,,1.734,,,,,,,,,,,,,,,,,,,,,,60fe3d2570935a75dea9fb40,61036b54b33d786f994eba84,2021-07-29_22h01.14.308,Simcolourproject_2stim_asymm_v5,2020.2.10,Win32,60,61025ae37ef11b136ea224fe,,,,,,,,,2703,49.33335388,-19.33334464,1,0,0,response3disk,,5,-6.666607102,3.333322704,1,0,0,rectangle,-6.666607102,3.333322704,1,0,0,-6.666607102,3.333322704,1,0,0,1,77,237,100,1,,,,,,,,
,,,,,,,,,,,,,FF,,,,,,,,1.4675,,,,,,,,,,,,,,,,,,,,,,60fe3d2570935a75dea9fb40,61036b54b33d786f994eba84,2021-07-29_22h01.14.308,Simcolourproject_2stim_asymm_v5,2020.2.10,Win32,60,61025ae37ef11b136ea224fe,,,,,,,,,2770,28.66668659,59.33330403,1,0,0,response1disk,,7,3.333393196,-1.333344102,1,0,0,rectangle,3.333393196,-1.333344102,1,0,0,3.333393196,-1.333344102,1,0,0,1,78,238,9,1,,,,,,,,
,,,,,,,,,,,,,FF,,,,,,,,2.8633,,,,,,,,,,,,,,,,,,,,,,60fe3d2570935a75dea9fb40,61036b54b33d786f994eba84,2021-07-29_22h01.14.308,Simcolourproject_2stim_asymm_v5,2020.2.10,Win32,60,61025ae37ef11b136ea224fe,,,,,,,,,3934,20.66668636,-39.33334523,1,0,0,response3disk,,4,-3.333314359,6.666656137,1,0,0,rectangle,-3.333314359,6.666656137,1,0,0,-3.333314359,6.666656137,1,0,0,1,79,239,57,1,,,,,,,,
,,,,,,,,,,,,,FF,,,,,,,,1.2687,,,,,,,,,,,,,,,,,,,,,,60fe3d2570935a75dea9fb40,61036b54b33d786f994eba84,2021-07-29_22h01.14.308,Simcolourproject_2stim_asymm_v5,2020.2.10,Win32,60,61025ae37ef11b136ea224fe,,,,,,,,,1750,-33.99998194,55.33330391,1,0,0,response7disk,,0,-9.333314538,5.99998945,1,0,0,rectangle,-9.333314538,5.99998945,1,0,0,-9.333314538,5.99998945,1,0,0,1,80,240,144,1,,,,,,,,
,,,,,,,,,,,,,FF,,,,,,,,1.2334,,,,,,,,,,,,,,,,,,,,,,60fe3d2570935a75dea9fb40,61036b54b33d786f994eba84,2021-07-29_22h01.14.308,Simcolourproject_2stim_asymm_v5,2020.2.10,Win32,60,61025ae37ef11b136ea224fe,,,,,,,,,1560,20.00001967,56.66665763,1,0,0,response1disk,,7,-2.666606983,3.333322704,1,0,0,rectangle,-2.666606983,3.333322704,1,0,0,-2.666606983,3.333322704,1,0,0,1,81,241,1,1,,,,,,,,
,,,,,,,,,,,,,FF,,,,,,,,1.1337,,,,,,,,,,,,,,,,,,,,,,60fe3d2570935a75dea9fb40,61036b54b33d786f994eba84,2021-07-29_22h01.14.308,Simcolourproject_2stim_asymm_v5,2020.2.10,Win32,60,61025ae37ef11b136ea224fe,,,,,,,,,3045,-37.99998206,75.3333045,1,0,0,response7disk,,0,-3.999981046,-1.07288E-05,1,0,0,rectangle,-3.999981046,-1.07288E-05,1,0,0,-3.999981046,-1.07288E-05,1,0,0,1,82,242,43,1,,,,,,,,
,,,,,,,,,,,,,FF,,,,,,,,1.6501,,,,,,,,,,,,,,,,,,,,,,60fe3d2570935a75dea9fb40,61036b54b33d786f994eba84,2021-07-29_22h01.14.308,Simcolourproject_2stim_asymm_v5,2020.2.10,Win32,60,61025ae37ef11b136ea224fe,,,,,,,,,3201,-53.33331585,-30.66667831,1,0,0,response5disk,,2,-8.666607161,-0.666677415,1,0,0,rectangle,-8.666607161,-0.666677415,1,0,0,-8.666607161,-0.666677415,1,0,0,1,83,243,13,1,,,,,,,,
