key_resp.keys,key_resp.rt,key_resp_14.keys,key_resp_14.rt,key_resp_15.keys,key_resp_15.rt,key_resp_17.keys,key_resp_17.rt,key_resp_9.keys,key_resp_9.rt,key_resp_10.keys,key_resp_10.rt,practice_comparison,Ecc,mouse_5.x,mouse_5.y,mouse_5.leftButton,mouse_5.midButton,mouse_5.rightButton,mouse_5.clicked_name,pracsimilarity,response_time,mouse_10.x,mouse_10.y,mouse_10.leftButton,mouse_10.midButton,mouse_10.rightButton,mouse_10.clicked_name,mouse_7.x,mouse_7.y,mouse_7.leftButton,mouse_7.midButton,mouse_7.rightButton,mouse_6.x,mouse_6.y,mouse_6.leftButton,mouse_6.midButton,mouse_6.rightButton,duringprac.thisRepN,duringprac.thisTrialN,duringprac.thisN,duringprac.thisIndex,duringprac.ran,participant,session,date,expName,psychopyVersion,OS,frameRate,study_id,mouse_7.clicked_name,catchpracsimilarity,catch_response_time,catchnumberprac,catchtrialorderprac,mouse_6.clicked_name,key_resp_22.keys,key_resp_22.rt,realcomparison,mouse.x,mouse.y,mouse.leftButton,mouse.midButton,mouse.rightButton,mouse.clicked_name,Colour2,similarity,mouse_2.x,mouse_2.y,mouse_2.leftButton,mouse_2.midButton,mouse_2.rightButton,mouse_2.clicked_name,mouse_3.x,mouse_3.y,mouse_3.leftButton,mouse_3.midButton,mouse_3.rightButton,mouse_11.x,mouse_11.y,mouse_11.leftButton,mouse_11.midButton,mouse_11.rightButton,trials_2.thisRepN,trials_2.thisTrialN,trials_2.thisN,trials_2.thisIndex,trials_2.ran,Colour1,mouse_3.clicked_name,catchornah,catchsimilarity,catchnumber,catchtrialorder,catchRT,mouse_11.clicked_name
space,0.636,space,2.9653,space,0.0843,space,0.7997,space,3.9856,space,1.7994,40,PF,56.56140137,62.76727295,1,0,0,response1disk_5,7,1.6669,5.840087891,-19.84796143,1,0,0,rectangle_8,5.840087891,-19.84796143,1,0,0,5.840087891,-19.84796143,1,0,0,0,0,0,1,1,60fed532bbb4ed34d546fbb8,61037770a2fda8110225306b,2021-07-29_23h20.24.677,Simcolourproject_2stim_asymm_v5,2020.2.10,MacIntel,60,61025ae37ef11b136ea224fe,,,,,,,,,,,,,,,,,,,,,,,,,,,,,,,,,,,,,,,,,,,,,,
,,,,,,,,,,,,157,FF,42.14093018,-72.22686768,1,0,0,response3disk_5,4,0.8983,7.735168457,-6.473205566,1,0,0,rectangle_8,34.57702637,82.18106079,1,0,0,17.98327637,4.366943359,1,0,0,0,1,1,0,1,60fed532bbb4ed34d546fbb8,61037770a2fda8110225306b,2021-07-29_23h20.24.677,Simcolourproject_2stim_asymm_v5,2020.2.10,MacIntel,60,61025ae37ef11b136ea224fe,response1disk_7,7,2.0338,7,"[2,5]",rectangle_4,,,,,,,,,,,,,,,,,,,,,,,,,,,,,,,,,,,,,,,,
,,,,,,,,,,,,46,PF,32.24084473,66.78469849,1,0,0,response1disk_5,7,0.6486,17.62695313,10.82159424,1,0,0,rectangle_8,17.62695313,10.82159424,1,0,0,17.62695313,10.82159424,1,0,0,0,2,2,4,1,60fed532bbb4ed34d546fbb8,61037770a2fda8110225306b,2021-07-29_23h20.24.677,Simcolourproject_2stim_asymm_v5,2020.2.10,MacIntel,60,61025ae37ef11b136ea224fe,,,,,,,,,,,,,,,,,,,,,,,,,,,,,,,,,,,,,,,,,,,,,,
,,,,,,,,,,,,106,PF,52.13470459,23.59002686,1,0,0,response1disk_5,6,0.8494,14.70666504,16.62005615,1,0,0,rectangle_8,14.70666504,16.62005615,1,0,0,14.70666504,16.62005615,1,0,0,0,3,3,2,1,60fed532bbb4ed34d546fbb8,61037770a2fda8110225306b,2021-07-29_23h20.24.677,Simcolourproject_2stim_asymm_v5,2020.2.10,MacIntel,60,61025ae37ef11b136ea224fe,,,,,,,,,,,,,,,,,,,,,,,,,,,,,,,,,,,,,,,,,,,,,,
,,,,,,,,,,,,144,FF,55.86657715,26.97717285,1,0,0,response1disk_5,6,1.116,19.65783691,10.64764404,1,0,0,rectangle_8,31.75250244,86.37561035,1,0,0,9.585449219,7.472167969,1,0,0,0,4,4,3,1,60fed532bbb4ed34d546fbb8,61037770a2fda8110225306b,2021-07-29_23h20.24.677,Simcolourproject_2stim_asymm_v5,2020.2.10,MacIntel,60,61025ae37ef11b136ea224fe,response1disk_7,7,2.0158,7,"[2,5]",rectangle_4,,,,,,,,,,,,,,,,,,,,,,,,,,,,,,,,,,,,,,,,
,,,,,,,,,,,,154,FF,67.49163818,-24.14831543,1,0,0,response3disk_5,5,4.216,17.29327393,6.570678711,1,0,0,rectangle_8,17.29327393,6.570678711,1,0,0,17.29327393,6.570678711,1,0,0,0,5,5,5,1,60fed532bbb4ed34d546fbb8,61037770a2fda8110225306b,2021-07-29_23h20.24.677,Simcolourproject_2stim_asymm_v5,2020.2.10,MacIntel,60,61025ae37ef11b136ea224fe,,,,,,,,,,,,,,,,,,,,,,,,,,,,,,,,,,,,,,,,,,,,,,
,,,,,,,,,,,,8,PF,47.17889404,79.90808105,1,0,0,response1disk_5,7,0.6514,3.154663086,-2.239624023,1,0,0,rectangle_8,3.154663086,-2.239624023,1,0,0,3.154663086,-2.239624023,1,0,0,0,6,6,6,1,60fed532bbb4ed34d546fbb8,61037770a2fda8110225306b,2021-07-29_23h20.24.677,Simcolourproject_2stim_asymm_v5,2020.2.10,MacIntel,60,61025ae37ef11b136ea224fe,,,,,,,,,,,,,,,,,,,,,,,,,,,,,,,,,,,,,,,,,,,,,,
,,,,,,,,,,,,,FF,,,,,,,,0.8513,,,,,,,,,,,,,,,,,,,,,,60fed532bbb4ed34d546fbb8,61037770a2fda8110225306b,2021-07-29_23h20.24.677,Simcolourproject_2stim_asymm_v5,2020.2.10,MacIntel,60,61025ae37ef11b136ea224fe,,,,,,,space,2.0443,1174,38.30828857,57.88360596,1,0,0,response1disk,,7,6.724975586,21.63330078,1,0,0,rectangle,6.724975586,21.63330078,1,0,0,6.724975586,21.63330078,1,0,0,0,0,0,131,1,,,,,,,,
,,,,,,,,,,,,,FF,,,,,,,,1.5337,,,,,,,,,,,,,,,,,,,,,,60fed532bbb4ed34d546fbb8,61037770a2fda8110225306b,2021-07-29_23h20.24.677,Simcolourproject_2stim_asymm_v5,2020.2.10,MacIntel,60,61025ae37ef11b136ea224fe,,,,,,,,,2823,43.59509277,-52.93902588,1,0,0,response3disk,,4,8.566711426,1.04675293,1,0,0,rectangle,8.566711426,1.04675293,1,0,0,8.566711426,1.04675293,1,0,0,0,1,1,156,1,,,,,,,,
,,,,,,,,,,,,,FF,,,,,,,,2.1171,,,,,,,,,,,,,,,,,,,,,,60fed532bbb4ed34d546fbb8,61037770a2fda8110225306b,2021-07-29_23h20.24.677,Simcolourproject_2stim_asymm_v5,2020.2.10,MacIntel,60,61025ae37ef11b136ea224fe,,,,,,,,,3556,30.21783447,-59.72265625,1,0,0,response3disk,,4,7.366638184,-6.217346191,1,0,0,rectangle,7.366638184,-6.217346191,1,0,0,7.366638184,-6.217346191,1,0,0,0,2,2,148,1,,,,,,,,
,,,,,,,,,,,,,FF,,,,,,,,0.867,,,,,,,,,,,,,,,,,,,,,,60fed532bbb4ed34d546fbb8,61037770a2fda8110225306b,2021-07-29_23h20.24.677,Simcolourproject_2stim_asymm_v5,2020.2.10,MacIntel,60,61025ae37ef11b136ea224fe,,,,,,,,,1939,49.28173828,32.20251465,1,0,0,response1disk,,6,6.828369141,5.641784668,1,0,0,rectangle,6.828369141,5.641784668,1,0,0,6.828369141,5.641784668,1,0,0,0,3,3,88,1,,,,,,,,
,,,,,,,,,,,,,FF,,,,,,,,0.883,,,,,,,,,,,,,,,,,,,,,,60fed532bbb4ed34d546fbb8,61037770a2fda8110225306b,2021-07-29_23h20.24.677,Simcolourproject_2stim_asymm_v5,2020.2.10,MacIntel,60,61025ae37ef11b136ea224fe,,,,,,,,,3953,43.8885498,34.44219971,1,0,0,response1disk,,6,5.481567383,6.305297852,1,0,0,rectangle,5.481567383,6.305297852,1,0,0,5.481567383,6.305297852,1,0,0,0,4,4,43,1,,,,,,,,
,,,,,,,,,,,,,FF,,,,,,,,0.7504,,,,,,,,,,,,,,,,,,,,,,60fed532bbb4ed34d546fbb8,61037770a2fda8110225306b,2021-07-29_23h20.24.677,Simcolourproject_2stim_asymm_v5,2020.2.10,MacIntel,60,61025ae37ef11b136ea224fe,,,,,,,,,2262,31.86950684,56.80786133,1,0,0,response1disk,,7,11.0435791,8.729614258,1,0,0,rectangle,11.0435791,8.729614258,1,0,0,11.0435791,8.729614258,1,0,0,0,5,5,21,1,,,,,,,,
,,,,,,,,,,,,,FF,,,,,,,,1.1657,,,,,,,,,,,,,,,,,,,,,,60fed532bbb4ed34d546fbb8,61037770a2fda8110225306b,2021-07-29_23h20.24.677,Simcolourproject_2stim_asymm_v5,2020.2.10,MacIntel,60,61025ae37ef11b136ea224fe,,,,,,,,,509,27.67089844,65.70407104,1,0,0,response1disk,,7,-8.028381348,7.25012207,1,0,0,rectangle,-8.028381348,7.25012207,1,0,0,-8.028381348,7.25012207,1,0,0,0,6,6,4,1,,,,,,,,
,,,,,,,,,,,,,FF,,,,,,,,0.6997,,,,,,,,,,,,,,,,,,,,,,60fed532bbb4ed34d546fbb8,61037770a2fda8110225306b,2021-07-29_23h20.24.677,Simcolourproject_2stim_asymm_v5,2020.2.10,MacIntel,60,61025ae37ef11b136ea224fe,,,,,,,,,1534,48.75067139,31.51416016,1,0,0,response1disk,,6,6.222045898,4.66595459,1,0,0,rectangle,6.222045898,4.66595459,1,0,0,6.222045898,4.66595459,1,0,0,0,7,7,101,1,,,,,,,,
,,,,,,,,,,,,,FF,,,,,,,,0.7838,,,,,,,,,,,,,,,,,,,,,,60fed532bbb4ed34d546fbb8,61037770a2fda8110225306b,2021-07-29_23h20.24.677,Simcolourproject_2stim_asymm_v5,2020.2.10,MacIntel,60,61025ae37ef11b136ea224fe,,,,,,,,,299,37.90167236,56.99490356,1,0,0,response1disk,,7,12.95300293,6.557250977,1,0,0,rectangle,12.95300293,6.557250977,1,0,0,12.95300293,6.557250977,1,0,0,0,8,8,159,1,,,,,,,,
,,,,,,,,,,,,,FF,,,,,,,,0.7667,,,,,,,,,,,,,,,,,,,,,,60fed532bbb4ed34d546fbb8,61037770a2fda8110225306b,2021-07-29_23h20.24.677,Simcolourproject_2stim_asymm_v5,2020.2.10,MacIntel,60,61025ae37ef11b136ea224fe,,,,,,,,,1936,39.54577637,59.85162354,1,0,0,response1disk,,7,10.20812988,3.858703613,1,0,0,rectangle,10.20812988,3.858703613,1,0,0,10.20812988,3.858703613,1,0,0,0,9,9,55,1,,,,,,,,
,,,,,,,,,,,,,FF,,,,,,,,0.7,,,,,,,,,,,,,,,,,,,,,,60fed532bbb4ed34d546fbb8,61037770a2fda8110225306b,2021-07-29_23h20.24.677,Simcolourproject_2stim_asymm_v5,2020.2.10,MacIntel,60,61025ae37ef11b136ea224fe,,,,,,,,,2629,44.22186279,28.88830566,1,0,0,response1disk,,6,-5.628295898,-0.700073242,1,0,0,rectangle,-5.628295898,-0.700073242,1,0,0,-5.628295898,-0.700073242,1,0,0,0,10,10,152,1,,,,,,,,
,,,,,,,,,,,,,FF,,,,,,,,2.6823,,,,,,,,,,,,,,,,,,,,,,60fed532bbb4ed34d546fbb8,61037770a2fda8110225306b,2021-07-29_23h20.24.677,Simcolourproject_2stim_asymm_v5,2020.2.10,MacIntel,60,61025ae37ef11b136ea224fe,,,,,,,,,1133,49.49865723,-43.21557617,1,0,0,response3disk,,5,19.64379883,-3.660583496,1,0,0,rectangle,19.64379883,-3.660583496,1,0,0,19.64379883,-3.660583496,1,0,0,0,11,11,115,1,,,,,,,,
,,,,,,,,,,,,,FF,,,,,,,,0.9165,,,,,,,,,,,,,,,,,,,,,,60fed532bbb4ed34d546fbb8,61037770a2fda8110225306b,2021-07-29_23h20.24.677,Simcolourproject_2stim_asymm_v5,2020.2.10,MacIntel,60,61025ae37ef11b136ea224fe,,,,,,,,,1538,71.20947266,-24.59606934,1,0,0,response3disk,,5,9.423950195,-13.72052002,1,0,0,rectangle,9.423950195,-13.72052002,1,0,0,9.423950195,-13.72052002,1,0,0,0,12,12,8,1,,,,,,,,
,,,,,,,,,,,,,FF,,,,,,,,4.8663,,,,,,,,,,,,,,,,,,,,,,60fed532bbb4ed34d546fbb8,61037770a2fda8110225306b,2021-07-29_23h20.24.677,Simcolourproject_2stim_asymm_v5,2020.2.10,MacIntel,60,61025ae37ef11b136ea224fe,,,,,,,,,15,43.0994873,32.44744873,1,0,0,response1disk,,6,3.301574707,4.119995117,1,0,0,rectangle,3.301574707,4.119995117,1,0,0,3.301574707,4.119995117,1,0,0,0,13,13,109,1,,,,,,,,
,,,,,,,,,,,,,FF,,,,,,,,1.0329,,,,,,,,,,,,,,,,,,,,,,60fed532bbb4ed34d546fbb8,61037770a2fda8110225306b,2021-07-29_23h20.24.677,Simcolourproject_2stim_asymm_v5,2020.2.10,MacIntel,60,61025ae37ef11b136ea224fe,,,,,,,,,3144,30.40155029,58.01049805,1,0,0,response1disk,,7,17.23535156,14.37103271,1,0,0,rectangle,17.23535156,14.37103271,1,0,0,17.23535156,14.37103271,1,0,0,0,14,14,70,1,,,,,,,,
,,,,,,,,,,,,,FF,,,,,,,,1.0505,,,,,,,,,,,,,,,,,,,,,,60fed532bbb4ed34d546fbb8,61037770a2fda8110225306b,2021-07-29_23h20.24.677,Simcolourproject_2stim_asymm_v5,2020.2.10,MacIntel,60,61025ae37ef11b136ea224fe,,,,,,,,,620,-44.00512695,30.73754883,1,0,0,response7disk,,1,-21.00952148,4.798278809,1,0,0,rectangle,-21.00952148,4.798278809,1,0,0,-21.00952148,4.798278809,1,0,0,0,15,15,2,1,,,,,,,,
,,,,,,,,,,,,,FF,,,,,,,,1.1004,,,,,,,,,,,,,,,,,,,,,,60fed532bbb4ed34d546fbb8,61037770a2fda8110225306b,2021-07-29_23h20.24.677,Simcolourproject_2stim_asymm_v5,2020.2.10,MacIntel,60,61025ae37ef11b136ea224fe,,,,,,,,,177,44.40441895,72.22940063,1,0,0,response1disk,,7,3.719421387,-9.694824219,1,0,0,rectangle,3.719421387,-9.694824219,1,0,0,3.719421387,-9.694824219,1,0,0,0,16,16,22,1,,,,,,,,
,,,,,,,,,,,,,FF,,,,,,,,5.0504,,,,,,,,,,,,,,,,,,,,,,60fed532bbb4ed34d546fbb8,61037770a2fda8110225306b,2021-07-29_23h20.24.677,Simcolourproject_2stim_asymm_v5,2020.2.10,MacIntel,60,61025ae37ef11b136ea224fe,,,,,,,,,3059,64.95233154,46.66369629,1,0,0,response1disk,,6,5.28503418,6.659545898,1,0,0,rectangle,5.28503418,6.659545898,1,0,0,5.28503418,6.659545898,1,0,0,0,17,17,79,1,,,,,,,,
,,,,,,,,,,,,,FF,,,,,,,,0.6333,,,,,,,,,,,,,,,,,,,,,,60fed532bbb4ed34d546fbb8,61037770a2fda8110225306b,2021-07-29_23h20.24.677,Simcolourproject_2stim_asymm_v5,2020.2.10,MacIntel,60,61025ae37ef11b136ea224fe,,,,,,,,,4317,32.31817627,52.2013855,1,0,0,response1disk,,7,4.730529785,6.551391602,1,0,0,rectangle,4.730529785,6.551391602,1,0,0,4.730529785,6.551391602,1,0,0,0,18,18,56,1,,,,,,,,
,,,,,,,,,,,,,FF,,,,,,,,1.6172,,,,,,,,,,,,,,,,,,,,,,60fed532bbb4ed34d546fbb8,61037770a2fda8110225306b,2021-07-29_23h20.24.677,Simcolourproject_2stim_asymm_v5,2020.2.10,MacIntel,60,61025ae37ef11b136ea224fe,,,,,,,,,2348,40.95623779,69.70349121,1,0,0,response1disk,,7,-1.01776123,9.126831055,1,0,0,rectangle,-1.01776123,9.126831055,1,0,0,-1.01776123,9.126831055,1,0,0,0,19,19,134,1,,,,,,,,
,,,,,,,,,,,,,FF,,,,,,,,2.8998,,,,,,,,,,,,,,,,,,,,,,60fed532bbb4ed34d546fbb8,61037770a2fda8110225306b,2021-07-29_23h20.24.677,Simcolourproject_2stim_asymm_v5,2020.2.10,MacIntel,60,61025ae37ef11b136ea224fe,,,,,,,,,3663,53.52429199,-43.5390625,1,0,0,response3disk,,5,11.05700684,-7.656921387,1,0,0,rectangle,11.05700684,-7.656921387,1,0,0,11.05700684,-7.656921387,1,0,0,0,20,20,145,1,,,,,,,,
,,,,,,,,,,,,,FF,,,,,,,,0.9499,,,,,,,,,,,,,,,,,,,,,,60fed532bbb4ed34d546fbb8,61037770a2fda8110225306b,2021-07-29_23h20.24.677,Simcolourproject_2stim_asymm_v5,2020.2.10,MacIntel,60,61025ae37ef11b136ea224fe,,,,,,,,,1801,45.42285156,34.34863281,1,0,0,response1disk,,6,27.0802002,-3.672851563,1,0,0,rectangle,27.0802002,-3.672851563,1,0,0,27.0802002,-3.672851563,1,0,0,0,21,21,132,1,,,,,,,,
,,,,,,,,,,,,,FF,,,,,,,,1.0341,,,,,,,,,,,,,,,,,,,,,,60fed532bbb4ed34d546fbb8,61037770a2fda8110225306b,2021-07-29_23h20.24.677,Simcolourproject_2stim_asymm_v5,2020.2.10,MacIntel,60,61025ae37ef11b136ea224fe,,,,,,,,,1369,37.46417236,-54.99865723,1,0,0,response3disk,,4,17.49182129,-5.410644531,1,0,0,rectangle,17.49182129,-5.410644531,1,0,0,17.49182129,-5.410644531,1,0,0,0,22,22,90,1,,,,,,,,
,,,,,,,,,,,,,FF,,,,,,,,0.4988,,,,,,,,,,,,,,,,,,,,,,60fed532bbb4ed34d546fbb8,61037770a2fda8110225306b,2021-07-29_23h20.24.677,Simcolourproject_2stim_asymm_v5,2020.2.10,MacIntel,60,61025ae37ef11b136ea224fe,,,,,,,,,1648,23.3380127,54.16744995,1,0,0,response1disk,,7,15.95452881,-0.47442627,1,0,0,rectangle,15.95452881,-0.47442627,1,0,0,15.95452881,-0.47442627,1,0,0,0,23,23,78,1,,,,,,,,
,,,,,,,,,,,,,FF,,,,,,,,1.7991,,,,,,,,,,,,,,,,,,,,,,60fed532bbb4ed34d546fbb8,61037770a2fda8110225306b,2021-07-29_23h20.24.677,Simcolourproject_2stim_asymm_v5,2020.2.10,MacIntel,60,61025ae37ef11b136ea224fe,,,,,,,,,1455,57.83215332,48.56604004,1,0,0,response1disk,,6,10.44091797,5.007324219,1,0,0,rectangle,10.44091797,5.007324219,1,0,0,10.44091797,5.007324219,1,0,0,0,24,24,76,1,,,,,,,,
,,,,,,,,,,,,,FF,,,,,,,,1.2501,,,,,,,,,,,,,,,,,,,,,,60fed532bbb4ed34d546fbb8,61037770a2fda8110225306b,2021-07-29_23h20.24.677,Simcolourproject_2stim_asymm_v5,2020.2.10,MacIntel,60,61025ae37ef11b136ea224fe,,,,,,,,,1375,70.63000488,-32.95776367,1,0,0,response3disk,,5,32.97723389,-5.958496094,1,0,0,rectangle,32.97723389,-5.958496094,1,0,0,32.97723389,-5.958496094,1,0,0,0,25,25,9,1,,,,,,,,
,,,,,,,,,,,,,FF,,,,,,,,0.8333,,,,,,,,,,,,,,,,,,,,,,60fed532bbb4ed34d546fbb8,61037770a2fda8110225306b,2021-07-29_23h20.24.677,Simcolourproject_2stim_asymm_v5,2020.2.10,MacIntel,60,61025ae37ef11b136ea224fe,,,,,,,,,606,65.6605835,-39.41906738,1,0,0,response3disk,,5,30.41131592,-1.488342285,1,0,0,rectangle,-36.98223877,-87.68310547,1,0,0,12.0682373,-4.273071289,1,0,0,0,26,26,54,1,,response5disk_3,TRUE,3,3,"[283,322,228,134,186,158,274,253,273,266,268,170,183,27,121,142,225,124,35,271]",1.5001,rectangle
,,,,,,,,,,,,,FF,,,,,,,,0.967,,,,,,,,,,,,,,,,,,,,,,60fed532bbb4ed34d546fbb8,61037770a2fda8110225306b,2021-07-29_23h20.24.677,Simcolourproject_2stim_asymm_v5,2020.2.10,MacIntel,60,61025ae37ef11b136ea224fe,,,,,,,,,2055,34.69445801,97.35125732,1,0,0,response1disk,,7,5.088989258,11.71374512,1,0,0,rectangle,5.088989258,11.71374512,1,0,0,5.088989258,11.71374512,1,0,0,0,27,27,120,1,,,,,,,,
,,,,,,,,,,,,,FF,,,,,,,,0.7838,,,,,,,,,,,,,,,,,,,,,,60fed532bbb4ed34d546fbb8,61037770a2fda8110225306b,2021-07-29_23h20.24.677,Simcolourproject_2stim_asymm_v5,2020.2.10,MacIntel,60,61025ae37ef11b136ea224fe,,,,,,,,,3216,35.73352051,57.02850342,1,0,0,response1disk,,7,3.340698242,11.45550537,1,0,0,rectangle,3.340698242,11.45550537,1,0,0,3.340698242,11.45550537,1,0,0,0,28,28,17,1,,,,,,,,
,,,,,,,,,,,,,FF,,,,,,,,0.5507,,,,,,,,,,,,,,,,,,,,,,60fed532bbb4ed34d546fbb8,61037770a2fda8110225306b,2021-07-29_23h20.24.677,Simcolourproject_2stim_asymm_v5,2020.2.10,MacIntel,60,61025ae37ef11b136ea224fe,,,,,,,,,2807,41.70111084,53.71228027,1,0,0,response1disk,,7,9.807556152,8.121337891,1,0,0,rectangle,9.807556152,8.121337891,1,0,0,9.807556152,8.121337891,1,0,0,0,29,29,39,1,,,,,,,,
,,,,,,,,,,,,,FF,,,,,,,,1.0667,,,,,,,,,,,,,,,,,,,,,,60fed532bbb4ed34d546fbb8,61037770a2fda8110225306b,2021-07-29_23h20.24.677,Simcolourproject_2stim_asymm_v5,2020.2.10,MacIntel,60,61025ae37ef11b136ea224fe,,,,,,,,,3510,-24.40966797,-48.34216309,1,0,0,response5disk,,3,-8.47052002,-0.665283203,1,0,0,rectangle,-8.47052002,-0.665283203,1,0,0,-8.47052002,-0.665283203,1,0,0,0,30,30,98,1,,,,,,,,
,,,,,,,,,,,,,FF,,,,,,,,0.6499,,,,,,,,,,,,,,,,,,,,,,60fed532bbb4ed34d546fbb8,61037770a2fda8110225306b,2021-07-29_23h20.24.677,Simcolourproject_2stim_asymm_v5,2020.2.10,MacIntel,60,61025ae37ef11b136ea224fe,,,,,,,,,979,47.31359863,72.34594727,1,0,0,response1disk,,7,-0.069519043,-9.210632324,1,0,0,rectangle,-0.069519043,-9.210632324,1,0,0,-0.069519043,-9.210632324,1,0,0,0,31,31,36,1,,,,,,,,
,,,,,,,,,,,,,FF,,,,,,,,0.5831,,,,,,,,,,,,,,,,,,,,,,60fed532bbb4ed34d546fbb8,61037770a2fda8110225306b,2021-07-29_23h20.24.677,Simcolourproject_2stim_asymm_v5,2020.2.10,MacIntel,60,61025ae37ef11b136ea224fe,,,,,,,,,1167,27.31652832,63.16418457,1,0,0,response1disk,,7,15.3927002,10.49450684,1,0,0,rectangle,15.3927002,10.49450684,1,0,0,15.3927002,10.49450684,1,0,0,0,32,32,141,1,,,,,,,,
,,,,,,,,,,,,,FF,,,,,,,,0.6003,,,,,,,,,,,,,,,,,,,,,,60fed532bbb4ed34d546fbb8,61037770a2fda8110225306b,2021-07-29_23h20.24.677,Simcolourproject_2stim_asymm_v5,2020.2.10,MacIntel,60,61025ae37ef11b136ea224fe,,,,,,,,,1080,43.08215332,67.55273438,1,0,0,response1disk,,7,13.23699951,10.95355225,1,0,0,rectangle,13.23699951,10.95355225,1,0,0,13.23699951,10.95355225,1,0,0,0,33,33,16,1,,,,,,,,
,,,,,,,,,,,,,FF,,,,,,,,0.616,,,,,,,,,,,,,,,,,,,,,,60fed532bbb4ed34d546fbb8,61037770a2fda8110225306b,2021-07-29_23h20.24.677,Simcolourproject_2stim_asymm_v5,2020.2.10,MacIntel,60,61025ae37ef11b136ea224fe,,,,,,,,,976,48.27185059,28.91229248,1,0,0,response1disk,,6,2.719482422,3.334838867,1,0,0,rectangle,23.87268066,-88.37609863,1,0,0,4.783874512,-3.890441895,1,0,0,0,34,34,57,1,,response3disk_3,TRUE,4,4,"[283,322,228,134,186,158,274,253,273,266,268,170,183,27,121,142,225,124,35,271]",1.9337,rectangle
,,,,,,,,,,,,,FF,,,,,,,,1.4511,,,,,,,,,,,,,,,,,,,,,,60fed532bbb4ed34d546fbb8,61037770a2fda8110225306b,2021-07-29_23h20.24.677,Simcolourproject_2stim_asymm_v5,2020.2.10,MacIntel,60,61025ae37ef11b136ea224fe,,,,,,,,,3328,52.90258789,22.12506104,1,0,0,response1disk,,6,8.066894531,0.833740234,1,0,0,rectangle,8.066894531,0.833740234,1,0,0,8.066894531,0.833740234,1,0,0,0,35,35,135,1,,,,,,,,
,,,,,,,,,,,,,FF,,,,,,,,0.7158,,,,,,,,,,,,,,,,,,,,,,60fed532bbb4ed34d546fbb8,61037770a2fda8110225306b,2021-07-29_23h20.24.677,Simcolourproject_2stim_asymm_v5,2020.2.10,MacIntel,60,61025ae37ef11b136ea224fe,,,,,,,,,870,35.68841553,17.87280273,1,0,0,response1disk,,6,10.07104492,-1.51171875,1,0,0,rectangle,10.07104492,-1.51171875,1,0,0,10.07104492,-1.51171875,1,0,0,0,36,36,48,1,,,,,,,,
,,,,,,,,,,,,,FF,,,,,,,,1.3157,,,,,,,,,,,,,,,,,,,,,,60fed532bbb4ed34d546fbb8,61037770a2fda8110225306b,2021-07-29_23h20.24.677,Simcolourproject_2stim_asymm_v5,2020.2.10,MacIntel,60,61025ae37ef11b136ea224fe,,,,,,,,,381,37.82556152,47.31286621,1,0,0,response1disk,,7,22.16802979,-6.272338867,1,0,0,rectangle,22.16802979,-6.272338867,1,0,0,22.16802979,-6.272338867,1,0,0,0,37,37,5,1,,,,,,,,
,,,,,,,,,,,,,FF,,,,,,,,0.4996,,,,,,,,,,,,,,,,,,,,,,60fed532bbb4ed34d546fbb8,61037770a2fda8110225306b,2021-07-29_23h20.24.677,Simcolourproject_2stim_asymm_v5,2020.2.10,MacIntel,60,61025ae37ef11b136ea224fe,,,,,,,,,4074,41.53491211,62.85675049,1,0,0,response1disk,,7,20.91943359,9.248168945,1,0,0,rectangle,20.91943359,9.248168945,1,0,0,20.91943359,9.248168945,1,0,0,0,38,38,58,1,,,,,,,,
,,,,,,,,,,,,,FF,,,,,,,,1.1165,,,,,,,,,,,,,,,,,,,,,,60fed532bbb4ed34d546fbb8,61037770a2fda8110225306b,2021-07-29_23h20.24.677,Simcolourproject_2stim_asymm_v5,2020.2.10,MacIntel,60,61025ae37ef11b136ea224fe,,,,,,,,,829,62.41558838,31.46728516,1,0,0,response1disk,,6,20.35083008,-3.68951416,1,0,0,rectangle,20.35083008,-3.68951416,1,0,0,20.35083008,-3.68951416,1,0,0,0,39,39,124,1,,,,,,,,
,,,,,,,,,,,,,FF,,,,,,,,0.5675,,,,,,,,,,,,,,,,,,,,,,60fed532bbb4ed34d546fbb8,61037770a2fda8110225306b,2021-07-29_23h20.24.677,Simcolourproject_2stim_asymm_v5,2020.2.10,MacIntel,60,61025ae37ef11b136ea224fe,,,,,,,,,1325,52.67779541,72.91711426,1,0,0,response1disk,,7,16.51727295,6.556335449,1,0,0,rectangle,16.51727295,6.556335449,1,0,0,16.51727295,6.556335449,1,0,0,0,40,40,30,1,,,,,,,,
,,,,,,,,,,,,,FF,,,,,,,,0.582,,,,,,,,,,,,,,,,,,,,,,60fed532bbb4ed34d546fbb8,61037770a2fda8110225306b,2021-07-29_23h20.24.677,Simcolourproject_2stim_asymm_v5,2020.2.10,MacIntel,60,61025ae37ef11b136ea224fe,,,,,,,,,1569,43.90374756,61.18707275,1,0,0,response1disk,,7,0.355773926,9.377929688,1,0,0,rectangle,0.355773926,9.377929688,1,0,0,0.355773926,9.377929688,1,0,0,0,41,41,154,1,,,,,,,,
,,,,,,,,,,,,,FF,,,,,,,,0.5653,,,,,,,,,,,,,,,,,,,,,,60fed532bbb4ed34d546fbb8,61037770a2fda8110225306b,2021-07-29_23h20.24.677,Simcolourproject_2stim_asymm_v5,2020.2.10,MacIntel,60,61025ae37ef11b136ea224fe,,,,,,,,,1065,50.72943115,31.04718018,1,0,0,response1disk,,6,11.2376709,8.451538086,1,0,0,rectangle,11.2376709,8.451538086,1,0,0,11.2376709,8.451538086,1,0,0,0,42,42,46,1,,,,,,,,
,,,,,,,,,,,,,FF,,,,,,,,0.7494,,,,,,,,,,,,,,,,,,,,,,60fed532bbb4ed34d546fbb8,61037770a2fda8110225306b,2021-07-29_23h20.24.677,Simcolourproject_2stim_asymm_v5,2020.2.10,MacIntel,60,61025ae37ef11b136ea224fe,,,,,,,,,749,45.51373291,34.87750244,1,0,0,response1disk,,6,9.660888672,2.824890137,1,0,0,rectangle,9.660888672,2.824890137,1,0,0,9.660888672,2.824890137,1,0,0,0,43,43,53,1,,,,,,,,
,,,,,,,,,,,,,FF,,,,,,,,2.0827,,,,,,,,,,,,,,,,,,,,,,60fed532bbb4ed34d546fbb8,61037770a2fda8110225306b,2021-07-29_23h20.24.677,Simcolourproject_2stim_asymm_v5,2020.2.10,MacIntel,60,61025ae37ef11b136ea224fe,,,,,,,,,417,27.41619873,55.94915771,1,0,0,response1disk,,7,7.879516602,9.256713867,1,0,0,rectangle,7.879516602,9.256713867,1,0,0,7.879516602,9.256713867,1,0,0,0,44,44,37,1,,,,,,,,
,,,,,,,,,,,,,FF,,,,,,,,0.8337,,,,,,,,,,,,,,,,,,,,,,60fed532bbb4ed34d546fbb8,61037770a2fda8110225306b,2021-07-29_23h20.24.677,Simcolourproject_2stim_asymm_v5,2020.2.10,MacIntel,60,61025ae37ef11b136ea224fe,,,,,,,,,3951,53.91003418,-39.51550293,1,0,0,response3disk,,5,-2.021850586,0.589233398,1,0,0,rectangle,-2.021850586,0.589233398,1,0,0,-2.021850586,0.589233398,1,0,0,0,45,45,118,1,,,,,,,,
,,,,,,,,,,,,,FF,,,,,,,,0.5834,,,,,,,,,,,,,,,,,,,,,,60fed532bbb4ed34d546fbb8,61037770a2fda8110225306b,2021-07-29_23h20.24.677,Simcolourproject_2stim_asymm_v5,2020.2.10,MacIntel,60,61025ae37ef11b136ea224fe,,,,,,,,,3530,51.04931641,59.97546387,1,0,0,response1disk,,7,8.491210938,4.322143555,1,0,0,rectangle,8.491210938,4.322143555,1,0,0,8.491210938,4.322143555,1,0,0,0,46,46,1,1,,,,,,,,
,,,,,,,,,,,,,FF,,,,,,,,0.9999,,,,,,,,,,,,,,,,,,,,,,60fed532bbb4ed34d546fbb8,61037770a2fda8110225306b,2021-07-29_23h20.24.677,Simcolourproject_2stim_asymm_v5,2020.2.10,MacIntel,60,61025ae37ef11b136ea224fe,,,,,,,,,4275,33.07061768,58.07666016,1,0,0,response1disk,,7,3.766845703,4.626831055,1,0,0,rectangle,3.766845703,4.626831055,1,0,0,3.766845703,4.626831055,1,0,0,0,47,47,59,1,,,,,,,,
,,,,,,,,,,,,,FF,,,,,,,,0.7987,,,,,,,,,,,,,,,,,,,,,,60fed532bbb4ed34d546fbb8,61037770a2fda8110225306b,2021-07-29_23h20.24.677,Simcolourproject_2stim_asymm_v5,2020.2.10,MacIntel,60,61025ae37ef11b136ea224fe,,,,,,,,,370,33.2532959,55.95788574,1,0,0,response1disk,,7,10.65148926,11.59301758,1,0,0,rectangle,10.65148926,11.59301758,1,0,0,10.65148926,11.59301758,1,0,0,0,48,48,125,1,,,,,,,,
,,,,,,,,,,,,,FF,,,,,,,,0.4999,,,,,,,,,,,,,,,,,,,,,,60fed532bbb4ed34d546fbb8,61037770a2fda8110225306b,2021-07-29_23h20.24.677,Simcolourproject_2stim_asymm_v5,2020.2.10,MacIntel,60,61025ae37ef11b136ea224fe,,,,,,,,,2145,24.29248047,46.91320801,1,0,0,response1disk,,7,1.403137207,6.662109375,1,0,0,rectangle,1.403137207,6.662109375,1,0,0,1.403137207,6.662109375,1,0,0,0,49,49,127,1,,,,,,,,
,,,,,,,,,,,,,FF,,,,,,,,0.6006,,,,,,,,,,,,,,,,,,,,,,60fed532bbb4ed34d546fbb8,61037770a2fda8110225306b,2021-07-29_23h20.24.677,Simcolourproject_2stim_asymm_v5,2020.2.10,MacIntel,60,61025ae37ef11b136ea224fe,,,,,,,,,3962,19.74304199,44.61859131,1,0,0,response1disk,,7,-2.761779785,9.728149414,1,0,0,rectangle,-2.761779785,9.728149414,1,0,0,-2.761779785,9.728149414,1,0,0,0,50,50,11,1,,,,,,,,
,,,,,,,,,,,,,FF,,,,,,,,0.6501,,,,,,,,,,,,,,,,,,,,,,60fed532bbb4ed34d546fbb8,61037770a2fda8110225306b,2021-07-29_23h20.24.677,Simcolourproject_2stim_asymm_v5,2020.2.10,MacIntel,60,61025ae37ef11b136ea224fe,,,,,,,,,4129,36.20703125,28.01922607,1,0,0,response1disk,,6,-7.90814209,-12.43145752,1,0,0,rectangle,-7.90814209,-12.43145752,1,0,0,-7.90814209,-12.43145752,1,0,0,0,51,51,45,1,,,,,,,,
,,,,,,,,,,,,,FF,,,,,,,,0.6666,,,,,,,,,,,,,,,,,,,,,,60fed532bbb4ed34d546fbb8,61037770a2fda8110225306b,2021-07-29_23h20.24.677,Simcolourproject_2stim_asymm_v5,2020.2.10,MacIntel,60,61025ae37ef11b136ea224fe,,,,,,,,,483,54.66998291,34.0435791,1,0,0,response1disk,,6,-6.513977051,-2.147521973,1,0,0,rectangle,-6.513977051,-2.147521973,1,0,0,-6.513977051,-2.147521973,1,0,0,0,52,52,84,1,,,,,,,,
,,,,,,,,,,,,,FF,,,,,,,,1.3498,,,,,,,,,,,,,,,,,,,,,,60fed532bbb4ed34d546fbb8,61037770a2fda8110225306b,2021-07-29_23h20.24.677,Simcolourproject_2stim_asymm_v5,2020.2.10,MacIntel,60,61025ae37ef11b136ea224fe,,,,,,,,,2218,32.10418701,-57.67248535,1,0,0,response3disk,,4,13.24188232,-5.315124512,1,0,0,rectangle,13.24188232,-5.315124512,1,0,0,13.24188232,-5.315124512,1,0,0,0,53,53,82,1,,,,,,,,
,,,,,,,,,,,,,FF,,,,,,,,0.8827,,,,,,,,,,,,,,,,,,,,,,60fed532bbb4ed34d546fbb8,61037770a2fda8110225306b,2021-07-29_23h20.24.677,Simcolourproject_2stim_asymm_v5,2020.2.10,MacIntel,60,61025ae37ef11b136ea224fe,,,,,,,,,2064,35.94421387,52.48248291,1,0,0,response1disk,,7,9.688720703,7.454101563,1,0,0,rectangle,9.688720703,7.454101563,1,0,0,9.688720703,7.454101563,1,0,0,0,54,54,72,1,,,,,,,,
,,,,,,,,,,,,,FF,,,,,,,,0.3997,,,,,,,,,,,,,,,,,,,,,,60fed532bbb4ed34d546fbb8,61037770a2fda8110225306b,2021-07-29_23h20.24.677,Simcolourproject_2stim_asymm_v5,2020.2.10,MacIntel,60,61025ae37ef11b136ea224fe,,,,,,,,,2979,34.70025635,55.88223267,1,0,0,response1disk,,7,14.94042969,8.051757813,1,0,0,rectangle,14.94042969,8.051757813,1,0,0,14.94042969,8.051757813,1,0,0,0,55,55,128,1,,,,,,,,
,,,,,,,,,,,,,FF,,,,,,,,1.4656,,,,,,,,,,,,,,,,,,,,,,60fed532bbb4ed34d546fbb8,61037770a2fda8110225306b,2021-07-29_23h20.24.677,Simcolourproject_2stim_asymm_v5,2020.2.10,MacIntel,60,61025ae37ef11b136ea224fe,,,,,,,,,1848,38.84033203,47.72515869,1,0,0,response1disk,,7,16.26245117,17.81079102,1,0,0,rectangle,16.26245117,17.81079102,1,0,0,16.26245117,17.81079102,1,0,0,0,56,56,61,1,,,,,,,,
,,,,,,,,,,,,,FF,,,,,,,,0.5502,,,,,,,,,,,,,,,,,,,,,,60fed532bbb4ed34d546fbb8,61037770a2fda8110225306b,2021-07-29_23h20.24.677,Simcolourproject_2stim_asymm_v5,2020.2.10,MacIntel,60,61025ae37ef11b136ea224fe,,,,,,,,,2578,23.32305908,53.32727051,1,0,0,response1disk,,7,-13.02636719,2.382629395,1,0,0,rectangle,-13.02636719,2.382629395,1,0,0,-13.02636719,2.382629395,1,0,0,0,57,57,40,1,,,,,,,,
,,,,,,,,,,,,,FF,,,,,,,,0.6338,,,,,,,,,,,,,,,,,,,,,,60fed532bbb4ed34d546fbb8,61037770a2fda8110225306b,2021-07-29_23h20.24.677,Simcolourproject_2stim_asymm_v5,2020.2.10,MacIntel,60,61025ae37ef11b136ea224fe,,,,,,,,,1560,37.20776367,58.86395264,1,0,0,response1disk,,7,21.60205078,11.14154053,1,0,0,rectangle,21.60205078,11.14154053,1,0,0,21.60205078,11.14154053,1,0,0,0,58,58,26,1,,,,,,,,
,,,,,,,,,,,,,FF,,,,,,,,0.9172,,,,,,,,,,,,,,,,,,,,,,60fed532bbb4ed34d546fbb8,61037770a2fda8110225306b,2021-07-29_23h20.24.677,Simcolourproject_2stim_asymm_v5,2020.2.10,MacIntel,60,61025ae37ef11b136ea224fe,,,,,,,,,1511,48.41162109,25.44866943,1,0,0,response1disk,,6,-4.766601563,7.164611816,1,0,0,rectangle,-4.766601563,7.164611816,1,0,0,-4.766601563,7.164611816,1,0,0,0,59,59,144,1,,,,,,,,
,,,,,,,,,,,,,FF,,,,,,,,0.5513,,,,,,,,,,,,,,,,,,,,,,60fed532bbb4ed34d546fbb8,61037770a2fda8110225306b,2021-07-29_23h20.24.677,Simcolourproject_2stim_asymm_v5,2020.2.10,MacIntel,60,61025ae37ef11b136ea224fe,,,,,,,,,714,31.51092529,45.80908203,1,0,0,response1disk,,7,-2.440612793,5.461669922,1,0,0,rectangle,-2.440612793,5.461669922,1,0,0,-2.440612793,5.461669922,1,0,0,0,60,60,97,1,,,,,,,,
,,,,,,,,,,,,,FF,,,,,,,,0.567,,,,,,,,,,,,,,,,,,,,,,60fed532bbb4ed34d546fbb8,61037770a2fda8110225306b,2021-07-29_23h20.24.677,Simcolourproject_2stim_asymm_v5,2020.2.10,MacIntel,60,61025ae37ef11b136ea224fe,,,,,,,,,102,43.13977051,61.57766724,1,0,0,response1disk,,7,-2.539978027,-3.698913574,1,0,0,rectangle,-2.539978027,-3.698913574,1,0,0,-2.539978027,-3.698913574,1,0,0,0,61,61,126,1,,,,,,,,
,,,,,,,,,,,,,FF,,,,,,,,0.7666,,,,,,,,,,,,,,,,,,,,,,60fed532bbb4ed34d546fbb8,61037770a2fda8110225306b,2021-07-29_23h20.24.677,Simcolourproject_2stim_asymm_v5,2020.2.10,MacIntel,60,61025ae37ef11b136ea224fe,,,,,,,,,2356,55.89221191,-22.42712402,1,0,0,response3disk,,5,-14.07427979,-3.464111328,1,0,0,rectangle,-14.07427979,-3.464111328,1,0,0,-14.07427979,-3.464111328,1,0,0,0,62,62,106,1,,,,,,,,
,,,,,,,,,,,,,FF,,,,,,,,0.4837,,,,,,,,,,,,,,,,,,,,,,60fed532bbb4ed34d546fbb8,61037770a2fda8110225306b,2021-07-29_23h20.24.677,Simcolourproject_2stim_asymm_v5,2020.2.10,MacIntel,60,61025ae37ef11b136ea224fe,,,,,,,,,3261,31.54943848,46.86785889,1,0,0,response1disk,,7,13.13500977,6.192260742,1,0,0,rectangle,13.13500977,6.192260742,1,0,0,13.13500977,6.192260742,1,0,0,0,63,63,122,1,,,,,,,,
,,,,,,,,,,,,,FF,,,,,,,,0.8662,,,,,,,,,,,,,,,,,,,,,,60fed532bbb4ed34d546fbb8,61037770a2fda8110225306b,2021-07-29_23h20.24.677,Simcolourproject_2stim_asymm_v5,2020.2.10,MacIntel,60,61025ae37ef11b136ea224fe,,,,,,,,,1758,51.44213867,-25.82470703,1,0,0,response3disk,,5,17.94671631,-13.14147949,1,0,0,rectangle,17.94671631,-13.14147949,1,0,0,17.94671631,-13.14147949,1,0,0,0,64,64,42,1,,,,,,,,
,,,,,,,,,,,,,FF,,,,,,,,0.6176,,,,,,,,,,,,,,,,,,,,,,60fed532bbb4ed34d546fbb8,61037770a2fda8110225306b,2021-07-29_23h20.24.677,Simcolourproject_2stim_asymm_v5,2020.2.10,MacIntel,60,61025ae37ef11b136ea224fe,,,,,,,,,3972,60.10070801,35.47473145,1,0,0,response1disk,,6,11.67102051,3.574951172,1,0,0,rectangle,11.67102051,3.574951172,1,0,0,11.67102051,3.574951172,1,0,0,0,65,65,87,1,,,,,,,,
,,,,,,,,,,,,,FF,,,,,,,,0.7826,,,,,,,,,,,,,,,,,,,,,,60fed532bbb4ed34d546fbb8,61037770a2fda8110225306b,2021-07-29_23h20.24.677,Simcolourproject_2stim_asymm_v5,2020.2.10,MacIntel,60,61025ae37ef11b136ea224fe,,,,,,,,,3551,-27.72998047,-36.85351563,1,0,0,response5disk,,3,-7.399902344,-15.58056641,1,0,0,rectangle,-7.399902344,-15.58056641,1,0,0,-7.399902344,-15.58056641,1,0,0,0,66,66,96,1,,,,,,,,
,,,,,,,,,,,,,FF,,,,,,,,0.8505,,,,,,,,,,,,,,,,,,,,,,60fed532bbb4ed34d546fbb8,61037770a2fda8110225306b,2021-07-29_23h20.24.677,Simcolourproject_2stim_asymm_v5,2020.2.10,MacIntel,60,61025ae37ef11b136ea224fe,,,,,,,,,3147,-27.31170654,-47.45330811,1,0,0,response5disk,,3,-4.231079102,-0.781188965,1,0,0,rectangle,-4.231079102,-0.781188965,1,0,0,-4.231079102,-0.781188965,1,0,0,0,67,67,12,1,,,,,,,,
,,,,,,,,,,,,,FF,,,,,,,,0.5,,,,,,,,,,,,,,,,,,,,,,60fed532bbb4ed34d546fbb8,61037770a2fda8110225306b,2021-07-29_23h20.24.677,Simcolourproject_2stim_asymm_v5,2020.2.10,MacIntel,60,61025ae37ef11b136ea224fe,,,,,,,,,2212,27.22979736,54.97259521,1,0,0,response1disk,,7,9.930725098,18.36621094,1,0,0,rectangle,9.930725098,18.36621094,1,0,0,9.930725098,18.36621094,1,0,0,0,68,68,85,1,,,,,,,,
,,,,,,,,,,,,,FF,,,,,,,,0.7184,,,,,,,,,,,,,,,,,,,,,,60fed532bbb4ed34d546fbb8,61037770a2fda8110225306b,2021-07-29_23h20.24.677,Simcolourproject_2stim_asymm_v5,2020.2.10,MacIntel,60,61025ae37ef11b136ea224fe,,,,,,,,,490,27.70385742,46.39813232,1,0,0,response1disk,,7,-0.958557129,10.28222656,1,0,0,rectangle,-0.958557129,10.28222656,1,0,0,-0.958557129,10.28222656,1,0,0,0,69,69,153,1,,,,,,,,
,,,,,,,,,,,,,FF,,,,,,,,0.4004,,,,,,,,,,,,,,,,,,,,,,60fed532bbb4ed34d546fbb8,61037770a2fda8110225306b,2021-07-29_23h20.24.677,Simcolourproject_2stim_asymm_v5,2020.2.10,MacIntel,60,61025ae37ef11b136ea224fe,,,,,,,,,2702,29.27423096,49.96099854,1,0,0,response1disk,,7,8.791931152,13.81982422,1,0,0,rectangle,8.791931152,13.81982422,1,0,0,8.791931152,13.81982422,1,0,0,0,70,70,47,1,,,,,,,,
,,,,,,,,,,,,,FF,,,,,,,,1.3166,,,,,,,,,,,,,,,,,,,,,,60fed532bbb4ed34d546fbb8,61037770a2fda8110225306b,2021-07-29_23h20.24.677,Simcolourproject_2stim_asymm_v5,2020.2.10,MacIntel,60,61025ae37ef11b136ea224fe,,,,,,,,,2908,42.31243896,29.6862793,1,0,0,response1disk,,6,0.097595215,4.497558594,1,0,0,rectangle,0.097595215,4.497558594,1,0,0,0.097595215,4.497558594,1,0,0,0,71,71,71,1,,,,,,,,
,,,,,,,,,,,,,FF,,,,,,,,0.4313,,,,,,,,,,,,,,,,,,,,,,60fed532bbb4ed34d546fbb8,61037770a2fda8110225306b,2021-07-29_23h20.24.677,Simcolourproject_2stim_asymm_v5,2020.2.10,MacIntel,60,61025ae37ef11b136ea224fe,,,,,,,,,1998,27.75030518,52.87451172,1,0,0,response1disk,,7,5.357543945,12.94866943,1,0,0,rectangle,5.357543945,12.94866943,1,0,0,5.357543945,12.94866943,1,0,0,0,72,72,75,1,,,,,,,,
,,,,,,,,,,,,,FF,,,,,,,,0.7337,,,,,,,,,,,,,,,,,,,,,,60fed532bbb4ed34d546fbb8,61037770a2fda8110225306b,2021-07-29_23h20.24.677,Simcolourproject_2stim_asymm_v5,2020.2.10,MacIntel,60,61025ae37ef11b136ea224fe,,,,,,,,,1630,41.12756348,32.73760986,1,0,0,response1disk,,6,2.360351563,11.54425049,1,0,0,rectangle,2.360351563,11.54425049,1,0,0,2.360351563,11.54425049,1,0,0,0,73,73,155,1,,,,,,,,
,,,,,,,,,,,,,FF,,,,,,,,0.7,,,,,,,,,,,,,,,,,,,,,,60fed532bbb4ed34d546fbb8,61037770a2fda8110225306b,2021-07-29_23h20.24.677,Simcolourproject_2stim_asymm_v5,2020.2.10,MacIntel,60,61025ae37ef11b136ea224fe,,,,,,,,,1835,53.31848145,23.54260254,1,0,0,response1disk,,6,7.721252441,-2.893920898,1,0,0,rectangle,7.721252441,-2.893920898,1,0,0,7.721252441,-2.893920898,1,0,0,0,74,74,0,1,,,,,,,,
,,,,,,,,,,,,,FF,,,,,,,,1.8835,,,,,,,,,,,,,,,,,,,,,,60fed532bbb4ed34d546fbb8,61037770a2fda8110225306b,2021-07-29_23h20.24.677,Simcolourproject_2stim_asymm_v5,2020.2.10,MacIntel,60,61025ae37ef11b136ea224fe,,,,,,,,,1213,37.39013672,-69.66473389,1,0,0,response3disk,,4,17.57678223,0.68182373,1,0,0,rectangle,17.57678223,0.68182373,1,0,0,17.57678223,0.68182373,1,0,0,0,75,75,63,1,,,,,,,,
,,,,,,,,,,,,,FF,,,,,,,,0.5838,,,,,,,,,,,,,,,,,,,,,,60fed532bbb4ed34d546fbb8,61037770a2fda8110225306b,2021-07-29_23h20.24.677,Simcolourproject_2stim_asymm_v5,2020.2.10,MacIntel,60,61025ae37ef11b136ea224fe,,,,,,,,,3932,40.45617676,69.99389648,1,0,0,response1disk,,7,4.44543457,5.465332031,1,0,0,rectangle,4.44543457,5.465332031,1,0,0,4.44543457,5.465332031,1,0,0,0,76,76,64,1,,,,,,,,
,,,,,,,,,,,,,FF,,,,,,,,0.3502,,,,,,,,,,,,,,,,,,,,,,60fed532bbb4ed34d546fbb8,61037770a2fda8110225306b,2021-07-29_23h20.24.677,Simcolourproject_2stim_asymm_v5,2020.2.10,MacIntel,60,61025ae37ef11b136ea224fe,,,,,,,,,2631,33.71862793,47.54949951,1,0,0,response1disk,,7,11.23693848,15.76849365,1,0,0,rectangle,11.23693848,15.76849365,1,0,0,11.23693848,15.76849365,1,0,0,0,77,77,142,1,,,,,,,,
,,,,,,,,,,,,,FF,,,,,,,,0.9981,,,,,,,,,,,,,,,,,,,,,,60fed532bbb4ed34d546fbb8,61037770a2fda8110225306b,2021-07-29_23h20.24.677,Simcolourproject_2stim_asymm_v5,2020.2.10,MacIntel,60,61025ae37ef11b136ea224fe,,,,,,,,,789,46.86230469,-31.00860596,1,0,0,response3disk,,5,6.222595215,-7.952087402,1,0,0,rectangle,6.222595215,-7.952087402,1,0,0,6.222595215,-7.952087402,1,0,0,0,78,78,34,1,,,,,,,,
,,,,,,,,,,,,,FF,,,,,,,,1.2333,,,,,,,,,,,,,,,,,,,,,,60fed532bbb4ed34d546fbb8,61037770a2fda8110225306b,2021-07-29_23h20.24.677,Simcolourproject_2stim_asymm_v5,2020.2.10,MacIntel,60,61025ae37ef11b136ea224fe,,,,,,,,,2359,54.90258789,-27.58905029,1,0,0,response3disk,,5,7.754272461,-1.44543457,1,0,0,rectangle,7.754272461,-1.44543457,1,0,0,7.754272461,-1.44543457,1,0,0,0,79,79,74,1,,,,,,,,
,,,,,,,,,,,,,FF,,,,,,,,0.4161,,,,,,,,,,,,,,,,,,,,,,60fed532bbb4ed34d546fbb8,61037770a2fda8110225306b,2021-07-29_23h20.24.677,Simcolourproject_2stim_asymm_v5,2020.2.10,MacIntel,60,61025ae37ef11b136ea224fe,,,,,,,,,1729,34.81915283,89.4206543,1,0,0,response1disk,,7,18.58892822,2.155273438,1,0,0,rectangle,18.58892822,2.155273438,1,0,0,18.58892822,2.155273438,1,0,0,0,80,80,81,1,,,,,,,,
,,,,,,,,,,,,,FF,,,,,,,,1.1334,,,,,,,,,,,,,,,,,,,,,,60fed532bbb4ed34d546fbb8,61037770a2fda8110225306b,2021-07-29_23h20.24.677,Simcolourproject_2stim_asymm_v5,2020.2.10,MacIntel,60,61025ae37ef11b136ea224fe,,,,,,,,,2242,21.7890625,-52.72802734,1,0,0,response3disk,,4,2.768493652,-13.69934082,1,0,0,rectangle,2.768493652,-13.69934082,1,0,0,2.768493652,-13.69934082,1,0,0,0,81,81,107,1,,,,,,,,
,,,,,,,,,,,,,FF,,,,,,,,0.4656,,,,,,,,,,,,,,,,,,,,,,60fed532bbb4ed34d546fbb8,61037770a2fda8110225306b,2021-07-29_23h20.24.677,Simcolourproject_2stim_asymm_v5,2020.2.10,MacIntel,60,61025ae37ef11b136ea224fe,,,,,,,,,2624,42.15258789,58.37231445,1,0,0,response1disk,,7,18.87591553,2.95526123,1,0,0,rectangle,18.87591553,2.95526123,1,0,0,18.87591553,2.95526123,1,0,0,0,82,82,29,1,,,,,,,,
,,,,,,,,,,,,,FF,,,,,,,,1.4995,,,,,,,,,,,,,,,,,,,,,,60fed532bbb4ed34d546fbb8,61037770a2fda8110225306b,2021-07-29_23h20.24.677,Simcolourproject_2stim_asymm_v5,2020.2.10,MacIntel,60,61025ae37ef11b136ea224fe,,,,,,,,,1979,47.84906006,27.76202393,1,0,0,response1disk,,6,-10.16278076,-17.45819092,1,0,0,rectangle,-10.16278076,-17.45819092,1,0,0,-10.16278076,-17.45819092,1,0,0,0,83,83,66,1,,,,,,,,
,,,,,,,,,,,,,FF,,,,,,,,0.7996,,,,,,,,,,,,,,,,,,,,,,60fed532bbb4ed34d546fbb8,61037770a2fda8110225306b,2021-07-29_23h20.24.677,Simcolourproject_2stim_asymm_v5,2020.2.10,MacIntel,60,61025ae37ef11b136ea224fe,,,,,,,,,4232,41.7880249,73.73895264,1,0,0,response1disk,,7,-4.373168945,-0.14855957,1,0,0,rectangle,-4.373168945,-0.14855957,1,0,0,-4.373168945,-0.14855957,1,0,0,0,84,84,67,1,,,,,,,,
,,,,,,,,,,,,,FF,,,,,,,,0.8995,,,,,,,,,,,,,,,,,,,,,,60fed532bbb4ed34d546fbb8,61037770a2fda8110225306b,2021-07-29_23h20.24.677,Simcolourproject_2stim_asymm_v5,2020.2.10,MacIntel,60,61025ae37ef11b136ea224fe,,,,,,,,,2317,42.48828125,27.6630249,1,0,0,response1disk,,6,15.76293945,13.29003906,1,0,0,rectangle,15.76293945,13.29003906,1,0,0,15.76293945,13.29003906,1,0,0,0,85,85,99,1,,,,,,,,
,,,,,,,,,,,,,FF,,,,,,,,0.3831,,,,,,,,,,,,,,,,,,,,,,60fed532bbb4ed34d546fbb8,61037770a2fda8110225306b,2021-07-29_23h20.24.677,Simcolourproject_2stim_asymm_v5,2020.2.10,MacIntel,60,61025ae37ef11b136ea224fe,,,,,,,,,3941,30.15429688,48.64831543,1,0,0,response1disk,,7,8.05645752,2.785644531,1,0,0,rectangle,8.05645752,2.785644531,1,0,0,8.05645752,2.785644531,1,0,0,0,86,86,150,1,,,,,,,,
,,,,,,,,,,,,,FF,,,,,,,,0.8003,,,,,,,,,,,,,,,,,,,,,,60fed532bbb4ed34d546fbb8,61037770a2fda8110225306b,2021-07-29_23h20.24.677,Simcolourproject_2stim_asymm_v5,2020.2.10,MacIntel,60,61025ae37ef11b136ea224fe,,,,,,,,,157,44.67150879,22.35894775,1,0,0,response1disk,,6,2.620483398,-3.631164551,1,0,0,rectangle,2.620483398,-3.631164551,1,0,0,2.620483398,-3.631164551,1,0,0,0,87,87,41,1,,,,,,,,
,,,,,,,,,,,,,FF,,,,,,,,0.6502,,,,,,,,,,,,,,,,,,,,,,60fed532bbb4ed34d546fbb8,61037770a2fda8110225306b,2021-07-29_23h20.24.677,Simcolourproject_2stim_asymm_v5,2020.2.10,MacIntel,60,61025ae37ef11b136ea224fe,,,,,,,,,325,24.45153809,60.06057739,1,0,0,response1disk,,7,1.026489258,12.92456055,1,0,0,rectangle,1.026489258,12.92456055,1,0,0,1.026489258,12.92456055,1,0,0,0,88,88,6,1,,,,,,,,
,,,,,,,,,,,,,FF,,,,,,,,1.3002,,,,,,,,,,,,,,,,,,,,,,60fed532bbb4ed34d546fbb8,61037770a2fda8110225306b,2021-07-29_23h20.24.677,Simcolourproject_2stim_asymm_v5,2020.2.10,MacIntel,60,61025ae37ef11b136ea224fe,,,,,,,,,253,55.50231934,-42.32226563,1,0,0,response3disk,,5,12.31890869,3.399230957,1,0,0,rectangle,12.31890869,3.399230957,1,0,0,12.31890869,3.399230957,1,0,0,0,89,89,143,1,,,,,,,,
,,,,,,,,,,,,,FF,,,,,,,,1.1334,,,,,,,,,,,,,,,,,,,,,,60fed532bbb4ed34d546fbb8,61037770a2fda8110225306b,2021-07-29_23h20.24.677,Simcolourproject_2stim_asymm_v5,2020.2.10,MacIntel,60,61025ae37ef11b136ea224fe,,,,,,,,,4235,-52.23803711,34.55157471,1,0,0,response7disk,,1,-18.63842773,15.42468262,1,0,0,rectangle,-18.63842773,15.42468262,1,0,0,-18.63842773,15.42468262,1,0,0,0,90,90,139,1,,,,,,,,
,,,,,,,,,,,,,FF,,,,,,,,1.9185,,,,,,,,,,,,,,,,,,,,,,60fed532bbb4ed34d546fbb8,61037770a2fda8110225306b,2021-07-29_23h20.24.677,Simcolourproject_2stim_asymm_v5,2020.2.10,MacIntel,60,61025ae37ef11b136ea224fe,,,,,,,,,4181,-30.39709473,44.28637695,1,0,0,response7disk,,0,-24.24627686,20.23895264,1,0,0,rectangle,-24.24627686,20.23895264,1,0,0,-24.24627686,20.23895264,1,0,0,0,91,91,15,1,,,,,,,,
,,,,,,,,,,,,,FF,,,,,,,,2.3159,,,,,,,,,,,,,,,,,,,,,,60fed532bbb4ed34d546fbb8,61037770a2fda8110225306b,2021-07-29_23h20.24.677,Simcolourproject_2stim_asymm_v5,2020.2.10,MacIntel,60,61025ae37ef11b136ea224fe,,,,,,,,,1117,48.48718262,-16.90454102,1,0,0,response3disk,,5,9.014526367,-0.145507813,1,0,0,rectangle,9.014526367,-0.145507813,1,0,0,9.014526367,-0.145507813,1,0,0,0,92,92,140,1,,,,,,,,
,,,,,,,,,,,,,FF,,,,,,,,0.9007,,,,,,,,,,,,,,,,,,,,,,60fed532bbb4ed34d546fbb8,61037770a2fda8110225306b,2021-07-29_23h20.24.677,Simcolourproject_2stim_asymm_v5,2020.2.10,MacIntel,60,61025ae37ef11b136ea224fe,,,,,,,,,1587,-27.56317139,-51.87182617,1,0,0,response5disk,,3,-13.78186035,-3.176269531,1,0,0,rectangle,-13.78186035,-3.176269531,1,0,0,-13.78186035,-3.176269531,1,0,0,0,93,93,10,1,,,,,,,,
,,,,,,,,,,,,,FF,,,,,,,,0.9838,,,,,,,,,,,,,,,,,,,,,,60fed532bbb4ed34d546fbb8,61037770a2fda8110225306b,2021-07-29_23h20.24.677,Simcolourproject_2stim_asymm_v5,2020.2.10,MacIntel,60,61025ae37ef11b136ea224fe,,,,,,,,,973,35.7755127,-48.78076172,1,0,0,response3disk,,4,17.26062012,7.137878418,1,0,0,rectangle,17.26062012,7.137878418,1,0,0,17.26062012,7.137878418,1,0,0,0,94,94,129,1,,,,,,,,
,,,,,,,,,,,,,FF,,,,,,,,0.5838,,,,,,,,,,,,,,,,,,,,,,60fed532bbb4ed34d546fbb8,61037770a2fda8110225306b,2021-07-29_23h20.24.677,Simcolourproject_2stim_asymm_v5,2020.2.10,MacIntel,60,61025ae37ef11b136ea224fe,,,,,,,,,1663,36.29187012,46.32299805,1,0,0,response1disk,,7,24.55053711,4.944824219,1,0,0,rectangle,24.55053711,4.944824219,1,0,0,24.55053711,4.944824219,1,0,0,0,95,95,13,1,,,,,,,,
,,,,,,,,,,,,,FF,,,,,,,,0.633,,,,,,,,,,,,,,,,,,,,,,60fed532bbb4ed34d546fbb8,61037770a2fda8110225306b,2021-07-29_23h20.24.677,Simcolourproject_2stim_asymm_v5,2020.2.10,MacIntel,60,61025ae37ef11b136ea224fe,,,,,,,,,669,36.94866943,48.40145874,1,0,0,response1disk,,7,15.65258789,2.986450195,1,0,0,rectangle,15.65258789,2.986450195,1,0,0,15.65258789,2.986450195,1,0,0,0,96,96,112,1,,,,,,,,
,,,,,,,,,,,,,FF,,,,,,,,0.5501,,,,,,,,,,,,,,,,,,,,,,60fed532bbb4ed34d546fbb8,61037770a2fda8110225306b,2021-07-29_23h20.24.677,Simcolourproject_2stim_asymm_v5,2020.2.10,MacIntel,60,61025ae37ef11b136ea224fe,,,,,,,,,1055,62.75762939,35.07525635,1,0,0,response1disk,,6,-14.62579346,-2.686950684,1,0,0,rectangle,-14.62579346,-2.686950684,1,0,0,-14.62579346,-2.686950684,1,0,0,0,97,97,151,1,,,,,,,,
,,,,,,,,,,,,,FF,,,,,,,,0.6824,,,,,,,,,,,,,,,,,,,,,,60fed532bbb4ed34d546fbb8,61037770a2fda8110225306b,2021-07-29_23h20.24.677,Simcolourproject_2stim_asymm_v5,2020.2.10,MacIntel,60,61025ae37ef11b136ea224fe,,,,,,,,,908,36.10644531,19.91522217,1,0,0,response1disk,,6,0.39654541,10.72515869,1,0,0,rectangle,0.39654541,10.72515869,1,0,0,0.39654541,10.72515869,1,0,0,0,98,98,7,1,,,,,,,,
,,,,,,,,,,,,,FF,,,,,,,,0.4664,,,,,,,,,,,,,,,,,,,,,,60fed532bbb4ed34d546fbb8,61037770a2fda8110225306b,2021-07-29_23h20.24.677,Simcolourproject_2stim_asymm_v5,2020.2.10,MacIntel,60,61025ae37ef11b136ea224fe,,,,,,,,,2975,26.0291748,36.61914063,1,0,0,response1disk,,7,-4.690795898,-6.47467041,1,0,0,rectangle,-4.690795898,-6.47467041,1,0,0,-4.690795898,-6.47467041,1,0,0,0,99,99,103,1,,,,,,,,
,,,,,,,,,,,,,FF,,,,,,,,0.466,,,,,,,,,,,,,,,,,,,,,,60fed532bbb4ed34d546fbb8,61037770a2fda8110225306b,2021-07-29_23h20.24.677,Simcolourproject_2stim_asymm_v5,2020.2.10,MacIntel,60,61025ae37ef11b136ea224fe,,,,,,,,,2076,30.46929932,37.83789063,1,0,0,response1disk,,7,12.07666016,11.41955566,1,0,0,rectangle,12.07666016,11.41955566,1,0,0,12.07666016,11.41955566,1,0,0,0,100,100,111,1,,,,,,,,
,,,,,,,,,,,,,FF,,,,,,,,0.3665,,,,,,,,,,,,,,,,,,,,,,60fed532bbb4ed34d546fbb8,61037770a2fda8110225306b,2021-07-29_23h20.24.677,Simcolourproject_2stim_asymm_v5,2020.2.10,MacIntel,60,61025ae37ef11b136ea224fe,,,,,,,,,510,42.43048096,48.67938232,1,0,0,response1disk,,7,5.672729492,8.002746582,1,0,0,rectangle,5.672729492,8.002746582,1,0,0,5.672729492,8.002746582,1,0,0,0,101,101,138,1,,,,,,,,
,,,,,,,,,,,,,FF,,,,,,,,0.3826,,,,,,,,,,,,,,,,,,,,,,60fed532bbb4ed34d546fbb8,61037770a2fda8110225306b,2021-07-29_23h20.24.677,Simcolourproject_2stim_asymm_v5,2020.2.10,MacIntel,60,61025ae37ef11b136ea224fe,,,,,,,,,379,25.87908936,34.75421143,1,0,0,response1disk,,7,6.022888184,6.127075195,1,0,0,rectangle,6.022888184,6.127075195,1,0,0,6.022888184,6.127075195,1,0,0,0,102,102,77,1,,,,,,,,
,,,,,,,,,,,,,FF,,,,,,,,0.5843,,,,,,,,,,,,,,,,,,,,,,60fed532bbb4ed34d546fbb8,61037770a2fda8110225306b,2021-07-29_23h20.24.677,Simcolourproject_2stim_asymm_v5,2020.2.10,MacIntel,60,61025ae37ef11b136ea224fe,,,,,,,,,1841,59.04205322,21.15228271,1,0,0,response1disk,,6,14.75964355,7.674255371,1,0,0,rectangle,14.75964355,7.674255371,1,0,0,14.75964355,7.674255371,1,0,0,0,103,103,105,1,,,,,,,,
,,,,,,,,,,,,,FF,,,,,,,,0.5996,,,,,,,,,,,,,,,,,,,,,,60fed532bbb4ed34d546fbb8,61037770a2fda8110225306b,2021-07-29_23h20.24.677,Simcolourproject_2stim_asymm_v5,2020.2.10,MacIntel,60,61025ae37ef11b136ea224fe,,,,,,,,,3803,35.71557617,63.24090576,1,0,0,response1disk,,7,9.522705078,10.11871338,1,0,0,rectangle,9.522705078,10.11871338,1,0,0,9.522705078,10.11871338,1,0,0,0,104,104,83,1,,,,,,,,
,,,,,,,,,,,,,FF,,,,,,,,0.3822,,,,,,,,,,,,,,,,,,,,,,60fed532bbb4ed34d546fbb8,61037770a2fda8110225306b,2021-07-29_23h20.24.677,Simcolourproject_2stim_asymm_v5,2020.2.10,MacIntel,60,61025ae37ef11b136ea224fe,,,,,,,,,774,36.83660889,49.93762207,1,0,0,response1disk,,7,-5.733581543,3.612304688,1,0,0,rectangle,-5.733581543,3.612304688,1,0,0,-5.733581543,3.612304688,1,0,0,0,105,105,62,1,,,,,,,,
,,,,,,,,,,,,,FF,,,,,,,,0.5495,,,,,,,,,,,,,,,,,,,,,,60fed532bbb4ed34d546fbb8,61037770a2fda8110225306b,2021-07-29_23h20.24.677,Simcolourproject_2stim_asymm_v5,2020.2.10,MacIntel,60,61025ae37ef11b136ea224fe,,,,,,,,,2308,45.42333984,24.39990234,1,0,0,response1disk,,6,8.975708008,8.941040039,1,0,0,rectangle,8.975708008,8.941040039,1,0,0,8.975708008,8.941040039,1,0,0,0,106,106,91,1,,,,,,,,
,,,,,,,,,,,,,FF,,,,,,,,0.4331,,,,,,,,,,,,,,,,,,,,,,60fed532bbb4ed34d546fbb8,61037770a2fda8110225306b,2021-07-29_23h20.24.677,Simcolourproject_2stim_asymm_v5,2020.2.10,MacIntel,60,61025ae37ef11b136ea224fe,,,,,,,,,2232,44.69006348,32.07751465,1,0,0,response1disk,,6,22.06884766,16.59735107,1,0,0,rectangle,22.06884766,16.59735107,1,0,0,22.06884766,16.59735107,1,0,0,0,107,107,31,1,,,,,,,,
,,,,,,,,,,,,,FF,,,,,,,,0.3671,,,,,,,,,,,,,,,,,,,,,,60fed532bbb4ed34d546fbb8,61037770a2fda8110225306b,2021-07-29_23h20.24.677,Simcolourproject_2stim_asymm_v5,2020.2.10,MacIntel,60,61025ae37ef11b136ea224fe,,,,,,,,,1902,51.07843018,30.80212402,1,0,0,response1disk,,6,30.36279297,18.78887939,1,0,0,rectangle,30.36279297,18.78887939,1,0,0,30.36279297,18.78887939,1,0,0,0,108,108,27,1,,,,,,,,
,,,,,,,,,,,,,FF,,,,,,,,0.3829,,,,,,,,,,,,,,,,,,,,,,60fed532bbb4ed34d546fbb8,61037770a2fda8110225306b,2021-07-29_23h20.24.677,Simcolourproject_2stim_asymm_v5,2020.2.10,MacIntel,60,61025ae37ef11b136ea224fe,,,,,,,,,994,73.73834229,30.46350098,1,0,0,response1disk,,6,26.48406982,-0.517578125,1,0,0,rectangle,26.48406982,-0.517578125,1,0,0,26.48406982,-0.517578125,1,0,0,0,109,109,157,1,,,,,,,,
,,,,,,,,,,,,,FF,,,,,,,,0.9151,,,,,,,,,,,,,,,,,,,,,,60fed532bbb4ed34d546fbb8,61037770a2fda8110225306b,2021-07-29_23h20.24.677,Simcolourproject_2stim_asymm_v5,2020.2.10,MacIntel,60,61025ae37ef11b136ea224fe,,,,,,,,,3879,59.88781738,30.01831055,1,0,0,response1disk,,6,13.94213867,8.980163574,1,0,0,rectangle,13.94213867,8.980163574,1,0,0,13.94213867,8.980163574,1,0,0,0,110,110,149,1,,,,,,,,
,,,,,,,,,,,,,FF,,,,,,,,0.8159,,,,,,,,,,,,,,,,,,,,,,60fed532bbb4ed34d546fbb8,61037770a2fda8110225306b,2021-07-29_23h20.24.677,Simcolourproject_2stim_asymm_v5,2020.2.10,MacIntel,60,61025ae37ef11b136ea224fe,,,,,,,,,550,55.63598633,-18.92797852,1,0,0,response3disk,,5,24.70062256,-5.271484375,1,0,0,rectangle,24.70062256,-5.271484375,1,0,0,24.70062256,-5.271484375,1,0,0,0,111,111,114,1,,,,,,,,
,,,,,,,,,,,,,FF,,,,,,,,0.8171,,,,,,,,,,,,,,,,,,,,,,60fed532bbb4ed34d546fbb8,61037770a2fda8110225306b,2021-07-29_23h20.24.677,Simcolourproject_2stim_asymm_v5,2020.2.10,MacIntel,60,61025ae37ef11b136ea224fe,,,,,,,,,3431,33.00085449,-59.42907715,1,0,0,response3disk,,4,4.406494141,-3.143188477,1,0,0,rectangle,4.406494141,-3.143188477,1,0,0,4.406494141,-3.143188477,1,0,0,0,112,112,95,1,,,,,,,,
,,,,,,,,,,,,,FF,,,,,,,,0.5672,,,,,,,,,,,,,,,,,,,,,,60fed532bbb4ed34d546fbb8,61037770a2fda8110225306b,2021-07-29_23h20.24.677,Simcolourproject_2stim_asymm_v5,2020.2.10,MacIntel,60,61025ae37ef11b136ea224fe,,,,,,,,,2562,52.04803467,25.39227295,1,0,0,response1disk,,6,13.81121826,7.625183105,1,0,0,rectangle,13.81121826,7.625183105,1,0,0,13.81121826,7.625183105,1,0,0,0,113,113,35,1,,,,,,,,
,,,,,,,,,,,,,FF,,,,,,,,0.4662,,,,,,,,,,,,,,,,,,,,,,60fed532bbb4ed34d546fbb8,61037770a2fda8110225306b,2021-07-29_23h20.24.677,Simcolourproject_2stim_asymm_v5,2020.2.10,MacIntel,60,61025ae37ef11b136ea224fe,,,,,,,,,1562,61.24682617,39.4708252,1,0,0,response1disk,,6,15.40515137,9.727294922,1,0,0,rectangle,15.40515137,9.727294922,1,0,0,15.40515137,9.727294922,1,0,0,0,114,114,136,1,,,,,,,,
,,,,,,,,,,,,,FF,,,,,,,,0.4339,,,,,,,,,,,,,,,,,,,,,,60fed532bbb4ed34d546fbb8,61037770a2fda8110225306b,2021-07-29_23h20.24.677,Simcolourproject_2stim_asymm_v5,2020.2.10,MacIntel,60,61025ae37ef11b136ea224fe,,,,,,,,,1035,56.30517578,23.20861816,1,0,0,response1disk,,6,16.93469238,15.54241943,1,0,0,rectangle,16.93469238,15.54241943,1,0,0,16.93469238,15.54241943,1,0,0,0,115,115,68,1,,,,,,,,
,,,,,,,,,,,,,FF,,,,,,,,0.6826,,,,,,,,,,,,,,,,,,,,,,60fed532bbb4ed34d546fbb8,61037770a2fda8110225306b,2021-07-29_23h20.24.677,Simcolourproject_2stim_asymm_v5,2020.2.10,MacIntel,60,61025ae37ef11b136ea224fe,,,,,,,,,656,65.38208008,35.07080078,1,0,0,response1disk,,6,4.431640625,0.235595703,1,0,0,rectangle,4.431640625,0.235595703,1,0,0,4.431640625,0.235595703,1,0,0,0,116,116,38,1,,,,,,,,
,,,,,,,,,,,,,FF,,,,,,,,0.5826,,,,,,,,,,,,,,,,,,,,,,60fed532bbb4ed34d546fbb8,61037770a2fda8110225306b,2021-07-29_23h20.24.677,Simcolourproject_2stim_asymm_v5,2020.2.10,MacIntel,60,61025ae37ef11b136ea224fe,,,,,,,,,4065,33.77496338,36.58624268,1,0,0,response1disk,,7,22.56555176,18.38354492,1,0,0,rectangle,22.56555176,18.38354492,1,0,0,22.56555176,18.38354492,1,0,0,0,117,117,121,1,,,,,,,,
,,,,,,,,,,,,,FF,,,,,,,,1.2161,,,,,,,,,,,,,,,,,,,,,,60fed532bbb4ed34d546fbb8,61037770a2fda8110225306b,2021-07-29_23h20.24.677,Simcolourproject_2stim_asymm_v5,2020.2.10,MacIntel,60,61025ae37ef11b136ea224fe,,,,,,,,,324,34.26696777,42.41931152,1,0,0,response1disk,,7,13.46154785,12.65155029,1,0,0,rectangle,13.46154785,12.65155029,1,0,0,13.46154785,12.65155029,1,0,0,0,118,118,137,1,,,,,,,,
,,,,,,,,,,,,,FF,,,,,,,,0.5497,,,,,,,,,,,,,,,,,,,,,,60fed532bbb4ed34d546fbb8,61037770a2fda8110225306b,2021-07-29_23h20.24.677,Simcolourproject_2stim_asymm_v5,2020.2.10,MacIntel,60,61025ae37ef11b136ea224fe,,,,,,,,,4151,37.54754639,59.56011963,1,0,0,response1disk,,7,24.90130615,4.835571289,1,0,0,rectangle,24.90130615,4.835571289,1,0,0,24.90130615,4.835571289,1,0,0,0,119,119,14,1,,,,,,,,
,,,,,,,,,,,,,FF,,,,,,,,0.4336,,,,,,,,,,,,,,,,,,,,,,60fed532bbb4ed34d546fbb8,61037770a2fda8110225306b,2021-07-29_23h20.24.677,Simcolourproject_2stim_asymm_v5,2020.2.10,MacIntel,60,61025ae37ef11b136ea224fe,,,,,,,,,1108,40.08752441,38.40924072,1,0,0,response1disk,,6,16.22924805,16.40185547,1,0,0,rectangle,82.20355225,32.95227051,1,0,0,21.36053467,-6.710754395,1,0,0,0,120,120,100,1,,response1disk_3,TRUE,6,6,"[283,322,228,134,186,158,274,253,273,266,268,170,183,27,121,142,225,124,35,271]",1.5172,rectangle
,,,,,,,,,,,,,FF,,,,,,,,1.6327,,,,,,,,,,,,,,,,,,,,,,60fed532bbb4ed34d546fbb8,61037770a2fda8110225306b,2021-07-29_23h20.24.677,Simcolourproject_2stim_asymm_v5,2020.2.10,MacIntel,60,61025ae37ef11b136ea224fe,,,,,,,,,4052,-29.93365479,-51.36572266,1,0,0,response5disk,,3,-14.01672363,-7.680908203,1,0,0,rectangle,-14.01672363,-7.680908203,1,0,0,-14.01672363,-7.680908203,1,0,0,0,121,121,51,1,,,,,,,,
,,,,,,,,,,,,,FF,,,,,,,,0.7841,,,,,,,,,,,,,,,,,,,,,,60fed532bbb4ed34d546fbb8,61037770a2fda8110225306b,2021-07-29_23h20.24.677,Simcolourproject_2stim_asymm_v5,2020.2.10,MacIntel,60,61025ae37ef11b136ea224fe,,,,,,,,,2171,63.9085083,-27.01074219,1,0,0,response3disk,,5,23.47125244,6.293762207,1,0,0,rectangle,23.47125244,6.293762207,1,0,0,23.47125244,6.293762207,1,0,0,0,122,122,18,1,,,,,,,,
,,,,,,,,,,,,,FF,,,,,,,,0.9991,,,,,,,,,,,,,,,,,,,,,,60fed532bbb4ed34d546fbb8,61037770a2fda8110225306b,2021-07-29_23h20.24.677,Simcolourproject_2stim_asymm_v5,2020.2.10,MacIntel,60,61025ae37ef11b136ea224fe,,,,,,,,,3922,37.14794922,22.18225098,1,0,0,response1disk,,6,24.50866699,-1.131103516,1,0,0,rectangle,-70.8302002,38.57879639,1,0,0,-13.1829834,0.173828125,1,0,0,0,123,123,60,1,,response7disk_3,TRUE,1,1,"[283,322,228,134,186,158,274,253,273,266,268,170,183,27,121,142,225,124,35,271]",1.3659,rectangle
,,,,,,,,,,,,,FF,,,,,,,,1.2335,,,,,,,,,,,,,,,,,,,,,,60fed532bbb4ed34d546fbb8,61037770a2fda8110225306b,2021-07-29_23h20.24.677,Simcolourproject_2stim_asymm_v5,2020.2.10,MacIntel,60,61025ae37ef11b136ea224fe,,,,,,,,,2258,52.00469971,56.54656982,1,0,0,response1disk,,7,32.71276855,8.304199219,1,0,0,rectangle,32.71276855,8.304199219,1,0,0,32.71276855,8.304199219,1,0,0,0,124,124,130,1,,,,,,,,
,,,,,,,,,,,,,FF,,,,,,,,0.6507,,,,,,,,,,,,,,,,,,,,,,60fed532bbb4ed34d546fbb8,61037770a2fda8110225306b,2021-07-29_23h20.24.677,Simcolourproject_2stim_asymm_v5,2020.2.10,MacIntel,60,61025ae37ef11b136ea224fe,,,,,,,,,2186,44.51489258,48.53863525,1,0,0,response1disk,,7,36.13250732,2.600463867,1,0,0,rectangle,36.13250732,2.600463867,1,0,0,36.13250732,2.600463867,1,0,0,0,125,125,108,1,,,,,,,,
,,,,,,,,,,,,,FF,,,,,,,,0.4841,,,,,,,,,,,,,,,,,,,,,,60fed532bbb4ed34d546fbb8,61037770a2fda8110225306b,2021-07-29_23h20.24.677,Simcolourproject_2stim_asymm_v5,2020.2.10,MacIntel,60,61025ae37ef11b136ea224fe,,,,,,,,,3127,44.0736084,52.42562866,1,0,0,response1disk,,7,21.11315918,7.532775879,1,0,0,rectangle,21.11315918,7.532775879,1,0,0,21.11315918,7.532775879,1,0,0,0,126,126,49,1,,,,,,,,
,,,,,,,,,,,,,FF,,,,,,,,0.451,,,,,,,,,,,,,,,,,,,,,,60fed532bbb4ed34d546fbb8,61037770a2fda8110225306b,2021-07-29_23h20.24.677,Simcolourproject_2stim_asymm_v5,2020.2.10,MacIntel,60,61025ae37ef11b136ea224fe,,,,,,,,,4284,42.58508301,69.69665527,1,0,0,response1disk,,7,29.89526367,20.7677002,1,0,0,rectangle,29.89526367,20.7677002,1,0,0,29.89526367,20.7677002,1,0,0,0,127,127,147,1,,,,,,,,
,,,,,,,,,,,,,FF,,,,,,,,0.5154,,,,,,,,,,,,,,,,,,,,,,60fed532bbb4ed34d546fbb8,61037770a2fda8110225306b,2021-07-29_23h20.24.677,Simcolourproject_2stim_asymm_v5,2020.2.10,MacIntel,60,61025ae37ef11b136ea224fe,,,,,,,,,2643,45.82781982,78.35809326,1,0,0,response1disk,,7,8.081787109,7.069396973,1,0,0,rectangle,8.081787109,7.069396973,1,0,0,8.081787109,7.069396973,1,0,0,0,128,128,24,1,,,,,,,,
,,,,,,,,,,,,,FF,,,,,,,,0.4332,,,,,,,,,,,,,,,,,,,,,,60fed532bbb4ed34d546fbb8,61037770a2fda8110225306b,2021-07-29_23h20.24.677,Simcolourproject_2stim_asymm_v5,2020.2.10,MacIntel,60,61025ae37ef11b136ea224fe,,,,,,,,,3333,41.30804443,88.60516357,1,0,0,response1disk,,7,5.201416016,5.405700684,1,0,0,rectangle,5.201416016,5.405700684,1,0,0,5.201416016,5.405700684,1,0,0,0,129,129,52,1,,,,,,,,
,,,,,,,,,,,,,FF,,,,,,,,0.767,,,,,,,,,,,,,,,,,,,,,,60fed532bbb4ed34d546fbb8,61037770a2fda8110225306b,2021-07-29_23h20.24.677,Simcolourproject_2stim_asymm_v5,2020.2.10,MacIntel,60,61025ae37ef11b136ea224fe,,,,,,,,,316,34.38037109,59.21606445,1,0,0,response1disk,,7,-2.709411621,-3.356384277,1,0,0,rectangle,-2.709411621,-3.356384277,1,0,0,-2.709411621,-3.356384277,1,0,0,0,130,130,32,1,,,,,,,,
,,,,,,,,,,,,,FF,,,,,,,,0.5331,,,,,,,,,,,,,,,,,,,,,,60fed532bbb4ed34d546fbb8,61037770a2fda8110225306b,2021-07-29_23h20.24.677,Simcolourproject_2stim_asymm_v5,2020.2.10,MacIntel,60,61025ae37ef11b136ea224fe,,,,,,,,,2476,29.89929199,61.74636841,1,0,0,response1disk,,7,-5.46270752,-13.43804932,1,0,0,rectangle,-5.46270752,-13.43804932,1,0,0,-5.46270752,-13.43804932,1,0,0,0,131,131,73,1,,,,,,,,
,,,,,,,,,,,,,FF,,,,,,,,0.5167,,,,,,,,,,,,,,,,,,,,,,60fed532bbb4ed34d546fbb8,61037770a2fda8110225306b,2021-07-29_23h20.24.677,Simcolourproject_2stim_asymm_v5,2020.2.10,MacIntel,60,61025ae37ef11b136ea224fe,,,,,,,,,1089,25.32739258,54.89746094,1,0,0,response1disk,,7,-10.36676025,-9.258178711,1,0,0,rectangle,-10.36676025,-9.258178711,1,0,0,-10.36676025,-9.258178711,1,0,0,0,132,132,110,1,,,,,,,,
,,,,,,,,,,,,,FF,,,,,,,,0.8175,,,,,,,,,,,,,,,,,,,,,,60fed532bbb4ed34d546fbb8,61037770a2fda8110225306b,2021-07-29_23h20.24.677,Simcolourproject_2stim_asymm_v5,2020.2.10,MacIntel,60,61025ae37ef11b136ea224fe,,,,,,,,,3160,59.30834961,27.57592773,1,0,0,response1disk,,6,17.0425415,-6.069335938,1,0,0,rectangle,-37.77893066,78.70617676,1,0,0,7.854614258,14.80041504,1,0,0,0,133,133,92,1,,response7disk_3,TRUE,0,0,"[283,322,228,134,186,158,274,253,273,266,268,170,183,27,121,142,225,124,35,271]",1.2012,rectangle
,,,,,,,,,,,,,FF,,,,,,,,1.0829,,,,,,,,,,,,,,,,,,,,,,60fed532bbb4ed34d546fbb8,61037770a2fda8110225306b,2021-07-29_23h20.24.677,Simcolourproject_2stim_asymm_v5,2020.2.10,MacIntel,60,61025ae37ef11b136ea224fe,,,,,,,,,526,-22.70294189,-59.11230469,1,0,0,response5disk,,3,-21.54052734,7.59161377,1,0,0,rectangle,-21.54052734,7.59161377,1,0,0,-21.54052734,7.59161377,1,0,0,0,134,134,65,1,,,,,,,,
,,,,,,,,,,,,,FF,,,,,,,,0.6167,,,,,,,,,,,,,,,,,,,,,,60fed532bbb4ed34d546fbb8,61037770a2fda8110225306b,2021-07-29_23h20.24.677,Simcolourproject_2stim_asymm_v5,2020.2.10,MacIntel,60,61025ae37ef11b136ea224fe,,,,,,,,,1782,29.36413574,73.3508606,1,0,0,response1disk,,7,-6.844543457,9.477111816,1,0,0,rectangle,-6.844543457,9.477111816,1,0,0,-6.844543457,9.477111816,1,0,0,0,135,135,50,1,,,,,,,,
,,,,,,,,,,,,,FF,,,,,,,,0.5008,,,,,,,,,,,,,,,,,,,,,,60fed532bbb4ed34d546fbb8,61037770a2fda8110225306b,2021-07-29_23h20.24.677,Simcolourproject_2stim_asymm_v5,2020.2.10,MacIntel,60,61025ae37ef11b136ea224fe,,,,,,,,,836,33.08050537,52.80194092,1,0,0,response1disk,,7,12.36169434,-1.661987305,1,0,0,rectangle,12.36169434,-1.661987305,1,0,0,12.36169434,-1.661987305,1,0,0,0,136,136,23,1,,,,,,,,
,,,,,,,,,,,,,FF,,,,,,,,0.533,,,,,,,,,,,,,,,,,,,,,,60fed532bbb4ed34d546fbb8,61037770a2fda8110225306b,2021-07-29_23h20.24.677,Simcolourproject_2stim_asymm_v5,2020.2.10,MacIntel,60,61025ae37ef11b136ea224fe,,,,,,,,,3835,26.80987549,64.61923218,1,0,0,response1disk,,7,5.664733887,16.59350586,1,0,0,rectangle,5.664733887,16.59350586,1,0,0,5.664733887,16.59350586,1,0,0,0,137,137,44,1,,,,,,,,
,,,,,,,,,,,,,FF,,,,,,,,0.5009,,,,,,,,,,,,,,,,,,,,,,60fed532bbb4ed34d546fbb8,61037770a2fda8110225306b,2021-07-29_23h20.24.677,Simcolourproject_2stim_asymm_v5,2020.2.10,MacIntel,60,61025ae37ef11b136ea224fe,,,,,,,,,3883,42.87054443,60.18798828,1,0,0,response1disk,,7,6.812438965,1.879943848,1,0,0,rectangle,6.812438965,1.879943848,1,0,0,6.812438965,1.879943848,1,0,0,0,138,138,133,1,,,,,,,,
,,,,,,,,,,,,,FF,,,,,,,,0.383,,,,,,,,,,,,,,,,,,,,,,60fed532bbb4ed34d546fbb8,61037770a2fda8110225306b,2021-07-29_23h20.24.677,Simcolourproject_2stim_asymm_v5,2020.2.10,MacIntel,60,61025ae37ef11b136ea224fe,,,,,,,,,2518,39.30969238,59.62817383,1,0,0,response1disk,,7,12.30023193,12.7411499,1,0,0,rectangle,12.30023193,12.7411499,1,0,0,12.30023193,12.7411499,1,0,0,0,139,139,3,1,,,,,,,,
,,,,,,,,,,,,,FF,,,,,,,,0.4989,,,,,,,,,,,,,,,,,,,,,,60fed532bbb4ed34d546fbb8,61037770a2fda8110225306b,2021-07-29_23h20.24.677,Simcolourproject_2stim_asymm_v5,2020.2.10,MacIntel,60,61025ae37ef11b136ea224fe,,,,,,,,,2342,29.42871094,52.99957275,1,0,0,response1disk,,7,5.001953125,8.557739258,1,0,0,rectangle,5.001953125,8.557739258,1,0,0,5.001953125,8.557739258,1,0,0,0,140,140,146,1,,,,,,,,
,,,,,,,,,,,,,FF,,,,,,,,1.0492,,,,,,,,,,,,,,,,,,,,,,60fed532bbb4ed34d546fbb8,61037770a2fda8110225306b,2021-07-29_23h20.24.677,Simcolourproject_2stim_asymm_v5,2020.2.10,MacIntel,60,61025ae37ef11b136ea224fe,,,,,,,,,2854,25.34423828,56.35217285,1,0,0,response1disk,,7,3.780944824,-0.370788574,1,0,0,rectangle,-25.83764648,-75.90710449,1,0,0,-7.33001709,-14.32769775,1,0,0,0,141,141,94,1,,response5disk_3,TRUE,3,3,"[283,322,228,134,186,158,274,253,273,266,268,170,183,27,121,142,225,124,35,271]",1.5994,rectangle
,,,,,,,,,,,,,FF,,,,,,,,0.6832,,,,,,,,,,,,,,,,,,,,,,60fed532bbb4ed34d546fbb8,61037770a2fda8110225306b,2021-07-29_23h20.24.677,Simcolourproject_2stim_asymm_v5,2020.2.10,MacIntel,60,61025ae37ef11b136ea224fe,,,,,,,,,2607,48.6295166,29.05834961,1,0,0,response1disk,,6,0.309326172,-3.967651367,1,0,0,rectangle,0.309326172,-3.967651367,1,0,0,0.309326172,-3.967651367,1,0,0,0,142,142,102,1,,,,,,,,
,,,,,,,,,,,,,FF,,,,,,,,1.6659,,,,,,,,,,,,,,,,,,,,,,60fed532bbb4ed34d546fbb8,61037770a2fda8110225306b,2021-07-29_23h20.24.677,Simcolourproject_2stim_asymm_v5,2020.2.10,MacIntel,60,61025ae37ef11b136ea224fe,,,,,,,,,3965,-30.26318359,61.07730103,1,0,0,response7disk,,0,-17.52734375,6.991760254,1,0,0,rectangle,-17.52734375,6.991760254,1,0,0,-17.52734375,6.991760254,1,0,0,0,143,143,93,1,,,,,,,,
,,,,,,,,,,,,,FF,,,,,,,,0.8993,,,,,,,,,,,,,,,,,,,,,,60fed532bbb4ed34d546fbb8,61037770a2fda8110225306b,2021-07-29_23h20.24.677,Simcolourproject_2stim_asymm_v5,2020.2.10,MacIntel,60,61025ae37ef11b136ea224fe,,,,,,,,,459,54.99359131,33.15106201,1,0,0,response1disk,,6,5.973449707,-0.038574219,1,0,0,rectangle,5.973449707,-0.038574219,1,0,0,5.973449707,-0.038574219,1,0,0,0,144,144,69,1,,,,,,,,
,,,,,,,,,,,,,FF,,,,,,,,0.4161,,,,,,,,,,,,,,,,,,,,,,60fed532bbb4ed34d546fbb8,61037770a2fda8110225306b,2021-07-29_23h20.24.677,Simcolourproject_2stim_asymm_v5,2020.2.10,MacIntel,60,61025ae37ef11b136ea224fe,,,,,,,,,3317,26.21801758,51.41845703,1,0,0,response1disk,,7,-0.850952148,0.146972656,1,0,0,rectangle,-0.850952148,0.146972656,1,0,0,-0.850952148,0.146972656,1,0,0,0,145,145,104,1,,,,,,,,
,,,,,,,,,,,,,FF,,,,,,,,1.0004,,,,,,,,,,,,,,,,,,,,,,60fed532bbb4ed34d546fbb8,61037770a2fda8110225306b,2021-07-29_23h20.24.677,Simcolourproject_2stim_asymm_v5,2020.2.10,MacIntel,60,61025ae37ef11b136ea224fe,,,,,,,,,3940,40.48779297,-32.60412598,1,0,0,response3disk,,5,12.04547119,-2.525146484,1,0,0,rectangle,12.04547119,-2.525146484,1,0,0,12.04547119,-2.525146484,1,0,0,0,146,146,80,1,,,,,,,,
,,,,,,,,,,,,,FF,,,,,,,,1.4843,,,,,,,,,,,,,,,,,,,,,,60fed532bbb4ed34d546fbb8,61037770a2fda8110225306b,2021-07-29_23h20.24.677,Simcolourproject_2stim_asymm_v5,2020.2.10,MacIntel,60,61025ae37ef11b136ea224fe,,,,,,,,,3798,30.86230469,52.31033325,1,0,0,response1disk,,7,25.16210938,10.1428833,1,0,0,rectangle,25.16210938,10.1428833,1,0,0,25.16210938,10.1428833,1,0,0,0,147,147,158,1,,,,,,,,
,,,,,,,,,,,,,FF,,,,,,,,0.5654,,,,,,,,,,,,,,,,,,,,,,60fed532bbb4ed34d546fbb8,61037770a2fda8110225306b,2021-07-29_23h20.24.677,Simcolourproject_2stim_asymm_v5,2020.2.10,MacIntel,60,61025ae37ef11b136ea224fe,,,,,,,,,3738,33.92407227,46.74255371,1,0,0,response1disk,,7,2.347900391,1.621948242,1,0,0,rectangle,2.347900391,1.621948242,1,0,0,2.347900391,1.621948242,1,0,0,0,148,148,28,1,,,,,,,,
,,,,,,,,,,,,,FF,,,,,,,,0.4503,,,,,,,,,,,,,,,,,,,,,,60fed532bbb4ed34d546fbb8,61037770a2fda8110225306b,2021-07-29_23h20.24.677,Simcolourproject_2stim_asymm_v5,2020.2.10,MacIntel,60,61025ae37ef11b136ea224fe,,,,,,,,,3985,27.26025391,40.83618164,1,0,0,response1disk,,7,8.670654297,4.370117188,1,0,0,rectangle,8.670654297,4.370117188,1,0,0,8.670654297,4.370117188,1,0,0,0,149,149,20,1,,,,,,,,
,,,,,,,,,,,,,FF,,,,,,,,0.633,,,,,,,,,,,,,,,,,,,,,,60fed532bbb4ed34d546fbb8,61037770a2fda8110225306b,2021-07-29_23h20.24.677,Simcolourproject_2stim_asymm_v5,2020.2.10,MacIntel,60,61025ae37ef11b136ea224fe,,,,,,,,,3501,39.16790771,53.03381348,1,0,0,response1disk,,7,29.9720459,16.61962891,1,0,0,rectangle,29.9720459,16.61962891,1,0,0,29.9720459,16.61962891,1,0,0,0,150,150,19,1,,,,,,,,
,,,,,,,,,,,,,FF,,,,,,,,0.7668,,,,,,,,,,,,,,,,,,,,,,60fed532bbb4ed34d546fbb8,61037770a2fda8110225306b,2021-07-29_23h20.24.677,Simcolourproject_2stim_asymm_v5,2020.2.10,MacIntel,60,61025ae37ef11b136ea224fe,,,,,,,,,734,70.64068604,38.12866211,1,0,0,response1disk,,6,3.662780762,-5.668945313,1,0,0,rectangle,3.662780762,-5.668945313,1,0,0,3.662780762,-5.668945313,1,0,0,0,151,151,25,1,,,,,,,,
,,,,,,,,,,,,,FF,,,,,,,,0.4505,,,,,,,,,,,,,,,,,,,,,,60fed532bbb4ed34d546fbb8,61037770a2fda8110225306b,2021-07-29_23h20.24.677,Simcolourproject_2stim_asymm_v5,2020.2.10,MacIntel,60,61025ae37ef11b136ea224fe,,,,,,,,,2595,27.99530029,42.6986084,1,0,0,response1disk,,7,21.69122314,12.45471191,1,0,0,rectangle,21.69122314,12.45471191,1,0,0,21.69122314,12.45471191,1,0,0,0,152,152,117,1,,,,,,,,
,,,,,,,,,,,,,FF,,,,,,,,0.4662,,,,,,,,,,,,,,,,,,,,,,60fed532bbb4ed34d546fbb8,61037770a2fda8110225306b,2021-07-29_23h20.24.677,Simcolourproject_2stim_asymm_v5,2020.2.10,MacIntel,60,61025ae37ef11b136ea224fe,,,,,,,,,1264,31.41589355,42.27746582,1,0,0,response1disk,,7,18.5982666,8.128173828,1,0,0,rectangle,18.5982666,8.128173828,1,0,0,18.5982666,8.128173828,1,0,0,0,153,153,33,1,,,,,,,,
,,,,,,,,,,,,,FF,,,,,,,,1.7353,,,,,,,,,,,,,,,,,,,,,,60fed532bbb4ed34d546fbb8,61037770a2fda8110225306b,2021-07-29_23h20.24.677,Simcolourproject_2stim_asymm_v5,2020.2.10,MacIntel,60,61025ae37ef11b136ea224fe,,,,,,,,,2088,43.98138428,27.37384033,1,0,0,response1disk,,6,14.51550293,0.744750977,1,0,0,rectangle,14.51550293,0.744750977,1,0,0,14.51550293,0.744750977,1,0,0,0,154,154,119,1,,,,,,,,
,,,,,,,,,,,,,FF,,,,,,,,0.4163,,,,,,,,,,,,,,,,,,,,,,60fed532bbb4ed34d546fbb8,61037770a2fda8110225306b,2021-07-29_23h20.24.677,Simcolourproject_2stim_asymm_v5,2020.2.10,MacIntel,60,61025ae37ef11b136ea224fe,,,,,,,,,2812,37.85778809,44.78491211,1,0,0,response1disk,,7,23.73706055,6.533630371,1,0,0,rectangle,23.73706055,6.533630371,1,0,0,23.73706055,6.533630371,1,0,0,0,155,155,89,1,,,,,,,,
,,,,,,,,,,,,,FF,,,,,,,,1.0324,,,,,,,,,,,,,,,,,,,,,,60fed532bbb4ed34d546fbb8,61037770a2fda8110225306b,2021-07-29_23h20.24.677,Simcolourproject_2stim_asymm_v5,2020.2.10,MacIntel,60,61025ae37ef11b136ea224fe,,,,,,,,,3265,27.65734863,50.45147705,1,0,0,response1disk,,7,5.96685791,3.130065918,1,0,0,rectangle,5.96685791,3.130065918,1,0,0,5.96685791,3.130065918,1,0,0,0,156,156,86,1,,,,,,,,
,,,,,,,,,,,,,FF,,,,,,,,0.4991,,,,,,,,,,,,,,,,,,,,,,60fed532bbb4ed34d546fbb8,61037770a2fda8110225306b,2021-07-29_23h20.24.677,Simcolourproject_2stim_asymm_v5,2020.2.10,MacIntel,60,61025ae37ef11b136ea224fe,,,,,,,,,1684,50.8828125,35.06817627,1,0,0,response1disk,,6,8.954467773,6.726135254,1,0,0,rectangle,72.77734375,40.50689697,1,0,0,29.62524414,6.103271484,1,0,0,0,157,157,123,1,,response1disk_3,TRUE,6,6,"[283,322,228,134,186,158,274,253,273,266,268,170,183,27,121,142,225,124,35,271]",1.183,rectangle
,,,,,,,,,,,,,FF,,,,,,,,0.9171,,,,,,,,,,,,,,,,,,,,,,60fed532bbb4ed34d546fbb8,61037770a2fda8110225306b,2021-07-29_23h20.24.677,Simcolourproject_2stim_asymm_v5,2020.2.10,MacIntel,60,61025ae37ef11b136ea224fe,,,,,,,,,3919,30.97546387,46.73516846,1,0,0,response1disk,,7,13.75097656,7.62677002,1,0,0,rectangle,13.75097656,7.62677002,1,0,0,13.75097656,7.62677002,1,0,0,0,158,158,113,1,,,,,,,,
,,,,,,,,,,,,,FF,,,,,,,,3.3671,,,,,,,,,,,,,,,,,,,,,,60fed532bbb4ed34d546fbb8,61037770a2fda8110225306b,2021-07-29_23h20.24.677,Simcolourproject_2stim_asymm_v5,2020.2.10,MacIntel,60,61025ae37ef11b136ea224fe,,,,,,,,,1893,67.01000977,-16.79107666,1,0,0,response3disk,,5,19.22729492,-11.04669189,1,0,0,rectangle,19.22729492,-11.04669189,1,0,0,19.22729492,-11.04669189,1,0,0,0,159,159,116,1,,,,,,,,
,,,,,,,,,,,,,FF,,,,,,,,0.4332,,,,,,,,,,,,,,,,,,,,,,60fed532bbb4ed34d546fbb8,61037770a2fda8110225306b,2021-07-29_23h20.24.677,Simcolourproject_2stim_asymm_v5,2020.2.10,MacIntel,60,61025ae37ef11b136ea224fe,,,,,,,,,1174,35.54302979,46.36663818,1,0,0,response1disk,,7,15.86914063,6.530761719,1,0,0,rectangle,15.86914063,6.530761719,1,0,0,15.86914063,6.530761719,1,0,0,1,0,160,137,1,,,,,,,,
,,,,,,,,,,,,,FF,,,,,,,,0.6676,,,,,,,,,,,,,,,,,,,,,,60fed532bbb4ed34d546fbb8,61037770a2fda8110225306b,2021-07-29_23h20.24.677,Simcolourproject_2stim_asymm_v5,2020.2.10,MacIntel,60,61025ae37ef11b136ea224fe,,,,,,,,,2823,54.4510498,14.57354736,1,0,0,response1disk,,6,-0.101806641,-15.77600098,1,0,0,rectangle,-0.101806641,-15.77600098,1,0,0,-0.101806641,-15.77600098,1,0,0,1,1,161,41,1,,,,,,,,
,,,,,,,,,,,,,FF,,,,,,,,1.2505,,,,,,,,,,,,,,,,,,,,,,60fed532bbb4ed34d546fbb8,61037770a2fda8110225306b,2021-07-29_23h20.24.677,Simcolourproject_2stim_asymm_v5,2020.2.10,MacIntel,60,61025ae37ef11b136ea224fe,,,,,,,,,3556,30.94763184,53.00183105,1,0,0,response1disk,,7,5.992675781,12.95135498,1,0,0,rectangle,5.992675781,12.95135498,1,0,0,5.992675781,12.95135498,1,0,0,1,2,162,33,1,,,,,,,,
,,,,,,,,,,,,,FF,,,,,,,,0.6828,,,,,,,,,,,,,,,,,,,,,,60fed532bbb4ed34d546fbb8,61037770a2fda8110225306b,2021-07-29_23h20.24.677,Simcolourproject_2stim_asymm_v5,2020.2.10,MacIntel,60,61025ae37ef11b136ea224fe,,,,,,,,,1939,33.25891113,59.38726807,1,0,0,response1disk,,7,16.72515869,4.323120117,1,0,0,rectangle,16.72515869,4.323120117,1,0,0,16.72515869,4.323120117,1,0,0,1,3,163,116,1,,,,,,,,
,,,,,,,,,,,,,FF,,,,,,,,0.7484,,,,,,,,,,,,,,,,,,,,,,60fed532bbb4ed34d546fbb8,61037770a2fda8110225306b,2021-07-29_23h20.24.677,Simcolourproject_2stim_asymm_v5,2020.2.10,MacIntel,60,61025ae37ef11b136ea224fe,,,,,,,,,3953,52.83789063,27.44616699,1,0,0,response1disk,,6,10.45074463,-10.31652832,1,0,0,rectangle,10.45074463,-10.31652832,1,0,0,10.45074463,-10.31652832,1,0,0,1,4,164,107,1,,,,,,,,
,,,,,,,,,,,,,FF,,,,,,,,0.9322,,,,,,,,,,,,,,,,,,,,,,60fed532bbb4ed34d546fbb8,61037770a2fda8110225306b,2021-07-29_23h20.24.677,Simcolourproject_2stim_asymm_v5,2020.2.10,MacIntel,60,61025ae37ef11b136ea224fe,,,,,,,,,2262,30.00970459,37.49346924,1,0,0,response1disk,,7,10.26361084,7.716125488,1,0,0,rectangle,10.26361084,7.716125488,1,0,0,10.26361084,7.716125488,1,0,0,1,5,165,63,1,,,,,,,,
,,,,,,,,,,,,,FF,,,,,,,,0.5502,,,,,,,,,,,,,,,,,,,,,,60fed532bbb4ed34d546fbb8,61037770a2fda8110225306b,2021-07-29_23h20.24.677,Simcolourproject_2stim_asymm_v5,2020.2.10,MacIntel,60,61025ae37ef11b136ea224fe,,,,,,,,,509,36.49835205,54.22070313,1,0,0,response1disk,,7,6.837280273,8.510437012,1,0,0,rectangle,6.837280273,8.510437012,1,0,0,6.837280273,8.510437012,1,0,0,1,6,166,58,1,,,,,,,,
,,,,,,,,,,,,,FF,,,,,,,,1.1832,,,,,,,,,,,,,,,,,,,,,,60fed532bbb4ed34d546fbb8,61037770a2fda8110225306b,2021-07-29_23h20.24.677,Simcolourproject_2stim_asymm_v5,2020.2.10,MacIntel,60,61025ae37ef11b136ea224fe,,,,,,,,,1534,47.45922852,-21.93261719,1,0,0,response3disk,,5,0.355102539,-0.680297852,1,0,0,rectangle,0.355102539,-0.680297852,1,0,0,0.355102539,-0.680297852,1,0,0,1,7,167,89,1,,,,,,,,
,,,,,,,,,,,,,FF,,,,,,,,0.9158,,,,,,,,,,,,,,,,,,,,,,60fed532bbb4ed34d546fbb8,61037770a2fda8110225306b,2021-07-29_23h20.24.677,Simcolourproject_2stim_asymm_v5,2020.2.10,MacIntel,60,61025ae37ef11b136ea224fe,,,,,,,,,299,38.72570801,58.26983643,1,0,0,response1disk,,7,23.35162354,16.65344238,1,0,0,rectangle,23.35162354,16.65344238,1,0,0,23.35162354,16.65344238,1,0,0,1,8,168,130,1,,,,,,,,
,,,,,,,,,,,,,FF,,,,,,,,0.433,,,,,,,,,,,,,,,,,,,,,,60fed532bbb4ed34d546fbb8,61037770a2fda8110225306b,2021-07-29_23h20.24.677,Simcolourproject_2stim_asymm_v5,2020.2.10,MacIntel,60,61025ae37ef11b136ea224fe,,,,,,,,,1936,39.02722168,62.8470459,1,0,0,response1disk,,7,2.361572266,5.674682617,1,0,0,rectangle,-39.12347412,71.66278076,1,0,0,-6.098388672,0.987609863,1,0,0,1,9,169,150,1,,response7disk_3,TRUE,0,0,"[283,322,228,134,186,158,274,253,273,266,268,170,183,27,121,142,225,124,35,271]",1.2323,rectangle
,,,,,,,,,,,,,FF,,,,,,,,0.6664,,,,,,,,,,,,,,,,,,,,,,60fed532bbb4ed34d546fbb8,61037770a2fda8110225306b,2021-07-29_23h20.24.677,Simcolourproject_2stim_asymm_v5,2020.2.10,MacIntel,60,61025ae37ef11b136ea224fe,,,,,,,,,2629,31.3449707,71.40228271,1,0,0,response1disk,,7,13.16192627,2.658935547,1,0,0,rectangle,13.16192627,2.658935547,1,0,0,13.16192627,2.658935547,1,0,0,1,10,170,101,1,,,,,,,,
,,,,,,,,,,,,,FF,,,,,,,,1.0166,,,,,,,,,,,,,,,,,,,,,,60fed532bbb4ed34d546fbb8,61037770a2fda8110225306b,2021-07-29_23h20.24.677,Simcolourproject_2stim_asymm_v5,2020.2.10,MacIntel,60,61025ae37ef11b136ea224fe,,,,,,,,,1133,43.46008301,27.72515869,1,0,0,response1disk,,6,3.207458496,3.322753906,1,0,0,rectangle,3.207458496,3.322753906,1,0,0,3.207458496,3.322753906,1,0,0,1,11,171,81,1,,,,,,,,
,,,,,,,,,,,,,FF,,,,,,,,1.167,,,,,,,,,,,,,,,,,,,,,,60fed532bbb4ed34d546fbb8,61037770a2fda8110225306b,2021-07-29_23h20.24.677,Simcolourproject_2stim_asymm_v5,2020.2.10,MacIntel,60,61025ae37ef11b136ea224fe,,,,,,,,,1538,50.24298096,32.3916626,1,0,0,response1disk,,6,1.883972168,16.84741211,1,0,0,rectangle,1.883972168,16.84741211,1,0,0,1.883972168,16.84741211,1,0,0,1,12,172,86,1,,,,,,,,
,,,,,,,,,,,,,FF,,,,,,,,0.7338,,,,,,,,,,,,,,,,,,,,,,60fed532bbb4ed34d546fbb8,61037770a2fda8110225306b,2021-07-29_23h20.24.677,Simcolourproject_2stim_asymm_v5,2020.2.10,MacIntel,60,61025ae37ef11b136ea224fe,,,,,,,,,15,59.21142578,35.43371582,1,0,0,response1disk,,6,4.068115234,-12.88763428,1,0,0,rectangle,4.068115234,-12.88763428,1,0,0,4.068115234,-12.88763428,1,0,0,1,13,173,7,1,,,,,,,,
,,,,,,,,,,,,,FF,,,,,,,,0.698,,,,,,,,,,,,,,,,,,,,,,60fed532bbb4ed34d546fbb8,61037770a2fda8110225306b,2021-07-29_23h20.24.677,Simcolourproject_2stim_asymm_v5,2020.2.10,MacIntel,60,61025ae37ef11b136ea224fe,,,,,,,,,3144,34.82952881,57.37576294,1,0,0,response1disk,,7,4.772888184,-5.594970703,1,0,0,rectangle,4.772888184,-5.594970703,1,0,0,4.772888184,-5.594970703,1,0,0,1,14,174,64,1,,,,,,,,
,,,,,,,,,,,,,FF,,,,,,,,2.0155,,,,,,,,,,,,,,,,,,,,,,60fed532bbb4ed34d546fbb8,61037770a2fda8110225306b,2021-07-29_23h20.24.677,Simcolourproject_2stim_asymm_v5,2020.2.10,MacIntel,60,61025ae37ef11b136ea224fe,,,,,,,,,620,-14.77996826,-66.26416016,1,0,0,response5disk,,3,-13.27526855,-0.55078125,1,0,0,rectangle,-13.27526855,-0.55078125,1,0,0,-13.27526855,-0.55078125,1,0,0,1,15,175,14,1,,,,,,,,
,,,,,,,,,,,,,FF,,,,,,,,0.4003,,,,,,,,,,,,,,,,,,,,,,60fed532bbb4ed34d546fbb8,61037770a2fda8110225306b,2021-07-29_23h20.24.677,Simcolourproject_2stim_asymm_v5,2020.2.10,MacIntel,60,61025ae37ef11b136ea224fe,,,,,,,,,177,52.03302002,74.28399658,1,0,0,response1disk,,7,23.46264648,13.01867676,1,0,0,rectangle,23.46264648,13.01867676,1,0,0,23.46264648,13.01867676,1,0,0,1,16,176,11,1,,,,,,,,
,,,,,,,,,,,,,FF,,,,,,,,0.9508,,,,,,,,,,,,,,,,,,,,,,60fed532bbb4ed34d546fbb8,61037770a2fda8110225306b,2021-07-29_23h20.24.677,Simcolourproject_2stim_asymm_v5,2020.2.10,MacIntel,60,61025ae37ef11b136ea224fe,,,,,,,,,3059,50.79193115,23.65625,1,0,0,response1disk,,6,11.78515625,-1.097900391,1,0,0,rectangle,11.78515625,-1.097900391,1,0,0,11.78515625,-1.097900391,1,0,0,1,17,177,15,1,,,,,,,,
,,,,,,,,,,,,,FF,,,,,,,,0.9501,,,,,,,,,,,,,,,,,,,,,,60fed532bbb4ed34d546fbb8,61037770a2fda8110225306b,2021-07-29_23h20.24.677,Simcolourproject_2stim_asymm_v5,2020.2.10,MacIntel,60,61025ae37ef11b136ea224fe,,,,,,,,,4317,28.95684814,42.61138916,1,0,0,response1disk,,7,0.051391602,2.279174805,1,0,0,rectangle,0.051391602,2.279174805,1,0,0,0.051391602,2.279174805,1,0,0,1,18,178,43,1,,,,,,,,
,,,,,,,,,,,,,FF,,,,,,,,0.6996,,,,,,,,,,,,,,,,,,,,,,60fed532bbb4ed34d546fbb8,61037770a2fda8110225306b,2021-07-29_23h20.24.677,Simcolourproject_2stim_asymm_v5,2020.2.10,MacIntel,60,61025ae37ef11b136ea224fe,,,,,,,,,2348,46.40997314,54.38922119,1,0,0,response1disk,,7,9.324035645,2.689819336,1,0,0,rectangle,9.324035645,2.689819336,1,0,0,9.324035645,2.689819336,1,0,0,1,19,179,49,1,,,,,,,,
,,,,,,,,,,,,,FF,,,,,,,,1.7664,,,,,,,,,,,,,,,,,,,,,,60fed532bbb4ed34d546fbb8,61037770a2fda8110225306b,2021-07-29_23h20.24.677,Simcolourproject_2stim_asymm_v5,2020.2.10,MacIntel,60,61025ae37ef11b136ea224fe,,,,,,,,,3663,64.25994873,23.38989258,1,0,0,response1disk,,6,20.04833984,4.294494629,1,0,0,rectangle,20.04833984,4.294494629,1,0,0,20.04833984,4.294494629,1,0,0,1,20,180,88,1,,,,,,,,
,,,,,,,,,,,,,FF,,,,,,,,0.5005,,,,,,,,,,,,,,,,,,,,,,60fed532bbb4ed34d546fbb8,61037770a2fda8110225306b,2021-07-29_23h20.24.677,Simcolourproject_2stim_asymm_v5,2020.2.10,MacIntel,60,61025ae37ef11b136ea224fe,,,,,,,,,1801,14.17614746,76.13702393,1,0,0,response1disk,,7,3.930175781,5.198852539,1,0,0,rectangle,3.930175781,5.198852539,1,0,0,3.930175781,5.198852539,1,0,0,1,21,181,66,1,,,,,,,,
,,,,,,,,,,,,,FF,,,,,,,,1.6849,,,,,,,,,,,,,,,,,,,,,,60fed532bbb4ed34d546fbb8,61037770a2fda8110225306b,2021-07-29_23h20.24.677,Simcolourproject_2stim_asymm_v5,2020.2.10,MacIntel,60,61025ae37ef11b136ea224fe,,,,,,,,,1369,62.12963867,-37.28112793,1,0,0,response3disk,,5,29.01940918,-2.859863281,1,0,0,rectangle,-29.82244873,-70.69128418,1,0,0,-9.53692627,-10.86352539,1,0,0,1,22,182,21,1,,response5disk_3,TRUE,3,3,"[283,322,228,134,186,158,274,253,273,266,268,170,183,27,121,142,225,124,35,271]",1.549,rectangle
,,,,,,,,,,,,,FF,,,,,,,,0.55,,,,,,,,,,,,,,,,,,,,,,60fed532bbb4ed34d546fbb8,61037770a2fda8110225306b,2021-07-29_23h20.24.677,Simcolourproject_2stim_asymm_v5,2020.2.10,MacIntel,60,61025ae37ef11b136ea224fe,,,,,,,,,1648,17.29284668,43.75,1,0,0,response1disk,,7,-1.052124023,5.918518066,1,0,0,rectangle,-1.052124023,5.918518066,1,0,0,-1.052124023,5.918518066,1,0,0,1,23,183,24,1,,,,,,,,
,,,,,,,,,,,,,FF,,,,,,,,1.6499,,,,,,,,,,,,,,,,,,,,,,60fed532bbb4ed34d546fbb8,61037770a2fda8110225306b,2021-07-29_23h20.24.677,Simcolourproject_2stim_asymm_v5,2020.2.10,MacIntel,60,61025ae37ef11b136ea224fe,,,,,,,,,1455,30.57269287,-53.26403809,1,0,0,response3disk,,4,9.561645508,2.528747559,1,0,0,rectangle,9.561645508,2.528747559,1,0,0,9.561645508,2.528747559,1,0,0,1,24,184,110,1,,,,,,,,
,,,,,,,,,,,,,FF,,,,,,,,1.0849,,,,,,,,,,,,,,,,,,,,,,60fed532bbb4ed34d546fbb8,61037770a2fda8110225306b,2021-07-29_23h20.24.677,Simcolourproject_2stim_asymm_v5,2020.2.10,MacIntel,60,61025ae37ef11b136ea224fe,,,,,,,,,1375,24.15838623,-46.81085205,1,0,0,response3disk,,4,10.9755249,-1.634460449,1,0,0,rectangle,21.84393311,-64.03790283,1,0,0,7.240661621,-7.529418945,1,0,0,1,25,185,117,1,,response3disk_3,TRUE,4,4,"[283,322,228,134,186,158,274,253,273,266,268,170,183,27,121,142,225,124,35,271]",1.6662,rectangle
,,,,,,,,,,,,,FF,,,,,,,,1.1001,,,,,,,,,,,,,,,,,,,,,,60fed532bbb4ed34d546fbb8,61037770a2fda8110225306b,2021-07-29_23h20.24.677,Simcolourproject_2stim_asymm_v5,2020.2.10,MacIntel,60,61025ae37ef11b136ea224fe,,,,,,,,,606,41.55474854,33.39013672,1,0,0,response1disk,,6,12.23547363,-17.8704834,1,0,0,rectangle,12.23547363,-17.8704834,1,0,0,12.23547363,-17.8704834,1,0,0,1,26,186,120,1,,,,,,,,
,,,,,,,,,,,,,FF,,,,,,,,0.9506,,,,,,,,,,,,,,,,,,,,,,60fed532bbb4ed34d546fbb8,61037770a2fda8110225306b,2021-07-29_23h20.24.677,Simcolourproject_2stim_asymm_v5,2020.2.10,MacIntel,60,61025ae37ef11b136ea224fe,,,,,,,,,2055,47.71179199,-30.20721436,1,0,0,response3disk,,5,20.99041748,-2.733947754,1,0,0,rectangle,20.99041748,-2.733947754,1,0,0,20.99041748,-2.733947754,1,0,0,1,27,187,44,1,,,,,,,,
,,,,,,,,,,,,,FF,,,,,,,,0.3672,,,,,,,,,,,,,,,,,,,,,,60fed532bbb4ed34d546fbb8,61037770a2fda8110225306b,2021-07-29_23h20.24.677,Simcolourproject_2stim_asymm_v5,2020.2.10,MacIntel,60,61025ae37ef11b136ea224fe,,,,,,,,,3216,33.04724121,60.40270996,1,0,0,response1disk,,7,8.866516113,6.15222168,1,0,0,rectangle,8.866516113,6.15222168,1,0,0,8.866516113,6.15222168,1,0,0,1,28,188,19,1,,,,,,,,
,,,,,,,,,,,,,FF,,,,,,,,0.4833,,,,,,,,,,,,,,,,,,,,,,60fed532bbb4ed34d546fbb8,61037770a2fda8110225306b,2021-07-29_23h20.24.677,Simcolourproject_2stim_asymm_v5,2020.2.10,MacIntel,60,61025ae37ef11b136ea224fe,,,,,,,,,2807,34.43286133,48.81033325,1,0,0,response1disk,,7,11.39849854,19.78778076,1,0,0,rectangle,11.39849854,19.78778076,1,0,0,11.39849854,19.78778076,1,0,0,1,29,189,42,1,,,,,,,,
,,,,,,,,,,,,,FF,,,,,,,,1.0014,,,,,,,,,,,,,,,,,,,,,,60fed532bbb4ed34d546fbb8,61037770a2fda8110225306b,2021-07-29_23h20.24.677,Simcolourproject_2stim_asymm_v5,2020.2.10,MacIntel,60,61025ae37ef11b136ea224fe,,,,,,,,,3510,-29.11096191,53.81420898,1,0,0,response7disk,,0,-20.3069458,1.159362793,1,0,0,rectangle,-20.3069458,1.159362793,1,0,0,-20.3069458,1.159362793,1,0,0,1,30,190,143,1,,,,,,,,
,,,,,,,,,,,,,FF,,,,,,,,0.4511,,,,,,,,,,,,,,,,,,,,,,60fed532bbb4ed34d546fbb8,61037770a2fda8110225306b,2021-07-29_23h20.24.677,Simcolourproject_2stim_asymm_v5,2020.2.10,MacIntel,60,61025ae37ef11b136ea224fe,,,,,,,,,979,29.3326416,58.91705322,1,0,0,response1disk,,7,12.97875977,21.53125,1,0,0,rectangle,12.97875977,21.53125,1,0,0,12.97875977,21.53125,1,0,0,1,31,191,151,1,,,,,,,,
,,,,,,,,,,,,,FF,,,,,,,,0.3843,,,,,,,,,,,,,,,,,,,,,,60fed532bbb4ed34d546fbb8,61037770a2fda8110225306b,2021-07-29_23h20.24.677,Simcolourproject_2stim_asymm_v5,2020.2.10,MacIntel,60,61025ae37ef11b136ea224fe,,,,,,,,,1167,30.22949219,47.06115723,1,0,0,response1disk,,7,10.66235352,14.40161133,1,0,0,rectangle,10.66235352,14.40161133,1,0,0,10.66235352,14.40161133,1,0,0,1,32,192,23,1,,,,,,,,
,,,,,,,,,,,,,FF,,,,,,,,0.4996,,,,,,,,,,,,,,,,,,,,,,60fed532bbb4ed34d546fbb8,61037770a2fda8110225306b,2021-07-29_23h20.24.677,Simcolourproject_2stim_asymm_v5,2020.2.10,MacIntel,60,61025ae37ef11b136ea224fe,,,,,,,,,1080,35.41619873,47.05407715,1,0,0,response1disk,,7,8.045715332,6.71875,1,0,0,rectangle,8.045715332,6.71875,1,0,0,8.045715332,6.71875,1,0,0,1,33,193,129,1,,,,,,,,
,,,,,,,,,,,,,FF,,,,,,,,0.7498,,,,,,,,,,,,,,,,,,,,,,60fed532bbb4ed34d546fbb8,61037770a2fda8110225306b,2021-07-29_23h20.24.677,Simcolourproject_2stim_asymm_v5,2020.2.10,MacIntel,60,61025ae37ef11b136ea224fe,,,,,,,,,976,37.7434082,-26.01422119,1,0,0,response3disk,,5,1.566589355,2.450256348,1,0,0,rectangle,1.566589355,2.450256348,1,0,0,1.566589355,2.450256348,1,0,0,1,34,194,94,1,,,,,,,,
,,,,,,,,,,,,,FF,,,,,,,,0.8659,,,,,,,,,,,,,,,,,,,,,,60fed532bbb4ed34d546fbb8,61037770a2fda8110225306b,2021-07-29_23h20.24.677,Simcolourproject_2stim_asymm_v5,2020.2.10,MacIntel,60,61025ae37ef11b136ea224fe,,,,,,,,,3328,56.25469971,-29.05822754,1,0,0,response3disk,,5,23.68505859,-6.297973633,1,0,0,rectangle,23.68505859,-6.297973633,1,0,0,23.68505859,-6.297973633,1,0,0,1,35,195,35,1,,,,,,,,
,,,,,,,,,,,,,FF,,,,,,,,0.7662,,,,,,,,,,,,,,,,,,,,,,60fed532bbb4ed34d546fbb8,61037770a2fda8110225306b,2021-07-29_23h20.24.677,Simcolourproject_2stim_asymm_v5,2020.2.10,MacIntel,60,61025ae37ef11b136ea224fe,,,,,,,,,870,63.71868896,32.09448242,1,0,0,response1disk,,6,21.73144531,4.681884766,1,0,0,rectangle,21.73144531,4.681884766,1,0,0,21.73144531,4.681884766,1,0,0,1,36,196,141,1,,,,,,,,
,,,,,,,,,,,,,FF,,,,,,,,0.616,,,,,,,,,,,,,,,,,,,,,,60fed532bbb4ed34d546fbb8,61037770a2fda8110225306b,2021-07-29_23h20.24.677,Simcolourproject_2stim_asymm_v5,2020.2.10,MacIntel,60,61025ae37ef11b136ea224fe,,,,,,,,,381,39.12512207,56.38299561,1,0,0,response1disk,,7,22.98352051,4.79284668,1,0,0,rectangle,22.98352051,4.79284668,1,0,0,22.98352051,4.79284668,1,0,0,1,37,197,133,1,,,,,,,,
,,,,,,,,,,,,,FF,,,,,,,,0.7483,,,,,,,,,,,,,,,,,,,,,,60fed532bbb4ed34d546fbb8,61037770a2fda8110225306b,2021-07-29_23h20.24.677,Simcolourproject_2stim_asymm_v5,2020.2.10,MacIntel,60,61025ae37ef11b136ea224fe,,,,,,,,,4074,31.75073242,35.54711914,1,0,0,response1disk,,7,19.10943604,5.231445313,1,0,0,rectangle,19.10943604,5.231445313,1,0,0,19.10943604,5.231445313,1,0,0,1,38,198,153,1,,,,,,,,
,,,,,,,,,,,,,FF,,,,,,,,0.7478,,,,,,,,,,,,,,,,,,,,,,60fed532bbb4ed34d546fbb8,61037770a2fda8110225306b,2021-07-29_23h20.24.677,Simcolourproject_2stim_asymm_v5,2020.2.10,MacIntel,60,61025ae37ef11b136ea224fe,,,,,,,,,829,64.96557617,34.50280762,1,0,0,response1disk,,6,39.03894043,7.637939453,1,0,0,rectangle,39.03894043,7.637939453,1,0,0,39.03894043,7.637939453,1,0,0,1,39,199,82,1,,,,,,,,
,,,,,,,,,,,,,FF,,,,,,,,0.5165,,,,,,,,,,,,,,,,,,,,,,60fed532bbb4ed34d546fbb8,61037770a2fda8110225306b,2021-07-29_23h20.24.677,Simcolourproject_2stim_asymm_v5,2020.2.10,MacIntel,60,61025ae37ef11b136ea224fe,,,,,,,,,1325,35.46740723,41.39532471,1,0,0,response1disk,,7,15.25231934,-1.029907227,1,0,0,rectangle,15.25231934,-1.029907227,1,0,0,15.25231934,-1.029907227,1,0,0,1,40,200,71,1,,,,,,,,
,,,,,,,,,,,,,FF,,,,,,,,0.6164,,,,,,,,,,,,,,,,,,,,,,60fed532bbb4ed34d546fbb8,61037770a2fda8110225306b,2021-07-29_23h20.24.677,Simcolourproject_2stim_asymm_v5,2020.2.10,MacIntel,60,61025ae37ef11b136ea224fe,,,,,,,,,1569,24.93963623,43.4901123,1,0,0,response1disk,,7,10.9753418,4.598266602,1,0,0,rectangle,10.9753418,4.598266602,1,0,0,10.9753418,4.598266602,1,0,0,1,41,201,90,1,,,,,,,,
,,,,,,,,,,,,,FF,,,,,,,,0.7496,,,,,,,,,,,,,,,,,,,,,,60fed532bbb4ed34d546fbb8,61037770a2fda8110225306b,2021-07-29_23h20.24.677,Simcolourproject_2stim_asymm_v5,2020.2.10,MacIntel,60,61025ae37ef11b136ea224fe,,,,,,,,,1065,44.73608398,-22.86584473,1,0,0,response3disk,,5,-2.493774414,-8.517211914,1,0,0,rectangle,-2.493774414,-8.517211914,1,0,0,-2.493774414,-8.517211914,1,0,0,1,42,202,87,1,,,,,,,,
,,,,,,,,,,,,,FF,,,,,,,,0.6164,,,,,,,,,,,,,,,,,,,,,,60fed532bbb4ed34d546fbb8,61037770a2fda8110225306b,2021-07-29_23h20.24.677,Simcolourproject_2stim_asymm_v5,2020.2.10,MacIntel,60,61025ae37ef11b136ea224fe,,,,,,,,,749,46.66162109,39.9173584,1,0,0,response1disk,,6,9.176452637,10.68292236,1,0,0,rectangle,9.176452637,10.68292236,1,0,0,9.176452637,10.68292236,1,0,0,1,43,203,60,1,,,,,,,,
,,,,,,,,,,,,,FF,,,,,,,,0.5999,,,,,,,,,,,,,,,,,,,,,,60fed532bbb4ed34d546fbb8,61037770a2fda8110225306b,2021-07-29_23h20.24.677,Simcolourproject_2stim_asymm_v5,2020.2.10,MacIntel,60,61025ae37ef11b136ea224fe,,,,,,,,,417,34.81152344,53.88427734,1,0,0,response1disk,,7,22.68048096,18.54968262,1,0,0,rectangle,22.68048096,18.54968262,1,0,0,22.68048096,18.54968262,1,0,0,1,44,204,51,1,,,,,,,,
,,,,,,,,,,,,,FF,,,,,,,,0.7505,,,,,,,,,,,,,,,,,,,,,,60fed532bbb4ed34d546fbb8,61037770a2fda8110225306b,2021-07-29_23h20.24.677,Simcolourproject_2stim_asymm_v5,2020.2.10,MacIntel,60,61025ae37ef11b136ea224fe,,,,,,,,,3951,54.76879883,29.40246582,1,0,0,response1disk,,6,8.504089355,4.4296875,1,0,0,rectangle,8.504089355,4.4296875,1,0,0,8.504089355,4.4296875,1,0,0,1,45,205,59,1,,,,,,,,
,,,,,,,,,,,,,FF,,,,,,,,0.5831,,,,,,,,,,,,,,,,,,,,,,60fed532bbb4ed34d546fbb8,61037770a2fda8110225306b,2021-07-29_23h20.24.677,Simcolourproject_2stim_asymm_v5,2020.2.10,MacIntel,60,61025ae37ef11b136ea224fe,,,,,,,,,3530,30.12103271,42.27856445,1,0,0,response1disk,,7,12.66851807,16.04699707,1,0,0,rectangle,12.66851807,16.04699707,1,0,0,12.66851807,16.04699707,1,0,0,1,46,206,5,1,,,,,,,,
,,,,,,,,,,,,,FF,,,,,,,,0.5833,,,,,,,,,,,,,,,,,,,,,,60fed532bbb4ed34d546fbb8,61037770a2fda8110225306b,2021-07-29_23h20.24.677,Simcolourproject_2stim_asymm_v5,2020.2.10,MacIntel,60,61025ae37ef11b136ea224fe,,,,,,,,,4275,29.8515625,38.98962402,1,0,0,response1disk,,7,15.81945801,5.869506836,1,0,0,rectangle,15.81945801,5.869506836,1,0,0,15.81945801,5.869506836,1,0,0,1,47,207,48,1,,,,,,,,
,,,,,,,,,,,,,FF,,,,,,,,0.5995,,,,,,,,,,,,,,,,,,,,,,60fed532bbb4ed34d546fbb8,61037770a2fda8110225306b,2021-07-29_23h20.24.677,Simcolourproject_2stim_asymm_v5,2020.2.10,MacIntel,60,61025ae37ef11b136ea224fe,,,,,,,,,370,53.36474609,30.34686279,1,0,0,response1disk,,6,20.15515137,11.61334229,1,0,0,rectangle,20.15515137,11.61334229,1,0,0,20.15515137,11.61334229,1,0,0,1,48,208,134,1,,,,,,,,
,,,,,,,,,,,,,FF,,,,,,,,0.4168,,,,,,,,,,,,,,,,,,,,,,60fed532bbb4ed34d546fbb8,61037770a2fda8110225306b,2021-07-29_23h20.24.677,Simcolourproject_2stim_asymm_v5,2020.2.10,MacIntel,60,61025ae37ef11b136ea224fe,,,,,,,,,2145,42.15283203,69.58337402,1,0,0,response1disk,,7,16.90539551,12.00610352,1,0,0,rectangle,16.90539551,12.00610352,1,0,0,16.90539551,12.00610352,1,0,0,1,49,209,96,1,,,,,,,,
,,,,,,,,,,,,,FF,,,,,,,,0.6312,,,,,,,,,,,,,,,,,,,,,,60fed532bbb4ed34d546fbb8,61037770a2fda8110225306b,2021-07-29_23h20.24.677,Simcolourproject_2stim_asymm_v5,2020.2.10,MacIntel,60,61025ae37ef11b136ea224fe,,,,,,,,,3962,32.95349121,53.10107422,1,0,0,response1disk,,7,11.90509033,15.75799561,1,0,0,rectangle,11.90509033,15.75799561,1,0,0,11.90509033,15.75799561,1,0,0,1,50,210,78,1,,,,,,,,
,,,,,,,,,,,,,FF,,,,,,,,1.2163,,,,,,,,,,,,,,,,,,,,,,60fed532bbb4ed34d546fbb8,61037770a2fda8110225306b,2021-07-29_23h20.24.677,Simcolourproject_2stim_asymm_v5,2020.2.10,MacIntel,60,61025ae37ef11b136ea224fe,,,,,,,,,4129,55.53942871,30.68133545,1,0,0,response1disk,,6,17.92077637,4.577148438,1,0,0,rectangle,17.92077637,4.577148438,1,0,0,17.92077637,4.577148438,1,0,0,1,51,211,159,1,,,,,,,,
,,,,,,,,,,,,,FF,,,,,,,,1.4833,,,,,,,,,,,,,,,,,,,,,,60fed532bbb4ed34d546fbb8,61037770a2fda8110225306b,2021-07-29_23h20.24.677,Simcolourproject_2stim_asymm_v5,2020.2.10,MacIntel,60,61025ae37ef11b136ea224fe,,,,,,,,,483,42.03039551,25.30993652,1,0,0,response1disk,,6,10.84197998,7.486999512,1,0,0,rectangle,10.84197998,7.486999512,1,0,0,10.84197998,7.486999512,1,0,0,1,52,212,113,1,,,,,,,,
,,,,,,,,,,,,,FF,,,,,,,,1.5331,,,,,,,,,,,,,,,,,,,,,,60fed532bbb4ed34d546fbb8,61037770a2fda8110225306b,2021-07-29_23h20.24.677,Simcolourproject_2stim_asymm_v5,2020.2.10,MacIntel,60,61025ae37ef11b136ea224fe,,,,,,,,,2218,36.71276855,57.26519775,1,0,0,response1disk,,7,13.60028076,8.910522461,1,0,0,rectangle,13.60028076,8.910522461,1,0,0,13.60028076,8.910522461,1,0,0,1,53,213,138,1,,,,,,,,
,,,,,,,,,,,,,FF,,,,,,,,0.8163,,,,,,,,,,,,,,,,,,,,,,60fed532bbb4ed34d546fbb8,61037770a2fda8110225306b,2021-07-29_23h20.24.677,Simcolourproject_2stim_asymm_v5,2020.2.10,MacIntel,60,61025ae37ef11b136ea224fe,,,,,,,,,2064,23.49090576,45.3170166,1,0,0,response1disk,,7,11.33044434,0.300720215,1,0,0,rectangle,11.33044434,0.300720215,1,0,0,11.33044434,0.300720215,1,0,0,1,54,214,30,1,,,,,,,,
,,,,,,,,,,,,,FF,,,,,,,,0.5659,,,,,,,,,,,,,,,,,,,,,,60fed532bbb4ed34d546fbb8,61037770a2fda8110225306b,2021-07-29_23h20.24.677,Simcolourproject_2stim_asymm_v5,2020.2.10,MacIntel,60,61025ae37ef11b136ea224fe,,,,,,,,,2979,24.50115967,54.55203247,1,0,0,response1disk,,7,5.164245605,10.62640381,1,0,0,rectangle,5.164245605,10.62640381,1,0,0,5.164245605,10.62640381,1,0,0,1,55,215,22,1,,,,,,,,
,,,,,,,,,,,,,FF,,,,,,,,0.567,,,,,,,,,,,,,,,,,,,,,,60fed532bbb4ed34d546fbb8,61037770a2fda8110225306b,2021-07-29_23h20.24.677,Simcolourproject_2stim_asymm_v5,2020.2.10,MacIntel,60,61025ae37ef11b136ea224fe,,,,,,,,,1848,46.10119629,16.57788086,1,0,0,response1disk,,6,11.63061523,-5.97668457,1,0,0,rectangle,11.63061523,-5.97668457,1,0,0,11.63061523,-5.97668457,1,0,0,1,56,216,142,1,,,,,,,,
,,,,,,,,,,,,,FF,,,,,,,,0.4837,,,,,,,,,,,,,,,,,,,,,,60fed532bbb4ed34d546fbb8,61037770a2fda8110225306b,2021-07-29_23h20.24.677,Simcolourproject_2stim_asymm_v5,2020.2.10,MacIntel,60,61025ae37ef11b136ea224fe,,,,,,,,,2578,32.79174805,48.70898438,1,0,0,response1disk,,7,7.829101563,8.18737793,1,0,0,rectangle,7.829101563,8.18737793,1,0,0,7.829101563,8.18737793,1,0,0,1,57,217,69,1,,,,,,,,
,,,,,,,,,,,,,FF,,,,,,,,0.484,,,,,,,,,,,,,,,,,,,,,,60fed532bbb4ed34d546fbb8,61037770a2fda8110225306b,2021-07-29_23h20.24.677,Simcolourproject_2stim_asymm_v5,2020.2.10,MacIntel,60,61025ae37ef11b136ea224fe,,,,,,,,,1560,32.74176025,47.14117432,1,0,0,response1disk,,7,25.74304199,22.19110107,1,0,0,rectangle,25.74304199,22.19110107,1,0,0,25.74304199,22.19110107,1,0,0,1,58,218,76,1,,,,,,,,
,,,,,,,,,,,,,FF,,,,,,,,0.6341,,,,,,,,,,,,,,,,,,,,,,60fed532bbb4ed34d546fbb8,61037770a2fda8110225306b,2021-07-29_23h20.24.677,Simcolourproject_2stim_asymm_v5,2020.2.10,MacIntel,60,61025ae37ef11b136ea224fe,,,,,,,,,1511,54.48126221,31.26641846,1,0,0,response1disk,,6,14.35003662,-9.030456543,1,0,0,rectangle,14.35003662,-9.030456543,1,0,0,14.35003662,-9.030456543,1,0,0,1,59,219,115,1,,,,,,,,
,,,,,,,,,,,,,FF,,,,,,,,0.3673,,,,,,,,,,,,,,,,,,,,,,60fed532bbb4ed34d546fbb8,61037770a2fda8110225306b,2021-07-29_23h20.24.677,Simcolourproject_2stim_asymm_v5,2020.2.10,MacIntel,60,61025ae37ef11b136ea224fe,,,,,,,,,714,35.46435547,50.04022217,1,0,0,response1disk,,7,15.05505371,3.813720703,1,0,0,rectangle,15.05505371,3.813720703,1,0,0,15.05505371,3.813720703,1,0,0,1,60,220,34,1,,,,,,,,
,,,,,,,,,,,,,FF,,,,,,,,0.7166,,,,,,,,,,,,,,,,,,,,,,60fed532bbb4ed34d546fbb8,61037770a2fda8110225306b,2021-07-29_23h20.24.677,Simcolourproject_2stim_asymm_v5,2020.2.10,MacIntel,60,61025ae37ef11b136ea224fe,,,,,,,,,102,30.01617432,40.81768799,1,0,0,response1disk,,7,21.71142578,5.920166016,1,0,0,rectangle,21.71142578,5.920166016,1,0,0,21.71142578,5.920166016,1,0,0,1,61,221,16,1,,,,,,,,
,,,,,,,,,,,,,FF,,,,,,,,1.1834,,,,,,,,,,,,,,,,,,,,,,60fed532bbb4ed34d546fbb8,61037770a2fda8110225306b,2021-07-29_23h20.24.677,Simcolourproject_2stim_asymm_v5,2020.2.10,MacIntel,60,61025ae37ef11b136ea224fe,,,,,,,,,2356,49.03479004,-53.50823975,1,0,0,response3disk,,4,6.776977539,-1.856018066,1,0,0,rectangle,6.776977539,-1.856018066,1,0,0,6.776977539,-1.856018066,1,0,0,1,62,222,105,1,,,,,,,,
,,,,,,,,,,,,,FF,,,,,,,,0.517,,,,,,,,,,,,,,,,,,,,,,60fed532bbb4ed34d546fbb8,61037770a2fda8110225306b,2021-07-29_23h20.24.677,Simcolourproject_2stim_asymm_v5,2020.2.10,MacIntel,60,61025ae37ef11b136ea224fe,,,,,,,,,3261,25.05169678,44.06274414,1,0,0,response1disk,,7,11.71044922,15.79736328,1,0,0,rectangle,11.71044922,15.79736328,1,0,0,11.71044922,15.79736328,1,0,0,1,63,223,93,1,,,,,,,,
,,,,,,,,,,,,,FF,,,,,,,,1.1833,,,,,,,,,,,,,,,,,,,,,,60fed532bbb4ed34d546fbb8,61037770a2fda8110225306b,2021-07-29_23h20.24.677,Simcolourproject_2stim_asymm_v5,2020.2.10,MacIntel,60,61025ae37ef11b136ea224fe,,,,,,,,,1758,61.86798096,-26.93945313,1,0,0,response3disk,,5,31.35540771,-5.151000977,1,0,0,rectangle,58.67224121,-43.85510254,1,0,0,28.81451416,0.565673828,1,0,0,1,64,224,144,1,,response3disk_3,TRUE,5,5,"[283,322,228,134,186,158,274,253,273,266,268,170,183,27,121,142,225,124,35,271]",1.6005,rectangle
,,,,,,,,,,,,,FF,,,,,,,,1.3021,,,,,,,,,,,,,,,,,,,,,,60fed532bbb4ed34d546fbb8,61037770a2fda8110225306b,2021-07-29_23h20.24.677,Simcolourproject_2stim_asymm_v5,2020.2.10,MacIntel,60,61025ae37ef11b136ea224fe,,,,,,,,,3972,22.64892578,-54.44268799,1,0,0,response3disk,,4,-4.200012207,16.47058105,1,0,0,rectangle,-4.200012207,16.47058105,1,0,0,-4.200012207,16.47058105,1,0,0,1,65,225,50,1,,,,,,,,
,,,,,,,,,,,,,FF,,,,,,,,0.8168,,,,,,,,,,,,,,,,,,,,,,60fed532bbb4ed34d546fbb8,61037770a2fda8110225306b,2021-07-29_23h20.24.677,Simcolourproject_2stim_asymm_v5,2020.2.10,MacIntel,60,61025ae37ef11b136ea224fe,,,,,,,,,3551,-41.40264893,25.86877441,1,0,0,response7disk,,1,-7.775390625,-2.584594727,1,0,0,rectangle,-7.775390625,-2.584594727,1,0,0,-7.775390625,-2.584594727,1,0,0,1,66,226,127,1,,,,,,,,
,,,,,,,,,,,,,FF,,,,,,,,0.9341,,,,,,,,,,,,,,,,,,,,,,60fed532bbb4ed34d546fbb8,61037770a2fda8110225306b,2021-07-29_23h20.24.677,Simcolourproject_2stim_asymm_v5,2020.2.10,MacIntel,60,61025ae37ef11b136ea224fe,,,,,,,,,3147,-47.23577881,-35.11651611,1,0,0,response5disk,,2,-14.38549805,-3.3515625,1,0,0,rectangle,-65.38000488,-25.83502197,1,0,0,-19.88122559,-3.925170898,1,0,0,1,67,227,55,1,,response5disk_3,TRUE,2,2,"[283,322,228,134,186,158,274,253,273,266,268,170,183,27,121,142,225,124,35,271]",1.5165,rectangle
,,,,,,,,,,,,,FF,,,,,,,,0.6996,,,,,,,,,,,,,,,,,,,,,,60fed532bbb4ed34d546fbb8,61037770a2fda8110225306b,2021-07-29_23h20.24.677,Simcolourproject_2stim_asymm_v5,2020.2.10,MacIntel,60,61025ae37ef11b136ea224fe,,,,,,,,,2212,29.23364258,45.63458252,1,0,0,response1disk,,7,16.21704102,1.037536621,1,0,0,rectangle,16.21704102,1.037536621,1,0,0,16.21704102,1.037536621,1,0,0,1,68,228,37,1,,,,,,,,
,,,,,,,,,,,,,FF,,,,,,,,0.7995,,,,,,,,,,,,,,,,,,,,,,60fed532bbb4ed34d546fbb8,61037770a2fda8110225306b,2021-07-29_23h20.24.677,Simcolourproject_2stim_asymm_v5,2020.2.10,MacIntel,60,61025ae37ef11b136ea224fe,,,,,,,,,490,39.7310791,28.94299316,1,0,0,response1disk,,6,16.90979004,-1.250610352,1,0,0,rectangle,16.90979004,-1.250610352,1,0,0,16.90979004,-1.250610352,1,0,0,1,69,229,18,1,,,,,,,,
,,,,,,,,,,,,,FF,,,,,,,,0.466,,,,,,,,,,,,,,,,,,,,,,60fed532bbb4ed34d546fbb8,61037770a2fda8110225306b,2021-07-29_23h20.24.677,Simcolourproject_2stim_asymm_v5,2020.2.10,MacIntel,60,61025ae37ef11b136ea224fe,,,,,,,,,2702,27.82177734,42.84680176,1,0,0,response1disk,,7,26.17468262,20.9520874,1,0,0,rectangle,26.17468262,20.9520874,1,0,0,26.17468262,20.9520874,1,0,0,1,70,230,68,1,,,,,,,,
,,,,,,,,,,,,,FF,,,,,,,,0.8177,,,,,,,,,,,,,,,,,,,,,,60fed532bbb4ed34d546fbb8,61037770a2fda8110225306b,2021-07-29_23h20.24.677,Simcolourproject_2stim_asymm_v5,2020.2.10,MacIntel,60,61025ae37ef11b136ea224fe,,,,,,,,,2908,38.15515137,14.95941162,1,0,0,response1disk,,6,10.62817383,2.706359863,1,0,0,rectangle,10.62817383,2.706359863,1,0,0,10.62817383,2.706359863,1,0,0,1,71,231,45,1,,,,,,,,
,,,,,,,,,,,,,FF,,,,,,,,0.4676,,,,,,,,,,,,,,,,,,,,,,60fed532bbb4ed34d546fbb8,61037770a2fda8110225306b,2021-07-29_23h20.24.677,Simcolourproject_2stim_asymm_v5,2020.2.10,MacIntel,60,61025ae37ef11b136ea224fe,,,,,,,,,1998,22.66430664,35.56958008,1,0,0,response1disk,,7,18.31225586,15.31616211,1,0,0,rectangle,18.31225586,15.31616211,1,0,0,18.31225586,15.31616211,1,0,0,1,72,232,108,1,,,,,,,,
,,,,,,,,,,,,,FF,,,,,,,,0.7837,,,,,,,,,,,,,,,,,,,,,,60fed532bbb4ed34d546fbb8,61037770a2fda8110225306b,2021-07-29_23h20.24.677,Simcolourproject_2stim_asymm_v5,2020.2.10,MacIntel,60,61025ae37ef11b136ea224fe,,,,,,,,,1630,23.918396,32.87243652,1,0,0,response1disk,,7,16.27081299,8.557983398,1,0,0,rectangle,16.27081299,8.557983398,1,0,0,16.27081299,8.557983398,1,0,0,1,73,233,32,1,,,,,,,,
,,,,,,,,,,,,,FF,,,,,,,,0.7676,,,,,,,,,,,,,,,,,,,,,,60fed532bbb4ed34d546fbb8,61037770a2fda8110225306b,2021-07-29_23h20.24.677,Simcolourproject_2stim_asymm_v5,2020.2.10,MacIntel,60,61025ae37ef11b136ea224fe,,,,,,,,,1835,25.34875488,26.42602539,1,0,0,response1disk,,7,19.47644043,21.19116211,1,0,0,rectangle,19.47644043,21.19116211,1,0,0,19.47644043,21.19116211,1,0,0,1,74,234,13,1,,,,,,,,
,,,,,,,,,,,,,FF,,,,,,,,0.4839,,,,,,,,,,,,,,,,,,,,,,60fed532bbb4ed34d546fbb8,61037770a2fda8110225306b,2021-07-29_23h20.24.677,Simcolourproject_2stim_asymm_v5,2020.2.10,MacIntel,60,61025ae37ef11b136ea224fe,,,,,,,,,1213,39.05157471,22.93249512,1,0,0,response1disk,,6,31.08685303,14.08251953,1,0,0,rectangle,31.08685303,14.08251953,1,0,0,31.08685303,14.08251953,1,0,0,1,75,235,112,1,,,,,,,,
,,,,,,,,,,,,,FF,,,,,,,,0.4668,,,,,,,,,,,,,,,,,,,,,,60fed532bbb4ed34d546fbb8,61037770a2fda8110225306b,2021-07-29_23h20.24.677,Simcolourproject_2stim_asymm_v5,2020.2.10,MacIntel,60,61025ae37ef11b136ea224fe,,,,,,,,,3932,25.2121582,43.88409424,1,0,0,response1disk,,7,19.01812744,18.75396729,1,0,0,rectangle,19.01812744,18.75396729,1,0,0,19.01812744,18.75396729,1,0,0,1,76,236,26,1,,,,,,,,
,,,,,,,,,,,,,FF,,,,,,,,0.4001,,,,,,,,,,,,,,,,,,,,,,60fed532bbb4ed34d546fbb8,61037770a2fda8110225306b,2021-07-29_23h20.24.677,Simcolourproject_2stim_asymm_v5,2020.2.10,MacIntel,60,61025ae37ef11b136ea224fe,,,,,,,,,2631,28.33154297,38.72167969,1,0,0,response1disk,,7,18.64196777,11.23773193,1,0,0,rectangle,18.64196777,11.23773193,1,0,0,18.64196777,11.23773193,1,0,0,1,77,237,103,1,,,,,,,,
,,,,,,,,,,,,,FF,,,,,,,,1.3165,,,,,,,,,,,,,,,,,,,,,,60fed532bbb4ed34d546fbb8,61037770a2fda8110225306b,2021-07-29_23h20.24.677,Simcolourproject_2stim_asymm_v5,2020.2.10,MacIntel,60,61025ae37ef11b136ea224fe,,,,,,,,,789,25.76574707,-39.31011963,1,0,0,response3disk,,4,7.132995605,-11.90844727,1,0,0,rectangle,7.132995605,-11.90844727,1,0,0,7.132995605,-11.90844727,1,0,0,1,78,238,54,1,,,,,,,,
,,,,,,,,,,,,,FF,,,,,,,,0.6999,,,,,,,,,,,,,,,,,,,,,,60fed532bbb4ed34d546fbb8,61037770a2fda8110225306b,2021-07-29_23h20.24.677,Simcolourproject_2stim_asymm_v5,2020.2.10,MacIntel,60,61025ae37ef11b136ea224fe,,,,,,,,,2359,26.12597656,-38.21166992,1,0,0,response3disk,,4,5.834960938,12.99914551,1,0,0,rectangle,5.834960938,12.99914551,1,0,0,5.834960938,12.99914551,1,0,0,1,79,239,73,1,,,,,,,,
,,,,,,,,,,,,,FF,,,,,,,,0.5007,,,,,,,,,,,,,,,,,,,,,,60fed532bbb4ed34d546fbb8,61037770a2fda8110225306b,2021-07-29_23h20.24.677,Simcolourproject_2stim_asymm_v5,2020.2.10,MacIntel,60,61025ae37ef11b136ea224fe,,,,,,,,,1729,21.85864258,29.96203613,1,0,0,response1disk,,7,18.0234375,10.19622803,1,0,0,rectangle,18.0234375,10.19622803,1,0,0,18.0234375,10.19622803,1,0,0,1,80,240,132,1,,,,,,,,
,,,,,,,,,,,,,FF,,,,,,,,1.0665,,,,,,,,,,,,,,,,,,,,,,60fed532bbb4ed34d546fbb8,61037770a2fda8110225306b,2021-07-29_23h20.24.677,Simcolourproject_2stim_asymm_v5,2020.2.10,MacIntel,60,61025ae37ef11b136ea224fe,,,,,,,,,2242,29.7677002,-31.83520508,1,0,0,response3disk,,4,14.63421631,-7.844055176,1,0,0,rectangle,14.63421631,-7.844055176,1,0,0,14.63421631,-7.844055176,1,0,0,1,81,241,158,1,,,,,,,,
,,,,,,,,,,,,,FF,,,,,,,,0.4339,,,,,,,,,,,,,,,,,,,,,,60fed532bbb4ed34d546fbb8,61037770a2fda8110225306b,2021-07-29_23h20.24.677,Simcolourproject_2stim_asymm_v5,2020.2.10,MacIntel,60,61025ae37ef11b136ea224fe,,,,,,,,,2624,28.00115967,38.14874268,1,0,0,response1disk,,7,23.9473877,6.164916992,1,0,0,rectangle,23.9473877,6.164916992,1,0,0,23.9473877,6.164916992,1,0,0,1,82,242,52,1,,,,,,,,
