key_resp.keys,key_resp.rt,key_resp_14.keys,key_resp_14.rt,key_resp_15.keys,key_resp_15.rt,key_resp_17.keys,key_resp_17.rt,key_resp_9.keys,key_resp_9.rt,key_resp_10.keys,key_resp_10.rt,practice_comparison,Ecc,mouse_5.x,mouse_5.y,mouse_5.leftButton,mouse_5.midButton,mouse_5.rightButton,mouse_5.clicked_name,pracsimilarity,response_time,mouse_10.x,mouse_10.y,mouse_10.leftButton,mouse_10.midButton,mouse_10.rightButton,mouse_10.clicked_name,mouse_7.x,mouse_7.y,mouse_7.leftButton,mouse_7.midButton,mouse_7.rightButton,mouse_6.x,mouse_6.y,mouse_6.leftButton,mouse_6.midButton,mouse_6.rightButton,duringprac.thisRepN,duringprac.thisTrialN,duringprac.thisN,duringprac.thisIndex,duringprac.ran,participant,session,date,expName,psychopyVersion,OS,frameRate,study_id,mouse_7.clicked_name,catchpracsimilarity,catch_response_time,catchnumberprac,catchtrialorderprac,mouse_6.clicked_name,key_resp_22.keys,key_resp_22.rt,realcomparison,mouse.x,mouse.y,mouse.leftButton,mouse.midButton,mouse.rightButton,mouse.clicked_name,Colour2,similarity,mouse_2.x,mouse_2.y,mouse_2.leftButton,mouse_2.midButton,mouse_2.rightButton,mouse_2.clicked_name,mouse_3.x,mouse_3.y,mouse_3.leftButton,mouse_3.midButton,mouse_3.rightButton,mouse_11.x,mouse_11.y,mouse_11.leftButton,mouse_11.midButton,mouse_11.rightButton,trials_2.thisRepN,trials_2.thisTrialN,trials_2.thisN,trials_2.thisIndex,trials_2.ran,Colour1,mouse_3.clicked_name,catchornah,catchsimilarity,catchnumber,catchtrialorder,catchRT,mouse_11.clicked_name
space,3.116,space,6.214,space,14.802,space,7.851,space,1.119,space,4.851,107,FF,39,89,1,0,0,response1disk_5,7,4.567,-2,1,1,0,0,rectangle_8,-2,1,1,0,0,-2,1,1,0,0,0,0,0,5,1,60fe0df0dff66fde69e4ca76,610378bf79ff23eba6035b76,2021-07-29_23h03.54.207,Simcolourproject_2stim_asymm_v5,2020.2.10,MacIntel,60,61025ae37ef11b136ea224fe,,,,,,,,,,,,,,,,,,,,,,,,,,,,,,,,,,,,,,,,,,,,,,
,,,,,,,,,,,,126,FF,-66,34,1,0,0,response7disk_5,1,2.232,-3,2,1,0,0,rectangle_8,-77,-33,1,0,0,4,6,1,0,0,0,1,1,0,1,60fe0df0dff66fde69e4ca76,610378bf79ff23eba6035b76,2021-07-29_23h03.54.207,Simcolourproject_2stim_asymm_v5,2020.2.10,MacIntel,60,61025ae37ef11b136ea224fe,response5disk_7,2,3.801,2,"[2,5]",rectangle_4,,,,,,,,,,,,,,,,,,,,,,,,,,,,,,,,,,,,,,,,
,,,,,,,,,,,,82,PF,35,72,1,0,0,response1disk_5,7,0.984,1,10,1,0,0,rectangle_8,1,10,1,0,0,1,10,1,0,0,0,2,2,1,1,60fe0df0dff66fde69e4ca76,610378bf79ff23eba6035b76,2021-07-29_23h03.54.207,Simcolourproject_2stim_asymm_v5,2020.2.10,MacIntel,60,61025ae37ef11b136ea224fe,,,,,,,,,,,,,,,,,,,,,,,,,,,,,,,,,,,,,,,,,,,,,,
,,,,,,,,,,,,147,FF,23,48,1,0,0,response1disk_5,7,0.951,-4,-1,1,0,0,rectangle_8,-4,-1,1,0,0,-4,-1,1,0,0,0,3,3,3,1,60fe0df0dff66fde69e4ca76,610378bf79ff23eba6035b76,2021-07-29_23h03.54.207,Simcolourproject_2stim_asymm_v5,2020.2.10,MacIntel,60,61025ae37ef11b136ea224fe,,,,,,,,,,,,,,,,,,,,,,,,,,,,,,,,,,,,,,,,,,,,,,
,,,,,,,,,,,,149,PF,39,69,1,0,0,response1disk_5,7,0.8,3,5,1,0,0,rectangle_8,-57,-21,1,0,0,1,9,1,0,0,0,4,4,4,1,60fe0df0dff66fde69e4ca76,610378bf79ff23eba6035b76,2021-07-29_23h03.54.207,Simcolourproject_2stim_asymm_v5,2020.2.10,MacIntel,60,61025ae37ef11b136ea224fe,response5disk_7,2,1.716,2,"[2,5]",rectangle_4,,,,,,,,,,,,,,,,,,,,,,,,,,,,,,,,,,,,,,,,
,,,,,,,,,,,,53,PF,37,80,1,0,0,response1disk_5,7,1.616,0,3,1,0,0,rectangle_8,0,3,1,0,0,0,3,1,0,0,0,5,5,2,1,60fe0df0dff66fde69e4ca76,610378bf79ff23eba6035b76,2021-07-29_23h03.54.207,Simcolourproject_2stim_asymm_v5,2020.2.10,MacIntel,60,61025ae37ef11b136ea224fe,,,,,,,,,,,,,,,,,,,,,,,,,,,,,,,,,,,,,,,,,,,,,,
,,,,,,,,,,,,129,PF,49,-30,1,0,0,response3disk_5,5,1.567,1,15,1,0,0,rectangle_8,1,15,1,0,0,1,15,1,0,0,0,6,6,6,1,60fe0df0dff66fde69e4ca76,610378bf79ff23eba6035b76,2021-07-29_23h03.54.207,Simcolourproject_2stim_asymm_v5,2020.2.10,MacIntel,60,61025ae37ef11b136ea224fe,,,,,,,,,,,,,,,,,,,,,,,,,,,,,,,,,,,,,,,,,,,,,,
,,,,,,,,,,,,,FF,,,,,,,,1.75,,,,,,,,,,,,,,,,,,,,,,60fe0df0dff66fde69e4ca76,610378bf79ff23eba6035b76,2021-07-29_23h03.54.207,Simcolourproject_2stim_asymm_v5,2020.2.10,MacIntel,60,61025ae37ef11b136ea224fe,,,,,,,space,49.216,287,47,70,1,0,0,response1disk,,7,3,7,1,0,0,rectangle,3,7,1,0,0,3,7,1,0,0,0,0,0,3,1,,,,,,,,
,,,,,,,,,,,,,FF,,,,,,,,10.451,,,,,,,,,,,,,,,,,,,,,,60fe0df0dff66fde69e4ca76,610378bf79ff23eba6035b76,2021-07-29_23h03.54.207,Simcolourproject_2stim_asymm_v5,2020.2.10,MacIntel,60,61025ae37ef11b136ea224fe,,,,,,,,,2133,48,30,1,0,0,response1disk,,6,3,2,1,0,0,rectangle,3,2,1,0,0,3,2,1,0,0,0,1,1,73,1,,,,,,,,
,,,,,,,,,,,,,FF,,,,,,,,0.983,,,,,,,,,,,,,,,,,,,,,,60fe0df0dff66fde69e4ca76,610378bf79ff23eba6035b76,2021-07-29_23h03.54.207,Simcolourproject_2stim_asymm_v5,2020.2.10,MacIntel,60,61025ae37ef11b136ea224fe,,,,,,,,,3917,39,-64,1,0,0,response3disk,,4,-3,-6,1,0,0,rectangle,-3,-6,1,0,0,-3,-6,1,0,0,0,2,2,16,1,,,,,,,,
,,,,,,,,,,,,,FF,,,,,,,,1.933,,,,,,,,,,,,,,,,,,,,,,60fe0df0dff66fde69e4ca76,610378bf79ff23eba6035b76,2021-07-29_23h03.54.207,Simcolourproject_2stim_asymm_v5,2020.2.10,MacIntel,60,61025ae37ef11b136ea224fe,,,,,,,,,4235,-36,92,1,0,0,response7disk,,0,-2,3,1,0,0,rectangle,-2,3,1,0,0,-2,3,1,0,0,0,3,3,112,1,,,,,,,,
,,,,,,,,,,,,,FF,,,,,,,,0.666,,,,,,,,,,,,,,,,,,,,,,60fe0df0dff66fde69e4ca76,610378bf79ff23eba6035b76,2021-07-29_23h03.54.207,Simcolourproject_2stim_asymm_v5,2020.2.10,MacIntel,60,61025ae37ef11b136ea224fe,,,,,,,,,31,39,69,1,0,0,response1disk,,7,4,13,1,0,0,rectangle,4,13,1,0,0,4,13,1,0,0,0,4,4,47,1,,,,,,,,
,,,,,,,,,,,,,FF,,,,,,,,0.766,,,,,,,,,,,,,,,,,,,,,,60fe0df0dff66fde69e4ca76,610378bf79ff23eba6035b76,2021-07-29_23h03.54.207,Simcolourproject_2stim_asymm_v5,2020.2.10,MacIntel,60,61025ae37ef11b136ea224fe,,,,,,,,,1422,38,54,1,0,0,response1disk,,7,4,14,1,0,0,rectangle,4,14,1,0,0,4,14,1,0,0,0,5,5,143,1,,,,,,,,
,,,,,,,,,,,,,FF,,,,,,,,0.667,,,,,,,,,,,,,,,,,,,,,,60fe0df0dff66fde69e4ca76,610378bf79ff23eba6035b76,2021-07-29_23h03.54.207,Simcolourproject_2stim_asymm_v5,2020.2.10,MacIntel,60,61025ae37ef11b136ea224fe,,,,,,,,,688,37,72,1,0,0,response1disk,,7,2,1,1,0,0,rectangle,2,1,1,0,0,2,1,1,0,0,0,6,6,103,1,,,,,,,,
,,,,,,,,,,,,,FF,,,,,,,,0.733,,,,,,,,,,,,,,,,,,,,,,60fe0df0dff66fde69e4ca76,610378bf79ff23eba6035b76,2021-07-29_23h03.54.207,Simcolourproject_2stim_asymm_v5,2020.2.10,MacIntel,60,61025ae37ef11b136ea224fe,,,,,,,,,1550,32,82,1,0,0,response1disk,,7,-6,15,1,0,0,rectangle,-6,15,1,0,0,-6,15,1,0,0,0,7,7,36,1,,,,,,,,
,,,,,,,,,,,,,FF,,,,,,,,0.867,,,,,,,,,,,,,,,,,,,,,,60fe0df0dff66fde69e4ca76,610378bf79ff23eba6035b76,2021-07-29_23h03.54.207,Simcolourproject_2stim_asymm_v5,2020.2.10,MacIntel,60,61025ae37ef11b136ea224fe,,,,,,,,,945,42,72,1,0,0,response1disk,,7,0,7,1,0,0,rectangle,0,7,1,0,0,0,7,1,0,0,0,8,8,109,1,,,,,,,,
,,,,,,,,,,,,,FF,,,,,,,,0.616,,,,,,,,,,,,,,,,,,,,,,60fe0df0dff66fde69e4ca76,610378bf79ff23eba6035b76,2021-07-29_23h03.54.207,Simcolourproject_2stim_asymm_v5,2020.2.10,MacIntel,60,61025ae37ef11b136ea224fe,,,,,,,,,3029,57,116,1,0,0,response1disk,,7,11,10,1,0,0,rectangle,11,10,1,0,0,11,10,1,0,0,0,9,9,66,1,,,,,,,,
,,,,,,,,,,,,,FF,,,,,,,,0.6,,,,,,,,,,,,,,,,,,,,,,60fe0df0dff66fde69e4ca76,610378bf79ff23eba6035b76,2021-07-29_23h03.54.207,Simcolourproject_2stim_asymm_v5,2020.2.10,MacIntel,60,61025ae37ef11b136ea224fe,,,,,,,,,2792,40,84,1,0,0,response1disk,,7,0,3,1,0,0,rectangle,0,3,1,0,0,0,3,1,0,0,0,10,10,53,1,,,,,,,,
,,,,,,,,,,,,,FF,,,,,,,,0.4,,,,,,,,,,,,,,,,,,,,,,60fe0df0dff66fde69e4ca76,610378bf79ff23eba6035b76,2021-07-29_23h03.54.207,Simcolourproject_2stim_asymm_v5,2020.2.10,MacIntel,60,61025ae37ef11b136ea224fe,,,,,,,,,601,27,68,1,0,0,response1disk,,7,7,3,1,0,0,rectangle,7,3,1,0,0,7,3,1,0,0,0,11,11,74,1,,,,,,,,
,,,,,,,,,,,,,FF,,,,,,,,0.483,,,,,,,,,,,,,,,,,,,,,,60fe0df0dff66fde69e4ca76,610378bf79ff23eba6035b76,2021-07-29_23h03.54.207,Simcolourproject_2stim_asymm_v5,2020.2.10,MacIntel,60,61025ae37ef11b136ea224fe,,,,,,,,,4058,35,63,1,0,0,response1disk,,7,13,1,1,0,0,rectangle,27,74,1,0,0,15,8,1,0,0,0,12,12,52,1,,response1disk_3,TRUE,7,7,"[150,196,204,275,212,297,284,268,21,95,124,41,13,133,42,212,81,239,106,308]",2.1,rectangle
,,,,,,,,,,,,,FF,,,,,,,,1.2,,,,,,,,,,,,,,,,,,,,,,60fe0df0dff66fde69e4ca76,610378bf79ff23eba6035b76,2021-07-29_23h03.54.207,Simcolourproject_2stim_asymm_v5,2020.2.10,MacIntel,60,61025ae37ef11b136ea224fe,,,,,,,,,644,84,27,1,0,0,response1disk,,6,17,8,1,0,0,rectangle,17,8,1,0,0,17,8,1,0,0,0,13,13,63,1,,,,,,,,
,,,,,,,,,,,,,FF,,,,,,,,1.085,,,,,,,,,,,,,,,,,,,,,,60fe0df0dff66fde69e4ca76,610378bf79ff23eba6035b76,2021-07-29_23h03.54.207,Simcolourproject_2stim_asymm_v5,2020.2.10,MacIntel,60,61025ae37ef11b136ea224fe,,,,,,,,,427,80,26,1,0,0,response1disk,,6,22,-1,1,0,0,rectangle,22,-1,1,0,0,22,-1,1,0,0,0,14,14,39,1,,,,,,,,
,,,,,,,,,,,,,FF,,,,,,,,0.716,,,,,,,,,,,,,,,,,,,,,,60fe0df0dff66fde69e4ca76,610378bf79ff23eba6035b76,2021-07-29_23h03.54.207,Simcolourproject_2stim_asymm_v5,2020.2.10,MacIntel,60,61025ae37ef11b136ea224fe,,,,,,,,,3269,20,61,1,0,0,response1disk,,7,4,12,1,0,0,rectangle,4,12,1,0,0,4,12,1,0,0,0,15,15,80,1,,,,,,,,
,,,,,,,,,,,,,FF,,,,,,,,1.033,,,,,,,,,,,,,,,,,,,,,,60fe0df0dff66fde69e4ca76,610378bf79ff23eba6035b76,2021-07-29_23h03.54.207,Simcolourproject_2stim_asymm_v5,2020.2.10,MacIntel,60,61025ae37ef11b136ea224fe,,,,,,,,,563,68,42,1,0,0,response1disk,,6,25,17,1,0,0,rectangle,25,17,1,0,0,25,17,1,0,0,0,16,16,75,1,,,,,,,,
,,,,,,,,,,,,,FF,,,,,,,,0.733,,,,,,,,,,,,,,,,,,,,,,60fe0df0dff66fde69e4ca76,610378bf79ff23eba6035b76,2021-07-29_23h03.54.207,Simcolourproject_2stim_asymm_v5,2020.2.10,MacIntel,60,61025ae37ef11b136ea224fe,,,,,,,,,2044,37,53,1,0,0,response1disk,,7,6,-3,1,0,0,rectangle,6,-3,1,0,0,6,-3,1,0,0,0,17,17,138,1,,,,,,,,
,,,,,,,,,,,,,FF,,,,,,,,0.518,,,,,,,,,,,,,,,,,,,,,,60fe0df0dff66fde69e4ca76,610378bf79ff23eba6035b76,2021-07-29_23h03.54.207,Simcolourproject_2stim_asymm_v5,2020.2.10,MacIntel,60,61025ae37ef11b136ea224fe,,,,,,,,,3634,21,46,1,0,0,response1disk,,7,-11,-1,1,0,0,rectangle,-11,-1,1,0,0,-11,-1,1,0,0,0,18,18,21,1,,,,,,,,
,,,,,,,,,,,,,FF,,,,,,,,0.483,,,,,,,,,,,,,,,,,,,,,,60fe0df0dff66fde69e4ca76,610378bf79ff23eba6035b76,2021-07-29_23h03.54.207,Simcolourproject_2stim_asymm_v5,2020.2.10,MacIntel,60,61025ae37ef11b136ea224fe,,,,,,,,,4079,55,87,1,0,0,response1disk,,7,15,14,1,0,0,rectangle,15,14,1,0,0,15,14,1,0,0,0,19,19,130,1,,,,,,,,
,,,,,,,,,,,,,FF,,,,,,,,1.433,,,,,,,,,,,,,,,,,,,,,,60fe0df0dff66fde69e4ca76,610378bf79ff23eba6035b76,2021-07-29_23h03.54.207,Simcolourproject_2stim_asymm_v5,2020.2.10,MacIntel,60,61025ae37ef11b136ea224fe,,,,,,,,,3781,-69,-39,1,0,0,response5disk,,2,-1,9,1,0,0,rectangle,76,37,1,0,0,10,6,1,0,0,0,20,20,142,1,,response1disk_3,TRUE,6,6,"[150,196,204,275,212,297,284,268,21,95,124,41,13,133,42,212,81,239,106,308]",1.483,rectangle
,,,,,,,,,,,,,FF,,,,,,,,0.75,,,,,,,,,,,,,,,,,,,,,,60fe0df0dff66fde69e4ca76,610378bf79ff23eba6035b76,2021-07-29_23h03.54.207,Simcolourproject_2stim_asymm_v5,2020.2.10,MacIntel,60,61025ae37ef11b136ea224fe,,,,,,,,,226,26,53,1,0,0,response1disk,,7,7,5,1,0,0,rectangle,7,5,1,0,0,7,5,1,0,0,0,21,21,22,1,,,,,,,,
,,,,,,,,,,,,,FF,,,,,,,,0.784,,,,,,,,,,,,,,,,,,,,,,60fe0df0dff66fde69e4ca76,610378bf79ff23eba6035b76,2021-07-29_23h03.54.207,Simcolourproject_2stim_asymm_v5,2020.2.10,MacIntel,60,61025ae37ef11b136ea224fe,,,,,,,,,390,32,56,1,0,0,response1disk,,7,1,2,1,0,0,rectangle,1,2,1,0,0,1,2,1,0,0,0,22,22,99,1,,,,,,,,
,,,,,,,,,,,,,FF,,,,,,,,1.399,,,,,,,,,,,,,,,,,,,,,,60fe0df0dff66fde69e4ca76,610378bf79ff23eba6035b76,2021-07-29_23h03.54.207,Simcolourproject_2stim_asymm_v5,2020.2.10,MacIntel,60,61025ae37ef11b136ea224fe,,,,,,,,,1375,58,30,1,0,0,response1disk,,6,15,6,1,0,0,rectangle,15,6,1,0,0,15,6,1,0,0,0,23,23,158,1,,,,,,,,
,,,,,,,,,,,,,FF,,,,,,,,1.184,,,,,,,,,,,,,,,,,,,,,,60fe0df0dff66fde69e4ca76,610378bf79ff23eba6035b76,2021-07-29_23h03.54.207,Simcolourproject_2stim_asymm_v5,2020.2.10,MacIntel,60,61025ae37ef11b136ea224fe,,,,,,,,,4186,44,67,1,0,0,response1disk,,7,8,2,1,0,0,rectangle,8,2,1,0,0,8,2,1,0,0,0,24,24,139,1,,,,,,,,
,,,,,,,,,,,,,FF,,,,,,,,0.5,,,,,,,,,,,,,,,,,,,,,,60fe0df0dff66fde69e4ca76,610378bf79ff23eba6035b76,2021-07-29_23h03.54.207,Simcolourproject_2stim_asymm_v5,2020.2.10,MacIntel,60,61025ae37ef11b136ea224fe,,,,,,,,,3619,34,55,1,0,0,response1disk,,7,-2,7,1,0,0,rectangle,-2,7,1,0,0,-2,7,1,0,0,0,25,25,17,1,,,,,,,,
,,,,,,,,,,,,,FF,,,,,,,,0.385,,,,,,,,,,,,,,,,,,,,,,60fe0df0dff66fde69e4ca76,610378bf79ff23eba6035b76,2021-07-29_23h03.54.207,Simcolourproject_2stim_asymm_v5,2020.2.10,MacIntel,60,61025ae37ef11b136ea224fe,,,,,,,,,3015,42,73,1,0,0,response1disk,,7,4,9,1,0,0,rectangle,4,9,1,0,0,4,9,1,0,0,0,26,26,85,1,,,,,,,,
,,,,,,,,,,,,,FF,,,,,,,,0.432,,,,,,,,,,,,,,,,,,,,,,60fe0df0dff66fde69e4ca76,610378bf79ff23eba6035b76,2021-07-29_23h03.54.207,Simcolourproject_2stim_asymm_v5,2020.2.10,MacIntel,60,61025ae37ef11b136ea224fe,,,,,,,,,3685,36,69,1,0,0,response1disk,,7,2,11,1,0,0,rectangle,2,11,1,0,0,2,11,1,0,0,0,27,27,156,1,,,,,,,,
,,,,,,,,,,,,,FF,,,,,,,,0.518,,,,,,,,,,,,,,,,,,,,,,60fe0df0dff66fde69e4ca76,610378bf79ff23eba6035b76,2021-07-29_23h03.54.207,Simcolourproject_2stim_asymm_v5,2020.2.10,MacIntel,60,61025ae37ef11b136ea224fe,,,,,,,,,823,35,66,1,0,0,response1disk,,7,13,7,1,0,0,rectangle,13,7,1,0,0,13,7,1,0,0,0,28,28,24,1,,,,,,,,
,,,,,,,,,,,,,FF,,,,,,,,3.083,,,,,,,,,,,,,,,,,,,,,,60fe0df0dff66fde69e4ca76,610378bf79ff23eba6035b76,2021-07-29_23h03.54.207,Simcolourproject_2stim_asymm_v5,2020.2.10,MacIntel,60,61025ae37ef11b136ea224fe,,,,,,,,,3602,32,67,1,0,0,response1disk,,7,5,-1,1,0,0,rectangle,5,-1,1,0,0,5,-1,1,0,0,0,29,29,102,1,,,,,,,,
,,,,,,,,,,,,,FF,,,,,,,,0.433,,,,,,,,,,,,,,,,,,,,,,60fe0df0dff66fde69e4ca76,610378bf79ff23eba6035b76,2021-07-29_23h03.54.207,Simcolourproject_2stim_asymm_v5,2020.2.10,MacIntel,60,61025ae37ef11b136ea224fe,,,,,,,,,136,40,67,1,0,0,response1disk,,7,10,4,1,0,0,rectangle,10,4,1,0,0,10,4,1,0,0,0,30,30,159,1,,,,,,,,
,,,,,,,,,,,,,FF,,,,,,,,0.867,,,,,,,,,,,,,,,,,,,,,,60fe0df0dff66fde69e4ca76,610378bf79ff23eba6035b76,2021-07-29_23h03.54.207,Simcolourproject_2stim_asymm_v5,2020.2.10,MacIntel,60,61025ae37ef11b136ea224fe,,,,,,,,,612,62,-32,1,0,0,response3disk,,5,10,-8,1,0,0,rectangle,10,-8,1,0,0,10,-8,1,0,0,0,31,31,105,1,,,,,,,,
,,,,,,,,,,,,,FF,,,,,,,,1.134,,,,,,,,,,,,,,,,,,,,,,60fe0df0dff66fde69e4ca76,610378bf79ff23eba6035b76,2021-07-29_23h03.54.207,Simcolourproject_2stim_asymm_v5,2020.2.10,MacIntel,60,61025ae37ef11b136ea224fe,,,,,,,,,2723,49,-24,1,0,0,response3disk,,5,3,-7,1,0,0,rectangle,3,-7,1,0,0,3,-7,1,0,0,0,32,32,95,1,,,,,,,,
,,,,,,,,,,,,,FF,,,,,,,,1.283,,,,,,,,,,,,,,,,,,,,,,60fe0df0dff66fde69e4ca76,610378bf79ff23eba6035b76,2021-07-29_23h03.54.207,Simcolourproject_2stim_asymm_v5,2020.2.10,MacIntel,60,61025ae37ef11b136ea224fe,,,,,,,,,1433,40,27,1,0,0,response1disk,,6,10,14,1,0,0,rectangle,10,14,1,0,0,10,14,1,0,0,0,33,33,54,1,,,,,,,,
,,,,,,,,,,,,,FF,,,,,,,,0.533,,,,,,,,,,,,,,,,,,,,,,60fe0df0dff66fde69e4ca76,610378bf79ff23eba6035b76,2021-07-29_23h03.54.207,Simcolourproject_2stim_asymm_v5,2020.2.10,MacIntel,60,61025ae37ef11b136ea224fe,,,,,,,,,670,38,58,1,0,0,response1disk,,7,0,7,1,0,0,rectangle,0,7,1,0,0,0,7,1,0,0,0,34,34,118,1,,,,,,,,
,,,,,,,,,,,,,FF,,,,,,,,0.667,,,,,,,,,,,,,,,,,,,,,,60fe0df0dff66fde69e4ca76,610378bf79ff23eba6035b76,2021-07-29_23h03.54.207,Simcolourproject_2stim_asymm_v5,2020.2.10,MacIntel,60,61025ae37ef11b136ea224fe,,,,,,,,,1048,30,51,1,0,0,response1disk,,7,1,9,1,0,0,rectangle,1,9,1,0,0,1,9,1,0,0,0,35,35,148,1,,,,,,,,
,,,,,,,,,,,,,FF,,,,,,,,0.502,,,,,,,,,,,,,,,,,,,,,,60fe0df0dff66fde69e4ca76,610378bf79ff23eba6035b76,2021-07-29_23h03.54.207,Simcolourproject_2stim_asymm_v5,2020.2.10,MacIntel,60,61025ae37ef11b136ea224fe,,,,,,,,,1322,23,55,1,0,0,response1disk,,7,1,15,1,0,0,rectangle,1,15,1,0,0,1,15,1,0,0,0,36,36,104,1,,,,,,,,
,,,,,,,,,,,,,FF,,,,,,,,0.5,,,,,,,,,,,,,,,,,,,,,,60fe0df0dff66fde69e4ca76,610378bf79ff23eba6035b76,2021-07-29_23h03.54.207,Simcolourproject_2stim_asymm_v5,2020.2.10,MacIntel,60,61025ae37ef11b136ea224fe,,,,,,,,,1849,35,48,1,0,0,response1disk,,7,5,11,1,0,0,rectangle,5,11,1,0,0,5,11,1,0,0,0,37,37,8,1,,,,,,,,
,,,,,,,,,,,,,FF,,,,,,,,0.783,,,,,,,,,,,,,,,,,,,,,,60fe0df0dff66fde69e4ca76,610378bf79ff23eba6035b76,2021-07-29_23h03.54.207,Simcolourproject_2stim_asymm_v5,2020.2.10,MacIntel,60,61025ae37ef11b136ea224fe,,,,,,,,,1568,40,73,1,0,0,response1disk,,7,1,8,1,0,0,rectangle,1,8,1,0,0,1,8,1,0,0,0,38,38,6,1,,,,,,,,
,,,,,,,,,,,,,FF,,,,,,,,0.533,,,,,,,,,,,,,,,,,,,,,,60fe0df0dff66fde69e4ca76,610378bf79ff23eba6035b76,2021-07-29_23h03.54.207,Simcolourproject_2stim_asymm_v5,2020.2.10,MacIntel,60,61025ae37ef11b136ea224fe,,,,,,,,,748,24,42,1,0,0,response1disk,,7,3,6,1,0,0,rectangle,3,6,1,0,0,3,6,1,0,0,0,39,39,86,1,,,,,,,,
,,,,,,,,,,,,,FF,,,,,,,,0.565,,,,,,,,,,,,,,,,,,,,,,60fe0df0dff66fde69e4ca76,610378bf79ff23eba6035b76,2021-07-29_23h03.54.207,Simcolourproject_2stim_asymm_v5,2020.2.10,MacIntel,60,61025ae37ef11b136ea224fe,,,,,,,,,478,30,58,1,0,0,response1disk,,7,2,15,1,0,0,rectangle,-83,39,1,0,0,-7,11,1,0,0,0,40,40,42,1,,response7disk_3,TRUE,1,1,"[150,196,204,275,212,297,284,268,21,95,124,41,13,133,42,212,81,239,106,308]",1.932,rectangle
,,,,,,,,,,,,,FF,,,,,,,,0.966,,,,,,,,,,,,,,,,,,,,,,60fe0df0dff66fde69e4ca76,610378bf79ff23eba6035b76,2021-07-29_23h03.54.207,Simcolourproject_2stim_asymm_v5,2020.2.10,MacIntel,60,61025ae37ef11b136ea224fe,,,,,,,,,1328,17,89,1,0,0,response1disk,,7,-11,4,1,0,0,rectangle,89,-20,1,0,0,19,2,1,0,0,0,41,41,134,1,,response3disk_3,TRUE,5,5,"[150,196,204,275,212,297,284,268,21,95,124,41,13,133,42,212,81,239,106,308]",1.616,rectangle
,,,,,,,,,,,,,FF,,,,,,,,1.216,,,,,,,,,,,,,,,,,,,,,,60fe0df0dff66fde69e4ca76,610378bf79ff23eba6035b76,2021-07-29_23h03.54.207,Simcolourproject_2stim_asymm_v5,2020.2.10,MacIntel,60,61025ae37ef11b136ea224fe,,,,,,,,,4105,40,-57,1,0,0,response3disk,,4,10,7,1,0,0,rectangle,10,7,1,0,0,10,7,1,0,0,0,42,42,144,1,,,,,,,,
,,,,,,,,,,,,,FF,,,,,,,,0.949,,,,,,,,,,,,,,,,,,,,,,60fe0df0dff66fde69e4ca76,610378bf79ff23eba6035b76,2021-07-29_23h03.54.207,Simcolourproject_2stim_asymm_v5,2020.2.10,MacIntel,60,61025ae37ef11b136ea224fe,,,,,,,,,1325,30,54,1,0,0,response1disk,,7,-3,14,1,0,0,rectangle,-3,14,1,0,0,-3,14,1,0,0,0,43,43,1,1,,,,,,,,
,,,,,,,,,,,,,FF,,,,,,,,1.117,,,,,,,,,,,,,,,,,,,,,,60fe0df0dff66fde69e4ca76,610378bf79ff23eba6035b76,2021-07-29_23h03.54.207,Simcolourproject_2stim_asymm_v5,2020.2.10,MacIntel,60,61025ae37ef11b136ea224fe,,,,,,,,,463,56,34,1,0,0,response1disk,,6,15,13,1,0,0,rectangle,15,13,1,0,0,15,13,1,0,0,0,44,44,111,1,,,,,,,,
,,,,,,,,,,,,,FF,,,,,,,,0.549,,,,,,,,,,,,,,,,,,,,,,60fe0df0dff66fde69e4ca76,610378bf79ff23eba6035b76,2021-07-29_23h03.54.207,Simcolourproject_2stim_asymm_v5,2020.2.10,MacIntel,60,61025ae37ef11b136ea224fe,,,,,,,,,2972,23,49,1,0,0,response1disk,,7,1,5,1,0,0,rectangle,1,5,1,0,0,1,5,1,0,0,0,45,45,48,1,,,,,,,,
,,,,,,,,,,,,,FF,,,,,,,,1.266,,,,,,,,,,,,,,,,,,,,,,60fe0df0dff66fde69e4ca76,610378bf79ff23eba6035b76,2021-07-29_23h03.54.207,Simcolourproject_2stim_asymm_v5,2020.2.10,MacIntel,60,61025ae37ef11b136ea224fe,,,,,,,,,3067,32,60,1,0,0,response1disk,,7,2,2,1,0,0,rectangle,2,2,1,0,0,2,2,1,0,0,0,46,46,57,1,,,,,,,,
,,,,,,,,,,,,,FF,,,,,,,,0.418,,,,,,,,,,,,,,,,,,,,,,60fe0df0dff66fde69e4ca76,610378bf79ff23eba6035b76,2021-07-29_23h03.54.207,Simcolourproject_2stim_asymm_v5,2020.2.10,MacIntel,60,61025ae37ef11b136ea224fe,,,,,,,,,1581,21,34,1,0,0,response1disk,,7,8,-13,1,0,0,rectangle,8,-13,1,0,0,8,-13,1,0,0,0,47,47,51,1,,,,,,,,
,,,,,,,,,,,,,FF,,,,,,,,0.883,,,,,,,,,,,,,,,,,,,,,,60fe0df0dff66fde69e4ca76,610378bf79ff23eba6035b76,2021-07-29_23h03.54.207,Simcolourproject_2stim_asymm_v5,2020.2.10,MacIntel,60,61025ae37ef11b136ea224fe,,,,,,,,,1232,45,71,1,0,0,response1disk,,7,8,2,1,0,0,rectangle,8,2,1,0,0,8,2,1,0,0,0,48,48,40,1,,,,,,,,
,,,,,,,,,,,,,FF,,,,,,,,1.517,,,,,,,,,,,,,,,,,,,,,,60fe0df0dff66fde69e4ca76,610378bf79ff23eba6035b76,2021-07-29_23h03.54.207,Simcolourproject_2stim_asymm_v5,2020.2.10,MacIntel,60,61025ae37ef11b136ea224fe,,,,,,,,,3374,20,-59,1,0,0,response3disk,,4,-3,-11,1,0,0,rectangle,-3,-11,1,0,0,-3,-11,1,0,0,0,49,49,120,1,,,,,,,,
,,,,,,,,,,,,,FF,,,,,,,,0.968,,,,,,,,,,,,,,,,,,,,,,60fe0df0dff66fde69e4ca76,610378bf79ff23eba6035b76,2021-07-29_23h03.54.207,Simcolourproject_2stim_asymm_v5,2020.2.10,MacIntel,60,61025ae37ef11b136ea224fe,,,,,,,,,3814,-56,-55,1,0,0,response5disk,,2,1,-7,1,0,0,rectangle,1,-7,1,0,0,1,-7,1,0,0,0,50,50,121,1,,,,,,,,
,,,,,,,,,,,,,FF,,,,,,,,0.634,,,,,,,,,,,,,,,,,,,,,,60fe0df0dff66fde69e4ca76,610378bf79ff23eba6035b76,2021-07-29_23h03.54.207,Simcolourproject_2stim_asymm_v5,2020.2.10,MacIntel,60,61025ae37ef11b136ea224fe,,,,,,,,,2267,31,50,1,0,0,response1disk,,7,1,1,1,0,0,rectangle,1,1,1,0,0,1,1,1,0,0,0,51,51,70,1,,,,,,,,
,,,,,,,,,,,,,FF,,,,,,,,0.584,,,,,,,,,,,,,,,,,,,,,,60fe0df0dff66fde69e4ca76,610378bf79ff23eba6035b76,2021-07-29_23h03.54.207,Simcolourproject_2stim_asymm_v5,2020.2.10,MacIntel,60,61025ae37ef11b136ea224fe,,,,,,,,,344,28,56,1,0,0,response1disk,,7,3,10,1,0,0,rectangle,3,10,1,0,0,3,10,1,0,0,0,52,52,152,1,,,,,,,,
,,,,,,,,,,,,,FF,,,,,,,,0.466,,,,,,,,,,,,,,,,,,,,,,60fe0df0dff66fde69e4ca76,610378bf79ff23eba6035b76,2021-07-29_23h03.54.207,Simcolourproject_2stim_asymm_v5,2020.2.10,MacIntel,60,61025ae37ef11b136ea224fe,,,,,,,,,1012,23,47,1,0,0,response1disk,,7,9,15,1,0,0,rectangle,9,15,1,0,0,9,15,1,0,0,0,53,53,98,1,,,,,,,,
,,,,,,,,,,,,,FF,,,,,,,,1.282,,,,,,,,,,,,,,,,,,,,,,60fe0df0dff66fde69e4ca76,610378bf79ff23eba6035b76,2021-07-29_23h03.54.207,Simcolourproject_2stim_asymm_v5,2020.2.10,MacIntel,60,61025ae37ef11b136ea224fe,,,,,,,,,1682,-81,-45,1,0,0,response5disk,,2,-1,10,1,0,0,rectangle,-1,10,1,0,0,-1,10,1,0,0,0,54,54,49,1,,,,,,,,
,,,,,,,,,,,,,FF,,,,,,,,0.699,,,,,,,,,,,,,,,,,,,,,,60fe0df0dff66fde69e4ca76,610378bf79ff23eba6035b76,2021-07-29_23h03.54.207,Simcolourproject_2stim_asymm_v5,2020.2.10,MacIntel,60,61025ae37ef11b136ea224fe,,,,,,,,,3939,-42,-59,1,0,0,response5disk,,3,-11,-14,1,0,0,rectangle,-11,-14,1,0,0,-11,-14,1,0,0,0,55,55,30,1,,,,,,,,
,,,,,,,,,,,,,FF,,,,,,,,1.033,,,,,,,,,,,,,,,,,,,,,,60fe0df0dff66fde69e4ca76,610378bf79ff23eba6035b76,2021-07-29_23h03.54.207,Simcolourproject_2stim_asymm_v5,2020.2.10,MacIntel,60,61025ae37ef11b136ea224fe,,,,,,,,,1894,-36,-66,1,0,0,response5disk,,3,0,-5,1,0,0,rectangle,0,-5,1,0,0,0,-5,1,0,0,0,56,56,125,1,,,,,,,,
,,,,,,,,,,,,,FF,,,,,,,,0.616,,,,,,,,,,,,,,,,,,,,,,60fe0df0dff66fde69e4ca76,610378bf79ff23eba6035b76,2021-07-29_23h03.54.207,Simcolourproject_2stim_asymm_v5,2020.2.10,MacIntel,60,61025ae37ef11b136ea224fe,,,,,,,,,1425,40,71,1,0,0,response1disk,,7,4,7,1,0,0,rectangle,4,7,1,0,0,4,7,1,0,0,0,57,57,93,1,,,,,,,,
,,,,,,,,,,,,,FF,,,,,,,,0.651,,,,,,,,,,,,,,,,,,,,,,60fe0df0dff66fde69e4ca76,610378bf79ff23eba6035b76,2021-07-29_23h03.54.207,Simcolourproject_2stim_asymm_v5,2020.2.10,MacIntel,60,61025ae37ef11b136ea224fe,,,,,,,,,2684,30,57,1,0,0,response1disk,,7,3,10,1,0,0,rectangle,3,10,1,0,0,3,10,1,0,0,0,58,58,9,1,,,,,,,,
,,,,,,,,,,,,,FF,,,,,,,,0.484,,,,,,,,,,,,,,,,,,,,,,60fe0df0dff66fde69e4ca76,610378bf79ff23eba6035b76,2021-07-29_23h03.54.207,Simcolourproject_2stim_asymm_v5,2020.2.10,MacIntel,60,61025ae37ef11b136ea224fe,,,,,,,,,2332,27,50,1,0,0,response1disk,,7,2,1,1,0,0,rectangle,2,1,1,0,0,2,1,1,0,0,0,59,59,135,1,,,,,,,,
,,,,,,,,,,,,,FF,,,,,,,,1.816,,,,,,,,,,,,,,,,,,,,,,60fe0df0dff66fde69e4ca76,610378bf79ff23eba6035b76,2021-07-29_23h03.54.207,Simcolourproject_2stim_asymm_v5,2020.2.10,MacIntel,60,61025ae37ef11b136ea224fe,,,,,,,,,4084,51,-25,1,0,0,response3disk,,5,28,-9,1,0,0,rectangle,28,-9,1,0,0,28,-9,1,0,0,0,60,60,72,1,,,,,,,,
,,,,,,,,,,,,,FF,,,,,,,,0.984,,,,,,,,,,,,,,,,,,,,,,60fe0df0dff66fde69e4ca76,610378bf79ff23eba6035b76,2021-07-29_23h03.54.207,Simcolourproject_2stim_asymm_v5,2020.2.10,MacIntel,60,61025ae37ef11b136ea224fe,,,,,,,,,722,-46,-65,1,0,0,response5disk,,3,6,4,1,0,0,rectangle,6,4,1,0,0,6,4,1,0,0,0,61,61,92,1,,,,,,,,
,,,,,,,,,,,,,FF,,,,,,,,0.684,,,,,,,,,,,,,,,,,,,,,,60fe0df0dff66fde69e4ca76,610378bf79ff23eba6035b76,2021-07-29_23h03.54.207,Simcolourproject_2stim_asymm_v5,2020.2.10,MacIntel,60,61025ae37ef11b136ea224fe,,,,,,,,,3495,34,60,1,0,0,response1disk,,7,6,9,1,0,0,rectangle,6,9,1,0,0,6,9,1,0,0,0,62,62,50,1,,,,,,,,
,,,,,,,,,,,,,FF,,,,,,,,0.532,,,,,,,,,,,,,,,,,,,,,,60fe0df0dff66fde69e4ca76,610378bf79ff23eba6035b76,2021-07-29_23h03.54.207,Simcolourproject_2stim_asymm_v5,2020.2.10,MacIntel,60,61025ae37ef11b136ea224fe,,,,,,,,,4247,30,56,1,0,0,response1disk,,7,5,8,1,0,0,rectangle,5,8,1,0,0,5,8,1,0,0,0,63,63,2,1,,,,,,,,
,,,,,,,,,,,,,FF,,,,,,,,0.467,,,,,,,,,,,,,,,,,,,,,,60fe0df0dff66fde69e4ca76,610378bf79ff23eba6035b76,2021-07-29_23h03.54.207,Simcolourproject_2stim_asymm_v5,2020.2.10,MacIntel,60,61025ae37ef11b136ea224fe,,,,,,,,,3145,35,64,1,0,0,response1disk,,7,8,7,1,0,0,rectangle,8,7,1,0,0,8,7,1,0,0,0,64,64,96,1,,,,,,,,
,,,,,,,,,,,,,FF,,,,,,,,0.451,,,,,,,,,,,,,,,,,,,,,,60fe0df0dff66fde69e4ca76,610378bf79ff23eba6035b76,2021-07-29_23h03.54.207,Simcolourproject_2stim_asymm_v5,2020.2.10,MacIntel,60,61025ae37ef11b136ea224fe,,,,,,,,,3413,32,53,1,0,0,response1disk,,7,10,9,1,0,0,rectangle,10,9,1,0,0,10,9,1,0,0,0,65,65,107,1,,,,,,,,
,,,,,,,,,,,,,FF,,,,,,,,0.482,,,,,,,,,,,,,,,,,,,,,,60fe0df0dff66fde69e4ca76,610378bf79ff23eba6035b76,2021-07-29_23h03.54.207,Simcolourproject_2stim_asymm_v5,2020.2.10,MacIntel,60,61025ae37ef11b136ea224fe,,,,,,,,,63,39,79,1,0,0,response1disk,,7,2,13,1,0,0,rectangle,2,13,1,0,0,2,13,1,0,0,0,66,66,35,1,,,,,,,,
,,,,,,,,,,,,,FF,,,,,,,,1.166,,,,,,,,,,,,,,,,,,,,,,60fe0df0dff66fde69e4ca76,610378bf79ff23eba6035b76,2021-07-29_23h03.54.207,Simcolourproject_2stim_asymm_v5,2020.2.10,MacIntel,60,61025ae37ef11b136ea224fe,,,,,,,,,3088,41,-42,1,0,0,response3disk,,4,19,-3,1,0,0,rectangle,19,-3,1,0,0,19,-3,1,0,0,0,67,67,67,1,,,,,,,,
,,,,,,,,,,,,,FF,,,,,,,,0.568,,,,,,,,,,,,,,,,,,,,,,60fe0df0dff66fde69e4ca76,610378bf79ff23eba6035b76,2021-07-29_23h03.54.207,Simcolourproject_2stim_asymm_v5,2020.2.10,MacIntel,60,61025ae37ef11b136ea224fe,,,,,,,,,1101,19,70,1,0,0,response1disk,,7,1,9,1,0,0,rectangle,1,9,1,0,0,1,9,1,0,0,0,68,68,14,1,,,,,,,,
,,,,,,,,,,,,,FF,,,,,,,,0.45,,,,,,,,,,,,,,,,,,,,,,60fe0df0dff66fde69e4ca76,610378bf79ff23eba6035b76,2021-07-29_23h03.54.207,Simcolourproject_2stim_asymm_v5,2020.2.10,MacIntel,60,61025ae37ef11b136ea224fe,,,,,,,,,2453,22,49,1,0,0,response1disk,,7,8,12,1,0,0,rectangle,8,12,1,0,0,8,12,1,0,0,0,69,69,82,1,,,,,,,,
,,,,,,,,,,,,,FF,,,,,,,,1.033,,,,,,,,,,,,,,,,,,,,,,60fe0df0dff66fde69e4ca76,610378bf79ff23eba6035b76,2021-07-29_23h03.54.207,Simcolourproject_2stim_asymm_v5,2020.2.10,MacIntel,60,61025ae37ef11b136ea224fe,,,,,,,,,1463,78,-29,1,0,0,response3disk,,5,31,-4,1,0,0,rectangle,31,-4,1,0,0,31,-4,1,0,0,0,70,70,115,1,,,,,,,,
,,,,,,,,,,,,,FF,,,,,,,,0.7,,,,,,,,,,,,,,,,,,,,,,60fe0df0dff66fde69e4ca76,610378bf79ff23eba6035b76,2021-07-29_23h03.54.207,Simcolourproject_2stim_asymm_v5,2020.2.10,MacIntel,60,61025ae37ef11b136ea224fe,,,,,,,,,511,42,46,1,0,0,response1disk,,7,3,1,1,0,0,rectangle,3,1,1,0,0,3,1,1,0,0,0,71,71,129,1,,,,,,,,
,,,,,,,,,,,,,FF,,,,,,,,0.616,,,,,,,,,,,,,,,,,,,,,,60fe0df0dff66fde69e4ca76,610378bf79ff23eba6035b76,2021-07-29_23h03.54.207,Simcolourproject_2stim_asymm_v5,2020.2.10,MacIntel,60,61025ae37ef11b136ea224fe,,,,,,,,,1289,20,47,1,0,0,response1disk,,7,-9,2,1,0,0,rectangle,-9,2,1,0,0,-9,2,1,0,0,0,72,72,128,1,,,,,,,,
,,,,,,,,,,,,,FF,,,,,,,,1.916,,,,,,,,,,,,,,,,,,,,,,60fe0df0dff66fde69e4ca76,610378bf79ff23eba6035b76,2021-07-29_23h03.54.207,Simcolourproject_2stim_asymm_v5,2020.2.10,MacIntel,60,61025ae37ef11b136ea224fe,,,,,,,,,1134,20,-57,1,0,0,response3disk,,4,11,15,1,0,0,rectangle,11,15,1,0,0,11,15,1,0,0,0,73,73,26,1,,,,,,,,
,,,,,,,,,,,,,FF,,,,,,,,1.233,,,,,,,,,,,,,,,,,,,,,,60fe0df0dff66fde69e4ca76,610378bf79ff23eba6035b76,2021-07-29_23h03.54.207,Simcolourproject_2stim_asymm_v5,2020.2.10,MacIntel,60,61025ae37ef11b136ea224fe,,,,,,,,,2596,27,77,1,0,0,response1disk,,7,2,3,1,0,0,rectangle,2,3,1,0,0,2,3,1,0,0,0,74,74,81,1,,,,,,,,
,,,,,,,,,,,,,FF,,,,,,,,1.384,,,,,,,,,,,,,,,,,,,,,,60fe0df0dff66fde69e4ca76,610378bf79ff23eba6035b76,2021-07-29_23h03.54.207,Simcolourproject_2stim_asymm_v5,2020.2.10,MacIntel,60,61025ae37ef11b136ea224fe,,,,,,,,,121,38,76,1,0,0,response1disk,,7,8,10,1,0,0,rectangle,8,10,1,0,0,8,10,1,0,0,0,75,75,31,1,,,,,,,,
,,,,,,,,,,,,,FF,,,,,,,,1.617,,,,,,,,,,,,,,,,,,,,,,60fe0df0dff66fde69e4ca76,610378bf79ff23eba6035b76,2021-07-29_23h03.54.207,Simcolourproject_2stim_asymm_v5,2020.2.10,MacIntel,60,61025ae37ef11b136ea224fe,,,,,,,,,3000,-82,-33,1,0,0,response5disk,,2,-4,-1,1,0,0,rectangle,-4,-1,1,0,0,-4,-1,1,0,0,0,76,76,23,1,,,,,,,,
,,,,,,,,,,,,,FF,,,,,,,,1.4,,,,,,,,,,,,,,,,,,,,,,60fe0df0dff66fde69e4ca76,610378bf79ff23eba6035b76,2021-07-29_23h03.54.207,Simcolourproject_2stim_asymm_v5,2020.2.10,MacIntel,60,61025ae37ef11b136ea224fe,,,,,,,,,3902,27,66,1,0,0,response1disk,,7,1,1,1,0,0,rectangle,1,1,1,0,0,1,1,1,0,0,0,77,77,131,1,,,,,,,,
,,,,,,,,,,,,,FF,,,,,,,,1.183,,,,,,,,,,,,,,,,,,,,,,60fe0df0dff66fde69e4ca76,610378bf79ff23eba6035b76,2021-07-29_23h03.54.207,Simcolourproject_2stim_asymm_v5,2020.2.10,MacIntel,60,61025ae37ef11b136ea224fe,,,,,,,,,2951,32,-63,1,0,0,response3disk,,4,2,0,1,0,0,rectangle,2,0,1,0,0,2,0,1,0,0,0,78,78,133,1,,,,,,,,
,,,,,,,,,,,,,FF,,,,,,,,1.033,,,,,,,,,,,,,,,,,,,,,,60fe0df0dff66fde69e4ca76,610378bf79ff23eba6035b76,2021-07-29_23h03.54.207,Simcolourproject_2stim_asymm_v5,2020.2.10,MacIntel,60,61025ae37ef11b136ea224fe,,,,,,,,,1891,20,-55,1,0,0,response3disk,,4,-11,-5,1,0,0,rectangle,-11,-5,1,0,0,-11,-5,1,0,0,0,79,79,71,1,,,,,,,,
,,,,,,,,,,,,,FF,,,,,,,,1.95,,,,,,,,,,,,,,,,,,,,,,60fe0df0dff66fde69e4ca76,610378bf79ff23eba6035b76,2021-07-29_23h03.54.207,Simcolourproject_2stim_asymm_v5,2020.2.10,MacIntel,60,61025ae37ef11b136ea224fe,,,,,,,,,310,47,92,1,0,0,response1disk,,7,3,-3,1,0,0,rectangle,32,-61,1,0,0,6,0,1,0,0,0,80,80,60,1,,response3disk_3,TRUE,4,4,"[150,196,204,275,212,297,284,268,21,95,124,41,13,133,42,212,81,239,106,308]",1.301,rectangle
,,,,,,,,,,,,,FF,,,,,,,,0.582,,,,,,,,,,,,,,,,,,,,,,60fe0df0dff66fde69e4ca76,610378bf79ff23eba6035b76,2021-07-29_23h03.54.207,Simcolourproject_2stim_asymm_v5,2020.2.10,MacIntel,60,61025ae37ef11b136ea224fe,,,,,,,,,2570,37,69,1,0,0,response1disk,,7,12,-7,1,0,0,rectangle,12,-7,1,0,0,12,-7,1,0,0,0,81,81,68,1,,,,,,,,
,,,,,,,,,,,,,FF,,,,,,,,0.566,,,,,,,,,,,,,,,,,,,,,,60fe0df0dff66fde69e4ca76,610378bf79ff23eba6035b76,2021-07-29_23h03.54.207,Simcolourproject_2stim_asymm_v5,2020.2.10,MacIntel,60,61025ae37ef11b136ea224fe,,,,,,,,,1575,32,54,1,0,0,response1disk,,7,9,5,1,0,0,rectangle,9,5,1,0,0,9,5,1,0,0,0,82,82,126,1,,,,,,,,
,,,,,,,,,,,,,FF,,,,,,,,0.383,,,,,,,,,,,,,,,,,,,,,,60fe0df0dff66fde69e4ca76,610378bf79ff23eba6035b76,2021-07-29_23h03.54.207,Simcolourproject_2stim_asymm_v5,2020.2.10,MacIntel,60,61025ae37ef11b136ea224fe,,,,,,,,,761,33,74,1,0,0,response1disk,,7,-6,9,1,0,0,rectangle,-6,9,1,0,0,-6,9,1,0,0,0,83,83,108,1,,,,,,,,
,,,,,,,,,,,,,FF,,,,,,,,0.733,,,,,,,,,,,,,,,,,,,,,,60fe0df0dff66fde69e4ca76,610378bf79ff23eba6035b76,2021-07-29_23h03.54.207,Simcolourproject_2stim_asymm_v5,2020.2.10,MacIntel,60,61025ae37ef11b136ea224fe,,,,,,,,,515,30,75,1,0,0,response1disk,,7,-11,5,1,0,0,rectangle,-11,5,1,0,0,-11,5,1,0,0,0,84,84,84,1,,,,,,,,
,,,,,,,,,,,,,FF,,,,,,,,0.767,,,,,,,,,,,,,,,,,,,,,,60fe0df0dff66fde69e4ca76,610378bf79ff23eba6035b76,2021-07-29_23h03.54.207,Simcolourproject_2stim_asymm_v5,2020.2.10,MacIntel,60,61025ae37ef11b136ea224fe,,,,,,,,,1447,-50,28,1,0,0,response7disk,,1,-7,-1,1,0,0,rectangle,-7,-1,1,0,0,-7,-1,1,0,0,0,85,85,79,1,,,,,,,,
,,,,,,,,,,,,,FF,,,,,,,,0.782,,,,,,,,,,,,,,,,,,,,,,60fe0df0dff66fde69e4ca76,610378bf79ff23eba6035b76,2021-07-29_23h03.54.207,Simcolourproject_2stim_asymm_v5,2020.2.10,MacIntel,60,61025ae37ef11b136ea224fe,,,,,,,,,3477,-32,-76,1,0,0,response5disk,,3,4,4,1,0,0,rectangle,4,4,1,0,0,4,4,1,0,0,0,86,86,28,1,,,,,,,,
,,,,,,,,,,,,,FF,,,,,,,,0.466,,,,,,,,,,,,,,,,,,,,,,60fe0df0dff66fde69e4ca76,610378bf79ff23eba6035b76,2021-07-29_23h03.54.207,Simcolourproject_2stim_asymm_v5,2020.2.10,MacIntel,60,61025ae37ef11b136ea224fe,,,,,,,,,2186,35,59,1,0,0,response1disk,,7,2,-1,1,0,0,rectangle,2,-1,1,0,0,2,-1,1,0,0,0,87,87,150,1,,,,,,,,
,,,,,,,,,,,,,FF,,,,,,,,1.234,,,,,,,,,,,,,,,,,,,,,,60fe0df0dff66fde69e4ca76,610378bf79ff23eba6035b76,2021-07-29_23h03.54.207,Simcolourproject_2stim_asymm_v5,2020.2.10,MacIntel,60,61025ae37ef11b136ea224fe,,,,,,,,,1139,49,96,1,0,0,response1disk,,7,14,4,1,0,0,rectangle,14,4,1,0,0,14,4,1,0,0,0,88,88,132,1,,,,,,,,
,,,,,,,,,,,,,FF,,,,,,,,0.717,,,,,,,,,,,,,,,,,,,,,,60fe0df0dff66fde69e4ca76,610378bf79ff23eba6035b76,2021-07-29_23h03.54.207,Simcolourproject_2stim_asymm_v5,2020.2.10,MacIntel,60,61025ae37ef11b136ea224fe,,,,,,,,,2032,-34,-55,1,0,0,response5disk,,3,-5,-14,1,0,0,rectangle,-5,-14,1,0,0,-5,-14,1,0,0,0,89,89,38,1,,,,,,,,
,,,,,,,,,,,,,FF,,,,,,,,0.884,,,,,,,,,,,,,,,,,,,,,,60fe0df0dff66fde69e4ca76,610378bf79ff23eba6035b76,2021-07-29_23h03.54.207,Simcolourproject_2stim_asymm_v5,2020.2.10,MacIntel,60,61025ae37ef11b136ea224fe,,,,,,,,,378,68,49,1,0,0,response1disk,,6,8,4,1,0,0,rectangle,8,4,1,0,0,8,4,1,0,0,0,90,90,149,1,,,,,,,,
,,,,,,,,,,,,,FF,,,,,,,,0.633,,,,,,,,,,,,,,,,,,,,,,60fe0df0dff66fde69e4ca76,610378bf79ff23eba6035b76,2021-07-29_23h03.54.207,Simcolourproject_2stim_asymm_v5,2020.2.10,MacIntel,60,61025ae37ef11b136ea224fe,,,,,,,,,2673,29,38,1,0,0,response1disk,,7,6,9,1,0,0,rectangle,6,9,1,0,0,6,9,1,0,0,0,91,91,27,1,,,,,,,,
,,,,,,,,,,,,,FF,,,,,,,,0.433,,,,,,,,,,,,,,,,,,,,,,60fe0df0dff66fde69e4ca76,610378bf79ff23eba6035b76,2021-07-29_23h03.54.207,Simcolourproject_2stim_asymm_v5,2020.2.10,MacIntel,60,61025ae37ef11b136ea224fe,,,,,,,,,766,29,47,1,0,0,response1disk,,7,3,2,1,0,0,rectangle,3,2,1,0,0,3,2,1,0,0,0,92,92,65,1,,,,,,,,
,,,,,,,,,,,,,FF,,,,,,,,0.484,,,,,,,,,,,,,,,,,,,,,,60fe0df0dff66fde69e4ca76,610378bf79ff23eba6035b76,2021-07-29_23h03.54.207,Simcolourproject_2stim_asymm_v5,2020.2.10,MacIntel,60,61025ae37ef11b136ea224fe,,,,,,,,,2308,34,52,1,0,0,response1disk,,7,19,11,1,0,0,rectangle,19,11,1,0,0,19,11,1,0,0,0,93,93,0,1,,,,,,,,
,,,,,,,,,,,,,FF,,,,,,,,0.667,,,,,,,,,,,,,,,,,,,,,,60fe0df0dff66fde69e4ca76,610378bf79ff23eba6035b76,2021-07-29_23h03.54.207,Simcolourproject_2stim_asymm_v5,2020.2.10,MacIntel,60,61025ae37ef11b136ea224fe,,,,,,,,,380,33,70,1,0,0,response1disk,,7,15,5,1,0,0,rectangle,49,90,1,0,0,21,9,1,0,0,0,94,94,64,1,,response1disk_3,TRUE,7,1,"[150,196,204,275,212,297,284,268,21,95,124,41,13,133,42,212,81,239,106,308]",1.351,rectangle
,,,,,,,,,,,,,FF,,,,,,,,0.532,,,,,,,,,,,,,,,,,,,,,,60fe0df0dff66fde69e4ca76,610378bf79ff23eba6035b76,2021-07-29_23h03.54.207,Simcolourproject_2stim_asymm_v5,2020.2.10,MacIntel,60,61025ae37ef11b136ea224fe,,,,,,,,,3891,39,63,1,0,0,response1disk,,7,-8,-7,1,0,0,rectangle,-8,-7,1,0,0,-8,-7,1,0,0,0,95,95,153,1,,,,,,,,
,,,,,,,,,,,,,FF,,,,,,,,0.45,,,,,,,,,,,,,,,,,,,,,,60fe0df0dff66fde69e4ca76,610378bf79ff23eba6035b76,2021-07-29_23h03.54.207,Simcolourproject_2stim_asymm_v5,2020.2.10,MacIntel,60,61025ae37ef11b136ea224fe,,,,,,,,,845,20,54,1,0,0,response1disk,,7,-4,6,1,0,0,rectangle,-4,6,1,0,0,-4,6,1,0,0,0,96,96,127,1,,,,,,,,
,,,,,,,,,,,,,FF,,,,,,,,0.833,,,,,,,,,,,,,,,,,,,,,,60fe0df0dff66fde69e4ca76,610378bf79ff23eba6035b76,2021-07-29_23h03.54.207,Simcolourproject_2stim_asymm_v5,2020.2.10,MacIntel,60,61025ae37ef11b136ea224fe,,,,,,,,,4142,45,-37,1,0,0,response3disk,,5,8,-6,1,0,0,rectangle,8,-6,1,0,0,8,-6,1,0,0,0,97,97,59,1,,,,,,,,
,,,,,,,,,,,,,FF,,,,,,,,1.167,,,,,,,,,,,,,,,,,,,,,,60fe0df0dff66fde69e4ca76,610378bf79ff23eba6035b76,2021-07-29_23h03.54.207,Simcolourproject_2stim_asymm_v5,2020.2.10,MacIntel,60,61025ae37ef11b136ea224fe,,,,,,,,,1496,24,57,1,0,0,response1disk,,7,3,12,1,0,0,rectangle,3,12,1,0,0,3,12,1,0,0,0,98,98,10,1,,,,,,,,
,,,,,,,,,,,,,FF,,,,,,,,0.399,,,,,,,,,,,,,,,,,,,,,,60fe0df0dff66fde69e4ca76,610378bf79ff23eba6035b76,2021-07-29_23h03.54.207,Simcolourproject_2stim_asymm_v5,2020.2.10,MacIntel,60,61025ae37ef11b136ea224fe,,,,,,,,,1046,34,62,1,0,0,response1disk,,7,7,11,1,0,0,rectangle,7,11,1,0,0,7,11,1,0,0,0,99,99,7,1,,,,,,,,
,,,,,,,,,,,,,FF,,,,,,,,0.5,,,,,,,,,,,,,,,,,,,,,,60fe0df0dff66fde69e4ca76,610378bf79ff23eba6035b76,2021-07-29_23h03.54.207,Simcolourproject_2stim_asymm_v5,2020.2.10,MacIntel,60,61025ae37ef11b136ea224fe,,,,,,,,,15,36,63,1,0,0,response1disk,,7,11,17,1,0,0,rectangle,11,17,1,0,0,11,17,1,0,0,0,100,100,76,1,,,,,,,,
,,,,,,,,,,,,,FF,,,,,,,,0.316,,,,,,,,,,,,,,,,,,,,,,60fe0df0dff66fde69e4ca76,610378bf79ff23eba6035b76,2021-07-29_23h03.54.207,Simcolourproject_2stim_asymm_v5,2020.2.10,MacIntel,60,61025ae37ef11b136ea224fe,,,,,,,,,1863,45,68,1,0,0,response1disk,,7,11,7,1,0,0,rectangle,11,7,1,0,0,11,7,1,0,0,0,101,101,145,1,,,,,,,,
,,,,,,,,,,,,,FF,,,,,,,,0.816,,,,,,,,,,,,,,,,,,,,,,60fe0df0dff66fde69e4ca76,610378bf79ff23eba6035b76,2021-07-29_23h03.54.207,Simcolourproject_2stim_asymm_v5,2020.2.10,MacIntel,60,61025ae37ef11b136ea224fe,,,,,,,,,3622,63,-31,1,0,0,response3disk,,5,15,-5,1,0,0,rectangle,15,-5,1,0,0,15,-5,1,0,0,0,102,102,116,1,,,,,,,,
,,,,,,,,,,,,,FF,,,,,,,,0.733,,,,,,,,,,,,,,,,,,,,,,60fe0df0dff66fde69e4ca76,610378bf79ff23eba6035b76,2021-07-29_23h03.54.207,Simcolourproject_2stim_asymm_v5,2020.2.10,MacIntel,60,61025ae37ef11b136ea224fe,,,,,,,,,3165,16,48,1,0,0,response1disk,,7,4,8,1,0,0,rectangle,4,8,1,0,0,4,8,1,0,0,0,103,103,94,1,,,,,,,,
,,,,,,,,,,,,,FF,,,,,,,,0.566,,,,,,,,,,,,,,,,,,,,,,60fe0df0dff66fde69e4ca76,610378bf79ff23eba6035b76,2021-07-29_23h03.54.207,Simcolourproject_2stim_asymm_v5,2020.2.10,MacIntel,60,61025ae37ef11b136ea224fe,,,,,,,,,1090,35,56,1,0,0,response1disk,,7,16,3,1,0,0,rectangle,16,3,1,0,0,16,3,1,0,0,0,104,104,110,1,,,,,,,,
,,,,,,,,,,,,,FF,,,,,,,,0.483,,,,,,,,,,,,,,,,,,,,,,60fe0df0dff66fde69e4ca76,610378bf79ff23eba6035b76,2021-07-29_23h03.54.207,Simcolourproject_2stim_asymm_v5,2020.2.10,MacIntel,60,61025ae37ef11b136ea224fe,,,,,,,,,1277,43,70,1,0,0,response1disk,,7,22,17,1,0,0,rectangle,52,33,1,0,0,10,13,1,0,0,0,105,105,4,1,,response1disk_3,TRUE,6,6,"[150,196,204,275,212,297,284,268,21,95,124,41,13,133,42,212,81,239,106,308]",1.366,rectangle
,,,,,,,,,,,,,FF,,,,,,,,0.483,,,,,,,,,,,,,,,,,,,,,,60fe0df0dff66fde69e4ca76,610378bf79ff23eba6035b76,2021-07-29_23h03.54.207,Simcolourproject_2stim_asymm_v5,2020.2.10,MacIntel,60,61025ae37ef11b136ea224fe,,,,,,,,,1260,41,74,1,0,0,response1disk,,7,7,0,1,0,0,rectangle,7,0,1,0,0,7,0,1,0,0,0,106,106,33,1,,,,,,,,
,,,,,,,,,,,,,FF,,,,,,,,0.966,,,,,,,,,,,,,,,,,,,,,,60fe0df0dff66fde69e4ca76,610378bf79ff23eba6035b76,2021-07-29_23h03.54.207,Simcolourproject_2stim_asymm_v5,2020.2.10,MacIntel,60,61025ae37ef11b136ea224fe,,,,,,,,,2095,59,-16,1,0,0,response3disk,,5,-2,-8,1,0,0,rectangle,-2,-8,1,0,0,-2,-8,1,0,0,0,107,107,11,1,,,,,,,,
,,,,,,,,,,,,,FF,,,,,,,,0.482,,,,,,,,,,,,,,,,,,,,,,60fe0df0dff66fde69e4ca76,610378bf79ff23eba6035b76,2021-07-29_23h03.54.207,Simcolourproject_2stim_asymm_v5,2020.2.10,MacIntel,60,61025ae37ef11b136ea224fe,,,,,,,,,2124,52,77,1,0,0,response1disk,,7,12,13,1,0,0,rectangle,12,13,1,0,0,12,13,1,0,0,0,108,108,97,1,,,,,,,,
,,,,,,,,,,,,,FF,,,,,,,,1,,,,,,,,,,,,,,,,,,,,,,60fe0df0dff66fde69e4ca76,610378bf79ff23eba6035b76,2021-07-29_23h03.54.207,Simcolourproject_2stim_asymm_v5,2020.2.10,MacIntel,60,61025ae37ef11b136ea224fe,,,,,,,,,1381,19,51,1,0,0,response1disk,,7,1,5,1,0,0,rectangle,1,5,1,0,0,1,5,1,0,0,0,109,109,77,1,,,,,,,,
,,,,,,,,,,,,,FF,,,,,,,,0.351,,,,,,,,,,,,,,,,,,,,,,60fe0df0dff66fde69e4ca76,610378bf79ff23eba6035b76,2021-07-29_23h03.54.207,Simcolourproject_2stim_asymm_v5,2020.2.10,MacIntel,60,61025ae37ef11b136ea224fe,,,,,,,,,2858,55,69,1,0,0,response1disk,,7,14,5,1,0,0,rectangle,14,5,1,0,0,14,5,1,0,0,0,110,110,58,1,,,,,,,,
,,,,,,,,,,,,,FF,,,,,,,,0.416,,,,,,,,,,,,,,,,,,,,,,60fe0df0dff66fde69e4ca76,610378bf79ff23eba6035b76,2021-07-29_23h03.54.207,Simcolourproject_2stim_asymm_v5,2020.2.10,MacIntel,60,61025ae37ef11b136ea224fe,,,,,,,,,1066,36,69,1,0,0,response1disk,,7,11,12,1,0,0,rectangle,11,12,1,0,0,11,12,1,0,0,0,111,111,113,1,,,,,,,,
,,,,,,,,,,,,,FF,,,,,,,,1.901,,,,,,,,,,,,,,,,,,,,,,60fe0df0dff66fde69e4ca76,610378bf79ff23eba6035b76,2021-07-29_23h03.54.207,Simcolourproject_2stim_asymm_v5,2020.2.10,MacIntel,60,61025ae37ef11b136ea224fe,,,,,,,,,458,37,86,1,0,0,response1disk,,7,10,-8,1,0,0,rectangle,10,-8,1,0,0,10,-8,1,0,0,0,112,112,12,1,,,,,,,,
,,,,,,,,,,,,,FF,,,,,,,,0.433,,,,,,,,,,,,,,,,,,,,,,60fe0df0dff66fde69e4ca76,610378bf79ff23eba6035b76,2021-07-29_23h03.54.207,Simcolourproject_2stim_asymm_v5,2020.2.10,MacIntel,60,61025ae37ef11b136ea224fe,,,,,,,,,1588,38,82,1,0,0,response1disk,,7,6,-11,1,0,0,rectangle,6,-11,1,0,0,6,-11,1,0,0,0,113,113,32,1,,,,,,,,
,,,,,,,,,,,,,FF,,,,,,,,0.334,,,,,,,,,,,,,,,,,,,,,,60fe0df0dff66fde69e4ca76,610378bf79ff23eba6035b76,2021-07-29_23h03.54.207,Simcolourproject_2stim_asymm_v5,2020.2.10,MacIntel,60,61025ae37ef11b136ea224fe,,,,,,,,,3303,58,106,1,0,0,response1disk,,7,5,0,1,0,0,rectangle,5,0,1,0,0,5,0,1,0,0,0,114,114,18,1,,,,,,,,
,,,,,,,,,,,,,FF,,,,,,,,0.6,,,,,,,,,,,,,,,,,,,,,,60fe0df0dff66fde69e4ca76,610378bf79ff23eba6035b76,2021-07-29_23h03.54.207,Simcolourproject_2stim_asymm_v5,2020.2.10,MacIntel,60,61025ae37ef11b136ea224fe,,,,,,,,,863,28,58,1,0,0,response1disk,,7,10,9,1,0,0,rectangle,10,9,1,0,0,10,9,1,0,0,0,115,115,88,1,,,,,,,,
,,,,,,,,,,,,,FF,,,,,,,,0.349,,,,,,,,,,,,,,,,,,,,,,60fe0df0dff66fde69e4ca76,610378bf79ff23eba6035b76,2021-07-29_23h03.54.207,Simcolourproject_2stim_asymm_v5,2020.2.10,MacIntel,60,61025ae37ef11b136ea224fe,,,,,,,,,1882,47,79,1,0,0,response1disk,,7,19,8,1,0,0,rectangle,19,8,1,0,0,19,8,1,0,0,0,116,116,41,1,,,,,,,,
,,,,,,,,,,,,,FF,,,,,,,,0.35,,,,,,,,,,,,,,,,,,,,,,60fe0df0dff66fde69e4ca76,610378bf79ff23eba6035b76,2021-07-29_23h03.54.207,Simcolourproject_2stim_asymm_v5,2020.2.10,MacIntel,60,61025ae37ef11b136ea224fe,,,,,,,,,2352,39,61,1,0,0,response1disk,,7,16,5,1,0,0,rectangle,16,5,1,0,0,16,5,1,0,0,0,117,117,89,1,,,,,,,,
,,,,,,,,,,,,,FF,,,,,,,,0.433,,,,,,,,,,,,,,,,,,,,,,60fe0df0dff66fde69e4ca76,610378bf79ff23eba6035b76,2021-07-29_23h03.54.207,Simcolourproject_2stim_asymm_v5,2020.2.10,MacIntel,60,61025ae37ef11b136ea224fe,,,,,,,,,84,35,59,1,0,0,response1disk,,7,15,8,1,0,0,rectangle,15,8,1,0,0,15,8,1,0,0,0,118,118,117,1,,,,,,,,
,,,,,,,,,,,,,FF,,,,,,,,0.367,,,,,,,,,,,,,,,,,,,,,,60fe0df0dff66fde69e4ca76,610378bf79ff23eba6035b76,2021-07-29_23h03.54.207,Simcolourproject_2stim_asymm_v5,2020.2.10,MacIntel,60,61025ae37ef11b136ea224fe,,,,,,,,,347,49,80,1,0,0,response1disk,,7,-13,4,1,0,0,rectangle,-13,4,1,0,0,-13,4,1,0,0,0,119,119,56,1,,,,,,,,
,,,,,,,,,,,,,FF,,,,,,,,1.25,,,,,,,,,,,,,,,,,,,,,,60fe0df0dff66fde69e4ca76,610378bf79ff23eba6035b76,2021-07-29_23h03.54.207,Simcolourproject_2stim_asymm_v5,2020.2.10,MacIntel,60,61025ae37ef11b136ea224fe,,,,,,,,,3822,51,65,1,0,0,response1disk,,7,9,-2,1,0,0,rectangle,9,-2,1,0,0,9,-2,1,0,0,0,120,120,19,1,,,,,,,,
,,,,,,,,,,,,,FF,,,,,,,,1.183,,,,,,,,,,,,,,,,,,,,,,60fe0df0dff66fde69e4ca76,610378bf79ff23eba6035b76,2021-07-29_23h03.54.207,Simcolourproject_2stim_asymm_v5,2020.2.10,MacIntel,60,61025ae37ef11b136ea224fe,,,,,,,,,3332,57,-76,1,0,0,response3disk,,4,-6,-7,1,0,0,rectangle,-6,-7,1,0,0,-6,-7,1,0,0,0,121,121,15,1,,,,,,,,
,,,,,,,,,,,,,FF,,,,,,,,0.95,,,,,,,,,,,,,,,,,,,,,,60fe0df0dff66fde69e4ca76,610378bf79ff23eba6035b76,2021-07-29_23h03.54.207,Simcolourproject_2stim_asymm_v5,2020.2.10,MacIntel,60,61025ae37ef11b136ea224fe,,,,,,,,,4344,-34,72,1,0,0,response7disk,,0,3,11,1,0,0,rectangle,3,11,1,0,0,3,11,1,0,0,0,122,122,69,1,,,,,,,,
,,,,,,,,,,,,,FF,,,,,,,,0.983,,,,,,,,,,,,,,,,,,,,,,60fe0df0dff66fde69e4ca76,610378bf79ff23eba6035b76,2021-07-29_23h03.54.207,Simcolourproject_2stim_asymm_v5,2020.2.10,MacIntel,60,61025ae37ef11b136ea224fe,,,,,,,,,258,-46,-45,1,0,0,response5disk,,2,-10,-9,1,0,0,rectangle,88,54,1,0,0,11,2,1,0,0,0,123,123,61,1,,response1disk_3,TRUE,6,6,"[150,196,204,275,212,297,284,268,21,95,124,41,13,133,42,212,81,239,106,308]",1.267,rectangle
,,,,,,,,,,,,,FF,,,,,,,,0.733,,,,,,,,,,,,,,,,,,,,,,60fe0df0dff66fde69e4ca76,610378bf79ff23eba6035b76,2021-07-29_23h03.54.207,Simcolourproject_2stim_asymm_v5,2020.2.10,MacIntel,60,61025ae37ef11b136ea224fe,,,,,,,,,2693,29,89,1,0,0,response1disk,,7,0,-5,1,0,0,rectangle,0,-5,1,0,0,0,-5,1,0,0,0,124,124,100,1,,,,,,,,
,,,,,,,,,,,,,FF,,,,,,,,0.399,,,,,,,,,,,,,,,,,,,,,,60fe0df0dff66fde69e4ca76,610378bf79ff23eba6035b76,2021-07-29_23h03.54.207,Simcolourproject_2stim_asymm_v5,2020.2.10,MacIntel,60,61025ae37ef11b136ea224fe,,,,,,,,,4011,37,54,1,0,0,response1disk,,7,8,-3,1,0,0,rectangle,8,-3,1,0,0,8,-3,1,0,0,0,125,125,44,1,,,,,,,,
,,,,,,,,,,,,,FF,,,,,,,,0.915,,,,,,,,,,,,,,,,,,,,,,60fe0df0dff66fde69e4ca76,610378bf79ff23eba6035b76,2021-07-29_23h03.54.207,Simcolourproject_2stim_asymm_v5,2020.2.10,MacIntel,60,61025ae37ef11b136ea224fe,,,,,,,,,717,-30,73,1,0,0,response7disk,,0,1,4,1,0,0,rectangle,1,4,1,0,0,1,4,1,0,0,0,126,126,157,1,,,,,,,,
,,,,,,,,,,,,,FF,,,,,,,,0.566,,,,,,,,,,,,,,,,,,,,,,60fe0df0dff66fde69e4ca76,610378bf79ff23eba6035b76,2021-07-29_23h03.54.207,Simcolourproject_2stim_asymm_v5,2020.2.10,MacIntel,60,61025ae37ef11b136ea224fe,,,,,,,,,1631,22,67,1,0,0,response1disk,,7,6,11,1,0,0,rectangle,6,11,1,0,0,6,11,1,0,0,0,127,127,146,1,,,,,,,,
,,,,,,,,,,,,,FF,,,,,,,,1.083,,,,,,,,,,,,,,,,,,,,,,60fe0df0dff66fde69e4ca76,610378bf79ff23eba6035b76,2021-07-29_23h03.54.207,Simcolourproject_2stim_asymm_v5,2020.2.10,MacIntel,60,61025ae37ef11b136ea224fe,,,,,,,,,275,-27,74,1,0,0,response7disk,,0,3,5,1,0,0,rectangle,3,5,1,0,0,3,5,1,0,0,0,128,128,25,1,,,,,,,,
,,,,,,,,,,,,,FF,,,,,,,,0.832,,,,,,,,,,,,,,,,,,,,,,60fe0df0dff66fde69e4ca76,610378bf79ff23eba6035b76,2021-07-29_23h03.54.207,Simcolourproject_2stim_asymm_v5,2020.2.10,MacIntel,60,61025ae37ef11b136ea224fe,,,,,,,,,1133,39,-66,1,0,0,response3disk,,4,3,-7,1,0,0,rectangle,3,-7,1,0,0,3,-7,1,0,0,0,129,129,83,1,,,,,,,,
,,,,,,,,,,,,,FF,,,,,,,,0.85,,,,,,,,,,,,,,,,,,,,,,60fe0df0dff66fde69e4ca76,610378bf79ff23eba6035b76,2021-07-29_23h03.54.207,Simcolourproject_2stim_asymm_v5,2020.2.10,MacIntel,60,61025ae37ef11b136ea224fe,,,,,,,,,2635,32,57,1,0,0,response1disk,,7,10,-9,1,0,0,rectangle,10,-9,1,0,0,10,-9,1,0,0,0,130,130,119,1,,,,,,,,
,,,,,,,,,,,,,FF,,,,,,,,0.533,,,,,,,,,,,,,,,,,,,,,,60fe0df0dff66fde69e4ca76,610378bf79ff23eba6035b76,2021-07-29_23h03.54.207,Simcolourproject_2stim_asymm_v5,2020.2.10,MacIntel,60,61025ae37ef11b136ea224fe,,,,,,,,,1068,22,39,1,0,0,response1disk,,7,16,5,1,0,0,rectangle,16,5,1,0,0,16,5,1,0,0,0,131,131,29,1,,,,,,,,
,,,,,,,,,,,,,FF,,,,,,,,1.399,,,,,,,,,,,,,,,,,,,,,,60fe0df0dff66fde69e4ca76,610378bf79ff23eba6035b76,2021-07-29_23h03.54.207,Simcolourproject_2stim_asymm_v5,2020.2.10,MacIntel,60,61025ae37ef11b136ea224fe,,,,,,,,,778,29,62,1,0,0,response1disk,,7,3,-1,1,0,0,rectangle,-80,-26,1,0,0,-11,-3,1,0,0,0,132,132,137,1,,response5disk_3,TRUE,2,2,"[150,196,204,275,212,297,284,268,21,95,124,41,13,133,42,212,81,239,106,308]",1.651,rectangle
,,,,,,,,,,,,,FF,,,,,,,,1.166,,,,,,,,,,,,,,,,,,,,,,60fe0df0dff66fde69e4ca76,610378bf79ff23eba6035b76,2021-07-29_23h03.54.207,Simcolourproject_2stim_asymm_v5,2020.2.10,MacIntel,60,61025ae37ef11b136ea224fe,,,,,,,,,4099,-23,-65,1,0,0,response5disk,,3,0,-14,1,0,0,rectangle,0,-14,1,0,0,0,-14,1,0,0,0,133,133,90,1,,,,,,,,
,,,,,,,,,,,,,FF,,,,,,,,0.599,,,,,,,,,,,,,,,,,,,,,,60fe0df0dff66fde69e4ca76,610378bf79ff23eba6035b76,2021-07-29_23h03.54.207,Simcolourproject_2stim_asymm_v5,2020.2.10,MacIntel,60,61025ae37ef11b136ea224fe,,,,,,,,,2700,25,59,1,0,0,response1disk,,7,9,-8,1,0,0,rectangle,9,-8,1,0,0,9,-8,1,0,0,0,134,134,5,1,,,,,,,,
,,,,,,,,,,,,,FF,,,,,,,,0.9,,,,,,,,,,,,,,,,,,,,,,60fe0df0dff66fde69e4ca76,610378bf79ff23eba6035b76,2021-07-29_23h03.54.207,Simcolourproject_2stim_asymm_v5,2020.2.10,MacIntel,60,61025ae37ef11b136ea224fe,,,,,,,,,1639,25,54,1,0,0,response1disk,,7,11,3,1,0,0,rectangle,11,3,1,0,0,11,3,1,0,0,0,135,135,37,1,,,,,,,,
,,,,,,,,,,,,,FF,,,,,,,,0.982,,,,,,,,,,,,,,,,,,,,,,60fe0df0dff66fde69e4ca76,610378bf79ff23eba6035b76,2021-07-29_23h03.54.207,Simcolourproject_2stim_asymm_v5,2020.2.10,MacIntel,60,61025ae37ef11b136ea224fe,,,,,,,,,1596,-40,29,1,0,0,response7disk,,1,1,1,1,0,0,rectangle,1,1,1,0,0,1,1,1,0,0,0,136,136,87,1,,,,,,,,
,,,,,,,,,,,,,FF,,,,,,,,0.799,,,,,,,,,,,,,,,,,,,,,,60fe0df0dff66fde69e4ca76,610378bf79ff23eba6035b76,2021-07-29_23h03.54.207,Simcolourproject_2stim_asymm_v5,2020.2.10,MacIntel,60,61025ae37ef11b136ea224fe,,,,,,,,,3100,-31,-73,1,0,0,response5disk,,3,0,-5,1,0,0,rectangle,0,-5,1,0,0,0,-5,1,0,0,0,137,137,136,1,,,,,,,,
,,,,,,,,,,,,,FF,,,,,,,,0.767,,,,,,,,,,,,,,,,,,,,,,60fe0df0dff66fde69e4ca76,610378bf79ff23eba6035b76,2021-07-29_23h03.54.207,Simcolourproject_2stim_asymm_v5,2020.2.10,MacIntel,60,61025ae37ef11b136ea224fe,,,,,,,,,231,18,52,1,0,0,response1disk,,7,7,-6,1,0,0,rectangle,7,-6,1,0,0,7,-6,1,0,0,0,138,138,123,1,,,,,,,,
,,,,,,,,,,,,,FF,,,,,,,,0.783,,,,,,,,,,,,,,,,,,,,,,60fe0df0dff66fde69e4ca76,610378bf79ff23eba6035b76,2021-07-29_23h03.54.207,Simcolourproject_2stim_asymm_v5,2020.2.10,MacIntel,60,61025ae37ef11b136ea224fe,,,,,,,,,1717,19,52,1,0,0,response1disk,,7,3,4,1,0,0,rectangle,3,4,1,0,0,3,4,1,0,0,0,139,139,151,1,,,,,,,,
,,,,,,,,,,,,,FF,,,,,,,,3.068,,,,,,,,,,,,,,,,,,,,,,60fe0df0dff66fde69e4ca76,610378bf79ff23eba6035b76,2021-07-29_23h03.54.207,Simcolourproject_2stim_asymm_v5,2020.2.10,MacIntel,60,61025ae37ef11b136ea224fe,,,,,,,,,4166,27,43,1,0,0,response1disk,,7,-4,4,1,0,0,rectangle,-4,4,1,0,0,-4,4,1,0,0,0,140,140,46,1,,,,,,,,
,,,,,,,,,,,,,FF,,,,,,,,0.982,,,,,,,,,,,,,,,,,,,,,,60fe0df0dff66fde69e4ca76,610378bf79ff23eba6035b76,2021-07-29_23h03.54.207,Simcolourproject_2stim_asymm_v5,2020.2.10,MacIntel,60,61025ae37ef11b136ea224fe,,,,,,,,,1255,29,77,1,0,0,response1disk,,7,0,2,1,0,0,rectangle,0,2,1,0,0,0,2,1,0,0,0,141,141,43,1,,,,,,,,
,,,,,,,,,,,,,FF,,,,,,,,0.515,,,,,,,,,,,,,,,,,,,,,,60fe0df0dff66fde69e4ca76,610378bf79ff23eba6035b76,2021-07-29_23h03.54.207,Simcolourproject_2stim_asymm_v5,2020.2.10,MacIntel,60,61025ae37ef11b136ea224fe,,,,,,,,,2385,28,73,1,0,0,response1disk,,7,0,8,1,0,0,rectangle,0,8,1,0,0,0,8,1,0,0,0,142,142,55,1,,,,,,,,
,,,,,,,,,,,,,FF,,,,,,,,0.516,,,,,,,,,,,,,,,,,,,,,,60fe0df0dff66fde69e4ca76,610378bf79ff23eba6035b76,2021-07-29_23h03.54.207,Simcolourproject_2stim_asymm_v5,2020.2.10,MacIntel,60,61025ae37ef11b136ea224fe,,,,,,,,,3170,30,57,1,0,0,response1disk,,7,13,3,1,0,0,rectangle,13,3,1,0,0,13,3,1,0,0,0,143,143,140,1,,,,,,,,
,,,,,,,,,,,,,FF,,,,,,,,0.501,,,,,,,,,,,,,,,,,,,,,,60fe0df0dff66fde69e4ca76,610378bf79ff23eba6035b76,2021-07-29_23h03.54.207,Simcolourproject_2stim_asymm_v5,2020.2.10,MacIntel,60,61025ae37ef11b136ea224fe,,,,,,,,,379,32,57,1,0,0,response1disk,,7,19,-3,1,0,0,rectangle,19,-3,1,0,0,19,-3,1,0,0,0,144,144,34,1,,,,,,,,
,,,,,,,,,,,,,FF,,,,,,,,0.467,,,,,,,,,,,,,,,,,,,,,,60fe0df0dff66fde69e4ca76,610378bf79ff23eba6035b76,2021-07-29_23h03.54.207,Simcolourproject_2stim_asymm_v5,2020.2.10,MacIntel,60,61025ae37ef11b136ea224fe,,,,,,,,,1380,44,75,1,0,0,response1disk,,7,18,10,1,0,0,rectangle,18,10,1,0,0,18,10,1,0,0,0,145,145,122,1,,,,,,,,
,,,,,,,,,,,,,FF,,,,,,,,5.782,,,,,,,,,,,,,,,,,,,,,,60fe0df0dff66fde69e4ca76,610378bf79ff23eba6035b76,2021-07-29_23h03.54.207,Simcolourproject_2stim_asymm_v5,2020.2.10,MacIntel,60,61025ae37ef11b136ea224fe,,,,,,,,,3153,40,71,1,0,0,response1disk,,7,4,-3,1,0,0,rectangle,4,-3,1,0,0,4,-3,1,0,0,0,146,146,114,1,,,,,,,,
,,,,,,,,,,,,,FF,,,,,,,,1.334,,,,,,,,,,,,,,,,,,,,,,60fe0df0dff66fde69e4ca76,610378bf79ff23eba6035b76,2021-07-29_23h03.54.207,Simcolourproject_2stim_asymm_v5,2020.2.10,MacIntel,60,61025ae37ef11b136ea224fe,,,,,,,,,1205,63,-35,1,0,0,response3disk,,5,20,-4,1,0,0,rectangle,20,-4,1,0,0,20,-4,1,0,0,0,147,147,13,1,,,,,,,,
,,,,,,,,,,,,,FF,,,,,,,,0.699,,,,,,,,,,,,,,,,,,,,,,60fe0df0dff66fde69e4ca76,610378bf79ff23eba6035b76,2021-07-29_23h03.54.207,Simcolourproject_2stim_asymm_v5,2020.2.10,MacIntel,60,61025ae37ef11b136ea224fe,,,,,,,,,3294,34,-72,1,0,0,response3disk,,4,-4,-2,1,0,0,rectangle,-4,-2,1,0,0,-4,-2,1,0,0,0,148,148,78,1,,,,,,,,
,,,,,,,,,,,,,FF,,,,,,,,0.933,,,,,,,,,,,,,,,,,,,,,,60fe0df0dff66fde69e4ca76,610378bf79ff23eba6035b76,2021-07-29_23h03.54.207,Simcolourproject_2stim_asymm_v5,2020.2.10,MacIntel,60,61025ae37ef11b136ea224fe,,,,,,,,,1937,30,65,1,0,0,response1disk,,7,6,9,1,0,0,rectangle,74,36,1,0,0,30,14,1,0,0,0,149,149,101,1,,response1disk_3,TRUE,6,6,"[150,196,204,275,212,297,284,268,21,95,124,41,13,133,42,212,81,239,106,308]",1.301,rectangle
,,,,,,,,,,,,,FF,,,,,,,,0.649,,,,,,,,,,,,,,,,,,,,,,60fe0df0dff66fde69e4ca76,610378bf79ff23eba6035b76,2021-07-29_23h03.54.207,Simcolourproject_2stim_asymm_v5,2020.2.10,MacIntel,60,61025ae37ef11b136ea224fe,,,,,,,,,4331,21,68,1,0,0,response1disk,,7,1,7,1,0,0,rectangle,1,7,1,0,0,1,7,1,0,0,0,150,150,20,1,,,,,,,,
,,,,,,,,,,,,,FF,,,,,,,,0.516,,,,,,,,,,,,,,,,,,,,,,60fe0df0dff66fde69e4ca76,610378bf79ff23eba6035b76,2021-07-29_23h03.54.207,Simcolourproject_2stim_asymm_v5,2020.2.10,MacIntel,60,61025ae37ef11b136ea224fe,,,,,,,,,2348,30,80,1,0,0,response1disk,,7,11,15,1,0,0,rectangle,11,15,1,0,0,11,15,1,0,0,0,151,151,124,1,,,,,,,,
,,,,,,,,,,,,,FF,,,,,,,,0.499,,,,,,,,,,,,,,,,,,,,,,60fe0df0dff66fde69e4ca76,610378bf79ff23eba6035b76,2021-07-29_23h03.54.207,Simcolourproject_2stim_asymm_v5,2020.2.10,MacIntel,60,61025ae37ef11b136ea224fe,,,,,,,,,861,31,46,1,0,0,response1disk,,7,15,10,1,0,0,rectangle,15,10,1,0,0,15,10,1,0,0,0,152,152,141,1,,,,,,,,
,,,,,,,,,,,,,FF,,,,,,,,0.933,,,,,,,,,,,,,,,,,,,,,,60fe0df0dff66fde69e4ca76,610378bf79ff23eba6035b76,2021-07-29_23h03.54.207,Simcolourproject_2stim_asymm_v5,2020.2.10,MacIntel,60,61025ae37ef11b136ea224fe,,,,,,,,,3198,32,-86,1,0,0,response3disk,,4,-3,0,1,0,0,rectangle,-3,0,1,0,0,-3,0,1,0,0,0,153,153,106,1,,,,,,,,
,,,,,,,,,,,,,FF,,,,,,,,1.317,,,,,,,,,,,,,,,,,,,,,,60fe0df0dff66fde69e4ca76,610378bf79ff23eba6035b76,2021-07-29_23h03.54.207,Simcolourproject_2stim_asymm_v5,2020.2.10,MacIntel,60,61025ae37ef11b136ea224fe,,,,,,,,,3138,39,-55,1,0,0,response3disk,,4,5,-11,1,0,0,rectangle,5,-11,1,0,0,5,-11,1,0,0,0,154,154,62,1,,,,,,,,
,,,,,,,,,,,,,FF,,,,,,,,0.8,,,,,,,,,,,,,,,,,,,,,,60fe0df0dff66fde69e4ca76,610378bf79ff23eba6035b76,2021-07-29_23h03.54.207,Simcolourproject_2stim_asymm_v5,2020.2.10,MacIntel,60,61025ae37ef11b136ea224fe,,,,,,,,,2516,27,45,1,0,0,response1disk,,7,12,1,1,0,0,rectangle,12,1,1,0,0,12,1,1,0,0,0,155,155,45,1,,,,,,,,
,,,,,,,,,,,,,FF,,,,,,,,0.566,,,,,,,,,,,,,,,,,,,,,,60fe0df0dff66fde69e4ca76,610378bf79ff23eba6035b76,2021-07-29_23h03.54.207,Simcolourproject_2stim_asymm_v5,2020.2.10,MacIntel,60,61025ae37ef11b136ea224fe,,,,,,,,,3550,37,75,1,0,0,response1disk,,7,3,15,1,0,0,rectangle,3,15,1,0,0,3,15,1,0,0,0,156,156,147,1,,,,,,,,
,,,,,,,,,,,,,FF,,,,,,,,0.933,,,,,,,,,,,,,,,,,,,,,,60fe0df0dff66fde69e4ca76,610378bf79ff23eba6035b76,2021-07-29_23h03.54.207,Simcolourproject_2stim_asymm_v5,2020.2.10,MacIntel,60,61025ae37ef11b136ea224fe,,,,,,,,,3052,79,-37,1,0,0,response3disk,,5,9,-6,1,0,0,rectangle,9,-6,1,0,0,9,-6,1,0,0,0,157,157,155,1,,,,,,,,
,,,,,,,,,,,,,FF,,,,,,,,1.082,,,,,,,,,,,,,,,,,,,,,,60fe0df0dff66fde69e4ca76,610378bf79ff23eba6035b76,2021-07-29_23h03.54.207,Simcolourproject_2stim_asymm_v5,2020.2.10,MacIntel,60,61025ae37ef11b136ea224fe,,,,,,,,,1525,43,-88,1,0,0,response3disk,,4,8,-14,1,0,0,rectangle,8,-14,1,0,0,8,-14,1,0,0,0,158,158,154,1,,,,,,,,
,,,,,,,,,,,,,FF,,,,,,,,0.617,,,,,,,,,,,,,,,,,,,,,,60fe0df0dff66fde69e4ca76,610378bf79ff23eba6035b76,2021-07-29_23h03.54.207,Simcolourproject_2stim_asymm_v5,2020.2.10,MacIntel,60,61025ae37ef11b136ea224fe,,,,,,,,,573,29,61,1,0,0,response1disk,,7,4,-3,1,0,0,rectangle,4,-3,1,0,0,4,-3,1,0,0,0,159,159,91,1,,,,,,,,
,,,,,,,,,,,,,FF,,,,,,,,0.817,,,,,,,,,,,,,,,,,,,,,,60fe0df0dff66fde69e4ca76,610378bf79ff23eba6035b76,2021-07-29_23h03.54.207,Simcolourproject_2stim_asymm_v5,2020.2.10,MacIntel,60,61025ae37ef11b136ea224fe,,,,,,,,,287,65,30,1,0,0,response1disk,,6,2,3,1,0,0,rectangle,2,3,1,0,0,2,3,1,0,0,1,0,160,124,1,,,,,,,,
,,,,,,,,,,,,,FF,,,,,,,,4.45,,,,,,,,,,,,,,,,,,,,,,60fe0df0dff66fde69e4ca76,610378bf79ff23eba6035b76,2021-07-29_23h03.54.207,Simcolourproject_2stim_asymm_v5,2020.2.10,MacIntel,60,61025ae37ef11b136ea224fe,,,,,,,,,2133,37,86,1,0,0,response1disk,,7,-2,-6,1,0,0,rectangle,-2,-6,1,0,0,-2,-6,1,0,0,1,1,161,112,1,,,,,,,,
,,,,,,,,,,,,,FF,,,,,,,,0.833,,,,,,,,,,,,,,,,,,,,,,60fe0df0dff66fde69e4ca76,610378bf79ff23eba6035b76,2021-07-29_23h03.54.207,Simcolourproject_2stim_asymm_v5,2020.2.10,MacIntel,60,61025ae37ef11b136ea224fe,,,,,,,,,3917,52,-40,1,0,0,response3disk,,5,10,6,1,0,0,rectangle,10,6,1,0,0,10,6,1,0,0,1,2,162,97,1,,,,,,,,
,,,,,,,,,,,,,FF,,,,,,,,0.767,,,,,,,,,,,,,,,,,,,,,,60fe0df0dff66fde69e4ca76,610378bf79ff23eba6035b76,2021-07-29_23h03.54.207,Simcolourproject_2stim_asymm_v5,2020.2.10,MacIntel,60,61025ae37ef11b136ea224fe,,,,,,,,,4235,-51,59,1,0,0,response7disk,,0,-4,5,1,0,0,rectangle,-4,5,1,0,0,-4,5,1,0,0,1,3,163,147,1,,,,,,,,
,,,,,,,,,,,,,FF,,,,,,,,0.484,,,,,,,,,,,,,,,,,,,,,,60fe0df0dff66fde69e4ca76,610378bf79ff23eba6035b76,2021-07-29_23h03.54.207,Simcolourproject_2stim_asymm_v5,2020.2.10,MacIntel,60,61025ae37ef11b136ea224fe,,,,,,,,,31,37,86,1,0,0,response1disk,,7,0,8,1,0,0,rectangle,0,8,1,0,0,0,8,1,0,0,1,4,164,137,1,,,,,,,,
,,,,,,,,,,,,,FF,,,,,,,,3.515,,,,,,,,,,,,,,,,,,,,,,60fe0df0dff66fde69e4ca76,610378bf79ff23eba6035b76,2021-07-29_23h03.54.207,Simcolourproject_2stim_asymm_v5,2020.2.10,MacIntel,60,61025ae37ef11b136ea224fe,,,,,,,,,1422,91,24,1,0,0,response1disk,,6,5,-7,1,0,0,rectangle,5,-7,1,0,0,5,-7,1,0,0,1,5,165,96,1,,,,,,,,
,,,,,,,,,,,,,FF,,,,,,,,1.266,,,,,,,,,,,,,,,,,,,,,,60fe0df0dff66fde69e4ca76,610378bf79ff23eba6035b76,2021-07-29_23h03.54.207,Simcolourproject_2stim_asymm_v5,2020.2.10,MacIntel,60,61025ae37ef11b136ea224fe,,,,,,,,,688,40,75,1,0,0,response1disk,,7,11,-3,1,0,0,rectangle,11,-3,1,0,0,11,-3,1,0,0,1,6,166,154,1,,,,,,,,
,,,,,,,,,,,,,FF,,,,,,,,0.417,,,,,,,,,,,,,,,,,,,,,,60fe0df0dff66fde69e4ca76,610378bf79ff23eba6035b76,2021-07-29_23h03.54.207,Simcolourproject_2stim_asymm_v5,2020.2.10,MacIntel,60,61025ae37ef11b136ea224fe,,,,,,,,,1550,41,78,1,0,0,response1disk,,7,8,6,1,0,0,rectangle,8,6,1,0,0,8,6,1,0,0,1,7,167,23,1,,,,,,,,
,,,,,,,,,,,,,FF,,,,,,,,0.434,,,,,,,,,,,,,,,,,,,,,,60fe0df0dff66fde69e4ca76,610378bf79ff23eba6035b76,2021-07-29_23h03.54.207,Simcolourproject_2stim_asymm_v5,2020.2.10,MacIntel,60,61025ae37ef11b136ea224fe,,,,,,,,,945,20,47,1,0,0,response1disk,,7,10,3,1,0,0,rectangle,10,3,1,0,0,10,3,1,0,0,1,8,168,104,1,,,,,,,,
,,,,,,,,,,,,,FF,,,,,,,,1.567,,,,,,,,,,,,,,,,,,,,,,60fe0df0dff66fde69e4ca76,610378bf79ff23eba6035b76,2021-07-29_23h03.54.207,Simcolourproject_2stim_asymm_v5,2020.2.10,MacIntel,60,61025ae37ef11b136ea224fe,,,,,,,,,3029,34,60,1,0,0,response1disk,,7,17,1,1,0,0,rectangle,17,1,1,0,0,17,1,1,0,0,1,9,169,102,1,,,,,,,,
,,,,,,,,,,,,,FF,,,,,,,,0.5,,,,,,,,,,,,,,,,,,,,,,60fe0df0dff66fde69e4ca76,610378bf79ff23eba6035b76,2021-07-29_23h03.54.207,Simcolourproject_2stim_asymm_v5,2020.2.10,MacIntel,60,61025ae37ef11b136ea224fe,,,,,,,,,2792,19,48,1,0,0,response1disk,,7,8,10,1,0,0,rectangle,8,10,1,0,0,8,10,1,0,0,1,10,170,146,1,,,,,,,,
,,,,,,,,,,,,,FF,,,,,,,,0.783,,,,,,,,,,,,,,,,,,,,,,60fe0df0dff66fde69e4ca76,610378bf79ff23eba6035b76,2021-07-29_23h03.54.207,Simcolourproject_2stim_asymm_v5,2020.2.10,MacIntel,60,61025ae37ef11b136ea224fe,,,,,,,,,601,38,89,1,0,0,response1disk,,7,7,12,1,0,0,rectangle,7,12,1,0,0,7,12,1,0,0,1,11,171,120,1,,,,,,,,
,,,,,,,,,,,,,FF,,,,,,,,0.601,,,,,,,,,,,,,,,,,,,,,,60fe0df0dff66fde69e4ca76,610378bf79ff23eba6035b76,2021-07-29_23h03.54.207,Simcolourproject_2stim_asymm_v5,2020.2.10,MacIntel,60,61025ae37ef11b136ea224fe,,,,,,,,,4058,34,68,1,0,0,response1disk,,7,11,9,1,0,0,rectangle,11,9,1,0,0,11,9,1,0,0,1,12,172,10,1,,,,,,,,
,,,,,,,,,,,,,FF,,,,,,,,0.967,,,,,,,,,,,,,,,,,,,,,,60fe0df0dff66fde69e4ca76,610378bf79ff23eba6035b76,2021-07-29_23h03.54.207,Simcolourproject_2stim_asymm_v5,2020.2.10,MacIntel,60,61025ae37ef11b136ea224fe,,,,,,,,,644,48,91,1,0,0,response1disk,,7,23,8,1,0,0,rectangle,23,8,1,0,0,23,8,1,0,0,1,13,173,148,1,,,,,,,,
,,,,,,,,,,,,,FF,,,,,,,,0.717,,,,,,,,,,,,,,,,,,,,,,60fe0df0dff66fde69e4ca76,610378bf79ff23eba6035b76,2021-07-29_23h03.54.207,Simcolourproject_2stim_asymm_v5,2020.2.10,MacIntel,60,61025ae37ef11b136ea224fe,,,,,,,,,427,49,65,1,0,0,response1disk,,7,8,6,1,0,0,rectangle,8,6,1,0,0,8,6,1,0,0,1,14,174,55,1,,,,,,,,
,,,,,,,,,,,,,FF,,,,,,,,0.484,,,,,,,,,,,,,,,,,,,,,,60fe0df0dff66fde69e4ca76,610378bf79ff23eba6035b76,2021-07-29_23h03.54.207,Simcolourproject_2stim_asymm_v5,2020.2.10,MacIntel,60,61025ae37ef11b136ea224fe,,,,,,,,,3269,35,56,1,0,0,response1disk,,7,8,0,1,0,0,rectangle,8,0,1,0,0,8,0,1,0,0,1,15,175,19,1,,,,,,,,
,,,,,,,,,,,,,FF,,,,,,,,0.716,,,,,,,,,,,,,,,,,,,,,,60fe0df0dff66fde69e4ca76,610378bf79ff23eba6035b76,2021-07-29_23h03.54.207,Simcolourproject_2stim_asymm_v5,2020.2.10,MacIntel,60,61025ae37ef11b136ea224fe,,,,,,,,,563,46,90,1,0,0,response1disk,,7,-4,2,1,0,0,rectangle,-4,2,1,0,0,-4,2,1,0,0,1,16,176,9,1,,,,,,,,
,,,,,,,,,,,,,FF,,,,,,,,3.216,,,,,,,,,,,,,,,,,,,,,,60fe0df0dff66fde69e4ca76,610378bf79ff23eba6035b76,2021-07-29_23h03.54.207,Simcolourproject_2stim_asymm_v5,2020.2.10,MacIntel,60,61025ae37ef11b136ea224fe,,,,,,,,,2044,49,78,1,0,0,response1disk,,7,8,0,1,0,0,rectangle,8,0,1,0,0,8,0,1,0,0,1,17,177,109,1,,,,,,,,
,,,,,,,,,,,,,FF,,,,,,,,0.5,,,,,,,,,,,,,,,,,,,,,,60fe0df0dff66fde69e4ca76,610378bf79ff23eba6035b76,2021-07-29_23h03.54.207,Simcolourproject_2stim_asymm_v5,2020.2.10,MacIntel,60,61025ae37ef11b136ea224fe,,,,,,,,,3634,27,80,1,0,0,response1disk,,7,8,13,1,0,0,rectangle,8,13,1,0,0,8,13,1,0,0,1,18,178,66,1,,,,,,,,
,,,,,,,,,,,,,FF,,,,,,,,2.233,,,,,,,,,,,,,,,,,,,,,,60fe0df0dff66fde69e4ca76,610378bf79ff23eba6035b76,2021-07-29_23h03.54.207,Simcolourproject_2stim_asymm_v5,2020.2.10,MacIntel,60,61025ae37ef11b136ea224fe,,,,,,,,,4079,35,62,1,0,0,response1disk,,7,11,-6,1,0,0,rectangle,11,-6,1,0,0,11,-6,1,0,0,1,19,179,86,1,,,,,,,,
,,,,,,,,,,,,,FF,,,,,,,,0.916,,,,,,,,,,,,,,,,,,,,,,60fe0df0dff66fde69e4ca76,610378bf79ff23eba6035b76,2021-07-29_23h03.54.207,Simcolourproject_2stim_asymm_v5,2020.2.10,MacIntel,60,61025ae37ef11b136ea224fe,,,,,,,,,3781,50,-27,1,0,0,response3disk,,5,1,-2,1,0,0,rectangle,1,-2,1,0,0,1,-2,1,0,0,1,20,180,52,1,,,,,,,,
,,,,,,,,,,,,,FF,,,,,,,,8.667,,,,,,,,,,,,,,,,,,,,,,60fe0df0dff66fde69e4ca76,610378bf79ff23eba6035b76,2021-07-29_23h03.54.207,Simcolourproject_2stim_asymm_v5,2020.2.10,MacIntel,60,61025ae37ef11b136ea224fe,,,,,,,,,226,35,56,1,0,0,response1disk,,7,13,-11,1,0,0,rectangle,13,-11,1,0,0,13,-11,1,0,0,1,21,181,113,1,,,,,,,,
,,,,,,,,,,,,,FF,,,,,,,,0.435,,,,,,,,,,,,,,,,,,,,,,60fe0df0dff66fde69e4ca76,610378bf79ff23eba6035b76,2021-07-29_23h03.54.207,Simcolourproject_2stim_asymm_v5,2020.2.10,MacIntel,60,61025ae37ef11b136ea224fe,,,,,,,,,390,35,23,1,0,0,response1disk,,6,13,-8,1,0,0,rectangle,13,-8,1,0,0,13,-8,1,0,0,1,22,182,68,1,,,,,,,,
,,,,,,,,,,,,,FF,,,,,,,,0.7,,,,,,,,,,,,,,,,,,,,,,60fe0df0dff66fde69e4ca76,610378bf79ff23eba6035b76,2021-07-29_23h03.54.207,Simcolourproject_2stim_asymm_v5,2020.2.10,MacIntel,60,61025ae37ef11b136ea224fe,,,,,,,,,1375,51,-51,1,0,0,response3disk,,5,-8,-3,1,0,0,rectangle,-8,-3,1,0,0,-8,-3,1,0,0,1,23,183,38,1,,,,,,,,
,,,,,,,,,,,,,FF,,,,,,,,1.084,,,,,,,,,,,,,,,,,,,,,,60fe0df0dff66fde69e4ca76,610378bf79ff23eba6035b76,2021-07-29_23h03.54.207,Simcolourproject_2stim_asymm_v5,2020.2.10,MacIntel,60,61025ae37ef11b136ea224fe,,,,,,,,,4186,78,29,1,0,0,response1disk,,6,14,10,1,0,0,rectangle,14,10,1,0,0,14,10,1,0,0,1,24,184,48,1,,,,,,,,
,,,,,,,,,,,,,FF,,,,,,,,0.416,,,,,,,,,,,,,,,,,,,,,,60fe0df0dff66fde69e4ca76,610378bf79ff23eba6035b76,2021-07-29_23h03.54.207,Simcolourproject_2stim_asymm_v5,2020.2.10,MacIntel,60,61025ae37ef11b136ea224fe,,,,,,,,,3619,38,75,1,0,0,response1disk,,7,6,-3,1,0,0,rectangle,6,-3,1,0,0,6,-3,1,0,0,1,25,185,59,1,,,,,,,,
,,,,,,,,,,,,,FF,,,,,,,,0.85,,,,,,,,,,,,,,,,,,,,,,60fe0df0dff66fde69e4ca76,610378bf79ff23eba6035b76,2021-07-29_23h03.54.207,Simcolourproject_2stim_asymm_v5,2020.2.10,MacIntel,60,61025ae37ef11b136ea224fe,,,,,,,,,3015,26,43,1,0,0,response1disk,,7,8,-1,1,0,0,rectangle,8,-1,1,0,0,8,-1,1,0,0,1,26,186,79,1,,,,,,,,
,,,,,,,,,,,,,FF,,,,,,,,1.5,,,,,,,,,,,,,,,,,,,,,,60fe0df0dff66fde69e4ca76,610378bf79ff23eba6035b76,2021-07-29_23h03.54.207,Simcolourproject_2stim_asymm_v5,2020.2.10,MacIntel,60,61025ae37ef11b136ea224fe,,,,,,,,,3685,30,63,1,0,0,response1disk,,7,2,-6,1,0,0,rectangle,2,-6,1,0,0,2,-6,1,0,0,1,27,187,64,1,,,,,,,,
,,,,,,,,,,,,,FF,,,,,,,,1.267,,,,,,,,,,,,,,,,,,,,,,60fe0df0dff66fde69e4ca76,610378bf79ff23eba6035b76,2021-07-29_23h03.54.207,Simcolourproject_2stim_asymm_v5,2020.2.10,MacIntel,60,61025ae37ef11b136ea224fe,,,,,,,,,823,86,-35,1,0,0,response3disk,,5,7,-3,1,0,0,rectangle,7,-3,1,0,0,7,-3,1,0,0,1,28,188,0,1,,,,,,,,
,,,,,,,,,,,,,FF,,,,,,,,0.849,,,,,,,,,,,,,,,,,,,,,,60fe0df0dff66fde69e4ca76,610378bf79ff23eba6035b76,2021-07-29_23h03.54.207,Simcolourproject_2stim_asymm_v5,2020.2.10,MacIntel,60,61025ae37ef11b136ea224fe,,,,,,,,,3602,75,39,1,0,0,response1disk,,6,1,14,1,0,0,rectangle,1,14,1,0,0,1,14,1,0,0,1,29,189,7,1,,,,,,,,
,,,,,,,,,,,,,FF,,,,,,,,0.566,,,,,,,,,,,,,,,,,,,,,,60fe0df0dff66fde69e4ca76,610378bf79ff23eba6035b76,2021-07-29_23h03.54.207,Simcolourproject_2stim_asymm_v5,2020.2.10,MacIntel,60,61025ae37ef11b136ea224fe,,,,,,,,,136,41,64,1,0,0,response1disk,,7,2,-6,1,0,0,rectangle,2,-6,1,0,0,2,-6,1,0,0,1,30,190,98,1,,,,,,,,
,,,,,,,,,,,,,FF,,,,,,,,1.533,,,,,,,,,,,,,,,,,,,,,,60fe0df0dff66fde69e4ca76,610378bf79ff23eba6035b76,2021-07-29_23h03.54.207,Simcolourproject_2stim_asymm_v5,2020.2.10,MacIntel,60,61025ae37ef11b136ea224fe,,,,,,,,,612,54,90,1,0,0,response1disk,,7,11,-16,1,0,0,rectangle,11,-16,1,0,0,11,-16,1,0,0,1,31,191,31,1,,,,,,,,
,,,,,,,,,,,,,FF,,,,,,,,1.067,,,,,,,,,,,,,,,,,,,,,,60fe0df0dff66fde69e4ca76,610378bf79ff23eba6035b76,2021-07-29_23h03.54.207,Simcolourproject_2stim_asymm_v5,2020.2.10,MacIntel,60,61025ae37ef11b136ea224fe,,,,,,,,,2723,69,33,1,0,0,response1disk,,6,5,9,1,0,0,rectangle,5,9,1,0,0,5,9,1,0,0,1,32,192,13,1,,,,,,,,
,,,,,,,,,,,,,FF,,,,,,,,0.934,,,,,,,,,,,,,,,,,,,,,,60fe0df0dff66fde69e4ca76,610378bf79ff23eba6035b76,2021-07-29_23h03.54.207,Simcolourproject_2stim_asymm_v5,2020.2.10,MacIntel,60,61025ae37ef11b136ea224fe,,,,,,,,,1433,87,32,1,0,0,response1disk,,6,26,8,1,0,0,rectangle,26,8,1,0,0,26,8,1,0,0,1,33,193,99,1,,,,,,,,
,,,,,,,,,,,,,FF,,,,,,,,0.816,,,,,,,,,,,,,,,,,,,,,,60fe0df0dff66fde69e4ca76,610378bf79ff23eba6035b76,2021-07-29_23h03.54.207,Simcolourproject_2stim_asymm_v5,2020.2.10,MacIntel,60,61025ae37ef11b136ea224fe,,,,,,,,,670,43,61,1,0,0,response1disk,,7,15,11,1,0,0,rectangle,15,11,1,0,0,15,11,1,0,0,1,34,194,107,1,,,,,,,,
,,,,,,,,,,,,,FF,,,,,,,,0.4,,,,,,,,,,,,,,,,,,,,,,60fe0df0dff66fde69e4ca76,610378bf79ff23eba6035b76,2021-07-29_23h03.54.207,Simcolourproject_2stim_asymm_v5,2020.2.10,MacIntel,60,61025ae37ef11b136ea224fe,,,,,,,,,1048,40,69,1,0,0,response1disk,,7,6,12,1,0,0,rectangle,-81,31,1,0,0,-10,9,1,0,0,1,35,195,27,1,,response7disk_3,TRUE,1,1,"[150,196,204,275,212,297,284,268,21,95,124,41,13,133,42,212,81,239,106,308]",1.399,rectangle
,,,,,,,,,,,,,FF,,,,,,,,0.716,,,,,,,,,,,,,,,,,,,,,,60fe0df0dff66fde69e4ca76,610378bf79ff23eba6035b76,2021-07-29_23h03.54.207,Simcolourproject_2stim_asymm_v5,2020.2.10,MacIntel,60,61025ae37ef11b136ea224fe,,,,,,,,,1322,31,55,1,0,0,response1disk,,7,8,8,1,0,0,rectangle,8,8,1,0,0,8,8,1,0,0,1,36,196,140,1,,,,,,,,
,,,,,,,,,,,,,FF,,,,,,,,0.582,,,,,,,,,,,,,,,,,,,,,,60fe0df0dff66fde69e4ca76,610378bf79ff23eba6035b76,2021-07-29_23h03.54.207,Simcolourproject_2stim_asymm_v5,2020.2.10,MacIntel,60,61025ae37ef11b136ea224fe,,,,,,,,,1849,26,83,1,0,0,response1disk,,7,9,6,1,0,0,rectangle,9,6,1,0,0,9,6,1,0,0,1,37,197,114,1,,,,,,,,
,,,,,,,,,,,,,FF,,,,,,,,0.484,,,,,,,,,,,,,,,,,,,,,,60fe0df0dff66fde69e4ca76,610378bf79ff23eba6035b76,2021-07-29_23h03.54.207,Simcolourproject_2stim_asymm_v5,2020.2.10,MacIntel,60,61025ae37ef11b136ea224fe,,,,,,,,,1568,50,71,1,0,0,response1disk,,7,6,4,1,0,0,rectangle,6,4,1,0,0,6,4,1,0,0,1,38,198,5,1,,,,,,,,
,,,,,,,,,,,,,FF,,,,,,,,0.633,,,,,,,,,,,,,,,,,,,,,,60fe0df0dff66fde69e4ca76,610378bf79ff23eba6035b76,2021-07-29_23h03.54.207,Simcolourproject_2stim_asymm_v5,2020.2.10,MacIntel,60,61025ae37ef11b136ea224fe,,,,,,,,,748,25,50,1,0,0,response1disk,,7,-3,-6,1,0,0,rectangle,-3,-6,1,0,0,-3,-6,1,0,0,1,39,199,36,1,,,,,,,,
,,,,,,,,,,,,,FF,,,,,,,,0.582,,,,,,,,,,,,,,,,,,,,,,60fe0df0dff66fde69e4ca76,610378bf79ff23eba6035b76,2021-07-29_23h03.54.207,Simcolourproject_2stim_asymm_v5,2020.2.10,MacIntel,60,61025ae37ef11b136ea224fe,,,,,,,,,478,43,81,1,0,0,response1disk,,7,7,14,1,0,0,rectangle,7,14,1,0,0,7,14,1,0,0,1,40,200,153,1,,,,,,,,
,,,,,,,,,,,,,FF,,,,,,,,0.451,,,,,,,,,,,,,,,,,,,,,,60fe0df0dff66fde69e4ca76,610378bf79ff23eba6035b76,2021-07-29_23h03.54.207,Simcolourproject_2stim_asymm_v5,2020.2.10,MacIntel,60,61025ae37ef11b136ea224fe,,,,,,,,,1328,40,69,1,0,0,response1disk,,7,-6,-1,1,0,0,rectangle,-6,-1,1,0,0,-6,-1,1,0,0,1,41,201,106,1,,,,,,,,
,,,,,,,,,,,,,FF,,,,,,,,1.183,,,,,,,,,,,,,,,,,,,,,,60fe0df0dff66fde69e4ca76,610378bf79ff23eba6035b76,2021-07-29_23h03.54.207,Simcolourproject_2stim_asymm_v5,2020.2.10,MacIntel,60,61025ae37ef11b136ea224fe,,,,,,,,,4105,38,-56,1,0,0,response3disk,,4,-3,-4,1,0,0,rectangle,-3,-4,1,0,0,-3,-4,1,0,0,1,42,202,4,1,,,,,,,,
,,,,,,,,,,,,,FF,,,,,,,,0.433,,,,,,,,,,,,,,,,,,,,,,60fe0df0dff66fde69e4ca76,610378bf79ff23eba6035b76,2021-07-29_23h03.54.207,Simcolourproject_2stim_asymm_v5,2020.2.10,MacIntel,60,61025ae37ef11b136ea224fe,,,,,,,,,1325,25,73,1,0,0,response1disk,,7,1,7,1,0,0,rectangle,-38,92,1,0,0,-12,11,1,0,0,1,43,203,63,1,,response7disk_3,TRUE,0,0,"[150,196,204,275,212,297,284,268,21,95,124,41,13,133,42,212,81,239,106,308]",1.365,rectangle
,,,,,,,,,,,,,FF,,,,,,,,0.917,,,,,,,,,,,,,,,,,,,,,,60fe0df0dff66fde69e4ca76,610378bf79ff23eba6035b76,2021-07-29_23h03.54.207,Simcolourproject_2stim_asymm_v5,2020.2.10,MacIntel,60,61025ae37ef11b136ea224fe,,,,,,,,,463,52,-18,1,0,0,response3disk,,5,20,-5,1,0,0,rectangle,20,-5,1,0,0,20,-5,1,0,0,1,44,204,158,1,,,,,,,,
,,,,,,,,,,,,,FF,,,,,,,,1.282,,,,,,,,,,,,,,,,,,,,,,60fe0df0dff66fde69e4ca76,610378bf79ff23eba6035b76,2021-07-29_23h03.54.207,Simcolourproject_2stim_asymm_v5,2020.2.10,MacIntel,60,61025ae37ef11b136ea224fe,,,,,,,,,2972,36,74,1,0,0,response1disk,,7,15,7,1,0,0,rectangle,15,7,1,0,0,15,7,1,0,0,1,45,205,50,1,,,,,,,,
,,,,,,,,,,,,,FF,,,,,,,,0.516,,,,,,,,,,,,,,,,,,,,,,60fe0df0dff66fde69e4ca76,610378bf79ff23eba6035b76,2021-07-29_23h03.54.207,Simcolourproject_2stim_asymm_v5,2020.2.10,MacIntel,60,61025ae37ef11b136ea224fe,,,,,,,,,3067,39,51,1,0,0,response1disk,,7,12,15,1,0,0,rectangle,12,15,1,0,0,12,15,1,0,0,1,46,206,108,1,,,,,,,,
,,,,,,,,,,,,,FF,,,,,,,,0.333,,,,,,,,,,,,,,,,,,,,,,60fe0df0dff66fde69e4ca76,610378bf79ff23eba6035b76,2021-07-29_23h03.54.207,Simcolourproject_2stim_asymm_v5,2020.2.10,MacIntel,60,61025ae37ef11b136ea224fe,,,,,,,,,1581,33,56,1,0,0,response1disk,,7,17,16,1,0,0,rectangle,17,16,1,0,0,17,16,1,0,0,1,47,207,82,1,,,,,,,,
,,,,,,,,,,,,,FF,,,,,,,,0.4,,,,,,,,,,,,,,,,,,,,,,60fe0df0dff66fde69e4ca76,610378bf79ff23eba6035b76,2021-07-29_23h03.54.207,Simcolourproject_2stim_asymm_v5,2020.2.10,MacIntel,60,61025ae37ef11b136ea224fe,,,,,,,,,1232,29,54,1,0,0,response1disk,,7,2,-6,1,0,0,rectangle,2,-6,1,0,0,2,-6,1,0,0,1,48,208,132,1,,,,,,,,
,,,,,,,,,,,,,FF,,,,,,,,0.933,,,,,,,,,,,,,,,,,,,,,,60fe0df0dff66fde69e4ca76,610378bf79ff23eba6035b76,2021-07-29_23h03.54.207,Simcolourproject_2stim_asymm_v5,2020.2.10,MacIntel,60,61025ae37ef11b136ea224fe,,,,,,,,,3374,40,-69,1,0,0,response3disk,,4,-1,-11,1,0,0,rectangle,-1,-11,1,0,0,-1,-11,1,0,0,1,49,209,81,1,,,,,,,,
,,,,,,,,,,,,,FF,,,,,,,,0.816,,,,,,,,,,,,,,,,,,,,,,60fe0df0dff66fde69e4ca76,610378bf79ff23eba6035b76,2021-07-29_23h03.54.207,Simcolourproject_2stim_asymm_v5,2020.2.10,MacIntel,60,61025ae37ef11b136ea224fe,,,,,,,,,3814,55,-29,1,0,0,response3disk,,5,2,3,1,0,0,rectangle,2,3,1,0,0,2,3,1,0,0,1,50,210,95,1,,,,,,,,
,,,,,,,,,,,,,FF,,,,,,,,0.566,,,,,,,,,,,,,,,,,,,,,,60fe0df0dff66fde69e4ca76,610378bf79ff23eba6035b76,2021-07-29_23h03.54.207,Simcolourproject_2stim_asymm_v5,2020.2.10,MacIntel,60,61025ae37ef11b136ea224fe,,,,,,,,,2267,39,57,1,0,0,response1disk,,7,-2,15,1,0,0,rectangle,-68,32,1,0,0,-11,12,1,0,0,1,51,211,65,1,,response7disk_3,TRUE,1,1,"[150,196,204,275,212,297,284,268,21,95,124,41,13,133,42,212,81,239,106,308]",1.083,rectangle
,,,,,,,,,,,,,FF,,,,,,,,1.967,,,,,,,,,,,,,,,,,,,,,,60fe0df0dff66fde69e4ca76,610378bf79ff23eba6035b76,2021-07-29_23h03.54.207,Simcolourproject_2stim_asymm_v5,2020.2.10,MacIntel,60,61025ae37ef11b136ea224fe,,,,,,,,,344,32,76,1,0,0,response1disk,,7,2,6,1,0,0,rectangle,2,6,1,0,0,2,6,1,0,0,1,52,212,85,1,,,,,,,,
,,,,,,,,,,,,,FF,,,,,,,,0.799,,,,,,,,,,,,,,,,,,,,,,60fe0df0dff66fde69e4ca76,610378bf79ff23eba6035b76,2021-07-29_23h03.54.207,Simcolourproject_2stim_asymm_v5,2020.2.10,MacIntel,60,61025ae37ef11b136ea224fe,,,,,,,,,1012,25,56,1,0,0,response1disk,,7,11,13,1,0,0,rectangle,11,13,1,0,0,11,13,1,0,0,1,53,213,89,1,,,,,,,,
,,,,,,,,,,,,,FF,,,,,,,,1.117,,,,,,,,,,,,,,,,,,,,,,60fe0df0dff66fde69e4ca76,610378bf79ff23eba6035b76,2021-07-29_23h03.54.207,Simcolourproject_2stim_asymm_v5,2020.2.10,MacIntel,60,61025ae37ef11b136ea224fe,,,,,,,,,1682,-50,-39,1,0,0,response5disk,,2,1,7,1,0,0,rectangle,1,7,1,0,0,1,7,1,0,0,1,54,214,88,1,,,,,,,,
,,,,,,,,,,,,,FF,,,,,,,,0.783,,,,,,,,,,,,,,,,,,,,,,60fe0df0dff66fde69e4ca76,610378bf79ff23eba6035b76,2021-07-29_23h03.54.207,Simcolourproject_2stim_asymm_v5,2020.2.10,MacIntel,60,61025ae37ef11b136ea224fe,,,,,,,,,3939,-36,-52,1,0,0,response5disk,,3,-13,-8,1,0,0,rectangle,-13,-8,1,0,0,-13,-8,1,0,0,1,55,215,126,1,,,,,,,,
,,,,,,,,,,,,,FF,,,,,,,,0.667,,,,,,,,,,,,,,,,,,,,,,60fe0df0dff66fde69e4ca76,610378bf79ff23eba6035b76,2021-07-29_23h03.54.207,Simcolourproject_2stim_asymm_v5,2020.2.10,MacIntel,60,61025ae37ef11b136ea224fe,,,,,,,,,1894,-37,-46,1,0,0,response5disk,,3,-12,-6,1,0,0,rectangle,-12,-6,1,0,0,-12,-6,1,0,0,1,56,216,3,1,,,,,,,,
,,,,,,,,,,,,,FF,,,,,,,,0.483,,,,,,,,,,,,,,,,,,,,,,60fe0df0dff66fde69e4ca76,610378bf79ff23eba6035b76,2021-07-29_23h03.54.207,Simcolourproject_2stim_asymm_v5,2020.2.10,MacIntel,60,61025ae37ef11b136ea224fe,,,,,,,,,1425,41,68,1,0,0,response1disk,,7,3,9,1,0,0,rectangle,3,9,1,0,0,3,9,1,0,0,1,57,217,115,1,,,,,,,,
,,,,,,,,,,,,,FF,,,,,,,,0.516,,,,,,,,,,,,,,,,,,,,,,60fe0df0dff66fde69e4ca76,610378bf79ff23eba6035b76,2021-07-29_23h03.54.207,Simcolourproject_2stim_asymm_v5,2020.2.10,MacIntel,60,61025ae37ef11b136ea224fe,,,,,,,,,2684,30,72,1,0,0,response1disk,,7,7,-4,1,0,0,rectangle,7,-4,1,0,0,7,-4,1,0,0,1,58,218,53,1,,,,,,,,
,,,,,,,,,,,,,FF,,,,,,,,0.533,,,,,,,,,,,,,,,,,,,,,,60fe0df0dff66fde69e4ca76,610378bf79ff23eba6035b76,2021-07-29_23h03.54.207,Simcolourproject_2stim_asymm_v5,2020.2.10,MacIntel,60,61025ae37ef11b136ea224fe,,,,,,,,,2332,22,47,1,0,0,response1disk,,7,2,2,1,0,0,rectangle,2,2,1,0,0,2,2,1,0,0,1,59,219,144,1,,,,,,,,
,,,,,,,,,,,,,FF,,,,,,,,0.916,,,,,,,,,,,,,,,,,,,,,,60fe0df0dff66fde69e4ca76,610378bf79ff23eba6035b76,2021-07-29_23h03.54.207,Simcolourproject_2stim_asymm_v5,2020.2.10,MacIntel,60,61025ae37ef11b136ea224fe,,,,,,,,,4084,46,-19,1,0,0,response3disk,,5,18,2,1,0,0,rectangle,18,2,1,0,0,18,2,1,0,0,1,60,220,12,1,,,,,,,,
,,,,,,,,,,,,,FF,,,,,,,,0.8,,,,,,,,,,,,,,,,,,,,,,60fe0df0dff66fde69e4ca76,610378bf79ff23eba6035b76,2021-07-29_23h03.54.207,Simcolourproject_2stim_asymm_v5,2020.2.10,MacIntel,60,61025ae37ef11b136ea224fe,,,,,,,,,722,26,-57,1,0,0,response3disk,,4,-1,0,1,0,0,rectangle,-1,0,1,0,0,-1,0,1,0,0,1,61,221,62,1,,,,,,,,
,,,,,,,,,,,,,FF,,,,,,,,0.433,,,,,,,,,,,,,,,,,,,,,,60fe0df0dff66fde69e4ca76,610378bf79ff23eba6035b76,2021-07-29_23h03.54.207,Simcolourproject_2stim_asymm_v5,2020.2.10,MacIntel,60,61025ae37ef11b136ea224fe,,,,,,,,,3495,26,59,1,0,0,response1disk,,7,4,9,1,0,0,rectangle,4,9,1,0,0,4,9,1,0,0,1,62,222,91,1,,,,,,,,
,,,,,,,,,,,,,FF,,,,,,,,0.633,,,,,,,,,,,,,,,,,,,,,,60fe0df0dff66fde69e4ca76,610378bf79ff23eba6035b76,2021-07-29_23h03.54.207,Simcolourproject_2stim_asymm_v5,2020.2.10,MacIntel,60,61025ae37ef11b136ea224fe,,,,,,,,,4247,31,63,1,0,0,response1disk,,7,-1,11,1,0,0,rectangle,-1,11,1,0,0,-1,11,1,0,0,1,63,223,117,1,,,,,,,,
,,,,,,,,,,,,,FF,,,,,,,,0.417,,,,,,,,,,,,,,,,,,,,,,60fe0df0dff66fde69e4ca76,610378bf79ff23eba6035b76,2021-07-29_23h03.54.207,Simcolourproject_2stim_asymm_v5,2020.2.10,MacIntel,60,61025ae37ef11b136ea224fe,,,,,,,,,3145,24,52,1,0,0,response1disk,,7,5,6,1,0,0,rectangle,5,6,1,0,0,5,6,1,0,0,1,64,224,130,1,,,,,,,,
,,,,,,,,,,,,,FF,,,,,,,,0.483,,,,,,,,,,,,,,,,,,,,,,60fe0df0dff66fde69e4ca76,610378bf79ff23eba6035b76,2021-07-29_23h03.54.207,Simcolourproject_2stim_asymm_v5,2020.2.10,MacIntel,60,61025ae37ef11b136ea224fe,,,,,,,,,3413,22,45,1,0,0,response1disk,,7,6,-1,1,0,0,rectangle,6,-1,1,0,0,6,-1,1,0,0,1,65,225,22,1,,,,,,,,
,,,,,,,,,,,,,FF,,,,,,,,0.434,,,,,,,,,,,,,,,,,,,,,,60fe0df0dff66fde69e4ca76,610378bf79ff23eba6035b76,2021-07-29_23h03.54.207,Simcolourproject_2stim_asymm_v5,2020.2.10,MacIntel,60,61025ae37ef11b136ea224fe,,,,,,,,,63,52,96,1,0,0,response1disk,,7,9,12,1,0,0,rectangle,9,12,1,0,0,9,12,1,0,0,1,66,226,100,1,,,,,,,,
,,,,,,,,,,,,,FF,,,,,,,,0.917,,,,,,,,,,,,,,,,,,,,,,60fe0df0dff66fde69e4ca76,610378bf79ff23eba6035b76,2021-07-29_23h03.54.207,Simcolourproject_2stim_asymm_v5,2020.2.10,MacIntel,60,61025ae37ef11b136ea224fe,,,,,,,,,3088,60,-29,1,0,0,response3disk,,5,7,-3,1,0,0,rectangle,7,-3,1,0,0,7,-3,1,0,0,1,67,227,14,1,,,,,,,,
,,,,,,,,,,,,,FF,,,,,,,,0.517,,,,,,,,,,,,,,,,,,,,,,60fe0df0dff66fde69e4ca76,610378bf79ff23eba6035b76,2021-07-29_23h03.54.207,Simcolourproject_2stim_asymm_v5,2020.2.10,MacIntel,60,61025ae37ef11b136ea224fe,,,,,,,,,1101,41,83,1,0,0,response1disk,,7,-1,1,1,0,0,rectangle,-1,1,1,0,0,-1,1,1,0,0,1,68,228,159,1,,,,,,,,
,,,,,,,,,,,,,FF,,,,,,,,0.349,,,,,,,,,,,,,,,,,,,,,,60fe0df0dff66fde69e4ca76,610378bf79ff23eba6035b76,2021-07-29_23h03.54.207,Simcolourproject_2stim_asymm_v5,2020.2.10,MacIntel,60,61025ae37ef11b136ea224fe,,,,,,,,,2453,27,51,1,0,0,response1disk,,7,9,6,1,0,0,rectangle,9,6,1,0,0,9,6,1,0,0,1,69,229,142,1,,,,,,,,
,,,,,,,,,,,,,FF,,,,,,,,0.7,,,,,,,,,,,,,,,,,,,,,,60fe0df0dff66fde69e4ca76,610378bf79ff23eba6035b76,2021-07-29_23h03.54.207,Simcolourproject_2stim_asymm_v5,2020.2.10,MacIntel,60,61025ae37ef11b136ea224fe,,,,,,,,,1463,39,-18,1,0,0,response3disk,,5,11,-7,1,0,0,rectangle,11,-7,1,0,0,11,-7,1,0,0,1,70,230,118,1,,,,,,,,
,,,,,,,,,,,,,FF,,,,,,,,0.866,,,,,,,,,,,,,,,,,,,,,,60fe0df0dff66fde69e4ca76,610378bf79ff23eba6035b76,2021-07-29_23h03.54.207,Simcolourproject_2stim_asymm_v5,2020.2.10,MacIntel,60,61025ae37ef11b136ea224fe,,,,,,,,,511,18,51,1,0,0,response1disk,,7,8,-3,1,0,0,rectangle,8,-3,1,0,0,8,-3,1,0,0,1,71,231,57,1,,,,,,,,
,,,,,,,,,,,,,FF,,,,,,,,0.517,,,,,,,,,,,,,,,,,,,,,,60fe0df0dff66fde69e4ca76,610378bf79ff23eba6035b76,2021-07-29_23h03.54.207,Simcolourproject_2stim_asymm_v5,2020.2.10,MacIntel,60,61025ae37ef11b136ea224fe,,,,,,,,,1289,18,63,1,0,0,response1disk,,7,11,3,1,0,0,rectangle,11,3,1,0,0,11,3,1,0,0,1,72,232,103,1,,,,,,,,
,,,,,,,,,,,,,FF,,,,,,,,0.5,,,,,,,,,,,,,,,,,,,,,,60fe0df0dff66fde69e4ca76,610378bf79ff23eba6035b76,2021-07-29_23h03.54.207,Simcolourproject_2stim_asymm_v5,2020.2.10,MacIntel,60,61025ae37ef11b136ea224fe,,,,,,,,,1134,48,79,1,0,0,response1disk,,7,-5,-7,1,0,0,rectangle,-5,-7,1,0,0,-5,-7,1,0,0,1,73,233,45,1,,,,,,,,
,,,,,,,,,,,,,FF,,,,,,,,0.816,,,,,,,,,,,,,,,,,,,,,,60fe0df0dff66fde69e4ca76,610378bf79ff23eba6035b76,2021-07-29_23h03.54.207,Simcolourproject_2stim_asymm_v5,2020.2.10,MacIntel,60,61025ae37ef11b136ea224fe,,,,,,,,,2596,24,67,1,0,0,response1disk,,7,5,9,1,0,0,rectangle,5,9,1,0,0,5,9,1,0,0,1,74,234,138,1,,,,,,,,
,,,,,,,,,,,,,FF,,,,,,,,0.901,,,,,,,,,,,,,,,,,,,,,,60fe0df0dff66fde69e4ca76,610378bf79ff23eba6035b76,2021-07-29_23h03.54.207,Simcolourproject_2stim_asymm_v5,2020.2.10,MacIntel,60,61025ae37ef11b136ea224fe,,,,,,,,,121,32,78,1,0,0,response1disk,,7,10,1,1,0,0,rectangle,10,1,1,0,0,10,1,1,0,0,1,75,235,139,1,,,,,,,,
,,,,,,,,,,,,,FF,,,,,,,,0.885,,,,,,,,,,,,,,,,,,,,,,60fe0df0dff66fde69e4ca76,610378bf79ff23eba6035b76,2021-07-29_23h03.54.207,Simcolourproject_2stim_asymm_v5,2020.2.10,MacIntel,60,61025ae37ef11b136ea224fe,,,,,,,,,3000,-49,-34,1,0,0,response5disk,,2,0,14,1,0,0,rectangle,0,14,1,0,0,0,14,1,0,0,1,76,236,77,1,,,,,,,,
,,,,,,,,,,,,,FF,,,,,,,,1.033,,,,,,,,,,,,,,,,,,,,,,60fe0df0dff66fde69e4ca76,610378bf79ff23eba6035b76,2021-07-29_23h03.54.207,Simcolourproject_2stim_asymm_v5,2020.2.10,MacIntel,60,61025ae37ef11b136ea224fe,,,,,,,,,3902,64,-27,1,0,0,response3disk,,5,15,-12,1,0,0,rectangle,15,-12,1,0,0,15,-12,1,0,0,1,77,237,129,1,,,,,,,,
,,,,,,,,,,,,,FF,,,,,,,,0.716,,,,,,,,,,,,,,,,,,,,,,60fe0df0dff66fde69e4ca76,610378bf79ff23eba6035b76,2021-07-29_23h03.54.207,Simcolourproject_2stim_asymm_v5,2020.2.10,MacIntel,60,61025ae37ef11b136ea224fe,,,,,,,,,2951,65,33,1,0,0,response1disk,,6,7,-2,1,0,0,rectangle,-34,-79,1,0,0,1,-6,1,0,0,1,78,238,35,1,,response5disk_3,TRUE,3,3,"[150,196,204,275,212,297,284,268,21,95,124,41,13,133,42,212,81,239,106,308]",7.865,rectangle
,,,,,,,,,,,,,FF,,,,,,,,1.033,,,,,,,,,,,,,,,,,,,,,,60fe0df0dff66fde69e4ca76,610378bf79ff23eba6035b76,2021-07-29_23h03.54.207,Simcolourproject_2stim_asymm_v5,2020.2.10,MacIntel,60,61025ae37ef11b136ea224fe,,,,,,,,,1891,-29,-67,1,0,0,response5disk,,3,5,-2,1,0,0,rectangle,5,-2,1,0,0,5,-2,1,0,0,1,79,239,58,1,,,,,,,,
,,,,,,,,,,,,,FF,,,,,,,,1.016,,,,,,,,,,,,,,,,,,,,,,60fe0df0dff66fde69e4ca76,610378bf79ff23eba6035b76,2021-07-29_23h03.54.207,Simcolourproject_2stim_asymm_v5,2020.2.10,MacIntel,60,61025ae37ef11b136ea224fe,,,,,,,,,310,33,62,1,0,0,response1disk,,7,-4,-14,1,0,0,rectangle,-4,-14,1,0,0,-4,-14,1,0,0,1,80,240,125,1,,,,,,,,
,,,,,,,,,,,,,FF,,,,,,,,2.166,,,,,,,,,,,,,,,,,,,,,,60fe0df0dff66fde69e4ca76,610378bf79ff23eba6035b76,2021-07-29_23h03.54.207,Simcolourproject_2stim_asymm_v5,2020.2.10,MacIntel,60,61025ae37ef11b136ea224fe,,,,,,,,,2570,44,63,1,0,0,response1disk,,7,3,8,1,0,0,rectangle,3,8,1,0,0,3,8,1,0,0,1,81,241,127,1,,,,,,,,
,,,,,,,,,,,,,FF,,,,,,,,1.499,,,,,,,,,,,,,,,,,,,,,,60fe0df0dff66fde69e4ca76,610378bf79ff23eba6035b76,2021-07-29_23h03.54.207,Simcolourproject_2stim_asymm_v5,2020.2.10,MacIntel,60,61025ae37ef11b136ea224fe,,,,,,,,,1575,32,60,1,0,0,response1disk,,7,10,-9,1,0,0,rectangle,10,-9,1,0,0,10,-9,1,0,0,1,82,242,11,1,,,,,,,,
,,,,,,,,,,,,,FF,,,,,,,,1.667,,,,,,,,,,,,,,,,,,,,,,60fe0df0dff66fde69e4ca76,610378bf79ff23eba6035b76,2021-07-29_23h03.54.207,Simcolourproject_2stim_asymm_v5,2020.2.10,MacIntel,60,61025ae37ef11b136ea224fe,,,,,,,,,761,16,40,1,0,0,response1disk,,7,11,-4,1,0,0,rectangle,11,-4,1,0,0,11,-4,1,0,0,1,83,243,25,1,,,,,,,,
,,,,,,,,,,,,,FF,,,,,,,,0.517,,,,,,,,,,,,,,,,,,,,,,60fe0df0dff66fde69e4ca76,610378bf79ff23eba6035b76,2021-07-29_23h03.54.207,Simcolourproject_2stim_asymm_v5,2020.2.10,MacIntel,60,61025ae37ef11b136ea224fe,,,,,,,,,515,34,49,1,0,0,response1disk,,7,8,4,1,0,0,rectangle,8,4,1,0,0,8,4,1,0,0,1,84,244,105,1,,,,,,,,
,,,,,,,,,,,,,FF,,,,,,,,1.366,,,,,,,,,,,,,,,,,,,,,,60fe0df0dff66fde69e4ca76,610378bf79ff23eba6035b76,2021-07-29_23h03.54.207,Simcolourproject_2stim_asymm_v5,2020.2.10,MacIntel,60,61025ae37ef11b136ea224fe,,,,,,,,,1447,-81,33,1,0,0,response7disk,,1,-14,4,1,0,0,rectangle,-14,4,1,0,0,-14,4,1,0,0,1,85,245,122,1,,,,,,,,
,,,,,,,,,,,,,FF,,,,,,,,6.267,,,,,,,,,,,,,,,,,,,,,,60fe0df0dff66fde69e4ca76,610378bf79ff23eba6035b76,2021-07-29_23h03.54.207,Simcolourproject_2stim_asymm_v5,2020.2.10,MacIntel,60,61025ae37ef11b136ea224fe,,,,,,,,,3477,32,66,1,0,0,response1disk,,7,4,2,1,0,0,rectangle,4,2,1,0,0,4,2,1,0,0,1,86,246,34,1,,,,,,,,
,,,,,,,,,,,,,FF,,,,,,,,70.416,,,,,,,,,,,,,,,,,,,,,,60fe0df0dff66fde69e4ca76,610378bf79ff23eba6035b76,2021-07-29_23h03.54.207,Simcolourproject_2stim_asymm_v5,2020.2.10,MacIntel,60,61025ae37ef11b136ea224fe,,,,,,,,,2186,22,63,1,0,0,response1disk,,7,-5,-6,1,0,0,rectangle,-5,-6,1,0,0,-5,-6,1,0,0,1,87,247,136,1,,,,,,,,
,,,,,,,,,,,,,FF,,,,,,,,2.5,,,,,,,,,,,,,,,,,,,,,,60fe0df0dff66fde69e4ca76,610378bf79ff23eba6035b76,2021-07-29_23h03.54.207,Simcolourproject_2stim_asymm_v5,2020.2.10,MacIntel,60,61025ae37ef11b136ea224fe,,,,,,,,,1139,39,-53,1,0,0,response3disk,,4,7,2,1,0,0,rectangle,7,2,1,0,0,7,2,1,0,0,1,88,248,119,1,,,,,,,,
,,,,,,,,,,,,,FF,,,,,,,,0.882,,,,,,,,,,,,,,,,,,,,,,60fe0df0dff66fde69e4ca76,610378bf79ff23eba6035b76,2021-07-29_23h03.54.207,Simcolourproject_2stim_asymm_v5,2020.2.10,MacIntel,60,61025ae37ef11b136ea224fe,,,,,,,,,2032,49,23,1,0,0,response1disk,,6,-1,0,1,0,0,rectangle,-1,0,1,0,0,-1,0,1,0,0,1,89,249,26,1,,,,,,,,
,,,,,,,,,,,,,FF,,,,,,,,0.899,,,,,,,,,,,,,,,,,,,,,,60fe0df0dff66fde69e4ca76,610378bf79ff23eba6035b76,2021-07-29_23h03.54.207,Simcolourproject_2stim_asymm_v5,2020.2.10,MacIntel,60,61025ae37ef11b136ea224fe,,,,,,,,,378,55,36,1,0,0,response1disk,,6,9,12,1,0,0,rectangle,9,12,1,0,0,9,12,1,0,0,1,90,250,42,1,,,,,,,,
,,,,,,,,,,,,,FF,,,,,,,,0.685,,,,,,,,,,,,,,,,,,,,,,60fe0df0dff66fde69e4ca76,610378bf79ff23eba6035b76,2021-07-29_23h03.54.207,Simcolourproject_2stim_asymm_v5,2020.2.10,MacIntel,60,61025ae37ef11b136ea224fe,,,,,,,,,2673,66,-43,1,0,0,response3disk,,5,22,-11,1,0,0,rectangle,22,-11,1,0,0,22,-11,1,0,0,1,91,251,83,1,,,,,,,,
,,,,,,,,,,,,,FF,,,,,,,,0.434,,,,,,,,,,,,,,,,,,,,,,60fe0df0dff66fde69e4ca76,610378bf79ff23eba6035b76,2021-07-29_23h03.54.207,Simcolourproject_2stim_asymm_v5,2020.2.10,MacIntel,60,61025ae37ef11b136ea224fe,,,,,,,,,766,57,52,1,0,0,response1disk,,6,0,-7,1,0,0,rectangle,0,-7,1,0,0,0,-7,1,0,0,1,92,252,156,1,,,,,,,,
,,,,,,,,,,,,,FF,,,,,,,,0.366,,,,,,,,,,,,,,,,,,,,,,60fe0df0dff66fde69e4ca76,610378bf79ff23eba6035b76,2021-07-29_23h03.54.207,Simcolourproject_2stim_asymm_v5,2020.2.10,MacIntel,60,61025ae37ef11b136ea224fe,,,,,,,,,2308,46,60,1,0,0,response1disk,,7,-5,6,1,0,0,rectangle,-5,6,1,0,0,-5,6,1,0,0,1,93,253,54,1,,,,,,,,
,,,,,,,,,,,,,FF,,,,,,,,0.432,,,,,,,,,,,,,,,,,,,,,,60fe0df0dff66fde69e4ca76,610378bf79ff23eba6035b76,2021-07-29_23h03.54.207,Simcolourproject_2stim_asymm_v5,2020.2.10,MacIntel,60,61025ae37ef11b136ea224fe,,,,,,,,,380,30,56,1,0,0,response1disk,,7,4,16,1,0,0,rectangle,4,16,1,0,0,4,16,1,0,0,1,94,254,80,1,,,,,,,,
,,,,,,,,,,,,,FF,,,,,,,,0.433,,,,,,,,,,,,,,,,,,,,,,60fe0df0dff66fde69e4ca76,610378bf79ff23eba6035b76,2021-07-29_23h03.54.207,Simcolourproject_2stim_asymm_v5,2020.2.10,MacIntel,60,61025ae37ef11b136ea224fe,,,,,,,,,3891,26,61,1,0,0,response1disk,,7,12,0,1,0,0,rectangle,12,0,1,0,0,12,0,1,0,0,1,95,255,76,1,,,,,,,,
,,,,,,,,,,,,,FF,,,,,,,,0.366,,,,,,,,,,,,,,,,,,,,,,60fe0df0dff66fde69e4ca76,610378bf79ff23eba6035b76,2021-07-29_23h03.54.207,Simcolourproject_2stim_asymm_v5,2020.2.10,MacIntel,60,61025ae37ef11b136ea224fe,,,,,,,,,845,36,42,1,0,0,response1disk,,7,11,2,1,0,0,rectangle,11,2,1,0,0,11,2,1,0,0,1,96,256,30,1,,,,,,,,
,,,,,,,,,,,,,FF,,,,,,,,0.699,,,,,,,,,,,,,,,,,,,,,,60fe0df0dff66fde69e4ca76,610378bf79ff23eba6035b76,2021-07-29_23h03.54.207,Simcolourproject_2stim_asymm_v5,2020.2.10,MacIntel,60,61025ae37ef11b136ea224fe,,,,,,,,,4142,57,-23,1,0,0,response3disk,,5,17,-9,1,0,0,rectangle,17,-9,1,0,0,17,-9,1,0,0,1,97,257,24,1,,,,,,,,
,,,,,,,,,,,,,FF,,,,,,,,1.567,,,,,,,,,,,,,,,,,,,,,,60fe0df0dff66fde69e4ca76,610378bf79ff23eba6035b76,2021-07-29_23h03.54.207,Simcolourproject_2stim_asymm_v5,2020.2.10,MacIntel,60,61025ae37ef11b136ea224fe,,,,,,,,,1496,42,61,1,0,0,response1disk,,7,4,-17,1,0,0,rectangle,4,-17,1,0,0,4,-17,1,0,0,1,98,258,47,1,,,,,,,,
,,,,,,,,,,,,,FF,,,,,,,,0.399,,,,,,,,,,,,,,,,,,,,,,60fe0df0dff66fde69e4ca76,610378bf79ff23eba6035b76,2021-07-29_23h03.54.207,Simcolourproject_2stim_asymm_v5,2020.2.10,MacIntel,60,61025ae37ef11b136ea224fe,,,,,,,,,1046,33,54,1,0,0,response1disk,,7,10,8,1,0,0,rectangle,10,8,1,0,0,10,8,1,0,0,1,99,259,43,1,,,,,,,,
,,,,,,,,,,,,,FF,,,,,,,,0.533,,,,,,,,,,,,,,,,,,,,,,60fe0df0dff66fde69e4ca76,610378bf79ff23eba6035b76,2021-07-29_23h03.54.207,Simcolourproject_2stim_asymm_v5,2020.2.10,MacIntel,60,61025ae37ef11b136ea224fe,,,,,,,,,15,21,70,1,0,0,response1disk,,7,0,7,1,0,0,rectangle,0,7,1,0,0,0,7,1,0,0,1,100,260,71,1,,,,,,,,
,,,,,,,,,,,,,FF,,,,,,,,0.466,,,,,,,,,,,,,,,,,,,,,,60fe0df0dff66fde69e4ca76,610378bf79ff23eba6035b76,2021-07-29_23h03.54.207,Simcolourproject_2stim_asymm_v5,2020.2.10,MacIntel,60,61025ae37ef11b136ea224fe,,,,,,,,,1863,39,85,1,0,0,response1disk,,7,5,6,1,0,0,rectangle,5,6,1,0,0,5,6,1,0,0,1,101,261,135,1,,,,,,,,
,,,,,,,,,,,,,FF,,,,,,,,1.084,,,,,,,,,,,,,,,,,,,,,,60fe0df0dff66fde69e4ca76,610378bf79ff23eba6035b76,2021-07-29_23h03.54.207,Simcolourproject_2stim_asymm_v5,2020.2.10,MacIntel,60,61025ae37ef11b136ea224fe,,,,,,,,,3622,-29,-71,1,0,0,response5disk,,3,3,-7,1,0,0,rectangle,3,-7,1,0,0,3,-7,1,0,0,1,102,262,46,1,,,,,,,,
,,,,,,,,,,,,,FF,,,,,,,,1.251,,,,,,,,,,,,,,,,,,,,,,60fe0df0dff66fde69e4ca76,610378bf79ff23eba6035b76,2021-07-29_23h03.54.207,Simcolourproject_2stim_asymm_v5,2020.2.10,MacIntel,60,61025ae37ef11b136ea224fe,,,,,,,,,3165,24,54,1,0,0,response1disk,,7,1,-6,1,0,0,rectangle,1,-6,1,0,0,1,-6,1,0,0,1,103,263,84,1,,,,,,,,
,,,,,,,,,,,,,FF,,,,,,,,0.451,,,,,,,,,,,,,,,,,,,,,,60fe0df0dff66fde69e4ca76,610378bf79ff23eba6035b76,2021-07-29_23h03.54.207,Simcolourproject_2stim_asymm_v5,2020.2.10,MacIntel,60,61025ae37ef11b136ea224fe,,,,,,,,,1090,28,51,1,0,0,response1disk,,7,10,-1,1,0,0,rectangle,10,-1,1,0,0,10,-1,1,0,0,1,104,264,2,1,,,,,,,,
,,,,,,,,,,,,,FF,,,,,,,,0.45,,,,,,,,,,,,,,,,,,,,,,60fe0df0dff66fde69e4ca76,610378bf79ff23eba6035b76,2021-07-29_23h03.54.207,Simcolourproject_2stim_asymm_v5,2020.2.10,MacIntel,60,61025ae37ef11b136ea224fe,,,,,,,,,1277,33,59,1,0,0,response1disk,,7,15,0,1,0,0,rectangle,15,0,1,0,0,15,0,1,0,0,1,105,265,37,1,,,,,,,,
,,,,,,,,,,,,,FF,,,,,,,,0.667,,,,,,,,,,,,,,,,,,,,,,60fe0df0dff66fde69e4ca76,610378bf79ff23eba6035b76,2021-07-29_23h03.54.207,Simcolourproject_2stim_asymm_v5,2020.2.10,MacIntel,60,61025ae37ef11b136ea224fe,,,,,,,,,1260,37,73,1,0,0,response1disk,,7,19,4,1,0,0,rectangle,19,4,1,0,0,19,4,1,0,0,1,106,266,28,1,,,,,,,,
,,,,,,,,,,,,,FF,,,,,,,,0.932,,,,,,,,,,,,,,,,,,,,,,60fe0df0dff66fde69e4ca76,610378bf79ff23eba6035b76,2021-07-29_23h03.54.207,Simcolourproject_2stim_asymm_v5,2020.2.10,MacIntel,60,61025ae37ef11b136ea224fe,,,,,,,,,2095,40,-72,1,0,0,response3disk,,4,3,-1,1,0,0,rectangle,61,91,1,0,0,1,-8,1,0,0,1,107,267,1,1,,response1disk_3,TRUE,7,7,"[150,196,204,275,212,297,284,268,21,95,124,41,13,133,42,212,81,239,106,308]",1.133,rectangle
,,,,,,,,,,,,,FF,,,,,,,,0.667,,,,,,,,,,,,,,,,,,,,,,60fe0df0dff66fde69e4ca76,610378bf79ff23eba6035b76,2021-07-29_23h03.54.207,Simcolourproject_2stim_asymm_v5,2020.2.10,MacIntel,60,61025ae37ef11b136ea224fe,,,,,,,,,2124,25,53,1,0,0,response1disk,,7,16,5,1,0,0,rectangle,16,5,1,0,0,16,5,1,0,0,1,108,268,73,1,,,,,,,,
,,,,,,,,,,,,,FF,,,,,,,,0.882,,,,,,,,,,,,,,,,,,,,,,60fe0df0dff66fde69e4ca76,610378bf79ff23eba6035b76,2021-07-29_23h03.54.207,Simcolourproject_2stim_asymm_v5,2020.2.10,MacIntel,60,61025ae37ef11b136ea224fe,,,,,,,,,1381,49,31,1,0,0,response1disk,,6,14,16,1,0,0,rectangle,14,16,1,0,0,14,16,1,0,0,1,109,269,8,1,,,,,,,,
,,,,,,,,,,,,,FF,,,,,,,,0.966,,,,,,,,,,,,,,,,,,,,,,60fe0df0dff66fde69e4ca76,610378bf79ff23eba6035b76,2021-07-29_23h03.54.207,Simcolourproject_2stim_asymm_v5,2020.2.10,MacIntel,60,61025ae37ef11b136ea224fe,,,,,,,,,2858,28,52,1,0,0,response1disk,,7,-2,12,1,0,0,rectangle,-2,12,1,0,0,-2,12,1,0,0,1,110,270,75,1,,,,,,,,
,,,,,,,,,,,,,FF,,,,,,,,1.217,,,,,,,,,,,,,,,,,,,,,,60fe0df0dff66fde69e4ca76,610378bf79ff23eba6035b76,2021-07-29_23h03.54.207,Simcolourproject_2stim_asymm_v5,2020.2.10,MacIntel,60,61025ae37ef11b136ea224fe,,,,,,,,,1066,66,-23,1,0,0,response3disk,,5,13,-9,1,0,0,rectangle,13,-9,1,0,0,13,-9,1,0,0,1,111,271,93,1,,,,,,,,
,,,,,,,,,,,,,FF,,,,,,,,0.8,,,,,,,,,,,,,,,,,,,,,,60fe0df0dff66fde69e4ca76,610378bf79ff23eba6035b76,2021-07-29_23h03.54.207,Simcolourproject_2stim_asymm_v5,2020.2.10,MacIntel,60,61025ae37ef11b136ea224fe,,,,,,,,,458,63,24,1,0,0,response1disk,,6,15,9,1,0,0,rectangle,15,9,1,0,0,15,9,1,0,0,1,112,272,70,1,,,,,,,,
,,,,,,,,,,,,,FF,,,,,,,,1.284,,,,,,,,,,,,,,,,,,,,,,60fe0df0dff66fde69e4ca76,610378bf79ff23eba6035b76,2021-07-29_23h03.54.207,Simcolourproject_2stim_asymm_v5,2020.2.10,MacIntel,60,61025ae37ef11b136ea224fe,,,,,,,,,1588,59,25,1,0,0,response1disk,,6,11,8,1,0,0,rectangle,11,8,1,0,0,11,8,1,0,0,1,113,273,49,1,,,,,,,,
,,,,,,,,,,,,,FF,,,,,,,,2.216,,,,,,,,,,,,,,,,,,,,,,60fe0df0dff66fde69e4ca76,610378bf79ff23eba6035b76,2021-07-29_23h03.54.207,Simcolourproject_2stim_asymm_v5,2020.2.10,MacIntel,60,61025ae37ef11b136ea224fe,,,,,,,,,3303,26,-77,1,0,0,response3disk,,4,-1,-14,1,0,0,rectangle,-72,35,1,0,0,-8,10,1,0,0,1,114,274,128,1,,response7disk_3,TRUE,1,1,"[150,196,204,275,212,297,284,268,21,95,124,41,13,133,42,212,81,239,106,308]",1.083,rectangle
,,,,,,,,,,,,,FF,,,,,,,,0.6,,,,,,,,,,,,,,,,,,,,,,60fe0df0dff66fde69e4ca76,610378bf79ff23eba6035b76,2021-07-29_23h03.54.207,Simcolourproject_2stim_asymm_v5,2020.2.10,MacIntel,60,61025ae37ef11b136ea224fe,,,,,,,,,863,36,44,1,0,0,response1disk,,7,0,7,1,0,0,rectangle,0,7,1,0,0,0,7,1,0,0,1,115,275,18,1,,,,,,,,
,,,,,,,,,,,,,FF,,,,,,,,0.517,,,,,,,,,,,,,,,,,,,,,,60fe0df0dff66fde69e4ca76,610378bf79ff23eba6035b76,2021-07-29_23h03.54.207,Simcolourproject_2stim_asymm_v5,2020.2.10,MacIntel,60,61025ae37ef11b136ea224fe,,,,,,,,,1882,45,66,1,0,0,response1disk,,7,18,7,1,0,0,rectangle,18,7,1,0,0,18,7,1,0,0,1,116,276,41,1,,,,,,,,
,,,,,,,,,,,,,FF,,,,,,,,0.451,,,,,,,,,,,,,,,,,,,,,,60fe0df0dff66fde69e4ca76,610378bf79ff23eba6035b76,2021-07-29_23h03.54.207,Simcolourproject_2stim_asymm_v5,2020.2.10,MacIntel,60,61025ae37ef11b136ea224fe,,,,,,,,,2352,40,70,1,0,0,response1disk,,7,16,4,1,0,0,rectangle,16,4,1,0,0,16,4,1,0,0,1,117,277,56,1,,,,,,,,
,,,,,,,,,,,,,FF,,,,,,,,0.616,,,,,,,,,,,,,,,,,,,,,,60fe0df0dff66fde69e4ca76,610378bf79ff23eba6035b76,2021-07-29_23h03.54.207,Simcolourproject_2stim_asymm_v5,2020.2.10,MacIntel,60,61025ae37ef11b136ea224fe,,,,,,,,,84,37,59,1,0,0,response1disk,,7,8,-3,1,0,0,rectangle,8,-3,1,0,0,8,-3,1,0,0,1,118,278,131,1,,,,,,,,
,,,,,,,,,,,,,FF,,,,,,,,1.05,,,,,,,,,,,,,,,,,,,,,,60fe0df0dff66fde69e4ca76,610378bf79ff23eba6035b76,2021-07-29_23h03.54.207,Simcolourproject_2stim_asymm_v5,2020.2.10,MacIntel,60,61025ae37ef11b136ea224fe,,,,,,,,,347,51,-27,1,0,0,response3disk,,5,22,-7,1,0,0,rectangle,22,-7,1,0,0,22,-7,1,0,0,1,119,279,72,1,,,,,,,,
,,,,,,,,,,,,,FF,,,,,,,,0.632,,,,,,,,,,,,,,,,,,,,,,60fe0df0dff66fde69e4ca76,610378bf79ff23eba6035b76,2021-07-29_23h03.54.207,Simcolourproject_2stim_asymm_v5,2020.2.10,MacIntel,60,61025ae37ef11b136ea224fe,,,,,,,,,3822,46,25,1,0,0,response1disk,,6,10,9,1,0,0,rectangle,10,9,1,0,0,10,9,1,0,0,1,120,280,150,1,,,,,,,,
,,,,,,,,,,,,,FF,,,,,,,,0.967,,,,,,,,,,,,,,,,,,,,,,60fe0df0dff66fde69e4ca76,610378bf79ff23eba6035b76,2021-07-29_23h03.54.207,Simcolourproject_2stim_asymm_v5,2020.2.10,MacIntel,60,61025ae37ef11b136ea224fe,,,,,,,,,3332,18,-80,1,0,0,response3disk,,4,12,8,1,0,0,rectangle,12,8,1,0,0,12,8,1,0,0,1,121,281,15,1,,,,,,,,
,,,,,,,,,,,,,FF,,,,,,,,0.916,,,,,,,,,,,,,,,,,,,,,,60fe0df0dff66fde69e4ca76,610378bf79ff23eba6035b76,2021-07-29_23h03.54.207,Simcolourproject_2stim_asymm_v5,2020.2.10,MacIntel,60,61025ae37ef11b136ea224fe,,,,,,,,,4344,-38,73,1,0,0,response7disk,,0,1,4,1,0,0,rectangle,1,4,1,0,0,1,4,1,0,0,1,122,282,40,1,,,,,,,,
,,,,,,,,,,,,,FF,,,,,,,,1,,,,,,,,,,,,,,,,,,,,,,60fe0df0dff66fde69e4ca76,610378bf79ff23eba6035b76,2021-07-29_23h03.54.207,Simcolourproject_2stim_asymm_v5,2020.2.10,MacIntel,60,61025ae37ef11b136ea224fe,,,,,,,,,258,-38,-55,1,0,0,response5disk,,3,-9,2,1,0,0,rectangle,-27,68,1,0,0,-15,-14,1,0,0,1,123,283,61,1,,response7disk_3,TRUE,0,0,"[150,196,204,275,212,297,284,268,21,95,124,41,13,133,42,212,81,239,106,308]",1.2,rectangle
,,,,,,,,,,,,,FF,,,,,,,,0.733,,,,,,,,,,,,,,,,,,,,,,60fe0df0dff66fde69e4ca76,610378bf79ff23eba6035b76,2021-07-29_23h03.54.207,Simcolourproject_2stim_asymm_v5,2020.2.10,MacIntel,60,61025ae37ef11b136ea224fe,,,,,,,,,2693,-28,46,1,0,0,response7disk,,0,1,-1,1,0,0,rectangle,1,-1,1,0,0,1,-1,1,0,0,1,124,284,111,1,,,,,,,,
,,,,,,,,,,,,,FF,,,,,,,,0.534,,,,,,,,,,,,,,,,,,,,,,60fe0df0dff66fde69e4ca76,610378bf79ff23eba6035b76,2021-07-29_23h03.54.207,Simcolourproject_2stim_asymm_v5,2020.2.10,MacIntel,60,61025ae37ef11b136ea224fe,,,,,,,,,4011,41,96,1,0,0,response1disk,,7,-1,4,1,0,0,rectangle,-1,4,1,0,0,-1,4,1,0,0,1,125,285,133,1,,,,,,,,
,,,,,,,,,,,,,FF,,,,,,,,0.6,,,,,,,,,,,,,,,,,,,,,,60fe0df0dff66fde69e4ca76,610378bf79ff23eba6035b76,2021-07-29_23h03.54.207,Simcolourproject_2stim_asymm_v5,2020.2.10,MacIntel,60,61025ae37ef11b136ea224fe,,,,,,,,,717,-36,64,1,0,0,response7disk,,0,-5,8,1,0,0,rectangle,-5,8,1,0,0,-5,8,1,0,0,1,126,286,121,1,,,,,,,,
,,,,,,,,,,,,,FF,,,,,,,,0.617,,,,,,,,,,,,,,,,,,,,,,60fe0df0dff66fde69e4ca76,610378bf79ff23eba6035b76,2021-07-29_23h03.54.207,Simcolourproject_2stim_asymm_v5,2020.2.10,MacIntel,60,61025ae37ef11b136ea224fe,,,,,,,,,1631,29,71,1,0,0,response1disk,,7,-2,-2,1,0,0,rectangle,-2,-2,1,0,0,-2,-2,1,0,0,1,127,287,29,1,,,,,,,,
,,,,,,,,,,,,,FF,,,,,,,,0.534,,,,,,,,,,,,,,,,,,,,,,60fe0df0dff66fde69e4ca76,610378bf79ff23eba6035b76,2021-07-29_23h03.54.207,Simcolourproject_2stim_asymm_v5,2020.2.10,MacIntel,60,61025ae37ef11b136ea224fe,,,,,,,,,275,23,62,1,0,0,response1disk,,7,13,-4,1,0,0,rectangle,13,-4,1,0,0,13,-4,1,0,0,1,128,288,149,1,,,,,,,,
,,,,,,,,,,,,,FF,,,,,,,,1.283,,,,,,,,,,,,,,,,,,,,,,60fe0df0dff66fde69e4ca76,610378bf79ff23eba6035b76,2021-07-29_23h03.54.207,Simcolourproject_2stim_asymm_v5,2020.2.10,MacIntel,60,61025ae37ef11b136ea224fe,,,,,,,,,1133,-25,-68,1,0,0,response5disk,,3,5,10,1,0,0,rectangle,5,10,1,0,0,5,10,1,0,0,1,129,289,67,1,,,,,,,,
,,,,,,,,,,,,,FF,,,,,,,,0.55,,,,,,,,,,,,,,,,,,,,,,60fe0df0dff66fde69e4ca76,610378bf79ff23eba6035b76,2021-07-29_23h03.54.207,Simcolourproject_2stim_asymm_v5,2020.2.10,MacIntel,60,61025ae37ef11b136ea224fe,,,,,,,,,2635,27,66,1,0,0,response1disk,,7,2,14,1,0,0,rectangle,2,14,1,0,0,2,14,1,0,0,1,130,290,141,1,,,,,,,,
,,,,,,,,,,,,,FF,,,,,,,,0.766,,,,,,,,,,,,,,,,,,,,,,60fe0df0dff66fde69e4ca76,610378bf79ff23eba6035b76,2021-07-29_23h03.54.207,Simcolourproject_2stim_asymm_v5,2020.2.10,MacIntel,60,61025ae37ef11b136ea224fe,,,,,,,,,1068,58,-38,1,0,0,response3disk,,5,5,-1,1,0,0,rectangle,5,-1,1,0,0,5,-1,1,0,0,1,131,291,74,1,,,,,,,,
,,,,,,,,,,,,,FF,,,,,,,,0.516,,,,,,,,,,,,,,,,,,,,,,60fe0df0dff66fde69e4ca76,610378bf79ff23eba6035b76,2021-07-29_23h03.54.207,Simcolourproject_2stim_asymm_v5,2020.2.10,MacIntel,60,61025ae37ef11b136ea224fe,,,,,,,,,778,35,39,1,0,0,response1disk,,7,12,3,1,0,0,rectangle,12,3,1,0,0,12,3,1,0,0,1,132,292,157,1,,,,,,,,
,,,,,,,,,,,,,FF,,,,,,,,0.783,,,,,,,,,,,,,,,,,,,,,,60fe0df0dff66fde69e4ca76,610378bf79ff23eba6035b76,2021-07-29_23h03.54.207,Simcolourproject_2stim_asymm_v5,2020.2.10,MacIntel,60,61025ae37ef11b136ea224fe,,,,,,,,,4099,26,-79,1,0,0,response3disk,,4,-2,1,1,0,0,rectangle,-2,1,1,0,0,-2,1,1,0,0,1,133,293,94,1,,,,,,,,
,,,,,,,,,,,,,FF,,,,,,,,0.383,,,,,,,,,,,,,,,,,,,,,,60fe0df0dff66fde69e4ca76,610378bf79ff23eba6035b76,2021-07-29_23h03.54.207,Simcolourproject_2stim_asymm_v5,2020.2.10,MacIntel,60,61025ae37ef11b136ea224fe,,,,,,,,,2700,24,52,1,0,0,response1disk,,7,2,9,1,0,0,rectangle,2,9,1,0,0,2,9,1,0,0,1,134,294,44,1,,,,,,,,
,,,,,,,,,,,,,FF,,,,,,,,0.484,,,,,,,,,,,,,,,,,,,,,,60fe0df0dff66fde69e4ca76,610378bf79ff23eba6035b76,2021-07-29_23h03.54.207,Simcolourproject_2stim_asymm_v5,2020.2.10,MacIntel,60,61025ae37ef11b136ea224fe,,,,,,,,,1639,35,71,1,0,0,response1disk,,7,8,-5,1,0,0,rectangle,8,-5,1,0,0,8,-5,1,0,0,1,135,295,116,1,,,,,,,,
,,,,,,,,,,,,,FF,,,,,,,,0.633,,,,,,,,,,,,,,,,,,,,,,60fe0df0dff66fde69e4ca76,610378bf79ff23eba6035b76,2021-07-29_23h03.54.207,Simcolourproject_2stim_asymm_v5,2020.2.10,MacIntel,60,61025ae37ef11b136ea224fe,,,,,,,,,1596,-45,76,1,0,0,response7disk,,0,-7,8,1,0,0,rectangle,-56,43,1,0,0,-17,11,1,0,0,1,136,296,87,1,,response7disk_3,TRUE,1,1,"[150,196,204,275,212,297,284,268,21,95,124,41,13,133,42,212,81,239,106,308]",1.067,rectangle
,,,,,,,,,,,,,FF,,,,,,,,0.865,,,,,,,,,,,,,,,,,,,,,,60fe0df0dff66fde69e4ca76,610378bf79ff23eba6035b76,2021-07-29_23h03.54.207,Simcolourproject_2stim_asymm_v5,2020.2.10,MacIntel,60,61025ae37ef11b136ea224fe,,,,,,,,,3100,-61,-30,1,0,0,response5disk,,2,-7,-10,1,0,0,rectangle,-7,-10,1,0,0,-7,-10,1,0,0,1,137,297,16,1,,,,,,,,
,,,,,,,,,,,,,FF,,,,,,,,0.599,,,,,,,,,,,,,,,,,,,,,,60fe0df0dff66fde69e4ca76,610378bf79ff23eba6035b76,2021-07-29_23h03.54.207,Simcolourproject_2stim_asymm_v5,2020.2.10,MacIntel,60,61025ae37ef11b136ea224fe,,,,,,,,,231,28,67,1,0,0,response1disk,,7,1,9,1,0,0,rectangle,1,9,1,0,0,1,9,1,0,0,1,138,298,151,1,,,,,,,,
,,,,,,,,,,,,,FF,,,,,,,,0.518,,,,,,,,,,,,,,,,,,,,,,60fe0df0dff66fde69e4ca76,610378bf79ff23eba6035b76,2021-07-29_23h03.54.207,Simcolourproject_2stim_asymm_v5,2020.2.10,MacIntel,60,61025ae37ef11b136ea224fe,,,,,,,,,1717,30,65,1,0,0,response1disk,,7,13,-8,1,0,0,rectangle,13,-8,1,0,0,13,-8,1,0,0,1,139,299,6,1,,,,,,,,
,,,,,,,,,,,,,FF,,,,,,,,0.767,,,,,,,,,,,,,,,,,,,,,,60fe0df0dff66fde69e4ca76,610378bf79ff23eba6035b76,2021-07-29_23h03.54.207,Simcolourproject_2stim_asymm_v5,2020.2.10,MacIntel,60,61025ae37ef11b136ea224fe,,,,,,,,,4166,46,-27,1,0,0,response3disk,,5,11,-7,1,0,0,rectangle,11,-7,1,0,0,11,-7,1,0,0,1,140,300,145,1,,,,,,,,
,,,,,,,,,,,,,FF,,,,,,,,2.332,,,,,,,,,,,,,,,,,,,,,,60fe0df0dff66fde69e4ca76,610378bf79ff23eba6035b76,2021-07-29_23h03.54.207,Simcolourproject_2stim_asymm_v5,2020.2.10,MacIntel,60,61025ae37ef11b136ea224fe,,,,,,,,,1255,37,65,1,0,0,response1disk,,7,-5,-5,1,0,0,rectangle,-5,-5,1,0,0,-5,-5,1,0,0,1,141,301,143,1,,,,,,,,
,,,,,,,,,,,,,FF,,,,,,,,1.95,,,,,,,,,,,,,,,,,,,,,,60fe0df0dff66fde69e4ca76,610378bf79ff23eba6035b76,2021-07-29_23h03.54.207,Simcolourproject_2stim_asymm_v5,2020.2.10,MacIntel,60,61025ae37ef11b136ea224fe,,,,,,,,,2385,26,69,1,0,0,response1disk,,7,2,13,1,0,0,rectangle,2,13,1,0,0,2,13,1,0,0,1,142,302,78,1,,,,,,,,
