key_resp.keys,key_resp.rt,key_resp_14.keys,key_resp_14.rt,key_resp_15.keys,key_resp_15.rt,key_resp_17.keys,key_resp_17.rt,key_resp_9.keys,key_resp_9.rt,key_resp_10.keys,key_resp_10.rt,practice_comparison,Ecc,mouse_5.x,mouse_5.y,mouse_5.leftButton,mouse_5.midButton,mouse_5.rightButton,mouse_5.clicked_name,pracsimilarity,response_time,mouse_10.x,mouse_10.y,mouse_10.leftButton,mouse_10.midButton,mouse_10.rightButton,mouse_10.clicked_name,mouse_7.x,mouse_7.y,mouse_7.leftButton,mouse_7.midButton,mouse_7.rightButton,mouse_6.x,mouse_6.y,mouse_6.leftButton,mouse_6.midButton,mouse_6.rightButton,duringprac.thisRepN,duringprac.thisTrialN,duringprac.thisN,duringprac.thisIndex,duringprac.ran,participant,session,date,expName,psychopyVersion,OS,frameRate,study_id,mouse_7.clicked_name,catchpracsimilarity,catch_response_time,catchnumberprac,catchtrialorderprac,mouse_6.clicked_name,key_resp_22.keys,key_resp_22.rt,realcomparison,mouse.x,mouse.y,mouse.leftButton,mouse.midButton,mouse.rightButton,mouse.clicked_name,Colour2,similarity,mouse_2.x,mouse_2.y,mouse_2.leftButton,mouse_2.midButton,mouse_2.rightButton,mouse_2.clicked_name,mouse_3.x,mouse_3.y,mouse_3.leftButton,mouse_3.midButton,mouse_3.rightButton,mouse_11.x,mouse_11.y,mouse_11.leftButton,mouse_11.midButton,mouse_11.rightButton,trials_2.thisRepN,trials_2.thisTrialN,trials_2.thisN,trials_2.thisIndex,trials_2.ran,Colour1,mouse_3.clicked_name,catchornah,catchsimilarity,catchnumber,catchtrialorder,catchRT,mouse_11.clicked_name
space,1.391,space,9.246,space,38.673,space,13.517,space,1.115,space,3.644,90,FF,-58,-39,1,0,0,response5disk_5,2,22.068,-18,8,1,0,0,rectangle_8,-18,8,1,0,0,-18,8,1,0,0,0,0,0,5,1,60fee8c259d498feb86e38ad,61036ed5b4e8cd61018fe126,2021-07-29_22h16.16.734,Simcolourproject_2stim_asymm_v5,2020.2.10,MacIntel,60,61025ae37ef11b136ea224fe,,,,,,,,,,,,,,,,,,,,,,,,,,,,,,,,,,,,,,,,,,,,,,
,,,,,,,,,,,,152,PF,-43,-56,1,0,0,response5disk_5,3,4.85,-35,8,1,0,0,rectangle_8,-42,-51,1,0,0,-31,-2,1,0,0,0,1,1,4,1,60fee8c259d498feb86e38ad,61036ed5b4e8cd61018fe126,2021-07-29_22h16.16.734,Simcolourproject_2stim_asymm_v5,2020.2.10,MacIntel,60,61025ae37ef11b136ea224fe,response5disk_7,3,2.749,3,"[2,5]",rectangle_4,,,,,,,,,,,,,,,,,,,,,,,,,,,,,,,,,,,,,,,,
,,,,,,,,,,,,113,PF,70,48,1,0,0,response1disk_5,6,2.901,8,8,1,0,0,rectangle_8,8,8,1,0,0,8,8,1,0,0,0,2,2,1,1,60fee8c259d498feb86e38ad,61036ed5b4e8cd61018fe126,2021-07-29_22h16.16.734,Simcolourproject_2stim_asymm_v5,2020.2.10,MacIntel,60,61025ae37ef11b136ea224fe,,,,,,,,,,,,,,,,,,,,,,,,,,,,,,,,,,,,,,,,,,,,,,
,,,,,,,,,,,,55,PF,25,-21,1,0,0,response3disk_5,5,3.282,-28,8,1,0,0,rectangle_8,-28,8,1,0,0,-28,8,1,0,0,0,3,3,6,1,60fee8c259d498feb86e38ad,61036ed5b4e8cd61018fe126,2021-07-29_22h16.16.734,Simcolourproject_2stim_asymm_v5,2020.2.10,MacIntel,60,61025ae37ef11b136ea224fe,,,,,,,,,,,,,,,,,,,,,,,,,,,,,,,,,,,,,,,,,,,,,,
,,,,,,,,,,,,75,PF,17,-68,1,0,0,response3disk_5,4,1.317,-10,8,1,0,0,rectangle_8,-41,-60,1,0,0,-21,3,1,0,0,0,4,4,2,1,60fee8c259d498feb86e38ad,61036ed5b4e8cd61018fe126,2021-07-29_22h16.16.734,Simcolourproject_2stim_asymm_v5,2020.2.10,MacIntel,60,61025ae37ef11b136ea224fe,response5disk_7,3,2.567,3,"[2,5]",rectangle_4,,,,,,,,,,,,,,,,,,,,,,,,,,,,,,,,,,,,,,,,
,,,,,,,,,,,,122,FF,57,-24,1,0,0,response3disk_5,5,4.516,-22,6,1,0,0,rectangle_8,-22,6,1,0,0,-22,6,1,0,0,0,5,5,0,1,60fee8c259d498feb86e38ad,61036ed5b4e8cd61018fe126,2021-07-29_22h16.16.734,Simcolourproject_2stim_asymm_v5,2020.2.10,MacIntel,60,61025ae37ef11b136ea224fe,,,,,,,,,,,,,,,,,,,,,,,,,,,,,,,,,,,,,,,,,,,,,,
,,,,,,,,,,,,58,FF,56,-33,1,0,0,response3disk_5,5,1.1,-8,7,1,0,0,rectangle_8,-8,7,1,0,0,-8,7,1,0,0,0,6,6,3,1,60fee8c259d498feb86e38ad,61036ed5b4e8cd61018fe126,2021-07-29_22h16.16.734,Simcolourproject_2stim_asymm_v5,2020.2.10,MacIntel,60,61025ae37ef11b136ea224fe,,,,,,,,,,,,,,,,,,,,,,,,,,,,,,,,,,,,,,,,,,,,,,
,,,,,,,,,,,,,FF,,,,,,,,5.417,,,,,,,,,,,,,,,,,,,,,,60fee8c259d498feb86e38ad,61036ed5b4e8cd61018fe126,2021-07-29_22h16.16.734,Simcolourproject_2stim_asymm_v5,2020.2.10,MacIntel,60,61025ae37ef11b136ea224fe,,,,,,,space,2.828,4293,-79,35,1,0,0,response7disk,,1,-15,6,1,0,0,rectangle,-15,6,1,0,0,-15,6,1,0,0,0,0,0,153,1,,,,,,,,
,,,,,,,,,,,,,FF,,,,,,,,2.301,,,,,,,,,,,,,,,,,,,,,,60fee8c259d498feb86e38ad,61036ed5b4e8cd61018fe126,2021-07-29_22h16.16.734,Simcolourproject_2stim_asymm_v5,2020.2.10,MacIntel,60,61025ae37ef11b136ea224fe,,,,,,,,,2362,17,-72,1,0,0,response3disk,,4,-3,0,1,0,0,rectangle,-3,0,1,0,0,-3,0,1,0,0,0,1,1,113,1,,,,,,,,
,,,,,,,,,,,,,FF,,,,,,,,1.116,,,,,,,,,,,,,,,,,,,,,,60fee8c259d498feb86e38ad,61036ed5b4e8cd61018fe126,2021-07-29_22h16.16.734,Simcolourproject_2stim_asymm_v5,2020.2.10,MacIntel,60,61025ae37ef11b136ea224fe,,,,,,,,,3891,19,86,1,0,0,response1disk,,7,-14,12,1,0,0,rectangle,-14,12,1,0,0,-14,12,1,0,0,0,2,2,29,1,,,,,,,,
,,,,,,,,,,,,,FF,,,,,,,,1.617,,,,,,,,,,,,,,,,,,,,,,60fee8c259d498feb86e38ad,61036ed5b4e8cd61018fe126,2021-07-29_22h16.16.734,Simcolourproject_2stim_asymm_v5,2020.2.10,MacIntel,60,61025ae37ef11b136ea224fe,,,,,,,,,2510,19,72,1,0,0,response1disk,,7,-10,9,1,0,0,rectangle,-10,9,1,0,0,-10,9,1,0,0,0,3,3,94,1,,,,,,,,
,,,,,,,,,,,,,FF,,,,,,,,0.916,,,,,,,,,,,,,,,,,,,,,,60fee8c259d498feb86e38ad,61036ed5b4e8cd61018fe126,2021-07-29_22h16.16.734,Simcolourproject_2stim_asymm_v5,2020.2.10,MacIntel,60,61025ae37ef11b136ea224fe,,,,,,,,,1740,21,80,1,0,0,response1disk,,7,-11,16,1,0,0,rectangle,-11,16,1,0,0,-11,16,1,0,0,0,4,4,25,1,,,,,,,,
,,,,,,,,,,,,,FF,,,,,,,,1.517,,,,,,,,,,,,,,,,,,,,,,60fee8c259d498feb86e38ad,61036ed5b4e8cd61018fe126,2021-07-29_22h16.16.734,Simcolourproject_2stim_asymm_v5,2020.2.10,MacIntel,60,61025ae37ef11b136ea224fe,,,,,,,,,511,23,61,1,0,0,response1disk,,7,-9,14,1,0,0,rectangle,-9,14,1,0,0,-9,14,1,0,0,0,5,5,46,1,,,,,,,,
,,,,,,,,,,,,,FF,,,,,,,,0.617,,,,,,,,,,,,,,,,,,,,,,60fee8c259d498feb86e38ad,61036ed5b4e8cd61018fe126,2021-07-29_22h16.16.734,Simcolourproject_2stim_asymm_v5,2020.2.10,MacIntel,60,61025ae37ef11b136ea224fe,,,,,,,,,1493,19,84,1,0,0,response1disk,,7,-9,11,1,0,0,rectangle,-9,11,1,0,0,-9,11,1,0,0,0,6,6,139,1,,,,,,,,
,,,,,,,,,,,,,FF,,,,,,,,1.433,,,,,,,,,,,,,,,,,,,,,,60fee8c259d498feb86e38ad,61036ed5b4e8cd61018fe126,2021-07-29_22h16.16.734,Simcolourproject_2stim_asymm_v5,2020.2.10,MacIntel,60,61025ae37ef11b136ea224fe,,,,,,,,,2412,57,-30,1,0,0,response3disk,,5,2,5,1,0,0,rectangle,2,5,1,0,0,2,5,1,0,0,0,7,7,147,1,,,,,,,,
,,,,,,,,,,,,,FF,,,,,,,,1.747,,,,,,,,,,,,,,,,,,,,,,60fee8c259d498feb86e38ad,61036ed5b4e8cd61018fe126,2021-07-29_22h16.16.734,Simcolourproject_2stim_asymm_v5,2020.2.10,MacIntel,60,61025ae37ef11b136ea224fe,,,,,,,,,294,19,68,1,0,0,response1disk,,7,-24,-9,1,0,0,rectangle,-24,-9,1,0,0,-24,-9,1,0,0,0,8,8,78,1,,,,,,,,
,,,,,,,,,,,,,FF,,,,,,,,2.017,,,,,,,,,,,,,,,,,,,,,,60fee8c259d498feb86e38ad,61036ed5b4e8cd61018fe126,2021-07-29_22h16.16.734,Simcolourproject_2stim_asymm_v5,2020.2.10,MacIntel,60,61025ae37ef11b136ea224fe,,,,,,,,,3188,35,-70,1,0,0,response3disk,,4,-16,15,1,0,0,rectangle,-16,15,1,0,0,-16,15,1,0,0,0,9,9,6,1,,,,,,,,
,,,,,,,,,,,,,FF,,,,,,,,1.851,,,,,,,,,,,,,,,,,,,,,,60fee8c259d498feb86e38ad,61036ed5b4e8cd61018fe126,2021-07-29_22h16.16.734,Simcolourproject_2stim_asymm_v5,2020.2.10,MacIntel,60,61025ae37ef11b136ea224fe,,,,,,,,,1499,-50,86,1,0,0,response7disk,,0,-21,1,1,0,0,rectangle,-21,1,1,0,0,-21,1,1,0,0,0,10,10,156,1,,,,,,,,
,,,,,,,,,,,,,FF,,,,,,,,1.816,,,,,,,,,,,,,,,,,,,,,,60fee8c259d498feb86e38ad,61036ed5b4e8cd61018fe126,2021-07-29_22h16.16.734,Simcolourproject_2stim_asymm_v5,2020.2.10,MacIntel,60,61025ae37ef11b136ea224fe,,,,,,,,,2978,20,87,1,0,0,response1disk,,7,-7,15,1,0,0,rectangle,-7,15,1,0,0,-7,15,1,0,0,0,11,11,154,1,,,,,,,,
,,,,,,,,,,,,,FF,,,,,,,,0.515,,,,,,,,,,,,,,,,,,,,,,60fee8c259d498feb86e38ad,61036ed5b4e8cd61018fe126,2021-07-29_22h16.16.734,Simcolourproject_2stim_asymm_v5,2020.2.10,MacIntel,60,61025ae37ef11b136ea224fe,,,,,,,,,1092,20,90,1,0,0,response1disk,,7,-14,17,1,0,0,rectangle,59,40,1,0,0,-21,8,1,0,0,0,12,12,126,1,,response1disk_3,TRUE,6,6,"[254,23,39,137,309,59,203,160,21,184,207,205,297,143,130,51,27,13,251,168]",2.268,rectangle
,,,,,,,,,,,,,FF,,,,,,,,3.467,,,,,,,,,,,,,,,,,,,,,,60fee8c259d498feb86e38ad,61036ed5b4e8cd61018fe126,2021-07-29_22h16.16.734,Simcolourproject_2stim_asymm_v5,2020.2.10,MacIntel,60,61025ae37ef11b136ea224fe,,,,,,,,,1180,17,94,1,0,0,response1disk,,7,-12,6,1,0,0,rectangle,-12,6,1,0,0,-12,6,1,0,0,0,13,13,13,1,,,,,,,,
,,,,,,,,,,,,,FF,,,,,,,,1.5,,,,,,,,,,,,,,,,,,,,,,60fee8c259d498feb86e38ad,61036ed5b4e8cd61018fe126,2021-07-29_22h16.16.734,Simcolourproject_2stim_asymm_v5,2020.2.10,MacIntel,60,61025ae37ef11b136ea224fe,,,,,,,,,1763,67,49,1,0,0,response1disk,,6,-13,12,1,0,0,rectangle,-13,12,1,0,0,-13,12,1,0,0,0,14,14,40,1,,,,,,,,
,,,,,,,,,,,,,FF,,,,,,,,4.2,,,,,,,,,,,,,,,,,,,,,,60fee8c259d498feb86e38ad,61036ed5b4e8cd61018fe126,2021-07-29_22h16.16.734,Simcolourproject_2stim_asymm_v5,2020.2.10,MacIntel,60,61025ae37ef11b136ea224fe,,,,,,,,,1150,33,-20,1,0,0,response3disk,,5,3,2,1,0,0,rectangle,3,2,1,0,0,3,2,1,0,0,0,15,15,12,1,,,,,,,,
,,,,,,,,,,,,,FF,,,,,,,,3.066,,,,,,,,,,,,,,,,,,,,,,60fee8c259d498feb86e38ad,61036ed5b4e8cd61018fe126,2021-07-29_22h16.16.734,Simcolourproject_2stim_asymm_v5,2020.2.10,MacIntel,60,61025ae37ef11b136ea224fe,,,,,,,,,3649,27,91,1,0,0,response1disk,,7,-20,4,1,0,0,rectangle,-20,4,1,0,0,-20,4,1,0,0,0,16,16,142,1,,,,,,,,
,,,,,,,,,,,,,FF,,,,,,,,1.784,,,,,,,,,,,,,,,,,,,,,,60fee8c259d498feb86e38ad,61036ed5b4e8cd61018fe126,2021-07-29_22h16.16.734,Simcolourproject_2stim_asymm_v5,2020.2.10,MacIntel,60,61025ae37ef11b136ea224fe,,,,,,,,,2901,-61,-58,1,0,0,response5disk,,2,-19,0,1,0,0,rectangle,-19,0,1,0,0,-19,0,1,0,0,0,17,17,85,1,,,,,,,,
,,,,,,,,,,,,,FF,,,,,,,,3.1,,,,,,,,,,,,,,,,,,,,,,60fee8c259d498feb86e38ad,61036ed5b4e8cd61018fe126,2021-07-29_22h16.16.734,Simcolourproject_2stim_asymm_v5,2020.2.10,MacIntel,60,61025ae37ef11b136ea224fe,,,,,,,,,1893,-57,-58,1,0,0,response5disk,,3,-17,15,1,0,0,rectangle,-17,15,1,0,0,-17,15,1,0,0,0,18,18,38,1,,,,,,,,
,,,,,,,,,,,,,FF,,,,,,,,1.05,,,,,,,,,,,,,,,,,,,,,,60fee8c259d498feb86e38ad,61036ed5b4e8cd61018fe126,2021-07-29_22h16.16.734,Simcolourproject_2stim_asymm_v5,2020.2.10,MacIntel,60,61025ae37ef11b136ea224fe,,,,,,,,,2542,-90,-21,1,0,0,response5disk,,2,-18,8,1,0,0,rectangle,-18,8,1,0,0,-18,8,1,0,0,0,19,19,39,1,,,,,,,,
,,,,,,,,,,,,,FF,,,,,,,,1.417,,,,,,,,,,,,,,,,,,,,,,60fee8c259d498feb86e38ad,61036ed5b4e8cd61018fe126,2021-07-29_22h16.16.734,Simcolourproject_2stim_asymm_v5,2020.2.10,MacIntel,60,61025ae37ef11b136ea224fe,,,,,,,,,1813,37,80,1,0,0,response1disk,,7,-15,15,1,0,0,rectangle,29,104,1,0,0,-17,4,1,0,0,0,20,20,108,1,,response1disk_3,TRUE,7,7,"[254,23,39,137,309,59,203,160,21,184,207,205,297,143,130,51,27,13,251,168]",1.816,rectangle
,,,,,,,,,,,,,FF,,,,,,,,1.932,,,,,,,,,,,,,,,,,,,,,,60fee8c259d498feb86e38ad,61036ed5b4e8cd61018fe126,2021-07-29_22h16.16.734,Simcolourproject_2stim_asymm_v5,2020.2.10,MacIntel,60,61025ae37ef11b136ea224fe,,,,,,,,,1063,43,-15,1,0,0,response3disk,,5,-17,4,1,0,0,rectangle,-17,4,1,0,0,-17,4,1,0,0,0,21,21,99,1,,,,,,,,
,,,,,,,,,,,,,FF,,,,,,,,3.233,,,,,,,,,,,,,,,,,,,,,,60fee8c259d498feb86e38ad,61036ed5b4e8cd61018fe126,2021-07-29_22h16.16.734,Simcolourproject_2stim_asymm_v5,2020.2.10,MacIntel,60,61025ae37ef11b136ea224fe,,,,,,,,,3978,53,65,1,0,0,response1disk,,7,-11,8,1,0,0,rectangle,-94,-25,1,0,0,-13,8,1,0,0,0,22,22,14,1,,response5disk_3,TRUE,2,2,"[254,23,39,137,309,59,203,160,21,184,207,205,297,143,130,51,27,13,251,168]",2.217,rectangle
,,,,,,,,,,,,,FF,,,,,,,,2.55,,,,,,,,,,,,,,,,,,,,,,60fee8c259d498feb86e38ad,61036ed5b4e8cd61018fe126,2021-07-29_22h16.16.734,Simcolourproject_2stim_asymm_v5,2020.2.10,MacIntel,60,61025ae37ef11b136ea224fe,,,,,,,,,4223,-47,-54,1,0,0,response5disk,,3,-23,8,1,0,0,rectangle,-23,8,1,0,0,-23,8,1,0,0,0,23,23,102,1,,,,,,,,
,,,,,,,,,,,,,FF,,,,,,,,4.467,,,,,,,,,,,,,,,,,,,,,,60fee8c259d498feb86e38ad,61036ed5b4e8cd61018fe126,2021-07-29_22h16.16.734,Simcolourproject_2stim_asymm_v5,2020.2.10,MacIntel,60,61025ae37ef11b136ea224fe,,,,,,,,,3179,30,89,1,0,0,response1disk,,7,-36,2,1,0,0,rectangle,-36,2,1,0,0,-36,2,1,0,0,0,24,24,45,1,,,,,,,,
,,,,,,,,,,,,,FF,,,,,,,,0.601,,,,,,,,,,,,,,,,,,,,,,60fee8c259d498feb86e38ad,61036ed5b4e8cd61018fe126,2021-07-29_22h16.16.734,Simcolourproject_2stim_asymm_v5,2020.2.10,MacIntel,60,61025ae37ef11b136ea224fe,,,,,,,,,2447,21,60,1,0,0,response1disk,,7,-19,5,1,0,0,rectangle,-19,5,1,0,0,-19,5,1,0,0,0,25,25,100,1,,,,,,,,
,,,,,,,,,,,,,FF,,,,,,,,0.602,,,,,,,,,,,,,,,,,,,,,,60fee8c259d498feb86e38ad,61036ed5b4e8cd61018fe126,2021-07-29_22h16.16.734,Simcolourproject_2stim_asymm_v5,2020.2.10,MacIntel,60,61025ae37ef11b136ea224fe,,,,,,,,,1722,23,63,1,0,0,response1disk,,7,-4,9,1,0,0,rectangle,27,-54,1,0,0,-11,12,1,0,0,0,26,26,137,1,,response3disk_3,TRUE,4,4,"[254,23,39,137,309,59,203,160,21,184,207,205,297,143,130,51,27,13,251,168]",1.933,rectangle
,,,,,,,,,,,,,FF,,,,,,,,3.65,,,,,,,,,,,,,,,,,,,,,,60fee8c259d498feb86e38ad,61036ed5b4e8cd61018fe126,2021-07-29_22h16.16.734,Simcolourproject_2stim_asymm_v5,2020.2.10,MacIntel,60,61025ae37ef11b136ea224fe,,,,,,,,,2638,33,91,1,0,0,response1disk,,7,-18,13,1,0,0,rectangle,-18,13,1,0,0,-18,13,1,0,0,0,27,27,54,1,,,,,,,,
,,,,,,,,,,,,,FF,,,,,,,,2.5,,,,,,,,,,,,,,,,,,,,,,60fee8c259d498feb86e38ad,61036ed5b4e8cd61018fe126,2021-07-29_22h16.16.734,Simcolourproject_2stim_asymm_v5,2020.2.10,MacIntel,60,61025ae37ef11b136ea224fe,,,,,,,,,3473,-106,-39,1,0,0,response5disk,,2,-29,10,1,0,0,rectangle,-29,10,1,0,0,-29,10,1,0,0,0,28,28,49,1,,,,,,,,
,,,,,,,,,,,,,FF,,,,,,,,2.195,,,,,,,,,,,,,,,,,,,,,,60fee8c259d498feb86e38ad,61036ed5b4e8cd61018fe126,2021-07-29_22h16.16.734,Simcolourproject_2stim_asymm_v5,2020.2.10,MacIntel,60,61025ae37ef11b136ea224fe,,,,,,,,,3235,25,-34,1,0,0,response3disk,,4,-28,11,1,0,0,rectangle,-28,11,1,0,0,-28,11,1,0,0,0,29,29,58,1,,,,,,,,
,,,,,,,,,,,,,FF,,,,,,,,2.366,,,,,,,,,,,,,,,,,,,,,,60fee8c259d498feb86e38ad,61036ed5b4e8cd61018fe126,2021-07-29_22h16.16.734,Simcolourproject_2stim_asymm_v5,2020.2.10,MacIntel,60,61025ae37ef11b136ea224fe,,,,,,,,,3376,45,-28,1,0,0,response3disk,,5,-26,15,1,0,0,rectangle,-26,15,1,0,0,-26,15,1,0,0,0,30,30,62,1,,,,,,,,
,,,,,,,,,,,,,FF,,,,,,,,1.42,,,,,,,,,,,,,,,,,,,,,,60fee8c259d498feb86e38ad,61036ed5b4e8cd61018fe126,2021-07-29_22h16.16.734,Simcolourproject_2stim_asymm_v5,2020.2.10,MacIntel,60,61025ae37ef11b136ea224fe,,,,,,,,,1344,33,104,1,0,0,response1disk,,7,-21,7,1,0,0,rectangle,-21,7,1,0,0,-21,7,1,0,0,0,31,31,10,1,,,,,,,,
,,,,,,,,,,,,,FF,,,,,,,,0.466,,,,,,,,,,,,,,,,,,,,,,60fee8c259d498feb86e38ad,61036ed5b4e8cd61018fe126,2021-07-29_22h16.16.734,Simcolourproject_2stim_asymm_v5,2020.2.10,MacIntel,60,61025ae37ef11b136ea224fe,,,,,,,,,594,27,81,1,0,0,response1disk,,7,-15,5,1,0,0,rectangle,-15,5,1,0,0,-15,5,1,0,0,0,32,32,149,1,,,,,,,,
,,,,,,,,,,,,,FF,,,,,,,,3.233,,,,,,,,,,,,,,,,,,,,,,60fee8c259d498feb86e38ad,61036ed5b4e8cd61018fe126,2021-07-29_22h16.16.734,Simcolourproject_2stim_asymm_v5,2020.2.10,MacIntel,60,61025ae37ef11b136ea224fe,,,,,,,,,1312,55,59,1,0,0,response1disk,,7,-17,17,1,0,0,rectangle,-17,17,1,0,0,-17,17,1,0,0,0,33,33,27,1,,,,,,,,
,,,,,,,,,,,,,FF,,,,,,,,3.383,,,,,,,,,,,,,,,,,,,,,,60fee8c259d498feb86e38ad,61036ed5b4e8cd61018fe126,2021-07-29_22h16.16.734,Simcolourproject_2stim_asymm_v5,2020.2.10,MacIntel,60,61025ae37ef11b136ea224fe,,,,,,,,,102,55,63,1,0,0,response1disk,,7,-18,0,1,0,0,rectangle,-18,0,1,0,0,-18,0,1,0,0,0,34,34,121,1,,,,,,,,
,,,,,,,,,,,,,FF,,,,,,,,2.535,,,,,,,,,,,,,,,,,,,,,,60fee8c259d498feb86e38ad,61036ed5b4e8cd61018fe126,2021-07-29_22h16.16.734,Simcolourproject_2stim_asymm_v5,2020.2.10,MacIntel,60,61025ae37ef11b136ea224fe,,,,,,,,,2387,14,79,1,0,0,response1disk,,7,-16,3,1,0,0,rectangle,-16,3,1,0,0,-16,3,1,0,0,0,35,35,44,1,,,,,,,,
,,,,,,,,,,,,,FF,,,,,,,,0.75,,,,,,,,,,,,,,,,,,,,,,60fee8c259d498feb86e38ad,61036ed5b4e8cd61018fe126,2021-07-29_22h16.16.734,Simcolourproject_2stim_asymm_v5,2020.2.10,MacIntel,60,61025ae37ef11b136ea224fe,,,,,,,,,2928,16,70,1,0,0,response1disk,,7,-17,10,1,0,0,rectangle,-17,10,1,0,0,-17,10,1,0,0,0,36,36,115,1,,,,,,,,
,,,,,,,,,,,,,FF,,,,,,,,0.55,,,,,,,,,,,,,,,,,,,,,,60fee8c259d498feb86e38ad,61036ed5b4e8cd61018fe126,2021-07-29_22h16.16.734,Simcolourproject_2stim_asymm_v5,2020.2.10,MacIntel,60,61025ae37ef11b136ea224fe,,,,,,,,,477,18,64,1,0,0,response1disk,,7,-7,6,1,0,0,rectangle,-7,6,1,0,0,-7,6,1,0,0,0,37,37,69,1,,,,,,,,
,,,,,,,,,,,,,FF,,,,,,,,0.65,,,,,,,,,,,,,,,,,,,,,,60fee8c259d498feb86e38ad,61036ed5b4e8cd61018fe126,2021-07-29_22h16.16.734,Simcolourproject_2stim_asymm_v5,2020.2.10,MacIntel,60,61025ae37ef11b136ea224fe,,,,,,,,,668,46,101,1,0,0,response1disk,,7,-18,13,1,0,0,rectangle,26,-53,1,0,0,-11,16,1,0,0,0,38,38,80,1,,response3disk_3,TRUE,4,4,"[254,23,39,137,309,59,203,160,21,184,207,205,297,143,130,51,27,13,251,168]",1.833,rectangle
,,,,,,,,,,,,,FF,,,,,,,,1.085,,,,,,,,,,,,,,,,,,,,,,60fee8c259d498feb86e38ad,61036ed5b4e8cd61018fe126,2021-07-29_22h16.16.734,Simcolourproject_2stim_asymm_v5,2020.2.10,MacIntel,60,61025ae37ef11b136ea224fe,,,,,,,,,1715,24,83,1,0,0,response1disk,,7,-9,-7,1,0,0,rectangle,-9,-7,1,0,0,-9,-7,1,0,0,0,39,39,19,1,,,,,,,,
,,,,,,,,,,,,,FF,,,,,,,,0.869,,,,,,,,,,,,,,,,,,,,,,60fee8c259d498feb86e38ad,61036ed5b4e8cd61018fe126,2021-07-29_22h16.16.734,Simcolourproject_2stim_asymm_v5,2020.2.10,MacIntel,60,61025ae37ef11b136ea224fe,,,,,,,,,3611,28,94,1,0,0,response1disk,,7,-25,1,1,0,0,rectangle,-25,1,1,0,0,-25,1,1,0,0,0,40,40,16,1,,,,,,,,
,,,,,,,,,,,,,FF,,,,,,,,0.617,,,,,,,,,,,,,,,,,,,,,,60fee8c259d498feb86e38ad,61036ed5b4e8cd61018fe126,2021-07-29_22h16.16.734,Simcolourproject_2stim_asymm_v5,2020.2.10,MacIntel,60,61025ae37ef11b136ea224fe,,,,,,,,,71,15,64,1,0,0,response1disk,,7,-4,13,1,0,0,rectangle,-4,13,1,0,0,-4,13,1,0,0,0,41,41,66,1,,,,,,,,
,,,,,,,,,,,,,FF,,,,,,,,1.983,,,,,,,,,,,,,,,,,,,,,,60fee8c259d498feb86e38ad,61036ed5b4e8cd61018fe126,2021-07-29_22h16.16.734,Simcolourproject_2stim_asymm_v5,2020.2.10,MacIntel,60,61025ae37ef11b136ea224fe,,,,,,,,,2665,57,45,1,0,0,response1disk,,6,-19,1,1,0,0,rectangle,-19,1,1,0,0,-19,1,1,0,0,0,42,42,61,1,,,,,,,,
,,,,,,,,,,,,,FF,,,,,,,,1.835,,,,,,,,,,,,,,,,,,,,,,60fee8c259d498feb86e38ad,61036ed5b4e8cd61018fe126,2021-07-29_22h16.16.734,Simcolourproject_2stim_asymm_v5,2020.2.10,MacIntel,60,61025ae37ef11b136ea224fe,,,,,,,,,438,31,-53,1,0,0,response3disk,,4,-25,0,1,0,0,rectangle,-25,0,1,0,0,-25,0,1,0,0,0,43,43,51,1,,,,,,,,
,,,,,,,,,,,,,FF,,,,,,,,1.55,,,,,,,,,,,,,,,,,,,,,,60fee8c259d498feb86e38ad,61036ed5b4e8cd61018fe126,2021-07-29_22h16.16.734,Simcolourproject_2stim_asymm_v5,2020.2.10,MacIntel,60,61025ae37ef11b136ea224fe,,,,,,,,,1137,54,43,1,0,0,response1disk,,6,-12,8,1,0,0,rectangle,-12,8,1,0,0,-12,8,1,0,0,0,44,44,123,1,,,,,,,,
,,,,,,,,,,,,,FF,,,,,,,,1.817,,,,,,,,,,,,,,,,,,,,,,60fee8c259d498feb86e38ad,61036ed5b4e8cd61018fe126,2021-07-29_22h16.16.734,Simcolourproject_2stim_asymm_v5,2020.2.10,MacIntel,60,61025ae37ef11b136ea224fe,,,,,,,,,3552,-72,41,1,0,0,response7disk,,1,-21,1,1,0,0,rectangle,-21,1,1,0,0,-21,1,1,0,0,0,45,45,28,1,,,,,,,,
,,,,,,,,,,,,,FF,,,,,,,,1.134,,,,,,,,,,,,,,,,,,,,,,60fee8c259d498feb86e38ad,61036ed5b4e8cd61018fe126,2021-07-29_22h16.16.734,Simcolourproject_2stim_asymm_v5,2020.2.10,MacIntel,60,61025ae37ef11b136ea224fe,,,,,,,,,963,31,98,1,0,0,response1disk,,7,-9,17,1,0,0,rectangle,-9,17,1,0,0,-9,17,1,0,0,0,46,46,157,1,,,,,,,,
,,,,,,,,,,,,,FF,,,,,,,,1.132,,,,,,,,,,,,,,,,,,,,,,60fee8c259d498feb86e38ad,61036ed5b4e8cd61018fe126,2021-07-29_22h16.16.734,Simcolourproject_2stim_asymm_v5,2020.2.10,MacIntel,60,61025ae37ef11b136ea224fe,,,,,,,,,2764,22,102,1,0,0,response1disk,,7,-14,6,1,0,0,rectangle,-14,6,1,0,0,-14,6,1,0,0,0,47,47,97,1,,,,,,,,
,,,,,,,,,,,,,FF,,,,,,,,0.485,,,,,,,,,,,,,,,,,,,,,,60fee8c259d498feb86e38ad,61036ed5b4e8cd61018fe126,2021-07-29_22h16.16.734,Simcolourproject_2stim_asymm_v5,2020.2.10,MacIntel,60,61025ae37ef11b136ea224fe,,,,,,,,,4176,18,86,1,0,0,response1disk,,7,-16,7,1,0,0,rectangle,-16,7,1,0,0,-16,7,1,0,0,0,48,48,71,1,,,,,,,,
,,,,,,,,,,,,,FF,,,,,,,,0.947,,,,,,,,,,,,,,,,,,,,,,60fee8c259d498feb86e38ad,61036ed5b4e8cd61018fe126,2021-07-29_22h16.16.734,Simcolourproject_2stim_asymm_v5,2020.2.10,MacIntel,60,61025ae37ef11b136ea224fe,,,,,,,,,4143,52,37,1,0,0,response1disk,,6,7,10,1,0,0,rectangle,7,10,1,0,0,7,10,1,0,0,0,49,49,141,1,,,,,,,,
,,,,,,,,,,,,,FF,,,,,,,,0.981,,,,,,,,,,,,,,,,,,,,,,60fee8c259d498feb86e38ad,61036ed5b4e8cd61018fe126,2021-07-29_22h16.16.734,Simcolourproject_2stim_asymm_v5,2020.2.10,MacIntel,60,61025ae37ef11b136ea224fe,,,,,,,,,2017,40,63,1,0,0,response1disk,,7,-21,8,1,0,0,rectangle,-56,81,1,0,0,-15,14,1,0,0,0,50,50,92,1,,response7disk_3,TRUE,0,0,"[254,23,39,137,309,59,203,160,21,184,207,205,297,143,130,51,27,13,251,168]",1.948,rectangle
,,,,,,,,,,,,,FF,,,,,,,,1.734,,,,,,,,,,,,,,,,,,,,,,60fee8c259d498feb86e38ad,61036ed5b4e8cd61018fe126,2021-07-29_22h16.16.734,Simcolourproject_2stim_asymm_v5,2020.2.10,MacIntel,60,61025ae37ef11b136ea224fe,,,,,,,,,2184,40,60,1,0,0,response1disk,,7,-16,5,1,0,0,rectangle,-16,5,1,0,0,-16,5,1,0,0,0,51,51,31,1,,,,,,,,
,,,,,,,,,,,,,FF,,,,,,,,0.899,,,,,,,,,,,,,,,,,,,,,,60fee8c259d498feb86e38ad,61036ed5b4e8cd61018fe126,2021-07-29_22h16.16.734,Simcolourproject_2stim_asymm_v5,2020.2.10,MacIntel,60,61025ae37ef11b136ea224fe,,,,,,,,,1357,72,46,1,0,0,response1disk,,6,-5,6,1,0,0,rectangle,-5,6,1,0,0,-5,6,1,0,0,0,52,52,144,1,,,,,,,,
,,,,,,,,,,,,,FF,,,,,,,,1.534,,,,,,,,,,,,,,,,,,,,,,60fee8c259d498feb86e38ad,61036ed5b4e8cd61018fe126,2021-07-29_22h16.16.734,Simcolourproject_2stim_asymm_v5,2020.2.10,MacIntel,60,61025ae37ef11b136ea224fe,,,,,,,,,1922,26,70,1,0,0,response1disk,,7,-13,16,1,0,0,rectangle,-13,16,1,0,0,-13,16,1,0,0,0,53,53,130,1,,,,,,,,
,,,,,,,,,,,,,FF,,,,,,,,1.015,,,,,,,,,,,,,,,,,,,,,,60fee8c259d498feb86e38ad,61036ed5b4e8cd61018fe126,2021-07-29_22h16.16.734,Simcolourproject_2stim_asymm_v5,2020.2.10,MacIntel,60,61025ae37ef11b136ea224fe,,,,,,,,,1410,28,77,1,0,0,response1disk,,7,-4,11,1,0,0,rectangle,-4,11,1,0,0,-4,11,1,0,0,0,54,54,70,1,,,,,,,,
,,,,,,,,,,,,,FF,,,,,,,,2.867,,,,,,,,,,,,,,,,,,,,,,60fee8c259d498feb86e38ad,61036ed5b4e8cd61018fe126,2021-07-29_22h16.16.734,Simcolourproject_2stim_asymm_v5,2020.2.10,MacIntel,60,61025ae37ef11b136ea224fe,,,,,,,,,2987,-40,-73,1,0,0,response5disk,,3,-12,14,1,0,0,rectangle,-12,14,1,0,0,-12,14,1,0,0,0,55,55,53,1,,,,,,,,
,,,,,,,,,,,,,FF,,,,,,,,0.7,,,,,,,,,,,,,,,,,,,,,,60fee8c259d498feb86e38ad,61036ed5b4e8cd61018fe126,2021-07-29_22h16.16.734,Simcolourproject_2stim_asymm_v5,2020.2.10,MacIntel,60,61025ae37ef11b136ea224fe,,,,,,,,,1569,28,81,1,0,0,response1disk,,7,-15,2,1,0,0,rectangle,-15,2,1,0,0,-15,2,1,0,0,0,56,56,131,1,,,,,,,,
,,,,,,,,,,,,,FF,,,,,,,,0.683,,,,,,,,,,,,,,,,,,,,,,60fee8c259d498feb86e38ad,61036ed5b4e8cd61018fe126,2021-07-29_22h16.16.734,Simcolourproject_2stim_asymm_v5,2020.2.10,MacIntel,60,61025ae37ef11b136ea224fe,,,,,,,,,3687,-54,-60,1,0,0,response5disk,,3,-22,-4,1,0,0,rectangle,-22,-4,1,0,0,-22,-4,1,0,0,0,57,57,89,1,,,,,,,,
,,,,,,,,,,,,,FF,,,,,,,,0.981,,,,,,,,,,,,,,,,,,,,,,60fee8c259d498feb86e38ad,61036ed5b4e8cd61018fe126,2021-07-29_22h16.16.734,Simcolourproject_2stim_asymm_v5,2020.2.10,MacIntel,60,61025ae37ef11b136ea224fe,,,,,,,,,356,-39,-38,1,0,0,response5disk,,2,-14,0,1,0,0,rectangle,-49,78,1,0,0,-12,8,1,0,0,0,58,58,129,1,,response7disk_3,TRUE,0,0,"[254,23,39,137,309,59,203,160,21,184,207,205,297,143,130,51,27,13,251,168]",1.666,rectangle
,,,,,,,,,,,,,FF,,,,,,,,2.899,,,,,,,,,,,,,,,,,,,,,,60fee8c259d498feb86e38ad,61036ed5b4e8cd61018fe126,2021-07-29_22h16.16.734,Simcolourproject_2stim_asymm_v5,2020.2.10,MacIntel,60,61025ae37ef11b136ea224fe,,,,,,,,,238,21,60,1,0,0,response1disk,,7,-18,10,1,0,0,rectangle,-18,10,1,0,0,-18,10,1,0,0,0,59,59,81,1,,,,,,,,
,,,,,,,,,,,,,FF,,,,,,,,0.601,,,,,,,,,,,,,,,,,,,,,,60fee8c259d498feb86e38ad,61036ed5b4e8cd61018fe126,2021-07-29_22h16.16.734,Simcolourproject_2stim_asymm_v5,2020.2.10,MacIntel,60,61025ae37ef11b136ea224fe,,,,,,,,,2728,37,80,1,0,0,response1disk,,7,-13,12,1,0,0,rectangle,-13,12,1,0,0,-13,12,1,0,0,0,60,60,116,1,,,,,,,,
,,,,,,,,,,,,,FF,,,,,,,,0.618,,,,,,,,,,,,,,,,,,,,,,60fee8c259d498feb86e38ad,61036ed5b4e8cd61018fe126,2021-07-29_22h16.16.734,Simcolourproject_2stim_asymm_v5,2020.2.10,MacIntel,60,61025ae37ef11b136ea224fe,,,,,,,,,3128,43,70,1,0,0,response1disk,,7,-29,7,1,0,0,rectangle,-29,7,1,0,0,-29,7,1,0,0,0,61,61,9,1,,,,,,,,
,,,,,,,,,,,,,FF,,,,,,,,1.249,,,,,,,,,,,,,,,,,,,,,,60fee8c259d498feb86e38ad,61036ed5b4e8cd61018fe126,2021-07-29_22h16.16.734,Simcolourproject_2stim_asymm_v5,2020.2.10,MacIntel,60,61025ae37ef11b136ea224fe,,,,,,,,,3234,21,96,1,0,0,response1disk,,7,-16,2,1,0,0,rectangle,-16,2,1,0,0,-16,2,1,0,0,0,62,62,90,1,,,,,,,,
,,,,,,,,,,,,,FF,,,,,,,,0.417,,,,,,,,,,,,,,,,,,,,,,60fee8c259d498feb86e38ad,61036ed5b4e8cd61018fe126,2021-07-29_22h16.16.734,Simcolourproject_2stim_asymm_v5,2020.2.10,MacIntel,60,61025ae37ef11b136ea224fe,,,,,,,,,2389,22,70,1,0,0,response1disk,,7,-14,-12,1,0,0,rectangle,-14,-12,1,0,0,-14,-12,1,0,0,0,63,63,65,1,,,,,,,,
,,,,,,,,,,,,,FF,,,,,,,,0.95,,,,,,,,,,,,,,,,,,,,,,60fee8c259d498feb86e38ad,61036ed5b4e8cd61018fe126,2021-07-29_22h16.16.734,Simcolourproject_2stim_asymm_v5,2020.2.10,MacIntel,60,61025ae37ef11b136ea224fe,,,,,,,,,1745,-75,17,1,0,0,response7disk,,1,-15,6,1,0,0,rectangle,-15,6,1,0,0,-15,6,1,0,0,0,64,64,64,1,,,,,,,,
,,,,,,,,,,,,,FF,,,,,,,,1.4,,,,,,,,,,,,,,,,,,,,,,60fee8c259d498feb86e38ad,61036ed5b4e8cd61018fe126,2021-07-29_22h16.16.734,Simcolourproject_2stim_asymm_v5,2020.2.10,MacIntel,60,61025ae37ef11b136ea224fe,,,,,,,,,31,18,81,1,0,0,response1disk,,7,4,5,1,0,0,rectangle,4,5,1,0,0,4,5,1,0,0,0,65,65,48,1,,,,,,,,
,,,,,,,,,,,,,FF,,,,,,,,0.533,,,,,,,,,,,,,,,,,,,,,,60fee8c259d498feb86e38ad,61036ed5b4e8cd61018fe126,2021-07-29_22h16.16.734,Simcolourproject_2stim_asymm_v5,2020.2.10,MacIntel,60,61025ae37ef11b136ea224fe,,,,,,,,,254,19,74,1,0,0,response1disk,,7,-9,-3,1,0,0,rectangle,-9,-3,1,0,0,-9,-3,1,0,0,0,66,66,26,1,,,,,,,,
,,,,,,,,,,,,,FF,,,,,,,,1.77,,,,,,,,,,,,,,,,,,,,,,60fee8c259d498feb86e38ad,61036ed5b4e8cd61018fe126,2021-07-29_22h16.16.734,Simcolourproject_2stim_asymm_v5,2020.2.10,MacIntel,60,61025ae37ef11b136ea224fe,,,,,,,,,1810,24,71,1,0,0,response1disk,,7,-9,5,1,0,0,rectangle,-9,5,1,0,0,-9,5,1,0,0,0,67,67,87,1,,,,,,,,
,,,,,,,,,,,,,FF,,,,,,,,0.619,,,,,,,,,,,,,,,,,,,,,,60fee8c259d498feb86e38ad,61036ed5b4e8cd61018fe126,2021-07-29_22h16.16.734,Simcolourproject_2stim_asymm_v5,2020.2.10,MacIntel,60,61025ae37ef11b136ea224fe,,,,,,,,,2476,23,72,1,0,0,response1disk,,7,-10,14,1,0,0,rectangle,-10,14,1,0,0,-10,14,1,0,0,0,68,68,4,1,,,,,,,,
,,,,,,,,,,,,,FF,,,,,,,,0.634,,,,,,,,,,,,,,,,,,,,,,60fee8c259d498feb86e38ad,61036ed5b4e8cd61018fe126,2021-07-29_22h16.16.734,Simcolourproject_2stim_asymm_v5,2020.2.10,MacIntel,60,61025ae37ef11b136ea224fe,,,,,,,,,291,35,97,1,0,0,response1disk,,7,-9,6,1,0,0,rectangle,-9,6,1,0,0,-9,6,1,0,0,0,69,69,114,1,,,,,,,,
,,,,,,,,,,,,,FF,,,,,,,,0.549,,,,,,,,,,,,,,,,,,,,,,60fee8c259d498feb86e38ad,61036ed5b4e8cd61018fe126,2021-07-29_22h16.16.734,Simcolourproject_2stim_asymm_v5,2020.2.10,MacIntel,60,61025ae37ef11b136ea224fe,,,,,,,,,1934,24,104,1,0,0,response1disk,,7,2,13,1,0,0,rectangle,2,13,1,0,0,2,13,1,0,0,0,70,70,77,1,,,,,,,,
,,,,,,,,,,,,,FF,,,,,,,,1.149,,,,,,,,,,,,,,,,,,,,,,60fee8c259d498feb86e38ad,61036ed5b4e8cd61018fe126,2021-07-29_22h16.16.734,Simcolourproject_2stim_asymm_v5,2020.2.10,MacIntel,60,61025ae37ef11b136ea224fe,,,,,,,,,3054,-76,43,1,0,0,response7disk,,1,-35,7,1,0,0,rectangle,-35,7,1,0,0,-35,7,1,0,0,0,71,71,93,1,,,,,,,,
,,,,,,,,,,,,,FF,,,,,,,,0.65,,,,,,,,,,,,,,,,,,,,,,60fee8c259d498feb86e38ad,61036ed5b4e8cd61018fe126,2021-07-29_22h16.16.734,Simcolourproject_2stim_asymm_v5,2020.2.10,MacIntel,60,61025ae37ef11b136ea224fe,,,,,,,,,3494,30,88,1,0,0,response1disk,,7,-15,6,1,0,0,rectangle,-15,6,1,0,0,-15,6,1,0,0,0,72,72,15,1,,,,,,,,
,,,,,,,,,,,,,FF,,,,,,,,1.183,,,,,,,,,,,,,,,,,,,,,,60fee8c259d498feb86e38ad,61036ed5b4e8cd61018fe126,2021-07-29_22h16.16.734,Simcolourproject_2stim_asymm_v5,2020.2.10,MacIntel,60,61025ae37ef11b136ea224fe,,,,,,,,,1299,-61,84,1,0,0,response7disk,,0,-20,12,1,0,0,rectangle,-20,12,1,0,0,-20,12,1,0,0,0,73,73,24,1,,,,,,,,
,,,,,,,,,,,,,FF,,,,,,,,1.119,,,,,,,,,,,,,,,,,,,,,,60fee8c259d498feb86e38ad,61036ed5b4e8cd61018fe126,2021-07-29_22h16.16.734,Simcolourproject_2stim_asymm_v5,2020.2.10,MacIntel,60,61025ae37ef11b136ea224fe,,,,,,,,,1270,28,91,1,0,0,response1disk,,7,-9,7,1,0,0,rectangle,-9,7,1,0,0,-9,7,1,0,0,0,74,74,136,1,,,,,,,,
,,,,,,,,,,,,,FF,,,,,,,,0.504,,,,,,,,,,,,,,,,,,,,,,60fee8c259d498feb86e38ad,61036ed5b4e8cd61018fe126,2021-07-29_22h16.16.734,Simcolourproject_2stim_asymm_v5,2020.2.10,MacIntel,60,61025ae37ef11b136ea224fe,,,,,,,,,3778,-53,63,1,0,0,response7disk,,0,-21,13,1,0,0,rectangle,-21,13,1,0,0,-21,13,1,0,0,0,75,75,105,1,,,,,,,,
,,,,,,,,,,,,,FF,,,,,,,,2.767,,,,,,,,,,,,,,,,,,,,,,60fee8c259d498feb86e38ad,61036ed5b4e8cd61018fe126,2021-07-29_22h16.16.734,Simcolourproject_2stim_asymm_v5,2020.2.10,MacIntel,60,61025ae37ef11b136ea224fe,,,,,,,,,3640,19,85,1,0,0,response1disk,,7,-21,14,1,0,0,rectangle,-21,14,1,0,0,-21,14,1,0,0,0,76,76,122,1,,,,,,,,
,,,,,,,,,,,,,FF,,,,,,,,0.484,,,,,,,,,,,,,,,,,,,,,,60fee8c259d498feb86e38ad,61036ed5b4e8cd61018fe126,2021-07-29_22h16.16.734,Simcolourproject_2stim_asymm_v5,2020.2.10,MacIntel,60,61025ae37ef11b136ea224fe,,,,,,,,,331,23,46,1,0,0,response1disk,,7,-20,1,1,0,0,rectangle,-20,1,1,0,0,-20,1,1,0,0,0,77,77,96,1,,,,,,,,
,,,,,,,,,,,,,FF,,,,,,,,2,,,,,,,,,,,,,,,,,,,,,,60fee8c259d498feb86e38ad,61036ed5b4e8cd61018fe126,2021-07-29_22h16.16.734,Simcolourproject_2stim_asymm_v5,2020.2.10,MacIntel,60,61025ae37ef11b136ea224fe,,,,,,,,,4106,17,-48,1,0,0,response3disk,,4,-19,6,1,0,0,rectangle,-19,6,1,0,0,-19,6,1,0,0,0,78,78,47,1,,,,,,,,
,,,,,,,,,,,,,FF,,,,,,,,1.135,,,,,,,,,,,,,,,,,,,,,,60fee8c259d498feb86e38ad,61036ed5b4e8cd61018fe126,2021-07-29_22h16.16.734,Simcolourproject_2stim_asymm_v5,2020.2.10,MacIntel,60,61025ae37ef11b136ea224fe,,,,,,,,,657,32,98,1,0,0,response1disk,,7,-15,-4,1,0,0,rectangle,-15,-4,1,0,0,-15,-4,1,0,0,0,79,79,63,1,,,,,,,,
,,,,,,,,,,,,,FF,,,,,,,,1.201,,,,,,,,,,,,,,,,,,,,,,60fee8c259d498feb86e38ad,61036ed5b4e8cd61018fe126,2021-07-29_22h16.16.734,Simcolourproject_2stim_asymm_v5,2020.2.10,MacIntel,60,61025ae37ef11b136ea224fe,,,,,,,,,940,15,87,1,0,0,response1disk,,7,-2,-3,1,0,0,rectangle,-2,-3,1,0,0,-2,-3,1,0,0,0,80,80,74,1,,,,,,,,
,,,,,,,,,,,,,FF,,,,,,,,0.567,,,,,,,,,,,,,,,,,,,,,,60fee8c259d498feb86e38ad,61036ed5b4e8cd61018fe126,2021-07-29_22h16.16.734,Simcolourproject_2stim_asymm_v5,2020.2.10,MacIntel,60,61025ae37ef11b136ea224fe,,,,,,,,,4091,19,56,1,0,0,response1disk,,7,-5,8,1,0,0,rectangle,-5,8,1,0,0,-5,8,1,0,0,0,81,81,84,1,,,,,,,,
,,,,,,,,,,,,,FF,,,,,,,,1.216,,,,,,,,,,,,,,,,,,,,,,60fee8c259d498feb86e38ad,61036ed5b4e8cd61018fe126,2021-07-29_22h16.16.734,Simcolourproject_2stim_asymm_v5,2020.2.10,MacIntel,60,61025ae37ef11b136ea224fe,,,,,,,,,2644,19,76,1,0,0,response1disk,,7,2,7,1,0,0,rectangle,2,7,1,0,0,2,7,1,0,0,0,82,82,11,1,,,,,,,,
,,,,,,,,,,,,,FF,,,,,,,,1.515,,,,,,,,,,,,,,,,,,,,,,60fee8c259d498feb86e38ad,61036ed5b4e8cd61018fe126,2021-07-29_22h16.16.734,Simcolourproject_2stim_asymm_v5,2020.2.10,MacIntel,60,61025ae37ef11b136ea224fe,,,,,,,,,4155,14,72,1,0,0,response1disk,,7,-3,9,1,0,0,rectangle,-3,9,1,0,0,-3,9,1,0,0,0,83,83,5,1,,,,,,,,
,,,,,,,,,,,,,FF,,,,,,,,1.383,,,,,,,,,,,,,,,,,,,,,,60fee8c259d498feb86e38ad,61036ed5b4e8cd61018fe126,2021-07-29_22h16.16.734,Simcolourproject_2stim_asymm_v5,2020.2.10,MacIntel,60,61025ae37ef11b136ea224fe,,,,,,,,,4104,-81,38,1,0,0,response7disk,,1,-19,6,1,0,0,rectangle,-19,6,1,0,0,-19,6,1,0,0,0,84,84,98,1,,,,,,,,
,,,,,,,,,,,,,FF,,,,,,,,3.468,,,,,,,,,,,,,,,,,,,,,,60fee8c259d498feb86e38ad,61036ed5b4e8cd61018fe126,2021-07-29_22h16.16.734,Simcolourproject_2stim_asymm_v5,2020.2.10,MacIntel,60,61025ae37ef11b136ea224fe,,,,,,,,,1202,37,-78,1,0,0,response3disk,,4,-17,0,1,0,0,rectangle,-17,0,1,0,0,-17,0,1,0,0,0,85,85,104,1,,,,,,,,
,,,,,,,,,,,,,FF,,,,,,,,2.251,,,,,,,,,,,,,,,,,,,,,,60fee8c259d498feb86e38ad,61036ed5b4e8cd61018fe126,2021-07-29_22h16.16.734,Simcolourproject_2stim_asymm_v5,2020.2.10,MacIntel,60,61025ae37ef11b136ea224fe,,,,,,,,,4275,21,80,1,0,0,response1disk,,7,-23,-14,1,0,0,rectangle,-23,-14,1,0,0,-23,-14,1,0,0,0,86,86,106,1,,,,,,,,
,,,,,,,,,,,,,FF,,,,,,,,1.168,,,,,,,,,,,,,,,,,,,,,,60fee8c259d498feb86e38ad,61036ed5b4e8cd61018fe126,2021-07-29_22h16.16.734,Simcolourproject_2stim_asymm_v5,2020.2.10,MacIntel,60,61025ae37ef11b136ea224fe,,,,,,,,,1124,29,88,1,0,0,response1disk,,7,-23,10,1,0,0,rectangle,-23,10,1,0,0,-23,10,1,0,0,0,87,87,43,1,,,,,,,,
,,,,,,,,,,,,,FF,,,,,,,,1.117,,,,,,,,,,,,,,,,,,,,,,60fee8c259d498feb86e38ad,61036ed5b4e8cd61018fe126,2021-07-29_22h16.16.734,Simcolourproject_2stim_asymm_v5,2020.2.10,MacIntel,60,61025ae37ef11b136ea224fe,,,,,,,,,4181,-43,80,1,0,0,response7disk,,0,-4,4,1,0,0,rectangle,-4,4,1,0,0,-4,4,1,0,0,0,88,88,133,1,,,,,,,,
,,,,,,,,,,,,,FF,,,,,,,,1.333,,,,,,,,,,,,,,,,,,,,,,60fee8c259d498feb86e38ad,61036ed5b4e8cd61018fe126,2021-07-29_22h16.16.734,Simcolourproject_2stim_asymm_v5,2020.2.10,MacIntel,60,61025ae37ef11b136ea224fe,,,,,,,,,3829,33,77,1,0,0,response1disk,,7,-11,9,1,0,0,rectangle,-11,9,1,0,0,-11,9,1,0,0,0,89,89,22,1,,,,,,,,
,,,,,,,,,,,,,FF,,,,,,,,1.369,,,,,,,,,,,,,,,,,,,,,,60fee8c259d498feb86e38ad,61036ed5b4e8cd61018fe126,2021-07-29_22h16.16.734,Simcolourproject_2stim_asymm_v5,2020.2.10,MacIntel,60,61025ae37ef11b136ea224fe,,,,,,,,,2097,53,-30,1,0,0,response3disk,,5,-18,13,1,0,0,rectangle,-18,13,1,0,0,-18,13,1,0,0,0,90,90,95,1,,,,,,,,
,,,,,,,,,,,,,FF,,,,,,,,0.566,,,,,,,,,,,,,,,,,,,,,,60fee8c259d498feb86e38ad,61036ed5b4e8cd61018fe126,2021-07-29_22h16.16.734,Simcolourproject_2stim_asymm_v5,2020.2.10,MacIntel,60,61025ae37ef11b136ea224fe,,,,,,,,,147,28,98,1,0,0,response1disk,,7,-20,13,1,0,0,rectangle,-20,13,1,0,0,-20,13,1,0,0,0,91,91,2,1,,,,,,,,
,,,,,,,,,,,,,FF,,,,,,,,0.866,,,,,,,,,,,,,,,,,,,,,,60fee8c259d498feb86e38ad,61036ed5b4e8cd61018fe126,2021-07-29_22h16.16.734,Simcolourproject_2stim_asymm_v5,2020.2.10,MacIntel,60,61025ae37ef11b136ea224fe,,,,,,,,,1836,16,67,1,0,0,response1disk,,7,-4,16,1,0,0,rectangle,-4,16,1,0,0,-4,16,1,0,0,0,92,92,103,1,,,,,,,,
,,,,,,,,,,,,,FF,,,,,,,,0.499,,,,,,,,,,,,,,,,,,,,,,60fee8c259d498feb86e38ad,61036ed5b4e8cd61018fe126,2021-07-29_22h16.16.734,Simcolourproject_2stim_asymm_v5,2020.2.10,MacIntel,60,61025ae37ef11b136ea224fe,,,,,,,,,1183,23,97,1,0,0,response1disk,,7,-33,-6,1,0,0,rectangle,-33,-6,1,0,0,-33,-6,1,0,0,0,93,93,135,1,,,,,,,,
,,,,,,,,,,,,,FF,,,,,,,,1.234,,,,,,,,,,,,,,,,,,,,,,60fee8c259d498feb86e38ad,61036ed5b4e8cd61018fe126,2021-07-29_22h16.16.734,Simcolourproject_2stim_asymm_v5,2020.2.10,MacIntel,60,61025ae37ef11b136ea224fe,,,,,,,,,3506,30,99,1,0,0,response1disk,,7,-16,14,1,0,0,rectangle,-16,14,1,0,0,-16,14,1,0,0,0,94,94,33,1,,,,,,,,
,,,,,,,,,,,,,FF,,,,,,,,0.533,,,,,,,,,,,,,,,,,,,,,,60fee8c259d498feb86e38ad,61036ed5b4e8cd61018fe126,2021-07-29_22h16.16.734,Simcolourproject_2stim_asymm_v5,2020.2.10,MacIntel,60,61025ae37ef11b136ea224fe,,,,,,,,,3849,17,81,1,0,0,response1disk,,7,-21,11,1,0,0,rectangle,-21,11,1,0,0,-21,11,1,0,0,0,95,95,88,1,,,,,,,,
,,,,,,,,,,,,,FF,,,,,,,,0.566,,,,,,,,,,,,,,,,,,,,,,60fee8c259d498feb86e38ad,61036ed5b4e8cd61018fe126,2021-07-29_22h16.16.734,Simcolourproject_2stim_asymm_v5,2020.2.10,MacIntel,60,61025ae37ef11b136ea224fe,,,,,,,,,2281,24,97,1,0,0,response1disk,,7,-18,14,1,0,0,rectangle,-18,14,1,0,0,-18,14,1,0,0,0,96,96,41,1,,,,,,,,
,,,,,,,,,,,,,FF,,,,,,,,0.983,,,,,,,,,,,,,,,,,,,,,,60fee8c259d498feb86e38ad,61036ed5b4e8cd61018fe126,2021-07-29_22h16.16.734,Simcolourproject_2stim_asymm_v5,2020.2.10,MacIntel,60,61025ae37ef11b136ea224fe,,,,,,,,,2897,-50,86,1,0,0,response7disk,,0,-5,13,1,0,0,rectangle,-5,13,1,0,0,-5,13,1,0,0,0,97,97,118,1,,,,,,,,
,,,,,,,,,,,,,FF,,,,,,,,2.55,,,,,,,,,,,,,,,,,,,,,,60fee8c259d498feb86e38ad,61036ed5b4e8cd61018fe126,2021-07-29_22h16.16.734,Simcolourproject_2stim_asymm_v5,2020.2.10,MacIntel,60,61025ae37ef11b136ea224fe,,,,,,,,,4036,22,82,1,0,0,response1disk,,7,-21,5,1,0,0,rectangle,-21,5,1,0,0,-21,5,1,0,0,0,98,98,68,1,,,,,,,,
,,,,,,,,,,,,,FF,,,,,,,,1.501,,,,,,,,,,,,,,,,,,,,,,60fee8c259d498feb86e38ad,61036ed5b4e8cd61018fe126,2021-07-29_22h16.16.734,Simcolourproject_2stim_asymm_v5,2020.2.10,MacIntel,60,61025ae37ef11b136ea224fe,,,,,,,,,2003,16,85,1,0,0,response1disk,,7,-10,17,1,0,0,rectangle,-10,17,1,0,0,-10,17,1,0,0,0,99,99,128,1,,,,,,,,
,,,,,,,,,,,,,FF,,,,,,,,0.519,,,,,,,,,,,,,,,,,,,,,,60fee8c259d498feb86e38ad,61036ed5b4e8cd61018fe126,2021-07-29_22h16.16.734,Simcolourproject_2stim_asymm_v5,2020.2.10,MacIntel,60,61025ae37ef11b136ea224fe,,,,,,,,,2394,15,60,1,0,0,response1disk,,7,-5,6,1,0,0,rectangle,-5,6,1,0,0,-5,6,1,0,0,0,100,100,1,1,,,,,,,,
,,,,,,,,,,,,,FF,,,,,,,,0.4,,,,,,,,,,,,,,,,,,,,,,60fee8c259d498feb86e38ad,61036ed5b4e8cd61018fe126,2021-07-29_22h16.16.734,Simcolourproject_2stim_asymm_v5,2020.2.10,MacIntel,60,61025ae37ef11b136ea224fe,,,,,,,,,3229,30,97,1,0,0,response1disk,,7,-9,15,1,0,0,rectangle,-9,15,1,0,0,-9,15,1,0,0,0,101,101,83,1,,,,,,,,
,,,,,,,,,,,,,FF,,,,,,,,0.368,,,,,,,,,,,,,,,,,,,,,,60fee8c259d498feb86e38ad,61036ed5b4e8cd61018fe126,2021-07-29_22h16.16.734,Simcolourproject_2stim_asymm_v5,2020.2.10,MacIntel,60,61025ae37ef11b136ea224fe,,,,,,,,,4110,29,74,1,0,0,response1disk,,7,-17,4,1,0,0,rectangle,-17,4,1,0,0,-17,4,1,0,0,0,102,102,18,1,,,,,,,,
,,,,,,,,,,,,,FF,,,,,,,,1.467,,,,,,,,,,,,,,,,,,,,,,60fee8c259d498feb86e38ad,61036ed5b4e8cd61018fe126,2021-07-29_22h16.16.734,Simcolourproject_2stim_asymm_v5,2020.2.10,MacIntel,60,61025ae37ef11b136ea224fe,,,,,,,,,1776,40,101,1,0,0,response1disk,,7,-7,8,1,0,0,rectangle,-7,8,1,0,0,-7,8,1,0,0,0,103,103,56,1,,,,,,,,
,,,,,,,,,,,,,FF,,,,,,,,0.5,,,,,,,,,,,,,,,,,,,,,,60fee8c259d498feb86e38ad,61036ed5b4e8cd61018fe126,2021-07-29_22h16.16.734,Simcolourproject_2stim_asymm_v5,2020.2.10,MacIntel,60,61025ae37ef11b136ea224fe,,,,,,,,,1543,14,74,1,0,0,response1disk,,7,-28,11,1,0,0,rectangle,-28,11,1,0,0,-28,11,1,0,0,0,104,104,36,1,,,,,,,,
,,,,,,,,,,,,,FF,,,,,,,,0.353,,,,,,,,,,,,,,,,,,,,,,60fee8c259d498feb86e38ad,61036ed5b4e8cd61018fe126,2021-07-29_22h16.16.734,Simcolourproject_2stim_asymm_v5,2020.2.10,MacIntel,60,61025ae37ef11b136ea224fe,,,,,,,,,2911,19,89,1,0,0,response1disk,,7,-11,13,1,0,0,rectangle,-11,13,1,0,0,-11,13,1,0,0,0,105,105,32,1,,,,,,,,
,,,,,,,,,,,,,FF,,,,,,,,1.934,,,,,,,,,,,,,,,,,,,,,,60fee8c259d498feb86e38ad,61036ed5b4e8cd61018fe126,2021-07-29_22h16.16.734,Simcolourproject_2stim_asymm_v5,2020.2.10,MacIntel,60,61025ae37ef11b136ea224fe,,,,,,,,,3519,60,-88,1,0,0,response3disk,,4,7,3,1,0,0,rectangle,7,3,1,0,0,7,3,1,0,0,0,106,106,112,1,,,,,,,,
,,,,,,,,,,,,,FF,,,,,,,,1,,,,,,,,,,,,,,,,,,,,,,60fee8c259d498feb86e38ad,61036ed5b4e8cd61018fe126,2021-07-29_22h16.16.734,Simcolourproject_2stim_asymm_v5,2020.2.10,MacIntel,60,61025ae37ef11b136ea224fe,,,,,,,,,2077,24,65,1,0,0,response1disk,,7,-17,15,1,0,0,rectangle,-17,15,1,0,0,-17,15,1,0,0,0,107,107,110,1,,,,,,,,
,,,,,,,,,,,,,FF,,,,,,,,1.184,,,,,,,,,,,,,,,,,,,,,,60fee8c259d498feb86e38ad,61036ed5b4e8cd61018fe126,2021-07-29_22h16.16.734,Simcolourproject_2stim_asymm_v5,2020.2.10,MacIntel,60,61025ae37ef11b136ea224fe,,,,,,,,,2747,28,74,1,0,0,response1disk,,7,-16,11,1,0,0,rectangle,-16,11,1,0,0,-16,11,1,0,0,0,108,108,8,1,,,,,,,,
,,,,,,,,,,,,,FF,,,,,,,,1.601,,,,,,,,,,,,,,,,,,,,,,60fee8c259d498feb86e38ad,61036ed5b4e8cd61018fe126,2021-07-29_22h16.16.734,Simcolourproject_2stim_asymm_v5,2020.2.10,MacIntel,60,61025ae37ef11b136ea224fe,,,,,,,,,4148,40,-25,1,0,0,response3disk,,5,-21,14,1,0,0,rectangle,-21,14,1,0,0,-21,14,1,0,0,0,109,109,109,1,,,,,,,,
,,,,,,,,,,,,,FF,,,,,,,,0.949,,,,,,,,,,,,,,,,,,,,,,60fee8c259d498feb86e38ad,61036ed5b4e8cd61018fe126,2021-07-29_22h16.16.734,Simcolourproject_2stim_asymm_v5,2020.2.10,MacIntel,60,61025ae37ef11b136ea224fe,,,,,,,,,2042,57,-38,1,0,0,response3disk,,5,-14,8,1,0,0,rectangle,-14,8,1,0,0,-14,8,1,0,0,0,110,110,134,1,,,,,,,,
,,,,,,,,,,,,,FF,,,,,,,,0.667,,,,,,,,,,,,,,,,,,,,,,60fee8c259d498feb86e38ad,61036ed5b4e8cd61018fe126,2021-07-29_22h16.16.734,Simcolourproject_2stim_asymm_v5,2020.2.10,MacIntel,60,61025ae37ef11b136ea224fe,,,,,,,,,339,22,81,1,0,0,response1disk,,7,-11,6,1,0,0,rectangle,-11,6,1,0,0,-11,6,1,0,0,0,111,111,111,1,,,,,,,,
,,,,,,,,,,,,,FF,,,,,,,,0.434,,,,,,,,,,,,,,,,,,,,,,60fee8c259d498feb86e38ad,61036ed5b4e8cd61018fe126,2021-07-29_22h16.16.734,Simcolourproject_2stim_asymm_v5,2020.2.10,MacIntel,60,61025ae37ef11b136ea224fe,,,,,,,,,793,30,72,1,0,0,response1disk,,7,-14,8,1,0,0,rectangle,-14,8,1,0,0,-14,8,1,0,0,0,112,112,67,1,,,,,,,,
,,,,,,,,,,,,,FF,,,,,,,,0.533,,,,,,,,,,,,,,,,,,,,,,60fee8c259d498feb86e38ad,61036ed5b4e8cd61018fe126,2021-07-29_22h16.16.734,Simcolourproject_2stim_asymm_v5,2020.2.10,MacIntel,60,61025ae37ef11b136ea224fe,,,,,,,,,247,23,84,1,0,0,response1disk,,7,-12,17,1,0,0,rectangle,-12,17,1,0,0,-12,17,1,0,0,0,113,113,143,1,,,,,,,,
,,,,,,,,,,,,,FF,,,,,,,,1.351,,,,,,,,,,,,,,,,,,,,,,60fee8c259d498feb86e38ad,61036ed5b4e8cd61018fe126,2021-07-29_22h16.16.734,Simcolourproject_2stim_asymm_v5,2020.2.10,MacIntel,60,61025ae37ef11b136ea224fe,,,,,,,,,3298,-63,93,1,0,0,response7disk,,0,-13,5,1,0,0,rectangle,-13,5,1,0,0,-13,5,1,0,0,0,114,114,23,1,,,,,,,,
,,,,,,,,,,,,,FF,,,,,,,,0.584,,,,,,,,,,,,,,,,,,,,,,60fee8c259d498feb86e38ad,61036ed5b4e8cd61018fe126,2021-07-29_22h16.16.734,Simcolourproject_2stim_asymm_v5,2020.2.10,MacIntel,60,61025ae37ef11b136ea224fe,,,,,,,,,1151,19,84,1,0,0,response1disk,,7,-11,6,1,0,0,rectangle,-11,6,1,0,0,-11,6,1,0,0,0,115,115,59,1,,,,,,,,
,,,,,,,,,,,,,FF,,,,,,,,0.518,,,,,,,,,,,,,,,,,,,,,,60fee8c259d498feb86e38ad,61036ed5b4e8cd61018fe126,2021-07-29_22h16.16.734,Simcolourproject_2stim_asymm_v5,2020.2.10,MacIntel,60,61025ae37ef11b136ea224fe,,,,,,,,,424,27,98,1,0,0,response1disk,,7,-11,-7,1,0,0,rectangle,-11,-7,1,0,0,-11,-7,1,0,0,0,116,116,34,1,,,,,,,,
,,,,,,,,,,,,,FF,,,,,,,,1.217,,,,,,,,,,,,,,,,,,,,,,60fee8c259d498feb86e38ad,61036ed5b4e8cd61018fe126,2021-07-29_22h16.16.734,Simcolourproject_2stim_asymm_v5,2020.2.10,MacIntel,60,61025ae37ef11b136ea224fe,,,,,,,,,3025,36,86,1,0,0,response1disk,,7,-6,9,1,0,0,rectangle,-6,9,1,0,0,-6,9,1,0,0,0,117,117,73,1,,,,,,,,
,,,,,,,,,,,,,FF,,,,,,,,12.8,,,,,,,,,,,,,,,,,,,,,,60fee8c259d498feb86e38ad,61036ed5b4e8cd61018fe126,2021-07-29_22h16.16.734,Simcolourproject_2stim_asymm_v5,2020.2.10,MacIntel,60,61025ae37ef11b136ea224fe,,,,,,,,,1094,24,91,1,0,0,response1disk,,7,-16,-13,1,0,0,rectangle,-16,-13,1,0,0,-16,-13,1,0,0,0,118,118,3,1,,,,,,,,
,,,,,,,,,,,,,FF,,,,,,,,0.417,,,,,,,,,,,,,,,,,,,,,,60fee8c259d498feb86e38ad,61036ed5b4e8cd61018fe126,2021-07-29_22h16.16.734,Simcolourproject_2stim_asymm_v5,2020.2.10,MacIntel,60,61025ae37ef11b136ea224fe,,,,,,,,,3120,21,72,1,0,0,response1disk,,7,-24,16,1,0,0,rectangle,-24,16,1,0,0,-24,16,1,0,0,0,119,119,140,1,,,,,,,,
,,,,,,,,,,,,,FF,,,,,,,,0.319,,,,,,,,,,,,,,,,,,,,,,60fee8c259d498feb86e38ad,61036ed5b4e8cd61018fe126,2021-07-29_22h16.16.734,Simcolourproject_2stim_asymm_v5,2020.2.10,MacIntel,60,61025ae37ef11b136ea224fe,,,,,,,,,3924,19,69,1,0,0,response1disk,,7,-14,-10,1,0,0,rectangle,-14,-10,1,0,0,-14,-10,1,0,0,0,120,120,101,1,,,,,,,,
,,,,,,,,,,,,,FF,,,,,,,,0.314,,,,,,,,,,,,,,,,,,,,,,60fee8c259d498feb86e38ad,61036ed5b4e8cd61018fe126,2021-07-29_22h16.16.734,Simcolourproject_2stim_asymm_v5,2020.2.10,MacIntel,60,61025ae37ef11b136ea224fe,,,,,,,,,3953,34,98,1,0,0,response1disk,,7,-17,-4,1,0,0,rectangle,-17,-4,1,0,0,-17,-4,1,0,0,0,121,121,124,1,,,,,,,,
,,,,,,,,,,,,,FF,,,,,,,,1.683,,,,,,,,,,,,,,,,,,,,,,60fee8c259d498feb86e38ad,61036ed5b4e8cd61018fe126,2021-07-29_22h16.16.734,Simcolourproject_2stim_asymm_v5,2020.2.10,MacIntel,60,61025ae37ef11b136ea224fe,,,,,,,,,3520,-75,-31,1,0,0,response5disk,,2,-22,-6,1,0,0,rectangle,-22,-6,1,0,0,-22,-6,1,0,0,0,122,122,52,1,,,,,,,,
,,,,,,,,,,,,,FF,,,,,,,,1.033,,,,,,,,,,,,,,,,,,,,,,60fee8c259d498feb86e38ad,61036ed5b4e8cd61018fe126,2021-07-29_22h16.16.734,Simcolourproject_2stim_asymm_v5,2020.2.10,MacIntel,60,61025ae37ef11b136ea224fe,,,,,,,,,673,19,80,1,0,0,response1disk,,7,-14,10,1,0,0,rectangle,-14,10,1,0,0,-14,10,1,0,0,0,123,123,86,1,,,,,,,,
,,,,,,,,,,,,,FF,,,,,,,,0.366,,,,,,,,,,,,,,,,,,,,,,60fee8c259d498feb86e38ad,61036ed5b4e8cd61018fe126,2021-07-29_22h16.16.734,Simcolourproject_2stim_asymm_v5,2020.2.10,MacIntel,60,61025ae37ef11b136ea224fe,,,,,,,,,1095,22,72,1,0,0,response1disk,,7,-4,9,1,0,0,rectangle,-4,9,1,0,0,-4,9,1,0,0,0,124,124,127,1,,,,,,,,
,,,,,,,,,,,,,FF,,,,,,,,0.412,,,,,,,,,,,,,,,,,,,,,,60fee8c259d498feb86e38ad,61036ed5b4e8cd61018fe126,2021-07-29_22h16.16.734,Simcolourproject_2stim_asymm_v5,2020.2.10,MacIntel,60,61025ae37ef11b136ea224fe,,,,,,,,,1506,16,87,1,0,0,response1disk,,7,-16,10,1,0,0,rectangle,-16,10,1,0,0,-16,10,1,0,0,0,125,125,21,1,,,,,,,,
,,,,,,,,,,,,,FF,,,,,,,,0.35,,,,,,,,,,,,,,,,,,,,,,60fee8c259d498feb86e38ad,61036ed5b4e8cd61018fe126,2021-07-29_22h16.16.734,Simcolourproject_2stim_asymm_v5,2020.2.10,MacIntel,60,61025ae37ef11b136ea224fe,,,,,,,,,203,29,77,1,0,0,response1disk,,7,-7,4,1,0,0,rectangle,-7,4,1,0,0,-7,4,1,0,0,0,126,126,119,1,,,,,,,,
,,,,,,,,,,,,,FF,,,,,,,,0.366,,,,,,,,,,,,,,,,,,,,,,60fee8c259d498feb86e38ad,61036ed5b4e8cd61018fe126,2021-07-29_22h16.16.734,Simcolourproject_2stim_asymm_v5,2020.2.10,MacIntel,60,61025ae37ef11b136ea224fe,,,,,,,,,2346,31,80,1,0,0,response1disk,,7,4,11,1,0,0,rectangle,4,11,1,0,0,4,11,1,0,0,0,127,127,152,1,,,,,,,,
,,,,,,,,,,,,,FF,,,,,,,,0.351,,,,,,,,,,,,,,,,,,,,,,60fee8c259d498feb86e38ad,61036ed5b4e8cd61018fe126,2021-07-29_22h16.16.734,Simcolourproject_2stim_asymm_v5,2020.2.10,MacIntel,60,61025ae37ef11b136ea224fe,,,,,,,,,1618,32,73,1,0,0,response1disk,,7,4,6,1,0,0,rectangle,4,6,1,0,0,4,6,1,0,0,0,128,128,0,1,,,,,,,,
,,,,,,,,,,,,,FF,,,,,,,,1.016,,,,,,,,,,,,,,,,,,,,,,60fee8c259d498feb86e38ad,61036ed5b4e8cd61018fe126,2021-07-29_22h16.16.734,Simcolourproject_2stim_asymm_v5,2020.2.10,MacIntel,60,61025ae37ef11b136ea224fe,,,,,,,,,215,16,80,1,0,0,response1disk,,7,-17,13,1,0,0,rectangle,-97,31,1,0,0,-23,-4,1,0,0,0,129,129,146,1,,response7disk_3,TRUE,1,1,"[254,23,39,137,309,59,203,160,21,184,207,205,297,143,130,51,27,13,251,168]",1.435,rectangle
,,,,,,,,,,,,,FF,,,,,,,,1.535,,,,,,,,,,,,,,,,,,,,,,60fee8c259d498feb86e38ad,61036ed5b4e8cd61018fe126,2021-07-29_22h16.16.734,Simcolourproject_2stim_asymm_v5,2020.2.10,MacIntel,60,61025ae37ef11b136ea224fe,,,,,,,,,3340,26,103,1,0,0,response1disk,,7,-8,3,1,0,0,rectangle,-8,3,1,0,0,-8,3,1,0,0,0,130,130,7,1,,,,,,,,
,,,,,,,,,,,,,FF,,,,,,,,1.047,,,,,,,,,,,,,,,,,,,,,,60fee8c259d498feb86e38ad,61036ed5b4e8cd61018fe126,2021-07-29_22h16.16.734,Simcolourproject_2stim_asymm_v5,2020.2.10,MacIntel,60,61025ae37ef11b136ea224fe,,,,,,,,,1521,-65,86,1,0,0,response7disk,,0,-29,-8,1,0,0,rectangle,-29,-8,1,0,0,-29,-8,1,0,0,0,131,131,50,1,,,,,,,,
,,,,,,,,,,,,,FF,,,,,,,,2.133,,,,,,,,,,,,,,,,,,,,,,60fee8c259d498feb86e38ad,61036ed5b4e8cd61018fe126,2021-07-29_22h16.16.734,Simcolourproject_2stim_asymm_v5,2020.2.10,MacIntel,60,61025ae37ef11b136ea224fe,,,,,,,,,9,41,-28,1,0,0,response3disk,,5,12,11,1,0,0,rectangle,12,11,1,0,0,12,11,1,0,0,0,132,132,125,1,,,,,,,,
,,,,,,,,,,,,,FF,,,,,,,,0.514,,,,,,,,,,,,,,,,,,,,,,60fee8c259d498feb86e38ad,61036ed5b4e8cd61018fe126,2021-07-29_22h16.16.734,Simcolourproject_2stim_asymm_v5,2020.2.10,MacIntel,60,61025ae37ef11b136ea224fe,,,,,,,,,2485,19,92,1,0,0,response1disk,,7,-9,3,1,0,0,rectangle,-9,3,1,0,0,-9,3,1,0,0,0,133,133,35,1,,,,,,,,
,,,,,,,,,,,,,FF,,,,,,,,1.347,,,,,,,,,,,,,,,,,,,,,,60fee8c259d498feb86e38ad,61036ed5b4e8cd61018fe126,2021-07-29_22h16.16.734,Simcolourproject_2stim_asymm_v5,2020.2.10,MacIntel,60,61025ae37ef11b136ea224fe,,,,,,,,,2833,-73,-27,1,0,0,response5disk,,2,-10,3,1,0,0,rectangle,-10,3,1,0,0,-10,3,1,0,0,0,134,134,145,1,,,,,,,,
,,,,,,,,,,,,,FF,,,,,,,,4.947,,,,,,,,,,,,,,,,,,,,,,60fee8c259d498feb86e38ad,61036ed5b4e8cd61018fe126,2021-07-29_22h16.16.734,Simcolourproject_2stim_asymm_v5,2020.2.10,MacIntel,60,61025ae37ef11b136ea224fe,,,,,,,,,2256,21,58,1,0,0,response1disk,,7,-12,5,1,0,0,rectangle,-12,5,1,0,0,-12,5,1,0,0,0,135,135,158,1,,,,,,,,
,,,,,,,,,,,,,FF,,,,,,,,0.571,,,,,,,,,,,,,,,,,,,,,,60fee8c259d498feb86e38ad,61036ed5b4e8cd61018fe126,2021-07-29_22h16.16.734,Simcolourproject_2stim_asymm_v5,2020.2.10,MacIntel,60,61025ae37ef11b136ea224fe,,,,,,,,,3130,24,80,1,0,0,response1disk,,7,-13,7,1,0,0,rectangle,19,80,1,0,0,-14,6,1,0,0,0,136,136,155,1,,response1disk_3,TRUE,7,0,"[254,23,39,137,309,59,203,160,21,184,207,205,297,143,130,51,27,13,251,168]",0.848,rectangle
,,,,,,,,,,,,,FF,,,,,,,,1.632,,,,,,,,,,,,,,,,,,,,,,60fee8c259d498feb86e38ad,61036ed5b4e8cd61018fe126,2021-07-29_22h16.16.734,Simcolourproject_2stim_asymm_v5,2020.2.10,MacIntel,60,61025ae37ef11b136ea224fe,,,,,,,,,500,36,86,1,0,0,response1disk,,7,-13,15,1,0,0,rectangle,-13,15,1,0,0,-13,15,1,0,0,0,137,137,91,1,,,,,,,,
,,,,,,,,,,,,,FF,,,,,,,,1.367,,,,,,,,,,,,,,,,,,,,,,60fee8c259d498feb86e38ad,61036ed5b4e8cd61018fe126,2021-07-29_22h16.16.734,Simcolourproject_2stim_asymm_v5,2020.2.10,MacIntel,60,61025ae37ef11b136ea224fe,,,,,,,,,1811,-71,-56,1,0,0,response5disk,,2,-16,8,1,0,0,rectangle,-16,8,1,0,0,-16,8,1,0,0,0,138,138,151,1,,,,,,,,
,,,,,,,,,,,,,FF,,,,,,,,1.517,,,,,,,,,,,,,,,,,,,,,,60fee8c259d498feb86e38ad,61036ed5b4e8cd61018fe126,2021-07-29_22h16.16.734,Simcolourproject_2stim_asymm_v5,2020.2.10,MacIntel,60,61025ae37ef11b136ea224fe,,,,,,,,,2698,33,76,1,0,0,response1disk,,7,-25,10,1,0,0,rectangle,-25,10,1,0,0,-25,10,1,0,0,0,139,139,117,1,,,,,,,,
,,,,,,,,,,,,,FF,,,,,,,,1.301,,,,,,,,,,,,,,,,,,,,,,60fee8c259d498feb86e38ad,61036ed5b4e8cd61018fe126,2021-07-29_22h16.16.734,Simcolourproject_2stim_asymm_v5,2020.2.10,MacIntel,60,61025ae37ef11b136ea224fe,,,,,,,,,4067,23,97,1,0,0,response1disk,,7,-19,2,1,0,0,rectangle,-19,2,1,0,0,-19,2,1,0,0,0,140,140,132,1,,,,,,,,
,,,,,,,,,,,,,FF,,,,,,,,1.451,,,,,,,,,,,,,,,,,,,,,,60fee8c259d498feb86e38ad,61036ed5b4e8cd61018fe126,2021-07-29_22h16.16.734,Simcolourproject_2stim_asymm_v5,2020.2.10,MacIntel,60,61025ae37ef11b136ea224fe,,,,,,,,,715,18,91,1,0,0,response1disk,,7,-7,13,1,0,0,rectangle,-7,13,1,0,0,-7,13,1,0,0,0,141,141,79,1,,,,,,,,
,,,,,,,,,,,,,FF,,,,,,,,1.015,,,,,,,,,,,,,,,,,,,,,,60fee8c259d498feb86e38ad,61036ed5b4e8cd61018fe126,2021-07-29_22h16.16.734,Simcolourproject_2stim_asymm_v5,2020.2.10,MacIntel,60,61025ae37ef11b136ea224fe,,,,,,,,,1213,-51,88,1,0,0,response7disk,,0,-22,16,1,0,0,rectangle,33,97,1,0,0,-15,7,1,0,0,0,142,142,57,1,,response1disk_3,TRUE,7,7,"[254,23,39,137,309,59,203,160,21,184,207,205,297,143,130,51,27,13,251,168]",1.633,rectangle
,,,,,,,,,,,,,FF,,,,,,,,3.099,,,,,,,,,,,,,,,,,,,,,,60fee8c259d498feb86e38ad,61036ed5b4e8cd61018fe126,2021-07-29_22h16.16.734,Simcolourproject_2stim_asymm_v5,2020.2.10,MacIntel,60,61025ae37ef11b136ea224fe,,,,,,,,,1316,23,105,1,0,0,response1disk,,7,-8,6,1,0,0,rectangle,-8,6,1,0,0,-8,6,1,0,0,0,143,143,75,1,,,,,,,,
,,,,,,,,,,,,,FF,,,,,,,,1.564,,,,,,,,,,,,,,,,,,,,,,60fee8c259d498feb86e38ad,61036ed5b4e8cd61018fe126,2021-07-29_22h16.16.734,Simcolourproject_2stim_asymm_v5,2020.2.10,MacIntel,60,61025ae37ef11b136ea224fe,,,,,,,,,3496,24,87,1,0,0,response1disk,,7,-21,4,1,0,0,rectangle,-21,4,1,0,0,-21,4,1,0,0,0,144,144,82,1,,,,,,,,
,,,,,,,,,,,,,FF,,,,,,,,1.335,,,,,,,,,,,,,,,,,,,,,,60fee8c259d498feb86e38ad,61036ed5b4e8cd61018fe126,2021-07-29_22h16.16.734,Simcolourproject_2stim_asymm_v5,2020.2.10,MacIntel,60,61025ae37ef11b136ea224fe,,,,,,,,,1681,43,93,1,0,0,response1disk,,7,-19,0,1,0,0,rectangle,-19,0,1,0,0,-19,0,1,0,0,0,145,145,17,1,,,,,,,,
,,,,,,,,,,,,,FF,,,,,,,,0.718,,,,,,,,,,,,,,,,,,,,,,60fee8c259d498feb86e38ad,61036ed5b4e8cd61018fe126,2021-07-29_22h16.16.734,Simcolourproject_2stim_asymm_v5,2020.2.10,MacIntel,60,61025ae37ef11b136ea224fe,,,,,,,,,2148,19,87,1,0,0,response1disk,,7,-24,2,1,0,0,rectangle,-24,2,1,0,0,-24,2,1,0,0,0,146,146,120,1,,,,,,,,
,,,,,,,,,,,,,FF,,,,,,,,1.051,,,,,,,,,,,,,,,,,,,,,,60fee8c259d498feb86e38ad,61036ed5b4e8cd61018fe126,2021-07-29_22h16.16.734,Simcolourproject_2stim_asymm_v5,2020.2.10,MacIntel,60,61025ae37ef11b136ea224fe,,,,,,,,,2615,-91,-44,1,0,0,response5disk,,2,-21,-1,1,0,0,rectangle,-21,-1,1,0,0,-21,-1,1,0,0,0,147,147,72,1,,,,,,,,
,,,,,,,,,,,,,FF,,,,,,,,1.4,,,,,,,,,,,,,,,,,,,,,,60fee8c259d498feb86e38ad,61036ed5b4e8cd61018fe126,2021-07-29_22h16.16.734,Simcolourproject_2stim_asymm_v5,2020.2.10,MacIntel,60,61025ae37ef11b136ea224fe,,,,,,,,,1789,19,81,1,0,0,response1disk,,7,-24,4,1,0,0,rectangle,-24,4,1,0,0,-24,4,1,0,0,0,148,148,159,1,,,,,,,,
,,,,,,,,,,,,,FF,,,,,,,,1.002,,,,,,,,,,,,,,,,,,,,,,60fee8c259d498feb86e38ad,61036ed5b4e8cd61018fe126,2021-07-29_22h16.16.734,Simcolourproject_2stim_asymm_v5,2020.2.10,MacIntel,60,61025ae37ef11b136ea224fe,,,,,,,,,2573,27,81,1,0,0,response1disk,,7,-23,-5,1,0,0,rectangle,-23,-5,1,0,0,-23,-5,1,0,0,0,149,149,107,1,,,,,,,,
,,,,,,,,,,,,,FF,,,,,,,,0.867,,,,,,,,,,,,,,,,,,,,,,60fee8c259d498feb86e38ad,61036ed5b4e8cd61018fe126,2021-07-29_22h16.16.734,Simcolourproject_2stim_asymm_v5,2020.2.10,MacIntel,60,61025ae37ef11b136ea224fe,,,,,,,,,812,-81,-22,1,0,0,response5disk,,2,-34,6,1,0,0,rectangle,-34,6,1,0,0,-34,6,1,0,0,0,150,150,20,1,,,,,,,,
,,,,,,,,,,,,,FF,,,,,,,,1.384,,,,,,,,,,,,,,,,,,,,,,60fee8c259d498feb86e38ad,61036ed5b4e8cd61018fe126,2021-07-29_22h16.16.734,Simcolourproject_2stim_asymm_v5,2020.2.10,MacIntel,60,61025ae37ef11b136ea224fe,,,,,,,,,2733,-55,67,1,0,0,response7disk,,0,-30,12,1,0,0,rectangle,-30,12,1,0,0,-30,12,1,0,0,0,151,151,148,1,,,,,,,,
,,,,,,,,,,,,,FF,,,,,,,,0.583,,,,,,,,,,,,,,,,,,,,,,60fee8c259d498feb86e38ad,61036ed5b4e8cd61018fe126,2021-07-29_22h16.16.734,Simcolourproject_2stim_asymm_v5,2020.2.10,MacIntel,60,61025ae37ef11b136ea224fe,,,,,,,,,890,-47,63,1,0,0,response7disk,,0,-28,-5,1,0,0,rectangle,-28,-5,1,0,0,-28,-5,1,0,0,0,152,152,30,1,,,,,,,,
,,,,,,,,,,,,,FF,,,,,,,,0.6,,,,,,,,,,,,,,,,,,,,,,60fee8c259d498feb86e38ad,61036ed5b4e8cd61018fe126,2021-07-29_22h16.16.734,Simcolourproject_2stim_asymm_v5,2020.2.10,MacIntel,60,61025ae37ef11b136ea224fe,,,,,,,,,2218,-40,71,1,0,0,response7disk,,0,-26,14,1,0,0,rectangle,-26,14,1,0,0,-26,14,1,0,0,0,153,153,42,1,,,,,,,,
,,,,,,,,,,,,,FF,,,,,,,,1.149,,,,,,,,,,,,,,,,,,,,,,60fee8c259d498feb86e38ad,61036ed5b4e8cd61018fe126,2021-07-29_22h16.16.734,Simcolourproject_2stim_asymm_v5,2020.2.10,MacIntel,60,61025ae37ef11b136ea224fe,,,,,,,,,746,26,78,1,0,0,response1disk,,7,-9,11,1,0,0,rectangle,-9,11,1,0,0,-9,11,1,0,0,0,154,154,138,1,,,,,,,,
,,,,,,,,,,,,,FF,,,,,,,,0.55,,,,,,,,,,,,,,,,,,,,,,60fee8c259d498feb86e38ad,61036ed5b4e8cd61018fe126,2021-07-29_22h16.16.734,Simcolourproject_2stim_asymm_v5,2020.2.10,MacIntel,60,61025ae37ef11b136ea224fe,,,,,,,,,4296,22,79,1,0,0,response1disk,,7,-15,9,1,0,0,rectangle,-15,9,1,0,0,-15,9,1,0,0,0,155,155,60,1,,,,,,,,
,,,,,,,,,,,,,FF,,,,,,,,0.434,,,,,,,,,,,,,,,,,,,,,,60fee8c259d498feb86e38ad,61036ed5b4e8cd61018fe126,2021-07-29_22h16.16.734,Simcolourproject_2stim_asymm_v5,2020.2.10,MacIntel,60,61025ae37ef11b136ea224fe,,,,,,,,,1716,16,80,1,0,0,response1disk,,7,-9,16,1,0,0,rectangle,-9,16,1,0,0,-9,16,1,0,0,0,156,156,76,1,,,,,,,,
,,,,,,,,,,,,,FF,,,,,,,,1.357,,,,,,,,,,,,,,,,,,,,,,60fee8c259d498feb86e38ad,61036ed5b4e8cd61018fe126,2021-07-29_22h16.16.734,Simcolourproject_2stim_asymm_v5,2020.2.10,MacIntel,60,61025ae37ef11b136ea224fe,,,,,,,,,3061,17,68,1,0,0,response1disk,,7,-18,2,1,0,0,rectangle,-18,2,1,0,0,-18,2,1,0,0,0,157,157,55,1,,,,,,,,
,,,,,,,,,,,,,FF,,,,,,,,2.034,,,,,,,,,,,,,,,,,,,,,,60fee8c259d498feb86e38ad,61036ed5b4e8cd61018fe126,2021-07-29_22h16.16.734,Simcolourproject_2stim_asymm_v5,2020.2.10,MacIntel,60,61025ae37ef11b136ea224fe,,,,,,,,,1567,31,98,1,0,0,response1disk,,7,-19,15,1,0,0,rectangle,-19,15,1,0,0,-19,15,1,0,0,0,158,158,150,1,,,,,,,,
,,,,,,,,,,,,,FF,,,,,,,,0.799,,,,,,,,,,,,,,,,,,,,,,60fee8c259d498feb86e38ad,61036ed5b4e8cd61018fe126,2021-07-29_22h16.16.734,Simcolourproject_2stim_asymm_v5,2020.2.10,MacIntel,60,61025ae37ef11b136ea224fe,,,,,,,,,867,37,92,1,0,0,response1disk,,7,-31,4,1,0,0,rectangle,-56,-70,1,0,0,-19,10,1,0,0,0,159,159,37,1,,response5disk_3,TRUE,3,3,"[254,23,39,137,309,59,203,160,21,184,207,205,297,143,130,51,27,13,251,168]",3.066,rectangle
,,,,,,,,,,,,,FF,,,,,,,,0.917,,,,,,,,,,,,,,,,,,,,,,60fee8c259d498feb86e38ad,61036ed5b4e8cd61018fe126,2021-07-29_22h16.16.734,Simcolourproject_2stim_asymm_v5,2020.2.10,MacIntel,60,61025ae37ef11b136ea224fe,,,,,,,,,4293,-53,66,1,0,0,response7disk,,0,-31,-13,1,0,0,rectangle,-31,-13,1,0,0,-31,-13,1,0,0,1,0,160,27,1,,,,,,,,
,,,,,,,,,,,,,FF,,,,,,,,0.882,,,,,,,,,,,,,,,,,,,,,,60fee8c259d498feb86e38ad,61036ed5b4e8cd61018fe126,2021-07-29_22h16.16.734,Simcolourproject_2stim_asymm_v5,2020.2.10,MacIntel,60,61025ae37ef11b136ea224fe,,,,,,,,,2362,-108,33,1,0,0,response7disk,,1,-21,11,1,0,0,rectangle,-21,11,1,0,0,-21,11,1,0,0,1,1,161,134,1,,,,,,,,
,,,,,,,,,,,,,FF,,,,,,,,0.467,,,,,,,,,,,,,,,,,,,,,,60fee8c259d498feb86e38ad,61036ed5b4e8cd61018fe126,2021-07-29_22h16.16.734,Simcolourproject_2stim_asymm_v5,2020.2.10,MacIntel,60,61025ae37ef11b136ea224fe,,,,,,,,,3891,14,75,1,0,0,response1disk,,7,-17,-5,1,0,0,rectangle,-17,-5,1,0,0,-17,-5,1,0,0,1,2,162,145,1,,,,,,,,
,,,,,,,,,,,,,FF,,,,,,,,1.618,,,,,,,,,,,,,,,,,,,,,,60fee8c259d498feb86e38ad,61036ed5b4e8cd61018fe126,2021-07-29_22h16.16.734,Simcolourproject_2stim_asymm_v5,2020.2.10,MacIntel,60,61025ae37ef11b136ea224fe,,,,,,,,,2510,31,97,1,0,0,response1disk,,7,-12,10,1,0,0,rectangle,-12,10,1,0,0,-12,10,1,0,0,1,3,163,123,1,,,,,,,,
,,,,,,,,,,,,,FF,,,,,,,,0.75,,,,,,,,,,,,,,,,,,,,,,60fee8c259d498feb86e38ad,61036ed5b4e8cd61018fe126,2021-07-29_22h16.16.734,Simcolourproject_2stim_asymm_v5,2020.2.10,MacIntel,60,61025ae37ef11b136ea224fe,,,,,,,,,1740,15,80,1,0,0,response1disk,,7,-11,4,1,0,0,rectangle,-11,4,1,0,0,-11,4,1,0,0,1,4,164,96,1,,,,,,,,
,,,,,,,,,,,,,FF,,,,,,,,0.517,,,,,,,,,,,,,,,,,,,,,,60fee8c259d498feb86e38ad,61036ed5b4e8cd61018fe126,2021-07-29_22h16.16.734,Simcolourproject_2stim_asymm_v5,2020.2.10,MacIntel,60,61025ae37ef11b136ea224fe,,,,,,,,,511,19,80,1,0,0,response1disk,,7,-9,13,1,0,0,rectangle,-9,13,1,0,0,-9,13,1,0,0,1,5,165,100,1,,,,,,,,
,,,,,,,,,,,,,FF,,,,,,,,0.535,,,,,,,,,,,,,,,,,,,,,,60fee8c259d498feb86e38ad,61036ed5b4e8cd61018fe126,2021-07-29_22h16.16.734,Simcolourproject_2stim_asymm_v5,2020.2.10,MacIntel,60,61025ae37ef11b136ea224fe,,,,,,,,,1493,16,65,1,0,0,response1disk,,7,-5,16,1,0,0,rectangle,-5,16,1,0,0,-5,16,1,0,0,1,6,166,68,1,,,,,,,,
,,,,,,,,,,,,,FF,,,,,,,,0.985,,,,,,,,,,,,,,,,,,,,,,60fee8c259d498feb86e38ad,61036ed5b4e8cd61018fe126,2021-07-29_22h16.16.734,Simcolourproject_2stim_asymm_v5,2020.2.10,MacIntel,60,61025ae37ef11b136ea224fe,,,,,,,,,2412,30,23,1,0,0,response1disk,,6,-14,11,1,0,0,rectangle,-79,-28,1,0,0,-24,6,1,0,0,1,7,167,49,1,,response5disk_3,TRUE,2,2,"[254,23,39,137,309,59,203,160,21,184,207,205,297,143,130,51,27,13,251,168]",2.05,rectangle
,,,,,,,,,,,,,FF,,,,,,,,1.184,,,,,,,,,,,,,,,,,,,,,,60fee8c259d498feb86e38ad,61036ed5b4e8cd61018fe126,2021-07-29_22h16.16.734,Simcolourproject_2stim_asymm_v5,2020.2.10,MacIntel,60,61025ae37ef11b136ea224fe,,,,,,,,,294,24,83,1,0,0,response1disk,,7,-8,15,1,0,0,rectangle,-8,15,1,0,0,-8,15,1,0,0,1,8,168,62,1,,,,,,,,
,,,,,,,,,,,,,FF,,,,,,,,1.534,,,,,,,,,,,,,,,,,,,,,,60fee8c259d498feb86e38ad,61036ed5b4e8cd61018fe126,2021-07-29_22h16.16.734,Simcolourproject_2stim_asymm_v5,2020.2.10,MacIntel,60,61025ae37ef11b136ea224fe,,,,,,,,,3188,20,-53,1,0,0,response3disk,,4,5,-4,1,0,0,rectangle,5,-4,1,0,0,5,-4,1,0,0,1,9,169,83,1,,,,,,,,
,,,,,,,,,,,,,FF,,,,,,,,0.616,,,,,,,,,,,,,,,,,,,,,,60fee8c259d498feb86e38ad,61036ed5b4e8cd61018fe126,2021-07-29_22h16.16.734,Simcolourproject_2stim_asymm_v5,2020.2.10,MacIntel,60,61025ae37ef11b136ea224fe,,,,,,,,,1499,18,93,1,0,0,response1disk,,7,-23,11,1,0,0,rectangle,-23,11,1,0,0,-23,11,1,0,0,1,10,170,46,1,,,,,,,,
,,,,,,,,,,,,,FF,,,,,,,,1.083,,,,,,,,,,,,,,,,,,,,,,60fee8c259d498feb86e38ad,61036ed5b4e8cd61018fe126,2021-07-29_22h16.16.734,Simcolourproject_2stim_asymm_v5,2020.2.10,MacIntel,60,61025ae37ef11b136ea224fe,,,,,,,,,2978,27,70,1,0,0,response1disk,,7,-15,8,1,0,0,rectangle,-15,8,1,0,0,-15,8,1,0,0,1,11,171,58,1,,,,,,,,
,,,,,,,,,,,,,FF,,,,,,,,0.449,,,,,,,,,,,,,,,,,,,,,,60fee8c259d498feb86e38ad,61036ed5b4e8cd61018fe126,2021-07-29_22h16.16.734,Simcolourproject_2stim_asymm_v5,2020.2.10,MacIntel,60,61025ae37ef11b136ea224fe,,,,,,,,,1092,22,73,1,0,0,response1disk,,7,-18,-8,1,0,0,rectangle,-18,-8,1,0,0,-18,-8,1,0,0,1,12,172,159,1,,,,,,,,
,,,,,,,,,,,,,FF,,,,,,,,0.501,,,,,,,,,,,,,,,,,,,,,,60fee8c259d498feb86e38ad,61036ed5b4e8cd61018fe126,2021-07-29_22h16.16.734,Simcolourproject_2stim_asymm_v5,2020.2.10,MacIntel,60,61025ae37ef11b136ea224fe,,,,,,,,,1180,18,89,1,0,0,response1disk,,7,-12,14,1,0,0,rectangle,-12,14,1,0,0,-12,14,1,0,0,1,13,173,122,1,,,,,,,,
,,,,,,,,,,,,,FF,,,,,,,,1.215,,,,,,,,,,,,,,,,,,,,,,60fee8c259d498feb86e38ad,61036ed5b4e8cd61018fe126,2021-07-29_22h16.16.734,Simcolourproject_2stim_asymm_v5,2020.2.10,MacIntel,60,61025ae37ef11b136ea224fe,,,,,,,,,1763,17,64,1,0,0,response1disk,,7,-6,7,1,0,0,rectangle,-6,7,1,0,0,-6,7,1,0,0,1,14,174,120,1,,,,,,,,
,,,,,,,,,,,,,FF,,,,,,,,0.4,,,,,,,,,,,,,,,,,,,,,,60fee8c259d498feb86e38ad,61036ed5b4e8cd61018fe126,2021-07-29_22h16.16.734,Simcolourproject_2stim_asymm_v5,2020.2.10,MacIntel,60,61025ae37ef11b136ea224fe,,,,,,,,,1150,23,65,1,0,0,response1disk,,7,-7,17,1,0,0,rectangle,-7,17,1,0,0,-7,17,1,0,0,1,15,175,114,1,,,,,,,,
,,,,,,,,,,,,,FF,,,,,,,,0.416,,,,,,,,,,,,,,,,,,,,,,60fee8c259d498feb86e38ad,61036ed5b4e8cd61018fe126,2021-07-29_22h16.16.734,Simcolourproject_2stim_asymm_v5,2020.2.10,MacIntel,60,61025ae37ef11b136ea224fe,,,,,,,,,3649,21,92,1,0,0,response1disk,,7,-17,14,1,0,0,rectangle,-17,14,1,0,0,-17,14,1,0,0,1,16,176,137,1,,,,,,,,
,,,,,,,,,,,,,FF,,,,,,,,1.535,,,,,,,,,,,,,,,,,,,,,,60fee8c259d498feb86e38ad,61036ed5b4e8cd61018fe126,2021-07-29_22h16.16.734,Simcolourproject_2stim_asymm_v5,2020.2.10,MacIntel,60,61025ae37ef11b136ea224fe,,,,,,,,,2901,28,-52,1,0,0,response3disk,,4,-14,1,1,0,0,rectangle,-14,1,1,0,0,-14,1,1,0,0,1,17,177,101,1,,,,,,,,
,,,,,,,,,,,,,FF,,,,,,,,1.333,,,,,,,,,,,,,,,,,,,,,,60fee8c259d498feb86e38ad,61036ed5b4e8cd61018fe126,2021-07-29_22h16.16.734,Simcolourproject_2stim_asymm_v5,2020.2.10,MacIntel,60,61025ae37ef11b136ea224fe,,,,,,,,,1893,-61,86,1,0,0,response7disk,,0,-30,-8,1,0,0,rectangle,-30,-8,1,0,0,-30,-8,1,0,0,1,18,178,110,1,,,,,,,,
,,,,,,,,,,,,,FF,,,,,,,,1.051,,,,,,,,,,,,,,,,,,,,,,60fee8c259d498feb86e38ad,61036ed5b4e8cd61018fe126,2021-07-29_22h16.16.734,Simcolourproject_2stim_asymm_v5,2020.2.10,MacIntel,60,61025ae37ef11b136ea224fe,,,,,,,,,2542,-41,88,1,0,0,response7disk,,0,-21,15,1,0,0,rectangle,-21,15,1,0,0,-21,15,1,0,0,1,19,179,42,1,,,,,,,,
,,,,,,,,,,,,,FF,,,,,,,,0.633,,,,,,,,,,,,,,,,,,,,,,60fee8c259d498feb86e38ad,61036ed5b4e8cd61018fe126,2021-07-29_22h16.16.734,Simcolourproject_2stim_asymm_v5,2020.2.10,MacIntel,60,61025ae37ef11b136ea224fe,,,,,,,,,1813,20,69,1,0,0,response1disk,,7,-17,17,1,0,0,rectangle,-17,17,1,0,0,-17,17,1,0,0,1,20,180,5,1,,,,,,,,
,,,,,,,,,,,,,FF,,,,,,,,1.183,,,,,,,,,,,,,,,,,,,,,,60fee8c259d498feb86e38ad,61036ed5b4e8cd61018fe126,2021-07-29_22h16.16.734,Simcolourproject_2stim_asymm_v5,2020.2.10,MacIntel,60,61025ae37ef11b136ea224fe,,,,,,,,,1063,30,96,1,0,0,response1disk,,7,2,9,1,0,0,rectangle,2,9,1,0,0,2,9,1,0,0,1,21,181,48,1,,,,,,,,
,,,,,,,,,,,,,FF,,,,,,,,0.432,,,,,,,,,,,,,,,,,,,,,,60fee8c259d498feb86e38ad,61036ed5b4e8cd61018fe126,2021-07-29_22h16.16.734,Simcolourproject_2stim_asymm_v5,2020.2.10,MacIntel,60,61025ae37ef11b136ea224fe,,,,,,,,,3978,25,76,1,0,0,response1disk,,7,-18,6,1,0,0,rectangle,-18,6,1,0,0,-18,6,1,0,0,1,22,182,95,1,,,,,,,,
,,,,,,,,,,,,,FF,,,,,,,,0.751,,,,,,,,,,,,,,,,,,,,,,60fee8c259d498feb86e38ad,61036ed5b4e8cd61018fe126,2021-07-29_22h16.16.734,Simcolourproject_2stim_asymm_v5,2020.2.10,MacIntel,60,61025ae37ef11b136ea224fe,,,,,,,,,4223,-54,79,1,0,0,response7disk,,0,-1,-11,1,0,0,rectangle,-57,-51,1,0,0,-21,7,1,0,0,1,23,183,117,1,,response5disk_3,TRUE,2,3,"[254,23,39,137,309,59,203,160,21,184,207,205,297,143,130,51,27,13,251,168]",1.65,rectangle
,,,,,,,,,,,,,FF,,,,,,,,1.233,,,,,,,,,,,,,,,,,,,,,,60fee8c259d498feb86e38ad,61036ed5b4e8cd61018fe126,2021-07-29_22h16.16.734,Simcolourproject_2stim_asymm_v5,2020.2.10,MacIntel,60,61025ae37ef11b136ea224fe,,,,,,,,,3179,24,84,1,0,0,response1disk,,7,-9,11,1,0,0,rectangle,-9,11,1,0,0,-9,11,1,0,0,1,24,184,38,1,,,,,,,,
,,,,,,,,,,,,,FF,,,,,,,,0.484,,,,,,,,,,,,,,,,,,,,,,60fee8c259d498feb86e38ad,61036ed5b4e8cd61018fe126,2021-07-29_22h16.16.734,Simcolourproject_2stim_asymm_v5,2020.2.10,MacIntel,60,61025ae37ef11b136ea224fe,,,,,,,,,2447,24,80,1,0,0,response1disk,,7,-14,5,1,0,0,rectangle,-14,5,1,0,0,-14,5,1,0,0,1,25,185,18,1,,,,,,,,
,,,,,,,,,,,,,FF,,,,,,,,0.401,,,,,,,,,,,,,,,,,,,,,,60fee8c259d498feb86e38ad,61036ed5b4e8cd61018fe126,2021-07-29_22h16.16.734,Simcolourproject_2stim_asymm_v5,2020.2.10,MacIntel,60,61025ae37ef11b136ea224fe,,,,,,,,,1722,24,93,1,0,0,response1disk,,7,-8,12,1,0,0,rectangle,-8,12,1,0,0,-8,12,1,0,0,1,26,186,127,1,,,,,,,,
,,,,,,,,,,,,,FF,,,,,,,,0.351,,,,,,,,,,,,,,,,,,,,,,60fee8c259d498feb86e38ad,61036ed5b4e8cd61018fe126,2021-07-29_22h16.16.734,Simcolourproject_2stim_asymm_v5,2020.2.10,MacIntel,60,61025ae37ef11b136ea224fe,,,,,,,,,2638,17,60,1,0,0,response1disk,,7,-19,11,1,0,0,rectangle,-19,11,1,0,0,-19,11,1,0,0,1,27,187,144,1,,,,,,,,
,,,,,,,,,,,,,FF,,,,,,,,1.167,,,,,,,,,,,,,,,,,,,,,,60fee8c259d498feb86e38ad,61036ed5b4e8cd61018fe126,2021-07-29_22h16.16.734,Simcolourproject_2stim_asymm_v5,2020.2.10,MacIntel,60,61025ae37ef11b136ea224fe,,,,,,,,,3473,-54,-66,1,0,0,response5disk,,3,-25,13,1,0,0,rectangle,-25,13,1,0,0,-25,13,1,0,0,1,28,188,157,1,,,,,,,,
,,,,,,,,,,,,,FF,,,,,,,,1.231,,,,,,,,,,,,,,,,,,,,,,60fee8c259d498feb86e38ad,61036ed5b4e8cd61018fe126,2021-07-29_22h16.16.734,Simcolourproject_2stim_asymm_v5,2020.2.10,MacIntel,60,61025ae37ef11b136ea224fe,,,,,,,,,3235,19,86,1,0,0,response1disk,,7,-9,3,1,0,0,rectangle,-9,3,1,0,0,-9,3,1,0,0,1,29,189,156,1,,,,,,,,
,,,,,,,,,,,,,FF,,,,,,,,1.469,,,,,,,,,,,,,,,,,,,,,,60fee8c259d498feb86e38ad,61036ed5b4e8cd61018fe126,2021-07-29_22h16.16.734,Simcolourproject_2stim_asymm_v5,2020.2.10,MacIntel,60,61025ae37ef11b136ea224fe,,,,,,,,,3376,36,-24,1,0,0,response3disk,,5,-11,12,1,0,0,rectangle,-11,12,1,0,0,-11,12,1,0,0,1,30,190,92,1,,,,,,,,
,,,,,,,,,,,,,FF,,,,,,,,0.498,,,,,,,,,,,,,,,,,,,,,,60fee8c259d498feb86e38ad,61036ed5b4e8cd61018fe126,2021-07-29_22h16.16.734,Simcolourproject_2stim_asymm_v5,2020.2.10,MacIntel,60,61025ae37ef11b136ea224fe,,,,,,,,,1344,25,76,1,0,0,response1disk,,7,-14,9,1,0,0,rectangle,-14,9,1,0,0,-14,9,1,0,0,1,31,191,44,1,,,,,,,,
,,,,,,,,,,,,,FF,,,,,,,,1.069,,,,,,,,,,,,,,,,,,,,,,60fee8c259d498feb86e38ad,61036ed5b4e8cd61018fe126,2021-07-29_22h16.16.734,Simcolourproject_2stim_asymm_v5,2020.2.10,MacIntel,60,61025ae37ef11b136ea224fe,,,,,,,,,594,17,80,1,0,0,response1disk,,7,-2,5,1,0,0,rectangle,-2,5,1,0,0,-2,5,1,0,0,1,32,192,72,1,,,,,,,,
,,,,,,,,,,,,,FF,,,,,,,,0.383,,,,,,,,,,,,,,,,,,,,,,60fee8c259d498feb86e38ad,61036ed5b4e8cd61018fe126,2021-07-29_22h16.16.734,Simcolourproject_2stim_asymm_v5,2020.2.10,MacIntel,60,61025ae37ef11b136ea224fe,,,,,,,,,1312,14,64,1,0,0,response1disk,,7,-29,-6,1,0,0,rectangle,-29,-6,1,0,0,-29,-6,1,0,0,1,33,193,104,1,,,,,,,,
,,,,,,,,,,,,,FF,,,,,,,,1.003,,,,,,,,,,,,,,,,,,,,,,60fee8c259d498feb86e38ad,61036ed5b4e8cd61018fe126,2021-07-29_22h16.16.734,Simcolourproject_2stim_asymm_v5,2020.2.10,MacIntel,60,61025ae37ef11b136ea224fe,,,,,,,,,102,36,91,1,0,0,response1disk,,7,-27,12,1,0,0,rectangle,-27,12,1,0,0,-27,12,1,0,0,1,34,194,43,1,,,,,,,,
,,,,,,,,,,,,,FF,,,,,,,,0.418,,,,,,,,,,,,,,,,,,,,,,60fee8c259d498feb86e38ad,61036ed5b4e8cd61018fe126,2021-07-29_22h16.16.734,Simcolourproject_2stim_asymm_v5,2020.2.10,MacIntel,60,61025ae37ef11b136ea224fe,,,,,,,,,2387,26,76,1,0,0,response1disk,,7,-27,7,1,0,0,rectangle,-27,7,1,0,0,-27,7,1,0,0,1,35,195,1,1,,,,,,,,
,,,,,,,,,,,,,FF,,,,,,,,1.733,,,,,,,,,,,,,,,,,,,,,,60fee8c259d498feb86e38ad,61036ed5b4e8cd61018fe126,2021-07-29_22h16.16.734,Simcolourproject_2stim_asymm_v5,2020.2.10,MacIntel,60,61025ae37ef11b136ea224fe,,,,,,,,,2928,28,111,1,0,0,response1disk,,7,-18,6,1,0,0,rectangle,-18,6,1,0,0,-18,6,1,0,0,1,36,196,91,1,,,,,,,,
,,,,,,,,,,,,,FF,,,,,,,,0.517,,,,,,,,,,,,,,,,,,,,,,60fee8c259d498feb86e38ad,61036ed5b4e8cd61018fe126,2021-07-29_22h16.16.734,Simcolourproject_2stim_asymm_v5,2020.2.10,MacIntel,60,61025ae37ef11b136ea224fe,,,,,,,,,477,17,75,1,0,0,response1disk,,7,-16,-5,1,0,0,rectangle,-16,-5,1,0,0,-16,-5,1,0,0,1,37,197,126,1,,,,,,,,
,,,,,,,,,,,,,FF,,,,,,,,1.052,,,,,,,,,,,,,,,,,,,,,,60fee8c259d498feb86e38ad,61036ed5b4e8cd61018fe126,2021-07-29_22h16.16.734,Simcolourproject_2stim_asymm_v5,2020.2.10,MacIntel,60,61025ae37ef11b136ea224fe,,,,,,,,,668,18,66,1,0,0,response1disk,,7,-14,9,1,0,0,rectangle,-14,9,1,0,0,-14,9,1,0,0,1,38,198,88,1,,,,,,,,
,,,,,,,,,,,,,FF,,,,,,,,0.418,,,,,,,,,,,,,,,,,,,,,,60fee8c259d498feb86e38ad,61036ed5b4e8cd61018fe126,2021-07-29_22h16.16.734,Simcolourproject_2stim_asymm_v5,2020.2.10,MacIntel,60,61025ae37ef11b136ea224fe,,,,,,,,,1715,15,71,1,0,0,response1disk,,7,0,12,1,0,0,rectangle,0,12,1,0,0,0,12,1,0,0,1,39,199,118,1,,,,,,,,
,,,,,,,,,,,,,FF,,,,,,,,0.433,,,,,,,,,,,,,,,,,,,,,,60fee8c259d498feb86e38ad,61036ed5b4e8cd61018fe126,2021-07-29_22h16.16.734,Simcolourproject_2stim_asymm_v5,2020.2.10,MacIntel,60,61025ae37ef11b136ea224fe,,,,,,,,,3611,30,73,1,0,0,response1disk,,7,2,10,1,0,0,rectangle,2,10,1,0,0,2,10,1,0,0,1,40,200,138,1,,,,,,,,
,,,,,,,,,,,,,FF,,,,,,,,0.384,,,,,,,,,,,,,,,,,,,,,,60fee8c259d498feb86e38ad,61036ed5b4e8cd61018fe126,2021-07-29_22h16.16.734,Simcolourproject_2stim_asymm_v5,2020.2.10,MacIntel,60,61025ae37ef11b136ea224fe,,,,,,,,,71,19,70,1,0,0,response1disk,,7,-5,1,1,0,0,rectangle,-5,1,1,0,0,-5,1,1,0,0,1,41,201,124,1,,,,,,,,
,,,,,,,,,,,,,FF,,,,,,,,1.882,,,,,,,,,,,,,,,,,,,,,,60fee8c259d498feb86e38ad,61036ed5b4e8cd61018fe126,2021-07-29_22h16.16.734,Simcolourproject_2stim_asymm_v5,2020.2.10,MacIntel,60,61025ae37ef11b136ea224fe,,,,,,,,,2665,55,49,1,0,0,response1disk,,6,-1,14,1,0,0,rectangle,60,48,1,0,0,-5,17,1,0,0,1,42,202,11,1,,response1disk_3,TRUE,6,6,"[254,23,39,137,309,59,203,160,21,184,207,205,297,143,130,51,27,13,251,168]",1.549,rectangle
,,,,,,,,,,,,,FF,,,,,,,,0.915,,,,,,,,,,,,,,,,,,,,,,60fee8c259d498feb86e38ad,61036ed5b4e8cd61018fe126,2021-07-29_22h16.16.734,Simcolourproject_2stim_asymm_v5,2020.2.10,MacIntel,60,61025ae37ef11b136ea224fe,,,,,,,,,438,-59,64,1,0,0,response7disk,,0,-30,8,1,0,0,rectangle,-30,8,1,0,0,-30,8,1,0,0,1,43,203,54,1,,,,,,,,
,,,,,,,,,,,,,FF,,,,,,,,0.518,,,,,,,,,,,,,,,,,,,,,,60fee8c259d498feb86e38ad,61036ed5b4e8cd61018fe126,2021-07-29_22h16.16.734,Simcolourproject_2stim_asymm_v5,2020.2.10,MacIntel,60,61025ae37ef11b136ea224fe,,,,,,,,,1137,18,85,1,0,0,response1disk,,7,-14,3,1,0,0,rectangle,17,-90,1,0,0,-2,2,1,0,0,1,44,204,29,1,,response3disk_3,TRUE,4,4,"[254,23,39,137,309,59,203,160,21,184,207,205,297,143,130,51,27,13,251,168]",2.049,rectangle
,,,,,,,,,,,,,FF,,,,,,,,0.849,,,,,,,,,,,,,,,,,,,,,,60fee8c259d498feb86e38ad,61036ed5b4e8cd61018fe126,2021-07-29_22h16.16.734,Simcolourproject_2stim_asymm_v5,2020.2.10,MacIntel,60,61025ae37ef11b136ea224fe,,,,,,,,,3552,-48,85,1,0,0,response7disk,,0,-27,-5,1,0,0,rectangle,-27,-5,1,0,0,-27,-5,1,0,0,1,45,205,19,1,,,,,,,,
,,,,,,,,,,,,,FF,,,,,,,,1.484,,,,,,,,,,,,,,,,,,,,,,60fee8c259d498feb86e38ad,61036ed5b4e8cd61018fe126,2021-07-29_22h16.16.734,Simcolourproject_2stim_asymm_v5,2020.2.10,MacIntel,60,61025ae37ef11b136ea224fe,,,,,,,,,963,-79,-15,1,0,0,response5disk,,2,-25,-1,1,0,0,rectangle,27,-52,1,0,0,-10,5,1,0,0,1,46,206,53,1,,response3disk_3,TRUE,4,4,"[254,23,39,137,309,59,203,160,21,184,207,205,297,143,130,51,27,13,251,168]",2.949,rectangle
,,,,,,,,,,,,,FF,,,,,,,,0.65,,,,,,,,,,,,,,,,,,,,,,60fee8c259d498feb86e38ad,61036ed5b4e8cd61018fe126,2021-07-29_22h16.16.734,Simcolourproject_2stim_asymm_v5,2020.2.10,MacIntel,60,61025ae37ef11b136ea224fe,,,,,,,,,2764,23,78,1,0,0,response1disk,,7,-8,17,1,0,0,rectangle,-8,17,1,0,0,-8,17,1,0,0,1,47,207,136,1,,,,,,,,
,,,,,,,,,,,,,FF,,,,,,,,0.583,,,,,,,,,,,,,,,,,,,,,,60fee8c259d498feb86e38ad,61036ed5b4e8cd61018fe126,2021-07-29_22h16.16.734,Simcolourproject_2stim_asymm_v5,2020.2.10,MacIntel,60,61025ae37ef11b136ea224fe,,,,,,,,,4176,23,88,1,0,0,response1disk,,7,-8,9,1,0,0,rectangle,-8,9,1,0,0,-8,9,1,0,0,1,48,208,80,1,,,,,,,,
,,,,,,,,,,,,,FF,,,,,,,,1.55,,,,,,,,,,,,,,,,,,,,,,60fee8c259d498feb86e38ad,61036ed5b4e8cd61018fe126,2021-07-29_22h16.16.734,Simcolourproject_2stim_asymm_v5,2020.2.10,MacIntel,60,61025ae37ef11b136ea224fe,,,,,,,,,4143,22,-63,1,0,0,response3disk,,4,-10,9,1,0,0,rectangle,-10,9,1,0,0,-10,9,1,0,0,1,49,209,108,1,,,,,,,,
,,,,,,,,,,,,,FF,,,,,,,,1.118,,,,,,,,,,,,,,,,,,,,,,60fee8c259d498feb86e38ad,61036ed5b4e8cd61018fe126,2021-07-29_22h16.16.734,Simcolourproject_2stim_asymm_v5,2020.2.10,MacIntel,60,61025ae37ef11b136ea224fe,,,,,,,,,2017,31,83,1,0,0,response1disk,,7,-22,4,1,0,0,rectangle,-22,4,1,0,0,-22,4,1,0,0,1,50,210,142,1,,,,,,,,
,,,,,,,,,,,,,FF,,,,,,,,0.551,,,,,,,,,,,,,,,,,,,,,,60fee8c259d498feb86e38ad,61036ed5b4e8cd61018fe126,2021-07-29_22h16.16.734,Simcolourproject_2stim_asymm_v5,2020.2.10,MacIntel,60,61025ae37ef11b136ea224fe,,,,,,,,,2184,20,62,1,0,0,response1disk,,7,-13,-1,1,0,0,rectangle,-13,-1,1,0,0,-13,-1,1,0,0,1,51,211,69,1,,,,,,,,
,,,,,,,,,,,,,FF,,,,,,,,0.585,,,,,,,,,,,,,,,,,,,,,,60fee8c259d498feb86e38ad,61036ed5b4e8cd61018fe126,2021-07-29_22h16.16.734,Simcolourproject_2stim_asymm_v5,2020.2.10,MacIntel,60,61025ae37ef11b136ea224fe,,,,,,,,,1357,16,86,1,0,0,response1disk,,7,-13,8,1,0,0,rectangle,-13,8,1,0,0,-13,8,1,0,0,1,52,212,78,1,,,,,,,,
,,,,,,,,,,,,,FF,,,,,,,,0.7,,,,,,,,,,,,,,,,,,,,,,60fee8c259d498feb86e38ad,61036ed5b4e8cd61018fe126,2021-07-29_22h16.16.734,Simcolourproject_2stim_asymm_v5,2020.2.10,MacIntel,60,61025ae37ef11b136ea224fe,,,,,,,,,1922,18,81,1,0,0,response1disk,,7,-11,1,1,0,0,rectangle,-11,1,1,0,0,-11,1,1,0,0,1,53,213,90,1,,,,,,,,
,,,,,,,,,,,,,FF,,,,,,,,0.4,,,,,,,,,,,,,,,,,,,,,,60fee8c259d498feb86e38ad,61036ed5b4e8cd61018fe126,2021-07-29_22h16.16.734,Simcolourproject_2stim_asymm_v5,2020.2.10,MacIntel,60,61025ae37ef11b136ea224fe,,,,,,,,,1410,38,92,1,0,0,response1disk,,7,3,14,1,0,0,rectangle,3,14,1,0,0,3,14,1,0,0,1,54,214,33,1,,,,,,,,
,,,,,,,,,,,,,FF,,,,,,,,2.2,,,,,,,,,,,,,,,,,,,,,,60fee8c259d498feb86e38ad,61036ed5b4e8cd61018fe126,2021-07-29_22h16.16.734,Simcolourproject_2stim_asymm_v5,2020.2.10,MacIntel,60,61025ae37ef11b136ea224fe,,,,,,,,,2987,39,-88,1,0,0,response3disk,,4,-3,12,1,0,0,rectangle,-3,12,1,0,0,-3,12,1,0,0,1,55,215,87,1,,,,,,,,
,,,,,,,,,,,,,FF,,,,,,,,1.349,,,,,,,,,,,,,,,,,,,,,,60fee8c259d498feb86e38ad,61036ed5b4e8cd61018fe126,2021-07-29_22h16.16.734,Simcolourproject_2stim_asymm_v5,2020.2.10,MacIntel,60,61025ae37ef11b136ea224fe,,,,,,,,,1569,28,76,1,0,0,response1disk,,7,-14,10,1,0,0,rectangle,-14,10,1,0,0,-14,10,1,0,0,1,56,216,111,1,,,,,,,,
,,,,,,,,,,,,,FF,,,,,,,,0.449,,,,,,,,,,,,,,,,,,,,,,60fee8c259d498feb86e38ad,61036ed5b4e8cd61018fe126,2021-07-29_22h16.16.734,Simcolourproject_2stim_asymm_v5,2020.2.10,MacIntel,60,61025ae37ef11b136ea224fe,,,,,,,,,3687,27,77,1,0,0,response1disk,,7,-10,-2,1,0,0,rectangle,-10,-2,1,0,0,-10,-2,1,0,0,1,57,217,75,1,,,,,,,,
,,,,,,,,,,,,,FF,,,,,,,,2.434,,,,,,,,,,,,,,,,,,,,,,60fee8c259d498feb86e38ad,61036ed5b4e8cd61018fe126,2021-07-29_22h16.16.734,Simcolourproject_2stim_asymm_v5,2020.2.10,MacIntel,60,61025ae37ef11b136ea224fe,,,,,,,,,356,48,-31,1,0,0,response3disk,,5,-20,6,1,0,0,rectangle,-20,6,1,0,0,-20,6,1,0,0,1,58,218,61,1,,,,,,,,
,,,,,,,,,,,,,FF,,,,,,,,1.149,,,,,,,,,,,,,,,,,,,,,,60fee8c259d498feb86e38ad,61036ed5b4e8cd61018fe126,2021-07-29_22h16.16.734,Simcolourproject_2stim_asymm_v5,2020.2.10,MacIntel,60,61025ae37ef11b136ea224fe,,,,,,,,,238,27,79,1,0,0,response1disk,,7,-4,16,1,0,0,rectangle,-4,16,1,0,0,-4,16,1,0,0,1,59,219,86,1,,,,,,,,
,,,,,,,,,,,,,FF,,,,,,,,1.201,,,,,,,,,,,,,,,,,,,,,,60fee8c259d498feb86e38ad,61036ed5b4e8cd61018fe126,2021-07-29_22h16.16.734,Simcolourproject_2stim_asymm_v5,2020.2.10,MacIntel,60,61025ae37ef11b136ea224fe,,,,,,,,,2728,-56,-63,1,0,0,response5disk,,3,-19,5,1,0,0,rectangle,-19,5,1,0,0,-19,5,1,0,0,1,60,220,98,1,,,,,,,,
,,,,,,,,,,,,,FF,,,,,,,,0.53,,,,,,,,,,,,,,,,,,,,,,60fee8c259d498feb86e38ad,61036ed5b4e8cd61018fe126,2021-07-29_22h16.16.734,Simcolourproject_2stim_asymm_v5,2020.2.10,MacIntel,60,61025ae37ef11b136ea224fe,,,,,,,,,3128,24,71,1,0,0,response1disk,,7,-14,10,1,0,0,rectangle,-14,10,1,0,0,-14,10,1,0,0,1,61,221,39,1,,,,,,,,
,,,,,,,,,,,,,FF,,,,,,,,1.117,,,,,,,,,,,,,,,,,,,,,,60fee8c259d498feb86e38ad,61036ed5b4e8cd61018fe126,2021-07-29_22h16.16.734,Simcolourproject_2stim_asymm_v5,2020.2.10,MacIntel,60,61025ae37ef11b136ea224fe,,,,,,,,,3234,31,95,1,0,0,response1disk,,7,-5,12,1,0,0,rectangle,-5,12,1,0,0,-5,12,1,0,0,1,62,222,6,1,,,,,,,,
,,,,,,,,,,,,,FF,,,,,,,,0.402,,,,,,,,,,,,,,,,,,,,,,60fee8c259d498feb86e38ad,61036ed5b4e8cd61018fe126,2021-07-29_22h16.16.734,Simcolourproject_2stim_asymm_v5,2020.2.10,MacIntel,60,61025ae37ef11b136ea224fe,,,,,,,,,2389,23,63,1,0,0,response1disk,,7,-4,1,1,0,0,rectangle,-4,1,1,0,0,-4,1,1,0,0,1,63,223,34,1,,,,,,,,
,,,,,,,,,,,,,FF,,,,,,,,0.867,,,,,,,,,,,,,,,,,,,,,,60fee8c259d498feb86e38ad,61036ed5b4e8cd61018fe126,2021-07-29_22h16.16.734,Simcolourproject_2stim_asymm_v5,2020.2.10,MacIntel,60,61025ae37ef11b136ea224fe,,,,,,,,,1745,-76,-43,1,0,0,response5disk,,2,-20,4,1,0,0,rectangle,-20,4,1,0,0,-20,4,1,0,0,1,64,224,21,1,,,,,,,,
,,,,,,,,,,,,,FF,,,,,,,,1.033,,,,,,,,,,,,,,,,,,,,,,60fee8c259d498feb86e38ad,61036ed5b4e8cd61018fe126,2021-07-29_22h16.16.734,Simcolourproject_2stim_asymm_v5,2020.2.10,MacIntel,60,61025ae37ef11b136ea224fe,,,,,,,,,31,27,67,1,0,0,response1disk,,7,-23,-12,1,0,0,rectangle,-23,-12,1,0,0,-23,-12,1,0,0,1,65,225,22,1,,,,,,,,
,,,,,,,,,,,,,FF,,,,,,,,0.553,,,,,,,,,,,,,,,,,,,,,,60fee8c259d498feb86e38ad,61036ed5b4e8cd61018fe126,2021-07-29_22h16.16.734,Simcolourproject_2stim_asymm_v5,2020.2.10,MacIntel,60,61025ae37ef11b136ea224fe,,,,,,,,,254,24,80,1,0,0,response1disk,,7,-14,10,1,0,0,rectangle,-14,10,1,0,0,-14,10,1,0,0,1,66,226,129,1,,,,,,,,
,,,,,,,,,,,,,FF,,,,,,,,0.616,,,,,,,,,,,,,,,,,,,,,,60fee8c259d498feb86e38ad,61036ed5b4e8cd61018fe126,2021-07-29_22h16.16.734,Simcolourproject_2stim_asymm_v5,2020.2.10,MacIntel,60,61025ae37ef11b136ea224fe,,,,,,,,,1810,20,90,1,0,0,response1disk,,7,-8,7,1,0,0,rectangle,-8,7,1,0,0,-8,7,1,0,0,1,67,227,12,1,,,,,,,,
,,,,,,,,,,,,,FF,,,,,,,,0.433,,,,,,,,,,,,,,,,,,,,,,60fee8c259d498feb86e38ad,61036ed5b4e8cd61018fe126,2021-07-29_22h16.16.734,Simcolourproject_2stim_asymm_v5,2020.2.10,MacIntel,60,61025ae37ef11b136ea224fe,,,,,,,,,2476,41,83,1,0,0,response1disk,,7,-8,-1,1,0,0,rectangle,-8,-1,1,0,0,-8,-1,1,0,0,1,68,228,121,1,,,,,,,,
,,,,,,,,,,,,,FF,,,,,,,,0.568,,,,,,,,,,,,,,,,,,,,,,60fee8c259d498feb86e38ad,61036ed5b4e8cd61018fe126,2021-07-29_22h16.16.734,Simcolourproject_2stim_asymm_v5,2020.2.10,MacIntel,60,61025ae37ef11b136ea224fe,,,,,,,,,291,19,86,1,0,0,response1disk,,7,-13,4,1,0,0,rectangle,-13,4,1,0,0,-13,4,1,0,0,1,69,229,17,1,,,,,,,,
,,,,,,,,,,,,,FF,,,,,,,,0.397,,,,,,,,,,,,,,,,,,,,,,60fee8c259d498feb86e38ad,61036ed5b4e8cd61018fe126,2021-07-29_22h16.16.734,Simcolourproject_2stim_asymm_v5,2020.2.10,MacIntel,60,61025ae37ef11b136ea224fe,,,,,,,,,1934,30,82,1,0,0,response1disk,,7,-10,4,1,0,0,rectangle,-10,4,1,0,0,-10,4,1,0,0,1,70,230,37,1,,,,,,,,
,,,,,,,,,,,,,FF,,,,,,,,0.983,,,,,,,,,,,,,,,,,,,,,,60fee8c259d498feb86e38ad,61036ed5b4e8cd61018fe126,2021-07-29_22h16.16.734,Simcolourproject_2stim_asymm_v5,2020.2.10,MacIntel,60,61025ae37ef11b136ea224fe,,,,,,,,,3054,-41,-49,1,0,0,response5disk,,3,-18,5,1,0,0,rectangle,-18,5,1,0,0,-18,5,1,0,0,1,71,231,97,1,,,,,,,,
,,,,,,,,,,,,,FF,,,,,,,,0.501,,,,,,,,,,,,,,,,,,,,,,60fee8c259d498feb86e38ad,61036ed5b4e8cd61018fe126,2021-07-29_22h16.16.734,Simcolourproject_2stim_asymm_v5,2020.2.10,MacIntel,60,61025ae37ef11b136ea224fe,,,,,,,,,3494,22,75,1,0,0,response1disk,,7,-3,9,1,0,0,rectangle,-3,9,1,0,0,-3,9,1,0,0,1,72,232,10,1,,,,,,,,
,,,,,,,,,,,,,FF,,,,,,,,0.819,,,,,,,,,,,,,,,,,,,,,,60fee8c259d498feb86e38ad,61036ed5b4e8cd61018fe126,2021-07-29_22h16.16.734,Simcolourproject_2stim_asymm_v5,2020.2.10,MacIntel,60,61025ae37ef11b136ea224fe,,,,,,,,,1299,49,28,1,0,0,response1disk,,6,-26,-4,1,0,0,rectangle,-26,-4,1,0,0,-26,-4,1,0,0,1,73,233,28,1,,,,,,,,
,,,,,,,,,,,,,FF,,,,,,,,0.464,,,,,,,,,,,,,,,,,,,,,,60fee8c259d498feb86e38ad,61036ed5b4e8cd61018fe126,2021-07-29_22h16.16.734,Simcolourproject_2stim_asymm_v5,2020.2.10,MacIntel,60,61025ae37ef11b136ea224fe,,,,,,,,,1270,14,70,1,0,0,response1disk,,7,-2,0,1,0,0,rectangle,-2,0,1,0,0,-2,0,1,0,0,1,74,234,141,1,,,,,,,,
,,,,,,,,,,,,,FF,,,,,,,,1.1,,,,,,,,,,,,,,,,,,,,,,60fee8c259d498feb86e38ad,61036ed5b4e8cd61018fe126,2021-07-29_22h16.16.734,Simcolourproject_2stim_asymm_v5,2020.2.10,MacIntel,60,61025ae37ef11b136ea224fe,,,,,,,,,3778,14,-53,1,0,0,response3disk,,4,-13,5,1,0,0,rectangle,-13,5,1,0,0,-13,5,1,0,0,1,75,235,152,1,,,,,,,,
,,,,,,,,,,,,,FF,,,,,,,,0.533,,,,,,,,,,,,,,,,,,,,,,60fee8c259d498feb86e38ad,61036ed5b4e8cd61018fe126,2021-07-29_22h16.16.734,Simcolourproject_2stim_asymm_v5,2020.2.10,MacIntel,60,61025ae37ef11b136ea224fe,,,,,,,,,3640,21,67,1,0,0,response1disk,,7,-6,6,1,0,0,rectangle,-6,6,1,0,0,-6,6,1,0,0,1,76,236,149,1,,,,,,,,
,,,,,,,,,,,,,FF,,,,,,,,0.483,,,,,,,,,,,,,,,,,,,,,,60fee8c259d498feb86e38ad,61036ed5b4e8cd61018fe126,2021-07-29_22h16.16.734,Simcolourproject_2stim_asymm_v5,2020.2.10,MacIntel,60,61025ae37ef11b136ea224fe,,,,,,,,,331,19,85,1,0,0,response1disk,,7,-14,1,1,0,0,rectangle,-14,1,1,0,0,-14,1,1,0,0,1,77,237,115,1,,,,,,,,
,,,,,,,,,,,,,FF,,,,,,,,0.853,,,,,,,,,,,,,,,,,,,,,,60fee8c259d498feb86e38ad,61036ed5b4e8cd61018fe126,2021-07-29_22h16.16.734,Simcolourproject_2stim_asymm_v5,2020.2.10,MacIntel,60,61025ae37ef11b136ea224fe,,,,,,,,,4106,26,-48,1,0,0,response3disk,,4,-8,10,1,0,0,rectangle,-8,10,1,0,0,-8,10,1,0,0,1,78,238,116,1,,,,,,,,
,,,,,,,,,,,,,FF,,,,,,,,0.584,,,,,,,,,,,,,,,,,,,,,,60fee8c259d498feb86e38ad,61036ed5b4e8cd61018fe126,2021-07-29_22h16.16.734,Simcolourproject_2stim_asymm_v5,2020.2.10,MacIntel,60,61025ae37ef11b136ea224fe,,,,,,,,,657,26,86,1,0,0,response1disk,,7,-17,15,1,0,0,rectangle,-17,15,1,0,0,-17,15,1,0,0,1,79,239,130,1,,,,,,,,
,,,,,,,,,,,,,FF,,,,,,,,0.501,,,,,,,,,,,,,,,,,,,,,,60fee8c259d498feb86e38ad,61036ed5b4e8cd61018fe126,2021-07-29_22h16.16.734,Simcolourproject_2stim_asymm_v5,2020.2.10,MacIntel,60,61025ae37ef11b136ea224fe,,,,,,,,,940,29,99,1,0,0,response1disk,,7,-18,1,1,0,0,rectangle,-18,1,1,0,0,-18,1,1,0,0,1,80,240,150,1,,,,,,,,
,,,,,,,,,,,,,FF,,,,,,,,0.75,,,,,,,,,,,,,,,,,,,,,,60fee8c259d498feb86e38ad,61036ed5b4e8cd61018fe126,2021-07-29_22h16.16.734,Simcolourproject_2stim_asymm_v5,2020.2.10,MacIntel,60,61025ae37ef11b136ea224fe,,,,,,,,,4091,21,88,1,0,0,response1disk,,7,-16,14,1,0,0,rectangle,-16,14,1,0,0,-16,14,1,0,0,1,81,241,35,1,,,,,,,,
,,,,,,,,,,,,,FF,,,,,,,,0.981,,,,,,,,,,,,,,,,,,,,,,60fee8c259d498feb86e38ad,61036ed5b4e8cd61018fe126,2021-07-29_22h16.16.734,Simcolourproject_2stim_asymm_v5,2020.2.10,MacIntel,60,61025ae37ef11b136ea224fe,,,,,,,,,2644,24,70,1,0,0,response1disk,,7,-18,12,1,0,0,rectangle,-18,12,1,0,0,-18,12,1,0,0,1,82,242,55,1,,,,,,,,
,,,,,,,,,,,,,FF,,,,,,,,0.584,,,,,,,,,,,,,,,,,,,,,,60fee8c259d498feb86e38ad,61036ed5b4e8cd61018fe126,2021-07-29_22h16.16.734,Simcolourproject_2stim_asymm_v5,2020.2.10,MacIntel,60,61025ae37ef11b136ea224fe,,,,,,,,,4155,20,85,1,0,0,response1disk,,7,-10,11,1,0,0,rectangle,-10,11,1,0,0,-10,11,1,0,0,1,83,243,70,1,,,,,,,,
,,,,,,,,,,,,,FF,,,,,,,,0.8,,,,,,,,,,,,,,,,,,,,,,60fee8c259d498feb86e38ad,61036ed5b4e8cd61018fe126,2021-07-29_22h16.16.734,Simcolourproject_2stim_asymm_v5,2020.2.10,MacIntel,60,61025ae37ef11b136ea224fe,,,,,,,,,4104,-81,-54,1,0,0,response5disk,,2,-30,11,1,0,0,rectangle,-30,11,1,0,0,-30,11,1,0,0,1,84,244,76,1,,,,,,,,
,,,,,,,,,,,,,FF,,,,,,,,0.649,,,,,,,,,,,,,,,,,,,,,,60fee8c259d498feb86e38ad,61036ed5b4e8cd61018fe126,2021-07-29_22h16.16.734,Simcolourproject_2stim_asymm_v5,2020.2.10,MacIntel,60,61025ae37ef11b136ea224fe,,,,,,,,,1202,24,105,1,0,0,response1disk,,7,-20,0,1,0,0,rectangle,-20,0,1,0,0,-20,0,1,0,0,1,85,245,74,1,,,,,,,,
,,,,,,,,,,,,,FF,,,,,,,,0.766,,,,,,,,,,,,,,,,,,,,,,60fee8c259d498feb86e38ad,61036ed5b4e8cd61018fe126,2021-07-29_22h16.16.734,Simcolourproject_2stim_asymm_v5,2020.2.10,MacIntel,60,61025ae37ef11b136ea224fe,,,,,,,,,4275,16,72,1,0,0,response1disk,,7,-10,2,1,0,0,rectangle,-10,2,1,0,0,-10,2,1,0,0,1,86,246,94,1,,,,,,,,
,,,,,,,,,,,,,FF,,,,,,,,0.434,,,,,,,,,,,,,,,,,,,,,,60fee8c259d498feb86e38ad,61036ed5b4e8cd61018fe126,2021-07-29_22h16.16.734,Simcolourproject_2stim_asymm_v5,2020.2.10,MacIntel,60,61025ae37ef11b136ea224fe,,,,,,,,,1124,20,79,1,0,0,response1disk,,7,-2,10,1,0,0,rectangle,-2,10,1,0,0,-2,10,1,0,0,1,87,247,14,1,,,,,,,,
,,,,,,,,,,,,,FF,,,,,,,,0.785,,,,,,,,,,,,,,,,,,,,,,60fee8c259d498feb86e38ad,61036ed5b4e8cd61018fe126,2021-07-29_22h16.16.734,Simcolourproject_2stim_asymm_v5,2020.2.10,MacIntel,60,61025ae37ef11b136ea224fe,,,,,,,,,4181,-62,98,1,0,0,response7disk,,0,-22,5,1,0,0,rectangle,-22,5,1,0,0,-22,5,1,0,0,1,88,248,4,1,,,,,,,,
,,,,,,,,,,,,,FF,,,,,,,,1.149,,,,,,,,,,,,,,,,,,,,,,60fee8c259d498feb86e38ad,61036ed5b4e8cd61018fe126,2021-07-29_22h16.16.734,Simcolourproject_2stim_asymm_v5,2020.2.10,MacIntel,60,61025ae37ef11b136ea224fe,,,,,,,,,3829,26,83,1,0,0,response1disk,,7,-14,-5,1,0,0,rectangle,-14,-5,1,0,0,-14,-5,1,0,0,1,89,249,31,1,,,,,,,,
,,,,,,,,,,,,,FF,,,,,,,,1.65,,,,,,,,,,,,,,,,,,,,,,60fee8c259d498feb86e38ad,61036ed5b4e8cd61018fe126,2021-07-29_22h16.16.734,Simcolourproject_2stim_asymm_v5,2020.2.10,MacIntel,60,61025ae37ef11b136ea224fe,,,,,,,,,2097,50,63,1,0,0,response1disk,,7,-20,-4,1,0,0,rectangle,51,-27,1,0,0,-11,6,1,0,0,1,90,250,106,1,,response3disk_3,TRUE,5,5,"[254,23,39,137,309,59,203,160,21,184,207,205,297,143,130,51,27,13,251,168]",1.584,rectangle
,,,,,,,,,,,,,FF,,,,,,,,0.601,,,,,,,,,,,,,,,,,,,,,,60fee8c259d498feb86e38ad,61036ed5b4e8cd61018fe126,2021-07-29_22h16.16.734,Simcolourproject_2stim_asymm_v5,2020.2.10,MacIntel,60,61025ae37ef11b136ea224fe,,,,,,,,,147,21,85,1,0,0,response1disk,,7,-22,-17,1,0,0,rectangle,-22,-17,1,0,0,-22,-17,1,0,0,1,91,251,154,1,,,,,,,,
,,,,,,,,,,,,,FF,,,,,,,,1.033,,,,,,,,,,,,,,,,,,,,,,60fee8c259d498feb86e38ad,61036ed5b4e8cd61018fe126,2021-07-29_22h16.16.734,Simcolourproject_2stim_asymm_v5,2020.2.10,MacIntel,60,61025ae37ef11b136ea224fe,,,,,,,,,1836,45,-15,1,0,0,response3disk,,5,-7,15,1,0,0,rectangle,-7,15,1,0,0,-7,15,1,0,0,1,92,252,40,1,,,,,,,,
,,,,,,,,,,,,,FF,,,,,,,,0.367,,,,,,,,,,,,,,,,,,,,,,60fee8c259d498feb86e38ad,61036ed5b4e8cd61018fe126,2021-07-29_22h16.16.734,Simcolourproject_2stim_asymm_v5,2020.2.10,MacIntel,60,61025ae37ef11b136ea224fe,,,,,,,,,1183,30,79,1,0,0,response1disk,,7,3,-9,1,0,0,rectangle,-43,-76,1,0,0,-12,7,1,0,0,1,93,253,13,1,,response5disk_3,TRUE,3,3,"[254,23,39,137,309,59,203,160,21,184,207,205,297,143,130,51,27,13,251,168]",2.366,rectangle
,,,,,,,,,,,,,FF,,,,,,,,0.734,,,,,,,,,,,,,,,,,,,,,,60fee8c259d498feb86e38ad,61036ed5b4e8cd61018fe126,2021-07-29_22h16.16.734,Simcolourproject_2stim_asymm_v5,2020.2.10,MacIntel,60,61025ae37ef11b136ea224fe,,,,,,,,,3506,22,76,1,0,0,response1disk,,7,-25,-14,1,0,0,rectangle,-25,-14,1,0,0,-25,-14,1,0,0,1,94,254,56,1,,,,,,,,
,,,,,,,,,,,,,FF,,,,,,,,0.766,,,,,,,,,,,,,,,,,,,,,,60fee8c259d498feb86e38ad,61036ed5b4e8cd61018fe126,2021-07-29_22h16.16.734,Simcolourproject_2stim_asymm_v5,2020.2.10,MacIntel,60,61025ae37ef11b136ea224fe,,,,,,,,,3849,-51,62,1,0,0,response7disk,,0,-18,10,1,0,0,rectangle,-18,10,1,0,0,-18,10,1,0,0,1,95,255,151,1,,,,,,,,
,,,,,,,,,,,,,FF,,,,,,,,0.666,,,,,,,,,,,,,,,,,,,,,,60fee8c259d498feb86e38ad,61036ed5b4e8cd61018fe126,2021-07-29_22h16.16.734,Simcolourproject_2stim_asymm_v5,2020.2.10,MacIntel,60,61025ae37ef11b136ea224fe,,,,,,,,,2281,15,75,1,0,0,response1disk,,7,-7,6,1,0,0,rectangle,-7,6,1,0,0,-7,6,1,0,0,1,96,256,155,1,,,,,,,,
,,,,,,,,,,,,,FF,,,,,,,,0.951,,,,,,,,,,,,,,,,,,,,,,60fee8c259d498feb86e38ad,61036ed5b4e8cd61018fe126,2021-07-29_22h16.16.734,Simcolourproject_2stim_asymm_v5,2020.2.10,MacIntel,60,61025ae37ef11b136ea224fe,,,,,,,,,2897,49,38,1,0,0,response1disk,,6,-12,1,1,0,0,rectangle,-12,1,1,0,0,-12,1,1,0,0,1,97,257,84,1,,,,,,,,
,,,,,,,,,,,,,FF,,,,,,,,0.482,,,,,,,,,,,,,,,,,,,,,,60fee8c259d498feb86e38ad,61036ed5b4e8cd61018fe126,2021-07-29_22h16.16.734,Simcolourproject_2stim_asymm_v5,2020.2.10,MacIntel,60,61025ae37ef11b136ea224fe,,,,,,,,,4036,20,85,1,0,0,response1disk,,7,-12,10,1,0,0,rectangle,-12,10,1,0,0,-12,10,1,0,0,1,98,258,71,1,,,,,,,,
,,,,,,,,,,,,,FF,,,,,,,,0.365,,,,,,,,,,,,,,,,,,,,,,60fee8c259d498feb86e38ad,61036ed5b4e8cd61018fe126,2021-07-29_22h16.16.734,Simcolourproject_2stim_asymm_v5,2020.2.10,MacIntel,60,61025ae37ef11b136ea224fe,,,,,,,,,2003,23,78,1,0,0,response1disk,,7,-10,14,1,0,0,rectangle,-10,14,1,0,0,-10,14,1,0,0,1,99,259,57,1,,,,,,,,
,,,,,,,,,,,,,FF,,,,,,,,1.184,,,,,,,,,,,,,,,,,,,,,,60fee8c259d498feb86e38ad,61036ed5b4e8cd61018fe126,2021-07-29_22h16.16.734,Simcolourproject_2stim_asymm_v5,2020.2.10,MacIntel,60,61025ae37ef11b136ea224fe,,,,,,,,,2394,24,73,1,0,0,response1disk,,7,-18,4,1,0,0,rectangle,-18,4,1,0,0,-18,4,1,0,0,1,100,260,67,1,,,,,,,,
,,,,,,,,,,,,,FF,,,,,,,,2.382,,,,,,,,,,,,,,,,,,,,,,60fee8c259d498feb86e38ad,61036ed5b4e8cd61018fe126,2021-07-29_22h16.16.734,Simcolourproject_2stim_asymm_v5,2020.2.10,MacIntel,60,61025ae37ef11b136ea224fe,,,,,,,,,3229,32,100,1,0,0,response1disk,,7,-26,-11,1,0,0,rectangle,-26,-11,1,0,0,-26,-11,1,0,0,1,101,261,82,1,,,,,,,,
,,,,,,,,,,,,,FF,,,,,,,,0.452,,,,,,,,,,,,,,,,,,,,,,60fee8c259d498feb86e38ad,61036ed5b4e8cd61018fe126,2021-07-29_22h16.16.734,Simcolourproject_2stim_asymm_v5,2020.2.10,MacIntel,60,61025ae37ef11b136ea224fe,,,,,,,,,4110,16,62,1,0,0,response1disk,,7,-21,-2,1,0,0,rectangle,-21,-2,1,0,0,-21,-2,1,0,0,1,102,262,23,1,,,,,,,,
,,,,,,,,,,,,,FF,,,,,,,,0.369,,,,,,,,,,,,,,,,,,,,,,60fee8c259d498feb86e38ad,61036ed5b4e8cd61018fe126,2021-07-29_22h16.16.734,Simcolourproject_2stim_asymm_v5,2020.2.10,MacIntel,60,61025ae37ef11b136ea224fe,,,,,,,,,1776,25,83,1,0,0,response1disk,,7,4,11,1,0,0,rectangle,4,11,1,0,0,4,11,1,0,0,1,103,263,41,1,,,,,,,,
,,,,,,,,,,,,,FF,,,,,,,,0.384,,,,,,,,,,,,,,,,,,,,,,60fee8c259d498feb86e38ad,61036ed5b4e8cd61018fe126,2021-07-29_22h16.16.734,Simcolourproject_2stim_asymm_v5,2020.2.10,MacIntel,60,61025ae37ef11b136ea224fe,,,,,,,,,1543,25,86,1,0,0,response1disk,,7,-1,5,1,0,0,rectangle,-1,5,1,0,0,-1,5,1,0,0,1,104,264,51,1,,,,,,,,
,,,,,,,,,,,,,FF,,,,,,,,0.333,,,,,,,,,,,,,,,,,,,,,,60fee8c259d498feb86e38ad,61036ed5b4e8cd61018fe126,2021-07-29_22h16.16.734,Simcolourproject_2stim_asymm_v5,2020.2.10,MacIntel,60,61025ae37ef11b136ea224fe,,,,,,,,,2911,22,80,1,0,0,response1disk,,7,-1,13,1,0,0,rectangle,-1,13,1,0,0,-1,13,1,0,0,1,105,265,60,1,,,,,,,,
,,,,,,,,,,,,,FF,,,,,,,,1.134,,,,,,,,,,,,,,,,,,,,,,60fee8c259d498feb86e38ad,61036ed5b4e8cd61018fe126,2021-07-29_22h16.16.734,Simcolourproject_2stim_asymm_v5,2020.2.10,MacIntel,60,61025ae37ef11b136ea224fe,,,,,,,,,3519,-44,-63,1,0,0,response5disk,,3,-9,6,1,0,0,rectangle,-9,6,1,0,0,-9,6,1,0,0,1,106,266,107,1,,,,,,,,
,,,,,,,,,,,,,FF,,,,,,,,0.533,,,,,,,,,,,,,,,,,,,,,,60fee8c259d498feb86e38ad,61036ed5b4e8cd61018fe126,2021-07-29_22h16.16.734,Simcolourproject_2stim_asymm_v5,2020.2.10,MacIntel,60,61025ae37ef11b136ea224fe,,,,,,,,,2077,31,90,1,0,0,response1disk,,7,-15,7,1,0,0,rectangle,-15,7,1,0,0,-15,7,1,0,0,1,107,267,132,1,,,,,,,,
,,,,,,,,,,,,,FF,,,,,,,,0.4,,,,,,,,,,,,,,,,,,,,,,60fee8c259d498feb86e38ad,61036ed5b4e8cd61018fe126,2021-07-29_22h16.16.734,Simcolourproject_2stim_asymm_v5,2020.2.10,MacIntel,60,61025ae37ef11b136ea224fe,,,,,,,,,2747,25,72,1,0,0,response1disk,,7,-10,-2,1,0,0,rectangle,-10,-2,1,0,0,-10,-2,1,0,0,1,108,268,128,1,,,,,,,,
,,,,,,,,,,,,,FF,,,,,,,,1.346,,,,,,,,,,,,,,,,,,,,,,60fee8c259d498feb86e38ad,61036ed5b4e8cd61018fe126,2021-07-29_22h16.16.734,Simcolourproject_2stim_asymm_v5,2020.2.10,MacIntel,60,61025ae37ef11b136ea224fe,,,,,,,,,4148,63,37,1,0,0,response1disk,,6,-20,16,1,0,0,rectangle,-20,16,1,0,0,-20,16,1,0,0,1,109,269,50,1,,,,,,,,
,,,,,,,,,,,,,FF,,,,,,,,0.651,,,,,,,,,,,,,,,,,,,,,,60fee8c259d498feb86e38ad,61036ed5b4e8cd61018fe126,2021-07-29_22h16.16.734,Simcolourproject_2stim_asymm_v5,2020.2.10,MacIntel,60,61025ae37ef11b136ea224fe,,,,,,,,,2042,19,89,1,0,0,response1disk,,7,-18,-3,1,0,0,rectangle,-18,-3,1,0,0,-18,-3,1,0,0,1,110,270,26,1,,,,,,,,
,,,,,,,,,,,,,FF,,,,,,,,0.398,,,,,,,,,,,,,,,,,,,,,,60fee8c259d498feb86e38ad,61036ed5b4e8cd61018fe126,2021-07-29_22h16.16.734,Simcolourproject_2stim_asymm_v5,2020.2.10,MacIntel,60,61025ae37ef11b136ea224fe,,,,,,,,,339,34,96,1,0,0,response1disk,,7,-10,14,1,0,0,rectangle,-10,14,1,0,0,-10,14,1,0,0,1,111,271,99,1,,,,,,,,
,,,,,,,,,,,,,FF,,,,,,,,0.45,,,,,,,,,,,,,,,,,,,,,,60fee8c259d498feb86e38ad,61036ed5b4e8cd61018fe126,2021-07-29_22h16.16.734,Simcolourproject_2stim_asymm_v5,2020.2.10,MacIntel,60,61025ae37ef11b136ea224fe,,,,,,,,,793,24,69,1,0,0,response1disk,,7,-25,-3,1,0,0,rectangle,-25,-3,1,0,0,-25,-3,1,0,0,1,112,272,66,1,,,,,,,,
,,,,,,,,,,,,,FF,,,,,,,,1.633,,,,,,,,,,,,,,,,,,,,,,60fee8c259d498feb86e38ad,61036ed5b4e8cd61018fe126,2021-07-29_22h16.16.734,Simcolourproject_2stim_asymm_v5,2020.2.10,MacIntel,60,61025ae37ef11b136ea224fe,,,,,,,,,247,31,76,1,0,0,response1disk,,7,-30,-10,1,0,0,rectangle,-30,-10,1,0,0,-30,-10,1,0,0,1,113,273,16,1,,,,,,,,
,,,,,,,,,,,,,FF,,,,,,,,1.749,,,,,,,,,,,,,,,,,,,,,,60fee8c259d498feb86e38ad,61036ed5b4e8cd61018fe126,2021-07-29_22h16.16.734,Simcolourproject_2stim_asymm_v5,2020.2.10,MacIntel,60,61025ae37ef11b136ea224fe,,,,,,,,,3298,-73,29,1,0,0,response7disk,,1,-15,-2,1,0,0,rectangle,-15,-2,1,0,0,-15,-2,1,0,0,1,114,274,8,1,,,,,,,,
,,,,,,,,,,,,,FF,,,,,,,,1.102,,,,,,,,,,,,,,,,,,,,,,60fee8c259d498feb86e38ad,61036ed5b4e8cd61018fe126,2021-07-29_22h16.16.734,Simcolourproject_2stim_asymm_v5,2020.2.10,MacIntel,60,61025ae37ef11b136ea224fe,,,,,,,,,1151,24,92,1,0,0,response1disk,,7,-7,7,1,0,0,rectangle,-7,7,1,0,0,-7,7,1,0,0,1,115,275,158,1,,,,,,,,
,,,,,,,,,,,,,FF,,,,,,,,0.485,,,,,,,,,,,,,,,,,,,,,,60fee8c259d498feb86e38ad,61036ed5b4e8cd61018fe126,2021-07-29_22h16.16.734,Simcolourproject_2stim_asymm_v5,2020.2.10,MacIntel,60,61025ae37ef11b136ea224fe,,,,,,,,,424,26,84,1,0,0,response1disk,,7,-33,-4,1,0,0,rectangle,-33,-4,1,0,0,-33,-4,1,0,0,1,116,276,125,1,,,,,,,,
,,,,,,,,,,,,,FF,,,,,,,,0.4,,,,,,,,,,,,,,,,,,,,,,60fee8c259d498feb86e38ad,61036ed5b4e8cd61018fe126,2021-07-29_22h16.16.734,Simcolourproject_2stim_asymm_v5,2020.2.10,MacIntel,60,61025ae37ef11b136ea224fe,,,,,,,,,3025,25,100,1,0,0,response1disk,,7,-18,8,1,0,0,rectangle,-18,8,1,0,0,-18,8,1,0,0,1,117,277,47,1,,,,,,,,
,,,,,,,,,,,,,FF,,,,,,,,0.4,,,,,,,,,,,,,,,,,,,,,,60fee8c259d498feb86e38ad,61036ed5b4e8cd61018fe126,2021-07-29_22h16.16.734,Simcolourproject_2stim_asymm_v5,2020.2.10,MacIntel,60,61025ae37ef11b136ea224fe,,,,,,,,,1094,21,84,1,0,0,response1disk,,7,-15,7,1,0,0,rectangle,-15,7,1,0,0,-15,7,1,0,0,1,118,278,24,1,,,,,,,,
,,,,,,,,,,,,,FF,,,,,,,,0.401,,,,,,,,,,,,,,,,,,,,,,60fee8c259d498feb86e38ad,61036ed5b4e8cd61018fe126,2021-07-29_22h16.16.734,Simcolourproject_2stim_asymm_v5,2020.2.10,MacIntel,60,61025ae37ef11b136ea224fe,,,,,,,,,3120,21,80,1,0,0,response1disk,,7,-9,8,1,0,0,rectangle,-9,8,1,0,0,-9,8,1,0,0,1,119,279,20,1,,,,,,,,
,,,,,,,,,,,,,FF,,,,,,,,0.502,,,,,,,,,,,,,,,,,,,,,,60fee8c259d498feb86e38ad,61036ed5b4e8cd61018fe126,2021-07-29_22h16.16.734,Simcolourproject_2stim_asymm_v5,2020.2.10,MacIntel,60,61025ae37ef11b136ea224fe,,,,,,,,,3924,16,64,1,0,0,response1disk,,7,-14,2,1,0,0,rectangle,-14,2,1,0,0,-14,2,1,0,0,1,120,280,3,1,,,,,,,,
,,,,,,,,,,,,,FF,,,,,,,,0.466,,,,,,,,,,,,,,,,,,,,,,60fee8c259d498feb86e38ad,61036ed5b4e8cd61018fe126,2021-07-29_22h16.16.734,Simcolourproject_2stim_asymm_v5,2020.2.10,MacIntel,60,61025ae37ef11b136ea224fe,,,,,,,,,3953,24,89,1,0,0,response1disk,,7,-16,-1,1,0,0,rectangle,-16,-1,1,0,0,-16,-1,1,0,0,1,121,281,139,1,,,,,,,,
,,,,,,,,,,,,,FF,,,,,,,,1.033,,,,,,,,,,,,,,,,,,,,,,60fee8c259d498feb86e38ad,61036ed5b4e8cd61018fe126,2021-07-29_22h16.16.734,Simcolourproject_2stim_asymm_v5,2020.2.10,MacIntel,60,61025ae37ef11b136ea224fe,,,,,,,,,3520,-76,-25,1,0,0,response5disk,,2,-9,14,1,0,0,rectangle,-9,14,1,0,0,-9,14,1,0,0,1,122,282,59,1,,,,,,,,
,,,,,,,,,,,,,FF,,,,,,,,0.47,,,,,,,,,,,,,,,,,,,,,,60fee8c259d498feb86e38ad,61036ed5b4e8cd61018fe126,2021-07-29_22h16.16.734,Simcolourproject_2stim_asymm_v5,2020.2.10,MacIntel,60,61025ae37ef11b136ea224fe,,,,,,,,,673,28,80,1,0,0,response1disk,,7,-23,10,1,0,0,rectangle,-23,10,1,0,0,-23,10,1,0,0,1,123,283,135,1,,,,,,,,
,,,,,,,,,,,,,FF,,,,,,,,0.582,,,,,,,,,,,,,,,,,,,,,,60fee8c259d498feb86e38ad,61036ed5b4e8cd61018fe126,2021-07-29_22h16.16.734,Simcolourproject_2stim_asymm_v5,2020.2.10,MacIntel,60,61025ae37ef11b136ea224fe,,,,,,,,,1095,19,85,1,0,0,response1disk,,7,-23,-16,1,0,0,rectangle,-23,-16,1,0,0,-23,-16,1,0,0,1,124,284,63,1,,,,,,,,
,,,,,,,,,,,,,FF,,,,,,,,0.5,,,,,,,,,,,,,,,,,,,,,,60fee8c259d498feb86e38ad,61036ed5b4e8cd61018fe126,2021-07-29_22h16.16.734,Simcolourproject_2stim_asymm_v5,2020.2.10,MacIntel,60,61025ae37ef11b136ea224fe,,,,,,,,,1506,15,59,1,0,0,response1disk,,7,9,-1,1,0,0,rectangle,9,-1,1,0,0,9,-1,1,0,0,1,125,285,105,1,,,,,,,,
,,,,,,,,,,,,,FF,,,,,,,,0.584,,,,,,,,,,,,,,,,,,,,,,60fee8c259d498feb86e38ad,61036ed5b4e8cd61018fe126,2021-07-29_22h16.16.734,Simcolourproject_2stim_asymm_v5,2020.2.10,MacIntel,60,61025ae37ef11b136ea224fe,,,,,,,,,203,31,80,1,0,0,response1disk,,7,-26,0,1,0,0,rectangle,-26,0,1,0,0,-26,0,1,0,0,1,126,286,143,1,,,,,,,,
,,,,,,,,,,,,,FF,,,,,,,,0.351,,,,,,,,,,,,,,,,,,,,,,60fee8c259d498feb86e38ad,61036ed5b4e8cd61018fe126,2021-07-29_22h16.16.734,Simcolourproject_2stim_asymm_v5,2020.2.10,MacIntel,60,61025ae37ef11b136ea224fe,,,,,,,,,2346,19,65,1,0,0,response1disk,,7,-7,13,1,0,0,rectangle,-7,13,1,0,0,-7,13,1,0,0,1,127,287,45,1,,,,,,,,
,,,,,,,,,,,,,FF,,,,,,,,0.514,,,,,,,,,,,,,,,,,,,,,,60fee8c259d498feb86e38ad,61036ed5b4e8cd61018fe126,2021-07-29_22h16.16.734,Simcolourproject_2stim_asymm_v5,2020.2.10,MacIntel,60,61025ae37ef11b136ea224fe,,,,,,,,,1618,23,86,1,0,0,response1disk,,7,0,12,1,0,0,rectangle,0,12,1,0,0,0,12,1,0,0,1,128,288,85,1,,,,,,,,
,,,,,,,,,,,,,FF,,,,,,,,0.632,,,,,,,,,,,,,,,,,,,,,,60fee8c259d498feb86e38ad,61036ed5b4e8cd61018fe126,2021-07-29_22h16.16.734,Simcolourproject_2stim_asymm_v5,2020.2.10,MacIntel,60,61025ae37ef11b136ea224fe,,,,,,,,,215,21,98,1,0,0,response1disk,,7,3,-1,1,0,0,rectangle,3,-1,1,0,0,3,-1,1,0,0,1,129,289,112,1,,,,,,,,
,,,,,,,,,,,,,FF,,,,,,,,1.533,,,,,,,,,,,,,,,,,,,,,,60fee8c259d498feb86e38ad,61036ed5b4e8cd61018fe126,2021-07-29_22h16.16.734,Simcolourproject_2stim_asymm_v5,2020.2.10,MacIntel,60,61025ae37ef11b136ea224fe,,,,,,,,,3340,57,52,1,0,0,response1disk,,6,-25,4,1,0,0,rectangle,-25,4,1,0,0,-25,4,1,0,0,1,130,290,9,1,,,,,,,,
,,,,,,,,,,,,,FF,,,,,,,,0.85,,,,,,,,,,,,,,,,,,,,,,60fee8c259d498feb86e38ad,61036ed5b4e8cd61018fe126,2021-07-29_22h16.16.734,Simcolourproject_2stim_asymm_v5,2020.2.10,MacIntel,60,61025ae37ef11b136ea224fe,,,,,,,,,1521,-63,72,1,0,0,response7disk,,0,-9,6,1,0,0,rectangle,-9,6,1,0,0,-9,6,1,0,0,1,131,291,113,1,,,,,,,,
,,,,,,,,,,,,,FF,,,,,,,,0.668,,,,,,,,,,,,,,,,,,,,,,60fee8c259d498feb86e38ad,61036ed5b4e8cd61018fe126,2021-07-29_22h16.16.734,Simcolourproject_2stim_asymm_v5,2020.2.10,MacIntel,60,61025ae37ef11b136ea224fe,,,,,,,,,9,17,90,1,0,0,response1disk,,7,-11,-10,1,0,0,rectangle,-11,-10,1,0,0,-11,-10,1,0,0,1,132,292,0,1,,,,,,,,
,,,,,,,,,,,,,FF,,,,,,,,1.25,,,,,,,,,,,,,,,,,,,,,,60fee8c259d498feb86e38ad,61036ed5b4e8cd61018fe126,2021-07-29_22h16.16.734,Simcolourproject_2stim_asymm_v5,2020.2.10,MacIntel,60,61025ae37ef11b136ea224fe,,,,,,,,,2485,30,80,1,0,0,response1disk,,7,-17,8,1,0,0,rectangle,-17,8,1,0,0,-17,8,1,0,0,1,133,293,81,1,,,,,,,,
,,,,,,,,,,,,,FF,,,,,,,,1.553,,,,,,,,,,,,,,,,,,,,,,60fee8c259d498feb86e38ad,61036ed5b4e8cd61018fe126,2021-07-29_22h16.16.734,Simcolourproject_2stim_asymm_v5,2020.2.10,MacIntel,60,61025ae37ef11b136ea224fe,,,,,,,,,2833,-59,77,1,0,0,response7disk,,0,-12,13,1,0,0,rectangle,-12,13,1,0,0,-12,13,1,0,0,1,134,294,79,1,,,,,,,,
,,,,,,,,,,,,,FF,,,,,,,,1.164,,,,,,,,,,,,,,,,,,,,,,60fee8c259d498feb86e38ad,61036ed5b4e8cd61018fe126,2021-07-29_22h16.16.734,Simcolourproject_2stim_asymm_v5,2020.2.10,MacIntel,60,61025ae37ef11b136ea224fe,,,,,,,,,2256,22,70,1,0,0,response1disk,,7,-18,4,1,0,0,rectangle,-18,4,1,0,0,-18,4,1,0,0,1,135,295,30,1,,,,,,,,
,,,,,,,,,,,,,FF,,,,,,,,0.669,,,,,,,,,,,,,,,,,,,,,,60fee8c259d498feb86e38ad,61036ed5b4e8cd61018fe126,2021-07-29_22h16.16.734,Simcolourproject_2stim_asymm_v5,2020.2.10,MacIntel,60,61025ae37ef11b136ea224fe,,,,,,,,,3130,18,76,1,0,0,response1disk,,7,-16,-3,1,0,0,rectangle,29,77,1,0,0,-17,7,1,0,0,1,136,296,7,1,,response1disk_3,TRUE,7,7,"[254,23,39,137,309,59,203,160,21,184,207,205,297,143,130,51,27,13,251,168]",1.911,rectangle
,,,,,,,,,,,,,FF,,,,,,,,1.217,,,,,,,,,,,,,,,,,,,,,,60fee8c259d498feb86e38ad,61036ed5b4e8cd61018fe126,2021-07-29_22h16.16.734,Simcolourproject_2stim_asymm_v5,2020.2.10,MacIntel,60,61025ae37ef11b136ea224fe,,,,,,,,,500,24,84,1,0,0,response1disk,,7,-5,6,1,0,0,rectangle,-5,6,1,0,0,-5,6,1,0,0,1,137,297,36,1,,,,,,,,
,,,,,,,,,,,,,FF,,,,,,,,2.018,,,,,,,,,,,,,,,,,,,,,,60fee8c259d498feb86e38ad,61036ed5b4e8cd61018fe126,2021-07-29_22h16.16.734,Simcolourproject_2stim_asymm_v5,2020.2.10,MacIntel,60,61025ae37ef11b136ea224fe,,,,,,,,,1811,45,22,1,0,0,response1disk,,6,-10,-7,1,0,0,rectangle,-10,-7,1,0,0,-10,-7,1,0,0,1,138,298,103,1,,,,,,,,
