key_resp.keys,key_resp.rt,key_resp_14.keys,key_resp_14.rt,key_resp_15.keys,key_resp_15.rt,key_resp_17.keys,key_resp_17.rt,key_resp_9.keys,key_resp_9.rt,key_resp_10.keys,key_resp_10.rt,practice_comparison,Ecc,mouse_5.x,mouse_5.y,mouse_5.leftButton,mouse_5.midButton,mouse_5.rightButton,mouse_5.clicked_name,pracsimilarity,response_time,mouse_10.x,mouse_10.y,mouse_10.leftButton,mouse_10.midButton,mouse_10.rightButton,mouse_10.clicked_name,mouse_7.x,mouse_7.y,mouse_7.leftButton,mouse_7.midButton,mouse_7.rightButton,mouse_6.x,mouse_6.y,mouse_6.leftButton,mouse_6.midButton,mouse_6.rightButton,duringprac.thisRepN,duringprac.thisTrialN,duringprac.thisN,duringprac.thisIndex,duringprac.ran,participant,session,date,expName,psychopyVersion,OS,frameRate,study_id,mouse_7.clicked_name,catchpracsimilarity,catch_response_time,catchnumberprac,catchtrialorderprac,mouse_6.clicked_name,key_resp_22.keys,key_resp_22.rt,realcomparison,mouse.x,mouse.y,mouse.leftButton,mouse.midButton,mouse.rightButton,mouse.clicked_name,Colour2,similarity,mouse_2.x,mouse_2.y,mouse_2.leftButton,mouse_2.midButton,mouse_2.rightButton,mouse_2.clicked_name,mouse_3.x,mouse_3.y,mouse_3.leftButton,mouse_3.midButton,mouse_3.rightButton,mouse_11.x,mouse_11.y,mouse_11.leftButton,mouse_11.midButton,mouse_11.rightButton,trials_2.thisRepN,trials_2.thisTrialN,trials_2.thisN,trials_2.thisIndex,trials_2.ran,Colour1,mouse_3.clicked_name,catchornah,catchsimilarity,catchnumber,catchtrialorder,catchRT,mouse_11.clicked_name
space,1.498,space,1.759,space,15.121,space,1.477,space,0.818,space,3.15,148,FF,82,-114,1,0,0,response3disk_5,4,9.814,3,-11,1,0,0,rectangle_8,3,-11,1,0,0,3,-11,1,0,0,0,0,0,5,1,60fee821d38b78e728a456ff,61036b02e074d6e537aaf697,2021-07-29_20h01.08.785,Simcolourproject_2stim_asymm_v5,2020.2.10,MacIntel,60,61025ae37ef11b136ea224fe,,,,,,,,,,,,,,,,,,,,,,,,,,,,,,,,,,,,,,,,,,,,,,
,,,,,,,,,,,,142,PF,-52,-110,1,0,0,response5disk_5,3,1.958,15,-9,1,0,0,rectangle_8,38,-112,1,0,0,-7,-19,1,0,0,0,1,1,2,1,60fee821d38b78e728a456ff,61036b02e074d6e537aaf697,2021-07-29_20h01.08.785,Simcolourproject_2stim_asymm_v5,2020.2.10,MacIntel,60,61025ae37ef11b136ea224fe,response3disk_7,4,2.476,4,"[2,5]",rectangle_4,,,,,,,,,,,,,,,,,,,,,,,,,,,,,,,,,,,,,,,,
,,,,,,,,,,,,15,PF,91,47,1,0,0,response1disk_5,6,1.601,12,-2,1,0,0,rectangle_8,12,-2,1,0,0,12,-2,1,0,0,0,2,2,1,1,60fee821d38b78e728a456ff,61036b02e074d6e537aaf697,2021-07-29_20h01.08.785,Simcolourproject_2stim_asymm_v5,2020.2.10,MacIntel,60,61025ae37ef11b136ea224fe,,,,,,,,,,,,,,,,,,,,,,,,,,,,,,,,,,,,,,,,,,,,,,
,,,,,,,,,,,,42,FF,-36,108,1,0,0,response7disk_5,0,1.65,-4,-17,1,0,0,rectangle_8,-4,-17,1,0,0,-4,-17,1,0,0,0,3,3,3,1,60fee821d38b78e728a456ff,61036b02e074d6e537aaf697,2021-07-29_20h01.08.785,Simcolourproject_2stim_asymm_v5,2020.2.10,MacIntel,60,61025ae37ef11b136ea224fe,,,,,,,,,,,,,,,,,,,,,,,,,,,,,,,,,,,,,,,,,,,,,,
,,,,,,,,,,,,18,PF,-44,-83,1,0,0,response5disk_5,3,2.822,18,1,1,0,0,rectangle_8,40,-95,1,0,0,17,4,1,0,0,0,4,4,4,1,60fee821d38b78e728a456ff,61036b02e074d6e537aaf697,2021-07-29_20h01.08.785,Simcolourproject_2stim_asymm_v5,2020.2.10,MacIntel,60,61025ae37ef11b136ea224fe,response3disk_7,4,1.651,4,"[2,5]",rectangle_4,,,,,,,,,,,,,,,,,,,,,,,,,,,,,,,,,,,,,,,,
,,,,,,,,,,,,15,FF,-66,54,1,0,0,response7disk_5,1,3.763,-4,-9,1,0,0,rectangle_8,-4,-9,1,0,0,-4,-9,1,0,0,0,5,5,0,1,60fee821d38b78e728a456ff,61036b02e074d6e537aaf697,2021-07-29_20h01.08.785,Simcolourproject_2stim_asymm_v5,2020.2.10,MacIntel,60,61025ae37ef11b136ea224fe,,,,,,,,,,,,,,,,,,,,,,,,,,,,,,,,,,,,,,,,,,,,,,
,,,,,,,,,,,,139,PF,-72,-83,1,0,0,response5disk_5,3,1.349,13,3,1,0,0,rectangle_8,13,3,1,0,0,13,3,1,0,0,0,6,6,6,1,60fee821d38b78e728a456ff,61036b02e074d6e537aaf697,2021-07-29_20h01.08.785,Simcolourproject_2stim_asymm_v5,2020.2.10,MacIntel,60,61025ae37ef11b136ea224fe,,,,,,,,,,,,,,,,,,,,,,,,,,,,,,,,,,,,,,,,,,,,,,
,,,,,,,,,,,,,FF,,,,,,,,1.565,,,,,,,,,,,,,,,,,,,,,,60fee821d38b78e728a456ff,61036b02e074d6e537aaf697,2021-07-29_20h01.08.785,Simcolourproject_2stim_asymm_v5,2020.2.10,MacIntel,60,61025ae37ef11b136ea224fe,,,,,,,space,2.623,755,48,97,1,0,0,response1disk,,7,3,-6,1,0,0,rectangle,3,-6,1,0,0,3,-6,1,0,0,0,0,0,158,1,,,,,,,,
,,,,,,,,,,,,,FF,,,,,,,,1.381,,,,,,,,,,,,,,,,,,,,,,60fee821d38b78e728a456ff,61036b02e074d6e537aaf697,2021-07-29_20h01.08.785,Simcolourproject_2stim_asymm_v5,2020.2.10,MacIntel,60,61025ae37ef11b136ea224fe,,,,,,,,,1856,36,-89,1,0,0,response3disk,,4,5,-2,1,0,0,rectangle,5,-2,1,0,0,5,-2,1,0,0,0,1,1,103,1,,,,,,,,
,,,,,,,,,,,,,FF,,,,,,,,2.254,,,,,,,,,,,,,,,,,,,,,,60fee821d38b78e728a456ff,61036b02e074d6e537aaf697,2021-07-29_20h01.08.785,Simcolourproject_2stim_asymm_v5,2020.2.10,MacIntel,60,61025ae37ef11b136ea224fe,,,,,,,,,2475,-50,-95,1,0,0,response5disk,,3,-4,1,1,0,0,rectangle,-4,1,1,0,0,-4,1,1,0,0,0,2,2,45,1,,,,,,,,
,,,,,,,,,,,,,FF,,,,,,,,1.838,,,,,,,,,,,,,,,,,,,,,,60fee821d38b78e728a456ff,61036b02e074d6e537aaf697,2021-07-29_20h01.08.785,Simcolourproject_2stim_asymm_v5,2020.2.10,MacIntel,60,61025ae37ef11b136ea224fe,,,,,,,,,1626,-89,53,1,0,0,response7disk,,1,-17,5,1,0,0,rectangle,-17,5,1,0,0,-17,5,1,0,0,0,3,3,152,1,,,,,,,,
,,,,,,,,,,,,,FF,,,,,,,,1.038,,,,,,,,,,,,,,,,,,,,,,60fee821d38b78e728a456ff,61036b02e074d6e537aaf697,2021-07-29_20h01.08.785,Simcolourproject_2stim_asymm_v5,2020.2.10,MacIntel,60,61025ae37ef11b136ea224fe,,,,,,,,,2574,-67,46,1,0,0,response7disk,,1,-4,7,1,0,0,rectangle,-4,7,1,0,0,-4,7,1,0,0,0,4,4,62,1,,,,,,,,
,,,,,,,,,,,,,FF,,,,,,,,2.611,,,,,,,,,,,,,,,,,,,,,,60fee821d38b78e728a456ff,61036b02e074d6e537aaf697,2021-07-29_20h01.08.785,Simcolourproject_2stim_asymm_v5,2020.2.10,MacIntel,60,61025ae37ef11b136ea224fe,,,,,,,,,3020,-42,-82,1,0,0,response5disk,,3,-8,-7,1,0,0,rectangle,-8,-7,1,0,0,-8,-7,1,0,0,0,5,5,155,1,,,,,,,,
,,,,,,,,,,,,,FF,,,,,,,,0.969,,,,,,,,,,,,,,,,,,,,,,60fee821d38b78e728a456ff,61036b02e074d6e537aaf697,2021-07-29_20h01.08.785,Simcolourproject_2stim_asymm_v5,2020.2.10,MacIntel,60,61025ae37ef11b136ea224fe,,,,,,,,,3383,-63,88,1,0,0,response7disk,,0,-21,-4,1,0,0,rectangle,-21,-4,1,0,0,-21,-4,1,0,0,0,6,6,38,1,,,,,,,,
,,,,,,,,,,,,,FF,,,,,,,,0.81,,,,,,,,,,,,,,,,,,,,,,60fee821d38b78e728a456ff,61036b02e074d6e537aaf697,2021-07-29_20h01.08.785,Simcolourproject_2stim_asymm_v5,2020.2.10,MacIntel,60,61025ae37ef11b136ea224fe,,,,,,,,,3476,-52,98,1,0,0,response7disk,,0,-22,5,1,0,0,rectangle,-22,5,1,0,0,-22,5,1,0,0,0,7,7,84,1,,,,,,,,
,,,,,,,,,,,,,FF,,,,,,,,2.157,,,,,,,,,,,,,,,,,,,,,,60fee821d38b78e728a456ff,61036b02e074d6e537aaf697,2021-07-29_20h01.08.785,Simcolourproject_2stim_asymm_v5,2020.2.10,MacIntel,60,61025ae37ef11b136ea224fe,,,,,,,,,2990,-89,-59,1,0,0,response5disk,,2,-3,0,1,0,0,rectangle,-42,-90,1,0,0,-21,-2,1,0,0,0,8,8,130,1,,response5disk_3,TRUE,3,3,"[163,94,142,145,176,128,43,32,169,137,209,157,318,265,291,237,9,119,73,45]",2.108,rectangle
,,,,,,,,,,,,,FF,,,,,,,,1.01,,,,,,,,,,,,,,,,,,,,,,60fee821d38b78e728a456ff,61036b02e074d6e537aaf697,2021-07-29_20h01.08.785,Simcolourproject_2stim_asymm_v5,2020.2.10,MacIntel,60,61025ae37ef11b136ea224fe,,,,,,,,,3142,-59,-93,1,0,0,response5disk,,3,-16,-11,1,0,0,rectangle,-16,-11,1,0,0,-16,-11,1,0,0,0,9,9,136,1,,,,,,,,
,,,,,,,,,,,,,FF,,,,,,,,1.2,,,,,,,,,,,,,,,,,,,,,,60fee821d38b78e728a456ff,61036b02e074d6e537aaf697,2021-07-29_20h01.08.785,Simcolourproject_2stim_asymm_v5,2020.2.10,MacIntel,60,61025ae37ef11b136ea224fe,,,,,,,,,1400,68,92,1,0,0,response1disk,,7,30,8,1,0,0,rectangle,30,8,1,0,0,30,8,1,0,0,0,10,10,49,1,,,,,,,,
,,,,,,,,,,,,,FF,,,,,,,,0.853,,,,,,,,,,,,,,,,,,,,,,60fee821d38b78e728a456ff,61036b02e074d6e537aaf697,2021-07-29_20h01.08.785,Simcolourproject_2stim_asymm_v5,2020.2.10,MacIntel,60,61025ae37ef11b136ea224fe,,,,,,,,,3019,102,56,1,0,0,response1disk,,6,30,10,1,0,0,rectangle,30,10,1,0,0,30,10,1,0,0,0,11,11,11,1,,,,,,,,
,,,,,,,,,,,,,FF,,,,,,,,0.99,,,,,,,,,,,,,,,,,,,,,,60fee821d38b78e728a456ff,61036b02e074d6e537aaf697,2021-07-29_20h01.08.785,Simcolourproject_2stim_asymm_v5,2020.2.10,MacIntel,60,61025ae37ef11b136ea224fe,,,,,,,,,931,91,51,1,0,0,response1disk,,6,20,1,1,0,0,rectangle,20,1,1,0,0,20,1,1,0,0,0,12,12,149,1,,,,,,,,
,,,,,,,,,,,,,FF,,,,,,,,0.999,,,,,,,,,,,,,,,,,,,,,,60fee821d38b78e728a456ff,61036b02e074d6e537aaf697,2021-07-29_20h01.08.785,Simcolourproject_2stim_asymm_v5,2020.2.10,MacIntel,60,61025ae37ef11b136ea224fe,,,,,,,,,3434,-49,75,1,0,0,response7disk,,0,-23,-15,1,0,0,rectangle,-23,-15,1,0,0,-23,-15,1,0,0,0,13,13,54,1,,,,,,,,
,,,,,,,,,,,,,FF,,,,,,,,0.843,,,,,,,,,,,,,,,,,,,,,,60fee821d38b78e728a456ff,61036b02e074d6e537aaf697,2021-07-29_20h01.08.785,Simcolourproject_2stim_asymm_v5,2020.2.10,MacIntel,60,61025ae37ef11b136ea224fe,,,,,,,,,3085,108,51,1,0,0,response1disk,,6,21,0,1,0,0,rectangle,21,0,1,0,0,21,0,1,0,0,0,14,14,6,1,,,,,,,,
,,,,,,,,,,,,,FF,,,,,,,,1.442,,,,,,,,,,,,,,,,,,,,,,60fee821d38b78e728a456ff,61036b02e074d6e537aaf697,2021-07-29_20h01.08.785,Simcolourproject_2stim_asymm_v5,2020.2.10,MacIntel,60,61025ae37ef11b136ea224fe,,,,,,,,,2776,-78,28,1,0,0,response7disk,,1,-31,0,1,0,0,rectangle,-31,0,1,0,0,-31,0,1,0,0,0,15,15,118,1,,,,,,,,
,,,,,,,,,,,,,FF,,,,,,,,1.19,,,,,,,,,,,,,,,,,,,,,,60fee821d38b78e728a456ff,61036b02e074d6e537aaf697,2021-07-29_20h01.08.785,Simcolourproject_2stim_asymm_v5,2020.2.10,MacIntel,60,61025ae37ef11b136ea224fe,,,,,,,,,4042,46,75,1,0,0,response1disk,,7,35,6,1,0,0,rectangle,35,6,1,0,0,35,6,1,0,0,0,16,16,85,1,,,,,,,,
,,,,,,,,,,,,,FF,,,,,,,,1.914,,,,,,,,,,,,,,,,,,,,,,60fee821d38b78e728a456ff,61036b02e074d6e537aaf697,2021-07-29_20h01.08.785,Simcolourproject_2stim_asymm_v5,2020.2.10,MacIntel,60,61025ae37ef11b136ea224fe,,,,,,,,,2259,89,39,1,0,0,response1disk,,6,17,7,1,0,0,rectangle,17,7,1,0,0,17,7,1,0,0,0,17,17,116,1,,,,,,,,
,,,,,,,,,,,,,FF,,,,,,,,1.554,,,,,,,,,,,,,,,,,,,,,,60fee821d38b78e728a456ff,61036b02e074d6e537aaf697,2021-07-29_20h01.08.785,Simcolourproject_2stim_asymm_v5,2020.2.10,MacIntel,60,61025ae37ef11b136ea224fe,,,,,,,,,1972,-78,-41,1,0,0,response5disk,,2,3,-16,1,0,0,rectangle,3,-16,1,0,0,3,-16,1,0,0,0,18,18,24,1,,,,,,,,
,,,,,,,,,,,,,FF,,,,,,,,1.269,,,,,,,,,,,,,,,,,,,,,,60fee821d38b78e728a456ff,61036b02e074d6e537aaf697,2021-07-29_20h01.08.785,Simcolourproject_2stim_asymm_v5,2020.2.10,MacIntel,60,61025ae37ef11b136ea224fe,,,,,,,,,1423,124,-34,1,0,0,response3disk,,5,6,-2,1,0,0,rectangle,6,-2,1,0,0,6,-2,1,0,0,0,19,19,30,1,,,,,,,,
,,,,,,,,,,,,,FF,,,,,,,,1.44,,,,,,,,,,,,,,,,,,,,,,60fee821d38b78e728a456ff,61036b02e074d6e537aaf697,2021-07-29_20h01.08.785,Simcolourproject_2stim_asymm_v5,2020.2.10,MacIntel,60,61025ae37ef11b136ea224fe,,,,,,,,,1731,42,-109,1,0,0,response3disk,,4,7,-13,1,0,0,rectangle,7,-13,1,0,0,7,-13,1,0,0,0,20,20,73,1,,,,,,,,
,,,,,,,,,,,,,FF,,,,,,,,0.928,,,,,,,,,,,,,,,,,,,,,,60fee821d38b78e728a456ff,61036b02e074d6e537aaf697,2021-07-29_20h01.08.785,Simcolourproject_2stim_asymm_v5,2020.2.10,MacIntel,60,61025ae37ef11b136ea224fe,,,,,,,,,1193,47,-89,1,0,0,response3disk,,4,8,5,1,0,0,rectangle,8,5,1,0,0,8,5,1,0,0,0,21,21,52,1,,,,,,,,
,,,,,,,,,,,,,FF,,,,,,,,1.513,,,,,,,,,,,,,,,,,,,,,,60fee821d38b78e728a456ff,61036b02e074d6e537aaf697,2021-07-29_20h01.08.785,Simcolourproject_2stim_asymm_v5,2020.2.10,MacIntel,60,61025ae37ef11b136ea224fe,,,,,,,,,2315,70,-100,1,0,0,response3disk,,4,-8,5,1,0,0,rectangle,-8,5,1,0,0,-8,5,1,0,0,0,22,22,153,1,,,,,,,,
,,,,,,,,,,,,,FF,,,,,,,,0.806,,,,,,,,,,,,,,,,,,,,,,60fee821d38b78e728a456ff,61036b02e074d6e537aaf697,2021-07-29_20h01.08.785,Simcolourproject_2stim_asymm_v5,2020.2.10,MacIntel,60,61025ae37ef11b136ea224fe,,,,,,,,,2003,104,65,1,0,0,response1disk,,6,25,3,1,0,0,rectangle,25,3,1,0,0,25,3,1,0,0,0,23,23,75,1,,,,,,,,
,,,,,,,,,,,,,FF,,,,,,,,0.942,,,,,,,,,,,,,,,,,,,,,,60fee821d38b78e728a456ff,61036b02e074d6e537aaf697,2021-07-29_20h01.08.785,Simcolourproject_2stim_asymm_v5,2020.2.10,MacIntel,60,61025ae37ef11b136ea224fe,,,,,,,,,1781,97,63,1,0,0,response1disk,,6,23,-6,1,0,0,rectangle,23,-6,1,0,0,23,-6,1,0,0,0,24,24,94,1,,,,,,,,
,,,,,,,,,,,,,FF,,,,,,,,1.142,,,,,,,,,,,,,,,,,,,,,,60fee821d38b78e728a456ff,61036b02e074d6e537aaf697,2021-07-29_20h01.08.785,Simcolourproject_2stim_asymm_v5,2020.2.10,MacIntel,60,61025ae37ef11b136ea224fe,,,,,,,,,774,46,84,1,0,0,response1disk,,7,23,6,1,0,0,rectangle,23,6,1,0,0,23,6,1,0,0,0,25,25,101,1,,,,,,,,
,,,,,,,,,,,,,FF,,,,,,,,0.787,,,,,,,,,,,,,,,,,,,,,,60fee821d38b78e728a456ff,61036b02e074d6e537aaf697,2021-07-29_20h01.08.785,Simcolourproject_2stim_asymm_v5,2020.2.10,MacIntel,60,61025ae37ef11b136ea224fe,,,,,,,,,2361,-50,70,1,0,0,response7disk,,0,-24,-10,1,0,0,rectangle,-24,-10,1,0,0,-24,-10,1,0,0,0,26,26,126,1,,,,,,,,
,,,,,,,,,,,,,FF,,,,,,,,0.707,,,,,,,,,,,,,,,,,,,,,,60fee821d38b78e728a456ff,61036b02e074d6e537aaf697,2021-07-29_20h01.08.785,Simcolourproject_2stim_asymm_v5,2020.2.10,MacIntel,60,61025ae37ef11b136ea224fe,,,,,,,,,1300,-90,38,1,0,0,response7disk,,1,-43,5,1,0,0,rectangle,-43,5,1,0,0,-43,5,1,0,0,0,27,27,63,1,,,,,,,,
,,,,,,,,,,,,,FF,,,,,,,,0.576,,,,,,,,,,,,,,,,,,,,,,60fee821d38b78e728a456ff,61036b02e074d6e537aaf697,2021-07-29_20h01.08.785,Simcolourproject_2stim_asymm_v5,2020.2.10,MacIntel,60,61025ae37ef11b136ea224fe,,,,,,,,,2767,-90,55,1,0,0,response7disk,,1,-22,6,1,0,0,rectangle,-22,6,1,0,0,-22,6,1,0,0,0,28,28,106,1,,,,,,,,
,,,,,,,,,,,,,FF,,,,,,,,1,,,,,,,,,,,,,,,,,,,,,,60fee821d38b78e728a456ff,61036b02e074d6e537aaf697,2021-07-29_20h01.08.785,Simcolourproject_2stim_asymm_v5,2020.2.10,MacIntel,60,61025ae37ef11b136ea224fe,,,,,,,,,417,48,96,1,0,0,response1disk,,7,31,-3,1,0,0,rectangle,31,-3,1,0,0,31,-3,1,0,0,0,29,29,50,1,,,,,,,,
,,,,,,,,,,,,,FF,,,,,,,,0.656,,,,,,,,,,,,,,,,,,,,,,60fee821d38b78e728a456ff,61036b02e074d6e537aaf697,2021-07-29_20h01.08.785,Simcolourproject_2stim_asymm_v5,2020.2.10,MacIntel,60,61025ae37ef11b136ea224fe,,,,,,,,,1401,41,68,1,0,0,response1disk,,7,37,5,1,0,0,rectangle,37,5,1,0,0,37,5,1,0,0,0,30,30,132,1,,,,,,,,
,,,,,,,,,,,,,FF,,,,,,,,1,,,,,,,,,,,,,,,,,,,,,,60fee821d38b78e728a456ff,61036b02e074d6e537aaf697,2021-07-29_20h01.08.785,Simcolourproject_2stim_asymm_v5,2020.2.10,MacIntel,60,61025ae37ef11b136ea224fe,,,,,,,,,2369,-69,-77,1,0,0,response5disk,,3,-10,-3,1,0,0,rectangle,-58,-120,1,0,0,-24,7,1,0,0,0,31,31,59,1,,response5disk_3,TRUE,3,3,"[163,94,142,145,176,128,43,32,169,137,209,157,318,265,291,237,9,119,73,45]",1.928,rectangle
,,,,,,,,,,,,,FF,,,,,,,,1.448,,,,,,,,,,,,,,,,,,,,,,60fee821d38b78e728a456ff,61036b02e074d6e537aaf697,2021-07-29_20h01.08.785,Simcolourproject_2stim_asymm_v5,2020.2.10,MacIntel,60,61025ae37ef11b136ea224fe,,,,,,,,,2205,79,-49,1,0,0,response3disk,,5,14,16,1,0,0,rectangle,14,16,1,0,0,14,16,1,0,0,0,32,32,2,1,,,,,,,,
,,,,,,,,,,,,,FF,,,,,,,,0.781,,,,,,,,,,,,,,,,,,,,,,60fee821d38b78e728a456ff,61036b02e074d6e537aaf697,2021-07-29_20h01.08.785,Simcolourproject_2stim_asymm_v5,2020.2.10,MacIntel,60,61025ae37ef11b136ea224fe,,,,,,,,,2573,96,-51,1,0,0,response3disk,,5,28,-6,1,0,0,rectangle,28,-6,1,0,0,28,-6,1,0,0,0,33,33,121,1,,,,,,,,
,,,,,,,,,,,,,FF,,,,,,,,1.312,,,,,,,,,,,,,,,,,,,,,,60fee821d38b78e728a456ff,61036b02e074d6e537aaf697,2021-07-29_20h01.08.785,Simcolourproject_2stim_asymm_v5,2020.2.10,MacIntel,60,61025ae37ef11b136ea224fe,,,,,,,,,1846,-31,-119,1,0,0,response5disk,,3,-8,-2,1,0,0,rectangle,-8,-2,1,0,0,-8,-2,1,0,0,0,34,34,151,1,,,,,,,,
,,,,,,,,,,,,,FF,,,,,,,,0.859,,,,,,,,,,,,,,,,,,,,,,60fee821d38b78e728a456ff,61036b02e074d6e537aaf697,2021-07-29_20h01.08.785,Simcolourproject_2stim_asymm_v5,2020.2.10,MacIntel,60,61025ae37ef11b136ea224fe,,,,,,,,,3268,-31,-116,1,0,0,response5disk,,3,30,-19,1,0,0,rectangle,30,-19,1,0,0,30,-19,1,0,0,0,35,35,115,1,,,,,,,,
,,,,,,,,,,,,,FF,,,,,,,,0.78,,,,,,,,,,,,,,,,,,,,,,60fee821d38b78e728a456ff,61036b02e074d6e537aaf697,2021-07-29_20h01.08.785,Simcolourproject_2stim_asymm_v5,2020.2.10,MacIntel,60,61025ae37ef11b136ea224fe,,,,,,,,,4260,69,-34,1,0,0,response3disk,,5,30,-4,1,0,0,rectangle,30,-4,1,0,0,30,-4,1,0,0,0,36,36,55,1,,,,,,,,
,,,,,,,,,,,,,FF,,,,,,,,0.907,,,,,,,,,,,,,,,,,,,,,,60fee821d38b78e728a456ff,61036b02e074d6e537aaf697,2021-07-29_20h01.08.785,Simcolourproject_2stim_asymm_v5,2020.2.10,MacIntel,60,61025ae37ef11b136ea224fe,,,,,,,,,729,-91,-56,1,0,0,response5disk,,2,-10,6,1,0,0,rectangle,-10,6,1,0,0,-10,6,1,0,0,0,37,37,77,1,,,,,,,,
,,,,,,,,,,,,,FF,,,,,,,,0.739,,,,,,,,,,,,,,,,,,,,,,60fee821d38b78e728a456ff,61036b02e074d6e537aaf697,2021-07-29_20h01.08.785,Simcolourproject_2stim_asymm_v5,2020.2.10,MacIntel,60,61025ae37ef11b136ea224fe,,,,,,,,,1309,-73,-48,1,0,0,response5disk,,2,-2,-16,1,0,0,rectangle,-2,-16,1,0,0,-2,-16,1,0,0,0,38,38,131,1,,,,,,,,
,,,,,,,,,,,,,FF,,,,,,,,0.765,,,,,,,,,,,,,,,,,,,,,,60fee821d38b78e728a456ff,61036b02e074d6e537aaf697,2021-07-29_20h01.08.785,Simcolourproject_2stim_asymm_v5,2020.2.10,MacIntel,60,61025ae37ef11b136ea224fe,,,,,,,,,857,87,-52,1,0,0,response3disk,,5,16,-15,1,0,0,rectangle,16,-15,1,0,0,16,-15,1,0,0,0,39,39,53,1,,,,,,,,
,,,,,,,,,,,,,FF,,,,,,,,0.929,,,,,,,,,,,,,,,,,,,,,,60fee821d38b78e728a456ff,61036b02e074d6e537aaf697,2021-07-29_20h01.08.785,Simcolourproject_2stim_asymm_v5,2020.2.10,MacIntel,60,61025ae37ef11b136ea224fe,,,,,,,,,1289,78,47,1,0,0,response1disk,,6,19,-8,1,0,0,rectangle,19,-8,1,0,0,19,-8,1,0,0,0,40,40,87,1,,,,,,,,
,,,,,,,,,,,,,FF,,,,,,,,0.803,,,,,,,,,,,,,,,,,,,,,,60fee821d38b78e728a456ff,61036b02e074d6e537aaf697,2021-07-29_20h01.08.785,Simcolourproject_2stim_asymm_v5,2020.2.10,MacIntel,60,61025ae37ef11b136ea224fe,,,,,,,,,1885,107,69,1,0,0,response1disk,,6,5,3,1,0,0,rectangle,5,3,1,0,0,5,3,1,0,0,0,41,41,32,1,,,,,,,,
,,,,,,,,,,,,,FF,,,,,,,,0.701,,,,,,,,,,,,,,,,,,,,,,60fee821d38b78e728a456ff,61036b02e074d6e537aaf697,2021-07-29_20h01.08.785,Simcolourproject_2stim_asymm_v5,2020.2.10,MacIntel,60,61025ae37ef11b136ea224fe,,,,,,,,,3984,30,77,1,0,0,response1disk,,7,25,8,1,0,0,rectangle,-109,-41,1,0,0,-6,5,1,0,0,0,42,42,17,1,,response5disk_3,TRUE,2,2,"[163,94,142,145,176,128,43,32,169,137,209,157,318,265,291,237,9,119,73,45]",1.6,rectangle
,,,,,,,,,,,,,FF,,,,,,,,0.884,,,,,,,,,,,,,,,,,,,,,,60fee821d38b78e728a456ff,61036b02e074d6e537aaf697,2021-07-29_20h01.08.785,Simcolourproject_2stim_asymm_v5,2020.2.10,MacIntel,60,61025ae37ef11b136ea224fe,,,,,,,,,1878,-28,-102,1,0,0,response5disk,,3,11,2,1,0,0,rectangle,11,2,1,0,0,11,2,1,0,0,0,43,43,111,1,,,,,,,,
,,,,,,,,,,,,,FF,,,,,,,,0.745,,,,,,,,,,,,,,,,,,,,,,60fee821d38b78e728a456ff,61036b02e074d6e537aaf697,2021-07-29_20h01.08.785,Simcolourproject_2stim_asymm_v5,2020.2.10,MacIntel,60,61025ae37ef11b136ea224fe,,,,,,,,,3034,101,61,1,0,0,response1disk,,6,30,-5,1,0,0,rectangle,-95,45,1,0,0,-23,7,1,0,0,0,44,44,70,1,,response7disk_3,TRUE,1,1,"[163,94,142,145,176,128,43,32,169,137,209,157,318,265,291,237,9,119,73,45]",1.683,rectangle
,,,,,,,,,,,,,FF,,,,,,,,1.018,,,,,,,,,,,,,,,,,,,,,,60fee821d38b78e728a456ff,61036b02e074d6e537aaf697,2021-07-29_20h01.08.785,Simcolourproject_2stim_asymm_v5,2020.2.10,MacIntel,60,61025ae37ef11b136ea224fe,,,,,,,,,2467,81,125,1,0,0,response1disk,,7,-9,11,1,0,0,rectangle,-9,11,1,0,0,-9,11,1,0,0,0,45,45,67,1,,,,,,,,
,,,,,,,,,,,,,FF,,,,,,,,0.551,,,,,,,,,,,,,,,,,,,,,,60fee821d38b78e728a456ff,61036b02e074d6e537aaf697,2021-07-29_20h01.08.785,Simcolourproject_2stim_asymm_v5,2020.2.10,MacIntel,60,61025ae37ef11b136ea224fe,,,,,,,,,2206,34,67,1,0,0,response1disk,,7,10,-7,1,0,0,rectangle,10,-7,1,0,0,10,-7,1,0,0,0,46,46,134,1,,,,,,,,
,,,,,,,,,,,,,FF,,,,,,,,0.896,,,,,,,,,,,,,,,,,,,,,,60fee821d38b78e728a456ff,61036b02e074d6e537aaf697,2021-07-29_20h01.08.785,Simcolourproject_2stim_asymm_v5,2020.2.10,MacIntel,60,61025ae37ef11b136ea224fe,,,,,,,,,1274,-43,-106,1,0,0,response5disk,,3,7,0,1,0,0,rectangle,7,0,1,0,0,7,0,1,0,0,0,47,47,120,1,,,,,,,,
,,,,,,,,,,,,,FF,,,,,,,,0.719,,,,,,,,,,,,,,,,,,,,,,60fee821d38b78e728a456ff,61036b02e074d6e537aaf697,2021-07-29_20h01.08.785,Simcolourproject_2stim_asymm_v5,2020.2.10,MacIntel,60,61025ae37ef11b136ea224fe,,,,,,,,,1049,53,81,1,0,0,response1disk,,7,32,-16,1,0,0,rectangle,32,-16,1,0,0,32,-16,1,0,0,0,48,48,157,1,,,,,,,,
,,,,,,,,,,,,,FF,,,,,,,,0.904,,,,,,,,,,,,,,,,,,,,,,60fee821d38b78e728a456ff,61036b02e074d6e537aaf697,2021-07-29_20h01.08.785,Simcolourproject_2stim_asymm_v5,2020.2.10,MacIntel,60,61025ae37ef11b136ea224fe,,,,,,,,,3602,47,-80,1,0,0,response3disk,,4,17,-9,1,0,0,rectangle,17,-9,1,0,0,17,-9,1,0,0,0,49,49,9,1,,,,,,,,
,,,,,,,,,,,,,FF,,,,,,,,0.662,,,,,,,,,,,,,,,,,,,,,,60fee821d38b78e728a456ff,61036b02e074d6e537aaf697,2021-07-29_20h01.08.785,Simcolourproject_2stim_asymm_v5,2020.2.10,MacIntel,60,61025ae37ef11b136ea224fe,,,,,,,,,2501,74,21,1,0,0,response1disk,,6,25,17,1,0,0,rectangle,25,17,1,0,0,25,17,1,0,0,0,50,50,102,1,,,,,,,,
,,,,,,,,,,,,,FF,,,,,,,,1.226,,,,,,,,,,,,,,,,,,,,,,60fee821d38b78e728a456ff,61036b02e074d6e537aaf697,2021-07-29_20h01.08.785,Simcolourproject_2stim_asymm_v5,2020.2.10,MacIntel,60,61025ae37ef11b136ea224fe,,,,,,,,,2747,114,-52,1,0,0,response3disk,,5,18,-15,1,0,0,rectangle,18,-15,1,0,0,18,-15,1,0,0,0,51,51,82,1,,,,,,,,
,,,,,,,,,,,,,FF,,,,,,,,1.022,,,,,,,,,,,,,,,,,,,,,,60fee821d38b78e728a456ff,61036b02e074d6e537aaf697,2021-07-29_20h01.08.785,Simcolourproject_2stim_asymm_v5,2020.2.10,MacIntel,60,61025ae37ef11b136ea224fe,,,,,,,,,2819,65,-34,1,0,0,response3disk,,5,16,-17,1,0,0,rectangle,16,-17,1,0,0,16,-17,1,0,0,0,52,52,156,1,,,,,,,,
,,,,,,,,,,,,,FF,,,,,,,,0.736,,,,,,,,,,,,,,,,,,,,,,60fee821d38b78e728a456ff,61036b02e074d6e537aaf697,2021-07-29_20h01.08.785,Simcolourproject_2stim_asymm_v5,2020.2.10,MacIntel,60,61025ae37ef11b136ea224fe,,,,,,,,,1559,59,-42,1,0,0,response3disk,,5,13,-9,1,0,0,rectangle,13,-9,1,0,0,13,-9,1,0,0,0,53,53,15,1,,,,,,,,
,,,,,,,,,,,,,FF,,,,,,,,0.668,,,,,,,,,,,,,,,,,,,,,,60fee821d38b78e728a456ff,61036b02e074d6e537aaf697,2021-07-29_20h01.08.785,Simcolourproject_2stim_asymm_v5,2020.2.10,MacIntel,60,61025ae37ef11b136ea224fe,,,,,,,,,156,81,-48,1,0,0,response3disk,,5,16,-17,1,0,0,rectangle,16,-17,1,0,0,16,-17,1,0,0,0,54,54,42,1,,,,,,,,
,,,,,,,,,,,,,FF,,,,,,,,0.829,,,,,,,,,,,,,,,,,,,,,,60fee821d38b78e728a456ff,61036b02e074d6e537aaf697,2021-07-29_20h01.08.785,Simcolourproject_2stim_asymm_v5,2020.2.10,MacIntel,60,61025ae37ef11b136ea224fe,,,,,,,,,2161,-81,-49,1,0,0,response5disk,,2,-28,-15,1,0,0,rectangle,-28,-15,1,0,0,-28,-15,1,0,0,0,55,55,35,1,,,,,,,,
,,,,,,,,,,,,,FF,,,,,,,,1.102,,,,,,,,,,,,,,,,,,,,,,60fee821d38b78e728a456ff,61036b02e074d6e537aaf697,2021-07-29_20h01.08.785,Simcolourproject_2stim_asymm_v5,2020.2.10,MacIntel,60,61025ae37ef11b136ea224fe,,,,,,,,,3670,-62,101,1,0,0,response7disk,,0,-23,6,1,0,0,rectangle,-23,6,1,0,0,-23,6,1,0,0,0,56,56,8,1,,,,,,,,
,,,,,,,,,,,,,FF,,,,,,,,0.818,,,,,,,,,,,,,,,,,,,,,,60fee821d38b78e728a456ff,61036b02e074d6e537aaf697,2021-07-29_20h01.08.785,Simcolourproject_2stim_asymm_v5,2020.2.10,MacIntel,60,61025ae37ef11b136ea224fe,,,,,,,,,3930,-74,-119,1,0,0,response5disk,,3,-24,4,1,0,0,rectangle,-24,4,1,0,0,-24,4,1,0,0,0,57,57,138,1,,,,,,,,
,,,,,,,,,,,,,FF,,,,,,,,0.834,,,,,,,,,,,,,,,,,,,,,,60fee821d38b78e728a456ff,61036b02e074d6e537aaf697,2021-07-29_20h01.08.785,Simcolourproject_2stim_asymm_v5,2020.2.10,MacIntel,60,61025ae37ef11b136ea224fe,,,,,,,,,3646,71,47,1,0,0,response1disk,,6,16,-6,1,0,0,rectangle,16,-6,1,0,0,16,-6,1,0,0,0,58,58,18,1,,,,,,,,
,,,,,,,,,,,,,FF,,,,,,,,0.823,,,,,,,,,,,,,,,,,,,,,,60fee821d38b78e728a456ff,61036b02e074d6e537aaf697,2021-07-29_20h01.08.785,Simcolourproject_2stim_asymm_v5,2020.2.10,MacIntel,60,61025ae37ef11b136ea224fe,,,,,,,,,1745,-60,44,1,0,0,response7disk,,1,-13,6,1,0,0,rectangle,-13,6,1,0,0,-13,6,1,0,0,0,59,59,76,1,,,,,,,,
,,,,,,,,,,,,,FF,,,,,,,,0.902,,,,,,,,,,,,,,,,,,,,,,60fee821d38b78e728a456ff,61036b02e074d6e537aaf697,2021-07-29_20h01.08.785,Simcolourproject_2stim_asymm_v5,2020.2.10,MacIntel,60,61025ae37ef11b136ea224fe,,,,,,,,,4364,-82,48,1,0,0,response7disk,,1,-29,13,1,0,0,rectangle,-29,13,1,0,0,-29,13,1,0,0,0,60,60,81,1,,,,,,,,
,,,,,,,,,,,,,FF,,,,,,,,1.184,,,,,,,,,,,,,,,,,,,,,,60fee821d38b78e728a456ff,61036b02e074d6e537aaf697,2021-07-29_20h01.08.785,Simcolourproject_2stim_asymm_v5,2020.2.10,MacIntel,60,61025ae37ef11b136ea224fe,,,,,,,,,3778,-93,-61,1,0,0,response5disk,,2,-34,-1,1,0,0,rectangle,-34,-1,1,0,0,-34,-1,1,0,0,0,61,61,74,1,,,,,,,,
,,,,,,,,,,,,,FF,,,,,,,,1.487,,,,,,,,,,,,,,,,,,,,,,60fee821d38b78e728a456ff,61036b02e074d6e537aaf697,2021-07-29_20h01.08.785,Simcolourproject_2stim_asymm_v5,2020.2.10,MacIntel,60,61025ae37ef11b136ea224fe,,,,,,,,,3992,63,103,1,0,0,response1disk,,7,18,-5,1,0,0,rectangle,18,-5,1,0,0,18,-5,1,0,0,0,62,62,48,1,,,,,,,,
,,,,,,,,,,,,,FF,,,,,,,,0.738,,,,,,,,,,,,,,,,,,,,,,60fee821d38b78e728a456ff,61036b02e074d6e537aaf697,2021-07-29_20h01.08.785,Simcolourproject_2stim_asymm_v5,2020.2.10,MacIntel,60,61025ae37ef11b136ea224fe,,,,,,,,,433,79,134,1,0,0,response1disk,,7,19,2,1,0,0,rectangle,19,2,1,0,0,19,2,1,0,0,0,63,63,34,1,,,,,,,,
,,,,,,,,,,,,,FF,,,,,,,,0.795,,,,,,,,,,,,,,,,,,,,,,60fee821d38b78e728a456ff,61036b02e074d6e537aaf697,2021-07-29_20h01.08.785,Simcolourproject_2stim_asymm_v5,2020.2.10,MacIntel,60,61025ae37ef11b136ea224fe,,,,,,,,,3183,65,43,1,0,0,response1disk,,6,5,-14,1,0,0,rectangle,5,-14,1,0,0,5,-14,1,0,0,0,64,64,43,1,,,,,,,,
,,,,,,,,,,,,,FF,,,,,,,,0.69,,,,,,,,,,,,,,,,,,,,,,60fee821d38b78e728a456ff,61036b02e074d6e537aaf697,2021-07-29_20h01.08.785,Simcolourproject_2stim_asymm_v5,2020.2.10,MacIntel,60,61025ae37ef11b136ea224fe,,,,,,,,,3086,101,71,1,0,0,response1disk,,6,17,12,1,0,0,rectangle,17,12,1,0,0,17,12,1,0,0,0,65,65,89,1,,,,,,,,
,,,,,,,,,,,,,FF,,,,,,,,2.633,,,,,,,,,,,,,,,,,,,,,,60fee821d38b78e728a456ff,61036b02e074d6e537aaf697,2021-07-29_20h01.08.785,Simcolourproject_2stim_asymm_v5,2020.2.10,MacIntel,60,61025ae37ef11b136ea224fe,,,,,,,,,989,51,-122,1,0,0,response3disk,,4,-29,2,1,0,0,rectangle,-29,2,1,0,0,-29,2,1,0,0,0,66,66,129,1,,,,,,,,
,,,,,,,,,,,,,FF,,,,,,,,0.943,,,,,,,,,,,,,,,,,,,,,,60fee821d38b78e728a456ff,61036b02e074d6e537aaf697,2021-07-29_20h01.08.785,Simcolourproject_2stim_asymm_v5,2020.2.10,MacIntel,60,61025ae37ef11b136ea224fe,,,,,,,,,4276,49,-94,1,0,0,response3disk,,4,0,-4,1,0,0,rectangle,0,-4,1,0,0,0,-4,1,0,0,0,67,67,1,1,,,,,,,,
,,,,,,,,,,,,,FF,,,,,,,,0.736,,,,,,,,,,,,,,,,,,,,,,60fee821d38b78e728a456ff,61036b02e074d6e537aaf697,2021-07-29_20h01.08.785,Simcolourproject_2stim_asymm_v5,2020.2.10,MacIntel,60,61025ae37ef11b136ea224fe,,,,,,,,,4044,-73,-43,1,0,0,response5disk,,2,-22,-9,1,0,0,rectangle,-22,-9,1,0,0,-22,-9,1,0,0,0,68,68,40,1,,,,,,,,
,,,,,,,,,,,,,FF,,,,,,,,0.937,,,,,,,,,,,,,,,,,,,,,,60fee821d38b78e728a456ff,61036b02e074d6e537aaf697,2021-07-29_20h01.08.785,Simcolourproject_2stim_asymm_v5,2020.2.10,MacIntel,60,61025ae37ef11b136ea224fe,,,,,,,,,3564,-40,-106,1,0,0,response5disk,,3,-15,-2,1,0,0,rectangle,-15,-2,1,0,0,-15,-2,1,0,0,0,69,69,145,1,,,,,,,,
,,,,,,,,,,,,,FF,,,,,,,,0.594,,,,,,,,,,,,,,,,,,,,,,60fee821d38b78e728a456ff,61036b02e074d6e537aaf697,2021-07-29_20h01.08.785,Simcolourproject_2stim_asymm_v5,2020.2.10,MacIntel,60,61025ae37ef11b136ea224fe,,,,,,,,,3876,73,60,1,0,0,response1disk,,6,14,-7,1,0,0,rectangle,14,-7,1,0,0,14,-7,1,0,0,0,70,70,10,1,,,,,,,,
,,,,,,,,,,,,,FF,,,,,,,,1.086,,,,,,,,,,,,,,,,,,,,,,60fee821d38b78e728a456ff,61036b02e074d6e537aaf697,2021-07-29_20h01.08.785,Simcolourproject_2stim_asymm_v5,2020.2.10,MacIntel,60,61025ae37ef11b136ea224fe,,,,,,,,,3295,-115,-29,1,0,0,response5disk,,2,-11,-2,1,0,0,rectangle,-11,-2,1,0,0,-11,-2,1,0,0,0,71,71,26,1,,,,,,,,
,,,,,,,,,,,,,FF,,,,,,,,0.672,,,,,,,,,,,,,,,,,,,,,,60fee821d38b78e728a456ff,61036b02e074d6e537aaf697,2021-07-29_20h01.08.785,Simcolourproject_2stim_asymm_v5,2020.2.10,MacIntel,60,61025ae37ef11b136ea224fe,,,,,,,,,1247,76,-41,1,0,0,response3disk,,5,4,-7,1,0,0,rectangle,-106,63,1,0,0,-22,-12,1,0,0,0,72,72,61,1,,response7disk_3,TRUE,1,1,"[163,94,142,145,176,128,43,32,169,137,209,157,318,265,291,237,9,119,73,45]",2.176,rectangle
,,,,,,,,,,,,,FF,,,,,,,,0.999,,,,,,,,,,,,,,,,,,,,,,60fee821d38b78e728a456ff,61036b02e074d6e537aaf697,2021-07-29_20h01.08.785,Simcolourproject_2stim_asymm_v5,2020.2.10,MacIntel,60,61025ae37ef11b136ea224fe,,,,,,,,,916,93,-36,1,0,0,response3disk,,5,11,-16,1,0,0,rectangle,11,-16,1,0,0,11,-16,1,0,0,0,73,73,147,1,,,,,,,,
,,,,,,,,,,,,,FF,,,,,,,,0.995,,,,,,,,,,,,,,,,,,,,,,60fee821d38b78e728a456ff,61036b02e074d6e537aaf697,2021-07-29_20h01.08.785,Simcolourproject_2stim_asymm_v5,2020.2.10,MacIntel,60,61025ae37ef11b136ea224fe,,,,,,,,,2308,85,-34,1,0,0,response3disk,,5,27,-2,1,0,0,rectangle,27,-2,1,0,0,27,-2,1,0,0,0,74,74,39,1,,,,,,,,
,,,,,,,,,,,,,FF,,,,,,,,1.043,,,,,,,,,,,,,,,,,,,,,,60fee821d38b78e728a456ff,61036b02e074d6e537aaf697,2021-07-29_20h01.08.785,Simcolourproject_2stim_asymm_v5,2020.2.10,MacIntel,60,61025ae37ef11b136ea224fe,,,,,,,,,2782,-149,-71,1,0,0,response5disk,,2,-36,-18,1,0,0,rectangle,-36,-18,1,0,0,-36,-18,1,0,0,0,75,75,114,1,,,,,,,,
,,,,,,,,,,,,,FF,,,,,,,,0.841,,,,,,,,,,,,,,,,,,,,,,60fee821d38b78e728a456ff,61036b02e074d6e537aaf697,2021-07-29_20h01.08.785,Simcolourproject_2stim_asymm_v5,2020.2.10,MacIntel,60,61025ae37ef11b136ea224fe,,,,,,,,,2508,66,-33,1,0,0,response3disk,,5,12,-2,1,0,0,rectangle,12,-2,1,0,0,12,-2,1,0,0,0,76,76,29,1,,,,,,,,
,,,,,,,,,,,,,FF,,,,,,,,0.566,,,,,,,,,,,,,,,,,,,,,,60fee821d38b78e728a456ff,61036b02e074d6e537aaf697,2021-07-29_20h01.08.785,Simcolourproject_2stim_asymm_v5,2020.2.10,MacIntel,60,61025ae37ef11b136ea224fe,,,,,,,,,2530,74,-36,1,0,0,response3disk,,5,26,-16,1,0,0,rectangle,26,-16,1,0,0,26,-16,1,0,0,0,77,77,51,1,,,,,,,,
,,,,,,,,,,,,,FF,,,,,,,,0.858,,,,,,,,,,,,,,,,,,,,,,60fee821d38b78e728a456ff,61036b02e074d6e537aaf697,2021-07-29_20h01.08.785,Simcolourproject_2stim_asymm_v5,2020.2.10,MacIntel,60,61025ae37ef11b136ea224fe,,,,,,,,,443,-115,-42,1,0,0,response5disk,,2,-24,-15,1,0,0,rectangle,-24,-15,1,0,0,-24,-15,1,0,0,0,78,78,12,1,,,,,,,,
,,,,,,,,,,,,,FF,,,,,,,,1.119,,,,,,,,,,,,,,,,,,,,,,60fee821d38b78e728a456ff,61036b02e074d6e537aaf697,2021-07-29_20h01.08.785,Simcolourproject_2stim_asymm_v5,2020.2.10,MacIntel,60,61025ae37ef11b136ea224fe,,,,,,,,,3301,95,-80,1,0,0,response3disk,,5,-6,2,1,0,0,rectangle,-6,2,1,0,0,-6,2,1,0,0,0,79,79,135,1,,,,,,,,
,,,,,,,,,,,,,FF,,,,,,,,0.729,,,,,,,,,,,,,,,,,,,,,,60fee821d38b78e728a456ff,61036b02e074d6e537aaf697,2021-07-29_20h01.08.785,Simcolourproject_2stim_asymm_v5,2020.2.10,MacIntel,60,61025ae37ef11b136ea224fe,,,,,,,,,651,93,52,1,0,0,response1disk,,6,39,19,1,0,0,rectangle,39,19,1,0,0,39,19,1,0,0,0,80,80,69,1,,,,,,,,
,,,,,,,,,,,,,FF,,,,,,,,0.566,,,,,,,,,,,,,,,,,,,,,,60fee821d38b78e728a456ff,61036b02e074d6e537aaf697,2021-07-29_20h01.08.785,Simcolourproject_2stim_asymm_v5,2020.2.10,MacIntel,60,61025ae37ef11b136ea224fe,,,,,,,,,1851,62,34,1,0,0,response1disk,,6,15,0,1,0,0,rectangle,15,0,1,0,0,15,0,1,0,0,0,81,81,146,1,,,,,,,,
,,,,,,,,,,,,,FF,,,,,,,,1.379,,,,,,,,,,,,,,,,,,,,,,60fee821d38b78e728a456ff,61036b02e074d6e537aaf697,2021-07-29_20h01.08.785,Simcolourproject_2stim_asymm_v5,2020.2.10,MacIntel,60,61025ae37ef11b136ea224fe,,,,,,,,,2930,90,45,1,0,0,response1disk,,6,24,-4,1,0,0,rectangle,24,-4,1,0,0,24,-4,1,0,0,0,82,82,93,1,,,,,,,,
,,,,,,,,,,,,,FF,,,,,,,,0.788,,,,,,,,,,,,,,,,,,,,,,60fee821d38b78e728a456ff,61036b02e074d6e537aaf697,2021-07-29_20h01.08.785,Simcolourproject_2stim_asymm_v5,2020.2.10,MacIntel,60,61025ae37ef11b136ea224fe,,,,,,,,,2008,66,43,1,0,0,response1disk,,6,12,-8,1,0,0,rectangle,12,-8,1,0,0,12,-8,1,0,0,0,83,83,14,1,,,,,,,,
,,,,,,,,,,,,,FF,,,,,,,,0.69,,,,,,,,,,,,,,,,,,,,,,60fee821d38b78e728a456ff,61036b02e074d6e537aaf697,2021-07-29_20h01.08.785,Simcolourproject_2stim_asymm_v5,2020.2.10,MacIntel,60,61025ae37ef11b136ea224fe,,,,,,,,,389,68,29,1,0,0,response1disk,,6,13,-4,1,0,0,rectangle,13,-4,1,0,0,13,-4,1,0,0,0,84,84,79,1,,,,,,,,
,,,,,,,,,,,,,FF,,,,,,,,1.049,,,,,,,,,,,,,,,,,,,,,,60fee821d38b78e728a456ff,61036b02e074d6e537aaf697,2021-07-29_20h01.08.785,Simcolourproject_2stim_asymm_v5,2020.2.10,MacIntel,60,61025ae37ef11b136ea224fe,,,,,,,,,355,-53,-100,1,0,0,response5disk,,3,-21,-4,1,0,0,rectangle,-21,-4,1,0,0,-21,-4,1,0,0,0,85,85,141,1,,,,,,,,
,,,,,,,,,,,,,FF,,,,,,,,1.182,,,,,,,,,,,,,,,,,,,,,,60fee821d38b78e728a456ff,61036b02e074d6e537aaf697,2021-07-29_20h01.08.785,Simcolourproject_2stim_asymm_v5,2020.2.10,MacIntel,60,61025ae37ef11b136ea224fe,,,,,,,,,2497,113,56,1,0,0,response1disk,,6,33,0,1,0,0,rectangle,33,0,1,0,0,33,0,1,0,0,0,86,86,21,1,,,,,,,,
,,,,,,,,,,,,,FF,,,,,,,,0.762,,,,,,,,,,,,,,,,,,,,,,60fee821d38b78e728a456ff,61036b02e074d6e537aaf697,2021-07-29_20h01.08.785,Simcolourproject_2stim_asymm_v5,2020.2.10,MacIntel,60,61025ae37ef11b136ea224fe,,,,,,,,,4198,109,64,1,0,0,response1disk,,6,36,7,1,0,0,rectangle,36,7,1,0,0,36,7,1,0,0,0,87,87,22,1,,,,,,,,
,,,,,,,,,,,,,FF,,,,,,,,0.893,,,,,,,,,,,,,,,,,,,,,,60fee821d38b78e728a456ff,61036b02e074d6e537aaf697,2021-07-29_20h01.08.785,Simcolourproject_2stim_asymm_v5,2020.2.10,MacIntel,60,61025ae37ef11b136ea224fe,,,,,,,,,4188,-51,-126,1,0,0,response5disk,,3,-10,-12,1,0,0,rectangle,-10,-12,1,0,0,-10,-12,1,0,0,0,88,88,80,1,,,,,,,,
,,,,,,,,,,,,,FF,,,,,,,,0.87,,,,,,,,,,,,,,,,,,,,,,60fee821d38b78e728a456ff,61036b02e074d6e537aaf697,2021-07-29_20h01.08.785,Simcolourproject_2stim_asymm_v5,2020.2.10,MacIntel,60,61025ae37ef11b136ea224fe,,,,,,,,,4307,67,138,1,0,0,response1disk,,7,-2,12,1,0,0,rectangle,-2,12,1,0,0,-2,12,1,0,0,0,89,89,60,1,,,,,,,,
,,,,,,,,,,,,,FF,,,,,,,,1.135,,,,,,,,,,,,,,,,,,,,,,60fee821d38b78e728a456ff,61036b02e074d6e537aaf697,2021-07-29_20h01.08.785,Simcolourproject_2stim_asymm_v5,2020.2.10,MacIntel,60,61025ae37ef11b136ea224fe,,,,,,,,,81,30,-101,1,0,0,response3disk,,4,-25,-17,1,0,0,rectangle,-25,-17,1,0,0,-25,-17,1,0,0,0,90,90,41,1,,,,,,,,
,,,,,,,,,,,,,FF,,,,,,,,1.045,,,,,,,,,,,,,,,,,,,,,,60fee821d38b78e728a456ff,61036b02e074d6e537aaf697,2021-07-29_20h01.08.785,Simcolourproject_2stim_asymm_v5,2020.2.10,MacIntel,60,61025ae37ef11b136ea224fe,,,,,,,,,4347,-123,-53,1,0,0,response5disk,,2,-17,17,1,0,0,rectangle,-17,17,1,0,0,-17,17,1,0,0,0,91,91,92,1,,,,,,,,
,,,,,,,,,,,,,FF,,,,,,,,0.612,,,,,,,,,,,,,,,,,,,,,,60fee821d38b78e728a456ff,61036b02e074d6e537aaf697,2021-07-29_20h01.08.785,Simcolourproject_2stim_asymm_v5,2020.2.10,MacIntel,60,61025ae37ef11b136ea224fe,,,,,,,,,2955,-34,-106,1,0,0,response5disk,,3,-24,-12,1,0,0,rectangle,-24,-12,1,0,0,-24,-12,1,0,0,0,92,92,71,1,,,,,,,,
,,,,,,,,,,,,,FF,,,,,,,,0.646,,,,,,,,,,,,,,,,,,,,,,60fee821d38b78e728a456ff,61036b02e074d6e537aaf697,2021-07-29_20h01.08.785,Simcolourproject_2stim_asymm_v5,2020.2.10,MacIntel,60,61025ae37ef11b136ea224fe,,,,,,,,,1430,93,53,1,0,0,response1disk,,6,20,-17,1,0,0,rectangle,77,-42,1,0,0,27,-14,1,0,0,0,93,93,28,1,,response3disk_3,TRUE,5,5,"[163,94,142,145,176,128,43,32,169,137,209,157,318,265,291,237,9,119,73,45]",1.484,rectangle
,,,,,,,,,,,,,FF,,,,,,,,0.844,,,,,,,,,,,,,,,,,,,,,,60fee821d38b78e728a456ff,61036b02e074d6e537aaf697,2021-07-29_20h01.08.785,Simcolourproject_2stim_asymm_v5,2020.2.10,MacIntel,60,61025ae37ef11b136ea224fe,,,,,,,,,1467,-38,-100,1,0,0,response5disk,,3,-6,-14,1,0,0,rectangle,-6,-14,1,0,0,-6,-14,1,0,0,0,94,94,105,1,,,,,,,,
,,,,,,,,,,,,,FF,,,,,,,,0.541,,,,,,,,,,,,,,,,,,,,,,60fee821d38b78e728a456ff,61036b02e074d6e537aaf697,2021-07-29_20h01.08.785,Simcolourproject_2stim_asymm_v5,2020.2.10,MacIntel,60,61025ae37ef11b136ea224fe,,,,,,,,,2525,74,32,1,0,0,response1disk,,6,11,-3,1,0,0,rectangle,11,-3,1,0,0,11,-3,1,0,0,0,95,95,139,1,,,,,,,,
,,,,,,,,,,,,,FF,,,,,,,,0.722,,,,,,,,,,,,,,,,,,,,,,60fee821d38b78e728a456ff,61036b02e074d6e537aaf697,2021-07-29_20h01.08.785,Simcolourproject_2stim_asymm_v5,2020.2.10,MacIntel,60,61025ae37ef11b136ea224fe,,,,,,,,,2192,77,40,1,0,0,response1disk,,6,31,-10,1,0,0,rectangle,31,-10,1,0,0,31,-10,1,0,0,0,96,96,65,1,,,,,,,,
,,,,,,,,,,,,,FF,,,,,,,,0.904,,,,,,,,,,,,,,,,,,,,,,60fee821d38b78e728a456ff,61036b02e074d6e537aaf697,2021-07-29_20h01.08.785,Simcolourproject_2stim_asymm_v5,2020.2.10,MacIntel,60,61025ae37ef11b136ea224fe,,,,,,,,,3237,-59,-127,1,0,0,response5disk,,3,-12,7,1,0,0,rectangle,-12,7,1,0,0,-12,7,1,0,0,0,97,97,4,1,,,,,,,,
,,,,,,,,,,,,,FF,,,,,,,,0.645,,,,,,,,,,,,,,,,,,,,,,60fee821d38b78e728a456ff,61036b02e074d6e537aaf697,2021-07-29_20h01.08.785,Simcolourproject_2stim_asymm_v5,2020.2.10,MacIntel,60,61025ae37ef11b136ea224fe,,,,,,,,,1226,-41,-82,1,0,0,response5disk,,3,-29,-14,1,0,0,rectangle,-29,-14,1,0,0,-29,-14,1,0,0,0,98,98,133,1,,,,,,,,
,,,,,,,,,,,,,FF,,,,,,,,0.932,,,,,,,,,,,,,,,,,,,,,,60fee821d38b78e728a456ff,61036b02e074d6e537aaf697,2021-07-29_20h01.08.785,Simcolourproject_2stim_asymm_v5,2020.2.10,MacIntel,60,61025ae37ef11b136ea224fe,,,,,,,,,4267,-40,-97,1,0,0,response5disk,,3,-7,3,1,0,0,rectangle,-7,3,1,0,0,-7,3,1,0,0,0,99,99,86,1,,,,,,,,
,,,,,,,,,,,,,FF,,,,,,,,0.869,,,,,,,,,,,,,,,,,,,,,,60fee821d38b78e728a456ff,61036b02e074d6e537aaf697,2021-07-29_20h01.08.785,Simcolourproject_2stim_asymm_v5,2020.2.10,MacIntel,60,61025ae37ef11b136ea224fe,,,,,,,,,2411,43,-108,1,0,0,response3disk,,4,-10,-9,1,0,0,rectangle,-10,-9,1,0,0,-10,-9,1,0,0,0,100,100,37,1,,,,,,,,
,,,,,,,,,,,,,FF,,,,,,,,0.84,,,,,,,,,,,,,,,,,,,,,,60fee821d38b78e728a456ff,61036b02e074d6e537aaf697,2021-07-29_20h01.08.785,Simcolourproject_2stim_asymm_v5,2020.2.10,MacIntel,60,61025ae37ef11b136ea224fe,,,,,,,,,4220,51,-85,1,0,0,response3disk,,4,-6,-6,1,0,0,rectangle,-6,-6,1,0,0,-6,-6,1,0,0,0,101,101,142,1,,,,,,,,
,,,,,,,,,,,,,FF,,,,,,,,0.902,,,,,,,,,,,,,,,,,,,,,,60fee821d38b78e728a456ff,61036b02e074d6e537aaf697,2021-07-29_20h01.08.785,Simcolourproject_2stim_asymm_v5,2020.2.10,MacIntel,60,61025ae37ef11b136ea224fe,,,,,,,,,3826,64,124,1,0,0,response1disk,,7,11,6,1,0,0,rectangle,11,6,1,0,0,11,6,1,0,0,0,102,102,83,1,,,,,,,,
,,,,,,,,,,,,,FF,,,,,,,,1.035,,,,,,,,,,,,,,,,,,,,,,60fee821d38b78e728a456ff,61036b02e074d6e537aaf697,2021-07-29_20h01.08.785,Simcolourproject_2stim_asymm_v5,2020.2.10,MacIntel,60,61025ae37ef11b136ea224fe,,,,,,,,,2726,-56,-113,1,0,0,response5disk,,3,-18,-17,1,0,0,rectangle,-18,-17,1,0,0,-18,-17,1,0,0,0,103,103,124,1,,,,,,,,
,,,,,,,,,,,,,FF,,,,,,,,1.03,,,,,,,,,,,,,,,,,,,,,,60fee821d38b78e728a456ff,61036b02e074d6e537aaf697,2021-07-29_20h01.08.785,Simcolourproject_2stim_asymm_v5,2020.2.10,MacIntel,60,61025ae37ef11b136ea224fe,,,,,,,,,2914,94,56,1,0,0,response1disk,,6,38,14,1,0,0,rectangle,38,14,1,0,0,38,14,1,0,0,0,104,104,95,1,,,,,,,,
,,,,,,,,,,,,,FF,,,,,,,,0.915,,,,,,,,,,,,,,,,,,,,,,60fee821d38b78e728a456ff,61036b02e074d6e537aaf697,2021-07-29_20h01.08.785,Simcolourproject_2stim_asymm_v5,2020.2.10,MacIntel,60,61025ae37ef11b136ea224fe,,,,,,,,,1281,38,89,1,0,0,response1disk,,7,21,7,1,0,0,rectangle,21,7,1,0,0,21,7,1,0,0,0,105,105,97,1,,,,,,,,
,,,,,,,,,,,,,FF,,,,,,,,0.762,,,,,,,,,,,,,,,,,,,,,,60fee821d38b78e728a456ff,61036b02e074d6e537aaf697,2021-07-29_20h01.08.785,Simcolourproject_2stim_asymm_v5,2020.2.10,MacIntel,60,61025ae37ef11b136ea224fe,,,,,,,,,2977,34,77,1,0,0,response1disk,,7,23,5,1,0,0,rectangle,23,5,1,0,0,23,5,1,0,0,0,106,106,154,1,,,,,,,,
,,,,,,,,,,,,,FF,,,,,,,,0.973,,,,,,,,,,,,,,,,,,,,,,60fee821d38b78e728a456ff,61036b02e074d6e537aaf697,2021-07-29_20h01.08.785,Simcolourproject_2stim_asymm_v5,2020.2.10,MacIntel,60,61025ae37ef11b136ea224fe,,,,,,,,,1597,-74,47,1,0,0,response7disk,,1,-29,-17,1,0,0,rectangle,-29,-17,1,0,0,-29,-17,1,0,0,0,107,107,110,1,,,,,,,,
,,,,,,,,,,,,,FF,,,,,,,,0.895,,,,,,,,,,,,,,,,,,,,,,60fee821d38b78e728a456ff,61036b02e074d6e537aaf697,2021-07-29_20h01.08.785,Simcolourproject_2stim_asymm_v5,2020.2.10,MacIntel,60,61025ae37ef11b136ea224fe,,,,,,,,,2470,49,130,1,0,0,response1disk,,7,-1,10,1,0,0,rectangle,-1,10,1,0,0,-1,10,1,0,0,0,108,108,159,1,,,,,,,,
,,,,,,,,,,,,,FF,,,,,,,,0.657,,,,,,,,,,,,,,,,,,,,,,60fee821d38b78e728a456ff,61036b02e074d6e537aaf697,2021-07-29_20h01.08.785,Simcolourproject_2stim_asymm_v5,2020.2.10,MacIntel,60,61025ae37ef11b136ea224fe,,,,,,,,,3078,60,100,1,0,0,response1disk,,7,19,-5,1,0,0,rectangle,19,-5,1,0,0,19,-5,1,0,0,0,109,109,44,1,,,,,,,,
,,,,,,,,,,,,,FF,,,,,,,,0.95,,,,,,,,,,,,,,,,,,,,,,60fee821d38b78e728a456ff,61036b02e074d6e537aaf697,2021-07-29_20h01.08.785,Simcolourproject_2stim_asymm_v5,2020.2.10,MacIntel,60,61025ae37ef11b136ea224fe,,,,,,,,,2367,105,-64,1,0,0,response3disk,,5,3,-3,1,0,0,rectangle,3,-3,1,0,0,3,-3,1,0,0,0,110,110,68,1,,,,,,,,
,,,,,,,,,,,,,FF,,,,,,,,0.738,,,,,,,,,,,,,,,,,,,,,,60fee821d38b78e728a456ff,61036b02e074d6e537aaf697,2021-07-29_20h01.08.785,Simcolourproject_2stim_asymm_v5,2020.2.10,MacIntel,60,61025ae37ef11b136ea224fe,,,,,,,,,4018,58,80,1,0,0,response1disk,,7,32,2,1,0,0,rectangle,32,2,1,0,0,32,2,1,0,0,0,111,111,123,1,,,,,,,,
,,,,,,,,,,,,,FF,,,,,,,,0.69,,,,,,,,,,,,,,,,,,,,,,60fee821d38b78e728a456ff,61036b02e074d6e537aaf697,2021-07-29_20h01.08.785,Simcolourproject_2stim_asymm_v5,2020.2.10,MacIntel,60,61025ae37ef11b136ea224fe,,,,,,,,,3466,26,56,1,0,0,response1disk,,7,26,10,1,0,0,rectangle,26,10,1,0,0,26,10,1,0,0,0,112,112,56,1,,,,,,,,
,,,,,,,,,,,,,FF,,,,,,,,0.722,,,,,,,,,,,,,,,,,,,,,,60fee821d38b78e728a456ff,61036b02e074d6e537aaf697,2021-07-29_20h01.08.785,Simcolourproject_2stim_asymm_v5,2020.2.10,MacIntel,60,61025ae37ef11b136ea224fe,,,,,,,,,1339,30,57,1,0,0,response1disk,,7,29,8,1,0,0,rectangle,29,8,1,0,0,29,8,1,0,0,0,113,113,91,1,,,,,,,,
,,,,,,,,,,,,,FF,,,,,,,,1.208,,,,,,,,,,,,,,,,,,,,,,60fee821d38b78e728a456ff,61036b02e074d6e537aaf697,2021-07-29_20h01.08.785,Simcolourproject_2stim_asymm_v5,2020.2.10,MacIntel,60,61025ae37ef11b136ea224fe,,,,,,,,,1007,51,94,1,0,0,response1disk,,7,31,7,1,0,0,rectangle,31,7,1,0,0,31,7,1,0,0,0,114,114,108,1,,,,,,,,
,,,,,,,,,,,,,FF,,,,,,,,1.11,,,,,,,,,,,,,,,,,,,,,,60fee821d38b78e728a456ff,61036b02e074d6e537aaf697,2021-07-29_20h01.08.785,Simcolourproject_2stim_asymm_v5,2020.2.10,MacIntel,60,61025ae37ef11b136ea224fe,,,,,,,,,3235,73,-61,1,0,0,response3disk,,5,-27,9,1,0,0,rectangle,-27,9,1,0,0,-27,9,1,0,0,0,115,115,78,1,,,,,,,,
,,,,,,,,,,,,,FF,,,,,,,,0.777,,,,,,,,,,,,,,,,,,,,,,60fee821d38b78e728a456ff,61036b02e074d6e537aaf697,2021-07-29_20h01.08.785,Simcolourproject_2stim_asymm_v5,2020.2.10,MacIntel,60,61025ae37ef11b136ea224fe,,,,,,,,,2474,106,-56,1,0,0,response3disk,,5,19,-11,1,0,0,rectangle,19,-11,1,0,0,19,-11,1,0,0,0,116,116,137,1,,,,,,,,
,,,,,,,,,,,,,FF,,,,,,,,1.297,,,,,,,,,,,,,,,,,,,,,,60fee821d38b78e728a456ff,61036b02e074d6e537aaf697,2021-07-29_20h01.08.785,Simcolourproject_2stim_asymm_v5,2020.2.10,MacIntel,60,61025ae37ef11b136ea224fe,,,,,,,,,1605,34,-102,1,0,0,response3disk,,4,-4,-7,1,0,0,rectangle,-4,-7,1,0,0,-4,-7,1,0,0,0,117,117,33,1,,,,,,,,
,,,,,,,,,,,,,FF,,,,,,,,0.804,,,,,,,,,,,,,,,,,,,,,,60fee821d38b78e728a456ff,61036b02e074d6e537aaf697,2021-07-29_20h01.08.785,Simcolourproject_2stim_asymm_v5,2020.2.10,MacIntel,60,61025ae37ef11b136ea224fe,,,,,,,,,3939,-44,-105,1,0,0,response5disk,,3,3,-5,1,0,0,rectangle,-43,-96,1,0,0,-2,0,1,0,0,0,118,118,98,1,,response5disk_3,TRUE,3,3,"[163,94,142,145,176,128,43,32,169,137,209,157,318,265,291,237,9,119,73,45]",1.516,rectangle
,,,,,,,,,,,,,FF,,,,,,,,0.53,,,,,,,,,,,,,,,,,,,,,,60fee821d38b78e728a456ff,61036b02e074d6e537aaf697,2021-07-29_20h01.08.785,Simcolourproject_2stim_asymm_v5,2020.2.10,MacIntel,60,61025ae37ef11b136ea224fe,,,,,,,,,2622,-45,-78,1,0,0,response5disk,,3,-24,-18,1,0,0,rectangle,-24,-18,1,0,0,-24,-18,1,0,0,0,119,119,5,1,,,,,,,,
,,,,,,,,,,,,,FF,,,,,,,,0.477,,,,,,,,,,,,,,,,,,,,,,60fee821d38b78e728a456ff,61036b02e074d6e537aaf697,2021-07-29_20h01.08.785,Simcolourproject_2stim_asymm_v5,2020.2.10,MacIntel,60,61025ae37ef11b136ea224fe,,,,,,,,,945,67,36,1,0,0,response1disk,,6,21,2,1,0,0,rectangle,21,2,1,0,0,21,2,1,0,0,0,120,120,72,1,,,,,,,,
,,,,,,,,,,,,,FF,,,,,,,,0.769,,,,,,,,,,,,,,,,,,,,,,60fee821d38b78e728a456ff,61036b02e074d6e537aaf697,2021-07-29_20h01.08.785,Simcolourproject_2stim_asymm_v5,2020.2.10,MacIntel,60,61025ae37ef11b136ea224fe,,,,,,,,,2025,-103,63,1,0,0,response7disk,,1,-27,7,1,0,0,rectangle,-27,7,1,0,0,-27,7,1,0,0,0,121,121,66,1,,,,,,,,
,,,,,,,,,,,,,FF,,,,,,,,0.497,,,,,,,,,,,,,,,,,,,,,,60fee821d38b78e728a456ff,61036b02e074d6e537aaf697,2021-07-29_20h01.08.785,Simcolourproject_2stim_asymm_v5,2020.2.10,MacIntel,60,61025ae37ef11b136ea224fe,,,,,,,,,1541,79,89,1,0,0,response1disk,,7,-5,14,1,0,0,rectangle,-5,14,1,0,0,-5,14,1,0,0,0,122,122,150,1,,,,,,,,
,,,,,,,,,,,,,FF,,,,,,,,0.713,,,,,,,,,,,,,,,,,,,,,,60fee821d38b78e728a456ff,61036b02e074d6e537aaf697,2021-07-29_20h01.08.785,Simcolourproject_2stim_asymm_v5,2020.2.10,MacIntel,60,61025ae37ef11b136ea224fe,,,,,,,,,299,80,91,1,0,0,response1disk,,7,21,13,1,0,0,rectangle,21,13,1,0,0,21,13,1,0,0,0,123,123,57,1,,,,,,,,
,,,,,,,,,,,,,FF,,,,,,,,0.524,,,,,,,,,,,,,,,,,,,,,,60fee821d38b78e728a456ff,61036b02e074d6e537aaf697,2021-07-29_20h01.08.785,Simcolourproject_2stim_asymm_v5,2020.2.10,MacIntel,60,61025ae37ef11b136ea224fe,,,,,,,,,3372,70,55,1,0,0,response1disk,,6,5,16,1,0,0,rectangle,5,16,1,0,0,5,16,1,0,0,0,124,124,31,1,,,,,,,,
,,,,,,,,,,,,,FF,,,,,,,,0.421,,,,,,,,,,,,,,,,,,,,,,60fee821d38b78e728a456ff,61036b02e074d6e537aaf697,2021-07-29_20h01.08.785,Simcolourproject_2stim_asymm_v5,2020.2.10,MacIntel,60,61025ae37ef11b136ea224fe,,,,,,,,,4038,59,69,1,0,0,response1disk,,7,26,-1,1,0,0,rectangle,26,-1,1,0,0,26,-1,1,0,0,0,125,125,13,1,,,,,,,,
,,,,,,,,,,,,,FF,,,,,,,,0.611,,,,,,,,,,,,,,,,,,,,,,60fee821d38b78e728a456ff,61036b02e074d6e537aaf697,2021-07-29_20h01.08.785,Simcolourproject_2stim_asymm_v5,2020.2.10,MacIntel,60,61025ae37ef11b136ea224fe,,,,,,,,,1088,48,105,1,0,0,response1disk,,7,26,15,1,0,0,rectangle,26,15,1,0,0,26,15,1,0,0,0,126,126,140,1,,,,,,,,
,,,,,,,,,,,,,FF,,,,,,,,0.59,,,,,,,,,,,,,,,,,,,,,,60fee821d38b78e728a456ff,61036b02e074d6e537aaf697,2021-07-29_20h01.08.785,Simcolourproject_2stim_asymm_v5,2020.2.10,MacIntel,60,61025ae37ef11b136ea224fe,,,,,,,,,150,26,44,1,0,0,response1disk,,7,21,-4,1,0,0,rectangle,-142,65,1,0,0,-3,2,1,0,0,0,127,127,58,1,,response7disk_3,TRUE,1,1,"[163,94,142,145,176,128,43,32,169,137,209,157,318,265,291,237,9,119,73,45]",1.881,rectangle
,,,,,,,,,,,,,FF,,,,,,,,1.025,,,,,,,,,,,,,,,,,,,,,,60fee821d38b78e728a456ff,61036b02e074d6e537aaf697,2021-07-29_20h01.08.785,Simcolourproject_2stim_asymm_v5,2020.2.10,MacIntel,60,61025ae37ef11b136ea224fe,,,,,,,,,1448,-39,-87,1,0,0,response5disk,,3,-31,-2,1,0,0,rectangle,-31,-2,1,0,0,-31,-2,1,0,0,0,128,128,96,1,,,,,,,,
,,,,,,,,,,,,,FF,,,,,,,,0.623,,,,,,,,,,,,,,,,,,,,,,60fee821d38b78e728a456ff,61036b02e074d6e537aaf697,2021-07-29_20h01.08.785,Simcolourproject_2stim_asymm_v5,2020.2.10,MacIntel,60,61025ae37ef11b136ea224fe,,,,,,,,,727,-34,-90,1,0,0,response5disk,,3,-14,7,1,0,0,rectangle,-14,7,1,0,0,-14,7,1,0,0,0,129,129,46,1,,,,,,,,
,,,,,,,,,,,,,FF,,,,,,,,1.009,,,,,,,,,,,,,,,,,,,,,,60fee821d38b78e728a456ff,61036b02e074d6e537aaf697,2021-07-29_20h01.08.785,Simcolourproject_2stim_asymm_v5,2020.2.10,MacIntel,60,61025ae37ef11b136ea224fe,,,,,,,,,4246,96,-65,1,0,0,response3disk,,5,-35,6,1,0,0,rectangle,-35,6,1,0,0,-35,6,1,0,0,0,130,130,100,1,,,,,,,,
,,,,,,,,,,,,,FF,,,,,,,,0.588,,,,,,,,,,,,,,,,,,,,,,60fee821d38b78e728a456ff,61036b02e074d6e537aaf697,2021-07-29_20h01.08.785,Simcolourproject_2stim_asymm_v5,2020.2.10,MacIntel,60,61025ae37ef11b136ea224fe,,,,,,,,,378,30,80,1,0,0,response1disk,,7,-3,2,1,0,0,rectangle,-3,2,1,0,0,-3,2,1,0,0,0,131,131,148,1,,,,,,,,
,,,,,,,,,,,,,FF,,,,,,,,0.529,,,,,,,,,,,,,,,,,,,,,,60fee821d38b78e728a456ff,61036b02e074d6e537aaf697,2021-07-29_20h01.08.785,Simcolourproject_2stim_asymm_v5,2020.2.10,MacIntel,60,61025ae37ef11b136ea224fe,,,,,,,,,1426,-42,-86,1,0,0,response5disk,,3,8,-5,1,0,0,rectangle,8,-5,1,0,0,8,-5,1,0,0,0,132,132,36,1,,,,,,,,
,,,,,,,,,,,,,FF,,,,,,,,0.747,,,,,,,,,,,,,,,,,,,,,,60fee821d38b78e728a456ff,61036b02e074d6e537aaf697,2021-07-29_20h01.08.785,Simcolourproject_2stim_asymm_v5,2020.2.10,MacIntel,60,61025ae37ef11b136ea224fe,,,,,,,,,2507,-38,-93,1,0,0,response5disk,,3,-15,-1,1,0,0,rectangle,-15,-1,1,0,0,-15,-1,1,0,0,0,133,133,109,1,,,,,,,,
,,,,,,,,,,,,,FF,,,,,,,,0.787,,,,,,,,,,,,,,,,,,,,,,60fee821d38b78e728a456ff,61036b02e074d6e537aaf697,2021-07-29_20h01.08.785,Simcolourproject_2stim_asymm_v5,2020.2.10,MacIntel,60,61025ae37ef11b136ea224fe,,,,,,,,,3055,-95,-35,1,0,0,response5disk,,2,-21,13,1,0,0,rectangle,-21,13,1,0,0,-21,13,1,0,0,0,134,134,99,1,,,,,,,,
,,,,,,,,,,,,,FF,,,,,,,,0.577,,,,,,,,,,,,,,,,,,,,,,60fee821d38b78e728a456ff,61036b02e074d6e537aaf697,2021-07-29_20h01.08.785,Simcolourproject_2stim_asymm_v5,2020.2.10,MacIntel,60,61025ae37ef11b136ea224fe,,,,,,,,,1987,87,58,1,0,0,response1disk,,6,26,11,1,0,0,rectangle,26,11,1,0,0,26,11,1,0,0,0,135,135,107,1,,,,,,,,
,,,,,,,,,,,,,FF,,,,,,,,0.698,,,,,,,,,,,,,,,,,,,,,,60fee821d38b78e728a456ff,61036b02e074d6e537aaf697,2021-07-29_20h01.08.785,Simcolourproject_2stim_asymm_v5,2020.2.10,MacIntel,60,61025ae37ef11b136ea224fe,,,,,,,,,3645,72,47,1,0,0,response1disk,,6,28,8,1,0,0,rectangle,-95,-51,1,0,0,20,0,1,0,0,0,136,136,3,1,,response5disk_3,TRUE,2,2,"[163,94,142,145,176,128,43,32,169,137,209,157,318,265,291,237,9,119,73,45]",1.517,rectangle
,,,,,,,,,,,,,FF,,,,,,,,1.758,,,,,,,,,,,,,,,,,,,,,,60fee821d38b78e728a456ff,61036b02e074d6e537aaf697,2021-07-29_20h01.08.785,Simcolourproject_2stim_asymm_v5,2020.2.10,MacIntel,60,61025ae37ef11b136ea224fe,,,,,,,,,2412,41,-104,1,0,0,response3disk,,4,5,-5,1,0,0,rectangle,5,-5,1,0,0,5,-5,1,0,0,0,137,137,144,1,,,,,,,,
,,,,,,,,,,,,,FF,,,,,,,,0.836,,,,,,,,,,,,,,,,,,,,,,60fee821d38b78e728a456ff,61036b02e074d6e537aaf697,2021-07-29_20h01.08.785,Simcolourproject_2stim_asymm_v5,2020.2.10,MacIntel,60,61025ae37ef11b136ea224fe,,,,,,,,,1023,-69,-47,1,0,0,response5disk,,2,-25,-18,1,0,0,rectangle,-25,-18,1,0,0,-25,-18,1,0,0,0,138,138,125,1,,,,,,,,
,,,,,,,,,,,,,FF,,,,,,,,0.556,,,,,,,,,,,,,,,,,,,,,,60fee821d38b78e728a456ff,61036b02e074d6e537aaf697,2021-07-29_20h01.08.785,Simcolourproject_2stim_asymm_v5,2020.2.10,MacIntel,60,61025ae37ef11b136ea224fe,,,,,,,,,2987,-44,-31,1,0,0,response5disk,,2,-7,-21,1,0,0,rectangle,-7,-21,1,0,0,-7,-21,1,0,0,0,139,139,19,1,,,,,,,,
,,,,,,,,,,,,,FF,,,,,,,,1.418,,,,,,,,,,,,,,,,,,,,,,60fee821d38b78e728a456ff,61036b02e074d6e537aaf697,2021-07-29_20h01.08.785,Simcolourproject_2stim_asymm_v5,2020.2.10,MacIntel,60,61025ae37ef11b136ea224fe,,,,,,,,,1215,-107,-51,1,0,0,response5disk,,2,-38,6,1,0,0,rectangle,-38,6,1,0,0,-38,6,1,0,0,0,140,140,90,1,,,,,,,,
,,,,,,,,,,,,,FF,,,,,,,,0.691,,,,,,,,,,,,,,,,,,,,,,60fee821d38b78e728a456ff,61036b02e074d6e537aaf697,2021-07-29_20h01.08.785,Simcolourproject_2stim_asymm_v5,2020.2.10,MacIntel,60,61025ae37ef11b136ea224fe,,,,,,,,,1533,-67,-66,1,0,0,response5disk,,2,-24,-13,1,0,0,rectangle,36,-119,1,0,0,-25,16,1,0,0,0,141,141,119,1,,response3disk_3,TRUE,4,4,"[163,94,142,145,176,128,43,32,169,137,209,157,318,265,291,237,9,119,73,45]",1.426,rectangle
,,,,,,,,,,,,,FF,,,,,,,,0.713,,,,,,,,,,,,,,,,,,,,,,60fee821d38b78e728a456ff,61036b02e074d6e537aaf697,2021-07-29_20h01.08.785,Simcolourproject_2stim_asymm_v5,2020.2.10,MacIntel,60,61025ae37ef11b136ea224fe,,,,,,,,,3444,104,-45,1,0,0,response3disk,,5,27,-8,1,0,0,rectangle,27,-8,1,0,0,27,-8,1,0,0,0,142,142,27,1,,,,,,,,
,,,,,,,,,,,,,FF,,,,,,,,1.028,,,,,,,,,,,,,,,,,,,,,,60fee821d38b78e728a456ff,61036b02e074d6e537aaf697,2021-07-29_20h01.08.785,Simcolourproject_2stim_asymm_v5,2020.2.10,MacIntel,60,61025ae37ef11b136ea224fe,,,,,,,,,3623,-53,-99,1,0,0,response5disk,,3,8,21,1,0,0,rectangle,8,21,1,0,0,8,21,1,0,0,0,143,143,143,1,,,,,,,,
,,,,,,,,,,,,,FF,,,,,,,,0.81,,,,,,,,,,,,,,,,,,,,,,60fee821d38b78e728a456ff,61036b02e074d6e537aaf697,2021-07-29_20h01.08.785,Simcolourproject_2stim_asymm_v5,2020.2.10,MacIntel,60,61025ae37ef11b136ea224fe,,,,,,,,,4243,42,76,1,0,0,response1disk,,7,22,17,1,0,0,rectangle,88,-53,1,0,0,25,-1,1,0,0,0,144,144,7,1,,response3disk_3,TRUE,5,5,"[163,94,142,145,176,128,43,32,169,137,209,157,318,265,291,237,9,119,73,45]",1.299,rectangle
,,,,,,,,,,,,,FF,,,,,,,,0.917,,,,,,,,,,,,,,,,,,,,,,60fee821d38b78e728a456ff,61036b02e074d6e537aaf697,2021-07-29_20h01.08.785,Simcolourproject_2stim_asymm_v5,2020.2.10,MacIntel,60,61025ae37ef11b136ea224fe,,,,,,,,,1897,-74,-44,1,0,0,response5disk,,2,-18,-17,1,0,0,rectangle,-18,-17,1,0,0,-18,-17,1,0,0,0,145,145,23,1,,,,,,,,
,,,,,,,,,,,,,FF,,,,,,,,0.751,,,,,,,,,,,,,,,,,,,,,,60fee821d38b78e728a456ff,61036b02e074d6e537aaf697,2021-07-29_20h01.08.785,Simcolourproject_2stim_asymm_v5,2020.2.10,MacIntel,60,61025ae37ef11b136ea224fe,,,,,,,,,2068,59,90,1,0,0,response1disk,,7,27,18,1,0,0,rectangle,27,18,1,0,0,27,18,1,0,0,0,146,146,128,1,,,,,,,,
,,,,,,,,,,,,,FF,,,,,,,,0.73,,,,,,,,,,,,,,,,,,,,,,60fee821d38b78e728a456ff,61036b02e074d6e537aaf697,2021-07-29_20h01.08.785,Simcolourproject_2stim_asymm_v5,2020.2.10,MacIntel,60,61025ae37ef11b136ea224fe,,,,,,,,,791,25,51,1,0,0,response1disk,,7,25,6,1,0,0,rectangle,25,6,1,0,0,25,6,1,0,0,0,147,147,112,1,,,,,,,,
,,,,,,,,,,,,,FF,,,,,,,,0.597,,,,,,,,,,,,,,,,,,,,,,60fee821d38b78e728a456ff,61036b02e074d6e537aaf697,2021-07-29_20h01.08.785,Simcolourproject_2stim_asymm_v5,2020.2.10,MacIntel,60,61025ae37ef11b136ea224fe,,,,,,,,,1514,47,58,1,0,0,response1disk,,7,39,5,1,0,0,rectangle,39,5,1,0,0,39,5,1,0,0,0,148,148,47,1,,,,,,,,
,,,,,,,,,,,,,FF,,,,,,,,0.654,,,,,,,,,,,,,,,,,,,,,,60fee821d38b78e728a456ff,61036b02e074d6e537aaf697,2021-07-29_20h01.08.785,Simcolourproject_2stim_asymm_v5,2020.2.10,MacIntel,60,61025ae37ef11b136ea224fe,,,,,,,,,2238,65,43,1,0,0,response1disk,,6,32,7,1,0,0,rectangle,32,7,1,0,0,32,7,1,0,0,0,149,149,16,1,,,,,,,,
,,,,,,,,,,,,,FF,,,,,,,,0.89,,,,,,,,,,,,,,,,,,,,,,60fee821d38b78e728a456ff,61036b02e074d6e537aaf697,2021-07-29_20h01.08.785,Simcolourproject_2stim_asymm_v5,2020.2.10,MacIntel,60,61025ae37ef11b136ea224fe,,,,,,,,,4127,68,138,1,0,0,response1disk,,7,2,4,1,0,0,rectangle,2,4,1,0,0,2,4,1,0,0,0,150,150,64,1,,,,,,,,
,,,,,,,,,,,,,FF,,,,,,,,0.758,,,,,,,,,,,,,,,,,,,,,,60fee821d38b78e728a456ff,61036b02e074d6e537aaf697,2021-07-29_20h01.08.785,Simcolourproject_2stim_asymm_v5,2020.2.10,MacIntel,60,61025ae37ef11b136ea224fe,,,,,,,,,3863,33,74,1,0,0,response1disk,,7,17,7,1,0,0,rectangle,17,7,1,0,0,17,7,1,0,0,0,151,151,20,1,,,,,,,,
,,,,,,,,,,,,,FF,,,,,,,,0.675,,,,,,,,,,,,,,,,,,,,,,60fee821d38b78e728a456ff,61036b02e074d6e537aaf697,2021-07-29_20h01.08.785,Simcolourproject_2stim_asymm_v5,2020.2.10,MacIntel,60,61025ae37ef11b136ea224fe,,,,,,,,,762,35,79,1,0,0,response1disk,,7,20,3,1,0,0,rectangle,20,3,1,0,0,20,3,1,0,0,0,152,152,104,1,,,,,,,,
,,,,,,,,,,,,,FF,,,,,,,,0.477,,,,,,,,,,,,,,,,,,,,,,60fee821d38b78e728a456ff,61036b02e074d6e537aaf697,2021-07-29_20h01.08.785,Simcolourproject_2stim_asymm_v5,2020.2.10,MacIntel,60,61025ae37ef11b136ea224fe,,,,,,,,,943,51,72,1,0,0,response1disk,,7,31,0,1,0,0,rectangle,31,0,1,0,0,31,0,1,0,0,0,153,153,0,1,,,,,,,,
,,,,,,,,,,,,,FF,,,,,,,,0.579,,,,,,,,,,,,,,,,,,,,,,60fee821d38b78e728a456ff,61036b02e074d6e537aaf697,2021-07-29_20h01.08.785,Simcolourproject_2stim_asymm_v5,2020.2.10,MacIntel,60,61025ae37ef11b136ea224fe,,,,,,,,,1770,37,64,1,0,0,response1disk,,7,35,4,1,0,0,rectangle,35,4,1,0,0,35,4,1,0,0,0,154,154,117,1,,,,,,,,
,,,,,,,,,,,,,FF,,,,,,,,0.45,,,,,,,,,,,,,,,,,,,,,,60fee821d38b78e728a456ff,61036b02e074d6e537aaf697,2021-07-29_20h01.08.785,Simcolourproject_2stim_asymm_v5,2020.2.10,MacIntel,60,61025ae37ef11b136ea224fe,,,,,,,,,3033,46,77,1,0,0,response1disk,,7,32,6,1,0,0,rectangle,32,6,1,0,0,32,6,1,0,0,0,155,155,127,1,,,,,,,,
,,,,,,,,,,,,,FF,,,,,,,,0.722,,,,,,,,,,,,,,,,,,,,,,60fee821d38b78e728a456ff,61036b02e074d6e537aaf697,2021-07-29_20h01.08.785,Simcolourproject_2stim_asymm_v5,2020.2.10,MacIntel,60,61025ae37ef11b136ea224fe,,,,,,,,,4050,40,89,1,0,0,response1disk,,7,39,2,1,0,0,rectangle,85,70,1,0,0,-9,4,1,0,0,0,156,156,25,1,,response1disk_3,TRUE,6,6,"[163,94,142,145,176,128,43,32,169,137,209,157,318,265,291,237,9,119,73,45]",1.403,rectangle
,,,,,,,,,,,,,FF,,,,,,,,1.296,,,,,,,,,,,,,,,,,,,,,,60fee821d38b78e728a456ff,61036b02e074d6e537aaf697,2021-07-29_20h01.08.785,Simcolourproject_2stim_asymm_v5,2020.2.10,MacIntel,60,61025ae37ef11b136ea224fe,,,,,,,,,3679,98,-68,1,0,0,response3disk,,5,1,0,1,0,0,rectangle,1,0,1,0,0,1,0,1,0,0,0,157,157,88,1,,,,,,,,
,,,,,,,,,,,,,FF,,,,,,,,0.757,,,,,,,,,,,,,,,,,,,,,,60fee821d38b78e728a456ff,61036b02e074d6e537aaf697,2021-07-29_20h01.08.785,Simcolourproject_2stim_asymm_v5,2020.2.10,MacIntel,60,61025ae37ef11b136ea224fe,,,,,,,,,3091,43,-35,1,0,0,response3disk,,5,6,-6,1,0,0,rectangle,6,-6,1,0,0,6,-6,1,0,0,0,158,158,122,1,,,,,,,,
,,,,,,,,,,,,,FF,,,,,,,,0.589,,,,,,,,,,,,,,,,,,,,,,60fee821d38b78e728a456ff,61036b02e074d6e537aaf697,2021-07-29_20h01.08.785,Simcolourproject_2stim_asymm_v5,2020.2.10,MacIntel,60,61025ae37ef11b136ea224fe,,,,,,,,,1811,39,-83,1,0,0,response3disk,,4,11,-10,1,0,0,rectangle,11,-10,1,0,0,11,-10,1,0,0,0,159,159,113,1,,,,,,,,
,,,,,,,,,,,,,FF,,,,,,,,0.831,,,,,,,,,,,,,,,,,,,,,,60fee821d38b78e728a456ff,61036b02e074d6e537aaf697,2021-07-29_20h01.08.785,Simcolourproject_2stim_asymm_v5,2020.2.10,MacIntel,60,61025ae37ef11b136ea224fe,,,,,,,,,755,50,89,1,0,0,response1disk,,7,27,15,1,0,0,rectangle,27,15,1,0,0,27,15,1,0,0,1,0,160,26,1,,,,,,,,
,,,,,,,,,,,,,FF,,,,,,,,0.63,,,,,,,,,,,,,,,,,,,,,,60fee821d38b78e728a456ff,61036b02e074d6e537aaf697,2021-07-29_20h01.08.785,Simcolourproject_2stim_asymm_v5,2020.2.10,MacIntel,60,61025ae37ef11b136ea224fe,,,,,,,,,1856,42,107,1,0,0,response1disk,,7,21,3,1,0,0,rectangle,21,3,1,0,0,21,3,1,0,0,1,1,161,40,1,,,,,,,,
,,,,,,,,,,,,,FF,,,,,,,,0.919,,,,,,,,,,,,,,,,,,,,,,60fee821d38b78e728a456ff,61036b02e074d6e537aaf697,2021-07-29_20h01.08.785,Simcolourproject_2stim_asymm_v5,2020.2.10,MacIntel,60,61025ae37ef11b136ea224fe,,,,,,,,,2475,33,54,1,0,0,response1disk,,7,23,-12,1,0,0,rectangle,-74,96,1,0,0,-24,3,1,0,0,1,2,162,35,1,,response7disk_3,TRUE,0,0,"[163,94,142,145,176,128,43,32,169,137,209,157,318,265,291,237,9,119,73,45]",1.804,rectangle
,,,,,,,,,,,,,FF,,,,,,,,1.009,,,,,,,,,,,,,,,,,,,,,,60fee821d38b78e728a456ff,61036b02e074d6e537aaf697,2021-07-29_20h01.08.785,Simcolourproject_2stim_asymm_v5,2020.2.10,MacIntel,60,61025ae37ef11b136ea224fe,,,,,,,,,1626,-66,-118,1,0,0,response5disk,,3,-10,-9,1,0,0,rectangle,-10,-9,1,0,0,-10,-9,1,0,0,1,3,163,141,1,,,,,,,,
,,,,,,,,,,,,,FF,,,,,,,,0.774,,,,,,,,,,,,,,,,,,,,,,60fee821d38b78e728a456ff,61036b02e074d6e537aaf697,2021-07-29_20h01.08.785,Simcolourproject_2stim_asymm_v5,2020.2.10,MacIntel,60,61025ae37ef11b136ea224fe,,,,,,,,,2574,39,95,1,0,0,response1disk,,7,9,-5,1,0,0,rectangle,9,-5,1,0,0,9,-5,1,0,0,1,4,164,38,1,,,,,,,,
,,,,,,,,,,,,,FF,,,,,,,,0.468,,,,,,,,,,,,,,,,,,,,,,60fee821d38b78e728a456ff,61036b02e074d6e537aaf697,2021-07-29_20h01.08.785,Simcolourproject_2stim_asymm_v5,2020.2.10,MacIntel,60,61025ae37ef11b136ea224fe,,,,,,,,,3020,38,55,1,0,0,response1disk,,7,17,-7,1,0,0,rectangle,17,-7,1,0,0,17,-7,1,0,0,1,5,165,22,1,,,,,,,,
,,,,,,,,,,,,,FF,,,,,,,,0.874,,,,,,,,,,,,,,,,,,,,,,60fee821d38b78e728a456ff,61036b02e074d6e537aaf697,2021-07-29_20h01.08.785,Simcolourproject_2stim_asymm_v5,2020.2.10,MacIntel,60,61025ae37ef11b136ea224fe,,,,,,,,,3383,-90,55,1,0,0,response7disk,,1,-25,15,1,0,0,rectangle,-25,15,1,0,0,-25,15,1,0,0,1,6,166,124,1,,,,,,,,
,,,,,,,,,,,,,FF,,,,,,,,0.711,,,,,,,,,,,,,,,,,,,,,,60fee821d38b78e728a456ff,61036b02e074d6e537aaf697,2021-07-29_20h01.08.785,Simcolourproject_2stim_asymm_v5,2020.2.10,MacIntel,60,61025ae37ef11b136ea224fe,,,,,,,,,3476,-80,45,1,0,0,response7disk,,1,-6,-11,1,0,0,rectangle,-6,-11,1,0,0,-6,-11,1,0,0,1,7,167,128,1,,,,,,,,
,,,,,,,,,,,,,FF,,,,,,,,0.884,,,,,,,,,,,,,,,,,,,,,,60fee821d38b78e728a456ff,61036b02e074d6e537aaf697,2021-07-29_20h01.08.785,Simcolourproject_2stim_asymm_v5,2020.2.10,MacIntel,60,61025ae37ef11b136ea224fe,,,,,,,,,2990,49,99,1,0,0,response1disk,,7,8,1,1,0,0,rectangle,-89,-48,1,0,0,2,-6,1,0,0,1,8,168,8,1,,response5disk_3,TRUE,2,2,"[163,94,142,145,176,128,43,32,169,137,209,157,318,265,291,237,9,119,73,45]",1.546,rectangle
,,,,,,,,,,,,,FF,,,,,,,,0.806,,,,,,,,,,,,,,,,,,,,,,60fee821d38b78e728a456ff,61036b02e074d6e537aaf697,2021-07-29_20h01.08.785,Simcolourproject_2stim_asymm_v5,2020.2.10,MacIntel,60,61025ae37ef11b136ea224fe,,,,,,,,,3142,37,82,1,0,0,response1disk,,7,19,16,1,0,0,rectangle,19,16,1,0,0,19,16,1,0,0,1,9,169,47,1,,,,,,,,
,,,,,,,,,,,,,FF,,,,,,,,0.687,,,,,,,,,,,,,,,,,,,,,,60fee821d38b78e728a456ff,61036b02e074d6e537aaf697,2021-07-29_20h01.08.785,Simcolourproject_2stim_asymm_v5,2020.2.10,MacIntel,60,61025ae37ef11b136ea224fe,,,,,,,,,1400,30,71,1,0,0,response1disk,,7,25,11,1,0,0,rectangle,25,11,1,0,0,25,11,1,0,0,1,10,170,91,1,,,,,,,,
,,,,,,,,,,,,,FF,,,,,,,,0.608,,,,,,,,,,,,,,,,,,,,,,60fee821d38b78e728a456ff,61036b02e074d6e537aaf697,2021-07-29_20h01.08.785,Simcolourproject_2stim_asymm_v5,2020.2.10,MacIntel,60,61025ae37ef11b136ea224fe,,,,,,,,,3019,56,62,1,0,0,response1disk,,7,26,-15,1,0,0,rectangle,26,-15,1,0,0,26,-15,1,0,0,1,11,171,56,1,,,,,,,,
,,,,,,,,,,,,,FF,,,,,,,,0.734,,,,,,,,,,,,,,,,,,,,,,60fee821d38b78e728a456ff,61036b02e074d6e537aaf697,2021-07-29_20h01.08.785,Simcolourproject_2stim_asymm_v5,2020.2.10,MacIntel,60,61025ae37ef11b136ea224fe,,,,,,,,,931,19,61,1,0,0,response1disk,,7,19,10,1,0,0,rectangle,19,10,1,0,0,19,10,1,0,0,1,12,172,29,1,,,,,,,,
,,,,,,,,,,,,,FF,,,,,,,,0.69,,,,,,,,,,,,,,,,,,,,,,60fee821d38b78e728a456ff,61036b02e074d6e537aaf697,2021-07-29_20h01.08.785,Simcolourproject_2stim_asymm_v5,2020.2.10,MacIntel,60,61025ae37ef11b136ea224fe,,,,,,,,,3434,-73,41,1,0,0,response7disk,,1,-20,8,1,0,0,rectangle,-20,8,1,0,0,-20,8,1,0,0,1,13,173,23,1,,,,,,,,
,,,,,,,,,,,,,FF,,,,,,,,0.688,,,,,,,,,,,,,,,,,,,,,,60fee821d38b78e728a456ff,61036b02e074d6e537aaf697,2021-07-29_20h01.08.785,Simcolourproject_2stim_asymm_v5,2020.2.10,MacIntel,60,61025ae37ef11b136ea224fe,,,,,,,,,3085,31,87,1,0,0,response1disk,,7,12,19,1,0,0,rectangle,12,19,1,0,0,12,19,1,0,0,1,14,174,156,1,,,,,,,,
,,,,,,,,,,,,,FF,,,,,,,,1.408,,,,,,,,,,,,,,,,,,,,,,60fee821d38b78e728a456ff,61036b02e074d6e537aaf697,2021-07-29_20h01.08.785,Simcolourproject_2stim_asymm_v5,2020.2.10,MacIntel,60,61025ae37ef11b136ea224fe,,,,,,,,,2776,-68,-106,1,0,0,response5disk,,3,-24,1,1,0,0,rectangle,-58,125,1,0,0,-27,8,1,0,0,1,15,175,32,1,,response7disk_3,TRUE,0,0,"[163,94,142,145,176,128,43,32,169,137,209,157,318,265,291,237,9,119,73,45]",9.1,rectangle
,,,,,,,,,,,,,FF,,,,,,,,0.711,,,,,,,,,,,,,,,,,,,,,,60fee821d38b78e728a456ff,61036b02e074d6e537aaf697,2021-07-29_20h01.08.785,Simcolourproject_2stim_asymm_v5,2020.2.10,MacIntel,60,61025ae37ef11b136ea224fe,,,,,,,,,4042,43,85,1,0,0,response1disk,,7,10,-12,1,0,0,rectangle,10,-12,1,0,0,10,-12,1,0,0,1,16,176,48,1,,,,,,,,
,,,,,,,,,,,,,FF,,,,,,,,0.496,,,,,,,,,,,,,,,,,,,,,,60fee821d38b78e728a456ff,61036b02e074d6e537aaf697,2021-07-29_20h01.08.785,Simcolourproject_2stim_asymm_v5,2020.2.10,MacIntel,60,61025ae37ef11b136ea224fe,,,,,,,,,2259,37,67,1,0,0,response1disk,,7,16,-9,1,0,0,rectangle,16,-9,1,0,0,16,-9,1,0,0,1,17,177,16,1,,,,,,,,
,,,,,,,,,,,,,FF,,,,,,,,0.774,,,,,,,,,,,,,,,,,,,,,,60fee821d38b78e728a456ff,61036b02e074d6e537aaf697,2021-07-29_20h01.08.785,Simcolourproject_2stim_asymm_v5,2020.2.10,MacIntel,60,61025ae37ef11b136ea224fe,,,,,,,,,1972,-57,-81,1,0,0,response5disk,,3,-5,6,1,0,0,rectangle,-5,6,1,0,0,-5,6,1,0,0,1,18,178,105,1,,,,,,,,
,,,,,,,,,,,,,FF,,,,,,,,0.651,,,,,,,,,,,,,,,,,,,,,,60fee821d38b78e728a456ff,61036b02e074d6e537aaf697,2021-07-29_20h01.08.785,Simcolourproject_2stim_asymm_v5,2020.2.10,MacIntel,60,61025ae37ef11b136ea224fe,,,,,,,,,1423,72,-32,1,0,0,response3disk,,5,8,19,1,0,0,rectangle,8,19,1,0,0,8,19,1,0,0,1,19,179,84,1,,,,,,,,
,,,,,,,,,,,,,FF,,,,,,,,0.462,,,,,,,,,,,,,,,,,,,,,,60fee821d38b78e728a456ff,61036b02e074d6e537aaf697,2021-07-29_20h01.08.785,Simcolourproject_2stim_asymm_v5,2020.2.10,MacIntel,60,61025ae37ef11b136ea224fe,,,,,,,,,1731,85,32,1,0,0,response1disk,,6,16,-5,1,0,0,rectangle,16,-5,1,0,0,16,-5,1,0,0,1,20,180,87,1,,,,,,,,
,,,,,,,,,,,,,FF,,,,,,,,0.531,,,,,,,,,,,,,,,,,,,,,,60fee821d38b78e728a456ff,61036b02e074d6e537aaf697,2021-07-29_20h01.08.785,Simcolourproject_2stim_asymm_v5,2020.2.10,MacIntel,60,61025ae37ef11b136ea224fe,,,,,,,,,1193,80,31,1,0,0,response1disk,,6,30,-2,1,0,0,rectangle,30,-2,1,0,0,30,-2,1,0,0,1,21,181,82,1,,,,,,,,
,,,,,,,,,,,,,FF,,,,,,,,0.493,,,,,,,,,,,,,,,,,,,,,,60fee821d38b78e728a456ff,61036b02e074d6e537aaf697,2021-07-29_20h01.08.785,Simcolourproject_2stim_asymm_v5,2020.2.10,MacIntel,60,61025ae37ef11b136ea224fe,,,,,,,,,2315,98,40,1,0,0,response1disk,,6,28,-2,1,0,0,rectangle,28,-2,1,0,0,28,-2,1,0,0,1,22,182,149,1,,,,,,,,
,,,,,,,,,,,,,FF,,,,,,,,0.449,,,,,,,,,,,,,,,,,,,,,,60fee821d38b78e728a456ff,61036b02e074d6e537aaf697,2021-07-29_20h01.08.785,Simcolourproject_2stim_asymm_v5,2020.2.10,MacIntel,60,61025ae37ef11b136ea224fe,,,,,,,,,2003,52,35,1,0,0,response1disk,,6,15,15,1,0,0,rectangle,15,15,1,0,0,15,15,1,0,0,1,23,183,155,1,,,,,,,,
,,,,,,,,,,,,,FF,,,,,,,,0.495,,,,,,,,,,,,,,,,,,,,,,60fee821d38b78e728a456ff,61036b02e074d6e537aaf697,2021-07-29_20h01.08.785,Simcolourproject_2stim_asymm_v5,2020.2.10,MacIntel,60,61025ae37ef11b136ea224fe,,,,,,,,,1781,58,39,1,0,0,response1disk,,6,22,11,1,0,0,rectangle,22,11,1,0,0,22,11,1,0,0,1,24,184,20,1,,,,,,,,
,,,,,,,,,,,,,FF,,,,,,,,0.491,,,,,,,,,,,,,,,,,,,,,,60fee821d38b78e728a456ff,61036b02e074d6e537aaf697,2021-07-29_20h01.08.785,Simcolourproject_2stim_asymm_v5,2020.2.10,MacIntel,60,61025ae37ef11b136ea224fe,,,,,,,,,774,95,34,1,0,0,response1disk,,6,27,0,1,0,0,rectangle,27,0,1,0,0,27,0,1,0,0,1,25,185,143,1,,,,,,,,
,,,,,,,,,,,,,FF,,,,,,,,0.992,,,,,,,,,,,,,,,,,,,,,,60fee821d38b78e728a456ff,61036b02e074d6e537aaf697,2021-07-29_20h01.08.785,Simcolourproject_2stim_asymm_v5,2020.2.10,MacIntel,60,61025ae37ef11b136ea224fe,,,,,,,,,2361,-71,126,1,0,0,response7disk,,0,-31,-6,1,0,0,rectangle,-31,-6,1,0,0,-31,-6,1,0,0,1,26,186,110,1,,,,,,,,
,,,,,,,,,,,,,FF,,,,,,,,1.626,,,,,,,,,,,,,,,,,,,,,,60fee821d38b78e728a456ff,61036b02e074d6e537aaf697,2021-07-29_20h01.08.785,Simcolourproject_2stim_asymm_v5,2020.2.10,MacIntel,60,61025ae37ef11b136ea224fe,,,,,,,,,1300,-75,36,1,0,0,response7disk,,1,-30,11,1,0,0,rectangle,-30,11,1,0,0,-30,11,1,0,0,1,27,187,114,1,,,,,,,,
,,,,,,,,,,,,,FF,,,,,,,,1.147,,,,,,,,,,,,,,,,,,,,,,60fee821d38b78e728a456ff,61036b02e074d6e537aaf697,2021-07-29_20h01.08.785,Simcolourproject_2stim_asymm_v5,2020.2.10,MacIntel,60,61025ae37ef11b136ea224fe,,,,,,,,,2767,105,-39,1,0,0,response3disk,,5,-18,-7,1,0,0,rectangle,-18,-7,1,0,0,-18,-7,1,0,0,1,28,188,118,1,,,,,,,,
,,,,,,,,,,,,,FF,,,,,,,,0.55,,,,,,,,,,,,,,,,,,,,,,60fee821d38b78e728a456ff,61036b02e074d6e537aaf697,2021-07-29_20h01.08.785,Simcolourproject_2stim_asymm_v5,2020.2.10,MacIntel,60,61025ae37ef11b136ea224fe,,,,,,,,,417,54,28,1,0,0,response1disk,,6,9,-5,1,0,0,rectangle,9,-5,1,0,0,9,-5,1,0,0,1,29,189,65,1,,,,,,,,
,,,,,,,,,,,,,FF,,,,,,,,0.704,,,,,,,,,,,,,,,,,,,,,,60fee821d38b78e728a456ff,61036b02e074d6e537aaf697,2021-07-29_20h01.08.785,Simcolourproject_2stim_asymm_v5,2020.2.10,MacIntel,60,61025ae37ef11b136ea224fe,,,,,,,,,1401,48,33,1,0,0,response1disk,,6,7,-16,1,0,0,rectangle,7,-16,1,0,0,7,-16,1,0,0,1,30,190,108,1,,,,,,,,
,,,,,,,,,,,,,FF,,,,,,,,0.591,,,,,,,,,,,,,,,,,,,,,,60fee821d38b78e728a456ff,61036b02e074d6e537aaf697,2021-07-29_20h01.08.785,Simcolourproject_2stim_asymm_v5,2020.2.10,MacIntel,60,61025ae37ef11b136ea224fe,,,,,,,,,2369,69,41,1,0,0,response1disk,,6,16,-8,1,0,0,rectangle,16,-8,1,0,0,16,-8,1,0,0,1,31,191,62,1,,,,,,,,
,,,,,,,,,,,,,FF,,,,,,,,0.419,,,,,,,,,,,,,,,,,,,,,,60fee821d38b78e728a456ff,61036b02e074d6e537aaf697,2021-07-29_20h01.08.785,Simcolourproject_2stim_asymm_v5,2020.2.10,MacIntel,60,61025ae37ef11b136ea224fe,,,,,,,,,2205,87,36,1,0,0,response1disk,,6,-1,-5,1,0,0,rectangle,-1,-5,1,0,0,-1,-5,1,0,0,1,32,192,117,1,,,,,,,,
,,,,,,,,,,,,,FF,,,,,,,,0.61,,,,,,,,,,,,,,,,,,,,,,60fee821d38b78e728a456ff,61036b02e074d6e537aaf697,2021-07-29_20h01.08.785,Simcolourproject_2stim_asymm_v5,2020.2.10,MacIntel,60,61025ae37ef11b136ea224fe,,,,,,,,,2573,22,66,1,0,0,response1disk,,7,4,3,1,0,0,rectangle,4,3,1,0,0,4,3,1,0,0,1,33,193,133,1,,,,,,,,
,,,,,,,,,,,,,FF,,,,,,,,0.385,,,,,,,,,,,,,,,,,,,,,,60fee821d38b78e728a456ff,61036b02e074d6e537aaf697,2021-07-29_20h01.08.785,Simcolourproject_2stim_asymm_v5,2020.2.10,MacIntel,60,61025ae37ef11b136ea224fe,,,,,,,,,1846,55,62,1,0,0,response1disk,,7,21,-7,1,0,0,rectangle,21,-7,1,0,0,21,-7,1,0,0,1,34,194,58,1,,,,,,,,
,,,,,,,,,,,,,FF,,,,,,,,0.606,,,,,,,,,,,,,,,,,,,,,,60fee821d38b78e728a456ff,61036b02e074d6e537aaf697,2021-07-29_20h01.08.785,Simcolourproject_2stim_asymm_v5,2020.2.10,MacIntel,60,61025ae37ef11b136ea224fe,,,,,,,,,3268,32,66,1,0,0,response1disk,,7,27,15,1,0,0,rectangle,27,15,1,0,0,27,15,1,0,0,1,35,195,94,1,,,,,,,,
,,,,,,,,,,,,,FF,,,,,,,,0.407,,,,,,,,,,,,,,,,,,,,,,60fee821d38b78e728a456ff,61036b02e074d6e537aaf697,2021-07-29_20h01.08.785,Simcolourproject_2stim_asymm_v5,2020.2.10,MacIntel,60,61025ae37ef11b136ea224fe,,,,,,,,,4260,28,68,1,0,0,response1disk,,7,17,-1,1,0,0,rectangle,17,-1,1,0,0,17,-1,1,0,0,1,36,196,10,1,,,,,,,,
,,,,,,,,,,,,,FF,,,,,,,,0.655,,,,,,,,,,,,,,,,,,,,,,60fee821d38b78e728a456ff,61036b02e074d6e537aaf697,2021-07-29_20h01.08.785,Simcolourproject_2stim_asymm_v5,2020.2.10,MacIntel,60,61025ae37ef11b136ea224fe,,,,,,,,,729,37,70,1,0,0,response1disk,,7,36,3,1,0,0,rectangle,36,3,1,0,0,36,3,1,0,0,1,37,197,121,1,,,,,,,,
,,,,,,,,,,,,,FF,,,,,,,,0.596,,,,,,,,,,,,,,,,,,,,,,60fee821d38b78e728a456ff,61036b02e074d6e537aaf697,2021-07-29_20h01.08.785,Simcolourproject_2stim_asymm_v5,2020.2.10,MacIntel,60,61025ae37ef11b136ea224fe,,,,,,,,,1309,95,42,1,0,0,response1disk,,6,35,-4,1,0,0,rectangle,35,-4,1,0,0,35,-4,1,0,0,1,38,198,88,1,,,,,,,,
,,,,,,,,,,,,,FF,,,,,,,,0.865,,,,,,,,,,,,,,,,,,,,,,60fee821d38b78e728a456ff,61036b02e074d6e537aaf697,2021-07-29_20h01.08.785,Simcolourproject_2stim_asymm_v5,2020.2.10,MacIntel,60,61025ae37ef11b136ea224fe,,,,,,,,,857,32,60,1,0,0,response1disk,,7,23,4,1,0,0,rectangle,23,4,1,0,0,23,4,1,0,0,1,39,199,49,1,,,,,,,,
,,,,,,,,,,,,,FF,,,,,,,,0.862,,,,,,,,,,,,,,,,,,,,,,60fee821d38b78e728a456ff,61036b02e074d6e537aaf697,2021-07-29_20h01.08.785,Simcolourproject_2stim_asymm_v5,2020.2.10,MacIntel,60,61025ae37ef11b136ea224fe,,,,,,,,,1289,33,62,1,0,0,response1disk,,7,29,-3,1,0,0,rectangle,29,-3,1,0,0,29,-3,1,0,0,1,40,200,101,1,,,,,,,,
,,,,,,,,,,,,,FF,,,,,,,,0.608,,,,,,,,,,,,,,,,,,,,,,60fee821d38b78e728a456ff,61036b02e074d6e537aaf697,2021-07-29_20h01.08.785,Simcolourproject_2stim_asymm_v5,2020.2.10,MacIntel,60,61025ae37ef11b136ea224fe,,,,,,,,,1885,29,54,1,0,0,response1disk,,7,29,17,1,0,0,rectangle,29,17,1,0,0,29,17,1,0,0,1,41,201,15,1,,,,,,,,
,,,,,,,,,,,,,FF,,,,,,,,0.519,,,,,,,,,,,,,,,,,,,,,,60fee821d38b78e728a456ff,61036b02e074d6e537aaf697,2021-07-29_20h01.08.785,Simcolourproject_2stim_asymm_v5,2020.2.10,MacIntel,60,61025ae37ef11b136ea224fe,,,,,,,,,3984,33,41,1,0,0,response1disk,,7,33,10,1,0,0,rectangle,33,10,1,0,0,33,10,1,0,0,1,42,202,103,1,,,,,,,,
,,,,,,,,,,,,,FF,,,,,,,,0.752,,,,,,,,,,,,,,,,,,,,,,60fee821d38b78e728a456ff,61036b02e074d6e537aaf697,2021-07-29_20h01.08.785,Simcolourproject_2stim_asymm_v5,2020.2.10,MacIntel,60,61025ae37ef11b136ea224fe,,,,,,,,,1878,88,59,1,0,0,response1disk,,6,39,19,1,0,0,rectangle,39,19,1,0,0,39,19,1,0,0,1,43,203,138,1,,,,,,,,
,,,,,,,,,,,,,FF,,,,,,,,0.617,,,,,,,,,,,,,,,,,,,,,,60fee821d38b78e728a456ff,61036b02e074d6e537aaf697,2021-07-29_20h01.08.785,Simcolourproject_2stim_asymm_v5,2020.2.10,MacIntel,60,61025ae37ef11b136ea224fe,,,,,,,,,3034,35,65,1,0,0,response1disk,,7,35,19,1,0,0,rectangle,35,19,1,0,0,35,19,1,0,0,1,44,204,7,1,,,,,,,,
,,,,,,,,,,,,,FF,,,,,,,,0.637,,,,,,,,,,,,,,,,,,,,,,60fee821d38b78e728a456ff,61036b02e074d6e537aaf697,2021-07-29_20h01.08.785,Simcolourproject_2stim_asymm_v5,2020.2.10,MacIntel,60,61025ae37ef11b136ea224fe,,,,,,,,,2467,29,79,1,0,0,response1disk,,7,28,-5,1,0,0,rectangle,28,-5,1,0,0,28,-5,1,0,0,1,45,205,137,1,,,,,,,,
,,,,,,,,,,,,,FF,,,,,,,,0.528,,,,,,,,,,,,,,,,,,,,,,60fee821d38b78e728a456ff,61036b02e074d6e537aaf697,2021-07-29_20h01.08.785,Simcolourproject_2stim_asymm_v5,2020.2.10,MacIntel,60,61025ae37ef11b136ea224fe,,,,,,,,,2206,34,80,1,0,0,response1disk,,7,34,8,1,0,0,rectangle,34,8,1,0,0,34,8,1,0,0,1,46,206,68,1,,,,,,,,
,,,,,,,,,,,,,FF,,,,,,,,1.242,,,,,,,,,,,,,,,,,,,,,,60fee821d38b78e728a456ff,61036b02e074d6e537aaf697,2021-07-29_20h01.08.785,Simcolourproject_2stim_asymm_v5,2020.2.10,MacIntel,60,61025ae37ef11b136ea224fe,,,,,,,,,1274,70,-47,1,0,0,response3disk,,5,17,3,1,0,0,rectangle,17,3,1,0,0,17,3,1,0,0,1,47,207,126,1,,,,,,,,
,,,,,,,,,,,,,FF,,,,,,,,0.926,,,,,,,,,,,,,,,,,,,,,,60fee821d38b78e728a456ff,61036b02e074d6e537aaf697,2021-07-29_20h01.08.785,Simcolourproject_2stim_asymm_v5,2020.2.10,MacIntel,60,61025ae37ef11b136ea224fe,,,,,,,,,1049,31,74,1,0,0,response1disk,,7,30,8,1,0,0,rectangle,33,69,1,0,0,12,-8,1,0,0,1,48,208,64,1,,response1disk_3,TRUE,7,6,"[163,94,142,145,176,128,43,32,169,137,209,157,318,265,291,237,9,119,73,45]",1.635,rectangle
,,,,,,,,,,,,,FF,,,,,,,,0.798,,,,,,,,,,,,,,,,,,,,,,60fee821d38b78e728a456ff,61036b02e074d6e537aaf697,2021-07-29_20h01.08.785,Simcolourproject_2stim_asymm_v5,2020.2.10,MacIntel,60,61025ae37ef11b136ea224fe,,,,,,,,,3602,95,98,1,0,0,response1disk,,7,10,-5,1,0,0,rectangle,10,-5,1,0,0,10,-5,1,0,0,1,49,209,11,1,,,,,,,,
,,,,,,,,,,,,,FF,,,,,,,,0.64,,,,,,,,,,,,,,,,,,,,,,60fee821d38b78e728a456ff,61036b02e074d6e537aaf697,2021-07-29_20h01.08.785,Simcolourproject_2stim_asymm_v5,2020.2.10,MacIntel,60,61025ae37ef11b136ea224fe,,,,,,,,,2501,45,83,1,0,0,response1disk,,7,32,-1,1,0,0,rectangle,32,-1,1,0,0,32,-1,1,0,0,1,50,210,33,1,,,,,,,,
,,,,,,,,,,,,,FF,,,,,,,,1.206,,,,,,,,,,,,,,,,,,,,,,60fee821d38b78e728a456ff,61036b02e074d6e537aaf697,2021-07-29_20h01.08.785,Simcolourproject_2stim_asymm_v5,2020.2.10,MacIntel,60,61025ae37ef11b136ea224fe,,,,,,,,,2747,44,79,1,0,0,response1disk,,7,40,16,1,0,0,rectangle,40,16,1,0,0,40,16,1,0,0,1,51,211,77,1,,,,,,,,
,,,,,,,,,,,,,FF,,,,,,,,1.086,,,,,,,,,,,,,,,,,,,,,,60fee821d38b78e728a456ff,61036b02e074d6e537aaf697,2021-07-29_20h01.08.785,Simcolourproject_2stim_asymm_v5,2020.2.10,MacIntel,60,61025ae37ef11b136ea224fe,,,,,,,,,2819,70,57,1,0,0,response1disk,,6,-1,0,1,0,0,rectangle,-1,0,1,0,0,-1,0,1,0,0,1,52,212,85,1,,,,,,,,
,,,,,,,,,,,,,FF,,,,,,,,0.482,,,,,,,,,,,,,,,,,,,,,,60fee821d38b78e728a456ff,61036b02e074d6e537aaf697,2021-07-29_20h01.08.785,Simcolourproject_2stim_asymm_v5,2020.2.10,MacIntel,60,61025ae37ef11b136ea224fe,,,,,,,,,1559,46,82,1,0,0,response1disk,,7,32,18,1,0,0,rectangle,32,18,1,0,0,32,18,1,0,0,1,53,213,36,1,,,,,,,,
,,,,,,,,,,,,,FF,,,,,,,,0.441,,,,,,,,,,,,,,,,,,,,,,60fee821d38b78e728a456ff,61036b02e074d6e537aaf697,2021-07-29_20h01.08.785,Simcolourproject_2stim_asymm_v5,2020.2.10,MacIntel,60,61025ae37ef11b136ea224fe,,,,,,,,,156,48,79,1,0,0,response1disk,,7,40,13,1,0,0,rectangle,40,13,1,0,0,40,13,1,0,0,1,54,214,129,1,,,,,,,,
,,,,,,,,,,,,,FF,,,,,,,,1.564,,,,,,,,,,,,,,,,,,,,,,60fee821d38b78e728a456ff,61036b02e074d6e537aaf697,2021-07-29_20h01.08.785,Simcolourproject_2stim_asymm_v5,2020.2.10,MacIntel,60,61025ae37ef11b136ea224fe,,,,,,,,,2161,95,-67,1,0,0,response3disk,,5,25,-16,1,0,0,rectangle,25,-16,1,0,0,25,-16,1,0,0,1,55,215,51,1,,,,,,,,
,,,,,,,,,,,,,FF,,,,,,,,0.918,,,,,,,,,,,,,,,,,,,,,,60fee821d38b78e728a456ff,61036b02e074d6e537aaf697,2021-07-29_20h01.08.785,Simcolourproject_2stim_asymm_v5,2020.2.10,MacIntel,60,61025ae37ef11b136ea224fe,,,,,,,,,3670,-78,39,1,0,0,response7disk,,1,-32,10,1,0,0,rectangle,-32,10,1,0,0,-32,10,1,0,0,1,56,216,159,1,,,,,,,,
,,,,,,,,,,,,,FF,,,,,,,,0.795,,,,,,,,,,,,,,,,,,,,,,60fee821d38b78e728a456ff,61036b02e074d6e537aaf697,2021-07-29_20h01.08.785,Simcolourproject_2stim_asymm_v5,2020.2.10,MacIntel,60,61025ae37ef11b136ea224fe,,,,,,,,,3930,53,130,1,0,0,response1disk,,7,-21,0,1,0,0,rectangle,-21,0,1,0,0,-21,0,1,0,0,1,57,217,19,1,,,,,,,,
,,,,,,,,,,,,,FF,,,,,,,,0.498,,,,,,,,,,,,,,,,,,,,,,60fee821d38b78e728a456ff,61036b02e074d6e537aaf697,2021-07-29_20h01.08.785,Simcolourproject_2stim_asymm_v5,2020.2.10,MacIntel,60,61025ae37ef11b136ea224fe,,,,,,,,,3646,29,64,1,0,0,response1disk,,7,15,5,1,0,0,rectangle,15,5,1,0,0,15,5,1,0,0,1,58,218,116,1,,,,,,,,
,,,,,,,,,,,,,FF,,,,,,,,0.875,,,,,,,,,,,,,,,,,,,,,,60fee821d38b78e728a456ff,61036b02e074d6e537aaf697,2021-07-29_20h01.08.785,Simcolourproject_2stim_asymm_v5,2020.2.10,MacIntel,60,61025ae37ef11b136ea224fe,,,,,,,,,1745,-55,-103,1,0,0,response5disk,,3,-14,2,1,0,0,rectangle,-14,2,1,0,0,-14,2,1,0,0,1,59,219,74,1,,,,,,,,
,,,,,,,,,,,,,FF,,,,,,,,0.928,,,,,,,,,,,,,,,,,,,,,,60fee821d38b78e728a456ff,61036b02e074d6e537aaf697,2021-07-29_20h01.08.785,Simcolourproject_2stim_asymm_v5,2020.2.10,MacIntel,60,61025ae37ef11b136ea224fe,,,,,,,,,4364,-51,74,1,0,0,response7disk,,0,-33,17,1,0,0,rectangle,-33,17,1,0,0,-33,17,1,0,0,1,60,220,44,1,,,,,,,,
,,,,,,,,,,,,,FF,,,,,,,,0.645,,,,,,,,,,,,,,,,,,,,,,60fee821d38b78e728a456ff,61036b02e074d6e537aaf697,2021-07-29_20h01.08.785,Simcolourproject_2stim_asymm_v5,2020.2.10,MacIntel,60,61025ae37ef11b136ea224fe,,,,,,,,,3778,-78,48,1,0,0,response7disk,,1,-23,17,1,0,0,rectangle,-23,17,1,0,0,-23,17,1,0,0,1,61,221,150,1,,,,,,,,
,,,,,,,,,,,,,FF,,,,,,,,0.678,,,,,,,,,,,,,,,,,,,,,,60fee821d38b78e728a456ff,61036b02e074d6e537aaf697,2021-07-29_20h01.08.785,Simcolourproject_2stim_asymm_v5,2020.2.10,MacIntel,60,61025ae37ef11b136ea224fe,,,,,,,,,3992,39,101,1,0,0,response1disk,,7,0,-5,1,0,0,rectangle,0,-5,1,0,0,0,-5,1,0,0,1,62,222,70,1,,,,,,,,
,,,,,,,,,,,,,FF,,,,,,,,0.48,,,,,,,,,,,,,,,,,,,,,,60fee821d38b78e728a456ff,61036b02e074d6e537aaf697,2021-07-29_20h01.08.785,Simcolourproject_2stim_asymm_v5,2020.2.10,MacIntel,60,61025ae37ef11b136ea224fe,,,,,,,,,433,23,53,1,0,0,response1disk,,7,20,3,1,0,0,rectangle,20,3,1,0,0,20,3,1,0,0,1,63,223,5,1,,,,,,,,
,,,,,,,,,,,,,FF,,,,,,,,0.609,,,,,,,,,,,,,,,,,,,,,,60fee821d38b78e728a456ff,61036b02e074d6e537aaf697,2021-07-29_20h01.08.785,Simcolourproject_2stim_asymm_v5,2020.2.10,MacIntel,60,61025ae37ef11b136ea224fe,,,,,,,,,3183,35,87,1,0,0,response1disk,,7,30,0,1,0,0,rectangle,30,0,1,0,0,30,0,1,0,0,1,64,224,120,1,,,,,,,,
,,,,,,,,,,,,,FF,,,,,,,,0.681,,,,,,,,,,,,,,,,,,,,,,60fee821d38b78e728a456ff,61036b02e074d6e537aaf697,2021-07-29_20h01.08.785,Simcolourproject_2stim_asymm_v5,2020.2.10,MacIntel,60,61025ae37ef11b136ea224fe,,,,,,,,,3086,31,57,1,0,0,response1disk,,7,24,2,1,0,0,rectangle,24,2,1,0,0,24,2,1,0,0,1,65,225,0,1,,,,,,,,
,,,,,,,,,,,,,FF,,,,,,,,1.289,,,,,,,,,,,,,,,,,,,,,,60fee821d38b78e728a456ff,61036b02e074d6e537aaf697,2021-07-29_20h01.08.785,Simcolourproject_2stim_asymm_v5,2020.2.10,MacIntel,60,61025ae37ef11b136ea224fe,,,,,,,,,989,82,-73,1,0,0,response3disk,,5,4,-16,1,0,0,rectangle,4,-16,1,0,0,4,-16,1,0,0,1,66,226,144,1,,,,,,,,
,,,,,,,,,,,,,FF,,,,,,,,0.912,,,,,,,,,,,,,,,,,,,,,,60fee821d38b78e728a456ff,61036b02e074d6e537aaf697,2021-07-29_20h01.08.785,Simcolourproject_2stim_asymm_v5,2020.2.10,MacIntel,60,61025ae37ef11b136ea224fe,,,,,,,,,4276,75,54,1,0,0,response1disk,,6,-2,-5,1,0,0,rectangle,-2,-5,1,0,0,-2,-5,1,0,0,1,67,227,6,1,,,,,,,,
,,,,,,,,,,,,,FF,,,,,,,,0.655,,,,,,,,,,,,,,,,,,,,,,60fee821d38b78e728a456ff,61036b02e074d6e537aaf697,2021-07-29_20h01.08.785,Simcolourproject_2stim_asymm_v5,2020.2.10,MacIntel,60,61025ae37ef11b136ea224fe,,,,,,,,,4044,35,73,1,0,0,response1disk,,7,18,7,1,0,0,rectangle,18,7,1,0,0,18,7,1,0,0,1,68,228,152,1,,,,,,,,
,,,,,,,,,,,,,FF,,,,,,,,1.351,,,,,,,,,,,,,,,,,,,,,,60fee821d38b78e728a456ff,61036b02e074d6e537aaf697,2021-07-29_20h01.08.785,Simcolourproject_2stim_asymm_v5,2020.2.10,MacIntel,60,61025ae37ef11b136ea224fe,,,,,,,,,3564,57,80,1,0,0,response1disk,,7,33,4,1,0,0,rectangle,33,4,1,0,0,33,4,1,0,0,1,69,229,63,1,,,,,,,,
,,,,,,,,,,,,,FF,,,,,,,,0.458,,,,,,,,,,,,,,,,,,,,,,60fee821d38b78e728a456ff,61036b02e074d6e537aaf697,2021-07-29_20h01.08.785,Simcolourproject_2stim_asymm_v5,2020.2.10,MacIntel,60,61025ae37ef11b136ea224fe,,,,,,,,,3876,54,62,1,0,0,response1disk,,7,38,-4,1,0,0,rectangle,38,-4,1,0,0,38,-4,1,0,0,1,70,230,107,1,,,,,,,,
,,,,,,,,,,,,,FF,,,,,,,,0.975,,,,,,,,,,,,,,,,,,,,,,60fee821d38b78e728a456ff,61036b02e074d6e537aaf697,2021-07-29_20h01.08.785,Simcolourproject_2stim_asymm_v5,2020.2.10,MacIntel,60,61025ae37ef11b136ea224fe,,,,,,,,,3295,67,-91,1,0,0,response3disk,,4,-4,-1,1,0,0,rectangle,-4,-1,1,0,0,-4,-1,1,0,0,1,71,231,102,1,,,,,,,,
,,,,,,,,,,,,,FF,,,,,,,,0.803,,,,,,,,,,,,,,,,,,,,,,60fee821d38b78e728a456ff,61036b02e074d6e537aaf697,2021-07-29_20h01.08.785,Simcolourproject_2stim_asymm_v5,2020.2.10,MacIntel,60,61025ae37ef11b136ea224fe,,,,,,,,,1247,36,80,1,0,0,response1disk,,7,15,-9,1,0,0,rectangle,15,-9,1,0,0,15,-9,1,0,0,1,72,232,43,1,,,,,,,,
,,,,,,,,,,,,,FF,,,,,,,,0.431,,,,,,,,,,,,,,,,,,,,,,60fee821d38b78e728a456ff,61036b02e074d6e537aaf697,2021-07-29_20h01.08.785,Simcolourproject_2stim_asymm_v5,2020.2.10,MacIntel,60,61025ae37ef11b136ea224fe,,,,,,,,,916,28,74,1,0,0,response1disk,,7,11,5,1,0,0,rectangle,11,5,1,0,0,11,5,1,0,0,1,73,233,83,1,,,,,,,,
,,,,,,,,,,,,,FF,,,,,,,,0.415,,,,,,,,,,,,,,,,,,,,,,60fee821d38b78e728a456ff,61036b02e074d6e537aaf697,2021-07-29_20h01.08.785,Simcolourproject_2stim_asymm_v5,2020.2.10,MacIntel,60,61025ae37ef11b136ea224fe,,,,,,,,,2308,59,96,1,0,0,response1disk,,7,30,-1,1,0,0,rectangle,30,-1,1,0,0,30,-1,1,0,0,1,74,234,21,1,,,,,,,,
,,,,,,,,,,,,,FF,,,,,,,,1.247,,,,,,,,,,,,,,,,,,,,,,60fee821d38b78e728a456ff,61036b02e074d6e537aaf697,2021-07-29_20h01.08.785,Simcolourproject_2stim_asymm_v5,2020.2.10,MacIntel,60,61025ae37ef11b136ea224fe,,,,,,,,,2782,-71,-116,1,0,0,response5disk,,3,-37,-15,1,0,0,rectangle,-37,-15,1,0,0,-37,-15,1,0,0,1,75,235,31,1,,,,,,,,
,,,,,,,,,,,,,FF,,,,,,,,0.459,,,,,,,,,,,,,,,,,,,,,,60fee821d38b78e728a456ff,61036b02e074d6e537aaf697,2021-07-29_20h01.08.785,Simcolourproject_2stim_asymm_v5,2020.2.10,MacIntel,60,61025ae37ef11b136ea224fe,,,,,,,,,2508,43,78,1,0,0,response1disk,,7,-5,-11,1,0,0,rectangle,106,64,1,0,0,12,-4,1,0,0,1,76,236,97,1,,response1disk_3,TRUE,6,6,"[163,94,142,145,176,128,43,32,169,137,209,157,318,265,291,237,9,119,73,45]",1.421,rectangle
,,,,,,,,,,,,,FF,,,,,,,,0.838,,,,,,,,,,,,,,,,,,,,,,60fee821d38b78e728a456ff,61036b02e074d6e537aaf697,2021-07-29_20h01.08.785,Simcolourproject_2stim_asymm_v5,2020.2.10,MacIntel,60,61025ae37ef11b136ea224fe,,,,,,,,,2530,59,108,1,0,0,response1disk,,7,15,9,1,0,0,rectangle,15,9,1,0,0,15,9,1,0,0,1,77,237,90,1,,,,,,,,
,,,,,,,,,,,,,FF,,,,,,,,0.862,,,,,,,,,,,,,,,,,,,,,,60fee821d38b78e728a456ff,61036b02e074d6e537aaf697,2021-07-29_20h01.08.785,Simcolourproject_2stim_asymm_v5,2020.2.10,MacIntel,60,61025ae37ef11b136ea224fe,,,,,,,,,443,-67,-107,1,0,0,response5disk,,3,-7,8,1,0,0,rectangle,-7,8,1,0,0,-7,8,1,0,0,1,78,238,125,1,,,,,,,,
,,,,,,,,,,,,,FF,,,,,,,,0.836,,,,,,,,,,,,,,,,,,,,,,60fee821d38b78e728a456ff,61036b02e074d6e537aaf697,2021-07-29_20h01.08.785,Simcolourproject_2stim_asymm_v5,2020.2.10,MacIntel,60,61025ae37ef11b136ea224fe,,,,,,,,,3301,56,-69,1,0,0,response3disk,,4,3,-14,1,0,0,rectangle,3,-14,1,0,0,3,-14,1,0,0,1,79,239,153,1,,,,,,,,
,,,,,,,,,,,,,FF,,,,,,,,0.923,,,,,,,,,,,,,,,,,,,,,,60fee821d38b78e728a456ff,61036b02e074d6e537aaf697,2021-07-29_20h01.08.785,Simcolourproject_2stim_asymm_v5,2020.2.10,MacIntel,60,61025ae37ef11b136ea224fe,,,,,,,,,651,86,51,1,0,0,response1disk,,6,8,5,1,0,0,rectangle,8,5,1,0,0,8,5,1,0,0,1,80,240,72,1,,,,,,,,
,,,,,,,,,,,,,FF,,,,,,,,0.528,,,,,,,,,,,,,,,,,,,,,,60fee821d38b78e728a456ff,61036b02e074d6e537aaf697,2021-07-29_20h01.08.785,Simcolourproject_2stim_asymm_v5,2020.2.10,MacIntel,60,61025ae37ef11b136ea224fe,,,,,,,,,1851,35,59,1,0,0,response1disk,,7,29,13,1,0,0,rectangle,29,13,1,0,0,29,13,1,0,0,1,81,241,45,1,,,,,,,,
,,,,,,,,,,,,,FF,,,,,,,,1.735,,,,,,,,,,,,,,,,,,,,,,60fee821d38b78e728a456ff,61036b02e074d6e537aaf697,2021-07-29_20h01.08.785,Simcolourproject_2stim_asymm_v5,2020.2.10,MacIntel,60,61025ae37ef11b136ea224fe,,,,,,,,,2930,26,42,1,0,0,response1disk,,7,24,7,1,0,0,rectangle,24,7,1,0,0,24,7,1,0,0,1,82,242,27,1,,,,,,,,
,,,,,,,,,,,,,FF,,,,,,,,0.768,,,,,,,,,,,,,,,,,,,,,,60fee821d38b78e728a456ff,61036b02e074d6e537aaf697,2021-07-29_20h01.08.785,Simcolourproject_2stim_asymm_v5,2020.2.10,MacIntel,60,61025ae37ef11b136ea224fe,,,,,,,,,2008,23,82,1,0,0,response1disk,,7,20,-2,1,0,0,rectangle,20,-2,1,0,0,20,-2,1,0,0,1,83,243,1,1,,,,,,,,
,,,,,,,,,,,,,FF,,,,,,,,0.692,,,,,,,,,,,,,,,,,,,,,,60fee821d38b78e728a456ff,61036b02e074d6e537aaf697,2021-07-29_20h01.08.785,Simcolourproject_2stim_asymm_v5,2020.2.10,MacIntel,60,61025ae37ef11b136ea224fe,,,,,,,,,389,40,65,1,0,0,response1disk,,7,35,0,1,0,0,rectangle,35,0,1,0,0,35,0,1,0,0,1,84,244,93,1,,,,,,,,
,,,,,,,,,,,,,FF,,,,,,,,1.108,,,,,,,,,,,,,,,,,,,,,,60fee821d38b78e728a456ff,61036b02e074d6e537aaf697,2021-07-29_20h01.08.785,Simcolourproject_2stim_asymm_v5,2020.2.10,MacIntel,60,61025ae37ef11b136ea224fe,,,,,,,,,355,93,-51,1,0,0,response3disk,,5,-12,3,1,0,0,rectangle,-12,3,1,0,0,-12,3,1,0,0,1,85,245,113,1,,,,,,,,
,,,,,,,,,,,,,FF,,,,,,,,0.671,,,,,,,,,,,,,,,,,,,,,,60fee821d38b78e728a456ff,61036b02e074d6e537aaf697,2021-07-29_20h01.08.785,Simcolourproject_2stim_asymm_v5,2020.2.10,MacIntel,60,61025ae37ef11b136ea224fe,,,,,,,,,2497,47,103,1,0,0,response1disk,,7,11,1,1,0,0,rectangle,11,1,1,0,0,11,1,1,0,0,1,86,246,99,1,,,,,,,,
,,,,,,,,,,,,,FF,,,,,,,,0.698,,,,,,,,,,,,,,,,,,,,,,60fee821d38b78e728a456ff,61036b02e074d6e537aaf697,2021-07-29_20h01.08.785,Simcolourproject_2stim_asymm_v5,2020.2.10,MacIntel,60,61025ae37ef11b136ea224fe,,,,,,,,,4198,52,94,1,0,0,response1disk,,7,38,17,1,0,0,rectangle,38,17,1,0,0,38,17,1,0,0,1,87,247,30,1,,,,,,,,
,,,,,,,,,,,,,FF,,,,,,,,0.733,,,,,,,,,,,,,,,,,,,,,,60fee821d38b78e728a456ff,61036b02e074d6e537aaf697,2021-07-29_20h01.08.785,Simcolourproject_2stim_asymm_v5,2020.2.10,MacIntel,60,61025ae37ef11b136ea224fe,,,,,,,,,4188,34,60,1,0,0,response1disk,,7,30,9,1,0,0,rectangle,30,9,1,0,0,30,9,1,0,0,1,88,248,131,1,,,,,,,,
,,,,,,,,,,,,,FF,,,,,,,,1.163,,,,,,,,,,,,,,,,,,,,,,60fee821d38b78e728a456ff,61036b02e074d6e537aaf697,2021-07-29_20h01.08.785,Simcolourproject_2stim_asymm_v5,2020.2.10,MacIntel,60,61025ae37ef11b136ea224fe,,,,,,,,,4307,72,115,1,0,0,response1disk,,7,19,-1,1,0,0,rectangle,19,-1,1,0,0,19,-1,1,0,0,1,89,249,145,1,,,,,,,,
,,,,,,,,,,,,,FF,,,,,,,,1.219,,,,,,,,,,,,,,,,,,,,,,60fee821d38b78e728a456ff,61036b02e074d6e537aaf697,2021-07-29_20h01.08.785,Simcolourproject_2stim_asymm_v5,2020.2.10,MacIntel,60,61025ae37ef11b136ea224fe,,,,,,,,,81,70,-39,1,0,0,response3disk,,5,24,-2,1,0,0,rectangle,24,-2,1,0,0,24,-2,1,0,0,1,90,250,140,1,,,,,,,,
,,,,,,,,,,,,,FF,,,,,,,,0.888,,,,,,,,,,,,,,,,,,,,,,60fee821d38b78e728a456ff,61036b02e074d6e537aaf697,2021-07-29_20h01.08.785,Simcolourproject_2stim_asymm_v5,2020.2.10,MacIntel,60,61025ae37ef11b136ea224fe,,,,,,,,,4347,-56,-106,1,0,0,response5disk,,3,-7,3,1,0,0,rectangle,-7,3,1,0,0,-7,3,1,0,0,1,91,251,111,1,,,,,,,,
,,,,,,,,,,,,,FF,,,,,,,,0.836,,,,,,,,,,,,,,,,,,,,,,60fee821d38b78e728a456ff,61036b02e074d6e537aaf697,2021-07-29_20h01.08.785,Simcolourproject_2stim_asymm_v5,2020.2.10,MacIntel,60,61025ae37ef11b136ea224fe,,,,,,,,,2955,-63,-126,1,0,0,response5disk,,3,-11,2,1,0,0,rectangle,-11,2,1,0,0,-11,2,1,0,0,1,92,252,96,1,,,,,,,,
,,,,,,,,,,,,,FF,,,,,,,,0.584,,,,,,,,,,,,,,,,,,,,,,60fee821d38b78e728a456ff,61036b02e074d6e537aaf697,2021-07-29_20h01.08.785,Simcolourproject_2stim_asymm_v5,2020.2.10,MacIntel,60,61025ae37ef11b136ea224fe,,,,,,,,,1430,50,-32,1,0,0,response3disk,,5,15,8,1,0,0,rectangle,15,8,1,0,0,15,8,1,0,0,1,93,253,154,1,,,,,,,,
,,,,,,,,,,,,,FF,,,,,,,,0.477,,,,,,,,,,,,,,,,,,,,,,60fee821d38b78e728a456ff,61036b02e074d6e537aaf697,2021-07-29_20h01.08.785,Simcolourproject_2stim_asymm_v5,2020.2.10,MacIntel,60,61025ae37ef11b136ea224fe,,,,,,,,,1467,73,65,1,0,0,response1disk,,6,24,-10,1,0,0,rectangle,24,-10,1,0,0,24,-10,1,0,0,1,94,254,2,1,,,,,,,,
,,,,,,,,,,,,,FF,,,,,,,,0.552,,,,,,,,,,,,,,,,,,,,,,60fee821d38b78e728a456ff,61036b02e074d6e537aaf697,2021-07-29_20h01.08.785,Simcolourproject_2stim_asymm_v5,2020.2.10,MacIntel,60,61025ae37ef11b136ea224fe,,,,,,,,,2525,66,28,1,0,0,response1disk,,6,32,3,1,0,0,rectangle,32,3,1,0,0,32,3,1,0,0,1,95,255,28,1,,,,,,,,
,,,,,,,,,,,,,FF,,,,,,,,0.584,,,,,,,,,,,,,,,,,,,,,,60fee821d38b78e728a456ff,61036b02e074d6e537aaf697,2021-07-29_20h01.08.785,Simcolourproject_2stim_asymm_v5,2020.2.10,MacIntel,60,61025ae37ef11b136ea224fe,,,,,,,,,2192,31,71,1,0,0,response1disk,,7,21,3,1,0,0,rectangle,21,3,1,0,0,21,3,1,0,0,1,96,256,4,1,,,,,,,,
,,,,,,,,,,,,,FF,,,,,,,,0.737,,,,,,,,,,,,,,,,,,,,,,60fee821d38b78e728a456ff,61036b02e074d6e537aaf697,2021-07-29_20h01.08.785,Simcolourproject_2stim_asymm_v5,2020.2.10,MacIntel,60,61025ae37ef11b136ea224fe,,,,,,,,,3237,82,-52,1,0,0,response3disk,,5,-8,-1,1,0,0,rectangle,-8,-1,1,0,0,-8,-1,1,0,0,1,97,257,106,1,,,,,,,,
,,,,,,,,,,,,,FF,,,,,,,,1.187,,,,,,,,,,,,,,,,,,,,,,60fee821d38b78e728a456ff,61036b02e074d6e537aaf697,2021-07-29_20h01.08.785,Simcolourproject_2stim_asymm_v5,2020.2.10,MacIntel,60,61025ae37ef11b136ea224fe,,,,,,,,,1226,87,63,1,0,0,response1disk,,6,21,10,1,0,0,rectangle,21,10,1,0,0,21,10,1,0,0,1,98,258,147,1,,,,,,,,
,,,,,,,,,,,,,FF,,,,,,,,0.879,,,,,,,,,,,,,,,,,,,,,,60fee821d38b78e728a456ff,61036b02e074d6e537aaf697,2021-07-29_20h01.08.785,Simcolourproject_2stim_asymm_v5,2020.2.10,MacIntel,60,61025ae37ef11b136ea224fe,,,,,,,,,4267,85,-58,1,0,0,response3disk,,5,9,-4,1,0,0,rectangle,9,-4,1,0,0,9,-4,1,0,0,1,99,259,132,1,,,,,,,,
,,,,,,,,,,,,,FF,,,,,,,,1.096,,,,,,,,,,,,,,,,,,,,,,60fee821d38b78e728a456ff,61036b02e074d6e537aaf697,2021-07-29_20h01.08.785,Simcolourproject_2stim_asymm_v5,2020.2.10,MacIntel,60,61025ae37ef11b136ea224fe,,,,,,,,,2411,99,-50,1,0,0,response3disk,,5,32,-13,1,0,0,rectangle,32,-13,1,0,0,32,-13,1,0,0,1,100,260,41,1,,,,,,,,
,,,,,,,,,,,,,FF,,,,,,,,0.64,,,,,,,,,,,,,,,,,,,,,,60fee821d38b78e728a456ff,61036b02e074d6e537aaf697,2021-07-29_20h01.08.785,Simcolourproject_2stim_asymm_v5,2020.2.10,MacIntel,60,61025ae37ef11b136ea224fe,,,,,,,,,4220,34,69,1,0,0,response1disk,,7,32,-3,1,0,0,rectangle,32,-3,1,0,0,32,-3,1,0,0,1,101,261,79,1,,,,,,,,
,,,,,,,,,,,,,FF,,,,,,,,0.623,,,,,,,,,,,,,,,,,,,,,,60fee821d38b78e728a456ff,61036b02e074d6e537aaf697,2021-07-29_20h01.08.785,Simcolourproject_2stim_asymm_v5,2020.2.10,MacIntel,60,61025ae37ef11b136ea224fe,,,,,,,,,3826,34,65,1,0,0,response1disk,,7,31,5,1,0,0,rectangle,31,5,1,0,0,31,5,1,0,0,1,102,262,37,1,,,,,,,,
,,,,,,,,,,,,,FF,,,,,,,,1.102,,,,,,,,,,,,,,,,,,,,,,60fee821d38b78e728a456ff,61036b02e074d6e537aaf697,2021-07-29_20h01.08.785,Simcolourproject_2stim_asymm_v5,2020.2.10,MacIntel,60,61025ae37ef11b136ea224fe,,,,,,,,,2726,83,-62,1,0,0,response3disk,,5,-15,1,1,0,0,rectangle,-15,1,1,0,0,-15,1,1,0,0,1,103,263,136,1,,,,,,,,
,,,,,,,,,,,,,FF,,,,,,,,0.908,,,,,,,,,,,,,,,,,,,,,,60fee821d38b78e728a456ff,61036b02e074d6e537aaf697,2021-07-29_20h01.08.785,Simcolourproject_2stim_asymm_v5,2020.2.10,MacIntel,60,61025ae37ef11b136ea224fe,,,,,,,,,2914,35,79,1,0,0,response1disk,,7,33,14,1,0,0,rectangle,102,-44,1,0,0,24,5,1,0,0,1,104,264,54,1,,response3disk_3,TRUE,5,5,"[163,94,142,145,176,128,43,32,169,137,209,157,318,265,291,237,9,119,73,45]",1.81,rectangle
,,,,,,,,,,,,,FF,,,,,,,,1.265,,,,,,,,,,,,,,,,,,,,,,60fee821d38b78e728a456ff,61036b02e074d6e537aaf697,2021-07-29_20h01.08.785,Simcolourproject_2stim_asymm_v5,2020.2.10,MacIntel,60,61025ae37ef11b136ea224fe,,,,,,,,,1281,57,106,1,0,0,response1disk,,7,-11,-14,1,0,0,rectangle,-11,-14,1,0,0,-11,-14,1,0,0,1,105,265,14,1,,,,,,,,
,,,,,,,,,,,,,FF,,,,,,,,0.708,,,,,,,,,,,,,,,,,,,,,,60fee821d38b78e728a456ff,61036b02e074d6e537aaf697,2021-07-29_20h01.08.785,Simcolourproject_2stim_asymm_v5,2020.2.10,MacIntel,60,61025ae37ef11b136ea224fe,,,,,,,,,2977,29,89,1,0,0,response1disk,,7,18,8,1,0,0,rectangle,18,8,1,0,0,18,8,1,0,0,1,106,266,115,1,,,,,,,,
,,,,,,,,,,,,,FF,,,,,,,,0.916,,,,,,,,,,,,,,,,,,,,,,60fee821d38b78e728a456ff,61036b02e074d6e537aaf697,2021-07-29_20h01.08.785,Simcolourproject_2stim_asymm_v5,2020.2.10,MacIntel,60,61025ae37ef11b136ea224fe,,,,,,,,,1597,-72,28,1,0,0,response7disk,,1,-20,4,1,0,0,rectangle,-20,4,1,0,0,-20,4,1,0,0,1,107,267,151,1,,,,,,,,
,,,,,,,,,,,,,FF,,,,,,,,0.674,,,,,,,,,,,,,,,,,,,,,,60fee821d38b78e728a456ff,61036b02e074d6e537aaf697,2021-07-29_20h01.08.785,Simcolourproject_2stim_asymm_v5,2020.2.10,MacIntel,60,61025ae37ef11b136ea224fe,,,,,,,,,2470,38,78,1,0,0,response1disk,,7,20,12,1,0,0,rectangle,20,12,1,0,0,20,12,1,0,0,1,108,268,112,1,,,,,,,,
,,,,,,,,,,,,,FF,,,,,,,,0.539,,,,,,,,,,,,,,,,,,,,,,60fee821d38b78e728a456ff,61036b02e074d6e537aaf697,2021-07-29_20h01.08.785,Simcolourproject_2stim_asymm_v5,2020.2.10,MacIntel,60,61025ae37ef11b136ea224fe,,,,,,,,,3078,47,102,1,0,0,response1disk,,7,23,-9,1,0,0,rectangle,23,-9,1,0,0,23,-9,1,0,0,1,109,269,157,1,,,,,,,,
,,,,,,,,,,,,,FF,,,,,,,,1.018,,,,,,,,,,,,,,,,,,,,,,60fee821d38b78e728a456ff,61036b02e074d6e537aaf697,2021-07-29_20h01.08.785,Simcolourproject_2stim_asymm_v5,2020.2.10,MacIntel,60,61025ae37ef11b136ea224fe,,,,,,,,,2367,30,73,1,0,0,response1disk,,7,26,4,1,0,0,rectangle,26,4,1,0,0,26,4,1,0,0,1,110,270,67,1,,,,,,,,
,,,,,,,,,,,,,FF,,,,,,,,0.803,,,,,,,,,,,,,,,,,,,,,,60fee821d38b78e728a456ff,61036b02e074d6e537aaf697,2021-07-29_20h01.08.785,Simcolourproject_2stim_asymm_v5,2020.2.10,MacIntel,60,61025ae37ef11b136ea224fe,,,,,,,,,4018,50,79,1,0,0,response1disk,,7,37,5,1,0,0,rectangle,37,5,1,0,0,37,5,1,0,0,1,111,271,75,1,,,,,,,,
,,,,,,,,,,,,,FF,,,,,,,,1.121,,,,,,,,,,,,,,,,,,,,,,60fee821d38b78e728a456ff,61036b02e074d6e537aaf697,2021-07-29_20h01.08.785,Simcolourproject_2stim_asymm_v5,2020.2.10,MacIntel,60,61025ae37ef11b136ea224fe,,,,,,,,,3466,84,39,1,0,0,response1disk,,6,13,-8,1,0,0,rectangle,13,-8,1,0,0,13,-8,1,0,0,1,112,272,127,1,,,,,,,,
,,,,,,,,,,,,,FF,,,,,,,,0.66,,,,,,,,,,,,,,,,,,,,,,60fee821d38b78e728a456ff,61036b02e074d6e537aaf697,2021-07-29_20h01.08.785,Simcolourproject_2stim_asymm_v5,2020.2.10,MacIntel,60,61025ae37ef11b136ea224fe,,,,,,,,,1339,99,55,1,0,0,response1disk,,6,33,9,1,0,0,rectangle,33,9,1,0,0,33,9,1,0,0,1,113,273,71,1,,,,,,,,
,,,,,,,,,,,,,FF,,,,,,,,0.897,,,,,,,,,,,,,,,,,,,,,,60fee821d38b78e728a456ff,61036b02e074d6e537aaf697,2021-07-29_20h01.08.785,Simcolourproject_2stim_asymm_v5,2020.2.10,MacIntel,60,61025ae37ef11b136ea224fe,,,,,,,,,1007,19,91,1,0,0,response1disk,,7,12,-2,1,0,0,rectangle,12,-2,1,0,0,12,-2,1,0,0,1,114,274,12,1,,,,,,,,
,,,,,,,,,,,,,FF,,,,,,,,0.989,,,,,,,,,,,,,,,,,,,,,,60fee821d38b78e728a456ff,61036b02e074d6e537aaf697,2021-07-29_20h01.08.785,Simcolourproject_2stim_asymm_v5,2020.2.10,MacIntel,60,61025ae37ef11b136ea224fe,,,,,,,,,3235,83,-49,1,0,0,response3disk,,5,7,6,1,0,0,rectangle,7,6,1,0,0,7,6,1,0,0,1,115,275,98,1,,,,,,,,
,,,,,,,,,,,,,FF,,,,,,,,0.637,,,,,,,,,,,,,,,,,,,,,,60fee821d38b78e728a456ff,61036b02e074d6e537aaf697,2021-07-29_20h01.08.785,Simcolourproject_2stim_asymm_v5,2020.2.10,MacIntel,60,61025ae37ef11b136ea224fe,,,,,,,,,2474,82,-32,1,0,0,response3disk,,5,37,-6,1,0,0,rectangle,37,-6,1,0,0,37,-6,1,0,0,1,116,276,17,1,,,,,,,,
,,,,,,,,,,,,,FF,,,,,,,,1.476,,,,,,,,,,,,,,,,,,,,,,60fee821d38b78e728a456ff,61036b02e074d6e537aaf697,2021-07-29_20h01.08.785,Simcolourproject_2stim_asymm_v5,2020.2.10,MacIntel,60,61025ae37ef11b136ea224fe,,,,,,,,,1605,42,-105,1,0,0,response3disk,,4,7,1,1,0,0,rectangle,7,1,1,0,0,7,1,1,0,0,1,117,277,42,1,,,,,,,,
,,,,,,,,,,,,,FF,,,,,,,,0.791,,,,,,,,,,,,,,,,,,,,,,60fee821d38b78e728a456ff,61036b02e074d6e537aaf697,2021-07-29_20h01.08.785,Simcolourproject_2stim_asymm_v5,2020.2.10,MacIntel,60,61025ae37ef11b136ea224fe,,,,,,,,,3939,43,-102,1,0,0,response3disk,,4,7,-8,1,0,0,rectangle,7,-8,1,0,0,7,-8,1,0,0,1,118,278,69,1,,,,,,,,
,,,,,,,,,,,,,FF,,,,,,,,0.624,,,,,,,,,,,,,,,,,,,,,,60fee821d38b78e728a456ff,61036b02e074d6e537aaf697,2021-07-29_20h01.08.785,Simcolourproject_2stim_asymm_v5,2020.2.10,MacIntel,60,61025ae37ef11b136ea224fe,,,,,,,,,2622,38,-81,1,0,0,response3disk,,4,16,11,1,0,0,rectangle,16,11,1,0,0,16,11,1,0,0,1,119,279,57,1,,,,,,,,
,,,,,,,,,,,,,FF,,,,,,,,0.627,,,,,,,,,,,,,,,,,,,,,,60fee821d38b78e728a456ff,61036b02e074d6e537aaf697,2021-07-29_20h01.08.785,Simcolourproject_2stim_asymm_v5,2020.2.10,MacIntel,60,61025ae37ef11b136ea224fe,,,,,,,,,945,96,91,1,0,0,response1disk,,6,23,-2,1,0,0,rectangle,23,-2,1,0,0,23,-2,1,0,0,1,120,280,92,1,,,,,,,,
,,,,,,,,,,,,,FF,,,,,,,,0.813,,,,,,,,,,,,,,,,,,,,,,60fee821d38b78e728a456ff,61036b02e074d6e537aaf697,2021-07-29_20h01.08.785,Simcolourproject_2stim_asymm_v5,2020.2.10,MacIntel,60,61025ae37ef11b136ea224fe,,,,,,,,,2025,-88,42,1,0,0,response7disk,,1,-34,-11,1,0,0,rectangle,-34,-11,1,0,0,-34,-11,1,0,0,1,121,281,139,1,,,,,,,,
,,,,,,,,,,,,,FF,,,,,,,,1.388,,,,,,,,,,,,,,,,,,,,,,60fee821d38b78e728a456ff,61036b02e074d6e537aaf697,2021-07-29_20h01.08.785,Simcolourproject_2stim_asymm_v5,2020.2.10,MacIntel,60,61025ae37ef11b136ea224fe,,,,,,,,,1541,80,-57,1,0,0,response3disk,,5,9,10,1,0,0,rectangle,9,10,1,0,0,9,10,1,0,0,1,122,282,89,1,,,,,,,,
,,,,,,,,,,,,,FF,,,,,,,,0.821,,,,,,,,,,,,,,,,,,,,,,60fee821d38b78e728a456ff,61036b02e074d6e537aaf697,2021-07-29_20h01.08.785,Simcolourproject_2stim_asymm_v5,2020.2.10,MacIntel,60,61025ae37ef11b136ea224fe,,,,,,,,,299,93,-41,1,0,0,response3disk,,5,25,13,1,0,0,rectangle,25,13,1,0,0,25,13,1,0,0,1,123,283,13,1,,,,,,,,
,,,,,,,,,,,,,FF,,,,,,,,0.774,,,,,,,,,,,,,,,,,,,,,,60fee821d38b78e728a456ff,61036b02e074d6e537aaf697,2021-07-29_20h01.08.785,Simcolourproject_2stim_asymm_v5,2020.2.10,MacIntel,60,61025ae37ef11b136ea224fe,,,,,,,,,3372,57,108,1,0,0,response1disk,,7,28,3,1,0,0,rectangle,28,3,1,0,0,28,3,1,0,0,1,124,284,66,1,,,,,,,,
,,,,,,,,,,,,,FF,,,,,,,,0.59,,,,,,,,,,,,,,,,,,,,,,60fee821d38b78e728a456ff,61036b02e074d6e537aaf697,2021-07-29_20h01.08.785,Simcolourproject_2stim_asymm_v5,2020.2.10,MacIntel,60,61025ae37ef11b136ea224fe,,,,,,,,,4038,31,58,1,0,0,response1disk,,7,26,4,1,0,0,rectangle,26,4,1,0,0,26,4,1,0,0,1,125,285,59,1,,,,,,,,
,,,,,,,,,,,,,FF,,,,,,,,1.097,,,,,,,,,,,,,,,,,,,,,,60fee821d38b78e728a456ff,61036b02e074d6e537aaf697,2021-07-29_20h01.08.785,Simcolourproject_2stim_asymm_v5,2020.2.10,MacIntel,60,61025ae37ef11b136ea224fe,,,,,,,,,1088,39,71,1,0,0,response1disk,,7,17,-17,1,0,0,rectangle,17,-17,1,0,0,17,-17,1,0,0,1,126,286,146,1,,,,,,,,
,,,,,,,,,,,,,FF,,,,,,,,0.684,,,,,,,,,,,,,,,,,,,,,,60fee821d38b78e728a456ff,61036b02e074d6e537aaf697,2021-07-29_20h01.08.785,Simcolourproject_2stim_asymm_v5,2020.2.10,MacIntel,60,61025ae37ef11b136ea224fe,,,,,,,,,150,61,-33,1,0,0,response3disk,,5,11,-1,1,0,0,rectangle,11,-1,1,0,0,11,-1,1,0,0,1,127,287,73,1,,,,,,,,
,,,,,,,,,,,,,FF,,,,,,,,1.017,,,,,,,,,,,,,,,,,,,,,,60fee821d38b78e728a456ff,61036b02e074d6e537aaf697,2021-07-29_20h01.08.785,Simcolourproject_2stim_asymm_v5,2020.2.10,MacIntel,60,61025ae37ef11b136ea224fe,,,,,,,,,1448,81,-80,1,0,0,response3disk,,5,-14,5,1,0,0,rectangle,-14,5,1,0,0,-14,5,1,0,0,1,128,288,18,1,,,,,,,,
,,,,,,,,,,,,,FF,,,,,,,,0.758,,,,,,,,,,,,,,,,,,,,,,60fee821d38b78e728a456ff,61036b02e074d6e537aaf697,2021-07-29_20h01.08.785,Simcolourproject_2stim_asymm_v5,2020.2.10,MacIntel,60,61025ae37ef11b136ea224fe,,,,,,,,,727,67,-99,1,0,0,response3disk,,4,3,5,1,0,0,rectangle,3,5,1,0,0,3,5,1,0,0,1,129,289,9,1,,,,,,,,
,,,,,,,,,,,,,FF,,,,,,,,0.895,,,,,,,,,,,,,,,,,,,,,,60fee821d38b78e728a456ff,61036b02e074d6e537aaf697,2021-07-29_20h01.08.785,Simcolourproject_2stim_asymm_v5,2020.2.10,MacIntel,60,61025ae37ef11b136ea224fe,,,,,,,,,4246,84,-61,1,0,0,response3disk,,5,16,4,1,0,0,rectangle,-61,99,1,0,0,-36,14,1,0,0,1,130,290,3,1,,response7disk_3,TRUE,0,0,"[163,94,142,145,176,128,43,32,169,137,209,157,318,265,291,237,9,119,73,45]",1.643,rectangle
,,,,,,,,,,,,,FF,,,,,,,,1.208,,,,,,,,,,,,,,,,,,,,,,60fee821d38b78e728a456ff,61036b02e074d6e537aaf697,2021-07-29_20h01.08.785,Simcolourproject_2stim_asymm_v5,2020.2.10,MacIntel,60,61025ae37ef11b136ea224fe,,,,,,,,,378,74,-58,1,0,0,response3disk,,5,-3,-2,1,0,0,rectangle,-3,-2,1,0,0,-3,-2,1,0,0,1,131,291,148,1,,,,,,,,
,,,,,,,,,,,,,FF,,,,,,,,0.671,,,,,,,,,,,,,,,,,,,,,,60fee821d38b78e728a456ff,61036b02e074d6e537aaf697,2021-07-29_20h01.08.785,Simcolourproject_2stim_asymm_v5,2020.2.10,MacIntel,60,61025ae37ef11b136ea224fe,,,,,,,,,1426,68,31,1,0,0,response1disk,,6,3,17,1,0,0,rectangle,3,17,1,0,0,3,17,1,0,0,1,132,292,34,1,,,,,,,,
,,,,,,,,,,,,,FF,,,,,,,,0.574,,,,,,,,,,,,,,,,,,,,,,60fee821d38b78e728a456ff,61036b02e074d6e537aaf697,2021-07-29_20h01.08.785,Simcolourproject_2stim_asymm_v5,2020.2.10,MacIntel,60,61025ae37ef11b136ea224fe,,,,,,,,,2507,27,64,1,0,0,response1disk,,7,21,-10,1,0,0,rectangle,21,-10,1,0,0,21,-10,1,0,0,1,133,293,80,1,,,,,,,,
,,,,,,,,,,,,,FF,,,,,,,,0.861,,,,,,,,,,,,,,,,,,,,,,60fee821d38b78e728a456ff,61036b02e074d6e537aaf697,2021-07-29_20h01.08.785,Simcolourproject_2stim_asymm_v5,2020.2.10,MacIntel,60,61025ae37ef11b136ea224fe,,,,,,,,,3055,100,-56,1,0,0,response3disk,,5,24,-18,1,0,0,rectangle,24,-18,1,0,0,24,-18,1,0,0,1,134,294,123,1,,,,,,,,
,,,,,,,,,,,,,FF,,,,,,,,0.753,,,,,,,,,,,,,,,,,,,,,,60fee821d38b78e728a456ff,61036b02e074d6e537aaf697,2021-07-29_20h01.08.785,Simcolourproject_2stim_asymm_v5,2020.2.10,MacIntel,60,61025ae37ef11b136ea224fe,,,,,,,,,1987,78,-42,1,0,0,response3disk,,5,16,-7,1,0,0,rectangle,16,-7,1,0,0,16,-7,1,0,0,1,135,295,39,1,,,,,,,,
,,,,,,,,,,,,,FF,,,,,,,,0.982,,,,,,,,,,,,,,,,,,,,,,60fee821d38b78e728a456ff,61036b02e074d6e537aaf697,2021-07-29_20h01.08.785,Simcolourproject_2stim_asymm_v5,2020.2.10,MacIntel,60,61025ae37ef11b136ea224fe,,,,,,,,,3645,44,93,1,0,0,response1disk,,7,27,4,1,0,0,rectangle,27,4,1,0,0,27,4,1,0,0,1,136,296,81,1,,,,,,,,
,,,,,,,,,,,,,FF,,,,,,,,0.942,,,,,,,,,,,,,,,,,,,,,,60fee821d38b78e728a456ff,61036b02e074d6e537aaf697,2021-07-29_20h01.08.785,Simcolourproject_2stim_asymm_v5,2020.2.10,MacIntel,60,61025ae37ef11b136ea224fe,,,,,,,,,2412,88,-71,1,0,0,response3disk,,5,3,3,1,0,0,rectangle,3,3,1,0,0,3,3,1,0,0,1,137,297,119,1,,,,,,,,
,,,,,,,,,,,,,FF,,,,,,,,0.664,,,,,,,,,,,,,,,,,,,,,,60fee821d38b78e728a456ff,61036b02e074d6e537aaf697,2021-07-29_20h01.08.785,Simcolourproject_2stim_asymm_v5,2020.2.10,MacIntel,60,61025ae37ef11b136ea224fe,,,,,,,,,1023,40,76,1,0,0,response1disk,,7,28,14,1,0,0,rectangle,28,14,1,0,0,28,14,1,0,0,1,138,298,104,1,,,,,,,,
