key_resp.keys,key_resp.rt,key_resp_14.keys,key_resp_14.rt,key_resp_15.keys,key_resp_15.rt,key_resp_17.keys,key_resp_17.rt,key_resp_9.keys,key_resp_9.rt,key_resp_10.keys,key_resp_10.rt,practice_comparison,Ecc,mouse_5.x,mouse_5.y,mouse_5.leftButton,mouse_5.midButton,mouse_5.rightButton,mouse_5.clicked_name,pracsimilarity,response_time,mouse_10.x,mouse_10.y,mouse_10.leftButton,mouse_10.midButton,mouse_10.rightButton,mouse_10.clicked_name,mouse_7.x,mouse_7.y,mouse_7.leftButton,mouse_7.midButton,mouse_7.rightButton,mouse_6.x,mouse_6.y,mouse_6.leftButton,mouse_6.midButton,mouse_6.rightButton,duringprac.thisRepN,duringprac.thisTrialN,duringprac.thisN,duringprac.thisIndex,duringprac.ran,participant,session,date,expName,psychopyVersion,OS,frameRate,study_id,mouse_7.clicked_name,catchpracsimilarity,catch_response_time,catchnumberprac,catchtrialorderprac,mouse_6.clicked_name,key_resp_22.keys,key_resp_22.rt,realcomparison,mouse.x,mouse.y,mouse.leftButton,mouse.midButton,mouse.rightButton,mouse.clicked_name,Colour2,similarity,mouse_2.x,mouse_2.y,mouse_2.leftButton,mouse_2.midButton,mouse_2.rightButton,mouse_2.clicked_name,mouse_3.x,mouse_3.y,mouse_3.leftButton,mouse_3.midButton,mouse_3.rightButton,mouse_11.x,mouse_11.y,mouse_11.leftButton,mouse_11.midButton,mouse_11.rightButton,trials_2.thisRepN,trials_2.thisTrialN,trials_2.thisN,trials_2.thisIndex,trials_2.ran,Colour1,mouse_3.clicked_name,catchornah,catchsimilarity,catchnumber,catchtrialorder,catchRT,mouse_11.clicked_name
space,1.2033,space,11.0823,space,14.6286,space,4.6196,space,0.5784,space,9.0683,83,FF,-71.19998962,82.39999479,1,0,0,response7disk_5,0,4.9663,4.800011516,-8.800006568,1,0,0,rectangle_8,4.800011516,-8.800006568,1,0,0,4.800011516,-8.800006568,1,0,0,0,0,0,3,1,60fe0e062bd2a60fb779f608,61036e7d292d5a54a075b629,2021-07-29_23h14.41.967,Simcolourproject_2stim_asymm_v5,2020.2.10,Win32,60,61025ae37ef11b136ea224fe,,,,,,,,,,,,,,,,,,,,,,,,,,,,,,,,,,,,,,,,,,,,,,
,,,,,,,,,,,,13,PF,58.40001231,53.59999436,1,0,0,response1disk_5,6,1.1702,-6.399939823,3.19999361,1,0,0,rectangle_8,-110.3999414,39.99999416,1,0,0,-9.599988699,1.599993587,1,0,0,0,1,1,6,1,60fe0e062bd2a60fb779f608,61036e7d292d5a54a075b629,2021-07-29_23h14.41.967,Simcolourproject_2stim_asymm_v5,2020.2.10,Win32,60,61025ae37ef11b136ea224fe,response7disk_7,1,3.4551,1,"[2,5]",rectangle_4,,,,,,,,,,,,,,,,,,,,,,,,,,,,,,,,,,,,,,,,
,,,,,,,,,,,,126,FF,-36.7999891,46.39999425,1,0,0,response7disk_5,0,2.6,-3.199988604,2.399993598,1,0,0,rectangle_8,-3.199988604,2.399993598,1,0,0,-3.199988604,2.399993598,1,0,0,0,2,2,0,1,60fe0e062bd2a60fb779f608,61036e7d292d5a54a075b629,2021-07-29_23h14.41.967,Simcolourproject_2stim_asymm_v5,2020.2.10,Win32,60,61025ae37ef11b136ea224fe,,,,,,,,,,,,,,,,,,,,,,,,,,,,,,,,,,,,,,,,,,,,,,
,,,,,,,,,,,,45,PF,43.20001209,115.9999953,1,0,0,response1disk_5,7,6.0673,6.400011539,-12.00000662,1,0,0,rectangle_8,6.400011539,-12.00000662,1,0,0,6.400011539,-12.00000662,1,0,0,0,3,3,4,1,60fe0e062bd2a60fb779f608,61036e7d292d5a54a075b629,2021-07-29_23h14.41.967,Simcolourproject_2stim_asymm_v5,2020.2.10,Win32,60,61025ae37ef11b136ea224fe,,,,,,,,,,,,,,,,,,,,,,,,,,,,,,,,,,,,,,,,,,,,,,
,,,,,,,,,,,,24,FF,49.60006101,94.39999497,1,0,0,response1disk_5,7,3.8056,4.800011516,-4.800006509,1,0,0,rectangle_8,-83.99998981,30.39999402,1,0,0,-7.999988675,5.599993646,1,0,0,0,4,4,5,1,60fe0e062bd2a60fb779f608,61036e7d292d5a54a075b629,2021-07-29_23h14.41.967,Simcolourproject_2stim_asymm_v5,2020.2.10,Win32,60,61025ae37ef11b136ea224fe,response7disk_7,1,2.6678,1,"[2,5]",rectangle_4,,,,,,,,,,,,,,,,,,,,,,,,,,,,,,,,,,,,,,,,
,,,,,,,,,,,,36,PF,41.60006089,113.5999953,1,0,0,response1disk_5,7,4.9882,1.14441E-05,3.999993622,1,0,0,rectangle_8,1.14441E-05,3.999993622,1,0,0,1.14441E-05,3.999993622,1,0,0,0,5,5,1,1,60fe0e062bd2a60fb779f608,61036e7d292d5a54a075b629,2021-07-29_23h14.41.967,Simcolourproject_2stim_asymm_v5,2020.2.10,Win32,60,61025ae37ef11b136ea224fe,,,,,,,,,,,,,,,,,,,,,,,,,,,,,,,,,,,,,,,,,,,,,,
,,,,,,,,,,,,42,PF,-100.7999901,56.79999441,1,0,0,response7disk_5,1,3.851,5.600060356,-1.600006461,1,0,0,rectangle_8,5.600060356,-1.600006461,1,0,0,5.600060356,-1.600006461,1,0,0,0,6,6,2,1,60fe0e062bd2a60fb779f608,61036e7d292d5a54a075b629,2021-07-29_23h14.41.967,Simcolourproject_2stim_asymm_v5,2020.2.10,Win32,60,61025ae37ef11b136ea224fe,,,,,,,,,,,,,,,,,,,,,,,,,,,,,,,,,,,,,,,,,,,,,,
,,,,,,,,,,,,,FF,,,,,,,,10.0847,,,,,,,,,,,,,,,,,,,,,,60fe0e062bd2a60fb779f608,61036e7d292d5a54a075b629,2021-07-29_23h14.41.967,Simcolourproject_2stim_asymm_v5,2020.2.10,Win32,60,61025ae37ef11b136ea224fe,,,,,,,space,4.2196,3658,36.00001198,-61.60000736,1,0,0,response3disk,,4,1.14441E-05,-9.60000658,1,0,0,rectangle,1.14441E-05,-9.60000658,1,0,0,1.14441E-05,-9.60000658,1,0,0,0,0,0,62,1,,,,,,,,
,,,,,,,,,,,,,FF,,,,,,,,2.7834,,,,,,,,,,,,,,,,,,,,,,60fe0e062bd2a60fb779f608,61036e7d292d5a54a075b629,2021-07-29_23h14.41.967,Simcolourproject_2stim_asymm_v5,2020.2.10,Win32,60,61025ae37ef11b136ea224fe,,,,,,,,,436,-55.99998939,-101.6000568,1,0,0,response5disk,,3,2.40001148,3.19999361,1,0,0,rectangle,2.40001148,3.19999361,1,0,0,2.40001148,3.19999361,1,0,0,0,1,1,153,1,,,,,,,,
,,,,,,,,,,,,,FF,,,,,,,,3.6172,,,,,,,,,,,,,,,,,,,,,,60fe0e062bd2a60fb779f608,61036e7d292d5a54a075b629,2021-07-29_23h14.41.967,Simcolourproject_2stim_asymm_v5,2020.2.10,Win32,60,61025ae37ef11b136ea224fe,,,,,,,,,3303,74.40001255,-32.00000691,1,0,0,response3disk,,5,-11.19998872,0.799993575,1,0,0,rectangle,-11.19998872,0.799993575,1,0,0,-11.19998872,0.799993575,1,0,0,0,2,2,51,1,,,,,,,,
,,,,,,,,,,,,,FF,,,,,,,,4.3504,,,,,,,,,,,,,,,,,,,,,,60fe0e062bd2a60fb779f608,61036e7d292d5a54a075b629,2021-07-29_23h14.41.967,Simcolourproject_2stim_asymm_v5,2020.2.10,Win32,60,61025ae37ef11b136ea224fe,,,,,,,,,1930,108.8000131,-53.60000724,1,0,0,response3disk,,5,4.000011504,-8.000006557,1,0,0,rectangle,4.000011504,-8.000006557,1,0,0,4.000011504,-8.000006557,1,0,0,0,3,3,102,1,,,,,,,,
,,,,,,,,,,,,,FF,,,,,,,,1.8676,,,,,,,,,,,,,,,,,,,,,,60fe0e062bd2a60fb779f608,61036e7d292d5a54a075b629,2021-07-29_23h14.41.967,Simcolourproject_2stim_asymm_v5,2020.2.10,Win32,60,61025ae37ef11b136ea224fe,,,,,,,,,970,-102.3999413,41.59999418,1,0,0,response7disk,,1,-20.79998887,-3.200006485,1,0,0,rectangle,-20.79998887,-3.200006485,1,0,0,-20.79998887,-3.200006485,1,0,0,0,4,4,43,1,,,,,,,,
,,,,,,,,,,,,,FF,,,,,,,,1.35,,,,,,,,,,,,,,,,,,,,,,60fe0e062bd2a60fb779f608,61036e7d292d5a54a075b629,2021-07-29_23h14.41.967,Simcolourproject_2stim_asymm_v5,2020.2.10,Win32,60,61025ae37ef11b136ea224fe,,,,,,,,,4049,-60.79998946,-112.0000081,1,0,0,response5disk,,3,-7.999988675,-5.600006521,1,0,0,rectangle,-7.999988675,-5.600006521,1,0,0,-7.999988675,-5.600006521,1,0,0,0,5,5,78,1,,,,,,,,
,,,,,,,,,,,,,FF,,,,,,,,1.7835,,,,,,,,,,,,,,,,,,,,,,60fe0e062bd2a60fb779f608,61036e7d292d5a54a075b629,2021-07-29_23h14.41.967,Simcolourproject_2stim_asymm_v5,2020.2.10,Win32,60,61025ae37ef11b136ea224fe,,,,,,,,,2593,-64.79998952,-112.8000081,1,0,0,response5disk,,3,-8.799988687,-0.800006449,1,0,0,rectangle,-8.799988687,-0.800006449,1,0,0,-8.799988687,-0.800006449,1,0,0,0,6,6,7,1,,,,,,,,
,,,,,,,,,,,,,FF,,,,,,,,1.0671,,,,,,,,,,,,,,,,,,,,,,60fe0e062bd2a60fb779f608,61036e7d292d5a54a075b629,2021-07-29_23h14.41.967,Simcolourproject_2stim_asymm_v5,2020.2.10,Win32,60,61025ae37ef11b136ea224fe,,,,,,,,,3705,-38.3999403,96.79999501,1,0,0,response7disk,,0,-3.999988616,-2.400006473,1,0,0,rectangle,-3.999988616,-2.400006473,1,0,0,-3.999988616,-2.400006473,1,0,0,0,7,7,68,1,,,,,,,,
,,,,,,,,,,,,,FF,,,,,,,,1.4835,,,,,,,,,,,,,,,,,,,,,,60fe0e062bd2a60fb779f608,61036e7d292d5a54a075b629,2021-07-29_23h14.41.967,Simcolourproject_2stim_asymm_v5,2020.2.10,Win32,60,61025ae37ef11b136ea224fe,,,,,,,,,618,-51.99998933,-75.20000756,1,0,0,response5disk,,3,7.200011551,-7.200006545,1,0,0,rectangle,7.200011551,-7.200006545,1,0,0,7.200011551,-7.200006545,1,0,0,0,8,8,89,1,,,,,,,,
,,,,,,,,,,,,,FF,,,,,,,,1.4171,,,,,,,,,,,,,,,,,,,,,,60fe0e062bd2a60fb779f608,61036e7d292d5a54a075b629,2021-07-29_23h14.41.967,Simcolourproject_2stim_asymm_v5,2020.2.10,Win32,60,61025ae37ef11b136ea224fe,,,,,,,,,3528,130.4000134,-32.80000693,1,0,0,response3disk,,5,-19.99998885,-5.600006521,1,0,0,rectangle,-19.99998885,-5.600006521,1,0,0,-19.99998885,-5.600006521,1,0,0,0,9,9,72,1,,,,,,,,
,,,,,,,,,,,,,FF,,,,,,,,1.7713,,,,,,,,,,,,,,,,,,,,,,60fe0e062bd2a60fb779f608,61036e7d292d5a54a075b629,2021-07-29_23h14.41.967,Simcolourproject_2stim_asymm_v5,2020.2.10,Win32,60,61025ae37ef11b136ea224fe,,,,,,,,,3017,64.0000124,-95.20000786,1,0,0,response3disk,,4,4.800011516,-10.40000659,1,0,0,rectangle,4.800011516,-10.40000659,1,0,0,4.800011516,-10.40000659,1,0,0,0,10,10,88,1,,,,,,,,
,,,,,,,,,,,,,FF,,,,,,,,1.15,,,,,,,,,,,,,,,,,,,,,,60fe0e062bd2a60fb779f608,61036e7d292d5a54a075b629,2021-07-29_23h14.41.967,Simcolourproject_2stim_asymm_v5,2020.2.10,Win32,60,61025ae37ef11b136ea224fe,,,,,,,,,2647,33.60006077,-112.8000081,1,0,0,response3disk,,4,1.600060296,-2.400006473,1,0,0,rectangle,-49.5999893,-93.60005666,1,0,0,7.200011551,-5.600006521,1,0,0,0,11,11,144,1,,response5disk_3,TRUE,3,3,"[323,155,282,77,155,271,292,158,60,12,294,47,73,58,89,125,222,246,160,20]",3.1977,rectangle
,,,,,,,,,,,,,FF,,,,,,,,1.0009,,,,,,,,,,,,,,,,,,,,,,60fe0e062bd2a60fb779f608,61036e7d292d5a54a075b629,2021-07-29_23h14.41.967,Simcolourproject_2stim_asymm_v5,2020.2.10,Win32,60,61025ae37ef11b136ea224fe,,,,,,,,,3679,67.20001245,32.79999405,1,0,0,response1disk,,6,16.80001169,-2.400006473,1,0,0,rectangle,16.80001169,-2.400006473,1,0,0,16.80001169,-2.400006473,1,0,0,0,12,12,38,1,,,,,,,,
,,,,,,,,,,,,,FF,,,,,,,,1.0835,,,,,,,,,,,,,,,,,,,,,,60fe0e062bd2a60fb779f608,61036e7d292d5a54a075b629,2021-07-29_23h14.41.967,Simcolourproject_2stim_asymm_v5,2020.2.10,Win32,60,61025ae37ef11b136ea224fe,,,,,,,,,3127,93.60001284,-38.40000701,1,0,0,response3disk,,5,12.80001163,-5.600006521,1,0,0,rectangle,12.80001163,-5.600006521,1,0,0,12.80001163,-5.600006521,1,0,0,0,13,13,1,1,,,,,,,,
,,,,,,,,,,,,,FF,,,,,,,,0.9835,,,,,,,,,,,,,,,,,,,,,,60fe0e062bd2a60fb779f608,61036e7d292d5a54a075b629,2021-07-29_23h14.41.967,Simcolourproject_2stim_asymm_v5,2020.2.10,Win32,60,61025ae37ef11b136ea224fe,,,,,,,,,2537,54.40001225,-79.20000762,1,0,0,response3disk,,4,10.4000116,-8.000006557,1,0,0,rectangle,10.4000116,-8.000006557,1,0,0,10.4000116,-8.000006557,1,0,0,0,14,14,18,1,,,,,,,,
,,,,,,,,,,,,,FF,,,,,,,,0.9797,,,,,,,,,,,,,,,,,,,,,,60fe0e062bd2a60fb779f608,61036e7d292d5a54a075b629,2021-07-29_23h14.41.967,Simcolourproject_2stim_asymm_v5,2020.2.10,Win32,60,61025ae37ef11b136ea224fe,,,,,,,,,3588,106.400013,-38.40000701,1,0,0,response3disk,,5,-11.19998872,7.19999367,0,0,1,rectangle,-11.19998872,7.19999367,0,0,1,-11.19998872,7.19999367,0,0,1,0,15,15,19,1,,,,,,,,
,,,,,,,,,,,,,FF,,,,,,,,2.1671,,,,,,,,,,,,,,,,,,,,,,60fe0e062bd2a60fb779f608,61036e7d292d5a54a075b629,2021-07-29_23h14.41.967,Simcolourproject_2stim_asymm_v5,2020.2.10,Win32,60,61025ae37ef11b136ea224fe,,,,,,,,,2975,60.00001234,-96.80000788,1,0,0,response3disk,,4,1.600060296,-12.00000662,1,0,0,rectangle,1.600060296,-12.00000662,1,0,0,1.600060296,-12.00000662,1,0,0,0,16,16,45,1,,,,,,,,
,,,,,,,,,,,,,FF,,,,,,,,1.8047,,,,,,,,,,,,,,,,,,,,,,60fe0e062bd2a60fb779f608,61036e7d292d5a54a075b629,2021-07-29_23h14.41.967,Simcolourproject_2stim_asymm_v5,2020.2.10,Win32,60,61025ae37ef11b136ea224fe,,,,,,,,,1731,-31.19998902,-112.0000081,1,0,0,response5disk,,3,3.200011492,-8.800006568,1,0,0,rectangle,3.200011492,-8.800006568,1,0,0,3.200011492,-8.800006568,1,0,0,0,17,17,67,1,,,,,,,,
,,,,,,,,,,,,,FF,,,,,,,,1.0508,,,,,,,,,,,,,,,,,,,,,,60fe0e062bd2a60fb779f608,61036e7d292d5a54a075b629,2021-07-29_23h14.41.967,Simcolourproject_2stim_asymm_v5,2020.2.10,Win32,60,61025ae37ef11b136ea224fe,,,,,,,,,2611,87.20001274,-47.20000714,1,0,0,response3disk,,5,15.20001167,-0.800006449,1,0,0,rectangle,15.20001167,-0.800006449,1,0,0,15.20001167,-0.800006449,1,0,0,0,18,18,142,1,,,,,,,,
,,,,,,,,,,,,,FF,,,,,,,,1.034,,,,,,,,,,,,,,,,,,,,,,60fe0e062bd2a60fb779f608,61036e7d292d5a54a075b629,2021-07-29_23h14.41.967,Simcolourproject_2stim_asymm_v5,2020.2.10,Win32,60,61025ae37ef11b136ea224fe,,,,,,,,,3468,-54.39994054,97.59999502,1,0,0,response7disk,,0,-8.799988687,1.599993587,1,0,0,rectangle,-47.99998927,-93.60005666,1,0,0,4.800011516,-4.000006497,1,0,0,0,19,19,107,1,,response5disk_3,TRUE,3,3,"[323,155,282,77,155,271,292,158,60,12,294,47,73,58,89,125,222,246,160,20]",2.4832,rectangle
,,,,,,,,,,,,,FF,,,,,,,,1.1834,,,,,,,,,,,,,,,,,,,,,,60fe0e062bd2a60fb779f608,61036e7d292d5a54a075b629,2021-07-29_23h14.41.967,Simcolourproject_2stim_asymm_v5,2020.2.10,Win32,60,61025ae37ef11b136ea224fe,,,,,,,,,1117,34.40001196,-84.00000769,1,0,0,response3disk,,4,14.40001166,-7.200006545,1,0,0,rectangle,14.40001166,-7.200006545,1,0,0,14.40001166,-7.200006545,1,0,0,0,20,20,116,1,,,,,,,,
,,,,,,,,,,,,,FF,,,,,,,,0.9836,,,,,,,,,,,,,,,,,,,,,,60fe0e062bd2a60fb779f608,61036e7d292d5a54a075b629,2021-07-29_23h14.41.967,Simcolourproject_2stim_asymm_v5,2020.2.10,Win32,60,61025ae37ef11b136ea224fe,,,,,,,,,3016,92.80001283,-35.20000696,1,0,0,response3disk,,5,0.800011456,9.599993706,1,0,0,rectangle,0.800011456,9.599993706,1,0,0,0.800011456,9.599993706,1,0,0,0,21,21,70,1,,,,,,,,
,,,,,,,,,,,,,FF,,,,,,,,1.0335,,,,,,,,,,,,,,,,,,,,,,60fe0e062bd2a60fb779f608,61036e7d292d5a54a075b629,2021-07-29_23h14.41.967,Simcolourproject_2stim_asymm_v5,2020.2.10,Win32,60,61025ae37ef11b136ea224fe,,,,,,,,,1775,-51.99998933,-88.00000775,1,0,0,response5disk,,3,-5.599988639,-1.600006461,1,0,0,rectangle,-5.599988639,-1.600006461,1,0,0,-5.599988639,-1.600006461,1,0,0,0,22,22,113,1,,,,,,,,
,,,,,,,,,,,,,FF,,,,,,,,1.3,,,,,,,,,,,,,,,,,,,,,,60fe0e062bd2a60fb779f608,61036e7d292d5a54a075b629,2021-07-29_23h14.41.967,Simcolourproject_2stim_asymm_v5,2020.2.10,Win32,60,61025ae37ef11b136ea224fe,,,,,,,,,2317,100.8000129,51.19996991,1,0,0,response1disk,,6,-8.799988687,-7.200006545,1,0,0,rectangle,-8.799988687,-7.200006545,1,0,0,-8.799988687,-7.200006545,1,0,0,0,23,23,154,1,,,,,,,,
,,,,,,,,,,,,,FF,,,,,,,,1.1669,,,,,,,,,,,,,,,,,,,,,,60fe0e062bd2a60fb779f608,61036e7d292d5a54a075b629,2021-07-29_23h14.41.967,Simcolourproject_2stim_asymm_v5,2020.2.10,Win32,60,61025ae37ef11b136ea224fe,,,,,,,,,2754,-85.59998983,-49.60000718,1,0,0,response5disk,,2,2.40001148,-6.400006533,1,0,0,rectangle,2.40001148,-6.400006533,1,0,0,2.40001148,-6.400006533,1,0,0,0,24,24,86,1,,,,,,,,
,,,,,,,,,,,,,FF,,,,,,,,1.1505,,,,,,,,,,,,,,,,,,,,,,60fe0e062bd2a60fb779f608,61036e7d292d5a54a075b629,2021-07-29_23h14.41.967,Simcolourproject_2stim_asymm_v5,2020.2.10,Win32,60,61025ae37ef11b136ea224fe,,,,,,,,,2674,63.20001239,-42.40000707,1,0,0,response3disk,,5,7.200011551,-2.400006473,1,0,0,rectangle,7.200011551,-2.400006473,1,0,0,7.200011551,-2.400006473,1,0,0,0,25,25,53,1,,,,,,,,
,,,,,,,,,,,,,FF,,,,,,,,0.9882,,,,,,,,,,,,,,,,,,,,,,60fe0e062bd2a60fb779f608,61036e7d292d5a54a075b629,2021-07-29_23h14.41.967,Simcolourproject_2stim_asymm_v5,2020.2.10,Win32,60,61025ae37ef11b136ea224fe,,,,,,,,,1846,78.40001261,28.79999399,1,0,0,response1disk,,6,2.40001148,-4.800006509,1,0,0,rectangle,2.40001148,-4.800006509,1,0,0,2.40001148,-4.800006509,1,0,0,0,26,26,132,1,,,,,,,,
,,,,,,,,,,,,,FF,,,,,,,,1.2345,,,,,,,,,,,,,,,,,,,,,,60fe0e062bd2a60fb779f608,61036e7d292d5a54a075b629,2021-07-29_23h14.41.967,Simcolourproject_2stim_asymm_v5,2020.2.10,Win32,60,61025ae37ef11b136ea224fe,,,,,,,,,3244,-39.99998915,-112.0000081,1,0,0,response5disk,,3,12.00001162,-6.400006533,1,0,0,rectangle,12.00001162,-6.400006533,1,0,0,12.00001162,-6.400006533,1,0,0,0,27,27,22,1,,,,,,,,
,,,,,,,,,,,,,FF,,,,,,,,1.0005,,,,,,,,,,,,,,,,,,,,,,60fe0e062bd2a60fb779f608,61036e7d292d5a54a075b629,2021-07-29_23h14.41.967,Simcolourproject_2stim_asymm_v5,2020.2.10,Win32,60,61025ae37ef11b136ea224fe,,,,,,,,,246,69.60001248,20.79999387,1,0,0,response1disk,,6,2.40001148,8.799993694,1,0,0,rectangle,2.40001148,8.799993694,1,0,0,2.40001148,8.799993694,1,0,0,0,28,28,120,1,,,,,,,,
,,,,,,,,,,,,,FF,,,,,,,,0.9668,,,,,,,,,,,,,,,,,,,,,,60fe0e062bd2a60fb779f608,61036e7d292d5a54a075b629,2021-07-29_23h14.41.967,Simcolourproject_2stim_asymm_v5,2020.2.10,Win32,60,61025ae37ef11b136ea224fe,,,,,,,,,2920,113.6000131,-47.20000714,1,0,0,response3disk,,5,14.40001166,7.19999367,1,0,0,rectangle,14.40001166,7.19999367,1,0,0,14.40001166,7.19999367,1,0,0,0,29,29,130,1,,,,,,,,
,,,,,,,,,,,,,FF,,,,,,,,1.867,,,,,,,,,,,,,,,,,,,,,,60fe0e062bd2a60fb779f608,61036e7d292d5a54a075b629,2021-07-29_23h14.41.967,Simcolourproject_2stim_asymm_v5,2020.2.10,Win32,60,61025ae37ef11b136ea224fe,,,,,,,,,3663,64.0000124,-36.80000699,1,0,0,response3disk,,5,18.40001172,4.799993634,1,0,0,rectangle,18.40001172,4.799993634,1,0,0,18.40001172,4.799993634,1,0,0,0,30,30,137,1,,,,,,,,
,,,,,,,,,,,,,FF,,,,,,,,2.0836,,,,,,,,,,,,,,,,,,,,,,60fe0e062bd2a60fb779f608,61036e7d292d5a54a075b629,2021-07-29_23h14.41.967,Simcolourproject_2stim_asymm_v5,2020.2.10,Win32,60,61025ae37ef11b136ea224fe,,,,,,,,,685,52.80001223,-112.0000081,1,0,0,response3disk,,4,0.800011456,3.999993622,1,0,0,rectangle,0.800011456,3.999993622,1,0,0,0.800011456,3.999993622,1,0,0,0,31,31,76,1,,,,,,,,
,,,,,,,,,,,,,FF,,,,,,,,1.0168,,,,,,,,,,,,,,,,,,,,,,60fe0e062bd2a60fb779f608,61036e7d292d5a54a075b629,2021-07-29_23h14.41.967,Simcolourproject_2stim_asymm_v5,2020.2.10,Win32,60,61025ae37ef11b136ea224fe,,,,,,,,,1652,97.6000129,68.79999459,1,0,0,response1disk,,6,8.800011575,2.399993598,1,0,0,rectangle,8.800011575,2.399993598,1,0,0,8.800011575,2.399993598,1,0,0,0,32,32,66,1,,,,,,,,
,,,,,,,,,,,,,FF,,,,,,,,1.3834,,,,,,,,,,,,,,,,,,,,,,60fe0e062bd2a60fb779f608,61036e7d292d5a54a075b629,2021-07-29_23h14.41.967,Simcolourproject_2stim_asymm_v5,2020.2.10,Win32,60,61025ae37ef11b136ea224fe,,,,,,,,,4016,-27.19998896,-68.00000745,1,0,0,response5disk,,3,-5.599988639,15.9999938,1,0,0,rectangle,-5.599988639,15.9999938,1,0,0,-5.599988639,15.9999938,1,0,0,0,33,33,99,1,,,,,,,,
,,,,,,,,,,,,,FF,,,,,,,,1.0339,,,,,,,,,,,,,,,,,,,,,,60fe0e062bd2a60fb779f608,61036e7d292d5a54a075b629,2021-07-29_23h14.41.967,Simcolourproject_2stim_asymm_v5,2020.2.10,Win32,60,61025ae37ef11b136ea224fe,,,,,,,,,2017,51.20001221,88.79999489,1,0,0,response1disk,,7,-17.59998882,3.19999361,1,0,0,rectangle,-17.59998882,3.19999361,1,0,0,-17.59998882,3.19999361,1,0,0,0,34,34,115,1,,,,,,,,
,,,,,,,,,,,,,FF,,,,,,,,0.8555,,,,,,,,,,,,,,,,,,,,,,60fe0e062bd2a60fb779f608,61036e7d292d5a54a075b629,2021-07-29_23h14.41.967,Simcolourproject_2stim_asymm_v5,2020.2.10,Win32,60,61025ae37ef11b136ea224fe,,,,,,,,,2490,-48.79998928,-90.40000778,1,0,0,response5disk,,3,5.600060356,-3.200006485,1,0,0,rectangle,5.600060356,-3.200006485,1,0,0,5.600060356,-3.200006485,1,0,0,0,35,35,54,1,,,,,,,,
,,,,,,,,,,,,,FF,,,,,,,,1.0503,,,,,,,,,,,,,,,,,,,,,,60fe0e062bd2a60fb779f608,61036e7d292d5a54a075b629,2021-07-29_23h14.41.967,Simcolourproject_2stim_asymm_v5,2020.2.10,Win32,60,61025ae37ef11b136ea224fe,,,,,,,,,3142,-91.19998991,40.79999417,1,0,0,response7disk,,1,10.4000116,-5.600006521,1,0,0,rectangle,10.4000116,-5.600006521,1,0,0,10.4000116,-5.600006521,1,0,0,0,36,36,64,1,,,,,,,,
,,,,,,,,,,,,,FF,,,,,,,,0.7003,,,,,,,,,,,,,,,,,,,,,,60fe0e062bd2a60fb779f608,61036e7d292d5a54a075b629,2021-07-29_23h14.41.967,Simcolourproject_2stim_asymm_v5,2020.2.10,Win32,60,61025ae37ef11b136ea224fe,,,,,,,,,1498,96.00001287,-68.00000745,1,0,0,response3disk,,5,9.600060415,1.599993587,1,0,0,rectangle,9.600060415,1.599993587,1,0,0,9.600060415,1.599993587,1,0,0,0,37,37,59,1,,,,,,,,
,,,,,,,,,,,,,FF,,,,,,,,1.0168,,,,,,,,,,,,,,,,,,,,,,60fe0e062bd2a60fb779f608,61036e7d292d5a54a075b629,2021-07-29_23h14.41.967,Simcolourproject_2stim_asymm_v5,2020.2.10,Win32,60,61025ae37ef11b136ea224fe,,,,,,,,,3196,77.6000126,-22.40000677,1,0,0,response3disk,,5,16.00001168,-4.800006509,1,0,0,rectangle,16.00001168,-4.800006509,1,0,0,16.00001168,-4.800006509,1,0,0,0,38,38,16,1,,,,,,,,
,,,,,,,,,,,,,FF,,,,,,,,0.7002,,,,,,,,,,,,,,,,,,,,,,60fe0e062bd2a60fb779f608,61036e7d292d5a54a075b629,2021-07-29_23h14.41.967,Simcolourproject_2stim_asymm_v5,2020.2.10,Win32,60,61025ae37ef11b136ea224fe,,,,,,,,,1269,91.2000128,-48.00000715,1,0,0,response3disk,,5,20.80001175,-9.60000658,1,0,0,rectangle,20.80001175,-9.60000658,1,0,0,20.80001175,-9.60000658,1,0,0,0,39,39,49,1,,,,,,,,
,,,,,,,,,,,,,FF,,,,,,,,0.7667,,,,,,,,,,,,,,,,,,,,,,60fe0e062bd2a60fb779f608,61036e7d292d5a54a075b629,2021-07-29_23h14.41.967,Simcolourproject_2stim_asymm_v5,2020.2.10,Win32,60,61025ae37ef11b136ea224fe,,,,,,,,,1898,54.40001225,-92.00000781,1,0,0,response3disk,,4,1.14441E-05,-0.800006449,1,0,0,rectangle,1.14441E-05,-0.800006449,1,0,0,1.14441E-05,-0.800006449,1,0,0,0,40,40,84,1,,,,,,,,
,,,,,,,,,,,,,FF,,,,,,,,1.8046,,,,,,,,,,,,,,,,,,,,,,60fe0e062bd2a60fb779f608,61036e7d292d5a54a075b629,2021-07-29_23h14.41.967,Simcolourproject_2stim_asymm_v5,2020.2.10,Win32,60,61025ae37ef11b136ea224fe,,,,,,,,,4035,-37.59998912,-94.40000784,1,0,0,response5disk,,3,-14.39993994,11.19999373,1,0,0,rectangle,-14.39993994,11.19999373,1,0,0,-14.39993994,11.19999373,1,0,0,0,41,41,118,1,,,,,,,,
,,,,,,,,,,,,,FF,,,,,,,,1.6005,,,,,,,,,,,,,,,,,,,,,,60fe0e062bd2a60fb779f608,61036e7d292d5a54a075b629,2021-07-29_23h14.41.967,Simcolourproject_2stim_asymm_v5,2020.2.10,Win32,60,61025ae37ef11b136ea224fe,,,,,,,,,4241,-67.19998956,-48.80000716,1,0,0,response5disk,,2,-14.39993994,-4.000006497,1,0,0,rectangle,-14.39993994,-4.000006497,1,0,0,-14.39993994,-4.000006497,1,0,0,0,42,42,114,1,,,,,,,,
,,,,,,,,,,,,,FF,,,,,,,,0.9455,,,,,,,,,,,,,,,,,,,,,,60fe0e062bd2a60fb779f608,61036e7d292d5a54a075b629,2021-07-29_23h14.41.967,Simcolourproject_2stim_asymm_v5,2020.2.10,Win32,60,61025ae37ef11b136ea224fe,,,,,,,,,1319,97.6000129,-36.00000697,1,0,0,response3disk,,5,-10.39993988,-0.800006449,1,0,0,rectangle,-10.39993988,-0.800006449,1,0,0,-10.39993988,-0.800006449,1,0,0,0,43,43,71,1,,,,,,,,
,,,,,,,,,,,,,FF,,,,,,,,1.95,,,,,,,,,,,,,,,,,,,,,,60fe0e062bd2a60fb779f608,61036e7d292d5a54a075b629,2021-07-29_23h14.41.967,Simcolourproject_2stim_asymm_v5,2020.2.10,Win32,60,61025ae37ef11b136ea224fe,,,,,,,,,2415,121.6000133,55.19996997,1,0,0,response1disk,,6,2.40001148,-4.800006509,1,0,0,rectangle,2.40001148,-4.800006509,1,0,0,2.40001148,-4.800006509,1,0,0,0,44,44,15,1,,,,,,,,
,,,,,,,,,,,,,FF,,,,,,,,1.8168,,,,,,,,,,,,,,,,,,,,,,60fe0e062bd2a60fb779f608,61036e7d292d5a54a075b629,2021-07-29_23h14.41.967,Simcolourproject_2stim_asymm_v5,2020.2.10,Win32,60,61025ae37ef11b136ea224fe,,,,,,,,,4333,-84.79998982,-53.60000724,1,0,0,response5disk,,2,0.800011456,5.599993646,1,0,0,rectangle,0.800011456,5.599993646,1,0,0,0.800011456,5.599993646,1,0,0,0,45,45,90,1,,,,,,,,
,,,,,,,,,,,,,FF,,,,,,,,1.8836,,,,,,,,,,,,,,,,,,,,,,60fe0e062bd2a60fb779f608,61036e7d292d5a54a075b629,2021-07-29_23h14.41.967,Simcolourproject_2stim_asymm_v5,2020.2.10,Win32,60,61025ae37ef11b136ea224fe,,,,,,,,,3629,75.20001256,-27.20000684,1,0,0,response3disk,,5,1.600060296,-1.600006461,1,0,0,rectangle,-39.99998915,83.19997039,1,0,0,0.800011456,3.999993622,1,0,0,0,46,46,0,1,,response7disk_3,TRUE,0,0,"[323,155,282,77,155,271,292,158,60,12,294,47,73,58,89,125,222,246,160,20]",1.8669,rectangle
,,,,,,,,,,,,,FF,,,,,,,,3.6833,,,,,,,,,,,,,,,,,,,,,,60fe0e062bd2a60fb779f608,61036e7d292d5a54a075b629,2021-07-29_23h14.41.967,Simcolourproject_2stim_asymm_v5,2020.2.10,Win32,60,61025ae37ef11b136ea224fe,,,,,,,,,1800,89.60001278,38.39999413,1,0,0,response1disk,,6,-0.799988568,11.99999374,1,0,0,rectangle,-0.799988568,11.99999374,1,0,0,-0.799988568,11.99999374,1,0,0,0,47,47,37,1,,,,,,,,
,,,,,,,,,,,,,FF,,,,,,,,1.4006,,,,,,,,,,,,,,,,,,,,,,60fe0e062bd2a60fb779f608,61036e7d292d5a54a075b629,2021-07-29_23h14.41.967,Simcolourproject_2stim_asymm_v5,2020.2.10,Win32,60,61025ae37ef11b136ea224fe,,,,,,,,,1446,-118.3999415,50.39999431,1,0,0,response7disk,,1,-9.599988699,-9.60000658,1,0,0,rectangle,-9.599988699,-9.60000658,1,0,0,-9.599988699,-9.60000658,1,0,0,0,48,48,48,1,,,,,,,,
,,,,,,,,,,,,,FF,,,,,,,,1.1001,,,,,,,,,,,,,,,,,,,,,,60fe0e062bd2a60fb779f608,61036e7d292d5a54a075b629,2021-07-29_23h14.41.967,Simcolourproject_2stim_asymm_v5,2020.2.10,Win32,60,61025ae37ef11b136ea224fe,,,,,,,,,2860,-32.79998904,-98.4000079,1,0,0,response5disk,,3,-4.799988627,-8.800006568,1,0,0,rectangle,-4.799988627,-8.800006568,1,0,0,-4.799988627,-8.800006568,1,0,0,0,49,49,146,1,,,,,,,,
,,,,,,,,,,,,,FF,,,,,,,,1.1501,,,,,,,,,,,,,,,,,,,,,,60fe0e062bd2a60fb779f608,61036e7d292d5a54a075b629,2021-07-29_23h14.41.967,Simcolourproject_2stim_asymm_v5,2020.2.10,Win32,60,61025ae37ef11b136ea224fe,,,,,,,,,2946,125.6000133,-75.20000756,1,0,0,response3disk,,5,-0.799988568,-8.000006557,1,0,0,rectangle,-0.799988568,-8.000006557,1,0,0,-0.799988568,-8.000006557,1,0,0,0,50,50,24,1,,,,,,,,
,,,,,,,,,,,,,FF,,,,,,,,1.0497,,,,,,,,,,,,,,,,,,,,,,60fe0e062bd2a60fb779f608,61036e7d292d5a54a075b629,2021-07-29_23h14.41.967,Simcolourproject_2stim_asymm_v5,2020.2.10,Win32,60,61025ae37ef11b136ea224fe,,,,,,,,,3403,76.00001258,36.79999411,1,0,0,response1disk,,6,-0.799988568,-1.600006461,1,0,0,rectangle,-0.799988568,-1.600006461,1,0,0,-0.799988568,-1.600006461,1,0,0,0,51,51,83,1,,,,,,,,
,,,,,,,,,,,,,FF,,,,,,,,2.3168,,,,,,,,,,,,,,,,,,,,,,60fe0e062bd2a60fb779f608,61036e7d292d5a54a075b629,2021-07-29_23h14.41.967,Simcolourproject_2stim_asymm_v5,2020.2.10,Win32,60,61025ae37ef11b136ea224fe,,,,,,,,,3285,-40.79998916,-80.00000763,1,0,0,response5disk,,3,-0.799988568,-3.200006485,1,0,0,rectangle,-0.799988568,-3.200006485,1,0,0,-0.799988568,-3.200006485,1,0,0,0,52,52,103,1,,,,,,,,
,,,,,,,,,,,,,FF,,,,,,,,1.4884,,,,,,,,,,,,,,,,,,,,,,60fe0e062bd2a60fb779f608,61036e7d292d5a54a075b629,2021-07-29_23h14.41.967,Simcolourproject_2stim_asymm_v5,2020.2.10,Win32,60,61025ae37ef11b136ea224fe,,,,,,,,,453,71.20001251,-92.80000782,1,0,0,response3disk,,4,3.200011492,-6.400006533,1,0,0,rectangle,3.200011492,-6.400006533,1,0,0,3.200011492,-6.400006533,1,0,0,0,53,53,122,1,,,,,,,,
,,,,,,,,,,,,,FF,,,,,,,,2.4506,,,,,,,,,,,,,,,,,,,,,,60fe0e062bd2a60fb779f608,61036e7d292d5a54a075b629,2021-07-29_23h14.41.967,Simcolourproject_2stim_asymm_v5,2020.2.10,Win32,60,61025ae37ef11b136ea224fe,,,,,,,,,4335,-53.59998935,102.3999951,1,0,0,response7disk,,0,-0.799988568,7.19999367,1,0,0,rectangle,-0.799988568,7.19999367,1,0,0,-0.799988568,7.19999367,1,0,0,0,54,54,155,1,,,,,,,,
,,,,,,,,,,,,,FF,,,,,,,,1.5166,,,,,,,,,,,,,,,,,,,,,,60fe0e062bd2a60fb779f608,61036e7d292d5a54a075b629,2021-07-29_23h14.41.967,Simcolourproject_2stim_asymm_v5,2020.2.10,Win32,60,61025ae37ef11b136ea224fe,,,,,,,,,4222,-85.59998983,-44.8000071,1,0,0,response5disk,,2,-5.599988639,-3.200006485,1,0,0,rectangle,-5.599988639,-3.200006485,1,0,0,-5.599988639,-3.200006485,1,0,0,0,55,55,96,1,,,,,,,,
,,,,,,,,,,,,,FF,,,,,,,,0.9888,,,,,,,,,,,,,,,,,,,,,,60fe0e062bd2a60fb779f608,61036e7d292d5a54a075b629,2021-07-29_23h14.41.967,Simcolourproject_2stim_asymm_v5,2020.2.10,Win32,60,61025ae37ef11b136ea224fe,,,,,,,,,1021,-45.59998924,-96.00000787,1,0,0,response5disk,,3,-4.799988627,-13.60000664,1,0,0,rectangle,-4.799988627,-13.60000664,1,0,0,-4.799988627,-13.60000664,1,0,0,0,56,56,25,1,,,,,,,,
,,,,,,,,,,,,,FF,,,,,,,,0.9341,,,,,,,,,,,,,,,,,,,,,,60fe0e062bd2a60fb779f608,61036e7d292d5a54a075b629,2021-07-29_23h14.41.967,Simcolourproject_2stim_asymm_v5,2020.2.10,Win32,60,61025ae37ef11b136ea224fe,,,,,,,,,1420,51.20001221,-102.400008,1,0,0,response3disk,,4,11.20001161,5.599993646,1,0,0,rectangle,46.40001214,-96.80000788,1,0,0,12.80001163,-4.800006509,1,0,0,0,57,57,92,1,,response3disk_3,TRUE,4,4,"[323,155,282,77,155,271,292,158,60,12,294,47,73,58,89,125,222,246,160,20]",1.4835,rectangle
,,,,,,,,,,,,,FF,,,,,,,,1.4173,,,,,,,,,,,,,,,,,,,,,,60fe0e062bd2a60fb779f608,61036e7d292d5a54a075b629,2021-07-29_23h14.41.967,Simcolourproject_2stim_asymm_v5,2020.2.10,Win32,60,61025ae37ef11b136ea224fe,,,,,,,,,1501,93.60001284,51.19996991,1,0,0,response1disk,,6,5.600060356,5.599993646,1,0,0,rectangle,5.600060356,5.599993646,1,0,0,5.600060356,5.599993646,1,0,0,0,58,58,148,1,,,,,,,,
,,,,,,,,,,,,,FF,,,,,,,,1.0327,,,,,,,,,,,,,,,,,,,,,,60fe0e062bd2a60fb779f608,61036e7d292d5a54a075b629,2021-07-29_23h14.41.967,Simcolourproject_2stim_asymm_v5,2020.2.10,Win32,60,61025ae37ef11b136ea224fe,,,,,,,,,227,98.40001291,-55.20000726,1,0,0,response3disk,,5,1.14441E-05,-9.60000658,1,0,0,rectangle,-68.79998958,-48.00000715,1,0,0,11.20001161,2.399993598,1,0,0,0,59,59,95,1,,response5disk_3,TRUE,2,2,"[323,155,282,77,155,271,292,158,60,12,294,47,73,58,89,125,222,246,160,20]",1.7832,rectangle
,,,,,,,,,,,,,FF,,,,,,,,1.0001,,,,,,,,,,,,,,,,,,,,,,60fe0e062bd2a60fb779f608,61036e7d292d5a54a075b629,2021-07-29_23h14.41.967,Simcolourproject_2stim_asymm_v5,2020.2.10,Win32,60,61025ae37ef11b136ea224fe,,,,,,,,,470,-85.59998983,-40.00000703,1,0,0,response5disk,,2,4.000011504,16.79999381,1,0,0,rectangle,4.000011504,16.79999381,1,0,0,4.000011504,16.79999381,1,0,0,0,60,60,139,1,,,,,,,,
,,,,,,,,,,,,,FF,,,,,,,,1.1505,,,,,,,,,,,,,,,,,,,,,,60fe0e062bd2a60fb779f608,61036e7d292d5a54a075b629,2021-07-29_23h14.41.967,Simcolourproject_2stim_asymm_v5,2020.2.10,Win32,60,61025ae37ef11b136ea224fe,,,,,,,,,3879,63.20001239,-92.80000782,1,0,0,response3disk,,4,10.4000116,1.599993587,1,0,0,rectangle,10.4000116,1.599993587,1,0,0,10.4000116,1.599993587,1,0,0,0,61,61,39,1,,,,,,,,
,,,,,,,,,,,,,FF,,,,,,,,2.1833,,,,,,,,,,,,,,,,,,,,,,60fe0e062bd2a60fb779f608,61036e7d292d5a54a075b629,2021-07-29_23h14.41.967,Simcolourproject_2stim_asymm_v5,2020.2.10,Win32,60,61025ae37ef11b136ea224fe,,,,,,,,,1433,112.0000131,-57.6000073,1,0,0,response3disk,,5,-1.59998858,5.599993646,1,0,0,rectangle,-1.59998858,5.599993646,1,0,0,-1.59998858,5.599993646,1,0,0,0,62,62,87,1,,,,,,,,
,,,,,,,,,,,,,FF,,,,,,,,1.4497,,,,,,,,,,,,,,,,,,,,,,60fe0e062bd2a60fb779f608,61036e7d292d5a54a075b629,2021-07-29_23h14.41.967,Simcolourproject_2stim_asymm_v5,2020.2.10,Win32,60,61025ae37ef11b136ea224fe,,,,,,,,,981,-41.59998918,-102.400008,1,0,0,response5disk,,3,2.40001148,-4.800006509,1,0,0,rectangle,2.40001148,-4.800006509,1,0,0,2.40001148,-4.800006509,1,0,0,0,63,63,26,1,,,,,,,,
,,,,,,,,,,,,,FF,,,,,,,,1.0053,,,,,,,,,,,,,,,,,,,,,,60fe0e062bd2a60fb779f608,61036e7d292d5a54a075b629,2021-07-29_23h14.41.967,Simcolourproject_2stim_asymm_v5,2020.2.10,Win32,60,61025ae37ef11b136ea224fe,,,,,,,,,4257,110.4000131,51.19996991,1,0,0,response1disk,,6,4.800011516,-5.600006521,1,0,0,rectangle,4.800011516,-5.600006521,1,0,0,4.800011516,-5.600006521,1,0,0,0,64,64,104,1,,,,,,,,
,,,,,,,,,,,,,FF,,,,,,,,0.9837,,,,,,,,,,,,,,,,,,,,,,60fe0e062bd2a60fb779f608,61036e7d292d5a54a075b629,2021-07-29_23h14.41.967,Simcolourproject_2stim_asymm_v5,2020.2.10,Win32,60,61025ae37ef11b136ea224fe,,,,,,,,,2924,-50.39994048,-82.40000767,1,0,0,response5disk,,3,0.800011456,-11.2000066,1,0,0,rectangle,0.800011456,-11.2000066,1,0,0,0.800011456,-11.2000066,1,0,0,0,65,65,129,1,,,,,,,,
,,,,,,,,,,,,,FF,,,,,,,,0.8714,,,,,,,,,,,,,,,,,,,,,,60fe0e062bd2a60fb779f608,61036e7d292d5a54a075b629,2021-07-29_23h14.41.967,Simcolourproject_2stim_asymm_v5,2020.2.10,Win32,60,61025ae37ef11b136ea224fe,,,,,,,,,2576,80.80001265,-30.40000689,1,0,0,response3disk,,5,-11.19998872,-6.4373E-06,1,0,0,rectangle,-11.19998872,-6.4373E-06,1,0,0,-11.19998872,-6.4373E-06,1,0,0,0,66,66,40,1,,,,,,,,
,,,,,,,,,,,,,FF,,,,,,,,0.9847,,,,,,,,,,,,,,,,,,,,,,60fe0e062bd2a60fb779f608,61036e7d292d5a54a075b629,2021-07-29_23h14.41.967,Simcolourproject_2stim_asymm_v5,2020.2.10,Win32,60,61025ae37ef11b136ea224fe,,,,,,,,,2202,105.600013,56.79999441,1,0,0,response1disk,,6,1.14441E-05,7.19999367,1,0,0,rectangle,1.14441E-05,7.19999367,1,0,0,1.14441E-05,7.19999367,1,0,0,0,67,67,128,1,,,,,,,,
,,,,,,,,,,,,,FF,,,,,,,,1.1339,,,,,,,,,,,,,,,,,,,,,,60fe0e062bd2a60fb779f608,61036e7d292d5a54a075b629,2021-07-29_23h14.41.967,Simcolourproject_2stim_asymm_v5,2020.2.10,Win32,60,61025ae37ef11b136ea224fe,,,,,,,,,3853,-49.5999893,86.39999485,1,0,0,response7disk,,0,-7.999988675,8.799993694,1,0,0,rectangle,-7.999988675,8.799993694,1,0,0,-7.999988675,8.799993694,1,0,0,0,68,68,52,1,,,,,,,,
,,,,,,,,,,,,,FF,,,,,,,,0.8836,,,,,,,,,,,,,,,,,,,,,,60fe0e062bd2a60fb779f608,61036e7d292d5a54a075b629,2021-07-29_23h14.41.967,Simcolourproject_2stim_asymm_v5,2020.2.10,Win32,60,61025ae37ef11b136ea224fe,,,,,,,,,2615,-75.99998969,-43.20000708,1,0,0,response5disk,,2,2.40001148,-8.000006557,1,0,0,rectangle,2.40001148,-8.000006557,1,0,0,2.40001148,-8.000006557,1,0,0,0,69,69,14,1,,,,,,,,
,,,,,,,,,,,,,FF,,,,,,,,0.633,,,,,,,,,,,,,,,,,,,,,,60fe0e062bd2a60fb779f608,61036e7d292d5a54a075b629,2021-07-29_23h14.41.967,Simcolourproject_2stim_asymm_v5,2020.2.10,Win32,60,61025ae37ef11b136ea224fe,,,,,,,,,965,-50.39994048,-93.60005666,1,0,0,response5disk,,3,4.800011516,7.999993682,1,0,0,rectangle,4.800011516,7.999993682,1,0,0,4.800011516,7.999993682,1,0,0,0,70,70,91,1,,,,,,,,
,,,,,,,,,,,,,FF,,,,,,,,0.7885,,,,,,,,,,,,,,,,,,,,,,60fe0e062bd2a60fb779f608,61036e7d292d5a54a075b629,2021-07-29_23h14.41.967,Simcolourproject_2stim_asymm_v5,2020.2.10,Win32,60,61025ae37ef11b136ea224fe,,,,,,,,,1101,104.800013,-48.80000716,1,0,0,response3disk,,5,-4.799988627,-0.800006449,1,0,0,rectangle,-4.799988627,-0.800006449,1,0,0,-4.799988627,-0.800006449,1,0,0,0,71,71,111,1,,,,,,,,
,,,,,,,,,,,,,FF,,,,,,,,0.7837,,,,,,,,,,,,,,,,,,,,,,60fe0e062bd2a60fb779f608,61036e7d292d5a54a075b629,2021-07-29_23h14.41.967,Simcolourproject_2stim_asymm_v5,2020.2.10,Win32,60,61025ae37ef11b136ea224fe,,,,,,,,,1161,66.40001243,26.39999396,1,0,0,response1disk,,6,6.400011539,2.399993598,1,0,0,rectangle,46.40001214,104.7999951,1,0,0,-5.599988639,0.799993575,1,0,0,0,72,72,4,1,,response1disk_3,TRUE,7,0,"[323,155,282,77,155,271,292,158,60,12,294,47,73,58,89,125,222,246,160,20]",1.267,rectangle
,,,,,,,,,,,,,FF,,,,,,,,0.7459,,,,,,,,,,,,,,,,,,,,,,60fe0e062bd2a60fb779f608,61036e7d292d5a54a075b629,2021-07-29_23h14.41.967,Simcolourproject_2stim_asymm_v5,2020.2.10,Win32,60,61025ae37ef11b136ea224fe,,,,,,,,,2366,-30.39994018,-81.60005648,1,0,0,response5disk,,3,7.200011551,7.19999367,1,0,0,rectangle,7.200011551,7.19999367,1,0,0,7.200011551,7.19999367,1,0,0,0,73,73,60,1,,,,,,,,
,,,,,,,,,,,,,FF,,,,,,,,0.883,,,,,,,,,,,,,,,,,,,,,,60fe0e062bd2a60fb779f608,61036e7d292d5a54a075b629,2021-07-29_23h14.41.967,Simcolourproject_2stim_asymm_v5,2020.2.10,Win32,60,61025ae37ef11b136ea224fe,,,,,,,,,2362,-78.3999409,35.19996967,1,0,0,response7disk,,1,-6.399939823,-0.800006449,1,0,0,rectangle,-6.399939823,-0.800006449,1,0,0,-6.399939823,-0.800006449,1,0,0,0,74,74,35,1,,,,,,,,
,,,,,,,,,,,,,FF,,,,,,,,0.784,,,,,,,,,,,,,,,,,,,,,,60fe0e062bd2a60fb779f608,61036e7d292d5a54a075b629,2021-07-29_23h14.41.967,Simcolourproject_2stim_asymm_v5,2020.2.10,Win32,60,61025ae37ef11b136ea224fe,,,,,,,,,1213,-97.59999001,47.99999428,1,0,0,response7disk,,1,5.600060356,8.799993694,1,0,0,rectangle,5.600060356,8.799993694,1,0,0,5.600060356,8.799993694,1,0,0,0,75,75,44,1,,,,,,,,
,,,,,,,,,,,,,FF,,,,,,,,1.4004,,,,,,,,,,,,,,,,,,,,,,60fe0e062bd2a60fb779f608,61036e7d292d5a54a075b629,2021-07-29_23h14.41.967,Simcolourproject_2stim_asymm_v5,2020.2.10,Win32,60,61025ae37ef11b136ea224fe,,,,,,,,,3805,52.00001222,-92.80000782,1,0,0,response3disk,,4,-3.999988616,6.399993658,1,0,0,rectangle,46.40001214,119.1999709,1,0,0,-3.999988616,-3.200006485,1,0,0,0,76,76,63,1,,response1disk_3,TRUE,7,7,"[323,155,282,77,155,271,292,158,60,12,294,47,73,58,89,125,222,246,160,20]",1.7665,rectangle
,,,,,,,,,,,,,FF,,,,,,,,1.0006,,,,,,,,,,,,,,,,,,,,,,60fe0e062bd2a60fb779f608,61036e7d292d5a54a075b629,2021-07-29_23h14.41.967,Simcolourproject_2stim_asymm_v5,2020.2.10,Win32,60,61025ae37ef11b136ea224fe,,,,,,,,,2248,88.00001276,50.39999431,1,0,0,response1disk,,6,-3.199988604,-5.600006521,1,0,0,rectangle,-3.199988604,-5.600006521,1,0,0,-3.199988604,-5.600006521,1,0,0,0,77,77,73,1,,,,,,,,
,,,,,,,,,,,,,FF,,,,,,,,0.7833,,,,,,,,,,,,,,,,,,,,,,60fe0e062bd2a60fb779f608,61036e7d292d5a54a075b629,2021-07-29_23h14.41.967,Simcolourproject_2stim_asymm_v5,2020.2.10,Win32,60,61025ae37ef11b136ea224fe,,,,,,,,,2793,-38.3999403,-70.40000749,1,0,0,response5disk,,3,3.200011492,10.39999372,1,0,0,rectangle,3.200011492,10.39999372,1,0,0,3.200011492,10.39999372,1,0,0,0,78,78,27,1,,,,,,,,
,,,,,,,,,,,,,FF,,,,,,,,1.3847,,,,,,,,,,,,,,,,,,,,,,60fe0e062bd2a60fb779f608,61036e7d292d5a54a075b629,2021-07-29_23h14.41.967,Simcolourproject_2stim_asymm_v5,2020.2.10,Win32,60,61025ae37ef11b136ea224fe,,,,,,,,,1944,116.8000132,58.39999443,1,0,0,response1disk,,6,4.000011504,-5.600006521,1,0,0,rectangle,4.000011504,-5.600006521,1,0,0,4.000011504,-5.600006521,1,0,0,0,79,79,75,1,,,,,,,,
,,,,,,,,,,,,,FF,,,,,,,,1.4003,,,,,,,,,,,,,,,,,,,,,,60fe0e062bd2a60fb779f608,61036e7d292d5a54a075b629,2021-07-29_23h14.41.967,Simcolourproject_2stim_asymm_v5,2020.2.10,Win32,60,61025ae37ef11b136ea224fe,,,,,,,,,3626,-28.79998899,-123.2000083,1,0,0,response5disk,,3,-6.399939823,7.999993682,1,0,0,rectangle,-6.399939823,7.999993682,1,0,0,-6.399939823,7.999993682,1,0,0,0,80,80,156,1,,,,,,,,
,,,,,,,,,,,,,FF,,,,,,,,0.8339,,,,,,,,,,,,,,,,,,,,,,60fe0e062bd2a60fb779f608,61036e7d292d5a54a075b629,2021-07-29_23h14.41.967,Simcolourproject_2stim_asymm_v5,2020.2.10,Win32,60,61025ae37ef11b136ea224fe,,,,,,,,,3011,89.60001278,31.99999404,1,0,0,response1disk,,6,11.20001161,14.39999378,1,0,0,rectangle,11.20001161,14.39999378,1,0,0,11.20001161,14.39999378,1,0,0,0,81,81,94,1,,,,,,,,
,,,,,,,,,,,,,FF,,,,,,,,1.7003,,,,,,,,,,,,,,,,,,,,,,60fe0e062bd2a60fb779f608,61036e7d292d5a54a075b629,2021-07-29_23h14.41.967,Simcolourproject_2stim_asymm_v5,2020.2.10,Win32,60,61025ae37ef11b136ea224fe,,,,,,,,,1803,112.0000131,-76.00000757,1,0,0,response3disk,,5,-19.19998884,12.79999375,1,0,0,rectangle,-19.19998884,12.79999375,1,0,0,-19.19998884,12.79999375,1,0,0,0,82,82,81,1,,,,,,,,
,,,,,,,,,,,,,FF,,,,,,,,1.3169,,,,,,,,,,,,,,,,,,,,,,60fe0e062bd2a60fb779f608,61036e7d292d5a54a075b629,2021-07-29_23h14.41.967,Simcolourproject_2stim_asymm_v5,2020.2.10,Win32,60,61025ae37ef11b136ea224fe,,,,,,,,,2041,-100.7999901,-36.00000697,1,0,0,response5disk,,2,-15.99998879,-6.400006533,1,0,0,rectangle,-15.99998879,-6.400006533,1,0,0,-15.99998879,-6.400006533,1,0,0,0,83,83,85,1,,,,,,,,
,,,,,,,,,,,,,FF,,,,,,,,3.7892,,,,,,,,,,,,,,,,,,,,,,60fe0e062bd2a60fb779f608,61036e7d292d5a54a075b629,2021-07-29_23h14.41.967,Simcolourproject_2stim_asymm_v5,2020.2.10,Win32,60,61025ae37ef11b136ea224fe,,,,,,,,,1992,125.6000133,-52.00000721,1,0,0,response3disk,,5,12.80001163,-6.400006533,1,0,0,rectangle,12.80001163,-6.400006533,1,0,0,12.80001163,-6.400006533,1,0,0,0,84,84,36,1,,,,,,,,
,,,,,,,,,,,,,FF,,,,,,,,1.6503,,,,,,,,,,,,,,,,,,,,,,60fe0e062bd2a60fb779f608,61036e7d292d5a54a075b629,2021-07-29_23h14.41.967,Simcolourproject_2stim_asymm_v5,2020.2.10,Win32,60,61025ae37ef11b136ea224fe,,,,,,,,,1867,92.80001283,66.39999455,1,0,0,response1disk,,6,-8.799988687,7.19999367,1,0,0,rectangle,-8.799988687,7.19999367,1,0,0,-8.799988687,7.19999367,1,0,0,0,85,85,157,1,,,,,,,,
,,,,,,,,,,,,,FF,,,,,,,,0.9333,,,,,,,,,,,,,,,,,,,,,,60fe0e062bd2a60fb779f608,61036e7d292d5a54a075b629,2021-07-29_23h14.41.967,Simcolourproject_2stim_asymm_v5,2020.2.10,Win32,60,61025ae37ef11b136ea224fe,,,,,,,,,3698,120.0000132,36.79999411,1,0,0,response1disk,,6,10.4000116,7.999993682,1,0,0,rectangle,10.4000116,7.999993682,1,0,0,10.4000116,7.999993682,1,0,0,0,86,86,21,1,,,,,,,,
,,,,,,,,,,,,,FF,,,,,,,,0.9668,,,,,,,,,,,,,,,,,,,,,,60fe0e062bd2a60fb779f608,61036e7d292d5a54a075b629,2021-07-29_23h14.41.967,Simcolourproject_2stim_asymm_v5,2020.2.10,Win32,60,61025ae37ef11b136ea224fe,,,,,,,,,4313,44.80001211,121.5999954,1,0,0,response1disk,,7,12.80001163,3.19999361,1,0,0,rectangle,12.80001163,3.19999361,1,0,0,12.80001163,3.19999361,1,0,0,0,87,87,77,1,,,,,,,,
,,,,,,,,,,,,,FF,,,,,,,,1.0662,,,,,,,,,,,,,,,,,,,,,,60fe0e062bd2a60fb779f608,61036e7d292d5a54a075b629,2021-07-29_23h14.41.967,Simcolourproject_2stim_asymm_v5,2020.2.10,Win32,60,61025ae37ef11b136ea224fe,,,,,,,,,871,-56.7999894,-120.0000082,1,0,0,response5disk,,3,-7.199988663,-13.60000664,1,0,0,rectangle,-97.59999001,31.19996961,1,0,0,-1.59998858,2.399993598,1,0,0,0,88,88,117,1,,response7disk_3,TRUE,1,1,"[323,155,282,77,155,271,292,158,60,12,294,47,73,58,89,125,222,246,160,20]",1.6663,rectangle
,,,,,,,,,,,,,FF,,,,,,,,3.3668,,,,,,,,,,,,,,,,,,,,,,60fe0e062bd2a60fb779f608,61036e7d292d5a54a075b629,2021-07-29_23h14.41.967,Simcolourproject_2stim_asymm_v5,2020.2.10,Win32,60,61025ae37ef11b136ea224fe,,,,,,,,,587,64.80001241,-108.000008,1,0,0,response3disk,,4,13.60006047,4.799993634,1,0,0,rectangle,13.60006047,4.799993634,1,0,0,13.60006047,4.799993634,1,0,0,0,89,89,9,1,,,,,,,,
,,,,,,,,,,,,,FF,,,,,,,,1.1334,,,,,,,,,,,,,,,,,,,,,,60fe0e062bd2a60fb779f608,61036e7d292d5a54a075b629,2021-07-29_23h14.41.967,Simcolourproject_2stim_asymm_v5,2020.2.10,Win32,60,61025ae37ef11b136ea224fe,,,,,,,,,3910,-74.39994084,-32.00000691,1,0,0,response5disk,,2,-17.59998882,-4.000006497,1,0,0,rectangle,-17.59998882,-4.000006497,1,0,0,-17.59998882,-4.000006497,1,0,0,0,90,90,105,1,,,,,,,,
,,,,,,,,,,,,,FF,,,,,,,,1.0958,,,,,,,,,,,,,,,,,,,,,,60fe0e062bd2a60fb779f608,61036e7d292d5a54a075b629,2021-07-29_23h14.41.967,Simcolourproject_2stim_asymm_v5,2020.2.10,Win32,60,61025ae37ef11b136ea224fe,,,,,,,,,596,108.8000131,-30.40000689,1,0,0,response3disk,,5,13.60006047,-9.60000658,1,0,0,rectangle,13.60006047,-9.60000658,1,0,0,13.60006047,-9.60000658,1,0,0,0,91,91,30,1,,,,,,,,
,,,,,,,,,,,,,FF,,,,,,,,1.6164,,,,,,,,,,,,,,,,,,,,,,60fe0e062bd2a60fb779f608,61036e7d292d5a54a075b629,2021-07-29_23h14.41.967,Simcolourproject_2stim_asymm_v5,2020.2.10,Win32,60,61025ae37ef11b136ea224fe,,,,,,,,,823,-111.9999902,79.19997033,1,0,0,response7disk,,1,9.600060415,3.19999361,1,0,0,rectangle,9.600060415,3.19999361,1,0,0,9.600060415,3.19999361,1,0,0,0,92,92,46,1,,,,,,,,
,,,,,,,,,,,,,FF,,,,,,,,1.7834,,,,,,,,,,,,,,,,,,,,,,60fe0e062bd2a60fb779f608,61036e7d292d5a54a075b629,2021-07-29_23h14.41.967,Simcolourproject_2stim_asymm_v5,2020.2.10,Win32,60,61025ae37ef11b136ea224fe,,,,,,,,,1614,-32.79998904,-88.00000775,1,0,0,response5disk,,3,-3.999988616,-8.800006568,1,0,0,rectangle,-3.999988616,-8.800006568,1,0,0,-3.999988616,-8.800006568,1,0,0,0,93,93,133,1,,,,,,,,
,,,,,,,,,,,,,FF,,,,,,,,1.5168,,,,,,,,,,,,,,,,,,,,,,60fe0e062bd2a60fb779f608,61036e7d292d5a54a075b629,2021-07-29_23h14.41.967,Simcolourproject_2stim_asymm_v5,2020.2.10,Win32,60,61025ae37ef11b136ea224fe,,,,,,,,,3685,89.60001278,46.39999425,1,0,0,response1disk,,6,-14.39993994,3.999993622,1,0,0,rectangle,-14.39993994,3.999993622,1,0,0,-14.39993994,3.999993622,1,0,0,0,94,94,109,1,,,,,,,,
,,,,,,,,,,,,,FF,,,,,,,,0.9832,,,,,,,,,,,,,,,,,,,,,,60fe0e062bd2a60fb779f608,61036e7d292d5a54a075b629,2021-07-29_23h14.41.967,Simcolourproject_2stim_asymm_v5,2020.2.10,Win32,60,61025ae37ef11b136ea224fe,,,,,,,,,1887,-118.3999415,46.39999425,1,0,0,response7disk,,1,3.200011492,-6.400006533,1,0,0,rectangle,3.200011492,-6.400006533,1,0,0,3.200011492,-6.400006533,1,0,0,0,95,95,23,1,,,,,,,,
,,,,,,,,,,,,,FF,,,,,,,,1.6668,,,,,,,,,,,,,,,,,,,,,,60fe0e062bd2a60fb779f608,61036e7d292d5a54a075b629,2021-07-29_23h14.41.967,Simcolourproject_2stim_asymm_v5,2020.2.10,Win32,60,61025ae37ef11b136ea224fe,,,,,,,,,1572,99.20001292,-44.8000071,1,0,0,response3disk,,5,3.200011492,-8.000006557,1,0,0,rectangle,3.200011492,-8.000006557,1,0,0,3.200011492,-8.000006557,1,0,0,0,96,96,28,1,,,,,,,,
,,,,,,,,,,,,,FF,,,,,,,,1.567,,,,,,,,,,,,,,,,,,,,,,60fe0e062bd2a60fb779f608,61036e7d292d5a54a075b629,2021-07-29_23h14.41.967,Simcolourproject_2stim_asymm_v5,2020.2.10,Win32,60,61025ae37ef11b136ea224fe,,,,,,,,,790,92.80001283,43.19996979,1,0,0,response1disk,,6,-13.59998876,5.599993646,1,0,0,rectangle,-13.59998876,5.599993646,1,0,0,-13.59998876,5.599993646,1,0,0,0,97,97,74,1,,,,,,,,
,,,,,,,,,,,,,FF,,,,,,,,0.9504,,,,,,,,,,,,,,,,,,,,,,60fe0e062bd2a60fb779f608,61036e7d292d5a54a075b629,2021-07-29_23h14.41.967,Simcolourproject_2stim_asymm_v5,2020.2.10,Win32,60,61025ae37ef11b136ea224fe,,,,,,,,,4218,-87.99998987,127.9999955,1,0,0,response7disk,,0,-3.199988604,-6.4373E-06,1,0,0,rectangle,-3.199988604,-6.4373E-06,1,0,0,-3.199988604,-6.4373E-06,1,0,0,0,98,98,110,1,,,,,,,,
,,,,,,,,,,,,,FF,,,,,,,,0.8505,,,,,,,,,,,,,,,,,,,,,,60fe0e062bd2a60fb779f608,61036e7d292d5a54a075b629,2021-07-29_23h14.41.967,Simcolourproject_2stim_asymm_v5,2020.2.10,Win32,60,61025ae37ef11b136ea224fe,,,,,,,,,2110,-37.59998912,-84.00000769,1,0,0,response5disk,,3,2.40001148,-10.40000659,1,0,0,rectangle,2.40001148,-10.40000659,1,0,0,2.40001148,-10.40000659,1,0,0,0,99,99,31,1,,,,,,,,
,,,,,,,,,,,,,FF,,,,,,,,1.0168,,,,,,,,,,,,,,,,,,,,,,60fe0e062bd2a60fb779f608,61036e7d292d5a54a075b629,2021-07-29_23h14.41.967,Simcolourproject_2stim_asymm_v5,2020.2.10,Win32,60,61025ae37ef11b136ea224fe,,,,,,,,,3456,80.00001264,-55.20000726,1,0,0,response3disk,,5,11.20001161,4.799993634,1,0,0,rectangle,11.20001161,4.799993634,1,0,0,11.20001161,4.799993634,1,0,0,0,100,100,29,1,,,,,,,,
,,,,,,,,,,,,,FF,,,,,,,,1.4335,,,,,,,,,,,,,,,,,,,,,,60fe0e062bd2a60fb779f608,61036e7d292d5a54a075b629,2021-07-29_23h14.41.967,Simcolourproject_2stim_asymm_v5,2020.2.10,Win32,60,61025ae37ef11b136ea224fe,,,,,,,,,723,-98.39994119,88.79999489,1,0,0,response7disk,,1,-2.399939764,3.19999361,1,0,0,rectangle,-2.399939764,3.19999361,1,0,0,-2.399939764,3.19999361,1,0,0,0,101,101,121,1,,,,,,,,
,,,,,,,,,,,,,FF,,,,,,,,1.3169,,,,,,,,,,,,,,,,,,,,,,60fe0e062bd2a60fb779f608,61036e7d292d5a54a075b629,2021-07-29_23h14.41.967,Simcolourproject_2stim_asymm_v5,2020.2.10,Win32,60,61025ae37ef11b136ea224fe,,,,,,,,,3833,-33.59998906,-76.80000758,1,0,0,response5disk,,3,-1.59998858,-9.60000658,1,0,0,rectangle,-1.59998858,-9.60000658,1,0,0,-1.59998858,-9.60000658,1,0,0,0,102,102,3,1,,,,,,,,
,,,,,,,,,,,,,FF,,,,,,,,1.2339,,,,,,,,,,,,,,,,,,,,,,60fe0e062bd2a60fb779f608,61036e7d292d5a54a075b629,2021-07-29_23h14.41.967,Simcolourproject_2stim_asymm_v5,2020.2.10,Win32,60,61025ae37ef11b136ea224fe,,,,,,,,,356,-111.9999902,49.5999943,1,0,0,response7disk,,1,-2.399939764,1.599993587,1,0,0,rectangle,-2.399939764,1.599993587,1,0,0,-2.399939764,1.599993587,1,0,0,0,103,103,32,1,,,,,,,,
,,,,,,,,,,,,,FF,,,,,,,,1.0673,,,,,,,,,,,,,,,,,,,,,,60fe0e062bd2a60fb779f608,61036e7d292d5a54a075b629,2021-07-29_23h14.41.967,Simcolourproject_2stim_asymm_v5,2020.2.10,Win32,60,61025ae37ef11b136ea224fe,,,,,,,,,3798,92.00001281,-43.20000708,1,0,0,response3disk,,5,-8.799988687,4.799993634,1,0,0,rectangle,-8.799988687,4.799993634,1,0,0,-8.799988687,4.799993634,1,0,0,0,104,104,69,1,,,,,,,,
,,,,,,,,,,,,,FF,,,,,,,,3.1338,,,,,,,,,,,,,,,,,,,,,,60fe0e062bd2a60fb779f608,61036e7d292d5a54a075b629,2021-07-29_23h14.41.967,Simcolourproject_2stim_asymm_v5,2020.2.10,Win32,60,61025ae37ef11b136ea224fe,,,,,,,,,967,95.20001286,-40.00000703,1,0,0,response3disk,,5,-1.59998858,7.19999367,1,0,0,rectangle,-1.59998858,7.19999367,1,0,0,-1.59998858,7.19999367,1,0,0,0,105,105,147,1,,,,,,,,
,,,,,,,,,,,,,FF,,,,,,,,1.133,,,,,,,,,,,,,,,,,,,,,,60fe0e062bd2a60fb779f608,61036e7d292d5a54a075b629,2021-07-29_23h14.41.967,Simcolourproject_2stim_asymm_v5,2020.2.10,Win32,60,61025ae37ef11b136ea224fe,,,,,,,,,833,-42.39994036,-69.60000747,1,0,0,response5disk,,3,3.200011492,2.399993598,1,0,0,rectangle,3.200011492,2.399993598,1,0,0,3.200011492,2.399993598,1,0,0,0,106,106,57,1,,,,,,,,
,,,,,,,,,,,,,FF,,,,,,,,1.5669,,,,,,,,,,,,,,,,,,,,,,60fe0e062bd2a60fb779f608,61036e7d292d5a54a075b629,2021-07-29_23h14.41.967,Simcolourproject_2stim_asymm_v5,2020.2.10,Win32,60,61025ae37ef11b136ea224fe,,,,,,,,,3392,-25.59998894,-98.4000079,1,0,0,response5disk,,3,2.40001148,-9.60000658,1,0,0,rectangle,2.40001148,-9.60000658,1,0,0,2.40001148,-9.60000658,1,0,0,0,107,107,41,1,,,,,,,,
,,,,,,,,,,,,,FF,,,,,,,,0.8839,,,,,,,,,,,,,,,,,,,,,,60fe0e062bd2a60fb779f608,61036e7d292d5a54a075b629,2021-07-29_23h14.41.967,Simcolourproject_2stim_asymm_v5,2020.2.10,Win32,60,61025ae37ef11b136ea224fe,,,,,,,,,4215,71.20001251,-27.20000684,1,0,0,response3disk,,5,1.14441E-05,2.399993598,1,0,0,rectangle,1.14441E-05,2.399993598,1,0,0,1.14441E-05,2.399993598,1,0,0,0,108,108,131,1,,,,,,,,
,,,,,,,,,,,,,FF,,,,,,,,0.9333,,,,,,,,,,,,,,,,,,,,,,60fe0e062bd2a60fb779f608,61036e7d292d5a54a075b629,2021-07-29_23h14.41.967,Simcolourproject_2stim_asymm_v5,2020.2.10,Win32,60,61025ae37ef11b136ea224fe,,,,,,,,,1804,87.20001274,35.9999941,1,0,0,response1disk,,6,16.80001169,4.799993634,1,0,0,rectangle,16.80001169,4.799993634,1,0,0,16.80001169,4.799993634,1,0,0,0,109,109,20,1,,,,,,,,
,,,,,,,,,,,,,FF,,,,,,,,1.5339,,,,,,,,,,,,,,,,,,,,,,60fe0e062bd2a60fb779f608,61036e7d292d5a54a075b629,2021-07-29_23h14.41.967,Simcolourproject_2stim_asymm_v5,2020.2.10,Win32,60,61025ae37ef11b136ea224fe,,,,,,,,,2703,-86.39994102,-44.00000709,1,0,0,response5disk,,2,-6.399939823,2.399993598,1,0,0,rectangle,-6.399939823,2.399993598,1,0,0,-6.399939823,2.399993598,1,0,0,0,110,110,112,1,,,,,,,,
,,,,,,,,,,,,,FF,,,,,,,,2.6833,,,,,,,,,,,,,,,,,,,,,,60fe0e062bd2a60fb779f608,61036e7d292d5a54a075b629,2021-07-29_23h14.41.967,Simcolourproject_2stim_asymm_v5,2020.2.10,Win32,60,61025ae37ef11b136ea224fe,,,,,,,,,3683,96.80001289,40.79999417,1,0,0,response1disk,,6,6.400011539,0.799993575,1,0,0,rectangle,6.400011539,0.799993575,1,0,0,6.400011539,0.799993575,1,0,0,0,111,111,8,1,,,,,,,,
,,,,,,,,,,,,,FF,,,,,,,,1.4998,,,,,,,,,,,,,,,,,,,,,,60fe0e062bd2a60fb779f608,61036e7d292d5a54a075b629,2021-07-29_23h14.41.967,Simcolourproject_2stim_asymm_v5,2020.2.10,Win32,60,61025ae37ef11b136ea224fe,,,,,,,,,2162,-77.59998971,-38.40000701,1,0,0,response5disk,,2,0.800011456,5.599993646,1,0,0,rectangle,0.800011456,5.599993646,1,0,0,0.800011456,5.599993646,1,0,0,0,112,112,34,1,,,,,,,,
,,,,,,,,,,,,,FF,,,,,,,,1.3003,,,,,,,,,,,,,,,,,,,,,,60fe0e062bd2a60fb779f608,61036e7d292d5a54a075b629,2021-07-29_23h14.41.967,Simcolourproject_2stim_asymm_v5,2020.2.10,Win32,60,61025ae37ef11b136ea224fe,,,,,,,,,1781,88.80001277,37.59999412,1,0,0,response1disk,,6,-7.199988663,9.599993706,1,0,0,rectangle,-7.199988663,9.599993706,1,0,0,-7.199988663,9.599993706,1,0,0,0,113,113,151,1,,,,,,,,
,,,,,,,,,,,,,FF,,,,,,,,1.2002,,,,,,,,,,,,,,,,,,,,,,60fe0e062bd2a60fb779f608,61036e7d292d5a54a075b629,2021-07-29_23h14.41.967,Simcolourproject_2stim_asymm_v5,2020.2.10,Win32,60,61025ae37ef11b136ea224fe,,,,,,,,,229,-98.39994119,34.39999408,1,0,0,response7disk,,1,-6.399939823,-8.800006568,1,0,0,rectangle,-6.399939823,-8.800006568,1,0,0,-6.399939823,-8.800006568,1,0,0,0,114,114,79,1,,,,,,,,
,,,,,,,,,,,,,FF,,,,,,,,3.95,,,,,,,,,,,,,,,,,,,,,,60fe0e062bd2a60fb779f608,61036e7d292d5a54a075b629,2021-07-29_23h14.41.967,Simcolourproject_2stim_asymm_v5,2020.2.10,Win32,60,61025ae37ef11b136ea224fe,,,,,,,,,2561,122.4000133,43.19996979,1,0,0,response1disk,,6,0.800011456,9.599993706,1,0,0,rectangle,0.800011456,9.599993706,1,0,0,0.800011456,9.599993706,1,0,0,0,115,115,159,1,,,,,,,,
,,,,,,,,,,,,,FF,,,,,,,,1.2501,,,,,,,,,,,,,,,,,,,,,,60fe0e062bd2a60fb779f608,61036e7d292d5a54a075b629,2021-07-29_23h14.41.967,Simcolourproject_2stim_asymm_v5,2020.2.10,Win32,60,61025ae37ef11b136ea224fe,,,,,,,,,136,-91.99998993,-31.2000069,1,0,0,response5disk,,2,-1.59998858,2.399993598,1,0,0,rectangle,-1.59998858,2.399993598,1,0,0,-1.59998858,2.399993598,1,0,0,0,116,116,138,1,,,,,,,,
,,,,,,,,,,,,,FF,,,,,,,,1.9006,,,,,,,,,,,,,,,,,,,,,,60fe0e062bd2a60fb779f608,61036e7d292d5a54a075b629,2021-07-29_23h14.41.967,Simcolourproject_2stim_asymm_v5,2020.2.10,Win32,60,61025ae37ef11b136ea224fe,,,,,,,,,2753,52.00001222,-99.20000792,1,0,0,response3disk,,4,-10.39993988,7.19999367,1,0,0,rectangle,-10.39993988,7.19999367,1,0,0,-10.39993988,7.19999367,1,0,0,0,117,117,134,1,,,,,,,,
,,,,,,,,,,,,,FF,,,,,,,,1.9502,,,,,,,,,,,,,,,,,,,,,,60fe0e062bd2a60fb779f608,61036e7d292d5a54a075b629,2021-07-29_23h14.41.967,Simcolourproject_2stim_asymm_v5,2020.2.10,Win32,60,61025ae37ef11b136ea224fe,,,,,,,,,4192,-83.1999898,-36.80000699,1,0,0,response5disk,,2,5.600060356,-4.000006497,1,0,0,rectangle,5.600060356,-4.000006497,1,0,0,5.600060356,-4.000006497,1,0,0,0,118,118,55,1,,,,,,,,
,,,,,,,,,,,,,FF,,,,,,,,2.2325,,,,,,,,,,,,,,,,,,,,,,60fe0e062bd2a60fb779f608,61036e7d292d5a54a075b629,2021-07-29_23h14.41.967,Simcolourproject_2stim_asymm_v5,2020.2.10,Win32,60,61025ae37ef11b136ea224fe,,,,,,,,,4171,78.40001261,50.39999431,1,0,0,response1disk,,6,0.800011456,-8.800006568,1,0,0,rectangle,0.800011456,-8.800006568,1,0,0,0.800011456,-8.800006568,1,0,0,0,119,119,17,1,,,,,,,,
,,,,,,,,,,,,,FF,,,,,,,,0.9506,,,,,,,,,,,,,,,,,,,,,,60fe0e062bd2a60fb779f608,61036e7d292d5a54a075b629,2021-07-29_23h14.41.967,Simcolourproject_2stim_asymm_v5,2020.2.10,Win32,60,61025ae37ef11b136ea224fe,,,,,,,,,7,-82.39994096,26.39999396,1,0,0,response7disk,,1,-7.199988663,9.599993706,1,0,0,rectangle,-7.199988663,9.599993706,1,0,0,-7.199988663,9.599993706,1,0,0,0,120,120,108,1,,,,,,,,
,,,,,,,,,,,,,FF,,,,,,,,1.3831,,,,,,,,,,,,,,,,,,,,,,60fe0e062bd2a60fb779f608,61036e7d292d5a54a075b629,2021-07-29_23h14.41.967,Simcolourproject_2stim_asymm_v5,2020.2.10,Win32,60,61025ae37ef11b136ea224fe,,,,,,,,,2960,120.0000132,-40.80000705,1,0,0,response3disk,,5,-10.39993988,2.399993598,1,0,0,rectangle,-10.39993988,2.399993598,1,0,0,-10.39993988,2.399993598,1,0,0,0,121,121,100,1,,,,,,,,
,,,,,,,,,,,,,FF,,,,,,,,2.0999,,,,,,,,,,,,,,,,,,,,,,60fe0e062bd2a60fb779f608,61036e7d292d5a54a075b629,2021-07-29_23h14.41.967,Simcolourproject_2stim_asymm_v5,2020.2.10,Win32,60,61025ae37ef11b136ea224fe,,,,,,,,,2151,61.60001236,-87.20000774,1,0,0,response3disk,,4,6.400011539,5.599993646,1,0,0,rectangle,6.400011539,5.599993646,1,0,0,6.400011539,5.599993646,1,0,0,0,122,122,141,1,,,,,,,,
,,,,,,,,,,,,,FF,,,,,,,,2.6836,,,,,,,,,,,,,,,,,,,,,,60fe0e062bd2a60fb779f608,61036e7d292d5a54a075b629,2021-07-29_23h14.41.967,Simcolourproject_2stim_asymm_v5,2020.2.10,Win32,60,61025ae37ef11b136ea224fe,,,,,,,,,3219,47.20001215,-100.8000079,1,0,0,response3disk,,4,12.80001163,-12.80000663,1,0,0,rectangle,12.80001163,-12.80000663,1,0,0,12.80001163,-12.80000663,1,0,0,0,123,123,2,1,,,,,,,,
,,,,,,,,,,,,,FF,,,,,,,,1.0168,,,,,,,,,,,,,,,,,,,,,,60fe0e062bd2a60fb779f608,61036e7d292d5a54a075b629,2021-07-29_23h14.41.967,Simcolourproject_2stim_asymm_v5,2020.2.10,Win32,60,61025ae37ef11b136ea224fe,,,,,,,,,1030,79.20001262,-31.2000069,1,0,0,response3disk,,5,13.60006047,-1.600006461,1,0,0,rectangle,-60.79998946,37.59999412,1,0,0,3.200011492,2.399993598,1,0,0,0,124,124,11,1,,response7disk_3,TRUE,1,1,"[323,155,282,77,155,271,292,158,60,12,294,47,73,58,89,125,222,246,160,20]",1.4505,rectangle
,,,,,,,,,,,,,FF,,,,,,,,0.9004,,,,,,,,,,,,,,,,,,,,,,60fe0e062bd2a60fb779f608,61036e7d292d5a54a075b629,2021-07-29_23h14.41.967,Simcolourproject_2stim_asymm_v5,2020.2.10,Win32,60,61025ae37ef11b136ea224fe,,,,,,,,,730,-107.9999902,52.79999435,1,0,0,response7disk,,1,16.00001168,1.599993587,1,0,0,rectangle,16.00001168,1.599993587,1,0,0,16.00001168,1.599993587,1,0,0,0,125,125,149,1,,,,,,,,
,,,,,,,,,,,,,FF,,,,,,,,1.1005,,,,,,,,,,,,,,,,,,,,,,60fe0e062bd2a60fb779f608,61036e7d292d5a54a075b629,2021-07-29_23h14.41.967,Simcolourproject_2stim_asymm_v5,2020.2.10,Win32,60,61025ae37ef11b136ea224fe,,,,,,,,,3950,-26.39994012,-99.20000792,1,0,0,response5disk,,3,3.200011492,-2.400006473,1,0,0,rectangle,3.200011492,-2.400006473,1,0,0,3.200011492,-2.400006473,1,0,0,0,126,126,47,1,,,,,,,,
,,,,,,,,,,,,,FF,,,,,,,,1.3336,,,,,,,,,,,,,,,,,,,,,,60fe0e062bd2a60fb779f608,61036e7d292d5a54a075b629,2021-07-29_23h14.41.967,Simcolourproject_2stim_asymm_v5,2020.2.10,Win32,60,61025ae37ef11b136ea224fe,,,,,,,,,1203,-104.7999901,52.79999435,1,0,0,response7disk,,1,6.400011539,3.19999361,1,0,0,rectangle,6.400011539,3.19999361,1,0,0,6.400011539,3.19999361,1,0,0,0,127,127,135,1,,,,,,,,
,,,,,,,,,,,,,FF,,,,,,,,2.9668,,,,,,,,,,,,,,,,,,,,,,60fe0e062bd2a60fb779f608,61036e7d292d5a54a075b629,2021-07-29_23h14.41.967,Simcolourproject_2stim_asymm_v5,2020.2.10,Win32,60,61025ae37ef11b136ea224fe,,,,,,,,,2992,64.80001241,22.3999939,1,0,0,response1disk,,6,10.4000116,-4.000006497,1,0,0,rectangle,10.4000116,-4.000006497,1,0,0,10.4000116,-4.000006497,1,0,0,0,128,128,106,1,,,,,,,,
,,,,,,,,,,,,,FF,,,,,,,,0.9665,,,,,,,,,,,,,,,,,,,,,,60fe0e062bd2a60fb779f608,61036e7d292d5a54a075b629,2021-07-29_23h14.41.967,Simcolourproject_2stim_asymm_v5,2020.2.10,Win32,60,61025ae37ef11b136ea224fe,,,,,,,,,3682,118.4000132,-68.00000745,1,0,0,response3disk,,5,13.60006047,-10.40000659,1,0,0,rectangle,13.60006047,-10.40000659,1,0,0,13.60006047,-10.40000659,1,0,0,0,129,129,56,1,,,,,,,,
,,,,,,,,,,,,,FF,,,,,,,,0.9502,,,,,,,,,,,,,,,,,,,,,,60fe0e062bd2a60fb779f608,61036e7d292d5a54a075b629,2021-07-29_23h14.41.967,Simcolourproject_2stim_asymm_v5,2020.2.10,Win32,60,61025ae37ef11b136ea224fe,,,,,,,,,3125,121.6000133,-56.00000727,1,0,0,response3disk,,5,4.800011516,3.999993622,1,0,0,rectangle,4.800011516,3.999993622,1,0,0,4.800011516,3.999993622,1,0,0,0,130,130,140,1,,,,,,,,
,,,,,,,,,,,,,FF,,,,,,,,0.8668,,,,,,,,,,,,,,,,,,,,,,60fe0e062bd2a60fb779f608,61036e7d292d5a54a075b629,2021-07-29_23h14.41.967,Simcolourproject_2stim_asymm_v5,2020.2.10,Win32,60,61025ae37ef11b136ea224fe,,,,,,,,,1764,64.0000124,-25.60000682,1,0,0,response3disk,,5,31.20001191,-0.800006449,1,0,0,rectangle,31.20001191,-0.800006449,1,0,0,31.20001191,-0.800006449,1,0,0,0,131,131,33,1,,,,,,,,
,,,,,,,,,,,,,FF,,,,,,,,0.8836,,,,,,,,,,,,,,,,,,,,,,60fe0e062bd2a60fb779f608,61036e7d292d5a54a075b629,2021-07-29_23h14.41.967,Simcolourproject_2stim_asymm_v5,2020.2.10,Win32,60,61025ae37ef11b136ea224fe,,,,,,,,,3113,37.60006083,-77.60000759,1,0,0,response3disk,,4,-7.199988663,-8.000006557,1,0,0,rectangle,-7.199988663,-8.000006557,1,0,0,-7.199988663,-8.000006557,1,0,0,0,132,132,12,1,,,,,,,,
,,,,,,,,,,,,,FF,,,,,,,,0.9507,,,,,,,,,,,,,,,,,,,,,,60fe0e062bd2a60fb779f608,61036e7d292d5a54a075b629,2021-07-29_23h14.41.967,Simcolourproject_2stim_asymm_v5,2020.2.10,Win32,60,61025ae37ef11b136ea224fe,,,,,,,,,3909,47.20001215,-92.00000781,1,0,0,response3disk,,4,3.200011492,7.19999367,1,0,0,rectangle,3.200011492,7.19999367,1,0,0,3.200011492,7.19999367,1,0,0,0,133,133,61,1,,,,,,,,
,,,,,,,,,,,,,FF,,,,,,,,1.5164,,,,,,,,,,,,,,,,,,,,,,60fe0e062bd2a60fb779f608,61036e7d292d5a54a075b629,2021-07-29_23h14.41.967,Simcolourproject_2stim_asymm_v5,2020.2.10,Win32,60,61025ae37ef11b136ea224fe,,,,,,,,,3532,95.20001286,51.19996991,1,0,0,response1disk,,6,-22.39994006,2.399993598,1,0,0,rectangle,-22.39994006,2.399993598,1,0,0,-22.39994006,2.399993598,1,0,0,0,134,134,65,1,,,,,,,,
,,,,,,,,,,,,,FF,,,,,,,,0.7502,,,,,,,,,,,,,,,,,,,,,,60fe0e062bd2a60fb779f608,61036e7d292d5a54a075b629,2021-07-29_23h14.41.967,Simcolourproject_2stim_asymm_v5,2020.2.10,Win32,60,61025ae37ef11b136ea224fe,,,,,,,,,2980,70.40001249,-93.60005666,1,0,0,response3disk,,4,6.400011539,11.19999373,1,0,0,rectangle,6.400011539,11.19999373,1,0,0,6.400011539,11.19999373,1,0,0,0,135,135,126,1,,,,,,,,
,,,,,,,,,,,,,FF,,,,,,,,0.6714,,,,,,,,,,,,,,,,,,,,,,60fe0e062bd2a60fb779f608,61036e7d292d5a54a075b629,2021-07-29_23h14.41.967,Simcolourproject_2stim_asymm_v5,2020.2.10,Win32,60,61025ae37ef11b136ea224fe,,,,,,,,,2919,-40.79998916,-94.40000784,1,0,0,response5disk,,3,1.600060296,-4.800006509,1,0,0,rectangle,1.600060296,-4.800006509,1,0,0,1.600060296,-4.800006509,1,0,0,0,136,136,101,1,,,,,,,,
,,,,,,,,,,,,,FF,,,,,,,,1.084,,,,,,,,,,,,,,,,,,,,,,60fe0e062bd2a60fb779f608,61036e7d292d5a54a075b629,2021-07-29_23h14.41.967,Simcolourproject_2stim_asymm_v5,2020.2.10,Win32,60,61025ae37ef11b136ea224fe,,,,,,,,,145,112.0000131,-55.20000726,1,0,0,response3disk,,5,8.800011575,2.399993598,1,0,0,rectangle,8.800011575,2.399993598,1,0,0,8.800011575,2.399993598,1,0,0,0,137,137,58,1,,,,,,,,
,,,,,,,,,,,,,FF,,,,,,,,1.0838,,,,,,,,,,,,,,,,,,,,,,60fe0e062bd2a60fb779f608,61036e7d292d5a54a075b629,2021-07-29_23h14.41.967,Simcolourproject_2stim_asymm_v5,2020.2.10,Win32,60,61025ae37ef11b136ea224fe,,,,,,,,,3690,41.60006089,-80.80000764,1,0,0,response3disk,,4,13.60006047,-8.000006557,1,0,0,rectangle,13.60006047,-8.000006557,1,0,0,13.60006047,-8.000006557,1,0,0,0,138,138,97,1,,,,,,,,
,,,,,,,,,,,,,FF,,,,,,,,1.1834,,,,,,,,,,,,,,,,,,,,,,60fe0e062bd2a60fb779f608,61036e7d292d5a54a075b629,2021-07-29_23h14.41.967,Simcolourproject_2stim_asymm_v5,2020.2.10,Win32,60,61025ae37ef11b136ea224fe,,,,,,,,,2849,120.8000132,47.19996985,1,0,0,response1disk,,6,21.60006059,3.19999361,1,0,0,rectangle,21.60006059,3.19999361,1,0,0,21.60006059,3.19999361,1,0,0,0,139,139,5,1,,,,,,,,
,,,,,,,,,,,,,FF,,,,,,,,0.9665,,,,,,,,,,,,,,,,,,,,,,60fe0e062bd2a60fb779f608,61036e7d292d5a54a075b629,2021-07-29_23h14.41.967,Simcolourproject_2stim_asymm_v5,2020.2.10,Win32,60,61025ae37ef11b136ea224fe,,,,,,,,,355,-79.19998974,-30.40000689,1,0,0,response5disk,,2,-23.99998891,-8.800006568,1,0,0,rectangle,-23.99998891,-8.800006568,1,0,0,-23.99998891,-8.800006568,1,0,0,0,140,140,119,1,,,,,,,,
,,,,,,,,,,,,,FF,,,,,,,,1.2,,,,,,,,,,,,,,,,,,,,,,60fe0e062bd2a60fb779f608,61036e7d292d5a54a075b629,2021-07-29_23h14.41.967,Simcolourproject_2stim_asymm_v5,2020.2.10,Win32,60,61025ae37ef11b136ea224fe,,,,,,,,,2176,47.20001215,76.79999471,1,0,0,response1disk,,7,-0.799988568,-3.200006485,1,0,0,rectangle,-0.799988568,-3.200006485,1,0,0,-0.799988568,-3.200006485,1,0,0,0,141,141,82,1,,,,,,,,
,,,,,,,,,,,,,FF,,,,,,,,1.5336,,,,,,,,,,,,,,,,,,,,,,60fe0e062bd2a60fb779f608,61036e7d292d5a54a075b629,2021-07-29_23h14.41.967,Simcolourproject_2stim_asymm_v5,2020.2.10,Win32,60,61025ae37ef11b136ea224fe,,,,,,,,,2916,-23.1999889,-108.000008,1,0,0,response5disk,,3,-0.799988568,-9.60000658,1,0,0,rectangle,-0.799988568,-9.60000658,1,0,0,-0.799988568,-9.60000658,1,0,0,0,142,142,127,1,,,,,,,,
,,,,,,,,,,,,,FF,,,,,,,,1.1834,,,,,,,,,,,,,,,,,,,,,,60fe0e062bd2a60fb779f608,61036e7d292d5a54a075b629,2021-07-29_23h14.41.967,Simcolourproject_2stim_asymm_v5,2020.2.10,Win32,60,61025ae37ef11b136ea224fe,,,,,,,,,18,92.80001283,26.39999396,1,0,0,response1disk,,6,34.40001196,9.599993706,1,0,0,rectangle,34.40001196,9.599993706,1,0,0,34.40001196,9.599993706,1,0,0,0,143,143,98,1,,,,,,,,
,,,,,,,,,,,,,FF,,,,,,,,1.3835,,,,,,,,,,,,,,,,,,,,,,60fe0e062bd2a60fb779f608,61036e7d292d5a54a075b629,2021-07-29_23h14.41.967,Simcolourproject_2stim_asymm_v5,2020.2.10,Win32,60,61025ae37ef11b136ea224fe,,,,,,,,,483,-87.99998987,41.59999418,1,0,0,response7disk,,1,-13.59998876,-2.400006473,1,0,0,rectangle,-13.59998876,-2.400006473,1,0,0,-13.59998876,-2.400006473,1,0,0,0,144,144,150,1,,,,,,,,
,,,,,,,,,,,,,FF,,,,,,,,2.0165,,,,,,,,,,,,,,,,,,,,,,60fe0e062bd2a60fb779f608,61036e7d292d5a54a075b629,2021-07-29_23h14.41.967,Simcolourproject_2stim_asymm_v5,2020.2.10,Win32,60,61025ae37ef11b136ea224fe,,,,,,,,,3660,39.20001203,-115.2000082,1,0,0,response3disk,,4,-9.599988699,-9.60000658,1,0,0,rectangle,-9.599988699,-9.60000658,1,0,0,-9.599988699,-9.60000658,1,0,0,0,145,145,80,1,,,,,,,,
,,,,,,,,,,,,,FF,,,,,,,,1.0163,,,,,,,,,,,,,,,,,,,,,,60fe0e062bd2a60fb779f608,61036e7d292d5a54a075b629,2021-07-29_23h14.41.967,Simcolourproject_2stim_asymm_v5,2020.2.10,Win32,60,61025ae37ef11b136ea224fe,,,,,,,,,2179,97.6000129,-18.40000671,1,0,0,response3disk,,5,12.00001162,-2.400006473,1,0,0,rectangle,12.00001162,-2.400006473,1,0,0,12.00001162,-2.400006473,1,0,0,0,146,146,125,1,,,,,,,,
,,,,,,,,,,,,,FF,,,,,,,,1.1001,,,,,,,,,,,,,,,,,,,,,,60fe0e062bd2a60fb779f608,61036e7d292d5a54a075b629,2021-07-29_23h14.41.967,Simcolourproject_2stim_asymm_v5,2020.2.10,Win32,60,61025ae37ef11b136ea224fe,,,,,,,,,3785,-19.19998884,-76.00000757,1,0,0,response5disk,,3,13.60006047,3.999993622,1,0,0,rectangle,13.60006047,3.999993622,1,0,0,13.60006047,3.999993622,1,0,0,0,147,147,13,1,,,,,,,,
,,,,,,,,,,,,,FF,,,,,,,,1.1003,,,,,,,,,,,,,,,,,,,,,,60fe0e062bd2a60fb779f608,61036e7d292d5a54a075b629,2021-07-29_23h14.41.967,Simcolourproject_2stim_asymm_v5,2020.2.10,Win32,60,61025ae37ef11b136ea224fe,,,,,,,,,4279,-44.79998922,-84.8000077,1,0,0,response5disk,,3,-4.799988627,1.599993587,1,0,0,rectangle,-4.799988627,1.599993587,1,0,0,-4.799988627,1.599993587,1,0,0,0,148,148,158,1,,,,,,,,
,,,,,,,,,,,,,FF,,,,,,,,1.1673,,,,,,,,,,,,,,,,,,,,,,60fe0e062bd2a60fb779f608,61036e7d292d5a54a075b629,2021-07-29_23h14.41.967,Simcolourproject_2stim_asymm_v5,2020.2.10,Win32,60,61025ae37ef11b136ea224fe,,,,,,,,,3187,88.80001277,-34.40000695,1,0,0,response3disk,,5,1.14441E-05,-5.600006521,1,0,0,rectangle,1.14441E-05,-5.600006521,1,0,0,1.14441E-05,-5.600006521,1,0,0,0,149,149,123,1,,,,,,,,
,,,,,,,,,,,,,FF,,,,,,,,0.65,,,,,,,,,,,,,,,,,,,,,,60fe0e062bd2a60fb779f608,61036e7d292d5a54a075b629,2021-07-29_23h14.41.967,Simcolourproject_2stim_asymm_v5,2020.2.10,Win32,60,61025ae37ef11b136ea224fe,,,,,,,,,1473,-34.39994024,-64.8000074,1,0,0,response5disk,,3,6.400011539,-8.800006568,1,0,0,rectangle,6.400011539,-8.800006568,1,0,0,6.400011539,-8.800006568,1,0,0,0,150,150,124,1,,,,,,,,
,,,,,,,,,,,,,FF,,,,,,,,0.983,,,,,,,,,,,,,,,,,,,,,,60fe0e062bd2a60fb779f608,61036e7d292d5a54a075b629,2021-07-29_23h14.41.967,Simcolourproject_2stim_asymm_v5,2020.2.10,Win32,60,61025ae37ef11b136ea224fe,,,,,,,,,1743,-55.19998938,135.9999956,1,0,0,response7disk,,0,4.800011516,7.19999367,1,0,0,rectangle,4.800011516,7.19999367,1,0,0,4.800011516,7.19999367,1,0,0,0,151,151,136,1,,,,,,,,
,,,,,,,,,,,,,FF,,,,,,,,1.0335,,,,,,,,,,,,,,,,,,,,,,60fe0e062bd2a60fb779f608,61036e7d292d5a54a075b629,2021-07-29_23h14.41.967,Simcolourproject_2stim_asymm_v5,2020.2.10,Win32,60,61025ae37ef11b136ea224fe,,,,,,,,,3193,-93.59998995,-32.00000691,1,0,0,response5disk,,2,-7.999988675,5.599993646,1,0,0,rectangle,-7.999988675,5.599993646,1,0,0,-7.999988675,5.599993646,1,0,0,0,152,152,50,1,,,,,,,,
,,,,,,,,,,,,,FF,,,,,,,,1.1502,,,,,,,,,,,,,,,,,,,,,,60fe0e062bd2a60fb779f608,61036e7d292d5a54a075b629,2021-07-29_23h14.41.967,Simcolourproject_2stim_asymm_v5,2020.2.10,Win32,60,61025ae37ef11b136ea224fe,,,,,,,,,996,-51.19998932,-76.80000758,1,0,0,response5disk,,3,13.60006047,4.799993634,1,0,0,rectangle,13.60006047,4.799993634,1,0,0,13.60006047,4.799993634,1,0,0,0,153,153,42,1,,,,,,,,
,,,,,,,,,,,,,FF,,,,,,,,1.0842,,,,,,,,,,,,,,,,,,,,,,60fe0e062bd2a60fb779f608,61036e7d292d5a54a075b629,2021-07-29_23h14.41.967,Simcolourproject_2stim_asymm_v5,2020.2.10,Win32,60,61025ae37ef11b136ea224fe,,,,,,,,,1710,58.40001231,-95.20000786,1,0,0,response3disk,,4,-12.79998875,2.399993598,1,0,0,rectangle,50.4000122,-77.60000759,1,0,0,-8.799988687,1.599993587,1,0,0,0,154,154,145,1,,response3disk_3,TRUE,4,4,"[323,155,282,77,155,271,292,158,60,12,294,47,73,58,89,125,222,246,160,20]",1.6994,rectangle
,,,,,,,,,,,,,FF,,,,,,,,1.8168,,,,,,,,,,,,,,,,,,,,,,60fe0e062bd2a60fb779f608,61036e7d292d5a54a075b629,2021-07-29_23h14.41.967,Simcolourproject_2stim_asymm_v5,2020.2.10,Win32,60,61025ae37ef11b136ea224fe,,,,,,,,,3161,-91.19998991,-24.80000681,1,0,0,response5disk,,2,-21.59998888,-2.400006473,1,0,0,rectangle,-21.59998888,-2.400006473,1,0,0,-21.59998888,-2.400006473,1,0,0,0,155,155,93,1,,,,,,,,
,,,,,,,,,,,,,FF,,,,,,,,0.967,,,,,,,,,,,,,,,,,,,,,,60fe0e062bd2a60fb779f608,61036e7d292d5a54a075b629,2021-07-29_23h14.41.967,Simcolourproject_2stim_asymm_v5,2020.2.10,Win32,60,61025ae37ef11b136ea224fe,,,,,,,,,3994,98.40001291,-54.40000725,1,0,0,response3disk,,5,13.60006047,-5.600006521,1,0,0,rectangle,13.60006047,-5.600006521,1,0,0,13.60006047,-5.600006521,1,0,0,0,156,156,143,1,,,,,,,,
,,,,,,,,,,,,,FF,,,,,,,,0.8333,,,,,,,,,,,,,,,,,,,,,,60fe0e062bd2a60fb779f608,61036e7d292d5a54a075b629,2021-07-29_23h14.41.967,Simcolourproject_2stim_asymm_v5,2020.2.10,Win32,60,61025ae37ef11b136ea224fe,,,,,,,,,819,-20.79998887,-81.60005648,1,0,0,response5disk,,3,20.00001174,-8.000006557,1,0,0,rectangle,59.20001233,91.99999493,1,0,0,4.800011516,-4.800006509,1,0,0,0,157,157,6,1,,response1disk_3,TRUE,7,7,"[323,155,282,77,155,271,292,158,60,12,294,47,73,58,89,125,222,246,160,20]",1.5999,rectangle
,,,,,,,,,,,,,FF,,,,,,,,1.2336,,,,,,,,,,,,,,,,,,,,,,60fe0e062bd2a60fb779f608,61036e7d292d5a54a075b629,2021-07-29_23h14.41.967,Simcolourproject_2stim_asymm_v5,2020.2.10,Win32,60,61025ae37ef11b136ea224fe,,,,,,,,,711,-103.1999901,54.39999437,1,0,0,response7disk,,1,-2.399939764,-6.4373E-06,1,0,0,rectangle,-2.399939764,-6.4373E-06,1,0,0,-2.399939764,-6.4373E-06,1,0,0,0,158,158,10,1,,,,,,,,
,,,,,,,,,,,,,FF,,,,,,,,1.1507,,,,,,,,,,,,,,,,,,,,,,60fe0e062bd2a60fb779f608,61036e7d292d5a54a075b629,2021-07-29_23h14.41.967,Simcolourproject_2stim_asymm_v5,2020.2.10,Win32,60,61025ae37ef11b136ea224fe,,,,,,,,,65,123.2000133,37.59999412,1,0,0,response1disk,,6,9.600060415,-0.800006449,1,0,0,rectangle,-87.19998986,-44.00000709,1,0,0,20.00001174,8.799993694,1,0,0,0,159,159,152,1,,response5disk_3,TRUE,2,2,"[323,155,282,77,155,271,292,158,60,12,294,47,73,58,89,125,222,246,160,20]",1.4172,rectangle
,,,,,,,,,,,,,FF,,,,,,,,1.1666,,,,,,,,,,,,,,,,,,,,,,60fe0e062bd2a60fb779f608,61036e7d292d5a54a075b629,2021-07-29_23h14.41.967,Simcolourproject_2stim_asymm_v5,2020.2.10,Win32,60,61025ae37ef11b136ea224fe,,,,,,,,,3658,-89.59998989,51.99999434,1,0,0,response7disk,,1,-0.799988568,2.399993598,1,0,0,rectangle,-0.799988568,2.399993598,1,0,0,-0.799988568,2.399993598,1,0,0,1,0,160,139,1,,,,,,,,
,,,,,,,,,,,,,FF,,,,,,,,1.683,,,,,,,,,,,,,,,,,,,,,,60fe0e062bd2a60fb779f608,61036e7d292d5a54a075b629,2021-07-29_23h14.41.967,Simcolourproject_2stim_asymm_v5,2020.2.10,Win32,60,61025ae37ef11b136ea224fe,,,,,,,,,436,-51.99998933,-34.40000695,1,0,0,response5disk,,2,0.800011456,-4.000006497,1,0,0,rectangle,0.800011456,-4.000006497,1,0,0,0.800011456,-4.000006497,1,0,0,1,1,161,86,1,,,,,,,,
,,,,,,,,,,,,,FF,,,,,,,,1.6673,,,,,,,,,,,,,,,,,,,,,,60fe0e062bd2a60fb779f608,61036e7d292d5a54a075b629,2021-07-29_23h14.41.967,Simcolourproject_2stim_asymm_v5,2020.2.10,Win32,60,61025ae37ef11b136ea224fe,,,,,,,,,3303,-97.59999001,-25.60000682,1,0,0,response5disk,,2,1.600060296,-8.000006557,1,0,0,rectangle,1.600060296,-8.000006557,1,0,0,1.600060296,-8.000006557,1,0,0,1,2,162,156,1,,,,,,,,
,,,,,,,,,,,,,FF,,,,,,,,0.7998,,,,,,,,,,,,,,,,,,,,,,60fe0e062bd2a60fb779f608,61036e7d292d5a54a075b629,2021-07-29_23h14.41.967,Simcolourproject_2stim_asymm_v5,2020.2.10,Win32,60,61025ae37ef11b136ea224fe,,,,,,,,,1930,33.60006077,28.79999399,1,0,0,response1disk,,6,-15.99998879,-8.800006568,1,0,0,rectangle,-15.99998879,-8.800006568,1,0,0,-15.99998879,-8.800006568,1,0,0,1,3,163,97,1,,,,,,,,
,,,,,,,,,,,,,FF,,,,,,,,0.9,,,,,,,,,,,,,,,,,,,,,,60fe0e062bd2a60fb779f608,61036e7d292d5a54a075b629,2021-07-29_23h14.41.967,Simcolourproject_2stim_asymm_v5,2020.2.10,Win32,60,61025ae37ef11b136ea224fe,,,,,,,,,970,-87.99998987,41.59999418,1,0,0,response7disk,,1,6.400011539,-0.800006449,1,0,0,rectangle,6.400011539,-0.800006449,1,0,0,6.400011539,-0.800006449,1,0,0,1,4,164,45,1,,,,,,,,
,,,,,,,,,,,,,FF,,,,,,,,1.4832,,,,,,,,,,,,,,,,,,,,,,60fe0e062bd2a60fb779f608,61036e7d292d5a54a075b629,2021-07-29_23h14.41.967,Simcolourproject_2stim_asymm_v5,2020.2.10,Win32,60,61025ae37ef11b136ea224fe,,,,,,,,,4049,64.80001241,20.79999387,1,0,0,response1disk,,6,28.00001186,11.19999373,1,0,0,rectangle,28.00001186,11.19999373,1,0,0,28.00001186,11.19999373,1,0,0,1,5,165,117,1,,,,,,,,
,,,,,,,,,,,,,FF,,,,,,,,1.0001,,,,,,,,,,,,,,,,,,,,,,60fe0e062bd2a60fb779f608,61036e7d292d5a54a075b629,2021-07-29_23h14.41.967,Simcolourproject_2stim_asymm_v5,2020.2.10,Win32,60,61025ae37ef11b136ea224fe,,,,,,,,,2593,-101.5999901,43.19996979,1,0,0,response7disk,,1,4.000011504,7.19999367,1,0,0,rectangle,4.000011504,7.19999367,1,0,0,4.000011504,7.19999367,1,0,0,1,6,166,44,1,,,,,,,,
,,,,,,,,,,,,,FF,,,,,,,,1.7291,,,,,,,,,,,,,,,,,,,,,,60fe0e062bd2a60fb779f608,61036e7d292d5a54a075b629,2021-07-29_23h14.41.967,Simcolourproject_2stim_asymm_v5,2020.2.10,Win32,60,61025ae37ef11b136ea224fe,,,,,,,,,3705,-68.79998958,101.5999951,1,0,0,response7disk,,0,-11.19998872,-1.600006461,1,0,0,rectangle,-11.19998872,-1.600006461,1,0,0,-11.19998872,-1.600006461,1,0,0,1,7,167,154,1,,,,,,,,
,,,,,,,,,,,,,FF,,,,,,,,1.1166,,,,,,,,,,,,,,,,,,,,,,60fe0e062bd2a60fb779f608,61036e7d292d5a54a075b629,2021-07-29_23h14.41.967,Simcolourproject_2stim_asymm_v5,2020.2.10,Win32,60,61025ae37ef11b136ea224fe,,,,,,,,,618,-90.39994107,71.19997021,1,0,0,response7disk,,1,-8.799988687,0.799993575,1,0,0,rectangle,-8.799988687,0.799993575,1,0,0,-8.799988687,0.799993575,1,0,0,1,8,168,75,1,,,,,,,,
,,,,,,,,,,,,,FF,,,,,,,,1.1163,,,,,,,,,,,,,,,,,,,,,,60fe0e062bd2a60fb779f608,61036e7d292d5a54a075b629,2021-07-29_23h14.41.967,Simcolourproject_2stim_asymm_v5,2020.2.10,Win32,60,61025ae37ef11b136ea224fe,,,,,,,,,3528,91.2000128,-39.20000702,1,0,0,response3disk,,5,16.00001168,5.599993646,1,0,0,rectangle,16.00001168,5.599993646,1,0,0,16.00001168,5.599993646,1,0,0,1,9,169,10,1,,,,,,,,
,,,,,,,,,,,,,FF,,,,,,,,0.9336,,,,,,,,,,,,,,,,,,,,,,60fe0e062bd2a60fb779f608,61036e7d292d5a54a075b629,2021-07-29_23h14.41.967,Simcolourproject_2stim_asymm_v5,2020.2.10,Win32,60,61025ae37ef11b136ea224fe,,,,,,,,,3017,-26.39994012,-46.40000713,1,0,0,response5disk,,3,4.000011504,-3.200006485,1,0,0,rectangle,4.000011504,-3.200006485,1,0,0,4.000011504,-3.200006485,1,0,0,1,10,170,111,1,,,,,,,,
,,,,,,,,,,,,,FF,,,,,,,,0.9329,,,,,,,,,,,,,,,,,,,,,,60fe0e062bd2a60fb779f608,61036e7d292d5a54a075b629,2021-07-29_23h14.41.967,Simcolourproject_2stim_asymm_v5,2020.2.10,Win32,60,61025ae37ef11b136ea224fe,,,,,,,,,2647,-76.7999897,-29.60000688,1,0,0,response5disk,,2,2.40001148,-10.40000659,1,0,0,rectangle,2.40001148,-10.40000659,1,0,0,2.40001148,-10.40000659,1,0,0,1,11,171,136,1,,,,,,,,
,,,,,,,,,,,,,FF,,,,,,,,0.9335,,,,,,,,,,,,,,,,,,,,,,60fe0e062bd2a60fb779f608,61036e7d292d5a54a075b629,2021-07-29_23h14.41.967,Simcolourproject_2stim_asymm_v5,2020.2.10,Win32,60,61025ae37ef11b136ea224fe,,,,,,,,,3679,101.600013,-25.60000682,1,0,0,response3disk,,5,16.80001169,3.999993622,1,0,0,rectangle,16.80001169,3.999993622,1,0,0,16.80001169,3.999993622,1,0,0,1,12,172,143,1,,,,,,,,
,,,,,,,,,,,,,FF,,,,,,,,0.7834,,,,,,,,,,,,,,,,,,,,,,60fe0e062bd2a60fb779f608,61036e7d292d5a54a075b629,2021-07-29_23h14.41.967,Simcolourproject_2stim_asymm_v5,2020.2.10,Win32,60,61025ae37ef11b136ea224fe,,,,,,,,,3127,-41.59998918,-87.20000774,1,0,0,response5disk,,3,13.60006047,11.99999374,1,0,0,rectangle,13.60006047,11.99999374,1,0,0,13.60006047,11.99999374,1,0,0,1,13,173,100,1,,,,,,,,
,,,,,,,,,,,,,FF,,,,,,,,0.6502,,,,,,,,,,,,,,,,,,,,,,60fe0e062bd2a60fb779f608,61036e7d292d5a54a075b629,2021-07-29_23h14.41.967,Simcolourproject_2stim_asymm_v5,2020.2.10,Win32,60,61025ae37ef11b136ea224fe,,,,,,,,,2537,41.60006089,61.59999448,1,0,0,response1disk,,7,12.00001162,15.19999379,1,0,0,rectangle,12.00001162,15.19999379,1,0,0,12.00001162,15.19999379,1,0,0,1,14,174,88,1,,,,,,,,
,,,,,,,,,,,,,FF,,,,,,,,1.0502,,,,,,,,,,,,,,,,,,,,,,60fe0e062bd2a60fb779f608,61036e7d292d5a54a075b629,2021-07-29_23h14.41.967,Simcolourproject_2stim_asymm_v5,2020.2.10,Win32,60,61025ae37ef11b136ea224fe,,,,,,,,,3588,48.00001216,119.9999954,1,0,0,response1disk,,7,1.600060296,2.399993598,1,0,0,rectangle,1.600060296,2.399993598,1,0,0,1.600060296,2.399993598,1,0,0,1,15,175,24,1,,,,,,,,
,,,,,,,,,,,,,FF,,,,,,,,1.3003,,,,,,,,,,,,,,,,,,,,,,60fe0e062bd2a60fb779f608,61036e7d292d5a54a075b629,2021-07-29_23h14.41.967,Simcolourproject_2stim_asymm_v5,2020.2.10,Win32,60,61025ae37ef11b136ea224fe,,,,,,,,,2975,-107.9999902,71.99999464,1,0,0,response7disk,,1,-15.19998878,2.399993598,1,0,0,rectangle,-15.19998878,2.399993598,1,0,0,-15.19998878,2.399993598,1,0,0,1,16,176,70,1,,,,,,,,
,,,,,,,,,,,,,FF,,,,,,,,0.8669,,,,,,,,,,,,,,,,,,,,,,60fe0e062bd2a60fb779f608,61036e7d292d5a54a075b629,2021-07-29_23h14.41.967,Simcolourproject_2stim_asymm_v5,2020.2.10,Win32,60,61025ae37ef11b136ea224fe,,,,,,,,,1731,-86.39994102,32.79999405,1,0,0,response7disk,,1,1.14441E-05,-0.800006449,1,0,0,rectangle,1.14441E-05,-0.800006449,1,0,0,1.14441E-05,-0.800006449,1,0,0,1,17,177,9,1,,,,,,,,
,,,,,,,,,,,,,FF,,,,,,,,0.9338,,,,,,,,,,,,,,,,,,,,,,60fe0e062bd2a60fb779f608,61036e7d292d5a54a075b629,2021-07-29_23h14.41.967,Simcolourproject_2stim_asymm_v5,2020.2.10,Win32,60,61025ae37ef11b136ea224fe,,,,,,,,,2611,-71.99998963,-36.00000697,1,0,0,response5disk,,2,17.60006053,3.999993622,1,0,0,rectangle,17.60006053,3.999993622,1,0,0,17.60006053,3.999993622,1,0,0,1,18,178,137,1,,,,,,,,
,,,,,,,,,,,,,FF,,,,,,,,0.7334,,,,,,,,,,,,,,,,,,,,,,60fe0e062bd2a60fb779f608,61036e7d292d5a54a075b629,2021-07-29_23h14.41.967,Simcolourproject_2stim_asymm_v5,2020.2.10,Win32,60,61025ae37ef11b136ea224fe,,,,,,,,,3468,-52.79998934,83.19997039,1,0,0,response7disk,,0,4.000011504,-4.800006509,1,0,0,rectangle,4.000011504,-4.800006509,1,0,0,4.000011504,-4.800006509,1,0,0,1,19,179,31,1,,,,,,,,
,,,,,,,,,,,,,FF,,,,,,,,0.9502,,,,,,,,,,,,,,,,,,,,,,60fe0e062bd2a60fb779f608,61036e7d292d5a54a075b629,2021-07-29_23h14.41.967,Simcolourproject_2stim_asymm_v5,2020.2.10,Win32,60,61025ae37ef11b136ea224fe,,,,,,,,,1117,-84.79998982,-36.00000697,1,0,0,response5disk,,2,-9.599988699,-12.00000662,1,0,0,rectangle,-9.599988699,-12.00000662,1,0,0,-9.599988699,-12.00000662,1,0,0,1,20,180,133,1,,,,,,,,
,,,,,,,,,,,,,FF,,,,,,,,1.3673,,,,,,,,,,,,,,,,,,,,,,60fe0e062bd2a60fb779f608,61036e7d292d5a54a075b629,2021-07-29_23h14.41.967,Simcolourproject_2stim_asymm_v5,2020.2.10,Win32,60,61025ae37ef11b136ea224fe,,,,,,,,,3016,52.80001223,-73.60000753,1,0,0,response3disk,,4,-1.59998858,-3.200006485,1,0,0,rectangle,-1.59998858,-3.200006485,1,0,0,-1.59998858,-3.200006485,1,0,0,1,21,181,71,1,,,,,,,,
,,,,,,,,,,,,,FF,,,,,,,,2.2503,,,,,,,,,,,,,,,,,,,,,,60fe0e062bd2a60fb779f608,61036e7d292d5a54a075b629,2021-07-29_23h14.41.967,Simcolourproject_2stim_asymm_v5,2020.2.10,Win32,60,61025ae37ef11b136ea224fe,,,,,,,,,1775,120.8000132,45.59999424,1,0,0,response1disk,,6,-11.19998872,16.79999381,1,0,0,rectangle,-11.19998872,16.79999381,1,0,0,-11.19998872,16.79999381,1,0,0,1,22,182,106,1,,,,,,,,
,,,,,,,,,,,,,FF,,,,,,,,1.1835,,,,,,,,,,,,,,,,,,,,,,60fe0e062bd2a60fb779f608,61036e7d292d5a54a075b629,2021-07-29_23h14.41.967,Simcolourproject_2stim_asymm_v5,2020.2.10,Win32,60,61025ae37ef11b136ea224fe,,,,,,,,,2317,64.0000124,-78.40000761,1,0,0,response3disk,,4,-11.19998872,-4.000006497,1,0,0,rectangle,-11.19998872,-4.000006497,1,0,0,-11.19998872,-4.000006497,1,0,0,1,23,183,152,1,,,,,,,,
,,,,,,,,,,,,,FF,,,,,,,,0.8499,,,,,,,,,,,,,,,,,,,,,,60fe0e062bd2a60fb779f608,61036e7d292d5a54a075b629,2021-07-29_23h14.41.967,Simcolourproject_2stim_asymm_v5,2020.2.10,Win32,60,61025ae37ef11b136ea224fe,,,,,,,,,2754,-94.39994113,43.19996979,1,0,0,response7disk,,1,-3.999988616,-0.800006449,1,0,0,rectangle,-3.999988616,-0.800006449,1,0,0,-3.999988616,-0.800006449,1,0,0,1,24,184,73,1,,,,,,,,
,,,,,,,,,,,,,FF,,,,,,,,0.9004,,,,,,,,,,,,,,,,,,,,,,60fe0e062bd2a60fb779f608,61036e7d292d5a54a075b629,2021-07-29_23h14.41.967,Simcolourproject_2stim_asymm_v5,2020.2.10,Win32,60,61025ae37ef11b136ea224fe,,,,,,,,,2674,-40.79998916,-83.20000768,1,0,0,response5disk,,3,18.40001172,-4.000006497,1,0,0,rectangle,18.40001172,-4.000006497,1,0,0,18.40001172,-4.000006497,1,0,0,1,25,185,141,1,,,,,,,,
,,,,,,,,,,,,,FF,,,,,,,,0.9501,,,,,,,,,,,,,,,,,,,,,,60fe0e062bd2a60fb779f608,61036e7d292d5a54a075b629,2021-07-29_23h14.41.967,Simcolourproject_2stim_asymm_v5,2020.2.10,Win32,60,61025ae37ef11b136ea224fe,,,,,,,,,1846,70.40001249,92.79999495,1,0,0,response1disk,,7,7.200011551,-6.4373E-06,1,0,0,rectangle,7.200011551,-6.4373E-06,1,0,0,7.200011551,-6.4373E-06,1,0,0,1,26,186,131,1,,,,,,,,
,,,,,,,,,,,,,FF,,,,,,,,1.0663,,,,,,,,,,,,,,,,,,,,,,60fe0e062bd2a60fb779f608,61036e7d292d5a54a075b629,2021-07-29_23h14.41.967,Simcolourproject_2stim_asymm_v5,2020.2.10,Win32,60,61025ae37ef11b136ea224fe,,,,,,,,,3244,-75.99998969,-69.60000747,1,0,0,response5disk,,2,-1.59998858,-16.00000668,1,0,0,rectangle,-1.59998858,-16.00000668,1,0,0,-1.59998858,-16.00000668,1,0,0,1,27,187,74,1,,,,,,,,
,,,,,,,,,,,,,FF,,,,,,,,1.3169,,,,,,,,,,,,,,,,,,,,,,60fe0e062bd2a60fb779f608,61036e7d292d5a54a075b629,2021-07-29_23h14.41.967,Simcolourproject_2stim_asymm_v5,2020.2.10,Win32,60,61025ae37ef11b136ea224fe,,,,,,,,,246,-41.59998918,-112.8000081,1,0,0,response5disk,,3,-4.799988627,-1.600006461,1,0,0,rectangle,-4.799988627,-1.600006461,1,0,0,-4.799988627,-1.600006461,1,0,0,1,28,188,151,1,,,,,,,,
,,,,,,,,,,,,,FF,,,,,,,,0.9006,,,,,,,,,,,,,,,,,,,,,,60fe0e062bd2a60fb779f608,61036e7d292d5a54a075b629,2021-07-29_23h14.41.967,Simcolourproject_2stim_asymm_v5,2020.2.10,Win32,60,61025ae37ef11b136ea224fe,,,,,,,,,2920,60.00001234,-43.20000708,1,0,0,response3disk,,5,-1.59998858,9.599993706,1,0,0,rectangle,-1.59998858,9.599993706,1,0,0,-1.59998858,9.599993706,1,0,0,1,29,189,51,1,,,,,,,,
,,,,,,,,,,,,,FF,,,,,,,,1.0338,,,,,,,,,,,,,,,,,,,,,,60fe0e062bd2a60fb779f608,61036e7d292d5a54a075b629,2021-07-29_23h14.41.967,Simcolourproject_2stim_asymm_v5,2020.2.10,Win32,60,61025ae37ef11b136ea224fe,,,,,,,,,3663,88.80001277,33.59999406,1,0,0,response1disk,,6,5.600060356,-11.2000066,1,0,0,rectangle,5.600060356,-11.2000066,1,0,0,5.600060356,-11.2000066,1,0,0,1,30,190,149,1,,,,,,,,
,,,,,,,,,,,,,FF,,,,,,,,0.7503,,,,,,,,,,,,,,,,,,,,,,60fe0e062bd2a60fb779f608,61036e7d292d5a54a075b629,2021-07-29_23h14.41.967,Simcolourproject_2stim_asymm_v5,2020.2.10,Win32,60,61025ae37ef11b136ea224fe,,,,,,,,,685,33.60006077,-64.8000074,1,0,0,response3disk,,4,-3.999988616,2.399993598,1,0,0,rectangle,-3.999988616,2.399993598,1,0,0,-3.999988616,2.399993598,1,0,0,1,31,191,118,1,,,,,,,,
,,,,,,,,,,,,,FF,,,,,,,,1.6502,,,,,,,,,,,,,,,,,,,,,,60fe0e062bd2a60fb779f608,61036e7d292d5a54a075b629,2021-07-29_23h14.41.967,Simcolourproject_2stim_asymm_v5,2020.2.10,Win32,60,61025ae37ef11b136ea224fe,,,,,,,,,1652,124.0000133,-69.60000747,1,0,0,response3disk,,5,12.80001163,3.19999361,1,0,0,rectangle,12.80001163,3.19999361,1,0,0,12.80001163,3.19999361,1,0,0,1,32,192,12,1,,,,,,,,
,,,,,,,,,,,,,FF,,,,,,,,0.9669,,,,,,,,,,,,,,,,,,,,,,60fe0e062bd2a60fb779f608,61036e7d292d5a54a075b629,2021-07-29_23h14.41.967,Simcolourproject_2stim_asymm_v5,2020.2.10,Win32,60,61025ae37ef11b136ea224fe,,,,,,,,,4016,94.40001285,-34.40000695,1,0,0,response3disk,,5,27.20001185,-3.200006485,1,0,0,rectangle,27.20001185,-3.200006485,1,0,0,27.20001185,-3.200006485,1,0,0,1,33,193,68,1,,,,,,,,
,,,,,,,,,,,,,FF,,,,,,,,0.767,,,,,,,,,,,,,,,,,,,,,,60fe0e062bd2a60fb779f608,61036e7d292d5a54a075b629,2021-07-29_23h14.41.967,Simcolourproject_2stim_asymm_v5,2020.2.10,Win32,60,61025ae37ef11b136ea224fe,,,,,,,,,2017,-48.79998928,-124.0000083,1,0,0,response5disk,,3,-8.799988687,-6.4373E-06,1,0,0,rectangle,-8.799988687,-6.4373E-06,1,0,0,-8.799988687,-6.4373E-06,1,0,0,1,34,194,61,1,,,,,,,,
,,,,,,,,,,,,,FF,,,,,,,,0.9665,,,,,,,,,,,,,,,,,,,,,,60fe0e062bd2a60fb779f608,61036e7d292d5a54a075b629,2021-07-29_23h14.41.967,Simcolourproject_2stim_asymm_v5,2020.2.10,Win32,60,61025ae37ef11b136ea224fe,,,,,,,,,2490,26.40001184,-101.6000568,1,0,0,response3disk,,4,-2.399939764,-4.000006497,1,0,0,rectangle,-2.399939764,-4.000006497,1,0,0,-2.399939764,-4.000006497,1,0,0,1,35,195,114,1,,,,,,,,
,,,,,,,,,,,,,FF,,,,,,,,0.8833,,,,,,,,,,,,,,,,,,,,,,60fe0e062bd2a60fb779f608,61036e7d292d5a54a075b629,2021-07-29_23h14.41.967,Simcolourproject_2stim_asymm_v5,2020.2.10,Win32,60,61025ae37ef11b136ea224fe,,,,,,,,,3142,-57.59998941,-23.20000678,1,0,0,response5disk,,2,0.800011456,7.19999367,1,0,0,rectangle,0.800011456,7.19999367,1,0,0,0.800011456,7.19999367,1,0,0,1,36,196,33,1,,,,,,,,
,,,,,,,,,,,,,FF,,,,,,,,0.7334,,,,,,,,,,,,,,,,,,,,,,60fe0e062bd2a60fb779f608,61036e7d292d5a54a075b629,2021-07-29_23h14.41.967,Simcolourproject_2stim_asymm_v5,2020.2.10,Win32,60,61025ae37ef11b136ea224fe,,,,,,,,,1498,-33.59998906,-69.60000747,1,0,0,response5disk,,3,6.400011539,-8.800006568,1,0,0,rectangle,6.400011539,-8.800006568,1,0,0,6.400011539,-8.800006568,1,0,0,1,37,197,1,1,,,,,,,,
,,,,,,,,,,,,,FF,,,,,,,,0.7668,,,,,,,,,,,,,,,,,,,,,,60fe0e062bd2a60fb779f608,61036e7d292d5a54a075b629,2021-07-29_23h14.41.967,Simcolourproject_2stim_asymm_v5,2020.2.10,Win32,60,61025ae37ef11b136ea224fe,,,,,,,,,3196,57.6000123,-62.40000737,1,0,0,response3disk,,4,7.200011551,-8.800006568,1,0,0,rectangle,7.200011551,-8.800006568,1,0,0,7.200011551,-8.800006568,1,0,0,1,38,198,78,1,,,,,,,,
,,,,,,,,,,,,,FF,,,,,,,,1.2337,,,,,,,,,,,,,,,,,,,,,,60fe0e062bd2a60fb779f608,61036e7d292d5a54a075b629,2021-07-29_23h14.41.967,Simcolourproject_2stim_asymm_v5,2020.2.10,Win32,60,61025ae37ef11b136ea224fe,,,,,,,,,1269,79.20001262,-21.60000676,1,0,0,response3disk,,5,21.60006059,3.19999361,1,0,0,rectangle,21.60006059,3.19999361,1,0,0,21.60006059,3.19999361,1,0,0,1,39,199,82,1,,,,,,,,
,,,,,,,,,,,,,FF,,,,,,,,0.5517,,,,,,,,,,,,,,,,,,,,,,60fe0e062bd2a60fb779f608,61036e7d292d5a54a075b629,2021-07-29_23h14.41.967,Simcolourproject_2stim_asymm_v5,2020.2.10,Win32,60,61025ae37ef11b136ea224fe,,,,,,,,,1898,-36.7999891,-92.00000781,1,0,0,response5disk,,3,-2.399939764,-2.400006473,1,0,0,rectangle,-2.399939764,-2.400006473,1,0,0,-2.399939764,-2.400006473,1,0,0,1,40,200,27,1,,,,,,,,
,,,,,,,,,,,,,FF,,,,,,,,1.5167,,,,,,,,,,,,,,,,,,,,,,60fe0e062bd2a60fb779f608,61036e7d292d5a54a075b629,2021-07-29_23h14.41.967,Simcolourproject_2stim_asymm_v5,2020.2.10,Win32,60,61025ae37ef11b136ea224fe,,,,,,,,,4035,-78.3999409,-20.00000674,1,0,0,response5disk,,2,-19.19998884,7.999993682,1,0,0,rectangle,-19.19998884,7.999993682,1,0,0,-19.19998884,7.999993682,1,0,0,1,41,201,129,1,,,,,,,,
,,,,,,,,,,,,,FF,,,,,,,,1.15,,,,,,,,,,,,,,,,,,,,,,60fe0e062bd2a60fb779f608,61036e7d292d5a54a075b629,2021-07-29_23h14.41.967,Simcolourproject_2stim_asymm_v5,2020.2.10,Win32,60,61025ae37ef11b136ea224fe,,,,,,,,,4241,74.40001255,-122.4000083,1,0,0,response3disk,,4,-0.799988568,-1.600006461,1,0,0,rectangle,-0.799988568,-1.600006461,1,0,0,-0.799988568,-1.600006461,1,0,0,1,42,202,32,1,,,,,,,,
,,,,,,,,,,,,,FF,,,,,,,,0.7669,,,,,,,,,,,,,,,,,,,,,,60fe0e062bd2a60fb779f608,61036e7d292d5a54a075b629,2021-07-29_23h14.41.967,Simcolourproject_2stim_asymm_v5,2020.2.10,Win32,60,61025ae37ef11b136ea224fe,,,,,,,,,1319,-26.39994012,-57.6000073,1,0,0,response5disk,,3,-0.799988568,-14.40000665,1,0,0,rectangle,-0.799988568,-14.40000665,1,0,0,-0.799988568,-14.40000665,1,0,0,1,43,203,8,1,,,,,,,,
,,,,,,,,,,,,,FF,,,,,,,,0.6173,,,,,,,,,,,,,,,,,,,,,,60fe0e062bd2a60fb779f608,61036e7d292d5a54a075b629,2021-07-29_23h14.41.967,Simcolourproject_2stim_asymm_v5,2020.2.10,Win32,60,61025ae37ef11b136ea224fe,,,,,,,,,2415,56.00001228,19.99999386,1,0,0,response1disk,,6,23.20001179,9.599993706,1,0,0,rectangle,23.20001179,9.599993706,1,0,0,23.20001179,9.599993706,1,0,0,1,44,204,146,1,,,,,,,,
,,,,,,,,,,,,,FF,,,,,,,,1.4006,,,,,,,,,,,,,,,,,,,,,,60fe0e062bd2a60fb779f608,61036e7d292d5a54a075b629,2021-07-29_23h14.41.967,Simcolourproject_2stim_asymm_v5,2020.2.10,Win32,60,61025ae37ef11b136ea224fe,,,,,,,,,4333,110.4000131,59.99999446,1,0,0,response1disk,,6,7.200011551,-4.800006509,1,0,0,rectangle,7.200011551,-4.800006509,1,0,0,7.200011551,-4.800006509,1,0,0,1,45,205,28,1,,,,,,,,
,,,,,,,,,,,,,FF,,,,,,,,1.1335,,,,,,,,,,,,,,,,,,,,,,60fe0e062bd2a60fb779f608,61036e7d292d5a54a075b629,2021-07-29_23h14.41.967,Simcolourproject_2stim_asymm_v5,2020.2.10,Win32,60,61025ae37ef11b136ea224fe,,,,,,,,,3629,44.0000121,97.59999502,1,0,0,response1disk,,7,-1.59998858,-4.000006497,1,0,0,rectangle,-1.59998858,-4.000006497,1,0,0,-1.59998858,-4.000006497,1,0,0,1,46,206,94,1,,,,,,,,
,,,,,,,,,,,,,FF,,,,,,,,1.35,,,,,,,,,,,,,,,,,,,,,,60fe0e062bd2a60fb779f608,61036e7d292d5a54a075b629,2021-07-29_23h14.41.967,Simcolourproject_2stim_asymm_v5,2020.2.10,Win32,60,61025ae37ef11b136ea224fe,,,,,,,,,1800,72.00001252,-85.60005654,1,0,0,response3disk,,4,-3.199988604,-9.60000658,1,0,0,rectangle,-3.199988604,-9.60000658,1,0,0,-3.199988604,-9.60000658,1,0,0,1,47,207,3,1,,,,,,,,
,,,,,,,,,,,,,FF,,,,,,,,0.8721,,,,,,,,,,,,,,,,,,,,,,60fe0e062bd2a60fb779f608,61036e7d292d5a54a075b629,2021-07-29_23h14.41.967,Simcolourproject_2stim_asymm_v5,2020.2.10,Win32,60,61025ae37ef11b136ea224fe,,,,,,,,,1446,-77.59998971,33.59999406,1,0,0,response7disk,,1,-13.59998876,1.599993587,1,0,0,rectangle,-13.59998876,1.599993587,1,0,0,-13.59998876,1.599993587,1,0,0,1,48,208,57,1,,,,,,,,
,,,,,,,,,,,,,FF,,,,,,,,0.8839,,,,,,,,,,,,,,,,,,,,,,60fe0e062bd2a60fb779f608,61036e7d292d5a54a075b629,2021-07-29_23h14.41.967,Simcolourproject_2stim_asymm_v5,2020.2.10,Win32,60,61025ae37ef11b136ea224fe,,,,,,,,,2860,-66.39994072,-92.00000781,1,0,0,response5disk,,3,2.40001148,1.599993587,1,0,0,rectangle,2.40001148,1.599993587,1,0,0,2.40001148,1.599993587,1,0,0,1,49,209,65,1,,,,,,,,
,,,,,,,,,,,,,FF,,,,,,,,0.8995,,,,,,,,,,,,,,,,,,,,,,60fe0e062bd2a60fb779f608,61036e7d292d5a54a075b629,2021-07-29_23h14.41.967,Simcolourproject_2stim_asymm_v5,2020.2.10,Win32,60,61025ae37ef11b136ea224fe,,,,,,,,,2946,75.20001256,-96.80000788,1,0,0,response3disk,,4,11.20001161,10.39999372,1,0,0,rectangle,11.20001161,10.39999372,1,0,0,11.20001161,10.39999372,1,0,0,1,50,210,115,1,,,,,,,,
,,,,,,,,,,,,,FF,,,,,,,,1.8003,,,,,,,,,,,,,,,,,,,,,,60fe0e062bd2a60fb779f608,61036e7d292d5a54a075b629,2021-07-29_23h14.41.967,Simcolourproject_2stim_asymm_v5,2020.2.10,Win32,60,61025ae37ef11b136ea224fe,,,,,,,,,3403,44.0000121,-83.20000768,1,0,0,response3disk,,4,-8.799988687,4.799993634,1,0,0,rectangle,-8.799988687,4.799993634,1,0,0,-8.799988687,4.799993634,1,0,0,1,51,211,13,1,,,,,,,,
,,,,,,,,,,,,,FF,,,,,,,,0.8838,,,,,,,,,,,,,,,,,,,,,,60fe0e062bd2a60fb779f608,61036e7d292d5a54a075b629,2021-07-29_23h14.41.967,Simcolourproject_2stim_asymm_v5,2020.2.10,Win32,60,61025ae37ef11b136ea224fe,,,,,,,,,3285,-31.19998902,-102.400008,1,0,0,response5disk,,3,3.200011492,-4.800006509,1,0,0,rectangle,3.200011492,-4.800006509,1,0,0,3.200011492,-4.800006509,1,0,0,1,52,212,15,1,,,,,,,,
,,,,,,,,,,,,,FF,,,,,,,,0.7332,,,,,,,,,,,,,,,,,,,,,,60fe0e062bd2a60fb779f608,61036e7d292d5a54a075b629,2021-07-29_23h14.41.967,Simcolourproject_2stim_asymm_v5,2020.2.10,Win32,60,61025ae37ef11b136ea224fe,,,,,,,,,453,82.40001267,-41.60000706,1,0,0,response3disk,,5,9.600060415,-4.800006509,1,0,0,rectangle,9.600060415,-4.800006509,1,0,0,9.600060415,-4.800006509,1,0,0,1,53,213,21,1,,,,,,,,
,,,,,,,,,,,,,FF,,,,,,,,0.7999,,,,,,,,,,,,,,,,,,,,,,60fe0e062bd2a60fb779f608,61036e7d292d5a54a075b629,2021-07-29_23h14.41.967,Simcolourproject_2stim_asymm_v5,2020.2.10,Win32,60,61025ae37ef11b136ea224fe,,,,,,,,,4335,-48.79998928,75.19997027,1,0,0,response7disk,,0,-9.599988699,-8.000006557,1,0,0,rectangle,-9.599988699,-8.000006557,1,0,0,-9.599988699,-8.000006557,1,0,0,1,54,214,93,1,,,,,,,,
,,,,,,,,,,,,,FF,,,,,,,,0.6001,,,,,,,,,,,,,,,,,,,,,,60fe0e062bd2a60fb779f608,61036e7d292d5a54a075b629,2021-07-29_23h14.41.967,Simcolourproject_2stim_asymm_v5,2020.2.10,Win32,60,61025ae37ef11b136ea224fe,,,,,,,,,4222,-36.7999891,77.59999472,1,0,0,response7disk,,0,-10.39993988,-2.400006473,1,0,0,rectangle,-10.39993988,-2.400006473,1,0,0,-10.39993988,-2.400006473,1,0,0,1,55,215,11,1,,,,,,,,
,,,,,,,,,,,,,FF,,,,,,,,0.6836,,,,,,,,,,,,,,,,,,,,,,60fe0e062bd2a60fb779f608,61036e7d292d5a54a075b629,2021-07-29_23h14.41.967,Simcolourproject_2stim_asymm_v5,2020.2.10,Win32,60,61025ae37ef11b136ea224fe,,,,,,,,,1021,-47.99998927,-34.40000695,1,0,0,response5disk,,2,16.80001169,-8.000006557,1,0,0,rectangle,16.80001169,-8.000006557,1,0,0,16.80001169,-8.000006557,1,0,0,1,56,216,40,1,,,,,,,,
,,,,,,,,,,,,,FF,,,,,,,,0.9676,,,,,,,,,,,,,,,,,,,,,,60fe0e062bd2a60fb779f608,61036e7d292d5a54a075b629,2021-07-29_23h14.41.967,Simcolourproject_2stim_asymm_v5,2020.2.10,Win32,60,61025ae37ef11b136ea224fe,,,,,,,,,1420,88.80001277,-68.80000746,1,0,0,response3disk,,5,4.000011504,13.59999377,1,0,0,rectangle,4.000011504,13.59999377,1,0,0,4.000011504,13.59999377,1,0,0,1,57,217,76,1,,,,,,,,
,,,,,,,,,,,,,FF,,,,,,,,1.7339,,,,,,,,,,,,,,,,,,,,,,60fe0e062bd2a60fb779f608,61036e7d292d5a54a075b629,2021-07-29_23h14.41.967,Simcolourproject_2stim_asymm_v5,2020.2.10,Win32,60,61025ae37ef11b136ea224fe,,,,,,,,,1501,110.4000131,-44.8000071,1,0,0,response3disk,,5,1.600060296,-8.800006568,1,0,0,rectangle,1.600060296,-8.800006568,1,0,0,1.600060296,-8.800006568,1,0,0,1,58,218,85,1,,,,,,,,
,,,,,,,,,,,,,FF,,,,,,,,3.6503,,,,,,,,,,,,,,,,,,,,,,60fe0e062bd2a60fb779f608,61036e7d292d5a54a075b629,2021-07-29_23h14.41.967,Simcolourproject_2stim_asymm_v5,2020.2.10,Win32,60,61025ae37ef11b136ea224fe,,,,,,,,,227,44.80001211,-125.6000571,1,0,0,response3disk,,4,0.800011456,6.399993658,1,0,0,rectangle,0.800011456,6.399993658,1,0,0,0.800011456,6.399993658,1,0,0,1,59,219,128,1,,,,,,,,
,,,,,,,,,,,,,FF,,,,,,,,0.9001,,,,,,,,,,,,,,,,,,,,,,60fe0e062bd2a60fb779f608,61036e7d292d5a54a075b629,2021-07-29_23h14.41.967,Simcolourproject_2stim_asymm_v5,2020.2.10,Win32,60,61025ae37ef11b136ea224fe,,,,,,,,,470,-50.39994048,75.19997027,1,0,0,response7disk,,0,-1.59998858,-11.2000066,1,0,0,rectangle,-1.59998858,-11.2000066,1,0,0,-1.59998858,-11.2000066,1,0,0,1,60,220,121,1,,,,,,,,
,,,,,,,,,,,,,FF,,,,,,,,0.6503,,,,,,,,,,,,,,,,,,,,,,60fe0e062bd2a60fb779f608,61036e7d292d5a54a075b629,2021-07-29_23h14.41.967,Simcolourproject_2stim_asymm_v5,2020.2.10,Win32,60,61025ae37ef11b136ea224fe,,,,,,,,,3879,-30.39994018,-72.80000752,1,0,0,response5disk,,3,18.40001172,-8.800006568,1,0,0,rectangle,59.20001233,82.39999479,1,0,0,-2.399939764,4.799993634,1,0,0,1,61,221,108,1,,response1disk_3,TRUE,7,7,"[323,155,282,77,155,271,292,158,60,12,294,47,73,58,89,125,222,246,160,20]",1.3671,rectangle
,,,,,,,,,,,,,FF,,,,,,,,0.6998,,,,,,,,,,,,,,,,,,,,,,60fe0e062bd2a60fb779f608,61036e7d292d5a54a075b629,2021-07-29_23h14.41.967,Simcolourproject_2stim_asymm_v5,2020.2.10,Win32,60,61025ae37ef11b136ea224fe,,,,,,,,,1433,-36.7999891,-72.80000752,1,0,0,response5disk,,3,10.4000116,0.799993575,1,0,0,rectangle,10.4000116,0.799993575,1,0,0,10.4000116,0.799993575,1,0,0,1,62,222,41,1,,,,,,,,
,,,,,,,,,,,,,FF,,,,,,,,0.8168,,,,,,,,,,,,,,,,,,,,,,60fe0e062bd2a60fb779f608,61036e7d292d5a54a075b629,2021-07-29_23h14.41.967,Simcolourproject_2stim_asymm_v5,2020.2.10,Win32,60,61025ae37ef11b136ea224fe,,,,,,,,,981,-29.599989,-92.80000782,1,0,0,response5disk,,3,20.80001175,-4.000006497,1,0,0,rectangle,20.80001175,-4.000006497,1,0,0,20.80001175,-4.000006497,1,0,0,1,63,223,25,1,,,,,,,,
,,,,,,,,,,,,,FF,,,,,,,,0.6504,,,,,,,,,,,,,,,,,,,,,,60fe0e062bd2a60fb779f608,61036e7d292d5a54a075b629,2021-07-29_23h14.41.967,Simcolourproject_2stim_asymm_v5,2020.2.10,Win32,60,61025ae37ef11b136ea224fe,,,,,,,,,4257,89.60001278,-36.80000699,1,0,0,response3disk,,5,13.60006047,-3.200006485,1,0,0,rectangle,13.60006047,-3.200006485,1,0,0,13.60006047,-3.200006485,1,0,0,1,64,224,159,1,,,,,,,,
,,,,,,,,,,,,,FF,,,,,,,,1.2169,,,,,,,,,,,,,,,,,,,,,,60fe0e062bd2a60fb779f608,61036e7d292d5a54a075b629,2021-07-29_23h14.41.967,Simcolourproject_2stim_asymm_v5,2020.2.10,Win32,60,61025ae37ef11b136ea224fe,,,,,,,,,2924,-43.1999892,-73.60000753,1,0,0,response5disk,,3,-4.799988627,-5.600006521,1,0,0,rectangle,-4.799988627,-5.600006521,1,0,0,-4.799988627,-5.600006521,1,0,0,1,65,225,150,1,,,,,,,,
,,,,,,,,,,,,,FF,,,,,,,,0.6333,,,,,,,,,,,,,,,,,,,,,,60fe0e062bd2a60fb779f608,61036e7d292d5a54a075b629,2021-07-29_23h14.41.967,Simcolourproject_2stim_asymm_v5,2020.2.10,Win32,60,61025ae37ef11b136ea224fe,,,,,,,,,2576,63.20001239,41.59999418,1,0,0,response1disk,,6,1.600060296,-8.000006557,1,0,0,rectangle,1.600060296,-8.000006557,1,0,0,1.600060296,-8.000006557,1,0,0,1,66,226,80,1,,,,,,,,
,,,,,,,,,,,,,FF,,,,,,,,0.7332,,,,,,,,,,,,,,,,,,,,,,60fe0e062bd2a60fb779f608,61036e7d292d5a54a075b629,2021-07-29_23h14.41.967,Simcolourproject_2stim_asymm_v5,2020.2.10,Win32,60,61025ae37ef11b136ea224fe,,,,,,,,,2202,92.80001283,44.79999423,1,0,0,response1disk,,6,19.20001173,-6.400006533,1,0,0,rectangle,19.20001173,-6.400006533,1,0,0,19.20001173,-6.400006533,1,0,0,1,67,227,30,1,,,,,,,,
,,,,,,,,,,,,,FF,,,,,,,,0.733,,,,,,,,,,,,,,,,,,,,,,60fe0e062bd2a60fb779f608,61036e7d292d5a54a075b629,2021-07-29_23h14.41.967,Simcolourproject_2stim_asymm_v5,2020.2.10,Win32,60,61025ae37ef11b136ea224fe,,,,,,,,,3853,-64.79998952,-43.20000708,1,0,0,response5disk,,2,4.800011516,-13.60000664,1,0,0,rectangle,4.800011516,-13.60000664,1,0,0,4.800011516,-13.60000664,1,0,0,1,68,228,104,1,,,,,,,,
,,,,,,,,,,,,,FF,,,,,,,,0.8347,,,,,,,,,,,,,,,,,,,,,,60fe0e062bd2a60fb779f608,61036e7d292d5a54a075b629,2021-07-29_23h14.41.967,Simcolourproject_2stim_asymm_v5,2020.2.10,Win32,60,61025ae37ef11b136ea224fe,,,,,,,,,2615,-27.99998897,-77.60000759,0,0,1,response5disk,,3,-3.199988604,-4.000006497,1,0,0,rectangle,-3.199988604,-4.000006497,1,0,0,-3.199988604,-4.000006497,1,0,0,1,69,229,42,1,,,,,,,,
,,,,,,,,,,,,,FF,,,,,,,,1.0838,,,,,,,,,,,,,,,,,,,,,,60fe0e062bd2a60fb779f608,61036e7d292d5a54a075b629,2021-07-29_23h14.41.967,Simcolourproject_2stim_asymm_v5,2020.2.10,Win32,60,61025ae37ef11b136ea224fe,,,,,,,,,965,46.40001214,-67.20000744,1,0,0,response3disk,,4,4.000011504,3.999993622,1,0,0,rectangle,4.000011504,3.999993622,1,0,0,4.000011504,3.999993622,1,0,0,1,70,230,96,1,,,,,,,,
,,,,,,,,,,,,,FF,,,,,,,,0.9835,,,,,,,,,,,,,,,,,,,,,,60fe0e062bd2a60fb779f608,61036e7d292d5a54a075b629,2021-07-29_23h14.41.967,Simcolourproject_2stim_asymm_v5,2020.2.10,Win32,60,61025ae37ef11b136ea224fe,,,,,,,,,1101,96.80001289,55.19996997,1,0,0,response1disk,,6,0.800011456,-10.40000659,1,0,0,rectangle,0.800011456,-10.40000659,1,0,0,0.800011456,-10.40000659,1,0,0,1,71,231,6,1,,,,,,,,
,,,,,,,,,,,,,FF,,,,,,,,0.6392,,,,,,,,,,,,,,,,,,,,,,60fe0e062bd2a60fb779f608,61036e7d292d5a54a075b629,2021-07-29_23h14.41.967,Simcolourproject_2stim_asymm_v5,2020.2.10,Win32,60,61025ae37ef11b136ea224fe,,,,,,,,,1161,26.40001184,63.99999452,1,0,0,response1disk,,7,-1.59998858,-1.600006461,1,0,0,rectangle,-1.59998858,-1.600006461,1,0,0,-1.59998858,-1.600006461,1,0,0,1,72,232,62,1,,,,,,,,
,,,,,,,,,,,,,FF,,,,,,,,0.8561,,,,,,,,,,,,,,,,,,,,,,60fe0e062bd2a60fb779f608,61036e7d292d5a54a075b629,2021-07-29_23h14.41.967,Simcolourproject_2stim_asymm_v5,2020.2.10,Win32,60,61025ae37ef11b136ea224fe,,,,,,,,,2366,-34.39994024,-72.80000752,1,0,0,response5disk,,3,-3.999988616,-8.800006568,1,0,0,rectangle,-3.999988616,-8.800006568,1,0,0,-3.999988616,-8.800006568,1,0,0,1,73,233,17,1,,,,,,,,
,,,,,,,,,,,,,FF,,,,,,,,2.1329,,,,,,,,,,,,,,,,,,,,,,60fe0e062bd2a60fb779f608,61036e7d292d5a54a075b629,2021-07-29_23h14.41.967,Simcolourproject_2stim_asymm_v5,2020.2.10,Win32,60,61025ae37ef11b136ea224fe,,,,,,,,,2362,-82.39994096,-41.60000706,1,0,0,response5disk,,2,4.800011516,9.599993706,1,0,0,rectangle,4.800011516,9.599993706,1,0,0,4.800011516,9.599993706,1,0,0,1,74,234,22,1,,,,,,,,
,,,,,,,,,,,,,FF,,,,,,,,1.2669,,,,,,,,,,,,,,,,,,,,,,60fe0e062bd2a60fb779f608,61036e7d292d5a54a075b629,2021-07-29_23h14.41.967,Simcolourproject_2stim_asymm_v5,2020.2.10,Win32,60,61025ae37ef11b136ea224fe,,,,,,,,,1213,-35.19998908,-52.00000721,1,0,0,response5disk,,3,15.20001167,6.399993658,1,0,0,rectangle,15.20001167,6.399993658,1,0,0,15.20001167,6.399993658,1,0,0,1,75,235,48,1,,,,,,,,
,,,,,,,,,,,,,FF,,,,,,,,0.9501,,,,,,,,,,,,,,,,,,,,,,60fe0e062bd2a60fb779f608,61036e7d292d5a54a075b629,2021-07-29_23h14.41.967,Simcolourproject_2stim_asymm_v5,2020.2.10,Win32,60,61025ae37ef11b136ea224fe,,,,,,,,,3805,103.200013,-57.6000073,1,0,0,response3disk,,5,4.800011516,-5.600006521,1,0,0,rectangle,4.800011516,-5.600006521,1,0,0,4.800011516,-5.600006521,1,0,0,1,76,236,23,1,,,,,,,,
,,,,,,,,,,,,,FF,,,,,,,,0.9001,,,,,,,,,,,,,,,,,,,,,,60fe0e062bd2a60fb779f608,61036e7d292d5a54a075b629,2021-07-29_23h14.41.967,Simcolourproject_2stim_asymm_v5,2020.2.10,Win32,60,61025ae37ef11b136ea224fe,,,,,,,,,2248,134.4000134,-47.20000714,1,0,0,response3disk,,5,8.800011575,-5.600006521,1,0,0,rectangle,8.800011575,-5.600006521,1,0,0,8.800011575,-5.600006521,1,0,0,1,77,237,109,1,,,,,,,,
,,,,,,,,,,,,,FF,,,,,,,,0.8668,,,,,,,,,,,,,,,,,,,,,,60fe0e062bd2a60fb779f608,61036e7d292d5a54a075b629,2021-07-29_23h14.41.967,Simcolourproject_2stim_asymm_v5,2020.2.10,Win32,60,61025ae37ef11b136ea224fe,,,,,,,,,2793,120.8000132,62.39999449,1,0,0,response1disk,,6,-10.39993988,-6.400006533,1,0,0,rectangle,-10.39993988,-6.400006533,1,0,0,-10.39993988,-6.400006533,1,0,0,1,78,238,142,1,,,,,,,,
,,,,,,,,,,,,,FF,,,,,,,,1.3001,,,,,,,,,,,,,,,,,,,,,,60fe0e062bd2a60fb779f608,61036e7d292d5a54a075b629,2021-07-29_23h14.41.967,Simcolourproject_2stim_asymm_v5,2020.2.10,Win32,60,61025ae37ef11b136ea224fe,,,,,,,,,1944,72.80001253,-44.8000071,1,0,0,response3disk,,5,6.400011539,-9.60000658,1,0,0,rectangle,6.400011539,-9.60000658,1,0,0,6.400011539,-9.60000658,1,0,0,1,79,239,158,1,,,,,,,,
,,,,,,,,,,,,,FF,,,,,,,,0.6335,,,,,,,,,,,,,,,,,,,,,,60fe0e062bd2a60fb779f608,61036e7d292d5a54a075b629,2021-07-29_23h14.41.967,Simcolourproject_2stim_asymm_v5,2020.2.10,Win32,60,61025ae37ef11b136ea224fe,,,,,,,,,3626,107.200013,77.59999472,1,0,0,response1disk,,6,-12.79998875,3.19999361,1,0,0,rectangle,-12.79998875,3.19999361,1,0,0,-12.79998875,3.19999361,1,0,0,1,80,240,63,1,,,,,,,,
,,,,,,,,,,,,,FF,,,,,,,,0.5547,,,,,,,,,,,,,,,,,,,,,,60fe0e062bd2a60fb779f608,61036e7d292d5a54a075b629,2021-07-29_23h14.41.967,Simcolourproject_2stim_asymm_v5,2020.2.10,Win32,60,61025ae37ef11b136ea224fe,,,,,,,,,3011,-36.7999891,-64.00000739,1,0,0,response5disk,,3,4.000011504,-8.000006557,1,0,0,rectangle,4.000011504,-8.000006557,1,0,0,4.000011504,-8.000006557,1,0,0,1,81,241,37,1,,,,,,,,
,,,,,,,,,,,,,FF,,,,,,,,1.0828,,,,,,,,,,,,,,,,,,,,,,60fe0e062bd2a60fb779f608,61036e7d292d5a54a075b629,2021-07-29_23h14.41.967,Simcolourproject_2stim_asymm_v5,2020.2.10,Win32,60,61025ae37ef11b136ea224fe,,,,,,,,,1803,103.200013,-36.80000699,1,0,0,response3disk,,5,12.80001163,-2.400006473,1,0,0,rectangle,12.80001163,-2.400006473,1,0,0,12.80001163,-2.400006473,1,0,0,1,82,242,67,1,,,,,,,,
,,,,,,,,,,,,,FF,,,,,,,,1.1335,,,,,,,,,,,,,,,,,,,,,,60fe0e062bd2a60fb779f608,61036e7d292d5a54a075b629,2021-07-29_23h14.41.967,Simcolourproject_2stim_asymm_v5,2020.2.10,Win32,60,61025ae37ef11b136ea224fe,,,,,,,,,2041,-107.1999902,-66.40000743,1,0,0,response5disk,,2,-0.799988568,2.399993598,1,0,0,rectangle,-0.799988568,2.399993598,1,0,0,-0.799988568,2.399993598,1,0,0,1,83,243,157,1,,,,,,,,
