key_resp.keys,key_resp.rt,key_resp_14.keys,key_resp_14.rt,key_resp_15.keys,key_resp_15.rt,key_resp_17.keys,key_resp_17.rt,key_resp_9.keys,key_resp_9.rt,key_resp_10.keys,key_resp_10.rt,practice_comparison,Ecc,mouse_5.x,mouse_5.y,mouse_5.leftButton,mouse_5.midButton,mouse_5.rightButton,mouse_5.clicked_name,pracsimilarity,response_time,mouse_10.x,mouse_10.y,mouse_10.leftButton,mouse_10.midButton,mouse_10.rightButton,mouse_10.clicked_name,mouse_7.x,mouse_7.y,mouse_7.leftButton,mouse_7.midButton,mouse_7.rightButton,mouse_6.x,mouse_6.y,mouse_6.leftButton,mouse_6.midButton,mouse_6.rightButton,duringprac.thisRepN,duringprac.thisTrialN,duringprac.thisN,duringprac.thisIndex,duringprac.ran,participant,session,date,expName,psychopyVersion,OS,frameRate,study_id,mouse_7.clicked_name,catchpracsimilarity,catch_response_time,catchnumberprac,catchtrialorderprac,mouse_6.clicked_name,key_resp_22.keys,key_resp_22.rt,realcomparison,mouse.x,mouse.y,mouse.leftButton,mouse.midButton,mouse.rightButton,mouse.clicked_name,Colour2,similarity,mouse_2.x,mouse_2.y,mouse_2.leftButton,mouse_2.midButton,mouse_2.rightButton,mouse_2.clicked_name,mouse_3.x,mouse_3.y,mouse_3.leftButton,mouse_3.midButton,mouse_3.rightButton,mouse_11.x,mouse_11.y,mouse_11.leftButton,mouse_11.midButton,mouse_11.rightButton,trials_2.thisRepN,trials_2.thisTrialN,trials_2.thisN,trials_2.thisIndex,trials_2.ran,Colour1,mouse_3.clicked_name,catchornah,catchsimilarity,catchnumber,catchtrialorder,catchRT,mouse_11.clicked_name
space,2.8959,space,28.114,space,18.7341,space,8.9348,space,2.7826,space,4.1829,27,FF,85.84454346,36.64569092,1,0,0,response1disk_5,6,3.6039,-4.236999512,2.573120117,1,0,0,rectangle_8,-4.236999512,2.573120117,1,0,0,-4.236999512,2.573120117,1,0,0,0,0,0,5,1,60fefb130de6f7f50ef82c6c,61036c8269b39532e4ff2e37,2021-07-29_23h07.25.878,Simcolourproject_2stim_asymm_v5,2020.2.10,MacIntel,60,61025ae37ef11b136ea224fe,,,,,,,,,,,,,,,,,,,,,,,,,,,,,,,,,,,,,,,,,,,,,,
,,,,,,,,,,,,82,PF,-77.79779053,-39.703125,1,0,0,response5disk_5,2,2.2836,-0.721130371,-0.783874512,1,0,0,rectangle_8,-86.75488281,-37.21035767,1,0,0,-7.213378906,4.871704102,1,0,0,0,1,1,1,1,60fefb130de6f7f50ef82c6c,61036c8269b39532e4ff2e37,2021-07-29_23h07.25.878,Simcolourproject_2stim_asymm_v5,2020.2.10,MacIntel,60,61025ae37ef11b136ea224fe,response5disk_7,2,3.5668,2,"[2,5]",rectangle_4,,,,,,,,,,,,,,,,,,,,,,,,,,,,,,,,,,,,,,,,
,,,,,,,,,,,,138,FF,90.99468994,-45.62487793,1,0,0,response3disk_5,5,2.4328,-0.198974609,6.588623047,1,0,0,rectangle_8,-0.198974609,6.588623047,1,0,0,-0.198974609,6.588623047,1,0,0,0,2,2,0,1,60fefb130de6f7f50ef82c6c,61036c8269b39532e4ff2e37,2021-07-29_23h07.25.878,Simcolourproject_2stim_asymm_v5,2020.2.10,MacIntel,60,61025ae37ef11b136ea224fe,,,,,,,,,,,,,,,,,,,,,,,,,,,,,,,,,,,,,,,,,,,,,,
,,,,,,,,,,,,29,PF,-35.87341309,-101.4736328,1,0,0,response5disk_5,3,1.4834,6.417175293,-1.590301514,1,0,0,rectangle_8,6.417175293,-1.590301514,1,0,0,6.417175293,-1.590301514,1,0,0,0,3,3,4,1,60fefb130de6f7f50ef82c6c,61036c8269b39532e4ff2e37,2021-07-29_23h07.25.878,Simcolourproject_2stim_asymm_v5,2020.2.10,MacIntel,60,61025ae37ef11b136ea224fe,,,,,,,,,,,,,,,,,,,,,,,,,,,,,,,,,,,,,,,,,,,,,,
,,,,,,,,,,,,148,FF,37.19732666,-75.24047852,1,0,0,response3disk_5,4,260.4647,-3.655456543,-5.79473877,1,0,0,rectangle_8,-92.72009277,-35.48849487,1,0,0,-0.764038086,12.37802124,1,0,0,0,4,4,3,1,60fefb130de6f7f50ef82c6c,61036c8269b39532e4ff2e37,2021-07-29_23h07.25.878,Simcolourproject_2stim_asymm_v5,2020.2.10,MacIntel,60,61025ae37ef11b136ea224fe,response5disk_7,2,2.833,2,"[2,5]",rectangle_4,,,,,,,,,,,,,,,,,,,,,,,,,,,,,,,,,,,,,,,,
,,,,,,,,,,,,101,PF,79.47052002,-54.46435547,1,0,0,response3disk_5,5,1.7164,6.050415039,-6.515563965,1,0,0,rectangle_8,6.050415039,-6.515563965,1,0,0,6.050415039,-6.515563965,1,0,0,0,5,5,2,1,60fefb130de6f7f50ef82c6c,61036c8269b39532e4ff2e37,2021-07-29_23h07.25.878,Simcolourproject_2stim_asymm_v5,2020.2.10,MacIntel,60,61025ae37ef11b136ea224fe,,,,,,,,,,,,,,,,,,,,,,,,,,,,,,,,,,,,,,,,,,,,,,
,,,,,,,,,,,,11,PF,-40.45324707,-76.60229492,1,0,0,response5disk_5,3,1.05,2.812744141,-1.32043457,1,0,0,rectangle_8,2.812744141,-1.32043457,1,0,0,2.812744141,-1.32043457,1,0,0,0,6,6,6,1,60fefb130de6f7f50ef82c6c,61036c8269b39532e4ff2e37,2021-07-29_23h07.25.878,Simcolourproject_2stim_asymm_v5,2020.2.10,MacIntel,60,61025ae37ef11b136ea224fe,,,,,,,,,,,,,,,,,,,,,,,,,,,,,,,,,,,,,,,,,,,,,,
,,,,,,,,,,,,,FF,,,,,,,,1.6664,,,,,,,,,,,,,,,,,,,,,,60fefb130de6f7f50ef82c6c,61036c8269b39532e4ff2e37,2021-07-29_23h07.25.878,Simcolourproject_2stim_asymm_v5,2020.2.10,MacIntel,60,61025ae37ef11b136ea224fe,,,,,,,space,3.2093,4217,50.828125,78.02706909,1,0,0,response1disk,,7,7.194396973,12.36242676,1,0,0,rectangle,7.194396973,12.36242676,1,0,0,7.194396973,12.36242676,1,0,0,0,0,0,152,1,,,,,,,,
,,,,,,,,,,,,,FF,,,,,,,,1.4494,,,,,,,,,,,,,,,,,,,,,,60fefb130de6f7f50ef82c6c,61036c8269b39532e4ff2e37,2021-07-29_23h07.25.878,Simcolourproject_2stim_asymm_v5,2020.2.10,MacIntel,60,61025ae37ef11b136ea224fe,,,,,,,,,2659,44.05078125,70.54296875,1,0,0,response1disk,,7,-5.309936523,7.022277832,1,0,0,rectangle,-5.309936523,7.022277832,1,0,0,-5.309936523,7.022277832,1,0,0,0,1,1,72,1,,,,,,,,
,,,,,,,,,,,,,FF,,,,,,,,1.767,,,,,,,,,,,,,,,,,,,,,,60fefb130de6f7f50ef82c6c,61036c8269b39532e4ff2e37,2021-07-29_23h07.25.878,Simcolourproject_2stim_asymm_v5,2020.2.10,MacIntel,60,61025ae37ef11b136ea224fe,,,,,,,,,1610,-35.96716309,-75.14141846,1,0,0,response5disk,,3,16.25250244,-3.55078125,1,0,0,rectangle,16.25250244,-3.55078125,1,0,0,16.25250244,-3.55078125,1,0,0,0,2,2,25,1,,,,,,,,
,,,,,,,,,,,,,FF,,,,,,,,1.1162,,,,,,,,,,,,,,,,,,,,,,60fefb130de6f7f50ef82c6c,61036c8269b39532e4ff2e37,2021-07-29_23h07.25.878,Simcolourproject_2stim_asymm_v5,2020.2.10,MacIntel,60,61025ae37ef11b136ea224fe,,,,,,,,,493,95.30059814,35.85702515,1,0,0,response1disk,,6,10.13238525,2.610565186,1,0,0,rectangle,10.13238525,2.610565186,1,0,0,10.13238525,2.610565186,1,0,0,0,3,3,80,1,,,,,,,,
,,,,,,,,,,,,,FF,,,,,,,,1.4329,,,,,,,,,,,,,,,,,,,,,,60fefb130de6f7f50ef82c6c,61036c8269b39532e4ff2e37,2021-07-29_23h07.25.878,Simcolourproject_2stim_asymm_v5,2020.2.10,MacIntel,60,61025ae37ef11b136ea224fe,,,,,,,,,4221,-58.29211426,-81.77087402,1,0,0,response5disk,,3,-5.651855469,-7.767333984,1,0,0,rectangle,-5.651855469,-7.767333984,1,0,0,-5.651855469,-7.767333984,1,0,0,0,4,4,37,1,,,,,,,,
,,,,,,,,,,,,,FF,,,,,,,,1.0165,,,,,,,,,,,,,,,,,,,,,,60fefb130de6f7f50ef82c6c,61036c8269b39532e4ff2e37,2021-07-29_23h07.25.878,Simcolourproject_2stim_asymm_v5,2020.2.10,MacIntel,60,61025ae37ef11b136ea224fe,,,,,,,,,3067,34.76153564,-64.79345703,1,0,0,response3disk,,4,2.261291504,-5.783691406,1,0,0,rectangle,2.261291504,-5.783691406,1,0,0,2.261291504,-5.783691406,1,0,0,0,5,5,52,1,,,,,,,,
,,,,,,,,,,,,,FF,,,,,,,,2.1505,,,,,,,,,,,,,,,,,,,,,,60fefb130de6f7f50ef82c6c,61036c8269b39532e4ff2e37,2021-07-29_23h07.25.878,Simcolourproject_2stim_asymm_v5,2020.2.10,MacIntel,60,61025ae37ef11b136ea224fe,,,,,,,,,1819,-79.67449951,-29.45806885,1,0,0,response5disk,,2,-9.461730957,4.472167969,1,0,0,rectangle,-9.461730957,4.472167969,1,0,0,-9.461730957,4.472167969,1,0,0,0,6,6,34,1,,,,,,,,
,,,,,,,,,,,,,FF,,,,,,,,1.5175,,,,,,,,,,,,,,,,,,,,,,60fefb130de6f7f50ef82c6c,61036c8269b39532e4ff2e37,2021-07-29_23h07.25.878,Simcolourproject_2stim_asymm_v5,2020.2.10,MacIntel,60,61025ae37ef11b136ea224fe,,,,,,,,,1818,-92.23199463,-37.82336426,1,0,0,response5disk,,2,-3.669799805,4.649627686,1,0,0,rectangle,-3.669799805,4.649627686,1,0,0,-3.669799805,4.649627686,1,0,0,0,7,7,56,1,,,,,,,,
,,,,,,,,,,,,,FF,,,,,,,,1.0839,,,,,,,,,,,,,,,,,,,,,,60fefb130de6f7f50ef82c6c,61036c8269b39532e4ff2e37,2021-07-29_23h07.25.878,Simcolourproject_2stim_asymm_v5,2020.2.10,MacIntel,60,61025ae37ef11b136ea224fe,,,,,,,,,1904,36.73815918,-66.13201904,1,0,0,response3disk,,4,-6.784118652,-2.614624023,1,0,0,rectangle,-6.784118652,-2.614624023,1,0,0,-6.784118652,-2.614624023,1,0,0,0,8,8,12,1,,,,,,,,
,,,,,,,,,,,,,FF,,,,,,,,1.5499,,,,,,,,,,,,,,,,,,,,,,60fefb130de6f7f50ef82c6c,61036c8269b39532e4ff2e37,2021-07-29_23h07.25.878,Simcolourproject_2stim_asymm_v5,2020.2.10,MacIntel,60,61025ae37ef11b136ea224fe,,,,,,,,,2413,40.78912354,-99.96972656,1,0,0,response3disk,,4,-4.370727539,4.236083984,1,0,0,rectangle,-4.370727539,4.236083984,1,0,0,-4.370727539,4.236083984,1,0,0,0,9,9,21,1,,,,,,,,
,,,,,,,,,,,,,FF,,,,,,,,0.9339,,,,,,,,,,,,,,,,,,,,,,60fefb130de6f7f50ef82c6c,61036c8269b39532e4ff2e37,2021-07-29_23h07.25.878,Simcolourproject_2stim_asymm_v5,2020.2.10,MacIntel,60,61025ae37ef11b136ea224fe,,,,,,,,,2074,76.13665771,-36.49298096,1,0,0,response3disk,,5,-0.538330078,-0.19921875,1,0,0,rectangle,-0.538330078,-0.19921875,1,0,0,-0.538330078,-0.19921875,1,0,0,0,10,10,78,1,,,,,,,,
,,,,,,,,,,,,,FF,,,,,,,,1.7167,,,,,,,,,,,,,,,,,,,,,,60fefb130de6f7f50ef82c6c,61036c8269b39532e4ff2e37,2021-07-29_23h07.25.878,Simcolourproject_2stim_asymm_v5,2020.2.10,MacIntel,60,61025ae37ef11b136ea224fe,,,,,,,,,3163,25.53967285,-66.72174072,1,0,0,response3disk,,4,-11.91412354,-4.172424316,1,0,0,rectangle,-11.91412354,-4.172424316,1,0,0,-11.91412354,-4.172424316,1,0,0,0,11,11,100,1,,,,,,,,
,,,,,,,,,,,,,FF,,,,,,,,1.0829,,,,,,,,,,,,,,,,,,,,,,60fefb130de6f7f50ef82c6c,61036c8269b39532e4ff2e37,2021-07-29_23h07.25.878,Simcolourproject_2stim_asymm_v5,2020.2.10,MacIntel,60,61025ae37ef11b136ea224fe,,,,,,,,,1600,-42.51153564,-75.13806152,1,0,0,response5disk,,3,-2.326721191,4.544921875,1,0,0,rectangle,-2.326721191,4.544921875,1,0,0,-2.326721191,4.544921875,1,0,0,0,12,12,150,1,,,,,,,,
,,,,,,,,,,,,,FF,,,,,,,,1.467,,,,,,,,,,,,,,,,,,,,,,60fefb130de6f7f50ef82c6c,61036c8269b39532e4ff2e37,2021-07-29_23h07.25.878,Simcolourproject_2stim_asymm_v5,2020.2.10,MacIntel,60,61025ae37ef11b136ea224fe,,,,,,,,,1265,96.52038574,27.32263184,1,0,0,response1disk,,6,-11.66973877,-1.719451904,1,0,0,rectangle,-11.66973877,-1.719451904,1,0,0,-11.66973877,-1.719451904,1,0,0,0,13,13,131,1,,,,,,,,
,,,,,,,,,,,,,FF,,,,,,,,1.1334,,,,,,,,,,,,,,,,,,,,,,60fefb130de6f7f50ef82c6c,61036c8269b39532e4ff2e37,2021-07-29_23h07.25.878,Simcolourproject_2stim_asymm_v5,2020.2.10,MacIntel,60,61025ae37ef11b136ea224fe,,,,,,,,,865,73.06243896,-37.6272583,1,0,0,response3disk,,5,11.88195801,2.299072266,1,0,0,rectangle,11.88195801,2.299072266,1,0,0,11.88195801,2.299072266,1,0,0,0,14,14,119,1,,,,,,,,
,,,,,,,,,,,,,FF,,,,,,,,3.4995,,,,,,,,,,,,,,,,,,,,,,60fefb130de6f7f50ef82c6c,61036c8269b39532e4ff2e37,2021-07-29_23h07.25.878,Simcolourproject_2stim_asymm_v5,2020.2.10,MacIntel,60,61025ae37ef11b136ea224fe,,,,,,,,,1138,-46.6418457,-83.76464844,1,0,0,response5disk,,3,0.01159668,0.259155273,1,0,0,rectangle,0.01159668,0.259155273,1,0,0,0.01159668,0.259155273,1,0,0,0,15,15,20,1,,,,,,,,
,,,,,,,,,,,,,FF,,,,,,,,1.1498,,,,,,,,,,,,,,,,,,,,,,60fefb130de6f7f50ef82c6c,61036c8269b39532e4ff2e37,2021-07-29_23h07.25.878,Simcolourproject_2stim_asymm_v5,2020.2.10,MacIntel,60,61025ae37ef11b136ea224fe,,,,,,,,,1622,22.30200195,-65.45880127,1,0,0,response3disk,,4,-6.04473877,-5.039855957,1,0,0,rectangle,-6.04473877,-5.039855957,1,0,0,-6.04473877,-5.039855957,1,0,0,0,16,16,13,1,,,,,,,,
,,,,,,,,,,,,,FF,,,,,,,,1.8506,,,,,,,,,,,,,,,,,,,,,,60fefb130de6f7f50ef82c6c,61036c8269b39532e4ff2e37,2021-07-29_23h07.25.878,Simcolourproject_2stim_asymm_v5,2020.2.10,MacIntel,60,61025ae37ef11b136ea224fe,,,,,,,,,2917,90.08544922,41.14208984,1,0,0,response1disk,,6,-8.139160156,-4.101989746,1,0,0,rectangle,-8.139160156,-4.101989746,1,0,0,-8.139160156,-4.101989746,1,0,0,0,17,17,29,1,,,,,,,,
,,,,,,,,,,,,,FF,,,,,,,,2.284,,,,,,,,,,,,,,,,,,,,,,60fefb130de6f7f50ef82c6c,61036c8269b39532e4ff2e37,2021-07-29_23h07.25.878,Simcolourproject_2stim_asymm_v5,2020.2.10,MacIntel,60,61025ae37ef11b136ea224fe,,,,,,,,,1039,26.2401123,-76.78283691,1,0,0,response3disk,,4,0.207702637,-7.470458984,1,0,0,rectangle,0.207702637,-7.470458984,1,0,0,0.207702637,-7.470458984,1,0,0,0,18,18,130,1,,,,,,,,
,,,,,,,,,,,,,FF,,,,,,,,1.3334,,,,,,,,,,,,,,,,,,,,,,60fefb130de6f7f50ef82c6c,61036c8269b39532e4ff2e37,2021-07-29_23h07.25.878,Simcolourproject_2stim_asymm_v5,2020.2.10,MacIntel,60,61025ae37ef11b136ea224fe,,,,,,,,,3939,-53.89074707,-75.04736328,1,0,0,response5disk,,3,-2.412902832,6.841125488,1,0,0,rectangle,-2.412902832,6.841125488,1,0,0,-2.412902832,6.841125488,1,0,0,0,19,19,138,1,,,,,,,,
,,,,,,,,,,,,,FF,,,,,,,,3.2836,,,,,,,,,,,,,,,,,,,,,,60fefb130de6f7f50ef82c6c,61036c8269b39532e4ff2e37,2021-07-29_23h07.25.878,Simcolourproject_2stim_asymm_v5,2020.2.10,MacIntel,60,61025ae37ef11b136ea224fe,,,,,,,,,2676,35.26159668,-93.42626953,1,0,0,response3disk,,4,1.663696289,-1.766113281,1,0,0,rectangle,1.663696289,-1.766113281,1,0,0,1.663696289,-1.766113281,1,0,0,0,20,20,97,1,,,,,,,,
,,,,,,,,,,,,,FF,,,,,,,,9.7834,,,,,,,,,,,,,,,,,,,,,,60fefb130de6f7f50ef82c6c,61036c8269b39532e4ff2e37,2021-07-29_23h07.25.878,Simcolourproject_2stim_asymm_v5,2020.2.10,MacIntel,60,61025ae37ef11b136ea224fe,,,,,,,,,4361,-78.30938721,41.60870361,1,0,0,response7disk,,1,3.425964355,-0.946044922,1,0,0,rectangle,3.425964355,-0.946044922,1,0,0,3.425964355,-0.946044922,1,0,0,0,21,21,92,1,,,,,,,,
,,,,,,,,,,,,,FF,,,,,,,,1.2167,,,,,,,,,,,,,,,,,,,,,,60fefb130de6f7f50ef82c6c,61036c8269b39532e4ff2e37,2021-07-29_23h07.25.878,Simcolourproject_2stim_asymm_v5,2020.2.10,MacIntel,60,61025ae37ef11b136ea224fe,,,,,,,,,1530,-33.44610596,-69.5032959,1,0,0,response5disk,,3,-13.88781738,3.287841797,1,0,0,rectangle,-13.88781738,3.287841797,1,0,0,-13.88781738,3.287841797,1,0,0,0,22,22,154,1,,,,,,,,
,,,,,,,,,,,,,FF,,,,,,,,3.1329,,,,,,,,,,,,,,,,,,,,,,60fefb130de6f7f50ef82c6c,61036c8269b39532e4ff2e37,2021-07-29_23h07.25.878,Simcolourproject_2stim_asymm_v5,2020.2.10,MacIntel,60,61025ae37ef11b136ea224fe,,,,,,,,,1707,29.69488525,83.15026855,1,0,0,response1disk,,7,-9.883300781,-4.538513184,1,0,0,rectangle,-9.883300781,-4.538513184,1,0,0,-9.883300781,-4.538513184,1,0,0,0,23,23,62,1,,,,,,,,
,,,,,,,,,,,,,FF,,,,,,,,1.0995,,,,,,,,,,,,,,,,,,,,,,60fefb130de6f7f50ef82c6c,61036c8269b39532e4ff2e37,2021-07-29_23h07.25.878,Simcolourproject_2stim_asymm_v5,2020.2.10,MacIntel,60,61025ae37ef11b136ea224fe,,,,,,,,,2253,54.3717041,-22.45281982,1,0,0,response3disk,,5,3.062988281,-1.890319824,1,0,0,rectangle,3.062988281,-1.890319824,1,0,0,3.062988281,-1.890319824,1,0,0,0,24,24,137,1,,,,,,,,
,,,,,,,,,,,,,FF,,,,,,,,1.3004,,,,,,,,,,,,,,,,,,,,,,60fefb130de6f7f50ef82c6c,61036c8269b39532e4ff2e37,2021-07-29_23h07.25.878,Simcolourproject_2stim_asymm_v5,2020.2.10,MacIntel,60,61025ae37ef11b136ea224fe,,,,,,,,,3457,70.60772705,37.46279907,1,0,0,response1disk,,6,5.494384766,7.135925293,1,0,0,rectangle,5.494384766,7.135925293,1,0,0,5.494384766,7.135925293,1,0,0,0,25,25,124,1,,,,,,,,
,,,,,,,,,,,,,FF,,,,,,,,1.0496,,,,,,,,,,,,,,,,,,,,,,60fefb130de6f7f50ef82c6c,61036c8269b39532e4ff2e37,2021-07-29_23h07.25.878,Simcolourproject_2stim_asymm_v5,2020.2.10,MacIntel,60,61025ae37ef11b136ea224fe,,,,,,,,,2054,29.52972412,-61.58718872,1,0,0,response3disk,,4,-1.497131348,-2.326873779,1,0,0,rectangle,-1.497131348,-2.326873779,1,0,0,-1.497131348,-2.326873779,1,0,0,0,26,26,57,1,,,,,,,,
,,,,,,,,,,,,,FF,,,,,,,,1.6671,,,,,,,,,,,,,,,,,,,,,,60fefb130de6f7f50ef82c6c,61036c8269b39532e4ff2e37,2021-07-29_23h07.25.878,Simcolourproject_2stim_asymm_v5,2020.2.10,MacIntel,60,61025ae37ef11b136ea224fe,,,,,,,,,476,81.81396484,53.94598389,1,0,0,response1disk,,6,-2.022155762,7.049377441,1,0,0,rectangle,-2.022155762,7.049377441,1,0,0,-2.022155762,7.049377441,1,0,0,0,27,27,22,1,,,,,,,,
,,,,,,,,,,,,,FF,,,,,,,,1.0169,,,,,,,,,,,,,,,,,,,,,,60fefb130de6f7f50ef82c6c,61036c8269b39532e4ff2e37,2021-07-29_23h07.25.878,Simcolourproject_2stim_asymm_v5,2020.2.10,MacIntel,60,61025ae37ef11b136ea224fe,,,,,,,,,1785,72.02093506,-30.17315674,1,0,0,response3disk,,5,-3.556274414,-6.324462891,1,0,0,rectangle,-3.556274414,-6.324462891,1,0,0,-3.556274414,-6.324462891,1,0,0,0,28,28,51,1,,,,,,,,
,,,,,,,,,,,,,FF,,,,,,,,1.2992,,,,,,,,,,,,,,,,,,,,,,60fefb130de6f7f50ef82c6c,61036c8269b39532e4ff2e37,2021-07-29_23h07.25.878,Simcolourproject_2stim_asymm_v5,2020.2.10,MacIntel,60,61025ae37ef11b136ea224fe,,,,,,,,,196,23.0369873,-38.98309326,1,0,0,response3disk,,4,7.430603027,5.053039551,1,0,0,rectangle,7.430603027,5.053039551,1,0,0,7.430603027,5.053039551,1,0,0,0,29,29,65,1,,,,,,,,
,,,,,,,,,,,,,FF,,,,,,,,1.583,,,,,,,,,,,,,,,,,,,,,,60fefb130de6f7f50ef82c6c,61036c8269b39532e4ff2e37,2021-07-29_23h07.25.878,Simcolourproject_2stim_asymm_v5,2020.2.10,MacIntel,60,61025ae37ef11b136ea224fe,,,,,,,,,2189,87.69091797,-38.50250244,1,0,0,response3disk,,5,4.590637207,-7.819702148,1,0,0,rectangle,4.590637207,-7.819702148,1,0,0,4.590637207,-7.819702148,1,0,0,0,30,30,88,1,,,,,,,,
,,,,,,,,,,,,,FF,,,,,,,,0.9333,,,,,,,,,,,,,,,,,,,,,,60fefb130de6f7f50ef82c6c,61036c8269b39532e4ff2e37,2021-07-29_23h07.25.878,Simcolourproject_2stim_asymm_v5,2020.2.10,MacIntel,60,61025ae37ef11b136ea224fe,,,,,,,,,654,26.35498047,-64.06933594,1,0,0,response3disk,,4,0.383728027,4.657043457,1,0,0,rectangle,0.383728027,4.657043457,1,0,0,0.383728027,4.657043457,1,0,0,0,31,31,127,1,,,,,,,,
,,,,,,,,,,,,,FF,,,,,,,,1.6182,,,,,,,,,,,,,,,,,,,,,,60fefb130de6f7f50ef82c6c,61036c8269b39532e4ff2e37,2021-07-29_23h07.25.878,Simcolourproject_2stim_asymm_v5,2020.2.10,MacIntel,60,61025ae37ef11b136ea224fe,,,,,,,,,1238,73.45782471,25.5067749,1,0,0,response1disk,,6,-1.656616211,-0.642150879,1,0,0,rectangle,-1.656616211,-0.642150879,1,0,0,-1.656616211,-0.642150879,1,0,0,0,32,32,141,1,,,,,,,,
,,,,,,,,,,,,,FF,,,,,,,,1.2675,,,,,,,,,,,,,,,,,,,,,,60fefb130de6f7f50ef82c6c,61036c8269b39532e4ff2e37,2021-07-29_23h07.25.878,Simcolourproject_2stim_asymm_v5,2020.2.10,MacIntel,60,61025ae37ef11b136ea224fe,,,,,,,,,1411,58.29284668,30.70770264,1,0,0,response1disk,,6,-3.092834473,-1.792724609,1,0,0,rectangle,-3.092834473,-1.792724609,1,0,0,-3.092834473,-1.792724609,1,0,0,0,33,33,115,1,,,,,,,,
,,,,,,,,,,,,,FF,,,,,,,,1.0674,,,,,,,,,,,,,,,,,,,,,,60fefb130de6f7f50ef82c6c,61036c8269b39532e4ff2e37,2021-07-29_23h07.25.878,Simcolourproject_2stim_asymm_v5,2020.2.10,MacIntel,60,61025ae37ef11b136ea224fe,,,,,,,,,377,42.6895752,-30.4090271,1,0,0,response3disk,,5,0.969726563,-8.218719482,1,0,0,rectangle,0.969726563,-8.218719482,1,0,0,0.969726563,-8.218719482,1,0,0,0,34,34,2,1,,,,,,,,
,,,,,,,,,,,,,FF,,,,,,,,0.7831,,,,,,,,,,,,,,,,,,,,,,60fefb130de6f7f50ef82c6c,61036c8269b39532e4ff2e37,2021-07-29_23h07.25.878,Simcolourproject_2stim_asymm_v5,2020.2.10,MacIntel,60,61025ae37ef11b136ea224fe,,,,,,,,,1802,53.78057861,-24.63467407,1,0,0,response3disk,,5,2.738952637,-7.240844727,1,0,0,rectangle,2.738952637,-7.240844727,1,0,0,2.738952637,-7.240844727,1,0,0,0,35,35,32,1,,,,,,,,
,,,,,,,,,,,,,FF,,,,,,,,1.1187,,,,,,,,,,,,,,,,,,,,,,60fefb130de6f7f50ef82c6c,61036c8269b39532e4ff2e37,2021-07-29_23h07.25.878,Simcolourproject_2stim_asymm_v5,2020.2.10,MacIntel,60,61025ae37ef11b136ea224fe,,,,,,,,,48,29.72644043,66.18835449,1,0,0,response1disk,,7,-3.297241211,-1.810424805,1,0,0,rectangle,-3.297241211,-1.810424805,1,0,0,-3.297241211,-1.810424805,1,0,0,0,36,36,33,1,,,,,,,,
,,,,,,,,,,,,,FF,,,,,,,,1.1995,,,,,,,,,,,,,,,,,,,,,,60fefb130de6f7f50ef82c6c,61036c8269b39532e4ff2e37,2021-07-29_23h07.25.878,Simcolourproject_2stim_asymm_v5,2020.2.10,MacIntel,60,61025ae37ef11b136ea224fe,,,,,,,,,288,46.05865479,-29.17852783,1,0,0,response3disk,,5,-4.989135742,-3.278839111,1,0,0,rectangle,-4.989135742,-3.278839111,1,0,0,-4.989135742,-3.278839111,1,0,0,0,37,37,143,1,,,,,,,,
,,,,,,,,,,,,,FF,,,,,,,,1.0161,,,,,,,,,,,,,,,,,,,,,,60fefb130de6f7f50ef82c6c,61036c8269b39532e4ff2e37,2021-07-29_23h07.25.878,Simcolourproject_2stim_asymm_v5,2020.2.10,MacIntel,60,61025ae37ef11b136ea224fe,,,,,,,,,136,27.82611084,-61.02185059,1,0,0,response3disk,,4,7.055603027,-0.972320557,1,0,0,rectangle,7.055603027,-0.972320557,1,0,0,7.055603027,-0.972320557,1,0,0,0,38,38,90,1,,,,,,,,
,,,,,,,,,,,,,FF,,,,,,,,1.4492,,,,,,,,,,,,,,,,,,,,,,60fefb130de6f7f50ef82c6c,61036c8269b39532e4ff2e37,2021-07-29_23h07.25.878,Simcolourproject_2stim_asymm_v5,2020.2.10,MacIntel,60,61025ae37ef11b136ea224fe,,,,,,,,,326,79.64056396,24.11853027,1,0,0,response1disk,,6,-1.406066895,8.087463379,1,0,0,rectangle,-1.406066895,8.087463379,1,0,0,-1.406066895,8.087463379,1,0,0,0,39,39,118,1,,,,,,,,
,,,,,,,,,,,,,FF,,,,,,,,1.9496,,,,,,,,,,,,,,,,,,,,,,60fefb130de6f7f50ef82c6c,61036c8269b39532e4ff2e37,2021-07-29_23h07.25.878,Simcolourproject_2stim_asymm_v5,2020.2.10,MacIntel,60,61025ae37ef11b136ea224fe,,,,,,,,,1804,63.25775146,-25.04980469,1,0,0,response3disk,,5,8.982177734,-12.45443726,1,0,0,rectangle,8.982177734,-12.45443726,1,0,0,8.982177734,-12.45443726,1,0,0,0,40,40,36,1,,,,,,,,
,,,,,,,,,,,,,FF,,,,,,,,1.6171,,,,,,,,,,,,,,,,,,,,,,60fefb130de6f7f50ef82c6c,61036c8269b39532e4ff2e37,2021-07-29_23h07.25.878,Simcolourproject_2stim_asymm_v5,2020.2.10,MacIntel,60,61025ae37ef11b136ea224fe,,,,,,,,,122,64.50994873,27.11071777,1,0,0,response1disk,,6,6.847900391,-3.258239746,1,0,0,rectangle,6.847900391,-3.258239746,1,0,0,6.847900391,-3.258239746,1,0,0,0,41,41,4,1,,,,,,,,
,,,,,,,,,,,,,FF,,,,,,,,1.3833,,,,,,,,,,,,,,,,,,,,,,60fefb130de6f7f50ef82c6c,61036c8269b39532e4ff2e37,2021-07-29_23h07.25.878,Simcolourproject_2stim_asymm_v5,2020.2.10,MacIntel,60,61025ae37ef11b136ea224fe,,,,,,,,,4069,64.75146484,-38.44506836,1,0,0,response3disk,,5,4.49987793,-0.761657715,1,0,0,rectangle,4.49987793,-0.761657715,1,0,0,4.49987793,-0.761657715,1,0,0,0,42,42,93,1,,,,,,,,
,,,,,,,,,,,,,FF,,,,,,,,0.801,,,,,,,,,,,,,,,,,,,,,,60fefb130de6f7f50ef82c6c,61036c8269b39532e4ff2e37,2021-07-29_23h07.25.878,Simcolourproject_2stim_asymm_v5,2020.2.10,MacIntel,60,61025ae37ef11b136ea224fe,,,,,,,,,311,78.87310791,34.34518433,1,0,0,response1disk,,6,4.273803711,8.124511719,1,0,0,rectangle,4.273803711,8.124511719,1,0,0,4.273803711,8.124511719,1,0,0,0,43,43,6,1,,,,,,,,
,,,,,,,,,,,,,FF,,,,,,,,1.7627,,,,,,,,,,,,,,,,,,,,,,60fefb130de6f7f50ef82c6c,61036c8269b39532e4ff2e37,2021-07-29_23h07.25.878,Simcolourproject_2stim_asymm_v5,2020.2.10,MacIntel,60,61025ae37ef11b136ea224fe,,,,,,,,,3417,30.39837646,-53.88592529,1,0,0,response3disk,,4,13.10845947,0.924743652,1,0,0,rectangle,13.10845947,0.924743652,1,0,0,13.10845947,0.924743652,1,0,0,0,44,44,129,1,,,,,,,,
,,,,,,,,,,,,,FF,,,,,,,,1.367,,,,,,,,,,,,,,,,,,,,,,60fefb130de6f7f50ef82c6c,61036c8269b39532e4ff2e37,2021-07-29_23h07.25.878,Simcolourproject_2stim_asymm_v5,2020.2.10,MacIntel,60,61025ae37ef11b136ea224fe,,,,,,,,,440,-31.86584473,-73.60021973,1,0,0,response5disk,,3,-13.30407715,-7.209960938,1,0,0,rectangle,-13.30407715,-7.209960938,1,0,0,-13.30407715,-7.209960938,1,0,0,0,45,45,125,1,,,,,,,,
,,,,,,,,,,,,,FF,,,,,,,,0.9826,,,,,,,,,,,,,,,,,,,,,,60fefb130de6f7f50ef82c6c,61036c8269b39532e4ff2e37,2021-07-29_23h07.25.878,Simcolourproject_2stim_asymm_v5,2020.2.10,MacIntel,60,61025ae37ef11b136ea224fe,,,,,,,,,76,-36.90106201,-58.6494751,1,0,0,response5disk,,3,-3.02911377,-4.358062744,1,0,0,rectangle,-3.02911377,-4.358062744,1,0,0,-3.02911377,-4.358062744,1,0,0,0,46,46,145,1,,,,,,,,
,,,,,,,,,,,,,FF,,,,,,,,0.8502,,,,,,,,,,,,,,,,,,,,,,60fefb130de6f7f50ef82c6c,61036c8269b39532e4ff2e37,2021-07-29_23h07.25.878,Simcolourproject_2stim_asymm_v5,2020.2.10,MacIntel,60,61025ae37ef11b136ea224fe,,,,,,,,,1806,37.23852539,68.00305176,1,0,0,response1disk,,7,-6.680969238,0.602935791,1,0,0,rectangle,-6.680969238,0.602935791,1,0,0,-6.680969238,0.602935791,1,0,0,0,47,47,135,1,,,,,,,,
,,,,,,,,,,,,,FF,,,,,,,,1.3823,,,,,,,,,,,,,,,,,,,,,,60fefb130de6f7f50ef82c6c,61036c8269b39532e4ff2e37,2021-07-29_23h07.25.878,Simcolourproject_2stim_asymm_v5,2020.2.10,MacIntel,60,61025ae37ef11b136ea224fe,,,,,,,,,1142,34.05163574,-56.7835083,1,0,0,response3disk,,4,-3.034545898,-6.312683105,1,0,0,rectangle,-3.034545898,-6.312683105,1,0,0,-3.034545898,-6.312683105,1,0,0,0,48,48,15,1,,,,,,,,
,,,,,,,,,,,,,FF,,,,,,,,1.0832,,,,,,,,,,,,,,,,,,,,,,60fefb130de6f7f50ef82c6c,61036c8269b39532e4ff2e37,2021-07-29_23h07.25.878,Simcolourproject_2stim_asymm_v5,2020.2.10,MacIntel,60,61025ae37ef11b136ea224fe,,,,,,,,,745,80.80560303,40.00982666,1,0,0,response1disk,,6,5.64453125,0.155456543,1,0,0,rectangle,5.64453125,0.155456543,1,0,0,5.64453125,0.155456543,1,0,0,0,49,49,111,1,,,,,,,,
,,,,,,,,,,,,,FF,,,,,,,,1.0815,,,,,,,,,,,,,,,,,,,,,,60fefb130de6f7f50ef82c6c,61036c8269b39532e4ff2e37,2021-07-29_23h07.25.878,Simcolourproject_2stim_asymm_v5,2020.2.10,MacIntel,60,61025ae37ef11b136ea224fe,,,,,,,,,2362,-21.54766846,-46.6272583,1,0,0,response5disk,,3,7.397338867,3.465118408,1,0,0,rectangle,7.397338867,3.465118408,1,0,0,7.397338867,3.465118408,1,0,0,0,50,50,35,1,,,,,,,,
,,,,,,,,,,,,,FF,,,,,,,,0.767,,,,,,,,,,,,,,,,,,,,,,60fefb130de6f7f50ef82c6c,61036c8269b39532e4ff2e37,2021-07-29_23h07.25.878,Simcolourproject_2stim_asymm_v5,2020.2.10,MacIntel,60,61025ae37ef11b136ea224fe,,,,,,,,,507,35.35699463,56.50933838,1,0,0,response1disk,,7,-1.507141113,-5.86618042,1,0,0,rectangle,-1.507141113,-5.86618042,1,0,0,-1.507141113,-5.86618042,1,0,0,0,51,51,76,1,,,,,,,,
,,,,,,,,,,,,,FF,,,,,,,,1.25,,,,,,,,,,,,,,,,,,,,,,60fefb130de6f7f50ef82c6c,61036c8269b39532e4ff2e37,2021-07-29_23h07.25.878,Simcolourproject_2stim_asymm_v5,2020.2.10,MacIntel,60,61025ae37ef11b136ea224fe,,,,,,,,,2122,70.7164917,-30.74536133,1,0,0,response3disk,,5,0.459472656,-7.681121826,1,0,0,rectangle,0.459472656,-7.681121826,1,0,0,0.459472656,-7.681121826,1,0,0,0,52,52,71,1,,,,,,,,
,,,,,,,,,,,,,FF,,,,,,,,1.0508,,,,,,,,,,,,,,,,,,,,,,60fefb130de6f7f50ef82c6c,61036c8269b39532e4ff2e37,2021-07-29_23h07.25.878,Simcolourproject_2stim_asymm_v5,2020.2.10,MacIntel,60,61025ae37ef11b136ea224fe,,,,,,,,,3599,21.63586426,-49.60256958,1,0,0,response3disk,,4,10.35327148,-6.711303711,1,0,0,rectangle,10.35327148,-6.711303711,1,0,0,10.35327148,-6.711303711,1,0,0,0,53,53,149,1,,,,,,,,
,,,,,,,,,,,,,FF,,,,,,,,0.7159,,,,,,,,,,,,,,,,,,,,,,60fefb130de6f7f50ef82c6c,61036c8269b39532e4ff2e37,2021-07-29_23h07.25.878,Simcolourproject_2stim_asymm_v5,2020.2.10,MacIntel,60,61025ae37ef11b136ea224fe,,,,,,,,,3296,-28.17102051,-60.07232666,1,0,0,response5disk,,3,-7.152832031,-6.104217529,1,0,0,rectangle,-7.152832031,-6.104217529,1,0,0,-7.152832031,-6.104217529,1,0,0,0,54,54,7,1,,,,,,,,
,,,,,,,,,,,,,FF,,,,,,,,0.8002,,,,,,,,,,,,,,,,,,,,,,60fefb130de6f7f50ef82c6c,61036c8269b39532e4ff2e37,2021-07-29_23h07.25.878,Simcolourproject_2stim_asymm_v5,2020.2.10,MacIntel,60,61025ae37ef11b136ea224fe,,,,,,,,,898,58.81201172,-29.2507019,1,0,0,response3disk,,5,5.110839844,4.629882813,1,0,0,rectangle,5.110839844,4.629882813,1,0,0,5.110839844,4.629882813,1,0,0,0,55,55,40,1,,,,,,,,
,,,,,,,,,,,,,FF,,,,,,,,0.7823,,,,,,,,,,,,,,,,,,,,,,60fefb130de6f7f50ef82c6c,61036c8269b39532e4ff2e37,2021-07-29_23h07.25.878,Simcolourproject_2stim_asymm_v5,2020.2.10,MacIntel,60,61025ae37ef11b136ea224fe,,,,,,,,,3585,-44.31744385,-62.35925293,1,0,0,response5disk,,3,-9.910888672,-7.734619141,1,0,0,rectangle,-9.910888672,-7.734619141,1,0,0,-9.910888672,-7.734619141,1,0,0,0,56,56,58,1,,,,,,,,
,,,,,,,,,,,,,FF,,,,,,,,1.1502,,,,,,,,,,,,,,,,,,,,,,60fefb130de6f7f50ef82c6c,61036c8269b39532e4ff2e37,2021-07-29_23h07.25.878,Simcolourproject_2stim_asymm_v5,2020.2.10,MacIntel,60,61025ae37ef11b136ea224fe,,,,,,,,,2114,63.54907227,38.89590454,1,0,0,response1disk,,6,-0.359558105,3.566894531,1,0,0,rectangle,-0.359558105,3.566894531,1,0,0,-0.359558105,3.566894531,1,0,0,0,57,57,64,1,,,,,,,,
,,,,,,,,,,,,,FF,,,,,,,,1.0672,,,,,,,,,,,,,,,,,,,,,,60fefb130de6f7f50ef82c6c,61036c8269b39532e4ff2e37,2021-07-29_23h07.25.878,Simcolourproject_2stim_asymm_v5,2020.2.10,MacIntel,60,61025ae37ef11b136ea224fe,,,,,,,,,1623,65.33636475,-37.36190796,1,0,0,response3disk,,5,5.511108398,-2.744384766,1,0,0,rectangle,5.511108398,-2.744384766,1,0,0,5.511108398,-2.744384766,1,0,0,0,58,58,146,1,,,,,,,,
,,,,,,,,,,,,,FF,,,,,,,,1.1334,,,,,,,,,,,,,,,,,,,,,,60fefb130de6f7f50ef82c6c,61036c8269b39532e4ff2e37,2021-07-29_23h07.25.878,Simcolourproject_2stim_asymm_v5,2020.2.10,MacIntel,60,61025ae37ef11b136ea224fe,,,,,,,,,2584,83.14440918,35.50738525,1,0,0,response1disk,,6,1.226013184,7.270965576,1,0,0,rectangle,1.226013184,7.270965576,1,0,0,1.226013184,7.270965576,1,0,0,0,59,59,87,1,,,,,,,,
,,,,,,,,,,,,,FF,,,,,,,,1.4339,,,,,,,,,,,,,,,,,,,,,,60fefb130de6f7f50ef82c6c,61036c8269b39532e4ff2e37,2021-07-29_23h07.25.878,Simcolourproject_2stim_asymm_v5,2020.2.10,MacIntel,60,61025ae37ef11b136ea224fe,,,,,,,,,3307,58.19628906,25.71237183,1,0,0,response1disk,,6,-7.841491699,3.735015869,1,0,0,rectangle,-7.841491699,3.735015869,1,0,0,-7.841491699,3.735015869,1,0,0,0,60,60,74,1,,,,,,,,
,,,,,,,,,,,,,FF,,,,,,,,2.683,,,,,,,,,,,,,,,,,,,,,,60fefb130de6f7f50ef82c6c,61036c8269b39532e4ff2e37,2021-07-29_23h07.25.878,Simcolourproject_2stim_asymm_v5,2020.2.10,MacIntel,60,61025ae37ef11b136ea224fe,,,,,,,,,1984,69.63842773,-32.59078979,1,0,0,response3disk,,5,6.104370117,-6.04699707,1,0,0,rectangle,6.104370117,-6.04699707,1,0,0,6.104370117,-6.04699707,1,0,0,0,61,61,108,1,,,,,,,,
,,,,,,,,,,,,,FF,,,,,,,,1.2672,,,,,,,,,,,,,,,,,,,,,,60fefb130de6f7f50ef82c6c,61036c8269b39532e4ff2e37,2021-07-29_23h07.25.878,Simcolourproject_2stim_asymm_v5,2020.2.10,MacIntel,60,61025ae37ef11b136ea224fe,,,,,,,,,2719,-81.77362061,39.64935303,1,0,0,response7disk,,1,-2.990539551,-5.66583252,1,0,0,rectangle,-2.990539551,-5.66583252,1,0,0,-2.990539551,-5.66583252,1,0,0,0,62,62,105,1,,,,,,,,
,,,,,,,,,,,,,FF,,,,,,,,0.9835,,,,,,,,,,,,,,,,,,,,,,60fefb130de6f7f50ef82c6c,61036c8269b39532e4ff2e37,2021-07-29_23h07.25.878,Simcolourproject_2stim_asymm_v5,2020.2.10,MacIntel,60,61025ae37ef11b136ea224fe,,,,,,,,,1099,38.09649658,65.04418945,1,0,0,response1disk,,7,-12.29553223,-1.124664307,1,0,0,rectangle,-12.29553223,-1.124664307,1,0,0,-12.29553223,-1.124664307,1,0,0,0,63,63,136,1,,,,,,,,
,,,,,,,,,,,,,FF,,,,,,,,1.3327,,,,,,,,,,,,,,,,,,,,,,60fefb130de6f7f50ef82c6c,61036c8269b39532e4ff2e37,2021-07-29_23h07.25.878,Simcolourproject_2stim_asymm_v5,2020.2.10,MacIntel,60,61025ae37ef11b136ea224fe,,,,,,,,,1304,32.21563721,-51.48590088,1,0,0,response3disk,,4,-2.096618652,0.686859131,1,0,0,rectangle,-2.096618652,0.686859131,1,0,0,-2.096618652,0.686859131,1,0,0,0,64,64,144,1,,,,,,,,
,,,,,,,,,,,,,FF,,,,,,,,1.2831,,,,,,,,,,,,,,,,,,,,,,60fefb130de6f7f50ef82c6c,61036c8269b39532e4ff2e37,2021-07-29_23h07.25.878,Simcolourproject_2stim_asymm_v5,2020.2.10,MacIntel,60,61025ae37ef11b136ea224fe,,,,,,,,,415,65.73675537,-33.03973389,1,0,0,response3disk,,5,13.63995361,-11.08465576,1,0,0,rectangle,13.63995361,-11.08465576,1,0,0,13.63995361,-11.08465576,1,0,0,0,65,65,156,1,,,,,,,,
,,,,,,,,,,,,,FF,,,,,,,,0.9833,,,,,,,,,,,,,,,,,,,,,,60fefb130de6f7f50ef82c6c,61036c8269b39532e4ff2e37,2021-07-29_23h07.25.878,Simcolourproject_2stim_asymm_v5,2020.2.10,MacIntel,60,61025ae37ef11b136ea224fe,,,,,,,,,68,38.65447998,-63.18603516,1,0,0,response3disk,,4,6.097473145,-2.324768066,1,0,0,rectangle,6.097473145,-2.324768066,1,0,0,6.097473145,-2.324768066,1,0,0,0,66,66,99,1,,,,,,,,
,,,,,,,,,,,,,FF,,,,,,,,1.3346,,,,,,,,,,,,,,,,,,,,,,60fefb130de6f7f50ef82c6c,61036c8269b39532e4ff2e37,2021-07-29_23h07.25.878,Simcolourproject_2stim_asymm_v5,2020.2.10,MacIntel,60,61025ae37ef11b136ea224fe,,,,,,,,,1758,23.96331787,-44.50112915,1,0,0,response3disk,,4,0.65222168,6.163848877,1,0,0,rectangle,0.65222168,6.163848877,1,0,0,0.65222168,6.163848877,1,0,0,0,67,67,11,1,,,,,,,,
,,,,,,,,,,,,,FF,,,,,,,,1.0005,,,,,,,,,,,,,,,,,,,,,,60fefb130de6f7f50ef82c6c,61036c8269b39532e4ff2e37,2021-07-29_23h07.25.878,Simcolourproject_2stim_asymm_v5,2020.2.10,MacIntel,60,61025ae37ef11b136ea224fe,,,,,,,,,2034,17.01190186,-60.84661865,1,0,0,response3disk,,4,-2.156677246,-4.393005371,1,0,0,rectangle,-2.156677246,-4.393005371,1,0,0,-2.156677246,-4.393005371,1,0,0,0,68,68,24,1,,,,,,,,
,,,,,,,,,,,,,FF,,,,,,,,0.8512,,,,,,,,,,,,,,,,,,,,,,60fefb130de6f7f50ef82c6c,61036c8269b39532e4ff2e37,2021-07-29_23h07.25.878,Simcolourproject_2stim_asymm_v5,2020.2.10,MacIntel,60,61025ae37ef11b136ea224fe,,,,,,,,,3345,68.434021,28.98806763,1,0,0,response1disk,,6,9.557373047,4.418518066,1,0,0,rectangle,9.557373047,4.418518066,1,0,0,9.557373047,4.418518066,1,0,0,0,69,69,63,1,,,,,,,,
,,,,,,,,,,,,,FF,,,,,,,,1.15,,,,,,,,,,,,,,,,,,,,,,60fefb130de6f7f50ef82c6c,61036c8269b39532e4ff2e37,2021-07-29_23h07.25.878,Simcolourproject_2stim_asymm_v5,2020.2.10,MacIntel,60,61025ae37ef11b136ea224fe,,,,,,,,,838,67.67889404,32.81097412,1,0,0,response1disk,,6,18.04425049,10.33078003,1,0,0,rectangle,18.04425049,10.33078003,1,0,0,18.04425049,10.33078003,1,0,0,0,70,70,101,1,,,,,,,,
,,,,,,,,,,,,,FF,,,,,,,,0.9666,,,,,,,,,,,,,,,,,,,,,,60fefb130de6f7f50ef82c6c,61036c8269b39532e4ff2e37,2021-07-29_23h07.25.878,Simcolourproject_2stim_asymm_v5,2020.2.10,MacIntel,60,61025ae37ef11b136ea224fe,,,,,,,,,2914,52.4901123,-31.13568115,1,0,0,response3disk,,5,-6.108642578,-0.595581055,1,0,0,rectangle,-6.108642578,-0.595581055,1,0,0,-6.108642578,-0.595581055,1,0,0,0,71,71,30,1,,,,,,,,
,,,,,,,,,,,,,FF,,,,,,,,0.8832,,,,,,,,,,,,,,,,,,,,,,60fefb130de6f7f50ef82c6c,61036c8269b39532e4ff2e37,2021-07-29_23h07.25.878,Simcolourproject_2stim_asymm_v5,2020.2.10,MacIntel,60,61025ae37ef11b136ea224fe,,,,,,,,,475,63.69311523,-29.93945313,1,0,0,response3disk,,5,13.4072876,-4.305297852,1,0,0,rectangle,13.4072876,-4.305297852,1,0,0,13.4072876,-4.305297852,1,0,0,0,72,72,41,1,,,,,,,,
,,,,,,,,,,,,,FF,,,,,,,,1.4663,,,,,,,,,,,,,,,,,,,,,,60fefb130de6f7f50ef82c6c,61036c8269b39532e4ff2e37,2021-07-29_23h07.25.878,Simcolourproject_2stim_asymm_v5,2020.2.10,MacIntel,60,61025ae37ef11b136ea224fe,,,,,,,,,3637,22.54394531,-69.38232422,1,0,0,response3disk,,4,7.917358398,-8.442169189,1,0,0,rectangle,7.917358398,-8.442169189,1,0,0,7.917358398,-8.442169189,1,0,0,0,73,73,110,1,,,,,,,,
,,,,,,,,,,,,,FF,,,,,,,,1.116,,,,,,,,,,,,,,,,,,,,,,60fefb130de6f7f50ef82c6c,61036c8269b39532e4ff2e37,2021-07-29_23h07.25.878,Simcolourproject_2stim_asymm_v5,2020.2.10,MacIntel,60,61025ae37ef11b136ea224fe,,,,,,,,,1463,64.86004639,30.08355713,1,0,0,response1disk,,6,-5.338928223,6.108825684,1,0,0,rectangle,-5.338928223,6.108825684,1,0,0,-5.338928223,6.108825684,1,0,0,0,74,74,140,1,,,,,,,,
,,,,,,,,,,,,,FF,,,,,,,,0.7514,,,,,,,,,,,,,,,,,,,,,,60fefb130de6f7f50ef82c6c,61036c8269b39532e4ff2e37,2021-07-29_23h07.25.878,Simcolourproject_2stim_asymm_v5,2020.2.10,MacIntel,60,61025ae37ef11b136ea224fe,,,,,,,,,1567,48.72955322,21.33972168,1,0,0,response1disk,,6,-4.54119873,10.62579346,1,0,0,rectangle,-4.54119873,10.62579346,1,0,0,-4.54119873,10.62579346,1,0,0,0,75,75,94,1,,,,,,,,
,,,,,,,,,,,,,FF,,,,,,,,1.1665,,,,,,,,,,,,,,,,,,,,,,60fefb130de6f7f50ef82c6c,61036c8269b39532e4ff2e37,2021-07-29_23h07.25.878,Simcolourproject_2stim_asymm_v5,2020.2.10,MacIntel,60,61025ae37ef11b136ea224fe,,,,,,,,,2158,24.91040039,50.89529419,1,0,0,response1disk,,7,0.223876953,12.52120972,1,0,0,rectangle,0.223876953,12.52120972,1,0,0,0.223876953,12.52120972,1,0,0,0,76,76,26,1,,,,,,,,
,,,,,,,,,,,,,FF,,,,,,,,1.001,,,,,,,,,,,,,,,,,,,,,,60fefb130de6f7f50ef82c6c,61036c8269b39532e4ff2e37,2021-07-29_23h07.25.878,Simcolourproject_2stim_asymm_v5,2020.2.10,MacIntel,60,61025ae37ef11b136ea224fe,,,,,,,,,4268,-27.82775879,-41.92974854,1,0,0,response5disk,,3,4.724853516,8.427642822,1,0,0,rectangle,4.724853516,8.427642822,1,0,0,4.724853516,8.427642822,1,0,0,0,77,77,81,1,,,,,,,,
,,,,,,,,,,,,,FF,,,,,,,,0.9331,,,,,,,,,,,,,,,,,,,,,,60fefb130de6f7f50ef82c6c,61036c8269b39532e4ff2e37,2021-07-29_23h07.25.878,Simcolourproject_2stim_asymm_v5,2020.2.10,MacIntel,60,61025ae37ef11b136ea224fe,,,,,,,,,1761,58.3805542,-38.527771,1,0,0,response3disk,,5,3.579467773,-9.069396973,1,0,0,rectangle,3.579467773,-9.069396973,1,0,0,3.579467773,-9.069396973,1,0,0,0,78,78,79,1,,,,,,,,
,,,,,,,,,,,,,FF,,,,,,,,1.0835,,,,,,,,,,,,,,,,,,,,,,60fefb130de6f7f50ef82c6c,61036c8269b39532e4ff2e37,2021-07-29_23h07.25.878,Simcolourproject_2stim_asymm_v5,2020.2.10,MacIntel,60,61025ae37ef11b136ea224fe,,,,,,,,,1227,29.59576416,-52.0022583,1,0,0,response3disk,,4,5.288879395,-5.727966309,1,0,0,rectangle,5.288879395,-5.727966309,1,0,0,5.288879395,-5.727966309,1,0,0,0,79,79,17,1,,,,,,,,
,,,,,,,,,,,,,FF,,,,,,,,0.9341,,,,,,,,,,,,,,,,,,,,,,60fefb130de6f7f50ef82c6c,61036c8269b39532e4ff2e37,2021-07-29_23h07.25.878,Simcolourproject_2stim_asymm_v5,2020.2.10,MacIntel,60,61025ae37ef11b136ea224fe,,,,,,,,,3911,-25.80584717,-62.70495605,1,0,0,response5disk,,3,-2.431945801,-5.511535645,1,0,0,rectangle,-2.431945801,-5.511535645,1,0,0,-2.431945801,-5.511535645,1,0,0,0,80,80,120,1,,,,,,,,
,,,,,,,,,,,,,FF,,,,,,,,0.8832,,,,,,,,,,,,,,,,,,,,,,60fefb130de6f7f50ef82c6c,61036c8269b39532e4ff2e37,2021-07-29_23h07.25.878,Simcolourproject_2stim_asymm_v5,2020.2.10,MacIntel,60,61025ae37ef11b136ea224fe,,,,,,,,,3644,49.18572998,-25.34667969,1,0,0,response3disk,,5,1.111999512,-12.90795898,1,0,0,rectangle,1.111999512,-12.90795898,1,0,0,1.111999512,-12.90795898,1,0,0,0,81,81,121,1,,,,,,,,
,,,,,,,,,,,,,FF,,,,,,,,0.8836,,,,,,,,,,,,,,,,,,,,,,60fefb130de6f7f50ef82c6c,61036c8269b39532e4ff2e37,2021-07-29_23h07.25.878,Simcolourproject_2stim_asymm_v5,2020.2.10,MacIntel,60,61025ae37ef11b136ea224fe,,,,,,,,,2996,-40.56549072,-62.17205811,1,0,0,response5disk,,3,3.823730469,1.593322754,1,0,0,rectangle,3.823730469,1.593322754,1,0,0,3.823730469,1.593322754,1,0,0,0,82,82,50,1,,,,,,,,
,,,,,,,,,,,,,FF,,,,,,,,1.4013,,,,,,,,,,,,,,,,,,,,,,60fefb130de6f7f50ef82c6c,61036c8269b39532e4ff2e37,2021-07-29_23h07.25.878,Simcolourproject_2stim_asymm_v5,2020.2.10,MacIntel,60,61025ae37ef11b136ea224fe,,,,,,,,,1632,72.66925049,41.09594727,1,0,0,response1disk,,6,-1.989562988,-1.417510986,1,0,0,rectangle,-1.989562988,-1.417510986,1,0,0,-1.989562988,-1.417510986,1,0,0,0,83,83,47,1,,,,,,,,
,,,,,,,,,,,,,FF,,,,,,,,0.9167,,,,,,,,,,,,,,,,,,,,,,60fefb130de6f7f50ef82c6c,61036c8269b39532e4ff2e37,2021-07-29_23h07.25.878,Simcolourproject_2stim_asymm_v5,2020.2.10,MacIntel,60,61025ae37ef11b136ea224fe,,,,,,,,,3973,24.48236084,-43.93811035,1,0,0,response3disk,,4,2.830932617,-11.61691284,1,0,0,rectangle,2.830932617,-11.61691284,1,0,0,2.830932617,-11.61691284,1,0,0,0,84,84,42,1,,,,,,,,
,,,,,,,,,,,,,FF,,,,,,,,8.4503,,,,,,,,,,,,,,,,,,,,,,60fefb130de6f7f50ef82c6c,61036c8269b39532e4ff2e37,2021-07-29_23h07.25.878,Simcolourproject_2stim_asymm_v5,2020.2.10,MacIntel,60,61025ae37ef11b136ea224fe,,,,,,,,,3679,33.3168335,-15.94897461,1,0,0,response3disk,,5,-3.878662109,-6.686950684,1,0,0,rectangle,-3.878662109,-6.686950684,1,0,0,-3.878662109,-6.686950684,1,0,0,0,85,85,148,1,,,,,,,,
,,,,,,,,,,,,,FF,,,,,,,,0.9666,,,,,,,,,,,,,,,,,,,,,,60fefb130de6f7f50ef82c6c,61036c8269b39532e4ff2e37,2021-07-29_23h07.25.878,Simcolourproject_2stim_asymm_v5,2020.2.10,MacIntel,60,61025ae37ef11b136ea224fe,,,,,,,,,2910,60.10571289,-29.45904541,1,0,0,response3disk,,5,19.48193359,-5.092102051,1,0,0,rectangle,19.48193359,-5.092102051,1,0,0,19.48193359,-5.092102051,1,0,0,0,86,86,86,1,,,,,,,,
,,,,,,,,,,,,,FF,,,,,,,,1.8003,,,,,,,,,,,,,,,,,,,,,,60fefb130de6f7f50ef82c6c,61036c8269b39532e4ff2e37,2021-07-29_23h07.25.878,Simcolourproject_2stim_asymm_v5,2020.2.10,MacIntel,60,61025ae37ef11b136ea224fe,,,,,,,,,3573,54.14666748,25.728302,1,0,0,response1disk,,6,8.814086914,8.634246826,1,0,0,rectangle,8.814086914,8.634246826,1,0,0,8.814086914,8.634246826,1,0,0,0,87,87,70,1,,,,,,,,
,,,,,,,,,,,,,FF,,,,,,,,0.8493,,,,,,,,,,,,,,,,,,,,,,60fefb130de6f7f50ef82c6c,61036c8269b39532e4ff2e37,2021-07-29_23h07.25.878,Simcolourproject_2stim_asymm_v5,2020.2.10,MacIntel,60,61025ae37ef11b136ea224fe,,,,,,,,,2129,68.39562988,37.14227295,1,0,0,response1disk,,6,-1.196350098,4.598754883,1,0,0,rectangle,-1.196350098,4.598754883,1,0,0,-1.196350098,4.598754883,1,0,0,0,88,88,75,1,,,,,,,,
,,,,,,,,,,,,,FF,,,,,,,,1.3988,,,,,,,,,,,,,,,,,,,,,,60fefb130de6f7f50ef82c6c,61036c8269b39532e4ff2e37,2021-07-29_23h07.25.878,Simcolourproject_2stim_asymm_v5,2020.2.10,MacIntel,60,61025ae37ef11b136ea224fe,,,,,,,,,2983,52.50653076,28.80291748,1,0,0,response1disk,,6,-5.535400391,10.50054932,1,0,0,rectangle,-41.93676758,80.31759644,1,0,0,-7.484375,4.616821289,1,0,0,0,89,89,53,1,,response7disk_3,TRUE,0,0,"[107,307,114,292,90,113,154,237,312,252,177,273,182,97,280,123,222,321,320,189]",2.0171,rectangle
,,,,,,,,,,,,,FF,,,,,,,,2.3671,,,,,,,,,,,,,,,,,,,,,,60fefb130de6f7f50ef82c6c,61036c8269b39532e4ff2e37,2021-07-29_23h07.25.878,Simcolourproject_2stim_asymm_v5,2020.2.10,MacIntel,60,61025ae37ef11b136ea224fe,,,,,,,,,4107,-36.51062012,-65.52484131,1,0,0,response5disk,,3,-6.381835938,2.067504883,1,0,0,rectangle,-6.381835938,2.067504883,1,0,0,-6.381835938,2.067504883,1,0,0,0,90,90,39,1,,,,,,,,
,,,,,,,,,,,,,FF,,,,,,,,0.9664,,,,,,,,,,,,,,,,,,,,,,60fefb130de6f7f50ef82c6c,61036c8269b39532e4ff2e37,2021-07-29_23h07.25.878,Simcolourproject_2stim_asymm_v5,2020.2.10,MacIntel,60,61025ae37ef11b136ea224fe,,,,,,,,,3723,58.83526611,36.44207764,1,0,0,response1disk,,6,-1.61505127,0.854248047,1,0,0,rectangle,-1.61505127,0.854248047,1,0,0,-1.61505127,0.854248047,1,0,0,0,91,91,83,1,,,,,,,,
,,,,,,,,,,,,,FF,,,,,,,,0.8674,,,,,,,,,,,,,,,,,,,,,,60fefb130de6f7f50ef82c6c,61036c8269b39532e4ff2e37,2021-07-29_23h07.25.878,Simcolourproject_2stim_asymm_v5,2020.2.10,MacIntel,60,61025ae37ef11b136ea224fe,,,,,,,,,2521,39.27172852,89.19140625,1,0,0,response1disk,,7,-1.115722656,9.322479248,1,0,0,rectangle,-1.115722656,9.322479248,1,0,0,-1.115722656,9.322479248,1,0,0,0,92,92,54,1,,,,,,,,
,,,,,,,,,,,,,FF,,,,,,,,1.6841,,,,,,,,,,,,,,,,,,,,,,60fefb130de6f7f50ef82c6c,61036c8269b39532e4ff2e37,2021-07-29_23h07.25.878,Simcolourproject_2stim_asymm_v5,2020.2.10,MacIntel,60,61025ae37ef11b136ea224fe,,,,,,,,,2033,-76.08105469,-39.85244751,1,0,0,response5disk,,2,4.952636719,5.469848633,1,0,0,rectangle,4.952636719,5.469848633,1,0,0,4.952636719,5.469848633,1,0,0,0,93,93,104,1,,,,,,,,
,,,,,,,,,,,,,FF,,,,,,,,1.1005,,,,,,,,,,,,,,,,,,,,,,60fefb130de6f7f50ef82c6c,61036c8269b39532e4ff2e37,2021-07-29_23h07.25.878,Simcolourproject_2stim_asymm_v5,2020.2.10,MacIntel,60,61025ae37ef11b136ea224fe,,,,,,,,,188,-66.80493164,-24.46240234,1,0,0,response5disk,,2,6.952697754,-0.674316406,1,0,0,rectangle,6.952697754,-0.674316406,1,0,0,6.952697754,-0.674316406,1,0,0,0,94,94,98,1,,,,,,,,
,,,,,,,,,,,,,FF,,,,,,,,1.3014,,,,,,,,,,,,,,,,,,,,,,60fefb130de6f7f50ef82c6c,61036c8269b39532e4ff2e37,2021-07-29_23h07.25.878,Simcolourproject_2stim_asymm_v5,2020.2.10,MacIntel,60,61025ae37ef11b136ea224fe,,,,,,,,,626,67.88452148,39.72747803,1,0,0,response1disk,,6,3.073486328,6.779052734,1,0,0,rectangle,3.073486328,6.779052734,1,0,0,3.073486328,6.779052734,1,0,0,0,95,95,132,1,,,,,,,,
,,,,,,,,,,,,,FF,,,,,,,,1.1002,,,,,,,,,,,,,,,,,,,,,,60fefb130de6f7f50ef82c6c,61036c8269b39532e4ff2e37,2021-07-29_23h07.25.878,Simcolourproject_2stim_asymm_v5,2020.2.10,MacIntel,60,61025ae37ef11b136ea224fe,,,,,,,,,970,-108.015625,-45.69049072,1,0,0,response5disk,,2,-8.494812012,2.88092041,1,0,0,rectangle,44.57672119,63.18673706,1,0,0,10.20379639,6.096252441,1,0,0,0,96,96,38,1,,response1disk_3,TRUE,7,7,"[107,307,114,292,90,113,154,237,312,252,177,273,182,97,280,123,222,321,320,189]",1.8675,rectangle
,,,,,,,,,,,,,FF,,,,,,,,1.1169,,,,,,,,,,,,,,,,,,,,,,60fefb130de6f7f50ef82c6c,61036c8269b39532e4ff2e37,2021-07-29_23h07.25.878,Simcolourproject_2stim_asymm_v5,2020.2.10,MacIntel,60,61025ae37ef11b136ea224fe,,,,,,,,,1834,49.64910889,-41.82025146,1,0,0,response3disk,,5,6.477783203,-5.269592285,1,0,0,rectangle,6.477783203,-5.269592285,1,0,0,6.477783203,-5.269592285,1,0,0,0,97,97,158,1,,,,,,,,
,,,,,,,,,,,,,FF,,,,,,,,1.1175,,,,,,,,,,,,,,,,,,,,,,60fefb130de6f7f50ef82c6c,61036c8269b39532e4ff2e37,2021-07-29_23h07.25.878,Simcolourproject_2stim_asymm_v5,2020.2.10,MacIntel,60,61025ae37ef11b136ea224fe,,,,,,,,,335,81.54156494,21.38687134,1,0,0,response1disk,,6,4.016235352,3.466003418,1,0,0,rectangle,4.016235352,3.466003418,1,0,0,4.016235352,3.466003418,1,0,0,0,98,98,55,1,,,,,,,,
,,,,,,,,,,,,,FF,,,,,,,,1.7183,,,,,,,,,,,,,,,,,,,,,,60fefb130de6f7f50ef82c6c,61036c8269b39532e4ff2e37,2021-07-29_23h07.25.878,Simcolourproject_2stim_asymm_v5,2020.2.10,MacIntel,60,61025ae37ef11b136ea224fe,,,,,,,,,221,67.98480225,29.56732178,1,0,0,response1disk,,6,-0.866149902,11.1385498,1,0,0,rectangle,-0.866149902,11.1385498,1,0,0,-0.866149902,11.1385498,1,0,0,0,99,99,8,1,,,,,,,,
,,,,,,,,,,,,,FF,,,,,,,,2.05,,,,,,,,,,,,,,,,,,,,,,60fefb130de6f7f50ef82c6c,61036c8269b39532e4ff2e37,2021-07-29_23h07.25.878,Simcolourproject_2stim_asymm_v5,2020.2.10,MacIntel,60,61025ae37ef11b136ea224fe,,,,,,,,,985,51.34564209,34.41882324,1,0,0,response1disk,,6,-2.696472168,14.44720459,1,0,0,rectangle,-2.696472168,14.44720459,1,0,0,-2.696472168,14.44720459,1,0,0,0,100,100,28,1,,,,,,,,
,,,,,,,,,,,,,FF,,,,,,,,0.8333,,,,,,,,,,,,,,,,,,,,,,60fefb130de6f7f50ef82c6c,61036c8269b39532e4ff2e37,2021-07-29_23h07.25.878,Simcolourproject_2stim_asymm_v5,2020.2.10,MacIntel,60,61025ae37ef11b136ea224fe,,,,,,,,,1481,47.27685547,30.95388794,1,0,0,response1disk,,6,3.889038086,9.333129883,1,0,0,rectangle,3.889038086,9.333129883,1,0,0,3.889038086,9.333129883,1,0,0,0,101,101,84,1,,,,,,,,
,,,,,,,,,,,,,FF,,,,,,,,0.8334,,,,,,,,,,,,,,,,,,,,,,60fefb130de6f7f50ef82c6c,61036c8269b39532e4ff2e37,2021-07-29_23h07.25.878,Simcolourproject_2stim_asymm_v5,2020.2.10,MacIntel,60,61025ae37ef11b136ea224fe,,,,,,,,,3892,48.90594482,24.20349121,1,0,0,response1disk,,6,3.787841797,-0.372406006,1,0,0,rectangle,3.787841797,-0.372406006,1,0,0,3.787841797,-0.372406006,1,0,0,0,102,102,59,1,,,,,,,,
,,,,,,,,,,,,,FF,,,,,,,,1.8838,,,,,,,,,,,,,,,,,,,,,,60fefb130de6f7f50ef82c6c,61036c8269b39532e4ff2e37,2021-07-29_23h07.25.878,Simcolourproject_2stim_asymm_v5,2020.2.10,MacIntel,60,61025ae37ef11b136ea224fe,,,,,,,,,2851,64.00286865,24.40240479,1,0,0,response1disk,,6,-11.71795654,5.709228516,1,0,0,rectangle,-11.71795654,5.709228516,1,0,0,-11.71795654,5.709228516,1,0,0,0,103,103,103,1,,,,,,,,
,,,,,,,,,,,,,FF,,,,,,,,0.683,,,,,,,,,,,,,,,,,,,,,,60fefb130de6f7f50ef82c6c,61036c8269b39532e4ff2e37,2021-07-29_23h07.25.878,Simcolourproject_2stim_asymm_v5,2020.2.10,MacIntel,60,61025ae37ef11b136ea224fe,,,,,,,,,1552,37.23254395,26.20388794,1,0,0,response1disk,,6,-8.764099121,10.07885742,1,0,0,rectangle,-8.764099121,10.07885742,1,0,0,-8.764099121,10.07885742,1,0,0,0,104,104,5,1,,,,,,,,
,,,,,,,,,,,,,FF,,,,,,,,0.983,,,,,,,,,,,,,,,,,,,,,,60fefb130de6f7f50ef82c6c,61036c8269b39532e4ff2e37,2021-07-29_23h07.25.878,Simcolourproject_2stim_asymm_v5,2020.2.10,MacIntel,60,61025ae37ef11b136ea224fe,,,,,,,,,3784,53.51141357,-29.05395508,1,0,0,response3disk,,5,10.08996582,-4.69152832,1,0,0,rectangle,10.08996582,-4.69152832,1,0,0,10.08996582,-4.69152832,1,0,0,0,105,105,151,1,,,,,,,,
,,,,,,,,,,,,,FF,,,,,,,,0.7824,,,,,,,,,,,,,,,,,,,,,,60fefb130de6f7f50ef82c6c,61036c8269b39532e4ff2e37,2021-07-29_23h07.25.878,Simcolourproject_2stim_asymm_v5,2020.2.10,MacIntel,60,61025ae37ef11b136ea224fe,,,,,,,,,1971,29.43994141,-45.42089844,1,0,0,response3disk,,4,5.770874023,-6.847900391,1,0,0,rectangle,19.89587402,72.87075806,1,0,0,-2.011047363,5.833862305,1,0,0,0,106,106,133,1,,response1disk_3,TRUE,7,7,"[107,307,114,292,90,113,154,237,312,252,177,273,182,97,280,123,222,321,320,189]",1.5178,rectangle
,,,,,,,,,,,,,FF,,,,,,,,0.8338,,,,,,,,,,,,,,,,,,,,,,60fefb130de6f7f50ef82c6c,61036c8269b39532e4ff2e37,2021-07-29_23h07.25.878,Simcolourproject_2stim_asymm_v5,2020.2.10,MacIntel,60,61025ae37ef11b136ea224fe,,,,,,,,,4046,-88.11016846,56.28961182,1,0,0,response7disk,,1,6.207702637,2.051513672,1,0,0,rectangle,6.207702637,2.051513672,1,0,0,6.207702637,2.051513672,1,0,0,0,107,107,123,1,,,,,,,,
,,,,,,,,,,,,,FF,,,,,,,,1.1171,,,,,,,,,,,,,,,,,,,,,,60fefb130de6f7f50ef82c6c,61036c8269b39532e4ff2e37,2021-07-29_23h07.25.878,Simcolourproject_2stim_asymm_v5,2020.2.10,MacIntel,60,61025ae37ef11b136ea224fe,,,,,,,,,775,34.03277588,67.63977051,1,0,0,response1disk,,7,9.589599609,7.063293457,1,0,0,rectangle,9.589599609,7.063293457,1,0,0,9.589599609,7.063293457,1,0,0,0,108,108,45,1,,,,,,,,
,,,,,,,,,,,,,FF,,,,,,,,0.8834,,,,,,,,,,,,,,,,,,,,,,60fefb130de6f7f50ef82c6c,61036c8269b39532e4ff2e37,2021-07-29_23h07.25.878,Simcolourproject_2stim_asymm_v5,2020.2.10,MacIntel,60,61025ae37ef11b136ea224fe,,,,,,,,,962,70.4130249,31.60968018,1,0,0,response1disk,,6,-10.14788818,6.189575195,1,0,0,rectangle,-10.14788818,6.189575195,1,0,0,-10.14788818,6.189575195,1,0,0,0,109,109,31,1,,,,,,,,
,,,,,,,,,,,,,FF,,,,,,,,0.6671,,,,,,,,,,,,,,,,,,,,,,60fefb130de6f7f50ef82c6c,61036c8269b39532e4ff2e37,2021-07-29_23h07.25.878,Simcolourproject_2stim_asymm_v5,2020.2.10,MacIntel,60,61025ae37ef11b136ea224fe,,,,,,,,,1088,48.93139648,34.98565674,1,0,0,response1disk,,6,6.393798828,17.41870117,1,0,0,rectangle,6.393798828,17.41870117,1,0,0,6.393798828,17.41870117,1,0,0,0,110,110,3,1,,,,,,,,
,,,,,,,,,,,,,FF,,,,,,,,1.4173,,,,,,,,,,,,,,,,,,,,,,60fefb130de6f7f50ef82c6c,61036c8269b39532e4ff2e37,2021-07-29_23h07.25.878,Simcolourproject_2stim_asymm_v5,2020.2.10,MacIntel,60,61025ae37ef11b136ea224fe,,,,,,,,,3370,42.16583252,72.24468994,1,0,0,response1disk,,7,-0.813537598,-0.262695313,1,0,0,rectangle,-0.813537598,-0.262695313,1,0,0,-0.813537598,-0.262695313,1,0,0,0,111,111,43,1,,,,,,,,
,,,,,,,,,,,,,FF,,,,,,,,0.8487,,,,,,,,,,,,,,,,,,,,,,60fefb130de6f7f50ef82c6c,61036c8269b39532e4ff2e37,2021-07-29_23h07.25.878,Simcolourproject_2stim_asymm_v5,2020.2.10,MacIntel,60,61025ae37ef11b136ea224fe,,,,,,,,,1688,58.2699585,-27.15698242,1,0,0,response3disk,,5,4.207641602,-4.664825439,1,0,0,rectangle,37.5213623,-87.02923584,1,0,0,-5.309204102,-7.128356934,1,0,0,0,112,112,0,1,,response3disk_3,TRUE,4,4,"[107,307,114,292,90,113,154,237,312,252,177,273,182,97,280,123,222,321,320,189]",1.6831,rectangle
,,,,,,,,,,,,,FF,,,,,,,,0.8002,,,,,,,,,,,,,,,,,,,,,,60fefb130de6f7f50ef82c6c,61036c8269b39532e4ff2e37,2021-07-29_23h07.25.878,Simcolourproject_2stim_asymm_v5,2020.2.10,MacIntel,60,61025ae37ef11b136ea224fe,,,,,,,,,1498,26.70153809,71.56335449,1,0,0,response1disk,,7,1.882202148,-0.35760498,1,0,0,rectangle,-69.95410156,37.52770996,1,0,0,-3.038757324,3.693389893,1,0,0,0,113,113,153,1,,response7disk_3,TRUE,1,1,"[107,307,114,292,90,113,154,237,312,252,177,273,182,97,280,123,222,321,320,189]",1.267,rectangle
,,,,,,,,,,,,,FF,,,,,,,,1.6839,,,,,,,,,,,,,,,,,,,,,,60fefb130de6f7f50ef82c6c,61036c8269b39532e4ff2e37,2021-07-29_23h07.25.878,Simcolourproject_2stim_asymm_v5,2020.2.10,MacIntel,60,61025ae37ef11b136ea224fe,,,,,,,,,4300,73.89471436,50.28091431,1,0,0,response1disk,,6,-14.1137085,-4.006896973,1,0,0,rectangle,-14.1137085,-4.006896973,1,0,0,-14.1137085,-4.006896973,1,0,0,0,114,114,67,1,,,,,,,,
,,,,,,,,,,,,,FF,,,,,,,,1.9007,,,,,,,,,,,,,,,,,,,,,,60fefb130de6f7f50ef82c6c,61036c8269b39532e4ff2e37,2021-07-29_23h07.25.878,Simcolourproject_2stim_asymm_v5,2020.2.10,MacIntel,60,61025ae37ef11b136ea224fe,,,,,,,,,275,86.19549561,35.83969116,1,0,0,response1disk,,6,-16.62133789,3.023681641,1,0,0,rectangle,-16.62133789,3.023681641,1,0,0,-16.62133789,3.023681641,1,0,0,0,115,115,106,1,,,,,,,,
,,,,,,,,,,,,,FF,,,,,,,,1.8324,,,,,,,,,,,,,,,,,,,,,,60fefb130de6f7f50ef82c6c,61036c8269b39532e4ff2e37,2021-07-29_23h07.25.878,Simcolourproject_2stim_asymm_v5,2020.2.10,MacIntel,60,61025ae37ef11b136ea224fe,,,,,,,,,3990,50.51391602,-26.15286255,1,0,0,response3disk,,5,11.94555664,-2.751037598,1,0,0,rectangle,11.94555664,-2.751037598,1,0,0,11.94555664,-2.751037598,1,0,0,0,116,116,89,1,,,,,,,,
,,,,,,,,,,,,,FF,,,,,,,,0.9506,,,,,,,,,,,,,,,,,,,,,,60fefb130de6f7f50ef82c6c,61036c8269b39532e4ff2e37,2021-07-29_23h07.25.878,Simcolourproject_2stim_asymm_v5,2020.2.10,MacIntel,60,61025ae37ef11b136ea224fe,,,,,,,,,4358,-74.81768799,-28.68838501,1,0,0,response5disk,,2,-13.7800293,-14.81271362,1,0,0,rectangle,-13.7800293,-14.81271362,1,0,0,-13.7800293,-14.81271362,1,0,0,0,117,117,18,1,,,,,,,,
,,,,,,,,,,,,,FF,,,,,,,,5.0501,,,,,,,,,,,,,,,,,,,,,,60fefb130de6f7f50ef82c6c,61036c8269b39532e4ff2e37,2021-07-29_23h07.25.878,Simcolourproject_2stim_asymm_v5,2020.2.10,MacIntel,60,61025ae37ef11b136ea224fe,,,,,,,,,2388,73.82067871,-23.09399414,1,0,0,response3disk,,5,-7.486083984,-15.72427368,1,0,0,rectangle,-7.486083984,-15.72427368,1,0,0,-7.486083984,-15.72427368,1,0,0,0,118,118,159,1,,,,,,,,
,,,,,,,,,,,,,FF,,,,,,,,0.8836,,,,,,,,,,,,,,,,,,,,,,60fefb130de6f7f50ef82c6c,61036c8269b39532e4ff2e37,2021-07-29_23h07.25.878,Simcolourproject_2stim_asymm_v5,2020.2.10,MacIntel,60,61025ae37ef11b136ea224fe,,,,,,,,,163,60.7255249,-32.85647583,1,0,0,response3disk,,5,11.20141602,-9.494110107,1,0,0,rectangle,11.20141602,-9.494110107,1,0,0,11.20141602,-9.494110107,1,0,0,0,119,119,96,1,,,,,,,,
,,,,,,,,,,,,,FF,,,,,,,,1.0502,,,,,,,,,,,,,,,,,,,,,,60fefb130de6f7f50ef82c6c,61036c8269b39532e4ff2e37,2021-07-29_23h07.25.878,Simcolourproject_2stim_asymm_v5,2020.2.10,MacIntel,60,61025ae37ef11b136ea224fe,,,,,,,,,1808,88.04901123,29.03747559,1,0,0,response1disk,,6,11.00866699,11.3888855,1,0,0,rectangle,11.00866699,11.3888855,1,0,0,11.00866699,11.3888855,1,0,0,0,120,120,44,1,,,,,,,,
,,,,,,,,,,,,,FF,,,,,,,,0.9498,,,,,,,,,,,,,,,,,,,,,,60fefb130de6f7f50ef82c6c,61036c8269b39532e4ff2e37,2021-07-29_23h07.25.878,Simcolourproject_2stim_asymm_v5,2020.2.10,MacIntel,60,61025ae37ef11b136ea224fe,,,,,,,,,1271,63.75250244,37.37710571,1,0,0,response1disk,,6,-0.890869141,-6.780700684,1,0,0,rectangle,-0.890869141,-6.780700684,1,0,0,-0.890869141,-6.780700684,1,0,0,0,121,121,116,1,,,,,,,,
,,,,,,,,,,,,,FF,,,,,,,,1.1829,,,,,,,,,,,,,,,,,,,,,,60fefb130de6f7f50ef82c6c,61036c8269b39532e4ff2e37,2021-07-29_23h07.25.878,Simcolourproject_2stim_asymm_v5,2020.2.10,MacIntel,60,61025ae37ef11b136ea224fe,,,,,,,,,760,34.28436279,64.91253662,1,0,0,response1disk,,7,3.243225098,6.568359375,1,0,0,rectangle,19.76757813,-90.59002686,1,0,0,-9.057922363,-4.24017334,1,0,0,0,122,122,61,1,,response3disk_3,TRUE,4,4,"[107,307,114,292,90,113,154,237,312,252,177,273,182,97,280,123,222,321,320,189]",2.2833,rectangle
,,,,,,,,,,,,,FF,,,,,,,,1.0499,,,,,,,,,,,,,,,,,,,,,,60fefb130de6f7f50ef82c6c,61036c8269b39532e4ff2e37,2021-07-29_23h07.25.878,Simcolourproject_2stim_asymm_v5,2020.2.10,MacIntel,60,61025ae37ef11b136ea224fe,,,,,,,,,3329,-28.07897949,-52.36538696,1,0,0,response5disk,,3,-4.593261719,1.987335205,1,0,0,rectangle,-4.593261719,1.987335205,1,0,0,-4.593261719,1.987335205,1,0,0,0,123,123,107,1,,,,,,,,
,,,,,,,,,,,,,FF,,,,,,,,0.8495,,,,,,,,,,,,,,,,,,,,,,60fefb130de6f7f50ef82c6c,61036c8269b39532e4ff2e37,2021-07-29_23h07.25.878,Simcolourproject_2stim_asymm_v5,2020.2.10,MacIntel,60,61025ae37ef11b136ea224fe,,,,,,,,,703,43.12927246,83.31536865,1,0,0,response1disk,,7,3.726074219,-1.327331543,1,0,0,rectangle,3.726074219,-1.327331543,1,0,0,3.726074219,-1.327331543,1,0,0,0,124,124,109,1,,,,,,,,
,,,,,,,,,,,,,FF,,,,,,,,0.7662,,,,,,,,,,,,,,,,,,,,,,60fefb130de6f7f50ef82c6c,61036c8269b39532e4ff2e37,2021-07-29_23h07.25.878,Simcolourproject_2stim_asymm_v5,2020.2.10,MacIntel,60,61025ae37ef11b136ea224fe,,,,,,,,,2682,72.52227783,54.97515869,1,0,0,response1disk,,6,-6.586120605,15.62692261,1,0,0,rectangle,-6.586120605,15.62692261,1,0,0,-6.586120605,15.62692261,1,0,0,0,125,125,155,1,,,,,,,,
,,,,,,,,,,,,,FF,,,,,,,,0.6674,,,,,,,,,,,,,,,,,,,,,,60fefb130de6f7f50ef82c6c,61036c8269b39532e4ff2e37,2021-07-29_23h07.25.878,Simcolourproject_2stim_asymm_v5,2020.2.10,MacIntel,60,61025ae37ef11b136ea224fe,,,,,,,,,1507,70.03771973,40.49902344,1,0,0,response1disk,,6,-1.932128906,7.358856201,1,0,0,rectangle,-1.932128906,7.358856201,1,0,0,-1.932128906,7.358856201,1,0,0,0,126,126,16,1,,,,,,,,
,,,,,,,,,,,,,FF,,,,,,,,0.9168,,,,,,,,,,,,,,,,,,,,,,60fefb130de6f7f50ef82c6c,61036c8269b39532e4ff2e37,2021-07-29_23h07.25.878,Simcolourproject_2stim_asymm_v5,2020.2.10,MacIntel,60,61025ae37ef11b136ea224fe,,,,,,,,,402,72.92034912,-54.29522705,1,0,0,response3disk,,5,1.023071289,-6.807067871,1,0,0,rectangle,1.023071289,-6.807067871,1,0,0,1.023071289,-6.807067871,1,0,0,0,127,127,46,1,,,,,,,,
,,,,,,,,,,,,,FF,,,,,,,,0.851,,,,,,,,,,,,,,,,,,,,,,60fefb130de6f7f50ef82c6c,61036c8269b39532e4ff2e37,2021-07-29_23h07.25.878,Simcolourproject_2stim_asymm_v5,2020.2.10,MacIntel,60,61025ae37ef11b136ea224fe,,,,,,,,,728,59.8104248,-33.49453735,1,0,0,response3disk,,5,12.76037598,-1.948791504,1,0,0,rectangle,12.76037598,-1.948791504,1,0,0,12.76037598,-1.948791504,1,0,0,0,128,128,49,1,,,,,,,,
,,,,,,,,,,,,,FF,,,,,,,,1.1661,,,,,,,,,,,,,,,,,,,,,,60fefb130de6f7f50ef82c6c,61036c8269b39532e4ff2e37,2021-07-29_23h07.25.878,Simcolourproject_2stim_asymm_v5,2020.2.10,MacIntel,60,61025ae37ef11b136ea224fe,,,,,,,,,1587,29.73895264,-79.38244629,1,0,0,response3disk,,4,11.73187256,-0.585144043,1,0,0,rectangle,11.73187256,-0.585144043,1,0,0,11.73187256,-0.585144043,1,0,0,0,129,129,27,1,,,,,,,,
,,,,,,,,,,,,,FF,,,,,,,,1.3501,,,,,,,,,,,,,,,,,,,,,,60fefb130de6f7f50ef82c6c,61036c8269b39532e4ff2e37,2021-07-29_23h07.25.878,Simcolourproject_2stim_asymm_v5,2020.2.10,MacIntel,60,61025ae37ef11b136ea224fe,,,,,,,,,1794,73.8203125,38.12139893,1,0,0,response1disk,,6,-6.493896484,9.741577148,1,0,0,rectangle,-6.493896484,9.741577148,1,0,0,-6.493896484,9.741577148,1,0,0,0,130,130,134,1,,,,,,,,
,,,,,,,,,,,,,FF,,,,,,,,0.7997,,,,,,,,,,,,,,,,,,,,,,60fefb130de6f7f50ef82c6c,61036c8269b39532e4ff2e37,2021-07-29_23h07.25.878,Simcolourproject_2stim_asymm_v5,2020.2.10,MacIntel,60,61025ae37ef11b136ea224fe,,,,,,,,,1066,64.16943359,30.14306641,1,0,0,response1disk,,6,-14.92907715,6.874816895,1,0,0,rectangle,-14.92907715,6.874816895,1,0,0,-14.92907715,6.874816895,1,0,0,0,131,131,77,1,,,,,,,,
,,,,,,,,,,,,,FF,,,,,,,,0.6832,,,,,,,,,,,,,,,,,,,,,,60fefb130de6f7f50ef82c6c,61036c8269b39532e4ff2e37,2021-07-29_23h07.25.878,Simcolourproject_2stim_asymm_v5,2020.2.10,MacIntel,60,61025ae37ef11b136ea224fe,,,,,,,,,470,62.94885254,28.67272949,1,0,0,response1disk,,6,5.475341797,7.023071289,1,0,0,rectangle,5.475341797,7.023071289,1,0,0,5.475341797,7.023071289,1,0,0,0,132,132,117,1,,,,,,,,
,,,,,,,,,,,,,FF,,,,,,,,0.7336,,,,,,,,,,,,,,,,,,,,,,60fefb130de6f7f50ef82c6c,61036c8269b39532e4ff2e37,2021-07-29_23h07.25.878,Simcolourproject_2stim_asymm_v5,2020.2.10,MacIntel,60,61025ae37ef11b136ea224fe,,,,,,,,,3466,69.71008301,32.14251709,1,0,0,response1disk,,6,-5.241882324,4.232177734,1,0,0,rectangle,-5.241882324,4.232177734,1,0,0,-5.241882324,4.232177734,1,0,0,0,133,133,23,1,,,,,,,,
,,,,,,,,,,,,,FF,,,,,,,,0.883,,,,,,,,,,,,,,,,,,,,,,60fefb130de6f7f50ef82c6c,61036c8269b39532e4ff2e37,2021-07-29_23h07.25.878,Simcolourproject_2stim_asymm_v5,2020.2.10,MacIntel,60,61025ae37ef11b136ea224fe,,,,,,,,,3041,-48.88647461,-72.1885376,1,0,0,response5disk,,3,5.924377441,15.08148193,1,0,0,rectangle,5.924377441,15.08148193,1,0,0,5.924377441,15.08148193,1,0,0,0,134,134,102,1,,,,,,,,
,,,,,,,,,,,,,FF,,,,,,,,0.9159,,,,,,,,,,,,,,,,,,,,,,60fefb130de6f7f50ef82c6c,61036c8269b39532e4ff2e37,2021-07-29_23h07.25.878,Simcolourproject_2stim_asymm_v5,2020.2.10,MacIntel,60,61025ae37ef11b136ea224fe,,,,,,,,,2533,40.6451416,-67.43566895,1,0,0,response3disk,,4,5.047973633,-0.748779297,1,0,0,rectangle,5.047973633,-0.748779297,1,0,0,5.047973633,-0.748779297,1,0,0,0,135,135,19,1,,,,,,,,
,,,,,,,,,,,,,FF,,,,,,,,1.1501,,,,,,,,,,,,,,,,,,,,,,60fefb130de6f7f50ef82c6c,61036c8269b39532e4ff2e37,2021-07-29_23h07.25.878,Simcolourproject_2stim_asymm_v5,2020.2.10,MacIntel,60,61025ae37ef11b136ea224fe,,,,,,,,,585,70.0647583,32.98608398,1,0,0,response1disk,,6,-23.6697998,-15.4491272,1,0,0,rectangle,-23.6697998,-15.4491272,1,0,0,-23.6697998,-15.4491272,1,0,0,0,136,136,85,1,,,,,,,,
,,,,,,,,,,,,,FF,,,,,,,,1.4174,,,,,,,,,,,,,,,,,,,,,,60fefb130de6f7f50ef82c6c,61036c8269b39532e4ff2e37,2021-07-29_23h07.25.878,Simcolourproject_2stim_asymm_v5,2020.2.10,MacIntel,60,61025ae37ef11b136ea224fe,,,,,,,,,3681,-25.23364258,-69.55645752,1,0,0,response5disk,,3,10.05969238,-5.743164063,1,0,0,rectangle,10.05969238,-5.743164063,1,0,0,10.05969238,-5.743164063,1,0,0,0,137,137,73,1,,,,,,,,
,,,,,,,,,,,,,FF,,,,,,,,1.3667,,,,,,,,,,,,,,,,,,,,,,60fefb130de6f7f50ef82c6c,61036c8269b39532e4ff2e37,2021-07-29_23h07.25.878,Simcolourproject_2stim_asymm_v5,2020.2.10,MacIntel,60,61025ae37ef11b136ea224fe,,,,,,,,,3219,35.07049561,55.2467041,1,0,0,response1disk,,7,6.659423828,12.27770996,1,0,0,rectangle,6.659423828,12.27770996,1,0,0,6.659423828,12.27770996,1,0,0,0,138,138,128,1,,,,,,,,
,,,,,,,,,,,,,FF,,,,,,,,1.2839,,,,,,,,,,,,,,,,,,,,,,60fefb130de6f7f50ef82c6c,61036c8269b39532e4ff2e37,2021-07-29_23h07.25.878,Simcolourproject_2stim_asymm_v5,2020.2.10,MacIntel,60,61025ae37ef11b136ea224fe,,,,,,,,,3891,57.12854004,32.74609375,1,0,0,response1disk,,6,-11.68115234,4.535400391,1,0,0,rectangle,-11.68115234,4.535400391,1,0,0,-11.68115234,4.535400391,1,0,0,0,139,139,113,1,,,,,,,,
,,,,,,,,,,,,,FF,,,,,,,,3.7827,,,,,,,,,,,,,,,,,,,,,,60fefb130de6f7f50ef82c6c,61036c8269b39532e4ff2e37,2021-07-29_23h07.25.878,Simcolourproject_2stim_asymm_v5,2020.2.10,MacIntel,60,61025ae37ef11b136ea224fe,,,,,,,,,1899,71.62475586,28.24832153,1,0,0,response1disk,,6,13.11254883,14.15646362,1,0,0,rectangle,13.11254883,14.15646362,1,0,0,13.11254883,14.15646362,1,0,0,0,140,140,10,1,,,,,,,,
,,,,,,,,,,,,,FF,,,,,,,,0.5673,,,,,,,,,,,,,,,,,,,,,,60fefb130de6f7f50ef82c6c,61036c8269b39532e4ff2e37,2021-07-29_23h07.25.878,Simcolourproject_2stim_asymm_v5,2020.2.10,MacIntel,60,61025ae37ef11b136ea224fe,,,,,,,,,924,63.59393311,27.49588013,1,0,0,response1disk,,6,5.812561035,9.827301025,1,0,0,rectangle,5.812561035,9.827301025,1,0,0,5.812561035,9.827301025,1,0,0,0,141,141,126,1,,,,,,,,
,,,,,,,,,,,,,FF,,,,,,,,3.2005,,,,,,,,,,,,,,,,,,,,,,60fefb130de6f7f50ef82c6c,61036c8269b39532e4ff2e37,2021-07-29_23h07.25.878,Simcolourproject_2stim_asymm_v5,2020.2.10,MacIntel,60,61025ae37ef11b136ea224fe,,,,,,,,,1509,74.61077881,36.10192871,1,0,0,response1disk,,6,-13.52178955,-0.717102051,1,0,0,rectangle,-13.52178955,-0.717102051,1,0,0,-13.52178955,-0.717102051,1,0,0,0,142,142,60,1,,,,,,,,
,,,,,,,,,,,,,FF,,,,,,,,0.8165,,,,,,,,,,,,,,,,,,,,,,60fefb130de6f7f50ef82c6c,61036c8269b39532e4ff2e37,2021-07-29_23h07.25.878,Simcolourproject_2stim_asymm_v5,2020.2.10,MacIntel,60,61025ae37ef11b136ea224fe,,,,,,,,,3685,68.2635498,-23.71243286,1,0,0,response3disk,,5,3.327819824,-9.404449463,1,0,0,rectangle,3.327819824,-9.404449463,1,0,0,3.327819824,-9.404449463,1,0,0,0,143,143,14,1,,,,,,,,
,,,,,,,,,,,,,FF,,,,,,,,0.9337,,,,,,,,,,,,,,,,,,,,,,60fefb130de6f7f50ef82c6c,61036c8269b39532e4ff2e37,2021-07-29_23h07.25.878,Simcolourproject_2stim_asymm_v5,2020.2.10,MacIntel,60,61025ae37ef11b136ea224fe,,,,,,,,,3083,77.73425293,44.33032227,1,0,0,response1disk,,6,14.32324219,13.27987671,1,0,0,rectangle,14.32324219,13.27987671,1,0,0,14.32324219,13.27987671,1,0,0,0,144,144,82,1,,,,,,,,
,,,,,,,,,,,,,FF,,,,,,,,0.9016,,,,,,,,,,,,,,,,,,,,,,60fefb130de6f7f50ef82c6c,61036c8269b39532e4ff2e37,2021-07-29_23h07.25.878,Simcolourproject_2stim_asymm_v5,2020.2.10,MacIntel,60,61025ae37ef11b136ea224fe,,,,,,,,,2307,63.3293457,-35.89099121,1,0,0,response3disk,,5,-4.066833496,-15.38497925,1,0,0,rectangle,-4.066833496,-15.38497925,1,0,0,-4.066833496,-15.38497925,1,0,0,0,145,145,91,1,,,,,,,,
,,,,,,,,,,,,,FF,,,,,,,,0.7834,,,,,,,,,,,,,,,,,,,,,,60fefb130de6f7f50ef82c6c,61036c8269b39532e4ff2e37,2021-07-29_23h07.25.878,Simcolourproject_2stim_asymm_v5,2020.2.10,MacIntel,60,61025ae37ef11b136ea224fe,,,,,,,,,3819,29.78326416,-70.59387207,1,0,0,response3disk,,4,14.3482666,-15.23187256,1,0,0,rectangle,14.3482666,-15.23187256,1,0,0,14.3482666,-15.23187256,1,0,0,0,146,146,122,1,,,,,,,,
,,,,,,,,,,,,,FF,,,,,,,,1.0158,,,,,,,,,,,,,,,,,,,,,,60fefb130de6f7f50ef82c6c,61036c8269b39532e4ff2e37,2021-07-29_23h07.25.878,Simcolourproject_2stim_asymm_v5,2020.2.10,MacIntel,60,61025ae37ef11b136ea224fe,,,,,,,,,3709,-49.71777344,-76.42730713,1,0,0,response5disk,,3,-4.34552002,0.17010498,1,0,0,rectangle,-4.34552002,0.17010498,1,0,0,-4.34552002,0.17010498,1,0,0,0,147,147,9,1,,,,,,,,
,,,,,,,,,,,,,FF,,,,,,,,0.8668,,,,,,,,,,,,,,,,,,,,,,60fefb130de6f7f50ef82c6c,61036c8269b39532e4ff2e37,2021-07-29_23h07.25.878,Simcolourproject_2stim_asymm_v5,2020.2.10,MacIntel,60,61025ae37ef11b136ea224fe,,,,,,,,,2179,62.83758545,30.56307983,1,0,0,response1disk,,6,22.29650879,-14.49523926,1,0,0,rectangle,22.29650879,-14.49523926,1,0,0,22.29650879,-14.49523926,1,0,0,0,148,148,112,1,,,,,,,,
,,,,,,,,,,,,,FF,,,,,,,,0.8827,,,,,,,,,,,,,,,,,,,,,,60fefb130de6f7f50ef82c6c,61036c8269b39532e4ff2e37,2021-07-29_23h07.25.878,Simcolourproject_2stim_asymm_v5,2020.2.10,MacIntel,60,61025ae37ef11b136ea224fe,,,,,,,,,1789,56.91156006,-27.46090698,1,0,0,response3disk,,5,8.85345459,-11.37011719,1,0,0,rectangle,8.85345459,-11.37011719,1,0,0,8.85345459,-11.37011719,1,0,0,0,149,149,142,1,,,,,,,,
,,,,,,,,,,,,,FF,,,,,,,,1.0175,,,,,,,,,,,,,,,,,,,,,,60fefb130de6f7f50ef82c6c,61036c8269b39532e4ff2e37,2021-07-29_23h07.25.878,Simcolourproject_2stim_asymm_v5,2020.2.10,MacIntel,60,61025ae37ef11b136ea224fe,,,,,,,,,352,-67.11883545,-41.76803589,1,0,0,response5disk,,2,10.62207031,4.731323242,1,0,0,rectangle,10.62207031,4.731323242,1,0,0,10.62207031,4.731323242,1,0,0,0,150,150,147,1,,,,,,,,
,,,,,,,,,,,,,FF,,,,,,,,0.9835,,,,,,,,,,,,,,,,,,,,,,60fefb130de6f7f50ef82c6c,61036c8269b39532e4ff2e37,2021-07-29_23h07.25.878,Simcolourproject_2stim_asymm_v5,2020.2.10,MacIntel,60,61025ae37ef11b136ea224fe,,,,,,,,,357,42.9822998,66.56774902,1,0,0,response1disk,,7,10.40783691,13.7010498,1,0,0,rectangle,10.40783691,13.7010498,1,0,0,10.40783691,13.7010498,1,0,0,0,151,151,114,1,,,,,,,,
,,,,,,,,,,,,,FF,,,,,,,,1.268,,,,,,,,,,,,,,,,,,,,,,60fefb130de6f7f50ef82c6c,61036c8269b39532e4ff2e37,2021-07-29_23h07.25.878,Simcolourproject_2stim_asymm_v5,2020.2.10,MacIntel,60,61025ae37ef11b136ea224fe,,,,,,,,,4151,33.04473877,-61.81219482,1,0,0,response3disk,,4,6.770996094,2.317749023,1,0,0,rectangle,6.770996094,2.317749023,1,0,0,6.770996094,2.317749023,1,0,0,0,152,152,157,1,,,,,,,,
,,,,,,,,,,,,,FF,,,,,,,,1.5504,,,,,,,,,,,,,,,,,,,,,,60fefb130de6f7f50ef82c6c,61036c8269b39532e4ff2e37,2021-07-29_23h07.25.878,Simcolourproject_2stim_asymm_v5,2020.2.10,MacIntel,60,61025ae37ef11b136ea224fe,,,,,,,,,3703,26.96636963,-66.43914795,1,0,0,response3disk,,4,3.58807373,-8.116333008,1,0,0,rectangle,98.62005615,33.00524902,1,0,0,-0.393127441,-0.837402344,1,0,0,0,153,153,68,1,,response1disk_3,TRUE,6,6,"[107,307,114,292,90,113,154,237,312,252,177,273,182,97,280,123,222,321,320,189]",1.8156,rectangle
,,,,,,,,,,,,,FF,,,,,,,,0.8334,,,,,,,,,,,,,,,,,,,,,,60fefb130de6f7f50ef82c6c,61036c8269b39532e4ff2e37,2021-07-29_23h07.25.878,Simcolourproject_2stim_asymm_v5,2020.2.10,MacIntel,60,61025ae37ef11b136ea224fe,,,,,,,,,3283,-40.8729248,-72.62402344,1,0,0,response5disk,,3,2.093994141,-0.190795898,1,0,0,rectangle,2.093994141,-0.190795898,1,0,0,2.093994141,-0.190795898,1,0,0,0,154,154,48,1,,,,,,,,
,,,,,,,,,,,,,FF,,,,,,,,0.6666,,,,,,,,,,,,,,,,,,,,,,60fefb130de6f7f50ef82c6c,61036c8269b39532e4ff2e37,2021-07-29_23h07.25.878,Simcolourproject_2stim_asymm_v5,2020.2.10,MacIntel,60,61025ae37ef11b136ea224fe,,,,,,,,,1713,30.99407959,67.50378418,1,0,0,response1disk,,7,4.362243652,1.702331543,1,0,0,rectangle,4.362243652,1.702331543,1,0,0,4.362243652,1.702331543,1,0,0,0,155,155,69,1,,,,,,,,
,,,,,,,,,,,,,FF,,,,,,,,0.8827,,,,,,,,,,,,,,,,,,,,,,60fefb130de6f7f50ef82c6c,61036c8269b39532e4ff2e37,2021-07-29_23h07.25.878,Simcolourproject_2stim_asymm_v5,2020.2.10,MacIntel,60,61025ae37ef11b136ea224fe,,,,,,,,,2432,83.62438965,32.34869385,1,0,0,response1disk,,6,-3.018737793,-1.575073242,1,0,0,rectangle,-3.018737793,-1.575073242,1,0,0,-3.018737793,-1.575073242,1,0,0,0,156,156,95,1,,,,,,,,
,,,,,,,,,,,,,FF,,,,,,,,0.7003,,,,,,,,,,,,,,,,,,,,,,60fefb130de6f7f50ef82c6c,61036c8269b39532e4ff2e37,2021-07-29_23h07.25.878,Simcolourproject_2stim_asymm_v5,2020.2.10,MacIntel,60,61025ae37ef11b136ea224fe,,,,,,,,,754,65.34637451,37.83795166,1,0,0,response1disk,,6,1.858947754,8.278137207,1,0,0,rectangle,1.858947754,8.278137207,1,0,0,1.858947754,8.278137207,1,0,0,0,157,157,139,1,,,,,,,,
,,,,,,,,,,,,,FF,,,,,,,,1.0006,,,,,,,,,,,,,,,,,,,,,,60fefb130de6f7f50ef82c6c,61036c8269b39532e4ff2e37,2021-07-29_23h07.25.878,Simcolourproject_2stim_asymm_v5,2020.2.10,MacIntel,60,61025ae37ef11b136ea224fe,,,,,,,,,2039,19.5534668,-51.21618652,1,0,0,response3disk,,4,13.7300415,-14.20474243,1,0,0,rectangle,13.7300415,-14.20474243,1,0,0,13.7300415,-14.20474243,1,0,0,0,158,158,66,1,,,,,,,,
,,,,,,,,,,,,,FF,,,,,,,,1.0667,,,,,,,,,,,,,,,,,,,,,,60fefb130de6f7f50ef82c6c,61036c8269b39532e4ff2e37,2021-07-29_23h07.25.878,Simcolourproject_2stim_asymm_v5,2020.2.10,MacIntel,60,61025ae37ef11b136ea224fe,,,,,,,,,526,-80.80438232,-47.15063477,1,0,0,response5disk,,2,1.455810547,-2.255981445,1,0,0,rectangle,1.455810547,-2.255981445,1,0,0,1.455810547,-2.255981445,1,0,0,0,159,159,1,1,,,,,,,,
,,,,,,,,,,,,,FF,,,,,,,,1.1833,,,,,,,,,,,,,,,,,,,,,,60fefb130de6f7f50ef82c6c,61036c8269b39532e4ff2e37,2021-07-29_23h07.25.878,Simcolourproject_2stim_asymm_v5,2020.2.10,MacIntel,60,61025ae37ef11b136ea224fe,,,,,,,,,4217,36.13842773,58.6685791,1,0,0,response1disk,,7,10.23687744,12.56097412,1,0,0,rectangle,10.23687744,12.56097412,1,0,0,10.23687744,12.56097412,1,0,0,1,0,160,127,1,,,,,,,,
,,,,,,,,,,,,,FF,,,,,,,,0.6326,,,,,,,,,,,,,,,,,,,,,,60fefb130de6f7f50ef82c6c,61036c8269b39532e4ff2e37,2021-07-29_23h07.25.878,Simcolourproject_2stim_asymm_v5,2020.2.10,MacIntel,60,61025ae37ef11b136ea224fe,,,,,,,,,2659,36.24719238,74.74798584,1,0,0,response1disk,,7,2.809753418,1.29473877,1,0,0,rectangle,2.809753418,1.29473877,1,0,0,2.809753418,1.29473877,1,0,0,1,1,161,39,1,,,,,,,,
,,,,,,,,,,,,,FF,,,,,,,,1.333,,,,,,,,,,,,,,,,,,,,,,60fefb130de6f7f50ef82c6c,61036c8269b39532e4ff2e37,2021-07-29_23h07.25.878,Simcolourproject_2stim_asymm_v5,2020.2.10,MacIntel,60,61025ae37ef11b136ea224fe,,,,,,,,,1610,-26.10308838,-68.72753906,1,0,0,response5disk,,3,10.37811279,2.050720215,1,0,0,rectangle,10.37811279,2.050720215,1,0,0,10.37811279,2.050720215,1,0,0,1,2,162,19,1,,,,,,,,
,,,,,,,,,,,,,FF,,,,,,,,0.6329,,,,,,,,,,,,,,,,,,,,,,60fefb130de6f7f50ef82c6c,61036c8269b39532e4ff2e37,2021-07-29_23h07.25.878,Simcolourproject_2stim_asymm_v5,2020.2.10,MacIntel,60,61025ae37ef11b136ea224fe,,,,,,,,,493,30.11804199,62.32156372,1,0,0,response1disk,,7,1.935119629,-9.687713623,1,0,0,rectangle,1.935119629,-9.687713623,1,0,0,1.935119629,-9.687713623,1,0,0,1,3,163,73,1,,,,,,,,
,,,,,,,,,,,,,FF,,,,,,,,1.3171,,,,,,,,,,,,,,,,,,,,,,60fefb130de6f7f50ef82c6c,61036c8269b39532e4ff2e37,2021-07-29_23h07.25.878,Simcolourproject_2stim_asymm_v5,2020.2.10,MacIntel,60,61025ae37ef11b136ea224fe,,,,,,,,,4221,36.68121338,-50.04040527,1,0,0,response3disk,,4,10.83001709,-17.57141113,1,0,0,rectangle,10.83001709,-17.57141113,1,0,0,10.83001709,-17.57141113,1,0,0,1,4,164,38,1,,,,,,,,
,,,,,,,,,,,,,FF,,,,,,,,1.1009,,,,,,,,,,,,,,,,,,,,,,60fefb130de6f7f50ef82c6c,61036c8269b39532e4ff2e37,2021-07-29_23h07.25.878,Simcolourproject_2stim_asymm_v5,2020.2.10,MacIntel,60,61025ae37ef11b136ea224fe,,,,,,,,,3067,69.04882813,26.62719727,1,0,0,response1disk,,6,-4.894165039,-0.964660645,1,0,0,rectangle,-4.894165039,-0.964660645,1,0,0,-4.894165039,-0.964660645,1,0,0,1,5,165,76,1,,,,,,,,
,,,,,,,,,,,,,FF,,,,,,,,1.1673,,,,,,,,,,,,,,,,,,,,,,60fefb130de6f7f50ef82c6c,61036c8269b39532e4ff2e37,2021-07-29_23h07.25.878,Simcolourproject_2stim_asymm_v5,2020.2.10,MacIntel,60,61025ae37ef11b136ea224fe,,,,,,,,,1819,32.72009277,-42.61419678,1,0,0,response3disk,,4,2.421936035,-14.08862305,1,0,0,rectangle,2.421936035,-14.08862305,1,0,0,2.421936035,-14.08862305,1,0,0,1,6,166,74,1,,,,,,,,
,,,,,,,,,,,,,FF,,,,,,,,1.1173,,,,,,,,,,,,,,,,,,,,,,60fefb130de6f7f50ef82c6c,61036c8269b39532e4ff2e37,2021-07-29_23h07.25.878,Simcolourproject_2stim_asymm_v5,2020.2.10,MacIntel,60,61025ae37ef11b136ea224fe,,,,,,,,,1818,29.37219238,-52.89221191,1,0,0,response3disk,,4,1.708984375,-6.799987793,1,0,0,rectangle,1.708984375,-6.799987793,1,0,0,1.708984375,-6.799987793,1,0,0,1,7,167,103,1,,,,,,,,
,,,,,,,,,,,,,FF,,,,,,,,0.7669,,,,,,,,,,,,,,,,,,,,,,60fefb130de6f7f50ef82c6c,61036c8269b39532e4ff2e37,2021-07-29_23h07.25.878,Simcolourproject_2stim_asymm_v5,2020.2.10,MacIntel,60,61025ae37ef11b136ea224fe,,,,,,,,,1904,70.2911377,37.85147095,1,0,0,response1disk,,6,6.214233398,10.08502197,1,0,0,rectangle,6.214233398,10.08502197,1,0,0,6.214233398,10.08502197,1,0,0,1,8,168,8,1,,,,,,,,
,,,,,,,,,,,,,FF,,,,,,,,0.9165,,,,,,,,,,,,,,,,,,,,,,60fefb130de6f7f50ef82c6c,61036c8269b39532e4ff2e37,2021-07-29_23h07.25.878,Simcolourproject_2stim_asymm_v5,2020.2.10,MacIntel,60,61025ae37ef11b136ea224fe,,,,,,,,,2413,64.16424561,33.30545044,1,0,0,response1disk,,6,-5.15423584,1.919799805,1,0,0,rectangle,-5.15423584,1.919799805,1,0,0,-5.15423584,1.919799805,1,0,0,1,9,169,157,1,,,,,,,,
,,,,,,,,,,,,,FF,,,,,,,,1.0334,,,,,,,,,,,,,,,,,,,,,,60fefb130de6f7f50ef82c6c,61036c8269b39532e4ff2e37,2021-07-29_23h07.25.878,Simcolourproject_2stim_asymm_v5,2020.2.10,MacIntel,60,61025ae37ef11b136ea224fe,,,,,,,,,2074,37.16662598,72.68841553,1,0,0,response1disk,,7,5.229980469,5.120178223,1,0,0,rectangle,5.229980469,5.120178223,1,0,0,5.229980469,5.120178223,1,0,0,1,10,170,40,1,,,,,,,,
,,,,,,,,,,,,,FF,,,,,,,,0.8507,,,,,,,,,,,,,,,,,,,,,,60fefb130de6f7f50ef82c6c,61036c8269b39532e4ff2e37,2021-07-29_23h07.25.878,Simcolourproject_2stim_asymm_v5,2020.2.10,MacIntel,60,61025ae37ef11b136ea224fe,,,,,,,,,3163,52.88360596,-42.16595459,1,0,0,response3disk,,5,11.34954834,-10.21820068,1,0,0,rectangle,11.34954834,-10.21820068,1,0,0,11.34954834,-10.21820068,1,0,0,1,11,171,4,1,,,,,,,,
,,,,,,,,,,,,,FF,,,,,,,,1.167,,,,,,,,,,,,,,,,,,,,,,60fefb130de6f7f50ef82c6c,61036c8269b39532e4ff2e37,2021-07-29_23h07.25.878,Simcolourproject_2stim_asymm_v5,2020.2.10,MacIntel,60,61025ae37ef11b136ea224fe,,,,,,,,,1600,26.25402832,-70.26428223,1,0,0,response3disk,,4,4.809020996,-12.43463135,1,0,0,rectangle,4.809020996,-12.43463135,1,0,0,4.809020996,-12.43463135,1,0,0,1,12,172,52,1,,,,,,,,
,,,,,,,,,,,,,FF,,,,,,,,0.7334,,,,,,,,,,,,,,,,,,,,,,60fefb130de6f7f50ef82c6c,61036c8269b39532e4ff2e37,2021-07-29_23h07.25.878,Simcolourproject_2stim_asymm_v5,2020.2.10,MacIntel,60,61025ae37ef11b136ea224fe,,,,,,,,,1265,38.72351074,72.15808105,1,0,0,response1disk,,7,6.795532227,3.092163086,1,0,0,rectangle,6.795532227,3.092163086,1,0,0,6.795532227,3.092163086,1,0,0,1,13,173,35,1,,,,,,,,
,,,,,,,,,,,,,FF,,,,,,,,0.7166,,,,,,,,,,,,,,,,,,,,,,60fefb130de6f7f50ef82c6c,61036c8269b39532e4ff2e37,2021-07-29_23h07.25.878,Simcolourproject_2stim_asymm_v5,2020.2.10,MacIntel,60,61025ae37ef11b136ea224fe,,,,,,,,,865,67.21783447,29.25018311,1,0,0,response1disk,,6,1.75201416,-3.559997559,1,0,0,rectangle,1.75201416,-3.559997559,1,0,0,1.75201416,-3.559997559,1,0,0,1,14,174,43,1,,,,,,,,
,,,,,,,,,,,,,FF,,,,,,,,1.0328,,,,,,,,,,,,,,,,,,,,,,60fefb130de6f7f50ef82c6c,61036c8269b39532e4ff2e37,2021-07-29_23h07.25.878,Simcolourproject_2stim_asymm_v5,2020.2.10,MacIntel,60,61025ae37ef11b136ea224fe,,,,,,,,,1138,-71.52331543,-41.94750977,1,0,0,response5disk,,2,-17.63562012,-10.70181274,1,0,0,rectangle,-17.63562012,-10.70181274,1,0,0,-17.63562012,-10.70181274,1,0,0,1,15,175,110,1,,,,,,,,
,,,,,,,,,,,,,FF,,,,,,,,0.9999,,,,,,,,,,,,,,,,,,,,,,60fefb130de6f7f50ef82c6c,61036c8269b39532e4ff2e37,2021-07-29_23h07.25.878,Simcolourproject_2stim_asymm_v5,2020.2.10,MacIntel,60,61025ae37ef11b136ea224fe,,,,,,,,,1622,89.14910889,46.12341309,1,0,0,response1disk,,6,14.31195068,15.77520752,1,0,0,rectangle,82.93670654,46.18435669,1,0,0,-8.152648926,2.14453125,1,0,0,1,16,176,11,1,,response1disk_3,TRUE,6,6,"[107,307,114,292,90,113,154,237,312,252,177,273,182,97,280,123,222,321,320,189]",1.2659,rectangle
,,,,,,,,,,,,,FF,,,,,,,,1.5661,,,,,,,,,,,,,,,,,,,,,,60fefb130de6f7f50ef82c6c,61036c8269b39532e4ff2e37,2021-07-29_23h07.25.878,Simcolourproject_2stim_asymm_v5,2020.2.10,MacIntel,60,61025ae37ef11b136ea224fe,,,,,,,,,2917,86.17645264,38.68981934,1,0,0,response1disk,,6,5.493652344,8.559936523,1,0,0,rectangle,5.493652344,8.559936523,1,0,0,5.493652344,8.559936523,1,0,0,1,17,177,17,1,,,,,,,,
,,,,,,,,,,,,,FF,,,,,,,,1.801,,,,,,,,,,,,,,,,,,,,,,60fefb130de6f7f50ef82c6c,61036c8269b39532e4ff2e37,2021-07-29_23h07.25.878,Simcolourproject_2stim_asymm_v5,2020.2.10,MacIntel,60,61025ae37ef11b136ea224fe,,,,,,,,,1039,58.69152832,-30.11303711,1,0,0,response3disk,,5,-0.621887207,-4.812835693,1,0,0,rectangle,-0.621887207,-4.812835693,1,0,0,-0.621887207,-4.812835693,1,0,0,1,18,178,142,1,,,,,,,,
,,,,,,,,,,,,,FF,,,,,,,,0.9333,,,,,,,,,,,,,,,,,,,,,,60fefb130de6f7f50ef82c6c,61036c8269b39532e4ff2e37,2021-07-29_23h07.25.878,Simcolourproject_2stim_asymm_v5,2020.2.10,MacIntel,60,61025ae37ef11b136ea224fe,,,,,,,,,3939,-31.515625,-60.90026855,1,0,0,response5disk,,3,-18.53637695,-9.133544922,1,0,0,rectangle,-18.53637695,-9.133544922,1,0,0,-18.53637695,-9.133544922,1,0,0,1,19,179,156,1,,,,,,,,
,,,,,,,,,,,,,FF,,,,,,,,0.8346,,,,,,,,,,,,,,,,,,,,,,60fefb130de6f7f50ef82c6c,61036c8269b39532e4ff2e37,2021-07-29_23h07.25.878,Simcolourproject_2stim_asymm_v5,2020.2.10,MacIntel,60,61025ae37ef11b136ea224fe,,,,,,,,,2676,-21.06188965,-48.84381104,1,0,0,response5disk,,3,-4.378295898,-3.973205566,1,0,0,rectangle,-4.378295898,-3.973205566,1,0,0,-4.378295898,-3.973205566,1,0,0,1,20,180,99,1,,,,,,,,
,,,,,,,,,,,,,FF,,,,,,,,0.9165,,,,,,,,,,,,,,,,,,,,,,60fefb130de6f7f50ef82c6c,61036c8269b39532e4ff2e37,2021-07-29_23h07.25.878,Simcolourproject_2stim_asymm_v5,2020.2.10,MacIntel,60,61025ae37ef11b136ea224fe,,,,,,,,,4361,-42.28057861,76.40859985,1,0,0,response7disk,,0,-7.832763672,12.45855713,1,0,0,rectangle,53.46533203,81.45584106,1,0,0,-6.579589844,-7.88684082,1,0,0,1,21,181,5,1,,response1disk_3,TRUE,7,7,"[107,307,114,292,90,113,154,237,312,252,177,273,182,97,280,123,222,321,320,189]",1.5831,rectangle
,,,,,,,,,,,,,FF,,,,,,,,1.2998,,,,,,,,,,,,,,,,,,,,,,60fefb130de6f7f50ef82c6c,61036c8269b39532e4ff2e37,2021-07-29_23h07.25.878,Simcolourproject_2stim_asymm_v5,2020.2.10,MacIntel,60,61025ae37ef11b136ea224fe,,,,,,,,,1530,-43.96551514,-71.72290039,1,0,0,response5disk,,3,-18.34393311,-4.260253906,1,0,0,rectangle,-18.34393311,-4.260253906,1,0,0,-18.34393311,-4.260253906,1,0,0,1,22,182,159,1,,,,,,,,
,,,,,,,,,,,,,FF,,,,,,,,0.6493,,,,,,,,,,,,,,,,,,,,,,60fefb130de6f7f50ef82c6c,61036c8269b39532e4ff2e37,2021-07-29_23h07.25.878,Simcolourproject_2stim_asymm_v5,2020.2.10,MacIntel,60,61025ae37ef11b136ea224fe,,,,,,,,,1707,50.27960205,75.76473999,1,0,0,response1disk,,7,0.580993652,3.444030762,1,0,0,rectangle,0.580993652,3.444030762,1,0,0,0.580993652,3.444030762,1,0,0,1,23,183,91,1,,,,,,,,
,,,,,,,,,,,,,FF,,,,,,,,0.9839,,,,,,,,,,,,,,,,,,,,,,60fefb130de6f7f50ef82c6c,61036c8269b39532e4ff2e37,2021-07-29_23h07.25.878,Simcolourproject_2stim_asymm_v5,2020.2.10,MacIntel,60,61025ae37ef11b136ea224fe,,,,,,,,,2253,57.43817139,-28.17053223,1,0,0,response3disk,,5,0.724243164,-7.759399414,1,0,0,rectangle,0.724243164,-7.759399414,1,0,0,0.724243164,-7.759399414,1,0,0,1,24,184,53,1,,,,,,,,
,,,,,,,,,,,,,FF,,,,,,,,0.7658,,,,,,,,,,,,,,,,,,,,,,60fefb130de6f7f50ef82c6c,61036c8269b39532e4ff2e37,2021-07-29_23h07.25.878,Simcolourproject_2stim_asymm_v5,2020.2.10,MacIntel,60,61025ae37ef11b136ea224fe,,,,,,,,,3457,25.54394531,94.03607178,1,0,0,response1disk,,7,7.174194336,1.76449585,1,0,0,rectangle,7.174194336,1.76449585,1,0,0,7.174194336,1.76449585,1,0,0,1,25,185,143,1,,,,,,,,
,,,,,,,,,,,,,FF,,,,,,,,1.1666,,,,,,,,,,,,,,,,,,,,,,60fefb130de6f7f50ef82c6c,61036c8269b39532e4ff2e37,2021-07-29_23h07.25.878,Simcolourproject_2stim_asymm_v5,2020.2.10,MacIntel,60,61025ae37ef11b136ea224fe,,,,,,,,,2054,55.48638916,-25.82525635,1,0,0,response3disk,,5,-2.499023438,-8.067169189,1,0,0,rectangle,-2.499023438,-8.067169189,1,0,0,-2.499023438,-8.067169189,1,0,0,1,26,186,131,1,,,,,,,,
,,,,,,,,,,,,,FF,,,,,,,,0.7494,,,,,,,,,,,,,,,,,,,,,,60fefb130de6f7f50ef82c6c,61036c8269b39532e4ff2e37,2021-07-29_23h07.25.878,Simcolourproject_2stim_asymm_v5,2020.2.10,MacIntel,60,61025ae37ef11b136ea224fe,,,,,,,,,476,42.26342773,77.40206909,1,0,0,response1disk,,7,18.71722412,9.777404785,1,0,0,rectangle,18.71722412,9.777404785,1,0,0,18.71722412,9.777404785,1,0,0,1,27,187,44,1,,,,,,,,
,,,,,,,,,,,,,FF,,,,,,,,0.7661,,,,,,,,,,,,,,,,,,,,,,60fefb130de6f7f50ef82c6c,61036c8269b39532e4ff2e37,2021-07-29_23h07.25.878,Simcolourproject_2stim_asymm_v5,2020.2.10,MacIntel,60,61025ae37ef11b136ea224fe,,,,,,,,,1785,67.4901123,50.57192993,1,0,0,response1disk,,6,-12.85015869,1.543640137,1,0,0,rectangle,-29.91949463,82.03405762,1,0,0,-6.197692871,4.119293213,1,0,0,1,28,188,51,1,,response7disk_3,TRUE,0,0,"[107,307,114,292,90,113,154,237,312,252,177,273,182,97,280,123,222,321,320,189]",1.767,rectangle
,,,,,,,,,,,,,FF,,,,,,,,1.1167,,,,,,,,,,,,,,,,,,,,,,60fefb130de6f7f50ef82c6c,61036c8269b39532e4ff2e37,2021-07-29_23h07.25.878,Simcolourproject_2stim_asymm_v5,2020.2.10,MacIntel,60,61025ae37ef11b136ea224fe,,,,,,,,,196,61.1270752,-33.31848145,1,0,0,response3disk,,5,2.002990723,-14.11108398,1,0,0,rectangle,2.002990723,-14.11108398,1,0,0,2.002990723,-14.11108398,1,0,0,1,29,189,112,1,,,,,,,,
,,,,,,,,,,,,,FF,,,,,,,,0.85,,,,,,,,,,,,,,,,,,,,,,60fefb130de6f7f50ef82c6c,61036c8269b39532e4ff2e37,2021-07-29_23h07.25.878,Simcolourproject_2stim_asymm_v5,2020.2.10,MacIntel,60,61025ae37ef11b136ea224fe,,,,,,,,,2189,74.74993896,57.97268677,1,0,0,response1disk,,6,7.641784668,14.45022583,1,0,0,rectangle,7.641784668,14.45022583,1,0,0,7.641784668,14.45022583,1,0,0,1,30,190,101,1,,,,,,,,
,,,,,,,,,,,,,FF,,,,,,,,0.6672,,,,,,,,,,,,,,,,,,,,,,60fefb130de6f7f50ef82c6c,61036c8269b39532e4ff2e37,2021-07-29_23h07.25.878,Simcolourproject_2stim_asymm_v5,2020.2.10,MacIntel,60,61025ae37ef11b136ea224fe,,,,,,,,,654,55.88891602,37.13653564,1,0,0,response1disk,,6,0.000976563,3.475097656,1,0,0,rectangle,0.000976563,3.475097656,1,0,0,0.000976563,3.475097656,1,0,0,1,31,191,49,1,,,,,,,,
,,,,,,,,,,,,,FF,,,,,,,,0.5999,,,,,,,,,,,,,,,,,,,,,,60fefb130de6f7f50ef82c6c,61036c8269b39532e4ff2e37,2021-07-29_23h07.25.878,Simcolourproject_2stim_asymm_v5,2020.2.10,MacIntel,60,61025ae37ef11b136ea224fe,,,,,,,,,1238,57.75286865,36.14868164,1,0,0,response1disk,,6,-0.867126465,5.495788574,1,0,0,rectangle,-0.867126465,5.495788574,1,0,0,-0.867126465,5.495788574,1,0,0,1,32,192,27,1,,,,,,,,
,,,,,,,,,,,,,FF,,,,,,,,0.6334,,,,,,,,,,,,,,,,,,,,,,60fefb130de6f7f50ef82c6c,61036c8269b39532e4ff2e37,2021-07-29_23h07.25.878,Simcolourproject_2stim_asymm_v5,2020.2.10,MacIntel,60,61025ae37ef11b136ea224fe,,,,,,,,,1411,60.91693115,32.99230957,1,0,0,response1disk,,6,-0.244384766,-1.836730957,1,0,0,rectangle,-0.244384766,-1.836730957,1,0,0,-0.244384766,-1.836730957,1,0,0,1,33,193,78,1,,,,,,,,
,,,,,,,,,,,,,FF,,,,,,,,0.6337,,,,,,,,,,,,,,,,,,,,,,60fefb130de6f7f50ef82c6c,61036c8269b39532e4ff2e37,2021-07-29_23h07.25.878,Simcolourproject_2stim_asymm_v5,2020.2.10,MacIntel,60,61025ae37ef11b136ea224fe,,,,,,,,,377,62.41973877,36.69171143,1,0,0,response1disk,,6,7.93182373,0.268890381,1,0,0,rectangle,7.93182373,0.268890381,1,0,0,7.93182373,0.268890381,1,0,0,1,34,194,150,1,,,,,,,,
,,,,,,,,,,,,,FF,,,,,,,,0.6334,,,,,,,,,,,,,,,,,,,,,,60fefb130de6f7f50ef82c6c,61036c8269b39532e4ff2e37,2021-07-29_23h07.25.878,Simcolourproject_2stim_asymm_v5,2020.2.10,MacIntel,60,61025ae37ef11b136ea224fe,,,,,,,,,1802,61.87023926,37.98141479,1,0,0,response1disk,,6,1.951477051,4.486328125,1,0,0,rectangle,1.951477051,4.486328125,1,0,0,1.951477051,4.486328125,1,0,0,1,35,195,126,1,,,,,,,,
,,,,,,,,,,,,,FF,,,,,,,,0.6168,,,,,,,,,,,,,,,,,,,,,,60fefb130de6f7f50ef82c6c,61036c8269b39532e4ff2e37,2021-07-29_23h07.25.878,Simcolourproject_2stim_asymm_v5,2020.2.10,MacIntel,60,61025ae37ef11b136ea224fe,,,,,,,,,48,51.74279785,34.1968689,1,0,0,response1disk,,6,-5.852600098,-3.661743164,1,0,0,rectangle,-5.852600098,-3.661743164,1,0,0,-5.852600098,-3.661743164,1,0,0,1,36,196,118,1,,,,,,,,
,,,,,,,,,,,,,FF,,,,,,,,0.6825,,,,,,,,,,,,,,,,,,,,,,60fefb130de6f7f50ef82c6c,61036c8269b39532e4ff2e37,2021-07-29_23h07.25.878,Simcolourproject_2stim_asymm_v5,2020.2.10,MacIntel,60,61025ae37ef11b136ea224fe,,,,,,,,,288,59.28289795,27.66516113,1,0,0,response1disk,,6,1.78894043,10.22161865,1,0,0,rectangle,1.78894043,10.22161865,1,0,0,1.78894043,10.22161865,1,0,0,1,37,197,75,1,,,,,,,,
,,,,,,,,,,,,,FF,,,,,,,,0.6993,,,,,,,,,,,,,,,,,,,,,,60fefb130de6f7f50ef82c6c,61036c8269b39532e4ff2e37,2021-07-29_23h07.25.878,Simcolourproject_2stim_asymm_v5,2020.2.10,MacIntel,60,61025ae37ef11b136ea224fe,,,,,,,,,136,59.02166748,39.81695557,1,0,0,response1disk,,6,-0.133178711,15.93273926,1,0,0,rectangle,-0.133178711,15.93273926,1,0,0,-0.133178711,15.93273926,1,0,0,1,38,198,149,1,,,,,,,,
,,,,,,,,,,,,,FF,,,,,,,,0.6505,,,,,,,,,,,,,,,,,,,,,,60fefb130de6f7f50ef82c6c,61036c8269b39532e4ff2e37,2021-07-29_23h07.25.878,Simcolourproject_2stim_asymm_v5,2020.2.10,MacIntel,60,61025ae37ef11b136ea224fe,,,,,,,,,326,72.85253906,39.69476318,1,0,0,response1disk,,6,-0.488647461,5.661804199,1,0,0,rectangle,-0.488647461,5.661804199,1,0,0,-0.488647461,5.661804199,1,0,0,1,39,199,47,1,,,,,,,,
,,,,,,,,,,,,,FF,,,,,,,,0.6342,,,,,,,,,,,,,,,,,,,,,,60fefb130de6f7f50ef82c6c,61036c8269b39532e4ff2e37,2021-07-29_23h07.25.878,Simcolourproject_2stim_asymm_v5,2020.2.10,MacIntel,60,61025ae37ef11b136ea224fe,,,,,,,,,1804,56.12335205,42.98809814,1,0,0,response1disk,,6,-4.074584961,10.59545898,1,0,0,rectangle,-4.074584961,10.59545898,1,0,0,-4.074584961,10.59545898,1,0,0,1,40,200,155,1,,,,,,,,
,,,,,,,,,,,,,FF,,,,,,,,1.0003,,,,,,,,,,,,,,,,,,,,,,60fefb130de6f7f50ef82c6c,61036c8269b39532e4ff2e37,2021-07-29_23h07.25.878,Simcolourproject_2stim_asymm_v5,2020.2.10,MacIntel,60,61025ae37ef11b136ea224fe,,,,,,,,,122,69.67456055,40.07250977,1,0,0,response1disk,,6,-13.4609375,-2.9269104,1,0,0,rectangle,-13.4609375,-2.9269104,1,0,0,-13.4609375,-2.9269104,1,0,0,1,41,201,41,1,,,,,,,,
,,,,,,,,,,,,,FF,,,,,,,,1.5346,,,,,,,,,,,,,,,,,,,,,,60fefb130de6f7f50ef82c6c,61036c8269b39532e4ff2e37,2021-07-29_23h07.25.878,Simcolourproject_2stim_asymm_v5,2020.2.10,MacIntel,60,61025ae37ef11b136ea224fe,,,,,,,,,4069,67.00354004,-23.81002808,1,0,0,response3disk,,5,-18.08422852,-15.81851196,1,0,0,rectangle,-18.08422852,-15.81851196,1,0,0,-18.08422852,-15.81851196,1,0,0,1,42,202,98,1,,,,,,,,
,,,,,,,,,,,,,FF,,,,,,,,0.5674,,,,,,,,,,,,,,,,,,,,,,60fefb130de6f7f50ef82c6c,61036c8269b39532e4ff2e37,2021-07-29_23h07.25.878,Simcolourproject_2stim_asymm_v5,2020.2.10,MacIntel,60,61025ae37ef11b136ea224fe,,,,,,,,,311,72.78381348,33.64312744,1,0,0,response1disk,,6,11.22216797,-3.176452637,1,0,0,rectangle,11.22216797,-3.176452637,1,0,0,11.22216797,-3.176452637,1,0,0,1,43,203,114,1,,,,,,,,
,,,,,,,,,,,,,FF,,,,,,,,1.1834,,,,,,,,,,,,,,,,,,,,,,60fefb130de6f7f50ef82c6c,61036c8269b39532e4ff2e37,2021-07-29_23h07.25.878,Simcolourproject_2stim_asymm_v5,2020.2.10,MacIntel,60,61025ae37ef11b136ea224fe,,,,,,,,,3417,35.98071289,-69.9342041,1,0,0,response3disk,,4,23.50628662,-10.67401123,1,0,0,rectangle,23.50628662,-10.67401123,1,0,0,23.50628662,-10.67401123,1,0,0,1,44,204,54,1,,,,,,,,
,,,,,,,,,,,,,FF,,,,,,,,0.733,,,,,,,,,,,,,,,,,,,,,,60fefb130de6f7f50ef82c6c,61036c8269b39532e4ff2e37,2021-07-29_23h07.25.878,Simcolourproject_2stim_asymm_v5,2020.2.10,MacIntel,60,61025ae37ef11b136ea224fe,,,,,,,,,440,-43.57208252,-76.52313232,1,0,0,response5disk,,3,-5.397155762,-0.688476563,1,0,0,rectangle,-5.397155762,-0.688476563,1,0,0,-5.397155762,-0.688476563,1,0,0,1,45,205,128,1,,,,,,,,
,,,,,,,,,,,,,FF,,,,,,,,0.734,,,,,,,,,,,,,,,,,,,,,,60fefb130de6f7f50ef82c6c,61036c8269b39532e4ff2e37,2021-07-29_23h07.25.878,Simcolourproject_2stim_asymm_v5,2020.2.10,MacIntel,60,61025ae37ef11b136ea224fe,,,,,,,,,76,-45.35168457,-60.89703369,1,0,0,response5disk,,3,-9.195678711,-13.21832275,1,0,0,rectangle,-9.195678711,-13.21832275,1,0,0,-9.195678711,-13.21832275,1,0,0,1,46,206,123,1,,,,,,,,
,,,,,,,,,,,,,FF,,,,,,,,0.9838,,,,,,,,,,,,,,,,,,,,,,60fefb130de6f7f50ef82c6c,61036c8269b39532e4ff2e37,2021-07-29_23h07.25.878,Simcolourproject_2stim_asymm_v5,2020.2.10,MacIntel,60,61025ae37ef11b136ea224fe,,,,,,,,,1806,79.66717529,41.92926025,1,0,0,response1disk,,6,-4.051330566,5.974914551,1,0,0,rectangle,-4.051330566,5.974914551,1,0,0,-4.051330566,5.974914551,1,0,0,1,47,207,66,1,,,,,,,,
,,,,,,,,,,,,,FF,,,,,,,,1.1007,,,,,,,,,,,,,,,,,,,,,,60fefb130de6f7f50ef82c6c,61036c8269b39532e4ff2e37,2021-07-29_23h07.25.878,Simcolourproject_2stim_asymm_v5,2020.2.10,MacIntel,60,61025ae37ef11b136ea224fe,,,,,,,,,1142,44.12316895,-48.17425537,1,0,0,response3disk,,4,25.70635986,-5.747894287,1,0,0,rectangle,25.70635986,-5.747894287,1,0,0,25.70635986,-5.747894287,1,0,0,1,48,208,145,1,,,,,,,,
,,,,,,,,,,,,,FF,,,,,,,,1.1662,,,,,,,,,,,,,,,,,,,,,,60fefb130de6f7f50ef82c6c,61036c8269b39532e4ff2e37,2021-07-29_23h07.25.878,Simcolourproject_2stim_asymm_v5,2020.2.10,MacIntel,60,61025ae37ef11b136ea224fe,,,,,,,,,745,83.68664551,-32.80340576,1,0,0,response3disk,,5,16.67364502,-7.809997559,1,0,0,rectangle,16.67364502,-7.809997559,1,0,0,16.67364502,-7.809997559,1,0,0,1,49,209,116,1,,,,,,,,
,,,,,,,,,,,,,FF,,,,,,,,1.0497,,,,,,,,,,,,,,,,,,,,,,60fefb130de6f7f50ef82c6c,61036c8269b39532e4ff2e37,2021-07-29_23h07.25.878,Simcolourproject_2stim_asymm_v5,2020.2.10,MacIntel,60,61025ae37ef11b136ea224fe,,,,,,,,,2362,-31.64923096,-70.44512939,1,0,0,response5disk,,3,-13.52532959,-17.66906738,1,0,0,rectangle,-13.52532959,-17.66906738,1,0,0,-13.52532959,-17.66906738,1,0,0,1,50,210,109,1,,,,,,,,
,,,,,,,,,,,,,FF,,,,,,,,3.2505,,,,,,,,,,,,,,,,,,,,,,60fefb130de6f7f50ef82c6c,61036c8269b39532e4ff2e37,2021-07-29_23h07.25.878,Simcolourproject_2stim_asymm_v5,2020.2.10,MacIntel,60,61025ae37ef11b136ea224fe,,,,,,,,,507,62.09814453,-36.40997314,1,0,0,response3disk,,5,5.340454102,-1.188476563,1,0,0,rectangle,5.340454102,-1.188476563,1,0,0,5.340454102,-1.188476563,1,0,0,1,51,211,24,1,,,,,,,,
,,,,,,,,,,,,,FF,,,,,,,,2.0163,,,,,,,,,,,,,,,,,,,,,,60fefb130de6f7f50ef82c6c,61036c8269b39532e4ff2e37,2021-07-29_23h07.25.878,Simcolourproject_2stim_asymm_v5,2020.2.10,MacIntel,60,61025ae37ef11b136ea224fe,,,,,,,,,2122,63.28063965,-32.22186279,1,0,0,response3disk,,5,10.44726563,-3.587127686,1,0,0,rectangle,10.44726563,-3.587127686,1,0,0,10.44726563,-3.587127686,1,0,0,1,52,212,59,1,,,,,,,,
,,,,,,,,,,,,,FF,,,,,,,,0.7671,,,,,,,,,,,,,,,,,,,,,,60fefb130de6f7f50ef82c6c,61036c8269b39532e4ff2e37,2021-07-29_23h07.25.878,Simcolourproject_2stim_asymm_v5,2020.2.10,MacIntel,60,61025ae37ef11b136ea224fe,,,,,,,,,3599,26.27502441,-54.5993042,1,0,0,response3disk,,4,-4.476318359,-6.545776367,1,0,0,rectangle,-4.476318359,-6.545776367,1,0,0,-4.476318359,-6.545776367,1,0,0,1,53,213,63,1,,,,,,,,
,,,,,,,,,,,,,FF,,,,,,,,0.7669,,,,,,,,,,,,,,,,,,,,,,60fefb130de6f7f50ef82c6c,61036c8269b39532e4ff2e37,2021-07-29_23h07.25.878,Simcolourproject_2stim_asymm_v5,2020.2.10,MacIntel,60,61025ae37ef11b136ea224fe,,,,,,,,,3296,-31.40997314,-56.08395386,1,0,0,response5disk,,3,-5.970581055,3.178771973,1,0,0,rectangle,-5.970581055,3.178771973,1,0,0,-5.970581055,3.178771973,1,0,0,1,54,214,65,1,,,,,,,,
,,,,,,,,,,,,,FF,,,,,,,,1.2169,,,,,,,,,,,,,,,,,,,,,,60fefb130de6f7f50ef82c6c,61036c8269b39532e4ff2e37,2021-07-29_23h07.25.878,Simcolourproject_2stim_asymm_v5,2020.2.10,MacIntel,60,61025ae37ef11b136ea224fe,,,,,,,,,898,77.11077881,45.43310547,1,0,0,response1disk,,6,0.34967041,14.15087891,1,0,0,rectangle,0.34967041,14.15087891,1,0,0,0.34967041,14.15087891,1,0,0,1,55,215,7,1,,,,,,,,
,,,,,,,,,,,,,FF,,,,,,,,0.6346,,,,,,,,,,,,,,,,,,,,,,60fefb130de6f7f50ef82c6c,61036c8269b39532e4ff2e37,2021-07-29_23h07.25.878,Simcolourproject_2stim_asymm_v5,2020.2.10,MacIntel,60,61025ae37ef11b136ea224fe,,,,,,,,,3585,-41.6831665,-60.32104492,1,0,0,response5disk,,3,-2.833984375,-6.44342041,1,0,0,rectangle,-2.833984375,-6.44342041,1,0,0,-2.833984375,-6.44342041,1,0,0,1,56,216,36,1,,,,,,,,
,,,,,,,,,,,,,FF,,,,,,,,0.6833,,,,,,,,,,,,,,,,,,,,,,60fefb130de6f7f50ef82c6c,61036c8269b39532e4ff2e37,2021-07-29_23h07.25.878,Simcolourproject_2stim_asymm_v5,2020.2.10,MacIntel,60,61025ae37ef11b136ea224fe,,,,,,,,,2114,66.82043457,38.75067139,1,0,0,response1disk,,6,12.4755249,8.146118164,1,0,0,rectangle,12.4755249,8.146118164,1,0,0,12.4755249,8.146118164,1,0,0,1,57,217,154,1,,,,,,,,
,,,,,,,,,,,,,FF,,,,,,,,0.9331,,,,,,,,,,,,,,,,,,,,,,60fefb130de6f7f50ef82c6c,61036c8269b39532e4ff2e37,2021-07-29_23h07.25.878,Simcolourproject_2stim_asymm_v5,2020.2.10,MacIntel,60,61025ae37ef11b136ea224fe,,,,,,,,,1623,65.99536133,-31.34735107,1,0,0,response3disk,,5,0.088195801,-5.190856934,1,0,0,rectangle,0.088195801,-5.190856934,1,0,0,0.088195801,-5.190856934,1,0,0,1,58,218,20,1,,,,,,,,
,,,,,,,,,,,,,FF,,,,,,,,0.9161,,,,,,,,,,,,,,,,,,,,,,60fefb130de6f7f50ef82c6c,61036c8269b39532e4ff2e37,2021-07-29_23h07.25.878,Simcolourproject_2stim_asymm_v5,2020.2.10,MacIntel,60,61025ae37ef11b136ea224fe,,,,,,,,,2584,88.6159668,38.67529297,1,0,0,response1disk,,6,0.204467773,7.521118164,1,0,0,rectangle,0.204467773,7.521118164,1,0,0,0.204467773,7.521118164,1,0,0,1,59,219,104,1,,,,,,,,
,,,,,,,,,,,,,FF,,,,,,,,0.6823,,,,,,,,,,,,,,,,,,,,,,60fefb130de6f7f50ef82c6c,61036c8269b39532e4ff2e37,2021-07-29_23h07.25.878,Simcolourproject_2stim_asymm_v5,2020.2.10,MacIntel,60,61025ae37ef11b136ea224fe,,,,,,,,,3307,63.45880127,34.66485596,1,0,0,response1disk,,6,-8.25958252,5.287780762,1,0,0,rectangle,-8.25958252,5.287780762,1,0,0,-8.25958252,5.287780762,1,0,0,1,60,220,12,1,,,,,,,,
,,,,,,,,,,,,,FF,,,,,,,,0.6341,,,,,,,,,,,,,,,,,,,,,,60fefb130de6f7f50ef82c6c,61036c8269b39532e4ff2e37,2021-07-29_23h07.25.878,Simcolourproject_2stim_asymm_v5,2020.2.10,MacIntel,60,61025ae37ef11b136ea224fe,,,,,,,,,1984,72.76000977,37.55047607,1,0,0,response1disk,,6,17.38769531,14.25164795,1,0,0,rectangle,-59.74285889,42.16629028,1,0,0,-13.78448486,14.17272949,1,0,0,1,61,221,18,1,,response7disk_3,TRUE,1,1,"[107,307,114,292,90,113,154,237,312,252,177,273,182,97,280,123,222,321,320,189]",1.3336,rectangle
,,,,,,,,,,,,,FF,,,,,,,,0.8167,,,,,,,,,,,,,,,,,,,,,,60fefb130de6f7f50ef82c6c,61036c8269b39532e4ff2e37,2021-07-29_23h07.25.878,Simcolourproject_2stim_asymm_v5,2020.2.10,MacIntel,60,61025ae37ef11b136ea224fe,,,,,,,,,2719,-71.81903076,33.52893066,1,0,0,response7disk,,1,-4.694519043,7.565368652,1,0,0,rectangle,-4.694519043,7.565368652,1,0,0,-4.694519043,7.565368652,1,0,0,1,62,222,94,1,,,,,,,,
,,,,,,,,,,,,,FF,,,,,,,,0.8174,,,,,,,,,,,,,,,,,,,,,,60fefb130de6f7f50ef82c6c,61036c8269b39532e4ff2e37,2021-07-29_23h07.25.878,Simcolourproject_2stim_asymm_v5,2020.2.10,MacIntel,60,61025ae37ef11b136ea224fe,,,,,,,,,1099,41.63897705,83.08432007,1,0,0,response1disk,,7,-4.325378418,16.04412842,1,0,0,rectangle,-4.325378418,16.04412842,1,0,0,-4.325378418,16.04412842,1,0,0,1,63,223,28,1,,,,,,,,
,,,,,,,,,,,,,FF,,,,,,,,0.7334,,,,,,,,,,,,,,,,,,,,,,60fefb130de6f7f50ef82c6c,61036c8269b39532e4ff2e37,2021-07-29_23h07.25.878,Simcolourproject_2stim_asymm_v5,2020.2.10,MacIntel,60,61025ae37ef11b136ea224fe,,,,,,,,,1304,75.55987549,27.0736084,1,0,0,response1disk,,6,2.077514648,1.192657471,1,0,0,rectangle,2.077514648,1.192657471,1,0,0,2.077514648,1.192657471,1,0,0,1,64,224,132,1,,,,,,,,
,,,,,,,,,,,,,FF,,,,,,,,1.5342,,,,,,,,,,,,,,,,,,,,,,60fefb130de6f7f50ef82c6c,61036c8269b39532e4ff2e37,2021-07-29_23h07.25.878,Simcolourproject_2stim_asymm_v5,2020.2.10,MacIntel,60,61025ae37ef11b136ea224fe,,,,,,,,,415,75.12597656,35.35031128,1,0,0,response1disk,,6,-14.04284668,3.826446533,1,0,0,rectangle,-14.04284668,3.826446533,1,0,0,-14.04284668,3.826446533,1,0,0,1,65,225,67,1,,,,,,,,
,,,,,,,,,,,,,FF,,,,,,,,0.6994,,,,,,,,,,,,,,,,,,,,,,60fefb130de6f7f50ef82c6c,61036c8269b39532e4ff2e37,2021-07-29_23h07.25.878,Simcolourproject_2stim_asymm_v5,2020.2.10,MacIntel,60,61025ae37ef11b136ea224fe,,,,,,,,,68,62.2232666,-30.24511719,1,0,0,response3disk,,5,3.819091797,5.237426758,1,0,0,rectangle,3.819091797,5.237426758,1,0,0,3.819091797,5.237426758,1,0,0,1,66,226,3,1,,,,,,,,
,,,,,,,,,,,,,FF,,,,,,,,0.6835,,,,,,,,,,,,,,,,,,,,,,60fefb130de6f7f50ef82c6c,61036c8269b39532e4ff2e37,2021-07-29_23h07.25.878,Simcolourproject_2stim_asymm_v5,2020.2.10,MacIntel,60,61025ae37ef11b136ea224fe,,,,,,,,,1758,28.07165527,-66.73083496,1,0,0,response3disk,,4,11.28045654,9.66986084,1,0,0,rectangle,11.28045654,9.66986084,1,0,0,11.28045654,9.66986084,1,0,0,1,67,227,124,1,,,,,,,,
,,,,,,,,,,,,,FF,,,,,,,,0.8833,,,,,,,,,,,,,,,,,,,,,,60fefb130de6f7f50ef82c6c,61036c8269b39532e4ff2e37,2021-07-29_23h07.25.878,Simcolourproject_2stim_asymm_v5,2020.2.10,MacIntel,60,61025ae37ef11b136ea224fe,,,,,,,,,2034,-35.28692627,-62.18286133,1,0,0,response5disk,,3,-8.38104248,-3.944030762,1,0,0,rectangle,-8.38104248,-3.944030762,1,0,0,-8.38104248,-3.944030762,1,0,0,1,68,228,84,1,,,,,,,,
,,,,,,,,,,,,,FF,,,,,,,,0.8668,,,,,,,,,,,,,,,,,,,,,,60fefb130de6f7f50ef82c6c,61036c8269b39532e4ff2e37,2021-07-29_23h07.25.878,Simcolourproject_2stim_asymm_v5,2020.2.10,MacIntel,60,61025ae37ef11b136ea224fe,,,,,,,,,3345,66.60241699,47.22662354,1,0,0,response1disk,,6,-1.209350586,-1.938293457,1,0,0,rectangle,-1.209350586,-1.938293457,1,0,0,-1.209350586,-1.938293457,1,0,0,1,69,229,72,1,,,,,,,,
,,,,,,,,,,,,,FF,,,,,,,,0.7169,,,,,,,,,,,,,,,,,,,,,,60fefb130de6f7f50ef82c6c,61036c8269b39532e4ff2e37,2021-07-29_23h07.25.878,Simcolourproject_2stim_asymm_v5,2020.2.10,MacIntel,60,61025ae37ef11b136ea224fe,,,,,,,,,838,59.33410645,30.51263428,1,0,0,response1disk,,6,6.547973633,-2.238586426,1,0,0,rectangle,6.547973633,-2.238586426,1,0,0,6.547973633,-2.238586426,1,0,0,1,70,230,140,1,,,,,,,,
,,,,,,,,,,,,,FF,,,,,,,,0.5994,,,,,,,,,,,,,,,,,,,,,,60fefb130de6f7f50ef82c6c,61036c8269b39532e4ff2e37,2021-07-29_23h07.25.878,Simcolourproject_2stim_asymm_v5,2020.2.10,MacIntel,60,61025ae37ef11b136ea224fe,,,,,,,,,2914,58.90258789,41.97540283,1,0,0,response1disk,,6,-0.726623535,4.218994141,1,0,0,rectangle,-0.726623535,4.218994141,1,0,0,-0.726623535,4.218994141,1,0,0,1,71,231,85,1,,,,,,,,
,,,,,,,,,,,,,FF,,,,,,,,0.6503,,,,,,,,,,,,,,,,,,,,,,60fefb130de6f7f50ef82c6c,61036c8269b39532e4ff2e37,2021-07-29_23h07.25.878,Simcolourproject_2stim_asymm_v5,2020.2.10,MacIntel,60,61025ae37ef11b136ea224fe,,,,,,,,,475,45.49542236,27.05523682,1,0,0,response1disk,,6,-1.475402832,6.510528564,1,0,0,rectangle,-1.475402832,6.510528564,1,0,0,-1.475402832,6.510528564,1,0,0,1,72,232,92,1,,,,,,,,
,,,,,,,,,,,,,FF,,,,,,,,1.2017,,,,,,,,,,,,,,,,,,,,,,60fefb130de6f7f50ef82c6c,61036c8269b39532e4ff2e37,2021-07-29_23h07.25.878,Simcolourproject_2stim_asymm_v5,2020.2.10,MacIntel,60,61025ae37ef11b136ea224fe,,,,,,,,,3637,32.67181396,-50.12249756,1,0,0,response3disk,,4,16.59399414,-11.54559326,1,0,0,rectangle,16.59399414,-11.54559326,1,0,0,16.59399414,-11.54559326,1,0,0,1,73,233,139,1,,,,,,,,
,,,,,,,,,,,,,FF,,,,,,,,1.334,,,,,,,,,,,,,,,,,,,,,,60fefb130de6f7f50ef82c6c,61036c8269b39532e4ff2e37,2021-07-29_23h07.25.878,Simcolourproject_2stim_asymm_v5,2020.2.10,MacIntel,60,61025ae37ef11b136ea224fe,,,,,,,,,1463,68.07836914,-28.15484619,1,0,0,response3disk,,5,5.523132324,-10.690979,1,0,0,rectangle,5.523132324,-10.690979,1,0,0,5.523132324,-10.690979,1,0,0,1,74,234,135,1,,,,,,,,
,,,,,,,,,,,,,FF,,,,,,,,0.9838,,,,,,,,,,,,,,,,,,,,,,60fefb130de6f7f50ef82c6c,61036c8269b39532e4ff2e37,2021-07-29_23h07.25.878,Simcolourproject_2stim_asymm_v5,2020.2.10,MacIntel,60,61025ae37ef11b136ea224fe,,,,,,,,,1567,61.43603516,39.82165527,1,0,0,response1disk,,6,8.645751953,12.37695313,1,0,0,rectangle,8.645751953,12.37695313,1,0,0,8.645751953,12.37695313,1,0,0,1,75,235,86,1,,,,,,,,
,,,,,,,,,,,,,FF,,,,,,,,0.8666,,,,,,,,,,,,,,,,,,,,,,60fefb130de6f7f50ef82c6c,61036c8269b39532e4ff2e37,2021-07-29_23h07.25.878,Simcolourproject_2stim_asymm_v5,2020.2.10,MacIntel,60,61025ae37ef11b136ea224fe,,,,,,,,,2158,44.6005249,86.59490967,1,0,0,response1disk,,7,7.758178711,2.036804199,1,0,0,rectangle,33.68011475,81.17205811,1,0,0,-1.194458008,-8.179626465,1,0,0,1,76,236,15,1,,response1disk_3,TRUE,7,7,"[107,307,114,292,90,113,154,237,312,252,177,273,182,97,280,123,222,321,320,189]",1.5173,rectangle
,,,,,,,,,,,,,FF,,,,,,,,1.4491,,,,,,,,,,,,,,,,,,,,,,60fefb130de6f7f50ef82c6c,61036c8269b39532e4ff2e37,2021-07-29_23h07.25.878,Simcolourproject_2stim_asymm_v5,2020.2.10,MacIntel,60,61025ae37ef11b136ea224fe,,,,,,,,,4268,25.71002197,-76.40570068,1,0,0,response3disk,,4,19.59814453,11.02636719,1,0,0,rectangle,19.59814453,11.02636719,1,0,0,19.59814453,11.02636719,1,0,0,1,77,237,151,1,,,,,,,,
,,,,,,,,,,,,,FF,,,,,,,,0.8839,,,,,,,,,,,,,,,,,,,,,,60fefb130de6f7f50ef82c6c,61036c8269b39532e4ff2e37,2021-07-29_23h07.25.878,Simcolourproject_2stim_asymm_v5,2020.2.10,MacIntel,60,61025ae37ef11b136ea224fe,,,,,,,,,1761,53.41741943,-31.46859741,1,0,0,response3disk,,5,1.34753418,-10.30355835,1,0,0,rectangle,1.34753418,-10.30355835,1,0,0,1.34753418,-10.30355835,1,0,0,1,78,238,106,1,,,,,,,,
,,,,,,,,,,,,,FF,,,,,,,,0.818,,,,,,,,,,,,,,,,,,,,,,60fefb130de6f7f50ef82c6c,61036c8269b39532e4ff2e37,2021-07-29_23h07.25.878,Simcolourproject_2stim_asymm_v5,2020.2.10,MacIntel,60,61025ae37ef11b136ea224fe,,,,,,,,,1227,54.89581299,-29.10681152,1,0,0,response3disk,,5,3.073364258,-1.572875977,1,0,0,rectangle,3.073364258,-1.572875977,1,0,0,3.073364258,-1.572875977,1,0,0,1,79,239,9,1,,,,,,,,
,,,,,,,,,,,,,FF,,,,,,,,0.9495,,,,,,,,,,,,,,,,,,,,,,60fefb130de6f7f50ef82c6c,61036c8269b39532e4ff2e37,2021-07-29_23h07.25.878,Simcolourproject_2stim_asymm_v5,2020.2.10,MacIntel,60,61025ae37ef11b136ea224fe,,,,,,,,,3911,55.93884277,-22.80841064,1,0,0,response3disk,,5,8.269348145,-13.13684082,1,0,0,rectangle,8.269348145,-13.13684082,1,0,0,8.269348145,-13.13684082,1,0,0,1,80,240,117,1,,,,,,,,
,,,,,,,,,,,,,FF,,,,,,,,0.7992,,,,,,,,,,,,,,,,,,,,,,60fefb130de6f7f50ef82c6c,61036c8269b39532e4ff2e37,2021-07-29_23h07.25.878,Simcolourproject_2stim_asymm_v5,2020.2.10,MacIntel,60,61025ae37ef11b136ea224fe,,,,,,,,,3644,28.67218018,-52.1055603,1,0,0,response3disk,,4,-0.755249023,0.384918213,1,0,0,rectangle,-0.755249023,0.384918213,1,0,0,-0.755249023,0.384918213,1,0,0,1,81,241,79,1,,,,,,,,
