key_resp.keys,key_resp.rt,key_resp_14.keys,key_resp_14.rt,key_resp_15.keys,key_resp_15.rt,key_resp_17.keys,key_resp_17.rt,key_resp_9.keys,key_resp_9.rt,key_resp_10.keys,key_resp_10.rt,practice_comparison,Ecc,mouse_5.x,mouse_5.y,mouse_5.leftButton,mouse_5.midButton,mouse_5.rightButton,mouse_5.clicked_name,pracsimilarity,response_time,mouse_10.x,mouse_10.y,mouse_10.leftButton,mouse_10.midButton,mouse_10.rightButton,mouse_10.clicked_name,mouse_7.x,mouse_7.y,mouse_7.leftButton,mouse_7.midButton,mouse_7.rightButton,mouse_6.x,mouse_6.y,mouse_6.leftButton,mouse_6.midButton,mouse_6.rightButton,duringprac.thisRepN,duringprac.thisTrialN,duringprac.thisN,duringprac.thisIndex,duringprac.ran,participant,session,date,expName,psychopyVersion,OS,frameRate,study_id,mouse_7.clicked_name,catchpracsimilarity,catch_response_time,catchnumberprac,catchtrialorderprac,mouse_6.clicked_name,key_resp_22.keys,key_resp_22.rt,realcomparison,mouse.x,mouse.y,mouse.leftButton,mouse.midButton,mouse.rightButton,mouse.clicked_name,Colour2,similarity,mouse_2.x,mouse_2.y,mouse_2.leftButton,mouse_2.midButton,mouse_2.rightButton,mouse_2.clicked_name,mouse_3.x,mouse_3.y,mouse_3.leftButton,mouse_3.midButton,mouse_3.rightButton,mouse_11.x,mouse_11.y,mouse_11.leftButton,mouse_11.midButton,mouse_11.rightButton,trials_2.thisRepN,trials_2.thisTrialN,trials_2.thisN,trials_2.thisIndex,trials_2.ran,Colour1,mouse_3.clicked_name,catchornah,catchsimilarity,catchnumber,catchtrialorder,catchRT,mouse_11.clicked_name
space,1.5926,space,10.3461,space,36.6068,space,9.696,space,1.5181,space,5.4146,97,PF,-95.42657471,-25.91671753,1,0,0,response5disk_5,2,6.7932,0.821411133,-2.423553467,1,0,0,rectangle_8,0.821411133,-2.423553467,1,0,0,0.821411133,-2.423553467,1,0,0,0,0,0,2,1,60ff41357ba0444d4858f86e,61036a078d4ce36d1951f685,2021-07-29_22h55.45.207,Simcolourproject_2stim_asymm_v5,2020.2.10,Linux x86_64,60,61025ae37ef11b136ea224fe,,,,,,,,,,,,,,,,,,,,,,,,,,,,,,,,,,,,,,,,,,,,,,
,,,,,,,,,,,,67,FF,47.79144287,70.20336914,1,0,0,response1disk_5,7,6.0378,5.90814209,4.436340332,1,0,0,rectangle_8,-58.48773193,-105.4403992,1,0,0,-12.93762207,11.41030884,1,0,0,0,1,1,5,1,60ff41357ba0444d4858f86e,61036a078d4ce36d1951f685,2021-07-29_22h55.45.207,Simcolourproject_2stim_asymm_v5,2020.2.10,Linux x86_64,60,61025ae37ef11b136ea224fe,response5disk_7,3,3.7929,3,"[2,5]",rectangle_4,,,,,,,,,,,,,,,,,,,,,,,,,,,,,,,,,,,,,,,,
,,,,,,,,,,,,70,PF,30.4630127,44.55331421,1,0,0,response1disk_5,7,3.134,-6.318603516,-6.979400635,1,0,0,rectangle_8,-6.318603516,-6.979400635,1,0,0,-6.318603516,-6.979400635,1,0,0,0,2,2,1,1,60ff41357ba0444d4858f86e,61036a078d4ce36d1951f685,2021-07-29_22h55.45.207,Simcolourproject_2stim_asymm_v5,2020.2.10,Linux x86_64,60,61025ae37ef11b136ea224fe,,,,,,,,,,,,,,,,,,,,,,,,,,,,,,,,,,,,,,,,,,,,,,
,,,,,,,,,,,,8,FF,24.64630127,36.34277344,1,0,0,response1disk_5,7,2.9527,5.465270996,0.695159912,1,0,0,rectangle_8,5.465270996,0.695159912,1,0,0,5.465270996,0.695159912,1,0,0,0,3,3,0,1,60ff41357ba0444d4858f86e,61036a078d4ce36d1951f685,2021-07-29_22h55.45.207,Simcolourproject_2stim_asymm_v5,2020.2.10,Linux x86_64,60,61025ae37ef11b136ea224fe,,,,,,,,,,,,,,,,,,,,,,,,,,,,,,,,,,,,,,,,,,,,,,
,,,,,,,,,,,,140,PF,-106.1988525,-75.31610107,1,0,0,response5disk_5,2,1.9559,-7.04510498,1.653442383,1,0,0,rectangle_8,-25.79467773,-91.19317627,1,0,0,-0.06463623,6.361572266,1,0,0,0,4,4,4,1,60ff41357ba0444d4858f86e,61036a078d4ce36d1951f685,2021-07-29_22h55.45.207,Simcolourproject_2stim_asymm_v5,2020.2.10,Linux x86_64,60,61025ae37ef11b136ea224fe,response5disk_7,3,2.3014,3,"[2,5]",rectangle_4,,,,,,,,,,,,,,,,,,,,,,,,,,,,,,,,,,,,,,,,
,,,,,,,,,,,,64,PF,57.33135986,-29.48703003,1,0,0,response3disk_5,5,2.0221,-0.577209473,-11.16333008,1,0,0,rectangle_8,-0.577209473,-11.16333008,1,0,0,-0.577209473,-11.16333008,1,0,0,0,5,5,6,1,60ff41357ba0444d4858f86e,61036a078d4ce36d1951f685,2021-07-29_22h55.45.207,Simcolourproject_2stim_asymm_v5,2020.2.10,Linux x86_64,60,61025ae37ef11b136ea224fe,,,,,,,,,,,,,,,,,,,,,,,,,,,,,,,,,,,,,,,,,,,,,,
,,,,,,,,,,,,114,FF,58.44915771,18.48577881,1,0,0,response1disk_5,6,2.8948,-8.03717041,-6.088592529,1,0,0,rectangle_8,-8.03717041,-6.088592529,1,0,0,-8.03717041,-6.088592529,1,0,0,0,6,6,3,1,60ff41357ba0444d4858f86e,61036a078d4ce36d1951f685,2021-07-29_22h55.45.207,Simcolourproject_2stim_asymm_v5,2020.2.10,Linux x86_64,60,61025ae37ef11b136ea224fe,,,,,,,,,,,,,,,,,,,,,,,,,,,,,,,,,,,,,,,,,,,,,,
,,,,,,,,,,,,,FF,,,,,,,,1.7669,,,,,,,,,,,,,,,,,,,,,,60ff41357ba0444d4858f86e,61036a078d4ce36d1951f685,2021-07-29_22h55.45.207,Simcolourproject_2stim_asymm_v5,2020.2.10,Linux x86_64,60,61025ae37ef11b136ea224fe,,,,,,,space,3.6671,3918,24.49414063,-89.03790283,1,0,0,response3disk,,4,-11.21380615,-0.761535645,1,0,0,rectangle,-11.21380615,-0.761535645,1,0,0,-11.21380615,-0.761535645,1,0,0,0,0,0,2,1,,,,,,,,
,,,,,,,,,,,,,FF,,,,,,,,1.9175,,,,,,,,,,,,,,,,,,,,,,60ff41357ba0444d4858f86e,61036a078d4ce36d1951f685,2021-07-29_22h55.45.207,Simcolourproject_2stim_asymm_v5,2020.2.10,Linux x86_64,60,61025ae37ef11b136ea224fe,,,,,,,,,3248,18.94573975,-66.48721313,1,0,0,response3disk,,4,-13.97723389,-10.89639282,1,0,0,rectangle,-13.97723389,-10.89639282,1,0,0,-13.97723389,-10.89639282,1,0,0,0,1,1,108,1,,,,,,,,
,,,,,,,,,,,,,FF,,,,,,,,1.9756,,,,,,,,,,,,,,,,,,,,,,60ff41357ba0444d4858f86e,61036a078d4ce36d1951f685,2021-07-29_22h55.45.207,Simcolourproject_2stim_asymm_v5,2020.2.10,Linux x86_64,60,61025ae37ef11b136ea224fe,,,,,,,,,529,31.82391357,-72.82727051,1,0,0,response3disk,,4,-17.17565918,-0.263885498,1,0,0,rectangle,-17.17565918,-0.263885498,1,0,0,-17.17565918,-0.263885498,1,0,0,0,2,2,79,1,,,,,,,,
,,,,,,,,,,,,,FF,,,,,,,,1.5722,,,,,,,,,,,,,,,,,,,,,,60ff41357ba0444d4858f86e,61036a078d4ce36d1951f685,2021-07-29_22h55.45.207,Simcolourproject_2stim_asymm_v5,2020.2.10,Linux x86_64,60,61025ae37ef11b136ea224fe,,,,,,,,,4327,-86.49169922,-25.76376343,1,0,0,response5disk,,2,-29.28161621,-4.250152588,1,0,0,rectangle,-29.28161621,-4.250152588,1,0,0,-29.28161621,-4.250152588,1,0,0,0,3,3,51,1,,,,,,,,
,,,,,,,,,,,,,FF,,,,,,,,1.4532,,,,,,,,,,,,,,,,,,,,,,60ff41357ba0444d4858f86e,61036a078d4ce36d1951f685,2021-07-29_22h55.45.207,Simcolourproject_2stim_asymm_v5,2020.2.10,Linux x86_64,60,61025ae37ef11b136ea224fe,,,,,,,,,1063,36.69689941,-60.01144409,1,0,0,response3disk,,4,-6.199768066,-9.585632324,1,0,0,rectangle,-6.199768066,-9.585632324,1,0,0,-6.199768066,-9.585632324,1,0,0,0,4,4,82,1,,,,,,,,
,,,,,,,,,,,,,FF,,,,,,,,1.8357,,,,,,,,,,,,,,,,,,,,,,60ff41357ba0444d4858f86e,61036a078d4ce36d1951f685,2021-07-29_22h55.45.207,Simcolourproject_2stim_asymm_v5,2020.2.10,Linux x86_64,60,61025ae37ef11b136ea224fe,,,,,,,,,3208,78.95666504,-39.10263062,1,0,0,response3disk,,5,11.99804688,-7.060272217,1,0,0,rectangle,11.99804688,-7.060272217,1,0,0,11.99804688,-7.060272217,1,0,0,0,5,5,53,1,,,,,,,,
,,,,,,,,,,,,,FF,,,,,,,,1.7977,,,,,,,,,,,,,,,,,,,,,,60ff41357ba0444d4858f86e,61036a078d4ce36d1951f685,2021-07-29_22h55.45.207,Simcolourproject_2stim_asymm_v5,2020.2.10,Linux x86_64,60,61025ae37ef11b136ea224fe,,,,,,,,,413,64.66119385,32.49029541,1,0,0,response1disk,,6,17.97631836,-8.974090576,1,0,0,rectangle,17.97631836,-8.974090576,1,0,0,17.97631836,-8.974090576,1,0,0,0,6,6,73,1,,,,,,,,
,,,,,,,,,,,,,FF,,,,,,,,1.6141,,,,,,,,,,,,,,,,,,,,,,60ff41357ba0444d4858f86e,61036a078d4ce36d1951f685,2021-07-29_22h55.45.207,Simcolourproject_2stim_asymm_v5,2020.2.10,Linux x86_64,60,61025ae37ef11b136ea224fe,,,,,,,,,564,42.92163086,-23.43414307,1,0,0,response3disk,,5,-14.60455322,-2.405517578,1,0,0,rectangle,-14.60455322,-2.405517578,1,0,0,-14.60455322,-2.405517578,1,0,0,0,7,7,74,1,,,,,,,,
,,,,,,,,,,,,,FF,,,,,,,,1.6645,,,,,,,,,,,,,,,,,,,,,,60ff41357ba0444d4858f86e,61036a078d4ce36d1951f685,2021-07-29_22h55.45.207,Simcolourproject_2stim_asymm_v5,2020.2.10,Linux x86_64,60,61025ae37ef11b136ea224fe,,,,,,,,,837,60.55938721,74.15023804,1,0,0,response1disk,,7,-6.922119141,-4.734771729,1,0,0,rectangle,-6.922119141,-4.734771729,1,0,0,-6.922119141,-4.734771729,1,0,0,0,8,8,81,1,,,,,,,,
,,,,,,,,,,,,,FF,,,,,,,,1.1026,,,,,,,,,,,,,,,,,,,,,,60ff41357ba0444d4858f86e,61036a078d4ce36d1951f685,2021-07-29_22h55.45.207,Simcolourproject_2stim_asymm_v5,2020.2.10,Linux x86_64,60,61025ae37ef11b136ea224fe,,,,,,,,,4138,16.84686279,28.06777954,1,0,0,response1disk,,7,6.654541016,-8.278320313,1,0,0,rectangle,6.654541016,-8.278320313,1,0,0,6.654541016,-8.278320313,1,0,0,0,9,9,14,1,,,,,,,,
,,,,,,,,,,,,,FF,,,,,,,,3.746,,,,,,,,,,,,,,,,,,,,,,60ff41357ba0444d4858f86e,61036a078d4ce36d1951f685,2021-07-29_22h55.45.207,Simcolourproject_2stim_asymm_v5,2020.2.10,Linux x86_64,60,61025ae37ef11b136ea224fe,,,,,,,,,2876,20.49560547,43.46664429,1,0,0,response1disk,,7,-6.623352051,4.444366455,1,0,0,rectangle,-6.623352051,4.444366455,1,0,0,-6.623352051,4.444366455,1,0,0,0,10,10,90,1,,,,,,,,
,,,,,,,,,,,,,FF,,,,,,,,0.9552,,,,,,,,,,,,,,,,,,,,,,60ff41357ba0444d4858f86e,61036a078d4ce36d1951f685,2021-07-29_22h55.45.207,Simcolourproject_2stim_asymm_v5,2020.2.10,Linux x86_64,60,61025ae37ef11b136ea224fe,,,,,,,,,3741,-33.41271973,45.96426392,1,0,0,response7disk,,0,-17.22570801,-0.933868408,1,0,0,rectangle,-17.22570801,-0.933868408,1,0,0,-17.22570801,-0.933868408,1,0,0,0,11,11,118,1,,,,,,,,
,,,,,,,,,,,,,FF,,,,,,,,1.0797,,,,,,,,,,,,,,,,,,,,,,60ff41357ba0444d4858f86e,61036a078d4ce36d1951f685,2021-07-29_22h55.45.207,Simcolourproject_2stim_asymm_v5,2020.2.10,Linux x86_64,60,61025ae37ef11b136ea224fe,,,,,,,,,3271,121.0068359,47.59979248,1,0,0,response1disk,,6,-16.3762207,0.246002197,1,0,0,rectangle,-16.3762207,0.246002197,1,0,0,-16.3762207,0.246002197,1,0,0,0,12,12,123,1,,,,,,,,
,,,,,,,,,,,,,FF,,,,,,,,3.2213,,,,,,,,,,,,,,,,,,,,,,60ff41357ba0444d4858f86e,61036a078d4ce36d1951f685,2021-07-29_22h55.45.207,Simcolourproject_2stim_asymm_v5,2020.2.10,Linux x86_64,60,61025ae37ef11b136ea224fe,,,,,,,,,822,47.17346191,26.9480896,1,0,0,response1disk,,6,-12.16290283,-1.989196777,1,0,0,rectangle,-12.16290283,-1.989196777,1,0,0,-12.16290283,-1.989196777,1,0,0,0,13,13,126,1,,,,,,,,
,,,,,,,,,,,,,FF,,,,,,,,1.1204,,,,,,,,,,,,,,,,,,,,,,60ff41357ba0444d4858f86e,61036a078d4ce36d1951f685,2021-07-29_22h55.45.207,Simcolourproject_2stim_asymm_v5,2020.2.10,Linux x86_64,60,61025ae37ef11b136ea224fe,,,,,,,,,3220,42.73590088,23.06860352,1,0,0,response1disk,,6,-17.76837158,-8.331481934,1,0,0,rectangle,-17.76837158,-8.331481934,1,0,0,-17.76837158,-8.331481934,1,0,0,0,14,14,1,1,,,,,,,,
,,,,,,,,,,,,,FF,,,,,,,,1.4653,,,,,,,,,,,,,,,,,,,,,,60ff41357ba0444d4858f86e,61036a078d4ce36d1951f685,2021-07-29_22h55.45.207,Simcolourproject_2stim_asymm_v5,2020.2.10,Linux x86_64,60,61025ae37ef11b136ea224fe,,,,,,,,,1849,65.77307129,30.28564453,1,0,0,response1disk,,6,20.55895996,7.153411865,1,0,0,rectangle,20.55895996,7.153411865,1,0,0,20.55895996,7.153411865,1,0,0,0,15,15,21,1,,,,,,,,
,,,,,,,,,,,,,FF,,,,,,,,2.0588,,,,,,,,,,,,,,,,,,,,,,60ff41357ba0444d4858f86e,61036a078d4ce36d1951f685,2021-07-29_22h55.45.207,Simcolourproject_2stim_asymm_v5,2020.2.10,Linux x86_64,60,61025ae37ef11b136ea224fe,,,,,,,,,2154,63.97735596,44.83267212,1,0,0,response1disk,,6,15.19335938,-3.770080566,1,0,0,rectangle,15.19335938,-3.770080566,1,0,0,15.19335938,-3.770080566,1,0,0,0,16,16,122,1,,,,,,,,
,,,,,,,,,,,,,FF,,,,,,,,1.1602,,,,,,,,,,,,,,,,,,,,,,60ff41357ba0444d4858f86e,61036a078d4ce36d1951f685,2021-07-29_22h55.45.207,Simcolourproject_2stim_asymm_v5,2020.2.10,Linux x86_64,60,61025ae37ef11b136ea224fe,,,,,,,,,4124,22.04455566,-38.59805298,1,0,0,response3disk,,4,-15.66906738,12.54916382,1,0,0,rectangle,-15.66906738,12.54916382,1,0,0,-15.66906738,12.54916382,1,0,0,0,17,17,58,1,,,,,,,,
,,,,,,,,,,,,,FF,,,,,,,,1.1121,,,,,,,,,,,,,,,,,,,,,,60ff41357ba0444d4858f86e,61036a078d4ce36d1951f685,2021-07-29_22h55.45.207,Simcolourproject_2stim_asymm_v5,2020.2.10,Linux x86_64,60,61025ae37ef11b136ea224fe,,,,,,,,,3132,84.44055176,29.3890686,1,0,0,response1disk,,6,33.32769775,4.650482178,1,0,0,rectangle,33.32769775,4.650482178,1,0,0,33.32769775,4.650482178,1,0,0,0,18,18,154,1,,,,,,,,
,,,,,,,,,,,,,FF,,,,,,,,1.8422,,,,,,,,,,,,,,,,,,,,,,60ff41357ba0444d4858f86e,61036a078d4ce36d1951f685,2021-07-29_22h55.45.207,Simcolourproject_2stim_asymm_v5,2020.2.10,Linux x86_64,60,61025ae37ef11b136ea224fe,,,,,,,,,1711,57.11346436,77.76651001,1,0,0,response1disk,,7,-5.776123047,-5.259765625,1,0,0,rectangle,-5.776123047,-5.259765625,1,0,0,-5.776123047,-5.259765625,1,0,0,0,19,19,42,1,,,,,,,,
,,,,,,,,,,,,,FF,,,,,,,,0.9456,,,,,,,,,,,,,,,,,,,,,,60ff41357ba0444d4858f86e,61036a078d4ce36d1951f685,2021-07-29_22h55.45.207,Simcolourproject_2stim_asymm_v5,2020.2.10,Linux x86_64,60,61025ae37ef11b136ea224fe,,,,,,,,,884,32.49993896,56.10043335,1,0,0,response1disk,,7,1.25604248,10.88647461,1,0,0,rectangle,1.25604248,10.88647461,1,0,0,1.25604248,10.88647461,1,0,0,0,20,20,0,1,,,,,,,,
,,,,,,,,,,,,,FF,,,,,,,,1.227,,,,,,,,,,,,,,,,,,,,,,60ff41357ba0444d4858f86e,61036a078d4ce36d1951f685,2021-07-29_22h55.45.207,Simcolourproject_2stim_asymm_v5,2020.2.10,Linux x86_64,60,61025ae37ef11b136ea224fe,,,,,,,,,4335,-53.03210449,89.95709229,1,0,0,response7disk,,0,-20.78186035,-10.94009399,1,0,0,rectangle,-20.78186035,-10.94009399,1,0,0,-20.78186035,-10.94009399,1,0,0,0,21,21,16,1,,,,,,,,
,,,,,,,,,,,,,FF,,,,,,,,4.3307,,,,,,,,,,,,,,,,,,,,,,60ff41357ba0444d4858f86e,61036a078d4ce36d1951f685,2021-07-29_22h55.45.207,Simcolourproject_2stim_asymm_v5,2020.2.10,Linux x86_64,60,61025ae37ef11b136ea224fe,,,,,,,,,1169,55.97399902,25.74206543,1,0,0,response1disk,,6,-8.959777832,-10.57363892,1,0,0,rectangle,-8.959777832,-10.57363892,1,0,0,-8.959777832,-10.57363892,1,0,0,0,22,22,62,1,,,,,,,,
,,,,,,,,,,,,,FF,,,,,,,,1.1343,,,,,,,,,,,,,,,,,,,,,,60ff41357ba0444d4858f86e,61036a078d4ce36d1951f685,2021-07-29_22h55.45.207,Simcolourproject_2stim_asymm_v5,2020.2.10,Linux x86_64,60,61025ae37ef11b136ea224fe,,,,,,,,,823,76.59014893,-36.76379395,1,0,0,response3disk,,5,22.77606201,2.349029541,1,0,0,rectangle,22.77606201,2.349029541,1,0,0,22.77606201,2.349029541,1,0,0,0,23,23,133,1,,,,,,,,
,,,,,,,,,,,,,FF,,,,,,,,1.0574,,,,,,,,,,,,,,,,,,,,,,60ff41357ba0444d4858f86e,61036a078d4ce36d1951f685,2021-07-29_22h55.45.207,Simcolourproject_2stim_asymm_v5,2020.2.10,Linux x86_64,60,61025ae37ef11b136ea224fe,,,,,,,,,2228,-44.14050293,26.24081421,1,0,0,response7disk,,1,-27.41339111,11.75881958,1,0,0,rectangle,-27.41339111,11.75881958,1,0,0,-27.41339111,11.75881958,1,0,0,0,24,24,36,1,,,,,,,,
,,,,,,,,,,,,,FF,,,,,,,,1.4819,,,,,,,,,,,,,,,,,,,,,,60ff41357ba0444d4858f86e,61036a078d4ce36d1951f685,2021-07-29_22h55.45.207,Simcolourproject_2stim_asymm_v5,2020.2.10,Linux x86_64,60,61025ae37ef11b136ea224fe,,,,,,,,,279,-40.63342285,-28.63510132,1,0,0,response5disk,,2,-21.30413818,-4.549041748,1,0,0,rectangle,-21.30413818,-4.549041748,1,0,0,-21.30413818,-4.549041748,1,0,0,0,25,25,128,1,,,,,,,,
,,,,,,,,,,,,,FF,,,,,,,,1.3631,,,,,,,,,,,,,,,,,,,,,,60ff41357ba0444d4858f86e,61036a078d4ce36d1951f685,2021-07-29_22h55.45.207,Simcolourproject_2stim_asymm_v5,2020.2.10,Linux x86_64,60,61025ae37ef11b136ea224fe,,,,,,,,,505,34.15844727,55.53631592,1,0,0,response1disk,,7,-8.273193359,-4.022094727,1,0,0,rectangle,-8.273193359,-4.022094727,1,0,0,-8.273193359,-4.022094727,1,0,0,0,26,26,41,1,,,,,,,,
,,,,,,,,,,,,,FF,,,,,,,,1.8802,,,,,,,,,,,,,,,,,,,,,,60ff41357ba0444d4858f86e,61036a078d4ce36d1951f685,2021-07-29_22h55.45.207,Simcolourproject_2stim_asymm_v5,2020.2.10,Linux x86_64,60,61025ae37ef11b136ea224fe,,,,,,,,,2109,28.90997314,65.43161011,1,0,0,response1disk,,7,-8.163391113,12.99697876,1,0,0,rectangle,-8.163391113,12.99697876,1,0,0,-8.163391113,12.99697876,1,0,0,0,27,27,113,1,,,,,,,,
,,,,,,,,,,,,,FF,,,,,,,,2.2246,,,,,,,,,,,,,,,,,,,,,,60ff41357ba0444d4858f86e,61036a078d4ce36d1951f685,2021-07-29_22h55.45.207,Simcolourproject_2stim_asymm_v5,2020.2.10,Linux x86_64,60,61025ae37ef11b136ea224fe,,,,,,,,,4180,27.13897705,53.11886597,1,0,0,response1disk,,7,18.74859619,11.07247925,1,0,0,rectangle,18.74859619,11.07247925,1,0,0,18.74859619,11.07247925,1,0,0,0,28,28,49,1,,,,,,,,
,,,,,,,,,,,,,FF,,,,,,,,4.5361,,,,,,,,,,,,,,,,,,,,,,60ff41357ba0444d4858f86e,61036a078d4ce36d1951f685,2021-07-29_22h55.45.207,Simcolourproject_2stim_asymm_v5,2020.2.10,Linux x86_64,60,61025ae37ef11b136ea224fe,,,,,,,,,2958,29.82061768,52.01434326,1,0,0,response1disk,,7,1.502929688,-4.413848877,1,0,0,rectangle,1.502929688,-4.413848877,1,0,0,1.502929688,-4.413848877,1,0,0,0,29,29,140,1,,,,,,,,
,,,,,,,,,,,,,FF,,,,,,,,2.0651,,,,,,,,,,,,,,,,,,,,,,60ff41357ba0444d4858f86e,61036a078d4ce36d1951f685,2021-07-29_22h55.45.207,Simcolourproject_2stim_asymm_v5,2020.2.10,Linux x86_64,60,61025ae37ef11b136ea224fe,,,,,,,,,2020,51.81109619,68.55404663,1,0,0,response1disk,,7,-7.74810791,-5.00088501,1,0,0,rectangle,-7.74810791,-5.00088501,1,0,0,-7.74810791,-5.00088501,1,0,0,0,30,30,22,1,,,,,,,,
,,,,,,,,,,,,,FF,,,,,,,,1.0694,,,,,,,,,,,,,,,,,,,,,,60ff41357ba0444d4858f86e,61036a078d4ce36d1951f685,2021-07-29_22h55.45.207,Simcolourproject_2stim_asymm_v5,2020.2.10,Linux x86_64,60,61025ae37ef11b136ea224fe,,,,,,,,,1012,87.12139893,28.93835449,1,0,0,response1disk,,6,4.52545166,3.395721436,1,0,0,rectangle,24.20324707,68.81726074,1,0,0,-0.240661621,-2.433013916,1,0,0,0,31,31,72,1,,response1disk_3,TRUE,7,7,"[66,323,241,32,103,66,280,115,267,232,122,213,72,125,170,252,152,167,305,129]",2.3319,rectangle
,,,,,,,,,,,,,FF,,,,,,,,6.1735,,,,,,,,,,,,,,,,,,,,,,60ff41357ba0444d4858f86e,61036a078d4ce36d1951f685,2021-07-29_22h55.45.207,Simcolourproject_2stim_asymm_v5,2020.2.10,Linux x86_64,60,61025ae37ef11b136ea224fe,,,,,,,,,1952,20.20275879,71.91256714,1,0,0,response1disk,,7,-5.059936523,6.716827393,1,0,0,rectangle,-5.059936523,6.716827393,1,0,0,-5.059936523,6.716827393,1,0,0,0,32,32,94,1,,,,,,,,
,,,,,,,,,,,,,FF,,,,,,,,2.1135,,,,,,,,,,,,,,,,,,,,,,60ff41357ba0444d4858f86e,61036a078d4ce36d1951f685,2021-07-29_22h55.45.207,Simcolourproject_2stim_asymm_v5,2020.2.10,Linux x86_64,60,61025ae37ef11b136ea224fe,,,,,,,,,641,55.07830811,-34.17242432,1,0,0,response3disk,,5,-10.92053223,3.010864258,1,0,0,rectangle,-10.92053223,3.010864258,1,0,0,-10.92053223,3.010864258,1,0,0,0,33,33,139,1,,,,,,,,
,,,,,,,,,,,,,FF,,,,,,,,1.1947,,,,,,,,,,,,,,,,,,,,,,60ff41357ba0444d4858f86e,61036a078d4ce36d1951f685,2021-07-29_22h55.45.207,Simcolourproject_2stim_asymm_v5,2020.2.10,Linux x86_64,60,61025ae37ef11b136ea224fe,,,,,,,,,2490,40.79516602,-22.12640381,1,0,0,response3disk,,5,15.3381958,-8.178283691,1,0,0,rectangle,15.3381958,-8.178283691,1,0,0,15.3381958,-8.178283691,1,0,0,0,34,34,105,1,,,,,,,,
,,,,,,,,,,,,,FF,,,,,,,,0.905,,,,,,,,,,,,,,,,,,,,,,60ff41357ba0444d4858f86e,61036a078d4ce36d1951f685,2021-07-29_22h55.45.207,Simcolourproject_2stim_asymm_v5,2020.2.10,Linux x86_64,60,61025ae37ef11b136ea224fe,,,,,,,,,1387,64.90484619,-37.64303589,1,0,0,response3disk,,5,-2.99230957,-1.527374268,1,0,0,rectangle,-2.99230957,-1.527374268,1,0,0,-2.99230957,-1.527374268,1,0,0,0,35,35,84,1,,,,,,,,
,,,,,,,,,,,,,FF,,,,,,,,1.2729,,,,,,,,,,,,,,,,,,,,,,60ff41357ba0444d4858f86e,61036a078d4ce36d1951f685,2021-07-29_22h55.45.207,Simcolourproject_2stim_asymm_v5,2020.2.10,Linux x86_64,60,61025ae37ef11b136ea224fe,,,,,,,,,259,18.60803223,-88.33694458,1,0,0,response3disk,,4,7.563781738,-3.683105469,1,0,0,rectangle,7.563781738,-3.683105469,1,0,0,7.563781738,-3.683105469,1,0,0,0,36,36,12,1,,,,,,,,
,,,,,,,,,,,,,FF,,,,,,,,0.9449,,,,,,,,,,,,,,,,,,,,,,60ff41357ba0444d4858f86e,61036a078d4ce36d1951f685,2021-07-29_22h55.45.207,Simcolourproject_2stim_asymm_v5,2020.2.10,Linux x86_64,60,61025ae37ef11b136ea224fe,,,,,,,,,3377,38.3302002,51.70220947,1,0,0,response1disk,,7,10.69360352,13.05911255,1,0,0,rectangle,10.69360352,13.05911255,1,0,0,10.69360352,13.05911255,1,0,0,0,37,37,117,1,,,,,,,,
,,,,,,,,,,,,,FF,,,,,,,,1.1746,,,,,,,,,,,,,,,,,,,,,,60ff41357ba0444d4858f86e,61036a078d4ce36d1951f685,2021-07-29_22h55.45.207,Simcolourproject_2stim_asymm_v5,2020.2.10,Linux x86_64,60,61025ae37ef11b136ea224fe,,,,,,,,,1542,74.54907227,41.07275391,1,0,0,response1disk,,6,24.47723389,7.474517822,1,0,0,rectangle,24.47723389,7.474517822,1,0,0,24.47723389,7.474517822,1,0,0,0,38,38,77,1,,,,,,,,
,,,,,,,,,,,,,FF,,,,,,,,2.7261,,,,,,,,,,,,,,,,,,,,,,60ff41357ba0444d4858f86e,61036a078d4ce36d1951f685,2021-07-29_22h55.45.207,Simcolourproject_2stim_asymm_v5,2020.2.10,Linux x86_64,60,61025ae37ef11b136ea224fe,,,,,,,,,1822,-55.67199707,88.0201416,1,0,0,response7disk,,0,-8.729064941,-5.223175049,1,0,0,rectangle,-8.729064941,-5.223175049,1,0,0,-8.729064941,-5.223175049,1,0,0,0,39,39,48,1,,,,,,,,
,,,,,,,,,,,,,FF,,,,,,,,0.8007,,,,,,,,,,,,,,,,,,,,,,60ff41357ba0444d4858f86e,61036a078d4ce36d1951f685,2021-07-29_22h55.45.207,Simcolourproject_2stim_asymm_v5,2020.2.10,Linux x86_64,60,61025ae37ef11b136ea224fe,,,,,,,,,2425,-109.5981445,30.37179565,1,0,0,response7disk,,1,-14.93640137,-3.288665771,1,0,0,rectangle,-14.93640137,-3.288665771,1,0,0,-14.93640137,-3.288665771,1,0,0,0,40,40,142,1,,,,,,,,
,,,,,,,,,,,,,FF,,,,,,,,0.8537,,,,,,,,,,,,,,,,,,,,,,60ff41357ba0444d4858f86e,61036a078d4ce36d1951f685,2021-07-29_22h55.45.207,Simcolourproject_2stim_asymm_v5,2020.2.10,Linux x86_64,60,61025ae37ef11b136ea224fe,,,,,,,,,427,-45.19714355,-94.59747314,1,0,0,response5disk,,3,-24.63531494,-8.318389893,1,0,0,rectangle,-24.63531494,-8.318389893,1,0,0,-24.63531494,-8.318389893,1,0,0,0,41,41,111,1,,,,,,,,
,,,,,,,,,,,,,FF,,,,,,,,0.7511,,,,,,,,,,,,,,,,,,,,,,60ff41357ba0444d4858f86e,61036a078d4ce36d1951f685,2021-07-29_22h55.45.207,Simcolourproject_2stim_asymm_v5,2020.2.10,Linux x86_64,60,61025ae37ef11b136ea224fe,,,,,,,,,3723,31.61859131,71.38336182,1,0,0,response1disk,,7,4.849487305,3.288665771,1,0,0,rectangle,4.849487305,3.288665771,1,0,0,4.849487305,3.288665771,1,0,0,0,42,42,55,1,,,,,,,,
,,,,,,,,,,,,,FF,,,,,,,,1.2492,,,,,,,,,,,,,,,,,,,,,,60ff41357ba0444d4858f86e,61036a078d4ce36d1951f685,2021-07-29_22h55.45.207,Simcolourproject_2stim_asymm_v5,2020.2.10,Linux x86_64,60,61025ae37ef11b136ea224fe,,,,,,,,,1479,55.67193604,23.40756226,1,0,0,response1disk,,6,-8.341125488,-2.127960205,1,0,0,rectangle,-8.341125488,-2.127960205,1,0,0,-8.341125488,-2.127960205,1,0,0,0,43,43,158,1,,,,,,,,
,,,,,,,,,,,,,FF,,,,,,,,1.5658,,,,,,,,,,,,,,,,,,,,,,60ff41357ba0444d4858f86e,61036a078d4ce36d1951f685,2021-07-29_22h55.45.207,Simcolourproject_2stim_asymm_v5,2020.2.10,Linux x86_64,60,61025ae37ef11b136ea224fe,,,,,,,,,4002,20.36779785,-84.92492676,1,0,0,response3disk,,4,-30.84265137,13.34811401,1,0,0,rectangle,-30.84265137,13.34811401,1,0,0,-30.84265137,13.34811401,1,0,0,0,44,44,129,1,,,,,,,,
,,,,,,,,,,,,,FF,,,,,,,,1.1554,,,,,,,,,,,,,,,,,,,,,,60ff41357ba0444d4858f86e,61036a078d4ce36d1951f685,2021-07-29_22h55.45.207,Simcolourproject_2stim_asymm_v5,2020.2.10,Linux x86_64,60,61025ae37ef11b136ea224fe,,,,,,,,,995,85.15673828,-59.00253296,1,0,0,response3disk,,5,-20.36779785,-4.836273193,1,0,0,rectangle,-20.36779785,-4.836273193,1,0,0,-20.36779785,-4.836273193,1,0,0,0,45,45,4,1,,,,,,,,
,,,,,,,,,,,,,FF,,,,,,,,0.7678,,,,,,,,,,,,,,,,,,,,,,60ff41357ba0444d4858f86e,61036a078d4ce36d1951f685,2021-07-29_22h55.45.207,Simcolourproject_2stim_asymm_v5,2020.2.10,Linux x86_64,60,61025ae37ef11b136ea224fe,,,,,,,,,2852,35.49816895,62.871521,1,0,0,response1disk,,7,-0.193969727,3.675567627,1,0,0,rectangle,-0.193969727,3.675567627,1,0,0,-0.193969727,3.675567627,1,0,0,0,46,46,145,1,,,,,,,,
,,,,,,,,,,,,,FF,,,,,,,,0.8052,,,,,,,,,,,,,,,,,,,,,,60ff41357ba0444d4858f86e,61036a078d4ce36d1951f685,2021-07-29_22h55.45.207,Simcolourproject_2stim_asymm_v5,2020.2.10,Linux x86_64,60,61025ae37ef11b136ea224fe,,,,,,,,,1731,35.11016846,76.41308594,1,0,0,response1disk,,7,-19.20391846,-0.193450928,1,0,0,rectangle,-19.20391846,-0.193450928,1,0,0,-19.20391846,-0.193450928,1,0,0,0,47,47,13,1,,,,,,,,
,,,,,,,,,,,,,FF,,,,,,,,0.9509,,,,,,,,,,,,,,,,,,,,,,60ff41357ba0444d4858f86e,61036a078d4ce36d1951f685,2021-07-29_22h55.45.207,Simcolourproject_2stim_asymm_v5,2020.2.10,Linux x86_64,60,61025ae37ef11b136ea224fe,,,,,,,,,4011,57.99969482,79.89520264,1,0,0,response1disk,,7,-6.401306152,5.223175049,1,0,0,rectangle,-6.401306152,5.223175049,1,0,0,-6.401306152,5.223175049,1,0,0,0,48,48,29,1,,,,,,,,
,,,,,,,,,,,,,FF,,,,,,,,0.8351,,,,,,,,,,,,,,,,,,,,,,60ff41357ba0444d4858f86e,61036a078d4ce36d1951f685,2021-07-29_22h55.45.207,Simcolourproject_2stim_asymm_v5,2020.2.10,Linux x86_64,60,61025ae37ef11b136ea224fe,,,,,,,,,2690,54.89605713,94.59747314,1,0,0,response1disk,,7,-3.297668457,-10.25289917,1,0,0,rectangle,-3.297668457,-10.25289917,1,0,0,-3.297668457,-10.25289917,1,0,0,0,49,49,32,1,,,,,,,,
,,,,,,,,,,,,,FF,,,,,,,,0.7157,,,,,,,,,,,,,,,,,,,,,,60ff41357ba0444d4858f86e,61036a078d4ce36d1951f685,2021-07-29_22h55.45.207,Simcolourproject_2stim_asymm_v5,2020.2.10,Linux x86_64,60,61025ae37ef11b136ea224fe,,,,,,,,,1087,32.00653076,92.66296387,1,0,0,response1disk,,7,-12.99658203,-15.28262329,1,0,0,rectangle,-12.99658203,-15.28262329,1,0,0,-12.99658203,-15.28262329,1,0,0,0,50,50,40,1,,,,,,,,
,,,,,,,,,,,,,FF,,,,,,,,0.9112,,,,,,,,,,,,,,,,,,,,,,60ff41357ba0444d4858f86e,61036a078d4ce36d1951f685,2021-07-29_22h55.45.207,Simcolourproject_2stim_asymm_v5,2020.2.10,Linux x86_64,60,61025ae37ef11b136ea224fe,,,,,,,,,1891,-98.73529053,42.36575317,1,0,0,response7disk,,1,0.58190918,-9.865997314,1,0,0,rectangle,0.58190918,-9.865997314,1,0,0,0.58190918,-9.865997314,1,0,0,0,51,51,35,1,,,,,,,,
,,,,,,,,,,,,,FF,,,,,,,,0.9898,,,,,,,,,,,,,,,,,,,,,,60ff41357ba0444d4858f86e,61036a078d4ce36d1951f685,2021-07-29_22h55.45.207,Simcolourproject_2stim_asymm_v5,2020.2.10,Linux x86_64,60,61025ae37ef11b136ea224fe,,,,,,,,,2259,50.628479,79.12139893,1,0,0,response1disk,,7,-13.38458252,-12.18740845,1,0,0,rectangle,-13.38458252,-12.18740845,1,0,0,-13.38458252,-12.18740845,1,0,0,0,52,52,152,1,,,,,,,,
,,,,,,,,,,,,,FF,,,,,,,,1.8514,,,,,,,,,,,,,,,,,,,,,,60ff41357ba0444d4858f86e,61036a078d4ce36d1951f685,2021-07-29_22h55.45.207,Simcolourproject_2stim_asymm_v5,2020.2.10,Linux x86_64,60,61025ae37ef11b136ea224fe,,,,,,,,,3942,57.99969482,-36.9491272,1,0,0,response3disk,,5,-9.117004395,12.96121216,1,0,0,rectangle,-9.117004395,12.96121216,1,0,0,-9.117004395,12.96121216,1,0,0,0,53,53,156,1,,,,,,,,
,,,,,,,,,,,,,FF,,,,,,,,2.1935,,,,,,,,,,,,,,,,,,,,,,60ff41357ba0444d4858f86e,61036a078d4ce36d1951f685,2021-07-29_22h55.45.207,Simcolourproject_2stim_asymm_v5,2020.2.10,Linux x86_64,60,61025ae37ef11b136ea224fe,,,,,,,,,4360,-41.31750488,-94.984375,1,0,0,response5disk,,3,-16.87615967,-7.931488037,1,0,0,rectangle,-16.87615967,-7.931488037,1,0,0,-16.87615967,-7.931488037,1,0,0,0,54,54,143,1,,,,,,,,
,,,,,,,,,,,,,FF,,,,,,,,1.4964,,,,,,,,,,,,,,,,,,,,,,60ff41357ba0444d4858f86e,61036a078d4ce36d1951f685,2021-07-29_22h55.45.207,Simcolourproject_2stim_asymm_v5,2020.2.10,Linux x86_64,60,61025ae37ef11b136ea224fe,,,,,,,,,2901,61.10339355,-37.72293091,1,0,0,response3disk,,5,-10.66888428,5.223175049,1,0,0,rectangle,-10.66888428,5.223175049,1,0,0,-10.66888428,5.223175049,1,0,0,0,55,55,20,1,,,,,,,,
,,,,,,,,,,,,,FF,,,,,,,,0.9229,,,,,,,,,,,,,,,,,,,,,,60ff41357ba0444d4858f86e,61036a078d4ce36d1951f685,2021-07-29_22h55.45.207,Simcolourproject_2stim_asymm_v5,2020.2.10,Linux x86_64,60,61025ae37ef11b136ea224fe,,,,,,,,,1874,94.07977295,58.22869873,1,0,0,response1disk,,6,-1.357849121,-2.901763916,1,0,0,rectangle,-1.357849121,-2.901763916,1,0,0,-1.357849121,-2.901763916,1,0,0,0,56,56,146,1,,,,,,,,
,,,,,,,,,,,,,FF,,,,,,,,1.603,,,,,,,,,,,,,,,,,,,,,,60ff41357ba0444d4858f86e,61036a078d4ce36d1951f685,2021-07-29_22h55.45.207,Simcolourproject_2stim_asymm_v5,2020.2.10,Linux x86_64,60,61025ae37ef11b136ea224fe,,,,,,,,,1262,36.27404785,75.63928223,1,0,0,response1disk,,7,4.461486816,-13.34811401,1,0,0,rectangle,4.461486816,-13.34811401,1,0,0,4.461486816,-13.34811401,1,0,0,0,57,57,110,1,,,,,,,,
,,,,,,,,,,,,,FF,,,,,,,,1.1369,,,,,,,,,,,,,,,,,,,,,,60ff41357ba0444d4858f86e,61036a078d4ce36d1951f685,2021-07-29_22h55.45.207,Simcolourproject_2stim_asymm_v5,2020.2.10,Linux x86_64,60,61025ae37ef11b136ea224fe,,,,,,,,,698,34.722229,82.99041748,1,0,0,response1disk,,7,-6.401306152,-5.610076904,1,0,0,rectangle,-6.401306152,-5.610076904,1,0,0,-6.401306152,-5.610076904,1,0,0,0,58,58,5,1,,,,,,,,
,,,,,,,,,,,,,FF,,,,,,,,1.1718,,,,,,,,,,,,,,,,,,,,,,60ff41357ba0444d4858f86e,61036a078d4ce36d1951f685,2021-07-29_22h55.45.207,Simcolourproject_2stim_asymm_v5,2020.2.10,Linux x86_64,60,61025ae37ef11b136ea224fe,,,,,,,,,3805,47.13690186,21.85995483,1,0,0,response1disk,,6,2.521728516,-3.675567627,1,0,0,rectangle,2.521728516,-3.675567627,1,0,0,2.521728516,-3.675567627,1,0,0,0,59,59,9,1,,,,,,,,
,,,,,,,,,,,,,FF,,,,,,,,1.0352,,,,,,,,,,,,,,,,,,,,,,60ff41357ba0444d4858f86e,61036a078d4ce36d1951f685,2021-07-29_22h55.45.207,Simcolourproject_2stim_asymm_v5,2020.2.10,Linux x86_64,60,61025ae37ef11b136ea224fe,,,,,,,,,3434,-55.28399658,-88.40704346,1,0,0,response5disk,,3,-27.35107422,-14.50881958,1,0,0,rectangle,-27.35107422,-14.50881958,1,0,0,-27.35107422,-14.50881958,1,0,0,0,60,60,78,1,,,,,,,,
,,,,,,,,,,,,,FF,,,,,,,,0.7522,,,,,,,,,,,,,,,,,,,,,,60ff41357ba0444d4858f86e,61036a078d4ce36d1951f685,2021-07-29_22h55.45.207,Simcolourproject_2stim_asymm_v5,2020.2.10,Linux x86_64,60,61025ae37ef11b136ea224fe,,,,,,,,,4140,-107.6583252,-36.9491272,1,0,0,response5disk,,2,-25.79919434,12.5743103,1,0,0,rectangle,-25.79919434,12.5743103,1,0,0,-25.79919434,12.5743103,1,0,0,0,61,61,6,1,,,,,,,,
,,,,,,,,,,,,,FF,,,,,,,,0.6478,,,,,,,,,,,,,,,,,,,,,,60ff41357ba0444d4858f86e,61036a078d4ce36d1951f685,2021-07-29_22h55.45.207,Simcolourproject_2stim_asymm_v5,2020.2.10,Linux x86_64,60,61025ae37ef11b136ea224fe,,,,,,,,,1478,18.04003906,80.66900635,1,0,0,response1disk,,7,-22.69555664,5.223175049,1,0,0,rectangle,-22.69555664,5.223175049,1,0,0,-22.69555664,5.223175049,1,0,0,0,62,62,56,1,,,,,,,,
,,,,,,,,,,,,,FF,,,,,,,,0.8297,,,,,,,,,,,,,,,,,,,,,,60ff41357ba0444d4858f86e,61036a078d4ce36d1951f685,2021-07-29_22h55.45.207,Simcolourproject_2stim_asymm_v5,2020.2.10,Linux x86_64,60,61025ae37ef11b136ea224fe,,,,,,,,,1905,68.47454834,21.47305298,1,0,0,response1disk,,6,-7.565185547,-7.544586182,1,0,0,rectangle,-7.565185547,-7.544586182,1,0,0,-7.565185547,-7.544586182,1,0,0,0,63,63,91,1,,,,,,,,
,,,,,,,,,,,,,FF,,,,,,,,0.6706,,,,,,,,,,,,,,,,,,,,,,60ff41357ba0444d4858f86e,61036a078d4ce36d1951f685,2021-07-29_22h55.45.207,Simcolourproject_2stim_asymm_v5,2020.2.10,Linux x86_64,60,61025ae37ef11b136ea224fe,,,,,,,,,2275,37.04998779,73.70477295,1,0,0,response1disk,,7,-0.969909668,-2.127960205,1,0,0,rectangle,-0.969909668,-2.127960205,1,0,0,-0.969909668,-2.127960205,1,0,0,0,64,64,87,1,,,,,,,,
,,,,,,,,,,,,,FF,,,,,,,,0.9152,,,,,,,,,,,,,,,,,,,,,,60ff41357ba0444d4858f86e,61036a078d4ce36d1951f685,2021-07-29_22h55.45.207,Simcolourproject_2stim_asymm_v5,2020.2.10,Linux x86_64,60,61025ae37ef11b136ea224fe,,,,,,,,,787,79.33740234,55.9072876,1,0,0,response1disk,,6,-7.953125,-8.705291748,1,0,0,rectangle,-93.6918335,33.4670105,1,0,0,0.969909668,-5.99697876,1,0,0,0,65,65,25,1,,response7disk_3,TRUE,1,1,"[66,323,241,32,103,66,280,115,267,232,122,213,72,125,170,252,152,167,305,129]",1.7492,rectangle
,,,,,,,,,,,,,FF,,,,,,,,1.1375,,,,,,,,,,,,,,,,,,,,,,60ff41357ba0444d4858f86e,61036a078d4ce36d1951f685,2021-07-29_22h55.45.207,Simcolourproject_2stim_asymm_v5,2020.2.10,Linux x86_64,60,61025ae37ef11b136ea224fe,,,,,,,,,659,26.57513428,101.9486084,1,0,0,response1disk,,7,-12.60864258,-2.514862061,1,0,0,rectangle,-12.60864258,-2.514862061,1,0,0,-12.60864258,-2.514862061,1,0,0,0,66,66,147,1,,,,,,,,
,,,,,,,,,,,,,FF,,,,,,,,1.0005,,,,,,,,,,,,,,,,,,,,,,60ff41357ba0444d4858f86e,61036a078d4ce36d1951f685,2021-07-29_22h55.45.207,Simcolourproject_2stim_asymm_v5,2020.2.10,Linux x86_64,60,61025ae37ef11b136ea224fe,,,,,,,,,1477,39.37774658,91.88916016,1,0,0,response1disk,,7,-5.625427246,-5.223175049,1,0,0,rectangle,-5.625427246,-5.223175049,1,0,0,-5.625427246,-5.223175049,1,0,0,0,67,67,98,1,,,,,,,,
,,,,,,,,,,,,,FF,,,,,,,,0.7481,,,,,,,,,,,,,,,,,,,,,,60ff41357ba0444d4858f86e,61036a078d4ce36d1951f685,2021-07-29_22h55.45.207,Simcolourproject_2stim_asymm_v5,2020.2.10,Linux x86_64,60,61025ae37ef11b136ea224fe,,,,,,,,,2644,33.17041016,102.3355103,1,0,0,response1disk,,7,-18.04003906,13.34811401,1,0,0,rectangle,-18.04003906,13.34811401,1,0,0,-18.04003906,13.34811401,1,0,0,0,68,68,144,1,,,,,,,,
,,,,,,,,,,,,,FF,,,,,,,,0.9748,,,,,,,,,,,,,,,,,,,,,,60ff41357ba0444d4858f86e,61036a078d4ce36d1951f685,2021-07-29_22h55.45.207,Simcolourproject_2stim_asymm_v5,2020.2.10,Linux x86_64,60,61025ae37ef11b136ea224fe,,,,,,,,,1035,92.5279541,25.72897339,1,0,0,response1disk,,6,5.625366211,-14.12191772,1,0,0,rectangle,5.625366211,-14.12191772,1,0,0,5.625366211,-14.12191772,1,0,0,0,69,69,76,1,,,,,,,,
,,,,,,,,,,,,,FF,,,,,,,,1.0476,,,,,,,,,,,,,,,,,,,,,,60ff41357ba0444d4858f86e,61036a078d4ce36d1951f685,2021-07-29_22h55.45.207,Simcolourproject_2stim_asymm_v5,2020.2.10,Linux x86_64,60,61025ae37ef11b136ea224fe,,,,,,,,,3803,37.04998779,81.44281006,1,0,0,response1disk,,7,-6.789245605,4.449371338,1,0,0,rectangle,-6.789245605,4.449371338,1,0,0,-6.789245605,4.449371338,1,0,0,0,70,70,136,1,,,,,,,,
,,,,,,,,,,,,,FF,,,,,,,,1.7455,,,,,,,,,,,,,,,,,,,,,,60ff41357ba0444d4858f86e,61036a078d4ce36d1951f685,2021-07-29_22h55.45.207,Simcolourproject_2stim_asymm_v5,2020.2.10,Linux x86_64,60,61025ae37ef11b136ea224fe,,,,,,,,,701,96.40753174,31.14559937,1,0,0,response1disk,,6,12.22064209,-4.062469482,1,0,0,rectangle,28.51489258,-108.1390381,1,0,0,-12.60864258,-8.705291748,1,0,0,0,71,71,27,1,,response3disk_3,TRUE,4,4,"[66,323,241,32,103,66,280,115,267,232,122,213,72,125,170,252,152,167,305,129]",1.7603,rectangle
,,,,,,,,,,,,,FF,,,,,,,,2.0024,,,,,,,,,,,,,,,,,,,,,,60ff41357ba0444d4858f86e,61036a078d4ce36d1951f685,2021-07-29_22h55.45.207,Simcolourproject_2stim_asymm_v5,2020.2.10,Linux x86_64,60,61025ae37ef11b136ea224fe,,,,,,,,,2594,28.90283203,83.37731934,1,0,0,response1disk,,7,-21.14373779,0.967254639,1,0,0,rectangle,-21.14373779,0.967254639,1,0,0,-21.14373779,0.967254639,1,0,0,0,72,72,124,1,,,,,,,,
,,,,,,,,,,,,,FF,,,,,,,,0.6971,,,,,,,,,,,,,,,,,,,,,,60ff41357ba0444d4858f86e,61036a078d4ce36d1951f685,2021-07-29_22h55.45.207,Simcolourproject_2stim_asymm_v5,2020.2.10,Linux x86_64,60,61025ae37ef11b136ea224fe,,,,,,,,,2818,29.67877197,52.81210327,1,0,0,response1disk,,7,-10.66888428,5.610076904,1,0,0,rectangle,-10.66888428,5.610076904,1,0,0,-10.66888428,5.610076904,1,0,0,0,73,73,116,1,,,,,,,,
,,,,,,,,,,,,,FF,,,,,,,,0.9333,,,,,,,,,,,,,,,,,,,,,,60ff41357ba0444d4858f86e,61036a078d4ce36d1951f685,2021-07-29_22h55.45.207,Simcolourproject_2stim_asymm_v5,2020.2.10,Linux x86_64,60,61025ae37ef11b136ea224fe,,,,,,,,,2053,61.87927246,34.24081421,1,0,0,response1disk,,6,-16.10028076,-1.74105835,1,0,0,rectangle,-16.10028076,-1.74105835,1,0,0,-16.10028076,-1.74105835,1,0,0,0,74,74,26,1,,,,,,,,
,,,,,,,,,,,,,FF,,,,,,,,0.6481,,,,,,,,,,,,,,,,,,,,,,60ff41357ba0444d4858f86e,61036a078d4ce36d1951f685,2021-07-29_22h55.45.207,Simcolourproject_2stim_asymm_v5,2020.2.10,Linux x86_64,60,61025ae37ef11b136ea224fe,,,,,,,,,2810,42.48138428,75.63928223,1,0,0,response1disk,,7,-19.59185791,3.288665771,1,0,0,rectangle,-19.59185791,3.288665771,1,0,0,-19.59185791,3.288665771,1,0,0,0,75,75,33,1,,,,,,,,
,,,,,,,,,,,,,FF,,,,,,,,1.1447,,,,,,,,,,,,,,,,,,,,,,60ff41357ba0444d4858f86e,61036a078d4ce36d1951f685,2021-07-29_22h55.45.207,Simcolourproject_2stim_asymm_v5,2020.2.10,Linux x86_64,60,61025ae37ef11b136ea224fe,,,,,,,,,3,35.11016846,-110.0735474,1,0,0,response3disk,,4,-5.237426758,1.74105835,1,0,0,rectangle,-5.237426758,1.74105835,1,0,0,-5.237426758,1.74105835,1,0,0,0,76,76,131,1,,,,,,,,
,,,,,,,,,,,,,FF,,,,,,,,0.954,,,,,,,,,,,,,,,,,,,,,,60ff41357ba0444d4858f86e,61036a078d4ce36d1951f685,2021-07-29_22h55.45.207,Simcolourproject_2stim_asymm_v5,2020.2.10,Linux x86_64,60,61025ae37ef11b136ea224fe,,,,,,,,,2542,-97.57141113,-61.71084595,1,0,0,response5disk,,2,-24.63531494,3.675567627,1,0,0,rectangle,-24.63531494,3.675567627,1,0,0,-24.63531494,3.675567627,1,0,0,0,77,77,11,1,,,,,,,,
,,,,,,,,,,,,,FF,,,,,,,,0.7941,,,,,,,,,,,,,,,,,,,,,,60ff41357ba0444d4858f86e,61036a078d4ce36d1951f685,2021-07-29_22h55.45.207,Simcolourproject_2stim_asymm_v5,2020.2.10,Linux x86_64,60,61025ae37ef11b136ea224fe,,,,,,,,,1108,30.45471191,71.77026367,1,0,0,response1disk,,7,-1.357849121,-7.931488037,1,0,0,rectangle,-1.357849121,-7.931488037,1,0,0,-1.357849121,-7.931488037,1,0,0,0,78,78,57,1,,,,,,,,
,,,,,,,,,,,,,FF,,,,,,,,0.7264,,,,,,,,,,,,,,,,,,,,,,60ff41357ba0444d4858f86e,61036a078d4ce36d1951f685,2021-07-29_22h55.45.207,Simcolourproject_2stim_asymm_v5,2020.2.10,Linux x86_64,60,61025ae37ef11b136ea224fe,,,,,,,,,2990,49.46459961,84.15112305,1,0,0,response1disk,,7,-11.83270264,-9.092193604,1,0,0,rectangle,-11.83270264,-9.092193604,1,0,0,-11.83270264,-9.092193604,1,0,0,0,79,79,155,1,,,,,,,,
,,,,,,,,,,,,,FF,,,,,,,,0.8735,,,,,,,,,,,,,,,,,,,,,,60ff41357ba0444d4858f86e,61036a078d4ce36d1951f685,2021-07-29_22h55.45.207,Simcolourproject_2stim_asymm_v5,2020.2.10,Linux x86_64,60,61025ae37ef11b136ea224fe,,,,,,,,,2179,94.85571289,24.18136597,1,0,0,response1disk,,6,14.93634033,-3.675567627,1,0,0,rectangle,14.93634033,-3.675567627,1,0,0,14.93634033,-3.675567627,1,0,0,0,80,80,149,1,,,,,,,,
,,,,,,,,,,,,,FF,,,,,,,,0.6269,,,,,,,,,,,,,,,,,,,,,,60ff41357ba0444d4858f86e,61036a078d4ce36d1951f685,2021-07-29_22h55.45.207,Simcolourproject_2stim_asymm_v5,2020.2.10,Linux x86_64,60,61025ae37ef11b136ea224fe,,,,,,,,,224,28.51489258,97.69268799,1,0,0,response1disk,,7,-20.7557373,-0.967254639,1,0,0,rectangle,-20.7557373,-0.967254639,1,0,0,-20.7557373,-0.967254639,1,0,0,0,81,81,8,1,,,,,,,,
,,,,,,,,,,,,,FF,,,,,,,,0.8146,,,,,,,,,,,,,,,,,,,,,,60ff41357ba0444d4858f86e,61036a078d4ce36d1951f685,2021-07-29_22h55.45.207,Simcolourproject_2stim_asymm_v5,2020.2.10,Linux x86_64,60,61025ae37ef11b136ea224fe,,,,,,,,,3092,29.29083252,86.85943604,1,0,0,response1disk,,7,-15.32434082,9.092193604,1,0,0,rectangle,-15.32434082,9.092193604,1,0,0,-15.32434082,9.092193604,1,0,0,0,82,82,150,1,,,,,,,,
,,,,,,,,,,,,,FF,,,,,,,,0.9837,,,,,,,,,,,,,,,,,,,,,,60ff41357ba0444d4858f86e,61036a078d4ce36d1951f685,2021-07-29_22h55.45.207,Simcolourproject_2stim_asymm_v5,2020.2.10,Linux x86_64,60,61025ae37ef11b136ea224fe,,,,,,,,,201,35.11016846,41.59194946,1,0,0,response1disk,,7,-13.38458252,-4.449371338,1,0,0,rectangle,-13.38458252,-4.449371338,1,0,0,-13.38458252,-4.449371338,1,0,0,0,83,83,134,1,,,,,,,,
,,,,,,,,,,,,,FF,,,,,,,,0.5527,,,,,,,,,,,,,,,,,,,,,,60ff41357ba0444d4858f86e,61036a078d4ce36d1951f685,2021-07-29_22h55.45.207,Simcolourproject_2stim_asymm_v5,2020.2.10,Linux x86_64,60,61025ae37ef11b136ea224fe,,,,,,,,,643,25.02325439,77.5737915,1,0,0,response1disk,,7,-25.41125488,4.449371338,1,0,0,rectangle,-25.41125488,4.449371338,1,0,0,-25.41125488,4.449371338,1,0,0,0,84,84,39,1,,,,,,,,
,,,,,,,,,,,,,FF,,,,,,,,0.6994,,,,,,,,,,,,,,,,,,,,,,60ff41357ba0444d4858f86e,61036a078d4ce36d1951f685,2021-07-29_22h55.45.207,Simcolourproject_2stim_asymm_v5,2020.2.10,Linux x86_64,60,61025ae37ef11b136ea224fe,,,,,,,,,2349,69.25048828,35.01461792,1,0,0,response1disk,,6,-13.38458252,-8.705291748,1,0,0,rectangle,-13.38458252,-8.705291748,1,0,0,-13.38458252,-8.705291748,1,0,0,0,85,85,109,1,,,,,,,,
,,,,,,,,,,,,,FF,,,,,,,,1.0671,,,,,,,,,,,,,,,,,,,,,,60ff41357ba0444d4858f86e,61036a078d4ce36d1951f685,2021-07-29_22h55.45.207,Simcolourproject_2stim_asymm_v5,2020.2.10,Linux x86_64,60,61025ae37ef11b136ea224fe,,,,,,,,,2995,-63.04315186,-94.59747314,1,0,0,response5disk,,3,-19.59185791,-3.288665771,1,0,0,rectangle,-19.59185791,-3.288665771,1,0,0,-19.59185791,-3.288665771,1,0,0,0,86,86,43,1,,,,,,,,
,,,,,,,,,,,,,FF,,,,,,,,0.7586,,,,,,,,,,,,,,,,,,,,,,60ff41357ba0444d4858f86e,61036a078d4ce36d1951f685,2021-07-29_22h55.45.207,Simcolourproject_2stim_asymm_v5,2020.2.10,Linux x86_64,60,61025ae37ef11b136ea224fe,,,,,,,,,1852,46.74890137,116.2639771,1,0,0,response1disk,,7,-1.357849121,6.383880615,1,0,0,rectangle,-1.357849121,6.383880615,1,0,0,-1.357849121,6.383880615,1,0,0,0,87,87,153,1,,,,,,,,
,,,,,,,,,,,,,FF,,,,,,,,0.6005,,,,,,,,,,,,,,,,,,,,,,60ff41357ba0444d4858f86e,61036a078d4ce36d1951f685,2021-07-29_22h55.45.207,Simcolourproject_2stim_asymm_v5,2020.2.10,Linux x86_64,60,61025ae37ef11b136ea224fe,,,,,,,,,284,37.43792725,26.11587524,1,0,0,response1disk,,6,-15.32434082,11.80050659,1,0,0,rectangle,-15.32434082,11.80050659,1,0,0,-15.32434082,11.80050659,1,0,0,0,88,88,67,1,,,,,,,,
,,,,,,,,,,,,,FF,,,,,,,,0.6202,,,,,,,,,,,,,,,,,,,,,,60ff41357ba0444d4858f86e,61036a078d4ce36d1951f685,2021-07-29_22h55.45.207,Simcolourproject_2stim_asymm_v5,2020.2.10,Linux x86_64,60,61025ae37ef11b136ea224fe,,,,,,,,,2274,29.29083252,98.07958984,1,0,0,response1disk,,7,-11.44476318,-8.318389893,1,0,0,rectangle,-11.44476318,-8.318389893,1,0,0,-11.44476318,-8.318389893,1,0,0,0,89,89,119,1,,,,,,,,
,,,,,,,,,,,,,FF,,,,,,,,0.8272,,,,,,,,,,,,,,,,,,,,,,60ff41357ba0444d4858f86e,61036a078d4ce36d1951f685,2021-07-29_22h55.45.207,Simcolourproject_2stim_asymm_v5,2020.2.10,Linux x86_64,60,61025ae37ef11b136ea224fe,,,,,,,,,346,59.93951416,-36.56222534,1,0,0,response3disk,,5,4.073547363,7.544586182,1,0,0,rectangle,4.073547363,7.544586182,1,0,0,4.073547363,7.544586182,1,0,0,0,90,90,37,1,,,,,,,,
,,,,,,,,,,,,,FF,,,,,,,,1.4687,,,,,,,,,,,,,,,,,,,,,,60ff41357ba0444d4858f86e,61036a078d4ce36d1951f685,2021-07-29_22h55.45.207,Simcolourproject_2stim_asymm_v5,2020.2.10,Linux x86_64,60,61025ae37ef11b136ea224fe,,,,,,,,,2306,35.8861084,71.77026367,1,0,0,response1disk,,7,-4.461547852,-2.127960205,1,0,0,rectangle,-4.461547852,-2.127960205,1,0,0,-4.461547852,-2.127960205,1,0,0,0,91,91,30,1,,,,,,,,
,,,,,,,,,,,,,FF,,,,,,,,0.5027,,,,,,,,,,,,,,,,,,,,,,60ff41357ba0444d4858f86e,61036a078d4ce36d1951f685,2021-07-29_22h55.45.207,Simcolourproject_2stim_asymm_v5,2020.2.10,Linux x86_64,60,61025ae37ef11b136ea224fe,,,,,,,,,3043,26.96307373,89.18084717,1,0,0,response1disk,,7,-12.60864258,-1.74105835,1,0,0,rectangle,-12.60864258,-1.74105835,1,0,0,-12.60864258,-1.74105835,1,0,0,0,92,92,92,1,,,,,,,,
,,,,,,,,,,,,,FF,,,,,,,,0.8303,,,,,,,,,,,,,,,,,,,,,,60ff41357ba0444d4858f86e,61036a078d4ce36d1951f685,2021-07-29_22h55.45.207,Simcolourproject_2stim_asymm_v5,2020.2.10,Linux x86_64,60,61025ae37ef11b136ea224fe,,,,,,,,,2802,32.39447021,76.79998779,1,0,0,response1disk,,7,-6.013366699,-4.449371338,1,0,0,rectangle,-6.013366699,-4.449371338,1,0,0,-6.013366699,-4.449371338,1,0,0,0,93,93,63,1,,,,,,,,
,,,,,,,,,,,,,FF,,,,,,,,0.5938,,,,,,,,,,,,,,,,,,,,,,60ff41357ba0444d4858f86e,61036a078d4ce36d1951f685,2021-07-29_22h55.45.207,Simcolourproject_2stim_asymm_v5,2020.2.10,Linux x86_64,60,61025ae37ef11b136ea224fe,,,,,,,,,2408,40.92956543,93.43676758,1,0,0,response1disk,,7,-12.22070313,11.41360474,1,0,0,rectangle,-12.22070313,11.41360474,1,0,0,-12.22070313,11.41360474,1,0,0,0,94,94,88,1,,,,,,,,
,,,,,,,,,,,,,FF,,,,,,,,0.8353,,,,,,,,,,,,,,,,,,,,,,60ff41357ba0444d4858f86e,61036a078d4ce36d1951f685,2021-07-29_22h55.45.207,Simcolourproject_2stim_asymm_v5,2020.2.10,Linux x86_64,60,61025ae37ef11b136ea224fe,,,,,,,,,2841,64.98297119,39.65744019,1,0,0,response1disk,,6,-12.60864258,-5.223175049,1,0,0,rectangle,-12.60864258,-5.223175049,1,0,0,-12.60864258,-5.223175049,1,0,0,0,95,95,69,1,,,,,,,,
,,,,,,,,,,,,,FF,,,,,,,,0.6222,,,,,,,,,,,,,,,,,,,,,,60ff41357ba0444d4858f86e,61036a078d4ce36d1951f685,2021-07-29_22h55.45.207,Simcolourproject_2stim_asymm_v5,2020.2.10,Linux x86_64,60,61025ae37ef11b136ea224fe,,,,,,,,,2801,28.12695313,87.24633789,1,0,0,response1disk,,7,-24.24737549,6.770782471,1,0,0,rectangle,-24.24737549,6.770782471,1,0,0,-24.24737549,6.770782471,1,0,0,0,96,96,3,1,,,,,,,,
,,,,,,,,,,,,,FF,,,,,,,,1.2399,,,,,,,,,,,,,,,,,,,,,,60ff41357ba0444d4858f86e,61036a078d4ce36d1951f685,2021-07-29_22h55.45.207,Simcolourproject_2stim_asymm_v5,2020.2.10,Linux x86_64,60,61025ae37ef11b136ea224fe,,,,,,,,,3940,-95.24371338,-24.95516968,1,0,0,response5disk,,2,-5.625427246,2.901763916,1,0,0,rectangle,-5.625427246,2.901763916,1,0,0,-5.625427246,2.901763916,1,0,0,0,97,97,151,1,,,,,,,,
,,,,,,,,,,,,,FF,,,,,,,,1.0318,,,,,,,,,,,,,,,,,,,,,,60ff41357ba0444d4858f86e,61036a078d4ce36d1951f685,2021-07-29_22h55.45.207,Simcolourproject_2stim_asymm_v5,2020.2.10,Linux x86_64,60,61025ae37ef11b136ea224fe,,,,,,,,,3698,29.29083252,92.27606201,1,0,0,response1disk,,7,-7.953125,9.092193604,1,0,0,rectangle,-7.953125,9.092193604,1,0,0,-7.953125,9.092193604,1,0,0,0,98,98,65,1,,,,,,,,
,,,,,,,,,,,,,FF,,,,,,,,0.8987,,,,,,,,,,,,,,,,,,,,,,60ff41357ba0444d4858f86e,61036a078d4ce36d1951f685,2021-07-29_22h55.45.207,Simcolourproject_2stim_asymm_v5,2020.2.10,Linux x86_64,60,61025ae37ef11b136ea224fe,,,,,,,,,3393,-104.942627,-36.56222534,1,0,0,response5disk,,2,-9.892944336,14.50881958,1,0,0,rectangle,-9.892944336,14.50881958,1,0,0,-9.892944336,14.50881958,1,0,0,0,99,99,102,1,,,,,,,,
,,,,,,,,,,,,,FF,,,,,,,,0.8102,,,,,,,,,,,,,,,,,,,,,,60ff41357ba0444d4858f86e,61036a078d4ce36d1951f685,2021-07-29_22h55.45.207,Simcolourproject_2stim_asymm_v5,2020.2.10,Linux x86_64,60,61025ae37ef11b136ea224fe,,,,,,,,,291,61.49133301,38.10983276,1,0,0,response1disk,,6,-22.30761719,-2.514862061,1,0,0,rectangle,-22.30761719,-2.514862061,1,0,0,-22.30761719,-2.514862061,1,0,0,0,100,100,66,1,,,,,,,,
,,,,,,,,,,,,,FF,,,,,,,,0.549,,,,,,,,,,,,,,,,,,,,,,60ff41357ba0444d4858f86e,61036a078d4ce36d1951f685,2021-07-29_22h55.45.207,Simcolourproject_2stim_asymm_v5,2020.2.10,Linux x86_64,60,61025ae37ef11b136ea224fe,,,,,,,,,928,28.90283203,63.25842285,1,0,0,response1disk,,7,1.745788574,0.580352783,1,0,0,rectangle,1.745788574,0.580352783,1,0,0,1.745788574,0.580352783,1,0,0,0,101,101,95,1,,,,,,,,
,,,,,,,,,,,,,FF,,,,,,,,1.1191,,,,,,,,,,,,,,,,,,,,,,60ff41357ba0444d4858f86e,61036a078d4ce36d1951f685,2021-07-29_22h55.45.207,Simcolourproject_2stim_asymm_v5,2020.2.10,Linux x86_64,60,61025ae37ef11b136ea224fe,,,,,,,,,3426,-97.18347168,-29.59799194,1,0,0,response5disk,,2,-14.16046143,-1.354156494,1,0,0,rectangle,78.5614624,18.76473999,1,0,0,-15.32434082,-3.288665771,1,0,0,0,102,102,93,1,,response1disk_3,TRUE,6,6,"[66,323,241,32,103,66,280,115,267,232,122,213,72,125,170,252,152,167,305,129]",1.392,rectangle
,,,,,,,,,,,,,FF,,,,,,,,0.7674,,,,,,,,,,,,,,,,,,,,,,60ff41357ba0444d4858f86e,61036a078d4ce36d1951f685,2021-07-29_22h55.45.207,Simcolourproject_2stim_asymm_v5,2020.2.10,Linux x86_64,60,61025ae37ef11b136ea224fe,,,,,,,,,3279,27.73901367,98.4664917,1,0,0,response1disk,,7,-6.789245605,1.354156494,1,0,0,rectangle,-6.789245605,1.354156494,1,0,0,-6.789245605,1.354156494,1,0,0,0,103,103,148,1,,,,,,,,
,,,,,,,,,,,,,FF,,,,,,,,1.2931,,,,,,,,,,,,,,,,,,,,,,60ff41357ba0444d4858f86e,61036a078d4ce36d1951f685,2021-07-29_22h55.45.207,Simcolourproject_2stim_asymm_v5,2020.2.10,Linux x86_64,60,61025ae37ef11b136ea224fe,,,,,,,,,613,-51.79241943,-84.15112305,1,0,0,response5disk,,3,-14.93640137,4.062469482,1,0,0,rectangle,-14.93640137,4.062469482,1,0,0,-14.93640137,4.062469482,1,0,0,0,104,104,159,1,,,,,,,,
,,,,,,,,,,,,,FF,,,,,,,,0.6275,,,,,,,,,,,,,,,,,,,,,,60ff41357ba0444d4858f86e,61036a078d4ce36d1951f685,2021-07-29_22h55.45.207,Simcolourproject_2stim_asymm_v5,2020.2.10,Linux x86_64,60,61025ae37ef11b136ea224fe,,,,,,,,,2380,23.08349609,88.79394531,1,0,0,response1disk,,7,-10.66888428,-4.062469482,1,0,0,rectangle,-10.66888428,-4.062469482,1,0,0,-10.66888428,-4.062469482,1,0,0,0,105,105,112,1,,,,,,,,
,,,,,,,,,,,,,FF,,,,,,,,0.5244,,,,,,,,,,,,,,,,,,,,,,60ff41357ba0444d4858f86e,61036a078d4ce36d1951f685,2021-07-29_22h55.45.207,Simcolourproject_2stim_asymm_v5,2020.2.10,Linux x86_64,60,61025ae37ef11b136ea224fe,,,,,,,,,3655,32.78240967,74.86547852,1,0,0,response1disk,,7,-3.68560791,-4.449371338,1,0,0,rectangle,-3.68560791,-4.449371338,1,0,0,-3.68560791,-4.449371338,1,0,0,0,106,106,59,1,,,,,,,,
,,,,,,,,,,,,,FF,,,,,,,,0.8337,,,,,,,,,,,,,,,,,,,,,,60ff41357ba0444d4858f86e,61036a078d4ce36d1951f685,2021-07-29_22h55.45.207,Simcolourproject_2stim_asymm_v5,2020.2.10,Linux x86_64,60,61025ae37ef11b136ea224fe,,,,,,,,,2284,36.27404785,106.9783325,1,0,0,response1disk,,7,-7.565185547,7.931488037,1,0,0,rectangle,-7.565185547,7.931488037,1,0,0,-7.565185547,7.931488037,1,0,0,0,107,107,75,1,,,,,,,,
,,,,,,,,,,,,,FF,,,,,,,,0.6559,,,,,,,,,,,,,,,,,,,,,,60ff41357ba0444d4858f86e,61036a078d4ce36d1951f685,2021-07-29_22h55.45.207,Simcolourproject_2stim_asymm_v5,2020.2.10,Linux x86_64,60,61025ae37ef11b136ea224fe,,,,,,,,,983,28.51489258,89.18084717,1,0,0,response1disk,,7,-18.42803955,2.127960205,1,0,0,rectangle,-18.42803955,2.127960205,1,0,0,-18.42803955,2.127960205,1,0,0,0,108,108,64,1,,,,,,,,
,,,,,,,,,,,,,FF,,,,,,,,1.6296,,,,,,,,,,,,,,,,,,,,,,60ff41357ba0444d4858f86e,61036a078d4ce36d1951f685,2021-07-29_22h55.45.207,Simcolourproject_2stim_asymm_v5,2020.2.10,Linux x86_64,60,61025ae37ef11b136ea224fe,,,,,,,,,3711,32.39447021,-70.99649048,1,0,0,response3disk,,4,-12.60864258,-2.514862061,1,0,0,rectangle,-12.60864258,-2.514862061,1,0,0,-12.60864258,-2.514862061,1,0,0,0,109,109,44,1,,,,,,,,
,,,,,,,,,,,,,FF,,,,,,,,0.684,,,,,,,,,,,,,,,,,,,,,,60ff41357ba0444d4858f86e,61036a078d4ce36d1951f685,2021-07-29_22h55.45.207,Simcolourproject_2stim_asymm_v5,2020.2.10,Linux x86_64,60,61025ae37ef11b136ea224fe,,,,,,,,,45,35.8861084,89.18084717,1,0,0,response1disk,,7,-12.60864258,0.580352783,1,0,0,rectangle,-12.60864258,0.580352783,1,0,0,-12.60864258,0.580352783,1,0,0,0,110,110,115,1,,,,,,,,
,,,,,,,,,,,,,FF,,,,,,,,0.5899,,,,,,,,,,,,,,,,,,,,,,60ff41357ba0444d4858f86e,61036a078d4ce36d1951f685,2021-07-29_22h55.45.207,Simcolourproject_2stim_asymm_v5,2020.2.10,Linux x86_64,60,61025ae37ef11b136ea224fe,,,,,,,,,540,28.12695313,98.07958984,1,0,0,response1disk,,7,-16.10028076,-1.74105835,1,0,0,rectangle,-16.10028076,-1.74105835,1,0,0,-16.10028076,-1.74105835,1,0,0,0,111,111,157,1,,,,,,,,
,,,,,,,,,,,,,FF,,,,,,,,0.5616,,,,,,,,,,,,,,,,,,,,,,60ff41357ba0444d4858f86e,61036a078d4ce36d1951f685,2021-07-29_22h55.45.207,Simcolourproject_2stim_asymm_v5,2020.2.10,Linux x86_64,60,61025ae37ef11b136ea224fe,,,,,,,,,1623,41.70544434,85.31182861,1,0,0,response1disk,,7,-5.237426758,0.580352783,1,0,0,rectangle,-5.237426758,0.580352783,1,0,0,-5.237426758,0.580352783,1,0,0,0,112,112,7,1,,,,,,,,
,,,,,,,,,,,,,FF,,,,,,,,1.0735,,,,,,,,,,,,,,,,,,,,,,60ff41357ba0444d4858f86e,61036a078d4ce36d1951f685,2021-07-29_22h55.45.207,Simcolourproject_2stim_asymm_v5,2020.2.10,Linux x86_64,60,61025ae37ef11b136ea224fe,,,,,,,,,1313,20.36779785,-68.28817749,1,0,0,response3disk,,4,1.357849121,3.288665771,1,0,0,rectangle,1.357849121,3.288665771,1,0,0,1.357849121,3.288665771,1,0,0,0,113,113,15,1,,,,,,,,
,,,,,,,,,,,,,FF,,,,,,,,0.6094,,,,,,,,,,,,,,,,,,,,,,60ff41357ba0444d4858f86e,61036a078d4ce36d1951f685,2021-07-29_22h55.45.207,Simcolourproject_2stim_asymm_v5,2020.2.10,Linux x86_64,60,61025ae37ef11b136ea224fe,,,,,,,,,416,38.21386719,79.89520264,1,0,0,response1disk,,7,-11.44476318,-5.223175049,1,0,0,rectangle,-54.12011719,87.63323975,1,0,0,-10.66888428,2.514862061,1,0,0,0,114,114,71,1,,response7disk_3,TRUE,0,0,"[66,323,241,32,103,66,280,115,267,232,122,213,72,125,170,252,152,167,305,129]",1.7875,rectangle
,,,,,,,,,,,,,FF,,,,,,,,0.7212,,,,,,,,,,,,,,,,,,,,,,60ff41357ba0444d4858f86e,61036a078d4ce36d1951f685,2021-07-29_22h55.45.207,Simcolourproject_2stim_asymm_v5,2020.2.10,Linux x86_64,60,61025ae37ef11b136ea224fe,,,,,,,,,446,25.02325439,107.7521362,1,0,0,response1disk,,7,-11.05682373,-1.354156494,1,0,0,rectangle,-11.05682373,-1.354156494,1,0,0,-11.05682373,-1.354156494,1,0,0,0,115,115,70,1,,,,,,,,
,,,,,,,,,,,,,FF,,,,,,,,1.1288,,,,,,,,,,,,,,,,,,,,,,60ff41357ba0444d4858f86e,61036a078d4ce36d1951f685,2021-07-29_22h55.45.207,Simcolourproject_2stim_asymm_v5,2020.2.10,Linux x86_64,60,61025ae37ef11b136ea224fe,,,,,,,,,4259,32.00653076,114.3294678,1,0,0,response1disk,,7,-12.22070313,-4.836273193,1,0,0,rectangle,-12.22070313,-4.836273193,1,0,0,-12.22070313,-4.836273193,1,0,0,0,116,116,130,1,,,,,,,,
,,,,,,,,,,,,,FF,,,,,,,,1.6976,,,,,,,,,,,,,,,,,,,,,,60ff41357ba0444d4858f86e,61036a078d4ce36d1951f685,2021-07-29_22h55.45.207,Simcolourproject_2stim_asymm_v5,2020.2.10,Linux x86_64,60,61025ae37ef11b136ea224fe,,,,,,,,,3552,-97.95941162,52.42520142,1,0,0,response7disk,,1,-4.849487305,7.157684326,1,0,0,rectangle,-4.849487305,7.157684326,1,0,0,-4.849487305,7.157684326,1,0,0,0,117,117,31,1,,,,,,,,
,,,,,,,,,,,,,FF,,,,,,,,0.5488,,,,,,,,,,,,,,,,,,,,,,60ff41357ba0444d4858f86e,61036a078d4ce36d1951f685,2021-07-29_22h55.45.207,Simcolourproject_2stim_asymm_v5,2020.2.10,Linux x86_64,60,61025ae37ef11b136ea224fe,,,,,,,,,364,29.29083252,61.71081543,1,0,0,response1disk,,7,-12.60864258,3.675567627,1,0,0,rectangle,-12.60864258,3.675567627,1,0,0,-12.60864258,3.675567627,1,0,0,0,118,118,24,1,,,,,,,,
,,,,,,,,,,,,,FF,,,,,,,,0.848,,,,,,,,,,,,,,,,,,,,,,60ff41357ba0444d4858f86e,61036a078d4ce36d1951f685,2021-07-29_22h55.45.207,Simcolourproject_2stim_asymm_v5,2020.2.10,Linux x86_64,60,61025ae37ef11b136ea224fe,,,,,,,,,1377,-52.56829834,-79.89520264,1,0,0,response5disk,,3,-12.22070313,2.127960205,1,0,0,rectangle,-12.22070313,2.127960205,1,0,0,-12.22070313,2.127960205,1,0,0,0,119,119,99,1,,,,,,,,
,,,,,,,,,,,,,FF,,,,,,,,1.268,,,,,,,,,,,,,,,,,,,,,,60ff41357ba0444d4858f86e,61036a078d4ce36d1951f685,2021-07-29_22h55.45.207,Simcolourproject_2stim_asymm_v5,2020.2.10,Linux x86_64,60,61025ae37ef11b136ea224fe,,,,,,,,,3824,26.57513428,-67.51437378,1,0,0,response3disk,,4,-3.68560791,-4.062469482,1,0,0,rectangle,-3.68560791,-4.062469482,1,0,0,-3.68560791,-4.062469482,1,0,0,0,120,120,120,1,,,,,,,,
,,,,,,,,,,,,,FF,,,,,,,,0.5177,,,,,,,,,,,,,,,,,,,,,,60ff41357ba0444d4858f86e,61036a078d4ce36d1951f685,2021-07-29_22h55.45.207,Simcolourproject_2stim_asymm_v5,2020.2.10,Linux x86_64,60,61025ae37ef11b136ea224fe,,,,,,,,,2323,22.30755615,94.21057129,1,0,0,response1disk,,7,-14.93640137,5.223175049,1,0,0,rectangle,77.00964355,25.34207153,1,0,0,-11.05682373,0.967254639,1,0,0,0,121,121,10,1,,response1disk_3,TRUE,6,6,"[66,323,241,32,103,66,280,115,267,232,122,213,72,125,170,252,152,167,305,129]",1.3257,rectangle
,,,,,,,,,,,,,FF,,,,,,,,1.9388,,,,,,,,,,,,,,,,,,,,,,60ff41357ba0444d4858f86e,61036a078d4ce36d1951f685,2021-07-29_22h55.45.207,Simcolourproject_2stim_asymm_v5,2020.2.10,Linux x86_64,60,61025ae37ef11b136ea224fe,,,,,,,,,2174,-42.48138428,-93.43676758,1,0,0,response5disk,,3,-9.117004395,-7.931488037,1,0,0,rectangle,-9.117004395,-7.931488037,1,0,0,-9.117004395,-7.931488037,1,0,0,0,122,122,28,1,,,,,,,,
,,,,,,,,,,,,,FF,,,,,,,,1.4774,,,,,,,,,,,,,,,,,,,,,,60ff41357ba0444d4858f86e,61036a078d4ce36d1951f685,2021-07-29_22h55.45.207,Simcolourproject_2stim_asymm_v5,2020.2.10,Linux x86_64,60,61025ae37ef11b136ea224fe,,,,,,,,,2305,26.57513428,99.62719727,1,0,0,response1disk,,7,-6.789245605,8.705291748,1,0,0,rectangle,-6.789245605,8.705291748,1,0,0,-6.789245605,8.705291748,1,0,0,0,123,123,127,1,,,,,,,,
,,,,,,,,,,,,,FF,,,,,,,,1.7443,,,,,,,,,,,,,,,,,,,,,,60ff41357ba0444d4858f86e,61036a078d4ce36d1951f685,2021-07-29_22h55.45.207,Simcolourproject_2stim_asymm_v5,2020.2.10,Linux x86_64,60,61025ae37ef11b136ea224fe,,,,,,,,,4266,-65.75891113,100.7879028,1,0,0,response7disk,,0,-14.54846191,-12.96121216,1,0,0,rectangle,73.90600586,-37.72293091,1,0,0,-11.05682373,-11.41360474,1,0,0,0,124,124,141,1,,response3disk_3,TRUE,5,5,"[66,323,241,32,103,66,280,115,267,232,122,213,72,125,170,252,152,167,305,129]",1.7576,rectangle
,,,,,,,,,,,,,FF,,,,,,,,1.4141,,,,,,,,,,,,,,,,,,,,,,60ff41357ba0444d4858f86e,61036a078d4ce36d1951f685,2021-07-29_22h55.45.207,Simcolourproject_2stim_asymm_v5,2020.2.10,Linux x86_64,60,61025ae37ef11b136ea224fe,,,,,,,,,4348,22.69555664,-93.43676758,1,0,0,response3disk,,4,-12.99658203,4.449371338,1,0,0,rectangle,-12.99658203,4.449371338,1,0,0,-12.99658203,4.449371338,1,0,0,0,125,125,83,1,,,,,,,,
,,,,,,,,,,,,,FF,,,,,,,,0.6291,,,,,,,,,,,,,,,,,,,,,,60ff41357ba0444d4858f86e,61036a078d4ce36d1951f685,2021-07-29_22h55.45.207,Simcolourproject_2stim_asymm_v5,2020.2.10,Linux x86_64,60,61025ae37ef11b136ea224fe,,,,,,,,,1976,32.00653076,86.08563232,1,0,0,response1disk,,7,-1.357849121,7.931488037,1,0,0,rectangle,-1.357849121,7.931488037,1,0,0,-1.357849121,7.931488037,1,0,0,0,126,126,114,1,,,,,,,,
,,,,,,,,,,,,,FF,,,,,,,,0.6566,,,,,,,,,,,,,,,,,,,,,,60ff41357ba0444d4858f86e,61036a078d4ce36d1951f685,2021-07-29_22h55.45.207,Simcolourproject_2stim_asymm_v5,2020.2.10,Linux x86_64,60,61025ae37ef11b136ea224fe,,,,,,,,,2495,37.43792725,104.6569214,1,0,0,response1disk,,7,6.013366699,-9.092193604,1,0,0,rectangle,6.013366699,-9.092193604,1,0,0,6.013366699,-9.092193604,1,0,0,0,127,127,60,1,,,,,,,,
,,,,,,,,,,,,,FF,,,,,,,,1.1493,,,,,,,,,,,,,,,,,,,,,,60ff41357ba0444d4858f86e,61036a078d4ce36d1951f685,2021-07-29_22h55.45.207,Simcolourproject_2stim_asymm_v5,2020.2.10,Linux x86_64,60,61025ae37ef11b136ea224fe,,,,,,,,,3861,84.38085938,45.07406616,1,0,0,response1disk,,6,-15.32434082,3.675567627,1,0,0,rectangle,-38.98980713,79.12139893,1,0,0,-1.357849121,11.41360474,1,0,0,0,128,128,50,1,,response7disk_3,TRUE,0,0,"[66,323,241,32,103,66,280,115,267,232,122,213,72,125,170,252,152,167,305,129]",1.2317,rectangle
,,,,,,,,,,,,,FF,,,,,,,,1.5482,,,,,,,,,,,,,,,,,,,,,,60ff41357ba0444d4858f86e,61036a078d4ce36d1951f685,2021-07-29_22h55.45.207,Simcolourproject_2stim_asymm_v5,2020.2.10,Linux x86_64,60,61025ae37ef11b136ea224fe,,,,,,,,,2489,65.37091064,21.47305298,1,0,0,response1disk,,6,-6.401306152,-10.25289917,1,0,0,rectangle,-6.401306152,-10.25289917,1,0,0,-6.401306152,-10.25289917,1,0,0,0,129,129,23,1,,,,,,,,
,,,,,,,,,,,,,FF,,,,,,,,1.2591,,,,,,,,,,,,,,,,,,,,,,60ff41357ba0444d4858f86e,61036a078d4ce36d1951f685,2021-07-29_22h55.45.207,Simcolourproject_2stim_asymm_v5,2020.2.10,Linux x86_64,60,61025ae37ef11b136ea224fe,,,,,,,,,4239,84.76879883,-47.39547729,1,0,0,response3disk,,5,7.565185547,-4.062469482,1,0,0,rectangle,7.565185547,-4.062469482,1,0,0,7.565185547,-4.062469482,1,0,0,0,130,130,135,1,,,,,,,,
,,,,,,,,,,,,,FF,,,,,,,,1.2763,,,,,,,,,,,,,,,,,,,,,,60ff41357ba0444d4858f86e,61036a078d4ce36d1951f685,2021-07-29_22h55.45.207,Simcolourproject_2stim_asymm_v5,2020.2.10,Linux x86_64,60,61025ae37ef11b136ea224fe,,,,,,,,,970,37.8258667,-85.69873047,1,0,0,response3disk,,4,-0.581970215,2.901763916,1,0,0,rectangle,-0.581970215,2.901763916,1,0,0,-0.581970215,2.901763916,1,0,0,0,131,131,100,1,,,,,,,,
,,,,,,,,,,,,,FF,,,,,,,,0.6818,,,,,,,,,,,,,,,,,,,,,,60ff41357ba0444d4858f86e,61036a078d4ce36d1951f685,2021-07-29_22h55.45.207,Simcolourproject_2stim_asymm_v5,2020.2.10,Linux x86_64,60,61025ae37ef11b136ea224fe,,,,,,,,,1394,33.17041016,87.63323975,1,0,0,response1disk,,7,-4.849487305,-4.836273193,1,0,0,rectangle,-4.849487305,-4.836273193,1,0,0,-4.849487305,-4.836273193,1,0,0,0,132,132,80,1,,,,,,,,
,,,,,,,,,,,,,FF,,,,,,,,1.7015,,,,,,,,,,,,,,,,,,,,,,60ff41357ba0444d4858f86e,61036a078d4ce36d1951f685,2021-07-29_22h55.45.207,Simcolourproject_2stim_asymm_v5,2020.2.10,Linux x86_64,60,61025ae37ef11b136ea224fe,,,,,,,,,986,48.6887207,74.86547852,1,0,0,response1disk,,7,-1.745849609,-1.354156494,1,0,0,rectangle,-1.745849609,-1.354156494,1,0,0,-1.745849609,-1.354156494,1,0,0,0,133,133,61,1,,,,,,,,
,,,,,,,,,,,,,FF,,,,,,,,1.0218,,,,,,,,,,,,,,,,,,,,,,60ff41357ba0444d4858f86e,61036a078d4ce36d1951f685,2021-07-29_22h55.45.207,Simcolourproject_2stim_asymm_v5,2020.2.10,Linux x86_64,60,61025ae37ef11b136ea224fe,,,,,,,,,726,25.79919434,-76.41311646,1,0,0,response3disk,,4,-10.28088379,-2.514862061,1,0,0,rectangle,-10.28088379,-2.514862061,1,0,0,-10.28088379,-2.514862061,1,0,0,0,134,134,85,1,,,,,,,,
,,,,,,,,,,,,,FF,,,,,,,,0.5763,,,,,,,,,,,,,,,,,,,,,,60ff41357ba0444d4858f86e,61036a078d4ce36d1951f685,2021-07-29_22h55.45.207,Simcolourproject_2stim_asymm_v5,2020.2.10,Linux x86_64,60,61025ae37ef11b136ea224fe,,,,,,,,,2701,28.51489258,78.34759521,1,0,0,response1disk,,7,-9.892944336,-1.354156494,1,0,0,rectangle,-9.892944336,-1.354156494,1,0,0,-9.892944336,-1.354156494,1,0,0,0,135,135,121,1,,,,,,,,
,,,,,,,,,,,,,FF,,,,,,,,0.9885,,,,,,,,,,,,,,,,,,,,,,60ff41357ba0444d4858f86e,61036a078d4ce36d1951f685,2021-07-29_22h55.45.207,Simcolourproject_2stim_asymm_v5,2020.2.10,Linux x86_64,60,61025ae37ef11b136ea224fe,,,,,,,,,4218,-55.28399658,93.43676758,1,0,0,response7disk,,0,-15.32434082,5.99697876,1,0,0,rectangle,-15.32434082,5.99697876,1,0,0,-15.32434082,5.99697876,1,0,0,0,136,136,104,1,,,,,,,,
,,,,,,,,,,,,,FF,,,,,,,,0.6875,,,,,,,,,,,,,,,,,,,,,,60ff41357ba0444d4858f86e,61036a078d4ce36d1951f685,2021-07-29_22h55.45.207,Simcolourproject_2stim_asymm_v5,2020.2.10,Linux x86_64,60,61025ae37ef11b136ea224fe,,,,,,,,,43,38.21386719,84.92492676,1,0,0,response1disk,,7,-0.193969727,-11.02670288,1,0,0,rectangle,-0.193969727,-11.02670288,1,0,0,-0.193969727,-11.02670288,1,0,0,0,137,137,125,1,,,,,,,,
,,,,,,,,,,,,,FF,,,,,,,,1.7765,,,,,,,,,,,,,,,,,,,,,,60ff41357ba0444d4858f86e,61036a078d4ce36d1951f685,2021-07-29_22h55.45.207,Simcolourproject_2stim_asymm_v5,2020.2.10,Linux x86_64,60,61025ae37ef11b136ea224fe,,,,,,,,,1442,44.03320313,96.14508057,1,0,0,response1disk,,7,11.83270264,-2.901763916,1,0,0,rectangle,11.83270264,-2.901763916,1,0,0,11.83270264,-2.901763916,1,0,0,0,138,138,132,1,,,,,,,,
,,,,,,,,,,,,,FF,,,,,,,,0.8312,,,,,,,,,,,,,,,,,,,,,,60ff41357ba0444d4858f86e,61036a078d4ce36d1951f685,2021-07-29_22h55.45.207,Simcolourproject_2stim_asymm_v5,2020.2.10,Linux x86_64,60,61025ae37ef11b136ea224fe,,,,,,,,,4135,33.55834961,86.85943604,1,0,0,response1disk,,7,-11.05682373,-5.223175049,1,0,0,rectangle,-11.05682373,-5.223175049,1,0,0,-11.05682373,-5.223175049,1,0,0,0,139,139,54,1,,,,,,,,
,,,,,,,,,,,,,FF,,,,,,,,1.67,,,,,,,,,,,,,,,,,,,,,,60ff41357ba0444d4858f86e,61036a078d4ce36d1951f685,2021-07-29_22h55.45.207,Simcolourproject_2stim_asymm_v5,2020.2.10,Linux x86_64,60,61025ae37ef11b136ea224fe,,,,,,,,,1299,56.05993652,32.30630493,1,0,0,response1disk,,6,-3.68560791,2.127960205,1,0,0,rectangle,-3.68560791,2.127960205,1,0,0,-3.68560791,2.127960205,1,0,0,0,140,140,19,1,,,,,,,,
,,,,,,,,,,,,,FF,,,,,,,,1.2604,,,,,,,,,,,,,,,,,,,,,,60ff41357ba0444d4858f86e,61036a078d4ce36d1951f685,2021-07-29_22h55.45.207,Simcolourproject_2stim_asymm_v5,2020.2.10,Linux x86_64,60,61025ae37ef11b136ea224fe,,,,,,,,,2132,25.02325439,112.7818604,1,0,0,response1disk,,7,-23.85943604,2.901763916,1,0,0,rectangle,-23.85943604,2.901763916,1,0,0,-23.85943604,2.901763916,1,0,0,0,141,141,138,1,,,,,,,,
,,,,,,,,,,,,,FF,,,,,,,,1.138,,,,,,,,,,,,,,,,,,,,,,60ff41357ba0444d4858f86e,61036a078d4ce36d1951f685,2021-07-29_22h55.45.207,Simcolourproject_2stim_asymm_v5,2020.2.10,Linux x86_64,60,61025ae37ef11b136ea224fe,,,,,,,,,4009,53.73217773,80.66900635,1,0,0,response1disk,,7,2.133728027,10.25289917,1,0,0,rectangle,2.133728027,10.25289917,1,0,0,2.133728027,10.25289917,1,0,0,0,142,142,96,1,,,,,,,,
,,,,,,,,,,,,,FF,,,,,,,,0.9113,,,,,,,,,,,,,,,,,,,,,,60ff41357ba0444d4858f86e,61036a078d4ce36d1951f685,2021-07-29_22h55.45.207,Simcolourproject_2stim_asymm_v5,2020.2.10,Linux x86_64,60,61025ae37ef11b136ea224fe,,,,,,,,,876,30.06671143,81.0559082,1,0,0,response1disk,,7,-8.729064941,-7.544586182,1,0,0,rectangle,-8.729064941,-7.544586182,1,0,0,-8.729064941,-7.544586182,1,0,0,0,143,143,52,1,,,,,,,,
,,,,,,,,,,,,,FF,,,,,,,,0.5259,,,,,,,,,,,,,,,,,,,,,,60ff41357ba0444d4858f86e,61036a078d4ce36d1951f685,2021-07-29_22h55.45.207,Simcolourproject_2stim_asymm_v5,2020.2.10,Linux x86_64,60,61025ae37ef11b136ea224fe,,,,,,,,,2198,30.84265137,72.54406738,1,0,0,response1disk,,7,-21.53167725,-12.5743103,1,0,0,rectangle,-21.53167725,-12.5743103,1,0,0,-21.53167725,-12.5743103,1,0,0,0,144,144,97,1,,,,,,,,
,,,,,,,,,,,,,FF,,,,,,,,1.405,,,,,,,,,,,,,,,,,,,,,,60ff41357ba0444d4858f86e,61036a078d4ce36d1951f685,2021-07-29_22h55.45.207,Simcolourproject_2stim_asymm_v5,2020.2.10,Linux x86_64,60,61025ae37ef11b136ea224fe,,,,,,,,,3388,-102.6148682,-65.96676636,1,0,0,response5disk,,2,-2.909667969,-6.383880615,1,0,0,rectangle,-2.909667969,-6.383880615,1,0,0,-2.909667969,-6.383880615,1,0,0,0,145,145,46,1,,,,,,,,
,,,,,,,,,,,,,FF,,,,,,,,2.2119,,,,,,,,,,,,,,,,,,,,,,60ff41357ba0444d4858f86e,61036a078d4ce36d1951f685,2021-07-29_22h55.45.207,Simcolourproject_2stim_asymm_v5,2020.2.10,Linux x86_64,60,61025ae37ef11b136ea224fe,,,,,,,,,3823,77.00964355,26.11587524,1,0,0,response1disk,,6,6.789245605,-7.544586182,1,0,0,rectangle,6.789245605,-7.544586182,1,0,0,6.789245605,-7.544586182,1,0,0,0,146,146,38,1,,,,,,,,
,,,,,,,,,,,,,FF,,,,,,,,0.7039,,,,,,,,,,,,,,,,,,,,,,60ff41357ba0444d4858f86e,61036a078d4ce36d1951f685,2021-07-29_22h55.45.207,Simcolourproject_2stim_asymm_v5,2020.2.10,Linux x86_64,60,61025ae37ef11b136ea224fe,,,,,,,,,1105,29.29083252,87.63323975,1,0,0,response1disk,,7,-13.77252197,-15.28262329,1,0,0,rectangle,-13.77252197,-15.28262329,1,0,0,-13.77252197,-15.28262329,1,0,0,0,147,147,34,1,,,,,,,,
,,,,,,,,,,,,,FF,,,,,,,,1.3859,,,,,,,,,,,,,,,,,,,,,,60ff41357ba0444d4858f86e,61036a078d4ce36d1951f685,2021-07-29_22h55.45.207,Simcolourproject_2stim_asymm_v5,2020.2.10,Linux x86_64,60,61025ae37ef11b136ea224fe,,,,,,,,,807,59.55151367,-24.18136597,1,0,0,response3disk,,5,0.969909668,1.354156494,1,0,0,rectangle,0.969909668,1.354156494,1,0,0,0.969909668,1.354156494,1,0,0,0,148,148,103,1,,,,,,,,
,,,,,,,,,,,,,FF,,,,,,,,0.6478,,,,,,,,,,,,,,,,,,,,,,60ff41357ba0444d4858f86e,61036a078d4ce36d1951f685,2021-07-29_22h55.45.207,Simcolourproject_2stim_asymm_v5,2020.2.10,Linux x86_64,60,61025ae37ef11b136ea224fe,,,,,,,,,1942,22.30755615,86.85943604,1,0,0,response1disk,,7,-14.16046143,-15.28262329,1,0,0,rectangle,-14.16046143,-15.28262329,1,0,0,-14.16046143,-15.28262329,1,0,0,0,149,149,107,1,,,,,,,,
,,,,,,,,,,,,,FF,,,,,,,,1.016,,,,,,,,,,,,,,,,,,,,,,60ff41357ba0444d4858f86e,61036a078d4ce36d1951f685,2021-07-29_22h55.45.207,Simcolourproject_2stim_asymm_v5,2020.2.10,Linux x86_64,60,61025ae37ef11b136ea224fe,,,,,,,,,2291,-98.73529053,45.84786987,1,0,0,response7disk,,1,0.193969727,-7.544586182,1,0,0,rectangle,0.193969727,-7.544586182,1,0,0,0.193969727,-7.544586182,1,0,0,0,150,150,68,1,,,,,,,,
,,,,,,,,,,,,,FF,,,,,,,,1.0441,,,,,,,,,,,,,,,,,,,,,,60ff41357ba0444d4858f86e,61036a078d4ce36d1951f685,2021-07-29_22h55.45.207,Simcolourproject_2stim_asymm_v5,2020.2.10,Linux x86_64,60,61025ae37ef11b136ea224fe,,,,,,,,,590,42.48138428,74.0916748,1,0,0,response1disk,,7,-14.16046143,-4.062469482,1,0,0,rectangle,-56.44787598,-88.40704346,1,0,0,4.849487305,5.610076904,1,0,0,0,151,151,137,1,,response5disk_3,TRUE,3,3,"[66,323,241,32,103,66,280,115,267,232,122,213,72,125,170,252,152,167,305,129]",1.5569,rectangle
,,,,,,,,,,,,,FF,,,,,,,,1.2841,,,,,,,,,,,,,,,,,,,,,,60ff41357ba0444d4858f86e,61036a078d4ce36d1951f685,2021-07-29_22h55.45.207,Simcolourproject_2stim_asymm_v5,2020.2.10,Linux x86_64,60,61025ae37ef11b136ea224fe,,,,,,,,,1858,34.33428955,97.30578613,1,0,0,response1disk,,7,-12.60864258,12.96121216,1,0,0,rectangle,-12.60864258,12.96121216,1,0,0,-12.60864258,12.96121216,1,0,0,0,152,152,106,1,,,,,,,,
,,,,,,,,,,,,,FF,,,,,,,,1.2501,,,,,,,,,,,,,,,,,,,,,,60ff41357ba0444d4858f86e,61036a078d4ce36d1951f685,2021-07-29_22h55.45.207,Simcolourproject_2stim_asymm_v5,2020.2.10,Linux x86_64,60,61025ae37ef11b136ea224fe,,,,,,,,,3829,84.38085938,44.30026245,1,0,0,response1disk,,6,-5.625427246,-1.354156494,1,0,0,rectangle,-5.625427246,-1.354156494,1,0,0,-5.625427246,-1.354156494,1,0,0,0,153,153,89,1,,,,,,,,
,,,,,,,,,,,,,FF,,,,,,,,1.0296,,,,,,,,,,,,,,,,,,,,,,60ff41357ba0444d4858f86e,61036a078d4ce36d1951f685,2021-07-29_22h55.45.207,Simcolourproject_2stim_asymm_v5,2020.2.10,Linux x86_64,60,61025ae37ef11b136ea224fe,,,,,,,,,4283,38.21386719,-82.21661377,1,0,0,response3disk,,4,-8.341125488,-9.865997314,1,0,0,rectangle,-8.341125488,-9.865997314,1,0,0,-8.341125488,-9.865997314,1,0,0,0,154,154,45,1,,,,,,,,
,,,,,,,,,,,,,FF,,,,,,,,0.4784,,,,,,,,,,,,,,,,,,,,,,60ff41357ba0444d4858f86e,61036a078d4ce36d1951f685,2021-07-29_22h55.45.207,Simcolourproject_2stim_asymm_v5,2020.2.10,Linux x86_64,60,61025ae37ef11b136ea224fe,,,,,,,,,767,21.53167725,84.5380249,1,0,0,response1disk,,7,-4.461547852,11.80050659,1,0,0,rectangle,-4.461547852,11.80050659,1,0,0,-4.461547852,11.80050659,1,0,0,0,155,155,18,1,,,,,,,,
,,,,,,,,,,,,,FF,,,,,,,,0.5659,,,,,,,,,,,,,,,,,,,,,,60ff41357ba0444d4858f86e,61036a078d4ce36d1951f685,2021-07-29_22h55.45.207,Simcolourproject_2stim_asymm_v5,2020.2.10,Linux x86_64,60,61025ae37ef11b136ea224fe,,,,,,,,,2641,32.78240967,70.60955811,1,0,0,response1disk,,7,0.969909668,13.73501587,1,0,0,rectangle,0.969909668,13.73501587,1,0,0,0.969909668,13.73501587,1,0,0,0,156,156,47,1,,,,,,,,
,,,,,,,,,,,,,FF,,,,,,,,0.6137,,,,,,,,,,,,,,,,,,,,,,60ff41357ba0444d4858f86e,61036a078d4ce36d1951f685,2021-07-29_22h55.45.207,Simcolourproject_2stim_asymm_v5,2020.2.10,Linux x86_64,60,61025ae37ef11b136ea224fe,,,,,,,,,3095,36.6619873,81.82971191,1,0,0,response1disk,,7,0.969909668,2.514862061,1,0,0,rectangle,0.969909668,2.514862061,1,0,0,0.969909668,2.514862061,1,0,0,0,157,157,101,1,,,,,,,,
,,,,,,,,,,,,,FF,,,,,,,,0.6016,,,,,,,,,,,,,,,,,,,,,,60ff41357ba0444d4858f86e,61036a078d4ce36d1951f685,2021-07-29_22h55.45.207,Simcolourproject_2stim_asymm_v5,2020.2.10,Linux x86_64,60,61025ae37ef11b136ea224fe,,,,,,,,,2642,35.49816895,91.88916016,1,0,0,response1disk,,7,-13.77252197,-0.967254639,1,0,0,rectangle,-13.77252197,-0.967254639,1,0,0,-13.77252197,-0.967254639,1,0,0,0,158,158,17,1,,,,,,,,
,,,,,,,,,,,,,FF,,,,,,,,0.7003,,,,,,,,,,,,,,,,,,,,,,60ff41357ba0444d4858f86e,61036a078d4ce36d1951f685,2021-07-29_22h55.45.207,Simcolourproject_2stim_asymm_v5,2020.2.10,Linux x86_64,60,61025ae37ef11b136ea224fe,,,,,,,,,4220,37.04998779,94.21057129,1,0,0,response1disk,,7,-4.849487305,4.062469482,1,0,0,rectangle,-4.849487305,4.062469482,1,0,0,-4.849487305,4.062469482,1,0,0,0,159,159,86,1,,,,,,,,
,,,,,,,,,,,,,FF,,,,,,,,0.5853,,,,,,,,,,,,,,,,,,,,,,60ff41357ba0444d4858f86e,61036a078d4ce36d1951f685,2021-07-29_22h55.45.207,Simcolourproject_2stim_asymm_v5,2020.2.10,Linux x86_64,60,61025ae37ef11b136ea224fe,,,,,,,,,3918,30.45471191,79.89520264,1,0,0,response1disk,,7,2.133728027,-9.865997314,1,0,0,rectangle,2.133728027,-9.865997314,1,0,0,2.133728027,-9.865997314,1,0,0,1,0,160,18,1,,,,,,,,
,,,,,,,,,,,,,FF,,,,,,,,0.935,,,,,,,,,,,,,,,,,,,,,,60ff41357ba0444d4858f86e,61036a078d4ce36d1951f685,2021-07-29_22h55.45.207,Simcolourproject_2stim_asymm_v5,2020.2.10,Linux x86_64,60,61025ae37ef11b136ea224fe,,,,,,,,,3248,-38.98980713,-93.04986572,1,0,0,response5disk,,3,-12.60864258,-8.705291748,1,0,0,rectangle,-12.60864258,-8.705291748,1,0,0,-12.60864258,-8.705291748,1,0,0,1,1,161,95,1,,,,,,,,
,,,,,,,,,,,,,FF,,,,,,,,0.8446,,,,,,,,,,,,,,,,,,,,,,60ff41357ba0444d4858f86e,61036a078d4ce36d1951f685,2021-07-29_22h55.45.207,Simcolourproject_2stim_asymm_v5,2020.2.10,Linux x86_64,60,61025ae37ef11b136ea224fe,,,,,,,,,529,-40.92956543,-94.984375,1,0,0,response5disk,,3,-13.77252197,1.74105835,1,0,0,rectangle,-13.77252197,1.74105835,1,0,0,-13.77252197,1.74105835,1,0,0,1,2,162,137,1,,,,,,,,
,,,,,,,,,,,,,FF,,,,,,,,0.7889,,,,,,,,,,,,,,,,,,,,,,60ff41357ba0444d4858f86e,61036a078d4ce36d1951f685,2021-07-29_22h55.45.207,Simcolourproject_2stim_asymm_v5,2020.2.10,Linux x86_64,60,61025ae37ef11b136ea224fe,,,,,,,,,4327,-35.11022949,-99.62719727,1,0,0,response5disk,,3,-6.789245605,-9.865997314,1,0,0,rectangle,-6.789245605,-9.865997314,1,0,0,-6.789245605,-9.865997314,1,0,0,1,3,163,37,1,,,,,,,,
,,,,,,,,,,,,,FF,,,,,,,,0.9385,,,,,,,,,,,,,,,,,,,,,,60ff41357ba0444d4858f86e,61036a078d4ce36d1951f685,2021-07-29_22h55.45.207,Simcolourproject_2stim_asymm_v5,2020.2.10,Linux x86_64,60,61025ae37ef11b136ea224fe,,,,,,,,,1063,30.06671143,-63.25845337,1,0,0,response3disk,,4,-12.99658203,6.383880615,1,0,0,rectangle,-12.99658203,6.383880615,1,0,0,-12.99658203,6.383880615,1,0,0,1,4,164,116,1,,,,,,,,
,,,,,,,,,,,,,FF,,,,,,,,1.2598,,,,,,,,,,,,,,,,,,,,,,60ff41357ba0444d4858f86e,61036a078d4ce36d1951f685,2021-07-29_22h55.45.207,Simcolourproject_2stim_asymm_v5,2020.2.10,Linux x86_64,60,61025ae37ef11b136ea224fe,,,,,,,,,3208,40.54162598,-88.0201416,1,0,0,response3disk,,4,0.58190918,-1.74105835,1,0,0,rectangle,0.58190918,-1.74105835,1,0,0,0.58190918,-1.74105835,1,0,0,1,5,165,35,1,,,,,,,,
,,,,,,,,,,,,,FF,,,,,,,,0.6207,,,,,,,,,,,,,,,,,,,,,,60ff41357ba0444d4858f86e,61036a078d4ce36d1951f685,2021-07-29_22h55.45.207,Simcolourproject_2stim_asymm_v5,2020.2.10,Linux x86_64,60,61025ae37ef11b136ea224fe,,,,,,,,,413,19.20391846,79.89520264,1,0,0,response1disk,,7,-5.625427246,4.836273193,1,0,0,rectangle,-49.46466064,101.1748047,1,0,0,-3.297668457,4.062469482,1,0,0,1,6,166,115,1,,response7disk_3,TRUE,0,0,"[66,323,241,32,103,66,280,115,267,232,122,213,72,125,170,252,152,167,305,129]",1.1352,rectangle
,,,,,,,,,,,,,FF,,,,,,,,1.2392,,,,,,,,,,,,,,,,,,,,,,60ff41357ba0444d4858f86e,61036a078d4ce36d1951f685,2021-07-29_22h55.45.207,Simcolourproject_2stim_asymm_v5,2020.2.10,Linux x86_64,60,61025ae37ef11b136ea224fe,,,,,,,,,564,74.68188477,-33.85391235,1,0,0,response3disk,,5,-9.117004395,13.73501587,1,0,0,rectangle,-9.117004395,13.73501587,1,0,0,-9.117004395,13.73501587,1,0,0,1,7,167,26,1,,,,,,,,
,,,,,,,,,,,,,FF,,,,,,,,0.5796,,,,,,,,,,,,,,,,,,,,,,60ff41357ba0444d4858f86e,61036a078d4ce36d1951f685,2021-07-29_22h55.45.207,Simcolourproject_2stim_asymm_v5,2020.2.10,Linux x86_64,60,61025ae37ef11b136ea224fe,,,,,,,,,837,21.9196167,55.13348389,1,0,0,response1disk,,7,-2.909667969,-13.73501587,1,0,0,rectangle,-2.909667969,-13.73501587,1,0,0,-2.909667969,-13.73501587,1,0,0,1,8,168,159,1,,,,,,,,
,,,,,,,,,,,,,FF,,,,,,,,0.5509,,,,,,,,,,,,,,,,,,,,,,60ff41357ba0444d4858f86e,61036a078d4ce36d1951f685,2021-07-29_22h55.45.207,Simcolourproject_2stim_asymm_v5,2020.2.10,Linux x86_64,60,61025ae37ef11b136ea224fe,,,,,,,,,4138,37.8258667,82.21661377,1,0,0,response1disk,,7,-4.461547852,-11.41360474,1,0,0,rectangle,24.24737549,-70.22268677,1,0,0,-13.38458252,-15.28262329,1,0,0,1,9,169,128,1,,response3disk_3,TRUE,4,4,"[66,323,241,32,103,66,280,115,267,232,122,213,72,125,170,252,152,167,305,129]",1.776,rectangle
,,,,,,,,,,,,,FF,,,,,,,,0.6873,,,,,,,,,,,,,,,,,,,,,,60ff41357ba0444d4858f86e,61036a078d4ce36d1951f685,2021-07-29_22h55.45.207,Simcolourproject_2stim_asymm_v5,2020.2.10,Linux x86_64,60,61025ae37ef11b136ea224fe,,,,,,,,,2876,19.59185791,100.0140991,1,0,0,response1disk,,7,-14.54846191,-5.99697876,1,0,0,rectangle,-14.54846191,-5.99697876,1,0,0,-14.54846191,-5.99697876,1,0,0,1,10,170,22,1,,,,,,,,
,,,,,,,,,,,,,FF,,,,,,,,1.0697,,,,,,,,,,,,,,,,,,,,,,60ff41357ba0444d4858f86e,61036a078d4ce36d1951f685,2021-07-29_22h55.45.207,Simcolourproject_2stim_asymm_v5,2020.2.10,Linux x86_64,60,61025ae37ef11b136ea224fe,,,,,,,,,3741,-70.80236816,97.30578613,1,0,0,response7disk,,0,-10.28088379,-0.967254639,1,0,0,rectangle,-10.28088379,-0.967254639,1,0,0,-10.28088379,-0.967254639,1,0,0,1,11,171,34,1,,,,,,,,
,,,,,,,,,,,,,FF,,,,,,,,0.5949,,,,,,,,,,,,,,,,,,,,,,60ff41357ba0444d4858f86e,61036a078d4ce36d1951f685,2021-07-29_22h55.45.207,Simcolourproject_2stim_asymm_v5,2020.2.10,Linux x86_64,60,61025ae37ef11b136ea224fe,,,,,,,,,3271,37.04998779,81.82971191,1,0,0,response1disk,,7,20.7557373,-1.74105835,1,0,0,rectangle,20.7557373,-1.74105835,1,0,0,20.7557373,-1.74105835,1,0,0,1,12,172,72,1,,,,,,,,
,,,,,,,,,,,,,FF,,,,,,,,0.7581,,,,,,,,,,,,,,,,,,,,,,60ff41357ba0444d4858f86e,61036a078d4ce36d1951f685,2021-07-29_22h55.45.207,Simcolourproject_2stim_asymm_v5,2020.2.10,Linux x86_64,60,61025ae37ef11b136ea224fe,,,,,,,,,822,96.79547119,30.75869751,1,0,0,response1disk,,6,-4.849487305,11.02670288,1,0,0,rectangle,-4.849487305,11.02670288,1,0,0,-4.849487305,11.02670288,1,0,0,1,13,173,111,1,,,,,,,,
,,,,,,,,,,,,,FF,,,,,,,,0.605,,,,,,,,,,,,,,,,,,,,,,60ff41357ba0444d4858f86e,61036a078d4ce36d1951f685,2021-07-29_22h55.45.207,Simcolourproject_2stim_asymm_v5,2020.2.10,Linux x86_64,60,61025ae37ef11b136ea224fe,,,,,,,,,3220,30.84265137,101.9486084,1,0,0,response1disk,,7,-11.05682373,-5.99697876,1,0,0,rectangle,-11.05682373,-5.99697876,1,0,0,-11.05682373,-5.99697876,1,0,0,1,14,174,134,1,,,,,,,,
,,,,,,,,,,,,,FF,,,,,,,,0.8031,,,,,,,,,,,,,,,,,,,,,,60ff41357ba0444d4858f86e,61036a078d4ce36d1951f685,2021-07-29_22h55.45.207,Simcolourproject_2stim_asymm_v5,2020.2.10,Linux x86_64,60,61025ae37ef11b136ea224fe,,,,,,,,,1849,40.92956543,81.82971191,1,0,0,response1disk,,7,-12.99658203,15.28262329,1,0,0,rectangle,-12.99658203,15.28262329,1,0,0,-12.99658203,15.28262329,1,0,0,1,15,175,14,1,,,,,,,,
,,,,,,,,,,,,,FF,,,,,,,,1.2586,,,,,,,,,,,,,,,,,,,,,,60ff41357ba0444d4858f86e,61036a078d4ce36d1951f685,2021-07-29_22h55.45.207,Simcolourproject_2stim_asymm_v5,2020.2.10,Linux x86_64,60,61025ae37ef11b136ea224fe,,,,,,,,,2154,26.18713379,96.53198242,1,0,0,response1disk,,7,-3.68560791,-3.288665771,1,0,0,rectangle,-3.68560791,-3.288665771,1,0,0,-3.68560791,-3.288665771,1,0,0,1,16,176,53,1,,,,,,,,
,,,,,,,,,,,,,FF,,,,,,,,0.533,,,,,,,,,,,,,,,,,,,,,,60ff41357ba0444d4858f86e,61036a078d4ce36d1951f685,2021-07-29_22h55.45.207,Simcolourproject_2stim_asymm_v5,2020.2.10,Linux x86_64,60,61025ae37ef11b136ea224fe,,,,,,,,,4124,24.24737549,100.0140991,1,0,0,response1disk,,7,-18.815979,0.193450928,1,0,0,rectangle,-18.815979,0.193450928,1,0,0,-18.815979,0.193450928,1,0,0,1,17,177,89,1,,,,,,,,
,,,,,,,,,,,,,FF,,,,,,,,0.9779,,,,,,,,,,,,,,,,,,,,,,60ff41357ba0444d4858f86e,61036a078d4ce36d1951f685,2021-07-29_22h55.45.207,Simcolourproject_2stim_asymm_v5,2020.2.10,Linux x86_64,60,61025ae37ef11b136ea224fe,,,,,,,,,3132,34.33428955,117.4246826,1,0,0,response1disk,,7,-14.93640137,-2.127960205,1,0,0,rectangle,-14.93640137,-2.127960205,1,0,0,-14.93640137,-2.127960205,1,0,0,1,18,178,66,1,,,,,,,,
,,,,,,,,,,,,,FF,,,,,,,,0.7589,,,,,,,,,,,,,,,,,,,,,,60ff41357ba0444d4858f86e,61036a078d4ce36d1951f685,2021-07-29_22h55.45.207,Simcolourproject_2stim_asymm_v5,2020.2.10,Linux x86_64,60,61025ae37ef11b136ea224fe,,,,,,,,,1711,34.722229,85.31182861,1,0,0,response1disk,,7,0.193969727,-2.127960205,1,0,0,rectangle,0.193969727,-2.127960205,1,0,0,0.193969727,-2.127960205,1,0,0,1,19,179,155,1,,,,,,,,
,,,,,,,,,,,,,FF,,,,,,,,0.4377,,,,,,,,,,,,,,,,,,,,,,60ff41357ba0444d4858f86e,61036a078d4ce36d1951f685,2021-07-29_22h55.45.207,Simcolourproject_2stim_asymm_v5,2020.2.10,Linux x86_64,60,61025ae37ef11b136ea224fe,,,,,,,,,884,64.20703125,84.92492676,1,0,0,response1disk,,7,-9.505004883,2.127960205,1,0,0,rectangle,-9.505004883,2.127960205,1,0,0,-9.505004883,2.127960205,1,0,0,1,20,180,5,1,,,,,,,,
,,,,,,,,,,,,,FF,,,,,,,,1.4986,,,,,,,,,,,,,,,,,,,,,,60ff41357ba0444d4858f86e,61036a078d4ce36d1951f685,2021-07-29_22h55.45.207,Simcolourproject_2stim_asymm_v5,2020.2.10,Linux x86_64,60,61025ae37ef11b136ea224fe,,,,,,,,,4335,-89.42431641,-38.10983276,1,0,0,response5disk,,2,-12.22070313,5.223175049,1,0,0,rectangle,-12.22070313,5.223175049,1,0,0,-12.22070313,5.223175049,1,0,0,1,21,181,13,1,,,,,,,,
,,,,,,,,,,,,,FF,,,,,,,,2.0941,,,,,,,,,,,,,,,,,,,,,,60ff41357ba0444d4858f86e,61036a078d4ce36d1951f685,2021-07-29_22h55.45.207,Simcolourproject_2stim_asymm_v5,2020.2.10,Linux x86_64,60,61025ae37ef11b136ea224fe,,,,,,,,,1169,26.18713379,102.7224121,1,0,0,response1disk,,7,-10.66888428,-14.12191772,1,0,0,rectangle,-10.66888428,-14.12191772,1,0,0,-10.66888428,-14.12191772,1,0,0,1,22,182,23,1,,,,,,,,
,,,,,,,,,,,,,FF,,,,,,,,0.5402,,,,,,,,,,,,,,,,,,,,,,60ff41357ba0444d4858f86e,61036a078d4ce36d1951f685,2021-07-29_22h55.45.207,Simcolourproject_2stim_asymm_v5,2020.2.10,Linux x86_64,60,61025ae37ef11b136ea224fe,,,,,,,,,823,29.67877197,77.18688965,1,0,0,response1disk,,7,-6.401306152,-7.931488037,1,0,0,rectangle,-6.401306152,-7.931488037,1,0,0,-6.401306152,-7.931488037,1,0,0,1,23,183,112,1,,,,,,,,
,,,,,,,,,,,,,FF,,,,,,,,1.4943,,,,,,,,,,,,,,,,,,,,,,60ff41357ba0444d4858f86e,61036a078d4ce36d1951f685,2021-07-29_22h55.45.207,Simcolourproject_2stim_asymm_v5,2020.2.10,Linux x86_64,60,61025ae37ef11b136ea224fe,,,,,,,,,2228,-92.5279541,36.17532349,1,0,0,response7disk,,1,-12.60864258,-0.967254639,1,0,0,rectangle,-12.60864258,-0.967254639,1,0,0,-12.60864258,-0.967254639,1,0,0,1,24,184,28,1,,,,,,,,
,,,,,,,,,,,,,FF,,,,,,,,0.8523,,,,,,,,,,,,,,,,,,,,,,60ff41357ba0444d4858f86e,61036a078d4ce36d1951f685,2021-07-29_22h55.45.207,Simcolourproject_2stim_asymm_v5,2020.2.10,Linux x86_64,60,61025ae37ef11b136ea224fe,,,,,,,,,279,-33.55834961,-99.62719727,1,0,0,response5disk,,3,-18.04003906,-2.514862061,1,0,0,rectangle,-18.04003906,-2.514862061,1,0,0,-18.04003906,-2.514862061,1,0,0,1,25,185,70,1,,,,,,,,
,,,,,,,,,,,,,FF,,,,,,,,0.5141,,,,,,,,,,,,,,,,,,,,,,60ff41357ba0444d4858f86e,61036a078d4ce36d1951f685,2021-07-29_22h55.45.207,Simcolourproject_2stim_asymm_v5,2020.2.10,Linux x86_64,60,61025ae37ef11b136ea224fe,,,,,,,,,505,23.08349609,78.34759521,1,0,0,response1disk,,7,-4.073547363,-3.288665771,1,0,0,rectangle,-4.073547363,-3.288665771,1,0,0,-4.073547363,-3.288665771,1,0,0,1,26,186,75,1,,,,,,,,
,,,,,,,,,,,,,FF,,,,,,,,1.1917,,,,,,,,,,,,,,,,,,,,,,60ff41357ba0444d4858f86e,61036a078d4ce36d1951f685,2021-07-29_22h55.45.207,Simcolourproject_2stim_asymm_v5,2020.2.10,Linux x86_64,60,61025ae37ef11b136ea224fe,,,,,,,,,2109,79.33740234,29.9848938,1,0,0,response1disk,,6,-0.581970215,6.383880615,1,0,0,rectangle,-0.581970215,6.383880615,1,0,0,-0.581970215,6.383880615,1,0,0,1,27,187,82,1,,,,,,,,
,,,,,,,,,,,,,FF,,,,,,,,0.3995,,,,,,,,,,,,,,,,,,,,,,60ff41357ba0444d4858f86e,61036a078d4ce36d1951f685,2021-07-29_22h55.45.207,Simcolourproject_2stim_asymm_v5,2020.2.10,Linux x86_64,60,61025ae37ef11b136ea224fe,,,,,,,,,4180,32.39447021,78.34759521,1,0,0,response1disk,,7,0.58190918,8.318389893,1,0,0,rectangle,0.58190918,8.318389893,1,0,0,0.58190918,8.318389893,1,0,0,1,28,188,86,1,,,,,,,,
,,,,,,,,,,,,,FF,,,,,,,,0.5277,,,,,,,,,,,,,,,,,,,,,,60ff41357ba0444d4858f86e,61036a078d4ce36d1951f685,2021-07-29_22h55.45.207,Simcolourproject_2stim_asymm_v5,2020.2.10,Linux x86_64,60,61025ae37ef11b136ea224fe,,,,,,,,,2958,42.48138428,70.60955811,1,0,0,response1disk,,7,1.745788574,7.931488037,1,0,0,rectangle,1.745788574,7.931488037,1,0,0,1.745788574,7.931488037,1,0,0,1,29,189,83,1,,,,,,,,
,,,,,,,,,,,,,FF,,,,,,,,0.8782,,,,,,,,,,,,,,,,,,,,,,60ff41357ba0444d4858f86e,61036a078d4ce36d1951f685,2021-07-29_22h55.45.207,Simcolourproject_2stim_asymm_v5,2020.2.10,Linux x86_64,60,61025ae37ef11b136ea224fe,,,,,,,,,2020,20.7557373,98.85339355,1,0,0,response1disk,,7,-12.22070313,1.354156494,1,0,0,rectangle,-12.22070313,1.354156494,1,0,0,-12.22070313,1.354156494,1,0,0,1,30,190,84,1,,,,,,,,
,,,,,,,,,,,,,FF,,,,,,,,0.4955,,,,,,,,,,,,,,,,,,,,,,60ff41357ba0444d4858f86e,61036a078d4ce36d1951f685,2021-07-29_22h55.45.207,Simcolourproject_2stim_asymm_v5,2020.2.10,Linux x86_64,60,61025ae37ef11b136ea224fe,,,,,,,,,1012,25.41125488,114.3294678,1,0,0,response1disk,,7,-11.44476318,12.5743103,1,0,0,rectangle,-11.44476318,12.5743103,1,0,0,-11.44476318,12.5743103,1,0,0,1,31,191,49,1,,,,,,,,
,,,,,,,,,,,,,FF,,,,,,,,0.4879,,,,,,,,,,,,,,,,,,,,,,60ff41357ba0444d4858f86e,61036a078d4ce36d1951f685,2021-07-29_22h55.45.207,Simcolourproject_2stim_asymm_v5,2020.2.10,Linux x86_64,60,61025ae37ef11b136ea224fe,,,,,,,,,1952,27.35101318,107.7521362,1,0,0,response1disk,,7,-14.16046143,-5.610076904,1,0,0,rectangle,-14.16046143,-5.610076904,1,0,0,-14.16046143,-5.610076904,1,0,0,1,32,192,60,1,,,,,,,,
,,,,,,,,,,,,,FF,,,,,,,,1.0146,,,,,,,,,,,,,,,,,,,,,,60ff41357ba0444d4858f86e,61036a078d4ce36d1951f685,2021-07-29_22h55.45.207,Simcolourproject_2stim_asymm_v5,2020.2.10,Linux x86_64,60,61025ae37ef11b136ea224fe,,,,,,,,,641,19.97979736,-61.71084595,1,0,0,response3disk,,4,-21.9196167,9.865997314,1,0,0,rectangle,-21.9196167,9.865997314,1,0,0,-21.9196167,9.865997314,1,0,0,1,33,193,24,1,,,,,,,,
,,,,,,,,,,,,,FF,,,,,,,,0.5936,,,,,,,,,,,,,,,,,,,,,,60ff41357ba0444d4858f86e,61036a078d4ce36d1951f685,2021-07-29_22h55.45.207,Simcolourproject_2stim_asymm_v5,2020.2.10,Linux x86_64,60,61025ae37ef11b136ea224fe,,,,,,,,,2490,29.67877197,82.60351563,1,0,0,response1disk,,7,-11.05682373,-5.610076904,1,0,0,rectangle,-11.05682373,-5.610076904,1,0,0,-11.05682373,-5.610076904,1,0,0,1,34,194,133,1,,,,,,,,
,,,,,,,,,,,,,FF,,,,,,,,0.6469,,,,,,,,,,,,,,,,,,,,,,60ff41357ba0444d4858f86e,61036a078d4ce36d1951f685,2021-07-29_22h55.45.207,Simcolourproject_2stim_asymm_v5,2020.2.10,Linux x86_64,60,61025ae37ef11b136ea224fe,,,,,,,,,1387,28.12695313,97.69268799,1,0,0,response1disk,,7,-12.60864258,9.092193604,1,0,0,rectangle,-12.60864258,9.092193604,1,0,0,-12.60864258,9.092193604,1,0,0,1,35,195,12,1,,,,,,,,
,,,,,,,,,,,,,FF,,,,,,,,1.2545,,,,,,,,,,,,,,,,,,,,,,60ff41357ba0444d4858f86e,61036a078d4ce36d1951f685,2021-07-29_22h55.45.207,Simcolourproject_2stim_asymm_v5,2020.2.10,Linux x86_64,60,61025ae37ef11b136ea224fe,,,,,,,,,259,40.92956543,-83.37731934,1,0,0,response3disk,,4,-2.133789063,-0.967254639,1,0,0,rectangle,-2.133789063,-0.967254639,1,0,0,-2.133789063,-0.967254639,1,0,0,1,36,196,142,1,,,,,,,,
,,,,,,,,,,,,,FF,,,,,,,,0.7645,,,,,,,,,,,,,,,,,,,,,,60ff41357ba0444d4858f86e,61036a078d4ce36d1951f685,2021-07-29_22h55.45.207,Simcolourproject_2stim_asymm_v5,2020.2.10,Linux x86_64,60,61025ae37ef11b136ea224fe,,,,,,,,,3377,24.63531494,74.47857666,1,0,0,response1disk,,7,-9.505004883,-3.675567627,1,0,0,rectangle,-9.505004883,-3.675567627,1,0,0,-9.505004883,-3.675567627,1,0,0,1,37,197,157,1,,,,,,,,
,,,,,,,,,,,,,FF,,,,,,,,0.508,,,,,,,,,,,,,,,,,,,,,,60ff41357ba0444d4858f86e,61036a078d4ce36d1951f685,2021-07-29_22h55.45.207,Simcolourproject_2stim_asymm_v5,2020.2.10,Linux x86_64,60,61025ae37ef11b136ea224fe,,,,,,,,,1542,72.35412598,53.19900513,1,0,0,response1disk,,6,-1.357849121,-5.610076904,1,0,0,rectangle,-1.357849121,-5.610076904,1,0,0,-1.357849121,-5.610076904,1,0,0,1,38,198,150,1,,,,,,,,
,,,,,,,,,,,,,FF,,,,,,,,1.2535,,,,,,,,,,,,,,,,,,,,,,60ff41357ba0444d4858f86e,61036a078d4ce36d1951f685,2021-07-29_22h55.45.207,Simcolourproject_2stim_asymm_v5,2020.2.10,Linux x86_64,60,61025ae37ef11b136ea224fe,,,,,,,,,1822,-49.07672119,95.37127686,1,0,0,response7disk,,0,-6.401306152,0.193450928,1,0,0,rectangle,-6.401306152,0.193450928,1,0,0,-6.401306152,0.193450928,1,0,0,1,39,199,79,1,,,,,,,,
,,,,,,,,,,,,,FF,,,,,,,,1.0633,,,,,,,,,,,,,,,,,,,,,,60ff41357ba0444d4858f86e,61036a078d4ce36d1951f685,2021-07-29_22h55.45.207,Simcolourproject_2stim_asymm_v5,2020.2.10,Linux x86_64,60,61025ae37ef11b136ea224fe,,,,,,,,,2425,-96.01959229,53.58590698,1,0,0,response7disk,,1,-22.69555664,5.99697876,1,0,0,rectangle,-22.69555664,5.99697876,1,0,0,-22.69555664,5.99697876,1,0,0,1,40,200,63,1,,,,,,,,
,,,,,,,,,,,,,FF,,,,,,,,1.132,,,,,,,,,,,,,,,,,,,,,,60ff41357ba0444d4858f86e,61036a078d4ce36d1951f685,2021-07-29_22h55.45.207,Simcolourproject_2stim_asymm_v5,2020.2.10,Linux x86_64,60,61025ae37ef11b136ea224fe,,,,,,,,,427,83.99285889,-42.36575317,1,0,0,response3disk,,5,2.909667969,-4.449371338,1,0,0,rectangle,2.909667969,-4.449371338,1,0,0,2.909667969,-4.449371338,1,0,0,1,41,201,91,1,,,,,,,,
,,,,,,,,,,,,,FF,,,,,,,,0.4622,,,,,,,,,,,,,,,,,,,,,,60ff41357ba0444d4858f86e,61036a078d4ce36d1951f685,2021-07-29_22h55.45.207,Simcolourproject_2stim_asymm_v5,2020.2.10,Linux x86_64,60,61025ae37ef11b136ea224fe,,,,,,,,,3723,40.15362549,91.88916016,1,0,0,response1disk,,7,8.729064941,0.580352783,1,0,0,rectangle,8.729064941,0.580352783,1,0,0,8.729064941,0.580352783,1,0,0,1,42,202,71,1,,,,,,,,
,,,,,,,,,,,,,FF,,,,,,,,1.161,,,,,,,,,,,,,,,,,,,,,,60ff41357ba0444d4858f86e,61036a078d4ce36d1951f685,2021-07-29_22h55.45.207,Simcolourproject_2stim_asymm_v5,2020.2.10,Linux x86_64,60,61025ae37ef11b136ea224fe,,,,,,,,,1479,40.15362549,100.7879028,1,0,0,response1disk,,7,2.521728516,0.967254639,1,0,0,rectangle,2.521728516,0.967254639,1,0,0,2.521728516,0.967254639,1,0,0,1,43,203,94,1,,,,,,,,
,,,,,,,,,,,,,FF,,,,,,,,1.1466,,,,,,,,,,,,,,,,,,,,,,60ff41357ba0444d4858f86e,61036a078d4ce36d1951f685,2021-07-29_22h55.45.207,Simcolourproject_2stim_asymm_v5,2020.2.10,Linux x86_64,60,61025ae37ef11b136ea224fe,,,,,,,,,4002,92.91589355,-32.30630493,1,0,0,response3disk,,5,-13.77252197,9.865997314,1,0,0,rectangle,-13.77252197,9.865997314,1,0,0,-13.77252197,9.865997314,1,0,0,1,44,204,109,1,,,,,,,,
,,,,,,,,,,,,,FF,,,,,,,,0.6395,,,,,,,,,,,,,,,,,,,,,,60ff41357ba0444d4858f86e,61036a078d4ce36d1951f685,2021-07-29_22h55.45.207,Simcolourproject_2stim_asymm_v5,2020.2.10,Linux x86_64,60,61025ae37ef11b136ea224fe,,,,,,,,,995,72.35412598,46.62167358,1,0,0,response1disk,,6,-10.66888428,0.193450928,1,0,0,rectangle,-10.66888428,0.193450928,1,0,0,-10.66888428,0.193450928,1,0,0,1,45,205,43,1,,,,,,,,
,,,,,,,,,,,,,FF,,,,,,,,0.6082,,,,,,,,,,,,,,,,,,,,,,60ff41357ba0444d4858f86e,61036a078d4ce36d1951f685,2021-07-29_22h55.45.207,Simcolourproject_2stim_asymm_v5,2020.2.10,Linux x86_64,60,61025ae37ef11b136ea224fe,,,,,,,,,2852,38.60180664,74.86547852,1,0,0,response1disk,,7,-9.117004395,-11.02670288,1,0,0,rectangle,-9.117004395,-11.02670288,1,0,0,-9.117004395,-11.02670288,1,0,0,1,46,206,153,1,,,,,,,,
,,,,,,,,,,,,,FF,,,,,,,,0.5061,,,,,,,,,,,,,,,,,,,,,,60ff41357ba0444d4858f86e,61036a078d4ce36d1951f685,2021-07-29_22h55.45.207,Simcolourproject_2stim_asymm_v5,2020.2.10,Linux x86_64,60,61025ae37ef11b136ea224fe,,,,,,,,,1731,41.70544434,72.54406738,1,0,0,response1disk,,7,-2.133789063,3.288665771,1,0,0,rectangle,-2.133789063,3.288665771,1,0,0,-2.133789063,3.288665771,1,0,0,1,47,207,6,1,,,,,,,,
,,,,,,,,,,,,,FF,,,,,,,,0.5655,,,,,,,,,,,,,,,,,,,,,,60ff41357ba0444d4858f86e,61036a078d4ce36d1951f685,2021-07-29_22h55.45.207,Simcolourproject_2stim_asymm_v5,2020.2.10,Linux x86_64,60,61025ae37ef11b136ea224fe,,,,,,,,,4011,37.8258667,81.82971191,1,0,0,response1disk,,7,-7.953125,-0.967254639,1,0,0,rectangle,-7.953125,-0.967254639,1,0,0,-7.953125,-0.967254639,1,0,0,1,48,208,124,1,,,,,,,,
,,,,,,,,,,,,,FF,,,,,,,,0.5199,,,,,,,,,,,,,,,,,,,,,,60ff41357ba0444d4858f86e,61036a078d4ce36d1951f685,2021-07-29_22h55.45.207,Simcolourproject_2stim_asymm_v5,2020.2.10,Linux x86_64,60,61025ae37ef11b136ea224fe,,,,,,,,,2690,36.6619873,76.41308594,1,0,0,response1disk,,7,-11.44476318,1.74105835,1,0,0,rectangle,-11.44476318,1.74105835,1,0,0,-11.44476318,1.74105835,1,0,0,1,49,209,50,1,,,,,,,,
,,,,,,,,,,,,,FF,,,,,,,,0.5615,,,,,,,,,,,,,,,,,,,,,,60ff41357ba0444d4858f86e,61036a078d4ce36d1951f685,2021-07-29_22h55.45.207,Simcolourproject_2stim_asymm_v5,2020.2.10,Linux x86_64,60,61025ae37ef11b136ea224fe,,,,,,,,,1087,37.04998779,89.95465088,1,0,0,response1disk,,7,5.237426758,0.193450928,1,0,0,rectangle,5.237426758,0.193450928,1,0,0,5.237426758,0.193450928,1,0,0,1,50,210,90,1,,,,,,,,
,,,,,,,,,,,,,FF,,,,,,,,1.1185,,,,,,,,,,,,,,,,,,,,,,60ff41357ba0444d4858f86e,61036a078d4ce36d1951f685,2021-07-29_22h55.45.207,Simcolourproject_2stim_asymm_v5,2020.2.10,Linux x86_64,60,61025ae37ef11b136ea224fe,,,,,,,,,1891,-51.01647949,-73.31790161,1,0,0,response5disk,,3,-9.117004395,-10.25289917,1,0,0,rectangle,-9.117004395,-10.25289917,1,0,0,-9.117004395,-10.25289917,1,0,0,1,51,211,36,1,,,,,,,,
,,,,,,,,,,,,,FF,,,,,,,,0.5485,,,,,,,,,,,,,,,,,,,,,,60ff41357ba0444d4858f86e,61036a078d4ce36d1951f685,2021-07-29_22h55.45.207,Simcolourproject_2stim_asymm_v5,2020.2.10,Linux x86_64,60,61025ae37ef11b136ea224fe,,,,,,,,,2259,42.48138428,78.73449707,1,0,0,response1disk,,7,-19.9798584,-2.514862061,1,0,0,rectangle,71.57824707,-30.37179565,1,0,0,-13.38458252,-5.99697876,1,0,0,1,52,212,98,1,,response3disk_3,TRUE,5,3,"[66,323,241,32,103,66,280,115,267,232,122,213,72,125,170,252,152,167,305,129]",1.839,rectangle
,,,,,,,,,,,,,FF,,,,,,,,2.0278,,,,,,,,,,,,,,,,,,,,,,60ff41357ba0444d4858f86e,61036a078d4ce36d1951f685,2021-07-29_22h55.45.207,Simcolourproject_2stim_asymm_v5,2020.2.10,Linux x86_64,60,61025ae37ef11b136ea224fe,,,,,,,,,3942,85.15673828,16.056427,1,0,0,response1disk,,6,-4.849487305,0.193450928,1,0,0,rectangle,-4.849487305,0.193450928,1,0,0,-4.849487305,0.193450928,1,0,0,1,53,213,152,1,,,,,,,,
,,,,,,,,,,,,,FF,,,,,,,,2.042,,,,,,,,,,,,,,,,,,,,,,60ff41357ba0444d4858f86e,61036a078d4ce36d1951f685,2021-07-29_22h55.45.207,Simcolourproject_2stim_asymm_v5,2020.2.10,Linux x86_64,60,61025ae37ef11b136ea224fe,,,,,,,,,4360,-37.43792725,-63.64535522,1,0,0,response5disk,,3,-3.297668457,12.18740845,1,0,0,rectangle,-3.297668457,12.18740845,1,0,0,-3.297668457,12.18740845,1,0,0,1,54,214,25,1,,,,,,,,
,,,,,,,,,,,,,FF,,,,,,,,1.2479,,,,,,,,,,,,,,,,,,,,,,60ff41357ba0444d4858f86e,61036a078d4ce36d1951f685,2021-07-29_22h55.45.207,Simcolourproject_2stim_asymm_v5,2020.2.10,Linux x86_64,60,61025ae37ef11b136ea224fe,,,,,,,,,2901,-104.942627,-27.27658081,1,0,0,response5disk,,2,-14.54846191,0.580352783,1,0,0,rectangle,-14.54846191,0.580352783,1,0,0,-14.54846191,0.580352783,1,0,0,1,55,215,21,1,,,,,,,,
,,,,,,,,,,,,,FF,,,,,,,,2.6392,,,,,,,,,,,,,,,,,,,,,,60ff41357ba0444d4858f86e,61036a078d4ce36d1951f685,2021-07-29_22h55.45.207,Simcolourproject_2stim_asymm_v5,2020.2.10,Linux x86_64,60,61025ae37ef11b136ea224fe,,,,,,,,,1874,45.97302246,101.9486084,1,0,0,response1disk,,7,9.117004395,-2.901763916,1,0,0,rectangle,9.117004395,-2.901763916,1,0,0,9.117004395,-2.901763916,1,0,0,1,56,216,65,1,,,,,,,,
,,,,,,,,,,,,,FF,,,,,,,,1.2829,,,,,,,,,,,,,,,,,,,,,,60ff41357ba0444d4858f86e,61036a078d4ce36d1951f685,2021-07-29_22h55.45.207,Simcolourproject_2stim_asymm_v5,2020.2.10,Linux x86_64,60,61025ae37ef11b136ea224fe,,,,,,,,,1262,40.54162598,90.34155273,1,0,0,response1disk,,7,1.357849121,0.580352783,1,0,0,rectangle,1.357849121,0.580352783,1,0,0,1.357849121,0.580352783,1,0,0,1,57,217,101,1,,,,,,,,
,,,,,,,,,,,,,FF,,,,,,,,0.9214,,,,,,,,,,,,,,,,,,,,,,60ff41357ba0444d4858f86e,61036a078d4ce36d1951f685,2021-07-29_22h55.45.207,Simcolourproject_2stim_asymm_v5,2020.2.10,Linux x86_64,60,61025ae37ef11b136ea224fe,,,,,,,,,698,34.33428955,96.14508057,1,0,0,response1disk,,7,7.953125,7.931488037,1,0,0,rectangle,7.953125,7.931488037,1,0,0,7.953125,7.931488037,1,0,0,1,58,218,93,1,,,,,,,,
,,,,,,,,,,,,,FF,,,,,,,,0.5391,,,,,,,,,,,,,,,,,,,,,,60ff41357ba0444d4858f86e,61036a078d4ce36d1951f685,2021-07-29_22h55.45.207,Simcolourproject_2stim_asymm_v5,2020.2.10,Linux x86_64,60,61025ae37ef11b136ea224fe,,,,,,,,,3805,46.36096191,101.1748047,1,0,0,response1disk,,7,-3.297668457,-9.865997314,1,0,0,rectangle,-3.297668457,-9.865997314,1,0,0,-3.297668457,-9.865997314,1,0,0,1,59,219,99,1,,,,,,,,
,,,,,,,,,,,,,FF,,,,,,,,1.1805,,,,,,,,,,,,,,,,,,,,,,60ff41357ba0444d4858f86e,61036a078d4ce36d1951f685,2021-07-29_22h55.45.207,Simcolourproject_2stim_asymm_v5,2020.2.10,Linux x86_64,60,61025ae37ef11b136ea224fe,,,,,,,,,3434,-92.91595459,-38.10983276,1,0,0,response5disk,,2,-7.177246094,12.5743103,1,0,0,rectangle,-7.177246094,12.5743103,1,0,0,-7.177246094,12.5743103,1,0,0,1,60,220,154,1,,,,,,,,
,,,,,,,,,,,,,FF,,,,,,,,0.956,,,,,,,,,,,,,,,,,,,,,,60ff41357ba0444d4858f86e,61036a078d4ce36d1951f685,2021-07-29_22h55.45.207,Simcolourproject_2stim_asymm_v5,2020.2.10,Linux x86_64,60,61025ae37ef11b136ea224fe,,,,,,,,,4140,-50.24053955,110.8473511,1,0,0,response7disk,,0,-16.10028076,7.931488037,1,0,0,rectangle,-16.10028076,7.931488037,1,0,0,-16.10028076,7.931488037,1,0,0,1,61,221,149,1,,,,,,,,
,,,,,,,,,,,,,FF,,,,,,,,0.672,,,,,,,,,,,,,,,,,,,,,,60ff41357ba0444d4858f86e,61036a078d4ce36d1951f685,2021-07-29_22h55.45.207,Simcolourproject_2stim_asymm_v5,2020.2.10,Linux x86_64,60,61025ae37ef11b136ea224fe,,,,,,,,,1478,18.815979,105.4307251,1,0,0,response1disk,,7,0.58190918,12.96121216,1,0,0,rectangle,0.58190918,12.96121216,1,0,0,0.58190918,12.96121216,1,0,0,1,62,222,127,1,,,,,,,,
,,,,,,,,,,,,,FF,,,,,,,,0.9252,,,,,,,,,,,,,,,,,,,,,,60ff41357ba0444d4858f86e,61036a078d4ce36d1951f685,2021-07-29_22h55.45.207,Simcolourproject_2stim_asymm_v5,2020.2.10,Linux x86_64,60,61025ae37ef11b136ea224fe,,,,,,,,,1905,73.51800537,36.17532349,1,0,0,response1disk,,6,-5.625427246,-4.836273193,1,0,0,rectangle,-5.625427246,-4.836273193,1,0,0,-5.625427246,-4.836273193,1,0,0,1,63,223,114,1,,,,,,,,
,,,,,,,,,,,,,FF,,,,,,,,0.5089,,,,,,,,,,,,,,,,,,,,,,60ff41357ba0444d4858f86e,61036a078d4ce36d1951f685,2021-07-29_22h55.45.207,Simcolourproject_2stim_asymm_v5,2020.2.10,Linux x86_64,60,61025ae37ef11b136ea224fe,,,,,,,,,2275,35.8861084,75.63928223,1,0,0,response1disk,,7,-9.505004883,-5.99697876,1,0,0,rectangle,-9.505004883,-5.99697876,1,0,0,-9.505004883,-5.99697876,1,0,0,1,64,224,88,1,,,,,,,,
,,,,,,,,,,,,,FF,,,,,,,,0.8318,,,,,,,,,,,,,,,,,,,,,,60ff41357ba0444d4858f86e,61036a078d4ce36d1951f685,2021-07-29_22h55.45.207,Simcolourproject_2stim_asymm_v5,2020.2.10,Linux x86_64,60,61025ae37ef11b136ea224fe,,,,,,,,,787,63.8190918,45.84786987,1,0,0,response1disk,,6,10.28088379,-4.062469482,1,0,0,rectangle,10.28088379,-4.062469482,1,0,0,10.28088379,-4.062469482,1,0,0,1,65,225,96,1,,,,,,,,
,,,,,,,,,,,,,FF,,,,,,,,1.2395,,,,,,,,,,,,,,,,,,,,,,60ff41357ba0444d4858f86e,61036a078d4ce36d1951f685,2021-07-29_22h55.45.207,Simcolourproject_2stim_asymm_v5,2020.2.10,Linux x86_64,60,61025ae37ef11b136ea224fe,,,,,,,,,659,33.55834961,94.984375,1,0,0,response1disk,,7,3.297607422,-4.062469482,1,0,0,rectangle,3.297607422,-4.062469482,1,0,0,3.297607422,-4.062469482,1,0,0,1,66,226,45,1,,,,,,,,
,,,,,,,,,,,,,FF,,,,,,,,0.478,,,,,,,,,,,,,,,,,,,,,,60ff41357ba0444d4858f86e,61036a078d4ce36d1951f685,2021-07-29_22h55.45.207,Simcolourproject_2stim_asymm_v5,2020.2.10,Linux x86_64,60,61025ae37ef11b136ea224fe,,,,,,,,,1477,37.8258667,109.6866455,1,0,0,response1disk,,7,-9.117004395,-2.901763916,1,0,0,rectangle,-9.117004395,-2.901763916,1,0,0,-9.117004395,-2.901763916,1,0,0,1,67,227,147,1,,,,,,,,
,,,,,,,,,,,,,FF,,,,,,,,0.5594,,,,,,,,,,,,,,,,,,,,,,60ff41357ba0444d4858f86e,61036a078d4ce36d1951f685,2021-07-29_22h55.45.207,Simcolourproject_2stim_asymm_v5,2020.2.10,Linux x86_64,60,61025ae37ef11b136ea224fe,,,,,,,,,2644,33.55834961,92.27606201,1,0,0,response1disk,,7,-2.521728516,5.99697876,1,0,0,rectangle,-2.521728516,5.99697876,1,0,0,-2.521728516,5.99697876,1,0,0,1,68,228,2,1,,,,,,,,
,,,,,,,,,,,,,FF,,,,,,,,1.1832,,,,,,,,,,,,,,,,,,,,,,60ff41357ba0444d4858f86e,61036a078d4ce36d1951f685,2021-07-29_22h55.45.207,Simcolourproject_2stim_asymm_v5,2020.2.10,Linux x86_64,60,61025ae37ef11b136ea224fe,,,,,,,,,1035,97.57141113,54.74658203,1,0,0,response1disk,,6,3.297607422,-6.383880615,1,0,0,rectangle,3.297607422,-6.383880615,1,0,0,3.297607422,-6.383880615,1,0,0,1,69,229,130,1,,,,,,,,
,,,,,,,,,,,,,FF,,,,,,,,1.6241,,,,,,,,,,,,,,,,,,,,,,60ff41357ba0444d4858f86e,61036a078d4ce36d1951f685,2021-07-29_22h55.45.207,Simcolourproject_2stim_asymm_v5,2020.2.10,Linux x86_64,60,61025ae37ef11b136ea224fe,,,,,,,,,3803,58.77563477,83.76422119,1,0,0,response1disk,,7,-12.22070313,-4.449371338,1,0,0,rectangle,-12.22070313,-4.449371338,1,0,0,-12.22070313,-4.449371338,1,0,0,1,70,230,52,1,,,,,,,,
,,,,,,,,,,,,,FF,,,,,,,,2.3621,,,,,,,,,,,,,,,,,,,,,,60ff41357ba0444d4858f86e,61036a078d4ce36d1951f685,2021-07-29_22h55.45.207,Simcolourproject_2stim_asymm_v5,2020.2.10,Linux x86_64,60,61025ae37ef11b136ea224fe,,,,,,,,,701,77.39758301,43.9133606,1,0,0,response1disk,,6,-28.51489258,3.675567627,1,0,0,rectangle,66.14685059,-36.17532349,1,0,0,-18.04003906,15.28262329,1,0,0,1,71,231,87,1,,response3disk_3,TRUE,5,5,"[66,323,241,32,103,66,280,115,267,232,122,213,72,125,170,252,152,167,305,129]",1.4768,rectangle
,,,,,,,,,,,,,FF,,,,,,,,0.7335,,,,,,,,,,,,,,,,,,,,,,60ff41357ba0444d4858f86e,61036a078d4ce36d1951f685,2021-07-29_22h55.45.207,Simcolourproject_2stim_asymm_v5,2020.2.10,Linux x86_64,60,61025ae37ef11b136ea224fe,,,,,,,,,2594,40.54162598,100.7879028,1,0,0,response1disk,,7,-6.401306152,-5.223175049,1,0,0,rectangle,-6.401306152,-5.223175049,1,0,0,-6.401306152,-5.223175049,1,0,0,1,72,232,59,1,,,,,,,,
,,,,,,,,,,,,,FF,,,,,,,,0.5319,,,,,,,,,,,,,,,,,,,,,,60ff41357ba0444d4858f86e,61036a078d4ce36d1951f685,2021-07-29_22h55.45.207,Simcolourproject_2stim_asymm_v5,2020.2.10,Linux x86_64,60,61025ae37ef11b136ea224fe,,,,,,,,,2818,43.25732422,110.8473511,1,0,0,response1disk,,7,-2.133789063,7.931488037,1,0,0,rectangle,-2.133789063,7.931488037,1,0,0,-2.133789063,7.931488037,1,0,0,1,73,233,1,1,,,,,,,,
,,,,,,,,,,,,,FF,,,,,,,,0.6472,,,,,,,,,,,,,,,,,,,,,,60ff41357ba0444d4858f86e,61036a078d4ce36d1951f685,2021-07-29_22h55.45.207,Simcolourproject_2stim_asymm_v5,2020.2.10,Linux x86_64,60,61025ae37ef11b136ea224fe,,,,,,,,,2053,68.86254883,49.32998657,1,0,0,response1disk,,6,18.04003906,1.74105835,1,0,0,rectangle,18.04003906,1.74105835,1,0,0,18.04003906,1.74105835,1,0,0,1,74,234,3,1,,,,,,,,
,,,,,,,,,,,,,FF,,,,,,,,0.4313,,,,,,,,,,,,,,,,,,,,,,60ff41357ba0444d4858f86e,61036a078d4ce36d1951f685,2021-07-29_22h55.45.207,Simcolourproject_2stim_asymm_v5,2020.2.10,Linux x86_64,60,61025ae37ef11b136ea224fe,,,,,,,,,2810,30.45471191,100.7879028,1,0,0,response1disk,,7,-3.297668457,11.02670288,1,0,0,rectangle,-3.297668457,11.02670288,1,0,0,-3.297668457,11.02670288,1,0,0,1,75,235,68,1,,,,,,,,
,,,,,,,,,,,,,FF,,,,,,,,0.8377,,,,,,,,,,,,,,,,,,,,,,60ff41357ba0444d4858f86e,61036a078d4ce36d1951f685,2021-07-29_22h55.45.207,Simcolourproject_2stim_asymm_v5,2020.2.10,Linux x86_64,60,61025ae37ef11b136ea224fe,,,,,,,,,3,-38.98980713,-80.66900635,1,0,0,response5disk,,3,-4.461547852,10.63980103,1,0,0,rectangle,-4.461547852,10.63980103,1,0,0,-4.461547852,10.63980103,1,0,0,1,76,236,81,1,,,,,,,,
,,,,,,,,,,,,,FF,,,,,,,,0.9999,,,,,,,,,,,,,,,,,,,,,,60ff41357ba0444d4858f86e,61036a078d4ce36d1951f685,2021-07-29_22h55.45.207,Simcolourproject_2stim_asymm_v5,2020.2.10,Linux x86_64,60,61025ae37ef11b136ea224fe,,,,,,,,,2542,-38.60180664,88.79394531,1,0,0,response7disk,,0,-2.521728516,5.610076904,1,0,0,rectangle,-2.521728516,5.610076904,1,0,0,-2.521728516,5.610076904,1,0,0,1,77,237,42,1,,,,,,,,
,,,,,,,,,,,,,FF,,,,,,,,1.5801,,,,,,,,,,,,,,,,,,,,,,60ff41357ba0444d4858f86e,61036a078d4ce36d1951f685,2021-07-29_22h55.45.207,Simcolourproject_2stim_asymm_v5,2020.2.10,Linux x86_64,60,61025ae37ef11b136ea224fe,,,,,,,,,1108,88.26043701,36.56222534,1,0,0,response1disk,,6,9.892944336,-4.836273193,1,0,0,rectangle,9.892944336,-4.836273193,1,0,0,9.892944336,-4.836273193,1,0,0,1,78,238,106,1,,,,,,,,
