key_resp.keys,key_resp.rt,key_resp_14.keys,key_resp_14.rt,key_resp_15.keys,key_resp_15.rt,key_resp_17.keys,key_resp_17.rt,key_resp_9.keys,key_resp_9.rt,key_resp_10.keys,key_resp_10.rt,practice_comparison,Ecc,mouse_5.x,mouse_5.y,mouse_5.leftButton,mouse_5.midButton,mouse_5.rightButton,mouse_5.clicked_name,pracsimilarity,response_time,mouse_10.x,mouse_10.y,mouse_10.leftButton,mouse_10.midButton,mouse_10.rightButton,mouse_10.clicked_name,mouse_7.x,mouse_7.y,mouse_7.leftButton,mouse_7.midButton,mouse_7.rightButton,mouse_6.x,mouse_6.y,mouse_6.leftButton,mouse_6.midButton,mouse_6.rightButton,duringprac.thisRepN,duringprac.thisTrialN,duringprac.thisN,duringprac.thisIndex,duringprac.ran,participant,session,date,expName,psychopyVersion,OS,frameRate,study_id,mouse_7.clicked_name,catchpracsimilarity,catch_response_time,catchnumberprac,catchtrialorderprac,mouse_6.clicked_name,key_resp_22.keys,key_resp_22.rt,realcomparison,mouse.x,mouse.y,mouse.leftButton,mouse.midButton,mouse.rightButton,mouse.clicked_name,Colour2,similarity,mouse_2.x,mouse_2.y,mouse_2.leftButton,mouse_2.midButton,mouse_2.rightButton,mouse_2.clicked_name,mouse_3.x,mouse_3.y,mouse_3.leftButton,mouse_3.midButton,mouse_3.rightButton,mouse_11.x,mouse_11.y,mouse_11.leftButton,mouse_11.midButton,mouse_11.rightButton,trials_2.thisRepN,trials_2.thisTrialN,trials_2.thisN,trials_2.thisIndex,trials_2.ran,Colour1,mouse_3.clicked_name,catchornah,catchsimilarity,catchnumber,catchtrialorder,catchRT,mouse_11.clicked_name
space,1.0192,space,1.0836,space,25.6118,space,2.1623,space,0.3503,space,2.2232,123,PF,-71.19998962,31.99999404,1,0,0,response7disk_5,1,3.7319,8.800011575,-8.000006557,1,0,0,rectangle_8,8.800011575,-8.000006557,1,0,0,8.800011575,-8.000006557,1,0,0,0,0,0,1,1,60ff1a126119afa26965e909,610378d7b8889db7fc75e75f,2021-07-29_23h59.22.774,Simcolourproject_2stim_asymm_v5,2020.2.10,Win32,60,61025ae37ef11b136ea224fe,,,,,,,,,,,,,,,,,,,,,,,,,,,,,,,,,,,,,,,,,,,,,,
,,,,,,,,,,,,128,PF,-29.599989,-87.20000774,1,0,0,response5disk_5,3,2.9498,0.800011456,0.799993575,1,0,0,rectangle_8,-63.1999895,-98.4000079,1,0,0,8.000011563,3.19999361,1,0,0,0,1,1,4,1,60ff1a126119afa26965e909,610378d7b8889db7fc75e75f,2021-07-29_23h59.22.774,Simcolourproject_2stim_asymm_v5,2020.2.10,Win32,60,61025ae37ef11b136ea224fe,response5disk_7,3,2.7155,3,"[2,5]",rectangle_4,,,,,,,,,,,,,,,,,,,,,,,,,,,,,,,,,,,,,,,,
,,,,,,,,,,,,82,FF,48.80001217,114.3999953,1,0,0,response1disk_5,7,2.3999,-14.39993994,-0.800006449,1,0,0,rectangle_8,-14.39993994,-0.800006449,1,0,0,-14.39993994,-0.800006449,1,0,0,0,2,2,0,1,60ff1a126119afa26965e909,610378d7b8889db7fc75e75f,2021-07-29_23h59.22.774,Simcolourproject_2stim_asymm_v5,2020.2.10,Win32,60,61025ae37ef11b136ea224fe,,,,,,,,,,,,,,,,,,,,,,,,,,,,,,,,,,,,,,,,,,,,,,
,,,,,,,,,,,,89,FF,73.60001254,35.19996967,1,0,0,response1disk_5,6,2.1499,-8.799988687,1.599993587,1,0,0,rectangle_8,-8.799988687,1.599993587,1,0,0,-8.799988687,1.599993587,1,0,0,0,3,3,3,1,60ff1a126119afa26965e909,610378d7b8889db7fc75e75f,2021-07-29_23h59.22.774,Simcolourproject_2stim_asymm_v5,2020.2.10,Win32,60,61025ae37ef11b136ea224fe,,,,,,,,,,,,,,,,,,,,,,,,,,,,,,,,,,,,,,,,,,,,,,
,,,,,,,,,,,,110,FF,92.80001283,-76.80000758,1,0,0,response3disk_5,5,3.2662,15.20001167,-16.00000668,1,0,0,rectangle_8,96.80001289,-44.00000709,1,0,0,-11.19998872,-7.200006545,1,0,0,0,4,4,5,1,60ff1a126119afa26965e909,610378d7b8889db7fc75e75f,2021-07-29_23h59.22.774,Simcolourproject_2stim_asymm_v5,2020.2.10,Win32,60,61025ae37ef11b136ea224fe,response3disk_7,5,2.033,3,"[2,5]",rectangle_4,,,,,,,,,,,,,,,,,,,,,,,,,,,,,,,,,,,,,,,,
,,,,,,,,,,,,159,PF,69.60001248,28.79999399,1,0,0,response1disk_5,6,2.416,-13.59998876,0.799993575,1,0,0,rectangle_8,-13.59998876,0.799993575,1,0,0,-13.59998876,0.799993575,1,0,0,0,5,5,2,1,60ff1a126119afa26965e909,610378d7b8889db7fc75e75f,2021-07-29_23h59.22.774,Simcolourproject_2stim_asymm_v5,2020.2.10,Win32,60,61025ae37ef11b136ea224fe,,,,,,,,,,,,,,,,,,,,,,,,,,,,,,,,,,,,,,,,,,,,,,
,,,,,,,,,,,,46,PF,-72.79998964,-53.60000724,1,0,0,response5disk_5,2,1.9829,2.40001148,-10.40000659,1,0,0,rectangle_8,2.40001148,-10.40000659,1,0,0,2.40001148,-10.40000659,1,0,0,0,6,6,6,1,60ff1a126119afa26965e909,610378d7b8889db7fc75e75f,2021-07-29_23h59.22.774,Simcolourproject_2stim_asymm_v5,2020.2.10,Win32,60,61025ae37ef11b136ea224fe,,,,,,,,,,,,,,,,,,,,,,,,,,,,,,,,,,,,,,,,,,,,,,
,,,,,,,,,,,,,FF,,,,,,,,1.9996,,,,,,,,,,,,,,,,,,,,,,60ff1a126119afa26965e909,610378d7b8889db7fc75e75f,2021-07-29_23h59.22.774,Simcolourproject_2stim_asymm_v5,2020.2.10,Win32,60,61025ae37ef11b136ea224fe,,,,,,,space,2.7026,995,67.20001245,-39.20000702,1,0,0,response3disk,,5,-8.799988687,-6.400006533,1,0,0,rectangle,-8.799988687,-6.400006533,1,0,0,-8.799988687,-6.400006533,1,0,0,0,0,0,15,1,,,,,,,,
,,,,,,,,,,,,,FF,,,,,,,,4.3995,,,,,,,,,,,,,,,,,,,,,,60ff1a126119afa26965e909,610378d7b8889db7fc75e75f,2021-07-29_23h59.22.774,Simcolourproject_2stim_asymm_v5,2020.2.10,Win32,60,61025ae37ef11b136ea224fe,,,,,,,,,2152,-40.79998916,-92.00000781,1,0,0,response5disk,,3,-10.39993988,-6.400006533,1,0,0,rectangle,-10.39993988,-6.400006533,1,0,0,-10.39993988,-6.400006533,1,0,0,0,1,1,52,1,,,,,,,,
,,,,,,,,,,,,,FF,,,,,,,,1.7341,,,,,,,,,,,,,,,,,,,,,,60ff1a126119afa26965e909,610378d7b8889db7fc75e75f,2021-07-29_23h59.22.774,Simcolourproject_2stim_asymm_v5,2020.2.10,Win32,60,61025ae37ef11b136ea224fe,,,,,,,,,223,78.40001261,-47.20000714,1,0,0,response3disk,,5,8.800011575,-5.600006521,1,0,0,rectangle,8.800011575,-5.600006521,1,0,0,8.800011575,-5.600006521,1,0,0,0,2,2,143,1,,,,,,,,
,,,,,,,,,,,,,FF,,,,,,,,1.9341,,,,,,,,,,,,,,,,,,,,,,60ff1a126119afa26965e909,610378d7b8889db7fc75e75f,2021-07-29_23h59.22.774,Simcolourproject_2stim_asymm_v5,2020.2.10,Win32,60,61025ae37ef11b136ea224fe,,,,,,,,,3094,55.20001227,-119.2000082,1,0,0,response3disk,,4,-3.999988616,-3.200006485,1,0,0,rectangle,-3.999988616,-3.200006485,1,0,0,-3.999988616,-3.200006485,1,0,0,0,3,3,62,1,,,,,,,,
,,,,,,,,,,,,,FF,,,,,,,,0.9828,,,,,,,,,,,,,,,,,,,,,,60ff1a126119afa26965e909,610378d7b8889db7fc75e75f,2021-07-29_23h59.22.774,Simcolourproject_2stim_asymm_v5,2020.2.10,Win32,60,61025ae37ef11b136ea224fe,,,,,,,,,1981,36.80001199,70.39999461,1,0,0,response1disk,,7,22.40001178,8.799993694,1,0,0,rectangle,22.40001178,8.799993694,1,0,0,22.40001178,8.799993694,1,0,0,0,4,4,10,1,,,,,,,,
,,,,,,,,,,,,,FF,,,,,,,,2.0171,,,,,,,,,,,,,,,,,,,,,,60ff1a126119afa26965e909,610378d7b8889db7fc75e75f,2021-07-29_23h59.22.774,Simcolourproject_2stim_asymm_v5,2020.2.10,Win32,60,61025ae37ef11b136ea224fe,,,,,,,,,2653,72.80001253,-43.20000708,1,0,0,response3disk,,5,36.00001198,0.799993575,1,0,0,rectangle,36.00001198,0.799993575,1,0,0,36.00001198,0.799993575,1,0,0,0,5,5,90,1,,,,,,,,
,,,,,,,,,,,,,FF,,,,,,,,1.8497,,,,,,,,,,,,,,,,,,,,,,60ff1a126119afa26965e909,610378d7b8889db7fc75e75f,2021-07-29_23h59.22.774,Simcolourproject_2stim_asymm_v5,2020.2.10,Win32,60,61025ae37ef11b136ea224fe,,,,,,,,,2185,89.60001278,40.79999417,1,0,0,response1disk,,6,32.80001193,6.399993658,1,0,0,rectangle,32.80001193,6.399993658,1,0,0,32.80001193,6.399993658,1,0,0,0,6,6,11,1,,,,,,,,
,,,,,,,,,,,,,FF,,,,,,,,1.6002,,,,,,,,,,,,,,,,,,,,,,60ff1a126119afa26965e909,610378d7b8889db7fc75e75f,2021-07-29_23h59.22.774,Simcolourproject_2stim_asymm_v5,2020.2.10,Win32,60,61025ae37ef11b136ea224fe,,,,,,,,,2138,79.20001262,-37.600007,1,0,0,response3disk,,5,33.60006077,-1.600006461,1,0,0,rectangle,33.60006077,-1.600006461,1,0,0,33.60006077,-1.600006461,1,0,0,0,7,7,158,1,,,,,,,,
,,,,,,,,,,,,,FF,,,,,,,,1.3996,,,,,,,,,,,,,,,,,,,,,,60ff1a126119afa26965e909,610378d7b8889db7fc75e75f,2021-07-29_23h59.22.774,Simcolourproject_2stim_asymm_v5,2020.2.10,Win32,60,61025ae37ef11b136ea224fe,,,,,,,,,1877,73.60001254,51.19996991,1,0,0,response1disk,,6,11.20001161,0.799993575,1,0,0,rectangle,-16.79998881,74.39999467,1,0,0,-6.399939823,-3.200006485,1,0,0,0,8,8,151,1,,response7disk_3,TRUE,0,0,"[267,259,156,83,29,108,222,115,322,45,89,318,9,135,79,232,97,246,61,60]",2.3669,rectangle
,,,,,,,,,,,,,FF,,,,,,,,2.1496,,,,,,,,,,,,,,,,,,,,,,60ff1a126119afa26965e909,610378d7b8889db7fc75e75f,2021-07-29_23h59.22.774,Simcolourproject_2stim_asymm_v5,2020.2.10,Win32,60,61025ae37ef11b136ea224fe,,,,,,,,,698,-65.59998953,-33.60000694,1,0,0,response5disk,,2,-9.599988699,-0.800006449,1,0,0,rectangle,-9.599988699,-0.800006449,1,0,0,-9.599988699,-0.800006449,1,0,0,0,9,9,114,1,,,,,,,,
,,,,,,,,,,,,,FF,,,,,,,,2.5502,,,,,,,,,,,,,,,,,,,,,,60ff1a126119afa26965e909,610378d7b8889db7fc75e75f,2021-07-29_23h59.22.774,Simcolourproject_2stim_asymm_v5,2020.2.10,Win32,60,61025ae37ef11b136ea224fe,,,,,,,,,3596,24.80001181,-108.8000081,1,0,0,response3disk,,4,16.80001169,-7.200006545,1,0,0,rectangle,16.80001169,-7.200006545,1,0,0,16.80001169,-7.200006545,1,0,0,0,10,10,78,1,,,,,,,,
,,,,,,,,,,,,,FF,,,,,,,,1.9004,,,,,,,,,,,,,,,,,,,,,,60ff1a126119afa26965e909,610378d7b8889db7fc75e75f,2021-07-29_23h59.22.774,Simcolourproject_2stim_asymm_v5,2020.2.10,Win32,60,61025ae37ef11b136ea224fe,,,,,,,,,2778,-100.7999901,32.79999405,1,0,0,response7disk,,1,-21.59998888,-4.000006497,1,0,0,rectangle,-21.59998888,-4.000006497,1,0,0,-21.59998888,-4.000006497,1,0,0,0,11,11,31,1,,,,,,,,
,,,,,,,,,,,,,FF,,,,,,,,1.5492,,,,,,,,,,,,,,,,,,,,,,60ff1a126119afa26965e909,610378d7b8889db7fc75e75f,2021-07-29_23h59.22.774,Simcolourproject_2stim_asymm_v5,2020.2.10,Win32,60,61025ae37ef11b136ea224fe,,,,,,,,,1414,83.20001268,32.79999405,1,0,0,response1disk,,6,-7.199988663,3.999993622,1,0,0,rectangle,-7.199988663,3.999993622,1,0,0,-7.199988663,3.999993622,1,0,0,0,12,12,111,1,,,,,,,,
,,,,,,,,,,,,,FF,,,,,,,,1.9496,,,,,,,,,,,,,,,,,,,,,,60ff1a126119afa26965e909,610378d7b8889db7fc75e75f,2021-07-29_23h59.22.774,Simcolourproject_2stim_asymm_v5,2020.2.10,Win32,60,61025ae37ef11b136ea224fe,,,,,,,,,607,-39.99998915,-96.80000788,1,0,0,response5disk,,3,8.800011575,15.19999379,1,0,0,rectangle,8.800011575,15.19999379,1,0,0,8.800011575,15.19999379,1,0,0,0,13,13,134,1,,,,,,,,
,,,,,,,,,,,,,FF,,,,,,,,1.0343,,,,,,,,,,,,,,,,,,,,,,60ff1a126119afa26965e909,610378d7b8889db7fc75e75f,2021-07-29_23h59.22.774,Simcolourproject_2stim_asymm_v5,2020.2.10,Win32,60,61025ae37ef11b136ea224fe,,,,,,,,,3927,40.00001204,64.79999453,1,0,0,response1disk,,7,-7.999988675,-12.80000663,1,0,0,rectangle,-7.999988675,-12.80000663,1,0,0,-7.999988675,-12.80000663,1,0,0,0,14,14,25,1,,,,,,,,
,,,,,,,,,,,,,FF,,,,,,,,0.7496,,,,,,,,,,,,,,,,,,,,,,60ff1a126119afa26965e909,610378d7b8889db7fc75e75f,2021-07-29_23h59.22.774,Simcolourproject_2stim_asymm_v5,2020.2.10,Win32,60,61025ae37ef11b136ea224fe,,,,,,,,,2196,27.20001185,65.59999454,1,0,0,response1disk,,7,14.40001166,11.19999373,1,0,0,rectangle,14.40001166,11.19999373,1,0,0,14.40001166,11.19999373,1,0,0,0,15,15,24,1,,,,,,,,
,,,,,,,,,,,,,FF,,,,,,,,1.0335,,,,,,,,,,,,,,,,,,,,,,60ff1a126119afa26965e909,610378d7b8889db7fc75e75f,2021-07-29_23h59.22.774,Simcolourproject_2stim_asymm_v5,2020.2.10,Win32,60,61025ae37ef11b136ea224fe,,,,,,,,,3042,92.00001281,-36.80000699,1,0,0,response3disk,,5,-24.79998893,3.999993622,1,0,0,rectangle,-24.79998893,3.999993622,1,0,0,-24.79998893,3.999993622,1,0,0,0,16,16,104,1,,,,,,,,
,,,,,,,,,,,,,FF,,,,,,,,1.7663,,,,,,,,,,,,,,,,,,,,,,60ff1a126119afa26965e909,610378d7b8889db7fc75e75f,2021-07-29_23h59.22.774,Simcolourproject_2stim_asymm_v5,2020.2.10,Win32,60,61025ae37ef11b136ea224fe,,,,,,,,,2064,-27.19998896,-92.00000781,1,0,0,response5disk,,3,-26.39994012,-16.80000669,1,0,0,rectangle,-26.39994012,-16.80000669,1,0,0,-26.39994012,-16.80000669,1,0,0,0,17,17,145,1,,,,,,,,
,,,,,,,,,,,,,FF,,,,,,,,2.8326,,,,,,,,,,,,,,,,,,,,,,60ff1a126119afa26965e909,610378d7b8889db7fc75e75f,2021-07-29_23h59.22.774,Simcolourproject_2stim_asymm_v5,2020.2.10,Win32,60,61025ae37ef11b136ea224fe,,,,,,,,,1838,-36.7999891,-106.400008,1,0,0,response5disk,,3,-1.59998858,-6.400006533,1,0,0,rectangle,-1.59998858,-6.400006533,1,0,0,-1.59998858,-6.400006533,1,0,0,0,18,18,105,1,,,,,,,,
,,,,,,,,,,,,,FF,,,,,,,,1.5003,,,,,,,,,,,,,,,,,,,,,,60ff1a126119afa26965e909,610378d7b8889db7fc75e75f,2021-07-29_23h59.22.774,Simcolourproject_2stim_asymm_v5,2020.2.10,Win32,60,61025ae37ef11b136ea224fe,,,,,,,,,3719,-90.39994107,-37.600007,1,0,0,response5disk,,2,-9.599988699,-3.200006485,1,0,0,rectangle,-9.599988699,-3.200006485,1,0,0,-9.599988699,-3.200006485,1,0,0,0,19,19,61,1,,,,,,,,
,,,,,,,,,,,,,FF,,,,,,,,2.4673,,,,,,,,,,,,,,,,,,,,,,60ff1a126119afa26965e909,610378d7b8889db7fc75e75f,2021-07-29_23h59.22.774,Simcolourproject_2stim_asymm_v5,2020.2.10,Win32,60,61025ae37ef11b136ea224fe,,,,,,,,,2254,60.00001234,-109.6000569,1,0,0,response3disk,,4,7.200011551,-0.800006449,1,0,0,rectangle,7.200011551,-0.800006449,1,0,0,7.200011551,-0.800006449,1,0,0,0,20,20,34,1,,,,,,,,
,,,,,,,,,,,,,FF,,,,,,,,2.0536,,,,,,,,,,,,,,,,,,,,,,60ff1a126119afa26965e909,610378d7b8889db7fc75e75f,2021-07-29_23h59.22.774,Simcolourproject_2stim_asymm_v5,2020.2.10,Win32,60,61025ae37ef11b136ea224fe,,,,,,,,,1502,87.20001274,47.99999428,1,0,0,response1disk,,6,-13.59998876,3.999993622,1,0,0,rectangle,-13.59998876,3.999993622,1,0,0,-13.59998876,3.999993622,1,0,0,0,21,21,92,1,,,,,,,,
,,,,,,,,,,,,,FF,,,,,,,,1.4158,,,,,,,,,,,,,,,,,,,,,,60ff1a126119afa26965e909,610378d7b8889db7fc75e75f,2021-07-29_23h59.22.774,Simcolourproject_2stim_asymm_v5,2020.2.10,Win32,60,61025ae37ef11b136ea224fe,,,,,,,,,3229,88.00001276,47.99999428,1,0,0,response1disk,,6,18.40001172,-0.800006449,1,0,0,rectangle,18.40001172,-0.800006449,1,0,0,18.40001172,-0.800006449,1,0,0,0,22,22,127,1,,,,,,,,
,,,,,,,,,,,,,FF,,,,,,,,4.9661,,,,,,,,,,,,,,,,,,,,,,60ff1a126119afa26965e909,610378d7b8889db7fc75e75f,2021-07-29_23h59.22.774,Simcolourproject_2stim_asymm_v5,2020.2.10,Win32,60,61025ae37ef11b136ea224fe,,,,,,,,,2521,52.00001222,89.5999949,1,0,0,response1disk,,7,17.60006053,12.79999375,1,0,0,rectangle,17.60006053,12.79999375,1,0,0,17.60006053,12.79999375,1,0,0,0,23,23,16,1,,,,,,,,
,,,,,,,,,,,,,FF,,,,,,,,2.833,,,,,,,,,,,,,,,,,,,,,,60ff1a126119afa26965e909,610378d7b8889db7fc75e75f,2021-07-29_23h59.22.774,Simcolourproject_2stim_asymm_v5,2020.2.10,Win32,60,61025ae37ef11b136ea224fe,,,,,,,,,2489,43.20001209,-74.40000755,1,0,0,response3disk,,4,2.40001148,7.19999367,1,0,0,rectangle,2.40001148,7.19999367,1,0,0,2.40001148,7.19999367,1,0,0,0,24,24,21,1,,,,,,,,
,,,,,,,,,,,,,FF,,,,,,,,4.2665,,,,,,,,,,,,,,,,,,,,,,60ff1a126119afa26965e909,610378d7b8889db7fc75e75f,2021-07-29_23h59.22.774,Simcolourproject_2stim_asymm_v5,2020.2.10,Win32,60,61025ae37ef11b136ea224fe,,,,,,,,,3401,92.00001281,-42.40000707,1,0,0,response3disk,,5,-19.99998885,11.99999374,1,0,0,rectangle,-19.99998885,11.99999374,1,0,0,-19.99998885,11.99999374,1,0,0,0,25,25,121,1,,,,,,,,
,,,,,,,,,,,,,FF,,,,,,,,1.4994,,,,,,,,,,,,,,,,,,,,,,60ff1a126119afa26965e909,610378d7b8889db7fc75e75f,2021-07-29_23h59.22.774,Simcolourproject_2stim_asymm_v5,2020.2.10,Win32,60,61025ae37ef11b136ea224fe,,,,,,,,,2622,52.00001222,-88.80000776,1,0,0,response3disk,,4,1.14441E-05,-3.200006485,1,0,0,rectangle,1.14441E-05,-3.200006485,1,0,0,1.14441E-05,-3.200006485,1,0,0,0,26,26,72,1,,,,,,,,
,,,,,,,,,,,,,FF,,,,,,,,1.9163,,,,,,,,,,,,,,,,,,,,,,60ff1a126119afa26965e909,610378d7b8889db7fc75e75f,2021-07-29_23h59.22.774,Simcolourproject_2stim_asymm_v5,2020.2.10,Win32,60,61025ae37ef11b136ea224fe,,,,,,,,,1794,48.00001216,-82.40000767,1,0,0,response3disk,,4,13.60006047,-6.400006533,1,0,0,rectangle,13.60006047,-6.400006533,1,0,0,13.60006047,-6.400006533,1,0,0,0,27,27,69,1,,,,,,,,
,,,,,,,,,,,,,FF,,,,,,,,1.2501,,,,,,,,,,,,,,,,,,,,,,60ff1a126119afa26965e909,610378d7b8889db7fc75e75f,2021-07-29_23h59.22.774,Simcolourproject_2stim_asymm_v5,2020.2.10,Win32,60,61025ae37ef11b136ea224fe,,,,,,,,,622,68.80001247,-41.60000706,1,0,0,response3disk,,5,18.40001172,2.399993598,1,0,0,rectangle,98.40001291,-49.60000718,1,0,0,10.4000116,0.799993575,1,0,0,0,28,28,4,1,,response3disk_3,TRUE,5,5,"[267,259,156,83,29,108,222,115,322,45,89,318,9,135,79,232,97,246,61,60]",1.8175,rectangle
,,,,,,,,,,,,,FF,,,,,,,,1.4339,,,,,,,,,,,,,,,,,,,,,,60ff1a126119afa26965e909,610378d7b8889db7fc75e75f,2021-07-29_23h59.22.774,Simcolourproject_2stim_asymm_v5,2020.2.10,Win32,60,61025ae37ef11b136ea224fe,,,,,,,,,2549,-84.79998982,29.599994,1,0,0,response7disk,,1,-1.59998858,0.799993575,1,0,0,rectangle,-1.59998858,0.799993575,1,0,0,-1.59998858,0.799993575,1,0,0,0,29,29,132,1,,,,,,,,
,,,,,,,,,,,,,FF,,,,,,,,1.3339,,,,,,,,,,,,,,,,,,,,,,60ff1a126119afa26965e909,610378d7b8889db7fc75e75f,2021-07-29_23h59.22.774,Simcolourproject_2stim_asymm_v5,2020.2.10,Win32,60,61025ae37ef11b136ea224fe,,,,,,,,,1510,45.60006095,-96.00000787,1,0,0,response3disk,,4,-3.199988604,16.79999381,1,0,0,rectangle,-3.199988604,16.79999381,1,0,0,-3.199988604,16.79999381,1,0,0,0,30,30,102,1,,,,,,,,
,,,,,,,,,,,,,FF,,,,,,,,1.1336,,,,,,,,,,,,,,,,,,,,,,60ff1a126119afa26965e909,610378d7b8889db7fc75e75f,2021-07-29_23h59.22.774,Simcolourproject_2stim_asymm_v5,2020.2.10,Win32,60,61025ae37ef11b136ea224fe,,,,,,,,,63,-94.39994113,-44.8000071,1,0,0,response5disk,,2,-14.39993994,-2.400006473,1,0,0,rectangle,-14.39993994,-2.400006473,1,0,0,-14.39993994,-2.400006473,1,0,0,0,31,31,156,1,,,,,,,,
,,,,,,,,,,,,,FF,,,,,,,,1.6998,,,,,,,,,,,,,,,,,,,,,,60ff1a126119afa26965e909,610378d7b8889db7fc75e75f,2021-07-29_23h59.22.774,Simcolourproject_2stim_asymm_v5,2020.2.10,Win32,60,61025ae37ef11b136ea224fe,,,,,,,,,2429,80.00001264,-30.40000689,1,0,0,response3disk,,5,-1.59998858,1.599993587,1,0,0,rectangle,-1.59998858,1.599993587,1,0,0,-1.59998858,1.599993587,1,0,0,0,32,32,135,1,,,,,,,,
,,,,,,,,,,,,,FF,,,,,,,,1.3164,,,,,,,,,,,,,,,,,,,,,,60ff1a126119afa26965e909,610378d7b8889db7fc75e75f,2021-07-29_23h59.22.774,Simcolourproject_2stim_asymm_v5,2020.2.10,Win32,60,61025ae37ef11b136ea224fe,,,,,,,,,492,61.60001236,80.79999477,1,0,0,response1disk,,7,-22.39994006,1.599993587,1,0,0,rectangle,-22.39994006,1.599993587,1,0,0,-22.39994006,1.599993587,1,0,0,0,33,33,89,1,,,,,,,,
,,,,,,,,,,,,,FF,,,,,,,,1.3828,,,,,,,,,,,,,,,,,,,,,,60ff1a126119afa26965e909,610378d7b8889db7fc75e75f,2021-07-29_23h59.22.774,Simcolourproject_2stim_asymm_v5,2020.2.10,Win32,60,61025ae37ef11b136ea224fe,,,,,,,,,2873,84.0000127,32.79999405,1,0,0,response1disk,,6,28.00001186,-1.600006461,1,0,0,rectangle,28.00001186,-1.600006461,1,0,0,28.00001186,-1.600006461,1,0,0,0,34,34,146,1,,,,,,,,
,,,,,,,,,,,,,FF,,,,,,,,1.6165,,,,,,,,,,,,,,,,,,,,,,60ff1a126119afa26965e909,610378d7b8889db7fc75e75f,2021-07-29_23h59.22.774,Simcolourproject_2stim_asymm_v5,2020.2.10,Win32,60,61025ae37ef11b136ea224fe,,,,,,,,,3278,88.80001277,-29.60000688,1,0,0,response3disk,,5,34.40001196,-6.400006533,1,0,0,rectangle,34.40001196,-6.400006533,1,0,0,34.40001196,-6.400006533,1,0,0,0,35,35,110,1,,,,,,,,
,,,,,,,,,,,,,FF,,,,,,,,1.2667,,,,,,,,,,,,,,,,,,,,,,60ff1a126119afa26965e909,610378d7b8889db7fc75e75f,2021-07-29_23h59.22.774,Simcolourproject_2stim_asymm_v5,2020.2.10,Win32,60,61025ae37ef11b136ea224fe,,,,,,,,,972,-35.19998908,-99.20000792,1,0,0,response5disk,,3,4.800011516,2.399993598,1,0,0,rectangle,4.800011516,2.399993598,1,0,0,4.800011516,2.399993598,1,0,0,0,36,36,94,1,,,,,,,,
,,,,,,,,,,,,,FF,,,,,,,,2.2334,,,,,,,,,,,,,,,,,,,,,,60ff1a126119afa26965e909,610378d7b8889db7fc75e75f,2021-07-29_23h59.22.774,Simcolourproject_2stim_asymm_v5,2020.2.10,Win32,60,61025ae37ef11b136ea224fe,,,,,,,,,2110,45.60006095,-88.00000775,1,0,0,response3disk,,4,9.600060415,-1.600006461,1,0,0,rectangle,9.600060415,-1.600006461,1,0,0,9.600060415,-1.600006461,1,0,0,0,37,37,93,1,,,,,,,,
,,,,,,,,,,,,,FF,,,,,,,,1.4824,,,,,,,,,,,,,,,,,,,,,,60ff1a126119afa26965e909,610378d7b8889db7fc75e75f,2021-07-29_23h59.22.774,Simcolourproject_2stim_asymm_v5,2020.2.10,Win32,60,61025ae37ef11b136ea224fe,,,,,,,,,1695,76.80001259,-47.20000714,1,0,0,response3disk,,5,-15.19998878,-2.400006473,1,0,0,rectangle,-15.19998878,-2.400006473,1,0,0,-15.19998878,-2.400006473,1,0,0,0,38,38,59,1,,,,,,,,
,,,,,,,,,,,,,FF,,,,,,,,2.5459,,,,,,,,,,,,,,,,,,,,,,60ff1a126119afa26965e909,610378d7b8889db7fc75e75f,2021-07-29_23h59.22.774,Simcolourproject_2stim_asymm_v5,2020.2.10,Win32,60,61025ae37ef11b136ea224fe,,,,,,,,,2043,-59.19998944,-114.4000081,1,0,0,response5disk,,3,6.400011539,1.599993587,1,0,0,rectangle,6.400011539,1.599993587,1,0,0,6.400011539,1.599993587,1,0,0,0,39,39,17,1,,,,,,,,
,,,,,,,,,,,,,FF,,,,,,,,1.2502,,,,,,,,,,,,,,,,,,,,,,60ff1a126119afa26965e909,610378d7b8889db7fc75e75f,2021-07-29_23h59.22.774,Simcolourproject_2stim_asymm_v5,2020.2.10,Win32,60,61025ae37ef11b136ea224fe,,,,,,,,,1493,99.20001292,23.19996949,1,0,0,response1disk,,6,1.600060296,0.799993575,1,0,0,rectangle,1.600060296,0.799993575,1,0,0,1.600060296,0.799993575,1,0,0,0,40,40,124,1,,,,,,,,
,,,,,,,,,,,,,FF,,,,,,,,1.6838,,,,,,,,,,,,,,,,,,,,,,60ff1a126119afa26965e909,610378d7b8889db7fc75e75f,2021-07-29_23h59.22.774,Simcolourproject_2stim_asymm_v5,2020.2.10,Win32,60,61025ae37ef11b136ea224fe,,,,,,,,,1904,-97.59999001,-21.60000676,1,0,0,response5disk,,2,26.40001184,3.19999361,1,0,0,rectangle,26.40001184,3.19999361,1,0,0,26.40001184,3.19999361,1,0,0,0,41,41,97,1,,,,,,,,
,,,,,,,,,,,,,FF,,,,,,,,3.1204,,,,,,,,,,,,,,,,,,,,,,60ff1a126119afa26965e909,610378d7b8889db7fc75e75f,2021-07-29_23h59.22.774,Simcolourproject_2stim_asymm_v5,2020.2.10,Win32,60,61025ae37ef11b136ea224fe,,,,,,,,,1006,105.600013,-28.80000687,1,0,0,response3disk,,5,-11.19998872,11.99999374,1,0,0,rectangle,-11.19998872,11.99999374,1,0,0,-11.19998872,11.99999374,1,0,0,0,42,42,9,1,,,,,,,,
,,,,,,,,,,,,,FF,,,,,,,,1.9674,,,,,,,,,,,,,,,,,,,,,,60ff1a126119afa26965e909,610378d7b8889db7fc75e75f,2021-07-29_23h59.22.774,Simcolourproject_2stim_asymm_v5,2020.2.10,Win32,60,61025ae37ef11b136ea224fe,,,,,,,,,555,-35.19998908,-94.40000784,1,0,0,response5disk,,3,-11.99998873,-11.2000066,1,0,0,rectangle,-11.99998873,-11.2000066,1,0,0,-11.99998873,-11.2000066,1,0,0,0,43,43,81,1,,,,,,,,
,,,,,,,,,,,,,FF,,,,,,,,1.4334,,,,,,,,,,,,,,,,,,,,,,60ff1a126119afa26965e909,610378d7b8889db7fc75e75f,2021-07-29_23h59.22.774,Simcolourproject_2stim_asymm_v5,2020.2.10,Win32,60,61025ae37ef11b136ea224fe,,,,,,,,,991,62.40001237,-86.40000772,1,0,0,response3disk,,4,-19.19998884,2.399993598,1,0,0,rectangle,-77.59998971,-35.20000696,1,0,0,-29.599989,-4.800006509,1,0,0,0,44,44,66,1,,response5disk_3,TRUE,2,2,"[267,259,156,83,29,108,222,115,322,45,89,318,9,135,79,232,97,246,61,60]",1.7169,rectangle
,,,,,,,,,,,,,FF,,,,,,,,1.6296,,,,,,,,,,,,,,,,,,,,,,60ff1a126119afa26965e909,610378d7b8889db7fc75e75f,2021-07-29_23h59.22.774,Simcolourproject_2stim_asymm_v5,2020.2.10,Win32,60,61025ae37ef11b136ea224fe,,,,,,,,,2990,-87.19998986,-49.60000718,1,0,0,response5disk,,2,-13.59998876,-6.400006533,1,0,0,rectangle,-13.59998876,-6.400006533,1,0,0,-13.59998876,-6.400006533,1,0,0,0,45,45,58,1,,,,,,,,
,,,,,,,,,,,,,FF,,,,,,,,1.8826,,,,,,,,,,,,,,,,,,,,,,60ff1a126119afa26965e909,610378d7b8889db7fc75e75f,2021-07-29_23h59.22.774,Simcolourproject_2stim_asymm_v5,2020.2.10,Win32,60,61025ae37ef11b136ea224fe,,,,,,,,,3850,-56.7999894,-106.400008,1,0,0,response5disk,,3,16.00001168,-7.200006545,1,0,0,rectangle,16.00001168,-7.200006545,1,0,0,16.00001168,-7.200006545,1,0,0,0,46,46,101,1,,,,,,,,
,,,,,,,,,,,,,FF,,,,,,,,1.2829,,,,,,,,,,,,,,,,,,,,,,60ff1a126119afa26965e909,610378d7b8889db7fc75e75f,2021-07-29_23h59.22.774,Simcolourproject_2stim_asymm_v5,2020.2.10,Win32,60,61025ae37ef11b136ea224fe,,,,,,,,,2090,64.80001241,-31.2000069,1,0,0,response3disk,,5,3.200011492,8.799993694,1,0,0,rectangle,3.200011492,8.799993694,1,0,0,3.200011492,8.799993694,1,0,0,0,47,47,40,1,,,,,,,,
,,,,,,,,,,,,,FF,,,,,,,,1.7028,,,,,,,,,,,,,,,,,,,,,,60ff1a126119afa26965e909,610378d7b8889db7fc75e75f,2021-07-29_23h59.22.774,Simcolourproject_2stim_asymm_v5,2020.2.10,Win32,60,61025ae37ef11b136ea224fe,,,,,,,,,1565,84.0000127,-40.00000703,1,0,0,response3disk,,5,12.00001162,0.799993575,1,0,0,rectangle,12.00001162,0.799993575,1,0,0,12.00001162,0.799993575,1,0,0,0,48,48,129,1,,,,,,,,
,,,,,,,,,,,,,FF,,,,,,,,1.5672,,,,,,,,,,,,,,,,,,,,,,60ff1a126119afa26965e909,610378d7b8889db7fc75e75f,2021-07-29_23h59.22.774,Simcolourproject_2stim_asymm_v5,2020.2.10,Win32,60,61025ae37ef11b136ea224fe,,,,,,,,,140,48.00001216,71.99999464,1,0,0,response1disk,,7,-12.79998875,-6.4373E-06,1,0,0,rectangle,-12.79998875,-6.4373E-06,1,0,0,-12.79998875,-6.4373E-06,1,0,0,0,49,49,79,1,,,,,,,,
,,,,,,,,,,,,,FF,,,,,,,,2.3833,,,,,,,,,,,,,,,,,,,,,,60ff1a126119afa26965e909,610378d7b8889db7fc75e75f,2021-07-29_23h59.22.774,Simcolourproject_2stim_asymm_v5,2020.2.10,Win32,60,61025ae37ef11b136ea224fe,,,,,,,,,1288,52.00001222,-101.6000568,1,0,0,response3disk,,4,-15.19998878,-3.200006485,1,0,0,rectangle,-15.19998878,-3.200006485,1,0,0,-15.19998878,-3.200006485,1,0,0,0,50,50,20,1,,,,,,,,
,,,,,,,,,,,,,FF,,,,,,,,3.3162,,,,,,,,,,,,,,,,,,,,,,60ff1a126119afa26965e909,610378d7b8889db7fc75e75f,2021-07-29_23h59.22.774,Simcolourproject_2stim_asymm_v5,2020.2.10,Win32,60,61025ae37ef11b136ea224fe,,,,,,,,,2935,47.20001215,72.79999465,1,0,0,response1disk,,7,14.40001166,-2.400006473,1,0,0,rectangle,14.40001166,-2.400006473,1,0,0,14.40001166,-2.400006473,1,0,0,0,51,51,109,1,,,,,,,,
,,,,,,,,,,,,,FF,,,,,,,,4.4499,,,,,,,,,,,,,,,,,,,,,,60ff1a126119afa26965e909,610378d7b8889db7fc75e75f,2021-07-29_23h59.22.774,Simcolourproject_2stim_asymm_v5,2020.2.10,Win32,60,61025ae37ef11b136ea224fe,,,,,,,,,1165,74.40001255,-40.80000705,1,0,0,response3disk,,5,16.00001168,3.19999361,1,0,0,rectangle,16.00001168,3.19999361,1,0,0,16.00001168,3.19999361,1,0,0,0,52,52,159,1,,,,,,,,
,,,,,,,,,,,,,FF,,,,,,,,1.9041,,,,,,,,,,,,,,,,,,,,,,60ff1a126119afa26965e909,610378d7b8889db7fc75e75f,2021-07-29_23h59.22.774,Simcolourproject_2stim_asymm_v5,2020.2.10,Win32,60,61025ae37ef11b136ea224fe,,,,,,,,,1854,92.80001283,-60.00000733,1,0,0,response3disk,,5,-14.39993994,4.799993634,1,0,0,rectangle,-14.39993994,4.799993634,1,0,0,-14.39993994,4.799993634,1,0,0,0,53,53,88,1,,,,,,,,
,,,,,,,,,,,,,FF,,,,,,,,0.9996,,,,,,,,,,,,,,,,,,,,,,60ff1a126119afa26965e909,610378d7b8889db7fc75e75f,2021-07-29_23h59.22.774,Simcolourproject_2stim_asymm_v5,2020.2.10,Win32,60,61025ae37ef11b136ea224fe,,,,,,,,,351,-75.99998969,40.79999417,1,0,0,response7disk,,1,-19.19998884,1.599993587,1,0,0,rectangle,-19.19998884,1.599993587,1,0,0,-19.19998884,1.599993587,1,0,0,0,54,54,95,1,,,,,,,,
,,,,,,,,,,,,,FF,,,,,,,,2.05,,,,,,,,,,,,,,,,,,,,,,60ff1a126119afa26965e909,610378d7b8889db7fc75e75f,2021-07-29_23h59.22.774,Simcolourproject_2stim_asymm_v5,2020.2.10,Win32,60,61025ae37ef11b136ea224fe,,,,,,,,,154,51.20001221,-92.80000782,1,0,0,response3disk,,4,12.00001162,7.999993682,1,0,0,rectangle,12.00001162,7.999993682,1,0,0,12.00001162,7.999993682,1,0,0,0,55,55,23,1,,,,,,,,
,,,,,,,,,,,,,FF,,,,,,,,1.2035,,,,,,,,,,,,,,,,,,,,,,60ff1a126119afa26965e909,610378d7b8889db7fc75e75f,2021-07-29_23h59.22.774,Simcolourproject_2stim_asymm_v5,2020.2.10,Win32,60,61025ae37ef11b136ea224fe,,,,,,,,,460,-65.59998953,-17.6000067,1,0,0,response5disk,,2,-7.199988663,-14.40000665,1,0,0,rectangle,-7.199988663,-14.40000665,1,0,0,-7.199988663,-14.40000665,1,0,0,0,56,56,49,1,,,,,,,,
,,,,,,,,,,,,,FF,,,,,,,,1.0168,,,,,,,,,,,,,,,,,,,,,,60ff1a126119afa26965e909,610378d7b8889db7fc75e75f,2021-07-29_23h59.22.774,Simcolourproject_2stim_asymm_v5,2020.2.10,Win32,60,61025ae37ef11b136ea224fe,,,,,,,,,1463,80.80001265,26.39999396,1,0,0,response1disk,,6,-11.99998873,3.19999361,1,0,0,rectangle,-11.99998873,3.19999361,1,0,0,-11.99998873,3.19999361,1,0,0,0,57,57,38,1,,,,,,,,
,,,,,,,,,,,,,FF,,,,,,,,1.1001,,,,,,,,,,,,,,,,,,,,,,60ff1a126119afa26965e909,610378d7b8889db7fc75e75f,2021-07-29_23h59.22.774,Simcolourproject_2stim_asymm_v5,2020.2.10,Win32,60,61025ae37ef11b136ea224fe,,,,,,,,,2286,44.0000121,81.59999478,1,0,0,response1disk,,7,8.800011575,3.19999361,1,0,0,rectangle,8.800011575,3.19999361,1,0,0,8.800011575,3.19999361,1,0,0,0,58,58,5,1,,,,,,,,
,,,,,,,,,,,,,FF,,,,,,,,2.3039,,,,,,,,,,,,,,,,,,,,,,60ff1a126119afa26965e909,610378d7b8889db7fc75e75f,2021-07-29_23h59.22.774,Simcolourproject_2stim_asymm_v5,2020.2.10,Win32,60,61025ae37ef11b136ea224fe,,,,,,,,,2973,80.80001265,-37.600007,1,0,0,response3disk,,5,-4.799988627,3.19999361,1,0,0,rectangle,50.4000122,-96.80000788,1,0,0,-15.19998878,5.599993646,1,0,0,0,59,59,100,1,,response3disk_3,TRUE,4,4,"[267,259,156,83,29,108,222,115,322,45,89,318,9,135,79,232,97,246,61,60]",1.4827,rectangle
,,,,,,,,,,,,,FF,,,,,,,,2.2665,,,,,,,,,,,,,,,,,,,,,,60ff1a126119afa26965e909,610378d7b8889db7fc75e75f,2021-07-29_23h59.22.774,Simcolourproject_2stim_asymm_v5,2020.2.10,Win32,60,61025ae37ef11b136ea224fe,,,,,,,,,1529,57.6000123,-99.20000792,1,0,0,response3disk,,4,4.800011516,-4.000006497,1,0,0,rectangle,88.80001277,-32.80000693,1,0,0,26.40001184,-4.800006509,1,0,0,0,60,60,7,1,,response3disk_3,TRUE,5,5,"[267,259,156,83,29,108,222,115,322,45,89,318,9,135,79,232,97,246,61,60]",1.3661,rectangle
,,,,,,,,,,,,,FF,,,,,,,,1.333,,,,,,,,,,,,,,,,,,,,,,60ff1a126119afa26965e909,610378d7b8889db7fc75e75f,2021-07-29_23h59.22.774,Simcolourproject_2stim_asymm_v5,2020.2.10,Win32,60,61025ae37ef11b136ea224fe,,,,,,,,,2218,-55.19998938,41.59999418,1,0,0,response7disk,,1,-8.799988687,-2.400006473,1,0,0,rectangle,-8.799988687,-2.400006473,1,0,0,-8.799988687,-2.400006473,1,0,0,0,61,61,144,1,,,,,,,,
,,,,,,,,,,,,,FF,,,,,,,,2.5505,,,,,,,,,,,,,,,,,,,,,,60ff1a126119afa26965e909,610378d7b8889db7fc75e75f,2021-07-29_23h59.22.774,Simcolourproject_2stim_asymm_v5,2020.2.10,Win32,60,61025ae37ef11b136ea224fe,,,,,,,,,2376,56.80001229,-101.6000568,1,0,0,response3disk,,4,8.000011563,-16.00000668,1,0,0,rectangle,8.000011563,-16.00000668,1,0,0,8.000011563,-16.00000668,1,0,0,0,62,62,27,1,,,,,,,,
,,,,,,,,,,,,,FF,,,,,,,,1.7167,,,,,,,,,,,,,,,,,,,,,,60ff1a126119afa26965e909,610378d7b8889db7fc75e75f,2021-07-29_23h59.22.774,Simcolourproject_2stim_asymm_v5,2020.2.10,Win32,60,61025ae37ef11b136ea224fe,,,,,,,,,955,-35.99998909,-86.40000772,1,0,0,response5disk,,3,6.400011539,13.59999377,1,0,0,rectangle,6.400011539,13.59999377,1,0,0,6.400011539,13.59999377,1,0,0,0,63,63,122,1,,,,,,,,
,,,,,,,,,,,,,FF,,,,,,,,2.3338,,,,,,,,,,,,,,,,,,,,,,60ff1a126119afa26965e909,610378d7b8889db7fc75e75f,2021-07-29_23h59.22.774,Simcolourproject_2stim_asymm_v5,2020.2.10,Win32,60,61025ae37ef11b136ea224fe,,,,,,,,,2584,96.80001289,-31.2000069,1,0,0,response3disk,,5,-6.399939823,-3.200006485,1,0,0,rectangle,-6.399939823,-3.200006485,1,0,0,-6.399939823,-3.200006485,1,0,0,0,64,64,44,1,,,,,,,,
,,,,,,,,,,,,,FF,,,,,,,,1.0833,,,,,,,,,,,,,,,,,,,,,,60ff1a126119afa26965e909,610378d7b8889db7fc75e75f,2021-07-29_23h59.22.774,Simcolourproject_2stim_asymm_v5,2020.2.10,Win32,60,61025ae37ef11b136ea224fe,,,,,,,,,361,41.60006089,71.99999464,1,0,0,response1disk,,7,11.20001161,0.799993575,1,0,0,rectangle,11.20001161,0.799993575,1,0,0,11.20001161,0.799993575,1,0,0,0,65,65,126,1,,,,,,,,
,,,,,,,,,,,,,FF,,,,,,,,2.6994,,,,,,,,,,,,,,,,,,,,,,60ff1a126119afa26965e909,610378d7b8889db7fc75e75f,2021-07-29_23h59.22.774,Simcolourproject_2stim_asymm_v5,2020.2.10,Win32,60,61025ae37ef11b136ea224fe,,,,,,,,,1683,-32.79998904,-80.80000764,1,0,0,response5disk,,3,4.000011504,-7.200006545,1,0,0,rectangle,4.000011504,-7.200006545,1,0,0,4.000011504,-7.200006545,1,0,0,0,66,66,128,1,,,,,,,,
,,,,,,,,,,,,,FF,,,,,,,,4.1163,,,,,,,,,,,,,,,,,,,,,,60ff1a126119afa26965e909,610378d7b8889db7fc75e75f,2021-07-29_23h59.22.774,Simcolourproject_2stim_asymm_v5,2020.2.10,Win32,60,61025ae37ef11b136ea224fe,,,,,,,,,996,112.8000131,26.39999396,1,0,0,response1disk,,6,9.600060415,3.999993622,1,0,0,rectangle,9.600060415,3.999993622,1,0,0,9.600060415,3.999993622,1,0,0,0,67,67,155,1,,,,,,,,
,,,,,,,,,,,,,FF,,,,,,,,1.6838,,,,,,,,,,,,,,,,,,,,,,60ff1a126119afa26965e909,610378d7b8889db7fc75e75f,2021-07-29_23h59.22.774,Simcolourproject_2stim_asymm_v5,2020.2.10,Win32,60,61025ae37ef11b136ea224fe,,,,,,,,,956,-38.3999403,-90.40000778,1,0,0,response5disk,,3,18.40001172,2.399993598,1,0,0,rectangle,18.40001172,2.399993598,1,0,0,18.40001172,2.399993598,1,0,0,0,68,68,71,1,,,,,,,,
,,,,,,,,,,,,,FF,,,,,,,,1.1663,,,,,,,,,,,,,,,,,,,,,,60ff1a126119afa26965e909,610378d7b8889db7fc75e75f,2021-07-29_23h59.22.774,Simcolourproject_2stim_asymm_v5,2020.2.10,Win32,60,61025ae37ef11b136ea224fe,,,,,,,,,4163,-68.79998958,45.59999424,1,0,0,response7disk,,1,-27.99998897,8.799993694,1,0,0,rectangle,-27.99998897,8.799993694,1,0,0,-27.99998897,8.799993694,1,0,0,0,69,69,26,1,,,,,,,,
,,,,,,,,,,,,,FF,,,,,,,,4.3002,,,,,,,,,,,,,,,,,,,,,,60ff1a126119afa26965e909,610378d7b8889db7fc75e75f,2021-07-29_23h59.22.774,Simcolourproject_2stim_asymm_v5,2020.2.10,Win32,60,61025ae37ef11b136ea224fe,,,,,,,,,623,56.00001228,-84.8000077,1,0,0,response3disk,,4,-11.19998872,-5.600006521,1,0,0,rectangle,-11.19998872,-5.600006521,1,0,0,-11.19998872,-5.600006521,1,0,0,0,70,70,48,1,,,,,,,,
,,,,,,,,,,,,,FF,,,,,,,,1.0669,,,,,,,,,,,,,,,,,,,,,,60ff1a126119afa26965e909,610378d7b8889db7fc75e75f,2021-07-29_23h59.22.774,Simcolourproject_2stim_asymm_v5,2020.2.10,Win32,60,61025ae37ef11b136ea224fe,,,,,,,,,3273,82.40001267,49.5999943,1,0,0,response1disk,,6,0.800011456,7.19999367,1,0,0,rectangle,0.800011456,7.19999367,1,0,0,0.800011456,7.19999367,1,0,0,0,71,71,56,1,,,,,,,,
,,,,,,,,,,,,,FF,,,,,,,,1.4502,,,,,,,,,,,,,,,,,,,,,,60ff1a126119afa26965e909,610378d7b8889db7fc75e75f,2021-07-29_23h59.22.774,Simcolourproject_2stim_asymm_v5,2020.2.10,Win32,60,61025ae37ef11b136ea224fe,,,,,,,,,2367,-39.99998915,-60.00000733,1,0,0,response5disk,,3,-14.39993994,-9.60000658,1,0,0,rectangle,-14.39993994,-9.60000658,1,0,0,-14.39993994,-9.60000658,1,0,0,0,72,72,28,1,,,,,,,,
,,,,,,,,,,,,,FF,,,,,,,,1.7541,,,,,,,,,,,,,,,,,,,,,,60ff1a126119afa26965e909,610378d7b8889db7fc75e75f,2021-07-29_23h59.22.774,Simcolourproject_2stim_asymm_v5,2020.2.10,Win32,60,61025ae37ef11b136ea224fe,,,,,,,,,3748,-81.59998977,-46.40000713,1,0,0,response5disk,,2,1.600060296,-7.200006545,1,0,0,rectangle,1.600060296,-7.200006545,1,0,0,1.600060296,-7.200006545,1,0,0,0,73,73,130,1,,,,,,,,
,,,,,,,,,,,,,FF,,,,,,,,3.4167,,,,,,,,,,,,,,,,,,,,,,60ff1a126119afa26965e909,610378d7b8889db7fc75e75f,2021-07-29_23h59.22.774,Simcolourproject_2stim_asymm_v5,2020.2.10,Win32,60,61025ae37ef11b136ea224fe,,,,,,,,,365,70.40001249,-30.40000689,1,0,0,response3disk,,5,15.20001167,3.19999361,1,0,0,rectangle,15.20001167,3.19999361,1,0,0,15.20001167,3.19999361,1,0,0,0,74,74,103,1,,,,,,,,
,,,,,,,,,,,,,FF,,,,,,,,1.5168,,,,,,,,,,,,,,,,,,,,,,60ff1a126119afa26965e909,610378d7b8889db7fc75e75f,2021-07-29_23h59.22.774,Simcolourproject_2stim_asymm_v5,2020.2.10,Win32,60,61025ae37ef11b136ea224fe,,,,,,,,,3217,112.8000131,41.59999418,1,0,0,response1disk,,6,1.14441E-05,11.19999373,1,0,0,rectangle,1.14441E-05,11.19999373,1,0,0,1.14441E-05,11.19999373,1,0,0,0,75,75,2,1,,,,,,,,
,,,,,,,,,,,,,FF,,,,,,,,3.0161,,,,,,,,,,,,,,,,,,,,,,60ff1a126119afa26965e909,610378d7b8889db7fc75e75f,2021-07-29_23h59.22.774,Simcolourproject_2stim_asymm_v5,2020.2.10,Win32,60,61025ae37ef11b136ea224fe,,,,,,,,,2424,-25.59998894,-84.00000769,1,0,0,response5disk,,3,-4.799988627,-8.800006568,1,0,0,rectangle,-4.799988627,-8.800006568,1,0,0,-4.799988627,-8.800006568,1,0,0,0,76,76,149,1,,,,,,,,
,,,,,,,,,,,,,FF,,,,,,,,1.9167,,,,,,,,,,,,,,,,,,,,,,60ff1a126119afa26965e909,610378d7b8889db7fc75e75f,2021-07-29_23h59.22.774,Simcolourproject_2stim_asymm_v5,2020.2.10,Win32,60,61025ae37ef11b136ea224fe,,,,,,,,,834,-29.599989,-87.20000774,1,0,0,response5disk,,3,11.20001161,8.799993694,1,0,0,rectangle,11.20001161,8.799993694,1,0,0,11.20001161,8.799993694,1,0,0,0,77,77,116,1,,,,,,,,
,,,,,,,,,,,,,FF,,,,,,,,1.6833,,,,,,,,,,,,,,,,,,,,,,60ff1a126119afa26965e909,610378d7b8889db7fc75e75f,2021-07-29_23h59.22.774,Simcolourproject_2stim_asymm_v5,2020.2.10,Win32,60,61025ae37ef11b136ea224fe,,,,,,,,,454,-46.39994042,-72.80000752,1,0,0,response5disk,,3,8.000011563,12.79999375,1,0,0,rectangle,-79.19998974,26.39999396,1,0,0,-32.79998904,7.19999367,1,0,0,0,78,78,47,1,,response7disk_3,TRUE,1,1,"[267,259,156,83,29,108,222,115,322,45,89,318,9,135,79,232,97,246,61,60]",1.5331,rectangle
,,,,,,,,,,,,,FF,,,,,,,,4.7659,,,,,,,,,,,,,,,,,,,,,,60ff1a126119afa26965e909,610378d7b8889db7fc75e75f,2021-07-29_23h59.22.774,Simcolourproject_2stim_asymm_v5,2020.2.10,Win32,60,61025ae37ef11b136ea224fe,,,,,,,,,3182,72.80001253,47.19996985,1,0,0,response1disk,,6,-13.59998876,0.799993575,1,0,0,rectangle,-13.59998876,0.799993575,1,0,0,-13.59998876,0.799993575,1,0,0,0,79,79,131,1,,,,,,,,
,,,,,,,,,,,,,FF,,,,,,,,1.2999,,,,,,,,,,,,,,,,,,,,,,60ff1a126119afa26965e909,610378d7b8889db7fc75e75f,2021-07-29_23h59.22.774,Simcolourproject_2stim_asymm_v5,2020.2.10,Win32,60,61025ae37ef11b136ea224fe,,,,,,,,,1544,84.0000127,-49.60000718,1,0,0,response3disk,,5,-9.599988699,3.999993622,1,0,0,rectangle,-9.599988699,3.999993622,1,0,0,-9.599988699,3.999993622,1,0,0,0,80,80,45,1,,,,,,,,
,,,,,,,,,,,,,FF,,,,,,,,1.3665,,,,,,,,,,,,,,,,,,,,,,60ff1a126119afa26965e909,610378d7b8889db7fc75e75f,2021-07-29_23h59.22.774,Simcolourproject_2stim_asymm_v5,2020.2.10,Win32,60,61025ae37ef11b136ea224fe,,,,,,,,,4259,96.00001287,-57.6000073,1,0,0,response3disk,,5,-5.599988639,-4.800006509,1,0,0,rectangle,-5.599988639,-4.800006509,1,0,0,-5.599988639,-4.800006509,1,0,0,0,81,81,133,1,,,,,,,,
,,,,,,,,,,,,,FF,,,,,,,,1.4672,,,,,,,,,,,,,,,,,,,,,,60ff1a126119afa26965e909,610378d7b8889db7fc75e75f,2021-07-29_23h59.22.774,Simcolourproject_2stim_asymm_v5,2020.2.10,Win32,60,61025ae37ef11b136ea224fe,,,,,,,,,1938,103.200013,56.79999441,1,0,0,response1disk,,6,16.00001168,-1.600006461,1,0,0,rectangle,-80.79998976,-38.40000701,1,0,0,-22.39994006,-7.200006545,1,0,0,0,82,82,68,1,,response5disk_3,TRUE,2,2,"[267,259,156,83,29,108,222,115,322,45,89,318,9,135,79,232,97,246,61,60]",1.416,rectangle
,,,,,,,,,,,,,FF,,,,,,,,2.5499,,,,,,,,,,,,,,,,,,,,,,60ff1a126119afa26965e909,610378d7b8889db7fc75e75f,2021-07-29_23h59.22.774,Simcolourproject_2stim_asymm_v5,2020.2.10,Win32,60,61025ae37ef11b136ea224fe,,,,,,,,,1849,62.40001237,-108.8000081,1,0,0,response3disk,,4,1.600060296,-11.2000066,1,0,0,rectangle,1.600060296,-11.2000066,1,0,0,1.600060296,-11.2000066,1,0,0,0,83,83,139,1,,,,,,,,
,,,,,,,,,,,,,FF,,,,,,,,1.1672,,,,,,,,,,,,,,,,,,,,,,60ff1a126119afa26965e909,610378d7b8889db7fc75e75f,2021-07-29_23h59.22.774,Simcolourproject_2stim_asymm_v5,2020.2.10,Win32,60,61025ae37ef11b136ea224fe,,,,,,,,,1273,-105.5999901,-44.8000071,1,0,0,response5disk,,2,-22.39994006,-12.00000662,1,0,0,rectangle,-22.39994006,-12.00000662,1,0,0,-22.39994006,-12.00000662,1,0,0,0,84,84,39,1,,,,,,,,
,,,,,,,,,,,,,FF,,,,,,,,0.9168,,,,,,,,,,,,,,,,,,,,,,60ff1a126119afa26965e909,610378d7b8889db7fc75e75f,2021-07-29_23h59.22.774,Simcolourproject_2stim_asymm_v5,2020.2.10,Win32,60,61025ae37ef11b136ea224fe,,,,,,,,,1132,-87.99998987,43.19996979,1,0,0,response7disk,,1,-18.39994,9.599993706,1,0,0,rectangle,-18.39994,9.599993706,1,0,0,-18.39994,9.599993706,1,0,0,0,85,85,73,1,,,,,,,,
,,,,,,,,,,,,,FF,,,,,,,,3.0162,,,,,,,,,,,,,,,,,,,,,,60ff1a126119afa26965e909,610378d7b8889db7fc75e75f,2021-07-29_23h59.22.774,Simcolourproject_2stim_asymm_v5,2020.2.10,Win32,60,61025ae37ef11b136ea224fe,,,,,,,,,3759,112.8000131,-41.60000706,1,0,0,response3disk,,5,-3.199988604,2.399993598,1,0,0,rectangle,-3.199988604,2.399993598,1,0,0,-3.199988604,2.399993598,1,0,0,0,86,86,18,1,,,,,,,,
,,,,,,,,,,,,,FF,,,,,,,,1.9662,,,,,,,,,,,,,,,,,,,,,,60ff1a126119afa26965e909,610378d7b8889db7fc75e75f,2021-07-29_23h59.22.774,Simcolourproject_2stim_asymm_v5,2020.2.10,Win32,60,61025ae37ef11b136ea224fe,,,,,,,,,4340,-39.99998915,-85.60005654,1,0,0,response5disk,,3,5.600060356,-0.800006449,1,0,0,rectangle,5.600060356,-0.800006449,1,0,0,5.600060356,-0.800006449,1,0,0,0,87,87,6,1,,,,,,,,
,,,,,,,,,,,,,FF,,,,,,,,1.1996,,,,,,,,,,,,,,,,,,,,,,60ff1a126119afa26965e909,610378d7b8889db7fc75e75f,2021-07-29_23h59.22.774,Simcolourproject_2stim_asymm_v5,2020.2.10,Win32,60,61025ae37ef11b136ea224fe,,,,,,,,,3529,112.8000131,61.59999448,1,0,0,response1disk,,6,19.20001173,-0.800006449,1,0,0,rectangle,-88.79998988,-35.20000696,1,0,0,31.20001191,7.19999367,1,0,0,0,88,88,98,1,,response5disk_3,TRUE,2,2,"[267,259,156,83,29,108,222,115,322,45,89,318,9,135,79,232,97,246,61,60]",1.2989,rectangle
,,,,,,,,,,,,,FF,,,,,,,,2.2325,,,,,,,,,,,,,,,,,,,,,,60ff1a126119afa26965e909,610378d7b8889db7fc75e75f,2021-07-29_23h59.22.774,Simcolourproject_2stim_asymm_v5,2020.2.10,Win32,60,61025ae37ef11b136ea224fe,,,,,,,,,1411,100.8000129,-38.40000701,1,0,0,response3disk,,5,36.00001198,-15.20000666,1,0,0,rectangle,36.00001198,-15.20000666,1,0,0,36.00001198,-15.20000666,1,0,0,0,89,89,70,1,,,,,,,,
,,,,,,,,,,,,,FF,,,,,,,,1.3172,,,,,,,,,,,,,,,,,,,,,,60ff1a126119afa26965e909,610378d7b8889db7fc75e75f,2021-07-29_23h59.22.774,Simcolourproject_2stim_asymm_v5,2020.2.10,Win32,60,61025ae37ef11b136ea224fe,,,,,,,,,4284,43.20001209,81.59999478,1,0,0,response1disk,,7,4.800011516,2.399993598,1,0,0,rectangle,4.800011516,2.399993598,1,0,0,4.800011516,2.399993598,1,0,0,0,90,90,60,1,,,,,,,,
,,,,,,,,,,,,,FF,,,,,,,,1.5666,,,,,,,,,,,,,,,,,,,,,,60ff1a126119afa26965e909,610378d7b8889db7fc75e75f,2021-07-29_23h59.22.774,Simcolourproject_2stim_asymm_v5,2020.2.10,Win32,60,61025ae37ef11b136ea224fe,,,,,,,,,806,-62.39994066,43.99999422,1,0,0,response7disk,,1,-22.39994006,5.599993646,1,0,0,rectangle,-22.39994006,5.599993646,1,0,0,-22.39994006,5.599993646,1,0,0,0,91,91,136,1,,,,,,,,
,,,,,,,,,,,,,FF,,,,,,,,1.0335,,,,,,,,,,,,,,,,,,,,,,60ff1a126119afa26965e909,610378d7b8889db7fc75e75f,2021-07-29_23h59.22.774,Simcolourproject_2stim_asymm_v5,2020.2.10,Win32,60,61025ae37ef11b136ea224fe,,,,,,,,,1029,-67.99998957,39.19996973,1,0,0,response7disk,,1,-19.99998885,3.999993622,1,0,0,rectangle,-19.99998885,3.999993622,1,0,0,-19.99998885,3.999993622,1,0,0,0,92,92,57,1,,,,,,,,
,,,,,,,,,,,,,FF,,,,,,,,2.5999,,,,,,,,,,,,,,,,,,,,,,60ff1a126119afa26965e909,610378d7b8889db7fc75e75f,2021-07-29_23h59.22.774,Simcolourproject_2stim_asymm_v5,2020.2.10,Win32,60,61025ae37ef11b136ea224fe,,,,,,,,,1532,120.0000132,55.9999944,1,0,0,response1disk,,6,16.80001169,2.399993598,1,0,0,rectangle,16.80001169,2.399993598,1,0,0,16.80001169,2.399993598,1,0,0,0,93,93,53,1,,,,,,,,
,,,,,,,,,,,,,FF,,,,,,,,3.5,,,,,,,,,,,,,,,,,,,,,,60ff1a126119afa26965e909,610378d7b8889db7fc75e75f,2021-07-29_23h59.22.774,Simcolourproject_2stim_asymm_v5,2020.2.10,Win32,60,61025ae37ef11b136ea224fe,,,,,,,,,207,94.40001285,-41.60000706,1,0,0,response3disk,,5,0.800011456,-9.60000658,1,0,0,rectangle,0.800011456,-9.60000658,1,0,0,0.800011456,-9.60000658,1,0,0,0,94,94,64,1,,,,,,,,
,,,,,,,,,,,,,FF,,,,,,,,2.4828,,,,,,,,,,,,,,,,,,,,,,60ff1a126119afa26965e909,610378d7b8889db7fc75e75f,2021-07-29_23h59.22.774,Simcolourproject_2stim_asymm_v5,2020.2.10,Win32,60,61025ae37ef11b136ea224fe,,,,,,,,,1042,43.20001209,-70.40000749,1,0,0,response3disk,,4,-18.39994,-7.200006545,1,0,0,rectangle,-18.39994,-7.200006545,1,0,0,-18.39994,-7.200006545,1,0,0,0,95,95,82,1,,,,,,,,
,,,,,,,,,,,,,FF,,,,,,,,1.2831,,,,,,,,,,,,,,,,,,,,,,60ff1a126119afa26965e909,610378d7b8889db7fc75e75f,2021-07-29_23h59.22.774,Simcolourproject_2stim_asymm_v5,2020.2.10,Win32,60,61025ae37ef11b136ea224fe,,,,,,,,,1220,-77.59998971,-51.2000072,1,0,0,response5disk,,2,-2.399939764,-3.200006485,1,0,0,rectangle,-35.99998909,51.99999434,1,0,0,-11.19998872,-5.600006521,1,0,0,0,96,96,55,1,,response7disk_3,TRUE,0,0,"[267,259,156,83,29,108,222,115,322,45,89,318,9,135,79,232,97,246,61,60]",1.4155,rectangle
,,,,,,,,,,,,,FF,,,,,,,,0.8661,,,,,,,,,,,,,,,,,,,,,,60ff1a126119afa26965e909,610378d7b8889db7fc75e75f,2021-07-29_23h59.22.774,Simcolourproject_2stim_asymm_v5,2020.2.10,Win32,60,61025ae37ef11b136ea224fe,,,,,,,,,4190,-73.59998965,29.599994,1,0,0,response7disk,,1,-11.19998872,1.599993587,1,0,0,rectangle,-11.19998872,1.599993587,1,0,0,-11.19998872,1.599993587,1,0,0,0,97,97,153,1,,,,,,,,
,,,,,,,,,,,,,FF,,,,,,,,1.1837,,,,,,,,,,,,,,,,,,,,,,60ff1a126119afa26965e909,610378d7b8889db7fc75e75f,2021-07-29_23h59.22.774,Simcolourproject_2stim_asymm_v5,2020.2.10,Win32,60,61025ae37ef11b136ea224fe,,,,,,,,,1492,43.20001209,75.19997027,1,0,0,response1disk,,7,1.14441E-05,4.799993634,1,0,0,rectangle,1.14441E-05,4.799993634,1,0,0,1.14441E-05,4.799993634,1,0,0,0,98,98,37,1,,,,,,,,
,,,,,,,,,,,,,FF,,,,,,,,1.4168,,,,,,,,,,,,,,,,,,,,,,60ff1a126119afa26965e909,610378d7b8889db7fc75e75f,2021-07-29_23h59.22.774,Simcolourproject_2stim_asymm_v5,2020.2.10,Win32,60,61025ae37ef11b136ea224fe,,,,,,,,,2075,72.80001253,19.19999385,1,0,0,response1disk,,6,10.4000116,-11.2000066,1,0,0,rectangle,10.4000116,-11.2000066,1,0,0,10.4000116,-11.2000066,1,0,0,0,99,99,87,1,,,,,,,,
,,,,,,,,,,,,,FF,,,,,,,,0.7008,,,,,,,,,,,,,,,,,,,,,,60ff1a126119afa26965e909,610378d7b8889db7fc75e75f,2021-07-29_23h59.22.774,Simcolourproject_2stim_asymm_v5,2020.2.10,Win32,60,61025ae37ef11b136ea224fe,,,,,,,,,3017,76.80001259,34.39999408,1,0,0,response1disk,,6,-2.399939764,8.799993694,1,0,0,rectangle,-2.399939764,8.799993694,1,0,0,-2.399939764,8.799993694,1,0,0,0,100,100,137,1,,,,,,,,
,,,,,,,,,,,,,FF,,,,,,,,0.7161,,,,,,,,,,,,,,,,,,,,,,60ff1a126119afa26965e909,610378d7b8889db7fc75e75f,2021-07-29_23h59.22.774,Simcolourproject_2stim_asymm_v5,2020.2.10,Win32,60,61025ae37ef11b136ea224fe,,,,,,,,,3646,66.40001243,20.79999387,1,0,0,response1disk,,6,15.20001167,-0.800006449,1,0,0,rectangle,15.20001167,-0.800006449,1,0,0,15.20001167,-0.800006449,1,0,0,0,101,101,141,1,,,,,,,,
,,,,,,,,,,,,,FF,,,,,,,,1.567,,,,,,,,,,,,,,,,,,,,,,60ff1a126119afa26965e909,610378d7b8889db7fc75e75f,2021-07-29_23h59.22.774,Simcolourproject_2stim_asymm_v5,2020.2.10,Win32,60,61025ae37ef11b136ea224fe,,,,,,,,,2794,50.4000122,-74.40000755,1,0,0,response3disk,,4,8.000011563,-6.4373E-06,1,0,0,rectangle,8.000011563,-6.4373E-06,1,0,0,8.000011563,-6.4373E-06,1,0,0,0,102,102,83,1,,,,,,,,
,,,,,,,,,,,,,FF,,,,,,,,1.3504,,,,,,,,,,,,,,,,,,,,,,60ff1a126119afa26965e909,610378d7b8889db7fc75e75f,2021-07-29_23h59.22.774,Simcolourproject_2stim_asymm_v5,2020.2.10,Win32,60,61025ae37ef11b136ea224fe,,,,,,,,,1572,94.40001285,-70.40000749,1,0,0,response3disk,,5,8.000011563,2.399993598,1,0,0,rectangle,8.000011563,2.399993598,1,0,0,8.000011563,2.399993598,1,0,0,0,103,103,86,1,,,,,,,,
,,,,,,,,,,,,,FF,,,,,,,,0.8329,,,,,,,,,,,,,,,,,,,,,,60ff1a126119afa26965e909,610378d7b8889db7fc75e75f,2021-07-29_23h59.22.774,Simcolourproject_2stim_asymm_v5,2020.2.10,Win32,60,61025ae37ef11b136ea224fe,,,,,,,,,4204,-62.39994066,27.19996955,1,0,0,response7disk,,1,-18.39994,4.799993634,1,0,0,rectangle,-18.39994,4.799993634,1,0,0,-18.39994,4.799993634,1,0,0,0,104,104,67,1,,,,,,,,
,,,,,,,,,,,,,FF,,,,,,,,0.7659,,,,,,,,,,,,,,,,,,,,,,60ff1a126119afa26965e909,610378d7b8889db7fc75e75f,2021-07-29_23h59.22.774,Simcolourproject_2stim_asymm_v5,2020.2.10,Win32,60,61025ae37ef11b136ea224fe,,,,,,,,,3811,-25.59998894,69.5999946,1,0,0,response7disk,,0,-7.999988675,-8.800006568,1,0,0,rectangle,-7.999988675,-8.800006568,1,0,0,-7.999988675,-8.800006568,1,0,0,0,105,105,22,1,,,,,,,,
,,,,,,,,,,,,,FF,,,,,,,,3.5166,,,,,,,,,,,,,,,,,,,,,,60ff1a126119afa26965e909,610378d7b8889db7fc75e75f,2021-07-29_23h59.22.774,Simcolourproject_2stim_asymm_v5,2020.2.10,Win32,60,61025ae37ef11b136ea224fe,,,,,,,,,336,93.60001284,-43.20000708,1,0,0,response3disk,,5,-29.599989,2.399993598,1,0,0,rectangle,-29.599989,2.399993598,1,0,0,-29.599989,2.399993598,1,0,0,0,106,106,63,1,,,,,,,,
,,,,,,,,,,,,,FF,,,,,,,,1.2174,,,,,,,,,,,,,,,,,,,,,,60ff1a126119afa26965e909,610378d7b8889db7fc75e75f,2021-07-29_23h59.22.774,Simcolourproject_2stim_asymm_v5,2020.2.10,Win32,60,61025ae37ef11b136ea224fe,,,,,,,,,2701,48.00001216,100.7999951,1,0,0,response1disk,,7,-8.799988687,-8.000006557,1,0,0,rectangle,-79.99998975,31.99999404,1,0,0,-26.39994012,7.999993682,1,0,0,0,107,107,43,1,,response7disk_3,TRUE,1,1,"[267,259,156,83,29,108,222,115,322,45,89,318,9,135,79,232,97,246,61,60]",1.2825,rectangle
,,,,,,,,,,,,,FF,,,,,,,,2.7338,,,,,,,,,,,,,,,,,,,,,,60ff1a126119afa26965e909,610378d7b8889db7fc75e75f,2021-07-29_23h59.22.774,Simcolourproject_2stim_asymm_v5,2020.2.10,Win32,60,61025ae37ef11b136ea224fe,,,,,,,,,921,91.2000128,-36.80000699,1,0,0,response3disk,,5,-3.199988604,-4.000006497,1,0,0,rectangle,-3.199988604,-4.000006497,1,0,0,-3.199988604,-4.000006497,1,0,0,0,108,108,115,1,,,,,,,,
,,,,,,,,,,,,,FF,,,,,,,,1.0996,,,,,,,,,,,,,,,,,,,,,,60ff1a126119afa26965e909,610378d7b8889db7fc75e75f,2021-07-29_23h59.22.774,Simcolourproject_2stim_asymm_v5,2020.2.10,Win32,60,61025ae37ef11b136ea224fe,,,,,,,,,575,99.20001292,48.79999429,1,0,0,response1disk,,6,30.4000119,9.599993706,1,0,0,rectangle,30.4000119,9.599993706,1,0,0,30.4000119,9.599993706,1,0,0,0,109,109,32,1,,,,,,,,
,,,,,,,,,,,,,FF,,,,,,,,1.3835,,,,,,,,,,,,,,,,,,,,,,60ff1a126119afa26965e909,610378d7b8889db7fc75e75f,2021-07-29_23h59.22.774,Simcolourproject_2stim_asymm_v5,2020.2.10,Win32,60,61025ae37ef11b136ea224fe,,,,,,,,,1267,-23.99998891,-72.80000752,1,0,0,response5disk,,3,-4.799988627,-8.800006568,1,0,0,rectangle,-4.799988627,-8.800006568,1,0,0,-4.799988627,-8.800006568,1,0,0,0,110,110,76,1,,,,,,,,
,,,,,,,,,,,,,FF,,,,,,,,1.5326,,,,,,,,,,,,,,,,,,,,,,60ff1a126119afa26965e909,610378d7b8889db7fc75e75f,2021-07-29_23h59.22.774,Simcolourproject_2stim_asymm_v5,2020.2.10,Win32,60,61025ae37ef11b136ea224fe,,,,,,,,,2999,-63.1999895,-36.00000697,1,0,0,response5disk,,2,4.000011504,-16.80000669,1,0,0,rectangle,4.000011504,-16.80000669,1,0,0,4.000011504,-16.80000669,1,0,0,0,111,111,12,1,,,,,,,,
,,,,,,,,,,,,,FF,,,,,,,,1.3497,,,,,,,,,,,,,,,,,,,,,,60ff1a126119afa26965e909,610378d7b8889db7fc75e75f,2021-07-29_23h59.22.774,Simcolourproject_2stim_asymm_v5,2020.2.10,Win32,60,61025ae37ef11b136ea224fe,,,,,,,,,768,105.600013,59.19997003,1,0,0,response1disk,,6,-17.59998882,5.599993646,1,0,0,rectangle,-17.59998882,5.599993646,1,0,0,-17.59998882,5.599993646,1,0,0,0,112,112,13,1,,,,,,,,
,,,,,,,,,,,,,FF,,,,,,,,3.7328,,,,,,,,,,,,,,,,,,,,,,60ff1a126119afa26965e909,610378d7b8889db7fc75e75f,2021-07-29_23h59.22.774,Simcolourproject_2stim_asymm_v5,2020.2.10,Win32,60,61025ae37ef11b136ea224fe,,,,,,,,,1254,45.60006095,-70.40000749,1,0,0,response3disk,,4,8.000011563,-4.800006509,1,0,0,rectangle,8.000011563,-4.800006509,1,0,0,8.000011563,-4.800006509,1,0,0,0,113,113,150,1,,,,,,,,
,,,,,,,,,,,,,FF,,,,,,,,0.9336,,,,,,,,,,,,,,,,,,,,,,60ff1a126119afa26965e909,610378d7b8889db7fc75e75f,2021-07-29_23h59.22.774,Simcolourproject_2stim_asymm_v5,2020.2.10,Win32,60,61025ae37ef11b136ea224fe,,,,,,,,,2197,45.60006095,89.5999949,1,0,0,response1disk,,7,15.20001167,8.799993694,1,0,0,rectangle,96.80001289,39.19996973,1,0,0,25.60006065,0.799993575,1,0,0,0,114,114,91,1,,response1disk_3,TRUE,6,6,"[267,259,156,83,29,108,222,115,322,45,89,318,9,135,79,232,97,246,61,60]",1.6167,rectangle
,,,,,,,,,,,,,FF,,,,,,,,1.3168,,,,,,,,,,,,,,,,,,,,,,60ff1a126119afa26965e909,610378d7b8889db7fc75e75f,2021-07-29_23h59.22.774,Simcolourproject_2stim_asymm_v5,2020.2.10,Win32,60,61025ae37ef11b136ea224fe,,,,,,,,,1858,50.4000122,-90.40000778,1,0,0,response3disk,,4,-11.19998872,-6.400006533,1,0,0,rectangle,-11.19998872,-6.400006533,1,0,0,-11.19998872,-6.400006533,1,0,0,0,115,115,50,1,,,,,,,,
,,,,,,,,,,,,,FF,,,,,,,,2.1996,,,,,,,,,,,,,,,,,,,,,,60ff1a126119afa26965e909,610378d7b8889db7fc75e75f,2021-07-29_23h59.22.774,Simcolourproject_2stim_asymm_v5,2020.2.10,Win32,60,61025ae37ef11b136ea224fe,,,,,,,,,852,48.00001216,-105.6000568,1,0,0,response3disk,,4,-8.799988687,9.599993706,1,0,0,rectangle,-8.799988687,9.599993706,1,0,0,-8.799988687,9.599993706,1,0,0,0,116,116,42,1,,,,,,,,
,,,,,,,,,,,,,FF,,,,,,,,2.4839,,,,,,,,,,,,,,,,,,,,,,60ff1a126119afa26965e909,610378d7b8889db7fc75e75f,2021-07-29_23h59.22.774,Simcolourproject_2stim_asymm_v5,2020.2.10,Win32,60,61025ae37ef11b136ea224fe,,,,,,,,,1431,-55.19998938,-86.40000772,1,0,0,response5disk,,3,-6.399939823,-5.600006521,1,0,0,rectangle,-6.399939823,-5.600006521,1,0,0,-6.399939823,-5.600006521,1,0,0,0,117,117,96,1,,,,,,,,
,,,,,,,,,,,,,FF,,,,,,,,0.9834,,,,,,,,,,,,,,,,,,,,,,60ff1a126119afa26965e909,610378d7b8889db7fc75e75f,2021-07-29_23h59.22.774,Simcolourproject_2stim_asymm_v5,2020.2.10,Win32,60,61025ae37ef11b136ea224fe,,,,,,,,,330,105.600013,40.79999417,1,0,0,response1disk,,6,-29.599989,7.999993682,1,0,0,rectangle,-29.599989,7.999993682,1,0,0,-29.599989,7.999993682,1,0,0,0,118,118,157,1,,,,,,,,
,,,,,,,,,,,,,FF,,,,,,,,1.0994,,,,,,,,,,,,,,,,,,,,,,60ff1a126119afa26965e909,610378d7b8889db7fc75e75f,2021-07-29_23h59.22.774,Simcolourproject_2stim_asymm_v5,2020.2.10,Win32,60,61025ae37ef11b136ea224fe,,,,,,,,,1212,-75.99998969,35.19996967,1,0,0,response7disk,,1,-8.799988687,4.799993634,1,0,0,rectangle,-8.799988687,4.799993634,1,0,0,-8.799988687,4.799993634,1,0,0,0,119,119,112,1,,,,,,,,
,,,,,,,,,,,,,FF,,,,,,,,0.9496,,,,,,,,,,,,,,,,,,,,,,60ff1a126119afa26965e909,610378d7b8889db7fc75e75f,2021-07-29_23h59.22.774,Simcolourproject_2stim_asymm_v5,2020.2.10,Win32,60,61025ae37ef11b136ea224fe,,,,,,,,,2372,-59.99998945,31.19996961,1,0,0,response7disk,,1,-19.19998884,1.599993587,1,0,0,rectangle,-19.19998884,1.599993587,1,0,0,-19.19998884,1.599993587,1,0,0,0,120,120,152,1,,,,,,,,
,,,,,,,,,,,,,FF,,,,,,,,2.0005,,,,,,,,,,,,,,,,,,,,,,60ff1a126119afa26965e909,610378d7b8889db7fc75e75f,2021-07-29_23h59.22.774,Simcolourproject_2stim_asymm_v5,2020.2.10,Win32,60,61025ae37ef11b136ea224fe,,,,,,,,,1996,91.2000128,64.79999453,1,0,0,response1disk,,6,-27.19998896,3.999993622,1,0,0,rectangle,-27.19998896,3.999993622,1,0,0,-27.19998896,3.999993622,1,0,0,0,121,121,41,1,,,,,,,,
,,,,,,,,,,,,,FF,,,,,,,,2.3295,,,,,,,,,,,,,,,,,,,,,,60ff1a126119afa26965e909,610378d7b8889db7fc75e75f,2021-07-29_23h59.22.774,Simcolourproject_2stim_asymm_v5,2020.2.10,Win32,60,61025ae37ef11b136ea224fe,,,,,,,,,3078,102.400013,39.99999416,1,0,0,response1disk,,6,18.40001172,0.799993575,1,0,0,rectangle,18.40001172,0.799993575,1,0,0,18.40001172,0.799993575,1,0,0,0,122,122,46,1,,,,,,,,
,,,,,,,,,,,,,FF,,,,,,,,0.8671,,,,,,,,,,,,,,,,,,,,,,60ff1a126119afa26965e909,610378d7b8889db7fc75e75f,2021-07-29_23h59.22.774,Simcolourproject_2stim_asymm_v5,2020.2.10,Win32,60,61025ae37ef11b136ea224fe,,,,,,,,,3998,-27.19998896,75.19997027,1,0,0,response7disk,,0,-0.799988568,16.79999381,1,0,0,rectangle,-0.799988568,16.79999381,1,0,0,-0.799988568,16.79999381,1,0,0,0,123,123,106,1,,,,,,,,
,,,,,,,,,,,,,FF,,,,,,,,3.7167,,,,,,,,,,,,,,,,,,,,,,60ff1a126119afa26965e909,610378d7b8889db7fc75e75f,2021-07-29_23h59.22.774,Simcolourproject_2stim_asymm_v5,2020.2.10,Win32,60,61025ae37ef11b136ea224fe,,,,,,,,,2741,121.6000133,-19.20000672,1,0,0,response3disk,,5,28.00001186,-11.2000066,1,0,0,rectangle,28.00001186,-11.2000066,1,0,0,28.00001186,-11.2000066,1,0,0,0,124,124,3,1,,,,,,,,
,,,,,,,,,,,,,FF,,,,,,,,0.9836,,,,,,,,,,,,,,,,,,,,,,60ff1a126119afa26965e909,610378d7b8889db7fc75e75f,2021-07-29_23h59.22.774,Simcolourproject_2stim_asymm_v5,2020.2.10,Win32,60,61025ae37ef11b136ea224fe,,,,,,,,,1338,91.2000128,-42.40000707,1,0,0,response3disk,,5,-0.799988568,11.19999373,1,0,0,rectangle,-0.799988568,11.19999373,1,0,0,-0.799988568,11.19999373,1,0,0,0,125,125,33,1,,,,,,,,
,,,,,,,,,,,,,FF,,,,,,,,1.6993,,,,,,,,,,,,,,,,,,,,,,60ff1a126119afa26965e909,610378d7b8889db7fc75e75f,2021-07-29_23h59.22.774,Simcolourproject_2stim_asymm_v5,2020.2.10,Win32,60,61025ae37ef11b136ea224fe,,,,,,,,,311,76.00001258,33.59999406,1,0,0,response1disk,,6,10.4000116,-11.2000066,1,0,0,rectangle,10.4000116,-11.2000066,1,0,0,10.4000116,-11.2000066,1,0,0,0,126,126,140,1,,,,,,,,
,,,,,,,,,,,,,FF,,,,,,,,0.9303,,,,,,,,,,,,,,,,,,,,,,60ff1a126119afa26965e909,610378d7b8889db7fc75e75f,2021-07-29_23h59.22.774,Simcolourproject_2stim_asymm_v5,2020.2.10,Win32,60,61025ae37ef11b136ea224fe,,,,,,,,,2005,48.00001216,107.9999952,1,0,0,response1disk,,7,8.800011575,11.19999373,1,0,0,rectangle,8.800011575,11.19999373,1,0,0,8.800011575,11.19999373,1,0,0,0,127,127,75,1,,,,,,,,
,,,,,,,,,,,,,FF,,,,,,,,1.3169,,,,,,,,,,,,,,,,,,,,,,60ff1a126119afa26965e909,610378d7b8889db7fc75e75f,2021-07-29_23h59.22.774,Simcolourproject_2stim_asymm_v5,2020.2.10,Win32,60,61025ae37ef11b136ea224fe,,,,,,,,,3052,-90.39994107,25.59999394,1,0,0,response7disk,,1,-31.99998903,8.799993694,1,0,0,rectangle,-31.99998903,8.799993694,1,0,0,-31.99998903,8.799993694,1,0,0,0,128,128,77,1,,,,,,,,
,,,,,,,,,,,,,FF,,,,,,,,1.9,,,,,,,,,,,,,,,,,,,,,,60ff1a126119afa26965e909,610378d7b8889db7fc75e75f,2021-07-29_23h59.22.774,Simcolourproject_2stim_asymm_v5,2020.2.10,Win32,60,61025ae37ef11b136ea224fe,,,,,,,,,3035,79.20001262,-36.80000699,1,0,0,response3disk,,5,-18.39994,3.19999361,1,0,0,rectangle,-18.39994,3.19999361,1,0,0,-18.39994,3.19999361,1,0,0,0,129,129,99,1,,,,,,,,
,,,,,,,,,,,,,FF,,,,,,,,1.3465,,,,,,,,,,,,,,,,,,,,,,60ff1a126119afa26965e909,610378d7b8889db7fc75e75f,2021-07-29_23h59.22.774,Simcolourproject_2stim_asymm_v5,2020.2.10,Win32,60,61025ae37ef11b136ea224fe,,,,,,,,,3953,-43.99998921,-96.00000787,1,0,0,response5disk,,3,18.40001172,2.399993598,1,0,0,rectangle,18.40001172,2.399993598,1,0,0,18.40001172,2.399993598,1,0,0,0,130,130,138,1,,,,,,,,
,,,,,,,,,,,,,FF,,,,,,,,3.0174,,,,,,,,,,,,,,,,,,,,,,60ff1a126119afa26965e909,610378d7b8889db7fc75e75f,2021-07-29_23h59.22.774,Simcolourproject_2stim_asymm_v5,2020.2.10,Win32,60,61025ae37ef11b136ea224fe,,,,,,,,,1484,88.80001277,30.39999402,1,0,0,response1disk,,6,11.20001161,1.599993587,1,0,0,rectangle,11.20001161,1.599993587,1,0,0,11.20001161,1.599993587,1,0,0,0,131,131,14,1,,,,,,,,
,,,,,,,,,,,,,FF,,,,,,,,1.2824,,,,,,,,,,,,,,,,,,,,,,60ff1a126119afa26965e909,610378d7b8889db7fc75e75f,2021-07-29_23h59.22.774,Simcolourproject_2stim_asymm_v5,2020.2.10,Win32,60,61025ae37ef11b136ea224fe,,,,,,,,,2255,56.00001228,-86.40000772,1,0,0,response3disk,,4,4.000011504,-2.400006473,1,0,0,rectangle,4.000011504,-2.400006473,1,0,0,4.000011504,-2.400006473,1,0,0,0,132,132,113,1,,,,,,,,
,,,,,,,,,,,,,FF,,,,,,,,1.7335,,,,,,,,,,,,,,,,,,,,,,60ff1a126119afa26965e909,610378d7b8889db7fc75e75f,2021-07-29_23h59.22.774,Simcolourproject_2stim_asymm_v5,2020.2.10,Win32,60,61025ae37ef11b136ea224fe,,,,,,,,,2678,44.80001211,-109.6000569,1,0,0,response3disk,,4,1.14441E-05,-0.800006449,1,0,0,rectangle,1.14441E-05,-0.800006449,1,0,0,1.14441E-05,-0.800006449,1,0,0,0,133,133,35,1,,,,,,,,
,,,,,,,,,,,,,FF,,,,,,,,1.05,,,,,,,,,,,,,,,,,,,,,,60ff1a126119afa26965e909,610378d7b8889db7fc75e75f,2021-07-29_23h59.22.774,Simcolourproject_2stim_asymm_v5,2020.2.10,Win32,60,61025ae37ef11b136ea224fe,,,,,,,,,1890,-77.59998971,-43.20000708,1,0,0,response5disk,,2,12.80001163,-0.800006449,1,0,0,rectangle,-72.79998964,-29.60000688,1,0,0,-25.59998894,-2.400006473,1,0,0,0,134,134,125,1,,response5disk_3,TRUE,2,2,"[267,259,156,83,29,108,222,115,322,45,89,318,9,135,79,232,97,246,61,60]",1.4004,rectangle
,,,,,,,,,,,,,FF,,,,,,,,1.3338,,,,,,,,,,,,,,,,,,,,,,60ff1a126119afa26965e909,610378d7b8889db7fc75e75f,2021-07-29_23h59.22.774,Simcolourproject_2stim_asymm_v5,2020.2.10,Win32,60,61025ae37ef11b136ea224fe,,,,,,,,,25,77.6000126,-53.60000724,1,0,0,response3disk,,5,14.40001166,-9.60000658,1,0,0,rectangle,14.40001166,-9.60000658,1,0,0,14.40001166,-9.60000658,1,0,0,0,135,135,54,1,,,,,,,,
,,,,,,,,,,,,,FF,,,,,,,,1.4163,,,,,,,,,,,,,,,,,,,,,,60ff1a126119afa26965e909,610378d7b8889db7fc75e75f,2021-07-29_23h59.22.774,Simcolourproject_2stim_asymm_v5,2020.2.10,Win32,60,61025ae37ef11b136ea224fe,,,,,,,,,880,29.60006071,82.39999479,1,0,0,response1disk,,7,-17.59998882,-1.600006461,1,0,0,rectangle,-17.59998882,-1.600006461,1,0,0,-17.59998882,-1.600006461,1,0,0,0,136,136,154,1,,,,,,,,
,,,,,,,,,,,,,FF,,,,,,,,7.4871,,,,,,,,,,,,,,,,,,,,,,60ff1a126119afa26965e909,610378d7b8889db7fc75e75f,2021-07-29_23h59.22.774,Simcolourproject_2stim_asymm_v5,2020.2.10,Win32,60,61025ae37ef11b136ea224fe,,,,,,,,,3864,99.20001292,-61.60000736,1,0,0,response3disk,,5,1.600060296,2.399993598,1,0,0,rectangle,1.600060296,2.399993598,1,0,0,1.600060296,2.399993598,1,0,0,0,137,137,8,1,,,,,,,,
,,,,,,,,,,,,,FF,,,,,,,,5.4831,,,,,,,,,,,,,,,,,,,,,,60ff1a126119afa26965e909,610378d7b8889db7fc75e75f,2021-07-29_23h59.22.774,Simcolourproject_2stim_asymm_v5,2020.2.10,Win32,60,61025ae37ef11b136ea224fe,,,,,,,,,711,36.00001198,87.99999487,1,0,0,response1disk,,7,-0.799988568,-13.60000664,1,0,0,rectangle,-0.799988568,-13.60000664,1,0,0,-0.799988568,-13.60000664,1,0,0,0,138,138,36,1,,,,,,,,
,,,,,,,,,,,,,FF,,,,,,,,2.9124,,,,,,,,,,,,,,,,,,,,,,60ff1a126119afa26965e909,610378d7b8889db7fc75e75f,2021-07-29_23h59.22.774,Simcolourproject_2stim_asymm_v5,2020.2.10,Win32,60,61025ae37ef11b136ea224fe,,,,,,,,,2167,-66.39994072,17.59999382,1,0,0,response7disk,,1,1.600060296,-4.000006497,1,0,0,rectangle,1.600060296,-4.000006497,1,0,0,1.600060296,-4.000006497,1,0,0,0,139,139,19,1,,,,,,,,
,,,,,,,,,,,,,FF,,,,,,,,1.2163,,,,,,,,,,,,,,,,,,,,,,60ff1a126119afa26965e909,610378d7b8889db7fc75e75f,2021-07-29_23h59.22.774,Simcolourproject_2stim_asymm_v5,2020.2.10,Win32,60,61025ae37ef11b136ea224fe,,,,,,,,,1442,-27.99998897,-68.80000746,1,0,0,response5disk,,3,8.000011563,5.599993646,1,0,0,rectangle,8.000011563,5.599993646,1,0,0,8.000011563,5.599993646,1,0,0,0,140,140,123,1,,,,,,,,
,,,,,,,,,,,,,FF,,,,,,,,0.9342,,,,,,,,,,,,,,,,,,,,,,60ff1a126119afa26965e909,610378d7b8889db7fc75e75f,2021-07-29_23h59.22.774,Simcolourproject_2stim_asymm_v5,2020.2.10,Win32,60,61025ae37ef11b136ea224fe,,,,,,,,,3537,77.6000126,30.39999402,1,0,0,response1disk,,6,-12.79998875,3.999993622,1,0,0,rectangle,-12.79998875,3.999993622,1,0,0,-12.79998875,3.999993622,1,0,0,0,141,141,30,1,,,,,,,,
,,,,,,,,,,,,,FF,,,,,,,,0.9504,,,,,,,,,,,,,,,,,,,,,,60ff1a126119afa26965e909,610378d7b8889db7fc75e75f,2021-07-29_23h59.22.774,Simcolourproject_2stim_asymm_v5,2020.2.10,Win32,60,61025ae37ef11b136ea224fe,,,,,,,,,316,45.60006095,53.59999436,1,0,0,response1disk,,7,14.40001166,12.79999375,1,0,0,rectangle,14.40001166,12.79999375,1,0,0,14.40001166,12.79999375,1,0,0,0,142,142,107,1,,,,,,,,
,,,,,,,,,,,,,FF,,,,,,,,3.7503,,,,,,,,,,,,,,,,,,,,,,60ff1a126119afa26965e909,610378d7b8889db7fc75e75f,2021-07-29_23h59.22.774,Simcolourproject_2stim_asymm_v5,2020.2.10,Win32,60,61025ae37ef11b136ea224fe,,,,,,,,,2441,55.20001227,-108.8000081,1,0,0,response3disk,,4,-3.999988616,0.799993575,1,0,0,rectangle,-3.999988616,0.799993575,1,0,0,-3.999988616,0.799993575,1,0,0,0,143,143,118,1,,,,,,,,
,,,,,,,,,,,,,FF,,,,,,,,2.6998,,,,,,,,,,,,,,,,,,,,,,60ff1a126119afa26965e909,610378d7b8889db7fc75e75f,2021-07-29_23h59.22.774,Simcolourproject_2stim_asymm_v5,2020.2.10,Win32,60,61025ae37ef11b136ea224fe,,,,,,,,,400,96.00001287,-48.00000715,1,0,0,response3disk,,5,-0.799988568,-0.800006449,1,0,0,rectangle,-0.799988568,-0.800006449,1,0,0,-0.799988568,-0.800006449,1,0,0,0,144,144,0,1,,,,,,,,
,,,,,,,,,,,,,FF,,,,,,,,1.1671,,,,,,,,,,,,,,,,,,,,,,60ff1a126119afa26965e909,610378d7b8889db7fc75e75f,2021-07-29_23h59.22.774,Simcolourproject_2stim_asymm_v5,2020.2.10,Win32,60,61025ae37ef11b136ea224fe,,,,,,,,,3663,47.20001215,82.39999479,1,0,0,response1disk,,7,-13.59998876,2.399993598,1,0,0,rectangle,-13.59998876,2.399993598,1,0,0,-13.59998876,2.399993598,1,0,0,0,145,145,120,1,,,,,,,,
,,,,,,,,,,,,,FF,,,,,,,,7.6498,,,,,,,,,,,,,,,,,,,,,,60ff1a126119afa26965e909,610378d7b8889db7fc75e75f,2021-07-29_23h59.22.774,Simcolourproject_2stim_asymm_v5,2020.2.10,Win32,60,61025ae37ef11b136ea224fe,,,,,,,,,4233,94.40001285,43.99999422,1,0,0,response1disk,,6,36.00001198,10.39999372,1,0,0,rectangle,36.00001198,10.39999372,1,0,0,36.00001198,10.39999372,1,0,0,0,146,146,108,1,,,,,,,,
,,,,,,,,,,,,,FF,,,,,,,,2.0169,,,,,,,,,,,,,,,,,,,,,,60ff1a126119afa26965e909,610378d7b8889db7fc75e75f,2021-07-29_23h59.22.774,Simcolourproject_2stim_asymm_v5,2020.2.10,Win32,60,61025ae37ef11b136ea224fe,,,,,,,,,561,75.20001256,45.59999424,1,0,0,response1disk,,6,30.4000119,15.9999938,1,0,0,rectangle,30.4000119,15.9999938,1,0,0,30.4000119,15.9999938,1,0,0,0,147,147,84,1,,,,,,,,
,,,,,,,,,,,,,FF,,,,,,,,3.2332,,,,,,,,,,,,,,,,,,,,,,60ff1a126119afa26965e909,610378d7b8889db7fc75e75f,2021-07-29_23h59.22.774,Simcolourproject_2stim_asymm_v5,2020.2.10,Win32,60,61025ae37ef11b136ea224fe,,,,,,,,,517,83.20001268,-45.60000712,1,0,0,response3disk,,5,-7.999988675,-3.200006485,1,0,0,rectangle,-7.999988675,-3.200006485,1,0,0,-7.999988675,-3.200006485,1,0,0,0,148,148,29,1,,,,,,,,
,,,,,,,,,,,,,FF,,,,,,,,1.5337,,,,,,,,,,,,,,,,,,,,,,60ff1a126119afa26965e909,610378d7b8889db7fc75e75f,2021-07-29_23h59.22.774,Simcolourproject_2stim_asymm_v5,2020.2.10,Win32,60,61025ae37ef11b136ea224fe,,,,,,,,,2815,57.6000123,-119.2000082,1,0,0,response3disk,,4,-15.19998878,10.39999372,1,0,0,rectangle,-15.19998878,10.39999372,1,0,0,-15.19998878,10.39999372,1,0,0,0,149,149,80,1,,,,,,,,
,,,,,,,,,,,,,FF,,,,,,,,1.1666,,,,,,,,,,,,,,,,,,,,,,60ff1a126119afa26965e909,610378d7b8889db7fc75e75f,2021-07-29_23h59.22.774,Simcolourproject_2stim_asymm_v5,2020.2.10,Win32,60,61025ae37ef11b136ea224fe,,,,,,,,,3280,54.40001225,-86.40000772,1,0,0,response3disk,,4,-29.599989,6.399993658,1,0,0,rectangle,-29.599989,6.399993658,1,0,0,-29.599989,6.399993658,1,0,0,0,150,150,65,1,,,,,,,,
,,,,,,,,,,,,,FF,,,,,,,,3.716,,,,,,,,,,,,,,,,,,,,,,60ff1a126119afa26965e909,610378d7b8889db7fc75e75f,2021-07-29_23h59.22.774,Simcolourproject_2stim_asymm_v5,2020.2.10,Win32,60,61025ae37ef11b136ea224fe,,,,,,,,,2464,80.80001265,62.39999449,1,0,0,response1disk,,6,36.80001199,3.999993622,1,0,0,rectangle,36.80001199,3.999993622,1,0,0,36.80001199,3.999993622,1,0,0,0,151,151,51,1,,,,,,,,
,,,,,,,,,,,,,FF,,,,,,,,0.8672,,,,,,,,,,,,,,,,,,,,,,60ff1a126119afa26965e909,610378d7b8889db7fc75e75f,2021-07-29_23h59.22.774,Simcolourproject_2stim_asymm_v5,2020.2.10,Win32,60,61025ae37ef11b136ea224fe,,,,,,,,,2142,31.20001191,71.99999464,1,0,0,response1disk,,7,-19.99998885,-6.400006533,1,0,0,rectangle,-19.99998885,-6.400006533,1,0,0,-19.99998885,-6.400006533,1,0,0,0,152,152,74,1,,,,,,,,
,,,,,,,,,,,,,FF,,,,,,,,10.3485,,,,,,,,,,,,,,,,,,,,,,60ff1a126119afa26965e909,610378d7b8889db7fc75e75f,2021-07-29_23h59.22.774,Simcolourproject_2stim_asymm_v5,2020.2.10,Win32,60,61025ae37ef11b136ea224fe,,,,,,,,,1072,84.80001271,-40.80000705,1,0,0,response3disk,,5,4.800011516,7.19999367,1,0,0,rectangle,4.800011516,7.19999367,1,0,0,4.800011516,7.19999367,1,0,0,0,153,153,147,1,,,,,,,,
,,,,,,,,,,,,,FF,,,,,,,,2.3663,,,,,,,,,,,,,,,,,,,,,,60ff1a126119afa26965e909,610378d7b8889db7fc75e75f,2021-07-29_23h59.22.774,Simcolourproject_2stim_asymm_v5,2020.2.10,Win32,60,61025ae37ef11b136ea224fe,,,,,,,,,34,56.80001229,-74.40000755,1,0,0,response3disk,,4,8.000011563,-11.2000066,1,0,0,rectangle,8.000011563,-11.2000066,1,0,0,8.000011563,-11.2000066,1,0,0,0,154,154,148,1,,,,,,,,
,,,,,,,,,,,,,FF,,,,,,,,0.9668,,,,,,,,,,,,,,,,,,,,,,60ff1a126119afa26965e909,610378d7b8889db7fc75e75f,2021-07-29_23h59.22.774,Simcolourproject_2stim_asymm_v5,2020.2.10,Win32,60,61025ae37ef11b136ea224fe,,,,,,,,,4169,-77.59998971,44.79999423,1,0,0,response7disk,,1,-13.59998876,5.599993646,1,0,0,rectangle,78.40001261,-41.60000706,1,0,0,29.60006071,-6.400006533,1,0,0,0,155,155,117,1,,response3disk_3,TRUE,5,5,"[267,259,156,83,29,108,222,115,322,45,89,318,9,135,79,232,97,246,61,60]",1.4833,rectangle
,,,,,,,,,,,,,FF,,,,,,,,1.9001,,,,,,,,,,,,,,,,,,,,,,60ff1a126119afa26965e909,610378d7b8889db7fc75e75f,2021-07-29_23h59.22.774,Simcolourproject_2stim_asymm_v5,2020.2.10,Win32,60,61025ae37ef11b136ea224fe,,,,,,,,,3241,-67.19998956,35.19996967,1,0,0,response7disk,,1,-11.19998872,-11.2000066,1,0,0,rectangle,-11.19998872,-11.2000066,1,0,0,-11.19998872,-11.2000066,1,0,0,0,156,156,85,1,,,,,,,,
,,,,,,,,,,,,,FF,,,,,,,,2.7503,,,,,,,,,,,,,,,,,,,,,,60ff1a126119afa26965e909,610378d7b8889db7fc75e75f,2021-07-29_23h59.22.774,Simcolourproject_2stim_asymm_v5,2020.2.10,Win32,60,61025ae37ef11b136ea224fe,,,,,,,,,3114,-35.19998908,-58.40000731,1,0,0,response5disk,,3,-22.39994006,-10.40000659,1,0,0,rectangle,-22.39994006,-10.40000659,1,0,0,-22.39994006,-10.40000659,1,0,0,0,157,157,119,1,,,,,,,,
,,,,,,,,,,,,,FF,,,,,,,,1.4328,,,,,,,,,,,,,,,,,,,,,,60ff1a126119afa26965e909,610378d7b8889db7fc75e75f,2021-07-29_23h59.22.774,Simcolourproject_2stim_asymm_v5,2020.2.10,Win32,60,61025ae37ef11b136ea224fe,,,,,,,,,2971,80.80001265,43.19996979,1,0,0,response1disk,,6,5.600060356,7.999993682,1,0,0,rectangle,5.600060356,7.999993682,1,0,0,5.600060356,7.999993682,1,0,0,0,158,158,1,1,,,,,,,,
,,,,,,,,,,,,,FF,,,,,,,,1.1504,,,,,,,,,,,,,,,,,,,,,,60ff1a126119afa26965e909,610378d7b8889db7fc75e75f,2021-07-29_23h59.22.774,Simcolourproject_2stim_asymm_v5,2020.2.10,Win32,60,61025ae37ef11b136ea224fe,,,,,,,,,359,49.60006101,71.99999464,1,0,0,response1disk,,7,16.00001168,7.19999367,1,0,0,rectangle,16.00001168,7.19999367,1,0,0,16.00001168,7.19999367,1,0,0,0,159,159,142,1,,,,,,,,
,,,,,,,,,,,,,FF,,,,,,,,1.8165,,,,,,,,,,,,,,,,,,,,,,60ff1a126119afa26965e909,610378d7b8889db7fc75e75f,2021-07-29_23h59.22.774,Simcolourproject_2stim_asymm_v5,2020.2.10,Win32,60,61025ae37ef11b136ea224fe,,,,,,,,,995,92.00001281,-34.40000695,1,0,0,response3disk,,5,27.20001185,-6.4373E-06,1,0,0,rectangle,27.20001185,-6.4373E-06,1,0,0,27.20001185,-6.4373E-06,1,0,0,1,0,160,108,1,,,,,,,,
,,,,,,,,,,,,,FF,,,,,,,,5.3994,,,,,,,,,,,,,,,,,,,,,,60ff1a126119afa26965e909,610378d7b8889db7fc75e75f,2021-07-29_23h59.22.774,Simcolourproject_2stim_asymm_v5,2020.2.10,Win32,60,61025ae37ef11b136ea224fe,,,,,,,,,2152,49.60006101,-83.20000768,1,0,0,response3disk,,4,-0.799988568,-5.600006521,1,0,0,rectangle,-0.799988568,-5.600006521,1,0,0,-0.799988568,-5.600006521,1,0,0,1,1,161,146,1,,,,,,,,
,,,,,,,,,,,,,FF,,,,,,,,2.8833,,,,,,,,,,,,,,,,,,,,,,60ff1a126119afa26965e909,610378d7b8889db7fc75e75f,2021-07-29_23h59.22.774,Simcolourproject_2stim_asymm_v5,2020.2.10,Win32,60,61025ae37ef11b136ea224fe,,,,,,,,,223,55.20001227,35.9999941,1,0,0,response1disk,,6,8.800011575,-2.400006473,1,0,0,rectangle,8.800011575,-2.400006473,1,0,0,8.800011575,-2.400006473,1,0,0,1,2,162,34,1,,,,,,,,
,,,,,,,,,,,,,FF,,,,,,,,1.2826,,,,,,,,,,,,,,,,,,,,,,60ff1a126119afa26965e909,610378d7b8889db7fc75e75f,2021-07-29_23h59.22.774,Simcolourproject_2stim_asymm_v5,2020.2.10,Win32,60,61025ae37ef11b136ea224fe,,,,,,,,,3094,-79.99998975,-33.60000694,1,0,0,response5disk,,2,14.40001166,-6.400006533,1,0,0,rectangle,14.40001166,-6.400006533,1,0,0,14.40001166,-6.400006533,1,0,0,1,3,163,78,1,,,,,,,,
,,,,,,,,,,,,,FF,,,,,,,,1.817,,,,,,,,,,,,,,,,,,,,,,60ff1a126119afa26965e909,610378d7b8889db7fc75e75f,2021-07-29_23h59.22.774,Simcolourproject_2stim_asymm_v5,2020.2.10,Win32,60,61025ae37ef11b136ea224fe,,,,,,,,,1981,40.00001204,78.39999473,1,0,0,response1disk,,7,-9.599988699,3.999993622,1,0,0,rectangle,-9.599988699,3.999993622,1,0,0,-9.599988699,3.999993622,1,0,0,1,4,164,15,1,,,,,,,,
,,,,,,,,,,,,,FF,,,,,,,,1.7341,,,,,,,,,,,,,,,,,,,,,,60ff1a126119afa26965e909,610378d7b8889db7fc75e75f,2021-07-29_23h59.22.774,Simcolourproject_2stim_asymm_v5,2020.2.10,Win32,60,61025ae37ef11b136ea224fe,,,,,,,,,2653,120.8000132,35.9999941,1,0,0,response1disk,,6,-25.59998894,13.59999377,1,0,0,rectangle,-25.59998894,13.59999377,1,0,0,-25.59998894,13.59999377,1,0,0,1,5,165,62,1,,,,,,,,
,,,,,,,,,,,,,FF,,,,,,,,4.0169,,,,,,,,,,,,,,,,,,,,,,60ff1a126119afa26965e909,610378d7b8889db7fc75e75f,2021-07-29_23h59.22.774,Simcolourproject_2stim_asymm_v5,2020.2.10,Win32,60,61025ae37ef11b136ea224fe,,,,,,,,,2185,37.60006083,79.99999475,1,0,0,response1disk,,7,-2.399939764,-15.20000666,1,0,0,rectangle,-2.399939764,-15.20000666,1,0,0,-2.399939764,-15.20000666,1,0,0,1,6,166,71,1,,,,,,,,
,,,,,,,,,,,,,FF,,,,,,,,1.0329,,,,,,,,,,,,,,,,,,,,,,60ff1a126119afa26965e909,610378d7b8889db7fc75e75f,2021-07-29_23h59.22.774,Simcolourproject_2stim_asymm_v5,2020.2.10,Win32,60,61025ae37ef11b136ea224fe,,,,,,,,,2138,23.20001179,39.99999416,1,0,0,response1disk,,7,22.40001178,7.999993682,1,0,0,rectangle,22.40001178,7.999993682,1,0,0,22.40001178,7.999993682,1,0,0,1,7,167,79,1,,,,,,,,
,,,,,,,,,,,,,FF,,,,,,,,1.2834,,,,,,,,,,,,,,,,,,,,,,60ff1a126119afa26965e909,610378d7b8889db7fc75e75f,2021-07-29_23h59.22.774,Simcolourproject_2stim_asymm_v5,2020.2.10,Win32,60,61025ae37ef11b136ea224fe,,,,,,,,,1877,-78.3999409,55.19996997,1,0,0,response7disk,,1,-15.19998878,-6.400006533,1,0,0,rectangle,-15.19998878,-6.400006533,1,0,0,-15.19998878,-6.400006533,1,0,0,1,8,168,14,1,,,,,,,,
,,,,,,,,,,,,,FF,,,,,,,,0.8339,,,,,,,,,,,,,,,,,,,,,,60ff1a126119afa26965e909,610378d7b8889db7fc75e75f,2021-07-29_23h59.22.774,Simcolourproject_2stim_asymm_v5,2020.2.10,Win32,60,61025ae37ef11b136ea224fe,,,,,,,,,698,-75.19998968,39.19996973,1,0,0,response7disk,,1,-15.99998879,-0.800006449,1,0,0,rectangle,-15.99998879,-0.800006449,1,0,0,-15.99998879,-0.800006449,1,0,0,1,9,169,143,1,,,,,,,,
,,,,,,,,,,,,,FF,,,,,,,,1.8826,,,,,,,,,,,,,,,,,,,,,,60ff1a126119afa26965e909,610378d7b8889db7fc75e75f,2021-07-29_23h59.22.774,Simcolourproject_2stim_asymm_v5,2020.2.10,Win32,60,61025ae37ef11b136ea224fe,,,,,,,,,3596,-62.39994066,-80.80000764,1,0,0,response5disk,,3,8.800011575,-3.200006485,1,0,0,rectangle,8.800011575,-3.200006485,1,0,0,8.800011575,-3.200006485,1,0,0,1,10,170,5,1,,,,,,,,
,,,,,,,,,,,,,FF,,,,,,,,0.7667,,,,,,,,,,,,,,,,,,,,,,60ff1a126119afa26965e909,610378d7b8889db7fc75e75f,2021-07-29_23h59.22.774,Simcolourproject_2stim_asymm_v5,2020.2.10,Win32,60,61025ae37ef11b136ea224fe,,,,,,,,,2778,-76.7999897,40.79999417,1,0,0,response7disk,,1,-2.399939764,-1.600006461,1,0,0,rectangle,-2.399939764,-1.600006461,1,0,0,-2.399939764,-1.600006461,1,0,0,1,11,171,75,1,,,,,,,,
,,,,,,,,,,,,,FF,,,,,,,,3.7668,,,,,,,,,,,,,,,,,,,,,,60ff1a126119afa26965e909,610378d7b8889db7fc75e75f,2021-07-29_23h59.22.774,Simcolourproject_2stim_asymm_v5,2020.2.10,Win32,60,61025ae37ef11b136ea224fe,,,,,,,,,1414,84.80001271,-54.40000725,1,0,0,response3disk,,5,33.60006077,-7.200006545,1,0,0,rectangle,33.60006077,-7.200006545,1,0,0,33.60006077,-7.200006545,1,0,0,1,12,172,65,1,,,,,,,,
,,,,,,,,,,,,,FF,,,,,,,,0.8162,,,,,,,,,,,,,,,,,,,,,,60ff1a126119afa26965e909,610378d7b8889db7fc75e75f,2021-07-29_23h59.22.774,Simcolourproject_2stim_asymm_v5,2020.2.10,Win32,60,61025ae37ef11b136ea224fe,,,,,,,,,607,-100.7999901,37.59999412,1,0,0,response7disk,,1,-23.99998891,4.799993634,1,0,0,rectangle,-23.99998891,4.799993634,1,0,0,-23.99998891,4.799993634,1,0,0,1,13,173,138,1,,,,,,,,
,,,,,,,,,,,,,FF,,,,,,,,2.7872,,,,,,,,,,,,,,,,,,,,,,60ff1a126119afa26965e909,610378d7b8889db7fc75e75f,2021-07-29_23h59.22.774,Simcolourproject_2stim_asymm_v5,2020.2.10,Win32,60,61025ae37ef11b136ea224fe,,,,,,,,,3927,77.6000126,20.79999387,1,0,0,response1disk,,6,16.00001168,7.999993682,1,0,0,rectangle,16.00001168,7.999993682,1,0,0,16.00001168,7.999993682,1,0,0,1,14,174,54,1,,,,,,,,
,,,,,,,,,,,,,FF,,,,,,,,1.0209,,,,,,,,,,,,,,,,,,,,,,60ff1a126119afa26965e909,610378d7b8889db7fc75e75f,2021-07-29_23h59.22.774,Simcolourproject_2stim_asymm_v5,2020.2.10,Win32,60,61025ae37ef11b136ea224fe,,,,,,,,,2196,36.80001199,72.79999465,1,0,0,response1disk,,7,3.200011492,11.19999373,1,0,0,rectangle,3.200011492,11.19999373,1,0,0,3.200011492,11.19999373,1,0,0,1,15,175,129,1,,,,,,,,
,,,,,,,,,,,,,FF,,,,,,,,1.4333,,,,,,,,,,,,,,,,,,,,,,60ff1a126119afa26965e909,610378d7b8889db7fc75e75f,2021-07-29_23h59.22.774,Simcolourproject_2stim_asymm_v5,2020.2.10,Win32,60,61025ae37ef11b136ea224fe,,,,,,,,,3042,-79.99998975,-32.00000691,1,0,0,response5disk,,2,-12.79998875,-6.4373E-06,1,0,0,rectangle,-12.79998875,-6.4373E-06,1,0,0,-12.79998875,-6.4373E-06,1,0,0,1,16,176,7,1,,,,,,,,
,,,,,,,,,,,,,FF,,,,,,,,1.6496,,,,,,,,,,,,,,,,,,,,,,60ff1a126119afa26965e909,610378d7b8889db7fc75e75f,2021-07-29_23h59.22.774,Simcolourproject_2stim_asymm_v5,2020.2.10,Win32,60,61025ae37ef11b136ea224fe,,,,,,,,,2064,49.60006101,-91.2000078,1,0,0,response3disk,,4,-11.99998873,-3.200006485,1,0,0,rectangle,-11.99998873,-3.200006485,1,0,0,-11.99998873,-3.200006485,1,0,0,1,17,177,9,1,,,,,,,,
,,,,,,,,,,,,,FF,,,,,,,,1.7831,,,,,,,,,,,,,,,,,,,,,,60ff1a126119afa26965e909,610378d7b8889db7fc75e75f,2021-07-29_23h59.22.774,Simcolourproject_2stim_asymm_v5,2020.2.10,Win32,60,61025ae37ef11b136ea224fe,,,,,,,,,1838,67.20001245,-101.6000568,1,0,0,response3disk,,4,-2.399939764,-11.2000066,1,0,0,rectangle,-2.399939764,-11.2000066,1,0,0,-2.399939764,-11.2000066,1,0,0,1,18,178,32,1,,,,,,,,
,,,,,,,,,,,,,FF,,,,,,,,1.9999,,,,,,,,,,,,,,,,,,,,,,60ff1a126119afa26965e909,610378d7b8889db7fc75e75f,2021-07-29_23h59.22.774,Simcolourproject_2stim_asymm_v5,2020.2.10,Win32,60,61025ae37ef11b136ea224fe,,,,,,,,,3719,-51.99998933,-88.80000776,1,0,0,response5disk,,3,4.000011504,14.39999378,1,0,0,rectangle,4.000011504,14.39999378,1,0,0,4.000011504,14.39999378,1,0,0,1,19,179,61,1,,,,,,,,
,,,,,,,,,,,,,FF,,,,,,,,2.0332,,,,,,,,,,,,,,,,,,,,,,60ff1a126119afa26965e909,610378d7b8889db7fc75e75f,2021-07-29_23h59.22.774,Simcolourproject_2stim_asymm_v5,2020.2.10,Win32,60,61025ae37ef11b136ea224fe,,,,,,,,,2254,50.4000122,-72.80000752,1,0,0,response3disk,,4,-10.39993988,8.799993694,1,0,0,rectangle,-10.39993988,8.799993694,1,0,0,-10.39993988,8.799993694,1,0,0,1,20,180,89,1,,,,,,,,
,,,,,,,,,,,,,FF,,,,,,,,1.2331,,,,,,,,,,,,,,,,,,,,,,60ff1a126119afa26965e909,610378d7b8889db7fc75e75f,2021-07-29_23h59.22.774,Simcolourproject_2stim_asymm_v5,2020.2.10,Win32,60,61025ae37ef11b136ea224fe,,,,,,,,,1502,97.6000129,27.99999398,1,0,0,response1disk,,6,6.400011539,11.99999374,1,0,0,rectangle,6.400011539,11.99999374,1,0,0,6.400011539,11.99999374,1,0,0,1,21,181,124,1,,,,,,,,
,,,,,,,,,,,,,FF,,,,,,,,2.5664,,,,,,,,,,,,,,,,,,,,,,60ff1a126119afa26965e909,610378d7b8889db7fc75e75f,2021-07-29_23h59.22.774,Simcolourproject_2stim_asymm_v5,2020.2.10,Win32,60,61025ae37ef11b136ea224fe,,,,,,,,,3229,69.60001248,-49.60000718,1,0,0,response3disk,,5,7.200011551,-7.200006545,1,0,0,rectangle,7.200011551,-7.200006545,1,0,0,7.200011551,-7.200006545,1,0,0,1,22,182,42,1,,,,,,,,
,,,,,,,,,,,,,FF,,,,,,,,1.8667,,,,,,,,,,,,,,,,,,,,,,60ff1a126119afa26965e909,610378d7b8889db7fc75e75f,2021-07-29_23h59.22.774,Simcolourproject_2stim_asymm_v5,2020.2.10,Win32,60,61025ae37ef11b136ea224fe,,,,,,,,,2521,81.60001266,-41.60000706,1,0,0,response3disk,,5,-19.99998885,2.399993598,1,0,0,rectangle,-19.99998885,2.399993598,1,0,0,-19.99998885,2.399993598,1,0,0,1,23,183,121,1,,,,,,,,
,,,,,,,,,,,,,FF,,,,,,,,5.7363,,,,,,,,,,,,,,,,,,,,,,60ff1a126119afa26965e909,610378d7b8889db7fc75e75f,2021-07-29_23h59.22.774,Simcolourproject_2stim_asymm_v5,2020.2.10,Win32,60,61025ae37ef11b136ea224fe,,,,,,,,,2489,59.20001233,-94.40000784,1,0,0,response3disk,,4,1.600060296,-14.40000665,1,0,0,rectangle,1.600060296,-14.40000665,1,0,0,1.600060296,-14.40000665,1,0,0,1,24,184,41,1,,,,,,,,
,,,,,,,,,,,,,FF,,,,,,,,3.6164,,,,,,,,,,,,,,,,,,,,,,60ff1a126119afa26965e909,610378d7b8889db7fc75e75f,2021-07-29_23h59.22.774,Simcolourproject_2stim_asymm_v5,2020.2.10,Win32,60,61025ae37ef11b136ea224fe,,,,,,,,,3401,78.40001261,-42.40000707,1,0,0,response3disk,,5,-12.79998875,11.19999373,1,0,0,rectangle,-12.79998875,11.19999373,1,0,0,-12.79998875,11.19999373,1,0,0,1,25,185,36,1,,,,,,,,
,,,,,,,,,,,,,FF,,,,,,,,5.1995,,,,,,,,,,,,,,,,,,,,,,60ff1a126119afa26965e909,610378d7b8889db7fc75e75f,2021-07-29_23h59.22.774,Simcolourproject_2stim_asymm_v5,2020.2.10,Win32,60,61025ae37ef11b136ea224fe,,,,,,,,,2622,114.4000131,45.59999424,1,0,0,response1disk,,6,20.80001175,-6.400006533,1,0,0,rectangle,20.80001175,-6.400006533,1,0,0,20.80001175,-6.400006533,1,0,0,1,26,186,151,1,,,,,,,,
,,,,,,,,,,,,,FF,,,,,,,,1.1001,,,,,,,,,,,,,,,,,,,,,,60ff1a126119afa26965e909,610378d7b8889db7fc75e75f,2021-07-29_23h59.22.774,Simcolourproject_2stim_asymm_v5,2020.2.10,Win32,60,61025ae37ef11b136ea224fe,,,,,,,,,1794,-41.59998918,-102.400008,1,0,0,response5disk,,3,-2.399939764,-4.800006509,1,0,0,rectangle,-2.399939764,-4.800006509,1,0,0,-2.399939764,-4.800006509,1,0,0,1,27,187,21,1,,,,,,,,
,,,,,,,,,,,,,FF,,,,,,,,1.8666,,,,,,,,,,,,,,,,,,,,,,60ff1a126119afa26965e909,610378d7b8889db7fc75e75f,2021-07-29_23h59.22.774,Simcolourproject_2stim_asymm_v5,2020.2.10,Win32,60,61025ae37ef11b136ea224fe,,,,,,,,,622,56.00001228,-92.80000782,1,0,0,response3disk,,4,9.600060415,0.799993575,1,0,0,rectangle,9.600060415,0.799993575,1,0,0,9.600060415,0.799993575,1,0,0,1,28,188,127,1,,,,,,,,
,,,,,,,,,,,,,FF,,,,,,,,1.2001,,,,,,,,,,,,,,,,,,,,,,60ff1a126119afa26965e909,610378d7b8889db7fc75e75f,2021-07-29_23h59.22.774,Simcolourproject_2stim_asymm_v5,2020.2.10,Win32,60,61025ae37ef11b136ea224fe,,,,,,,,,2549,-43.99998921,-78.40000761,1,0,0,response5disk,,3,15.20001167,6.399993658,1,0,0,rectangle,15.20001167,6.399993658,1,0,0,15.20001167,6.399993658,1,0,0,1,29,189,64,1,,,,,,,,
,,,,,,,,,,,,,FF,,,,,,,,1.4501,,,,,,,,,,,,,,,,,,,,,,60ff1a126119afa26965e909,610378d7b8889db7fc75e75f,2021-07-29_23h59.22.774,Simcolourproject_2stim_asymm_v5,2020.2.10,Win32,60,61025ae37ef11b136ea224fe,,,,,,,,,1510,92.80001283,-52.80000722,1,0,0,response3disk,,5,25.60006065,-1.600006461,1,0,0,rectangle,25.60006065,-1.600006461,1,0,0,25.60006065,-1.600006461,1,0,0,1,30,190,83,1,,,,,,,,
,,,,,,,,,,,,,FF,,,,,,,,1.6164,,,,,,,,,,,,,,,,,,,,,,60ff1a126119afa26965e909,610378d7b8889db7fc75e75f,2021-07-29_23h59.22.774,Simcolourproject_2stim_asymm_v5,2020.2.10,Win32,60,61025ae37ef11b136ea224fe,,,,,,,,,63,-53.59998935,-83.20000768,1,0,0,response5disk,,3,-20.79998887,-14.40000665,1,0,0,rectangle,-20.79998887,-14.40000665,1,0,0,-20.79998887,-14.40000665,1,0,0,1,31,191,144,1,,,,,,,,
,,,,,,,,,,,,,FF,,,,,,,,3.0832,,,,,,,,,,,,,,,,,,,,,,60ff1a126119afa26965e909,610378d7b8889db7fc75e75f,2021-07-29_23h59.22.774,Simcolourproject_2stim_asymm_v5,2020.2.10,Win32,60,61025ae37ef11b136ea224fe,,,,,,,,,2429,-37.59998912,-61.60000736,1,0,0,response5disk,,3,8.800011575,-6.4373E-06,1,0,0,rectangle,8.800011575,-6.4373E-06,1,0,0,8.800011575,-6.4373E-06,1,0,0,1,32,192,51,1,,,,,,,,
,,,,,,,,,,,,,FF,,,,,,,,1.9,,,,,,,,,,,,,,,,,,,,,,60ff1a126119afa26965e909,610378d7b8889db7fc75e75f,2021-07-29_23h59.22.774,Simcolourproject_2stim_asymm_v5,2020.2.10,Win32,60,61025ae37ef11b136ea224fe,,,,,,,,,492,75.20001256,77.59999472,1,0,0,response1disk,,7,13.60006047,-4.800006509,1,0,0,rectangle,13.60006047,-4.800006509,1,0,0,13.60006047,-4.800006509,1,0,0,1,33,193,105,1,,,,,,,,
,,,,,,,,,,,,,FF,,,,,,,,1.2038,,,,,,,,,,,,,,,,,,,,,,60ff1a126119afa26965e909,610378d7b8889db7fc75e75f,2021-07-29_23h59.22.774,Simcolourproject_2stim_asymm_v5,2020.2.10,Win32,60,61025ae37ef11b136ea224fe,,,,,,,,,2873,87.20001274,-52.80000722,1,0,0,response3disk,,5,10.4000116,15.19999379,1,0,0,rectangle,10.4000116,15.19999379,1,0,0,10.4000116,15.19999379,1,0,0,1,34,194,103,1,,,,,,,,
,,,,,,,,,,,,,FF,,,,,,,,2.1666,,,,,,,,,,,,,,,,,,,,,,60ff1a126119afa26965e909,610378d7b8889db7fc75e75f,2021-07-29_23h59.22.774,Simcolourproject_2stim_asymm_v5,2020.2.10,Win32,60,61025ae37ef11b136ea224fe,,,,,,,,,3278,84.0000127,-50.40000719,1,0,0,response3disk,,5,-3.199988604,15.19999379,1,0,0,rectangle,-3.199988604,15.19999379,1,0,0,-3.199988604,15.19999379,1,0,0,1,35,195,159,1,,,,,,,,
,,,,,,,,,,,,,FF,,,,,,,,1.4001,,,,,,,,,,,,,,,,,,,,,,60ff1a126119afa26965e909,610378d7b8889db7fc75e75f,2021-07-29_23h59.22.774,Simcolourproject_2stim_asymm_v5,2020.2.10,Win32,60,61025ae37ef11b136ea224fe,,,,,,,,,972,-78.3999409,-33.60000694,1,0,0,response5disk,,2,-11.19998872,-8.000006557,1,0,0,rectangle,-11.19998872,-8.000006557,1,0,0,-11.19998872,-8.000006557,1,0,0,1,36,196,48,1,,,,,,,,
,,,,,,,,,,,,,FF,,,,,,,,1.1006,,,,,,,,,,,,,,,,,,,,,,60ff1a126119afa26965e909,610378d7b8889db7fc75e75f,2021-07-29_23h59.22.774,Simcolourproject_2stim_asymm_v5,2020.2.10,Win32,60,61025ae37ef11b136ea224fe,,,,,,,,,2110,83.20001268,27.19996955,1,0,0,response1disk,,6,-11.99998873,-6.400006533,1,0,0,rectangle,-11.99998873,-6.400006533,1,0,0,-11.99998873,-6.400006533,1,0,0,1,37,197,85,1,,,,,,,,
,,,,,,,,,,,,,FF,,,,,,,,0.9502,,,,,,,,,,,,,,,,,,,,,,60ff1a126119afa26965e909,610378d7b8889db7fc75e75f,2021-07-29_23h59.22.774,Simcolourproject_2stim_asymm_v5,2020.2.10,Win32,60,61025ae37ef11b136ea224fe,,,,,,,,,1695,42.40001208,89.5999949,1,0,0,response1disk,,7,-9.599988699,-8.800006568,1,0,0,rectangle,-9.599988699,-8.800006568,1,0,0,-9.599988699,-8.800006568,1,0,0,1,38,198,158,1,,,,,,,,
,,,,,,,,,,,,,FF,,,,,,,,1.9172,,,,,,,,,,,,,,,,,,,,,,60ff1a126119afa26965e909,610378d7b8889db7fc75e75f,2021-07-29_23h59.22.774,Simcolourproject_2stim_asymm_v5,2020.2.10,Win32,60,61025ae37ef11b136ea224fe,,,,,,,,,2043,98.40001291,-62.40000737,1,0,0,response3disk,,5,-13.59998876,3.19999361,1,0,0,rectangle,-13.59998876,3.19999361,1,0,0,-13.59998876,3.19999361,1,0,0,1,39,199,95,1,,,,,,,,
,,,,,,,,,,,,,FF,,,,,,,,1.5494,,,,,,,,,,,,,,,,,,,,,,60ff1a126119afa26965e909,610378d7b8889db7fc75e75f,2021-07-29_23h59.22.774,Simcolourproject_2stim_asymm_v5,2020.2.10,Win32,60,61025ae37ef11b136ea224fe,,,,,,,,,1493,98.40001291,-39.20000702,1,0,0,response3disk,,5,15.20001167,-4.000006497,1,0,0,rectangle,15.20001167,-4.000006497,1,0,0,15.20001167,-4.000006497,1,0,0,1,40,200,17,1,,,,,,,,
,,,,,,,,,,,,,FF,,,,,,,,1.2339,,,,,,,,,,,,,,,,,,,,,,60ff1a126119afa26965e909,610378d7b8889db7fc75e75f,2021-07-29_23h59.22.774,Simcolourproject_2stim_asymm_v5,2020.2.10,Win32,60,61025ae37ef11b136ea224fe,,,,,,,,,1904,-41.59998918,-88.80000776,1,0,0,response5disk,,3,-2.399939764,-4.800006509,1,0,0,rectangle,-2.399939764,-4.800006509,1,0,0,-2.399939764,-4.800006509,1,0,0,1,41,201,20,1,,,,,,,,
,,,,,,,,,,,,,FF,,,,,,,,1.034,,,,,,,,,,,,,,,,,,,,,,60ff1a126119afa26965e909,610378d7b8889db7fc75e75f,2021-07-29_23h59.22.774,Simcolourproject_2stim_asymm_v5,2020.2.10,Win32,60,61025ae37ef11b136ea224fe,,,,,,,,,1006,50.4000122,74.39999467,1,0,0,response1disk,,7,13.60006047,-16.80000669,1,0,0,rectangle,13.60006047,-16.80000669,1,0,0,13.60006047,-16.80000669,1,0,0,1,42,202,68,1,,,,,,,,
,,,,,,,,,,,,,FF,,,,,,,,1.3494,,,,,,,,,,,,,,,,,,,,,,60ff1a126119afa26965e909,610378d7b8889db7fc75e75f,2021-07-29_23h59.22.774,Simcolourproject_2stim_asymm_v5,2020.2.10,Win32,60,61025ae37ef11b136ea224fe,,,,,,,,,555,76.00001258,25.59999394,1,0,0,response1disk,,6,28.00001186,-4.800006509,1,0,0,rectangle,28.00001186,-4.800006509,1,0,0,28.00001186,-4.800006509,1,0,0,1,43,203,84,1,,,,,,,,
,,,,,,,,,,,,,FF,,,,,,,,0.9699,,,,,,,,,,,,,,,,,,,,,,60ff1a126119afa26965e909,610378d7b8889db7fc75e75f,2021-07-29_23h59.22.774,Simcolourproject_2stim_asymm_v5,2020.2.10,Win32,60,61025ae37ef11b136ea224fe,,,,,,,,,991,89.60001278,34.39999408,1,0,0,response1disk,,6,9.600060415,-3.200006485,1,0,0,rectangle,9.600060415,-3.200006485,1,0,0,9.600060415,-3.200006485,1,0,0,1,44,204,69,1,,,,,,,,
,,,,,,,,,,,,,FF,,,,,,,,1.1506,,,,,,,,,,,,,,,,,,,,,,60ff1a126119afa26965e909,610378d7b8889db7fc75e75f,2021-07-29_23h59.22.774,Simcolourproject_2stim_asymm_v5,2020.2.10,Win32,60,61025ae37ef11b136ea224fe,,,,,,,,,2990,-59.19998944,-36.00000697,1,0,0,response5disk,,2,-3.199988604,-10.40000659,1,0,0,rectangle,-3.199988604,-10.40000659,1,0,0,-3.199988604,-10.40000659,1,0,0,1,45,205,109,1,,,,,,,,
,,,,,,,,,,,,,FF,,,,,,,,1.7994,,,,,,,,,,,,,,,,,,,,,,60ff1a126119afa26965e909,610378d7b8889db7fc75e75f,2021-07-29_23h59.22.774,Simcolourproject_2stim_asymm_v5,2020.2.10,Win32,60,61025ae37ef11b136ea224fe,,,,,,,,,3850,-83.1999898,-34.40000695,1,0,0,response5disk,,2,-2.399939764,7.19999367,1,0,0,rectangle,-2.399939764,7.19999367,1,0,0,-2.399939764,7.19999367,1,0,0,1,46,206,145,1,,,,,,,,
,,,,,,,,,,,,,FF,,,,,,,,2.2361,,,,,,,,,,,,,,,,,,,,,,60ff1a126119afa26965e909,610378d7b8889db7fc75e75f,2021-07-29_23h59.22.774,Simcolourproject_2stim_asymm_v5,2020.2.10,Win32,60,61025ae37ef11b136ea224fe,,,,,,,,,2090,-41.59998918,-108.000008,1,0,0,response5disk,,3,27.20001185,1.599993587,1,0,0,rectangle,27.20001185,1.599993587,1,0,0,27.20001185,1.599993587,1,0,0,1,47,207,67,1,,,,,,,,
,,,,,,,,,,,,,FF,,,,,,,,5.2164,,,,,,,,,,,,,,,,,,,,,,60ff1a126119afa26965e909,610378d7b8889db7fc75e75f,2021-07-29_23h59.22.774,Simcolourproject_2stim_asymm_v5,2020.2.10,Win32,60,61025ae37ef11b136ea224fe,,,,,,,,,1565,65.60001242,-81.60005648,1,0,0,response3disk,,4,-1.59998858,2.399993598,1,0,0,rectangle,-1.59998858,2.399993598,1,0,0,-1.59998858,2.399993598,1,0,0,1,48,208,19,1,,,,,,,,
,,,,,,,,,,,,,FF,,,,,,,,2.1164,,,,,,,,,,,,,,,,,,,,,,60ff1a126119afa26965e909,610378d7b8889db7fc75e75f,2021-07-29_23h59.22.774,Simcolourproject_2stim_asymm_v5,2020.2.10,Win32,60,61025ae37ef11b136ea224fe,,,,,,,,,140,104.000013,43.99999422,1,0,0,response1disk,,6,-14.39993994,-4.800006509,1,0,0,rectangle,-14.39993994,-4.800006509,1,0,0,-14.39993994,-4.800006509,1,0,0,1,49,209,52,1,,,,,,,,
,,,,,,,,,,,,,FF,,,,,,,,1.6497,,,,,,,,,,,,,,,,,,,,,,60ff1a126119afa26965e909,610378d7b8889db7fc75e75f,2021-07-29_23h59.22.774,Simcolourproject_2stim_asymm_v5,2020.2.10,Win32,60,61025ae37ef11b136ea224fe,,,,,,,,,1288,-84.79998982,37.59999412,1,0,0,response7disk,,1,-7.199988663,-1.600006461,1,0,0,rectangle,-7.199988663,-1.600006461,1,0,0,-7.199988663,-1.600006461,1,0,0,1,50,210,120,1,,,,,,,,
,,,,,,,,,,,,,FF,,,,,,,,4.5997,,,,,,,,,,,,,,,,,,,,,,60ff1a126119afa26965e909,610378d7b8889db7fc75e75f,2021-07-29_23h59.22.774,Simcolourproject_2stim_asymm_v5,2020.2.10,Win32,60,61025ae37ef11b136ea224fe,,,,,,,,,2935,-87.99998987,-45.60000712,1,0,0,response5disk,,2,2.40001148,-7.200006545,1,0,0,rectangle,2.40001148,-7.200006545,1,0,0,2.40001148,-7.200006545,1,0,0,1,51,211,8,1,,,,,,,,
,,,,,,,,,,,,,FF,,,,,,,,1.4334,,,,,,,,,,,,,,,,,,,,,,60ff1a126119afa26965e909,610378d7b8889db7fc75e75f,2021-07-29_23h59.22.774,Simcolourproject_2stim_asymm_v5,2020.2.10,Win32,60,61025ae37ef11b136ea224fe,,,,,,,,,1165,-95.99998999,-48.80000716,1,0,0,response5disk,,2,-4.799988627,-4.800006509,1,0,0,rectangle,-4.799988627,-4.800006509,1,0,0,-4.799988627,-4.800006509,1,0,0,1,52,212,66,1,,,,,,,,
,,,,,,,,,,,,,FF,,,,,,,,2.3,,,,,,,,,,,,,,,,,,,,,,60ff1a126119afa26965e909,610378d7b8889db7fc75e75f,2021-07-29_23h59.22.774,Simcolourproject_2stim_asymm_v5,2020.2.10,Win32,60,61025ae37ef11b136ea224fe,,,,,,,,,1854,89.60001278,-37.600007,1,0,0,response3disk,,5,21.60006059,-8.000006557,1,0,0,rectangle,21.60006059,-8.000006557,1,0,0,21.60006059,-8.000006557,1,0,0,1,53,213,2,1,,,,,,,,
,,,,,,,,,,,,,FF,,,,,,,,1.0003,,,,,,,,,,,,,,,,,,,,,,60ff1a126119afa26965e909,610378d7b8889db7fc75e75f,2021-07-29_23h59.22.774,Simcolourproject_2stim_asymm_v5,2020.2.10,Win32,60,61025ae37ef11b136ea224fe,,,,,,,,,351,-74.39994084,35.19996967,1,0,0,response7disk,,1,-6.399939823,-6.4373E-06,1,0,0,rectangle,-6.399939823,-6.4373E-06,1,0,0,-6.399939823,-6.4373E-06,1,0,0,1,54,214,154,1,,,,,,,,
,,,,,,,,,,,,,FF,,,,,,,,0.7996,,,,,,,,,,,,,,,,,,,,,,60ff1a126119afa26965e909,610378d7b8889db7fc75e75f,2021-07-29_23h59.22.774,Simcolourproject_2stim_asymm_v5,2020.2.10,Win32,60,61025ae37ef11b136ea224fe,,,,,,,,,154,100.0000129,48.79999429,1,0,0,response1disk,,6,2.40001148,-12.80000663,1,0,0,rectangle,2.40001148,-12.80000663,1,0,0,2.40001148,-12.80000663,1,0,0,1,55,215,135,1,,,,,,,,
,,,,,,,,,,,,,FF,,,,,,,,3.0866,,,,,,,,,,,,,,,,,,,,,,60ff1a126119afa26965e909,610378d7b8889db7fc75e75f,2021-07-29_23h59.22.774,Simcolourproject_2stim_asymm_v5,2020.2.10,Win32,60,61025ae37ef11b136ea224fe,,,,,,,,,460,-29.599989,-74.40000755,1,0,0,response5disk,,3,-17.59998882,-8.000006557,1,0,0,rectangle,-17.59998882,-8.000006557,1,0,0,-17.59998882,-8.000006557,1,0,0,1,56,216,81,1,,,,,,,,
,,,,,,,,,,,,,FF,,,,,,,,1.0863,,,,,,,,,,,,,,,,,,,,,,60ff1a126119afa26965e909,610378d7b8889db7fc75e75f,2021-07-29_23h59.22.774,Simcolourproject_2stim_asymm_v5,2020.2.10,Win32,60,61025ae37ef11b136ea224fe,,,,,,,,,1463,-90.39994107,-37.600007,1,0,0,response5disk,,2,-11.99998873,5.599993646,1,0,0,rectangle,-11.99998873,5.599993646,1,0,0,-11.99998873,5.599993646,1,0,0,1,57,217,90,1,,,,,,,,
,,,,,,,,,,,,,FF,,,,,,,,8.7528,,,,,,,,,,,,,,,,,,,,,,60ff1a126119afa26965e909,610378d7b8889db7fc75e75f,2021-07-29_23h59.22.774,Simcolourproject_2stim_asymm_v5,2020.2.10,Win32,60,61025ae37ef11b136ea224fe,,,,,,,,,2286,88.00001276,-43.20000708,1,0,0,response3disk,,5,-24.79998893,11.19999373,1,0,0,rectangle,-24.79998893,11.19999373,1,0,0,-24.79998893,11.19999373,1,0,0,1,58,218,23,1,,,,,,,,
,,,,,,,,,,,,,FF,,,,,,,,1.0498,,,,,,,,,,,,,,,,,,,,,,60ff1a126119afa26965e909,610378d7b8889db7fc75e75f,2021-07-29_23h59.22.774,Simcolourproject_2stim_asymm_v5,2020.2.10,Win32,60,61025ae37ef11b136ea224fe,,,,,,,,,2973,101.600013,49.5999943,1,0,0,response1disk,,6,13.60006047,6.399993658,1,0,0,rectangle,13.60006047,6.399993658,1,0,0,13.60006047,6.399993658,1,0,0,1,59,219,137,1,,,,,,,,
,,,,,,,,,,,,,FF,,,,,,,,1.3704,,,,,,,,,,,,,,,,,,,,,,60ff1a126119afa26965e909,610378d7b8889db7fc75e75f,2021-07-29_23h59.22.774,Simcolourproject_2stim_asymm_v5,2020.2.10,Win32,60,61025ae37ef11b136ea224fe,,,,,,,,,1529,-27.19998896,-72.80000752,1,0,0,response5disk,,3,-1.59998858,-13.60000664,1,0,0,rectangle,-1.59998858,-13.60000664,1,0,0,-1.59998858,-13.60000664,1,0,0,1,60,220,39,1,,,,,,,,
,,,,,,,,,,,,,FF,,,,,,,,0.9675,,,,,,,,,,,,,,,,,,,,,,60ff1a126119afa26965e909,610378d7b8889db7fc75e75f,2021-07-29_23h59.22.774,Simcolourproject_2stim_asymm_v5,2020.2.10,Win32,60,61025ae37ef11b136ea224fe,,,,,,,,,2218,-65.59998953,-91.2000078,1,0,0,response5disk,,3,3.200011492,-8.000006557,1,0,0,rectangle,-96.79999,42.39999419,1,0,0,-15.99998879,1.599993587,1,0,0,1,61,221,29,1,,response7disk_3,TRUE,1,1,"[267,259,156,83,29,108,222,115,322,45,89,318,9,135,79,232,97,246,61,60]",1.6162,rectangle
,,,,,,,,,,,,,FF,,,,,,,,2.0333,,,,,,,,,,,,,,,,,,,,,,60ff1a126119afa26965e909,610378d7b8889db7fc75e75f,2021-07-29_23h59.22.774,Simcolourproject_2stim_asymm_v5,2020.2.10,Win32,60,61025ae37ef11b136ea224fe,,,,,,,,,2376,63.20001239,-92.80000782,1,0,0,response3disk,,4,-3.199988604,2.399993598,1,0,0,rectangle,-3.199988604,2.399993598,1,0,0,-3.199988604,2.399993598,1,0,0,1,62,222,96,1,,,,,,,,
,,,,,,,,,,,,,FF,,,,,,,,1.1333,,,,,,,,,,,,,,,,,,,,,,60ff1a126119afa26965e909,610378d7b8889db7fc75e75f,2021-07-29_23h59.22.774,Simcolourproject_2stim_asymm_v5,2020.2.10,Win32,60,61025ae37ef11b136ea224fe,,,,,,,,,955,-52.79998934,-87.20000774,1,0,0,response5disk,,3,24.0000118,3.19999361,1,0,0,rectangle,24.0000118,3.19999361,1,0,0,24.0000118,3.19999361,1,0,0,1,63,223,125,1,,,,,,,,
,,,,,,,,,,,,,FF,,,,,,,,3.5351,,,,,,,,,,,,,,,,,,,,,,60ff1a126119afa26965e909,610378d7b8889db7fc75e75f,2021-07-29_23h59.22.774,Simcolourproject_2stim_asymm_v5,2020.2.10,Win32,60,61025ae37ef11b136ea224fe,,,,,,,,,2584,65.60001242,-87.20000774,1,0,0,response3disk,,4,9.600060415,-5.600006521,1,0,0,rectangle,9.600060415,-5.600006521,1,0,0,9.600060415,-5.600006521,1,0,0,1,64,224,73,1,,,,,,,,
,,,,,,,,,,,,,FF,,,,,,,,2.0165,,,,,,,,,,,,,,,,,,,,,,60ff1a126119afa26965e909,610378d7b8889db7fc75e75f,2021-07-29_23h59.22.774,Simcolourproject_2stim_asymm_v5,2020.2.10,Win32,60,61025ae37ef11b136ea224fe,,,,,,,,,361,69.60001248,36.79999411,1,0,0,response1disk,,6,-23.99998891,-4.000006497,1,0,0,rectangle,-23.99998891,-4.000006497,1,0,0,-23.99998891,-4.000006497,1,0,0,1,65,225,1,1,,,,,,,,
,,,,,,,,,,,,,FF,,,,,,,,2.7002,,,,,,,,,,,,,,,,,,,,,,60ff1a126119afa26965e909,610378d7b8889db7fc75e75f,2021-07-29_23h59.22.774,Simcolourproject_2stim_asymm_v5,2020.2.10,Win32,60,61025ae37ef11b136ea224fe,,,,,,,,,1683,-99.19999003,-52.00000721,1,0,0,response5disk,,2,-29.599989,-8.800006568,1,0,0,rectangle,-29.599989,-8.800006568,1,0,0,-29.599989,-8.800006568,1,0,0,1,66,226,43,1,,,,,,,,
,,,,,,,,,,,,,FF,,,,,,,,1.9003,,,,,,,,,,,,,,,,,,,,,,60ff1a126119afa26965e909,610378d7b8889db7fc75e75f,2021-07-29_23h59.22.774,Simcolourproject_2stim_asymm_v5,2020.2.10,Win32,60,61025ae37ef11b136ea224fe,,,,,,,,,996,110.4000131,45.59999424,1,0,0,response1disk,,6,1.14441E-05,-3.200006485,1,0,0,rectangle,1.14441E-05,-3.200006485,1,0,0,1.14441E-05,-3.200006485,1,0,0,1,67,227,110,1,,,,,,,,
,,,,,,,,,,,,,FF,,,,,,,,1.2667,,,,,,,,,,,,,,,,,,,,,,60ff1a126119afa26965e909,610378d7b8889db7fc75e75f,2021-07-29_23h59.22.774,Simcolourproject_2stim_asymm_v5,2020.2.10,Win32,60,61025ae37ef11b136ea224fe,,,,,,,,,956,-23.99998891,-78.40000761,1,0,0,response5disk,,3,13.60006047,3.19999361,1,0,0,rectangle,13.60006047,3.19999361,1,0,0,13.60006047,3.19999361,1,0,0,1,68,228,114,1,,,,,,,,
,,,,,,,,,,,,,FF,,,,,,,,0.816,,,,,,,,,,,,,,,,,,,,,,60ff1a126119afa26965e909,610378d7b8889db7fc75e75f,2021-07-29_23h59.22.774,Simcolourproject_2stim_asymm_v5,2020.2.10,Win32,60,61025ae37ef11b136ea224fe,,,,,,,,,4163,-83.99998981,35.19996967,1,0,0,response7disk,,1,19.20001173,-12.80000663,1,0,0,rectangle,19.20001173,-12.80000663,1,0,0,19.20001173,-12.80000663,1,0,0,1,69,229,139,1,,,,,,,,
,,,,,,,,,,,,,FF,,,,,,,,3.0331,,,,,,,,,,,,,,,,,,,,,,60ff1a126119afa26965e909,610378d7b8889db7fc75e75f,2021-07-29_23h59.22.774,Simcolourproject_2stim_asymm_v5,2020.2.10,Win32,60,61025ae37ef11b136ea224fe,,,,,,,,,623,54.40001225,-84.8000077,1,0,0,response3disk,,4,10.4000116,-8.000006557,1,0,0,rectangle,10.4000116,-8.000006557,1,0,0,10.4000116,-8.000006557,1,0,0,1,70,230,76,1,,,,,,,,
,,,,,,,,,,,,,FF,,,,,,,,1.1334,,,,,,,,,,,,,,,,,,,,,,60ff1a126119afa26965e909,610378d7b8889db7fc75e75f,2021-07-29_23h59.22.774,Simcolourproject_2stim_asymm_v5,2020.2.10,Win32,60,61025ae37ef11b136ea224fe,,,,,,,,,3273,99.20001292,19.99999386,1,0,0,response1disk,,6,20.00001174,6.399993658,1,0,0,rectangle,56.80001229,-114.4000081,1,0,0,4.000011504,-4.800006509,1,0,0,1,71,231,126,1,,response3disk_3,TRUE,4,4,"[267,259,156,83,29,108,222,115,322,45,89,318,9,135,79,232,97,246,61,60]",1.4496,rectangle
,,,,,,,,,,,,,FF,,,,,,,,1.0667,,,,,,,,,,,,,,,,,,,,,,60ff1a126119afa26965e909,610378d7b8889db7fc75e75f,2021-07-29_23h59.22.774,Simcolourproject_2stim_asymm_v5,2020.2.10,Win32,60,61025ae37ef11b136ea224fe,,,,,,,,,2367,-49.5999893,-97.60005672,1,0,0,response5disk,,3,-5.599988639,-11.2000066,1,0,0,rectangle,-5.599988639,-11.2000066,1,0,0,-5.599988639,-11.2000066,1,0,0,1,72,232,136,1,,,,,,,,
,,,,,,,,,,,,,FF,,,,,,,,0.8165,,,,,,,,,,,,,,,,,,,,,,60ff1a126119afa26965e909,610378d7b8889db7fc75e75f,2021-07-29_23h59.22.774,Simcolourproject_2stim_asymm_v5,2020.2.10,Win32,60,61025ae37ef11b136ea224fe,,,,,,,,,3748,-91.19998991,-32.00000691,1,0,0,response5disk,,2,-30.39994018,-4.800006509,1,0,0,rectangle,-30.39994018,-4.800006509,1,0,0,-30.39994018,-4.800006509,1,0,0,1,73,233,128,1,,,,,,,,
,,,,,,,,,,,,,FF,,,,,,,,0.9666,,,,,,,,,,,,,,,,,,,,,,60ff1a126119afa26965e909,610378d7b8889db7fc75e75f,2021-07-29_23h59.22.774,Simcolourproject_2stim_asymm_v5,2020.2.10,Win32,60,61025ae37ef11b136ea224fe,,,,,,,,,365,82.40001267,24.79999393,1,0,0,response1disk,,6,-10.39993988,4.799993634,1,0,0,rectangle,-10.39993988,4.799993634,1,0,0,-10.39993988,4.799993634,1,0,0,1,74,234,38,1,,,,,,,,
,,,,,,,,,,,,,FF,,,,,,,,3.1663,,,,,,,,,,,,,,,,,,,,,,60ff1a126119afa26965e909,610378d7b8889db7fc75e75f,2021-07-29_23h59.22.774,Simcolourproject_2stim_asymm_v5,2020.2.10,Win32,60,61025ae37ef11b136ea224fe,,,,,,,,,3217,87.20001274,47.99999428,1,0,0,response1disk,,6,23.20001179,4.799993634,1,0,0,rectangle,23.20001179,4.799993634,1,0,0,23.20001179,4.799993634,1,0,0,1,75,235,115,1,,,,,,,,
,,,,,,,,,,,,,FF,,,,,,,,1,,,,,,,,,,,,,,,,,,,,,,60ff1a126119afa26965e909,610378d7b8889db7fc75e75f,2021-07-29_23h59.22.774,Simcolourproject_2stim_asymm_v5,2020.2.10,Win32,60,61025ae37ef11b136ea224fe,,,,,,,,,2424,-87.19998986,-36.00000697,1,0,0,response5disk,,2,-18.39994,-11.2000066,1,0,0,rectangle,-18.39994,-11.2000066,1,0,0,-18.39994,-11.2000066,1,0,0,1,76,236,50,1,,,,,,,,
,,,,,,,,,,,,,FF,,,,,,,,1.6668,,,,,,,,,,,,,,,,,,,,,,60ff1a126119afa26965e909,610378d7b8889db7fc75e75f,2021-07-29_23h59.22.774,Simcolourproject_2stim_asymm_v5,2020.2.10,Win32,60,61025ae37ef11b136ea224fe,,,,,,,,,834,46.40001214,-95.20000786,1,0,0,response3disk,,4,-7.999988675,-0.800006449,1,0,0,rectangle,-7.999988675,-0.800006449,1,0,0,-7.999988675,-0.800006449,1,0,0,1,77,237,49,1,,,,,,,,
,,,,,,,,,,,,,FF,,,,,,,,4.1498,,,,,,,,,,,,,,,,,,,,,,60ff1a126119afa26965e909,610378d7b8889db7fc75e75f,2021-07-29_23h59.22.774,Simcolourproject_2stim_asymm_v5,2020.2.10,Win32,60,61025ae37ef11b136ea224fe,,,,,,,,,454,92.00001281,44.79999423,1,0,0,response1disk,,6,-0.799988568,13.59999377,1,0,0,rectangle,-0.799988568,13.59999377,1,0,0,-0.799988568,13.59999377,1,0,0,1,78,238,80,1,,,,,,,,
,,,,,,,,,,,,,FF,,,,,,,,2.5165,,,,,,,,,,,,,,,,,,,,,,60ff1a126119afa26965e909,610378d7b8889db7fc75e75f,2021-07-29_23h59.22.774,Simcolourproject_2stim_asymm_v5,2020.2.10,Win32,60,61025ae37ef11b136ea224fe,,,,,,,,,3182,28.00001186,64.79999453,1,0,0,response1disk,,7,11.20001161,13.59999377,1,0,0,rectangle,11.20001161,13.59999377,1,0,0,11.20001161,13.59999377,1,0,0,1,79,239,148,1,,,,,,,,
,,,,,,,,,,,,,FF,,,,,,,,1.5666,,,,,,,,,,,,,,,,,,,,,,60ff1a126119afa26965e909,610378d7b8889db7fc75e75f,2021-07-29_23h59.22.774,Simcolourproject_2stim_asymm_v5,2020.2.10,Win32,60,61025ae37ef11b136ea224fe,,,,,,,,,1544,119.2000132,-47.20000714,1,0,0,response3disk,,5,9.600060415,10.39999372,1,0,0,rectangle,9.600060415,10.39999372,1,0,0,9.600060415,10.39999372,1,0,0,1,80,240,94,1,,,,,,,,
,,,,,,,,,,,,,FF,,,,,,,,2.0164,,,,,,,,,,,,,,,,,,,,,,60ff1a126119afa26965e909,610378d7b8889db7fc75e75f,2021-07-29_23h59.22.774,Simcolourproject_2stim_asymm_v5,2020.2.10,Win32,60,61025ae37ef11b136ea224fe,,,,,,,,,4259,46.40001214,34.39999408,1,0,0,response1disk,,6,30.4000119,0.799993575,1,0,0,rectangle,30.4000119,0.799993575,1,0,0,30.4000119,0.799993575,1,0,0,1,81,241,141,1,,,,,,,,
,,,,,,,,,,,,,FF,,,,,,,,4.2333,,,,,,,,,,,,,,,,,,,,,,60ff1a126119afa26965e909,610378d7b8889db7fc75e75f,2021-07-29_23h59.22.774,Simcolourproject_2stim_asymm_v5,2020.2.10,Win32,60,61025ae37ef11b136ea224fe,,,,,,,,,1938,80.00001264,35.19996967,1,0,0,response1disk,,6,17.60006053,5.599993646,1,0,0,rectangle,17.60006053,5.599993646,1,0,0,17.60006053,5.599993646,1,0,0,1,82,242,46,1,,,,,,,,
,,,,,,,,,,,,,FF,,,,,,,,1.2,,,,,,,,,,,,,,,,,,,,,,60ff1a126119afa26965e909,610378d7b8889db7fc75e75f,2021-07-29_23h59.22.774,Simcolourproject_2stim_asymm_v5,2020.2.10,Win32,60,61025ae37ef11b136ea224fe,,,,,,,,,1849,62.40001237,-96.00000787,1,0,0,response3disk,,4,6.400011539,3.19999361,1,0,0,rectangle,6.400011539,3.19999361,1,0,0,6.400011539,3.19999361,1,0,0,1,83,243,147,1,,,,,,,,
