key_resp.keys,key_resp.rt,key_resp_14.keys,key_resp_14.rt,key_resp_15.keys,key_resp_15.rt,key_resp_17.keys,key_resp_17.rt,key_resp_9.keys,key_resp_9.rt,key_resp_10.keys,key_resp_10.rt,practice_comparison,Ecc,mouse_5.x,mouse_5.y,mouse_5.leftButton,mouse_5.midButton,mouse_5.rightButton,mouse_5.clicked_name,pracsimilarity,response_time,mouse_10.x,mouse_10.y,mouse_10.leftButton,mouse_10.midButton,mouse_10.rightButton,mouse_10.clicked_name,mouse_7.x,mouse_7.y,mouse_7.leftButton,mouse_7.midButton,mouse_7.rightButton,mouse_6.x,mouse_6.y,mouse_6.leftButton,mouse_6.midButton,mouse_6.rightButton,duringprac.thisRepN,duringprac.thisTrialN,duringprac.thisN,duringprac.thisIndex,duringprac.ran,participant,session,date,expName,psychopyVersion,OS,frameRate,study_id,mouse_7.clicked_name,catchpracsimilarity,catch_response_time,catchnumberprac,catchtrialorderprac,mouse_6.clicked_name,key_resp_22.keys,key_resp_22.rt,realcomparison,mouse.x,mouse.y,mouse.leftButton,mouse.midButton,mouse.rightButton,mouse.clicked_name,Colour2,similarity,mouse_2.x,mouse_2.y,mouse_2.leftButton,mouse_2.midButton,mouse_2.rightButton,mouse_2.clicked_name,mouse_3.x,mouse_3.y,mouse_3.leftButton,mouse_3.midButton,mouse_3.rightButton,mouse_11.x,mouse_11.y,mouse_11.leftButton,mouse_11.midButton,mouse_11.rightButton,trials_2.thisRepN,trials_2.thisTrialN,trials_2.thisN,trials_2.thisIndex,trials_2.ran,Colour1,mouse_3.clicked_name,catchornah,catchsimilarity,catchnumber,catchtrialorder,catchRT,mouse_11.clicked_name
space,1.545,space,4.55,space,17.046,space,0.533,space,1.879,space,2.376,61,FF,107.5,-32.5,1,0,0,response3disk_5,5,11.181,10.5,4.5,1,0,0,rectangle_8,10.5,4.5,1,0,0,10.5,4.5,1,0,0,0,0,0,0,1,60ff0b32bdb402e4252bf6b5,610377ad93523e7a465e5306,2021-07-29_23h55.29.606,Simcolourproject_2stim_asymm_v5,2020.2.10,Win32,60,61025ae37ef11b136ea224fe,,,,,,,,,,,,,,,,,,,,,,,,,,,,,,,,,,,,,,,,,,,,,,
,,,,,,,,,,,,12,PF,-45.5,-72.5,1,0,0,response5disk_5,3,2.079,9.5,-14.5,1,0,0,rectangle_8,55.5,123.5,1,0,0,-16.5,-2.5,1,0,0,0,1,1,1,1,60ff0b32bdb402e4252bf6b5,610377ad93523e7a465e5306,2021-07-29_23h55.29.606,Simcolourproject_2stim_asymm_v5,2020.2.10,Win32,60,61025ae37ef11b136ea224fe,response1disk_7,7,2.684,7,"[2,5]",rectangle_4,,,,,,,,,,,,,,,,,,,,,,,,,,,,,,,,,,,,,,,,
,,,,,,,,,,,,26,PF,30.5,-103.5,1,0,0,response3disk_5,4,3.732,0.5,14.5,1,0,0,rectangle_8,0.5,14.5,1,0,0,0.5,14.5,1,0,0,0,2,2,4,1,60ff0b32bdb402e4252bf6b5,610377ad93523e7a465e5306,2021-07-29_23h55.29.606,Simcolourproject_2stim_asymm_v5,2020.2.10,Win32,60,61025ae37ef11b136ea224fe,,,,,,,,,,,,,,,,,,,,,,,,,,,,,,,,,,,,,,,,,,,,,,
,,,,,,,,,,,,32,FF,44.5,-70.5,1,0,0,response3disk_5,4,0.558,11.5,5.5,1,0,0,rectangle_8,11.5,5.5,1,0,0,11.5,5.5,1,0,0,0,3,3,3,1,60ff0b32bdb402e4252bf6b5,610377ad93523e7a465e5306,2021-07-29_23h55.29.606,Simcolourproject_2stim_asymm_v5,2020.2.10,Win32,60,61025ae37ef11b136ea224fe,,,,,,,,,,,,,,,,,,,,,,,,,,,,,,,,,,,,,,,,,,,,,,
,,,,,,,,,,,,70,PF,-39.5,-80.5,1,0,0,response5disk_5,3,0.964,10.5,3.5,1,0,0,rectangle_8,51.5,101.5,1,0,0,-14.5,-3.5,1,0,0,0,4,4,6,1,60ff0b32bdb402e4252bf6b5,610377ad93523e7a465e5306,2021-07-29_23h55.29.606,Simcolourproject_2stim_asymm_v5,2020.2.10,Win32,60,61025ae37ef11b136ea224fe,response1disk_7,7,2.478,7,"[2,5]",rectangle_4,,,,,,,,,,,,,,,,,,,,,,,,,,,,,,,,,,,,,,,,
,,,,,,,,,,,,118,PF,38.5,-57.5,1,0,0,response3disk_5,4,4.175,16.5,-4.5,1,0,0,rectangle_8,16.5,-4.5,1,0,0,16.5,-4.5,1,0,0,0,5,5,2,1,60ff0b32bdb402e4252bf6b5,610377ad93523e7a465e5306,2021-07-29_23h55.29.606,Simcolourproject_2stim_asymm_v5,2020.2.10,Win32,60,61025ae37ef11b136ea224fe,,,,,,,,,,,,,,,,,,,,,,,,,,,,,,,,,,,,,,,,,,,,,,
,,,,,,,,,,,,136,FF,58.5,-36.5,1,0,0,response3disk_5,5,1.466,12.5,10.5,1,0,0,rectangle_8,12.5,10.5,1,0,0,12.5,10.5,1,0,0,0,6,6,5,1,60ff0b32bdb402e4252bf6b5,610377ad93523e7a465e5306,2021-07-29_23h55.29.606,Simcolourproject_2stim_asymm_v5,2020.2.10,Win32,60,61025ae37ef11b136ea224fe,,,,,,,,,,,,,,,,,,,,,,,,,,,,,,,,,,,,,,,,,,,,,,
,,,,,,,,,,,,,FF,,,,,,,,0.92,,,,,,,,,,,,,,,,,,,,,,60ff0b32bdb402e4252bf6b5,610377ad93523e7a465e5306,2021-07-29_23h55.29.606,Simcolourproject_2stim_asymm_v5,2020.2.10,Win32,60,61025ae37ef11b136ea224fe,,,,,,,space,2.308,749,40.5,-60.5,1,0,0,response3disk,,4,2.5,-7.5,1,0,0,rectangle,2.5,-7.5,1,0,0,2.5,-7.5,1,0,0,0,0,0,74,1,,,,,,,,
,,,,,,,,,,,,,FF,,,,,,,,0.74,,,,,,,,,,,,,,,,,,,,,,60ff0b32bdb402e4252bf6b5,610377ad93523e7a465e5306,2021-07-29_23h55.29.606,Simcolourproject_2stim_asymm_v5,2020.2.10,Win32,60,61025ae37ef11b136ea224fe,,,,,,,,,4139,64.5,-36.5,1,0,0,response3disk,,5,19.5,15.5,1,0,0,rectangle,19.5,15.5,1,0,0,19.5,15.5,1,0,0,0,1,1,118,1,,,,,,,,
,,,,,,,,,,,,,FF,,,,,,,,0.617,,,,,,,,,,,,,,,,,,,,,,60ff0b32bdb402e4252bf6b5,610377ad93523e7a465e5306,2021-07-29_23h55.29.606,Simcolourproject_2stim_asymm_v5,2020.2.10,Win32,60,61025ae37ef11b136ea224fe,,,,,,,,,70,-42.5,-86.5,1,0,0,response5disk,,3,-1.5,13.5,1,0,0,rectangle,-1.5,13.5,1,0,0,-1.5,13.5,1,0,0,0,2,2,68,1,,,,,,,,
,,,,,,,,,,,,,FF,,,,,,,,1.373,,,,,,,,,,,,,,,,,,,,,,60ff0b32bdb402e4252bf6b5,610377ad93523e7a465e5306,2021-07-29_23h55.29.606,Simcolourproject_2stim_asymm_v5,2020.2.10,Win32,60,61025ae37ef11b136ea224fe,,,,,,,,,2245,36.5,-65.5,1,0,0,response3disk,,4,-28.5,10.5,1,0,0,rectangle,-28.5,10.5,1,0,0,-28.5,10.5,1,0,0,0,3,3,1,1,,,,,,,,
,,,,,,,,,,,,,FF,,,,,,,,0.994,,,,,,,,,,,,,,,,,,,,,,60ff0b32bdb402e4252bf6b5,610377ad93523e7a465e5306,2021-07-29_23h55.29.606,Simcolourproject_2stim_asymm_v5,2020.2.10,Win32,60,61025ae37ef11b136ea224fe,,,,,,,,,2874,34.5,-81.5,1,0,0,response3disk,,4,4.5,-7.5,1,0,0,rectangle,4.5,-7.5,1,0,0,4.5,-7.5,1,0,0,0,4,4,154,1,,,,,,,,
,,,,,,,,,,,,,FF,,,,,,,,1.212,,,,,,,,,,,,,,,,,,,,,,60ff0b32bdb402e4252bf6b5,610377ad93523e7a465e5306,2021-07-29_23h55.29.606,Simcolourproject_2stim_asymm_v5,2020.2.10,Win32,60,61025ae37ef11b136ea224fe,,,,,,,,,1642,84.5,-61.5,1,0,0,response3disk,,5,0.5,5.5,1,0,0,rectangle,0.5,5.5,1,0,0,0.5,5.5,1,0,0,0,5,5,73,1,,,,,,,,
,,,,,,,,,,,,,FF,,,,,,,,0.94,,,,,,,,,,,,,,,,,,,,,,60ff0b32bdb402e4252bf6b5,610377ad93523e7a465e5306,2021-07-29_23h55.29.606,Simcolourproject_2stim_asymm_v5,2020.2.10,Win32,60,61025ae37ef11b136ea224fe,,,,,,,,,239,97.5,-55.5,1,0,0,response3disk,,5,-13.5,7.5,1,0,0,rectangle,-13.5,7.5,1,0,0,-13.5,7.5,1,0,0,0,6,6,112,1,,,,,,,,
,,,,,,,,,,,,,FF,,,,,,,,1.157,,,,,,,,,,,,,,,,,,,,,,60ff0b32bdb402e4252bf6b5,610377ad93523e7a465e5306,2021-07-29_23h55.29.606,Simcolourproject_2stim_asymm_v5,2020.2.10,Win32,60,61025ae37ef11b136ea224fe,,,,,,,,,2424,-77.5,-48.5,1,0,0,response5disk,,2,-20.5,2.5,1,0,0,rectangle,-45.5,-66.5,1,0,0,4.5,7.5,1,0,0,0,7,7,129,1,,response5disk_3,TRUE,3,1,"[217,272,147,142,20,106,267,216,213,144,119,307,8,181,231,70,102,14,323,24]",0.836,rectangle
,,,,,,,,,,,,,FF,,,,,,,,1.182,,,,,,,,,,,,,,,,,,,,,,60ff0b32bdb402e4252bf6b5,610377ad93523e7a465e5306,2021-07-29_23h55.29.606,Simcolourproject_2stim_asymm_v5,2020.2.10,Win32,60,61025ae37ef11b136ea224fe,,,,,,,,,2469,63.5,46.5,1,0,0,response1disk,,6,-17.5,0.5,1,0,0,rectangle,-17.5,0.5,1,0,0,-17.5,0.5,1,0,0,0,8,8,88,1,,,,,,,,
,,,,,,,,,,,,,FF,,,,,,,,0.921,,,,,,,,,,,,,,,,,,,,,,60ff0b32bdb402e4252bf6b5,610377ad93523e7a465e5306,2021-07-29_23h55.29.606,Simcolourproject_2stim_asymm_v5,2020.2.10,Win32,60,61025ae37ef11b136ea224fe,,,,,,,,,1136,-67.5,-64.5,1,0,0,response5disk,,2,14.5,9.5,1,0,0,rectangle,14.5,9.5,1,0,0,14.5,9.5,1,0,0,0,9,9,105,1,,,,,,,,
,,,,,,,,,,,,,FF,,,,,,,,0.575,,,,,,,,,,,,,,,,,,,,,,60ff0b32bdb402e4252bf6b5,610377ad93523e7a465e5306,2021-07-29_23h55.29.606,Simcolourproject_2stim_asymm_v5,2020.2.10,Win32,60,61025ae37ef11b136ea224fe,,,,,,,,,155,24.5,-60.5,1,0,0,response3disk,,4,20.5,-16.5,1,0,0,rectangle,20.5,-16.5,1,0,0,20.5,-16.5,1,0,0,0,10,10,36,1,,,,,,,,
,,,,,,,,,,,,,FF,,,,,,,,0.532,,,,,,,,,,,,,,,,,,,,,,60ff0b32bdb402e4252bf6b5,610377ad93523e7a465e5306,2021-07-29_23h55.29.606,Simcolourproject_2stim_asymm_v5,2020.2.10,Win32,60,61025ae37ef11b136ea224fe,,,,,,,,,2599,-20.5,-73.5,1,0,0,response5disk,,3,21.5,1.5,1,0,0,rectangle,21.5,1.5,1,0,0,21.5,1.5,1,0,0,0,11,11,91,1,,,,,,,,
,,,,,,,,,,,,,FF,,,,,,,,0.491,,,,,,,,,,,,,,,,,,,,,,60ff0b32bdb402e4252bf6b5,610377ad93523e7a465e5306,2021-07-29_23h55.29.606,Simcolourproject_2stim_asymm_v5,2020.2.10,Win32,60,61025ae37ef11b136ea224fe,,,,,,,,,525,37.5,-81.5,1,0,0,response3disk,,4,7.5,-8.5,1,0,0,rectangle,7.5,-8.5,1,0,0,7.5,-8.5,1,0,0,0,12,12,52,1,,,,,,,,
,,,,,,,,,,,,,FF,,,,,,,,0.37,,,,,,,,,,,,,,,,,,,,,,60ff0b32bdb402e4252bf6b5,610377ad93523e7a465e5306,2021-07-29_23h55.29.606,Simcolourproject_2stim_asymm_v5,2020.2.10,Win32,60,61025ae37ef11b136ea224fe,,,,,,,,,1571,35.5,-80.5,1,0,0,response3disk,,4,-5.5,7.5,1,0,0,rectangle,47.5,71.5,1,0,0,18.5,-15.5,1,0,0,0,13,13,135,1,,response1disk_3,TRUE,7,7,"[217,272,147,142,20,106,267,216,213,144,119,307,8,181,231,70,102,14,323,24]",1.134,rectangle
,,,,,,,,,,,,,FF,,,,,,,,0.514,,,,,,,,,,,,,,,,,,,,,,60ff0b32bdb402e4252bf6b5,610377ad93523e7a465e5306,2021-07-29_23h55.29.606,Simcolourproject_2stim_asymm_v5,2020.2.10,Win32,60,61025ae37ef11b136ea224fe,,,,,,,,,1446,-32.5,-56.5,1,0,0,response5disk,,3,2.5,-2.5,1,0,0,rectangle,2.5,-2.5,1,0,0,2.5,-2.5,1,0,0,0,14,14,47,1,,,,,,,,
,,,,,,,,,,,,,FF,,,,,,,,1.405,,,,,,,,,,,,,,,,,,,,,,60ff0b32bdb402e4252bf6b5,610377ad93523e7a465e5306,2021-07-29_23h55.29.606,Simcolourproject_2stim_asymm_v5,2020.2.10,Win32,60,61025ae37ef11b136ea224fe,,,,,,,,,454,-53.5,-90.5,1,0,0,response5disk,,3,-24.5,0.5,1,0,0,rectangle,-24.5,0.5,1,0,0,-24.5,0.5,1,0,0,0,15,15,2,1,,,,,,,,
,,,,,,,,,,,,,FF,,,,,,,,0.611,,,,,,,,,,,,,,,,,,,,,,60ff0b32bdb402e4252bf6b5,610377ad93523e7a465e5306,2021-07-29_23h55.29.606,Simcolourproject_2stim_asymm_v5,2020.2.10,Win32,60,61025ae37ef11b136ea224fe,,,,,,,,,2813,25.5,-88.5,1,0,0,response3disk,,4,6.5,-5.5,1,0,0,rectangle,6.5,-5.5,1,0,0,6.5,-5.5,1,0,0,0,16,16,107,1,,,,,,,,
,,,,,,,,,,,,,FF,,,,,,,,0.575,,,,,,,,,,,,,,,,,,,,,,60ff0b32bdb402e4252bf6b5,610377ad93523e7a465e5306,2021-07-29_23h55.29.606,Simcolourproject_2stim_asymm_v5,2020.2.10,Win32,60,61025ae37ef11b136ea224fe,,,,,,,,,1992,-37.5,-68.5,1,0,0,response5disk,,3,-9.5,1.5,1,0,0,rectangle,-9.5,1.5,1,0,0,-9.5,1.5,1,0,0,0,17,17,106,1,,,,,,,,
,,,,,,,,,,,,,FF,,,,,,,,0.945,,,,,,,,,,,,,,,,,,,,,,60ff0b32bdb402e4252bf6b5,610377ad93523e7a465e5306,2021-07-29_23h55.29.606,Simcolourproject_2stim_asymm_v5,2020.2.10,Win32,60,61025ae37ef11b136ea224fe,,,,,,,,,4207,-87.5,-40.5,1,0,0,response5disk,,2,-42.5,13.5,1,0,0,rectangle,-42.5,13.5,1,0,0,-42.5,13.5,1,0,0,0,18,18,7,1,,,,,,,,
,,,,,,,,,,,,,FF,,,,,,,,1.254,,,,,,,,,,,,,,,,,,,,,,60ff0b32bdb402e4252bf6b5,610377ad93523e7a465e5306,2021-07-29_23h55.29.606,Simcolourproject_2stim_asymm_v5,2020.2.10,Win32,60,61025ae37ef11b136ea224fe,,,,,,,,,1885,-36.5,-93.5,1,0,0,response5disk,,3,-5.5,-17.5,1,0,0,rectangle,41.5,81.5,1,0,0,2.5,-11.5,1,0,0,0,19,19,40,1,,response1disk_3,TRUE,7,5,"[217,272,147,142,20,106,267,216,213,144,119,307,8,181,231,70,102,14,323,24]",1.158,rectangle
,,,,,,,,,,,,,FF,,,,,,,,1.128,,,,,,,,,,,,,,,,,,,,,,60ff0b32bdb402e4252bf6b5,610377ad93523e7a465e5306,2021-07-29_23h55.29.606,Simcolourproject_2stim_asymm_v5,2020.2.10,Win32,60,61025ae37ef11b136ea224fe,,,,,,,,,1895,98.5,64.5,1,0,0,response1disk,,6,20.5,-16.5,1,0,0,rectangle,20.5,-16.5,1,0,0,20.5,-16.5,1,0,0,0,20,20,12,1,,,,,,,,
,,,,,,,,,,,,,FF,,,,,,,,1.217,,,,,,,,,,,,,,,,,,,,,,60ff0b32bdb402e4252bf6b5,610377ad93523e7a465e5306,2021-07-29_23h55.29.606,Simcolourproject_2stim_asymm_v5,2020.2.10,Win32,60,61025ae37ef11b136ea224fe,,,,,,,,,0,96.5,47.5,1,0,0,response1disk,,6,6.5,-3.5,1,0,0,rectangle,6.5,-3.5,1,0,0,6.5,-3.5,1,0,0,0,21,21,19,1,,,,,,,,
,,,,,,,,,,,,,FF,,,,,,,,0.697,,,,,,,,,,,,,,,,,,,,,,60ff0b32bdb402e4252bf6b5,610377ad93523e7a465e5306,2021-07-29_23h55.29.606,Simcolourproject_2stim_asymm_v5,2020.2.10,Win32,60,61025ae37ef11b136ea224fe,,,,,,,,,2340,26.5,-69.5,1,0,0,response3disk,,4,-27.5,7.5,1,0,0,rectangle,-27.5,7.5,1,0,0,-27.5,7.5,1,0,0,0,22,22,121,1,,,,,,,,
,,,,,,,,,,,,,FF,,,,,,,,1.151,,,,,,,,,,,,,,,,,,,,,,60ff0b32bdb402e4252bf6b5,610377ad93523e7a465e5306,2021-07-29_23h55.29.606,Simcolourproject_2stim_asymm_v5,2020.2.10,Win32,60,61025ae37ef11b136ea224fe,,,,,,,,,3987,-62.5,-69.5,1,0,0,response5disk,,3,-23.5,-7.5,1,0,0,rectangle,-97.5,30.5,1,0,0,-21.5,15.5,1,0,0,0,23,23,29,1,,response7disk_3,TRUE,1,1,"[217,272,147,142,20,106,267,216,213,144,119,307,8,181,231,70,102,14,323,24]",2.63,rectangle
,,,,,,,,,,,,,FF,,,,,,,,5.915,,,,,,,,,,,,,,,,,,,,,,60ff0b32bdb402e4252bf6b5,610377ad93523e7a465e5306,2021-07-29_23h55.29.606,Simcolourproject_2stim_asymm_v5,2020.2.10,Win32,60,61025ae37ef11b136ea224fe,,,,,,,,,1514,-26.5,-118.5,1,0,0,response5disk,,3,-17.5,-16.5,1,0,0,rectangle,-17.5,-16.5,1,0,0,-17.5,-16.5,1,0,0,0,24,24,156,1,,,,,,,,
,,,,,,,,,,,,,FF,,,,,,,,1.805,,,,,,,,,,,,,,,,,,,,,,60ff0b32bdb402e4252bf6b5,610377ad93523e7a465e5306,2021-07-29_23h55.29.606,Simcolourproject_2stim_asymm_v5,2020.2.10,Win32,60,61025ae37ef11b136ea224fe,,,,,,,,,1667,-92.5,-63.5,1,0,0,response5disk,,2,-31.5,-1.5,1,0,0,rectangle,-31.5,-1.5,1,0,0,-31.5,-1.5,1,0,0,0,25,25,11,1,,,,,,,,
,,,,,,,,,,,,,FF,,,,,,,,1.012,,,,,,,,,,,,,,,,,,,,,,60ff0b32bdb402e4252bf6b5,610377ad93523e7a465e5306,2021-07-29_23h55.29.606,Simcolourproject_2stim_asymm_v5,2020.2.10,Win32,60,61025ae37ef11b136ea224fe,,,,,,,,,1930,23.5,-61.5,1,0,0,response3disk,,4,10.5,-20.5,1,0,0,rectangle,10.5,-20.5,1,0,0,10.5,-20.5,1,0,0,0,26,26,108,1,,,,,,,,
,,,,,,,,,,,,,FF,,,,,,,,1.066,,,,,,,,,,,,,,,,,,,,,,60ff0b32bdb402e4252bf6b5,610377ad93523e7a465e5306,2021-07-29_23h55.29.606,Simcolourproject_2stim_asymm_v5,2020.2.10,Win32,60,61025ae37ef11b136ea224fe,,,,,,,,,3127,128.5,-54.5,1,0,0,response3disk,,5,29.5,-2.5,1,0,0,rectangle,29.5,-2.5,1,0,0,29.5,-2.5,1,0,0,0,27,27,96,1,,,,,,,,
,,,,,,,,,,,,,FF,,,,,,,,0.752,,,,,,,,,,,,,,,,,,,,,,60ff0b32bdb402e4252bf6b5,610377ad93523e7a465e5306,2021-07-29_23h55.29.606,Simcolourproject_2stim_asymm_v5,2020.2.10,Win32,60,61025ae37ef11b136ea224fe,,,,,,,,,156,83.5,32.5,1,0,0,response1disk,,6,-3.5,-0.5,1,0,0,rectangle,-3.5,-0.5,1,0,0,-3.5,-0.5,1,0,0,0,28,28,5,1,,,,,,,,
,,,,,,,,,,,,,FF,,,,,,,,0.57,,,,,,,,,,,,,,,,,,,,,,60ff0b32bdb402e4252bf6b5,610377ad93523e7a465e5306,2021-07-29_23h55.29.606,Simcolourproject_2stim_asymm_v5,2020.2.10,Win32,60,61025ae37ef11b136ea224fe,,,,,,,,,1449,-59.5,-89.5,1,0,0,response5disk,,3,-13.5,11.5,1,0,0,rectangle,-13.5,11.5,1,0,0,-13.5,11.5,1,0,0,0,29,29,137,1,,,,,,,,
,,,,,,,,,,,,,FF,,,,,,,,0.685,,,,,,,,,,,,,,,,,,,,,,60ff0b32bdb402e4252bf6b5,610377ad93523e7a465e5306,2021-07-29_23h55.29.606,Simcolourproject_2stim_asymm_v5,2020.2.10,Win32,60,61025ae37ef11b136ea224fe,,,,,,,,,328,54.5,-68.5,1,0,0,response3disk,,4,13.5,15.5,1,0,0,rectangle,13.5,15.5,1,0,0,13.5,15.5,1,0,0,0,30,30,14,1,,,,,,,,
,,,,,,,,,,,,,FF,,,,,,,,0.782,,,,,,,,,,,,,,,,,,,,,,60ff0b32bdb402e4252bf6b5,610377ad93523e7a465e5306,2021-07-29_23h55.29.606,Simcolourproject_2stim_asymm_v5,2020.2.10,Win32,60,61025ae37ef11b136ea224fe,,,,,,,,,3,-34.5,-74.5,1,0,0,response5disk,,3,-13.5,1.5,1,0,0,rectangle,-13.5,1.5,1,0,0,-13.5,1.5,1,0,0,0,31,31,21,1,,,,,,,,
,,,,,,,,,,,,,FF,,,,,,,,0.4,,,,,,,,,,,,,,,,,,,,,,60ff0b32bdb402e4252bf6b5,610377ad93523e7a465e5306,2021-07-29_23h55.29.606,Simcolourproject_2stim_asymm_v5,2020.2.10,Win32,60,61025ae37ef11b136ea224fe,,,,,,,,,253,-75.5,-91.5,1,0,0,response5disk,,3,-18.5,-10.5,1,0,0,rectangle,-18.5,-10.5,1,0,0,-18.5,-10.5,1,0,0,0,32,32,6,1,,,,,,,,
,,,,,,,,,,,,,FF,,,,,,,,1.515,,,,,,,,,,,,,,,,,,,,,,60ff0b32bdb402e4252bf6b5,610377ad93523e7a465e5306,2021-07-29_23h55.29.606,Simcolourproject_2stim_asymm_v5,2020.2.10,Win32,60,61025ae37ef11b136ea224fe,,,,,,,,,3341,-92.5,-76.5,1,0,0,response5disk,,2,-6.5,-10.5,1,0,0,rectangle,-6.5,-10.5,1,0,0,-6.5,-10.5,1,0,0,0,33,33,13,1,,,,,,,,
,,,,,,,,,,,,,FF,,,,,,,,0.546,,,,,,,,,,,,,,,,,,,,,,60ff0b32bdb402e4252bf6b5,610377ad93523e7a465e5306,2021-07-29_23h55.29.606,Simcolourproject_2stim_asymm_v5,2020.2.10,Win32,60,61025ae37ef11b136ea224fe,,,,,,,,,3844,-35.5,-92.5,1,0,0,response5disk,,3,-5.5,-8.5,1,0,0,rectangle,-5.5,-8.5,1,0,0,-5.5,-8.5,1,0,0,0,34,34,58,1,,,,,,,,
,,,,,,,,,,,,,FF,,,,,,,,0.497,,,,,,,,,,,,,,,,,,,,,,60ff0b32bdb402e4252bf6b5,610377ad93523e7a465e5306,2021-07-29_23h55.29.606,Simcolourproject_2stim_asymm_v5,2020.2.10,Win32,60,61025ae37ef11b136ea224fe,,,,,,,,,2466,33.5,-98.5,1,0,0,response3disk,,4,4.5,-9.5,1,0,0,rectangle,4.5,-9.5,1,0,0,4.5,-9.5,1,0,0,0,35,35,114,1,,,,,,,,
,,,,,,,,,,,,,FF,,,,,,,,0.539,,,,,,,,,,,,,,,,,,,,,,60ff0b32bdb402e4252bf6b5,610377ad93523e7a465e5306,2021-07-29_23h55.29.606,Simcolourproject_2stim_asymm_v5,2020.2.10,Win32,60,61025ae37ef11b136ea224fe,,,,,,,,,2797,76.5,-33.5,1,0,0,response3disk,,5,-1.5,15.5,1,0,0,rectangle,-1.5,15.5,1,0,0,-1.5,15.5,1,0,0,0,36,36,66,1,,,,,,,,
,,,,,,,,,,,,,FF,,,,,,,,0.418,,,,,,,,,,,,,,,,,,,,,,60ff0b32bdb402e4252bf6b5,610377ad93523e7a465e5306,2021-07-29_23h55.29.606,Simcolourproject_2stim_asymm_v5,2020.2.10,Win32,60,61025ae37ef11b136ea224fe,,,,,,,,,599,-63.5,-39.5,1,0,0,response5disk,,2,-34.5,3.5,1,0,0,rectangle,-34.5,3.5,1,0,0,-34.5,3.5,1,0,0,0,37,37,54,1,,,,,,,,
,,,,,,,,,,,,,FF,,,,,,,,0.74,,,,,,,,,,,,,,,,,,,,,,60ff0b32bdb402e4252bf6b5,610377ad93523e7a465e5306,2021-07-29_23h55.29.606,Simcolourproject_2stim_asymm_v5,2020.2.10,Win32,60,61025ae37ef11b136ea224fe,,,,,,,,,1727,46.5,-34.5,1,0,0,response3disk,,5,2.5,-6.5,1,0,0,rectangle,2.5,-6.5,1,0,0,2.5,-6.5,1,0,0,0,38,38,95,1,,,,,,,,
,,,,,,,,,,,,,FF,,,,,,,,0.522,,,,,,,,,,,,,,,,,,,,,,60ff0b32bdb402e4252bf6b5,610377ad93523e7a465e5306,2021-07-29_23h55.29.606,Simcolourproject_2stim_asymm_v5,2020.2.10,Win32,60,61025ae37ef11b136ea224fe,,,,,,,,,1844,-33.5,-64.5,1,0,0,response5disk,,3,-5.5,11.5,1,0,0,rectangle,-5.5,11.5,1,0,0,-5.5,11.5,1,0,0,0,39,39,41,1,,,,,,,,
,,,,,,,,,,,,,FF,,,,,,,,0.637,,,,,,,,,,,,,,,,,,,,,,60ff0b32bdb402e4252bf6b5,610377ad93523e7a465e5306,2021-07-29_23h55.29.606,Simcolourproject_2stim_asymm_v5,2020.2.10,Win32,60,61025ae37ef11b136ea224fe,,,,,,,,,1206,-32.5,-68.5,1,0,0,response5disk,,3,12.5,-3.5,1,0,0,rectangle,12.5,-3.5,1,0,0,12.5,-3.5,1,0,0,0,40,40,150,1,,,,,,,,
,,,,,,,,,,,,,FF,,,,,,,,0.861,,,,,,,,,,,,,,,,,,,,,,60ff0b32bdb402e4252bf6b5,610377ad93523e7a465e5306,2021-07-29_23h55.29.606,Simcolourproject_2stim_asymm_v5,2020.2.10,Win32,60,61025ae37ef11b136ea224fe,,,,,,,,,2058,66.5,-82.5,1,0,0,response3disk,,4,12.5,-10.5,1,0,0,rectangle,12.5,-10.5,1,0,0,12.5,-10.5,1,0,0,0,41,41,56,1,,,,,,,,
,,,,,,,,,,,,,FF,,,,,,,,3.37,,,,,,,,,,,,,,,,,,,,,,60ff0b32bdb402e4252bf6b5,610377ad93523e7a465e5306,2021-07-29_23h55.29.606,Simcolourproject_2stim_asymm_v5,2020.2.10,Win32,60,61025ae37ef11b136ea224fe,,,,,,,,,254,-73.5,-28.5,1,0,0,response5disk,,2,-9.5,-9.5,1,0,0,rectangle,-9.5,-9.5,1,0,0,-9.5,-9.5,1,0,0,0,42,42,18,1,,,,,,,,
,,,,,,,,,,,,,FF,,,,,,,,0.862,,,,,,,,,,,,,,,,,,,,,,60ff0b32bdb402e4252bf6b5,610377ad93523e7a465e5306,2021-07-29_23h55.29.606,Simcolourproject_2stim_asymm_v5,2020.2.10,Win32,60,61025ae37ef11b136ea224fe,,,,,,,,,134,-47.5,-64.5,1,0,0,response5disk,,3,-0.5,-5.5,1,0,0,rectangle,-0.5,-5.5,1,0,0,-0.5,-5.5,1,0,0,0,43,43,151,1,,,,,,,,
,,,,,,,,,,,,,FF,,,,,,,,0.569,,,,,,,,,,,,,,,,,,,,,,60ff0b32bdb402e4252bf6b5,610377ad93523e7a465e5306,2021-07-29_23h55.29.606,Simcolourproject_2stim_asymm_v5,2020.2.10,Win32,60,61025ae37ef11b136ea224fe,,,,,,,,,624,42.5,-58.5,1,0,0,response3disk,,4,-10.5,-10.5,1,0,0,rectangle,-10.5,-10.5,1,0,0,-10.5,-10.5,1,0,0,0,44,44,62,1,,,,,,,,
,,,,,,,,,,,,,FF,,,,,,,,0.8,,,,,,,,,,,,,,,,,,,,,,60ff0b32bdb402e4252bf6b5,610377ad93523e7a465e5306,2021-07-29_23h55.29.606,Simcolourproject_2stim_asymm_v5,2020.2.10,Win32,60,61025ae37ef11b136ea224fe,,,,,,,,,1735,-90.5,-53.5,1,0,0,response5disk,,2,-12.5,-11.5,1,0,0,rectangle,-12.5,-11.5,1,0,0,-12.5,-11.5,1,0,0,0,45,45,44,1,,,,,,,,
,,,,,,,,,,,,,FF,,,,,,,,0.685,,,,,,,,,,,,,,,,,,,,,,60ff0b32bdb402e4252bf6b5,610377ad93523e7a465e5306,2021-07-29_23h55.29.606,Simcolourproject_2stim_asymm_v5,2020.2.10,Win32,60,61025ae37ef11b136ea224fe,,,,,,,,,4280,-70.5,36.5,1,0,0,response7disk,,1,-31.5,-4.5,1,0,0,rectangle,-31.5,-4.5,1,0,0,-31.5,-4.5,1,0,0,0,46,46,43,1,,,,,,,,
,,,,,,,,,,,,,FF,,,,,,,,0.539,,,,,,,,,,,,,,,,,,,,,,60ff0b32bdb402e4252bf6b5,610377ad93523e7a465e5306,2021-07-29_23h55.29.606,Simcolourproject_2stim_asymm_v5,2020.2.10,Win32,60,61025ae37ef11b136ea224fe,,,,,,,,,4263,-44.5,-98.5,1,0,0,response5disk,,3,-12.5,-16.5,1,0,0,rectangle,-12.5,-16.5,1,0,0,-12.5,-16.5,1,0,0,0,47,47,59,1,,,,,,,,
,,,,,,,,,,,,,FF,,,,,,,,1.509,,,,,,,,,,,,,,,,,,,,,,60ff0b32bdb402e4252bf6b5,610377ad93523e7a465e5306,2021-07-29_23h55.29.606,Simcolourproject_2stim_asymm_v5,2020.2.10,Win32,60,61025ae37ef11b136ea224fe,,,,,,,,,589,53.5,-111.5,1,0,0,response3disk,,4,5.5,-18.5,1,0,0,rectangle,5.5,-18.5,1,0,0,5.5,-18.5,1,0,0,0,48,48,132,1,,,,,,,,
,,,,,,,,,,,,,FF,,,,,,,,0.886,,,,,,,,,,,,,,,,,,,,,,60ff0b32bdb402e4252bf6b5,610377ad93523e7a465e5306,2021-07-29_23h55.29.606,Simcolourproject_2stim_asymm_v5,2020.2.10,Win32,60,61025ae37ef11b136ea224fe,,,,,,,,,3635,76.5,-46.5,1,0,0,response3disk,,5,-15.5,1.5,1,0,0,rectangle,-15.5,1.5,1,0,0,-15.5,1.5,1,0,0,0,49,49,122,1,,,,,,,,
,,,,,,,,,,,,,FF,,,,,,,,0.582,,,,,,,,,,,,,,,,,,,,,,60ff0b32bdb402e4252bf6b5,610377ad93523e7a465e5306,2021-07-29_23h55.29.606,Simcolourproject_2stim_asymm_v5,2020.2.10,Win32,60,61025ae37ef11b136ea224fe,,,,,,,,,2900,-77.5,-50.5,1,0,0,response5disk,,2,25.5,-0.5,1,0,0,rectangle,25.5,-0.5,1,0,0,25.5,-0.5,1,0,0,0,50,50,86,1,,,,,,,,
,,,,,,,,,,,,,FF,,,,,,,,1.145,,,,,,,,,,,,,,,,,,,,,,60ff0b32bdb402e4252bf6b5,610377ad93523e7a465e5306,2021-07-29_23h55.29.606,Simcolourproject_2stim_asymm_v5,2020.2.10,Win32,60,61025ae37ef11b136ea224fe,,,,,,,,,196,-31.5,-90.5,1,0,0,response5disk,,3,-2.5,-10.5,1,0,0,rectangle,-2.5,-10.5,1,0,0,-2.5,-10.5,1,0,0,0,51,51,8,1,,,,,,,,
,,,,,,,,,,,,,FF,,,,,,,,0.94,,,,,,,,,,,,,,,,,,,,,,60ff0b32bdb402e4252bf6b5,610377ad93523e7a465e5306,2021-07-29_23h55.29.606,Simcolourproject_2stim_asymm_v5,2020.2.10,Win32,60,61025ae37ef11b136ea224fe,,,,,,,,,3175,-26.5,-97.5,1,0,0,response5disk,,3,4.5,-4.5,1,0,0,rectangle,4.5,-4.5,1,0,0,4.5,-4.5,1,0,0,0,52,52,70,1,,,,,,,,
,,,,,,,,,,,,,FF,,,,,,,,1.152,,,,,,,,,,,,,,,,,,,,,,60ff0b32bdb402e4252bf6b5,610377ad93523e7a465e5306,2021-07-29_23h55.29.606,Simcolourproject_2stim_asymm_v5,2020.2.10,Win32,60,61025ae37ef11b136ea224fe,,,,,,,,,3716,-74.5,-40.5,1,0,0,response5disk,,2,-13.5,-3.5,1,0,0,rectangle,-13.5,-3.5,1,0,0,-13.5,-3.5,1,0,0,0,53,53,147,1,,,,,,,,
,,,,,,,,,,,,,FF,,,,,,,,0.964,,,,,,,,,,,,,,,,,,,,,,60ff0b32bdb402e4252bf6b5,610377ad93523e7a465e5306,2021-07-29_23h55.29.606,Simcolourproject_2stim_asymm_v5,2020.2.10,Win32,60,61025ae37ef11b136ea224fe,,,,,,,,,2933,28.5,-104.5,1,0,0,response3disk,,4,4.5,-16.5,1,0,0,rectangle,4.5,-16.5,1,0,0,4.5,-16.5,1,0,0,0,54,54,141,1,,,,,,,,
,,,,,,,,,,,,,FF,,,,,,,,0.424,,,,,,,,,,,,,,,,,,,,,,60ff0b32bdb402e4252bf6b5,610377ad93523e7a465e5306,2021-07-29_23h55.29.606,Simcolourproject_2stim_asymm_v5,2020.2.10,Win32,60,61025ae37ef11b136ea224fe,,,,,,,,,1351,-26.5,-84.5,1,0,0,response5disk,,3,3.5,4.5,1,0,0,rectangle,3.5,4.5,1,0,0,3.5,4.5,1,0,0,0,55,55,103,1,,,,,,,,
,,,,,,,,,,,,,FF,,,,,,,,1.06,,,,,,,,,,,,,,,,,,,,,,60ff0b32bdb402e4252bf6b5,610377ad93523e7a465e5306,2021-07-29_23h55.29.606,Simcolourproject_2stim_asymm_v5,2020.2.10,Win32,60,61025ae37ef11b136ea224fe,,,,,,,,,280,-48.5,-126.5,1,0,0,response5disk,,3,22.5,-6.5,1,0,0,rectangle,22.5,-6.5,1,0,0,22.5,-6.5,1,0,0,0,56,56,102,1,,,,,,,,
,,,,,,,,,,,,,FF,,,,,,,,0.533,,,,,,,,,,,,,,,,,,,,,,60ff0b32bdb402e4252bf6b5,610377ad93523e7a465e5306,2021-07-29_23h55.29.606,Simcolourproject_2stim_asymm_v5,2020.2.10,Win32,60,61025ae37ef11b136ea224fe,,,,,,,,,3918,21.5,-83.5,1,0,0,response3disk,,4,9.5,-10.5,1,0,0,rectangle,9.5,-10.5,1,0,0,9.5,-10.5,1,0,0,0,57,57,27,1,,,,,,,,
,,,,,,,,,,,,,FF,,,,,,,,0.449,,,,,,,,,,,,,,,,,,,,,,60ff0b32bdb402e4252bf6b5,610377ad93523e7a465e5306,2021-07-29_23h55.29.606,Simcolourproject_2stim_asymm_v5,2020.2.10,Win32,60,61025ae37ef11b136ea224fe,,,,,,,,,2105,-46.5,-98.5,1,0,0,response5disk,,3,6.5,-0.5,1,0,0,rectangle,6.5,-0.5,1,0,0,6.5,-0.5,1,0,0,0,58,58,157,1,,,,,,,,
,,,,,,,,,,,,,FF,,,,,,,,0.582,,,,,,,,,,,,,,,,,,,,,,60ff0b32bdb402e4252bf6b5,610377ad93523e7a465e5306,2021-07-29_23h55.29.606,Simcolourproject_2stim_asymm_v5,2020.2.10,Win32,60,61025ae37ef11b136ea224fe,,,,,,,,,1549,-43.5,-67.5,1,0,0,response5disk,,3,-0.5,11.5,1,0,0,rectangle,-0.5,11.5,1,0,0,-0.5,11.5,1,0,0,0,59,59,125,1,,,,,,,,
,,,,,,,,,,,,,FF,,,,,,,,0.763,,,,,,,,,,,,,,,,,,,,,,60ff0b32bdb402e4252bf6b5,610377ad93523e7a465e5306,2021-07-29_23h55.29.606,Simcolourproject_2stim_asymm_v5,2020.2.10,Win32,60,61025ae37ef11b136ea224fe,,,,,,,,,4237,-53.5,-83.5,1,0,0,response5disk,,3,-14.5,-12.5,1,0,0,rectangle,-14.5,-12.5,1,0,0,-14.5,-12.5,1,0,0,0,60,60,17,1,,,,,,,,
,,,,,,,,,,,,,FF,,,,,,,,1.333,,,,,,,,,,,,,,,,,,,,,,60ff0b32bdb402e4252bf6b5,610377ad93523e7a465e5306,2021-07-29_23h55.29.606,Simcolourproject_2stim_asymm_v5,2020.2.10,Win32,60,61025ae37ef11b136ea224fe,,,,,,,,,2471,-91.5,-59.5,1,0,0,response5disk,,2,-2.5,-6.5,1,0,0,rectangle,-2.5,-6.5,1,0,0,-2.5,-6.5,1,0,0,0,61,61,116,1,,,,,,,,
,,,,,,,,,,,,,FF,,,,,,,,0.46,,,,,,,,,,,,,,,,,,,,,,60ff0b32bdb402e4252bf6b5,610377ad93523e7a465e5306,2021-07-29_23h55.29.606,Simcolourproject_2stim_asymm_v5,2020.2.10,Win32,60,61025ae37ef11b136ea224fe,,,,,,,,,2055,-50.5,-68.5,1,0,0,response5disk,,3,-6.5,-4.5,1,0,0,rectangle,-6.5,-4.5,1,0,0,-6.5,-4.5,1,0,0,0,62,62,127,1,,,,,,,,
,,,,,,,,,,,,,FF,,,,,,,,0.461,,,,,,,,,,,,,,,,,,,,,,60ff0b32bdb402e4252bf6b5,610377ad93523e7a465e5306,2021-07-29_23h55.29.606,Simcolourproject_2stim_asymm_v5,2020.2.10,Win32,60,61025ae37ef11b136ea224fe,,,,,,,,,857,-48.5,-93.5,1,0,0,response5disk,,3,2.5,-6.5,1,0,0,rectangle,2.5,-6.5,1,0,0,2.5,-6.5,1,0,0,0,63,63,126,1,,,,,,,,
,,,,,,,,,,,,,FF,,,,,,,,0.587,,,,,,,,,,,,,,,,,,,,,,60ff0b32bdb402e4252bf6b5,610377ad93523e7a465e5306,2021-07-29_23h55.29.606,Simcolourproject_2stim_asymm_v5,2020.2.10,Win32,60,61025ae37ef11b136ea224fe,,,,,,,,,1348,-45.5,-92.5,1,0,0,response5disk,,3,8.5,-16.5,1,0,0,rectangle,8.5,-16.5,1,0,0,8.5,-16.5,1,0,0,0,64,64,104,1,,,,,,,,
,,,,,,,,,,,,,FF,,,,,,,,0.764,,,,,,,,,,,,,,,,,,,,,,60ff0b32bdb402e4252bf6b5,610377ad93523e7a465e5306,2021-07-29_23h55.29.606,Simcolourproject_2stim_asymm_v5,2020.2.10,Win32,60,61025ae37ef11b136ea224fe,,,,,,,,,1879,40.5,-78.5,1,0,0,response3disk,,4,-7.5,11.5,1,0,0,rectangle,-7.5,11.5,1,0,0,-7.5,11.5,1,0,0,0,65,65,45,1,,,,,,,,
,,,,,,,,,,,,,FF,,,,,,,,0.648,,,,,,,,,,,,,,,,,,,,,,60ff0b32bdb402e4252bf6b5,610377ad93523e7a465e5306,2021-07-29_23h55.29.606,Simcolourproject_2stim_asymm_v5,2020.2.10,Win32,60,61025ae37ef11b136ea224fe,,,,,,,,,2181,64.5,-106.5,1,0,0,response3disk,,4,35.5,-18.5,1,0,0,rectangle,35.5,-18.5,1,0,0,35.5,-18.5,1,0,0,0,66,66,57,1,,,,,,,,
,,,,,,,,,,,,,FF,,,,,,,,0.708,,,,,,,,,,,,,,,,,,,,,,60ff0b32bdb402e4252bf6b5,610377ad93523e7a465e5306,2021-07-29_23h55.29.606,Simcolourproject_2stim_asymm_v5,2020.2.10,Win32,60,61025ae37ef11b136ea224fe,,,,,,,,,3220,44.5,-84.5,1,0,0,response3disk,,4,33.5,-8.5,1,0,0,rectangle,33.5,-8.5,1,0,0,33.5,-8.5,1,0,0,0,67,67,149,1,,,,,,,,
,,,,,,,,,,,,,FF,,,,,,,,0.667,,,,,,,,,,,,,,,,,,,,,,60ff0b32bdb402e4252bf6b5,610377ad93523e7a465e5306,2021-07-29_23h55.29.606,Simcolourproject_2stim_asymm_v5,2020.2.10,Win32,60,61025ae37ef11b136ea224fe,,,,,,,,,2950,-44.5,-84.5,1,0,0,response5disk,,3,3.5,-8.5,1,0,0,rectangle,3.5,-8.5,1,0,0,3.5,-8.5,1,0,0,0,68,68,33,1,,,,,,,,
,,,,,,,,,,,,,FF,,,,,,,,0.631,,,,,,,,,,,,,,,,,,,,,,60ff0b32bdb402e4252bf6b5,610377ad93523e7a465e5306,2021-07-29_23h55.29.606,Simcolourproject_2stim_asymm_v5,2020.2.10,Win32,60,61025ae37ef11b136ea224fe,,,,,,,,,461,-25.5,-94.5,1,0,0,response5disk,,3,0.5,1.5,1,0,0,rectangle,62.5,82.5,1,0,0,0.5,0.5,1,0,0,0,69,69,111,1,,response1disk_3,TRUE,7,7,"[217,272,147,142,20,106,267,216,213,144,119,307,8,181,231,70,102,14,323,24]",1.582,rectangle
,,,,,,,,,,,,,FF,,,,,,,,0.509,,,,,,,,,,,,,,,,,,,,,,60ff0b32bdb402e4252bf6b5,610377ad93523e7a465e5306,2021-07-29_23h55.29.606,Simcolourproject_2stim_asymm_v5,2020.2.10,Win32,60,61025ae37ef11b136ea224fe,,,,,,,,,72,53.5,-58.5,1,0,0,response3disk,,4,-5.5,15.5,1,0,0,rectangle,-5.5,15.5,1,0,0,-5.5,15.5,1,0,0,0,70,70,93,1,,,,,,,,
,,,,,,,,,,,,,FF,,,,,,,,0.405,,,,,,,,,,,,,,,,,,,,,,60ff0b32bdb402e4252bf6b5,610377ad93523e7a465e5306,2021-07-29_23h55.29.606,Simcolourproject_2stim_asymm_v5,2020.2.10,Win32,60,61025ae37ef11b136ea224fe,,,,,,,,,2352,-49.5,-88.5,1,0,0,response5disk,,3,-24.5,1.5,1,0,0,rectangle,-24.5,1.5,1,0,0,-24.5,1.5,1,0,0,0,71,71,81,1,,,,,,,,
,,,,,,,,,,,,,FF,,,,,,,,1.763,,,,,,,,,,,,,,,,,,,,,,60ff0b32bdb402e4252bf6b5,610377ad93523e7a465e5306,2021-07-29_23h55.29.606,Simcolourproject_2stim_asymm_v5,2020.2.10,Win32,60,61025ae37ef11b136ea224fe,,,,,,,,,2391,-37.5,-103.5,1,0,0,response5disk,,3,6.5,-7.5,1,0,0,rectangle,6.5,-7.5,1,0,0,6.5,-7.5,1,0,0,0,72,72,144,1,,,,,,,,
,,,,,,,,,,,,,FF,,,,,,,,0.473,,,,,,,,,,,,,,,,,,,,,,60ff0b32bdb402e4252bf6b5,610377ad93523e7a465e5306,2021-07-29_23h55.29.606,Simcolourproject_2stim_asymm_v5,2020.2.10,Win32,60,61025ae37ef11b136ea224fe,,,,,,,,,3749,-48.5,-106.5,1,0,0,response5disk,,3,1.5,-14.5,1,0,0,rectangle,1.5,-14.5,1,0,0,1.5,-14.5,1,0,0,0,73,73,130,1,,,,,,,,
,,,,,,,,,,,,,FF,,,,,,,,0.685,,,,,,,,,,,,,,,,,,,,,,60ff0b32bdb402e4252bf6b5,610377ad93523e7a465e5306,2021-07-29_23h55.29.606,Simcolourproject_2stim_asymm_v5,2020.2.10,Win32,60,61025ae37ef11b136ea224fe,,,,,,,,,4078,-32.5,-45.5,1,0,0,response5disk,,3,-8.5,16.5,1,0,0,rectangle,-8.5,16.5,1,0,0,-8.5,16.5,1,0,0,0,74,74,10,1,,,,,,,,
,,,,,,,,,,,,,FF,,,,,,,,1.788,,,,,,,,,,,,,,,,,,,,,,60ff0b32bdb402e4252bf6b5,610377ad93523e7a465e5306,2021-07-29_23h55.29.606,Simcolourproject_2stim_asymm_v5,2020.2.10,Win32,60,61025ae37ef11b136ea224fe,,,,,,,,,959,-89.5,-66.5,1,0,0,response5disk,,2,-14.5,-15.5,1,0,0,rectangle,-14.5,-15.5,1,0,0,-14.5,-15.5,1,0,0,0,75,75,110,1,,,,,,,,
,,,,,,,,,,,,,FF,,,,,,,,0.861,,,,,,,,,,,,,,,,,,,,,,60ff0b32bdb402e4252bf6b5,610377ad93523e7a465e5306,2021-07-29_23h55.29.606,Simcolourproject_2stim_asymm_v5,2020.2.10,Win32,60,61025ae37ef11b136ea224fe,,,,,,,,,3045,-99.5,50.5,1,0,0,response7disk,,1,4.5,-6.5,1,0,0,rectangle,4.5,-6.5,1,0,0,4.5,-6.5,1,0,0,0,76,76,76,1,,,,,,,,
,,,,,,,,,,,,,FF,,,,,,,,0.357,,,,,,,,,,,,,,,,,,,,,,60ff0b32bdb402e4252bf6b5,610377ad93523e7a465e5306,2021-07-29_23h55.29.606,Simcolourproject_2stim_asymm_v5,2020.2.10,Win32,60,61025ae37ef11b136ea224fe,,,,,,,,,1418,-39.5,-87.5,1,0,0,response5disk,,3,-7.5,-9.5,1,0,0,rectangle,-7.5,-9.5,1,0,0,-7.5,-9.5,1,0,0,0,77,77,48,1,,,,,,,,
,,,,,,,,,,,,,FF,,,,,,,,0.684,,,,,,,,,,,,,,,,,,,,,,60ff0b32bdb402e4252bf6b5,610377ad93523e7a465e5306,2021-07-29_23h55.29.606,Simcolourproject_2stim_asymm_v5,2020.2.10,Win32,60,61025ae37ef11b136ea224fe,,,,,,,,,2446,-19.5,-81.5,1,0,0,response5disk,,3,16.5,12.5,1,0,0,rectangle,16.5,12.5,1,0,0,16.5,12.5,1,0,0,0,78,78,46,1,,,,,,,,
,,,,,,,,,,,,,FF,,,,,,,,0.418,,,,,,,,,,,,,,,,,,,,,,60ff0b32bdb402e4252bf6b5,610377ad93523e7a465e5306,2021-07-29_23h55.29.606,Simcolourproject_2stim_asymm_v5,2020.2.10,Win32,60,61025ae37ef11b136ea224fe,,,,,,,,,371,28.5,-74.5,1,0,0,response3disk,,4,10.5,-0.5,1,0,0,rectangle,10.5,-0.5,1,0,0,10.5,-0.5,1,0,0,0,79,79,143,1,,,,,,,,
,,,,,,,,,,,,,FF,,,,,,,,0.855,,,,,,,,,,,,,,,,,,,,,,60ff0b32bdb402e4252bf6b5,610377ad93523e7a465e5306,2021-07-29_23h55.29.606,Simcolourproject_2stim_asymm_v5,2020.2.10,Win32,60,61025ae37ef11b136ea224fe,,,,,,,,,121,-28.5,-88.5,1,0,0,response5disk,,3,25.5,3.5,1,0,0,rectangle,25.5,3.5,1,0,0,25.5,3.5,1,0,0,0,80,80,15,1,,,,,,,,
,,,,,,,,,,,,,FF,,,,,,,,1.097,,,,,,,,,,,,,,,,,,,,,,60ff0b32bdb402e4252bf6b5,610377ad93523e7a465e5306,2021-07-29_23h55.29.606,Simcolourproject_2stim_asymm_v5,2020.2.10,Win32,60,61025ae37ef11b136ea224fe,,,,,,,,,3877,-33.5,-76.5,1,0,0,response5disk,,3,28.5,-4.5,1,0,0,rectangle,28.5,-4.5,1,0,0,28.5,-4.5,1,0,0,0,81,81,145,1,,,,,,,,
,,,,,,,,,,,,,FF,,,,,,,,0.909,,,,,,,,,,,,,,,,,,,,,,60ff0b32bdb402e4252bf6b5,610377ad93523e7a465e5306,2021-07-29_23h55.29.606,Simcolourproject_2stim_asymm_v5,2020.2.10,Win32,60,61025ae37ef11b136ea224fe,,,,,,,,,3980,86.5,-104.5,1,0,0,response3disk,,4,41.5,-8.5,1,0,0,rectangle,41.5,-8.5,1,0,0,41.5,-8.5,1,0,0,0,82,82,153,1,,,,,,,,
,,,,,,,,,,,,,FF,,,,,,,,1.835,,,,,,,,,,,,,,,,,,,,,,60ff0b32bdb402e4252bf6b5,610377ad93523e7a465e5306,2021-07-29_23h55.29.606,Simcolourproject_2stim_asymm_v5,2020.2.10,Win32,60,61025ae37ef11b136ea224fe,,,,,,,,,194,-46.5,-96.5,1,0,0,response5disk,,3,-21.5,-2.5,1,0,0,rectangle,-21.5,-2.5,1,0,0,-21.5,-2.5,1,0,0,0,83,83,23,1,,,,,,,,
,,,,,,,,,,,,,FF,,,,,,,,0.696,,,,,,,,,,,,,,,,,,,,,,60ff0b32bdb402e4252bf6b5,610377ad93523e7a465e5306,2021-07-29_23h55.29.606,Simcolourproject_2stim_asymm_v5,2020.2.10,Win32,60,61025ae37ef11b136ea224fe,,,,,,,,,2794,40.5,-68.5,1,0,0,response3disk,,4,16.5,-6.5,1,0,0,rectangle,16.5,-6.5,1,0,0,16.5,-6.5,1,0,0,0,84,84,22,1,,,,,,,,
,,,,,,,,,,,,,FF,,,,,,,,0.799,,,,,,,,,,,,,,,,,,,,,,60ff0b32bdb402e4252bf6b5,610377ad93523e7a465e5306,2021-07-29_23h55.29.606,Simcolourproject_2stim_asymm_v5,2020.2.10,Win32,60,61025ae37ef11b136ea224fe,,,,,,,,,2241,24.5,-79.5,1,0,0,response3disk,,4,-13.5,5.5,1,0,0,rectangle,-13.5,5.5,1,0,0,-13.5,5.5,1,0,0,0,85,85,60,1,,,,,,,,
,,,,,,,,,,,,,FF,,,,,,,,0.885,,,,,,,,,,,,,,,,,,,,,,60ff0b32bdb402e4252bf6b5,610377ad93523e7a465e5306,2021-07-29_23h55.29.606,Simcolourproject_2stim_asymm_v5,2020.2.10,Win32,60,61025ae37ef11b136ea224fe,,,,,,,,,3457,66.5,-50.5,1,0,0,response3disk,,5,9.5,-5.5,1,0,0,rectangle,9.5,-5.5,1,0,0,9.5,-5.5,1,0,0,0,86,86,138,1,,,,,,,,
,,,,,,,,,,,,,FF,,,,,,,,0.903,,,,,,,,,,,,,,,,,,,,,,60ff0b32bdb402e4252bf6b5,610377ad93523e7a465e5306,2021-07-29_23h55.29.606,Simcolourproject_2stim_asymm_v5,2020.2.10,Win32,60,61025ae37ef11b136ea224fe,,,,,,,,,3211,84.5,-40.5,1,0,0,response3disk,,5,14.5,5.5,1,0,0,rectangle,14.5,5.5,1,0,0,14.5,5.5,1,0,0,0,87,87,142,1,,,,,,,,
,,,,,,,,,,,,,FF,,,,,,,,0.43,,,,,,,,,,,,,,,,,,,,,,60ff0b32bdb402e4252bf6b5,610377ad93523e7a465e5306,2021-07-29_23h55.29.606,Simcolourproject_2stim_asymm_v5,2020.2.10,Win32,60,61025ae37ef11b136ea224fe,,,,,,,,,6,85.5,-50.5,1,0,0,response3disk,,5,12.5,0.5,1,0,0,rectangle,12.5,0.5,1,0,0,12.5,0.5,1,0,0,0,88,88,61,1,,,,,,,,
,,,,,,,,,,,,,FF,,,,,,,,1.243,,,,,,,,,,,,,,,,,,,,,,60ff0b32bdb402e4252bf6b5,610377ad93523e7a465e5306,2021-07-29_23h55.29.606,Simcolourproject_2stim_asymm_v5,2020.2.10,Win32,60,61025ae37ef11b136ea224fe,,,,,,,,,862,20.5,-70.5,1,0,0,response3disk,,4,10.5,-11.5,1,0,0,rectangle,10.5,-11.5,1,0,0,10.5,-11.5,1,0,0,0,89,89,131,1,,,,,,,,
,,,,,,,,,,,,,FF,,,,,,,,0.872,,,,,,,,,,,,,,,,,,,,,,60ff0b32bdb402e4252bf6b5,610377ad93523e7a465e5306,2021-07-29_23h55.29.606,Simcolourproject_2stim_asymm_v5,2020.2.10,Win32,60,61025ae37ef11b136ea224fe,,,,,,,,,2001,54.5,-83.5,1,0,0,response3disk,,4,31.5,-1.5,1,0,0,rectangle,31.5,-1.5,1,0,0,31.5,-1.5,1,0,0,0,90,90,25,1,,,,,,,,
,,,,,,,,,,,,,FF,,,,,,,,0.418,,,,,,,,,,,,,,,,,,,,,,60ff0b32bdb402e4252bf6b5,610377ad93523e7a465e5306,2021-07-29_23h55.29.606,Simcolourproject_2stim_asymm_v5,2020.2.10,Win32,60,61025ae37ef11b136ea224fe,,,,,,,,,3989,58.5,-36.5,1,0,0,response3disk,,5,13.5,14.5,1,0,0,rectangle,13.5,14.5,1,0,0,13.5,14.5,1,0,0,0,91,91,120,1,,,,,,,,
,,,,,,,,,,,,,FF,,,,,,,,0.496,,,,,,,,,,,,,,,,,,,,,,60ff0b32bdb402e4252bf6b5,610377ad93523e7a465e5306,2021-07-29_23h55.29.606,Simcolourproject_2stim_asymm_v5,2020.2.10,Win32,60,61025ae37ef11b136ea224fe,,,,,,,,,2180,60.5,-44.5,1,0,0,response3disk,,5,8.5,-8.5,1,0,0,rectangle,8.5,-8.5,1,0,0,8.5,-8.5,1,0,0,0,92,92,148,1,,,,,,,,
,,,,,,,,,,,,,FF,,,,,,,,0.448,,,,,,,,,,,,,,,,,,,,,,60ff0b32bdb402e4252bf6b5,610377ad93523e7a465e5306,2021-07-29_23h55.29.606,Simcolourproject_2stim_asymm_v5,2020.2.10,Win32,60,61025ae37ef11b136ea224fe,,,,,,,,,651,76.5,-49.5,1,0,0,response3disk,,5,-19.5,-13.5,1,0,0,rectangle,-19.5,-13.5,1,0,0,-19.5,-13.5,1,0,0,0,93,93,77,1,,,,,,,,
,,,,,,,,,,,,,FF,,,,,,,,1.327,,,,,,,,,,,,,,,,,,,,,,60ff0b32bdb402e4252bf6b5,610377ad93523e7a465e5306,2021-07-29_23h55.29.606,Simcolourproject_2stim_asymm_v5,2020.2.10,Win32,60,61025ae37ef11b136ea224fe,,,,,,,,,4344,-91.5,20.5,1,0,0,response7disk,,1,-6.5,14.5,1,0,0,rectangle,-6.5,14.5,1,0,0,-6.5,14.5,1,0,0,0,94,94,28,1,,,,,,,,
,,,,,,,,,,,,,FF,,,,,,,,0.788,,,,,,,,,,,,,,,,,,,,,,60ff0b32bdb402e4252bf6b5,610377ad93523e7a465e5306,2021-07-29_23h55.29.606,Simcolourproject_2stim_asymm_v5,2020.2.10,Win32,60,61025ae37ef11b136ea224fe,,,,,,,,,1453,-71.5,-32.5,1,0,0,response5disk,,2,-23.5,-13.5,1,0,0,rectangle,-23.5,-13.5,1,0,0,-23.5,-13.5,1,0,0,0,95,95,39,1,,,,,,,,
,,,,,,,,,,,,,FF,,,,,,,,0.757,,,,,,,,,,,,,,,,,,,,,,60ff0b32bdb402e4252bf6b5,610377ad93523e7a465e5306,2021-07-29_23h55.29.606,Simcolourproject_2stim_asymm_v5,2020.2.10,Win32,60,61025ae37ef11b136ea224fe,,,,,,,,,2537,-27.5,-69.5,1,0,0,response5disk,,3,-31.5,5.5,1,0,0,rectangle,-31.5,5.5,1,0,0,-31.5,5.5,1,0,0,0,96,96,30,1,,,,,,,,
,,,,,,,,,,,,,FF,,,,,,,,1.298,,,,,,,,,,,,,,,,,,,,,,60ff0b32bdb402e4252bf6b5,610377ad93523e7a465e5306,2021-07-29_23h55.29.606,Simcolourproject_2stim_asymm_v5,2020.2.10,Win32,60,61025ae37ef11b136ea224fe,,,,,,,,,412,54.5,-97.5,1,0,0,response3disk,,4,-30.5,1.5,1,0,0,rectangle,-30.5,1.5,1,0,0,-30.5,1.5,1,0,0,0,97,97,84,1,,,,,,,,
,,,,,,,,,,,,,FF,,,,,,,,0.412,,,,,,,,,,,,,,,,,,,,,,60ff0b32bdb402e4252bf6b5,610377ad93523e7a465e5306,2021-07-29_23h55.29.606,Simcolourproject_2stim_asymm_v5,2020.2.10,Win32,60,61025ae37ef11b136ea224fe,,,,,,,,,604,38.5,-76.5,1,0,0,response3disk,,4,14.5,-19.5,1,0,0,rectangle,14.5,-19.5,1,0,0,14.5,-19.5,1,0,0,0,98,98,152,1,,,,,,,,
,,,,,,,,,,,,,FF,,,,,,,,0.83,,,,,,,,,,,,,,,,,,,,,,60ff0b32bdb402e4252bf6b5,610377ad93523e7a465e5306,2021-07-29_23h55.29.606,Simcolourproject_2stim_asymm_v5,2020.2.10,Win32,60,61025ae37ef11b136ea224fe,,,,,,,,,4060,18.5,-23.5,1,0,0,response3disk,,4,-0.5,9.5,1,0,0,rectangle,-0.5,9.5,1,0,0,-0.5,9.5,1,0,0,0,99,99,128,1,,,,,,,,
,,,,,,,,,,,,,FF,,,,,,,,0.612,,,,,,,,,,,,,,,,,,,,,,60ff0b32bdb402e4252bf6b5,610377ad93523e7a465e5306,2021-07-29_23h55.29.606,Simcolourproject_2stim_asymm_v5,2020.2.10,Win32,60,61025ae37ef11b136ea224fe,,,,,,,,,3522,25.5,-63.5,1,0,0,response3disk,,4,12.5,-5.5,1,0,0,rectangle,12.5,-5.5,1,0,0,12.5,-5.5,1,0,0,0,100,100,83,1,,,,,,,,
,,,,,,,,,,,,,FF,,,,,,,,1.534,,,,,,,,,,,,,,,,,,,,,,60ff0b32bdb402e4252bf6b5,610377ad93523e7a465e5306,2021-07-29_23h55.29.606,Simcolourproject_2stim_asymm_v5,2020.2.10,Win32,60,61025ae37ef11b136ea224fe,,,,,,,,,723,49.5,-136.5,1,0,0,response3disk,,4,-21.5,-9.5,1,0,0,rectangle,-96.5,73.5,1,0,0,9.5,8.5,1,0,0,0,101,101,32,1,,response7disk_3,TRUE,1,1,"[217,272,147,142,20,106,267,216,213,144,119,307,8,181,231,70,102,14,323,24]",1.654,rectangle
,,,,,,,,,,,,,FF,,,,,,,,0.631,,,,,,,,,,,,,,,,,,,,,,60ff0b32bdb402e4252bf6b5,610377ad93523e7a465e5306,2021-07-29_23h55.29.606,Simcolourproject_2stim_asymm_v5,2020.2.10,Win32,60,61025ae37ef11b136ea224fe,,,,,,,,,3398,-39.5,-78.5,1,0,0,response5disk,,3,28.5,4.5,1,0,0,rectangle,28.5,4.5,1,0,0,28.5,4.5,1,0,0,0,102,102,99,1,,,,,,,,
,,,,,,,,,,,,,FF,,,,,,,,0.557,,,,,,,,,,,,,,,,,,,,,,60ff0b32bdb402e4252bf6b5,610377ad93523e7a465e5306,2021-07-29_23h55.29.606,Simcolourproject_2stim_asymm_v5,2020.2.10,Win32,60,61025ae37ef11b136ea224fe,,,,,,,,,3404,-33.5,-90.5,1,0,0,response5disk,,3,4.5,-8.5,1,0,0,rectangle,4.5,-8.5,1,0,0,4.5,-8.5,1,0,0,0,103,103,24,1,,,,,,,,
,,,,,,,,,,,,,FF,,,,,,,,0.588,,,,,,,,,,,,,,,,,,,,,,60ff0b32bdb402e4252bf6b5,610377ad93523e7a465e5306,2021-07-29_23h55.29.606,Simcolourproject_2stim_asymm_v5,2020.2.10,Win32,60,61025ae37ef11b136ea224fe,,,,,,,,,858,34.5,-80.5,1,0,0,response3disk,,4,12.5,1.5,1,0,0,rectangle,12.5,1.5,1,0,0,12.5,1.5,1,0,0,0,104,104,67,1,,,,,,,,
,,,,,,,,,,,,,FF,,,,,,,,0.291,,,,,,,,,,,,,,,,,,,,,,60ff0b32bdb402e4252bf6b5,610377ad93523e7a465e5306,2021-07-29_23h55.29.606,Simcolourproject_2stim_asymm_v5,2020.2.10,Win32,60,61025ae37ef11b136ea224fe,,,,,,,,,2642,-24.5,-118.5,1,0,0,response5disk,,3,35.5,-6.5,1,0,0,rectangle,-21.5,-76.5,1,0,0,22.5,-8.5,1,0,0,0,105,105,64,1,,response5disk_3,TRUE,3,3,"[217,272,147,142,20,106,267,216,213,144,119,307,8,181,231,70,102,14,323,24]",2.03,rectangle
,,,,,,,,,,,,,FF,,,,,,,,0.866,,,,,,,,,,,,,,,,,,,,,,60ff0b32bdb402e4252bf6b5,610377ad93523e7a465e5306,2021-07-29_23h55.29.606,Simcolourproject_2stim_asymm_v5,2020.2.10,Win32,60,61025ae37ef11b136ea224fe,,,,,,,,,2151,-75.5,-91.5,1,0,0,response5disk,,3,4.5,-12.5,1,0,0,rectangle,4.5,-12.5,1,0,0,4.5,-12.5,1,0,0,0,106,106,139,1,,,,,,,,
,,,,,,,,,,,,,FF,,,,,,,,1.194,,,,,,,,,,,,,,,,,,,,,,60ff0b32bdb402e4252bf6b5,610377ad93523e7a465e5306,2021-07-29_23h55.29.606,Simcolourproject_2stim_asymm_v5,2020.2.10,Win32,60,61025ae37ef11b136ea224fe,,,,,,,,,732,-32.5,-100.5,1,0,0,response5disk,,3,14.5,-15.5,1,0,0,rectangle,14.5,-15.5,1,0,0,14.5,-15.5,1,0,0,0,107,107,49,1,,,,,,,,
,,,,,,,,,,,,,FF,,,,,,,,0.551,,,,,,,,,,,,,,,,,,,,,,60ff0b32bdb402e4252bf6b5,610377ad93523e7a465e5306,2021-07-29_23h55.29.606,Simcolourproject_2stim_asymm_v5,2020.2.10,Win32,60,61025ae37ef11b136ea224fe,,,,,,,,,347,-35.5,-82.5,1,0,0,response5disk,,3,-5.5,1.5,1,0,0,rectangle,-5.5,1.5,1,0,0,-5.5,1.5,1,0,0,0,108,108,78,1,,,,,,,,
,,,,,,,,,,,,,FF,,,,,,,,0.448,,,,,,,,,,,,,,,,,,,,,,60ff0b32bdb402e4252bf6b5,610377ad93523e7a465e5306,2021-07-29_23h55.29.606,Simcolourproject_2stim_asymm_v5,2020.2.10,Win32,60,61025ae37ef11b136ea224fe,,,,,,,,,22,46.5,-82.5,1,0,0,response3disk,,4,23.5,-6.5,1,0,0,rectangle,23.5,-6.5,1,0,0,23.5,-6.5,1,0,0,0,109,109,53,1,,,,,,,,
,,,,,,,,,,,,,FF,,,,,,,,0.212,,,,,,,,,,,,,,,,,,,,,,60ff0b32bdb402e4252bf6b5,610377ad93523e7a465e5306,2021-07-29_23h55.29.606,Simcolourproject_2stim_asymm_v5,2020.2.10,Win32,60,61025ae37ef11b136ea224fe,,,,,,,,,4193,-35.5,-101.5,1,0,0,response5disk,,3,27.5,6.5,1,0,0,rectangle,27.5,6.5,1,0,0,27.5,6.5,1,0,0,0,110,110,159,1,,,,,,,,
,,,,,,,,,,,,,FF,,,,,,,,0.212,,,,,,,,,,,,,,,,,,,,,,60ff0b32bdb402e4252bf6b5,610377ad93523e7a465e5306,2021-07-29_23h55.29.606,Simcolourproject_2stim_asymm_v5,2020.2.10,Win32,60,61025ae37ef11b136ea224fe,,,,,,,,,3694,-44.5,-102.5,1,0,0,response5disk,,3,6.5,-2.5,1,0,0,rectangle,6.5,-2.5,1,0,0,6.5,-2.5,1,0,0,0,111,111,55,1,,,,,,,,
,,,,,,,,,,,,,FF,,,,,,,,0.34,,,,,,,,,,,,,,,,,,,,,,60ff0b32bdb402e4252bf6b5,610377ad93523e7a465e5306,2021-07-29_23h55.29.606,Simcolourproject_2stim_asymm_v5,2020.2.10,Win32,60,61025ae37ef11b136ea224fe,,,,,,,,,2078,-28.5,-111.5,1,0,0,response5disk,,3,19.5,-13.5,1,0,0,rectangle,19.5,-13.5,1,0,0,19.5,-13.5,1,0,0,0,112,112,0,1,,,,,,,,
,,,,,,,,,,,,,FF,,,,,,,,0.279,,,,,,,,,,,,,,,,,,,,,,60ff0b32bdb402e4252bf6b5,610377ad93523e7a465e5306,2021-07-29_23h55.29.606,Simcolourproject_2stim_asymm_v5,2020.2.10,Win32,60,61025ae37ef11b136ea224fe,,,,,,,,,1246,-61.5,-82.5,1,0,0,response5disk,,3,-11.5,-16.5,1,0,0,rectangle,-11.5,-16.5,1,0,0,-11.5,-16.5,1,0,0,0,113,113,98,1,,,,,,,,
,,,,,,,,,,,,,FF,,,,,,,,0.181,,,,,,,,,,,,,,,,,,,,,,60ff0b32bdb402e4252bf6b5,610377ad93523e7a465e5306,2021-07-29_23h55.29.606,Simcolourproject_2stim_asymm_v5,2020.2.10,Win32,60,61025ae37ef11b136ea224fe,,,,,,,,,650,60.5,-96.5,1,0,0,response3disk,,4,-24.5,13.5,1,0,0,rectangle,-24.5,13.5,1,0,0,-24.5,13.5,1,0,0,0,114,114,117,1,,,,,,,,
,,,,,,,,,,,,,FF,,,,,,,,0.37,,,,,,,,,,,,,,,,,,,,,,60ff0b32bdb402e4252bf6b5,610377ad93523e7a465e5306,2021-07-29_23h55.29.606,Simcolourproject_2stim_asymm_v5,2020.2.10,Win32,60,61025ae37ef11b136ea224fe,,,,,,,,,1368,-31.5,-54.5,1,0,0,response5disk,,3,-5.5,-12.5,1,0,0,rectangle,-5.5,-12.5,1,0,0,-5.5,-12.5,1,0,0,0,115,115,72,1,,,,,,,,
,,,,,,,,,,,,,FF,,,,,,,,0.291,,,,,,,,,,,,,,,,,,,,,,60ff0b32bdb402e4252bf6b5,610377ad93523e7a465e5306,2021-07-29_23h55.29.606,Simcolourproject_2stim_asymm_v5,2020.2.10,Win32,60,61025ae37ef11b136ea224fe,,,,,,,,,2409,38.5,-86.5,1,0,0,response3disk,,4,2.5,-12.5,1,0,0,rectangle,2.5,-12.5,1,0,0,2.5,-12.5,1,0,0,0,116,116,87,1,,,,,,,,
,,,,,,,,,,,,,FF,,,,,,,,0.26,,,,,,,,,,,,,,,,,,,,,,60ff0b32bdb402e4252bf6b5,610377ad93523e7a465e5306,2021-07-29_23h55.29.606,Simcolourproject_2stim_asymm_v5,2020.2.10,Win32,60,61025ae37ef11b136ea224fe,,,,,,,,,3675,-29.5,-112.5,1,0,0,response5disk,,3,4.5,-18.5,1,0,0,rectangle,4.5,-18.5,1,0,0,4.5,-18.5,1,0,0,0,117,117,155,1,,,,,,,,
,,,,,,,,,,,,,FF,,,,,,,,0.285,,,,,,,,,,,,,,,,,,,,,,60ff0b32bdb402e4252bf6b5,610377ad93523e7a465e5306,2021-07-29_23h55.29.606,Simcolourproject_2stim_asymm_v5,2020.2.10,Win32,60,61025ae37ef11b136ea224fe,,,,,,,,,3008,-41.5,-130.5,1,0,0,response5disk,,3,12.5,-13.5,1,0,0,rectangle,-45.5,-105.5,1,0,0,-15.5,-0.5,1,0,0,0,118,118,79,1,,response5disk_3,TRUE,3,3,"[217,272,147,142,20,106,267,216,213,144,119,307,8,181,231,70,102,14,323,24]",2.067,rectangle
,,,,,,,,,,,,,FF,,,,,,,,0.521,,,,,,,,,,,,,,,,,,,,,,60ff0b32bdb402e4252bf6b5,610377ad93523e7a465e5306,2021-07-29_23h55.29.606,Simcolourproject_2stim_asymm_v5,2020.2.10,Win32,60,61025ae37ef11b136ea224fe,,,,,,,,,3907,39.5,-85.5,1,0,0,response3disk,,4,-1.5,3.5,1,0,0,rectangle,-1.5,3.5,1,0,0,-1.5,3.5,1,0,0,0,119,119,123,1,,,,,,,,
,,,,,,,,,,,,,FF,,,,,,,,0.321,,,,,,,,,,,,,,,,,,,,,,60ff0b32bdb402e4252bf6b5,610377ad93523e7a465e5306,2021-07-29_23h55.29.606,Simcolourproject_2stim_asymm_v5,2020.2.10,Win32,60,61025ae37ef11b136ea224fe,,,,,,,,,1832,-62.5,-123.5,1,0,0,response5disk,,3,-17.5,-18.5,1,0,0,rectangle,-17.5,-18.5,1,0,0,-17.5,-18.5,1,0,0,0,120,120,94,1,,,,,,,,
,,,,,,,,,,,,,FF,,,,,,,,1.218,,,,,,,,,,,,,,,,,,,,,,60ff0b32bdb402e4252bf6b5,610377ad93523e7a465e5306,2021-07-29_23h55.29.606,Simcolourproject_2stim_asymm_v5,2020.2.10,Win32,60,61025ae37ef11b136ea224fe,,,,,,,,,3690,34.5,-60.5,1,0,0,response3disk,,4,6.5,7.5,1,0,0,rectangle,6.5,7.5,1,0,0,6.5,7.5,1,0,0,0,121,121,38,1,,,,,,,,
,,,,,,,,,,,,,FF,,,,,,,,0.413,,,,,,,,,,,,,,,,,,,,,,60ff0b32bdb402e4252bf6b5,610377ad93523e7a465e5306,2021-07-29_23h55.29.606,Simcolourproject_2stim_asymm_v5,2020.2.10,Win32,60,61025ae37ef11b136ea224fe,,,,,,,,,2428,-34.5,-127.5,1,0,0,response5disk,,3,-3.5,4.5,1,0,0,rectangle,-3.5,4.5,1,0,0,-3.5,4.5,1,0,0,0,122,122,4,1,,,,,,,,
,,,,,,,,,,,,,FF,,,,,,,,0.746,,,,,,,,,,,,,,,,,,,,,,60ff0b32bdb402e4252bf6b5,610377ad93523e7a465e5306,2021-07-29_23h55.29.606,Simcolourproject_2stim_asymm_v5,2020.2.10,Win32,60,61025ae37ef11b136ea224fe,,,,,,,,,3054,-29.5,-108.5,1,0,0,response5disk,,3,10.5,19.5,1,0,0,rectangle,10.5,19.5,1,0,0,10.5,19.5,1,0,0,0,123,123,119,1,,,,,,,,
,,,,,,,,,,,,,FF,,,,,,,,0.344,,,,,,,,,,,,,,,,,,,,,,60ff0b32bdb402e4252bf6b5,610377ad93523e7a465e5306,2021-07-29_23h55.29.606,Simcolourproject_2stim_asymm_v5,2020.2.10,Win32,60,61025ae37ef11b136ea224fe,,,,,,,,,1912,-30.5,-86.5,1,0,0,response5disk,,3,20.5,-0.5,1,0,0,rectangle,20.5,-0.5,1,0,0,20.5,-0.5,1,0,0,0,124,124,113,1,,,,,,,,
,,,,,,,,,,,,,FF,,,,,,,,0.308,,,,,,,,,,,,,,,,,,,,,,60ff0b32bdb402e4252bf6b5,610377ad93523e7a465e5306,2021-07-29_23h55.29.606,Simcolourproject_2stim_asymm_v5,2020.2.10,Win32,60,61025ae37ef11b136ea224fe,,,,,,,,,997,-29.5,-106.5,1,0,0,response5disk,,3,15.5,-10.5,1,0,0,rectangle,15.5,-10.5,1,0,0,15.5,-10.5,1,0,0,0,125,125,82,1,,,,,,,,
,,,,,,,,,,,,,FF,,,,,,,,0.382,,,,,,,,,,,,,,,,,,,,,,60ff0b32bdb402e4252bf6b5,610377ad93523e7a465e5306,2021-07-29_23h55.29.606,Simcolourproject_2stim_asymm_v5,2020.2.10,Win32,60,61025ae37ef11b136ea224fe,,,,,,,,,1892,-25.5,-78.5,1,0,0,response5disk,,3,1.5,16.5,1,0,0,rectangle,1.5,16.5,1,0,0,1.5,16.5,1,0,0,0,126,126,34,1,,,,,,,,
,,,,,,,,,,,,,FF,,,,,,,,0.769,,,,,,,,,,,,,,,,,,,,,,60ff0b32bdb402e4252bf6b5,610377ad93523e7a465e5306,2021-07-29_23h55.29.606,Simcolourproject_2stim_asymm_v5,2020.2.10,Win32,60,61025ae37ef11b136ea224fe,,,,,,,,,3624,-86.5,-45.5,1,0,0,response5disk,,2,0.5,10.5,1,0,0,rectangle,0.5,10.5,1,0,0,0.5,10.5,1,0,0,0,127,127,85,1,,,,,,,,
,,,,,,,,,,,,,FF,,,,,,,,0.551,,,,,,,,,,,,,,,,,,,,,,60ff0b32bdb402e4252bf6b5,610377ad93523e7a465e5306,2021-07-29_23h55.29.606,Simcolourproject_2stim_asymm_v5,2020.2.10,Win32,60,61025ae37ef11b136ea224fe,,,,,,,,,1051,-82.5,-49.5,1,0,0,response5disk,,2,-0.5,1.5,1,0,0,rectangle,-0.5,1.5,1,0,0,-0.5,1.5,1,0,0,0,128,128,136,1,,,,,,,,
,,,,,,,,,,,,,FF,,,,,,,,0.532,,,,,,,,,,,,,,,,,,,,,,60ff0b32bdb402e4252bf6b5,610377ad93523e7a465e5306,2021-07-29_23h55.29.606,Simcolourproject_2stim_asymm_v5,2020.2.10,Win32,60,61025ae37ef11b136ea224fe,,,,,,,,,2127,-41.5,-99.5,1,0,0,response5disk,,3,14.5,-3.5,1,0,0,rectangle,14.5,-3.5,1,0,0,14.5,-3.5,1,0,0,0,129,129,50,1,,,,,,,,
,,,,,,,,,,,,,FF,,,,,,,,0.563,,,,,,,,,,,,,,,,,,,,,,60ff0b32bdb402e4252bf6b5,610377ad93523e7a465e5306,2021-07-29_23h55.29.606,Simcolourproject_2stim_asymm_v5,2020.2.10,Win32,60,61025ae37ef11b136ea224fe,,,,,,,,,2685,46.5,-72.5,1,0,0,response3disk,,4,14.5,13.5,1,0,0,rectangle,14.5,13.5,1,0,0,14.5,13.5,1,0,0,0,130,130,63,1,,,,,,,,
,,,,,,,,,,,,,FF,,,,,,,,0.721,,,,,,,,,,,,,,,,,,,,,,60ff0b32bdb402e4252bf6b5,610377ad93523e7a465e5306,2021-07-29_23h55.29.606,Simcolourproject_2stim_asymm_v5,2020.2.10,Win32,60,61025ae37ef11b136ea224fe,,,,,,,,,2556,80.5,-103.5,1,0,0,response3disk,,4,13.5,-8.5,1,0,0,rectangle,13.5,-8.5,1,0,0,13.5,-8.5,1,0,0,0,131,131,51,1,,,,,,,,
,,,,,,,,,,,,,FF,,,,,,,,1.569,,,,,,,,,,,,,,,,,,,,,,60ff0b32bdb402e4252bf6b5,610377ad93523e7a465e5306,2021-07-29_23h55.29.606,Simcolourproject_2stim_asymm_v5,2020.2.10,Win32,60,61025ae37ef11b136ea224fe,,,,,,,,,3325,48.5,-104.5,1,0,0,response3disk,,4,15.5,-6.5,1,0,0,rectangle,15.5,-6.5,1,0,0,15.5,-6.5,1,0,0,0,132,132,92,1,,,,,,,,
,,,,,,,,,,,,,FF,,,,,,,,0.449,,,,,,,,,,,,,,,,,,,,,,60ff0b32bdb402e4252bf6b5,610377ad93523e7a465e5306,2021-07-29_23h55.29.606,Simcolourproject_2stim_asymm_v5,2020.2.10,Win32,60,61025ae37ef11b136ea224fe,,,,,,,,,3449,-34.5,-127.5,1,0,0,response5disk,,3,4.5,-12.5,1,0,0,rectangle,4.5,-12.5,1,0,0,4.5,-12.5,1,0,0,0,133,133,89,1,,,,,,,,
,,,,,,,,,,,,,FF,,,,,,,,1.212,,,,,,,,,,,,,,,,,,,,,,60ff0b32bdb402e4252bf6b5,610377ad93523e7a465e5306,2021-07-29_23h55.29.606,Simcolourproject_2stim_asymm_v5,2020.2.10,Win32,60,61025ae37ef11b136ea224fe,,,,,,,,,1523,-83.5,-45.5,1,0,0,response5disk,,2,22.5,-15.5,1,0,0,rectangle,22.5,-15.5,1,0,0,22.5,-15.5,1,0,0,0,134,134,26,1,,,,,,,,
,,,,,,,,,,,,,FF,,,,,,,,0.872,,,,,,,,,,,,,,,,,,,,,,60ff0b32bdb402e4252bf6b5,610377ad93523e7a465e5306,2021-07-29_23h55.29.606,Simcolourproject_2stim_asymm_v5,2020.2.10,Win32,60,61025ae37ef11b136ea224fe,,,,,,,,,4307,41.5,-93.5,1,0,0,response3disk,,4,16.5,-2.5,1,0,0,rectangle,16.5,-2.5,1,0,0,16.5,-2.5,1,0,0,0,135,135,16,1,,,,,,,,
,,,,,,,,,,,,,FF,,,,,,,,1.467,,,,,,,,,,,,,,,,,,,,,,60ff0b32bdb402e4252bf6b5,610377ad93523e7a465e5306,2021-07-29_23h55.29.606,Simcolourproject_2stim_asymm_v5,2020.2.10,Win32,60,61025ae37ef11b136ea224fe,,,,,,,,,3141,-37.5,-106.5,1,0,0,response5disk,,3,-4.5,0.5,1,0,0,rectangle,-4.5,0.5,1,0,0,-4.5,0.5,1,0,0,0,136,136,90,1,,,,,,,,
,,,,,,,,,,,,,FF,,,,,,,,0.6,,,,,,,,,,,,,,,,,,,,,,60ff0b32bdb402e4252bf6b5,610377ad93523e7a465e5306,2021-07-29_23h55.29.606,Simcolourproject_2stim_asymm_v5,2020.2.10,Win32,60,61025ae37ef11b136ea224fe,,,,,,,,,2752,41.5,-88.5,1,0,0,response3disk,,4,-7.5,13.5,1,0,0,rectangle,-7.5,13.5,1,0,0,-7.5,13.5,1,0,0,0,137,137,80,1,,,,,,,,
,,,,,,,,,,,,,FF,,,,,,,,6.823,,,,,,,,,,,,,,,,,,,,,,60ff0b32bdb402e4252bf6b5,610377ad93523e7a465e5306,2021-07-29_23h55.29.606,Simcolourproject_2stim_asymm_v5,2020.2.10,Win32,60,61025ae37ef11b136ea224fe,,,,,,,,,3053,-46.5,-88.5,1,0,0,response5disk,,3,-21.5,-1.5,1,0,0,rectangle,-21.5,-1.5,1,0,0,-21.5,-1.5,1,0,0,0,138,138,115,1,,,,,,,,
,,,,,,,,,,,,,FF,,,,,,,,0.516,,,,,,,,,,,,,,,,,,,,,,60ff0b32bdb402e4252bf6b5,610377ad93523e7a465e5306,2021-07-29_23h55.29.606,Simcolourproject_2stim_asymm_v5,2020.2.10,Win32,60,61025ae37ef11b136ea224fe,,,,,,,,,3807,20.5,-64.5,1,0,0,response3disk,,4,0.5,-16.5,1,0,0,rectangle,0.5,-16.5,1,0,0,0.5,-16.5,1,0,0,0,139,139,9,1,,,,,,,,
,,,,,,,,,,,,,FF,,,,,,,,6.679,,,,,,,,,,,,,,,,,,,,,,60ff0b32bdb402e4252bf6b5,610377ad93523e7a465e5306,2021-07-29_23h55.29.606,Simcolourproject_2stim_asymm_v5,2020.2.10,Win32,60,61025ae37ef11b136ea224fe,,,,,,,,,3693,-44.5,-77.5,1,0,0,response5disk,,3,-35.5,-18.5,1,0,0,rectangle,-35.5,-18.5,1,0,0,-35.5,-18.5,1,0,0,0,140,140,101,1,,,,,,,,
,,,,,,,,,,,,,FF,,,,,,,,0.574,,,,,,,,,,,,,,,,,,,,,,60ff0b32bdb402e4252bf6b5,610377ad93523e7a465e5306,2021-07-29_23h55.29.606,Simcolourproject_2stim_asymm_v5,2020.2.10,Win32,60,61025ae37ef11b136ea224fe,,,,,,,,,3121,44.5,-84.5,1,0,0,response3disk,,4,4.5,-12.5,1,0,0,rectangle,-58.5,-51.5,1,0,0,-8.5,-7.5,1,0,0,0,141,141,35,1,,response5disk_3,TRUE,2,2,"[217,272,147,142,20,106,267,216,213,144,119,307,8,181,231,70,102,14,323,24]",1.145,rectangle
,,,,,,,,,,,,,FF,,,,,,,,0.587,,,,,,,,,,,,,,,,,,,,,,60ff0b32bdb402e4252bf6b5,610377ad93523e7a465e5306,2021-07-29_23h55.29.606,Simcolourproject_2stim_asymm_v5,2020.2.10,Win32,60,61025ae37ef11b136ea224fe,,,,,,,,,4210,-27.5,-132.5,1,0,0,response5disk,,3,19.5,-6.5,1,0,0,rectangle,19.5,-6.5,1,0,0,19.5,-6.5,1,0,0,0,142,142,140,1,,,,,,,,
,,,,,,,,,,,,,FF,,,,,,,,0.605,,,,,,,,,,,,,,,,,,,,,,60ff0b32bdb402e4252bf6b5,610377ad93523e7a465e5306,2021-07-29_23h55.29.606,Simcolourproject_2stim_asymm_v5,2020.2.10,Win32,60,61025ae37ef11b136ea224fe,,,,,,,,,3382,-45.5,-90.5,1,0,0,response5disk,,3,15.5,8.5,1,0,0,rectangle,-81.5,-31.5,1,0,0,7.5,4.5,1,0,0,0,143,143,75,1,,response5disk_3,TRUE,2,2,"[217,272,147,142,20,106,267,216,213,144,119,307,8,181,231,70,102,14,323,24]",1.781,rectangle
,,,,,,,,,,,,,FF,,,,,,,,0.484,,,,,,,,,,,,,,,,,,,,,,60ff0b32bdb402e4252bf6b5,610377ad93523e7a465e5306,2021-07-29_23h55.29.606,Simcolourproject_2stim_asymm_v5,2020.2.10,Win32,60,61025ae37ef11b136ea224fe,,,,,,,,,1901,-41.5,-66.5,1,0,0,response5disk,,3,0.5,-2.5,1,0,0,rectangle,0.5,-2.5,1,0,0,0.5,-2.5,1,0,0,0,144,144,65,1,,,,,,,,
,,,,,,,,,,,,,FF,,,,,,,,0.759,,,,,,,,,,,,,,,,,,,,,,60ff0b32bdb402e4252bf6b5,610377ad93523e7a465e5306,2021-07-29_23h55.29.606,Simcolourproject_2stim_asymm_v5,2020.2.10,Win32,60,61025ae37ef11b136ea224fe,,,,,,,,,2267,44.5,-90.5,1,0,0,response3disk,,4,10.5,-17.5,1,0,0,rectangle,10.5,-17.5,1,0,0,10.5,-17.5,1,0,0,0,145,145,134,1,,,,,,,,
,,,,,,,,,,,,,FF,,,,,,,,1.588,,,,,,,,,,,,,,,,,,,,,,60ff0b32bdb402e4252bf6b5,610377ad93523e7a465e5306,2021-07-29_23h55.29.606,Simcolourproject_2stim_asymm_v5,2020.2.10,Win32,60,61025ae37ef11b136ea224fe,,,,,,,,,2899,46.5,-112.5,1,0,0,response3disk,,4,18.5,-15.5,1,0,0,rectangle,-28.5,-113.5,1,0,0,-9.5,-6.5,1,0,0,0,146,146,158,1,,response5disk_3,TRUE,3,3,"[217,272,147,142,20,106,267,216,213,144,119,307,8,181,231,70,102,14,323,24]",2.606,rectangle
,,,,,,,,,,,,,FF,,,,,,,,0.491,,,,,,,,,,,,,,,,,,,,,,60ff0b32bdb402e4252bf6b5,610377ad93523e7a465e5306,2021-07-29_23h55.29.606,Simcolourproject_2stim_asymm_v5,2020.2.10,Win32,60,61025ae37ef11b136ea224fe,,,,,,,,,2454,-31.5,-82.5,1,0,0,response5disk,,3,5.5,1.5,1,0,0,rectangle,5.5,1.5,1,0,0,5.5,1.5,1,0,0,0,147,147,97,1,,,,,,,,
,,,,,,,,,,,,,FF,,,,,,,,0.836,,,,,,,,,,,,,,,,,,,,,,60ff0b32bdb402e4252bf6b5,610377ad93523e7a465e5306,2021-07-29_23h55.29.606,Simcolourproject_2stim_asymm_v5,2020.2.10,Win32,60,61025ae37ef11b136ea224fe,,,,,,,,,944,51.5,-109.5,1,0,0,response3disk,,4,-8.5,-17.5,1,0,0,rectangle,-8.5,-17.5,1,0,0,-8.5,-17.5,1,0,0,0,148,148,31,1,,,,,,,,
,,,,,,,,,,,,,FF,,,,,,,,0.63,,,,,,,,,,,,,,,,,,,,,,60ff0b32bdb402e4252bf6b5,610377ad93523e7a465e5306,2021-07-29_23h55.29.606,Simcolourproject_2stim_asymm_v5,2020.2.10,Win32,60,61025ae37ef11b136ea224fe,,,,,,,,,1590,-29.5,-102.5,1,0,0,response5disk,,3,8.5,3.5,1,0,0,rectangle,8.5,3.5,1,0,0,8.5,3.5,1,0,0,0,149,149,109,1,,,,,,,,
,,,,,,,,,,,,,FF,,,,,,,,0.612,,,,,,,,,,,,,,,,,,,,,,60ff0b32bdb402e4252bf6b5,610377ad93523e7a465e5306,2021-07-29_23h55.29.606,Simcolourproject_2stim_asymm_v5,2020.2.10,Win32,60,61025ae37ef11b136ea224fe,,,,,,,,,1310,-45.5,-70.5,1,0,0,response5disk,,3,-7.5,-6.5,1,0,0,rectangle,-7.5,-6.5,1,0,0,-7.5,-6.5,1,0,0,0,150,150,3,1,,,,,,,,
,,,,,,,,,,,,,FF,,,,,,,,0.556,,,,,,,,,,,,,,,,,,,,,,60ff0b32bdb402e4252bf6b5,610377ad93523e7a465e5306,2021-07-29_23h55.29.606,Simcolourproject_2stim_asymm_v5,2020.2.10,Win32,60,61025ae37ef11b136ea224fe,,,,,,,,,2969,-55.5,-66.5,1,0,0,response5disk,,3,4.5,17.5,1,0,0,rectangle,4.5,17.5,1,0,0,4.5,17.5,1,0,0,0,151,151,69,1,,,,,,,,
,,,,,,,,,,,,,FF,,,,,,,,0.509,,,,,,,,,,,,,,,,,,,,,,60ff0b32bdb402e4252bf6b5,610377ad93523e7a465e5306,2021-07-29_23h55.29.606,Simcolourproject_2stim_asymm_v5,2020.2.10,Win32,60,61025ae37ef11b136ea224fe,,,,,,,,,3634,-40.5,-90.5,1,0,0,response5disk,,3,5.5,-9.5,1,0,0,rectangle,5.5,-9.5,1,0,0,5.5,-9.5,1,0,0,0,152,152,100,1,,,,,,,,
,,,,,,,,,,,,,FF,,,,,,,,2.643,,,,,,,,,,,,,,,,,,,,,,60ff0b32bdb402e4252bf6b5,610377ad93523e7a465e5306,2021-07-29_23h55.29.606,Simcolourproject_2stim_asymm_v5,2020.2.10,Win32,60,61025ae37ef11b136ea224fe,,,,,,,,,3974,-53.5,-89.5,1,0,0,response5disk,,3,-15.5,-14.5,1,0,0,rectangle,-15.5,-14.5,1,0,0,-15.5,-14.5,1,0,0,0,153,153,146,1,,,,,,,,
,,,,,,,,,,,,,FF,,,,,,,,0.491,,,,,,,,,,,,,,,,,,,,,,60ff0b32bdb402e4252bf6b5,610377ad93523e7a465e5306,2021-07-29_23h55.29.606,Simcolourproject_2stim_asymm_v5,2020.2.10,Win32,60,61025ae37ef11b136ea224fe,,,,,,,,,1001,48.5,-84.5,1,0,0,response3disk,,4,-1.5,7.5,1,0,0,rectangle,-1.5,7.5,1,0,0,-1.5,7.5,1,0,0,0,154,154,20,1,,,,,,,,
,,,,,,,,,,,,,FF,,,,,,,,1.085,,,,,,,,,,,,,,,,,,,,,,60ff0b32bdb402e4252bf6b5,610377ad93523e7a465e5306,2021-07-29_23h55.29.606,Simcolourproject_2stim_asymm_v5,2020.2.10,Win32,60,61025ae37ef11b136ea224fe,,,,,,,,,728,-27.5,-86.5,1,0,0,response5disk,,3,2.5,5.5,1,0,0,rectangle,2.5,5.5,1,0,0,2.5,5.5,1,0,0,0,155,155,42,1,,,,,,,,
,,,,,,,,,,,,,FF,,,,,,,,1.078,,,,,,,,,,,,,,,,,,,,,,60ff0b32bdb402e4252bf6b5,610377ad93523e7a465e5306,2021-07-29_23h55.29.606,Simcolourproject_2stim_asymm_v5,2020.2.10,Win32,60,61025ae37ef11b136ea224fe,,,,,,,,,4269,-96.5,-72.5,1,0,0,response5disk,,2,6.5,-8.5,1,0,0,rectangle,6.5,-8.5,1,0,0,6.5,-8.5,1,0,0,0,156,156,71,1,,,,,,,,
,,,,,,,,,,,,,FF,,,,,,,,0.466,,,,,,,,,,,,,,,,,,,,,,60ff0b32bdb402e4252bf6b5,610377ad93523e7a465e5306,2021-07-29_23h55.29.606,Simcolourproject_2stim_asymm_v5,2020.2.10,Win32,60,61025ae37ef11b136ea224fe,,,,,,,,,1927,33.5,-100.5,1,0,0,response3disk,,4,21.5,-1.5,1,0,0,rectangle,21.5,-1.5,1,0,0,21.5,-1.5,1,0,0,0,157,157,133,1,,,,,,,,
,,,,,,,,,,,,,FF,,,,,,,,1.436,,,,,,,,,,,,,,,,,,,,,,60ff0b32bdb402e4252bf6b5,610377ad93523e7a465e5306,2021-07-29_23h55.29.606,Simcolourproject_2stim_asymm_v5,2020.2.10,Win32,60,61025ae37ef11b136ea224fe,,,,,,,,,738,35.5,-111.5,1,0,0,response3disk,,4,20.5,-18.5,1,0,0,rectangle,20.5,-18.5,1,0,0,20.5,-18.5,1,0,0,0,158,158,124,1,,,,,,,,
,,,,,,,,,,,,,FF,,,,,,,,1.29,,,,,,,,,,,,,,,,,,,,,,60ff0b32bdb402e4252bf6b5,610377ad93523e7a465e5306,2021-07-29_23h55.29.606,Simcolourproject_2stim_asymm_v5,2020.2.10,Win32,60,61025ae37ef11b136ea224fe,,,,,,,,,420,52.5,-110.5,1,0,0,response3disk,,4,-5.5,-18.5,1,0,0,rectangle,-5.5,-18.5,1,0,0,-5.5,-18.5,1,0,0,0,159,159,37,1,,,,,,,,
,,,,,,,,,,,,,FF,,,,,,,,0.588,,,,,,,,,,,,,,,,,,,,,,60ff0b32bdb402e4252bf6b5,610377ad93523e7a465e5306,2021-07-29_23h55.29.606,Simcolourproject_2stim_asymm_v5,2020.2.10,Win32,60,61025ae37ef11b136ea224fe,,,,,,,,,749,90.5,-57.5,1,0,0,response3disk,,5,-12.5,5.5,1,0,0,rectangle,-12.5,5.5,1,0,0,-12.5,5.5,1,0,0,1,0,160,100,1,,,,,,,,
,,,,,,,,,,,,,FF,,,,,,,,0.442,,,,,,,,,,,,,,,,,,,,,,60ff0b32bdb402e4252bf6b5,610377ad93523e7a465e5306,2021-07-29_23h55.29.606,Simcolourproject_2stim_asymm_v5,2020.2.10,Win32,60,61025ae37ef11b136ea224fe,,,,,,,,,4139,109.5,-40.5,1,0,0,response3disk,,5,2.5,-2.5,1,0,0,rectangle,2.5,-2.5,1,0,0,2.5,-2.5,1,0,0,1,1,161,6,1,,,,,,,,
,,,,,,,,,,,,,FF,,,,,,,,0.934,,,,,,,,,,,,,,,,,,,,,,60ff0b32bdb402e4252bf6b5,610377ad93523e7a465e5306,2021-07-29_23h55.29.606,Simcolourproject_2stim_asymm_v5,2020.2.10,Win32,60,61025ae37ef11b136ea224fe,,,,,,,,,70,-35.5,-93.5,1,0,0,response5disk,,3,16.5,-16.5,1,0,0,rectangle,16.5,-16.5,1,0,0,16.5,-16.5,1,0,0,1,2,162,33,1,,,,,,,,
,,,,,,,,,,,,,FF,,,,,,,,0.612,,,,,,,,,,,,,,,,,,,,,,60ff0b32bdb402e4252bf6b5,610377ad93523e7a465e5306,2021-07-29_23h55.29.606,Simcolourproject_2stim_asymm_v5,2020.2.10,Win32,60,61025ae37ef11b136ea224fe,,,,,,,,,2245,-48.5,-74.5,1,0,0,response5disk,,3,8.5,19.5,1,0,0,rectangle,8.5,19.5,1,0,0,8.5,19.5,1,0,0,1,3,163,157,1,,,,,,,,
,,,,,,,,,,,,,FF,,,,,,,,1.201,,,,,,,,,,,,,,,,,,,,,,60ff0b32bdb402e4252bf6b5,610377ad93523e7a465e5306,2021-07-29_23h55.29.606,Simcolourproject_2stim_asymm_v5,2020.2.10,Win32,60,61025ae37ef11b136ea224fe,,,,,,,,,2874,36.5,-86.5,1,0,0,response3disk,,4,-2.5,3.5,1,0,0,rectangle,-2.5,3.5,1,0,0,-2.5,3.5,1,0,0,1,4,164,131,1,,,,,,,,
,,,,,,,,,,,,,FF,,,,,,,,0.915,,,,,,,,,,,,,,,,,,,,,,60ff0b32bdb402e4252bf6b5,610377ad93523e7a465e5306,2021-07-29_23h55.29.606,Simcolourproject_2stim_asymm_v5,2020.2.10,Win32,60,61025ae37ef11b136ea224fe,,,,,,,,,1642,22.5,-118.5,1,0,0,response3disk,,4,6.5,-15.5,1,0,0,rectangle,6.5,-15.5,1,0,0,6.5,-15.5,1,0,0,1,5,165,145,1,,,,,,,,
,,,,,,,,,,,,,FF,,,,,,,,2.207,,,,,,,,,,,,,,,,,,,,,,60ff0b32bdb402e4252bf6b5,610377ad93523e7a465e5306,2021-07-29_23h55.29.606,Simcolourproject_2stim_asymm_v5,2020.2.10,Win32,60,61025ae37ef11b136ea224fe,,,,,,,,,239,32.5,-98.5,1,0,0,response3disk,,4,6.5,-10.5,1,0,0,rectangle,6.5,-10.5,1,0,0,6.5,-10.5,1,0,0,1,6,166,98,1,,,,,,,,
,,,,,,,,,,,,,FF,,,,,,,,0.752,,,,,,,,,,,,,,,,,,,,,,60ff0b32bdb402e4252bf6b5,610377ad93523e7a465e5306,2021-07-29_23h55.29.606,Simcolourproject_2stim_asymm_v5,2020.2.10,Win32,60,61025ae37ef11b136ea224fe,,,,,,,,,2424,-29.5,-138.5,1,0,0,response5disk,,3,9.5,-16.5,1,0,0,rectangle,9.5,-16.5,1,0,0,9.5,-16.5,1,0,0,1,7,167,49,1,,,,,,,,
,,,,,,,,,,,,,FF,,,,,,,,0.709,,,,,,,,,,,,,,,,,,,,,,60ff0b32bdb402e4252bf6b5,610377ad93523e7a465e5306,2021-07-29_23h55.29.606,Simcolourproject_2stim_asymm_v5,2020.2.10,Win32,60,61025ae37ef11b136ea224fe,,,,,,,,,2469,29.5,-78.5,1,0,0,response3disk,,4,-3.5,-11.5,1,0,0,rectangle,-3.5,-11.5,1,0,0,-3.5,-11.5,1,0,0,1,8,168,153,1,,,,,,,,
,,,,,,,,,,,,,FF,,,,,,,,0.789,,,,,,,,,,,,,,,,,,,,,,60ff0b32bdb402e4252bf6b5,610377ad93523e7a465e5306,2021-07-29_23h55.29.606,Simcolourproject_2stim_asymm_v5,2020.2.10,Win32,60,61025ae37ef11b136ea224fe,,,,,,,,,1136,-60.5,-83.5,1,0,0,response5disk,,3,-15.5,-8.5,1,0,0,rectangle,-15.5,-8.5,1,0,0,-15.5,-8.5,1,0,0,1,9,169,41,1,,,,,,,,
,,,,,,,,,,,,,FF,,,,,,,,0.521,,,,,,,,,,,,,,,,,,,,,,60ff0b32bdb402e4252bf6b5,610377ad93523e7a465e5306,2021-07-29_23h55.29.606,Simcolourproject_2stim_asymm_v5,2020.2.10,Win32,60,61025ae37ef11b136ea224fe,,,,,,,,,155,58.5,-66.5,1,0,0,response3disk,,4,20.5,-20.5,1,0,0,rectangle,20.5,-20.5,1,0,0,20.5,-20.5,1,0,0,1,10,170,56,1,,,,,,,,
,,,,,,,,,,,,,FF,,,,,,,,1.103,,,,,,,,,,,,,,,,,,,,,,60ff0b32bdb402e4252bf6b5,610377ad93523e7a465e5306,2021-07-29_23h55.29.606,Simcolourproject_2stim_asymm_v5,2020.2.10,Win32,60,61025ae37ef11b136ea224fe,,,,,,,,,2599,-47.5,-137.5,1,0,0,response5disk,,3,-14.5,-20.5,1,0,0,rectangle,-14.5,-20.5,1,0,0,-14.5,-20.5,1,0,0,1,11,171,91,1,,,,,,,,
,,,,,,,,,,,,,FF,,,,,,,,1.836,,,,,,,,,,,,,,,,,,,,,,60ff0b32bdb402e4252bf6b5,610377ad93523e7a465e5306,2021-07-29_23h55.29.606,Simcolourproject_2stim_asymm_v5,2020.2.10,Win32,60,61025ae37ef11b136ea224fe,,,,,,,,,525,-41.5,-110.5,1,0,0,response5disk,,3,-5.5,-19.5,1,0,0,rectangle,-5.5,-19.5,1,0,0,-5.5,-19.5,1,0,0,1,12,172,12,1,,,,,,,,
,,,,,,,,,,,,,FF,,,,,,,,0.352,,,,,,,,,,,,,,,,,,,,,,60ff0b32bdb402e4252bf6b5,610377ad93523e7a465e5306,2021-07-29_23h55.29.606,Simcolourproject_2stim_asymm_v5,2020.2.10,Win32,60,61025ae37ef11b136ea224fe,,,,,,,,,1571,44.5,-91.5,1,0,0,response3disk,,4,-7.5,-4.5,1,0,0,rectangle,-7.5,-4.5,1,0,0,-7.5,-4.5,1,0,0,1,13,173,65,1,,,,,,,,
,,,,,,,,,,,,,FF,,,,,,,,0.539,,,,,,,,,,,,,,,,,,,,,,60ff0b32bdb402e4252bf6b5,610377ad93523e7a465e5306,2021-07-29_23h55.29.606,Simcolourproject_2stim_asymm_v5,2020.2.10,Win32,60,61025ae37ef11b136ea224fe,,,,,,,,,1446,-56.5,-76.5,1,0,0,response5disk,,3,-21.5,18.5,1,0,0,rectangle,-21.5,18.5,1,0,0,-21.5,18.5,1,0,0,1,14,174,132,1,,,,,,,,
,,,,,,,,,,,,,FF,,,,,,,,0.696,,,,,,,,,,,,,,,,,,,,,,60ff0b32bdb402e4252bf6b5,610377ad93523e7a465e5306,2021-07-29_23h55.29.606,Simcolourproject_2stim_asymm_v5,2020.2.10,Win32,60,61025ae37ef11b136ea224fe,,,,,,,,,454,65.5,-82.5,1,0,0,response3disk,,4,-4.5,7.5,1,0,0,rectangle,-4.5,7.5,1,0,0,-4.5,7.5,1,0,0,1,15,175,129,1,,,,,,,,
,,,,,,,,,,,,,FF,,,,,,,,0.746,,,,,,,,,,,,,,,,,,,,,,60ff0b32bdb402e4252bf6b5,610377ad93523e7a465e5306,2021-07-29_23h55.29.606,Simcolourproject_2stim_asymm_v5,2020.2.10,Win32,60,61025ae37ef11b136ea224fe,,,,,,,,,2813,76.5,-49.5,1,0,0,response3disk,,5,-13.5,7.5,1,0,0,rectangle,-13.5,7.5,1,0,0,-13.5,7.5,1,0,0,1,16,176,0,1,,,,,,,,
,,,,,,,,,,,,,FF,,,,,,,,0.425,,,,,,,,,,,,,,,,,,,,,,60ff0b32bdb402e4252bf6b5,610377ad93523e7a465e5306,2021-07-29_23h55.29.606,Simcolourproject_2stim_asymm_v5,2020.2.10,Win32,60,61025ae37ef11b136ea224fe,,,,,,,,,1992,69.5,-44.5,1,0,0,response3disk,,5,-25.5,-3.5,1,0,0,rectangle,-25.5,-3.5,1,0,0,-25.5,-3.5,1,0,0,1,17,177,14,1,,,,,,,,
,,,,,,,,,,,,,FF,,,,,,,,1.133,,,,,,,,,,,,,,,,,,,,,,60ff0b32bdb402e4252bf6b5,610377ad93523e7a465e5306,2021-07-29_23h55.29.606,Simcolourproject_2stim_asymm_v5,2020.2.10,Win32,60,61025ae37ef11b136ea224fe,,,,,,,,,4207,-94.5,35.5,1,0,0,response7disk,,1,25.5,5.5,1,0,0,rectangle,25.5,5.5,1,0,0,25.5,5.5,1,0,0,1,18,178,18,1,,,,,,,,
,,,,,,,,,,,,,FF,,,,,,,,0.583,,,,,,,,,,,,,,,,,,,,,,60ff0b32bdb402e4252bf6b5,610377ad93523e7a465e5306,2021-07-29_23h55.29.606,Simcolourproject_2stim_asymm_v5,2020.2.10,Win32,60,61025ae37ef11b136ea224fe,,,,,,,,,1885,37.5,-125.5,1,0,0,response3disk,,4,-17.5,-16.5,1,0,0,rectangle,-17.5,-16.5,1,0,0,-17.5,-16.5,1,0,0,1,19,179,133,1,,,,,,,,
,,,,,,,,,,,,,FF,,,,,,,,0.958,,,,,,,,,,,,,,,,,,,,,,60ff0b32bdb402e4252bf6b5,610377ad93523e7a465e5306,2021-07-29_23h55.29.606,Simcolourproject_2stim_asymm_v5,2020.2.10,Win32,60,61025ae37ef11b136ea224fe,,,,,,,,,1895,-41.5,-86.5,1,0,0,response5disk,,3,3.5,-20.5,1,0,0,rectangle,52.5,71.5,1,0,0,13.5,-18.5,1,0,0,1,20,180,29,1,,response1disk_3,TRUE,7,7,"[217,272,147,142,20,106,267,216,213,144,119,307,8,181,231,70,102,14,323,24]",1.672,rectangle
,,,,,,,,,,,,,FF,,,,,,,,0.976,,,,,,,,,,,,,,,,,,,,,,60ff0b32bdb402e4252bf6b5,610377ad93523e7a465e5306,2021-07-29_23h55.29.606,Simcolourproject_2stim_asymm_v5,2020.2.10,Win32,60,61025ae37ef11b136ea224fe,,,,,,,,,0,-119.5,61.5,1,0,0,response7disk,,1,-29.5,13.5,1,0,0,rectangle,-29.5,13.5,1,0,0,-29.5,13.5,1,0,0,1,21,181,137,1,,,,,,,,
,,,,,,,,,,,,,FF,,,,,,,,2.91,,,,,,,,,,,,,,,,,,,,,,60ff0b32bdb402e4252bf6b5,610377ad93523e7a465e5306,2021-07-29_23h55.29.606,Simcolourproject_2stim_asymm_v5,2020.2.10,Win32,60,61025ae37ef11b136ea224fe,,,,,,,,,2340,-43.5,-68.5,1,0,0,response5disk,,3,-31.5,-19.5,1,0,0,rectangle,-31.5,-19.5,1,0,0,-31.5,-19.5,1,0,0,1,22,182,105,1,,,,,,,,
,,,,,,,,,,,,,FF,,,,,,,,0.581,,,,,,,,,,,,,,,,,,,,,,60ff0b32bdb402e4252bf6b5,610377ad93523e7a465e5306,2021-07-29_23h55.29.606,Simcolourproject_2stim_asymm_v5,2020.2.10,Win32,60,61025ae37ef11b136ea224fe,,,,,,,,,3987,22.5,-78.5,1,0,0,response3disk,,4,1.5,-7.5,1,0,0,rectangle,1.5,-7.5,1,0,0,1.5,-7.5,1,0,0,1,23,183,126,1,,,,,,,,
,,,,,,,,,,,,,FF,,,,,,,,0.345,,,,,,,,,,,,,,,,,,,,,,60ff0b32bdb402e4252bf6b5,610377ad93523e7a465e5306,2021-07-29_23h55.29.606,Simcolourproject_2stim_asymm_v5,2020.2.10,Win32,60,61025ae37ef11b136ea224fe,,,,,,,,,1514,30.5,-73.5,1,0,0,response3disk,,4,8.5,-12.5,1,0,0,rectangle,8.5,-12.5,1,0,0,8.5,-12.5,1,0,0,1,24,184,25,1,,,,,,,,
,,,,,,,,,,,,,FF,,,,,,,,0.509,,,,,,,,,,,,,,,,,,,,,,60ff0b32bdb402e4252bf6b5,610377ad93523e7a465e5306,2021-07-29_23h55.29.606,Simcolourproject_2stim_asymm_v5,2020.2.10,Win32,60,61025ae37ef11b136ea224fe,,,,,,,,,1667,46.5,-90.5,1,0,0,response3disk,,4,7.5,-17.5,1,0,0,rectangle,7.5,-17.5,1,0,0,7.5,-17.5,1,0,0,1,25,185,87,1,,,,,,,,
,,,,,,,,,,,,,FF,,,,,,,,0.745,,,,,,,,,,,,,,,,,,,,,,60ff0b32bdb402e4252bf6b5,610377ad93523e7a465e5306,2021-07-29_23h55.29.606,Simcolourproject_2stim_asymm_v5,2020.2.10,Win32,60,61025ae37ef11b136ea224fe,,,,,,,,,1930,18.5,-74.5,1,0,0,response3disk,,4,-4.5,4.5,1,0,0,rectangle,-4.5,4.5,1,0,0,-4.5,4.5,1,0,0,1,26,186,119,1,,,,,,,,
,,,,,,,,,,,,,FF,,,,,,,,0.521,,,,,,,,,,,,,,,,,,,,,,60ff0b32bdb402e4252bf6b5,610377ad93523e7a465e5306,2021-07-29_23h55.29.606,Simcolourproject_2stim_asymm_v5,2020.2.10,Win32,60,61025ae37ef11b136ea224fe,,,,,,,,,3127,30.5,-60.5,1,0,0,response3disk,,4,15.5,-6.5,1,0,0,rectangle,15.5,-6.5,1,0,0,15.5,-6.5,1,0,0,1,27,187,71,1,,,,,,,,
,,,,,,,,,,,,,FF,,,,,,,,0.538,,,,,,,,,,,,,,,,,,,,,,60ff0b32bdb402e4252bf6b5,610377ad93523e7a465e5306,2021-07-29_23h55.29.606,Simcolourproject_2stim_asymm_v5,2020.2.10,Win32,60,61025ae37ef11b136ea224fe,,,,,,,,,156,32.5,-78.5,1,0,0,response3disk,,4,4.5,-14.5,1,0,0,rectangle,4.5,-14.5,1,0,0,4.5,-14.5,1,0,0,1,28,188,16,1,,,,,,,,
,,,,,,,,,,,,,FF,,,,,,,,0.382,,,,,,,,,,,,,,,,,,,,,,60ff0b32bdb402e4252bf6b5,610377ad93523e7a465e5306,2021-07-29_23h55.29.606,Simcolourproject_2stim_asymm_v5,2020.2.10,Win32,60,61025ae37ef11b136ea224fe,,,,,,,,,1449,-27.5,-90.5,1,0,0,response5disk,,3,6.5,-14.5,1,0,0,rectangle,6.5,-14.5,1,0,0,6.5,-14.5,1,0,0,1,29,189,30,1,,,,,,,,
,,,,,,,,,,,,,FF,,,,,,,,0.382,,,,,,,,,,,,,,,,,,,,,,60ff0b32bdb402e4252bf6b5,610377ad93523e7a465e5306,2021-07-29_23h55.29.606,Simcolourproject_2stim_asymm_v5,2020.2.10,Win32,60,61025ae37ef11b136ea224fe,,,,,,,,,328,42.5,-79.5,1,0,0,response3disk,,4,-17.5,13.5,1,0,0,rectangle,-17.5,13.5,1,0,0,-17.5,13.5,1,0,0,1,30,190,102,1,,,,,,,,
,,,,,,,,,,,,,FF,,,,,,,,1.03,,,,,,,,,,,,,,,,,,,,,,60ff0b32bdb402e4252bf6b5,610377ad93523e7a465e5306,2021-07-29_23h55.29.606,Simcolourproject_2stim_asymm_v5,2020.2.10,Win32,60,61025ae37ef11b136ea224fe,,,,,,,,,3,-39.5,-98.5,1,0,0,response5disk,,3,-22.5,-7.5,1,0,0,rectangle,-22.5,-7.5,1,0,0,-22.5,-7.5,1,0,0,1,31,191,85,1,,,,,,,,
,,,,,,,,,,,,,FF,,,,,,,,0.4,,,,,,,,,,,,,,,,,,,,,,60ff0b32bdb402e4252bf6b5,610377ad93523e7a465e5306,2021-07-29_23h55.29.606,Simcolourproject_2stim_asymm_v5,2020.2.10,Win32,60,61025ae37ef11b136ea224fe,,,,,,,,,253,-39.5,-66.5,1,0,0,response5disk,,3,6.5,13.5,1,0,0,rectangle,6.5,13.5,1,0,0,6.5,13.5,1,0,0,1,32,192,3,1,,,,,,,,
,,,,,,,,,,,,,FF,,,,,,,,1.109,,,,,,,,,,,,,,,,,,,,,,60ff0b32bdb402e4252bf6b5,610377ad93523e7a465e5306,2021-07-29_23h55.29.606,Simcolourproject_2stim_asymm_v5,2020.2.10,Win32,60,61025ae37ef11b136ea224fe,,,,,,,,,3341,-21.5,-74.5,1,0,0,response5disk,,3,14.5,-9.5,1,0,0,rectangle,14.5,-9.5,1,0,0,14.5,-9.5,1,0,0,1,33,193,108,1,,,,,,,,
,,,,,,,,,,,,,FF,,,,,,,,0.346,,,,,,,,,,,,,,,,,,,,,,60ff0b32bdb402e4252bf6b5,610377ad93523e7a465e5306,2021-07-29_23h55.29.606,Simcolourproject_2stim_asymm_v5,2020.2.10,Win32,60,61025ae37ef11b136ea224fe,,,,,,,,,3844,-28.5,-76.5,1,0,0,response5disk,,3,-0.5,-18.5,1,0,0,rectangle,-0.5,-18.5,1,0,0,-0.5,-18.5,1,0,0,1,34,194,96,1,,,,,,,,
,,,,,,,,,,,,,FF,,,,,,,,1.199,,,,,,,,,,,,,,,,,,,,,,60ff0b32bdb402e4252bf6b5,610377ad93523e7a465e5306,2021-07-29_23h55.29.606,Simcolourproject_2stim_asymm_v5,2020.2.10,Win32,60,61025ae37ef11b136ea224fe,,,,,,,,,2466,20.5,-69.5,1,0,0,response3disk,,4,7.5,-0.5,1,0,0,rectangle,7.5,-0.5,1,0,0,7.5,-0.5,1,0,0,1,35,195,113,1,,,,,,,,
,,,,,,,,,,,,,FF,,,,,,,,0.982,,,,,,,,,,,,,,,,,,,,,,60ff0b32bdb402e4252bf6b5,610377ad93523e7a465e5306,2021-07-29_23h55.29.606,Simcolourproject_2stim_asymm_v5,2020.2.10,Win32,60,61025ae37ef11b136ea224fe,,,,,,,,,2797,71.5,-36.5,1,0,0,response3disk,,5,-19.5,-3.5,1,0,0,rectangle,-19.5,-3.5,1,0,0,-19.5,-3.5,1,0,0,1,36,196,112,1,,,,,,,,
,,,,,,,,,,,,,FF,,,,,,,,0.443,,,,,,,,,,,,,,,,,,,,,,60ff0b32bdb402e4252bf6b5,610377ad93523e7a465e5306,2021-07-29_23h55.29.606,Simcolourproject_2stim_asymm_v5,2020.2.10,Win32,60,61025ae37ef11b136ea224fe,,,,,,,,,599,82.5,-38.5,1,0,0,response3disk,,5,12.5,-14.5,1,0,0,rectangle,12.5,-14.5,1,0,0,12.5,-14.5,1,0,0,1,37,197,53,1,,,,,,,,
,,,,,,,,,,,,,FF,,,,,,,,0.757,,,,,,,,,,,,,,,,,,,,,,60ff0b32bdb402e4252bf6b5,610377ad93523e7a465e5306,2021-07-29_23h55.29.606,Simcolourproject_2stim_asymm_v5,2020.2.10,Win32,60,61025ae37ef11b136ea224fe,,,,,,,,,1727,58.5,-43.5,1,0,0,response3disk,,5,40.5,-8.5,1,0,0,rectangle,40.5,-8.5,1,0,0,40.5,-8.5,1,0,0,1,38,198,63,1,,,,,,,,
,,,,,,,,,,,,,FF,,,,,,,,0.364,,,,,,,,,,,,,,,,,,,,,,60ff0b32bdb402e4252bf6b5,610377ad93523e7a465e5306,2021-07-29_23h55.29.606,Simcolourproject_2stim_asymm_v5,2020.2.10,Win32,60,61025ae37ef11b136ea224fe,,,,,,,,,1844,84.5,-49.5,1,0,0,response3disk,,5,34.5,-14.5,1,0,0,rectangle,34.5,-14.5,1,0,0,34.5,-14.5,1,0,0,1,39,199,118,1,,,,,,,,
,,,,,,,,,,,,,FF,,,,,,,,0.934,,,,,,,,,,,,,,,,,,,,,,60ff0b32bdb402e4252bf6b5,610377ad93523e7a465e5306,2021-07-29_23h55.29.606,Simcolourproject_2stim_asymm_v5,2020.2.10,Win32,60,61025ae37ef11b136ea224fe,,,,,,,,,1206,-77.5,24.5,1,0,0,response7disk,,1,2.5,5.5,1,0,0,rectangle,2.5,5.5,1,0,0,2.5,5.5,1,0,0,1,40,200,125,1,,,,,,,,
,,,,,,,,,,,,,FF,,,,,,,,0.504,,,,,,,,,,,,,,,,,,,,,,60ff0b32bdb402e4252bf6b5,610377ad93523e7a465e5306,2021-07-29_23h55.29.606,Simcolourproject_2stim_asymm_v5,2020.2.10,Win32,60,61025ae37ef11b136ea224fe,,,,,,,,,2058,60.5,-28.5,1,0,0,response3disk,,5,-20.5,16.5,1,0,0,rectangle,-20.5,16.5,1,0,0,-20.5,16.5,1,0,0,1,41,201,140,1,,,,,,,,
,,,,,,,,,,,,,FF,,,,,,,,0.326,,,,,,,,,,,,,,,,,,,,,,60ff0b32bdb402e4252bf6b5,610377ad93523e7a465e5306,2021-07-29_23h55.29.606,Simcolourproject_2stim_asymm_v5,2020.2.10,Win32,60,61025ae37ef11b136ea224fe,,,,,,,,,254,96.5,-31.5,1,0,0,response3disk,,5,-1.5,3.5,1,0,0,rectangle,-1.5,3.5,1,0,0,-1.5,3.5,1,0,0,1,42,202,103,1,,,,,,,,
,,,,,,,,,,,,,FF,,,,,,,,1.57,,,,,,,,,,,,,,,,,,,,,,60ff0b32bdb402e4252bf6b5,610377ad93523e7a465e5306,2021-07-29_23h55.29.606,Simcolourproject_2stim_asymm_v5,2020.2.10,Win32,60,61025ae37ef11b136ea224fe,,,,,,,,,134,34.5,-57.5,1,0,0,response3disk,,4,-27.5,8.5,1,0,0,rectangle,-27.5,8.5,1,0,0,-27.5,8.5,1,0,0,1,43,203,55,1,,,,,,,,
,,,,,,,,,,,,,FF,,,,,,,,0.54,,,,,,,,,,,,,,,,,,,,,,60ff0b32bdb402e4252bf6b5,610377ad93523e7a465e5306,2021-07-29_23h55.29.606,Simcolourproject_2stim_asymm_v5,2020.2.10,Win32,60,61025ae37ef11b136ea224fe,,,,,,,,,624,100.5,-62.5,1,0,0,response3disk,,5,2.5,-8.5,1,0,0,rectangle,2.5,-8.5,1,0,0,2.5,-8.5,1,0,0,1,44,204,143,1,,,,,,,,
,,,,,,,,,,,,,FF,,,,,,,,0.842,,,,,,,,,,,,,,,,,,,,,,60ff0b32bdb402e4252bf6b5,610377ad93523e7a465e5306,2021-07-29_23h55.29.606,Simcolourproject_2stim_asymm_v5,2020.2.10,Win32,60,61025ae37ef11b136ea224fe,,,,,,,,,1735,-59.5,-70.5,1,0,0,response5disk,,3,-19.5,-14.5,1,0,0,rectangle,-19.5,-14.5,1,0,0,-19.5,-14.5,1,0,0,1,45,205,92,1,,,,,,,,
,,,,,,,,,,,,,FF,,,,,,,,0.836,,,,,,,,,,,,,,,,,,,,,,60ff0b32bdb402e4252bf6b5,610377ad93523e7a465e5306,2021-07-29_23h55.29.606,Simcolourproject_2stim_asymm_v5,2020.2.10,Win32,60,61025ae37ef11b136ea224fe,,,,,,,,,4280,-80.5,42.5,1,0,0,response7disk,,1,22.5,10.5,1,0,0,rectangle,22.5,10.5,1,0,0,22.5,10.5,1,0,0,1,46,206,64,1,,,,,,,,
,,,,,,,,,,,,,FF,,,,,,,,0.617,,,,,,,,,,,,,,,,,,,,,,60ff0b32bdb402e4252bf6b5,610377ad93523e7a465e5306,2021-07-29_23h55.29.606,Simcolourproject_2stim_asymm_v5,2020.2.10,Win32,60,61025ae37ef11b136ea224fe,,,,,,,,,4263,43.5,-102.5,1,0,0,response3disk,,4,-18.5,11.5,1,0,0,rectangle,-18.5,11.5,1,0,0,-18.5,11.5,1,0,0,1,47,207,148,1,,,,,,,,
,,,,,,,,,,,,,FF,,,,,,,,0.4,,,,,,,,,,,,,,,,,,,,,,60ff0b32bdb402e4252bf6b5,610377ad93523e7a465e5306,2021-07-29_23h55.29.606,Simcolourproject_2stim_asymm_v5,2020.2.10,Win32,60,61025ae37ef11b136ea224fe,,,,,,,,,589,28.5,-67.5,1,0,0,response3disk,,4,-17.5,0.5,1,0,0,rectangle,-17.5,0.5,1,0,0,-17.5,0.5,1,0,0,1,48,208,141,1,,,,,,,,
,,,,,,,,,,,,,FF,,,,,,,,0.532,,,,,,,,,,,,,,,,,,,,,,60ff0b32bdb402e4252bf6b5,610377ad93523e7a465e5306,2021-07-29_23h55.29.606,Simcolourproject_2stim_asymm_v5,2020.2.10,Win32,60,61025ae37ef11b136ea224fe,,,,,,,,,3635,33.5,-59.5,1,0,0,response3disk,,4,-29.5,-10.5,1,0,0,rectangle,-29.5,-10.5,1,0,0,-29.5,-10.5,1,0,0,1,49,209,39,1,,,,,,,,
,,,,,,,,,,,,,FF,,,,,,,,0.345,,,,,,,,,,,,,,,,,,,,,,60ff0b32bdb402e4252bf6b5,610377ad93523e7a465e5306,2021-07-29_23h55.29.606,Simcolourproject_2stim_asymm_v5,2020.2.10,Win32,60,61025ae37ef11b136ea224fe,,,,,,,,,2900,-37.5,-88.5,1,0,0,response5disk,,3,2.5,-0.5,1,0,0,rectangle,2.5,-0.5,1,0,0,2.5,-0.5,1,0,0,1,50,210,26,1,,,,,,,,
,,,,,,,,,,,,,FF,,,,,,,,1.018,,,,,,,,,,,,,,,,,,,,,,60ff0b32bdb402e4252bf6b5,610377ad93523e7a465e5306,2021-07-29_23h55.29.606,Simcolourproject_2stim_asymm_v5,2020.2.10,Win32,60,61025ae37ef11b136ea224fe,,,,,,,,,196,23.5,-49.5,1,0,0,response3disk,,4,-11.5,-2.5,1,0,0,rectangle,-11.5,-2.5,1,0,0,-11.5,-2.5,1,0,0,1,51,211,116,1,,,,,,,,
,,,,,,,,,,,,,FF,,,,,,,,0.418,,,,,,,,,,,,,,,,,,,,,,60ff0b32bdb402e4252bf6b5,610377ad93523e7a465e5306,2021-07-29_23h55.29.606,Simcolourproject_2stim_asymm_v5,2020.2.10,Win32,60,61025ae37ef11b136ea224fe,,,,,,,,,3175,44.5,-80.5,1,0,0,response3disk,,4,8.5,-17.5,1,0,0,rectangle,47.5,-90.5,1,0,0,-6.5,1.5,1,0,0,1,52,212,31,1,,response3disk_3,TRUE,4,7,"[217,272,147,142,20,106,267,216,213,144,119,307,8,181,231,70,102,14,323,24]",0.358,rectangle
,,,,,,,,,,,,,FF,,,,,,,,0.527,,,,,,,,,,,,,,,,,,,,,,60ff0b32bdb402e4252bf6b5,610377ad93523e7a465e5306,2021-07-29_23h55.29.606,Simcolourproject_2stim_asymm_v5,2020.2.10,Win32,60,61025ae37ef11b136ea224fe,,,,,,,,,3716,65.5,-73.5,1,0,0,response3disk,,4,34.5,-12.5,1,0,0,rectangle,34.5,-12.5,1,0,0,34.5,-12.5,1,0,0,1,53,213,121,1,,,,,,,,
,,,,,,,,,,,,,FF,,,,,,,,0.509,,,,,,,,,,,,,,,,,,,,,,60ff0b32bdb402e4252bf6b5,610377ad93523e7a465e5306,2021-07-29_23h55.29.606,Simcolourproject_2stim_asymm_v5,2020.2.10,Win32,60,61025ae37ef11b136ea224fe,,,,,,,,,2933,78.5,-64.5,1,0,0,response3disk,,5,-11.5,-0.5,1,0,0,rectangle,-11.5,-0.5,1,0,0,-11.5,-0.5,1,0,0,1,54,214,104,1,,,,,,,,
,,,,,,,,,,,,,FF,,,,,,,,0.309,,,,,,,,,,,,,,,,,,,,,,60ff0b32bdb402e4252bf6b5,610377ad93523e7a465e5306,2021-07-29_23h55.29.606,Simcolourproject_2stim_asymm_v5,2020.2.10,Win32,60,61025ae37ef11b136ea224fe,,,,,,,,,1351,75.5,-84.5,1,0,0,response3disk,,4,-0.5,-4.5,1,0,0,rectangle,-35.5,87.5,1,0,0,19.5,3.5,1,0,0,1,55,215,34,1,,response7disk_3,TRUE,0,0,"[217,272,147,142,20,106,267,216,213,144,119,307,8,181,231,70,102,14,323,24]",1.326,rectangle
,,,,,,,,,,,,,FF,,,,,,,,1.048,,,,,,,,,,,,,,,,,,,,,,60ff0b32bdb402e4252bf6b5,610377ad93523e7a465e5306,2021-07-29_23h55.29.606,Simcolourproject_2stim_asymm_v5,2020.2.10,Win32,60,61025ae37ef11b136ea224fe,,,,,,,,,280,66.5,-83.5,1,0,0,response3disk,,4,-7.5,4.5,1,0,0,rectangle,126.5,33.5,1,0,0,32.5,-15.5,1,0,0,1,56,216,154,1,,response1disk_3,TRUE,6,6,"[217,272,147,142,20,106,267,216,213,144,119,307,8,181,231,70,102,14,323,24]",2.023,rectangle
,,,,,,,,,,,,,FF,,,,,,,,0.63,,,,,,,,,,,,,,,,,,,,,,60ff0b32bdb402e4252bf6b5,610377ad93523e7a465e5306,2021-07-29_23h55.29.606,Simcolourproject_2stim_asymm_v5,2020.2.10,Win32,60,61025ae37ef11b136ea224fe,,,,,,,,,3918,-36.5,-86.5,1,0,0,response5disk,,3,4.5,-6.5,1,0,0,rectangle,4.5,-6.5,1,0,0,4.5,-6.5,1,0,0,1,57,217,23,1,,,,,,,,
,,,,,,,,,,,,,FF,,,,,,,,0.751,,,,,,,,,,,,,,,,,,,,,,60ff0b32bdb402e4252bf6b5,610377ad93523e7a465e5306,2021-07-29_23h55.29.606,Simcolourproject_2stim_asymm_v5,2020.2.10,Win32,60,61025ae37ef11b136ea224fe,,,,,,,,,2105,-51.5,-83.5,1,0,0,response5disk,,3,-12.5,-5.5,1,0,0,rectangle,-12.5,-5.5,1,0,0,-12.5,-5.5,1,0,0,1,58,218,122,1,,,,,,,,
,,,,,,,,,,,,,FF,,,,,,,,0.533,,,,,,,,,,,,,,,,,,,,,,60ff0b32bdb402e4252bf6b5,610377ad93523e7a465e5306,2021-07-29_23h55.29.606,Simcolourproject_2stim_asymm_v5,2020.2.10,Win32,60,61025ae37ef11b136ea224fe,,,,,,,,,1549,22.5,-92.5,1,0,0,response3disk,,4,-5.5,-13.5,1,0,0,rectangle,-5.5,-13.5,1,0,0,-5.5,-13.5,1,0,0,1,59,219,110,1,,,,,,,,
,,,,,,,,,,,,,FF,,,,,,,,0.795,,,,,,,,,,,,,,,,,,,,,,60ff0b32bdb402e4252bf6b5,610377ad93523e7a465e5306,2021-07-29_23h55.29.606,Simcolourproject_2stim_asymm_v5,2020.2.10,Win32,60,61025ae37ef11b136ea224fe,,,,,,,,,4237,28.5,-106.5,1,0,0,response3disk,,4,4.5,-19.5,1,0,0,rectangle,4.5,-19.5,1,0,0,4.5,-19.5,1,0,0,1,60,220,134,1,,,,,,,,
,,,,,,,,,,,,,FF,,,,,,,,1.17,,,,,,,,,,,,,,,,,,,,,,60ff0b32bdb402e4252bf6b5,610377ad93523e7a465e5306,2021-07-29_23h55.29.606,Simcolourproject_2stim_asymm_v5,2020.2.10,Win32,60,61025ae37ef11b136ea224fe,,,,,,,,,2471,52.5,-27.5,1,0,0,response3disk,,5,1.5,-11.5,1,0,0,rectangle,1.5,-11.5,1,0,0,1.5,-11.5,1,0,0,1,61,221,20,1,,,,,,,,
,,,,,,,,,,,,,FF,,,,,,,,0.703,,,,,,,,,,,,,,,,,,,,,,60ff0b32bdb402e4252bf6b5,610377ad93523e7a465e5306,2021-07-29_23h55.29.606,Simcolourproject_2stim_asymm_v5,2020.2.10,Win32,60,61025ae37ef11b136ea224fe,,,,,,,,,2055,102.5,-38.5,1,0,0,response3disk,,5,-9.5,-2.5,1,0,0,rectangle,-9.5,-2.5,1,0,0,-9.5,-2.5,1,0,0,1,62,222,36,1,,,,,,,,
,,,,,,,,,,,,,FF,,,,,,,,0.328,,,,,,,,,,,,,,,,,,,,,,60ff0b32bdb402e4252bf6b5,610377ad93523e7a465e5306,2021-07-29_23h55.29.606,Simcolourproject_2stim_asymm_v5,2020.2.10,Win32,60,61025ae37ef11b136ea224fe,,,,,,,,,857,93.5,-50.5,1,0,0,response3disk,,5,-16.5,-2.5,1,0,0,rectangle,-16.5,-2.5,1,0,0,-16.5,-2.5,1,0,0,1,63,223,1,1,,,,,,,,
,,,,,,,,,,,,,FF,,,,,,,,0.388,,,,,,,,,,,,,,,,,,,,,,60ff0b32bdb402e4252bf6b5,610377ad93523e7a465e5306,2021-07-29_23h55.29.606,Simcolourproject_2stim_asymm_v5,2020.2.10,Win32,60,61025ae37ef11b136ea224fe,,,,,,,,,1348,82.5,-40.5,1,0,0,response3disk,,5,-20.5,-19.5,1,0,0,rectangle,-20.5,-19.5,1,0,0,-20.5,-19.5,1,0,0,1,64,224,37,1,,,,,,,,
,,,,,,,,,,,,,FF,,,,,,,,0.921,,,,,,,,,,,,,,,,,,,,,,60ff0b32bdb402e4252bf6b5,610377ad93523e7a465e5306,2021-07-29_23h55.29.606,Simcolourproject_2stim_asymm_v5,2020.2.10,Win32,60,61025ae37ef11b136ea224fe,,,,,,,,,1879,84.5,-45.5,1,0,0,response3disk,,5,-21.5,-8.5,1,0,0,rectangle,-21.5,-8.5,1,0,0,-21.5,-8.5,1,0,0,1,65,225,72,1,,,,,,,,
,,,,,,,,,,,,,FF,,,,,,,,0.375,,,,,,,,,,,,,,,,,,,,,,60ff0b32bdb402e4252bf6b5,610377ad93523e7a465e5306,2021-07-29_23h55.29.606,Simcolourproject_2stim_asymm_v5,2020.2.10,Win32,60,61025ae37ef11b136ea224fe,,,,,,,,,2181,72.5,-42.5,1,0,0,response3disk,,5,3.5,-2.5,1,0,0,rectangle,3.5,-2.5,1,0,0,3.5,-2.5,1,0,0,1,66,226,60,1,,,,,,,,
,,,,,,,,,,,,,FF,,,,,,,,0.406,,,,,,,,,,,,,,,,,,,,,,60ff0b32bdb402e4252bf6b5,610377ad93523e7a465e5306,2021-07-29_23h55.29.606,Simcolourproject_2stim_asymm_v5,2020.2.10,Win32,60,61025ae37ef11b136ea224fe,,,,,,,,,3220,71.5,-38.5,1,0,0,response3disk,,5,3.5,-11.5,1,0,0,rectangle,3.5,-11.5,1,0,0,3.5,-11.5,1,0,0,1,67,227,123,1,,,,,,,,
,,,,,,,,,,,,,FF,,,,,,,,0.879,,,,,,,,,,,,,,,,,,,,,,60ff0b32bdb402e4252bf6b5,610377ad93523e7a465e5306,2021-07-29_23h55.29.606,Simcolourproject_2stim_asymm_v5,2020.2.10,Win32,60,61025ae37ef11b136ea224fe,,,,,,,,,2950,34.5,-100.5,1,0,0,response3disk,,4,-33.5,-5.5,1,0,0,rectangle,-33.5,-5.5,1,0,0,-33.5,-5.5,1,0,0,1,68,228,115,1,,,,,,,,
,,,,,,,,,,,,,FF,,,,,,,,0.848,,,,,,,,,,,,,,,,,,,,,,60ff0b32bdb402e4252bf6b5,610377ad93523e7a465e5306,2021-07-29_23h55.29.606,Simcolourproject_2stim_asymm_v5,2020.2.10,Win32,60,61025ae37ef11b136ea224fe,,,,,,,,,461,-29.5,-96.5,1,0,0,response5disk,,3,42.5,-16.5,1,0,0,rectangle,42.5,-16.5,1,0,0,42.5,-16.5,1,0,0,1,69,229,76,1,,,,,,,,
,,,,,,,,,,,,,FF,,,,,,,,0.485,,,,,,,,,,,,,,,,,,,,,,60ff0b32bdb402e4252bf6b5,610377ad93523e7a465e5306,2021-07-29_23h55.29.606,Simcolourproject_2stim_asymm_v5,2020.2.10,Win32,60,61025ae37ef11b136ea224fe,,,,,,,,,72,66.5,-94.5,1,0,0,response3disk,,4,0.5,11.5,1,0,0,rectangle,-104.5,67.5,1,0,0,-18.5,13.5,1,0,0,1,70,230,86,1,,response7disk_3,TRUE,1,1,"[217,272,147,142,20,106,267,216,213,144,119,307,8,181,231,70,102,14,323,24]",1.811,rectangle
,,,,,,,,,,,,,FF,,,,,,,,0.557,,,,,,,,,,,,,,,,,,,,,,60ff0b32bdb402e4252bf6b5,610377ad93523e7a465e5306,2021-07-29_23h55.29.606,Simcolourproject_2stim_asymm_v5,2020.2.10,Win32,60,61025ae37ef11b136ea224fe,,,,,,,,,2352,-31.5,-122.5,1,0,0,response5disk,,3,-8.5,-16.5,1,0,0,rectangle,-8.5,-16.5,1,0,0,-8.5,-16.5,1,0,0,1,71,231,69,1,,,,,,,,
,,,,,,,,,,,,,FF,,,,,,,,0.448,,,,,,,,,,,,,,,,,,,,,,60ff0b32bdb402e4252bf6b5,610377ad93523e7a465e5306,2021-07-29_23h55.29.606,Simcolourproject_2stim_asymm_v5,2020.2.10,Win32,60,61025ae37ef11b136ea224fe,,,,,,,,,2391,22.5,-73.5,1,0,0,response3disk,,4,10.5,-16.5,1,0,0,rectangle,10.5,-16.5,1,0,0,10.5,-16.5,1,0,0,1,72,232,88,1,,,,,,,,
,,,,,,,,,,,,,FF,,,,,,,,0.775,,,,,,,,,,,,,,,,,,,,,,60ff0b32bdb402e4252bf6b5,610377ad93523e7a465e5306,2021-07-29_23h55.29.606,Simcolourproject_2stim_asymm_v5,2020.2.10,Win32,60,61025ae37ef11b136ea224fe,,,,,,,,,3749,-26.5,-140.5,1,0,0,response5disk,,3,2.5,-20.5,1,0,0,rectangle,2.5,-20.5,1,0,0,2.5,-20.5,1,0,0,1,73,233,13,1,,,,,,,,
,,,,,,,,,,,,,FF,,,,,,,,0.388,,,,,,,,,,,,,,,,,,,,,,60ff0b32bdb402e4252bf6b5,610377ad93523e7a465e5306,2021-07-29_23h55.29.606,Simcolourproject_2stim_asymm_v5,2020.2.10,Win32,60,61025ae37ef11b136ea224fe,,,,,,,,,4078,57.5,-74.5,1,0,0,response3disk,,4,-23.5,-0.5,1,0,0,rectangle,-23.5,-0.5,1,0,0,-23.5,-0.5,1,0,0,1,74,234,95,1,,,,,,,,
,,,,,,,,,,,,,FF,,,,,,,,0.401,,,,,,,,,,,,,,,,,,,,,,60ff0b32bdb402e4252bf6b5,610377ad93523e7a465e5306,2021-07-29_23h55.29.606,Simcolourproject_2stim_asymm_v5,2020.2.10,Win32,60,61025ae37ef11b136ea224fe,,,,,,,,,959,38.5,-91.5,1,0,0,response3disk,,4,-9.5,-18.5,1,0,0,rectangle,-9.5,-18.5,1,0,0,-9.5,-18.5,1,0,0,1,75,235,75,1,,,,,,,,
,,,,,,,,,,,,,FF,,,,,,,,0.927,,,,,,,,,,,,,,,,,,,,,,60ff0b32bdb402e4252bf6b5,610377ad93523e7a465e5306,2021-07-29_23h55.29.606,Simcolourproject_2stim_asymm_v5,2020.2.10,Win32,60,61025ae37ef11b136ea224fe,,,,,,,,,3045,-87.5,39.5,1,0,0,response7disk,,1,-2.5,-2.5,1,0,0,rectangle,-2.5,-2.5,1,0,0,-2.5,-2.5,1,0,0,1,76,236,93,1,,,,,,,,
,,,,,,,,,,,,,FF,,,,,,,,0.364,,,,,,,,,,,,,,,,,,,,,,60ff0b32bdb402e4252bf6b5,610377ad93523e7a465e5306,2021-07-29_23h55.29.606,Simcolourproject_2stim_asymm_v5,2020.2.10,Win32,60,61025ae37ef11b136ea224fe,,,,,,,,,1418,54.5,-78.5,1,0,0,response3disk,,4,-15.5,6.5,1,0,0,rectangle,-15.5,6.5,1,0,0,-15.5,6.5,1,0,0,1,77,237,8,1,,,,,,,,
,,,,,,,,,,,,,FF,,,,,,,,1.685,,,,,,,,,,,,,,,,,,,,,,60ff0b32bdb402e4252bf6b5,610377ad93523e7a465e5306,2021-07-29_23h55.29.606,Simcolourproject_2stim_asymm_v5,2020.2.10,Win32,60,61025ae37ef11b136ea224fe,,,,,,,,,2446,44.5,-66.5,1,0,0,response3disk,,4,1.5,0.5,1,0,0,rectangle,1.5,0.5,1,0,0,1.5,0.5,1,0,0,1,78,238,78,1,,,,,,,,
,,,,,,,,,,,,,FF,,,,,,,,0.582,,,,,,,,,,,,,,,,,,,,,,60ff0b32bdb402e4252bf6b5,610377ad93523e7a465e5306,2021-07-29_23h55.29.606,Simcolourproject_2stim_asymm_v5,2020.2.10,Win32,60,61025ae37ef11b136ea224fe,,,,,,,,,371,36.5,-112.5,1,0,0,response3disk,,4,-14.5,3.5,1,0,0,rectangle,-14.5,3.5,1,0,0,-14.5,3.5,1,0,0,1,79,239,144,1,,,,,,,,
,,,,,,,,,,,,,FF,,,,,,,,0.363,,,,,,,,,,,,,,,,,,,,,,60ff0b32bdb402e4252bf6b5,610377ad93523e7a465e5306,2021-07-29_23h55.29.606,Simcolourproject_2stim_asymm_v5,2020.2.10,Win32,60,61025ae37ef11b136ea224fe,,,,,,,,,121,60.5,-94.5,1,0,0,response3disk,,4,-40.5,17.5,1,0,0,rectangle,-40.5,17.5,1,0,0,-40.5,17.5,1,0,0,1,80,240,90,1,,,,,,,,
,,,,,,,,,,,,,FF,,,,,,,,0.412,,,,,,,,,,,,,,,,,,,,,,60ff0b32bdb402e4252bf6b5,610377ad93523e7a465e5306,2021-07-29_23h55.29.606,Simcolourproject_2stim_asymm_v5,2020.2.10,Win32,60,61025ae37ef11b136ea224fe,,,,,,,,,3877,38.5,-86.5,1,0,0,response3disk,,4,-23.5,7.5,1,0,0,rectangle,-23.5,7.5,1,0,0,-23.5,7.5,1,0,0,1,81,241,127,1,,,,,,,,
,,,,,,,,,,,,,FF,,,,,,,,0.449,,,,,,,,,,,,,,,,,,,,,,60ff0b32bdb402e4252bf6b5,610377ad93523e7a465e5306,2021-07-29_23h55.29.606,Simcolourproject_2stim_asymm_v5,2020.2.10,Win32,60,61025ae37ef11b136ea224fe,,,,,,,,,3980,-48.5,-93.5,1,0,0,response5disk,,3,14.5,-16.5,1,0,0,rectangle,14.5,-16.5,1,0,0,14.5,-16.5,1,0,0,1,82,242,43,1,,,,,,,,
,,,,,,,,,,,,,FF,,,,,,,,0.291,,,,,,,,,,,,,,,,,,,,,,60ff0b32bdb402e4252bf6b5,610377ad93523e7a465e5306,2021-07-29_23h55.29.606,Simcolourproject_2stim_asymm_v5,2020.2.10,Win32,60,61025ae37ef11b136ea224fe,,,,,,,,,194,46.5,-122.5,1,0,0,response3disk,,4,0.5,-4.5,1,0,0,rectangle,0.5,-4.5,1,0,0,0.5,-4.5,1,0,0,1,83,243,52,1,,,,,,,,
,,,,,,,,,,,,,FF,,,,,,,,0.764,,,,,,,,,,,,,,,,,,,,,,60ff0b32bdb402e4252bf6b5,610377ad93523e7a465e5306,2021-07-29_23h55.29.606,Simcolourproject_2stim_asymm_v5,2020.2.10,Win32,60,61025ae37ef11b136ea224fe,,,,,,,,,2794,-31.5,-89.5,1,0,0,response5disk,,3,14.5,20.5,1,0,0,rectangle,14.5,20.5,1,0,0,14.5,20.5,1,0,0,1,84,244,83,1,,,,,,,,
,,,,,,,,,,,,,FF,,,,,,,,0.709,,,,,,,,,,,,,,,,,,,,,,60ff0b32bdb402e4252bf6b5,610377ad93523e7a465e5306,2021-07-29_23h55.29.606,Simcolourproject_2stim_asymm_v5,2020.2.10,Win32,60,61025ae37ef11b136ea224fe,,,,,,,,,2241,-25.5,-73.5,1,0,0,response5disk,,3,-13.5,18.5,1,0,0,rectangle,-13.5,18.5,1,0,0,-13.5,18.5,1,0,0,1,85,245,97,1,,,,,,,,
,,,,,,,,,,,,,FF,,,,,,,,0.419,,,,,,,,,,,,,,,,,,,,,,60ff0b32bdb402e4252bf6b5,610377ad93523e7a465e5306,2021-07-29_23h55.29.606,Simcolourproject_2stim_asymm_v5,2020.2.10,Win32,60,61025ae37ef11b136ea224fe,,,,,,,,,3457,20.5,-97.5,1,0,0,response3disk,,4,-21.5,-9.5,1,0,0,rectangle,-21.5,-9.5,1,0,0,-21.5,-9.5,1,0,0,1,86,246,111,1,,,,,,,,
,,,,,,,,,,,,,FF,,,,,,,,0.351,,,,,,,,,,,,,,,,,,,,,,60ff0b32bdb402e4252bf6b5,610377ad93523e7a465e5306,2021-07-29_23h55.29.606,Simcolourproject_2stim_asymm_v5,2020.2.10,Win32,60,61025ae37ef11b136ea224fe,,,,,,,,,3211,-64.5,-98.5,1,0,0,response5disk,,3,18.5,-10.5,1,0,0,rectangle,18.5,-10.5,1,0,0,18.5,-10.5,1,0,0,1,87,247,158,1,,,,,,,,
,,,,,,,,,,,,,FF,,,,,,,,0.351,,,,,,,,,,,,,,,,,,,,,,60ff0b32bdb402e4252bf6b5,610377ad93523e7a465e5306,2021-07-29_23h55.29.606,Simcolourproject_2stim_asymm_v5,2020.2.10,Win32,60,61025ae37ef11b136ea224fe,,,,,,,,,6,40.5,-110.5,1,0,0,response3disk,,4,-10.5,-20.5,1,0,0,rectangle,-10.5,-20.5,1,0,0,-10.5,-20.5,1,0,0,1,88,248,5,1,,,,,,,,
,,,,,,,,,,,,,FF,,,,,,,,0.413,,,,,,,,,,,,,,,,,,,,,,60ff0b32bdb402e4252bf6b5,610377ad93523e7a465e5306,2021-07-29_23h55.29.606,Simcolourproject_2stim_asymm_v5,2020.2.10,Win32,60,61025ae37ef11b136ea224fe,,,,,,,,,862,-23.5,-116.5,1,0,0,response5disk,,3,17.5,-14.5,1,0,0,rectangle,17.5,-14.5,1,0,0,17.5,-14.5,1,0,0,1,89,249,62,1,,,,,,,,
,,,,,,,,,,,,,FF,,,,,,,,0.278,,,,,,,,,,,,,,,,,,,,,,60ff0b32bdb402e4252bf6b5,610377ad93523e7a465e5306,2021-07-29_23h55.29.606,Simcolourproject_2stim_asymm_v5,2020.2.10,Win32,60,61025ae37ef11b136ea224fe,,,,,,,,,2001,49.5,-100.5,1,0,0,response3disk,,4,-21.5,-6.5,1,0,0,rectangle,-21.5,-6.5,1,0,0,-21.5,-6.5,1,0,0,1,90,250,4,1,,,,,,,,
,,,,,,,,,,,,,FF,,,,,,,,0.624,,,,,,,,,,,,,,,,,,,,,,60ff0b32bdb402e4252bf6b5,610377ad93523e7a465e5306,2021-07-29_23h55.29.606,Simcolourproject_2stim_asymm_v5,2020.2.10,Win32,60,61025ae37ef11b136ea224fe,,,,,,,,,3989,29.5,-101.5,1,0,0,response3disk,,4,4.5,15.5,1,0,0,rectangle,4.5,15.5,1,0,0,4.5,15.5,1,0,0,1,91,251,48,1,,,,,,,,
,,,,,,,,,,,,,FF,,,,,,,,0.455,,,,,,,,,,,,,,,,,,,,,,60ff0b32bdb402e4252bf6b5,610377ad93523e7a465e5306,2021-07-29_23h55.29.606,Simcolourproject_2stim_asymm_v5,2020.2.10,Win32,60,61025ae37ef11b136ea224fe,,,,,,,,,2180,-26.5,-87.5,1,0,0,response5disk,,3,10.5,-16.5,1,0,0,rectangle,10.5,-16.5,1,0,0,10.5,-16.5,1,0,0,1,92,252,10,1,,,,,,,,
,,,,,,,,,,,,,FF,,,,,,,,0.782,,,,,,,,,,,,,,,,,,,,,,60ff0b32bdb402e4252bf6b5,610377ad93523e7a465e5306,2021-07-29_23h55.29.606,Simcolourproject_2stim_asymm_v5,2020.2.10,Win32,60,61025ae37ef11b136ea224fe,,,,,,,,,651,-29.5,-73.5,1,0,0,response5disk,,3,-18.5,-2.5,1,0,0,rectangle,-18.5,-2.5,1,0,0,-18.5,-2.5,1,0,0,1,93,253,15,1,,,,,,,,
,,,,,,,,,,,,,FF,,,,,,,,1.454,,,,,,,,,,,,,,,,,,,,,,60ff0b32bdb402e4252bf6b5,610377ad93523e7a465e5306,2021-07-29_23h55.29.606,Simcolourproject_2stim_asymm_v5,2020.2.10,Win32,60,61025ae37ef11b136ea224fe,,,,,,,,,4344,-91.5,55.5,1,0,0,response7disk,,1,-17.5,11.5,1,0,0,rectangle,-17.5,11.5,1,0,0,-17.5,11.5,1,0,0,1,94,254,45,1,,,,,,,,
,,,,,,,,,,,,,FF,,,,,,,,1.024,,,,,,,,,,,,,,,,,,,,,,60ff0b32bdb402e4252bf6b5,610377ad93523e7a465e5306,2021-07-29_23h55.29.606,Simcolourproject_2stim_asymm_v5,2020.2.10,Win32,60,61025ae37ef11b136ea224fe,,,,,,,,,1453,-38.5,-96.5,1,0,0,response5disk,,3,2.5,1.5,1,0,0,rectangle,2.5,1.5,1,0,0,2.5,1.5,1,0,0,1,95,255,61,1,,,,,,,,
,,,,,,,,,,,,,FF,,,,,,,,0.709,,,,,,,,,,,,,,,,,,,,,,60ff0b32bdb402e4252bf6b5,610377ad93523e7a465e5306,2021-07-29_23h55.29.606,Simcolourproject_2stim_asymm_v5,2020.2.10,Win32,60,61025ae37ef11b136ea224fe,,,,,,,,,2537,43.5,-128.5,1,0,0,response3disk,,4,-28.5,19.5,1,0,0,rectangle,-28.5,19.5,1,0,0,-28.5,19.5,1,0,0,1,96,256,22,1,,,,,,,,
,,,,,,,,,,,,,FF,,,,,,,,0.552,,,,,,,,,,,,,,,,,,,,,,60ff0b32bdb402e4252bf6b5,610377ad93523e7a465e5306,2021-07-29_23h55.29.606,Simcolourproject_2stim_asymm_v5,2020.2.10,Win32,60,61025ae37ef11b136ea224fe,,,,,,,,,412,52.5,-128.5,1,0,0,response3disk,,4,2.5,13.5,1,0,0,rectangle,2.5,13.5,1,0,0,2.5,13.5,1,0,0,1,97,257,19,1,,,,,,,,
,,,,,,,,,,,,,FF,,,,,,,,0.461,,,,,,,,,,,,,,,,,,,,,,60ff0b32bdb402e4252bf6b5,610377ad93523e7a465e5306,2021-07-29_23h55.29.606,Simcolourproject_2stim_asymm_v5,2020.2.10,Win32,60,61025ae37ef11b136ea224fe,,,,,,,,,604,47.5,-104.5,1,0,0,response3disk,,4,-20.5,-5.5,1,0,0,rectangle,-20.5,-5.5,1,0,0,-20.5,-5.5,1,0,0,1,98,258,151,1,,,,,,,,
,,,,,,,,,,,,,FF,,,,,,,,0.599,,,,,,,,,,,,,,,,,,,,,,60ff0b32bdb402e4252bf6b5,610377ad93523e7a465e5306,2021-07-29_23h55.29.606,Simcolourproject_2stim_asymm_v5,2020.2.10,Win32,60,61025ae37ef11b136ea224fe,,,,,,,,,4060,42.5,-132.5,1,0,0,response3disk,,4,0.5,-9.5,1,0,0,rectangle,0.5,-9.5,1,0,0,0.5,-9.5,1,0,0,1,99,259,99,1,,,,,,,,
,,,,,,,,,,,,,FF,,,,,,,,0.327,,,,,,,,,,,,,,,,,,,,,,60ff0b32bdb402e4252bf6b5,610377ad93523e7a465e5306,2021-07-29_23h55.29.606,Simcolourproject_2stim_asymm_v5,2020.2.10,Win32,60,61025ae37ef11b136ea224fe,,,,,,,,,3522,75.5,-134.5,1,0,0,response3disk,,4,-19.5,-10.5,1,0,0,rectangle,-19.5,-10.5,1,0,0,-19.5,-10.5,1,0,0,1,100,260,73,1,,,,,,,,
,,,,,,,,,,,,,FF,,,,,,,,0.497,,,,,,,,,,,,,,,,,,,,,,60ff0b32bdb402e4252bf6b5,610377ad93523e7a465e5306,2021-07-29_23h55.29.606,Simcolourproject_2stim_asymm_v5,2020.2.10,Win32,60,61025ae37ef11b136ea224fe,,,,,,,,,723,48.5,-104.5,1,0,0,response3disk,,4,-11.5,-0.5,1,0,0,rectangle,-11.5,-0.5,1,0,0,-11.5,-0.5,1,0,0,1,101,261,82,1,,,,,,,,
,,,,,,,,,,,,,FF,,,,,,,,0.352,,,,,,,,,,,,,,,,,,,,,,60ff0b32bdb402e4252bf6b5,610377ad93523e7a465e5306,2021-07-29_23h55.29.606,Simcolourproject_2stim_asymm_v5,2020.2.10,Win32,60,61025ae37ef11b136ea224fe,,,,,,,,,3398,38.5,-86.5,1,0,0,response3disk,,4,6.5,-6.5,1,0,0,rectangle,6.5,-6.5,1,0,0,6.5,-6.5,1,0,0,1,102,262,66,1,,,,,,,,
,,,,,,,,,,,,,FF,,,,,,,,0.213,,,,,,,,,,,,,,,,,,,,,,60ff0b32bdb402e4252bf6b5,610377ad93523e7a465e5306,2021-07-29_23h55.29.606,Simcolourproject_2stim_asymm_v5,2020.2.10,Win32,60,61025ae37ef11b136ea224fe,,,,,,,,,3404,41.5,-89.5,1,0,0,response3disk,,4,12.5,-5.5,1,0,0,rectangle,12.5,-5.5,1,0,0,12.5,-5.5,1,0,0,1,103,263,46,1,,,,,,,,
,,,,,,,,,,,,,FF,,,,,,,,0.236,,,,,,,,,,,,,,,,,,,,,,60ff0b32bdb402e4252bf6b5,610377ad93523e7a465e5306,2021-07-29_23h55.29.606,Simcolourproject_2stim_asymm_v5,2020.2.10,Win32,60,61025ae37ef11b136ea224fe,,,,,,,,,858,44.5,-122.5,1,0,0,response3disk,,4,10.5,-11.5,1,0,0,rectangle,10.5,-11.5,1,0,0,10.5,-11.5,1,0,0,1,104,264,136,1,,,,,,,,
,,,,,,,,,,,,,FF,,,,,,,,0.382,,,,,,,,,,,,,,,,,,,,,,60ff0b32bdb402e4252bf6b5,610377ad93523e7a465e5306,2021-07-29_23h55.29.606,Simcolourproject_2stim_asymm_v5,2020.2.10,Win32,60,61025ae37ef11b136ea224fe,,,,,,,,,2642,36.5,-73.5,1,0,0,response3disk,,4,-7.5,-11.5,1,0,0,rectangle,-7.5,-11.5,1,0,0,-7.5,-11.5,1,0,0,1,105,265,80,1,,,,,,,,
,,,,,,,,,,,,,FF,,,,,,,,0.297,,,,,,,,,,,,,,,,,,,,,,60ff0b32bdb402e4252bf6b5,610377ad93523e7a465e5306,2021-07-29_23h55.29.606,Simcolourproject_2stim_asymm_v5,2020.2.10,Win32,60,61025ae37ef11b136ea224fe,,,,,,,,,2151,56.5,-92.5,1,0,0,response3disk,,4,-3.5,-6.5,1,0,0,rectangle,-89.5,-30.5,1,0,0,-18.5,-19.5,1,0,0,1,106,266,146,1,,response5disk_3,TRUE,2,2,"[217,272,147,142,20,106,267,216,213,144,119,307,8,181,231,70,102,14,323,24]",1.26,rectangle
,,,,,,,,,,,,,FF,,,,,,,,0.406,,,,,,,,,,,,,,,,,,,,,,60ff0b32bdb402e4252bf6b5,610377ad93523e7a465e5306,2021-07-29_23h55.29.606,Simcolourproject_2stim_asymm_v5,2020.2.10,Win32,60,61025ae37ef11b136ea224fe,,,,,,,,,732,-55.5,-65.5,1,0,0,response5disk,,3,-28.5,-9.5,1,0,0,rectangle,-28.5,-9.5,1,0,0,-28.5,-9.5,1,0,0,1,107,267,94,1,,,,,,,,
,,,,,,,,,,,,,FF,,,,,,,,0.782,,,,,,,,,,,,,,,,,,,,,,60ff0b32bdb402e4252bf6b5,610377ad93523e7a465e5306,2021-07-29_23h55.29.606,Simcolourproject_2stim_asymm_v5,2020.2.10,Win32,60,61025ae37ef11b136ea224fe,,,,,,,,,347,-71.5,32.5,1,0,0,response7disk,,1,-32.5,13.5,1,0,0,rectangle,-32.5,13.5,1,0,0,-32.5,13.5,1,0,0,1,108,268,152,1,,,,,,,,
,,,,,,,,,,,,,FF,,,,,,,,0.631,,,,,,,,,,,,,,,,,,,,,,60ff0b32bdb402e4252bf6b5,610377ad93523e7a465e5306,2021-07-29_23h55.29.606,Simcolourproject_2stim_asymm_v5,2020.2.10,Win32,60,61025ae37ef11b136ea224fe,,,,,,,,,22,89.5,-97.5,1,0,0,response3disk,,4,9.5,5.5,1,0,0,rectangle,9.5,5.5,1,0,0,9.5,5.5,1,0,0,1,109,269,70,1,,,,,,,,
,,,,,,,,,,,,,FF,,,,,,,,0.794,,,,,,,,,,,,,,,,,,,,,,60ff0b32bdb402e4252bf6b5,610377ad93523e7a465e5306,2021-07-29_23h55.29.606,Simcolourproject_2stim_asymm_v5,2020.2.10,Win32,60,61025ae37ef11b136ea224fe,,,,,,,,,4193,71.5,-29.5,1,0,0,response3disk,,5,16.5,-1.5,1,0,0,rectangle,16.5,-1.5,1,0,0,16.5,-1.5,1,0,0,1,110,270,77,1,,,,,,,,
,,,,,,,,,,,,,FF,,,,,,,,0.66,,,,,,,,,,,,,,,,,,,,,,60ff0b32bdb402e4252bf6b5,610377ad93523e7a465e5306,2021-07-29_23h55.29.606,Simcolourproject_2stim_asymm_v5,2020.2.10,Win32,60,61025ae37ef11b136ea224fe,,,,,,,,,3694,71.5,-31.5,1,0,0,response3disk,,5,15.5,-18.5,1,0,0,rectangle,31.5,94.5,1,0,0,20.5,2.5,1,0,0,1,111,271,35,1,,response1disk_3,TRUE,7,7,"[217,272,147,142,20,106,267,216,213,144,119,307,8,181,231,70,102,14,323,24]",1.03,rectangle
,,,,,,,,,,,,,FF,,,,,,,,0.528,,,,,,,,,,,,,,,,,,,,,,60ff0b32bdb402e4252bf6b5,610377ad93523e7a465e5306,2021-07-29_23h55.29.606,Simcolourproject_2stim_asymm_v5,2020.2.10,Win32,60,61025ae37ef11b136ea224fe,,,,,,,,,2078,52.5,-58.5,1,0,0,response3disk,,4,35.5,11.5,1,0,0,rectangle,35.5,11.5,1,0,0,35.5,11.5,1,0,0,1,112,272,24,1,,,,,,,,
,,,,,,,,,,,,,FF,,,,,,,,0.461,,,,,,,,,,,,,,,,,,,,,,60ff0b32bdb402e4252bf6b5,610377ad93523e7a465e5306,2021-07-29_23h55.29.606,Simcolourproject_2stim_asymm_v5,2020.2.10,Win32,60,61025ae37ef11b136ea224fe,,,,,,,,,1246,71.5,-68.5,1,0,0,response3disk,,5,-7.5,19.5,1,0,0,rectangle,-7.5,19.5,1,0,0,-7.5,19.5,1,0,0,1,113,273,142,1,,,,,,,,
,,,,,,,,,,,,,FF,,,,,,,,0.63,,,,,,,,,,,,,,,,,,,,,,60ff0b32bdb402e4252bf6b5,610377ad93523e7a465e5306,2021-07-29_23h55.29.606,Simcolourproject_2stim_asymm_v5,2020.2.10,Win32,60,61025ae37ef11b136ea224fe,,,,,,,,,650,-47.5,-83.5,1,0,0,response5disk,,3,-25.5,-12.5,1,0,0,rectangle,-25.5,-12.5,1,0,0,-25.5,-12.5,1,0,0,1,114,274,149,1,,,,,,,,
,,,,,,,,,,,,,FF,,,,,,,,1.788,,,,,,,,,,,,,,,,,,,,,,60ff0b32bdb402e4252bf6b5,610377ad93523e7a465e5306,2021-07-29_23h55.29.606,Simcolourproject_2stim_asymm_v5,2020.2.10,Win32,60,61025ae37ef11b136ea224fe,,,,,,,,,1368,24.5,-68.5,1,0,0,response3disk,,4,-7.5,13.5,1,0,0,rectangle,-7.5,13.5,1,0,0,-7.5,13.5,1,0,0,1,115,275,57,1,,,,,,,,
,,,,,,,,,,,,,FF,,,,,,,,0.655,,,,,,,,,,,,,,,,,,,,,,60ff0b32bdb402e4252bf6b5,610377ad93523e7a465e5306,2021-07-29_23h55.29.606,Simcolourproject_2stim_asymm_v5,2020.2.10,Win32,60,61025ae37ef11b136ea224fe,,,,,,,,,2409,62.5,-54.5,1,0,0,response3disk,,5,-25.5,9.5,1,0,0,rectangle,-25.5,9.5,1,0,0,-25.5,9.5,1,0,0,1,116,276,32,1,,,,,,,,
,,,,,,,,,,,,,FF,,,,,,,,0.733,,,,,,,,,,,,,,,,,,,,,,60ff0b32bdb402e4252bf6b5,610377ad93523e7a465e5306,2021-07-29_23h55.29.606,Simcolourproject_2stim_asymm_v5,2020.2.10,Win32,60,61025ae37ef11b136ea224fe,,,,,,,,,3675,-77.5,-52.5,1,0,0,response5disk,,2,-39.5,-4.5,1,0,0,rectangle,-39.5,-4.5,1,0,0,-39.5,-4.5,1,0,0,1,117,277,159,1,,,,,,,,
,,,,,,,,,,,,,FF,,,,,,,,0.57,,,,,,,,,,,,,,,,,,,,,,60ff0b32bdb402e4252bf6b5,610377ad93523e7a465e5306,2021-07-29_23h55.29.606,Simcolourproject_2stim_asymm_v5,2020.2.10,Win32,60,61025ae37ef11b136ea224fe,,,,,,,,,3008,62.5,-76.5,1,0,0,response3disk,,4,-12.5,-0.5,1,0,0,rectangle,-12.5,-0.5,1,0,0,-12.5,-0.5,1,0,0,1,118,278,107,1,,,,,,,,
,,,,,,,,,,,,,FF,,,,,,,,2.054,,,,,,,,,,,,,,,,,,,,,,60ff0b32bdb402e4252bf6b5,610377ad93523e7a465e5306,2021-07-29_23h55.29.606,Simcolourproject_2stim_asymm_v5,2020.2.10,Win32,60,61025ae37ef11b136ea224fe,,,,,,,,,3907,-72.5,35.5,1,0,0,response7disk,,1,-31.5,-8.5,1,0,0,rectangle,-31.5,-8.5,1,0,0,-31.5,-8.5,1,0,0,1,119,279,135,1,,,,,,,,
,,,,,,,,,,,,,FF,,,,,,,,0.612,,,,,,,,,,,,,,,,,,,,,,60ff0b32bdb402e4252bf6b5,610377ad93523e7a465e5306,2021-07-29_23h55.29.606,Simcolourproject_2stim_asymm_v5,2020.2.10,Win32,60,61025ae37ef11b136ea224fe,,,,,,,,,1832,-55.5,-80.5,1,0,0,response5disk,,3,-21.5,-10.5,1,0,0,rectangle,-21.5,-10.5,1,0,0,-21.5,-10.5,1,0,0,1,120,280,130,1,,,,,,,,
,,,,,,,,,,,,,FF,,,,,,,,0.733,,,,,,,,,,,,,,,,,,,,,,60ff0b32bdb402e4252bf6b5,610377ad93523e7a465e5306,2021-07-29_23h55.29.606,Simcolourproject_2stim_asymm_v5,2020.2.10,Win32,60,61025ae37ef11b136ea224fe,,,,,,,,,3690,-87.5,-35.5,1,0,0,response5disk,,2,-11.5,-1.5,1,0,0,rectangle,-11.5,-1.5,1,0,0,-11.5,-1.5,1,0,0,1,121,281,138,1,,,,,,,,
,,,,,,,,,,,,,FF,,,,,,,,0.612,,,,,,,,,,,,,,,,,,,,,,60ff0b32bdb402e4252bf6b5,610377ad93523e7a465e5306,2021-07-29_23h55.29.606,Simcolourproject_2stim_asymm_v5,2020.2.10,Win32,60,61025ae37ef11b136ea224fe,,,,,,,,,2428,-33.5,-75.5,1,0,0,response5disk,,3,-13.5,-5.5,1,0,0,rectangle,-13.5,-5.5,1,0,0,-13.5,-5.5,1,0,0,1,122,282,124,1,,,,,,,,
,,,,,,,,,,,,,FF,,,,,,,,0.668,,,,,,,,,,,,,,,,,,,,,,60ff0b32bdb402e4252bf6b5,610377ad93523e7a465e5306,2021-07-29_23h55.29.606,Simcolourproject_2stim_asymm_v5,2020.2.10,Win32,60,61025ae37ef11b136ea224fe,,,,,,,,,3054,-52.5,-59.5,1,0,0,response5disk,,3,-20.5,-9.5,1,0,0,rectangle,-20.5,-9.5,1,0,0,-20.5,-9.5,1,0,0,1,123,283,139,1,,,,,,,,
,,,,,,,,,,,,,FF,,,,,,,,0.394,,,,,,,,,,,,,,,,,,,,,,60ff0b32bdb402e4252bf6b5,610377ad93523e7a465e5306,2021-07-29_23h55.29.606,Simcolourproject_2stim_asymm_v5,2020.2.10,Win32,60,61025ae37ef11b136ea224fe,,,,,,,,,1912,-53.5,-60.5,1,0,0,response5disk,,3,-22.5,-0.5,1,0,0,rectangle,-22.5,-0.5,1,0,0,-22.5,-0.5,1,0,0,1,124,284,47,1,,,,,,,,
,,,,,,,,,,,,,FF,,,,,,,,0.522,,,,,,,,,,,,,,,,,,,,,,60ff0b32bdb402e4252bf6b5,610377ad93523e7a465e5306,2021-07-29_23h55.29.606,Simcolourproject_2stim_asymm_v5,2020.2.10,Win32,60,61025ae37ef11b136ea224fe,,,,,,,,,997,-50.5,-94.5,1,0,0,response5disk,,3,-9.5,-7.5,1,0,0,rectangle,-9.5,-7.5,1,0,0,-9.5,-7.5,1,0,0,1,125,285,7,1,,,,,,,,
