key_resp.keys,key_resp.rt,key_resp_14.keys,key_resp_14.rt,key_resp_15.keys,key_resp_15.rt,key_resp_17.keys,key_resp_17.rt,key_resp_9.keys,key_resp_9.rt,key_resp_10.keys,key_resp_10.rt,practice_comparison,Ecc,mouse_5.x,mouse_5.y,mouse_5.leftButton,mouse_5.midButton,mouse_5.rightButton,mouse_5.clicked_name,pracsimilarity,response_time,mouse_10.x,mouse_10.y,mouse_10.leftButton,mouse_10.midButton,mouse_10.rightButton,mouse_10.clicked_name,mouse_7.x,mouse_7.y,mouse_7.leftButton,mouse_7.midButton,mouse_7.rightButton,mouse_6.x,mouse_6.y,mouse_6.leftButton,mouse_6.midButton,mouse_6.rightButton,duringprac.thisRepN,duringprac.thisTrialN,duringprac.thisN,duringprac.thisIndex,duringprac.ran,participant,session,date,expName,psychopyVersion,OS,frameRate,study_id,mouse_7.clicked_name,catchpracsimilarity,catch_response_time,catchnumberprac,catchtrialorderprac,mouse_6.clicked_name,key_resp_22.keys,key_resp_22.rt,realcomparison,mouse.x,mouse.y,mouse.leftButton,mouse.midButton,mouse.rightButton,mouse.clicked_name,Colour2,similarity,mouse_2.x,mouse_2.y,mouse_2.leftButton,mouse_2.midButton,mouse_2.rightButton,mouse_2.clicked_name,mouse_3.x,mouse_3.y,mouse_3.leftButton,mouse_3.midButton,mouse_3.rightButton,mouse_11.x,mouse_11.y,mouse_11.leftButton,mouse_11.midButton,mouse_11.rightButton,trials_2.thisRepN,trials_2.thisTrialN,trials_2.thisN,trials_2.thisIndex,trials_2.ran,Colour1,mouse_3.clicked_name,catchornah,catchsimilarity,catchnumber,catchtrialorder,catchRT,mouse_11.clicked_name
space,1.4964,space,3.7172,space,22.1119,space,12.5323,space,0.7846,space,2.5172,76,PF,70,131,1,0,0,response1disk_5,7,9.3016,4,0,1,0,0,rectangle_8,4,0,1,0,0,4,0,1,0,0,0,0,0,2,1,60ff9740c0716986284c41b3,61036cd27c0fb30bf3dedca8,2021-07-30_05h07.31.756,Simcolourproject_2stim_asymm_v5,2020.2.10,Win32,60,61025ae37ef11b136ea224fe,,,,,,,,,,,,,,,,,,,,,,,,,,,,,,,,,,,,,,,,,,,,,,
,,,,,,,,,,,,77,FF,38,-79,1,0,0,response3disk_5,4,8.7153,-11,-3,1,0,0,rectangle_8,109,67,1,0,0,-13,-4,1,0,0,0,1,1,5,1,60ff9740c0716986284c41b3,61036cd27c0fb30bf3dedca8,2021-07-30_05h07.31.756,Simcolourproject_2stim_asymm_v5,2020.2.10,Win32,60,61025ae37ef11b136ea224fe,response1disk_7,6,7.5823,6,"[2,5]",rectangle_4,,,,,,,,,,,,,,,,,,,,,,,,,,,,,,,,,,,,,,,,
,,,,,,,,,,,,96,PF,69,-40,1,0,0,response3disk_5,5,3.2494,7,4,1,0,0,rectangle_8,7,4,1,0,0,7,4,1,0,0,0,2,2,1,1,60ff9740c0716986284c41b3,61036cd27c0fb30bf3dedca8,2021-07-30_05h07.31.756,Simcolourproject_2stim_asymm_v5,2020.2.10,Win32,60,61025ae37ef11b136ea224fe,,,,,,,,,,,,,,,,,,,,,,,,,,,,,,,,,,,,,,,,,,,,,,
,,,,,,,,,,,,4,PF,100,48,1,0,0,response1disk_5,6,3.5329,13,6,1,0,0,rectangle_8,13,6,1,0,0,13,6,1,0,0,0,3,3,4,1,60ff9740c0716986284c41b3,61036cd27c0fb30bf3dedca8,2021-07-30_05h07.31.756,Simcolourproject_2stim_asymm_v5,2020.2.10,Win32,60,61025ae37ef11b136ea224fe,,,,,,,,,,,,,,,,,,,,,,,,,,,,,,,,,,,,,,,,,,,,,,
,,,,,,,,,,,,47,FF,90,43,1,0,0,response1disk_5,6,3.7827,7,-11,1,0,0,rectangle_8,107,57,1,0,0,7,4,1,0,0,0,4,4,0,1,60ff9740c0716986284c41b3,61036cd27c0fb30bf3dedca8,2021-07-30_05h07.31.756,Simcolourproject_2stim_asymm_v5,2020.2.10,Win32,60,61025ae37ef11b136ea224fe,response1disk_7,6,4.4993,6,"[2,5]",rectangle_4,,,,,,,,,,,,,,,,,,,,,,,,,,,,,,,,,,,,,,,,
,,,,,,,,,,,,99,FF,87,-33,1,0,0,response3disk_5,5,3.6495,-2,9,1,0,0,rectangle_8,-2,9,1,0,0,-2,9,1,0,0,0,5,5,3,1,60ff9740c0716986284c41b3,61036cd27c0fb30bf3dedca8,2021-07-30_05h07.31.756,Simcolourproject_2stim_asymm_v5,2020.2.10,Win32,60,61025ae37ef11b136ea224fe,,,,,,,,,,,,,,,,,,,,,,,,,,,,,,,,,,,,,,,,,,,,,,
,,,,,,,,,,,,48,PF,62,96,1,0,0,response1disk_5,7,2.3164,17,4,1,0,0,rectangle_8,17,4,1,0,0,17,4,1,0,0,0,6,6,6,1,60ff9740c0716986284c41b3,61036cd27c0fb30bf3dedca8,2021-07-30_05h07.31.756,Simcolourproject_2stim_asymm_v5,2020.2.10,Win32,60,61025ae37ef11b136ea224fe,,,,,,,,,,,,,,,,,,,,,,,,,,,,,,,,,,,,,,,,,,,,,,
,,,,,,,,,,,,,FF,,,,,,,,3.6333,,,,,,,,,,,,,,,,,,,,,,60ff9740c0716986284c41b3,61036cd27c0fb30bf3dedca8,2021-07-30_05h07.31.756,Simcolourproject_2stim_asymm_v5,2020.2.10,Win32,60,61025ae37ef11b136ea224fe,,,,,,,space,3.6629,3861,111,50,1,0,0,response1disk,,6,9,-4,1,0,0,rectangle,9,-4,1,0,0,9,-4,1,0,0,0,0,0,142,1,,,,,,,,
,,,,,,,,,,,,,FF,,,,,,,,2.7991,,,,,,,,,,,,,,,,,,,,,,60ff9740c0716986284c41b3,61036cd27c0fb30bf3dedca8,2021-07-30_05h07.31.756,Simcolourproject_2stim_asymm_v5,2020.2.10,Win32,60,61025ae37ef11b136ea224fe,,,,,,,,,2812,79,51,1,0,0,response1disk,,6,-1,-6,1,0,0,rectangle,-1,-6,1,0,0,-1,-6,1,0,0,0,1,1,99,1,,,,,,,,
,,,,,,,,,,,,,FF,,,,,,,,3.0662,,,,,,,,,,,,,,,,,,,,,,60ff9740c0716986284c41b3,61036cd27c0fb30bf3dedca8,2021-07-30_05h07.31.756,Simcolourproject_2stim_asymm_v5,2020.2.10,Win32,60,61025ae37ef11b136ea224fe,,,,,,,,,2160,-57,85,1,0,0,response7disk,,0,-10,0,1,0,0,rectangle,-10,0,1,0,0,-10,0,1,0,0,0,2,2,91,1,,,,,,,,
,,,,,,,,,,,,,FF,,,,,,,,3.6327,,,,,,,,,,,,,,,,,,,,,,60ff9740c0716986284c41b3,61036cd27c0fb30bf3dedca8,2021-07-30_05h07.31.756,Simcolourproject_2stim_asymm_v5,2020.2.10,Win32,60,61025ae37ef11b136ea224fe,,,,,,,,,2569,71,-30,1,0,0,response3disk,,5,-33,-4,1,0,0,rectangle,-33,-4,1,0,0,-33,-4,1,0,0,0,3,3,74,1,,,,,,,,
,,,,,,,,,,,,,FF,,,,,,,,2.1998,,,,,,,,,,,,,,,,,,,,,,60ff9740c0716986284c41b3,61036cd27c0fb30bf3dedca8,2021-07-30_05h07.31.756,Simcolourproject_2stim_asymm_v5,2020.2.10,Win32,60,61025ae37ef11b136ea224fe,,,,,,,,,1799,63,48,1,0,0,response1disk,,6,12,-10,1,0,0,rectangle,12,-10,1,0,0,12,-10,1,0,0,0,4,4,98,1,,,,,,,,
,,,,,,,,,,,,,FF,,,,,,,,1.0166,,,,,,,,,,,,,,,,,,,,,,60ff9740c0716986284c41b3,61036cd27c0fb30bf3dedca8,2021-07-30_05h07.31.756,Simcolourproject_2stim_asymm_v5,2020.2.10,Win32,60,61025ae37ef11b136ea224fe,,,,,,,,,1492,60,96,1,0,0,response1disk,,7,13,7,1,0,0,rectangle,13,7,1,0,0,13,7,1,0,0,0,5,5,26,1,,,,,,,,
,,,,,,,,,,,,,FF,,,,,,,,1.9498,,,,,,,,,,,,,,,,,,,,,,60ff9740c0716986284c41b3,61036cd27c0fb30bf3dedca8,2021-07-30_05h07.31.756,Simcolourproject_2stim_asymm_v5,2020.2.10,Win32,60,61025ae37ef11b136ea224fe,,,,,,,,,2263,47,-63,1,0,0,response3disk,,4,4,-3,1,0,0,rectangle,4,-3,1,0,0,4,-3,1,0,0,0,6,6,133,1,,,,,,,,
,,,,,,,,,,,,,FF,,,,,,,,3.8994,,,,,,,,,,,,,,,,,,,,,,60ff9740c0716986284c41b3,61036cd27c0fb30bf3dedca8,2021-07-30_05h07.31.756,Simcolourproject_2stim_asymm_v5,2020.2.10,Win32,60,61025ae37ef11b136ea224fe,,,,,,,,,2562,69,-34,1,0,0,response3disk,,5,-8,10,1,0,0,rectangle,-8,10,1,0,0,-8,10,1,0,0,0,7,7,39,1,,,,,,,,
,,,,,,,,,,,,,FF,,,,,,,,2.633,,,,,,,,,,,,,,,,,,,,,,60ff9740c0716986284c41b3,61036cd27c0fb30bf3dedca8,2021-07-30_05h07.31.756,Simcolourproject_2stim_asymm_v5,2020.2.10,Win32,60,61025ae37ef11b136ea224fe,,,,,,,,,3848,-80,-30,1,0,0,response5disk,,2,-39,-9,1,0,0,rectangle,-39,-9,1,0,0,-39,-9,1,0,0,0,8,8,9,1,,,,,,,,
,,,,,,,,,,,,,FF,,,,,,,,1.8666,,,,,,,,,,,,,,,,,,,,,,60ff9740c0716986284c41b3,61036cd27c0fb30bf3dedca8,2021-07-30_05h07.31.756,Simcolourproject_2stim_asymm_v5,2020.2.10,Win32,60,61025ae37ef11b136ea224fe,,,,,,,,,3131,44,-72,1,0,0,response3disk,,4,7,-7,1,0,0,rectangle,-49,-86,1,0,0,-16,-9,1,0,0,0,9,9,109,1,,response5disk_3,TRUE,3,3,"[92,311,228,10,242,212,47,108,292,119,247,175,201,30,250,91,128,0,65,179]",3.1665,rectangle
,,,,,,,,,,,,,FF,,,,,,,,1.9498,,,,,,,,,,,,,,,,,,,,,,60ff9740c0716986284c41b3,61036cd27c0fb30bf3dedca8,2021-07-30_05h07.31.756,Simcolourproject_2stim_asymm_v5,2020.2.10,Win32,60,61025ae37ef11b136ea224fe,,,,,,,,,1508,57,95,1,0,0,response1disk,,7,23,-8,1,0,0,rectangle,23,-8,1,0,0,23,-8,1,0,0,0,10,10,13,1,,,,,,,,
,,,,,,,,,,,,,FF,,,,,,,,1.183,,,,,,,,,,,,,,,,,,,,,,60ff9740c0716986284c41b3,61036cd27c0fb30bf3dedca8,2021-07-30_05h07.31.756,Simcolourproject_2stim_asymm_v5,2020.2.10,Win32,60,61025ae37ef11b136ea224fe,,,,,,,,,3300,72,-46,1,0,0,response3disk,,5,-17,-15,1,0,0,rectangle,-17,-15,1,0,0,-17,-15,1,0,0,0,11,11,32,1,,,,,,,,
,,,,,,,,,,,,,FF,,,,,,,,1.833,,,,,,,,,,,,,,,,,,,,,,60ff9740c0716986284c41b3,61036cd27c0fb30bf3dedca8,2021-07-30_05h07.31.756,Simcolourproject_2stim_asymm_v5,2020.2.10,Win32,60,61025ae37ef11b136ea224fe,,,,,,,,,2171,-60,42,1,0,0,response7disk,,1,-5,1,1,0,0,rectangle,-5,1,1,0,0,-5,1,1,0,0,0,12,12,34,1,,,,,,,,
,,,,,,,,,,,,,FF,,,,,,,,1.183,,,,,,,,,,,,,,,,,,,,,,60ff9740c0716986284c41b3,61036cd27c0fb30bf3dedca8,2021-07-30_05h07.31.756,Simcolourproject_2stim_asymm_v5,2020.2.10,Win32,60,61025ae37ef11b136ea224fe,,,,,,,,,900,-67,-34,1,0,0,response5disk,,2,-11,-14,1,0,0,rectangle,-11,-14,1,0,0,-11,-14,1,0,0,0,13,13,113,1,,,,,,,,
,,,,,,,,,,,,,FF,,,,,,,,2.2332,,,,,,,,,,,,,,,,,,,,,,60ff9740c0716986284c41b3,61036cd27c0fb30bf3dedca8,2021-07-30_05h07.31.756,Simcolourproject_2stim_asymm_v5,2020.2.10,Win32,60,61025ae37ef11b136ea224fe,,,,,,,,,1209,43,-78,1,0,0,response3disk,,4,14,5,1,0,0,rectangle,14,5,1,0,0,14,5,1,0,0,0,14,14,116,1,,,,,,,,
,,,,,,,,,,,,,FF,,,,,,,,1.3832,,,,,,,,,,,,,,,,,,,,,,60ff9740c0716986284c41b3,61036cd27c0fb30bf3dedca8,2021-07-30_05h07.31.756,Simcolourproject_2stim_asymm_v5,2020.2.10,Win32,60,61025ae37ef11b136ea224fe,,,,,,,,,3662,-51,-68,1,0,0,response5disk,,3,-19,14,1,0,0,rectangle,-19,14,1,0,0,-19,14,1,0,0,0,15,15,156,1,,,,,,,,
,,,,,,,,,,,,,FF,,,,,,,,1.1999,,,,,,,,,,,,,,,,,,,,,,60ff9740c0716986284c41b3,61036cd27c0fb30bf3dedca8,2021-07-30_05h07.31.756,Simcolourproject_2stim_asymm_v5,2020.2.10,Win32,60,61025ae37ef11b136ea224fe,,,,,,,,,2154,64,-33,1,0,0,response3disk,,5,16,-6,1,0,0,rectangle,16,-6,1,0,0,16,-6,1,0,0,0,16,16,119,1,,,,,,,,
,,,,,,,,,,,,,FF,,,,,,,,1.4497,,,,,,,,,,,,,,,,,,,,,,60ff9740c0716986284c41b3,61036cd27c0fb30bf3dedca8,2021-07-30_05h07.31.756,Simcolourproject_2stim_asymm_v5,2020.2.10,Win32,60,61025ae37ef11b136ea224fe,,,,,,,,,1377,-38,-76,1,0,0,response5disk,,3,-1,-5,1,0,0,rectangle,-1,-5,1,0,0,-1,-5,1,0,0,0,17,17,60,1,,,,,,,,
,,,,,,,,,,,,,FF,,,,,,,,4.366,,,,,,,,,,,,,,,,,,,,,,60ff9740c0716986284c41b3,61036cd27c0fb30bf3dedca8,2021-07-30_05h07.31.756,Simcolourproject_2stim_asymm_v5,2020.2.10,Win32,60,61025ae37ef11b136ea224fe,,,,,,,,,2333,-41,-86,1,0,0,response5disk,,3,13,6,1,0,0,rectangle,13,6,1,0,0,13,6,1,0,0,0,18,18,129,1,,,,,,,,
,,,,,,,,,,,,,FF,,,,,,,,1.4831,,,,,,,,,,,,,,,,,,,,,,60ff9740c0716986284c41b3,61036cd27c0fb30bf3dedca8,2021-07-30_05h07.31.756,Simcolourproject_2stim_asymm_v5,2020.2.10,Win32,60,61025ae37ef11b136ea224fe,,,,,,,,,4257,52,88,1,0,0,response1disk,,7,-1,-1,1,0,0,rectangle,-1,-1,1,0,0,-1,-1,1,0,0,0,19,19,92,1,,,,,,,,
,,,,,,,,,,,,,FF,,,,,,,,1.2832,,,,,,,,,,,,,,,,,,,,,,60ff9740c0716986284c41b3,61036cd27c0fb30bf3dedca8,2021-07-30_05h07.31.756,Simcolourproject_2stim_asymm_v5,2020.2.10,Win32,60,61025ae37ef11b136ea224fe,,,,,,,,,2213,36,73,1,0,0,response1disk,,7,14,13,1,0,0,rectangle,14,13,1,0,0,14,13,1,0,0,0,20,20,94,1,,,,,,,,
,,,,,,,,,,,,,FF,,,,,,,,1.4165,,,,,,,,,,,,,,,,,,,,,,60ff9740c0716986284c41b3,61036cd27c0fb30bf3dedca8,2021-07-30_05h07.31.756,Simcolourproject_2stim_asymm_v5,2020.2.10,Win32,60,61025ae37ef11b136ea224fe,,,,,,,,,4274,-50,-66,1,0,0,response5disk,,3,-4,-6,1,0,0,rectangle,-4,-6,1,0,0,-4,-6,1,0,0,0,21,21,68,1,,,,,,,,
,,,,,,,,,,,,,FF,,,,,,,,1.5997,,,,,,,,,,,,,,,,,,,,,,60ff9740c0716986284c41b3,61036cd27c0fb30bf3dedca8,2021-07-30_05h07.31.756,Simcolourproject_2stim_asymm_v5,2020.2.10,Win32,60,61025ae37ef11b136ea224fe,,,,,,,,,11,-61,-43,1,0,0,response5disk,,2,10,-8,1,0,0,rectangle,10,-8,1,0,0,10,-8,1,0,0,0,22,22,95,1,,,,,,,,
,,,,,,,,,,,,,FF,,,,,,,,0.9837,,,,,,,,,,,,,,,,,,,,,,60ff9740c0716986284c41b3,61036cd27c0fb30bf3dedca8,2021-07-30_05h07.31.756,Simcolourproject_2stim_asymm_v5,2020.2.10,Win32,60,61025ae37ef11b136ea224fe,,,,,,,,,223,42,-61,1,0,0,response3disk,,4,16,-8,1,0,0,rectangle,16,-8,1,0,0,16,-8,1,0,0,0,23,23,123,1,,,,,,,,
,,,,,,,,,,,,,FF,,,,,,,,1.0661,,,,,,,,,,,,,,,,,,,,,,60ff9740c0716986284c41b3,61036cd27c0fb30bf3dedca8,2021-07-30_05h07.31.756,Simcolourproject_2stim_asymm_v5,2020.2.10,Win32,60,61025ae37ef11b136ea224fe,,,,,,,,,813,39,-58,1,0,0,response3disk,,4,7,7,1,0,0,rectangle,7,7,1,0,0,7,7,1,0,0,0,24,24,71,1,,,,,,,,
,,,,,,,,,,,,,FF,,,,,,,,2.2832,,,,,,,,,,,,,,,,,,,,,,60ff9740c0716986284c41b3,61036cd27c0fb30bf3dedca8,2021-07-30_05h07.31.756,Simcolourproject_2stim_asymm_v5,2020.2.10,Win32,60,61025ae37ef11b136ea224fe,,,,,,,,,3046,-52,80,1,0,0,response7disk,,0,-7,-12,1,0,0,rectangle,-7,-12,1,0,0,-7,-12,1,0,0,0,25,25,145,1,,,,,,,,
,,,,,,,,,,,,,FF,,,,,,,,0.9833,,,,,,,,,,,,,,,,,,,,,,60ff9740c0716986284c41b3,61036cd27c0fb30bf3dedca8,2021-07-30_05h07.31.756,Simcolourproject_2stim_asymm_v5,2020.2.10,Win32,60,61025ae37ef11b136ea224fe,,,,,,,,,3613,-68,-52,1,0,0,response5disk,,2,19,9,1,0,0,rectangle,19,9,1,0,0,19,9,1,0,0,0,26,26,151,1,,,,,,,,
,,,,,,,,,,,,,FF,,,,,,,,2.2831,,,,,,,,,,,,,,,,,,,,,,60ff9740c0716986284c41b3,61036cd27c0fb30bf3dedca8,2021-07-30_05h07.31.756,Simcolourproject_2stim_asymm_v5,2020.2.10,Win32,60,61025ae37ef11b136ea224fe,,,,,,,,,1598,-38,-67,1,0,0,response5disk,,3,2,10,1,0,0,rectangle,2,10,1,0,0,2,10,1,0,0,0,27,27,66,1,,,,,,,,
,,,,,,,,,,,,,FF,,,,,,,,1.2371,,,,,,,,,,,,,,,,,,,,,,60ff9740c0716986284c41b3,61036cd27c0fb30bf3dedca8,2021-07-30_05h07.31.756,Simcolourproject_2stim_asymm_v5,2020.2.10,Win32,60,61025ae37ef11b136ea224fe,,,,,,,,,1357,36,-56,1,0,0,response3disk,,4,10,-11,1,0,0,rectangle,10,-11,1,0,0,10,-11,1,0,0,0,28,28,23,1,,,,,,,,
,,,,,,,,,,,,,FF,,,,,,,,3.0992,,,,,,,,,,,,,,,,,,,,,,60ff9740c0716986284c41b3,61036cd27c0fb30bf3dedca8,2021-07-30_05h07.31.756,Simcolourproject_2stim_asymm_v5,2020.2.10,Win32,60,61025ae37ef11b136ea224fe,,,,,,,,,497,24,79,1,0,0,response1disk,,7,-2,1,1,0,0,rectangle,-44,118,1,0,0,0,4,1,0,0,0,29,29,48,1,,response7disk_3,TRUE,0,0,"[92,311,228,10,242,212,47,108,292,119,247,175,201,30,250,91,128,0,65,179]",2.9328,rectangle
,,,,,,,,,,,,,FF,,,,,,,,1.1703,,,,,,,,,,,,,,,,,,,,,,60ff9740c0716986284c41b3,61036cd27c0fb30bf3dedca8,2021-07-30_05h07.31.756,Simcolourproject_2stim_asymm_v5,2020.2.10,Win32,60,61025ae37ef11b136ea224fe,,,,,,,,,2813,-36,-50,1,0,0,response5disk,,3,-10,10,1,0,0,rectangle,-10,10,1,0,0,-10,10,1,0,0,0,30,30,17,1,,,,,,,,
,,,,,,,,,,,,,FF,,,,,,,,1.083,,,,,,,,,,,,,,,,,,,,,,60ff9740c0716986284c41b3,61036cd27c0fb30bf3dedca8,2021-07-30_05h07.31.756,Simcolourproject_2stim_asymm_v5,2020.2.10,Win32,60,61025ae37ef11b136ea224fe,,,,,,,,,3534,61,33,1,0,0,response1disk,,6,17,-4,1,0,0,rectangle,17,-4,1,0,0,17,-4,1,0,0,0,31,31,149,1,,,,,,,,
,,,,,,,,,,,,,FF,,,,,,,,1.45,,,,,,,,,,,,,,,,,,,,,,60ff9740c0716986284c41b3,61036cd27c0fb30bf3dedca8,2021-07-30_05h07.31.756,Simcolourproject_2stim_asymm_v5,2020.2.10,Win32,60,61025ae37ef11b136ea224fe,,,,,,,,,3199,35,-53,1,0,0,response3disk,,4,6,-19,1,0,0,rectangle,6,-19,1,0,0,6,-19,1,0,0,0,32,32,6,1,,,,,,,,
,,,,,,,,,,,,,FF,,,,,,,,2.2662,,,,,,,,,,,,,,,,,,,,,,60ff9740c0716986284c41b3,61036cd27c0fb30bf3dedca8,2021-07-30_05h07.31.756,Simcolourproject_2stim_asymm_v5,2020.2.10,Win32,60,61025ae37ef11b136ea224fe,,,,,,,,,2586,47,37,1,0,0,response1disk,,6,10,-5,1,0,0,rectangle,10,-5,1,0,0,10,-5,1,0,0,0,33,33,16,1,,,,,,,,
,,,,,,,,,,,,,FF,,,,,,,,1.2168,,,,,,,,,,,,,,,,,,,,,,60ff9740c0716986284c41b3,61036cd27c0fb30bf3dedca8,2021-07-30_05h07.31.756,Simcolourproject_2stim_asymm_v5,2020.2.10,Win32,60,61025ae37ef11b136ea224fe,,,,,,,,,236,27,-65,1,0,0,response3disk,,4,5,-10,1,0,0,rectangle,5,-10,1,0,0,5,-10,1,0,0,0,34,34,108,1,,,,,,,,
,,,,,,,,,,,,,FF,,,,,,,,2.583,,,,,,,,,,,,,,,,,,,,,,60ff9740c0716986284c41b3,61036cd27c0fb30bf3dedca8,2021-07-30_05h07.31.756,Simcolourproject_2stim_asymm_v5,2020.2.10,Win32,60,61025ae37ef11b136ea224fe,,,,,,,,,1735,-31,-53,1,0,0,response5disk,,3,10,6,1,0,0,rectangle,10,6,1,0,0,10,6,1,0,0,0,35,35,36,1,,,,,,,,
,,,,,,,,,,,,,FF,,,,,,,,1.4164,,,,,,,,,,,,,,,,,,,,,,60ff9740c0716986284c41b3,61036cd27c0fb30bf3dedca8,2021-07-30_05h07.31.756,Simcolourproject_2stim_asymm_v5,2020.2.10,Win32,60,61025ae37ef11b136ea224fe,,,,,,,,,1681,-62,-34,1,0,0,response5disk,,2,-14,-7,1,0,0,rectangle,-14,-7,1,0,0,-14,-7,1,0,0,0,36,36,104,1,,,,,,,,
,,,,,,,,,,,,,FF,,,,,,,,1.3498,,,,,,,,,,,,,,,,,,,,,,60ff9740c0716986284c41b3,61036cd27c0fb30bf3dedca8,2021-07-30_05h07.31.756,Simcolourproject_2stim_asymm_v5,2020.2.10,Win32,60,61025ae37ef11b136ea224fe,,,,,,,,,2331,49,-30,1,0,0,response3disk,,5,14,-17,1,0,0,rectangle,14,-17,1,0,0,14,-17,1,0,0,0,37,37,76,1,,,,,,,,
,,,,,,,,,,,,,FF,,,,,,,,1.4331,,,,,,,,,,,,,,,,,,,,,,60ff9740c0716986284c41b3,61036cd27c0fb30bf3dedca8,2021-07-30_05h07.31.756,Simcolourproject_2stim_asymm_v5,2020.2.10,Win32,60,61025ae37ef11b136ea224fe,,,,,,,,,3246,30,-49,1,0,0,response3disk,,4,10,-12,1,0,0,rectangle,10,-12,1,0,0,10,-12,1,0,0,0,38,38,37,1,,,,,,,,
,,,,,,,,,,,,,FF,,,,,,,,1.4131,,,,,,,,,,,,,,,,,,,,,,60ff9740c0716986284c41b3,61036cd27c0fb30bf3dedca8,2021-07-30_05h07.31.756,Simcolourproject_2stim_asymm_v5,2020.2.10,Win32,60,61025ae37ef11b136ea224fe,,,,,,,,,1213,-49,-31,1,0,0,response5disk,,2,2,-2,1,0,0,rectangle,2,-2,1,0,0,2,-2,1,0,0,0,39,39,2,1,,,,,,,,
,,,,,,,,,,,,,FF,,,,,,,,1.0166,,,,,,,,,,,,,,,,,,,,,,60ff9740c0716986284c41b3,61036cd27c0fb30bf3dedca8,2021-07-30_05h07.31.756,Simcolourproject_2stim_asymm_v5,2020.2.10,Win32,60,61025ae37ef11b136ea224fe,,,,,,,,,3796,37,-45,1,0,0,response3disk,,4,10,7,1,0,0,rectangle,10,7,1,0,0,10,7,1,0,0,0,40,40,75,1,,,,,,,,
,,,,,,,,,,,,,FF,,,,,,,,1.4497,,,,,,,,,,,,,,,,,,,,,,60ff9740c0716986284c41b3,61036cd27c0fb30bf3dedca8,2021-07-30_05h07.31.756,Simcolourproject_2stim_asymm_v5,2020.2.10,Win32,60,61025ae37ef11b136ea224fe,,,,,,,,,878,65,36,1,0,0,response1disk,,6,16,2,1,0,0,rectangle,16,2,1,0,0,16,2,1,0,0,0,41,41,140,1,,,,,,,,
,,,,,,,,,,,,,FF,,,,,,,,1.7998,,,,,,,,,,,,,,,,,,,,,,60ff9740c0716986284c41b3,61036cd27c0fb30bf3dedca8,2021-07-30_05h07.31.756,Simcolourproject_2stim_asymm_v5,2020.2.10,Win32,60,61025ae37ef11b136ea224fe,,,,,,,,,349,43,-32,1,0,0,response3disk,,5,8,-14,1,0,0,rectangle,8,-14,1,0,0,8,-14,1,0,0,0,42,42,90,1,,,,,,,,
,,,,,,,,,,,,,FF,,,,,,,,4.2328,,,,,,,,,,,,,,,,,,,,,,60ff9740c0716986284c41b3,61036cd27c0fb30bf3dedca8,2021-07-30_05h07.31.756,Simcolourproject_2stim_asymm_v5,2020.2.10,Win32,60,61025ae37ef11b136ea224fe,,,,,,,,,3738,43,-30,1,0,0,response3disk,,5,16,-14,1,0,0,rectangle,16,-14,1,0,0,16,-14,1,0,0,0,43,43,59,1,,,,,,,,
,,,,,,,,,,,,,FF,,,,,,,,1.5332,,,,,,,,,,,,,,,,,,,,,,60ff9740c0716986284c41b3,61036cd27c0fb30bf3dedca8,2021-07-30_05h07.31.756,Simcolourproject_2stim_asymm_v5,2020.2.10,Win32,60,61025ae37ef11b136ea224fe,,,,,,,,,3784,-37,-47,1,0,0,response5disk,,3,-11,-4,1,0,0,rectangle,-11,-4,1,0,0,-11,-4,1,0,0,0,44,44,49,1,,,,,,,,
,,,,,,,,,,,,,FF,,,,,,,,1.4996,,,,,,,,,,,,,,,,,,,,,,60ff9740c0716986284c41b3,61036cd27c0fb30bf3dedca8,2021-07-30_05h07.31.756,Simcolourproject_2stim_asymm_v5,2020.2.10,Win32,60,61025ae37ef11b136ea224fe,,,,,,,,,4029,-42,-43,1,0,0,response5disk,,3,-11,-8,1,0,0,rectangle,-11,-8,1,0,0,-11,-8,1,0,0,0,45,45,56,1,,,,,,,,
,,,,,,,,,,,,,FF,,,,,,,,1.4498,,,,,,,,,,,,,,,,,,,,,,60ff9740c0716986284c41b3,61036cd27c0fb30bf3dedca8,2021-07-30_05h07.31.756,Simcolourproject_2stim_asymm_v5,2020.2.10,Win32,60,61025ae37ef11b136ea224fe,,,,,,,,,3991,46,-53,1,0,0,response3disk,,4,11,0,1,0,0,rectangle,-56,-96,1,0,0,-25,-5,1,0,0,0,46,46,97,1,,response5disk_3,TRUE,3,3,"[92,311,228,10,242,212,47,108,292,119,247,175,201,30,250,91,128,0,65,179]",2.4332,rectangle
,,,,,,,,,,,,,FF,,,,,,,,1.8663,,,,,,,,,,,,,,,,,,,,,,60ff9740c0716986284c41b3,61036cd27c0fb30bf3dedca8,2021-07-30_05h07.31.756,Simcolourproject_2stim_asymm_v5,2020.2.10,Win32,60,61025ae37ef11b136ea224fe,,,,,,,,,760,53,28,1,0,0,response1disk,,6,14,2,1,0,0,rectangle,14,2,1,0,0,14,2,1,0,0,0,47,47,15,1,,,,,,,,
,,,,,,,,,,,,,FF,,,,,,,,1.3498,,,,,,,,,,,,,,,,,,,,,,60ff9740c0716986284c41b3,61036cd27c0fb30bf3dedca8,2021-07-30_05h07.31.756,Simcolourproject_2stim_asymm_v5,2020.2.10,Win32,60,61025ae37ef11b136ea224fe,,,,,,,,,2020,26,56,1,0,0,response1disk,,7,18,8,1,0,0,rectangle,18,8,1,0,0,18,8,1,0,0,0,48,48,14,1,,,,,,,,
,,,,,,,,,,,,,FF,,,,,,,,1.0832,,,,,,,,,,,,,,,,,,,,,,60ff9740c0716986284c41b3,61036cd27c0fb30bf3dedca8,2021-07-30_05h07.31.756,Simcolourproject_2stim_asymm_v5,2020.2.10,Win32,60,61025ae37ef11b136ea224fe,,,,,,,,,1895,-76,27,1,0,0,response7disk,,1,-17,3,1,0,0,rectangle,-17,3,1,0,0,-17,3,1,0,0,0,49,49,120,1,,,,,,,,
,,,,,,,,,,,,,FF,,,,,,,,1.683,,,,,,,,,,,,,,,,,,,,,,60ff9740c0716986284c41b3,61036cd27c0fb30bf3dedca8,2021-07-30_05h07.31.756,Simcolourproject_2stim_asymm_v5,2020.2.10,Win32,60,61025ae37ef11b136ea224fe,,,,,,,,,2024,61,37,1,0,0,response1disk,,6,13,13,1,0,0,rectangle,13,13,1,0,0,13,13,1,0,0,0,50,50,122,1,,,,,,,,
,,,,,,,,,,,,,FF,,,,,,,,0.9499,,,,,,,,,,,,,,,,,,,,,,60ff9740c0716986284c41b3,61036cd27c0fb30bf3dedca8,2021-07-30_05h07.31.756,Simcolourproject_2stim_asymm_v5,2020.2.10,Win32,60,61025ae37ef11b136ea224fe,,,,,,,,,2792,59,-33,1,0,0,response3disk,,5,11,0,1,0,0,rectangle,11,0,1,0,0,11,0,1,0,0,0,51,51,125,1,,,,,,,,
,,,,,,,,,,,,,FF,,,,,,,,1.2998,,,,,,,,,,,,,,,,,,,,,,60ff9740c0716986284c41b3,61036cd27c0fb30bf3dedca8,2021-07-30_05h07.31.756,Simcolourproject_2stim_asymm_v5,2020.2.10,Win32,60,61025ae37ef11b136ea224fe,,,,,,,,,2757,60,-35,1,0,0,response3disk,,5,9,-8,1,0,0,rectangle,9,-8,1,0,0,9,-8,1,0,0,0,52,52,38,1,,,,,,,,
,,,,,,,,,,,,,FF,,,,,,,,1.1332,,,,,,,,,,,,,,,,,,,,,,60ff9740c0716986284c41b3,61036cd27c0fb30bf3dedca8,2021-07-30_05h07.31.756,Simcolourproject_2stim_asymm_v5,2020.2.10,Win32,60,61025ae37ef11b136ea224fe,,,,,,,,,1060,24,-54,1,0,0,response3disk,,4,10,-8,1,0,0,rectangle,10,-8,1,0,0,10,-8,1,0,0,0,53,53,138,1,,,,,,,,
,,,,,,,,,,,,,FF,,,,,,,,1.7996,,,,,,,,,,,,,,,,,,,,,,60ff9740c0716986284c41b3,61036cd27c0fb30bf3dedca8,2021-07-30_05h07.31.756,Simcolourproject_2stim_asymm_v5,2020.2.10,Win32,60,61025ae37ef11b136ea224fe,,,,,,,,,1131,-56,-30,1,0,0,response5disk,,2,-12,2,1,0,0,rectangle,-12,2,1,0,0,-12,2,1,0,0,0,54,54,144,1,,,,,,,,
,,,,,,,,,,,,,FF,,,,,,,,2.6663,,,,,,,,,,,,,,,,,,,,,,60ff9740c0716986284c41b3,61036cd27c0fb30bf3dedca8,2021-07-30_05h07.31.756,Simcolourproject_2stim_asymm_v5,2020.2.10,Win32,60,61025ae37ef11b136ea224fe,,,,,,,,,1599,-34,-45,1,0,0,response5disk,,3,-14,2,1,0,0,rectangle,-14,2,1,0,0,-14,2,1,0,0,0,55,55,153,1,,,,,,,,
,,,,,,,,,,,,,FF,,,,,,,,0.85,,,,,,,,,,,,,,,,,,,,,,60ff9740c0716986284c41b3,61036cd27c0fb30bf3dedca8,2021-07-30_05h07.31.756,Simcolourproject_2stim_asymm_v5,2020.2.10,Win32,60,61025ae37ef11b136ea224fe,,,,,,,,,2295,-77,-40,1,0,0,response5disk,,2,-18,7,1,0,0,rectangle,-18,7,1,0,0,-18,7,1,0,0,0,56,56,1,1,,,,,,,,
,,,,,,,,,,,,,FF,,,,,,,,1.1999,,,,,,,,,,,,,,,,,,,,,,60ff9740c0716986284c41b3,61036cd27c0fb30bf3dedca8,2021-07-30_05h07.31.756,Simcolourproject_2stim_asymm_v5,2020.2.10,Win32,60,61025ae37ef11b136ea224fe,,,,,,,,,331,38,-51,1,0,0,response3disk,,4,15,-17,1,0,0,rectangle,15,-17,1,0,0,15,-17,1,0,0,0,57,57,88,1,,,,,,,,
,,,,,,,,,,,,,FF,,,,,,,,0.8831,,,,,,,,,,,,,,,,,,,,,,60ff9740c0716986284c41b3,61036cd27c0fb30bf3dedca8,2021-07-30_05h07.31.756,Simcolourproject_2stim_asymm_v5,2020.2.10,Win32,60,61025ae37ef11b136ea224fe,,,,,,,,,342,50,-36,1,0,0,response3disk,,5,12,-17,1,0,0,rectangle,12,-17,1,0,0,12,-17,1,0,0,0,58,58,42,1,,,,,,,,
,,,,,,,,,,,,,FF,,,,,,,,0.9333,,,,,,,,,,,,,,,,,,,,,,60ff9740c0716986284c41b3,61036cd27c0fb30bf3dedca8,2021-07-30_05h07.31.756,Simcolourproject_2stim_asymm_v5,2020.2.10,Win32,60,61025ae37ef11b136ea224fe,,,,,,,,,3277,82,44,1,0,0,response1disk,,6,5,5,1,0,0,rectangle,5,5,1,0,0,5,5,1,0,0,0,59,59,24,1,,,,,,,,
,,,,,,,,,,,,,FF,,,,,,,,1.0331,,,,,,,,,,,,,,,,,,,,,,60ff9740c0716986284c41b3,61036cd27c0fb30bf3dedca8,2021-07-30_05h07.31.756,Simcolourproject_2stim_asymm_v5,2020.2.10,Win32,60,61025ae37ef11b136ea224fe,,,,,,,,,1512,55,69,1,0,0,response1disk,,7,22,6,1,0,0,rectangle,22,6,1,0,0,22,6,1,0,0,0,60,60,146,1,,,,,,,,
,,,,,,,,,,,,,FF,,,,,,,,1.7997,,,,,,,,,,,,,,,,,,,,,,60ff9740c0716986284c41b3,61036cd27c0fb30bf3dedca8,2021-07-30_05h07.31.756,Simcolourproject_2stim_asymm_v5,2020.2.10,Win32,60,61025ae37ef11b136ea224fe,,,,,,,,,662,48,-25,1,0,0,response3disk,,5,15,6,1,0,0,rectangle,15,6,1,0,0,15,6,1,0,0,0,61,61,27,1,,,,,,,,
,,,,,,,,,,,,,FF,,,,,,,,0.5332,,,,,,,,,,,,,,,,,,,,,,60ff9740c0716986284c41b3,61036cd27c0fb30bf3dedca8,2021-07-30_05h07.31.756,Simcolourproject_2stim_asymm_v5,2020.2.10,Win32,60,61025ae37ef11b136ea224fe,,,,,,,,,3579,53,31,1,0,0,response1disk,,6,14,-3,1,0,0,rectangle,14,-3,1,0,0,14,-3,1,0,0,0,62,62,22,1,,,,,,,,
,,,,,,,,,,,,,FF,,,,,,,,0.7666,,,,,,,,,,,,,,,,,,,,,,60ff9740c0716986284c41b3,61036cd27c0fb30bf3dedca8,2021-07-30_05h07.31.756,Simcolourproject_2stim_asymm_v5,2020.2.10,Win32,60,61025ae37ef11b136ea224fe,,,,,,,,,2262,54,-49,1,0,0,response3disk,,5,15,-11,1,0,0,rectangle,15,-11,1,0,0,15,-11,1,0,0,0,63,63,18,1,,,,,,,,
,,,,,,,,,,,,,FF,,,,,,,,1.0664,,,,,,,,,,,,,,,,,,,,,,60ff9740c0716986284c41b3,61036cd27c0fb30bf3dedca8,2021-07-30_05h07.31.756,Simcolourproject_2stim_asymm_v5,2020.2.10,Win32,60,61025ae37ef11b136ea224fe,,,,,,,,,2606,-36,-58,1,0,0,response5disk,,3,-10,-11,1,0,0,rectangle,-38,90,1,0,0,-12,1,1,0,0,0,64,64,131,1,,response7disk_3,TRUE,0,0,"[92,311,228,10,242,212,47,108,292,119,247,175,201,30,250,91,128,0,65,179]",1.816,rectangle
,,,,,,,,,,,,,FF,,,,,,,,0.9497,,,,,,,,,,,,,,,,,,,,,,60ff9740c0716986284c41b3,61036cd27c0fb30bf3dedca8,2021-07-30_05h07.31.756,Simcolourproject_2stim_asymm_v5,2020.2.10,Win32,60,61025ae37ef11b136ea224fe,,,,,,,,,1087,49,43,1,0,0,response1disk,,6,8,-6,1,0,0,rectangle,8,-6,1,0,0,8,-6,1,0,0,0,65,65,82,1,,,,,,,,
,,,,,,,,,,,,,FF,,,,,,,,0.9165,,,,,,,,,,,,,,,,,,,,,,60ff9740c0716986284c41b3,61036cd27c0fb30bf3dedca8,2021-07-30_05h07.31.756,Simcolourproject_2stim_asymm_v5,2020.2.10,Win32,60,61025ae37ef11b136ea224fe,,,,,,,,,2639,52,-35,1,0,0,response3disk,,5,7,-7,1,0,0,rectangle,7,-7,1,0,0,7,-7,1,0,0,0,66,66,43,1,,,,,,,,
,,,,,,,,,,,,,FF,,,,,,,,0.5832,,,,,,,,,,,,,,,,,,,,,,60ff9740c0716986284c41b3,61036cd27c0fb30bf3dedca8,2021-07-30_05h07.31.756,Simcolourproject_2stim_asymm_v5,2020.2.10,Win32,60,61025ae37ef11b136ea224fe,,,,,,,,,321,28,-58,1,0,0,response3disk,,4,8,-12,1,0,0,rectangle,8,-12,1,0,0,8,-12,1,0,0,0,67,67,52,1,,,,,,,,
,,,,,,,,,,,,,FF,,,,,,,,0.8497,,,,,,,,,,,,,,,,,,,,,,60ff9740c0716986284c41b3,61036cd27c0fb30bf3dedca8,2021-07-30_05h07.31.756,Simcolourproject_2stim_asymm_v5,2020.2.10,Win32,60,61025ae37ef11b136ea224fe,,,,,,,,,3346,37,60,1,0,0,response1disk,,7,1,3,1,0,0,rectangle,1,3,1,0,0,1,3,1,0,0,0,68,68,112,1,,,,,,,,
,,,,,,,,,,,,,FF,,,,,,,,0.8165,,,,,,,,,,,,,,,,,,,,,,60ff9740c0716986284c41b3,61036cd27c0fb30bf3dedca8,2021-07-30_05h07.31.756,Simcolourproject_2stim_asymm_v5,2020.2.10,Win32,60,61025ae37ef11b136ea224fe,,,,,,,,,2898,-32,-49,1,0,0,response5disk,,3,0,8,1,0,0,rectangle,0,8,1,0,0,0,8,1,0,0,0,69,69,12,1,,,,,,,,
,,,,,,,,,,,,,FF,,,,,,,,0.8999,,,,,,,,,,,,,,,,,,,,,,60ff9740c0716986284c41b3,61036cd27c0fb30bf3dedca8,2021-07-30_05h07.31.756,Simcolourproject_2stim_asymm_v5,2020.2.10,Win32,60,61025ae37ef11b136ea224fe,,,,,,,,,624,33,-51,1,0,0,response3disk,,4,13,-3,1,0,0,rectangle,13,-3,1,0,0,13,-3,1,0,0,0,70,70,5,1,,,,,,,,
,,,,,,,,,,,,,FF,,,,,,,,0.7025,,,,,,,,,,,,,,,,,,,,,,60ff9740c0716986284c41b3,61036cd27c0fb30bf3dedca8,2021-07-30_05h07.31.756,Simcolourproject_2stim_asymm_v5,2020.2.10,Win32,60,61025ae37ef11b136ea224fe,,,,,,,,,380,54,-21,1,0,0,response3disk,,5,24,1,1,0,0,rectangle,24,1,1,0,0,24,1,1,0,0,0,71,71,57,1,,,,,,,,
,,,,,,,,,,,,,FF,,,,,,,,0.8665,,,,,,,,,,,,,,,,,,,,,,60ff9740c0716986284c41b3,61036cd27c0fb30bf3dedca8,2021-07-30_05h07.31.756,Simcolourproject_2stim_asymm_v5,2020.2.10,Win32,60,61025ae37ef11b136ea224fe,,,,,,,,,4177,32,60,1,0,0,response1disk,,7,18,-2,1,0,0,rectangle,18,-2,1,0,0,18,-2,1,0,0,0,72,72,53,1,,,,,,,,
,,,,,,,,,,,,,FF,,,,,,,,1.4833,,,,,,,,,,,,,,,,,,,,,,60ff9740c0716986284c41b3,61036cd27c0fb30bf3dedca8,2021-07-30_05h07.31.756,Simcolourproject_2stim_asymm_v5,2020.2.10,Win32,60,61025ae37ef11b136ea224fe,,,,,,,,,607,31,63,1,0,0,response1disk,,7,6,9,1,0,0,rectangle,6,9,1,0,0,6,9,1,0,0,0,73,73,86,1,,,,,,,,
,,,,,,,,,,,,,FF,,,,,,,,1.1832,,,,,,,,,,,,,,,,,,,,,,60ff9740c0716986284c41b3,61036cd27c0fb30bf3dedca8,2021-07-30_05h07.31.756,Simcolourproject_2stim_asymm_v5,2020.2.10,Win32,60,61025ae37ef11b136ea224fe,,,,,,,,,1079,76,36,1,0,0,response1disk,,6,27,-4,1,0,0,rectangle,27,-4,1,0,0,27,-4,1,0,0,0,74,74,157,1,,,,,,,,
,,,,,,,,,,,,,FF,,,,,,,,0.7166,,,,,,,,,,,,,,,,,,,,,,60ff9740c0716986284c41b3,61036cd27c0fb30bf3dedca8,2021-07-30_05h07.31.756,Simcolourproject_2stim_asymm_v5,2020.2.10,Win32,60,61025ae37ef11b136ea224fe,,,,,,,,,2315,60,-33,1,0,0,response3disk,,5,-2,10,1,0,0,rectangle,-2,10,1,0,0,-2,10,1,0,0,0,75,75,0,1,,,,,,,,
,,,,,,,,,,,,,FF,,,,,,,,1.6831,,,,,,,,,,,,,,,,,,,,,,60ff9740c0716986284c41b3,61036cd27c0fb30bf3dedca8,2021-07-30_05h07.31.756,Simcolourproject_2stim_asymm_v5,2020.2.10,Win32,60,61025ae37ef11b136ea224fe,,,,,,,,,1977,69,40,1,0,0,response1disk,,6,20,3,1,0,0,rectangle,20,3,1,0,0,20,3,1,0,0,0,76,76,148,1,,,,,,,,
,,,,,,,,,,,,,FF,,,,,,,,1.4831,,,,,,,,,,,,,,,,,,,,,,60ff9740c0716986284c41b3,61036cd27c0fb30bf3dedca8,2021-07-30_05h07.31.756,Simcolourproject_2stim_asymm_v5,2020.2.10,Win32,60,61025ae37ef11b136ea224fe,,,,,,,,,1901,26,-60,1,0,0,response3disk,,4,12,-13,1,0,0,rectangle,12,-13,1,0,0,12,-13,1,0,0,0,77,77,126,1,,,,,,,,
,,,,,,,,,,,,,FF,,,,,,,,2.8829,,,,,,,,,,,,,,,,,,,,,,60ff9740c0716986284c41b3,61036cd27c0fb30bf3dedca8,2021-07-30_05h07.31.756,Simcolourproject_2stim_asymm_v5,2020.2.10,Win32,60,61025ae37ef11b136ea224fe,,,,,,,,,577,60,28,1,0,0,response1disk,,6,6,11,1,0,0,rectangle,6,11,1,0,0,6,11,1,0,0,0,78,78,63,1,,,,,,,,
,,,,,,,,,,,,,FF,,,,,,,,1.0168,,,,,,,,,,,,,,,,,,,,,,60ff9740c0716986284c41b3,61036cd27c0fb30bf3dedca8,2021-07-30_05h07.31.756,Simcolourproject_2stim_asymm_v5,2020.2.10,Win32,60,61025ae37ef11b136ea224fe,,,,,,,,,2473,35,-49,1,0,0,response3disk,,4,9,12,1,0,0,rectangle,9,12,1,0,0,9,12,1,0,0,0,79,79,78,1,,,,,,,,
,,,,,,,,,,,,,FF,,,,,,,,0.9667,,,,,,,,,,,,,,,,,,,,,,60ff9740c0716986284c41b3,61036cd27c0fb30bf3dedca8,2021-07-30_05h07.31.756,Simcolourproject_2stim_asymm_v5,2020.2.10,Win32,60,61025ae37ef11b136ea224fe,,,,,,,,,1795,27,47,1,0,0,response1disk,,7,15,16,1,0,0,rectangle,15,16,1,0,0,15,16,1,0,0,0,80,80,20,1,,,,,,,,
,,,,,,,,,,,,,FF,,,,,,,,2.533,,,,,,,,,,,,,,,,,,,,,,60ff9740c0716986284c41b3,61036cd27c0fb30bf3dedca8,2021-07-30_05h07.31.756,Simcolourproject_2stim_asymm_v5,2020.2.10,Win32,60,61025ae37ef11b136ea224fe,,,,,,,,,1002,54,35,1,0,0,response1disk,,6,-22,-17,1,0,0,rectangle,-22,-17,1,0,0,-22,-17,1,0,0,0,81,81,7,1,,,,,,,,
,,,,,,,,,,,,,FF,,,,,,,,0.8666,,,,,,,,,,,,,,,,,,,,,,60ff9740c0716986284c41b3,61036cd27c0fb30bf3dedca8,2021-07-30_05h07.31.756,Simcolourproject_2stim_asymm_v5,2020.2.10,Win32,60,61025ae37ef11b136ea224fe,,,,,,,,,17,78,43,1,0,0,response1disk,,6,13,-10,1,0,0,rectangle,13,-10,1,0,0,13,-10,1,0,0,0,82,82,135,1,,,,,,,,
,,,,,,,,,,,,,FF,,,,,,,,0.933,,,,,,,,,,,,,,,,,,,,,,60ff9740c0716986284c41b3,61036cd27c0fb30bf3dedca8,2021-07-30_05h07.31.756,Simcolourproject_2stim_asymm_v5,2020.2.10,Win32,60,61025ae37ef11b136ea224fe,,,,,,,,,2560,29,62,1,0,0,response1disk,,7,21,8,1,0,0,rectangle,21,8,1,0,0,21,8,1,0,0,0,83,83,73,1,,,,,,,,
,,,,,,,,,,,,,FF,,,,,,,,1.233,,,,,,,,,,,,,,,,,,,,,,60ff9740c0716986284c41b3,61036cd27c0fb30bf3dedca8,2021-07-30_05h07.31.756,Simcolourproject_2stim_asymm_v5,2020.2.10,Win32,60,61025ae37ef11b136ea224fe,,,,,,,,,868,54,-36,1,0,0,response3disk,,5,5,-10,1,0,0,rectangle,5,-10,1,0,0,5,-10,1,0,0,0,84,84,69,1,,,,,,,,
,,,,,,,,,,,,,FF,,,,,,,,0.8334,,,,,,,,,,,,,,,,,,,,,,60ff9740c0716986284c41b3,61036cd27c0fb30bf3dedca8,2021-07-30_05h07.31.756,Simcolourproject_2stim_asymm_v5,2020.2.10,Win32,60,61025ae37ef11b136ea224fe,,,,,,,,,1514,26,-61,1,0,0,response3disk,,4,6,2,1,0,0,rectangle,6,2,1,0,0,6,2,1,0,0,0,85,85,93,1,,,,,,,,
,,,,,,,,,,,,,FF,,,,,,,,1.2332,,,,,,,,,,,,,,,,,,,,,,60ff9740c0716986284c41b3,61036cd27c0fb30bf3dedca8,2021-07-30_05h07.31.756,Simcolourproject_2stim_asymm_v5,2020.2.10,Win32,60,61025ae37ef11b136ea224fe,,,,,,,,,3494,32,-56,1,0,0,response3disk,,4,12,4,1,0,0,rectangle,12,4,1,0,0,12,4,1,0,0,0,86,86,128,1,,,,,,,,
,,,,,,,,,,,,,FF,,,,,,,,0.8332,,,,,,,,,,,,,,,,,,,,,,60ff9740c0716986284c41b3,61036cd27c0fb30bf3dedca8,2021-07-30_05h07.31.756,Simcolourproject_2stim_asymm_v5,2020.2.10,Win32,60,61025ae37ef11b136ea224fe,,,,,,,,,4071,-35,78,1,0,0,response7disk,,0,-3,6,1,0,0,rectangle,-3,6,1,0,0,-3,6,1,0,0,0,87,87,51,1,,,,,,,,
,,,,,,,,,,,,,FF,,,,,,,,2.5162,,,,,,,,,,,,,,,,,,,,,,60ff9740c0716986284c41b3,61036cd27c0fb30bf3dedca8,2021-07-30_05h07.31.756,Simcolourproject_2stim_asymm_v5,2020.2.10,Win32,60,61025ae37ef11b136ea224fe,,,,,,,,,1810,40,61,1,0,0,response1disk,,7,-1,5,1,0,0,rectangle,-1,5,1,0,0,-1,5,1,0,0,0,88,88,101,1,,,,,,,,
,,,,,,,,,,,,,FF,,,,,,,,1.0666,,,,,,,,,,,,,,,,,,,,,,60ff9740c0716986284c41b3,61036cd27c0fb30bf3dedca8,2021-07-30_05h07.31.756,Simcolourproject_2stim_asymm_v5,2020.2.10,Win32,60,61025ae37ef11b136ea224fe,,,,,,,,,3638,55,-37,1,0,0,response3disk,,5,14,2,1,0,0,rectangle,14,2,1,0,0,14,2,1,0,0,0,89,89,152,1,,,,,,,,
,,,,,,,,,,,,,FF,,,,,,,,1.0833,,,,,,,,,,,,,,,,,,,,,,60ff9740c0716986284c41b3,61036cd27c0fb30bf3dedca8,2021-07-30_05h07.31.756,Simcolourproject_2stim_asymm_v5,2020.2.10,Win32,60,61025ae37ef11b136ea224fe,,,,,,,,,4355,32,-44,1,0,0,response3disk,,4,8,16,1,0,0,rectangle,-51,-77,1,0,0,-11,-7,1,0,0,0,90,90,147,1,,response5disk_3,TRUE,3,3,"[92,311,228,10,242,212,47,108,292,119,247,175,201,30,250,91,128,0,65,179]",1.8163,rectangle
,,,,,,,,,,,,,FF,,,,,,,,2.5994,,,,,,,,,,,,,,,,,,,,,,60ff9740c0716986284c41b3,61036cd27c0fb30bf3dedca8,2021-07-30_05h07.31.756,Simcolourproject_2stim_asymm_v5,2020.2.10,Win32,60,61025ae37ef11b136ea224fe,,,,,,,,,1994,46,26,1,0,0,response1disk,,6,18,6,1,0,0,rectangle,-90,-49,1,0,0,6,-11,1,0,0,0,91,91,117,1,,response5disk_3,TRUE,2,2,"[92,311,228,10,242,212,47,108,292,119,247,175,201,30,250,91,128,0,65,179]",1.8329,rectangle
,,,,,,,,,,,,,FF,,,,,,,,2.1997,,,,,,,,,,,,,,,,,,,,,,60ff9740c0716986284c41b3,61036cd27c0fb30bf3dedca8,2021-07-30_05h07.31.756,Simcolourproject_2stim_asymm_v5,2020.2.10,Win32,60,61025ae37ef11b136ea224fe,,,,,,,,,21,39,-62,1,0,0,response3disk,,4,23,-9,1,0,0,rectangle,23,-9,1,0,0,23,-9,1,0,0,0,92,92,141,1,,,,,,,,
,,,,,,,,,,,,,FF,,,,,,,,2.3328,,,,,,,,,,,,,,,,,,,,,,60ff9740c0716986284c41b3,61036cd27c0fb30bf3dedca8,2021-07-30_05h07.31.756,Simcolourproject_2stim_asymm_v5,2020.2.10,Win32,60,61025ae37ef11b136ea224fe,,,,,,,,,3681,45,-32,1,0,0,response3disk,,5,22,-9,1,0,0,rectangle,22,-9,1,0,0,22,-9,1,0,0,0,93,93,159,1,,,,,,,,
,,,,,,,,,,,,,FF,,,,,,,,1.3331,,,,,,,,,,,,,,,,,,,,,,60ff9740c0716986284c41b3,61036cd27c0fb30bf3dedca8,2021-07-30_05h07.31.756,Simcolourproject_2stim_asymm_v5,2020.2.10,Win32,60,61025ae37ef11b136ea224fe,,,,,,,,,2952,43,69,1,0,0,response1disk,,7,-2,-1,1,0,0,rectangle,-2,-1,1,0,0,-2,-1,1,0,0,0,94,94,11,1,,,,,,,,
,,,,,,,,,,,,,FF,,,,,,,,1.1663,,,,,,,,,,,,,,,,,,,,,,60ff9740c0716986284c41b3,61036cd27c0fb30bf3dedca8,2021-07-30_05h07.31.756,Simcolourproject_2stim_asymm_v5,2020.2.10,Win32,60,61025ae37ef11b136ea224fe,,,,,,,,,2479,52,80,1,0,0,response1disk,,7,21,13,1,0,0,rectangle,21,13,1,0,0,21,13,1,0,0,0,95,95,25,1,,,,,,,,
,,,,,,,,,,,,,FF,,,,,,,,0.8832,,,,,,,,,,,,,,,,,,,,,,60ff9740c0716986284c41b3,61036cd27c0fb30bf3dedca8,2021-07-30_05h07.31.756,Simcolourproject_2stim_asymm_v5,2020.2.10,Win32,60,61025ae37ef11b136ea224fe,,,,,,,,,2795,49,72,1,0,0,response1disk,,7,19,-1,1,0,0,rectangle,19,-1,1,0,0,19,-1,1,0,0,0,96,96,83,1,,,,,,,,
,,,,,,,,,,,,,FF,,,,,,,,1.0333,,,,,,,,,,,,,,,,,,,,,,60ff9740c0716986284c41b3,61036cd27c0fb30bf3dedca8,2021-07-30_05h07.31.756,Simcolourproject_2stim_asymm_v5,2020.2.10,Win32,60,61025ae37ef11b136ea224fe,,,,,,,,,1212,63,-33,1,0,0,response3disk,,5,11,-17,1,0,0,rectangle,11,-17,1,0,0,11,-17,1,0,0,0,97,97,64,1,,,,,,,,
,,,,,,,,,,,,,FF,,,,,,,,0.7497,,,,,,,,,,,,,,,,,,,,,,60ff9740c0716986284c41b3,61036cd27c0fb30bf3dedca8,2021-07-30_05h07.31.756,Simcolourproject_2stim_asymm_v5,2020.2.10,Win32,60,61025ae37ef11b136ea224fe,,,,,,,,,3231,34,-60,1,0,0,response3disk,,4,22,-3,1,0,0,rectangle,22,-3,1,0,0,22,-3,1,0,0,0,98,98,105,1,,,,,,,,
,,,,,,,,,,,,,FF,,,,,,,,0.8498,,,,,,,,,,,,,,,,,,,,,,60ff9740c0716986284c41b3,61036cd27c0fb30bf3dedca8,2021-07-30_05h07.31.756,Simcolourproject_2stim_asymm_v5,2020.2.10,Win32,60,61025ae37ef11b136ea224fe,,,,,,,,,2242,61,-36,1,0,0,response3disk,,5,1,1,1,0,0,rectangle,1,1,1,0,0,1,1,1,0,0,0,99,99,80,1,,,,,,,,
,,,,,,,,,,,,,FF,,,,,,,,1.2833,,,,,,,,,,,,,,,,,,,,,,60ff9740c0716986284c41b3,61036cd27c0fb30bf3dedca8,2021-07-30_05h07.31.756,Simcolourproject_2stim_asymm_v5,2020.2.10,Win32,60,61025ae37ef11b136ea224fe,,,,,,,,,3015,68,40,1,0,0,response1disk,,6,6,14,1,0,0,rectangle,6,14,1,0,0,6,14,1,0,0,0,100,100,4,1,,,,,,,,
,,,,,,,,,,,,,FF,,,,,,,,0.9,,,,,,,,,,,,,,,,,,,,,,60ff9740c0716986284c41b3,61036cd27c0fb30bf3dedca8,2021-07-30_05h07.31.756,Simcolourproject_2stim_asymm_v5,2020.2.10,Win32,60,61025ae37ef11b136ea224fe,,,,,,,,,2564,46,67,1,0,0,response1disk,,7,28,13,1,0,0,rectangle,28,13,1,0,0,28,13,1,0,0,0,101,101,137,1,,,,,,,,
,,,,,,,,,,,,,FF,,,,,,,,1.1667,,,,,,,,,,,,,,,,,,,,,,60ff9740c0716986284c41b3,61036cd27c0fb30bf3dedca8,2021-07-30_05h07.31.756,Simcolourproject_2stim_asymm_v5,2020.2.10,Win32,60,61025ae37ef11b136ea224fe,,,,,,,,,914,46,81,1,0,0,response1disk,,7,-3,-3,1,0,0,rectangle,-3,-3,1,0,0,-3,-3,1,0,0,0,102,102,62,1,,,,,,,,
,,,,,,,,,,,,,FF,,,,,,,,0.8164,,,,,,,,,,,,,,,,,,,,,,60ff9740c0716986284c41b3,61036cd27c0fb30bf3dedca8,2021-07-30_05h07.31.756,Simcolourproject_2stim_asymm_v5,2020.2.10,Win32,60,61025ae37ef11b136ea224fe,,,,,,,,,1666,44,75,1,0,0,response1disk,,7,21,16,1,0,0,rectangle,21,16,1,0,0,21,16,1,0,0,0,103,103,127,1,,,,,,,,
,,,,,,,,,,,,,FF,,,,,,,,1.2999,,,,,,,,,,,,,,,,,,,,,,60ff9740c0716986284c41b3,61036cd27c0fb30bf3dedca8,2021-07-30_05h07.31.756,Simcolourproject_2stim_asymm_v5,2020.2.10,Win32,60,61025ae37ef11b136ea224fe,,,,,,,,,3101,-28,-45,1,0,0,response5disk,,3,-10,-5,1,0,0,rectangle,-10,-5,1,0,0,-10,-5,1,0,0,0,104,104,45,1,,,,,,,,
,,,,,,,,,,,,,FF,,,,,,,,1.3664,,,,,,,,,,,,,,,,,,,,,,60ff9740c0716986284c41b3,61036cd27c0fb30bf3dedca8,2021-07-30_05h07.31.756,Simcolourproject_2stim_asymm_v5,2020.2.10,Win32,60,61025ae37ef11b136ea224fe,,,,,,,,,2946,-36,-51,1,0,0,response5disk,,3,-8,10,1,0,0,rectangle,-8,10,1,0,0,-8,10,1,0,0,0,105,105,3,1,,,,,,,,
,,,,,,,,,,,,,FF,,,,,,,,1.08,,,,,,,,,,,,,,,,,,,,,,60ff9740c0716986284c41b3,61036cd27c0fb30bf3dedca8,2021-07-30_05h07.31.756,Simcolourproject_2stim_asymm_v5,2020.2.10,Win32,60,61025ae37ef11b136ea224fe,,,,,,,,,508,34,-59,1,0,0,response3disk,,4,8,-4,1,0,0,rectangle,8,-4,1,0,0,8,-4,1,0,0,0,106,106,19,1,,,,,,,,
,,,,,,,,,,,,,FF,,,,,,,,1.4664,,,,,,,,,,,,,,,,,,,,,,60ff9740c0716986284c41b3,61036cd27c0fb30bf3dedca8,2021-07-30_05h07.31.756,Simcolourproject_2stim_asymm_v5,2020.2.10,Win32,60,61025ae37ef11b136ea224fe,,,,,,,,,639,62,-33,1,0,0,response3disk,,5,6,-3,1,0,0,rectangle,-111,59,1,0,0,2,1,1,0,0,0,107,107,67,1,,response7disk_3,TRUE,1,1,"[92,311,228,10,242,212,47,108,292,119,247,175,201,30,250,91,128,0,65,179]",1.8661,rectangle
,,,,,,,,,,,,,FF,,,,,,,,6.5525,,,,,,,,,,,,,,,,,,,,,,60ff9740c0716986284c41b3,61036cd27c0fb30bf3dedca8,2021-07-30_05h07.31.756,Simcolourproject_2stim_asymm_v5,2020.2.10,Win32,60,61025ae37ef11b136ea224fe,,,,,,,,,3139,31,-60,1,0,0,response3disk,,4,-3,-13,1,0,0,rectangle,-3,-13,1,0,0,-3,-13,1,0,0,0,108,108,31,1,,,,,,,,
,,,,,,,,,,,,,FF,,,,,,,,1.2998,,,,,,,,,,,,,,,,,,,,,,60ff9740c0716986284c41b3,61036cd27c0fb30bf3dedca8,2021-07-30_05h07.31.756,Simcolourproject_2stim_asymm_v5,2020.2.10,Win32,60,61025ae37ef11b136ea224fe,,,,,,,,,614,62,-22,1,0,0,response3disk,,5,9,-1,1,0,0,rectangle,9,-1,1,0,0,9,-1,1,0,0,0,109,109,136,1,,,,,,,,
,,,,,,,,,,,,,FF,,,,,,,,0.9,,,,,,,,,,,,,,,,,,,,,,60ff9740c0716986284c41b3,61036cd27c0fb30bf3dedca8,2021-07-30_05h07.31.756,Simcolourproject_2stim_asymm_v5,2020.2.10,Win32,60,61025ae37ef11b136ea224fe,,,,,,,,,2694,36,68,1,0,0,response1disk,,7,7,13,1,0,0,rectangle,7,13,1,0,0,7,13,1,0,0,0,110,110,79,1,,,,,,,,
,,,,,,,,,,,,,FF,,,,,,,,0.6166,,,,,,,,,,,,,,,,,,,,,,60ff9740c0716986284c41b3,61036cd27c0fb30bf3dedca8,2021-07-30_05h07.31.756,Simcolourproject_2stim_asymm_v5,2020.2.10,Win32,60,61025ae37ef11b136ea224fe,,,,,,,,,3352,61,36,1,0,0,response1disk,,6,-5,-7,1,0,0,rectangle,-5,-7,1,0,0,-5,-7,1,0,0,0,111,111,72,1,,,,,,,,
,,,,,,,,,,,,,FF,,,,,,,,1.633,,,,,,,,,,,,,,,,,,,,,,60ff9740c0716986284c41b3,61036cd27c0fb30bf3dedca8,2021-07-30_05h07.31.756,Simcolourproject_2stim_asymm_v5,2020.2.10,Win32,60,61025ae37ef11b136ea224fe,,,,,,,,,2609,39,-62,1,0,0,response3disk,,4,9,-6,1,0,0,rectangle,9,-6,1,0,0,9,-6,1,0,0,0,112,112,29,1,,,,,,,,
,,,,,,,,,,,,,FF,,,,,,,,1.4832,,,,,,,,,,,,,,,,,,,,,,60ff9740c0716986284c41b3,61036cd27c0fb30bf3dedca8,2021-07-30_05h07.31.756,Simcolourproject_2stim_asymm_v5,2020.2.10,Win32,60,61025ae37ef11b136ea224fe,,,,,,,,,4146,-83,-44,1,0,0,response5disk,,2,3,-7,1,0,0,rectangle,3,-7,1,0,0,3,-7,1,0,0,0,113,113,158,1,,,,,,,,
,,,,,,,,,,,,,FF,,,,,,,,0.8666,,,,,,,,,,,,,,,,,,,,,,60ff9740c0716986284c41b3,61036cd27c0fb30bf3dedca8,2021-07-30_05h07.31.756,Simcolourproject_2stim_asymm_v5,2020.2.10,Win32,60,61025ae37ef11b136ea224fe,,,,,,,,,3482,31,-62,1,0,0,response3disk,,4,16,-16,1,0,0,rectangle,16,-16,1,0,0,16,-16,1,0,0,0,114,114,130,1,,,,,,,,
,,,,,,,,,,,,,FF,,,,,,,,0.8333,,,,,,,,,,,,,,,,,,,,,,60ff9740c0716986284c41b3,61036cd27c0fb30bf3dedca8,2021-07-30_05h07.31.756,Simcolourproject_2stim_asymm_v5,2020.2.10,Win32,60,61025ae37ef11b136ea224fe,,,,,,,,,751,53,-29,1,0,0,response3disk,,5,4,4,1,0,0,rectangle,4,4,1,0,0,4,4,1,0,0,0,115,115,87,1,,,,,,,,
,,,,,,,,,,,,,FF,,,,,,,,0.8165,,,,,,,,,,,,,,,,,,,,,,60ff9740c0716986284c41b3,61036cd27c0fb30bf3dedca8,2021-07-30_05h07.31.756,Simcolourproject_2stim_asymm_v5,2020.2.10,Win32,60,61025ae37ef11b136ea224fe,,,,,,,,,3597,-79,-84,1,0,0,response5disk,,3,-9,-19,1,0,0,rectangle,-9,-19,1,0,0,-9,-19,1,0,0,0,116,116,114,1,,,,,,,,
,,,,,,,,,,,,,FF,,,,,,,,0.9664,,,,,,,,,,,,,,,,,,,,,,60ff9740c0716986284c41b3,61036cd27c0fb30bf3dedca8,2021-07-30_05h07.31.756,Simcolourproject_2stim_asymm_v5,2020.2.10,Win32,60,61025ae37ef11b136ea224fe,,,,,,,,,2304,36,-72,1,0,0,response3disk,,4,15,-15,1,0,0,rectangle,15,-15,1,0,0,15,-15,1,0,0,0,117,117,50,1,,,,,,,,
,,,,,,,,,,,,,FF,,,,,,,,2.1497,,,,,,,,,,,,,,,,,,,,,,60ff9740c0716986284c41b3,61036cd27c0fb30bf3dedca8,2021-07-30_05h07.31.756,Simcolourproject_2stim_asymm_v5,2020.2.10,Win32,60,61025ae37ef11b136ea224fe,,,,,,,,,1975,52,34,1,0,0,response1disk,,6,8,-6,1,0,0,rectangle,42,-93,1,0,0,29,5,1,0,0,0,118,118,47,1,,response3disk_3,TRUE,4,4,"[92,311,228,10,242,212,47,108,292,119,247,175,201,30,250,91,128,0,65,179]",2.4994,rectangle
,,,,,,,,,,,,,FF,,,,,,,,2.2159,,,,,,,,,,,,,,,,,,,,,,60ff9740c0716986284c41b3,61036cd27c0fb30bf3dedca8,2021-07-30_05h07.31.756,Simcolourproject_2stim_asymm_v5,2020.2.10,Win32,60,61025ae37ef11b136ea224fe,,,,,,,,,2688,65,39,1,0,0,response1disk,,6,19,-13,1,0,0,rectangle,19,-13,1,0,0,19,-13,1,0,0,0,119,119,96,1,,,,,,,,
,,,,,,,,,,,,,FF,,,,,,,,0.6664,,,,,,,,,,,,,,,,,,,,,,60ff9740c0716986284c41b3,61036cd27c0fb30bf3dedca8,2021-07-30_05h07.31.756,Simcolourproject_2stim_asymm_v5,2020.2.10,Win32,60,61025ae37ef11b136ea224fe,,,,,,,,,428,36,-44,1,0,0,response3disk,,4,24,-8,1,0,0,rectangle,24,-8,1,0,0,24,-8,1,0,0,0,120,120,40,1,,,,,,,,
,,,,,,,,,,,,,FF,,,,,,,,1.8998,,,,,,,,,,,,,,,,,,,,,,60ff9740c0716986284c41b3,61036cd27c0fb30bf3dedca8,2021-07-30_05h07.31.756,Simcolourproject_2stim_asymm_v5,2020.2.10,Win32,60,61025ae37ef11b136ea224fe,,,,,,,,,4239,72,36,1,0,0,response1disk,,6,24,9,1,0,0,rectangle,24,9,1,0,0,24,9,1,0,0,0,121,121,110,1,,,,,,,,
,,,,,,,,,,,,,FF,,,,,,,,0.7167,,,,,,,,,,,,,,,,,,,,,,60ff9740c0716986284c41b3,61036cd27c0fb30bf3dedca8,2021-07-30_05h07.31.756,Simcolourproject_2stim_asymm_v5,2020.2.10,Win32,60,61025ae37ef11b136ea224fe,,,,,,,,,2430,37,56,1,0,0,response1disk,,7,16,-14,1,0,0,rectangle,16,-14,1,0,0,16,-14,1,0,0,0,122,122,100,1,,,,,,,,
,,,,,,,,,,,,,FF,,,,,,,,0.5999,,,,,,,,,,,,,,,,,,,,,,60ff9740c0716986284c41b3,61036cd27c0fb30bf3dedca8,2021-07-30_05h07.31.756,Simcolourproject_2stim_asymm_v5,2020.2.10,Win32,60,61025ae37ef11b136ea224fe,,,,,,,,,3364,40,52,1,0,0,response1disk,,7,21,2,1,0,0,rectangle,21,2,1,0,0,21,2,1,0,0,0,123,123,118,1,,,,,,,,
,,,,,,,,,,,,,FF,,,,,,,,0.5333,,,,,,,,,,,,,,,,,,,,,,60ff9740c0716986284c41b3,61036cd27c0fb30bf3dedca8,2021-07-30_05h07.31.756,Simcolourproject_2stim_asymm_v5,2020.2.10,Win32,60,61025ae37ef11b136ea224fe,,,,,,,,,92,31,58,1,0,0,response1disk,,7,20,1,1,0,0,rectangle,20,1,1,0,0,20,1,1,0,0,0,124,124,21,1,,,,,,,,
,,,,,,,,,,,,,FF,,,,,,,,0.7333,,,,,,,,,,,,,,,,,,,,,,60ff9740c0716986284c41b3,61036cd27c0fb30bf3dedca8,2021-07-30_05h07.31.756,Simcolourproject_2stim_asymm_v5,2020.2.10,Win32,60,61025ae37ef11b136ea224fe,,,,,,,,,1336,51,42,1,0,0,response1disk,,6,7,-6,1,0,0,rectangle,7,-6,1,0,0,7,-6,1,0,0,0,125,125,115,1,,,,,,,,
,,,,,,,,,,,,,FF,,,,,,,,0.6331,,,,,,,,,,,,,,,,,,,,,,60ff9740c0716986284c41b3,61036cd27c0fb30bf3dedca8,2021-07-30_05h07.31.756,Simcolourproject_2stim_asymm_v5,2020.2.10,Win32,60,61025ae37ef11b136ea224fe,,,,,,,,,1015,57,-37,1,0,0,response3disk,,5,13,-6,1,0,0,rectangle,13,-6,1,0,0,13,-6,1,0,0,0,126,126,54,1,,,,,,,,
,,,,,,,,,,,,,FF,,,,,,,,0.8832,,,,,,,,,,,,,,,,,,,,,,60ff9740c0716986284c41b3,61036cd27c0fb30bf3dedca8,2021-07-30_05h07.31.756,Simcolourproject_2stim_asymm_v5,2020.2.10,Win32,60,61025ae37ef11b136ea224fe,,,,,,,,,4009,63,79,1,0,0,response1disk,,7,33,-19,1,0,0,rectangle,108,-43,1,0,0,0,2,1,0,0,0,127,127,30,1,,response3disk_3,TRUE,5,5,"[92,311,228,10,242,212,47,108,292,119,247,175,201,30,250,91,128,0,65,179]",1.5995,rectangle
,,,,,,,,,,,,,FF,,,,,,,,1.0332,,,,,,,,,,,,,,,,,,,,,,60ff9740c0716986284c41b3,61036cd27c0fb30bf3dedca8,2021-07-30_05h07.31.756,Simcolourproject_2stim_asymm_v5,2020.2.10,Win32,60,61025ae37ef11b136ea224fe,,,,,,,,,770,73,-38,1,0,0,response3disk,,5,5,-6,1,0,0,rectangle,5,-6,1,0,0,5,-6,1,0,0,0,128,128,111,1,,,,,,,,
,,,,,,,,,,,,,FF,,,,,,,,0.7832,,,,,,,,,,,,,,,,,,,,,,60ff9740c0716986284c41b3,61036cd27c0fb30bf3dedca8,2021-07-30_05h07.31.756,Simcolourproject_2stim_asymm_v5,2020.2.10,Win32,60,61025ae37ef11b136ea224fe,,,,,,,,,958,71,37,1,0,0,response1disk,,6,20,-10,1,0,0,rectangle,20,-10,1,0,0,20,-10,1,0,0,0,129,129,107,1,,,,,,,,
,,,,,,,,,,,,,FF,,,,,,,,1.0664,,,,,,,,,,,,,,,,,,,,,,60ff9740c0716986284c41b3,61036cd27c0fb30bf3dedca8,2021-07-30_05h07.31.756,Simcolourproject_2stim_asymm_v5,2020.2.10,Win32,60,61025ae37ef11b136ea224fe,,,,,,,,,264,-68,-49,1,0,0,response5disk,,2,-3,1,1,0,0,rectangle,-3,1,1,0,0,-3,1,1,0,0,0,130,130,132,1,,,,,,,,
,,,,,,,,,,,,,FF,,,,,,,,0.7333,,,,,,,,,,,,,,,,,,,,,,60ff9740c0716986284c41b3,61036cd27c0fb30bf3dedca8,2021-07-30_05h07.31.756,Simcolourproject_2stim_asymm_v5,2020.2.10,Win32,60,61025ae37ef11b136ea224fe,,,,,,,,,857,73,39,1,0,0,response1disk,,6,8,10,1,0,0,rectangle,8,10,1,0,0,8,10,1,0,0,0,131,131,124,1,,,,,,,,
,,,,,,,,,,,,,FF,,,,,,,,1.0497,,,,,,,,,,,,,,,,,,,,,,60ff9740c0716986284c41b3,61036cd27c0fb30bf3dedca8,2021-07-30_05h07.31.756,Simcolourproject_2stim_asymm_v5,2020.2.10,Win32,60,61025ae37ef11b136ea224fe,,,,,,,,,1250,62,-34,1,0,0,response3disk,,5,23,-20,1,0,0,rectangle,23,-20,1,0,0,23,-20,1,0,0,0,132,132,154,1,,,,,,,,
,,,,,,,,,,,,,FF,,,,,,,,1.3166,,,,,,,,,,,,,,,,,,,,,,60ff9740c0716986284c41b3,61036cd27c0fb30bf3dedca8,2021-07-30_05h07.31.756,Simcolourproject_2stim_asymm_v5,2020.2.10,Win32,60,61025ae37ef11b136ea224fe,,,,,,,,,330,38,70,1,0,0,response1disk,,7,16,10,1,0,0,rectangle,16,10,1,0,0,16,10,1,0,0,0,133,133,85,1,,,,,,,,
,,,,,,,,,,,,,FF,,,,,,,,0.9166,,,,,,,,,,,,,,,,,,,,,,60ff9740c0716986284c41b3,61036cd27c0fb30bf3dedca8,2021-07-30_05h07.31.756,Simcolourproject_2stim_asymm_v5,2020.2.10,Win32,60,61025ae37ef11b136ea224fe,,,,,,,,,1568,58,-33,1,0,0,response3disk,,5,9,-2,1,0,0,rectangle,9,-2,1,0,0,9,-2,1,0,0,0,134,134,28,1,,,,,,,,
,,,,,,,,,,,,,FF,,,,,,,,0.7333,,,,,,,,,,,,,,,,,,,,,,60ff9740c0716986284c41b3,61036cd27c0fb30bf3dedca8,2021-07-30_05h07.31.756,Simcolourproject_2stim_asymm_v5,2020.2.10,Win32,60,61025ae37ef11b136ea224fe,,,,,,,,,2438,52,27,1,0,0,response1disk,,6,19,1,1,0,0,rectangle,19,1,1,0,0,19,1,1,0,0,0,135,135,8,1,,,,,,,,
,,,,,,,,,,,,,FF,,,,,,,,0.5667,,,,,,,,,,,,,,,,,,,,,,60ff9740c0716986284c41b3,61036cd27c0fb30bf3dedca8,2021-07-30_05h07.31.756,Simcolourproject_2stim_asymm_v5,2020.2.10,Win32,60,61025ae37ef11b136ea224fe,,,,,,,,,3412,88,52,1,0,0,response1disk,,6,18,-6,1,0,0,rectangle,18,-6,1,0,0,18,-6,1,0,0,0,136,136,55,1,,,,,,,,
,,,,,,,,,,,,,FF,,,,,,,,0.8164,,,,,,,,,,,,,,,,,,,,,,60ff9740c0716986284c41b3,61036cd27c0fb30bf3dedca8,2021-07-30_05h07.31.756,Simcolourproject_2stim_asymm_v5,2020.2.10,Win32,60,61025ae37ef11b136ea224fe,,,,,,,,,3718,27,52,1,0,0,response1disk,,7,9,-4,1,0,0,rectangle,9,-4,1,0,0,9,-4,1,0,0,0,137,137,10,1,,,,,,,,
,,,,,,,,,,,,,FF,,,,,,,,0.7332,,,,,,,,,,,,,,,,,,,,,,60ff9740c0716986284c41b3,61036cd27c0fb30bf3dedca8,2021-07-30_05h07.31.756,Simcolourproject_2stim_asymm_v5,2020.2.10,Win32,60,61025ae37ef11b136ea224fe,,,,,,,,,3110,29,56,1,0,0,response1disk,,7,16,9,1,0,0,rectangle,16,9,1,0,0,16,9,1,0,0,0,138,138,139,1,,,,,,,,
,,,,,,,,,,,,,FF,,,,,,,,0.9331,,,,,,,,,,,,,,,,,,,,,,60ff9740c0716986284c41b3,61036cd27c0fb30bf3dedca8,2021-07-30_05h07.31.756,Simcolourproject_2stim_asymm_v5,2020.2.10,Win32,60,61025ae37ef11b136ea224fe,,,,,,,,,4069,43,89,1,0,0,response1disk,,7,14,11,1,0,0,rectangle,14,11,1,0,0,14,11,1,0,0,0,139,139,58,1,,,,,,,,
,,,,,,,,,,,,,FF,,,,,,,,1,,,,,,,,,,,,,,,,,,,,,,60ff9740c0716986284c41b3,61036cd27c0fb30bf3dedca8,2021-07-30_05h07.31.756,Simcolourproject_2stim_asymm_v5,2020.2.10,Win32,60,61025ae37ef11b136ea224fe,,,,,,,,,3000,-74,42,1,0,0,response7disk,,1,-11,6,1,0,0,rectangle,-11,6,1,0,0,-11,6,1,0,0,0,140,140,103,1,,,,,,,,
,,,,,,,,,,,,,FF,,,,,,,,1.6997,,,,,,,,,,,,,,,,,,,,,,60ff9740c0716986284c41b3,61036cd27c0fb30bf3dedca8,2021-07-30_05h07.31.756,Simcolourproject_2stim_asymm_v5,2020.2.10,Win32,60,61025ae37ef11b136ea224fe,,,,,,,,,3156,-84,-45,1,0,0,response5disk,,2,-3,3,1,0,0,rectangle,-3,3,1,0,0,-3,3,1,0,0,0,141,141,44,1,,,,,,,,
,,,,,,,,,,,,,FF,,,,,,,,1.0665,,,,,,,,,,,,,,,,,,,,,,60ff9740c0716986284c41b3,61036cd27c0fb30bf3dedca8,2021-07-30_05h07.31.756,Simcolourproject_2stim_asymm_v5,2020.2.10,Win32,60,61025ae37ef11b136ea224fe,,,,,,,,,656,32,57,1,0,0,response1disk,,7,6,2,1,0,0,rectangle,6,2,1,0,0,6,2,1,0,0,0,142,142,70,1,,,,,,,,
,,,,,,,,,,,,,FF,,,,,,,,1.5164,,,,,,,,,,,,,,,,,,,,,,60ff9740c0716986284c41b3,61036cd27c0fb30bf3dedca8,2021-07-30_05h07.31.756,Simcolourproject_2stim_asymm_v5,2020.2.10,Win32,60,61025ae37ef11b136ea224fe,,,,,,,,,3747,-82,-49,1,0,0,response5disk,,2,-10,10,1,0,0,rectangle,-10,10,1,0,0,-10,10,1,0,0,0,143,143,143,1,,,,,,,,
,,,,,,,,,,,,,FF,,,,,,,,1.0332,,,,,,,,,,,,,,,,,,,,,,60ff9740c0716986284c41b3,61036cd27c0fb30bf3dedca8,2021-07-30_05h07.31.756,Simcolourproject_2stim_asymm_v5,2020.2.10,Win32,60,61025ae37ef11b136ea224fe,,,,,,,,,1803,48,35,1,0,0,response1disk,,6,14,11,1,0,0,rectangle,14,11,1,0,0,14,11,1,0,0,0,144,144,33,1,,,,,,,,
,,,,,,,,,,,,,FF,,,,,,,,0.9831,,,,,,,,,,,,,,,,,,,,,,60ff9740c0716986284c41b3,61036cd27c0fb30bf3dedca8,2021-07-30_05h07.31.756,Simcolourproject_2stim_asymm_v5,2020.2.10,Win32,60,61025ae37ef11b136ea224fe,,,,,,,,,646,66,33,1,0,0,response1disk,,6,25,7,1,0,0,rectangle,25,7,1,0,0,25,7,1,0,0,0,145,145,41,1,,,,,,,,
,,,,,,,,,,,,,FF,,,,,,,,0.8499,,,,,,,,,,,,,,,,,,,,,,60ff9740c0716986284c41b3,61036cd27c0fb30bf3dedca8,2021-07-30_05h07.31.756,Simcolourproject_2stim_asymm_v5,2020.2.10,Win32,60,61025ae37ef11b136ea224fe,,,,,,,,,82,39,88,1,0,0,response1disk,,7,23,17,1,0,0,rectangle,23,17,1,0,0,23,17,1,0,0,0,146,146,155,1,,,,,,,,
,,,,,,,,,,,,,FF,,,,,,,,0.7133,,,,,,,,,,,,,,,,,,,,,,60ff9740c0716986284c41b3,61036cd27c0fb30bf3dedca8,2021-07-30_05h07.31.756,Simcolourproject_2stim_asymm_v5,2020.2.10,Win32,60,61025ae37ef11b136ea224fe,,,,,,,,,2266,55,41,1,0,0,response1disk,,6,17,-12,1,0,0,rectangle,17,-12,1,0,0,17,-12,1,0,0,0,147,147,121,1,,,,,,,,
,,,,,,,,,,,,,FF,,,,,,,,0.9665,,,,,,,,,,,,,,,,,,,,,,60ff9740c0716986284c41b3,61036cd27c0fb30bf3dedca8,2021-07-30_05h07.31.756,Simcolourproject_2stim_asymm_v5,2020.2.10,Win32,60,61025ae37ef11b136ea224fe,,,,,,,,,2174,-75,-33,1,0,0,response5disk,,2,7,17,1,0,0,rectangle,7,17,1,0,0,7,17,1,0,0,0,148,148,89,1,,,,,,,,
,,,,,,,,,,,,,FF,,,,,,,,0.7166,,,,,,,,,,,,,,,,,,,,,,60ff9740c0716986284c41b3,61036cd27c0fb30bf3dedca8,2021-07-30_05h07.31.756,Simcolourproject_2stim_asymm_v5,2020.2.10,Win32,60,61025ae37ef11b136ea224fe,,,,,,,,,3490,56,31,1,0,0,response1disk,,6,20,-3,1,0,0,rectangle,20,-3,1,0,0,20,-3,1,0,0,0,149,149,46,1,,,,,,,,
,,,,,,,,,,,,,FF,,,,,,,,0.6164,,,,,,,,,,,,,,,,,,,,,,60ff9740c0716986284c41b3,61036cd27c0fb30bf3dedca8,2021-07-30_05h07.31.756,Simcolourproject_2stim_asymm_v5,2020.2.10,Win32,60,61025ae37ef11b136ea224fe,,,,,,,,,2534,48,37,1,0,0,response1disk,,6,6,-9,1,0,0,rectangle,6,-9,1,0,0,6,-9,1,0,0,0,150,150,102,1,,,,,,,,
,,,,,,,,,,,,,FF,,,,,,,,0.5499,,,,,,,,,,,,,,,,,,,,,,60ff9740c0716986284c41b3,61036cd27c0fb30bf3dedca8,2021-07-30_05h07.31.756,Simcolourproject_2stim_asymm_v5,2020.2.10,Win32,60,61025ae37ef11b136ea224fe,,,,,,,,,2146,32,-35,1,0,0,response3disk,,4,11,-16,1,0,0,rectangle,11,-16,1,0,0,11,-16,1,0,0,0,151,151,150,1,,,,,,,,
,,,,,,,,,,,,,FF,,,,,,,,1.1832,,,,,,,,,,,,,,,,,,,,,,60ff9740c0716986284c41b3,61036cd27c0fb30bf3dedca8,2021-07-30_05h07.31.756,Simcolourproject_2stim_asymm_v5,2020.2.10,Win32,60,61025ae37ef11b136ea224fe,,,,,,,,,803,-40,-70,1,0,0,response5disk,,3,-17,-12,1,0,0,rectangle,-17,-12,1,0,0,-17,-12,1,0,0,0,152,152,65,1,,,,,,,,
,,,,,,,,,,,,,FF,,,,,,,,1.3831,,,,,,,,,,,,,,,,,,,,,,60ff9740c0716986284c41b3,61036cd27c0fb30bf3dedca8,2021-07-30_05h07.31.756,Simcolourproject_2stim_asymm_v5,2020.2.10,Win32,60,61025ae37ef11b136ea224fe,,,,,,,,,964,35,-79,1,0,0,response3disk,,4,16,-3,1,0,0,rectangle,16,-3,1,0,0,16,-3,1,0,0,0,153,153,84,1,,,,,,,,
,,,,,,,,,,,,,FF,,,,,,,,0.6,,,,,,,,,,,,,,,,,,,,,,60ff9740c0716986284c41b3,61036cd27c0fb30bf3dedca8,2021-07-30_05h07.31.756,Simcolourproject_2stim_asymm_v5,2020.2.10,Win32,60,61025ae37ef11b136ea224fe,,,,,,,,,87,38,-50,1,0,0,response3disk,,4,28,-9,1,0,0,rectangle,28,-9,1,0,0,28,-9,1,0,0,0,154,154,35,1,,,,,,,,
,,,,,,,,,,,,,FF,,,,,,,,0.8496,,,,,,,,,,,,,,,,,,,,,,60ff9740c0716986284c41b3,61036cd27c0fb30bf3dedca8,2021-07-30_05h07.31.756,Simcolourproject_2stim_asymm_v5,2020.2.10,Win32,60,61025ae37ef11b136ea224fe,,,,,,,,,4025,74,40,1,0,0,response1disk,,6,17,-5,1,0,0,rectangle,17,-5,1,0,0,17,-5,1,0,0,0,155,155,61,1,,,,,,,,
,,,,,,,,,,,,,FF,,,,,,,,1.0833,,,,,,,,,,,,,,,,,,,,,,60ff9740c0716986284c41b3,61036cd27c0fb30bf3dedca8,2021-07-30_05h07.31.756,Simcolourproject_2stim_asymm_v5,2020.2.10,Win32,60,61025ae37ef11b136ea224fe,,,,,,,,,1185,65,40,1,0,0,response1disk,,6,-23,-17,1,0,0,rectangle,-23,-17,1,0,0,-23,-17,1,0,0,0,156,156,106,1,,,,,,,,
,,,,,,,,,,,,,FF,,,,,,,,0.8166,,,,,,,,,,,,,,,,,,,,,,60ff9740c0716986284c41b3,61036cd27c0fb30bf3dedca8,2021-07-30_05h07.31.756,Simcolourproject_2stim_asymm_v5,2020.2.10,Win32,60,61025ae37ef11b136ea224fe,,,,,,,,,3941,47,29,1,0,0,response1disk,,6,20,15,1,0,0,rectangle,20,15,1,0,0,20,15,1,0,0,0,157,157,77,1,,,,,,,,
,,,,,,,,,,,,,FF,,,,,,,,0.9832,,,,,,,,,,,,,,,,,,,,,,60ff9740c0716986284c41b3,61036cd27c0fb30bf3dedca8,2021-07-30_05h07.31.756,Simcolourproject_2stim_asymm_v5,2020.2.10,Win32,60,61025ae37ef11b136ea224fe,,,,,,,,,4143,44,-35,1,0,0,response3disk,,5,-5,-2,1,0,0,rectangle,-5,-2,1,0,0,-5,-2,1,0,0,0,158,158,134,1,,,,,,,,
,,,,,,,,,,,,,FF,,,,,,,,1.7326,,,,,,,,,,,,,,,,,,,,,,60ff9740c0716986284c41b3,61036cd27c0fb30bf3dedca8,2021-07-30_05h07.31.756,Simcolourproject_2stim_asymm_v5,2020.2.10,Win32,60,61025ae37ef11b136ea224fe,,,,,,,,,1517,52,28,1,0,0,response1disk,,6,-5,-14,1,0,0,rectangle,-5,-14,1,0,0,-5,-14,1,0,0,0,159,159,81,1,,,,,,,,
,,,,,,,,,,,,,FF,,,,,,,,0.7033,,,,,,,,,,,,,,,,,,,,,,60ff9740c0716986284c41b3,61036cd27c0fb30bf3dedca8,2021-07-30_05h07.31.756,Simcolourproject_2stim_asymm_v5,2020.2.10,Win32,60,61025ae37ef11b136ea224fe,,,,,,,,,3861,61,36,1,0,0,response1disk,,6,30,-5,1,0,0,rectangle,30,-5,1,0,0,30,-5,1,0,0,1,0,160,86,1,,,,,,,,
,,,,,,,,,,,,,FF,,,,,,,,0.7496,,,,,,,,,,,,,,,,,,,,,,60ff9740c0716986284c41b3,61036cd27c0fb30bf3dedca8,2021-07-30_05h07.31.756,Simcolourproject_2stim_asymm_v5,2020.2.10,Win32,60,61025ae37ef11b136ea224fe,,,,,,,,,2812,73,38,1,0,0,response1disk,,6,18,-16,1,0,0,rectangle,18,-16,1,0,0,18,-16,1,0,0,1,1,161,18,1,,,,,,,,
,,,,,,,,,,,,,FF,,,,,,,,1.6499,,,,,,,,,,,,,,,,,,,,,,60ff9740c0716986284c41b3,61036cd27c0fb30bf3dedca8,2021-07-30_05h07.31.756,Simcolourproject_2stim_asymm_v5,2020.2.10,Win32,60,61025ae37ef11b136ea224fe,,,,,,,,,2160,-41,69,1,0,0,response7disk,,0,-3,0,1,0,0,rectangle,-3,0,1,0,0,-3,0,1,0,0,1,2,162,121,1,,,,,,,,
,,,,,,,,,,,,,FF,,,,,,,,0.9999,,,,,,,,,,,,,,,,,,,,,,60ff9740c0716986284c41b3,61036cd27c0fb30bf3dedca8,2021-07-30_05h07.31.756,Simcolourproject_2stim_asymm_v5,2020.2.10,Win32,60,61025ae37ef11b136ea224fe,,,,,,,,,2569,-33,-60,1,0,0,response5disk,,3,21,-2,1,0,0,rectangle,21,-2,1,0,0,21,-2,1,0,0,1,3,163,143,1,,,,,,,,
,,,,,,,,,,,,,FF,,,,,,,,2.4996,,,,,,,,,,,,,,,,,,,,,,60ff9740c0716986284c41b3,61036cd27c0fb30bf3dedca8,2021-07-30_05h07.31.756,Simcolourproject_2stim_asymm_v5,2020.2.10,Win32,60,61025ae37ef11b136ea224fe,,,,,,,,,1799,61,30,1,0,0,response1disk,,6,8,-20,1,0,0,rectangle,8,-20,1,0,0,8,-20,1,0,0,1,4,164,158,1,,,,,,,,
,,,,,,,,,,,,,FF,,,,,,,,1.333,,,,,,,,,,,,,,,,,,,,,,60ff9740c0716986284c41b3,61036cd27c0fb30bf3dedca8,2021-07-30_05h07.31.756,Simcolourproject_2stim_asymm_v5,2020.2.10,Win32,60,61025ae37ef11b136ea224fe,,,,,,,,,1492,52,77,1,0,0,response1disk,,7,3,-1,1,0,0,rectangle,3,-1,1,0,0,3,-1,1,0,0,1,5,165,66,1,,,,,,,,
,,,,,,,,,,,,,FF,,,,,,,,0.6499,,,,,,,,,,,,,,,,,,,,,,60ff9740c0716986284c41b3,61036cd27c0fb30bf3dedca8,2021-07-30_05h07.31.756,Simcolourproject_2stim_asymm_v5,2020.2.10,Win32,60,61025ae37ef11b136ea224fe,,,,,,,,,2263,67,37,1,0,0,response1disk,,6,12,-13,1,0,0,rectangle,12,-13,1,0,0,12,-13,1,0,0,1,6,166,53,1,,,,,,,,
,,,,,,,,,,,,,FF,,,,,,,,0.6499,,,,,,,,,,,,,,,,,,,,,,60ff9740c0716986284c41b3,61036cd27c0fb30bf3dedca8,2021-07-30_05h07.31.756,Simcolourproject_2stim_asymm_v5,2020.2.10,Win32,60,61025ae37ef11b136ea224fe,,,,,,,,,2562,66,-36,1,0,0,response3disk,,5,13,-8,1,0,0,rectangle,13,-8,1,0,0,13,-8,1,0,0,1,7,167,90,1,,,,,,,,
,,,,,,,,,,,,,FF,,,,,,,,0.9665,,,,,,,,,,,,,,,,,,,,,,60ff9740c0716986284c41b3,61036cd27c0fb30bf3dedca8,2021-07-30_05h07.31.756,Simcolourproject_2stim_asymm_v5,2020.2.10,Win32,60,61025ae37ef11b136ea224fe,,,,,,,,,3848,-68,25,1,0,0,response7disk,,1,-10,0,1,0,0,rectangle,-10,0,1,0,0,-10,0,1,0,0,1,8,168,65,1,,,,,,,,
,,,,,,,,,,,,,FF,,,,,,,,0.8498,,,,,,,,,,,,,,,,,,,,,,60ff9740c0716986284c41b3,61036cd27c0fb30bf3dedca8,2021-07-30_05h07.31.756,Simcolourproject_2stim_asymm_v5,2020.2.10,Win32,60,61025ae37ef11b136ea224fe,,,,,,,,,3131,66,38,1,0,0,response1disk,,6,18,8,1,0,0,rectangle,18,8,1,0,0,18,8,1,0,0,1,9,169,6,1,,,,,,,,
,,,,,,,,,,,,,FF,,,,,,,,0.4999,,,,,,,,,,,,,,,,,,,,,,60ff9740c0716986284c41b3,61036cd27c0fb30bf3dedca8,2021-07-30_05h07.31.756,Simcolourproject_2stim_asymm_v5,2020.2.10,Win32,60,61025ae37ef11b136ea224fe,,,,,,,,,1508,86,53,1,0,0,response1disk,,6,13,2,1,0,0,rectangle,13,2,1,0,0,13,2,1,0,0,1,10,170,27,1,,,,,,,,
,,,,,,,,,,,,,FF,,,,,,,,0.6165,,,,,,,,,,,,,,,,,,,,,,60ff9740c0716986284c41b3,61036cd27c0fb30bf3dedca8,2021-07-30_05h07.31.756,Simcolourproject_2stim_asymm_v5,2020.2.10,Win32,60,61025ae37ef11b136ea224fe,,,,,,,,,3300,43,79,1,0,0,response1disk,,7,15,-8,1,0,0,rectangle,15,-8,1,0,0,15,-8,1,0,0,1,11,171,110,1,,,,,,,,
,,,,,,,,,,,,,FF,,,,,,,,1.0499,,,,,,,,,,,,,,,,,,,,,,60ff9740c0716986284c41b3,61036cd27c0fb30bf3dedca8,2021-07-30_05h07.31.756,Simcolourproject_2stim_asymm_v5,2020.2.10,Win32,60,61025ae37ef11b136ea224fe,,,,,,,,,2171,-73,-44,1,0,0,response5disk,,2,13,8,1,0,0,rectangle,13,8,1,0,0,13,8,1,0,0,1,12,172,103,1,,,,,,,,
,,,,,,,,,,,,,FF,,,,,,,,1.2833,,,,,,,,,,,,,,,,,,,,,,60ff9740c0716986284c41b3,61036cd27c0fb30bf3dedca8,2021-07-30_05h07.31.756,Simcolourproject_2stim_asymm_v5,2020.2.10,Win32,60,61025ae37ef11b136ea224fe,,,,,,,,,900,31,-58,1,0,0,response3disk,,4,3,-14,1,0,0,rectangle,3,-14,1,0,0,3,-14,1,0,0,1,13,173,52,1,,,,,,,,
,,,,,,,,,,,,,FF,,,,,,,,1.3831,,,,,,,,,,,,,,,,,,,,,,60ff9740c0716986284c41b3,61036cd27c0fb30bf3dedca8,2021-07-30_05h07.31.756,Simcolourproject_2stim_asymm_v5,2020.2.10,Win32,60,61025ae37ef11b136ea224fe,,,,,,,,,1209,52,36,1,0,0,response1disk,,6,-18,-14,1,0,0,rectangle,93,-48,1,0,0,13,-2,1,0,0,1,14,174,50,1,,response3disk_3,TRUE,5,5,"[92,311,228,10,242,212,47,108,292,119,247,175,201,30,250,91,128,0,65,179]",1.2833,rectangle
,,,,,,,,,,,,,FF,,,,,,,,1.48,,,,,,,,,,,,,,,,,,,,,,60ff9740c0716986284c41b3,61036cd27c0fb30bf3dedca8,2021-07-30_05h07.31.756,Simcolourproject_2stim_asymm_v5,2020.2.10,Win32,60,61025ae37ef11b136ea224fe,,,,,,,,,3662,65,-38,1,0,0,response3disk,,5,15,-14,1,0,0,rectangle,15,-14,1,0,0,15,-14,1,0,0,1,15,175,16,1,,,,,,,,
,,,,,,,,,,,,,FF,,,,,,,,0.75,,,,,,,,,,,,,,,,,,,,,,60ff9740c0716986284c41b3,61036cd27c0fb30bf3dedca8,2021-07-30_05h07.31.756,Simcolourproject_2stim_asymm_v5,2020.2.10,Win32,60,61025ae37ef11b136ea224fe,,,,,,,,,2154,33,-50,1,0,0,response3disk,,4,0,-2,1,0,0,rectangle,0,-2,1,0,0,0,-2,1,0,0,1,16,176,11,1,,,,,,,,
,,,,,,,,,,,,,FF,,,,,,,,3.7828,,,,,,,,,,,,,,,,,,,,,,60ff9740c0716986284c41b3,61036cd27c0fb30bf3dedca8,2021-07-30_05h07.31.756,Simcolourproject_2stim_asymm_v5,2020.2.10,Win32,60,61025ae37ef11b136ea224fe,,,,,,,,,1377,38,-61,1,0,0,response3disk,,4,4,16,1,0,0,rectangle,4,16,1,0,0,4,16,1,0,0,1,17,177,101,1,,,,,,,,
,,,,,,,,,,,,,FF,,,,,,,,1.6998,,,,,,,,,,,,,,,,,,,,,,60ff9740c0716986284c41b3,61036cd27c0fb30bf3dedca8,2021-07-30_05h07.31.756,Simcolourproject_2stim_asymm_v5,2020.2.10,Win32,60,61025ae37ef11b136ea224fe,,,,,,,,,2333,61,45,1,0,0,response1disk,,6,18,3,1,0,0,rectangle,73,37,1,0,0,11,2,1,0,0,1,18,178,40,1,,response1disk_3,TRUE,6,6,"[92,311,228,10,242,212,47,108,292,119,247,175,201,30,250,91,128,0,65,179]",1.2998,rectangle
,,,,,,,,,,,,,FF,,,,,,,,1.8496,,,,,,,,,,,,,,,,,,,,,,60ff9740c0716986284c41b3,61036cd27c0fb30bf3dedca8,2021-07-30_05h07.31.756,Simcolourproject_2stim_asymm_v5,2020.2.10,Win32,60,61025ae37ef11b136ea224fe,,,,,,,,,4257,42,74,1,0,0,response1disk,,7,33,18,1,0,0,rectangle,33,18,1,0,0,33,18,1,0,0,1,19,179,77,1,,,,,,,,
,,,,,,,,,,,,,FF,,,,,,,,0.9501,,,,,,,,,,,,,,,,,,,,,,60ff9740c0716986284c41b3,61036cd27c0fb30bf3dedca8,2021-07-30_05h07.31.756,Simcolourproject_2stim_asymm_v5,2020.2.10,Win32,60,61025ae37ef11b136ea224fe,,,,,,,,,2213,34,71,1,0,0,response1disk,,7,11,1,1,0,0,rectangle,11,1,1,0,0,11,1,1,0,0,1,20,180,133,1,,,,,,,,
,,,,,,,,,,,,,FF,,,,,,,,1.0996,,,,,,,,,,,,,,,,,,,,,,60ff9740c0716986284c41b3,61036cd27c0fb30bf3dedca8,2021-07-30_05h07.31.756,Simcolourproject_2stim_asymm_v5,2020.2.10,Win32,60,61025ae37ef11b136ea224fe,,,,,,,,,4274,67,-34,1,0,0,response3disk,,5,11,-7,1,0,0,rectangle,11,-7,1,0,0,11,-7,1,0,0,1,21,181,102,1,,,,,,,,
,,,,,,,,,,,,,FF,,,,,,,,0.9664,,,,,,,,,,,,,,,,,,,,,,60ff9740c0716986284c41b3,61036cd27c0fb30bf3dedca8,2021-07-30_05h07.31.756,Simcolourproject_2stim_asymm_v5,2020.2.10,Win32,60,61025ae37ef11b136ea224fe,,,,,,,,,11,28,-71,1,0,0,response3disk,,4,6,-15,1,0,0,rectangle,6,-15,1,0,0,6,-15,1,0,0,1,22,182,142,1,,,,,,,,
,,,,,,,,,,,,,FF,,,,,,,,1.0665,,,,,,,,,,,,,,,,,,,,,,60ff9740c0716986284c41b3,61036cd27c0fb30bf3dedca8,2021-07-30_05h07.31.756,Simcolourproject_2stim_asymm_v5,2020.2.10,Win32,60,61025ae37ef11b136ea224fe,,,,,,,,,223,30,-95,1,0,0,response3disk,,4,13,-16,1,0,0,rectangle,13,-16,1,0,0,13,-16,1,0,0,1,23,183,81,1,,,,,,,,
,,,,,,,,,,,,,FF,,,,,,,,0.5834,,,,,,,,,,,,,,,,,,,,,,60ff9740c0716986284c41b3,61036cd27c0fb30bf3dedca8,2021-07-30_05h07.31.756,Simcolourproject_2stim_asymm_v5,2020.2.10,Win32,60,61025ae37ef11b136ea224fe,,,,,,,,,813,34,-64,1,0,0,response3disk,,4,8,-1,1,0,0,rectangle,8,-1,1,0,0,8,-1,1,0,0,1,24,184,73,1,,,,,,,,
,,,,,,,,,,,,,FF,,,,,,,,1.2832,,,,,,,,,,,,,,,,,,,,,,60ff9740c0716986284c41b3,61036cd27c0fb30bf3dedca8,2021-07-30_05h07.31.756,Simcolourproject_2stim_asymm_v5,2020.2.10,Win32,60,61025ae37ef11b136ea224fe,,,,,,,,,3046,-31,-77,1,0,0,response5disk,,3,-11,-4,1,0,0,rectangle,-11,-4,1,0,0,-11,-4,1,0,0,1,25,185,130,1,,,,,,,,
,,,,,,,,,,,,,FF,,,,,,,,0.9666,,,,,,,,,,,,,,,,,,,,,,60ff9740c0716986284c41b3,61036cd27c0fb30bf3dedca8,2021-07-30_05h07.31.756,Simcolourproject_2stim_asymm_v5,2020.2.10,Win32,60,61025ae37ef11b136ea224fe,,,,,,,,,3613,29,-40,1,0,0,response3disk,,4,9,-1,1,0,0,rectangle,9,-1,1,0,0,9,-1,1,0,0,1,26,186,108,1,,,,,,,,
,,,,,,,,,,,,,FF,,,,,,,,1.1499,,,,,,,,,,,,,,,,,,,,,,60ff9740c0716986284c41b3,61036cd27c0fb30bf3dedca8,2021-07-30_05h07.31.756,Simcolourproject_2stim_asymm_v5,2020.2.10,Win32,60,61025ae37ef11b136ea224fe,,,,,,,,,1598,-43,-58,1,0,0,response5disk,,3,-6,-5,1,0,0,rectangle,-6,-5,1,0,0,-6,-5,1,0,0,1,27,187,61,1,,,,,,,,
,,,,,,,,,,,,,FF,,,,,,,,1.1331,,,,,,,,,,,,,,,,,,,,,,60ff9740c0716986284c41b3,61036cd27c0fb30bf3dedca8,2021-07-30_05h07.31.756,Simcolourproject_2stim_asymm_v5,2020.2.10,Win32,60,61025ae37ef11b136ea224fe,,,,,,,,,1357,66,33,1,0,0,response1disk,,6,6,-5,1,0,0,rectangle,6,-5,1,0,0,6,-5,1,0,0,1,28,188,44,1,,,,,,,,
,,,,,,,,,,,,,FF,,,,,,,,1.0665,,,,,,,,,,,,,,,,,,,,,,60ff9740c0716986284c41b3,61036cd27c0fb30bf3dedca8,2021-07-30_05h07.31.756,Simcolourproject_2stim_asymm_v5,2020.2.10,Win32,60,61025ae37ef11b136ea224fe,,,,,,,,,497,47,68,1,0,0,response1disk,,7,23,7,1,0,0,rectangle,23,7,1,0,0,23,7,1,0,0,1,29,189,111,1,,,,,,,,
,,,,,,,,,,,,,FF,,,,,,,,0.9497,,,,,,,,,,,,,,,,,,,,,,60ff9740c0716986284c41b3,61036cd27c0fb30bf3dedca8,2021-07-30_05h07.31.756,Simcolourproject_2stim_asymm_v5,2020.2.10,Win32,60,61025ae37ef11b136ea224fe,,,,,,,,,2813,43,-34,1,0,0,response3disk,,5,9,-9,1,0,0,rectangle,9,-9,1,0,0,9,-9,1,0,0,1,30,190,113,1,,,,,,,,
,,,,,,,,,,,,,FF,,,,,,,,0.6999,,,,,,,,,,,,,,,,,,,,,,60ff9740c0716986284c41b3,61036cd27c0fb30bf3dedca8,2021-07-30_05h07.31.756,Simcolourproject_2stim_asymm_v5,2020.2.10,Win32,60,61025ae37ef11b136ea224fe,,,,,,,,,3534,43,82,1,0,0,response1disk,,7,11,-12,1,0,0,rectangle,11,-12,1,0,0,11,-12,1,0,0,1,31,191,84,1,,,,,,,,
,,,,,,,,,,,,,FF,,,,,,,,1.5331,,,,,,,,,,,,,,,,,,,,,,60ff9740c0716986284c41b3,61036cd27c0fb30bf3dedca8,2021-07-30_05h07.31.756,Simcolourproject_2stim_asymm_v5,2020.2.10,Win32,60,61025ae37ef11b136ea224fe,,,,,,,,,3199,30,-57,1,0,0,response3disk,,4,4,-7,1,0,0,rectangle,4,-7,1,0,0,4,-7,1,0,0,1,32,192,8,1,,,,,,,,
,,,,,,,,,,,,,FF,,,,,,,,1.0001,,,,,,,,,,,,,,,,,,,,,,60ff9740c0716986284c41b3,61036cd27c0fb30bf3dedca8,2021-07-30_05h07.31.756,Simcolourproject_2stim_asymm_v5,2020.2.10,Win32,60,61025ae37ef11b136ea224fe,,,,,,,,,2586,44,79,1,0,0,response1disk,,7,23,-12,1,0,0,rectangle,23,-12,1,0,0,23,-12,1,0,0,1,33,193,19,1,,,,,,,,
,,,,,,,,,,,,,FF,,,,,,,,0.8164,,,,,,,,,,,,,,,,,,,,,,60ff9740c0716986284c41b3,61036cd27c0fb30bf3dedca8,2021-07-30_05h07.31.756,Simcolourproject_2stim_asymm_v5,2020.2.10,Win32,60,61025ae37ef11b136ea224fe,,,,,,,,,236,45,-39,1,0,0,response3disk,,5,5,7,1,0,0,rectangle,5,7,1,0,0,5,7,1,0,0,1,34,194,13,1,,,,,,,,
,,,,,,,,,,,,,FF,,,,,,,,1,,,,,,,,,,,,,,,,,,,,,,60ff9740c0716986284c41b3,61036cd27c0fb30bf3dedca8,2021-07-30_05h07.31.756,Simcolourproject_2stim_asymm_v5,2020.2.10,Win32,60,61025ae37ef11b136ea224fe,,,,,,,,,1735,-67,-45,1,0,0,response5disk,,2,-10,-16,1,0,0,rectangle,-10,-16,1,0,0,-10,-16,1,0,0,1,35,195,17,1,,,,,,,,
,,,,,,,,,,,,,FF,,,,,,,,1.5832,,,,,,,,,,,,,,,,,,,,,,60ff9740c0716986284c41b3,61036cd27c0fb30bf3dedca8,2021-07-30_05h07.31.756,Simcolourproject_2stim_asymm_v5,2020.2.10,Win32,60,61025ae37ef11b136ea224fe,,,,,,,,,1681,-54,-26,1,0,0,response5disk,,2,-5,17,1,0,0,rectangle,-5,17,1,0,0,-5,17,1,0,0,1,36,196,91,1,,,,,,,,
,,,,,,,,,,,,,FF,,,,,,,,1.2999,,,,,,,,,,,,,,,,,,,,,,60ff9740c0716986284c41b3,61036cd27c0fb30bf3dedca8,2021-07-30_05h07.31.756,Simcolourproject_2stim_asymm_v5,2020.2.10,Win32,60,61025ae37ef11b136ea224fe,,,,,,,,,2331,51,-31,1,0,0,response3disk,,5,18,-2,1,0,0,rectangle,18,-2,1,0,0,18,-2,1,0,0,1,37,197,76,1,,,,,,,,
,,,,,,,,,,,,,FF,,,,,,,,2.1164,,,,,,,,,,,,,,,,,,,,,,60ff9740c0716986284c41b3,61036cd27c0fb30bf3dedca8,2021-07-30_05h07.31.756,Simcolourproject_2stim_asymm_v5,2020.2.10,Win32,60,61025ae37ef11b136ea224fe,,,,,,,,,3246,57,-34,1,0,0,response3disk,,5,22,-3,1,0,0,rectangle,22,-3,1,0,0,22,-3,1,0,0,1,38,198,33,1,,,,,,,,
,,,,,,,,,,,,,FF,,,,,,,,1.2,,,,,,,,,,,,,,,,,,,,,,60ff9740c0716986284c41b3,61036cd27c0fb30bf3dedca8,2021-07-30_05h07.31.756,Simcolourproject_2stim_asymm_v5,2020.2.10,Win32,60,61025ae37ef11b136ea224fe,,,,,,,,,1213,-31,-58,1,0,0,response5disk,,3,1,-1,1,0,0,rectangle,1,-1,1,0,0,1,-1,1,0,0,1,39,199,39,1,,,,,,,,
,,,,,,,,,,,,,FF,,,,,,,,2.1829,,,,,,,,,,,,,,,,,,,,,,60ff9740c0716986284c41b3,61036cd27c0fb30bf3dedca8,2021-07-30_05h07.31.756,Simcolourproject_2stim_asymm_v5,2020.2.10,Win32,60,61025ae37ef11b136ea224fe,,,,,,,,,3796,30,-43,1,0,0,response3disk,,4,7,-3,1,0,0,rectangle,-47,114,1,0,0,-20,7,1,0,0,1,40,200,92,1,,response7disk_3,TRUE,0,0,"[92,311,228,10,242,212,47,108,292,119,247,175,201,30,250,91,128,0,65,179]",2.2997,rectangle
,,,,,,,,,,,,,FF,,,,,,,,1.3498,,,,,,,,,,,,,,,,,,,,,,60ff9740c0716986284c41b3,61036cd27c0fb30bf3dedca8,2021-07-30_05h07.31.756,Simcolourproject_2stim_asymm_v5,2020.2.10,Win32,60,61025ae37ef11b136ea224fe,,,,,,,,,878,21,-43,1,0,0,response3disk,,4,3,-7,1,0,0,rectangle,3,-7,1,0,0,3,-7,1,0,0,1,41,201,127,1,,,,,,,,
,,,,,,,,,,,,,FF,,,,,,,,2.333,,,,,,,,,,,,,,,,,,,,,,60ff9740c0716986284c41b3,61036cd27c0fb30bf3dedca8,2021-07-30_05h07.31.756,Simcolourproject_2stim_asymm_v5,2020.2.10,Win32,60,61025ae37ef11b136ea224fe,,,,,,,,,349,53,-37,1,0,0,response3disk,,5,-17,5,1,0,0,rectangle,-17,5,1,0,0,-17,5,1,0,0,1,42,202,144,1,,,,,,,,
,,,,,,,,,,,,,FF,,,,,,,,0.9999,,,,,,,,,,,,,,,,,,,,,,60ff9740c0716986284c41b3,61036cd27c0fb30bf3dedca8,2021-07-30_05h07.31.756,Simcolourproject_2stim_asymm_v5,2020.2.10,Win32,60,61025ae37ef11b136ea224fe,,,,,,,,,3738,39,71,1,0,0,response1disk,,7,28,19,1,0,0,rectangle,28,19,1,0,0,28,19,1,0,0,1,43,203,26,1,,,,,,,,
,,,,,,,,,,,,,FF,,,,,,,,0.8831,,,,,,,,,,,,,,,,,,,,,,60ff9740c0716986284c41b3,61036cd27c0fb30bf3dedca8,2021-07-30_05h07.31.756,Simcolourproject_2stim_asymm_v5,2020.2.10,Win32,60,61025ae37ef11b136ea224fe,,,,,,,,,3784,67,-34,1,0,0,response3disk,,5,4,-4,1,0,0,rectangle,4,-4,1,0,0,4,-4,1,0,0,1,44,204,105,1,,,,,,,,
,,,,,,,,,,,,,FF,,,,,,,,1.0332,,,,,,,,,,,,,,,,,,,,,,60ff9740c0716986284c41b3,61036cd27c0fb30bf3dedca8,2021-07-30_05h07.31.756,Simcolourproject_2stim_asymm_v5,2020.2.10,Win32,60,61025ae37ef11b136ea224fe,,,,,,,,,4029,39,-67,1,0,0,response3disk,,4,10,12,1,0,0,rectangle,10,12,1,0,0,10,12,1,0,0,1,45,205,54,1,,,,,,,,
,,,,,,,,,,,,,FF,,,,,,,,0.9331,,,,,,,,,,,,,,,,,,,,,,60ff9740c0716986284c41b3,61036cd27c0fb30bf3dedca8,2021-07-30_05h07.31.756,Simcolourproject_2stim_asymm_v5,2020.2.10,Win32,60,61025ae37ef11b136ea224fe,,,,,,,,,3991,55,-38,1,0,0,response3disk,,5,-5,-3,1,0,0,rectangle,-5,-3,1,0,0,-5,-3,1,0,0,1,46,206,63,1,,,,,,,,
,,,,,,,,,,,,,FF,,,,,,,,0.6999,,,,,,,,,,,,,,,,,,,,,,60ff9740c0716986284c41b3,61036cd27c0fb30bf3dedca8,2021-07-30_05h07.31.756,Simcolourproject_2stim_asymm_v5,2020.2.10,Win32,60,61025ae37ef11b136ea224fe,,,,,,,,,760,67,-35,1,0,0,response3disk,,5,-4,11,1,0,0,rectangle,-4,11,1,0,0,-4,11,1,0,0,1,47,207,51,1,,,,,,,,
,,,,,,,,,,,,,FF,,,,,,,,1.283,,,,,,,,,,,,,,,,,,,,,,60ff9740c0716986284c41b3,61036cd27c0fb30bf3dedca8,2021-07-30_05h07.31.756,Simcolourproject_2stim_asymm_v5,2020.2.10,Win32,60,61025ae37ef11b136ea224fe,,,,,,,,,2020,47,37,1,0,0,response1disk,,6,19,14,1,0,0,rectangle,19,14,1,0,0,19,14,1,0,0,1,48,208,93,1,,,,,,,,
,,,,,,,,,,,,,FF,,,,,,,,1.1165,,,,,,,,,,,,,,,,,,,,,,60ff9740c0716986284c41b3,61036cd27c0fb30bf3dedca8,2021-07-30_05h07.31.756,Simcolourproject_2stim_asymm_v5,2020.2.10,Win32,60,61025ae37ef11b136ea224fe,,,,,,,,,1895,-43,-59,1,0,0,response5disk,,3,-10,13,1,0,0,rectangle,-10,13,1,0,0,-10,13,1,0,0,1,49,209,47,1,,,,,,,,
,,,,,,,,,,,,,FF,,,,,,,,1.0497,,,,,,,,,,,,,,,,,,,,,,60ff9740c0716986284c41b3,61036cd27c0fb30bf3dedca8,2021-07-30_05h07.31.756,Simcolourproject_2stim_asymm_v5,2020.2.10,Win32,60,61025ae37ef11b136ea224fe,,,,,,,,,2024,38,63,1,0,0,response1disk,,7,3,5,1,0,0,rectangle,3,5,1,0,0,3,5,1,0,0,1,50,210,32,1,,,,,,,,
,,,,,,,,,,,,,FF,,,,,,,,4.0328,,,,,,,,,,,,,,,,,,,,,,60ff9740c0716986284c41b3,61036cd27c0fb30bf3dedca8,2021-07-30_05h07.31.756,Simcolourproject_2stim_asymm_v5,2020.2.10,Win32,60,61025ae37ef11b136ea224fe,,,,,,,,,2792,63,-33,1,0,0,response3disk,,5,14,3,1,0,0,rectangle,-122,51,1,0,0,2,-4,1,0,0,1,51,211,5,1,,response7disk_3,TRUE,1,1,"[92,311,228,10,242,212,47,108,292,119,247,175,201,30,250,91,128,0,65,179]",1.7328,rectangle
,,,,,,,,,,,,,FF,,,,,,,,1.6498,,,,,,,,,,,,,,,,,,,,,,60ff9740c0716986284c41b3,61036cd27c0fb30bf3dedca8,2021-07-30_05h07.31.756,Simcolourproject_2stim_asymm_v5,2020.2.10,Win32,60,61025ae37ef11b136ea224fe,,,,,,,,,2757,37,77,1,0,0,response1disk,,7,18,12,1,0,0,rectangle,18,12,1,0,0,18,12,1,0,0,1,52,212,141,1,,,,,,,,
,,,,,,,,,,,,,FF,,,,,,,,1.2332,,,,,,,,,,,,,,,,,,,,,,60ff9740c0716986284c41b3,61036cd27c0fb30bf3dedca8,2021-07-30_05h07.31.756,Simcolourproject_2stim_asymm_v5,2020.2.10,Win32,60,61025ae37ef11b136ea224fe,,,,,,,,,1060,31,-52,1,0,0,response3disk,,4,-14,-10,1,0,0,rectangle,-14,-10,1,0,0,-14,-10,1,0,0,1,53,213,147,1,,,,,,,,
,,,,,,,,,,,,,FF,,,,,,,,2.0173,,,,,,,,,,,,,,,,,,,,,,60ff9740c0716986284c41b3,61036cd27c0fb30bf3dedca8,2021-07-30_05h07.31.756,Simcolourproject_2stim_asymm_v5,2020.2.10,Win32,60,61025ae37ef11b136ea224fe,,,,,,,,,1131,-55,80,1,0,0,response7disk,,0,-15,8,1,0,0,rectangle,-15,8,1,0,0,-15,8,1,0,0,1,54,214,99,1,,,,,,,,
,,,,,,,,,,,,,FF,,,,,,,,0.8332,,,,,,,,,,,,,,,,,,,,,,60ff9740c0716986284c41b3,61036cd27c0fb30bf3dedca8,2021-07-30_05h07.31.756,Simcolourproject_2stim_asymm_v5,2020.2.10,Win32,60,61025ae37ef11b136ea224fe,,,,,,,,,1599,-53,-36,1,0,0,response5disk,,2,-16,-2,1,0,0,rectangle,-16,-2,1,0,0,-16,-2,1,0,0,1,55,215,25,1,,,,,,,,
,,,,,,,,,,,,,FF,,,,,,,,0.6165,,,,,,,,,,,,,,,,,,,,,,60ff9740c0716986284c41b3,61036cd27c0fb30bf3dedca8,2021-07-30_05h07.31.756,Simcolourproject_2stim_asymm_v5,2020.2.10,Win32,60,61025ae37ef11b136ea224fe,,,,,,,,,2295,-86,34,1,0,0,response7disk,,1,3,-4,1,0,0,rectangle,3,-4,1,0,0,3,-4,1,0,0,1,56,216,116,1,,,,,,,,
,,,,,,,,,,,,,FF,,,,,,,,1.0501,,,,,,,,,,,,,,,,,,,,,,60ff9740c0716986284c41b3,61036cd27c0fb30bf3dedca8,2021-07-30_05h07.31.756,Simcolourproject_2stim_asymm_v5,2020.2.10,Win32,60,61025ae37ef11b136ea224fe,,,,,,,,,331,53,73,1,0,0,response1disk,,7,37,10,1,0,0,rectangle,37,10,1,0,0,37,10,1,0,0,1,57,217,145,1,,,,,,,,
,,,,,,,,,,,,,FF,,,,,,,,1.6332,,,,,,,,,,,,,,,,,,,,,,60ff9740c0716986284c41b3,61036cd27c0fb30bf3dedca8,2021-07-30_05h07.31.756,Simcolourproject_2stim_asymm_v5,2020.2.10,Win32,60,61025ae37ef11b136ea224fe,,,,,,,,,342,81,40,1,0,0,response1disk,,6,20,2,1,0,0,rectangle,20,2,1,0,0,20,2,1,0,0,1,58,218,74,1,,,,,,,,
,,,,,,,,,,,,,FF,,,,,,,,0.9499,,,,,,,,,,,,,,,,,,,,,,60ff9740c0716986284c41b3,61036cd27c0fb30bf3dedca8,2021-07-30_05h07.31.756,Simcolourproject_2stim_asymm_v5,2020.2.10,Win32,60,61025ae37ef11b136ea224fe,,,,,,,,,3277,43,72,1,0,0,response1disk,,7,16,5,1,0,0,rectangle,16,5,1,0,0,16,5,1,0,0,1,59,219,48,1,,,,,,,,
,,,,,,,,,,,,,FF,,,,,,,,0.7667,,,,,,,,,,,,,,,,,,,,,,60ff9740c0716986284c41b3,61036cd27c0fb30bf3dedca8,2021-07-30_05h07.31.756,Simcolourproject_2stim_asymm_v5,2020.2.10,Win32,60,61025ae37ef11b136ea224fe,,,,,,,,,1512,45,72,1,0,0,response1disk,,7,20,5,1,0,0,rectangle,20,5,1,0,0,20,5,1,0,0,1,60,220,119,1,,,,,,,,
,,,,,,,,,,,,,FF,,,,,,,,1.4498,,,,,,,,,,,,,,,,,,,,,,60ff9740c0716986284c41b3,61036cd27c0fb30bf3dedca8,2021-07-30_05h07.31.756,Simcolourproject_2stim_asymm_v5,2020.2.10,Win32,60,61025ae37ef11b136ea224fe,,,,,,,,,662,61,31,1,0,0,response1disk,,6,15,-4,1,0,0,rectangle,15,-4,1,0,0,15,-4,1,0,0,1,61,221,2,1,,,,,,,,
,,,,,,,,,,,,,FF,,,,,,,,0.8998,,,,,,,,,,,,,,,,,,,,,,60ff9740c0716986284c41b3,61036cd27c0fb30bf3dedca8,2021-07-30_05h07.31.756,Simcolourproject_2stim_asymm_v5,2020.2.10,Win32,60,61025ae37ef11b136ea224fe,,,,,,,,,3579,64,-39,1,0,0,response3disk,,5,16,-12,1,0,0,rectangle,16,-12,1,0,0,16,-12,1,0,0,1,62,222,75,1,,,,,,,,
,,,,,,,,,,,,,FF,,,,,,,,0.8664,,,,,,,,,,,,,,,,,,,,,,60ff9740c0716986284c41b3,61036cd27c0fb30bf3dedca8,2021-07-30_05h07.31.756,Simcolourproject_2stim_asymm_v5,2020.2.10,Win32,60,61025ae37ef11b136ea224fe,,,,,,,,,2262,84,43,1,0,0,response1disk,,6,19,-15,1,0,0,rectangle,19,-15,1,0,0,19,-15,1,0,0,1,63,223,72,1,,,,,,,,
,,,,,,,,,,,,,FF,,,,,,,,1.0677,,,,,,,,,,,,,,,,,,,,,,60ff9740c0716986284c41b3,61036cd27c0fb30bf3dedca8,2021-07-30_05h07.31.756,Simcolourproject_2stim_asymm_v5,2020.2.10,Win32,60,61025ae37ef11b136ea224fe,,,,,,,,,2606,33,-53,1,0,0,response3disk,,4,1,2,1,0,0,rectangle,1,2,1,0,0,1,2,1,0,0,1,64,224,150,1,,,,,,,,
,,,,,,,,,,,,,FF,,,,,,,,0.883,,,,,,,,,,,,,,,,,,,,,,60ff9740c0716986284c41b3,61036cd27c0fb30bf3dedca8,2021-07-30_05h07.31.756,Simcolourproject_2stim_asymm_v5,2020.2.10,Win32,60,61025ae37ef11b136ea224fe,,,,,,,,,1087,85,55,1,0,0,response1disk,,6,18,3,1,0,0,rectangle,18,3,1,0,0,18,3,1,0,0,1,65,225,24,1,,,,,,,,
,,,,,,,,,,,,,FF,,,,,,,,0.6,,,,,,,,,,,,,,,,,,,,,,60ff9740c0716986284c41b3,61036cd27c0fb30bf3dedca8,2021-07-30_05h07.31.756,Simcolourproject_2stim_asymm_v5,2020.2.10,Win32,60,61025ae37ef11b136ea224fe,,,,,,,,,2639,64,36,1,0,0,response1disk,,6,13,-5,1,0,0,rectangle,13,-5,1,0,0,13,-5,1,0,0,1,66,226,64,1,,,,,,,,
,,,,,,,,,,,,,FF,,,,,,,,1.0831,,,,,,,,,,,,,,,,,,,,,,60ff9740c0716986284c41b3,61036cd27c0fb30bf3dedca8,2021-07-30_05h07.31.756,Simcolourproject_2stim_asymm_v5,2020.2.10,Win32,60,61025ae37ef11b136ea224fe,,,,,,,,,321,28,54,1,0,0,response1disk,,7,16,-2,1,0,0,rectangle,-52,-95,1,0,0,-25,1,1,0,0,1,67,227,89,1,,response5disk_3,TRUE,3,3,"[92,311,228,10,242,212,47,108,292,119,247,175,201,30,250,91,128,0,65,179]",2.0495,rectangle
,,,,,,,,,,,,,FF,,,,,,,,1.1164,,,,,,,,,,,,,,,,,,,,,,60ff9740c0716986284c41b3,61036cd27c0fb30bf3dedca8,2021-07-30_05h07.31.756,Simcolourproject_2stim_asymm_v5,2020.2.10,Win32,60,61025ae37ef11b136ea224fe,,,,,,,,,3346,69,37,1,0,0,response1disk,,6,3,3,1,0,0,rectangle,3,3,1,0,0,3,3,1,0,0,1,68,228,35,1,,,,,,,,
,,,,,,,,,,,,,FF,,,,,,,,3.4163,,,,,,,,,,,,,,,,,,,,,,60ff9740c0716986284c41b3,61036cd27c0fb30bf3dedca8,2021-07-30_05h07.31.756,Simcolourproject_2stim_asymm_v5,2020.2.10,Win32,60,61025ae37ef11b136ea224fe,,,,,,,,,2898,68,41,1,0,0,response1disk,,6,-9,0,1,0,0,rectangle,-9,0,1,0,0,-9,0,1,0,0,1,69,229,95,1,,,,,,,,
,,,,,,,,,,,,,FF,,,,,,,,0.7999,,,,,,,,,,,,,,,,,,,,,,60ff9740c0716986284c41b3,61036cd27c0fb30bf3dedca8,2021-07-30_05h07.31.756,Simcolourproject_2stim_asymm_v5,2020.2.10,Win32,60,61025ae37ef11b136ea224fe,,,,,,,,,624,66,-33,1,0,0,response3disk,,5,-3,2,1,0,0,rectangle,-3,2,1,0,0,-3,2,1,0,0,1,70,230,7,1,,,,,,,,
,,,,,,,,,,,,,FF,,,,,,,,0.7664,,,,,,,,,,,,,,,,,,,,,,60ff9740c0716986284c41b3,61036cd27c0fb30bf3dedca8,2021-07-30_05h07.31.756,Simcolourproject_2stim_asymm_v5,2020.2.10,Win32,60,61025ae37ef11b136ea224fe,,,,,,,,,380,67,51,1,0,0,response1disk,,6,15,11,1,0,0,rectangle,15,11,1,0,0,15,11,1,0,0,1,71,231,112,1,,,,,,,,
,,,,,,,,,,,,,FF,,,,,,,,0.5,,,,,,,,,,,,,,,,,,,,,,60ff9740c0716986284c41b3,61036cd27c0fb30bf3dedca8,2021-07-30_05h07.31.756,Simcolourproject_2stim_asymm_v5,2020.2.10,Win32,60,61025ae37ef11b136ea224fe,,,,,,,,,4177,81,42,1,0,0,response1disk,,6,22,10,1,0,0,rectangle,22,10,1,0,0,22,10,1,0,0,1,72,232,67,1,,,,,,,,
,,,,,,,,,,,,,FF,,,,,,,,0.5527,,,,,,,,,,,,,,,,,,,,,,60ff9740c0716986284c41b3,61036cd27c0fb30bf3dedca8,2021-07-30_05h07.31.756,Simcolourproject_2stim_asymm_v5,2020.2.10,Win32,60,61025ae37ef11b136ea224fe,,,,,,,,,607,28,65,1,0,0,response1disk,,7,23,7,1,0,0,rectangle,23,7,1,0,0,23,7,1,0,0,1,73,233,140,1,,,,,,,,
,,,,,,,,,,,,,FF,,,,,,,,0.9497,,,,,,,,,,,,,,,,,,,,,,60ff9740c0716986284c41b3,61036cd27c0fb30bf3dedca8,2021-07-30_05h07.31.756,Simcolourproject_2stim_asymm_v5,2020.2.10,Win32,60,61025ae37ef11b136ea224fe,,,,,,,,,1079,39,71,1,0,0,response1disk,,7,20,3,1,0,0,rectangle,20,3,1,0,0,20,3,1,0,0,1,74,234,98,1,,,,,,,,
,,,,,,,,,,,,,FF,,,,,,,,0.7665,,,,,,,,,,,,,,,,,,,,,,60ff9740c0716986284c41b3,61036cd27c0fb30bf3dedca8,2021-07-30_05h07.31.756,Simcolourproject_2stim_asymm_v5,2020.2.10,Win32,60,61025ae37ef11b136ea224fe,,,,,,,,,2315,62,-24,1,0,0,response3disk,,5,20,-3,1,0,0,rectangle,20,-3,1,0,0,20,-3,1,0,0,1,75,235,36,1,,,,,,,,
,,,,,,,,,,,,,FF,,,,,,,,0.933,,,,,,,,,,,,,,,,,,,,,,60ff9740c0716986284c41b3,61036cd27c0fb30bf3dedca8,2021-07-30_05h07.31.756,Simcolourproject_2stim_asymm_v5,2020.2.10,Win32,60,61025ae37ef11b136ea224fe,,,,,,,,,1977,50,77,1,0,0,response1disk,,7,22,1,1,0,0,rectangle,22,1,1,0,0,22,1,1,0,0,1,76,236,60,1,,,,,,,,
,,,,,,,,,,,,,FF,,,,,,,,0.9831,,,,,,,,,,,,,,,,,,,,,,60ff9740c0716986284c41b3,61036cd27c0fb30bf3dedca8,2021-07-30_05h07.31.756,Simcolourproject_2stim_asymm_v5,2020.2.10,Win32,60,61025ae37ef11b136ea224fe,,,,,,,,,1901,55,-31,1,0,0,response3disk,,5,1,11,1,0,0,rectangle,1,11,1,0,0,1,11,1,0,0,1,77,237,126,1,,,,,,,,
,,,,,,,,,,,,,FF,,,,,,,,1.3331,,,,,,,,,,,,,,,,,,,,,,60ff9740c0716986284c41b3,61036cd27c0fb30bf3dedca8,2021-07-30_05h07.31.756,Simcolourproject_2stim_asymm_v5,2020.2.10,Win32,60,61025ae37ef11b136ea224fe,,,,,,,,,577,57,-24,1,0,0,response3disk,,5,4,18,1,0,0,rectangle,4,18,1,0,0,4,18,1,0,0,1,78,238,96,1,,,,,,,,
,,,,,,,,,,,,,FF,,,,,,,,0.9167,,,,,,,,,,,,,,,,,,,,,,60ff9740c0716986284c41b3,61036cd27c0fb30bf3dedca8,2021-07-30_05h07.31.756,Simcolourproject_2stim_asymm_v5,2020.2.10,Win32,60,61025ae37ef11b136ea224fe,,,,,,,,,2473,65,40,1,0,0,response1disk,,6,2,0,1,0,0,rectangle,2,0,1,0,0,2,0,1,0,0,1,79,239,49,1,,,,,,,,
,,,,,,,,,,,,,FF,,,,,,,,0.8334,,,,,,,,,,,,,,,,,,,,,,60ff9740c0716986284c41b3,61036cd27c0fb30bf3dedca8,2021-07-30_05h07.31.756,Simcolourproject_2stim_asymm_v5,2020.2.10,Win32,60,61025ae37ef11b136ea224fe,,,,,,,,,1795,43,83,1,0,0,response1disk,,7,9,7,1,0,0,rectangle,9,7,1,0,0,9,7,1,0,0,1,80,240,135,1,,,,,,,,
,,,,,,,,,,,,,FF,,,,,,,,1.7164,,,,,,,,,,,,,,,,,,,,,,60ff9740c0716986284c41b3,61036cd27c0fb30bf3dedca8,2021-07-30_05h07.31.756,Simcolourproject_2stim_asymm_v5,2020.2.10,Win32,60,61025ae37ef11b136ea224fe,,,,,,,,,1002,58,-31,1,0,0,response3disk,,5,24,-8,1,0,0,rectangle,-92,-44,1,0,0,-2,-5,1,0,0,1,81,241,153,1,,response5disk_3,TRUE,2,2,"[92,311,228,10,242,212,47,108,292,119,247,175,201,30,250,91,128,0,65,179]",1.5996,rectangle
,,,,,,,,,,,,,FF,,,,,,,,1.3331,,,,,,,,,,,,,,,,,,,,,,60ff9740c0716986284c41b3,61036cd27c0fb30bf3dedca8,2021-07-30_05h07.31.756,Simcolourproject_2stim_asymm_v5,2020.2.10,Win32,60,61025ae37ef11b136ea224fe,,,,,,,,,17,34,86,1,0,0,response1disk,,7,17,13,1,0,0,rectangle,17,13,1,0,0,17,13,1,0,0,1,82,242,122,1,,,,,,,,
,,,,,,,,,,,,,FF,,,,,,,,1.3664,,,,,,,,,,,,,,,,,,,,,,60ff9740c0716986284c41b3,61036cd27c0fb30bf3dedca8,2021-07-30_05h07.31.756,Simcolourproject_2stim_asymm_v5,2020.2.10,Win32,60,61025ae37ef11b136ea224fe,,,,,,,,,2560,58,44,1,0,0,response1disk,,6,20,6,1,0,0,rectangle,20,6,1,0,0,20,6,1,0,0,1,83,243,106,1,,,,,,,,
,,,,,,,,,,,,,FF,,,,,,,,1.6163,,,,,,,,,,,,,,,,,,,,,,60ff9740c0716986284c41b3,61036cd27c0fb30bf3dedca8,2021-07-30_05h07.31.756,Simcolourproject_2stim_asymm_v5,2020.2.10,Win32,60,61025ae37ef11b136ea224fe,,,,,,,,,868,63,-38,1,0,0,response3disk,,5,7,-10,1,0,0,rectangle,7,-10,1,0,0,7,-10,1,0,0,1,84,244,82,1,,,,,,,,
,,,,,,,,,,,,,FF,,,,,,,,0.8,,,,,,,,,,,,,,,,,,,,,,60ff9740c0716986284c41b3,61036cd27c0fb30bf3dedca8,2021-07-30_05h07.31.756,Simcolourproject_2stim_asymm_v5,2020.2.10,Win32,60,61025ae37ef11b136ea224fe,,,,,,,,,1514,78,36,1,0,0,response1disk,,6,4,-16,1,0,0,rectangle,4,-16,1,0,0,4,-16,1,0,0,1,85,245,70,1,,,,,,,,
,,,,,,,,,,,,,FF,,,,,,,,1.7662,,,,,,,,,,,,,,,,,,,,,,60ff9740c0716986284c41b3,61036cd27c0fb30bf3dedca8,2021-07-30_05h07.31.756,Simcolourproject_2stim_asymm_v5,2020.2.10,Win32,60,61025ae37ef11b136ea224fe,,,,,,,,,3494,29,-52,1,0,0,response3disk,,4,13,-8,1,0,0,rectangle,-46,-84,1,0,0,-17,-4,1,0,0,1,86,246,156,1,,response5disk_3,TRUE,3,3,"[92,311,228,10,242,212,47,108,292,119,247,175,201,30,250,91,128,0,65,179]",1.7162,rectangle
,,,,,,,,,,,,,FF,,,,,,,,1.0966,,,,,,,,,,,,,,,,,,,,,,60ff9740c0716986284c41b3,61036cd27c0fb30bf3dedca8,2021-07-30_05h07.31.756,Simcolourproject_2stim_asymm_v5,2020.2.10,Win32,60,61025ae37ef11b136ea224fe,,,,,,,,,4071,-40,107,1,0,0,response7disk,,0,-8,-12,1,0,0,rectangle,-8,-12,1,0,0,-8,-12,1,0,0,1,87,247,107,1,,,,,,,,
,,,,,,,,,,,,,FF,,,,,,,,2.3664,,,,,,,,,,,,,,,,,,,,,,60ff9740c0716986284c41b3,61036cd27c0fb30bf3dedca8,2021-07-30_05h07.31.756,Simcolourproject_2stim_asymm_v5,2020.2.10,Win32,60,61025ae37ef11b136ea224fe,,,,,,,,,1810,44,-66,1,0,0,response3disk,,4,2,-4,1,0,0,rectangle,2,-4,1,0,0,2,-4,1,0,0,1,88,248,45,1,,,,,,,,
,,,,,,,,,,,,,FF,,,,,,,,1.3664,,,,,,,,,,,,,,,,,,,,,,60ff9740c0716986284c41b3,61036cd27c0fb30bf3dedca8,2021-07-30_05h07.31.756,Simcolourproject_2stim_asymm_v5,2020.2.10,Win32,60,61025ae37ef11b136ea224fe,,,,,,,,,3638,63,-33,1,0,0,response3disk,,5,0,-1,1,0,0,rectangle,-112,40,1,0,0,-7,-4,1,0,0,1,89,249,138,1,,response7disk_3,TRUE,1,1,"[92,311,228,10,242,212,47,108,292,119,247,175,201,30,250,91,128,0,65,179]",1.9996,rectangle
,,,,,,,,,,,,,FF,,,,,,,,1.3833,,,,,,,,,,,,,,,,,,,,,,60ff9740c0716986284c41b3,61036cd27c0fb30bf3dedca8,2021-07-30_05h07.31.756,Simcolourproject_2stim_asymm_v5,2020.2.10,Win32,60,61025ae37ef11b136ea224fe,,,,,,,,,4355,34,72,1,0,0,response1disk,,7,12,7,1,0,0,rectangle,12,7,1,0,0,12,7,1,0,0,1,90,250,149,1,,,,,,,,
,,,,,,,,,,,,,FF,,,,,,,,0.7666,,,,,,,,,,,,,,,,,,,,,,60ff9740c0716986284c41b3,61036cd27c0fb30bf3dedca8,2021-07-30_05h07.31.756,Simcolourproject_2stim_asymm_v5,2020.2.10,Win32,60,61025ae37ef11b136ea224fe,,,,,,,,,1994,26,57,1,0,0,response1disk,,7,18,3,1,0,0,rectangle,18,3,1,0,0,18,3,1,0,0,1,91,251,22,1,,,,,,,,
,,,,,,,,,,,,,FF,,,,,,,,1.0999,,,,,,,,,,,,,,,,,,,,,,60ff9740c0716986284c41b3,61036cd27c0fb30bf3dedca8,2021-07-30_05h07.31.756,Simcolourproject_2stim_asymm_v5,2020.2.10,Win32,60,61025ae37ef11b136ea224fe,,,,,,,,,21,87,37,1,0,0,response1disk,,6,15,14,1,0,0,rectangle,15,14,1,0,0,15,14,1,0,0,1,92,252,14,1,,,,,,,,
,,,,,,,,,,,,,FF,,,,,,,,0.7667,,,,,,,,,,,,,,,,,,,,,,60ff9740c0716986284c41b3,61036cd27c0fb30bf3dedca8,2021-07-30_05h07.31.756,Simcolourproject_2stim_asymm_v5,2020.2.10,Win32,60,61025ae37ef11b136ea224fe,,,,,,,,,3681,75,42,1,0,0,response1disk,,6,-10,-9,1,0,0,rectangle,-10,-9,1,0,0,-10,-9,1,0,0,1,93,253,56,1,,,,,,,,
,,,,,,,,,,,,,FF,,,,,,,,0.7166,,,,,,,,,,,,,,,,,,,,,,60ff9740c0716986284c41b3,61036cd27c0fb30bf3dedca8,2021-07-30_05h07.31.756,Simcolourproject_2stim_asymm_v5,2020.2.10,Win32,60,61025ae37ef11b136ea224fe,,,,,,,,,2952,36,71,1,0,0,response1disk,,7,-4,-6,1,0,0,rectangle,-4,-6,1,0,0,-4,-6,1,0,0,1,94,254,10,1,,,,,,,,
,,,,,,,,,,,,,FF,,,,,,,,0.6501,,,,,,,,,,,,,,,,,,,,,,60ff9740c0716986284c41b3,61036cd27c0fb30bf3dedca8,2021-07-30_05h07.31.756,Simcolourproject_2stim_asymm_v5,2020.2.10,Win32,60,61025ae37ef11b136ea224fe,,,,,,,,,2479,38,83,1,0,0,response1disk,,7,12,5,1,0,0,rectangle,12,5,1,0,0,12,5,1,0,0,1,95,255,78,1,,,,,,,,
,,,,,,,,,,,,,FF,,,,,,,,0.6833,,,,,,,,,,,,,,,,,,,,,,60ff9740c0716986284c41b3,61036cd27c0fb30bf3dedca8,2021-07-30_05h07.31.756,Simcolourproject_2stim_asymm_v5,2020.2.10,Win32,60,61025ae37ef11b136ea224fe,,,,,,,,,2795,48,70,1,0,0,response1disk,,7,3,0,1,0,0,rectangle,3,0,1,0,0,3,0,1,0,0,1,96,256,3,1,,,,,,,,
,,,,,,,,,,,,,FF,,,,,,,,0.9498,,,,,,,,,,,,,,,,,,,,,,60ff9740c0716986284c41b3,61036cd27c0fb30bf3dedca8,2021-07-30_05h07.31.756,Simcolourproject_2stim_asymm_v5,2020.2.10,Win32,60,61025ae37ef11b136ea224fe,,,,,,,,,1212,40,-57,1,0,0,response3disk,,4,11,-13,1,0,0,rectangle,11,-13,1,0,0,11,-13,1,0,0,1,97,257,123,1,,,,,,,,
,,,,,,,,,,,,,FF,,,,,,,,1.18,,,,,,,,,,,,,,,,,,,,,,60ff9740c0716986284c41b3,61036cd27c0fb30bf3dedca8,2021-07-30_05h07.31.756,Simcolourproject_2stim_asymm_v5,2020.2.10,Win32,60,61025ae37ef11b136ea224fe,,,,,,,,,3231,78,-33,1,0,0,response3disk,,5,20,7,1,0,0,rectangle,20,7,1,0,0,20,7,1,0,0,1,98,258,28,1,,,,,,,,
,,,,,,,,,,,,,FF,,,,,,,,1.3664,,,,,,,,,,,,,,,,,,,,,,60ff9740c0716986284c41b3,61036cd27c0fb30bf3dedca8,2021-07-30_05h07.31.756,Simcolourproject_2stim_asymm_v5,2020.2.10,Win32,60,61025ae37ef11b136ea224fe,,,,,,,,,2242,41,-48,1,0,0,response3disk,,4,-2,12,1,0,0,rectangle,-2,12,1,0,0,-2,12,1,0,0,1,99,259,88,1,,,,,,,,
,,,,,,,,,,,,,FF,,,,,,,,0.8499,,,,,,,,,,,,,,,,,,,,,,60ff9740c0716986284c41b3,61036cd27c0fb30bf3dedca8,2021-07-30_05h07.31.756,Simcolourproject_2stim_asymm_v5,2020.2.10,Win32,60,61025ae37ef11b136ea224fe,,,,,,,,,3015,43,67,1,0,0,response1disk,,7,17,11,1,0,0,rectangle,17,11,1,0,0,17,11,1,0,0,1,100,260,20,1,,,,,,,,
,,,,,,,,,,,,,FF,,,,,,,,2.133,,,,,,,,,,,,,,,,,,,,,,60ff9740c0716986284c41b3,61036cd27c0fb30bf3dedca8,2021-07-30_05h07.31.756,Simcolourproject_2stim_asymm_v5,2020.2.10,Win32,60,61025ae37ef11b136ea224fe,,,,,,,,,2564,72,25,1,0,0,response1disk,,6,-20,5,1,0,0,rectangle,-20,5,1,0,0,-20,5,1,0,0,1,101,261,115,1,,,,,,,,
,,,,,,,,,,,,,FF,,,,,,,,1.1497,,,,,,,,,,,,,,,,,,,,,,60ff9740c0716986284c41b3,61036cd27c0fb30bf3dedca8,2021-07-30_05h07.31.756,Simcolourproject_2stim_asymm_v5,2020.2.10,Win32,60,61025ae37ef11b136ea224fe,,,,,,,,,914,54,31,1,0,0,response1disk,,6,8,2,1,0,0,rectangle,8,2,1,0,0,8,2,1,0,0,1,102,262,31,1,,,,,,,,
,,,,,,,,,,,,,FF,,,,,,,,1.0664,,,,,,,,,,,,,,,,,,,,,,60ff9740c0716986284c41b3,61036cd27c0fb30bf3dedca8,2021-07-30_05h07.31.756,Simcolourproject_2stim_asymm_v5,2020.2.10,Win32,60,61025ae37ef11b136ea224fe,,,,,,,,,1666,47,106,1,0,0,response1disk,,7,28,3,1,0,0,rectangle,28,3,1,0,0,28,3,1,0,0,1,103,263,137,1,,,,,,,,
,,,,,,,,,,,,,FF,,,,,,,,1.1831,,,,,,,,,,,,,,,,,,,,,,60ff9740c0716986284c41b3,61036cd27c0fb30bf3dedca8,2021-07-30_05h07.31.756,Simcolourproject_2stim_asymm_v5,2020.2.10,Win32,60,61025ae37ef11b136ea224fe,,,,,,,,,3101,-46,-72,1,0,0,response5disk,,3,-26,-13,1,0,0,rectangle,-26,-13,1,0,0,-26,-13,1,0,0,1,104,264,154,1,,,,,,,,
,,,,,,,,,,,,,FF,,,,,,,,0.7832,,,,,,,,,,,,,,,,,,,,,,60ff9740c0716986284c41b3,61036cd27c0fb30bf3dedca8,2021-07-30_05h07.31.756,Simcolourproject_2stim_asymm_v5,2020.2.10,Win32,60,61025ae37ef11b136ea224fe,,,,,,,,,2946,-65,-31,1,0,0,response5disk,,2,6,-10,1,0,0,rectangle,6,-10,1,0,0,6,-10,1,0,0,1,105,265,148,1,,,,,,,,
,,,,,,,,,,,,,FF,,,,,,,,1.8163,,,,,,,,,,,,,,,,,,,,,,60ff9740c0716986284c41b3,61036cd27c0fb30bf3dedca8,2021-07-30_05h07.31.756,Simcolourproject_2stim_asymm_v5,2020.2.10,Win32,60,61025ae37ef11b136ea224fe,,,,,,,,,508,65,-33,1,0,0,response3disk,,5,37,0,1,0,0,rectangle,37,0,1,0,0,37,0,1,0,0,1,106,266,23,1,,,,,,,,
,,,,,,,,,,,,,FF,,,,,,,,1.1331,,,,,,,,,,,,,,,,,,,,,,60ff9740c0716986284c41b3,61036cd27c0fb30bf3dedca8,2021-07-30_05h07.31.756,Simcolourproject_2stim_asymm_v5,2020.2.10,Win32,60,61025ae37ef11b136ea224fe,,,,,,,,,639,68,-42,1,0,0,response3disk,,5,0,-3,1,0,0,rectangle,0,-3,1,0,0,0,-3,1,0,0,1,107,267,59,1,,,,,,,,
,,,,,,,,,,,,,FF,,,,,,,,0.9999,,,,,,,,,,,,,,,,,,,,,,60ff9740c0716986284c41b3,61036cd27c0fb30bf3dedca8,2021-07-30_05h07.31.756,Simcolourproject_2stim_asymm_v5,2020.2.10,Win32,60,61025ae37ef11b136ea224fe,,,,,,,,,3139,73,38,1,0,0,response1disk,,6,25,-3,1,0,0,rectangle,25,-3,1,0,0,25,-3,1,0,0,1,108,268,15,1,,,,,,,,
,,,,,,,,,,,,,FF,,,,,,,,0.8332,,,,,,,,,,,,,,,,,,,,,,60ff9740c0716986284c41b3,61036cd27c0fb30bf3dedca8,2021-07-30_05h07.31.756,Simcolourproject_2stim_asymm_v5,2020.2.10,Win32,60,61025ae37ef11b136ea224fe,,,,,,,,,614,60,-46,1,0,0,response3disk,,5,10,-9,1,0,0,rectangle,10,-9,1,0,0,10,-9,1,0,0,1,109,269,83,1,,,,,,,,
,,,,,,,,,,,,,FF,,,,,,,,1.2499,,,,,,,,,,,,,,,,,,,,,,60ff9740c0716986284c41b3,61036cd27c0fb30bf3dedca8,2021-07-30_05h07.31.756,Simcolourproject_2stim_asymm_v5,2020.2.10,Win32,60,61025ae37ef11b136ea224fe,,,,,,,,,2694,67,41,1,0,0,response1disk,,6,22,13,1,0,0,rectangle,22,13,1,0,0,22,13,1,0,0,1,110,270,46,1,,,,,,,,
,,,,,,,,,,,,,FF,,,,,,,,0.8,,,,,,,,,,,,,,,,,,,,,,60ff9740c0716986284c41b3,61036cd27c0fb30bf3dedca8,2021-07-30_05h07.31.756,Simcolourproject_2stim_asymm_v5,2020.2.10,Win32,60,61025ae37ef11b136ea224fe,,,,,,,,,3352,49,68,1,0,0,response1disk,,7,31,4,1,0,0,rectangle,31,4,1,0,0,31,4,1,0,0,1,111,271,12,1,,,,,,,,
,,,,,,,,,,,,,FF,,,,,,,,0.9499,,,,,,,,,,,,,,,,,,,,,,60ff9740c0716986284c41b3,61036cd27c0fb30bf3dedca8,2021-07-30_05h07.31.756,Simcolourproject_2stim_asymm_v5,2020.2.10,Win32,60,61025ae37ef11b136ea224fe,,,,,,,,,2609,56,-33,1,0,0,response3disk,,5,7,-1,1,0,0,rectangle,7,-1,1,0,0,7,-1,1,0,0,1,112,272,37,1,,,,,,,,
,,,,,,,,,,,,,FF,,,,,,,,1.5,,,,,,,,,,,,,,,,,,,,,,60ff9740c0716986284c41b3,61036cd27c0fb30bf3dedca8,2021-07-30_05h07.31.756,Simcolourproject_2stim_asymm_v5,2020.2.10,Win32,60,61025ae37ef11b136ea224fe,,,,,,,,,4146,-39,-80,1,0,0,response5disk,,3,-9,-21,1,0,0,rectangle,-9,-21,1,0,0,-9,-21,1,0,0,1,113,273,38,1,,,,,,,,
,,,,,,,,,,,,,FF,,,,,,,,0.9332,,,,,,,,,,,,,,,,,,,,,,60ff9740c0716986284c41b3,61036cd27c0fb30bf3dedca8,2021-07-30_05h07.31.756,Simcolourproject_2stim_asymm_v5,2020.2.10,Win32,60,61025ae37ef11b136ea224fe,,,,,,,,,3482,33,-66,1,0,0,response3disk,,4,21,-10,1,0,0,rectangle,21,-10,1,0,0,21,-10,1,0,0,1,114,274,157,1,,,,,,,,
,,,,,,,,,,,,,FF,,,,,,,,0.8166,,,,,,,,,,,,,,,,,,,,,,60ff9740c0716986284c41b3,61036cd27c0fb30bf3dedca8,2021-07-30_05h07.31.756,Simcolourproject_2stim_asymm_v5,2020.2.10,Win32,60,61025ae37ef11b136ea224fe,,,,,,,,,751,81,-39,1,0,0,response3disk,,5,27,1,1,0,0,rectangle,27,1,1,0,0,27,1,1,0,0,1,115,275,69,1,,,,,,,,
,,,,,,,,,,,,,FF,,,,,,,,1.9166,,,,,,,,,,,,,,,,,,,,,,60ff9740c0716986284c41b3,61036cd27c0fb30bf3dedca8,2021-07-30_05h07.31.756,Simcolourproject_2stim_asymm_v5,2020.2.10,Win32,60,61025ae37ef11b136ea224fe,,,,,,,,,3597,-36,-81,1,0,0,response5disk,,3,-2,-7,1,0,0,rectangle,-2,-7,1,0,0,-2,-7,1,0,0,1,116,276,104,1,,,,,,,,
,,,,,,,,,,,,,FF,,,,,,,,0.8333,,,,,,,,,,,,,,,,,,,,,,60ff9740c0716986284c41b3,61036cd27c0fb30bf3dedca8,2021-07-30_05h07.31.756,Simcolourproject_2stim_asymm_v5,2020.2.10,Win32,60,61025ae37ef11b136ea224fe,,,,,,,,,2304,30,-50,1,0,0,response3disk,,4,7,-15,1,0,0,rectangle,7,-15,1,0,0,7,-15,1,0,0,1,117,277,42,1,,,,,,,,
,,,,,,,,,,,,,FF,,,,,,,,0.85,,,,,,,,,,,,,,,,,,,,,,60ff9740c0716986284c41b3,61036cd27c0fb30bf3dedca8,2021-07-30_05h07.31.756,Simcolourproject_2stim_asymm_v5,2020.2.10,Win32,60,61025ae37ef11b136ea224fe,,,,,,,,,1975,35,67,1,0,0,response1disk,,7,-18,-10,1,0,0,rectangle,-18,-10,1,0,0,-18,-10,1,0,0,1,118,278,136,1,,,,,,,,
,,,,,,,,,,,,,FF,,,,,,,,0.7497,,,,,,,,,,,,,,,,,,,,,,60ff9740c0716986284c41b3,61036cd27c0fb30bf3dedca8,2021-07-30_05h07.31.756,Simcolourproject_2stim_asymm_v5,2020.2.10,Win32,60,61025ae37ef11b136ea224fe,,,,,,,,,2688,59,-28,1,0,0,response3disk,,5,-15,5,1,0,0,rectangle,-15,5,1,0,0,-15,5,1,0,0,1,119,279,4,1,,,,,,,,
,,,,,,,,,,,,,FF,,,,,,,,0.7165,,,,,,,,,,,,,,,,,,,,,,60ff9740c0716986284c41b3,61036cd27c0fb30bf3dedca8,2021-07-30_05h07.31.756,Simcolourproject_2stim_asymm_v5,2020.2.10,Win32,60,61025ae37ef11b136ea224fe,,,,,,,,,428,26,62,1,0,0,response1disk,,7,7,7,1,0,0,rectangle,7,7,1,0,0,7,7,1,0,0,1,120,280,128,1,,,,,,,,
,,,,,,,,,,,,,FF,,,,,,,,0.9498,,,,,,,,,,,,,,,,,,,,,,60ff9740c0716986284c41b3,61036cd27c0fb30bf3dedca8,2021-07-30_05h07.31.756,Simcolourproject_2stim_asymm_v5,2020.2.10,Win32,60,61025ae37ef11b136ea224fe,,,,,,,,,4239,52,-35,1,0,0,response3disk,,5,4,-6,1,0,0,rectangle,4,-6,1,0,0,4,-6,1,0,0,1,121,281,124,1,,,,,,,,
,,,,,,,,,,,,,FF,,,,,,,,3.9828,,,,,,,,,,,,,,,,,,,,,,60ff9740c0716986284c41b3,61036cd27c0fb30bf3dedca8,2021-07-30_05h07.31.756,Simcolourproject_2stim_asymm_v5,2020.2.10,Win32,60,61025ae37ef11b136ea224fe,,,,,,,,,2430,71,-26,1,0,0,response3disk,,5,-7,-4,1,0,0,rectangle,-7,-4,1,0,0,-7,-4,1,0,0,1,122,282,80,1,,,,,,,,
,,,,,,,,,,,,,FF,,,,,,,,2.7328,,,,,,,,,,,,,,,,,,,,,,60ff9740c0716986284c41b3,61036cd27c0fb30bf3dedca8,2021-07-30_05h07.31.756,Simcolourproject_2stim_asymm_v5,2020.2.10,Win32,60,61025ae37ef11b136ea224fe,,,,,,,,,3364,68,44,1,0,0,response1disk,,6,1,21,1,0,0,rectangle,1,21,1,0,0,1,21,1,0,0,1,123,283,151,1,,,,,,,,
,,,,,,,,,,,,,FF,,,,,,,,1.2498,,,,,,,,,,,,,,,,,,,,,,60ff9740c0716986284c41b3,61036cd27c0fb30bf3dedca8,2021-07-30_05h07.31.756,Simcolourproject_2stim_asymm_v5,2020.2.10,Win32,60,61025ae37ef11b136ea224fe,,,,,,,,,92,23,58,1,0,0,response1disk,,7,22,7,1,0,0,rectangle,22,7,1,0,0,22,7,1,0,0,1,124,284,0,1,,,,,,,,
,,,,,,,,,,,,,FF,,,,,,,,0.98,,,,,,,,,,,,,,,,,,,,,,60ff9740c0716986284c41b3,61036cd27c0fb30bf3dedca8,2021-07-30_05h07.31.756,Simcolourproject_2stim_asymm_v5,2020.2.10,Win32,60,61025ae37ef11b136ea224fe,,,,,,,,,1336,34,57,1,0,0,response1disk,,7,-4,-12,1,0,0,rectangle,-4,-12,1,0,0,-4,-12,1,0,0,1,125,285,120,1,,,,,,,,
,,,,,,,,,,,,,FF,,,,,,,,2.8998,,,,,,,,,,,,,,,,,,,,,,60ff9740c0716986284c41b3,61036cd27c0fb30bf3dedca8,2021-07-30_05h07.31.756,Simcolourproject_2stim_asymm_v5,2020.2.10,Win32,60,61025ae37ef11b136ea224fe,,,,,,,,,1015,86,46,1,0,0,response1disk,,6,2,-19,1,0,0,rectangle,2,-19,1,0,0,2,-19,1,0,0,1,126,286,68,1,,,,,,,,
,,,,,,,,,,,,,FF,,,,,,,,0.9,,,,,,,,,,,,,,,,,,,,,,60ff9740c0716986284c41b3,61036cd27c0fb30bf3dedca8,2021-07-30_05h07.31.756,Simcolourproject_2stim_asymm_v5,2020.2.10,Win32,60,61025ae37ef11b136ea224fe,,,,,,,,,4009,41,88,1,0,0,response1disk,,7,10,-19,1,0,0,rectangle,10,-19,1,0,0,10,-19,1,0,0,1,127,287,41,1,,,,,,,,
,,,,,,,,,,,,,FF,,,,,,,,1.6665,,,,,,,,,,,,,,,,,,,,,,60ff9740c0716986284c41b3,61036cd27c0fb30bf3dedca8,2021-07-30_05h07.31.756,Simcolourproject_2stim_asymm_v5,2020.2.10,Win32,60,61025ae37ef11b136ea224fe,,,,,,,,,770,76,42,1,0,0,response1disk,,6,22,3,1,0,0,rectangle,22,3,1,0,0,22,3,1,0,0,1,128,288,34,1,,,,,,,,
,,,,,,,,,,,,,FF,,,,,,,,0.6166,,,,,,,,,,,,,,,,,,,,,,60ff9740c0716986284c41b3,61036cd27c0fb30bf3dedca8,2021-07-30_05h07.31.756,Simcolourproject_2stim_asymm_v5,2020.2.10,Win32,60,61025ae37ef11b136ea224fe,,,,,,,,,958,84,56,1,0,0,response1disk,,6,5,2,1,0,0,rectangle,5,2,1,0,0,5,2,1,0,0,1,129,289,87,1,,,,,,,,
,,,,,,,,,,,,,FF,,,,,,,,1.6331,,,,,,,,,,,,,,,,,,,,,,60ff9740c0716986284c41b3,61036cd27c0fb30bf3dedca8,2021-07-30_05h07.31.756,Simcolourproject_2stim_asymm_v5,2020.2.10,Win32,60,61025ae37ef11b136ea224fe,,,,,,,,,264,-32,-61,1,0,0,response5disk,,3,-5,-14,1,0,0,rectangle,-5,-14,1,0,0,-5,-14,1,0,0,1,130,290,97,1,,,,,,,,
,,,,,,,,,,,,,FF,,,,,,,,1.2831,,,,,,,,,,,,,,,,,,,,,,60ff9740c0716986284c41b3,61036cd27c0fb30bf3dedca8,2021-07-30_05h07.31.756,Simcolourproject_2stim_asymm_v5,2020.2.10,Win32,60,61025ae37ef11b136ea224fe,,,,,,,,,857,35,-59,1,0,0,response3disk,,4,4,-8,1,0,0,rectangle,-99,41,1,0,0,-2,5,1,0,0,1,131,291,125,1,,response7disk_3,TRUE,1,1,"[92,311,228,10,242,212,47,108,292,119,247,175,201,30,250,91,128,0,65,179]",1.5332,rectangle
,,,,,,,,,,,,,FF,,,,,,,,0.9832,,,,,,,,,,,,,,,,,,,,,,60ff9740c0716986284c41b3,61036cd27c0fb30bf3dedca8,2021-07-30_05h07.31.756,Simcolourproject_2stim_asymm_v5,2020.2.10,Win32,60,61025ae37ef11b136ea224fe,,,,,,,,,1250,32,-60,1,0,0,response3disk,,4,-6,-11,1,0,0,rectangle,-6,-11,1,0,0,-6,-11,1,0,0,1,132,292,114,1,,,,,,,,
,,,,,,,,,,,,,FF,,,,,,,,0.8499,,,,,,,,,,,,,,,,,,,,,,60ff9740c0716986284c41b3,61036cd27c0fb30bf3dedca8,2021-07-30_05h07.31.756,Simcolourproject_2stim_asymm_v5,2020.2.10,Win32,60,61025ae37ef11b136ea224fe,,,,,,,,,330,55,82,1,0,0,response1disk,,7,18,6,1,0,0,rectangle,18,6,1,0,0,18,6,1,0,0,1,133,293,57,1,,,,,,,,
,,,,,,,,,,,,,FF,,,,,,,,1.3665,,,,,,,,,,,,,,,,,,,,,,60ff9740c0716986284c41b3,61036cd27c0fb30bf3dedca8,2021-07-30_05h07.31.756,Simcolourproject_2stim_asymm_v5,2020.2.10,Win32,60,61025ae37ef11b136ea224fe,,,,,,,,,1568,35,-51,1,0,0,response3disk,,4,3,8,1,0,0,rectangle,3,8,1,0,0,3,8,1,0,0,1,134,294,159,1,,,,,,,,
,,,,,,,,,,,,,FF,,,,,,,,1.7329,,,,,,,,,,,,,,,,,,,,,,60ff9740c0716986284c41b3,61036cd27c0fb30bf3dedca8,2021-07-30_05h07.31.756,Simcolourproject_2stim_asymm_v5,2020.2.10,Win32,60,61025ae37ef11b136ea224fe,,,,,,,,,2438,43,86,1,0,0,response1disk,,7,14,-3,1,0,0,rectangle,14,-3,1,0,0,14,-3,1,0,0,1,135,295,1,1,,,,,,,,
,,,,,,,,,,,,,FF,,,,,,,,0.9167,,,,,,,,,,,,,,,,,,,,,,60ff9740c0716986284c41b3,61036cd27c0fb30bf3dedca8,2021-07-30_05h07.31.756,Simcolourproject_2stim_asymm_v5,2020.2.10,Win32,60,61025ae37ef11b136ea224fe,,,,,,,,,3412,51,83,1,0,0,response1disk,,7,18,-8,1,0,0,rectangle,18,-8,1,0,0,18,-8,1,0,0,1,136,296,30,1,,,,,,,,
,,,,,,,,,,,,,FF,,,,,,,,0.9167,,,,,,,,,,,,,,,,,,,,,,60ff9740c0716986284c41b3,61036cd27c0fb30bf3dedca8,2021-07-30_05h07.31.756,Simcolourproject_2stim_asymm_v5,2020.2.10,Win32,60,61025ae37ef11b136ea224fe,,,,,,,,,3718,40,77,1,0,0,response1disk,,7,-9,-2,1,0,0,rectangle,-9,-2,1,0,0,-9,-2,1,0,0,1,137,297,139,1,,,,,,,,
,,,,,,,,,,,,,FF,,,,,,,,0.8999,,,,,,,,,,,,,,,,,,,,,,60ff9740c0716986284c41b3,61036cd27c0fb30bf3dedca8,2021-07-30_05h07.31.756,Simcolourproject_2stim_asymm_v5,2020.2.10,Win32,60,61025ae37ef11b136ea224fe,,,,,,,,,3110,32,59,1,0,0,response1disk,,7,11,17,1,0,0,rectangle,11,17,1,0,0,11,17,1,0,0,1,138,298,146,1,,,,,,,,
,,,,,,,,,,,,,FF,,,,,,,,0.8662,,,,,,,,,,,,,,,,,,,,,,60ff9740c0716986284c41b3,61036cd27c0fb30bf3dedca8,2021-07-30_05h07.31.756,Simcolourproject_2stim_asymm_v5,2020.2.10,Win32,60,61025ae37ef11b136ea224fe,,,,,,,,,4069,102,40,1,0,0,response1disk,,6,1,-4,1,0,0,rectangle,1,-4,1,0,0,1,-4,1,0,0,1,139,299,29,1,,,,,,,,
,,,,,,,,,,,,,FF,,,,,,,,0.8165,,,,,,,,,,,,,,,,,,,,,,60ff9740c0716986284c41b3,61036cd27c0fb30bf3dedca8,2021-07-30_05h07.31.756,Simcolourproject_2stim_asymm_v5,2020.2.10,Win32,60,61025ae37ef11b136ea224fe,,,,,,,,,3000,-68,-39,1,0,0,response5disk,,2,8,3,1,0,0,rectangle,8,3,1,0,0,8,3,1,0,0,1,140,300,21,1,,,,,,,,
,,,,,,,,,,,,,FF,,,,,,,,0.8667,,,,,,,,,,,,,,,,,,,,,,60ff9740c0716986284c41b3,61036cd27c0fb30bf3dedca8,2021-07-30_05h07.31.756,Simcolourproject_2stim_asymm_v5,2020.2.10,Win32,60,61025ae37ef11b136ea224fe,,,,,,,,,3156,-32,-56,1,0,0,response5disk,,3,31,10,1,0,0,rectangle,31,10,1,0,0,31,10,1,0,0,1,141,301,43,1,,,,,,,,
,,,,,,,,,,,,,FF,,,,,,,,1.4162,,,,,,,,,,,,,,,,,,,,,,60ff9740c0716986284c41b3,61036cd27c0fb30bf3dedca8,2021-07-30_05h07.31.756,Simcolourproject_2stim_asymm_v5,2020.2.10,Win32,60,61025ae37ef11b136ea224fe,,,,,,,,,656,66,38,1,0,0,response1disk,,6,8,2,1,0,0,rectangle,8,2,1,0,0,8,2,1,0,0,1,142,302,155,1,,,,,,,,
