key_resp.keys,key_resp.rt,key_resp_14.keys,key_resp_14.rt,key_resp_15.keys,key_resp_15.rt,key_resp_17.keys,key_resp_17.rt,key_resp_9.keys,key_resp_9.rt,key_resp_10.keys,key_resp_10.rt,practice_comparison,Ecc,mouse_5.x,mouse_5.y,mouse_5.leftButton,mouse_5.midButton,mouse_5.rightButton,mouse_5.clicked_name,pracsimilarity,response_time,mouse_10.x,mouse_10.y,mouse_10.leftButton,mouse_10.midButton,mouse_10.rightButton,mouse_10.clicked_name,mouse_7.x,mouse_7.y,mouse_7.leftButton,mouse_7.midButton,mouse_7.rightButton,mouse_6.x,mouse_6.y,mouse_6.leftButton,mouse_6.midButton,mouse_6.rightButton,duringprac.thisRepN,duringprac.thisTrialN,duringprac.thisN,duringprac.thisIndex,duringprac.ran,participant,session,date,expName,psychopyVersion,OS,frameRate,study_id,mouse_7.clicked_name,catchpracsimilarity,catch_response_time,catchnumberprac,catchtrialorderprac,mouse_6.clicked_name,key_resp_22.keys,key_resp_22.rt,realcomparison,mouse.x,mouse.y,mouse.leftButton,mouse.midButton,mouse.rightButton,mouse.clicked_name,Colour2,similarity,mouse_2.x,mouse_2.y,mouse_2.leftButton,mouse_2.midButton,mouse_2.rightButton,mouse_2.clicked_name,mouse_3.x,mouse_3.y,mouse_3.leftButton,mouse_3.midButton,mouse_3.rightButton,mouse_11.x,mouse_11.y,mouse_11.leftButton,mouse_11.midButton,mouse_11.rightButton,trials_2.thisRepN,trials_2.thisTrialN,trials_2.thisN,trials_2.thisIndex,trials_2.ran,Colour1,mouse_3.clicked_name,catchornah,catchsimilarity,catchnumber,catchtrialorder,catchRT,mouse_11.clicked_name
space,0.97,space,10.4583,space,9.4941,space,6.0956,space,2.016,space,4.6487,139,PF,42.40001208,93.59999496,1,0,0,response1disk_5,7,8.7654,4.000011504,4.799993634,1,0,0,rectangle_8,4.000011504,4.799993634,1,0,0,4.000011504,4.799993634,1,0,0,0,0,0,2,1,60ff13e4113921388277a1a7,61036cf95c6680df8f8c5d13,2021-07-29_22h08.41.743,Simcolourproject_2stim_asymm_v5,2020.2.10,Win32,60,61025ae37ef11b136ea224fe,,,,,,,,,,,,,,,,,,,,,,,,,,,,,,,,,,,,,,,,,,,,,,
,,,,,,,,,,,,130,PF,-30.39994018,-118.4000082,1,0,0,response5disk_5,3,2.1849,-6.399939823,11.99999374,1,0,0,rectangle_8,89.60001278,-35.20000696,1,0,0,-6.399939823,-6.4373E-06,1,0,0,0,1,1,6,1,60ff13e4113921388277a1a7,61036cf95c6680df8f8c5d13,2021-07-29_22h08.41.743,Simcolourproject_2stim_asymm_v5,2020.2.10,Win32,60,61025ae37ef11b136ea224fe,response3disk_7,5,3.6899,5,"[2,5]",rectangle_4,,,,,,,,,,,,,,,,,,,,,,,,,,,,,,,,,,,,,,,,
,,,,,,,,,,,,14,FF,24.0000118,-76.80000758,1,0,0,response3disk_5,4,3.5388,-1.59998858,9.599993706,1,0,0,rectangle_8,-1.59998858,9.599993706,1,0,0,-1.59998858,9.599993706,1,0,0,0,2,2,3,1,60ff13e4113921388277a1a7,61036cf95c6680df8f8c5d13,2021-07-29_22h08.41.743,Simcolourproject_2stim_asymm_v5,2020.2.10,Win32,60,61025ae37ef11b136ea224fe,,,,,,,,,,,,,,,,,,,,,,,,,,,,,,,,,,,,,,,,,,,,,,
,,,,,,,,,,,,55,PF,32.00001192,91.19997051,1,0,0,response1disk_5,7,1.9438,-16.79998881,-6.400006533,1,0,0,rectangle_8,-16.79998881,-6.400006533,1,0,0,-16.79998881,-6.400006533,1,0,0,0,3,3,4,1,60ff13e4113921388277a1a7,61036cf95c6680df8f8c5d13,2021-07-29_22h08.41.743,Simcolourproject_2stim_asymm_v5,2020.2.10,Win32,60,61025ae37ef11b136ea224fe,,,,,,,,,,,,,,,,,,,,,,,,,,,,,,,,,,,,,,,,,,,,,,
,,,,,,,,,,,,89,FF,42.40001208,113.5999953,1,0,0,response1disk_5,7,1.3671,-9.599988699,-7.200006545,1,0,0,rectangle_8,100.0000129,-50.40000719,1,0,0,-5.599988639,7.19999367,1,0,0,0,4,4,0,1,60ff13e4113921388277a1a7,61036cf95c6680df8f8c5d13,2021-07-29_22h08.41.743,Simcolourproject_2stim_asymm_v5,2020.2.10,Win32,60,61025ae37ef11b136ea224fe,response3disk_7,5,1.8865,5,"[2,5]",rectangle_4,,,,,,,,,,,,,,,,,,,,,,,,,,,,,,,,,,,,,,,,
,,,,,,,,,,,,106,FF,48.80001217,95.99999499,1,0,0,response1disk_5,7,2.0597,-1.59998858,-6.4373E-06,1,0,0,rectangle_8,-1.59998858,-6.4373E-06,1,0,0,-1.59998858,-6.4373E-06,1,0,0,0,5,5,5,1,60ff13e4113921388277a1a7,61036cf95c6680df8f8c5d13,2021-07-29_22h08.41.743,Simcolourproject_2stim_asymm_v5,2020.2.10,Win32,60,61025ae37ef11b136ea224fe,,,,,,,,,,,,,,,,,,,,,,,,,,,,,,,,,,,,,,,,,,,,,,
,,,,,,,,,,,,101,PF,61.60001236,-88.80000776,1,0,0,response3disk_5,4,2.1004,-4.799988627,4.799993634,1,0,0,rectangle_8,-4.799988627,4.799993634,1,0,0,-4.799988627,4.799993634,1,0,0,0,6,6,1,1,60ff13e4113921388277a1a7,61036cf95c6680df8f8c5d13,2021-07-29_22h08.41.743,Simcolourproject_2stim_asymm_v5,2020.2.10,Win32,60,61025ae37ef11b136ea224fe,,,,,,,,,,,,,,,,,,,,,,,,,,,,,,,,,,,,,,,,,,,,,,
,,,,,,,,,,,,,FF,,,,,,,,1.7345,,,,,,,,,,,,,,,,,,,,,,60ff13e4113921388277a1a7,61036cf95c6680df8f8c5d13,2021-07-29_22h08.41.743,Simcolourproject_2stim_asymm_v5,2020.2.10,Win32,60,61025ae37ef11b136ea224fe,,,,,,,space,3.2195,2164,-93.59998995,-27.20000684,1,0,0,response5disk,,2,-11.99998873,-4.000006497,1,0,0,rectangle,-11.99998873,-4.000006497,1,0,0,-11.99998873,-4.000006497,1,0,0,0,0,0,26,1,,,,,,,,
,,,,,,,,,,,,,FF,,,,,,,,1.2464,,,,,,,,,,,,,,,,,,,,,,60ff13e4113921388277a1a7,61036cf95c6680df8f8c5d13,2021-07-29_22h08.41.743,Simcolourproject_2stim_asymm_v5,2020.2.10,Win32,60,61025ae37ef11b136ea224fe,,,,,,,,,1984,45.60006095,-35.20000696,1,0,0,response3disk,,5,-8.799988687,-4.000006497,1,0,0,rectangle,-8.799988687,-4.000006497,1,0,0,-8.799988687,-4.000006497,1,0,0,0,1,1,74,1,,,,,,,,
,,,,,,,,,,,,,FF,,,,,,,,2.6376,,,,,,,,,,,,,,,,,,,,,,60ff13e4113921388277a1a7,61036cf95c6680df8f8c5d13,2021-07-29_22h08.41.743,Simcolourproject_2stim_asymm_v5,2020.2.10,Win32,60,61025ae37ef11b136ea224fe,,,,,,,,,1387,47.20001215,-93.60005666,1,0,0,response3disk,,4,-13.59998876,2.399993598,1,0,0,rectangle,-13.59998876,2.399993598,1,0,0,-13.59998876,2.399993598,1,0,0,0,2,2,24,1,,,,,,,,
,,,,,,,,,,,,,FF,,,,,,,,3.4994,,,,,,,,,,,,,,,,,,,,,,60ff13e4113921388277a1a7,61036cf95c6680df8f8c5d13,2021-07-29_22h08.41.743,Simcolourproject_2stim_asymm_v5,2020.2.10,Win32,60,61025ae37ef11b136ea224fe,,,,,,,,,1095,38.40001202,104.7999951,1,0,0,response1disk,,7,-4.799988627,-3.200006485,1,0,0,rectangle,-4.799988627,-3.200006485,1,0,0,-4.799988627,-3.200006485,1,0,0,0,3,3,100,1,,,,,,,,
,,,,,,,,,,,,,FF,,,,,,,,2.1357,,,,,,,,,,,,,,,,,,,,,,60ff13e4113921388277a1a7,61036cf95c6680df8f8c5d13,2021-07-29_22h08.41.743,Simcolourproject_2stim_asymm_v5,2020.2.10,Win32,60,61025ae37ef11b136ea224fe,,,,,,,,,4346,-75.99998969,-31.2000069,1,0,0,response5disk,,2,4.000011504,-6.4373E-06,1,0,0,rectangle,-55.99998939,-109.6000569,1,0,0,2.40001148,3.999993622,1,0,0,0,4,4,7,1,,response5disk_3,TRUE,3,3,"[290,73,112,43,0,54,27,154,181,297,310,86,80,38,136,269,5,140,0,220]",2.4815,rectangle
,,,,,,,,,,,,,FF,,,,,,,,2.2033,,,,,,,,,,,,,,,,,,,,,,60ff13e4113921388277a1a7,61036cf95c6680df8f8c5d13,2021-07-29_22h08.41.743,Simcolourproject_2stim_asymm_v5,2020.2.10,Win32,60,61025ae37ef11b136ea224fe,,,,,,,,,2212,-46.39994042,-122.4000083,1,0,0,response5disk,,3,1.14441E-05,-3.200006485,1,0,0,rectangle,1.14441E-05,-3.200006485,1,0,0,1.14441E-05,-3.200006485,1,0,0,0,5,5,115,1,,,,,,,,
,,,,,,,,,,,,,FF,,,,,,,,2.6144,,,,,,,,,,,,,,,,,,,,,,60ff13e4113921388277a1a7,61036cf95c6680df8f8c5d13,2021-07-29_22h08.41.743,Simcolourproject_2stim_asymm_v5,2020.2.10,Win32,60,61025ae37ef11b136ea224fe,,,,,,,,,4155,124.8000133,45.59999424,1,0,0,response1disk,,6,-1.59998858,-1.600006461,1,0,0,rectangle,-1.59998858,-1.600006461,1,0,0,-1.59998858,-1.600006461,1,0,0,0,6,6,14,1,,,,,,,,
,,,,,,,,,,,,,FF,,,,,,,,1.8539,,,,,,,,,,,,,,,,,,,,,,60ff13e4113921388277a1a7,61036cf95c6680df8f8c5d13,2021-07-29_22h08.41.743,Simcolourproject_2stim_asymm_v5,2020.2.10,Win32,60,61025ae37ef11b136ea224fe,,,,,,,,,3907,-103.1999901,-47.20000714,1,0,0,response5disk,,2,3.200011492,11.99999374,1,0,0,rectangle,3.200011492,11.99999374,1,0,0,3.200011492,11.99999374,1,0,0,0,7,7,69,1,,,,,,,,
,,,,,,,,,,,,,FF,,,,,,,,1.9497,,,,,,,,,,,,,,,,,,,,,,60ff13e4113921388277a1a7,61036cf95c6680df8f8c5d13,2021-07-29_22h08.41.743,Simcolourproject_2stim_asymm_v5,2020.2.10,Win32,60,61025ae37ef11b136ea224fe,,,,,,,,,1535,92.00001281,-55.20000726,1,0,0,response3disk,,5,-0.799988568,11.99999374,1,0,0,rectangle,-0.799988568,11.99999374,1,0,0,-0.799988568,11.99999374,1,0,0,0,8,8,141,1,,,,,,,,
,,,,,,,,,,,,,FF,,,,,,,,1.5183,,,,,,,,,,,,,,,,,,,,,,60ff13e4113921388277a1a7,61036cf95c6680df8f8c5d13,2021-07-29_22h08.41.743,Simcolourproject_2stim_asymm_v5,2020.2.10,Win32,60,61025ae37ef11b136ea224fe,,,,,,,,,3981,-25.59998894,-75.20000756,1,0,0,response5disk,,3,5.600060356,0.799993575,1,0,0,rectangle,5.600060356,0.799993575,1,0,0,5.600060356,0.799993575,1,0,0,0,9,9,6,1,,,,,,,,
,,,,,,,,,,,,,FF,,,,,,,,2.8961,,,,,,,,,,,,,,,,,,,,,,60ff13e4113921388277a1a7,61036cf95c6680df8f8c5d13,2021-07-29_22h08.41.743,Simcolourproject_2stim_asymm_v5,2020.2.10,Win32,60,61025ae37ef11b136ea224fe,,,,,,,,,3448,-69.59998959,-86.40000772,1,0,0,response5disk,,3,-1.59998858,-4.000006497,1,0,0,rectangle,-1.59998858,-4.000006497,1,0,0,-1.59998858,-4.000006497,1,0,0,0,10,10,71,1,,,,,,,,
,,,,,,,,,,,,,FF,,,,,,,,2.75,,,,,,,,,,,,,,,,,,,,,,60ff13e4113921388277a1a7,61036cf95c6680df8f8c5d13,2021-07-29_22h08.41.743,Simcolourproject_2stim_asymm_v5,2020.2.10,Win32,60,61025ae37ef11b136ea224fe,,,,,,,,,797,72.00001252,69.5999946,1,0,0,response1disk,,6,-1.59998858,-7.200006545,1,0,0,rectangle,-1.59998858,-7.200006545,1,0,0,-1.59998858,-7.200006545,1,0,0,0,11,11,5,1,,,,,,,,
,,,,,,,,,,,,,FF,,,,,,,,1.983,,,,,,,,,,,,,,,,,,,,,,60ff13e4113921388277a1a7,61036cf95c6680df8f8c5d13,2021-07-29_22h08.41.743,Simcolourproject_2stim_asymm_v5,2020.2.10,Win32,60,61025ae37ef11b136ea224fe,,,,,,,,,2364,-88.79998988,-51.2000072,1,0,0,response5disk,,2,6.400011539,-6.4373E-06,1,0,0,rectangle,6.400011539,-6.4373E-06,1,0,0,6.400011539,-6.4373E-06,1,0,0,0,12,12,1,1,,,,,,,,
,,,,,,,,,,,,,FF,,,,,,,,1.0999,,,,,,,,,,,,,,,,,,,,,,60ff13e4113921388277a1a7,61036cf95c6680df8f8c5d13,2021-07-29_22h08.41.743,Simcolourproject_2stim_asymm_v5,2020.2.10,Win32,60,61025ae37ef11b136ea224fe,,,,,,,,,627,44.80001211,97.59999502,1,0,0,response1disk,,7,0.800011456,7.19999367,1,0,0,rectangle,0.800011456,7.19999367,1,0,0,0.800011456,7.19999367,1,0,0,0,13,13,145,1,,,,,,,,
,,,,,,,,,,,,,FF,,,,,,,,3.2686,,,,,,,,,,,,,,,,,,,,,,60ff13e4113921388277a1a7,61036cf95c6680df8f8c5d13,2021-07-29_22h08.41.743,Simcolourproject_2stim_asymm_v5,2020.2.10,Win32,60,61025ae37ef11b136ea224fe,,,,,,,,,4047,-51.19998932,-108.8000081,1,0,0,response5disk,,3,-1.59998858,2.399993598,1,0,0,rectangle,-1.59998858,2.399993598,1,0,0,-1.59998858,2.399993598,1,0,0,0,14,14,85,1,,,,,,,,
,,,,,,,,,,,,,FF,,,,,,,,1.5166,,,,,,,,,,,,,,,,,,,,,,60ff13e4113921388277a1a7,61036cf95c6680df8f8c5d13,2021-07-29_22h08.41.743,Simcolourproject_2stim_asymm_v5,2020.2.10,Win32,60,61025ae37ef11b136ea224fe,,,,,,,,,253,-74.39994084,-21.60000676,1,0,0,response5disk,,2,2.40001148,11.19999373,1,0,0,rectangle,2.40001148,11.19999373,1,0,0,2.40001148,11.19999373,1,0,0,0,15,15,19,1,,,,,,,,
,,,,,,,,,,,,,FF,,,,,,,,3.9339,,,,,,,,,,,,,,,,,,,,,,60ff13e4113921388277a1a7,61036cf95c6680df8f8c5d13,2021-07-29_22h08.41.743,Simcolourproject_2stim_asymm_v5,2020.2.10,Win32,60,61025ae37ef11b136ea224fe,,,,,,,,,4290,43.20001209,-95.20000786,1,0,0,response3disk,,4,-4.799988627,12.79999375,1,0,0,rectangle,-4.799988627,12.79999375,1,0,0,-4.799988627,12.79999375,1,0,0,0,16,16,132,1,,,,,,,,
,,,,,,,,,,,,,FF,,,,,,,,1.7662,,,,,,,,,,,,,,,,,,,,,,60ff13e4113921388277a1a7,61036cf95c6680df8f8c5d13,2021-07-29_22h08.41.743,Simcolourproject_2stim_asymm_v5,2020.2.10,Win32,60,61025ae37ef11b136ea224fe,,,,,,,,,606,-83.99998981,-44.00000709,1,0,0,response5disk,,2,9.600060415,7.999993682,1,0,0,rectangle,9.600060415,7.999993682,1,0,0,9.600060415,7.999993682,1,0,0,0,17,17,86,1,,,,,,,,
,,,,,,,,,,,,,FF,,,,,,,,1.2998,,,,,,,,,,,,,,,,,,,,,,60ff13e4113921388277a1a7,61036cf95c6680df8f8c5d13,2021-07-29_22h08.41.743,Simcolourproject_2stim_asymm_v5,2020.2.10,Win32,60,61025ae37ef11b136ea224fe,,,,,,,,,1492,32.00001192,88.79999489,1,0,0,response1disk,,7,-16.79998881,9.599993706,1,0,0,rectangle,-16.79998881,9.599993706,1,0,0,-16.79998881,9.599993706,1,0,0,0,18,18,137,1,,,,,,,,
,,,,,,,,,,,,,FF,,,,,,,,1.1832,,,,,,,,,,,,,,,,,,,,,,60ff13e4113921388277a1a7,61036cf95c6680df8f8c5d13,2021-07-29_22h08.41.743,Simcolourproject_2stim_asymm_v5,2020.2.10,Win32,60,61025ae37ef11b136ea224fe,,,,,,,,,3164,56.80001229,-76.80000758,1,0,0,response3disk,,4,-9.599988699,11.99999374,1,0,0,rectangle,-9.599988699,11.99999374,1,0,0,-9.599988699,11.99999374,1,0,0,0,19,19,134,1,,,,,,,,
,,,,,,,,,,,,,FF,,,,,,,,1.2666,,,,,,,,,,,,,,,,,,,,,,60ff13e4113921388277a1a7,61036cf95c6680df8f8c5d13,2021-07-29_22h08.41.743,Simcolourproject_2stim_asymm_v5,2020.2.10,Win32,60,61025ae37ef11b136ea224fe,,,,,,,,,4189,-76.7999897,-41.60000706,1,0,0,response5disk,,2,-1.59998858,-3.200006485,1,0,0,rectangle,-1.59998858,-3.200006485,1,0,0,-1.59998858,-3.200006485,1,0,0,0,20,20,83,1,,,,,,,,
,,,,,,,,,,,,,FF,,,,,,,,2.0498,,,,,,,,,,,,,,,,,,,,,,60ff13e4113921388277a1a7,61036cf95c6680df8f8c5d13,2021-07-29_22h08.41.743,Simcolourproject_2stim_asymm_v5,2020.2.10,Win32,60,61025ae37ef11b136ea224fe,,,,,,,,,1336,40.00001204,83.19997039,1,0,0,response1disk,,7,5.600060356,-4.000006497,1,0,0,rectangle,5.600060356,-4.000006497,1,0,0,5.600060356,-4.000006497,1,0,0,0,21,21,45,1,,,,,,,,
,,,,,,,,,,,,,FF,,,,,,,,1.2831,,,,,,,,,,,,,,,,,,,,,,60ff13e4113921388277a1a7,61036cf95c6680df8f8c5d13,2021-07-29_22h08.41.743,Simcolourproject_2stim_asymm_v5,2020.2.10,Win32,60,61025ae37ef11b136ea224fe,,,,,,,,,2958,102.400013,26.39999396,1,0,0,response1disk,,6,0.800011456,-4.000006497,1,0,0,rectangle,0.800011456,-4.000006497,1,0,0,0.800011456,-4.000006497,1,0,0,0,22,22,22,1,,,,,,,,
,,,,,,,,,,,,,FF,,,,,,,,0.8499,,,,,,,,,,,,,,,,,,,,,,60ff13e4113921388277a1a7,61036cf95c6680df8f8c5d13,2021-07-29_22h08.41.743,Simcolourproject_2stim_asymm_v5,2020.2.10,Win32,60,61025ae37ef11b136ea224fe,,,,,,,,,2335,27.20001185,95.99999499,1,0,0,response1disk,,7,-14.39993994,-16.80000669,1,0,0,rectangle,-14.39993994,-16.80000669,1,0,0,-14.39993994,-16.80000669,1,0,0,0,23,23,62,1,,,,,,,,
,,,,,,,,,,,,,FF,,,,,,,,1.1831,,,,,,,,,,,,,,,,,,,,,,60ff13e4113921388277a1a7,61036cf95c6680df8f8c5d13,2021-07-29_22h08.41.743,Simcolourproject_2stim_asymm_v5,2020.2.10,Win32,60,61025ae37ef11b136ea224fe,,,,,,,,,799,29.60006071,71.19997021,1,0,0,response1disk,,7,-0.799988568,15.19999379,1,0,0,rectangle,-0.799988568,15.19999379,1,0,0,-0.799988568,15.19999379,1,0,0,0,24,24,157,1,,,,,,,,
,,,,,,,,,,,,,FF,,,,,,,,1.404,,,,,,,,,,,,,,,,,,,,,,60ff13e4113921388277a1a7,61036cf95c6680df8f8c5d13,2021-07-29_22h08.41.743,Simcolourproject_2stim_asymm_v5,2020.2.10,Win32,60,61025ae37ef11b136ea224fe,,,,,,,,,3036,45.60006095,-83.20000768,1,0,0,response3disk,,4,-0.799988568,-2.400006473,1,0,0,rectangle,-0.799988568,-2.400006473,1,0,0,-0.799988568,-2.400006473,1,0,0,0,25,25,95,1,,,,,,,,
,,,,,,,,,,,,,FF,,,,,,,,1.2497,,,,,,,,,,,,,,,,,,,,,,60ff13e4113921388277a1a7,61036cf95c6680df8f8c5d13,2021-07-29_22h08.41.743,Simcolourproject_2stim_asymm_v5,2020.2.10,Win32,60,61025ae37ef11b136ea224fe,,,,,,,,,3861,114.4000131,-36.80000699,1,0,0,response3disk,,5,9.600060415,-2.400006473,1,0,0,rectangle,92.00001281,62.39999449,1,0,0,-1.59998858,10.39999372,1,0,0,0,26,26,113,1,,response1disk_3,TRUE,6,6,"[290,73,112,43,0,54,27,154,181,297,310,86,80,38,136,269,5,140,0,220]",2.0712,rectangle
,,,,,,,,,,,,,FF,,,,,,,,1.6878,,,,,,,,,,,,,,,,,,,,,,60ff13e4113921388277a1a7,61036cf95c6680df8f8c5d13,2021-07-29_22h08.41.743,Simcolourproject_2stim_asymm_v5,2020.2.10,Win32,60,61025ae37ef11b136ea224fe,,,,,,,,,610,84.0000127,-59.20000732,1,0,0,response3disk,,5,3.200011492,7.19999367,1,0,0,rectangle,3.200011492,7.19999367,1,0,0,3.200011492,7.19999367,1,0,0,0,27,27,128,1,,,,,,,,
,,,,,,,,,,,,,FF,,,,,,,,1.7372,,,,,,,,,,,,,,,,,,,,,,60ff13e4113921388277a1a7,61036cf95c6680df8f8c5d13,2021-07-29_22h08.41.743,Simcolourproject_2stim_asymm_v5,2020.2.10,Win32,60,61025ae37ef11b136ea224fe,,,,,,,,,1863,36.80001199,99.19997063,1,0,0,response1disk,,7,-15.99998879,-2.400006473,1,0,0,rectangle,-15.99998879,-2.400006473,1,0,0,-15.99998879,-2.400006473,1,0,0,0,28,28,61,1,,,,,,,,
,,,,,,,,,,,,,FF,,,,,,,,1.7463,,,,,,,,,,,,,,,,,,,,,,60ff13e4113921388277a1a7,61036cf95c6680df8f8c5d13,2021-07-29_22h08.41.743,Simcolourproject_2stim_asymm_v5,2020.2.10,Win32,60,61025ae37ef11b136ea224fe,,,,,,,,,2813,89.60001278,44.79999423,1,0,0,response1disk,,6,-5.599988639,4.799993634,1,0,0,rectangle,-5.599988639,4.799993634,1,0,0,-5.599988639,4.799993634,1,0,0,0,29,29,54,1,,,,,,,,
,,,,,,,,,,,,,FF,,,,,,,,1.838,,,,,,,,,,,,,,,,,,,,,,60ff13e4113921388277a1a7,61036cf95c6680df8f8c5d13,2021-07-29_22h08.41.743,Simcolourproject_2stim_asymm_v5,2020.2.10,Win32,60,61025ae37ef11b136ea224fe,,,,,,,,,3445,35.20001197,91.19997051,1,0,0,response1disk,,7,-1.59998858,-6.4373E-06,1,0,0,rectangle,-1.59998858,-6.4373E-06,1,0,0,-1.59998858,-6.4373E-06,1,0,0,0,30,30,156,1,,,,,,,,
,,,,,,,,,,,,,FF,,,,,,,,1.7534,,,,,,,,,,,,,,,,,,,,,,60ff13e4113921388277a1a7,61036cf95c6680df8f8c5d13,2021-07-29_22h08.41.743,Simcolourproject_2stim_asymm_v5,2020.2.10,Win32,60,61025ae37ef11b136ea224fe,,,,,,,,,1278,-40.79998916,-93.60005666,1,0,0,response5disk,,3,-8.799988687,0.799993575,1,0,0,rectangle,-8.799988687,0.799993575,1,0,0,-8.799988687,0.799993575,1,0,0,0,31,31,75,1,,,,,,,,
,,,,,,,,,,,,,FF,,,,,,,,1.5635,,,,,,,,,,,,,,,,,,,,,,60ff13e4113921388277a1a7,61036cf95c6680df8f8c5d13,2021-07-29_22h08.41.743,Simcolourproject_2stim_asymm_v5,2020.2.10,Win32,60,61025ae37ef11b136ea224fe,,,,,,,,,3031,24.0000118,85.59999484,1,0,0,response1disk,,7,1.14441E-05,3.19999361,1,0,0,rectangle,1.14441E-05,3.19999361,1,0,0,1.14441E-05,3.19999361,1,0,0,0,32,32,12,1,,,,,,,,
,,,,,,,,,,,,,FF,,,,,,,,3.8139,,,,,,,,,,,,,,,,,,,,,,60ff13e4113921388277a1a7,61036cf95c6680df8f8c5d13,2021-07-29_22h08.41.743,Simcolourproject_2stim_asymm_v5,2020.2.10,Win32,60,61025ae37ef11b136ea224fe,,,,,,,,,4106,-89.59998989,-54.40000725,1,0,0,response5disk,,2,1.600060296,0.799993575,1,0,0,rectangle,1.600060296,0.799993575,1,0,0,1.600060296,0.799993575,1,0,0,0,33,33,107,1,,,,,,,,
,,,,,,,,,,,,,FF,,,,,,,,1.3976,,,,,,,,,,,,,,,,,,,,,,60ff13e4113921388277a1a7,61036cf95c6680df8f8c5d13,2021-07-29_22h08.41.743,Simcolourproject_2stim_asymm_v5,2020.2.10,Win32,60,61025ae37ef11b136ea224fe,,,,,,,,,233,76.00001258,99.99999505,1,0,0,response1disk,,7,8.000011563,5.599993646,1,0,0,rectangle,8.000011563,5.599993646,1,0,0,8.000011563,5.599993646,1,0,0,0,34,34,66,1,,,,,,,,
,,,,,,,,,,,,,FF,,,,,,,,1.184,,,,,,,,,,,,,,,,,,,,,,60ff13e4113921388277a1a7,61036cf95c6680df8f8c5d13,2021-07-29_22h08.41.743,Simcolourproject_2stim_asymm_v5,2020.2.10,Win32,60,61025ae37ef11b136ea224fe,,,,,,,,,2342,77.6000126,28.79999399,1,0,0,response1disk,,6,1.14441E-05,0.799993575,1,0,0,rectangle,1.14441E-05,0.799993575,1,0,0,1.14441E-05,0.799993575,1,0,0,0,35,35,37,1,,,,,,,,
,,,,,,,,,,,,,FF,,,,,,,,2.3306,,,,,,,,,,,,,,,,,,,,,,60ff13e4113921388277a1a7,61036cf95c6680df8f8c5d13,2021-07-29_22h08.41.743,Simcolourproject_2stim_asymm_v5,2020.2.10,Win32,60,61025ae37ef11b136ea224fe,,,,,,,,,476,76.80001259,53.59999436,1,0,0,response1disk,,6,-5.599988639,0.799993575,1,0,0,rectangle,-5.599988639,0.799993575,1,0,0,-5.599988639,0.799993575,1,0,0,0,36,36,70,1,,,,,,,,
,,,,,,,,,,,,,FF,,,,,,,,4.2625,,,,,,,,,,,,,,,,,,,,,,60ff13e4113921388277a1a7,61036cf95c6680df8f8c5d13,2021-07-29_22h08.41.743,Simcolourproject_2stim_asymm_v5,2020.2.10,Win32,60,61025ae37ef11b136ea224fe,,,,,,,,,709,93.60001284,60.79999447,1,0,0,response1disk,,6,-4.799988627,1.599993587,1,0,0,rectangle,-110.3999414,43.99999422,1,0,0,-2.399939764,0.799993575,1,0,0,0,37,37,13,1,,response7disk_3,TRUE,1,1,"[290,73,112,43,0,54,27,154,181,297,310,86,80,38,136,269,5,140,0,220]",2.136,rectangle
,,,,,,,,,,,,,FF,,,,,,,,1.7358,,,,,,,,,,,,,,,,,,,,,,60ff13e4113921388277a1a7,61036cf95c6680df8f8c5d13,2021-07-29_22h08.41.743,Simcolourproject_2stim_asymm_v5,2020.2.10,Win32,60,61025ae37ef11b136ea224fe,,,,,,,,,1485,86.40001273,123.9999954,1,0,0,response1disk,,7,-5.599988639,5.599993646,1,0,0,rectangle,-5.599988639,5.599993646,1,0,0,-5.599988639,5.599993646,1,0,0,0,38,38,149,1,,,,,,,,
,,,,,,,,,,,,,FF,,,,,,,,2.1967,,,,,,,,,,,,,,,,,,,,,,60ff13e4113921388277a1a7,61036cf95c6680df8f8c5d13,2021-07-29_22h08.41.743,Simcolourproject_2stim_asymm_v5,2020.2.10,Win32,60,61025ae37ef11b136ea224fe,,,,,,,,,2654,50.4000122,-90.40000778,1,0,0,response3disk,,4,7.200011551,7.999993682,1,0,0,rectangle,7.200011551,7.999993682,1,0,0,7.200011551,7.999993682,1,0,0,0,39,39,11,1,,,,,,,,
,,,,,,,,,,,,,FF,,,,,,,,1.4187,,,,,,,,,,,,,,,,,,,,,,60ff13e4113921388277a1a7,61036cf95c6680df8f8c5d13,2021-07-29_22h08.41.743,Simcolourproject_2stim_asymm_v5,2020.2.10,Win32,60,61025ae37ef11b136ea224fe,,,,,,,,,3615,41.60006089,88.79999489,1,0,0,response1disk,,7,7.200011551,7.19999367,1,0,0,rectangle,7.200011551,7.19999367,1,0,0,7.200011551,7.19999367,1,0,0,0,40,40,81,1,,,,,,,,
,,,,,,,,,,,,,FF,,,,,,,,5.0537,,,,,,,,,,,,,,,,,,,,,,60ff13e4113921388277a1a7,61036cf95c6680df8f8c5d13,2021-07-29_22h08.41.743,Simcolourproject_2stim_asymm_v5,2020.2.10,Win32,60,61025ae37ef11b136ea224fe,,,,,,,,,1528,52.00001222,-91.2000078,1,0,0,response3disk,,4,-4.799988627,-4.800006509,1,0,0,rectangle,-4.799988627,-4.800006509,1,0,0,-4.799988627,-4.800006509,1,0,0,0,41,41,105,1,,,,,,,,
,,,,,,,,,,,,,FF,,,,,,,,1.8512,,,,,,,,,,,,,,,,,,,,,,60ff13e4113921388277a1a7,61036cf95c6680df8f8c5d13,2021-07-29_22h08.41.743,Simcolourproject_2stim_asymm_v5,2020.2.10,Win32,60,61025ae37ef11b136ea224fe,,,,,,,,,4314,36.00001198,87.19997045,1,0,0,response1disk,,7,-2.399939764,-7.200006545,1,0,0,rectangle,-89.59998989,-56.00000727,1,0,0,1.14441E-05,7.19999367,1,0,0,0,42,42,9,1,,response5disk_3,TRUE,2,2,"[290,73,112,43,0,54,27,154,181,297,310,86,80,38,136,269,5,140,0,220]",1.8513,rectangle
,,,,,,,,,,,,,FF,,,,,,,,3.0715,,,,,,,,,,,,,,,,,,,,,,60ff13e4113921388277a1a7,61036cf95c6680df8f8c5d13,2021-07-29_22h08.41.743,Simcolourproject_2stim_asymm_v5,2020.2.10,Win32,60,61025ae37ef11b136ea224fe,,,,,,,,,1534,69.60001248,-32.80000693,1,0,0,response3disk,,5,4.000011504,6.399993658,1,0,0,rectangle,4.000011504,6.399993658,1,0,0,4.000011504,6.399993658,1,0,0,0,43,43,57,1,,,,,,,,
,,,,,,,,,,,,,FF,,,,,,,,2.8713,,,,,,,,,,,,,,,,,,,,,,60ff13e4113921388277a1a7,61036cf95c6680df8f8c5d13,2021-07-29_22h08.41.743,Simcolourproject_2stim_asymm_v5,2020.2.10,Win32,60,61025ae37ef11b136ea224fe,,,,,,,,,3073,-55.19998938,-83.20000768,1,0,0,response5disk,,3,2.40001148,-6.4373E-06,1,0,0,rectangle,2.40001148,-6.4373E-06,1,0,0,2.40001148,-6.4373E-06,1,0,0,0,44,44,76,1,,,,,,,,
,,,,,,,,,,,,,FF,,,,,,,,1.2501,,,,,,,,,,,,,,,,,,,,,,60ff13e4113921388277a1a7,61036cf95c6680df8f8c5d13,2021-07-29_22h08.41.743,Simcolourproject_2stim_asymm_v5,2020.2.10,Win32,60,61025ae37ef11b136ea224fe,,,,,,,,,2626,25.60006065,63.99999452,1,0,0,response1disk,,7,-1.59998858,-8.800006568,1,0,0,rectangle,-1.59998858,-8.800006568,1,0,0,-1.59998858,-8.800006568,1,0,0,0,45,45,39,1,,,,,,,,
,,,,,,,,,,,,,FF,,,,,,,,3.1824,,,,,,,,,,,,,,,,,,,,,,60ff13e4113921388277a1a7,61036cf95c6680df8f8c5d13,2021-07-29_22h08.41.743,Simcolourproject_2stim_asymm_v5,2020.2.10,Win32,60,61025ae37ef11b136ea224fe,,,,,,,,,1442,96.80001289,-38.40000701,1,0,0,response3disk,,5,-3.199988604,3.999993622,1,0,0,rectangle,-3.199988604,3.999993622,1,0,0,-3.199988604,3.999993622,1,0,0,0,46,46,67,1,,,,,,,,
,,,,,,,,,,,,,FF,,,,,,,,3.7132,,,,,,,,,,,,,,,,,,,,,,60ff13e4113921388277a1a7,61036cf95c6680df8f8c5d13,2021-07-29_22h08.41.743,Simcolourproject_2stim_asymm_v5,2020.2.10,Win32,60,61025ae37ef11b136ea224fe,,,,,,,,,2201,52.00001222,85.59999484,1,0,0,response1disk,,7,2.40001148,2.399993598,1,0,0,rectangle,2.40001148,2.399993598,1,0,0,2.40001148,2.399993598,1,0,0,0,47,47,82,1,,,,,,,,
,,,,,,,,,,,,,FF,,,,,,,,1.0185,,,,,,,,,,,,,,,,,,,,,,60ff13e4113921388277a1a7,61036cf95c6680df8f8c5d13,2021-07-29_22h08.41.743,Simcolourproject_2stim_asymm_v5,2020.2.10,Win32,60,61025ae37ef11b136ea224fe,,,,,,,,,3134,54.40001225,128.7999955,1,0,0,response1disk,,7,2.40001148,-3.200006485,1,0,0,rectangle,2.40001148,-3.200006485,1,0,0,2.40001148,-3.200006485,1,0,0,0,48,48,158,1,,,,,,,,
,,,,,,,,,,,,,FF,,,,,,,,2.0013,,,,,,,,,,,,,,,,,,,,,,60ff13e4113921388277a1a7,61036cf95c6680df8f8c5d13,2021-07-29_22h08.41.743,Simcolourproject_2stim_asymm_v5,2020.2.10,Win32,60,61025ae37ef11b136ea224fe,,,,,,,,,719,-97.59999001,-56.00000727,1,0,0,response5disk,,2,1.600060296,1.599993587,1,0,0,rectangle,1.600060296,1.599993587,1,0,0,1.600060296,1.599993587,1,0,0,0,49,49,103,1,,,,,,,,
,,,,,,,,,,,,,FF,,,,,,,,2.0507,,,,,,,,,,,,,,,,,,,,,,60ff13e4113921388277a1a7,61036cf95c6680df8f8c5d13,2021-07-29_22h08.41.743,Simcolourproject_2stim_asymm_v5,2020.2.10,Win32,60,61025ae37ef11b136ea224fe,,,,,,,,,3378,29.60006071,-44.8000071,1,0,0,response3disk,,4,3.200011492,-3.200006485,1,0,0,rectangle,3.200011492,-3.200006485,1,0,0,3.200011492,-3.200006485,1,0,0,0,50,50,93,1,,,,,,,,
,,,,,,,,,,,,,FF,,,,,,,,3.4632,,,,,,,,,,,,,,,,,,,,,,60ff13e4113921388277a1a7,61036cf95c6680df8f8c5d13,2021-07-29_22h08.41.743,Simcolourproject_2stim_asymm_v5,2020.2.10,Win32,60,61025ae37ef11b136ea224fe,,,,,,,,,159,98.40001291,-33.60000694,1,0,0,response3disk,,5,-4.799988627,3.19999361,1,0,0,rectangle,-4.799988627,3.19999361,1,0,0,-4.799988627,3.19999361,1,0,0,0,51,51,104,1,,,,,,,,
,,,,,,,,,,,,,FF,,,,,,,,1.1842,,,,,,,,,,,,,,,,,,,,,,60ff13e4113921388277a1a7,61036cf95c6680df8f8c5d13,2021-07-29_22h08.41.743,Simcolourproject_2stim_asymm_v5,2020.2.10,Win32,60,61025ae37ef11b136ea224fe,,,,,,,,,3992,58.40001231,99.19997063,1,0,0,response1disk,,7,18.40001172,1.599993587,1,0,0,rectangle,18.40001172,1.599993587,1,0,0,18.40001172,1.599993587,1,0,0,0,52,52,21,1,,,,,,,,
,,,,,,,,,,,,,FF,,,,,,,,2.433,,,,,,,,,,,,,,,,,,,,,,60ff13e4113921388277a1a7,61036cf95c6680df8f8c5d13,2021-07-29_22h08.41.743,Simcolourproject_2stim_asymm_v5,2020.2.10,Win32,60,61025ae37ef11b136ea224fe,,,,,,,,,361,34.40001196,67.19997015,1,0,0,response1disk,,7,9.600060415,7.19999367,1,0,0,rectangle,-48.79998928,-98.4000079,1,0,0,7.200011551,3.19999361,1,0,0,0,53,53,120,1,,response5disk_3,TRUE,3,3,"[290,73,112,43,0,54,27,154,181,297,310,86,80,38,136,269,5,140,0,220]",1.9322,rectangle
,,,,,,,,,,,,,FF,,,,,,,,1.7498,,,,,,,,,,,,,,,,,,,,,,60ff13e4113921388277a1a7,61036cf95c6680df8f8c5d13,2021-07-29_22h08.41.743,Simcolourproject_2stim_asymm_v5,2020.2.10,Win32,60,61025ae37ef11b136ea224fe,,,,,,,,,3734,54.40001225,32.79999405,1,0,0,response1disk,,6,2.40001148,1.599993587,1,0,0,rectangle,2.40001148,1.599993587,1,0,0,2.40001148,1.599993587,1,0,0,0,54,54,65,1,,,,,,,,
,,,,,,,,,,,,,FF,,,,,,,,4.6657,,,,,,,,,,,,,,,,,,,,,,60ff13e4113921388277a1a7,61036cf95c6680df8f8c5d13,2021-07-29_22h08.41.743,Simcolourproject_2stim_asymm_v5,2020.2.10,Win32,60,61025ae37ef11b136ea224fe,,,,,,,,,901,84.80001271,59.99999446,1,0,0,response1disk,,6,4.000011504,-4.800006509,1,0,0,rectangle,4.000011504,-4.800006509,1,0,0,4.000011504,-4.800006509,1,0,0,0,55,55,25,1,,,,,,,,
,,,,,,,,,,,,,FF,,,,,,,,1.9997,,,,,,,,,,,,,,,,,,,,,,60ff13e4113921388277a1a7,61036cf95c6680df8f8c5d13,2021-07-29_22h08.41.743,Simcolourproject_2stim_asymm_v5,2020.2.10,Win32,60,61025ae37ef11b136ea224fe,,,,,,,,,2294,-101.5999901,53.59999436,1,0,0,response7disk,,1,1.600060296,9.599993706,1,0,0,rectangle,1.600060296,9.599993706,1,0,0,1.600060296,9.599993706,1,0,0,0,56,56,44,1,,,,,,,,
,,,,,,,,,,,,,FF,,,,,,,,3.1328,,,,,,,,,,,,,,,,,,,,,,60ff13e4113921388277a1a7,61036cf95c6680df8f8c5d13,2021-07-29_22h08.41.743,Simcolourproject_2stim_asymm_v5,2020.2.10,Win32,60,61025ae37ef11b136ea224fe,,,,,,,,,429,93.60001284,79.19997033,1,0,0,response1disk,,6,-5.599988639,6.399993658,1,0,0,rectangle,-5.599988639,6.399993658,1,0,0,-5.599988639,6.399993658,1,0,0,0,57,57,143,1,,,,,,,,
,,,,,,,,,,,,,FF,,,,,,,,3.7994,,,,,,,,,,,,,,,,,,,,,,60ff13e4113921388277a1a7,61036cf95c6680df8f8c5d13,2021-07-29_22h08.41.743,Simcolourproject_2stim_asymm_v5,2020.2.10,Win32,60,61025ae37ef11b136ea224fe,,,,,,,,,3421,-49.5999893,-60.80000734,1,0,0,response5disk,,3,3.200011492,9.599993706,1,0,0,rectangle,3.200011492,9.599993706,1,0,0,3.200011492,9.599993706,1,0,0,0,58,58,38,1,,,,,,,,
,,,,,,,,,,,,,FF,,,,,,,,1.1498,,,,,,,,,,,,,,,,,,,,,,60ff13e4113921388277a1a7,61036cf95c6680df8f8c5d13,2021-07-29_22h08.41.743,Simcolourproject_2stim_asymm_v5,2020.2.10,Win32,60,61025ae37ef11b136ea224fe,,,,,,,,,3896,72.80001253,21.59999388,1,0,0,response1disk,,6,-9.599988699,5.599993646,1,0,0,rectangle,-9.599988699,5.599993646,1,0,0,-9.599988699,5.599993646,1,0,0,0,59,59,28,1,,,,,,,,
,,,,,,,,,,,,,FF,,,,,,,,1.8664,,,,,,,,,,,,,,,,,,,,,,60ff13e4113921388277a1a7,61036cf95c6680df8f8c5d13,2021-07-29_22h08.41.743,Simcolourproject_2stim_asymm_v5,2020.2.10,Win32,60,61025ae37ef11b136ea224fe,,,,,,,,,3380,36.00001198,123.199971,1,0,0,response1disk,,7,4.000011504,1.599993587,1,0,0,rectangle,4.000011504,1.599993587,1,0,0,4.000011504,1.599993587,1,0,0,0,60,60,52,1,,,,,,,,
,,,,,,,,,,,,,FF,,,,,,,,1.6831,,,,,,,,,,,,,,,,,,,,,,60ff13e4113921388277a1a7,61036cf95c6680df8f8c5d13,2021-07-29_22h08.41.743,Simcolourproject_2stim_asymm_v5,2020.2.10,Win32,60,61025ae37ef11b136ea224fe,,,,,,,,,1487,42.40001208,119.9999954,1,0,0,response1disk,,7,4.000011504,4.799993634,1,0,0,rectangle,4.000011504,4.799993634,1,0,0,4.000011504,4.799993634,1,0,0,0,61,61,127,1,,,,,,,,
,,,,,,,,,,,,,FF,,,,,,,,1.7499,,,,,,,,,,,,,,,,,,,,,,60ff13e4113921388277a1a7,61036cf95c6680df8f8c5d13,2021-07-29_22h08.41.743,Simcolourproject_2stim_asymm_v5,2020.2.10,Win32,60,61025ae37ef11b136ea224fe,,,,,,,,,4244,25.60006065,56.79999441,1,0,0,response1disk,,7,7.200011551,15.19999379,1,0,0,rectangle,7.200011551,15.19999379,1,0,0,7.200011551,15.19999379,1,0,0,0,62,62,0,1,,,,,,,,
,,,,,,,,,,,,,FF,,,,,,,,1.5829,,,,,,,,,,,,,,,,,,,,,,60ff13e4113921388277a1a7,61036cf95c6680df8f8c5d13,2021-07-29_22h08.41.743,Simcolourproject_2stim_asymm_v5,2020.2.10,Win32,60,61025ae37ef11b136ea224fe,,,,,,,,,711,36.80001199,40.79999417,1,0,0,response1disk,,7,8.000011563,4.799993634,1,0,0,rectangle,8.000011563,4.799993634,1,0,0,8.000011563,4.799993634,1,0,0,0,63,63,2,1,,,,,,,,
,,,,,,,,,,,,,FF,,,,,,,,1.3333,,,,,,,,,,,,,,,,,,,,,,60ff13e4113921388277a1a7,61036cf95c6680df8f8c5d13,2021-07-29_22h08.41.743,Simcolourproject_2stim_asymm_v5,2020.2.10,Win32,60,61025ae37ef11b136ea224fe,,,,,,,,,4050,-54.39994054,-116.8000082,1,0,0,response5disk,,3,11.20001161,-5.600006521,1,0,0,rectangle,11.20001161,-5.600006521,1,0,0,11.20001161,-5.600006521,1,0,0,0,64,64,111,1,,,,,,,,
,,,,,,,,,,,,,FF,,,,,,,,1.3164,,,,,,,,,,,,,,,,,,,,,,60ff13e4113921388277a1a7,61036cf95c6680df8f8c5d13,2021-07-29_22h08.41.743,Simcolourproject_2stim_asymm_v5,2020.2.10,Win32,60,61025ae37ef11b136ea224fe,,,,,,,,,3763,110.4000131,56.79999441,1,0,0,response1disk,,6,-8.799988687,-6.400006533,1,0,0,rectangle,-8.799988687,-6.400006533,1,0,0,-8.799988687,-6.400006533,1,0,0,0,65,65,43,1,,,,,,,,
,,,,,,,,,,,,,FF,,,,,,,,1.1,,,,,,,,,,,,,,,,,,,,,,60ff13e4113921388277a1a7,61036cf95c6680df8f8c5d13,2021-07-29_22h08.41.743,Simcolourproject_2stim_asymm_v5,2020.2.10,Win32,60,61025ae37ef11b136ea224fe,,,,,,,,,1111,86.40001273,-49.60000718,1,0,0,response3disk,,5,8.000011563,-0.800006449,1,0,0,rectangle,8.000011563,-0.800006449,1,0,0,8.000011563,-0.800006449,1,0,0,0,66,66,125,1,,,,,,,,
,,,,,,,,,,,,,FF,,,,,,,,3.2025,,,,,,,,,,,,,,,,,,,,,,60ff13e4113921388277a1a7,61036cf95c6680df8f8c5d13,2021-07-29_22h08.41.743,Simcolourproject_2stim_asymm_v5,2020.2.10,Win32,60,61025ae37ef11b136ea224fe,,,,,,,,,3853,84.0000127,72.79999465,1,0,0,response1disk,,6,-7.999988675,8.799993694,1,0,0,rectangle,-7.999988675,8.799993694,1,0,0,-7.999988675,8.799993694,1,0,0,0,67,67,15,1,,,,,,,,
,,,,,,,,,,,,,FF,,,,,,,,1.0832,,,,,,,,,,,,,,,,,,,,,,60ff13e4113921388277a1a7,61036cf95c6680df8f8c5d13,2021-07-29_22h08.41.743,Simcolourproject_2stim_asymm_v5,2020.2.10,Win32,60,61025ae37ef11b136ea224fe,,,,,,,,,2123,41.60006089,93.59999496,1,0,0,response1disk,,7,18.40001172,4.799993634,1,0,0,rectangle,18.40001172,4.799993634,1,0,0,18.40001172,4.799993634,1,0,0,0,68,68,48,1,,,,,,,,
,,,,,,,,,,,,,FF,,,,,,,,1.1831,,,,,,,,,,,,,,,,,,,,,,60ff13e4113921388277a1a7,61036cf95c6680df8f8c5d13,2021-07-29_22h08.41.743,Simcolourproject_2stim_asymm_v5,2020.2.10,Win32,60,61025ae37ef11b136ea224fe,,,,,,,,,3027,36.80001199,72.79999465,1,0,0,response1disk,,7,6.400011539,-6.400006533,1,0,0,rectangle,6.400011539,-6.400006533,1,0,0,6.400011539,-6.400006533,1,0,0,0,69,69,159,1,,,,,,,,
,,,,,,,,,,,,,FF,,,,,,,,3.4662,,,,,,,,,,,,,,,,,,,,,,60ff13e4113921388277a1a7,61036cf95c6680df8f8c5d13,2021-07-29_22h08.41.743,Simcolourproject_2stim_asymm_v5,2020.2.10,Win32,60,61025ae37ef11b136ea224fe,,,,,,,,,1762,66.40001243,-73.60000753,1,0,0,response3disk,,4,-15.19998878,6.399993658,1,0,0,rectangle,-15.19998878,6.399993658,1,0,0,-15.19998878,6.399993658,1,0,0,0,70,70,35,1,,,,,,,,
,,,,,,,,,,,,,FF,,,,,,,,2.4163,,,,,,,,,,,,,,,,,,,,,,60ff13e4113921388277a1a7,61036cf95c6680df8f8c5d13,2021-07-29_22h08.41.743,Simcolourproject_2stim_asymm_v5,2020.2.10,Win32,60,61025ae37ef11b136ea224fe,,,,,,,,,4100,-27.99998897,-97.60005672,1,0,0,response5disk,,3,3.200011492,0.799993575,1,0,0,rectangle,3.200011492,0.799993575,1,0,0,3.200011492,0.799993575,1,0,0,0,71,71,99,1,,,,,,,,
,,,,,,,,,,,,,FF,,,,,,,,2.3829,,,,,,,,,,,,,,,,,,,,,,60ff13e4113921388277a1a7,61036cf95c6680df8f8c5d13,2021-07-29_22h08.41.743,Simcolourproject_2stim_asymm_v5,2020.2.10,Win32,60,61025ae37ef11b136ea224fe,,,,,,,,,643,44.0000121,72.79999465,1,0,0,response1disk,,7,1.14441E-05,-4.000006497,1,0,0,rectangle,64.0000124,-76.80000758,1,0,0,-3.999988616,-11.2000066,1,0,0,0,72,72,124,1,,response3disk_3,TRUE,4,4,"[290,73,112,43,0,54,27,154,181,297,310,86,80,38,136,269,5,140,0,220]",2.1668,rectangle
,,,,,,,,,,,,,FF,,,,,,,,2.0165,,,,,,,,,,,,,,,,,,,,,,60ff13e4113921388277a1a7,61036cf95c6680df8f8c5d13,2021-07-29_22h08.41.743,Simcolourproject_2stim_asymm_v5,2020.2.10,Win32,60,61025ae37ef11b136ea224fe,,,,,,,,,4060,78.40001261,59.99999446,1,0,0,response1disk,,6,2.40001148,-6.4373E-06,1,0,0,rectangle,2.40001148,-6.4373E-06,1,0,0,2.40001148,-6.4373E-06,1,0,0,0,73,73,112,1,,,,,,,,
,,,,,,,,,,,,,FF,,,,,,,,1.7337,,,,,,,,,,,,,,,,,,,,,,60ff13e4113921388277a1a7,61036cf95c6680df8f8c5d13,2021-07-29_22h08.41.743,Simcolourproject_2stim_asymm_v5,2020.2.10,Win32,60,61025ae37ef11b136ea224fe,,,,,,,,,821,76.00001258,-51.2000072,1,0,0,response3disk,,5,10.4000116,0.799993575,1,0,0,rectangle,10.4000116,0.799993575,1,0,0,10.4000116,0.799993575,1,0,0,0,74,74,114,1,,,,,,,,
,,,,,,,,,,,,,FF,,,,,,,,1.0842,,,,,,,,,,,,,,,,,,,,,,60ff13e4113921388277a1a7,61036cf95c6680df8f8c5d13,2021-07-29_22h08.41.743,Simcolourproject_2stim_asymm_v5,2020.2.10,Win32,60,61025ae37ef11b136ea224fe,,,,,,,,,358,57.6000123,73.59999466,1,0,0,response1disk,,7,1.600060296,-6.400006533,1,0,0,rectangle,1.600060296,-6.400006533,1,0,0,1.600060296,-6.400006533,1,0,0,0,75,75,41,1,,,,,,,,
,,,,,,,,,,,,,FF,,,,,,,,1.4765,,,,,,,,,,,,,,,,,,,,,,60ff13e4113921388277a1a7,61036cf95c6680df8f8c5d13,2021-07-29_22h08.41.743,Simcolourproject_2stim_asymm_v5,2020.2.10,Win32,60,61025ae37ef11b136ea224fe,,,,,,,,,1384,40.00001204,-89.6000566,1,0,0,response3disk,,4,9.600060415,7.19999367,1,0,0,rectangle,9.600060415,7.19999367,1,0,0,9.600060415,7.19999367,1,0,0,0,76,76,64,1,,,,,,,,
,,,,,,,,,,,,,FF,,,,,,,,1.5,,,,,,,,,,,,,,,,,,,,,,60ff13e4113921388277a1a7,61036cf95c6680df8f8c5d13,2021-07-29_22h08.41.743,Simcolourproject_2stim_asymm_v5,2020.2.10,Win32,60,61025ae37ef11b136ea224fe,,,,,,,,,2720,80.80001265,44.79999423,1,0,0,response1disk,,6,-4.799988627,11.99999374,1,0,0,rectangle,-4.799988627,11.99999374,1,0,0,-4.799988627,11.99999374,1,0,0,0,77,77,23,1,,,,,,,,
,,,,,,,,,,,,,FF,,,,,,,,1.5286,,,,,,,,,,,,,,,,,,,,,,60ff13e4113921388277a1a7,61036cf95c6680df8f8c5d13,2021-07-29_22h08.41.743,Simcolourproject_2stim_asymm_v5,2020.2.10,Win32,60,61025ae37ef11b136ea224fe,,,,,,,,,1659,25.60006065,93.59999496,1,0,0,response1disk,,7,7.200011551,3.19999361,1,0,0,rectangle,7.200011551,3.19999361,1,0,0,7.200011551,3.19999361,1,0,0,0,78,78,101,1,,,,,,,,
,,,,,,,,,,,,,FF,,,,,,,,1.9329,,,,,,,,,,,,,,,,,,,,,,60ff13e4113921388277a1a7,61036cf95c6680df8f8c5d13,2021-07-29_22h08.41.743,Simcolourproject_2stim_asymm_v5,2020.2.10,Win32,60,61025ae37ef11b136ea224fe,,,,,,,,,3590,26.40001184,111.1999708,1,0,0,response1disk,,7,2.40001148,-5.600006521,1,0,0,rectangle,-96.79999,50.39999431,1,0,0,1.14441E-05,6.399993658,1,0,0,0,79,79,146,1,,response7disk_3,TRUE,1,1,"[290,73,112,43,0,54,27,154,181,297,310,86,80,38,136,269,5,140,0,220]",2.1491,rectangle
,,,,,,,,,,,,,FF,,,,,,,,1.7334,,,,,,,,,,,,,,,,,,,,,,60ff13e4113921388277a1a7,61036cf95c6680df8f8c5d13,2021-07-29_22h08.41.743,Simcolourproject_2stim_asymm_v5,2020.2.10,Win32,60,61025ae37ef11b136ea224fe,,,,,,,,,4122,-92.79998994,-34.40000695,1,0,0,response5disk,,2,10.4000116,11.19999373,1,0,0,rectangle,10.4000116,11.19999373,1,0,0,10.4000116,11.19999373,1,0,0,0,80,80,154,1,,,,,,,,
,,,,,,,,,,,,,FF,,,,,,,,1.3999,,,,,,,,,,,,,,,,,,,,,,60ff13e4113921388277a1a7,61036cf95c6680df8f8c5d13,2021-07-29_22h08.41.743,Simcolourproject_2stim_asymm_v5,2020.2.10,Win32,60,61025ae37ef11b136ea224fe,,,,,,,,,2082,62.40001237,-50.40000719,1,0,0,response3disk,,5,6.400011539,-4.800006509,1,0,0,rectangle,6.400011539,-4.800006509,1,0,0,6.400011539,-4.800006509,1,0,0,0,81,81,130,1,,,,,,,,
,,,,,,,,,,,,,FF,,,,,,,,1.5502,,,,,,,,,,,,,,,,,,,,,,60ff13e4113921388277a1a7,61036cf95c6680df8f8c5d13,2021-07-29_22h08.41.743,Simcolourproject_2stim_asymm_v5,2020.2.10,Win32,60,61025ae37ef11b136ea224fe,,,,,,,,,3207,-32.79998904,-66.40000743,1,0,0,response5disk,,3,-2.399939764,4.799993634,1,0,0,rectangle,-2.399939764,4.799993634,1,0,0,-2.399939764,4.799993634,1,0,0,0,82,82,32,1,,,,,,,,
,,,,,,,,,,,,,FF,,,,,,,,1.1353,,,,,,,,,,,,,,,,,,,,,,60ff13e4113921388277a1a7,61036cf95c6680df8f8c5d13,2021-07-29_22h08.41.743,Simcolourproject_2stim_asymm_v5,2020.2.10,Win32,60,61025ae37ef11b136ea224fe,,,,,,,,,1272,29.60006071,71.99999464,1,0,0,response1disk,,7,13.60006047,5.599993646,1,0,0,rectangle,13.60006047,5.599993646,1,0,0,13.60006047,5.599993646,1,0,0,0,83,83,46,1,,,,,,,,
,,,,,,,,,,,,,FF,,,,,,,,0.8988,,,,,,,,,,,,,,,,,,,,,,60ff13e4113921388277a1a7,61036cf95c6680df8f8c5d13,2021-07-29_22h08.41.743,Simcolourproject_2stim_asymm_v5,2020.2.10,Win32,60,61025ae37ef11b136ea224fe,,,,,,,,,1578,36.80001199,80.79999477,1,0,0,response1disk,,7,8.000011563,-3.200006485,1,0,0,rectangle,8.000011563,-3.200006485,1,0,0,8.000011563,-3.200006485,1,0,0,0,84,84,77,1,,,,,,,,
,,,,,,,,,,,,,FF,,,,,,,,0.9335,,,,,,,,,,,,,,,,,,,,,,60ff13e4113921388277a1a7,61036cf95c6680df8f8c5d13,2021-07-29_22h08.41.743,Simcolourproject_2stim_asymm_v5,2020.2.10,Win32,60,61025ae37ef11b136ea224fe,,,,,,,,,483,32.80001193,117.5999953,1,0,0,response1disk,,7,0.800011456,-4.800006509,1,0,0,rectangle,-96.79999,-46.40000713,1,0,0,1.14441E-05,1.599993587,1,0,0,0,85,85,117,1,,response5disk_3,TRUE,2,2,"[290,73,112,43,0,54,27,154,181,297,310,86,80,38,136,269,5,140,0,220]",2.5998,rectangle
,,,,,,,,,,,,,FF,,,,,,,,3.6164,,,,,,,,,,,,,,,,,,,,,,60ff13e4113921388277a1a7,61036cf95c6680df8f8c5d13,2021-07-29_22h08.41.743,Simcolourproject_2stim_asymm_v5,2020.2.10,Win32,60,61025ae37ef11b136ea224fe,,,,,,,,,3555,-42.39994036,-83.20000768,1,0,0,response5disk,,3,-2.399939764,-10.40000659,1,0,0,rectangle,-2.399939764,-10.40000659,1,0,0,-2.399939764,-10.40000659,1,0,0,0,86,86,78,1,,,,,,,,
,,,,,,,,,,,,,FF,,,,,,,,1.4163,,,,,,,,,,,,,,,,,,,,,,60ff13e4113921388277a1a7,61036cf95c6680df8f8c5d13,2021-07-29_22h08.41.743,Simcolourproject_2stim_asymm_v5,2020.2.10,Win32,60,61025ae37ef11b136ea224fe,,,,,,,,,3560,-49.5999893,-88.80000776,1,0,0,response5disk,,3,0.800011456,7.19999367,1,0,0,rectangle,0.800011456,7.19999367,1,0,0,0.800011456,7.19999367,1,0,0,0,87,87,47,1,,,,,,,,
,,,,,,,,,,,,,FF,,,,,,,,1.4507,,,,,,,,,,,,,,,,,,,,,,60ff13e4113921388277a1a7,61036cf95c6680df8f8c5d13,2021-07-29_22h08.41.743,Simcolourproject_2stim_asymm_v5,2020.2.10,Win32,60,61025ae37ef11b136ea224fe,,,,,,,,,3127,38.40001202,91.99999493,1,0,0,response1disk,,7,-7.199988663,11.99999374,1,0,0,rectangle,-7.199988663,11.99999374,1,0,0,-7.199988663,11.99999374,1,0,0,0,88,88,42,1,,,,,,,,
,,,,,,,,,,,,,FF,,,,,,,,0.983,,,,,,,,,,,,,,,,,,,,,,60ff13e4113921388277a1a7,61036cf95c6680df8f8c5d13,2021-07-29_22h08.41.743,Simcolourproject_2stim_asymm_v5,2020.2.10,Win32,60,61025ae37ef11b136ea224fe,,,,,,,,,2757,25.60006065,79.19997033,1,0,0,response1disk,,7,-7.199988663,-8.000006557,1,0,0,rectangle,-7.199988663,-8.000006557,1,0,0,-7.199988663,-8.000006557,1,0,0,0,89,89,51,1,,,,,,,,
,,,,,,,,,,,,,FF,,,,,,,,2.4509,,,,,,,,,,,,,,,,,,,,,,60ff13e4113921388277a1a7,61036cf95c6680df8f8c5d13,2021-07-29_22h08.41.743,Simcolourproject_2stim_asymm_v5,2020.2.10,Win32,60,61025ae37ef11b136ea224fe,,,,,,,,,499,41.60006089,59.19997003,1,0,0,response1disk,,7,8.000011563,-2.400006473,1,0,0,rectangle,8.000011563,-2.400006473,1,0,0,8.000011563,-2.400006473,1,0,0,0,90,90,147,1,,,,,,,,
,,,,,,,,,,,,,FF,,,,,,,,1.5639,,,,,,,,,,,,,,,,,,,,,,60ff13e4113921388277a1a7,61036cf95c6680df8f8c5d13,2021-07-29_22h08.41.743,Simcolourproject_2stim_asymm_v5,2020.2.10,Win32,60,61025ae37ef11b136ea224fe,,,,,,,,,46,32.00001192,100.7999951,1,0,0,response1disk,,7,5.600060356,-11.2000066,1,0,0,rectangle,5.600060356,-11.2000066,1,0,0,5.600060356,-11.2000066,1,0,0,0,91,91,119,1,,,,,,,,
,,,,,,,,,,,,,FF,,,,,,,,2.07,,,,,,,,,,,,,,,,,,,,,,60ff13e4113921388277a1a7,61036cf95c6680df8f8c5d13,2021-07-29_22h08.41.743,Simcolourproject_2stim_asymm_v5,2020.2.10,Win32,60,61025ae37ef11b136ea224fe,,,,,,,,,1125,61.60001236,88.79999489,1,0,0,response1disk,,7,5.600060356,3.19999361,1,0,0,rectangle,5.600060356,3.19999361,1,0,0,5.600060356,3.19999361,1,0,0,0,92,92,18,1,,,,,,,,
,,,,,,,,,,,,,FF,,,,,,,,1.7207,,,,,,,,,,,,,,,,,,,,,,60ff13e4113921388277a1a7,61036cf95c6680df8f8c5d13,2021-07-29_22h08.41.743,Simcolourproject_2stim_asymm_v5,2020.2.10,Win32,60,61025ae37ef11b136ea224fe,,,,,,,,,4192,28.80001187,123.199971,1,0,0,response1disk,,7,-2.399939764,14.39999378,1,0,0,rectangle,-2.399939764,14.39999378,1,0,0,-2.399939764,14.39999378,1,0,0,0,93,93,79,1,,,,,,,,
,,,,,,,,,,,,,FF,,,,,,,,3.1337,,,,,,,,,,,,,,,,,,,,,,60ff13e4113921388277a1a7,61036cf95c6680df8f8c5d13,2021-07-29_22h08.41.743,Simcolourproject_2stim_asymm_v5,2020.2.10,Win32,60,61025ae37ef11b136ea224fe,,,,,,,,,784,80.80001265,-49.60000718,1,0,0,response3disk,,5,12.00001162,7.999993682,1,0,0,rectangle,12.00001162,7.999993682,1,0,0,12.00001162,7.999993682,1,0,0,0,94,94,53,1,,,,,,,,
,,,,,,,,,,,,,FF,,,,,,,,1.5307,,,,,,,,,,,,,,,,,,,,,,60ff13e4113921388277a1a7,61036cf95c6680df8f8c5d13,2021-07-29_22h08.41.743,Simcolourproject_2stim_asymm_v5,2020.2.10,Win32,60,61025ae37ef11b136ea224fe,,,,,,,,,2912,22.40001178,67.19997015,1,0,0,response1disk,,7,8.000011563,-6.400006533,1,0,0,rectangle,8.000011563,-6.400006533,1,0,0,8.000011563,-6.400006533,1,0,0,0,95,95,31,1,,,,,,,,
,,,,,,,,,,,,,FF,,,,,,,,1.9377,,,,,,,,,,,,,,,,,,,,,,60ff13e4113921388277a1a7,61036cf95c6680df8f8c5d13,2021-07-29_22h08.41.743,Simcolourproject_2stim_asymm_v5,2020.2.10,Win32,60,61025ae37ef11b136ea224fe,,,,,,,,,2495,68.80001247,47.99999428,1,0,0,response1disk,,6,-4.799988627,11.19999373,1,0,0,rectangle,-4.799988627,11.19999373,1,0,0,-4.799988627,11.19999373,1,0,0,0,96,96,84,1,,,,,,,,
,,,,,,,,,,,,,FF,,,,,,,,1.6042,,,,,,,,,,,,,,,,,,,,,,60ff13e4113921388277a1a7,61036cf95c6680df8f8c5d13,2021-07-29_22h08.41.743,Simcolourproject_2stim_asymm_v5,2020.2.10,Win32,60,61025ae37ef11b136ea224fe,,,,,,,,,4237,-55.99998939,33.59999406,1,0,0,response7disk,,1,-2.399939764,7.999993682,1,0,0,rectangle,-2.399939764,7.999993682,1,0,0,-2.399939764,7.999993682,1,0,0,0,97,97,27,1,,,,,,,,
,,,,,,,,,,,,,FF,,,,,,,,2.837,,,,,,,,,,,,,,,,,,,,,,60ff13e4113921388277a1a7,61036cf95c6680df8f8c5d13,2021-07-29_22h08.41.743,Simcolourproject_2stim_asymm_v5,2020.2.10,Win32,60,61025ae37ef11b136ea224fe,,,,,,,,,4211,32.00001192,71.19997021,1,0,0,response1disk,,7,12.00001162,-4.800006509,1,0,0,rectangle,12.00001162,-4.800006509,1,0,0,12.00001162,-4.800006509,1,0,0,0,98,98,92,1,,,,,,,,
,,,,,,,,,,,,,FF,,,,,,,,1.6201,,,,,,,,,,,,,,,,,,,,,,60ff13e4113921388277a1a7,61036cf95c6680df8f8c5d13,2021-07-29_22h08.41.743,Simcolourproject_2stim_asymm_v5,2020.2.10,Win32,60,61025ae37ef11b136ea224fe,,,,,,,,,2507,31.20001191,76.79999471,1,0,0,response1disk,,7,-3.999988616,10.39999372,1,0,0,rectangle,-3.999988616,10.39999372,1,0,0,-3.999988616,10.39999372,1,0,0,0,99,99,49,1,,,,,,,,
,,,,,,,,,,,,,FF,,,,,,,,1.6507,,,,,,,,,,,,,,,,,,,,,,60ff13e4113921388277a1a7,61036cf95c6680df8f8c5d13,2021-07-29_22h08.41.743,Simcolourproject_2stim_asymm_v5,2020.2.10,Win32,60,61025ae37ef11b136ea224fe,,,,,,,,,3211,-42.39994036,-64.8000074,1,0,0,response5disk,,3,1.600060296,-6.400006533,1,0,0,rectangle,1.600060296,-6.400006533,1,0,0,1.600060296,-6.400006533,1,0,0,0,100,100,88,1,,,,,,,,
,,,,,,,,,,,,,FF,,,,,,,,2.3794,,,,,,,,,,,,,,,,,,,,,,60ff13e4113921388277a1a7,61036cf95c6680df8f8c5d13,2021-07-29_22h08.41.743,Simcolourproject_2stim_asymm_v5,2020.2.10,Win32,60,61025ae37ef11b136ea224fe,,,,,,,,,516,58.40001231,-103.200008,1,0,0,response3disk,,4,1.14441E-05,8.799993694,1,0,0,rectangle,1.14441E-05,8.799993694,1,0,0,1.14441E-05,8.799993694,1,0,0,0,101,101,140,1,,,,,,,,
,,,,,,,,,,,,,FF,,,,,,,,3.2959,,,,,,,,,,,,,,,,,,,,,,60ff13e4113921388277a1a7,61036cf95c6680df8f8c5d13,2021-07-29_22h08.41.743,Simcolourproject_2stim_asymm_v5,2020.2.10,Win32,60,61025ae37ef11b136ea224fe,,,,,,,,,1585,57.6000123,-29.60000688,1,0,0,response3disk,,5,-16.79998881,-2.400006473,1,0,0,rectangle,-16.79998881,-2.400006473,1,0,0,-16.79998881,-2.400006473,1,0,0,0,102,102,3,1,,,,,,,,
,,,,,,,,,,,,,FF,,,,,,,,2.6007,,,,,,,,,,,,,,,,,,,,,,60ff13e4113921388277a1a7,61036cf95c6680df8f8c5d13,2021-07-29_22h08.41.743,Simcolourproject_2stim_asymm_v5,2020.2.10,Win32,60,61025ae37ef11b136ea224fe,,,,,,,,,2270,-30.39994018,-62.40000737,1,0,0,response5disk,,3,1.600060296,3.19999361,1,0,0,rectangle,1.600060296,3.19999361,1,0,0,1.600060296,3.19999361,1,0,0,0,103,103,20,1,,,,,,,,
,,,,,,,,,,,,,FF,,,,,,,,4.1832,,,,,,,,,,,,,,,,,,,,,,60ff13e4113921388277a1a7,61036cf95c6680df8f8c5d13,2021-07-29_22h08.41.743,Simcolourproject_2stim_asymm_v5,2020.2.10,Win32,60,61025ae37ef11b136ea224fe,,,,,,,,,3160,49.60006101,-38.40000701,1,0,0,response3disk,,5,4.000011504,11.99999374,1,0,0,rectangle,4.000011504,11.99999374,1,0,0,4.000011504,11.99999374,1,0,0,0,104,104,116,1,,,,,,,,
,,,,,,,,,,,,,FF,,,,,,,,3.2877,,,,,,,,,,,,,,,,,,,,,,60ff13e4113921388277a1a7,61036cf95c6680df8f8c5d13,2021-07-29_22h08.41.743,Simcolourproject_2stim_asymm_v5,2020.2.10,Win32,60,61025ae37ef11b136ea224fe,,,,,,,,,1297,-102.3999413,-65.60000741,1,0,0,response5disk,,2,-6.399939823,5.599993646,1,0,0,rectangle,-6.399939823,5.599993646,1,0,0,-6.399939823,5.599993646,1,0,0,0,105,105,150,1,,,,,,,,
,,,,,,,,,,,,,FF,,,,,,,,42.3595,,,,,,,,,,,,,,,,,,,,,,60ff13e4113921388277a1a7,61036cf95c6680df8f8c5d13,2021-07-29_22h08.41.743,Simcolourproject_2stim_asymm_v5,2020.2.10,Win32,60,61025ae37ef11b136ea224fe,,,,,,,,,2449,124.8000133,-66.40000743,1,0,0,response3disk,,5,-3.199988604,-0.800006449,1,0,0,rectangle,-3.199988604,-0.800006449,1,0,0,-3.199988604,-0.800006449,1,0,0,0,106,106,155,1,,,,,,,,
,,,,,,,,,,,,,FF,,,,,,,,1.5541,,,,,,,,,,,,,,,,,,,,,,60ff13e4113921388277a1a7,61036cf95c6680df8f8c5d13,2021-07-29_22h08.41.743,Simcolourproject_2stim_asymm_v5,2020.2.10,Win32,60,61025ae37ef11b136ea224fe,,,,,,,,,1165,37.60006083,76.79999471,1,0,0,response1disk,,7,-3.199988604,9.599993706,1,0,0,rectangle,-3.199988604,9.599993706,1,0,0,-3.199988604,9.599993706,1,0,0,0,107,107,59,1,,,,,,,,
,,,,,,,,,,,,,FF,,,,,,,,1.868,,,,,,,,,,,,,,,,,,,,,,60ff13e4113921388277a1a7,61036cf95c6680df8f8c5d13,2021-07-29_22h08.41.743,Simcolourproject_2stim_asymm_v5,2020.2.10,Win32,60,61025ae37ef11b136ea224fe,,,,,,,,,1137,41.60006089,-91.2000078,1,0,0,response3disk,,4,-4.799988627,4.799993634,1,0,0,rectangle,-4.799988627,4.799993634,1,0,0,-4.799988627,4.799993634,1,0,0,0,108,108,55,1,,,,,,,,
,,,,,,,,,,,,,FF,,,,,,,,1.4839,,,,,,,,,,,,,,,,,,,,,,60ff13e4113921388277a1a7,61036cf95c6680df8f8c5d13,2021-07-29_22h08.41.743,Simcolourproject_2stim_asymm_v5,2020.2.10,Win32,60,61025ae37ef11b136ea224fe,,,,,,,,,3856,-89.59998989,-48.80000716,1,0,0,response5disk,,2,6.400011539,5.599993646,1,0,0,rectangle,6.400011539,5.599993646,1,0,0,6.400011539,5.599993646,1,0,0,0,109,109,56,1,,,,,,,,
,,,,,,,,,,,,,FF,,,,,,,,3.0328,,,,,,,,,,,,,,,,,,,,,,60ff13e4113921388277a1a7,61036cf95c6680df8f8c5d13,2021-07-29_22h08.41.743,Simcolourproject_2stim_asymm_v5,2020.2.10,Win32,60,61025ae37ef11b136ea224fe,,,,,,,,,4278,96.00001287,36.79999411,1,0,0,response1disk,,6,7.200011551,-3.200006485,1,0,0,rectangle,7.200011551,-3.200006485,1,0,0,7.200011551,-3.200006485,1,0,0,0,110,110,80,1,,,,,,,,
,,,,,,,,,,,,,FF,,,,,,,,2.2504,,,,,,,,,,,,,,,,,,,,,,60ff13e4113921388277a1a7,61036cf95c6680df8f8c5d13,2021-07-29_22h08.41.743,Simcolourproject_2stim_asymm_v5,2020.2.10,Win32,60,61025ae37ef11b136ea224fe,,,,,,,,,972,72.80001253,-24.80000681,1,0,0,response3disk,,5,2.40001148,0.799993575,1,0,0,rectangle,72.80001253,40.79999417,1,0,0,-1.59998858,2.399993598,1,0,0,0,111,111,135,1,,response1disk_3,TRUE,6,6,"[290,73,112,43,0,54,27,154,181,297,310,86,80,38,136,269,5,140,0,220]",1.9141,rectangle
,,,,,,,,,,,,,FF,,,,,,,,2.1842,,,,,,,,,,,,,,,,,,,,,,60ff13e4113921388277a1a7,61036cf95c6680df8f8c5d13,2021-07-29_22h08.41.743,Simcolourproject_2stim_asymm_v5,2020.2.10,Win32,60,61025ae37ef11b136ea224fe,,,,,,,,,1232,-37.59998912,-55.20000726,1,0,0,response5disk,,3,16.00001168,3.19999361,1,0,0,rectangle,16.00001168,3.19999361,1,0,0,16.00001168,3.19999361,1,0,0,0,112,112,106,1,,,,,,,,
,,,,,,,,,,,,,FF,,,,,,,,43.7744,,,,,,,,,,,,,,,,,,,,,,60ff13e4113921388277a1a7,61036cf95c6680df8f8c5d13,2021-07-29_22h08.41.743,Simcolourproject_2stim_asymm_v5,2020.2.10,Win32,60,61025ae37ef11b136ea224fe,,,,,,,,,2413,72.80001253,-31.2000069,1,0,0,response3disk,,5,-1.59998858,7.19999367,1,0,0,rectangle,-1.59998858,7.19999367,1,0,0,-1.59998858,7.19999367,1,0,0,0,113,113,8,1,,,,,,,,
,,,,,,,,,,,,,FF,,,,,,,,1.2711,,,,,,,,,,,,,,,,,,,,,,60ff13e4113921388277a1a7,61036cf95c6680df8f8c5d13,2021-07-29_22h08.41.743,Simcolourproject_2stim_asymm_v5,2020.2.10,Win32,60,61025ae37ef11b136ea224fe,,,,,,,,,2518,88.00001276,33.59999406,1,0,0,response1disk,,6,5.600060356,6.399993658,1,0,0,rectangle,5.600060356,6.399993658,1,0,0,5.600060356,6.399993658,1,0,0,0,114,114,60,1,,,,,,,,
,,,,,,,,,,,,,FF,,,,,,,,1.0217,,,,,,,,,,,,,,,,,,,,,,60ff13e4113921388277a1a7,61036cf95c6680df8f8c5d13,2021-07-29_22h08.41.743,Simcolourproject_2stim_asymm_v5,2020.2.10,Win32,60,61025ae37ef11b136ea224fe,,,,,,,,,2014,88.00001276,55.19996997,1,0,0,response1disk,,6,1.14441E-05,7.19999367,1,0,0,rectangle,1.14441E-05,7.19999367,1,0,0,1.14441E-05,7.19999367,1,0,0,0,115,115,118,1,,,,,,,,
,,,,,,,,,,,,,FF,,,,,,,,1.8132,,,,,,,,,,,,,,,,,,,,,,60ff13e4113921388277a1a7,61036cf95c6680df8f8c5d13,2021-07-29_22h08.41.743,Simcolourproject_2stim_asymm_v5,2020.2.10,Win32,60,61025ae37ef11b136ea224fe,,,,,,,,,35,96.00001287,-61.60000736,1,0,0,response3disk,,5,-4.799988627,11.19999373,1,0,0,rectangle,-4.799988627,11.19999373,1,0,0,-4.799988627,11.19999373,1,0,0,0,116,116,4,1,,,,,,,,
,,,,,,,,,,,,,FF,,,,,,,,2.2996,,,,,,,,,,,,,,,,,,,,,,60ff13e4113921388277a1a7,61036cf95c6680df8f8c5d13,2021-07-29_22h08.41.743,Simcolourproject_2stim_asymm_v5,2020.2.10,Win32,60,61025ae37ef11b136ea224fe,,,,,,,,,3086,19.20001173,83.19997039,1,0,0,response1disk,,7,3.200011492,-1.600006461,1,0,0,rectangle,3.200011492,-1.600006461,1,0,0,3.200011492,-1.600006461,1,0,0,0,117,117,34,1,,,,,,,,
,,,,,,,,,,,,,FF,,,,,,,,1.8795,,,,,,,,,,,,,,,,,,,,,,60ff13e4113921388277a1a7,61036cf95c6680df8f8c5d13,2021-07-29_22h08.41.743,Simcolourproject_2stim_asymm_v5,2020.2.10,Win32,60,61025ae37ef11b136ea224fe,,,,,,,,,3927,45.60006095,73.59999466,1,0,0,response1disk,,7,10.4000116,6.399993658,1,0,0,rectangle,10.4000116,6.399993658,1,0,0,10.4000116,6.399993658,1,0,0,0,118,118,36,1,,,,,,,,
,,,,,,,,,,,,,FF,,,,,,,,3.0535,,,,,,,,,,,,,,,,,,,,,,60ff13e4113921388277a1a7,61036cf95c6680df8f8c5d13,2021-07-29_22h08.41.743,Simcolourproject_2stim_asymm_v5,2020.2.10,Win32,60,61025ae37ef11b136ea224fe,,,,,,,,,2073,120.8000132,-53.60000724,1,0,0,response3disk,,5,-3.999988616,-4.800006509,1,0,0,rectangle,-3.999988616,-4.800006509,1,0,0,-3.999988616,-4.800006509,1,0,0,0,119,119,89,1,,,,,,,,
,,,,,,,,,,,,,FF,,,,,,,,1.4338,,,,,,,,,,,,,,,,,,,,,,60ff13e4113921388277a1a7,61036cf95c6680df8f8c5d13,2021-07-29_22h08.41.743,Simcolourproject_2stim_asymm_v5,2020.2.10,Win32,60,61025ae37ef11b136ea224fe,,,,,,,,,736,108.8000131,-48.80000716,1,0,0,response3disk,,5,6.400011539,3.19999361,1,0,0,rectangle,6.400011539,3.19999361,1,0,0,6.400011539,3.19999361,1,0,0,0,120,120,30,1,,,,,,,,
,,,,,,,,,,,,,FF,,,,,,,,3.8869,,,,,,,,,,,,,,,,,,,,,,60ff13e4113921388277a1a7,61036cf95c6680df8f8c5d13,2021-07-29_22h08.41.743,Simcolourproject_2stim_asymm_v5,2020.2.10,Win32,60,61025ae37ef11b136ea224fe,,,,,,,,,3276,112.8000131,75.19997027,1,0,0,response1disk,,6,-2.399939764,-4.800006509,1,0,0,rectangle,-2.399939764,-4.800006509,1,0,0,-2.399939764,-4.800006509,1,0,0,0,121,121,108,1,,,,,,,,
,,,,,,,,,,,,,FF,,,,,,,,2.4004,,,,,,,,,,,,,,,,,,,,,,60ff13e4113921388277a1a7,61036cf95c6680df8f8c5d13,2021-07-29_22h08.41.743,Simcolourproject_2stim_asymm_v5,2020.2.10,Win32,60,61025ae37ef11b136ea224fe,,,,,,,,,2466,40.80001205,120.7999954,1,0,0,response1disk,,7,4.000011504,-3.200006485,1,0,0,rectangle,4.000011504,-3.200006485,1,0,0,4.000011504,-3.200006485,1,0,0,0,122,122,63,1,,,,,,,,
,,,,,,,,,,,,,FF,,,,,,,,1.9708,,,,,,,,,,,,,,,,,,,,,,60ff13e4113921388277a1a7,61036cf95c6680df8f8c5d13,2021-07-29_22h08.41.743,Simcolourproject_2stim_asymm_v5,2020.2.10,Win32,60,61025ae37ef11b136ea224fe,,,,,,,,,163,-72.79998964,-30.40000689,1,0,0,response5disk,,2,24.0000118,6.399993658,1,0,0,rectangle,24.0000118,6.399993658,1,0,0,24.0000118,6.399993658,1,0,0,0,123,123,121,1,,,,,,,,
,,,,,,,,,,,,,FF,,,,,,,,1.987,,,,,,,,,,,,,,,,,,,,,,60ff13e4113921388277a1a7,61036cf95c6680df8f8c5d13,2021-07-29_22h08.41.743,Simcolourproject_2stim_asymm_v5,2020.2.10,Win32,60,61025ae37ef11b136ea224fe,,,,,,,,,2937,-59.99998945,-92.80000782,1,0,0,response5disk,,3,0.800011456,15.9999938,1,0,0,rectangle,0.800011456,15.9999938,1,0,0,0.800011456,15.9999938,1,0,0,0,124,124,17,1,,,,,,,,
,,,,,,,,,,,,,FF,,,,,,,,2.6658,,,,,,,,,,,,,,,,,,,,,,60ff13e4113921388277a1a7,61036cf95c6680df8f8c5d13,2021-07-29_22h08.41.743,Simcolourproject_2stim_asymm_v5,2020.2.10,Win32,60,61025ae37ef11b136ea224fe,,,,,,,,,1321,40.00001204,-80.80000764,1,0,0,response3disk,,4,0.800011456,3.999993622,1,0,0,rectangle,0.800011456,3.999993622,1,0,0,0.800011456,3.999993622,1,0,0,0,125,125,122,1,,,,,,,,
,,,,,,,,,,,,,FF,,,,,,,,1.4306,,,,,,,,,,,,,,,,,,,,,,60ff13e4113921388277a1a7,61036cf95c6680df8f8c5d13,2021-07-29_22h08.41.743,Simcolourproject_2stim_asymm_v5,2020.2.10,Win32,60,61025ae37ef11b136ea224fe,,,,,,,,,3656,49.60006101,95.99999499,1,0,0,response1disk,,7,13.60006047,-8.800006568,1,0,0,rectangle,13.60006047,-8.800006568,1,0,0,13.60006047,-8.800006568,1,0,0,0,126,126,73,1,,,,,,,,
,,,,,,,,,,,,,FF,,,,,,,,8.621,,,,,,,,,,,,,,,,,,,,,,60ff13e4113921388277a1a7,61036cf95c6680df8f8c5d13,2021-07-29_22h08.41.743,Simcolourproject_2stim_asymm_v5,2020.2.10,Win32,60,61025ae37ef11b136ea224fe,,,,,,,,,3906,36.80001199,-77.60000759,1,0,0,response3disk,,4,2.40001148,11.19999373,1,0,0,rectangle,2.40001148,11.19999373,1,0,0,2.40001148,11.19999373,1,0,0,0,127,127,109,1,,,,,,,,
,,,,,,,,,,,,,FF,,,,,,,,4.1497,,,,,,,,,,,,,,,,,,,,,,60ff13e4113921388277a1a7,61036cf95c6680df8f8c5d13,2021-07-29_22h08.41.743,Simcolourproject_2stim_asymm_v5,2020.2.10,Win32,60,61025ae37ef11b136ea224fe,,,,,,,,,2948,-48.79998928,-91.2000078,1,0,0,response5disk,,3,-4.799988627,4.799993634,1,0,0,rectangle,-4.799988627,4.799993634,1,0,0,-4.799988627,4.799993634,1,0,0,0,128,128,97,1,,,,,,,,
,,,,,,,,,,,,,FF,,,,,,,,3.1342,,,,,,,,,,,,,,,,,,,,,,60ff13e4113921388277a1a7,61036cf95c6680df8f8c5d13,2021-07-29_22h08.41.743,Simcolourproject_2stim_asymm_v5,2020.2.10,Win32,60,61025ae37ef11b136ea224fe,,,,,,,,,3729,39.20001203,92.79999495,1,0,0,response1disk,,7,-1.59998858,6.399993658,1,0,0,rectangle,-1.59998858,6.399993658,1,0,0,-1.59998858,6.399993658,1,0,0,0,129,129,148,1,,,,,,,,
,,,,,,,,,,,,,FF,,,,,,,,1.3679,,,,,,,,,,,,,,,,,,,,,,60ff13e4113921388277a1a7,61036cf95c6680df8f8c5d13,2021-07-29_22h08.41.743,Simcolourproject_2stim_asymm_v5,2020.2.10,Win32,60,61025ae37ef11b136ea224fe,,,,,,,,,190,-70.39994078,-54.40000725,1,0,0,response5disk,,2,-2.399939764,0.799993575,1,0,0,rectangle,-2.399939764,0.799993575,1,0,0,-2.399939764,0.799993575,1,0,0,0,130,130,144,1,,,,,,,,
,,,,,,,,,,,,,FF,,,,,,,,1.0834,,,,,,,,,,,,,,,,,,,,,,60ff13e4113921388277a1a7,61036cf95c6680df8f8c5d13,2021-07-29_22h08.41.743,Simcolourproject_2stim_asymm_v5,2020.2.10,Win32,60,61025ae37ef11b136ea224fe,,,,,,,,,3225,65.60001242,91.19997051,1,0,0,response1disk,,7,-2.399939764,4.799993634,1,0,0,rectangle,-2.399939764,4.799993634,1,0,0,-2.399939764,4.799993634,1,0,0,0,131,131,94,1,,,,,,,,
,,,,,,,,,,,,,FF,,,,,,,,1.5499,,,,,,,,,,,,,,,,,,,,,,60ff13e4113921388277a1a7,61036cf95c6680df8f8c5d13,2021-07-29_22h08.41.743,Simcolourproject_2stim_asymm_v5,2020.2.10,Win32,60,61025ae37ef11b136ea224fe,,,,,,,,,3993,-63.1999895,91.99999493,1,0,0,response7disk,,0,-13.59998876,6.399993658,1,0,0,rectangle,-13.59998876,6.399993658,1,0,0,-13.59998876,6.399993658,1,0,0,0,132,132,40,1,,,,,,,,
,,,,,,,,,,,,,FF,,,,,,,,1.9127,,,,,,,,,,,,,,,,,,,,,,60ff13e4113921388277a1a7,61036cf95c6680df8f8c5d13,2021-07-29_22h08.41.743,Simcolourproject_2stim_asymm_v5,2020.2.10,Win32,60,61025ae37ef11b136ea224fe,,,,,,,,,1190,47.20001215,80.79999477,1,0,0,response1disk,,7,-11.99998873,-9.60000658,1,0,0,rectangle,-11.99998873,-9.60000658,1,0,0,-11.99998873,-9.60000658,1,0,0,0,133,133,129,1,,,,,,,,
,,,,,,,,,,,,,FF,,,,,,,,3.8369,,,,,,,,,,,,,,,,,,,,,,60ff13e4113921388277a1a7,61036cf95c6680df8f8c5d13,2021-07-29_22h08.41.743,Simcolourproject_2stim_asymm_v5,2020.2.10,Win32,60,61025ae37ef11b136ea224fe,,,,,,,,,2485,-104.7999901,-46.40000713,1,0,0,response5disk,,2,-0.799988568,0.799993575,1,0,0,rectangle,-0.799988568,0.799993575,1,0,0,-0.799988568,0.799993575,1,0,0,0,134,134,131,1,,,,,,,,
,,,,,,,,,,,,,FF,,,,,,,,1.4142,,,,,,,,,,,,,,,,,,,,,,60ff13e4113921388277a1a7,61036cf95c6680df8f8c5d13,2021-07-29_22h08.41.743,Simcolourproject_2stim_asymm_v5,2020.2.10,Win32,60,61025ae37ef11b136ea224fe,,,,,,,,,955,76.00001258,66.39999455,1,0,0,response1disk,,6,4.000011504,0.799993575,1,0,0,rectangle,-99.19999003,62.39999449,1,0,0,1.600060296,5.599993646,1,0,0,0,135,135,87,1,,response7disk_3,TRUE,1,1,"[290,73,112,43,0,54,27,154,181,297,310,86,80,38,136,269,5,140,0,220]",1.9278,rectangle
,,,,,,,,,,,,,FF,,,,,,,,30.2996,,,,,,,,,,,,,,,,,,,,,,60ff13e4113921388277a1a7,61036cf95c6680df8f8c5d13,2021-07-29_22h08.41.743,Simcolourproject_2stim_asymm_v5,2020.2.10,Win32,60,61025ae37ef11b136ea224fe,,,,,,,,,1505,-44.79998922,-101.6000568,1,0,0,response5disk,,3,1.600060296,7.999993682,1,0,0,rectangle,1.600060296,7.999993682,1,0,0,1.600060296,7.999993682,1,0,0,0,136,136,151,1,,,,,,,,
,,,,,,,,,,,,,FF,,,,,,,,3.1483,,,,,,,,,,,,,,,,,,,,,,60ff13e4113921388277a1a7,61036cf95c6680df8f8c5d13,2021-07-29_22h08.41.743,Simcolourproject_2stim_asymm_v5,2020.2.10,Win32,60,61025ae37ef11b136ea224fe,,,,,,,,,3705,-50.39994048,75.9999947,1,0,0,response7disk,,0,-3.999988616,3.999993622,1,0,0,rectangle,-3.999988616,3.999993622,1,0,0,-3.999988616,3.999993622,1,0,0,0,137,137,110,1,,,,,,,,
,,,,,,,,,,,,,FF,,,,,,,,1.8861,,,,,,,,,,,,,,,,,,,,,,60ff13e4113921388277a1a7,61036cf95c6680df8f8c5d13,2021-07-29_22h08.41.743,Simcolourproject_2stim_asymm_v5,2020.2.10,Win32,60,61025ae37ef11b136ea224fe,,,,,,,,,3293,-39.19998914,-76.80000758,0,0,1,response5disk,,3,20.00001174,0.799993575,1,0,0,rectangle,20.00001174,0.799993575,1,0,0,20.00001174,0.799993575,1,0,0,0,138,138,96,1,,,,,,,,
,,,,,,,,,,,,,FF,,,,,,,,1.55,,,,,,,,,,,,,,,,,,,,,,60ff13e4113921388277a1a7,61036cf95c6680df8f8c5d13,2021-07-29_22h08.41.743,Simcolourproject_2stim_asymm_v5,2020.2.10,Win32,60,61025ae37ef11b136ea224fe,,,,,,,,,2390,62.40001237,39.19996973,1,0,0,response1disk,,6,-26.39994012,8.799993694,1,0,0,rectangle,42.40001208,-121.6000571,1,0,0,-1.59998858,4.799993634,1,0,0,0,139,139,123,1,,response3disk_3,TRUE,4,4,"[290,73,112,43,0,54,27,154,181,297,310,86,80,38,136,269,5,140,0,220]",1.8141,rectangle
,,,,,,,,,,,,,FF,,,,,,,,1.3997,,,,,,,,,,,,,,,,,,,,,,60ff13e4113921388277a1a7,61036cf95c6680df8f8c5d13,2021-07-29_22h08.41.743,Simcolourproject_2stim_asymm_v5,2020.2.10,Win32,60,61025ae37ef11b136ea224fe,,,,,,,,,2279,65.60001242,31.99999404,1,0,0,response1disk,,6,5.600060356,7.19999367,1,0,0,rectangle,5.600060356,7.19999367,1,0,0,5.600060356,7.19999367,1,0,0,0,140,140,152,1,,,,,,,,
,,,,,,,,,,,,,FF,,,,,,,,1.4871,,,,,,,,,,,,,,,,,,,,,,60ff13e4113921388277a1a7,61036cf95c6680df8f8c5d13,2021-07-29_22h08.41.743,Simcolourproject_2stim_asymm_v5,2020.2.10,Win32,60,61025ae37ef11b136ea224fe,,,,,,,,,3647,26.40001184,71.19997021,1,0,0,response1disk,,7,5.600060356,9.599993706,1,0,0,rectangle,5.600060356,9.599993706,1,0,0,5.600060356,9.599993706,1,0,0,0,141,141,29,1,,,,,,,,
,,,,,,,,,,,,,FF,,,,,,,,1.2843,,,,,,,,,,,,,,,,,,,,,,60ff13e4113921388277a1a7,61036cf95c6680df8f8c5d13,2021-07-29_22h08.41.743,Simcolourproject_2stim_asymm_v5,2020.2.10,Win32,60,61025ae37ef11b136ea224fe,,,,,,,,,1382,45.60006095,113.5999953,1,0,0,response1disk,,7,2.40001148,6.399993658,1,0,0,rectangle,2.40001148,6.399993658,1,0,0,2.40001148,6.399993658,1,0,0,0,142,142,33,1,,,,,,,,
,,,,,,,,,,,,,FF,,,,,,,,1.0321,,,,,,,,,,,,,,,,,,,,,,60ff13e4113921388277a1a7,61036cf95c6680df8f8c5d13,2021-07-29_22h08.41.743,Simcolourproject_2stim_asymm_v5,2020.2.10,Win32,60,61025ae37ef11b136ea224fe,,,,,,,,,2376,48.00001216,89.5999949,1,0,0,response1disk,,7,-1.59998858,13.59999377,1,0,0,rectangle,-1.59998858,13.59999377,1,0,0,-1.59998858,13.59999377,1,0,0,0,143,143,102,1,,,,,,,,
,,,,,,,,,,,,,FF,,,,,,,,1.3828,,,,,,,,,,,,,,,,,,,,,,60ff13e4113921388277a1a7,61036cf95c6680df8f8c5d13,2021-07-29_22h08.41.743,Simcolourproject_2stim_asymm_v5,2020.2.10,Win32,60,61025ae37ef11b136ea224fe,,,,,,,,,2347,-26.39994012,-83.20000768,1,0,0,response5disk,,3,0.800011456,-6.4373E-06,1,0,0,rectangle,0.800011456,-6.4373E-06,1,0,0,0.800011456,-6.4373E-06,1,0,0,0,144,144,138,1,,,,,,,,
,,,,,,,,,,,,,FF,,,,,,,,1.1329,,,,,,,,,,,,,,,,,,,,,,60ff13e4113921388277a1a7,61036cf95c6680df8f8c5d13,2021-07-29_22h08.41.743,Simcolourproject_2stim_asymm_v5,2020.2.10,Win32,60,61025ae37ef11b136ea224fe,,,,,,,,,3936,-46.39994042,87.19997045,1,0,0,response7disk,,0,-11.19998872,4.799993634,1,0,0,rectangle,-11.19998872,4.799993634,1,0,0,-11.19998872,4.799993634,1,0,0,0,145,145,98,1,,,,,,,,
,,,,,,,,,,,,,FF,,,,,,,,1.7666,,,,,,,,,,,,,,,,,,,,,,60ff13e4113921388277a1a7,61036cf95c6680df8f8c5d13,2021-07-29_22h08.41.743,Simcolourproject_2stim_asymm_v5,2020.2.10,Win32,60,61025ae37ef11b136ea224fe,,,,,,,,,2894,-83.99998981,-72.80000752,1,0,0,response5disk,,2,1.14441E-05,-6.4373E-06,1,0,0,rectangle,1.14441E-05,-6.4373E-06,1,0,0,1.14441E-05,-6.4373E-06,1,0,0,0,146,146,133,1,,,,,,,,
,,,,,,,,,,,,,FF,,,,,,,,1.0669,,,,,,,,,,,,,,,,,,,,,,60ff13e4113921388277a1a7,61036cf95c6680df8f8c5d13,2021-07-29_22h08.41.743,Simcolourproject_2stim_asymm_v5,2020.2.10,Win32,60,61025ae37ef11b136ea224fe,,,,,,,,,3921,-49.5999893,-71.2000075,1,0,0,response5disk,,3,-7.999988675,14.39999378,1,0,0,rectangle,-7.999988675,14.39999378,1,0,0,-7.999988675,14.39999378,1,0,0,0,147,147,72,1,,,,,,,,
,,,,,,,,,,,,,FF,,,,,,,,1.0332,,,,,,,,,,,,,,,,,,,,,,60ff13e4113921388277a1a7,61036cf95c6680df8f8c5d13,2021-07-29_22h08.41.743,Simcolourproject_2stim_asymm_v5,2020.2.10,Win32,60,61025ae37ef11b136ea224fe,,,,,,,,,3567,25.60006065,65.59999454,1,0,0,response1disk,,7,8.000011563,9.599993706,1,0,0,rectangle,8.000011563,9.599993706,1,0,0,8.000011563,9.599993706,1,0,0,0,148,148,58,1,,,,,,,,
,,,,,,,,,,,,,FF,,,,,,,,1.0001,,,,,,,,,,,,,,,,,,,,,,60ff13e4113921388277a1a7,61036cf95c6680df8f8c5d13,2021-07-29_22h08.41.743,Simcolourproject_2stim_asymm_v5,2020.2.10,Win32,60,61025ae37ef11b136ea224fe,,,,,,,,,1518,22.40001178,45.59999424,1,0,0,response1disk,,7,-2.399939764,-2.400006473,1,0,0,rectangle,-2.399939764,-2.400006473,1,0,0,-2.399939764,-2.400006473,1,0,0,0,149,149,90,1,,,,,,,,
,,,,,,,,,,,,,FF,,,,,,,,0.9668,,,,,,,,,,,,,,,,,,,,,,60ff13e4113921388277a1a7,61036cf95c6680df8f8c5d13,2021-07-29_22h08.41.743,Simcolourproject_2stim_asymm_v5,2020.2.10,Win32,60,61025ae37ef11b136ea224fe,,,,,,,,,324,28.80001187,75.9999947,1,0,0,response1disk,,7,-6.399939823,-0.800006449,1,0,0,rectangle,-6.399939823,-0.800006449,1,0,0,-6.399939823,-0.800006449,1,0,0,0,150,150,126,1,,,,,,,,
,,,,,,,,,,,,,FF,,,,,,,,1.5501,,,,,,,,,,,,,,,,,,,,,,60ff13e4113921388277a1a7,61036cf95c6680df8f8c5d13,2021-07-29_22h08.41.743,Simcolourproject_2stim_asymm_v5,2020.2.10,Win32,60,61025ae37ef11b136ea224fe,,,,,,,,,2928,29.60006071,75.19997027,1,0,0,response1disk,,7,6.400011539,4.799993634,1,0,0,rectangle,6.400011539,4.799993634,1,0,0,6.400011539,4.799993634,1,0,0,0,151,151,153,1,,,,,,,,
,,,,,,,,,,,,,FF,,,,,,,,1.2998,,,,,,,,,,,,,,,,,,,,,,60ff13e4113921388277a1a7,61036cf95c6680df8f8c5d13,2021-07-29_22h08.41.743,Simcolourproject_2stim_asymm_v5,2020.2.10,Win32,60,61025ae37ef11b136ea224fe,,,,,,,,,3610,28.00001186,52.79999435,1,0,0,response1disk,,7,1.600060296,-0.800006449,1,0,0,rectangle,1.600060296,-0.800006449,1,0,0,1.600060296,-0.800006449,1,0,0,0,152,152,68,1,,,,,,,,
,,,,,,,,,,,,,FF,,,,,,,,1.5835,,,,,,,,,,,,,,,,,,,,,,60ff13e4113921388277a1a7,61036cf95c6680df8f8c5d13,2021-07-29_22h08.41.743,Simcolourproject_2stim_asymm_v5,2020.2.10,Win32,60,61025ae37ef11b136ea224fe,,,,,,,,,508,21.60006059,40.79999417,1,0,0,response1disk,,7,2.40001148,-5.600006521,1,0,0,rectangle,-57.59998941,100.7999951,1,0,0,-6.399939823,0.799993575,1,0,0,0,153,153,10,1,,response7disk_3,TRUE,0,0,"[290,73,112,43,0,54,27,154,181,297,310,86,80,38,136,269,5,140,0,220]",3.5826,rectangle
,,,,,,,,,,,,,FF,,,,,,,,1.9833,,,,,,,,,,,,,,,,,,,,,,60ff13e4113921388277a1a7,61036cf95c6680df8f8c5d13,2021-07-29_22h08.41.743,Simcolourproject_2stim_asymm_v5,2020.2.10,Win32,60,61025ae37ef11b136ea224fe,,,,,,,,,2726,66.40001243,-26.40000683,1,0,0,response3disk,,5,-24.79998893,-6.4373E-06,1,0,0,rectangle,-24.79998893,-6.4373E-06,1,0,0,-24.79998893,-6.4373E-06,1,0,0,0,154,154,16,1,,,,,,,,
,,,,,,,,,,,,,FF,,,,,,,,1.9331,,,,,,,,,,,,,,,,,,,,,,60ff13e4113921388277a1a7,61036cf95c6680df8f8c5d13,2021-07-29_22h08.41.743,Simcolourproject_2stim_asymm_v5,2020.2.10,Win32,60,61025ae37ef11b136ea224fe,,,,,,,,,4338,-59.19998944,-67.20000744,1,0,0,response5disk,,3,-7.199988663,7.19999367,1,0,0,rectangle,-7.199988663,7.19999367,1,0,0,-7.199988663,7.19999367,1,0,0,0,155,155,142,1,,,,,,,,
,,,,,,,,,,,,,FF,,,,,,,,2.6829,,,,,,,,,,,,,,,,,,,,,,60ff13e4113921388277a1a7,61036cf95c6680df8f8c5d13,2021-07-29_22h08.41.743,Simcolourproject_2stim_asymm_v5,2020.2.10,Win32,60,61025ae37ef11b136ea224fe,,,,,,,,,2786,89.60001278,41.59999418,1,0,0,response1disk,,6,-1.59998858,-3.200006485,1,0,0,rectangle,-1.59998858,-3.200006485,1,0,0,-1.59998858,-3.200006485,1,0,0,0,156,156,136,1,,,,,,,,
,,,,,,,,,,,,,FF,,,,,,,,1.4166,,,,,,,,,,,,,,,,,,,,,,60ff13e4113921388277a1a7,61036cf95c6680df8f8c5d13,2021-07-29_22h08.41.743,Simcolourproject_2stim_asymm_v5,2020.2.10,Win32,60,61025ae37ef11b136ea224fe,,,,,,,,,2836,-26.39994012,-60.80000734,1,0,0,response5disk,,3,2.40001148,7.19999367,1,0,0,rectangle,2.40001148,7.19999367,1,0,0,2.40001148,7.19999367,1,0,0,0,157,157,91,1,,,,,,,,
,,,,,,,,,,,,,FF,,,,,,,,0.9665,,,,,,,,,,,,,,,,,,,,,,60ff13e4113921388277a1a7,61036cf95c6680df8f8c5d13,2021-07-29_22h08.41.743,Simcolourproject_2stim_asymm_v5,2020.2.10,Win32,60,61025ae37ef11b136ea224fe,,,,,,,,,649,20.00001174,43.99999422,1,0,0,response1disk,,7,-5.599988639,-4.800006509,1,0,0,rectangle,-5.599988639,-4.800006509,1,0,0,-5.599988639,-4.800006509,1,0,0,0,158,158,50,1,,,,,,,,
,,,,,,,,,,,,,FF,,,,,,,,1.1334,,,,,,,,,,,,,,,,,,,,,,60ff13e4113921388277a1a7,61036cf95c6680df8f8c5d13,2021-07-29_22h08.41.743,Simcolourproject_2stim_asymm_v5,2020.2.10,Win32,60,61025ae37ef11b136ea224fe,,,,,,,,,3335,25.60006065,73.59999466,1,0,0,response1disk,,7,-15.99998879,-6.4373E-06,1,0,0,rectangle,-15.99998879,-6.4373E-06,1,0,0,-15.99998879,-6.4373E-06,1,0,0,0,159,159,139,1,,,,,,,,
,,,,,,,,,,,,,FF,,,,,,,,2.5531,,,,,,,,,,,,,,,,,,,,,,60ff13e4113921388277a1a7,61036cf95c6680df8f8c5d13,2021-07-29_22h08.41.743,Simcolourproject_2stim_asymm_v5,2020.2.10,Win32,60,61025ae37ef11b136ea224fe,,,,,,,,,2164,-38.3999403,-100.8000079,1,0,0,response5disk,,3,-2.399939764,1.599993587,1,0,0,rectangle,-2.399939764,1.599993587,1,0,0,-2.399939764,1.599993587,1,0,0,1,0,160,152,1,,,,,,,,
,,,,,,,,,,,,,FF,,,,,,,,1.0834,,,,,,,,,,,,,,,,,,,,,,60ff13e4113921388277a1a7,61036cf95c6680df8f8c5d13,2021-07-29_22h08.41.743,Simcolourproject_2stim_asymm_v5,2020.2.10,Win32,60,61025ae37ef11b136ea224fe,,,,,,,,,1984,30.4000119,51.99999434,1,0,0,response1disk,,7,-8.799988687,6.399993658,1,0,0,rectangle,-8.799988687,6.399993658,1,0,0,-8.799988687,6.399993658,1,0,0,1,1,161,71,1,,,,,,,,
,,,,,,,,,,,,,FF,,,,,,,,1.2166,,,,,,,,,,,,,,,,,,,,,,60ff13e4113921388277a1a7,61036cf95c6680df8f8c5d13,2021-07-29_22h08.41.743,Simcolourproject_2stim_asymm_v5,2020.2.10,Win32,60,61025ae37ef11b136ea224fe,,,,,,,,,1387,22.40001178,93.59999496,1,0,0,response1disk,,7,-10.39993988,0.799993575,1,0,0,rectangle,-10.39993988,0.799993575,1,0,0,-10.39993988,0.799993575,1,0,0,1,2,162,117,1,,,,,,,,
,,,,,,,,,,,,,FF,,,,,,,,0.9831,,,,,,,,,,,,,,,,,,,,,,60ff13e4113921388277a1a7,61036cf95c6680df8f8c5d13,2021-07-29_22h08.41.743,Simcolourproject_2stim_asymm_v5,2020.2.10,Win32,60,61025ae37ef11b136ea224fe,,,,,,,,,1095,48.00001216,136.7999956,1,0,0,response1disk,,7,3.200011492,-11.2000066,1,0,0,rectangle,3.200011492,-11.2000066,1,0,0,3.200011492,-11.2000066,1,0,0,1,3,163,40,1,,,,,,,,
,,,,,,,,,,,,,FF,,,,,,,,1.6166,,,,,,,,,,,,,,,,,,,,,,60ff13e4113921388277a1a7,61036cf95c6680df8f8c5d13,2021-07-29_22h08.41.743,Simcolourproject_2stim_asymm_v5,2020.2.10,Win32,60,61025ae37ef11b136ea224fe,,,,,,,,,4346,-59.99998945,35.9999941,1,0,0,response7disk,,1,-1.59998858,-2.400006473,1,0,0,rectangle,-1.59998858,-2.400006473,1,0,0,-1.59998858,-2.400006473,1,0,0,1,4,164,110,1,,,,,,,,
,,,,,,,,,,,,,FF,,,,,,,,1.5664,,,,,,,,,,,,,,,,,,,,,,60ff13e4113921388277a1a7,61036cf95c6680df8f8c5d13,2021-07-29_22h08.41.743,Simcolourproject_2stim_asymm_v5,2020.2.10,Win32,60,61025ae37ef11b136ea224fe,,,,,,,,,2212,36.80001199,119.1999709,1,0,0,response1disk,,7,-11.99998873,7.19999367,1,0,0,rectangle,-11.99998873,7.19999367,1,0,0,-11.99998873,7.19999367,1,0,0,1,5,165,82,1,,,,,,,,
,,,,,,,,,,,,,FF,,,,,,,,1.8161,,,,,,,,,,,,,,,,,,,,,,60ff13e4113921388277a1a7,61036cf95c6680df8f8c5d13,2021-07-29_22h08.41.743,Simcolourproject_2stim_asymm_v5,2020.2.10,Win32,60,61025ae37ef11b136ea224fe,,,,,,,,,4155,37.60006083,51.99999434,1,0,0,response1disk,,7,-7.199988663,-12.80000663,1,0,0,rectangle,-7.199988663,-12.80000663,1,0,0,-7.199988663,-12.80000663,1,0,0,1,6,166,60,1,,,,,,,,
,,,,,,,,,,,,,FF,,,,,,,,1.4998,,,,,,,,,,,,,,,,,,,,,,60ff13e4113921388277a1a7,61036cf95c6680df8f8c5d13,2021-07-29_22h08.41.743,Simcolourproject_2stim_asymm_v5,2020.2.10,Win32,60,61025ae37ef11b136ea224fe,,,,,,,,,3907,-30.39994018,-55.20000726,1,0,0,response5disk,,3,-1.59998858,13.59999377,1,0,0,rectangle,-1.59998858,13.59999377,1,0,0,-1.59998858,13.59999377,1,0,0,1,7,167,155,1,,,,,,,,
,,,,,,,,,,,,,FF,,,,,,,,1.5338,,,,,,,,,,,,,,,,,,,,,,60ff13e4113921388277a1a7,61036cf95c6680df8f8c5d13,2021-07-29_22h08.41.743,Simcolourproject_2stim_asymm_v5,2020.2.10,Win32,60,61025ae37ef11b136ea224fe,,,,,,,,,1535,100.8000129,45.59999424,1,0,0,response1disk,,6,-5.599988639,-2.400006473,1,0,0,rectangle,-5.599988639,-2.400006473,1,0,0,-5.599988639,-2.400006473,1,0,0,1,8,168,143,1,,,,,,,,
,,,,,,,,,,,,,FF,,,,,,,,1.4499,,,,,,,,,,,,,,,,,,,,,,60ff13e4113921388277a1a7,61036cf95c6680df8f8c5d13,2021-07-29_22h08.41.743,Simcolourproject_2stim_asymm_v5,2020.2.10,Win32,60,61025ae37ef11b136ea224fe,,,,,,,,,3981,42.40001208,87.99999487,1,0,0,response1disk,,7,-1.59998858,2.399993598,1,0,0,rectangle,-1.59998858,2.399993598,1,0,0,-1.59998858,2.399993598,1,0,0,1,9,169,128,1,,,,,,,,
,,,,,,,,,,,,,FF,,,,,,,,1.3331,,,,,,,,,,,,,,,,,,,,,,60ff13e4113921388277a1a7,61036cf95c6680df8f8c5d13,2021-07-29_22h08.41.743,Simcolourproject_2stim_asymm_v5,2020.2.10,Win32,60,61025ae37ef11b136ea224fe,,,,,,,,,3448,81.60001266,42.39999419,1,0,0,response1disk,,6,14.40001166,9.599993706,1,0,0,rectangle,14.40001166,9.599993706,1,0,0,14.40001166,9.599993706,1,0,0,1,10,170,39,1,,,,,,,,
,,,,,,,,,,,,,FF,,,,,,,,5.1322,,,,,,,,,,,,,,,,,,,,,,60ff13e4113921388277a1a7,61036cf95c6680df8f8c5d13,2021-07-29_22h08.41.743,Simcolourproject_2stim_asymm_v5,2020.2.10,Win32,60,61025ae37ef11b136ea224fe,,,,,,,,,797,48.00001216,94.39999497,1,0,0,response1disk,,7,-3.999988616,-3.200006485,1,0,0,rectangle,-3.999988616,-3.200006485,1,0,0,-3.999988616,-3.200006485,1,0,0,1,11,171,15,1,,,,,,,,
,,,,,,,,,,,,,FF,,,,,,,,1.9333,,,,,,,,,,,,,,,,,,,,,,60ff13e4113921388277a1a7,61036cf95c6680df8f8c5d13,2021-07-29_22h08.41.743,Simcolourproject_2stim_asymm_v5,2020.2.10,Win32,60,61025ae37ef11b136ea224fe,,,,,,,,,2364,38.40001202,-98.4000079,1,0,0,response3disk,,4,2.40001148,8.799993694,1,0,0,rectangle,2.40001148,8.799993694,1,0,0,2.40001148,8.799993694,1,0,0,1,12,172,111,1,,,,,,,,
,,,,,,,,,,,,,FF,,,,,,,,1.151,,,,,,,,,,,,,,,,,,,,,,60ff13e4113921388277a1a7,61036cf95c6680df8f8c5d13,2021-07-29_22h08.41.743,Simcolourproject_2stim_asymm_v5,2020.2.10,Win32,60,61025ae37ef11b136ea224fe,,,,,,,,,627,28.80001187,65.59999454,1,0,0,response1disk,,7,-1.59998858,7.19999367,1,0,0,rectangle,-1.59998858,7.19999367,1,0,0,-1.59998858,7.19999367,1,0,0,1,13,173,146,1,,,,,,,,
,,,,,,,,,,,,,FF,,,,,,,,2.6331,,,,,,,,,,,,,,,,,,,,,,60ff13e4113921388277a1a7,61036cf95c6680df8f8c5d13,2021-07-29_22h08.41.743,Simcolourproject_2stim_asymm_v5,2020.2.10,Win32,60,61025ae37ef11b136ea224fe,,,,,,,,,4047,81.60001266,-41.60000706,1,0,0,response3disk,,5,-1.59998858,-0.800006449,1,0,0,rectangle,-1.59998858,-0.800006449,1,0,0,-1.59998858,-0.800006449,1,0,0,1,14,174,95,1,,,,,,,,
,,,,,,,,,,,,,FF,,,,,,,,1.2669,,,,,,,,,,,,,,,,,,,,,,60ff13e4113921388277a1a7,61036cf95c6680df8f8c5d13,2021-07-29_22h08.41.743,Simcolourproject_2stim_asymm_v5,2020.2.10,Win32,60,61025ae37ef11b136ea224fe,,,,,,,,,253,-73.59998965,-42.40000707,1,0,0,response5disk,,2,6.400011539,3.999993622,1,0,0,rectangle,6.400011539,3.999993622,1,0,0,6.400011539,3.999993622,1,0,0,1,15,175,132,1,,,,,,,,
,,,,,,,,,,,,,FF,,,,,,,,1.1499,,,,,,,,,,,,,,,,,,,,,,60ff13e4113921388277a1a7,61036cf95c6680df8f8c5d13,2021-07-29_22h08.41.743,Simcolourproject_2stim_asymm_v5,2020.2.10,Win32,60,61025ae37ef11b136ea224fe,,,,,,,,,4290,50.4000122,99.99999505,1,0,0,response1disk,,7,2.40001148,-3.200006485,1,0,0,rectangle,2.40001148,-3.200006485,1,0,0,2.40001148,-3.200006485,1,0,0,1,16,176,105,1,,,,,,,,
,,,,,,,,,,,,,FF,,,,,,,,4.0491,,,,,,,,,,,,,,,,,,,,,,60ff13e4113921388277a1a7,61036cf95c6680df8f8c5d13,2021-07-29_22h08.41.743,Simcolourproject_2stim_asymm_v5,2020.2.10,Win32,60,61025ae37ef11b136ea224fe,,,,,,,,,606,88.80001277,67.99999458,1,0,0,response1disk,,6,-3.199988604,0.799993575,1,0,0,rectangle,-3.199988604,0.799993575,1,0,0,-3.199988604,0.799993575,1,0,0,1,17,177,158,1,,,,,,,,
,,,,,,,,,,,,,FF,,,,,,,,0.9001,,,,,,,,,,,,,,,,,,,,,,60ff13e4113921388277a1a7,61036cf95c6680df8f8c5d13,2021-07-29_22h08.41.743,Simcolourproject_2stim_asymm_v5,2020.2.10,Win32,60,61025ae37ef11b136ea224fe,,,,,,,,,1492,20.80001175,91.99999493,1,0,0,response1disk,,7,-12.79998875,10.39999372,1,0,0,rectangle,-12.79998875,10.39999372,1,0,0,-12.79998875,10.39999372,1,0,0,1,18,178,26,1,,,,,,,,
,,,,,,,,,,,,,FF,,,,,,,,0.917,,,,,,,,,,,,,,,,,,,,,,60ff13e4113921388277a1a7,61036cf95c6680df8f8c5d13,2021-07-29_22h08.41.743,Simcolourproject_2stim_asymm_v5,2020.2.10,Win32,60,61025ae37ef11b136ea224fe,,,,,,,,,3164,29.60006071,134.3999956,1,0,0,response1disk,,7,-7.999988675,16.79999381,1,0,0,rectangle,-7.999988675,16.79999381,1,0,0,-7.999988675,16.79999381,1,0,0,1,19,179,159,1,,,,,,,,
,,,,,,,,,,,,,FF,,,,,,,,2.2334,,,,,,,,,,,,,,,,,,,,,,60ff13e4113921388277a1a7,61036cf95c6680df8f8c5d13,2021-07-29_22h08.41.743,Simcolourproject_2stim_asymm_v5,2020.2.10,Win32,60,61025ae37ef11b136ea224fe,,,,,,,,,4189,55.20001227,-110.4000081,1,0,0,response3disk,,4,-4.799988627,5.599993646,1,0,0,rectangle,-84.79998982,-55.20000726,1,0,0,-7.999988675,11.19999373,1,0,0,1,20,180,121,1,,response5disk_3,TRUE,2,2,"[290,73,112,43,0,54,27,154,181,297,310,86,80,38,136,269,5,140,0,220]",2.1516,rectangle
,,,,,,,,,,,,,FF,,,,,,,,1.8832,,,,,,,,,,,,,,,,,,,,,,60ff13e4113921388277a1a7,61036cf95c6680df8f8c5d13,2021-07-29_22h08.41.743,Simcolourproject_2stim_asymm_v5,2020.2.10,Win32,60,61025ae37ef11b136ea224fe,,,,,,,,,1336,40.80001205,71.99999464,1,0,0,response1disk,,7,1.14441E-05,-13.60000664,1,0,0,rectangle,1.14441E-05,-13.60000664,1,0,0,1.14441E-05,-13.60000664,1,0,0,1,21,181,32,1,,,,,,,,
,,,,,,,,,,,,,FF,,,,,,,,1.2306,,,,,,,,,,,,,,,,,,,,,,60ff13e4113921388277a1a7,61036cf95c6680df8f8c5d13,2021-07-29_22h08.41.743,Simcolourproject_2stim_asymm_v5,2020.2.10,Win32,60,61025ae37ef11b136ea224fe,,,,,,,,,2958,49.60006101,105.5999951,1,0,0,response1disk,,7,-7.999988675,-9.60000658,1,0,0,rectangle,-7.999988675,-9.60000658,1,0,0,-7.999988675,-9.60000658,1,0,0,1,22,182,85,1,,,,,,,,
,,,,,,,,,,,,,FF,,,,,,,,1.2665,,,,,,,,,,,,,,,,,,,,,,60ff13e4113921388277a1a7,61036cf95c6680df8f8c5d13,2021-07-29_22h08.41.743,Simcolourproject_2stim_asymm_v5,2020.2.10,Win32,60,61025ae37ef11b136ea224fe,,,,,,,,,2335,29.60006071,79.19997033,1,0,0,response1disk,,7,-2.399939764,11.99999374,1,0,0,rectangle,-2.399939764,11.99999374,1,0,0,-2.399939764,11.99999374,1,0,0,1,23,183,1,1,,,,,,,,
,,,,,,,,,,,,,FF,,,,,,,,4.967,,,,,,,,,,,,,,,,,,,,,,60ff13e4113921388277a1a7,61036cf95c6680df8f8c5d13,2021-07-29_22h08.41.743,Simcolourproject_2stim_asymm_v5,2020.2.10,Win32,60,61025ae37ef11b136ea224fe,,,,,,,,,799,36.00001198,75.19997027,1,0,0,response1disk,,7,-6.399939823,-4.000006497,1,0,0,rectangle,-6.399939823,-4.000006497,1,0,0,-6.399939823,-4.000006497,1,0,0,1,24,184,28,1,,,,,,,,
,,,,,,,,,,,,,FF,,,,,,,,2.6796,,,,,,,,,,,,,,,,,,,,,,60ff13e4113921388277a1a7,61036cf95c6680df8f8c5d13,2021-07-29_22h08.41.743,Simcolourproject_2stim_asymm_v5,2020.2.10,Win32,60,61025ae37ef11b136ea224fe,,,,,,,,,3036,36.80001199,-112.0000081,1,0,0,response3disk,,4,-1.59998858,-3.200006485,1,0,0,rectangle,-1.59998858,-3.200006485,1,0,0,-1.59998858,-3.200006485,1,0,0,1,25,185,76,1,,,,,,,,
,,,,,,,,,,,,,FF,,,,,,,,1.7672,,,,,,,,,,,,,,,,,,,,,,60ff13e4113921388277a1a7,61036cf95c6680df8f8c5d13,2021-07-29_22h08.41.743,Simcolourproject_2stim_asymm_v5,2020.2.10,Win32,60,61025ae37ef11b136ea224fe,,,,,,,,,3861,34.40001196,77.59999472,1,0,0,response1disk,,7,1.600060296,9.599993706,1,0,0,rectangle,1.600060296,9.599993706,1,0,0,1.600060296,9.599993706,1,0,0,1,26,186,106,1,,,,,,,,
,,,,,,,,,,,,,FF,,,,,,,,1.8002,,,,,,,,,,,,,,,,,,,,,,60ff13e4113921388277a1a7,61036cf95c6680df8f8c5d13,2021-07-29_22h08.41.743,Simcolourproject_2stim_asymm_v5,2020.2.10,Win32,60,61025ae37ef11b136ea224fe,,,,,,,,,610,44.0000121,92.79999495,1,0,0,response1disk,,7,12.00001162,0.799993575,1,0,0,rectangle,12.00001162,0.799993575,1,0,0,12.00001162,0.799993575,1,0,0,1,27,187,141,1,,,,,,,,
,,,,,,,,,,,,,FF,,,,,,,,0.9466,,,,,,,,,,,,,,,,,,,,,,60ff13e4113921388277a1a7,61036cf95c6680df8f8c5d13,2021-07-29_22h08.41.743,Simcolourproject_2stim_asymm_v5,2020.2.10,Win32,60,61025ae37ef11b136ea224fe,,,,,,,,,1863,52.00001222,99.99999505,1,0,0,response1disk,,7,-2.399939764,-15.20000666,1,0,0,rectangle,-2.399939764,-15.20000666,1,0,0,-2.399939764,-15.20000666,1,0,0,1,28,188,131,1,,,,,,,,
,,,,,,,,,,,,,FF,,,,,,,,0.8296,,,,,,,,,,,,,,,,,,,,,,60ff13e4113921388277a1a7,61036cf95c6680df8f8c5d13,2021-07-29_22h08.41.743,Simcolourproject_2stim_asymm_v5,2020.2.10,Win32,60,61025ae37ef11b136ea224fe,,,,,,,,,2813,24.0000118,65.59999454,1,0,0,response1disk,,7,2.40001148,6.399993658,1,0,0,rectangle,2.40001148,6.399993658,1,0,0,2.40001148,6.399993658,1,0,0,1,29,189,136,1,,,,,,,,
,,,,,,,,,,,,,FF,,,,,,,,1.1297,,,,,,,,,,,,,,,,,,,,,,60ff13e4113921388277a1a7,61036cf95c6680df8f8c5d13,2021-07-29_22h08.41.743,Simcolourproject_2stim_asymm_v5,2020.2.10,Win32,60,61025ae37ef11b136ea224fe,,,,,,,,,3445,42.40001208,113.5999953,1,0,0,response1disk,,7,0.800011456,0.799993575,1,0,0,rectangle,0.800011456,0.799993575,1,0,0,0.800011456,0.799993575,1,0,0,1,30,190,29,1,,,,,,,,
,,,,,,,,,,,,,FF,,,,,,,,2.1462,,,,,,,,,,,,,,,,,,,,,,60ff13e4113921388277a1a7,61036cf95c6680df8f8c5d13,2021-07-29_22h08.41.743,Simcolourproject_2stim_asymm_v5,2020.2.10,Win32,60,61025ae37ef11b136ea224fe,,,,,,,,,1278,25.60006065,63.99999452,1,0,0,response1disk,,7,-8.799988687,-14.40000665,1,0,0,rectangle,-8.799988687,-14.40000665,1,0,0,-8.799988687,-14.40000665,1,0,0,1,31,191,36,1,,,,,,,,
,,,,,,,,,,,,,FF,,,,,,,,1.1505,,,,,,,,,,,,,,,,,,,,,,60ff13e4113921388277a1a7,61036cf95c6680df8f8c5d13,2021-07-29_22h08.41.743,Simcolourproject_2stim_asymm_v5,2020.2.10,Win32,60,61025ae37ef11b136ea224fe,,,,,,,,,3031,44.0000121,119.9999954,1,0,0,response1disk,,7,-11.99998873,-1.600006461,1,0,0,rectangle,-11.99998873,-1.600006461,1,0,0,-11.99998873,-1.600006461,1,0,0,1,32,192,58,1,,,,,,,,
,,,,,,,,,,,,,FF,,,,,,,,1.7172,,,,,,,,,,,,,,,,,,,,,,60ff13e4113921388277a1a7,61036cf95c6680df8f8c5d13,2021-07-29_22h08.41.743,Simcolourproject_2stim_asymm_v5,2020.2.10,Win32,60,61025ae37ef11b136ea224fe,,,,,,,,,4106,-41.59998918,-85.60005654,1,0,0,response5disk,,3,-5.599988639,-4.800006509,1,0,0,rectangle,-5.599988639,-4.800006509,1,0,0,-5.599988639,-4.800006509,1,0,0,1,33,193,92,1,,,,,,,,
,,,,,,,,,,,,,FF,,,,,,,,1.4622,,,,,,,,,,,,,,,,,,,,,,60ff13e4113921388277a1a7,61036cf95c6680df8f8c5d13,2021-07-29_22h08.41.743,Simcolourproject_2stim_asymm_v5,2020.2.10,Win32,60,61025ae37ef11b136ea224fe,,,,,,,,,233,45.60006095,131.9999955,1,0,0,response1disk,,7,-12.79998875,-7.200006545,1,0,0,rectangle,-12.79998875,-7.200006545,1,0,0,-12.79998875,-7.200006545,1,0,0,1,34,194,83,1,,,,,,,,
,,,,,,,,,,,,,FF,,,,,,,,0.9162,,,,,,,,,,,,,,,,,,,,,,60ff13e4113921388277a1a7,61036cf95c6680df8f8c5d13,2021-07-29_22h08.41.743,Simcolourproject_2stim_asymm_v5,2020.2.10,Win32,60,61025ae37ef11b136ea224fe,,,,,,,,,2342,34.40001196,103.9999951,1,0,0,response1disk,,7,-1.59998858,-1.600006461,1,0,0,rectangle,-1.59998858,-1.600006461,1,0,0,-1.59998858,-1.600006461,1,0,0,1,35,195,154,1,,,,,,,,
,,,,,,,,,,,,,FF,,,,,,,,2.2996,,,,,,,,,,,,,,,,,,,,,,60ff13e4113921388277a1a7,61036cf95c6680df8f8c5d13,2021-07-29_22h08.41.743,Simcolourproject_2stim_asymm_v5,2020.2.10,Win32,60,61025ae37ef11b136ea224fe,,,,,,,,,476,41.60006089,93.59999496,1,0,0,response1disk,,7,4.800011516,3.999993622,1,0,0,rectangle,4.800011516,3.999993622,1,0,0,4.800011516,3.999993622,1,0,0,1,36,196,37,1,,,,,,,,
,,,,,,,,,,,,,FF,,,,,,,,3.0302,,,,,,,,,,,,,,,,,,,,,,60ff13e4113921388277a1a7,61036cf95c6680df8f8c5d13,2021-07-29_22h08.41.743,Simcolourproject_2stim_asymm_v5,2020.2.10,Win32,60,61025ae37ef11b136ea224fe,,,,,,,,,709,30.4000119,91.99999493,1,0,0,response1disk,,7,-2.399939764,-4.800006509,1,0,0,rectangle,-2.399939764,-4.800006509,1,0,0,-2.399939764,-4.800006509,1,0,0,1,37,197,49,1,,,,,,,,
,,,,,,,,,,,,,FF,,,,,,,,1.0299,,,,,,,,,,,,,,,,,,,,,,60ff13e4113921388277a1a7,61036cf95c6680df8f8c5d13,2021-07-29_22h08.41.743,Simcolourproject_2stim_asymm_v5,2020.2.10,Win32,60,61025ae37ef11b136ea224fe,,,,,,,,,1485,32.80001193,84.79999483,1,0,0,response1disk,,7,3.200011492,13.59999377,1,0,0,rectangle,3.200011492,13.59999377,1,0,0,3.200011492,13.59999377,1,0,0,1,38,198,67,1,,,,,,,,
,,,,,,,,,,,,,FF,,,,,,,,1.98,,,,,,,,,,,,,,,,,,,,,,60ff13e4113921388277a1a7,61036cf95c6680df8f8c5d13,2021-07-29_22h08.41.743,Simcolourproject_2stim_asymm_v5,2020.2.10,Win32,60,61025ae37ef11b136ea224fe,,,,,,,,,2654,54.40001225,-57.6000073,1,0,0,response3disk,,4,10.4000116,-6.400006533,1,0,0,rectangle,10.4000116,-6.400006533,1,0,0,10.4000116,-6.400006533,1,0,0,1,39,199,126,1,,,,,,,,
,,,,,,,,,,,,,FF,,,,,,,,4.1454,,,,,,,,,,,,,,,,,,,,,,60ff13e4113921388277a1a7,61036cf95c6680df8f8c5d13,2021-07-29_22h08.41.743,Simcolourproject_2stim_asymm_v5,2020.2.10,Win32,60,61025ae37ef11b136ea224fe,,,,,,,,,3615,62.40001237,-20.80000675,1,0,0,response3disk,,5,5.600060356,11.99999374,1,0,0,rectangle,5.600060356,11.99999374,1,0,0,5.600060356,11.99999374,1,0,0,1,40,200,147,1,,,,,,,,
,,,,,,,,,,,,,FF,,,,,,,,2.9634,,,,,,,,,,,,,,,,,,,,,,60ff13e4113921388277a1a7,61036cf95c6680df8f8c5d13,2021-07-29_22h08.41.743,Simcolourproject_2stim_asymm_v5,2020.2.10,Win32,60,61025ae37ef11b136ea224fe,,,,,,,,,1528,-51.99998933,-92.00000781,1,0,0,response5disk,,3,1.600060296,0.799993575,1,0,0,rectangle,1.600060296,0.799993575,1,0,0,1.600060296,0.799993575,1,0,0,1,41,201,81,1,,,,,,,,
,,,,,,,,,,,,,FF,,,,,,,,0.9212,,,,,,,,,,,,,,,,,,,,,,60ff13e4113921388277a1a7,61036cf95c6680df8f8c5d13,2021-07-29_22h08.41.743,Simcolourproject_2stim_asymm_v5,2020.2.10,Win32,60,61025ae37ef11b136ea224fe,,,,,,,,,4314,28.80001187,95.19997057,1,0,0,response1disk,,7,-12.79998875,-4.800006509,1,0,0,rectangle,-12.79998875,-4.800006509,1,0,0,-12.79998875,-4.800006509,1,0,0,1,42,202,50,1,,,,,,,,
,,,,,,,,,,,,,FF,,,,,,,,2.8128,,,,,,,,,,,,,,,,,,,,,,60ff13e4113921388277a1a7,61036cf95c6680df8f8c5d13,2021-07-29_22h08.41.743,Simcolourproject_2stim_asymm_v5,2020.2.10,Win32,60,61025ae37ef11b136ea224fe,,,,,,,,,1534,93.60001284,56.79999441,1,0,0,response1disk,,6,-0.799988568,11.19999373,1,0,0,rectangle,-0.799988568,11.19999373,1,0,0,-0.799988568,11.19999373,1,0,0,1,43,203,21,1,,,,,,,,
,,,,,,,,,,,,,FF,,,,,,,,1.3963,,,,,,,,,,,,,,,,,,,,,,60ff13e4113921388277a1a7,61036cf95c6680df8f8c5d13,2021-07-29_22h08.41.743,Simcolourproject_2stim_asymm_v5,2020.2.10,Win32,60,61025ae37ef11b136ea224fe,,,,,,,,,3073,19.20001173,76.79999471,1,0,0,response1disk,,7,-4.799988627,-0.800006449,1,0,0,rectangle,-4.799988627,-0.800006449,1,0,0,-4.799988627,-0.800006449,1,0,0,1,44,204,145,1,,,,,,,,
,,,,,,,,,,,,,FF,,,,,,,,0.8504,,,,,,,,,,,,,,,,,,,,,,60ff13e4113921388277a1a7,61036cf95c6680df8f8c5d13,2021-07-29_22h08.41.743,Simcolourproject_2stim_asymm_v5,2020.2.10,Win32,60,61025ae37ef11b136ea224fe,,,,,,,,,2626,29.60006071,73.59999466,1,0,0,response1disk,,7,3.200011492,-0.800006449,1,0,0,rectangle,3.200011492,-0.800006449,1,0,0,3.200011492,-0.800006449,1,0,0,1,45,205,63,1,,,,,,,,
,,,,,,,,,,,,,FF,,,,,,,,1.5801,,,,,,,,,,,,,,,,,,,,,,60ff13e4113921388277a1a7,61036cf95c6680df8f8c5d13,2021-07-29_22h08.41.743,Simcolourproject_2stim_asymm_v5,2020.2.10,Win32,60,61025ae37ef11b136ea224fe,,,,,,,,,1442,49.60006101,60.79999447,1,0,0,response1disk,,7,-5.599988639,-3.200006485,1,0,0,rectangle,-5.599988639,-3.200006485,1,0,0,-5.599988639,-3.200006485,1,0,0,1,46,206,142,1,,,,,,,,
,,,,,,,,,,,,,FF,,,,,,,,0.9176,,,,,,,,,,,,,,,,,,,,,,60ff13e4113921388277a1a7,61036cf95c6680df8f8c5d13,2021-07-29_22h08.41.743,Simcolourproject_2stim_asymm_v5,2020.2.10,Win32,60,61025ae37ef11b136ea224fe,,,,,,,,,2201,49.60006101,127.199971,1,0,0,response1disk,,7,4.000011504,3.19999361,1,0,0,rectangle,4.000011504,3.19999361,1,0,0,4.000011504,3.19999361,1,0,0,1,47,207,34,1,,,,,,,,
,,,,,,,,,,,,,FF,,,,,,,,3.0331,,,,,,,,,,,,,,,,,,,,,,60ff13e4113921388277a1a7,61036cf95c6680df8f8c5d13,2021-07-29_22h08.41.743,Simcolourproject_2stim_asymm_v5,2020.2.10,Win32,60,61025ae37ef11b136ea224fe,,,,,,,,,3134,33.60006077,79.19997033,1,0,0,response1disk,,7,-2.399939764,9.599993706,1,0,0,rectangle,-2.399939764,9.599993706,1,0,0,-2.399939764,9.599993706,1,0,0,1,48,208,119,1,,,,,,,,
,,,,,,,,,,,,,FF,,,,,,,,2.6132,,,,,,,,,,,,,,,,,,,,,,60ff13e4113921388277a1a7,61036cf95c6680df8f8c5d13,2021-07-29_22h08.41.743,Simcolourproject_2stim_asymm_v5,2020.2.10,Win32,60,61025ae37ef11b136ea224fe,,,,,,,,,719,52.00001222,-71.2000075,1,0,0,response3disk,,4,6.400011539,5.599993646,1,0,0,rectangle,6.400011539,5.599993646,1,0,0,6.400011539,5.599993646,1,0,0,1,49,209,38,1,,,,,,,,
,,,,,,,,,,,,,FF,,,,,,,,2.5494,,,,,,,,,,,,,,,,,,,,,,60ff13e4113921388277a1a7,61036cf95c6680df8f8c5d13,2021-07-29_22h08.41.743,Simcolourproject_2stim_asymm_v5,2020.2.10,Win32,60,61025ae37ef11b136ea224fe,,,,,,,,,3378,88.80001277,-37.600007,1,0,0,response3disk,,5,-10.39993988,16.79999381,1,0,0,rectangle,-10.39993988,16.79999381,1,0,0,-10.39993988,16.79999381,1,0,0,1,50,210,123,1,,,,,,,,
,,,,,,,,,,,,,FF,,,,,,,,0.9508,,,,,,,,,,,,,,,,,,,,,,60ff13e4113921388277a1a7,61036cf95c6680df8f8c5d13,2021-07-29_22h08.41.743,Simcolourproject_2stim_asymm_v5,2020.2.10,Win32,60,61025ae37ef11b136ea224fe,,,,,,,,,159,44.80001211,67.99999458,1,0,0,response1disk,,7,-3.999988616,-4.800006509,1,0,0,rectangle,-3.999988616,-4.800006509,1,0,0,-3.999988616,-4.800006509,1,0,0,1,51,211,25,1,,,,,,,,
,,,,,,,,,,,,,FF,,,,,,,,1.0338,,,,,,,,,,,,,,,,,,,,,,60ff13e4113921388277a1a7,61036cf95c6680df8f8c5d13,2021-07-29_22h08.41.743,Simcolourproject_2stim_asymm_v5,2020.2.10,Win32,60,61025ae37ef11b136ea224fe,,,,,,,,,3992,33.60006077,84.79999483,1,0,0,response1disk,,7,3.200011492,14.39999378,1,0,0,rectangle,3.200011492,14.39999378,1,0,0,3.200011492,14.39999378,1,0,0,1,52,212,57,1,,,,,,,,
,,,,,,,,,,,,,FF,,,,,,,,1.2545,,,,,,,,,,,,,,,,,,,,,,60ff13e4113921388277a1a7,61036cf95c6680df8f8c5d13,2021-07-29_22h08.41.743,Simcolourproject_2stim_asymm_v5,2020.2.10,Win32,60,61025ae37ef11b136ea224fe,,,,,,,,,361,37.60006083,76.79999471,1,0,0,response1disk,,7,2.40001148,-1.600006461,1,0,0,rectangle,2.40001148,-1.600006461,1,0,0,2.40001148,-1.600006461,1,0,0,1,53,213,88,1,,,,,,,,
,,,,,,,,,,,,,FF,,,,,,,,1.2212,,,,,,,,,,,,,,,,,,,,,,60ff13e4113921388277a1a7,61036cf95c6680df8f8c5d13,2021-07-29_22h08.41.743,Simcolourproject_2stim_asymm_v5,2020.2.10,Win32,60,61025ae37ef11b136ea224fe,,,,,,,,,3734,33.60006077,93.59999496,1,0,0,response1disk,,7,-11.99998873,-2.400006473,1,0,0,rectangle,-11.99998873,-2.400006473,1,0,0,-11.99998873,-2.400006473,1,0,0,1,54,214,75,1,,,,,,,,
,,,,,,,,,,,,,FF,,,,,,,,3.3503,,,,,,,,,,,,,,,,,,,,,,60ff13e4113921388277a1a7,61036cf95c6680df8f8c5d13,2021-07-29_22h08.41.743,Simcolourproject_2stim_asymm_v5,2020.2.10,Win32,60,61025ae37ef11b136ea224fe,,,,,,,,,901,101.600013,-48.80000716,1,0,0,response3disk,,5,6.400011539,3.19999361,1,0,0,rectangle,6.400011539,3.19999361,1,0,0,6.400011539,3.19999361,1,0,0,1,55,215,103,1,,,,,,,,
,,,,,,,,,,,,,FF,,,,,,,,2.1504,,,,,,,,,,,,,,,,,,,,,,60ff13e4113921388277a1a7,61036cf95c6680df8f8c5d13,2021-07-29_22h08.41.743,Simcolourproject_2stim_asymm_v5,2020.2.10,Win32,60,61025ae37ef11b136ea224fe,,,,,,,,,2294,-35.99998909,-57.6000073,1,0,0,response5disk,,3,-3.999988616,13.59999377,1,0,0,rectangle,-3.999988616,13.59999377,1,0,0,-3.999988616,13.59999377,1,0,0,1,56,216,59,1,,,,,,,,
,,,,,,,,,,,,,FF,,,,,,,,2.0338,,,,,,,,,,,,,,,,,,,,,,60ff13e4113921388277a1a7,61036cf95c6680df8f8c5d13,2021-07-29_22h08.41.743,Simcolourproject_2stim_asymm_v5,2020.2.10,Win32,60,61025ae37ef11b136ea224fe,,,,,,,,,429,37.60006083,87.19997045,1,0,0,response1disk,,7,-0.799988568,2.399993598,1,0,0,rectangle,-0.799988568,2.399993598,1,0,0,-0.799988568,2.399993598,1,0,0,1,57,217,3,1,,,,,,,,
,,,,,,,,,,,,,FF,,,,,,,,2.3046,,,,,,,,,,,,,,,,,,,,,,60ff13e4113921388277a1a7,61036cf95c6680df8f8c5d13,2021-07-29_22h08.41.743,Simcolourproject_2stim_asymm_v5,2020.2.10,Win32,60,61025ae37ef11b136ea224fe,,,,,,,,,3421,-30.39994018,-53.60000724,1,0,0,response5disk,,3,8.000011563,13.59999377,1,0,0,rectangle,8.000011563,13.59999377,1,0,0,8.000011563,13.59999377,1,0,0,1,58,218,87,1,,,,,,,,
,,,,,,,,,,,,,FF,,,,,,,,0.9871,,,,,,,,,,,,,,,,,,,,,,60ff13e4113921388277a1a7,61036cf95c6680df8f8c5d13,2021-07-29_22h08.41.743,Simcolourproject_2stim_asymm_v5,2020.2.10,Win32,60,61025ae37ef11b136ea224fe,,,,,,,,,3896,48.00001216,76.79999471,1,0,0,response1disk,,7,1.600060296,-5.600006521,1,0,0,rectangle,-33.59998906,99.19997063,1,0,0,-1.59998858,-2.400006473,1,0,0,1,59,219,104,1,,response7disk_3,TRUE,0,0,"[290,73,112,43,0,54,27,154,181,297,310,86,80,38,136,269,5,140,0,220]",2.1199,rectangle
,,,,,,,,,,,,,FF,,,,,,,,3.0195,,,,,,,,,,,,,,,,,,,,,,60ff13e4113921388277a1a7,61036cf95c6680df8f8c5d13,2021-07-29_22h08.41.743,Simcolourproject_2stim_asymm_v5,2020.2.10,Win32,60,61025ae37ef11b136ea224fe,,,,,,,,,3380,89.60001278,-50.40000719,1,0,0,response3disk,,5,-4.799988627,5.599993646,1,0,0,rectangle,-4.799988627,5.599993646,1,0,0,-4.799988627,5.599993646,1,0,0,1,60,220,97,1,,,,,,,,
,,,,,,,,,,,,,FF,,,,,,,,1.6503,,,,,,,,,,,,,,,,,,,,,,60ff13e4113921388277a1a7,61036cf95c6680df8f8c5d13,2021-07-29_22h08.41.743,Simcolourproject_2stim_asymm_v5,2020.2.10,Win32,60,61025ae37ef11b136ea224fe,,,,,,,,,1487,29.60006071,88.79999489,1,0,0,response1disk,,7,9.600060415,-7.200006545,1,0,0,rectangle,9.600060415,-7.200006545,1,0,0,9.600060415,-7.200006545,1,0,0,1,61,221,6,1,,,,,,,,
,,,,,,,,,,,,,FF,,,,,,,,1.2544,,,,,,,,,,,,,,,,,,,,,,60ff13e4113921388277a1a7,61036cf95c6680df8f8c5d13,2021-07-29_22h08.41.743,Simcolourproject_2stim_asymm_v5,2020.2.10,Win32,60,61025ae37ef11b136ea224fe,,,,,,,,,4244,33.60006077,87.19997045,1,0,0,response1disk,,7,1.600060296,-7.200006545,1,0,0,rectangle,1.600060296,-7.200006545,1,0,0,1.600060296,-7.200006545,1,0,0,1,62,222,149,1,,,,,,,,
,,,,,,,,,,,,,FF,,,,,,,,1.7344,,,,,,,,,,,,,,,,,,,,,,60ff13e4113921388277a1a7,61036cf95c6680df8f8c5d13,2021-07-29_22h08.41.743,Simcolourproject_2stim_asymm_v5,2020.2.10,Win32,60,61025ae37ef11b136ea224fe,,,,,,,,,711,44.80001211,67.19997015,1,0,0,response1disk,,7,20.00001174,6.399993658,1,0,0,rectangle,20.00001174,6.399993658,1,0,0,20.00001174,6.399993658,1,0,0,1,63,223,115,1,,,,,,,,
,,,,,,,,,,,,,FF,,,,,,,,1.1692,,,,,,,,,,,,,,,,,,,,,,60ff13e4113921388277a1a7,61036cf95c6680df8f8c5d13,2021-07-29_22h08.41.743,Simcolourproject_2stim_asymm_v5,2020.2.10,Win32,60,61025ae37ef11b136ea224fe,,,,,,,,,4050,86.40001273,39.19996973,1,0,0,response1disk,,6,-11.99998873,7.19999367,1,0,0,rectangle,-11.99998873,7.19999367,1,0,0,-11.99998873,7.19999367,1,0,0,1,64,224,125,1,,,,,,,,
,,,,,,,,,,,,,FF,,,,,,,,1.5497,,,,,,,,,,,,,,,,,,,,,,60ff13e4113921388277a1a7,61036cf95c6680df8f8c5d13,2021-07-29_22h08.41.743,Simcolourproject_2stim_asymm_v5,2020.2.10,Win32,60,61025ae37ef11b136ea224fe,,,,,,,,,3763,27.20001185,87.19997045,1,0,0,response1disk,,7,-5.599988639,1.599993587,1,0,0,rectangle,-5.599988639,1.599993587,1,0,0,-5.599988639,1.599993587,1,0,0,1,65,225,109,1,,,,,,,,
,,,,,,,,,,,,,FF,,,,,,,,0.8833,,,,,,,,,,,,,,,,,,,,,,60ff13e4113921388277a1a7,61036cf95c6680df8f8c5d13,2021-07-29_22h08.41.743,Simcolourproject_2stim_asymm_v5,2020.2.10,Win32,60,61025ae37ef11b136ea224fe,,,,,,,,,1111,42.40001208,105.5999951,1,0,0,response1disk,,7,5.600060356,1.599993587,1,0,0,rectangle,5.600060356,1.599993587,1,0,0,5.600060356,1.599993587,1,0,0,1,66,226,18,1,,,,,,,,
,,,,,,,,,,,,,FF,,,,,,,,1.5173,,,,,,,,,,,,,,,,,,,,,,60ff13e4113921388277a1a7,61036cf95c6680df8f8c5d13,2021-07-29_22h08.41.743,Simcolourproject_2stim_asymm_v5,2020.2.10,Win32,60,61025ae37ef11b136ea224fe,,,,,,,,,3853,84.0000127,-25.60000682,1,0,0,response3disk,,5,-12.79998875,-4.800006509,1,0,0,rectangle,-12.79998875,-4.800006509,1,0,0,-12.79998875,-4.800006509,1,0,0,1,67,227,144,1,,,,,,,,
,,,,,,,,,,,,,FF,,,,,,,,0.9201,,,,,,,,,,,,,,,,,,,,,,60ff13e4113921388277a1a7,61036cf95c6680df8f8c5d13,2021-07-29_22h08.41.743,Simcolourproject_2stim_asymm_v5,2020.2.10,Win32,60,61025ae37ef11b136ea224fe,,,,,,,,,2123,41.60006089,92.79999495,1,0,0,response1disk,,7,5.600060356,10.39999372,1,0,0,rectangle,5.600060356,10.39999372,1,0,0,5.600060356,10.39999372,1,0,0,1,68,228,66,1,,,,,,,,
,,,,,,,,,,,,,FF,,,,,,,,3.7715,,,,,,,,,,,,,,,,,,,,,,60ff13e4113921388277a1a7,61036cf95c6680df8f8c5d13,2021-07-29_22h08.41.743,Simcolourproject_2stim_asymm_v5,2020.2.10,Win32,60,61025ae37ef11b136ea224fe,,,,,,,,,3027,21.60006059,80.79999477,1,0,0,response1disk,,7,-10.39993988,-10.40000659,1,0,0,rectangle,-10.39993988,-10.40000659,1,0,0,-10.39993988,-10.40000659,1,0,0,1,69,229,150,1,,,,,,,,
,,,,,,,,,,,,,FF,,,,,,,,2.2669,,,,,,,,,,,,,,,,,,,,,,60ff13e4113921388277a1a7,61036cf95c6680df8f8c5d13,2021-07-29_22h08.41.743,Simcolourproject_2stim_asymm_v5,2020.2.10,Win32,60,61025ae37ef11b136ea224fe,,,,,,,,,1762,47.20001215,-75.20000756,1,0,0,response3disk,,4,-9.599988699,4.799993634,1,0,0,rectangle,-9.599988699,4.799993634,1,0,0,-9.599988699,4.799993634,1,0,0,1,70,230,153,1,,,,,,,,
,,,,,,,,,,,,,FF,,,,,,,,1.7842,,,,,,,,,,,,,,,,,,,,,,60ff13e4113921388277a1a7,61036cf95c6680df8f8c5d13,2021-07-29_22h08.41.743,Simcolourproject_2stim_asymm_v5,2020.2.10,Win32,60,61025ae37ef11b136ea224fe,,,,,,,,,4100,-41.59998918,-75.20000756,1,0,0,response5disk,,3,-7.199988663,-16.00000668,1,0,0,rectangle,-7.199988663,-16.00000668,1,0,0,-7.199988663,-16.00000668,1,0,0,1,71,231,51,1,,,,,,,,
,,,,,,,,,,,,,FF,,,,,,,,1.2178,,,,,,,,,,,,,,,,,,,,,,60ff13e4113921388277a1a7,61036cf95c6680df8f8c5d13,2021-07-29_22h08.41.743,Simcolourproject_2stim_asymm_v5,2020.2.10,Win32,60,61025ae37ef11b136ea224fe,,,,,,,,,643,40.00001204,63.99999452,1,0,0,response1disk,,7,8.000011563,2.399993598,1,0,0,rectangle,8.000011563,2.399993598,1,0,0,8.000011563,2.399993598,1,0,0,1,72,232,55,1,,,,,,,,
,,,,,,,,,,,,,FF,,,,,,,,1.4543,,,,,,,,,,,,,,,,,,,,,,60ff13e4113921388277a1a7,61036cf95c6680df8f8c5d13,2021-07-29_22h08.41.743,Simcolourproject_2stim_asymm_v5,2020.2.10,Win32,60,61025ae37ef11b136ea224fe,,,,,,,,,4060,-78.3999409,-22.40000677,1,0,0,response5disk,,2,3.200011492,5.599993646,1,0,0,rectangle,3.200011492,5.599993646,1,0,0,3.200011492,5.599993646,1,0,0,1,73,233,114,1,,,,,,,,
,,,,,,,,,,,,,FF,,,,,,,,7.5662,,,,,,,,,,,,,,,,,,,,,,60ff13e4113921388277a1a7,61036cf95c6680df8f8c5d13,2021-07-29_22h08.41.743,Simcolourproject_2stim_asymm_v5,2020.2.10,Win32,60,61025ae37ef11b136ea224fe,,,,,,,,,821,72.00001252,-64.8000074,1,0,0,response3disk,,5,-1.59998858,-7.200006545,1,0,0,rectangle,-1.59998858,-7.200006545,1,0,0,-1.59998858,-7.200006545,1,0,0,1,74,234,11,1,,,,,,,,
,,,,,,,,,,,,,FF,,,,,,,,1.0632,,,,,,,,,,,,,,,,,,,,,,60ff13e4113921388277a1a7,61036cf95c6680df8f8c5d13,2021-07-29_22h08.41.743,Simcolourproject_2stim_asymm_v5,2020.2.10,Win32,60,61025ae37ef11b136ea224fe,,,,,,,,,358,37.60006083,99.19997063,1,0,0,response1disk,,7,-5.599988639,-5.600006521,1,0,0,rectangle,-5.599988639,-5.600006521,1,0,0,-5.599988639,-5.600006521,1,0,0,1,75,235,135,1,,,,,,,,
,,,,,,,,,,,,,FF,,,,,,,,1.9016,,,,,,,,,,,,,,,,,,,,,,60ff13e4113921388277a1a7,61036cf95c6680df8f8c5d13,2021-07-29_22h08.41.743,Simcolourproject_2stim_asymm_v5,2020.2.10,Win32,60,61025ae37ef11b136ea224fe,,,,,,,,,1384,-82.39994096,-46.40000713,1,0,0,response5disk,,2,22.40001178,-6.4373E-06,1,0,0,rectangle,22.40001178,-6.4373E-06,1,0,0,22.40001178,-6.4373E-06,1,0,0,1,76,236,10,1,,,,,,,,
,,,,,,,,,,,,,FF,,,,,,,,1.6211,,,,,,,,,,,,,,,,,,,,,,60ff13e4113921388277a1a7,61036cf95c6680df8f8c5d13,2021-07-29_22h08.41.743,Simcolourproject_2stim_asymm_v5,2020.2.10,Win32,60,61025ae37ef11b136ea224fe,,,,,,,,,2720,-89.59998989,49.5999943,1,0,0,response7disk,,1,2.40001148,9.599993706,1,0,0,rectangle,2.40001148,9.599993706,1,0,0,2.40001148,9.599993706,1,0,0,1,77,237,24,1,,,,,,,,
,,,,,,,,,,,,,FF,,,,,,,,1.229,,,,,,,,,,,,,,,,,,,,,,60ff13e4113921388277a1a7,61036cf95c6680df8f8c5d13,2021-07-29_22h08.41.743,Simcolourproject_2stim_asymm_v5,2020.2.10,Win32,60,61025ae37ef11b136ea224fe,,,,,,,,,1659,38.40001202,133.5999956,1,0,0,response1disk,,7,-7.199988663,5.599993646,1,0,0,rectangle,-7.199988663,5.599993646,1,0,0,-7.199988663,5.599993646,1,0,0,1,78,238,9,1,,,,,,,,
,,,,,,,,,,,,,FF,,,,,,,,1.0627,,,,,,,,,,,,,,,,,,,,,,60ff13e4113921388277a1a7,61036cf95c6680df8f8c5d13,2021-07-29_22h08.41.743,Simcolourproject_2stim_asymm_v5,2020.2.10,Win32,60,61025ae37ef11b136ea224fe,,,,,,,,,3590,36.80001199,113.5999953,1,0,0,response1disk,,7,-11.19998872,-4.800006509,1,0,0,rectangle,-11.19998872,-4.800006509,1,0,0,-11.19998872,-4.800006509,1,0,0,1,79,239,79,1,,,,,,,,
,,,,,,,,,,,,,FF,,,,,,,,2.8338,,,,,,,,,,,,,,,,,,,,,,60ff13e4113921388277a1a7,61036cf95c6680df8f8c5d13,2021-07-29_22h08.41.743,Simcolourproject_2stim_asymm_v5,2020.2.10,Win32,60,61025ae37ef11b136ea224fe,,,,,,,,,4122,-72.79998964,-36.80000699,1,0,0,response5disk,,2,4.800011516,7.999993682,1,0,0,rectangle,4.800011516,7.999993682,1,0,0,4.800011516,7.999993682,1,0,0,1,80,240,124,1,,,,,,,,
,,,,,,,,,,,,,FF,,,,,,,,0.9885,,,,,,,,,,,,,,,,,,,,,,60ff13e4113921388277a1a7,61036cf95c6680df8f8c5d13,2021-07-29_22h08.41.743,Simcolourproject_2stim_asymm_v5,2020.2.10,Win32,60,61025ae37ef11b136ea224fe,,,,,,,,,2082,36.80001199,75.19997027,1,0,0,response1disk,,7,-2.399939764,7.19999367,1,0,0,rectangle,-2.399939764,7.19999367,1,0,0,-2.399939764,7.19999367,1,0,0,1,81,241,139,1,,,,,,,,
,,,,,,,,,,,,,FF,,,,,,,,2.0842,,,,,,,,,,,,,,,,,,,,,,60ff13e4113921388277a1a7,61036cf95c6680df8f8c5d13,2021-07-29_22h08.41.743,Simcolourproject_2stim_asymm_v5,2020.2.10,Win32,60,61025ae37ef11b136ea224fe,,,,,,,,,3207,-51.99998933,-86.40000772,1,0,0,response5disk,,3,6.400011539,14.39999378,1,0,0,rectangle,6.400011539,14.39999378,1,0,0,6.400011539,14.39999378,1,0,0,1,82,242,2,1,,,,,,,,
,,,,,,,,,,,,,FF,,,,,,,,0.9167,,,,,,,,,,,,,,,,,,,,,,60ff13e4113921388277a1a7,61036cf95c6680df8f8c5d13,2021-07-29_22h08.41.743,Simcolourproject_2stim_asymm_v5,2020.2.10,Win32,60,61025ae37ef11b136ea224fe,,,,,,,,,1272,45.60006095,91.99999493,1,0,0,response1disk,,7,1.14441E-05,-6.400006533,1,0,0,rectangle,1.14441E-05,-6.400006533,1,0,0,1.14441E-05,-6.400006533,1,0,0,1,83,243,129,1,,,,,,,,
